trial_num,session_num,stim_probability_left,contrast,position,response_choice,trial_correct,reaction_time
1,8,0.5,1.0,-35.0,-1,1.0,0.31089999999999973
2,8,0.5,1.0,35.0,1,1.0,0.2019000000000002
3,8,0.5,0.25,-35.0,-1,1.0,0.4906000000000006
4,8,0.5,1.0,-35.0,-1,1.0,0.3855000000000004
5,8,0.5,1.0,-35.0,-1,1.0,0.44209999999999994
6,8,0.5,1.0,35.0,1,1.0,0.6134999999999984
7,8,0.5,1.0,35.0,1,1.0,0.34239999999999426
8,8,0.5,0.5,-35.0,-1,1.0,0.25390000000000157
9,8,0.5,0.25,-35.0,-1,1.0,1.0411000000000001
10,8,0.5,1.0,35.0,1,1.0,0.28080100000000385
11,8,0.5,1.0,35.0,1,1.0,0.414701000000008
12,8,0.5,1.0,-35.0,-1,1.0,0.5400000000000063
13,8,0.5,0.5,-35.0,-1,1.0,1.2364999999999995
14,8,0.5,0.5,35.0,1,1.0,0.24910000000000565
15,8,0.5,0.5,35.0,1,1.0,0.405300000000004
16,8,0.5,0.25,-35.0,-1,1.0,0.30529999999999546
17,8,0.5,1.0,35.0,1,1.0,1.018500000000003
18,8,0.5,0.25,-35.0,-1,1.0,0.37119999999998754
19,8,0.5,0.25,-35.0,-1,1.0,0.831799999999987
20,8,0.5,0.25,35.0,1,1.0,0.20190000000000907
21,8,0.5,0.25,35.0,1,1.0,0.5171009999999967
22,8,0.5,0.25,-35.0,-1,1.0,0.23869999999999436
23,8,0.5,1.0,-35.0,-1,1.0,0.24639999999999418
24,8,0.5,0.25,-35.0,-1,1.0,0.474899999999991
25,8,0.5,1.0,35.0,1,1.0,0.3415999999999997
26,8,0.5,1.0,-35.0,-1,1.0,0.2881009999999833
27,8,0.5,1.0,-35.0,-1,1.0,0.7939999999999969
28,8,0.5,0.25,-35.0,-1,1.0,0.2694000000000045
29,8,0.5,0.5,35.0,1,1.0,0.2594999999999885
30,8,0.5,1.0,35.0,1,1.0,0.30360100000000045
31,8,0.5,0.25,-35.0,1,0.0,1.5764999999999958
32,8,0.4,0.25,35.0,1,1.0,0.39289999999999736
33,8,0.5,0.5,-35.0,-1,1.0,0.3024000000000058
34,8,0.5,1.0,-35.0,-1,1.0,0.5135000000000218
35,8,0.5,1.0,-35.0,-1,1.0,0.2579000000000349
36,8,0.5,0.5,35.0,1,1.0,0.3166000000000224
37,8,0.5,1.0,-35.0,1,0.0,0.306699999999978
38,8,0.6,1.0,-35.0,-1,1.0,0.4544999999999959
39,8,0.5,0.5,35.0,1,1.0,0.33950000000001523
40,8,0.5,0.5,35.0,1,1.0,0.8871000000000322
41,8,0.5,0.25,35.0,1,1.0,1.68070000000003
42,8,0.5,0.5,-35.0,-1,1.0,0.4595000000000198
43,8,0.5,1.0,35.0,1,1.0,0.46349999999998204
44,8,0.5,1.0,-35.0,-1,1.0,0.8074009999999987
45,8,0.5,0.25,35.0,1,1.0,0.605700000000013
46,8,0.5,0.25,-35.0,-1,1.0,1.665001000000018
47,8,0.5,0.25,35.0,1,1.0,0.5265000000000271
48,8,0.5,0.5,35.0,1,1.0,0.4738009999999804
49,8,0.5,0.25,-35.0,-1,1.0,0.65620100000001
50,8,0.5,0.25,35.0,1,1.0,1.337600000000009
51,8,0.5,1.0,-35.0,-1,1.0,0.1675999999999931
52,8,0.5,1.0,-35.0,-1,1.0,0.29250100000001567
53,8,0.5,1.0,35.0,1,1.0,0.6845000000000141
54,8,0.5,1.0,35.0,1,1.0,0.4344000000000108
55,8,0.5,0.25,-35.0,-1,1.0,0.5263999999999953
56,8,0.5,1.0,35.0,1,1.0,4.008500000000026
57,8,0.5,0.25,-35.0,-1,1.0,0.39580000000000837
58,8,0.5,1.0,-35.0,-1,1.0,0.4540010000000336
59,8,0.5,0.5,-35.0,-1,1.0,0.4654000000000167
60,8,0.5,0.25,-35.0,-1,1.0,0.6722999999999786
61,8,0.5,0.5,35.0,1,1.0,0.5480000000000018
62,8,0.5,0.5,-35.0,-1,1.0,0.5404010000000028
63,8,0.5,1.0,-35.0,-1,1.0,0.4756010000000117
64,8,0.5,0.25,-35.0,-1,1.0,0.5324999999999989
65,8,0.5,0.5,-35.0,-1,1.0,0.19070000000002096
66,8,0.5,0.5,35.0,1,1.0,0.4822000000000344
67,8,0.5,1.0,-35.0,-1,1.0,0.39540099999999256
68,8,0.5,0.5,-35.0,-1,1.0,1.9803999999999746
69,8,0.5,0.5,-35.0,-1,1.0,2.3521010000000047
70,8,0.5,1.0,-35.0,-1,1.0,0.12269999999995207
71,8,0.5,0.5,-35.0,-1,1.0,0.9688999999999623
72,8,0.5,0.25,-35.0,-1,1.0,0.3786010000000033
73,8,0.5,1.0,35.0,1,1.0,0.27499999999997726
74,8,0.5,0.5,-35.0,-1,1.0,0.9284009999999512
75,8,0.5,0.25,-35.0,-1,1.0,0.5168000000000461
76,8,0.5,1.0,35.0,1,1.0,1.7285999999999717
77,8,0.5,0.5,35.0,1,1.0,0.6165000000000305
78,8,0.5,0.5,35.0,1,1.0,0.6214999999999691
79,8,0.5,1.0,35.0,1,1.0,0.30380000000002383
80,8,0.5,0.5,-35.0,-1,1.0,0.2624010000000112
81,8,0.5,1.0,35.0,1,1.0,1.6015999999999622
82,8,0.5,0.5,-35.0,-1,1.0,0.21010100000000875
83,8,0.5,0.5,35.0,1,1.0,0.2793999999999528
84,8,0.5,0.25,-35.0,-1,1.0,0.8034999999999854
85,8,0.5,0.25,35.0,1,1.0,0.470299999999952
86,8,0.5,0.25,-35.0,-1,1.0,1.745999999999981
87,8,0.5,1.0,-35.0,-1,1.0,0.9361000000000104
88,8,0.5,1.0,-35.0,-1,1.0,0.4005999999999972
89,8,0.5,1.0,-35.0,-1,1.0,1.962300999999968
90,8,0.5,1.0,-35.0,-1,1.0,0.26889999999991687
91,8,0.5,0.25,35.0,1,1.0,0.29570000000001073
92,8,0.5,0.5,-35.0,-1,1.0,0.1934999999999718
93,8,0.5,1.0,35.0,1,1.0,0.6050999999999931
94,8,0.5,0.5,-35.0,-1,1.0,2.3245000000000005
95,8,0.5,0.25,35.0,1,1.0,0.5186999999999671
96,8,0.5,1.0,-35.0,-1,1.0,0.8125009999999406
97,8,0.5,0.25,-35.0,-1,1.0,0.6228000000000407
98,8,0.5,0.5,35.0,1,1.0,0.22929999999996653
99,8,0.5,1.0,-35.0,-1,1.0,0.3994009999999548
100,8,0.5,0.5,-35.0,-1,1.0,1.1940000000000168
101,8,0.5,0.25,35.0,1,1.0,0.29200000000003
102,8,0.5,1.0,-35.0,-1,1.0,1.7499009999999657
103,8,0.5,0.25,35.0,1,1.0,0.8571999999999775
104,8,0.5,0.25,35.0,1,1.0,4.408200000000022
105,8,0.5,0.25,35.0,1,1.0,4.5323999999999955
106,8,0.5,0.5,-35.0,-1,1.0,0.3065000000000282
107,8,0.5,0.25,-35.0,-1,1.0,0.4527999999999679
108,8,0.5,0.5,35.0,1,1.0,1.2825000000000273
109,8,0.5,0.25,-35.0,-1,1.0,0.31340000000000146
110,8,0.5,0.5,-35.0,-1,1.0,0.45580000000001064
111,8,0.5,1.0,35.0,1,1.0,0.32499999999998863
112,8,0.5,0.5,-35.0,-1,1.0,0.36460000000005266
113,8,0.5,1.0,-35.0,-1,1.0,1.1716000000000122
114,8,0.5,0.5,-35.0,-1,1.0,0.5769999999999413
115,8,0.5,0.25,-35.0,-1,1.0,4.0989999999999895
116,8,0.5,1.0,-35.0,-1,1.0,0.2482010000000514
117,8,0.5,0.25,-35.0,-1,1.0,0.439899999999966
118,8,0.5,0.25,-35.0,-1,1.0,3.271000000000015
119,8,0.5,1.0,35.0,1,1.0,0.3055999999999699
120,8,0.5,0.25,-35.0,1,0.0,1.3295999999999708
121,8,0.3,0.25,35.0,1,1.0,0.34339999999997417
122,8,0.5,1.0,-35.0,-1,1.0,3.3543999999999983
123,8,0.5,0.25,-35.0,-1,1.0,0.24639999999993734
124,8,0.5,0.5,-35.0,-1,1.0,0.4597999999999729
125,8,0.5,0.5,35.0,1,1.0,0.43849999999997635
126,8,0.5,0.5,35.0,1,1.0,0.8679999999999382
127,8,0.5,0.25,35.0,1,1.0,4.779399999999953
128,8,0.5,0.25,-35.0,-1,1.0,0.3614000000000033
129,8,0.5,0.5,-35.0,-1,1.0,1.1990999999999303
130,8,0.5,1.0,-35.0,-1,1.0,1.2114010000000235
131,8,0.5,1.0,35.0,-1,0.0,1.0866009999999733
132,8,0.3,1.0,35.0,1,1.0,0.5624010000000226
133,8,0.5,0.5,35.0,1,1.0,4.933099999999968
134,8,0.5,0.5,-35.0,-1,1.0,0.6853999999999587
135,8,0.5,1.0,-35.0,-1,1.0,4.236900000000105
136,8,0.5,0.25,-35.0,-1,1.0,2.9073999999999387
137,8,0.5,0.25,35.0,1,1.0,2.7074010000000044
138,8,0.5,1.0,-35.0,-1,1.0,0.546799999999962
139,8,0.5,0.25,35.0,-1,0.0,1.6294000000000324
140,8,0.3,0.25,35.0,1,1.0,0.3085009999999784
141,8,0.5,0.5,-35.0,-1,1.0,5.417599999999993
142,8,0.5,1.0,-35.0,-1,1.0,0.3744000000000369
143,8,0.5,0.25,35.0,1,1.0,1.424199999999928
144,8,0.5,1.0,35.0,1,1.0,0.5346999999999298
145,8,0.5,1.0,-35.0,-1,1.0,1.5142009999999573
146,8,0.5,1.0,-35.0,-1,1.0,0.3438009999999849
147,8,0.5,0.5,-35.0,-1,1.0,0.2538000000000693
148,8,0.5,0.5,-35.0,-1,1.0,5.529700000000048
149,8,0.5,0.25,-35.0,-1,1.0,0.4248999999999796
150,8,0.5,1.0,-35.0,-1,1.0,0.9952999999999292
151,8,0.5,0.25,-35.0,-1,1.0,0.2563999999999851
152,8,0.5,0.5,-35.0,-1,1.0,3.9389999999999645
153,8,0.5,0.25,-35.0,-1,1.0,0.2818000000000893
154,8,0.5,1.0,35.0,1,1.0,0.36540100000001985
155,8,0.5,0.25,-35.0,-1,1.0,0.2735010000000102
156,8,0.5,1.0,-35.0,-1,1.0,2.204399999999964
157,8,0.5,0.25,35.0,1,1.0,0.4995000000001255
158,8,0.5,1.0,-35.0,-1,1.0,0.23739999999997963
159,8,0.5,0.5,35.0,1,1.0,0.2948999999998705
160,8,0.5,1.0,-35.0,-1,1.0,2.1621000000000095
161,8,0.5,1.0,35.0,1,1.0,0.3273999999998978
162,8,0.5,1.0,35.0,1,1.0,2.8278000000000247
163,8,0.5,1.0,35.0,1,1.0,0.6074999999999591
164,8,0.5,1.0,-35.0,-1,1.0,0.22040000000004056
165,8,0.5,0.25,-35.0,-1,1.0,0.24969999999996162
166,8,0.5,0.25,-35.0,-1,1.0,0.40970099999992726
167,8,0.5,0.25,-35.0,-1,1.0,2.43629999999996
168,8,0.5,1.0,-35.0,-1,1.0,0.2545999999999822
169,8,0.5,0.25,35.0,1,1.0,0.27569999999991524
170,8,0.5,1.0,35.0,1,1.0,1.90949999999998
171,8,0.5,0.5,35.0,1,1.0,1.7508000000000266
172,8,0.5,0.25,-35.0,-1,1.0,0.5647000000000162
173,8,0.5,1.0,-35.0,-1,1.0,0.3805999999999585
174,8,0.5,0.25,-35.0,-1,1.0,3.325501000000031
175,8,0.5,0.25,-35.0,-1,1.0,0.38589999999999236
176,8,0.5,0.5,35.0,1,1.0,0.2743999999999005
177,8,0.5,0.25,35.0,1,1.0,0.44850000000008095
178,8,0.5,0.25,-35.0,-1,1.0,0.3204000000000633
179,8,0.5,1.0,-35.0,-1,1.0,0.2675000000000409
180,8,0.5,0.25,-35.0,-1,1.0,4.907000000000039
181,8,0.5,0.5,-35.0,-1,1.0,0.3307999999999538
182,8,0.5,0.5,-35.0,-1,1.0,0.9044000000000096
183,8,0.5,1.0,35.0,1,1.0,0.3083000000000311
184,8,0.5,0.25,35.0,1,1.0,0.5503999999999678
185,8,0.5,1.0,-35.0,-1,1.0,0.5693999999999733
186,8,0.5,1.0,35.0,1,1.0,0.19799999999997908
187,8,0.5,0.5,-35.0,-1,1.0,0.3854000000000042
188,8,0.5,0.25,35.0,1,1.0,0.15880000000004202
189,8,0.5,0.25,35.0,1,1.0,0.24679999999989377
190,8,0.5,1.0,-35.0,-1,1.0,2.1557999999999993
191,8,0.5,0.5,35.0,1,1.0,0.2789999999998827
192,8,0.5,0.25,-35.0,-1,1.0,0.8088010000000168
193,8,0.5,0.125,-35.0,-1,1.0,0.31750099999999293
194,8,0.5,1.0,-35.0,1,0.0,0.1371000000000322
195,8,0.5,1.0,35.0,1,1.0,0.32569999999998345
196,8,0.5,0.5,-35.0,1,0.0,0.18049999999993815
197,8,0.5,0.25,-35.0,-1,1.0,0.4394999999999527
198,8,0.5,1.0,-35.0,-1,1.0,4.296399999999835
199,8,0.5,0.5,-35.0,-1,1.0,0.36630000000002383
200,8,0.5,1.0,-35.0,1,0.0,0.11039999999991323
201,8,0.5,1.0,-35.0,-1,1.0,0.3004009999999653
202,8,0.5,1.0,35.0,1,1.0,2.3931000000001177
203,8,0.5,1.0,35.0,1,1.0,0.38390100000003713
204,8,0.5,0.125,-35.0,1,0.0,3.2707999999998947
205,8,0.5,0.25,35.0,1,1.0,0.31729999999993197
206,8,0.5,0.25,35.0,1,1.0,2.5453999999999724
207,8,0.5,0.125,-35.0,-1,1.0,1.1499000000000024
208,8,0.5,1.0,35.0,1,1.0,0.6793999999999869
209,8,0.5,0.125,35.0,1,1.0,1.0614010000000462
210,8,0.5,0.25,-35.0,-1,1.0,1.3341999999998961
211,8,0.5,1.0,-35.0,-1,1.0,0.245900000000006
212,8,0.5,0.125,35.0,1,1.0,0.316400999999928
213,8,0.5,0.5,-35.0,-1,1.0,0.39419999999995525
214,8,0.5,0.125,-35.0,-1,1.0,2.510499999999979
215,8,0.5,0.5,-35.0,-1,1.0,0.6145999999999958
216,8,0.5,0.5,-35.0,-1,1.0,0.5715999999999894
217,8,0.5,0.25,-35.0,-1,1.0,0.6462000000000216
218,8,0.5,0.125,-35.0,-1,1.0,0.30950000000007094
219,8,0.5,0.5,-35.0,-1,1.0,0.45259999999996126
220,8,0.5,0.25,-35.0,1,0.0,0.9445999999999231
221,8,0.2,0.25,35.0,1,1.0,0.33539999999993597
222,8,0.5,1.0,35.0,1,1.0,0.6173999999999751
223,8,0.5,0.125,35.0,1,1.0,0.5899000000000569
224,8,0.5,0.25,-35.0,-1,1.0,0.3362999999999374
225,8,0.5,0.125,35.0,1,1.0,3.2356999999999516
226,8,0.5,0.25,35.0,1,1.0,0.40639999999996235
227,8,0.5,0.125,35.0,1,1.0,1.4365000000000236
228,8,0.5,0.25,-35.0,-1,1.0,0.9535999999999376
229,8,0.5,0.125,-35.0,-1,1.0,0.2518000000000029
230,8,0.5,0.5,35.0,-1,0.0,1.1721999999999753
231,8,0.5,0.125,35.0,1,1.0,3.3435000000000628
232,8,0.5,0.25,-35.0,-1,1.0,0.5484000000000151
233,8,0.5,1.0,-35.0,-1,1.0,0.25469999999995707
234,8,0.5,0.5,-35.0,-1,1.0,1.9790000000000418
235,8,0.5,0.125,35.0,1,1.0,0.6826000000000931
236,8,0.5,1.0,35.0,1,1.0,0.471300000000042
237,8,0.5,0.125,-35.0,-1,1.0,1.706401000000028
238,8,0.5,1.0,35.0,1,1.0,0.27920000000005984
239,8,0.5,0.25,35.0,1,1.0,0.9551999999999907
240,8,0.5,0.125,35.0,1,1.0,0.25749999999993634
241,8,0.5,1.0,-35.0,-1,1.0,0.3000000000000682
242,8,0.5,0.5,-35.0,-1,1.0,0.1673999999999296
243,8,0.5,0.25,-35.0,-1,1.0,0.46339999999986503
244,8,0.5,0.5,35.0,1,1.0,3.7914010000000644
245,8,0.5,0.125,-35.0,-1,1.0,0.5636009999999487
246,8,0.5,0.125,35.0,1,1.0,1.5484010000001263
247,8,0.5,0.25,-35.0,-1,1.0,0.3438020000000961
248,8,0.5,0.5,-35.0,-1,1.0,1.3986010000000988
249,8,0.5,0.25,-35.0,-1,1.0,0.4774010000000999
250,8,0.5,0.125,-35.0,-1,1.0,0.5454010000000835
251,8,0.5,0.25,-35.0,-1,1.0,0.42070200000011937
252,8,0.5,0.125,35.0,1,1.0,0.5083010000003014
253,8,0.5,1.0,-35.0,-1,1.0,3.837601000000177
254,8,0.5,0.25,-35.0,-1,1.0,0.5954020000001492
255,8,0.5,0.25,35.0,1,1.0,0.29440199999999095
256,8,0.5,1.0,35.0,1,1.0,0.28510099999994054
257,8,0.5,0.25,35.0,1,1.0,6.364601000000221
258,8,0.5,0.25,35.0,1,1.0,0.28230100000018865
259,8,0.5,0.125,-35.0,-1,1.0,0.5182010000000901
260,8,0.5,0.5,-35.0,-1,1.0,0.5123009999999795
261,8,0.5,0.125,35.0,1,1.0,6.9484010000001035
262,8,0.5,0.125,35.0,1,1.0,4.276000999999951
263,8,0.5,0.125,35.0,1,1.0,4.911801000000196
264,8,0.5,0.25,-35.0,-1,1.0,2.8895010000003367
265,8,0.5,1.0,-35.0,-1,1.0,2.368801000000076
266,8,0.5,0.25,-35.0,-1,1.0,0.43970100000001366
267,8,0.5,0.5,-35.0,-1,1.0,0.5124009999999544
268,8,0.5,0.5,35.0,1,1.0,1.883301000000074
269,8,0.5,0.125,35.0,1,1.0,0.39580099999989216
270,8,0.5,0.5,-35.0,-1,1.0,0.4434020000003329
271,8,0.5,0.125,-35.0,-1,1.0,0.5260020000002896
272,8,0.5,0.25,-35.0,-1,1.0,0.396701000000121
273,8,0.5,0.5,35.0,1,1.0,0.28640100000006896
274,8,0.5,0.5,-35.0,-1,1.0,0.4305010000000493
275,8,0.5,1.0,-35.0,-1,1.0,0.396300999999994
276,8,0.5,0.125,-35.0,-1,1.0,1.1406020000001718
277,8,0.5,1.0,35.0,1,1.0,1.7063010000001668
278,8,0.5,0.125,-35.0,1,0.0,6.114001000000144
279,8,0.4,0.125,35.0,1,1.0,0.4333010000000286
280,8,0.5,0.5,-35.0,-1,1.0,2.950901000000158
281,8,0.5,1.0,-35.0,-1,1.0,0.5135009999999056
282,8,0.5,0.25,-35.0,-1,1.0,0.7212010000000646
283,8,0.5,1.0,-35.0,-1,1.0,3.367001000000073
284,8,0.5,1.0,35.0,1,1.0,0.3078010000001541
285,8,0.5,0.25,35.0,1,1.0,0.2873020000001816
286,8,0.5,0.125,35.0,1,1.0,0.5685020000000804
287,8,0.5,1.0,-35.0,-1,1.0,0.36740099999997256
288,8,0.5,0.125,-35.0,-1,1.0,2.2753009999998994
289,8,0.5,0.5,-35.0,-1,1.0,0.28420100000016646
290,8,0.5,0.25,-35.0,-1,1.0,0.8486020000000281
291,8,0.5,1.0,-35.0,-1,1.0,0.3578019999999924
292,8,0.5,1.0,-35.0,-1,1.0,0.3053020000002107
293,8,0.5,0.125,-35.0,1,0.0,0.5744010000000799
294,8,0.4,0.125,35.0,1,1.0,0.2753010000001268
295,8,0.5,1.0,-35.0,-1,1.0,5.367901000000074
296,8,0.5,1.0,-35.0,-1,1.0,0.35560099999997874
297,8,0.5,0.5,-35.0,-1,1.0,0.43500100000028397
298,8,0.5,0.125,35.0,1,1.0,0.5224010000001726
299,8,0.5,1.0,-35.0,-1,1.0,0.4484019999999873
300,8,0.5,0.5,35.0,1,1.0,0.42640099999994163
301,8,0.5,0.5,35.0,1,1.0,4.798401000000013
302,8,0.5,1.0,35.0,1,1.0,0.4094009999998889
303,8,0.5,0.125,35.0,1,1.0,0.3754010000002381
304,8,0.5,0.5,-35.0,-1,1.0,0.3528009999999995
305,8,0.5,0.125,35.0,1,1.0,0.4124019999999291
306,8,0.5,0.25,35.0,1,1.0,1.3130009999999857
307,8,0.5,0.5,35.0,1,1.0,0.2557010000000446
308,8,0.5,0.25,35.0,1,1.0,2.4832010000002356
309,8,0.5,1.0,-35.0,-1,1.0,2.815800999999965
310,8,0.5,1.0,-35.0,-1,1.0,0.40360099999998056
311,8,0.5,0.125,35.0,-1,0.0,1.2063010000001668
312,8,0.5,0.125,35.0,1,1.0,0.33030100000019047
313,8,0.5,0.25,-35.0,-1,1.0,0.3163010000000668
314,8,0.5,0.25,-35.0,-1,1.0,0.5373019999999542
315,8,0.5,0.125,35.0,1,1.0,4.159601000000066
316,8,0.5,0.125,-35.0,1,0.0,0.8940010000001166
317,8,0.5,0.125,35.0,1,1.0,0.3700010000002294
318,8,0.5,1.0,35.0,1,1.0,0.47130100000026687
319,8,0.5,0.25,35.0,1,1.0,0.5733010000001286
320,8,0.5,0.125,-35.0,-1,1.0,0.4776010000000497
321,8,0.5,1.0,-35.0,-1,1.0,2.8468010000001414
322,8,0.5,0.25,35.0,1,1.0,0.3110010000002603
323,8,0.5,1.0,-35.0,-1,1.0,0.2169010000002345
324,8,0.5,0.5,-35.0,-1,1.0,0.7311009999998532
325,8,0.5,0.25,35.0,1,1.0,0.4973009999998794
326,8,0.5,0.25,-35.0,-1,1.0,1.0345010000000912
327,8,0.5,0.25,35.0,1,1.0,0.3938010000001668
328,8,0.5,0.125,35.0,1,1.0,0.3548009999999522
329,8,0.5,0.25,35.0,1,1.0,1.5308010000001104
330,8,0.5,0.25,-35.0,-1,1.0,0.8015010000001439
331,8,0.5,0.5,-35.0,-1,1.0,0.28420100000016646
332,8,0.5,0.125,-35.0,-1,1.0,0.46830100000011043
333,8,0.5,0.125,-35.0,-1,1.0,3.127801000000318
334,8,0.5,0.5,35.0,1,1.0,0.14860099999987142
335,8,0.5,0.125,35.0,1,1.0,0.5313009999999849
336,8,0.5,1.0,35.0,1,1.0,0.4285010000000966
337,8,0.5,0.125,35.0,1,1.0,1.038001000000122
338,8,0.5,1.0,35.0,1,1.0,0.7955010000000584
339,8,0.5,0.25,-35.0,-1,1.0,0.8183010000002469
340,8,0.5,1.0,35.0,1,1.0,2.342301000000134
341,8,0.5,0.25,35.0,1,1.0,0.6383010000001832
342,8,0.5,0.5,35.0,1,1.0,3.2257010000002992
343,8,0.5,0.5,-35.0,-1,1.0,0.5584010000002309
344,8,0.5,0.5,-35.0,-1,1.0,0.4393009999998867
345,8,0.5,0.25,35.0,1,1.0,0.6686009999998532
346,8,0.5,1.0,-35.0,-1,1.0,0.3527010000000246
347,8,0.5,0.5,-35.0,-1,1.0,0.5055010000000948
348,8,0.5,1.0,35.0,1,1.0,0.41960100000005696
349,8,0.5,0.25,-35.0,-1,1.0,1.3893010000001595
350,8,0.5,0.25,-35.0,-1,1.0,1.0333009999999376
351,8,0.5,0.125,-35.0,-1,1.0,0.3824010000000726
352,8,0.5,1.0,-35.0,-1,1.0,0.5069009999999707
353,8,0.5,0.25,-35.0,-1,1.0,6.102701000000252
354,8,0.5,1.0,-35.0,-1,1.0,0.4568010000000413
355,8,0.5,0.125,35.0,1,1.0,0.5862010000000737
356,8,0.5,0.125,-35.0,-1,1.0,4.423702000000048
357,8,0.5,0.25,-35.0,1,0.0,4.257401000000073
358,8,0.3,0.25,-35.0,-1,1.0,0.38070200000015575
359,8,0.5,0.5,-35.0,-1,1.0,0.48650100000008933
360,8,0.5,0.125,-35.0,1,0.0,0.6940010000000711
361,8,0.3,0.125,-35.0,1,0.0,3.890201000000161
362,8,0.5,0.5,35.0,1,1.0,0.330902000000151
363,8,0.5,0.125,-35.0,-1,1.0,0.9136010000001988
364,8,0.5,1.0,35.0,1,1.0,4.367701000000125
365,8,0.5,0.25,-35.0,-1,1.0,0.33040100000016537
366,8,0.5,1.0,35.0,1,1.0,0.42130200000019613
367,8,0.5,0.25,35.0,1,1.0,2.117301000000225
368,8,0.5,0.5,-35.0,-1,1.0,0.41150100000004386
369,8,0.5,0.25,35.0,1,1.0,6.557302000000163
370,8,0.5,0.125,-35.0,-1,1.0,4.965301000000181
371,8,0.5,1.0,35.0,1,1.0,3.8577010000001337
372,8,0.5,1.0,35.0,1,1.0,0.5253009999998994
373,8,0.5,0.5,-35.0,-1,1.0,0.5146010000000842
374,8,0.5,1.0,35.0,1,1.0,6.689301000000114
375,8,0.5,0.125,35.0,-1,0.0,4.521501000000171
376,8,0.5,0.125,35.0,1,1.0,14.975901999999905
377,8,0.5,0.25,-35.0,-1,1.0,0.5453010000001086
378,8,0.5,0.25,35.0,1,1.0,0.34330100000011043
379,8,0.5,0.5,-35.0,-1,1.0,0.8323010000001432
380,8,0.5,0.5,-35.0,-1,1.0,0.4295020000001841
381,8,0.5,0.25,35.0,1,1.0,0.7125009999999747
382,8,0.5,0.25,-35.0,-1,1.0,0.8403020000002925
383,8,0.5,0.25,35.0,1,1.0,0.34920099999999366
384,8,0.5,0.5,-35.0,-1,1.0,1.1436009999999897
385,8,0.5,0.125,35.0,1,1.0,0.48630100000013954
386,8,0.5,0.125,-35.0,-1,1.0,0.5073010000000977
387,8,0.5,0.25,-35.0,1,0.0,2.5296010000001843
388,8,0.5,0.125,-35.0,1,0.0,1.0804020000000492
389,8,0.5,0.125,35.0,1,1.0,0.4665010000001075
390,8,0.5,1.0,-35.0,-1,1.0,0.5373010000002978
391,8,0.5,0.5,-35.0,-1,1.0,0.5397020000000339
392,8,0.5,0.25,-35.0,-1,1.0,0.5675009999999929
393,8,0.5,0.5,-35.0,-1,1.0,1.2434010000001763
394,8,0.5,0.25,35.0,1,1.0,2.6413010000001123
395,8,0.5,0.5,35.0,1,1.0,0.5267020000001139
396,8,0.5,0.25,-35.0,-1,1.0,0.6645020000000841
397,8,0.5,0.25,-35.0,-1,1.0,0.7937020000001667
398,8,0.5,0.25,-35.0,-1,1.0,3.608300999999983
399,8,0.5,0.5,35.0,1,1.0,2.5573010000000522
400,8,0.5,1.0,-35.0,-1,1.0,1.9047010000001592
401,8,0.5,0.0625,35.0,-1,0.0,0.8374010000002272
402,8,0.3,0.0625,35.0,1,1.0,0.8487010000001192
403,8,0.5,0.5,35.0,1,1.0,0.2875010000002476
404,8,0.5,1.0,-35.0,-1,1.0,1.8716010000002825
405,8,0.5,0.25,-35.0,-1,1.0,0.49780200000009245
406,8,0.5,0.125,-35.0,1,0.0,0.34880100000009406
407,8,0.5,0.0625,-35.0,1,0.0,0.5377010000001974
408,8,0.5,0.125,-35.0,-1,1.0,0.4188010000000304
409,8,0.5,0.5,-35.0,-1,1.0,0.45790099999999256
410,8,0.5,0.5,35.0,1,1.0,0.5858020000000579
411,8,0.5,0.0625,35.0,1,1.0,2.5915010000001075
412,8,0.5,0.125,-35.0,1,0.0,0.3255010000000311
413,8,0.5,0.25,35.0,1,1.0,0.11170199999992292
414,8,0.5,0.125,35.0,1,1.0,0.32260199999996075
415,8,0.5,0.125,-35.0,-1,1.0,0.5753010000000813
416,8,0.5,0.5,-35.0,-1,1.0,0.47630100000014863
417,8,0.5,0.25,-35.0,-1,1.0,0.48190100000010716
418,8,0.5,0.5,-35.0,-1,1.0,2.80940099999998
419,8,0.5,0.5,-35.0,-1,1.0,0.4523010000002614
420,8,0.5,0.25,-35.0,-1,1.0,0.37300200000004224
421,8,0.5,1.0,-35.0,-1,1.0,4.008900999999923
422,8,0.5,0.0625,35.0,1,1.0,3.8003010000002178
423,8,0.5,0.125,-35.0,-1,1.0,3.4192010000003847
424,8,0.5,0.5,-35.0,-1,1.0,0.2736010000000988
425,8,0.5,0.25,35.0,1,1.0,0.40960100000006605
426,8,0.5,0.5,35.0,1,1.0,0.46030100000007224
427,8,0.5,1.0,-35.0,-1,1.0,0.3395010000001548
428,8,0.5,0.0625,-35.0,-1,1.0,0.8271010000000842
429,8,0.5,0.5,35.0,1,1.0,1.1296010000000933
430,8,0.5,1.0,35.0,1,1.0,0.27080099999989216
431,8,0.5,0.0625,35.0,1,1.0,2.706601000000319
432,8,0.5,0.25,35.0,1,1.0,2.151300999999876
433,8,0.5,1.0,35.0,1,1.0,0.323301000000356
434,8,0.5,0.5,-35.0,-1,1.0,0.4243019999998978
435,8,0.5,0.0625,35.0,-1,0.0,0.20350099999996019
436,8,0.5,0.125,-35.0,-1,1.0,0.2411010000000715
437,8,0.5,0.0625,-35.0,1,0.0,3.0538010000000213
438,8,0.5,0.125,-35.0,1,0.0,5.525301000000127
439,8,0.5,0.0625,35.0,1,1.0,0.7007009999999809
440,8,0.5,0.125,35.0,1,1.0,1.6313010000001213
441,8,0.5,0.125,35.0,1,1.0,1.1674010000001545
442,8,0.5,0.0625,-35.0,1,0.0,0.8920009999999365
443,8,0.5,0.25,-35.0,-1,1.0,1.6677010000000791
444,8,0.5,1.0,-35.0,-1,1.0,0.6317010000002483
445,8,0.5,0.0625,35.0,1,1.0,11.017701000000216
446,8,0.5,1.0,35.0,1,1.0,0.6721010000001115
447,8,0.5,0.125,-35.0,-1,1.0,0.4648010000003069
448,8,0.5,0.5,35.0,1,1.0,0.2855010000000675
449,8,0.5,0.25,35.0,1,1.0,0.8382020000001376
450,8,0.5,0.125,-35.0,-1,1.0,0.2992010000002665
451,8,0.5,0.0625,35.0,1,1.0,2.0517010000000937
452,8,0.5,0.25,35.0,1,1.0,0.4530010000000857
453,8,0.5,1.0,35.0,1,1.0,0.47190100000011626
454,8,0.5,0.25,-35.0,-1,1.0,0.4326010000002043
455,8,0.5,0.5,-35.0,-1,1.0,1.8788019999999506
456,8,0.5,0.125,-35.0,-1,1.0,8.28620100000012
457,8,0.5,0.5,35.0,1,1.0,0.47570100000029925
458,8,0.5,0.125,35.0,1,1.0,0.38980100000003404
459,8,0.5,0.5,-35.0,-1,1.0,0.4825010000001839
460,8,0.5,0.25,-35.0,-1,1.0,1.260101000000077
461,8,0.5,0.0625,35.0,-1,0.0,0.42930100000012317
462,8,0.5,0.125,35.0,1,1.0,0.3734020000001692
463,8,0.5,0.125,-35.0,-1,1.0,0.2694019999999
464,8,0.5,0.25,35.0,1,1.0,0.49030100000004495
465,8,0.5,0.25,35.0,1,1.0,0.6094010000001617
466,8,0.5,0.25,-35.0,-1,1.0,2.0869010000001254
467,8,0.5,1.0,35.0,1,1.0,0.3398010000000795
468,8,0.5,0.5,-35.0,-1,1.0,0.4975019999999404
469,8,0.5,0.5,35.0,1,1.0,1.499800999999934
470,8,0.5,0.125,-35.0,-1,1.0,0.3143009999998867
471,8,0.5,0.0625,-35.0,-1,1.0,0.5567010000004302
472,8,0.5,1.0,35.0,1,1.0,0.49420099999997547
473,8,0.5,0.0625,35.0,1,1.0,6.243401000000176
474,8,0.5,0.25,35.0,1,1.0,3.5612009999999827
475,8,0.5,0.25,35.0,1,1.0,0.4837009999996553
476,8,0.5,0.125,35.0,1,1.0,2.0413019999996322
477,8,0.5,0.5,35.0,1,1.0,0.24730099999987942
478,8,0.5,0.25,35.0,1,1.0,0.3282019999996919
479,8,0.5,0.0625,-35.0,1,0.0,3.957500999999411
480,8,0.5,0.125,-35.0,1,0.0,0.5983009999999922
481,8,0.5,0.125,35.0,1,1.0,0.334201000000121
482,8,0.5,0.0625,-35.0,-1,1.0,4.01850099999956
483,8,0.5,1.0,35.0,1,1.0,0.20450099999970917
484,8,0.5,0.0625,35.0,1,1.0,0.34210099999972954
485,8,0.5,0.25,35.0,1,1.0,0.381300999999894
486,8,0.5,0.0625,35.0,1,1.0,0.32930099999975937
487,8,0.5,0.125,35.0,1,1.0,0.45820099999991726
488,8,0.5,0.0625,-35.0,-1,1.0,0.26910099999986414
489,8,0.5,0.125,35.0,1,1.0,0.951600999999755
490,8,0.5,1.0,35.0,1,1.0,0.5333009999994829
491,8,0.5,1.0,35.0,1,1.0,0.41520100000025195
492,8,0.5,0.0625,-35.0,-1,1.0,1.7124009999997725
493,8,0.5,0.0625,35.0,1,1.0,0.5020009999998365
494,8,0.5,1.0,35.0,1,1.0,0.38960099999985687
495,8,0.5,0.25,35.0,1,1.0,0.14870199999995748
496,8,0.5,0.25,35.0,1,1.0,2.9130009999998947
497,8,0.5,1.0,-35.0,-1,1.0,2.135700999999699
498,8,0.5,1.0,-35.0,-1,1.0,1.5903019999996104
499,8,0.5,0.125,-35.0,-1,1.0,6.012400999999954
500,8,0.5,1.0,35.0,1,1.0,1.5501009999998132
501,8,0.5,0.25,35.0,1,1.0,4.216100999999526
502,8,0.5,0.125,-35.0,1,0.0,8.990400999999565
503,8,0.5,0.0625,35.0,-1,0.0,16.69970100000046
504,8,0.5,0.125,-35.0,-1,1.0,22.05820100000028
505,8,0.5,0.125,-35.0,-1,1.0,0.8043009999996684
506,8,0.5,1.0,-35.0,-1,1.0,2.2614009999997506
507,8,0.5,0.125,35.0,1,1.0,5.8509009999993395
508,8,0.5,0.5,-35.0,-1,1.0,0.738702000000103
509,8,0.5,0.125,35.0,1,1.0,0.297802000000047
510,8,0.5,0.5,-35.0,-1,1.0,1.3453019999997196
511,8,0.5,0.125,-35.0,-1,1.0,0.49440199999980905
512,8,0.5,0.125,-35.0,-1,1.0,0.8392010000002301
513,8,0.5,0.25,-35.0,-1,1.0,1.1183009999995193
514,8,0.5,0.25,-35.0,-1,1.0,0.2721010000000206
515,8,0.5,0.25,-35.0,-1,1.0,0.37820099999999
516,8,0.5,0.25,35.0,1,1.0,0.7224009999999907
517,8,0.5,0.125,35.0,1,1.0,2.311601000000337
518,8,0.5,0.0625,-35.0,1,0.0,0.5762009999998554
519,8,0.4,0.0625,35.0,1,1.0,8.908501999999771
520,8,0.5,1.0,35.0,1,1.0,0.7828019999997196
521,8,0.5,0.5,35.0,1,1.0,2.2822009999999864
522,8,0.5,0.125,35.0,1,1.0,2.0229010000002745
523,8,0.5,0.5,-35.0,-1,1.0,0.7024010000000089
524,8,0.5,0.25,-35.0,-1,1.0,0.7097009999997681
525,8,0.5,0.5,35.0,1,1.0,2.2492010000000846
526,8,0.5,1.0,-35.0,-1,1.0,1.1202019999996082
527,8,0.5,0.25,35.0,1,1.0,3.476300999999694
528,8,0.5,0.25,-35.0,-1,1.0,0.7072009999997135
529,8,0.5,1.0,35.0,1,1.0,0.5262009999996735
530,8,0.5,0.0625,35.0,1,1.0,2.8403009999997266
531,8,0.5,0.5,-35.0,-1,1.0,0.5165019999999458
532,8,0.5,0.25,-35.0,-1,1.0,1.6439009999999143
533,8,0.5,0.25,35.0,1,1.0,1.1002009999997426
534,8,0.5,1.0,-35.0,-1,1.0,0.4743009999997412
535,8,0.5,0.125,35.0,1,1.0,0.9702010000000882
536,8,0.5,0.25,35.0,1,1.0,7.980800999999701
537,8,0.5,0.5,-35.0,1,0.0,11.32700100000011
538,8,0.6,0.5,35.0,1,1.0,0.5311010000000351
539,8,0.5,1.0,-35.0,-1,1.0,0.504200999999739
540,8,0.5,0.125,-35.0,-1,1.0,0.6048009999999522
541,8,0.5,0.25,-35.0,-1,1.0,0.5109009999996488
542,8,0.5,0.0625,-35.0,-1,1.0,3.998200999999426
543,8,0.5,0.25,35.0,1,1.0,0.2312010000000555
544,8,0.5,0.25,-35.0,-1,1.0,0.5152009999997063
545,8,0.5,0.25,35.0,1,1.0,0.37120099999992817
546,8,0.5,1.0,35.0,1,1.0,0.34220200000027035
547,8,0.5,0.5,-35.0,-1,1.0,0.4313010000000759
548,8,0.5,1.0,-35.0,-1,1.0,0.4857010000000628
549,8,0.5,0.0625,35.0,1,1.0,0.35130100000014863
550,8,0.5,1.0,-35.0,-1,1.0,0.39220099999965896
551,8,0.5,0.125,-35.0,-1,1.0,2.1052019999997356
552,8,0.5,0.25,35.0,1,1.0,0.37570099999993545
553,8,0.5,0.125,35.0,1,1.0,5.178501999999753
554,8,0.5,0.125,-35.0,1,0.0,3.1562009999997827
555,8,0.5,0.25,35.0,1,1.0,1.0754010000000562
556,8,0.5,0.0625,35.0,1,1.0,9.57300099999975
557,8,0.5,0.25,35.0,1,1.0,4.135600999999497
558,8,0.5,0.25,-35.0,-1,1.0,0.42650099999991653
559,8,0.5,0.25,-35.0,-1,1.0,0.3127009999998336
560,8,0.5,0.0625,-35.0,-1,1.0,0.3001009999998132
561,8,0.5,1.0,-35.0,-1,1.0,0.8062019999997574
562,8,0.5,1.0,35.0,1,1.0,0.5104010000000017
563,8,0.5,0.125,-35.0,1,0.0,0.42300199999999677
564,8,0.6,0.125,-35.0,-1,1.0,0.33420099999966624
565,8,0.5,0.5,35.0,1,1.0,0.5564009999998234
566,8,0.5,0.5,35.0,1,1.0,0.5072009999998954
567,8,0.5,0.5,35.0,1,1.0,0.2599009999998998
568,8,0.5,0.25,-35.0,-1,1.0,1.7641019999996388
569,8,0.5,0.125,35.0,1,1.0,0.3366009999999733
570,8,0.5,0.0625,-35.0,1,0.0,1.958201999999801
571,8,0.7,0.0625,-35.0,-1,1.0,0.9204009999998561
572,8,0.5,0.5,-35.0,-1,1.0,0.3412009999997281
573,8,0.5,1.0,35.0,1,1.0,0.42420099999981176
574,8,0.5,0.25,35.0,1,1.0,0.35120099999994636
575,8,0.5,0.0625,-35.0,-1,1.0,0.6706009999998059
576,8,0.5,0.5,-35.0,-1,1.0,0.3948009999999158
577,8,0.5,0.0625,-35.0,1,0.0,2.2607010000001537
578,8,0.5,0.0625,-35.0,-1,1.0,8.968601000000035
579,8,0.5,1.0,-35.0,-1,1.0,3.4612010000000737
580,8,0.5,1.0,-35.0,-1,1.0,0.4353009999999813
581,8,0.5,0.5,35.0,1,1.0,0.6045009999998001
582,8,0.5,0.0625,-35.0,1,0.0,7.555501999999706
583,8,0.5,0.0625,-35.0,-1,1.0,0.34150099999988015
584,8,0.5,1.0,-35.0,-1,1.0,0.3723009999998794
585,8,0.5,0.25,-35.0,-1,1.0,0.28830199999993056
586,8,0.5,0.125,35.0,-1,0.0,0.37600099999963277
587,8,0.5,0.25,-35.0,-1,1.0,0.45540100000016537
588,8,0.5,0.25,35.0,1,1.0,2.6492010000001756
589,8,0.5,0.5,35.0,1,1.0,0.5120010000000548
590,8,0.5,0.25,-35.0,-1,1.0,0.5632010000003902
591,8,0.5,1.0,-35.0,-1,1.0,0.4489010000002054
592,8,0.5,0.0625,35.0,1,1.0,0.3696010000003298
593,8,0.5,1.0,-35.0,-1,1.0,1.5823009999999158
594,8,0.5,1.0,35.0,1,1.0,0.24320099999977174
595,8,0.5,0.5,-35.0,-1,1.0,0.3459010000001399
596,8,0.5,0.25,35.0,1,1.0,0.6367009999999027
597,8,0.5,0.5,35.0,1,1.0,3.309401999999409
598,8,0.5,1.0,35.0,1,1.0,0.5369009999999435
599,8,0.5,0.5,35.0,1,1.0,1.2994009999997616
600,8,0.5,0.125,-35.0,-1,1.0,1.623501000000033
601,8,0.5,1.0,35.0,1,1.0,0.5163010000001123
602,8,0.5,0.125,-35.0,-1,1.0,0.5442010000001574
603,8,0.5,0.25,35.0,1,1.0,0.3398010000000795
604,8,0.5,0.0625,-35.0,-1,1.0,0.537300999999843
605,8,0.5,0.25,35.0,1,1.0,0.28670099999999366
606,8,0.5,0.25,35.0,1,1.0,0.46120099999961894
607,8,0.5,0.0,35.0,-1,0.0,3.3868009999996502
608,8,0.6,0.0,35.0,1,1.0,0.37430099999983213
609,8,0.5,0.5,35.0,1,1.0,0.4437009999996917
610,8,0.5,0.5,35.0,1,1.0,0.3652009999996153
611,8,0.5,0.25,-35.0,-1,1.0,0.5072009999998954
612,8,0.5,0.0625,35.0,1,1.0,0.6282019999998738
613,8,0.5,0.0625,-35.0,-1,1.0,2.2242009999999937
614,8,0.5,0.5,35.0,1,1.0,0.47150100000044404
615,8,0.5,0.5,-35.0,-1,1.0,0.484201999999641
616,8,0.5,0.0625,-35.0,1,0.0,0.5416009999999005
617,8,0.5,0.125,35.0,1,1.0,0.23430199999984325
618,8,0.5,0.0,-35.0,1,0.0,0.4588020000001052
619,8,0.5,0.25,35.0,1,1.0,0.3278009999994538
620,8,0.5,1.0,-35.0,-1,1.0,5.342200999999932
621,8,0.5,0.5,35.0,1,1.0,2.122200999999677
622,8,0.5,0.125,35.0,1,1.0,3.9023010000000795
623,8,0.5,0.0625,35.0,1,1.0,0.47520099999974263
624,8,0.5,0.25,35.0,1,1.0,2.4858009999998103
625,8,0.5,0.5,-35.0,-1,1.0,2.1951020000001336
626,8,0.5,0.125,35.0,1,1.0,0.2732009999995171
627,8,0.5,0.0625,-35.0,1,0.0,0.4787009999995462
628,8,0.8,0.0625,-35.0,-1,1.0,0.4032009999996262
629,8,0.5,1.0,-35.0,-1,1.0,0.49220100000002276
630,8,0.5,0.125,-35.0,-1,1.0,1.5964019999996708
631,8,0.5,1.0,35.0,1,1.0,0.34910199999967517
632,8,0.5,0.5,-35.0,-1,1.0,0.4331010000000788
633,8,0.5,0.125,35.0,1,1.0,0.3392010000002301
634,8,0.5,0.0625,-35.0,1,0.0,0.646701000000121
635,8,0.5,0.25,-35.0,-1,1.0,0.4761009999997441
636,8,0.5,0.125,-35.0,-1,1.0,3.1467009999996662
637,8,0.5,0.25,35.0,1,1.0,0.3362010000000737
638,8,0.5,0.25,-35.0,-1,1.0,0.38370199999963006
639,8,0.5,0.0,35.0,1,1.0,0.6096009999996568
640,8,0.5,0.5,-35.0,-1,1.0,0.7274009999996451
641,8,0.5,0.0625,35.0,1,1.0,0.28310099999998783
642,8,0.5,0.0,35.0,1,1.0,2.85050099999944
643,8,0.5,0.5,35.0,1,1.0,0.6701010000001588
644,8,0.5,1.0,-35.0,-1,1.0,0.580801000000065
645,8,0.5,0.0625,35.0,1,1.0,3.1802010000001246
646,8,0.5,0.125,-35.0,-1,1.0,0.8776010000001406
647,8,0.5,0.125,-35.0,1,0.0,10.74040100000002
648,8,0.5,0.125,35.0,1,1.0,0.5012019999994664
649,8,0.5,1.0,-35.0,-1,1.0,0.27730099999962476
650,8,0.5,0.5,-35.0,-1,1.0,1.9982009999994261
651,8,0.5,0.5,35.0,1,1.0,0.5241009999999733
652,8,0.5,0.125,-35.0,-1,1.0,2.5984010000001945
653,8,0.5,0.25,35.0,1,1.0,0.7643009999997048
654,8,0.5,0.25,35.0,1,1.0,0.6185009999994691
655,8,0.5,0.125,-35.0,-1,1.0,0.5212009999995644
656,8,0.5,0.0625,-35.0,-1,1.0,0.2356009999998605
657,8,0.5,0.25,-35.0,-1,1.0,0.5147010000000591
658,8,0.5,0.125,-35.0,-1,1.0,0.6923009999995884
659,8,0.5,0.125,-35.0,-1,1.0,10.084701999999652
660,8,0.5,1.0,35.0,1,1.0,1.2932009999999536
661,8,0.5,0.5,-35.0,-1,1.0,0.528400999999576
662,8,0.5,0.125,35.0,1,1.0,14.256100999999944
663,8,0.5,1.0,35.0,1,1.0,0.2356009999998605
664,8,0.5,0.5,-35.0,-1,1.0,0.6502009999999245
665,8,0.5,0.5,35.0,1,1.0,2.112300999999661
666,8,0.5,0.125,-35.0,-1,1.0,0.29320099999995364
667,8,0.5,1.0,-35.0,-1,1.0,0.43600100000003295
668,8,0.5,0.125,-35.0,-1,1.0,0.3772009999997863
669,8,0.5,0.0625,35.0,1,1.0,2.2827010000000882
670,8,0.5,0.0,-35.0,1,0.0,2.4270009999995636
671,8,0.5,0.125,-35.0,-1,1.0,0.9763010000001486
672,8,0.5,1.0,35.0,1,1.0,0.9471020000000863
673,8,0.5,0.125,35.0,1,1.0,0.4564009999994596
674,8,0.5,0.0625,35.0,1,1.0,0.3105020000002696
675,8,0.5,0.0625,35.0,1,1.0,2.443301000000247
676,8,0.5,0.0,-35.0,1,0.0,0.437300999999934
677,8,0.5,0.0625,35.0,1,1.0,0.3367009999997208
678,8,0.5,0.125,-35.0,1,0.0,0.5043009999994865
679,8,0.9,0.125,-35.0,-1,1.0,0.5268009999995229
680,8,0.5,0.5,35.0,1,1.0,2.0177019999996446
681,8,0.5,0.0,-35.0,-1,1.0,0.5836019999997006
682,8,0.5,0.5,35.0,1,1.0,4.141701000000012
683,8,0.5,0.5,35.0,1,1.0,0.42060200000014447
684,8,0.5,1.0,35.0,1,1.0,3.10220100000015
685,8,0.5,0.5,35.0,1,1.0,0.40740199999981996
686,8,0.5,1.0,-35.0,-1,1.0,0.4117009999995389
687,8,0.5,0.5,35.0,1,1.0,0.3542010000001028
688,8,0.5,0.25,35.0,1,1.0,0.4492009999999027
689,8,0.5,1.0,35.0,1,1.0,0.7644009999999071
690,8,0.5,0.0,35.0,-1,0.0,6.688600999999835
691,8,0.5,0.0,-35.0,1,0.0,8.318001000000095
692,8,0.5,0.125,-35.0,-1,1.0,0.602701999999681
693,8,0.5,0.0625,-35.0,-1,1.0,2.625202000000172
694,8,0.5,0.25,-35.0,-1,1.0,0.4562020000003031
695,8,0.5,0.5,35.0,1,1.0,0.35840199999938704
696,8,0.5,0.5,35.0,1,1.0,0.5760010000003604
697,8,0.5,0.25,-35.0,-1,1.0,1.3852010000000519
698,8,0.5,0.125,-35.0,-1,1.0,0.39280099999950835
699,8,0.5,0.0,-35.0,-1,1.0,3.5721009999997477
700,8,0.5,0.25,-35.0,-1,1.0,0.48650099999986196
701,8,0.5,0.125,-35.0,-1,1.0,1.0590010000000802
702,8,0.5,0.0625,-35.0,-1,1.0,1.2002010000001064
703,8,0.5,0.0625,35.0,1,1.0,0.77920099999983
704,8,0.5,0.5,35.0,1,1.0,2.113300999999865
705,8,0.5,0.0625,-35.0,-1,1.0,0.3493020000000797
706,8,0.5,1.0,-35.0,-1,1.0,0.3833020000001852
707,8,0.5,0.25,35.0,1,1.0,1.01290199999994
708,8,0.5,0.0,35.0,-1,0.0,12.820400999999947
709,8,0.5,0.125,35.0,1,1.0,1.7067009999996117
710,8,0.5,0.0,35.0,1,1.0,3.134200999999848
711,8,0.5,0.0625,-35.0,-1,1.0,0.6967010000003029
712,8,0.5,0.0,-35.0,-1,1.0,0.5111009999995986
713,8,0.5,0.125,-35.0,-1,1.0,0.40350100000023303
714,8,0.5,0.25,35.0,1,1.0,1.164400999999998
715,8,0.5,0.5,-35.0,-1,1.0,1.2104009999998198
716,8,0.5,0.25,-35.0,-1,1.0,0.3345009999998183
717,8,0.5,0.25,35.0,1,1.0,5.340701999999965
718,8,0.5,0.125,-35.0,-1,1.0,0.3622009999999136
719,8,0.5,0.5,-35.0,-1,1.0,6.911200999999892
720,8,0.5,0.25,35.0,1,1.0,12.779202000000168
721,8,0.5,0.25,35.0,1,1.0,3.308100999999624
722,8,0.5,0.5,35.0,1,1.0,11.23220100000026
723,8,0.5,0.0625,-35.0,1,0.0,2.6651010000000497
724,8,0.5,0.125,35.0,1,1.0,3.2830009999997856
725,8,0.5,0.0,-35.0,1,0.0,14.698601000000053
726,8,0.5,0.0,-35.0,1,0.0,49.540100999999595
727,8,0.5,0.125,35.0,1,1.0,2.3201010000002498
728,8,0.5,0.0625,35.0,-1,0.0,3.9182010000004084
729,8,0.5,0.0625,-35.0,-1,1.0,0.7171009999997295
730,8,0.5,1.0,35.0,1,1.0,6.774500999999873
731,8,0.5,0.0,35.0,1,1.0,2.770702000000256
732,8,0.5,0.125,35.0,1,1.0,0.4552019999996446
733,8,0.5,0.5,35.0,1,1.0,6.441000999999687
734,8,0.5,0.0625,-35.0,-1,1.0,0.3651009999998678
1,9,0.5,0.125,35.0,1,1.0,0.12729999999999975
2,9,0.5,1.0,-35.0,-1,1.0,0.2914000000000003
3,9,0.5,1.0,-35.0,-1,1.0,0.6416990000000009
4,9,0.5,0.25,35.0,1,1.0,0.6753990000000005
5,9,0.5,0.25,35.0,-1,0.0,0.07119900000000001
6,9,0.5,0.125,-35.0,-1,1.0,0.3121990000000032
7,9,0.5,1.0,-35.0,-1,1.0,0.5510990000000007
8,9,0.5,0.0,35.0,-1,0.0,0.7056989999999992
9,9,0.5,0.125,35.0,1,1.0,0.16119899999999632
10,9,0.5,1.0,-35.0,-1,1.0,0.24549999999999983
11,9,0.5,0.0625,35.0,-1,0.0,1.1519989999999964
12,9,0.2,0.0625,35.0,1,1.0,0.27689900000000023
13,9,0.5,0.5,35.0,1,1.0,0.35459900000000033
14,9,0.5,0.5,35.0,1,1.0,0.26529899999999884
15,9,0.5,0.0,35.0,1,1.0,0.30679899999999805
16,9,0.5,1.0,-35.0,-1,1.0,0.37099900000000474
17,9,0.5,0.0625,35.0,1,1.0,0.16499999999999915
18,9,0.5,0.25,35.0,1,1.0,0.23279999999999745
19,9,0.5,0.0,35.0,1,1.0,0.25369999999999493
20,9,0.5,0.5,-35.0,-1,1.0,0.21109900000000437
21,9,0.5,0.5,35.0,1,1.0,0.39299999999998647
22,9,0.5,0.5,-35.0,-1,1.0,0.29939899999997976
23,9,0.5,0.125,35.0,1,1.0,0.26349900000001014
24,9,0.5,0.0625,-35.0,-1,1.0,0.30739900000000375
25,9,0.5,0.0625,-35.0,-1,1.0,0.6804989999999975
26,9,0.5,0.25,-35.0,-1,1.0,0.24619900000000428
27,9,0.5,1.0,-35.0,-1,1.0,0.25909899999997776
28,9,0.5,1.0,35.0,1,1.0,0.1405989999999946
29,9,0.5,0.125,-35.0,-1,1.0,1.199598999999992
30,9,0.5,1.0,-35.0,-1,1.0,0.20269899999999552
31,9,0.5,0.125,35.0,1,1.0,0.3508989999999841
32,9,0.5,0.5,35.0,1,1.0,0.1399990000000031
33,9,0.5,0.25,35.0,1,1.0,0.4642000000000053
34,9,0.5,0.5,35.0,1,1.0,0.2999990000000139
35,9,0.5,0.0625,35.0,1,1.0,2.2909000000000077
36,9,0.5,0.0,-35.0,1,0.0,0.3943999999999903
37,9,0.7,0.0,-35.0,-1,1.0,0.36179899999999066
38,9,0.5,1.0,35.0,1,1.0,0.5297990000000254
39,9,0.5,0.5,35.0,1,1.0,0.2707990000000109
40,9,0.5,1.0,-35.0,-1,1.0,0.2048990000000117
41,9,0.5,0.0,35.0,1,1.0,0.2736990000000219
42,9,0.5,0.5,35.0,1,1.0,0.18689900000001103
43,9,0.5,0.25,-35.0,-1,1.0,0.6469989999999939
44,9,0.5,1.0,35.0,1,1.0,1.546798999999993
45,9,0.5,0.0625,35.0,1,1.0,0.7856989999999939
46,9,0.5,0.5,35.0,1,1.0,0.2348999999999819
47,9,0.5,0.0625,35.0,1,1.0,0.25819900000001894
48,9,0.5,0.5,-35.0,-1,1.0,0.18729899999999589
49,9,0.5,0.125,-35.0,1,0.0,0.11009999999998854
50,9,0.7,0.125,35.0,1,1.0,0.25089899999997556
51,9,0.5,1.0,-35.0,-1,1.0,0.31899899999999093
52,9,0.5,0.25,35.0,1,1.0,0.2580989999999872
53,9,0.5,0.25,35.0,1,1.0,0.3310989999999947
54,9,0.5,0.0625,35.0,1,1.0,0.3068990000000156
55,9,0.5,0.5,35.0,1,1.0,1.5007990000000007
56,9,0.5,1.0,35.0,1,1.0,0.1821989999999971
57,9,0.5,0.0625,-35.0,1,0.0,0.602199000000013
58,9,0.8,0.0625,-35.0,-1,1.0,0.38279900000000566
59,9,0.5,0.5,-35.0,-1,1.0,0.37279899999998634
60,9,0.5,0.125,-35.0,-1,1.0,0.5139990000000125
61,9,0.5,0.5,35.0,1,1.0,2.6412990000000036
62,9,0.5,1.0,35.0,1,1.0,0.22269900000000575
63,9,0.5,0.5,-35.0,-1,1.0,0.3517999999999972
64,9,0.5,0.5,-35.0,-1,1.0,0.3353999999999928
65,9,0.5,1.0,35.0,1,1.0,0.3297990000000084
66,9,0.5,0.5,-35.0,-1,1.0,0.18749900000000252
67,9,0.5,1.0,-35.0,-1,1.0,0.37079900000003363
68,9,0.5,0.25,35.0,1,1.0,1.1601990000000058
69,9,0.5,0.0,-35.0,-1,1.0,0.46959900000001653
70,9,0.5,1.0,35.0,1,1.0,0.6697990000000118
71,9,0.5,0.0,35.0,-1,0.0,0.9509990000000244
72,9,0.4,0.0,-35.0,-1,1.0,1.4406000000000745
73,9,0.5,1.0,-35.0,-1,1.0,0.4320989999999938
74,9,0.5,0.125,35.0,1,1.0,0.23079899999999043
75,9,0.5,0.125,-35.0,-1,1.0,0.2591989999999669
76,9,0.5,0.5,35.0,1,1.0,0.3062990000000241
77,9,0.5,0.125,35.0,1,1.0,0.7154990000000225
78,9,0.5,0.5,35.0,1,1.0,0.19879900000000816
79,9,0.5,0.25,-35.0,-1,1.0,1.548798999999974
80,9,0.5,0.125,-35.0,-1,1.0,0.24589900000000853
81,9,0.5,0.25,35.0,1,1.0,1.0728990000000067
82,9,0.5,0.0625,-35.0,-1,1.0,0.8422990000000254
83,9,0.5,0.0,35.0,1,1.0,0.0951989999999796
84,9,0.5,0.125,-35.0,-1,1.0,0.42779899999999316
85,9,0.5,0.0,35.0,1,1.0,2.8397990000000277
86,9,0.5,0.125,35.0,1,1.0,0.45809900000000425
87,9,0.5,1.0,-35.0,-1,1.0,0.25239900000002535
88,9,0.5,0.125,35.0,1,1.0,0.17069900000001326
89,9,0.5,0.0,35.0,1,1.0,2.6607989999999972
90,9,0.5,0.125,35.0,1,1.0,0.49729899999999816
91,9,0.5,0.25,-35.0,-1,1.0,1.8949999999999818
92,9,0.5,0.0625,-35.0,-1,1.0,0.20769899999999097
93,9,0.5,0.0625,35.0,1,1.0,0.21619900000001735
94,9,0.5,0.0,-35.0,1,0.0,0.6188000000000216
95,9,0.5,0.125,35.0,1,1.0,0.3690000000000282
96,9,0.5,0.25,35.0,1,1.0,0.3460990000000379
97,9,0.5,1.0,-35.0,-1,1.0,0.32079900000002226
98,9,0.5,1.0,35.0,1,1.0,0.3076990000000137
99,9,0.5,1.0,-35.0,-1,1.0,0.24099899999998797
100,9,0.5,0.0625,35.0,1,1.0,0.2504999999999882
101,9,0.5,0.0625,35.0,1,1.0,0.3572990000000118
102,9,0.5,0.125,-35.0,-1,1.0,0.24179999999995516
103,9,0.5,0.125,-35.0,-1,1.0,0.30609900000001744
104,9,0.5,1.0,-35.0,-1,1.0,1.745399999999961
105,9,0.5,0.125,-35.0,-1,1.0,0.16609999999997171
106,9,0.5,0.125,-35.0,-1,1.0,0.27389900000002854
107,9,0.5,0.0,-35.0,-1,1.0,1.1278990000000135
108,9,0.5,0.0625,-35.0,-1,1.0,0.2092990000000441
109,9,0.5,1.0,-35.0,-1,1.0,0.2939999999999827
110,9,0.5,0.0625,35.0,1,1.0,0.17629900000002863
111,9,0.5,0.0625,35.0,1,1.0,0.7113990000000285
112,9,0.5,1.0,-35.0,-1,1.0,0.2199000000000524
113,9,0.5,0.25,-35.0,-1,1.0,0.2375989999999888
114,9,0.5,0.125,-35.0,-1,1.0,0.449999000000048
115,9,0.5,0.125,-35.0,-1,1.0,0.2632990000000177
116,9,0.5,0.125,-35.0,-1,1.0,0.23769900000002053
117,9,0.5,0.0,-35.0,1,0.0,0.2510990000000106
118,9,0.5,0.25,35.0,-1,0.0,0.1476989999999887
119,9,0.5,0.0625,35.0,-1,0.0,0.36170000000004165
120,9,0.3,0.0625,35.0,1,1.0,0.3066989999999805
121,9,0.5,1.0,35.0,1,1.0,1.6103989999999726
122,9,0.5,1.0,-35.0,-1,1.0,0.3405990000000543
123,9,0.5,0.25,-35.0,-1,1.0,0.27719999999999345
124,9,0.5,0.0625,-35.0,-1,1.0,1.931999000000019
125,9,0.5,0.25,35.0,1,1.0,1.0049999999999386
126,9,0.5,0.125,-35.0,-1,1.0,0.2236000000000331
127,9,0.5,0.0,35.0,1,1.0,0.23189899999999852
128,9,0.5,0.125,35.0,1,1.0,0.2376989999999637
129,9,0.5,0.25,-35.0,1,0.0,0.17459900000000061
130,9,0.5,0.0625,35.0,-1,0.0,0.0823989999999526
131,9,0.5,0.0625,35.0,1,1.0,3.0636989999999855
132,9,0.5,1.0,35.0,1,1.0,0.2699990000000412
133,9,0.5,1.0,35.0,1,1.0,0.4612989999999968
134,9,0.5,0.25,-35.0,-1,1.0,0.22499899999996842
135,9,0.5,0.125,35.0,1,1.0,1.0708999999999946
136,9,0.5,0.0,-35.0,-1,1.0,0.29759899999999107
137,9,0.5,0.25,-35.0,-1,1.0,0.25420000000002574
138,9,0.5,0.0625,-35.0,-1,1.0,1.252198999999905
139,9,0.5,0.125,35.0,1,1.0,0.2925999999999931
140,9,0.5,0.25,35.0,1,1.0,0.256699000000026
141,9,0.5,1.0,35.0,1,1.0,0.4102990000000091
142,9,0.5,0.25,-35.0,-1,1.0,0.4385989999999538
143,9,0.5,1.0,-35.0,-1,1.0,0.19179899999994632
144,9,0.5,1.0,35.0,1,1.0,0.2222990000000209
145,9,0.5,0.125,-35.0,-1,1.0,0.25539900000001126
146,9,0.5,0.125,35.0,1,1.0,0.22979899999995723
147,9,0.5,0.0,35.0,1,1.0,0.2730989999998883
148,9,0.5,0.125,35.0,1,1.0,0.755999000000088
149,9,0.5,0.0,-35.0,1,0.0,0.24999900000000252
150,9,0.5,0.125,35.0,1,1.0,0.1878990000001295
151,9,0.5,0.0,-35.0,1,0.0,1.8402990000000727
152,9,0.5,0.25,-35.0,-1,1.0,0.28559899999993377
153,9,0.5,0.0625,-35.0,-1,1.0,0.35059899999998834
154,9,0.5,0.0,35.0,1,1.0,0.37299899999993613
155,9,0.5,0.0,-35.0,-1,1.0,1.250099999999975
156,9,0.5,0.0,-35.0,1,0.0,0.42059900000003836
157,9,0.5,0.0625,-35.0,-1,1.0,0.3595990000000029
158,9,0.5,0.125,-35.0,-1,1.0,0.5226990000001024
159,9,0.5,0.25,-35.0,-1,1.0,0.6435999999998785
160,9,0.5,0.0625,35.0,-1,0.0,1.2456000000000813
161,9,0.5,0.125,-35.0,-1,1.0,0.3977990000000773
162,9,0.5,0.25,-35.0,-1,1.0,0.3030990000000884
163,9,0.5,0.125,35.0,1,1.0,1.7751990000000433
164,9,0.5,1.0,35.0,1,1.0,0.2827990000000682
165,9,0.5,0.25,35.0,1,1.0,0.2668989999999667
166,9,0.5,0.0,-35.0,1,0.0,1.8715000000000828
167,9,0.5,0.0625,-35.0,-1,1.0,1.0075990000000274
168,9,0.5,0.0625,-35.0,-1,1.0,0.31209899999998925
169,9,0.5,0.125,-35.0,-1,1.0,0.3025989999999865
170,9,0.5,0.125,35.0,1,1.0,0.3532989999999927
171,9,0.5,1.0,-35.0,-1,1.0,0.5093990000000304
172,9,0.5,0.0,-35.0,1,0.0,0.7079990000000862
173,9,0.5,0.125,-35.0,-1,1.0,0.3254990000000362
174,9,0.5,1.0,-35.0,-1,1.0,0.7125989999999547
175,9,0.5,0.0625,35.0,1,1.0,0.5670989999999847
176,9,0.5,0.25,35.0,1,1.0,0.5159989999999652
177,9,0.5,0.0625,35.0,1,1.0,0.27959900000007565
178,9,0.5,0.0,-35.0,1,0.0,0.3284990000000789
179,9,0.5,0.125,35.0,1,1.0,0.4461989999999787
180,9,0.5,0.25,-35.0,-1,1.0,0.32999899999992977
181,9,0.5,0.25,-35.0,-1,1.0,0.24609899999995832
182,9,0.5,0.0,-35.0,1,0.0,2.623698999999988
183,9,0.5,0.125,35.0,1,1.0,0.5644999999999527
184,9,0.5,1.0,-35.0,-1,1.0,2.0431989999999587
185,9,0.5,1.0,35.0,1,1.0,0.2710990000000493
186,9,0.5,0.0625,35.0,1,1.0,0.340699000000086
187,9,0.5,0.0625,-35.0,-1,1.0,0.2647990000000391
188,9,0.5,0.25,-35.0,-1,1.0,0.4821990000000369
189,9,0.5,0.125,35.0,1,1.0,0.47280000000000655
190,9,0.5,1.0,-35.0,-1,1.0,0.47159899999996924
191,9,0.5,0.125,-35.0,-1,1.0,0.4437990000000127
192,9,0.5,0.0625,-35.0,-1,1.0,0.6679990000000089
193,9,0.5,0.0,35.0,1,1.0,0.11569900000006328
194,9,0.5,0.0625,35.0,-1,0.0,0.10879899999997633
195,9,0.4,0.0625,-35.0,-1,1.0,0.2684999999999036
196,9,0.5,1.0,-35.0,-1,1.0,0.2485989999998992
197,9,0.5,1.0,35.0,1,1.0,1.5399990000000798
198,9,0.5,0.0,-35.0,-1,1.0,1.6624990000000253
199,9,0.5,0.25,-35.0,-1,1.0,0.22519900000008874
200,9,0.5,0.125,-35.0,-1,1.0,0.24359900000001744
201,9,0.5,1.0,35.0,1,1.0,0.2848989999999958
202,9,0.5,0.25,35.0,1,1.0,1.0629989999999907
203,9,0.5,0.0,35.0,1,1.0,1.5426989999999705
204,9,0.5,0.0625,35.0,1,1.0,0.4637989999999945
205,9,0.5,1.0,35.0,1,1.0,0.22729900000001635
206,9,0.5,0.0,-35.0,1,0.0,0.5228990000000522
207,9,0.7,0.0,-35.0,-1,1.0,0.37839900000005855
208,9,0.5,1.0,-35.0,-1,1.0,0.24149899999997615
209,9,0.5,0.25,-35.0,-1,1.0,0.2760990000000447
210,9,0.5,0.25,-35.0,-1,1.0,1.9735000000000582
211,9,0.5,1.0,-35.0,-1,1.0,0.286399000000074
212,9,0.5,0.25,35.0,1,1.0,0.27569899999991776
213,9,0.5,1.0,-35.0,-1,1.0,0.31549900000004527
214,9,0.5,0.125,35.0,1,1.0,0.34379899999999
215,9,0.5,0.125,35.0,1,1.0,0.33589900000004036
216,9,0.5,0.125,35.0,1,1.0,0.5644990000000689
217,9,0.5,0.0625,35.0,1,1.0,0.27399900000000343
218,9,0.5,0.0625,-35.0,-1,1.0,0.3765999999999394
219,9,0.5,0.0625,-35.0,-1,1.0,0.7560990000000629
220,9,0.5,0.0625,35.0,1,1.0,2.571698999999967
221,9,0.5,1.0,-35.0,-1,1.0,0.23529899999994086
222,9,0.5,0.0625,35.0,1,1.0,2.3535989999999174
223,9,0.5,0.25,35.0,1,1.0,0.49779899999987265
224,9,0.5,1.0,-35.0,-1,1.0,0.2318000000000211
225,9,0.5,0.0,-35.0,-1,1.0,2.4788990000000695
226,9,0.5,0.125,-35.0,-1,1.0,0.28729900000007547
227,9,0.5,1.0,35.0,1,1.0,0.2304990000000089
228,9,0.5,1.0,35.0,1,1.0,0.39489900000000944
229,9,0.5,1.0,-35.0,-1,1.0,0.19429900000011457
230,9,0.5,0.125,35.0,1,1.0,0.17590000000006967
231,9,0.5,0.125,-35.0,-1,1.0,1.7634990000000244
232,9,0.5,0.125,-35.0,-1,1.0,0.20969900000000052
233,9,0.5,0.125,35.0,1,1.0,0.20639900000003308
234,9,0.5,0.0625,-35.0,1,0.0,0.20899900000006255
235,9,0.5,0.0625,-35.0,1,0.0,2.408999999999992
236,9,0.5,1.0,-35.0,-1,1.0,0.24749999999994543
237,9,0.5,1.0,35.0,1,1.0,0.3186989999999241
238,9,0.5,0.25,35.0,1,1.0,1.314499000000069
239,9,0.5,0.125,35.0,1,1.0,0.25189899999998033
240,9,0.5,0.0,-35.0,-1,1.0,0.4856990000000678
241,9,0.5,0.25,35.0,1,1.0,0.6213999999999942
242,9,0.5,1.0,-35.0,-1,1.0,0.251700000000028
243,9,0.5,1.0,-35.0,-1,1.0,0.3227000000000544
244,9,0.5,0.25,-35.0,-1,1.0,0.6985999999999422
245,9,0.5,0.125,35.0,-1,0.0,0.19559900000001562
246,9,0.4,0.125,35.0,1,1.0,0.6106999999999516
247,9,0.5,1.0,35.0,1,1.0,0.2243990000000622
248,9,0.5,1.0,-35.0,-1,1.0,0.2397999999999456
249,9,0.5,0.125,35.0,-1,0.0,0.0894989999999325
250,9,0.5,0.0,35.0,-1,0.0,0.3653989999999112
251,9,0.5,0.0625,-35.0,-1,1.0,0.36649899999997615
252,9,0.5,0.125,-35.0,-1,1.0,0.42239900000004127
253,9,0.5,0.0625,35.0,1,1.0,0.2908989999999676
254,9,0.5,0.0625,-35.0,-1,1.0,0.5317990000000918
255,9,0.5,0.25,35.0,1,1.0,0.6313990000001013
256,9,0.5,1.0,35.0,1,1.0,0.44069899999999507
257,9,0.5,1.0,35.0,1,1.0,0.4134000000000242
258,9,0.5,0.0625,35.0,1,1.0,4.316399000000047
259,9,0.5,0.0625,-35.0,-1,1.0,0.6295989999999847
260,9,0.5,1.0,-35.0,-1,1.0,0.3383999999999787
261,9,0.5,0.125,-35.0,-1,1.0,0.3249989999999343
262,9,0.5,0.0625,35.0,-1,0.0,4.1603999999999814
263,9,0.5,0.0,35.0,-1,0.0,0.24539900000002035
264,9,0.5,0.0625,35.0,1,1.0,0.6240999999999985
265,9,0.5,1.0,35.0,1,1.0,0.4333990000000085
266,9,0.5,0.25,35.0,1,1.0,0.38649899999995796
267,9,0.5,0.0,35.0,1,1.0,0.6533990000000358
268,9,0.5,0.0,35.0,1,1.0,0.48069999999995616
269,9,0.5,0.125,-35.0,-1,1.0,0.269999000000098
270,9,0.5,1.0,-35.0,-1,1.0,0.5508990000000722
271,9,0.5,0.0625,35.0,1,1.0,0.47359899999992194
272,9,0.5,0.25,35.0,1,1.0,0.25739899999996396
273,9,0.5,0.0625,-35.0,-1,1.0,0.3636989999998832
274,9,0.5,0.125,35.0,1,1.0,1.8212989999999536
275,9,0.5,1.0,35.0,1,1.0,0.2803989999999885
276,9,0.5,1.0,-35.0,-1,1.0,0.2912989999999809
277,9,0.5,0.25,35.0,1,1.0,0.3172989999998208
278,9,0.5,0.125,35.0,1,1.0,0.28149899999993977
279,9,0.5,1.0,35.0,1,1.0,0.5905990000001111
280,9,0.5,1.0,-35.0,-1,1.0,0.22479999999995925
281,9,0.5,0.0,35.0,1,1.0,4.167500000000018
282,9,0.5,0.25,35.0,1,1.0,0.38859900000011294
283,9,0.5,0.0625,35.0,1,1.0,3.097699000000148
284,9,0.5,1.0,-35.0,-1,1.0,0.34229899999991176
285,9,0.5,0.0625,35.0,1,1.0,0.4643989999999576
286,9,0.5,1.0,35.0,1,1.0,0.37229900000011185
287,9,0.5,0.0625,35.0,1,1.0,1.261398999999983
288,9,0.5,0.0625,-35.0,-1,1.0,0.3253990000000613
289,9,0.5,1.0,35.0,1,1.0,0.3283000000001266
290,9,0.5,1.0,35.0,1,1.0,0.222199000000046
291,9,0.5,0.0,35.0,1,1.0,13.398298999999952
292,9,0.5,0.25,35.0,1,1.0,0.27629899999988083
293,9,0.5,0.25,35.0,1,1.0,0.3352990000000773
294,9,0.5,0.0,35.0,1,1.0,1.1200000000001182
295,9,0.5,0.125,35.0,1,1.0,0.26539900000011585
296,9,0.5,0.0625,35.0,1,1.0,0.5661989999998696
297,9,0.5,1.0,35.0,1,1.0,0.36229899999989357
298,9,0.5,1.0,35.0,1,1.0,0.23959899999999834
299,9,0.5,0.0,35.0,1,1.0,2.0389990000001035
300,9,0.5,0.125,35.0,1,1.0,0.4396990000000187
301,9,0.5,0.25,35.0,1,1.0,0.6757990000000973
302,9,0.5,1.0,-35.0,-1,1.0,0.53329900000017
303,9,0.5,0.125,35.0,1,1.0,0.2891990000000533
304,9,0.5,0.125,-35.0,-1,1.0,0.26939900000002126
305,9,0.5,1.0,35.0,1,1.0,0.2502990000000409
306,9,0.5,0.125,-35.0,1,0.0,1.539399000000003
307,9,0.5,0.0,-35.0,1,0.0,0.46699899999998706
308,9,0.5,0.0625,-35.0,-1,1.0,0.34629900000004454
309,9,0.5,0.0,-35.0,-1,1.0,3.284298999999919
310,9,0.5,0.125,-35.0,-1,1.0,0.5532989999999245
311,9,0.5,0.25,-35.0,-1,1.0,0.314200000000028
312,9,0.5,0.0,-35.0,1,0.0,1.5266990000002352
313,9,0.5,0.125,35.0,1,1.0,0.5006989999999405
314,9,0.5,0.25,-35.0,-1,1.0,0.5334990000001198
315,9,0.5,0.125,35.0,1,1.0,0.341099000000213
316,9,0.5,0.0625,35.0,1,1.0,2.5802990000001955
317,9,0.5,0.25,35.0,1,1.0,2.0581999999999425
318,9,0.5,1.0,-35.0,-1,1.0,0.28719900000010057
319,9,0.5,0.0,-35.0,1,0.0,0.965298999999959
320,9,0.6,0.0,-35.0,1,0.0,3.5337999999999283
321,9,0.5,1.0,-35.0,-1,1.0,0.32139900000015587
322,9,0.5,0.0625,-35.0,1,0.0,3.557499000000007
323,9,0.5,0.125,35.0,-1,0.0,14.728198999999904
324,9,0.6,0.125,-35.0,-1,1.0,4.5881990000000314
325,9,0.5,1.0,35.0,1,1.0,0.24549899999988156
326,9,0.5,0.125,35.0,1,1.0,1.0513989999999467
327,9,0.5,1.0,-35.0,-1,1.0,0.22919900000010784
328,9,0.5,0.125,35.0,1,1.0,12.408198999999968
329,9,0.5,0.0625,35.0,1,1.0,0.44659900000010566
330,9,0.5,0.25,35.0,1,1.0,5.732098999999835
331,9,0.5,0.0625,-35.0,-1,1.0,1.3761990000000424
332,9,0.5,0.0625,-35.0,1,0.0,32.84889899999985
333,9,0.5,0.125,35.0,1,1.0,1.7502990000002683
334,9,0.5,0.0625,35.0,-1,0.0,2.7698000000002594
335,9,0.7,0.0625,-35.0,-1,1.0,3.0705990000001293
336,9,0.5,1.0,-35.0,-1,1.0,0.20669999999995525
337,9,0.5,1.0,-35.0,-1,1.0,5.864198999999871
338,9,0.5,0.0625,-35.0,-1,1.0,4.356899000000112
339,9,0.5,0.0625,-35.0,-1,1.0,3.855199999999968
340,9,0.5,0.0625,35.0,1,1.0,17.643798999999944
341,9,0.5,0.25,35.0,-1,0.0,1.1983990000001086
342,9,0.5,0.125,-35.0,-1,1.0,0.28429899999991903
343,9,0.5,0.25,-35.0,-1,1.0,0.27179900000010093
344,9,0.5,0.25,35.0,-1,0.0,3.8077989999999318
345,9,0.5,0.125,35.0,-1,0.0,6.028499000000011
346,9,0.5,0.0,35.0,-1,0.0,45.87159899999983
347,9,0.5,0.25,-35.0,-1,1.0,11.5362990000001
348,9,0.5,0.0625,-35.0,0,0.0,60.03609900000015
349,9,0.5,0.25,35.0,1,1.0,3.8937989999999445
350,9,0.5,1.0,35.0,1,1.0,0.3770990000000438
351,9,0.5,1.0,-35.0,-1,1.0,1.4150990000000547
352,9,0.5,0.125,-35.0,-1,1.0,10.633998999999903
353,9,0.5,0.0625,-35.0,-1,1.0,20.345099999999775
354,9,0.5,1.0,35.0,1,1.0,0.3913990000000922
355,9,0.5,1.0,35.0,1,1.0,0.47899900000015805
356,9,0.5,1.0,35.0,1,1.0,0.3981989999997495
357,9,0.5,0.25,-35.0,-1,1.0,1.3825990000000274
358,9,0.5,1.0,35.0,1,1.0,0.3249990000001617
359,9,0.5,1.0,35.0,1,1.0,15.245699000000059
360,9,0.5,0.25,-35.0,-1,1.0,21.775400000000218
361,9,0.5,0.125,-35.0,-1,1.0,27.696500000000015
362,9,0.5,1.0,-35.0,-1,1.0,0.3229989999999816
363,9,0.5,0.25,35.0,-1,0.0,1.0308999999999742
364,9,0.5,0.125,35.0,-1,0.0,6.869999000000007
365,9,0.5,0.25,-35.0,-1,1.0,44.27409899999998
366,9,0.5,0.125,35.0,0,0.0,60.034299000000146
367,9,0.5,0.25,35.0,1,1.0,3.162898999999925
368,9,0.5,0.125,-35.0,-1,1.0,6.835599000000229
369,9,0.5,0.25,35.0,1,1.0,6.219899000000169
370,9,0.5,0.125,35.0,0,0.0,60.03599899999995
371,9,0.5,0.125,-35.0,-1,1.0,2.438099000000193
372,9,0.5,1.0,35.0,1,1.0,15.777898999999934
373,9,0.5,0.0625,35.0,1,1.0,27.114298999999846
374,9,0.5,1.0,-35.0,-1,1.0,1.3627989999999954
375,9,0.5,0.0625,35.0,-1,0.0,10.381900000000087
376,9,0.6,0.0625,-35.0,-1,1.0,0.36289899999997033
377,9,0.5,1.0,-35.0,-1,1.0,0.3086000000000695
378,9,0.5,0.25,35.0,1,1.0,1.5798990000000686
379,9,0.5,0.25,-35.0,-1,1.0,9.492098999999826
380,9,0.5,1.0,35.0,1,1.0,2.75309900000002
381,9,0.5,1.0,35.0,1,1.0,2.7528990000000704
382,9,0.5,0.0,-35.0,-1,1.0,5.9132989999998244
383,9,0.5,0.25,35.0,-1,0.0,33.62279899999976
384,9,0.3,0.25,-35.0,-1,1.0,9.558098999999856
385,9,0.5,1.0,35.0,1,1.0,3.361200000000281
386,9,0.5,1.0,35.0,1,1.0,7.333798999999999
387,9,0.5,0.0625,35.0,-1,0.0,0.20489900000029593
388,9,0.5,0.125,-35.0,-1,1.0,7.900899999999638
389,9,0.5,0.0,-0.0,0,0.0,60.02519900000016
390,9,0.5,0.0625,35.0,-1,0.0,33.70319900000004
391,9,0.5,0.125,35.0,-1,0.0,29.260499999999865
392,9,0.5,0.0625,35.0,-1,0.0,5.197799000000032
393,9,0.3,0.0625,-35.0,-1,1.0,5.533899000000019
394,9,0.5,1.0,-35.0,-1,1.0,0.2679990000001453
395,9,0.5,1.0,35.0,1,1.0,2.113998999999694
396,9,0.5,1.0,35.0,1,1.0,2.8716989999998077
397,9,0.5,1.0,35.0,1,1.0,10.947599000000082
398,9,0.5,0.25,35.0,-1,0.0,8.782199000000219
399,9,0.4,0.25,-35.0,1,0.0,2.9747990000000755
400,9,0.5,1.0,-35.0,-1,1.0,0.45579899999984264
401,9,0.5,0.0625,35.0,-1,0.0,43.44489900000008
1,10,0.5,1.0,-35.0,-1,1.0,0.6284000000000001
2,10,0.5,0.0625,-35.0,-1,1.0,1.5771999999999977
3,10,0.5,0.25,-35.0,-1,1.0,0.4939
4,10,0.5,0.125,35.0,1,1.0,0.9890009999999982
5,10,0.5,0.0625,-35.0,-1,1.0,0.7641999999999989
6,10,0.5,1.0,-35.0,-1,1.0,3.0802999999999976
7,10,0.5,1.0,35.0,1,1.0,0.19409999999999172
8,10,0.5,0.25,35.0,1,1.0,0.5082000000000022
9,10,0.5,0.0625,-35.0,1,0.0,0.8281999999999954
10,10,0.5,0.0,-35.0,-1,1.0,2.1411000000000087
11,10,0.5,1.0,35.0,1,1.0,0.30219999999999914
12,10,0.5,0.0625,35.0,1,1.0,0.5240999999999971
13,10,0.5,0.0,35.0,-1,0.0,0.4358000000000004
14,10,0.6,0.0,35.0,1,1.0,8.809099999999987
15,10,0.5,1.0,-35.0,-1,1.0,0.43089999999999407
16,10,0.5,0.25,35.0,1,1.0,0.3493000000000137
17,10,0.5,0.125,35.0,1,1.0,0.30330000000000723
18,10,0.5,0.125,35.0,1,1.0,0.27350000000001273
19,10,0.5,1.0,35.0,1,1.0,0.3418000000000063
20,10,0.5,0.0,35.0,1,1.0,1.7645000000000124
21,10,0.5,1.0,35.0,1,1.0,0.22000000000001307
22,10,0.5,0.25,-35.0,-1,1.0,0.22289999999999566
23,10,0.5,1.0,-35.0,-1,1.0,0.6123000000000047
24,10,0.5,0.0625,-35.0,1,0.0,1.5424000000000149
25,10,0.7,0.0625,-35.0,-1,1.0,1.9771000000000072
26,10,0.5,1.0,35.0,1,1.0,0.09550000000001546
27,10,0.5,1.0,-35.0,-1,1.0,0.8133009999999956
28,10,0.5,0.0625,35.0,1,1.0,0.5364000000000146
29,10,0.5,1.0,35.0,1,1.0,0.2666010000000085
30,10,0.5,0.125,35.0,1,1.0,0.48740000000000805
31,10,0.5,0.0625,-35.0,-1,1.0,0.42680100000001175
32,10,0.5,0.0,35.0,1,1.0,2.4313999999999965
33,10,0.5,0.25,35.0,1,1.0,0.21570100000002412
34,10,0.5,0.125,35.0,1,1.0,0.3779010000000369
35,10,0.5,1.0,-35.0,-1,1.0,0.2394000000000176
36,10,0.5,0.25,35.0,1,1.0,0.22560000000001423
37,10,0.5,0.125,-35.0,-1,1.0,0.5593000000000075
38,10,0.5,0.0625,-35.0,1,0.0,0.1193010000000072
39,10,0.5,0.0625,-35.0,1,0.0,5.397700000000015
40,10,0.5,0.125,35.0,1,1.0,0.24550100000001862
41,10,0.5,0.0625,-35.0,-1,1.0,4.3396000000000186
42,10,0.5,0.0625,35.0,1,1.0,2.100100000000026
43,10,0.5,0.0,-35.0,-1,1.0,1.445600000000013
44,10,0.5,0.0625,-35.0,-1,1.0,2.632300000000015
45,10,0.5,1.0,35.0,1,1.0,0.24370000000001824
46,10,0.5,0.25,-35.0,-1,1.0,0.5473000000000354
47,10,0.5,0.0625,35.0,1,1.0,0.2557000000000187
48,10,0.5,1.0,35.0,1,1.0,0.2283000000000186
49,10,0.5,0.125,35.0,1,1.0,0.2172999999999945
50,10,0.5,1.0,-35.0,-1,1.0,1.2395999999999958
51,10,0.5,0.0625,-35.0,1,0.0,0.15330000000000155
52,10,0.5,0.125,35.0,1,1.0,0.5021000000000129
53,10,0.5,1.0,-35.0,-1,1.0,0.25080000000002656
54,10,0.5,0.0625,-35.0,-1,1.0,0.5982000000000198
55,10,0.5,0.25,35.0,1,1.0,0.15030000000001564
56,10,0.5,0.25,-35.0,-1,1.0,0.4536000000000229
57,10,0.5,1.0,35.0,1,1.0,0.17090100000004327
58,10,0.5,0.25,-35.0,1,0.0,1.150100000000009
59,10,0.5,0.125,35.0,1,1.0,0.24740000000002738
60,10,0.5,0.0625,35.0,1,1.0,1.0423000000000116
61,10,0.5,0.0625,-35.0,-1,1.0,0.3675000000000068
62,10,0.5,0.125,-35.0,-1,1.0,0.6082999999999856
63,10,0.5,0.0625,-35.0,-1,1.0,0.8343999999999596
64,10,0.5,0.25,-35.0,-1,1.0,0.42569999999994934
65,10,0.5,1.0,-35.0,-1,1.0,0.24569999999999936
66,10,0.5,0.125,-35.0,-1,1.0,0.09030000000001337
67,10,0.5,0.0,-35.0,-1,1.0,0.311999999999955
68,10,0.5,1.0,35.0,1,1.0,0.2004999999999768
69,10,0.5,0.0625,-35.0,-1,1.0,0.8222000000000094
70,10,0.5,0.0625,-35.0,-1,1.0,0.2319999999999709
71,10,0.5,0.0625,35.0,1,1.0,0.3813999999999851
72,10,0.5,1.0,35.0,1,1.0,0.13349999999996953
73,10,0.5,0.125,35.0,1,1.0,0.33749999999997726
74,10,0.5,0.125,35.0,1,1.0,0.13759999999990669
75,10,0.5,0.125,-35.0,-1,1.0,0.48340000000001737
76,10,0.5,0.0,35.0,1,1.0,0.11180000000001655
77,10,0.5,0.0625,35.0,1,1.0,0.3150009999999952
78,10,0.5,0.0625,35.0,1,1.0,0.5018000000000029
79,10,0.5,1.0,-35.0,-1,1.0,1.738299999999981
80,10,0.5,1.0,35.0,1,1.0,0.5641999999999712
81,10,0.5,0.25,-35.0,-1,1.0,0.4471999999999525
82,10,0.5,0.0,-35.0,1,0.0,0.4278999999999087
83,10,0.5,0.25,35.0,1,1.0,0.19640099999998029
84,10,0.5,0.0,-35.0,1,0.0,0.8362999999999374
85,10,0.5,0.0625,-35.0,-1,1.0,0.8245000000000005
86,10,0.5,0.0,35.0,1,1.0,0.7831999999999653
87,10,0.5,0.25,-35.0,-1,1.0,0.15989999999999327
88,10,0.5,1.0,35.0,1,1.0,0.11050000000000182
89,10,0.5,1.0,35.0,1,1.0,0.258199999999988
90,10,0.5,0.125,-35.0,1,0.0,0.29539999999997235
91,10,0.7,0.125,-35.0,1,0.0,0.2478999999999587
92,10,0.5,1.0,-35.0,-1,1.0,0.44679999999993925
93,10,0.5,1.0,-35.0,-1,1.0,0.6942000000000235
94,10,0.5,1.0,35.0,1,1.0,0.2442999999999529
95,10,0.5,0.0625,35.0,1,1.0,0.20409999999998263
96,10,0.5,0.125,-35.0,-1,1.0,0.5061999999999784
97,10,0.5,0.0625,-35.0,1,0.0,0.22329999999993788
98,10,0.7,0.0625,-35.0,-1,1.0,0.26520099999999047
99,10,0.5,1.0,35.0,1,1.0,0.2530999999999608
100,10,0.5,0.0625,35.0,1,1.0,0.31920000000002346
101,10,0.5,0.0625,-35.0,1,0.0,1.012200000000007
102,10,0.5,0.25,35.0,1,1.0,0.27190000000001646
103,10,0.5,1.0,35.0,1,1.0,0.22809999999998354
104,10,0.5,0.125,-35.0,-1,1.0,1.0197009999999977
105,10,0.5,1.0,35.0,1,1.0,0.19049999999992906
106,10,0.5,0.0625,-35.0,1,0.0,0.27920099999994363
107,10,0.5,0.25,35.0,1,1.0,0.22229999999990468
108,10,0.5,0.0625,35.0,1,1.0,0.29729999999995016
109,10,0.5,1.0,35.0,1,1.0,0.22540099999997665
110,10,0.5,1.0,-35.0,-1,1.0,0.3557999999999879
111,10,0.5,1.0,35.0,1,1.0,0.27420000000000755
112,10,0.5,1.0,35.0,1,1.0,0.22419999999999618
113,10,0.5,0.25,-35.0,-1,1.0,0.3927999999999656
114,10,0.5,0.25,35.0,1,1.0,0.23140000000000782
115,10,0.5,1.0,35.0,1,1.0,0.2728999999999928
116,10,0.5,1.0,-35.0,-1,1.0,0.5487999999999715
117,10,0.5,0.25,-35.0,1,0.0,0.33869999999996026
118,10,0.5,0.0,35.0,1,1.0,0.23859999999996262
119,10,0.5,0.0625,-35.0,-1,1.0,0.6471999999999412
120,10,0.5,0.25,35.0,1,1.0,0.2256999999999607
121,10,0.5,0.0625,-35.0,-1,1.0,0.9309999999999263
122,10,0.5,0.125,-35.0,-1,1.0,0.6872999999999934
123,10,0.5,0.125,35.0,1,1.0,0.21919999999994388
124,10,0.5,0.125,-35.0,1,0.0,0.1344010000000253
125,10,0.5,0.25,-35.0,-1,1.0,1.4271999999999707
126,10,0.5,0.0625,35.0,1,1.0,1.3371999999999957
127,10,0.5,0.25,35.0,1,1.0,0.11520000000001573
128,10,0.5,0.0625,-35.0,-1,1.0,0.29959999999994125
129,10,0.5,0.25,-35.0,-1,1.0,0.28320000000007894
130,10,0.5,1.0,-35.0,-1,1.0,0.2013000000000602
131,10,0.5,0.125,35.0,1,1.0,0.24620000000004438
132,10,0.5,0.25,35.0,1,1.0,0.7563000000000102
133,10,0.5,0.25,-35.0,-1,1.0,0.24180100000012317
134,10,0.5,0.125,35.0,1,1.0,0.1834999999999809
135,10,0.5,1.0,-35.0,-1,1.0,0.21550000000002
136,10,0.5,0.25,-35.0,-1,1.0,0.261400999999978
137,10,0.5,0.25,-35.0,-1,1.0,0.24669999999991887
138,10,0.5,0.25,-35.0,-1,1.0,0.31110000000012406
139,10,0.5,1.0,35.0,1,1.0,1.1914010000000417
140,10,0.5,0.25,35.0,1,1.0,1.2307000000000698
141,10,0.5,0.0625,-35.0,-1,1.0,0.3242000000001326
142,10,0.5,0.125,35.0,1,1.0,0.18740100000002258
143,10,0.5,0.125,35.0,1,1.0,0.5514000000000578
144,10,0.5,0.25,35.0,1,1.0,0.25250000000005457
145,10,0.5,0.0,-35.0,1,0.0,0.258199999999988
146,10,0.5,0.0,35.0,1,1.0,0.3130999999999631
147,10,0.5,0.25,-35.0,-1,1.0,0.23939999999993233
148,10,0.5,0.25,-35.0,-1,1.0,0.940900000000056
149,10,0.5,0.25,35.0,1,1.0,0.21480000000008204
150,10,0.5,0.0625,-35.0,-1,1.0,0.8372000000000526
151,10,0.5,0.0625,35.0,1,1.0,0.30750000000000455
152,10,0.5,0.0625,-35.0,-1,1.0,0.4884999999999309
153,10,0.5,0.25,35.0,1,1.0,0.21810100000004695
154,10,0.5,0.25,35.0,1,1.0,0.2220999999999549
155,10,0.5,0.25,35.0,1,1.0,0.21410000000003038
156,10,0.5,0.125,35.0,1,1.0,0.23710000000005493
157,10,0.5,1.0,-35.0,-1,1.0,0.20870000000002165
158,10,0.5,0.0,35.0,-1,0.0,1.1281000000000176
159,10,0.5,0.125,-35.0,-1,1.0,0.27110000000004675
160,10,0.5,0.0625,35.0,1,1.0,0.21410100000002785
161,10,0.5,0.0625,35.0,1,1.0,0.2432010000001128
162,10,0.5,0.25,-35.0,-1,1.0,0.29510000000004766
163,10,0.5,1.0,-35.0,-1,1.0,0.4650000000001455
164,10,0.5,0.0,-35.0,1,0.0,0.22920000000010532
165,10,0.5,0.0,35.0,-1,0.0,0.34350100000006023
166,10,0.5,1.0,35.0,1,1.0,0.2053000000000793
167,10,0.5,0.25,-35.0,-1,1.0,0.29710000000000036
168,10,0.5,1.0,35.0,1,1.0,0.1977000000000544
169,10,0.5,1.0,-35.0,-1,1.0,0.28910000000007585
170,10,0.5,0.0625,35.0,1,1.0,0.23090000000001965
171,10,0.5,1.0,35.0,1,1.0,0.09199999999998454
172,10,0.5,0.0625,-35.0,1,0.0,1.248199999999997
173,10,0.5,0.25,-35.0,-1,1.0,0.14570000000003347
174,10,0.5,1.0,35.0,1,1.0,0.2863999999999578
175,10,0.5,1.0,-35.0,-1,1.0,0.2699999999999818
176,10,0.5,0.25,35.0,-1,0.0,0.13410099999998693
177,10,0.5,0.25,-35.0,-1,1.0,3.359299999999962
178,10,0.5,1.0,-35.0,-1,1.0,0.43400000000008276
179,10,0.5,0.0625,35.0,1,1.0,0.8713000000000193
180,10,0.5,0.0,35.0,1,1.0,0.16219999999998436
181,10,0.5,0.125,-35.0,1,0.0,0.27830100000005586
182,10,0.5,0.0,35.0,1,1.0,0.3591000000001259
183,10,0.5,0.0625,-35.0,1,0.0,1.3957000000000335
184,10,0.5,0.0625,35.0,1,1.0,0.27660000000014406
185,10,0.5,1.0,-35.0,1,0.0,0.17400000000009186
186,10,0.5,0.0625,-35.0,1,0.0,0.3040000000000873
187,10,0.5,0.0,35.0,1,1.0,0.2820000000000391
188,10,0.5,0.125,-35.0,-1,1.0,0.22600000000011278
189,10,0.5,0.0625,35.0,1,1.0,0.2471010000000433
190,10,0.5,0.0625,35.0,1,1.0,0.25880000000006476
191,10,0.5,1.0,-35.0,-1,1.0,0.48259999999993397
192,10,0.5,0.25,-35.0,-1,1.0,0.23239999999998417
193,10,0.5,0.0625,35.0,1,1.0,0.28100099999994654
194,10,0.5,0.125,35.0,1,1.0,0.2318000000001348
195,10,0.5,1.0,35.0,1,1.0,0.11959999999999127
196,10,0.5,0.125,35.0,1,1.0,0.4174000000000433
197,10,0.5,0.0625,35.0,1,1.0,0.20300000000008822
198,10,0.5,1.0,-35.0,-1,1.0,0.32700000000011187
199,10,0.5,0.0625,35.0,1,1.0,0.2035000000000764
200,10,0.5,0.125,35.0,1,1.0,0.6301999999999452
201,10,0.5,0.125,35.0,1,1.0,0.20730000000003201
202,10,0.5,0.25,35.0,1,1.0,0.23640000000000327
203,10,0.5,0.125,35.0,1,1.0,0.22109999999997854
204,10,0.5,0.25,-35.0,-1,1.0,0.3651999999999589
205,10,0.5,0.25,-35.0,-1,1.0,0.5779999999999745
206,10,0.5,0.125,-35.0,1,0.0,0.14830000000006294
207,10,0.5,0.125,-35.0,-1,1.0,0.2799000000001115
208,10,0.5,0.25,35.0,1,1.0,0.43209999999999127
209,10,0.5,1.0,35.0,1,1.0,1.8631000000000313
210,10,0.5,1.0,-35.0,-1,1.0,0.27949999999998454
211,10,0.5,0.25,-35.0,1,0.0,1.3624000000000933
212,10,0.5,0.125,-35.0,-1,1.0,0.7000000000000455
213,10,0.5,0.125,35.0,1,1.0,0.3305000000000291
214,10,0.5,0.0,-35.0,1,0.0,0.39000000000010004
215,10,0.5,0.25,-35.0,-1,1.0,0.25300000000004275
216,10,0.5,1.0,35.0,1,1.0,0.2253009999999449
217,10,0.5,0.25,-35.0,-1,1.0,0.3645000000000209
218,10,0.5,0.0625,35.0,1,1.0,0.22000000000002728
219,10,0.5,1.0,35.0,1,1.0,0.2453010000000404
220,10,0.5,0.0625,35.0,-1,0.0,0.42809999999997217
221,10,0.5,0.125,35.0,1,1.0,0.3870000000000573
222,10,0.5,1.0,35.0,1,1.0,0.23289999999997235
223,10,0.5,0.125,35.0,1,1.0,0.2522000000000162
224,10,0.5,0.0,-35.0,-1,1.0,1.9949000000001433
225,10,0.5,1.0,-35.0,-1,1.0,0.3873000000000957
226,10,0.5,0.0625,35.0,1,1.0,0.2670010000000502
227,10,0.5,0.0625,-35.0,-1,1.0,0.7585000000000264
228,10,0.5,0.0625,-35.0,1,0.0,0.11410000000000764
229,10,0.6,0.0625,35.0,1,1.0,1.0283000000000584
230,10,0.5,1.0,-35.0,-1,1.0,0.4311999999999898
231,10,0.5,1.0,35.0,1,1.0,0.22410000000002128
232,10,0.5,0.0625,35.0,1,1.0,0.3772000000000162
233,10,0.5,0.0625,-35.0,-1,1.0,0.9432000000000471
234,10,0.5,0.0625,-35.0,1,0.0,0.38600000000008095
235,10,0.5,0.125,-35.0,1,0.0,0.20590000000004238
236,10,0.5,0.25,-35.0,-1,1.0,0.28660100000001876
237,10,0.5,0.25,-35.0,-1,1.0,0.14190000000007785
238,10,0.5,1.0,-35.0,-1,1.0,0.4573010000000295
239,10,0.5,0.25,-35.0,-1,1.0,0.28730000000007294
240,10,0.5,1.0,-35.0,-1,1.0,0.43619999999998527
241,10,0.5,0.0625,35.0,1,1.0,0.30690099999992526
242,10,0.5,0.25,-35.0,-1,1.0,0.24100000000009913
243,10,0.5,0.25,35.0,1,1.0,0.22829999999999018
244,10,0.5,1.0,-35.0,-1,1.0,0.24040000000013606
245,10,0.5,1.0,35.0,1,1.0,0.22600000000011278
246,10,0.5,0.125,35.0,1,1.0,0.25900000000012824
247,10,0.5,0.25,-35.0,1,0.0,0.22439999999994598
248,10,0.5,0.0625,-35.0,-1,1.0,2.747600000000034
249,10,0.5,1.0,-35.0,-1,1.0,0.4752000000000862
250,10,0.5,1.0,35.0,1,1.0,0.24500000000000455
251,10,0.5,1.0,-35.0,-1,1.0,1.1992000000001326
252,10,0.5,0.25,-35.0,-1,1.0,1.015800000000013
253,10,0.5,0.0625,35.0,1,1.0,0.22840099999996255
254,10,0.5,0.0625,35.0,1,1.0,0.26400000000001
255,10,0.5,0.0625,35.0,1,1.0,2.3231000000000677
256,10,0.5,0.0,35.0,1,1.0,0.21010000000001128
257,10,0.5,0.0,-35.0,1,0.0,0.2742000000000644
258,10,0.5,0.25,-35.0,-1,1.0,0.44810000000006767
259,10,0.5,1.0,35.0,1,1.0,0.24430099999995036
260,10,0.5,0.0625,35.0,-1,0.0,0.28899999999998727
261,10,0.6,0.0625,-35.0,1,0.0,2.421100000000024
262,10,0.5,1.0,-35.0,1,0.0,0.27870000000018536
263,10,0.5,0.0625,35.0,1,1.0,0.2379000000000815
264,10,0.5,0.125,-35.0,-1,1.0,0.3021000000001095
265,10,0.5,1.0,-35.0,-1,1.0,0.8679999999999382
266,10,0.5,0.125,-35.0,1,0.0,0.7220999999999549
267,10,0.5,0.25,35.0,1,1.0,0.23150100000020757
268,10,0.5,0.125,35.0,1,1.0,0.23550100000011298
269,10,0.5,0.0,-35.0,1,0.0,0.6548999999999978
270,10,0.5,0.0,-35.0,1,0.0,1.8788999999999305
271,10,0.5,0.0,-35.0,1,0.0,7.065200000000004
272,10,0.5,0.125,35.0,1,1.0,0.14949999999998909
273,10,0.5,0.0,-35.0,-1,1.0,7.065299999999979
274,10,0.5,0.25,35.0,1,1.0,0.3698010000000522
275,10,0.5,0.0625,-35.0,1,0.0,2.555900999999949
276,10,0.5,0.25,-35.0,-1,1.0,6.386500000000069
277,10,0.5,0.0625,35.0,1,1.0,1.8692000000000917
278,10,0.5,0.0625,-35.0,-1,1.0,0.8269000000000233
279,10,0.5,0.125,35.0,1,1.0,0.23610099999996237
280,10,0.5,0.0625,35.0,1,1.0,1.5338999999999032
281,10,0.5,0.25,-35.0,-1,1.0,0.2897000000000389
282,10,0.5,1.0,35.0,1,1.0,0.2539010000000417
283,10,0.5,0.25,35.0,1,1.0,0.2199000000000524
284,10,0.5,0.125,35.0,1,1.0,0.24060000000008586
285,10,0.5,0.125,-35.0,-1,1.0,0.24649999999996908
286,10,0.5,0.0,-35.0,-1,1.0,2.7273999999999887
287,10,0.5,0.25,-35.0,-1,1.0,0.32330000000001746
288,10,0.5,1.0,-35.0,-1,1.0,0.2509010000001126
289,10,0.5,0.125,35.0,1,1.0,0.24000099999989288
290,10,0.5,0.25,-35.0,-1,1.0,0.10429999999996653
291,10,0.5,0.0625,-35.0,1,0.0,0.32120000000008986
292,10,0.5,0.0,35.0,1,1.0,0.5270000000000437
293,10,0.5,0.125,35.0,1,1.0,0.2980000000000018
294,10,0.5,0.0625,35.0,1,1.0,0.26710000000002765
295,10,0.5,0.25,35.0,1,1.0,0.23500100000001112
296,10,0.5,0.25,35.0,1,1.0,0.20080000000007203
297,10,0.5,0.25,-35.0,-1,1.0,0.2251009999999951
298,10,0.5,0.0,-35.0,-1,1.0,3.6608000000001084
299,10,0.5,0.0625,35.0,1,1.0,1.0009999999999764
300,10,0.5,0.25,-35.0,-1,1.0,0.3844000000001415
301,10,0.5,0.125,35.0,1,1.0,0.10529999999994288
302,10,0.5,0.0625,35.0,1,1.0,0.25109999999995125
303,10,0.5,1.0,35.0,1,1.0,0.23540000000002692
304,10,0.5,1.0,-35.0,-1,1.0,0.21479999999996835
305,10,0.5,0.125,-35.0,1,0.0,0.33589999999981046
306,10,0.5,0.25,35.0,1,1.0,0.24140100000022358
307,10,0.5,0.0625,-35.0,1,0.0,0.25890000000003965
308,10,0.5,0.125,-35.0,-1,1.0,0.7915000000000418
309,10,0.5,1.0,35.0,1,1.0,1.7359000000001288
310,10,0.5,1.0,-35.0,-1,1.0,0.4750000000001364
311,10,0.5,0.0625,35.0,1,1.0,0.24260000000026594
312,10,0.5,1.0,35.0,1,1.0,0.21849999999994907
313,10,0.5,0.25,-35.0,1,0.0,0.2960000000000491
314,10,0.5,0.0625,-35.0,1,0.0,0.34199999999987085
315,10,0.5,0.25,35.0,1,1.0,0.2028010000001359
316,10,0.5,0.25,-35.0,-1,1.0,0.45210100000008424
317,10,0.5,0.0,-35.0,-1,1.0,0.5395999999998367
318,10,0.5,0.0,35.0,1,1.0,4.958899999999858
319,10,0.5,0.25,-35.0,-1,1.0,0.4468010000000504
320,10,0.5,0.25,-35.0,1,0.0,0.23250000000007276
321,10,0.7,0.25,-35.0,-1,1.0,0.49680000000012114
322,10,0.5,1.0,-35.0,-1,1.0,0.5127999999999702
323,10,0.5,0.0625,35.0,1,1.0,0.2998999999999796
324,10,0.5,0.0625,-35.0,1,0.0,3.569300999999996
325,10,0.5,0.25,-35.0,-1,1.0,0.25700000000006185
326,10,0.5,0.25,-35.0,1,0.0,1.3998000000001412
327,10,0.5,0.125,-35.0,-1,1.0,0.7571009999999205
328,10,0.5,0.125,-35.0,-1,1.0,0.2632009999999809
329,10,0.5,0.0,-35.0,-1,1.0,0.5907999999997173
330,10,0.5,0.125,-35.0,-1,1.0,0.32999999999992724
331,10,0.5,0.125,-35.0,1,0.0,0.5572999999999411
332,10,0.5,0.125,35.0,1,1.0,0.3401000000001204
333,10,0.5,0.125,-35.0,1,0.0,2.8442000000000007
334,10,0.5,0.0,-35.0,1,0.0,0.22690000000011423
335,10,0.5,0.25,35.0,1,1.0,0.27130000000011023
336,10,0.5,0.0,35.0,-1,0.0,0.9438000000000102
337,10,0.5,0.25,-35.0,-1,1.0,0.6048000000000684
338,10,0.5,0.25,-35.0,-1,1.0,0.2906000000000404
339,10,0.5,0.25,35.0,1,1.0,0.33150099999988925
340,10,0.5,0.125,-35.0,-1,1.0,0.3040009999999711
341,10,0.5,0.25,35.0,1,1.0,0.25149999999985084
342,10,0.5,0.0625,35.0,1,1.0,0.2977000000000771
343,10,0.5,1.0,-35.0,-1,1.0,0.6850000000001728
344,10,0.5,0.0625,35.0,1,1.0,0.6876999999999498
345,10,0.5,0.125,35.0,1,1.0,0.29500000000007276
346,10,0.5,0.125,-35.0,-1,1.0,0.5010999999999513
347,10,0.5,1.0,-35.0,-1,1.0,1.0050999999998567
348,10,0.5,0.25,35.0,1,1.0,0.24480100000005223
349,10,0.5,0.0625,-35.0,-1,1.0,0.6553000000001248
350,10,0.5,1.0,35.0,1,1.0,0.2381000000000313
351,10,0.5,1.0,35.0,1,1.0,0.2520000000001801
352,10,0.5,0.25,35.0,1,1.0,0.2480000000000473
353,10,0.5,0.0625,35.0,-1,0.0,0.12230099999987942
354,10,0.5,0.0625,-35.0,1,0.0,0.12159999999994398
355,10,0.5,0.25,35.0,1,1.0,0.2228010000001177
356,10,0.5,0.25,-35.0,-1,1.0,1.4583999999999833
357,10,0.5,1.0,-35.0,-1,1.0,0.282799999999952
358,10,0.5,0.25,35.0,1,1.0,0.24520000000006803
359,10,0.5,0.0,-35.0,-1,1.0,2.539700000000039
360,10,0.5,0.25,-35.0,-1,1.0,0.35550100000000384
361,10,0.5,0.0625,-35.0,1,0.0,1.0531999999998334
362,10,0.5,0.25,-35.0,-1,1.0,0.27579999999989013
363,10,0.5,0.25,-35.0,-1,1.0,0.29369999999994434
364,10,0.5,1.0,-35.0,-1,1.0,0.5757999999998447
365,10,0.5,0.0625,35.0,1,1.0,0.2830999999998767
366,10,0.5,0.125,35.0,1,1.0,0.26270000000022264
367,10,0.5,0.25,35.0,1,1.0,0.2533000000000811
368,10,0.5,0.125,35.0,1,1.0,0.26919999999995525
369,10,0.5,0.0,35.0,-1,0.0,0.5108010000001286
370,10,0.5,0.25,35.0,1,1.0,0.19610099999999875
371,10,0.5,0.125,-35.0,1,0.0,0.2472000000002481
372,10,0.5,0.0,-35.0,1,0.0,0.2897000000000389
373,10,0.5,0.125,35.0,1,1.0,0.10369999999988977
374,10,0.5,0.125,35.0,1,1.0,0.22630000000003747
375,10,0.5,0.0625,-35.0,1,0.0,0.19059999999990396
376,10,0.9,0.0625,-35.0,1,0.0,0.24649999999996908
377,10,0.5,1.0,-35.0,-1,1.0,0.4838000000002012
378,10,0.5,1.0,-35.0,-1,1.0,1.5868000000000393
379,10,0.5,0.25,35.0,1,1.0,1.0373999999999342
380,10,0.5,0.25,35.0,1,1.0,0.23670000000015534
381,10,0.5,0.0,35.0,1,1.0,0.5816999999999553
382,10,0.5,1.0,35.0,1,1.0,0.22039999999992688
383,10,0.5,0.125,35.0,1,1.0,0.23779999999987922
384,10,0.5,0.0625,35.0,1,1.0,0.223700000000008
385,10,0.5,0.0625,-35.0,-1,1.0,0.4878000000001066
386,10,0.5,0.25,35.0,1,1.0,0.24149999999985994
387,10,0.5,0.25,-35.0,-1,1.0,0.4317000000000917
388,10,0.5,0.125,35.0,1,1.0,0.20730000000003201
389,10,0.5,1.0,-35.0,-1,1.0,0.3686999999999898
390,10,0.5,0.125,35.0,1,1.0,0.2675000000001546
391,10,0.5,1.0,-35.0,-1,1.0,0.291700000000219
392,10,0.5,0.125,35.0,1,1.0,0.24080000000003565
393,10,0.5,1.0,35.0,1,1.0,0.19860099999982594
394,10,0.5,1.0,-35.0,-1,1.0,0.32090000000016516
395,10,0.5,0.0,35.0,1,1.0,0.2317000000000462
396,10,0.5,1.0,-35.0,-1,1.0,0.7246000000000095
397,10,0.5,0.25,35.0,1,1.0,0.29870099999993727
398,10,0.5,0.25,-35.0,-1,1.0,0.47470000000021173
399,10,0.5,1.0,-35.0,-1,1.0,0.09880100000009406
400,10,0.5,0.125,-35.0,-1,1.0,1.1580000000001291
401,10,0.5,0.125,35.0,1,1.0,1.9087999999999283
402,10,0.5,0.25,-35.0,-1,1.0,0.28160000000002583
403,10,0.5,0.0625,-35.0,1,0.0,0.09600000000000364
404,10,0.5,0.25,-35.0,-1,1.0,0.41170000000010987
405,10,0.5,0.0625,35.0,1,1.0,0.40299999999979264
406,10,0.5,0.125,35.0,1,1.0,0.20849999999995816
407,10,0.5,0.0625,-35.0,1,0.0,0.2658010000000104
408,10,0.5,0.0625,-35.0,1,0.0,0.3087000000000444
409,10,0.6,0.0625,-35.0,-1,1.0,0.25289999999995416
410,10,0.5,1.0,35.0,1,1.0,0.31890000000021246
411,10,0.5,0.25,-35.0,-1,1.0,0.2297000000000935
412,10,0.5,1.0,35.0,1,1.0,0.19890000000009422
413,10,0.5,0.0,35.0,1,1.0,0.21970100000021375
414,10,0.5,0.25,35.0,-1,0.0,0.0990999999999076
415,10,0.5,0.25,-35.0,-1,1.0,0.36979999999994106
416,10,0.5,0.0625,-35.0,-1,1.0,0.7026000000000749
417,10,0.5,0.25,35.0,1,1.0,0.22670000000016444
418,10,0.5,0.125,35.0,1,1.0,0.2194000000001779
419,10,0.5,1.0,-35.0,-1,1.0,0.3976999999999862
420,10,0.5,1.0,-35.0,-1,1.0,0.44960100000002967
421,10,0.5,0.0625,-35.0,-1,1.0,0.3737000000003263
422,10,0.5,1.0,-35.0,-1,1.0,0.26289999999994507
423,10,0.5,0.125,-35.0,-1,1.0,0.4938000000001921
424,10,0.5,0.0625,-35.0,-1,1.0,4.466601000000082
425,10,0.5,1.0,-35.0,-1,1.0,0.3340009999999438
426,10,0.5,0.25,-35.0,-1,1.0,0.4432010000000446
427,10,0.5,0.25,35.0,1,1.0,0.2541000000001077
428,10,0.5,0.0625,35.0,1,1.0,0.4067000000000007
429,10,0.5,0.25,-35.0,-1,1.0,0.22079999999982647
430,10,0.5,1.0,-35.0,-1,1.0,0.4106000000001586
431,10,0.5,1.0,35.0,1,1.0,0.2216000000000804
432,10,0.5,0.0625,35.0,1,1.0,1.4437000000000353
433,10,0.5,0.125,-35.0,-1,1.0,0.33780000000001564
434,10,0.5,0.125,35.0,1,1.0,0.463799999999992
435,10,0.5,0.125,35.0,1,1.0,0.2879010000001472
436,10,0.5,0.125,-35.0,-1,1.0,0.09390000000007603
437,10,0.5,0.25,35.0,1,1.0,1.884600999999975
438,10,0.5,0.0,-35.0,1,0.0,0.2474000000001979
439,10,0.5,0.125,-35.0,-1,1.0,0.3451999999999771
440,10,0.5,0.0625,35.0,-1,0.0,0.17459999999982756
441,10,0.6,0.0625,35.0,1,1.0,0.4052000000001499
442,10,0.5,1.0,35.0,1,1.0,0.2545000000000073
443,10,0.5,0.125,35.0,1,1.0,0.2717999999999847
444,10,0.5,0.25,35.0,1,1.0,2.147799999999961
445,10,0.5,0.25,35.0,1,1.0,0.2626000000000204
446,10,0.5,1.0,35.0,1,1.0,0.141399999999976
447,10,0.5,1.0,35.0,1,1.0,0.18859999999995125
448,10,0.5,1.0,35.0,1,1.0,0.22489999999993415
449,10,0.5,0.0625,35.0,1,1.0,0.34569999999985157
450,10,0.5,0.25,-35.0,-1,1.0,0.9616000000003169
451,10,0.5,0.0625,-35.0,-1,1.0,0.529100999999855
452,10,0.5,0.0625,35.0,1,1.0,3.3218000000001666
453,10,0.5,1.0,-35.0,-1,1.0,0.7059010000000399
454,10,0.5,0.0625,-35.0,1,0.0,1.9656009999998787
455,10,0.7,0.0625,-35.0,1,0.0,0.3365999999998621
456,10,0.5,1.0,-35.0,-1,1.0,0.5221000000001368
457,10,0.5,0.0625,35.0,1,1.0,0.30960000000004584
458,10,0.5,0.25,-35.0,-1,1.0,0.3021000000001095
459,10,0.5,1.0,-35.0,1,0.0,0.11660099999971862
460,10,0.5,1.0,35.0,1,1.0,0.24250000000029104
461,10,0.5,1.0,-35.0,-1,1.0,0.3967000000000098
462,10,0.5,0.25,35.0,1,1.0,0.2158999999999196
463,10,0.5,1.0,-35.0,-1,1.0,0.3270999999999731
464,10,0.5,0.25,-35.0,-1,1.0,0.26269999999999527
465,10,0.5,0.25,-35.0,-1,1.0,0.42029999999999745
466,10,0.5,0.25,-35.0,1,0.0,0.22610000000008768
467,10,0.5,0.0625,-35.0,1,0.0,3.1336999999998625
468,10,0.5,0.0625,35.0,1,1.0,0.3531000000000404
469,10,0.5,0.0,-35.0,1,0.0,1.4437000000000353
470,10,0.6,0.0,-35.0,1,0.0,0.2665999999999258
471,10,0.5,1.0,-35.0,-1,1.0,0.31070100000010825
472,10,0.5,0.125,35.0,1,1.0,0.24350000000004002
473,10,0.5,0.25,35.0,1,1.0,0.2075999999999567
474,10,0.5,1.0,35.0,1,1.0,0.21360000000026957
475,10,0.5,0.125,-35.0,-1,1.0,3.3109000000001743
476,10,0.5,0.0,-35.0,1,0.0,0.2036000000000513
477,10,0.5,0.25,-35.0,-1,1.0,0.47850000000016735
478,10,0.5,1.0,-35.0,-1,1.0,0.463799999999992
479,10,0.5,0.25,-35.0,1,0.0,1.784599999999955
480,10,0.6,0.25,35.0,1,1.0,0.2740000000001146
481,10,0.5,1.0,-35.0,-1,1.0,0.10480100000017956
482,10,0.5,0.0625,35.0,1,1.0,0.27080100000011953
483,10,0.5,0.125,35.0,1,1.0,1.1452999999999065
484,10,0.5,0.25,-35.0,-1,1.0,0.5309999999999491
485,10,0.5,0.125,-35.0,-1,1.0,0.31189999999992324
486,10,0.5,0.125,-35.0,-1,1.0,0.5778000000000247
487,10,0.5,0.125,35.0,1,1.0,1.2726000000002387
488,10,0.5,0.125,-35.0,-1,1.0,5.414700000000039
489,10,0.5,0.25,-35.0,-1,1.0,0.26909999999998035
490,10,0.5,0.25,-35.0,-1,1.0,0.3250000000000455
491,10,0.5,0.0625,35.0,-1,0.0,12.78229999999985
492,10,0.5,0.25,35.0,1,1.0,0.2519999999999527
493,10,0.5,0.0,-35.0,-1,1.0,10.212800000000016
494,10,0.5,0.0625,35.0,1,1.0,0.3787999999999556
495,10,0.5,0.25,35.0,1,1.0,0.3065999999998894
496,10,0.5,0.25,-35.0,1,0.0,1.4524000000001251
497,10,0.5,0.25,-35.0,-1,1.0,0.8632000000002336
498,10,0.5,1.0,-35.0,-1,1.0,0.4695000000001528
499,10,0.5,1.0,35.0,1,1.0,0.23990100000014536
500,10,0.5,1.0,-35.0,-1,1.0,0.2626000000000204
501,10,0.5,0.125,-35.0,-1,1.0,0.5669000000000324
502,10,0.5,0.125,35.0,1,1.0,0.2661000000000513
503,10,0.5,1.0,35.0,1,1.0,0.2038000000000011
504,10,0.5,1.0,35.0,1,1.0,0.29310000000009495
505,10,0.5,0.125,-35.0,-1,1.0,2.8908010000000104
506,10,0.5,0.125,35.0,1,1.0,0.9565010000001166
507,10,0.5,0.0625,35.0,1,1.0,5.2045999999998
508,10,0.5,1.0,35.0,1,1.0,0.22339999999985594
509,10,0.5,0.0625,35.0,-1,0.0,0.3910999999993692
510,10,0.5,0.25,-35.0,-1,1.0,0.3105009999999311
511,10,0.5,1.0,35.0,1,1.0,0.6476999999999862
512,10,0.5,1.0,35.0,1,1.0,0.20700100000021848
513,10,0.5,0.125,35.0,1,1.0,0.2179999999998472
514,10,0.5,1.0,-35.0,-1,1.0,0.28749999999990905
515,10,0.5,0.25,35.0,1,1.0,2.7984999999998763
516,10,0.5,1.0,35.0,1,1.0,1.2573999999999614
517,10,0.5,1.0,-35.0,-1,1.0,0.4148009999998976
518,10,0.5,0.0,35.0,-1,0.0,0.51759999999922
519,10,0.5,0.0,35.0,1,1.0,8.74539999999979
520,10,0.5,0.0,-35.0,-1,1.0,1.1980009999997492
521,10,0.5,1.0,-35.0,-1,1.0,0.2624000000000706
522,10,0.5,0.25,35.0,1,1.0,0.6946999999995569
523,10,0.5,0.25,-35.0,-1,1.0,0.5355999999997039
524,10,0.5,0.125,-35.0,-1,1.0,0.5214999999998327
525,10,0.5,0.0625,-35.0,1,0.0,0.35239999999976135
526,10,0.5,0.0625,-35.0,1,0.0,4.318399999999656
527,10,0.5,0.25,35.0,1,1.0,0.21940100000028906
528,10,0.5,0.125,35.0,1,1.0,0.34859999999980573
529,10,0.5,0.125,35.0,1,1.0,0.2925999999997657
530,10,0.5,0.25,35.0,1,1.0,0.25540000000000873
531,10,0.5,0.125,-35.0,-1,1.0,0.5393999999996595
532,10,0.5,1.0,35.0,1,1.0,0.23209999999971842
533,10,0.5,0.0625,-35.0,-1,1.0,1.6096999999999753
534,10,0.5,1.0,-35.0,-1,1.0,0.24559999999974025
535,10,0.5,0.0625,-35.0,-1,1.0,0.8904999999995198
536,10,0.5,0.0625,-35.0,-1,1.0,0.31910000000016225
537,10,0.5,0.125,35.0,1,1.0,0.22650000000021464
538,10,0.5,0.125,-35.0,-1,1.0,0.3257999999996173
539,10,0.5,0.0,-35.0,-1,1.0,0.2503999999998996
540,10,0.5,0.25,35.0,1,1.0,0.2359999999998763
541,10,0.5,0.25,-35.0,-1,1.0,0.4734009999997397
542,10,0.5,0.25,-35.0,-1,1.0,0.2726999999999862
543,10,0.5,0.0625,-35.0,-1,1.0,0.380399999999554
544,10,0.5,0.0625,-35.0,-1,1.0,0.9396999999999025
545,10,0.5,1.0,35.0,1,1.0,0.23039999999991778
546,10,0.5,1.0,-35.0,-1,1.0,1.616399999999885
547,10,0.5,0.25,35.0,1,1.0,0.24419999999963693
548,10,0.5,0.0,35.0,1,1.0,0.23339999999961947
549,10,0.5,0.125,-35.0,-1,1.0,0.4341999999996915
550,10,0.5,0.0625,35.0,-1,0.0,8.820300000000316
551,10,0.5,0.0625,35.0,1,1.0,1.811399999999594
552,10,0.5,0.25,-35.0,-1,1.0,0.49369999999953507
553,10,0.5,0.125,35.0,1,1.0,0.41460000000006403
554,10,0.5,1.0,-35.0,-1,1.0,0.2673009999994065
555,10,0.5,1.0,-35.0,-1,1.0,1.9717999999998028
556,10,0.5,0.125,-35.0,1,0.0,0.35730000000012296
557,10,0.5,0.125,-35.0,-1,1.0,0.41139999999950305
558,10,0.5,1.0,35.0,1,1.0,1.1443999999996777
559,10,0.5,0.0625,-35.0,-1,1.0,1.0116999999995642
560,10,0.5,0.0625,-35.0,-1,1.0,2.397899999999936
561,10,0.5,0.25,35.0,1,1.0,0.22229999999990468
562,10,0.5,0.0,-35.0,1,0.0,8.547899999999572
563,10,0.5,0.0625,35.0,1,1.0,0.35270100000025195
564,10,0.5,1.0,-35.0,-1,1.0,1.2314000000001215
565,10,0.5,1.0,-35.0,-1,1.0,0.4722999999999047
566,10,0.5,0.25,35.0,1,1.0,0.615099999999984
567,10,0.5,0.25,35.0,1,1.0,0.6263999999996486
568,10,0.5,0.25,-35.0,-1,1.0,0.35530000000017026
569,10,0.5,1.0,-35.0,-1,1.0,0.5193999999996777
570,10,0.5,1.0,35.0,1,1.0,1.6054999999996653
571,10,0.5,0.25,-35.0,-1,1.0,0.3532999999997628
572,10,0.5,0.0625,35.0,1,1.0,0.2822009999999864
573,10,0.5,0.125,-35.0,-1,1.0,2.9335000000000946
574,10,0.5,0.25,-35.0,-1,1.0,0.28909999999996217
575,10,0.5,0.25,-35.0,-1,1.0,2.13359999999966
576,10,0.5,0.125,35.0,1,1.0,0.27569999999968786
577,10,0.5,0.0,35.0,1,1.0,2.2067000000001826
578,10,0.5,0.25,35.0,1,1.0,0.2627009999996517
579,10,0.5,1.0,35.0,1,1.0,0.20350099999996019
580,10,0.5,1.0,35.0,1,1.0,0.8128999999998996
581,10,0.5,0.0,-35.0,-1,1.0,0.7302999999997155
582,10,0.5,0.0625,35.0,-1,0.0,2.136301000000003
583,10,0.5,0.0625,-35.0,-1,1.0,5.423699999999826
584,10,0.5,1.0,35.0,1,1.0,0.2098999999998341
585,10,0.5,0.0,35.0,1,1.0,0.27729999999928623
586,10,0.5,0.0625,35.0,1,1.0,0.2800999999999476
587,10,0.5,0.0625,-35.0,-1,1.0,0.4643999999998414
588,10,0.5,0.0625,-35.0,1,0.0,1.9603010000000722
589,10,0.6,0.0625,-35.0,-1,1.0,1.061200000000099
590,10,0.5,1.0,35.0,1,1.0,2.4602999999997337
591,10,0.5,0.125,-35.0,1,0.0,7.588001000000077
592,10,0.5,0.125,35.0,1,1.0,0.8373000000001412
593,10,0.5,0.0625,-35.0,-1,1.0,0.4653000000002976
594,10,0.5,0.0625,35.0,1,1.0,0.3575999999998203
595,10,0.5,0.25,35.0,1,1.0,0.22499999999990905
596,10,0.5,0.0625,35.0,1,1.0,0.35439999999971405
597,10,0.5,0.25,-35.0,-1,1.0,0.41190000000005966
598,10,0.5,0.25,35.0,1,1.0,0.2911999999996624
599,10,0.5,0.25,-35.0,-1,1.0,0.45880099999976665
600,10,0.5,0.25,-35.0,1,0.0,5.197799999999461
601,10,0.5,0.0,-35.0,-1,1.0,7.652399999999943
602,10,0.5,0.0625,-35.0,-1,1.0,1.1218009999997776
603,10,0.5,0.0625,-35.0,-1,1.0,25.1891999999998
604,10,0.5,0.0,-35.0,-1,1.0,13.215599999999995
605,10,0.5,0.0,35.0,-1,0.0,5.926699999999528
606,10,0.5,0.0625,-35.0,-1,1.0,3.0494999999996253
607,10,0.5,1.0,35.0,1,1.0,7.14699999999948
608,10,0.5,0.0625,-35.0,-1,1.0,2.063300000000254
609,10,0.5,0.125,35.0,1,1.0,20.8137999999999
610,10,0.5,0.125,35.0,-1,0.0,19.02040199999965
611,10,0.5,0.125,-35.0,1,0.0,14.008100999999897
612,10,0.5,0.25,-35.0,-1,1.0,12.631200999999692
613,10,0.5,1.0,-35.0,-1,1.0,0.4792019999999866
614,10,0.5,0.0,35.0,-1,0.0,22.984901999999693
615,10,0.5,0.125,-35.0,-1,1.0,19.869200999999975
616,10,0.5,0.125,-35.0,-1,1.0,15.419200999999703
617,10,0.5,0.25,-35.0,-1,1.0,8.856801999999789
618,10,0.5,0.125,35.0,1,1.0,4.143101999999999
619,10,0.5,0.25,35.0,1,1.0,9.704201000000012
620,10,0.5,0.125,-35.0,-1,1.0,0.633401999999478
621,10,0.5,1.0,-35.0,-1,1.0,0.3376019999991513
622,10,0.5,1.0,-35.0,-1,1.0,0.31020100000023376
623,10,0.5,0.0625,35.0,-1,0.0,37.10100199999988
624,10,0.5,0.0,-35.0,1,0.0,17.507700999999997
625,10,0.5,0.25,-35.0,-1,1.0,17.096101999999973
626,10,0.5,1.0,35.0,1,1.0,5.831800999999814
627,10,0.5,0.25,35.0,1,1.0,6.606101999999282
628,10,0.5,0.0625,-35.0,0,0.0,60.03220099999953
629,10,0.5,0.25,-35.0,1,0.0,18.983400999999958
630,10,0.5,0.25,35.0,-1,0.0,26.76390100000026
631,10,0.5,0.0625,35.0,-1,0.0,18.418301999999585
632,10,0.5,0.0625,35.0,-1,0.0,20.338100999999824
633,10,0.5,0.0625,35.0,-1,0.0,21.213001000000077
634,10,0.5,1.0,35.0,1,1.0,0.2656010000000606
635,10,0.5,0.0625,35.0,1,1.0,1.293200999999499
636,10,0.5,1.0,35.0,1,1.0,0.2492010000000846
637,10,0.5,0.25,35.0,1,1.0,3.5270009999994727
638,10,0.5,0.25,-35.0,-1,1.0,0.4661009999995258
639,10,0.5,0.25,35.0,1,1.0,1.700300999999854
640,10,0.5,0.125,-35.0,-1,1.0,0.7230009999998401
641,10,0.5,0.125,35.0,1,1.0,7.290400999999747
642,10,0.5,0.0625,-35.0,1,0.0,3.0030009999995855
643,10,0.5,0.0625,35.0,1,1.0,4.6140009999999165
644,10,0.5,0.25,35.0,1,1.0,0.3368009999999231
645,10,0.5,0.125,-35.0,-1,1.0,0.6242010000000846
646,10,0.5,1.0,35.0,1,1.0,0.2771010000001297
647,10,0.5,1.0,35.0,1,1.0,0.3578010000001086
648,10,0.5,0.125,35.0,1,1.0,0.3703009999999267
649,10,0.5,0.0625,35.0,1,1.0,8.671100999999908
650,10,0.5,0.25,-35.0,-1,1.0,0.6540009999998802
651,10,0.5,0.0625,35.0,1,1.0,3.1580010000002403
652,10,0.5,1.0,-35.0,-1,1.0,0.3374010000002272
653,10,0.5,0.0625,-35.0,-1,1.0,0.389002000000346
654,10,0.5,0.0625,35.0,1,1.0,19.78110099999958
655,10,0.5,0.125,35.0,1,1.0,1.2360019999996439
656,10,0.5,0.25,-35.0,-1,1.0,0.4081009999995331
657,10,0.5,0.25,-35.0,-1,1.0,0.4491019999995842
658,10,0.5,0.0625,35.0,1,1.0,42.908200999999735
659,10,0.5,0.0,35.0,-1,0.0,16.83010099999956
660,10,0.5,0.0,35.0,-1,0.0,12.916100999999799
661,10,0.5,0.125,35.0,1,1.0,0.4043010000000322
662,10,0.5,0.0625,35.0,-1,0.0,8.610000999999556
663,10,0.5,0.0625,-35.0,-1,1.0,59.74790099999973
664,10,0.5,0.25,35.0,1,1.0,16.1679009999998
665,10,0.5,0.125,35.0,1,1.0,26.7590009999999
666,10,0.5,0.25,-35.0,-1,1.0,2.74900099999968
667,10,0.5,0.125,-35.0,1,0.0,15.646502000000055
668,10,0.5,0.25,-35.0,-1,1.0,0.43610099999978047
669,10,0.5,0.125,35.0,1,1.0,0.27360099999941667
670,10,0.5,0.25,35.0,1,1.0,0.2896009999999478
671,10,0.5,0.25,35.0,1,1.0,0.3109009999998307
672,10,0.5,0.0,35.0,-1,0.0,5.89980099999957
673,10,0.5,0.25,35.0,1,1.0,8.277201999999761
674,10,0.5,0.0,-0.0,0,0.0,60.02680099999952
675,10,0.5,0.25,35.0,1,1.0,0.30130099999996673
676,10,0.5,0.0625,35.0,1,1.0,29.448100999999497
677,10,0.5,0.25,35.0,1,1.0,3.462801000000127
678,10,0.5,1.0,35.0,1,1.0,0.22580100000004677
679,10,0.5,0.0625,35.0,1,1.0,20.06640100000004
680,10,0.5,0.25,-35.0,-1,1.0,9.459401999999955
681,10,0.5,0.0625,-35.0,-1,1.0,1.9471009999997477
682,10,0.5,1.0,35.0,1,1.0,0.31300099999998565
683,10,0.5,0.125,35.0,1,1.0,0.28060099999993326
684,10,0.5,0.25,35.0,1,1.0,0.2198009999997339
685,10,0.5,0.0625,-35.0,-1,1.0,3.3507009999998445
686,10,0.5,0.0625,35.0,-1,0.0,1.133300999999392
687,10,0.5,0.0625,35.0,-1,0.0,1.8309009999998125
688,10,0.5,0.0625,35.0,1,1.0,54.970300999999836
689,10,0.5,1.0,-35.0,-1,1.0,0.32890099999940503
690,10,0.5,1.0,35.0,1,1.0,0.3713019999995595
691,10,0.5,0.0625,35.0,0,0.0,60.038800999999694
692,10,0.5,0.125,35.0,1,1.0,13.463502000000062
693,10,0.5,0.25,35.0,1,1.0,1.8278009999999085
694,10,0.5,1.0,35.0,1,1.0,0.2863009999996393
695,10,0.5,0.125,-35.0,-1,1.0,4.314100999999937
696,10,0.5,0.0625,35.0,1,1.0,3.4468010000000504
697,10,0.5,0.0625,-35.0,-1,1.0,11.297700999999961
698,10,0.5,0.0625,-35.0,0,0.0,60.03710099999944
699,10,0.5,0.125,35.0,1,1.0,16.408300999999483
700,10,0.5,1.0,35.0,1,1.0,0.3260009999999056
701,10,0.5,0.0625,-35.0,1,0.0,24.952000999999655
702,10,0.5,0.125,35.0,-1,0.0,3.9632010000000264
703,10,0.7,0.125,-35.0,-1,1.0,11.512701000000106
704,10,0.5,1.0,35.0,1,1.0,0.7307009999999536
705,10,0.5,0.0625,-35.0,-1,1.0,8.023000999999567
706,10,0.5,1.0,-35.0,-1,1.0,0.33390099999951417
707,10,0.5,0.125,-35.0,-1,1.0,0.38670099999944796
708,10,0.5,0.125,-35.0,-1,1.0,2.5577009999992697
709,10,0.5,0.25,-35.0,-1,1.0,13.013700999999855
710,10,0.5,0.125,35.0,1,1.0,9.4149010000001
711,10,0.5,1.0,-35.0,-1,1.0,0.3376020000000608
712,10,0.5,0.0625,-35.0,-1,1.0,20.51490100000001
713,10,0.5,0.125,-35.0,1,0.0,25.82800099999986
714,10,0.5,0.25,35.0,1,1.0,17.62300100000084
715,10,0.5,0.0,35.0,-1,0.0,14.785601000000497
716,10,0.5,0.25,-35.0,-1,1.0,0.5401009999995949
717,10,0.5,0.25,35.0,1,1.0,0.26940100000047096
718,10,0.5,1.0,-35.0,-1,1.0,0.2402010000005248
719,10,0.5,1.0,-35.0,-1,1.0,0.5094010000002527
720,10,0.5,1.0,-35.0,-1,1.0,0.5668009999999413
721,10,0.5,1.0,35.0,1,1.0,0.2530010000000402
722,10,0.5,0.125,-35.0,-1,1.0,1.7937010000005102
723,10,0.5,0.25,35.0,1,1.0,2.9066010000005917
724,10,0.5,0.25,-35.0,-1,1.0,0.27460100000007515
725,10,0.5,0.0625,35.0,-1,0.0,17.06340100000034
726,10,0.5,0.125,35.0,-1,0.0,21.14770200000021
727,10,0.3,0.125,35.0,1,1.0,14.804301000000123
728,10,0.5,1.0,35.0,1,1.0,0.24530099999992672
729,10,0.5,0.0625,35.0,-1,0.0,4.577902000000904
730,10,0.5,0.25,35.0,-1,0.0,33.21260100000018
731,10,0.4,0.25,35.0,1,1.0,0.22560100000009697
732,10,0.5,1.0,35.0,1,1.0,0.21960200000103214
733,10,0.5,0.125,35.0,1,1.0,6.692501999999877
734,10,0.5,0.0625,-35.0,-1,1.0,3.3535009999995964
735,10,0.5,0.0,35.0,1,1.0,8.006001000000651
736,10,0.5,0.125,35.0,1,1.0,10.857501000000411
737,10,0.5,0.0,-35.0,-1,1.0,28.319800999999643
738,10,0.5,0.0625,-35.0,1,0.0,21.00770200000079
739,10,0.5,0.0,35.0,-1,0.0,32.784201000000394
740,10,0.5,0.25,-35.0,-1,1.0,1.50550099999964
741,10,0.5,0.25,-35.0,-1,1.0,47.941501000000244
742,10,0.5,1.0,35.0,1,1.0,0.21750100000008388
743,10,0.5,0.0625,-35.0,-1,1.0,2.46270099999947
744,10,0.5,0.0625,-35.0,1,0.0,13.240301000000727
745,10,0.5,0.0625,-35.0,0,0.0,60.02650100000028
746,10,0.5,0.0625,-35.0,-1,1.0,54.931000999999924
747,10,0.5,1.0,35.0,1,1.0,0.24040100000001985
748,10,0.5,0.25,35.0,1,1.0,0.19220099999984086
749,10,0.5,0.125,-35.0,-1,1.0,7.826500999999553
750,10,0.5,0.0625,35.0,-1,0.0,8.189401000000544
751,10,0.5,0.125,35.0,1,1.0,32.970502000001034
752,10,0.5,0.0,-35.0,-1,1.0,50.44670100000076
753,10,0.5,0.0625,35.0,-1,0.0,29.578902000001108
754,10,0.5,0.0625,35.0,-1,0.0,16.25840100000005
755,10,0.5,0.25,35.0,1,1.0,4.5394010000009075
756,10,0.5,1.0,35.0,-1,0.0,8.77940099999978
757,10,0.5,0.0625,35.0,-1,0.0,5.430301000000327
758,10,0.5,0.0625,-35.0,-1,1.0,9.269401000000471
759,10,0.5,0.25,35.0,-1,0.0,7.181301000000531
760,10,0.5,0.25,-35.0,-1,1.0,0.6167009999999209
761,10,0.5,0.125,-35.0,-1,1.0,6.704301000000669
762,10,0.5,1.0,35.0,1,1.0,9.99380199999996
763,10,0.5,0.25,35.0,-1,0.0,46.33820100000048
764,10,0.2,0.25,-35.0,-1,1.0,21.638200999999754
765,10,0.5,1.0,-35.0,-1,1.0,0.21330099999977392
