trial_num,session_num,stim_probability_left,contrast,position,response_choice,trial_correct,reaction_time
1,1,0.5,0.0,35.0,1,1.0,6.0715
2,1,0.5,1.0,35.0,1,1.0,2.0557000000000016
3,1,0.5,0.0625,-35.0,-1,1.0,0.34909899999999894
4,1,0.5,0.25,35.0,1,1.0,0.5174999999999983
5,1,0.5,0.125,-35.0,-1,1.0,0.34509999999999863
6,1,0.5,0.25,-35.0,-1,1.0,0.18089999999999762
7,1,0.5,0.0625,-35.0,1,0.0,0.9996999999999971
8,1,0.5,0.125,35.0,1,1.0,0.43189999999999173
9,1,0.5,0.25,35.0,1,1.0,1.3925990000000041
10,1,0.5,0.0625,-35.0,-1,1.0,0.29109900000000266
11,1,0.5,0.125,-35.0,-1,1.0,0.32909999999999684
12,1,0.5,0.125,-35.0,-1,1.0,0.23869899999999689
13,1,0.5,0.25,-35.0,-1,1.0,0.1739989999999949
14,1,0.5,0.0,35.0,1,1.0,0.7009999999999934
15,1,0.5,0.0,35.0,1,1.0,2.0338999999999956
16,1,0.5,1.0,35.0,1,1.0,0.34999900000001105
17,1,0.5,0.125,35.0,-1,0.0,0.3218999999999994
18,1,0.5,0.0,-35.0,-1,1.0,0.6892999999999887
19,1,0.5,0.0625,-35.0,-1,1.0,0.1425999999999874
20,1,0.5,0.125,35.0,1,1.0,0.3609000000000009
21,1,0.5,0.0625,35.0,-1,0.0,0.1868999999999943
22,1,0.5,0.0,35.0,-1,0.0,3.9566000000000088
23,1,0.5,0.25,35.0,1,1.0,2.784799000000021
24,1,0.5,1.0,-35.0,-1,1.0,0.2340990000000005
25,1,0.5,0.25,35.0,1,1.0,0.34029999999999916
26,1,0.5,0.0625,35.0,1,1.0,0.8769000000000062
27,1,0.5,0.0625,35.0,-1,0.0,1.157299000000009
28,1,0.5,0.125,-35.0,-1,1.0,0.2497990000000101
29,1,0.5,1.0,35.0,1,1.0,0.41680000000000916
30,1,0.5,0.25,35.0,1,1.0,3.4144990000000064
31,1,0.5,0.25,35.0,1,1.0,0.4089000000000169
32,1,0.5,0.25,35.0,1,1.0,0.505898999999971
33,1,0.5,0.0625,35.0,1,1.0,7.969599999999986
34,1,0.5,0.0,35.0,1,1.0,1.7294999999999732
35,1,0.5,0.0,35.0,-1,0.0,1.7669989999999984
36,1,0.5,1.0,35.0,1,1.0,0.32199899999997683
37,1,0.5,0.0625,35.0,1,1.0,3.4291999999999803
38,1,0.5,0.0625,35.0,-1,0.0,0.16309899999998834
39,1,0.5,0.0625,-35.0,-1,1.0,2.9285999999999603
40,1,0.5,1.0,-35.0,-1,1.0,0.16309899999998834
41,1,0.5,0.0625,35.0,-1,0.0,1.2824999999999989
42,1,0.5,0.25,-35.0,-1,1.0,0.316599999999994
43,1,0.5,0.0,-35.0,-1,1.0,0.27129899999999907
44,1,0.5,0.125,-35.0,-1,1.0,3.8501999999999725
45,1,0.5,0.125,35.0,1,1.0,0.3765989999999988
46,1,0.5,0.0,-35.0,-1,1.0,0.48429899999999293
47,1,0.5,0.25,-35.0,-1,1.0,3.4131989999999917
48,1,0.5,0.25,35.0,-1,0.0,1.406899999999979
49,1,0.5,0.125,-35.0,-1,1.0,0.26229900000001294
50,1,0.5,0.0,-35.0,-1,1.0,0.2692989999999611
51,1,0.5,0.25,-35.0,-1,1.0,0.20339899999996192
52,1,0.5,0.25,-35.0,-1,1.0,0.3643989999999917
53,1,0.5,1.0,35.0,1,1.0,0.27699900000001776
54,1,0.5,1.0,-35.0,-1,1.0,0.21769899999998188
55,1,0.5,0.0,35.0,-1,0.0,0.4023989999999742
56,1,0.5,0.0625,35.0,-1,0.0,0.2225999999999999
57,1,0.5,0.0,-35.0,1,0.0,0.3432999999999993
58,1,0.5,0.125,-35.0,-1,1.0,2.345499999999987
59,1,0.5,0.0625,-35.0,-1,1.0,2.2340999999999838
60,1,0.5,0.25,-35.0,-1,1.0,0.33659899999997833
61,1,0.5,0.0625,35.0,-1,0.0,3.6274999999999977
62,1,0.5,1.0,-35.0,-1,1.0,0.24009900000004336
63,1,0.5,1.0,-35.0,-1,1.0,0.2644990000000007
64,1,0.5,0.25,-35.0,-1,1.0,0.27010000000001355
65,1,0.5,0.0,-35.0,1,0.0,0.42769900000001826
66,1,0.5,0.0,35.0,-1,0.0,0.24199900000002117
67,1,0.5,0.0,35.0,-1,0.0,11.700300000000027
68,1,0.5,0.0,35.0,-1,0.0,3.5778000000000247
69,1,0.5,0.25,-35.0,-1,1.0,2.662799000000007
70,1,0.5,0.0,35.0,1,1.0,0.41479900000001635
71,1,0.5,0.0625,-35.0,-1,1.0,0.4273990000000367
72,1,0.5,0.0625,-35.0,-1,1.0,0.19589899999999716
73,1,0.5,0.0625,-35.0,-1,1.0,0.1108000000000402
74,1,0.5,1.0,-35.0,-1,1.0,0.19589899999999716
75,1,0.5,0.0,-35.0,-1,1.0,3.9547000000000025
76,1,0.5,0.125,35.0,1,1.0,0.331999000000053
77,1,0.5,1.0,-35.0,-1,1.0,0.24200000000001864
78,1,0.5,1.0,-35.0,-1,1.0,0.43399900000002845
79,1,0.5,0.25,35.0,1,1.0,0.306899000000044
80,1,0.5,0.125,-35.0,-1,1.0,0.24099900000004482
81,1,0.5,1.0,35.0,1,1.0,0.33449999999999136
82,1,0.5,0.0,-35.0,-1,1.0,0.2756999999999721
83,1,0.5,0.0,35.0,-1,0.0,3.856499000000042
84,1,0.5,1.0,-35.0,-1,1.0,0.3700990000000388
85,1,0.5,0.25,-35.0,-1,1.0,0.5030990000000202
86,1,0.5,0.0625,35.0,1,1.0,0.4260999999999626
87,1,0.5,0.25,-35.0,-1,1.0,0.24059900000003154
88,1,0.5,0.25,-35.0,-1,1.0,0.3091000000000008
89,1,0.5,0.25,-35.0,-1,1.0,0.24419900000003736
90,1,0.5,0.25,-35.0,-1,1.0,0.2492000000000303
91,1,0.2,0.125,35.0,1,1.0,0.36410000000000764
92,1,0.2,0.0,35.0,-1,0.0,0.08410000000003492
93,1,0.2,0.0625,35.0,1,1.0,0.6091990000000465
94,1,0.2,0.0,35.0,-1,0.0,7.359699999999975
95,1,0.2,1.0,35.0,1,1.0,0.2772989999999709
96,1,0.2,1.0,35.0,1,1.0,0.32639900000003763
97,1,0.2,0.0,35.0,1,1.0,0.415300000000002
98,1,0.2,0.0,35.0,1,1.0,0.39339899999998806
99,1,0.2,0.0625,35.0,1,1.0,3.460800000000006
100,1,0.2,1.0,35.0,1,1.0,0.32079900000002226
101,1,0.2,0.125,35.0,1,1.0,0.3713989999999967
102,1,0.2,0.125,-35.0,-1,1.0,0.2538000000000693
103,1,0.2,0.25,35.0,1,1.0,0.38449900000000525
104,1,0.2,0.25,35.0,1,1.0,0.4460000000000264
105,1,0.2,1.0,35.0,1,1.0,0.4034990000000107
106,1,0.2,0.25,35.0,1,1.0,0.3436990000000151
107,1,0.2,1.0,35.0,1,1.0,0.292398999999989
108,1,0.2,0.0,35.0,-1,0.0,1.685999000000038
109,1,0.2,0.0625,-35.0,1,0.0,0.3214990000000171
110,1,0.2,0.25,35.0,1,1.0,0.39870000000001937
111,1,0.2,0.125,35.0,-1,0.0,0.15260000000006357
112,1,0.2,1.0,35.0,1,1.0,0.269499000000053
113,1,0.2,0.0,35.0,1,1.0,0.32999900000004345
114,1,0.2,0.25,-35.0,-1,1.0,0.23230000000000928
115,1,0.2,0.0,-35.0,1,0.0,6.939599000000101
116,1,0.2,0.0625,35.0,1,1.0,0.327699999999993
117,1,0.2,0.0,35.0,-1,0.0,1.9067000000000007
118,1,0.2,0.25,35.0,1,1.0,0.4197990000000118
119,1,0.2,0.25,35.0,1,1.0,0.2963990000000649
120,1,0.2,0.0625,35.0,1,1.0,0.29100000000005366
121,1,0.2,0.25,35.0,-1,0.0,0.13530000000002929
122,1,0.2,0.0,35.0,-1,0.0,1.2266990000000533
123,1,0.2,0.0,35.0,-1,0.0,1.5588000000000193
124,1,0.2,0.0625,35.0,1,1.0,0.37639900000010584
125,1,0.2,0.0625,35.0,1,1.0,0.4077990000000682
126,1,0.2,0.25,-35.0,-1,1.0,3.959698999999887
127,1,0.2,0.25,-35.0,-1,1.0,0.22189899999989393
128,1,0.2,0.0625,35.0,1,1.0,0.3026990000000751
129,1,0.2,0.0625,35.0,1,1.0,0.36029999999993834
130,1,0.2,1.0,35.0,1,1.0,0.2767989999999827
131,1,0.2,0.0625,35.0,1,1.0,0.39800000000002456
132,1,0.2,0.25,35.0,1,1.0,0.5832990000000109
133,1,0.2,1.0,35.0,1,1.0,0.3145990000000438
134,1,0.2,0.25,-35.0,-1,1.0,0.24520000000006803
135,1,0.2,0.125,35.0,1,1.0,0.3482000000001335
136,1,0.2,0.125,35.0,-1,0.0,3.021998999999937
137,1,0.2,1.0,35.0,1,1.0,0.2830989999999929
138,1,0.2,1.0,35.0,1,1.0,0.2680000000000291
139,1,0.2,0.0625,-35.0,-1,1.0,2.782100000000014
140,1,0.2,1.0,35.0,1,1.0,0.28350000000000364
141,1,0.2,0.125,35.0,1,1.0,4.138200000000097
142,1,0.2,1.0,-35.0,-1,1.0,0.25739999999996144
143,1,0.2,0.25,35.0,1,1.0,0.39420000000006894
144,1,0.2,0.25,-35.0,-1,1.0,0.2219000000000051
145,1,0.2,0.125,35.0,1,1.0,0.32619900000008784
146,1,0.2,0.125,35.0,1,1.0,0.3552999999999429
147,1,0.2,0.0,35.0,1,1.0,0.23919899999998506
148,1,0.2,0.25,35.0,1,1.0,2.432199999999966
149,1,0.2,1.0,35.0,1,1.0,0.30530000000010205
150,1,0.2,0.0625,35.0,-1,0.0,2.155200000000036
151,1,0.2,0.125,-35.0,1,0.0,1.4888990000000604
152,1,0.2,1.0,35.0,1,1.0,0.32169999999996435
153,1,0.2,0.0625,35.0,1,1.0,7.873899000000051
154,1,0.2,0.0,35.0,1,1.0,0.5998990000000504
155,1,0.2,1.0,35.0,1,1.0,0.2604999999999791
156,1,0.2,0.125,35.0,1,1.0,0.19709999999997763
157,1,0.2,1.0,35.0,1,1.0,0.34049900000002253
158,1,0.2,0.0625,35.0,1,1.0,0.4078999999999269
159,1,0.2,1.0,35.0,1,1.0,0.2739990000001171
160,1,0.2,1.0,35.0,1,1.0,2.1684999999999945
161,1,0.2,0.0625,35.0,1,1.0,0.3714999999999691
162,1,0.2,0.125,35.0,1,1.0,0.3778989999999567
163,1,0.2,0.25,35.0,1,1.0,0.27890000000002146
164,1,0.2,0.0,35.0,1,1.0,2.9026000000000067
165,1,0.2,0.0,-35.0,1,0.0,0.28160000000002583
166,1,0.2,0.25,-35.0,-1,1.0,0.18699899999990066
167,1,0.2,0.125,-35.0,1,0.0,0.5471000000000004
168,1,0.2,0.125,35.0,1,1.0,0.30300000000011096
169,1,0.2,1.0,35.0,1,1.0,0.21869900000001508
170,1,0.2,0.125,35.0,1,1.0,3.355699999999956
171,1,0.2,1.0,-35.0,-1,1.0,0.19699900000000525
172,1,0.2,0.25,35.0,1,1.0,0.2889990000001035
173,1,0.2,0.125,35.0,1,1.0,0.33079900000007
174,1,0.2,0.0,35.0,1,1.0,13.12789900000007
175,1,0.2,0.0,-35.0,1,0.0,0.3729000000000724
176,1,0.2,0.0,35.0,1,1.0,0.4735000000000582
177,1,0.2,0.0625,-35.0,-1,1.0,4.0689989999999625
178,1,0.2,1.0,35.0,1,1.0,0.2804990000000771
179,1,0.2,0.0,35.0,1,1.0,3.0410000000000537
180,1,0.2,1.0,35.0,1,1.0,0.29399899999998524
181,1,0.2,0.125,35.0,1,1.0,0.41659900000001926
182,1,0.2,0.0625,35.0,1,1.0,0.5624990000000025
183,1,0.2,0.0,35.0,-1,0.0,0.22640000000001237
184,1,0.2,0.25,35.0,1,1.0,0.29280000000005657
185,1,0.2,0.0625,-35.0,1,0.0,0.29009899999994104
186,1,0.2,1.0,35.0,1,1.0,0.2750989999999547
187,1,0.2,0.25,35.0,1,1.0,2.7839989999999943
188,1,0.2,0.0625,35.0,1,1.0,0.4394000000000915
189,1,0.2,0.25,-35.0,1,0.0,0.3042000000000371
190,1,0.8,0.0,35.0,1,1.0,0.46449999999992997
191,1,0.8,0.0625,-35.0,1,0.0,0.4311999999999898
192,1,0.8,0.25,35.0,1,1.0,0.31819899999993595
193,1,0.8,0.0,-35.0,1,0.0,2.6091989999999896
194,1,0.8,0.0,-35.0,1,0.0,0.4253999999999678
195,1,0.8,1.0,-35.0,-1,1.0,0.25109900000006746
196,1,0.8,0.0,-35.0,-1,1.0,5.378499000000147
197,1,0.8,0.25,35.0,1,1.0,0.39879900000005364
198,1,0.8,0.25,-35.0,-1,1.0,3.311798999999951
199,1,0.8,0.125,-35.0,1,0.0,5.656400000000076
200,1,0.8,0.0625,-35.0,-1,1.0,0.3371989999999414
201,1,0.8,0.25,-35.0,-1,1.0,0.24149999999997362
202,1,0.8,0.25,35.0,1,1.0,0.2880999999999858
203,1,0.8,1.0,-35.0,-1,1.0,1.6324990000000525
204,1,0.8,0.0625,-35.0,-1,1.0,0.28949999999997544
205,1,0.8,0.0625,35.0,-1,0.0,0.19060000000001764
206,1,0.8,0.0625,-35.0,-1,1.0,0.23999900000001162
207,1,0.8,0.0625,-35.0,-1,1.0,0.27539999999999054
208,1,0.8,0.125,-35.0,1,0.0,16.44359899999995
209,1,0.8,0.125,-35.0,-1,1.0,0.3067000000000917
210,1,0.8,0.0625,-35.0,1,0.0,5.84419899999989
211,1,0.8,0.0,-35.0,-1,1.0,5.745098999999982
212,1,0.8,0.0,-35.0,-1,1.0,0.45929900000010093
213,1,0.8,0.0,-35.0,1,0.0,0.4798000000000684
214,1,0.8,0.0625,-35.0,-1,1.0,0.7097990000000891
215,1,0.8,0.25,-35.0,1,0.0,2.3638990000000604
216,1,0.8,1.0,-35.0,-1,1.0,0.470299999999952
217,1,0.8,0.25,-35.0,-1,1.0,0.26490000000001146
218,1,0.8,0.25,-35.0,1,0.0,13.494899000000032
219,1,0.2,0.0625,35.0,1,1.0,9.276998999999932
220,1,0.2,0.25,-35.0,-1,1.0,0.21569899999997233
221,1,0.2,0.25,35.0,1,1.0,0.39409999999998035
222,1,0.2,0.25,-35.0,1,0.0,2.7094000000000733
223,1,0.2,0.25,-35.0,-1,1.0,0.2580990000001293
224,1,0.2,0.125,-35.0,1,0.0,0.4393999999999778
225,1,0.2,1.0,35.0,1,1.0,0.3712000000000444
226,1,0.2,0.0,35.0,-1,0.0,0.5227989999998499
227,1,0.2,0.0625,35.0,-1,0.0,4.574899999999843
228,1,0.2,1.0,35.0,1,1.0,0.30329900000015186
229,1,0.2,0.0625,35.0,1,1.0,0.4943999999998141
230,1,0.2,1.0,-35.0,-1,1.0,0.30669899999975314
231,1,0.2,0.0625,35.0,1,1.0,2.1372989999999845
232,1,0.2,0.0,35.0,1,1.0,0.48349899999993795
233,1,0.2,0.125,35.0,1,1.0,0.47759900000005473
234,1,0.2,0.125,35.0,1,1.0,4.330398999999943
235,1,0.2,0.25,35.0,1,1.0,0.3255990000000111
236,1,0.2,1.0,35.0,1,1.0,0.26070000000004256
237,1,0.2,0.25,35.0,-1,0.0,1.970399000000043
238,1,0.2,0.125,35.0,1,1.0,0.3208999999999378
239,1,0.2,1.0,35.0,1,1.0,0.2624989999999343
240,1,0.2,0.125,35.0,1,1.0,0.29769999999984975
241,1,0.2,0.25,35.0,1,1.0,0.14049999999997453
242,1,0.2,0.0625,35.0,1,1.0,2.8212999999998374
243,1,0.2,0.0625,-35.0,1,0.0,1.2686000000001059
244,1,0.2,0.0,-35.0,-1,1.0,1.3813999999997577
245,1,0.2,0.125,-35.0,1,0.0,0.2418999999999869
246,1,0.2,0.125,35.0,-1,0.0,1.2248999999997068
247,1,0.2,0.125,35.0,1,1.0,0.2544000000000324
248,1,0.2,1.0,-35.0,-1,1.0,0.24860000000012406
249,1,0.2,1.0,35.0,1,1.0,0.3025999999997566
250,1,0.2,0.25,-35.0,-1,1.0,0.2951989999999114
251,1,0.2,0.0625,35.0,1,1.0,1.2676989999999932
252,1,0.2,0.25,-35.0,-1,1.0,0.4154990000001817
253,1,0.2,0.125,35.0,1,1.0,0.41079899999999725
254,1,0.2,0.25,35.0,1,1.0,0.3656989999999496
255,1,0.2,0.25,-35.0,-1,1.0,0.2676989999997659
256,1,0.2,0.125,35.0,1,1.0,0.5158999999998741
257,1,0.2,0.0,-35.0,1,0.0,0.5687990000001264
258,1,0.2,1.0,-35.0,-1,1.0,0.20269899999993868
259,1,0.2,1.0,35.0,1,1.0,0.3402000000000953
260,1,0.2,1.0,35.0,1,1.0,2.009900000000016
261,1,0.2,0.0,35.0,1,1.0,0.3369000000000142
262,1,0.2,0.25,-35.0,-1,1.0,0.26979899999992085
263,1,0.2,0.0625,35.0,1,1.0,6.563499000000093
264,1,0.2,0.25,35.0,1,1.0,0.6799989999999525
265,1,0.2,1.0,35.0,1,1.0,0.293898999999783
266,1,0.2,1.0,-35.0,-1,1.0,3.4600000000000364
267,1,0.2,0.25,35.0,1,1.0,0.34429900000009184
268,1,0.2,0.0625,-35.0,-1,1.0,0.24709899999993468
269,1,0.2,1.0,-35.0,-1,1.0,0.25789899999972477
270,1,0.2,1.0,35.0,1,1.0,0.32059899999967456
271,1,0.2,0.0625,35.0,-1,0.0,1.3861000000001695
272,1,0.2,0.0,35.0,1,1.0,0.29409899999996014
273,1,0.2,0.125,35.0,1,1.0,0.427599999999984
274,1,0.2,0.0625,-35.0,-1,1.0,0.25739999999973406
275,1,0.2,0.0,35.0,-1,0.0,0.602100000000064
276,1,0.2,0.25,35.0,1,1.0,0.3544000000001688
277,1,0.2,0.125,-35.0,-1,1.0,0.18119999999976244
278,1,0.2,0.25,35.0,1,1.0,0.4811989999998332
279,1,0.2,0.25,35.0,1,1.0,0.28819999999973334
280,1,0.2,0.0625,35.0,1,1.0,0.4279999999998836
281,1,0.2,0.0,-35.0,1,0.0,7.574198999999908
282,1,0.2,1.0,35.0,1,1.0,0.30829899999980626
283,1,0.2,0.0625,-35.0,1,0.0,0.1513999999999669
284,1,0.2,0.0,35.0,-1,0.0,6.171898999999939
285,1,0.2,0.125,35.0,1,1.0,0.27929999999992106
286,1,0.2,0.0625,-35.0,-1,1.0,0.3754989999999907
287,1,0.2,1.0,35.0,1,1.0,0.26939999999990505
288,1,0.2,0.0625,35.0,1,1.0,2.812298999999939
289,1,0.2,0.0625,35.0,1,1.0,0.296100000000024
290,1,0.2,1.0,35.0,1,1.0,0.34589900000014495
291,1,0.2,0.0625,-35.0,-1,1.0,0.2545000000000073
292,1,0.2,1.0,35.0,1,1.0,2.4758989999997993
293,1,0.2,1.0,35.0,1,1.0,0.2685989999999947
294,1,0.2,0.0,35.0,1,1.0,3.372899999999845
295,1,0.2,1.0,35.0,1,1.0,0.23349899999993795
296,1,0.2,0.25,35.0,1,1.0,0.18299899999988156
297,1,0.8,0.0625,-35.0,-1,1.0,2.174600000000055
298,1,0.8,0.25,-35.0,-1,1.0,0.2798999999999978
299,1,0.8,0.0625,-35.0,1,0.0,8.528699999999844
300,1,0.8,0.25,35.0,1,1.0,0.3969999999999345
301,1,0.8,1.0,-35.0,-1,1.0,0.3438989999997375
302,1,0.8,0.125,-35.0,-1,1.0,0.40709899999978916
303,1,0.8,0.25,-35.0,1,0.0,2.783098999999993
304,1,0.8,0.25,-35.0,-1,1.0,0.44089899999994486
305,1,0.8,0.0,35.0,-1,0.0,1.1874989999998888
306,1,0.8,0.0,-35.0,1,0.0,0.16099899999994705
307,1,0.8,1.0,-35.0,1,0.0,0.1736999999998261
308,1,0.8,0.125,-35.0,-1,1.0,2.391198999999915
309,1,0.8,0.25,-35.0,-1,1.0,0.23699899999996887
310,1,0.8,0.125,-35.0,1,0.0,10.507998999999927
311,1,0.8,1.0,-35.0,-1,1.0,0.5475989999999911
312,1,0.8,0.0625,-35.0,1,0.0,1.7650999999998476
313,1,0.8,0.0625,-35.0,1,0.0,11.224099999999908
314,1,0.8,0.25,-35.0,-1,1.0,7.632299999999759
315,1,0.8,0.0,-35.0,1,0.0,2.4966989999998077
316,1,0.8,0.125,-35.0,-1,1.0,3.612999999999829
317,1,0.8,0.25,-35.0,-1,1.0,0.4282989999999245
318,1,0.8,1.0,35.0,1,1.0,0.7995989999999438
319,1,0.8,0.0625,-35.0,-1,1.0,0.2901999999999134
320,1,0.8,0.0,-35.0,1,0.0,0.6597989999997935
321,1,0.8,0.0625,35.0,1,1.0,0.3433999999997468
322,1,0.8,0.0625,-35.0,-1,1.0,7.099998999999798
323,1,0.8,0.0,-35.0,1,0.0,0.24350000000004002
324,1,0.8,1.0,-35.0,-1,1.0,0.35049999999978354
325,1,0.8,0.125,-35.0,-1,1.0,0.26839899999981753
326,1,0.8,1.0,-35.0,-1,1.0,0.3436990000000151
327,1,0.8,0.0,35.0,1,1.0,7.030498999999736
328,1,0.8,0.0625,35.0,1,1.0,0.3775999999998021
329,1,0.8,0.25,-35.0,-1,1.0,0.29959899999994377
330,1,0.8,1.0,35.0,1,1.0,0.36439999999970496
331,1,0.8,0.0625,-35.0,1,0.0,3.6787990000000264
332,1,0.8,0.0625,-35.0,-1,1.0,2.4678989999999885
333,1,0.8,0.0625,-35.0,-1,1.0,2.1023999999999887
334,1,0.8,0.125,-35.0,-1,1.0,0.2579990000001544
335,1,0.8,0.0,-35.0,-1,1.0,0.3296989999998914
336,1,0.8,0.25,35.0,1,1.0,0.5118989999998576
337,1,0.8,1.0,-35.0,-1,1.0,0.23209899999983463
338,1,0.8,0.0,-35.0,-1,1.0,0.22869900000000598
339,1,0.8,0.125,35.0,1,1.0,0.36189999999987776
340,1,0.8,0.0,-35.0,1,0.0,0.38840000000004693
341,1,0.8,0.125,-35.0,1,0.0,14.162598999999773
342,1,0.8,0.0,35.0,1,1.0,0.3924000000001797
343,1,0.8,0.25,-35.0,-1,1.0,0.38289899999972477
344,1,0.8,0.125,-35.0,-1,1.0,3.079099000000042
345,1,0.8,0.125,35.0,1,1.0,4.852000000000089
346,1,0.8,0.0625,-35.0,1,0.0,1.419399999999996
347,1,0.8,0.0,-35.0,-1,1.0,8.26999899999987
348,1,0.8,1.0,-35.0,-1,1.0,0.2464999999997417
349,1,0.8,0.25,-35.0,-1,1.0,0.3638989999999467
350,1,0.8,1.0,35.0,1,1.0,0.43329999999969004
351,1,0.8,0.0625,35.0,1,1.0,0.3737989999999627
352,1,0.8,1.0,35.0,1,1.0,0.43699999999989814
353,1,0.8,0.0,-35.0,1,0.0,0.5622000000000753
354,1,0.8,0.0625,-35.0,-1,1.0,3.3671999999996842
355,1,0.8,1.0,-35.0,-1,1.0,0.3961989999997968
356,1,0.8,0.0,35.0,-1,0.0,4.160799999999881
357,1,0.8,0.0,-35.0,-1,1.0,0.3212999999998374
358,1,0.2,0.125,35.0,1,1.0,0.33439900000007583
359,1,0.2,0.25,35.0,1,1.0,0.2796000000000731
360,1,0.2,0.0,35.0,-1,0.0,1.414399000000003
361,1,0.2,0.0625,-35.0,-1,1.0,0.4603989999998248
362,1,0.2,0.0,35.0,1,1.0,0.5278000000000702
363,1,0.2,0.125,35.0,1,1.0,0.5013989999997648
364,1,0.2,1.0,35.0,1,1.0,0.3813000000000102
365,1,0.2,0.0625,35.0,-1,0.0,1.7093999999999596
366,1,0.2,1.0,35.0,1,1.0,0.2948989999999867
367,1,0.2,0.0625,35.0,1,1.0,1.1524990000000344
368,1,0.2,0.0625,35.0,1,1.0,0.4317989999999554
369,1,0.2,0.0,35.0,1,1.0,0.32549999999991996
370,1,0.2,0.0625,-35.0,1,0.0,0.3752990000000409
371,1,0.2,0.25,35.0,-1,0.0,0.09749899999997069
372,1,0.2,0.0,35.0,1,1.0,10.568798999999899
373,1,0.2,0.125,35.0,1,1.0,5.3466999999996005
374,1,0.2,0.25,35.0,1,1.0,0.42269899999996596
375,1,0.2,1.0,35.0,1,1.0,0.36029899999994086
376,1,0.2,0.125,35.0,1,1.0,2.5660999999997784
377,1,0.2,1.0,35.0,1,1.0,0.34479899999973895
378,1,0.2,0.0625,35.0,1,1.0,1.0331989999999678
379,1,0.2,0.125,35.0,1,1.0,4.652598999999782
380,1,0.2,0.25,35.0,1,1.0,0.41669900000010784
381,1,0.2,0.0625,35.0,1,1.0,0.3573999999998705
382,1,0.2,0.25,35.0,1,1.0,0.6368999999997413
383,1,0.2,0.25,-35.0,-1,1.0,0.24709999999981846
384,1,0.2,1.0,35.0,1,1.0,0.3935989999999947
385,1,0.2,0.125,35.0,1,1.0,0.29189900000005764
386,1,0.2,0.0625,35.0,1,1.0,1.4174989999996797
387,1,0.2,0.125,35.0,1,1.0,0.47699999999986176
388,1,0.2,0.0625,35.0,1,1.0,0.9371999999998479
389,1,0.2,0.0625,-35.0,1,0.0,0.8849999999997635
390,1,0.2,0.0625,35.0,1,1.0,0.3108999999999469
391,1,0.2,0.0,-35.0,1,0.0,5.970999999999776
392,1,0.2,0.25,35.0,1,1.0,0.30439999999975953
393,1,0.2,1.0,35.0,1,1.0,0.22709899999995287
394,1,0.2,0.0625,-35.0,1,0.0,4.624699999999848
395,1,0.2,0.0,-35.0,1,0.0,0.6642990000000282
396,1,0.2,0.125,35.0,1,1.0,0.32159999999998945
397,1,0.2,0.125,35.0,1,1.0,0.4761989999999514
398,1,0.2,0.25,35.0,1,1.0,0.31829900000002453
399,1,0.2,0.0625,35.0,1,1.0,4.704199000000017
400,1,0.2,0.0,-35.0,1,0.0,8.73529899999994
401,1,0.2,0.125,35.0,1,1.0,0.3102999999998701
402,1,0.2,1.0,35.0,1,1.0,0.308898999999883
403,1,0.2,1.0,35.0,1,1.0,0.379998999999998
404,1,0.2,0.125,35.0,1,1.0,0.27599999999983993
405,1,0.2,0.0,-35.0,1,0.0,3.121298999999908
406,1,0.2,0.25,35.0,1,1.0,0.3127990000000409
407,1,0.2,0.125,35.0,1,1.0,0.42349899999976515
408,1,0.2,0.0,35.0,1,1.0,0.21309999999971296
409,1,0.2,1.0,-35.0,-1,1.0,0.2653989999998885
410,1,0.2,0.0,35.0,1,1.0,4.506398999999874
411,1,0.2,1.0,35.0,1,1.0,0.3569990000000871
412,1,0.2,0.25,35.0,-1,0.0,0.09659999999985303
413,1,0.2,0.25,35.0,1,1.0,0.2972999999997228
414,1,0.2,0.125,35.0,1,1.0,1.4000989999997273
415,1,0.2,1.0,35.0,1,1.0,0.20409999999992579
416,1,0.2,0.125,35.0,1,1.0,3.490399000000025
417,1,0.2,0.125,35.0,1,1.0,0.3373989999997775
418,1,0.2,0.125,-35.0,-1,1.0,5.05399999999986
419,1,0.2,0.125,35.0,1,1.0,0.2887989999999263
420,1,0.2,0.0625,35.0,1,1.0,0.5040989999997691
421,1,0.2,0.125,35.0,1,1.0,0.2666990000000169
422,1,0.2,0.25,35.0,1,1.0,0.3376989999999296
423,1,0.2,0.0625,35.0,1,1.0,0.5341989999997168
424,1,0.2,0.25,35.0,1,1.0,0.26099999999996726
425,1,0.2,0.0625,35.0,1,1.0,6.00569900000005
426,1,0.2,0.0,-35.0,1,0.0,0.4981989999998859
427,1,0.2,0.25,-35.0,1,0.0,0.3068999999998141
428,1,0.2,1.0,35.0,1,1.0,0.3015989999998965
429,1,0.2,0.0,35.0,1,1.0,0.6707999999998719
430,1,0.8,0.0,-35.0,-1,1.0,1.3482989999997699
431,1,0.8,1.0,-35.0,-1,1.0,0.2139999999999418
432,1,0.8,0.0625,-35.0,-1,1.0,0.4019999999998163
433,1,0.8,1.0,35.0,1,1.0,0.35799999999994725
434,1,0.8,0.125,-35.0,-1,1.0,2.418898999999783
435,1,0.8,0.25,35.0,1,1.0,0.3789999999999054
436,1,0.8,0.125,-35.0,1,0.0,1.4789989999999307
437,1,0.8,0.0625,-35.0,1,0.0,0.39289899999994304
438,1,0.8,1.0,-35.0,-1,1.0,0.28599899999971967
439,1,0.8,0.0,-35.0,1,0.0,11.812198999999964
440,1,0.8,0.125,-35.0,-1,1.0,0.3997989999998026
441,1,0.8,1.0,35.0,1,1.0,0.5333000000000538
442,1,0.8,0.25,-35.0,-1,1.0,0.3067999999998392
443,1,0.8,0.125,-35.0,1,0.0,1.444199000000026
444,1,0.8,0.125,-35.0,1,0.0,2.130298999999468
445,1,0.8,1.0,-35.0,-1,1.0,0.3672999999998865
446,1,0.8,0.0625,-35.0,1,0.0,9.89390000000003
447,1,0.8,0.0,-35.0,1,0.0,12.407700000000204
448,1,0.8,0.0625,-35.0,-1,1.0,5.014698999999837
449,1,0.8,0.25,-35.0,-1,1.0,0.20149899999978516
450,1,0.8,0.0,-35.0,1,0.0,11.960499000000254
451,1,0.8,1.0,-35.0,-1,1.0,0.2816989999996622
452,1,0.8,0.125,-35.0,-1,1.0,11.232998999999836
453,1,0.8,1.0,-35.0,-1,1.0,0.33219899999994595
454,1,0.8,0.125,-35.0,1,0.0,15.781800000000203
455,1,0.8,0.0,-35.0,-1,1.0,10.475998999999774
456,1,0.8,0.0,-35.0,-1,1.0,5.981498999999985
457,1,0.8,0.0625,35.0,-1,0.0,6.783298999999715
458,1,0.8,1.0,-35.0,-1,1.0,0.4920000000001892
459,1,0.8,0.25,-35.0,-1,1.0,0.2433989999994992
460,1,0.8,0.125,-35.0,-1,1.0,0.24699899999995978
461,1,0.8,0.0,-35.0,-1,1.0,4.880600000000413
462,1,0.8,0.25,-35.0,-1,1.0,0.4521989999998368
463,1,0.8,1.0,-35.0,-1,1.0,5.480098999999882
464,1,0.8,0.25,-35.0,-1,1.0,0.3075999999996384
465,1,0.8,0.25,-35.0,-1,1.0,0.3791989999999714
466,1,0.8,0.125,-35.0,-1,1.0,0.2776989999997568
1,2,0.5,1.0,35.0,1,1.0,0.4919
2,2,0.5,0.125,35.0,-1,0.0,5.173000999999999
3,2,0.5,1.0,-35.0,-1,1.0,0.45480000000000054
4,2,0.5,0.0625,-35.0,-1,1.0,11.419300999999997
5,2,0.5,1.0,35.0,1,1.0,4.9481
6,2,0.5,0.0,-35.0,1,0.0,6.751500000000007
7,2,0.5,0.25,-35.0,-1,1.0,0.3145009999999999
8,2,0.5,0.25,-35.0,1,0.0,3.7491000000000057
9,2,0.5,1.0,-35.0,-1,1.0,0.29240100000000524
10,2,0.5,0.0625,-35.0,1,0.0,5.210900999999993
11,2,0.5,0.25,-35.0,1,0.0,9.809600000000003
12,2,0.5,1.0,-35.0,-1,1.0,0.2510999999999939
13,2,0.5,0.0625,35.0,-1,0.0,0.5543010000000095
14,2,0.5,0.125,-35.0,-1,1.0,0.19709999999999184
15,2,0.5,1.0,-35.0,-1,1.0,0.41159999999999286
16,2,0.5,1.0,35.0,1,1.0,0.35960099999999784
17,2,0.5,0.0,35.0,-1,0.0,2.126199999999997
18,2,0.5,0.125,35.0,1,1.0,0.4372010000000017
19,2,0.5,1.0,-35.0,-1,1.0,0.3032009999999872
20,2,0.5,0.0625,-35.0,-1,1.0,0.2553010000000029
21,2,0.5,1.0,-35.0,-1,1.0,0.25220099999999945
22,2,0.5,0.0625,-35.0,-1,1.0,0.22289999999998145
23,2,0.5,0.0,35.0,1,1.0,1.3215000000000003
24,2,0.5,0.0625,-35.0,-1,1.0,3.765100999999987
25,2,0.5,0.125,35.0,1,1.0,0.3242999999999938
26,2,0.5,0.125,-35.0,-1,1.0,0.5577000000000112
27,2,0.5,0.0625,-35.0,1,0.0,0.17439999999999145
28,2,0.5,0.0625,-35.0,1,0.0,0.31039999999998713
29,2,0.5,1.0,-35.0,-1,1.0,0.49690100000000825
30,2,0.5,0.0625,35.0,-1,0.0,4.163400000000024
31,2,0.5,0.125,-35.0,1,0.0,1.5853010000000154
32,2,0.5,0.125,35.0,1,1.0,0.38060000000001537
33,2,0.5,0.0625,35.0,-1,0.0,1.162399999999991
34,2,0.5,0.0,35.0,1,1.0,0.4856010000000026
35,2,0.5,0.0,35.0,1,1.0,0.6361010000000249
36,2,0.5,0.0625,-35.0,-1,1.0,3.7911
37,2,0.5,1.0,-35.0,-1,1.0,0.2353999999999985
38,2,0.5,1.0,35.0,1,1.0,0.3019999999999925
39,2,0.5,1.0,-35.0,-1,1.0,0.28370100000000775
40,2,0.5,1.0,35.0,1,1.0,0.30359999999998877
41,2,0.5,1.0,35.0,-1,0.0,4.259399999999999
42,2,0.5,0.25,35.0,1,1.0,0.45760000000001355
43,2,0.5,0.0625,-35.0,-1,1.0,8.910699999999991
44,2,0.5,0.125,35.0,1,1.0,0.5498000000000047
45,2,0.5,0.125,35.0,1,1.0,0.41650099999998247
46,2,0.5,0.25,-35.0,-1,1.0,0.4773010000000113
47,2,0.5,0.25,-35.0,-1,1.0,0.4840009999999779
48,2,0.5,1.0,35.0,1,1.0,0.4323999999999728
49,2,0.5,0.125,-35.0,-1,1.0,0.3891009999999824
50,2,0.5,1.0,-35.0,-1,1.0,0.3641009999999767
51,2,0.5,1.0,-35.0,-1,1.0,0.23089999999999122
52,2,0.5,1.0,35.0,1,1.0,0.30680000000000973
53,2,0.5,0.0625,-35.0,-1,1.0,2.940000999999995
54,2,0.5,0.0625,-35.0,-1,1.0,0.31290099999998233
55,2,0.5,1.0,-35.0,-1,1.0,0.22949999999997317
56,2,0.5,0.125,-35.0,-1,1.0,0.328000999999972
57,2,0.5,1.0,-35.0,-1,1.0,0.3100000000000023
58,2,0.5,1.0,35.0,-1,0.0,0.29900099999997565
59,2,0.5,0.125,35.0,1,1.0,0.5047000000000139
60,2,0.5,1.0,-35.0,-1,1.0,0.2841009999999642
61,2,0.5,0.25,-35.0,-1,1.0,0.37470000000001846
62,2,0.5,0.0625,35.0,1,1.0,4.3931010000000015
63,2,0.5,0.125,-35.0,1,0.0,1.5150999999999613
64,2,0.5,0.125,35.0,1,1.0,2.946199999999976
65,2,0.5,0.125,35.0,1,1.0,0.3241999999999621
66,2,0.5,0.0625,-35.0,1,0.0,2.8732010000000514
67,2,0.5,1.0,-35.0,1,0.0,6.578199999999981
68,2,0.5,0.25,35.0,1,1.0,0.6053009999999972
69,2,0.5,0.0,-35.0,-1,1.0,4.278699999999958
70,2,0.5,1.0,-35.0,-1,1.0,4.434301000000005
71,2,0.5,0.0,35.0,-1,0.0,4.4884009999999535
72,2,0.5,0.0,35.0,-1,0.0,0.31759999999997035
73,2,0.5,0.0625,-35.0,-1,1.0,0.367100999999991
74,2,0.5,0.0,-35.0,-1,1.0,5.712699999999984
75,2,0.5,0.0,35.0,-1,0.0,2.2730999999999426
76,2,0.5,0.0625,-35.0,-1,1.0,0.23460100000005468
77,2,0.5,0.25,35.0,-1,0.0,0.20230000000003656
78,2,0.5,0.25,35.0,1,1.0,0.3886009999999942
79,2,0.5,0.0625,-35.0,-1,1.0,5.879200999999966
80,2,0.5,1.0,-35.0,-1,1.0,2.953700999999967
81,2,0.5,0.25,-35.0,-1,1.0,2.58929999999998
82,2,0.5,0.0,-35.0,-1,1.0,1.7427999999999884
83,2,0.5,0.25,-35.0,-1,1.0,0.1761009999999601
84,2,0.5,0.25,-35.0,-1,1.0,0.19909999999998718
85,2,0.5,0.25,35.0,-1,0.0,0.17100099999998974
86,2,0.5,1.0,35.0,1,1.0,0.2937999999999761
87,2,0.5,0.25,-35.0,-1,1.0,2.221299999999985
88,2,0.5,0.0625,-35.0,-1,1.0,0.2968010000000163
89,2,0.5,1.0,-35.0,-1,1.0,0.4216999999999871
90,2,0.5,1.0,-35.0,-1,1.0,0.4143999999999437
91,2,0.2,0.25,-35.0,-1,1.0,0.3291999999999575
92,2,0.2,0.125,35.0,-1,0.0,3.2379999999999995
93,2,0.2,0.125,35.0,1,1.0,3.6198009999999954
94,2,0.2,0.0625,35.0,1,1.0,0.5819009999999594
95,2,0.2,0.0625,35.0,1,1.0,0.3702999999999861
96,2,0.2,0.0625,35.0,1,1.0,0.5161009999999351
97,2,0.2,1.0,35.0,1,1.0,0.39079999999995607
98,2,0.2,0.25,35.0,1,1.0,0.42509999999998627
99,2,0.2,0.0,35.0,1,1.0,2.9880999999999744
100,2,0.2,0.0,35.0,1,1.0,0.23400100000003476
101,2,0.2,1.0,-35.0,-1,1.0,0.2884999999999991
102,2,0.2,0.25,35.0,1,1.0,0.3582010000000082
103,2,0.2,0.25,35.0,-1,0.0,0.15320099999996728
104,2,0.2,1.0,-35.0,-1,1.0,0.3165010000000166
105,2,0.2,0.25,-35.0,-1,1.0,0.28190000000000737
106,2,0.2,0.125,35.0,1,1.0,3.221001000000001
107,2,0.2,0.0625,35.0,1,1.0,0.3431009999999901
108,2,0.2,0.125,-35.0,-1,1.0,0.1867000000000303
109,2,0.2,0.0625,35.0,1,1.0,0.40550000000001774
110,2,0.2,0.0625,35.0,-1,0.0,3.8803000000001475
111,2,0.2,0.0625,35.0,1,1.0,0.3180000000000973
112,2,0.2,0.25,35.0,1,1.0,0.32110000000011496
113,2,0.2,0.25,35.0,1,1.0,4.36850000000004
114,2,0.2,0.25,35.0,1,1.0,0.3905000000000882
115,2,0.2,0.25,35.0,1,1.0,0.5609000000000606
116,2,0.2,1.0,35.0,1,1.0,0.32860100000016246
117,2,0.2,0.125,-35.0,1,0.0,0.6067000000000462
118,2,0.2,0.0,35.0,1,1.0,0.502800000000093
119,2,0.2,0.25,-35.0,-1,1.0,0.27280100000007224
120,2,0.2,0.0,35.0,1,1.0,0.33960000000001855
121,2,0.2,0.125,35.0,1,1.0,0.32230100000015227
122,2,0.2,0.25,-35.0,-1,1.0,0.40160100000014154
123,2,0.2,1.0,-35.0,-1,1.0,0.33690100000012535
124,2,0.2,0.25,35.0,1,1.0,0.33960000000013224
125,2,0.2,0.0,35.0,-1,0.0,0.2759010000000899
126,2,0.2,0.25,-35.0,-1,1.0,0.2699010000000044
127,2,0.2,0.0,35.0,-1,0.0,0.5233000000000629
128,2,0.2,0.125,35.0,1,1.0,0.35980000000006385
129,2,0.2,0.25,35.0,1,1.0,3.0019000000000915
130,2,0.8,1.0,-35.0,-1,1.0,0.28369999999995343
131,2,0.8,0.125,35.0,1,1.0,1.9315010000001394
132,2,0.8,1.0,-35.0,-1,1.0,0.23910000000000764
133,2,0.8,0.0625,35.0,1,1.0,0.41610000000002856
134,2,0.8,0.0625,-35.0,-1,1.0,4.568900000000099
135,2,0.8,0.0,-35.0,1,0.0,0.5414010000000644
136,2,0.8,0.25,35.0,-1,0.0,0.16290000000003602
137,2,0.8,0.25,-35.0,-1,1.0,0.2980000000001155
138,2,0.8,0.0625,-35.0,-1,1.0,0.41010000000005675
139,2,0.8,0.125,-35.0,-1,1.0,0.3688010000000759
140,2,0.8,0.0625,-35.0,-1,1.0,2.0631000000000768
141,2,0.8,0.0,-35.0,-1,1.0,3.2097000000001117
142,2,0.8,0.25,-35.0,-1,1.0,0.3125
143,2,0.8,1.0,35.0,1,1.0,0.4832010000001219
144,2,0.8,0.0,35.0,-1,0.0,1.9983010000000831
145,2,0.8,0.25,35.0,1,1.0,0.44800099999997656
146,2,0.8,0.25,-35.0,-1,1.0,0.3401000000001204
147,2,0.8,0.0,-35.0,1,0.0,0.4832000000001244
148,2,0.8,1.0,-35.0,-1,1.0,0.285301000000004
149,2,0.8,0.0,-35.0,1,0.0,0.4745010000001457
150,2,0.8,0.125,-35.0,-1,1.0,0.3772000000001299
151,2,0.8,0.125,-35.0,-1,1.0,3.330100000000016
152,2,0.8,0.25,-35.0,-1,1.0,0.26080000000013115
153,2,0.2,0.25,35.0,1,1.0,0.3532999999999902
154,2,0.2,0.25,35.0,1,1.0,0.28130000000010114
155,2,0.2,0.25,-35.0,-1,1.0,0.6393000000000484
156,2,0.2,0.25,35.0,1,1.0,0.328401000000099
157,2,0.2,0.0625,35.0,1,1.0,0.5874000000000024
158,2,0.2,0.25,35.0,1,1.0,2.9564000000000306
159,2,0.2,0.0625,35.0,1,1.0,0.2783999999999196
160,2,0.2,0.0,-35.0,-1,1.0,8.708200000000033
161,2,0.2,1.0,35.0,1,1.0,0.35750000000007276
162,2,0.2,0.0625,35.0,-1,0.0,1.0358009999999922
163,2,0.2,0.0,-35.0,-1,1.0,0.23460100000011153
164,2,0.2,0.125,35.0,1,1.0,0.6017000000000507
165,2,0.2,1.0,-35.0,-1,1.0,0.2585000000000264
166,2,0.2,0.0,35.0,-1,0.0,8.41010099999994
167,2,0.2,1.0,35.0,1,1.0,5.936001000000033
168,2,0.2,0.25,35.0,1,1.0,0.3527000000000271
169,2,0.2,0.125,-35.0,-1,1.0,0.4225010000000111
170,2,0.2,0.0625,35.0,1,1.0,0.32370000000003074
171,2,0.2,0.0625,35.0,1,1.0,0.42679999999995744
172,2,0.2,0.25,35.0,1,1.0,0.12940100000014354
173,2,0.2,0.0,-35.0,1,0.0,10.96990100000005
174,2,0.2,0.125,35.0,1,1.0,0.33310000000017226
175,2,0.2,1.0,35.0,1,1.0,0.32590000000004693
176,2,0.2,1.0,35.0,1,1.0,0.37740099999996346
177,2,0.2,0.0625,-35.0,-1,1.0,0.3466010000000779
178,2,0.8,0.125,-35.0,-1,1.0,0.26930000000004384
179,2,0.8,0.0,-35.0,1,0.0,0.3080000000001064
180,2,0.8,0.25,-35.0,-1,1.0,0.4093000000000302
181,2,0.8,0.25,-35.0,1,0.0,3.9043009999999185
182,2,0.8,0.25,-35.0,-1,1.0,0.3106999999999971
183,2,0.8,0.0625,-35.0,1,0.0,0.4650010000000293
184,2,0.8,0.0,-35.0,1,0.0,0.6089000000000624
185,2,0.8,0.0625,-35.0,-1,1.0,3.0541999999999234
186,2,0.8,0.125,-35.0,-1,1.0,1.504199999999969
187,2,0.8,1.0,-35.0,-1,1.0,0.4753000000000611
188,2,0.8,0.0625,-35.0,-1,1.0,0.500801000000024
189,2,0.8,0.0625,-35.0,1,0.0,2.559801000000107
190,2,0.8,0.0625,-35.0,-1,1.0,0.5413009999999758
191,2,0.8,0.125,-35.0,-1,1.0,0.4446010000000342
192,2,0.8,1.0,-35.0,-1,1.0,0.3416010000000824
193,2,0.8,0.0,35.0,1,1.0,0.4907010000001719
194,2,0.8,0.0625,-35.0,1,0.0,3.828700000000026
195,2,0.8,1.0,-35.0,-1,1.0,0.2875000000001364
196,2,0.8,0.125,-35.0,-1,1.0,0.23540000000002692
197,2,0.8,1.0,-35.0,-1,1.0,6.12360000000001
198,2,0.8,0.25,-35.0,-1,1.0,0.29550000000006094
199,2,0.8,0.0625,-35.0,-1,1.0,0.4741999999999962
200,2,0.8,0.125,-35.0,-1,1.0,0.24460099999998874
201,2,0.8,0.0,-35.0,-1,1.0,1.958201000000031
202,2,0.8,0.125,-35.0,-1,1.0,0.29080100000010134
203,2,0.8,0.0625,-35.0,-1,1.0,0.4799000000000433
204,2,0.8,0.125,-35.0,-1,1.0,5.552601000000095
205,2,0.8,0.0625,-35.0,-1,1.0,0.3307000000000926
206,2,0.8,0.25,-35.0,-1,1.0,0.32460100000002967
207,2,0.8,1.0,-35.0,-1,1.0,0.12990100000001803
208,2,0.8,0.0625,-35.0,-1,1.0,0.265700000000038
209,2,0.8,0.0,-35.0,-1,1.0,0.2720000000000482
210,2,0.8,0.0,-35.0,-1,1.0,0.2686999999999671
211,2,0.8,0.0625,-35.0,-1,1.0,0.2420000000000755
212,2,0.8,0.25,-35.0,-1,1.0,0.6036010000001397
213,2,0.8,1.0,-35.0,-1,1.0,0.23440100000004804
214,2,0.8,1.0,-35.0,-1,1.0,0.20950100000015937
215,2,0.8,0.25,-35.0,-1,1.0,0.2600000000001046
216,2,0.8,0.0625,-35.0,-1,1.0,0.29500099999995655
217,2,0.8,0.0,-35.0,-1,1.0,0.48900000000014643
218,2,0.8,0.25,-35.0,-1,1.0,0.1870010000000093
219,2,0.8,0.0625,-35.0,-1,1.0,0.3006000000000313
220,2,0.8,0.25,-35.0,-1,1.0,0.2514000000001033
221,2,0.8,0.0,-35.0,1,0.0,0.5774000000000115
222,2,0.8,1.0,-35.0,-1,1.0,0.21600100000011935
223,2,0.8,0.0,35.0,1,1.0,0.43020000000012715
224,2,0.8,0.125,-35.0,-1,1.0,0.2958009999999831
225,2,0.8,0.25,35.0,-1,0.0,2.280501000000072
226,2,0.8,0.25,-35.0,-1,1.0,0.24830000000008567
227,2,0.8,1.0,-35.0,-1,1.0,0.20410100000015063
228,2,0.8,0.0,35.0,-1,0.0,3.4031009999999924
229,2,0.8,0.0,-35.0,1,0.0,0.35770000000002256
230,2,0.8,0.25,-35.0,-1,1.0,0.35550099999977647
231,2,0.8,0.125,-35.0,-1,1.0,0.2443999999998141
232,2,0.8,0.25,-35.0,-1,1.0,0.2505999999998494
233,2,0.8,0.0625,35.0,-1,0.0,0.38789999999994507
234,2,0.8,0.125,-35.0,-1,1.0,0.29330099999992854
235,2,0.8,0.0625,-35.0,-1,1.0,0.22159999999985303
236,2,0.8,0.0,-35.0,1,0.0,1.2936999999999443
237,2,0.8,0.125,-35.0,-1,1.0,5.698499999999967
238,2,0.2,0.0,-35.0,1,0.0,2.9437009999996917
239,2,0.2,0.0,35.0,1,1.0,4.192299999999932
240,2,0.2,0.25,35.0,1,1.0,0.32760099999995873
241,2,0.2,1.0,-35.0,-1,1.0,0.2558999999998832
242,2,0.2,0.0,35.0,-1,0.0,0.7141009999998005
243,2,0.2,0.0625,35.0,1,1.0,0.4194999999999709
244,2,0.2,1.0,35.0,1,1.0,0.43450000000007094
245,2,0.2,0.0,35.0,1,1.0,0.39609999999993306
246,2,0.2,0.0625,35.0,1,1.0,0.3576010000001588
247,2,0.2,0.0,-35.0,1,0.0,0.4464010000001508
248,2,0.2,0.25,-35.0,-1,1.0,0.2878009999999449
249,2,0.2,0.25,35.0,1,1.0,0.3431000000000495
250,2,0.2,0.125,-35.0,-1,1.0,0.2686999999998534
251,2,0.2,0.0,-35.0,-1,1.0,2.9133999999999105
252,2,0.2,1.0,35.0,1,1.0,0.2562000000000353
253,2,0.2,0.0,35.0,-1,0.0,0.3801009999999678
254,2,0.2,0.0625,35.0,1,1.0,0.3266999999998461
255,2,0.2,0.125,35.0,1,1.0,0.5737010000000282
256,2,0.2,1.0,35.0,1,1.0,0.332300000000032
257,2,0.2,0.0625,35.0,1,1.0,0.3139000000001033
258,2,0.8,1.0,-35.0,-1,1.0,0.2807999999999993
259,2,0.8,0.0625,-35.0,-1,1.0,0.9508009999999558
260,2,0.8,0.125,-35.0,-1,1.0,0.189000999999962
261,2,0.8,0.0,-35.0,-1,1.0,0.25090099999988524
262,2,0.8,0.0625,-35.0,-1,1.0,0.28589999999985594
263,2,0.8,0.0,-35.0,-1,1.0,0.20470099999988633
264,2,0.8,0.0,-35.0,-1,1.0,0.3428999999998723
265,2,0.8,0.25,-35.0,-1,1.0,0.11120099999993727
266,2,0.8,1.0,-35.0,1,0.0,0.10599999999976717
267,2,0.8,0.0,-35.0,-1,1.0,5.06130099999973
268,2,0.8,1.0,-35.0,-1,1.0,1.4164009999999507
269,2,0.8,1.0,-35.0,-1,1.0,0.1750010000000657
270,2,0.8,0.125,-35.0,-1,1.0,0.38999999999987267
271,2,0.8,0.25,-35.0,-1,1.0,0.38850000000002183
272,2,0.8,0.25,-35.0,-1,1.0,0.2031010000000606
273,2,0.8,0.0625,-35.0,-1,1.0,2.6851000000001477
274,2,0.8,0.0,-35.0,-1,1.0,0.3732009999998809
275,2,0.8,0.125,-35.0,-1,1.0,0.288899999999785
276,2,0.8,0.0625,-35.0,-1,1.0,0.1773009999999431
277,2,0.8,0.0625,-35.0,-1,1.0,0.3025000000000091
278,2,0.8,0.25,-35.0,-1,1.0,0.20420100000001185
279,2,0.8,0.0625,35.0,-1,0.0,0.3656999999998334
280,2,0.8,0.0,-35.0,-1,1.0,0.3342999999999847
281,2,0.8,0.0625,-35.0,-1,1.0,0.25930099999982303
282,2,0.8,0.125,-35.0,-1,1.0,0.1613009999998667
283,2,0.8,1.0,-35.0,-1,1.0,0.2462999999997919
284,2,0.2,0.0,35.0,-1,0.0,0.2775010000000293
285,2,0.2,0.125,35.0,1,1.0,0.4727999999997792
286,2,0.2,0.0625,35.0,1,1.0,0.9877000000001317
287,2,0.2,1.0,-35.0,-1,1.0,0.22959999999989122
288,2,0.2,1.0,35.0,1,1.0,0.2916009999999005
289,2,0.2,0.0,35.0,-1,0.0,0.34989999999993415
290,2,0.2,0.0,35.0,-1,0.0,4.008101000000124
291,2,0.2,1.0,35.0,1,1.0,0.42679999999973006
292,2,0.2,1.0,35.0,1,1.0,0.26929999999993015
293,2,0.2,0.0625,-35.0,-1,1.0,0.27040099999999256
294,2,0.2,1.0,35.0,1,1.0,0.30559999999991305
295,2,0.2,0.0625,-35.0,-1,1.0,0.4371000000001004
296,2,0.2,0.0625,-35.0,-1,1.0,0.302000999999791
297,2,0.2,0.125,-35.0,-1,1.0,0.2540000000001328
298,2,0.2,0.25,35.0,1,1.0,0.34550100000001294
299,2,0.2,0.125,35.0,-1,0.0,0.11090100000001257
300,2,0.2,1.0,-35.0,-1,1.0,0.24969999999984793
301,2,0.2,0.25,35.0,1,1.0,0.37770099999988815
302,2,0.2,0.25,35.0,1,1.0,0.30970000000002074
303,2,0.2,1.0,35.0,1,1.0,0.357899999999745
304,2,0.2,0.0625,-35.0,1,0.0,0.4066009999999096
305,2,0.2,0.0,35.0,-1,0.0,5.854799999999841
306,2,0.2,0.125,35.0,1,1.0,0.7667999999998756
307,2,0.2,0.25,35.0,1,1.0,0.33849999999983993
308,2,0.2,0.0625,35.0,1,1.0,0.3770999999999276
309,2,0.2,0.0,35.0,-1,0.0,7.632100000000037
310,2,0.2,1.0,35.0,1,1.0,0.26129999999989195
311,2,0.2,1.0,35.0,1,1.0,0.3290999999999258
312,2,0.2,1.0,-35.0,-1,1.0,0.25700099999971826
313,2,0.2,0.125,-35.0,-1,1.0,2.119100999999773
314,2,0.2,1.0,35.0,1,1.0,0.37809999999990396
315,2,0.2,0.0625,35.0,-1,0.0,0.2726999999997588
316,2,0.2,1.0,-35.0,-1,1.0,0.2581009999998969
317,2,0.2,0.0,35.0,-1,0.0,4.7295009999998
318,2,0.2,0.0,35.0,-1,0.0,2.557401000000027
319,2,0.2,0.25,35.0,1,1.0,0.46010099999989507
320,2,0.2,0.0,-35.0,1,0.0,0.30120099999999184
321,2,0.2,0.0,35.0,1,1.0,2.983299999999872
322,2,0.2,0.0,35.0,1,1.0,3.255000000000109
323,2,0.2,0.0,35.0,-1,0.0,0.08039999999982683
324,2,0.2,1.0,35.0,1,1.0,0.35829999999987194
325,2,0.2,0.25,35.0,1,1.0,0.31380099999978484
326,2,0.2,0.25,-35.0,1,0.0,0.18029999999976098
327,2,0.2,0.25,35.0,-1,0.0,0.18069999999988795
328,2,0.2,0.0625,35.0,1,1.0,0.36550000000011096
329,2,0.2,0.0625,35.0,1,1.0,0.4775999999999385
330,2,0.2,0.0625,35.0,1,1.0,0.3794000000000324
331,2,0.2,0.125,35.0,1,1.0,0.3910009999999602
332,2,0.2,0.0625,-35.0,1,0.0,0.4234009999997852
333,2,0.2,0.125,-35.0,-1,1.0,0.35140099999989616
334,2,0.2,1.0,35.0,1,1.0,0.36760000000003856
335,2,0.2,0.125,35.0,-1,0.0,1.9347999999999956
336,2,0.2,0.0,35.0,1,1.0,3.383100000000013
337,2,0.2,0.0625,35.0,1,1.0,0.5917010000000573
338,2,0.2,0.25,-35.0,-1,1.0,0.24330099999974664
339,2,0.2,0.125,35.0,1,1.0,0.47509999999988395
340,2,0.2,0.0,35.0,1,1.0,10.886500999999953
341,2,0.2,1.0,35.0,1,1.0,0.3556999999998425
342,2,0.2,1.0,35.0,1,1.0,0.2907999999997628
343,2,0.2,0.25,35.0,1,1.0,0.3259009999999307
344,2,0.2,0.0625,35.0,1,1.0,0.3811009999999442
345,2,0.2,0.25,35.0,1,1.0,0.4227010000001883
346,2,0.2,0.25,35.0,1,1.0,0.2979009999999107
347,2,0.2,0.0,35.0,-1,0.0,0.1329009999999471
348,2,0.2,0.125,35.0,1,1.0,0.8809009999999944
349,2,0.2,0.0,-35.0,1,0.0,0.36619999999993524
350,2,0.2,0.0625,35.0,1,1.0,0.4574999999999818
351,2,0.8,0.25,-35.0,-1,1.0,1.1899000000000797
352,2,0.8,0.125,35.0,1,1.0,0.32539999999994507
353,2,0.8,0.0625,-35.0,-1,1.0,0.8669999999999618
354,2,0.8,0.125,-35.0,-1,1.0,0.5420000000001437
355,2,0.8,1.0,-35.0,-1,1.0,0.3470999999997275
356,2,0.8,0.125,-35.0,-1,1.0,0.47910000000001673
357,2,0.8,0.0625,35.0,1,1.0,0.37380000000007385
358,2,0.8,0.0625,-35.0,-1,1.0,0.2821000000001277
359,2,0.8,0.25,-35.0,-1,1.0,0.22059999999987667
360,2,0.8,0.125,-35.0,-1,1.0,0.27870000000007167
361,2,0.8,0.25,-35.0,-1,1.0,0.20750100000009297
362,2,0.8,0.0,-35.0,-1,1.0,0.2602009999998245
363,2,0.8,1.0,-35.0,-1,1.0,0.32750000000010004
364,2,0.8,0.125,-35.0,-1,1.0,0.3692000000000917
365,2,0.8,0.0,-35.0,-1,1.0,0.37120099999992817
366,2,0.8,0.0625,-35.0,-1,1.0,0.13580100000012862
367,2,0.8,0.0625,-35.0,-1,1.0,0.29789999999979955
368,2,0.8,0.125,-35.0,-1,1.0,0.33589999999981046
369,2,0.8,0.0625,-35.0,-1,1.0,0.26490099999978156
370,2,0.8,0.125,-35.0,-1,1.0,0.226399999999785
371,2,0.8,0.125,-35.0,-1,1.0,0.2682999999999538
372,2,0.8,0.0625,-35.0,-1,1.0,0.2964009999998325
373,2,0.8,0.25,-35.0,-1,1.0,0.2718999999999596
374,2,0.8,0.125,-35.0,-1,1.0,0.3266009999999824
375,2,0.8,0.125,-35.0,-1,1.0,0.3853999999998905
376,2,0.8,0.125,-35.0,-1,1.0,0.3268000000000484
377,2,0.8,0.0,-35.0,-1,1.0,0.5032999999998538
378,2,0.8,1.0,-35.0,-1,1.0,0.23550000000000182
379,2,0.8,0.0,35.0,-1,0.0,0.1835999999998421
380,2,0.8,0.125,35.0,1,1.0,0.40240099999982704
381,2,0.8,0.0,35.0,-1,0.0,0.3806009999998423
382,2,0.8,0.0,-35.0,-1,1.0,0.29919999999992797
383,2,0.8,0.25,-35.0,-1,1.0,0.27719999999999345
384,2,0.8,0.25,-35.0,-1,1.0,0.30950000000007094
385,2,0.8,0.0,-35.0,-1,1.0,0.31750099999976555
386,2,0.8,0.25,-35.0,-1,1.0,0.24620000000004438
387,2,0.8,0.25,-35.0,-1,1.0,0.19269999999983156
388,2,0.8,0.125,-35.0,-1,1.0,0.2230010000000675
389,2,0.8,1.0,35.0,1,1.0,0.3746000000001004
390,2,0.8,0.125,-35.0,-1,1.0,0.35669999999981883
391,2,0.8,0.125,-35.0,-1,1.0,0.13460099999974773
392,2,0.8,0.125,-35.0,-1,1.0,0.5300010000000839
393,2,0.8,0.0,35.0,-1,0.0,0.3412999999998192
394,2,0.8,1.0,-35.0,-1,1.0,0.30380099999979393
395,2,0.8,1.0,35.0,1,1.0,0.29980000000000473
396,2,0.8,0.125,-35.0,-1,1.0,0.23710099999971135
397,2,0.8,0.0,-35.0,-1,1.0,0.3388999999999669
398,2,0.8,1.0,-35.0,-1,1.0,0.3139009999999871
399,2,0.8,1.0,-35.0,-1,1.0,0.19200000000000728
400,2,0.8,1.0,-35.0,-1,1.0,0.2075009999998656
401,2,0.8,0.125,-35.0,-1,1.0,0.19200000000000728
402,2,0.8,0.25,35.0,1,1.0,0.4641999999998916
403,2,0.8,0.125,35.0,1,1.0,0.43390100000010534
404,2,0.8,0.25,-35.0,-1,1.0,0.22469999999998436
405,2,0.8,0.0625,-35.0,-1,1.0,0.2617999999999938
406,2,0.8,1.0,-35.0,-1,1.0,0.2647999999996955
407,2,0.8,0.0,-35.0,-1,1.0,0.4640999999999167
408,2,0.2,0.125,35.0,1,1.0,0.45820000000003347
409,2,0.2,0.0,-35.0,-1,1.0,0.41419999999993706
410,2,0.2,0.25,35.0,-1,0.0,0.4152010000000246
411,2,0.2,0.125,35.0,1,1.0,0.46670099999982995
412,2,0.2,0.0625,35.0,1,1.0,8.108400999999958
413,2,0.2,0.25,35.0,1,1.0,0.2938010000000304
414,2,0.2,0.125,-35.0,-1,1.0,2.695499999999811
415,2,0.2,0.0625,35.0,-1,0.0,0.30140099999994163
416,2,0.2,0.0625,35.0,1,1.0,0.48240000000009786
417,2,0.2,1.0,35.0,1,1.0,0.30730099999982485
418,2,0.2,1.0,-35.0,-1,1.0,0.11590000000001055
419,2,0.2,0.125,35.0,1,1.0,0.414400999999998
420,2,0.2,0.0625,35.0,1,1.0,0.559400000000096
421,2,0.2,0.0625,35.0,-1,0.0,0.23849999999993088
422,2,0.2,0.25,35.0,1,1.0,0.5063999999997577
423,2,0.2,0.125,35.0,1,1.0,0.38439999999991414
424,2,0.2,0.25,35.0,1,1.0,0.4932000000001153
425,2,0.2,0.0,35.0,-1,0.0,0.27769999999986794
426,2,0.2,0.0625,35.0,1,1.0,0.3834999999999127
427,2,0.2,0.25,35.0,1,1.0,0.2985000000001037
428,2,0.2,0.125,35.0,1,1.0,0.3635999999999058
429,2,0.2,0.0625,-35.0,1,0.0,7.516300999999885
430,2,0.2,0.0625,35.0,1,1.0,0.5839999999998327
431,2,0.2,0.125,35.0,1,1.0,0.37570099999993545
432,2,0.2,0.125,35.0,-1,0.0,2.1175000000000637
433,2,0.2,0.125,35.0,1,1.0,0.4428009999999176
434,2,0.2,0.0625,-35.0,-1,1.0,0.23440099999993436
435,2,0.2,0.0,35.0,1,1.0,0.34979999999995925
436,2,0.8,0.0625,-35.0,-1,1.0,0.27769999999986794
437,2,0.8,0.0,-35.0,-1,1.0,0.1793999999999869
438,2,0.8,0.25,-35.0,-1,1.0,0.24470099999984996
439,2,0.8,1.0,-35.0,-1,1.0,0.3930009999999129
440,2,0.8,0.125,-35.0,-1,1.0,4.424900999999863
441,2,0.8,0.25,-35.0,-1,1.0,0.2279999999998381
442,2,0.8,0.0625,-35.0,-1,1.0,0.27500000000009095
443,2,0.8,1.0,-35.0,-1,1.0,0.4170009999998001
444,2,0.8,1.0,-35.0,-1,1.0,0.22189999999977772
445,2,0.8,0.125,-35.0,-1,1.0,0.9149999999997362
446,2,0.8,1.0,35.0,-1,0.0,0.27900099999988015
447,2,0.8,1.0,-35.0,-1,1.0,0.2780009999999038
448,2,0.8,1.0,35.0,1,1.0,0.312300999999934
449,2,0.8,0.125,35.0,1,1.0,1.4071000000001277
450,2,0.8,0.25,35.0,1,1.0,0.4092000000000553
451,2,0.8,1.0,-35.0,-1,1.0,0.2501999999999498
452,2,0.8,0.0625,-35.0,-1,1.0,0.4193000000000211
453,2,0.8,0.25,-35.0,-1,1.0,0.4212009999998827
454,2,0.8,0.25,-35.0,-1,1.0,0.21950100000003658
455,2,0.8,1.0,-35.0,-1,1.0,0.228099999999813
456,2,0.8,0.25,-35.0,-1,1.0,0.25969999999983884
457,2,0.8,0.125,-35.0,-1,1.0,0.2442999999998392
458,2,0.8,0.0,-35.0,-1,1.0,0.1732999999999265
459,2,0.2,0.125,35.0,1,1.0,0.32789999999977226
460,2,0.2,0.0,35.0,-1,0.0,1.4464999999997872
461,2,0.2,1.0,-35.0,-1,1.0,0.2879009999999198
462,2,0.2,0.0625,-35.0,1,0.0,0.3833999999997104
463,2,0.2,0.0,35.0,-1,0.0,0.36209999999982756
464,2,0.2,0.25,35.0,1,1.0,0.4074999999997999
465,2,0.2,0.0,35.0,-1,0.0,0.3020010000000184
466,2,0.2,1.0,35.0,1,1.0,0.3805009999998674
467,2,0.2,0.125,35.0,1,1.0,0.4352999999998701
468,2,0.2,0.0,35.0,1,1.0,0.4341999999999189
469,2,0.2,0.0625,35.0,1,1.0,0.41350099999999657
470,2,0.2,0.0,35.0,-1,0.0,0.434099999999944
471,2,0.2,0.125,35.0,1,1.0,0.3265999999998712
472,2,0.2,0.0,-35.0,-1,1.0,4.174600999999711
473,2,0.2,0.0625,35.0,1,1.0,0.38269999999988613
474,2,0.2,0.0625,35.0,1,1.0,2.2348010000000613
475,2,0.2,0.125,35.0,1,1.0,0.5226000000002387
476,2,0.2,0.25,-35.0,1,0.0,0.5518000000001848
477,2,0.2,0.25,35.0,1,1.0,0.3667009999999209
478,2,0.2,0.0,35.0,1,1.0,0.3853010000007089
479,2,0.2,1.0,35.0,1,1.0,0.3166000000001077
480,2,0.2,0.25,35.0,1,1.0,1.972099999999955
481,2,0.2,0.125,35.0,1,1.0,0.32680000000027576
482,2,0.2,0.0,35.0,1,1.0,0.24579999999969004
483,2,0.2,0.0625,35.0,1,1.0,0.5570000000002437
484,2,0.2,0.0,-35.0,1,0.0,4.479100000000017
485,2,0.2,0.125,35.0,-1,0.0,5.3583010000002105
486,2,0.2,0.0625,35.0,1,1.0,2.2661010000001625
487,2,0.2,0.125,35.0,1,1.0,0.511000000000422
488,2,0.2,0.0625,35.0,1,1.0,6.470002000000022
489,2,0.2,1.0,35.0,1,1.0,0.2961020000007011
490,2,0.2,0.25,-35.0,1,0.0,0.3034010000001217
491,2,0.2,1.0,35.0,1,1.0,0.35610200000019177
492,2,0.2,0.0625,35.0,-1,0.0,0.1503020000000106
493,2,0.2,0.0625,35.0,1,1.0,0.3750009999998838
494,2,0.2,0.25,-35.0,1,0.0,4.520301000000018
495,2,0.2,0.0625,35.0,1,1.0,0.3263010000000577
496,2,0.2,0.0,35.0,-1,0.0,0.2108010000001741
497,2,0.2,0.25,35.0,1,1.0,0.369300999999723
498,2,0.2,0.25,35.0,1,1.0,0.34420200000022305
499,2,0.2,1.0,35.0,1,1.0,0.3593010000004142
500,2,0.2,0.0,-35.0,1,0.0,1.224301000000196
501,2,0.2,0.125,35.0,1,1.0,0.3797020000001794
502,2,0.2,0.0625,35.0,-1,0.0,0.12450100000023667
503,2,0.2,0.125,-35.0,-1,1.0,0.4260020000001532
504,2,0.2,1.0,35.0,1,1.0,0.45480200000019977
505,2,0.2,0.0,35.0,1,1.0,4.399701000000277
506,2,0.2,1.0,35.0,1,1.0,0.4549019999999473
507,2,0.2,0.25,35.0,1,1.0,0.21960100000023886
508,2,0.2,0.25,35.0,1,1.0,0.4384020000002238
509,2,0.2,0.0625,35.0,1,1.0,0.3601010000002134
510,2,0.2,0.0,35.0,1,1.0,6.485501000000113
511,2,0.2,0.25,35.0,1,1.0,0.29710200000045006
512,2,0.2,0.0625,35.0,1,1.0,0.31260100000008606
513,2,0.2,0.0,35.0,1,1.0,0.4776020000003882
514,2,0.2,1.0,-35.0,-1,1.0,5.709401000000071
515,2,0.2,0.0,35.0,-1,0.0,0.27880099999993035
516,2,0.2,1.0,35.0,1,1.0,0.3397020000006705
517,2,0.2,0.125,-35.0,-1,1.0,0.2211010000000897
518,2,0.2,1.0,35.0,-1,0.0,0.2798020000004726
519,2,0.2,0.0625,-35.0,-1,1.0,1.4549010000000635
520,2,0.2,0.125,-35.0,-1,1.0,0.4034010000004855
521,2,0.2,0.0625,35.0,-1,0.0,0.33490100000017264
522,2,0.2,0.25,35.0,1,1.0,0.21370100000012826
523,2,0.2,0.125,35.0,1,1.0,0.3082009999998263
524,2,0.2,0.0625,35.0,1,1.0,0.3640010000003713
525,2,0.2,0.25,35.0,1,1.0,0.4122010000000955
526,2,0.2,0.25,35.0,1,1.0,0.3004009999999653
527,2,0.2,0.125,35.0,1,1.0,0.3918020000000979
528,2,0.2,0.125,35.0,1,1.0,0.3306010000005699
529,2,0.2,1.0,35.0,1,1.0,0.3161009999998896
530,2,0.2,0.125,-35.0,-1,1.0,0.21730100000013408
531,2,0.2,1.0,-35.0,-1,1.0,0.2201020000002245
532,2,0.2,0.125,35.0,1,1.0,0.4809010000003582
533,2,0.2,1.0,35.0,1,1.0,0.3323019999997996
534,2,0.2,0.0625,35.0,1,1.0,0.5444020000004457
535,2,0.2,0.0,35.0,1,1.0,0.47420099999999366
536,2,0.8,0.125,-35.0,-1,1.0,0.3346010000004753
537,2,0.8,0.0,-35.0,-1,1.0,0.5001010000005408
538,2,0.8,0.25,-35.0,-1,1.0,0.3880010000002585
539,2,0.8,0.0625,-35.0,-1,1.0,0.19620200000053956
540,2,0.8,0.125,35.0,1,1.0,0.5418010000003051
541,2,0.8,0.0,35.0,-1,0.0,0.370202000000063
542,2,0.8,1.0,-35.0,-1,1.0,0.22850199999993492
543,2,0.8,0.125,-35.0,-1,1.0,0.31430100000034145
544,2,0.8,0.0625,-35.0,-1,1.0,1.4855019999999968
545,2,0.8,0.25,-35.0,-1,1.0,0.44660200000043915
546,2,0.8,0.25,-35.0,-1,1.0,0.3255020000001423
547,2,0.8,0.125,-35.0,-1,1.0,0.2573019999999815
548,2,0.8,1.0,-35.0,-1,1.0,0.15560099999993326
549,2,0.8,1.0,-35.0,-1,1.0,0.23050200000034238
550,2,0.8,0.25,-35.0,-1,1.0,0.38580099999990125
551,2,0.8,0.125,35.0,1,1.0,0.3207009999996444
552,2,0.8,0.0625,35.0,-1,0.0,0.3160010000001421
553,2,0.8,1.0,-35.0,-1,1.0,0.21750199999996767
554,2,0.8,0.0625,-35.0,-1,1.0,4.799501000000419
555,2,0.8,0.125,-35.0,-1,1.0,0.22150200000032783
556,2,0.8,0.25,-35.0,-1,1.0,0.30660100000022794
557,2,0.8,0.125,-35.0,-1,1.0,0.3956010000006245
558,2,0.8,1.0,35.0,1,1.0,0.33000200000014956
559,2,0.8,0.0625,-35.0,-1,1.0,0.30840200000011464
560,2,0.8,0.0625,35.0,1,1.0,0.3236019999999371
561,2,0.8,0.0625,-35.0,1,0.0,1.8818010000004506
562,2,0.8,0.25,35.0,1,1.0,0.46050200000036057
563,2,0.8,1.0,-35.0,-1,1.0,0.4056020000002718
564,2,0.8,0.0,-35.0,-1,1.0,0.45380199999999604
565,2,0.8,1.0,-35.0,-1,1.0,0.2218020000004799
566,2,0.8,0.0625,-35.0,-1,1.0,0.41740100000015445
567,2,0.8,0.0625,-35.0,-1,1.0,0.2588020000002871
568,2,0.8,0.0,-35.0,1,0.0,12.71780200000012
569,2,0.8,0.0625,-35.0,-1,1.0,0.26590200000009645
570,2,0.8,0.125,-35.0,-1,1.0,0.29480100000000675
571,2,0.8,0.125,-35.0,1,0.0,0.08690100000012535
572,2,0.8,0.0625,35.0,1,1.0,0.9116010000002461
573,2,0.8,0.125,-35.0,-1,1.0,0.09320200000001932
574,2,0.8,0.0,-35.0,-1,1.0,0.27200200000015684
575,2,0.8,1.0,-35.0,-1,1.0,0.21430099999997765
576,2,0.8,0.25,-35.0,-1,1.0,0.2588010000004033
577,2,0.8,0.0,-35.0,-1,1.0,0.41010099999994054
578,2,0.8,0.0625,-35.0,1,0.0,0.8656009999999696
579,2,0.8,0.125,-35.0,-1,1.0,3.633401000000049
580,2,0.8,0.0,35.0,-1,0.0,0.4058020000002216
581,2,0.8,0.0,-35.0,1,0.0,0.49420099999997547
582,2,0.8,1.0,-35.0,-1,1.0,0.3392020000001139
583,2,0.8,1.0,-35.0,-1,1.0,0.23730199999999968
584,2,0.8,0.125,-35.0,1,0.0,0.5827010000002701
585,2,0.8,0.0,-35.0,1,0.0,7.1183020000003125
586,2,0.8,0.0625,-35.0,1,0.0,0.36340199999995093
587,2,0.8,0.125,-35.0,-1,1.0,0.36060200000019904
588,2,0.8,1.0,-35.0,-1,1.0,0.2766020000003664
589,2,0.8,0.0,35.0,-1,0.0,0.3984020000007149
590,2,0.8,1.0,-35.0,-1,1.0,0.31040200000006735
591,2,0.8,0.0,-35.0,-1,1.0,7.625102000000425
592,2,0.8,1.0,-35.0,-1,1.0,0.26710200000025
593,2,0.8,0.0625,-35.0,-1,1.0,0.415501000000404
594,2,0.8,0.125,35.0,1,1.0,0.4139020000002347
595,2,0.8,0.0,35.0,-1,0.0,3.493601000000126
596,2,0.8,0.25,-35.0,-1,1.0,0.28780100000039965
597,2,0.8,0.0,-35.0,1,0.0,0.576600999999755
598,2,0.8,0.0625,-35.0,-1,1.0,0.32790100000056555
599,2,0.8,0.0,-35.0,-1,1.0,3.3096009999999296
600,2,0.8,0.125,-35.0,-1,1.0,0.2747010000002774
601,2,0.8,0.0625,-35.0,1,0.0,0.5495009999999638
602,2,0.8,0.0625,-35.0,-1,1.0,3.545002000000295
603,2,0.8,0.0625,35.0,-1,0.0,3.873301000000083
604,2,0.8,0.0,35.0,-1,0.0,6.382002000000284
605,2,0.8,0.125,-35.0,1,0.0,4.069700999999895
606,2,0.8,0.25,-35.0,-1,1.0,1.5824020000000019
607,2,0.8,0.25,-35.0,-1,1.0,1.0870010000003276
608,2,0.8,0.0,-35.0,-1,1.0,0.6827020000005177
609,2,0.8,0.0625,-35.0,-1,1.0,3.857402000000093
610,2,0.8,0.0,-35.0,-1,1.0,2.116201000000274
611,2,0.8,0.0625,-35.0,-1,1.0,4.104401000000053
612,2,0.8,0.25,-35.0,-1,1.0,0.2666009999998096
613,2,0.8,0.25,-35.0,-1,1.0,4.207401000000118
614,2,0.8,0.25,-35.0,-1,1.0,0.5536010000000715
615,2,0.8,0.125,-35.0,-1,1.0,0.26830100000006496
616,2,0.8,0.125,-35.0,-1,1.0,0.6071020000003955
617,2,0.8,0.25,-35.0,-1,1.0,0.3931020000004537
618,2,0.2,0.125,35.0,1,1.0,0.670502000000397
619,2,0.2,0.0625,-35.0,-1,1.0,0.26890099999991435
620,2,0.2,0.0625,35.0,-1,0.0,2.4742010000004484
621,2,0.2,0.125,35.0,1,1.0,0.33600099999966915
622,2,0.2,1.0,35.0,1,1.0,0.4576020000004064
623,2,0.2,0.0625,35.0,1,1.0,0.5205009999999675
624,2,0.2,1.0,-35.0,-1,1.0,1.1578020000001743
625,2,0.2,0.125,-35.0,-1,1.0,0.5764009999998052
626,2,0.2,0.0625,35.0,-1,0.0,0.29810200000019904
627,2,0.2,0.125,-35.0,1,0.0,0.21160200000031182
628,2,0.2,0.125,35.0,1,1.0,0.3968019999997523
629,2,0.2,1.0,35.0,1,1.0,0.40860100000054445
630,2,0.2,1.0,35.0,1,1.0,0.2997019999997974
631,2,0.2,0.125,35.0,1,1.0,4.765701000000263
632,2,0.2,0.25,35.0,1,1.0,0.3607020000004013
633,2,0.2,0.0625,-35.0,-1,1.0,0.3124009999996815
634,2,0.2,0.0625,35.0,-1,0.0,0.1841010000002825
635,2,0.2,0.0625,-35.0,-1,1.0,0.4523020000001452
636,2,0.2,1.0,35.0,1,1.0,0.3238010000000031
637,2,0.2,0.0,35.0,1,1.0,0.34580099999993763
638,2,0.8,0.125,-35.0,-1,1.0,0.22400100000004386
639,2,0.8,1.0,-35.0,-1,1.0,0.2793010000000322
640,2,0.8,1.0,-35.0,-1,1.0,0.41790200000059485
641,2,0.8,0.0,-35.0,-1,1.0,0.12650099999973463
642,2,0.8,0.0,-35.0,-1,1.0,0.40590100000008533
643,2,0.8,0.0625,-35.0,-1,1.0,0.3599010000002636
644,2,0.8,1.0,-35.0,-1,1.0,0.25180200000022523
645,2,0.8,0.0625,35.0,1,1.0,0.5266020000003664
646,2,0.8,0.0625,-35.0,-1,1.0,0.24150100000042585
647,2,0.8,0.0625,35.0,-1,0.0,0.3801010000001952
648,2,0.8,0.125,-35.0,-1,1.0,0.6989010000002054
649,2,0.8,0.0625,-35.0,-1,1.0,0.27700099999992744
650,2,0.8,1.0,-35.0,-1,1.0,0.2660009999999602
651,2,0.8,0.125,-35.0,-1,1.0,0.39400199999954566
652,2,0.8,0.125,-35.0,-1,1.0,0.37190200000031837
653,2,0.8,0.0,-35.0,-1,1.0,1.4572020000005068
654,2,0.8,0.0,35.0,-1,0.0,0.41910200000029363
655,2,0.8,0.25,35.0,1,1.0,1.470702000000074
656,2,0.8,0.0625,35.0,-1,0.0,2.619901000000027
657,2,0.8,1.0,-35.0,-1,1.0,0.2712010000000191
658,2,0.8,0.125,-35.0,-1,1.0,0.18320100000028106
659,2,0.8,1.0,-35.0,-1,1.0,0.5313020000003235
660,2,0.8,0.0625,-35.0,-1,1.0,0.530301000000236
661,2,0.8,0.0625,-35.0,-1,1.0,4.701202000000194
662,2,0.8,0.0625,-35.0,-1,1.0,0.3973010000004251
663,2,0.8,0.0625,-35.0,-1,1.0,0.2417009999999209
664,2,0.8,0.0625,-35.0,-1,1.0,0.4298020000001088
665,2,0.2,0.0,35.0,-1,0.0,5.991802000000007
666,2,0.2,0.0625,35.0,1,1.0,0.5344010000003436
667,2,0.2,1.0,35.0,1,1.0,0.392301000000316
668,2,0.2,0.125,35.0,1,1.0,0.44350100000019665
669,2,0.2,0.0625,-35.0,1,0.0,0.3857020000000375
670,2,0.2,0.0,-35.0,-1,1.0,0.6399019999998927
671,2,0.2,0.25,35.0,1,1.0,0.3192010000002483
672,2,0.2,0.0,35.0,-1,0.0,0.6045010000002549
673,2,0.2,0.0625,-35.0,-1,1.0,0.432702000000063
674,2,0.2,1.0,35.0,1,1.0,0.30090100000006714
675,2,0.2,0.25,35.0,1,1.0,0.38630200000034165
676,2,0.2,0.0625,-35.0,1,0.0,0.8372009999998227
677,2,0.2,0.0625,-35.0,-1,1.0,0.31340199999976903
678,2,0.2,0.0625,-35.0,-1,1.0,7.828202000000147
679,2,0.2,0.25,35.0,1,1.0,0.29370200000039404
680,2,0.2,0.0625,35.0,1,1.0,0.4849020000001474
681,2,0.2,0.0,-35.0,1,0.0,0.5506010000003698
682,2,0.2,1.0,35.0,1,1.0,0.3813020000002325
683,2,0.2,1.0,35.0,1,1.0,0.39410199999974793
684,2,0.2,0.0,35.0,-1,0.0,0.35550100000000384
685,2,0.2,1.0,35.0,1,1.0,0.31410200000027544
686,2,0.2,0.125,-35.0,-1,1.0,0.31990200000018376
687,2,0.2,0.0625,35.0,1,1.0,0.5510010000002694
688,2,0.2,1.0,35.0,1,1.0,0.3861010000000533
689,2,0.2,0.25,-35.0,-1,1.0,0.3345009999998183
690,2,0.2,1.0,35.0,1,1.0,0.41000100000064776
691,2,0.2,0.0,35.0,1,1.0,0.40120200000001205
692,2,0.2,0.0625,35.0,1,1.0,6.026000999999724
693,2,0.2,0.0,35.0,1,1.0,0.6383010000004106
694,2,0.2,0.0625,35.0,1,1.0,17.394102000000203
695,2,0.2,1.0,35.0,1,1.0,0.7292019999999866
1,3,0.5,0.125,35.0,1,1.0,1.0144999999999995
2,3,0.5,0.125,35.0,1,1.0,0.3969010000000006
3,3,0.5,0.25,-35.0,-1,1.0,0.7228999999999992
4,3,0.5,0.125,35.0,1,1.0,0.3484009999999991
5,3,0.5,1.0,-35.0,-1,1.0,0.47610000000000063
6,3,0.5,0.0625,35.0,1,1.0,4.879600999999997
7,3,0.5,0.25,35.0,1,1.0,0.3271000000000015
8,3,0.5,0.0,35.0,1,1.0,1.0890999999999984
9,3,0.5,0.0,35.0,-1,0.0,0.3196010000000058
10,3,0.5,0.125,35.0,1,1.0,3.055500000000002
11,3,0.5,0.0,-35.0,1,0.0,0.3604000000000056
12,3,0.5,1.0,-35.0,-1,1.0,0.3443010000000015
13,3,0.5,0.125,-35.0,-1,1.0,0.2917010000000104
14,3,0.5,1.0,-35.0,-1,1.0,0.23469999999999658
15,3,0.5,0.0625,-35.0,-1,1.0,0.09810099999999977
16,3,0.5,1.0,-35.0,-1,1.0,0.19350000000000023
17,3,0.5,0.0,-35.0,-1,1.0,1.6796999999999969
18,3,0.5,0.0625,-35.0,-1,1.0,1.734800000000007
19,3,0.5,0.0625,35.0,-1,0.0,2.622601000000003
20,3,0.5,1.0,-35.0,-1,1.0,0.24380100000000482
21,3,0.5,0.25,-35.0,-1,1.0,0.2086010000000016
22,3,0.5,1.0,35.0,1,1.0,0.27540000000001896
23,3,0.5,0.25,-35.0,-1,1.0,1.8555999999999955
24,3,0.5,0.0625,-35.0,1,0.0,0.34330099999999675
25,3,0.5,0.0625,-35.0,-1,1.0,0.34150100000000805
26,3,0.5,1.0,-35.0,-1,1.0,0.20570000000002153
27,3,0.5,0.125,35.0,1,1.0,0.371500999999995
28,3,0.5,0.25,35.0,-1,0.0,3.2100010000000054
29,3,0.5,1.0,-35.0,-1,1.0,0.2186010000000067
30,3,0.5,0.0625,-35.0,-1,1.0,0.25500099999999293
31,3,0.5,0.25,-35.0,1,0.0,3.8337009999999907
32,3,0.5,0.0625,35.0,-1,0.0,0.22769999999999868
33,3,0.5,0.0625,-35.0,-1,1.0,0.2464999999999975
34,3,0.5,0.25,-35.0,-1,1.0,2.0097999999999843
35,3,0.5,0.125,-35.0,-1,1.0,0.24629999999999086
36,3,0.5,0.25,-35.0,-1,1.0,1.7587999999999795
37,3,0.5,0.25,35.0,-1,0.0,0.08240000000000691
38,3,0.5,1.0,-35.0,-1,1.0,0.37479999999999336
39,3,0.5,0.0,-35.0,-1,1.0,0.32700099999999566
40,3,0.5,1.0,35.0,-1,0.0,2.1358009999999865
41,3,0.5,0.25,-35.0,-1,1.0,0.3700009999999736
42,3,0.5,0.125,35.0,-1,0.0,0.08230099999997265
43,3,0.5,0.0625,-35.0,-1,1.0,0.43240000000000123
44,3,0.5,0.25,35.0,-1,0.0,0.42809999999997217
45,3,0.5,1.0,35.0,1,1.0,0.3069009999999821
46,3,0.5,0.25,-35.0,-1,1.0,0.203899999999976
47,3,0.5,0.125,-35.0,-1,1.0,5.627199999999988
48,3,0.5,0.0,-35.0,-1,1.0,0.16209999999998104
49,3,0.5,0.25,-35.0,-1,1.0,0.2500999999999749
50,3,0.5,0.25,35.0,-1,0.0,1.3920009999999934
51,3,0.5,0.125,35.0,-1,0.0,0.23750099999998042
52,3,0.5,0.125,35.0,1,1.0,0.38409999999998945
53,3,0.5,0.25,-35.0,-1,1.0,0.1928010000000029
54,3,0.5,0.0625,35.0,1,1.0,0.5184999999999604
55,3,0.5,0.25,35.0,1,1.0,0.6881010000000174
56,3,0.5,0.25,35.0,1,1.0,0.27850099999997724
57,3,0.5,1.0,35.0,1,1.0,0.2670009999999934
58,3,0.5,0.25,-35.0,-1,1.0,0.2998010000000022
59,3,0.5,0.25,-35.0,-1,1.0,0.21929999999997563
60,3,0.5,0.125,35.0,1,1.0,0.5232999999999777
61,3,0.5,0.25,-35.0,-1,1.0,2.6406000000000063
62,3,0.5,0.25,-35.0,-1,1.0,0.30670000000003483
63,3,0.5,0.125,-35.0,-1,1.0,0.2062010000000214
64,3,0.5,0.0625,35.0,1,1.0,1.0850000000000364
65,3,0.5,1.0,35.0,1,1.0,0.30760100000003376
66,3,0.5,1.0,35.0,1,1.0,0.29939999999999145
67,3,0.5,0.0,-35.0,1,0.0,0.3307010000000332
68,3,0.5,0.0,-35.0,1,0.0,0.2679000000000542
69,3,0.5,0.0,-35.0,-1,1.0,1.308400000000006
70,3,0.5,0.125,-35.0,-1,1.0,3.081100000000049
71,3,0.5,0.125,-35.0,-1,1.0,0.5285000000000082
72,3,0.5,0.25,-35.0,-1,1.0,0.38590099999998984
73,3,0.5,0.0,-35.0,-1,1.0,0.36950000000001637
74,3,0.5,0.25,35.0,-1,0.0,3.9752000000000294
75,3,0.5,0.25,-35.0,-1,1.0,0.220799999999997
76,3,0.5,1.0,-35.0,-1,1.0,0.22370100000000548
77,3,0.5,0.25,-35.0,-1,1.0,0.2615999999999872
78,3,0.5,0.0625,-35.0,-1,1.0,0.44260100000002467
79,3,0.5,0.0625,-35.0,-1,1.0,0.2886010000000283
80,3,0.5,0.0625,35.0,1,1.0,0.35960000000000036
81,3,0.5,0.0,-35.0,-1,1.0,1.1827000000000112
82,3,0.5,0.0,35.0,1,1.0,0.2917009999999891
83,3,0.5,0.125,-35.0,-1,1.0,0.1707010000000082
84,3,0.5,0.0625,-35.0,-1,1.0,0.23070100000001048
85,3,0.5,0.0,35.0,1,1.0,0.35969999999997526
86,3,0.5,0.0625,-35.0,1,0.0,0.9108009999999922
87,3,0.5,1.0,-35.0,1,0.0,0.6459000000000401
88,3,0.5,0.0,35.0,1,1.0,3.5341000000000236
89,3,0.5,0.125,35.0,1,1.0,0.41259999999999764
90,3,0.5,0.25,-35.0,1,0.0,3.1148000000000025
91,3,0.2,0.0,35.0,1,1.0,2.587701000000038
92,3,0.2,0.25,35.0,1,1.0,0.40100100000000793
93,3,0.2,0.0625,35.0,1,1.0,1.2419010000000412
94,3,0.2,1.0,-35.0,-1,1.0,0.449100000000044
95,3,0.2,0.0625,35.0,1,1.0,0.28759999999999764
96,3,0.2,0.125,35.0,1,1.0,0.27940000000000964
97,3,0.2,1.0,35.0,1,1.0,0.30190099999998665
98,3,0.2,0.125,-35.0,-1,1.0,0.29829999999998336
99,3,0.2,0.125,-35.0,-1,1.0,0.2840009999999893
100,3,0.2,0.0,35.0,1,1.0,0.34489999999999554
101,3,0.2,0.0625,-35.0,-1,1.0,0.2630010000000311
102,3,0.2,0.0,35.0,-1,0.0,0.1342000000000212
103,3,0.2,0.25,35.0,1,1.0,2.0211010000000442
104,3,0.2,0.25,35.0,1,1.0,0.3367000000000644
105,3,0.2,0.0625,35.0,1,1.0,0.3161000000000058
106,3,0.2,0.25,-35.0,-1,1.0,0.45040000000005875
107,3,0.2,0.125,35.0,-1,0.0,3.0335000000000605
108,3,0.2,0.125,35.0,1,1.0,0.429800000000057
109,3,0.2,1.0,35.0,1,1.0,0.2752010000000382
110,3,0.2,0.25,35.0,1,1.0,0.33180099999998447
111,3,0.2,1.0,35.0,1,1.0,0.25420000000002574
112,3,0.2,1.0,35.0,1,1.0,0.28319999999996526
113,3,0.2,0.0,35.0,-1,0.0,3.05619999999999
114,3,0.2,0.125,35.0,1,1.0,0.5305999999999926
115,3,0.2,0.25,-35.0,-1,1.0,0.2803000000000111
116,3,0.2,1.0,35.0,1,1.0,0.31470100000001366
117,3,0.2,0.25,35.0,1,1.0,0.3132999999999697
118,3,0.2,0.125,35.0,-1,0.0,0.2103010000000154
119,3,0.2,1.0,35.0,1,1.0,0.2804010000000403
120,3,0.2,0.25,-35.0,-1,1.0,0.26380100000000084
121,3,0.2,0.0625,35.0,-1,0.0,2.3903999999999996
122,3,0.2,1.0,35.0,1,1.0,0.3310000000000173
123,3,0.2,0.0,35.0,1,1.0,0.17670000000003938
124,3,0.2,0.125,35.0,1,1.0,0.1941009999999892
125,3,0.2,0.0625,35.0,1,1.0,0.3036000000000172
126,3,0.2,0.0,35.0,1,1.0,1.1057010000000673
127,3,0.2,0.0,35.0,1,1.0,0.28769999999997253
128,3,0.2,0.25,35.0,1,1.0,0.36169999999992797
129,3,0.2,0.0625,35.0,1,1.0,1.4716009999999642
130,3,0.2,0.25,35.0,1,1.0,0.11169999999992797
131,3,0.2,1.0,35.0,1,1.0,0.3197010000000091
132,3,0.2,0.0625,35.0,1,1.0,0.2776010000000042
133,3,0.2,1.0,-35.0,-1,1.0,0.2357009999999491
134,3,0.2,0.0,35.0,1,1.0,0.35960099999988415
135,3,0.2,1.0,35.0,1,1.0,0.2998009999998885
136,3,0.2,0.0,-35.0,1,0.0,0.3471999999999298
137,3,0.2,0.0625,-35.0,-1,1.0,0.44449999999994816
138,3,0.2,0.0,35.0,1,1.0,5.987600000000043
139,3,0.2,0.0,35.0,-1,0.0,0.8669999999999618
140,3,0.2,1.0,35.0,1,1.0,3.9161009999999123
141,3,0.2,0.125,35.0,1,1.0,0.31940099999997074
142,3,0.2,0.0,35.0,1,1.0,3.582300000000032
143,3,0.8,1.0,-35.0,-1,1.0,0.3468999999998914
144,3,0.8,0.0,-35.0,1,0.0,3.724299999999971
145,3,0.8,0.25,35.0,1,1.0,0.2778999999999314
146,3,0.8,0.0625,35.0,-1,0.0,0.16030000000000655
147,3,0.8,1.0,-35.0,-1,1.0,0.3243999999999687
148,3,0.8,0.0625,-35.0,-1,1.0,0.29999999999984084
149,3,0.8,1.0,-35.0,-1,1.0,0.19640099999992344
150,3,0.8,0.25,35.0,1,1.0,0.29300100000000384
151,3,0.8,0.25,-35.0,-1,1.0,0.26240099999995437
152,3,0.8,0.0625,35.0,1,1.0,0.27509999999995216
153,3,0.8,1.0,-35.0,-1,1.0,0.22650099999987106
154,3,0.8,0.0625,-35.0,-1,1.0,0.21889999999996235
155,3,0.8,0.0,35.0,-1,0.0,0.49830099999996946
156,3,0.8,0.25,35.0,1,1.0,0.3027999999999338
157,3,0.8,0.0,-35.0,1,0.0,0.44820000000004256
158,3,0.8,0.25,-35.0,-1,1.0,0.45480099999986123
159,3,0.8,0.0625,-35.0,-1,1.0,0.32179999999993925
160,3,0.8,1.0,-35.0,-1,1.0,0.21709999999995944
161,3,0.8,0.0,-35.0,-1,1.0,6.5715999999999894
162,3,0.8,0.125,-35.0,-1,1.0,0.38620000000003074
163,3,0.8,0.0,-35.0,1,0.0,0.3101009999999178
164,3,0.8,0.0,-35.0,-1,1.0,6.452301000000034
165,3,0.8,0.25,-35.0,-1,1.0,0.18259999999997945
166,3,0.8,0.0,35.0,-1,0.0,0.29119999999988977
167,3,0.8,0.25,-35.0,-1,1.0,0.4514999999998963
168,3,0.8,0.25,-35.0,-1,1.0,0.4492999999999938
169,3,0.8,0.125,-35.0,-1,1.0,0.4500000000000455
170,3,0.8,1.0,-35.0,-1,1.0,0.23230000000000928
171,3,0.8,0.25,-35.0,-1,1.0,1.2830999999999904
172,3,0.8,0.0625,-35.0,-1,1.0,3.679200999999921
173,3,0.8,0.25,-35.0,-1,1.0,0.5570000000000164
174,3,0.8,0.0625,-35.0,-1,1.0,5.599399999999946
175,3,0.8,0.125,-35.0,-1,1.0,0.24699999999995725
176,3,0.8,0.0625,35.0,-1,0.0,0.1970010000000002
177,3,0.8,1.0,-35.0,-1,1.0,0.227600999999936
178,3,0.8,0.0625,-35.0,1,0.0,15.379700999999955
179,3,0.8,0.0,35.0,-1,0.0,4.055700999999999
180,3,0.8,0.125,-35.0,-1,1.0,0.282799999999952
181,3,0.8,0.125,35.0,1,1.0,0.37189999999986867
182,3,0.8,0.0625,-35.0,-1,1.0,0.39170000000001437
183,3,0.8,1.0,-35.0,-1,1.0,0.23029999999994288
184,3,0.8,0.125,-35.0,-1,1.0,3.4885009999999284
185,3,0.8,0.125,35.0,1,1.0,4.27130099999988
186,3,0.8,0.25,35.0,-1,0.0,0.1489009999999098
187,3,0.8,1.0,-35.0,-1,1.0,0.21299999999996544
188,3,0.8,0.25,-35.0,-1,1.0,0.27300100000002203
189,3,0.8,0.25,-35.0,-1,1.0,1.670300999999995
190,3,0.8,0.125,-35.0,-1,1.0,0.4266010000000051
191,3,0.8,0.125,-35.0,-1,1.0,0.34310099999993326
192,3,0.8,0.0625,-35.0,-1,1.0,0.9469000000000278
193,3,0.8,0.0,-35.0,-1,1.0,0.3908010000000104
194,3,0.8,0.0625,35.0,-1,0.0,0.5763999999999214
195,3,0.8,0.25,-35.0,-1,1.0,0.36330099999997856
196,3,0.8,0.125,-35.0,-1,1.0,5.479099999999903
197,3,0.8,1.0,-35.0,-1,1.0,0.11639999999988504
198,3,0.8,1.0,35.0,1,1.0,0.2660999999999376
199,3,0.8,0.25,-35.0,-1,1.0,0.31920099999990725
200,3,0.8,0.0,-35.0,-1,1.0,0.39530100000001767
201,3,0.8,0.0625,-35.0,-1,1.0,0.1654009999998607
202,3,0.8,0.125,-35.0,-1,1.0,0.1631009999999833
203,3,0.8,0.25,-35.0,-1,1.0,0.22820100000001275
204,3,0.8,0.0625,-35.0,-1,1.0,0.3249009999998407
205,3,0.8,0.0,-35.0,-1,1.0,1.9779009999998607
206,3,0.8,0.125,-35.0,-1,1.0,0.47490099999993163
207,3,0.8,0.125,35.0,1,1.0,0.36800099999993563
208,3,0.8,1.0,-35.0,-1,1.0,0.3006999999998925
209,3,0.8,1.0,-35.0,-1,1.0,0.3364010000000235
210,3,0.8,0.0,-35.0,-1,1.0,0.7576999999998861
211,3,0.8,1.0,-35.0,-1,1.0,0.23129999999991924
212,3,0.8,0.125,35.0,1,1.0,0.2663000000000011
213,3,0.8,0.25,-35.0,-1,1.0,0.4175000000000182
214,3,0.8,0.25,-35.0,-1,1.0,0.35730099999989307
215,3,0.8,1.0,-35.0,-1,1.0,0.2834010000000262
216,3,0.8,0.125,-35.0,-1,1.0,3.167699999999968
217,3,0.8,1.0,-35.0,-1,1.0,0.3870009999999411
218,3,0.8,0.25,-35.0,-1,1.0,0.32550000000003365
219,3,0.8,0.25,-35.0,-1,1.0,0.255600999999956
220,3,0.8,1.0,-35.0,-1,1.0,0.2395009999999047
221,3,0.8,0.125,-35.0,-1,1.0,0.5485009999998738
222,3,0.8,0.125,-35.0,-1,1.0,0.5515009999999165
223,3,0.8,0.125,-35.0,-1,1.0,0.4595999999999094
224,3,0.8,0.125,-35.0,-1,1.0,0.15210100000001603
225,3,0.8,0.0625,-35.0,-1,1.0,0.2636999999999716
226,3,0.8,0.0625,-35.0,1,0.0,2.443600999999944
227,3,0.8,0.25,-35.0,-1,1.0,0.2864999999999327
228,3,0.8,1.0,-35.0,-1,1.0,0.2997009999999136
229,3,0.8,0.125,-35.0,-1,1.0,2.11300099999994
230,3,0.2,0.25,35.0,1,1.0,0.2617009999999027
231,3,0.2,0.0625,35.0,-1,0.0,0.12930000000005748
232,3,0.2,0.0625,35.0,1,1.0,0.32140100000003713
233,3,0.2,0.0,35.0,1,1.0,0.28300000000001546
234,3,0.2,0.125,-35.0,-1,1.0,0.3547009999999773
235,3,0.2,0.25,35.0,1,1.0,0.3868009999999913
236,3,0.2,0.0,-35.0,1,0.0,0.35980099999994763
237,3,0.2,0.25,35.0,1,1.0,0.27920099999994363
238,3,0.2,0.0,35.0,1,1.0,0.6667999999999665
239,3,0.2,0.25,35.0,1,1.0,2.841899999999896
240,3,0.2,1.0,-35.0,-1,1.0,4.329499999999825
241,3,0.2,1.0,35.0,1,1.0,0.3450009999999111
242,3,0.2,0.0625,35.0,1,1.0,0.33930000000009386
243,3,0.2,1.0,-35.0,-1,1.0,0.24220100000002276
244,3,0.2,0.125,35.0,1,1.0,0.3645010000000184
245,3,0.2,0.0,35.0,1,1.0,0.4655999999999949
246,3,0.2,0.125,35.0,1,1.0,0.9277009999998427
247,3,0.2,0.125,35.0,1,1.0,0.17239999999992506
248,3,0.2,0.0,-35.0,1,0.0,0.3041000000000622
249,3,0.2,0.0625,35.0,1,1.0,0.2694010000000162
250,3,0.2,1.0,-35.0,-1,1.0,0.18389999999999418
251,3,0.2,0.0625,35.0,-1,0.0,0.17610000000013315
252,3,0.2,0.25,-35.0,-1,1.0,0.16120000000023538
253,3,0.2,0.125,35.0,-1,0.0,3.4494009999998525
254,3,0.2,0.0,35.0,1,1.0,0.38429999999993925
255,3,0.2,1.0,35.0,1,1.0,0.36979999999994106
256,3,0.2,0.0,35.0,1,1.0,0.27060000000005857
257,3,0.2,0.25,35.0,1,1.0,0.34639999999990323
258,3,0.2,0.0625,35.0,-1,0.0,2.9775999999999385
259,3,0.2,0.25,35.0,1,1.0,0.40030099999989943
260,3,0.2,0.0625,35.0,1,1.0,0.7084010000000944
261,3,0.2,0.0625,35.0,1,1.0,0.380301000000145
262,3,0.2,0.125,35.0,1,1.0,0.2782999999999447
263,3,0.2,0.25,35.0,1,1.0,0.6037010000000009
264,3,0.2,1.0,35.0,1,1.0,0.3204000000000633
265,3,0.2,0.0625,35.0,1,1.0,0.25739999999996144
266,3,0.2,0.0,35.0,-1,0.0,1.1852000000001226
267,3,0.2,0.125,35.0,1,1.0,0.2777000000000953
268,3,0.2,1.0,35.0,1,1.0,0.22949999999991633
269,3,0.2,0.25,35.0,1,1.0,0.29120100000000093
270,3,0.2,1.0,-35.0,-1,1.0,0.2495010000000093
271,3,0.2,0.25,35.0,-1,0.0,0.2078009999997903
272,3,0.2,1.0,-35.0,-1,1.0,0.20250099999975646
273,3,0.2,0.25,35.0,1,1.0,0.3447009999999864
274,3,0.2,0.25,35.0,1,1.0,0.22600099999999657
275,3,0.2,0.0,35.0,-1,0.0,0.2516000000000531
276,3,0.2,0.0625,-35.0,-1,1.0,0.49319999999988795
277,3,0.2,0.0,35.0,-1,0.0,0.49520099999972444
278,3,0.2,0.125,35.0,1,1.0,0.2846009999998387
279,3,0.2,0.125,35.0,-1,0.0,1.7785999999998694
280,3,0.2,0.0,35.0,-1,0.0,0.2803000000001248
281,3,0.2,1.0,35.0,1,1.0,0.25880000000006476
282,3,0.2,0.125,-35.0,-1,1.0,0.26670100000001185
283,3,0.2,0.0625,35.0,-1,0.0,1.8355000000001382
284,3,0.2,1.0,35.0,1,1.0,0.28480000000013206
285,3,0.2,1.0,-35.0,-1,1.0,0.20900000000006003
286,3,0.2,0.0625,-35.0,-1,1.0,0.5278000000000702
287,3,0.2,1.0,-35.0,-1,1.0,0.5394009999997706
288,3,0.2,0.0,-35.0,1,0.0,0.4840009999998074
289,3,0.2,1.0,35.0,1,1.0,0.26299999999991996
290,3,0.2,0.0625,35.0,-1,0.0,0.22400100000004386
291,3,0.2,0.0625,35.0,-1,0.0,4.629901000000018
292,3,0.2,0.25,35.0,1,1.0,0.29789999999979955
293,3,0.2,0.125,35.0,-1,0.0,3.6200999999998658
294,3,0.2,0.0625,-35.0,1,0.0,0.9680009999999584
295,3,0.2,1.0,-35.0,-1,1.0,0.23699999999985266
296,3,0.2,0.25,35.0,-1,0.0,0.2182999999997719
297,3,0.2,0.125,35.0,-1,0.0,4.233799999999974
298,3,0.2,0.25,35.0,1,1.0,0.32310000000006767
299,3,0.8,0.125,-35.0,1,0.0,6.250600000000077
300,3,0.8,0.0,35.0,1,1.0,2.952199999999948
301,3,0.8,1.0,-35.0,1,0.0,0.3112999999998465
302,3,0.8,0.0,-35.0,-1,1.0,1.435500999999931
303,3,0.8,0.25,35.0,1,1.0,0.31450100000006387
304,3,0.8,0.125,-35.0,-1,1.0,0.23630000000002838
305,3,0.8,0.0625,-35.0,-1,1.0,3.164800000000014
306,3,0.8,0.125,-35.0,-1,1.0,0.45329999999989923
307,3,0.8,0.125,-35.0,-1,1.0,0.17840099999989434
308,3,0.8,0.125,-35.0,-1,1.0,0.21630099999993035
309,3,0.8,0.0625,-35.0,1,0.0,0.281800000000203
310,3,0.8,0.125,-35.0,-1,1.0,5.292901000000029
311,3,0.8,0.25,-35.0,-1,1.0,0.39220000000000255
312,3,0.8,0.125,-35.0,-1,1.0,0.24019999999973152
313,3,0.8,0.125,-35.0,-1,1.0,0.22890000000006694
314,3,0.8,0.0625,-35.0,-1,1.0,0.5030009999998128
315,3,0.8,0.0625,-35.0,-1,1.0,0.46910000000002583
316,3,0.8,0.0,35.0,-1,0.0,0.387400999999727
317,3,0.8,0.25,-35.0,-1,1.0,0.2693010000000413
318,3,0.8,1.0,35.0,1,1.0,0.30379999999968277
319,3,0.8,1.0,-35.0,-1,1.0,0.23259999999982028
320,3,0.8,0.0625,-35.0,-1,1.0,0.39390000000003056
321,3,0.8,0.125,35.0,-1,0.0,0.4896000000001095
322,3,0.8,0.0625,-35.0,-1,1.0,0.25860000000011496
323,3,0.8,0.125,-35.0,-1,1.0,0.35669999999981883
324,3,0.8,0.0,-35.0,-1,1.0,0.2867009999997663
325,3,0.8,0.0,-35.0,-1,1.0,0.46050100000002203
326,3,0.8,0.125,35.0,1,1.0,0.32980099999986123
327,3,0.8,0.125,-35.0,-1,1.0,2.09270000000015
328,3,0.8,1.0,-35.0,-1,1.0,0.4436999999998079
329,3,0.8,1.0,-35.0,-1,1.0,0.48860000000013315
330,3,0.8,0.0625,35.0,-1,0.0,2.963700999999901
331,3,0.8,0.0,35.0,-1,0.0,3.942800000000034
332,3,0.8,0.0625,-35.0,-1,1.0,0.37409999999999854
333,3,0.8,0.125,-35.0,-1,1.0,0.31280000000015207
334,3,0.8,1.0,-35.0,-1,1.0,0.4329000000000178
335,3,0.8,0.125,35.0,1,1.0,0.24279999999976098
336,3,0.2,0.0625,35.0,1,1.0,2.2245000000000346
337,3,0.2,0.0,35.0,1,1.0,0.6221009999997023
338,3,0.2,0.25,35.0,1,1.0,0.36780099999987215
339,3,0.2,0.0,35.0,-1,0.0,0.4239000000000033
340,3,0.2,0.125,35.0,1,1.0,0.20140100000003258
341,3,0.2,0.0,35.0,-1,0.0,2.2769999999998163
342,3,0.2,1.0,35.0,1,1.0,0.3883009999999558
343,3,0.2,1.0,35.0,1,1.0,0.3209999999999127
344,3,0.2,1.0,35.0,1,1.0,0.32860100000016246
345,3,0.2,0.125,-35.0,-1,1.0,0.6431010000001152
346,3,0.2,1.0,35.0,1,1.0,0.25890000000003965
347,3,0.2,1.0,35.0,1,1.0,0.5463999999997213
348,3,0.2,0.0625,-35.0,-1,1.0,0.318800999999894
349,3,0.2,0.25,35.0,-1,0.0,2.3689999999999145
350,3,0.2,1.0,35.0,1,1.0,0.49250000000006366
351,3,0.2,1.0,35.0,1,1.0,0.3835009999997965
352,3,0.2,0.0,35.0,1,1.0,0.24939999999992324
353,3,0.2,0.125,35.0,1,1.0,1.934099999999944
354,3,0.2,0.25,35.0,1,1.0,0.40259999999989304
355,3,0.2,0.0625,35.0,1,1.0,0.33760099999994964
356,3,0.2,0.125,35.0,1,1.0,0.3028999999999087
357,3,0.2,0.25,35.0,1,1.0,0.6743000000001302
358,3,0.2,0.25,35.0,1,1.0,0.2862999999999829
359,3,0.2,0.0625,-35.0,-1,1.0,0.3383010000000013
360,3,0.2,0.0625,35.0,-1,0.0,1.7633010000001832
361,3,0.2,0.0625,35.0,1,1.0,0.37540100000001075
362,3,0.2,0.125,35.0,1,1.0,0.37350099999980557
363,3,0.2,0.25,35.0,1,1.0,0.35140000000023974
364,3,0.2,0.125,35.0,1,1.0,3.7937010000000555
365,3,0.2,0.0,35.0,1,1.0,0.5254009999998743
366,3,0.2,0.0625,35.0,1,1.0,0.36400099999991653
367,3,0.2,1.0,35.0,1,1.0,0.30179999999995744
368,3,0.2,0.125,35.0,1,1.0,0.36740099999997256
369,3,0.2,0.0625,35.0,1,1.0,1.3166000000001077
370,3,0.2,0.25,35.0,1,1.0,0.2777000000000953
371,3,0.2,1.0,35.0,1,1.0,2.8226999999999407
372,3,0.2,0.0,35.0,1,1.0,0.9576999999999316
373,3,0.2,0.0625,35.0,1,1.0,0.39249999999992724
374,3,0.2,0.125,35.0,1,1.0,0.28470100000004095
375,3,0.8,0.125,35.0,1,1.0,0.35970099999985905
376,3,0.8,0.125,-35.0,-1,1.0,0.21820000000002437
377,3,0.8,0.0625,-35.0,-1,1.0,0.282799999999952
378,3,0.8,1.0,-35.0,-1,1.0,0.37490100000013626
379,3,0.8,1.0,-35.0,-1,1.0,0.36980099999982485
380,3,0.8,0.0625,35.0,1,1.0,0.6284009999999398
381,3,0.8,0.125,-35.0,-1,1.0,0.5147999999996955
382,3,0.8,0.125,-35.0,-1,1.0,0.21870099999978265
383,3,0.8,0.25,-35.0,1,0.0,2.78340100000014
384,3,0.8,0.0,-35.0,1,0.0,6.842199999999821
385,3,0.8,0.25,35.0,1,1.0,0.35070100000007187
386,3,0.8,0.25,-35.0,-1,1.0,0.24929999999994834
387,3,0.8,0.125,-35.0,-1,1.0,0.3306009999998878
388,3,0.8,0.125,35.0,1,1.0,0.23260000000004766
389,3,0.8,0.0,-35.0,-1,1.0,0.2849999999998545
390,3,0.8,1.0,-35.0,-1,1.0,0.1750009999998383
391,3,0.8,0.125,-35.0,-1,1.0,0.462099999999964
392,3,0.8,0.25,-35.0,-1,1.0,10.189701000000014
393,3,0.8,0.0625,-35.0,-1,1.0,1.4351000000001477
394,3,0.8,0.0625,-35.0,1,0.0,1.7033999999998741
395,3,0.8,1.0,-35.0,-1,1.0,0.24220100000025013
396,3,0.8,0.0625,-35.0,-1,1.0,9.890500999999858
397,3,0.8,0.0,-35.0,1,0.0,0.881800000000112
398,3,0.8,1.0,-35.0,-1,1.0,0.4774010000000999
399,3,0.8,0.0625,-35.0,1,0.0,1.5156999999999243
400,3,0.8,0.25,35.0,1,1.0,0.26759999999990214
401,3,0.8,0.0,35.0,1,1.0,0.26240099999995437
402,3,0.8,0.25,-35.0,-1,1.0,0.3913000000000011
403,3,0.8,1.0,-35.0,-1,1.0,0.21640100000013263
404,3,0.8,0.125,-35.0,-1,1.0,0.29139999999983957
405,3,0.8,0.0,-35.0,1,0.0,8.762500000000045
406,3,0.8,0.0625,-35.0,-1,1.0,0.241600999999946
407,3,0.8,0.125,-35.0,-1,1.0,4.970501000000013
408,3,0.8,1.0,-35.0,-1,1.0,0.2419009999998707
409,3,0.8,0.125,-35.0,1,0.0,0.3799019999999018
410,3,0.8,0.25,-35.0,-1,1.0,0.23880099999996673
411,3,0.8,0.125,35.0,1,1.0,0.7806010000001606
412,3,0.8,0.0625,-35.0,-1,1.0,0.3522020000000339
413,3,0.8,0.25,35.0,1,1.0,0.34060200000021723
414,3,0.8,0.125,35.0,1,1.0,0.31570099999999
415,3,0.8,1.0,-35.0,-1,1.0,1.7608020000000124
416,3,0.8,0.125,-35.0,1,0.0,12.289500999999973
417,3,0.8,1.0,-35.0,-1,1.0,1.1017009999998209
418,3,0.8,0.0,35.0,-1,0.0,0.16300200000000586
419,3,0.2,0.0,35.0,-1,0.0,6.527901000000156
420,3,0.2,0.0625,-35.0,-1,1.0,0.3618020000001252
421,3,0.2,0.25,35.0,1,1.0,0.3789009999998143
422,3,0.2,0.0625,35.0,1,1.0,4.307101000000102
423,3,0.2,0.0625,35.0,1,1.0,0.38930200000004334
424,3,0.2,0.125,35.0,1,1.0,0.39390199999979814
425,3,0.2,0.25,35.0,1,1.0,0.2500009999998838
426,3,0.2,1.0,-35.0,-1,1.0,0.21070099999997183
427,3,0.2,1.0,35.0,1,1.0,0.5956010000002152
428,3,0.2,0.0,35.0,1,1.0,0.4511009999998805
429,3,0.2,0.125,35.0,1,1.0,0.3887009999998554
430,3,0.2,0.0625,35.0,1,1.0,0.43450099999995473
431,3,0.2,0.0625,35.0,1,1.0,0.38910200000009354
432,3,0.2,0.0625,35.0,1,1.0,0.3013020000000779
433,3,0.2,0.125,35.0,-1,0.0,0.4124020000001565
434,3,0.2,0.0625,35.0,1,1.0,0.3182019999999284
435,3,0.2,1.0,-35.0,1,0.0,0.3201010000000224
436,3,0.2,0.0,-35.0,1,0.0,22.49160199999983
437,3,0.2,0.0,35.0,1,1.0,24.08130200000005
438,3,0.2,0.25,35.0,1,1.0,0.37290200000006735
439,3,0.2,0.125,35.0,1,1.0,5.1881009999999605
440,3,0.2,0.25,35.0,1,1.0,0.30660199999988436
441,3,0.2,0.0,35.0,1,1.0,0.3517010000000482
442,3,0.2,0.0625,35.0,1,1.0,0.4700009999999111
443,3,0.2,0.125,35.0,-1,0.0,3.597301000000243
444,3,0.2,0.125,35.0,1,1.0,0.333601999999928
445,3,0.2,0.25,35.0,1,1.0,0.38570099999992635
446,3,0.2,0.125,35.0,1,1.0,0.4407019999998738
447,3,0.2,1.0,35.0,1,1.0,0.2254009999999198
448,3,0.2,0.25,35.0,1,1.0,0.4073009999999613
449,3,0.2,0.25,-35.0,-1,1.0,0.5553010000000995
450,3,0.2,0.0625,35.0,1,1.0,0.27080099999989216
451,3,0.2,0.0,35.0,1,1.0,5.5963010000000395
452,3,0.2,0.25,-35.0,-1,1.0,0.24790200000006735
453,3,0.2,1.0,35.0,1,1.0,0.31570099999999
454,3,0.2,1.0,35.0,1,1.0,0.3378020000000106
455,3,0.2,0.125,-35.0,-1,1.0,0.3928019999998469
456,3,0.2,1.0,35.0,1,1.0,0.27480199999990873
457,3,0.2,0.25,-35.0,-1,1.0,0.29610100000036255
458,3,0.8,1.0,-35.0,-1,1.0,0.23840100000006714
459,3,0.8,0.0625,-35.0,1,0.0,3.341001000000233
460,3,0.8,0.25,-35.0,-1,1.0,0.32850100000041493
461,3,0.8,0.125,-35.0,-1,1.0,0.5066020000003846
462,3,0.8,0.0625,35.0,1,1.0,0.3087020000002667
463,3,0.8,0.125,-35.0,-1,1.0,0.4540010000005168
464,3,0.8,0.125,-35.0,-1,1.0,0.3456010000004426
465,3,0.8,0.0,35.0,-1,0.0,0.18700100000023667
466,3,0.8,0.0,35.0,-1,0.0,0.25580100000024686
467,3,0.8,1.0,-35.0,-1,1.0,0.9842020000000957
468,3,0.8,0.125,-35.0,-1,1.0,0.22610200000053737
469,3,0.8,1.0,-35.0,-1,1.0,0.2451019999998607
470,3,0.8,0.25,-35.0,-1,1.0,7.189401000000544
471,3,0.8,0.125,35.0,1,1.0,0.42520100000047023
472,3,0.8,0.25,35.0,1,1.0,0.3132010000003902
473,3,0.8,0.0,-35.0,-1,1.0,9.39780200000041
474,3,0.8,0.0,-35.0,1,0.0,6.853701000000001
475,3,0.8,0.125,-35.0,-1,1.0,0.3554020000001401
476,3,0.8,1.0,-35.0,-1,1.0,0.28750100000070233
477,3,0.8,0.0,-35.0,-1,1.0,0.5054009999998925
478,3,0.8,1.0,-35.0,-1,1.0,3.4875010000000657
479,3,0.8,0.0,-35.0,-1,1.0,0.573500999999851
480,3,0.8,0.25,-35.0,-1,1.0,0.2044010000004164
481,3,0.8,0.125,35.0,1,1.0,0.3057020000001103
482,3,0.8,0.125,35.0,1,1.0,0.29450100000030943
483,3,0.8,0.25,-35.0,-1,1.0,0.23570099999960803
484,3,0.8,0.0625,35.0,-1,0.0,0.21460099999967497
485,3,0.8,0.0625,-35.0,-1,1.0,0.3334020000002056
486,3,0.8,0.25,-35.0,-1,1.0,0.16160100000024613
487,3,0.8,0.25,35.0,-1,0.0,1.413600999999744
488,3,0.8,1.0,35.0,1,1.0,0.3718020000001161
489,3,0.8,0.25,-35.0,-1,1.0,0.25640100000009625
490,3,0.8,0.25,-35.0,-1,1.0,0.45540100000016537
491,3,0.8,1.0,-35.0,-1,1.0,0.21740200000022014
492,3,0.8,1.0,-35.0,-1,1.0,0.21670200000062323
493,3,0.8,0.0625,-35.0,-1,1.0,2.0756020000003446
494,3,0.8,0.25,-35.0,-1,1.0,0.22880200000054174
495,3,0.8,1.0,35.0,1,1.0,0.6475009999999202
496,3,0.8,0.0625,-35.0,-1,1.0,0.3635010000002694
497,3,0.8,1.0,-35.0,-1,1.0,0.37570099999993545
498,3,0.8,0.25,-35.0,-1,1.0,0.3106009999996786
499,3,0.8,1.0,-35.0,-1,1.0,0.34280100000023594
500,3,0.8,0.25,-35.0,-1,1.0,14.967901000000438
501,3,0.8,1.0,35.0,1,1.0,0.28980200000023615
502,3,0.2,1.0,35.0,1,1.0,0.3411020000003191
503,3,0.2,1.0,35.0,1,1.0,0.2833010000003924
504,3,0.2,0.25,35.0,1,1.0,0.41110100000014427
505,3,0.2,0.0625,35.0,1,1.0,1.3535009999995964
506,3,0.2,0.125,35.0,1,1.0,0.27190100000052553
507,3,0.2,0.125,35.0,1,1.0,0.3770009999998365
508,3,0.2,1.0,35.0,1,1.0,0.34170200000062323
509,3,0.2,0.0625,35.0,1,1.0,0.5241019999998571
510,3,0.2,0.25,-35.0,-1,1.0,0.22910200000023906
511,3,0.2,0.0,35.0,-1,0.0,1.8272020000003977
512,3,0.2,1.0,35.0,1,1.0,0.24200100000007296
513,3,0.2,1.0,35.0,1,1.0,0.2975010000000111
514,3,0.2,0.25,-35.0,-1,1.0,0.37530100000003586
515,3,0.2,0.25,35.0,1,1.0,0.2477020000005723
516,3,0.2,0.125,35.0,1,1.0,0.3022020000003067
517,3,0.2,1.0,35.0,1,1.0,0.2645020000004479
518,3,0.2,0.0625,-35.0,1,0.0,2.1702020000006996
519,3,0.2,0.0625,-35.0,-1,1.0,0.3514010000003509
520,3,0.2,0.0,35.0,-1,0.0,0.46490099999982704
521,3,0.2,0.25,35.0,1,1.0,0.3230020000000877
522,3,0.2,0.0,35.0,1,1.0,0.4883020000002034
523,3,0.2,0.125,35.0,1,1.0,0.7300020000002405
524,3,0.2,0.0,-35.0,-1,1.0,6.328801000000112
525,3,0.2,0.25,-35.0,-1,1.0,0.30700200000046607
526,3,0.2,0.0,35.0,-1,0.0,0.19950100000005477
527,3,0.2,0.0,-35.0,1,0.0,0.3269020000002456
528,3,0.2,0.0,35.0,-1,0.0,8.659102000000075
529,3,0.2,1.0,-35.0,-1,1.0,0.23460200000045006
530,3,0.2,1.0,35.0,1,1.0,0.47620099999994636
531,3,0.2,0.0,35.0,1,1.0,0.5909010000004855
532,3,0.2,0.125,35.0,1,1.0,0.3497010000000955
533,3,0.2,1.0,35.0,1,1.0,0.33770200000026307
534,3,0.2,0.125,35.0,1,1.0,0.37330199999996694
535,3,0.2,0.0,35.0,1,1.0,0.27160200000025725
536,3,0.2,0.125,35.0,1,1.0,0.316801000000396
537,3,0.2,0.125,35.0,1,1.0,0.4216010000004644
538,3,0.2,0.125,-35.0,-1,1.0,4.56360100000029
539,3,0.2,1.0,35.0,1,1.0,0.3554020000001401
540,3,0.2,1.0,35.0,1,1.0,0.3338010000002214
541,3,0.2,0.125,-35.0,-1,1.0,0.512800999999854
542,3,0.2,0.125,35.0,1,1.0,0.3710009999999784
543,3,0.2,0.0,35.0,1,1.0,0.28610200000002806
544,3,0.2,0.25,35.0,1,1.0,0.31420200000002296
545,3,0.2,0.25,35.0,1,1.0,0.672001000000364
546,3,0.2,0.0,35.0,-1,0.0,0.23440100000016173
547,3,0.2,0.25,35.0,1,1.0,0.3357019999998556
548,3,0.2,1.0,35.0,1,1.0,0.35470200000008845
549,3,0.2,0.125,35.0,1,1.0,0.5463010000003123
550,3,0.2,0.0,35.0,1,1.0,8.641301000000112
551,3,0.2,0.0625,35.0,1,1.0,0.41640200000028926
552,3,0.2,0.0625,35.0,1,1.0,0.41530199999988326
553,3,0.2,0.0625,35.0,1,1.0,0.3504010000006019
554,3,0.2,0.125,35.0,1,1.0,0.2919010000000526
555,3,0.2,1.0,-35.0,-1,1.0,0.25670100000070306
556,3,0.2,0.125,35.0,1,1.0,0.45530100000041784
557,3,0.2,0.0625,-35.0,1,0.0,0.40010100000063176
558,3,0.2,1.0,35.0,1,1.0,0.2957010000000082
559,3,0.2,0.25,35.0,1,1.0,0.31010200000037
560,3,0.2,0.125,35.0,1,1.0,0.33250200000020413
561,3,0.2,0.0,-35.0,-1,1.0,2.240502000000106
562,3,0.2,1.0,-35.0,-1,1.0,0.6524010000002818
563,3,0.2,0.0,35.0,-1,0.0,0.5204010000002199
564,3,0.2,0.125,35.0,1,1.0,0.532901000000038
565,3,0.2,0.0625,35.0,-1,0.0,0.3851009999998496
566,3,0.8,0.25,35.0,1,1.0,0.3397020000002158
567,3,0.8,0.0625,-35.0,-1,1.0,0.2853020000002289
568,3,0.8,0.0,-35.0,-1,1.0,0.4466010000001006
569,3,0.8,0.25,-35.0,-1,1.0,0.23500100000001112
570,3,0.8,0.0625,-35.0,1,0.0,0.31660200000033
571,3,0.8,0.125,-35.0,-1,1.0,0.4311010000001261
572,3,0.8,0.0,-35.0,-1,1.0,9.113602000000355
573,3,0.8,0.25,-35.0,-1,1.0,0.20950100000027305
574,3,0.8,0.0625,-35.0,-1,1.0,0.33740200000056575
575,3,0.8,0.25,-35.0,-1,1.0,0.26620099999991
576,3,0.8,0.0,-35.0,-1,1.0,1.8341010000003735
577,3,0.8,0.0625,-35.0,-1,1.0,4.015801999999894
578,3,0.8,0.25,-35.0,-1,1.0,0.22460100000080274
579,3,0.8,1.0,35.0,1,1.0,0.6893020000002252
580,3,0.8,0.125,-35.0,-1,1.0,0.2449019999999109
581,3,0.8,0.0625,35.0,1,1.0,0.33310100000016973
582,3,0.8,0.25,-35.0,-1,1.0,2.138101000000006
583,3,0.8,0.0625,-35.0,-1,1.0,5.622801000000436
584,3,0.8,1.0,-35.0,-1,1.0,0.285001000000193
585,3,0.8,0.0,-35.0,-1,1.0,12.633802000000287
586,3,0.2,0.0625,-35.0,-1,1.0,0.31540099999983795
587,3,0.2,0.25,35.0,1,1.0,0.6189020000001619
588,3,0.2,1.0,-35.0,-1,1.0,0.25240100000019083
589,3,0.2,0.0,-35.0,1,0.0,0.3789020000003802
590,3,0.2,0.0,35.0,1,1.0,4.696002000000135
591,3,0.2,0.0,-35.0,-1,1.0,0.34440100000028906
592,3,0.2,0.0625,35.0,-1,0.0,6.6796009999998205
593,3,0.2,0.0,-35.0,-1,1.0,4.500902000000224
594,3,0.2,0.0625,35.0,1,1.0,0.4034020000003693
595,3,0.2,0.0625,35.0,1,1.0,0.34510099999988597
596,3,0.2,0.0625,35.0,1,1.0,0.3867019999997865
597,3,0.2,0.0,35.0,1,1.0,0.48820100000011735
598,3,0.2,1.0,35.0,1,1.0,0.6635020000003351
599,3,0.2,0.0625,35.0,1,1.0,0.7018010000001595
600,3,0.2,1.0,35.0,1,1.0,0.3171019999999771
601,3,0.2,0.25,35.0,1,1.0,3.7549010000002454
602,3,0.2,0.125,35.0,1,1.0,0.5343020000000251
603,3,0.2,0.0625,35.0,1,1.0,0.36950200000046607
604,3,0.2,0.25,35.0,1,1.0,0.414400999999998
605,3,0.2,0.25,35.0,1,1.0,0.3566019999998389
606,3,0.2,0.125,35.0,1,1.0,0.2814010000001872
607,3,0.2,1.0,35.0,1,1.0,0.3758020000000215
608,3,0.2,0.0625,-35.0,-1,1.0,0.38470099999995
609,3,0.2,0.25,35.0,1,1.0,0.24260099999992235
610,3,0.2,0.125,35.0,1,1.0,0.454801000000316
611,3,0.2,0.0625,35.0,1,1.0,0.3398019999999633
612,3,0.2,1.0,35.0,1,1.0,0.3185009999997419
613,3,0.2,0.125,35.0,1,1.0,0.3564010000000053
614,3,0.2,0.0,35.0,1,1.0,0.4488010000000031
615,3,0.2,1.0,35.0,1,1.0,0.29620100000011007
616,3,0.2,0.0,35.0,1,1.0,2.62890200000038
617,3,0.2,0.25,35.0,1,1.0,0.47060200000032637
618,3,0.2,1.0,35.0,1,1.0,0.43900200000007317
619,3,0.2,0.0625,35.0,1,1.0,0.35330199999998513
620,3,0.2,0.0625,35.0,1,1.0,0.3626020000006065
621,3,0.2,0.125,35.0,1,1.0,0.4157010000003538
622,3,0.2,0.25,35.0,-1,0.0,0.2460020000003169
623,3,0.2,0.25,-35.0,-1,1.0,0.3247020000003431
624,3,0.8,1.0,-35.0,-1,1.0,0.24980200000072728
625,3,0.8,0.0,35.0,1,1.0,0.25480100000004313
626,3,0.8,1.0,-35.0,-1,1.0,0.2330010000000584
627,3,0.8,1.0,-35.0,-1,1.0,0.21070200000031036
628,3,0.8,1.0,-35.0,-1,1.0,0.14650200000050972
629,3,0.8,0.25,-35.0,-1,1.0,0.32440200000019104
630,3,0.8,0.125,-35.0,-1,1.0,0.20680200000060722
631,3,0.8,0.25,35.0,1,1.0,0.45490200000040204
632,3,0.8,0.0625,35.0,1,1.0,0.4802010000003065
633,3,0.8,0.0625,35.0,1,1.0,0.56240200000002
634,3,0.8,0.0625,-35.0,-1,1.0,0.2771010000001297
635,3,0.8,0.0,-35.0,-1,1.0,6.328202000000601
636,3,0.8,0.25,35.0,-1,0.0,0.13390099999969607
637,3,0.8,0.25,-35.0,-1,1.0,0.39530199999990145
638,3,0.8,0.125,-35.0,-1,1.0,0.2642009999999573
639,3,0.8,0.125,-35.0,-1,1.0,0.1470009999998183
640,3,0.8,0.125,-35.0,-1,1.0,0.5376010000004499
641,3,0.8,0.125,-35.0,-1,1.0,3.3260009999999056
642,3,0.8,0.25,35.0,1,1.0,0.5146009999998569
643,3,0.8,0.0,-35.0,1,0.0,0.35610200000019177
644,3,0.8,0.0625,-35.0,-1,1.0,0.274902000000111
645,3,0.8,0.0,35.0,1,1.0,0.4741009999997914
646,3,0.8,0.0625,-35.0,-1,1.0,0.18200100000012753
647,3,0.8,1.0,35.0,1,1.0,0.22710099999994782
648,3,0.8,0.125,35.0,-1,0.0,1.6253010000000359
649,3,0.8,1.0,-35.0,-1,1.0,0.2632020000000921
650,3,0.8,0.125,-35.0,1,0.0,0.335301000000527
651,3,0.8,1.0,-35.0,-1,1.0,0.29530100000056336
652,3,0.8,1.0,-35.0,-1,1.0,0.3159009999999398
653,3,0.8,1.0,-35.0,-1,1.0,0.28040199999986726
654,3,0.8,0.0,-35.0,-1,1.0,6.632802000000083
655,3,0.8,1.0,-35.0,-1,1.0,1.174101999999948
656,3,0.8,1.0,35.0,1,1.0,0.39270100000021557
657,3,0.8,1.0,-35.0,-1,1.0,0.43870200000037585
658,3,0.8,1.0,-35.0,-1,1.0,0.5096010000002025
659,3,0.8,1.0,-35.0,-1,1.0,0.5055010000005495
660,3,0.8,0.0625,-35.0,1,0.0,0.5297020000002703
661,3,0.8,0.0,-35.0,1,0.0,0.5143010000001595
662,3,0.8,0.125,-35.0,-1,1.0,0.306601999999657
663,3,0.8,1.0,-35.0,-1,1.0,0.23470200000065233
664,3,0.8,0.25,35.0,1,1.0,0.4402020000002267
665,3,0.8,0.25,-35.0,-1,1.0,0.3055020000001605
666,3,0.8,0.0625,-35.0,-1,1.0,0.2970020000002478
667,3,0.2,0.25,35.0,1,1.0,3.799000999999862
668,3,0.2,0.0,35.0,-1,0.0,0.2440020000003642
669,3,0.2,0.0625,35.0,1,1.0,0.3027010000005248
670,3,0.2,1.0,-35.0,-1,1.0,0.3909009999997579
671,3,0.2,1.0,35.0,1,1.0,0.27980200000001787
672,3,0.2,0.0,35.0,1,1.0,0.23780100000021775
673,3,0.2,0.125,35.0,1,1.0,0.62910200000033
674,3,0.2,0.125,35.0,1,1.0,0.581101000000217
675,3,0.2,0.125,35.0,1,1.0,0.2829019999999218
676,3,0.2,0.25,35.0,1,1.0,0.30810100000053353
677,3,0.2,1.0,-35.0,-1,1.0,0.3194010000001981
678,3,0.2,1.0,35.0,1,1.0,0.36160200000040277
679,3,0.2,0.0,35.0,-1,0.0,10.966501000000335
680,3,0.2,0.125,-35.0,-1,1.0,19.435401999999613
681,3,0.2,0.25,-35.0,-1,1.0,0.27120200000035766
682,3,0.2,0.25,35.0,1,1.0,3.3526010000005044
683,3,0.2,0.125,35.0,1,1.0,0.4721010000002934
684,3,0.2,0.0,35.0,-1,0.0,19.373101000000133
685,3,0.2,0.25,35.0,1,1.0,0.4414020000003802
686,3,0.2,1.0,35.0,-1,0.0,0.17690200000015466
687,3,0.2,0.0,35.0,-1,0.0,2.0854010000002745
688,3,0.2,0.25,-35.0,-1,1.0,0.40730200000007244
689,3,0.2,0.0625,-35.0,1,0.0,0.35550100000000384
690,3,0.2,0.0625,35.0,1,1.0,0.500702000000274
691,3,0.2,1.0,35.0,1,1.0,0.4424010000002454
692,3,0.2,0.125,-35.0,-1,1.0,0.3576020000000426
693,3,0.2,0.125,35.0,-1,0.0,3.355402000000595
694,3,0.2,1.0,35.0,1,1.0,0.26790100000016537
695,3,0.2,1.0,35.0,1,1.0,5.133001000000604
696,3,0.2,0.25,35.0,1,1.0,0.33850200000006225
697,3,0.2,0.125,35.0,1,1.0,0.316801000000396
698,3,0.2,1.0,35.0,1,1.0,0.38510100000030434
699,3,0.2,0.25,-35.0,-1,1.0,0.2670020000000477
700,3,0.8,0.0625,-35.0,-1,1.0,0.3219010000002527
701,3,0.8,1.0,35.0,1,1.0,0.5177009999997608
702,3,0.8,0.0625,-35.0,1,0.0,0.2889010000003509
703,3,0.8,1.0,-35.0,-1,1.0,0.28780100000039965
704,3,0.8,0.125,-35.0,-1,1.0,0.3659010000001217
705,3,0.8,0.0625,-35.0,-1,1.0,0.3138010000002396
706,3,0.8,0.125,-35.0,-1,1.0,0.782502000000477
707,3,0.8,0.125,35.0,1,1.0,0.2918009999998503
708,3,0.8,0.0,35.0,1,1.0,0.3460010000003422
709,3,0.8,0.0625,-35.0,-1,1.0,3.5349009999999907
710,3,0.8,0.0,-35.0,-1,1.0,5.982901000000766
711,3,0.8,0.25,-35.0,-1,1.0,0.24900100000058956
712,3,0.8,0.0,-35.0,-1,1.0,0.3965020000005097
713,3,0.8,0.0,35.0,-1,0.0,0.41500100000030216
714,3,0.8,0.0,-35.0,-1,1.0,0.12340100000028542
715,3,0.8,1.0,-35.0,-1,1.0,0.21120199999995748
716,3,0.8,0.0,-35.0,-1,1.0,0.2636019999999917
717,3,0.8,0.125,-35.0,-1,1.0,3.3849020000002383
718,3,0.8,0.125,-35.0,-1,1.0,2.0306009999999333
719,3,0.8,0.0625,-35.0,-1,1.0,0.48160200000029363
720,3,0.8,1.0,-35.0,-1,1.0,0.22080200000027617
721,3,0.8,0.25,-35.0,-1,1.0,0.24620100000038292
722,3,0.8,0.0,-35.0,-1,1.0,0.20430200000055265
723,3,0.8,1.0,-35.0,-1,1.0,0.475601000000097
724,3,0.8,0.125,-35.0,-1,1.0,11.301101000000472
725,3,0.8,0.0,-35.0,1,0.0,0.5293010000000322
726,3,0.8,0.0,-35.0,1,0.0,0.3917010000004666
727,3,0.8,0.125,-35.0,-1,1.0,0.4863010000003669
728,3,0.8,0.0625,-35.0,-1,1.0,5.395200999999815
729,3,0.8,1.0,-35.0,-1,1.0,0.20740100000011807
730,3,0.8,0.125,35.0,1,1.0,0.33870100000012826
731,3,0.8,1.0,-35.0,-1,1.0,0.29670200000055047
732,3,0.8,1.0,-35.0,-1,1.0,0.4189010000000053
733,3,0.8,0.125,-35.0,-1,1.0,5.207402000000457
734,3,0.8,0.0625,-35.0,-1,1.0,0.5190010000001166
735,3,0.8,0.125,-35.0,-1,1.0,0.2174009999998816
736,3,0.8,0.125,-35.0,-1,1.0,0.2626020000002427
737,3,0.8,0.25,-35.0,-1,1.0,0.29160100000035527
738,3,0.8,0.25,35.0,1,1.0,0.7860020000002805
739,3,0.8,0.0,-35.0,1,0.0,0.2976020000005519
740,3,0.8,1.0,-35.0,-1,1.0,0.39660100000037346
741,3,0.8,0.0625,-35.0,-1,1.0,8.114501000000473
742,3,0.8,0.25,-35.0,-1,1.0,0.23680200000035256
743,3,0.8,0.0,35.0,-1,0.0,0.4647020000002158
744,3,0.8,0.25,-35.0,-1,1.0,0.5637019999999211
745,3,0.8,0.0,-35.0,1,0.0,0.30160200000045734
746,3,0.8,0.25,-35.0,-1,1.0,0.2538020000006327
747,3,0.2,0.25,35.0,1,1.0,3.8551010000001042
748,3,0.2,0.0,35.0,-1,0.0,0.5409010000003036
749,3,0.2,0.125,35.0,1,1.0,0.32290199999988545
750,3,0.2,0.0,35.0,1,1.0,0.5077020000003358
751,3,0.2,0.0625,-35.0,-1,1.0,0.4039020000000164
752,3,0.2,0.0625,35.0,1,1.0,0.4643020000003162
753,3,0.2,0.0,35.0,-1,0.0,0.2229010000000926
754,3,0.2,0.0625,-35.0,-1,1.0,11.53490200000033
755,3,0.2,0.25,35.0,1,1.0,0.3761020000001736
756,3,0.2,1.0,35.0,1,1.0,0.3717010000004848
757,3,0.2,0.0625,-35.0,-1,1.0,0.8041010000001734
758,3,0.2,0.0625,35.0,1,1.0,0.501901000000089
759,3,0.2,0.25,35.0,1,1.0,0.42010100000061357
760,3,0.2,0.0625,35.0,1,1.0,0.2854010000000926
761,3,0.2,1.0,35.0,1,1.0,0.34000200000036784
762,3,0.2,0.0,-35.0,-1,1.0,0.45550200000025143
763,3,0.2,0.25,35.0,1,1.0,0.29680099999995946
764,3,0.2,0.0,35.0,-1,0.0,0.2424010000004273
765,3,0.2,1.0,35.0,1,1.0,0.3133020000000215
766,3,0.2,0.0,-0.0,0,0.0,60.036301000000094
767,3,0.2,0.125,35.0,1,1.0,6.950701000000208
768,3,0.2,1.0,35.0,1,1.0,0.24790200000006735
769,3,0.2,0.0625,-35.0,-1,1.0,0.3623019999999997
770,3,0.2,0.0625,-35.0,1,0.0,29.671302000000196
771,3,0.2,0.0625,35.0,0,0.0,60.02710100000013
772,3,0.2,1.0,-35.0,-1,1.0,0.7634009999997033
773,3,0.2,0.0,35.0,1,1.0,0.5137010000003102
774,3,0.2,0.125,-35.0,-1,1.0,0.6092020000005505
775,3,0.2,0.0,35.0,-1,0.0,1.0338010000000395
776,3,0.2,0.125,35.0,1,1.0,13.996202000000267
777,3,0.2,0.0,35.0,1,1.0,26.500900999999885
778,3,0.2,0.125,35.0,1,1.0,0.3963010000002214
779,3,0.2,0.125,35.0,1,1.0,0.2950010000004113
780,3,0.2,0.0,35.0,1,1.0,0.26670100000001185
781,3,0.2,0.125,35.0,1,1.0,0.3318020000001525
782,3,0.2,0.0625,35.0,1,1.0,4.9834020000002965
783,3,0.2,1.0,35.0,1,1.0,0.2856010000000424
784,3,0.2,0.0,35.0,1,1.0,0.5299009999998816
785,3,0.2,0.125,35.0,-1,0.0,0.2692019999999502
786,3,0.2,0.0625,35.0,1,1.0,0.3107010000003356
787,3,0.2,0.125,35.0,1,1.0,0.3659010000001217
788,3,0.2,0.0625,-35.0,-1,1.0,0.2853020000002289
789,3,0.2,0.0,35.0,-1,0.0,13.846401000000242
790,3,0.2,0.25,35.0,1,1.0,0.3910009999999602
791,3,0.2,0.0,35.0,-1,0.0,23.560001000000284
792,3,0.2,0.25,-35.0,-1,1.0,10.05530200000021
793,3,0.2,1.0,35.0,1,1.0,2.9375020000002223
794,3,0.2,0.25,35.0,1,1.0,2.352602000000388
795,3,0.2,0.0,35.0,1,1.0,0.3546020000003409
796,3,0.2,0.0,35.0,1,1.0,1.4502019999999902
797,3,0.2,1.0,-35.0,-1,1.0,0.2982010000005175
798,3,0.8,0.125,-35.0,-1,1.0,0.41320200000018303
799,3,0.8,0.25,-35.0,-1,1.0,3.855000999999902
800,3,0.8,0.0,-35.0,1,0.0,0.5253010000005816
801,3,0.8,1.0,-35.0,-1,1.0,0.4033009999998285
802,3,0.8,0.25,35.0,1,1.0,0.4223010000000613
803,3,0.8,0.0,-35.0,-1,1.0,0.22310200000038094
804,3,0.8,1.0,-35.0,-1,1.0,0.39540100000021994
805,3,0.8,0.125,-35.0,-1,1.0,7.903402000000369
806,3,0.8,1.0,-35.0,-1,1.0,0.30260100000032253
1,4,0.5,0.125,-35.0,-1,1.0,0.4790000000000003
2,4,0.5,0.125,35.0,1,1.0,0.4128999999999996
3,4,0.5,0.125,35.0,1,1.0,0.35829999999999984
4,4,0.5,1.0,-35.0,-1,1.0,0.24050000000000082
5,4,0.5,1.0,-35.0,-1,1.0,0.6517000000000017
6,4,0.5,0.0,35.0,1,1.0,0.49529899999999927
7,4,0.5,0.25,35.0,1,1.0,0.3825990000000026
8,4,0.5,0.25,35.0,1,1.0,0.46389999999999887
9,4,0.5,0.25,-35.0,-1,1.0,0.23789999999999978
10,4,0.5,0.0625,-35.0,1,0.0,0.30129899999999665
11,4,0.5,0.0625,-35.0,-1,1.0,3.7444989999999976
12,4,0.5,0.0625,-35.0,1,0.0,2.8138000000000076
13,4,0.5,0.0,-35.0,1,0.0,27.883100000000006
14,4,0.5,0.0625,-35.0,-1,1.0,0.23649999999999238
15,4,0.5,0.125,35.0,1,1.0,2.517199000000005
16,4,0.5,0.25,-35.0,-1,1.0,8.178499000000002
17,4,0.5,0.25,35.0,1,1.0,0.5422000000000082
18,4,0.5,0.0,-35.0,1,0.0,0.4066000000000116
19,4,0.5,1.0,35.0,1,1.0,0.3916989999999885
20,4,0.5,0.25,-35.0,-1,1.0,2.001800000000003
21,4,0.5,0.125,-35.0,-1,1.0,6.296899999999994
22,4,0.5,0.125,35.0,1,1.0,5.497999999999962
23,4,0.5,0.0625,35.0,1,1.0,3.5241989999999817
24,4,0.5,1.0,35.0,1,1.0,2.187298999999996
25,4,0.5,0.0625,35.0,1,1.0,0.5829989999999725
26,4,0.5,0.0,-35.0,1,0.0,0.7423999999999751
27,4,0.5,0.125,-35.0,-1,1.0,0.2482989999999745
28,4,0.5,0.25,-35.0,-1,1.0,0.266399999999976
29,4,0.5,0.125,35.0,-1,0.0,2.491098999999963
30,4,0.5,1.0,35.0,1,1.0,0.30919899999997824
31,4,0.5,0.0,35.0,-1,0.0,0.41259899999997174
32,4,0.5,0.0,-35.0,1,0.0,7.738098999999977
33,4,0.5,0.125,35.0,1,1.0,0.3061989999999639
34,4,0.5,0.0,-35.0,-1,1.0,1.3307999999999538
35,4,0.5,0.25,35.0,1,1.0,0.4420000000000073
36,4,0.5,0.25,35.0,-1,0.0,1.7933999999999628
37,4,0.5,0.25,-35.0,-1,1.0,0.30639899999997056
38,4,0.5,0.0625,35.0,1,1.0,0.941299999999984
39,4,0.5,1.0,35.0,1,1.0,0.4064989999999682
40,4,0.5,0.125,-35.0,-1,1.0,2.135300000000001
41,4,0.5,1.0,-35.0,-1,1.0,0.21999899999997297
42,4,0.5,0.0,-35.0,-1,1.0,0.2524999999999977
43,4,0.5,0.125,35.0,-1,0.0,3.236298999999974
44,4,0.5,1.0,-35.0,-1,1.0,7.017398999999983
45,4,0.5,1.0,35.0,1,1.0,0.4714989999999659
46,4,0.5,1.0,35.0,1,1.0,0.5364989999999921
47,4,0.5,1.0,35.0,1,1.0,3.973499000000004
48,4,0.5,0.0625,35.0,1,1.0,5.972599000000059
49,4,0.5,0.25,35.0,1,1.0,0.6077000000000226
50,4,0.5,0.0625,-35.0,1,0.0,12.248299000000031
51,4,0.5,0.0,35.0,1,1.0,3.2085989999999924
52,4,0.5,0.125,-35.0,-1,1.0,2.0147000000000617
53,4,0.5,1.0,35.0,1,1.0,3.5153000000000247
54,4,0.5,0.0,-35.0,1,0.0,10.153800000000047
55,4,0.5,0.0625,35.0,-1,0.0,2.3468999999999482
56,4,0.5,0.0625,35.0,-1,0.0,0.6117000000000417
57,4,0.5,0.0625,-35.0,-1,1.0,2.9571000000000254
58,4,0.5,0.25,35.0,1,1.0,0.4744000000000028
59,4,0.5,1.0,-35.0,-1,1.0,0.19339900000005628
60,4,0.5,0.0625,-35.0,-1,1.0,2.725299000000007
61,4,0.5,0.0625,35.0,1,1.0,18.133999999999958
62,4,0.5,0.0625,35.0,1,1.0,0.4621000000000208
63,4,0.5,0.25,-35.0,-1,1.0,3.118299000000036
64,4,0.5,0.125,-35.0,-1,1.0,0.2451000000000363
65,4,0.5,0.25,-35.0,-1,1.0,0.19259900000002972
66,4,0.5,0.25,-35.0,-1,1.0,2.5913000000000466
67,4,0.5,1.0,35.0,1,1.0,2.605200000000025
68,4,0.5,0.0625,35.0,1,1.0,15.821300000000065
69,4,0.5,0.125,35.0,1,1.0,4.712400000000002
70,4,0.5,0.0625,35.0,1,1.0,7.561498999999969
71,4,0.5,0.125,-35.0,-1,1.0,15.090199999999982
72,4,0.5,0.0625,-35.0,-1,1.0,11.250698999999997
73,4,0.5,1.0,35.0,1,1.0,0.4126990000000319
74,4,0.5,1.0,35.0,1,1.0,0.44859900000005837
75,4,0.5,0.25,-35.0,1,0.0,7.633299000000079
76,4,0.5,0.0625,35.0,1,1.0,0.495900000000006
77,4,0.5,1.0,-35.0,-1,1.0,0.2791990000000055
78,4,0.5,1.0,35.0,1,1.0,0.41069900000002235
79,4,0.5,1.0,35.0,1,1.0,3.0527999999999906
80,4,0.5,0.25,-35.0,-1,1.0,4.693599000000063
81,4,0.5,0.0,35.0,1,1.0,0.5314989999999398
82,4,0.5,0.125,-35.0,1,0.0,26.38249899999994
83,4,0.5,0.25,-35.0,1,0.0,1.1759989999999334
84,4,0.5,0.25,-35.0,-1,1.0,5.254198999999858
85,4,0.5,0.125,35.0,1,1.0,4.843099000000052
86,4,0.5,0.125,-35.0,-1,1.0,7.017099999999914
87,4,0.5,0.0625,35.0,1,1.0,0.8000990000000456
88,4,0.5,0.125,-35.0,-1,1.0,16.954099999999926
89,4,0.5,0.0625,35.0,1,1.0,4.248198999999886
90,4,0.5,0.25,35.0,1,1.0,0.35259899999994104
91,4,0.2,0.125,-35.0,1,0.0,8.65930000000003
92,4,0.2,0.0625,35.0,1,1.0,0.36429899999995996
93,4,0.2,0.0625,-35.0,-1,1.0,0.4116989999999987
94,4,0.2,0.25,35.0,1,1.0,0.4136999999999489
95,4,0.2,0.0,35.0,1,1.0,5.620199999999954
96,4,0.2,0.25,35.0,1,1.0,2.3964999999999463
97,4,0.2,1.0,35.0,1,1.0,0.3956999999999198
98,4,0.2,0.0,35.0,1,1.0,0.6422999999999774
99,4,0.2,0.0625,35.0,1,1.0,2.784599999999841
100,4,0.2,0.0625,35.0,1,1.0,0.40260000000000673
101,4,0.2,0.0,35.0,1,1.0,0.47259999999994307
102,4,0.2,0.0625,35.0,1,1.0,0.845098999999891
103,4,0.2,1.0,-35.0,-1,1.0,0.4419000000000324
104,4,0.2,0.0,35.0,1,1.0,0.3066989999999805
105,4,0.2,0.0,35.0,1,1.0,7.017598999999905
106,4,0.2,0.0,35.0,1,1.0,0.4402989999998681
107,4,0.2,1.0,35.0,1,1.0,3.661799999999971
108,4,0.2,1.0,35.0,1,1.0,0.38849899999991067
109,4,0.2,0.125,35.0,1,1.0,0.4915999999999485
110,4,0.2,0.125,35.0,1,1.0,2.4418999999999187
111,4,0.2,0.25,35.0,1,1.0,0.21279900000001817
112,4,0.8,0.0,-35.0,1,0.0,0.29099999999994
113,4,0.8,0.0,-35.0,1,0.0,23.8898989999999
114,4,0.8,0.125,-35.0,-1,1.0,4.243799999999965
115,4,0.8,1.0,-35.0,-1,1.0,0.44079999999996744
116,4,0.8,1.0,-35.0,-1,1.0,0.35399999999992815
117,4,0.8,1.0,-35.0,-1,1.0,0.34799999999995634
118,4,0.8,0.0625,-35.0,1,0.0,1.4610989999998765
119,4,0.8,0.25,-35.0,-1,1.0,12.64109899999994
120,4,0.8,0.0625,-35.0,-1,1.0,14.416199000000006
121,4,0.8,0.0625,35.0,1,1.0,2.9702999999998383
122,4,0.8,0.25,-35.0,-1,1.0,0.3517990000000282
123,4,0.8,0.0625,-35.0,1,0.0,0.5973989999999958
124,4,0.8,0.0,-35.0,1,0.0,52.623898999999824
125,4,0.8,0.125,-35.0,-1,1.0,0.4236989999999423
126,4,0.8,0.25,-35.0,-1,1.0,0.3789999999999054
127,4,0.8,0.0625,-35.0,1,0.0,3.94380000000001
128,4,0.8,0.125,-35.0,-1,1.0,2.7498990000000276
129,4,0.8,0.125,-35.0,-1,1.0,0.26969899999994595
130,4,0.8,1.0,-35.0,-1,1.0,2.4772999999999
131,4,0.8,0.0625,-35.0,1,0.0,9.44679999999994
132,4,0.8,1.0,-35.0,-1,1.0,3.1569990000000416
133,4,0.8,1.0,-35.0,-1,1.0,2.659799000000021
134,4,0.8,0.25,-35.0,-1,1.0,2.2021989999999505
135,4,0.8,0.0,-35.0,-1,1.0,10.604898999999932
136,4,0.8,0.25,-35.0,-1,1.0,1.9701000000000022
137,4,0.8,0.25,35.0,1,1.0,0.563998999999967
138,4,0.8,0.0,35.0,1,1.0,14.338100000000054
139,4,0.8,0.0,-35.0,1,0.0,35.99619999999993
140,4,0.8,0.125,-35.0,-1,1.0,4.885299999999916
141,4,0.8,1.0,-35.0,-1,1.0,0.3073989999998048
142,4,0.8,0.25,-35.0,1,0.0,5.292400000000043
143,4,0.8,0.125,35.0,1,1.0,5.670499999999947
144,4,0.8,1.0,-35.0,-1,1.0,0.2723999999998341
145,4,0.8,0.25,-35.0,-1,1.0,0.3209990000000289
146,4,0.8,0.125,-35.0,-1,1.0,0.2862990000000991
147,4,0.8,0.125,35.0,1,1.0,0.3636989999999969
148,4,0.8,0.0,35.0,1,1.0,8.476298999999699
149,4,0.8,0.25,-35.0,-1,1.0,2.170599999999922
150,4,0.8,0.0625,35.0,1,1.0,0.9099989999997433
151,4,0.8,0.25,-35.0,-1,1.0,0.5818000000001575
