trial_num,session_num,stim_probability_left,contrast,position,response_choice,trial_correct,reaction_time
1,1,0.5,0.0625,-35.0,1,0.0,0.24560000000000004
2,1,0.5,1.0,35.0,1,1.0,0.2001009999999992
3,1,0.5,1.0,35.0,1,1.0,0.22710099999999933
4,1,0.5,0.125,-35.0,-1,1.0,0.10100100000000012
5,1,0.5,0.0625,35.0,1,1.0,0.2978999999999985
6,1,0.5,0.0,-35.0,-1,1.0,0.4614009999999986
7,1,0.5,1.0,35.0,1,1.0,0.19050100000000114
8,1,0.5,0.125,35.0,1,1.0,0.19209999999999994
9,1,0.5,1.0,-35.0,-1,1.0,0.2086010000000016
10,1,0.5,0.25,-35.0,-1,1.0,0.1980000000000075
11,1,0.5,1.0,35.0,1,1.0,0.21220000000000283
12,1,0.5,0.25,-35.0,-1,1.0,0.27550000000000097
13,1,0.5,0.0,35.0,1,1.0,0.3063009999999977
14,1,0.5,0.25,-35.0,-1,1.0,0.25460100000000097
15,1,0.5,0.125,-35.0,-1,1.0,0.29170000000000584
16,1,0.5,0.125,-35.0,-1,1.0,0.5499000000000009
17,1,0.5,0.0625,35.0,1,1.0,0.30760000000000076
18,1,0.5,1.0,-35.0,-1,1.0,0.2582999999999913
19,1,0.5,0.0,-35.0,1,0.0,0.4534009999999995
20,1,0.5,0.0,35.0,-1,0.0,0.6935009999999977
21,1,0.5,0.25,35.0,1,1.0,0.24690100000000825
22,1,0.5,0.25,35.0,1,1.0,0.24560099999999352
23,1,0.5,0.25,35.0,1,1.0,0.19670000000000698
24,1,0.5,0.0625,35.0,1,1.0,0.23290000000000077
25,1,0.5,0.0625,-35.0,-1,1.0,0.47049999999998704
26,1,0.5,0.0625,35.0,1,1.0,0.2658010000000104
27,1,0.5,0.125,35.0,1,1.0,0.22790099999998858
28,1,0.5,0.0,35.0,-1,0.0,2.278000999999989
29,1,0.5,0.125,-35.0,-1,1.0,0.2897999999999996
30,1,0.5,0.0625,35.0,1,1.0,0.24450000000000216
31,1,0.5,0.0,35.0,-1,0.0,1.7409999999999997
32,1,0.5,0.25,-35.0,-1,1.0,0.28950099999998713
33,1,0.5,0.25,35.0,1,1.0,0.13260100000000818
34,1,0.5,0.0625,35.0,1,1.0,0.22969999999999402
35,1,0.5,0.25,-35.0,-1,1.0,0.276299999999992
36,1,0.5,0.125,-35.0,-1,1.0,0.2536009999999749
37,1,0.5,0.125,35.0,1,1.0,0.3091999999999757
38,1,0.5,0.25,35.0,1,1.0,0.1969999999999743
39,1,0.5,0.0625,35.0,1,1.0,0.24920000000000186
40,1,0.5,0.0,-35.0,1,0.0,0.2756999999999721
41,1,0.5,0.125,-35.0,-1,1.0,0.40269999999998163
42,1,0.5,0.0,35.0,1,1.0,1.4686010000000067
43,1,0.5,0.0625,-35.0,-1,1.0,0.4399999999999693
44,1,0.5,0.0625,-35.0,-1,1.0,0.36179999999998813
45,1,0.5,1.0,-35.0,-1,1.0,0.30770099999998024
46,1,0.5,1.0,-35.0,-1,1.0,0.3697999999999979
47,1,0.5,0.0,-35.0,1,0.0,0.7287000000000035
48,1,0.5,0.0625,-35.0,-1,1.0,0.7297999999999831
49,1,0.5,0.0,-35.0,-1,1.0,1.987799999999993
50,1,0.5,1.0,-35.0,-1,1.0,0.2628999999999735
51,1,0.5,0.25,-35.0,-1,1.0,0.6117000000000132
52,1,0.5,0.25,-35.0,-1,1.0,0.3179009999999778
53,1,0.5,0.0,35.0,1,1.0,1.347900999999979
54,1,0.5,1.0,35.0,1,1.0,0.20300100000000043
55,1,0.5,0.125,-35.0,-1,1.0,0.32620000000000005
56,1,0.5,0.125,35.0,1,1.0,0.2250009999999918
57,1,0.5,0.25,-35.0,-1,1.0,0.320100999999994
58,1,0.5,0.0,-35.0,1,0.0,0.3520009999999729
59,1,0.5,0.25,-35.0,-1,1.0,0.3069009999999537
60,1,0.5,0.25,-35.0,-1,1.0,0.22470099999998183
61,1,0.5,1.0,35.0,1,1.0,0.22199999999998
62,1,0.5,0.125,35.0,1,1.0,0.22709999999997876
63,1,0.5,0.0625,35.0,1,1.0,0.27309999999997103
64,1,0.5,1.0,-35.0,-1,1.0,0.30920000000000414
65,1,0.5,0.0,35.0,1,1.0,0.2813009999999849
66,1,0.5,0.125,35.0,1,1.0,0.26220099999997615
67,1,0.5,1.0,-35.0,-1,1.0,0.2951009999999883
68,1,0.5,1.0,35.0,1,1.0,0.22119999999998186
69,1,0.5,0.25,35.0,1,1.0,0.2105009999999936
70,1,0.5,0.0,35.0,-1,0.0,0.8183999999999969
71,1,0.5,0.0,35.0,1,1.0,0.5641999999999712
72,1,0.5,0.125,-35.0,-1,1.0,0.2792999999999779
73,1,0.5,0.0625,-35.0,1,0.0,0.268400999999983
74,1,0.5,0.0,35.0,-1,0.0,1.2364000000000033
75,1,0.5,0.0,-35.0,-1,1.0,0.7644010000000208
76,1,0.5,0.0,-35.0,-1,1.0,2.456400999999971
77,1,0.5,0.0,35.0,-1,0.0,0.3517999999999688
78,1,0.5,0.0,35.0,-1,0.0,2.6362000000000307
79,1,0.5,0.0,35.0,-1,0.0,0.8040009999999711
80,1,0.5,0.25,-35.0,-1,1.0,0.37150099999996655
81,1,0.5,0.125,35.0,1,1.0,0.25500099999999293
82,1,0.5,0.0,35.0,1,1.0,0.4474999999999909
83,1,0.5,0.125,-35.0,-1,1.0,0.2810010000000034
84,1,0.5,1.0,-35.0,-1,1.0,0.140500999999972
85,1,0.5,0.125,35.0,1,1.0,0.09559999999993352
86,1,0.5,0.25,35.0,1,1.0,0.2225999999999999
87,1,0.5,0.25,35.0,1,1.0,0.18640000000004875
88,1,0.5,0.0625,35.0,1,1.0,0.2515000000000214
89,1,0.5,0.0625,35.0,1,1.0,0.27940000000000964
90,1,0.5,0.0625,-35.0,-1,1.0,0.5956009999999878
91,1,0.2,0.125,-35.0,-1,1.0,0.3667010000000346
92,1,0.2,0.125,35.0,1,1.0,0.2718999999999596
93,1,0.2,0.125,35.0,1,1.0,1.4336010000000101
94,1,0.2,0.0625,35.0,1,1.0,0.25169999999997117
95,1,0.2,1.0,35.0,1,1.0,0.18909999999993943
96,1,0.2,1.0,35.0,1,1.0,0.17680100000001175
97,1,0.2,0.0,35.0,1,1.0,2.14609999999999
98,1,0.2,0.125,-35.0,-1,1.0,0.3055999999999699
99,1,0.2,0.0,-35.0,-1,1.0,0.5020009999999502
100,1,0.2,0.25,35.0,1,1.0,0.4254009999999653
101,1,0.2,0.125,35.0,1,1.0,0.24699999999995725
102,1,0.2,0.25,35.0,1,1.0,0.21780099999995173
103,1,0.2,0.0625,35.0,1,1.0,0.2925999999999931
104,1,0.2,1.0,-35.0,-1,1.0,0.20199999999999818
105,1,0.2,0.0625,35.0,1,1.0,0.22989999999998645
106,1,0.2,0.0,35.0,-1,0.0,0.0917999999999779
107,1,0.2,0.0,35.0,-1,0.0,0.7280010000000061
108,1,0.2,0.0,35.0,-1,0.0,1.6422999999999774
109,1,0.2,0.0625,-35.0,-1,1.0,0.5609009999999444
110,1,0.2,0.0,-35.0,-1,1.0,6.674099999999953
111,1,0.2,0.25,35.0,1,1.0,0.42119999999994207
112,1,0.2,0.0,35.0,-1,0.0,1.5020999999999276
113,1,0.2,0.0625,-35.0,1,0.0,0.38759999999996353
114,1,0.2,0.0625,35.0,1,1.0,0.3270999999999731
115,1,0.2,1.0,35.0,1,1.0,0.35210100000000466
116,1,0.2,0.0,35.0,-1,0.0,1.2001999999999953
117,1,0.2,0.0,35.0,1,1.0,0.3567000000000462
118,1,0.2,0.0,35.0,-1,0.0,3.750301000000036
119,1,0.2,0.25,-35.0,-1,1.0,0.09350099999994654
120,1,0.2,0.125,35.0,1,1.0,0.38130100000000766
121,1,0.2,0.0,35.0,1,1.0,2.4657000000000266
122,1,0.2,0.25,35.0,1,1.0,0.17440099999998893
123,1,0.2,1.0,35.0,1,1.0,0.18029999999998836
124,1,0.2,0.125,35.0,1,1.0,0.5304000000000428
125,1,0.2,0.0,-35.0,1,0.0,0.32540099999994254
126,1,0.2,0.125,35.0,1,1.0,0.273399999999981
127,1,0.2,0.25,35.0,1,1.0,0.2407999999999788
128,1,0.2,0.25,35.0,1,1.0,0.23469999999997526
129,1,0.2,0.0,35.0,-1,0.0,0.5733999999999924
130,1,0.2,0.0625,-35.0,-1,1.0,0.397500999999977
131,1,0.2,0.125,35.0,1,1.0,0.24869999999998527
132,1,0.2,0.0625,35.0,-1,0.0,2.95350099999996
133,1,0.2,0.0,35.0,-1,0.0,3.4201000000000477
134,1,0.2,0.0,35.0,-1,0.0,0.8025000000000091
135,1,0.2,1.0,35.0,1,1.0,0.2829999999999018
136,1,0.2,0.0625,35.0,1,1.0,0.32360099999993963
137,1,0.2,0.25,35.0,1,1.0,0.24920000000008713
138,1,0.2,0.0,35.0,1,1.0,0.21629999999993288
139,1,0.2,0.0,35.0,1,1.0,0.2722999999999729
140,1,0.2,1.0,35.0,1,1.0,0.19970100000000457
141,1,0.2,1.0,35.0,1,1.0,0.23080099999992854
142,1,0.2,1.0,35.0,1,1.0,0.2757000000000289
143,1,0.2,0.0625,-35.0,-1,1.0,0.31780000000003383
144,1,0.2,0.125,35.0,1,1.0,0.2097999999998592
145,1,0.2,0.0,35.0,1,1.0,0.40840099999991253
146,1,0.2,0.25,35.0,1,1.0,0.273900000000026
147,1,0.2,0.25,35.0,1,1.0,0.15369999999995798
148,1,0.2,0.0625,35.0,1,1.0,1.0608009999999695
149,1,0.2,0.25,-35.0,-1,1.0,0.1790009999998574
150,1,0.2,0.125,-35.0,-1,1.0,0.2519000000000915
151,1,0.2,0.0,35.0,1,1.0,0.2880999999999858
152,1,0.2,0.125,35.0,1,1.0,0.5578999999999041
153,1,0.2,0.25,35.0,1,1.0,0.1850010000000566
154,1,0.2,0.0625,35.0,-1,0.0,3.249001000000021
155,1,0.2,1.0,35.0,1,1.0,0.18299999999999272
156,1,0.8,1.0,-35.0,-1,1.0,1.1529999999999063
157,1,0.8,0.0,-35.0,1,0.0,0.441599999999994
158,1,0.8,1.0,-35.0,-1,1.0,0.2279999999999518
159,1,0.8,1.0,-35.0,-1,1.0,0.22380099999998038
160,1,0.8,0.25,-35.0,-1,1.0,0.21500000000003183
161,1,0.8,0.0,-35.0,1,0.0,0.5026010000000269
162,1,0.8,0.0,-35.0,-1,1.0,0.37619999999992615
163,1,0.8,0.0625,35.0,1,1.0,0.3000999999999294
164,1,0.8,0.125,-35.0,-1,1.0,0.33620099999996
165,1,0.8,0.0,-35.0,-1,1.0,1.314000999999962
166,1,0.8,0.25,35.0,1,1.0,0.2799009999999953
167,1,0.8,0.125,35.0,1,1.0,0.20539999999994052
168,1,0.8,0.0,-35.0,-1,1.0,0.4031999999999698
169,1,0.8,0.0625,-35.0,1,0.0,0.12390100000004622
170,1,0.8,0.25,-35.0,-1,1.0,0.2782009999999673
171,1,0.8,0.0,-35.0,1,0.0,0.2656000000000631
172,1,0.8,1.0,-35.0,-1,1.0,0.2498000000000502
173,1,0.8,0.0,-35.0,1,0.0,0.25270100000000184
174,1,0.8,0.125,-35.0,-1,1.0,0.24090000000001055
175,1,0.8,0.125,-35.0,-1,1.0,0.2656009999999469
176,1,0.8,0.0625,-35.0,-1,1.0,0.24630000000001928
177,1,0.8,0.0,-35.0,-1,1.0,2.8088999999998805
178,1,0.8,0.0625,-35.0,-1,1.0,1.777700999999979
179,1,0.8,1.0,-35.0,-1,1.0,0.13220099999989543
180,1,0.8,0.125,35.0,-1,0.0,0.5584000000001197
181,1,0.8,1.0,-35.0,-1,1.0,0.3606999999999516
182,1,0.8,0.125,35.0,1,1.0,0.2195000000000391
183,1,0.8,0.0,-35.0,-1,1.0,2.651399999999967
184,1,0.8,1.0,-35.0,-1,1.0,0.24280099999998583
185,1,0.8,0.0625,35.0,1,1.0,0.23959999999999582
186,1,0.8,0.125,-35.0,-1,1.0,0.29550000000006094
187,1,0.8,0.125,-35.0,-1,1.0,0.29060099999992417
188,1,0.8,1.0,-35.0,-1,1.0,0.2357009999998354
189,1,0.8,0.25,-35.0,-1,1.0,0.19270000000005894
190,1,0.8,1.0,-35.0,-1,1.0,0.25620100000003276
191,1,0.8,0.25,-35.0,-1,1.0,0.30300099999999475
192,1,0.8,0.25,-35.0,-1,1.0,0.14080000000001291
193,1,0.8,0.0,-35.0,1,0.0,0.3243009999999913
194,1,0.8,1.0,-35.0,-1,1.0,0.22030100000006314
195,1,0.8,1.0,-35.0,-1,1.0,0.24050099999999475
196,1,0.8,0.0625,35.0,1,1.0,0.2726999999999862
197,1,0.8,0.125,-35.0,-1,1.0,0.25270099999988815
198,1,0.8,1.0,-35.0,-1,1.0,0.20980099999997037
199,1,0.8,0.125,-35.0,-1,1.0,0.24680099999989125
200,1,0.8,0.0,-35.0,-1,1.0,0.4508009999999558
201,1,0.8,0.125,-35.0,-1,1.0,0.309900999999968
202,1,0.8,0.0625,35.0,1,1.0,0.27319999999986067
203,1,0.8,0.0625,-35.0,-1,1.0,0.2658000000000129
204,1,0.8,1.0,-35.0,-1,1.0,0.25
205,1,0.8,0.0625,-35.0,-1,1.0,0.8018999999999323
206,1,0.8,0.25,-35.0,-1,1.0,0.22769999999991342
207,1,0.8,0.0,-35.0,-1,1.0,0.7440000000000282
208,1,0.8,0.0,-35.0,-1,1.0,1.048900999999887
209,1,0.8,0.125,35.0,1,1.0,0.2980999999999767
210,1,0.8,0.0625,-35.0,-1,1.0,0.8632999999999811
211,1,0.8,0.25,-35.0,-1,1.0,0.21699999999998454
212,1,0.8,0.125,-35.0,-1,1.0,0.24300100000004932
213,1,0.8,0.0,-35.0,1,0.0,0.4151010000000497
214,1,0.8,0.0625,-35.0,-1,1.0,0.32209999999986394
215,1,0.8,0.0625,-35.0,-1,1.0,0.3381009999999378
216,1,0.8,1.0,-35.0,-1,1.0,0.23040100000002894
217,1,0.8,0.0,35.0,-1,0.0,0.10620000000005803
218,1,0.8,1.0,35.0,1,1.0,0.23220099999991817
219,1,0.8,0.25,-35.0,-1,1.0,0.2712010000000191
220,1,0.8,0.0,-35.0,1,0.0,0.25240099999996346
221,1,0.8,0.0625,-35.0,-1,1.0,0.4992010000000846
222,1,0.8,0.125,35.0,1,1.0,0.2919000000000551
223,1,0.8,0.25,-35.0,-1,1.0,0.191599999999994
224,1,0.8,0.0,-35.0,-1,1.0,2.8021009999999933
225,1,0.8,1.0,-35.0,-1,1.0,0.20420000000001437
226,1,0.8,0.25,-35.0,-1,1.0,0.39370100000007824
227,1,0.8,1.0,-35.0,-1,1.0,0.21129999999993743
228,1,0.8,0.0625,-35.0,1,0.0,0.2700999999999567
229,1,0.2,0.125,-35.0,-1,1.0,0.3074010000000271
230,1,0.2,0.0,35.0,-1,0.0,0.7346999999999753
231,1,0.2,0.0625,35.0,1,1.0,0.34239999999988413
232,1,0.2,0.125,35.0,1,1.0,0.2804999999999609
233,1,0.2,0.125,-35.0,-1,1.0,0.31749999999999545
234,1,0.2,1.0,35.0,1,1.0,0.19080099999996492
235,1,0.2,0.0,35.0,-1,0.0,0.6585010000000011
236,1,0.2,0.25,35.0,1,1.0,0.2802010000000337
237,1,0.2,0.0625,-35.0,-1,1.0,0.2865009999999302
238,1,0.2,0.125,35.0,-1,0.0,0.10939999999993688
239,1,0.2,1.0,35.0,1,1.0,0.24089999999989686
240,1,0.2,0.0,-35.0,1,0.0,0.3365009999999984
241,1,0.2,0.125,35.0,-1,0.0,0.2966999999999871
242,1,0.2,0.0,-35.0,-1,1.0,3.237000999999964
243,1,0.2,0.0625,-35.0,-1,1.0,1.3287010000000237
244,1,0.2,1.0,35.0,1,1.0,0.20060000000000855
245,1,0.2,0.125,-35.0,-1,1.0,0.33170000000006894
246,1,0.2,0.25,-35.0,-1,1.0,0.23509999999998854
247,1,0.2,0.25,35.0,1,1.0,0.22840099999996255
248,1,0.2,0.25,35.0,1,1.0,0.21000100000003386
249,1,0.2,1.0,35.0,1,1.0,0.241800000000012
250,1,0.2,0.0,35.0,1,1.0,1.9932000000000016
251,1,0.2,1.0,35.0,1,1.0,0.18029999999998836
252,1,0.2,0.0,-35.0,1,0.0,0.36940100000003895
253,1,0.2,0.0625,35.0,1,1.0,0.2518999999999778
254,1,0.2,0.125,35.0,1,1.0,0.25899999999990087
255,1,0.2,0.0625,35.0,1,1.0,0.24300100000004932
256,1,0.2,0.0625,35.0,1,1.0,0.2593010000000504
257,1,0.2,0.125,35.0,1,1.0,0.3039009999998825
258,1,0.2,1.0,35.0,1,1.0,0.18550099999993108
259,1,0.2,0.125,-35.0,-1,1.0,0.31910000000004857
260,1,0.2,1.0,35.0,1,1.0,0.17700000000002092
261,1,0.2,0.0625,35.0,-1,0.0,0.7940999999999576
262,1,0.2,0.0625,-35.0,-1,1.0,0.3668999999998732
263,1,0.2,0.0,35.0,-1,0.0,1.3850009999999884
264,1,0.2,0.125,35.0,-1,0.0,0.49699999999995725
265,1,0.2,1.0,35.0,1,1.0,0.23810100000014245
266,1,0.2,0.25,-35.0,-1,1.0,0.2872010000000955
267,1,0.2,0.25,35.0,1,1.0,0.2332010000000082
268,1,0.2,1.0,35.0,1,1.0,1.5106000000000677
269,1,0.2,0.25,35.0,1,1.0,0.37820000000010623
270,1,0.2,0.125,35.0,1,1.0,0.4110000000000582
271,1,0.2,0.0625,35.0,1,1.0,0.2616010000001552
272,1,0.2,0.0,35.0,1,1.0,0.28120000000012624
273,1,0.2,1.0,35.0,1,1.0,0.21630000000027394
274,1,0.2,1.0,35.0,1,1.0,0.21140100000025086
275,1,0.2,0.25,35.0,1,1.0,0.2803999999998723
276,1,0.2,0.0625,-35.0,-1,1.0,0.8848000000002685
277,1,0.2,0.25,-35.0,-1,1.0,0.2243999999998323
278,1,0.2,0.125,35.0,1,1.0,0.28190000000040527
279,1,0.2,0.125,35.0,-1,0.0,0.136400999999978
280,1,0.2,0.0625,35.0,1,1.0,0.30500099999994745
281,1,0.2,0.0,35.0,-1,0.0,1.9746010000001206
282,1,0.2,0.0,-35.0,-1,1.0,2.895400000000336
283,1,0.2,0.0,35.0,-1,0.0,4.323499999999967
284,1,0.2,0.0625,35.0,-1,0.0,1.6225000000001728
285,1,0.2,0.125,35.0,-1,0.0,0.898801000000276
286,1,0.2,0.25,-35.0,-1,1.0,0.5725000000002183
287,1,0.2,0.125,35.0,1,1.0,0.3147000000001299
288,1,0.2,0.25,-35.0,-1,1.0,1.3794010000001435
289,1,0.2,0.25,35.0,1,1.0,0.18260000000009313
290,1,0.2,0.0,35.0,1,1.0,0.27270000000021355
291,1,0.2,0.0,35.0,-1,0.0,4.006601000000046
292,1,0.2,0.125,35.0,1,1.0,0.43990100000019083
293,1,0.2,0.125,-35.0,-1,1.0,0.3267000000000735
294,1,0.2,0.125,35.0,1,1.0,0.29330000000004475
295,1,0.2,0.125,35.0,1,1.0,0.11070100000006278
296,1,0.2,0.0625,35.0,1,1.0,0.31690100000014354
297,1,0.2,1.0,35.0,1,1.0,0.307901000000129
298,1,0.2,1.0,35.0,1,1.0,0.23679999999990287
299,1,0.2,1.0,35.0,1,1.0,0.10900100000003476
300,1,0.2,0.25,-35.0,-1,1.0,0.2705000000000837
301,1,0.2,0.0,35.0,1,1.0,1.3179000000000087
302,1,0.2,0.25,35.0,1,1.0,0.8872000000001208
303,1,0.2,0.0625,35.0,1,1.0,0.23590000000012878
304,1,0.2,0.25,-35.0,-1,1.0,0.39100100000018756
305,1,0.2,0.0625,35.0,1,1.0,0.26260100000013153
306,1,0.2,0.25,-35.0,-1,1.0,0.20090000000004693
307,1,0.2,0.125,35.0,1,1.0,0.22790099999997437
308,1,0.2,0.125,35.0,1,1.0,0.10770000000002256
309,1,0.2,0.0625,35.0,-1,0.0,2.028001000000131
310,1,0.2,1.0,-35.0,-1,1.0,0.3248000000000957
311,1,0.2,1.0,35.0,1,1.0,0.37100000000032196
312,1,0.2,0.0,35.0,-1,0.0,0.814701000000241
313,1,0.2,0.0625,35.0,1,1.0,0.34110000000009677
314,1,0.8,1.0,35.0,1,1.0,0.2514000000003307
315,1,0.8,0.25,35.0,1,1.0,0.25460000000020955
316,1,0.8,1.0,-35.0,-1,1.0,0.33520100000009734
317,1,0.8,1.0,-35.0,-1,1.0,0.23820100000011735
318,1,0.8,0.0,35.0,1,1.0,0.245401000000129
319,1,0.8,0.0,35.0,-1,0.0,1.490199999999959
320,1,0.8,1.0,35.0,1,1.0,0.25860000000011496
321,1,0.8,1.0,-35.0,-1,1.0,1.6342000000001917
322,1,0.8,0.0,-35.0,-1,1.0,2.6356000000000677
323,1,0.8,1.0,-35.0,-1,1.0,0.17240000000015243
324,1,0.8,0.25,-35.0,-1,1.0,0.2759000000000924
325,1,0.8,1.0,-35.0,-1,1.0,0.24040100000024722
326,1,0.8,0.0625,-35.0,1,0.0,0.2494000000001506
327,1,0.8,0.0,-35.0,-1,1.0,0.8534010000000762
328,1,0.8,0.125,-35.0,-1,1.0,0.26300000000014734
329,1,0.8,0.0625,-35.0,-1,1.0,0.24450100000012753
330,1,0.8,0.25,-35.0,-1,1.0,0.46649999999999636
331,1,0.8,0.0,35.0,-1,0.0,1.680100000000266
332,1,0.8,1.0,-35.0,-1,1.0,0.25660100000004604
333,1,0.8,0.0625,35.0,1,1.0,0.8966009999999187
334,1,0.8,0.125,-35.0,-1,1.0,0.2536000000000058
335,1,0.8,0.125,-35.0,-1,1.0,0.3296010000001388
336,1,0.8,0.125,-35.0,-1,1.0,0.2470010000001821
337,1,0.8,0.0,35.0,-1,0.0,1.4006000000001677
338,1,0.8,0.25,35.0,1,1.0,0.2640000000001237
339,1,0.8,0.0625,35.0,-1,0.0,0.4166010000001279
340,1,0.8,0.0,-35.0,1,0.0,1.8273010000002614
341,1,0.8,1.0,-35.0,-1,1.0,0.38170100000002094
342,1,0.8,0.125,-35.0,-1,1.0,0.23769999999990432
343,1,0.8,0.0625,-35.0,-1,1.0,0.20870000000013533
344,1,0.8,0.0625,35.0,1,1.0,0.40780000000017935
345,1,0.8,0.0,-35.0,1,0.0,0.5208000000002357
346,1,0.8,0.0,-35.0,-1,1.0,4.951200999999855
347,1,0.8,0.0625,35.0,1,1.0,0.34280100000000857
348,1,0.8,0.0625,-35.0,-1,1.0,0.3582000000001244
349,1,0.8,0.125,-35.0,-1,1.0,4.004599999999982
350,1,0.8,0.25,-35.0,-1,1.0,0.32840100000021266
351,1,0.8,0.125,-35.0,-1,1.0,0.3809009999999944
352,1,0.8,1.0,-35.0,-1,1.0,0.3419000000001233
353,1,0.8,0.0,-35.0,-1,1.0,2.985600000000204
354,1,0.8,0.0625,-35.0,1,0.0,0.34540000000015425
355,1,0.8,0.0,-35.0,1,0.0,0.13520100000027924
356,1,0.8,0.0,-35.0,-1,1.0,0.9791000000002441
357,1,0.8,1.0,-35.0,-1,1.0,0.3322000000000571
358,1,0.8,0.0625,-35.0,-1,1.0,0.14920100000017555
359,1,0.2,1.0,35.0,1,1.0,0.20600100000001476
360,1,0.2,0.0,35.0,-1,0.0,1.7494010000002618
361,1,0.2,0.125,-35.0,-1,1.0,0.4858010000000377
362,1,0.2,0.125,-35.0,-1,1.0,0.79950000000008
363,1,0.2,0.0,-35.0,-1,1.0,0.9275010000001203
364,1,0.2,0.0625,-35.0,-1,1.0,0.5164000000002034
365,1,0.2,1.0,35.0,1,1.0,0.18980000000010477
366,1,0.2,0.125,-35.0,-1,1.0,0.283301000000165
367,1,0.2,0.125,35.0,1,1.0,0.2533000000003085
368,1,0.2,1.0,35.0,1,1.0,0.18329999999991742
369,1,0.2,0.0,35.0,1,1.0,0.32530100000008133
370,1,0.2,0.25,-35.0,-1,1.0,0.3604010000001381
371,1,0.2,0.125,35.0,1,1.0,0.2374010000000908
372,1,0.2,0.125,35.0,-1,0.0,0.35730000000012296
373,1,0.2,0.25,35.0,1,1.0,0.301401000000169
374,1,0.2,0.0625,35.0,1,1.0,0.23420100000021193
375,1,0.2,0.25,35.0,1,1.0,0.265400000000227
376,1,0.2,0.0,35.0,1,1.0,0.2542000000000826
377,1,0.2,0.25,-35.0,-1,1.0,0.25549999999998363
378,1,0.2,0.0,35.0,-1,0.0,3.2976000000003296
379,1,0.2,1.0,-35.0,-1,1.0,0.3165000000001328
380,1,0.2,0.125,35.0,1,1.0,3.3181010000000697
381,1,0.2,1.0,35.0,1,1.0,0.15130000000021937
382,1,0.2,0.25,-35.0,-1,1.0,0.37480100000016137
383,1,0.8,0.0625,-35.0,-1,1.0,0.43160100000000057
384,1,0.8,0.0625,35.0,1,1.0,0.24510099999997692
385,1,0.8,1.0,35.0,1,1.0,0.17970000000013897
386,1,0.8,0.0625,35.0,1,1.0,0.18840100000011262
387,1,0.8,0.25,35.0,1,1.0,0.2288010000002032
388,1,0.8,0.0,35.0,1,1.0,0.31520000000000437
389,1,0.8,0.0,-35.0,1,0.0,2.5517010000000937
390,1,0.8,1.0,-35.0,-1,1.0,0.29870100000016464
391,1,0.8,1.0,-35.0,-1,1.0,0.21820000000002437
392,1,0.8,0.25,-35.0,-1,1.0,0.2591010000001006
393,1,0.8,0.0625,-35.0,-1,1.0,0.24280000000021573
394,1,0.8,0.0,-35.0,-1,1.0,0.17280000000005202
395,1,0.8,1.0,-35.0,-1,1.0,0.28389999999990323
396,1,0.8,1.0,-35.0,-1,1.0,0.4229000000000269
397,1,0.8,0.0625,-35.0,-1,1.0,1.326900999999907
398,1,0.8,0.25,-35.0,-1,1.0,0.22630000000026484
399,1,0.8,0.125,-35.0,-1,1.0,0.39300100000014027
400,1,0.8,0.0625,-35.0,-1,1.0,0.46320100000025377
401,1,0.8,0.125,35.0,1,1.0,0.16669999999999163
402,1,0.8,0.125,-35.0,-1,1.0,0.37999999999988177
403,1,0.8,0.0,35.0,-1,0.0,3.0217999999999847
404,1,0.8,0.125,-35.0,-1,1.0,0.267100000000255
405,1,0.8,0.25,-35.0,-1,1.0,1.2965999999998985
406,1,0.8,0.0625,-35.0,-1,1.0,0.3703010000001541
407,1,0.8,0.125,-35.0,-1,1.0,0.28820100000007187
408,1,0.8,0.0,-35.0,-1,1.0,0.9107010000000173
409,1,0.8,0.25,-35.0,-1,1.0,0.9504000000001724
410,1,0.8,0.25,-35.0,-1,1.0,0.6574010000001635
411,1,0.8,0.25,-35.0,-1,1.0,0.46039999999993597
412,1,0.8,0.0,-35.0,-1,1.0,0.39740099999994527
413,1,0.8,0.25,-35.0,-1,1.0,0.17030100000010862
414,1,0.8,1.0,-35.0,-1,1.0,0.36130100000013954
415,1,0.8,0.0,-35.0,-1,1.0,3.0648000000001048
416,1,0.8,0.125,-35.0,1,0.0,0.40170100000000275
417,1,0.8,0.0625,-35.0,-1,1.0,0.29740000000015243
418,1,0.8,1.0,-35.0,-1,1.0,0.2915009999999256
419,1,0.8,0.0,35.0,-1,0.0,20.516400000000203
420,1,0.8,0.0,35.0,-1,0.0,1.7988000000000284
421,1,0.8,0.25,-35.0,-1,1.0,0.5436010000000806
422,1,0.8,0.0625,-35.0,-1,1.0,4.3794010000001435
423,1,0.8,0.0,-35.0,-1,1.0,3.7989010000001144
424,1,0.8,0.25,35.0,1,1.0,0.549701000000141
425,1,0.8,0.25,35.0,1,1.0,0.34060100000010607
426,1,0.8,0.0,-35.0,1,0.0,0.5531000000000859
427,1,0.8,1.0,-35.0,-1,1.0,0.26099999999996726
428,1,0.8,0.125,-35.0,-1,1.0,0.9963000000000193
429,1,0.8,0.0,-35.0,-1,1.0,0.7195000000001528
430,1,0.8,0.0,-35.0,-1,1.0,3.2497010000001865
431,1,0.8,0.25,-35.0,-1,1.0,0.5218999999999596
432,1,0.8,1.0,-35.0,-1,1.0,0.25690099999997074
433,1,0.2,0.25,35.0,1,1.0,0.3679010000000744
434,1,0.2,0.0,35.0,1,1.0,1.0271010000001297
435,1,0.2,0.125,35.0,1,1.0,0.2989000000000033
436,1,0.2,1.0,35.0,1,1.0,0.21390100000007806
437,1,0.2,0.25,35.0,1,1.0,0.49489999999991596
438,1,0.2,0.0,35.0,-1,0.0,11.690601000000015
439,1,0.2,0.0625,-35.0,-1,1.0,0.46080000000006294
440,1,0.2,1.0,35.0,1,1.0,0.23760100000004059
441,1,0.2,0.0625,35.0,-1,0.0,1.5981999999999061
442,1,0.2,0.0,35.0,-1,0.0,7.8381010000000515
443,1,0.2,0.0,-35.0,-1,1.0,6.451201000000083
444,1,0.2,0.125,35.0,1,1.0,1.2384000000001834
445,1,0.2,0.125,35.0,1,1.0,1.971900000000005
446,1,0.2,0.0,-35.0,-1,1.0,0.7822010000002138
447,1,0.2,0.0625,35.0,1,1.0,0.30930000000012114
448,1,0.2,0.0625,35.0,1,1.0,0.44540100000017446
449,1,0.2,0.0,35.0,1,1.0,1.9773000000000138
450,1,0.2,0.125,-35.0,-1,1.0,0.5956010000002152
451,1,0.2,0.0,35.0,-1,0.0,9.547399999999925
452,1,0.2,0.0625,35.0,1,1.0,0.37950000000023465
453,1,0.2,0.0,35.0,-1,0.0,5.052400999999918
454,1,0.2,0.125,35.0,1,1.0,0.8365000000001146
455,1,0.2,0.25,35.0,1,1.0,0.23050100000000384
456,1,0.2,1.0,35.0,1,1.0,0.22990100000015445
457,1,0.2,0.25,35.0,1,1.0,0.17660100000034618
458,1,0.2,0.0625,35.0,1,1.0,0.3499010000000453
459,1,0.2,0.25,35.0,1,1.0,0.7466010000002825
460,1,0.2,1.0,35.0,1,1.0,0.17020000000002256
461,1,0.2,0.0,35.0,1,1.0,2.118600000000015
462,1,0.2,0.125,35.0,1,1.0,0.31710100000009334
463,1,0.2,0.25,-35.0,-1,1.0,0.43770000000017717
464,1,0.2,0.0,35.0,1,1.0,0.26730099999986123
465,1,0.2,0.0,35.0,1,1.0,3.60870100000011
466,1,0.2,0.0625,-35.0,-1,1.0,0.3706999999999425
467,1,0.2,0.0,-35.0,-1,1.0,2.6668010000000777
468,1,0.2,0.0,35.0,-1,0.0,3.0277000000000953
469,1,0.2,0.125,35.0,1,1.0,0.22380000000021028
470,1,0.2,0.0,-35.0,-1,1.0,0.48450099999990925
471,1,0.2,0.25,-35.0,-1,1.0,0.24290000000019063
472,1,0.2,0.25,35.0,1,1.0,0.2613000000001193
473,1,0.2,0.0,35.0,-1,0.0,1.866901000000098
474,1,0.2,1.0,35.0,1,1.0,0.22839999999996508
475,1,0.8,1.0,35.0,1,1.0,0.2740009999999984
476,1,0.8,1.0,-35.0,-1,1.0,0.37510000000020227
477,1,0.8,0.125,35.0,1,1.0,0.2940009999999802
478,1,0.8,1.0,-35.0,-1,1.0,0.24200100000007296
479,1,0.8,0.0625,35.0,1,1.0,0.3400000000001455
480,1,0.8,0.125,35.0,1,1.0,0.6754009999999653
481,1,0.8,0.125,-35.0,-1,1.0,0.2657000000001517
482,1,0.8,0.0625,-35.0,-1,1.0,0.5323009999999613
483,1,0.8,0.125,-35.0,-1,1.0,0.457100999999966
484,1,0.8,1.0,35.0,1,1.0,0.22240000000010696
485,1,0.8,0.125,-35.0,-1,1.0,0.5471010000001115
486,1,0.8,0.0625,-35.0,-1,1.0,0.5894010000001799
487,1,0.8,0.0,35.0,1,1.0,0.6811000000000149
488,1,0.8,0.125,-35.0,-1,1.0,0.5427999999999429
489,1,0.8,1.0,-35.0,-1,1.0,0.41920100000015736
490,1,0.8,0.125,-35.0,-1,1.0,0.2933000000002721
491,1,0.8,1.0,-35.0,-1,1.0,0.2702009999998154
492,1,0.8,1.0,-35.0,-1,1.0,0.2598009999996975
493,1,0.8,0.0625,-35.0,-1,1.0,0.3492999999998574
494,1,0.8,0.0625,-35.0,-1,1.0,0.9499000000000706
495,1,0.8,0.0625,-35.0,1,0.0,0.5562999999997373
496,1,0.8,0.25,35.0,1,1.0,0.2403999999996813
497,1,0.8,0.0625,-35.0,-1,1.0,0.4563999999995758
498,1,0.8,0.25,-35.0,-1,1.0,0.17060099999980594
499,1,0.8,0.0625,-35.0,-1,1.0,0.6343999999999141
500,1,0.8,0.0,-35.0,1,0.0,0.3773999999998523
501,1,0.8,1.0,-35.0,-1,1.0,0.13850099999990562
502,1,0.8,0.25,-35.0,-1,1.0,0.33410100000037346
503,1,0.8,0.0625,-35.0,-1,1.0,0.6825009999997746
504,1,0.8,0.0,-35.0,1,0.0,0.30090100000006714
505,1,0.8,0.125,-35.0,-1,1.0,0.27149999999983265
506,1,0.8,0.125,-35.0,-1,1.0,0.30460100000027523
507,1,0.8,1.0,-35.0,-1,1.0,0.30080099999986487
508,1,0.8,0.0,-35.0,-1,1.0,1.9445999999998094
509,1,0.8,0.25,-35.0,-1,1.0,0.2616010000001552
510,1,0.8,0.125,-35.0,-1,1.0,0.42139999999972133
511,1,0.8,0.25,-35.0,-1,1.0,0.4406999999996515
512,1,0.8,0.0,-35.0,-1,1.0,1.5248000000001412
513,1,0.8,1.0,-35.0,-1,1.0,0.25609999999960564
514,1,0.8,0.0625,-35.0,-1,1.0,0.3049999999998363
515,1,0.2,0.125,35.0,1,1.0,0.31280000000015207
516,1,0.2,1.0,-35.0,-1,1.0,0.22210100000029342
517,1,0.2,0.0,35.0,-1,0.0,1.8182010000000446
518,1,0.2,0.0625,35.0,1,1.0,0.3688000000001921
519,1,0.2,1.0,35.0,1,1.0,0.19079999999985375
520,1,0.2,0.0625,-35.0,-1,1.0,1.049199999999928
521,1,0.2,0.125,35.0,1,1.0,0.2998999999999796
522,1,0.2,1.0,35.0,1,1.0,0.25290099999983795
523,1,0.2,1.0,35.0,1,1.0,0.20600100000001476
524,1,0.2,0.0,-35.0,-1,1.0,0.39289999999982683
525,1,0.2,0.25,35.0,1,1.0,0.26789999999982683
526,1,0.2,1.0,-35.0,-1,1.0,0.19310100000029706
527,1,0.2,0.25,35.0,1,1.0,0.2569999999996071
528,1,0.2,1.0,35.0,1,1.0,0.20319999999992433
529,1,0.2,0.25,-35.0,-1,1.0,0.22640000000001237
530,1,0.2,0.125,35.0,1,1.0,2.4403000000002066
531,1,0.2,0.25,-35.0,-1,1.0,0.40020099999992453
532,1,0.2,1.0,35.0,1,1.0,0.21350100000017846
533,1,0.2,0.0625,35.0,1,1.0,0.21920099999942977
534,1,0.2,0.125,35.0,1,1.0,0.3006009999999151
535,1,0.2,0.25,35.0,1,1.0,0.23720099999991362
536,1,0.2,0.25,35.0,1,1.0,0.2642000000000735
537,1,0.2,0.25,35.0,1,1.0,0.23389999999972133
538,1,0.2,0.0625,35.0,-1,0.0,5.037401000000045
539,1,0.2,1.0,35.0,1,1.0,0.1211009999997259
540,1,0.2,1.0,35.0,1,1.0,0.22460099999989325
541,1,0.2,0.125,35.0,1,1.0,0.22640000000001237
542,1,0.2,0.125,35.0,1,1.0,1.0281009999998787
543,1,0.2,0.0,-35.0,-1,1.0,0.4464010000001508
544,1,0.2,1.0,35.0,1,1.0,0.19789999999966312
545,1,0.2,1.0,-35.0,-1,1.0,0.26050100000020393
546,1,0.2,1.0,35.0,1,1.0,0.22210099999983868
547,1,0.2,1.0,35.0,1,1.0,0.22489999999970678
548,1,0.2,0.25,-35.0,-1,1.0,0.25209999999970023
549,1,0.2,0.25,35.0,1,1.0,0.2316000000000713
550,1,0.2,0.25,35.0,1,1.0,0.3318999999996777
551,1,0.2,1.0,35.0,1,1.0,0.19060099999978775
552,1,0.2,0.0625,35.0,1,1.0,0.27890000000024884
1,2,0.5,0.125,35.0,1,1.0,0.5010999999999999
2,2,0.5,0.125,35.0,1,1.0,0.398299999999999
3,2,0.5,0.125,35.0,1,1.0,0.4466000000000019
4,2,0.5,0.25,-35.0,-1,1.0,0.42579999999999885
5,2,0.5,0.25,-35.0,-1,1.0,0.38740100000000055
6,2,0.5,0.125,-35.0,-1,1.0,1.9467999999999996
7,2,0.5,0.0625,35.0,-1,0.0,2.8002009999999977
8,2,0.5,1.0,-35.0,-1,1.0,0.30160000000000764
9,2,0.5,1.0,35.0,1,1.0,0.3342010000000073
10,2,0.5,0.25,-35.0,-1,1.0,0.41110100000000926
11,2,0.5,0.0,35.0,-1,0.0,5.733201000000001
12,2,0.5,0.125,35.0,1,1.0,0.3909010000000066
13,2,0.5,0.25,-35.0,-1,1.0,0.47120000000000317
14,2,0.5,1.0,35.0,1,1.0,0.7107010000000002
15,2,0.5,0.0,35.0,-1,0.0,0.7157000000000053
16,2,0.5,1.0,35.0,1,1.0,0.2605000000000075
17,2,0.5,0.25,-35.0,-1,1.0,0.4095000000000084
18,2,0.5,0.0625,35.0,-1,0.0,3.7390999999999934
19,2,0.5,1.0,35.0,1,1.0,0.3738999999999919
20,2,0.5,0.25,35.0,1,1.0,0.29009999999999536
21,2,0.5,0.0625,35.0,1,1.0,0.41679999999999495
22,2,0.5,0.125,-35.0,-1,1.0,0.33230100000000107
23,2,0.5,0.0,-35.0,-1,1.0,4.835700999999986
24,2,0.5,0.0625,-35.0,-1,1.0,0.5752999999999986
25,2,0.5,1.0,-35.0,-1,1.0,0.33740000000000236
26,2,0.5,0.0625,-35.0,-1,1.0,4.397999999999996
27,2,0.5,0.125,-35.0,-1,1.0,0.44200100000000475
28,2,0.5,0.125,35.0,1,1.0,0.9915009999999853
29,2,0.5,0.25,35.0,1,1.0,0.258199999999988
30,2,0.5,0.0625,-35.0,-1,1.0,0.3995999999999924
31,2,0.5,0.0625,35.0,1,1.0,0.35540000000000305
32,2,0.5,1.0,35.0,1,1.0,0.2460010000000068
33,2,0.5,0.0625,-35.0,1,0.0,0.3091000000000008
34,2,0.5,0.125,-35.0,-1,1.0,0.8112999999999886
35,2,0.5,0.0625,35.0,1,1.0,0.3081009999999935
36,2,0.5,0.0625,35.0,-1,0.0,3.660800999999992
37,2,0.5,0.0,35.0,-1,0.0,4.891899999999993
38,2,0.5,1.0,35.0,1,1.0,0.3092010000000016
39,2,0.5,1.0,-35.0,-1,1.0,0.4043010000000038
40,2,0.5,0.25,-35.0,-1,1.0,0.22730099999998288
41,2,0.5,0.0,-35.0,-1,1.0,3.74969999999999
42,2,0.5,0.125,35.0,1,1.0,0.4183009999999854
43,2,0.5,0.0,-35.0,1,0.0,1.0679009999999778
44,2,0.5,0.0,35.0,-1,0.0,1.9180999999999813
45,2,0.5,0.0625,35.0,1,1.0,0.28090100000000007
46,2,0.5,0.125,35.0,1,1.0,0.41340100000002167
47,2,0.5,1.0,-35.0,-1,1.0,2.629599999999982
48,2,0.5,0.0625,35.0,1,1.0,0.3470000000000084
49,2,0.5,0.125,-35.0,-1,1.0,0.7481999999999971
50,2,0.5,1.0,-35.0,-1,1.0,0.46649999999999636
51,2,0.5,0.0625,-35.0,-1,1.0,5.617501000000004
52,2,0.5,1.0,-35.0,-1,1.0,0.3845010000000002
53,2,0.5,0.0625,35.0,-1,0.0,3.6508999999999787
54,2,0.5,1.0,35.0,1,1.0,0.2225999999999999
55,2,0.5,0.0,35.0,-1,0.0,6.489600999999993
56,2,0.5,0.125,-35.0,-1,1.0,0.39990000000000236
57,2,0.5,0.125,35.0,1,1.0,0.23780000000002133
58,2,0.5,0.125,35.0,1,1.0,0.2862010000000055
59,2,0.5,0.0,-35.0,-1,1.0,4.185300000000012
60,2,0.5,1.0,-35.0,-1,1.0,0.2186999999999557
61,2,0.5,0.0,35.0,1,1.0,0.28070100000002185
62,2,0.5,1.0,-35.0,-1,1.0,0.6444010000000162
63,2,0.5,0.25,35.0,1,1.0,0.14679999999998472
64,2,0.5,0.0625,-35.0,-1,1.0,0.37720100000001366
65,2,0.5,0.125,35.0,1,1.0,0.1705000000000041
66,2,0.5,0.0625,-35.0,1,0.0,2.9729000000000383
67,2,0.5,0.25,35.0,1,1.0,0.2104009999999903
68,2,0.5,0.25,-35.0,-1,1.0,0.4988999999999919
69,2,0.5,0.25,-35.0,-1,1.0,0.4154009999999744
70,2,0.5,0.0625,35.0,1,1.0,0.22790099999997437
71,2,0.5,0.0625,-35.0,1,0.0,2.7144009999999525
72,2,0.5,0.25,35.0,1,1.0,0.2298999999999296
73,2,0.5,0.125,-35.0,1,0.0,0.2762000000000171
74,2,0.5,0.0625,-35.0,-1,1.0,0.40300099999996064
75,2,0.5,0.125,35.0,1,1.0,0.23919999999998254
76,2,0.5,0.0625,35.0,1,1.0,0.2691010000000347
77,2,0.5,0.25,35.0,1,1.0,0.36650100000002794
78,2,0.5,0.0625,35.0,1,1.0,0.23200100000002521
79,2,0.5,0.0625,-35.0,-1,1.0,0.5693999999999733
80,2,0.5,1.0,35.0,1,1.0,0.29130099999997583
81,2,0.5,1.0,-35.0,-1,1.0,0.33310000000000173
82,2,0.5,0.0,-35.0,-1,1.0,0.82320100000004
83,2,0.5,0.0625,35.0,1,1.0,2.2280999999999835
84,2,0.5,0.125,35.0,1,1.0,0.22990100000004077
85,2,0.5,0.125,35.0,1,1.0,0.2727999999999611
86,2,0.5,0.125,35.0,1,1.0,0.5533010000000331
87,2,0.5,0.0,35.0,1,1.0,1.9046999999999912
88,2,0.5,0.25,35.0,1,1.0,0.22030000000000882
89,2,0.5,0.25,-35.0,-1,1.0,3.649901
90,2,0.5,0.25,35.0,1,1.0,0.2276019999999903
91,2,0.8,0.0,35.0,1,1.0,4.19150099999996
92,2,0.8,0.25,-35.0,-1,1.0,0.46540099999998574
93,2,0.8,0.0,35.0,1,1.0,1.8509020000000191
94,2,0.8,1.0,-35.0,-1,1.0,0.34210200000001123
95,2,0.8,1.0,-35.0,-1,1.0,1.0277019999999766
96,2,0.8,0.0,-35.0,-1,1.0,0.49050099999999475
97,2,0.8,1.0,-35.0,-1,1.0,0.47440100000005714
98,2,0.8,0.25,-35.0,-1,1.0,1.2420010000000161
99,2,0.8,0.25,-35.0,-1,1.0,0.20710199999996348
100,2,0.8,0.0625,-35.0,-1,1.0,0.411500999999987
101,2,0.8,1.0,-35.0,-1,1.0,0.3983009999999467
102,2,0.8,1.0,35.0,1,1.0,0.2060019999999554
103,2,0.8,0.25,35.0,1,1.0,0.2177019999999743
104,2,0.8,0.0625,35.0,1,1.0,0.24330199999997149
105,2,0.8,0.0625,-35.0,-1,1.0,0.6959009999999921
106,2,0.8,0.0,-35.0,-1,1.0,2.9187019999999393
107,2,0.8,0.125,35.0,1,1.0,0.22530199999999923
108,2,0.8,0.0625,35.0,-1,0.0,9.10870099999994
109,2,0.8,0.0625,-35.0,-1,1.0,0.6198019999999929
110,2,0.8,0.25,-35.0,-1,1.0,0.2425010000000043
111,2,0.8,0.0625,-35.0,-1,1.0,4.348500999999999
112,2,0.8,0.125,-35.0,-1,1.0,0.33690100000001166
113,2,0.8,1.0,-35.0,-1,1.0,0.3211019999999962
114,2,0.8,1.0,35.0,1,1.0,0.20790199999999004
115,2,0.8,0.0,35.0,1,1.0,0.2232010000000173
116,2,0.8,0.25,-35.0,-1,1.0,0.3741019999999935
117,2,0.8,0.0,-35.0,1,0.0,4.963000999999963
118,2,0.8,0.125,35.0,1,1.0,0.29900099999997565
119,2,0.8,0.0,-35.0,-1,1.0,1.0720019999999977
120,2,0.8,1.0,-35.0,-1,1.0,0.3841009999999869
121,2,0.2,0.0625,35.0,1,1.0,0.2832010000000196
122,2,0.2,0.0625,35.0,1,1.0,4.017101000000082
123,2,0.2,0.25,35.0,1,1.0,0.2231010000000424
124,2,0.2,1.0,35.0,1,1.0,0.24240200000008372
125,2,0.2,0.125,-35.0,-1,1.0,0.805302000000097
126,2,0.2,0.125,-35.0,1,0.0,0.7000020000000404
127,2,0.2,1.0,35.0,1,1.0,0.24160100000005968
128,2,0.2,0.0,35.0,1,1.0,0.29020200000002205
129,2,0.2,0.0625,-35.0,1,0.0,0.14050200000008317
130,2,0.2,0.0625,35.0,1,1.0,0.2693010000000413
131,2,0.2,0.125,-35.0,-1,1.0,0.41570200000001023
132,2,0.2,0.25,35.0,1,1.0,0.23890100000005532
133,2,0.2,1.0,35.0,1,1.0,0.18580100000008315
134,2,0.2,0.0625,35.0,1,1.0,0.9327019999999493
135,2,0.2,0.25,35.0,1,1.0,0.12040200000012646
136,2,0.2,0.0625,35.0,1,1.0,1.3461020000000872
137,2,0.2,1.0,35.0,1,1.0,0.2246020000001181
138,2,0.2,1.0,35.0,1,1.0,0.1925019999999904
139,2,0.2,0.0,35.0,-1,0.0,3.131901999999968
140,2,0.2,0.125,35.0,1,1.0,0.16550099999994927
141,2,0.2,0.25,-35.0,-1,1.0,0.19010100000014063
142,2,0.2,0.25,35.0,1,1.0,0.23620200000004843
143,2,0.2,0.25,35.0,-1,0.0,1.4722020000000384
144,2,0.2,0.0,35.0,1,1.0,0.22880100000008952
145,2,0.2,1.0,-35.0,-1,1.0,0.37080200000013974
146,2,0.2,1.0,35.0,1,1.0,0.5846010000000206
147,2,0.2,0.0,35.0,-1,0.0,0.2876020000001063
148,2,0.2,1.0,35.0,1,1.0,0.22360100000003058
149,2,0.2,0.125,35.0,1,1.0,0.12470100000007278
150,2,0.2,0.125,35.0,-1,0.0,0.5553019999999833
151,2,0.2,0.0625,35.0,1,1.0,0.28070100000002185
152,2,0.2,0.125,35.0,1,1.0,0.22920200000010027
153,2,0.2,1.0,35.0,1,1.0,0.22460100000012062
154,2,0.2,0.0625,35.0,-1,0.0,2.692901000000006
155,2,0.2,0.0,35.0,1,1.0,0.24510099999997692
156,2,0.2,0.125,35.0,1,1.0,0.1845019999999522
157,2,0.2,1.0,-35.0,-1,1.0,0.19190200000014102
158,2,0.2,0.125,35.0,1,1.0,0.27700099999992744
159,2,0.2,0.25,-35.0,-1,1.0,0.30920100000003004
160,2,0.2,1.0,35.0,1,1.0,1.5998019999999542
161,2,0.2,0.25,35.0,1,1.0,0.23500100000001112
162,2,0.2,0.0,35.0,-1,0.0,0.1019019999999955
163,2,0.2,0.25,35.0,1,1.0,0.21160100000008697
164,2,0.2,0.125,35.0,1,1.0,0.23980200000005425
165,2,0.2,1.0,35.0,1,1.0,0.2031010000000606
166,2,0.2,0.25,35.0,1,1.0,0.22100200000011228
167,2,0.2,1.0,35.0,1,1.0,0.9531020000000581
168,2,0.2,1.0,35.0,1,1.0,0.2011010000001079
169,2,0.2,0.0625,35.0,1,1.0,0.25540200000011737
170,2,0.2,0.0625,35.0,1,1.0,2.836101000000099
171,2,0.2,0.125,35.0,1,1.0,0.21380099999998947
172,2,0.2,0.0625,35.0,1,1.0,0.24050199999999222
173,2,0.2,0.25,35.0,1,1.0,2.456301000000053
174,2,0.2,0.25,35.0,1,1.0,0.20110200000010536
175,2,0.2,1.0,35.0,1,1.0,1.4906010000000833
176,2,0.2,0.125,-35.0,-1,1.0,0.36910100000011425
177,2,0.2,0.0625,35.0,1,1.0,0.2534010000000535
178,2,0.2,0.0625,35.0,1,1.0,2.1523010000000795
179,2,0.2,1.0,-35.0,-1,1.0,0.7102010000000973
180,2,0.2,0.25,-35.0,-1,1.0,0.2473009999999931
181,2,0.2,1.0,35.0,1,1.0,0.30030200000010154
182,2,0.2,0.125,35.0,1,1.0,0.42580100000020593
183,2,0.2,0.25,35.0,1,1.0,0.21130200000004606
184,2,0.2,1.0,35.0,1,1.0,0.17340200000012373
185,2,0.2,0.0,-35.0,-1,1.0,7.003702000000089
186,2,0.2,0.25,35.0,1,1.0,0.21050100000013572
187,2,0.2,0.25,35.0,1,1.0,0.651602000000139
188,2,0.2,0.25,35.0,-1,0.0,2.431502000000137
189,2,0.2,1.0,-35.0,-1,1.0,0.3023009999999431
190,2,0.2,0.125,35.0,1,1.0,0.7274009999999862
191,2,0.2,0.0625,35.0,-1,0.0,1.5949010000000499
192,2,0.2,1.0,-35.0,-1,1.0,0.6663019999999733
193,2,0.2,0.0,35.0,-1,0.0,0.9987020000000939
194,2,0.2,0.0,35.0,1,1.0,8.741500999999971
195,2,0.2,0.0625,35.0,1,1.0,0.24480100000005223
196,2,0.2,0.0625,35.0,-1,0.0,1.3657020000000557
197,2,0.2,0.0625,35.0,1,1.0,0.6033019999999851
198,2,0.2,0.0,35.0,1,1.0,4.400801000000001
199,2,0.2,0.0625,35.0,1,1.0,0.22980200000006334
200,2,0.2,0.0625,35.0,1,1.0,0.26190200000007735
201,2,0.2,0.0625,35.0,1,1.0,0.28440200000000004
202,2,0.2,0.125,35.0,1,1.0,0.21390099999996437
203,2,0.2,0.0,35.0,1,1.0,5.185301000000095
204,2,0.2,0.0625,35.0,1,1.0,0.2595019999999977
205,2,0.2,0.25,35.0,1,1.0,0.19860100000005332
206,2,0.2,0.25,-35.0,-1,1.0,0.40400099999999384
207,2,0.2,0.125,35.0,1,1.0,1.441302000000178
208,2,0.2,0.25,35.0,1,1.0,0.19730200000014975
209,2,0.2,0.25,35.0,1,1.0,0.09800200000006498
210,2,0.2,0.25,35.0,1,1.0,0.17700100000013208
211,2,0.8,0.25,-35.0,-1,1.0,1.012702000000104
212,2,0.8,0.0625,-35.0,1,0.0,0.28410199999996166
213,2,0.8,0.25,-35.0,-1,1.0,0.3862010000000282
214,2,0.8,0.0,-35.0,-1,1.0,3.242101000000048
215,2,0.8,0.0625,-35.0,-1,1.0,4.082100999999966
216,2,0.8,0.0,-35.0,-1,1.0,4.182601000000091
217,2,0.8,0.25,-35.0,-1,1.0,0.34240200000010645
218,2,0.8,0.125,-35.0,-1,1.0,0.42420100000003913
219,2,0.8,0.125,35.0,1,1.0,0.12620200000014847
220,2,0.8,0.125,-35.0,-1,1.0,0.3738020000000688
221,2,0.8,0.0625,-35.0,-1,1.0,1.085600999999997
222,2,0.8,0.0625,-35.0,-1,1.0,0.484602000000109
223,2,0.8,0.0,-35.0,-1,1.0,2.034801000000016
224,2,0.8,1.0,35.0,1,1.0,0.19590099999993527
225,2,0.8,0.0625,-35.0,1,0.0,2.928301000000033
226,2,0.8,0.25,35.0,1,1.0,0.22240099999999074
227,2,0.8,1.0,35.0,1,1.0,0.2510010000000875
228,2,0.8,1.0,-35.0,-1,1.0,0.31930099999999584
229,2,0.8,1.0,-35.0,-1,1.0,1.8934020000000373
230,2,0.8,0.0,-35.0,-1,1.0,1.832501000000093
231,2,0.8,0.0625,-35.0,-1,1.0,0.4141020000000708
232,2,0.8,0.125,-35.0,-1,1.0,0.3295020000000477
233,2,0.8,0.125,-35.0,-1,1.0,0.7371010000000524
234,2,0.8,0.125,-35.0,-1,1.0,0.3147020000001248
235,2,0.2,0.125,35.0,1,1.0,0.26630099999999857
236,2,0.2,0.0,35.0,-1,0.0,1.1783010000000331
237,2,0.2,0.125,-35.0,-1,1.0,0.2834010000000262
238,2,0.2,0.0625,35.0,-1,0.0,0.8306020000001126
239,2,0.2,0.25,35.0,1,1.0,0.23050100000000384
240,2,0.2,1.0,-35.0,-1,1.0,0.29450199999996585
241,2,0.2,1.0,35.0,1,1.0,0.23020099999996546
242,2,0.2,0.25,35.0,1,1.0,0.20480200000008608
243,2,0.2,0.125,35.0,1,1.0,0.21780200000000605
244,2,0.2,0.0,35.0,-1,0.0,2.2398010000001705
245,2,0.2,0.25,35.0,1,1.0,0.20130100000005768
246,2,0.2,0.0625,35.0,1,1.0,0.22940200000005007
247,2,0.2,0.0625,35.0,1,1.0,0.25480100000004313
248,2,0.2,0.25,35.0,1,1.0,0.19950200000016594
249,2,0.2,0.0625,35.0,1,1.0,2.1083020000000943
250,2,0.2,0.0625,-35.0,-1,1.0,0.40990199999987453
251,2,0.2,0.125,35.0,1,1.0,0.2251019999998789
252,2,0.2,0.0625,-35.0,-1,1.0,0.5431020000000899
253,2,0.2,0.0,35.0,-1,0.0,2.0253020000000106
254,2,0.2,0.125,35.0,1,1.0,0.26400200000011864
255,2,0.2,0.125,35.0,1,1.0,1.455400999999938
256,2,0.2,0.25,35.0,1,1.0,0.23380100000008497
257,2,0.2,1.0,35.0,1,1.0,0.219101000000137
258,2,0.2,0.25,35.0,1,1.0,1.0600010000000566
259,2,0.2,0.0625,35.0,1,1.0,0.3158010000001923
260,2,0.2,0.0,-35.0,1,0.0,2.1311020000000553
261,2,0.2,0.0625,-35.0,-1,1.0,0.8426020000001699
262,2,0.2,0.25,-35.0,-1,1.0,0.2471020000000408
263,2,0.2,1.0,35.0,1,1.0,0.2595010000002276
264,2,0.2,1.0,35.0,1,1.0,0.9574010000001181
265,2,0.2,0.0625,35.0,1,1.0,1.3733010000003105
266,2,0.2,0.125,35.0,1,1.0,0.362201000000141
267,2,0.2,0.0625,35.0,1,1.0,0.21980099999996128
268,2,0.2,0.0,35.0,-1,0.0,0.27820100000008097
269,2,0.2,1.0,-35.0,-1,1.0,0.2903009999999995
270,2,0.2,0.25,35.0,1,1.0,0.27120200000035766
271,2,0.2,0.125,35.0,1,1.0,0.49030100000004495
272,2,0.2,0.25,35.0,1,1.0,0.2449020000001383
273,2,0.2,0.25,35.0,1,1.0,1.363802000000078
274,2,0.2,0.25,35.0,1,1.0,0.22160199999984798
275,2,0.2,0.125,35.0,1,1.0,0.2538010000000668
276,2,0.2,0.0625,-35.0,-1,1.0,1.3752020000001721
277,2,0.2,0.0,35.0,-1,0.0,2.9775019999999586
278,2,0.2,0.0,35.0,1,1.0,0.22930199999996148
279,2,0.2,0.0,35.0,1,1.0,0.281001999999944
280,2,0.2,0.125,35.0,1,1.0,0.23950199999990218
281,2,0.2,0.125,35.0,1,1.0,0.2680009999999129
282,2,0.2,0.0625,35.0,1,1.0,0.24000100000012026
283,2,0.2,0.25,35.0,1,1.0,0.23130200000014156
284,2,0.2,1.0,35.0,1,1.0,0.23760100000026796
285,2,0.2,0.125,35.0,1,1.0,0.254701999999952
286,2,0.2,0.0,35.0,1,1.0,0.23060199999986253
287,2,0.2,0.25,35.0,1,1.0,0.2049019999999473
288,2,0.2,0.0,35.0,-1,0.0,2.8631020000002536
289,2,0.2,0.25,35.0,1,1.0,0.2388020000000779
290,2,0.2,1.0,35.0,1,1.0,0.2227020000000266
291,2,0.2,1.0,35.0,1,1.0,0.21880099999998492
292,2,0.2,0.125,35.0,1,1.0,1.733801000000085
293,2,0.2,1.0,-35.0,-1,1.0,0.24220100000002276
294,2,0.2,1.0,35.0,1,1.0,0.20660099999986414
295,2,0.2,0.0,35.0,-1,0.0,1.5589020000002165
296,2,0.2,0.125,35.0,1,1.0,0.25590200000010555
297,2,0.2,0.25,35.0,1,1.0,0.2558009999997921
298,2,0.2,0.25,-35.0,-1,1.0,0.3609010000000126
299,2,0.2,0.0,35.0,1,1.0,0.25590100000022176
300,2,0.2,1.0,35.0,1,1.0,0.2207020000000739
301,2,0.2,0.0625,35.0,1,1.0,0.41270200000030854
302,2,0.2,0.125,35.0,-1,0.0,3.4175010000001294
303,2,0.2,0.25,35.0,1,1.0,7.339901000000054
304,2,0.2,0.0625,35.0,-1,0.0,9.809101999999939
305,2,0.2,0.25,35.0,1,1.0,0.2735009999998965
306,2,0.2,0.0,35.0,-1,0.0,4.926101000000017
307,2,0.2,0.25,35.0,1,1.0,0.30050200000005134
308,2,0.2,0.25,35.0,1,1.0,0.2492010000000846
309,2,0.2,0.125,-35.0,-1,1.0,0.39070100000026287
310,2,0.2,0.0625,-35.0,-1,1.0,0.8902020000000448
311,2,0.2,0.0,35.0,-1,0.0,4.0452020000000175
312,2,0.2,1.0,35.0,1,1.0,0.19930100000010498
313,2,0.2,0.0625,35.0,1,1.0,0.43770100000006096
314,2,0.2,1.0,35.0,1,1.0,0.2392010000000937
315,2,0.2,0.125,-35.0,-1,1.0,0.38140199999998003
316,2,0.2,0.25,35.0,1,1.0,0.27260099999989507
317,2,0.2,0.0,-35.0,1,0.0,2.125000999999884
318,2,0.2,0.125,35.0,1,1.0,0.20660100000009152
319,2,0.2,0.125,35.0,1,1.0,0.2550020000001041
320,2,0.2,0.25,35.0,1,1.0,0.18300200000021505
321,2,0.2,0.125,35.0,1,1.0,0.21510200000034274
322,2,0.2,0.0,-35.0,-1,1.0,3.086501999999882
323,2,0.2,0.0625,-35.0,-1,1.0,1.7155010000001312
324,2,0.2,0.0,35.0,1,1.0,1.761502000000064
325,2,0.2,1.0,35.0,1,1.0,0.22220099999981358
326,2,0.2,0.0625,35.0,1,1.0,0.5140010000002349
327,2,0.8,0.25,-35.0,-1,1.0,0.2858009999999922
328,2,0.8,1.0,35.0,1,1.0,0.22110200000020086
329,2,0.8,0.125,-35.0,-1,1.0,0.4758009999998194
330,2,0.8,0.25,-35.0,-1,1.0,0.19770100000027924
331,2,0.8,0.25,-35.0,-1,1.0,0.2693010000002687
332,2,0.8,0.0,35.0,-1,0.0,0.2207020000000739
333,2,0.8,0.25,35.0,1,1.0,0.19960100000002967
334,2,0.8,0.125,-35.0,-1,1.0,0.3018019999999524
335,2,0.8,0.0,-35.0,-1,1.0,3.2165010000001075
336,2,0.8,0.0625,35.0,1,1.0,0.22890099999995073
337,2,0.8,0.25,-35.0,-1,1.0,0.3300010000000384
338,2,0.8,0.0625,35.0,-1,0.0,0.18150100000002567
339,2,0.8,0.25,-35.0,-1,1.0,0.21350200000006225
340,2,0.8,0.0,-35.0,1,0.0,0.9789009999999507
341,2,0.8,0.125,-35.0,-1,1.0,0.190501999999924
342,2,0.8,0.125,-35.0,-1,1.0,0.2551010000001952
343,2,0.8,0.25,-35.0,-1,1.0,0.26060200000029
344,2,0.8,1.0,35.0,1,1.0,0.2027020000000448
345,2,0.8,0.0,-35.0,-1,1.0,0.9907020000000557
346,2,0.8,0.0,-35.0,-1,1.0,1.8653020000001561
347,2,0.8,0.125,-35.0,-1,1.0,0.2111010000000988
348,2,0.8,0.0,-35.0,1,0.0,1.693002000000206
349,2,0.8,0.0625,-35.0,-1,1.0,0.27440100000012535
350,2,0.8,0.0,35.0,-1,0.0,2.589001000000053
351,2,0.8,0.125,35.0,1,1.0,0.2813019999998687
352,2,0.8,1.0,-35.0,-1,1.0,0.3025020000002314
353,2,0.8,0.0,-35.0,-1,1.0,0.9648019999999633
354,2,0.8,1.0,-35.0,-1,1.0,0.2872019999999793
355,2,0.8,0.25,-35.0,-1,1.0,0.29500099999995655
356,2,0.8,0.25,-35.0,-1,1.0,0.14990099999999984
357,2,0.8,0.0,-35.0,-1,1.0,0.5419010000000526
358,2,0.8,1.0,-35.0,-1,1.0,0.21630099999993035
359,2,0.8,1.0,-35.0,-1,1.0,0.20540200000004916
360,2,0.8,1.0,-35.0,-1,1.0,0.16840099999990343
361,2,0.8,0.25,-35.0,-1,1.0,0.7922019999998611
362,2,0.8,0.0,-35.0,-1,1.0,0.31440199999997276
363,2,0.8,0.0625,-35.0,-1,1.0,0.4124010000000453
364,2,0.8,0.125,-35.0,-1,1.0,0.2809019999999691
365,2,0.8,0.25,35.0,1,1.0,0.3725010000000566
366,2,0.8,0.0,-35.0,-1,1.0,3.704001000000062
367,2,0.8,0.0,-35.0,-1,1.0,3.0862010000000737
368,2,0.8,0.25,-35.0,-1,1.0,0.8356009999999969
369,2,0.8,0.0625,-35.0,-1,1.0,0.419702000000143
370,2,0.8,0.25,-35.0,-1,1.0,0.2409010000001217
371,2,0.8,0.25,35.0,1,1.0,0.2631020000001172
372,2,0.8,0.25,-35.0,-1,1.0,0.22130200000015066
373,2,0.2,0.125,35.0,1,1.0,0.1867019999999684
374,2,0.2,0.0,35.0,-1,0.0,3.080801000000065
375,2,0.2,0.25,35.0,1,1.0,0.22370200000000295
376,2,0.2,0.0625,35.0,1,1.0,0.248602000000119
377,2,0.2,1.0,35.0,1,1.0,0.1903020000002016
378,2,0.2,0.0625,35.0,1,1.0,0.3623019999999997
379,2,0.2,0.25,35.0,1,1.0,0.21050100000002203
380,2,0.2,1.0,35.0,1,1.0,0.19270099999994272
381,2,0.2,0.125,-35.0,-1,1.0,0.22390100000006896
382,2,0.2,0.125,35.0,1,1.0,0.22180100000014136
383,2,0.2,0.0,35.0,-1,0.0,1.3075010000002294
384,2,0.2,1.0,35.0,1,1.0,0.20080200000006698
385,2,0.2,0.25,35.0,1,1.0,0.18110100000012608
386,2,0.2,0.25,-35.0,-1,1.0,0.2760019999998349
387,2,0.2,1.0,35.0,1,1.0,0.2046020000000226
388,2,0.2,0.125,-35.0,-1,1.0,0.2530010000000402
389,2,0.2,0.125,35.0,1,1.0,0.63140199999998
390,2,0.2,0.0625,35.0,1,1.0,0.21960199999989527
391,2,0.2,0.0,-35.0,1,0.0,0.2950010000001839
392,2,0.2,1.0,35.0,1,1.0,0.19910200000003897
393,2,0.2,0.25,35.0,1,1.0,0.5185019999998985
394,2,0.2,0.25,-35.0,-1,1.0,0.2866020000001299
395,2,0.2,0.25,35.0,1,1.0,0.20220199999994293
396,2,0.2,0.0,35.0,-1,0.0,0.8433010000001104
397,2,0.2,0.125,35.0,1,1.0,0.24210100000004786
398,2,0.2,0.0625,35.0,1,1.0,0.23020199999996294
399,2,0.2,0.0,35.0,1,1.0,0.1624019999999291
400,2,0.2,0.0625,35.0,1,1.0,0.26030100000002676
401,2,0.2,0.25,35.0,1,1.0,0.2024020000001201
402,2,0.2,0.125,35.0,1,1.0,0.22040199999992183
403,2,0.2,0.0,35.0,-1,0.0,3.6962009999999736
404,2,0.2,0.125,35.0,1,1.0,0.2473010000001068
405,2,0.2,0.0625,35.0,-1,0.0,2.296301000000085
406,2,0.2,1.0,35.0,1,1.0,0.16420100000004823
407,2,0.2,0.125,35.0,1,1.0,0.26000100000010207
408,2,0.2,0.25,35.0,1,1.0,0.20140200000014374
409,2,0.2,0.0,35.0,1,1.0,0.3199019999999564
410,2,0.2,0.125,35.0,1,1.0,0.2747020000001612
411,2,0.2,1.0,35.0,1,1.0,0.34350100000006023
412,2,0.2,0.0,35.0,-1,0.0,0.9395010000000639
413,2,0.2,0.0625,35.0,-1,0.0,0.1605010000000675
414,2,0.2,0.0,-35.0,1,0.0,0.48840100000006714
415,2,0.2,0.125,35.0,1,1.0,0.190501999999924
416,2,0.2,1.0,35.0,1,1.0,0.2619010000000799
417,2,0.2,0.25,35.0,1,1.0,0.18730200000004515
418,2,0.2,0.0625,35.0,-1,0.0,2.8896010000000842
419,2,0.2,0.0,35.0,1,1.0,0.1977009999998245
420,2,0.2,0.25,35.0,1,1.0,0.2837010000000646
421,2,0.2,0.0,35.0,-1,0.0,0.7311020000001918
422,2,0.2,0.125,35.0,1,1.0,0.29570099999978083
423,2,0.2,0.25,35.0,1,1.0,0.8747009999999591
424,2,0.2,0.125,35.0,1,1.0,0.24680100000000493
425,2,0.2,0.25,35.0,1,1.0,0.24470199999996112
426,2,0.2,0.0625,35.0,1,1.0,0.3364010000000235
427,2,0.2,0.0625,35.0,1,1.0,0.26830100000006496
428,2,0.2,1.0,35.0,1,1.0,0.17380099999991216
429,2,0.2,0.0,35.0,-1,0.0,4.55180200000018
430,2,0.2,0.25,-35.0,-1,1.0,0.4799009999999271
431,2,0.2,0.0625,35.0,1,1.0,0.28880099999992126
432,2,0.2,0.125,35.0,1,1.0,0.22390199999995275
433,2,0.8,0.125,-35.0,-1,1.0,0.8690019999999095
434,2,0.8,0.125,-35.0,-1,1.0,0.20000200000004043
435,2,0.8,0.0625,-35.0,-1,1.0,0.5090009999998983
436,2,0.8,1.0,-35.0,-1,1.0,0.22800099999994927
437,2,0.8,0.125,-35.0,-1,1.0,0.27600200000006225
438,2,0.8,1.0,35.0,1,1.0,0.19120100000009188
439,2,0.8,0.125,-35.0,-1,1.0,0.4393010000001141
440,2,0.8,0.25,-35.0,-1,1.0,0.20110200000021905
441,2,0.8,1.0,-35.0,-1,1.0,0.6331010000001243
442,2,0.8,0.0625,-35.0,-1,1.0,0.30420100000014827
443,2,0.8,1.0,35.0,1,1.0,0.2132010000000264
444,2,0.8,0.125,35.0,1,1.0,1.1381010000002334
445,2,0.8,0.0625,-35.0,-1,1.0,2.8302020000000994
446,2,0.8,0.0625,35.0,1,1.0,0.2512020000001485
447,2,0.8,0.125,35.0,1,1.0,0.24030100000004495
448,2,0.8,0.25,-35.0,-1,1.0,0.2760009999999511
449,2,0.8,1.0,35.0,1,1.0,0.8272010000000591
450,2,0.8,1.0,35.0,1,1.0,0.15140200000018922
451,2,0.8,0.0625,-35.0,-1,1.0,0.7004009999998289
452,2,0.8,0.125,-35.0,-1,1.0,0.9116010000000188
453,2,0.8,0.25,-35.0,-1,1.0,0.3706010000000788
454,2,0.8,0.125,-35.0,-1,1.0,0.2819019999999455
455,2,0.8,0.0625,-35.0,-1,1.0,1.790800999999874
456,2,0.8,1.0,35.0,1,1.0,0.18530200000031982
457,2,0.8,0.0625,-35.0,-1,1.0,0.7044009999999616
458,2,0.8,0.0625,-35.0,-1,1.0,0.6521020000000135
459,2,0.8,0.0,-35.0,1,0.0,1.444601000000148
460,2,0.8,0.0,-35.0,-1,1.0,0.3295010000001639
461,2,0.8,0.25,-35.0,-1,1.0,0.614701999999852
462,2,0.2,0.25,-35.0,-1,1.0,0.2796019999998407
463,2,0.2,0.0,35.0,-1,0.0,0.30850200000008954
464,2,0.2,1.0,35.0,1,1.0,0.26960200000007717
465,2,0.2,0.0625,35.0,1,1.0,6.625201000000061
466,2,0.2,1.0,-35.0,-1,1.0,0.3197010000001228
467,2,0.2,0.125,35.0,1,1.0,0.24870100000021012
468,2,0.2,0.0,35.0,-1,0.0,1.6708020000000943
469,2,0.2,0.125,-35.0,-1,1.0,0.33260100000006787
470,2,0.2,0.25,-35.0,-1,1.0,0.43690200000014556
471,2,0.2,1.0,35.0,1,1.0,1.1992020000000139
472,2,0.2,1.0,35.0,1,1.0,0.20380200000022342
473,2,0.2,1.0,35.0,1,1.0,0.14270200000009936
474,2,0.2,1.0,35.0,1,1.0,0.22590200000013283
475,2,0.2,0.125,35.0,1,1.0,0.2929020000001401
476,2,0.2,1.0,35.0,1,1.0,0.1659010000003036
477,2,0.2,0.25,-35.0,-1,1.0,0.3696019999999862
478,2,0.2,0.125,35.0,1,1.0,0.2790010000001075
479,2,0.2,0.125,35.0,1,1.0,0.22990200000003824
480,2,0.2,1.0,35.0,1,1.0,0.19450099999994563
481,2,0.2,0.25,35.0,1,1.0,0.29700100000013663
482,2,0.2,0.25,35.0,1,1.0,0.22200100000009115
483,2,0.2,0.0625,-35.0,-1,1.0,0.3100010000000566
484,2,0.2,1.0,-35.0,-1,1.0,0.29310099999997874
485,2,0.2,0.0625,35.0,1,1.0,0.3503010000001723
486,2,0.2,0.0,35.0,-1,0.0,2.0831020000000535
487,2,0.2,1.0,35.0,1,1.0,0.23720099999991362
488,2,0.2,0.125,35.0,1,1.0,0.2522020000001248
489,2,0.2,0.25,35.0,1,1.0,0.39740099999994527
490,2,0.2,1.0,35.0,1,1.0,0.2253009999999449
491,2,0.2,0.125,35.0,1,1.0,0.28430100000014136
492,2,0.2,0.125,35.0,1,1.0,0.20620099999996455
493,2,0.2,0.125,35.0,1,1.0,0.2676010000000133
494,2,0.2,0.25,-35.0,-1,1.0,0.28630199999997785
495,2,0.2,0.25,35.0,1,1.0,0.2047019999999975
496,2,0.8,0.25,-35.0,-1,1.0,0.2391010000001188
497,2,0.8,0.25,-35.0,-1,1.0,0.21800199999984216
498,2,0.8,0.0,35.0,1,1.0,6.357302000000118
499,2,0.8,0.125,-35.0,-1,1.0,0.29520099999990634
500,2,0.8,0.0,35.0,1,1.0,1.9335010000002057
501,2,0.8,0.25,-35.0,-1,1.0,0.24180099999966842
502,2,0.8,1.0,-35.0,-1,1.0,0.4905010000002221
503,2,0.8,1.0,-35.0,-1,1.0,0.21550200000001496
504,2,0.8,0.125,-35.0,-1,1.0,0.24670100000003004
505,2,0.8,0.0625,-35.0,-1,1.0,0.27560200000016266
506,2,0.8,0.25,-35.0,-1,1.0,0.7985009999997601
507,2,0.8,0.0,35.0,-1,0.0,3.1856010000001334
508,2,0.8,0.25,-35.0,-1,1.0,0.22810200000049008
509,2,0.8,0.0,-35.0,-1,1.0,4.166102000000137
510,2,0.8,0.25,-35.0,-1,1.0,0.3817020000001321
511,2,0.8,1.0,-35.0,-1,1.0,0.13630100000000311
512,2,0.8,0.25,-35.0,-1,1.0,1.9447009999998954
513,2,0.8,0.125,35.0,1,1.0,0.2530010000000402
514,2,0.8,1.0,-35.0,-1,1.0,0.20420199999989563
515,2,0.8,0.125,35.0,1,1.0,0.2932019999998374
516,2,0.8,0.125,-35.0,-1,1.0,0.6126020000001517
517,2,0.8,0.0,-35.0,1,0.0,0.2568020000003344
518,2,0.8,0.0625,-35.0,-1,1.0,0.6621020000002318
519,2,0.8,0.0,-35.0,-1,1.0,1.2369020000001
520,2,0.8,0.0625,-35.0,-1,1.0,1.7799009999998816
521,2,0.8,0.0625,-35.0,-1,1.0,0.6005010000003494
522,2,0.8,1.0,35.0,1,1.0,0.23400200000014593
523,2,0.8,1.0,-35.0,-1,1.0,0.337402000000111
524,2,0.8,0.0625,-35.0,-1,1.0,1.759001000000353
525,2,0.8,0.0625,35.0,1,1.0,0.8745020000001205
526,2,0.8,1.0,-35.0,-1,1.0,0.20700099999976374
527,2,0.8,1.0,-35.0,-1,1.0,0.6511020000002645
528,2,0.8,0.0625,-35.0,-1,1.0,24.703100999999606
529,2,0.8,0.0,-35.0,-1,1.0,17.638402000000042
530,2,0.8,0.125,-35.0,-1,1.0,0.7746019999999589
531,2,0.8,0.0625,-35.0,-1,1.0,4.655901000000085
532,2,0.8,0.0,-35.0,-1,1.0,37.51720099999966
533,2,0.8,0.125,35.0,1,1.0,0.41370199999983015
534,2,0.8,0.25,-35.0,-1,1.0,2.7448020000001634
535,2,0.8,0.25,35.0,1,1.0,0.4437009999996917
536,2,0.8,0.0,35.0,1,1.0,2.958401000000322
537,2,0.8,0.125,-35.0,-1,1.0,0.8271009999998569
538,2,0.8,0.0625,-35.0,1,0.0,19.211301000000276
539,2,0.8,0.25,-35.0,-1,1.0,10.431201000000328
540,2,0.8,0.0625,-35.0,1,0.0,4.046100999999908
541,2,0.8,0.125,-35.0,-1,1.0,0.8919020000003002
542,2,0.8,1.0,-35.0,-1,1.0,0.3932020000002012
543,2,0.2,0.0,35.0,1,1.0,1.2489019999998163
544,2,0.2,0.125,35.0,1,1.0,0.5469010000001617
545,2,0.2,0.0625,35.0,1,1.0,13.888900999999805
546,2,0.2,0.0625,35.0,1,1.0,0.19680200000038894
547,2,0.2,0.125,35.0,1,1.0,2.172501999999895
548,2,0.2,1.0,35.0,1,1.0,0.22400199999992765
549,2,0.2,0.0,-35.0,1,0.0,8.576101999999992
550,2,0.2,1.0,35.0,1,1.0,0.2875010000002476
551,2,0.2,0.125,35.0,1,1.0,0.3134020000002238
552,2,0.2,0.0,35.0,1,1.0,3.0977020000004813
553,2,0.2,1.0,35.0,1,1.0,0.30050100000016755
554,2,0.2,0.0,-35.0,-1,1.0,25.998501000000488
555,2,0.2,0.0625,-35.0,-1,1.0,10.76410100000021
556,2,0.2,0.0,-35.0,1,0.0,23.34670099999994
557,2,0.2,1.0,35.0,1,1.0,10.461901000000125
1,3,0.5,0.0,-35.0,1,0.0,0.49919999999999987
2,3,0.5,0.125,35.0,1,1.0,0.5620009999999995
3,3,0.5,0.25,35.0,1,1.0,0.5459009999999989
4,3,0.5,1.0,35.0,1,1.0,0.3384009999999993
5,3,0.5,0.0,-35.0,1,0.0,0.4086010000000009
6,3,0.5,0.125,-35.0,-1,1.0,0.30900000000000105
7,3,0.5,0.0625,-35.0,-1,1.0,1.5103000000000009
8,3,0.5,0.0625,-35.0,-1,1.0,0.6903000000000041
9,3,0.5,1.0,35.0,1,1.0,0.2846010000000021
10,3,0.5,0.0,-35.0,-1,1.0,0.9748999999999981
11,3,0.5,0.0625,-35.0,-1,1.0,0.46410000000000196
12,3,0.5,0.0,-35.0,1,0.0,5.0995009999999965
13,3,0.5,0.25,35.0,1,1.0,0.22320000000000562
14,3,0.5,0.125,35.0,1,1.0,0.29579999999999984
15,3,0.5,0.0625,-35.0,-1,1.0,0.2778999999999954
16,3,0.5,0.125,35.0,-1,0.0,3.8728010000000026
17,3,0.5,0.25,35.0,1,1.0,0.24340099999999154
18,3,0.5,0.125,-35.0,-1,1.0,0.37640000000001805
19,3,0.5,0.125,-35.0,-1,1.0,0.42560000000000286
20,3,0.5,0.25,35.0,1,1.0,0.27259999999999707
21,3,0.5,0.0625,-35.0,-1,1.0,0.41449999999998965
22,3,0.5,0.0625,35.0,1,1.0,0.25500099999999293
23,3,0.5,0.125,35.0,-1,0.0,2.6960009999999954
24,3,0.5,0.125,35.0,1,1.0,0.22970000000000823
25,3,0.5,0.0625,35.0,1,1.0,0.1022000000000105
26,3,0.5,0.0625,-35.0,1,0.0,0.23360099999999306
27,3,0.5,0.125,35.0,1,1.0,0.20740000000002112
28,3,0.5,0.0,-35.0,1,0.0,0.27250000000000796
29,3,0.5,0.25,-35.0,-1,1.0,0.3452000000000055
30,3,0.5,0.125,35.0,1,1.0,0.29890100000000075
31,3,0.5,0.25,-35.0,-1,1.0,0.4344000000000108
32,3,0.5,0.125,-35.0,-1,1.0,0.24960000000000093
33,3,0.5,0.25,35.0,1,1.0,0.370199999999997
34,3,0.5,0.0625,35.0,1,1.0,0.2647000000000048
35,3,0.5,0.125,-35.0,-1,1.0,0.4855009999999993
36,3,0.5,0.0625,35.0,1,1.0,0.2701009999999826
37,3,0.5,0.25,-35.0,-1,1.0,0.2412999999999954
38,3,0.5,0.0,35.0,1,1.0,1.1461000000000183
39,3,0.5,0.0625,-35.0,1,0.0,0.21770100000000525
40,3,0.5,0.125,35.0,1,1.0,0.22910000000001673
41,3,0.5,0.25,35.0,1,1.0,0.240099999999984
42,3,0.5,0.25,-35.0,-1,1.0,0.5551000000000101
43,3,0.5,0.0625,-35.0,-1,1.0,0.35310100000000944
44,3,0.5,0.0,-35.0,-1,1.0,3.568399999999997
45,3,0.5,0.0625,35.0,1,1.0,0.26619999999999777
46,3,0.5,0.125,35.0,1,1.0,0.24120100000001798
47,3,0.5,0.0,-35.0,1,0.0,0.1455010000000243
48,3,0.5,0.0625,35.0,1,1.0,0.23840000000001282
49,3,0.5,0.125,-35.0,-1,1.0,0.29720100000000116
50,3,0.5,0.0625,-35.0,-1,1.0,0.3162010000000066
51,3,0.5,0.25,35.0,1,1.0,0.2423000000000286
52,3,0.5,1.0,35.0,1,1.0,0.21650099999999384
53,3,0.5,0.0625,35.0,1,1.0,0.2874010000000169
54,3,0.5,0.25,35.0,1,1.0,0.2533000000000243
55,3,0.5,0.25,35.0,1,1.0,0.2412999999999954
56,3,0.5,0.125,-35.0,1,0.0,0.22629999999998063
57,3,0.5,0.125,-35.0,-1,1.0,0.3325010000000077
58,3,0.5,0.125,-35.0,-1,1.0,0.12170000000000414
59,3,0.5,1.0,35.0,1,1.0,0.2138999999999669
60,3,0.5,0.0625,-35.0,1,0.0,0.24049999999999727
61,3,0.5,0.25,35.0,1,1.0,0.25860099999999875
62,3,0.5,1.0,-35.0,-1,1.0,0.2915010000000109
63,3,0.5,0.25,35.0,1,1.0,0.24289999999999168
64,3,0.5,0.0625,-35.0,1,0.0,0.14860100000001353
65,3,0.5,1.0,-35.0,-1,1.0,0.29080099999998765
66,3,0.5,0.125,-35.0,-1,1.0,0.45079999999998677
67,3,0.5,0.25,35.0,1,1.0,0.24300099999999247
68,3,0.5,0.125,-35.0,-1,1.0,0.3258000000000436
69,3,0.5,0.0625,35.0,1,1.0,0.21770000000000778
70,3,0.5,0.0,-35.0,1,0.0,0.3057009999999991
71,3,0.5,1.0,-35.0,-1,1.0,0.276299999999992
72,3,0.5,0.25,35.0,1,1.0,0.21640000000002146
73,3,0.5,0.0625,-35.0,1,0.0,0.24560100000002194
74,3,0.5,0.0625,-35.0,-1,1.0,0.2922009999999773
75,3,0.5,0.0,35.0,1,1.0,2.4392010000000255
76,3,0.5,1.0,-35.0,-1,1.0,0.27860099999998056
77,3,0.5,1.0,35.0,1,1.0,0.1971009999999751
78,3,0.5,0.125,-35.0,1,0.0,0.13470100000000684
79,3,0.5,1.0,35.0,1,1.0,0.20890000000002829
80,3,0.5,1.0,-35.0,-1,1.0,0.14969999999999573
81,3,0.5,0.0625,35.0,1,1.0,0.23860000000001946
82,3,0.5,0.0625,35.0,1,1.0,0.23320000000001073
83,3,0.5,0.0,35.0,1,1.0,0.22490100000004531
84,3,0.5,0.0,-35.0,1,0.0,0.2368000000000734
85,3,0.5,0.0,35.0,-1,0.0,2.146500000000003
86,3,0.5,0.125,-35.0,-1,1.0,0.23460100000005468
87,3,0.5,0.125,-35.0,-1,1.0,0.40090100000003304
88,3,0.5,1.0,-35.0,-1,1.0,0.2690000000000623
89,3,0.5,0.0,-35.0,1,0.0,0.252001000000007
90,3,0.5,0.0,-35.0,1,0.0,0.22640100000000984
91,3,0.2,1.0,35.0,1,1.0,0.18720000000001846
92,3,0.2,0.25,-35.0,-1,1.0,0.2540000000000191
93,3,0.2,0.125,35.0,1,1.0,0.5294010000000071
94,3,0.2,0.25,-35.0,-1,1.0,0.41970100000003185
95,3,0.2,1.0,35.0,1,1.0,0.17350099999998747
96,3,0.2,0.0625,35.0,-1,0.0,3.850701000000015
97,3,0.2,0.0625,35.0,1,1.0,1.8840999999999894
98,3,0.2,0.0,35.0,-1,0.0,0.26609999999999445
99,3,0.2,1.0,35.0,1,1.0,0.22120100000000775
100,3,0.2,1.0,-35.0,-1,1.0,2.3490000000000464
101,3,0.2,0.125,35.0,1,1.0,0.23439999999999372
102,3,0.2,0.25,35.0,1,1.0,0.23190099999999347
103,3,0.2,1.0,35.0,1,1.0,0.1927000000000021
104,3,0.2,0.0625,35.0,1,1.0,0.24349999999998317
105,3,0.2,0.25,35.0,1,1.0,0.20249999999998636
106,3,0.2,0.125,35.0,1,1.0,0.19780100000002676
107,3,0.2,0.125,35.0,1,1.0,0.21930000000003247
108,3,0.2,0.0625,35.0,1,1.0,0.2204009999999812
109,3,0.2,1.0,35.0,1,1.0,0.17870099999998956
110,3,0.2,0.0625,35.0,1,1.0,0.12889999999998736
111,3,0.2,0.0,35.0,1,1.0,0.26250100000004295
112,3,0.2,0.0625,-35.0,-1,1.0,0.49460099999998874
113,3,0.2,1.0,35.0,1,1.0,0.16409999999996217
114,3,0.2,0.0625,35.0,1,1.0,0.23240099999998165
115,3,0.2,0.0,35.0,1,1.0,0.23400100000003476
116,3,0.2,0.25,35.0,1,1.0,0.20140099999997574
117,3,0.2,0.0625,35.0,1,1.0,0.22400099999998702
118,3,0.2,0.125,35.0,1,1.0,0.18170000000003483
119,3,0.2,0.25,35.0,1,1.0,0.20449999999993906
120,3,0.2,1.0,-35.0,-1,1.0,0.32229999999998427
121,3,0.2,0.125,35.0,1,1.0,0.2828010000000063
122,3,0.2,0.0625,35.0,1,1.0,0.15050100000001976
123,3,0.2,0.0625,35.0,1,1.0,0.21839999999997417
124,3,0.2,0.0625,35.0,1,1.0,0.21639999999996462
125,3,0.2,1.0,-35.0,-1,1.0,0.3155009999999834
126,3,0.2,1.0,35.0,1,1.0,0.18830100000002403
127,3,0.2,0.25,-35.0,-1,1.0,0.316900999999973
128,3,0.2,0.0,35.0,-1,0.0,0.7456999999999994
129,3,0.2,1.0,35.0,1,1.0,0.16680000000002337
130,3,0.2,0.0625,35.0,1,1.0,0.22270000000003165
131,3,0.2,0.125,35.0,1,1.0,0.21700000000004138
132,3,0.2,0.0,35.0,1,1.0,0.20570000000003574
133,3,0.2,0.0,-35.0,-1,1.0,0.6266999999999712
134,3,0.2,0.125,-35.0,-1,1.0,0.38280000000003156
135,3,0.2,1.0,35.0,1,1.0,0.19300000000004047
136,3,0.2,1.0,-35.0,-1,1.0,0.2078000000000202
137,3,0.2,1.0,35.0,1,1.0,0.15500000000002956
138,3,0.2,0.25,-35.0,-1,1.0,0.29490099999998165
139,3,0.2,0.0625,35.0,1,1.0,0.22270099999997228
140,3,0.2,1.0,35.0,1,1.0,0.16689999999994143
141,3,0.2,0.0625,35.0,1,1.0,0.20809999999994488
142,3,0.2,0.0625,-35.0,1,0.0,0.203899999999976
143,3,0.2,1.0,35.0,1,1.0,0.19109999999989213
144,3,0.2,1.0,35.0,1,1.0,0.1829010000000153
145,3,0.2,0.0,35.0,1,1.0,0.19449999999994816
146,3,0.2,0.125,35.0,1,1.0,0.17610100000001694
147,3,0.2,0.0,35.0,1,1.0,0.24230000000000018
148,3,0.2,0.0,35.0,1,1.0,0.25640099999998256
149,3,0.2,0.125,35.0,1,1.0,0.22509999999999764
150,3,0.2,0.25,-35.0,-1,1.0,0.263101000000006
151,3,0.2,0.0,-35.0,-1,1.0,0.826099999999883
152,3,0.2,0.0625,-35.0,-1,1.0,0.3568010000000186
153,3,0.2,0.0,35.0,-1,0.0,1.5933010000001104
154,3,0.2,0.0,35.0,1,1.0,1.3366000000000895
155,3,0.2,0.125,35.0,1,1.0,0.1892010000000255
156,3,0.2,0.0,35.0,1,1.0,0.24650000000008276
157,3,0.2,0.0,35.0,1,1.0,0.25870099999997365
158,3,0.2,0.0625,35.0,1,1.0,0.24159999999994852
159,3,0.2,0.125,35.0,1,1.0,0.2149010000000544
160,3,0.2,0.25,35.0,1,1.0,0.2403999999999087
161,3,0.2,0.125,35.0,1,1.0,0.23519999999996344
162,3,0.2,1.0,35.0,1,1.0,0.13330100000007405
163,3,0.2,1.0,-35.0,-1,1.0,0.254099999999994
164,3,0.2,0.0,35.0,1,1.0,0.23020100000007915
165,3,0.2,0.125,35.0,-1,0.0,0.6257009999999354
166,3,0.2,0.0,-35.0,-1,1.0,4.24140100000011
167,3,0.2,1.0,35.0,1,1.0,0.25090000000000146
168,3,0.2,1.0,35.0,1,1.0,1.1655009999999493
169,3,0.2,1.0,35.0,1,1.0,1.0668009999999413
170,3,0.2,0.125,35.0,1,1.0,0.6122010000000273
171,3,0.2,0.0625,35.0,1,1.0,0.25909999999998945
172,3,0.2,0.0625,-35.0,1,0.0,0.2516000000000531
173,3,0.2,1.0,-35.0,-1,1.0,0.3540009999999256
174,3,0.2,0.125,35.0,1,1.0,0.35960099999999784
175,3,0.2,0.25,35.0,1,1.0,0.23080000000004475
176,3,0.2,0.0,35.0,1,1.0,0.31060100000001967
177,3,0.2,0.0,35.0,1,1.0,0.2681010000000015
178,3,0.2,1.0,-35.0,-1,1.0,0.23469999999997526
179,3,0.2,1.0,-35.0,-1,1.0,0.25679999999999836
180,3,0.2,1.0,-35.0,-1,1.0,0.24570100000005368
181,3,0.2,0.0,35.0,-1,0.0,0.9096999999999298
182,3,0.2,0.125,35.0,1,1.0,0.288599999999974
183,3,0.2,0.0,35.0,1,1.0,0.3257009999999809
184,3,0.2,0.0625,-35.0,-1,1.0,0.8384010000000899
185,3,0.2,0.0,35.0,1,1.0,0.22780099999999948
186,3,0.2,0.125,35.0,1,1.0,0.23970100000008188
187,3,0.8,1.0,35.0,1,1.0,2.6923000000000457
188,3,0.8,0.25,-35.0,-1,1.0,0.3168000000000575
189,3,0.8,0.25,-35.0,-1,1.0,0.3930999999998903
190,3,0.8,0.125,35.0,1,1.0,0.23460099999999784
191,3,0.8,1.0,-35.0,-1,1.0,0.35890100000005987
192,3,0.8,0.125,-35.0,1,0.0,0.17280000000005202
193,3,0.8,0.0,-35.0,-1,1.0,6.907799999999952
194,3,0.8,0.25,-35.0,-1,1.0,0.8979000000000497
195,3,0.8,1.0,-35.0,-1,1.0,0.237700000000018
196,3,0.8,0.0625,-35.0,-1,1.0,0.5120009999999411
197,3,0.8,1.0,-35.0,-1,1.0,0.33310000000005857
198,3,0.8,1.0,-35.0,-1,1.0,1.908001000000013
199,3,0.8,0.0,-35.0,-1,1.0,1.9705000000000155
200,3,0.8,1.0,35.0,1,1.0,0.21440099999995255
201,3,0.8,0.125,-35.0,-1,1.0,0.4811009999999669
202,3,0.8,0.0625,-35.0,1,0.0,0.5771010000000842
203,3,0.8,1.0,-35.0,-1,1.0,0.25850100000002385
204,3,0.8,0.0625,-35.0,-1,1.0,0.21450000000004366
205,3,0.8,1.0,35.0,1,1.0,0.18320099999994
206,3,0.8,0.25,-35.0,-1,1.0,0.28719999999998436
207,3,0.8,0.25,-35.0,-1,1.0,2.352301000000125
208,3,0.8,0.25,35.0,1,1.0,0.30140099999994163
209,3,0.8,0.0,-35.0,1,0.0,0.2860000000000582
210,3,0.8,0.25,35.0,1,1.0,0.28430100000002767
211,3,0.8,0.25,35.0,1,1.0,0.3299010000000635
212,3,0.8,0.0625,-35.0,-1,1.0,0.321501000000012
213,3,0.8,1.0,-35.0,-1,1.0,0.29290100000002894
214,3,0.8,0.0625,-35.0,-1,1.0,0.26260100000001785
215,3,0.8,0.0625,-35.0,-1,1.0,1.6703010000001086
216,3,0.8,0.0,35.0,-1,0.0,0.5403009999999995
217,3,0.8,0.0,-35.0,-1,1.0,4.64830100000006
218,3,0.8,1.0,-35.0,-1,1.0,0.2751010000000633
219,3,0.8,1.0,-35.0,-1,1.0,0.2757009999999127
220,3,0.8,0.0625,-35.0,-1,1.0,0.3228009999999131
221,3,0.8,0.125,35.0,1,1.0,0.37730099999998856
222,3,0.8,0.0,-35.0,-1,1.0,2.8311009999999897
223,3,0.8,0.25,35.0,1,1.0,0.2355009999999993
224,3,0.2,0.0625,35.0,1,1.0,0.2817009999999982
225,3,0.2,0.0625,35.0,1,1.0,0.2585000000000264
226,3,0.2,0.0,-35.0,1,0.0,1.7756010000000515
227,3,0.2,0.125,-35.0,-1,1.0,0.36850000000004
228,3,0.2,0.125,35.0,1,1.0,0.23739999999997963
229,3,0.2,0.0625,-35.0,1,0.0,0.2581000000000131
230,3,0.2,1.0,35.0,1,1.0,0.22360100000003058
231,3,0.2,0.125,35.0,1,1.0,2.1946000000000367
232,3,0.2,0.25,35.0,1,1.0,0.25070100000004913
233,3,0.2,0.0625,35.0,1,1.0,0.24720000000002074
234,3,0.2,0.0625,35.0,1,1.0,0.24700099999995473
235,3,0.2,0.0,35.0,-1,0.0,4.689200999999912
236,3,0.2,1.0,-35.0,-1,1.0,0.2500999999998612
237,3,0.2,0.0,-35.0,1,0.0,0.3127000000000635
238,3,0.2,0.0625,35.0,1,1.0,0.2938009999999167
239,3,0.2,0.0,35.0,-1,0.0,1.7975999999999885
240,3,0.2,0.0,35.0,-1,0.0,1.819800999999984
241,3,0.2,0.0,35.0,1,1.0,4.274900000000002
242,3,0.2,0.125,35.0,1,1.0,0.23210100000005696
243,3,0.2,0.0,35.0,-1,0.0,3.618000000000052
244,3,0.2,0.25,35.0,1,1.0,0.2313010000000304
245,3,0.2,0.25,35.0,1,1.0,0.2620000000000573
246,3,0.2,0.25,-35.0,-1,1.0,1.6850000000000591
247,3,0.2,0.0625,35.0,1,1.0,0.2579999999999245
248,3,0.2,0.0625,-35.0,1,0.0,0.2496009999999842
249,3,0.2,0.0,35.0,-1,0.0,1.9166999999999916
250,3,0.2,0.125,35.0,1,1.0,0.24910000000011223
251,3,0.2,0.0,35.0,-1,0.0,5.317099999999982
252,3,0.2,0.25,-35.0,-1,1.0,0.29310099999997874
253,3,0.2,0.25,35.0,1,1.0,0.24490100000002712
254,3,0.2,0.0,35.0,-1,0.0,1.7452010000000655
255,3,0.2,1.0,35.0,1,1.0,0.21119999999996253
256,3,0.2,0.25,35.0,1,1.0,0.25040100000001075
257,3,0.2,0.25,35.0,1,1.0,0.1732009999999491
258,3,0.2,0.0625,35.0,1,1.0,0.24959999999998672
259,3,0.2,0.0,35.0,-1,0.0,2.4542000000000144
260,3,0.2,0.0,35.0,1,1.0,0.32570000000009713
261,3,0.2,0.125,35.0,1,1.0,0.3163010000000668
262,3,0.2,0.25,35.0,1,1.0,0.2920010000000275
263,3,0.2,0.125,-35.0,-1,1.0,0.28350000000000364
264,3,0.2,0.0,35.0,1,1.0,0.28559999999993124
265,3,0.8,0.25,-35.0,-1,1.0,0.3206000000000131
266,3,0.8,0.0,-35.0,-1,1.0,1.0457010000000082
267,3,0.8,0.0625,-35.0,-1,1.0,0.2358000000000402
268,3,0.8,0.25,-35.0,-1,1.0,0.29930000000013024
269,3,0.8,0.0625,-35.0,-1,1.0,0.23050000000012005
270,3,0.8,0.0625,35.0,1,1.0,0.23589999999967404
271,3,0.8,1.0,-35.0,-1,1.0,0.1914999999999054
272,3,0.8,0.0625,-35.0,-1,1.0,0.4995009999997819
273,3,0.8,1.0,-35.0,-1,1.0,1.398100999999997
274,3,0.8,0.25,-35.0,-1,1.0,0.2864999999997053
275,3,0.8,0.25,-35.0,-1,1.0,0.33229999999980464
276,3,0.8,0.0625,35.0,1,1.0,0.259900000000016
277,3,0.8,0.25,-35.0,-1,1.0,0.23789999999985412
278,3,0.8,0.125,-35.0,-1,1.0,0.31680099999994127
279,3,0.8,0.0625,-35.0,-1,1.0,0.3915999999999258
280,3,0.8,0.0,-35.0,-1,1.0,0.4034999999998945
281,3,0.8,0.0,35.0,-1,0.0,0.4182999999998174
282,3,0.8,0.0625,-35.0,1,0.0,0.24059999999985848
283,3,0.8,1.0,-35.0,-1,1.0,0.28570099999978993
284,3,0.8,0.0,-35.0,1,0.0,0.2940009999999802
285,3,0.8,0.125,-35.0,-1,1.0,0.3183010000000195
286,3,0.8,1.0,-35.0,-1,1.0,0.2639999999998963
287,3,0.8,0.125,-35.0,-1,1.0,0.30550099999982194
288,3,0.8,1.0,35.0,1,1.0,0.5608999999999469
289,3,0.8,0.125,35.0,1,1.0,0.2456009999998514
290,3,0.8,0.0625,-35.0,-1,1.0,1.3544009999998252
291,3,0.8,0.25,-35.0,-1,1.0,0.2556010000000697
292,3,0.8,0.0,-35.0,1,0.0,0.2844999999997526
293,3,0.8,1.0,-35.0,-1,1.0,0.24919999999997344
294,3,0.8,0.25,-35.0,-1,1.0,0.2780999999999949
295,3,0.8,0.0,-35.0,-1,1.0,0.993199999999888
296,3,0.8,0.0,-35.0,-1,1.0,3.994901000000027
297,3,0.8,1.0,-35.0,-1,1.0,0.2339999999999236
298,3,0.8,1.0,-35.0,-1,1.0,0.20529999999985193
299,3,0.8,1.0,-35.0,-1,1.0,0.2880009999998947
300,3,0.8,0.0625,35.0,1,1.0,0.23540000000002692
301,3,0.8,1.0,-35.0,-1,1.0,0.27710000000001855
302,3,0.8,0.125,-35.0,-1,1.0,0.44210099999986596
303,3,0.8,0.0625,-35.0,1,0.0,0.3063999999999396
304,3,0.8,0.25,35.0,1,1.0,0.21899999999982356
305,3,0.8,0.25,-35.0,-1,1.0,0.2766009999998005
306,3,0.8,1.0,-35.0,-1,1.0,0.2857000000001335
307,3,0.8,0.25,-35.0,-1,1.0,0.39689999999973224
308,3,0.8,1.0,-35.0,-1,1.0,0.26269999999999527
309,3,0.8,0.0,-35.0,-1,1.0,2.948200999999699
310,3,0.8,0.0,-35.0,-1,1.0,3.102700999999797
311,3,0.8,1.0,35.0,1,1.0,0.21480099999985214
312,3,0.8,0.125,-35.0,-1,1.0,0.28009999999972024
313,3,0.8,0.25,-35.0,-1,1.0,0.2942009999997026
314,3,0.8,0.25,-35.0,-1,1.0,0.2765999999999167
315,3,0.8,0.125,-35.0,-1,1.0,0.22929999999973916
316,3,0.8,0.0625,-35.0,-1,1.0,0.7366010000000642
317,3,0.8,0.125,-35.0,-1,1.0,1.1293999999995776
318,3,0.8,0.0625,-35.0,-1,1.0,1.810399999999845
319,3,0.8,0.0625,-35.0,-1,1.0,0.5687009999999191
320,3,0.8,0.25,-35.0,-1,1.0,0.3272999999996955
321,3,0.8,0.125,-35.0,-1,1.0,0.3324009999998907
322,3,0.8,0.0,-35.0,1,0.0,0.40069999999968786
323,3,0.8,0.0625,-35.0,-1,1.0,0.2421009999998205
324,3,0.8,0.0,35.0,1,1.0,0.2840009999999893
325,3,0.8,0.125,35.0,1,1.0,0.27650100000005295
326,3,0.8,0.25,-35.0,-1,1.0,0.9144999999998618
327,3,0.8,0.0625,-35.0,-1,1.0,0.6055999999998676
328,3,0.8,0.0625,-35.0,-1,1.0,0.4046009999999569
329,3,0.8,1.0,-35.0,-1,1.0,0.2695009999999911
330,3,0.8,0.25,-35.0,-1,1.0,0.2845999999999549
331,3,0.8,1.0,-35.0,-1,1.0,0.23300099999983104
332,3,0.8,0.125,35.0,1,1.0,0.2281999999997879
333,3,0.8,0.0625,-35.0,-1,1.0,0.6335999999998876
334,3,0.2,0.125,35.0,1,1.0,0.2617000000000189
335,3,0.2,0.0,35.0,-1,0.0,7.032599999999775
336,3,0.2,0.25,35.0,1,1.0,0.23510099999998602
337,3,0.2,0.125,35.0,1,1.0,0.3077009999999518
338,3,0.2,1.0,35.0,1,1.0,0.22539999999980864
339,3,0.2,0.0625,-35.0,1,0.0,6.739900000000034
340,3,0.2,0.125,35.0,1,1.0,0.2658999999998741
341,3,0.2,0.0625,35.0,1,1.0,0.2745999999997366
342,3,0.2,0.125,-35.0,-1,1.0,0.8123999999997977
343,3,0.2,1.0,35.0,1,1.0,0.21040100000004713
344,3,0.2,0.25,35.0,1,1.0,0.1929010000001199
345,3,0.2,0.25,35.0,1,1.0,0.2078999999998814
346,3,0.2,0.0625,35.0,1,1.0,0.2696000000000822
347,3,0.2,0.125,35.0,1,1.0,0.20049999999991996
348,3,0.2,0.25,35.0,1,1.0,0.2865009999998165
349,3,0.2,0.0,-35.0,-1,1.0,5.134999999999991
350,3,0.2,1.0,-35.0,-1,1.0,0.3265000000001237
351,3,0.2,0.25,-35.0,-1,1.0,0.2754010000001017
352,3,0.2,1.0,35.0,1,1.0,0.2500009999996564
353,3,0.2,0.0,-35.0,-1,1.0,2.8176009999997405
354,3,0.2,0.125,35.0,1,1.0,0.2336009999999078
355,3,0.2,1.0,35.0,1,1.0,0.19210099999986596
356,3,0.2,1.0,35.0,1,1.0,0.22710099999994782
357,3,0.2,0.25,35.0,1,1.0,0.2660999999998239
358,3,0.2,0.0,35.0,1,1.0,0.26720099999988633
359,3,0.2,0.25,-35.0,-1,1.0,0.718599999999924
360,3,0.2,0.25,35.0,1,1.0,0.21740099999965423
361,3,0.2,0.0625,35.0,1,1.0,0.2584009999998216
362,3,0.2,0.0,35.0,1,1.0,0.23089999999979227
363,3,0.2,1.0,35.0,1,1.0,0.24189999999975953
364,3,0.2,0.0,-35.0,-1,1.0,7.371200999999928
365,3,0.2,0.25,35.0,1,1.0,0.30029999999965185
366,3,0.2,0.0,35.0,-1,0.0,0.4614999999998872
367,3,0.2,1.0,35.0,1,1.0,0.22339999999985594
368,3,0.2,0.125,35.0,1,1.0,0.2316009999999551
369,3,0.2,0.25,-35.0,-1,1.0,0.21040199999993092
370,3,0.2,0.0,35.0,-1,0.0,1.8916009999998096
371,3,0.2,0.0625,35.0,1,1.0,0.29290199999968536
372,3,0.2,1.0,35.0,1,1.0,0.1552009999998063
373,3,0.2,0.0,-35.0,-1,1.0,1.2966010000000097
374,3,0.2,0.25,-35.0,-1,1.0,0.2855010000000675
375,3,0.2,0.0625,-35.0,-1,1.0,0.2775019999999131
376,3,0.2,0.125,35.0,1,1.0,0.2556010000000697
377,3,0.2,0.125,35.0,1,1.0,0.22360199999980068
378,3,0.2,0.0625,35.0,1,1.0,0.24590199999988727
379,3,0.2,0.25,35.0,1,1.0,0.44420199999990473
380,3,0.2,0.125,-35.0,-1,1.0,0.31260100000008606
381,3,0.2,0.25,35.0,1,1.0,0.19050100000004022
382,3,0.2,0.0625,35.0,1,1.0,0.25280199999974684
383,3,0.2,0.0,35.0,-1,0.0,4.373700999999983
384,3,0.2,0.25,35.0,1,1.0,0.2798019999997905
385,3,0.2,0.25,35.0,1,1.0,0.18760199999996985
386,3,0.2,0.0,35.0,1,1.0,0.2833019999998214
387,3,0.2,0.125,35.0,1,1.0,2.267700999999988
388,3,0.2,1.0,35.0,1,1.0,0.2700019999997494
389,3,0.2,0.125,35.0,1,1.0,0.27160099999969134
390,3,0.2,0.0625,35.0,1,1.0,0.330201999999872
391,3,0.2,0.0625,35.0,1,1.0,0.21180099999992308
392,3,0.2,0.25,-35.0,-1,1.0,0.2703009999997903
393,3,0.2,0.0,-35.0,-1,1.0,2.7789020000000164
394,3,0.2,0.0625,35.0,1,1.0,0.6973010000001523
395,3,0.2,1.0,35.0,1,1.0,0.18160199999988436
396,3,0.2,0.125,35.0,1,1.0,0.27090099999986705
397,3,0.2,0.0,35.0,1,1.0,0.27290099999981976
398,3,0.2,0.125,35.0,1,1.0,0.25090099999988524
399,3,0.2,0.0625,35.0,1,1.0,0.23600099999998747
400,3,0.2,0.0625,35.0,1,1.0,4.211101999999755
401,3,0.2,1.0,35.0,1,1.0,0.2217009999997117
402,3,0.2,0.25,-35.0,-1,1.0,0.29130099999997583
403,3,0.2,0.0625,35.0,1,1.0,0.28220199999987017
404,3,0.2,1.0,35.0,1,1.0,1.16810200000009
405,3,0.2,0.0625,35.0,1,1.0,0.3161009999998896
406,3,0.2,0.0625,35.0,1,1.0,0.2720010000000457
407,3,0.2,0.0625,35.0,1,1.0,0.26280099999985396
408,3,0.2,0.0,35.0,1,1.0,0.23840199999995093
409,3,0.2,0.0,35.0,1,1.0,0.18420199999991382
410,3,0.2,0.25,35.0,1,1.0,0.2354009999999107
411,3,0.2,0.0625,-35.0,-1,1.0,0.3032020000000557
412,3,0.2,0.125,35.0,1,1.0,0.15530199999989236
413,3,0.2,0.0,35.0,1,1.0,0.21240199999988363
414,3,0.2,0.125,35.0,1,1.0,0.25640199999998003
415,3,0.2,0.25,35.0,1,1.0,0.24590100000000348
416,3,0.2,0.125,35.0,1,1.0,0.24510099999974955
417,3,0.2,0.0,35.0,1,1.0,0.36580099999991944
418,3,0.2,0.25,35.0,1,1.0,0.2064020000000255
419,3,0.2,0.0,35.0,1,1.0,0.27940199999966353
420,3,0.2,0.0,35.0,1,1.0,0.23430099999995946
421,3,0.2,0.125,35.0,1,1.0,2.292801999999938
422,3,0.2,0.0,35.0,-1,0.0,1.83070100000009
423,3,0.2,1.0,35.0,1,1.0,0.28340099999991253
424,3,0.2,0.125,35.0,1,1.0,0.26060099999995145
425,3,0.2,0.0625,35.0,1,1.0,0.25660199999992983
426,3,0.2,0.125,35.0,1,1.0,0.30590099999972153
427,3,0.2,0.0625,35.0,1,1.0,1.4466009999996459
428,3,0.2,0.125,-35.0,1,0.0,0.18360200000006444
429,3,0.2,1.0,35.0,1,1.0,0.24560199999996257
430,3,0.2,0.0625,35.0,-1,0.0,0.560600999999906
431,3,0.2,1.0,-35.0,-1,1.0,0.33500199999980396
432,3,0.2,0.25,-35.0,-1,1.0,0.48390199999994365
433,3,0.8,0.0,-35.0,1,0.0,0.556601999999657
434,3,0.8,0.125,35.0,1,1.0,0.2940009999997528
435,3,0.8,1.0,-35.0,-1,1.0,0.20900099999971644
436,3,0.8,1.0,-35.0,-1,1.0,0.30090199999972356
437,3,0.8,0.125,35.0,1,1.0,2.5222009999999955
438,3,0.8,0.0625,35.0,1,1.0,0.2778019999998378
439,3,0.8,0.125,-35.0,-1,1.0,0.5087009999997463
440,3,0.8,0.0,-35.0,1,0.0,0.3148009999997612
441,3,0.8,0.0,35.0,1,1.0,0.35980099999983395
442,3,0.8,1.0,-35.0,-1,1.0,0.5117009999996753
443,3,0.8,1.0,-35.0,-1,1.0,2.399801000000025
444,3,0.8,0.0,-35.0,1,0.0,0.28520099999991544
445,3,0.8,0.0625,-35.0,-1,1.0,0.7469019999998636
446,3,0.8,0.125,-35.0,-1,1.0,0.4085009999998874
447,3,0.8,1.0,35.0,1,1.0,0.21490199999971082
448,3,0.8,0.0,-35.0,1,0.0,0.3421009999999569
449,3,0.8,1.0,-35.0,-1,1.0,0.3431020000000444
450,3,0.8,0.25,-35.0,-1,1.0,0.4989019999998163
451,3,0.8,0.25,-35.0,-1,1.0,0.4170010000000275
452,3,0.8,0.0,-35.0,-1,1.0,4.435600999999906
453,3,0.8,1.0,-35.0,-1,1.0,0.2880009999998947
454,3,0.8,0.0625,35.0,1,1.0,0.3326009999998405
455,3,0.8,0.125,35.0,1,1.0,0.26670199999989563
456,3,0.8,0.125,-35.0,-1,1.0,4.16610199999991
457,3,0.8,0.25,-35.0,-1,1.0,0.35750099999995655
458,3,0.8,0.0,35.0,-1,0.0,21.286500999999816
459,3,0.8,0.125,35.0,1,1.0,0.4854019999997945
460,3,0.8,0.0,-35.0,-1,1.0,21.09680100000014
461,3,0.8,1.0,-35.0,-1,1.0,0.358400999999958
462,3,0.8,0.125,-35.0,-1,1.0,0.3745010000000093
463,3,0.2,0.0625,35.0,-1,0.0,0.6325019999999313
464,3,0.2,0.0,35.0,-1,0.0,4.807701999999836
465,3,0.2,0.25,35.0,1,1.0,0.2829019999999218
466,3,0.2,0.25,35.0,1,1.0,0.31480099999998856
467,3,0.2,1.0,35.0,1,1.0,0.297600999999986
468,3,0.2,1.0,35.0,1,1.0,0.3182009999998172
469,3,0.2,0.0625,35.0,1,1.0,0.2762009999999009
470,3,0.2,0.125,35.0,1,1.0,0.3686010000001261
471,3,0.2,0.0,35.0,-1,0.0,0.5690019999999549
472,3,0.2,0.125,35.0,1,1.0,0.3586009999999078
473,3,0.2,0.25,35.0,1,1.0,0.29070099999989907
474,3,0.2,0.0,-35.0,1,0.0,0.24880099999995764
475,3,0.2,0.125,35.0,1,1.0,0.2540009999997892
476,3,0.2,1.0,-35.0,-1,1.0,0.3157019999998738
477,3,0.2,0.25,35.0,1,1.0,0.2268019999999069
478,3,0.2,1.0,35.0,1,1.0,0.20900099999994382
479,3,0.2,0.125,35.0,1,1.0,0.26440099999990707
480,3,0.2,0.0,35.0,1,1.0,0.24260100000014972
481,3,0.2,0.0,35.0,1,1.0,0.2605020000000877
482,3,0.2,1.0,35.0,1,1.0,0.21650099999988015
483,3,0.2,0.0625,35.0,1,1.0,0.2271019999998316
484,3,0.2,0.25,35.0,1,1.0,0.24980199999981778
485,3,0.2,1.0,35.0,1,1.0,0.2048019999999724
486,3,0.2,0.0625,-35.0,-1,1.0,0.43640099999993254
487,3,0.8,0.125,35.0,1,1.0,0.24100099999986924
488,3,0.8,0.25,-35.0,-1,1.0,0.4432009999998172
489,3,0.8,0.0625,-35.0,-1,1.0,2.918001000000004
490,3,0.8,0.125,-35.0,-1,1.0,0.5201019999999517
491,3,0.8,1.0,-35.0,-1,1.0,0.36780099999987215
492,3,0.8,0.0,-35.0,1,0.0,0.27040199999987635
493,3,0.8,0.0,-35.0,1,0.0,0.30500099999994745
494,3,0.8,0.0,35.0,1,1.0,0.28710099999989325
495,3,0.8,0.0625,35.0,1,1.0,0.12490099999990889
496,3,0.8,0.0625,-35.0,-1,1.0,4.117200999999795
497,3,0.8,0.25,-35.0,-1,1.0,0.3061010000001261
498,3,0.8,0.125,-35.0,-1,1.0,0.27420200000005934
499,3,0.8,0.25,35.0,1,1.0,0.31540099999983795
500,3,0.8,1.0,-35.0,-1,1.0,0.32120199999985743
501,3,0.8,1.0,-35.0,-1,1.0,0.19220199999995202
502,3,0.8,0.0625,-35.0,1,0.0,0.2712019999999029
503,3,0.8,0.25,-35.0,-1,1.0,0.4290009999999711
504,3,0.8,0.0,-35.0,1,0.0,0.26820100000009006
505,3,0.8,0.0625,-35.0,-1,1.0,0.6923009999998158
506,3,0.8,1.0,35.0,1,1.0,0.2216009999999642
507,3,0.8,0.0625,-35.0,1,0.0,0.1065009999999802
508,3,0.8,1.0,-35.0,-1,1.0,0.4285019999999804
509,3,0.8,0.0625,-35.0,-1,1.0,2.809402000000091
510,3,0.8,0.125,35.0,1,1.0,0.30540199999973083
511,3,0.8,0.0,-35.0,1,0.0,0.3034019999997781
512,3,0.8,0.125,-35.0,-1,1.0,0.4855009999998856
513,3,0.8,0.0,-35.0,-1,1.0,8.490201999999954
514,3,0.8,0.25,-35.0,-1,1.0,0.3295010000001639
515,3,0.8,0.25,35.0,1,1.0,0.2245020000000295
516,3,0.8,0.125,-35.0,-1,1.0,0.3427020000003722
517,3,0.8,0.0625,-35.0,-1,1.0,0.3245020000003933
518,3,0.8,0.0,-35.0,1,0.0,0.28960100000040256
519,3,0.8,0.125,35.0,1,1.0,0.22060100000044258
520,3,0.8,0.125,-35.0,-1,1.0,2.5328020000001743
521,3,0.8,0.0625,-35.0,-1,1.0,0.4346009999999296
522,3,0.8,1.0,-35.0,-1,1.0,0.31670100000019374
523,3,0.8,1.0,-35.0,-1,1.0,0.25470200000063414
524,3,0.8,0.125,-35.0,-1,1.0,0.45990100000017264
525,3,0.8,1.0,-35.0,-1,1.0,0.30480199999965407
526,3,0.2,0.25,35.0,1,1.0,0.22400100000004386
527,3,0.2,0.0,35.0,1,1.0,0.3497019999999793
528,3,0.2,0.0625,35.0,1,1.0,0.26040199999988545
529,3,0.2,1.0,35.0,1,1.0,2.0579009999996742
530,3,0.2,0.0625,35.0,1,1.0,0.27400100000022576
531,3,0.2,0.0,35.0,-1,0.0,7.401801999999861
532,3,0.2,0.0625,35.0,1,1.0,0.29100200000038967
533,3,0.2,0.125,35.0,1,1.0,0.2729010000002745
534,3,0.2,0.125,35.0,1,1.0,0.2511020000001736
535,3,0.2,0.0,35.0,1,1.0,0.33390100000042366
536,3,0.2,0.0,35.0,-1,0.0,4.5313020000003235
537,3,0.2,0.125,35.0,1,1.0,0.24570200000016484
538,3,0.2,0.0,35.0,1,1.0,0.33820200000036493
539,3,0.2,0.0625,35.0,1,1.0,0.38060100000029706
540,3,0.2,0.25,35.0,1,1.0,0.2851020000002791
541,3,0.2,0.0625,35.0,1,1.0,0.7634010000001581
542,3,0.2,1.0,-35.0,-1,1.0,0.3898010000002614
543,3,0.2,0.0,35.0,-1,0.0,2.9401010000005954
544,3,0.2,0.0,35.0,-1,0.0,4.632102000000032
545,3,0.2,0.0,35.0,1,1.0,0.29320099999995364
546,3,0.2,0.0,35.0,1,1.0,0.37900100000024395
547,3,0.2,0.0625,-35.0,-1,1.0,0.6402020000000448
548,3,0.2,1.0,35.0,1,1.0,1.80920100000003
549,3,0.2,0.0,-35.0,1,0.0,0.3513010000006034
550,3,0.2,1.0,-35.0,-1,1.0,0.26950200000010227
551,3,0.2,0.125,35.0,1,1.0,0.278302000000167
552,3,0.2,0.125,35.0,1,1.0,0.253001999999924
553,3,0.2,0.125,-35.0,-1,1.0,0.575300999999854
554,3,0.2,0.0625,35.0,1,1.0,0.32980099999986123
555,3,0.2,1.0,-35.0,-1,1.0,0.3143019999997705
556,3,0.2,0.0625,35.0,1,1.0,0.28330200000027617
557,3,0.2,0.0,-35.0,1,0.0,0.3294010000004164
558,3,0.2,0.0625,35.0,1,1.0,0.35030200000028344
559,3,0.2,0.0625,-35.0,-1,1.0,0.6014020000002347
560,3,0.2,0.0,35.0,-1,0.0,2.750402000000122
561,3,0.2,0.0,35.0,-1,0.0,7.893502000000353
562,3,0.2,0.0,-35.0,1,0.0,0.41760199999998804
563,3,0.2,0.25,35.0,1,1.0,2.3121020000003227
564,3,0.2,0.0625,35.0,1,1.0,0.3110020000003715
565,3,0.2,0.0625,35.0,-1,0.0,32.74960100000044
566,3,0.2,0.0,35.0,-1,0.0,18.40190100000018
567,3,0.2,0.0625,35.0,-1,0.0,1.6310020000000804
568,3,0.2,0.0,35.0,1,1.0,16.099002000000382
569,3,0.2,0.0625,-35.0,1,0.0,45.62400099999968
570,3,0.2,0.125,35.0,-1,0.0,51.95090100000016
571,3,0.2,0.25,35.0,0,0.0,60.1006010000001
572,3,0.2,0.125,35.0,0,0.0,60.03120100000024
1,4,0.5,0.25,-35.0,1,0.0,0.2595999999999996
2,4,0.5,0.0,-35.0,1,0.0,0.2827010000000003
3,4,0.5,1.0,-35.0,-1,1.0,0.29850099999999813
4,4,0.5,0.0,-35.0,1,0.0,0.4726000000000017
5,4,0.5,0.125,-35.0,-1,1.0,0.29820000000000135
6,4,0.5,0.0,35.0,1,1.0,0.3578999999999972
7,4,0.5,0.0,-35.0,1,0.0,0.24980000000000047
8,4,0.5,0.25,-35.0,-1,1.0,0.37229999999999563
9,4,0.5,0.0625,35.0,-1,0.0,1.184100000000008
10,4,0.5,0.0,35.0,-1,0.0,0.6731999999999942
11,4,0.5,0.25,-35.0,-1,1.0,0.43940000000000623
12,4,0.5,0.125,35.0,1,1.0,0.214000999999989
13,4,0.5,0.0625,35.0,1,1.0,0.8856010000000012
14,4,0.5,1.0,-35.0,-1,1.0,0.4067009999999982
15,4,0.5,0.25,-35.0,-1,1.0,0.5374009999999956
16,4,0.5,0.125,-35.0,-1,1.0,0.39579999999999416
17,4,0.5,0.25,-35.0,-1,1.0,0.38279999999999603
18,4,0.5,1.0,35.0,1,1.0,0.21840100000000007
19,4,0.5,1.0,-35.0,-1,1.0,0.4003009999999989
20,4,0.5,0.0,-35.0,-1,1.0,0.6345999999999918
21,4,0.5,0.0625,35.0,1,1.0,4.926901000000001
22,4,0.5,0.0625,35.0,1,1.0,0.26200099999999793
23,4,0.5,0.25,35.0,1,1.0,0.20810000000000173
24,4,0.5,0.125,35.0,1,1.0,0.2592000000000212
25,4,0.5,0.25,35.0,1,1.0,0.2181009999999901
26,4,0.5,0.125,35.0,1,1.0,0.27200100000000305
27,4,0.5,0.0,-35.0,1,0.0,0.21900099999999156
28,4,0.5,1.0,-35.0,-1,1.0,0.3158999999999992
29,4,0.5,0.125,35.0,1,1.0,0.2224999999999966
30,4,0.5,0.0625,-35.0,1,0.0,0.6659010000000052
31,4,0.5,0.0625,35.0,1,1.0,0.23500000000001364
32,4,0.5,0.0625,35.0,1,1.0,0.3009000000000128
33,4,0.5,0.25,-35.0,-1,1.0,0.516801000000001
34,4,0.5,0.0,-35.0,1,0.0,0.26190100000002303
35,4,0.5,1.0,-35.0,-1,1.0,0.27259999999998286
36,4,0.5,0.25,35.0,1,1.0,0.20220000000000482
37,4,0.5,0.25,-35.0,-1,1.0,0.4605009999999652
38,4,0.5,0.25,35.0,1,1.0,0.21900100000001999
39,4,0.5,1.0,35.0,1,1.0,0.165300000000002
40,4,0.5,0.25,35.0,1,1.0,0.19300000000001205
41,4,0.5,1.0,35.0,1,1.0,0.17549999999999955
42,4,0.5,0.25,-35.0,-1,1.0,0.633800999999977
43,4,0.5,1.0,35.0,1,1.0,0.212600000000009
44,4,0.5,0.0,35.0,1,1.0,0.2197999999999638
45,4,0.5,0.25,35.0,1,1.0,0.22360000000000468
46,4,0.5,0.0,-35.0,1,0.0,0.24619999999998754
47,4,0.5,0.0,-35.0,1,0.0,0.19550099999997883
48,4,0.5,0.0625,35.0,1,1.0,0.2082009999999741
49,4,0.5,0.125,35.0,1,1.0,0.1824009999999987
50,4,0.5,0.0,35.0,1,1.0,0.2196999999999889
51,4,0.5,0.0,-35.0,1,0.0,0.2722010000000239
52,4,0.5,0.25,35.0,1,1.0,0.1786999999999921
53,4,0.5,0.0,35.0,-1,0.0,1.0412999999999784
54,4,0.5,0.0,-35.0,1,0.0,0.234800000000007
55,4,0.5,1.0,35.0,1,1.0,0.19120100000000662
56,4,0.5,0.0,-35.0,-1,1.0,2.61160000000001
57,4,0.5,1.0,35.0,1,1.0,0.5173999999999808
58,4,0.5,0.125,35.0,1,1.0,0.20600099999998633
59,4,0.5,0.25,35.0,1,1.0,0.2335000000000207
60,4,0.5,0.0,-35.0,1,0.0,0.20840100000000916
61,4,0.5,1.0,35.0,1,1.0,0.1927000000000021
62,4,0.5,0.0625,-35.0,1,0.0,0.21949999999998226
63,4,0.5,0.25,-35.0,-1,1.0,0.39459999999999695
64,4,0.5,0.25,-35.0,-1,1.0,0.37350000000000705
65,4,0.5,0.25,-35.0,-1,1.0,0.2574999999999932
66,4,0.5,0.25,-35.0,-1,1.0,0.36160099999997897
67,4,0.5,0.0,-35.0,-1,1.0,3.6365009999999813
68,4,0.5,0.25,35.0,1,1.0,0.24560099999999352
69,4,0.5,0.0,-35.0,-1,1.0,0.5978000000000065
70,4,0.5,0.125,35.0,1,1.0,0.2367009999999823
71,4,0.5,0.0,-35.0,-1,1.0,0.387299999999982
72,4,0.5,0.0,35.0,-1,0.0,0.9416009999999915
73,4,0.5,1.0,35.0,1,1.0,0.2558010000000195
74,4,0.5,0.0625,35.0,1,1.0,0.22520000000002938
75,4,0.5,0.0,-35.0,-1,1.0,0.9349010000000249
76,4,0.5,0.25,35.0,1,1.0,0.1876999999999498
77,4,0.5,0.0,35.0,-1,0.0,0.4507009999999809
78,4,0.5,0.0625,35.0,1,1.0,0.3348009999999704
79,4,0.5,0.0,-35.0,-1,1.0,1.821799999999996
80,4,0.5,0.0,35.0,-1,0.0,5.16450100000003
81,4,0.5,0.0,35.0,1,1.0,0.3145009999999502
82,4,0.5,0.25,35.0,-1,0.0,6.129599999999982
83,4,0.5,0.0,35.0,1,1.0,0.560799999999972
84,4,0.5,0.0625,-35.0,-1,1.0,0.5896009999999592
85,4,0.5,0.0625,35.0,1,1.0,5.1007999999999925
86,4,0.5,0.0,35.0,1,1.0,4.3553
87,4,0.5,0.25,-35.0,1,0.0,0.8867009999999595
88,4,0.5,0.25,35.0,1,1.0,7.305199999999957
89,4,0.5,0.25,35.0,1,1.0,0.4560999999999922
90,4,0.5,0.25,-35.0,-1,1.0,4.2047999999999774
91,4,0.2,1.0,-35.0,1,0.0,0.2922009999999773
92,4,0.2,0.25,35.0,1,1.0,0.2460999999999558
93,4,0.2,0.25,-35.0,1,0.0,0.25170099999996864
94,4,0.2,1.0,35.0,1,1.0,0.21690000000000964
95,4,0.2,0.0,35.0,1,1.0,0.2302010000000223
96,4,0.2,0.125,35.0,1,1.0,0.23610099999996237
97,4,0.2,1.0,35.0,1,1.0,0.19660000000010314
98,4,0.2,0.0,-35.0,1,0.0,0.1835000000000946
99,4,0.2,1.0,35.0,1,1.0,0.11189999999999145
100,4,0.2,0.0,35.0,1,1.0,0.22830000000010386
101,4,0.2,0.0,35.0,1,1.0,0.2089010000000826
102,4,0.2,0.25,35.0,1,1.0,0.18200100000012753
103,4,0.2,1.0,-35.0,-1,1.0,0.25
104,4,0.2,0.125,-35.0,-1,1.0,0.7590000000000146
105,4,0.2,0.25,35.0,1,1.0,0.33950100000004113
106,4,0.2,0.125,35.0,-1,0.0,2.109301000000073
107,4,0.2,1.0,35.0,1,1.0,0.20640000000003056
108,4,0.2,0.125,35.0,1,1.0,0.2051010000000133
109,4,0.2,1.0,35.0,1,1.0,0.17610100000001694
110,4,0.2,0.0625,35.0,1,1.0,0.19980100000009315
111,4,0.2,0.25,35.0,-1,0.0,5.789301000000023
112,4,0.2,1.0,-35.0,-1,1.0,0.4182010000000673
113,4,0.2,0.0625,35.0,-1,0.0,2.0371010000001206
114,4,0.2,0.0625,35.0,1,1.0,0.23420099999998456
115,4,0.2,0.125,-35.0,-1,1.0,0.43200000000013006
116,4,0.2,0.0,35.0,1,1.0,0.28110100000003513
117,4,0.2,1.0,-35.0,-1,1.0,0.26060100000006514
118,4,0.2,0.0,35.0,-1,0.0,2.297301000000175
119,4,0.2,0.125,35.0,1,1.0,0.23890000000005784
120,4,0.2,1.0,35.0,1,1.0,0.32560000000012224
121,4,0.2,0.125,35.0,1,1.0,0.35340000000019245
122,4,0.2,0.0625,35.0,1,1.0,0.27270000000009986
123,4,0.2,0.125,35.0,1,1.0,0.3023000000000593
124,4,0.2,0.125,35.0,1,1.0,0.3003009999999904
125,4,0.2,0.25,35.0,1,1.0,0.3077010000000655
126,4,0.2,0.0625,-35.0,-1,1.0,0.560100000000034
127,4,0.2,0.0,35.0,1,1.0,0.26610100000004877
128,4,0.2,0.25,35.0,1,1.0,0.25649999999996
129,4,0.2,1.0,35.0,1,1.0,0.27860000000009677
130,4,0.2,1.0,35.0,1,1.0,0.25070100000004913
131,4,0.2,0.0625,35.0,1,1.0,0.27719999999999345
132,4,0.2,0.125,35.0,1,1.0,0.2895010000000866
133,4,0.2,0.0,35.0,1,1.0,0.2677999999999656
134,4,0.2,0.125,35.0,1,1.0,0.23940000000004602
135,4,0.2,0.0625,-35.0,1,0.0,0.24810100000013335
136,4,0.2,1.0,35.0,1,1.0,0.1996000000000322
137,4,0.2,0.125,35.0,1,1.0,0.27309999999999945
138,4,0.2,0.125,35.0,1,1.0,0.26320000000009713
139,4,0.2,1.0,35.0,1,1.0,0.2536999999999807
140,4,0.2,0.0625,35.0,1,1.0,0.2500009999999975
141,4,0.2,0.0625,35.0,1,1.0,0.24700100000006842
142,4,0.2,0.0,35.0,1,1.0,0.44220100000006823
143,4,0.2,0.125,35.0,1,1.0,0.25240099999996346
144,4,0.2,0.0,35.0,1,1.0,0.255800000000022
145,4,0.2,0.25,35.0,1,1.0,0.23510099999998602
146,4,0.2,0.25,35.0,1,1.0,0.29050100000006296
147,4,0.2,0.0,-35.0,-1,1.0,8.142900999999938
148,4,0.2,0.0625,35.0,1,1.0,0.2678000000000793
149,4,0.2,0.125,35.0,1,1.0,0.2572010000001228
150,4,0.2,0.0625,-35.0,-1,1.0,0.42170100000009825
151,4,0.2,0.25,35.0,1,1.0,0.2533010000000786
152,4,0.2,0.25,-35.0,-1,1.0,0.259001000000012
153,4,0.2,0.125,-35.0,-1,1.0,0.4289010000001099
154,4,0.2,0.0,35.0,1,1.0,0.23290099999996983
155,4,0.2,1.0,35.0,1,1.0,0.2474010000000817
156,4,0.2,0.25,35.0,1,1.0,0.6820000000001301
157,4,0.2,0.0,35.0,1,1.0,0.2882000000000744
158,4,0.2,0.125,35.0,1,1.0,0.22400100000004386
159,4,0.2,0.125,35.0,1,1.0,0.265700000000038
160,4,0.2,0.125,-35.0,-1,1.0,0.3742009999999709
161,4,0.2,0.25,35.0,1,1.0,0.23840100000006714
162,4,0.2,0.25,35.0,1,1.0,0.2697000000000571
163,4,0.2,1.0,-35.0,-1,1.0,0.288599999999974
164,4,0.2,0.0625,35.0,1,1.0,0.2758000000001175
165,4,0.2,0.0625,-35.0,1,0.0,0.25300000000015643
166,4,0.2,0.0,35.0,1,1.0,0.25220100000001366
167,4,0.2,0.25,35.0,1,1.0,0.3020000000000209
168,4,0.2,1.0,35.0,1,1.0,0.2272010000000364
169,4,0.2,0.25,35.0,1,1.0,0.21500000000003183
170,4,0.2,0.0625,35.0,1,1.0,1.139099999999985
171,4,0.2,0.0625,35.0,1,1.0,0.2376000000000431
172,4,0.2,0.25,35.0,1,1.0,0.22130000000004202
173,4,0.2,0.125,35.0,1,1.0,0.2473009999999931
174,4,0.2,0.0625,-35.0,-1,1.0,0.5053000000001475
175,4,0.2,0.125,35.0,1,1.0,0.2177000000000362
176,4,0.2,0.25,35.0,1,1.0,0.23730000000000473
177,4,0.2,0.125,-35.0,1,0.0,0.24830099999996946
178,4,0.2,0.125,35.0,1,1.0,0.2034009999999853
179,4,0.2,0.125,35.0,1,1.0,0.233400999999958
180,4,0.2,1.0,35.0,1,1.0,0.20540100000005168
181,4,0.2,0.0,35.0,1,1.0,0.5501000000000431
182,4,0.2,1.0,35.0,1,1.0,0.23270000000002256
183,4,0.2,0.0625,35.0,1,1.0,0.2029009999999971
184,4,0.2,0.0625,35.0,1,1.0,0.16669999999999163
185,4,0.2,0.0625,35.0,1,1.0,0.19950100000005477
186,4,0.2,0.25,35.0,1,1.0,0.08760000000006585
187,4,0.8,0.0625,-35.0,1,0.0,0.18010000000003856
188,4,0.8,0.0625,-35.0,-1,1.0,0.5335000000000036
189,4,0.8,0.125,-35.0,1,0.0,0.21050100000013572
190,4,0.8,0.25,-35.0,-1,1.0,0.5095010000000002
191,4,0.8,0.25,35.0,1,1.0,0.23050000000012005
192,4,0.8,1.0,-35.0,-1,1.0,0.2619999999999436
193,4,0.8,0.0,-35.0,1,0.0,0.24410000000011678
194,4,0.8,0.125,-35.0,-1,1.0,0.2540000000000191
195,4,0.8,0.0625,35.0,1,1.0,0.2504999999999882
196,4,0.8,0.25,-35.0,-1,1.0,0.24030000000004748
197,4,0.8,0.125,-35.0,-1,1.0,0.35210000000006403
198,4,0.8,0.0,35.0,-1,0.0,2.638900000000035
199,4,0.8,1.0,-35.0,-1,1.0,0.22590100000002167
200,4,0.8,0.125,-35.0,-1,1.0,0.6659010000000762
201,4,0.8,0.25,35.0,1,1.0,0.18580000000008567
202,4,0.8,0.125,-35.0,1,0.0,2.213901000000078
203,4,0.8,0.0,-35.0,1,0.0,0.2777010000000928
204,4,0.8,0.125,35.0,1,1.0,0.26890000000014425
205,4,0.8,0.0,-35.0,1,0.0,0.28729999999995925
206,4,0.8,0.25,35.0,1,1.0,0.24790099999995618
207,4,0.8,0.25,35.0,1,1.0,0.23710000000005493
208,4,0.8,0.125,-35.0,-1,1.0,0.3185009999999693
209,4,0.8,1.0,-35.0,-1,1.0,0.26720000000000255
210,4,0.8,0.0,-35.0,-1,1.0,0.8558009999999285
211,4,0.8,0.125,35.0,1,1.0,0.21890000000007603
212,4,0.8,0.0625,-35.0,-1,1.0,0.4051010000000588
213,4,0.8,0.125,-35.0,-1,1.0,0.4751000000001113
214,4,0.8,0.0,-35.0,-1,1.0,0.26710000000002765
215,4,0.8,0.0625,-35.0,-1,1.0,0.2594010000000253
216,4,0.8,0.25,35.0,1,1.0,0.21309999999994034
217,4,0.8,0.125,-35.0,-1,1.0,0.2545000000000073
218,4,0.2,0.0625,35.0,1,1.0,0.22210100000006605
219,4,0.2,1.0,35.0,1,1.0,0.2233010000001059
220,4,0.2,0.25,-35.0,-1,1.0,0.3730000000000473
221,4,0.2,0.25,35.0,1,1.0,0.2536010000000033
222,4,0.2,0.0,-35.0,-1,1.0,1.5901000000000067
223,4,0.2,0.0,35.0,-1,0.0,0.9282000000000608
224,4,0.2,1.0,35.0,1,1.0,0.2543000000000575
225,4,0.2,0.0,-35.0,1,0.0,0.29260100000010425
226,4,0.2,1.0,35.0,1,1.0,0.2233010000001059
227,4,0.2,0.0625,35.0,1,1.0,0.22880099999997583
228,4,0.2,0.0,35.0,-1,0.0,0.4033000000000584
229,4,0.2,0.0,35.0,1,1.0,0.3059010000000626
230,4,0.2,0.125,35.0,1,1.0,0.2665000000000646
231,4,0.2,0.0,-35.0,-1,1.0,10.226099999999974
232,4,0.2,0.0,-35.0,-1,1.0,0.43770099999994727
233,4,0.2,0.125,35.0,1,1.0,0.25309999999990396
234,4,0.2,1.0,35.0,1,1.0,3.624499999999898
235,4,0.2,0.0,35.0,-1,0.0,3.0366010000000188
236,4,0.2,0.125,35.0,1,1.0,0.25870099999997365
237,4,0.2,1.0,35.0,1,1.0,0.2870999999997821
238,4,0.2,0.0625,-35.0,1,0.0,0.20260000000007494
239,4,0.2,1.0,35.0,1,1.0,0.2538010000000668
240,4,0.2,1.0,35.0,1,1.0,0.2213010000000395
241,4,0.2,1.0,35.0,1,1.0,0.22070099999996273
242,4,0.2,0.25,35.0,1,1.0,0.2518999999999778
243,4,0.2,0.0625,-35.0,-1,1.0,0.33740099999977247
244,4,0.2,1.0,35.0,1,1.0,0.21800000000007458
245,4,0.2,1.0,35.0,1,1.0,0.22420000000010987
246,4,0.2,0.0625,35.0,-1,0.0,1.0017009999999118
247,4,0.2,0.0,35.0,1,1.0,0.2642009999999573
248,4,0.2,0.125,-35.0,-1,1.0,0.3427009999998063
249,4,0.8,0.25,35.0,1,1.0,0.23119999999994434
250,4,0.8,0.125,-35.0,-1,1.0,0.26880000000005566
251,4,0.8,0.125,-35.0,-1,1.0,0.4249999999999545
252,4,0.8,0.25,-35.0,-1,1.0,0.2421999999999116
253,4,0.8,0.0625,-35.0,1,0.0,0.24489999999991596
254,4,0.8,0.0625,-35.0,-1,1.0,0.2838000000001557
255,4,0.8,1.0,-35.0,-1,1.0,0.22519999999985885
256,4,0.8,0.125,-35.0,-1,1.0,0.3471009999998387
257,4,0.8,0.0625,-35.0,-1,1.0,0.42850099999986924
258,4,0.8,0.25,-35.0,-1,1.0,0.4770009999999729
259,4,0.8,0.25,-35.0,-1,1.0,0.27539999999999054
260,4,0.8,1.0,-35.0,-1,1.0,0.26260099999990416
261,4,0.8,0.125,-35.0,-1,1.0,0.42899999999985994
262,4,0.8,1.0,-35.0,-1,1.0,0.23620099999993727
263,4,0.8,0.0625,35.0,1,1.0,0.28579999999988104
264,4,0.8,0.25,35.0,1,1.0,0.20679999999993015
265,4,0.8,0.0625,35.0,1,1.0,0.6094009999999344
266,4,0.8,0.25,-35.0,-1,1.0,0.25969999999983884
267,4,0.8,0.25,-35.0,-1,1.0,0.2525999999998021
268,4,0.8,0.125,-35.0,1,0.0,0.21710100000018429
269,4,0.8,0.125,35.0,1,1.0,0.236100999999735
270,4,0.8,1.0,-35.0,-1,1.0,0.25120099999980994
271,4,0.8,1.0,35.0,1,1.0,0.21959999999990032
272,4,0.8,0.125,-35.0,-1,1.0,0.2340999999998985
273,4,0.8,0.0625,-35.0,1,0.0,0.23979999999983193
274,4,0.8,0.25,-35.0,-1,1.0,0.2282009999996717
275,4,0.8,0.125,-35.0,-1,1.0,0.25319999999987886
276,4,0.8,0.125,35.0,1,1.0,0.27099999999995816
277,4,0.8,0.0,35.0,1,1.0,0.26670100000001185
278,4,0.8,0.125,-35.0,-1,1.0,0.3043009999998958
279,4,0.8,1.0,-35.0,-1,1.0,0.30720099999984996
280,4,0.8,0.0,-35.0,-1,1.0,1.2553009999999176
281,4,0.8,0.25,35.0,1,1.0,0.24050099999976737
282,4,0.8,0.25,-35.0,-1,1.0,0.3063999999999396
283,4,0.8,1.0,35.0,1,1.0,0.19720100000017737
284,4,0.8,0.0625,-35.0,-1,1.0,0.5581999999997151
285,4,0.8,0.0,-35.0,-1,1.0,2.7773010000000795
286,4,0.8,0.25,-35.0,-1,1.0,0.3689009999998234
287,4,0.8,0.0625,35.0,-1,0.0,0.5111010000000533
288,4,0.8,0.125,-35.0,-1,1.0,0.35599999999976717
289,4,0.8,1.0,-35.0,-1,1.0,0.2948010000002341
290,4,0.8,0.25,35.0,1,1.0,0.2495000000001255
291,4,0.8,1.0,35.0,1,1.0,0.20450000000005275
292,4,0.8,1.0,35.0,1,1.0,0.22170100000016646
293,4,0.8,0.0625,-35.0,1,0.0,0.25480100000004313
294,4,0.8,1.0,-35.0,-1,1.0,0.33360099999981685
295,4,0.8,1.0,35.0,1,1.0,0.23490100000003622
296,4,0.8,0.0625,-35.0,-1,1.0,0.4366000000002259
297,4,0.8,0.0625,-35.0,1,0.0,0.24879999999984648
298,4,0.8,0.0625,-35.0,-1,1.0,0.6866010000001097
299,4,0.8,0.0625,-35.0,-1,1.0,0.842000999999982
300,4,0.8,0.0,-35.0,1,0.0,0.35969999999997526
301,4,0.8,1.0,-35.0,-1,1.0,0.28569999999990614
302,4,0.8,0.0625,-35.0,1,0.0,0.2598000000000411
303,4,0.8,1.0,-35.0,-1,1.0,0.23580100000003767
304,4,0.8,0.0625,35.0,1,1.0,0.26480100000003404
305,4,0.8,0.125,-35.0,-1,1.0,0.49919999999997344
306,4,0.8,1.0,-35.0,-1,1.0,0.2806000000000495
307,4,0.8,0.125,-35.0,-1,1.0,0.32940000000007785
308,4,0.8,0.0,35.0,-1,0.0,0.6308010000000195
309,4,0.8,0.0,-35.0,-1,1.0,1.7329999999999472
310,4,0.8,0.0,-35.0,-1,1.0,2.7509000000000015
311,4,0.8,0.125,-35.0,-1,1.0,0.6268009999998867
312,4,0.8,0.0625,-35.0,1,0.0,0.2841999999998279
313,4,0.8,0.25,35.0,1,1.0,0.25
314,4,0.8,0.125,-35.0,-1,1.0,0.4090009999999893
315,4,0.8,0.0,-35.0,-1,1.0,0.38380099999994854
316,4,0.8,0.25,-35.0,-1,1.0,0.4177999999999429
317,4,0.8,0.125,35.0,1,1.0,0.2572010000001228
318,4,0.8,0.25,-35.0,-1,1.0,0.22110099999986232
319,4,0.8,1.0,-35.0,-1,1.0,0.2670999999998003
320,4,0.8,0.0,-35.0,1,0.0,0.2922009999999773
321,4,0.8,0.25,-35.0,-1,1.0,0.3606009999998605
322,4,0.8,0.25,-35.0,-1,1.0,0.9581010000001697
323,4,0.8,0.125,-35.0,-1,1.0,0.40440099999977974
324,4,0.8,1.0,35.0,1,1.0,0.24819999999976972
325,4,0.8,1.0,-35.0,-1,1.0,0.23119999999994434
326,4,0.8,0.125,35.0,1,1.0,0.26900000000000546
327,4,0.8,0.125,-35.0,-1,1.0,0.45810000000005857
328,4,0.8,0.0,-35.0,-1,1.0,6.238099999999804
329,4,0.8,0.0625,-35.0,-1,1.0,0.42470000000002983
330,4,0.8,0.0,-35.0,-1,1.0,6.623300999999856
331,4,0.8,1.0,-35.0,-1,1.0,0.3222000000000662
332,4,0.8,0.0,-35.0,1,0.0,0.3104000000000724
333,4,0.2,0.0,35.0,-1,0.0,0.6655009999999493
334,4,0.2,0.25,-35.0,-1,1.0,0.28740099999981794
335,4,0.2,0.0,35.0,-1,0.0,0.7023999999998978
336,4,0.2,1.0,35.0,1,1.0,0.21640000000002146
337,4,0.2,0.0625,35.0,1,1.0,0.30569999999988795
338,4,0.2,1.0,35.0,1,1.0,0.20710000000008222
339,4,0.2,1.0,-35.0,-1,1.0,0.23600000000010368
340,4,0.2,1.0,35.0,1,1.0,0.19010000000002947
341,4,0.2,0.25,35.0,1,1.0,0.23299999999994725
342,4,0.2,0.125,35.0,-1,0.0,1.484599999999773
343,4,0.2,0.0,35.0,1,1.0,0.15959999999972752
344,4,0.2,1.0,35.0,1,1.0,0.2236009999999169
345,4,0.2,0.125,35.0,1,1.0,0.21970099999998638
346,4,0.2,0.125,35.0,1,1.0,0.23370099999965532
347,4,0.2,0.25,35.0,1,1.0,0.20319999999992433
348,4,0.2,0.25,35.0,1,1.0,0.23070000000006985
349,4,0.2,0.25,-35.0,-1,1.0,0.240099999999984
350,4,0.2,0.125,35.0,1,1.0,0.24099999999998545
351,4,0.2,0.0625,35.0,1,1.0,0.2904009999999744
352,4,0.2,0.25,35.0,1,1.0,0.2018009999997048
353,4,0.2,0.25,35.0,1,1.0,0.2337999999999738
354,4,0.2,0.125,35.0,1,1.0,0.6568009999998594
355,4,0.2,0.25,35.0,1,1.0,0.23079999999981737
356,4,0.2,0.25,35.0,1,1.0,0.2214000000001306
357,4,0.2,0.0625,-35.0,-1,1.0,0.8341009999999187
358,4,0.2,1.0,-35.0,-1,1.0,0.27290099999981976
359,4,0.2,0.0,35.0,1,1.0,0.2843000000000302
360,4,0.2,0.0625,35.0,1,1.0,0.2739009999997961
361,4,0.2,0.25,35.0,1,1.0,0.25450099999989106
362,4,0.2,0.0625,35.0,1,1.0,0.2599009999998998
363,4,0.2,0.125,35.0,1,1.0,0.2545000000000073
364,4,0.2,0.125,35.0,1,1.0,0.18229999999994106
365,4,0.2,0.0,35.0,1,1.0,1.2980000000000018
366,4,0.2,1.0,-35.0,-1,1.0,0.6829999999999927
367,4,0.2,0.0625,35.0,1,1.0,0.24500100000000202
368,4,0.2,0.0,-35.0,1,0.0,4.076301000000058
369,4,0.2,0.0625,35.0,1,1.0,0.20509999999990214
370,4,0.2,0.0625,35.0,1,1.0,0.2660999999998239
371,4,0.2,0.0625,-35.0,1,0.0,0.2455009999998765
372,4,0.2,0.0625,-35.0,1,0.0,0.24710099999992963
373,4,0.2,1.0,35.0,1,1.0,0.24909999999999854
374,4,0.2,0.0625,-35.0,-1,1.0,2.6862009999999827
375,4,0.2,0.0625,35.0,1,1.0,0.2456009999998514
376,4,0.2,1.0,35.0,1,1.0,0.22979999999984102
377,4,0.2,0.0,35.0,1,1.0,0.2557999999999083
378,4,0.2,0.0625,35.0,1,1.0,0.10419999999999163
379,4,0.2,1.0,35.0,1,1.0,0.2258999999999105
380,4,0.2,0.0625,35.0,1,1.0,0.29359999999974207
381,4,0.2,0.0625,35.0,1,1.0,0.2195000000001528
382,4,0.2,0.25,35.0,1,1.0,0.2636999999999716
383,4,0.2,0.25,-35.0,-1,1.0,0.6295999999999822
384,4,0.2,0.25,35.0,1,1.0,0.9603009999998449
385,4,0.2,0.125,35.0,1,1.0,0.23649999999997817
386,4,0.2,0.25,35.0,1,1.0,0.2483999999997195
387,4,0.2,0.125,35.0,1,1.0,2.320300999999745
388,4,0.2,1.0,35.0,1,1.0,0.19740100000012717
389,4,0.2,0.0625,-35.0,1,0.0,0.2436009999998987
390,4,0.2,0.125,35.0,1,1.0,0.23849999999993088
391,4,0.2,0.125,-35.0,1,0.0,0.21710100000018429
392,4,0.2,0.125,35.0,1,1.0,0.2420999999999367
393,4,0.2,1.0,35.0,1,1.0,0.2338009999998576
394,4,0.2,0.0625,35.0,1,1.0,0.2719009999998434
395,4,0.2,0.25,35.0,1,1.0,0.22059999999987667
396,4,0.2,0.125,35.0,1,1.0,0.21470099999987724
397,4,0.2,1.0,35.0,1,1.0,0.19750099999964732
398,4,0.2,0.25,35.0,1,1.0,0.2155999999999949
399,4,0.2,0.25,35.0,1,1.0,0.22769999999991342
400,4,0.2,0.0625,35.0,1,1.0,0.2522999999998774
401,4,0.2,0.125,35.0,1,1.0,0.258000999999922
402,4,0.2,0.0,35.0,1,1.0,0.24870099999975537
403,4,0.2,0.25,-35.0,-1,1.0,0.34120099999995546
404,4,0.2,1.0,35.0,1,1.0,0.19869999999968968
405,4,0.2,0.0625,35.0,1,1.0,0.2016000000000986
406,4,0.2,0.25,35.0,1,1.0,0.229001000000153
407,4,0.2,0.125,35.0,1,1.0,0.22180099999991398
408,4,0.2,1.0,35.0,1,1.0,0.22780099999999948
409,4,0.2,0.25,-35.0,-1,1.0,0.3085009999999784
410,4,0.2,0.0,-35.0,1,0.0,0.2528010000000904
411,4,0.2,0.125,35.0,1,1.0,0.26209999999969114
412,4,0.2,0.125,35.0,1,1.0,0.2260999999998603
413,4,0.2,1.0,-35.0,-1,1.0,0.32229999999981374
414,4,0.2,0.125,35.0,1,1.0,0.22289999999998145
415,4,0.2,1.0,35.0,1,1.0,0.17240100000003622
416,4,0.2,0.0,-35.0,1,0.0,0.23000099999990198
417,4,0.2,0.0625,-35.0,1,0.0,0.22929999999996653
418,4,0.2,0.0,35.0,-1,0.0,0.5643999999999778
419,4,0.2,1.0,35.0,1,1.0,0.21979999999985012
420,4,0.2,0.25,35.0,1,1.0,0.2139999999999418
421,4,0.2,0.25,35.0,1,1.0,1.532901000000038
422,4,0.2,0.125,-35.0,-1,1.0,0.36789999999996326
423,4,0.2,0.125,35.0,1,1.0,0.23319999999989705
424,4,0.8,1.0,-35.0,-1,1.0,0.3510999999998603
425,4,0.8,1.0,-35.0,-1,1.0,0.23320099999978083
426,4,0.8,1.0,-35.0,-1,1.0,0.23100099999987833
427,4,0.8,0.0625,35.0,1,1.0,0.2367999999996755
428,4,0.8,0.0,-35.0,-1,1.0,0.6942010000000209
429,4,0.8,0.0625,-35.0,-1,1.0,0.5869000000000142
430,4,0.8,0.0625,-35.0,-1,1.0,1.0775999999998476
431,4,0.8,0.0625,-35.0,-1,1.0,0.3204009999999471
432,4,0.8,0.25,-35.0,-1,1.0,0.22129999999992833
433,4,0.8,0.0625,-35.0,-1,1.0,0.32740099999978156
434,4,0.8,0.0625,-35.0,1,0.0,5.095301000000063
435,4,0.8,1.0,35.0,1,1.0,0.29099999999994
436,4,0.8,0.0,35.0,1,1.0,0.2502999999999247
437,4,0.8,0.25,-35.0,-1,1.0,0.24779999999987012
