trial_num,session_num,stim_probability_left,contrast,position,response_choice,trial_correct,reaction_time
1,1,0.5,0.25,-35.0,-1,1.0,0.9229999999999996
2,1,0.5,0.0,-35.0,-1,1.0,0.49020000000000064
3,1,0.5,0.125,-35.0,-1,1.0,0.3818999999999999
4,1,0.5,0.125,35.0,1,1.0,0.3508999999999993
5,1,0.5,1.0,-35.0,-1,1.0,0.28689999999999927
6,1,0.5,0.0625,35.0,-1,0.0,0.38910000000000267
7,1,0.5,0.0625,35.0,1,1.0,0.3203010000000006
8,1,0.5,1.0,35.0,1,1.0,0.2817000000000007
9,1,0.5,0.0,-35.0,-1,1.0,0.39050000000000296
10,1,0.5,1.0,-35.0,1,0.0,3.140099999999997
11,1,0.5,0.25,35.0,1,1.0,0.4812000000000012
12,1,0.5,0.125,35.0,1,1.0,0.3832009999999997
13,1,0.5,1.0,-35.0,-1,1.0,0.36140099999999364
14,1,0.5,0.0625,35.0,1,1.0,0.46590099999999524
15,1,0.5,0.0,-35.0,1,0.0,7.576201000000005
16,1,0.5,0.125,-35.0,-1,1.0,0.5213999999999999
17,1,0.5,0.25,35.0,1,1.0,0.6946999999999974
18,1,0.5,0.125,-35.0,-1,1.0,0.5301000000000045
19,1,0.5,0.0625,35.0,1,1.0,1.5665000000000049
20,1,0.5,0.0625,35.0,1,1.0,0.9361000000000104
21,1,0.5,0.25,35.0,1,1.0,0.47460000000000946
22,1,0.5,0.0625,35.0,1,1.0,0.5509010000000103
23,1,0.5,0.25,-35.0,1,0.0,0.27020000000001687
24,1,0.5,0.0,35.0,-1,0.0,0.3719000000000108
25,1,0.5,0.25,-35.0,-1,1.0,0.5572010000000063
26,1,0.5,0.0,35.0,-1,0.0,2.0974000000000217
27,1,0.5,0.25,35.0,1,1.0,0.25420000000001153
28,1,0.5,0.0,-35.0,-1,1.0,0.23380100000001391
29,1,0.5,0.25,-35.0,-1,1.0,0.19880000000000564
30,1,0.5,0.0,35.0,-1,0.0,0.7295000000000158
31,1,0.5,0.125,35.0,-1,0.0,0.13870000000001426
32,1,0.5,0.25,-35.0,-1,1.0,0.12359999999999616
33,1,0.5,0.0625,-35.0,-1,1.0,0.3032000000000039
34,1,0.5,1.0,-35.0,-1,1.0,0.38009999999997035
35,1,0.5,1.0,35.0,1,1.0,0.22480100000001357
36,1,0.5,0.25,35.0,1,1.0,1.569500999999974
37,1,0.5,0.25,35.0,1,1.0,16.022699999999986
38,1,0.5,0.0625,35.0,-1,0.0,5.219300000000004
39,1,0.5,1.0,-35.0,-1,1.0,0.3377000000000123
40,1,0.5,1.0,35.0,1,1.0,0.2767000000000053
41,1,0.5,0.0,35.0,-1,0.0,4.2409999999999854
42,1,0.5,1.0,-35.0,-1,1.0,0.6074999999999875
43,1,0.5,0.0,35.0,-1,0.0,4.824099999999987
44,1,0.5,0.0,35.0,-1,0.0,0.8584999999999923
45,1,0.5,1.0,-35.0,-1,1.0,0.34090000000000487
46,1,0.5,0.25,35.0,1,1.0,0.5208999999999833
47,1,0.5,0.125,-35.0,-1,1.0,2.935099999999977
48,1,0.5,0.25,-35.0,-1,1.0,0.47749999999999204
49,1,0.5,1.0,-35.0,-1,1.0,2.448699999999974
50,1,0.5,0.0625,-35.0,-1,1.0,7.129199999999997
51,1,0.5,0.25,-35.0,-1,1.0,0.29850099999998747
52,1,0.5,0.125,-35.0,-1,1.0,0.23209999999997422
53,1,0.5,0.0625,35.0,-1,0.0,1.0511999999999944
54,1,0.5,0.25,35.0,1,1.0,0.3780999999999892
55,1,0.5,0.0,35.0,1,1.0,2.994199999999978
56,1,0.5,0.25,35.0,1,1.0,0.33939999999995507
57,1,0.5,0.0,-35.0,-1,1.0,1.7672010000000569
58,1,0.5,1.0,35.0,1,1.0,0.275100000000009
59,1,0.5,0.125,-35.0,-1,1.0,0.37870000000003756
60,1,0.5,0.0625,35.0,-1,0.0,1.5282000000000266
61,1,0.5,0.0,-35.0,-1,1.0,3.0815000000000055
62,1,0.5,0.125,35.0,1,1.0,0.4981999999999971
63,1,0.5,1.0,35.0,1,1.0,0.3475999999999999
64,1,0.5,1.0,35.0,1,1.0,0.36810000000002674
65,1,0.5,0.0625,-35.0,-1,1.0,0.5532000000000039
66,1,0.5,0.125,-35.0,-1,1.0,0.47210000000001173
67,1,0.5,0.125,-35.0,-1,1.0,0.37860000000006266
68,1,0.5,0.25,-35.0,-1,1.0,1.272100000000023
69,1,0.5,0.0,-35.0,1,0.0,5.3922000000000025
70,1,0.5,0.125,-35.0,-1,1.0,0.3423000000000229
71,1,0.5,0.0,35.0,-1,0.0,0.2101009999999519
72,1,0.5,0.0625,35.0,1,1.0,2.499400000000037
73,1,0.5,0.125,35.0,1,1.0,3.9184000000000196
74,1,0.5,1.0,-35.0,-1,1.0,0.1634000000000242
75,1,0.5,0.0,35.0,-1,0.0,1.3876000000000204
76,1,0.5,0.125,35.0,1,1.0,0.2927010000000223
77,1,0.5,0.125,35.0,1,1.0,0.3153000000000361
78,1,0.5,1.0,35.0,1,1.0,0.2506999999999948
79,1,0.5,0.25,-35.0,1,0.0,1.0121000000000322
80,1,0.5,0.25,-35.0,-1,1.0,2.008000000000038
81,1,0.5,1.0,35.0,-1,0.0,0.18910000000005311
82,1,0.5,0.0625,-35.0,1,0.0,0.24900100000002112
83,1,0.5,0.0625,35.0,1,1.0,0.9236000000000217
84,1,0.5,0.125,35.0,1,1.0,1.2556000000000154
85,1,0.5,0.125,-35.0,-1,1.0,0.656701000000055
86,1,0.5,1.0,35.0,-1,0.0,0.13800000000003365
87,1,0.5,0.0625,35.0,1,1.0,1.3240000000000691
88,1,0.5,0.25,35.0,1,1.0,0.4840000000000373
89,1,0.5,0.0625,-35.0,-1,1.0,0.32380000000000564
90,1,0.5,1.0,35.0,1,1.0,0.6012000000000626
91,1,0.2,0.125,35.0,-1,0.0,2.154200000000003
92,1,0.2,0.0,35.0,-1,0.0,0.6104010000000244
93,1,0.2,0.25,35.0,1,1.0,0.3068000000000666
94,1,0.2,0.0,35.0,-1,0.0,0.9402000000000612
95,1,0.2,0.0,-35.0,-1,1.0,0.20650000000000546
96,1,0.2,0.0625,35.0,-1,0.0,0.2400000000000091
97,1,0.2,0.0625,35.0,-1,0.0,2.4377999999999815
98,1,0.2,0.25,35.0,1,1.0,0.2980000000000018
99,1,0.2,0.0625,35.0,-1,0.0,2.8682999999999765
100,1,0.2,0.125,-35.0,-1,1.0,0.2652999999999679
101,1,0.2,0.0625,35.0,1,1.0,0.3490000000000464
102,1,0.2,0.25,35.0,1,1.0,0.8287000000000262
103,1,0.2,1.0,35.0,1,1.0,0.41090100000002394
104,1,0.2,0.0,35.0,1,1.0,3.2300010000000725
105,1,0.2,0.125,-35.0,-1,1.0,1.475999999999999
106,1,0.2,0.0625,35.0,1,1.0,0.5398000000000138
107,1,0.2,0.0,-35.0,1,0.0,0.5908999999999764
108,1,0.2,0.125,35.0,1,1.0,0.42999999999995
109,1,0.2,0.25,-35.0,-1,1.0,0.39170000000001437
110,1,0.2,0.125,35.0,1,1.0,0.450300000000027
111,1,0.2,0.0625,35.0,-1,0.0,0.26510000000007494
112,1,0.2,0.0625,35.0,1,1.0,0.4134999999999991
113,1,0.2,1.0,35.0,1,1.0,0.3822000000000685
114,1,0.2,0.0,35.0,-1,0.0,2.347200999999984
115,1,0.2,0.125,35.0,1,1.0,0.4929000000000201
116,1,0.2,0.25,35.0,1,1.0,0.20190000000002328
117,1,0.2,0.0625,35.0,1,1.0,2.0615000000000236
118,1,0.2,0.0625,35.0,1,1.0,2.3882999999999583
119,1,0.2,0.125,35.0,-1,0.0,0.3324000000000069
120,1,0.2,0.0,35.0,-1,0.0,0.9381000000000768
121,1,0.2,0.25,35.0,1,1.0,0.33809999999994034
122,1,0.2,1.0,35.0,1,1.0,0.3548000000000684
123,1,0.8,0.0,-35.0,-1,1.0,3.865000000000009
124,1,0.8,0.25,-35.0,-1,1.0,0.5918000000000347
125,1,0.8,0.25,-35.0,-1,1.0,0.2764999999999418
126,1,0.8,0.0,35.0,-1,0.0,0.126700000000028
127,1,0.8,1.0,35.0,1,1.0,0.27470000000005257
128,1,0.8,0.125,-35.0,-1,1.0,0.49040100000001985
129,1,0.8,0.0625,-35.0,-1,1.0,2.312400000000025
130,1,0.8,0.0625,-35.0,-1,1.0,2.137000000000171
131,1,0.8,0.125,-35.0,-1,1.0,0.30690099999992526
132,1,0.8,1.0,-35.0,-1,1.0,0.24020000000007258
133,1,0.8,0.0,-35.0,-1,1.0,1.0520999999999958
134,1,0.8,1.0,-35.0,-1,1.0,0.7300010000000157
135,1,0.8,0.0,-35.0,-1,1.0,0.45900000000006
136,1,0.8,0.0,-35.0,-1,1.0,4.100099999999998
137,1,0.8,0.25,35.0,1,1.0,1.5357999999999947
138,1,0.8,1.0,-35.0,-1,1.0,1.289000000000101
139,1,0.8,0.0,35.0,1,1.0,2.2032999999998992
140,1,0.8,0.125,-35.0,-1,1.0,1.5103000000000293
141,1,0.8,0.25,-35.0,-1,1.0,0.9114999999999327
142,1,0.8,0.25,35.0,1,1.0,0.6183000000000902
143,1,0.8,0.25,-35.0,-1,1.0,2.606200000000058
144,1,0.8,0.25,-35.0,-1,1.0,0.3118010000000595
145,1,0.8,0.125,-35.0,-1,1.0,0.7974010000001499
146,1,0.8,0.0625,-35.0,-1,1.0,3.046799999999962
147,1,0.8,1.0,35.0,1,1.0,0.28890000000001237
148,1,0.8,1.0,-35.0,-1,1.0,0.35470100000009097
149,1,0.8,0.0,-35.0,-1,1.0,0.5228000000000748
150,1,0.8,1.0,-35.0,-1,1.0,3.5878999999999905
151,1,0.8,0.25,-35.0,1,0.0,0.4452000000001135
152,1,0.8,1.0,-35.0,-1,1.0,0.26920000000006894
153,1,0.8,0.25,-35.0,-1,1.0,0.6145999999999958
154,1,0.8,1.0,-35.0,-1,1.0,0.4682999999999993
155,1,0.2,1.0,35.0,1,1.0,0.5419000000000551
156,1,0.2,0.0,35.0,-1,0.0,1.8398999999999432
157,1,0.2,0.0,35.0,1,1.0,0.5158010000000104
158,1,0.2,0.0,35.0,-1,0.0,1.4317999999999529
159,1,0.2,0.0,35.0,-1,0.0,16.533800000000042
160,1,0.2,0.0625,35.0,1,1.0,0.5439000000001215
161,1,0.2,0.0,-35.0,-1,1.0,2.8032000000000608
162,1,0.2,0.25,-35.0,-1,1.0,3.5327010000000882
163,1,0.2,0.0,35.0,-1,0.0,2.9325000000000045
164,1,0.2,0.25,35.0,1,1.0,0.42610000000013315
165,1,0.2,0.125,35.0,-1,0.0,4.156700000000114
166,1,0.2,0.25,35.0,1,1.0,2.282199999999989
167,1,0.2,0.0,35.0,-1,0.0,2.4740000000000464
168,1,0.2,0.125,-35.0,1,0.0,0.31360000000006494
169,1,0.2,1.0,35.0,1,1.0,0.40610000000003765
170,1,0.2,0.125,35.0,1,1.0,1.108000000000061
171,1,0.2,0.25,35.0,1,1.0,0.2959000000000742
172,1,0.2,0.125,35.0,-1,0.0,4.0224000000000615
173,1,0.2,0.0625,35.0,-1,0.0,7.52049999999997
174,1,0.2,0.0625,35.0,-1,0.0,4.250700000000052
175,1,0.2,0.125,35.0,1,1.0,0.459699999999998
176,1,0.2,0.25,35.0,1,1.0,0.457300000000032
177,1,0.2,0.25,35.0,1,1.0,0.5408999999999651
178,1,0.2,0.125,35.0,1,1.0,0.5736000000000558
179,1,0.2,0.25,35.0,1,1.0,0.3606999999999516
180,1,0.2,0.25,35.0,1,1.0,0.44470000000001164
181,1,0.2,0.0625,35.0,1,1.0,0.2578009999999722
182,1,0.2,0.125,35.0,1,1.0,0.4453999999999496
183,1,0.2,0.0,35.0,1,1.0,4.720900000000029
184,1,0.2,0.125,35.0,1,1.0,0.3645999999999958
185,1,0.2,0.125,35.0,1,1.0,0.375
186,1,0.2,0.125,35.0,-1,0.0,4.034400000000005
187,1,0.2,1.0,35.0,1,1.0,0.5069999999999482
188,1,0.2,0.0,35.0,-1,0.0,1.2886000000000877
189,1,0.2,1.0,35.0,1,1.0,0.4534999999999627
190,1,0.2,0.125,35.0,1,1.0,4.386400999999978
191,1,0.2,0.0,35.0,-1,0.0,0.4592000000000098
192,1,0.2,0.25,35.0,1,1.0,2.2293999999999414
193,1,0.2,0.0,35.0,-1,0.0,0.7706999999999198
194,1,0.2,0.25,35.0,1,1.0,0.4596000000000231
195,1,0.2,0.0625,35.0,-1,0.0,4.466600000000085
196,1,0.2,1.0,35.0,1,1.0,0.2719009999999571
197,1,0.2,0.0,35.0,1,1.0,1.9415000000001328
198,1,0.2,0.125,35.0,1,1.0,1.1614999999999327
199,1,0.2,0.0,35.0,-1,0.0,2.0265009999999393
200,1,0.2,0.0,35.0,-1,0.0,16.15829999999994
201,1,0.2,0.0625,35.0,-1,0.0,4.502900000000068
202,1,0.2,1.0,35.0,1,1.0,0.42349999999999
203,1,0.2,0.0,35.0,-1,0.0,4.322499999999991
204,1,0.2,0.0625,35.0,1,1.0,0.6071000000000595
205,1,0.2,0.0625,35.0,1,1.0,1.1040000000000418
206,1,0.2,0.0,35.0,-1,0.0,5.293699999999944
207,1,0.2,0.125,35.0,1,1.0,0.49900000000002365
208,1,0.2,0.125,-35.0,-1,1.0,0.39370099999996455
209,1,0.2,1.0,-35.0,-1,1.0,0.43840099999999893
210,1,0.8,0.25,-35.0,-1,1.0,0.3587999999999738
211,1,0.8,0.0625,-35.0,-1,1.0,0.5037999999999556
212,1,0.8,0.0625,-35.0,-1,1.0,0.8979009999999334
213,1,0.8,0.0,-35.0,-1,1.0,0.8693999999999278
214,1,0.8,0.25,-35.0,-1,1.0,2.1014999999999873
215,1,0.8,0.0,-35.0,-1,1.0,3.9144000000000005
216,1,0.8,0.125,35.0,1,1.0,0.3955000000000837
217,1,0.8,0.125,-35.0,-1,1.0,0.4878999999999678
218,1,0.8,0.125,-35.0,-1,1.0,5.738699999999994
219,1,0.8,0.0625,35.0,1,1.0,1.5683999999998832
220,1,0.8,0.25,-35.0,-1,1.0,23.11239999999998
221,1,0.8,0.25,-35.0,-1,1.0,3.1521999999999935
222,1,0.8,0.25,-35.0,-1,1.0,1.7428999999997359
223,1,0.8,0.0625,-35.0,-1,1.0,10.045501000000058
224,1,0.8,0.0625,-35.0,-1,1.0,2.0203999999998814
225,1,0.8,0.125,-35.0,-1,1.0,0.4057999999997719
226,1,0.8,0.0625,-35.0,-1,1.0,5.203599999999824
227,1,0.8,0.25,-35.0,-1,1.0,0.3128009999998085
228,1,0.8,0.125,-35.0,-1,1.0,1.206899999999905
229,1,0.8,0.0625,-35.0,-1,1.0,2.9596999999998843
230,1,0.8,0.0,-35.0,-1,1.0,2.9973009999998794
231,1,0.8,0.125,-35.0,-1,1.0,3.1432009999998627
232,1,0.8,0.25,-35.0,-1,1.0,0.4705999999998767
233,1,0.8,0.25,-35.0,-1,1.0,0.37029999999981555
234,1,0.8,1.0,-35.0,-1,1.0,0.3608999999999014
235,1,0.8,0.0,-35.0,-1,1.0,3.2434999999998126
236,1,0.8,0.25,-35.0,-1,1.0,0.41129999999975553
237,1,0.8,0.0625,-35.0,-1,1.0,0.49689999999986867
238,1,0.8,0.125,-35.0,-1,1.0,0.3546999999998661
239,1,0.8,1.0,-35.0,-1,1.0,0.4538000000000011
240,1,0.8,0.0625,35.0,1,1.0,0.4913000000001375
241,1,0.8,0.0,-35.0,-1,1.0,5.697399999999789
242,1,0.8,0.125,-35.0,-1,1.0,0.4016999999998916
243,1,0.8,1.0,-35.0,-1,1.0,0.24749999999994543
244,1,0.8,0.125,-35.0,-1,1.0,5.324999999999818
245,1,0.8,0.125,35.0,1,1.0,0.5242999999998119
246,1,0.8,1.0,35.0,1,1.0,0.40229999999996835
247,1,0.8,0.125,-35.0,-1,1.0,3.5812999999998283
248,1,0.8,0.125,-35.0,-1,1.0,0.4353009999999813
249,1,0.8,0.0625,-35.0,-1,1.0,10.911299999999983
250,1,0.8,1.0,-35.0,-1,1.0,0.5455999999999221
251,1,0.8,1.0,35.0,1,1.0,0.31169999999974607
252,1,0.8,0.0,35.0,-1,0.0,4.329099999999926
253,1,0.8,0.125,-35.0,-1,1.0,0.6518000000000939
254,1,0.8,0.125,35.0,1,1.0,0.5231999999998607
255,1,0.8,0.125,-35.0,-1,1.0,1.11200000000008
256,1,0.8,0.0,-35.0,-1,1.0,4.949700999999777
257,1,0.8,0.0,-35.0,-1,1.0,2.953399999999874
258,1,0.8,0.125,-35.0,-1,1.0,1.5433000000000447
259,1,0.8,0.0,-35.0,1,0.0,11.032200999999759
260,1,0.8,0.0625,35.0,1,1.0,0.5301999999996951
261,1,0.8,0.125,-35.0,-1,1.0,0.5061999999998079
262,1,0.8,0.0,-35.0,-1,1.0,0.15699999999992542
263,1,0.8,0.0,-35.0,1,0.0,1.2194999999999254
264,1,0.8,0.25,-35.0,-1,1.0,14.25729999999976
265,1,0.8,1.0,35.0,1,1.0,0.3931999999999789
266,1,0.8,0.0625,35.0,1,1.0,1.1441999999999553
267,1,0.8,0.25,-35.0,-1,1.0,0.480199999999968
268,1,0.8,0.0,-35.0,-1,1.0,3.3775009999999384
269,1,0.8,0.0625,-35.0,-1,1.0,0.4535009999999602
270,1,0.8,0.0625,-35.0,-1,1.0,0.6013000000000375
271,1,0.8,0.0625,-35.0,-1,1.0,2.1135999999999058
272,1,0.8,1.0,-35.0,-1,1.0,0.25129999999990105
273,1,0.8,1.0,-35.0,-1,1.0,0.4538999999997486
274,1,0.8,0.25,35.0,1,1.0,0.47489999999993415
275,1,0.8,0.0625,35.0,-1,0.0,0.3642009999998663
276,1,0.8,0.125,-35.0,-1,1.0,0.5414999999998145
277,1,0.8,0.0625,-35.0,-1,1.0,0.5041999999998552
278,1,0.8,0.25,-35.0,-1,1.0,0.4181999999998425
279,1,0.8,1.0,-35.0,-1,1.0,0.3342999999999847
280,1,0.8,0.125,-35.0,-1,1.0,1.845199999999977
281,1,0.8,0.25,-35.0,-1,1.0,2.117599999999811
282,1,0.8,1.0,-35.0,-1,1.0,0.2885999999998603
283,1,0.8,0.125,-35.0,-1,1.0,3.641401000000087
284,1,0.8,0.0,-35.0,-1,1.0,2.1453999999998814
285,1,0.8,0.0,-35.0,-1,1.0,0.7180999999998221
286,1,0.8,0.0625,-35.0,-1,1.0,0.9892999999999574
287,1,0.8,0.25,-35.0,-1,1.0,0.42909999999983484
288,1,0.8,0.25,-35.0,-1,1.0,0.4516999999998461
289,1,0.8,0.0,-35.0,1,0.0,0.9330999999999676
290,1,0.2,0.0,35.0,-1,0.0,1.6251999999999498
291,1,0.2,0.0,35.0,1,1.0,19.91939999999977
292,1,0.2,0.125,35.0,1,1.0,0.41240099999981794
293,1,0.2,0.125,35.0,1,1.0,0.26710000000002765
294,1,0.2,0.0,-35.0,1,0.0,0.6292009999999664
295,1,0.2,1.0,35.0,1,1.0,0.23710000000005493
296,1,0.2,1.0,35.0,1,1.0,0.4894010000000435
297,1,0.2,0.125,35.0,-1,0.0,0.2704999999998563
298,1,0.2,1.0,35.0,1,1.0,0.29949999999985266
299,1,0.2,0.125,35.0,1,1.0,0.820299999999861
300,1,0.2,0.0,-35.0,-1,1.0,0.5196999999998297
301,1,0.2,0.0625,35.0,1,1.0,1.030599999999822
302,1,0.2,0.125,35.0,-1,0.0,2.3599999999999
303,1,0.2,0.0,35.0,-1,0.0,3.957200999999941
304,1,0.2,0.0625,35.0,1,1.0,0.3699999999996635
305,1,0.2,0.125,35.0,-1,0.0,0.17099999999982174
306,1,0.2,0.25,35.0,1,1.0,0.4234999999998763
307,1,0.2,0.0625,-35.0,-1,1.0,0.3477999999997792
308,1,0.2,0.25,35.0,-1,0.0,1.437199999999848
309,1,0.2,0.0625,35.0,1,1.0,0.8212000000000899
310,1,0.2,0.25,35.0,1,1.0,0.4737999999999829
311,1,0.2,0.125,-35.0,-1,1.0,1.6049010000001545
312,1,0.2,0.0,35.0,-1,0.0,3.887200000000121
313,1,0.2,0.0,35.0,-1,0.0,7.211999999999762
314,1,0.2,0.0625,35.0,1,1.0,0.3243999999999687
315,1,0.2,1.0,35.0,1,1.0,0.5249999999998636
316,1,0.2,0.0,-35.0,1,0.0,4.6944999999998345
317,1,0.2,0.0,-35.0,1,0.0,5.942000999999891
318,1,0.2,0.0,35.0,-1,0.0,0.3749999999997726
319,1,0.2,0.125,35.0,1,1.0,0.3023009999999431
320,1,0.2,1.0,35.0,1,1.0,0.3648999999998068
321,1,0.2,0.0,35.0,-1,0.0,1.5991999999996551
322,1,0.2,0.0625,35.0,-1,0.0,5.744999999999891
323,1,0.2,0.125,35.0,-1,0.0,5.489300999999841
324,1,0.8,0.125,35.0,1,1.0,3.6389999999998963
325,1,0.8,0.25,-35.0,-1,1.0,0.4194999999997435
326,1,0.8,0.0625,-35.0,1,0.0,11.025700000000143
327,1,0.8,0.25,-35.0,-1,1.0,0.38679999999976644
328,1,0.8,1.0,35.0,1,1.0,0.44600000000014006
329,1,0.8,0.25,-35.0,-1,1.0,3.3799999999998818
330,1,0.8,1.0,-35.0,-1,1.0,0.27939999999989595
331,1,0.8,0.0,-35.0,-1,1.0,1.1168999999997595
332,1,0.8,1.0,-35.0,-1,1.0,0.6196999999997388
333,1,0.8,1.0,35.0,1,1.0,0.3608999999999014
334,1,0.8,0.125,-35.0,-1,1.0,5.919800999999779
335,1,0.8,1.0,35.0,1,1.0,0.2941009999999551
336,1,0.8,0.0625,-35.0,-1,1.0,9.839900999999827
337,1,0.8,0.25,35.0,1,1.0,0.4577009999998154
338,1,0.8,0.25,35.0,-1,0.0,2.5001009999998587
339,1,0.8,0.125,-35.0,-1,1.0,0.44110200000000077
340,1,0.8,0.25,-35.0,-1,1.0,5.38710100000003
341,1,0.8,0.25,-35.0,-1,1.0,5.108500999999933
342,1,0.8,0.0625,-35.0,-1,1.0,3.5674009999997907
343,1,0.8,0.0,-35.0,-1,1.0,7.438400999999885
344,1,0.8,0.0625,-35.0,-1,1.0,0.6009019999999055
345,1,0.8,0.25,-35.0,-1,1.0,0.31890199999998003
346,1,0.8,1.0,35.0,1,1.0,0.3179009999998925
347,1,0.8,0.125,-35.0,-1,1.0,2.3589009999998325
348,1,0.8,0.0625,-35.0,-1,1.0,0.33130099999993945
349,1,0.8,1.0,-35.0,-1,1.0,0.4429009999998925
350,1,0.8,0.25,-35.0,-1,1.0,3.374801999999818
351,1,0.8,1.0,-35.0,-1,1.0,0.4129009999999198
352,1,0.8,0.0,-35.0,-1,1.0,0.358400999999958
353,1,0.8,0.0,-35.0,-1,1.0,2.1659010000000762
354,1,0.8,1.0,-35.0,-1,1.0,0.261801000000105
355,1,0.8,0.125,-35.0,-1,1.0,0.6393009999999322
356,1,0.8,0.0625,-35.0,-1,1.0,0.4854009999999107
357,1,0.8,0.0,-35.0,-1,1.0,3.4828009999998812
358,1,0.8,0.125,-35.0,-1,1.0,2.2689009999999143
359,1,0.8,0.125,-35.0,-1,1.0,3.486400999999887
360,1,0.8,1.0,-35.0,-1,1.0,0.2359009999997852
361,1,0.8,1.0,-35.0,-1,1.0,0.38990100000000893
362,1,0.8,1.0,-35.0,-1,1.0,0.409300999999914
363,1,0.8,0.25,-35.0,-1,1.0,0.3166009999997641
364,1,0.8,0.25,-35.0,-1,1.0,5.012801999999965
365,1,0.8,0.125,-35.0,-1,1.0,0.6503009999996721
366,1,0.8,0.0,-35.0,-1,1.0,6.232900999999856
367,1,0.8,0.25,35.0,1,1.0,0.6838009999996757
368,1,0.8,0.25,-35.0,-1,1.0,0.32980099999986123
369,1,0.8,0.0625,35.0,1,1.0,0.970801000000165
370,1,0.8,0.0,-35.0,-1,1.0,7.799900999999863
371,1,0.8,0.25,-35.0,-1,1.0,0.28750099999979284
372,1,0.8,1.0,-35.0,-1,1.0,0.3869009999998525
373,1,0.8,0.0625,-35.0,-1,1.0,6.2278009999999995
374,1,0.8,0.0625,35.0,1,1.0,0.6505009999998492
375,1,0.8,0.0,-35.0,-1,1.0,5.8313009999999394
376,1,0.8,0.25,-35.0,-1,1.0,0.42400099999986196
377,1,0.8,1.0,-35.0,-1,1.0,0.4349009999998543
378,1,0.8,0.125,-35.0,1,0.0,2.260800999999674
379,1,0.8,0.25,35.0,1,1.0,0.6388009999998303
380,1,0.8,0.0,-35.0,1,0.0,8.570901000000049
381,1,0.8,1.0,-35.0,-1,1.0,2.7921010000000024
382,1,0.8,0.0,-35.0,-1,1.0,12.421300999999858
383,1,0.8,0.0,-35.0,-1,1.0,2.961700999999948
384,1,0.8,0.125,-35.0,-1,1.0,1.2350010000000111
385,1,0.8,0.0625,-35.0,-1,1.0,7.622701000000006
386,1,0.8,0.0625,-35.0,-1,1.0,3.2221009999998387
387,1,0.8,0.125,35.0,1,1.0,0.46560100000010607
388,1,0.8,0.125,-35.0,-1,1.0,7.902300999999852
389,1,0.8,0.0625,-35.0,-1,1.0,7.113501999999926
390,1,0.8,0.0625,-35.0,-1,1.0,0.6028019999998833
391,1,0.8,1.0,-35.0,-1,1.0,0.6672009999997499
392,1,0.8,1.0,-35.0,-1,1.0,1.5529009999997925
393,1,0.8,0.0625,-35.0,-1,1.0,2.70060199999989
394,1,0.8,1.0,-35.0,1,0.0,0.2797019999998156
395,1,0.8,0.0625,35.0,1,1.0,1.1338009999999485
396,1,0.8,0.125,-35.0,1,0.0,12.013201999999865
397,1,0.8,1.0,-35.0,-1,1.0,0.5277009999999791
398,1,0.8,0.0625,-35.0,-1,1.0,18.23010100000056
399,1,0.8,0.0,-35.0,1,0.0,8.384600999999748
400,1,0.8,0.125,35.0,1,1.0,0.6375010000001566
401,1,0.8,0.0,-35.0,1,0.0,1.4857019999999466
402,1,0.8,1.0,-35.0,-1,1.0,0.30120099999976446
403,1,0.8,0.0,-35.0,-1,1.0,32.385601000000406
404,1,0.8,1.0,-35.0,-1,1.0,0.2516019999998207
405,1,0.8,0.0625,-35.0,-1,1.0,8.082601000000068
406,1,0.8,0.0,35.0,1,1.0,19.89870100000053
407,1,0.8,0.125,35.0,1,1.0,0.5398009999998976
408,1,0.8,0.25,-35.0,1,0.0,58.902501000000484
409,1,0.8,0.25,-35.0,-1,1.0,0.3947010000001683
410,1,0.8,0.0625,-35.0,-1,1.0,1.1271010000004935
411,1,0.8,0.125,-35.0,1,0.0,1.2179009999999835
412,1,0.8,0.25,35.0,1,1.0,6.397101000000021
413,1,0.8,0.125,35.0,1,1.0,0.3785020000000259
414,1,0.8,0.125,-35.0,-1,1.0,1.7541009999999915
415,1,0.8,0.0625,-35.0,-1,1.0,1.1149010000003727
416,1,0.8,0.25,-35.0,-1,1.0,0.37430099999983213
417,1,0.8,0.0625,-35.0,-1,1.0,0.418601000000308
418,1,0.8,0.125,-35.0,-1,1.0,1.0710010000002512
419,1,0.2,0.25,35.0,1,1.0,0.4987010000004375
420,1,0.2,1.0,35.0,1,1.0,0.5216009999999187
421,1,0.2,0.0625,35.0,1,1.0,0.49550100000033126
422,1,0.2,0.0625,35.0,1,1.0,1.6579019999999218
423,1,0.2,0.25,35.0,1,1.0,2.0624010000001363
424,1,0.2,0.125,35.0,1,1.0,1.0181010000001152
425,1,0.2,0.25,35.0,1,1.0,0.27280100000007224
426,1,0.2,0.125,-35.0,-1,1.0,0.49850100000003295
427,1,0.2,0.25,35.0,1,1.0,0.3257010000002083
428,1,0.2,0.0625,35.0,-1,0.0,1.3085010000004331
429,1,0.2,1.0,-35.0,-1,1.0,0.4065009999999347
430,1,0.2,1.0,35.0,1,1.0,0.4453009999997448
431,1,0.2,0.0,35.0,-1,0.0,5.970101000000341
432,1,0.2,0.125,35.0,1,1.0,0.5257010000000264
433,1,0.2,0.125,-35.0,-1,1.0,0.2064010000003691
434,1,0.2,0.0,35.0,1,1.0,1.6656020000000353
435,1,0.2,0.125,-35.0,-1,1.0,0.3498020000006363
436,1,0.2,0.0,-35.0,-1,1.0,1.9625019999998585
437,1,0.2,1.0,35.0,1,1.0,0.3100009999998292
438,1,0.2,1.0,35.0,1,1.0,0.6894010000005437
439,1,0.2,0.125,35.0,1,1.0,1.7003020000001925
440,1,0.2,0.0,-35.0,-1,1.0,0.8929020000000492
441,1,0.2,1.0,-35.0,-1,1.0,0.3172010000002956
442,1,0.2,0.25,35.0,-1,0.0,1.9497010000000046
443,1,0.2,0.25,35.0,1,1.0,0.5304009999999835
444,1,0.2,0.125,35.0,1,1.0,0.46350100000017846
445,1,0.2,0.0625,35.0,-1,0.0,5.957502000000204
446,1,0.2,1.0,35.0,1,1.0,0.2735010000001239
447,1,0.2,0.0,35.0,1,1.0,11.963502000000062
448,1,0.8,0.25,-35.0,-1,1.0,0.5714020000000346
449,1,0.8,0.0625,-35.0,-1,1.0,4.253701999999976
450,1,0.8,0.0625,-35.0,1,0.0,1.8848010000001523
451,1,0.8,0.0,-35.0,-1,1.0,2.8875010000006114
452,1,0.8,0.0,-35.0,-1,1.0,1.8684010000001763
453,1,0.8,1.0,-35.0,-1,1.0,5.0044010000001435
454,1,0.8,0.0625,-35.0,-1,1.0,1.3753010000000359
455,1,0.8,0.25,-35.0,-1,1.0,0.4912010000002738
456,1,0.8,0.0,-35.0,-1,1.0,0.5154019999999946
457,1,0.8,0.25,35.0,1,1.0,3.2980009999996582
458,1,0.8,1.0,-35.0,-1,1.0,0.3955010000004222
459,1,0.8,1.0,-35.0,-1,1.0,2.564901000000191
460,1,0.8,0.0,35.0,-1,0.0,1.1158009999999194
461,1,0.8,0.0,-35.0,1,0.0,0.8484010000001945
462,1,0.8,0.0,-35.0,-1,1.0,10.82300099999975
463,1,0.8,0.0625,35.0,1,1.0,2.4890019999998003
464,1,0.8,0.0625,-35.0,-1,1.0,0.4032020000004195
465,1,0.8,1.0,-35.0,-1,1.0,0.4290019999998549
466,1,0.8,0.125,-35.0,1,0.0,3.873301000000538
467,1,0.8,0.0,-35.0,-1,1.0,10.095801000000392
468,1,0.8,0.125,-35.0,-1,1.0,6.180301000000327
469,1,0.2,0.0625,35.0,1,1.0,1.2498010000003887
470,1,0.2,0.25,35.0,1,1.0,1.6804010000000744
471,1,0.2,1.0,35.0,1,1.0,5.106502000000091
472,1,0.2,0.125,35.0,1,1.0,3.914100999999846
473,1,0.2,0.125,35.0,1,1.0,0.42000099999995655
474,1,0.2,0.0,35.0,1,1.0,7.337500999999975
475,1,0.2,0.0,35.0,-1,0.0,2.1905020000003788
476,1,0.2,0.0,35.0,1,1.0,6.434601000000384
477,1,0.2,0.125,35.0,1,1.0,0.8206009999998969
478,1,0.2,0.0625,35.0,1,1.0,0.47150100000044404
479,1,0.2,0.25,35.0,-1,0.0,2.487301000000116
480,1,0.2,0.125,35.0,1,1.0,0.6185009999999238
481,1,0.2,1.0,35.0,1,1.0,0.24430100000017774
482,1,0.2,1.0,-35.0,-1,1.0,0.38530100000025413
483,1,0.2,1.0,35.0,1,1.0,0.834501000000273
484,1,0.2,1.0,35.0,1,1.0,0.30540100000052917
485,1,0.2,0.25,35.0,-1,0.0,0.8612010000001646
486,1,0.2,0.0,35.0,-1,0.0,3.628801000000294
487,1,0.2,0.0625,35.0,1,1.0,0.3448009999997339
488,1,0.2,0.0625,35.0,1,1.0,1.0393010000002505
489,1,0.2,1.0,35.0,1,1.0,0.38490200000023833
490,1,0.2,0.125,35.0,1,1.0,3.395701000000372
491,1,0.8,1.0,-35.0,-1,1.0,0.3552010000003065
492,1,0.8,0.125,-35.0,-1,1.0,3.2533010000001923
493,1,0.8,0.25,-35.0,-1,1.0,0.44210100000009334
494,1,0.8,0.0625,-35.0,1,0.0,0.19540100000040184
495,1,0.8,1.0,-35.0,-1,1.0,1.1328010000001996
496,1,0.8,0.0625,-35.0,-1,1.0,0.7255010000003494
497,1,0.8,0.125,-35.0,-1,1.0,0.2767010000002301
498,1,0.8,1.0,-35.0,-1,1.0,0.5024010000001908
499,1,0.8,0.0625,-35.0,-1,1.0,1.0999010000000453
500,1,0.8,1.0,-35.0,-1,1.0,0.31930099999999584
501,1,0.8,0.0625,35.0,1,1.0,1.0000010000003385
502,1,0.8,0.0,-35.0,-1,1.0,0.36600099999986924
503,1,0.8,0.0625,-35.0,-1,1.0,3.7602020000003904
504,1,0.8,1.0,-35.0,-1,1.0,1.669601000000057
505,1,0.8,0.125,-35.0,-1,1.0,0.3473010000002432
506,1,0.8,0.0,-35.0,-1,1.0,2.439702000000125
507,1,0.8,0.125,-35.0,-1,1.0,0.3741010000003371
508,1,0.8,0.0625,35.0,1,1.0,0.4299010000004273
509,1,0.8,0.0,-35.0,-1,1.0,1.5139009999998052
510,1,0.8,0.0625,-35.0,-1,1.0,2.2502009999998336
511,1,0.8,0.125,35.0,1,1.0,0.5775010000002112
512,1,0.8,1.0,-35.0,-1,1.0,0.3335010000005241
513,1,0.8,1.0,-35.0,-1,1.0,0.45430200000055265
514,1,0.8,1.0,-35.0,-1,1.0,0.4103010000003451
515,1,0.8,0.25,35.0,1,1.0,0.3947010000001683
516,1,0.8,0.125,-35.0,-1,1.0,1.5372010000000955
517,1,0.8,1.0,35.0,1,1.0,0.32470100000000457
518,1,0.8,0.125,-35.0,-1,1.0,3.037300999999843
519,1,0.8,0.125,35.0,1,1.0,0.4017009999997754
520,1,0.8,0.0,-35.0,-1,1.0,2.104201000000103
521,1,0.8,0.0,-35.0,-1,1.0,0.5115009999999529
522,1,0.8,0.0625,35.0,1,1.0,0.47190100000034363
523,1,0.8,0.125,-35.0,-1,1.0,0.25770100000045204
524,1,0.8,0.125,-35.0,-1,1.0,0.332100999999966
525,1,0.8,0.25,-35.0,-1,1.0,0.4745010000001457
526,1,0.8,1.0,-35.0,-1,1.0,0.2654010000001108
527,1,0.8,0.125,35.0,1,1.0,0.3681010000000242
528,1,0.8,0.25,-35.0,-1,1.0,2.709201000000121
529,1,0.8,0.125,-35.0,-1,1.0,2.1615020000003824
530,1,0.8,0.0625,-35.0,-1,1.0,3.229201000000103
531,1,0.8,1.0,-35.0,-1,1.0,0.4983010000005379
532,1,0.8,0.0625,35.0,-1,0.0,0.9792019999999866
533,1,0.8,0.25,35.0,1,1.0,0.30850199999986216
534,1,0.8,0.0,-35.0,-1,1.0,21.893201000000317
535,1,0.8,1.0,-35.0,1,0.0,0.39920100000017555
536,1,0.8,0.25,-35.0,-1,1.0,2.6265010000001894
537,1,0.8,1.0,35.0,1,1.0,0.27610100000038074
538,1,0.2,1.0,35.0,1,1.0,0.35330199999998513
539,1,0.2,0.125,35.0,1,1.0,0.4561020000001008
540,1,0.2,0.125,-35.0,-1,1.0,2.303501000000324
541,1,0.2,0.0625,35.0,1,1.0,0.30620100000032835
542,1,0.2,0.0625,35.0,1,1.0,0.4338009999996757
543,1,0.2,0.0,-35.0,1,0.0,0.3631010000003698
544,1,0.2,1.0,35.0,1,1.0,0.31720099999984086
545,1,0.2,0.25,35.0,1,1.0,0.38010099999974045
546,1,0.2,0.125,35.0,1,1.0,0.44720100000040475
547,1,0.2,0.25,35.0,1,1.0,0.6835020000003169
548,1,0.2,1.0,35.0,1,1.0,0.41410099999984595
549,1,0.2,1.0,35.0,1,1.0,0.3969010000000708
550,1,0.2,0.0625,35.0,1,1.0,0.6712010000001101
551,1,0.2,1.0,-35.0,-1,1.0,0.383701000000201
552,1,0.2,0.0625,-35.0,-1,1.0,0.40510100000028615
553,1,0.2,1.0,35.0,1,1.0,0.3403009999997266
554,1,0.2,0.0625,35.0,1,1.0,1.7851009999999405
555,1,0.2,0.125,35.0,1,1.0,0.343902000000071
556,1,0.2,0.25,-35.0,1,0.0,0.49160100000017337
557,1,0.2,0.0,35.0,-1,0.0,0.6442010000000664
558,1,0.2,0.125,-35.0,-1,1.0,0.3283010000000104
559,1,0.2,0.0,35.0,1,1.0,0.401002000000517
560,1,0.2,0.0,35.0,-1,0.0,0.5151010000004135
561,1,0.2,0.0625,-35.0,-1,1.0,0.3411020000003191
562,1,0.2,0.25,35.0,-1,0.0,5.038800999999694
563,1,0.2,0.0625,35.0,1,1.0,0.571201000000201
564,1,0.2,0.0,35.0,-1,0.0,0.17560099999991508
565,1,0.2,0.0,35.0,-1,0.0,1.871400999999878
566,1,0.2,0.25,35.0,1,1.0,0.3291010000002643
567,1,0.2,1.0,35.0,1,1.0,0.4751009999999951
568,1,0.2,0.125,-35.0,1,0.0,2.686101000000235
569,1,0.2,1.0,35.0,1,1.0,0.26190100000030725
570,1,0.2,1.0,-35.0,-1,1.0,0.6131009999999151
571,1,0.2,0.0625,35.0,1,1.0,15.31530100000009
572,1,0.2,0.25,-35.0,-1,1.0,10.240102000000206
573,1,0.2,0.0,35.0,1,1.0,1.6859010000002854
574,1,0.2,0.0625,35.0,1,1.0,15.094000999999935
575,1,0.2,0.25,35.0,1,1.0,0.43000200000051336
576,1,0.2,0.0625,-35.0,-1,1.0,19.62710100000004
577,1,0.2,0.125,35.0,1,1.0,0.2935010000001057
578,1,0.2,0.0625,-35.0,-1,1.0,0.4112009999998918
579,1,0.2,0.125,35.0,-1,0.0,4.590402000000267
580,1,0.2,1.0,35.0,1,1.0,0.43800099999998565
581,1,0.2,0.0,35.0,-1,0.0,0.9606010000002243
582,1,0.2,0.125,35.0,1,1.0,1.9581010000001697
583,1,0.2,0.25,35.0,1,1.0,0.34100200000057157
584,1,0.8,0.25,35.0,1,1.0,0.35470100000020466
585,1,0.8,1.0,-35.0,-1,1.0,0.33750099999997474
586,1,0.8,0.125,-35.0,-1,1.0,0.3750009999998838
587,1,0.8,1.0,-35.0,-1,1.0,0.511000999999851
588,1,0.8,0.125,35.0,1,1.0,3.7286010000002534
589,1,0.8,0.0,-35.0,1,0.0,0.4081010000004426
590,1,0.8,0.0,-35.0,1,0.0,0.4156010000006063
591,1,0.8,1.0,35.0,1,1.0,0.3649019999998018
592,1,0.8,0.125,35.0,-1,0.0,0.48580100000026505
593,1,0.8,0.25,-35.0,-1,1.0,0.7183009999998831
594,1,0.8,1.0,35.0,1,1.0,0.32600100000036036
595,1,0.8,0.0,-35.0,-1,1.0,0.9019010000001799
596,1,0.8,0.25,-35.0,-1,1.0,0.37930099999994127
597,1,0.8,0.0,-35.0,1,0.0,0.39520200000015393
598,1,0.8,0.125,-35.0,-1,1.0,0.3093010000002323
599,1,0.8,0.25,-35.0,-1,1.0,0.31870100000014645
600,1,0.8,0.0,-35.0,1,0.0,1.8600010000000111
601,1,0.8,0.125,-35.0,-1,1.0,0.33550200000036057
602,1,0.8,0.0,-35.0,1,0.0,0.15990099999999074
603,1,0.8,0.0625,-35.0,-1,1.0,0.3424009999998816
604,1,0.8,0.25,-35.0,-1,1.0,1.3334020000002056
605,1,0.8,0.0,-35.0,-1,1.0,5.022401000000627
606,1,0.8,1.0,-35.0,-1,1.0,0.4300010000006296
607,1,0.8,1.0,-35.0,-1,1.0,0.3393020000003162
608,1,0.8,0.25,-35.0,-1,1.0,0.6737009999997099
609,1,0.8,0.125,-35.0,1,0.0,19.979901000000154
610,1,0.8,0.125,-35.0,-1,1.0,0.3575010000004113
611,1,0.8,0.125,-35.0,-1,1.0,0.23690100000067105
612,1,0.8,0.125,-35.0,-1,1.0,5.94760099999985
613,1,0.8,1.0,35.0,1,1.0,0.26380100000051243
614,1,0.8,0.125,35.0,1,1.0,0.4349010000000817
615,1,0.8,0.0,-35.0,1,0.0,7.930901000000176
616,1,0.8,1.0,-35.0,-1,1.0,0.5619010000000344
617,1,0.8,0.125,-35.0,1,0.0,25.981702000000496
618,1,0.8,0.0,-35.0,-1,1.0,0.9222010000003138
619,1,0.8,0.0625,-35.0,1,0.0,16.668101000000206
620,1,0.8,0.125,-35.0,-1,1.0,0.2559009999999944
621,1,0.8,0.125,-35.0,-1,1.0,21.92870099999982
622,1,0.8,0.125,-35.0,1,0.0,8.32660100000021
623,1,0.8,0.0,-35.0,-1,1.0,5.156001000000288
624,1,0.8,0.125,-35.0,1,0.0,16.380301000000145
625,1,0.8,0.0,-35.0,1,0.0,0.5109019999999873
626,1,0.8,0.125,-35.0,-1,1.0,0.9333010000000286
627,1,0.8,0.0625,-35.0,1,0.0,18.354301000000305
628,1,0.8,1.0,-35.0,1,0.0,13.810500999999931
629,1,0.8,0.125,-35.0,1,0.0,14.591601000000537
630,1,0.8,0.0,-35.0,1,0.0,21.59480100000019
631,1,0.8,0.125,-35.0,-1,1.0,8.255800999999792
632,1,0.8,0.25,-35.0,-1,1.0,10.185300999999981
633,1,0.8,0.25,-35.0,-1,1.0,28.433002000000215
634,1,0.8,0.0625,-35.0,-1,1.0,40.556101000000126
635,1,0.8,0.25,35.0,1,1.0,0.5047010000002956
636,1,0.8,1.0,-35.0,-1,1.0,0.40690100000028906
637,1,0.8,0.125,-35.0,-1,1.0,10.404701999999816
638,1,0.8,0.0,-35.0,-1,1.0,1.4081009999999878
1,2,0.5,1.0,-35.0,-1,1.0,0.782
2,2,0.5,0.0625,35.0,1,1.0,0.42129999999999956
3,2,0.5,0.0625,-35.0,1,0.0,0.43349999999999866
4,2,0.5,0.25,35.0,1,1.0,0.5138999999999996
5,2,0.5,0.0,-35.0,-1,1.0,3.5191000000000017
6,2,0.5,0.125,-35.0,-1,1.0,1.2870999999999988
7,2,0.5,0.0,-35.0,-1,1.0,1.2141999999999982
8,2,0.5,0.0,35.0,1,1.0,2.510499999999997
9,2,0.5,0.0625,35.0,1,1.0,0.7611000000000061
10,2,0.5,1.0,35.0,1,1.0,0.3335010000000054
11,2,0.5,0.125,-35.0,-1,1.0,1.6561000000000092
12,2,0.5,0.0,35.0,-1,0.0,3.659800000000004
13,2,0.5,1.0,35.0,1,1.0,0.24590100000000348
14,2,0.5,0.0625,-35.0,-1,1.0,0.21410000000000196
15,2,0.5,0.125,-35.0,-1,1.0,2.5253000000000014
16,2,0.5,0.0625,-35.0,-1,1.0,3.1043999999999983
17,2,0.5,0.0625,35.0,1,1.0,1.6784009999999938
18,2,0.5,0.125,-35.0,-1,1.0,0.5366999999999962
19,2,0.5,0.0625,35.0,1,1.0,0.3768000000000029
20,2,0.5,0.125,-35.0,-1,1.0,0.5867000000000075
21,2,0.5,0.125,35.0,1,1.0,0.5938000000000017
22,2,0.5,0.125,-35.0,-1,1.0,1.9462000000000046
23,2,0.5,0.25,35.0,1,1.0,0.4381999999999948
24,2,0.5,0.0,-35.0,-1,1.0,2.4071
25,2,0.5,0.0,35.0,-1,0.0,2.451599999999999
26,2,0.5,0.125,-35.0,-1,1.0,0.3936000000000064
27,2,0.5,0.25,-35.0,-1,1.0,2.0907000000000124
28,2,0.5,0.125,35.0,1,1.0,0.5105999999999966
29,2,0.5,0.25,35.0,1,1.0,0.40520100000000525
30,2,0.5,0.0,-35.0,-1,1.0,0.5519999999999925
31,2,0.5,1.0,35.0,1,1.0,8.670599999999979
32,2,0.5,0.25,-35.0,-1,1.0,0.28239999999999554
33,2,0.5,0.125,35.0,1,1.0,0.42210000000000036
34,2,0.5,0.0,-35.0,-1,1.0,0.13759999999999195
35,2,0.5,0.0,-35.0,-1,1.0,2.0066010000000176
36,2,0.5,0.25,-35.0,-1,1.0,0.2856000000000165
37,2,0.5,0.25,-35.0,-1,1.0,0.4000000000000341
38,2,0.5,0.0,-35.0,-1,1.0,0.455600000000004
39,2,0.5,0.0625,35.0,-1,0.0,2.1480999999999995
40,2,0.5,0.0,-35.0,-1,1.0,0.3359000000000094
41,2,0.5,1.0,35.0,1,1.0,0.3667000000000087
42,2,0.5,0.125,-35.0,-1,1.0,0.28139999999999077
43,2,0.5,0.25,35.0,1,1.0,0.1828000000000145
44,2,0.5,1.0,-35.0,-1,1.0,0.5046000000000106
45,2,0.5,0.25,35.0,1,1.0,0.4350000000000023
46,2,0.5,0.25,35.0,1,1.0,0.29300000000000637
47,2,0.5,0.0625,-35.0,-1,1.0,0.5847009999999955
48,2,0.5,0.0625,35.0,-1,0.0,0.13950100000002408
49,2,0.5,0.0,35.0,-1,0.0,0.4901000000000124
50,2,0.5,0.125,-35.0,-1,1.0,0.3647009999999966
51,2,0.5,0.25,-35.0,-1,1.0,0.44470000000001164
52,2,0.5,0.25,35.0,1,1.0,0.2868000000000279
53,2,0.5,0.125,35.0,1,1.0,3.0981000000000165
54,2,0.5,0.0,35.0,-1,0.0,1.120699999999971
55,2,0.5,0.0,-35.0,-1,1.0,1.7288000000000068
56,2,0.5,0.25,-35.0,-1,1.0,0.30350100000001135
57,2,0.5,0.125,35.0,1,1.0,0.43940000000000623
58,2,0.5,0.25,-35.0,-1,1.0,0.20560100000000148
59,2,0.5,0.0,-35.0,-1,1.0,4.954400000000021
60,2,0.5,0.0,-35.0,-1,1.0,0.29880099999999743
61,2,0.5,0.125,35.0,1,1.0,0.38419999999999277
62,2,0.5,1.0,35.0,1,1.0,0.31639999999998736
63,2,0.5,1.0,35.0,1,1.0,0.32730000000003656
64,2,0.5,0.125,35.0,1,1.0,4.072800000000029
65,2,0.5,0.25,-35.0,-1,1.0,0.14369999999996708
66,2,0.5,0.125,35.0,1,1.0,0.2908999999999651
67,2,0.5,1.0,-35.0,-1,1.0,2.6288000000000125
68,2,0.5,0.125,-35.0,-1,1.0,0.7288009999999758
69,2,0.5,1.0,-35.0,-1,1.0,0.3492999999999711
70,2,0.5,0.25,-35.0,-1,1.0,1.1229000000000724
71,2,0.5,0.0,-35.0,-1,1.0,0.3180009999999811
72,2,0.5,0.0625,35.0,1,1.0,0.35140000000001237
73,2,0.5,0.25,35.0,1,1.0,0.5259000000000356
74,2,0.5,0.25,-35.0,-1,1.0,3.8473999999999364
75,2,0.5,0.25,35.0,1,1.0,0.3754999999999882
76,2,0.5,0.0,-35.0,-1,1.0,4.033800000000042
77,2,0.5,0.0,-35.0,1,0.0,0.46640000000002146
78,2,0.5,1.0,35.0,1,1.0,0.3967000000000098
79,2,0.5,0.25,35.0,1,1.0,0.8494999999999777
80,2,0.5,1.0,35.0,1,1.0,0.34969999999998436
81,2,0.5,0.0625,-35.0,-1,1.0,0.300200000000018
82,2,0.5,0.125,35.0,-1,0.0,3.573599999999999
83,2,0.5,0.25,-35.0,-1,1.0,0.29700000000002547
84,2,0.5,0.0625,35.0,1,1.0,0.36770000000001346
85,2,0.5,1.0,35.0,1,1.0,0.26509999999996126
86,2,0.5,0.0,35.0,-1,0.0,2.496600000000001
87,2,0.5,0.0,-35.0,-1,1.0,1.3694000000000415
88,2,0.5,0.125,35.0,1,1.0,0.30330000000003565
89,2,0.5,0.0625,35.0,1,1.0,0.3118000000000052
90,2,0.5,0.25,35.0,-1,0.0,3.337199999999939
91,2,0.2,0.0,35.0,1,1.0,0.3842999999999961
92,2,0.2,0.125,35.0,1,1.0,0.4508999999999901
93,2,0.2,1.0,35.0,1,1.0,0.31970000000001164
94,2,0.2,0.0625,35.0,1,1.0,0.7943000000000211
95,2,0.2,1.0,35.0,1,1.0,0.31330100000002403
96,2,0.2,0.0625,35.0,1,1.0,1.0398000000000138
97,2,0.2,0.0,35.0,-1,0.0,6.7876999999999725
98,2,0.2,0.125,35.0,1,1.0,0.6042999999999665
99,2,0.2,0.125,-35.0,-1,1.0,1.6575000000000273
100,2,0.2,0.0625,-35.0,-1,1.0,0.12430000000000518
101,2,0.2,0.25,35.0,1,1.0,0.4107999999999947
102,2,0.2,0.0625,35.0,1,1.0,0.7848999999999933
103,2,0.2,0.25,35.0,1,1.0,0.5643000000000029
104,2,0.2,0.0625,35.0,1,1.0,0.40430000000003474
105,2,0.2,0.125,-35.0,1,0.0,0.1956000000000131
106,2,0.2,1.0,35.0,1,1.0,0.3442000000000007
107,2,0.2,1.0,-35.0,-1,1.0,0.5622000000000185
108,2,0.2,1.0,35.0,1,1.0,0.31200000000006867
109,2,0.2,0.125,-35.0,-1,1.0,0.42089999999996053
110,2,0.2,0.25,-35.0,-1,1.0,0.2292009999999891
111,2,0.2,1.0,35.0,1,1.0,3.5407000000000153
112,2,0.2,0.25,-35.0,-1,1.0,0.25530000000003383
113,2,0.2,0.25,35.0,1,1.0,0.41760000000004993
114,2,0.2,0.0,35.0,-1,0.0,0.40720000000004575
115,2,0.2,0.125,-35.0,-1,1.0,0.2592000000000212
116,2,0.2,0.0,35.0,1,1.0,0.3356000000000563
117,2,0.2,1.0,35.0,1,1.0,0.35019999999997253
118,2,0.2,0.0,35.0,1,1.0,0.4326009999999769
119,2,0.2,1.0,-35.0,-1,1.0,0.3161999999999807
120,2,0.2,0.125,35.0,1,1.0,0.32730100000003404
121,2,0.2,0.25,35.0,1,1.0,0.3017000000000394
122,2,0.2,0.125,35.0,1,1.0,0.4369000000000369
123,2,0.2,0.0625,35.0,1,1.0,0.21170000000000755
124,2,0.2,1.0,35.0,1,1.0,0.25520000000005894
125,2,0.2,0.0,35.0,1,1.0,1.988299999999981
126,2,0.2,0.0625,35.0,1,1.0,0.22530000000000427
127,2,0.2,0.25,35.0,1,1.0,1.803700000000049
128,2,0.2,1.0,35.0,1,1.0,0.30320000000006075
129,2,0.2,1.0,35.0,1,1.0,0.41459999999995034
130,2,0.2,0.0625,35.0,1,1.0,0.3892000000000735
131,2,0.2,0.0625,-35.0,1,0.0,0.6380010000000311
132,2,0.2,0.125,35.0,1,1.0,0.37419999999997344
133,2,0.2,0.25,35.0,1,1.0,2.1747010000000273
134,2,0.2,0.0,35.0,1,1.0,0.3263999999999214
135,2,0.2,0.0,35.0,1,1.0,0.43229999999994106
136,2,0.2,0.0,35.0,-1,0.0,0.3362000000000762
137,2,0.2,1.0,35.0,1,1.0,0.2441000000000031
138,2,0.2,0.25,35.0,1,1.0,0.9732000000000198
139,2,0.2,0.125,35.0,1,1.0,0.26739999999995234
140,2,0.2,0.0625,-35.0,1,0.0,2.502100000000155
141,2,0.2,0.0,35.0,1,1.0,4.523799999999937
142,2,0.2,0.125,35.0,-1,0.0,0.13549999999997908
143,2,0.2,0.0,35.0,-1,0.0,0.20780100000001767
144,2,0.8,0.25,35.0,1,1.0,0.2862000000001217
145,2,0.8,0.0625,35.0,1,1.0,0.5765999999999849
146,2,0.8,0.0625,-35.0,-1,1.0,0.55820099999994
147,2,0.8,0.125,-35.0,1,0.0,0.3427000000000362
148,2,0.8,0.25,-35.0,-1,1.0,0.2987000000000535
149,2,0.8,0.0625,-35.0,-1,1.0,0.4642000000000053
150,2,0.8,1.0,35.0,1,1.0,0.2840999999999667
151,2,0.8,0.25,-35.0,1,0.0,2.5463009999999713
152,2,0.8,0.25,35.0,1,1.0,1.161100000000033
153,2,0.8,0.25,35.0,-1,0.0,0.15670000000000073
154,2,0.8,0.0625,-35.0,-1,1.0,0.6073000000000093
155,2,0.8,0.0625,-35.0,-1,1.0,0.42610000000001946
156,2,0.8,0.0,-35.0,-1,1.0,0.7808999999999742
157,2,0.8,0.0625,-35.0,-1,1.0,0.24919999999997344
158,2,0.8,0.125,35.0,1,1.0,0.3750009999999975
159,2,0.8,0.0,-35.0,-1,1.0,0.46890000000007603
160,2,0.8,1.0,35.0,-1,0.0,0.37399999999990996
161,2,0.8,0.25,-35.0,-1,1.0,0.4877999999999929
162,2,0.8,0.0,35.0,-1,0.0,0.3251000000000204
163,2,0.8,0.0625,-35.0,-1,1.0,0.4260999999999058
164,2,0.8,1.0,-35.0,-1,1.0,0.32960000000002765
165,2,0.8,0.0,-35.0,-1,1.0,1.1680999999999813
166,2,0.8,0.0,-35.0,-1,1.0,0.3384009999999762
167,2,0.8,1.0,35.0,1,1.0,0.5061009999999442
168,2,0.8,0.0625,35.0,-1,0.0,0.5442999999999074
169,2,0.8,0.0625,-35.0,-1,1.0,0.3077010000000655
170,2,0.8,0.125,-35.0,-1,1.0,0.18619999999987158
171,2,0.8,0.25,-35.0,-1,1.0,0.306699999999978
172,2,0.8,0.125,-35.0,-1,1.0,1.1803009999999858
173,2,0.8,1.0,35.0,1,1.0,0.3931999999999789
174,2,0.8,1.0,-35.0,-1,1.0,0.35610000000008313
175,2,0.8,0.0625,-35.0,-1,1.0,0.970299999999952
176,2,0.8,0.0,-35.0,-1,1.0,0.35820000000001073
177,2,0.8,0.25,-35.0,-1,1.0,0.2600999999999658
178,2,0.8,0.125,-35.0,-1,1.0,0.32920000000001437
179,2,0.8,0.0625,-35.0,-1,1.0,0.6910000000000309
180,2,0.8,0.25,-35.0,-1,1.0,2.4031009999999924
181,2,0.8,1.0,-35.0,-1,1.0,0.7961010000000215
182,2,0.8,0.0,-35.0,-1,1.0,0.4193000000000211
183,2,0.8,0.0625,-35.0,-1,1.0,0.14999999999997726
184,2,0.8,0.0625,-35.0,-1,1.0,1.4046000000000731
185,2,0.8,0.25,-35.0,-1,1.0,0.34000000000003183
186,2,0.8,0.0,-35.0,-1,1.0,0.1710010000000466
187,2,0.8,0.0,-35.0,1,0.0,0.6853000000000975
188,2,0.8,0.25,-35.0,-1,1.0,0.15399999999999636
189,2,0.8,0.0,-35.0,-1,1.0,0.3890000000001237
190,2,0.8,0.25,-35.0,-1,1.0,1.302000000000021
191,2,0.8,0.125,-35.0,-1,1.0,0.22450000000014825
192,2,0.8,0.0,-35.0,-1,1.0,0.97300000000007
193,2,0.8,0.25,-35.0,-1,1.0,0.27300000000002456
194,2,0.8,0.0625,-35.0,-1,1.0,2.2573000000001002
195,2,0.8,0.0625,-35.0,-1,1.0,0.33199999999999363
196,2,0.8,0.0625,-35.0,-1,1.0,0.2236000000000331
197,2,0.8,1.0,-35.0,-1,1.0,0.2982000000000653
198,2,0.8,0.125,-35.0,1,0.0,0.2743009999999231
199,2,0.8,1.0,-35.0,-1,1.0,0.16660000000013042
200,2,0.8,0.0,-35.0,-1,1.0,0.32730100000003404
201,2,0.8,0.125,-35.0,-1,1.0,0.24300000000005184
202,2,0.8,0.125,-35.0,-1,1.0,0.448099999999954
203,2,0.8,0.25,-35.0,-1,1.0,0.3277010000000473
204,2,0.8,0.125,-35.0,-1,1.0,0.4329000000000178
205,2,0.8,1.0,-35.0,-1,1.0,1.4540000000000646
206,2,0.8,0.125,-35.0,-1,1.0,0.310799999999972
207,2,0.8,0.25,35.0,-1,0.0,0.18820000000005166
208,2,0.8,0.0,-35.0,-1,1.0,0.4595000000000482
209,2,0.8,0.25,-35.0,-1,1.0,0.64549999999997
210,2,0.8,1.0,-35.0,-1,1.0,0.2676000000000158
211,2,0.8,0.0,-35.0,-1,1.0,0.2539000000000442
212,2,0.8,0.0625,-35.0,-1,1.0,2.0609000000000606
213,2,0.8,0.0,-35.0,-1,1.0,0.34990099999993163
214,2,0.8,0.0625,-35.0,-1,1.0,1.7783000000000584
215,2,0.8,0.0,35.0,-1,0.0,0.3348999999999478
216,2,0.8,0.25,35.0,1,1.0,0.40330100000005586
217,2,0.8,0.125,-35.0,1,0.0,2.115500000000111
218,2,0.8,0.125,-35.0,-1,1.0,0.2654009999999971
219,2,0.8,0.0,35.0,-1,0.0,0.13549999999997908
220,2,0.8,0.0625,35.0,1,1.0,0.4732999999999947
221,2,0.8,0.0,-35.0,-1,1.0,1.3546000000001186
222,2,0.8,0.25,-35.0,-1,1.0,0.22869999999988977
223,2,0.8,0.0,-35.0,-1,1.0,1.7405999999999722
224,2,0.8,1.0,-35.0,-1,1.0,0.30700000000001637
225,2,0.8,0.0,35.0,-1,0.0,0.32120099999997365
226,2,0.8,0.0,-35.0,1,0.0,0.29179999999996653
227,2,0.8,0.125,-35.0,-1,1.0,0.35789999999997235
228,2,0.8,0.25,-35.0,-1,1.0,0.27510000000006585
229,2,0.8,0.0625,-35.0,-1,1.0,0.4798999999999296
230,2,0.8,0.125,-35.0,-1,1.0,0.3908999999999878
231,2,0.8,1.0,-35.0,-1,1.0,0.266399999999976
232,2,0.8,0.0,-35.0,-1,1.0,2.774900000000116
233,2,0.8,1.0,-35.0,-1,1.0,0.5767999999999347
234,2,0.8,0.125,-35.0,1,0.0,0.16489999999987504
235,2,0.8,0.0625,-35.0,-1,1.0,0.29349999999999454
236,2,0.8,0.0,-35.0,-1,1.0,1.1195999999999913
237,2,0.8,0.0625,-35.0,-1,1.0,0.25109999999995125
238,2,0.8,1.0,35.0,1,1.0,0.296100000000024
239,2,0.8,0.0,-35.0,-1,1.0,2.167699999999968
240,2,0.8,1.0,35.0,1,1.0,0.3161000000000058
241,2,0.8,1.0,-35.0,-1,1.0,1.2509000000000015
242,2,0.8,0.25,35.0,1,1.0,1.725300999999945
243,2,0.2,0.25,35.0,1,1.0,0.3964009999999689
244,2,0.2,0.125,35.0,-1,0.0,0.2397009999999682
245,2,0.2,0.0,35.0,-1,0.0,0.28260000000011587
246,2,0.2,0.25,35.0,1,1.0,0.4302010000001246
247,2,0.2,0.0625,35.0,-1,0.0,2.775099999999952
248,2,0.2,0.25,35.0,1,1.0,0.36000000000001364
249,2,0.2,1.0,35.0,1,1.0,0.2843000000001439
250,2,0.2,0.0,35.0,-1,0.0,4.8202000000001135
251,2,0.2,0.125,35.0,1,1.0,0.32789999999999964
252,2,0.2,0.0,35.0,1,1.0,0.9003999999999905
253,2,0.2,0.125,35.0,1,1.0,0.30129999999985557
254,2,0.2,0.0625,-35.0,-1,1.0,3.4772999999997865
255,2,0.2,0.0625,35.0,1,1.0,0.4781000000000404
256,2,0.2,1.0,35.0,1,1.0,0.41079999999988104
257,2,0.2,0.25,35.0,1,1.0,0.5448999999998705
258,2,0.2,1.0,35.0,1,1.0,0.31399999999985084
259,2,0.2,0.25,35.0,1,1.0,0.3249999999998181
260,2,0.2,1.0,35.0,1,1.0,0.3209999999999127
261,2,0.2,1.0,35.0,1,1.0,0.48860100000001694
262,2,0.2,0.0625,35.0,1,1.0,0.31779999999980646
263,2,0.2,0.0,-35.0,1,0.0,0.3552999999999429
264,2,0.2,1.0,35.0,1,1.0,0.25479999999993197
265,2,0.2,0.125,35.0,1,1.0,0.46869999999989886
266,2,0.2,0.0625,35.0,1,1.0,1.497899999999845
267,2,0.2,0.25,35.0,1,1.0,0.4556999999999789
268,2,0.2,0.25,-35.0,-1,1.0,0.6648000000000138
269,2,0.2,0.0,35.0,-1,0.0,1.5322999999998501
270,2,0.2,0.125,-35.0,-1,1.0,0.33839999999986503
271,2,0.2,0.25,35.0,1,1.0,0.2890999999997348
272,2,0.2,0.0,35.0,-1,0.0,0.36829999999986285
273,2,0.2,0.0625,-35.0,-1,1.0,0.40269999999986794
274,2,0.2,1.0,35.0,1,1.0,0.2718999999999596
275,2,0.2,0.25,35.0,1,1.0,1.8897010000000591
276,2,0.2,0.25,-35.0,-1,1.0,0.3452999999997246
277,2,0.2,1.0,-35.0,-1,1.0,0.21970099999998638
278,2,0.2,1.0,35.0,1,1.0,0.6788010000000213
279,2,0.2,0.0,-35.0,-1,1.0,2.5198009999996884
280,2,0.2,0.0,35.0,1,1.0,2.8688999999999396
281,2,0.2,0.25,35.0,1,1.0,0.27369999999973516
282,2,0.2,1.0,35.0,1,1.0,0.27559999999994034
283,2,0.2,0.0625,-35.0,-1,1.0,0.5198999999997795
284,2,0.2,0.125,35.0,1,1.0,0.39269999999987704
285,2,0.2,0.125,35.0,1,1.0,0.8306999999997515
286,2,0.2,0.0625,35.0,1,1.0,0.3227999999996882
287,2,0.2,0.0,35.0,-1,0.0,0.9471000000000913
288,2,0.2,0.125,35.0,-1,0.0,0.11619999999993524
289,2,0.2,0.0625,-35.0,-1,1.0,0.4505999999996675
290,2,0.2,0.0,35.0,-1,0.0,1.5096999999998388
291,2,0.2,0.0,35.0,1,1.0,0.3242999999999938
292,2,0.2,0.25,35.0,1,1.0,0.3432999999999993
293,2,0.2,0.125,35.0,1,1.0,0.34079999999971733
294,2,0.2,0.0,-35.0,-1,1.0,2.000099999999975
295,2,0.2,0.0625,35.0,1,1.0,0.35760000000004766
296,2,0.2,0.0625,35.0,-1,0.0,1.943599999999833
297,2,0.8,0.125,35.0,1,1.0,0.43459999999981846
298,2,0.8,1.0,-35.0,-1,1.0,0.4602999999997337
299,2,0.8,0.0625,-35.0,-1,1.0,1.264599999999973
300,2,0.8,1.0,35.0,1,1.0,0.3238000000001193
301,2,0.8,0.25,-35.0,-1,1.0,0.7579999999998108
302,2,0.8,0.0,-35.0,-1,1.0,0.31719999999995707
303,2,0.8,0.0625,-35.0,-1,1.0,0.2716010000001461
304,2,0.8,0.0,-35.0,-1,1.0,0.5875999999998385
305,2,0.8,0.0625,-35.0,-1,1.0,0.45859999999993306
306,2,0.8,0.0,35.0,-1,0.0,0.39419999999995525
307,2,0.8,0.0,35.0,-1,0.0,0.15859999999997854
308,2,0.8,0.125,-35.0,-1,1.0,0.13779999999997017
309,2,0.8,0.25,35.0,1,1.0,0.33179999999993015
310,2,0.8,0.25,35.0,1,1.0,0.2445999999997639
311,2,0.8,0.0,-35.0,-1,1.0,0.33219999999982974
312,2,0.8,0.0625,-35.0,-1,1.0,0.2845999999997275
313,2,0.8,0.125,35.0,-1,0.0,0.1591009999999642
314,2,0.8,0.25,-35.0,-1,1.0,0.3246999999998934
315,2,0.8,0.0,-35.0,-1,1.0,2.1525999999996657
316,2,0.8,1.0,-35.0,-1,1.0,0.2381999999997788
317,2,0.8,0.0,-35.0,-1,1.0,0.6896010000000388
318,2,0.8,0.0,-35.0,-1,1.0,0.39850000000001273
319,2,0.8,1.0,-35.0,-1,1.0,0.33280100000001767
320,2,0.8,1.0,-35.0,-1,1.0,0.23520000000007713
321,2,0.8,1.0,-35.0,-1,1.0,1.7665999999996984
322,2,0.8,0.25,-35.0,-1,1.0,0.49529999999981555
323,2,0.2,1.0,35.0,1,1.0,0.23969999999985703
324,2,0.2,0.0,-35.0,-1,1.0,0.4355009999999311
325,2,0.2,0.125,-35.0,-1,1.0,0.3365999999998621
326,2,0.2,0.0,-35.0,-1,1.0,0.9988999999998214
327,2,0.2,1.0,35.0,1,1.0,0.3467000000000553
328,2,0.2,1.0,-35.0,-1,1.0,0.5889999999999418
329,2,0.2,0.0625,35.0,-1,0.0,0.0967000000000553
330,2,0.2,0.0625,35.0,1,1.0,0.32950099999993654
331,2,0.2,0.125,35.0,1,1.0,0.6974999999999909
332,2,0.2,0.0,35.0,-1,0.0,1.3694009999996979
333,2,0.2,0.25,-35.0,-1,1.0,0.27700000000004366
334,2,0.2,0.25,35.0,1,1.0,0.5295999999998457
335,2,0.2,0.125,35.0,1,1.0,2.163900999999896
336,2,0.2,0.0,35.0,-1,0.0,0.2663009999998849
337,2,0.2,1.0,-35.0,1,0.0,2.8137000000001535
338,2,0.2,0.0625,35.0,1,1.0,0.7166000000001986
339,2,0.2,0.0,35.0,1,1.0,2.6945009999999456
340,2,0.2,0.0625,35.0,1,1.0,0.496599999999944
341,2,0.2,0.25,35.0,1,1.0,0.35100099999999657
342,2,0.2,0.0,35.0,1,1.0,8.743599999999788
343,2,0.2,1.0,35.0,1,1.0,0.39780000000018845
344,2,0.2,0.25,35.0,1,1.0,0.4171999999998661
345,2,0.2,0.125,-35.0,1,0.0,0.5679999999999836
346,2,0.2,0.0625,35.0,1,1.0,0.3905009999998583
347,2,0.2,0.0,35.0,-1,0.0,0.501399999999876
348,2,0.2,1.0,35.0,1,1.0,0.3408009999998285
349,2,0.2,1.0,35.0,1,1.0,2.461699999999837
350,2,0.2,0.125,35.0,1,1.0,0.4440999999999349
351,2,0.2,0.125,35.0,1,1.0,0.3954999999998563
352,2,0.2,1.0,35.0,1,1.0,0.4274999999997817
353,2,0.2,0.0625,35.0,1,1.0,0.6385999999999967
354,2,0.2,0.25,35.0,1,1.0,0.37439999999969586
355,2,0.2,0.0,35.0,1,1.0,0.47549999999978354
356,2,0.2,1.0,35.0,1,1.0,0.4843999999998232
357,2,0.2,0.0,35.0,1,1.0,1.9385999999997239
358,2,0.2,0.0,-35.0,1,0.0,0.8979999999999109
359,2,0.2,0.25,35.0,1,1.0,0.30229999999960455
360,2,0.2,0.0,35.0,-1,0.0,3.3214000000000397
361,2,0.2,0.0625,35.0,1,1.0,0.4694999999999254
362,2,0.2,0.0625,35.0,1,1.0,0.4316999999998643
363,2,0.2,0.0625,35.0,1,1.0,2.6165000000000873
364,2,0.2,0.125,35.0,1,1.0,0.47539999999980864
365,2,0.2,0.125,35.0,1,1.0,0.31960099999969316
366,2,0.2,0.25,35.0,1,1.0,0.5787000000000262
367,2,0.2,0.25,35.0,1,1.0,1.5264009999998507
368,2,0.2,0.125,-35.0,-1,1.0,0.5721000000000913
369,2,0.2,0.0625,35.0,1,1.0,0.2032000000001517
370,2,0.2,0.125,35.0,1,1.0,0.8689009999998234
371,2,0.2,0.0625,35.0,1,1.0,1.4166999999997643
372,2,0.2,0.125,35.0,1,1.0,0.5256999999999152
373,2,0.2,0.0625,35.0,1,1.0,0.37669999999980064
374,2,0.2,0.0,-35.0,1,0.0,0.42259999999987485
375,2,0.2,1.0,-35.0,-1,1.0,0.45060000000012224
376,2,0.2,0.125,35.0,1,1.0,0.8159999999998035
377,2,0.2,1.0,35.0,1,1.0,0.5136999999999716
378,2,0.2,0.25,35.0,1,1.0,0.6563999999998487
379,2,0.2,0.125,35.0,-1,0.0,0.9871009999999387
380,2,0.2,0.125,35.0,1,1.0,0.47309999999970387
381,2,0.2,0.0,35.0,-1,0.0,0.7337999999997464
382,2,0.2,0.0,35.0,1,1.0,0.2634009999999307
383,2,0.2,0.25,35.0,1,1.0,0.36389999999983047
384,2,0.8,0.0625,35.0,-1,0.0,0.3364999999998872
385,2,0.8,1.0,-35.0,-1,1.0,0.30749999999989086
386,2,0.8,0.0625,-35.0,-1,1.0,0.4401009999996859
387,2,0.8,0.0625,35.0,-1,0.0,0.21139999999968495
388,2,0.8,0.0625,-35.0,-1,1.0,0.430299999999761
389,2,0.8,1.0,-35.0,-1,1.0,0.294399999999996
390,2,0.8,0.0,-35.0,1,0.0,0.5271000000000186
391,2,0.8,0.0,35.0,-1,0.0,2.6550999999997202
392,2,0.8,0.0625,-35.0,-1,1.0,0.21059999999988577
393,2,0.8,0.125,-35.0,-1,1.0,0.5247999999996864
394,2,0.8,0.25,-35.0,-1,1.0,0.3609000000001288
395,2,0.8,0.0625,35.0,1,1.0,0.5317009999998845
396,2,0.8,1.0,-35.0,-1,1.0,0.32750099999998383
397,2,0.8,0.0,-35.0,-1,1.0,0.36179999999990287
398,2,0.8,0.0625,-35.0,-1,1.0,0.3610999999998512
399,2,0.8,0.0,-35.0,1,0.0,1.8188000000000102
400,2,0.8,0.125,-35.0,1,0.0,0.21789999999964493
401,2,0.8,0.0,-35.0,-1,1.0,7.088799999999992
402,2,0.8,0.0,35.0,1,1.0,1.69829999999979
403,2,0.8,0.0,-35.0,-1,1.0,0.3549009999999271
404,2,0.8,0.125,-35.0,-1,1.0,0.5457999999998719
405,2,0.8,1.0,-35.0,-1,1.0,0.39170000000012806
406,2,0.8,0.125,-35.0,-1,1.0,0.29579999999987194
407,2,0.8,0.0,35.0,-1,0.0,0.6418009999997594
408,2,0.8,0.125,-35.0,-1,1.0,0.3061999999999898
409,2,0.8,0.25,-35.0,-1,1.0,0.32189999999968677
410,2,0.8,0.125,-35.0,-1,1.0,0.28329999999982647
411,2,0.8,0.0625,-35.0,-1,1.0,0.8022999999998319
412,2,0.8,0.0625,-35.0,-1,1.0,2.5862999999999374
413,2,0.8,0.125,-35.0,-1,1.0,0.39229999999997744
414,2,0.8,0.0,-35.0,-1,1.0,0.2803000000001248
415,2,0.8,1.0,-35.0,-1,1.0,0.2825000000000273
416,2,0.8,0.0625,-35.0,-1,1.0,0.5472999999999502
417,2,0.8,0.25,35.0,1,1.0,0.3658999999997832
418,2,0.8,0.0,-35.0,-1,1.0,1.8166999999998552
419,2,0.8,0.0625,-35.0,-1,1.0,0.3028009999998176
420,2,0.8,0.125,-35.0,-1,1.0,0.47030000000017935
421,2,0.8,0.25,-35.0,1,0.0,0.2826999999997497
422,2,0.8,0.0,-35.0,-1,1.0,4.153699999999844
423,2,0.8,0.0,-35.0,1,0.0,0.3729000000000724
424,2,0.8,0.0625,-35.0,-1,1.0,0.36390099999994163
425,2,0.8,1.0,-35.0,-1,1.0,0.5632000000000517
426,2,0.8,0.0625,-35.0,-1,1.0,0.4340999999997166
427,2,0.8,0.0625,-35.0,-1,1.0,0.28340000000002874
428,2,0.2,0.0,35.0,-1,0.0,2.9578999999998814
429,2,0.2,1.0,-35.0,-1,1.0,0.3002999999998792
430,2,0.2,0.25,35.0,1,1.0,1.6344010000000253
431,2,0.2,0.125,-35.0,-1,1.0,2.557099999999764
432,2,0.2,1.0,-35.0,-1,1.0,1.1877999999996973
433,2,0.2,0.0,35.0,-1,0.0,0.37370099999975537
434,2,0.2,0.125,35.0,1,1.0,0.2081999999998061
435,2,0.2,0.25,-35.0,-1,1.0,0.2139999999999418
436,2,0.2,0.0625,35.0,1,1.0,0.44479999999998654
437,2,0.2,0.0,35.0,1,1.0,3.8705999999999676
438,2,0.2,0.25,35.0,1,1.0,0.4684999999997217
439,2,0.2,0.125,35.0,1,1.0,0.677599999999984
440,2,0.2,0.125,35.0,1,1.0,0.5885000000000673
441,2,0.2,0.25,35.0,1,1.0,3.4645000000000437
442,2,0.2,0.25,35.0,1,1.0,0.302199999999857
443,2,0.2,0.0625,35.0,1,1.0,1.7579999999998108
444,2,0.2,0.0,-35.0,1,0.0,4.122599999999693
445,2,0.2,0.0625,35.0,1,1.0,0.3183009999997921
446,2,0.2,0.0625,35.0,1,1.0,0.4225010000000111
447,2,0.2,1.0,-35.0,-1,1.0,0.21489999999994325
448,2,0.2,1.0,35.0,1,1.0,0.34920000000010987
449,2,0.8,0.125,-35.0,-1,1.0,0.8116999999999734
450,2,0.8,0.0625,-35.0,-1,1.0,0.5427999999999429
451,2,0.8,0.0,35.0,1,1.0,0.8522009999999227
452,2,0.8,0.0,-35.0,-1,1.0,0.2997009999999136
453,2,0.8,0.125,-35.0,1,0.0,0.35229999999978645
454,2,0.8,0.125,-35.0,-1,1.0,0.31959999999980937
455,2,0.8,0.0625,-35.0,1,0.0,0.4921999999999116
456,2,0.8,0.0,-35.0,-1,1.0,0.13990099999978156
457,2,0.8,0.0,-35.0,1,0.0,0.3692009999997481
458,2,0.8,0.125,-35.0,-1,1.0,0.5665999999996529
459,2,0.8,0.25,-35.0,-1,1.0,4.559199999999919
460,2,0.8,0.25,-35.0,-1,1.0,0.5601999999998952
461,2,0.8,0.0,-35.0,-1,1.0,0.5661999999997533
462,2,0.8,0.25,35.0,1,1.0,0.3868999999999687
463,2,0.8,0.125,-35.0,-1,1.0,0.3227999999999156
464,2,0.8,0.0,-35.0,-1,1.0,0.26389999999969405
465,2,0.8,0.125,35.0,1,1.0,0.34320099999990816
466,2,0.8,0.0,35.0,-1,0.0,1.2210999999997512
467,2,0.8,1.0,-35.0,-1,1.0,5.383199999999761
468,2,0.8,0.0625,-35.0,-1,1.0,0.5874009999997725
469,2,0.8,1.0,-35.0,-1,1.0,0.3467000000000553
470,2,0.8,0.0625,-35.0,-1,1.0,0.3244999999999436
471,2,0.8,0.125,-35.0,-1,1.0,1.203499999999849
472,2,0.8,0.0625,35.0,1,1.0,1.4842999999998483
473,2,0.8,0.25,-35.0,-1,1.0,0.4235999999998512
474,2,0.8,0.125,-35.0,-1,1.0,0.5310999999996966
475,2,0.8,0.125,-35.0,-1,1.0,0.5770999999999731
476,2,0.2,0.0625,-35.0,-1,1.0,0.7780999999997675
477,2,0.2,1.0,35.0,1,1.0,0.3170999999997548
478,2,0.2,0.125,-35.0,-1,1.0,0.4880999999998039
479,2,0.2,0.125,-35.0,-1,1.0,0.6340999999997621
480,2,0.2,1.0,-35.0,-1,1.0,0.45820099999991726
481,2,0.2,1.0,35.0,1,1.0,0.34079999999971733
482,2,0.2,0.0,35.0,-1,0.0,4.761999999999944
483,2,0.2,0.0,35.0,-1,0.0,0.5676009999997405
484,2,0.2,1.0,35.0,1,1.0,0.31529999999997926
485,2,0.2,0.125,35.0,-1,0.0,2.884500999999773
486,2,0.2,0.0,35.0,-1,0.0,0.5788999999997486
487,2,0.2,1.0,35.0,1,1.0,0.401299999999992
488,2,0.2,0.0625,35.0,1,1.0,0.39909999999963475
489,2,0.2,1.0,35.0,1,1.0,0.3351000000000113
490,2,0.2,0.25,35.0,1,1.0,1.5827999999999065
491,2,0.2,0.0,35.0,1,1.0,3.1382999999998447
492,2,0.2,0.125,35.0,1,1.0,0.3591999999998734
493,2,0.2,1.0,35.0,1,1.0,0.3185009999997419
494,2,0.2,0.125,35.0,1,1.0,0.6093000000000757
495,2,0.2,0.0,35.0,1,1.0,3.838599999999815
496,2,0.2,0.0625,35.0,1,1.0,0.7795999999998457
497,2,0.2,0.125,35.0,1,1.0,0.6355000000003201
498,2,0.2,0.0,-35.0,1,0.0,3.6830000000004475
499,2,0.2,1.0,35.0,1,1.0,0.3458000000005086
500,2,0.2,0.25,35.0,1,1.0,0.5100999999999658
501,2,0.2,0.0,35.0,1,1.0,1.8658000000000357
502,2,0.2,0.25,35.0,1,1.0,0.39709999999968204
503,2,0.2,0.0625,35.0,1,1.0,0.5493999999998778
504,2,0.2,0.25,35.0,1,1.0,2.0871000000001914
505,2,0.2,0.0,35.0,-1,0.0,3.306300000000192
506,2,0.2,0.125,35.0,1,1.0,0.4305999999996857
507,2,0.2,0.0,35.0,-1,0.0,2.7765010000002803
508,2,0.2,0.0,-35.0,1,0.0,26.128000000000156
509,2,0.2,0.25,35.0,1,1.0,0.6871000000005552
510,2,0.2,0.0,35.0,1,1.0,19.184999999999945
511,2,0.2,0.25,35.0,1,1.0,0.5175999999996748
512,2,0.2,0.25,35.0,1,1.0,0.5752000000002226
513,2,0.2,0.0625,35.0,1,1.0,0.3811999999998079
514,2,0.2,1.0,-35.0,-1,1.0,2.872200000000248
515,2,0.2,0.0,35.0,-1,0.0,7.775000000000091
516,2,0.2,0.25,35.0,1,1.0,0.3189000000006672
517,2,0.2,0.0625,35.0,-1,0.0,1.1813999999999396
518,2,0.2,0.125,35.0,1,1.0,0.43600000000014916
519,2,0.2,0.0,35.0,-1,0.0,7.018300000000181
520,2,0.2,0.0625,35.0,1,1.0,0.4360999999998967
521,2,0.8,0.125,-35.0,1,0.0,0.48199999999951615
522,2,0.8,1.0,35.0,1,1.0,0.522899999999936
523,2,0.8,1.0,-35.0,-1,1.0,0.4420999999997548
524,2,0.8,0.25,-35.0,1,0.0,4.343000000000302
525,2,0.8,0.0625,-35.0,-1,1.0,0.645701000000372
526,2,0.8,0.125,-35.0,-1,1.0,0.4566010000003189
527,2,0.8,0.125,-35.0,-1,1.0,0.4290000000000873
528,2,0.8,1.0,-35.0,-1,1.0,0.6433000000001812
529,2,0.8,0.0625,-35.0,-1,1.0,2.3830000000002656
530,2,0.8,0.0625,-35.0,-1,1.0,0.46370000000024447
531,2,0.8,0.0,35.0,-1,0.0,0.42610000000013315
532,2,0.8,0.125,-35.0,-1,1.0,0.24390000000039436
533,2,0.8,1.0,-35.0,-1,1.0,0.3829000000000633
534,2,0.8,0.25,-35.0,-1,1.0,0.3108010000005379
535,2,0.8,0.125,-35.0,-1,1.0,0.32640100000025996
536,2,0.8,1.0,-35.0,-1,1.0,0.3509019999996781
537,2,0.8,0.0,-35.0,-1,1.0,2.43650099999968
538,2,0.8,0.25,-35.0,-1,1.0,2.6609009999997397
539,2,0.8,1.0,-35.0,-1,1.0,0.5469010000001617
540,2,0.8,1.0,-35.0,-1,1.0,0.3679010000000744
541,2,0.8,0.25,35.0,1,1.0,0.6335010000002512
542,2,0.8,0.25,-35.0,-1,1.0,0.37120099999992817
543,2,0.8,1.0,35.0,1,1.0,0.5437010000000555
544,2,0.8,0.125,-35.0,-1,1.0,0.45120100000031016
545,2,0.8,0.0625,-35.0,-1,1.0,0.3505009999998947
546,2,0.8,0.0,-35.0,-1,1.0,3.4150009999998474
547,2,0.8,0.0,35.0,-1,0.0,2.8840009999998983
548,2,0.8,0.0,-35.0,-1,1.0,0.25860099999999875
549,2,0.8,0.0,35.0,1,1.0,7.824301999999989
550,2,0.8,0.0,-35.0,1,0.0,2.7752010000003793
551,2,0.8,0.0625,35.0,1,1.0,0.5479009999999107
552,2,0.8,0.125,-35.0,1,0.0,0.585501000000022
553,2,0.8,0.125,-35.0,1,0.0,0.44800100000020393
554,2,0.8,0.125,-35.0,1,0.0,0.19220099999984086
555,2,0.8,1.0,35.0,1,1.0,0.22820099999989907
556,2,0.8,1.0,-35.0,1,0.0,0.5124010000004091
557,2,0.8,0.125,35.0,1,1.0,0.2450010000002294
558,2,0.8,0.25,-35.0,-1,1.0,0.4691020000000208
559,2,0.8,0.25,-35.0,-1,1.0,0.27840100000003076
560,2,0.8,0.0,35.0,-1,0.0,0.2060010000004695
561,2,0.8,0.25,-35.0,-1,1.0,0.40200099999992744
562,2,0.8,0.0,35.0,-1,0.0,0.516501000000062
563,2,0.8,0.0,-35.0,-1,1.0,0.4688009999999849
564,2,0.8,0.125,-35.0,-1,1.0,0.4030009999996764
565,2,0.8,0.25,-35.0,-1,1.0,0.4723010000002432
566,2,0.8,0.25,-35.0,-1,1.0,0.38980099999980666
567,2,0.8,0.0625,-35.0,-1,1.0,0.9358009999996284
568,2,0.8,1.0,-35.0,-1,1.0,0.3932020000002012
569,2,0.8,0.25,35.0,1,1.0,2.0393010000002505
570,2,0.8,1.0,-35.0,-1,1.0,0.2938010000002578
571,2,0.8,0.125,-35.0,-1,1.0,1.8528009999999995
572,2,0.8,0.0625,-35.0,-1,1.0,0.6270010000002912
573,2,0.8,0.0,-35.0,1,0.0,0.3629009999999653
574,2,0.8,0.0,-35.0,-1,1.0,0.7306010000002061
575,2,0.8,1.0,-35.0,-1,1.0,0.4130009999998947
576,2,0.8,0.0625,-35.0,-1,1.0,1.6208010000004833
577,2,0.8,0.125,-35.0,-1,1.0,0.36680100000012317
578,2,0.8,0.0625,35.0,-1,0.0,2.624801999999818
579,2,0.8,1.0,-35.0,-1,1.0,0.4267009999998663
580,2,0.8,0.125,-35.0,-1,1.0,0.30090100000006714
581,2,0.8,0.0,35.0,-1,0.0,0.6171010000002752
582,2,0.8,1.0,-35.0,-1,1.0,0.5210010000005241
583,2,0.8,0.0,35.0,1,1.0,4.657001000000037
584,2,0.8,0.0625,-35.0,-1,1.0,0.3281010000000606
585,2,0.2,0.25,-35.0,-1,1.0,0.28080099999988306
586,2,0.2,0.125,-35.0,-1,1.0,2.4783010000001013
587,2,0.2,0.125,35.0,1,1.0,5.044100999999955
588,2,0.2,0.25,35.0,1,1.0,0.43880099999978484
589,2,0.2,0.125,35.0,1,1.0,8.77100100000007
590,2,0.2,0.125,35.0,1,1.0,1.6422010000001137
591,2,0.2,0.25,-35.0,1,0.0,1.5512010000002192
592,2,0.2,0.0,-35.0,1,0.0,1.5722010000004047
593,2,0.2,0.25,35.0,1,1.0,0.34810100000049715
594,2,0.2,0.125,35.0,1,1.0,8.019001000000117
595,2,0.2,0.0625,35.0,1,1.0,4.97510100000045
596,2,0.2,0.0625,35.0,-1,0.0,0.9260010000002694
597,2,0.2,0.0,35.0,1,1.0,21.42210100000011
598,2,0.2,1.0,-35.0,-1,1.0,1.086800999999923
599,2,0.2,0.125,35.0,1,1.0,0.34580099999993763
600,2,0.2,0.0,35.0,-1,0.0,1.8935010000000148
601,2,0.2,1.0,35.0,1,1.0,0.3028010000002723
602,2,0.2,0.0,35.0,-1,0.0,3.853802000000087
603,2,0.2,0.0625,35.0,1,1.0,0.6165009999999711
604,2,0.2,0.0,35.0,-1,0.0,0.5406010000001515
605,2,0.2,0.0625,35.0,-1,0.0,2.843200999999681
606,2,0.2,0.0625,35.0,1,1.0,0.5110010000003058
607,2,0.2,0.125,35.0,1,1.0,0.31670200000007753
608,2,0.2,0.0625,35.0,1,1.0,0.45770100000027014
609,2,0.2,0.25,35.0,1,1.0,0.45010099999990416
610,2,0.2,1.0,35.0,1,1.0,1.6810009999999238
611,2,0.8,0.0625,-35.0,-1,1.0,2.196900999999798
612,2,0.8,0.125,-35.0,1,0.0,13.634601000000657
613,2,0.8,0.25,-35.0,-1,1.0,0.39760100000012244
614,2,0.8,0.125,35.0,1,1.0,0.6651010000000497
615,2,0.8,0.125,-35.0,1,0.0,3.730901000000358
616,2,0.8,0.0,-35.0,1,0.0,19.135601999999835
617,2,0.8,0.125,-35.0,1,0.0,24.264701000000514
618,2,0.8,0.125,-35.0,-1,1.0,26.77520100000038
619,2,0.8,0.25,-35.0,-1,1.0,1.5136019999999917
620,2,0.8,0.0,-35.0,1,0.0,12.375801000000138
621,2,0.8,0.125,-35.0,1,0.0,53.93280100000038
622,2,0.8,0.125,-35.0,-1,1.0,7.948501999999735
623,2,0.8,0.0625,-35.0,-1,1.0,0.5375010000002476
624,2,0.8,0.0625,-35.0,-1,1.0,15.061701000000085
625,2,0.8,0.25,-35.0,-1,1.0,0.7878010000003997
626,2,0.8,0.0625,-35.0,-1,1.0,3.7989019999999982
627,2,0.8,0.25,-35.0,-1,1.0,0.518301000000065
628,2,0.8,0.0625,-35.0,-1,1.0,0.3995009999998729
629,2,0.8,0.125,-35.0,-1,1.0,5.031601000000137
630,2,0.8,1.0,-35.0,-1,1.0,0.3965010000001712
631,2,0.8,0.25,-35.0,-1,1.0,0.4151010000005044
632,2,0.8,0.0625,-35.0,-1,1.0,0.5129010000000562
633,2,0.8,0.25,-35.0,-1,1.0,0.3485019999998258
634,2,0.8,0.0,35.0,-1,0.0,0.37350100000003295
635,2,0.8,1.0,35.0,1,1.0,0.3521009999999478
636,2,0.8,0.125,-35.0,-1,1.0,3.4866010000000642
637,2,0.8,0.25,-35.0,-1,1.0,0.38890100000025996
638,2,0.8,0.0625,-35.0,-1,1.0,0.35650100000020757
639,2,0.8,0.0625,-35.0,-1,1.0,0.44590100000004895
640,2,0.8,0.0,-35.0,-1,1.0,1.0669009999996888
641,2,0.8,0.125,-35.0,-1,1.0,1.8526019999999335
642,2,0.8,0.125,-35.0,-1,1.0,0.3635010000002694
643,2,0.8,0.0625,-35.0,-1,1.0,0.17940100000032544
644,2,0.8,0.25,-35.0,-1,1.0,0.23030100000005405
645,2,0.8,0.25,-35.0,-1,1.0,0.8128010000000359
646,2,0.8,1.0,35.0,1,1.0,0.29440199999999095
647,2,0.8,1.0,-35.0,-1,1.0,0.32310099999995145
648,2,0.8,1.0,-35.0,-1,1.0,0.14750199999980396
649,2,0.8,0.125,35.0,-1,0.0,0.44650099999989834
650,2,0.8,0.25,-35.0,-1,1.0,0.2745020000002114
651,2,0.8,1.0,35.0,1,1.0,0.2699010000001181
652,2,0.8,0.25,-35.0,-1,1.0,0.2945020000001932
653,2,0.8,0.125,-35.0,-1,1.0,0.41020100000059756
654,2,0.8,0.125,-35.0,-1,1.0,2.2684019999996963
655,2,0.8,1.0,-35.0,-1,1.0,0.3637010000002192
656,2,0.8,0.0,35.0,-1,0.0,0.41840099999990343
657,2,0.8,1.0,-35.0,-1,1.0,0.30050100000016755
658,2,0.8,0.0,-35.0,-1,1.0,0.381300999999894
659,2,0.8,0.0625,-35.0,-1,1.0,0.36740099999997256
660,2,0.8,0.125,-35.0,-1,1.0,2.128501000000142
661,2,0.8,0.0625,-35.0,-1,1.0,0.4442010000002483
662,2,0.8,0.125,-35.0,-1,1.0,0.43540100000018356
663,2,0.8,0.0,35.0,1,1.0,0.9075010000001384
664,2,0.8,0.0625,-35.0,-1,1.0,0.33190099999956146
665,2,0.8,0.25,35.0,1,1.0,0.3010010000002694
666,2,0.8,0.125,-35.0,-1,1.0,2.095401000000038
667,2,0.8,0.125,-35.0,-1,1.0,0.42140100000005987
668,2,0.8,0.25,-35.0,-1,1.0,0.4389009999999871
669,2,0.8,0.125,-35.0,1,0.0,0.3480010000002949
670,2,0.8,0.0,-35.0,-1,1.0,0.4794010000000526
671,2,0.8,1.0,35.0,1,1.0,0.48840100000006714
672,2,0.8,0.25,-35.0,-1,1.0,0.2757010000000264
673,2,0.8,1.0,-35.0,-1,1.0,2.89540100000022
674,2,0.8,1.0,-35.0,-1,1.0,0.4529010000001108
675,2,0.8,0.25,35.0,1,1.0,0.6018009999997957
676,2,0.8,1.0,-35.0,-1,1.0,0.3063009999996211
677,2,0.8,0.25,35.0,1,1.0,0.28870099999994636
678,2,0.8,0.125,-35.0,-1,1.0,0.48620200000004843
679,2,0.8,0.125,35.0,1,1.0,0.6088010000003123
680,2,0.8,0.125,-35.0,-1,1.0,0.2967010000006667
681,2,0.8,0.125,-35.0,-1,1.0,0.39900100000022576
682,2,0.8,0.125,-35.0,-1,1.0,0.5066010000005008
683,2,0.8,0.125,-35.0,-1,1.0,0.5158010000000104
684,2,0.8,0.25,35.0,1,1.0,0.4974010000000817
685,2,0.8,1.0,-35.0,-1,1.0,0.3160010000001421
686,2,0.8,1.0,-35.0,-1,1.0,0.6174009999999726
687,2,0.8,0.0625,-35.0,-1,1.0,0.5729010000000017
688,2,0.8,0.25,-35.0,-1,1.0,0.2974010000002636
689,2,0.8,0.25,-35.0,-1,1.0,0.3930009999999129
690,2,0.8,0.0625,-35.0,-1,1.0,0.14070099999980812
691,2,0.8,0.0625,-35.0,-1,1.0,0.4164009999999507
692,2,0.8,0.0,-35.0,-1,1.0,0.3077010000001792
693,2,0.8,0.0,35.0,-1,0.0,0.5266010000004826
694,2,0.8,0.0625,-35.0,-1,1.0,0.40090100000043094
695,2,0.8,0.0,-35.0,-1,1.0,1.0335009999998874
696,2,0.8,0.125,-35.0,1,0.0,0.13160100000004604
697,2,0.8,0.125,-35.0,-1,1.0,0.2736009999998714
698,2,0.8,0.25,-35.0,1,0.0,0.3445010000000366
699,2,0.8,0.25,-35.0,-1,1.0,0.31720099999984086
700,2,0.8,0.0625,-35.0,1,0.0,1.874702000000525
701,2,0.8,0.125,35.0,1,1.0,0.7074010000001181
702,2,0.8,0.0,-35.0,1,0.0,1.2250010000002476
703,2,0.8,1.0,35.0,1,1.0,0.35750099999995655
704,2,0.8,0.0625,35.0,1,1.0,0.3653020000001561
705,2,0.8,0.125,-35.0,-1,1.0,0.2910009999995964
706,2,0.8,0.0625,-35.0,-1,1.0,0.30550099999982194
707,2,0.2,0.0625,35.0,-1,0.0,2.1778010000002723
708,2,0.2,0.25,35.0,1,1.0,0.5023009999999886
709,2,0.2,0.0,-35.0,1,0.0,0.37820099999999
710,2,0.2,0.125,35.0,1,1.0,0.32630100000051243
711,2,0.2,0.0,-35.0,1,0.0,0.4983010000005379
712,2,0.2,0.25,35.0,1,1.0,0.31560099999978775
713,2,0.2,0.0,35.0,-1,0.0,0.3718010000002323
714,2,0.2,0.0,-35.0,-1,1.0,0.4325010000002294
715,2,0.2,0.25,35.0,1,1.0,1.111801000000014
716,2,0.2,1.0,-35.0,-1,1.0,0.47620099999994636
717,2,0.2,1.0,35.0,1,1.0,0.2988010000003669
718,2,0.2,0.25,35.0,1,1.0,0.396602000000712
719,2,0.2,1.0,35.0,1,1.0,0.405500999999731
720,2,0.2,0.125,35.0,1,1.0,0.2763020000002143
721,2,0.2,0.0625,35.0,-1,0.0,1.259001000000353
722,2,0.2,0.0,35.0,1,1.0,0.8703009999999267
723,2,0.2,0.0625,35.0,-1,0.0,2.1392009999999573
1,3,0.5,0.25,35.0,1,1.0,0.3388
2,3,0.5,0.0625,35.0,1,1.0,0.8400000000000007
3,3,0.5,0.25,-35.0,-1,1.0,0.26009999999999955
4,3,0.5,0.125,-35.0,-1,1.0,0.2718009999999982
5,3,0.5,0.0625,-35.0,-1,1.0,0.4527000000000019
6,3,0.5,0.0,35.0,-1,0.0,1.2275999999999954
7,3,0.5,0.0,-35.0,1,0.0,0.2728010000000012
8,3,0.5,0.125,35.0,1,1.0,0.23189999999999955
9,3,0.5,0.0,35.0,-1,0.0,0.3568010000000008
10,3,0.5,0.0,-35.0,-1,1.0,2.0595009999999974
11,3,0.5,0.125,-35.0,-1,1.0,0.1828999999999965
12,3,0.5,0.0,-35.0,-1,1.0,0.4221999999999966
13,3,0.5,0.0,35.0,-1,0.0,0.355799999999995
14,3,0.5,0.125,35.0,1,1.0,0.26500099999999804
15,3,0.5,1.0,-35.0,-1,1.0,0.3402010000000004
16,3,0.5,0.125,35.0,1,1.0,0.3453999999999908
17,3,0.5,0.125,35.0,1,1.0,0.33159999999999457
18,3,0.5,0.125,-35.0,-1,1.0,0.25509999999999877
19,3,0.5,1.0,-35.0,-1,1.0,1.3322999999999894
20,3,0.5,1.0,-35.0,1,0.0,0.14300000000000068
21,3,0.5,0.0,-35.0,-1,1.0,0.18379999999999086
22,3,0.5,0.125,35.0,1,1.0,0.218001000000001
23,3,0.5,0.0625,35.0,1,1.0,0.5483000000000118
24,3,0.5,1.0,-35.0,-1,1.0,0.120900000000006
25,3,0.5,0.0,-35.0,-1,1.0,1.4723010000000016
26,3,0.5,0.125,35.0,1,1.0,0.18479999999999563
27,3,0.5,0.0625,35.0,1,1.0,0.9701000000000022
28,3,0.5,1.0,-35.0,-1,1.0,0.2733999999999952
29,3,0.5,0.125,-35.0,-1,1.0,0.3900999999999897
30,3,0.5,1.0,-35.0,-1,1.0,0.27900100000000805
31,3,0.5,0.0625,35.0,1,1.0,0.4686009999999925
32,3,0.5,0.125,35.0,1,1.0,0.2465999999999866
33,3,0.5,0.0,35.0,-1,0.0,0.20770100000001435
34,3,0.5,0.25,-35.0,-1,1.0,0.24040000000000816
35,3,0.5,0.125,35.0,1,1.0,0.2536000000000058
36,3,0.5,0.25,35.0,1,1.0,0.3131999999999948
37,3,0.5,0.125,-35.0,-1,1.0,0.2335989999999981
38,3,0.5,0.0625,35.0,-1,0.0,0.22450000000003456
39,3,0.5,0.0625,35.0,-1,0.0,0.5865000000000293
40,3,0.5,0.0625,35.0,-1,0.0,0.2740009999999984
41,3,0.5,0.0625,35.0,1,1.0,0.3925999999999874
42,3,0.5,0.0625,35.0,-1,0.0,4.343899999999991
43,3,0.5,0.25,35.0,1,1.0,0.3225000000000193
44,3,0.5,1.0,-35.0,-1,1.0,0.18270100000000866
45,3,0.5,0.0625,35.0,1,1.0,0.21970000000001733
46,3,0.5,0.25,35.0,1,1.0,0.32210000000000605
47,3,0.5,0.0625,35.0,1,1.0,0.566900000000004
48,3,0.5,0.25,35.0,1,1.0,0.23050000000000637
49,3,0.5,1.0,-35.0,-1,1.0,0.5106000000000108
50,3,0.5,0.0625,-35.0,-1,1.0,0.6117000000000132
51,3,0.5,0.0,35.0,-1,0.0,0.3135000000000048
52,3,0.5,0.125,-35.0,-1,1.0,0.2950999999999908
53,3,0.5,0.25,35.0,1,1.0,0.3924000000000092
54,3,0.5,0.25,35.0,1,1.0,0.46930000000000405
55,3,0.5,0.0,35.0,1,1.0,0.3556000000000097
56,3,0.5,1.0,35.0,1,1.0,0.35230000000004225
57,3,0.5,0.0,35.0,1,1.0,0.3456999999999937
58,3,0.5,0.125,35.0,1,1.0,0.36060000000003356
59,3,0.5,0.125,-35.0,-1,1.0,0.10200000000000387
60,3,0.5,0.0,35.0,-1,0.0,0.28999999999999204
61,3,0.5,0.0625,35.0,1,1.0,0.5600009999999997
62,3,0.5,0.0,35.0,-1,0.0,0.6890000000000214
63,3,0.5,1.0,35.0,1,1.0,0.2909010000000194
64,3,0.5,0.25,35.0,1,1.0,1.2331000000000358
65,3,0.5,0.0,-35.0,1,0.0,1.7235009999999988
66,3,0.5,0.25,-35.0,-1,1.0,0.37660099999999375
67,3,0.5,0.0625,35.0,1,1.0,0.19890100000003486
68,3,0.5,0.125,35.0,1,1.0,0.34269999999997935
69,3,0.5,1.0,35.0,1,1.0,0.261400999999978
70,3,0.5,1.0,-35.0,-1,1.0,0.29990000000003647
71,3,0.5,1.0,-35.0,-1,1.0,0.24799999999999045
72,3,0.5,1.0,-35.0,-1,1.0,0.2366999999999848
73,3,0.5,0.25,35.0,1,1.0,0.39920000000000755
74,3,0.5,0.0,-35.0,-1,1.0,0.22910000000001673
75,3,0.5,0.125,-35.0,-1,1.0,0.11430000000001428
76,3,0.5,0.25,35.0,1,1.0,0.2778000000000702
77,3,0.5,0.0625,35.0,1,1.0,0.27520000000004075
78,3,0.5,0.0,-35.0,-1,1.0,0.1261000000000081
79,3,0.5,1.0,-35.0,-1,1.0,0.14040000000005648
80,3,0.5,0.25,-35.0,-1,1.0,0.2606000000000108
81,3,0.5,0.0,35.0,-1,0.0,0.2119000000000142
82,3,0.5,0.0,35.0,-1,0.0,0.25620100000003276
83,3,0.5,0.25,35.0,-1,0.0,0.16859999999996944
84,3,0.5,0.25,35.0,1,1.0,0.3139009999999871
85,3,0.5,0.125,-35.0,-1,1.0,0.2464010000000485
86,3,0.5,0.125,35.0,-1,0.0,0.12329999999997199
87,3,0.5,0.125,35.0,1,1.0,0.28460000000001173
88,3,0.5,0.25,35.0,1,1.0,0.49430100000006405
89,3,0.5,0.0,-35.0,1,0.0,0.5702000000000567
90,3,0.5,1.0,35.0,1,1.0,0.1829010000000153
91,3,0.2,0.0,35.0,1,1.0,0.2892009999999914
92,3,0.2,1.0,-35.0,-1,1.0,2.3853000000000293
93,3,0.2,1.0,35.0,1,1.0,0.4340000000000259
94,3,0.2,0.125,35.0,-1,0.0,0.24890000000004875
95,3,0.2,1.0,35.0,1,1.0,0.2831010000000447
96,3,0.2,0.0,35.0,1,1.0,1.0486000000000217
97,3,0.2,0.0625,35.0,1,1.0,0.3509010000000785
98,3,0.2,1.0,-35.0,-1,1.0,0.24210100000004786
99,3,0.2,1.0,35.0,1,1.0,0.2699000000000069
100,3,0.2,0.0,35.0,-1,0.0,2.5063010000000077
101,3,0.2,0.0625,35.0,1,1.0,0.245900000000006
102,3,0.2,0.0,35.0,-1,0.0,0.21090099999997847
103,3,0.2,0.125,-35.0,-1,1.0,0.30539999999996326
104,3,0.2,0.125,35.0,1,1.0,0.25210100000003877
105,3,0.2,0.0625,35.0,1,1.0,0.396000000000015
106,3,0.2,1.0,-35.0,-1,1.0,0.2849000000000501
107,3,0.2,0.25,35.0,1,1.0,0.5609000000000037
108,3,0.2,0.0,35.0,-1,0.0,1.0302009999999768
109,3,0.2,1.0,35.0,1,1.0,0.30650100000002567
110,3,0.2,1.0,35.0,1,1.0,0.3447999999999638
111,3,0.2,0.125,35.0,1,1.0,0.31920000000002346
112,3,0.2,0.0625,35.0,1,1.0,1.5519010000000435
113,3,0.2,0.25,35.0,1,1.0,0.22309999999998809
114,3,0.2,0.0625,-35.0,-1,1.0,0.27710100000001603
115,3,0.2,0.125,-35.0,-1,1.0,0.307899999999961
116,3,0.2,0.125,35.0,1,1.0,0.23090000000001965
117,3,0.2,0.125,35.0,1,1.0,0.29780099999999265
118,3,0.2,0.125,-35.0,-1,1.0,0.3498000000000161
119,3,0.2,0.0625,35.0,-1,0.0,0.1818010000000072
120,3,0.2,0.0,35.0,-1,0.0,0.4298000000000002
121,3,0.2,0.0,35.0,-1,0.0,0.5055999999999585
122,3,0.2,0.0625,35.0,1,1.0,0.810799999999972
123,3,0.2,0.125,35.0,1,1.0,0.3278010000000222
124,3,0.2,1.0,35.0,1,1.0,0.39380000000005566
125,3,0.2,0.25,35.0,1,1.0,0.6362000000000307
126,3,0.2,1.0,-35.0,-1,1.0,0.14280100000001994
127,3,0.2,1.0,35.0,1,1.0,0.18020000000001346
128,3,0.2,1.0,35.0,1,1.0,0.38980000000003656
129,3,0.2,0.25,35.0,1,1.0,0.28510000000005675
130,3,0.2,1.0,35.0,1,1.0,0.317799999999977
131,3,0.2,1.0,35.0,1,1.0,0.3539000000000101
132,3,0.2,0.0625,35.0,1,1.0,0.3318010000000413
133,3,0.2,0.125,35.0,1,1.0,0.36299999999999955
134,3,0.2,0.25,35.0,1,1.0,0.3421999999999912
135,3,0.2,0.0625,35.0,-1,0.0,0.3961010000000442
136,3,0.2,0.0,-35.0,1,0.0,1.7209009999999125
137,3,0.2,0.0,35.0,1,1.0,1.3641010000000051
138,3,0.2,0.125,35.0,1,1.0,0.41209999999989577
139,3,0.2,0.0625,35.0,1,1.0,0.3371999999999389
140,3,0.2,0.0625,35.0,1,1.0,0.3222999999999274
141,3,0.2,0.125,35.0,-1,0.0,0.1728010000000495
142,3,0.2,0.0,35.0,1,1.0,0.6408000000000129
143,3,0.2,1.0,35.0,1,1.0,0.20649999999989177
144,3,0.2,1.0,35.0,1,1.0,0.17570000000000618
145,3,0.2,0.0,35.0,-1,0.0,0.4198000000000093
146,3,0.2,0.125,35.0,1,1.0,0.2799999999999727
147,3,0.2,1.0,35.0,1,1.0,0.48910099999989143
148,3,0.2,0.25,35.0,-1,0.0,0.12170099999991635
149,3,0.2,1.0,35.0,1,1.0,0.2921000000000049
150,3,0.2,1.0,35.0,1,1.0,0.4017000000000053
151,3,0.2,0.125,35.0,1,1.0,0.26670000000001437
152,3,0.2,1.0,-35.0,-1,1.0,0.17070000000001073
153,3,0.2,1.0,35.0,1,1.0,0.3140999999999394
154,3,0.2,0.0625,35.0,-1,0.0,0.13369999999986248
155,3,0.2,0.0,35.0,1,1.0,0.538599999999974
156,3,0.2,0.0625,-35.0,-1,1.0,0.23669999999992797
157,3,0.2,0.25,35.0,-1,0.0,0.20739999999989323
158,3,0.2,0.0,35.0,-1,0.0,0.3747009999999591
159,3,0.2,0.25,35.0,1,1.0,0.31510000000002947
160,3,0.2,0.125,35.0,1,1.0,0.4380999999999631
161,3,0.2,0.25,35.0,1,1.0,0.2546999999998434
162,3,0.2,1.0,35.0,1,1.0,0.4397000000000162
163,3,0.2,0.125,35.0,1,1.0,0.3143999999999778
164,3,0.2,0.125,-35.0,1,0.0,0.2738999999999123
165,3,0.2,0.25,35.0,1,1.0,0.4329000000000178
166,3,0.2,0.0,35.0,-1,0.0,0.31529999999997926
167,3,0.2,0.25,35.0,1,1.0,0.241800000000012
168,3,0.2,0.0625,35.0,1,1.0,1.7339999999999236
169,3,0.2,1.0,35.0,1,1.0,0.34960100000000693
170,3,0.2,0.125,35.0,1,1.0,0.31799999999998363
171,3,0.2,0.0625,35.0,1,1.0,0.4739009999999553
172,3,0.2,0.0,35.0,1,1.0,1.8476009999999405
173,3,0.2,0.0,35.0,1,1.0,2.65849999999989
174,3,0.2,0.125,35.0,1,1.0,0.6005999999999858
175,3,0.2,0.0,35.0,-1,0.0,0.20839999999998327
176,3,0.2,0.0625,35.0,1,1.0,0.33609999999987394
177,3,0.2,0.0,35.0,1,1.0,0.3926000000000158
178,3,0.2,0.25,35.0,1,1.0,0.23360100000002149
179,3,0.2,0.0,35.0,1,1.0,0.3810999999999467
180,3,0.2,0.125,-35.0,-1,1.0,0.3120000000000118
181,3,0.2,0.0,35.0,1,1.0,0.5151999999999362
182,3,0.2,0.25,35.0,1,1.0,0.3186000000000604
183,3,0.8,1.0,-35.0,-1,1.0,0.24689999999998236
184,3,0.8,0.0,-35.0,1,0.0,1.474601000000007
185,3,0.8,0.0,35.0,-1,0.0,1.5336999999999534
186,3,0.8,0.125,-35.0,-1,1.0,0.32560000000000855
187,3,0.8,0.0,-35.0,-1,1.0,0.3791999999999689
188,3,0.8,0.0625,-35.0,-1,1.0,3.0801009999998996
189,3,0.8,0.0625,-35.0,-1,1.0,0.3427999999998974
190,3,0.8,0.125,35.0,1,1.0,0.5401999999999134
191,3,0.8,0.0,35.0,-1,0.0,0.2725000000000364
192,3,0.8,0.0625,35.0,1,1.0,2.923599999999965
193,3,0.8,0.25,-35.0,-1,1.0,0.3170999999998685
194,3,0.8,0.0625,35.0,1,1.0,0.26660099999992326
195,3,0.8,1.0,-35.0,-1,1.0,0.13390099999992344
196,3,0.8,1.0,-35.0,-1,1.0,0.26149999999995543
197,3,0.8,0.0625,35.0,-1,0.0,0.13469999999983884
198,3,0.8,0.125,-35.0,-1,1.0,0.2860999999999194
199,3,0.8,0.125,35.0,1,1.0,0.8034999999998718
200,3,0.8,0.0,-35.0,-1,1.0,0.43250000000000455
201,3,0.8,0.25,-35.0,-1,1.0,0.2155999999999949
202,3,0.8,0.0,-35.0,-1,1.0,0.26250100000004295
203,3,0.8,0.0625,-35.0,-1,1.0,0.24849999999992178
204,3,0.8,1.0,-35.0,-1,1.0,0.3491000000000213
205,3,0.8,0.125,-35.0,-1,1.0,0.33589999999992415
206,3,0.8,0.25,-35.0,-1,1.0,0.3955999999999449
207,3,0.8,0.25,-35.0,-1,1.0,0.38209999999992306
208,3,0.8,0.0625,-35.0,-1,1.0,0.2524999999999409
209,3,0.8,0.0,-35.0,-1,1.0,0.1327009999999973
210,3,0.8,1.0,-35.0,-1,1.0,0.24849999999992178
211,3,0.2,0.125,35.0,-1,0.0,0.38659999999981665
212,3,0.2,1.0,35.0,-1,0.0,0.24490099999991344
213,3,0.2,0.0625,35.0,1,1.0,2.5702009999999973
214,3,0.2,0.125,-35.0,-1,1.0,0.23349999999993543
215,3,0.2,1.0,35.0,1,1.0,0.41419999999993706
216,3,0.2,1.0,35.0,1,1.0,0.2901000000000522
217,3,0.2,0.0625,35.0,-1,0.0,0.183400000000006
218,3,0.2,1.0,35.0,1,1.0,0.43049999999993815
219,3,0.2,1.0,-35.0,-1,1.0,0.44839999999999236
220,3,0.2,0.0625,-35.0,-1,1.0,1.1544000000000096
221,3,0.2,1.0,35.0,1,1.0,0.3063999999999396
222,3,0.2,0.0,35.0,-1,0.0,0.311600999999996
223,3,0.2,1.0,35.0,1,1.0,0.32139999999992597
224,3,0.2,0.25,35.0,1,1.0,0.30979999999988195
225,3,0.2,0.0,35.0,-1,0.0,0.3303000000000793
226,3,0.2,0.25,35.0,1,1.0,0.23039999999991778
227,3,0.2,0.0,35.0,1,1.0,0.6453999999998814
228,3,0.2,0.0,35.0,-1,0.0,0.4089999999999918
229,3,0.2,0.0,35.0,1,1.0,1.4868999999998778
230,3,0.2,0.0625,35.0,1,1.0,0.591301000000044
231,3,0.2,0.0,35.0,-1,0.0,2.2635999999999967
232,3,0.2,0.125,-35.0,-1,1.0,0.5012000000000398
233,3,0.2,0.0625,35.0,1,1.0,0.4951009999999769
234,3,0.2,0.25,-35.0,-1,1.0,0.4395000000000664
235,3,0.2,0.0,35.0,1,1.0,0.4315999999998894
236,3,0.2,0.125,35.0,1,1.0,0.4478000000000293
237,3,0.2,0.125,35.0,1,1.0,0.22939999999994143
238,3,0.2,0.125,35.0,1,1.0,0.5367999999999711
239,3,0.2,0.125,-35.0,-1,1.0,0.31939999999997326
240,3,0.2,0.0,-35.0,-1,1.0,0.32969999999988886
241,3,0.2,0.0625,-35.0,-1,1.0,0.771300999999994
242,3,0.2,0.0,35.0,-1,0.0,0.3527000000000271
243,3,0.2,0.0,-35.0,-1,1.0,2.2962000000001126
244,3,0.2,0.0,-35.0,1,0.0,0.41229999999995925
245,3,0.2,0.0625,35.0,-1,0.0,0.46049999999991087
246,3,0.2,0.25,35.0,1,1.0,0.3933999999999287
247,3,0.2,0.0625,35.0,1,1.0,0.8805999999998448
248,3,0.2,0.25,35.0,1,1.0,0.3324999999999818
249,3,0.2,0.125,35.0,1,1.0,0.3272999999999229
250,3,0.2,0.0625,-35.0,-1,1.0,1.573099999999954
251,3,0.2,0.0,35.0,1,1.0,0.5508000000000948
252,3,0.2,0.0,35.0,-1,0.0,0.2563000000000102
253,3,0.2,0.125,35.0,1,1.0,0.7133000000000038
254,3,0.8,1.0,-35.0,-1,1.0,0.37970100000006823
255,3,0.8,0.0,-35.0,-1,1.0,0.38199999999994816
256,3,0.8,0.25,-35.0,-1,1.0,0.1994009999999662
257,3,0.8,0.25,-35.0,-1,1.0,0.3752999999999247
258,3,0.8,0.25,-35.0,-1,1.0,0.37429999999994834
259,3,0.8,0.0,-35.0,-1,1.0,0.7562999999998965
260,3,0.8,0.25,-35.0,-1,1.0,0.34219999999993433
261,3,0.8,0.25,-35.0,-1,1.0,0.3001999999999043
262,3,0.8,0.25,-35.0,-1,1.0,0.6021999999999252
263,3,0.8,1.0,-35.0,-1,1.0,0.17029999999988377
264,3,0.8,0.0,35.0,-1,0.0,2.725599999999986
265,3,0.8,0.0625,-35.0,-1,1.0,0.28680000000008476
266,3,0.8,0.125,-35.0,-1,1.0,0.22910000000001673
267,3,0.8,0.0625,-35.0,-1,1.0,0.28350000000000364
268,3,0.8,0.0,-35.0,-1,1.0,0.24939999999992324
269,3,0.8,0.0625,-35.0,-1,1.0,0.5371000000000095
270,3,0.8,0.0,-35.0,-1,1.0,0.7495000000001255
271,3,0.8,1.0,35.0,1,1.0,0.46420100000000275
272,3,0.8,1.0,-35.0,-1,1.0,0.47280000000000655
273,3,0.8,1.0,-35.0,-1,1.0,0.3672999999998865
274,3,0.8,0.125,-35.0,-1,1.0,0.9997000000000753
275,3,0.8,0.0625,35.0,1,1.0,0.4274000000000342
276,3,0.8,0.0625,-35.0,-1,1.0,0.38009999999985666
277,3,0.8,0.0625,-35.0,-1,1.0,0.3108999999999469
278,3,0.8,0.25,35.0,-1,0.0,0.13019999999983156
279,3,0.8,0.0,-35.0,-1,1.0,0.3844000000001415
280,3,0.8,0.25,35.0,1,1.0,0.3668999999999869
281,3,0.8,0.0,-35.0,-1,1.0,0.6779999999998836
282,3,0.8,0.0,-35.0,-1,1.0,0.24360000000001492
283,3,0.8,1.0,-35.0,-1,1.0,1.184500000000071
284,3,0.8,0.125,-35.0,-1,1.0,0.4036999999998443
285,3,0.8,0.0625,-35.0,1,0.0,0.2747999999999138
286,3,0.8,0.0625,-35.0,1,0.0,0.22070000000007894
287,3,0.8,1.0,-35.0,-1,1.0,0.3118000000001757
288,3,0.8,0.125,-35.0,-1,1.0,0.3675010000001748
289,3,0.2,1.0,35.0,1,1.0,0.4318999999998141
290,3,0.2,0.125,-35.0,-1,1.0,0.30419999999980973
291,3,0.2,0.25,-35.0,-1,1.0,0.38839999999981956
292,3,0.2,1.0,35.0,1,1.0,0.7275999999999385
293,3,0.2,1.0,35.0,1,1.0,0.2721000000001368
294,3,0.2,0.0,35.0,1,1.0,0.9244999999998527
295,3,0.2,1.0,35.0,1,1.0,0.5322009999999864
296,3,0.2,0.25,35.0,1,1.0,0.544601000000057
297,3,0.2,1.0,35.0,1,1.0,0.35609999999996944
298,3,0.2,0.25,-35.0,-1,1.0,0.4147000000000389
299,3,0.2,0.125,35.0,1,1.0,0.552599999999984
300,3,0.2,0.0,35.0,-1,0.0,0.2981999999999516
301,3,0.2,1.0,-35.0,-1,1.0,0.26260099999990416
302,3,0.2,0.125,35.0,1,1.0,0.27510000000006585
303,3,0.2,0.125,35.0,1,1.0,0.22590100000002167
304,3,0.2,1.0,35.0,1,1.0,0.3950999999999567
305,3,0.2,1.0,35.0,1,1.0,0.19010100000014063
306,3,0.2,0.0625,35.0,-1,0.0,0.2519999999999527
307,3,0.2,0.0,35.0,-1,0.0,0.9166999999999916
308,3,0.2,0.25,35.0,1,1.0,0.42230099999983395
309,3,0.2,1.0,35.0,1,1.0,0.20650000000000546
310,3,0.2,0.0625,35.0,-1,0.0,1.5061009999997168
311,3,0.2,0.25,35.0,1,1.0,0.26329999999984466
312,3,0.2,0.0,35.0,-1,0.0,0.5258009999997739
313,3,0.2,0.0625,35.0,1,1.0,0.3970999999999094
314,3,0.2,0.125,35.0,1,1.0,0.3390999999999167
315,3,0.2,0.125,35.0,1,1.0,1.8540999999997894
316,3,0.2,0.125,35.0,1,1.0,0.3125999999999749
317,3,0.2,0.0625,35.0,1,1.0,2.6739000000000033
318,3,0.2,0.125,-35.0,-1,1.0,0.41609999999991487
319,3,0.2,0.25,35.0,1,1.0,0.5704009999999471
320,3,0.2,1.0,35.0,1,1.0,0.29959999999982756
321,3,0.2,0.0625,35.0,1,1.0,0.2873010000000704
322,3,0.2,0.125,35.0,-1,0.0,0.3664000000001124
323,3,0.2,0.0,35.0,1,1.0,0.45420100000001185
324,3,0.2,0.0625,35.0,1,1.0,0.4432999999999083
325,3,0.2,0.125,35.0,1,1.0,0.17460000000005493
326,3,0.2,0.0,35.0,1,1.0,0.42020000000002256
327,3,0.2,0.25,35.0,1,1.0,0.46780100000000857
328,3,0.2,0.0,35.0,-1,0.0,0.46349999999983993
329,3,0.2,0.0625,35.0,1,1.0,0.4579999999998563
330,3,0.2,1.0,35.0,1,1.0,0.3002999999998792
331,3,0.2,0.25,-35.0,-1,1.0,0.3249999999998181
332,3,0.8,0.0625,-35.0,-1,1.0,0.33049999999980173
333,3,0.8,0.25,-35.0,-1,1.0,1.7713999999998578
334,3,0.8,1.0,-35.0,-1,1.0,0.2539999999999054
335,3,0.8,0.0625,-35.0,-1,1.0,0.25500099999999293
336,3,0.8,0.125,-35.0,-1,1.0,0.2807000000000244
337,3,0.8,0.125,35.0,1,1.0,0.16840000000001965
338,3,0.8,1.0,35.0,1,1.0,0.39760099999989507
339,3,0.8,1.0,-35.0,-1,1.0,0.48900000000003274
340,3,0.8,0.25,-35.0,-1,1.0,0.4742999999998574
341,3,0.8,0.0,-35.0,-1,1.0,0.8951999999999316
342,3,0.8,0.0625,-35.0,-1,1.0,0.3244009999998525
343,3,0.8,0.0,-35.0,1,0.0,0.38570099999992635
344,3,0.8,0.25,35.0,1,1.0,0.12799999999992906
345,3,0.8,1.0,-35.0,-1,1.0,0.7548009999998158
346,3,0.8,1.0,-35.0,-1,1.0,0.465900000000147
347,3,0.8,0.0,35.0,-1,0.0,3.954899999999725
348,3,0.8,0.125,-35.0,-1,1.0,2.20270000000005
349,3,0.8,0.0,-35.0,-1,1.0,0.30189999999993233
350,3,0.8,0.0,-35.0,-1,1.0,0.2527010000001155
351,3,0.8,0.0625,-35.0,-1,1.0,0.3385009999999511
352,3,0.8,0.0625,-35.0,-1,1.0,0.3163999999999305
353,3,0.8,0.25,-35.0,-1,1.0,5.041999999999916
354,3,0.8,0.0,-35.0,-1,1.0,1.1869000000001506
355,3,0.8,0.25,-35.0,-1,1.0,0.2956000000001495
356,3,0.8,0.0625,-35.0,-1,1.0,0.5698999999999614
357,3,0.8,0.0625,-35.0,-1,1.0,0.3124009999999089
358,3,0.8,0.125,-35.0,-1,1.0,0.29389999999989413
359,3,0.8,0.125,-35.0,-1,1.0,1.8692999999998392
360,3,0.8,0.125,-35.0,-1,1.0,0.4509009999999307
361,3,0.8,1.0,-35.0,-1,1.0,0.3027999999997064
362,3,0.8,1.0,-35.0,-1,1.0,0.29369999999994434
363,3,0.8,0.125,35.0,-1,0.0,0.18609999999989668
364,3,0.8,0.0625,-35.0,-1,1.0,0.26749999999992724
365,3,0.8,0.0625,-35.0,-1,1.0,0.36320100000011735
366,3,0.8,0.25,-35.0,-1,1.0,0.5177999999998519
367,3,0.8,1.0,-35.0,-1,1.0,0.19980000000009568
368,3,0.8,0.0625,-35.0,-1,1.0,0.2579009999999471
369,3,0.8,0.125,-35.0,-1,1.0,0.43679999999994834
370,3,0.8,0.0625,35.0,1,1.0,0.354799999999841
371,3,0.8,0.0625,-35.0,-1,1.0,0.4370010000000093
372,3,0.8,0.0,-35.0,-1,1.0,0.5279009999999289
373,3,0.8,0.125,-35.0,-1,1.0,0.3704999999999927
374,3,0.8,0.25,-35.0,-1,1.0,2.2157999999999447
375,3,0.8,0.0625,-35.0,-1,1.0,0.47060099999998783
376,3,0.8,1.0,-35.0,-1,1.0,0.3783000000000811
377,3,0.8,0.0625,35.0,1,1.0,0.3772999999998774
378,3,0.8,0.0,35.0,-1,0.0,1.2152000000000953
379,3,0.8,1.0,-35.0,-1,1.0,0.31739999999990687
380,3,0.8,0.125,-35.0,-1,1.0,0.2919999999999163
381,3,0.8,0.125,35.0,1,1.0,0.36419999999998254
382,3,0.8,1.0,-35.0,-1,1.0,0.2852999999997792
383,3,0.8,0.25,35.0,-1,0.0,0.25469999999995707
384,3,0.8,0.25,35.0,1,1.0,0.3788999999999305
385,3,0.8,0.25,-35.0,-1,1.0,0.14449999999987995
386,3,0.8,0.0,-35.0,-1,1.0,0.5957000000000789
387,3,0.8,0.125,-35.0,-1,1.0,3.861300999999912
388,3,0.8,0.0,-35.0,-1,1.0,0.2757000000001426
389,3,0.8,0.125,-35.0,-1,1.0,0.23479999999995016
390,3,0.8,0.25,-35.0,-1,1.0,0.43250000000011823
391,3,0.8,0.0625,-35.0,-1,1.0,0.43820099999993545
392,3,0.8,0.0,-35.0,-1,1.0,0.49920099999985723
393,3,0.8,0.125,-35.0,-1,1.0,0.2617999999999938
394,3,0.8,0.0625,-35.0,-1,1.0,0.3431000000000495
395,3,0.8,0.0,-35.0,-1,1.0,0.21529999999984284
396,3,0.8,0.0625,-35.0,-1,1.0,0.3298010000000886
397,3,0.8,0.0625,35.0,1,1.0,0.9720999999997275
398,3,0.8,0.0625,-35.0,-1,1.0,0.3129999999998745
399,3,0.8,0.125,-35.0,-1,1.0,0.3656999999998334
400,3,0.8,0.0625,35.0,1,1.0,0.6800009999997201
401,3,0.8,1.0,-35.0,-1,1.0,0.3526999999999134
402,3,0.8,0.125,-35.0,-1,1.0,0.30379999999991014
403,3,0.8,0.25,-35.0,-1,1.0,3.1259000000000015
404,3,0.8,1.0,-35.0,-1,1.0,0.3469000000000051
405,3,0.8,0.25,-35.0,-1,1.0,0.2860000000000582
406,3,0.8,0.0,-35.0,-1,1.0,2.2971000000002277
407,3,0.8,0.0625,-35.0,-1,1.0,0.24969999999984793
408,3,0.8,1.0,-35.0,-1,1.0,0.41390099999989616
409,3,0.8,0.0,-35.0,-1,1.0,0.8930009999999129
410,3,0.8,0.25,-35.0,1,0.0,0.2507999999997992
411,3,0.8,0.25,-35.0,-1,1.0,0.4330999999999676
412,3,0.8,0.25,35.0,1,1.0,0.2677000000001044
413,3,0.8,0.25,-35.0,-1,1.0,0.36360000000013315
414,3,0.8,0.0,-35.0,1,0.0,0.5210999999999331
415,3,0.8,0.0,-35.0,1,0.0,0.37009999999986576
416,3,0.8,1.0,-35.0,-1,1.0,0.35130100000014863
417,3,0.8,1.0,-35.0,-1,1.0,0.1471000000001368
418,3,0.8,0.0625,-35.0,-1,1.0,0.2746999999999389
419,3,0.8,1.0,-35.0,-1,1.0,0.30379999999991014
420,3,0.8,0.25,-35.0,-1,1.0,0.36159999999995307
421,3,0.8,1.0,-35.0,-1,1.0,0.7306999999998425
422,3,0.2,1.0,35.0,1,1.0,0.3952009999998154
423,3,0.2,0.0,35.0,1,1.0,0.5075999999999112
424,3,0.2,0.25,35.0,1,1.0,0.35859999999979664
425,3,0.2,0.0,-35.0,1,0.0,0.3244999999999436
426,3,0.2,0.0,35.0,1,1.0,0.3755999999998494
427,3,0.2,0.125,35.0,1,1.0,0.4211999999999989
428,3,0.2,0.0625,35.0,1,1.0,0.44220000000018445
429,3,0.2,0.25,35.0,1,1.0,0.26460100000008424
430,3,0.2,0.25,35.0,1,1.0,0.4557999999999538
431,3,0.2,0.0625,35.0,1,1.0,1.5648009999999886
432,3,0.2,0.0,35.0,1,1.0,1.9194000000002234
433,3,0.2,0.125,35.0,1,1.0,0.44849999999996726
434,3,0.2,0.0,35.0,1,1.0,2.1096000000000004
435,3,0.2,0.25,-35.0,-1,1.0,0.4151009999998223
436,3,0.2,0.125,35.0,1,1.0,0.5697999999997592
437,3,0.2,1.0,-35.0,-1,1.0,0.2920009999998001
438,3,0.2,1.0,35.0,1,1.0,0.3530000000000655
439,3,0.2,0.0,35.0,1,1.0,2.31880000000001
440,3,0.2,0.0,35.0,1,1.0,4.909799999999905
441,3,0.2,0.0625,35.0,1,1.0,0.33549999999991087
442,3,0.2,1.0,-35.0,-1,1.0,0.3268000000000484
443,3,0.2,0.25,35.0,1,1.0,0.3125999999999749
444,3,0.2,0.125,35.0,1,1.0,0.3467000000000553
445,3,0.2,0.25,-35.0,-1,1.0,0.40249999999991815
446,3,0.2,0.25,-35.0,1,0.0,0.2975010000000111
447,3,0.2,0.0,35.0,1,1.0,1.8126999999997224
448,3,0.2,0.25,35.0,1,1.0,0.35720000000014807
449,3,0.2,0.0,35.0,-1,0.0,3.1028000000001157
450,3,0.2,0.0625,35.0,-1,0.0,0.7074999999999818
451,3,0.2,0.0625,35.0,1,1.0,0.47649999999998727
452,3,0.2,0.0625,-35.0,1,0.0,0.2475000000001728
453,3,0.2,0.125,35.0,1,1.0,0.3265999999998712
454,3,0.2,0.25,-35.0,-1,1.0,0.767699999999877
455,3,0.2,0.125,35.0,1,1.0,0.490099999999984
456,3,0.2,0.125,35.0,1,1.0,0.34110100000020793
457,3,0.2,1.0,35.0,1,1.0,0.3968999999999596
458,3,0.2,1.0,35.0,1,1.0,0.4113999999999578
459,3,0.2,0.125,35.0,1,1.0,0.3369999999999891
460,3,0.2,0.0,35.0,1,1.0,0.1512009999999009
461,3,0.2,1.0,35.0,1,1.0,0.35059999999975844
462,3,0.2,0.0,-35.0,-1,1.0,0.17170099999998456
463,3,0.2,1.0,35.0,1,1.0,0.4539999999999509
464,3,0.2,0.25,35.0,1,1.0,0.3714999999999691
465,3,0.2,0.0,35.0,-1,0.0,0.3041000000000622
466,3,0.2,0.125,35.0,-1,0.0,0.3083999999998923
467,3,0.2,0.0,35.0,-1,0.0,2.00429999999983
468,3,0.2,0.25,35.0,1,1.0,0.5052999999998065
469,3,0.2,0.25,35.0,1,1.0,0.4580000000000837
470,3,0.2,1.0,35.0,1,1.0,0.38570000000004256
471,3,0.2,0.25,35.0,1,1.0,0.3446999999998752
472,3,0.2,0.0,35.0,-1,0.0,6.129400000000032
473,3,0.2,0.25,35.0,1,1.0,0.9184999999999945
474,3,0.2,0.0,-35.0,-1,1.0,0.7394000000001597
475,3,0.2,0.125,35.0,1,1.0,0.3684000000000651
476,3,0.2,1.0,35.0,1,1.0,0.23949999999990723
477,3,0.2,0.125,35.0,-1,0.0,5.615299999999934
478,3,0.2,0.0,35.0,-1,0.0,1.28650000000016
479,3,0.2,1.0,35.0,1,1.0,0.33569999999986067
480,3,0.2,0.25,35.0,1,1.0,0.35969999999997526
481,3,0.2,0.125,35.0,1,1.0,5.1090999999998985
482,3,0.2,1.0,35.0,1,1.0,0.4800999999997657
483,3,0.8,0.125,-35.0,-1,1.0,0.5225010000001475
484,3,0.8,0.125,35.0,1,1.0,0.15039999999999054
485,3,0.8,0.0625,-35.0,-1,1.0,0.5627999999999247
486,3,0.8,0.0625,-35.0,-1,1.0,0.4871010000001661
487,3,0.8,0.0625,-35.0,-1,1.0,0.49949999999989814
488,3,0.8,0.125,-35.0,-1,1.0,0.7205000000001291
489,3,0.8,0.125,-35.0,-1,1.0,0.4496999999998934
490,3,0.8,0.0625,35.0,-1,0.0,0.4673999999999978
491,3,0.8,0.0625,-35.0,-1,1.0,0.5098000000000411
492,3,0.8,0.0,-35.0,-1,1.0,0.3443999999999505
493,3,0.8,0.0,-35.0,-1,1.0,0.6333000000001903
494,3,0.8,0.0,-35.0,-1,1.0,0.3840999999997621
495,3,0.8,0.125,35.0,-1,0.0,0.4432999999999083
496,3,0.8,0.0625,-35.0,-1,1.0,0.27769999999986794
497,3,0.8,0.125,-35.0,-1,1.0,2.1435010000000148
498,3,0.8,0.125,-35.0,-1,1.0,0.49499999999989086
499,3,0.8,0.125,-35.0,-1,1.0,0.48689999999987776
500,3,0.8,1.0,-35.0,-1,1.0,0.39459999999985484
501,3,0.8,1.0,35.0,1,1.0,0.5773000000001502
502,3,0.8,0.0625,-35.0,-1,1.0,0.5516999999997552
503,3,0.8,1.0,-35.0,-1,1.0,0.36389999999983047
504,3,0.8,0.125,-35.0,-1,1.0,0.525300000000243
505,3,0.8,1.0,-35.0,-1,1.0,3.6574999999998
506,3,0.8,0.25,-35.0,-1,1.0,0.5583999999998923
507,3,0.8,0.25,35.0,1,1.0,0.8110000000001492
508,3,0.8,0.125,-35.0,-1,1.0,0.7625010000001566
509,3,0.8,1.0,-35.0,-1,1.0,0.44130000000041036
510,3,0.8,0.25,-35.0,-1,1.0,0.5423000000000684
511,3,0.8,0.0,35.0,-1,0.0,0.7445000000002437
512,3,0.8,0.0,-35.0,-1,1.0,8.33580000000029
513,3,0.8,0.25,35.0,1,1.0,0.27830000000039945
514,3,0.8,1.0,-35.0,-1,1.0,0.33590000000003783
515,3,0.8,1.0,-35.0,-1,1.0,0.36500000000023647
516,3,0.8,0.125,-35.0,-1,1.0,0.6125999999999294
517,3,0.8,1.0,35.0,1,1.0,0.2519000000002052
518,3,0.8,0.0625,-35.0,-1,1.0,0.3629000000000815
519,3,0.8,0.0625,-35.0,-1,1.0,0.1823000000003958
520,3,0.8,0.25,35.0,1,1.0,2.989900000000034
521,3,0.8,0.0625,35.0,-1,0.0,0.24220100000002276
522,3,0.8,1.0,-35.0,-1,1.0,0.40970000000015716
523,3,0.8,1.0,-35.0,-1,1.0,0.402299999999741
524,3,0.8,0.125,-35.0,-1,1.0,0.3602000000000771
525,3,0.8,0.125,-35.0,-1,1.0,0.3292010000004666
526,3,0.8,1.0,-35.0,-1,1.0,0.28910100000075545
527,3,0.8,0.25,-35.0,-1,1.0,1.8606000000004315
528,3,0.8,0.0,-35.0,-1,1.0,0.3362000000001899
529,3,0.8,1.0,-35.0,-1,1.0,0.3836000000005697
530,3,0.8,0.25,-35.0,-1,1.0,0.3362000000001899
531,3,0.8,0.25,35.0,1,1.0,0.40730100000018865
532,3,0.8,0.0625,35.0,-1,0.0,0.18960000000015498
533,3,0.8,0.25,-35.0,-1,1.0,0.3841000000002168
534,3,0.8,0.0,35.0,-1,0.0,0.6064000000001215
535,3,0.8,1.0,-35.0,-1,1.0,0.2842009999999391
536,3,0.8,0.0,-35.0,-1,1.0,0.4198999999998705
537,3,0.8,1.0,-35.0,-1,1.0,0.41420000000016444
538,3,0.8,0.0625,-35.0,-1,1.0,2.296700000000328
539,3,0.8,0.25,35.0,1,1.0,2.4712009999998372
540,3,0.8,0.0625,-35.0,-1,1.0,0.2903010000004542
541,3,0.8,0.25,-35.0,-1,1.0,0.398000000000593
542,3,0.8,0.0625,-35.0,-1,1.0,0.32030100000019956
543,3,0.8,0.125,-35.0,-1,1.0,0.9852000000000771
544,3,0.8,0.125,-35.0,-1,1.0,0.6372000000001208
545,3,0.8,0.0625,-35.0,-1,1.0,2.2620999999999185
546,3,0.8,0.0,-35.0,-1,1.0,0.3874000000000706
547,3,0.8,0.0625,-35.0,-1,1.0,0.4992000000002008
548,3,0.8,1.0,-35.0,-1,1.0,0.2909010000003036
549,3,0.8,0.0,-35.0,-1,1.0,1.7161000000000968
550,3,0.8,0.25,-35.0,-1,1.0,0.3787000000002081
551,3,0.8,1.0,-35.0,-1,1.0,0.4412000000002081
552,3,0.8,0.0625,35.0,1,1.0,0.6255000000005566
553,3,0.8,1.0,-35.0,-1,1.0,2.7812000000003536
554,3,0.8,0.125,-35.0,-1,1.0,0.3155010000000402
555,3,0.8,0.0,35.0,-1,0.0,0.6182000000003427
556,3,0.8,0.125,-35.0,-1,1.0,0.5862000000001899
557,3,0.8,0.0,-35.0,-1,1.0,0.5551000000000386
558,3,0.8,0.0625,35.0,1,1.0,0.5231000000003405
559,3,0.8,0.125,-35.0,-1,1.0,0.58199999999988
560,3,0.8,0.25,35.0,1,1.0,0.4230000000002292
561,3,0.8,0.125,35.0,1,1.0,0.275300000000243
562,3,0.8,0.25,35.0,1,1.0,0.26030000000037035
563,3,0.8,0.0625,-35.0,-1,1.0,0.3721000000005006
564,3,0.8,0.125,-35.0,-1,1.0,0.8701009999999769
565,3,0.8,0.0,35.0,1,1.0,1.0857010000004266
566,3,0.8,0.25,-35.0,-1,1.0,0.26650100000006205
567,3,0.8,0.0625,-35.0,-1,1.0,1.0258000000003449
568,3,0.8,1.0,-35.0,-1,1.0,0.6101000000003296
569,3,0.8,0.25,-35.0,-1,1.0,0.4760000000005675
570,3,0.8,0.0,-35.0,1,0.0,0.47710000000006403
571,3,0.8,0.0625,-35.0,-1,1.0,0.3528000000001157
572,3,0.8,0.0625,-35.0,-1,1.0,0.4972000000002481
573,3,0.8,0.25,-35.0,-1,1.0,0.4396000000006097
574,3,0.8,0.125,35.0,1,1.0,0.28110000000015134
575,3,0.8,1.0,-35.0,-1,1.0,1.599699999999757
576,3,0.8,0.0625,-35.0,-1,1.0,1.2442000000000917
577,3,0.8,0.0,-35.0,-1,1.0,1.1700000000000728
578,3,0.8,0.125,-35.0,-1,1.0,0.41740100000015445
579,3,0.8,0.0,-35.0,-1,1.0,0.2569000000003143
580,3,0.2,0.125,35.0,1,1.0,0.2578000000003158
581,3,0.2,0.125,35.0,1,1.0,0.4234000000001288
582,3,0.2,0.125,35.0,1,1.0,0.7718000000004395
583,3,0.2,0.25,35.0,-1,0.0,0.6704000000004271
584,3,0.2,0.0625,35.0,1,1.0,0.4020010000003822
585,3,0.2,0.125,35.0,1,1.0,0.3510000000005675
586,3,0.2,1.0,35.0,1,1.0,0.4216000000005806
587,3,0.2,0.0,-35.0,-1,1.0,2.0574000000001433
588,3,0.2,0.25,35.0,1,1.0,0.46520000000055006
589,3,0.2,0.0,35.0,-1,0.0,5.22440000000006
590,3,0.2,1.0,35.0,1,1.0,0.2655000000004293
591,3,0.2,1.0,35.0,1,1.0,0.32799999999997453
592,3,0.2,0.125,35.0,1,1.0,0.4556999999999789
593,3,0.2,0.0,-35.0,1,0.0,1.2080000000000837
594,3,0.2,0.125,35.0,1,1.0,0.39600000000018554
595,3,0.2,0.125,35.0,1,1.0,0.5882000000001426
596,3,0.2,0.0625,-35.0,-1,1.0,0.8730000000000473
597,3,0.2,0.125,-35.0,-1,1.0,0.4319000000004962
598,3,0.2,0.0625,35.0,1,1.0,0.5399999999999636
599,3,0.2,0.0625,35.0,-1,0.0,0.9651000000003478
600,3,0.2,1.0,-35.0,-1,1.0,0.24610000000029686
601,3,0.2,0.0,35.0,1,1.0,0.765400000000227
602,3,0.2,0.0625,35.0,-1,0.0,0.5298000000002503
603,3,0.2,0.0,35.0,-1,0.0,0.35210000000006403
604,3,0.2,0.25,35.0,1,1.0,0.3199010000003
605,3,0.2,0.125,-35.0,-1,1.0,0.3390010000007351
606,3,0.2,1.0,35.0,1,1.0,0.34320000000025175
607,3,0.2,0.25,-35.0,-1,1.0,2.735900000000129
608,3,0.2,0.25,35.0,1,1.0,0.30999999999994543
609,3,0.2,0.125,35.0,1,1.0,0.24290000000019063
610,3,0.2,0.0625,35.0,1,1.0,0.5237000000001899
611,3,0.2,0.125,35.0,1,1.0,0.5163000000002285
612,3,0.2,0.0625,35.0,1,1.0,0.4870000000005348
613,3,0.2,0.25,-35.0,-1,1.0,0.452900000000227
614,3,0.2,0.25,35.0,1,1.0,0.43739999999979773
615,3,0.2,0.125,35.0,-1,0.0,0.18990000000030705
616,3,0.2,0.25,35.0,1,1.0,0.45080000000007203
617,3,0.2,0.125,35.0,1,1.0,0.43990100000019083
618,3,0.2,1.0,35.0,1,1.0,1.0109000000002197
619,3,0.2,0.25,35.0,1,1.0,0.3133000000007087
620,3,0.2,1.0,35.0,1,1.0,0.25790000000051805
621,3,0.2,0.25,35.0,1,1.0,0.406800000000203
622,3,0.2,0.0625,35.0,1,1.0,2.2880009999998947
623,3,0.2,0.0,35.0,1,1.0,0.396900000000187
624,3,0.2,0.25,35.0,1,1.0,0.2979000000000269
625,3,0.2,0.25,35.0,1,1.0,0.5371000000000095
626,3,0.2,1.0,35.0,1,1.0,0.37820000000010623
627,3,0.2,1.0,35.0,1,1.0,0.3237999999996646
628,3,0.2,0.0625,-35.0,-1,1.0,0.5449000000003252
629,3,0.2,1.0,-35.0,-1,1.0,0.3540000000002692
630,3,0.2,0.125,35.0,1,1.0,0.281800000000203
631,3,0.2,0.0625,35.0,1,1.0,0.37090000000034706
632,3,0.2,0.25,35.0,1,1.0,0.27579999999989013
633,3,0.2,0.0625,35.0,-1,0.0,0.9510000000004766
634,3,0.2,0.25,35.0,1,1.0,0.2721000000001368
635,3,0.2,0.25,35.0,1,1.0,0.49490000000014334
636,3,0.2,0.0625,35.0,-1,0.0,4.152100000000246
637,3,0.2,0.125,-35.0,-1,1.0,0.33480000000054133
638,3,0.2,0.125,35.0,1,1.0,0.3025000000006912
639,3,0.2,0.25,35.0,1,1.0,0.27149999999983265
640,3,0.2,0.25,-35.0,-1,1.0,0.3425000000002001
641,3,0.2,0.25,35.0,1,1.0,0.33179999999993015
642,3,0.2,1.0,-35.0,-1,1.0,0.2930999999998676
643,3,0.2,0.125,35.0,1,1.0,0.3619000000003325
644,3,0.2,0.0,35.0,-1,0.0,0.9060000000004038
645,3,0.2,0.125,35.0,1,1.0,0.4553000000000793
646,3,0.2,1.0,35.0,1,1.0,0.2863000000002103
647,3,0.2,0.125,-35.0,-1,1.0,0.3022000000000844
648,3,0.2,1.0,35.0,1,1.0,2.659900000000107
649,3,0.2,1.0,35.0,1,1.0,0.3389999999999418
650,3,0.2,0.25,35.0,1,1.0,0.3467000000000553
651,3,0.2,0.0625,35.0,1,1.0,0.23580000000038126
652,3,0.2,0.0625,-35.0,1,0.0,1.976799999999912
653,3,0.2,1.0,35.0,1,1.0,0.5928000000003522
654,3,0.2,1.0,35.0,1,1.0,0.35079999999970823
655,3,0.2,0.125,35.0,1,1.0,0.39960000000019136
656,3,0.2,0.125,35.0,1,1.0,0.4307000000003427
657,3,0.2,1.0,35.0,1,1.0,0.6798000000003412
658,3,0.2,0.0,-35.0,-1,1.0,0.7208000000000538
659,3,0.2,0.0625,35.0,1,1.0,0.3330010000004222
660,3,0.2,0.25,35.0,1,1.0,0.35740000000032524
661,3,0.2,0.25,35.0,1,1.0,0.8032000000007429
662,3,0.8,0.125,-35.0,-1,1.0,1.6607000000003609
663,3,0.8,0.25,-35.0,-1,1.0,0.6501000000002932
664,3,0.8,0.25,-35.0,-1,1.0,0.5478000000002794
665,3,0.8,0.0,35.0,1,1.0,3.06020000000035
666,3,0.8,1.0,-35.0,-1,1.0,0.38130000000046493
667,3,0.8,1.0,-35.0,1,0.0,0.15390000000024884
668,3,0.8,0.0625,-35.0,1,0.0,0.22470000000021173
669,3,0.8,0.125,-35.0,-1,1.0,0.5640000000003056
670,3,0.8,0.0625,-35.0,-1,1.0,0.35190000000011423
671,3,0.8,0.25,35.0,1,1.0,0.4276999999997315
672,3,0.8,0.25,-35.0,-1,1.0,0.3220000000001164
673,3,0.8,0.25,-35.0,-1,1.0,0.36080000000038126
674,3,0.8,0.125,-35.0,-1,1.0,0.682100000000446
675,3,0.8,0.0625,35.0,-1,0.0,3.2708999999999833
676,3,0.8,0.25,35.0,1,1.0,0.32209999999986394
677,3,0.8,0.125,-35.0,-1,1.0,0.2979000000000269
678,3,0.8,0.125,-35.0,-1,1.0,0.6087999999999738
679,3,0.8,0.125,-35.0,-1,1.0,0.45479999999997744
680,3,0.8,0.25,35.0,1,1.0,0.26250100000015664
681,3,0.8,0.0625,-35.0,-1,1.0,0.49150000000054206
682,3,0.8,1.0,-35.0,-1,1.0,0.29240000000027067
683,3,0.8,0.0,-35.0,-1,1.0,0.34169999999994616
684,3,0.8,0.0625,35.0,-1,0.0,0.5327000000006592
685,3,0.8,0.25,-35.0,-1,1.0,0.27500000000009095
686,3,0.8,0.25,-35.0,-1,1.0,1.6230000000000473
687,3,0.8,0.0625,-35.0,-1,1.0,0.31179999999994834
688,3,0.8,0.125,35.0,-1,0.0,0.5363999999999578
689,3,0.8,0.25,-35.0,-1,1.0,4.155500000000302
690,3,0.8,0.25,-35.0,-1,1.0,0.5132999999996173
691,3,0.8,0.125,-35.0,-1,1.0,0.5656000000003587
692,3,0.8,0.25,-35.0,-1,1.0,0.4833000000003267
693,3,0.8,0.25,-35.0,-1,1.0,0.28250000000025466
694,3,0.8,1.0,-35.0,-1,1.0,0.3837009999997463
695,3,0.8,0.25,35.0,1,1.0,0.4026000000003478
696,3,0.8,0.125,-35.0,-1,1.0,1.1936000000005151
697,3,0.8,1.0,35.0,1,1.0,0.5126999999997679
698,3,0.8,0.125,-35.0,-1,1.0,0.5167999999998756
699,3,0.8,1.0,-35.0,-1,1.0,0.18960100000003877
700,3,0.8,0.25,-35.0,-1,1.0,0.47730000000046857
701,3,0.8,0.25,35.0,-1,0.0,0.27959999999984575
702,3,0.8,0.25,-35.0,-1,1.0,0.41069999999990614
703,3,0.8,0.0625,-35.0,-1,1.0,0.48660000000018044
704,3,0.8,1.0,35.0,1,1.0,0.3275000000003274
705,3,0.8,0.25,35.0,1,1.0,0.493300999999974
706,3,0.8,0.125,-35.0,-1,1.0,0.27810100000033344
707,3,0.8,0.0625,-35.0,-1,1.0,0.6835999999998421
708,3,0.8,1.0,-35.0,-1,1.0,0.30800000000044747
709,3,0.8,0.25,-35.0,-1,1.0,0.49060000000008586
710,3,0.8,0.0,35.0,-1,0.0,0.3280000000004293
711,3,0.8,1.0,-35.0,-1,1.0,0.3670000000001892
712,3,0.8,0.125,-35.0,-1,1.0,0.438600000000406
713,3,0.8,0.0625,-35.0,-1,1.0,0.6806000000005952
714,3,0.8,0.25,-35.0,-1,1.0,0.285001000000193
715,3,0.8,0.125,-35.0,-1,1.0,0.32400000000052387
716,3,0.8,0.125,-35.0,-1,1.0,0.768800000000283
717,3,0.8,0.125,-35.0,-1,1.0,0.36779999999998836
718,3,0.8,0.0,-35.0,-1,1.0,0.3786000000000058
719,3,0.8,0.0625,-35.0,-1,1.0,1.004399999999805
720,3,0.8,0.25,-35.0,-1,1.0,0.36540000000013606
721,3,0.8,1.0,-35.0,-1,1.0,0.5611000000003514
722,3,0.8,0.0625,35.0,-1,0.0,3.0489000000002306
723,3,0.8,0.125,35.0,-1,0.0,0.5982000000003609
724,3,0.8,0.125,-35.0,-1,1.0,0.29260000000022046
725,3,0.8,0.0,-35.0,-1,1.0,6.488500999999815
726,3,0.8,0.125,-35.0,-1,1.0,0.43950100000029124
727,3,0.8,0.125,-35.0,-1,1.0,0.751901000000089
728,3,0.8,0.125,35.0,1,1.0,0.6064000000005763
729,3,0.8,0.0625,-35.0,-1,1.0,0.48220000000037544
730,3,0.8,0.125,-35.0,-1,1.0,0.5096000000003187
731,3,0.8,0.0,-35.0,1,0.0,5.465501000000586
732,3,0.8,0.125,-35.0,-1,1.0,0.586500000000342
733,3,0.8,0.125,35.0,1,1.0,0.5225000000000364
734,3,0.2,0.125,35.0,1,1.0,0.496700000000601
735,3,0.2,0.125,35.0,1,1.0,0.27939999999989595
736,3,0.2,0.0,35.0,-1,0.0,8.640499999999975
737,3,0.2,0.0,35.0,-1,0.0,7.746400000000449
738,3,0.2,1.0,35.0,1,1.0,0.35750000000007276
739,3,0.2,1.0,-35.0,-1,1.0,0.3400000000001455
740,3,0.2,0.0,35.0,-1,0.0,0.917801000000054
741,3,0.2,0.0,-35.0,-1,1.0,2.4902000000001863
742,3,0.2,1.0,-35.0,-1,1.0,0.4343000000003485
743,3,0.2,0.0,35.0,-1,0.0,7.086899999999787
744,3,0.2,0.0,-35.0,1,0.0,0.9479000000005726
745,3,0.2,0.25,35.0,1,1.0,0.36740000000008877
746,3,0.2,0.0625,35.0,1,1.0,0.45140100000025996
747,3,0.2,1.0,35.0,1,1.0,0.3874000000000706
748,3,0.2,0.125,35.0,1,1.0,0.24510000000009313
749,3,0.2,0.0625,-35.0,-1,1.0,2.5875000000005457
750,3,0.2,0.0625,35.0,1,1.0,4.39850000000024
751,3,0.2,0.25,35.0,1,1.0,1.3044000000004417
752,3,0.2,0.0,35.0,1,1.0,2.8622000000004846
753,3,0.2,0.0625,35.0,-1,0.0,0.7680000000000291
