trial_num,session_num,stim_probability_left,contrast,position,response_choice,trial_correct,reaction_time
1,1,0.5,0.125,35.0,1,1.0,0.5446
2,1,0.5,0.0,35.0,-1,0.0,0.125
3,1,0.5,0.25,-35.0,-1,1.0,0.3815010000000001
4,1,0.5,0.125,35.0,1,1.0,0.610000000000003
5,1,0.5,0.0,-35.0,-1,1.0,0.7568999999999981
6,1,0.5,0.125,-35.0,-1,1.0,0.40240000000000364
7,1,0.5,0.0625,35.0,1,1.0,0.23400000000000176
8,1,0.5,0.25,-35.0,-1,1.0,0.5460999999999991
9,1,0.5,1.0,-35.0,-1,1.0,0.29690000000000083
10,1,0.5,0.25,35.0,1,1.0,2.8100999999999985
11,1,0.5,0.0625,-35.0,-1,1.0,0.2978000000000023
12,1,0.5,0.125,35.0,1,1.0,0.3868000000000009
13,1,0.5,1.0,35.0,1,1.0,0.20889999999999986
14,1,0.5,0.25,35.0,1,1.0,0.24660000000000082
15,1,0.5,0.125,35.0,1,1.0,0.46979999999999933
16,1,0.5,0.0625,35.0,1,1.0,0.28830100000000414
17,1,0.5,0.0,-35.0,1,0.0,0.27950000000000585
18,1,0.5,0.0625,35.0,-1,0.0,8.51750100000001
19,1,0.5,0.25,-35.0,-1,1.0,0.3906000000000063
20,1,0.5,0.25,35.0,1,1.0,2.9777010000000104
21,1,0.5,0.0625,-35.0,-1,1.0,0.3014999999999901
22,1,0.5,0.25,-35.0,-1,1.0,0.2925999999999931
23,1,0.5,1.0,-35.0,-1,1.0,0.28560099999999977
24,1,0.5,0.25,35.0,-1,0.0,0.07910099999999431
25,1,0.5,0.0,-35.0,1,0.0,1.7099000000000046
26,1,0.5,0.125,35.0,1,1.0,0.23860000000000525
27,1,0.5,0.125,35.0,1,1.0,0.2650999999999897
28,1,0.5,0.25,-35.0,-1,1.0,0.4103009999999898
29,1,0.5,0.0625,35.0,1,1.0,2.279899999999998
30,1,0.5,0.0,-35.0,-1,1.0,5.60990000000001
31,1,0.5,1.0,35.0,1,1.0,0.2651999999999646
32,1,0.5,1.0,-35.0,-1,1.0,0.47359999999997626
33,1,0.5,1.0,-35.0,-1,1.0,0.37870000000000914
34,1,0.5,0.0,35.0,-1,0.0,1.1685999999999694
35,1,0.5,0.25,35.0,1,1.0,0.24580099999997174
36,1,0.5,0.25,35.0,1,1.0,0.2586009999999703
37,1,0.5,0.0,-35.0,-1,1.0,2.9525999999999897
38,1,0.5,0.0625,-35.0,-1,1.0,0.398399999999981
39,1,0.5,0.0,35.0,-1,0.0,2.21459999999999
40,1,0.5,0.0,35.0,-1,0.0,0.9904999999999688
41,1,0.5,0.125,-35.0,-1,1.0,0.37980000000001723
42,1,0.5,0.0,35.0,1,1.0,3.072100000000006
43,1,0.5,0.25,-35.0,-1,1.0,0.4602999999999895
44,1,0.5,0.0,35.0,1,1.0,0.4025999999999783
45,1,0.5,0.0,35.0,1,1.0,0.22749999999999204
46,1,0.5,0.25,-35.0,-1,1.0,0.5314999999999941
47,1,0.5,0.0625,-35.0,-1,1.0,0.3405999999999665
48,1,0.5,0.125,35.0,1,1.0,0.5586999999999591
49,1,0.5,0.125,-35.0,-1,1.0,0.407400999999993
50,1,0.5,0.25,-35.0,-1,1.0,0.3265999999999849
51,1,0.5,0.0,35.0,-1,0.0,0.09519999999997708
52,1,0.5,0.0,35.0,1,1.0,0.302599999999984
53,1,0.5,0.0,35.0,-1,0.0,3.020700000000005
54,1,0.5,0.0625,35.0,1,1.0,0.09849999999997294
55,1,0.5,0.0,35.0,1,1.0,1.8310999999999922
56,1,0.5,0.25,35.0,1,1.0,0.34149999999999636
57,1,0.5,0.125,-35.0,1,0.0,0.1893999999999778
58,1,0.5,0.0625,35.0,1,1.0,0.4052000000000078
59,1,0.5,0.25,35.0,1,1.0,0.24680000000000746
60,1,0.5,0.25,-35.0,-1,1.0,0.28449999999998
61,1,0.5,0.125,35.0,1,1.0,0.6886000000000081
62,1,0.5,0.0625,35.0,1,1.0,1.0683000000000504
63,1,0.5,0.125,35.0,1,1.0,0.2901000000000522
64,1,0.5,0.125,35.0,1,1.0,0.40890100000007124
65,1,0.5,1.0,-35.0,-1,1.0,0.3065000000000282
66,1,0.5,0.0625,35.0,1,1.0,0.35450000000003
67,1,0.5,0.25,-35.0,-1,1.0,0.4356000000000222
68,1,0.5,1.0,-35.0,-1,1.0,0.2676010000000133
69,1,0.5,0.0,-35.0,1,0.0,0.25810000000006994
70,1,0.5,0.0,-35.0,1,0.0,4.409600000000012
71,1,0.5,0.0625,35.0,1,1.0,0.39690000000001646
72,1,0.5,0.125,-35.0,-1,1.0,0.3648000000000593
73,1,0.5,0.0,-35.0,1,0.0,0.4876010000000406
74,1,0.5,0.0625,35.0,1,1.0,0.33460000000007994
75,1,0.5,0.0,35.0,1,1.0,0.33330000000000837
76,1,0.5,0.0625,-35.0,1,0.0,0.9094000000000051
77,1,0.5,0.125,35.0,1,1.0,0.27240000000000464
78,1,0.5,0.0625,35.0,1,1.0,0.6610999999999763
79,1,0.5,0.25,-35.0,-1,1.0,0.41720000000003665
80,1,0.5,1.0,35.0,1,1.0,0.23059999999998126
81,1,0.5,0.0625,35.0,1,1.0,0.3445000000000391
82,1,0.5,0.125,-35.0,-1,1.0,0.3020000000000209
83,1,0.5,0.25,35.0,1,1.0,0.22960000000006175
84,1,0.5,1.0,35.0,1,1.0,0.17260000000004538
85,1,0.5,0.0,-35.0,-1,1.0,5.356700000000046
86,1,0.5,0.0,-35.0,1,0.0,0.238900000000001
87,1,0.5,0.25,-35.0,-1,1.0,0.48300100000000157
88,1,0.5,0.25,-35.0,-1,1.0,0.2626000000000204
89,1,0.5,0.125,-35.0,-1,1.0,0.14100000000001955
90,1,0.5,0.0625,35.0,1,1.0,0.2154010000000426
91,1,0.2,0.125,35.0,1,1.0,0.24569999999999936
92,1,0.2,0.0,35.0,1,1.0,0.2137000000000171
93,1,0.2,1.0,35.0,1,1.0,0.21250100000003158
94,1,0.2,1.0,35.0,1,1.0,0.23560000000003356
95,1,0.2,0.0,35.0,1,1.0,0.24550100000004704
96,1,0.2,0.0,35.0,1,1.0,0.35650100000003704
97,1,0.2,1.0,-35.0,-1,1.0,0.41049999999995634
98,1,0.2,1.0,35.0,1,1.0,0.15500000000002956
99,1,0.2,1.0,35.0,1,1.0,0.3044999999999618
100,1,0.2,1.0,35.0,1,1.0,0.19730099999998174
101,1,0.2,0.0,-35.0,1,0.0,0.21970099999998638
102,1,0.2,1.0,-35.0,-1,1.0,0.2346000000000572
103,1,0.2,0.0,35.0,-1,0.0,0.7574999999999932
104,1,0.2,0.125,35.0,1,1.0,0.23220000000003438
105,1,0.2,1.0,35.0,1,1.0,0.19900100000000975
106,1,0.2,0.0625,35.0,1,1.0,0.2728010000000154
107,1,0.2,0.0,35.0,1,1.0,0.21910000000002583
108,1,0.2,1.0,35.0,1,1.0,0.18990100000007715
109,1,0.2,1.0,35.0,1,1.0,0.20900000000006003
110,1,0.2,0.0,35.0,1,1.0,0.29640000000000555
111,1,0.2,0.125,35.0,1,1.0,0.6225009999999997
112,1,0.2,0.0625,35.0,1,1.0,0.2675010000000384
113,1,0.2,0.125,-35.0,1,0.0,0.09640000000001692
114,1,0.2,0.0625,35.0,1,1.0,0.23619999999999663
115,1,0.2,0.0,35.0,1,1.0,0.23860000000001946
116,1,0.2,0.0,35.0,1,1.0,0.12560000000007676
117,1,0.2,1.0,35.0,1,1.0,0.12369999999998527
118,1,0.2,0.25,35.0,1,1.0,0.22890000000006694
119,1,0.2,0.0625,-35.0,1,0.0,0.3081000000000813
120,1,0.8,1.0,-35.0,-1,1.0,3.9278999999999087
121,1,0.8,0.0625,-35.0,1,0.0,0.5128009999999676
122,1,0.8,0.25,-35.0,-1,1.0,0.2637999999999465
123,1,0.8,1.0,-35.0,-1,1.0,0.1758999999998423
124,1,0.8,0.125,-35.0,-1,1.0,1.5714010000000371
125,1,0.8,0.0,-35.0,1,0.0,0.08169999999995525
126,1,0.8,0.0625,-35.0,-1,1.0,0.19140100000004168
127,1,0.8,0.125,-35.0,-1,1.0,0.25949999999988904
128,1,0.8,0.0625,-35.0,-1,1.0,0.3827009999999973
129,1,0.8,1.0,-35.0,-1,1.0,0.315900000000056
130,1,0.8,0.25,-35.0,-1,1.0,0.22349999999994452
131,1,0.8,1.0,-35.0,-1,1.0,0.23950000000002092
132,1,0.8,1.0,-35.0,-1,1.0,0.2521000000000413
133,1,0.8,0.0,35.0,1,1.0,0.3068999999999278
134,1,0.8,0.0625,-35.0,-1,1.0,0.3324000000000069
135,1,0.8,0.125,-35.0,-1,1.0,0.2940009999999802
136,1,0.8,1.0,-35.0,-1,1.0,0.3405999999999949
137,1,0.8,0.0,-35.0,1,0.0,0.11240000000009331
138,1,0.8,0.0625,-35.0,1,0.0,3.6803999999999633
139,1,0.8,0.0,-35.0,-1,1.0,1.1567000000000007
140,1,0.8,0.125,-35.0,-1,1.0,0.3324000000000069
141,1,0.8,0.125,35.0,1,1.0,0.5725999999999658
142,1,0.8,1.0,-35.0,-1,1.0,0.27510000000006585
143,1,0.8,0.125,-35.0,-1,1.0,0.3026999999999589
144,1,0.8,0.25,-35.0,-1,1.0,0.3187000000000353
145,1,0.8,0.125,-35.0,1,0.0,3.9174009999998134
146,1,0.8,0.25,-35.0,-1,1.0,0.3593999999999369
147,1,0.8,0.0,-35.0,1,0.0,0.23279999999988377
148,1,0.8,1.0,-35.0,-1,1.0,0.35389999999983957
149,1,0.8,0.25,-35.0,-1,1.0,1.3804000000000087
150,1,0.8,0.0,-35.0,1,0.0,1.8322999999999183
151,1,0.8,1.0,-35.0,-1,1.0,0.24289999999996326
152,1,0.8,1.0,-35.0,-1,1.0,0.2643999999999096
153,1,0.8,0.125,-35.0,-1,1.0,0.49749999999983174
154,1,0.8,0.0,-35.0,-1,1.0,5.346899999999891
155,1,0.2,0.125,35.0,1,1.0,0.3069000000000415
156,1,0.2,0.25,35.0,1,1.0,0.268399999999815
157,1,0.2,0.0625,35.0,1,1.0,0.3330999999998312
158,1,0.2,0.0,35.0,1,1.0,0.2594010000000253
159,1,0.2,0.25,35.0,1,1.0,0.2355009999998856
160,1,0.2,0.0,35.0,1,1.0,0.2382999999998674
161,1,0.2,0.25,35.0,1,1.0,0.26040100000000166
162,1,0.2,1.0,35.0,1,1.0,0.22250099999996564
163,1,0.2,0.0625,35.0,1,1.0,0.24499999999989086
164,1,0.2,0.25,35.0,1,1.0,0.24869999999998527
165,1,0.2,0.0,35.0,1,1.0,0.2983999999999014
166,1,0.2,0.0,35.0,-1,0.0,1.7653000000000247
167,1,0.2,0.25,35.0,1,1.0,0.2373010000000022
168,1,0.2,0.0625,35.0,1,1.0,0.23450000000002547
169,1,0.2,0.25,35.0,1,1.0,0.3935000000000173
170,1,0.2,0.0625,35.0,1,1.0,0.24249999999994998
171,1,0.2,0.125,35.0,1,1.0,0.47129999999992833
172,1,0.2,0.125,35.0,1,1.0,0.2014009999999189
173,1,0.2,0.25,35.0,1,1.0,0.21180099999992308
174,1,0.2,0.0,35.0,1,1.0,2.50630000000001
175,1,0.2,1.0,-35.0,-1,1.0,0.4642999999998665
176,1,0.2,1.0,35.0,1,1.0,0.18250000000000455
177,1,0.2,0.0,35.0,1,1.0,2.08949999999993
178,1,0.2,0.125,35.0,1,1.0,0.2545000000000073
179,1,0.2,0.125,35.0,1,1.0,0.25359999999989213
180,1,0.2,1.0,35.0,1,1.0,0.19689999999991414
181,1,0.2,1.0,35.0,1,1.0,0.19410000000004857
182,1,0.2,0.25,35.0,1,1.0,0.292500999999902
183,1,0.2,0.0625,35.0,1,1.0,0.2718999999999596
184,1,0.2,0.25,-35.0,-1,1.0,0.36130100000002585
185,1,0.2,1.0,35.0,1,1.0,0.19529999999997472
186,1,0.2,0.0,35.0,-1,0.0,0.5364009999999553
187,1,0.2,0.125,35.0,1,1.0,0.5282999999999447
188,1,0.2,0.125,35.0,1,1.0,0.5722999999999274
189,1,0.2,0.0625,-35.0,-1,1.0,1.9386010000000624
190,1,0.8,1.0,-35.0,-1,1.0,0.2502999999999247
191,1,0.8,0.0,-35.0,1,0.0,0.2878000000000611
192,1,0.8,1.0,-35.0,-1,1.0,0.2983000000000402
193,1,0.8,1.0,-35.0,-1,1.0,0.22229999999990468
194,1,0.8,1.0,-35.0,-1,1.0,0.2195009999999229
195,1,0.8,1.0,-35.0,-1,1.0,0.2336999999999989
196,1,0.8,0.0,-35.0,1,0.0,0.3772999999999911
197,1,0.8,1.0,-35.0,-1,1.0,0.21959999999990032
198,1,0.8,0.0625,-35.0,-1,1.0,0.26070000000004256
199,1,0.8,0.25,-35.0,-1,1.0,0.3533999999999651
200,1,0.8,0.25,-35.0,-1,1.0,0.7654999999999745
201,1,0.8,0.25,-35.0,-1,1.0,0.33579999999994925
202,1,0.8,0.125,35.0,1,1.0,0.5060999999999467
203,1,0.8,1.0,-35.0,-1,1.0,0.21730000000002292
204,1,0.8,0.125,-35.0,-1,1.0,0.23969999999985703
205,1,0.8,0.25,-35.0,-1,1.0,0.3572999999998956
206,1,0.8,0.125,-35.0,-1,1.0,0.23379999999986012
207,1,0.8,1.0,-35.0,-1,1.0,0.32129999999995107
208,1,0.8,0.0625,-35.0,-1,1.0,0.47499999999990905
209,1,0.8,1.0,-35.0,-1,1.0,0.09130000000004657
210,1,0.8,0.25,-35.0,-1,1.0,0.2518000000000029
211,1,0.8,0.0625,-35.0,-1,1.0,0.43639999999993506
212,1,0.8,0.125,35.0,1,1.0,0.28330000000005384
213,1,0.8,0.0625,35.0,1,1.0,0.8623000000000047
214,1,0.8,0.25,-35.0,-1,1.0,0.20699999999999363
215,1,0.8,0.0,-35.0,-1,1.0,2.0757999999999583
216,1,0.8,0.0,-35.0,-1,1.0,0.4919999999999618
217,1,0.8,0.125,-35.0,-1,1.0,0.45480099999986123
218,1,0.8,1.0,-35.0,-1,1.0,0.26279999999997017
219,1,0.8,0.25,-35.0,-1,1.0,0.24659999999994398
220,1,0.8,0.25,-35.0,-1,1.0,0.22690000000000055
221,1,0.8,0.0,-35.0,-1,1.0,0.42259999999987485
222,1,0.8,0.125,-35.0,-1,1.0,0.30930000000000746
223,1,0.8,0.0625,-35.0,-1,1.0,1.3175999999999704
224,1,0.8,0.125,-35.0,-1,1.0,0.2681999999999789
225,1,0.8,0.0,35.0,-1,0.0,0.747199999999907
226,1,0.8,0.25,-35.0,-1,1.0,0.2335009999999329
227,1,0.8,0.0,-35.0,-1,1.0,0.11829999999997654
228,1,0.8,0.125,-35.0,-1,1.0,0.276299999999992
229,1,0.8,0.25,35.0,-1,0.0,0.12339999999994689
230,1,0.8,0.25,-35.0,-1,1.0,0.2961999999999989
231,1,0.8,0.0,-35.0,-1,1.0,3.99369999999999
232,1,0.8,0.125,35.0,1,1.0,0.258199999999988
233,1,0.8,0.0,-35.0,1,0.0,0.2726999999998725
234,1,0.8,1.0,-35.0,-1,1.0,0.22889999999995325
235,1,0.8,0.25,-35.0,-1,1.0,0.45420000000001437
236,1,0.8,1.0,-35.0,-1,1.0,0.21749999999997272
237,1,0.8,0.0625,-35.0,-1,1.0,0.5162999999998874
238,1,0.8,1.0,-35.0,-1,1.0,0.28549999999995634
239,1,0.8,1.0,-35.0,-1,1.0,0.22739999999987504
240,1,0.8,1.0,-35.0,-1,1.0,0.23309999999992215
241,1,0.8,0.0,-35.0,1,0.0,0.35589999999990596
242,1,0.8,0.0,35.0,-1,0.0,0.2968999999999369
243,1,0.8,1.0,-35.0,-1,1.0,0.22620099999994636
244,1,0.8,0.0,-35.0,1,0.0,0.3242999999999938
245,1,0.8,1.0,-35.0,-1,1.0,0.278699999999958
246,1,0.8,1.0,-35.0,-1,1.0,0.2317999999999074
247,1,0.8,1.0,-35.0,-1,1.0,0.10770000000002256
248,1,0.8,0.0,-35.0,-1,1.0,0.9321999999999662
249,1,0.8,0.125,-35.0,-1,1.0,0.24779999999987012
250,1,0.8,0.0625,-35.0,1,0.0,1.1655999999999267
251,1,0.8,0.0,-35.0,-1,1.0,0.2380000000000564
252,1,0.8,0.25,-35.0,-1,1.0,0.16250000000002274
253,1,0.8,0.25,-35.0,-1,1.0,0.2980999999999767
254,1,0.8,0.25,-35.0,-1,1.0,0.255500000000211
255,1,0.8,1.0,-35.0,-1,1.0,0.30490000000008877
256,1,0.8,0.0625,-35.0,-1,1.0,0.2625000000000455
257,1,0.2,0.25,35.0,1,1.0,0.24520000000006803
258,1,0.2,1.0,35.0,1,1.0,0.20259999999984757
259,1,0.2,0.0625,-35.0,-1,1.0,0.31169999999997344
260,1,0.2,0.0625,35.0,1,1.0,1.620200000000068
261,1,0.2,0.125,35.0,-1,0.0,0.12520000000017717
262,1,0.2,0.0625,35.0,-1,0.0,0.48020100000007915
263,1,0.2,0.0,35.0,-1,0.0,2.7187000000001262
264,1,0.2,0.0625,35.0,1,1.0,0.24669999999991887
265,1,0.2,1.0,35.0,1,1.0,0.245600000000195
266,1,0.2,0.25,35.0,1,1.0,0.3931999999999789
267,1,0.2,0.125,35.0,1,1.0,0.26559999999994943
268,1,0.2,0.0625,35.0,1,1.0,0.47010000000022956
269,1,0.2,0.0625,35.0,-1,0.0,2.8892000000000735
270,1,0.2,0.125,35.0,1,1.0,0.5672000000001844
271,1,0.2,0.0,35.0,1,1.0,0.27620000000024447
272,1,0.2,0.125,35.0,1,1.0,0.46679999999992106
273,1,0.2,0.0625,35.0,1,1.0,0.2562000000000353
274,1,0.2,0.25,35.0,1,1.0,0.4938999999999396
275,1,0.2,0.25,-35.0,-1,1.0,0.24309999999991305
276,1,0.2,0.0,35.0,1,1.0,0.7339010000002872
277,1,0.2,0.125,35.0,1,1.0,0.5998999999999342
278,1,0.2,0.25,35.0,1,1.0,0.24080000000003565
279,1,0.2,1.0,-35.0,-1,1.0,0.32320000000026994
280,1,0.2,0.0,35.0,1,1.0,0.2874000000001615
281,1,0.2,0.0,35.0,1,1.0,0.3001000000001568
282,1,0.2,0.125,35.0,1,1.0,0.37120100000015555
283,1,0.2,0.25,35.0,1,1.0,0.2236000000000331
284,1,0.2,0.0625,35.0,-1,0.0,0.6212000000000444
285,1,0.2,1.0,35.0,1,1.0,0.21710000000007312
286,1,0.2,0.25,35.0,1,1.0,0.258199999999988
287,1,0.8,0.0625,-35.0,1,0.0,3.0239010000000235
288,1,0.8,0.25,-35.0,-1,1.0,0.2822000000001026
289,1,0.8,0.0625,35.0,1,1.0,0.2874010000000453
290,1,0.8,0.125,-35.0,-1,1.0,0.32500100000015664
291,1,0.8,1.0,35.0,1,1.0,0.18740000000025248
292,1,0.8,0.0625,-35.0,-1,1.0,0.2618000000002212
293,1,0.8,0.0625,-35.0,-1,1.0,0.40419999999994616
294,1,0.8,0.125,-35.0,-1,1.0,0.2819000000001779
295,1,0.8,0.0625,35.0,1,1.0,0.27109999999993306
296,1,0.8,0.0625,35.0,1,1.0,0.229200000000219
297,1,0.8,0.0625,-35.0,-1,1.0,0.2712010000000191
298,1,0.8,0.0625,35.0,1,1.0,1.1591000000000804
299,1,0.8,0.25,-35.0,-1,1.0,0.2513000000001284
300,1,0.8,0.0625,-35.0,-1,1.0,0.40229999999996835
301,1,0.8,1.0,35.0,1,1.0,0.2015000000001237
302,1,0.8,0.0625,-35.0,-1,1.0,0.6156000000000859
303,1,0.8,0.0,-35.0,1,0.0,0.29160000000001673
304,1,0.8,0.125,-35.0,-1,1.0,0.29940000000010514
305,1,0.8,0.0,-35.0,-1,1.0,0.3386000000000422
306,1,0.8,0.125,-35.0,-1,1.0,0.34320099999990816
307,1,0.8,0.0625,-35.0,-1,1.0,0.502100000000155
308,1,0.8,0.125,-35.0,-1,1.0,0.2660999999998239
309,1,0.8,1.0,-35.0,-1,1.0,0.27870100000018283
310,1,0.8,0.25,-35.0,-1,1.0,0.2801010000000588
311,1,0.8,0.25,-35.0,-1,1.0,0.2556999999999334
312,1,0.8,1.0,-35.0,-1,1.0,0.21640000000002146
313,1,0.8,0.125,-35.0,-1,1.0,0.27910099999985505
314,1,0.8,0.0,-35.0,-1,1.0,0.7935999999999694
315,1,0.8,0.0625,-35.0,-1,1.0,0.3926010000002407
316,1,0.8,1.0,-35.0,-1,1.0,0.22339999999985594
317,1,0.8,0.25,35.0,-1,0.0,4.299400000000105
318,1,0.8,0.0,-35.0,-1,1.0,0.6404010000001108
319,1,0.8,0.125,-35.0,1,0.0,0.14960100000007515
320,1,0.8,0.0,-35.0,-1,1.0,0.3706999999999425
321,1,0.8,1.0,35.0,1,1.0,0.2897000000002663
322,1,0.8,0.25,-35.0,-1,1.0,0.21420000000034634
323,1,0.8,0.25,-35.0,-1,1.0,0.3101000000001477
324,1,0.8,0.0,-35.0,1,0.0,0.3844000000001415
325,1,0.8,1.0,-35.0,-1,1.0,0.2734000000002652
326,1,0.8,0.125,-35.0,-1,1.0,1.4142000000001644
327,1,0.8,1.0,-35.0,-1,1.0,0.25710000000003674
328,1,0.8,0.125,-35.0,-1,1.0,0.2778000000000702
329,1,0.8,0.25,-35.0,-1,1.0,0.2836010000000897
330,1,0.8,0.0,-35.0,-1,1.0,0.4980000000000473
331,1,0.8,0.0625,-35.0,-1,1.0,0.23710000000005493
332,1,0.8,0.125,35.0,1,1.0,0.2312000000001717
333,1,0.8,0.25,-35.0,-1,1.0,0.4371000000001004
334,1,0.8,0.125,-35.0,-1,1.0,0.3383000000001175
335,1,0.8,0.125,-35.0,-1,1.0,0.26070000000026994
336,1,0.8,0.125,-35.0,-1,1.0,0.2851000000002841
337,1,0.8,0.0625,35.0,1,1.0,0.2942000000000462
338,1,0.8,0.0,35.0,-1,0.0,1.0516000000000076
339,1,0.8,0.125,-35.0,-1,1.0,0.22440000000005966
340,1,0.8,0.125,35.0,1,1.0,0.23870000000010805
341,1,0.8,1.0,-35.0,-1,1.0,0.2677000000001044
342,1,0.8,0.0,35.0,-1,0.0,0.32199999999988904
343,1,0.8,0.25,35.0,1,1.0,0.29460000000017317
344,1,0.8,0.25,35.0,1,1.0,0.3023000000000593
345,1,0.8,0.0625,-35.0,-1,1.0,2.094500000000153
346,1,0.8,0.0,-35.0,-1,1.0,1.1531000000002223
347,1,0.8,0.25,-35.0,-1,1.0,0.26490100000000893
348,1,0.8,0.25,-35.0,-1,1.0,0.342401000000109
349,1,0.8,0.0625,-35.0,-1,1.0,0.31160099999988233
350,1,0.8,0.25,-35.0,-1,1.0,0.2131000000001677
351,1,0.8,1.0,-35.0,-1,1.0,0.33169999999995525
352,1,0.8,0.25,-35.0,-1,1.0,0.3561000000001968
353,1,0.8,0.25,-35.0,-1,1.0,0.26510000000007494
354,1,0.8,0.0,-35.0,1,0.0,6.5128000000001975
355,1,0.8,0.0625,-35.0,-1,1.0,0.255500000000211
356,1,0.8,0.125,35.0,1,1.0,0.24310000000014043
357,1,0.8,0.0,35.0,1,1.0,0.2623000000000957
358,1,0.8,1.0,-35.0,-1,1.0,0.36999999999989086
359,1,0.8,0.25,-35.0,-1,1.0,0.33900100000005295
360,1,0.8,0.125,35.0,1,1.0,0.27410100000020066
361,1,0.8,1.0,-35.0,-1,1.0,0.2927999999999429
362,1,0.8,1.0,-35.0,-1,1.0,0.27690000000006876
363,1,0.8,0.125,-35.0,-1,1.0,0.4594010000000708
364,1,0.8,1.0,35.0,1,1.0,0.21030100000007224
365,1,0.8,0.0625,-35.0,-1,1.0,0.3662000000001626
366,1,0.8,0.0,35.0,-1,0.0,2.1571000000001277
367,1,0.8,0.125,-35.0,-1,1.0,0.3001010000000406
368,1,0.8,0.0625,-35.0,-1,1.0,0.3976999999999862
369,1,0.8,0.125,-35.0,-1,1.0,0.7632010000002083
370,1,0.8,0.0625,-35.0,-1,1.0,0.5710010000000239
371,1,0.8,1.0,-35.0,-1,1.0,0.26330000000007203
372,1,0.8,0.125,-35.0,-1,1.0,0.1910000000002583
373,1,0.8,0.125,-35.0,-1,1.0,0.29690100000016173
374,1,0.8,1.0,35.0,1,1.0,0.31110000000035143
375,1,0.8,0.0,35.0,-1,0.0,0.49700000000007094
376,1,0.8,0.0625,-35.0,-1,1.0,0.6346000000000913
377,1,0.8,0.0625,35.0,-1,0.0,3.107200000000148
378,1,0.8,1.0,35.0,1,1.0,0.2481000000000222
379,1,0.8,0.0,-35.0,1,0.0,4.12740000000008
380,1,0.8,0.125,35.0,1,1.0,0.43200000000001637
381,1,0.8,0.125,-35.0,-1,1.0,0.35429999999996653
382,1,0.8,0.25,-35.0,-1,1.0,0.512000000000171
383,1,0.8,0.0625,35.0,1,1.0,1.2344000000000506
384,1,0.8,0.25,-35.0,-1,1.0,0.2386010000002443
385,1,0.2,0.0625,35.0,-1,0.0,0.5744999999999436
386,1,0.2,1.0,35.0,1,1.0,0.40610000000015134
387,1,0.2,0.125,35.0,1,1.0,0.27800000000002
388,1,0.2,0.125,35.0,1,1.0,0.5060000000000855
389,1,0.2,0.125,35.0,1,1.0,0.22500000000013642
390,1,0.2,0.0625,35.0,-1,0.0,1.0224000000000615
391,1,0.2,0.0,35.0,1,1.0,0.21840000000020154
392,1,0.2,0.0,35.0,1,1.0,0.2963000000002012
393,1,0.2,0.125,35.0,-1,0.0,0.10840000000007421
394,1,0.2,0.25,35.0,1,1.0,0.6432000000002063
395,1,0.2,1.0,35.0,1,1.0,0.33199999999987995
396,1,0.2,0.0625,35.0,1,1.0,4.060000000000173
397,1,0.2,1.0,35.0,1,1.0,0.6889999999998508
398,1,0.2,0.0,35.0,-1,0.0,1.0269999999998163
399,1,0.2,0.0,35.0,1,1.0,0.5589999999999691
400,1,0.2,1.0,35.0,1,1.0,0.19700000000011642
401,1,0.2,0.0625,35.0,1,1.0,1.5290000000002237
402,1,0.2,0.0,-35.0,1,0.0,0.48700000000008004
403,1,0.2,0.125,-35.0,-1,1.0,0.2924999999997908
404,1,0.2,0.0,35.0,1,1.0,0.4870000000003074
405,1,0.2,0.125,35.0,1,1.0,0.15950100000009115
406,1,0.2,0.0,-35.0,1,0.0,0.2537000000002081
407,1,0.2,0.125,35.0,1,1.0,0.276100999999926
408,1,0.2,0.125,35.0,1,1.0,0.4370000000001255
409,1,0.2,0.25,35.0,1,1.0,0.29959999999982756
410,1,0.2,0.0,35.0,-1,0.0,0.31100000000014916
411,1,0.2,0.125,35.0,1,1.0,0.36310000000025866
412,1,0.2,0.25,35.0,1,1.0,0.9280000000003383
413,1,0.2,0.125,35.0,1,1.0,0.9365999999999985
414,1,0.2,0.0625,-35.0,-1,1.0,0.4175000000000182
415,1,0.2,0.0,35.0,-1,0.0,3.103399999999965
416,1,0.2,0.25,35.0,1,1.0,0.42450000000008004
417,1,0.2,0.25,35.0,1,1.0,0.12350100000003295
418,1,0.2,0.125,35.0,1,1.0,0.7978009999999358
419,1,0.2,1.0,35.0,1,1.0,0.22029999999995198
420,1,0.2,0.0,35.0,-1,0.0,0.3880010000000311
421,1,0.2,0.25,35.0,1,1.0,1.22400000000016
422,1,0.2,0.25,35.0,1,1.0,0.43810000000007676
423,1,0.2,0.25,-35.0,-1,1.0,0.2542000000000826
424,1,0.2,1.0,-35.0,-1,1.0,0.2785000000001219
425,1,0.2,0.25,35.0,1,1.0,0.32100000000014006
426,1,0.2,0.125,35.0,-1,0.0,1.6987000000001444
427,1,0.2,0.0625,35.0,-1,0.0,0.2880010000001221
428,1,0.8,1.0,-35.0,-1,1.0,0.25510000000008404
429,1,0.8,1.0,35.0,1,1.0,0.4212000000002263
430,1,0.8,0.0625,-35.0,-1,1.0,0.32519999999999527
431,1,0.8,0.125,-35.0,-1,1.0,0.31799999999998363
432,1,0.8,0.0625,35.0,-1,0.0,0.6121000000002823
433,1,0.8,0.25,-35.0,-1,1.0,0.46820000000025175
434,1,0.8,0.0,-35.0,1,0.0,7.80920100000003
435,1,0.8,0.0625,-35.0,-1,1.0,1.4484000000002197
436,1,0.8,0.125,35.0,1,1.0,0.9096999999999298
437,1,0.8,1.0,-35.0,-1,1.0,0.7719010000000708
438,1,0.8,1.0,-35.0,-1,1.0,0.25990100000012717
439,1,0.8,0.125,-35.0,-1,1.0,0.588799999999992
440,1,0.8,1.0,-35.0,-1,1.0,0.3831000000000131
441,1,0.8,0.0625,-35.0,-1,1.0,0.41899999999986903
442,1,0.8,0.125,35.0,1,1.0,1.042901000000029
443,1,0.8,0.125,35.0,1,1.0,0.9356999999999971
444,1,0.8,0.125,35.0,1,1.0,0.8398999999999432
445,1,0.8,0.25,-35.0,-1,1.0,0.3291999999999007
446,1,0.8,1.0,-35.0,-1,1.0,0.21670000000017353
447,1,0.8,0.0625,35.0,-1,0.0,1.0160000000000764
448,1,0.8,0.125,-35.0,-1,1.0,0.8233999999999924
449,1,0.8,0.125,-35.0,-1,1.0,0.3994000000000142
450,1,0.8,0.0625,35.0,-1,0.0,1.4104010000000926
451,1,0.8,1.0,-35.0,-1,1.0,0.2963000000002012
452,1,0.8,0.0,-35.0,-1,1.0,0.6470999999999094
453,1,0.8,1.0,-35.0,-1,1.0,0.24990100000013626
454,1,0.8,0.125,-35.0,-1,1.0,1.3674000000000888
455,1,0.8,0.0,-35.0,-1,1.0,0.44320100000027196
456,1,0.8,1.0,-35.0,-1,1.0,0.2943000000000211
457,1,0.8,0.0625,-35.0,-1,1.0,0.5468010000001868
458,1,0.8,1.0,-35.0,-1,1.0,0.21089999999981046
459,1,0.8,0.125,-35.0,-1,1.0,0.2535000000000309
460,1,0.8,0.25,-35.0,-1,1.0,0.16090100000019447
461,1,0.8,1.0,-35.0,-1,1.0,0.23700000000008004
462,1,0.8,0.25,-35.0,-1,1.0,0.26789999999982683
463,1,0.8,0.25,-35.0,-1,1.0,0.3239000000000942
464,1,0.8,0.0625,-35.0,-1,1.0,2.0619000000001506
465,1,0.8,0.0,-35.0,-1,1.0,0.9639010000003054
466,1,0.8,0.0625,-35.0,-1,1.0,0.2648999999998978
467,1,0.8,0.0625,-35.0,-1,1.0,0.31730000000015934
468,1,0.8,0.25,-35.0,-1,1.0,0.285200000000259
469,1,0.8,0.0625,-35.0,-1,1.0,0.2975010000002385
470,1,0.8,1.0,-35.0,-1,1.0,0.1784010000001217
471,1,0.8,1.0,-35.0,-1,1.0,0.5678999999997814
472,1,0.8,0.125,-35.0,-1,1.0,0.2651000000003023
473,1,0.8,1.0,-35.0,-1,1.0,0.23440000000005057
474,1,0.8,0.0,-35.0,-1,1.0,0.46200000000021646
475,1,0.8,0.25,35.0,1,1.0,0.43489999999997053
476,1,0.8,1.0,-35.0,-1,1.0,0.21220000000016626
477,1,0.8,1.0,-35.0,-1,1.0,0.23490100000003622
478,1,0.8,0.25,-35.0,-1,1.0,0.23919999999998254
479,1,0.8,0.125,-35.0,-1,1.0,0.39140000000020336
480,1,0.8,0.0,-35.0,-1,1.0,0.3792000000000826
481,1,0.8,0.0,-35.0,-1,1.0,0.26830000000018117
482,1,0.8,0.0,-35.0,-1,1.0,0.3629000000000815
483,1,0.8,0.25,35.0,1,1.0,0.5084999999999127
484,1,0.8,0.125,-35.0,-1,1.0,0.3169000000000324
485,1,0.8,0.25,-35.0,-1,1.0,0.39190099999996164
486,1,0.8,1.0,-35.0,-1,1.0,0.249800999999934
487,1,0.8,0.0625,-35.0,-1,1.0,0.26539999999999964
488,1,0.8,0.25,-35.0,-1,1.0,0.4596000000001368
489,1,0.8,0.25,-35.0,-1,1.0,0.31899999999996
490,1,0.8,0.0,35.0,-1,0.0,0.8732000000002245
491,1,0.8,0.25,35.0,1,1.0,0.2791010000000824
492,1,0.8,0.0,-35.0,-1,1.0,10.52690100000018
493,1,0.8,0.25,35.0,1,1.0,0.2129010000001017
494,1,0.8,0.0,-35.0,1,0.0,0.09690000000023247
495,1,0.8,1.0,-35.0,-1,1.0,0.24289999999996326
496,1,0.8,0.25,35.0,1,1.0,0.6109000000001288
497,1,0.8,0.125,-35.0,-1,1.0,0.27290000000016335
498,1,0.8,0.0625,-35.0,-1,1.0,0.29710000000000036
499,1,0.8,0.0,-35.0,-1,1.0,0.29300000000012005
500,1,0.8,0.0625,-35.0,-1,1.0,0.3208999999999378
501,1,0.8,0.0,-35.0,-1,1.0,0.44000000000005457
502,1,0.8,1.0,-35.0,-1,1.0,0.297600999999986
503,1,0.8,0.25,-35.0,-1,1.0,0.34339999999997417
504,1,0.2,1.0,35.0,1,1.0,0.48090000000001965
505,1,0.2,1.0,35.0,1,1.0,0.45030099999985396
506,1,0.2,0.125,35.0,1,1.0,0.571100000000115
507,1,0.2,0.0,35.0,-1,0.0,0.7503000000001521
508,1,0.2,0.0625,35.0,-1,0.0,1.0979999999999563
509,1,0.2,0.0,35.0,1,1.0,0.13389999999981228
510,1,0.2,1.0,35.0,1,1.0,0.24080000000003565
511,1,0.2,0.0,35.0,-1,0.0,0.7318000000000211
512,1,0.2,0.0625,35.0,1,1.0,0.41420000000016444
513,1,0.2,0.25,-35.0,-1,1.0,0.288300000000163
514,1,0.2,1.0,35.0,1,1.0,0.25420100000019374
515,1,0.2,0.25,35.0,1,1.0,0.2252000000003136
516,1,0.2,0.25,35.0,1,1.0,0.3977999999997337
517,1,0.2,0.0,35.0,1,1.0,0.271900000000187
518,1,0.2,1.0,35.0,1,1.0,0.24119999999993524
519,1,0.2,0.25,35.0,1,1.0,0.3558010000001559
520,1,0.2,0.25,35.0,1,1.0,0.2278999999998632
521,1,0.2,0.125,35.0,1,1.0,0.2858000000001084
522,1,0.2,0.125,35.0,-1,0.0,0.4481999999998152
523,1,0.2,0.0,-35.0,-1,1.0,0.33259999999972933
524,1,0.2,1.0,-35.0,-1,1.0,0.22189999999955035
525,1,0.2,0.0625,35.0,-1,0.0,0.33579999999983556
526,1,0.2,1.0,35.0,1,1.0,0.2118000000000393
527,1,0.2,0.125,-35.0,-1,1.0,0.24979999999959546
528,1,0.2,0.0,35.0,1,1.0,4.235300000000279
529,1,0.2,0.0,35.0,1,1.0,0.29300000000012005
530,1,0.2,0.125,35.0,1,1.0,0.3222000000000662
531,1,0.2,1.0,35.0,1,1.0,0.20630100000016682
532,1,0.2,0.0625,35.0,1,1.0,2.832300000000032
533,1,0.2,1.0,35.0,1,1.0,0.27660000000014406
534,1,0.2,0.125,35.0,1,1.0,0.43919999999980064
535,1,0.2,0.125,35.0,1,1.0,0.23030000000017026
536,1,0.2,0.25,35.0,1,1.0,0.3227000000001681
537,1,0.2,0.25,35.0,1,1.0,0.22360000000026048
538,1,0.2,0.0625,35.0,1,1.0,0.42280099999970844
539,1,0.2,1.0,35.0,1,1.0,0.22030000000040673
540,1,0.2,0.25,-35.0,-1,1.0,0.28609999999980573
541,1,0.2,1.0,35.0,1,1.0,0.20380000000022847
542,1,0.2,0.25,35.0,1,1.0,0.42630000000008295
543,1,0.2,0.125,-35.0,-1,1.0,0.35479999999961365
544,1,0.2,0.0625,35.0,-1,0.0,0.15670000000000073
545,1,0.2,0.125,35.0,1,1.0,0.2510999999994965
546,1,0.2,0.0625,35.0,1,1.0,0.35320000000047
547,1,0.2,0.0625,35.0,1,1.0,0.2548010000004979
548,1,0.2,0.25,-35.0,-1,1.0,0.3467999999998028
549,1,0.2,1.0,35.0,1,1.0,0.20430000000033033
550,1,0.2,0.125,35.0,1,1.0,0.4738000000002103
551,1,0.2,1.0,35.0,1,1.0,0.12109999999984211
552,1,0.2,1.0,35.0,1,1.0,0.5502999999998792
553,1,0.2,0.0,35.0,1,1.0,4.0348009999997885
554,1,0.2,0.25,35.0,1,1.0,3.224001000000044
555,1,0.2,1.0,35.0,1,1.0,0.3949010000005728
556,1,0.2,0.25,-35.0,-1,1.0,0.2474000000001979
557,1,0.2,0.25,35.0,1,1.0,0.3081999999999425
558,1,0.2,0.25,35.0,1,1.0,0.6307999999999083
559,1,0.2,0.25,35.0,1,1.0,2.1918000000000575
560,1,0.2,0.25,35.0,1,1.0,0.23770100000001548
561,1,0.2,0.25,35.0,1,1.0,0.2354009999999107
562,1,0.2,1.0,35.0,1,1.0,0.4246000000002823
563,1,0.2,0.25,35.0,1,1.0,0.2557999999999083
564,1,0.2,0.0625,-35.0,-1,1.0,0.26119999999991705
565,1,0.2,0.25,-35.0,-1,1.0,0.32220099999995
566,1,0.2,1.0,-35.0,-1,1.0,0.22139999999990323
567,1,0.2,0.25,-35.0,-1,1.0,0.2692000000001826
568,1,0.2,0.0625,35.0,1,1.0,6.364999999999782
569,1,0.2,0.0625,-35.0,-1,1.0,0.29599999999982174
570,1,0.2,0.25,35.0,1,1.0,0.22519999999985885
571,1,0.2,0.125,35.0,1,1.0,0.43280000000004293
572,1,0.2,0.25,35.0,1,1.0,0.20540000000028158
573,1,0.2,0.125,35.0,1,1.0,0.3696999999997388
574,1,0.2,0.0,35.0,1,1.0,2.8721999999997934
575,1,0.2,0.25,35.0,1,1.0,0.5765999999998712
576,1,0.2,0.0625,35.0,1,1.0,1.0891010000000279
577,1,0.2,0.25,35.0,1,1.0,0.4032999999999447
578,1,0.2,0.25,35.0,1,1.0,0.9228000000002794
579,1,0.2,0.0625,35.0,1,1.0,0.2837009999998372
580,1,0.2,0.25,35.0,1,1.0,0.22929999999996653
581,1,0.2,1.0,35.0,1,1.0,0.19070000000010623
582,1,0.2,0.0,35.0,-1,0.0,0.282799999999952
583,1,0.2,0.125,35.0,1,1.0,0.3205000000002656
584,1,0.2,1.0,35.0,1,1.0,0.24969999999984793
585,1,0.2,0.125,35.0,1,1.0,0.40380000000004657
586,1,0.2,0.0,35.0,-1,0.0,12.809900000000198
587,1,0.2,1.0,35.0,1,1.0,0.2414000000003398
588,1,0.2,0.0,35.0,1,1.0,2.926900999999816
589,1,0.2,0.0625,35.0,1,1.0,0.34780000000000655
590,1,0.2,1.0,35.0,1,1.0,0.40039999999999054
591,1,0.8,0.25,-35.0,-1,1.0,0.25810000000046784
592,1,0.8,0.0625,-35.0,-1,1.0,0.3706999999999425
593,1,0.8,0.25,35.0,1,1.0,0.525101000000177
594,1,0.8,0.0,-35.0,-1,1.0,0.32070000000021537
595,1,0.8,0.0625,35.0,1,1.0,4.968700000000354
596,1,0.8,1.0,35.0,1,1.0,0.2309000000004744
597,1,0.8,1.0,-35.0,-1,1.0,0.23170000000027358
598,1,0.8,0.125,-35.0,-1,1.0,0.2777000000000953
599,1,0.8,1.0,-35.0,-1,1.0,0.24860000000035143
600,1,0.8,0.0625,-35.0,-1,1.0,0.3580000000001746
601,1,0.8,0.0,-35.0,1,0.0,5.33219999999983
602,1,0.8,0.125,-35.0,-1,1.0,0.23170000000027358
603,1,0.8,0.125,-35.0,-1,1.0,0.28250000000025466
604,1,0.8,1.0,35.0,1,1.0,0.30820000000039727
605,1,0.8,1.0,35.0,1,1.0,0.4726999999998043
606,1,0.8,0.25,-35.0,-1,1.0,0.24180000000023938
607,1,0.8,1.0,35.0,1,1.0,0.6458999999999833
608,1,0.8,0.0,-35.0,1,0.0,1.355199999999968
609,1,0.8,1.0,35.0,1,1.0,0.5266999999998916
610,1,0.8,0.125,-35.0,-1,1.0,0.3654999999998836
611,1,0.8,0.0,-35.0,-1,1.0,0.9565999999999804
612,1,0.8,0.0,-35.0,-1,1.0,2.062201000000641
613,1,0.8,1.0,-35.0,-1,1.0,0.2966999999998734
614,1,0.8,0.0625,35.0,-1,0.0,4.609099999999671
615,1,0.8,0.0,-35.0,-1,1.0,0.5199000000002343
616,1,0.8,0.0625,-35.0,-1,1.0,0.27580100000022867
617,1,0.8,0.0625,35.0,1,1.0,3.8767000000002554
618,1,0.8,1.0,-35.0,-1,1.0,0.2627999999995154
619,1,0.8,0.25,-35.0,-1,1.0,0.35070000000041546
620,1,0.8,0.25,-35.0,-1,1.0,0.31970000000001164
621,1,0.8,0.0,-35.0,-1,1.0,0.34060000000044965
622,1,0.8,0.25,-35.0,-1,1.0,0.5030000000001564
623,1,0.8,1.0,-35.0,-1,1.0,0.3206009999998969
624,1,0.8,0.25,35.0,1,1.0,0.9666999999999462
625,1,0.8,0.125,-35.0,-1,1.0,0.33100000000013097
626,1,0.8,0.125,35.0,1,1.0,0.5233000000002903
627,1,0.8,1.0,-35.0,-1,1.0,0.27759999999989304
628,1,0.8,0.125,-35.0,-1,1.0,0.5537010000002738
629,1,0.8,0.25,-35.0,-1,1.0,0.30130000000008295
630,1,0.8,0.25,-35.0,-1,1.0,0.4102999999995518
631,1,0.8,0.0625,-35.0,-1,1.0,0.49159999999983484
632,1,0.8,0.0,-35.0,-1,1.0,1.2070000000003347
633,1,0.8,1.0,-35.0,-1,1.0,0.24150000000054206
634,1,0.8,0.125,-35.0,-1,1.0,0.30740000000014334
635,1,0.8,0.0625,35.0,1,1.0,0.27169999999978245
636,1,0.8,0.125,-35.0,-1,1.0,0.2640000000001237
637,1,0.8,1.0,-35.0,-1,1.0,0.2849999999998545
638,1,0.8,0.25,35.0,1,1.0,1.0507000000002336
639,1,0.8,0.0,-35.0,1,0.0,18.914999999999964
640,1,0.8,0.0,-35.0,-1,1.0,0.3579000000004271
641,1,0.8,1.0,-35.0,-1,1.0,0.2656000000001768
642,1,0.8,0.25,-35.0,-1,1.0,0.3180999999995038
643,1,0.8,0.0625,35.0,-1,0.0,0.4391000000000531
644,1,0.8,1.0,-35.0,-1,1.0,0.13160000000016225
645,1,0.8,0.125,-35.0,-1,1.0,0.21660000000019863
646,1,0.8,0.125,35.0,-1,0.0,0.22170099999993909
647,1,0.8,0.0,35.0,-1,0.0,13.519400000000132
648,1,0.8,0.0,-35.0,1,0.0,7.748800000000301
649,1,0.8,0.0625,35.0,-1,0.0,0.4569010000000162
650,1,0.8,0.0625,-35.0,-1,1.0,8.449200000000019
651,1,0.8,0.0,35.0,-1,0.0,1.1503010000001268
652,1,0.8,0.0625,-35.0,-1,1.0,0.3661000000001877
653,1,0.8,0.25,-35.0,-1,1.0,43.0005000000001
654,1,0.8,0.0625,-35.0,-1,1.0,27.997199999999793
655,1,0.8,0.0625,-35.0,-1,1.0,22.845600000000104
656,1,0.8,0.0,-35.0,-1,1.0,9.444899999999961
657,1,0.8,1.0,-35.0,-1,1.0,0.3526000000001659
658,1,0.8,1.0,-35.0,-1,1.0,16.843599999999697
659,1,0.8,0.0625,-35.0,-1,1.0,39.245600000000195
660,1,0.8,0.25,-35.0,0,0.0,60.04070000000047
661,1,0.8,0.0,-35.0,-1,1.0,4.001600000000053
662,1,0.8,0.25,-35.0,1,0.0,26.258499999999913
663,1,0.2,1.0,35.0,1,1.0,0.30480000000034124
664,1,0.2,0.25,35.0,1,1.0,1.8089999999997417
665,1,0.2,0.125,35.0,1,1.0,0.2984000000001288
666,1,0.2,0.125,35.0,1,1.0,4.196000000000367
667,1,0.2,0.25,-35.0,-1,1.0,0.46860000000015134
668,1,0.2,0.25,35.0,1,1.0,4.109600000000228
669,1,0.2,0.0625,35.0,1,1.0,0.4786999999996624
670,1,0.2,0.125,35.0,1,1.0,4.123199999999997
671,1,0.2,0.125,-35.0,-1,1.0,7.1325000000006185
672,1,0.2,0.0,35.0,1,1.0,0.48050100000000384
673,1,0.2,1.0,35.0,1,1.0,0.3726010000000315
674,1,0.2,1.0,35.0,1,1.0,0.23260100000015882
675,1,0.2,0.0,35.0,1,1.0,0.8271010000003116
676,1,0.2,0.25,35.0,1,1.0,0.25620100000014645
677,1,0.2,0.0,35.0,1,1.0,5.459701000000223
678,1,0.2,0.25,35.0,1,1.0,0.42770100000007005
679,1,0.2,0.125,35.0,1,1.0,0.5232009999999718
680,1,0.2,0.0,35.0,-1,0.0,0.38410099999964586
681,1,0.2,0.0625,35.0,1,1.0,0.7400020000004588
682,1,0.2,0.25,35.0,1,1.0,0.7215009999999893
683,1,0.2,0.0625,35.0,1,1.0,5.833501999999953
684,1,0.2,0.0625,35.0,1,1.0,4.600401000000147
685,1,0.8,0.0625,-35.0,1,0.0,6.063701000000037
686,1,0.8,0.25,35.0,1,1.0,0.28490199999987453
687,1,0.8,0.125,-35.0,-1,1.0,0.40080100000022867
688,1,0.8,0.0,-35.0,-1,1.0,0.8284010000002127
689,1,0.8,1.0,-35.0,-1,1.0,0.26080099999990125
690,1,0.8,1.0,-35.0,-1,1.0,0.32520100000010643
691,1,0.8,0.125,35.0,1,1.0,0.5275010000000293
692,1,0.8,0.125,-35.0,-1,1.0,0.46550100000013117
693,1,0.8,0.0625,35.0,-1,0.0,0.6111009999999624
694,1,0.8,1.0,-35.0,-1,1.0,0.2988010000003669
695,1,0.8,0.125,-35.0,-1,1.0,0.3414010000001326
696,1,0.8,0.0625,-35.0,-1,1.0,2.8224009999999
697,1,0.8,0.0,-35.0,-1,1.0,3.1214020000002165
698,1,0.8,0.0,-35.0,-1,1.0,55.812601000000086
699,1,0.8,0.25,-35.0,-1,1.0,4.806102000000465
700,1,0.8,0.0625,-35.0,-1,1.0,11.52710100000013
701,1,0.8,0.0625,-35.0,-1,1.0,0.3534010000003036
702,1,0.8,0.25,-35.0,-1,1.0,0.2914019999998345
703,1,0.8,0.125,-35.0,-1,1.0,0.3733009999996284
704,1,0.8,1.0,-35.0,-1,1.0,0.2709010000003218
705,1,0.8,0.125,-35.0,-1,1.0,4.716801000000032
706,1,0.8,1.0,-35.0,-1,1.0,0.25440100000014354
707,1,0.8,0.0625,-35.0,-1,1.0,3.4436020000002827
708,1,0.8,1.0,-35.0,-1,1.0,0.2645009999996546
709,1,0.8,0.0,-35.0,-1,1.0,0.5138010000000577
710,1,0.8,0.0,35.0,-1,0.0,6.238200999999663
711,1,0.8,0.125,-35.0,-1,1.0,0.6742010000002665
712,1,0.8,0.125,-35.0,1,0.0,13.978501000000051
713,1,0.2,0.125,35.0,-1,0.0,49.387901000000056
714,1,0.2,0.25,35.0,1,1.0,6.460402000000158
715,1,0.2,0.125,35.0,1,1.0,8.37570100000039
716,1,0.2,1.0,35.0,1,1.0,3.933701000000383
717,1,0.2,0.0625,35.0,-1,0.0,21.059301000000232
718,1,0.2,0.25,35.0,-1,0.0,34.12750200000028
719,1,0.2,0.0625,35.0,0,0.0,60.03730200000018
720,1,0.2,0.0625,-35.0,-1,1.0,42.03510200000028
721,1,0.2,1.0,35.0,1,1.0,0.3204020000002856
722,1,0.2,1.0,35.0,1,1.0,0.3463010000000395
723,1,0.2,0.25,-35.0,-1,1.0,13.403701000000183
724,1,0.2,0.25,35.0,1,1.0,0.39320100000031744
725,1,0.2,0.0,35.0,1,1.0,4.604201000000103
726,1,0.2,0.25,35.0,1,1.0,17.473500999999942
727,1,0.2,0.25,35.0,1,1.0,27.684500999999727
728,1,0.2,0.0625,35.0,1,1.0,1.7210009999998874
729,1,0.2,0.0625,-35.0,-1,1.0,4.235300999999708
730,1,0.2,0.0,35.0,-1,0.0,7.701301000000058
731,1,0.2,0.125,35.0,-1,0.0,23.04230200000029
732,1,0.2,0.125,35.0,0,0.0,60.031900999999834
733,1,0.2,1.0,-35.0,-1,1.0,0.3306009999996604
734,1,0.2,0.25,35.0,1,1.0,0.4408020000000761
735,1,0.2,1.0,35.0,1,1.0,0.2633009999995011
736,1,0.2,0.0,35.0,1,1.0,17.39750099999992
737,1,0.2,0.125,35.0,1,1.0,4.347301000000243
738,1,0.2,0.0625,35.0,-1,0.0,20.418401000000358
739,1,0.2,0.0625,35.0,1,1.0,24.861100999999962
1,2,0.5,0.125,-35.0,-1,1.0,11.290500000000002
2,2,0.5,0.125,35.0,1,1.0,0.23300000000000232
3,2,0.5,0.25,35.0,1,1.0,0.26559999999999917
4,2,0.5,0.0,-35.0,1,0.0,3.7058
5,2,0.5,1.0,35.0,1,1.0,0.21159999999999712
6,2,0.5,0.0625,35.0,1,1.0,1.3515000000000015
7,2,0.5,0.0625,-35.0,1,0.0,0.28880000000000194
8,2,0.5,1.0,35.0,1,1.0,0.26910000000000167
9,2,0.5,0.0625,35.0,1,1.0,4.412999999999997
10,2,0.5,0.0,35.0,-1,0.0,0.8735999999999962
11,2,0.5,0.125,35.0,1,1.0,0.2533999999999992
12,2,0.5,0.0,-35.0,1,0.0,4.136400000000002
13,2,0.5,0.0,35.0,1,1.0,13.5608
14,2,0.5,0.0,35.0,-1,0.0,2.0906999999999982
15,2,0.5,0.25,-35.0,-1,1.0,9.833601000000002
16,2,0.5,0.125,35.0,1,1.0,0.5947009999999864
17,2,0.5,0.125,-35.0,1,0.0,1.665700000000001
18,2,0.5,1.0,-35.0,-1,1.0,0.3803000000000054
19,2,0.5,0.25,-35.0,-1,1.0,0.25969999999999516
20,2,0.5,0.125,35.0,1,1.0,0.12760000000000105
21,2,0.5,0.0625,-35.0,-1,1.0,1.2895000000000039
22,2,0.5,0.125,-35.0,-1,1.0,0.28489999999999327
23,2,0.5,0.125,35.0,1,1.0,0.24120099999998956
24,2,0.5,0.0,-35.0,1,0.0,0.3608000000000118
25,2,0.5,0.0,-35.0,1,0.0,4.756100000000032
26,2,0.5,1.0,35.0,1,1.0,0.21229999999999905
27,2,0.5,1.0,-35.0,-1,1.0,0.2611999999999739
28,2,0.5,1.0,35.0,1,1.0,0.2183000000000277
29,2,0.5,0.125,-35.0,-1,1.0,0.30210000000002424
30,2,0.5,1.0,35.0,1,1.0,0.3002999999999929
31,2,0.5,1.0,35.0,1,1.0,0.18420000000000414
32,2,0.5,0.0625,35.0,1,1.0,1.3734000000000037
33,2,0.5,0.0625,35.0,-1,0.0,1.515199999999993
34,2,0.5,1.0,-35.0,-1,1.0,0.2734999999999843
35,2,0.5,0.0625,-35.0,1,0.0,1.7197009999999864
36,2,0.5,1.0,-35.0,-1,1.0,0.25840000000002306
37,2,0.5,1.0,-35.0,-1,1.0,0.31520000000000437
38,2,0.5,0.125,35.0,1,1.0,0.2934999999999661
39,2,0.5,0.0,35.0,-1,0.0,2.998100000000022
40,2,0.5,0.0625,-35.0,-1,1.0,0.29880100000002585
41,2,0.5,1.0,35.0,1,1.0,0.2174009999999953
42,2,0.5,0.125,-35.0,-1,1.0,0.22819999999998686
43,2,0.5,0.25,-35.0,-1,1.0,2.263200000000012
44,2,0.5,1.0,35.0,1,1.0,0.19000000000002615
45,2,0.5,0.0625,35.0,1,1.0,0.2405000000000257
46,2,0.5,0.25,-35.0,-1,1.0,0.2291999999999632
47,2,0.5,0.25,-35.0,-1,1.0,0.26240000000001373
48,2,0.5,0.25,-35.0,-1,1.0,0.6151999999999873
49,2,0.5,0.25,-35.0,-1,1.0,0.24440000000001305
50,2,0.5,0.0625,-35.0,-1,1.0,0.29220000000000823
51,2,0.5,1.0,-35.0,-1,1.0,0.23649999999997817
52,2,0.5,0.0625,-35.0,-1,1.0,1.0185000000000173
53,2,0.5,0.25,35.0,1,1.0,0.2476000000000056
54,2,0.5,0.125,-35.0,-1,1.0,0.2933000000000163
55,2,0.5,1.0,35.0,1,1.0,0.19709999999997763
56,2,0.5,0.125,35.0,1,1.0,0.24919999999997344
57,2,0.5,0.0,-35.0,1,0.0,0.3573999999999842
58,2,0.5,0.125,-35.0,-1,1.0,2.553200000000004
59,2,0.5,0.0,35.0,-1,0.0,2.741100000000017
60,2,0.5,0.25,-35.0,-1,1.0,0.2626000000000204
61,2,0.5,0.125,35.0,1,1.0,0.20230000000003656
62,2,0.5,0.25,35.0,1,1.0,0.21010000000001128
63,2,0.5,1.0,-35.0,-1,1.0,0.2341000000000122
64,2,0.5,0.0625,35.0,1,1.0,0.5482000000000085
65,2,0.5,0.0625,35.0,1,1.0,0.24310000000002674
66,2,0.5,1.0,-35.0,-1,1.0,0.26370000000002847
67,2,0.5,0.25,35.0,1,1.0,0.45060000000000855
68,2,0.5,1.0,35.0,1,1.0,0.22120000000001028
69,2,0.5,0.0,35.0,1,1.0,0.2714000000000283
70,2,0.5,0.125,-35.0,-1,1.0,0.2633000000000152
71,2,0.5,0.125,-35.0,-1,1.0,0.25869999999997617
72,2,0.5,0.25,35.0,1,1.0,0.20709999999996853
73,2,0.5,0.125,-35.0,-1,1.0,0.6332000000000448
74,2,0.5,0.0625,-35.0,-1,1.0,0.2668010000000436
75,2,0.5,0.0,-35.0,-1,1.0,1.968500000000006
76,2,0.5,0.0,-35.0,1,0.0,0.3441999999999439
77,2,0.5,0.0,35.0,1,1.0,1.307299999999998
78,2,0.5,0.25,-35.0,-1,1.0,1.8132000000000517
79,2,0.5,0.0625,35.0,1,1.0,0.22980000000001155
80,2,0.5,0.0625,35.0,1,1.0,0.26190000000002556
81,2,0.5,0.0625,-35.0,-1,1.0,4.022699999999986
82,2,0.5,0.0,-35.0,-1,1.0,0.6598000000000184
83,2,0.5,0.25,35.0,1,1.0,0.21719999999993433
84,2,0.5,0.0625,35.0,1,1.0,0.1571999999999889
85,2,0.5,0.0625,35.0,1,1.0,0.4953009999999267
86,2,0.5,1.0,35.0,1,1.0,0.208500000000015
87,2,0.5,0.125,35.0,1,1.0,0.23640000000000327
88,2,0.5,0.125,35.0,1,1.0,0.2533999999999992
89,2,0.5,1.0,35.0,1,1.0,0.22919999999999163
90,2,0.5,0.0625,35.0,1,1.0,0.2814009999999598
91,2,0.2,1.0,35.0,1,1.0,0.19009999999997262
92,2,0.2,1.0,-35.0,-1,1.0,0.32490000000001373
93,2,0.2,0.0625,35.0,1,1.0,0.254099999999994
94,2,0.2,1.0,35.0,1,1.0,0.20909999999997808
95,2,0.2,0.25,35.0,1,1.0,0.3868999999999687
96,2,0.2,0.0,35.0,1,1.0,2.5011010000000056
97,2,0.2,1.0,-35.0,-1,1.0,0.5301999999999794
98,2,0.2,0.25,35.0,1,1.0,0.2488999999999919
99,2,0.2,0.25,35.0,1,1.0,0.1845000000000141
100,2,0.2,0.125,35.0,1,1.0,0.21749999999997272
101,2,0.2,0.0,35.0,1,1.0,0.23329999999998563
102,2,0.2,0.125,35.0,1,1.0,0.21029999999996107
103,2,0.2,1.0,35.0,1,1.0,0.2033999999999878
104,2,0.2,0.25,35.0,1,1.0,0.3539000000000101
105,2,0.2,0.0,35.0,1,1.0,0.25509999999997035
106,2,0.2,0.25,35.0,1,1.0,0.4416999999999689
107,2,0.2,1.0,35.0,1,1.0,0.2115000000000009
108,2,0.2,0.0625,35.0,1,1.0,0.36319999999994934
109,2,0.2,0.0,35.0,1,1.0,1.0450999999999908
110,2,0.2,0.0,35.0,1,1.0,0.22519999999997253
111,2,0.2,1.0,35.0,1,1.0,0.17400000000003502
112,2,0.2,0.125,35.0,1,1.0,0.27800000000002
113,2,0.2,0.0,35.0,1,1.0,0.37770000000000437
114,2,0.2,0.25,35.0,1,1.0,0.12110000000001264
115,2,0.2,0.25,35.0,1,1.0,0.2727999999999611
116,2,0.2,0.0,-35.0,1,0.0,0.24930000000000518
117,2,0.2,0.0625,-35.0,-1,1.0,0.2980000000000018
118,2,0.2,0.0,35.0,-1,0.0,3.391300000000001
119,2,0.2,0.25,35.0,1,1.0,0.23700099999996382
120,2,0.2,0.25,-35.0,-1,1.0,0.2791000000000281
121,2,0.2,0.125,-35.0,-1,1.0,0.2279999999999518
122,2,0.2,1.0,35.0,1,1.0,0.21409999999997353
123,2,0.2,1.0,-35.0,-1,1.0,0.2115000000000009
124,2,0.2,0.0,-35.0,1,0.0,3.8211000000000013
125,2,0.2,0.0625,35.0,1,1.0,0.2238999999998441
126,2,0.2,0.125,35.0,1,1.0,0.13409999999998945
127,2,0.2,0.25,35.0,1,1.0,0.3390000000000555
128,2,0.2,1.0,35.0,1,1.0,0.22200099999986378
129,2,0.2,0.25,35.0,1,1.0,0.20839999999998327
130,2,0.2,0.0625,35.0,1,1.0,0.20899999999994634
131,2,0.2,0.125,35.0,1,1.0,0.22649999999987358
132,2,0.2,0.125,35.0,1,1.0,0.2608999999998787
133,2,0.2,0.0,35.0,1,1.0,0.2315009999998665
134,2,0.2,0.25,35.0,1,1.0,1.4406999999998789
135,2,0.2,1.0,35.0,1,1.0,0.2473009999999931
136,2,0.2,0.125,35.0,1,1.0,0.26700000000005275
137,2,0.2,0.0625,35.0,1,1.0,0.7053999999999405
138,2,0.2,0.0625,35.0,1,1.0,0.2559999999999718
139,2,0.2,1.0,-35.0,-1,1.0,0.2560000000000855
140,2,0.2,0.0,35.0,1,1.0,1.935000999999943
141,2,0.2,0.0,-35.0,1,0.0,0.25030099999992217
142,2,0.2,1.0,35.0,1,1.0,0.2176999999999225
143,2,0.2,0.25,35.0,1,1.0,2.8882999999999583
144,2,0.2,0.125,35.0,1,1.0,0.2576009999999087
145,2,0.2,0.125,-35.0,-1,1.0,0.28939999999988686
146,2,0.2,0.25,35.0,1,1.0,0.22919999999999163
147,2,0.2,0.0,35.0,-1,0.0,0.356000999999992
148,2,0.2,1.0,35.0,1,1.0,0.19899999999984175
149,2,0.2,0.25,-35.0,-1,1.0,0.23040000000003147
150,2,0.2,1.0,35.0,1,1.0,0.1109000000000151
151,2,0.2,0.125,35.0,1,1.0,0.4053999999998723
152,2,0.2,0.0,35.0,1,1.0,0.20069999999986976
153,2,0.2,0.0,35.0,-1,0.0,1.2978999999999132
154,2,0.2,1.0,35.0,1,1.0,0.2518999999999778
155,2,0.2,0.0,-35.0,1,0.0,0.23269999999990887
156,2,0.8,0.125,-35.0,-1,1.0,0.48519999999996344
157,2,0.8,0.125,-35.0,-1,1.0,0.318100999999956
158,2,0.8,1.0,-35.0,-1,1.0,0.22220100000004095
159,2,0.8,0.0625,-35.0,-1,1.0,0.494199999999978
160,2,0.8,0.125,-35.0,-1,1.0,0.28350000000000364
161,2,0.8,1.0,-35.0,-1,1.0,0.2261999999999489
162,2,0.8,0.0,-35.0,-1,1.0,5.104099999999903
163,2,0.8,0.0625,-35.0,-1,1.0,0.3101010000000315
164,2,0.8,0.0625,35.0,1,1.0,1.9074999999999136
165,2,0.8,1.0,35.0,1,1.0,0.27159999999992124
166,2,0.8,0.0625,-35.0,1,0.0,2.794199999999819
167,2,0.8,0.0,-35.0,1,0.0,0.4339999999999691
168,2,0.8,0.0625,-35.0,-1,1.0,0.8519999999999754
169,2,0.8,0.0625,-35.0,1,0.0,7.57510000000002
170,2,0.8,0.25,-35.0,-1,1.0,0.16009999999994307
171,2,0.8,0.25,-35.0,-1,1.0,0.3181999999999334
172,2,0.8,0.125,-35.0,-1,1.0,0.28139999999996235
173,2,0.8,0.0,-35.0,-1,1.0,0.34169999999994616
174,2,0.8,0.125,35.0,1,1.0,2.826100999999994
175,2,0.8,0.25,-35.0,-1,1.0,0.33049999999980173
176,2,0.8,0.125,-35.0,-1,1.0,0.26089999999999236
177,2,0.8,1.0,-35.0,-1,1.0,0.2738999999999123
178,2,0.8,0.25,35.0,1,1.0,0.2514009999998734
179,2,0.8,0.125,-35.0,-1,1.0,0.2906999999999016
180,2,0.8,0.0625,35.0,1,1.0,0.2780999999998812
181,2,0.8,1.0,-35.0,-1,1.0,0.25289999999995416
182,2,0.8,1.0,-35.0,-1,1.0,0.20929999999987103
183,2,0.8,0.0625,-35.0,-1,1.0,0.28329999999994016
184,2,0.8,0.0625,-35.0,1,0.0,3.5283999999999196
185,2,0.8,0.0,-35.0,-1,1.0,7.184499999999957
186,2,0.8,0.0,-35.0,1,0.0,5.037999999999897
187,2,0.8,1.0,35.0,1,1.0,0.21039999999982228
188,2,0.8,0.0,35.0,1,1.0,0.2568999999998596
189,2,0.8,1.0,35.0,1,1.0,0.18999999999994088
190,2,0.8,0.25,-35.0,-1,1.0,0.2708999999998696
191,2,0.8,0.0625,35.0,1,1.0,0.6524999999999181
192,2,0.2,0.0,35.0,-1,0.0,1.068800999999894
193,2,0.2,0.0625,35.0,1,1.0,0.31189999999992324
194,2,0.2,1.0,35.0,1,1.0,0.21229999999991378
195,2,0.2,0.0,35.0,-1,0.0,1.6149999999998954
196,2,0.2,0.0,35.0,-1,0.0,0.2542999999998301
197,2,0.2,1.0,35.0,1,1.0,0.2357999999999265
198,2,0.2,0.25,35.0,1,1.0,0.42809999999997217
199,2,0.2,0.0,-35.0,-1,1.0,3.172900000000027
200,2,0.2,1.0,35.0,1,1.0,0.20679999999993015
201,2,0.2,0.25,35.0,1,1.0,0.4535999999999376
202,2,0.2,1.0,35.0,1,1.0,0.22089999999991505
203,2,0.2,0.0625,35.0,1,1.0,0.2483999999998332
204,2,0.2,0.25,35.0,1,1.0,0.2559999999998581
205,2,0.2,0.25,35.0,1,1.0,0.2074000000000069
206,2,0.2,0.25,-35.0,-1,1.0,0.27089999999998327
207,2,0.2,0.25,35.0,1,1.0,0.25139999999998963
208,2,0.2,0.25,35.0,1,1.0,0.22859999999991487
209,2,0.2,0.125,35.0,1,1.0,0.23499999999989996
210,2,0.2,0.0625,35.0,1,1.0,0.24679999999989377
211,2,0.2,0.0,35.0,1,1.0,0.28779999999994743
212,2,0.2,0.25,35.0,1,1.0,0.28680099999985487
213,2,0.2,0.25,35.0,1,1.0,0.35589999999990596
214,2,0.2,1.0,35.0,1,1.0,0.17880000000002383
215,2,0.2,0.25,-35.0,-1,1.0,0.3430999999999358
216,2,0.2,0.125,35.0,1,1.0,0.35130000000003747
217,2,0.2,0.125,35.0,1,1.0,0.3268009999999322
218,2,0.2,1.0,35.0,1,1.0,0.2880010000000084
219,2,0.2,0.0,35.0,-1,0.0,1.4578010000000177
220,2,0.2,0.25,35.0,1,1.0,0.24299999999993815
221,2,0.2,0.25,35.0,1,1.0,0.25739999999996144
222,2,0.2,1.0,35.0,1,1.0,0.30179999999984375
223,2,0.2,0.25,35.0,1,1.0,0.24719999999990705
224,2,0.2,0.125,35.0,1,1.0,0.4609009999999216
225,2,0.2,0.0,35.0,1,1.0,0.2458009999999149
226,2,0.2,0.25,35.0,1,1.0,0.3288000000000011
227,2,0.2,0.125,-35.0,-1,1.0,0.5538009999999076
228,2,0.2,0.125,35.0,1,1.0,0.29399999999986903
229,2,0.2,0.25,35.0,1,1.0,0.23719999999991614
230,2,0.2,0.25,35.0,1,1.0,0.21679999999992106
231,2,0.2,0.0625,35.0,1,1.0,2.8092009999999163
232,2,0.2,0.25,35.0,1,1.0,0.23879999999985557
233,2,0.2,0.0,35.0,1,1.0,0.34829999999988104
234,2,0.2,0.25,35.0,1,1.0,0.3708999999998923
235,2,0.2,1.0,-35.0,-1,1.0,0.3586999999998852
236,2,0.2,0.125,35.0,1,1.0,1.1517999999999802
237,2,0.2,0.0,-35.0,1,0.0,1.9157000000000153
238,2,0.2,0.25,35.0,1,1.0,0.241800000000012
239,2,0.2,0.0625,35.0,1,1.0,0.24339999999995143
240,2,0.2,0.25,-35.0,-1,1.0,0.3446999999999889
241,2,0.2,0.125,35.0,1,1.0,0.2237999999999829
242,2,0.2,0.25,35.0,1,1.0,0.2338009999998576
243,2,0.2,0.25,-35.0,-1,1.0,0.4249999999999545
244,2,0.2,0.25,35.0,1,1.0,0.2281999999999016
245,2,0.2,0.0625,35.0,1,1.0,0.21119999999996253
246,2,0.2,0.0,35.0,1,1.0,8.16109999999992
247,2,0.2,0.0625,35.0,-1,0.0,0.22950000000003
248,2,0.2,1.0,35.0,1,1.0,0.22690000000000055
249,2,0.2,1.0,35.0,1,1.0,0.4997999999999365
250,2,0.2,0.25,35.0,-1,0.0,0.14079999999989923
251,2,0.2,1.0,35.0,1,1.0,0.326300999999944
252,2,0.2,0.25,35.0,1,1.0,0.2538999999999305
253,2,0.2,0.125,-35.0,1,0.0,0.2798999999999978
254,2,0.2,0.25,35.0,1,1.0,0.21070000000008804
255,2,0.2,0.0625,-35.0,-1,1.0,0.30979999999999563
256,2,0.2,1.0,35.0,1,1.0,0.23080000000004475
257,2,0.2,0.25,-35.0,-1,1.0,0.276801000000205
258,2,0.2,0.0,35.0,-1,0.0,0.577900000000227
259,2,0.2,0.0625,-35.0,-1,1.0,0.26680000000010295
260,2,0.2,1.0,35.0,1,1.0,0.21460000000001855
261,2,0.2,0.0625,-35.0,-1,1.0,1.8206010000001243
262,2,0.2,0.0,-35.0,1,0.0,0.09170100000005732
263,2,0.8,0.0,35.0,1,1.0,0.6705000000001746
264,2,0.8,0.0,-35.0,-1,1.0,0.34720100000004095
265,2,0.8,0.0625,-35.0,-1,1.0,0.4273000000000593
266,2,0.8,0.0625,-35.0,-1,1.0,0.428300000000263
267,2,0.8,0.0625,-35.0,-1,1.0,0.4774999999999636
268,2,0.8,0.0625,-35.0,-1,1.0,0.30870100000015555
269,2,0.8,0.125,-35.0,-1,1.0,0.6011009999999715
270,2,0.8,0.0625,-35.0,-1,1.0,1.0886000000000422
271,2,0.8,0.0625,35.0,1,1.0,0.2578000000000884
272,2,0.8,0.125,35.0,1,1.0,0.22870000000011714
273,2,0.8,1.0,35.0,1,1.0,0.3812000000000353
274,2,0.8,0.25,-35.0,-1,1.0,0.28880000000003747
275,2,0.8,1.0,-35.0,-1,1.0,0.2614000000000942
276,2,0.8,0.125,35.0,1,1.0,0.23240000000032524
277,2,0.8,1.0,-35.0,-1,1.0,0.2815009999999347
278,2,0.8,0.0625,-35.0,-1,1.0,0.3527010000000246
279,2,0.8,0.125,-35.0,-1,1.0,0.26499999999987267
280,2,0.8,1.0,-35.0,-1,1.0,0.6791000000000622
281,2,0.8,0.0,-35.0,-1,1.0,0.2617999999999938
282,2,0.8,1.0,-35.0,-1,1.0,0.24589999999989232
283,2,0.8,0.0625,-35.0,-1,1.0,3.0817000000001826
284,2,0.8,0.0,-35.0,-1,1.0,0.35609999999996944
285,2,0.8,0.0,-35.0,1,0.0,0.09529999999995198
286,2,0.8,0.0625,-35.0,-1,1.0,0.26310000000012224
287,2,0.8,0.125,-35.0,-1,1.0,0.24880000000007385
288,2,0.8,1.0,-35.0,-1,1.0,0.2929999999998927
289,2,0.8,0.0625,-35.0,-1,1.0,3.7257009999998445
290,2,0.8,0.0,-35.0,-1,1.0,1.763300000000072
291,2,0.8,0.125,-35.0,-1,1.0,0.35590099999990343
292,2,0.8,0.0,-35.0,-1,1.0,0.3706999999999425
293,2,0.8,0.125,35.0,1,1.0,0.24270000000001346
294,2,0.8,0.25,-35.0,-1,1.0,0.4701999999999771
295,2,0.8,0.25,-35.0,-1,1.0,0.47280000000000655
296,2,0.8,0.0625,-35.0,-1,1.0,0.48060000000009495
297,2,0.8,0.25,-35.0,-1,1.0,4.36280099999999
298,2,0.8,0.125,-35.0,-1,1.0,0.33730000000014115
299,2,0.8,0.0,-35.0,-1,1.0,3.01299999999992
300,2,0.8,0.0,-35.0,-1,1.0,0.3506999999999607
301,2,0.8,0.0,-35.0,1,0.0,4.073201000000154
302,2,0.8,1.0,-35.0,-1,1.0,0.2543000000000575
303,2,0.8,0.125,-35.0,-1,1.0,1.300000000000182
304,2,0.8,0.0625,-35.0,-1,1.0,2.3643999999999323
305,2,0.8,1.0,35.0,1,1.0,0.2837000000001808
306,2,0.8,0.125,-35.0,-1,1.0,0.3046999999999116
307,2,0.8,0.0625,-35.0,-1,1.0,5.23050000000012
308,2,0.8,1.0,-35.0,-1,1.0,0.33789999999999054
309,2,0.8,0.125,-35.0,-1,1.0,0.45060000000012224
310,2,0.8,0.0625,-35.0,-1,1.0,4.268700000000081
311,2,0.8,0.0625,-35.0,-1,1.0,0.4009000000000924
312,2,0.8,0.0,-35.0,1,0.0,0.3284000000001015
313,2,0.8,0.0,35.0,1,1.0,0.2743000000000393
314,2,0.8,0.0,-35.0,1,0.0,0.25850000000014006
315,2,0.8,0.125,-35.0,-1,1.0,0.6675999999999931
316,2,0.8,0.0,-35.0,1,0.0,6.951800000000048
317,2,0.8,0.0,-35.0,1,0.0,0.2416000000000622
318,2,0.8,0.0625,-35.0,-1,1.0,0.6487999999999374
319,2,0.8,0.0,35.0,-1,0.0,3.4180999999998676
320,2,0.8,0.125,35.0,1,1.0,0.23580100000003767
321,2,0.8,0.0625,-35.0,1,0.0,2.3616010000000642
322,2,0.8,0.0625,-35.0,-1,1.0,0.3293999999998505
323,2,0.8,0.25,-35.0,-1,1.0,0.3385000000000673
324,2,0.8,0.125,35.0,1,1.0,5.352700000000141
325,2,0.8,0.0,-35.0,1,0.0,0.42190000000005057
326,2,0.8,1.0,35.0,1,1.0,0.22959999999989122
327,2,0.8,0.0625,-35.0,-1,1.0,0.48890099999994163
328,2,0.8,1.0,-35.0,-1,1.0,0.3967000000000098
329,2,0.8,0.25,-35.0,-1,1.0,0.49250000000006366
330,2,0.8,1.0,-35.0,-1,1.0,0.4832000000001244
331,2,0.8,0.0,-35.0,1,0.0,2.499001000000135
332,2,0.8,1.0,35.0,1,1.0,0.2036000000000513
333,2,0.8,0.0625,-35.0,1,0.0,6.035900000000083
334,2,0.8,0.25,-35.0,-1,1.0,0.2437999999999647
335,2,0.8,1.0,-35.0,-1,1.0,0.40960000000018226
336,2,0.8,0.125,-35.0,-1,1.0,1.6471009999997932
337,2,0.8,0.25,-35.0,-1,1.0,1.0963000000001557
338,2,0.8,1.0,-35.0,-1,1.0,0.3576010000001588
339,2,0.8,0.25,-35.0,-1,1.0,0.2764999999999418
340,2,0.8,0.0,35.0,-1,0.0,0.3044999999999618
341,2,0.8,0.25,-35.0,-1,1.0,0.3267000000000735
342,2,0.8,1.0,-35.0,-1,1.0,0.28450000000020736
343,2,0.8,0.125,35.0,1,1.0,0.24680100000000493
344,2,0.8,0.125,-35.0,-1,1.0,3.7008999999998196
345,2,0.8,0.25,-35.0,-1,1.0,0.3868999999999687
346,2,0.2,0.0625,35.0,1,1.0,0.3485000000000582
347,2,0.2,1.0,35.0,1,1.0,0.21060000000011314
348,2,0.2,0.125,35.0,1,1.0,0.5245010000001002
349,2,0.2,1.0,35.0,1,1.0,0.4205000000001746
350,2,0.2,0.125,35.0,1,1.0,0.2616010000001552
351,2,0.2,0.125,35.0,1,1.0,0.3774999999998272
352,2,0.2,0.25,35.0,1,1.0,0.3486000000002605
353,2,0.2,0.125,35.0,1,1.0,0.29410100000018247
354,2,0.2,0.125,35.0,1,1.0,0.2984000000001288
355,2,0.2,0.25,-35.0,-1,1.0,0.2742000000000644
356,2,0.2,0.0625,-35.0,-1,1.0,0.592600000000175
357,2,0.2,0.125,35.0,1,1.0,0.2576000000001386
358,2,0.2,0.0625,35.0,1,1.0,0.4352999999998701
359,2,0.2,0.125,-35.0,1,0.0,0.2644999999999982
360,2,0.2,0.0625,35.0,1,1.0,0.2418999999999869
361,2,0.2,1.0,35.0,1,1.0,0.22460000000000946
362,2,0.2,0.125,35.0,1,1.0,0.4157000000000153
363,2,0.2,1.0,35.0,1,1.0,0.25469999999995707
364,2,0.2,0.125,35.0,1,1.0,0.29890000000023065
365,2,0.2,1.0,35.0,1,1.0,0.20149999999989632
366,2,0.2,1.0,-35.0,-1,1.0,0.2725000000000364
367,2,0.2,0.25,35.0,1,1.0,0.29160000000001673
368,2,0.2,0.25,35.0,1,1.0,0.23280000000022483
369,2,0.2,0.25,-35.0,-1,1.0,0.36839999999983775
370,2,0.2,0.0625,35.0,-1,0.0,1.592600000000175
371,2,0.2,0.125,35.0,1,1.0,0.24860000000012406
372,2,0.2,0.0,35.0,1,1.0,1.1464999999998327
373,2,0.2,1.0,-35.0,-1,1.0,0.24870000000009895
374,2,0.2,0.0625,35.0,1,1.0,2.8465000000001055
375,2,0.2,0.0,35.0,1,1.0,0.17220000000020264
376,2,0.8,1.0,-35.0,-1,1.0,0.30330000000003565
377,2,0.8,0.0,-35.0,1,0.0,0.4857010000000628
378,2,0.8,0.0,-35.0,1,0.0,3.660000000000082
379,2,0.8,0.0,-35.0,1,0.0,0.23610000000007858
380,2,0.8,0.0,-35.0,-1,1.0,0.35690000000022337
381,2,0.8,0.0625,-35.0,-1,1.0,0.7294010000000526
382,2,0.8,1.0,-35.0,-1,1.0,0.2503999999998996
383,2,0.8,0.0625,-35.0,1,0.0,4.186400000000049
384,2,0.8,1.0,-35.0,-1,1.0,0.24050100000022212
385,2,0.8,0.0,-35.0,-1,1.0,0.3264000000001488
386,2,0.8,0.0625,-35.0,-1,1.0,0.2775000000001455
387,2,0.8,1.0,35.0,1,1.0,0.18659999999999854
388,2,0.8,0.0625,-35.0,-1,1.0,0.31750000000010914
389,2,0.8,0.0625,-35.0,-1,1.0,1.3233000000000175
390,2,0.8,0.125,-35.0,-1,1.0,0.6012010000001737
391,2,0.8,0.0,-35.0,1,0.0,0.26040000000011787
392,2,0.8,0.0,-35.0,-1,1.0,4.887699999999995
393,2,0.8,0.125,35.0,1,1.0,3.363900000000058
394,2,0.8,0.25,-35.0,-1,1.0,2.858400000000074
395,2,0.8,1.0,35.0,1,1.0,0.27070000000003347
396,2,0.8,0.0,-35.0,1,0.0,0.38850000000002183
397,2,0.8,0.125,-35.0,-1,1.0,0.3009010000002945
398,2,0.8,0.0625,35.0,1,1.0,6.241999999999962
399,2,0.8,1.0,-35.0,-1,1.0,0.22440000000005966
400,2,0.8,0.0625,-35.0,-1,1.0,0.5954999999999018
401,2,0.8,0.0625,-35.0,1,0.0,15.9679000000001
402,2,0.8,0.25,-35.0,-1,1.0,0.5759010000001581
403,2,0.8,0.125,-35.0,-1,1.0,0.3950000000002092
404,2,0.8,0.0625,-35.0,-1,1.0,3.766399999999976
405,2,0.8,0.25,-35.0,-1,1.0,0.8152999999999793
406,2,0.8,0.0625,35.0,1,1.0,12.383400000000165
407,2,0.8,0.25,-35.0,-1,1.0,3.8990000000001146
408,2,0.8,0.25,35.0,1,1.0,3.8799009999997907
409,2,0.8,0.25,-35.0,-1,1.0,0.5325009999999111
410,2,0.8,0.125,-35.0,-1,1.0,0.4234000000001288
411,2,0.8,0.0,-35.0,1,0.0,19.31269999999995
412,2,0.8,0.125,-35.0,-1,1.0,0.6006999999999607
413,2,0.8,0.0625,-35.0,-1,1.0,0.30310000000008586
414,2,0.8,0.25,-35.0,-1,1.0,0.2640000000001237
415,2,0.8,0.0625,-35.0,-1,1.0,0.3164999999999054
416,2,0.8,0.25,-35.0,-1,1.0,0.2775010000000293
417,2,0.8,0.0,35.0,1,1.0,1.7434999999998126
418,2,0.8,0.25,-35.0,-1,1.0,0.46130100000027596
419,2,0.8,0.0,35.0,1,1.0,4.373499999999922
420,2,0.8,0.125,-35.0,-1,1.0,4.358399999999847
421,2,0.8,0.25,35.0,1,1.0,0.2637999999999465
422,2,0.8,1.0,-35.0,-1,1.0,0.3317010000000664
423,2,0.8,0.0625,-35.0,1,0.0,0.38390000000003965
424,2,0.8,0.0625,-35.0,-1,1.0,6.291500000000042
425,2,0.8,0.25,-35.0,-1,1.0,0.9175000000000182
426,2,0.8,0.25,35.0,1,1.0,0.5009010000001126
427,2,0.8,0.125,-35.0,1,0.0,0.37779999999997926
428,2,0.8,0.0625,-35.0,-1,1.0,0.3418010000000322
429,2,0.8,0.125,-35.0,-1,1.0,0.25460000000020955
430,2,0.8,0.0625,-35.0,-1,1.0,0.6622999999999593
431,2,0.8,1.0,-35.0,-1,1.0,0.3046000000001641
432,2,0.8,0.0,-35.0,-1,1.0,5.716301000000158
433,2,0.8,1.0,-35.0,-1,1.0,0.29500000000030013
434,2,0.8,0.25,-35.0,-1,1.0,0.30939999999986867
435,2,0.8,0.0,35.0,-1,0.0,4.875
436,2,0.8,0.125,-35.0,-1,1.0,0.589301000000205
437,2,0.8,0.125,-35.0,-1,1.0,0.34850100000016937
438,2,0.8,0.25,35.0,1,1.0,1.809400000000096
439,2,0.8,0.0625,-35.0,-1,1.0,0.6754000000000815
440,2,0.8,0.125,35.0,1,1.0,0.24639999999999418
441,2,0.8,0.125,-35.0,-1,1.0,0.5189000000002579
442,2,0.8,1.0,-35.0,-1,1.0,0.6630999999999858
443,2,0.2,0.25,35.0,1,1.0,0.4522999999999229
444,2,0.2,0.125,35.0,1,1.0,0.46659999999997126
445,2,0.2,0.0625,35.0,1,1.0,0.5193000000001575
446,2,0.2,0.25,35.0,1,1.0,0.8201000000001386
447,2,0.2,0.125,35.0,1,1.0,0.27599999999983993
448,2,0.2,0.125,-35.0,-1,1.0,1.0968000000002576
449,2,0.2,0.0625,-35.0,-1,1.0,0.9463000000000648
450,2,0.2,0.0,-35.0,-1,1.0,0.510300000000143
451,2,0.2,0.125,35.0,1,1.0,0.26630100000011225
452,2,0.2,0.0625,-35.0,-1,1.0,0.380500000000211
453,2,0.2,0.0,-35.0,-1,1.0,0.10969999999997526
454,2,0.2,0.125,35.0,1,1.0,3.5972999999999047
455,2,0.2,0.0625,35.0,1,1.0,0.2663000000000011
456,2,0.2,0.0,35.0,-1,0.0,0.3843010000002778
457,2,0.2,1.0,35.0,1,1.0,0.1968010000000504
458,2,0.2,0.125,-35.0,-1,1.0,1.3344999999999345
459,2,0.2,0.0625,35.0,1,1.0,0.2702999999999065
460,2,0.2,1.0,35.0,1,1.0,0.244499999999789
461,2,0.2,0.0,35.0,1,1.0,0.39030000000002474
462,2,0.2,0.0625,35.0,1,1.0,4.551301000000194
463,2,0.2,0.0625,35.0,1,1.0,0.3137000000001535
464,2,0.2,0.0625,35.0,1,1.0,0.26470100000005914
465,2,0.2,1.0,35.0,1,1.0,0.21390000000019427
466,2,0.2,0.0,-35.0,1,0.0,0.4440999999999349
467,2,0.2,0.0,35.0,1,1.0,0.2916010000001279
468,2,0.2,0.0,-35.0,1,0.0,0.2574000000001888
469,2,0.2,0.25,35.0,1,1.0,0.2050010000000384
470,2,0.2,0.0,35.0,-1,0.0,0.911200000000008
471,2,0.2,1.0,35.0,1,1.0,0.23540100000013808
472,2,0.2,1.0,-35.0,-1,1.0,1.1312010000003738
473,2,0.2,0.125,35.0,1,1.0,0.30220100000019556
474,2,0.2,0.25,-35.0,-1,1.0,0.26120000000014443
475,2,0.2,0.0625,35.0,-1,0.0,5.735500000000002
476,2,0.2,0.0,35.0,-1,0.0,4.605199999999968
477,2,0.2,1.0,35.0,1,1.0,0.3225999999999658
478,2,0.2,0.0625,35.0,1,1.0,0.31169999999997344
479,2,0.2,1.0,35.0,1,1.0,0.2832010000001901
480,2,0.2,1.0,35.0,1,1.0,0.2618999999999687
481,2,0.2,0.125,35.0,1,1.0,0.17620099999976446
482,2,0.2,0.125,-35.0,-1,1.0,0.3587000000002263
483,2,0.2,0.0,35.0,1,1.0,4.646400000000085
484,2,0.2,0.0,35.0,1,1.0,2.60550000000012
485,2,0.2,0.0,35.0,1,1.0,0.6532000000001972
486,2,0.2,0.0,35.0,1,1.0,10.355700999999954
487,2,0.2,0.0,35.0,1,1.0,4.213400000000092
488,2,0.2,0.125,35.0,1,1.0,0.4695000000001528
489,2,0.2,1.0,35.0,1,1.0,0.2838010000000395
490,2,0.2,1.0,35.0,1,1.0,0.21630000000004657
491,2,0.2,1.0,35.0,1,1.0,1.6103000000002794
492,2,0.2,0.0,35.0,1,1.0,3.9161999999996624
493,2,0.8,0.25,-35.0,-1,1.0,0.2773000000001957
494,2,0.8,0.0625,35.0,1,1.0,0.29650000000037835
495,2,0.8,0.0,-35.0,-1,1.0,0.868199999999888
496,2,0.8,0.125,-35.0,-1,1.0,0.5835000000001855
497,2,0.8,0.0,-35.0,1,0.0,0.3751999999999498
498,2,0.8,0.125,-35.0,-1,1.0,0.39039999999977226
499,2,0.8,0.25,35.0,1,1.0,0.2417000000000371
500,2,0.8,0.0625,-35.0,-1,1.0,0.09380099999998492
501,2,0.8,0.25,-35.0,-1,1.0,0.23800000000028376
502,2,0.8,0.0625,-35.0,-1,1.0,0.32720000000017535
503,2,0.8,0.125,-35.0,-1,1.0,1.8217009999998481
504,2,0.8,0.125,35.0,1,1.0,0.5239999999998872
505,2,0.8,1.0,-35.0,-1,1.0,0.27149999999983265
506,2,0.8,0.125,-35.0,-1,1.0,0.534099999999853
507,2,0.8,0.25,35.0,1,1.0,0.2420999999999367
508,2,0.8,1.0,-35.0,-1,1.0,0.41420000000016444
509,2,0.8,0.0,-35.0,-1,1.0,0.3486000000002605
510,2,0.8,0.0,-35.0,-1,1.0,0.4212000000002263
511,2,0.8,0.25,-35.0,-1,1.0,0.3322000000002845
512,2,0.8,0.0,35.0,-1,0.0,1.6378999999997177
513,2,0.8,0.0,35.0,1,1.0,2.838799999999992
514,2,0.8,1.0,-35.0,1,0.0,0.10130100000014863
515,2,0.8,0.125,-35.0,-1,1.0,0.42610000000013315
516,2,0.8,1.0,-35.0,-1,1.0,0.3150999999998021
517,2,0.8,0.25,-35.0,-1,1.0,0.23909999999978027
518,2,0.8,1.0,-35.0,-1,1.0,0.2617000000000189
519,2,0.8,0.125,-35.0,-1,1.0,0.2830999999996493
520,2,0.8,0.0,-35.0,1,0.0,0.5117000000000189
521,2,0.8,0.25,-35.0,-1,1.0,0.2500999999997475
522,2,0.8,0.25,-35.0,-1,1.0,0.29850000000033106
523,2,0.8,0.25,-35.0,-1,1.0,2.0661009999998896
524,2,0.8,0.25,-35.0,-1,1.0,0.26530000000002474
525,2,0.8,0.0625,-35.0,-1,1.0,0.29009999999971114
526,2,0.8,0.0,-35.0,-1,1.0,1.4155009999999493
527,2,0.8,0.25,-35.0,-1,1.0,0.7031999999999243
528,2,0.8,0.25,-35.0,-1,1.0,0.2656000000001768
529,2,0.8,0.0625,-35.0,-1,1.0,0.364100000000235
530,2,0.2,0.125,35.0,1,1.0,0.3024000000000342
531,2,0.2,1.0,35.0,1,1.0,0.25999999999976353
532,2,0.2,1.0,35.0,1,1.0,1.9891999999999825
533,2,0.2,1.0,35.0,1,1.0,0.19010100000014063
534,2,0.2,1.0,35.0,1,1.0,0.24929999999994834
535,2,0.2,0.0,35.0,1,1.0,0.4535999999998239
536,2,0.2,0.0625,35.0,1,1.0,0.2361999999998261
537,2,0.2,0.25,35.0,1,1.0,0.20389999999952124
538,2,0.2,0.125,35.0,1,1.0,0.4362999999998465
539,2,0.2,0.0625,35.0,1,1.0,0.2906009999996968
540,2,0.2,0.25,-35.0,-1,1.0,0.3101000000001477
541,2,0.2,0.25,35.0,1,1.0,0.22739999999976135
542,2,0.2,0.0625,35.0,1,1.0,3.1500999999998385
543,2,0.2,1.0,35.0,1,1.0,0.2242999999998574
544,2,0.2,0.0,35.0,1,1.0,2.7467000000001462
545,2,0.2,0.0625,35.0,1,1.0,0.36109999999962383
546,2,0.2,1.0,-35.0,-1,1.0,0.20700099999976374
547,2,0.2,1.0,35.0,1,1.0,0.24119999999993524
548,2,0.2,0.125,35.0,1,1.0,2.3270999999995183
549,2,0.2,0.0625,35.0,1,1.0,0.24479999999994106
550,2,0.2,1.0,35.0,1,1.0,0.18389999999999418
551,2,0.2,0.125,35.0,1,1.0,0.24160000000028958
552,2,0.2,0.25,-35.0,-1,1.0,0.3241000000002714
553,2,0.2,0.0,35.0,-1,0.0,0.3119000000001506
554,2,0.2,1.0,35.0,1,1.0,0.2541999999998552
555,2,0.2,0.25,-35.0,-1,1.0,1.3850009999996473
556,2,0.2,0.125,35.0,1,1.0,0.28099999999994907
557,2,0.2,1.0,35.0,1,1.0,0.2353000000002794
558,2,0.2,1.0,35.0,1,1.0,0.43449999999984357
559,2,0.2,1.0,35.0,1,1.0,0.1954000000000633
560,2,0.2,0.0,35.0,1,1.0,0.36130099999991216
561,2,0.2,0.0,-35.0,1,0.0,0.34890000000041255
562,2,0.2,0.125,35.0,1,1.0,0.26809999999977663
563,2,0.2,1.0,35.0,1,1.0,0.2031000000001768
564,2,0.2,0.25,35.0,1,1.0,1.2047999999999774
565,2,0.2,0.0,35.0,1,1.0,2.49579999999969
566,2,0.2,0.125,-35.0,-1,1.0,0.9585000000001855
567,2,0.2,0.0,35.0,1,1.0,1.6799999999998363
568,2,0.2,0.0,35.0,1,1.0,4.6919999999995525
569,2,0.2,0.125,35.0,1,1.0,0.27620000000024447
570,2,0.2,0.0625,35.0,1,1.0,1.5620999999996457
571,2,0.2,0.0625,-35.0,-1,1.0,0.8969999999999345
572,2,0.2,0.0625,35.0,1,1.0,0.3224009999998998
573,2,0.2,0.0,35.0,-1,0.0,0.3602000000000771
574,2,0.2,1.0,-35.0,-1,1.0,0.25600000000031287
575,2,0.2,1.0,35.0,1,1.0,0.2534009999999398
576,2,0.2,0.0625,35.0,-1,0.0,0.3425999999999476
577,2,0.2,0.0625,-35.0,-1,1.0,0.3304000000002816
578,2,0.2,1.0,35.0,1,1.0,0.20599999999967622
579,2,0.2,0.0,-35.0,1,0.0,1.73050000000012
580,2,0.2,0.0625,35.0,1,1.0,0.16300000000001091
581,2,0.2,0.25,-35.0,-1,1.0,0.4338999999999942
582,2,0.2,0.0,35.0,-1,0.0,3.619999999999891
583,2,0.2,0.25,35.0,1,1.0,0.27739999999994325
584,2,0.2,0.0625,-35.0,1,0.0,0.42000000000007276
585,2,0.2,1.0,-35.0,-1,1.0,0.26430000000027576
586,2,0.2,0.25,-35.0,-1,1.0,0.6068000000000211
587,2,0.2,0.0625,35.0,1,1.0,2.377700000000459
588,2,0.2,0.25,35.0,1,1.0,0.25700099999994563
589,2,0.2,0.0625,35.0,1,1.0,0.48800000000028376
590,2,0.2,0.25,-35.0,-1,1.0,0.2803009999997812
591,2,0.2,0.125,35.0,1,1.0,0.2680000000000291
592,2,0.2,0.25,-35.0,-1,1.0,0.2672000000002299
593,2,0.2,1.0,35.0,1,1.0,0.2780999999999949
594,2,0.2,0.125,35.0,1,1.0,0.2773000000001957
595,2,0.2,1.0,35.0,1,1.0,0.21820100000013554
1,3,0.5,1.0,-35.0,-1,1.0,0.6648999999999998
2,3,0.5,0.25,35.0,1,1.0,7.9741
3,3,0.5,0.0,-35.0,-1,1.0,15.770800000000001
4,3,0.5,1.0,35.0,1,1.0,0.43730000000000047
5,3,0.5,0.0,-35.0,-1,1.0,27.774600999999997
6,3,0.5,0.125,-35.0,-1,1.0,56.73730099999999
7,3,0.5,1.0,-35.0,-1,1.0,0.3627999999999929
8,3,0.5,0.0625,-35.0,-1,1.0,0.36370100000002026
9,3,0.5,0.0625,35.0,1,1.0,1.1870000000000118
10,3,0.5,0.0,35.0,1,1.0,6.568701000000004
11,3,0.5,0.0625,-35.0,-1,1.0,1.1167010000000346
12,3,0.5,1.0,-35.0,-1,1.0,0.2546000000000106
13,3,0.5,0.0625,-35.0,-1,1.0,5.654300000000006
14,3,0.5,0.0,-35.0,1,0.0,3.6522999999999968
15,3,0.5,0.0625,35.0,1,1.0,5.158299999999997
16,3,0.5,1.0,-35.0,-1,1.0,0.45290100000002553
17,3,0.5,1.0,35.0,1,1.0,0.21960100000001148
18,3,0.5,0.25,-35.0,-1,1.0,0.3426000000000329
19,3,0.5,1.0,35.0,1,1.0,0.23800000000002797
20,3,0.5,1.0,-35.0,-1,1.0,0.24459999999999127
21,3,0.5,0.0,35.0,1,1.0,15.262000000000029
22,3,0.5,0.0,35.0,-1,0.0,4.983500000000021
23,3,0.5,0.0625,-35.0,-1,1.0,0.3322000000000003
24,3,0.5,1.0,-35.0,-1,1.0,0.2667000000000428
25,3,0.5,0.125,-35.0,-1,1.0,0.28000000000000114
26,3,0.5,0.25,-35.0,-1,1.0,0.2857999999999947
27,3,0.5,0.125,-35.0,-1,1.0,2.7362010000000225
28,3,0.5,0.25,35.0,1,1.0,0.5665000000000191
29,3,0.5,0.0,-35.0,-1,1.0,0.30459999999999354
30,3,0.5,0.125,35.0,1,1.0,0.25260000000002947
31,3,0.5,0.25,35.0,1,1.0,0.9097999999999615
32,3,0.5,0.0625,35.0,1,1.0,0.7526000000000295
33,3,0.5,0.125,35.0,1,1.0,0.3061999999999898
34,3,0.5,1.0,-35.0,-1,1.0,0.4068000000000893
35,3,0.5,0.25,-35.0,-1,1.0,0.30630000000002156
36,3,0.5,0.125,35.0,1,1.0,0.2758000000000038
37,3,0.5,0.25,-35.0,-1,1.0,0.29260000000004993
38,3,0.5,0.0,-35.0,-1,1.0,0.3866999999999621
39,3,0.5,0.0625,-35.0,-1,1.0,1.4469000000000278
40,3,0.5,0.0,-35.0,-1,1.0,12.984599999999944
41,3,0.5,0.125,-35.0,1,0.0,3.4446000000000367
42,3,0.5,0.125,35.0,1,1.0,0.37969999999995707
43,3,0.5,0.0625,35.0,1,1.0,0.7355000000000018
44,3,0.5,1.0,-35.0,-1,1.0,0.333500000000015
45,3,0.5,1.0,-35.0,-1,1.0,0.677599999999984
46,3,0.5,1.0,-35.0,-1,1.0,0.22460000000000946
47,3,0.5,1.0,-35.0,-1,1.0,0.45299999999997453
48,3,0.5,0.0625,35.0,-1,0.0,2.322599999999966
49,3,0.5,0.0,-35.0,1,0.0,2.338600000000042
50,3,0.5,0.0625,-35.0,1,0.0,7.2128999999999905
51,3,0.5,0.0,-35.0,1,0.0,1.310200000000009
52,3,0.5,0.0625,-35.0,-1,1.0,1.4157999999999902
53,3,0.5,0.0625,-35.0,1,0.0,0.5869000000000142
54,3,0.5,1.0,35.0,1,1.0,0.3002999999999929
55,3,0.5,1.0,-35.0,-1,1.0,0.29419999999998936
56,3,0.5,0.25,-35.0,-1,1.0,2.7058000000000106
57,3,0.5,0.25,-35.0,-1,1.0,1.0610999999999535
58,3,0.5,0.125,-35.0,-1,1.0,0.2746000000000208
59,3,0.5,0.25,35.0,1,1.0,0.2857000000000198
60,3,0.5,0.0,-35.0,-1,1.0,0.6267999999999461
61,3,0.5,1.0,35.0,1,1.0,0.26149999999995543
62,3,0.5,1.0,-35.0,-1,1.0,0.2439000000000533
63,3,0.5,0.0625,-35.0,-1,1.0,0.46860000000003765
64,3,0.5,0.0,-35.0,1,0.0,6.078701000000024
65,3,0.5,1.0,35.0,1,1.0,0.2979000000000269
66,3,0.5,0.25,35.0,1,1.0,0.41259999999999764
67,3,0.5,1.0,35.0,1,1.0,0.4046000000000163
68,3,0.5,0.0625,35.0,1,1.0,0.5788000000000579
69,3,0.5,0.0,-35.0,1,0.0,0.47050000000001546
70,3,0.5,0.125,35.0,1,1.0,0.28260099999999966
71,3,0.5,0.25,-35.0,-1,1.0,0.5572999999999979
72,3,0.5,0.125,-35.0,-1,1.0,0.36690000000004375
73,3,0.5,0.125,35.0,1,1.0,0.47050100000001294
74,3,0.5,0.125,-35.0,-1,1.0,0.6199000000000296
75,3,0.5,0.0625,35.0,-1,0.0,0.31930099999999584
76,3,0.5,0.125,-35.0,-1,1.0,0.4071999999999889
77,3,0.5,1.0,-35.0,-1,1.0,0.39980000000002747
78,3,0.5,0.25,35.0,1,1.0,0.3029000000000224
79,3,0.5,1.0,35.0,1,1.0,0.28700000000003456
80,3,0.5,0.125,-35.0,-1,1.0,0.6804999999999382
81,3,0.5,0.0625,35.0,1,1.0,0.27120000000002165
82,3,0.5,0.25,35.0,1,1.0,0.2583010000000172
83,3,0.5,0.125,-35.0,-1,1.0,4.5160000000000196
84,3,0.5,0.125,35.0,1,1.0,4.337499999999977
85,3,0.5,0.0625,35.0,1,1.0,0.2717999999999847
86,3,0.5,0.25,35.0,1,1.0,0.459699999999998
87,3,0.5,0.125,-35.0,1,0.0,8.685600000000022
88,3,0.5,0.125,35.0,1,1.0,0.29659999999995534
89,3,0.5,0.25,35.0,1,1.0,0.38060000000001537
90,3,0.5,0.125,35.0,1,1.0,0.2515010000000757
91,3,0.2,1.0,-35.0,-1,1.0,0.24950000000001182
92,3,0.2,0.0,35.0,1,1.0,0.3484999999999445
93,3,0.2,0.25,35.0,1,1.0,0.22550000000001091
94,3,0.2,0.0,35.0,1,1.0,3.440400000000068
95,3,0.2,0.125,35.0,1,1.0,0.2696010000000797
96,3,0.2,0.0,35.0,1,1.0,0.3976000000000113
97,3,0.2,0.0,35.0,1,1.0,1.9448999999999614
98,3,0.2,0.125,35.0,1,1.0,0.43050000000005184
99,3,0.2,1.0,35.0,1,1.0,0.25240099999996346
100,3,0.2,0.0625,35.0,1,1.0,0.3532999999999902
101,3,0.2,1.0,35.0,1,1.0,0.40259999999989304
102,3,0.2,0.0,35.0,1,1.0,12.878501000000028
103,3,0.2,0.25,35.0,1,1.0,0.6528999999999314
104,3,0.2,0.125,-35.0,-1,1.0,0.5255010000000766
105,3,0.2,1.0,35.0,1,1.0,0.27080000000000837
106,3,0.2,0.0,35.0,-1,0.0,0.8027009999999564
107,3,0.2,0.25,35.0,1,1.0,0.45100000000002183
108,3,0.2,0.0625,-35.0,-1,1.0,5.832499999999982
109,3,0.2,0.25,35.0,1,1.0,0.24940000000003693
110,3,0.2,1.0,-35.0,-1,1.0,0.37170000000003256
111,3,0.2,0.0,-35.0,1,0.0,0.3199010000000726
112,3,0.2,1.0,35.0,1,1.0,0.17130099999997128
113,3,0.2,0.125,35.0,1,1.0,0.2502000000000635
114,3,0.2,0.0625,-35.0,-1,1.0,0.5095999999999776
115,3,0.2,1.0,35.0,1,1.0,0.4024010000000544
116,3,0.2,0.125,35.0,1,1.0,0.2921999999999798
117,3,0.2,0.25,35.0,1,1.0,0.44260000000008404
118,3,0.2,0.125,-35.0,-1,1.0,0.31890099999998256
119,3,0.2,0.125,35.0,1,1.0,0.27250100000003386
120,3,0.2,0.25,-35.0,-1,1.0,0.3492999999999711
121,3,0.2,1.0,-35.0,-1,1.0,0.2989000000000033
122,3,0.2,0.25,35.0,1,1.0,0.3482000000000198
123,3,0.2,0.125,35.0,1,1.0,0.25280000000009295
124,3,0.8,1.0,-35.0,-1,1.0,0.3684000000000651
125,3,0.8,0.125,35.0,1,1.0,0.33750000000009095
126,3,0.8,1.0,-35.0,-1,1.0,1.1315999999999349
127,3,0.8,1.0,-35.0,-1,1.0,0.3793000000000575
128,3,0.8,0.25,35.0,1,1.0,0.5180010000000266
129,3,0.8,1.0,-35.0,-1,1.0,0.30319999999994707
130,3,0.8,0.0,-35.0,-1,1.0,0.5115009999999529
131,3,0.8,0.25,-35.0,-1,1.0,0.38649999999995543
132,3,0.8,0.25,-35.0,-1,1.0,0.6178999999999633
133,3,0.8,0.0,-35.0,1,0.0,2.079599999999914
134,3,0.8,1.0,35.0,1,1.0,0.3605000000000018
135,3,0.8,0.125,-35.0,1,0.0,0.5493999999999915
136,3,0.8,0.0625,-35.0,1,0.0,0.4977009999998927
137,3,0.8,0.125,35.0,1,1.0,4.696799999999939
138,3,0.8,1.0,-35.0,-1,1.0,3.557600999999977
139,3,0.8,0.25,-35.0,1,0.0,1.3269999999999982
140,3,0.8,0.0625,35.0,-1,0.0,0.7595000000000027
141,3,0.8,0.125,-35.0,-1,1.0,4.398400000000038
142,3,0.8,1.0,-35.0,-1,1.0,0.31940099999997074
143,3,0.8,0.0,-35.0,1,0.0,4.913299999999936
144,3,0.8,0.0,-35.0,-1,1.0,0.4435000000000855
145,3,0.8,0.125,-35.0,-1,1.0,0.3119000000000369
146,3,0.8,0.0,-35.0,-1,1.0,0.3080999999999676
147,3,0.8,0.25,-35.0,-1,1.0,0.485300000000052
148,3,0.8,0.0625,-35.0,-1,1.0,1.493600000000015
149,3,0.8,0.0,-35.0,-1,1.0,4.13110000000006
150,3,0.8,1.0,-35.0,-1,1.0,0.2054000000000542
151,3,0.8,1.0,-35.0,-1,1.0,0.38330099999996037
152,3,0.8,1.0,-35.0,-1,1.0,0.308400000000006
153,3,0.8,0.0,-35.0,-1,1.0,0.4067000000001144
154,3,0.8,0.25,-35.0,-1,1.0,0.4247010000000273
155,3,0.8,0.125,-35.0,-1,1.0,0.1452999999999065
156,3,0.8,0.25,-35.0,-1,1.0,0.23590000000012878
157,3,0.8,0.0625,-35.0,-1,1.0,1.7296010000000024
158,3,0.8,0.125,-35.0,-1,1.0,0.3523999999999887
159,3,0.8,0.0,-35.0,-1,1.0,0.908800000000042
160,3,0.8,1.0,-35.0,-1,1.0,0.7237999999999829
161,3,0.8,0.125,-35.0,-1,1.0,0.4856000000000904
162,3,0.8,0.0,-35.0,-1,1.0,0.5033999999999423
163,3,0.8,0.125,-35.0,-1,1.0,2.627399999999966
164,3,0.8,0.25,-35.0,-1,1.0,0.3532999999999902
165,3,0.8,1.0,-35.0,-1,1.0,0.31749999999999545
166,3,0.8,0.25,-35.0,-1,1.0,0.283800000000042
167,3,0.8,0.0,-35.0,-1,1.0,0.5434000000001333
168,3,0.8,1.0,-35.0,-1,1.0,0.2604000000000042
169,3,0.8,0.0625,-35.0,-1,1.0,0.5935010000000602
170,3,0.8,1.0,-35.0,-1,1.0,0.33759999999995216
171,3,0.8,0.25,-35.0,-1,1.0,0.504301000000055
172,3,0.2,1.0,35.0,1,1.0,0.28480000000001837
173,3,0.2,0.125,-35.0,-1,1.0,5.615000000000123
174,3,0.2,0.0,35.0,-1,0.0,0.3065999999998894
175,3,0.2,0.25,35.0,1,1.0,0.4701999999999771
176,3,0.2,0.25,35.0,1,1.0,3.5335000000001173
177,3,0.2,0.0,35.0,1,1.0,5.111700000000042
178,3,0.2,0.125,35.0,1,1.0,0.6093009999999595
179,3,0.2,0.0625,35.0,-1,0.0,0.31179999999994834
180,3,0.2,0.25,35.0,1,1.0,0.3824000000000751
181,3,0.2,0.0,35.0,-1,0.0,0.7192999999999756
182,3,0.2,1.0,-35.0,-1,1.0,0.312300999999934
183,3,0.2,1.0,35.0,1,1.0,0.8779000000000678
184,3,0.2,0.125,35.0,1,1.0,0.42770100000007005
185,3,0.2,0.125,35.0,1,1.0,0.4556999999999789
186,3,0.2,0.125,35.0,1,1.0,0.3169000000000324
187,3,0.2,1.0,35.0,1,1.0,0.3653000000000475
188,3,0.2,0.25,35.0,1,1.0,0.30720100000007733
189,3,0.2,0.25,35.0,1,1.0,3.7420999999999367
190,3,0.2,0.25,35.0,1,1.0,0.2586999999998625
191,3,0.2,0.25,35.0,1,1.0,0.24639999999999418
192,3,0.2,0.125,35.0,1,1.0,0.2553010000000313
193,3,0.2,0.25,35.0,1,1.0,1.5383000000000493
194,3,0.8,0.0625,-35.0,1,0.0,0.35559999999998126
195,3,0.8,0.0625,-35.0,1,0.0,0.17200000000002547
196,3,0.8,0.0625,35.0,1,1.0,0.3109999999999218
197,3,0.8,0.125,-35.0,1,0.0,1.5144999999998845
198,3,0.8,0.25,-35.0,-1,1.0,0.43830099999991035
199,3,0.8,0.25,-35.0,1,0.0,0.1286010000000033
200,3,0.8,0.0625,-35.0,1,0.0,0.28530000000012024
201,3,0.8,0.0,35.0,1,1.0,3.34370100000001
202,3,0.8,0.25,-35.0,-1,1.0,3.0452999999999975
203,3,0.8,1.0,-35.0,-1,1.0,0.2962999999999738
204,3,0.8,0.0625,-35.0,-1,1.0,6.355300000000057
205,3,0.8,1.0,-35.0,-1,1.0,0.5675999999999704
206,3,0.8,0.25,-35.0,-1,1.0,2.5054000000001224
207,3,0.8,0.125,-35.0,-1,1.0,0.2742000000000644
208,3,0.8,0.0625,35.0,-1,0.0,4.361300000000028
209,3,0.8,0.0625,-35.0,1,0.0,1.5543000000001257
210,3,0.8,0.125,-35.0,-1,1.0,0.6517999999999802
211,3,0.8,0.125,-35.0,-1,1.0,0.6041999999999916
212,3,0.8,0.0625,-35.0,-1,1.0,0.5251000000000658
213,3,0.8,0.0625,35.0,-1,0.0,5.89429999999993
214,3,0.8,1.0,35.0,1,1.0,0.2886999999998352
215,3,0.8,0.0625,-35.0,1,0.0,4.201099999999997
216,3,0.8,0.25,-35.0,-1,1.0,0.4921999999999116
217,3,0.8,0.25,-35.0,-1,1.0,0.48469999999997526
218,3,0.8,0.0,-35.0,-1,1.0,5.121499999999742
219,3,0.8,0.0625,-35.0,-1,1.0,0.4716999999998279
220,3,0.8,1.0,-35.0,-1,1.0,0.22920099999987542
221,3,0.8,1.0,-35.0,-1,1.0,0.2852999999997792
222,3,0.8,1.0,-35.0,-1,1.0,0.20959999999990941
223,3,0.8,0.125,-35.0,-1,1.0,0.27520000000004075
224,3,0.8,0.25,-35.0,-1,1.0,0.5262009999999009
225,3,0.8,1.0,-35.0,-1,1.0,1.08199999999988
226,3,0.8,0.0625,-35.0,1,0.0,3.1161999999999352
227,3,0.2,0.0,35.0,-1,0.0,0.5788999999997486
228,3,0.2,0.25,-35.0,-1,1.0,0.2564999999997326
229,3,0.2,0.0625,35.0,1,1.0,6.96569999999997
230,3,0.2,0.0,35.0,1,1.0,6.793299999999817
231,3,0.2,0.0,35.0,1,1.0,0.5261999999997897
232,3,0.2,0.25,-35.0,-1,1.0,1.3603009999997084
233,3,0.2,0.0625,35.0,1,1.0,7.892799999999852
234,3,0.2,0.25,35.0,1,1.0,0.2440999999998894
235,3,0.2,0.125,35.0,1,1.0,0.4696999999998752
236,3,0.2,0.125,-35.0,-1,1.0,0.5141999999998461
237,3,0.2,0.25,35.0,1,1.0,0.2531999999996515
238,3,0.2,0.0625,35.0,1,1.0,0.5875999999998385
239,3,0.2,0.125,-35.0,-1,1.0,0.38679999999976644
240,3,0.2,0.25,-35.0,-1,1.0,0.314200000000028
241,3,0.2,1.0,35.0,1,1.0,0.2568999999998596
242,3,0.2,1.0,-35.0,-1,1.0,0.42429999999990287
243,3,0.2,0.25,35.0,1,1.0,0.2200999999997748
244,3,0.2,0.0,35.0,1,1.0,6.657999999999902
245,3,0.2,0.0,-35.0,1,0.0,0.3873000000000957
246,3,0.2,0.125,35.0,1,1.0,0.32829999999989923
247,3,0.2,0.0,35.0,1,1.0,6.463999999999714
248,3,0.2,0.25,35.0,1,1.0,0.4655999999999949
249,3,0.2,0.25,35.0,1,1.0,0.4741999999998825
250,3,0.2,0.125,35.0,1,1.0,1.0117999999999938
251,3,0.2,0.0625,35.0,-1,0.0,11.671000999999933
252,3,0.2,0.0,35.0,1,1.0,8.87869999999998
253,3,0.2,0.0625,-35.0,-1,1.0,3.114900000000034
254,3,0.2,1.0,35.0,1,1.0,3.422299999999723
255,3,0.2,1.0,35.0,1,1.0,0.33159999999998035
256,3,0.2,0.25,-35.0,-1,1.0,2.242699999999786
257,3,0.2,0.0625,35.0,-1,0.0,7.488600000000133
258,3,0.2,0.25,35.0,1,1.0,0.3296999999997752
259,3,0.2,0.0,35.0,1,1.0,0.6292000000000826
260,3,0.2,0.125,35.0,1,1.0,8.012999999999693
261,3,0.2,0.125,35.0,-1,0.0,1.435699999999997
262,3,0.2,1.0,35.0,1,1.0,0.3102999999998701
263,3,0.2,0.0625,-35.0,-1,1.0,0.4092999999998028
264,3,0.2,1.0,35.0,1,1.0,0.24710000000004584
265,3,0.2,0.0,35.0,-1,0.0,2.8293009999997594
266,3,0.2,0.0625,35.0,-1,0.0,10.857499999999845
267,3,0.2,0.0625,35.0,-1,0.0,5.966299999999819
268,3,0.2,0.25,35.0,-1,0.0,2.448100999999724
269,3,0.2,0.0625,35.0,-1,0.0,23.009999999999764
270,3,0.2,1.0,35.0,1,1.0,0.28150099999970735
271,3,0.2,0.0625,-35.0,-1,1.0,6.057199999999966
272,3,0.2,0.25,35.0,1,1.0,1.9382000000000517
273,3,0.2,0.0,35.0,-1,0.0,1.5910999999998694
274,3,0.2,1.0,35.0,1,1.0,0.30209999999988213
275,3,0.2,0.25,35.0,1,1.0,0.26779999999985193
276,3,0.2,0.25,35.0,1,1.0,0.2885999999998603
277,3,0.2,0.125,35.0,1,1.0,0.297800000000052
278,3,0.2,0.25,35.0,1,1.0,6.1220999999998185
279,3,0.2,1.0,35.0,1,1.0,0.22810000000004038
280,3,0.2,0.0625,35.0,1,1.0,0.3260999999999967
281,3,0.2,0.25,35.0,1,1.0,0.24820099999988088
282,3,0.2,1.0,35.0,1,1.0,0.2257999999999356
283,3,0.2,1.0,35.0,1,1.0,0.21510099999977683
284,3,0.2,0.0,35.0,1,1.0,4.382599999999911
285,3,0.2,0.0625,-35.0,-1,1.0,0.4352000000001226
286,3,0.2,0.25,35.0,1,1.0,0.31619999999975335
287,3,0.2,0.25,35.0,1,1.0,0.2985999999998512
288,3,0.2,0.25,35.0,1,1.0,1.3361999999999625
289,3,0.2,0.0,35.0,-1,0.0,11.66540000000009
290,3,0.2,0.0625,35.0,1,1.0,0.6170999999999367
291,3,0.2,0.0625,-35.0,1,0.0,0.36239999999975225
292,3,0.2,1.0,35.0,1,1.0,0.34999999999990905
293,3,0.8,0.0,-35.0,1,0.0,6.235899999999901
294,3,0.8,0.125,-35.0,-1,1.0,0.31719999999995707
295,3,0.8,0.25,-35.0,-1,1.0,0.33950000000004366
296,3,0.8,0.125,-35.0,-1,1.0,0.3739999999997963
297,3,0.8,0.125,-35.0,-1,1.0,0.2929999999998927
298,3,0.8,0.0,-35.0,-1,1.0,6.283999999999878
299,3,0.8,1.0,-35.0,-1,1.0,0.23979999999983193
300,3,0.8,0.125,-35.0,1,0.0,0.6842999999996664
301,3,0.8,0.125,-35.0,1,0.0,0.5199999999999818
302,3,0.8,0.25,35.0,1,1.0,1.0808999999999287
303,3,0.8,0.25,-35.0,-1,1.0,1.5700999999999112
304,3,0.8,1.0,-35.0,-1,1.0,0.43509999999992033
305,3,0.8,0.125,-35.0,1,0.0,12.72689999999966
306,3,0.8,0.25,-35.0,-1,1.0,0.48820099999989
307,3,0.8,0.0,-35.0,1,0.0,3.8074009999997998
308,3,0.8,0.125,-35.0,-1,1.0,0.33199999999987995
309,3,0.8,0.125,-35.0,-1,1.0,0.3407999999999447
310,3,0.8,0.0625,-35.0,1,0.0,3.8950999999997293
311,3,0.8,0.0625,-35.0,1,0.0,0.551001000000042
312,3,0.8,1.0,-35.0,-1,1.0,0.41860099999985323
313,3,0.8,0.125,-35.0,-1,1.0,0.9879000000000815
314,3,0.8,0.0,-35.0,-1,1.0,16.275499999999738
315,3,0.8,1.0,-35.0,-1,1.0,1.9114999999999327
316,3,0.8,0.0625,-35.0,-1,1.0,1.4424999999998818
317,3,0.8,0.125,-35.0,-1,1.0,8.865999999999985
318,3,0.8,0.0,-35.0,1,0.0,11.906099999999924
319,3,0.8,1.0,-35.0,-1,1.0,0.3554999999996653
320,3,0.8,0.25,-35.0,-1,1.0,4.789899999999989
321,3,0.8,1.0,-35.0,-1,1.0,0.302400999999918
322,3,0.8,0.0625,-35.0,-1,1.0,0.40319999999974243
323,3,0.8,0.25,-35.0,-1,1.0,0.40600100000006023
324,3,0.8,1.0,-35.0,-1,1.0,0.40259999999989304
325,3,0.8,0.0,35.0,-1,0.0,11.01019999999994
326,3,0.8,0.0625,-35.0,1,0.0,27.399599999999737
327,3,0.8,0.25,-35.0,1,0.0,18.430999999999813
328,3,0.8,0.0,-35.0,1,0.0,22.124000000000024
329,3,0.8,0.25,35.0,1,1.0,0.4284999999997581
330,3,0.8,0.0,-35.0,1,0.0,20.414399999999887
331,3,0.8,0.125,-35.0,1,0.0,14.41989999999987
332,3,0.8,0.0625,35.0,1,1.0,2.1721000000000004
333,3,0.2,1.0,35.0,1,1.0,0.316899999999805
334,3,0.2,0.25,-35.0,1,0.0,1.7620999999996911
335,3,0.2,1.0,-35.0,-1,1.0,0.3497999999997319
336,3,0.2,0.0,35.0,-1,0.0,0.9422999999997046
337,3,0.2,0.0625,35.0,1,1.0,20.106599999999844
338,3,0.2,0.0,35.0,1,1.0,29.34609999999975
339,3,0.2,1.0,-35.0,-1,1.0,0.7545009999998911
340,3,0.2,0.25,35.0,1,1.0,0.5100999999999658
341,3,0.2,0.0625,-35.0,-1,1.0,1.2576999999998861
342,3,0.2,0.0625,35.0,-1,0.0,12.460301000000072
343,3,0.2,0.125,35.0,1,1.0,5.384900000000016
344,3,0.2,0.125,-35.0,-1,1.0,0.7341000000001259
345,3,0.2,0.0625,35.0,-1,0.0,5.97829999999999
346,3,0.2,0.0,35.0,-1,0.0,0.7443999999998141
347,3,0.2,0.0625,35.0,-1,0.0,5.552000999999791
348,3,0.2,0.0625,35.0,-1,0.0,8.531199999999899
349,3,0.2,0.0,35.0,-1,0.0,21.608999999999924
350,3,0.2,1.0,35.0,1,1.0,1.5187999999998283
351,3,0.2,0.0,-35.0,1,0.0,34.80959999999982
352,3,0.2,1.0,35.0,1,1.0,0.46279999999978827
353,3,0.2,0.0625,35.0,1,1.0,13.44380000000001
354,3,0.2,0.0,35.0,1,1.0,10.766399999999976
355,3,0.2,0.0625,-35.0,-1,1.0,40.147699999999986
356,3,0.2,1.0,-35.0,-1,1.0,1.0410000000001673
357,3,0.2,1.0,-35.0,-1,1.0,0.2927999999997155
358,3,0.2,0.0625,35.0,-1,0.0,10.034699999999702
359,3,0.2,0.0,35.0,-1,0.0,36.238900000000285
360,3,0.2,1.0,35.0,1,1.0,0.3753999999998996
361,3,0.2,1.0,35.0,1,1.0,0.45269999999982247
362,3,0.2,0.25,35.0,1,1.0,0.1957999999999629
363,3,0.2,0.125,35.0,1,1.0,12.119799999999486
364,3,0.2,0.0625,35.0,-1,0.0,11.489199999999983
365,3,0.2,0.0,-35.0,1,0.0,30.493599999999788
366,3,0.2,0.125,35.0,-1,0.0,26.006900999999743
367,3,0.2,1.0,35.0,1,1.0,0.2116000000000895
368,3,0.2,1.0,35.0,1,1.0,1.3039999999996326
369,3,0.2,0.25,-35.0,-1,1.0,0.37539999999944484
370,3,0.2,0.125,35.0,1,1.0,0.5043000000000575
371,3,0.2,0.0,-0.0,0,0.0,60.034901000000445
372,3,0.2,0.125,35.0,1,1.0,0.456199999999626
373,3,0.2,1.0,35.0,1,1.0,0.44210100000009334
374,3,0.2,0.0625,35.0,1,1.0,9.03309999999965
375,3,0.2,0.25,35.0,1,1.0,0.315900000000056
376,3,0.2,0.125,35.0,1,1.0,1.9200009999999565
377,3,0.2,1.0,35.0,1,1.0,1.7327009999999063
378,3,0.2,0.125,35.0,-1,0.0,0.9436999999998079
379,3,0.2,0.25,35.0,1,1.0,6.682900999999674
380,3,0.2,0.0,35.0,-1,0.0,51.93069999999989
381,3,0.2,0.0625,35.0,-1,0.0,19.510699999999815
382,3,0.2,1.0,-35.0,-1,1.0,0.22179999999980282
383,3,0.2,0.25,35.0,-1,0.0,28.211300000000392
384,3,0.2,0.0625,-35.0,-1,1.0,13.039499999999862
385,3,0.2,0.0625,-35.0,-1,1.0,35.87890000000016
386,3,0.2,0.25,35.0,1,1.0,0.5905999999999949
387,3,0.2,0.0625,35.0,-1,0.0,2.176299999999628
388,3,0.2,0.0,-0.0,0,0.0,60.03060000000005
389,3,0.8,0.0,-35.0,-1,1.0,21.194300999999996
390,3,0.8,0.125,35.0,-1,0.0,4.684599999999591
391,3,0.8,0.0,35.0,-1,0.0,30.605799999999817
392,3,0.8,0.0,-35.0,1,0.0,0.26890000000003056
393,3,0.8,0.0625,-35.0,1,0.0,25.353500000000167
394,3,0.8,0.125,-35.0,-1,1.0,6.662899999999809
395,3,0.8,1.0,-35.0,-1,1.0,0.2671999999997752
396,3,0.8,0.25,35.0,1,1.0,0.32989999999972497
397,3,0.8,1.0,-35.0,-1,1.0,0.3374999999996362
398,3,0.8,0.125,-35.0,-1,1.0,53.38980099999981
399,3,0.8,0.125,-35.0,-1,1.0,46.87850099999969
400,3,0.8,0.0,-35.0,-1,1.0,4.665099999999711
401,3,0.8,0.0625,-35.0,-1,1.0,6.899699999999939
402,3,0.8,0.0625,-35.0,-1,1.0,20.975600000000213
403,3,0.8,1.0,-35.0,-1,1.0,0.2468999999996413
404,3,0.8,1.0,-35.0,-1,1.0,0.30940000000009604
405,3,0.8,0.0,-35.0,-1,1.0,2.076999999999771
406,3,0.8,0.0625,35.0,-1,0.0,0.5095010000000002
407,3,0.8,0.125,-35.0,-1,1.0,0.6673999999998159
408,3,0.8,1.0,-35.0,-1,1.0,0.30310000000008586
409,3,0.8,0.125,-35.0,-1,1.0,4.540599999999813
410,3,0.8,0.25,35.0,1,1.0,3.4499009999999544
411,3,0.8,0.25,-35.0,-1,1.0,0.33770000000004075
412,3,0.8,0.125,-35.0,-1,1.0,0.3404000000000451
413,3,0.8,0.125,-35.0,-1,1.0,0.7175999999999476
414,3,0.8,0.125,-35.0,-1,1.0,0.33359999999993306
415,3,0.8,0.0625,-35.0,-1,1.0,0.4778000000001157
416,3,0.8,0.0625,35.0,-1,0.0,0.7304009999998016
417,3,0.8,0.25,35.0,-1,0.0,0.7583999999997104
418,3,0.8,0.125,-35.0,-1,1.0,3.6473009999999704
419,3,0.8,0.125,-35.0,-1,1.0,3.8653999999996813
420,3,0.8,0.0,-35.0,-1,1.0,12.81070099999988
421,3,0.8,0.0625,-35.0,-1,1.0,3.1786000000001877
422,3,0.8,0.0,-35.0,-1,1.0,6.371399999999994
423,3,0.8,0.125,-35.0,-1,1.0,0.6691999999998188
424,3,0.8,1.0,-35.0,-1,1.0,0.6882000000000517
425,3,0.8,1.0,-35.0,-1,1.0,0.36580000000003565
426,3,0.8,0.25,-35.0,-1,1.0,2.311699999999746
427,3,0.8,0.125,-35.0,-1,1.0,13.11639999999943
428,3,0.8,0.25,-35.0,-1,1.0,6.928699999999935
429,3,0.8,1.0,-35.0,-1,1.0,0.5295999999998457
430,3,0.8,0.125,-35.0,-1,1.0,0.40899999999965075
431,3,0.8,0.0625,-35.0,-1,1.0,41.91329999999971
432,3,0.8,0.125,35.0,1,1.0,0.3032999999995809
433,3,0.8,0.125,-35.0,-1,1.0,15.504299999999603
434,3,0.8,1.0,-35.0,-1,1.0,0.35360099999979866
1,4,0.5,0.125,35.0,1,1.0,0.3740000000000001
2,4,0.5,0.125,-35.0,-1,1.0,0.8535000000000004
3,4,0.5,1.0,35.0,1,1.0,0.23939999999999984
4,4,0.5,0.0625,35.0,1,1.0,1.0951000000000004
5,4,0.5,1.0,-35.0,-1,1.0,0.274200000000004
6,4,0.5,0.125,35.0,1,1.0,0.2911999999999999
7,4,0.5,0.0,35.0,1,1.0,0.3691999999999993
8,4,0.5,0.25,-35.0,-1,1.0,0.24720000000000297
9,4,0.5,0.0625,35.0,1,1.0,1.994301
10,4,0.5,0.125,35.0,1,1.0,0.5174000000000021
11,4,0.5,0.25,35.0,1,1.0,0.6544010000000071
12,4,0.5,0.125,-35.0,-1,1.0,0.5450999999999979
13,4,0.5,1.0,-35.0,-1,1.0,0.3125
14,4,0.5,1.0,35.0,1,1.0,0.38640099999999933
15,4,0.5,1.0,35.0,1,1.0,0.2774999999999963
16,4,0.5,0.125,35.0,-1,0.0,0.8034000000000034
17,4,0.5,0.25,35.0,1,1.0,0.3246000000000038
18,4,0.5,0.0625,35.0,1,1.0,1.483000000000004
19,4,0.5,0.125,-35.0,-1,1.0,0.7533999999999992
20,4,0.5,0.0625,35.0,1,1.0,1.5880999999999972
21,4,0.5,0.125,-35.0,-1,1.0,0.4771999999999963
22,4,0.5,0.125,-35.0,1,0.0,2.5518
23,4,0.5,0.125,-35.0,-1,1.0,1.5214010000000115
24,4,0.5,0.25,35.0,1,1.0,0.3130999999999915
25,4,0.5,0.0,-35.0,1,0.0,2.6075000000000017
26,4,0.5,0.25,-35.0,-1,1.0,0.3550000000000182
27,4,0.5,1.0,-35.0,-1,1.0,0.3884000000000043
28,4,0.5,0.25,-35.0,-1,1.0,0.392399999999995
29,4,0.5,1.0,-35.0,-1,1.0,0.2703000000000202
30,4,0.5,0.25,-35.0,-1,1.0,0.3429000000000002
31,4,0.5,0.125,35.0,1,1.0,0.31059999999999377
32,4,0.5,1.0,-35.0,-1,1.0,0.24219999999999686
33,4,0.5,0.0625,-35.0,1,0.0,5.626400000000004
34,4,0.5,1.0,35.0,1,1.0,0.29239999999998645
35,4,0.5,0.125,35.0,1,1.0,0.2560000000000002
36,4,0.5,0.0,35.0,1,1.0,0.34389999999999077
37,4,0.5,0.0,35.0,1,1.0,0.9538000000000011
38,4,0.5,0.0625,35.0,1,1.0,0.293500999999992
39,4,0.5,0.125,35.0,1,1.0,0.8998999999999739
40,4,0.5,0.25,35.0,-1,0.0,0.26089999999999236
41,4,0.5,0.25,-35.0,-1,1.0,0.2983999999999867
42,4,0.5,0.0625,-35.0,1,0.0,0.509399999999971
43,4,0.5,0.125,-35.0,-1,1.0,0.22579999999999245
44,4,0.5,0.25,35.0,1,1.0,0.23749999999998295
45,4,0.5,0.125,-35.0,-1,1.0,0.14340099999998301
46,4,0.5,0.125,35.0,1,1.0,1.0795999999999708
47,4,0.5,0.0,-35.0,1,0.0,2.8401999999999816
48,4,0.5,0.0625,-35.0,1,0.0,0.34319999999996753
49,4,0.5,1.0,35.0,1,1.0,0.11350000000001614
50,4,0.5,0.125,35.0,1,1.0,0.25149999999996453
51,4,0.5,0.125,35.0,1,1.0,0.32730000000000814
52,4,0.5,0.125,-35.0,-1,1.0,0.3125999999999749
53,4,0.5,0.125,35.0,1,1.0,0.23529999999999518
54,4,0.5,0.0625,-35.0,-1,1.0,1.0756999999999834
55,4,0.5,0.0,35.0,1,1.0,0.1601999999999748
56,4,0.5,0.125,35.0,1,1.0,0.31530099999997674
57,4,0.5,1.0,35.0,1,1.0,0.19270099999999957
58,4,0.5,1.0,35.0,1,1.0,0.17449999999999477
59,4,0.5,1.0,35.0,1,1.0,0.20179999999999154
60,4,0.5,0.125,-35.0,-1,1.0,0.4806999999999846
61,4,0.5,1.0,35.0,1,1.0,0.18269999999998277
62,4,0.5,1.0,35.0,1,1.0,0.184599999999989
63,4,0.5,0.125,35.0,1,1.0,0.8566009999999835
64,4,0.5,0.25,-35.0,-1,1.0,0.4809999999999661
65,4,0.5,0.0,35.0,1,1.0,0.1377999999999986
66,4,0.5,0.0625,35.0,-1,0.0,0.3902999999999679
67,4,0.5,0.0625,-35.0,-1,1.0,0.29529999999999745
68,4,0.5,0.25,35.0,1,1.0,0.42159999999995534
69,4,0.5,0.125,35.0,1,1.0,0.36099999999999
70,4,0.5,0.125,35.0,1,1.0,1.3293009999999867
71,4,0.5,0.0625,35.0,1,1.0,3.791499999999985
72,4,0.5,0.0,35.0,1,1.0,5.644799999999975
73,4,0.5,0.0625,35.0,1,1.0,4.106400000000008
74,4,0.5,0.0,-35.0,-1,1.0,3.5249000000000024
75,4,0.5,0.25,35.0,1,1.0,0.2710999999999899
76,4,0.5,0.0,35.0,1,1.0,0.2492000000000303
77,4,0.5,0.0625,35.0,1,1.0,0.24029999999999063
78,4,0.5,0.25,-35.0,-1,1.0,0.2419999999999618
79,4,0.5,0.125,35.0,1,1.0,1.1982000000000426
80,4,0.5,0.0,-35.0,1,0.0,0.427599999999984
81,4,0.5,0.125,-35.0,-1,1.0,0.34370000000001255
82,4,0.5,1.0,-35.0,-1,1.0,0.22430000000002792
83,4,0.5,0.0,-35.0,-1,1.0,1.9991999999999734
84,4,0.5,0.0,-35.0,1,0.0,0.574799999999982
85,4,0.5,0.0,35.0,-1,0.0,0.79200000000003
86,4,0.5,1.0,-35.0,-1,1.0,0.23419999999993024
87,4,0.5,0.0625,35.0,-1,0.0,2.833499999999958
88,4,0.5,0.0,35.0,1,1.0,5.4968000000000075
89,4,0.5,0.0,-35.0,-1,1.0,8.44240000000002
90,4,0.5,0.0625,35.0,1,1.0,3.9431999999999903
91,4,0.2,0.25,-35.0,-1,1.0,0.4071999999999889
92,4,0.2,0.0,-35.0,-1,1.0,0.9704000000000406
93,4,0.2,1.0,35.0,1,1.0,0.12219999999996389
94,4,0.2,0.0,35.0,-1,0.0,1.2602999999999724
95,4,0.2,0.25,35.0,1,1.0,0.32080000000001974
96,4,0.2,0.0,35.0,1,1.0,0.7074009999999475
97,4,0.2,0.0625,35.0,1,1.0,0.6013000000000375
98,4,0.2,0.0625,35.0,1,1.0,1.098099999999988
99,4,0.2,0.0,-35.0,1,0.0,0.393100000000004
100,4,0.2,0.25,-35.0,-1,1.0,0.28649999999998954
101,4,0.2,0.25,35.0,1,1.0,0.23490000000003874
102,4,0.2,0.25,-35.0,-1,1.0,0.34309999999999263
103,4,0.2,0.25,-35.0,-1,1.0,0.38049999999998363
104,4,0.2,0.125,35.0,1,1.0,0.24430000000000973
105,4,0.2,0.0625,35.0,-1,0.0,3.553200000000004
106,4,0.2,0.25,35.0,1,1.0,0.2430999999999699
107,4,0.2,0.0,35.0,-1,0.0,2.5131000000000085
108,4,0.2,0.0625,35.0,1,1.0,0.3576999999999657
109,4,0.2,0.0625,35.0,1,1.0,2.870299999999986
110,4,0.2,1.0,35.0,1,1.0,0.20819999999997663
111,4,0.2,1.0,35.0,1,1.0,0.16140000000001464
112,4,0.2,0.0625,-35.0,1,0.0,0.637299999999982
113,4,0.2,0.0625,35.0,1,1.0,0.20620000000002392
114,4,0.2,1.0,-35.0,-1,1.0,0.32289999999994734
115,4,0.2,1.0,35.0,1,1.0,0.247099999999989
116,4,0.2,0.0,35.0,-1,0.0,0.7221999999999298
117,4,0.2,1.0,35.0,1,1.0,0.21029999999996107
118,4,0.2,0.0,35.0,1,1.0,0.24520100000000866
119,4,0.2,0.125,-35.0,-1,1.0,1.234800000000007
120,4,0.2,0.0,35.0,1,1.0,6.137499999999932
121,4,0.2,0.0625,35.0,1,1.0,0.4012000000000171
122,4,0.2,0.125,35.0,1,1.0,0.4451999999999998
123,4,0.2,1.0,35.0,1,1.0,0.21509999999989304
124,4,0.2,0.0,35.0,1,1.0,1.553299999999922
125,4,0.2,0.0,-35.0,1,0.0,1.7312999999999192
126,4,0.2,0.0,35.0,-1,0.0,2.571899999999914
127,4,0.2,0.0,-35.0,-1,1.0,0.49670000000003256
128,4,0.2,0.0625,35.0,-1,0.0,2.7121009999999615
129,4,0.2,0.0,35.0,1,1.0,0.5000999999999749
130,4,0.2,0.0,35.0,1,1.0,2.363299999999981
131,4,0.2,1.0,35.0,1,1.0,0.24119999999993524
132,4,0.2,0.0625,35.0,1,1.0,0.32960000000002765
133,4,0.2,1.0,35.0,1,1.0,0.213799999999992
134,4,0.2,0.0625,35.0,1,1.0,0.2501000000000886
135,4,0.2,0.25,-35.0,-1,1.0,0.2481999999999971
136,4,0.2,0.125,-35.0,-1,1.0,1.3184999999999718
137,4,0.2,0.25,35.0,1,1.0,0.33910100000002785
138,4,0.2,1.0,35.0,1,1.0,0.23240000000009786
139,4,0.2,0.125,35.0,1,1.0,0.2581000000000131
140,4,0.2,1.0,35.0,1,1.0,0.27109999999993306
141,4,0.2,0.0,35.0,-1,0.0,0.5452999999999975
142,4,0.2,0.25,-35.0,-1,1.0,0.32770000000004984
143,4,0.2,0.0625,35.0,1,1.0,0.22339999999985594
144,4,0.2,0.0,35.0,-1,0.0,0.8390000000000555
145,4,0.2,0.25,35.0,1,1.0,0.5623010000000477
146,4,0.2,0.0625,35.0,1,1.0,1.9069999999999254
147,4,0.2,0.0,35.0,1,1.0,0.2740999999999758
148,4,0.2,0.0625,-35.0,1,0.0,4.1118000000000166
149,4,0.2,0.25,-35.0,-1,1.0,0.245900000000006
150,4,0.2,0.0,35.0,1,1.0,0.10329999999999018
151,4,0.2,0.0625,35.0,1,1.0,0.6710999999999103
152,4,0.2,0.0625,35.0,1,1.0,2.6244009999999207
153,4,0.2,0.0,-35.0,1,0.0,0.3100009999999429
154,4,0.2,0.0625,35.0,1,1.0,0.36970000000007985
155,4,0.2,1.0,35.0,1,1.0,0.2680000000000291
156,4,0.2,0.25,-35.0,-1,1.0,0.29710000000011405
157,4,0.2,0.125,35.0,1,1.0,0.29719999999997526
158,4,0.2,1.0,35.0,1,1.0,0.2720000000000482
159,4,0.2,0.25,-35.0,-1,1.0,0.33609999999998763
160,4,0.2,0.25,35.0,-1,0.0,1.7022999999999229
161,4,0.2,0.0625,35.0,1,1.0,3.4729999999999563
162,4,0.2,0.0625,35.0,1,1.0,0.6002010000000837
163,4,0.2,0.0625,35.0,1,1.0,0.2949999999999591
164,4,0.2,0.0,35.0,1,1.0,1.1435000000000173
165,4,0.2,0.125,-35.0,-1,1.0,0.2982009999999491
166,4,0.2,0.25,-35.0,-1,1.0,0.4111000000000331
167,4,0.2,0.125,35.0,1,1.0,0.2839999999999918
168,4,0.2,0.25,-35.0,-1,1.0,1.6414999999999509
169,4,0.2,0.125,35.0,1,1.0,0.3120000000000118
170,4,0.2,0.25,35.0,1,1.0,0.5070009999999456
171,4,0.2,0.0625,35.0,-1,0.0,3.0170000000000528
172,4,0.2,0.125,35.0,1,1.0,0.45420100000001185
173,4,0.2,1.0,-35.0,-1,1.0,0.23829999999998108
174,4,0.2,0.0625,35.0,-1,0.0,0.40430000000003474
175,4,0.2,0.0,35.0,1,1.0,2.511301000000003
176,4,0.2,0.0,35.0,1,1.0,0.41440000000000055
177,4,0.2,1.0,35.0,1,1.0,0.9622999999999138
178,4,0.2,0.0,35.0,1,1.0,0.35820000000001073
179,4,0.2,0.0,-35.0,-1,1.0,1.1619009999999435
180,4,0.2,0.0,35.0,-1,0.0,0.42049999999994725
181,4,0.2,0.125,35.0,1,1.0,0.2839999999998781
182,4,0.2,1.0,-35.0,-1,1.0,3.0685999999999467
183,4,0.2,0.125,35.0,-1,0.0,2.941000000000031
184,4,0.2,1.0,35.0,1,1.0,0.20080099999995582
185,4,0.2,0.0,35.0,1,1.0,8.673999999999978
186,4,0.2,0.125,35.0,-1,0.0,1.1333999999999378
187,4,0.2,0.0,-35.0,1,0.0,0.3589999999999236
188,4,0.2,0.0625,35.0,1,1.0,0.19920000000001892
189,4,0.2,0.25,-35.0,-1,1.0,0.30349999999998545
190,4,0.8,0.0,-35.0,-1,1.0,0.38600099999996473
191,4,0.8,0.0625,35.0,1,1.0,0.5730000000000928
192,4,0.8,0.25,-35.0,-1,1.0,2.2631999999999834
193,4,0.8,0.0,-35.0,-1,1.0,1.9931000000000267
194,4,0.8,0.125,-35.0,-1,1.0,0.3039999999999736
195,4,0.8,0.25,-35.0,-1,1.0,0.30520000000001346
196,4,0.8,0.125,-35.0,-1,1.0,0.26109999999994216
197,4,0.8,0.25,-35.0,-1,1.0,1.5448999999999842
198,4,0.8,0.125,-35.0,-1,1.0,0.44489999999996144
199,4,0.8,0.0625,-35.0,-1,1.0,0.29280099999994036
200,4,0.8,0.0,-35.0,1,0.0,0.43430000000000746
201,4,0.8,0.0,-35.0,-1,1.0,0.27049999999997
202,4,0.8,0.25,-35.0,-1,1.0,0.31560000000001764
203,4,0.8,0.0,35.0,-1,0.0,1.9991999999999734
204,4,0.8,1.0,-35.0,-1,1.0,0.21900000000005093
205,4,0.8,0.0625,-35.0,-1,1.0,1.2434000000000651
206,4,0.8,0.0,-35.0,-1,1.0,2.9660010000000057
207,4,0.8,1.0,-35.0,-1,1.0,0.2826999999999771
208,4,0.8,0.125,35.0,1,1.0,0.45880000000011023
209,4,0.8,0.0625,-35.0,-1,1.0,1.7151999999999816
210,4,0.8,0.0,-35.0,-1,1.0,3.4839999999999236
211,4,0.8,0.125,-35.0,-1,1.0,0.31549999999992906
212,4,0.8,0.0625,35.0,-1,0.0,0.3431000000000495
213,4,0.8,1.0,35.0,1,1.0,0.36789999999996326
214,4,0.8,0.125,-35.0,-1,1.0,0.8722000000000207
215,4,0.8,0.0,-35.0,1,0.0,0.3191999999999098
216,4,0.8,0.25,-35.0,-1,1.0,0.4651010000000042
217,4,0.8,1.0,-35.0,-1,1.0,2.2370999999999412
218,4,0.8,0.0625,-35.0,-1,1.0,0.46210099999996146
219,4,0.8,1.0,-35.0,-1,1.0,0.09590000000002874
220,4,0.8,0.0625,-35.0,-1,1.0,3.142600000000016
221,4,0.8,0.25,-35.0,-1,1.0,0.10010000000011132
222,4,0.8,0.125,-35.0,-1,1.0,0.6265010000000757
223,4,0.8,0.25,-35.0,-1,1.0,0.3327999999999065
224,4,0.8,1.0,-35.0,-1,1.0,0.25689999999997326
225,4,0.8,0.0625,-35.0,-1,1.0,0.5901000000001204
226,4,0.8,0.0,35.0,-1,0.0,0.23489999999992506
227,4,0.8,1.0,-35.0,-1,1.0,0.23320000000001073
228,4,0.8,0.125,-35.0,-1,1.0,0.2078999999999951
229,4,0.8,0.0,35.0,-1,0.0,5.127300999999875
230,4,0.8,0.125,-35.0,-1,1.0,0.38019999999994525
231,4,0.8,0.25,-35.0,-1,1.0,0.1290000000000191
232,4,0.8,0.125,-35.0,-1,1.0,1.2287999999999784
233,4,0.8,1.0,-35.0,-1,1.0,0.3494999999999209
234,4,0.8,0.0625,35.0,-1,0.0,1.2821999999998752
235,4,0.8,0.0,-35.0,-1,1.0,0.3306999999999789
236,4,0.8,0.25,-35.0,-1,1.0,0.09219999999993433
237,4,0.8,0.0,-35.0,-1,1.0,1.2794999999999845
238,4,0.8,0.25,-35.0,-1,1.0,2.1266999999999143
239,4,0.8,0.25,-35.0,-1,1.0,0.25929999999993925
240,4,0.8,1.0,-35.0,-1,1.0,0.2802000000000362
241,4,0.8,1.0,-35.0,-1,1.0,0.22889999999995325
242,4,0.8,0.125,-35.0,-1,1.0,0.23689999999999145
243,4,0.8,0.0625,-35.0,-1,1.0,0.37239999999997053
244,4,0.8,0.25,-35.0,-1,1.0,0.26690100000007533
245,4,0.8,0.0,-35.0,-1,1.0,0.4957999999999174
246,4,0.8,0.0,-35.0,-1,1.0,0.38029999999992015
247,4,0.8,0.25,-35.0,-1,1.0,0.2158999999999196
248,4,0.8,0.0625,-35.0,-1,1.0,0.35380000000009204
249,4,0.8,0.0,35.0,-1,0.0,0.332700000000159
250,4,0.8,0.125,-35.0,-1,1.0,0.5137999999999465
251,4,0.8,0.0,-35.0,-1,1.0,2.312800000000152
252,4,0.8,0.125,-35.0,-1,1.0,0.24739999999997053
253,4,0.8,0.125,-35.0,-1,1.0,2.126399999999876
254,4,0.8,0.0625,-35.0,-1,1.0,0.560901000000058
255,4,0.8,0.0625,-35.0,-1,1.0,0.2798000000000229
256,4,0.8,0.125,-35.0,-1,1.0,0.7940000000000964
257,4,0.8,0.125,-35.0,-1,1.0,0.883199999999988
258,4,0.8,0.125,-35.0,-1,1.0,0.4276999999999589
259,4,0.8,0.125,-35.0,-1,1.0,0.3532999999997628
260,4,0.8,1.0,35.0,1,1.0,0.25820100000009916
261,4,0.8,0.0625,-35.0,-1,1.0,0.34359999999992397
262,4,0.8,0.125,-35.0,-1,1.0,0.42099999999982174
263,4,0.8,0.0625,-35.0,-1,1.0,0.4269000000001597
264,4,0.8,1.0,35.0,1,1.0,0.30140000000005784
265,4,0.8,1.0,-35.0,-1,1.0,0.28710099999989325
266,4,0.8,0.0,-35.0,-1,1.0,2.6818000000000666
267,4,0.8,0.0,-35.0,-1,1.0,1.107300000000123
268,4,0.8,0.0,-35.0,-1,1.0,0.30179999999995744
269,4,0.8,1.0,35.0,1,1.0,0.24410000000011678
270,4,0.8,1.0,-35.0,-1,1.0,0.36839999999983775
271,4,0.8,0.125,35.0,1,1.0,0.6878010000002632
272,4,0.8,0.0625,-35.0,-1,1.0,3.871800000000121
273,4,0.8,0.125,-35.0,-1,1.0,0.31130000000007385
274,4,0.8,0.0,-35.0,-1,1.0,1.338899999999967
275,4,0.8,0.25,-35.0,-1,1.0,0.264699999999948
276,4,0.2,1.0,35.0,1,1.0,0.20280000000002474
277,4,0.2,0.125,35.0,-1,0.0,1.4713009999998121
278,4,0.2,0.0625,-35.0,1,0.0,0.3025999999997566
279,4,0.2,0.125,35.0,1,1.0,0.22829999999999018
280,4,0.2,1.0,-35.0,-1,1.0,0.25909999999998945
281,4,0.2,1.0,35.0,1,1.0,0.23849999999993088
282,4,0.2,0.125,35.0,1,1.0,0.26269999999999527
283,4,0.2,0.0,35.0,1,1.0,0.5121000000001459
284,4,0.2,0.25,35.0,1,1.0,0.536200000000008
285,4,0.2,1.0,35.0,1,1.0,1.78879999999981
286,4,0.2,0.25,-35.0,-1,1.0,0.9362999999998465
287,4,0.2,0.0,35.0,-1,0.0,0.7190000000000509
288,4,0.2,0.0625,35.0,1,1.0,0.3730000000000473
289,4,0.2,0.25,35.0,1,1.0,0.24230000000011387
290,4,0.2,0.0,35.0,1,1.0,2.973299999999881
291,4,0.2,0.125,-35.0,-1,1.0,0.3528009999999995
292,4,0.2,0.0625,35.0,1,1.0,0.36029999999982465
293,4,0.2,1.0,35.0,1,1.0,0.21600000000012187
294,4,0.2,0.0625,35.0,-1,0.0,2.4602000000002135
295,4,0.2,0.25,35.0,1,1.0,0.34960000000000946
296,4,0.2,0.25,35.0,1,1.0,0.23070000000006985
297,4,0.8,0.125,35.0,1,1.0,0.2698000000002594
298,4,0.8,0.0,35.0,1,1.0,0.30720100000007733
299,4,0.8,0.0625,-35.0,-1,1.0,0.3531999999997879
300,4,0.8,0.0625,-35.0,-1,1.0,0.8809000000001106
301,4,0.8,1.0,-35.0,-1,1.0,0.4966999999999189
302,4,0.8,0.0,-35.0,-1,1.0,0.4840999999998985
303,4,0.8,0.125,-35.0,-1,1.0,0.25680000000011205
304,4,0.8,0.125,35.0,1,1.0,0.31770000000005894
305,4,0.8,0.125,-35.0,-1,1.0,0.260300000000143
306,4,0.8,0.0,-35.0,-1,1.0,0.24799999999981992
307,4,0.8,0.0625,35.0,1,1.0,0.2837000000001808
308,4,0.8,0.125,-35.0,-1,1.0,0.2480000000000473
309,4,0.8,0.0625,35.0,-1,0.0,1.0136999999999716
310,4,0.8,0.125,-35.0,-1,1.0,0.34159999999997126
311,4,0.8,1.0,-35.0,-1,1.0,0.23069999999984248
312,4,0.8,1.0,-35.0,-1,1.0,0.2980999999999767
313,4,0.8,1.0,-35.0,-1,1.0,0.23749999999995453
314,4,0.8,0.0,35.0,-1,0.0,9.755200000000059
315,4,0.8,0.0,-35.0,-1,1.0,2.154301000000032
316,4,0.8,0.25,-35.0,-1,1.0,4.601899999999887
317,4,0.8,0.0625,-35.0,-1,1.0,0.6577999999997246
318,4,0.8,1.0,-35.0,-1,1.0,0.40879999999992833
319,4,0.8,1.0,-35.0,-1,1.0,0.24130000000013752
320,4,0.8,0.25,-35.0,-1,1.0,0.2726999999999862
321,4,0.8,1.0,35.0,1,1.0,0.26169999999979154
322,4,0.8,0.0625,-35.0,-1,1.0,0.2460999999998421
323,4,0.8,0.0,-35.0,-1,1.0,0.42170000000010077
324,4,0.8,0.25,-35.0,-1,1.0,1.295699999999897
325,4,0.8,1.0,-35.0,-1,1.0,0.2685999999998785
326,4,0.8,0.0,-35.0,-1,1.0,1.1527000000000953
327,4,0.8,0.0625,-35.0,-1,1.0,0.3086000000000695
328,4,0.8,1.0,-35.0,-1,1.0,0.24289999999996326
329,4,0.8,0.125,-35.0,-1,1.0,0.2721999999998843
330,4,0.8,0.125,-35.0,-1,1.0,0.40970100000004095
331,4,0.8,0.125,-35.0,-1,1.0,0.44219999999995707
332,4,0.8,0.25,-35.0,-1,1.0,0.48329999999987194
333,4,0.8,0.0,-35.0,-1,1.0,0.5057010000000446
334,4,0.8,1.0,-35.0,-1,1.0,0.28359999999997854
335,4,0.8,0.0,-35.0,-1,1.0,0.45270000000004984
336,4,0.8,0.125,35.0,1,1.0,2.543600000000197
337,4,0.8,1.0,-35.0,-1,1.0,0.2425999999998112
338,4,0.8,0.0,-35.0,-1,1.0,1.937400999999909
339,4,0.8,0.125,-35.0,-1,1.0,1.0161000000000513
340,4,0.2,0.0,-35.0,-1,1.0,0.42419999999992797
341,4,0.2,0.125,-35.0,-1,1.0,0.41629999999986467
342,4,0.2,0.0625,-35.0,-1,1.0,1.7638999999999214
343,4,0.2,0.0625,-35.0,-1,1.0,0.32999999999992724
344,4,0.2,0.0,35.0,-1,0.0,0.44460000000003674
345,4,0.2,0.0,35.0,-1,0.0,0.336699999999837
346,4,0.2,0.125,35.0,1,1.0,0.747599999999693
347,4,0.2,0.125,-35.0,-1,1.0,0.2601999999999407
348,4,0.2,0.0,-35.0,-1,1.0,7.354599999999891
349,4,0.2,0.25,-35.0,-1,1.0,1.8271000000002005
350,4,0.2,0.0625,35.0,-1,0.0,0.5549000000000888
351,4,0.2,0.25,35.0,1,1.0,0.4073000000000775
