trial_num,session_num,stim_probability_left,contrast,position,response_choice,trial_correct,reaction_time
1,1,0.5,0.125,-35.0,-1,1.0,0.5536999999999999
2,1,0.5,0.0625,35.0,1,1.0,0.27179999999999893
3,1,0.5,0.125,-35.0,-1,1.0,0.4306000000000001
4,1,0.5,0.0,-35.0,1,0.0,0.9816999999999982
5,1,0.5,0.125,-35.0,-1,1.0,0.38319999999999865
6,1,0.5,0.0625,35.0,1,1.0,0.35320000000000107
7,1,0.5,0.125,-35.0,-1,1.0,2.515599999999999
8,1,0.5,0.125,35.0,1,1.0,0.2370999999999981
9,1,0.5,0.0625,35.0,1,1.0,0.3114000000000061
10,1,0.5,0.25,-35.0,-1,1.0,0.2556999999999974
11,1,0.5,1.0,35.0,1,1.0,0.2976009999999931
12,1,0.5,0.0625,-35.0,-1,1.0,1.496299999999998
13,1,0.5,0.0625,-35.0,-1,1.0,0.35960000000000036
14,1,0.5,0.0,-35.0,1,0.0,5.121899999999997
15,1,0.5,0.25,-35.0,-1,1.0,0.2740000000000009
16,1,0.5,0.0,-35.0,-1,1.0,7.309500999999997
17,1,0.5,0.125,-35.0,-1,1.0,0.8766000000000105
18,1,0.5,0.0,-35.0,-1,1.0,0.37130000000000507
19,1,0.5,0.25,-35.0,-1,1.0,0.31730000000001723
20,1,0.5,0.125,35.0,1,1.0,0.28990000000000293
21,1,0.5,1.0,35.0,-1,0.0,0.16490000000000293
22,1,0.5,0.125,-35.0,-1,1.0,0.5677000000000021
23,1,0.5,0.125,35.0,1,1.0,0.25560000000001537
24,1,0.5,0.25,35.0,1,1.0,0.2855000000000132
25,1,0.5,0.0625,35.0,1,1.0,0.40749999999999886
26,1,0.5,1.0,35.0,1,1.0,0.2879000000000076
27,1,0.5,0.25,35.0,1,1.0,0.27620100000000036
28,1,0.5,0.0,35.0,-1,0.0,0.450800000000001
29,1,0.5,0.0625,-35.0,-1,1.0,0.36660000000000537
30,1,0.5,0.0625,35.0,1,1.0,0.8367000000000218
31,1,0.5,0.0,35.0,1,1.0,0.2784000000000191
32,1,0.5,0.0,-35.0,1,0.0,1.450400000000002
33,1,0.5,1.0,35.0,1,1.0,0.20520000000001914
34,1,0.5,0.25,35.0,1,1.0,0.2761000000000138
35,1,0.5,0.0625,35.0,1,1.0,0.28940000000000055
36,1,0.5,0.25,35.0,1,1.0,0.3645000000000209
37,1,0.5,0.25,35.0,1,1.0,3.1174000000000035
38,1,0.5,0.25,35.0,1,1.0,0.266399999999976
39,1,0.5,0.25,-35.0,-1,1.0,0.4920010000000161
40,1,0.5,0.0625,-35.0,-1,1.0,0.6152000000000157
41,1,0.5,0.0625,35.0,1,1.0,0.2796000000000163
42,1,0.5,0.25,35.0,1,1.0,0.27139999999999986
43,1,0.5,0.0,35.0,1,1.0,2.8507999999999925
44,1,0.5,0.0625,35.0,-1,0.0,3.058400000000006
45,1,0.5,0.25,35.0,1,1.0,0.23250000000001592
46,1,0.5,0.125,35.0,1,1.0,0.17920000000000869
47,1,0.5,0.25,-35.0,-1,1.0,0.4584000000000117
48,1,0.5,0.125,35.0,1,1.0,0.2792010000000289
49,1,0.5,0.125,35.0,1,1.0,0.2796999999999912
50,1,0.5,1.0,-35.0,-1,1.0,0.34330099999999675
51,1,0.5,0.0,35.0,-1,0.0,0.4814000000000078
52,1,0.5,0.25,35.0,1,1.0,0.2983000000000118
53,1,0.5,1.0,-35.0,-1,1.0,0.3762999999999863
54,1,0.5,0.0,-35.0,1,0.0,5.7579000000000065
55,1,0.5,0.125,35.0,1,1.0,0.29249999999998977
56,1,0.5,0.25,-35.0,-1,1.0,0.32740000000001146
57,1,0.5,0.0,-35.0,1,0.0,13.083301000000006
58,1,0.5,0.25,35.0,1,1.0,0.33650000000002933
59,1,0.5,0.125,-35.0,-1,1.0,0.4823009999999499
60,1,0.5,0.0625,-35.0,1,0.0,0.5742999999999938
61,1,0.5,0.25,-35.0,-1,1.0,0.4623009999999681
62,1,0.5,0.0625,-35.0,-1,1.0,0.3595999999999435
63,1,0.5,0.0625,35.0,1,1.0,0.2943000000000211
64,1,0.5,0.25,-35.0,-1,1.0,0.498299999999972
65,1,0.5,0.25,35.0,1,1.0,0.4322999999999979
66,1,0.5,0.0625,35.0,1,1.0,0.8727000000000089
67,1,0.5,0.0,35.0,1,1.0,1.407699999999977
68,1,0.5,0.25,-35.0,-1,1.0,0.3553009999999972
69,1,0.5,0.125,-35.0,-1,1.0,0.26600000000001955
70,1,0.5,1.0,35.0,1,1.0,0.29129999999997835
71,1,0.5,0.0625,-35.0,-1,1.0,1.0523000000000025
72,1,0.5,0.25,-35.0,-1,1.0,2.424600000000055
73,1,0.5,0.0,35.0,-1,0.0,3.3555000000000064
74,1,0.5,1.0,35.0,1,1.0,0.28779999999994743
75,1,0.5,0.0625,35.0,-1,0.0,4.681000999999981
76,1,0.5,0.0625,35.0,1,1.0,3.0680999999999585
77,1,0.5,0.0,-35.0,1,0.0,0.4055999999999358
78,1,0.5,1.0,35.0,1,1.0,0.3132009999999923
79,1,0.5,0.0625,35.0,1,1.0,3.995899999999949
80,1,0.5,0.0625,-35.0,-1,1.0,4.977600999999936
81,1,0.5,1.0,35.0,1,1.0,0.2670999999999708
82,1,0.5,0.125,-35.0,-1,1.0,0.5907009999999673
83,1,0.5,0.0,35.0,-1,0.0,4.797800999999993
84,1,0.5,0.25,-35.0,1,0.0,1.3448999999999387
85,1,0.5,1.0,-35.0,-1,1.0,0.30329999999992197
86,1,0.5,0.25,-35.0,-1,1.0,1.039199999999994
87,1,0.5,1.0,-35.0,-1,1.0,0.2555999999999585
88,1,0.5,0.0625,35.0,1,1.0,0.3081999999999425
89,1,0.5,1.0,-35.0,-1,1.0,0.4141999999999939
90,1,0.5,0.0,-35.0,1,0.0,0.5056999999999903
91,1,0.2,0.0,35.0,-1,0.0,0.4161999999999466
92,1,0.2,0.0,35.0,1,1.0,6.020699999999977
93,1,0.2,0.125,35.0,1,1.0,0.24170100000003458
94,1,0.2,0.25,35.0,1,1.0,3.613299999999981
95,1,0.2,0.25,35.0,1,1.0,0.3040999999999485
96,1,0.2,1.0,35.0,1,1.0,0.294700999999975
97,1,0.2,0.0625,35.0,1,1.0,0.23809999999997444
98,1,0.2,0.0625,35.0,1,1.0,0.21829999999994243
99,1,0.2,0.125,35.0,1,1.0,0.3961999999999648
100,1,0.2,0.0,35.0,1,1.0,0.5090999999999894
101,1,0.2,0.0625,35.0,1,1.0,0.7060000000000173
102,1,0.2,0.0,35.0,-1,0.0,0.2955000000000041
103,1,0.2,0.0625,35.0,1,1.0,1.0090999999999894
104,1,0.2,0.125,35.0,1,1.0,0.2360999999999649
105,1,0.2,0.125,-35.0,-1,1.0,0.3243999999999687
106,1,0.2,0.125,35.0,1,1.0,1.6853999999999587
107,1,0.2,0.25,35.0,1,1.0,0.3026999999999589
108,1,0.2,0.0,-35.0,1,0.0,2.161899999999946
109,1,0.2,0.0625,35.0,1,1.0,2.6412999999999442
110,1,0.2,0.125,35.0,1,1.0,0.2647999999999797
111,1,0.2,0.25,35.0,1,1.0,3.650699999999972
112,1,0.2,0.0625,-35.0,-1,1.0,1.9180000000000064
113,1,0.2,0.25,-35.0,-1,1.0,0.26509999999996126
114,1,0.2,0.0625,35.0,1,1.0,0.34650000000004866
115,1,0.2,0.25,35.0,1,1.0,0.20310000000000628
116,1,0.2,0.125,35.0,1,1.0,1.625599999999963
117,1,0.2,1.0,35.0,1,1.0,0.35909999999995534
118,1,0.2,0.0,35.0,1,1.0,0.7843000000000302
119,1,0.2,0.25,35.0,1,1.0,0.32200000000000273
120,1,0.2,0.0625,35.0,-1,0.0,0.6046000000000049
121,1,0.2,0.125,35.0,1,1.0,0.358600000000024
122,1,0.2,0.25,35.0,1,1.0,0.26929999999993015
123,1,0.2,1.0,35.0,1,1.0,0.2758009999998876
124,1,0.2,0.0,35.0,1,1.0,1.1904000000000678
125,1,0.2,0.25,-35.0,1,0.0,0.22010099999999966
126,1,0.2,1.0,35.0,1,1.0,0.40800000000001546
127,1,0.2,0.125,35.0,1,1.0,0.42409999999995307
128,1,0.2,0.0,35.0,1,1.0,0.10579999999993106
129,1,0.2,0.125,35.0,1,1.0,3.6381000000000085
130,1,0.2,0.0625,-35.0,1,0.0,0.7132000000000289
131,1,0.2,0.125,35.0,1,1.0,0.32600000000002183
132,1,0.2,1.0,35.0,1,1.0,0.16989999999998417
133,1,0.2,0.125,35.0,1,1.0,0.3999999999998636
134,1,0.2,0.0625,-35.0,-1,1.0,0.643100000000004
135,1,0.2,1.0,35.0,1,1.0,0.2032009999999218
136,1,0.2,0.25,35.0,1,1.0,0.2761000000000422
137,1,0.2,0.0,-35.0,1,0.0,2.2059999999999036
138,1,0.2,0.0,35.0,-1,0.0,2.0790000000000646
139,1,0.2,0.0625,35.0,-1,0.0,0.5276000000000067
140,1,0.2,1.0,35.0,1,1.0,0.2969999999999118
141,1,0.2,1.0,35.0,1,1.0,0.2703000000000202
142,1,0.2,0.0625,35.0,1,1.0,0.39819999999997435
143,1,0.2,0.25,35.0,1,1.0,0.26119999999991705
144,1,0.2,0.125,-35.0,-1,1.0,0.31159999999999854
145,1,0.2,1.0,35.0,1,1.0,0.6180000000000518
146,1,0.2,0.0,35.0,-1,0.0,1.1621000000000095
147,1,0.2,0.0,35.0,-1,0.0,5.907000000000039
148,1,0.2,0.0625,35.0,1,1.0,0.42829999999992197
149,1,0.2,0.25,35.0,1,1.0,0.29099999999994
150,1,0.2,0.125,35.0,1,1.0,0.4864000000000033
151,1,0.2,1.0,35.0,1,1.0,0.23069999999995616
152,1,0.2,0.25,-35.0,1,0.0,3.691500000000019
153,1,0.2,0.0625,35.0,1,1.0,0.3159010000000535
154,1,0.2,0.0625,35.0,1,1.0,0.32799999999997453
155,1,0.2,0.0,-35.0,1,0.0,0.5679000000000087
156,1,0.2,0.0625,-35.0,-1,1.0,0.33389999999997144
157,1,0.2,1.0,35.0,1,1.0,0.33209999999996853
158,1,0.2,0.0,35.0,-1,0.0,0.5992999999999711
159,1,0.2,0.125,35.0,1,1.0,0.5262000000000171
160,1,0.2,1.0,35.0,1,1.0,0.7799999999999727
161,1,0.2,0.0625,35.0,1,1.0,1.032000000000039
162,1,0.2,0.0625,35.0,1,1.0,0.8982999999999493
163,1,0.2,0.125,35.0,1,1.0,0.7402009999999564
164,1,0.2,0.0,35.0,1,1.0,4.910200000000032
165,1,0.2,0.0,35.0,1,1.0,3.9849999999999
166,1,0.2,0.0625,-35.0,1,0.0,0.22000000000002728
167,1,0.2,0.0625,-35.0,-1,1.0,0.33090099999992617
168,1,0.2,0.0,-35.0,1,0.0,3.3980000000000246
169,1,0.2,0.0625,35.0,1,1.0,0.4551999999999907
170,1,0.2,0.25,-35.0,-1,1.0,0.3365000000000009
171,1,0.2,1.0,35.0,1,1.0,0.43630099999995764
172,1,0.2,0.125,35.0,1,1.0,1.8973009999999704
173,1,0.8,0.0625,-35.0,-1,1.0,0.49400200000002314
174,1,0.8,0.125,-35.0,-1,1.0,0.2674009999999498
175,1,0.8,0.0625,35.0,1,1.0,0.28080099999999675
176,1,0.8,0.25,35.0,1,1.0,0.9409009999999398
177,1,0.8,0.0,-35.0,1,0.0,0.30100100000004204
178,1,0.8,1.0,-35.0,-1,1.0,0.32890099999997346
179,1,0.8,0.0,-35.0,-1,1.0,4.586901000000012
180,1,0.8,0.25,-35.0,-1,1.0,0.3061009999998987
181,1,0.8,0.0,-35.0,1,0.0,0.37590099999999893
182,1,0.8,0.125,-35.0,-1,1.0,0.4152010000000246
183,1,0.8,0.125,-35.0,-1,1.0,0.2919010000000526
184,1,0.8,0.125,-35.0,-1,1.0,2.815601000000015
185,1,0.8,0.125,-35.0,-1,1.0,0.6876019999998562
186,1,0.8,1.0,35.0,1,1.0,0.35780099999999493
187,1,0.8,1.0,-35.0,-1,1.0,0.27290099999993345
188,1,0.8,0.0625,-35.0,-1,1.0,2.7282010000000128
189,1,0.8,1.0,-35.0,-1,1.0,0.2808019999999942
190,1,0.8,0.0,35.0,-1,0.0,0.3904009999999971
191,1,0.8,0.25,-35.0,-1,1.0,0.3609010000000126
192,1,0.8,1.0,-35.0,-1,1.0,0.2333009999999831
193,1,0.8,0.125,-35.0,-1,1.0,0.3883009999999558
194,1,0.2,0.125,35.0,1,1.0,0.2919009999999389
195,1,0.2,0.25,35.0,1,1.0,0.21330100000011498
196,1,0.2,0.0,-35.0,-1,1.0,0.33480200000008153
197,1,0.2,1.0,35.0,1,1.0,0.4882020000001148
198,1,0.2,0.0,35.0,1,1.0,1.3702009999999518
199,1,0.2,1.0,35.0,1,1.0,0.2938009999999167
200,1,0.2,0.125,35.0,-1,0.0,0.847801000000004
201,1,0.2,0.125,35.0,-1,0.0,0.34090199999991455
202,1,0.2,1.0,-35.0,-1,1.0,0.3144009999999753
203,1,0.2,0.125,35.0,1,1.0,0.41410099999995964
204,1,0.2,1.0,35.0,1,1.0,0.3204009999999471
205,1,0.2,0.0625,35.0,-1,0.0,0.20150100000000748
206,1,0.2,0.25,-35.0,-1,1.0,0.3678010000000995
207,1,0.2,0.0625,35.0,1,1.0,1.310102000000029
208,1,0.2,1.0,35.0,1,1.0,1.9359009999999444
209,1,0.2,0.0625,35.0,1,1.0,1.0028009999999767
210,1,0.2,0.25,35.0,1,1.0,0.26080099999990125
211,1,0.2,0.125,35.0,1,1.0,1.6148010000000568
212,1,0.2,0.0,35.0,1,1.0,0.8450009999999111
213,1,0.2,0.0625,35.0,1,1.0,0.39980100000002494
214,1,0.2,0.125,-35.0,-1,1.0,0.36580099999991944
215,1,0.2,0.125,-35.0,-1,1.0,0.27020100000004277
216,1,0.2,0.0,35.0,-1,0.0,2.875701000000049
217,1,0.2,0.25,35.0,1,1.0,0.33490100000005896
218,1,0.2,0.0,-35.0,1,0.0,2.446001000000024
219,1,0.2,0.125,35.0,1,1.0,0.1607010000000173
220,1,0.2,0.25,-35.0,-1,1.0,0.28270099999997456
221,1,0.2,1.0,-35.0,-1,1.0,0.2518010000000004
222,1,0.2,0.125,35.0,-1,0.0,0.29070200000001023
223,1,0.2,0.0,35.0,1,1.0,3.5947009999999864
224,1,0.2,1.0,35.0,1,1.0,0.396101999999928
225,1,0.2,0.25,-35.0,-1,1.0,0.31310099999996055
226,1,0.2,0.0,35.0,-1,0.0,1.6877019999999447
227,1,0.2,0.0,35.0,1,1.0,5.893801000000053
228,1,0.2,0.25,35.0,1,1.0,0.3098009999999931
229,1,0.2,0.25,35.0,-1,0.0,0.3017019999999775
230,1,0.2,0.125,-35.0,-1,1.0,0.3982009999999718
231,1,0.8,0.0625,-35.0,1,0.0,0.5597010000000182
232,1,0.8,0.0625,-35.0,-1,1.0,0.3120010000000093
233,1,0.8,0.125,-35.0,-1,1.0,0.379701999999952
234,1,0.8,0.0,-35.0,1,0.0,0.40200100000004113
235,1,0.8,0.125,-35.0,-1,1.0,0.2837010000000646
236,1,0.8,0.0625,-35.0,-1,1.0,0.3524019999999837
237,1,0.8,0.25,-35.0,-1,1.0,0.3431020000000444
238,1,0.8,1.0,-35.0,-1,1.0,0.30910099999982776
239,1,0.8,0.25,-35.0,-1,1.0,0.27010100000006787
240,1,0.8,0.25,35.0,1,1.0,0.5060019999998531
241,1,0.8,0.0,-35.0,-1,1.0,4.516900999999962
242,1,0.8,0.25,35.0,1,1.0,2.1093020000000706
243,1,0.8,0.25,-35.0,-1,1.0,2.086900999999898
244,1,0.8,0.125,-35.0,-1,1.0,0.3563010000000304
245,1,0.8,1.0,-35.0,-1,1.0,0.2837010000000646
246,1,0.8,0.0625,-35.0,-1,1.0,0.2898009999998976
247,1,0.8,0.0,35.0,-1,0.0,3.8909009999999853
248,1,0.8,0.0,-35.0,-1,1.0,0.2699010000001181
249,1,0.8,0.0,-35.0,-1,1.0,8.084000999999944
250,1,0.8,0.0,-35.0,-1,1.0,2.7601009999998496
251,1,0.8,0.125,-35.0,-1,1.0,0.2517010000001392
252,1,0.8,0.0,-35.0,-1,1.0,2.1436009999999897
253,1,0.8,0.0625,-35.0,-1,1.0,0.63790199999994
254,1,0.8,0.125,-35.0,-1,1.0,1.830601999999999
255,1,0.2,1.0,35.0,1,1.0,0.2815009999999347
256,1,0.2,0.125,35.0,-1,0.0,0.527601999999888
257,1,0.2,0.0625,35.0,-1,0.0,0.278302000000167
258,1,0.2,0.0625,-35.0,-1,1.0,0.30410200000005716
259,1,0.2,0.125,35.0,1,1.0,0.3086009999999533
260,1,0.2,1.0,35.0,1,1.0,0.44760100000007697
261,1,0.2,1.0,-35.0,-1,1.0,0.24510200000008808
262,1,0.2,0.0625,35.0,-1,0.0,2.0146010000000842
263,1,0.2,1.0,35.0,1,1.0,0.3221010000002025
264,1,0.2,1.0,35.0,1,1.0,0.6546009999999569
265,1,0.2,0.0,35.0,-1,0.0,0.352301000000125
266,1,0.2,0.125,35.0,1,1.0,0.4447020000000066
267,1,0.2,0.125,35.0,1,1.0,2.205601000000115
268,1,0.2,0.0625,-35.0,-1,1.0,0.3082010000000537
269,1,0.2,0.0,-35.0,-1,1.0,0.33900199999993674
270,1,0.2,0.0,35.0,-1,0.0,0.36500100000012026
271,1,0.2,0.0625,-35.0,1,0.0,0.5160020000000713
272,1,0.2,0.0625,-35.0,-1,1.0,0.3650009999998929
273,1,0.2,0.0625,35.0,1,1.0,3.6796019999999316
274,1,0.2,1.0,35.0,1,1.0,0.4321019999999862
275,1,0.2,0.25,35.0,1,1.0,0.5598019999999906
276,1,0.2,0.0625,35.0,-1,0.0,0.26210199999991346
277,1,0.2,1.0,35.0,1,1.0,0.23010100000010425
278,1,0.2,1.0,-35.0,-1,1.0,0.27890099999990525
279,1,0.2,0.25,-35.0,-1,1.0,0.30690099999992526
280,1,0.2,0.0,-35.0,1,0.0,3.2625009999999293
281,1,0.2,0.0625,35.0,1,1.0,0.34050100000013117
282,1,0.2,1.0,35.0,1,1.0,0.27260100000012244
283,1,0.2,0.25,35.0,1,1.0,0.2275009999998474
284,1,0.2,1.0,35.0,1,1.0,0.2796009999999569
285,1,0.2,0.125,35.0,1,1.0,0.43390099999987797
286,1,0.2,0.0625,35.0,1,1.0,0.6266020000002754
287,1,0.2,1.0,35.0,1,1.0,0.2738009999998212
288,1,0.2,0.125,-35.0,1,0.0,2.1798009999999977
289,1,0.2,0.25,35.0,1,1.0,0.297600999999986
290,1,0.2,0.0,35.0,1,1.0,2.9332010000000537
291,1,0.2,0.0,35.0,1,1.0,5.1342010000000755
292,1,0.2,0.0625,35.0,1,1.0,0.5501010000000406
293,1,0.2,0.0625,-35.0,-1,1.0,0.2980009999998856
294,1,0.2,0.0,35.0,1,1.0,3.6537009999999555
295,1,0.2,0.0,35.0,1,1.0,12.73450099999991
296,1,0.2,0.0625,35.0,-1,0.0,1.3975009999999202
297,1,0.2,1.0,35.0,1,1.0,0.24880099999995764
298,1,0.2,0.0625,35.0,1,1.0,0.34450100000026396
299,1,0.2,0.0,-35.0,-1,1.0,6.935001000000057
300,1,0.2,0.25,35.0,1,1.0,0.24450099999990016
301,1,0.2,0.125,35.0,1,1.0,1.5353009999998903
302,1,0.2,0.0625,35.0,1,1.0,1.7079019999998764
303,1,0.2,0.125,35.0,1,1.0,0.39560100000016973
304,1,0.2,1.0,-35.0,-1,1.0,0.25810100000012426
305,1,0.2,0.0625,35.0,1,1.0,0.7790010000001075
306,1,0.2,0.25,35.0,1,1.0,0.6717019999998683
307,1,0.2,0.25,35.0,1,1.0,0.5017010000001392
308,1,0.2,0.0625,35.0,1,1.0,0.34950099999991835
309,1,0.2,1.0,35.0,1,1.0,2.6855020000000422
310,1,0.2,1.0,-35.0,-1,1.0,0.42290200000002187
311,1,0.2,0.0625,-35.0,1,0.0,5.9185019999999895
312,1,0.2,0.25,35.0,1,1.0,0.30660100000000057
313,1,0.2,0.0625,35.0,1,1.0,0.32870200000002114
314,1,0.2,0.0,35.0,-1,0.0,0.42560100000014245
315,1,0.2,0.125,35.0,1,1.0,1.5124010000001817
316,1,0.2,0.125,35.0,1,1.0,2.213600999999926
317,1,0.2,0.125,-35.0,-1,1.0,0.6159020000000055
318,1,0.2,0.125,-35.0,-1,1.0,0.2902010000000246
319,1,0.2,0.125,35.0,1,1.0,0.28600100000016937
320,1,0.2,1.0,-35.0,-1,1.0,0.2435009999999238
321,1,0.2,0.0,35.0,1,1.0,3.7528010000000904
322,1,0.2,0.0625,-35.0,-1,1.0,0.6171009999998205
323,1,0.2,1.0,35.0,1,1.0,0.4197009999998045
324,1,0.2,1.0,35.0,1,1.0,0.6039009999999507
325,1,0.2,0.0625,-35.0,-1,1.0,0.75970099999995
326,1,0.2,0.25,-35.0,-1,1.0,0.32740100000000893
327,1,0.2,1.0,35.0,1,1.0,0.24660100000005514
328,1,0.2,1.0,35.0,1,1.0,0.26420100000018465
329,1,0.2,0.25,35.0,1,1.0,1.6967010000000755
330,1,0.2,0.0,35.0,-1,0.0,12.13140199999998
331,1,0.2,0.125,35.0,1,1.0,0.3104009999997288
332,1,0.2,0.0625,35.0,1,1.0,1.2647010000000591
333,1,0.2,0.0,35.0,-1,0.0,0.3607010000000628
334,1,0.2,1.0,35.0,1,1.0,0.511400999999978
335,1,0.2,0.25,-35.0,-1,1.0,0.3408009999998285
336,1,0.2,0.0,35.0,1,1.0,0.33540100000004713
337,1,0.2,0.125,-35.0,1,0.0,7.170800999999983
338,1,0.2,0.125,35.0,1,1.0,0.23860100000001694
339,1,0.2,1.0,35.0,1,1.0,0.3710009999999784
340,1,0.2,0.25,35.0,1,1.0,0.5619019999999182
341,1,0.2,0.125,35.0,1,1.0,0.4813010000002578
342,1,0.2,0.0,35.0,-1,0.0,0.9824009999999817
343,1,0.2,0.25,-35.0,-1,1.0,0.28470100000004095
344,1,0.2,0.0,35.0,-1,0.0,0.3028009999998176
345,1,0.2,0.125,35.0,1,1.0,0.28840100000002167
346,1,0.2,0.125,35.0,1,1.0,4.43560199999979
347,1,0.8,0.25,-35.0,-1,1.0,0.5584019999998873
348,1,0.8,0.25,35.0,1,1.0,0.2494010000000344
349,1,0.8,0.0,35.0,1,1.0,0.3686010000001261
350,1,0.8,0.0625,-35.0,-1,1.0,3.3863009999997757
351,1,0.8,0.0625,-35.0,-1,1.0,0.34540100000003804
352,1,0.8,1.0,-35.0,-1,1.0,0.2897019999998065
353,1,0.8,0.125,-35.0,-1,1.0,0.3189009999998689
354,1,0.8,0.125,-35.0,-1,1.0,0.30310099999974227
355,1,0.8,0.125,-35.0,-1,1.0,3.8757009999999354
356,1,0.8,0.25,-35.0,-1,1.0,0.2733009999999467
357,1,0.8,1.0,-35.0,-1,1.0,0.3025009999998929
358,1,0.8,0.0625,-35.0,1,0.0,2.8235010000000784
359,1,0.8,0.0625,35.0,-1,0.0,0.8194020000000819
360,1,0.8,0.25,-35.0,-1,1.0,0.3273019999999178
361,1,0.8,0.0,-35.0,1,0.0,0.5496010000001661
362,1,0.8,0.0,-35.0,1,0.0,0.437300999999934
363,1,0.8,0.125,-35.0,-1,1.0,0.3631009999999151
364,1,0.8,0.125,35.0,1,1.0,0.2974010000000362
365,1,0.8,0.25,-35.0,-1,1.0,1.9033010000000559
366,1,0.8,0.25,-35.0,-1,1.0,0.40130100000010316
367,1,0.8,1.0,-35.0,-1,1.0,0.300300999999763
368,1,0.8,0.125,-35.0,-1,1.0,0.35130099999992126
369,1,0.8,0.0,-35.0,1,0.0,4.503400999999712
370,1,0.8,0.0,-35.0,1,0.0,7.681301000000076
371,1,0.8,0.0,35.0,-1,0.0,1.207302000000027
372,1,0.8,0.125,-35.0,-1,1.0,5.608300999999983
373,1,0.8,1.0,-35.0,-1,1.0,0.3075019999998858
374,1,0.8,1.0,-35.0,-1,1.0,0.3383010000000013
375,1,0.8,0.0625,-35.0,-1,1.0,0.32090100000004895
376,1,0.8,0.0625,-35.0,1,0.0,2.03220199999987
377,1,0.8,0.0,35.0,-1,0.0,0.284300999999914
378,1,0.8,0.0,-35.0,1,0.0,22.668700999999828
379,1,0.8,0.125,-35.0,-1,1.0,0.3217010000000755
380,1,0.8,0.125,-35.0,-1,1.0,2.2693010000000413
381,1,0.8,0.25,-35.0,-1,1.0,0.24840100000005805
382,1,0.8,0.125,-35.0,-1,1.0,0.3596010000001115
383,1,0.8,1.0,-35.0,-1,1.0,0.342000999999982
384,1,0.8,0.0,-35.0,1,0.0,0.5032010000002174
385,1,0.8,0.0625,-35.0,-1,1.0,0.31880200000000514
386,1,0.8,1.0,-35.0,-1,1.0,1.799801000000116
387,1,0.8,0.0625,35.0,-1,0.0,0.7255020000000059
388,1,0.8,0.125,-35.0,-1,1.0,0.3465009999999893
389,1,0.2,0.0625,35.0,1,1.0,0.2792019999999411
390,1,0.2,0.25,-35.0,-1,1.0,0.3101010000000315
391,1,0.2,0.25,-35.0,-1,1.0,0.3259009999999307
392,1,0.2,0.0625,35.0,1,1.0,0.69720099999995
393,1,0.2,0.25,35.0,1,1.0,0.6727009999999609
394,1,0.2,0.0,35.0,1,1.0,0.1971009999999751
395,1,0.2,0.0,35.0,1,1.0,4.9496019999999135
396,1,0.2,0.125,35.0,1,1.0,0.5212010000000191
397,1,0.2,0.0625,35.0,1,1.0,2.926401000000169
398,1,0.2,1.0,35.0,1,1.0,0.320500999999922
399,1,0.2,0.0,35.0,-1,0.0,1.2099009999999453
400,1,0.2,1.0,35.0,1,1.0,0.24410200000011173
401,1,0.2,1.0,35.0,1,1.0,0.3101010000000315
402,1,0.2,0.125,35.0,1,1.0,2.267600999999786
403,1,0.2,0.0625,35.0,1,1.0,1.150101000000177
404,1,0.2,0.25,35.0,1,1.0,2.7512010000000373
405,1,0.2,0.0625,-35.0,1,0.0,0.4837009999998827
406,1,0.2,1.0,35.0,1,1.0,0.2845009999998638
407,1,0.2,0.25,35.0,1,1.0,0.2738009999998212
408,1,0.2,0.25,35.0,1,1.0,0.2348019999999451
409,1,0.2,0.125,35.0,1,1.0,0.4606020000001081
410,1,0.2,0.0,35.0,1,1.0,7.075200999999879
411,1,0.2,0.0625,35.0,-1,0.0,3.017700999999988
412,1,0.2,0.25,-35.0,-1,1.0,0.3021009999999933
413,1,0.2,1.0,-35.0,-1,1.0,0.271101999999928
414,1,0.2,0.0,35.0,-1,0.0,4.515200999999934
415,1,0.2,0.25,35.0,1,1.0,0.2779009999999289
416,1,0.2,1.0,35.0,1,1.0,0.43220100000007733
417,1,0.2,0.25,35.0,1,1.0,1.9248009999996611
418,1,0.2,0.25,35.0,1,1.0,0.5191009999998641
419,1,0.2,0.0,-35.0,1,0.0,8.088101000000051
420,1,0.2,0.125,35.0,1,1.0,1.7527010000001155
421,1,0.2,0.0625,35.0,1,1.0,0.3518010000000231
422,1,0.2,0.0,35.0,1,1.0,3.6497019999997065
423,1,0.2,0.0,-35.0,1,0.0,2.4021020000000135
424,1,0.2,0.0,35.0,-1,0.0,0.8296009999999114
425,1,0.2,0.0,35.0,1,1.0,1.9824009999999817
426,1,0.2,0.125,35.0,1,1.0,0.33660100000020066
427,1,0.2,0.0625,35.0,1,1.0,0.292500999999902
428,1,0.2,0.0625,-35.0,1,0.0,1.2934009999999034
429,1,0.2,0.25,35.0,1,1.0,0.3326009999998405
430,1,0.2,0.0625,35.0,1,1.0,3.9234020000001237
431,1,0.2,0.0,35.0,-1,0.0,5.952700999999934
432,1,0.2,0.125,35.0,1,1.0,1.340300999999954
433,1,0.2,1.0,35.0,1,1.0,0.41310199999998076
434,1,0.2,1.0,35.0,1,1.0,0.40810099999976046
435,1,0.2,0.125,35.0,1,1.0,9.903101000000106
436,1,0.2,1.0,35.0,1,1.0,0.3975009999996928
437,1,0.2,0.0,35.0,1,1.0,6.856801000000132
438,1,0.2,1.0,35.0,1,1.0,5.5813009999999394
439,1,0.2,0.0,35.0,1,1.0,3.0171009999999114
440,1,0.2,1.0,35.0,1,1.0,0.2814009999999598
441,1,0.2,0.25,35.0,1,1.0,0.3507009999998445
442,1,0.2,0.25,35.0,1,1.0,0.30500099999994745
443,1,0.2,1.0,-35.0,-1,1.0,0.32750099999998383
444,1,0.2,0.125,35.0,1,1.0,0.3417010000000573
445,1,0.2,1.0,-35.0,-1,1.0,0.31430199999999786
446,1,0.2,0.25,-35.0,-1,1.0,0.2653009999999085
447,1,0.8,0.0625,-35.0,-1,1.0,1.1311009999999442
448,1,0.8,0.125,-35.0,-1,1.0,3.698601000000508
449,1,0.8,0.0625,-35.0,1,0.0,0.3680010000002767
450,1,0.8,0.125,-35.0,-1,1.0,0.3723020000006727
451,1,0.8,0.0625,35.0,1,1.0,0.7014009999998052
452,1,0.8,0.125,-35.0,-1,1.0,0.45580100000006496
453,1,0.8,0.0625,-35.0,-1,1.0,0.6183020000003125
454,1,0.8,0.0625,-35.0,1,0.0,3.106101000000308
455,1,0.8,1.0,35.0,1,1.0,0.30510099999992235
456,1,0.8,0.125,-35.0,-1,1.0,0.2692010000000664
457,1,0.8,0.25,-35.0,-1,1.0,0.2953010000001086
458,1,0.8,0.125,-35.0,-1,1.0,1.730000999999902
459,1,0.8,0.0,-35.0,-1,1.0,0.318901000000551
460,1,0.8,0.25,-35.0,-1,1.0,0.3398010000000795
461,1,0.8,0.25,35.0,1,1.0,0.7490010000005896
462,1,0.8,0.125,-35.0,-1,1.0,3.0932010000005903
463,1,0.8,0.0,-35.0,-1,1.0,0.33910100000002785
464,1,0.8,0.0625,-35.0,-1,1.0,2.730101000000559
465,1,0.8,0.125,-35.0,-1,1.0,0.3993020000002616
466,1,0.8,0.125,35.0,1,1.0,0.23030200000039258
467,1,0.8,1.0,-35.0,-1,1.0,0.31270200000062687
468,1,0.8,0.0625,-35.0,-1,1.0,4.890201000000161
469,1,0.8,0.0625,-35.0,-1,1.0,1.4829020000001947
470,1,0.8,1.0,-35.0,-1,1.0,0.35090100000024904
471,1,0.8,0.125,-35.0,-1,1.0,0.3164010000000417
472,1,0.8,1.0,-35.0,-1,1.0,0.20090200000049663
473,1,0.8,0.0,35.0,-1,0.0,0.2931010000002061
474,1,0.8,1.0,35.0,1,1.0,0.32080100000030143
475,1,0.8,0.0625,-35.0,-1,1.0,0.2634010000001581
476,1,0.8,0.0,-35.0,-1,1.0,0.3240019999998367
477,1,0.8,0.125,-35.0,-1,1.0,0.5502010000004702
478,1,0.8,0.0,35.0,-1,0.0,2.1713009999998576
479,1,0.8,0.25,35.0,1,1.0,0.30360099999961676
480,1,0.8,0.0,-35.0,1,0.0,3.514802000000145
481,1,0.8,0.25,-35.0,-1,1.0,0.3013010000004215
482,1,0.8,0.0,-35.0,-1,1.0,0.767301000000316
483,1,0.8,1.0,-35.0,-1,1.0,0.2784010000004855
484,1,0.8,0.25,-35.0,-1,1.0,0.2909010000003036
485,1,0.8,0.0625,35.0,1,1.0,0.5585010000004331
486,1,0.8,0.25,35.0,1,1.0,0.5343010000001414
487,1,0.8,1.0,35.0,1,1.0,0.3985010000001239
488,1,0.8,0.0,-35.0,1,0.0,1.0110010000003058
489,1,0.8,0.125,-35.0,-1,1.0,0.3854010000004564
490,1,0.8,0.25,35.0,1,1.0,0.2611010000000533
491,1,0.8,0.0,-35.0,-1,1.0,4.712101999999959
492,1,0.8,0.125,-35.0,-1,1.0,0.31480099999998856
493,1,0.8,0.0,35.0,-1,0.0,5.588901000000533
494,1,0.8,1.0,-35.0,-1,1.0,0.31190200000037294
495,1,0.8,0.0,-35.0,1,0.0,0.5760009999999056
496,1,0.8,0.0,-35.0,-1,1.0,0.671802000000298
497,1,0.8,0.0625,-35.0,-1,1.0,0.31600099999968734
498,1,0.8,0.125,-35.0,-1,1.0,0.30890099999987797
499,1,0.8,0.0625,-35.0,-1,1.0,1.4929010000005292
500,1,0.8,0.125,35.0,1,1.0,0.36540100000001985
501,1,0.8,0.125,35.0,1,1.0,0.32970100000056846
502,1,0.8,1.0,-35.0,-1,1.0,0.27220100000022285
503,1,0.8,0.125,-35.0,1,0.0,0.2867010000004484
504,1,0.8,0.0625,-35.0,-1,1.0,0.3859010000001035
505,1,0.8,1.0,-35.0,-1,1.0,0.29670100000021193
506,1,0.8,0.25,-35.0,-1,1.0,0.29930100000001403
507,1,0.8,1.0,-35.0,-1,1.0,0.26340100000061284
508,1,0.8,0.125,35.0,1,1.0,0.41940100000010716
509,1,0.8,0.0625,-35.0,1,0.0,1.773501000000124
510,1,0.2,1.0,-35.0,-1,1.0,0.3563010000002578
511,1,0.2,0.0,35.0,1,1.0,0.8170010000003458
512,1,0.2,0.0625,-35.0,-1,1.0,4.983001000000513
513,1,0.2,0.0,35.0,1,1.0,0.68420100000003
514,1,0.2,0.0,35.0,1,1.0,0.9968009999997776
515,1,0.2,0.0625,35.0,1,1.0,3.817500999999993
516,1,0.2,1.0,35.0,1,1.0,0.3400010000000293
517,1,0.2,0.0,35.0,1,1.0,4.40110199999981
518,1,0.2,0.25,-35.0,-1,1.0,0.3570020000001932
519,1,0.2,0.25,35.0,1,1.0,0.5081010000003516
520,1,0.2,0.0625,35.0,1,1.0,1.7304009999998016
521,1,0.2,0.0625,35.0,1,1.0,0.775002000000768
522,1,0.2,0.125,35.0,1,1.0,0.39400100000057137
523,1,0.2,0.0,-35.0,1,0.0,4.895101000000068
524,1,0.2,0.0,-35.0,1,0.0,2.2278019999998833
525,1,0.2,1.0,35.0,1,1.0,0.2352009999999609
526,1,0.2,0.125,-35.0,-1,1.0,0.7845019999999749
527,1,0.2,0.25,35.0,1,1.0,0.3255010000002585
528,1,0.2,0.125,35.0,1,1.0,0.5311010000000351
529,1,0.2,0.0625,35.0,1,1.0,4.998801000000185
530,1,0.2,0.125,35.0,1,1.0,0.6318009999999958
531,1,0.2,0.0,35.0,1,1.0,1.8094010000004346
532,1,0.8,0.25,-35.0,-1,1.0,0.38500100000010207
533,1,0.8,0.125,-35.0,-1,1.0,1.2724010000001726
534,1,0.8,1.0,-35.0,-1,1.0,0.2551010000001952
535,1,0.8,0.125,-35.0,-1,1.0,29.70940100000007
536,1,0.8,0.125,-35.0,1,0.0,15.189302000000225
537,1,0.8,1.0,-35.0,-1,1.0,0.4539010000003145
538,1,0.8,0.0625,-35.0,1,0.0,0.3098019999997632
539,1,0.8,0.125,-35.0,-1,1.0,1.6077009999999063
540,1,0.8,0.125,-35.0,1,0.0,8.686701000000085
541,1,0.8,0.25,-35.0,1,0.0,3.861101999999846
542,1,0.8,0.25,35.0,1,1.0,0.2668010000002141
543,1,0.8,1.0,-35.0,-1,1.0,0.3249020000002929
544,1,0.8,1.0,-35.0,-1,1.0,0.26710099999991144
545,1,0.8,0.0,35.0,-1,0.0,2.618101000000479
546,1,0.8,0.0625,-35.0,1,0.0,12.43380100000013
547,1,0.8,0.0,-35.0,1,0.0,7.0184009999998125
548,1,0.8,0.125,-35.0,-1,1.0,0.2777009999999791
549,1,0.8,0.125,-35.0,-1,1.0,3.91890100000046
550,1,0.8,0.25,-35.0,-1,1.0,0.5778009999999085
551,1,0.8,0.0625,-35.0,1,0.0,1.1022020000004886
552,1,0.8,0.0,-35.0,1,0.0,0.3048020000001088
553,1,0.8,0.0,-35.0,-1,1.0,1.4590010000001712
554,1,0.8,1.0,35.0,1,1.0,0.2850020000000768
555,1,0.8,0.0625,-35.0,1,0.0,3.629001000000244
556,1,0.8,0.125,-35.0,-1,1.0,0.3550010000003567
557,1,0.8,1.0,-35.0,-1,1.0,0.35300099999994927
558,1,0.8,0.125,-35.0,-1,1.0,0.23190100000010716
559,1,0.8,0.125,-35.0,-1,1.0,0.3495010000001457
560,1,0.8,1.0,-35.0,-1,1.0,0.28560100000049715
561,1,0.8,0.25,-35.0,-1,1.0,3.8528009999999995
562,1,0.8,1.0,-35.0,-1,1.0,0.26560100000051534
563,1,0.8,1.0,-35.0,-1,1.0,0.2666020000001481
564,1,0.8,0.0625,-35.0,1,0.0,8.4457010000001
565,1,0.8,0.125,-35.0,-1,1.0,0.3669020000002092
566,1,0.8,0.25,-35.0,-1,1.0,0.34590100000059465
567,1,0.8,0.0625,-35.0,-1,1.0,0.6568020000004253
568,1,0.8,0.0625,-35.0,-1,1.0,4.466201000000638
569,1,0.8,0.25,-35.0,-1,1.0,0.6939010000000962
570,1,0.8,0.125,-35.0,-1,1.0,3.209701000000223
571,1,0.8,0.25,-35.0,-1,1.0,0.6476010000001224
572,1,0.8,0.0625,-35.0,1,0.0,8.380000999999993
573,1,0.8,1.0,35.0,1,1.0,1.9212020000004486
574,1,0.8,0.125,-35.0,1,0.0,26.18020100000058
575,1,0.8,0.125,-35.0,1,0.0,4.072001000000455
576,1,0.8,0.0,-35.0,1,0.0,11.791100999999799
577,1,0.8,0.25,-35.0,-1,1.0,0.422001000000364
578,1,0.8,1.0,-35.0,-1,1.0,2.022402000000511
579,1,0.8,0.0,-35.0,1,0.0,27.412600999999995
580,1,0.8,0.25,-35.0,-1,1.0,2.2621009999998023
581,1,0.8,0.0,-35.0,1,0.0,11.352801
582,1,0.8,0.0625,-35.0,1,0.0,2.1792020000002594
583,1,0.8,1.0,35.0,1,1.0,0.4236020000003009
584,1,0.8,1.0,-35.0,-1,1.0,13.726001000000451
585,1,0.2,0.125,35.0,1,1.0,0.2771010000001297
586,1,0.2,0.125,35.0,1,1.0,10.606501000000208
1,2,0.5,1.0,-35.0,-1,1.0,0.23340000000000005
2,2,0.5,0.25,35.0,1,1.0,0.23289999999999988
3,2,0.5,0.25,-35.0,-1,1.0,0.41180099999999875
4,2,0.5,0.0,35.0,1,1.0,1.0396009999999993
5,2,0.5,0.25,-35.0,-1,1.0,0.9252000000000002
6,2,0.5,0.0625,-35.0,-1,1.0,0.37000000000000455
7,2,0.5,1.0,-35.0,-1,1.0,0.2674000000000021
8,2,0.5,1.0,35.0,1,1.0,0.2618000000000009
9,2,0.5,1.0,35.0,1,1.0,0.21729999999999805
10,2,0.5,0.0625,35.0,1,1.0,0.2757000000000005
11,2,0.5,0.0625,-35.0,-1,1.0,0.330600000000004
12,2,0.5,0.0625,35.0,1,1.0,0.28249999999999886
13,2,0.5,0.125,35.0,1,1.0,0.22930000000000206
14,2,0.5,0.25,-35.0,1,0.0,2.2693999999999974
15,2,0.5,1.0,-35.0,-1,1.0,0.2789009999999976
16,2,0.5,0.125,35.0,1,1.0,0.4682999999999993
17,2,0.5,0.25,-35.0,-1,1.0,0.7158999999999907
18,2,0.5,0.0625,35.0,1,1.0,0.3666999999999945
19,2,0.5,0.125,35.0,1,1.0,0.4578999999999951
20,2,0.5,1.0,35.0,1,1.0,0.4993999999999801
21,2,0.5,1.0,35.0,1,1.0,0.2078999999999951
22,2,0.5,0.0625,35.0,1,1.0,0.23919999999999675
23,2,0.5,0.125,-35.0,1,0.0,1.7683999999999997
24,2,0.5,0.125,-35.0,-1,1.0,0.28060000000000684
25,2,0.5,1.0,35.0,1,1.0,1.1818999999999988
26,2,0.5,0.0,-35.0,1,0.0,4.4521000000000015
27,2,0.5,0.125,35.0,1,1.0,0.23759999999998627
28,2,0.5,0.25,-35.0,1,0.0,3.299299999999988
29,2,0.5,0.0625,-35.0,-1,1.0,0.7643999999999949
30,2,0.5,0.0,35.0,1,1.0,4.307000000000002
31,2,0.5,0.0,-35.0,1,0.0,1.157701000000003
32,2,0.5,1.0,35.0,1,1.0,0.2599999999999909
33,2,0.5,0.0625,35.0,1,1.0,0.31800000000001205
34,2,0.5,0.0625,-35.0,1,0.0,2.0153999999999996
35,2,0.5,0.0,-35.0,1,0.0,0.2599999999999909
36,2,0.5,0.125,-35.0,-1,1.0,3.395700000000005
37,2,0.5,0.0625,35.0,1,1.0,0.25869999999997617
38,2,0.5,0.0625,-35.0,1,0.0,0.5179999999999723
39,2,0.5,1.0,35.0,1,1.0,0.2745999999999924
40,2,0.5,1.0,-35.0,-1,1.0,0.2936000000000263
41,2,0.5,0.0625,35.0,1,1.0,0.1945010000000309
42,2,0.5,1.0,-35.0,-1,1.0,0.7738999999999976
43,2,0.5,1.0,-35.0,-1,1.0,0.5837009999999907
44,2,0.5,0.0,35.0,1,1.0,2.856099999999998
45,2,0.5,0.125,35.0,1,1.0,0.6366000000000156
46,2,0.5,0.25,35.0,1,1.0,0.5379000000000076
47,2,0.5,0.0625,35.0,1,1.0,0.4379999999999882
48,2,0.5,0.25,-35.0,-1,1.0,0.3445999999999856
49,2,0.5,0.0,-35.0,-1,1.0,0.38589999999999236
50,2,0.5,0.0,35.0,1,1.0,2.04910000000001
51,2,0.5,0.25,-35.0,1,0.0,2.468999999999994
52,2,0.5,0.0,-35.0,1,0.0,5.2365999999999815
53,2,0.5,1.0,35.0,1,1.0,0.522199999999998
54,2,0.5,0.0625,35.0,1,1.0,0.34010000000000673
55,2,0.5,1.0,-35.0,-1,1.0,0.5689999999999884
56,2,0.5,0.25,-35.0,-1,1.0,0.5579000000000178
57,2,0.5,0.0,-35.0,1,0.0,0.7829000000000121
58,2,0.5,0.125,-35.0,1,0.0,0.09600000000000364
59,2,0.5,0.125,-35.0,-1,1.0,0.3632999999999811
60,2,0.5,0.0625,-35.0,1,0.0,3.198900000000009
61,2,0.5,0.125,35.0,1,1.0,0.19960000000000377
62,2,0.5,0.125,-35.0,1,0.0,5.947900000000004
63,2,0.5,0.25,-35.0,-1,1.0,0.2549000000000774
64,2,0.5,0.0,-35.0,1,0.0,2.1679000000000315
65,2,0.5,0.125,35.0,1,1.0,0.3469010000000594
66,2,0.5,1.0,-35.0,-1,1.0,0.442100000000039
67,2,0.5,0.0625,35.0,1,1.0,0.26630000000005793
68,2,0.5,0.25,35.0,1,1.0,0.2440000000000282
69,2,0.5,0.0,-35.0,1,0.0,0.3574010000000385
70,2,0.5,0.0625,35.0,1,1.0,2.474900000000048
71,2,0.5,0.0,-35.0,1,0.0,0.4393000000000029
72,2,0.5,0.0625,35.0,-1,0.0,0.9039000000000783
73,2,0.5,0.125,-35.0,-1,1.0,0.3290000000000646
74,2,0.5,0.0,-35.0,1,0.0,3.857900000000029
75,2,0.5,0.0,-35.0,1,0.0,1.8660000000000991
76,2,0.5,0.125,35.0,1,1.0,0.39100000000001955
77,2,0.5,0.0,35.0,1,1.0,0.6680000000000064
78,2,0.5,0.0,35.0,-1,0.0,0.2469000000000392
79,2,0.5,1.0,-35.0,-1,1.0,0.48099999999999454
80,2,0.5,1.0,-35.0,-1,1.0,0.24230000000000018
81,2,0.5,0.125,-35.0,-1,1.0,0.36419999999998254
82,2,0.5,1.0,35.0,1,1.0,0.22630000000003747
83,2,0.5,1.0,-35.0,-1,1.0,1.9320000000000164
84,2,0.5,0.125,35.0,1,1.0,0.36990000000002965
85,2,0.5,0.0625,35.0,1,1.0,0.5234010000000353
86,2,0.5,0.0,-35.0,1,0.0,1.080500000000086
87,2,0.5,0.25,-35.0,-1,1.0,0.2977010000000746
88,2,0.5,0.25,35.0,1,1.0,2.1269000000000347
89,2,0.5,0.125,-35.0,-1,1.0,0.2855010000000675
90,2,0.5,1.0,35.0,1,1.0,0.2569000000000301
91,2,0.8,1.0,35.0,1,1.0,0.43250000000000455
92,2,0.8,0.125,35.0,1,1.0,1.365600000000029
93,2,0.8,0.25,-35.0,-1,1.0,0.28290000000004056
94,2,0.8,0.0625,-35.0,1,0.0,1.4072000000000457
95,2,0.8,0.0,-35.0,1,0.0,0.9653010000000677
96,2,0.8,0.0,-35.0,1,0.0,2.180100999999979
97,2,0.8,0.25,-35.0,-1,1.0,0.32430000000005066
98,2,0.8,0.125,35.0,1,1.0,1.3579000000000292
99,2,0.8,0.25,-35.0,-1,1.0,0.3591000000000122
100,2,0.8,0.0625,35.0,1,1.0,0.42190000000005057
101,2,0.8,0.0,-35.0,-1,1.0,0.29590000000001737
102,2,0.8,0.25,-35.0,-1,1.0,0.3223010000000386
103,2,0.8,0.25,-35.0,-1,1.0,1.0329010000000949
104,2,0.8,0.25,-35.0,-1,1.0,0.4288999999999987
105,2,0.8,1.0,-35.0,-1,1.0,0.4689000000000192
106,2,0.8,0.0625,-35.0,1,0.0,5.993101000000024
107,2,0.8,0.25,-35.0,-1,1.0,0.3349000000000615
108,2,0.8,1.0,-35.0,-1,1.0,1.026200000000017
109,2,0.8,1.0,-35.0,-1,1.0,0.27100000000007185
110,2,0.8,0.125,-35.0,-1,1.0,1.9472010000000637
111,2,0.8,1.0,-35.0,-1,1.0,0.3001000000000431
112,2,0.8,0.25,35.0,1,1.0,1.0360000000000582
113,2,0.8,0.0,-35.0,1,0.0,3.1567000000000576
114,2,0.8,0.0625,35.0,1,1.0,0.476900999999998
115,2,0.8,0.25,-35.0,-1,1.0,0.3095000000000141
116,2,0.8,0.25,-35.0,1,0.0,2.378500000000031
117,2,0.8,0.0,-35.0,-1,1.0,0.37360100000000784
118,2,0.8,1.0,-35.0,-1,1.0,0.26770000000004757
119,2,0.8,0.0,-35.0,-1,1.0,1.7894000000000005
120,2,0.8,0.0,-35.0,1,0.0,1.4619000000000142
121,2,0.8,0.25,35.0,1,1.0,0.3789000000000442
122,2,0.8,0.25,-35.0,-1,1.0,0.26439999999996644
123,2,0.8,1.0,-35.0,-1,1.0,0.24650099999996655
124,2,0.8,0.0625,-35.0,-1,1.0,1.9107000000000198
125,2,0.8,0.125,-35.0,-1,1.0,1.8662010000000464
126,2,0.8,0.0,-35.0,1,0.0,1.510900000000106
127,2,0.8,0.0,-35.0,-1,1.0,0.3710000000000946
128,2,0.8,1.0,-35.0,-1,1.0,0.3810000000000855
129,2,0.8,0.25,-35.0,-1,1.0,3.558300000000031
130,2,0.8,0.125,-35.0,-1,1.0,0.3226999999999407
131,2,0.8,1.0,35.0,1,1.0,0.23330000000009932
132,2,0.8,1.0,35.0,1,1.0,0.3707000000000562
133,2,0.8,0.125,-35.0,-1,1.0,0.26269999999999527
134,2,0.8,1.0,-35.0,-1,1.0,0.2737999999999374
135,2,0.8,0.25,35.0,1,1.0,3.043399999999906
136,2,0.8,0.0,35.0,-1,0.0,3.576000000000022
137,2,0.8,0.125,-35.0,-1,1.0,0.25680000000011205
138,2,0.8,0.25,-35.0,-1,1.0,0.25890100000003713
139,2,0.8,0.125,-35.0,-1,1.0,0.2758000000000038
140,2,0.8,1.0,-35.0,-1,1.0,0.29900000000009186
141,2,0.8,0.0,-35.0,-1,1.0,0.3904000000001133
142,2,0.8,1.0,35.0,1,1.0,0.2317999999999074
143,2,0.8,0.125,-35.0,-1,1.0,6.1889999999999645
144,2,0.8,1.0,-35.0,-1,1.0,0.2842000000000553
145,2,0.8,0.0625,35.0,1,1.0,3.49879999999996
146,2,0.8,0.0,35.0,-1,0.0,3.458900000000085
147,2,0.8,0.0,-35.0,-1,1.0,2.8238000000000056
148,2,0.8,0.25,-35.0,-1,1.0,2.7253010000000586
149,2,0.8,0.25,35.0,1,1.0,1.2874009999999316
150,2,0.8,0.0625,35.0,1,1.0,0.5193000000000438
151,2,0.8,0.0625,35.0,-1,0.0,0.4556999999999789
152,2,0.8,0.0625,-35.0,1,0.0,3.8161999999999807
153,2,0.8,0.0,-35.0,1,0.0,9.031100000000038
154,2,0.8,0.125,-35.0,-1,1.0,0.33579999999994925
155,2,0.8,0.0,-35.0,1,0.0,1.004799999999932
156,2,0.8,0.0,-35.0,1,0.0,4.689000000000078
157,2,0.8,0.125,-35.0,-1,1.0,0.25280000000009295
158,2,0.8,0.125,35.0,1,1.0,0.18880000000001473
159,2,0.8,1.0,-35.0,-1,1.0,0.4171999999999798
160,2,0.8,1.0,35.0,1,1.0,0.2196999999999889
161,2,0.8,0.25,35.0,1,1.0,0.4797000000000935
162,2,0.8,1.0,-35.0,-1,1.0,0.4397999999999911
163,2,0.8,0.0625,-35.0,-1,1.0,3.6231010000000197
164,2,0.8,0.125,-35.0,-1,1.0,2.1251000000000886
165,2,0.8,0.0,-35.0,1,0.0,7.290700000000015
166,2,0.8,0.0,-35.0,-1,1.0,0.5017010000000255
167,2,0.8,0.0,-35.0,-1,1.0,1.3836999999999762
168,2,0.8,0.125,-35.0,-1,1.0,1.112799999999993
169,2,0.8,1.0,35.0,1,1.0,0.32550000000014734
170,2,0.8,0.125,-35.0,-1,1.0,1.788000000000011
171,2,0.8,0.0625,-35.0,-1,1.0,1.2152999999999565
172,2,0.8,0.0625,-35.0,1,0.0,2.7273010000000113
173,2,0.2,0.25,35.0,1,1.0,0.3365999999999758
174,2,0.2,0.25,35.0,1,1.0,2.4266000000001213
175,2,0.2,0.125,35.0,1,1.0,0.30169999999998254
176,2,0.2,0.25,35.0,1,1.0,0.5137000000000853
177,2,0.2,0.125,35.0,-1,0.0,3.0931000000000495
178,2,0.2,0.25,35.0,1,1.0,0.28280000000006567
179,2,0.2,0.0,35.0,-1,0.0,0.2677010000001019
180,2,0.2,0.125,35.0,-1,0.0,0.38669999999990523
181,2,0.2,0.125,35.0,1,1.0,0.37630000000001473
182,2,0.2,0.25,35.0,1,1.0,0.25279999999997926
183,2,0.2,0.125,35.0,1,1.0,0.29980000000000473
184,2,0.2,0.25,35.0,1,1.0,0.3727999999999838
185,2,0.2,0.0,35.0,-1,0.0,0.3142010000000255
186,2,0.2,1.0,-35.0,-1,1.0,0.35400000000004184
187,2,0.2,0.25,35.0,-1,0.0,0.34140000000002146
188,2,0.2,0.25,35.0,1,1.0,0.4352000000001226
189,2,0.2,1.0,35.0,1,1.0,0.23610000000007858
190,2,0.2,1.0,-35.0,-1,1.0,0.28309999999999036
191,2,0.2,0.0625,35.0,1,1.0,6.301799999999957
192,2,0.2,1.0,35.0,1,1.0,0.3727999999999838
193,2,0.2,0.125,-35.0,-1,1.0,0.28290000000004056
194,2,0.2,0.25,35.0,1,1.0,0.30910000000005766
195,2,0.2,0.0625,35.0,-1,0.0,0.3804010000000062
196,2,0.2,0.25,35.0,1,1.0,0.3168000000000575
197,2,0.2,0.0,35.0,-1,0.0,4.3858000000000175
198,2,0.2,0.25,35.0,1,1.0,0.2738000000000511
199,2,0.2,0.25,35.0,1,1.0,0.4291000000000622
200,2,0.2,0.0,35.0,1,1.0,3.5599999999999454
201,2,0.2,0.125,35.0,1,1.0,0.9477000000001681
202,2,0.2,0.0625,35.0,1,1.0,0.5761010000001079
203,2,0.2,1.0,35.0,1,1.0,0.2677999999999656
204,2,0.2,1.0,35.0,1,1.0,1.296799999999962
205,2,0.2,0.25,35.0,1,1.0,0.25870100000008733
206,2,0.2,1.0,-35.0,-1,1.0,0.6709000000000742
207,2,0.2,0.25,35.0,1,1.0,0.287900000000036
208,2,0.2,0.0,-35.0,-1,1.0,0.2721000000000231
209,2,0.2,0.0625,35.0,1,1.0,1.9599999999999227
210,2,0.2,0.0625,35.0,1,1.0,4.197099999999978
211,2,0.2,1.0,35.0,1,1.0,0.33969999999999345
212,2,0.2,0.25,35.0,1,1.0,0.7758000000000038
213,2,0.2,0.25,35.0,1,1.0,0.2736000000001013
214,2,0.2,0.0625,35.0,1,1.0,0.8727000000001226
215,2,0.2,0.0625,35.0,-1,0.0,0.3482000000000198
216,2,0.2,1.0,35.0,1,1.0,0.29980000000000473
217,2,0.2,0.125,-35.0,-1,1.0,0.3180999999999585
218,2,0.8,1.0,-35.0,-1,1.0,0.25250000000005457
219,2,0.8,1.0,-35.0,-1,1.0,0.26280000000008386
220,2,0.8,0.25,-35.0,-1,1.0,1.7757000000001426
221,2,0.8,0.0625,-35.0,1,0.0,1.0868000000000393
222,2,0.8,0.125,-35.0,-1,1.0,0.29720000000008895
223,2,0.8,0.0,-35.0,1,0.0,4.210700000000088
224,2,0.8,0.0,-35.0,-1,1.0,0.2652000000001635
225,2,0.8,0.25,-35.0,-1,1.0,0.2826999999999771
226,2,0.8,0.0625,35.0,1,1.0,4.061699999999973
227,2,0.8,0.0,-35.0,1,0.0,0.6406999999999243
228,2,0.8,0.0,-35.0,1,0.0,0.2948999999999842
229,2,0.8,0.125,-35.0,-1,1.0,0.34770000000003165
230,2,0.8,1.0,-35.0,-1,1.0,0.29179999999996653
231,2,0.8,0.0,-35.0,-1,1.0,2.0942999999999756
232,2,0.8,1.0,-35.0,-1,1.0,0.2552009999999427
233,2,0.8,0.0625,-35.0,-1,1.0,0.3678999999997359
234,2,0.8,0.0,35.0,1,1.0,1.0856999999998607
235,2,0.8,0.0,-35.0,-1,1.0,1.9347000000000207
236,2,0.8,0.0,35.0,-1,0.0,0.31569999999987886
237,2,0.8,0.25,-35.0,-1,1.0,0.49479999999994106
238,2,0.8,0.25,-35.0,-1,1.0,1.712701000000152
239,2,0.8,0.0625,35.0,-1,0.0,1.3583000000000993
240,2,0.8,0.125,-35.0,-1,1.0,0.26280000000019754
241,2,0.8,0.0,-35.0,-1,1.0,0.2887000000000626
242,2,0.8,0.0,35.0,1,1.0,2.279700000000048
243,2,0.8,0.25,-35.0,-1,1.0,0.2954000000001997
244,2,0.8,0.25,-35.0,-1,1.0,1.2130000000001928
245,2,0.8,0.0,-35.0,-1,1.0,2.142300000000205
246,2,0.8,0.125,-35.0,-1,1.0,0.29310000000009495
247,2,0.8,1.0,-35.0,-1,1.0,0.33900000000016917
248,2,0.8,0.0625,-35.0,-1,1.0,1.1933000000001357
249,2,0.8,0.0,-35.0,1,0.0,3.055699999999888
250,2,0.8,0.0,-35.0,-1,1.0,0.3037000000001626
251,2,0.8,0.125,-35.0,-1,1.0,0.3260000000002492
252,2,0.8,0.0625,35.0,-1,0.0,0.46679999999992106
253,2,0.8,0.125,35.0,1,1.0,0.31940000000008695
254,2,0.8,0.25,-35.0,-1,1.0,0.3269000000000233
255,2,0.8,0.0,-35.0,1,0.0,2.6062000000001717
256,2,0.8,1.0,35.0,-1,0.0,0.1647000000002663
257,2,0.8,0.25,-35.0,-1,1.0,0.26319999999986976
258,2,0.8,0.125,-35.0,-1,1.0,0.5372999999999593
259,2,0.8,0.25,-35.0,-1,1.0,0.2765999999999167
260,2,0.8,0.0,-35.0,-1,1.0,0.5341000000000804
261,2,0.8,0.125,-35.0,-1,1.0,0.27359999999998763
262,2,0.8,0.0625,-35.0,-1,1.0,0.5244010000001254
263,2,0.8,0.0625,-35.0,-1,1.0,0.2700999999999567
264,2,0.8,0.125,35.0,1,1.0,0.771701000000121
265,2,0.8,0.125,35.0,-1,0.0,0.3907000000001517
266,2,0.8,0.0,-35.0,-1,1.0,1.641700000000128
267,2,0.8,0.0,35.0,-1,0.0,9.543800000000147
268,2,0.8,0.0,-35.0,-1,1.0,0.46170100000017555
269,2,0.8,0.25,35.0,1,1.0,0.2510010000000875
270,2,0.8,0.25,35.0,1,1.0,0.26510000000007494
271,2,0.8,0.125,-35.0,-1,1.0,0.32770000000004984
272,2,0.8,0.25,-35.0,-1,1.0,0.2453010000001541
273,2,0.8,0.0,35.0,1,1.0,0.39449999999987995
274,2,0.8,0.0,-35.0,-1,1.0,1.3393000000000939
275,2,0.8,1.0,-35.0,-1,1.0,0.6646000000002914
276,2,0.8,0.125,-35.0,-1,1.0,0.3121000000001004
277,2,0.8,0.125,-35.0,-1,1.0,4.34479999999985
278,2,0.8,0.125,-35.0,-1,1.0,0.3026999999999589
279,2,0.8,1.0,-35.0,-1,1.0,0.31159999999999854
280,2,0.8,1.0,35.0,1,1.0,0.3991000000000895
281,2,0.8,1.0,35.0,1,1.0,0.38180000000011205
282,2,0.8,0.25,35.0,1,1.0,0.24929999999994834
283,2,0.8,0.0625,-35.0,-1,1.0,0.3486000000000331
284,2,0.2,0.0,-35.0,1,0.0,1.522799999999961
285,2,0.2,1.0,35.0,1,1.0,0.4753000000000611
286,2,0.2,0.125,35.0,1,1.0,0.3229999999998654
287,2,0.2,0.125,-35.0,-1,1.0,0.2857000000001335
288,2,0.2,0.125,35.0,1,1.0,0.3829000000000633
289,2,0.2,0.0,35.0,-1,0.0,0.38570000000004256
290,2,0.2,0.0,35.0,1,1.0,4.57329999999979
291,2,0.2,0.0625,35.0,-1,0.0,0.2059999999999036
292,2,0.2,1.0,35.0,1,1.0,0.4734000000000833
293,2,0.2,0.0,35.0,1,1.0,2.6196000000002186
294,2,0.2,0.125,-35.0,-1,1.0,0.4275000000000091
295,2,0.2,0.0625,35.0,-1,0.0,2.039700000000039
296,2,0.2,0.0,35.0,-1,0.0,2.077099999999973
297,2,0.2,0.125,35.0,1,1.0,0.3097000000002481
298,2,0.2,0.25,35.0,1,1.0,0.2942000000000462
299,2,0.2,0.0625,-35.0,1,0.0,1.363399999999956
300,2,0.2,0.0625,35.0,-1,0.0,0.2945999999999458
301,2,0.2,1.0,35.0,1,1.0,0.8069000000000415
302,2,0.2,0.0625,35.0,-1,0.0,0.30770000000006803
303,2,0.2,1.0,35.0,1,1.0,0.35710000000017317
304,2,0.2,1.0,35.0,1,1.0,0.4177999999999429
305,2,0.2,0.0,-35.0,-1,1.0,0.823900999999978
306,2,0.2,0.0625,-35.0,-1,1.0,0.4180999999998676
307,2,0.2,0.0625,35.0,-1,0.0,1.193899999999985
308,2,0.2,0.25,35.0,1,1.0,0.4155000000000655
309,2,0.2,0.0,35.0,1,1.0,7.950799999999845
310,2,0.2,1.0,35.0,1,1.0,0.2820999999999003
311,2,0.2,0.125,35.0,1,1.0,0.3646000000001095
312,2,0.2,0.25,35.0,-1,0.0,3.9018009999999776
313,2,0.2,0.0,35.0,-1,0.0,1.3513009999999213
314,2,0.2,0.0,35.0,1,1.0,0.5396009999999478
315,2,0.2,0.0,35.0,-1,0.0,0.9815999999998439
316,2,0.2,0.0625,-35.0,-1,1.0,0.29510000000004766
317,2,0.2,1.0,-35.0,-1,1.0,0.2658000000001266
318,2,0.2,0.25,35.0,1,1.0,0.3318000000001575
319,2,0.2,0.0625,35.0,1,1.0,0.6092000000001008
320,2,0.2,0.125,-35.0,-1,1.0,0.348700000000008
321,2,0.2,0.0625,-35.0,-1,1.0,0.31950000000006185
322,2,0.2,0.125,35.0,1,1.0,1.1556009999999333
323,2,0.2,0.0,35.0,1,1.0,3.9531010000000606
324,2,0.2,0.0,35.0,-1,0.0,0.31890000000021246
325,2,0.2,1.0,35.0,1,1.0,0.6235999999998967
326,2,0.2,0.0625,35.0,1,1.0,0.5257999999998901
327,2,0.2,0.125,35.0,1,1.0,0.47680000000013933
328,2,0.2,0.125,35.0,1,1.0,0.25909999999998945
329,2,0.2,0.25,-35.0,-1,1.0,0.27010100000006787
330,2,0.2,0.0625,35.0,-1,0.0,0.682700000000068
331,2,0.2,0.0,35.0,-1,0.0,0.26070000000004256
332,2,0.2,0.125,35.0,1,1.0,0.3462000000001808
333,2,0.2,0.125,35.0,1,1.0,0.31060000000024957
334,2,0.2,0.0,35.0,-1,0.0,0.2796000000000731
335,2,0.2,0.25,35.0,1,1.0,0.274599999999964
336,2,0.2,1.0,35.0,1,1.0,0.3532000000000153
337,2,0.2,1.0,35.0,1,1.0,0.4046000000000731
338,2,0.2,0.25,-35.0,-1,1.0,0.233400999999958
339,2,0.2,0.0,35.0,-1,0.0,1.3044999999999618
340,2,0.2,1.0,35.0,1,1.0,0.46679999999992106
341,2,0.2,0.125,35.0,1,1.0,0.297800000000052
342,2,0.2,1.0,35.0,1,1.0,0.2536000000000058
343,2,0.2,0.25,35.0,1,1.0,0.2579009999999471
344,2,0.2,0.0625,35.0,1,1.0,0.45719999999982974
345,2,0.2,1.0,35.0,1,1.0,0.23829999999998108
346,2,0.2,0.0625,35.0,-1,0.0,0.330600000000004
347,2,0.2,0.0,-35.0,-1,1.0,2.298200000000179
348,2,0.2,0.125,35.0,1,1.0,2.174099999999953
349,2,0.2,0.25,35.0,1,1.0,0.2517000000002554
350,2,0.2,1.0,35.0,1,1.0,0.3143009999998867
351,2,0.2,1.0,35.0,1,1.0,0.24160100000017337
352,2,0.2,0.25,-35.0,-1,1.0,0.2545999999999822
353,2,0.2,1.0,-35.0,-1,1.0,1.6126000000001568
354,2,0.2,1.0,35.0,1,1.0,0.41460000000006403
355,2,0.2,0.0,35.0,-1,0.0,0.3121000000001004
356,2,0.2,0.125,35.0,1,1.0,0.38809999999989486
357,2,0.2,1.0,-35.0,-1,1.0,0.26880000000005566
358,2,0.2,0.0625,35.0,1,1.0,0.404700000000048
359,2,0.2,0.125,-35.0,-1,1.0,0.37560000000007676
360,2,0.2,1.0,35.0,1,1.0,0.37479999999982283
361,2,0.2,0.0,35.0,1,1.0,2.0890999999999167
362,2,0.2,0.125,35.0,1,1.0,0.3217000000001917
363,2,0.2,1.0,-35.0,-1,1.0,0.2926009999998769
364,2,0.8,0.125,35.0,1,1.0,0.8152000000000044
365,2,0.8,0.0,-35.0,-1,1.0,0.2860000000000582
366,2,0.8,0.0,-35.0,-1,1.0,0.17870000000016262
367,2,0.8,0.125,35.0,-1,0.0,0.49289999999996326
368,2,0.8,0.0625,-35.0,-1,1.0,0.2820010000000366
369,2,0.8,0.0625,-35.0,-1,1.0,0.4198999999998705
370,2,0.8,0.125,-35.0,-1,1.0,0.26559999999994943
371,2,0.8,1.0,35.0,1,1.0,0.3736010000002352
372,2,0.8,0.0625,35.0,-1,0.0,0.34590000000002874
373,2,0.8,0.25,-35.0,-1,1.0,0.24659999999994398
374,2,0.8,0.125,-35.0,-1,1.0,0.24589999999989232
375,2,0.8,0.0,-35.0,-1,1.0,0.2369000000003325
376,2,0.8,0.0625,-35.0,-1,1.0,0.29930000000013024
377,2,0.8,0.25,-35.0,-1,1.0,0.2767999999998665
378,2,0.8,0.25,35.0,1,1.0,0.41600000000016735
379,2,0.8,0.0625,35.0,-1,0.0,0.3204000000000633
380,2,0.8,0.25,-35.0,-1,1.0,0.276299999999992
381,2,0.8,1.0,-35.0,-1,1.0,0.4804999999998927
382,2,0.8,0.125,-35.0,-1,1.0,0.289801000000125
383,2,0.8,0.0,-35.0,-1,1.0,0.2743009999999231
384,2,0.8,0.0,35.0,-1,0.0,3.8197999999999865
385,2,0.8,0.25,-35.0,-1,1.0,0.23410000000012587
386,2,0.8,1.0,-35.0,-1,1.0,0.23010100000010425
387,2,0.8,0.25,35.0,1,1.0,0.2679000000000542
388,2,0.8,1.0,-35.0,-1,1.0,0.2236000000000331
389,2,0.8,0.125,-35.0,-1,1.0,1.1043009999998503
390,2,0.8,1.0,-35.0,-1,1.0,0.30369999999993524
391,2,0.8,0.0625,35.0,1,1.0,0.35799999999994725
392,2,0.8,0.125,-35.0,-1,1.0,1.8438000000001011
393,2,0.8,0.25,-35.0,-1,1.0,0.7716000000000349
394,2,0.8,0.125,35.0,-1,0.0,0.3141000000000531
395,2,0.8,1.0,-35.0,-1,1.0,0.23479999999995016
396,2,0.8,0.25,-35.0,-1,1.0,0.2908999999999651
397,2,0.8,0.0625,-35.0,-1,1.0,4.468599999999924
398,2,0.8,0.25,-35.0,-1,1.0,0.2578000000000884
399,2,0.8,0.125,-35.0,-1,1.0,3.8756000000000768
400,2,0.8,1.0,-35.0,-1,1.0,0.33140000000003056
401,2,0.8,0.0625,-35.0,-1,1.0,0.31560000000013133
402,2,0.8,1.0,-35.0,-1,1.0,0.424701000000141
403,2,0.8,0.0,-35.0,-1,1.0,1.5123999999998432
404,2,0.8,0.125,-35.0,-1,1.0,0.2785999999998694
405,2,0.8,1.0,-35.0,-1,1.0,0.24660000000017135
406,2,0.8,1.0,35.0,1,1.0,0.26860000000010587
407,2,0.8,0.25,35.0,1,1.0,0.29290000000014516
408,2,0.8,0.0625,-35.0,1,0.0,1.1685999999999694
409,2,0.2,0.25,35.0,1,1.0,0.18960000000015498
410,2,0.2,0.0,35.0,1,1.0,5.588600000000042
411,2,0.2,0.0,-35.0,-1,1.0,0.29960000000005493
412,2,0.2,0.125,35.0,1,1.0,3.7856000000001586
413,2,0.2,0.0625,35.0,-1,0.0,0.31690000000025975
414,2,0.2,0.0,-35.0,-1,1.0,3.9592009999998936
415,2,0.2,1.0,35.0,1,1.0,0.2701000000001841
416,2,0.2,0.125,35.0,1,1.0,0.3790999999998803
417,2,0.2,0.125,35.0,1,1.0,0.3106000000000222
418,2,0.2,0.0,35.0,-1,0.0,2.29950000000008
419,2,0.2,0.25,-35.0,-1,1.0,0.2672000000002299
420,2,0.2,0.0625,-35.0,-1,1.0,0.5596000000000458
421,2,0.2,1.0,-35.0,-1,1.0,0.2541000000001077
422,2,0.2,0.0625,35.0,-1,0.0,0.32310000000006767
423,2,0.2,0.125,35.0,-1,0.0,0.3575999999998203
424,2,0.2,0.25,35.0,1,1.0,0.2733010000001741
425,2,0.2,1.0,35.0,1,1.0,0.35760000000004766
426,2,0.2,1.0,35.0,1,1.0,0.29670000000010077
427,2,0.2,0.25,35.0,1,1.0,0.2676000000001295
428,2,0.2,0.25,35.0,1,1.0,0.28350000000000364
429,2,0.2,0.25,35.0,-1,0.0,0.11160000000018044
430,2,0.2,0.125,35.0,1,1.0,0.42760000000021137
431,2,0.2,1.0,35.0,1,1.0,0.274599999999964
432,2,0.2,0.0,35.0,1,1.0,3.2740000000001146
433,2,0.2,0.125,35.0,1,1.0,0.5182000000002063
434,2,0.2,1.0,35.0,1,1.0,0.37750000000005457
435,2,0.2,1.0,-35.0,-1,1.0,0.3451999999999771
436,2,0.2,1.0,-35.0,-1,1.0,0.2908999999999651
437,2,0.2,0.125,35.0,-1,0.0,0.24859999999989668
438,2,0.2,0.0,35.0,-1,0.0,3.481499999999869
439,2,0.2,1.0,35.0,1,1.0,0.2726000000000113
440,2,0.2,0.0,35.0,1,1.0,0.5881000000001677
441,2,0.2,0.0,35.0,1,1.0,0.44230000000015934
442,2,0.2,0.25,35.0,1,1.0,0.2882000000001881
443,2,0.2,0.125,35.0,1,1.0,0.2924999999997908
444,2,0.2,0.25,-35.0,1,0.0,2.451699999999846
445,2,0.2,0.25,35.0,1,1.0,0.38960100000008424
446,2,0.2,0.0,35.0,-1,0.0,0.34189999999989595
447,2,0.2,0.0625,-35.0,1,0.0,0.6662010000000009
448,2,0.2,0.0625,35.0,1,1.0,0.4921000000001641
449,2,0.2,1.0,35.0,1,1.0,0.2395010000000184
450,2,0.2,1.0,35.0,1,1.0,0.2721010000000206
451,2,0.2,0.0,35.0,1,1.0,0.6430000000000291
452,2,0.2,0.0625,35.0,1,1.0,0.26559999999994943
453,2,0.2,0.0625,-35.0,-1,1.0,0.2765999999999167
454,2,0.2,0.0625,-35.0,-1,1.0,0.2758000000001175
455,2,0.2,1.0,-35.0,-1,1.0,0.26350000000002183
456,2,0.8,1.0,-35.0,-1,1.0,0.2660000000000764
457,2,0.8,0.25,-35.0,-1,1.0,0.35349999999994
458,2,0.8,1.0,-35.0,-1,1.0,0.25270000000000437
459,2,0.8,0.25,35.0,1,1.0,0.29389999999989413
460,2,0.8,0.125,35.0,1,1.0,0.3994999999999891
461,2,0.8,0.0,-35.0,1,0.0,0.3006000000000313
462,2,0.8,0.25,-35.0,-1,1.0,0.24650100000008024
463,2,0.8,0.25,35.0,1,1.0,0.31749999999988177
464,2,0.8,0.0,35.0,1,1.0,0.4999009999999089
465,2,0.8,0.0,35.0,-1,0.0,0.3040000000000873
466,2,0.8,0.0625,-35.0,-1,1.0,0.3099000000001979
467,2,0.8,1.0,-35.0,-1,1.0,0.26460100000008424
468,2,0.8,0.0625,35.0,1,1.0,1.6835000000000946
469,2,0.8,0.125,-35.0,-1,1.0,0.24759999999992033
470,2,0.8,0.0625,-35.0,-1,1.0,2.31029999999987
471,2,0.8,0.125,-35.0,-1,1.0,0.3144999999999527
472,2,0.8,0.0,-35.0,-1,1.0,0.2939010000000053
473,2,0.8,0.125,-35.0,-1,1.0,0.4048000000002503
474,2,0.8,0.0625,-35.0,-1,1.0,0.9273000000002867
475,2,0.8,0.0625,-35.0,-1,1.0,1.3350000000000364
476,2,0.8,0.25,-35.0,-1,1.0,0.2440999999998894
477,2,0.8,1.0,-35.0,-1,1.0,0.24160000000028958
478,2,0.8,0.0625,-35.0,-1,1.0,0.2709999999997308
479,2,0.8,0.125,-35.0,-1,1.0,0.2952999999997701
480,2,0.8,0.125,-35.0,-1,1.0,0.24110000000018772
481,2,0.8,0.0,-35.0,-1,1.0,0.7887999999998101
482,2,0.8,0.0625,-35.0,-1,1.0,1.1311000000000604
483,2,0.8,1.0,35.0,1,1.0,0.2725000000000364
484,2,0.8,0.125,-35.0,-1,1.0,0.23150100000020757
485,2,0.8,0.125,-35.0,-1,1.0,0.28890000000001237
486,2,0.8,0.0,-35.0,-1,1.0,0.2915000000002692
487,2,0.8,0.0,-35.0,-1,1.0,0.5225000000000364
488,2,0.8,0.125,-35.0,-1,1.0,0.25169999999980064
489,2,0.8,0.0,-35.0,-1,1.0,0.2759000000000924
490,2,0.8,0.0,-35.0,-1,1.0,0.2851009999994858
491,2,0.8,0.0,-35.0,-1,1.0,0.26950099999976374
492,2,0.8,0.25,-35.0,-1,1.0,0.5917999999996937
493,2,0.8,1.0,-35.0,-1,1.0,0.2795000000000982
494,2,0.8,0.0,35.0,-1,0.0,0.5455999999999221
495,2,0.8,0.25,-35.0,-1,1.0,0.30350099999986924
496,2,0.8,0.0,-35.0,-1,1.0,0.328899999999976
497,2,0.8,0.0625,-35.0,-1,1.0,0.2835009999998874
498,2,0.8,0.25,-35.0,-1,1.0,0.15909999999985303
499,2,0.8,0.0,-35.0,-1,1.0,0.29359999999996944
500,2,0.8,0.25,-35.0,-1,1.0,0.26270100000010643
501,2,0.8,0.125,-35.0,-1,1.0,1.1269000000002052
502,2,0.8,1.0,-35.0,-1,1.0,0.2096000000001368
503,2,0.8,0.0,-35.0,-1,1.0,1.7368999999998778
504,2,0.8,0.0,-35.0,-1,1.0,0.36300000000028376
505,2,0.8,0.0,-35.0,-1,1.0,0.27700000000004366
506,2,0.8,0.125,-35.0,-1,1.0,1.4796000000001186
507,2,0.8,0.25,-35.0,-1,1.0,0.3206000000000131
508,2,0.8,1.0,-35.0,-1,1.0,0.31310000000030414
509,2,0.8,0.125,-35.0,-1,1.0,0.6440999999999804
510,2,0.8,0.0,-35.0,-1,1.0,0.2266999999997097
511,2,0.8,0.125,-35.0,-1,1.0,0.3775000000005093
512,2,0.8,0.0,-35.0,-1,1.0,2.906800000000203
513,2,0.8,0.25,35.0,1,1.0,0.3945000000003347
514,2,0.8,0.125,-35.0,-1,1.0,0.24380100000007587
515,2,0.8,0.0625,-35.0,-1,1.0,0.39500000000043656
516,2,0.8,0.0,-35.0,-1,1.0,0.27050099999996746
517,2,0.8,0.25,-35.0,-1,1.0,0.3714999999997417
518,2,0.8,0.0,-35.0,-1,1.0,0.26739999999972497
519,2,0.8,1.0,35.0,1,1.0,1.2885009999999966
520,2,0.8,0.0,-35.0,-1,1.0,0.4742999999998574
521,2,0.8,0.0,-35.0,-1,1.0,0.21830099999988306
522,2,0.8,0.125,-35.0,-1,1.0,0.27759999999989304
523,2,0.8,0.25,35.0,1,1.0,0.3255010000002585
524,2,0.8,1.0,-35.0,-1,1.0,0.244499999999789
525,2,0.8,0.0,-35.0,-1,1.0,0.9155000000000655
526,2,0.8,0.0625,-35.0,-1,1.0,0.1046000000001186
527,2,0.8,0.0,35.0,-1,0.0,0.4823999999998705
528,2,0.8,0.25,-35.0,-1,1.0,0.3180999999999585
529,2,0.8,0.125,35.0,1,1.0,0.282799999999952
530,2,0.8,1.0,-35.0,-1,1.0,0.1916999999998552
531,2,0.8,1.0,-35.0,-1,1.0,1.602600000000166
532,2,0.8,0.0,-35.0,1,0.0,0.16850000000022192
533,2,0.8,0.0625,-35.0,-1,1.0,0.2761999999997897
534,2,0.8,0.25,35.0,-1,0.0,0.30530099999987215
535,2,0.8,0.0,-35.0,-1,1.0,0.24620000000004438
536,2,0.8,0.25,-35.0,-1,1.0,0.5421000000001186
537,2,0.8,0.125,35.0,1,1.0,0.6129009999999653
538,2,0.8,1.0,35.0,1,1.0,0.31559999999990396
539,2,0.8,0.125,-35.0,-1,1.0,0.29320000000006985
540,2,0.8,0.25,-35.0,-1,1.0,0.3390999999996893
541,2,0.8,0.125,-35.0,-1,1.0,0.3499000000001615
542,2,0.8,0.0625,-35.0,-1,1.0,0.3295000000002801
543,2,0.2,1.0,35.0,1,1.0,0.36000000000012733
544,2,0.2,1.0,35.0,1,1.0,0.3158999999996013
545,2,0.2,0.0625,-35.0,-1,1.0,0.7800999999999476
546,2,0.2,0.0625,35.0,-1,0.0,0.5565000000001419
547,2,0.2,0.0,35.0,-1,0.0,0.2838000000001557
548,2,0.2,0.0625,35.0,-1,0.0,0.2662999999997737
549,2,0.2,0.0,35.0,-1,0.0,0.32150000000001455
550,2,0.2,0.125,35.0,-1,0.0,0.38659999999981665
551,2,0.2,0.0,35.0,-1,0.0,0.26419999999961874
552,2,0.2,0.125,35.0,1,1.0,0.31009999999969295
553,2,0.2,0.125,35.0,1,1.0,0.731499999999869
554,2,0.2,0.25,35.0,1,1.0,1.380500000000211
555,2,0.2,0.125,-35.0,1,0.0,0.48780000000033397
556,2,0.2,1.0,35.0,1,1.0,0.45720099999971353
557,2,0.2,1.0,-35.0,-1,1.0,0.5245009999998729
558,2,0.2,0.125,35.0,1,1.0,0.3872999999998683
559,2,0.2,0.0,35.0,-1,0.0,2.878099999999904
560,2,0.2,0.0625,35.0,1,1.0,0.3474999999998545
561,2,0.2,0.125,35.0,-1,0.0,0.8085000000000946
562,2,0.2,0.25,35.0,1,1.0,0.2775000000001455
563,2,0.2,0.0625,35.0,-1,0.0,0.32169999999996435
564,2,0.2,1.0,35.0,1,1.0,0.25770099999954255
565,2,0.2,0.25,35.0,1,1.0,0.29850000000033106
566,2,0.2,0.25,35.0,1,1.0,0.4879000000000815
567,2,0.2,0.0,35.0,-1,0.0,0.35210000000006403
568,2,0.2,0.0,35.0,-1,0.0,0.46469999999999345
569,2,0.2,0.25,35.0,1,1.0,0.238901000000169
570,2,0.2,0.0625,35.0,1,1.0,0.36850000000004
571,2,0.2,1.0,35.0,1,1.0,0.2757000000001426
572,2,0.2,0.0625,35.0,1,1.0,0.3350000000000364
573,2,0.2,1.0,35.0,1,1.0,0.2464999999997417
574,2,0.2,0.125,35.0,1,1.0,0.8055000000003929
575,2,0.2,0.125,35.0,1,1.0,0.3565000000003238
576,2,0.2,1.0,35.0,1,1.0,0.35199999999986176
577,2,0.2,1.0,35.0,1,1.0,0.32300000000032014
578,2,0.2,0.125,35.0,1,1.0,0.3988009999998212
579,2,0.2,0.25,-35.0,-1,1.0,0.2730010000004768
580,2,0.2,0.125,35.0,1,1.0,0.2990010000003167
581,2,0.2,0.25,-35.0,-1,1.0,0.27970000000050277
582,2,0.2,0.25,35.0,1,1.0,0.9558000000001812
583,2,0.2,0.0625,35.0,1,1.0,0.6168000000002394
584,2,0.2,0.0625,35.0,-1,0.0,0.2694000000001324
585,2,0.2,0.125,35.0,1,1.0,0.2035000000000764
586,2,0.2,0.0625,35.0,1,1.0,0.3627999999998792
587,2,0.2,1.0,35.0,1,1.0,0.4837000000002263
588,2,0.2,0.25,35.0,1,1.0,0.26650100000006205
589,2,0.2,0.25,35.0,1,1.0,0.28450000000020736
590,2,0.2,0.0,35.0,1,1.0,0.5329999999999018
591,2,0.2,1.0,-35.0,-1,1.0,0.19749999999976353
592,2,0.2,0.125,-35.0,-1,1.0,0.3065999999998894
593,2,0.2,0.25,35.0,1,1.0,0.42750100000012026
594,2,0.2,0.25,35.0,1,1.0,0.28350000000000364
595,2,0.2,0.0,-35.0,-1,1.0,4.431500000000142
596,2,0.2,0.0,-35.0,-1,1.0,0.6938000000000102
597,2,0.2,0.125,35.0,1,1.0,2.6684000000000196
598,2,0.2,1.0,-35.0,-1,1.0,0.2737999999999374
599,2,0.2,0.0625,-35.0,-1,1.0,0.21129999999993743
600,2,0.2,0.0625,35.0,-1,0.0,0.7174009999998816
601,2,0.2,0.0,35.0,-1,0.0,0.2915000000002692
602,2,0.2,0.0625,35.0,1,1.0,0.3407999999999447
603,2,0.2,0.0625,35.0,1,1.0,0.425499999999829
604,2,0.2,0.0625,-35.0,-1,1.0,0.3376000000002932
605,2,0.2,0.25,-35.0,-1,1.0,0.2584999999999127
606,2,0.2,0.125,35.0,1,1.0,0.28130000000010114
607,2,0.2,0.0625,35.0,1,1.0,2.192500999999993
608,2,0.2,1.0,35.0,1,1.0,0.34130000000004657
609,2,0.2,0.125,35.0,-1,0.0,0.27870000000029904
610,2,0.2,1.0,35.0,1,1.0,0.23840000000018335
611,2,0.2,0.0625,35.0,1,1.0,0.2858000000001084
612,2,0.2,0.0,35.0,1,1.0,0.4682999999999993
613,2,0.2,0.125,35.0,-1,0.0,0.8393999999998414
614,2,0.2,0.125,35.0,1,1.0,0.47180000000025757
615,2,0.2,0.125,35.0,1,1.0,0.22650000000021464
616,2,0.2,0.25,35.0,1,1.0,0.24190100000032544
617,2,0.2,0.25,-35.0,-1,1.0,2.8095000000002983
618,2,0.2,0.25,35.0,1,1.0,0.5321999999996478
619,2,0.2,0.25,35.0,1,1.0,0.3100000000004002
620,2,0.2,1.0,35.0,1,1.0,0.25900000000001455
621,2,0.2,0.0,35.0,-1,0.0,0.39340000000038344
622,2,0.2,0.0625,35.0,-1,0.0,3.989100999999664
623,2,0.2,0.0,35.0,1,1.0,2.7274999999999636
624,2,0.2,1.0,-35.0,-1,1.0,0.3694000000000415
625,2,0.8,0.125,-35.0,-1,1.0,0.26379999999971915
626,2,0.8,0.25,-35.0,-1,1.0,0.659701000000041
627,2,0.8,0.0625,35.0,1,1.0,0.20710000000008222
628,2,0.8,0.0,-35.0,1,0.0,0.33969999999999345
629,2,0.8,0.0,35.0,-1,0.0,0.6508000000003449
630,2,0.8,0.0,-35.0,1,0.0,0.3263999999999214
631,2,0.8,0.25,-35.0,-1,1.0,0.28070100000013554
632,2,0.8,0.125,-35.0,-1,1.0,1.7467999999998938
633,2,0.8,0.125,-35.0,-1,1.0,0.3144009999996342
634,2,0.8,1.0,-35.0,-1,1.0,0.4170009999998001
635,2,0.8,0.125,35.0,1,1.0,0.4815009999997528
636,2,0.8,0.0,-35.0,1,0.0,7.666999999999916
637,2,0.8,0.0,35.0,-1,0.0,1.5914999999999964
638,2,0.8,0.125,-35.0,-1,1.0,0.2942000000002736
639,2,0.8,0.125,35.0,1,1.0,0.28549999999995634
640,2,0.8,0.125,-35.0,-1,1.0,2.6277000000000044
641,2,0.8,1.0,-35.0,-1,1.0,0.2618000000002212
642,2,0.8,1.0,-35.0,-1,1.0,0.22790000000031796
643,2,0.8,1.0,-35.0,-1,1.0,0.2786999999998443
644,2,0.8,0.0625,-35.0,-1,1.0,0.24459999999999127
645,2,0.8,0.0,35.0,-1,0.0,0.9687999999996464
646,2,0.8,1.0,-35.0,-1,1.0,0.8380999999999403
647,2,0.8,1.0,-35.0,-1,1.0,0.21920000000000073
648,2,0.8,0.125,-35.0,-1,1.0,0.21489999999994325
649,2,0.8,1.0,-35.0,-1,1.0,0.2393999999994776
650,2,0.8,0.25,-35.0,-1,1.0,0.29520000000002256
651,2,0.8,1.0,-35.0,-1,1.0,0.593300000000454
652,2,0.8,0.0,-35.0,1,0.0,0.46190000000024156
653,2,0.8,0.0625,-35.0,-1,1.0,0.3263999999999214
654,2,0.8,0.25,-35.0,-1,1.0,2.2188999999998487
655,2,0.8,0.125,35.0,1,1.0,0.5105000000003201
656,2,0.8,0.0,-35.0,-1,1.0,0.44900000000052387
657,2,0.8,0.0,-35.0,1,0.0,3.083600000000388
658,2,0.8,0.25,35.0,1,1.0,0.24919999999974607
659,2,0.8,0.125,35.0,1,1.0,0.9436999999998079
660,2,0.8,0.0,35.0,-1,0.0,0.10609999999996944
661,2,0.8,0.25,-35.0,-1,1.0,0.5769999999997708
662,2,0.8,0.125,-35.0,-1,1.0,0.3863000000001193
663,2,0.8,0.0625,-35.0,-1,1.0,0.5105000000003201
664,2,0.8,0.0,-35.0,-1,1.0,6.76640099999986
665,2,0.8,0.0625,-35.0,-1,1.0,0.47739999999976135
666,2,0.8,0.0,-35.0,-1,1.0,0.31340000000000146
667,2,0.8,0.25,35.0,1,1.0,0.4210000000002765
668,2,0.8,0.125,-35.0,-1,1.0,0.34700000000020736
669,2,0.8,0.125,-35.0,-1,1.0,3.011500000000069
670,2,0.8,0.0,35.0,-1,0.0,0.2474000000001979
671,2,0.8,0.25,35.0,1,1.0,0.2847999999999047
672,2,0.8,1.0,-35.0,-1,1.0,0.28399999999965075
673,2,0.8,1.0,-35.0,-1,1.0,0.27540099999987433
674,2,0.8,0.25,-35.0,-1,1.0,0.30399999999963256
675,2,0.8,0.0625,35.0,1,1.0,1.0550010000001748
676,2,0.8,0.125,-35.0,-1,1.0,0.24750000000040018
677,2,0.8,0.125,35.0,-1,0.0,0.3285000000000764
678,2,0.8,1.0,-35.0,-1,1.0,0.2644999999997708
679,2,0.8,0.125,-35.0,-1,1.0,0.9921999999996842
680,2,0.8,0.25,-35.0,-1,1.0,0.5244999999999891
681,2,0.8,0.0,35.0,-1,0.0,2.052299999999832
682,2,0.8,1.0,-35.0,-1,1.0,0.2725000000000364
683,2,0.8,0.0625,-35.0,-1,1.0,0.37480099999947925
684,2,0.8,0.0625,-35.0,-1,1.0,0.3259000000002743
685,2,0.8,0.0,-35.0,-1,1.0,4.851599999999507
686,2,0.8,0.25,-35.0,-1,1.0,0.2725000000004911
687,2,0.8,0.25,-35.0,-1,1.0,0.9983999999999469
688,2,0.8,0.0,-35.0,-1,1.0,8.74290000000019
689,2,0.8,0.25,35.0,1,1.0,0.5888999999997395
690,2,0.8,0.25,-35.0,-1,1.0,0.2863999999999578
691,2,0.8,0.25,35.0,1,1.0,0.26569999999992433
692,2,0.8,0.0625,-35.0,-1,1.0,4.4804000000003725
693,2,0.8,0.0625,-35.0,-1,1.0,0.2992999999996755
694,2,0.8,0.25,35.0,1,1.0,1.8975000000004911
695,2,0.8,0.25,-35.0,-1,1.0,0.4229000000000269
696,2,0.8,0.25,-35.0,-1,1.0,0.34380000000010114
697,2,0.8,1.0,-35.0,-1,1.0,0.26969999999982974
698,2,0.8,0.125,-35.0,-1,1.0,0.6914010000000417
699,2,0.8,0.0625,-35.0,1,0.0,1.739799999999832
700,2,0.8,0.25,35.0,1,1.0,0.30410100000017337
701,2,0.8,1.0,-35.0,-1,1.0,0.4501000000004751
702,2,0.8,0.25,-35.0,-1,1.0,0.5806999999999789
703,2,0.8,0.125,35.0,1,1.0,0.300499999999829
704,2,0.8,0.0625,-35.0,-1,1.0,0.7268999999996595
705,2,0.8,0.125,-35.0,-1,1.0,0.47040100000003804
706,2,0.8,0.125,-35.0,-1,1.0,0.6313000000004649
707,2,0.8,0.0625,-35.0,-1,1.0,0.4170000000003711
708,2,0.8,1.0,-35.0,-1,1.0,0.2512010000000373
709,2,0.8,0.25,35.0,1,1.0,0.5973999999996522
710,2,0.8,0.0625,-35.0,1,0.0,0.7384000000001834
711,2,0.8,0.125,-35.0,-1,1.0,5.030699999999797
712,2,0.8,0.0625,-35.0,-1,1.0,0.7683999999999287
713,2,0.8,0.125,-35.0,-1,1.0,0.40439999999989595
714,2,0.8,1.0,-35.0,-1,1.0,0.2519999999999527
715,2,0.8,0.25,35.0,1,1.0,0.27799999999979264
716,2,0.2,1.0,-35.0,-1,1.0,0.2620999999999185
717,2,0.2,0.0,35.0,1,1.0,14.21140000000014
718,2,0.2,0.25,35.0,1,1.0,0.3226999999997133
719,2,0.2,1.0,35.0,1,1.0,0.33530000000018845
720,2,0.2,0.0625,35.0,1,1.0,0.26640000000043074
721,2,0.2,0.0,35.0,-1,0.0,3.035399999999754
722,2,0.2,0.25,35.0,1,1.0,0.2363999999997759
723,2,0.2,0.0625,35.0,1,1.0,0.25550099999964004
724,2,0.2,0.125,35.0,1,1.0,0.24640099999987797
725,2,0.2,0.25,35.0,1,1.0,1.1056000000003223
726,2,0.2,0.125,35.0,1,1.0,0.2968999999998232
727,2,0.2,0.0,35.0,-1,0.0,0.6858999999999469
728,2,0.2,1.0,35.0,1,1.0,0.3168000000000575
729,2,0.2,0.25,35.0,1,1.0,0.2460999999998421
730,2,0.2,1.0,35.0,1,1.0,0.2834000000002561
731,2,0.2,0.25,-35.0,-1,1.0,0.21640100000058737
732,2,0.2,0.0,35.0,1,1.0,0.20710000000008222
733,2,0.2,0.125,35.0,1,1.0,0.9729000000002088
734,2,0.2,0.0,35.0,1,1.0,4.98739999999998
735,2,0.2,0.25,35.0,1,1.0,0.4865999999997257
736,2,0.2,0.0625,35.0,1,1.0,0.22410000000036234
737,2,0.2,1.0,35.0,1,1.0,0.22670000000016444
738,2,0.2,0.25,-35.0,-1,1.0,0.5514000000002852
739,2,0.2,0.0,-35.0,1,0.0,1.3068999999995867
740,2,0.2,0.0625,35.0,1,1.0,0.31140000000004875
741,2,0.2,1.0,35.0,1,1.0,0.3971000000001368
742,2,0.2,1.0,-35.0,-1,1.0,0.2849999999998545
743,2,0.2,0.125,-35.0,-1,1.0,0.9106010000000424
744,2,0.2,0.0625,35.0,1,1.0,4.148400000000038
745,2,0.2,0.125,35.0,1,1.0,1.837399999999434
746,2,0.2,1.0,35.0,1,1.0,0.21540000000049986
747,2,0.2,1.0,35.0,1,1.0,0.3209999999999127
748,2,0.2,0.125,35.0,1,1.0,1.5554000000001906
749,2,0.2,0.125,35.0,1,1.0,0.2779000000000451
750,2,0.2,0.125,35.0,1,1.0,1.225500000000011
751,2,0.2,1.0,35.0,1,1.0,0.25460100000009334
752,2,0.2,0.25,35.0,1,1.0,2.3093999999996413
753,2,0.2,0.125,35.0,-1,0.0,1.472400000000107
754,2,0.2,0.125,35.0,1,1.0,0.296100000000024
755,2,0.2,0.0,35.0,1,1.0,2.098399999999856
756,2,0.2,0.0625,35.0,1,1.0,0.38619999999991705
757,2,0.2,0.25,35.0,1,1.0,0.17190000000027794
758,2,0.2,0.25,35.0,1,1.0,0.2563010000003487
759,2,0.2,0.0625,35.0,1,1.0,8.868800999999621
760,2,0.2,0.125,-35.0,-1,1.0,0.6431000000002314
761,2,0.2,0.0,35.0,1,1.0,0.34940000000005966
762,2,0.2,1.0,35.0,1,1.0,0.37669999999980064
763,2,0.2,1.0,35.0,1,1.0,0.302599999999984
764,2,0.2,0.0,35.0,1,1.0,0.4501999999997679
765,2,0.2,0.25,-35.0,-1,1.0,0.5594999999998436
766,2,0.2,0.0625,35.0,1,1.0,1.6374000000000706
767,2,0.2,1.0,35.0,1,1.0,0.4733000000001084
768,2,0.2,0.0,35.0,-1,0.0,0.27389999999968495
769,2,0.2,0.125,35.0,1,1.0,0.6799000000000888
770,2,0.8,1.0,-35.0,-1,1.0,0.28139999999984866
771,2,0.8,0.0,35.0,-1,0.0,0.8632999999999811
772,2,0.8,0.0,-35.0,-1,1.0,13.4675000000002
773,2,0.8,1.0,35.0,1,1.0,0.2573000000002139
774,2,0.8,0.0,-35.0,1,0.0,1.044499999999971
775,2,0.8,0.25,-35.0,-1,1.0,0.27070000000003347
776,2,0.8,0.0625,-35.0,-1,1.0,4.441400000000158
777,2,0.8,0.0,35.0,-1,0.0,8.164400000000114
778,2,0.8,0.0625,-35.0,-1,1.0,0.31530000000020664
779,2,0.8,0.25,-35.0,-1,1.0,0.2744999999999891
780,2,0.8,0.0625,-35.0,-1,1.0,2.868800000000192
781,2,0.8,0.0625,-35.0,-1,1.0,0.3247999999998683
782,2,0.8,0.125,-35.0,-1,1.0,0.31239999999979773
783,2,0.8,1.0,-35.0,-1,1.0,0.2782009999996262
784,2,0.8,1.0,-35.0,-1,1.0,0.2726999999999862
785,2,0.8,0.0,-35.0,-1,1.0,0.37170000000014625
786,2,0.8,0.25,-35.0,-1,1.0,0.2494000000001506
787,2,0.8,0.125,-35.0,-1,1.0,0.4884999999999309
788,2,0.8,0.0,-35.0,-1,1.0,1.2362999999995736
789,2,0.8,0.125,-35.0,-1,1.0,0.36200000000008004
790,2,0.8,0.0625,-35.0,-1,1.0,2.919499999999516
791,2,0.8,0.25,-35.0,-1,1.0,0.21240000000034343
792,2,0.8,0.25,-35.0,-1,1.0,0.36029999999982465
793,2,0.8,0.0625,-35.0,-1,1.0,0.2624009999994996
794,2,0.8,1.0,-35.0,-1,1.0,0.253400000000056
795,2,0.8,1.0,-35.0,-1,1.0,0.21939999999995052
796,2,0.2,1.0,35.0,1,1.0,0.5935999999996966
797,2,0.2,0.125,35.0,1,1.0,0.26610000000027867
798,2,0.2,1.0,35.0,1,1.0,0.4137000000005173
799,2,0.2,0.0,35.0,1,1.0,3.2963000000004286
800,2,0.2,0.0625,35.0,1,1.0,1.5773999999996704
801,2,0.2,0.0,-35.0,1,0.0,7.909799999999905
802,2,0.2,0.0,35.0,-1,0.0,6.387699999999768
803,2,0.2,1.0,35.0,1,1.0,0.26690000000007785
804,2,0.2,0.125,35.0,1,1.0,0.5277999999998428
805,2,0.2,0.0625,35.0,1,1.0,0.6005000000000109
806,2,0.2,0.0,35.0,1,1.0,0.2614000000003216
807,2,0.2,0.0625,-35.0,1,0.0,13.204102000000148
808,2,0.2,0.0625,35.0,1,1.0,5.031701000000339
809,2,0.2,0.0625,-35.0,1,0.0,15.141301000000112
810,2,0.2,0.0,35.0,1,1.0,6.76920199999995
811,2,0.2,1.0,35.0,1,1.0,0.20170100000041202
812,2,0.2,0.125,35.0,1,1.0,11.829400999999962
813,2,0.2,1.0,35.0,1,1.0,3.3656019999998534
814,2,0.2,0.0,35.0,1,1.0,20.43650099999968
815,2,0.2,0.0,35.0,1,1.0,0.6297009999998409
816,2,0.2,0.25,35.0,1,1.0,0.27050099999996746
817,2,0.2,0.25,-35.0,1,0.0,3.5965009999999893
818,2,0.2,0.125,35.0,1,1.0,2.2343009999999595
819,2,0.2,0.125,35.0,1,1.0,5.673401000000013
820,2,0.2,0.0,35.0,1,1.0,5.59130099999993
821,2,0.2,0.0625,35.0,1,1.0,0.5437010000000555
822,2,0.2,1.0,35.0,1,1.0,0.311301000000185
1,3,0.5,0.0,35.0,1,1.0,4.0493999999999994
2,3,0.5,0.125,35.0,1,1.0,0.2731010000000005
3,3,0.5,0.0625,35.0,1,1.0,0.41660000000000075
4,3,0.5,0.0625,35.0,1,1.0,3.2344000000000026
5,3,0.5,0.125,35.0,1,1.0,2.0644999999999953
6,3,0.5,0.0,35.0,1,1.0,5.5794999999999995
7,3,0.5,1.0,-35.0,-1,1.0,0.25260000000000815
8,3,0.5,1.0,-35.0,-1,1.0,0.36460000000001
9,3,0.5,0.0,35.0,1,1.0,0.6758000000000024
10,3,0.5,0.0,-35.0,1,0.0,5.801899999999996
11,3,0.5,0.125,-35.0,-1,1.0,0.2513000000000005
12,3,0.5,0.25,-35.0,-1,1.0,0.31820100000000195
13,3,0.5,0.0625,35.0,1,1.0,1.6407999999999987
14,3,0.5,0.0,35.0,1,1.0,4.928700000000006
15,3,0.5,0.0625,35.0,1,1.0,1.7592010000000045
16,3,0.5,0.0,-35.0,1,0.0,1.0948999999999955
17,3,0.5,0.125,35.0,1,1.0,0.26730100000000334
18,3,0.5,0.125,35.0,1,1.0,0.449300000000008
19,3,0.5,0.25,-35.0,-1,1.0,0.24450099999999964
20,3,0.5,0.0,35.0,1,1.0,2.8157000000000068
21,3,0.5,0.0625,35.0,1,1.0,5.8576010000000025
22,3,0.5,0.25,35.0,1,1.0,0.2738999999999976
23,3,0.5,0.0,-35.0,1,0.0,6.430099999999996
24,3,0.5,0.25,-35.0,-1,1.0,0.38569999999999993
25,3,0.5,0.0,35.0,1,1.0,0.9076999999999771
26,3,0.5,1.0,-35.0,-1,1.0,0.45369999999999777
27,3,0.5,0.125,35.0,1,1.0,0.36299999999999955
28,3,0.5,0.0,35.0,-1,0.0,0.28659999999999286
29,3,0.5,0.0,-35.0,1,0.0,6.217399999999998
30,3,0.5,0.25,-35.0,-1,1.0,0.2589009999999803
31,3,0.5,0.125,-35.0,-1,1.0,3.471299999999985
32,3,0.5,1.0,-35.0,-1,1.0,0.3775999999999726
33,3,0.5,0.25,-35.0,-1,1.0,1.3196009999999774
34,3,0.5,0.125,-35.0,-1,1.0,0.839999999999975
35,3,0.5,0.0,-35.0,1,0.0,0.7850999999999715
36,3,0.5,1.0,-35.0,-1,1.0,0.3229000000000042
37,3,0.5,0.0,35.0,-1,0.0,0.25389999999998736
38,3,0.5,0.0,-35.0,1,0.0,4.2114999999999725
39,3,0.5,0.25,-35.0,-1,1.0,0.3020999999999958
40,3,0.5,0.0,-35.0,-1,1.0,0.3500999999999692
41,3,0.5,1.0,35.0,1,1.0,0.22819999999998686
42,3,0.5,0.25,-35.0,-1,1.0,0.2376000000000147
43,3,0.5,1.0,-35.0,-1,1.0,4.677599999999956
44,3,0.5,0.0,35.0,-1,0.0,0.3545999999999765
45,3,0.5,0.25,35.0,1,1.0,1.4842000000000155
46,3,0.5,0.125,35.0,1,1.0,0.34449999999998226
47,3,0.5,1.0,35.0,1,1.0,0.2758000000000038
48,3,0.5,1.0,35.0,1,1.0,0.29980000000000473
49,3,0.5,0.125,35.0,1,1.0,0.2670999999999708
50,3,0.5,0.125,-35.0,-1,1.0,0.26940000000001874
51,3,0.5,1.0,-35.0,-1,1.0,0.26959999999996853
52,3,0.5,0.0,-35.0,-1,1.0,0.26859999999996376
53,3,0.5,1.0,35.0,1,1.0,1.1960000000000264
54,3,0.5,0.0,-35.0,-1,1.0,0.22469999999998436
55,3,0.5,0.25,35.0,1,1.0,0.40520099999997683
56,3,0.5,0.0625,-35.0,-1,1.0,0.31469999999995935
57,3,0.5,0.25,-35.0,-1,1.0,0.2196999999999889
58,3,0.5,0.125,-35.0,-1,1.0,0.3131999999999948
59,3,0.5,0.0625,-35.0,-1,1.0,1.332100999999966
60,3,0.5,0.0625,-35.0,-1,1.0,0.22550000000001091
61,3,0.5,1.0,35.0,1,1.0,0.22949999999997317
62,3,0.5,1.0,-35.0,-1,1.0,0.2308999999999628
63,3,0.5,0.125,-35.0,-1,1.0,0.21649999999999636
64,3,0.5,0.125,35.0,1,1.0,0.25200000000000955
65,3,0.5,0.0625,-35.0,-1,1.0,0.4628999999999337
66,3,0.5,0.0,35.0,-1,0.0,0.3161999999999807
67,3,0.5,0.0,-35.0,1,0.0,1.6647009999999796
68,3,0.5,0.25,-35.0,-1,1.0,0.24610000000001264
69,3,0.5,0.0,35.0,1,1.0,0.35349999999994
70,3,0.5,0.0625,35.0,1,1.0,0.2115999999999758
71,3,0.5,0.0,35.0,1,1.0,0.2207000000000221
72,3,0.5,0.0625,-35.0,-1,1.0,0.3935999999999922
73,3,0.5,0.0,35.0,-1,0.0,0.3354999999999677
74,3,0.5,1.0,35.0,1,1.0,0.2655000000000314
75,3,0.5,0.0625,35.0,1,1.0,0.277499999999975
76,3,0.5,0.25,-35.0,-1,1.0,0.3051999999999566
77,3,0.5,0.25,35.0,1,1.0,0.42799999999994043
78,3,0.5,0.125,-35.0,-1,1.0,0.2765009999999961
79,3,0.5,0.125,-35.0,-1,1.0,0.28050000000001774
80,3,0.5,0.25,-35.0,-1,1.0,0.2866999999999962
81,3,0.5,0.125,-35.0,-1,1.0,0.22149999999999181
82,3,0.5,0.0,-35.0,-1,1.0,3.863200000000006
83,3,0.5,0.25,-35.0,-1,1.0,0.2965009999999779
84,3,0.5,0.0625,-35.0,-1,1.0,0.2564000000000419
85,3,0.5,0.0625,35.0,-1,0.0,0.6561999999999557
86,3,0.5,0.125,-35.0,-1,1.0,0.33689999999995734
87,3,0.5,0.125,35.0,-1,0.0,0.42070000000001073
88,3,0.5,0.0625,-35.0,-1,1.0,0.2755000000000223
89,3,0.5,0.25,35.0,1,1.0,0.28129999999998745
90,3,0.5,0.125,35.0,1,1.0,0.29239999999998645
91,3,0.2,0.125,35.0,1,1.0,1.3336999999999648
92,3,0.2,0.125,35.0,1,1.0,0.2348999999999819
93,3,0.2,0.0625,-35.0,-1,1.0,0.8394000000000119
94,3,0.2,0.0,35.0,1,1.0,0.470299999999952
95,3,0.2,0.25,35.0,1,1.0,0.5896999999999935
96,3,0.2,1.0,35.0,1,1.0,0.21409999999997353
97,3,0.2,0.25,35.0,1,1.0,0.21349999999995362
98,3,0.2,0.0,35.0,1,1.0,0.794900000000041
99,3,0.2,0.25,-35.0,-1,1.0,0.3321000000000254
100,3,0.2,0.0625,-35.0,-1,1.0,0.3942000000000121
101,3,0.2,0.25,35.0,1,1.0,1.3129999999999882
102,3,0.2,0.25,35.0,1,1.0,0.19940000000002556
103,3,0.2,0.0,35.0,-1,0.0,1.0815000000000055
104,3,0.2,0.0625,35.0,1,1.0,0.5177999999999656
105,3,0.2,0.0625,35.0,1,1.0,0.4265999999999508
106,3,0.2,0.0,35.0,-1,0.0,0.9695000000000391
107,3,0.2,0.25,35.0,1,1.0,0.31150000000002365
108,3,0.2,1.0,35.0,1,1.0,1.7454000000000178
109,3,0.2,1.0,35.0,1,1.0,0.20050000000003365
110,3,0.2,0.125,35.0,1,1.0,0.7599999999999909
111,3,0.2,1.0,35.0,1,1.0,0.49509999999997945
112,3,0.2,1.0,35.0,1,1.0,0.24450000000001637
113,3,0.2,0.0625,35.0,1,1.0,0.31539999999995416
114,3,0.2,0.25,35.0,1,1.0,1.561399999999992
115,3,0.2,0.0625,35.0,-1,0.0,0.22470100000003868
116,3,0.2,0.0,35.0,-1,0.0,1.5797999999999206
117,3,0.2,0.125,35.0,1,1.0,0.3155999999999608
118,3,0.2,0.25,35.0,1,1.0,0.3573999999999842
119,3,0.2,1.0,35.0,1,1.0,0.22359999999997626
120,3,0.2,0.0,35.0,1,1.0,3.6813999999999965
121,3,0.2,0.0625,35.0,1,1.0,0.43439999999986867
122,3,0.2,1.0,35.0,1,1.0,0.2336999999999989
123,3,0.2,0.125,-35.0,-1,1.0,0.25939999999991414
124,3,0.2,0.25,35.0,1,1.0,0.24289999999996326
125,3,0.2,0.25,-35.0,-1,1.0,0.24940000000003693
126,3,0.2,1.0,-35.0,-1,1.0,0.40240000000005693
127,3,0.2,0.125,35.0,1,1.0,0.2413010000000213
128,3,0.2,0.0,35.0,1,1.0,3.4808000000000447
129,3,0.2,0.125,-35.0,-1,1.0,0.33130000000005566
130,3,0.2,0.25,35.0,1,1.0,0.2478999999999587
131,3,0.2,1.0,35.0,1,1.0,0.20879999999988286
132,3,0.2,0.0625,35.0,1,1.0,1.0702999999999747
133,3,0.2,0.0,35.0,1,1.0,0.47630000000003747
134,3,0.2,0.25,35.0,1,1.0,0.2270010000000866
135,3,0.2,0.25,35.0,1,1.0,0.45240000000001146
136,3,0.2,0.125,35.0,1,1.0,0.2477999999999838
137,3,0.2,1.0,35.0,1,1.0,0.24170100000003458
138,3,0.2,0.0625,35.0,1,1.0,0.35000000000002274
139,3,0.2,0.0,35.0,1,1.0,0.44230000000004566
140,3,0.2,0.125,35.0,1,1.0,0.248299999999972
141,3,0.2,0.0,35.0,1,1.0,0.512299999999982
142,3,0.2,0.25,-35.0,-1,1.0,0.2737000000000762
143,3,0.2,0.0,35.0,1,1.0,4.009799999999927
144,3,0.2,0.25,35.0,1,1.0,0.36039999999991323
145,3,0.2,0.0,35.0,1,1.0,0.658800000000042
146,3,0.2,0.125,-35.0,-1,1.0,0.5321999999999889
147,3,0.2,0.0625,35.0,1,1.0,0.2902010000000246
148,3,0.2,1.0,35.0,1,1.0,0.30930100000000493
149,3,0.2,0.125,35.0,1,1.0,0.23760100000004059
150,3,0.2,1.0,35.0,1,1.0,0.29850100000010116
151,3,0.2,0.125,35.0,1,1.0,0.4958009999999149
152,3,0.2,0.125,35.0,1,1.0,0.22590200000001914
153,3,0.2,0.25,35.0,1,1.0,1.287101000000007
154,3,0.2,0.25,35.0,1,1.0,0.27030100000001767
155,3,0.2,1.0,35.0,1,1.0,0.35160099999995964
156,3,0.2,0.125,35.0,1,1.0,0.28870100000006005
157,3,0.8,0.125,-35.0,-1,1.0,0.25250100000005204
158,3,0.8,0.125,-35.0,-1,1.0,0.3903020000000197
159,3,0.8,0.0,-35.0,1,0.0,0.31920099999990725
160,3,0.8,0.0,35.0,1,1.0,0.3699010000000271
161,3,0.8,0.0625,-35.0,1,0.0,1.1246009999999842
162,3,0.8,1.0,-35.0,-1,1.0,0.22630099999992126
163,3,0.8,0.0625,-35.0,-1,1.0,0.2652010000000473
164,3,0.8,0.0,35.0,-1,0.0,0.24080100000003313
165,3,0.8,0.125,35.0,1,1.0,0.24640099999999165
166,3,0.8,0.25,-35.0,-1,1.0,0.23600099999998747
167,3,0.8,0.25,-35.0,-1,1.0,0.25470100000006823
168,3,0.8,0.0,-35.0,-1,1.0,5.291401000000064
169,3,0.8,1.0,-35.0,-1,1.0,0.2816010000000233
170,3,0.8,0.25,35.0,1,1.0,0.26030100000002676
171,3,0.8,0.125,-35.0,-1,1.0,0.32540099999994254
172,3,0.8,0.0625,35.0,-1,0.0,1.1789009999998825
173,3,0.8,0.25,-35.0,-1,1.0,0.24860100000000784
174,3,0.8,1.0,-35.0,-1,1.0,0.23740199999997458
175,3,0.8,0.125,35.0,1,1.0,0.23120099999994181
176,3,0.8,0.0625,35.0,-1,0.0,0.4632010000000264
177,3,0.8,0.25,-35.0,-1,1.0,0.2572010000000091
178,3,0.8,1.0,35.0,1,1.0,0.24520099999995182
179,3,0.8,0.125,-35.0,-1,1.0,0.25420099999996637
180,3,0.8,1.0,-35.0,-1,1.0,0.22820099999989907
181,3,0.8,0.125,-35.0,-1,1.0,0.291800999999964
182,3,0.8,0.0625,-35.0,-1,1.0,0.23330099999986942
183,3,0.8,0.0625,-35.0,-1,1.0,2.318300999999906
184,3,0.8,0.0,-35.0,-1,1.0,3.6437009999999646
185,3,0.8,0.0,35.0,-1,0.0,0.6117010000000391
186,3,0.8,1.0,-35.0,-1,1.0,0.21060099999988324
187,3,0.8,1.0,-35.0,-1,1.0,0.2475009999999429
188,3,0.8,0.25,-35.0,-1,1.0,0.24870099999998274
189,3,0.8,0.25,-35.0,-1,1.0,0.2471010000000433
190,3,0.8,1.0,-35.0,-1,1.0,0.19380100000000766
191,3,0.8,1.0,-35.0,-1,1.0,0.22310099999992872
192,3,0.8,0.25,-35.0,-1,1.0,1.9781010000000379
193,3,0.8,0.0625,-35.0,-1,1.0,0.23170199999992747
194,3,0.8,0.0,-35.0,-1,1.0,4.931801999999948
195,3,0.8,0.0,-35.0,-1,1.0,0.25210100000003877
196,3,0.8,0.0625,-35.0,1,0.0,0.5332010000000764
197,3,0.8,0.0625,-35.0,-1,1.0,0.2711010000000442
198,3,0.8,0.125,-35.0,-1,1.0,0.29030199999988326
199,3,0.8,0.0625,35.0,1,1.0,0.3325009999999793
200,3,0.8,0.0625,-35.0,-1,1.0,0.29510099999993145
201,3,0.8,0.0625,-35.0,-1,1.0,0.6532009999998536
202,3,0.8,1.0,-35.0,-1,1.0,0.1970010000000002
203,3,0.8,0.0,-35.0,-1,1.0,0.8191009999999324
204,3,0.8,0.0625,-35.0,-1,1.0,0.2694009999999025
205,3,0.8,0.0,-35.0,-1,1.0,0.4509010000000444
206,3,0.8,1.0,-35.0,-1,1.0,0.2922009999998636
207,3,0.8,0.0625,-35.0,-1,1.0,0.24890099999993254
208,3,0.8,1.0,-35.0,-1,1.0,0.2454010000000153
209,3,0.8,0.25,-35.0,-1,1.0,0.24110099999995782
210,3,0.8,0.0625,35.0,-1,0.0,0.2551009999999678
211,3,0.8,0.125,35.0,1,1.0,0.5566010000001143
212,3,0.8,0.0625,35.0,-1,0.0,0.24690199999986362
213,3,0.8,1.0,-35.0,-1,1.0,0.2476010000000315
214,3,0.8,0.0,-35.0,-1,1.0,0.22160199999996166
215,3,0.8,0.0,-35.0,-1,1.0,0.32890099999997346
216,3,0.8,0.125,-35.0,-1,1.0,1.326200999999969
217,3,0.8,0.25,-35.0,-1,1.0,0.3528009999999995
218,3,0.8,0.25,-35.0,-1,1.0,0.2171009999999569
219,3,0.8,0.0,-35.0,1,0.0,0.8061019999998962
220,3,0.8,0.125,-35.0,-1,1.0,0.24060099999996964
221,3,0.8,0.25,-35.0,-1,1.0,0.2432019999999966
222,3,0.8,0.0,-35.0,-1,1.0,0.27470100000005004
223,3,0.8,0.0625,35.0,-1,0.0,0.3216009999999869
224,3,0.2,0.0,35.0,-1,0.0,0.25270199999988563
225,3,0.2,1.0,35.0,1,1.0,0.2875010000000202
226,3,0.2,0.0625,-35.0,1,0.0,4.523200999999972
227,3,0.2,0.0625,-35.0,-1,1.0,0.759001000000012
228,3,0.2,0.25,35.0,1,1.0,0.44600100000002385
229,3,0.2,1.0,35.0,1,1.0,0.3989009999999098
230,3,0.2,0.0625,-35.0,-1,1.0,0.887202000000002
231,3,0.2,0.0625,35.0,-1,0.0,4.472900999999979
232,3,0.2,0.125,35.0,1,1.0,0.32510100000001785
233,3,0.2,0.0,35.0,1,1.0,0.40630099999987124
234,3,0.2,0.25,35.0,1,1.0,0.27440100000001166
235,3,0.2,0.25,35.0,1,1.0,0.24010099999998147
236,3,0.2,0.0,35.0,1,1.0,0.3758010000001377
237,3,0.2,0.125,35.0,1,1.0,0.6290010000000166
238,3,0.2,0.125,35.0,1,1.0,0.41220099999998183
239,3,0.2,0.125,-35.0,-1,1.0,0.3301010000000133
240,3,0.2,0.0625,35.0,-1,0.0,0.29510099999993145
241,3,0.2,0.125,35.0,1,1.0,0.3125009999999975
242,3,0.2,0.0625,-35.0,-1,1.0,0.2640010000000075
243,3,0.2,0.0,-35.0,-1,1.0,6.17000100000007
244,3,0.2,0.0,35.0,-1,0.0,0.5091010000001006
245,3,0.2,0.125,35.0,1,1.0,0.29690100000004804
246,3,0.2,0.0625,-35.0,-1,1.0,0.7225010000000793
247,3,0.2,0.0625,35.0,1,1.0,2.4100009999999656
248,3,0.2,0.0,-35.0,-1,1.0,0.5830009999999675
249,3,0.2,0.125,35.0,-1,0.0,0.19040100000006532
250,3,0.2,0.25,-35.0,-1,1.0,0.24620099999992817
251,3,0.2,0.0625,35.0,1,1.0,0.24050099999999475
252,3,0.2,0.125,35.0,1,1.0,0.26620099999991
253,3,0.2,0.25,35.0,1,1.0,0.29700100000013663
254,3,0.2,0.25,35.0,-1,0.0,0.13630100000000311
255,3,0.2,0.0,-35.0,-1,1.0,0.25050099999998565
256,3,0.2,0.125,-35.0,-1,1.0,0.21990100000016355
257,3,0.2,0.0,35.0,1,1.0,1.8444010000000617
258,3,0.2,0.125,-35.0,-1,1.0,0.27000199999997676
259,3,0.2,1.0,35.0,1,1.0,0.2850020000000768
260,3,0.2,1.0,35.0,1,1.0,0.2236009999999169
261,3,0.2,0.0,-35.0,1,0.0,0.5879010000001017
262,3,0.2,0.125,35.0,-1,0.0,0.2239009999998416
263,3,0.2,0.0,35.0,-1,0.0,0.23450099999990925
264,3,0.2,0.0625,35.0,-1,0.0,0.2640010000000075
265,3,0.2,0.25,35.0,1,1.0,0.31490099999996346
266,3,0.2,0.0,-35.0,1,0.0,0.6939010000000962
267,3,0.2,0.125,35.0,1,1.0,0.2716019999998025
268,3,0.2,0.125,35.0,1,1.0,0.3374010000002272
269,3,0.2,0.0,35.0,-1,0.0,0.2518010000001141
270,3,0.2,0.125,35.0,1,1.0,0.3141009999999369
271,3,0.2,0.0,35.0,1,1.0,4.6020010000002
272,3,0.2,0.0625,35.0,1,1.0,0.4811010000000806
273,3,0.2,0.125,-35.0,-1,1.0,0.2518009999998867
274,3,0.2,0.125,35.0,1,1.0,0.47790100000020175
275,3,0.2,0.25,35.0,1,1.0,0.23200199999996585
276,3,0.2,1.0,35.0,1,1.0,0.4181020000000899
277,3,0.2,0.25,35.0,1,1.0,0.22590100000002167
278,3,0.2,0.0625,35.0,1,1.0,0.27490099999999984
279,3,0.2,0.125,35.0,1,1.0,8.799001999999973
280,3,0.2,0.0,-35.0,-1,1.0,0.2551009999999678
281,3,0.2,0.0625,35.0,1,1.0,0.41920099999993
282,3,0.2,0.0,35.0,1,1.0,0.3019010000000435
283,3,0.2,0.0625,-35.0,-1,1.0,0.3299010000000635
284,3,0.2,0.25,35.0,1,1.0,1.6722019999999702
285,3,0.2,1.0,35.0,1,1.0,0.2996009999999387
286,3,0.2,0.0625,35.0,1,1.0,0.295900999999958
287,3,0.2,0.25,35.0,1,1.0,0.2798010000001341
288,3,0.2,0.125,35.0,1,1.0,0.27240099999994527
289,3,0.2,0.125,35.0,1,1.0,0.42370099999993727
290,3,0.2,0.0625,-35.0,-1,1.0,0.7059009999998125
291,3,0.2,0.0625,35.0,1,1.0,0.34690100000011626
292,3,0.2,0.25,-35.0,-1,1.0,0.31930099999999584
293,3,0.2,0.0,35.0,1,1.0,2.687101999999868
294,3,0.2,0.125,35.0,1,1.0,0.3728009999999813
295,3,0.2,0.25,35.0,1,1.0,0.22790099999997437
296,3,0.2,0.125,-35.0,-1,1.0,0.6799009999999726
297,3,0.2,0.0,35.0,-1,0.0,0.2306010000002061
298,3,0.2,0.0,-35.0,1,0.0,0.29300100000000384
299,3,0.8,0.125,-35.0,-1,1.0,0.47090099999991253
300,3,0.8,0.25,-35.0,-1,1.0,0.2634009999999307
301,3,0.8,0.0,-35.0,1,0.0,0.22750100000007478
302,3,0.8,1.0,35.0,1,1.0,0.3000010000000657
303,3,0.8,0.0625,35.0,1,1.0,0.8508010000000468
304,3,0.8,1.0,-35.0,-1,1.0,0.28690099999994345
305,3,0.8,0.25,35.0,1,1.0,0.4644010000001799
306,3,0.8,0.0,-35.0,1,0.0,0.4938010000000759
307,3,0.8,0.25,-35.0,-1,1.0,0.2712010000002465
308,3,0.8,0.25,35.0,1,1.0,0.8771010000000388
309,3,0.8,1.0,-35.0,-1,1.0,0.23790200000007644
310,3,0.8,0.0625,-35.0,-1,1.0,0.47400100000004386
311,3,0.8,1.0,-35.0,-1,1.0,0.20810100000016973
312,3,0.8,1.0,35.0,1,1.0,0.27080099999989216
313,3,0.8,1.0,-35.0,-1,1.0,0.2149010000000544
314,3,0.8,0.125,-35.0,-1,1.0,0.2309010000001308
315,3,0.8,0.25,-35.0,-1,1.0,0.22160200000007535
316,3,0.8,0.125,-35.0,-1,1.0,0.23440099999993436
317,3,0.8,1.0,-35.0,-1,1.0,0.21850099999983286
318,3,0.8,0.0,-35.0,-1,1.0,0.2879009999999198
319,3,0.8,0.125,35.0,1,1.0,0.2857010000000173
320,3,0.8,0.25,-35.0,-1,1.0,0.2212010000000646
321,3,0.8,1.0,-35.0,-1,1.0,0.19880099999977574
322,3,0.8,0.125,-35.0,-1,1.0,0.298001000000113
323,3,0.8,0.0625,-35.0,-1,1.0,0.32890100000008715
324,3,0.8,0.25,-35.0,-1,1.0,0.26820100000009006
325,3,0.8,0.125,-35.0,-1,1.0,0.23580100000003767
326,3,0.8,1.0,-35.0,-1,1.0,0.2651020000000699
327,3,0.8,0.0,-35.0,-1,1.0,0.27680099999997765
328,3,0.8,1.0,-35.0,-1,1.0,0.27840100000003076
329,3,0.8,1.0,-35.0,-1,1.0,0.20980099999997037
330,3,0.8,0.0625,-35.0,-1,1.0,0.36520100000007005
331,3,0.8,0.125,-35.0,-1,1.0,0.2562009999999191
332,3,0.8,0.0625,-35.0,-1,1.0,0.6420009999999365
333,3,0.8,0.0,-35.0,1,0.0,10.893101000000115
334,3,0.8,0.0,-35.0,-1,1.0,0.4790009999999256
335,3,0.8,0.0,-35.0,-1,1.0,0.32680100000015955
336,3,0.8,1.0,-35.0,-1,1.0,0.2558010000000195
337,3,0.8,1.0,-35.0,-1,1.0,0.22070099999996273
338,3,0.8,0.0625,-35.0,-1,1.0,0.23620100000016464
339,3,0.8,0.25,-35.0,-1,1.0,0.27030100000001767
340,3,0.8,0.125,35.0,1,1.0,2.432801000000154
341,3,0.8,1.0,-35.0,-1,1.0,0.2470010000001821
342,3,0.8,0.0625,-35.0,-1,1.0,0.33630200000015975
343,3,0.8,0.125,-35.0,-1,1.0,0.18390100000010534
344,3,0.8,0.0625,35.0,-1,0.0,0.2331010000000333
345,3,0.8,1.0,35.0,1,1.0,0.25070099999993545
346,3,0.8,0.25,35.0,1,1.0,0.289801000000125
347,3,0.8,1.0,-35.0,-1,1.0,0.2743009999999231
348,3,0.8,0.0,-35.0,-1,1.0,0.3101019999999153
349,3,0.8,0.0,-35.0,1,0.0,1.9742009999999937
350,3,0.8,1.0,-35.0,-1,1.0,0.2501009999998587
351,3,0.8,0.125,-35.0,-1,1.0,0.24450200000001132
352,3,0.8,0.25,-35.0,-1,1.0,0.26030100000002676
353,3,0.8,0.0625,-35.0,-1,1.0,0.20480099999986123
354,3,0.8,0.0,35.0,-1,0.0,0.25060099999996055
355,3,0.8,0.0625,35.0,1,1.0,1.0617010000000846
356,3,0.8,0.0,-35.0,1,0.0,0.47070099999996273
357,3,0.8,0.25,-35.0,-1,1.0,0.20820099999991726
358,3,0.8,0.0625,-35.0,-1,1.0,4.4877010000000155
359,3,0.8,0.25,-35.0,-1,1.0,0.3086009999999533
360,3,0.8,1.0,35.0,1,1.0,0.28110100000003513
361,3,0.8,0.25,35.0,1,1.0,1.5421010000000024
362,3,0.2,0.25,35.0,1,1.0,0.4311009999998987
363,3,0.2,1.0,35.0,1,1.0,0.2557009999998172
364,3,0.2,0.0625,35.0,1,1.0,1.9447009999998954
365,3,0.2,0.25,35.0,1,1.0,0.4821009999998296
366,3,0.2,0.0,35.0,1,1.0,1.241700999999921
367,3,0.2,0.125,35.0,1,1.0,0.4524020000001201
368,3,0.2,0.0,-35.0,-1,1.0,0.23820100000011735
369,3,0.2,0.0625,35.0,1,1.0,0.7625009999999293
370,3,0.2,0.125,35.0,1,1.0,0.291901999999709
371,3,0.2,0.0625,35.0,-1,0.0,3.208600999999817
372,3,0.2,0.0625,-35.0,-1,1.0,0.255301000000145
373,3,0.2,0.125,35.0,1,1.0,0.3364010000000235
374,3,0.2,0.25,35.0,1,1.0,1.082200999999941
375,3,0.2,1.0,-35.0,-1,1.0,0.2830019999998967
376,3,0.2,0.125,35.0,-1,0.0,0.27900199999976394
377,3,0.2,0.125,35.0,1,1.0,0.3036010000000715
378,3,0.2,0.125,35.0,1,1.0,1.2460009999999784
379,3,0.2,0.0625,-35.0,-1,1.0,4.400602000000163
380,3,0.2,0.0,35.0,-1,0.0,1.6895010000000639
381,3,0.2,0.25,35.0,1,1.0,0.2436009999998987
382,3,0.2,0.0,35.0,1,1.0,0.6196009999998751
383,3,0.2,1.0,35.0,1,1.0,0.19720200000006116
384,3,0.2,0.25,35.0,1,1.0,0.5963019999999233
385,3,0.2,0.0,-35.0,1,0.0,0.47070099999973536
386,3,0.2,1.0,35.0,1,1.0,0.21980100000018865
387,3,0.2,0.25,35.0,1,1.0,0.20780100000001767
388,3,0.2,0.25,35.0,1,1.0,1.9336009999999533
389,3,0.2,1.0,35.0,1,1.0,0.41770100000007915
390,3,0.2,0.25,35.0,1,1.0,0.5167010000000118
391,3,0.2,1.0,35.0,1,1.0,0.298001000000113
392,3,0.2,0.0625,35.0,1,1.0,0.6970010000000002
393,3,0.2,0.25,35.0,1,1.0,0.7116009999999733
394,3,0.2,0.0625,35.0,1,1.0,0.5170009999999365
395,3,0.2,0.25,35.0,1,1.0,0.3016010000001188
396,3,0.2,0.0625,35.0,1,1.0,0.23050100000000384
397,3,0.2,1.0,35.0,1,1.0,0.20800199999985125
398,3,0.2,0.0,35.0,1,1.0,2.8441009999999096
399,3,0.2,0.0625,35.0,1,1.0,0.5416009999996731
400,3,0.2,0.125,35.0,1,1.0,0.4046019999998407
401,3,0.2,0.125,35.0,1,1.0,0.37190099999997983
402,3,0.2,0.0625,35.0,1,1.0,0.6312010000001465
403,3,0.2,1.0,-35.0,-1,1.0,0.26210100000002967
404,3,0.2,0.0625,35.0,1,1.0,3.91810200000009
405,3,0.2,0.125,35.0,1,1.0,0.38950099999988197
406,3,0.2,0.25,-35.0,-1,1.0,0.22480100000007042
407,3,0.2,0.0,35.0,1,1.0,0.5191010000000915
408,3,0.2,0.25,-35.0,-1,1.0,0.3017009999998663
409,3,0.2,0.25,35.0,1,1.0,0.33650200000010955
410,3,0.2,1.0,-35.0,-1,1.0,1.0551010000001497
411,3,0.2,0.125,35.0,1,1.0,0.449301000000105
412,3,0.2,0.25,35.0,1,1.0,0.5953019999997196
413,3,0.2,0.25,-35.0,-1,1.0,0.22980199999983597
414,3,0.2,0.25,35.0,1,1.0,0.4221010000001115
415,3,0.2,0.0,35.0,1,1.0,0.7063009999999394
416,3,0.2,1.0,35.0,1,1.0,0.28880099999992126
417,3,0.2,0.0625,35.0,1,1.0,0.623501000000033
418,3,0.2,0.0625,35.0,1,1.0,0.45250099999998383
419,3,0.2,0.0,35.0,1,1.0,0.516501000000062
420,3,0.2,0.0,35.0,-1,0.0,1.429501000000073
421,3,0.2,0.0625,-35.0,-1,1.0,1.1702020000000175
422,3,0.2,0.0,35.0,-1,0.0,0.2495010000000093
423,3,0.2,0.0,35.0,-1,0.0,0.26690099999996164
424,3,0.2,1.0,35.0,1,1.0,0.27290100000004713
425,3,0.2,0.25,35.0,1,1.0,0.2939010000000053
426,3,0.2,0.0625,35.0,1,1.0,1.0096010000002025
427,3,0.2,0.125,35.0,1,1.0,3.197401000000127
428,3,0.2,0.0625,35.0,1,1.0,0.5965009999999893
429,3,0.2,0.0,35.0,1,1.0,0.4973009999998794
430,3,0.2,0.125,35.0,1,1.0,0.27660100000002785
431,3,0.2,0.0625,-35.0,1,0.0,0.8607010000000628
432,3,0.8,0.0,-35.0,-1,1.0,0.3368009999999231
433,3,0.8,1.0,-35.0,-1,1.0,0.26420100000018465
434,3,0.8,0.0625,-35.0,-1,1.0,1.3870019999999386
435,3,0.8,0.0,-35.0,1,0.0,2.2245009999999183
436,3,0.8,0.125,-35.0,-1,1.0,0.2870010000001457
437,3,0.8,0.125,-35.0,-1,1.0,0.20790200000010373
438,3,0.8,1.0,-35.0,-1,1.0,0.20390100000008715
439,3,0.8,0.0625,-35.0,-1,1.0,0.27800200000001496
440,3,0.8,0.0,-35.0,-1,1.0,0.31450100000006387
441,3,0.8,0.25,-35.0,-1,1.0,0.22480100000007042
442,3,0.8,0.25,35.0,1,1.0,0.2743009999999231
443,3,0.8,0.25,-35.0,-1,1.0,0.2316009999999551
444,3,0.8,0.0625,-35.0,-1,1.0,1.667601999999988
445,3,0.8,0.0625,-35.0,-1,1.0,0.17180099999995946
446,3,0.8,0.125,-35.0,-1,1.0,0.2677009999999882
447,3,0.8,0.25,-35.0,-1,1.0,0.2619010000000799
448,3,0.8,0.25,-35.0,-1,1.0,0.20130100000005768
449,3,0.8,0.25,35.0,-1,0.0,0.3054010000003018
450,3,0.8,0.0,-35.0,-1,1.0,3.891401000000087
451,3,0.8,0.125,-35.0,-1,1.0,0.23240099999998165
452,3,0.8,0.25,35.0,-1,0.0,2.8383010000000013
453,3,0.8,1.0,-35.0,-1,1.0,0.22640099999989616
454,3,0.8,0.25,-35.0,-1,1.0,0.2419009999998707
455,3,0.8,0.0625,-35.0,-1,1.0,0.2960009999999329
456,3,0.8,0.0,-35.0,1,0.0,2.5285010000000057
457,3,0.8,1.0,35.0,1,1.0,0.346400999999787
458,3,0.8,0.25,-35.0,-1,1.0,0.302400999999918
459,3,0.8,1.0,-35.0,-1,1.0,0.26640100000008715
460,3,0.8,0.125,35.0,1,1.0,0.30890099999987797
461,3,0.8,0.25,-35.0,-1,1.0,0.24640099999987797
462,3,0.8,0.25,-35.0,-1,1.0,0.2490010000001348
463,3,0.8,0.0,-35.0,-1,1.0,1.3066010000000006
464,3,0.8,0.0,35.0,-1,0.0,0.29930099999978665
465,3,0.8,0.0,-35.0,-1,1.0,3.3600020000001223
466,3,0.8,0.25,-35.0,-1,1.0,0.22280199999977413
467,3,0.8,0.0625,-35.0,1,0.0,2.876701000000139
468,3,0.8,0.0625,-35.0,-1,1.0,0.34950099999991835
469,3,0.8,0.0,-35.0,-1,1.0,0.2736009999998714
470,3,0.8,1.0,-35.0,-1,1.0,0.25970099999995
471,3,0.8,0.0,35.0,1,1.0,6.597400999999763
472,3,0.8,1.0,35.0,1,1.0,0.3866009999999278
473,3,0.8,0.0,35.0,1,1.0,0.7210010000001148
474,3,0.8,0.125,-35.0,-1,1.0,1.4703010000000631
475,3,0.8,0.25,35.0,1,1.0,0.42110200000001896
476,3,0.8,0.0625,-35.0,-1,1.0,0.2534009999999398
477,3,0.8,0.125,-35.0,-1,1.0,0.40840099999991253
478,3,0.8,0.0,35.0,-1,0.0,0.3337010000000191
479,3,0.8,0.0,-35.0,1,0.0,0.3783020000000761
480,3,0.8,0.0,-35.0,-1,1.0,0.24050099999976737
481,3,0.8,0.0625,-35.0,-1,1.0,0.7984009999997852
482,3,0.8,1.0,-35.0,-1,1.0,0.23070099999995364
483,3,0.8,0.25,-35.0,-1,1.0,0.23470099999985905
484,3,0.8,0.125,-35.0,1,0.0,4.517601999999897
485,3,0.8,0.0625,-35.0,-1,1.0,0.2918019999999615
486,3,0.8,0.25,-35.0,-1,1.0,0.32110099999999875
487,3,0.8,0.25,-35.0,-1,1.0,0.2619010000000799
488,3,0.8,0.0,-35.0,1,0.0,0.7013019999999415
489,3,0.8,0.0625,-35.0,-1,1.0,0.3057009999999991
490,3,0.8,0.0,-35.0,-1,1.0,0.25460100000009334
491,3,0.8,0.0,-35.0,-1,1.0,0.22880099999974846
492,3,0.8,0.0625,35.0,-1,0.0,2.73140100000046
493,3,0.8,0.125,-35.0,-1,1.0,0.24930100000028688
494,3,0.8,0.25,-35.0,-1,1.0,0.22520100000019738
495,3,0.8,0.0,-35.0,-1,1.0,0.2893010000002505
496,3,0.8,0.0,-35.0,-1,1.0,2.89840200000026
497,3,0.8,0.0,-35.0,-1,1.0,0.2893010000002505
498,3,0.8,1.0,-35.0,-1,1.0,0.22870100000000093
499,3,0.8,0.0,-35.0,-1,1.0,0.2529010000002927
500,3,0.8,0.25,-35.0,-1,1.0,0.3823010000000977
501,3,0.8,0.0625,-35.0,1,0.0,0.37960100000009334
502,3,0.8,0.125,-35.0,-1,1.0,0.26220100000000457
503,3,0.8,0.25,-35.0,-1,1.0,0.2233009999999922
504,3,0.8,0.125,-35.0,-1,1.0,0.24930100000028688
505,3,0.8,0.0625,-35.0,-1,1.0,0.28670099999999366
506,3,0.8,0.125,-35.0,-1,1.0,0.30590200000006007
507,3,0.8,0.25,-35.0,-1,1.0,0.19020200000068144
508,3,0.8,1.0,-35.0,-1,1.0,2.4427010000003975
509,3,0.8,0.0,35.0,-1,0.0,0.2573010000000977
510,3,0.8,0.25,-35.0,-1,1.0,0.2494010000000344
511,3,0.8,0.0625,-35.0,-1,1.0,0.26020100000005186
512,3,0.8,0.0,-35.0,-1,1.0,0.243300999999974
513,3,0.8,0.125,-35.0,-1,1.0,0.21400100000028033
514,3,0.8,1.0,-35.0,-1,1.0,0.23310200000059922
515,3,0.8,0.25,-35.0,-1,1.0,0.2373010000001159
516,3,0.8,0.25,35.0,1,1.0,0.3700010000002294
517,3,0.8,0.125,-35.0,-1,1.0,5.7574010000003
518,3,0.8,1.0,-35.0,-1,1.0,0.2402010000005248
519,3,0.8,0.0,-35.0,-1,1.0,0.26120100000071034
520,3,0.8,0.0,-35.0,-1,1.0,0.3437010000002374
521,3,0.2,0.0,-35.0,-1,1.0,0.29800100000056773
522,3,0.2,0.125,35.0,1,1.0,0.3237010000002556
523,3,0.2,0.25,35.0,1,1.0,0.5717009999998481
524,3,0.2,0.125,35.0,1,1.0,0.5205009999999675
525,3,0.2,0.0,35.0,1,1.0,1.801401000000169
526,3,0.2,0.0,-35.0,-1,1.0,2.5308020000002216
527,3,0.2,0.0,35.0,1,1.0,0.5582010000002811
528,3,0.2,1.0,35.0,1,1.0,0.22120099999983722
529,3,0.2,1.0,35.0,1,1.0,0.2519009999996342
530,3,0.2,0.25,35.0,1,1.0,0.41780100000005405
531,3,0.2,0.25,35.0,1,1.0,0.30920100000003004
532,3,0.2,1.0,35.0,1,1.0,0.3013010000004215
533,3,0.2,1.0,35.0,1,1.0,0.28560200000038094
534,3,0.2,0.0625,35.0,1,1.0,3.171501000000717
535,3,0.2,0.125,35.0,1,1.0,0.43260100000043167
536,3,0.2,0.25,35.0,1,1.0,0.2249019999999291
537,3,0.2,0.25,35.0,1,1.0,0.24570200000016484
538,3,0.2,0.25,-35.0,-1,1.0,0.22850100000005114
539,3,0.2,0.0,35.0,-1,0.0,1.163202000000183
540,3,0.2,0.0625,-35.0,-1,1.0,0.351900999999998
541,3,0.2,0.0,35.0,-1,0.0,3.8060010000003786
542,3,0.2,0.0625,35.0,1,1.0,0.5754020000003948
543,3,0.2,0.25,35.0,1,1.0,0.5929009999999835
544,3,0.2,0.0625,35.0,1,1.0,0.2623009999997521
545,3,0.2,0.0625,-35.0,1,0.0,0.41660100000035527
546,3,0.2,0.0,35.0,1,1.0,1.1192009999999755
547,3,0.2,0.0,35.0,-1,0.0,0.3833009999998467
548,3,0.2,0.25,35.0,1,1.0,0.38930100000015955
549,3,0.2,0.0,35.0,1,1.0,2.930301000000327
550,3,0.2,0.0625,-35.0,-1,1.0,0.43280100000038146
551,3,0.2,0.25,35.0,1,1.0,0.4938010000000759
552,3,0.2,1.0,-35.0,-1,1.0,0.6132010000005721
553,3,0.2,0.0625,35.0,1,1.0,0.32380100000045786
554,3,0.2,0.0,35.0,-1,0.0,0.30640100000027815
555,3,0.2,0.125,35.0,1,1.0,0.710601000000679
556,3,0.2,0.0,-35.0,-1,1.0,0.32660100000020975
557,3,0.2,0.25,35.0,1,1.0,2.374401999999918
558,3,0.2,0.125,35.0,1,1.0,0.2767009999997754
559,3,0.2,0.0,35.0,-1,0.0,0.4677010000004884
560,3,0.2,1.0,35.0,1,1.0,0.32360100000050807
561,3,0.2,0.0625,35.0,1,1.0,0.5704009999999471
562,3,0.2,0.0,35.0,-1,0.0,10.067801000000145
563,3,0.2,0.0625,35.0,1,1.0,0.5976010000003953
564,3,0.2,0.0,35.0,-1,0.0,0.3521009999999478
565,3,0.2,0.0625,-35.0,-1,1.0,0.2810010000002876
566,3,0.2,0.0625,35.0,1,1.0,0.8719019999998636
567,3,0.2,0.0625,35.0,1,1.0,0.5445020000001932
568,3,0.2,0.25,-35.0,-1,1.0,0.22910099999990052
569,3,0.2,0.0,35.0,-1,0.0,0.788002000000688
570,3,0.2,0.0625,35.0,1,1.0,1.0655010000000402
571,3,0.2,0.0625,35.0,1,1.0,0.5749009999999544
572,3,0.2,1.0,35.0,1,1.0,0.312300999999934
573,3,0.2,0.25,35.0,1,1.0,0.22830100000010134
574,3,0.2,0.0,35.0,1,1.0,1.7494010000000344
575,3,0.2,0.25,-35.0,1,0.0,2.6320009999999456
576,3,0.2,0.25,35.0,1,1.0,0.41010099999994054
577,3,0.2,0.0,35.0,-1,0.0,2.285501000000295
578,3,0.2,0.0625,35.0,1,1.0,0.32010100000024977
579,3,0.2,0.0,35.0,-1,0.0,0.22890099999995073
580,3,0.2,0.0625,35.0,1,1.0,0.3236010000000533
581,3,0.2,0.125,35.0,1,1.0,0.44240099999979066
582,3,0.2,0.0,35.0,1,1.0,1.3264009999998052
583,3,0.2,0.0625,35.0,1,1.0,2.7625020000000404
584,3,0.2,1.0,35.0,1,1.0,0.27000200000020413
585,3,0.2,0.0625,35.0,1,1.0,0.2994010000002163
586,3,0.8,0.25,35.0,1,1.0,0.30010100000026796
587,3,0.8,1.0,35.0,1,1.0,0.24280099999987215
588,3,0.8,1.0,-35.0,-1,1.0,0.2671010000003662
589,3,0.8,0.0,-35.0,1,0.0,0.6397010000000591
590,3,0.8,0.0,35.0,1,1.0,0.533802000000378
591,3,0.8,0.0,-35.0,1,0.0,4.593101000000388
592,3,0.8,1.0,-35.0,-1,1.0,0.25090099999988524
593,3,0.8,0.125,35.0,1,1.0,0.5233020000005126
594,3,0.8,0.0,-35.0,1,0.0,0.5875019999998585
595,3,0.8,0.25,-35.0,-1,1.0,0.23360100000036255
596,3,0.8,1.0,-35.0,-1,1.0,0.2280020000002878
597,3,0.8,1.0,35.0,1,1.0,0.533701000000292
598,3,0.8,1.0,-35.0,-1,1.0,0.3411010000004353
599,3,0.8,1.0,-35.0,-1,1.0,0.27040100000021994
600,3,0.8,0.0,-35.0,-1,1.0,8.264702000000398
601,3,0.8,0.0625,-35.0,-1,1.0,0.4274020000002565
602,3,0.8,1.0,-35.0,-1,1.0,0.22820099999989907
603,3,0.8,0.125,-35.0,-1,1.0,2.494101000000228
604,3,0.8,0.0,-35.0,-1,1.0,0.6352020000003904
605,3,0.8,1.0,-35.0,-1,1.0,0.2310019999999895
606,3,0.8,0.0625,35.0,1,1.0,0.3120009999997819
607,3,0.8,1.0,-35.0,-1,1.0,0.20790100000021994
608,3,0.8,0.0,35.0,-1,0.0,3.255901000000449
609,3,0.8,1.0,-35.0,-1,1.0,0.2180010000006405
610,3,0.8,1.0,-35.0,-1,1.0,0.22560100000009697
611,3,0.8,0.0625,-35.0,-1,1.0,0.28820200000018303
612,3,0.8,0.0625,35.0,-1,0.0,0.18290200000046752
613,3,0.8,0.0,-35.0,-1,1.0,0.34840100000019447
614,3,0.8,0.125,-35.0,-1,1.0,0.23930200000040713
615,3,0.8,0.0625,-35.0,-1,1.0,0.268601000000217
616,3,0.8,0.25,-35.0,-1,1.0,0.2599009999998998
617,3,0.8,0.125,-35.0,-1,1.0,0.22870200000033947
618,3,0.8,0.125,-35.0,-1,1.0,0.2064010000003691
619,3,0.8,0.0625,-35.0,-1,1.0,0.6923010000000431
620,3,0.8,0.0625,-35.0,-1,1.0,0.25640100000009625
621,3,0.8,0.125,35.0,-1,0.0,0.14900100000022576
622,3,0.8,0.0625,35.0,1,1.0,0.3532010000003538
623,3,0.8,0.0625,-35.0,-1,1.0,0.2360010000006696
624,3,0.8,0.25,-35.0,-1,1.0,0.2033010000000104
625,3,0.8,0.0,-35.0,1,0.0,0.902501000000484
626,3,0.8,1.0,-35.0,-1,1.0,0.30360100000052626
627,3,0.8,1.0,-35.0,-1,1.0,0.24950200000012046
628,3,0.8,0.125,35.0,1,1.0,0.35050200000023324
629,3,0.8,0.125,35.0,1,1.0,0.4562020000003031
630,3,0.8,0.25,-35.0,-1,1.0,0.2639009999998052
631,3,0.8,0.0625,35.0,1,1.0,0.34320100000013554
632,3,0.8,0.0,-35.0,1,0.0,0.657901000000038
633,3,0.8,0.125,-35.0,-1,1.0,0.29670100000021193
634,3,0.8,0.0,35.0,1,1.0,0.35090100000024904
635,3,0.8,0.0,-35.0,1,0.0,0.386801000000105
636,3,0.8,0.125,-35.0,-1,1.0,5.567901000000347
637,3,0.8,0.0625,-35.0,1,0.0,0.5670009999998911
638,3,0.8,1.0,-35.0,-1,1.0,0.22800099999994927
639,3,0.8,1.0,-35.0,-1,1.0,0.19710100000020248
640,3,0.8,0.0625,-35.0,-1,1.0,0.26490100000000893
641,3,0.8,1.0,-35.0,-1,1.0,0.5608010000000831
642,3,0.8,0.125,-35.0,1,0.0,0.3083010000004833
643,3,0.8,0.0,-35.0,-1,1.0,0.3341009999999187
644,3,0.8,0.25,35.0,1,1.0,0.2682009999998627
645,3,0.8,0.0,-35.0,-1,1.0,5.4208010000002105
646,3,0.8,0.125,-35.0,-1,1.0,0.2387010000002192
647,3,0.8,0.0625,-35.0,-1,1.0,0.29790100000036546
648,3,0.8,0.0625,-35.0,-1,1.0,0.29220100000020466
649,3,0.8,0.0625,-35.0,-1,1.0,1.4480020000000877
650,3,0.8,0.25,-35.0,-1,1.0,0.24610100000018065
651,3,0.8,0.0,35.0,1,1.0,0.5550010000001748
652,3,0.8,0.25,35.0,1,1.0,0.23600100000021484
653,3,0.8,0.0625,-35.0,-1,1.0,0.33190100000047096
654,3,0.8,0.25,-35.0,-1,1.0,0.3260009999999056
655,3,0.8,0.0625,-35.0,1,0.0,0.6453020000003562
656,3,0.8,0.0625,-35.0,-1,1.0,0.7588009999999485
657,3,0.8,0.25,-35.0,-1,1.0,0.27630100000033053
658,3,0.8,0.0625,-35.0,-1,1.0,2.63890100000026
659,3,0.8,0.0,-35.0,-1,1.0,0.8330009999999675
660,3,0.8,1.0,-35.0,-1,1.0,0.2459010000006856
661,3,0.8,0.0,-35.0,-1,1.0,2.8568020000002434
662,3,0.8,0.25,-35.0,-1,1.0,0.29280100000005405
663,3,0.8,0.0,-35.0,-1,1.0,0.34680100000014136
664,3,0.8,1.0,35.0,1,1.0,0.2427020000000084
665,3,0.8,0.0,-35.0,-1,1.0,1.9338010000001304
666,3,0.8,0.25,-35.0,-1,1.0,0.24630100000013044
667,3,0.8,0.25,35.0,1,1.0,0.2537010000000919
668,3,0.8,0.0625,-35.0,-1,1.0,0.34640100000024177
669,3,0.8,0.0,-35.0,1,0.0,0.7773019999999633
670,3,0.2,1.0,35.0,1,1.0,0.26680099999975937
671,3,0.2,0.0,35.0,1,1.0,6.93400100000008
672,3,0.2,0.125,35.0,-1,0.0,6.93380100000013
673,3,0.2,0.0,35.0,1,1.0,0.5278010000001814
674,3,0.2,1.0,35.0,1,1.0,0.287101000000348
675,3,0.2,0.0625,35.0,1,1.0,0.3347010000006776
676,3,0.2,0.125,35.0,1,1.0,0.5607009999998809
677,3,0.2,0.125,35.0,-1,0.0,0.21810099999993326
678,3,0.2,0.0625,35.0,1,1.0,0.3008010000003196
679,3,0.2,1.0,35.0,1,1.0,0.37500100000033854
680,3,0.2,0.25,35.0,1,1.0,0.3210010000002512
681,3,0.2,0.125,35.0,1,1.0,0.43530100000043603
682,3,0.2,1.0,35.0,1,1.0,0.23790099999996528
683,3,0.2,1.0,35.0,1,1.0,0.2789010000005874
684,3,0.2,0.0,35.0,1,1.0,0.3379010000007838
685,3,0.2,1.0,35.0,1,1.0,0.2724010000006274
686,3,0.2,0.25,-35.0,-1,1.0,0.691501000000244
687,3,0.2,0.0,35.0,1,1.0,0.3249010000004091
688,3,0.2,1.0,35.0,1,1.0,0.3427010000004884
689,3,0.2,0.0625,35.0,1,1.0,0.29510100000061357
690,3,0.2,0.25,35.0,1,1.0,0.26980100000037055
691,3,0.2,1.0,-35.0,-1,1.0,0.2187020000001212
692,3,0.2,0.0625,35.0,-1,0.0,2.8867010000003575
693,3,0.2,0.125,35.0,1,1.0,0.332100999999966
694,3,0.2,0.25,35.0,1,1.0,0.20300099999985832
695,3,0.2,0.0625,-35.0,-1,1.0,0.2790010000003349
696,3,0.2,0.125,35.0,1,1.0,0.3437010000002374
697,3,0.2,0.0,35.0,1,1.0,0.2492010000000846
698,3,0.2,0.125,35.0,1,1.0,0.27980100000058883
699,3,0.2,1.0,35.0,1,1.0,0.25570100000049933
700,3,0.2,0.25,-35.0,-1,1.0,0.25320099999999
701,3,0.2,0.25,35.0,1,1.0,0.39270100000021557
702,3,0.2,0.25,-35.0,-1,1.0,0.2207010000001901
703,3,0.2,0.125,35.0,1,1.0,0.22940100000050734
704,3,0.2,0.0625,35.0,1,1.0,0.2669010000004164
705,3,0.2,0.125,35.0,-1,0.0,0.8329020000001037
706,3,0.2,0.0625,-35.0,1,0.0,3.2037010000003647
707,3,0.2,0.25,35.0,1,1.0,4.153201000000081
708,3,0.2,1.0,35.0,1,1.0,0.24470200000041586
709,3,0.2,1.0,35.0,1,1.0,0.4135010000004513
