trial_num,session_num,stim_probability_left,contrast,position,response_choice,trial_correct,reaction_time
1,7,0.5,0.125,35.0,1,1.0,0.29879999999999995
2,7,0.5,1.0,-35.0,-1,1.0,0.2738010000000006
3,7,0.5,0.0625,35.0,1,1.0,0.34070100000000103
4,7,0.5,0.25,-35.0,-1,1.0,0.25510000000000055
5,7,0.5,0.125,-35.0,-1,1.0,0.25379999999999825
6,7,0.5,0.0,-35.0,1,0.0,0.6817999999999991
7,7,0.5,0.0625,-35.0,1,0.0,0.311599999999995
8,7,0.5,0.25,35.0,1,1.0,0.24799999999999756
9,7,0.5,0.0625,-35.0,1,0.0,2.395399999999995
10,7,0.5,0.125,35.0,1,1.0,0.26769999999999783
11,7,0.5,0.0,35.0,1,1.0,2.6125000000000043
12,7,0.5,0.25,35.0,1,1.0,0.27550099999999844
13,7,0.5,0.25,35.0,1,1.0,0.2591999999999999
14,7,0.5,0.0625,-35.0,-1,1.0,0.3556999999999988
15,7,0.5,0.0625,-35.0,1,0.0,1.4806999999999988
16,7,0.5,0.0625,-35.0,-1,1.0,0.26269999999998817
17,7,0.5,0.0625,-35.0,-1,1.0,0.3189000000000135
18,7,0.5,0.25,35.0,1,1.0,0.24660000000000082
19,7,0.5,0.0625,-35.0,1,0.0,1.024300000000025
20,7,0.5,0.0,35.0,1,1.0,7.001700000000014
21,7,0.5,0.125,35.0,1,1.0,0.256299999999996
22,7,0.5,0.25,35.0,1,1.0,0.33960000000000434
23,7,0.5,1.0,-35.0,-1,1.0,0.30390000000001294
24,7,0.5,0.125,-35.0,-1,1.0,0.2938000000000045
25,7,0.5,0.0,-35.0,1,0.0,0.2908000000000186
26,7,0.5,0.25,-35.0,-1,1.0,0.2254000000000076
27,7,0.5,0.125,-35.0,-1,1.0,0.32270000000001176
28,7,0.5,0.25,35.0,1,1.0,0.22750000000002046
29,7,0.5,0.0625,-35.0,-1,1.0,1.096500000000006
30,7,0.5,0.0625,-35.0,-1,1.0,0.3410000000000082
31,7,0.5,0.0625,-35.0,-1,1.0,0.24370000000000402
32,7,0.5,0.0625,-35.0,-1,1.0,1.436700000000016
33,7,0.5,1.0,35.0,1,1.0,0.287399999999991
34,7,0.5,0.125,35.0,1,1.0,0.25489999999999213
35,7,0.5,0.125,-35.0,-1,1.0,0.27889999999999304
36,7,0.5,1.0,35.0,1,1.0,0.22369999999997958
37,7,0.5,0.0625,-35.0,-1,1.0,0.3143999999999778
38,7,0.5,0.25,35.0,1,1.0,0.24290099999998915
39,7,0.5,0.125,35.0,1,1.0,0.2598999999999876
40,7,0.5,0.25,35.0,1,1.0,0.23499999999998522
41,7,0.5,0.125,35.0,1,1.0,0.3190009999999859
42,7,0.5,0.125,35.0,1,1.0,0.28819999999998913
43,7,0.5,1.0,-35.0,-1,1.0,0.23389999999997713
44,7,0.5,0.0,35.0,1,1.0,0.4446999999999832
45,7,0.5,0.25,-35.0,-1,1.0,0.6575999999999738
46,7,0.5,1.0,35.0,1,1.0,0.24149999999997362
47,7,0.5,0.125,35.0,-1,0.0,0.19259999999997035
48,7,0.5,0.0,-35.0,1,0.0,0.9694000000000074
49,7,0.7,0.0,-35.0,1,0.0,1.5087000000000046
50,7,0.5,1.0,35.0,1,1.0,0.2437009999999873
51,7,0.5,0.25,35.0,1,1.0,0.26220099999997615
52,7,0.5,0.125,-35.0,-1,1.0,0.24109999999998877
53,7,0.5,0.0,-35.0,1,0.0,0.2991000000000099
54,7,0.5,0.25,-35.0,-1,1.0,0.2256999999999607
55,7,0.5,0.0,35.0,-1,0.0,0.36990000000000123
56,7,0.5,0.125,35.0,1,1.0,0.25920100000001867
57,7,0.5,0.125,-35.0,-1,1.0,0.24799999999999045
58,7,0.5,0.0625,-35.0,-1,1.0,0.10569999999998458
59,7,0.5,0.25,-35.0,-1,1.0,0.2300999999999931
60,7,0.5,0.0625,-35.0,-1,1.0,0.2750999999999806
61,7,0.5,0.0625,-35.0,-1,1.0,0.30230000000000246
62,7,0.5,0.125,35.0,1,1.0,0.4911000000000172
63,7,0.5,1.0,-35.0,-1,1.0,0.20769999999998845
64,7,0.5,1.0,35.0,1,1.0,0.206799999999987
65,7,0.5,0.0625,35.0,1,1.0,0.30479999999997176
66,7,0.5,0.25,35.0,1,1.0,0.28010000000000446
67,7,0.5,0.125,-35.0,-1,1.0,0.28770000000000095
68,7,0.5,0.0,-35.0,1,0.0,0.33660000000003265
69,7,0.5,0.125,-35.0,-1,1.0,0.22719999999998208
70,7,0.5,0.125,-35.0,-1,1.0,0.2670999999999708
71,7,0.5,0.25,35.0,1,1.0,0.2757000000000289
72,7,0.5,0.25,35.0,1,1.0,0.2647000000000048
73,7,0.5,0.25,-35.0,-1,1.0,0.2575999999999681
74,7,0.5,1.0,35.0,1,1.0,0.22860000000002856
75,7,0.5,1.0,-35.0,-1,1.0,0.19290000000000873
76,7,0.5,0.0625,-35.0,-1,1.0,0.25750099999999065
77,7,0.5,0.0625,35.0,-1,0.0,1.2197009999999864
78,7,0.5,0.0,35.0,-1,0.0,0.22359999999997626
79,7,0.3,0.0,35.0,1,1.0,0.32639999999997826
80,7,0.5,1.0,-35.0,-1,1.0,0.24279999999998836
81,7,0.5,0.0625,-35.0,1,0.0,0.3805999999999585
82,7,0.5,0.125,-35.0,-1,1.0,0.26389999999997826
83,7,0.5,0.125,-35.0,-1,1.0,1.8782999999999674
84,7,0.5,0.25,-35.0,-1,1.0,0.20980000000002974
85,7,0.5,1.0,35.0,1,1.0,0.234600999999941
86,7,0.5,0.25,35.0,1,1.0,0.23109999999996944
87,7,0.5,0.0,-35.0,1,0.0,2.4570999999999685
88,7,0.5,0.0625,-35.0,-1,1.0,1.000900999999999
89,7,0.5,1.0,-35.0,-1,1.0,0.280900000000031
90,7,0.5,0.25,35.0,1,1.0,0.24720000000002074
91,7,0.5,1.0,35.0,1,1.0,0.1863999999999919
92,7,0.5,0.0625,35.0,1,1.0,0.3079999999999927
93,7,0.5,0.25,-35.0,-1,1.0,0.24560000000002447
94,7,0.5,0.0625,-35.0,1,0.0,1.923701000000051
95,7,0.7,0.0625,-35.0,-1,1.0,0.10160100000001648
96,7,0.5,1.0,-35.0,-1,1.0,0.22500000000002274
97,7,0.5,0.25,-35.0,-1,1.0,0.2306000000000381
98,7,0.5,0.0625,35.0,-1,0.0,0.2350999999999317
99,7,0.5,0.0,-35.0,-1,1.0,0.2588999999999828
100,7,0.5,0.125,35.0,1,1.0,0.2506010000000174
101,7,0.5,0.0625,-35.0,-1,1.0,0.27769999999998163
102,7,0.5,0.125,35.0,1,1.0,0.2656000000000063
103,7,0.5,0.125,-35.0,-1,1.0,0.35580000000004475
104,7,0.5,0.0625,35.0,1,1.0,0.2746000000000208
105,7,0.5,1.0,35.0,1,1.0,0.213799999999992
106,7,0.5,1.0,-35.0,-1,1.0,0.18760000000003174
107,7,0.5,0.0625,35.0,1,1.0,0.36760100000003604
108,7,0.5,0.0625,-35.0,-1,1.0,0.25900000000001455
109,7,0.5,1.0,-35.0,-1,1.0,0.2869000000000028
110,7,0.5,0.125,-35.0,-1,1.0,0.2115000000000009
111,7,0.5,0.0625,-35.0,-1,1.0,0.2939000000000078
112,7,0.5,0.25,-35.0,-1,1.0,0.2255999999999858
113,7,0.5,0.25,35.0,1,1.0,0.2565999999999917
114,7,0.5,0.125,35.0,1,1.0,0.2349999999999568
115,7,0.5,0.125,35.0,1,1.0,0.4852999999999952
116,7,0.5,1.0,35.0,1,1.0,0.39580000000000837
117,7,0.5,1.0,35.0,1,1.0,0.18650000000002365
118,7,0.5,0.125,-35.0,1,0.0,0.5004999999999882
119,7,0.5,0.0625,-35.0,-1,1.0,0.24099999999998545
120,7,0.5,1.0,-35.0,-1,1.0,0.19909999999998718
121,7,0.5,0.125,35.0,1,1.0,0.6192999999999529
122,7,0.5,0.25,35.0,1,1.0,0.4467999999999961
123,7,0.5,0.0625,-35.0,-1,1.0,1.920500000000004
124,7,0.5,0.0625,-35.0,1,0.0,0.3779999999999859
125,7,0.5,0.0625,-35.0,-1,1.0,0.2758999999999787
126,7,0.5,0.125,-35.0,-1,1.0,0.7817999999999756
127,7,0.5,0.125,35.0,-1,0.0,0.2061009999999328
128,7,0.5,0.125,35.0,1,1.0,0.27949999999998454
129,7,0.5,0.125,35.0,1,1.0,0.25050099999998565
130,7,0.5,0.125,-35.0,-1,1.0,0.27860099999998056
131,7,0.5,0.125,35.0,1,1.0,0.25860099999999875
132,7,0.5,0.125,35.0,1,1.0,0.23559999999997672
133,7,0.5,0.125,-35.0,-1,1.0,0.23449999999996862
134,7,0.5,0.0625,35.0,-1,0.0,4.01400000000001
135,7,0.5,0.25,-35.0,-1,1.0,0.2226999999999748
136,7,0.5,0.125,35.0,1,1.0,0.5624999999999432
137,7,0.5,0.125,-35.0,-1,1.0,0.22670000000016444
138,7,0.5,1.0,35.0,1,1.0,0.23820000000011987
139,7,0.5,0.0625,-35.0,-1,1.0,2.434500000000071
140,7,0.5,1.0,35.0,1,1.0,0.32300000000009277
141,7,0.5,0.25,35.0,1,1.0,0.2543000000000575
142,7,0.5,0.125,-35.0,-1,1.0,0.29179999999996653
143,7,0.5,0.25,-35.0,-1,1.0,0.1625010000000202
144,7,0.5,0.25,35.0,1,1.0,0.7485000000000355
145,7,0.5,0.0,35.0,1,1.0,0.9186010000000806
146,7,0.5,0.125,35.0,1,1.0,0.288599999999974
147,7,0.5,0.0625,-35.0,-1,1.0,1.3845000000001164
148,7,0.5,0.0625,-35.0,-1,1.0,1.0625000000001137
149,7,0.5,0.125,35.0,1,1.0,0.2745000000001028
150,7,0.5,0.25,35.0,1,1.0,0.2545000000000073
151,7,0.5,0.0625,-35.0,-1,1.0,0.18510000000003402
152,7,0.5,1.0,35.0,1,1.0,0.2415000000000873
153,7,0.5,0.25,-35.0,-1,1.0,0.23250000000007276
154,7,0.5,0.125,35.0,1,1.0,0.2845999999999549
155,7,0.5,1.0,35.0,1,1.0,0.3548000000000684
156,7,0.5,1.0,35.0,1,1.0,0.3750999999999749
157,7,0.5,0.0625,35.0,1,1.0,0.5147000000000617
158,7,0.5,1.0,-35.0,-1,1.0,0.20740100000011807
159,7,0.5,0.0,35.0,1,1.0,0.31710100000009334
160,7,0.5,0.25,35.0,1,1.0,0.26350000000002183
161,7,0.5,0.0,35.0,-1,0.0,0.30179999999995744
162,7,0.7,0.0,35.0,1,1.0,0.77150000000006
163,7,0.5,1.0,35.0,1,1.0,0.20360000000016498
164,7,0.5,0.0,35.0,-1,0.0,0.37350000000014916
165,7,0.5,0.0625,35.0,1,1.0,0.29560000000003583
166,7,0.5,0.0,35.0,1,1.0,0.3118010000000595
167,7,0.5,1.0,-35.0,-1,1.0,0.2113000000000511
168,7,0.5,0.0625,35.0,1,1.0,0.2814010000000735
169,7,0.5,0.125,35.0,1,1.0,0.5759000000000469
170,7,0.5,1.0,-35.0,-1,1.0,0.47640000000001237
171,7,0.5,0.25,-35.0,-1,1.0,0.22709999999995034
172,7,0.5,1.0,-35.0,-1,1.0,0.20660099999997783
173,7,0.5,0.125,-35.0,-1,1.0,0.21250000000009095
174,7,0.5,0.0,35.0,1,1.0,0.34370000000012624
175,7,0.5,1.0,-35.0,-1,1.0,0.22270000000003165
176,7,0.5,1.0,35.0,1,1.0,0.23320000000012442
177,7,0.5,0.25,-35.0,-1,1.0,0.21100000000001273
178,7,0.5,0.125,-35.0,-1,1.0,0.22930000000008022
179,7,0.5,0.0625,35.0,1,1.0,0.25280000000009295
180,7,0.5,0.25,35.0,1,1.0,0.47880000000009204
181,7,0.5,0.25,-35.0,-1,1.0,3.839900000000057
182,7,0.5,0.25,35.0,1,1.0,0.4121010000001206
183,7,0.5,0.25,35.0,1,1.0,0.261801000000105
184,7,0.5,0.125,35.0,1,1.0,0.6001000000001113
185,7,0.5,0.25,35.0,1,1.0,0.6960000000000264
186,7,0.5,0.25,-35.0,-1,1.0,0.3179000000001224
187,7,0.5,1.0,-35.0,-1,1.0,0.20799999999997
188,7,0.5,0.25,35.0,1,1.0,0.21070000000008804
189,7,0.5,0.25,-35.0,-1,1.0,0.15949999999998
190,7,0.5,0.25,-35.0,-1,1.0,0.19970100000000457
191,7,0.5,0.125,35.0,1,1.0,0.2839999999999918
192,7,0.5,0.25,35.0,1,1.0,0.23969999999997071
193,7,0.5,0.0625,35.0,1,1.0,0.5344010000001163
194,7,0.5,0.0,35.0,1,1.0,0.3744000000000369
195,7,0.5,1.0,-35.0,-1,1.0,0.815300000000093
196,7,0.5,0.0625,35.0,1,1.0,0.7612000000000307
197,7,0.5,0.0625,35.0,1,1.0,0.24460099999998874
198,7,0.5,0.125,35.0,1,1.0,0.25750000000005
199,7,0.5,1.0,-35.0,-1,1.0,0.5244000000000142
200,7,0.5,0.25,35.0,1,1.0,0.6442999999999302
201,7,0.5,0.0625,-35.0,-1,1.0,0.30300000000011096
202,7,0.5,1.0,35.0,1,1.0,0.23329999999998563
203,7,0.5,0.0625,35.0,1,1.0,0.27880000000004657
204,7,0.5,1.0,35.0,1,1.0,0.20840100000009443
205,7,0.5,0.0625,-35.0,1,0.0,1.2666000000001532
206,7,0.5,0.25,-35.0,-1,1.0,0.24450000000013006
207,7,0.5,0.0625,-35.0,-1,1.0,0.34740000000010696
208,7,0.5,0.0625,-35.0,1,0.0,0.33720000000005257
209,7,0.6,0.0625,-35.0,-1,1.0,0.27070000000003347
210,7,0.5,1.0,-35.0,-1,1.0,0.23080000000015843
211,7,0.5,0.125,-35.0,-1,1.0,0.21629999999993288
212,7,0.5,1.0,35.0,1,1.0,0.255800000000022
213,7,0.5,0.25,-35.0,1,0.0,2.541500000000042
214,7,0.5,0.25,35.0,1,1.0,0.19730100000003858
215,7,0.5,1.0,-35.0,-1,1.0,0.25530000000003383
216,7,0.5,0.125,-35.0,-1,1.0,3.2029000000001133
217,7,0.5,0.0,-35.0,1,0.0,0.2697000000000571
218,7,0.5,0.25,35.0,1,1.0,0.29300000000012005
219,7,0.5,0.0625,35.0,1,1.0,0.4193000000001348
220,7,0.5,0.125,35.0,1,1.0,0.30650100000002567
221,7,0.5,0.25,35.0,1,1.0,0.41860000000008313
222,7,0.5,0.25,35.0,1,1.0,0.2634010000001581
223,7,0.5,0.125,-35.0,-1,1.0,0.2594010000000253
224,7,0.5,1.0,-35.0,-1,1.0,0.9687000000000126
225,7,0.5,1.0,35.0,1,1.0,0.20949999999993452
226,7,0.5,0.0,35.0,1,1.0,3.954300000000103
227,7,0.5,0.25,-35.0,-1,1.0,0.23040000000003147
228,7,0.5,1.0,35.0,1,1.0,0.20479999999997744
229,7,0.5,0.25,-35.0,-1,1.0,0.22490000000004784
230,7,0.5,0.0,-35.0,1,0.0,0.43040000000007694
231,7,0.6,0.0,35.0,1,1.0,0.33130000000016935
232,7,0.5,1.0,35.0,1,1.0,0.2597000000000662
233,7,0.5,0.125,35.0,1,1.0,0.2699999999999818
234,7,0.5,0.125,-35.0,1,0.0,2.4698000000000775
235,7,0.5,0.0625,-35.0,1,0.0,0.29430100000013226
236,7,0.8,0.0625,35.0,1,1.0,0.1168999999999869
237,7,0.5,1.0,35.0,1,1.0,0.23030000000005657
238,7,0.5,0.125,-35.0,-1,1.0,0.2805000000000746
239,7,0.5,0.0625,-35.0,1,0.0,0.3244000000000824
240,7,0.9,0.0625,-35.0,1,0.0,5.901601000000028
241,7,0.5,1.0,-35.0,-1,1.0,0.43259999999997945
242,7,0.5,1.0,35.0,1,1.0,0.27129999999999654
243,7,0.5,0.0,-35.0,1,0.0,1.192600000000084
244,7,0.5,0.125,-35.0,-1,1.0,0.24830000000008567
245,7,0.5,1.0,-35.0,-1,1.0,0.20249999999998636
246,7,0.5,0.0625,35.0,1,1.0,0.5035000000001446
247,7,0.5,1.0,35.0,1,1.0,0.5289000000000215
248,7,0.5,0.125,35.0,1,1.0,0.6326000000001386
249,7,0.5,0.125,-35.0,-1,1.0,0.2807999999999993
250,7,0.5,0.25,-35.0,-1,1.0,0.2438000000000784
251,7,0.5,0.0625,35.0,1,1.0,0.28730000000007294
252,7,0.5,0.125,35.0,1,1.0,0.25260100000002694
253,7,0.5,0.25,35.0,1,1.0,0.27120000000002165
254,7,0.5,0.125,-35.0,1,0.0,0.9766000000000759
255,7,0.5,0.0625,-35.0,1,0.0,1.2445999999999913
256,7,0.5,0.0625,-35.0,1,0.0,7.32529999999997
257,7,0.5,0.0625,-35.0,1,0.0,0.4553009999999631
258,7,0.5,0.25,35.0,1,1.0,0.26539999999999964
259,7,0.5,0.0625,-35.0,-1,1.0,4.197901000000115
260,7,0.5,0.0625,-35.0,-1,1.0,0.2545999999999822
261,7,0.5,0.25,35.0,1,1.0,0.2593010000001641
262,7,0.5,1.0,-35.0,-1,1.0,0.23050000000012005
263,7,0.5,0.125,-35.0,-1,1.0,1.2393000000000711
264,7,0.5,0.0625,-35.0,1,0.0,0.6128999999999678
265,7,0.5,0.0625,35.0,1,1.0,0.9518000000000484
266,7,0.5,0.0625,-35.0,-1,1.0,8.107599999999934
267,7,0.5,0.0,-35.0,1,0.0,0.31130099999995764
268,7,0.5,0.25,35.0,1,1.0,0.495900000000006
269,7,0.5,0.0625,-35.0,1,0.0,3.0580999999999676
270,7,0.5,0.0,35.0,1,1.0,0.32930000000010295
271,7,0.5,0.0625,-35.0,1,0.0,0.4315000000001419
272,7,0.5,0.0,-35.0,1,0.0,10.012499999999818
273,7,0.5,0.0625,-35.0,1,0.0,0.328499999999849
274,7,0.5,0.0,35.0,1,1.0,4.313199999999824
275,7,0.5,0.25,-35.0,-1,1.0,0.23540100000013808
276,7,0.5,0.125,-35.0,-1,1.0,0.6833999999998923
277,7,0.5,0.25,35.0,1,1.0,0.1690000000000964
278,7,0.5,0.25,-35.0,-1,1.0,0.5298000000000229
279,7,0.5,0.125,-35.0,-1,1.0,1.0391000000001895
280,7,0.5,0.125,-35.0,-1,1.0,0.22329999999988104
281,7,0.5,0.125,-35.0,-1,1.0,0.29619999999977153
282,7,0.5,1.0,35.0,1,1.0,0.4232999999999265
283,7,0.5,0.0625,35.0,1,1.0,0.5461999999999989
284,7,0.5,0.0625,35.0,1,1.0,0.6404010000001108
285,7,0.5,0.0,-35.0,1,0.0,0.3994999999999891
286,7,0.5,0.125,-35.0,-1,1.0,0.2942000000000462
287,7,0.5,0.0,35.0,1,1.0,0.34969999999998436
288,7,0.5,0.25,-35.0,-1,1.0,0.23420000000010077
289,7,0.5,1.0,35.0,1,1.0,0.2632010000002083
290,7,0.5,1.0,35.0,1,1.0,0.24390000000016698
291,7,0.5,1.0,-35.0,-1,1.0,0.5932000000000244
292,7,0.5,0.0,-35.0,1,0.0,0.5773009999998067
293,7,0.5,0.25,-35.0,-1,1.0,0.2333009999999831
294,7,0.5,0.0625,35.0,1,1.0,5.27760000000012
295,7,0.5,0.0625,-35.0,-1,1.0,7.397099999999909
296,7,0.5,1.0,-35.0,-1,1.0,0.7778000000000702
297,7,0.5,1.0,-35.0,-1,1.0,0.24400000000014188
298,7,0.5,0.0625,35.0,1,1.0,0.8282000000001517
299,7,0.5,0.25,-35.0,-1,1.0,4.1373009999999795
300,7,0.5,0.25,-35.0,-1,1.0,0.23489999999992506
301,7,0.5,0.25,-35.0,-1,1.0,0.25420099999996637
302,7,0.5,1.0,-35.0,-1,1.0,0.4052000000001499
303,7,0.5,0.0,-35.0,1,0.0,0.5310010000000602
304,7,0.5,0.0625,35.0,1,1.0,0.27539999999999054
305,7,0.5,0.25,-35.0,-1,1.0,0.2411010000000715
306,7,0.5,0.0,-35.0,-1,1.0,5.4319000000000415
307,7,0.5,0.125,35.0,1,1.0,0.8747000000000753
308,7,0.5,0.25,35.0,1,1.0,0.2722000000001117
309,7,0.5,0.125,35.0,1,1.0,0.4782000000000153
310,7,0.5,1.0,-35.0,-1,1.0,0.21239999999988868
311,7,0.5,0.125,-35.0,-1,1.0,0.24469999999996617
312,7,0.5,0.125,35.0,1,1.0,0.2792010000000573
313,7,0.5,0.0,-35.0,-1,1.0,4.768300000000181
314,7,0.5,0.0625,-35.0,-1,1.0,0.25250099999993836
315,7,0.5,0.0,-35.0,1,0.0,0.6485999999997603
316,7,0.5,0.125,35.0,1,1.0,0.3061000000000149
317,7,0.5,0.25,35.0,1,1.0,0.22220000000015716
318,7,0.5,0.0,35.0,1,1.0,6.600200000000086
319,7,0.5,0.25,35.0,1,1.0,0.2422999999998865
320,7,0.5,0.0625,-35.0,-1,1.0,0.3367000000000644
321,7,0.5,1.0,-35.0,-1,1.0,0.43240000000014334
322,7,0.5,0.25,-35.0,-1,1.0,0.24340000000006512
323,7,0.5,0.0625,-35.0,-1,1.0,0.22600000000011278
324,7,0.5,0.0625,35.0,1,1.0,0.39039999999999964
325,7,0.5,0.125,-35.0,-1,1.0,0.17610100000001694
326,7,0.5,0.0625,-35.0,1,0.0,0.5106000000000677
327,7,0.5,0.0625,35.0,1,1.0,0.322800000000143
328,7,0.5,0.125,-35.0,-1,1.0,0.23030100000028142
329,7,0.5,0.0625,-35.0,1,0.0,0.39620000000013533
330,7,0.5,0.25,35.0,1,1.0,0.5138999999999214
331,7,0.5,0.0625,-35.0,1,0.0,0.6264999999998508
332,7,0.5,0.25,-35.0,-1,1.0,0.2381000000000313
333,7,0.5,0.0,35.0,1,1.0,1.7132000000001426
334,7,0.5,0.25,-35.0,-1,1.0,0.26110000000016953
335,7,0.5,0.0,35.0,-1,0.0,1.0568000000000666
336,7,0.5,0.0,35.0,-1,0.0,0.28460000000018226
337,7,0.5,0.125,-35.0,-1,1.0,0.29359999999996944
338,7,0.5,0.125,35.0,1,1.0,0.3079000000002452
339,7,0.5,0.0625,-35.0,1,0.0,0.34710000000018226
340,7,0.5,0.0625,35.0,1,1.0,0.4051009999998314
341,7,0.5,0.125,-35.0,1,0.0,0.6474000000000615
342,7,0.5,0.125,35.0,1,1.0,0.28490000000010696
343,7,0.5,1.0,35.0,1,1.0,0.23080000000004475
344,7,0.5,0.0625,35.0,1,1.0,0.258199999999988
345,7,0.5,1.0,-35.0,-1,1.0,0.20409999999992579
346,7,0.5,0.0625,-35.0,-1,1.0,0.24909999999999854
347,7,0.5,0.125,-35.0,-1,1.0,0.2542000000000826
348,7,0.5,0.125,-35.0,-1,1.0,0.21910000000002583
349,7,0.5,0.0,-35.0,-1,1.0,0.2677000000001044
350,7,0.5,0.25,35.0,1,1.0,0.32519999999999527
351,7,0.5,0.0,35.0,1,1.0,3.4845000000000255
352,7,0.5,0.0,35.0,-1,0.0,0.27610100000015336
353,7,0.5,0.0,-35.0,1,0.0,0.37140000000022155
354,7,0.4,0.0,35.0,1,1.0,0.30930000000012114
355,7,0.5,1.0,-35.0,-1,1.0,0.2748999999998887
356,7,0.5,0.0625,35.0,1,1.0,1.095700000000079
357,7,0.5,1.0,35.0,1,1.0,0.29500000000007276
358,7,0.5,0.0625,35.0,-1,0.0,0.2560000000000855
359,7,0.6,0.0625,-35.0,-1,1.0,0.358400999999958
360,7,0.5,1.0,35.0,1,1.0,0.41950100000008206
361,7,0.5,0.125,35.0,1,1.0,0.4287000000001626
362,7,0.5,0.0625,-35.0,-1,1.0,0.789400999999998
363,7,0.5,1.0,-35.0,-1,1.0,0.27899999999999636
364,7,0.5,0.25,35.0,1,1.0,0.30310000000008586
365,7,0.5,0.25,35.0,1,1.0,1.1489009999997961
366,7,0.5,0.125,-35.0,-1,1.0,1.1300999999998567
367,7,0.5,0.0625,35.0,1,1.0,0.5960999999999785
368,7,0.5,0.0,35.0,1,1.0,0.5835999999999331
369,7,0.5,0.0625,-35.0,-1,1.0,0.18610100000000784
370,7,0.5,0.0625,-35.0,-1,1.0,0.5334000000000287
371,7,0.5,0.25,-35.0,-1,1.0,0.22929999999996653
372,7,0.5,0.25,35.0,1,1.0,0.3502000000000862
373,7,0.5,1.0,-35.0,-1,1.0,0.22620000000006257
374,7,0.5,0.0,35.0,-1,0.0,0.5941000000000258
375,7,0.5,0.125,35.0,1,1.0,0.4696010000000115
376,7,0.5,0.25,35.0,1,1.0,0.4372000000000753
377,7,0.5,0.125,35.0,1,1.0,0.43630000000007385
378,7,0.5,1.0,35.0,1,1.0,0.6211000000000695
379,7,0.5,0.25,-35.0,-1,1.0,0.536600000000135
380,7,0.5,0.0,-35.0,-1,1.0,0.35740099999998165
381,7,0.5,0.25,35.0,1,1.0,0.44000000000005457
382,7,0.5,1.0,35.0,1,1.0,0.1974999999999909
383,7,0.5,0.0625,35.0,1,1.0,0.9468000000001666
384,7,0.5,1.0,35.0,1,1.0,0.2645999999999731
385,7,0.5,0.125,-35.0,-1,1.0,0.6570000000001528
386,7,0.5,1.0,-35.0,-1,1.0,0.2542999999998301
387,7,0.5,0.125,-35.0,-1,1.0,0.7272000000000389
388,7,0.5,0.125,-35.0,-1,1.0,0.6213000000000193
389,7,0.5,0.25,-35.0,-1,1.0,0.4640999999999167
390,7,0.5,0.0,-35.0,1,0.0,0.511600000000044
391,7,0.5,0.0625,35.0,1,1.0,0.44060000000013133
392,7,0.5,0.25,35.0,1,1.0,0.4714999999998781
393,7,0.5,0.125,35.0,1,1.0,0.42419999999992797
394,7,0.5,1.0,-35.0,-1,1.0,0.4882999999999811
395,7,0.5,0.25,35.0,1,1.0,0.26099999999996726
396,7,0.5,0.25,35.0,1,1.0,0.2451000000003205
397,7,0.5,0.0,35.0,-1,0.0,0.28799999999978354
398,7,0.5,0.0625,35.0,1,1.0,0.4519999999999982
399,7,0.5,1.0,-35.0,-1,1.0,0.44460000000003674
400,7,0.5,1.0,35.0,1,1.0,0.22200000000020736
401,7,0.5,0.0625,35.0,-1,0.0,0.21470000000022083
402,7,0.5,0.0625,-35.0,1,0.0,0.5760000000000218
403,7,0.6,0.0625,35.0,1,1.0,0.30150000000003274
404,7,0.5,1.0,35.0,1,1.0,0.2760009999999511
405,7,0.5,0.0625,-35.0,-1,1.0,0.31500000000005457
406,7,0.5,0.125,-35.0,-1,1.0,1.259499999999889
407,7,0.5,0.25,-35.0,-1,1.0,1.34900000000016
408,7,0.5,0.0625,35.0,1,1.0,0.29930100000001403
409,7,0.5,0.125,-35.0,-1,1.0,0.24860000000012406
410,7,0.5,1.0,35.0,1,1.0,0.2561000000000604
411,7,0.5,0.25,-35.0,-1,1.0,0.22899999999981446
412,7,0.5,0.0625,35.0,1,1.0,0.32960000000002765
413,7,0.5,0.0,35.0,1,1.0,0.479001000000153
414,7,0.5,0.125,-35.0,-1,1.0,0.24630000000001928
415,7,0.5,0.0,35.0,1,1.0,0.28240100000016355
416,7,0.5,1.0,35.0,1,1.0,0.22990000000027067
417,7,0.5,1.0,-35.0,-1,1.0,1.3324009999998907
418,7,0.5,0.25,-35.0,-1,1.0,0.2540000000001328
419,7,0.5,0.25,-35.0,-1,1.0,0.24250000000006366
420,7,0.5,0.0625,35.0,1,1.0,0.27359999999998763
421,7,0.5,0.125,35.0,1,1.0,0.2661999999997988
422,7,0.5,0.25,35.0,1,1.0,0.24700000000007094
423,7,0.5,0.0,-35.0,1,0.0,4.563000000000102
424,7,0.5,0.25,35.0,1,1.0,0.2510000000002037
425,7,0.5,0.0,35.0,1,1.0,0.5896999999999935
426,7,0.5,0.25,35.0,1,1.0,0.24400000000014188
427,7,0.5,0.0,-35.0,1,0.0,0.2963999999999487
428,7,0.5,0.0625,35.0,1,1.0,0.9707000000000789
429,7,0.5,0.25,35.0,1,1.0,0.406601000000137
430,7,0.5,0.0625,-35.0,1,0.0,0.4874010000000908
431,7,1.0,0.0625,-35.0,1,0.0,0.5068999999998596
432,7,0.5,1.0,-35.0,-1,1.0,0.2149010000000544
433,7,0.5,0.0625,35.0,1,1.0,0.2771010000001297
434,7,0.5,0.0625,35.0,1,1.0,0.5113000000001193
435,7,0.5,0.0625,35.0,1,1.0,0.5570999999999913
436,7,0.5,0.125,35.0,1,1.0,0.2380000000000564
437,7,0.5,1.0,35.0,1,1.0,0.21720000000004802
438,7,0.5,0.0625,-35.0,1,0.0,0.561200000000099
439,7,0.5,0.0625,35.0,1,1.0,0.28080000000022665
440,7,0.5,0.125,-35.0,-1,1.0,0.7181000000002769
441,7,0.5,1.0,-35.0,-1,1.0,0.22749999999996362
442,7,0.5,1.0,-35.0,-1,1.0,0.2180999999998221
443,7,0.5,1.0,-35.0,-1,1.0,0.17430000000013024
444,7,0.5,1.0,35.0,1,1.0,0.23900000000003274
445,7,0.5,0.0625,35.0,1,1.0,8.867800000000216
446,7,0.5,0.125,-35.0,1,0.0,0.42869999999993524
447,7,0.6,0.125,35.0,1,1.0,0.2881000000002132
448,7,0.5,1.0,35.0,1,1.0,0.24210000000016407
449,7,0.5,0.125,35.0,1,1.0,0.49490000000014334
450,7,0.5,1.0,-35.0,-1,1.0,0.4559999999999036
451,7,0.5,0.25,-35.0,-1,1.0,0.6417999999998756
452,7,0.5,0.0625,-35.0,-1,1.0,2.609000000000151
453,7,0.5,1.0,35.0,1,1.0,0.24860000000012406
454,7,0.5,0.125,-35.0,-1,1.0,0.2760009999999511
455,7,0.5,0.0625,-35.0,1,0.0,0.6887010000000373
456,7,0.5,0.0,-35.0,-1,1.0,0.2697000000000571
457,7,0.5,0.0625,35.0,1,1.0,0.3388999999999669
458,7,0.5,0.0625,-35.0,-1,1.0,0.5830000000000837
459,7,0.5,0.125,-35.0,-1,1.0,0.22889999999983957
460,7,0.5,0.0625,35.0,1,1.0,0.3869000000001961
461,7,0.5,0.125,-35.0,-1,1.0,0.2722999999998592
462,7,0.5,0.0625,35.0,1,1.0,0.3768999999999778
463,7,0.5,0.0625,35.0,1,1.0,0.5690999999999349
464,7,0.5,0.25,35.0,1,1.0,0.26320000000009713
465,7,0.5,0.125,-35.0,-1,1.0,0.28929999999991196
466,7,0.5,0.0625,35.0,1,1.0,0.5468000000000757
467,7,0.5,1.0,35.0,1,1.0,0.23610100000018974
468,7,0.5,0.0,35.0,1,1.0,0.4036999999998443
469,7,0.5,1.0,-35.0,-1,1.0,0.5028999999999542
470,7,0.5,1.0,-35.0,-1,1.0,0.16390000000001237
471,7,0.5,1.0,-35.0,-1,1.0,0.21299999999996544
472,7,0.5,0.125,35.0,1,1.0,0.45050000000014734
473,7,0.5,1.0,35.0,1,1.0,0.243300999999974
474,7,0.5,1.0,35.0,1,1.0,0.2605999999998403
475,7,0.5,1.0,-35.0,-1,1.0,0.22649999999998727
476,7,0.5,0.125,-35.0,-1,1.0,0.2641000000000986
477,7,0.5,0.125,-35.0,-1,1.0,0.24000100000012026
478,7,0.5,0.0,35.0,1,1.0,0.3876000000000204
479,7,0.5,0.25,35.0,1,1.0,0.26680000000010295
480,7,0.5,0.0625,35.0,1,1.0,0.27110000000016043
481,7,0.5,0.25,35.0,1,1.0,0.15700100000003658
482,7,0.5,0.125,35.0,1,1.0,0.2979000000000269
483,7,0.5,0.0625,-35.0,-1,1.0,0.2805000000000746
484,7,0.5,0.125,35.0,1,1.0,0.5647999999998774
485,7,0.5,0.25,35.0,1,1.0,0.45059999999989486
486,7,0.5,0.0625,35.0,1,1.0,0.3247999999998683
487,7,0.5,0.0625,-35.0,-1,1.0,0.33090100000003986
488,7,0.5,1.0,35.0,1,1.0,0.2318000000000211
489,7,0.5,0.125,35.0,1,1.0,0.2777000000000953
490,7,0.5,0.125,35.0,1,1.0,0.2855000000001837
491,7,0.5,0.125,35.0,1,1.0,0.274599999999964
492,7,0.5,0.125,-35.0,-1,1.0,0.3788999999999305
493,7,0.5,0.25,-35.0,-1,1.0,0.18130000000019209
494,7,0.5,0.0,-35.0,-1,1.0,0.26569999999992433
495,7,0.5,0.0,35.0,-1,0.0,0.39150000000017826
496,7,0.5,0.0,-35.0,1,0.0,0.3556999999998425
497,7,0.5,1.0,-35.0,-1,1.0,0.3181999999999334
498,7,0.5,0.125,-35.0,-1,1.0,0.25280000000020664
499,7,0.5,0.25,35.0,1,1.0,0.3118010000000595
500,7,0.5,0.25,-35.0,-1,1.0,0.21270000000004075
501,7,0.5,0.125,-35.0,-1,1.0,0.21839999999997417
502,7,0.5,1.0,-35.0,-1,1.0,0.23280100000010862
503,7,0.5,0.125,35.0,1,1.0,0.2818999999999505
504,7,0.5,0.25,-35.0,-1,1.0,0.2361999999998261
505,7,0.5,0.25,35.0,1,1.0,0.23210000000017317
506,7,0.5,0.125,-35.0,-1,1.0,0.27640100000007806
507,7,0.5,0.0625,35.0,1,1.0,0.28880000000003747
508,7,0.5,0.0625,-35.0,1,0.0,0.14340099999981248
509,7,0.5,0.25,35.0,1,1.0,0.24579999999991742
510,7,0.5,0.0,35.0,1,1.0,5.683800999999903
511,7,0.5,1.0,35.0,1,1.0,0.2294010000000526
512,7,0.5,0.125,35.0,1,1.0,0.27690000000006876
513,7,0.5,0.25,35.0,1,1.0,0.2595000000001164
514,7,0.5,0.0625,-35.0,1,0.0,0.3206000000000131
515,7,0.9,0.0625,-35.0,-1,1.0,0.38620000000014443
516,7,0.5,1.0,-35.0,-1,1.0,0.2238999999999578
517,7,0.5,0.125,35.0,1,1.0,0.266399999999976
518,7,0.5,0.25,-35.0,-1,1.0,0.21060099999976956
519,7,0.5,1.0,35.0,1,1.0,0.23680100000001403
520,7,0.5,0.0,35.0,1,1.0,2.9377999999999247
521,7,0.5,1.0,-35.0,-1,1.0,0.24340000000006512
522,7,0.5,0.0625,35.0,1,1.0,1.4541000000001532
523,7,0.5,1.0,-35.0,-1,1.0,0.24669999999991887
524,7,0.5,0.0,35.0,1,1.0,6.577800000000025
525,7,0.5,0.25,35.0,1,1.0,0.3204000000000633
526,7,0.5,0.0625,35.0,1,1.0,0.6645010000002003
527,7,0.5,0.25,-35.0,-1,1.0,0.8708000000001448
528,7,0.5,0.0625,-35.0,1,0.0,0.1248000000000502
529,7,0.5,0.0,35.0,1,1.0,0.36730000000034124
530,7,0.5,0.25,-35.0,-1,1.0,0.34480000000030486
531,7,0.5,0.25,35.0,1,1.0,0.3008999999997286
532,7,0.5,0.0625,35.0,1,1.0,0.37170000000014625
533,7,0.5,0.0625,-35.0,-1,1.0,0.21090000000003783
534,7,0.5,0.25,-35.0,-1,1.0,0.26860000000033324
535,7,0.5,0.25,35.0,1,1.0,0.254399999999805
536,7,0.5,0.0625,-35.0,-1,1.0,0.26579999999967185
537,7,0.5,1.0,35.0,1,1.0,0.24130000000013752
538,7,0.5,0.25,-35.0,-1,1.0,0.6361000000001695
539,7,0.5,0.0,-35.0,1,0.0,0.31800099999964004
540,7,0.5,0.0,35.0,-1,0.0,7.088799999999992
541,7,0.5,0.25,35.0,1,1.0,0.30180099999961385
542,7,0.5,0.125,35.0,1,1.0,0.23909999999978027
543,7,0.5,0.25,-35.0,-1,1.0,0.23179999999956635
544,7,0.5,0.25,-35.0,-1,1.0,0.282799999999952
545,7,0.5,0.25,35.0,1,1.0,0.2618999999999687
546,7,0.5,1.0,35.0,1,1.0,0.24620000000004438
547,7,0.5,0.0625,35.0,1,1.0,0.3488000000002103
548,7,0.5,0.125,-35.0,-1,1.0,0.5729010000000017
549,7,0.5,0.0625,-35.0,-1,1.0,0.3289999999997235
1,8,0.5,0.25,-35.0,-1,1.0,0.3144000000000009
2,8,0.5,0.0625,-35.0,-1,1.0,0.33280000000000065
3,8,0.5,0.125,-35.0,-1,1.0,0.3227999999999991
4,8,0.5,0.125,-35.0,-1,1.0,0.2179999999999982
5,8,0.5,1.0,35.0,1,1.0,0.1872000000000007
6,8,0.5,0.125,-35.0,-1,1.0,0.43980000000000175
7,8,0.5,0.0,-35.0,-1,1.0,0.5034000000000027
8,8,0.5,1.0,35.0,1,1.0,0.23789999999999978
9,8,0.5,0.25,35.0,1,1.0,0.284200000000002
10,8,0.5,0.25,-35.0,1,0.0,0.10030099999999464
11,8,0.5,0.0625,-35.0,-1,1.0,0.2873999999999981
12,8,0.5,0.0,35.0,-1,0.0,2.6121010000000027
13,8,0.4,0.0,35.0,-1,0.0,9.828300000000006
14,8,0.5,1.0,35.0,1,1.0,0.32500000000000284
15,8,0.5,0.25,-35.0,-1,1.0,0.26899999999999835
16,8,0.5,0.25,-35.0,-1,1.0,0.2442000000000064
17,8,0.5,0.125,35.0,1,1.0,0.24410100000000057
18,8,0.5,0.125,35.0,1,1.0,0.29009999999999536
19,8,0.5,0.25,-35.0,-1,1.0,0.22600100000001078
20,8,0.5,1.0,35.0,1,1.0,0.3411000000000115
21,8,0.5,1.0,35.0,1,1.0,0.24950000000001182
22,8,0.5,0.0625,-35.0,-1,1.0,0.370199999999997
23,8,0.5,0.125,-35.0,-1,1.0,0.2297009999999915
24,8,0.5,0.0625,-35.0,-1,1.0,0.3098010000000073
25,8,0.5,0.25,35.0,1,1.0,0.21870100000001003
26,8,0.5,0.125,-35.0,-1,1.0,0.3042999999999978
27,8,0.5,1.0,-35.0,-1,1.0,0.2530000000000001
28,8,0.5,1.0,35.0,1,1.0,0.2652999999999963
29,8,0.5,0.0625,-35.0,-1,1.0,0.22809999999999775
30,8,0.5,0.125,35.0,1,1.0,0.30859999999999843
31,8,0.5,0.125,-35.0,-1,1.0,0.20589999999999975
32,8,0.5,0.125,35.0,1,1.0,0.24989999999999668
33,8,0.5,0.25,35.0,1,1.0,0.22169999999999845
34,8,0.5,1.0,35.0,1,1.0,0.23990000000000578
35,8,0.5,1.0,35.0,1,1.0,0.23620100000000832
36,8,0.5,0.125,35.0,1,1.0,0.21999999999997044
37,8,0.5,0.25,-35.0,-1,1.0,0.22289999999998145
38,8,0.5,1.0,-35.0,-1,1.0,0.19779999999997244
39,8,0.5,0.0625,35.0,1,1.0,0.5101999999999691
40,8,0.5,0.25,35.0,1,1.0,0.23759999999998627
41,8,0.5,0.125,-35.0,-1,1.0,0.27199999999999136
42,8,0.5,1.0,35.0,1,1.0,0.2365999999999815
43,8,0.5,0.25,35.0,1,1.0,0.19149999999999068
44,8,0.5,0.125,35.0,1,1.0,0.26979999999997517
45,8,0.5,0.0625,35.0,1,1.0,1.3589009999999746
46,8,0.5,1.0,-35.0,-1,1.0,0.21989999999999554
47,8,0.5,0.125,35.0,1,1.0,0.3779999999999859
48,8,0.5,0.125,-35.0,-1,1.0,0.19110000000000582
49,8,0.5,1.0,35.0,1,1.0,0.2255999999999858
50,8,0.5,0.125,-35.0,-1,1.0,0.23459999999997194
51,8,0.5,0.0,35.0,1,1.0,0.24459999999996285
52,8,0.5,0.0625,-35.0,-1,1.0,0.5913000000000181
53,8,0.5,0.125,35.0,1,1.0,0.19589999999999463
54,8,0.5,1.0,35.0,1,1.0,0.2226999999999748
55,8,0.5,1.0,-35.0,-1,1.0,0.20759999999998513
56,8,0.5,0.125,-35.0,-1,1.0,0.23389999999997713
57,8,0.5,1.0,-35.0,-1,1.0,0.19359999999997513
58,8,0.5,1.0,35.0,1,1.0,0.1945999999999799
59,8,0.5,0.25,35.0,1,1.0,0.4006999999999721
60,8,0.5,0.125,-35.0,-1,1.0,0.13370100000000207
61,8,0.5,0.125,-35.0,-1,1.0,0.21200099999998656
62,8,0.5,0.25,35.0,1,1.0,0.21219999999999573
63,8,0.5,0.125,-35.0,-1,1.0,0.2839999999999918
64,8,0.5,0.0625,35.0,1,1.0,0.3125999999999749
65,8,0.5,0.25,35.0,1,1.0,0.23849999999998772
66,8,0.5,0.25,-35.0,-1,1.0,0.20879999999999654
67,8,0.5,1.0,35.0,1,1.0,0.28050000000001774
68,8,0.5,0.0625,-35.0,1,0.0,0.5627000000000066
69,8,0.5,0.125,35.0,-1,0.0,0.2986009999999908
70,8,0.5,0.125,35.0,1,1.0,0.2972999999999786
71,8,0.5,1.0,-35.0,-1,1.0,0.26389999999997826
72,8,0.5,0.0625,-35.0,-1,1.0,0.23250099999998497
73,8,0.5,0.0625,35.0,-1,0.0,0.21810100000001853
74,8,0.5,0.125,-35.0,-1,1.0,0.23500100000001112
75,8,0.5,0.125,35.0,1,1.0,0.3471000000000686
76,8,0.5,0.0625,-35.0,-1,1.0,0.21819999999996753
77,8,0.5,0.0,-35.0,-1,1.0,0.5596000000000458
78,8,0.5,1.0,35.0,1,1.0,0.20350000000001955
79,8,0.5,0.125,35.0,1,1.0,0.23030000000005657
80,8,0.5,0.25,-35.0,-1,1.0,0.38929999999999154
81,8,0.5,0.25,-35.0,-1,1.0,0.2716010000000324
82,8,0.5,0.125,-35.0,-1,1.0,0.09150099999999384
83,8,0.5,1.0,-35.0,-1,1.0,0.20949999999999136
84,8,0.5,0.25,35.0,1,1.0,0.22460000000000946
85,8,0.5,0.25,35.0,1,1.0,0.21780100000000857
86,8,0.5,0.25,-35.0,-1,1.0,0.244700000000023
87,8,0.5,0.0625,35.0,-1,0.0,0.28540100000003576
88,8,0.5,0.125,-35.0,-1,1.0,0.28250100000002476
89,8,0.5,1.0,-35.0,-1,1.0,0.2074999999999818
90,8,0.5,0.0,-35.0,-1,1.0,0.6507009999999696
91,8,0.5,0.0,35.0,-1,0.0,0.24360000000001492
92,8,0.5,0.125,35.0,1,1.0,0.341700000000003
93,8,0.5,0.0625,-35.0,-1,1.0,0.27240100000005896
94,8,0.5,0.25,35.0,1,1.0,0.15500100000002703
95,8,0.5,1.0,-35.0,-1,1.0,0.21380100000004632
96,8,0.5,1.0,35.0,1,1.0,0.22100000000000364
97,8,0.5,0.125,-35.0,-1,1.0,0.25530000000003383
98,8,0.5,1.0,-35.0,1,0.0,0.13950000000005502
99,8,0.5,0.25,-35.0,-1,1.0,0.2918000000000234
100,8,0.5,1.0,35.0,1,1.0,0.17599999999998772
101,8,0.5,0.125,35.0,1,1.0,0.36549999999999727
102,8,0.5,0.0625,-35.0,-1,1.0,0.26010000000002265
103,8,0.5,0.125,35.0,1,1.0,0.281599999999969
104,8,0.5,0.0,35.0,1,1.0,0.35840000000001737
105,8,0.5,0.0,35.0,1,1.0,0.313000000000045
106,8,0.5,0.25,35.0,1,1.0,0.22350000000000136
107,8,0.5,0.0,35.0,1,1.0,0.4825000000000159
108,8,0.5,0.0625,-35.0,1,0.0,3.755700000000047
109,8,0.5,0.25,35.0,1,1.0,0.2295010000000275
110,8,0.5,0.25,35.0,1,1.0,0.2029009999999971
111,8,0.5,0.25,35.0,1,1.0,0.2428000000000452
112,8,0.5,0.0,35.0,1,1.0,0.30009999999998627
113,8,0.5,0.125,35.0,1,1.0,0.23430000000001883
114,8,0.5,0.25,-35.0,-1,1.0,0.19350000000002865
115,8,0.5,0.0625,-35.0,-1,1.0,0.410301000000004
116,8,0.5,0.125,-35.0,-1,1.0,0.20199999999999818
117,8,0.5,0.0625,-35.0,-1,1.0,0.2687999999999988
118,8,0.5,0.25,35.0,1,1.0,0.23149999999998272
119,8,0.5,0.0625,-35.0,1,0.0,0.27199999999999136
120,8,0.5,0.25,-35.0,-1,1.0,0.26900000000000546
121,8,0.5,0.0625,-35.0,-1,1.0,0.29450000000002774
122,8,0.5,0.25,-35.0,-1,1.0,0.23970000000002756
123,8,0.5,0.25,35.0,1,1.0,0.20670100000000957
124,8,0.5,1.0,35.0,1,1.0,0.19650000000001455
125,8,0.5,0.125,35.0,1,1.0,0.2470000000000141
126,8,0.5,0.0,-35.0,1,0.0,0.48610000000002174
127,8,0.5,0.0625,-35.0,-1,1.0,0.21010000000006812
128,8,0.5,1.0,35.0,1,1.0,0.20650000000000546
129,8,0.5,0.0625,-35.0,-1,1.0,0.27300000000002456
130,8,0.5,0.0625,-35.0,-1,1.0,0.3018999999999892
131,8,0.5,1.0,35.0,1,1.0,0.2265000000000441
132,8,0.5,0.125,35.0,1,1.0,0.27340000000003783
133,8,0.5,0.25,35.0,1,1.0,0.43340000000006285
134,8,0.5,0.0,-35.0,-1,1.0,3.474400000000003
135,8,0.5,0.25,-35.0,-1,1.0,0.24670100000003004
136,8,0.5,0.25,-35.0,-1,1.0,0.22750100000001794
137,8,0.5,0.0625,-35.0,-1,1.0,0.2588000000000079
138,8,0.5,0.25,-35.0,-1,1.0,0.20370100000002367
139,8,0.5,0.25,-35.0,-1,1.0,0.2329000000000292
140,8,0.5,0.25,35.0,1,1.0,0.2400000000000091
141,8,0.5,1.0,35.0,1,1.0,0.37889999999998736
142,8,0.5,0.125,-35.0,-1,1.0,0.22530000000000427
143,8,0.5,0.0625,-35.0,-1,1.0,0.22549999999995407
144,8,0.5,1.0,35.0,1,1.0,0.183400000000006
145,8,0.5,0.125,35.0,1,1.0,0.22480000000007294
146,8,0.5,0.125,35.0,1,1.0,1.651399999999967
147,8,0.5,0.25,-35.0,-1,1.0,0.22549999999989723
148,8,0.5,0.0625,-35.0,-1,1.0,0.20910000000003492
149,8,0.5,0.0625,-35.0,-1,1.0,0.23630000000002838
150,8,0.5,0.25,35.0,1,1.0,0.21640000000002146
151,8,0.5,1.0,-35.0,-1,1.0,0.2703000000000202
152,8,0.5,0.0625,-35.0,-1,1.0,0.14239999999995234
153,8,0.5,0.25,-35.0,-1,1.0,0.22240000000010696
154,8,0.5,0.0625,-35.0,-1,1.0,0.21540100000015627
155,8,0.5,0.125,35.0,1,1.0,0.233600000000024
156,8,0.5,0.0625,35.0,-1,0.0,0.2542000000000826
157,8,0.2,0.0625,35.0,1,1.0,0.24340000000006512
158,8,0.5,1.0,35.0,1,1.0,0.14049999999997453
159,8,0.5,0.0,35.0,-1,0.0,0.22629999999992378
160,8,0.5,0.25,-35.0,-1,1.0,0.21630000000016025
161,8,0.5,0.0625,-35.0,1,0.0,0.3873999999999569
162,8,0.5,0.0625,35.0,1,1.0,0.25270000000000437
163,8,0.5,0.0,-35.0,-1,1.0,0.27739999999994325
164,8,0.5,0.0,35.0,-1,0.0,0.18760000000008858
165,8,0.5,0.0625,-35.0,-1,1.0,3.727700000000027
166,8,0.5,0.25,35.0,1,1.0,0.2618999999999687
167,8,0.5,1.0,-35.0,-1,1.0,0.22719999999992524
168,8,0.5,0.125,-35.0,-1,1.0,0.20870000000002165
169,8,0.5,0.0625,35.0,1,1.0,0.25290000000006785
170,8,0.5,0.125,-35.0,-1,1.0,0.219400999999948
171,8,0.5,0.0625,35.0,1,1.0,0.4375
172,8,0.5,0.125,-35.0,-1,1.0,0.2316000000000713
173,8,0.5,1.0,-35.0,-1,1.0,0.24100000000009913
174,8,0.5,1.0,35.0,1,1.0,0.21039999999993597
175,8,0.5,0.125,35.0,1,1.0,0.2400000000000091
176,8,0.5,0.0625,35.0,-1,0.0,0.17840000000001055
177,8,0.5,0.125,35.0,1,1.0,0.3584000000000742
178,8,0.5,1.0,35.0,1,1.0,0.23420000000010077
179,8,0.5,0.0625,35.0,1,1.0,0.2515999999999394
180,8,0.5,0.125,-35.0,-1,1.0,0.21900000000005093
181,8,0.5,1.0,35.0,1,1.0,0.1716000000000122
182,8,0.5,0.0625,35.0,1,1.0,0.352301000000125
183,8,0.5,0.0625,35.0,1,1.0,0.25529999999992015
184,8,0.5,0.125,-35.0,-1,1.0,0.22890100000006441
185,8,0.5,0.0,-35.0,-1,1.0,0.38210000000003674
186,8,0.5,0.0,35.0,-1,0.0,0.28040099999998347
187,8,0.5,0.125,35.0,1,1.0,0.19249999999999545
188,8,0.5,0.125,35.0,1,1.0,0.1993009999999913
189,8,0.5,0.0625,35.0,-1,0.0,0.2579999999999245
190,8,0.5,0.25,-35.0,1,0.0,0.11970000000007985
191,8,0.5,0.0625,-35.0,-1,1.0,0.25549999999998363
192,8,0.5,0.125,-35.0,-1,1.0,0.2278999999999769
193,8,0.5,0.25,35.0,1,1.0,0.24879999999996016
194,8,0.5,1.0,-35.0,-1,1.0,0.17930100000012317
195,8,0.5,1.0,-35.0,-1,1.0,0.17040000000008604
196,8,0.5,0.25,-35.0,-1,1.0,0.22629999999992378
197,8,0.5,1.0,-35.0,-1,1.0,0.2033999999999878
198,8,0.5,0.125,-35.0,-1,1.0,0.22339999999996962
199,8,0.5,1.0,-35.0,-1,1.0,0.21729999999990923
200,8,0.5,0.25,-35.0,-1,1.0,0.22659999999996217
201,8,0.5,0.125,-35.0,-1,1.0,0.21460000000001855
202,8,0.5,1.0,-35.0,-1,1.0,0.2052000000001044
203,8,0.5,1.0,35.0,1,1.0,0.2278000000001157
204,8,0.5,0.0,35.0,-1,0.0,0.22030000000006567
205,8,0.5,0.0625,-35.0,-1,1.0,0.2543000000000575
206,8,0.5,1.0,35.0,1,1.0,0.20020000000010896
207,8,0.5,0.0625,-35.0,1,0.0,0.3887000000000853
208,8,0.3,0.0625,35.0,1,1.0,0.20630000000005566
209,8,0.5,1.0,35.0,1,1.0,0.2415000000000873
210,8,0.5,0.125,-35.0,-1,1.0,0.11130000000002838
211,8,0.5,0.0625,-35.0,-1,1.0,0.40459999999995944
212,8,0.5,1.0,-35.0,-1,1.0,0.2316009999999551
213,8,0.5,0.0,-35.0,-1,1.0,0.2807000000000244
214,8,0.5,0.25,-35.0,-1,1.0,0.1932000000000471
215,8,0.5,0.25,35.0,1,1.0,0.21240000000000236
216,8,0.5,0.0625,35.0,1,1.0,0.342899999999986
217,8,0.5,1.0,-35.0,-1,1.0,0.19870000000014443
218,8,0.5,0.25,-35.0,-1,1.0,0.2315000000000964
219,8,0.5,0.125,35.0,1,1.0,0.258199999999988
220,8,0.5,1.0,35.0,1,1.0,0.227800000000002
221,8,0.5,1.0,35.0,1,1.0,0.18570100000010825
222,8,0.5,0.0,35.0,-1,0.0,0.25270099999988815
223,8,0.5,0.25,35.0,1,1.0,0.22519999999997253
224,8,0.5,0.125,35.0,1,1.0,0.23310000000003583
225,8,0.5,0.125,-35.0,-1,1.0,0.2742000000000644
226,8,0.5,0.0625,35.0,1,1.0,0.3185000000000855
227,8,0.5,1.0,-35.0,-1,1.0,0.20630000000005566
228,8,0.5,0.125,35.0,1,1.0,0.31350000000009004
229,8,0.5,0.125,35.0,1,1.0,0.2801009999999451
230,8,0.5,0.0625,35.0,1,1.0,0.285301000000004
231,8,0.5,0.125,35.0,1,1.0,0.2178000000000111
232,8,0.5,0.0625,35.0,1,1.0,0.265700000000038
233,8,0.5,0.0625,-35.0,-1,1.0,0.28890000000012606
234,8,0.5,1.0,35.0,1,1.0,0.2602000000000544
235,8,0.5,0.25,-35.0,-1,1.0,0.29740000000003874
236,8,0.5,0.0,35.0,1,1.0,0.2620000000000573
237,8,0.5,1.0,35.0,1,1.0,0.17419999999992797
238,8,0.5,0.25,35.0,1,1.0,0.40240000000005693
239,8,0.5,0.0,-35.0,1,0.0,0.23559999999997672
240,8,0.5,0.0,35.0,1,1.0,0.3808000000001357
241,8,0.5,0.125,35.0,1,1.0,0.25260000000002947
242,8,0.5,0.25,-35.0,-1,1.0,0.21280100000001312
243,8,0.5,0.0625,35.0,1,1.0,0.2921010000000024
244,8,0.5,0.125,-35.0,-1,1.0,0.23919999999998254
245,8,0.5,1.0,-35.0,-1,1.0,0.23039999999991778
246,8,0.5,0.125,35.0,1,1.0,0.2761000000000422
247,8,0.5,0.125,35.0,1,1.0,0.30529999999998836
248,8,0.5,0.25,35.0,1,1.0,0.22620000000006257
249,8,0.5,0.125,-35.0,-1,1.0,0.34120000000007167
250,8,0.5,0.0625,35.0,1,1.0,0.3001999999999043
251,8,0.5,0.0625,35.0,1,1.0,0.30979999999999563
252,8,0.5,0.25,35.0,1,1.0,0.19200000000000728
253,8,0.5,0.0625,-35.0,1,0.0,0.5822000000000571
254,8,0.5,0.0625,-35.0,-1,1.0,0.3289999999999509
255,8,0.5,1.0,35.0,1,1.0,0.1811999999999898
256,8,0.5,0.25,-35.0,-1,1.0,0.27350000000001273
257,8,0.5,1.0,-35.0,-1,1.0,0.08950000000004366
258,8,0.5,0.0,-35.0,1,0.0,0.3183000000001357
259,8,0.5,0.125,-35.0,-1,1.0,0.2542000000000826
260,8,0.5,1.0,35.0,1,1.0,0.25420100000008006
261,8,0.5,0.125,35.0,1,1.0,0.2596000000000913
262,8,0.5,0.125,-35.0,-1,1.0,0.24459999999999127
263,8,0.5,0.125,-35.0,1,0.0,0.12620000000003984
264,8,0.5,0.25,35.0,1,1.0,0.22320000000001983
265,8,0.5,1.0,-35.0,-1,1.0,0.20670000000006894
266,8,0.5,1.0,35.0,1,1.0,0.19900000000006912
267,8,0.5,0.25,35.0,1,1.0,0.2296999999999798
268,8,0.5,1.0,35.0,1,1.0,0.24320000000000164
269,8,0.5,0.125,-35.0,-1,1.0,0.22280000000000655
270,8,0.5,0.0625,35.0,1,1.0,0.2820000000001528
271,8,0.5,1.0,35.0,1,1.0,0.1972000000000662
272,8,0.5,0.125,35.0,1,1.0,0.32749999999998636
273,8,0.5,0.0,-35.0,1,0.0,0.4032000000000835
274,8,0.5,0.0625,-35.0,-1,1.0,0.25920000000007803
275,8,0.5,0.125,35.0,1,1.0,0.27919999999994616
276,8,0.5,1.0,-35.0,-1,1.0,0.1992000000001326
277,8,0.5,1.0,35.0,1,1.0,0.22369999999989432
278,8,0.5,0.25,-35.0,-1,1.0,0.21600100000000566
279,8,0.5,0.0,35.0,-1,0.0,0.2653000000001384
280,8,0.6,0.0,35.0,1,1.0,0.2866999999999962
281,8,0.5,1.0,-35.0,-1,1.0,0.20510000000001583
282,8,0.5,0.25,35.0,1,1.0,0.24720000000002074
283,8,0.5,0.125,35.0,1,1.0,0.2664999999999509
284,8,0.5,0.25,-35.0,-1,1.0,0.21339999999997872
285,8,0.5,0.25,-35.0,-1,1.0,0.21270000000004075
286,8,0.5,1.0,-35.0,-1,1.0,0.19300000000009732
287,8,0.5,1.0,35.0,1,1.0,0.24049999999999727
288,8,0.5,0.125,35.0,1,1.0,0.26840100000003986
289,8,0.5,1.0,-35.0,-1,1.0,0.21069999999997435
290,8,0.5,0.25,35.0,1,1.0,0.23220000000003438
291,8,0.5,0.25,-35.0,-1,1.0,0.21090000000003783
292,8,0.5,0.125,35.0,1,1.0,0.241800000000012
293,8,0.5,0.25,-35.0,-1,1.0,0.21110000000010132
294,8,0.5,0.0,-35.0,1,0.0,0.27519999999992706
295,8,0.5,0.125,-35.0,-1,1.0,0.11110099999996237
296,8,0.5,0.0625,-35.0,-1,1.0,0.24530000000004293
297,8,0.5,0.25,35.0,1,1.0,0.2480000000000473
298,8,0.5,0.0625,-35.0,-1,1.0,0.3522000000000389
299,8,0.5,1.0,35.0,1,1.0,0.23820000000000618
300,8,0.5,0.0,35.0,-1,0.0,0.2821999999998752
301,8,0.5,0.25,-35.0,-1,1.0,0.20839999999998327
302,8,0.5,0.0625,35.0,1,1.0,0.3091999999999189
303,8,0.5,0.0625,-35.0,-1,1.0,0.15830000000005384
304,8,0.5,0.0625,-35.0,-1,1.0,0.2260999999998603
305,8,0.5,1.0,35.0,1,1.0,0.26519999999982247
306,8,0.5,0.0625,-35.0,-1,1.0,0.26620000000025357
307,8,0.5,0.25,-35.0,-1,1.0,0.23849999999993088
308,8,0.5,0.125,35.0,1,1.0,0.24660000000017135
309,8,0.5,0.25,-35.0,-1,1.0,0.21869999999989886
310,8,0.5,0.25,-35.0,-1,1.0,0.20620000000008076
311,8,0.5,0.0625,35.0,1,1.0,0.2520999999999276
312,8,0.5,0.25,-35.0,-1,1.0,0.2162999999998192
313,8,0.5,0.0625,-35.0,-1,1.0,0.25549999999998363
314,8,0.5,0.25,35.0,1,1.0,0.2398000000000593
315,8,0.5,0.125,-35.0,-1,1.0,0.2423999999998614
316,8,0.5,1.0,35.0,1,1.0,0.19329999999990832
317,8,0.5,1.0,35.0,1,1.0,0.18250000000011823
318,8,0.5,0.0,-35.0,-1,1.0,0.29719999999997526
319,8,0.5,1.0,35.0,1,1.0,0.25270000000000437
320,8,0.5,0.0625,-35.0,-1,1.0,0.4371000000001004
321,8,0.5,0.25,-35.0,-1,1.0,0.22280000000023392
322,8,0.5,0.25,35.0,1,1.0,0.24069999999983338
323,8,0.5,0.25,35.0,1,1.0,0.29960000000005493
324,8,0.5,0.0625,35.0,1,1.0,0.4903999999999087
325,8,0.5,0.125,35.0,1,1.0,0.65620100000001
326,8,0.5,0.125,35.0,1,1.0,0.22709999999983665
327,8,0.5,0.0625,-35.0,-1,1.0,0.2398000000000593
328,8,0.5,0.125,35.0,1,1.0,0.23060000000009495
329,8,0.5,0.125,-35.0,-1,1.0,0.2399000000000342
330,8,0.5,0.0625,-35.0,1,0.0,0.28110000000015134
331,8,0.5,0.0,35.0,1,1.0,0.3466000000000804
332,8,0.5,0.25,35.0,1,1.0,0.23109999999996944
333,8,0.5,1.0,35.0,1,1.0,0.23019999999996799
334,8,0.5,0.0625,-35.0,-1,1.0,2.731000000000222
335,8,0.5,0.25,35.0,1,1.0,0.22039999999992688
336,8,0.5,0.0625,-35.0,-1,1.0,0.33160000000020773
337,8,0.5,0.0,35.0,-1,0.0,0.26710000000002765
338,8,0.6,0.0,-35.0,-1,1.0,0.2813010000002123
339,8,0.5,1.0,35.0,1,1.0,0.2804999999998472
340,8,0.5,0.0625,-35.0,-1,1.0,0.42510100000026796
341,8,0.5,0.25,35.0,1,1.0,0.23070000000029722
342,8,0.5,0.25,-35.0,-1,1.0,0.20199999999999818
343,8,0.5,1.0,-35.0,-1,1.0,0.19420000000013715
344,8,0.5,0.0625,35.0,1,1.0,0.5984000000000833
345,8,0.5,0.0,35.0,1,1.0,0.32110000000011496
346,8,0.5,0.0,-35.0,1,0.0,0.28530000000000655
347,8,0.5,0.0,-35.0,-1,1.0,0.2744000000000142
348,8,0.5,1.0,-35.0,-1,1.0,0.22889999999983957
349,8,0.5,0.125,35.0,1,1.0,1.2411999999999352
350,8,0.5,0.0,-35.0,1,0.0,0.25890000000003965
351,8,0.5,0.125,-35.0,-1,1.0,0.2080999999998312
352,8,0.5,0.125,-35.0,-1,1.0,0.20210099999985687
353,8,0.5,0.125,-35.0,-1,1.0,0.2115000000001146
354,8,0.5,0.0,35.0,-1,0.0,0.28559999999993124
355,8,0.5,0.25,-35.0,-1,1.0,0.21829999999999927
356,8,0.5,0.125,-35.0,-1,1.0,0.23250000000007276
357,8,0.5,0.25,-35.0,-1,1.0,0.22849999999993997
358,8,0.5,0.25,-35.0,-1,1.0,0.19280000000003383
359,8,0.5,0.0625,35.0,-1,0.0,0.21520000000009532
360,8,0.5,0.0,-35.0,1,0.0,0.39610000000016043
361,8,0.5,0.25,35.0,1,1.0,0.2921000000001186
362,8,0.5,0.125,35.0,1,1.0,0.25640100000009625
363,8,0.5,1.0,-35.0,-1,1.0,0.20900099999994382
364,8,0.5,0.25,-35.0,-1,1.0,0.24710000000004584
365,8,0.5,0.25,35.0,1,1.0,0.28909999999996217
366,8,0.5,1.0,-35.0,-1,1.0,0.19000000000005457
367,8,0.5,0.25,35.0,1,1.0,0.2559999999998581
368,8,0.5,1.0,35.0,1,1.0,0.1800999999998112
369,8,0.5,0.0625,-35.0,1,0.0,0.3125
370,8,0.5,0.0625,35.0,1,1.0,0.30349999999998545
371,8,0.5,0.25,35.0,1,1.0,0.2561009999999442
372,8,0.5,0.0625,35.0,1,1.0,0.29700100000013663
373,8,0.5,0.125,35.0,1,1.0,0.276299999999992
374,8,0.5,1.0,-35.0,-1,1.0,0.20710000000008222
375,8,0.5,1.0,35.0,1,1.0,0.20630099999993945
376,8,0.5,0.25,35.0,1,1.0,0.20710000000008222
377,8,0.5,0.125,35.0,1,1.0,0.266399999999976
378,8,0.5,0.125,-35.0,1,0.0,0.12750000000005457
379,8,0.5,0.25,-35.0,-1,1.0,0.19650000000001455
380,8,0.5,0.0625,-35.0,-1,1.0,0.2643000000000484
381,8,0.5,0.25,35.0,1,1.0,0.22010000000000218
382,8,0.5,0.0625,-35.0,-1,1.0,0.23109999999996944
383,8,0.5,1.0,35.0,1,1.0,0.24349999999981264
384,8,0.5,1.0,35.0,1,1.0,0.20429999999987558
385,8,0.5,1.0,35.0,1,1.0,0.17029999999999745
386,8,0.5,1.0,-35.0,-1,1.0,0.2011000000002241
387,8,0.5,0.0625,-35.0,-1,1.0,0.95049999999992
388,8,0.5,1.0,-35.0,-1,1.0,0.191300000000183
389,8,0.5,0.0625,-35.0,-1,1.0,0.2673000000002048
390,8,0.5,1.0,35.0,1,1.0,1.0420000000001437
391,8,0.5,1.0,35.0,1,1.0,0.20060100000000602
392,8,0.5,0.0625,-35.0,-1,1.0,0.23500000000012733
393,8,0.5,0.125,-35.0,-1,1.0,0.23080000000004475
394,8,0.5,1.0,-35.0,-1,1.0,0.19830000000001746
395,8,0.5,0.25,-35.0,-1,1.0,0.2241999999998825
396,8,0.5,1.0,-35.0,-1,1.0,0.2119000000000142
397,8,0.5,0.25,35.0,1,1.0,0.264299999999821
398,8,0.5,0.25,35.0,1,1.0,0.22900000000004184
399,8,0.5,0.25,-35.0,-1,1.0,0.21780100000000857
400,8,0.5,0.125,35.0,1,1.0,0.25900000000001455
401,8,0.5,0.25,-35.0,-1,1.0,0.24129999999991014
402,8,0.5,0.0625,35.0,-1,0.0,0.14889999999991232
403,8,0.3,0.0625,-35.0,-1,1.0,0.2746999999999389
404,8,0.5,1.0,35.0,1,1.0,0.32549999999991996
405,8,0.5,1.0,35.0,1,1.0,0.2115000000001146
406,8,0.5,0.25,35.0,1,1.0,0.8360000000000127
407,8,0.5,0.0625,-35.0,-1,1.0,0.4050000000002001
408,8,0.5,0.0625,-35.0,-1,1.0,0.302599999999984
409,8,0.5,0.0,35.0,-1,0.0,0.27179999999975735
410,8,0.5,0.25,35.0,1,1.0,0.38609999999994216
411,8,0.5,0.0625,-35.0,1,0.0,0.2952999999997701
412,8,0.5,0.25,35.0,1,1.0,0.41610100000002603
413,8,0.5,1.0,-35.0,-1,1.0,0.24540000000001783
414,8,0.5,1.0,-35.0,-1,1.0,0.2662000000000262
415,8,0.5,1.0,-35.0,-1,1.0,0.22900000000004184
416,8,0.5,0.125,-35.0,-1,1.0,0.5031999999998789
417,8,0.5,1.0,35.0,1,1.0,0.22900000000004184
418,8,0.5,0.0625,35.0,-1,0.0,0.6800000000000637
419,8,0.5,0.125,-35.0,-1,1.0,0.2760000000000673
420,8,0.5,0.25,35.0,1,1.0,0.24680000000012114
421,8,0.5,0.0625,-35.0,-1,1.0,0.24920000000020082
422,8,0.5,0.125,35.0,1,1.0,0.24400000000014188
423,8,0.5,0.125,35.0,1,1.0,0.37940099999991617
424,8,0.5,0.125,35.0,1,1.0,0.2669999999998254
425,8,0.5,0.0,-35.0,1,0.0,0.5596000000000458
426,8,0.5,0.0,-35.0,-1,1.0,0.3404000000000451
427,8,0.5,0.25,-35.0,-1,1.0,0.22630000000003747
428,8,0.5,0.25,-35.0,-1,1.0,0.2339999999999236
429,8,0.5,0.25,-35.0,-1,1.0,0.22650000000021464
430,8,0.5,0.125,-35.0,-1,1.0,0.3939999999997781
431,8,0.5,0.25,35.0,1,1.0,0.25
432,8,0.5,1.0,35.0,1,1.0,0.24420099999997547
433,8,0.5,0.25,35.0,1,1.0,0.24330000000009022
434,8,0.5,1.0,-35.0,-1,1.0,0.2477000000001226
435,8,0.5,1.0,35.0,1,1.0,0.14689999999995962
436,8,0.5,0.0625,35.0,1,1.0,1.431201000000101
437,8,0.5,0.125,-35.0,-1,1.0,0.2639999999998963
438,8,0.5,0.0625,-35.0,-1,1.0,0.2580000000000382
439,8,0.5,1.0,35.0,1,1.0,0.25050000000010186
440,8,0.5,1.0,35.0,1,1.0,0.23469999999997526
441,8,0.5,1.0,35.0,1,1.0,0.2505999999998494
442,8,0.5,1.0,35.0,1,1.0,0.19830000000001746
443,8,0.5,0.0,-35.0,-1,1.0,0.28729999999995925
444,8,0.5,0.125,-35.0,-1,1.0,0.23490099999980885
445,8,0.5,0.125,-35.0,-1,1.0,0.25739999999996144
446,8,0.5,0.0,35.0,-1,0.0,0.2819999999999254
447,8,0.5,0.125,-35.0,-1,1.0,0.2679000000000542
448,8,0.5,0.0625,-35.0,-1,1.0,0.271900000000187
449,8,0.5,0.125,-35.0,-1,1.0,0.22120099999983722
450,8,0.5,0.0625,35.0,1,1.0,0.35210000000006403
451,8,0.5,0.25,35.0,1,1.0,0.4045000000000982
452,8,0.5,1.0,-35.0,-1,1.0,0.21209999999996398
453,8,0.5,0.25,-35.0,-1,1.0,0.2515000000000782
454,8,0.5,0.25,35.0,1,1.0,0.2159999999998945
455,8,0.5,0.125,35.0,1,1.0,0.2615009999999529
1,9,0.5,0.0625,35.0,1,1.0,0.7263000000000004
2,9,0.5,0.0,35.0,-1,0.0,21.323999999999998
3,9,0.5,0.125,35.0,1,1.0,0.5001999999999995
4,9,0.5,0.25,-35.0,-1,1.0,0.36059999999999803
5,9,0.5,0.25,-35.0,1,0.0,25.8187
6,9,0.8,0.25,-35.0,-1,1.0,4.312601000000001
7,9,0.5,1.0,-35.0,-1,1.0,4.615000000000009
8,9,0.5,0.125,-35.0,-1,1.0,16.744199999999992
9,9,0.5,0.125,-35.0,-1,1.0,0.519599999999997
10,9,0.5,0.25,-35.0,-1,1.0,0.2915999999999883
11,9,0.5,1.0,35.0,1,1.0,0.5128999999999877
12,9,0.5,0.0625,-35.0,-1,1.0,2.3789999999999907
13,9,0.5,0.0625,-35.0,-1,1.0,4.427800999999988
14,9,0.5,0.25,-35.0,-1,1.0,0.25630100000000766
15,9,0.5,0.125,35.0,-1,0.0,0.43720100000001594
16,9,0.5,0.125,35.0,1,1.0,1.151801000000006
17,9,0.5,0.125,-35.0,-1,1.0,0.34850100000002726
18,9,0.5,0.0625,-35.0,-1,1.0,2.742900999999989
19,9,0.5,0.25,-35.0,-1,1.0,0.3028009999999881
20,9,0.5,0.0625,-35.0,-1,1.0,0.4002009999999814
21,9,0.5,1.0,-35.0,-1,1.0,0.2524010000000203
22,9,0.5,1.0,35.0,1,1.0,0.8062009999999873
23,9,0.5,0.25,-35.0,-1,1.0,0.5139009999999757
24,9,0.5,0.125,35.0,1,1.0,1.144202000000007
25,9,0.5,0.25,35.0,1,1.0,0.4983020000000238
26,9,0.5,0.25,-35.0,-1,1.0,0.5584009999999751
27,9,0.5,0.25,-35.0,-1,1.0,0.30130099999999516
28,9,0.5,0.125,35.0,1,1.0,0.37820100000001844
29,9,0.5,1.0,-35.0,-1,1.0,0.24920099999999934
30,9,0.5,0.0625,35.0,-1,0.0,0.6132010000000037
31,9,0.5,0.25,-35.0,-1,1.0,0.36210099999999557
32,9,0.5,0.25,35.0,1,1.0,0.7755009999999913
33,9,0.5,0.0,35.0,-1,0.0,13.015101000000016
34,9,0.5,0.0625,-35.0,1,0.0,0.6581009999999878
35,9,0.5,0.0625,35.0,-1,0.0,0.43450099999998315
36,9,0.5,0.25,-35.0,-1,1.0,0.35000199999998927
37,9,0.5,0.125,35.0,-1,0.0,0.5582009999999968
38,9,0.5,0.0,-35.0,1,0.0,14.466201000000012
39,9,0.5,0.125,35.0,1,1.0,0.35770199999996066
40,9,0.5,1.0,-35.0,-1,1.0,0.2926010000000474
41,9,0.5,1.0,35.0,1,1.0,0.2741010000000301
42,9,0.5,0.125,35.0,-1,0.0,0.541101000000026
43,9,0.4,0.125,35.0,1,1.0,0.9384009999999989
44,9,0.5,1.0,35.0,1,1.0,0.3751010000000292
45,9,0.5,0.25,35.0,1,1.0,1.616501000000028
46,9,0.5,0.0,35.0,1,1.0,12.756101000000058
47,9,0.5,0.0625,-35.0,-1,1.0,5.9366019999999935
48,9,0.5,1.0,35.0,1,1.0,0.26120100000008506
49,9,0.5,0.25,-35.0,-1,1.0,0.3002010000000155
50,9,0.5,1.0,35.0,1,1.0,0.4223010000000613
51,9,0.5,0.0,-35.0,-1,1.0,11.534102000000019
52,9,0.5,0.0625,35.0,-1,0.0,0.3278010000000222
53,9,0.5,0.125,35.0,-1,0.0,0.5033010000000218
54,9,0.5,0.25,35.0,1,1.0,0.5881010000000515
55,9,0.5,1.0,35.0,1,1.0,0.25960100000003195
56,9,0.5,0.125,35.0,1,1.0,0.33810099999999466
57,9,0.5,1.0,-35.0,-1,1.0,0.2956010000000333
58,9,0.5,0.0,35.0,-1,0.0,6.585801000000004
59,9,0.4,0.0,-35.0,1,0.0,52.334001
60,9,0.5,1.0,35.0,1,1.0,0.2659009999999853
61,9,0.5,0.25,35.0,1,1.0,0.4281010000000265
62,9,0.5,0.0,35.0,1,1.0,0.3851010000000201
63,9,0.5,0.0,-35.0,1,0.0,3.518801000000053
64,9,0.5,0.0625,-35.0,-1,1.0,0.3612009999999941
65,9,0.5,0.0,35.0,-1,0.0,0.8313010000000531
66,9,0.6,0.0,-35.0,-1,1.0,12.506101000000001
67,9,0.5,1.0,35.0,1,1.0,0.37120100000004186
68,9,0.5,1.0,-35.0,-1,1.0,0.31210100000004104
69,9,0.5,1.0,35.0,1,1.0,0.24960200000003852
70,9,0.5,1.0,35.0,1,1.0,0.31990200000001323
71,9,0.5,0.25,35.0,1,1.0,0.8672010000000228
72,9,0.5,0.125,-35.0,-1,1.0,0.2630010000000311
73,9,0.5,0.25,-35.0,-1,1.0,0.2858009999999922
74,9,0.5,1.0,35.0,1,1.0,0.28000199999996767
75,9,0.5,0.0625,35.0,-1,0.0,0.15700099999997974
76,9,0.5,0.0625,35.0,1,1.0,0.41600100000005114
77,9,0.5,1.0,35.0,1,1.0,0.4762010000000032
78,9,0.5,0.25,35.0,1,1.0,0.34990099999993163
79,9,0.5,0.25,-35.0,-1,1.0,0.18040099999996073
80,9,0.5,0.25,-35.0,-1,1.0,0.3001010000000406
81,9,0.5,1.0,-35.0,-1,1.0,0.46060099999999693
82,9,0.5,1.0,35.0,1,1.0,0.25420100000008006
83,9,0.5,0.0625,35.0,1,1.0,0.4170010000000275
84,9,0.5,0.25,-35.0,-1,1.0,0.5003010000001495
85,9,0.5,0.0625,35.0,-1,0.0,2.872400999999968
86,9,0.5,0.25,35.0,1,1.0,0.3436010000001488
87,9,0.5,0.0625,35.0,-1,0.0,0.993701000000101
88,9,0.4,0.0625,-35.0,-1,1.0,0.4030010000000175
89,9,0.5,1.0,-35.0,-1,1.0,0.307501000000002
90,9,0.5,0.0,35.0,1,1.0,0.13920099999995728
91,9,0.5,0.125,35.0,-1,0.0,0.5960010000000011
92,9,0.5,0.125,35.0,1,1.0,0.5548009999999977
93,9,0.5,0.25,-35.0,-1,1.0,0.3790010000000166
94,9,0.5,1.0,-35.0,-1,1.0,0.36930099999995036
95,9,0.5,0.125,-35.0,-1,1.0,0.22700099999997292
96,9,0.5,0.125,35.0,-1,0.0,0.6601010000000542
97,9,0.2,0.125,35.0,1,1.0,0.4116020000001299
98,9,0.5,1.0,35.0,-1,0.0,0.30060100000002876
99,9,0.5,0.25,35.0,1,1.0,0.3888010000000577
100,9,0.5,0.25,-35.0,-1,1.0,0.31690099999991617
101,9,0.5,0.125,-35.0,-1,1.0,3.025301000000127
102,9,0.5,0.125,-35.0,-1,1.0,0.2609010000001035
103,9,0.5,0.25,35.0,1,1.0,0.7403020000000424
104,9,0.5,0.125,-35.0,-1,1.0,0.44210100000009334
105,9,0.5,0.125,-35.0,-1,1.0,0.598901000000069
106,9,0.5,0.0,-35.0,-1,1.0,32.63310100000001
107,9,0.5,1.0,35.0,1,1.0,0.37700100000006387
108,9,0.5,0.0625,-35.0,-1,1.0,1.7539010000000417
109,9,0.5,0.25,-35.0,-1,1.0,0.26040100000000166
110,9,0.5,0.0,-35.0,-1,1.0,3.713100999999938
111,9,0.5,0.0625,-35.0,-1,1.0,0.45990100000005896
112,9,0.5,1.0,35.0,1,1.0,0.2635010000000193
113,9,0.5,0.0625,35.0,-1,0.0,0.4443010000001095
114,9,0.5,0.0625,35.0,-1,0.0,8.142300999999975
115,9,0.2,0.0625,35.0,1,1.0,0.3911009999999351
116,9,0.5,1.0,35.0,1,1.0,0.2639010000000326
117,9,0.5,0.25,-35.0,-1,1.0,0.3338010000001077
118,9,0.5,0.25,-35.0,-1,1.0,0.27860100000009425
119,9,0.5,0.125,35.0,1,1.0,0.24890099999993254
120,9,0.5,0.25,-35.0,-1,1.0,0.3159010000000535
121,9,0.5,0.125,-35.0,-1,1.0,0.29720099999997274
122,9,0.5,0.25,-35.0,-1,1.0,0.3303009999999631
123,9,0.5,0.125,35.0,1,1.0,0.31490099999996346
124,9,0.5,0.125,-35.0,-1,1.0,0.6062010000000555
125,9,0.5,0.0,35.0,-1,0.0,0.6073010000000068
126,9,0.5,0.25,-35.0,-1,1.0,0.4612010000000737
127,9,0.5,0.25,35.0,1,1.0,0.49420100000008915
128,9,0.5,0.0625,35.0,-1,0.0,7.533001000000127
129,9,0.5,0.125,35.0,-1,0.0,0.7284010000000762
130,9,0.5,0.125,35.0,1,1.0,0.7272010000000364
131,9,0.5,0.25,-35.0,-1,1.0,0.25890100000003713
132,9,0.5,0.125,35.0,-1,0.0,0.3960010000000693
133,9,0.3,0.125,-35.0,-1,1.0,0.2723009999999704
134,9,0.5,1.0,-35.0,-1,1.0,0.2680009999999129
135,9,0.5,0.25,35.0,-1,0.0,0.5659010000000535
136,9,0.5,0.125,35.0,1,1.0,0.6318009999999958
137,9,0.5,0.125,35.0,1,1.0,0.7418010000000095
138,9,0.5,0.25,-35.0,-1,1.0,0.27080100000000584
139,9,0.5,0.0,-35.0,-1,1.0,2.0868010000000368
140,9,0.5,0.0625,35.0,1,1.0,14.059900999999968
141,9,0.5,0.0625,35.0,-1,0.0,0.3562009999999418
142,9,0.5,0.25,35.0,1,1.0,0.6555009999999584
143,9,0.5,0.0625,-35.0,-1,1.0,0.29730099999994763
144,9,0.5,1.0,-35.0,-1,1.0,0.2732009999999718
145,9,0.5,1.0,35.0,1,1.0,0.40780099999994945
146,9,0.5,1.0,35.0,1,1.0,0.43980099999998856
147,9,0.5,1.0,-35.0,-1,1.0,0.3178010000000313
148,9,0.5,0.125,-35.0,-1,1.0,0.3198010000000977
149,9,0.5,1.0,35.0,1,1.0,0.27070100000003094
150,9,0.5,0.0625,35.0,-1,0.0,0.6291010000001052
151,9,0.5,0.25,-35.0,-1,1.0,0.574901000000068
152,9,0.5,1.0,-35.0,-1,1.0,0.32680200000004334
153,9,0.5,0.25,-35.0,-1,1.0,0.30100199999992583
154,9,0.5,1.0,35.0,1,1.0,0.544601000000057
155,9,0.5,0.25,-35.0,-1,1.0,0.28480100000001585
156,9,0.5,0.0625,-35.0,-1,1.0,0.40180100000009134
157,9,0.5,0.125,35.0,1,1.0,0.583101000000056
158,9,0.5,0.0,-35.0,-1,1.0,0.4948020000000497
159,9,0.5,0.125,-35.0,-1,1.0,0.25620200000003024
160,9,0.5,0.25,-35.0,-1,1.0,0.28080099999999675
161,9,0.5,0.25,35.0,1,1.0,0.4744020000000546
162,9,0.5,0.125,-35.0,-1,1.0,0.4324010000000271
163,9,0.5,0.0625,35.0,-1,0.0,0.37700100000006387
164,9,0.3,0.0625,35.0,1,1.0,12.61160099999995
165,9,0.5,1.0,35.0,1,1.0,0.34690200000000004
166,9,0.5,1.0,-35.0,-1,1.0,0.34680100000002767
167,9,0.5,0.0625,35.0,-1,0.0,0.6067010000000437
168,9,0.5,0.25,-35.0,-1,1.0,0.32870100000002367
169,9,0.5,1.0,-35.0,-1,1.0,0.3686010000000124
170,9,0.5,0.0,35.0,-1,0.0,1.2128010000000131
171,9,0.5,0.25,35.0,1,1.0,4.519701000000055
172,9,0.5,0.0625,-35.0,-1,1.0,1.0526010000000952
173,9,0.5,0.0625,35.0,1,1.0,0.7998010000001159
174,9,0.5,0.25,35.0,1,1.0,0.3960010000000693
175,9,0.5,0.125,-35.0,-1,1.0,0.40700200000014775
176,9,0.5,0.0,35.0,-1,0.0,0.7247019999999793
177,9,0.5,0.125,35.0,1,1.0,0.7434020000000601
178,9,0.5,1.0,-35.0,-1,1.0,0.24790100000006987
179,9,0.5,1.0,35.0,1,1.0,0.2867020000001048
180,9,0.5,0.25,35.0,1,1.0,0.26880099999993945
181,9,0.5,1.0,35.0,1,1.0,0.3477010000000291
182,9,0.5,0.25,35.0,1,1.0,0.32670100000007096
183,9,0.5,0.25,-35.0,-1,1.0,0.46590100000003076
184,9,0.5,0.125,-35.0,-1,1.0,0.47820100000001275
185,9,0.5,1.0,-35.0,-1,1.0,0.3119009999999207
186,9,0.5,0.0,-35.0,-1,1.0,6.276201000000015
187,9,0.5,0.0625,-35.0,-1,1.0,0.6382009999999809
188,9,0.5,0.0625,35.0,1,1.0,0.6597010000001546
189,9,0.5,0.0625,35.0,1,1.0,6.237400999999977
190,9,0.5,1.0,35.0,1,1.0,0.31480099999998856
191,9,0.5,1.0,35.0,1,1.0,0.36440200000015466
192,9,0.5,0.125,35.0,1,1.0,0.24270100000001094
193,9,0.5,0.25,35.0,1,1.0,0.4044010000000071
194,9,0.5,0.125,35.0,1,1.0,0.348500999999942
195,9,0.5,1.0,-35.0,-1,1.0,0.271300999999994
196,9,0.5,0.125,-35.0,-1,1.0,0.5719009999997979
197,9,0.5,0.25,-35.0,-1,1.0,0.49470100000007733
198,9,0.5,0.0,35.0,-1,0.0,0.5488020000000233
199,9,0.5,0.125,-35.0,-1,1.0,0.48170099999993
200,9,0.5,0.25,35.0,1,1.0,0.2958009999999831
201,9,0.5,0.25,-35.0,-1,1.0,0.3082010000000537
202,9,0.5,1.0,35.0,1,1.0,0.3960019999999531
203,9,0.5,0.0,35.0,1,1.0,0.3050010000001748
204,9,0.5,0.0625,-35.0,-1,1.0,0.5291010000000824
205,9,0.5,0.25,35.0,1,1.0,0.2918009999998503
206,9,0.5,0.125,35.0,-1,0.0,0.46270099999992453
207,9,0.5,0.0625,35.0,-1,0.0,0.9120019999998021
208,9,0.5,0.25,35.0,1,1.0,0.4328009999999267
209,9,0.5,0.0,35.0,1,1.0,0.43570100000010825
210,9,0.5,0.125,-35.0,-1,1.0,0.3065019999996821
211,9,0.5,0.25,-35.0,-1,1.0,0.2722009999997681
212,9,0.5,0.125,35.0,1,1.0,0.539801000000125
213,9,0.5,1.0,-35.0,-1,1.0,0.22900099999992563
214,9,0.5,0.125,-35.0,-1,1.0,0.3031020000000808
215,9,0.5,0.125,35.0,1,1.0,0.7091019999998025
216,9,0.5,0.125,-35.0,-1,1.0,0.23990200000002915
217,9,0.5,0.0625,35.0,1,1.0,8.302700999999843
218,9,0.5,1.0,-35.0,-1,1.0,0.21680099999980484
219,9,0.5,0.0625,35.0,1,1.0,0.36960199999975885
220,9,0.5,1.0,-35.0,-1,1.0,0.20760100000006787
221,9,0.5,0.25,-35.0,-1,1.0,0.26290099999982885
222,9,0.5,0.125,35.0,1,1.0,0.40720199999987017
223,9,0.5,0.0625,35.0,1,1.0,0.3332020000000284
224,9,0.5,0.125,35.0,1,1.0,0.437300999999934
225,9,0.5,0.0625,35.0,1,1.0,0.3767009999999118
226,9,0.5,0.0625,35.0,1,1.0,0.5577009999997244
227,9,0.5,0.125,35.0,1,1.0,0.360100999999986
228,9,0.5,0.125,35.0,1,1.0,0.5509010000000671
229,9,0.5,0.0,-35.0,-1,1.0,4.090001999999913
230,9,0.5,0.0,35.0,1,1.0,5.401100999999926
231,9,0.5,0.125,-35.0,-1,1.0,0.30360099999984413
232,9,0.5,0.0625,-35.0,-1,1.0,1.0645009999998365
233,9,0.5,1.0,35.0,1,1.0,0.44050099999981285
234,9,0.5,0.25,35.0,1,1.0,0.2814009999999598
235,9,0.5,0.125,35.0,1,1.0,0.43390100000010534
236,9,0.5,0.0625,-35.0,-1,1.0,0.5919009999997797
237,9,0.5,0.0625,35.0,1,1.0,1.040700999999899
238,9,0.5,0.0,-35.0,-1,1.0,0.618300999999974
239,9,0.5,1.0,35.0,1,1.0,0.4775019999997312
240,9,0.5,0.0625,35.0,1,1.0,0.5851009999998951
241,9,0.5,1.0,-35.0,-1,1.0,0.33770099999992453
242,9,0.5,0.0,-35.0,1,0.0,9.391800999999987
243,9,0.5,0.25,-35.0,-1,1.0,0.32130099999994854
244,9,0.5,0.0,35.0,-1,0.0,0.5955019999998967
245,9,0.5,0.125,35.0,1,1.0,0.4148020000000088
246,9,0.5,0.0625,35.0,1,1.0,3.1796019999997043
247,9,0.5,0.125,35.0,1,1.0,0.42850099999986924
248,9,0.5,0.0625,-35.0,-1,1.0,0.7956020000001445
249,9,0.5,0.125,35.0,1,1.0,0.7651009999999587
250,9,0.5,0.0625,-35.0,-1,1.0,0.34270199999991746
251,9,0.5,0.125,35.0,1,1.0,0.2652019999998174
252,9,0.5,1.0,35.0,1,1.0,0.22660199999995712
253,9,0.5,0.25,-35.0,-1,1.0,0.41860099999985323
254,9,0.5,1.0,-35.0,-1,1.0,0.5428019999999378
255,9,0.5,0.125,-35.0,-1,1.0,0.5088009999999485
256,9,0.5,0.125,-35.0,-1,1.0,0.4535009999999602
257,9,0.5,0.25,35.0,1,1.0,0.34890100000006896
258,9,0.5,0.0,35.0,-1,0.0,0.6968010000000504
259,9,0.5,0.25,35.0,1,1.0,0.35570099999995364
260,9,0.5,1.0,-35.0,-1,1.0,0.2831019999998716
261,9,0.5,0.25,35.0,1,1.0,0.36950100000012753
262,9,0.5,0.25,-35.0,-1,1.0,0.32710100000008424
263,9,0.5,0.0625,35.0,1,1.0,0.31950099999994563
264,9,0.5,0.0625,35.0,1,1.0,0.6335010000000239
265,9,0.5,0.0,35.0,-1,0.0,5.732800999999881
266,9,0.5,0.25,35.0,1,1.0,0.44360100000017155
267,9,0.5,0.0625,-35.0,-1,1.0,0.3265009999997801
268,9,0.5,0.125,35.0,1,1.0,0.2773019999997359
269,9,0.5,0.0625,35.0,1,1.0,0.5297009999999318
270,9,0.5,1.0,35.0,1,1.0,0.24070099999994454
271,9,0.5,0.125,-35.0,-1,1.0,0.3166009999999915
272,9,0.5,0.0,35.0,-1,0.0,0.5875009999999747
273,9,0.5,0.0625,-35.0,-1,1.0,0.4136009999997441
274,9,0.5,0.25,35.0,1,1.0,0.3044009999998707
275,9,0.5,0.25,35.0,1,1.0,0.46690099999977974
276,9,0.5,0.125,35.0,1,1.0,0.8876009999999042
277,9,0.5,0.125,-35.0,-1,1.0,0.6272009999997863
278,9,0.5,0.25,35.0,1,1.0,0.28770099999997
279,9,0.5,0.0625,-35.0,-1,1.0,0.8538009999999758
280,9,0.5,0.125,-35.0,-1,1.0,0.4515010000000075
281,9,0.5,0.125,35.0,1,1.0,0.3708010000000286
282,9,0.5,0.125,35.0,1,1.0,0.3916009999998096
283,9,0.5,0.125,35.0,1,1.0,0.48080099999992854
284,9,0.5,1.0,35.0,1,1.0,0.2841009999999642
285,9,0.5,0.25,-35.0,-1,1.0,0.5089020000000346
286,9,0.5,0.125,-35.0,-1,1.0,0.3545010000000275
287,9,0.5,0.125,-35.0,-1,1.0,0.8925019999999222
288,9,0.5,0.125,35.0,1,1.0,0.4778009999997721
289,9,0.5,0.125,-35.0,-1,1.0,0.5588009999996757
290,9,0.5,0.0625,-35.0,-1,1.0,4.307900999999902
291,9,0.5,0.0625,35.0,1,1.0,0.5895009999999274
292,9,0.5,0.25,-35.0,-1,1.0,0.4815009999997528
293,9,0.5,1.0,35.0,1,1.0,0.3022009999999682
294,9,0.5,0.0,-35.0,1,0.0,0.9148009999996702
295,9,0.4,0.0,-35.0,-1,1.0,10.606500999999753
296,9,0.5,1.0,35.0,1,1.0,0.32190099999979793
297,9,0.5,0.0625,-35.0,-1,1.0,0.27270099999986996
298,9,0.5,0.25,35.0,1,1.0,0.27850100000000566
299,9,0.5,0.25,35.0,1,1.0,1.3294009999997343
300,9,0.5,1.0,35.0,1,1.0,0.3055010000000493
301,9,0.5,0.0625,35.0,1,1.0,0.636400999999978
302,9,0.5,1.0,-35.0,-1,1.0,0.38570099999992635
303,9,0.5,0.25,35.0,1,1.0,0.28310099999976046
304,9,0.5,0.25,35.0,1,1.0,6.549200999999812
305,9,0.5,1.0,35.0,1,1.0,0.2734019999998054
306,9,0.5,0.125,35.0,1,1.0,0.4626019999998334
307,9,0.5,1.0,35.0,1,1.0,0.2934020000000146
308,9,0.5,1.0,35.0,1,1.0,0.4560009999997874
309,9,0.5,0.0625,35.0,1,1.0,0.42360200000007353
310,9,0.5,0.0,-35.0,1,0.0,0.3528009999997721
311,9,0.5,0.0,35.0,-1,0.0,3.463700999999901
312,9,0.5,0.25,-35.0,-1,1.0,0.3264009999998052
313,9,0.5,1.0,35.0,1,1.0,0.8804010000001199
314,9,0.5,1.0,-35.0,-1,1.0,0.3099009999998543
315,9,0.5,1.0,35.0,1,1.0,0.2841009999999642
316,9,0.5,0.125,35.0,1,1.0,0.36340099999983977
317,9,0.5,0.0,-35.0,1,0.0,0.7242009999997663
318,9,0.5,0.0625,35.0,1,1.0,0.4135009999997692
319,9,0.5,0.0625,-35.0,-1,1.0,7.031401999999844
320,9,0.5,0.0,35.0,1,1.0,0.5870009999998729
321,9,0.5,1.0,35.0,1,1.0,0.5544009999998707
322,9,0.5,0.0,35.0,1,1.0,0.4172009999997499
323,9,0.5,1.0,35.0,1,1.0,0.4547010000001137
324,9,0.5,1.0,35.0,1,1.0,0.2574009999998452
325,9,0.5,0.125,35.0,1,1.0,0.2815009999999347
326,9,0.5,1.0,35.0,1,1.0,0.26060100000017883
327,9,0.5,0.125,-35.0,-1,1.0,0.46820099999990816
328,9,0.5,0.0625,35.0,-1,0.0,0.30090100000006714
329,9,0.7,0.0625,-35.0,-1,1.0,0.38150099999984377
330,9,0.5,1.0,-35.0,-1,1.0,0.3144009999998616
331,9,0.5,1.0,35.0,1,1.0,0.30550099999982194
332,9,0.5,1.0,-35.0,-1,1.0,0.2978009999999358
333,9,0.5,1.0,35.0,1,1.0,0.47870100000000093
334,9,0.5,0.125,-35.0,-1,1.0,0.6947009999998954
335,9,0.5,0.125,35.0,1,1.0,0.2754010000001017
336,9,0.5,0.25,35.0,1,1.0,0.2681009999998878
337,9,0.5,0.0,35.0,-1,0.0,4.675400999999965
338,9,0.5,0.125,35.0,1,1.0,0.7217020000000502
339,9,0.5,0.0625,35.0,1,1.0,0.5791009999998096
340,9,0.5,0.125,-35.0,-1,1.0,0.3416010000000824
341,9,0.5,0.25,35.0,1,1.0,0.39240099999983613
342,9,0.5,1.0,-35.0,-1,1.0,0.5518019999999524
343,9,0.5,0.125,-35.0,-1,1.0,4.036200999999892
344,9,0.5,0.125,35.0,1,1.0,0.3286009999999351
345,9,0.5,0.0625,35.0,1,1.0,0.3934009999998125
346,9,0.5,0.0,35.0,1,1.0,0.29230200000006334
347,9,0.5,0.125,35.0,1,1.0,0.5434020000000146
348,9,0.5,0.0625,-35.0,1,0.0,0.8624010000000908
349,9,0.5,0.125,-35.0,-1,1.0,0.3403009999997266
350,9,0.5,0.0625,-35.0,-1,1.0,6.875700999999708
351,9,0.5,0.25,-35.0,-1,1.0,0.4402010000001155
352,9,0.5,0.0,35.0,1,1.0,0.7760009999999511
353,9,0.5,0.0,35.0,-1,0.0,0.986801000000014
354,9,0.5,0.125,-35.0,1,0.0,1.1963009999999485
355,9,0.5,0.0,-35.0,-1,1.0,19.437301999999818
356,9,0.5,0.125,-35.0,-1,1.0,0.5601010000000315
357,9,0.5,0.25,35.0,1,1.0,0.4276009999998678
358,9,0.5,0.125,35.0,1,1.0,0.45690099999978884
359,9,0.5,0.0,35.0,1,1.0,0.3643019999999524
360,9,0.5,0.0,35.0,1,1.0,0.6103009999999358
361,9,0.5,1.0,35.0,1,1.0,0.4476009999998496
362,9,0.5,0.125,35.0,1,1.0,6.6973009999996975
363,9,0.5,0.125,-35.0,-1,1.0,0.335301999999956
364,9,0.5,0.0,35.0,1,1.0,0.34740199999987453
365,9,0.5,0.25,-35.0,-1,1.0,0.35130099999992126
366,9,0.5,0.125,35.0,1,1.0,0.3341009999999187
367,9,0.5,0.125,-35.0,-1,1.0,0.42150100000003476
368,9,0.5,0.0625,-35.0,-1,1.0,0.761100999999826
369,9,0.5,0.25,35.0,1,1.0,0.2684009999998125
370,9,0.5,1.0,35.0,1,1.0,0.28770099999997
371,9,0.5,0.125,35.0,1,1.0,0.32530099999985396
372,9,0.5,0.125,35.0,1,1.0,0.30450100000007296
373,9,0.5,1.0,-35.0,-1,1.0,0.5854009999998198
374,9,0.5,0.25,-35.0,-1,1.0,0.4845009999996819
375,9,0.5,1.0,-35.0,-1,1.0,0.31530099999986305
376,9,0.5,0.25,35.0,1,1.0,0.26470099999983177
377,9,0.5,0.0625,-35.0,1,0.0,0.7693019999999251
378,9,0.5,0.125,-35.0,-1,1.0,0.4616009999997459
379,9,0.5,0.0625,35.0,1,1.0,1.8690009999997983
380,9,0.5,1.0,35.0,1,1.0,0.33500200000003133
381,9,0.5,0.0625,35.0,1,1.0,0.4328010000001541
382,9,0.5,0.0625,-35.0,-1,1.0,0.6684009999999034
383,9,0.5,0.125,-35.0,1,0.0,0.5995009999999183
384,9,0.5,0.25,-35.0,-1,1.0,0.5253019999997832
385,9,0.5,0.0,-35.0,1,0.0,0.679501000000073
386,9,0.7,0.0,-35.0,-1,1.0,29.63230099999987
387,9,0.5,1.0,-35.0,-1,1.0,0.31330199999979413
388,9,0.5,0.25,35.0,1,1.0,0.5827009999998154
389,9,0.5,1.0,-35.0,-1,1.0,0.5335010000001148
390,9,0.5,1.0,-35.0,-1,1.0,0.2962009999998827
391,9,0.5,1.0,35.0,1,1.0,0.33370099999979175
392,9,0.5,0.125,35.0,1,1.0,6.143100999999888
393,9,0.5,0.25,35.0,1,1.0,11.944201000000021
394,9,0.5,0.0,-35.0,1,0.0,21.226701999999932
395,9,0.5,0.125,35.0,1,1.0,0.6983020000000124
396,9,0.5,0.25,35.0,1,1.0,0.39730199999985416
397,9,0.5,0.0,-35.0,1,0.0,51.56160199999999
398,9,0.5,0.25,35.0,1,1.0,0.28850200000010773
399,9,0.5,0.0625,-35.0,-1,1.0,0.3992009999999482
400,9,0.5,0.125,-35.0,-1,1.0,2.0285010000000057
401,9,0.5,0.125,-35.0,-1,1.0,0.3826010000000224
402,9,0.5,1.0,35.0,1,1.0,0.46550100000013117
403,9,0.5,1.0,-35.0,-1,1.0,0.2962009999998827
404,9,0.5,0.125,35.0,1,1.0,0.27210199999990436
405,9,0.5,0.0,35.0,1,1.0,0.5062009999999191
406,9,0.5,1.0,-35.0,-1,1.0,0.32560099999977865
407,9,0.5,0.25,35.0,1,1.0,0.40320199999996476
408,9,0.5,0.25,35.0,1,1.0,0.4290009999999711
409,9,0.5,0.125,35.0,1,1.0,0.4566010000000915
410,9,0.5,0.0,-35.0,1,0.0,8.272501000000148
411,9,0.5,0.0625,-35.0,-1,1.0,0.38720100000000457
412,9,0.5,0.25,-35.0,-1,1.0,0.3162010000000919
413,9,0.5,1.0,35.0,1,1.0,0.2702009999998154
414,9,0.5,1.0,35.0,1,1.0,0.2863009999996393
415,9,0.5,1.0,-35.0,-1,1.0,0.7272019999998065
416,9,0.5,0.125,-35.0,-1,1.0,0.3297019999999975
417,9,0.5,0.0625,35.0,1,1.0,0.3274020000001201
418,9,0.5,0.0625,-35.0,-1,1.0,0.30310099999996964
419,9,0.5,0.125,-35.0,-1,1.0,0.3042009999999209
420,9,0.5,0.25,35.0,1,1.0,0.36660100000017337
421,9,0.5,1.0,-35.0,-1,1.0,0.4274019999998018
422,9,0.5,1.0,35.0,1,1.0,0.3002010000000155
423,9,0.5,0.0,-35.0,-1,1.0,0.481101999999737
424,9,0.5,0.0625,35.0,1,1.0,0.306800999999723
425,9,0.5,0.125,35.0,1,1.0,4.617701000000125
426,9,0.5,0.125,35.0,1,1.0,0.5037010000005466
427,9,0.5,0.125,35.0,1,1.0,0.24120100000027378
428,9,0.5,0.25,35.0,1,1.0,0.7239010000002963
429,9,0.5,0.125,-35.0,-1,1.0,0.7512010000000373
430,9,0.5,0.0,35.0,1,1.0,0.5041009999999915
431,9,0.5,1.0,-35.0,-1,1.0,3.3783010000001923
432,9,0.5,0.125,35.0,1,1.0,0.2743010000003778
433,9,0.5,0.125,35.0,1,1.0,0.3319019999999
434,9,0.5,0.125,35.0,1,1.0,0.7613010000004579
435,9,0.5,0.125,35.0,1,1.0,0.8153010000000904
436,9,0.5,0.0,-35.0,1,0.0,0.468101000000388
437,9,0.5,0.0625,35.0,1,1.0,8.7591010000001
438,9,0.5,0.25,-35.0,-1,1.0,0.3216010000001006
439,9,0.5,0.0,35.0,1,1.0,0.413101000000097
440,9,0.5,0.125,-35.0,-1,1.0,0.3518020000001343
441,9,0.5,0.125,35.0,1,1.0,0.2892010000000482
442,9,0.5,1.0,35.0,1,1.0,0.34520199999997203
443,9,0.5,1.0,-35.0,-1,1.0,0.3531010000006063
444,9,0.5,0.25,35.0,1,1.0,1.055301000000327
445,9,0.5,0.125,35.0,1,1.0,10.942900999999893
446,9,0.5,0.0625,-35.0,1,0.0,0.5191009999998641
447,9,0.5,0.125,35.0,1,1.0,0.44310100000029706
448,9,0.5,0.25,-35.0,-1,1.0,0.34900100000004386
449,9,0.5,1.0,35.0,1,1.0,0.36000100000046587
450,9,0.5,0.25,-35.0,-1,1.0,0.5325020000000222
451,9,0.5,0.0625,-35.0,-1,1.0,0.3270010000005641
452,9,0.5,1.0,-35.0,-1,1.0,0.28940100000045277
453,9,0.5,0.125,35.0,1,1.0,0.2937010000000555
454,9,0.5,0.25,35.0,1,1.0,0.32290100000000166
455,9,0.5,0.125,-35.0,-1,1.0,0.4341010000002825
456,9,0.5,1.0,35.0,1,1.0,0.3631009999999151
457,9,0.5,0.0625,35.0,1,1.0,0.6472010000002228
458,9,0.5,0.0,-35.0,1,0.0,0.663101000000097
459,9,0.5,0.125,-35.0,-1,1.0,0.5071009999996932
460,9,0.5,0.0,35.0,1,1.0,2.939901000000191
461,9,0.5,0.25,35.0,1,1.0,0.3075010000002294
462,9,0.5,1.0,35.0,1,1.0,0.3700020000001132
463,9,0.5,0.25,-35.0,-1,1.0,0.4674009999998816
464,9,0.5,0.125,35.0,1,1.0,0.7802010000000337
465,9,0.5,0.25,35.0,1,1.0,0.29800099999965823
466,9,0.5,0.0625,-35.0,-1,1.0,0.40350100000023303
467,9,0.5,0.0625,35.0,-1,0.0,0.44790100000000166
468,9,0.5,0.125,35.0,1,1.0,0.3739010000003873
469,9,0.5,0.25,-35.0,-1,1.0,0.4880009999997128
470,9,0.5,0.25,35.0,1,1.0,0.6807010000002265
471,9,0.5,0.25,-35.0,-1,1.0,0.48170100000015736
472,9,0.5,0.25,35.0,1,1.0,0.3242009999999027
473,9,0.5,0.0625,35.0,1,1.0,0.3883019999998396
474,9,0.5,0.125,35.0,1,1.0,0.38090099999953964
