trial_num,session_num,stim_probability_left,contrast,position,response_choice,trial_correct,reaction_time
1,1,0.5,1.0,-35.0,-1,1.0,0.2877999999999996
2,1,0.5,0.0,35.0,1,1.0,0.30470100000000144
3,1,0.5,0.0625,-35.0,-1,1.0,0.2555999999999994
4,1,0.5,1.0,35.0,1,1.0,0.10379999999999967
5,1,0.5,0.0625,35.0,1,1.0,1.4618000000000002
6,1,0.5,0.25,-35.0,-1,1.0,0.24939999999999785
7,1,0.5,0.25,35.0,1,1.0,0.5197010000000013
8,1,0.5,0.125,35.0,1,1.0,0.23900099999999824
9,1,0.5,0.0,-35.0,1,0.0,0.22940000000000182
10,1,0.5,0.125,-35.0,-1,1.0,0.2862000000000009
11,1,0.5,0.0,-35.0,1,0.0,0.22049999999999415
12,1,0.5,1.0,-35.0,-1,1.0,0.24940099999999887
13,1,0.5,0.0625,35.0,1,1.0,0.4174999999999969
14,1,0.5,0.125,35.0,1,1.0,0.2224999999999966
15,1,0.5,0.125,35.0,1,1.0,0.5249000000000024
16,1,0.5,1.0,-35.0,-1,1.0,0.29690000000000083
17,1,0.5,0.125,-35.0,-1,1.0,0.3877000000000024
18,1,0.5,0.125,35.0,1,1.0,0.26849999999998886
19,1,0.5,1.0,35.0,1,1.0,0.20210099999998477
20,1,0.5,0.0625,-35.0,-1,1.0,0.5476010000000002
21,1,0.5,0.125,35.0,1,1.0,0.22809999999999775
22,1,0.5,0.125,-35.0,1,0.0,0.9425999999999988
23,1,0.5,1.0,-35.0,-1,1.0,0.21929999999998984
24,1,0.5,1.0,-35.0,-1,1.0,0.2008999999999901
25,1,0.5,0.25,35.0,1,1.0,0.21049999999999613
26,1,0.5,0.0,35.0,-1,0.0,0.1953009999999864
27,1,0.5,1.0,-35.0,-1,1.0,0.23460000000000036
28,1,0.5,0.0625,-35.0,-1,1.0,0.2377999999999929
29,1,0.5,0.0,35.0,1,1.0,0.34429999999998984
30,1,0.5,0.125,35.0,1,1.0,0.24790000000000134
31,1,0.5,1.0,35.0,1,1.0,0.24739999999998474
32,1,0.5,0.0,-35.0,1,0.0,0.21389999999999532
33,1,0.5,0.0625,-35.0,1,0.0,0.3002999999999929
34,1,0.5,0.125,-35.0,-1,1.0,0.23409999999999798
35,1,0.5,0.25,35.0,1,1.0,0.20009999999999195
36,1,0.5,0.0,-35.0,1,0.0,0.2827000000000055
37,1,0.5,0.25,35.0,1,1.0,0.21829999999999927
38,1,0.5,1.0,35.0,1,1.0,0.16790100000000052
39,1,0.5,0.125,-35.0,-1,1.0,0.27199999999999136
40,1,0.5,0.0625,-35.0,-1,1.0,0.26559999999997785
41,1,0.5,0.125,-35.0,-1,1.0,0.22299999999998477
42,1,0.5,0.25,35.0,1,1.0,0.22010000000000218
43,1,0.5,0.125,35.0,1,1.0,0.21409999999997353
44,1,0.5,0.25,-35.0,-1,1.0,0.23020000000002483
45,1,0.5,0.0,35.0,1,1.0,0.26269999999999527
46,1,0.5,1.0,-35.0,-1,1.0,0.19029999999997926
47,1,0.5,0.25,35.0,1,1.0,0.24439999999998463
48,1,0.5,0.25,35.0,1,1.0,0.23239999999998417
49,1,0.5,0.25,-35.0,-1,1.0,0.23609999999999332
50,1,0.5,1.0,35.0,1,1.0,0.18719999999999004
51,1,0.5,1.0,-35.0,-1,1.0,0.18280099999998356
52,1,0.5,0.0,35.0,1,1.0,0.2507009999999923
53,1,0.5,0.0,35.0,-1,0.0,0.214999999999975
54,1,0.5,0.125,35.0,1,1.0,0.22389999999998622
55,1,0.5,0.0,-35.0,1,0.0,0.2699999999999818
56,1,0.5,0.0,-35.0,1,0.0,0.2691000000000088
57,1,0.5,0.0,-35.0,1,0.0,0.26789999999999736
58,1,0.5,0.0,35.0,1,1.0,0.2699000000000069
59,1,0.5,0.0625,35.0,1,1.0,0.26189999999999714
60,1,0.5,0.25,35.0,1,1.0,0.2295999999999765
61,1,0.5,0.0625,35.0,1,1.0,1.3448999999999955
62,1,0.5,0.25,-35.0,-1,1.0,0.23889999999997258
63,1,0.5,0.0625,-35.0,1,0.0,0.2798999999999978
64,1,0.5,0.0625,35.0,1,1.0,0.2579009999999755
65,1,0.5,0.25,-35.0,-1,1.0,0.24510099999997692
66,1,0.5,0.0625,35.0,1,1.0,0.22690000000000055
67,1,0.5,0.25,35.0,1,1.0,0.23380000000000223
68,1,0.5,0.0625,-35.0,-1,1.0,0.22320000000001983
69,1,0.5,1.0,-35.0,-1,1.0,0.1788999999999703
70,1,0.5,0.0,35.0,1,1.0,0.3766999999999996
71,1,0.5,1.0,-35.0,1,0.0,0.16509999999999536
72,1,0.5,0.125,-35.0,-1,1.0,0.26089999999999236
73,1,0.5,1.0,35.0,1,1.0,0.19709999999997763
74,1,0.5,0.0,-35.0,1,0.0,0.43330000000008795
75,1,0.5,0.125,-35.0,-1,1.0,0.5996000000000663
76,1,0.5,0.0625,-35.0,-1,1.0,0.31560000000001764
77,1,0.5,0.0625,35.0,-1,0.0,0.07990000000000919
78,1,0.5,0.0625,-35.0,1,0.0,0.5259000000000356
79,1,0.5,1.0,-35.0,-1,1.0,0.2159000000000333
80,1,0.5,1.0,35.0,1,1.0,0.24090099999995118
81,1,0.5,0.0625,35.0,1,1.0,0.2469000000000392
82,1,0.5,0.0,35.0,1,1.0,0.26670000000001437
83,1,0.5,0.25,-35.0,-1,1.0,0.2166000000000281
84,1,0.5,0.0,35.0,1,1.0,0.259900000000016
85,1,0.5,0.0625,35.0,1,1.0,0.2458000000000311
86,1,0.5,0.25,35.0,1,1.0,0.22460000000000946
87,1,0.5,1.0,-35.0,-1,1.0,0.26190000000002556
88,1,0.5,0.125,35.0,1,1.0,0.22710000000000719
89,1,0.5,0.125,-35.0,-1,1.0,0.2203010000000063
90,1,0.5,0.125,-35.0,-1,1.0,0.20900000000006003
91,1,0.2,1.0,35.0,1,1.0,0.20010000000002037
92,1,0.2,0.0625,35.0,1,1.0,0.5819010000000162
93,1,0.2,1.0,35.0,1,1.0,0.208500000000015
94,1,0.2,0.0625,35.0,1,1.0,0.30510000000003856
95,1,0.2,1.0,35.0,1,1.0,0.19220000000001392
96,1,0.2,0.25,35.0,1,1.0,0.21750000000002956
97,1,0.2,1.0,35.0,1,1.0,0.18290000000001783
98,1,0.2,0.0,35.0,1,1.0,0.27619999999996026
99,1,0.2,1.0,-35.0,-1,1.0,0.1753999999999678
100,1,0.2,0.0,35.0,1,1.0,0.2839999999999918
101,1,0.2,0.0,35.0,-1,0.0,2.3753010000000927
102,1,0.2,0.125,35.0,1,1.0,0.2576000000000249
103,1,0.2,0.0625,35.0,1,1.0,0.23790000000002465
104,1,0.2,0.0625,35.0,1,1.0,0.25430000000000064
105,1,0.2,0.25,35.0,1,1.0,0.48329999999998563
106,1,0.2,1.0,35.0,1,1.0,0.17540000000002465
107,1,0.2,0.0,35.0,1,1.0,0.27450000000004593
108,1,0.2,1.0,35.0,1,1.0,0.1751000000000431
109,1,0.2,0.125,35.0,1,1.0,0.28350000000000364
110,1,0.2,0.125,35.0,1,1.0,0.22520000000002938
111,1,0.2,0.0625,35.0,1,1.0,0.23980000000000246
112,1,0.2,0.0,35.0,1,1.0,0.282100000000014
113,1,0.2,0.125,35.0,1,1.0,0.2237999999999829
114,1,0.2,0.125,35.0,1,1.0,0.19650000000001455
115,1,0.2,1.0,-35.0,-1,1.0,1.3077000000000112
116,1,0.2,0.0,35.0,1,1.0,0.2551010000000815
117,1,0.2,0.0625,35.0,1,1.0,0.2468000000000643
118,1,0.2,0.125,35.0,1,1.0,0.24640000000005102
119,1,0.2,0.25,35.0,1,1.0,0.20090000000004693
120,1,0.8,0.125,35.0,1,1.0,0.20990000000006148
121,1,0.8,1.0,-35.0,-1,1.0,0.17820000000006075
122,1,0.8,1.0,-35.0,-1,1.0,0.19999999999998863
123,1,0.8,0.25,35.0,1,1.0,0.20820000000003347
124,1,0.8,0.25,-35.0,-1,1.0,0.2388000000000261
125,1,0.8,0.0625,-35.0,1,0.0,0.2629000000000019
126,1,0.8,1.0,-35.0,-1,1.0,0.220799999999997
127,1,0.8,0.125,-35.0,1,0.0,0.2754000000000474
128,1,0.8,0.0625,35.0,1,1.0,0.22790000000003374
129,1,0.8,0.0625,-35.0,-1,1.0,0.28429999999997335
130,1,0.8,0.125,-35.0,-1,1.0,0.19980000000003884
131,1,0.8,0.25,-35.0,-1,1.0,0.22280000000000655
132,1,0.8,0.25,-35.0,-1,1.0,0.23390000000000555
133,1,0.8,0.25,-35.0,-1,1.0,0.22080099999999447
134,1,0.8,0.0,-35.0,1,0.0,0.5754999999999768
135,1,0.8,0.25,-35.0,-1,1.0,0.24459999999999127
136,1,0.8,0.0625,-35.0,-1,1.0,0.27960100000001376
137,1,0.8,0.0,-35.0,1,0.0,0.26340099999998756
138,1,0.8,0.125,35.0,1,1.0,0.24690099999997983
139,1,0.8,0.25,35.0,1,1.0,0.24440000000004147
140,1,0.8,1.0,35.0,1,1.0,0.1751000000000431
141,1,0.8,0.0,-35.0,1,0.0,0.2931000000000381
142,1,0.8,0.0,-35.0,-1,1.0,0.287900000000036
143,1,0.8,0.125,-35.0,-1,1.0,0.2890010000000416
144,1,0.8,0.25,35.0,1,1.0,0.44710000000003447
145,1,0.8,0.0625,-35.0,-1,1.0,0.6443000000000438
146,1,0.8,0.25,-35.0,-1,1.0,0.24610100000006696
147,1,0.8,0.0,-35.0,-1,1.0,0.38400000000001455
148,1,0.8,1.0,-35.0,-1,1.0,0.2232000000001335
149,1,0.8,0.125,-35.0,-1,1.0,1.538801000000035
150,1,0.8,1.0,-35.0,-1,1.0,0.12770000000000437
151,1,0.8,0.25,-35.0,-1,1.0,0.22620000000006257
152,1,0.8,1.0,-35.0,-1,1.0,0.1794999999999618
153,1,0.8,0.25,-35.0,-1,1.0,0.20109999999999673
154,1,0.8,1.0,-35.0,-1,1.0,0.19110000000000582
155,1,0.8,0.0,35.0,-1,0.0,0.21649999999999636
156,1,0.8,1.0,-35.0,-1,1.0,0.20830100000011953
157,1,0.8,1.0,-35.0,-1,1.0,0.2010010000000193
158,1,0.8,0.0625,-35.0,-1,1.0,0.2643999999999096
159,1,0.8,0.125,-35.0,-1,1.0,0.25680099999999584
160,1,0.8,0.0,35.0,1,1.0,0.3193010000001095
161,1,0.8,0.0,-35.0,1,0.0,0.24290000000007694
162,1,0.8,0.25,-35.0,-1,1.0,0.18689999999992324
163,1,0.8,0.0625,-35.0,-1,1.0,0.19630000000006476
164,1,0.8,1.0,35.0,1,1.0,0.26689999999996417
165,1,0.8,0.25,35.0,1,1.0,0.26910000000009404
166,1,0.8,1.0,-35.0,-1,1.0,0.6517010000000028
167,1,0.8,0.0625,-35.0,1,0.0,0.34789999999998145
168,1,0.8,0.25,35.0,1,1.0,0.25939999999991414
169,1,0.8,0.0,-35.0,-1,1.0,0.27359999999998763
170,1,0.8,0.25,-35.0,-1,1.0,0.21880000000010114
171,1,0.8,0.0625,35.0,1,1.0,0.26269999999999527
172,1,0.8,0.0,-35.0,1,0.0,0.28910000000007585
173,1,0.8,0.125,-35.0,-1,1.0,0.2153000000000702
174,1,0.8,0.25,-35.0,-1,1.0,0.205600000000004
175,1,0.2,1.0,35.0,1,1.0,0.2698010000000295
176,1,0.2,0.125,-35.0,-1,1.0,0.5022000000000162
177,1,0.2,0.125,35.0,1,1.0,0.4312999999999647
178,1,0.2,0.25,35.0,1,1.0,0.17029999999999745
179,1,0.2,0.0625,35.0,1,1.0,0.7938000000000329
180,1,0.2,1.0,35.0,1,1.0,0.21390100000007806
181,1,0.2,0.0,35.0,1,1.0,0.3001000000000431
182,1,0.2,0.125,35.0,1,1.0,0.31340099999999893
183,1,0.2,0.0625,35.0,1,1.0,0.31729999999993197
184,1,0.2,0.125,35.0,1,1.0,0.8417999999999211
185,1,0.2,0.25,35.0,1,1.0,0.2455010000001039
186,1,0.2,0.125,35.0,1,1.0,0.22199999999998
187,1,0.2,0.25,35.0,1,1.0,0.2615009999999529
188,1,0.2,0.0625,35.0,1,1.0,0.2780999999999949
189,1,0.2,0.25,35.0,1,1.0,0.22630000000015116
190,1,0.2,0.0,35.0,1,1.0,0.5306000000000495
191,1,0.2,0.25,35.0,1,1.0,0.2133010000000013
192,1,0.2,0.25,35.0,1,1.0,0.20980000000008658
193,1,0.2,0.25,-35.0,-1,1.0,0.19460100000003422
194,1,0.2,0.125,35.0,1,1.0,0.26709999999991396
195,1,0.2,0.25,35.0,1,1.0,0.24980100000004768
196,1,0.2,0.125,35.0,1,1.0,0.2717999999999847
197,1,0.2,0.25,35.0,1,1.0,0.2415000000000873
198,1,0.2,0.125,-35.0,-1,1.0,0.24439999999992779
199,1,0.2,0.0,35.0,1,1.0,0.2760009999999511
200,1,0.2,0.0625,35.0,1,1.0,0.2518000000001166
201,1,0.2,0.0,35.0,1,1.0,0.626500999999962
202,1,0.2,1.0,35.0,1,1.0,0.23320000000012442
203,1,0.2,0.125,-35.0,-1,1.0,0.20770000000015898
204,1,0.2,1.0,35.0,1,1.0,0.21049999999991087
205,1,0.2,1.0,-35.0,-1,1.0,0.21580100000005586
206,1,0.2,0.25,35.0,1,1.0,0.2178000000000111
207,1,0.2,0.0,35.0,1,1.0,5.7746009999999615
208,1,0.2,0.25,35.0,1,1.0,0.20409999999992579
209,1,0.2,0.25,-35.0,-1,1.0,0.2014000000000351
210,1,0.2,1.0,35.0,1,1.0,0.23040000000003147
211,1,0.2,0.25,35.0,1,1.0,0.20790000000010878
212,1,0.2,0.0,-35.0,1,0.0,0.2617010000000164
213,1,0.2,0.0,-35.0,1,0.0,0.3309000000000424
214,1,0.2,0.125,35.0,1,1.0,0.5559000000000651
215,1,0.2,0.0625,35.0,1,1.0,0.2296000000000049
216,1,0.2,0.125,-35.0,1,0.0,0.1108000000000402
217,1,0.2,0.0625,35.0,1,1.0,0.272199999999998
218,1,0.2,0.25,35.0,1,1.0,0.2259000000000242
219,1,0.2,0.125,35.0,1,1.0,0.25950000000000273
220,1,0.2,1.0,-35.0,-1,1.0,0.3184000000001106
221,1,0.8,0.0625,-35.0,-1,1.0,0.21860000000003765
222,1,0.8,1.0,35.0,1,1.0,0.23119999999994434
223,1,0.8,1.0,35.0,1,1.0,0.19529999999997472
224,1,0.8,0.0625,-35.0,-1,1.0,0.2193010000000868
225,1,0.8,1.0,-35.0,-1,1.0,0.5300010000000839
226,1,0.8,0.0,-35.0,1,0.0,0.24520099999995182
227,1,0.8,1.0,35.0,1,1.0,0.24680000000000746
228,1,0.8,0.0625,-35.0,-1,1.0,0.24149999999997362
229,1,0.8,0.25,-35.0,-1,1.0,0.2113000000001648
230,1,0.8,0.125,-35.0,-1,1.0,0.14850000000001273
231,1,0.8,1.0,35.0,1,1.0,0.22120000000006712
232,1,0.8,0.0625,-35.0,-1,1.0,0.21180000000015298
233,1,0.8,0.25,35.0,1,1.0,0.2336999999999989
234,1,0.8,1.0,-35.0,-1,1.0,0.3408999999999196
235,1,0.8,0.0625,-35.0,-1,1.0,0.20490000000006603
236,1,0.8,0.0,-35.0,-1,1.0,0.2219999999998663
237,1,0.8,1.0,-35.0,-1,1.0,0.19830100000001494
238,1,0.8,0.125,-35.0,-1,1.0,0.1776999999999589
239,1,0.8,0.25,-35.0,-1,1.0,0.2057999999999538
240,1,0.8,1.0,-35.0,-1,1.0,0.17700000000002092
241,1,0.8,0.0,-35.0,-1,1.0,0.23879999999996926
242,1,0.8,0.25,-35.0,-1,1.0,0.19780000000002929
243,1,0.8,0.0625,35.0,1,1.0,0.3260999999999967
244,1,0.2,0.0,-35.0,1,0.0,0.6209009999998898
245,1,0.2,0.25,35.0,1,1.0,0.22460000000000946
246,1,0.2,0.25,35.0,1,1.0,0.25480000000004566
247,1,0.2,1.0,35.0,1,1.0,0.22669999999993706
248,1,0.2,0.125,-35.0,-1,1.0,8.568000000000097
249,1,0.2,0.25,35.0,1,1.0,0.2335000000000491
250,1,0.2,0.0,35.0,-1,0.0,0.24860000000001037
251,1,0.2,0.25,35.0,1,1.0,0.2598000000000411
252,1,0.2,0.125,-35.0,-1,1.0,0.27800000000002
253,1,0.2,0.25,35.0,1,1.0,0.24639999999999418
254,1,0.2,0.125,35.0,1,1.0,0.30549999999993815
255,1,0.2,0.0,35.0,1,1.0,0.41390000000001237
256,1,0.2,0.0625,35.0,1,1.0,0.26320000000009713
257,1,0.2,0.0625,35.0,1,1.0,0.2658999999999878
258,1,0.2,0.0625,35.0,1,1.0,0.565001000000052
259,1,0.2,0.0625,35.0,1,1.0,0.31970000000001164
260,1,0.2,1.0,35.0,1,1.0,0.22250000000008185
261,1,0.2,0.0625,35.0,1,1.0,0.6619000000000597
262,1,0.2,0.0625,35.0,1,1.0,0.35530000000005657
263,1,0.2,0.25,35.0,1,1.0,0.18950100000006387
264,1,0.2,0.25,35.0,1,1.0,0.23940000000004602
265,1,0.2,1.0,35.0,1,1.0,0.22280000000012024
266,1,0.2,1.0,35.0,1,1.0,0.22919999999999163
267,1,0.2,0.25,35.0,1,1.0,0.2258000000000493
268,1,0.2,0.25,-35.0,-1,1.0,0.3167000000000826
269,1,0.2,0.0625,35.0,1,1.0,0.658800000000042
270,1,0.2,0.0625,35.0,1,1.0,0.3365000000000009
271,1,0.2,1.0,35.0,1,1.0,0.2907999999999902
272,1,0.2,1.0,35.0,1,1.0,0.20840000000009695
273,1,0.2,0.125,35.0,1,1.0,0.2901000000000522
274,1,0.2,0.125,35.0,1,1.0,0.3408999999999196
275,1,0.2,1.0,35.0,1,1.0,0.2199000000000524
276,1,0.2,1.0,35.0,1,1.0,1.4482999999999038
277,1,0.2,0.0,35.0,-1,0.0,0.2778000000000702
278,1,0.2,0.125,35.0,1,1.0,0.2599999999999909
279,1,0.8,1.0,-35.0,-1,1.0,0.18380000000001928
280,1,0.8,0.25,-35.0,-1,1.0,0.19680000000005293
281,1,0.8,0.125,-35.0,-1,1.0,0.22529999999994743
282,1,0.8,0.25,-35.0,-1,1.0,0.20410000000003947
283,1,0.8,0.125,-35.0,-1,1.0,0.19310000000007221
284,1,0.8,0.25,35.0,1,1.0,0.2377999999999929
285,1,0.8,0.0,-35.0,-1,1.0,0.24090000000001055
286,1,0.8,0.125,-35.0,-1,1.0,0.22479999999995925
287,1,0.8,0.0,-35.0,-1,1.0,0.24680000000012114
288,1,0.8,1.0,-35.0,-1,1.0,0.25739999999996144
289,1,0.8,1.0,-35.0,-1,1.0,0.17820000000006075
290,1,0.8,0.0,-35.0,1,0.0,0.2577000000001135
291,1,0.8,0.0,-35.0,1,0.0,0.25850000000014006
292,1,0.8,1.0,-35.0,-1,1.0,0.21090000000003783
293,1,0.8,0.125,35.0,1,1.0,1.3420000000000982
294,1,0.8,0.125,-35.0,-1,1.0,0.24120000000004893
295,1,0.8,0.0625,-35.0,-1,1.0,0.22580000000016298
296,1,0.8,1.0,-35.0,-1,1.0,0.19800000000009277
297,1,0.8,0.125,-35.0,-1,1.0,0.18879999999990105
298,1,0.8,0.0,-35.0,1,0.0,0.2880999999999858
299,1,0.8,0.25,35.0,1,1.0,0.2322999999998956
300,1,0.8,0.25,-35.0,-1,1.0,2.9148999999999887
301,1,0.2,0.0625,-35.0,1,0.0,0.5198009999999158
302,1,0.2,1.0,35.0,1,1.0,0.21509999999989304
303,1,0.2,0.0625,35.0,1,1.0,0.3125
304,1,0.2,1.0,35.0,1,1.0,0.17510100000004059
305,1,0.2,1.0,35.0,1,1.0,0.1997999999998683
306,1,0.2,1.0,35.0,1,1.0,0.23199999999974352
307,1,0.2,0.125,35.0,1,1.0,1.009599999999864
308,1,0.2,0.0,35.0,1,1.0,0.3987999999999374
309,1,0.2,0.0625,35.0,1,1.0,0.35629999999991924
310,1,0.2,0.125,35.0,1,1.0,0.5256999999999152
311,1,0.2,0.0,35.0,1,1.0,0.5067999999998847
312,1,0.2,1.0,35.0,1,1.0,0.20279999999979736
313,1,0.2,0.25,-35.0,-1,1.0,0.20030099999985396
314,1,0.2,0.125,35.0,1,1.0,0.3125
315,1,0.2,1.0,-35.0,-1,1.0,0.6269999999999527
316,1,0.2,0.0,-35.0,1,0.0,6.809400000000096
317,1,0.2,0.0,35.0,1,1.0,0.3671999999999116
318,1,0.2,0.125,35.0,1,1.0,0.24630000000001928
319,1,0.2,1.0,35.0,1,1.0,0.4442999999998847
320,1,0.2,0.0625,35.0,1,1.0,0.2663999999997486
321,1,0.2,0.0625,35.0,1,1.0,0.22410100000001876
322,1,0.2,0.0625,35.0,1,1.0,0.599999999999909
323,1,0.2,0.0,35.0,1,1.0,0.2678000000000793
324,1,0.2,0.25,35.0,1,1.0,0.25339999999982865
325,1,0.2,0.125,35.0,1,1.0,0.23749999999995453
326,1,0.2,0.0,35.0,1,1.0,0.363399999999956
327,1,0.2,0.25,35.0,1,1.0,0.2009010000001581
328,1,0.2,0.25,35.0,1,1.0,0.3170999999997548
329,1,0.2,0.25,-35.0,-1,1.0,0.22109999999975116
330,1,0.2,0.0625,-35.0,-1,1.0,1.6738009999999122
331,1,0.2,0.125,35.0,1,1.0,0.3147999999998774
332,1,0.2,0.0,35.0,1,1.0,0.3738999999998214
333,1,0.2,0.0625,35.0,1,1.0,0.23479999999972279
334,1,0.2,0.25,35.0,1,1.0,0.24070099999971717
335,1,0.2,1.0,-35.0,-1,1.0,1.7217009999997117
336,1,0.2,0.0,35.0,1,1.0,0.42080099999975573
337,1,0.2,0.0625,-35.0,1,0.0,0.31169999999997344
338,1,0.2,1.0,35.0,1,1.0,0.23779999999965185
339,1,0.2,0.25,35.0,1,1.0,0.2218000000000302
340,1,0.2,0.125,35.0,1,1.0,0.22780099999999948
341,1,0.2,0.0625,35.0,1,1.0,0.20879999999988286
342,1,0.8,0.25,-35.0,-1,1.0,0.20140100000003258
343,1,0.8,0.25,-35.0,-1,1.0,0.405699999999797
344,1,0.8,1.0,35.0,1,1.0,0.16809999999986758
345,1,0.8,0.0625,-35.0,-1,1.0,0.24879999999984648
346,1,0.8,0.125,-35.0,-1,1.0,0.2382999999997537
347,1,0.8,0.0,35.0,-1,0.0,0.20280099999990853
348,1,0.8,0.125,35.0,1,1.0,0.2849999999998545
349,1,0.8,1.0,-35.0,-1,1.0,0.19940099999962513
350,1,0.8,0.25,35.0,1,1.0,0.19849999999973988
351,1,0.8,0.0,-35.0,-1,1.0,10.769801000000143
352,1,0.8,0.0625,-35.0,-1,1.0,0.2720999999999094
353,1,0.8,1.0,-35.0,-1,1.0,0.15639999999984866
354,1,0.8,1.0,-35.0,-1,1.0,0.19899999999984175
355,1,0.8,0.0625,-35.0,1,0.0,0.15010099999994964
356,1,0.8,0.125,-35.0,-1,1.0,0.22260000000005675
357,1,0.8,1.0,35.0,1,1.0,0.25349999999980355
358,1,0.8,0.0,-35.0,-1,1.0,10.139299999999821
359,1,0.8,1.0,-35.0,-1,1.0,0.2437999999999647
360,1,0.8,0.0625,-35.0,1,0.0,0.36629999999991014
361,1,0.8,0.25,-35.0,-1,1.0,0.203899999999976
362,1,0.8,0.0625,-35.0,-1,1.0,0.21979999999985012
363,1,0.8,0.0,-35.0,-1,1.0,0.2237999999999829
364,1,0.8,1.0,-35.0,-1,1.0,0.21679999999992106
365,1,0.8,0.0,-35.0,-1,1.0,0.23049999999989268
366,1,0.8,0.0625,-35.0,-1,1.0,0.6268000000000029
367,1,0.8,0.25,-35.0,-1,1.0,0.2077009999998154
368,1,0.8,0.0,-35.0,-1,1.0,0.2801999999999225
369,1,0.8,0.25,-35.0,-1,1.0,0.2277000000001408
370,1,0.8,0.125,-35.0,-1,1.0,0.2602999999999156
371,1,0.8,0.0625,-35.0,-1,1.0,0.2177999999998974
372,1,0.2,0.0625,-35.0,-1,1.0,0.23710099999993872
373,1,0.2,0.0,35.0,1,1.0,0.7317999999997937
374,1,0.2,0.25,35.0,1,1.0,1.3707010000000537
375,1,0.2,0.0625,35.0,1,1.0,0.27149999999983265
376,1,0.2,0.25,35.0,1,1.0,0.2540999999998803
377,1,0.2,0.0625,35.0,1,1.0,0.2782009999998536
378,1,0.2,1.0,-35.0,-1,1.0,0.1977999999999156
379,1,0.2,0.125,-35.0,-1,1.0,0.24490099999979975
380,1,0.2,0.125,35.0,1,1.0,0.2542999999998301
381,1,0.2,0.0625,-35.0,1,0.0,4.225699999999733
382,1,0.2,0.125,-35.0,-1,1.0,0.19140100000004168
383,1,0.2,0.0,35.0,-1,0.0,5.9891999999999825
384,1,0.2,0.125,35.0,1,1.0,0.36809999999991305
385,1,0.2,0.125,-35.0,-1,1.0,0.20900099999994382
386,1,0.2,0.25,35.0,1,1.0,0.2381999999997788
387,1,0.2,1.0,35.0,1,1.0,0.2258999999999105
388,1,0.2,0.25,35.0,1,1.0,0.2817999999999756
389,1,0.2,0.125,35.0,1,1.0,0.24289999999973588
390,1,0.2,0.0,35.0,-1,0.0,5.1319999999998345
391,1,0.2,0.0625,35.0,1,1.0,0.30980099999965205
392,1,0.2,0.125,35.0,1,1.0,0.3022999999998319
393,1,0.2,0.125,35.0,1,1.0,3.3028999999999087
394,1,0.2,0.25,35.0,1,1.0,0.2323999999998705
395,1,0.2,0.0625,35.0,-1,0.0,0.22309999999993124
396,1,0.2,0.25,35.0,1,1.0,0.26579999999989923
397,1,0.2,0.0625,35.0,1,1.0,0.4198999999998705
398,1,0.2,0.0625,35.0,1,1.0,0.3627999999998792
399,1,0.2,0.125,35.0,1,1.0,0.2766999999998916
400,1,0.8,0.0,-35.0,1,0.0,0.30969999999979336
401,1,0.8,0.0625,35.0,1,1.0,0.2768999999998414
402,1,0.8,0.0,-35.0,1,0.0,0.33979999999996835
403,1,0.8,0.0,-35.0,1,0.0,0.3238010000000031
404,1,0.8,0.125,-35.0,-1,1.0,0.2930999999998676
405,1,0.8,0.0625,-35.0,-1,1.0,0.2946999999999207
406,1,0.8,0.0,-35.0,1,0.0,0.2667999999996482
407,1,0.8,0.25,-35.0,-1,1.0,0.21739999999999782
408,1,0.8,0.0625,-35.0,-1,1.0,0.23679999999990287
409,1,0.8,0.0,35.0,-1,0.0,0.2480000000000473
410,1,0.8,0.25,-35.0,-1,1.0,0.233600000000024
411,1,0.8,0.25,-35.0,-1,1.0,0.26139999999986685
412,1,0.8,0.0625,-35.0,-1,1.0,0.4437000000000353
413,1,0.8,0.125,-35.0,-1,1.0,0.2647999999999229
414,1,0.8,0.125,-35.0,1,0.0,0.12070099999982631
415,1,0.8,0.0625,-35.0,1,0.0,0.42840000000001055
416,1,0.8,0.0,35.0,1,1.0,1.4007999999998901
417,1,0.8,0.125,-35.0,-1,1.0,0.2948999999998705
418,1,0.8,0.0625,-35.0,1,0.0,0.4876999999999043
419,1,0.8,0.25,-35.0,-1,1.0,0.2786999999998443
420,1,0.8,0.25,-35.0,-1,1.0,0.2377009999997881
421,1,0.8,1.0,35.0,1,1.0,0.21179999999981192
422,1,0.8,0.125,-35.0,-1,1.0,0.3045999999999367
423,1,0.8,0.25,35.0,1,1.0,1.0886999999997897
424,1,0.8,0.0,35.0,1,1.0,0.29789999999979955
425,1,0.8,0.25,-35.0,-1,1.0,0.24880099999973027
426,1,0.8,0.0,-35.0,1,0.0,0.33819999999991524
427,1,0.8,0.0625,-35.0,-1,1.0,0.2624000000000706
428,1,0.8,0.25,35.0,1,1.0,0.29169999999976426
429,1,0.8,0.125,-35.0,-1,1.0,0.22910099999990052
430,1,0.8,0.0625,-35.0,-1,1.0,6.561700999999857
431,1,0.8,0.0625,-35.0,1,0.0,0.38980099999980666
432,1,0.8,0.125,-35.0,-1,1.0,0.25870000000008986
433,1,0.8,0.0,-35.0,1,0.0,6.72629999999981
434,1,0.8,0.0625,-35.0,1,0.0,0.519099999999753
435,1,0.8,0.125,-35.0,-1,1.0,0.35380099999997583
436,1,0.8,0.0,35.0,1,1.0,0.682700000000068
437,1,0.8,0.0625,-35.0,1,0.0,0.5336999999999534
438,1,0.8,0.0,-35.0,1,0.0,0.37279999999964275
439,1,0.8,0.25,-35.0,-1,1.0,0.27700099999992744
440,1,0.8,0.0625,-35.0,-1,1.0,0.3261999999999716
441,1,0.8,1.0,-35.0,-1,1.0,0.2504999999998745
442,1,0.8,1.0,-35.0,-1,1.0,1.1496999999999389
443,1,0.8,0.0625,-35.0,1,0.0,55.59770000000003
444,1,0.8,0.125,-35.0,-1,1.0,0.7008999999998196
445,1,0.8,0.125,-35.0,-1,1.0,0.3149999999998272
446,1,0.8,1.0,-35.0,-1,1.0,0.24440000000004147
447,1,0.8,0.125,-35.0,-1,1.0,0.2818009999998594
448,1,0.8,0.125,-35.0,-1,1.0,0.31120099999998274
449,1,0.8,1.0,-35.0,-1,1.0,0.25520000000005894
450,1,0.8,0.0,35.0,1,1.0,0.28799999999978354
451,1,0.8,0.125,-35.0,-1,1.0,0.2787999999995918
452,1,0.8,0.125,-35.0,-1,1.0,0.2780999999999949
453,1,0.8,0.25,-35.0,-1,1.0,0.24559999999996762
454,1,0.8,0.25,-35.0,-1,1.0,4.354899999999816
455,1,0.8,0.0,-35.0,1,0.0,1.0466999999998734
456,1,0.8,0.125,-35.0,-1,1.0,0.2585999999998876
457,1,0.8,0.0,-35.0,-1,1.0,0.29970000000002983
458,1,0.8,0.25,-35.0,-1,1.0,0.2617999999999938
459,1,0.8,0.25,-35.0,-1,1.0,0.23949999999990723
460,1,0.8,0.25,-35.0,-1,1.0,0.23539999999979955
461,1,0.8,0.25,-35.0,-1,1.0,0.24610099999995327
462,1,0.8,1.0,35.0,1,1.0,0.29559999999992215
463,1,0.8,0.25,-35.0,-1,1.0,0.23669999999992797
464,1,0.8,1.0,-35.0,-1,1.0,0.21229999999991378
465,1,0.2,0.125,35.0,1,1.0,0.39659999999980755
466,1,0.2,0.25,-35.0,-1,1.0,0.26269999999999527
467,1,0.2,0.25,35.0,1,1.0,4.813499999999976
468,1,0.2,0.125,35.0,1,1.0,0.4692999999999756
469,1,0.2,0.0625,35.0,1,1.0,0.4600999999997839
470,1,0.2,0.0625,35.0,1,1.0,0.4794999999999163
471,1,0.2,0.25,-35.0,-1,1.0,0.19690000000014152
472,1,0.2,0.0,-35.0,1,0.0,4.689699999999675
473,1,0.2,0.25,35.0,1,1.0,0.39059999999994943
474,1,0.2,0.0625,35.0,1,1.0,0.2998999999999796
475,1,0.2,0.0625,35.0,1,1.0,0.35390000000006694
476,1,0.2,1.0,35.0,1,1.0,0.21000000000003638
477,1,0.2,0.0,35.0,1,1.0,0.27749999999991815
478,1,0.2,1.0,35.0,1,1.0,0.2601999999999407
479,1,0.2,0.25,35.0,1,1.0,0.3309009999998125
480,1,0.2,0.0,35.0,-1,0.0,11.550399999999854
481,1,0.2,0.25,35.0,1,1.0,0.31469999999967513
482,1,0.2,0.0625,35.0,1,1.0,0.30729999999994106
483,1,0.2,0.0625,35.0,1,1.0,0.21869999999989886
484,1,0.2,0.0625,35.0,-1,0.0,0.3506999999999607
485,1,0.2,0.25,35.0,1,1.0,0.5817010000000664
486,1,0.2,0.125,35.0,1,1.0,0.2709999999997308
487,1,0.2,0.125,-35.0,-1,1.0,0.28569999999990614
488,1,0.2,0.0,35.0,1,1.0,0.3477999999997792
489,1,0.2,0.125,35.0,1,1.0,0.2920999999998912
490,1,0.2,0.0,-35.0,1,0.0,0.30129999999985557
491,1,0.2,0.0,35.0,-1,0.0,0.2422999999998865
492,1,0.2,0.0625,35.0,1,1.0,0.29500000000007276
493,1,0.2,0.0625,-35.0,1,0.0,0.4822999999998956
494,1,0.2,0.0625,-35.0,-1,1.0,0.2948999999998705
495,1,0.2,0.0625,35.0,1,1.0,0.25270000000000437
496,1,0.2,1.0,-35.0,-1,1.0,0.2384999999997035
497,1,0.2,0.25,35.0,1,1.0,0.21920000000000073
498,1,0.2,1.0,35.0,1,1.0,0.2519999999999527
499,1,0.2,0.125,35.0,1,1.0,0.27929999999992106
500,1,0.2,1.0,-35.0,-1,1.0,0.20869999999990796
501,1,0.2,0.0625,35.0,1,1.0,0.30970000000002074
502,1,0.8,0.25,-35.0,-1,1.0,0.36219999999980246
503,1,0.8,0.0,-35.0,-1,1.0,0.2664999999999509
504,1,0.8,1.0,-35.0,-1,1.0,0.21890099999995982
505,1,0.8,0.25,-35.0,-1,1.0,0.21299999999996544
506,1,0.8,0.0625,-35.0,1,0.0,0.3190009999996164
507,1,0.8,0.0625,35.0,1,1.0,0.3301000000001295
508,1,0.8,0.0,-35.0,1,0.0,0.4559999999999036
509,1,0.8,0.0625,-35.0,1,0.0,0.483400999999958
510,1,0.8,0.0625,35.0,1,1.0,0.3960999999997057
511,1,0.8,0.25,-35.0,-1,1.0,1.8905999999999494
512,1,0.8,0.125,-35.0,-1,1.0,0.2229010000000926
513,1,0.8,0.25,-35.0,-1,1.0,0.22070099999996273
514,1,0.8,0.0,-35.0,1,0.0,0.23299999999994725
515,1,0.8,0.125,-35.0,-1,1.0,0.27379999999971005
516,1,0.8,1.0,-35.0,-1,1.0,0.2531999999996515
517,1,0.8,1.0,-35.0,-1,1.0,0.2439999999999145
518,1,0.8,0.25,-35.0,-1,1.0,0.2535000000000309
519,1,0.8,0.0625,-35.0,1,0.0,12.660799999999881
520,1,0.8,0.0,35.0,1,1.0,0.2938010000000304
521,1,0.8,0.0625,-35.0,-1,1.0,0.2646999999997206
522,1,0.8,0.25,-35.0,-1,1.0,0.2506999999998243
523,1,0.8,0.0625,-35.0,-1,1.0,0.38789999999994507
524,1,0.8,0.25,-35.0,-1,1.0,0.21399999999948704
525,1,0.8,0.25,-35.0,-1,1.0,0.24499999999989086
526,1,0.8,0.125,-35.0,-1,1.0,0.2541000000001077
527,1,0.8,0.125,-35.0,-1,1.0,5.9351010000000315
528,1,0.8,1.0,-35.0,-1,1.0,0.19769999999971333
529,1,0.2,0.25,35.0,1,1.0,0.36850000000004
530,1,0.2,0.25,-35.0,-1,1.0,0.20790000000033615
531,1,0.2,0.0,35.0,-1,0.0,0.2418999999999869
532,1,0.2,0.25,35.0,1,1.0,0.38459999999986394
533,1,0.2,0.125,35.0,1,1.0,0.2786999999998443
534,1,0.2,0.0625,35.0,1,1.0,0.35170000000016444
535,1,0.2,0.25,35.0,1,1.0,0.2557010000000446
536,1,0.2,1.0,35.0,1,1.0,0.2449999999994361
537,1,0.2,0.0625,35.0,1,1.0,1.4224999999996726
538,1,0.2,0.125,35.0,1,1.0,0.2318009999999049
539,1,0.2,1.0,35.0,1,1.0,0.292699999999968
540,1,0.2,0.25,35.0,1,1.0,0.28530000000000655
541,1,0.2,0.25,35.0,1,1.0,0.2726999999999862
542,1,0.2,0.25,35.0,1,1.0,0.2687999999998283
543,1,0.2,0.0625,35.0,1,1.0,0.369499999999789
544,1,0.2,0.25,35.0,1,1.0,0.38560000000006767
545,1,0.2,0.0625,-35.0,-1,1.0,0.24990000000025248
546,1,0.2,0.0,35.0,1,1.0,0.562699999999495
547,1,0.2,0.0,35.0,1,1.0,8.990000000000236
548,1,0.2,0.0625,35.0,1,1.0,0.3396999999995387
549,1,0.2,0.0625,35.0,1,1.0,0.24019999999973152
550,1,0.2,1.0,-35.0,-1,1.0,0.22969999999986612
551,1,0.2,0.0,35.0,-1,0.0,5.333799999999883
552,1,0.2,1.0,35.0,1,1.0,0.25309999999990396
553,1,0.2,1.0,-35.0,-1,1.0,0.23379999999951906
554,1,0.2,1.0,35.0,1,1.0,0.6466000000000349
555,1,0.2,0.0,-35.0,1,0.0,5.863999999999578
556,1,0.2,0.125,35.0,1,1.0,0.25700000000006185
557,1,0.2,0.0,-35.0,1,0.0,0.3344010000000708
558,1,0.2,0.125,35.0,1,1.0,0.28359999999975116
559,1,0.2,1.0,35.0,1,1.0,0.2581000000000131
560,1,0.2,0.0625,35.0,-1,0.0,0.33720099999982267
561,1,0.2,0.25,35.0,1,1.0,0.38469999999961146
562,1,0.2,0.125,35.0,1,1.0,2.0075999999999112
563,1,0.2,1.0,-35.0,-1,1.0,0.23159999999961656
564,1,0.2,1.0,35.0,1,1.0,0.27420000000029177
565,1,0.2,0.125,35.0,1,1.0,0.2948999999998705
566,1,0.2,1.0,-35.0,-1,1.0,0.20430000000033033
567,1,0.2,0.0,35.0,1,1.0,0.3117010000000846
568,1,0.2,1.0,-35.0,-1,1.0,0.22460000000000946
569,1,0.2,0.0,35.0,1,1.0,0.3451999999997497
570,1,0.2,0.0,35.0,1,1.0,1.521600000000035
571,1,0.2,0.125,35.0,1,1.0,0.24870000000009895
572,1,0.2,0.125,-35.0,-1,1.0,0.23149999999986903
573,1,0.2,0.0625,35.0,1,1.0,0.328899999999976
574,1,0.2,0.0625,35.0,1,1.0,0.33160099999986414
575,1,0.2,0.0,-35.0,1,0.0,0.3524000000002161
576,1,0.8,0.25,-35.0,-1,1.0,0.24850000000014916
577,1,0.8,1.0,-35.0,-1,1.0,1.4491010000001552
578,1,0.8,0.125,-35.0,-1,1.0,0.19860000000016953
579,1,0.8,0.0,-35.0,1,0.0,0.292699999999968
580,1,0.8,0.125,-35.0,-1,1.0,0.2620010000000548
581,1,0.8,0.0,-35.0,1,0.0,3.0427999999997155
582,1,0.8,1.0,-35.0,-1,1.0,0.2120999999997366
583,1,0.8,0.125,-35.0,-1,1.0,0.3265999999998712
584,1,0.8,1.0,35.0,1,1.0,0.2656000000001768
585,1,0.8,0.0,-35.0,1,0.0,0.3829999999998108
586,1,0.8,0.0,-35.0,1,0.0,0.575800000000072
587,1,0.8,0.125,-35.0,-1,1.0,0.4866999999994732
588,1,0.8,1.0,-35.0,-1,1.0,1.9227000000000771
589,1,0.8,0.25,35.0,1,1.0,0.4536009999997077
590,1,0.8,0.0625,-35.0,-1,1.0,0.30960000000004584
591,1,0.8,0.0625,-35.0,1,0.0,0.39370000000008076
592,1,0.8,0.125,-35.0,-1,1.0,0.2530010000000402
593,1,0.8,1.0,-35.0,-1,1.0,0.24700099999972736
594,1,0.8,0.125,-35.0,-1,1.0,0.2567010000002483
595,1,0.8,1.0,-35.0,-1,1.0,0.24380000000019209
596,1,0.8,0.0,-35.0,1,0.0,0.27009999999972933
597,1,0.8,1.0,-35.0,-1,1.0,0.2339999999999236
598,1,0.8,0.0625,-35.0,1,0.0,5.690000000000055
599,1,0.8,0.25,35.0,1,1.0,0.3476999999998043
600,1,0.8,0.0,-35.0,1,0.0,0.45040000000017244
601,1,0.8,1.0,-35.0,-1,1.0,0.21810099999993326
602,1,0.8,0.125,-35.0,-1,1.0,0.2806000000000495
603,1,0.8,0.25,-35.0,-1,1.0,0.25790099999949234
604,1,0.8,0.0,-35.0,1,0.0,11.117299999999886
605,1,0.8,0.0,-35.0,-1,1.0,0.2683999999999287
606,1,0.8,0.25,-35.0,-1,1.0,0.23440000000027794
607,1,0.8,0.0,-35.0,1,0.0,3.5521010000002207
608,1,0.8,0.0625,35.0,1,1.0,0.3710999999998421
609,1,0.8,0.125,-35.0,-1,1.0,0.23540000000002692
610,1,0.8,0.0,35.0,1,1.0,0.2947009999998045
611,1,0.8,1.0,-35.0,-1,1.0,0.2256999999999607
612,1,0.8,1.0,-35.0,-1,1.0,0.23169999999981883
613,1,0.8,0.125,-35.0,-1,1.0,0.24240099999997256
614,1,0.8,0.25,-35.0,-1,1.0,0.25500000000010914
615,1,0.8,1.0,35.0,1,1.0,0.21559999999954016
616,1,0.8,0.25,-35.0,-1,1.0,0.2685999999998785
617,1,0.8,0.25,-35.0,-1,1.0,0.2227010000001428
618,1,0.8,0.125,35.0,1,1.0,0.47529999999960637
619,1,0.8,1.0,35.0,1,1.0,2.1895999999997002
620,1,0.8,0.25,-35.0,-1,1.0,0.24559999999974025
621,1,0.8,0.25,-35.0,-1,1.0,0.3065999999998894
622,1,0.2,0.0,35.0,1,1.0,1.8991009999999733
623,1,0.2,0.0,35.0,1,1.0,0.4697999999998501
624,1,0.2,0.25,35.0,1,1.0,0.23579999999947177
625,1,0.2,0.25,35.0,1,1.0,0.26359999999976935
626,1,0.2,0.25,-35.0,-1,1.0,0.28589999999985594
627,1,0.2,1.0,35.0,1,1.0,0.5066000000001623
628,1,0.2,1.0,-35.0,-1,1.0,0.1995999999999185
629,1,0.2,0.0625,-35.0,1,0.0,0.37700099999938175
630,1,0.2,0.0625,35.0,1,1.0,0.3129010000002381
631,1,0.2,0.25,-35.0,-1,1.0,0.39719999999942956
632,1,0.2,0.0,35.0,1,1.0,6.386399999999867
633,1,0.2,1.0,-35.0,-1,1.0,0.20770000000038635
634,1,0.2,0.0,35.0,1,1.0,23.53359999999975
635,1,0.2,1.0,35.0,1,1.0,0.42810000000008586
636,1,0.2,0.25,35.0,1,1.0,0.7338999999997213
637,1,0.2,0.125,35.0,1,1.0,0.63470099999995
638,1,0.2,0.125,-35.0,-1,1.0,0.3075999999996384
639,1,0.2,0.25,35.0,1,1.0,0.41159999999945285
640,1,0.2,0.125,35.0,1,1.0,0.4210009999997055
641,1,0.2,0.25,35.0,1,1.0,0.7287000000001171
642,1,0.2,0.125,35.0,1,1.0,0.49449999999933425
643,1,0.2,0.0625,35.0,1,1.0,8.275600000000395
644,1,0.2,1.0,-35.0,-1,1.0,0.26470000000017535
645,1,0.2,1.0,35.0,1,1.0,0.42879999999968277
646,1,0.2,0.125,35.0,1,1.0,0.3249000000000706
647,1,0.2,0.0625,35.0,1,1.0,0.45260000000007494
648,1,0.2,0.0625,35.0,1,1.0,0.45839999999998327
649,1,0.2,0.0,35.0,1,1.0,0.6327000000001135
650,1,0.2,0.25,35.0,1,1.0,0.2618999999999687
651,1,0.2,0.125,35.0,1,1.0,0.27599999999983993
652,1,0.2,0.0625,35.0,1,1.0,0.28530000000000655
653,1,0.2,0.25,-35.0,-1,1.0,0.3196010000001479
654,1,0.2,0.125,35.0,1,1.0,0.21559999999954016
655,1,0.2,0.125,-35.0,-1,1.0,0.23630000000002838
656,1,0.2,1.0,35.0,1,1.0,0.26890099999991435
657,1,0.2,0.125,-35.0,-1,1.0,0.346599999999853
658,1,0.2,0.25,35.0,1,1.0,0.7426000000000386
659,1,0.2,0.0,-35.0,1,0.0,0.3536999999996624
660,1,0.2,1.0,-35.0,-1,1.0,0.23919999999998254
661,1,0.2,0.125,-35.0,-1,1.0,0.19020099999988815
662,1,0.2,0.125,35.0,1,1.0,0.3196000000002641
663,1,0.2,0.0625,35.0,1,1.0,0.42020000000002256
664,1,0.2,1.0,35.0,1,1.0,0.3095010000001821
665,1,0.2,0.0,35.0,1,1.0,0.3041000000002896
666,1,0.2,0.25,35.0,1,1.0,0.4130000000000109
667,1,0.2,0.125,35.0,1,1.0,0.30729999999994106
668,1,0.2,0.125,35.0,1,1.0,0.29999999999972715
669,1,0.2,0.0,35.0,1,1.0,0.3708000000001448
670,1,0.2,0.0625,-35.0,-1,1.0,0.21680000000014843
671,1,0.2,1.0,35.0,1,1.0,0.23099999999976717
672,1,0.2,0.25,35.0,1,1.0,0.2901999999999134
673,1,0.2,0.25,-35.0,-1,1.0,0.2278999999998632
674,1,0.2,0.125,-35.0,-1,1.0,0.2436999999999898
1,2,0.5,0.125,-35.0,-1,1.0,0.31460000000000043
2,2,0.5,0.0,-35.0,1,0.0,0.35219999999999985
3,2,0.5,0.0,-35.0,-1,1.0,7.442400999999997
4,2,0.5,1.0,35.0,1,1.0,0.19989999999999952
5,2,0.5,0.0,-35.0,1,0.0,0.2728000000000037
6,2,0.5,1.0,-35.0,-1,1.0,0.23930000000000007
7,2,0.5,1.0,-35.0,-1,1.0,0.24289999999999168
8,2,0.5,1.0,35.0,1,1.0,0.2085000000000008
9,2,0.5,0.25,-35.0,-1,1.0,0.1961999999999975
10,2,0.5,0.0,-35.0,1,0.0,0.28250000000000597
11,2,0.5,1.0,-35.0,-1,1.0,0.19559999999999889
12,2,0.5,0.0625,-35.0,-1,1.0,0.28600000000000136
13,2,0.5,0.0625,35.0,1,1.0,0.23529999999999518
14,2,0.5,0.125,35.0,1,1.0,0.2507010000000065
15,2,0.5,1.0,35.0,1,1.0,0.1646999999999963
16,2,0.5,0.0625,35.0,1,1.0,0.23870000000000857
17,2,0.5,0.0625,35.0,1,1.0,0.3534000000000077
18,2,0.5,0.25,-35.0,-1,1.0,0.24960000000000093
19,2,0.5,0.0,35.0,1,1.0,0.2745000000000033
20,2,0.5,0.0625,35.0,1,1.0,0.23050000000000637
21,2,0.5,0.125,-35.0,-1,1.0,1.881600000000006
22,2,0.5,0.25,35.0,1,1.0,0.17919999999999447
23,2,0.5,0.0,-35.0,1,0.0,0.33259999999999934
24,2,0.5,0.0625,35.0,1,1.0,0.3220010000000002
25,2,0.5,0.0625,-35.0,-1,1.0,2.9243999999999915
26,2,0.5,0.25,-35.0,-1,1.0,0.19609999999998706
27,2,0.5,0.25,35.0,1,1.0,0.20430000000000348
28,2,0.5,0.25,-35.0,-1,1.0,0.22069999999999368
29,2,0.5,0.25,-35.0,-1,1.0,0.14619999999999322
30,2,0.5,0.0,-35.0,1,0.0,0.5213999999999999
31,2,0.5,0.0,-35.0,1,0.0,3.452100999999999
32,2,0.5,1.0,35.0,1,1.0,0.20329999999995607
33,2,0.5,0.0,-35.0,-1,1.0,0.2810000000000059
34,2,0.5,0.0,-35.0,1,0.0,0.3230000000000075
35,2,0.5,0.25,35.0,1,1.0,0.2750999999999806
36,2,0.5,0.125,35.0,1,1.0,0.2878000000000043
37,2,0.5,0.0625,-35.0,-1,1.0,0.2490009999999927
38,2,0.5,0.125,35.0,1,1.0,0.23230000000000928
39,2,0.5,0.0625,35.0,1,1.0,0.29769999999999186
40,2,0.5,0.25,-35.0,-1,1.0,0.19899999999998386
41,2,0.5,0.0,35.0,1,1.0,0.30280000000001905
42,2,0.5,0.25,-35.0,-1,1.0,0.18940000000000623
43,2,0.5,0.0625,-35.0,1,0.0,3.4548999999999808
44,2,0.5,0.125,-35.0,-1,1.0,0.30999999999997385
45,2,0.5,0.125,-35.0,-1,1.0,0.6770000000000209
46,2,0.5,0.125,-35.0,-1,1.0,0.20959999999996626
47,2,0.5,0.125,35.0,1,1.0,0.2625009999999577
48,2,0.5,0.0,35.0,-1,0.0,0.24800000000001887
49,2,0.5,0.25,35.0,1,1.0,0.22400000000001796
50,2,0.5,0.125,35.0,1,1.0,0.20600000000001728
51,2,0.5,1.0,35.0,1,1.0,0.23870000000002278
52,2,0.5,0.125,35.0,1,1.0,0.3422000000000196
53,2,0.5,1.0,-35.0,-1,1.0,0.14820000000000277
54,2,0.5,0.125,35.0,1,1.0,1.0997009999999818
55,2,0.5,0.0625,35.0,1,1.0,0.28900100000001316
56,2,0.5,0.25,35.0,1,1.0,0.2413010000000213
57,2,0.5,1.0,-35.0,-1,1.0,0.23310000000003583
58,2,0.5,0.125,-35.0,-1,1.0,0.19720100000000684
59,2,0.5,0.125,35.0,1,1.0,0.2192009999999982
60,2,0.5,0.125,-35.0,-1,1.0,0.9981010000000481
61,2,0.5,0.125,-35.0,-1,1.0,0.20530099999999152
62,2,0.5,0.0625,-35.0,1,0.0,0.3910009999999886
63,2,0.5,1.0,35.0,1,1.0,0.23890099999999848
64,2,0.5,0.0,-35.0,1,0.0,9.967400999999995
65,2,0.5,0.125,35.0,1,1.0,0.2225010000000225
66,2,0.5,0.25,35.0,1,1.0,0.20260099999998715
67,2,0.5,0.0625,35.0,1,1.0,0.26190199999996366
68,2,0.5,1.0,35.0,1,1.0,0.3839009999999803
69,2,0.5,0.25,-35.0,-1,1.0,0.40490199999999277
70,2,0.5,0.25,-35.0,-1,1.0,1.6678009999999972
71,2,0.5,0.0,-35.0,1,0.0,0.24750099999999975
72,2,0.5,0.125,-35.0,-1,1.0,0.24290099999996073
73,2,0.5,0.25,35.0,1,1.0,0.20800099999996746
74,2,0.5,0.125,-35.0,-1,1.0,0.23110100000002376
75,2,0.5,1.0,-35.0,-1,1.0,0.23800099999994018
76,2,0.5,0.25,35.0,1,1.0,0.22720099999997956
77,2,0.5,0.0,-35.0,1,0.0,0.3042010000000346
78,2,0.5,0.0,-35.0,1,0.0,0.3323009999999158
79,2,0.5,0.125,35.0,1,1.0,0.20900099999994382
80,2,0.5,1.0,35.0,1,1.0,0.20610199999998713
81,2,0.5,0.0625,35.0,1,1.0,0.27090099999998074
82,2,0.5,1.0,35.0,1,1.0,0.4478009999999699
83,2,0.5,0.125,-35.0,-1,1.0,0.2145009999999843
84,2,0.5,0.125,-35.0,-1,1.0,0.25990099999995664
85,2,0.5,0.125,-35.0,-1,1.0,0.39400100000000293
86,2,0.5,0.25,35.0,1,1.0,0.20080099999995582
87,2,0.5,0.25,-35.0,-1,1.0,2.1070009999999684
88,2,0.5,0.0625,35.0,1,1.0,0.3348009999999704
89,2,0.5,0.0625,35.0,-1,0.0,0.24710199999998395
90,2,0.5,0.125,-35.0,-1,1.0,0.21670100000000048
91,2,0.2,0.125,35.0,1,1.0,0.26190100000002303
92,2,0.2,1.0,35.0,1,1.0,0.20980099999997037
93,2,0.2,0.125,35.0,1,1.0,0.2799009999999953
94,2,0.2,1.0,35.0,1,1.0,0.25110100000000557
95,2,0.2,1.0,35.0,1,1.0,0.696000999999967
96,2,0.2,0.125,35.0,1,1.0,0.35000199999996084
97,2,0.2,1.0,35.0,1,1.0,0.1872009999999591
98,2,0.2,0.0,35.0,1,1.0,0.4599019999999996
99,2,0.2,0.125,35.0,1,1.0,0.23190099999999347
100,2,0.2,0.125,35.0,1,1.0,2.6968009999999936
101,2,0.2,0.25,35.0,1,1.0,0.311600999999996
102,2,0.2,0.25,35.0,1,1.0,0.24090100000000803
103,2,0.2,1.0,35.0,1,1.0,0.21980100000001812
104,2,0.2,0.125,35.0,1,1.0,0.23130099999997356
105,2,0.2,0.125,-35.0,-1,1.0,1.352500999999961
106,2,0.2,0.0,35.0,-1,0.0,4.6699010000000385
107,2,0.2,0.125,35.0,1,1.0,0.2298020000000065
108,2,0.2,0.0625,-35.0,-1,1.0,0.25180199999999786
109,2,0.2,0.0,-35.0,1,0.0,0.23940099999998665
110,2,0.2,0.25,35.0,1,1.0,0.2051010000000133
111,2,0.2,0.0,35.0,-1,0.0,0.3002010000000155
112,2,0.2,1.0,35.0,1,1.0,0.23420099999998456
113,2,0.2,0.25,35.0,1,1.0,0.20180099999998902
114,2,0.2,0.0,35.0,1,1.0,0.2609019999999873
115,2,0.2,1.0,-35.0,-1,1.0,0.2948019999999474
116,2,0.2,1.0,-35.0,-1,1.0,0.25380100000000994
117,2,0.2,0.25,35.0,1,1.0,0.27100099999995564
118,2,0.2,1.0,35.0,1,1.0,0.23600099999998747
119,2,0.2,0.0625,35.0,1,1.0,0.4353009999999813
120,2,0.2,0.25,35.0,1,1.0,0.2521009999999819
121,2,0.2,0.0625,35.0,1,1.0,1.623500999999976
122,2,0.2,1.0,35.0,1,1.0,0.2526009999999701
123,2,0.2,0.0,35.0,1,1.0,0.2520009999999502
124,2,0.2,0.125,35.0,1,1.0,0.23780099999999038
125,2,0.2,0.25,-35.0,-1,1.0,0.20940100000001394
126,2,0.2,0.0625,35.0,1,1.0,0.22820100000001275
127,2,0.2,1.0,35.0,1,1.0,0.21070100000002867
128,2,0.2,0.0625,-35.0,-1,1.0,0.24200099999995928
129,2,0.2,0.25,35.0,1,1.0,0.24280100000004268
130,2,0.2,0.125,35.0,1,1.0,2.061802
131,2,0.2,0.25,-35.0,-1,1.0,0.1941009999999892
132,2,0.2,0.0625,35.0,1,1.0,0.26050099999997656
133,2,0.2,0.0,35.0,1,1.0,0.2569009999999139
134,2,0.2,0.25,35.0,1,1.0,0.21670100000000048
135,2,0.2,0.0625,35.0,1,1.0,0.2601009999999633
136,2,0.2,0.0,35.0,1,1.0,0.33050099999996974
137,2,0.2,0.0,35.0,1,1.0,0.26330100000001266
138,2,0.2,1.0,-35.0,-1,1.0,0.21970099999998638
139,2,0.2,1.0,35.0,1,1.0,0.17570100000000366
140,2,0.2,0.0,35.0,1,1.0,0.28970099999997956
141,2,0.2,0.0,-35.0,1,0.0,9.548701000000051
142,2,0.2,0.0,35.0,-1,0.0,0.38340099999993527
143,2,0.2,0.125,-35.0,-1,1.0,0.24810199999990346
144,2,0.8,1.0,35.0,1,1.0,0.21260100000006332
145,2,0.8,1.0,35.0,1,1.0,0.21980099999996128
146,2,0.8,0.25,-35.0,-1,1.0,0.2069010000000162
147,2,0.8,0.125,-35.0,-1,1.0,0.23300099999994472
148,2,0.8,0.0625,-35.0,1,0.0,0.34490200000004734
149,2,0.8,1.0,-35.0,-1,1.0,0.18980100000010225
150,2,0.8,1.0,-35.0,-1,1.0,0.20230099999992035
151,2,0.8,0.0,-35.0,-1,1.0,0.2617010000000164
152,2,0.8,0.125,-35.0,1,0.0,0.8808009999999058
153,2,0.8,0.125,-35.0,-1,1.0,0.2132010000000264
154,2,0.8,0.125,-35.0,1,0.0,0.639801000000034
155,2,0.8,0.125,-35.0,-1,1.0,0.2637009999999691
156,2,0.8,0.0,-35.0,1,0.0,0.39740099999994527
157,2,0.8,0.25,35.0,1,1.0,0.22080100000005132
158,2,0.8,0.125,-35.0,-1,1.0,0.21070099999997183
159,2,0.8,0.0625,-35.0,-1,1.0,1.2093009999998685
160,2,0.8,0.25,-35.0,-1,1.0,0.21180099999992308
161,2,0.8,0.0625,35.0,1,1.0,0.2937010000000555
162,2,0.8,0.125,-35.0,-1,1.0,0.22680100000002312
163,2,0.8,0.25,-35.0,-1,1.0,1.5785010000000739
164,2,0.8,0.0625,-35.0,-1,1.0,0.24870099999998274
165,2,0.8,1.0,-35.0,-1,1.0,0.21030100000007224
166,2,0.8,0.125,-35.0,-1,1.0,0.32110099999988506
167,2,0.8,1.0,-35.0,-1,1.0,0.20800099999996746
168,2,0.8,0.25,-35.0,-1,1.0,0.22890099999995073
169,2,0.8,0.0,-35.0,1,0.0,0.3721009999999296
170,2,0.8,0.25,-35.0,-1,1.0,0.22410200000001623
171,2,0.8,0.125,-35.0,-1,1.0,0.23220199999991564
172,2,0.8,0.25,-35.0,-1,1.0,0.19210099999997965
173,2,0.8,0.125,35.0,1,1.0,0.2371010000000524
174,2,0.8,0.0625,-35.0,1,0.0,0.38180099999999584
175,2,0.8,0.0,-35.0,1,0.0,0.3930009999999129
176,2,0.8,0.25,-35.0,-1,1.0,0.2714019999999664
177,2,0.2,0.125,35.0,1,1.0,0.2478009999999813
178,2,0.2,1.0,35.0,1,1.0,0.9587010000000191
179,2,0.2,0.25,35.0,1,1.0,2.4834010000000717
180,2,0.2,1.0,-35.0,-1,1.0,0.20620099999996455
181,2,0.2,0.25,35.0,1,1.0,0.24890099999993254
182,2,0.2,0.25,-35.0,-1,1.0,0.23670100000003913
183,2,0.2,1.0,35.0,1,1.0,0.20090099999993072
184,2,0.2,0.25,35.0,1,1.0,0.25230100000010225
185,2,0.2,0.25,35.0,1,1.0,0.2367020000000366
186,2,0.2,1.0,35.0,1,1.0,0.2275009999999611
187,2,0.2,0.25,35.0,1,1.0,0.2540010000000166
188,2,0.2,0.125,35.0,1,1.0,0.32670100000007096
189,2,0.2,0.0625,35.0,1,1.0,0.24800200000004224
190,2,0.2,0.0,35.0,1,1.0,2.4041009999999687
191,2,0.2,0.125,35.0,1,1.0,0.2652019999999311
192,2,0.2,0.125,-35.0,-1,1.0,0.3177010000000564
193,2,0.2,0.0625,35.0,1,1.0,0.24260099999992235
194,2,0.2,0.25,-35.0,-1,1.0,0.22470099999998183
195,2,0.2,0.0625,35.0,1,1.0,0.24420099999997547
196,2,0.2,0.125,35.0,1,1.0,0.19080099999996492
197,2,0.2,1.0,35.0,1,1.0,0.28330099999993763
198,2,0.2,1.0,35.0,1,1.0,0.23060199999997621
199,2,0.2,1.0,35.0,1,1.0,0.21610199999997803
200,2,0.2,1.0,-35.0,-1,1.0,1.1769009999999298
201,2,0.2,0.0625,35.0,1,1.0,0.2619009999999662
202,2,0.2,0.25,35.0,1,1.0,0.21190099999989798
203,2,0.2,0.25,35.0,1,1.0,0.2677009999999882
204,2,0.2,0.0,35.0,-1,0.0,8.694800999999984
205,2,0.2,0.125,35.0,1,1.0,0.49460099999987506
206,2,0.2,0.0,35.0,1,1.0,0.3387009999999009
207,2,0.2,0.0625,35.0,1,1.0,0.27270099999998365
208,2,0.2,0.0,-35.0,1,0.0,0.40560099999993326
209,2,0.2,0.0,35.0,1,1.0,0.2963009999999713
210,2,0.2,0.25,35.0,1,1.0,0.28870099999994636
211,2,0.2,1.0,-35.0,-1,1.0,0.21000100000003386
212,2,0.2,1.0,35.0,1,1.0,1.2227010000000291
213,2,0.2,0.25,35.0,1,1.0,0.23320200000000568
214,2,0.2,0.0,35.0,-1,0.0,0.7919009999999389
215,2,0.2,0.0,35.0,1,1.0,0.31070100000010825
216,2,0.2,1.0,35.0,1,1.0,0.25270099999988815
217,2,0.2,0.25,35.0,1,1.0,0.2451010000000906
218,2,0.2,1.0,35.0,1,1.0,0.20250099999998383
219,2,0.2,0.0625,35.0,1,1.0,0.2556010000000697
220,2,0.2,0.0625,-35.0,-1,1.0,0.22160100000007787
221,2,0.2,0.25,-35.0,-1,1.0,0.24580100000002858
222,2,0.2,1.0,35.0,1,1.0,0.27280099999995855
223,2,0.2,1.0,35.0,1,1.0,0.2072009999999409
224,2,0.2,0.0625,35.0,1,1.0,0.2699009999998907
225,2,0.2,0.125,35.0,1,1.0,0.2960010000000466
226,2,0.2,0.125,35.0,1,1.0,0.22340199999996457
227,2,0.2,0.0625,35.0,1,1.0,0.24440099999992526
228,2,0.2,0.25,35.0,1,1.0,0.21460099999990234
229,2,0.2,1.0,35.0,1,1.0,0.21420100000000275
230,2,0.2,0.25,35.0,1,1.0,0.2516010000000506
231,2,0.2,1.0,-35.0,-1,1.0,0.25260099999991326
232,2,0.2,1.0,-35.0,-1,1.0,0.19460100000003422
233,2,0.2,0.125,35.0,1,1.0,0.24970100000007278
234,2,0.2,0.25,35.0,1,1.0,0.30490100000008624
235,2,0.2,0.25,35.0,1,1.0,0.25430099999994127
236,2,0.2,0.0625,35.0,1,1.0,0.2676019999998971
237,2,0.2,0.0,35.0,1,1.0,10.531501000000048
238,2,0.2,1.0,35.0,1,1.0,0.23770100000001548
239,2,0.2,1.0,35.0,1,1.0,0.21610099999998056
240,2,0.2,1.0,35.0,1,1.0,0.2171009999999569
241,2,0.2,0.0625,-35.0,1,0.0,0.1208009999999149
242,2,0.2,0.0625,35.0,1,1.0,0.3397009999999909
243,2,0.2,0.125,35.0,1,1.0,0.12070100000005368
244,2,0.2,0.25,35.0,1,1.0,0.24950200000000677
245,2,0.2,0.25,35.0,1,1.0,0.2652020000000448
246,2,0.2,0.125,-35.0,-1,1.0,0.2915009999999256
247,2,0.2,0.0625,35.0,1,1.0,0.47250099999996564
248,2,0.2,0.25,-35.0,-1,1.0,0.20870099999990543
249,2,0.8,0.25,-35.0,-1,1.0,0.19450099999994563
250,2,0.8,0.0,-35.0,-1,1.0,3.2868010000000822
251,2,0.8,0.125,35.0,1,1.0,1.1295010000000048
252,2,0.8,0.0625,35.0,1,1.0,0.25680099999999584
253,2,0.8,0.25,-35.0,-1,1.0,0.23650099999997565
254,2,0.8,0.0,-35.0,1,0.0,0.24830100000008315
255,2,0.8,0.0625,-35.0,-1,1.0,0.2615009999999529
256,2,0.8,0.125,35.0,1,1.0,0.3295010000000502
257,2,0.8,0.25,-35.0,-1,1.0,0.22130199999992328
258,2,0.8,1.0,-35.0,-1,1.0,0.19450099999994563
259,2,0.8,0.0,35.0,1,1.0,2.2172019999999293
260,2,0.8,0.0,-35.0,1,0.0,0.33510100000000875
261,2,0.8,0.25,-35.0,-1,1.0,0.20130199999994147
262,2,0.8,0.25,-35.0,-1,1.0,0.2195009999999229
263,2,0.8,1.0,-35.0,-1,1.0,0.21460100000001603
264,2,0.8,0.0625,-35.0,-1,1.0,0.26620100000002367
265,2,0.8,0.0625,-35.0,1,0.0,11.27090099999998
266,2,0.8,0.0,-35.0,1,0.0,0.2715009999999438
267,2,0.8,0.125,-35.0,-1,1.0,0.31080100000008315
268,2,0.8,0.0,35.0,1,1.0,0.3317010000000664
269,2,0.8,0.25,35.0,1,1.0,0.2310019999999895
270,2,0.8,0.25,-35.0,-1,1.0,0.27850100000000566
271,2,0.8,0.0625,35.0,1,1.0,0.26450099999999566
272,2,0.8,1.0,-35.0,-1,1.0,0.25870099999997365
273,2,0.8,1.0,-35.0,-1,1.0,0.22790099999997437
274,2,0.8,1.0,-35.0,-1,1.0,0.21190100000012535
275,2,0.8,1.0,35.0,1,1.0,0.8814010000000962
276,2,0.8,0.25,35.0,1,1.0,0.3655010000002221
277,2,0.8,0.0625,-35.0,-1,1.0,0.331501000000344
278,2,0.2,0.0625,35.0,1,1.0,0.2688010000001668
279,2,0.2,0.0,35.0,1,1.0,0.2917009999998754
280,2,0.2,0.125,35.0,1,1.0,0.24650100000008024
281,2,0.2,0.25,35.0,1,1.0,0.2651010000001861
282,2,0.2,0.25,-35.0,-1,1.0,0.7825010000001384
283,2,0.2,0.25,35.0,1,1.0,0.245401000000129
284,2,0.2,0.0,35.0,1,1.0,0.3465009999999893
285,2,0.2,0.0625,35.0,1,1.0,0.9354010000001836
286,2,0.2,0.125,35.0,1,1.0,1.4034010000000308
287,2,0.2,0.125,35.0,1,1.0,0.2589010000003782
288,2,0.2,0.0,35.0,1,1.0,0.3464010000000144
289,2,0.2,0.0625,35.0,1,1.0,0.3090010000003076
290,2,0.2,0.0625,35.0,1,1.0,0.273401000000149
291,2,0.2,1.0,35.0,1,1.0,0.23580200000014884
292,2,0.2,0.0,35.0,-1,0.0,0.24660100000005514
293,2,0.2,0.125,-35.0,-1,1.0,0.24270100000012462
294,2,0.2,0.0625,35.0,1,1.0,0.2634010000001581
295,2,0.2,0.25,35.0,1,1.0,0.17940100000009807
296,2,0.2,1.0,35.0,1,1.0,0.5870010000001002
297,2,0.2,1.0,35.0,1,1.0,0.23630100000013954
298,2,0.2,0.25,35.0,1,1.0,0.2371010000001661
299,2,0.2,0.25,35.0,1,1.0,0.21300100000030397
300,2,0.2,1.0,-35.0,-1,1.0,0.2336009999999078
301,2,0.2,0.0,35.0,1,1.0,0.423001000000113
302,2,0.2,0.125,35.0,1,1.0,0.2675010000002658
303,2,0.2,0.25,35.0,1,1.0,0.3298019999999724
304,2,0.2,1.0,35.0,1,1.0,2.2744010000001254
305,2,0.2,0.0625,35.0,1,1.0,0.9367010000000846
306,2,0.2,0.0625,35.0,1,1.0,0.29080100000010134
307,2,0.2,1.0,35.0,1,1.0,0.24360100000012608
308,2,0.2,0.0,35.0,1,1.0,0.3474010000002181
309,2,0.2,0.0625,35.0,1,1.0,0.257001000000173
310,2,0.2,1.0,-35.0,-1,1.0,0.2114010000000235
311,2,0.2,1.0,35.0,1,1.0,0.22040100000003804
312,2,0.2,0.25,35.0,1,1.0,0.2712010000000191
313,2,0.2,1.0,35.0,1,1.0,0.24380100000007587
314,2,0.2,0.0,35.0,1,1.0,0.307901000000129
315,2,0.2,0.0,35.0,1,1.0,0.31740100000001803
316,2,0.8,0.25,-35.0,-1,1.0,0.2953010000001086
317,2,0.8,1.0,35.0,1,1.0,0.21730100000013408
318,2,0.8,0.0625,-35.0,-1,1.0,0.268402000000151
319,2,0.8,0.0,-35.0,1,0.0,0.27420100000017555
320,2,0.8,0.0625,-35.0,-1,1.0,0.23830100000009224
321,2,0.8,0.25,35.0,1,1.0,0.20770100000027014
322,2,0.8,0.125,-35.0,-1,1.0,0.21240200000033838
323,2,0.8,0.0625,-35.0,1,0.0,0.3843010000000504
324,2,0.8,0.0,-35.0,1,0.0,0.26570100000026287
325,2,0.8,0.0,-35.0,1,0.0,0.26800100000014027
326,2,0.8,1.0,-35.0,-1,1.0,0.2157009999998536
327,2,0.8,0.0625,35.0,1,1.0,0.24830100000008315
328,2,0.8,0.0,-35.0,1,0.0,0.29910100000006423
329,2,0.8,0.0625,-35.0,-1,1.0,0.291501000000153
330,2,0.8,0.0,-35.0,1,0.0,0.30900100000008024
331,2,0.8,1.0,-35.0,-1,1.0,0.20830100000011953
332,2,0.8,0.0625,-35.0,-1,1.0,0.27630199999998695
333,2,0.8,0.0625,35.0,1,1.0,0.2553009999999176
334,2,0.8,0.25,-35.0,-1,1.0,0.2528010000000904
335,2,0.8,0.125,-35.0,-1,1.0,0.2386010000002443
336,2,0.8,1.0,-35.0,-1,1.0,0.25030100000026323
337,2,0.8,1.0,-35.0,-1,1.0,1.7355019999999968
338,2,0.8,0.0625,-35.0,-1,1.0,0.28330099999993763
339,2,0.8,0.125,35.0,1,1.0,0.24560100000007878
340,2,0.8,0.0,-35.0,1,0.0,0.3034010000001217
341,2,0.8,1.0,-35.0,-1,1.0,0.22590100000024904
342,2,0.8,0.0625,-35.0,-1,1.0,0.2533009999999649
343,2,0.8,0.25,35.0,1,1.0,0.2294010000000526
344,2,0.8,0.125,-35.0,-1,1.0,0.2499009999999089
345,2,0.8,0.125,-35.0,-1,1.0,0.2495010000000093
346,2,0.8,1.0,-35.0,-1,1.0,0.2335009999999329
347,2,0.8,1.0,-35.0,-1,1.0,0.18290200000024015
348,2,0.8,0.0625,-35.0,-1,1.0,0.2239009999998416
349,2,0.8,0.0625,35.0,1,1.0,0.27630100000010316
350,2,0.8,1.0,-35.0,-1,1.0,0.2375010000000657
351,2,0.8,0.0625,-35.0,-1,1.0,0.2797010000001592
352,2,0.8,0.0625,35.0,1,1.0,0.2873010000000704
353,2,0.8,1.0,-35.0,-1,1.0,0.2098020000003089
354,2,0.8,0.0,-35.0,1,0.0,0.3443010000000868
355,2,0.2,0.0,35.0,1,1.0,0.48010100000010425
356,2,0.2,1.0,35.0,1,1.0,0.23770100000001548
357,2,0.2,0.25,35.0,1,1.0,0.24680100000000493
358,2,0.2,0.125,35.0,1,1.0,0.37760100000014063
359,2,0.2,0.0,35.0,-1,0.0,11.707002000000102
360,2,0.2,0.25,-35.0,-1,1.0,0.2149010000000544
361,2,0.2,0.0625,35.0,1,1.0,0.32040100000017446
362,2,0.2,0.125,-35.0,-1,1.0,0.21800100000018574
363,2,0.2,0.0,35.0,1,1.0,0.4141019999999571
364,2,0.2,0.0,-35.0,-1,1.0,0.3217010000003029
365,2,0.2,1.0,35.0,1,1.0,0.2443020000002889
366,2,0.2,1.0,35.0,1,1.0,0.2453010000001541
367,2,0.2,0.125,35.0,1,1.0,0.29130099999997583
368,2,0.2,0.25,35.0,1,1.0,0.2651010000001861
369,2,0.2,0.125,35.0,1,1.0,0.2612010000000282
370,2,0.2,0.0625,-35.0,-1,1.0,0.2619010000000799
371,2,0.2,0.0,35.0,1,1.0,10.057802000000265
372,2,0.2,0.0625,35.0,1,1.0,0.3559010000001308
373,2,0.2,0.0625,35.0,1,1.0,0.2714009999999689
374,2,0.2,0.0625,35.0,1,1.0,0.24230099999999766
375,2,0.2,0.125,35.0,1,1.0,0.2817010000001119
376,2,0.2,0.125,35.0,1,1.0,0.2491010000001097
377,2,0.2,1.0,35.0,1,1.0,0.2652020000000448
378,2,0.2,0.125,35.0,1,1.0,0.25580100000024686
379,2,0.2,0.0,-35.0,1,0.0,6.835101000000122
380,2,0.2,0.0625,35.0,1,1.0,0.2896010000001752
381,2,0.2,0.0625,35.0,1,1.0,0.2655009999998583
382,2,0.2,1.0,-35.0,-1,1.0,0.26020100000005186
383,2,0.2,1.0,-35.0,-1,1.0,0.238901000000169
384,2,0.2,0.125,35.0,1,1.0,0.2296010000000024
385,2,0.2,1.0,35.0,1,1.0,0.25910099999987324
386,2,0.2,0.25,35.0,1,1.0,0.2031010000000606
387,2,0.2,1.0,-35.0,-1,1.0,0.23580199999992146
388,2,0.2,0.25,35.0,1,1.0,0.22640200000000732
389,2,0.2,0.0,35.0,1,1.0,9.722601000000168
390,2,0.2,0.25,-35.0,-1,1.0,0.2273009999998976
391,2,0.2,0.0,35.0,1,1.0,0.2862009999998918
392,2,0.8,0.0,35.0,1,1.0,0.717202000000043
393,2,0.8,0.125,-35.0,-1,1.0,0.3264010000000326
394,2,0.8,0.125,-35.0,-1,1.0,0.2704020000001037
395,2,0.8,1.0,-35.0,-1,1.0,0.2232010000000173
396,2,0.8,0.0625,35.0,1,1.0,0.22720099999992271
397,2,0.8,0.25,35.0,1,1.0,0.21020100000009734
398,2,0.8,0.0625,-35.0,-1,1.0,0.3573010000002341
399,2,0.8,0.0,-35.0,1,0.0,0.273401000000149
400,2,0.8,0.25,-35.0,-1,1.0,0.23780099999999038
401,2,0.8,1.0,-35.0,-1,1.0,3.1436009999999897
402,2,0.8,0.0625,-35.0,1,0.0,23.8511010000002
403,2,0.8,0.0,-35.0,1,0.0,0.884101000000328
404,2,0.8,0.0,-35.0,1,0.0,0.318302000000358
405,2,0.8,0.0625,-35.0,-1,1.0,0.34110099999998056
406,2,0.8,0.25,-35.0,-1,1.0,0.3518010000000231
407,2,0.8,0.0,-35.0,1,0.0,0.30450100000007296
408,2,0.8,0.0,-35.0,1,0.0,17.652200999999877
409,2,0.8,0.0,35.0,1,1.0,25.355000999999902
410,2,0.8,1.0,-35.0,-1,1.0,0.4796010000000024
411,2,0.8,0.25,-35.0,-1,1.0,0.2655010000000857
412,2,0.8,0.125,-35.0,1,0.0,12.40640099999996
413,2,0.8,0.0,-35.0,1,0.0,3.8493009999999686
414,2,0.8,0.0625,-35.0,1,0.0,20.957101000000193
415,2,0.8,0.0,-35.0,1,0.0,24.899901
416,2,0.8,0.0,-35.0,1,0.0,8.448101000000179
417,2,0.8,0.0625,-35.0,1,0.0,7.091002000000117
418,2,0.8,0.0,-0.0,0,0.0,60.03500100000019
419,2,0.8,0.125,35.0,1,1.0,0.5667010000001937
420,2,0.8,0.25,-35.0,1,0.0,10.42280100000039
421,2,0.8,0.0,-35.0,1,0.0,27.296101000000135
422,2,0.8,0.25,-35.0,-1,1.0,24.19360100000017
423,2,0.8,0.0625,-35.0,-1,1.0,14.717000999999982
424,2,0.8,0.125,-35.0,1,0.0,1.4046010000001843
425,2,0.8,0.125,-35.0,1,0.0,5.810701000000108
426,2,0.8,0.0,-0.0,0,0.0,60.03160100000014
427,2,0.8,0.0,-35.0,-1,1.0,19.193201000000045
428,2,0.8,0.25,-35.0,-1,1.0,0.6925009999999929
429,2,0.8,0.25,35.0,1,1.0,2.553102000000081
430,2,0.8,0.0,-35.0,1,0.0,0.2593010000000504
431,2,0.8,0.0625,-35.0,1,0.0,0.49010100000009515
432,2,0.8,0.125,-35.0,-1,1.0,0.5294010000000071
433,2,0.8,0.0625,-35.0,1,0.0,0.35360100000002603
434,2,0.8,0.125,-35.0,-1,1.0,0.2530010000002676
435,2,0.8,1.0,-35.0,-1,1.0,0.2971010000001115
436,2,0.8,1.0,-35.0,-1,1.0,1.6899020000000746
437,2,0.8,0.0625,35.0,1,1.0,0.27720099999987724
438,2,0.8,1.0,-35.0,-1,1.0,0.1966010000001006
439,2,0.8,1.0,-35.0,-1,1.0,0.21750100000008388
440,2,0.8,0.0625,35.0,1,1.0,0.2900009999998474
441,2,0.8,0.0625,-35.0,1,0.0,0.26760099999955855
442,2,0.8,0.25,-35.0,-1,1.0,0.24690099999952508
443,2,0.8,0.0625,-35.0,1,0.0,3.344900999999936
444,2,0.8,1.0,-35.0,-1,1.0,0.2205010000002403
445,2,0.8,1.0,-35.0,-1,1.0,0.21790099999998347
446,2,0.8,0.0,35.0,1,1.0,1.6172010000000228
447,2,0.8,0.0,-35.0,-1,1.0,0.2589010000001508
448,2,0.8,0.0,35.0,1,1.0,0.3241019999995842
449,2,0.8,0.25,-35.0,-1,1.0,1.0582009999998263
450,2,0.8,0.125,-35.0,1,0.0,0.40830199999936667
451,2,0.8,0.0,-35.0,1,0.0,12.105400999999802
452,2,0.8,1.0,35.0,1,1.0,0.27470099999982267
453,2,0.2,0.25,-35.0,-1,1.0,0.24230100000022503
454,2,0.2,1.0,-35.0,-1,1.0,0.20150100000000748
455,2,0.2,0.0,35.0,1,1.0,0.27210199999990436
456,2,0.2,0.25,35.0,1,1.0,0.2619019999997363
457,2,0.2,0.0,35.0,1,1.0,0.30250200000000405
458,2,0.2,0.0625,35.0,1,1.0,0.2751020000000608
459,2,0.2,0.0625,35.0,1,1.0,0.2895010000002003
460,2,0.2,1.0,-35.0,-1,1.0,0.261801000000105
461,2,0.2,0.0625,35.0,1,1.0,0.286000999999942
462,2,0.2,0.0625,35.0,1,1.0,0.34190199999966353
463,2,0.2,1.0,35.0,1,1.0,0.2395010000000184
464,2,0.2,1.0,-35.0,-1,1.0,0.23220099999934973
465,2,0.2,1.0,35.0,1,1.0,0.21620100000018283
466,2,0.2,0.125,35.0,1,1.0,0.24560100000007878
467,2,0.2,0.25,35.0,1,1.0,0.3097020000000157
468,2,0.2,0.0,-35.0,1,0.0,0.49240199999985634
469,2,0.2,0.0625,35.0,1,1.0,0.329801000000316
470,2,0.2,0.25,35.0,-1,0.0,0.15250099999957456
471,2,0.2,0.0,-35.0,1,0.0,0.31340099999988524
472,2,0.2,0.0625,35.0,1,1.0,0.29280100000005405
473,2,0.2,0.0,35.0,1,1.0,0.49360200000000987
474,2,0.2,1.0,-35.0,-1,1.0,0.2398009999997157
475,2,0.2,0.0,35.0,1,1.0,11.073801000000003
476,2,0.2,0.0,35.0,1,1.0,0.43980099999998856
477,2,0.2,1.0,-35.0,-1,1.0,0.7041010000002643
478,2,0.2,1.0,35.0,1,1.0,0.25320100000044476
479,2,0.8,1.0,-35.0,-1,1.0,0.22440199999982724
480,2,0.8,0.0,35.0,1,1.0,0.3268009999997048
481,2,0.8,0.25,-35.0,-1,1.0,0.2376009999998132
482,2,0.8,0.125,-35.0,1,0.0,19.183800999999676
483,2,0.8,0.25,35.0,1,1.0,0.29480100000000675
484,2,0.8,0.25,-35.0,-1,1.0,0.25400100000024395
485,2,0.8,0.0625,35.0,1,1.0,16.42520099999956
486,2,0.8,0.125,-35.0,-1,1.0,0.25780200000008335
487,2,0.8,0.0625,-35.0,1,0.0,11.325200999999652
488,2,0.8,0.0625,-35.0,-1,1.0,0.27150099999971644
489,2,0.8,0.25,35.0,1,1.0,0.2758009999997739
490,2,0.8,0.125,35.0,1,1.0,0.23830099999986487
491,2,0.8,0.0625,35.0,1,1.0,3.165700999999899
492,2,0.8,1.0,-35.0,-1,1.0,0.23170100000015736
493,2,0.8,0.0,-35.0,1,0.0,0.2759009999999762
494,2,0.8,0.0625,-35.0,-1,1.0,0.28210100000023886
495,2,0.8,0.0,-35.0,1,0.0,0.35590099999990343
496,2,0.8,0.0,-35.0,1,0.0,0.4188009999993483
497,2,0.8,0.0625,-35.0,-1,1.0,0.686301000000185
498,2,0.8,0.25,-35.0,-1,1.0,0.3189009999996415
499,2,0.8,0.0,-35.0,1,0.0,0.2931020000000899
500,2,0.8,1.0,-35.0,-1,1.0,0.2257009999998445
501,2,0.8,0.125,-35.0,-1,1.0,0.3468009999996866
502,2,0.8,0.0,-35.0,1,0.0,0.29270199999973556
503,2,0.8,0.0,-35.0,1,0.0,0.38000099999999293
504,2,0.8,0.25,-35.0,-1,1.0,0.2694010000000162
505,2,0.8,0.0,-35.0,1,0.0,1.2837009999998372
506,2,0.8,1.0,-35.0,-1,1.0,0.1996009999998023
507,2,0.8,1.0,-35.0,-1,1.0,0.24690099999997983
508,2,0.8,0.25,35.0,1,1.0,0.25290099999983795
509,2,0.8,1.0,-35.0,-1,1.0,0.21710099999972954
510,2,0.8,0.0625,-35.0,-1,1.0,0.24670100000003004
511,2,0.8,0.125,35.0,1,1.0,0.24410100000022794
512,2,0.8,0.0625,-35.0,-1,1.0,18.183200999999826
513,2,0.8,0.125,35.0,1,1.0,0.3044019999997545
514,2,0.8,0.0,35.0,1,1.0,13.397002000000157
515,2,0.8,0.0,-35.0,-1,1.0,4.508700999999746
516,2,0.8,0.0625,-35.0,-1,1.0,0.6408009999995556
517,2,0.8,0.25,35.0,1,1.0,0.2483009999996284
518,2,0.8,0.125,-35.0,-1,1.0,0.2677009999997608
519,2,0.8,0.25,-35.0,-1,1.0,0.23220099999980448
520,2,0.2,0.125,35.0,1,1.0,0.3179019999997763
521,2,0.2,0.25,35.0,1,1.0,0.2555010000000948
522,2,0.2,0.0,-35.0,1,0.0,0.27460100000007515
523,2,0.2,0.0625,35.0,1,1.0,0.25880099999994854
524,2,0.2,0.125,35.0,1,1.0,0.28150099999948
525,2,0.2,0.0,-35.0,1,0.0,19.322701000000052
526,2,0.2,0.0,35.0,1,1.0,0.32870099999991
527,2,0.2,0.0,-35.0,1,0.0,0.2767009999997754
528,2,0.2,0.0625,35.0,1,1.0,0.2556009999998423
529,2,0.2,0.0,35.0,1,1.0,0.3164010000000417
530,2,0.2,0.0,35.0,1,1.0,0.41880200000014156
531,2,0.2,0.0,-35.0,1,0.0,0.27290099999981976
532,2,0.2,0.125,35.0,1,1.0,0.2692019999999502
533,2,0.2,0.0625,35.0,1,1.0,0.27660100000002785
534,2,0.2,0.125,35.0,1,1.0,0.2558009999997921
535,2,0.2,1.0,35.0,1,1.0,1.7932009999999536
536,2,0.2,0.25,35.0,1,1.0,0.4593009999998685
537,2,0.2,0.25,35.0,1,1.0,0.48670099999981176
538,2,0.2,0.0,35.0,1,1.0,8.932702000000063
539,2,0.2,0.0625,35.0,1,1.0,0.28060099999993326
540,2,0.2,0.125,35.0,1,1.0,0.2931010000002061
541,2,0.2,0.0,35.0,1,1.0,0.27730099999962476
542,2,0.2,1.0,35.0,1,1.0,0.9966009999998278
543,2,0.2,0.0625,35.0,1,1.0,0.9010009999997237
544,2,0.2,1.0,35.0,1,1.0,0.22010099999988597
545,2,0.2,0.125,35.0,1,1.0,0.24070099999971717
546,2,0.2,0.25,35.0,1,1.0,0.25670099999979357
547,2,0.2,0.125,35.0,1,1.0,0.2776010000002316
548,2,0.8,0.125,-35.0,-1,1.0,0.3436009999995804
549,2,0.8,0.0625,35.0,1,1.0,0.3786009999998896
550,2,0.8,1.0,35.0,1,1.0,0.20060100000000602
551,2,0.8,0.25,-35.0,-1,1.0,0.23130099999980303
552,2,0.8,1.0,35.0,1,1.0,0.22070099999973536
553,2,0.8,0.125,-35.0,-1,1.0,5.4548009999994065
554,2,0.8,0.125,35.0,1,1.0,0.2409010000001217
555,2,0.8,0.125,-35.0,-1,1.0,0.3017019999997501
556,2,0.8,0.125,-35.0,-1,1.0,0.2711020000001554
557,2,0.8,0.25,35.0,1,1.0,0.26870099999996455
558,2,0.8,0.125,35.0,1,1.0,0.2411010000000715
559,2,0.8,1.0,-35.0,-1,1.0,0.24520099999972444
560,2,0.8,0.0625,-35.0,1,0.0,12.668001000000004
561,2,0.8,1.0,35.0,1,1.0,0.2657009999998081
562,2,0.8,0.0625,-35.0,1,0.0,5.868401000000176
563,2,0.8,0.0,-35.0,1,0.0,10.259501000000455
564,2,0.8,0.0625,-35.0,1,0.0,0.6789020000001074
565,2,0.8,0.0625,-35.0,1,0.0,0.35290100000020175
566,2,0.8,0.125,35.0,1,1.0,0.325601000000006
567,2,0.8,0.0,-35.0,1,0.0,0.333100999999715
568,2,0.8,0.125,-35.0,-1,1.0,0.2692019999999502
569,2,0.8,0.125,-35.0,-1,1.0,0.3136010000002898
570,2,0.8,1.0,35.0,1,1.0,0.18590099999983067
571,2,0.8,0.0,-35.0,1,0.0,0.30000099999961094
572,2,0.8,0.0625,35.0,1,1.0,0.2828020000001743
573,2,0.8,1.0,-35.0,-1,1.0,0.21680100000003222
574,2,0.8,0.125,-35.0,-1,1.0,0.24620100000038292
575,2,0.8,1.0,-35.0,-1,1.0,0.190501999999924
576,2,0.8,0.0,-35.0,1,0.0,0.506300999999894
577,2,0.8,1.0,35.0,1,1.0,0.22380199999997785
578,2,0.8,0.25,-35.0,-1,1.0,0.2765009999998256
579,2,0.8,1.0,-35.0,-1,1.0,1.9006009999998241
580,2,0.8,1.0,-35.0,-1,1.0,0.22650099999964368
581,2,0.8,0.25,-35.0,-1,1.0,0.21750100000008388
582,2,0.8,0.125,-35.0,-1,1.0,0.22010199999976976
583,2,0.8,0.0,-35.0,1,0.0,0.3044009999998707
584,2,0.8,0.0,-35.0,1,0.0,10.990400999999565
585,2,0.8,0.25,-35.0,-1,1.0,0.2478009999999813
586,2,0.2,0.0625,35.0,1,1.0,0.26750099999981103
587,2,0.2,0.0625,-35.0,-1,1.0,10.528501000000233
588,2,0.2,0.0,-35.0,1,0.0,0.414400999999998
589,2,0.2,1.0,35.0,1,1.0,0.2617009999999027
590,2,0.2,0.25,35.0,1,1.0,0.24450100000012753
591,2,0.2,0.25,35.0,1,1.0,0.23850099999981467
592,2,0.2,0.25,35.0,1,1.0,0.23140199999988909
593,2,0.2,0.0,-35.0,1,0.0,1.4019020000000637
594,2,0.2,0.0625,35.0,1,1.0,0.33810200000016266
595,2,0.2,0.0625,35.0,1,1.0,0.475601999999526
596,2,0.2,1.0,35.0,1,1.0,0.21480099999962476
597,2,0.2,0.0,-35.0,-1,1.0,0.20920100000012098
598,2,0.2,0.25,35.0,1,1.0,0.2550019999998767
599,2,0.2,1.0,35.0,1,1.0,0.20580100000006496
600,2,0.2,0.0,35.0,1,1.0,0.33180099999981394
601,2,0.2,0.25,35.0,1,1.0,1.0628010000004906
602,2,0.2,1.0,35.0,1,1.0,0.21850099999983286
603,2,0.2,0.0625,35.0,1,1.0,0.5794019999998454
604,2,0.2,0.125,35.0,1,1.0,0.26870099999996455
605,2,0.2,0.0625,35.0,1,1.0,0.2564009999996415
606,2,0.2,0.125,35.0,-1,0.0,0.15880099999958475
607,2,0.2,0.0625,35.0,1,1.0,0.292500999999902
608,2,0.2,1.0,35.0,1,1.0,0.2364009999996597
609,2,0.2,1.0,35.0,1,1.0,0.2657009999998081
610,2,0.2,1.0,35.0,1,1.0,0.21350200000006225
611,2,0.2,0.0,35.0,1,1.0,0.9693010000000868
612,2,0.2,0.0,35.0,1,1.0,0.3165009999997892
613,2,0.2,0.0625,35.0,1,1.0,0.48260199999958786
614,2,0.2,1.0,-35.0,-1,1.0,0.21050100000002203
615,2,0.2,0.25,35.0,1,1.0,0.25620100000014645
616,2,0.2,0.25,35.0,1,1.0,0.24690099999952508
617,2,0.2,0.0625,35.0,1,1.0,0.343000999999731
618,2,0.2,0.25,35.0,1,1.0,0.24050199999965116
619,2,0.2,0.0625,35.0,1,1.0,0.2796020000000681
620,2,0.2,1.0,-35.0,-1,1.0,1.9975009999993745
621,2,0.2,0.25,35.0,1,1.0,0.20330099999955564
622,2,0.2,1.0,35.0,1,1.0,0.24740199999996548
623,2,0.2,0.0625,35.0,1,1.0,0.32010200000013356
624,2,0.2,0.25,-35.0,-1,1.0,0.19770100000005186
625,2,0.2,0.0625,35.0,1,1.0,0.28040099999998347
626,2,0.2,0.125,35.0,1,1.0,1.4544009999999616
627,2,0.2,0.125,35.0,1,1.0,0.2704020000001037
628,2,0.2,0.25,35.0,1,1.0,0.24780199999986507
629,2,0.2,0.0625,-35.0,1,0.0,0.36380099999996673
630,2,0.8,1.0,-35.0,-1,1.0,0.20460099999991144
631,2,0.8,0.25,-35.0,-1,1.0,0.2574009999998452
632,2,0.8,0.0,-35.0,1,0.0,7.1349009999999
633,2,0.8,0.0,-35.0,-1,1.0,0.28090100000008533
634,2,0.8,0.0,35.0,1,1.0,0.358400999999958
635,2,0.8,0.25,-35.0,-1,1.0,0.3576010000001588
636,2,0.8,0.0,-35.0,1,0.0,0.3054010000000744
637,2,0.8,0.125,-35.0,-1,1.0,0.4114009999998416
638,2,0.8,0.125,-35.0,-1,1.0,0.2587009999992915
639,2,0.8,0.25,35.0,1,1.0,0.2481009999996786
640,2,0.8,0.25,35.0,1,1.0,0.24900099999968006
641,2,0.8,0.25,-35.0,-1,1.0,0.23490099999980885
642,2,0.8,1.0,-35.0,-1,1.0,0.22640099999989616
643,2,0.8,0.0,-35.0,-1,1.0,7.594900999999936
644,2,0.8,0.0,-35.0,1,0.0,26.536401000000296
645,2,0.8,0.0,-35.0,-1,1.0,0.7125009999999747
646,2,0.8,0.25,-35.0,-1,1.0,0.3633009999994101
647,2,0.8,1.0,-35.0,-1,1.0,0.36940099999992526
648,2,0.8,1.0,-35.0,-1,1.0,0.22040100000003804
649,2,0.8,0.0,-35.0,1,0.0,0.30940099999997983
650,2,0.8,0.0625,-35.0,-1,1.0,0.8736009999997805
651,2,0.8,1.0,35.0,1,1.0,0.23300099999960366
652,2,0.8,0.0625,-35.0,-1,1.0,0.2770010000003822
653,2,0.8,0.25,35.0,1,1.0,0.26290199999948527
654,2,0.8,0.125,-35.0,-1,1.0,0.2704009999997652
655,2,0.8,0.0625,35.0,1,1.0,0.31330199999956676
656,2,0.8,0.0625,-35.0,1,0.0,0.3276019999998425
657,2,0.8,0.0,-35.0,1,0.0,26.000000999999884
658,2,0.8,0.125,-35.0,-1,1.0,0.29790100000036546
659,2,0.8,0.125,-35.0,-1,1.0,5.754300999999941
660,2,0.8,0.0625,35.0,1,1.0,0.29170099999964805
661,2,0.8,0.0625,-35.0,1,0.0,5.937700999999834
662,2,0.8,1.0,-35.0,-1,1.0,0.24230099999977028
663,2,0.2,0.25,35.0,1,1.0,0.23130100000025777
664,2,0.2,1.0,35.0,1,1.0,0.255301000000145
665,2,0.2,0.0625,35.0,1,1.0,0.2579009999999471
666,2,0.2,0.125,35.0,1,1.0,0.2955019999999422
667,2,0.2,0.0625,35.0,1,1.0,0.41490099999964514
668,2,0.2,0.125,35.0,1,1.0,0.26930099999981394
669,2,0.2,0.0,35.0,1,1.0,0.2915020000000368
670,2,0.2,0.0,35.0,1,1.0,4.915700999999899
671,2,0.2,1.0,35.0,1,1.0,0.25510099999974045
672,2,0.2,0.25,-35.0,-1,1.0,0.3533009999996466
673,2,0.2,0.125,35.0,1,1.0,0.4185010000001057
674,2,0.2,0.125,35.0,1,1.0,0.33290100000021994
675,2,0.2,0.0625,35.0,1,1.0,0.2490010000001348
676,2,0.2,0.25,35.0,1,1.0,0.25330099999973754
677,2,0.2,1.0,35.0,1,1.0,0.20240199999989272
678,2,0.2,0.125,-35.0,-1,1.0,0.323200999999699
679,2,0.2,0.25,35.0,1,1.0,0.1156009999995149
680,2,0.2,0.0,35.0,1,1.0,0.30330099999991944
681,2,0.2,0.0,35.0,1,1.0,0.3992009999997208
682,2,0.2,0.125,35.0,1,1.0,0.24340099999972153
683,2,0.2,0.0625,-35.0,1,0.0,0.4692019999997683
684,2,0.2,0.0625,35.0,1,1.0,0.3503009999999449
685,2,0.2,0.125,35.0,1,1.0,0.26630100000011225
686,2,0.2,0.0625,35.0,1,1.0,0.3343009999998685
687,2,0.2,0.0,-35.0,1,0.0,0.31300099999998565
688,2,0.2,1.0,35.0,1,1.0,0.23700099999950908
689,2,0.2,0.125,-35.0,-1,1.0,0.22630099999969389
690,2,0.2,0.125,35.0,1,1.0,0.24720099999967715
691,2,0.2,1.0,35.0,1,1.0,0.2266010000003007
692,2,0.2,0.0,35.0,1,1.0,0.36730100000022503
693,2,0.2,0.0,35.0,1,1.0,0.6101009999997586
694,2,0.2,0.125,35.0,1,1.0,0.49420199999985925
695,2,0.2,0.25,35.0,1,1.0,0.2502009999998336
696,2,0.2,0.0625,35.0,-1,0.0,4.68420100000003
697,2,0.2,0.0625,35.0,1,1.0,0.3504010000001472
698,2,0.2,0.0625,35.0,1,1.0,0.288101000000097
699,2,0.2,1.0,-35.0,-1,1.0,0.2739010000000235
700,2,0.2,0.25,35.0,1,1.0,0.2581009999998969
701,2,0.2,0.125,35.0,1,1.0,0.2242009999995389
702,2,0.2,1.0,35.0,1,1.0,0.4353009999999813
703,2,0.2,0.25,35.0,1,1.0,0.43430099999977756
704,2,0.2,0.0,35.0,1,1.0,0.3052010000001246
705,2,0.2,0.125,-35.0,-1,1.0,0.5376009999999951
706,2,0.2,0.125,35.0,1,1.0,0.2718009999998685
707,2,0.2,0.0625,35.0,1,1.0,0.2678009999999631
708,2,0.2,0.0625,35.0,1,1.0,0.7085009999996146
709,2,0.2,1.0,35.0,1,1.0,0.2713020000001052
710,2,0.2,0.125,35.0,1,1.0,0.2681009999996604
711,2,0.2,0.25,-35.0,-1,1.0,0.8157009999995353
712,2,0.2,0.125,35.0,1,1.0,0.2847009999995862
713,2,0.2,1.0,35.0,1,1.0,0.22920199999953184
714,2,0.2,0.0,35.0,1,1.0,0.2882009999998445
715,2,0.2,0.0,35.0,1,1.0,0.33220099999971353
716,2,0.2,0.0,35.0,1,1.0,0.32830099999955564
717,2,0.2,0.0625,35.0,1,1.0,0.31930099999999584
718,2,0.8,0.25,-35.0,-1,1.0,0.2253009999999449
719,2,0.8,0.0,-35.0,1,0.0,0.26320099999975355
720,2,0.8,0.125,-35.0,-1,1.0,0.22870100000000093
721,2,0.8,0.0625,-35.0,-1,1.0,0.8732009999998809
722,2,0.8,1.0,-35.0,-1,1.0,0.20560099999966042
723,2,0.8,0.125,-35.0,-1,1.0,0.263101000000006
724,2,0.8,0.0625,-35.0,-1,1.0,0.2490010000001348
725,2,0.8,0.125,35.0,1,1.0,0.2896009999999478
726,2,0.8,1.0,-35.0,-1,1.0,0.21250099999952
727,2,0.8,1.0,-35.0,-1,1.0,0.20370199999979377
728,2,0.8,0.0,-35.0,-1,1.0,0.3162010000000919
729,2,0.8,0.125,-35.0,-1,1.0,0.18020099999966988
730,2,0.8,1.0,-35.0,-1,1.0,0.1962020000000848
731,2,0.8,0.0625,35.0,1,1.0,0.3041009999997186
732,2,0.8,0.25,-35.0,-1,1.0,0.22320099999978993
733,2,0.8,1.0,-35.0,-1,1.0,0.2273019999997814
734,2,0.8,0.25,35.0,1,1.0,0.45640099999991435
735,2,0.8,0.125,-35.0,-1,1.0,0.23720099999991362
736,2,0.8,1.0,-35.0,-1,1.0,0.21330099999977392
737,2,0.8,1.0,-35.0,-1,1.0,0.2273009999998976
738,2,0.8,0.25,-35.0,-1,1.0,0.2101009999996677
739,2,0.8,0.0,-35.0,1,0.0,9.687500999999429
740,2,0.8,0.0625,-35.0,-1,1.0,0.29360099999985323
741,2,0.8,0.0,-35.0,1,0.0,0.3312009999995098
742,2,0.8,0.25,-35.0,-1,1.0,0.23060099999975137
743,2,0.8,0.0625,-35.0,-1,1.0,0.22470100000009552
744,2,0.8,0.25,-35.0,-1,1.0,0.22060099999998783
745,2,0.8,0.125,-35.0,-1,1.0,0.23130099999980303
746,2,0.8,0.125,35.0,1,1.0,0.27740099999982704
747,2,0.8,1.0,35.0,1,1.0,0.3581010000002607
748,2,0.8,0.25,-35.0,-1,1.0,0.24110099999961676
749,2,0.8,0.0625,-35.0,-1,1.0,0.29500099999995655
750,2,0.8,0.125,-35.0,-1,1.0,0.2411019999999553
751,2,0.8,0.25,-35.0,-1,1.0,0.23520099999950617
752,2,0.8,0.125,-35.0,-1,1.0,8.788000999999895
753,2,0.8,1.0,-35.0,1,0.0,1.069101000000046
754,2,0.8,0.0625,-35.0,-1,1.0,0.32510099999990416
755,2,0.8,0.25,-35.0,-1,1.0,0.2831009999995331
756,2,0.8,0.0625,-35.0,-1,1.0,5.091601000000082
757,2,0.8,0.0,-35.0,-1,1.0,0.719300999999632
758,2,0.8,0.125,-35.0,-1,1.0,0.25210100000003877
759,2,0.8,0.0625,-35.0,-1,1.0,0.30310099999996964
760,2,0.8,0.25,-35.0,-1,1.0,0.21880099999998492
761,2,0.8,0.25,-35.0,-1,1.0,0.22620099999949161
762,2,0.8,0.0,-35.0,1,0.0,3.315501000000495
763,2,0.8,0.125,-35.0,-1,1.0,0.2301019999995333
764,2,0.8,0.125,-35.0,-1,1.0,0.24240099999997256
765,2,0.8,0.0,35.0,1,1.0,0.45310199999948964
766,2,0.8,0.25,-35.0,-1,1.0,0.2625020000000404
767,2,0.8,0.125,-35.0,-1,1.0,0.7601009999993948
768,2,0.8,0.0,-35.0,1,0.0,0.8494009999999435
769,2,0.8,1.0,-35.0,-1,1.0,0.2270010000002003
770,2,0.8,0.125,-35.0,-1,1.0,0.4830010000000584
771,2,0.8,0.0625,-35.0,-1,1.0,0.700601000000006
772,2,0.8,0.0625,-35.0,-1,1.0,2.303001000000222
773,2,0.8,0.25,-35.0,-1,1.0,1.4843010000004142
774,2,0.8,0.25,-35.0,-1,1.0,0.4033009999998285
775,2,0.8,0.125,-35.0,-1,1.0,0.27810100000033344
776,2,0.8,0.0625,-35.0,0,0.0,60.03010200000017
777,2,0.8,1.0,-35.0,-1,1.0,5.464801999999963
778,2,0.8,0.125,-35.0,-1,1.0,0.801401000000169
779,2,0.8,0.0625,-35.0,-1,1.0,0.6791010000001734
780,2,0.8,0.25,35.0,1,1.0,0.27840100000003076
781,2,0.8,1.0,35.0,1,1.0,0.40920100000039383
782,2,0.8,0.0625,35.0,1,1.0,6.882001999999829
783,2,0.8,0.0625,-35.0,-1,1.0,23.633300999999847
784,2,0.2,1.0,35.0,1,1.0,0.33590199999935066
785,2,0.2,0.125,35.0,1,1.0,0.44350100000019665
786,2,0.2,0.0,35.0,-1,0.0,10.716002000000117
787,2,0.2,1.0,35.0,1,1.0,0.22720199999957913
788,2,0.2,0.125,-35.0,-1,1.0,0.5096009999997477
789,2,0.2,0.125,-35.0,-1,1.0,0.5004010000002381
790,2,0.2,0.25,35.0,1,1.0,0.29310199999963515
791,2,0.2,0.0,35.0,-1,0.0,20.604002000000037
792,2,0.2,0.25,35.0,1,1.0,0.27050099999996746
793,2,0.2,1.0,-35.0,-1,1.0,2.692000999999891
794,2,0.2,0.125,-35.0,-1,1.0,0.7271009999999478
795,2,0.2,0.0625,35.0,1,1.0,3.3080009999994218
796,2,0.2,0.0625,-35.0,-1,1.0,5.177300999999716
797,2,0.2,0.25,35.0,1,1.0,0.3720020000000659
798,2,0.2,0.0625,35.0,1,1.0,0.35800199999948745
799,2,0.2,0.125,35.0,1,1.0,3.9252010000000155
800,2,0.2,0.0,35.0,-1,0.0,37.90130100000033
801,2,0.2,0.0,35.0,1,1.0,5.396302000000105
802,2,0.2,0.0,-35.0,-1,1.0,26.275400999999874
803,2,0.2,0.125,35.0,1,1.0,7.990101999999752
804,2,0.2,1.0,-35.0,-1,1.0,0.8999010000002272
805,2,0.2,0.0625,35.0,1,1.0,15.003901999999925
806,2,0.2,0.0625,35.0,1,1.0,22.30690199999981
807,2,0.2,0.0,35.0,1,1.0,2.4280009999997674
808,2,0.2,0.0625,35.0,1,1.0,5.077400999999554
809,2,0.2,1.0,35.0,1,1.0,0.34820199999921897
810,2,0.2,0.125,35.0,1,1.0,0.3711009999997259
811,2,0.2,0.25,35.0,1,1.0,0.5385009999999966
812,2,0.2,0.0625,35.0,0,0.0,60.03120100000069
813,2,0.2,0.0,35.0,1,1.0,
814,2,0.2,1.0,35.0,1,1.0,0.2892009999995935
815,2,0.2,0.0,35.0,-1,0.0,52.32340099999965
816,2,0.2,0.0,35.0,1,1.0,24.557001000001037
817,2,0.2,0.0625,35.0,1,1.0,0.5888009999998758
818,2,0.2,0.0625,35.0,1,1.0,30.890902000001006
819,2,0.2,0.0625,35.0,1,1.0,45.60580200000095
820,2,0.2,0.25,35.0,1,1.0,0.4660010000006878
821,2,0.2,0.0625,35.0,1,1.0,2.377201000000241
822,2,0.2,0.125,-35.0,-1,1.0,0.5393009999997957
823,2,0.2,0.25,35.0,1,1.0,1.3001010000007227
824,2,0.2,0.125,35.0,1,1.0,0.3263010000009672
825,2,0.2,0.125,35.0,1,1.0,0.4207010000000082
826,2,0.2,0.25,35.0,1,1.0,0.35650100000020757
827,2,0.2,0.0,35.0,1,1.0,17.620600999999624
828,2,0.2,0.125,35.0,1,1.0,0.3936010000006718
829,2,0.2,0.125,35.0,1,1.0,0.3214010000001508
830,2,0.2,0.125,35.0,1,1.0,3.173800999999912
831,2,0.2,0.0625,35.0,1,1.0,0.42790100000001985
832,2,0.2,1.0,35.0,1,1.0,0.25730100000055245
833,2,0.2,0.0625,35.0,1,1.0,0.9813010000007125
834,2,0.2,1.0,-35.0,-1,1.0,0.3674010000004273
835,2,0.2,0.0,35.0,1,1.0,28.32850099999996
836,2,0.2,0.125,35.0,1,1.0,0.5481010000003153
837,2,0.2,1.0,35.0,1,1.0,0.23560100000122475
838,2,0.2,1.0,35.0,1,1.0,2.541602000000239
839,2,0.2,1.0,35.0,1,1.0,0.43890100000044185
840,2,0.2,0.0625,35.0,-1,0.0,7.0086010000004535
841,2,0.2,1.0,-35.0,-1,1.0,0.2896020000007411
842,2,0.2,0.25,35.0,1,1.0,0.4021020000000135
843,2,0.2,0.25,35.0,1,1.0,0.5297020000007251
844,2,0.2,0.125,-35.0,-1,1.0,0.29890200000045297
845,2,0.2,0.25,35.0,1,1.0,4.773001999999906
846,2,0.2,0.0625,35.0,-1,0.0,12.155802000000222
847,2,0.2,1.0,35.0,1,1.0,0.3701020000007702
848,2,0.2,0.0,35.0,1,1.0,36.81610199999977
849,2,0.2,0.0625,35.0,0,0.0,60.03780199999983
850,2,0.2,1.0,-35.0,-1,1.0,0.46480200000041805
851,2,0.2,0.25,35.0,1,1.0,1.8495020000000295
852,2,0.2,0.125,35.0,1,1.0,1.2952020000002449
853,2,0.2,0.0,35.0,1,1.0,19.236502000000655
854,2,0.2,1.0,-35.0,-1,1.0,0.379001999999673
855,2,0.2,0.25,35.0,1,1.0,0.6036029999995662
1,3,0.5,0.25,-35.0,-1,1.0,0.34399999999999986
2,3,0.5,0.0,-35.0,1,0.0,18.5854
3,3,0.5,1.0,-35.0,-1,1.0,0.2537999999999947
4,3,0.5,0.0625,35.0,1,1.0,0.3651010000000028
5,3,0.5,0.25,-35.0,-1,1.0,0.9093009999999992
6,3,0.5,0.0,35.0,1,1.0,0.3523999999999958
7,3,0.5,1.0,35.0,1,1.0,0.23039999999999594
8,3,0.5,1.0,-35.0,-1,1.0,0.18849999999999767
9,3,0.5,0.25,-35.0,-1,1.0,0.216700000000003
10,3,0.5,0.125,35.0,1,1.0,0.25319999999999965
11,3,0.5,0.0625,35.0,1,1.0,1.0379999999999967
12,3,0.5,1.0,-35.0,-1,1.0,0.21590099999999524
13,3,0.5,0.0,35.0,-1,0.0,24.4013
14,3,0.5,1.0,-35.0,-1,1.0,0.31919999999999504
15,3,0.5,0.0,35.0,1,1.0,19.37320000000001
16,3,0.5,1.0,35.0,1,1.0,1.3630000000000138
17,3,0.5,0.125,35.0,1,1.0,0.2600000000000051
18,3,0.5,0.0625,-35.0,-1,1.0,0.24439999999998463
19,3,0.5,0.0625,35.0,1,1.0,0.29130099999997583
20,3,0.5,1.0,35.0,1,1.0,0.18509999999997717
21,3,0.5,0.125,-35.0,-1,1.0,0.245900000000006
22,3,0.5,0.0625,35.0,1,1.0,0.20989999999997622
23,3,0.5,0.25,35.0,1,1.0,0.28180000000000405
24,3,0.5,0.0625,-35.0,-1,1.0,2.515000000000015
25,3,0.5,0.0,35.0,1,1.0,0.35139999999998395
26,3,0.5,0.0625,-35.0,-1,1.0,0.3118999999999801
27,3,0.5,0.0625,-35.0,1,0.0,13.127099999999984
28,3,0.5,0.0625,-35.0,-1,1.0,0.28290000000001214
29,3,0.5,0.0625,35.0,1,1.0,3.806999999999988
30,3,0.5,0.0625,35.0,1,1.0,0.2939000000000078
31,3,0.5,0.0625,-35.0,-1,1.0,3.8271999999999764
32,3,0.5,1.0,-35.0,-1,1.0,0.24789999999998713
33,3,0.5,0.125,35.0,1,1.0,0.27499999999997726
34,3,0.5,0.0625,35.0,1,1.0,6.096900000000005
35,3,0.5,0.125,35.0,1,1.0,0.7871999999999844
36,3,0.5,0.0,-35.0,1,0.0,4.289599999999979
37,3,0.5,0.25,35.0,1,1.0,0.33090100000001144
38,3,0.5,0.125,-35.0,-1,1.0,0.2598999999999876
39,3,0.5,1.0,35.0,1,1.0,0.23129999999997608
40,3,0.5,0.0,-35.0,-1,1.0,0.6549999999999727
41,3,0.5,1.0,35.0,1,1.0,0.2909999999999968
42,3,0.5,0.0,35.0,-1,0.0,0.4368999999999801
43,3,0.5,0.25,35.0,1,1.0,0.2231999999999914
44,3,0.5,0.0,-35.0,-1,1.0,0.3318999999999903
45,3,0.5,0.125,-35.0,-1,1.0,0.21880000000001587
46,3,0.5,0.0,-35.0,-1,1.0,0.5950999999999169
47,3,0.5,0.25,-35.0,-1,1.0,0.28309999999999036
48,3,0.5,0.125,-35.0,-1,1.0,0.24380000000002156
49,3,0.5,0.0,35.0,-1,0.0,1.5830000000000268
50,3,0.5,0.0,-35.0,-1,1.0,22.71459999999996
51,3,0.5,1.0,-35.0,-1,1.0,0.2341000000000122
52,3,0.5,0.125,-35.0,-1,1.0,0.4589000000000283
53,3,0.5,1.0,-35.0,-1,1.0,0.24880100000001448
54,3,0.5,0.0625,-35.0,-1,1.0,0.2586000000000013
55,3,0.5,0.0625,35.0,1,1.0,4.081801000000041
56,3,0.5,1.0,35.0,1,1.0,0.4118000000000279
57,3,0.5,0.0625,-35.0,-1,1.0,0.6306000000000154
58,3,0.5,0.0,-35.0,-1,1.0,23.101800000000026
59,3,0.5,0.0,35.0,1,1.0,25.198500000000024
60,3,0.5,0.0625,35.0,1,1.0,0.8498010000000704
61,3,0.5,0.125,35.0,1,1.0,0.27780000000001337
62,3,0.5,0.0,-35.0,1,0.0,0.37410100000005286
63,3,0.5,0.0,-35.0,1,0.0,32.77380099999999
64,3,0.5,1.0,35.0,1,1.0,0.24210000000005039
65,3,0.5,1.0,-35.0,-1,1.0,0.2852000000000885
66,3,0.5,1.0,35.0,1,1.0,0.23460000000000036
67,3,0.5,1.0,35.0,1,1.0,0.22610000000003083
68,3,0.5,0.0625,35.0,-1,0.0,0.5188000000000557
69,3,0.5,0.0625,35.0,1,1.0,0.3139000000000465
70,3,0.5,0.125,-35.0,-1,1.0,0.2857010000000173
71,3,0.5,0.25,35.0,1,1.0,2.8091000000000577
72,3,0.5,0.25,35.0,1,1.0,0.32630000000000337
73,3,0.5,0.0625,35.0,1,1.0,0.5798000000000343
74,3,0.5,0.25,-35.0,-1,1.0,0.22069999999996526
75,3,0.5,0.125,35.0,1,1.0,0.45999999999997954
76,3,0.5,0.125,35.0,1,1.0,0.241800000000012
77,3,0.5,0.0625,-35.0,-1,1.0,0.2531000000000745
78,3,0.5,0.0,-35.0,1,0.0,0.17430099999995718
79,3,0.5,1.0,-35.0,-1,1.0,0.2808010000000536
80,3,0.5,1.0,-35.0,1,0.0,0.09540000000004056
81,3,0.5,0.0,-35.0,-1,1.0,0.6168000000000688
82,3,0.5,1.0,-35.0,-1,1.0,0.22840000000002192
83,3,0.5,0.0625,-35.0,-1,1.0,23.761100000000056
84,3,0.5,1.0,-35.0,-1,1.0,0.2056999999999789
85,3,0.5,0.125,-35.0,-1,1.0,22.534400000000005
86,3,0.5,0.0625,35.0,-1,0.0,3.2655999999999494
87,3,0.5,0.0625,-35.0,-1,1.0,0.5147000000000617
88,3,0.5,0.125,35.0,1,1.0,0.3190999999999349
89,3,0.5,0.25,-35.0,-1,1.0,0.2636999999999716
90,3,0.5,1.0,35.0,1,1.0,0.2679000000000542
91,3,0.8,0.0625,-35.0,-1,1.0,0.6050000000000182
92,3,0.8,1.0,-35.0,-1,1.0,0.20659999999986667
93,3,0.8,1.0,-35.0,-1,1.0,0.2256999999999607
94,3,0.8,0.0,35.0,-1,0.0,11.513199999999983
95,3,0.8,0.25,-35.0,-1,1.0,0.44270000000005894
96,3,0.8,0.0625,-35.0,-1,1.0,0.6141000000000076
97,3,0.8,1.0,-35.0,-1,1.0,0.20670000000006894
98,3,0.8,1.0,-35.0,-1,1.0,0.24559999999996762
99,3,0.8,0.0,-35.0,-1,1.0,8.763700999999969
100,3,0.8,1.0,-35.0,-1,1.0,0.198900999999978
101,3,0.8,0.0625,-35.0,1,0.0,14.139601000000084
102,3,0.8,0.0,-35.0,-1,1.0,1.2106999999999744
103,3,0.8,0.125,-35.0,-1,1.0,0.4977000000000089
104,3,0.8,0.25,35.0,1,1.0,0.3100000000000591
105,3,0.8,0.0625,-35.0,1,0.0,14.137500000000045
106,3,0.8,0.25,35.0,1,1.0,0.2702000000000453
107,3,0.8,0.0625,35.0,1,1.0,0.6818000000000666
108,3,0.8,0.0625,-35.0,-1,1.0,0.3103000000000975
109,3,0.8,0.0,-35.0,-1,1.0,1.2183009999999967
110,3,0.8,0.0625,35.0,1,1.0,0.5331999999999653
111,3,0.8,0.125,-35.0,-1,1.0,0.2317000000000462
112,3,0.8,0.0,-35.0,1,0.0,0.6836000000001832
113,3,0.8,0.25,35.0,1,1.0,0.22870000000000346
114,3,0.8,1.0,-35.0,-1,1.0,0.22090000000014243
115,3,0.8,0.0,35.0,1,1.0,0.5202010000000428
116,3,0.8,1.0,-35.0,-1,1.0,2.659601000000066
117,3,0.8,1.0,35.0,1,1.0,0.34339999999997417
118,3,0.8,0.0,-35.0,-1,1.0,0.30100000000004457
119,3,0.8,0.0,35.0,1,1.0,32.41620000000012
120,3,0.8,0.0625,-35.0,-1,1.0,0.5141999999999598
121,3,0.8,0.25,-35.0,-1,1.0,0.2136000000000422
122,3,0.8,0.25,-35.0,-1,1.0,0.23959999999999582
123,3,0.8,0.125,35.0,1,1.0,0.2726000000000113
124,3,0.8,1.0,-35.0,-1,1.0,0.2137000000000171
125,3,0.2,0.0,35.0,-1,0.0,0.6411999999999125
126,3,0.2,0.0,35.0,-1,0.0,0.3746000000001004
127,3,0.2,0.25,35.0,1,1.0,0.29900100000008933
128,3,0.2,0.0625,-35.0,-1,1.0,0.26840000000015607
129,3,0.2,1.0,35.0,1,1.0,0.2576010000000224
130,3,0.2,0.0,35.0,1,1.0,11.260899999999992
131,3,0.2,0.0625,35.0,1,1.0,16.805799999999977
132,3,0.2,0.0625,35.0,1,1.0,0.3565000000000964
133,3,0.2,0.25,35.0,1,1.0,0.26860099999998965
134,3,0.2,0.25,-35.0,-1,1.0,0.2656010000000606
135,3,0.2,0.0625,35.0,1,1.0,1.5914999999999964
136,3,0.2,0.0,35.0,1,1.0,0.9804000000000315
137,3,0.2,0.0,35.0,1,1.0,14.338499999999954
138,3,0.2,0.0625,35.0,1,1.0,0.3319009999999025
139,3,0.2,0.125,35.0,1,1.0,0.8082999999999174
140,3,0.2,1.0,35.0,1,1.0,0.19729999999992742
141,3,0.2,1.0,35.0,1,1.0,0.6260010000000875
142,3,0.2,0.25,35.0,1,1.0,0.41610000000002856
143,3,0.2,0.0625,35.0,1,1.0,0.4277999999999338
144,3,0.2,1.0,35.0,1,1.0,0.2839999999999918
145,3,0.2,0.125,35.0,1,1.0,0.3239000000000942
146,3,0.2,0.125,35.0,1,1.0,0.293700000000058
147,3,0.2,0.25,35.0,1,1.0,0.5655000000000427
148,3,0.2,0.0,35.0,1,1.0,0.34050000000002
149,3,0.2,0.0,35.0,1,1.0,0.5027000000000044
150,3,0.2,1.0,35.0,1,1.0,0.24820000000011078
151,3,0.2,0.25,35.0,1,1.0,0.4438999999999851
152,3,0.8,1.0,-35.0,-1,1.0,0.2695000000001073
153,3,0.8,0.125,35.0,1,1.0,0.2943000000000211
154,3,0.8,0.125,-35.0,-1,1.0,0.8014000000000578
155,3,0.8,0.0625,-35.0,-1,1.0,0.2902000000000271
156,3,0.8,1.0,-35.0,-1,1.0,0.21620000000007167
157,3,0.8,0.0,-35.0,1,0.0,0.3020000000000209
158,3,0.8,0.0,-35.0,1,0.0,0.34550100000001294
159,3,0.8,0.125,-35.0,-1,1.0,0.22860000000014224
160,3,0.8,1.0,-35.0,-1,1.0,5.14650000000006
161,3,0.8,0.25,35.0,1,1.0,0.2600999999999658
162,3,0.8,1.0,-35.0,-1,1.0,0.20279999999991105
163,3,0.8,1.0,-35.0,-1,1.0,0.21829999999999927
164,3,0.8,0.0625,-35.0,-1,1.0,0.21820000000002437
165,3,0.8,0.0625,-35.0,1,0.0,13.071901000000025
166,3,0.8,0.0625,-35.0,1,0.0,17.122800000000097
167,3,0.8,0.0625,-35.0,1,0.0,8.874500000000012
168,3,0.8,0.0625,35.0,1,1.0,0.34009999999989304
169,3,0.8,0.25,-35.0,-1,1.0,0.266399999999976
170,3,0.8,0.0,-35.0,1,0.0,9.239000000000033
171,3,0.8,0.125,-35.0,-1,1.0,0.2898000000000138
172,3,0.8,1.0,-35.0,-1,1.0,0.22660099999995964
173,3,0.8,0.25,35.0,1,1.0,0.3705000000001064
174,3,0.8,0.0625,-35.0,1,0.0,8.799499999999853
175,3,0.8,0.25,-35.0,-1,1.0,0.5336999999999534
176,3,0.8,0.125,-35.0,-1,1.0,0.29970000000002983
177,3,0.8,0.0,-35.0,-1,1.0,0.7574999999999363
178,3,0.8,1.0,35.0,1,1.0,0.24649999999996908
179,3,0.8,0.125,-35.0,-1,1.0,5.0004999999998745
180,3,0.8,0.25,-35.0,-1,1.0,10.713299999999663
181,3,0.8,0.25,-35.0,-1,1.0,0.2243999999998323
182,3,0.8,0.0625,-35.0,-1,1.0,0.2704999999998563
183,3,0.8,0.0,35.0,1,1.0,14.204400000000078
184,3,0.8,0.25,-35.0,-1,1.0,0.26739999999972497
185,3,0.8,1.0,35.0,1,1.0,0.21549999999979264
186,3,0.8,0.25,-35.0,-1,1.0,0.2342999999998483
187,3,0.8,0.25,-35.0,-1,1.0,0.46500099999980193
188,3,0.8,0.0,-35.0,1,0.0,9.757800000000088
189,3,0.8,0.125,-35.0,-1,1.0,0.292299999999841
190,3,0.8,0.25,-35.0,-1,1.0,0.22800000000006548
191,3,0.8,0.0,-35.0,-1,1.0,11.07870099999991
192,3,0.8,1.0,35.0,1,1.0,0.24159999999983484
193,3,0.8,0.125,-35.0,-1,1.0,0.27579999999989013
194,3,0.8,1.0,-35.0,-1,1.0,0.24539999999979045
195,3,0.8,1.0,-35.0,-1,1.0,0.3792999999998301
196,3,0.8,1.0,-35.0,-1,1.0,0.5687009999996917
197,3,0.8,1.0,-35.0,-1,1.0,0.23260000000004766
198,3,0.8,1.0,35.0,1,1.0,0.24869999999987158
199,3,0.8,0.25,-35.0,-1,1.0,0.24999999999977263
200,3,0.8,1.0,35.0,1,1.0,0.4823999999998705
201,3,0.8,0.125,35.0,1,1.0,0.27959999999984575
202,3,0.8,1.0,-35.0,-1,1.0,1.3722999999999956
203,3,0.8,0.25,-35.0,-1,1.0,0.5533999999997832
204,3,0.8,0.0625,-35.0,1,0.0,8.302399999999807
205,3,0.8,0.25,35.0,1,1.0,0.46329999999966276
206,3,0.8,0.0625,-35.0,1,0.0,0.3425999999999476
207,3,0.8,1.0,-35.0,-1,1.0,0.26040100000000166
208,3,0.8,0.125,-35.0,-1,1.0,0.26949999999987995
209,3,0.8,0.0625,-35.0,1,0.0,29.884399999999914
210,3,0.8,0.0625,-35.0,-1,1.0,0.583699999999908
211,3,0.8,0.125,35.0,1,1.0,0.8013999999998305
212,3,0.8,0.125,35.0,1,1.0,0.39030000000002474
213,3,0.8,0.0625,-35.0,-1,1.0,0.34799999999995634
214,3,0.8,0.25,-35.0,-1,1.0,0.26729999999997744
215,3,0.8,0.125,-35.0,-1,1.0,0.26120099999980084
216,3,0.8,0.25,-35.0,-1,1.0,0.22730000000001382
217,3,0.8,0.25,-35.0,-1,1.0,0.21469999999999345
218,3,0.8,0.0,-35.0,1,0.0,19.977300999999898
219,3,0.8,0.0625,-35.0,-1,1.0,0.49179999999978463
220,3,0.8,0.125,35.0,1,1.0,0.23779999999987922
221,3,0.8,0.25,-35.0,-1,1.0,0.2319009999996524
222,3,0.8,0.0625,-35.0,1,0.0,20.124700000000075
223,3,0.8,0.125,35.0,1,1.0,0.5623999999997977
224,3,0.8,0.125,-35.0,-1,1.0,0.38839999999981956
225,3,0.8,0.0,-35.0,1,0.0,8.146199999999908
226,3,0.8,0.125,-35.0,-1,1.0,0.305299999999761
227,3,0.8,0.0625,-35.0,-1,1.0,0.3393999999998414
228,3,0.8,0.125,-35.0,-1,1.0,0.35219999999981155
229,3,0.8,0.0,-35.0,1,0.0,4.452999999999747
230,3,0.8,0.0,35.0,1,1.0,12.295699999999897
231,3,0.8,0.0625,-35.0,1,0.0,10.140099999999848
232,3,0.8,1.0,-35.0,-1,1.0,0.27299999999991087
233,3,0.8,0.0,-35.0,1,0.0,10.257000000000062
234,3,0.8,0.25,-35.0,-1,1.0,0.26979999999980464
235,3,0.8,0.0625,-35.0,1,0.0,10.04060000000004
236,3,0.8,0.25,-35.0,-1,1.0,0.4303010000000995
237,3,0.8,0.125,35.0,1,1.0,0.28109999999992397
238,3,0.8,0.0,-35.0,-1,1.0,0.4901999999999589
239,3,0.8,0.0625,-35.0,-1,1.0,5.738299999999981
240,3,0.8,1.0,-35.0,-1,1.0,0.37390000000004875
241,3,0.8,0.0,35.0,1,1.0,5.048300000000154
242,3,0.8,1.0,-35.0,-1,1.0,1.7408000000000357
243,3,0.8,0.0625,-35.0,1,0.0,19.504899999999907
244,3,0.8,0.0625,-35.0,-1,1.0,0.3343999999999596
245,3,0.8,0.25,-35.0,-1,1.0,0.30529999999998836
246,3,0.2,1.0,35.0,1,1.0,0.2712999999996555
247,3,0.2,1.0,35.0,1,1.0,0.692299999999932
248,3,0.2,0.0,35.0,1,1.0,0.4449000000001888
249,3,0.2,0.125,-35.0,-1,1.0,0.27240099999994527
250,3,0.2,1.0,35.0,1,1.0,0.7916000000000167
251,3,0.2,1.0,35.0,1,1.0,0.35930099999995946
252,3,0.2,0.0625,35.0,1,1.0,0.5984009999999671
253,3,0.2,0.0625,35.0,1,1.0,0.3033020000000306
254,3,0.2,0.0,-35.0,1,0.0,0.32180099999982303
255,3,0.2,1.0,35.0,1,1.0,0.4327009999999518
256,3,0.2,0.0,35.0,-1,0.0,0.2354019999997945
257,3,0.2,1.0,35.0,1,1.0,0.2632009999999809
258,3,0.2,0.0,35.0,1,1.0,0.29880099999991216
259,3,0.2,0.0,35.0,1,1.0,37.09630099999981
260,3,0.2,0.0,35.0,-1,0.0,0.506300999999894
261,3,0.2,0.25,35.0,1,1.0,0.31730100000004313
262,3,0.2,0.0,35.0,1,1.0,15.496500999999853
263,3,0.2,0.125,35.0,1,1.0,0.5109009999998761
264,3,0.2,0.125,35.0,1,1.0,2.9472009999997226
265,3,0.2,0.0625,-35.0,-1,1.0,10.18420100000003
266,3,0.2,1.0,-35.0,-1,1.0,0.25720099999989543
267,3,0.2,0.125,35.0,1,1.0,0.5814009999999143
268,3,0.2,0.0,-35.0,1,0.0,5.497300999999879
269,3,0.2,0.0625,35.0,1,1.0,0.43220099999984996
270,3,0.2,0.0,35.0,1,1.0,0.35760099999993145
271,3,0.2,0.0,-35.0,1,0.0,0.39170199999989563
272,3,0.2,0.125,-35.0,-1,1.0,0.27430199999980687
273,3,0.2,0.0625,35.0,1,1.0,0.29890099999988706
274,3,0.2,0.125,35.0,1,1.0,0.4812009999998281
275,3,0.2,0.125,35.0,1,1.0,0.5220009999998183
276,3,0.2,0.125,35.0,1,1.0,0.5746019999996861
277,3,0.2,0.25,35.0,1,1.0,0.4757009999998445
278,3,0.2,0.25,35.0,1,1.0,0.5248010000000249
279,3,0.2,1.0,35.0,1,1.0,0.34550100000001294
280,3,0.2,0.0625,-35.0,1,0.0,0.35150100000009843
281,3,0.2,0.0,35.0,1,1.0,0.31560099999978775
282,3,0.2,0.25,35.0,1,1.0,0.24170100000014827
283,3,0.2,0.125,35.0,1,1.0,0.26270099999987906
284,3,0.2,0.0625,35.0,1,1.0,0.3585009999999329
285,3,0.2,0.25,35.0,1,1.0,0.36020099999973354
286,3,0.2,0.125,35.0,1,1.0,0.22520099999974263
287,3,0.2,0.0625,35.0,-1,0.0,11.773200999999972
288,3,0.2,0.25,-35.0,-1,1.0,0.4456009999998969
289,3,0.2,0.0,35.0,-1,0.0,0.2599009999998998
290,3,0.2,0.0625,35.0,1,1.0,0.3257009999999809
291,3,0.2,0.125,35.0,1,1.0,0.27000100000009297
292,3,0.2,0.125,35.0,1,1.0,0.2858009999999922
293,3,0.2,0.25,35.0,1,1.0,0.2802010000000337
294,3,0.2,0.0,35.0,1,1.0,6.356200999999828
295,3,0.2,0.125,35.0,1,1.0,0.2702009999998154
296,3,0.2,0.125,35.0,1,1.0,0.27300100000002203
297,3,0.2,0.125,35.0,1,1.0,0.49040100000001985
298,3,0.2,0.125,35.0,1,1.0,0.3096009999999296
299,3,0.2,0.25,35.0,1,1.0,0.9972009999999045
300,3,0.2,1.0,35.0,1,1.0,0.2765009999998256
301,3,0.2,0.0625,-35.0,-1,1.0,0.27740099999982704
302,3,0.2,0.25,35.0,1,1.0,0.28320099999996273
303,3,0.2,0.125,35.0,1,1.0,0.3343009999998685
304,3,0.2,0.25,-35.0,-1,1.0,0.22010099999988597
305,3,0.2,0.0,35.0,-1,0.0,2.3348009999999704
306,3,0.2,0.125,35.0,1,1.0,0.5272009999998772
307,3,0.2,0.125,35.0,1,1.0,1.007900999999947
308,3,0.2,0.0,35.0,1,1.0,11.210301999999956
309,3,0.2,0.0625,35.0,-1,0.0,11.39510099999984
310,3,0.2,0.125,35.0,1,1.0,0.2777009999999791
311,3,0.8,0.25,-35.0,-1,1.0,0.39540199999987635
312,3,0.8,0.125,-35.0,-1,1.0,0.24440099999992526
313,3,0.8,0.0,-35.0,1,0.0,2.6991009999997004
314,3,0.8,0.0625,-35.0,-1,1.0,0.2813009999999849
315,3,0.8,0.25,-35.0,-1,1.0,0.21460099999990234
316,3,0.8,0.0625,35.0,1,1.0,0.511400999999978
317,3,0.8,0.0,-35.0,-1,1.0,3.92910199999983
318,3,0.8,0.25,-35.0,-1,1.0,0.40150100000005295
319,3,0.8,0.0625,-35.0,1,0.0,50.31610099999989
320,3,0.8,0.25,-35.0,-1,1.0,0.32940099999996164
321,3,0.8,1.0,-35.0,-1,1.0,0.2534009999999398
322,3,0.8,0.125,-35.0,-1,1.0,0.26620199999979377
323,3,0.8,0.25,-35.0,-1,1.0,0.45050099999980375
324,3,0.8,0.125,-35.0,-1,1.0,11.333000999999967
325,3,0.8,0.125,-35.0,-1,1.0,0.511000999999851
326,3,0.8,0.25,-35.0,-1,1.0,0.21330099999977392
327,3,0.8,0.125,35.0,1,1.0,0.25660100000004604
328,3,0.8,0.125,-35.0,-1,1.0,0.6375009999997019
329,3,0.8,1.0,-35.0,-1,1.0,0.40020099999992453
330,3,0.8,0.25,35.0,1,1.0,1.421000999999933
331,3,0.8,0.25,-35.0,-1,1.0,0.26030100000002676
332,3,0.8,0.0625,35.0,1,1.0,9.601402000000007
333,3,0.8,0.0,-35.0,1,0.0,10.50710099999992
334,3,0.8,0.0625,-35.0,-1,1.0,0.6085009999999329
335,3,0.8,1.0,-35.0,-1,1.0,0.34740099999999074
336,3,0.8,1.0,35.0,1,1.0,0.43200099999990016
337,3,0.8,0.0,-35.0,1,0.0,28.447601999999733
338,3,0.8,0.25,-35.0,-1,1.0,0.47600099999999657
339,3,0.8,0.125,-35.0,-1,1.0,0.3951009999996131
340,3,0.8,0.25,-35.0,-1,1.0,0.20240199999989272
341,3,0.8,0.25,-35.0,-1,1.0,3.57520199999999
342,3,0.8,0.0,-35.0,-1,1.0,0.36920199999985925
343,3,0.8,1.0,-35.0,-1,1.0,0.38200099999994563
344,3,0.8,0.0,-35.0,1,0.0,11.852801
345,3,0.8,0.0625,-35.0,1,0.0,16.265500999999404
346,3,0.8,0.125,35.0,1,1.0,2.0667010000001937
347,3,0.8,0.0625,-35.0,-1,1.0,0.23950199999990218
348,3,0.8,0.25,-35.0,-1,1.0,1.2171019999996133
349,3,0.8,0.125,-35.0,-1,1.0,0.8262009999998554
350,3,0.8,1.0,35.0,1,1.0,0.55040100000042
351,3,0.8,0.125,-35.0,-1,1.0,0.22640099999989616
352,3,0.8,0.125,-35.0,-1,1.0,0.4710019999997712
353,3,0.8,0.125,-35.0,-1,1.0,0.4633009999997739
354,3,0.8,0.125,-35.0,-1,1.0,0.23400100000026214
355,3,0.8,0.125,-35.0,1,0.0,9.020000999999866
356,3,0.8,0.0,-35.0,1,0.0,0.4275009999996655
357,3,0.8,0.0,-35.0,1,0.0,0.32350099999985105
358,3,0.8,0.125,-35.0,-1,1.0,0.21800200000006953
359,3,0.8,0.125,-35.0,-1,1.0,0.23030100000005405
360,3,0.8,0.0625,-35.0,-1,1.0,0.2750010000004295
361,3,0.8,1.0,-35.0,-1,1.0,0.22400199999992765
362,3,0.8,0.0,-35.0,-1,1.0,0.45500099999981103
363,3,0.8,0.25,-35.0,-1,1.0,1.4740009999995891
364,3,0.8,0.125,-35.0,-1,1.0,0.24470199999996112
365,3,0.8,1.0,-35.0,-1,1.0,0.21400099999982558
366,3,0.8,1.0,-35.0,-1,1.0,0.20500099999981103
367,3,0.2,0.25,35.0,1,1.0,0.26750099999981103
368,3,0.2,0.0625,35.0,1,1.0,0.39850099999966915
369,3,0.2,1.0,35.0,1,1.0,0.2780019999995602
370,3,0.2,0.25,35.0,1,1.0,0.2754010000003291
371,3,0.2,0.0,35.0,1,1.0,0.41450099999974555
372,3,0.2,1.0,35.0,1,1.0,0.24200099999961822
373,3,0.2,0.0,35.0,-1,0.0,10.384601000000202
374,3,0.2,0.125,35.0,1,1.0,54.69210099999964
375,3,0.2,0.25,35.0,1,1.0,0.49590200000011464
376,3,0.2,0.0,35.0,1,1.0,3.517000999999709
377,3,0.2,0.0625,35.0,1,1.0,14.146100999999817
378,3,0.2,0.0,35.0,-1,0.0,5.5304009999999835
379,3,0.2,0.25,35.0,1,1.0,0.37000099999977465
380,3,0.2,0.125,-35.0,1,0.0,7.440900999999485
381,3,0.2,1.0,35.0,1,1.0,0.27710099999967497
382,3,0.2,0.0,35.0,1,1.0,0.4610010000001239
383,3,0.2,0.25,35.0,1,1.0,0.3570009999998547
384,3,0.2,0.25,-35.0,-1,1.0,0.4914019999996526
385,3,0.2,0.0,35.0,-1,0.0,0.6116010000000642
386,3,0.2,0.0625,35.0,1,1.0,0.30470100000002276
387,3,0.2,0.0625,35.0,1,1.0,0.4773009999998976
388,3,0.8,0.125,-35.0,-1,1.0,0.24190199999975448
389,3,0.8,1.0,-35.0,-1,1.0,0.21750199999996767
390,3,0.8,0.0,-35.0,1,0.0,10.021701000000121
391,3,0.8,0.0625,-35.0,-1,1.0,0.4745010000001457
392,3,0.8,0.0,-35.0,1,0.0,23.765900999999758
393,3,0.8,0.25,-35.0,-1,1.0,0.5084010000005037
394,3,0.8,0.25,-35.0,-1,1.0,0.23290099999985614
395,3,0.8,0.125,-35.0,-1,1.0,0.23510099999975864
396,3,0.8,0.0,35.0,1,1.0,5.80290100000002
397,3,0.8,0.125,35.0,1,1.0,0.2789010000001326
398,3,0.8,0.0,-35.0,1,0.0,11.643400999999812
399,3,0.8,0.25,-35.0,-1,1.0,0.2691020000002027
400,3,0.8,0.25,-35.0,-1,1.0,0.24690099999997983
401,3,0.8,0.0,35.0,-1,0.0,15.739301000000069
402,3,0.8,0.0625,-35.0,-1,1.0,0.41410099999984595
403,3,0.8,0.125,35.0,1,1.0,0.5464019999999437
404,3,0.8,0.0,-35.0,1,0.0,1.847201000000041
405,3,0.8,0.0625,-35.0,1,0.0,4.647200999999768
406,3,0.8,0.0625,35.0,1,1.0,18.57440200000019
407,3,0.8,1.0,-35.0,-1,1.0,0.4371009999999842
408,3,0.8,0.0625,-35.0,-1,1.0,1.6981009999994967
409,3,0.8,0.25,-35.0,-1,1.0,0.38060200000018085
410,3,0.8,0.25,-35.0,-1,1.0,0.5213010000002214
411,3,0.8,0.0,-35.0,1,0.0,0.5209009999994123
412,3,0.8,0.0,-35.0,-1,1.0,0.5180009999999129
413,3,0.8,0.125,-35.0,-1,1.0,0.2540009999997892
414,3,0.8,0.0,-35.0,-1,1.0,0.3050009999997201
415,3,0.8,1.0,35.0,1,1.0,0.26770100000021557
416,3,0.8,0.0,-35.0,-1,1.0,5.395002000000204
417,3,0.8,1.0,-35.0,-1,1.0,0.22110099999963495
418,3,0.8,0.0625,35.0,1,1.0,0.5920009999995273
419,3,0.2,0.0625,35.0,1,1.0,0.2980020000004515
420,3,0.2,0.25,35.0,1,1.0,0.43880099999978484
421,3,0.2,0.0625,35.0,1,1.0,0.7414019999996526
422,3,0.2,0.25,35.0,1,1.0,0.5256009999998241
423,3,0.2,0.25,35.0,1,1.0,0.37830099999973754
424,3,0.2,0.0625,35.0,1,1.0,0.516001999999844
425,3,0.2,0.25,35.0,1,1.0,0.2918009999998503
426,3,0.2,1.0,35.0,1,1.0,0.3728009999999813
427,3,0.2,0.0,-35.0,1,0.0,0.29850200000009863
428,3,0.2,1.0,-35.0,-1,1.0,0.24280099999987215
429,3,0.2,0.25,-35.0,-1,1.0,0.21180099999992308
430,3,0.2,0.0,35.0,-1,0.0,0.2968019999993885
431,3,0.2,1.0,-35.0,-1,1.0,0.14880200000015975
432,3,0.2,0.0,35.0,-1,0.0,0.19650200000023688
433,3,0.2,0.0625,35.0,1,1.0,0.32900100000006205
434,3,0.2,0.125,35.0,1,1.0,1.7498019999998178
435,3,0.2,0.0625,35.0,1,1.0,0.302400999999918
436,3,0.2,1.0,35.0,1,1.0,0.2598009999996975
437,3,0.2,0.125,35.0,1,1.0,0.31580099999973754
438,3,0.2,0.0625,35.0,1,1.0,7.217101000000184
439,3,0.2,0.0625,35.0,1,1.0,7.9361009999997805
440,3,0.8,0.125,-35.0,-1,1.0,0.427400999999918
441,3,0.8,0.125,-35.0,-1,1.0,2.8564010000000053
442,3,0.8,0.125,35.0,1,1.0,0.38400099999989834
443,3,0.8,1.0,-35.0,-1,1.0,0.22320099999978993
444,3,0.8,0.125,-35.0,-1,1.0,0.26740099999960876
445,3,0.8,0.0625,35.0,1,1.0,0.806800999999723
446,3,0.8,0.0625,35.0,1,1.0,0.5375010000002476
447,3,0.8,1.0,-35.0,-1,1.0,0.23680100000046878
448,3,0.8,0.0625,-35.0,-1,1.0,0.2877010000001974
449,3,0.8,0.25,35.0,1,1.0,0.38380099999994854
450,3,0.8,0.0625,-35.0,-1,1.0,0.25460100000009334
451,3,0.8,0.0,-35.0,1,0.0,4.177001000000018
452,3,0.8,0.125,-35.0,-1,1.0,0.31460199999992255
453,3,0.8,0.0625,-35.0,-1,1.0,0.3439010000001872
454,3,0.8,1.0,35.0,1,1.0,0.39470200000005207
455,3,0.8,0.0625,-35.0,-1,1.0,0.27740099999982704
456,3,0.8,0.125,-35.0,-1,1.0,0.4717009999999391
457,3,0.8,0.25,-35.0,-1,1.0,0.30430100000012317
458,3,0.8,0.0625,-35.0,1,0.0,0.5817009999996117
459,3,0.8,0.0,-35.0,1,0.0,0.37090100000023085
460,3,0.8,0.125,-35.0,-1,1.0,0.2517009999996844
461,3,0.8,0.125,-35.0,-1,1.0,0.4445009999994909
462,3,0.8,0.0,35.0,-1,0.0,0.5958019999998214
463,3,0.8,0.0625,-35.0,-1,1.0,0.49140099999976883
464,3,0.8,0.25,-35.0,-1,1.0,0.28220199999987017
465,3,0.8,0.125,-35.0,-1,1.0,0.361601999999948
466,3,0.8,0.0625,-35.0,-1,1.0,0.6122009999999136
467,3,0.8,0.0625,-35.0,-1,1.0,0.6718009999999595
468,3,0.8,0.0,-35.0,-1,1.0,0.5597010000001319
469,3,0.8,0.0625,-35.0,-1,1.0,0.45200199999999313
470,3,0.8,0.125,-35.0,-1,1.0,2.4658009999998285
471,3,0.8,0.25,-35.0,-1,1.0,0.42870099999981903
472,3,0.8,0.0625,-35.0,-1,1.0,0.28270199999997203
473,3,0.8,0.25,35.0,1,1.0,0.4053009999997812
474,3,0.8,0.125,-35.0,-1,1.0,0.6295009999998911
475,3,0.8,0.125,35.0,1,1.0,0.2589020000000346
476,3,0.8,0.125,-35.0,-1,1.0,0.24970100000018647
477,3,0.8,1.0,35.0,1,1.0,0.41220099999964077
478,3,0.8,0.0625,-35.0,-1,1.0,0.4897009999999682
479,3,0.8,0.0,-35.0,-1,1.0,2.799101999999948
480,3,0.8,0.125,-35.0,-1,1.0,0.4767009999995935
481,3,0.8,0.0,-35.0,-1,1.0,0.77920099999983
482,3,0.8,0.0625,-35.0,-1,1.0,0.44070099999953527
483,3,0.8,0.0625,-35.0,1,0.0,16.69930199999999
484,3,0.8,0.0625,35.0,1,1.0,0.4204010000003109
485,3,0.8,1.0,-35.0,-1,1.0,0.28670099999999366
486,3,0.8,1.0,-35.0,-1,1.0,0.2506010000001879
487,3,0.8,0.125,35.0,1,1.0,9.239901999999802
488,3,0.8,0.0,-35.0,1,0.0,0.38100100000019665
489,3,0.8,0.0,-35.0,-1,1.0,0.6969009999997979
490,3,0.8,0.0,-35.0,1,0.0,28.431200999999874
491,3,0.8,0.25,-35.0,-1,1.0,0.31430099999943195
492,3,0.8,0.25,-35.0,-1,1.0,0.26170099999944796
493,3,0.8,0.0,-35.0,1,0.0,5.134300999999596
494,3,0.8,0.0,-35.0,-1,1.0,0.9320010000001275
495,3,0.8,0.125,-35.0,-1,1.0,0.26800100000036764
496,3,0.8,0.0625,-35.0,-1,1.0,1.1079009999998561
497,3,0.8,0.25,35.0,1,1.0,0.29560099999980594
498,3,0.8,0.25,35.0,1,1.0,0.2982010000000628
499,3,0.8,0.125,-35.0,-1,1.0,0.2656010000000606
500,3,0.2,0.125,35.0,1,1.0,0.4917009999999209
501,3,0.2,0.25,-35.0,-1,1.0,0.2557019999999284
502,3,0.2,1.0,-35.0,-1,1.0,0.24160100000017337
503,3,0.2,1.0,35.0,1,1.0,0.26250100000015664
504,3,0.2,1.0,35.0,1,1.0,0.2987009999997099
505,3,0.2,0.125,35.0,1,1.0,0.4863010000003669
506,3,0.2,0.0625,35.0,1,1.0,0.3986009999998714
507,3,0.2,0.125,35.0,1,1.0,0.2995009999995091
508,3,0.2,0.0625,35.0,1,1.0,0.2554009999998925
509,3,0.2,0.0625,35.0,1,1.0,0.762800999999854
510,3,0.2,0.25,35.0,1,1.0,0.5256009999998241
511,3,0.2,0.25,35.0,1,1.0,0.3031009999995149
512,3,0.2,1.0,35.0,1,1.0,0.21900099999993472
513,3,0.2,0.0,35.0,-1,0.0,3.840100999999777
514,3,0.2,0.0625,35.0,1,1.0,0.3927009999997608
515,3,0.2,0.0,-35.0,1,0.0,0.27660100000002785
516,3,0.2,1.0,35.0,1,1.0,0.23270099999990634
517,3,0.2,1.0,35.0,1,1.0,0.4138009999996939
518,3,0.2,0.0625,35.0,1,1.0,0.36950100000012753
519,3,0.2,0.125,35.0,1,1.0,0.32380199999943216
520,3,0.2,0.25,35.0,1,1.0,0.23660100000006423
521,3,0.2,0.125,35.0,1,1.0,0.2842009999999391
522,3,0.2,0.0,35.0,1,1.0,0.30660200000011173
523,3,0.2,0.25,35.0,1,1.0,0.24060099999996964
524,3,0.2,0.0625,35.0,1,1.0,0.2866009999997914
525,3,0.2,0.125,35.0,1,1.0,0.3076009999999769
526,3,0.2,0.0,35.0,1,1.0,0.33000099999981103
527,3,0.2,1.0,35.0,1,1.0,0.5476009999997586
528,3,0.2,0.0,-35.0,1,0.0,0.3037010000002738
529,3,0.2,0.0625,35.0,1,1.0,0.28100099999983286
530,3,0.2,0.25,35.0,1,1.0,0.2506010000001879
531,3,0.2,0.0,35.0,1,1.0,0.2878019999998287
532,3,0.2,1.0,-35.0,-1,1.0,0.23380199999974138
533,3,0.2,0.0,35.0,1,1.0,0.4348009999998794
534,3,0.2,0.25,35.0,1,1.0,0.5038009999998394
535,3,0.2,0.0,-35.0,1,0.0,0.294800999999552
536,3,0.2,0.25,35.0,1,1.0,0.2907010000003538
537,3,0.2,0.0625,35.0,1,1.0,0.31860099999948943
538,3,0.2,1.0,35.0,1,1.0,0.18090200000006007
539,3,0.2,0.125,35.0,1,1.0,0.4686010000004899
540,3,0.2,0.25,-35.0,-1,1.0,0.22460199999977704
541,3,0.2,0.0625,35.0,1,1.0,5.115300999999818
542,3,0.2,0.0625,35.0,1,1.0,17.137800999999854
543,3,0.2,0.25,-35.0,-1,1.0,0.21270099999992453
544,3,0.2,0.125,-35.0,-1,1.0,6.221700999999939
545,3,0.2,0.25,35.0,1,1.0,0.6096009999996568
546,3,0.2,0.0,35.0,1,1.0,0.27860099999998056
547,3,0.2,0.125,-35.0,-1,1.0,0.27960099999972954
548,3,0.2,0.125,35.0,1,1.0,0.30540099999961967
549,3,0.2,1.0,-35.0,-1,1.0,0.2296010000000024
550,3,0.2,0.25,35.0,1,1.0,0.25560100000029706
551,3,0.2,0.0,35.0,-1,0.0,0.7231019999999262
552,3,0.2,0.125,35.0,1,1.0,0.4393019999997705
553,3,0.2,0.0,-35.0,-1,1.0,0.36000199999944016
554,3,0.2,1.0,35.0,1,1.0,0.369300999999723
555,3,0.2,0.25,35.0,1,1.0,0.25660100000004604
556,3,0.2,0.0625,35.0,1,1.0,0.38280100000019956
557,3,0.2,0.25,35.0,1,1.0,1.0305010000001857
558,3,0.2,0.125,35.0,1,1.0,0.37630099999978484
559,3,0.2,0.0625,35.0,1,1.0,0.32700100000010934
560,3,0.2,0.125,35.0,1,1.0,0.33640099999956874
561,3,0.2,0.125,-35.0,-1,1.0,0.2504009999997834
562,3,0.2,0.0,35.0,-1,0.0,0.5065010000002985
563,3,0.2,1.0,35.0,1,1.0,0.3075010000002294
564,3,0.2,0.125,35.0,1,1.0,2.0234009999999216
565,3,0.2,0.25,-35.0,-1,1.0,0.5709009999995942
566,3,0.2,0.25,35.0,1,1.0,0.217000999999982
567,3,0.2,0.0,35.0,-1,0.0,18.744300999999723
568,3,0.2,0.0625,35.0,1,1.0,0.29740099999980885
569,3,0.2,1.0,35.0,1,1.0,0.2417009999999209
570,3,0.2,0.0625,35.0,1,1.0,0.2940009999997528
571,3,0.2,1.0,35.0,1,1.0,0.23500100000001112
572,3,0.2,0.125,35.0,1,1.0,0.2843009999996866
573,3,0.2,0.25,35.0,1,1.0,0.2552009999999427
574,3,0.2,0.0625,35.0,1,1.0,1.2944009999996524
575,3,0.2,0.25,35.0,1,1.0,0.2625009999997019
576,3,0.2,0.25,-35.0,-1,1.0,0.2613010000000031
577,3,0.2,0.0,35.0,1,1.0,3.1288009999998394
578,3,0.2,0.0625,35.0,-1,0.0,12.984600999999657
579,3,0.2,0.0,35.0,-1,0.0,0.3725009999998292
580,3,0.2,0.0,35.0,1,1.0,4.215400999999474
581,3,0.2,0.0625,35.0,1,1.0,0.382600999999795
582,3,0.8,1.0,-35.0,-1,1.0,0.25190100000008897
583,3,0.8,0.0625,-35.0,-1,1.0,0.23270099999990634
584,3,0.8,0.25,-35.0,-1,1.0,0.24880099999973027
585,3,0.8,0.25,-35.0,-1,1.0,0.9195009999993999
