trial_num,session_num,stim_probability_left,contrast,position,response_choice,trial_correct,reaction_time
1,14,0.5,0.0,35.0,1,1.0,0.30500000000000016
2,14,0.5,0.0625,35.0,1,1.0,0.2259999999999982
3,14,0.5,0.0,35.0,1,1.0,5.111099999999999
4,14,0.5,0.0,-35.0,1,0.0,10.547900000000002
5,14,1.0,0.0,-35.0,1,0.0,0.2983000000000047
6,14,0.5,1.0,-35.0,-1,1.0,0.2890000000000015
7,14,0.5,0.0625,-35.0,-1,1.0,0.2520009999999999
8,14,0.5,1.0,35.0,1,1.0,0.38760100000000364
9,14,0.5,0.125,-35.0,-1,1.0,0.5900999999999996
10,14,0.5,0.0,-35.0,1,0.0,1.8219999999999956
11,14,0.5,0.0625,-35.0,-1,1.0,0.5685000000000002
12,14,0.5,0.0625,-35.0,-1,1.0,0.4327000000000041
13,14,0.5,0.0625,35.0,1,1.0,0.22060000000000457
14,14,0.5,0.25,35.0,1,1.0,0.3031999999999897
15,14,0.5,1.0,35.0,1,1.0,0.24030000000000484
16,14,0.5,1.0,35.0,1,1.0,0.17230099999999027
17,14,0.5,0.25,-35.0,-1,1.0,0.35419999999999163
18,14,0.5,0.0,-35.0,-1,1.0,0.5684009999999944
19,14,0.5,0.0,35.0,-1,0.0,0.25
20,14,0.5,0.125,-35.0,-1,1.0,0.36419999999999675
21,14,0.5,0.0,-35.0,-1,1.0,0.7126999999999839
22,14,0.5,1.0,35.0,1,1.0,0.22020100000000298
23,14,0.5,0.0625,35.0,1,1.0,1.2184999999999917
24,14,0.5,0.0,-35.0,1,0.0,0.1898999999999802
25,14,0.5,0.0625,35.0,1,1.0,0.2412999999999954
26,14,0.5,1.0,-35.0,-1,1.0,0.3064999999999998
27,14,0.5,1.0,35.0,1,1.0,0.20999999999999375
28,14,0.5,1.0,-35.0,-1,1.0,0.3580999999999932
29,14,0.5,0.125,35.0,1,1.0,0.6475999999999971
30,14,0.5,0.0625,35.0,1,1.0,0.21310099999999466
31,14,0.5,0.25,-35.0,-1,1.0,0.25509999999999877
32,14,0.5,0.125,35.0,1,1.0,0.17830000000000723
33,14,0.5,0.0,-35.0,-1,1.0,0.6821999999999946
34,14,0.5,1.0,35.0,1,1.0,0.3662999999999954
35,14,0.5,0.125,-35.0,1,0.0,0.08600000000001273
36,14,0.5,0.25,35.0,1,1.0,0.2740000000000009
37,14,0.5,0.25,-35.0,-1,1.0,0.35499999999998977
38,14,0.5,0.0625,-35.0,-1,1.0,0.275100000000009
39,14,0.5,0.0625,-35.0,-1,1.0,0.2712010000000191
40,14,0.5,0.0,-35.0,-1,1.0,2.336999999999989
41,14,0.5,0.125,-35.0,-1,1.0,0.27539999999999054
42,14,0.5,0.0,35.0,-1,0.0,0.20609999999999218
43,14,0.5,0.25,-35.0,-1,1.0,0.3259999999999934
44,14,0.5,0.25,-35.0,-1,1.0,0.23510100000001444
45,14,0.5,0.25,35.0,1,1.0,0.33899999999999864
46,14,0.5,1.0,35.0,1,1.0,3.483000000000004
47,14,0.5,0.125,-35.0,-1,1.0,0.28600000000000136
48,14,0.5,0.0,-35.0,-1,1.0,0.5747000000000071
49,14,0.5,0.25,35.0,1,1.0,0.2966000000000122
50,14,0.5,0.0,35.0,1,1.0,0.782400000000024
51,14,0.5,0.0625,-35.0,-1,1.0,0.2481999999999971
52,14,0.5,0.0625,35.0,1,1.0,0.2831000000000188
53,14,0.5,0.0625,-35.0,-1,1.0,0.36719999999999686
54,14,0.5,0.125,-35.0,-1,1.0,0.3375000000000057
55,14,0.5,0.25,-35.0,-1,1.0,0.27029999999999177
56,14,0.5,1.0,35.0,1,1.0,0.34600000000000364
57,14,0.5,0.0,-35.0,-1,1.0,0.15979999999998995
58,14,0.5,0.25,35.0,1,1.0,0.2909000000000219
59,14,0.5,0.0,-35.0,1,0.0,1.0305010000000152
60,14,0.5,0.125,35.0,1,1.0,0.33209999999999695
61,14,0.5,0.125,35.0,1,1.0,0.3030000000000541
62,14,0.5,0.0625,35.0,1,1.0,0.5131000000000085
63,14,0.5,0.25,35.0,1,1.0,0.12529999999998154
64,14,0.5,0.125,35.0,1,1.0,0.2259000000000242
65,14,0.5,0.0625,-35.0,-1,1.0,0.24560000000002447
66,14,0.5,0.0625,35.0,-1,0.0,0.33190000000001874
67,14,0.5,0.125,-35.0,-1,1.0,0.21179999999998245
68,14,0.5,0.125,35.0,1,1.0,0.24639999999999418
69,14,0.5,0.125,35.0,1,1.0,0.23360100000002149
70,14,0.5,1.0,-35.0,-1,1.0,0.23590100000001257
71,14,0.5,0.0,-35.0,-1,1.0,1.134900000000016
72,14,0.5,0.0625,-35.0,-1,1.0,0.3099000000000274
73,14,0.5,0.25,35.0,1,1.0,0.29450000000002774
74,14,0.5,0.125,-35.0,-1,1.0,0.5778999999999996
75,14,0.5,0.0625,35.0,1,1.0,0.4229000000000269
76,14,0.5,0.25,-35.0,-1,1.0,0.20940000000001646
77,14,0.5,0.25,-35.0,-1,1.0,0.49080000000003565
78,14,0.5,0.25,35.0,1,1.0,0.21020000000004302
79,14,0.5,1.0,35.0,1,1.0,0.22919999999999163
80,14,0.5,1.0,-35.0,-1,1.0,0.23029999999999973
81,14,0.5,1.0,-35.0,-1,1.0,0.28480000000001837
82,14,0.5,0.125,-35.0,-1,1.0,0.28590000000002647
83,14,0.5,0.25,-35.0,-1,1.0,0.2931000000000381
84,14,0.5,0.0625,-35.0,1,0.0,0.6749000000000365
85,14,0.5,0.0625,-35.0,-1,1.0,0.44970000000006394
86,14,0.5,0.125,35.0,1,1.0,0.3679010000000176
87,14,0.5,0.0625,35.0,1,1.0,0.25790000000000646
88,14,0.5,0.25,-35.0,-1,1.0,0.3790000000000191
89,14,0.5,0.125,-35.0,-1,1.0,0.46589999999997644
90,14,0.5,0.0625,-35.0,1,0.0,0.21690000000000964
91,14,0.4,0.0625,35.0,1,1.0,0.8293000000000461
92,14,0.5,1.0,35.0,1,1.0,0.36640100000005305
93,14,0.5,0.0625,-35.0,-1,1.0,0.48349999999999227
94,14,0.5,0.125,35.0,1,1.0,0.20510000000001583
95,14,0.5,0.25,35.0,1,1.0,0.23229999999995243
96,14,0.5,0.125,35.0,1,1.0,0.18289999999996098
97,14,0.5,0.0625,35.0,1,1.0,0.7014010000000326
98,14,0.5,0.0625,-35.0,1,0.0,0.9769000000000005
99,14,0.8,0.0625,-35.0,1,0.0,0.33629999999999427
100,14,0.5,1.0,-35.0,-1,1.0,0.32790100000005395
101,14,0.5,0.25,-35.0,-1,1.0,0.22630000000003747
102,14,0.5,0.0625,35.0,1,1.0,0.2943000000000211
103,14,0.5,0.0625,-35.0,-1,1.0,0.5427000000000248
104,14,0.5,1.0,-35.0,-1,1.0,0.3601000000000454
105,14,0.5,0.0,35.0,1,1.0,0.3878010000000245
106,14,0.5,0.125,-35.0,-1,1.0,0.30689999999998463
107,14,0.5,0.125,-35.0,-1,1.0,0.46870000000001255
108,14,0.5,0.125,-35.0,-1,1.0,0.47780000000005884
109,14,0.5,0.0625,35.0,1,1.0,0.21330000000000382
110,14,0.5,0.0,35.0,1,1.0,0.45170000000001664
111,14,0.5,0.25,35.0,1,1.0,0.2535000000000309
112,14,0.5,0.0625,35.0,1,1.0,0.21410000000003038
113,14,0.5,0.0,-35.0,1,0.0,0.29820000000000846
114,14,0.5,0.0,-35.0,1,0.0,0.24290099999996073
115,14,0.5,0.25,-35.0,-1,1.0,0.30529999999998836
116,14,0.5,0.0625,35.0,1,1.0,0.31380000000001473
117,14,0.5,0.125,-35.0,-1,1.0,0.24980100000004768
118,14,0.5,0.0625,-35.0,-1,1.0,0.2612009999999714
119,14,0.5,0.125,-35.0,-1,1.0,0.8690000000000282
120,14,0.5,1.0,35.0,1,1.0,0.1518010000000345
121,14,0.5,0.125,35.0,1,1.0,0.5061000000000035
122,14,0.5,0.125,-35.0,-1,1.0,4.709000000000003
123,14,0.5,0.25,35.0,1,1.0,0.2277000000000271
124,14,0.5,0.25,35.0,1,1.0,0.3772000000000162
125,14,0.5,1.0,35.0,1,1.0,0.3346000000000231
126,14,0.5,0.0625,-35.0,-1,1.0,0.34660000000002356
127,14,0.5,0.0,-35.0,-1,1.0,0.45620100000007824
128,14,0.5,1.0,35.0,1,1.0,0.2450000000000614
129,14,0.5,0.0625,-35.0,-1,1.0,0.7507999999999129
130,14,0.5,0.125,-35.0,-1,1.0,0.29080000000010386
131,14,0.5,0.125,35.0,1,1.0,0.24350000000004002
132,14,0.5,0.0,35.0,1,1.0,0.46249999999997726
133,14,0.5,0.125,-35.0,-1,1.0,0.25299999999992906
134,14,0.5,0.0625,-35.0,-1,1.0,2.261199999999917
135,14,0.5,1.0,35.0,1,1.0,0.2681010000000015
136,14,0.5,0.0625,-35.0,1,0.0,0.45040099999982885
137,14,0.5,0.125,-35.0,-1,1.0,0.2867999999999711
138,14,0.5,0.25,-35.0,-1,1.0,0.26959999999996853
139,14,0.5,0.25,-35.0,-1,1.0,0.24679999999989377
140,14,0.5,0.0,35.0,-1,0.0,0.5446999999999207
141,14,0.5,0.25,-35.0,-1,1.0,0.28470100000004095
142,14,0.5,1.0,35.0,1,1.0,0.25309999999990396
143,14,0.5,0.25,-35.0,-1,1.0,0.29280000000005657
144,14,0.5,0.25,-35.0,-1,1.0,0.29529999999999745
145,14,0.5,0.0625,35.0,1,1.0,0.5156009999999469
146,14,0.5,0.25,-35.0,-1,1.0,0.264699999999948
147,14,0.5,0.0625,35.0,1,1.0,0.31119999999998527
148,14,0.5,0.0,-35.0,-1,1.0,0.5790999999999258
149,14,0.5,0.0,-35.0,-1,1.0,0.43870000000003984
150,14,0.5,0.25,35.0,1,1.0,0.22600099999999657
151,14,0.5,0.125,35.0,1,1.0,0.33609999999998763
152,14,0.5,0.25,35.0,1,1.0,0.28539999999986776
153,14,0.5,0.125,35.0,1,1.0,0.284799999999791
154,14,0.5,0.0625,35.0,1,1.0,0.2938009999999167
155,14,0.5,0.0625,-35.0,-1,1.0,0.28460099999995236
156,14,0.5,0.25,-35.0,-1,1.0,0.26880000000005566
157,14,0.5,0.0625,35.0,1,1.0,0.5534009999998943
158,14,0.5,0.125,35.0,1,1.0,0.29769999999996344
159,14,0.5,1.0,-35.0,-1,1.0,0.3306999999999789
160,14,0.5,0.25,35.0,1,1.0,0.2627999999998565
161,14,0.5,0.125,-35.0,-1,1.0,0.26969999999994343
162,14,0.5,0.0,-35.0,1,0.0,0.8807009999999309
163,14,0.5,0.125,-35.0,-1,1.0,0.3209000000000515
164,14,0.5,0.0625,35.0,1,1.0,0.23879999999996926
165,14,0.5,0.0625,35.0,1,1.0,0.3186999999999216
166,14,0.5,1.0,-35.0,-1,1.0,0.28509999999994307
167,14,0.5,0.0,35.0,-1,0.0,0.4110999999999194
168,14,0.5,0.0,35.0,1,1.0,0.2707999999998947
169,14,0.5,1.0,-35.0,-1,1.0,0.30570000000000164
170,14,0.5,0.0625,-35.0,-1,1.0,0.2759999999999536
171,14,0.5,1.0,35.0,1,1.0,0.22689999999988686
172,14,0.5,1.0,-35.0,-1,1.0,0.31189999999992324
173,14,0.5,1.0,35.0,1,1.0,0.2882999999999356
174,14,0.5,0.25,-35.0,-1,1.0,0.3130999999998494
175,14,0.5,0.0,-35.0,1,0.0,0.2219000000000051
176,14,0.5,0.25,-35.0,-1,1.0,0.2515999999999394
177,14,0.5,0.25,35.0,1,1.0,0.24519999999995434
178,14,0.5,1.0,-35.0,-1,1.0,0.2600999999998521
179,14,0.5,1.0,-35.0,-1,1.0,0.22820000000001528
180,14,0.5,0.25,35.0,1,1.0,0.19419999999990978
181,14,0.5,0.25,35.0,1,1.0,0.21239999999988868
182,14,0.5,0.25,-35.0,-1,1.0,0.4196999999999207
183,14,0.5,0.125,35.0,1,1.0,0.13570000000004256
184,14,0.5,0.25,35.0,1,1.0,0.22509999999999764
185,14,0.5,0.125,35.0,1,1.0,0.5496999999999161
186,14,0.5,1.0,35.0,1,1.0,0.3005999999999176
187,14,0.5,0.25,-35.0,-1,1.0,0.2859009999999671
188,14,0.5,0.0625,-35.0,-1,1.0,0.4259999999999309
189,14,0.5,0.25,-35.0,-1,1.0,0.24880099999995764
190,14,0.5,0.0,-35.0,1,0.0,0.2401999999999589
191,14,0.5,0.25,35.0,1,1.0,0.3001009999999269
192,14,0.5,0.0,35.0,1,1.0,0.10759999999993397
193,14,0.5,1.0,35.0,1,1.0,0.30260099999998147
194,14,0.5,0.125,35.0,1,1.0,0.2625999999999067
195,14,0.5,0.125,35.0,1,1.0,0.4116999999998825
196,14,0.5,0.0625,-35.0,-1,1.0,0.4637000000000171
197,14,0.5,0.25,35.0,1,1.0,0.24119999999993524
198,14,0.5,0.0625,-35.0,-1,1.0,0.3692999999999529
199,14,0.5,0.125,-35.0,-1,1.0,0.35359999999991487
200,14,0.5,0.125,35.0,1,1.0,0.2698999999998932
201,14,0.5,0.25,-35.0,-1,1.0,0.233600000000024
202,14,0.5,0.25,35.0,1,1.0,0.2572010000000091
203,14,0.5,0.125,35.0,1,1.0,0.3805999999999585
204,14,0.5,1.0,-35.0,-1,1.0,0.27860099999998056
205,14,0.5,1.0,35.0,1,1.0,0.23359999999991032
206,14,0.5,0.0625,-35.0,-1,1.0,0.539299999999912
207,14,0.5,0.125,-35.0,-1,1.0,0.2860999999999194
208,14,0.5,0.0,-35.0,-1,1.0,0.323099999999954
209,14,0.5,0.25,35.0,1,1.0,0.2503000000000384
210,14,0.5,0.25,-35.0,-1,1.0,0.32650000000001
211,14,0.5,0.0625,35.0,1,1.0,0.2658999999998741
212,14,0.5,0.25,35.0,1,1.0,0.1816000000000031
213,14,0.5,0.125,35.0,1,1.0,0.233600000000024
214,14,0.5,0.25,35.0,1,1.0,0.282100000000014
215,14,0.5,0.125,35.0,1,1.0,0.21609999999998308
216,14,0.5,0.25,-35.0,-1,1.0,0.36019999999996344
217,14,0.5,0.125,35.0,1,1.0,0.2925999999999931
218,14,0.5,0.25,-35.0,-1,1.0,0.34009999999989304
219,14,0.5,0.0,-35.0,1,0.0,2.0786000000000513
220,14,0.5,0.125,35.0,1,1.0,0.2924000000000433
221,14,0.5,0.25,35.0,1,1.0,0.2785999999999831
222,14,0.5,0.0625,35.0,1,1.0,0.3021999999999707
223,14,0.5,0.25,35.0,1,1.0,0.24649999999996908
224,14,0.5,0.125,35.0,1,1.0,0.22870000000000346
225,14,0.5,0.0,-35.0,1,0.0,0.26179999999988013
226,14,0.8,0.0,35.0,1,1.0,0.31110000000001037
227,14,0.5,1.0,-35.0,-1,1.0,0.3065000000000282
228,14,0.5,1.0,35.0,1,1.0,0.23130000000003292
229,14,0.5,0.25,-35.0,-1,1.0,0.29959999999994125
230,14,0.5,0.25,-35.0,-1,1.0,0.2600999999999658
231,14,0.5,0.25,-35.0,-1,1.0,0.28680100000008224
232,14,0.5,1.0,35.0,1,1.0,0.24079999999992197
233,14,0.5,0.25,-35.0,-1,1.0,0.26699999999993906
234,14,0.5,1.0,-35.0,-1,1.0,0.24289999999996326
235,14,0.5,0.125,-35.0,-1,1.0,0.4092009999999391
236,14,0.5,0.0625,35.0,1,1.0,0.40209999999990487
237,14,0.5,0.25,-35.0,-1,1.0,0.22039999999992688
238,14,0.5,1.0,-35.0,-1,1.0,0.2879009999999198
239,14,0.5,0.25,-35.0,-1,1.0,0.30100099999992835
240,14,0.5,0.0,-35.0,1,0.0,5.982099999999946
241,14,0.5,0.25,35.0,1,1.0,0.2299999999999045
242,14,0.5,0.125,35.0,1,1.0,0.32930100000010043
243,14,0.5,0.0625,-35.0,-1,1.0,0.48850000000004457
244,14,0.5,1.0,-35.0,-1,1.0,0.3150999999999158
245,14,0.5,0.0625,35.0,1,1.0,0.2719999999999345
246,14,0.5,1.0,35.0,1,1.0,0.19060099999990143
247,14,0.5,1.0,35.0,1,1.0,0.3745999999999867
248,14,0.5,0.25,35.0,1,1.0,0.27350000000001273
249,14,0.5,0.0,-35.0,1,0.0,3.061501000000021
250,14,0.5,0.0625,35.0,-1,0.0,2.2554999999999836
251,14,0.7,0.0625,-35.0,1,0.0,0.953499999999849
252,14,0.5,1.0,-35.0,-1,1.0,0.1263010000000122
253,14,0.5,1.0,-35.0,-1,1.0,0.25699999999983447
254,14,0.5,0.0625,35.0,-1,0.0,1.5328999999999269
255,14,0.5,0.25,-35.0,-1,1.0,0.25719999999978427
256,14,0.5,0.25,35.0,1,1.0,0.24349999999981264
257,14,0.5,0.0625,35.0,1,1.0,0.27749999999991815
258,14,0.5,1.0,-35.0,-1,1.0,0.2500999999999749
259,14,0.5,0.0625,-35.0,-1,1.0,0.27110000000016043
260,14,0.5,0.0625,35.0,1,1.0,2.6334999999999127
261,14,0.5,1.0,-35.0,-1,1.0,0.22090000000002874
262,14,0.5,0.125,-35.0,-1,1.0,0.2635999999999967
263,14,0.5,0.125,35.0,1,1.0,0.7749999999996362
264,14,0.5,0.0625,-35.0,-1,1.0,0.4338000000000193
265,14,0.5,1.0,35.0,1,1.0,0.31150000000002365
266,14,0.5,0.0,-35.0,-1,1.0,0.6105009999998856
267,14,0.5,0.25,-35.0,-1,1.0,0.3248999999998432
268,14,0.5,0.25,-35.0,-1,1.0,0.2739999999998872
269,14,0.5,0.0,35.0,-1,0.0,0.38149999999996
270,14,0.5,0.0625,35.0,1,1.0,0.8274999999998727
271,14,0.5,1.0,35.0,1,1.0,0.22159999999985303
272,14,0.5,0.0625,-35.0,-1,1.0,0.46090000000003783
273,14,0.5,1.0,-35.0,-1,1.0,0.26519999999982247
274,14,0.5,0.25,35.0,1,1.0,0.2944999999997435
275,14,0.5,0.125,-35.0,-1,1.0,0.25540000000000873
276,14,0.5,0.0,35.0,1,1.0,0.19129999999995562
277,14,0.5,0.125,-35.0,-1,1.0,0.21580000000017208
278,14,0.5,1.0,-35.0,-1,1.0,0.22480000000018663
279,14,0.5,0.0,35.0,-1,0.0,0.47549999999978354
280,14,0.5,0.25,35.0,1,1.0,0.21159999999986212
281,14,0.5,0.125,35.0,1,1.0,0.4092999999998028
282,14,0.5,1.0,35.0,1,1.0,0.19839999999999236
283,14,0.5,1.0,35.0,1,1.0,0.2463999999997668
284,14,0.5,1.0,-35.0,-1,1.0,0.35169999999993706
285,14,0.5,1.0,35.0,1,1.0,0.2764999999999418
286,14,0.5,0.125,-35.0,-1,1.0,0.29539999999997235
287,14,0.5,0.0625,35.0,1,1.0,0.3761999999996988
288,14,0.5,1.0,35.0,1,1.0,0.23860100000001694
289,14,0.5,1.0,35.0,1,1.0,0.20650099999988925
290,14,0.5,0.25,35.0,1,1.0,0.21559999999976753
291,14,0.5,1.0,-35.0,-1,1.0,0.29349999999999454
292,14,0.5,0.0625,35.0,1,1.0,0.45549999999980173
293,14,0.5,0.0,-35.0,-1,1.0,0.3064999999999145
294,14,0.5,1.0,35.0,1,1.0,0.29589999999984684
295,14,0.5,0.25,-35.0,-1,1.0,0.28989999999976135
296,14,0.5,0.0,-35.0,1,0.0,0.2659000000001015
297,14,0.5,0.25,35.0,1,1.0,0.0933999999997468
298,14,0.5,0.0625,-35.0,-1,1.0,0.4560999999998785
299,14,0.5,0.0625,-35.0,-1,1.0,0.28359999999975116
300,14,0.5,0.0,35.0,-1,0.0,0.5163000000000011
301,14,0.5,0.25,35.0,1,1.0,0.4574009999998907
302,14,0.5,0.0625,-35.0,-1,1.0,0.412900000000036
303,14,0.5,0.0,35.0,-1,0.0,0.38390000000003965
304,14,0.5,0.0625,-35.0,-1,1.0,0.2964999999999236
305,14,0.5,0.0625,-35.0,-1,1.0,0.39069999999969696
306,14,0.5,0.0625,-35.0,1,0.0,0.259900000000016
307,14,0.3,0.0625,35.0,1,1.0,0.2943999999997686
308,14,0.5,1.0,35.0,1,1.0,0.24670000000014625
309,14,0.5,0.25,-35.0,-1,1.0,0.27100000000018554
310,14,0.5,1.0,-35.0,-1,1.0,0.2536999999999807
311,14,0.5,0.25,-35.0,-1,1.0,0.4211999999999989
312,14,0.5,1.0,-35.0,-1,1.0,0.3704999999999927
313,14,0.5,0.0625,35.0,-1,0.0,0.26539999999977226
314,14,0.5,0.0625,35.0,1,1.0,0.3973999999998341
315,14,0.5,0.125,35.0,1,1.0,0.22479999999973188
316,14,0.5,0.125,35.0,1,1.0,0.2638999999999214
317,14,0.5,1.0,-35.0,-1,1.0,0.2323999999998705
318,14,0.5,0.25,-35.0,-1,1.0,0.30750000000011823
319,14,0.5,0.25,35.0,1,1.0,0.2883999999999105
320,14,0.5,0.125,35.0,1,1.0,0.27739999999994325
321,14,0.5,0.0625,-35.0,-1,1.0,0.31539999999995416
322,14,0.5,0.0,-35.0,1,0.0,0.2677000000001044
323,14,0.5,0.25,35.0,1,1.0,0.32529999999997017
324,14,0.5,0.25,35.0,1,1.0,0.29120000000011714
325,14,0.5,0.25,35.0,1,1.0,0.24929999999994834
326,14,0.5,0.0625,35.0,1,1.0,0.4612999999999374
327,14,0.5,0.0625,35.0,1,1.0,0.2555999999999585
328,14,0.5,0.125,-35.0,-1,1.0,0.38470099999995
329,14,0.5,0.25,35.0,1,1.0,0.2722009999999955
330,14,0.5,0.0625,-35.0,-1,1.0,0.48820099999989
331,14,0.5,0.125,35.0,1,1.0,0.25929999999993925
332,14,0.5,0.0,-35.0,1,0.0,0.761801000000105
333,14,0.5,0.0625,35.0,1,1.0,0.4795010000000275
334,14,0.5,0.125,35.0,1,1.0,0.251700000000028
335,14,0.5,0.125,-35.0,-1,1.0,0.9493999999999687
336,14,0.5,1.0,35.0,1,1.0,0.25529999999980646
337,14,0.5,0.0625,-35.0,-1,1.0,5.892800000000079
338,14,0.5,1.0,-35.0,-1,1.0,0.23550000000000182
339,14,0.5,0.0,35.0,-1,0.0,1.546199999999999
340,14,0.5,0.125,-35.0,-1,1.0,0.23900000000003274
341,14,0.5,0.25,35.0,1,1.0,0.3067000000000917
342,14,0.5,0.0625,35.0,1,1.0,0.25909999999998945
343,14,0.5,0.125,-35.0,-1,1.0,0.28700099999991835
344,14,0.5,0.125,-35.0,-1,1.0,0.28929999999991196
345,14,0.5,1.0,35.0,1,1.0,0.2704000000001088
346,14,0.5,0.25,35.0,1,1.0,0.4825999999998203
347,14,0.5,0.0625,35.0,1,1.0,0.48679999999990287
348,14,0.5,0.0625,35.0,1,1.0,0.32940000000007785
349,14,0.5,0.0625,35.0,1,1.0,0.34730000000013206
350,14,0.5,0.125,-35.0,-1,1.0,0.5133999999998196
351,14,0.5,0.25,-35.0,-1,1.0,0.26080000000001746
352,14,0.5,0.125,35.0,1,1.0,0.27969999999982065
353,14,0.5,1.0,35.0,1,1.0,0.22430000000008476
354,14,0.5,0.0625,35.0,1,1.0,0.7832999999998265
355,14,0.5,0.25,35.0,1,1.0,0.19419999999990978
356,14,0.5,1.0,-35.0,-1,1.0,0.22329999999988104
357,14,0.5,0.25,35.0,1,1.0,0.32759999999984757
358,14,0.5,1.0,35.0,1,1.0,0.4233999999999014
359,14,0.5,0.0625,35.0,1,1.0,0.2842000000000553
360,14,0.5,0.125,-35.0,-1,1.0,0.3102999999998701
361,14,0.5,0.125,35.0,1,1.0,0.2177999999998974
362,14,0.5,0.25,35.0,1,1.0,0.24060000000008586
363,14,0.5,1.0,35.0,1,1.0,0.3145000000001801
364,14,0.5,0.0625,35.0,1,1.0,0.45729999999980464
365,14,0.5,1.0,35.0,1,1.0,0.34530000000017935
366,14,0.5,1.0,-35.0,-1,1.0,0.2873010000000704
367,14,0.5,0.25,35.0,1,1.0,0.29169999999999163
368,14,0.5,0.0625,-35.0,-1,1.0,0.5272999999999683
369,14,0.5,1.0,-35.0,-1,1.0,0.271900000000187
370,14,0.5,0.125,35.0,1,1.0,0.6141999999997552
371,14,0.5,0.0625,-35.0,-1,1.0,0.15190000000006876
372,14,0.5,0.0625,-35.0,-1,1.0,0.4442999999998847
373,14,0.5,1.0,-35.0,-1,1.0,0.32529999999997017
374,14,0.5,0.125,-35.0,-1,1.0,0.29450100000008206
375,14,0.5,0.25,-35.0,-1,1.0,0.2823000000000775
376,14,0.5,1.0,35.0,1,1.0,0.30130099999973936
377,14,0.5,1.0,-35.0,-1,1.0,0.26900000000000546
378,14,0.5,0.0,35.0,-1,0.0,2.2014999999998963
379,14,0.5,0.25,-35.0,-1,1.0,0.28629999999975553
380,14,0.5,0.0625,-35.0,-1,1.0,1.1715999999998985
381,14,0.5,0.25,35.0,1,1.0,0.24620000000004438
382,14,0.5,0.0625,35.0,1,1.0,0.36179999999990287
383,14,0.5,1.0,35.0,1,1.0,0.2661009999999351
384,14,0.5,1.0,-35.0,-1,1.0,0.29529999999999745
385,14,0.5,0.25,-35.0,-1,1.0,0.28619999999978063
386,14,0.5,1.0,-35.0,-1,1.0,0.2785999999998694
387,14,0.5,0.0,-35.0,1,0.0,0.48649999999997817
388,14,0.5,0.25,35.0,1,1.0,0.30880099999990307
389,14,0.5,0.0625,-35.0,-1,1.0,0.3063000000001921
390,14,0.5,0.0,-35.0,1,0.0,0.6693000000000211
391,14,0.6,0.0,-35.0,-1,1.0,0.24299999999993815
392,14,0.5,1.0,-35.0,-1,1.0,0.309099999999944
393,14,0.5,1.0,35.0,1,1.0,0.23349999999982174
394,14,0.5,0.125,-35.0,-1,1.0,0.28579999999988104
395,14,0.5,0.125,-35.0,-1,1.0,0.37030000000004293
396,14,0.5,0.0625,-35.0,-1,1.0,0.26270099999987906
397,14,0.5,0.125,35.0,1,1.0,0.26339999999981956
398,14,0.5,0.0,-35.0,1,0.0,0.5393999999998869
399,14,0.4,0.0,35.0,-1,0.0,0.3337019999999029
400,14,0.5,1.0,35.0,1,1.0,0.249800999999934
401,14,0.5,1.0,-35.0,-1,1.0,0.25030100000003586
402,14,0.5,0.125,-35.0,-1,1.0,0.26650100000006205
403,14,0.5,0.0625,35.0,1,1.0,0.34130099999993035
404,14,0.5,0.25,35.0,1,1.0,0.3966010000001461
405,14,0.5,1.0,35.0,1,1.0,0.22770100000002458
406,14,0.5,0.0,35.0,1,1.0,3.0268009999999776
407,14,0.5,0.125,-35.0,-1,1.0,0.3176019999998516
408,14,0.5,0.0,35.0,-1,0.0,0.753601000000117
409,14,0.5,0.25,-35.0,-1,1.0,0.23090099999990343
410,14,0.5,0.125,35.0,1,1.0,0.2672010000001137
411,14,0.5,0.25,-35.0,-1,1.0,0.24440200000003642
412,14,0.5,0.0625,-35.0,-1,1.0,4.194201000000248
413,14,0.5,0.125,35.0,1,1.0,0.20490099999983613
414,14,0.5,0.125,-35.0,-1,1.0,0.22410100000024613
415,14,0.5,0.125,-35.0,-1,1.0,0.37150100000008024
416,14,0.5,0.0625,35.0,-1,0.0,0.7112009999998463
417,14,0.5,0.25,-35.0,-1,1.0,0.27540099999987433
418,14,0.5,0.0625,-35.0,-1,1.0,0.3682020000001103
419,14,0.5,0.0625,-35.0,-1,1.0,0.4152010000000246
420,14,0.5,0.25,-35.0,-1,1.0,0.29470100000003185
421,14,0.5,0.0,35.0,-1,0.0,0.4620009999998729
422,14,0.1,0.0,35.0,-1,0.0,0.4013009999998758
423,14,0.5,1.0,35.0,1,1.0,0.23220100000003185
424,14,0.5,0.25,35.0,1,1.0,0.2351010000002134
425,14,0.5,1.0,35.0,1,1.0,0.2492019999999684
426,14,0.5,0.25,35.0,1,1.0,0.3317010000000664
427,14,0.5,1.0,-35.0,-1,1.0,0.2659009999997579
428,14,0.5,0.25,-35.0,-1,1.0,0.3218010000000504
429,14,0.5,0.0625,35.0,1,1.0,0.27610200000003715
430,14,0.5,0.0625,35.0,-1,0.0,0.3486009999999169
431,14,0.5,0.125,-35.0,-1,1.0,0.24290100000007442
432,14,0.5,0.0,35.0,1,1.0,7.935500999999931
433,14,0.5,1.0,-35.0,-1,1.0,0.25660099999981867
434,14,0.5,0.25,35.0,1,1.0,0.24250200000005862
435,14,0.5,0.125,35.0,1,1.0,0.2834020000000237
436,14,0.5,0.125,-35.0,-1,1.0,0.6325009999998201
437,14,0.5,1.0,-35.0,-1,1.0,0.23020100000007915
438,14,0.5,0.125,35.0,1,1.0,0.46610199999986435
439,14,0.5,0.0625,-35.0,1,0.0,3.8972009999999955
440,14,0.5,0.0625,-35.0,1,0.0,0.3062009999998736
441,14,0.6,0.0625,35.0,1,1.0,0.2704009999997652
442,14,0.5,1.0,-35.0,-1,1.0,0.29310099999997874
443,14,0.5,0.125,35.0,1,1.0,0.25710099999969316
444,14,0.5,1.0,-35.0,-1,1.0,0.2598019999998087
445,14,0.5,1.0,35.0,1,1.0,0.3541009999999005
446,14,0.5,1.0,-35.0,-1,1.0,0.24650099999985287
447,14,0.5,0.0,-35.0,1,0.0,1.3142009999999118
448,14,0.7,0.0,35.0,-1,0.0,0.26010100000007697
449,14,0.5,1.0,-35.0,-1,1.0,0.2511010000000624
450,14,0.5,0.0,35.0,-1,0.0,0.843501999999944
451,14,0.5,0.25,35.0,1,1.0,0.2312010000000555
452,14,0.5,0.25,35.0,1,1.0,0.6005009999998947
453,14,0.5,0.25,-35.0,-1,1.0,0.23470200000019759
454,14,0.5,0.25,35.0,1,1.0,0.34720100000004095
455,14,0.5,0.25,-35.0,-1,1.0,0.2814009999999598
456,14,0.5,0.125,35.0,1,1.0,0.467401000000109
457,14,0.5,1.0,-35.0,-1,1.0,0.24820099999988088
458,14,0.5,0.0625,35.0,1,1.0,0.28110099999980775
459,14,0.5,0.125,35.0,1,1.0,0.3986009999998714
460,14,0.5,0.0625,35.0,1,1.0,3.7676010000000133
461,14,0.5,0.25,35.0,1,1.0,0.2412019999999302
462,14,0.5,0.0,35.0,1,1.0,0.16200199999980214
463,14,0.5,0.0625,35.0,1,1.0,0.3081009999998514
464,14,0.5,0.125,35.0,1,1.0,0.2356009999998605
465,14,0.5,0.25,-35.0,-1,1.0,0.2980009999998856
466,14,0.5,0.0,-35.0,-1,1.0,5.862401000000091
467,14,0.5,0.0625,-35.0,-1,1.0,0.25160099999970953
468,14,0.5,1.0,35.0,1,1.0,0.25930200000016157
469,14,0.5,0.25,35.0,1,1.0,0.21190099999989798
470,14,0.5,0.125,-35.0,-1,1.0,0.2596009999999751
471,14,0.5,1.0,35.0,1,1.0,0.7786009999999806
472,14,0.5,0.25,35.0,1,1.0,0.2695009999999911
473,14,0.5,0.0625,35.0,1,1.0,0.445500999999922
474,14,0.5,0.0625,-35.0,-1,1.0,0.3930009999999129
475,14,0.5,0.125,-35.0,-1,1.0,0.30910100000005514
476,14,0.5,0.25,35.0,1,1.0,0.26310099999977865
477,14,0.5,0.0625,-35.0,-1,1.0,3.4191020000000663
478,14,0.5,0.0,-35.0,-1,1.0,0.40010099999994964
479,14,0.5,0.125,-35.0,-1,1.0,0.2293010000000777
480,14,0.5,0.125,-35.0,-1,1.0,0.2435009999999238
481,14,0.5,0.25,35.0,1,1.0,0.26310099999977865
482,14,0.5,0.25,35.0,1,1.0,0.41350099999999657
483,14,0.5,0.125,35.0,1,1.0,0.2396009999999933
484,14,0.5,0.0625,-35.0,-1,1.0,0.36400099999991653
485,14,0.5,0.25,-35.0,-1,1.0,0.29310099999997874
486,14,0.5,0.0625,35.0,1,1.0,0.6240010000001348
487,14,0.5,0.0625,35.0,1,1.0,0.6432009999998627
488,14,0.5,0.0625,-35.0,-1,1.0,0.2608020000000124
489,14,0.5,0.125,35.0,1,1.0,0.35670099999993
490,14,0.5,0.0,35.0,-1,0.0,0.37410099999988233
491,14,0.5,0.25,35.0,1,1.0,0.30700099999990016
492,14,0.5,0.25,-35.0,-1,1.0,0.2577009999999973
493,14,0.5,1.0,-35.0,-1,1.0,0.263501000000133
494,14,0.5,0.125,-35.0,-1,1.0,0.30460100000004786
495,14,0.5,0.25,-35.0,-1,1.0,0.2171009999999569
496,14,0.5,0.0,35.0,-1,0.0,0.38800099999980375
497,14,0.5,0.0625,35.0,1,1.0,0.28050099999995837
498,14,0.5,0.25,35.0,1,1.0,0.2613010000000031
499,14,0.5,1.0,-35.0,-1,1.0,0.2973010000000613
500,14,0.5,0.0,35.0,-1,0.0,0.2654010000001108
501,14,0.5,0.25,35.0,1,1.0,0.2676009999997859
502,14,0.5,1.0,-35.0,-1,1.0,0.23190199999999095
503,14,0.5,0.0625,-35.0,-1,1.0,1.1310009999999693
504,14,0.5,0.0625,-35.0,-1,1.0,0.3985009999998965
505,14,0.5,1.0,-35.0,-1,1.0,0.22440100000017082
506,14,0.5,0.0,-35.0,1,0.0,2.701900999999907
507,14,0.5,0.0,-35.0,-1,1.0,0.2247019999999793
508,14,0.5,0.125,35.0,1,1.0,0.2960009999999329
509,14,0.5,0.25,35.0,1,1.0,0.3281009999998332
510,14,0.5,1.0,-35.0,-1,1.0,0.24570100000005368
511,14,0.5,1.0,-35.0,-1,1.0,0.4617009999999482
512,14,0.5,0.125,-35.0,-1,1.0,0.2691019999999753
513,14,0.5,0.0625,-35.0,-1,1.0,0.37200099999995473
514,14,0.5,0.0625,-35.0,-1,1.0,8.739300999999841
515,14,0.5,0.25,35.0,1,1.0,0.20880200000010518
516,14,0.5,0.25,35.0,1,1.0,0.30640200000016193
517,14,0.5,0.125,-35.0,-1,1.0,0.3821020000000317
518,14,0.5,0.0625,-35.0,-1,1.0,0.22980099999995218
519,14,0.5,1.0,35.0,1,1.0,0.24230199999965407
520,14,0.5,0.125,35.0,1,1.0,0.27650100000028033
521,14,0.5,0.0625,35.0,1,1.0,0.26260199999978795
522,14,0.5,0.25,35.0,1,1.0,0.2470010000001821
523,14,0.5,1.0,-35.0,-1,1.0,0.25250099999993836
524,14,0.5,0.25,-35.0,-1,1.0,0.27700099999992744
525,14,0.5,0.0625,35.0,1,1.0,0.272801999999956
526,14,0.5,0.125,-35.0,-1,1.0,0.287000999999691
527,14,0.5,1.0,-35.0,-1,1.0,0.26300099999980375
528,14,0.5,0.0,-35.0,-1,1.0,0.70370099999991
529,14,0.5,0.25,-35.0,-1,1.0,0.2629009999996015
530,14,0.5,0.0625,-35.0,-1,1.0,0.2840009999999893
531,14,0.5,0.125,35.0,1,1.0,0.3098009999998794
532,14,0.5,0.0,35.0,1,1.0,0.2607010000001537
533,14,0.5,0.25,35.0,1,1.0,0.24010099999986778
534,14,0.5,0.25,-35.0,-1,1.0,0.24430100000017774
535,14,0.5,1.0,35.0,1,1.0,0.2600009999996473
536,14,0.5,0.0,35.0,-1,0.0,4.92790100000002
537,14,0.5,0.125,35.0,1,1.0,0.4870009999995091
538,14,0.5,1.0,-35.0,-1,1.0,0.21800200000006953
539,14,0.5,0.0625,-35.0,-1,1.0,0.3240009999999529
540,14,0.5,0.125,-35.0,-1,1.0,0.30510199999980614
541,14,0.5,0.0,-35.0,1,0.0,0.4673010000001341
542,14,0.5,0.0,35.0,1,1.0,0.24820099999988088
543,14,0.5,1.0,-35.0,-1,1.0,0.24100099999986924
544,14,0.5,0.25,35.0,1,1.0,0.38220200000023397
545,14,0.5,0.125,-35.0,-1,1.0,0.2976010000002134
546,14,0.5,0.0,-35.0,-1,1.0,2.8051009999994676
547,14,0.5,1.0,-35.0,-1,1.0,0.20790200000010373
548,14,0.5,0.125,35.0,1,1.0,0.18870099999958256
549,14,0.5,1.0,-35.0,-1,1.0,0.3913009999996575
550,14,0.5,0.0,35.0,-1,0.0,6.759301999999934
551,14,0.5,0.0625,-35.0,-1,1.0,0.2549010000002454
552,14,0.5,0.125,35.0,1,1.0,0.2189010000001872
553,14,0.5,0.125,35.0,1,1.0,0.25500099999999293
554,14,0.5,0.0625,35.0,1,1.0,0.3799010000002454
555,14,0.5,1.0,-35.0,-1,1.0,0.25190100000008897
556,14,0.5,0.0625,-35.0,-1,1.0,0.31930099999999584
557,14,0.5,0.0625,-35.0,-1,1.0,0.8420010000004368
558,14,0.5,1.0,35.0,1,1.0,0.25960099999974773
559,14,0.5,0.25,-35.0,-1,1.0,0.24540200000001278
560,14,0.5,0.0625,35.0,1,1.0,0.8831009999998969
561,14,0.5,0.125,-35.0,-1,1.0,0.3822009999994407
562,14,0.5,0.0625,-35.0,-1,1.0,0.38990100000000893
563,14,0.5,1.0,35.0,1,1.0,0.2890009999996437
564,14,0.5,0.0625,35.0,1,1.0,1.5867009999997208
565,14,0.5,0.125,-35.0,-1,1.0,0.28270100000008824
566,14,0.5,0.125,35.0,1,1.0,0.24690099999997983
567,14,0.5,0.0,35.0,-1,0.0,0.28290100000003804
568,14,0.5,0.25,35.0,1,1.0,0.24020100000007005
569,14,0.5,0.0625,35.0,1,1.0,1.1029010000002017
570,14,0.5,0.0625,35.0,1,1.0,0.5239010000000235
571,14,0.5,0.0625,-35.0,-1,1.0,0.2531010000002425
572,14,0.5,0.25,35.0,1,1.0,0.24430100000017774
573,14,0.5,0.25,-35.0,-1,1.0,0.2332010000000082
574,14,0.5,0.125,35.0,1,1.0,0.6909019999998236
575,14,0.5,1.0,-35.0,-1,1.0,0.2269019999998818
576,14,0.5,0.25,35.0,1,1.0,0.28440100000034363
577,14,0.5,0.125,-35.0,-1,1.0,0.22690099999999802
578,14,0.5,1.0,-35.0,-1,1.0,0.2109019999998054
579,14,0.5,0.0,-35.0,-1,1.0,0.5204009999997652
580,14,0.5,1.0,35.0,1,1.0,0.3813020000002325
581,14,0.5,0.0,35.0,-1,0.0,0.5071010000001479
582,14,0.5,0.125,-35.0,-1,1.0,0.3349009999997179
583,14,0.5,0.0625,35.0,-1,0.0,5.360701000000063
584,14,0.5,0.0,-35.0,1,0.0,12.454901000000064
585,14,0.5,0.0625,-35.0,-1,1.0,0.28450100000009115
586,14,0.5,0.25,-35.0,-1,1.0,0.2556009999998423
587,14,0.5,1.0,-35.0,-1,1.0,0.21480099999962476
588,14,0.5,1.0,35.0,1,1.0,4.725800999999592
589,14,0.5,0.125,35.0,1,1.0,0.31840099999953964
590,14,0.5,0.125,35.0,1,1.0,0.516001999999844
591,14,0.5,0.25,35.0,1,1.0,0.431800999999723
592,14,0.5,0.0625,-35.0,-1,1.0,0.36600099999986924
593,14,0.5,0.125,-35.0,-1,1.0,0.19520099999954255
594,14,0.5,1.0,-35.0,-1,1.0,0.22280100000034508
595,14,0.5,0.25,-35.0,-1,1.0,0.32540200000039476
596,14,0.5,0.25,-35.0,-1,1.0,0.2628010000003087
597,14,0.5,0.125,-35.0,-1,1.0,0.2789010000001326
598,14,0.5,1.0,-35.0,-1,1.0,0.26300099999980375
599,14,0.5,0.125,-35.0,-1,1.0,0.2690010000001166
600,14,0.5,1.0,35.0,1,1.0,0.29680099999995946
601,14,0.5,0.0625,-35.0,-1,1.0,0.27580100000022867
602,14,0.5,0.0625,35.0,1,1.0,0.5799010000000635
603,14,0.5,0.125,-35.0,-1,1.0,0.3092019999999138
604,14,0.5,0.25,35.0,1,1.0,0.45000100000015664
605,14,0.5,1.0,-35.0,-1,1.0,0.21590100000003076
606,14,0.5,0.25,-35.0,-1,1.0,0.24010200000020632
607,14,0.5,0.0625,35.0,-1,0.0,0.40610100000003513
608,14,0.5,0.0625,-35.0,-1,1.0,0.24690200000031837
609,14,0.5,0.25,-35.0,-1,1.0,0.2798010000001341
610,14,0.5,0.0625,-35.0,-1,1.0,0.32720100000005914
611,14,0.5,1.0,35.0,1,1.0,0.4098010000002432
612,14,0.5,1.0,-35.0,-1,1.0,0.26730099999986123
613,14,0.5,0.25,-35.0,-1,1.0,0.21660100000008242
614,14,0.5,0.0625,-35.0,1,0.0,0.16070099999978993
615,14,0.5,0.0,-35.0,-1,1.0,0.1268009999998867
616,14,0.5,0.25,35.0,1,1.0,0.25680099999999584
617,14,0.5,1.0,-35.0,-1,1.0,0.24800099999993108
618,14,0.5,0.25,35.0,1,1.0,0.24370200000021214
619,14,0.5,0.125,-35.0,-1,1.0,0.2547010000002956
620,14,0.5,0.0625,-35.0,-1,1.0,0.31380099999978484
621,14,0.5,0.125,35.0,1,1.0,0.2880009999998947
622,14,0.5,1.0,-35.0,-1,1.0,0.38060100000029706
623,14,0.5,0.0625,35.0,1,1.0,0.3548009999999522
624,14,0.5,0.25,35.0,1,1.0,0.5208009999996648
625,14,0.5,0.25,-35.0,-1,1.0,0.33140099999991435
626,14,0.5,0.25,-35.0,-1,1.0,0.260801000000356
627,14,0.5,0.0625,35.0,1,1.0,0.30880200000001423
628,14,0.5,0.25,35.0,1,1.0,0.3943019999996977
629,14,0.5,0.0,-35.0,-1,1.0,0.34210099999972954
630,14,0.5,1.0,-35.0,-1,1.0,0.2778009999997266
631,14,0.5,0.25,35.0,1,1.0,0.44230100000004313
632,14,0.5,0.125,35.0,1,1.0,0.2413010000000213
633,14,0.5,1.0,35.0,1,1.0,0.3421020000000681
634,14,0.5,0.125,-35.0,-1,1.0,0.31480099999998856
635,14,0.5,0.0625,35.0,1,1.0,0.4223019999999451
636,14,0.5,0.25,-35.0,-1,1.0,0.2583009999998467
637,14,0.5,0.25,35.0,1,1.0,0.47590100000024904
638,14,0.5,0.0,-35.0,-1,1.0,0.36170099999981176
639,14,0.5,0.0,35.0,-1,0.0,7.982800999999654
640,14,0.5,0.25,-35.0,-1,1.0,0.22880099999974846
641,14,0.5,0.125,35.0,1,1.0,0.32980099999986123
642,14,0.5,0.125,-35.0,-1,1.0,0.2621019999996861
643,14,0.5,1.0,-35.0,-1,1.0,0.23630199999979595
644,14,0.5,0.0625,-35.0,-1,1.0,0.22890199999983452
645,14,0.5,0.0625,-35.0,-1,1.0,0.23310200000014447
646,14,0.5,0.25,35.0,1,1.0,0.4092009999999391
647,14,0.5,1.0,-35.0,-1,1.0,0.22010099999988597
648,14,0.5,0.125,-35.0,-1,1.0,0.372700999999779
649,14,0.5,0.0625,-35.0,-1,1.0,0.3207009999996444
650,14,0.5,1.0,-35.0,-1,1.0,0.23600200000009863
651,14,0.5,0.0625,-35.0,-1,1.0,0.3135010000000875
652,14,0.5,0.25,35.0,1,1.0,0.43300200000021505
653,14,0.5,1.0,-35.0,-1,1.0,0.274000999999771
654,14,0.5,0.0,-35.0,-1,1.0,0.25970099999995
655,14,0.5,0.25,35.0,-1,0.0,1.2577009999999973
656,14,0.5,0.125,-35.0,-1,1.0,0.29320099999995364
657,14,0.5,0.0625,35.0,1,1.0,0.8240019999998367
658,14,0.5,0.25,-35.0,-1,1.0,0.29670100000021193
659,14,0.5,0.0625,35.0,1,1.0,0.29090099999984886
660,14,0.5,0.0625,-35.0,-1,1.0,0.3335019999999531
661,14,0.5,0.0625,-35.0,-1,1.0,0.4312009999998736
662,14,0.5,0.0625,-35.0,-1,1.0,0.3802009999999427
663,14,0.5,0.25,35.0,1,1.0,0.36800099999982194
664,14,0.5,0.0,-35.0,-1,1.0,0.7470009999997274
665,14,0.5,0.0625,-35.0,-1,1.0,0.49130200000035984
666,14,0.5,0.0625,-35.0,1,0.0,0.5740010000004077
667,14,0.4,0.0625,35.0,-1,0.0,0.3017009999998663
668,14,0.5,1.0,-35.0,-1,1.0,0.2609009999996488
669,14,0.5,0.25,35.0,1,1.0,0.248700999999528
670,14,0.5,1.0,35.0,1,1.0,0.27090199999975084
671,14,0.5,0.0625,-35.0,-1,1.0,0.33870200000001205
672,14,0.5,0.0,-35.0,1,0.0,5.514400999999907
673,14,0.5,0.25,35.0,1,1.0,0.3056010000000242
674,14,0.5,0.25,35.0,1,1.0,0.39790099999981976
675,14,0.5,0.0625,35.0,-1,0.0,0.43560100000013335
676,14,0.5,0.25,35.0,1,1.0,0.2882009999998445
677,14,0.5,0.25,-35.0,-1,1.0,0.22970200000008845
678,14,0.5,1.0,-35.0,-1,1.0,0.23170100000015736
679,14,0.5,0.0625,35.0,1,1.0,0.24590100000023085
680,14,0.5,0.0625,-35.0,-1,1.0,0.5052009999999427
681,14,0.5,0.0625,35.0,1,1.0,0.289400999999998
682,14,0.5,0.25,35.0,1,1.0,0.1853009999999813
683,14,0.5,1.0,35.0,1,1.0,0.24600199999986216
684,14,0.5,0.125,35.0,1,1.0,0.25570099999958984
685,14,0.5,0.0,-35.0,-1,1.0,1.7930010000000038
686,14,0.5,0.125,-35.0,-1,1.0,0.3022009999999682
687,14,0.5,0.0625,-35.0,-1,1.0,0.5365010000000439
688,14,0.5,0.125,-35.0,-1,1.0,0.23270099999990634
689,14,0.5,0.25,-35.0,-1,1.0,0.2301009999996495
690,14,0.5,0.0625,-35.0,-1,1.0,0.3159009999999398
691,14,0.5,0.125,-35.0,-1,1.0,0.29000100000030216
692,14,0.5,1.0,-35.0,-1,1.0,0.26600099999950544
693,14,0.5,0.25,-35.0,-1,1.0,0.2741009999999733
694,14,0.5,0.0625,35.0,1,1.0,0.6761020000003555
695,14,0.5,0.0625,-35.0,-1,1.0,0.7277020000001357
696,14,0.5,0.0,35.0,-1,0.0,0.22660099999984595
697,14,0.1,0.0,35.0,-1,0.0,0.3140010000001894
698,14,0.5,1.0,35.0,1,1.0,0.22320099999978993
699,14,0.5,0.0,35.0,1,1.0,4.607601000000159
700,14,0.5,1.0,35.0,1,1.0,0.25350099999968734
701,14,0.5,0.25,35.0,1,1.0,0.5309010000000853
702,14,0.5,0.25,-35.0,-1,1.0,0.34700100000009115
703,14,0.5,1.0,-35.0,-1,1.0,0.38780099999985396
704,14,0.5,1.0,-35.0,-1,1.0,0.31700099999989106
705,14,0.5,0.125,-35.0,-1,1.0,0.37160099999982776
706,14,0.5,1.0,-35.0,-1,1.0,0.29060100000015154
707,14,0.5,0.25,35.0,1,1.0,1.8886010000001079
708,14,0.5,1.0,35.0,1,1.0,0.3242009999999027
709,14,0.5,0.0625,35.0,1,1.0,0.3448009999997339
710,14,0.5,1.0,35.0,1,1.0,0.22430100000019593
711,14,0.5,0.25,35.0,1,1.0,0.24560100000007878
712,14,0.5,0.125,-35.0,-1,1.0,0.33770099999992453
713,14,0.5,1.0,-35.0,-1,1.0,0.2720009999998183
714,14,0.5,0.25,35.0,1,1.0,0.3647009999999682
715,14,0.5,1.0,35.0,1,1.0,0.2787009999997281
716,14,0.5,0.125,-35.0,-1,1.0,0.2615009999999529
717,14,0.5,0.0625,-35.0,-1,1.0,0.22260099999994054
718,14,0.5,0.125,35.0,1,1.0,0.48820100000011735
719,14,0.5,0.0625,-35.0,-1,1.0,10.319100999999591
720,14,0.5,0.25,-35.0,-1,1.0,0.39860100000032617
721,14,0.5,1.0,35.0,1,1.0,0.23960100000022067
722,14,0.5,0.0625,-35.0,1,0.0,0.4521010000003116
723,14,0.5,0.0625,35.0,1,1.0,0.2296010000000024
724,14,0.5,1.0,-35.0,-1,1.0,0.21560200000021723
725,14,0.5,0.25,35.0,1,1.0,0.2496009999999842
726,14,0.5,0.0,-35.0,-1,1.0,0.6323010000000977
727,14,0.5,0.0625,35.0,1,1.0,0.2336009999999078
728,14,0.5,0.0,35.0,-1,0.0,0.25910099999964586
729,14,0.5,0.25,35.0,1,1.0,0.393402000000151
730,14,0.5,0.125,-35.0,-1,1.0,0.24590100000023085
731,14,0.5,0.0625,-35.0,-1,1.0,0.6438009999997121
732,14,0.5,0.125,35.0,1,1.0,0.43280100000038146
733,14,0.5,0.25,-35.0,-1,1.0,0.22040100000003804
734,14,0.5,1.0,35.0,1,1.0,0.3163019999997232
735,14,0.5,1.0,35.0,1,1.0,0.26390100000025996
736,14,0.5,1.0,35.0,1,1.0,0.2665009999996073
737,14,0.5,0.25,-35.0,-1,1.0,0.23030100000005405
738,14,0.5,0.25,35.0,1,1.0,0.2398009999997157
739,14,0.5,0.125,-35.0,-1,1.0,0.3076009999999769
740,14,0.5,0.0625,35.0,-1,0.0,7.286701999999877
741,14,0.5,0.125,35.0,1,1.0,0.23760200000015175
742,14,0.5,0.0625,-35.0,-1,1.0,0.27370099999961894
743,14,0.5,1.0,35.0,1,1.0,0.27460100000007515
744,14,0.5,0.25,-35.0,-1,1.0,0.21710099999972954
745,14,0.5,0.0625,35.0,1,1.0,0.9645009999999274
746,14,0.5,0.125,-35.0,-1,1.0,0.41390099999989616
747,14,0.5,0.125,-35.0,-1,1.0,0.29860099999996237
748,14,0.5,0.0625,35.0,1,1.0,0.5208010000001195
749,14,0.5,1.0,-35.0,-1,1.0,0.23150099999975282
750,14,0.5,0.25,35.0,1,1.0,0.26430100000015955
751,14,0.5,0.25,-35.0,-1,1.0,0.27880099999993035
752,14,0.5,0.25,-35.0,-1,1.0,0.2077009999998154
753,14,0.5,0.125,35.0,1,1.0,0.29890100000011444
754,14,0.5,0.25,-35.0,-1,1.0,0.44150100000024395
755,14,0.5,0.0,-35.0,-1,1.0,0.6186009999996713
756,14,0.5,0.0,35.0,-1,0.0,0.31460100000003877
757,14,0.5,0.25,-35.0,-1,1.0,0.33220200000005207
758,14,0.5,0.125,35.0,1,1.0,0.3117010000000846
759,14,0.5,0.125,-35.0,-1,1.0,0.2825009999996837
760,14,0.5,1.0,-35.0,-1,1.0,0.2585009999997965
761,14,0.5,0.25,-35.0,-1,1.0,0.2658010000000104
762,14,0.5,1.0,-35.0,-1,1.0,0.23550100000011298
763,14,0.5,0.0625,35.0,1,1.0,0.6496009999996204
764,14,0.5,0.25,35.0,1,1.0,0.4187010000000555
765,14,0.5,0.125,35.0,1,1.0,0.9729009999996379
766,14,0.5,0.0,35.0,-1,0.0,14.512501000000157
767,14,0.5,0.125,-35.0,-1,1.0,0.2933010000001559
768,14,0.5,0.0,35.0,-1,0.0,8.212700999999925
769,14,0.5,0.125,35.0,1,1.0,0.5004020000001219
770,14,0.5,0.0,35.0,1,1.0,6.549701999999797
771,14,0.5,0.0625,-35.0,-1,1.0,0.3373009999995702
772,14,0.5,0.25,-35.0,-1,1.0,0.23990099999991799
773,14,0.5,0.125,35.0,1,1.0,2.487500999999611
774,14,0.5,0.0625,35.0,1,1.0,0.5635010000000875
775,14,0.5,1.0,35.0,1,1.0,0.25130099999978484
776,14,0.5,0.25,-35.0,-1,1.0,0.25050099999998565
777,14,0.5,0.0,35.0,1,1.0,1.1345010000000002
778,14,0.5,1.0,-35.0,-1,1.0,0.26040100000000166
779,14,0.5,0.0,-35.0,1,0.0,0.5449009999997543
780,14,0.6,0.0,-35.0,-1,1.0,0.40050099999962185
781,14,0.5,1.0,-35.0,-1,1.0,0.2615019999998367
782,14,0.5,0.25,35.0,1,1.0,0.29410100000040984
783,14,0.5,0.0625,-35.0,1,0.0,0.6917010000001937
784,14,0.5,0.25,35.0,1,1.0,0.2609010000001035
785,14,0.5,1.0,-35.0,-1,1.0,0.24530099999992672
786,14,0.5,0.125,-35.0,-1,1.0,0.7476009999995767
787,14,0.5,0.0625,35.0,1,1.0,0.48850099999981467
788,14,0.5,0.125,-35.0,-1,1.0,0.8815010000002985
789,14,0.5,0.25,35.0,1,1.0,0.5864010000000235
790,14,0.5,0.25,35.0,1,1.0,0.42840099999966696
791,14,0.5,1.0,35.0,1,1.0,0.24950100000023667
792,14,0.5,0.25,-35.0,-1,1.0,0.5385010000004513
793,14,0.5,0.125,35.0,1,1.0,0.24270099999966988
794,14,0.5,0.25,-35.0,-1,1.0,0.2886019999996279
795,14,0.5,0.125,-35.0,-1,1.0,0.24640099999987797
796,14,0.5,0.125,35.0,1,1.0,0.39200099999970917
797,14,0.5,0.0,35.0,1,1.0,0.4804010000002563
798,14,0.5,1.0,35.0,1,1.0,0.3424009999998816
799,14,0.5,1.0,-35.0,-1,1.0,0.21990099999993618
800,14,0.5,0.0625,35.0,1,1.0,0.2825009999996837
801,14,0.5,0.0625,-35.0,1,0.0,0.3234010000001035
802,14,0.5,0.0,-35.0,-1,1.0,0.23590199999989636
803,14,0.5,0.25,35.0,1,1.0,0.25340099999948507
804,14,0.5,0.25,35.0,1,1.0,0.3228009999997994
805,14,0.5,0.0,-35.0,1,0.0,25.36020099999996
806,14,0.5,0.0625,-35.0,-1,1.0,0.2934019999997872
807,14,0.5,0.0625,-35.0,-1,1.0,0.40140100000007806
808,14,0.5,0.0625,35.0,1,1.0,0.5669019999995726
809,14,0.5,1.0,-35.0,-1,1.0,0.2984019999994416
810,14,0.5,0.0625,35.0,1,1.0,0.2504009999997834
811,14,0.5,1.0,35.0,1,1.0,0.23140199999988909
812,14,0.5,0.0625,-35.0,-1,1.0,0.3438009999995302
813,14,0.5,0.125,35.0,1,1.0,0.2646010000003116
814,14,0.5,0.0,-35.0,1,0.0,3.841400999999678
815,14,0.6,0.0,35.0,-1,0.0,0.5740009999999529
816,14,0.5,1.0,35.0,1,1.0,0.3054010000000744
817,14,0.5,0.25,35.0,1,1.0,0.24770099999977901
818,14,0.5,1.0,35.0,1,1.0,0.3785010000001421
819,14,0.5,1.0,35.0,1,1.0,0.22450100000014572
820,14,0.5,0.125,-35.0,-1,1.0,0.17500200000040422
821,14,0.5,0.0625,35.0,1,1.0,0.1886010000002898
822,14,0.5,0.125,35.0,1,1.0,0.574601000000257
823,14,0.5,0.25,-35.0,-1,1.0,0.3122019999996155
824,14,0.5,0.125,-35.0,-1,1.0,0.3248019999996359
825,14,0.5,1.0,-35.0,-1,1.0,0.25240100000019083
826,14,0.5,0.0625,35.0,1,1.0,0.3348009999999704
827,14,0.5,0.25,35.0,1,1.0,0.21920099999988452
828,14,0.5,1.0,-35.0,-1,1.0,0.19840100000010352
829,14,0.5,1.0,-35.0,-1,1.0,0.24260099999992235
830,14,0.5,0.125,-35.0,-1,1.0,0.2686009999997623
831,14,0.5,0.125,-35.0,-1,1.0,0.23610099999996237
832,14,0.5,0.0625,35.0,1,1.0,0.34190199999966353
833,14,0.5,1.0,35.0,1,1.0,0.24640099999987797
834,14,0.5,0.0625,-35.0,-1,1.0,0.3855009999997492
835,14,0.5,1.0,-35.0,-1,1.0,0.29640199999994365
836,14,0.5,0.25,-35.0,-1,1.0,0.20560099999966042
837,14,0.5,0.25,-35.0,-1,1.0,0.2633009999995011
838,14,0.5,0.0625,-35.0,-1,1.0,0.6993009999996502
839,14,0.5,0.0625,-35.0,-1,1.0,0.31740099999979066
840,14,0.5,0.0625,-35.0,-1,1.0,0.3360010000001239
841,14,0.5,1.0,35.0,1,1.0,0.296900999999707
842,14,0.5,0.0,35.0,1,1.0,4.882700999999997
843,14,0.5,0.0,-35.0,-1,1.0,0.2604009999995469
844,14,0.5,1.0,-35.0,-1,1.0,0.23300099999960366
845,14,0.5,0.125,35.0,1,1.0,0.45130199999994147
846,14,0.5,0.0,35.0,1,1.0,0.2397009999999682
847,14,0.5,0.25,-35.0,-1,1.0,0.2843009999996866
848,14,0.5,0.25,35.0,1,1.0,0.24030099999981758
849,14,0.5,0.0625,-35.0,-1,1.0,0.324301000000105
850,14,0.5,0.0,35.0,-1,0.0,0.3469009999998889
851,14,0.5,0.0,-35.0,-1,1.0,0.3809020000003329
852,14,0.5,1.0,35.0,1,1.0,0.27710199999955876
853,14,0.5,0.125,35.0,1,1.0,2.0012010000000373
854,14,0.5,0.25,-35.0,-1,1.0,0.28730099999984304
855,14,0.5,0.0,-35.0,1,0.0,0.29470100000025923
856,14,0.5,0.0,-35.0,1,0.0,3.6075009999999565
857,14,0.5,0.0,-35.0,-1,1.0,0.24230100000022503
858,14,0.5,0.25,35.0,1,1.0,0.22430200000007972
859,14,0.5,1.0,35.0,1,1.0,0.23530099999970844
860,14,0.5,0.0625,-35.0,-1,1.0,1.1544009999997797
861,14,0.5,0.25,35.0,1,1.0,0.27530099999967206
862,14,0.5,0.0625,35.0,1,1.0,0.49790200000006735
863,14,0.5,0.0625,35.0,1,1.0,5.735601000000315
864,14,0.5,0.0625,-35.0,-1,1.0,0.36830099999951926
865,14,0.5,0.125,35.0,1,1.0,0.3394009999997252
866,14,0.5,0.125,-35.0,-1,1.0,0.3216010000001006
867,14,0.5,0.0625,-35.0,-1,1.0,0.26250100000015664
868,14,0.5,0.0625,35.0,-1,0.0,0.14840099999992162
869,14,0.5,0.0625,-35.0,1,0.0,2.4793009999998503
870,14,0.5,1.0,35.0,1,1.0,0.2854010000000926
871,14,0.5,1.0,35.0,1,1.0,0.28630199999997785
872,14,0.5,0.125,-35.0,-1,1.0,0.5622010000001865
873,14,0.5,0.25,35.0,1,1.0,0.2631009999995513
874,14,0.5,0.125,-35.0,-1,1.0,0.26560099999960585
875,14,0.5,0.0,-35.0,-1,1.0,4.286600999999791
876,14,0.5,0.25,35.0,1,1.0,0.4025010000000293
877,14,0.5,0.0625,-35.0,-1,1.0,0.29340099999990343
878,14,0.5,0.25,-35.0,-1,1.0,0.30270100000007005
879,14,0.5,0.125,35.0,1,1.0,0.43080099999951926
880,14,0.5,0.25,35.0,1,1.0,0.4165020000000368
881,14,0.5,0.25,35.0,-1,0.0,2.0140010000000075
882,14,0.5,0.0625,35.0,1,1.0,0.3667009999999209
883,14,0.5,0.25,35.0,1,1.0,0.21440099999972517
884,14,0.5,0.25,-35.0,-1,1.0,0.33680099999946833
885,14,0.5,0.25,-35.0,-1,1.0,0.2510010000000875
886,14,0.5,0.125,35.0,1,1.0,0.34700100000009115
887,14,0.5,0.25,35.0,1,1.0,0.6583010000003924
888,14,0.5,1.0,35.0,1,1.0,0.2504009999997834
889,14,0.5,0.0,35.0,1,1.0,2.1149020000002565
890,14,0.5,0.125,-35.0,-1,1.0,0.3413020000002689
891,14,0.5,0.125,35.0,1,1.0,0.24530099999992672
892,14,0.5,0.25,35.0,1,1.0,0.28760200000033365
893,14,0.5,0.125,-35.0,-1,1.0,0.2752019999998083
894,14,0.5,0.125,35.0,1,1.0,0.2977009999999609
895,14,0.5,0.25,-35.0,-1,1.0,0.3218019999999342
896,14,0.5,1.0,35.0,1,1.0,0.3278010000003633
897,14,0.5,0.25,35.0,1,1.0,0.265201000000161
898,14,0.5,0.0,-35.0,-1,1.0,0.2312010000000555
899,14,0.5,1.0,35.0,1,1.0,0.38920099999950253
900,14,0.5,0.0625,35.0,1,1.0,0.2981009999998605
901,14,0.5,0.125,-35.0,-1,1.0,0.23560200000019904
902,14,0.5,0.0625,35.0,-1,0.0,3.284802000000127
1,15,0.5,0.125,-35.0,1,0.0,0.23209999999999975
2,15,0.5,0.0,-35.0,-1,1.0,12.7867
3,15,0.5,0.0,-35.0,1,0.0,6.4575
4,15,0.5,0.0625,-35.0,1,0.0,0.41689999999999827
5,15,0.5,0.25,35.0,1,1.0,0.2132000000000076
6,15,0.5,0.0625,35.0,1,1.0,0.208599999999997
7,15,0.5,0.125,-35.0,-1,1.0,0.5778999999999925
8,15,0.5,0.0,35.0,1,1.0,5.457900000000002
9,15,0.5,0.0,35.0,1,1.0,0.5102010000000021
10,15,0.5,0.25,35.0,1,1.0,0.2592999999999961
11,15,0.5,0.125,35.0,1,1.0,0.34309999999999974
12,15,0.5,0.0625,35.0,1,1.0,0.22180000000000177
13,15,0.5,1.0,35.0,1,1.0,0.23040000000000305
14,15,0.5,1.0,-35.0,-1,1.0,0.28240100000000723
15,15,0.5,0.0625,35.0,1,1.0,0.24809999999999377
16,15,0.5,0.0625,-35.0,-1,1.0,0.7240000000000038
17,15,0.5,0.0625,-35.0,-1,1.0,0.4692000000000007
18,15,0.5,0.0625,35.0,1,1.0,0.36430000000000007
19,15,0.5,0.0,-35.0,-1,1.0,0.4842000000000155
20,15,0.5,0.0625,-35.0,1,0.0,1.0502000000000038
21,15,0.6,0.0625,35.0,1,1.0,0.6423000000000059
22,15,0.5,1.0,-35.0,-1,1.0,0.32910000000001105
23,15,0.5,0.125,35.0,1,1.0,0.31920000000000925
24,15,0.5,1.0,-35.0,-1,1.0,0.5921000000000021
25,15,0.5,0.25,35.0,1,1.0,0.2728999999999928
26,15,0.5,0.25,-35.0,-1,1.0,0.2640999999999991
27,15,0.5,0.0,35.0,1,1.0,0.22820000000000107
28,15,0.5,0.25,35.0,1,1.0,1.2350000000000136
29,15,0.5,0.25,-35.0,-1,1.0,0.3275000000000148
30,15,0.5,1.0,35.0,1,1.0,0.2948000000000093
31,15,0.5,0.125,35.0,1,1.0,0.2820000000000107
32,15,0.5,0.25,35.0,1,1.0,0.36299999999999955
33,15,0.5,0.25,35.0,1,1.0,0.23099999999999454
34,15,0.5,0.125,-35.0,-1,1.0,1.9579999999999984
35,15,0.5,0.0625,35.0,1,1.0,0.240099999999984
36,15,0.5,0.25,-35.0,-1,1.0,0.2669999999999959
37,15,0.5,0.25,35.0,1,1.0,0.2831999999999937
38,15,0.5,1.0,-35.0,-1,1.0,0.271000000000015
39,15,0.5,0.25,35.0,1,1.0,0.9565000000000055
40,15,0.5,0.0,35.0,1,1.0,10.190600000000018
41,15,0.5,0.0625,-35.0,1,0.0,5.170099999999962
42,15,0.7,0.0625,-35.0,1,0.0,8.541299999999978
43,15,0.5,1.0,35.0,1,1.0,0.23050000000000637
44,15,0.5,0.0625,35.0,1,1.0,0.37999999999999545
45,15,0.5,0.0625,-35.0,-1,1.0,0.8976999999999862
46,15,0.5,0.0625,-35.0,1,0.0,0.6325000000000216
47,15,0.8,0.0625,-35.0,-1,1.0,3.0585009999999784
48,15,0.5,1.0,-35.0,-1,1.0,0.5142999999999915
49,15,0.5,0.125,35.0,1,1.0,2.1776999999999873
50,15,0.5,1.0,35.0,1,1.0,0.37829999999999586
51,15,0.5,1.0,-35.0,-1,1.0,0.2878999999999792
52,15,0.5,0.125,-35.0,-1,1.0,2.0489000000000033
53,15,0.5,0.25,-35.0,-1,1.0,0.41399999999998727
54,15,0.5,0.25,-35.0,-1,1.0,0.5103010000000268
55,15,0.5,0.0625,-35.0,1,0.0,2.9313999999999965
56,15,0.5,0.25,35.0,1,1.0,0.26080000000001746
57,15,0.5,0.0,-35.0,-1,1.0,0.3469000000000051
58,15,0.5,0.0625,-35.0,-1,1.0,0.6435010000000148
59,15,0.5,0.0625,-35.0,-1,1.0,0.9474000000000729
60,15,0.5,0.0625,35.0,1,1.0,0.29120000000000346
61,15,0.5,1.0,35.0,1,1.0,0.2806000000000495
62,15,0.5,0.0625,-35.0,-1,1.0,0.7130000000000223
63,15,0.5,0.0625,-35.0,-1,1.0,0.4843000000000188
64,15,0.5,0.125,35.0,1,1.0,0.3514010000000667
65,15,0.5,0.0,35.0,-1,0.0,0.6868999999999801
66,15,0.4,0.0,35.0,1,1.0,0.3853009999999699
67,15,0.5,1.0,-35.0,-1,1.0,0.38890099999997574
68,15,0.5,0.0625,-35.0,-1,1.0,0.42799999999999727
69,15,0.5,0.0625,-35.0,-1,1.0,0.5381000000000427
70,15,0.5,0.25,35.0,1,1.0,0.26630000000005793
71,15,0.5,0.25,35.0,1,1.0,0.2895000000000323
72,15,0.5,0.0625,-35.0,-1,1.0,0.5332000000000221
73,15,0.5,0.25,-35.0,-1,1.0,0.3541010000000142
74,15,0.5,0.25,-35.0,-1,1.0,0.25520000000005894
75,15,0.5,0.0625,35.0,1,1.0,0.3443000000000893
76,15,0.5,0.25,35.0,1,1.0,0.6102010000000178
77,15,0.5,0.25,35.0,1,1.0,0.28870000000000573
78,15,0.5,0.25,35.0,1,1.0,0.3119000000000369
79,15,0.5,0.25,-35.0,-1,1.0,0.4718000000000302
80,15,0.5,0.0625,-35.0,1,0.0,1.8422010000000455
81,15,0.5,0.25,-35.0,-1,1.0,0.3093000000000643
82,15,0.5,0.0,35.0,1,1.0,0.22960000000006175
83,15,0.5,0.25,-35.0,-1,1.0,0.2918000000000234
84,15,0.5,0.25,-35.0,-1,1.0,0.21289999999999054
85,15,0.5,0.25,-35.0,-1,1.0,0.31760000000008404
86,15,0.5,1.0,-35.0,-1,1.0,0.35489999999998645
87,15,0.5,0.0625,-35.0,-1,1.0,0.5094000000000278
88,15,0.5,0.0625,35.0,1,1.0,1.6079000000000292
89,15,0.5,0.0,-35.0,1,0.0,0.6171000000000504
90,15,0.5,0.125,-35.0,-1,1.0,0.2978010000000495
91,15,0.5,0.25,35.0,1,1.0,0.2649000000000683
92,15,0.5,0.0625,35.0,-1,0.0,0.30279999999999063
93,15,0.5,0.0625,-35.0,-1,1.0,0.3152010000000587
94,15,0.5,0.25,-35.0,-1,1.0,0.24890000000004875
95,15,0.5,0.0625,35.0,1,1.0,0.20040100000005623
96,15,0.5,0.0,35.0,1,1.0,0.30490000000008877
97,15,0.5,0.125,-35.0,-1,1.0,0.289100000000019
98,15,0.5,0.125,35.0,-1,0.0,0.4828000000000543
99,15,0.5,0.125,-35.0,-1,1.0,0.2849000000000501
100,15,0.5,1.0,35.0,1,1.0,0.22750000000002046
101,15,0.5,1.0,-35.0,-1,1.0,0.30840000000006285
102,15,0.5,1.0,35.0,1,1.0,0.27440100000001166
103,15,0.5,0.25,-35.0,-1,1.0,0.26360100000005104
104,15,0.5,0.25,-35.0,-1,1.0,0.453200000000038
105,15,0.5,1.0,35.0,1,1.0,0.5361000000000331
106,15,0.5,0.125,35.0,1,1.0,0.26680099999998674
107,15,0.5,0.0625,35.0,1,1.0,0.25260000000002947
108,15,0.5,0.0625,-35.0,-1,1.0,0.38850000000007867
109,15,0.5,0.125,-35.0,-1,1.0,0.26400000000006685
110,15,0.5,0.125,-35.0,-1,1.0,0.573599999999999
111,15,0.5,0.0625,35.0,1,1.0,1.205500000000029
112,15,0.5,1.0,35.0,1,1.0,0.2633000000000152
113,15,0.5,0.0625,35.0,1,1.0,0.2907000000000153
114,15,0.5,1.0,-35.0,-1,1.0,0.5502000000000749
115,15,0.5,0.0,35.0,-1,0.0,2.523800000000051
116,15,0.5,0.25,-35.0,-1,1.0,0.27940000000000964
117,15,0.5,0.25,-35.0,-1,1.0,0.27490099999999984
118,15,0.5,0.125,35.0,1,1.0,0.3741000000000554
119,15,0.5,1.0,-35.0,-1,1.0,0.29560000000003583
120,15,0.5,0.25,35.0,1,1.0,0.7248000000000729
121,15,0.5,1.0,35.0,1,1.0,0.24220000000002528
122,15,0.5,0.25,35.0,-1,0.0,0.6899999999999409
123,15,0.5,0.0625,35.0,1,1.0,0.262299999999982
124,15,0.5,1.0,35.0,1,1.0,0.23090000000001965
125,15,0.5,0.0625,35.0,1,1.0,0.2318000000000211
126,15,0.5,0.0,-35.0,1,0.0,2.0962999999999283
127,15,0.7,0.0,35.0,-1,0.0,1.9189999999999827
128,15,0.5,1.0,-35.0,-1,1.0,0.24320000000000164
129,15,0.5,0.25,35.0,1,1.0,0.9136999999999489
130,15,0.5,0.0625,35.0,1,1.0,0.42470000000002983
131,15,0.5,0.0625,-35.0,1,0.0,1.241399999999885
132,15,0.5,0.25,-35.0,-1,1.0,0.3371999999999389
133,15,0.5,0.25,35.0,1,1.0,0.2664999999999509
134,15,0.5,1.0,35.0,1,1.0,0.2414000000001124
135,15,0.5,0.0625,-35.0,-1,1.0,0.26509999999996126
136,15,0.5,0.0,35.0,1,1.0,2.3962000000000216
137,15,0.5,0.125,35.0,1,1.0,0.3061999999999898
138,15,0.5,0.125,-35.0,-1,1.0,5.372700000000009
139,15,0.5,0.25,35.0,1,1.0,0.27519999999992706
140,15,0.5,0.0,-35.0,1,0.0,5.525400999999874
141,15,0.7,0.0,35.0,-1,0.0,0.2886999999999489
142,15,0.5,1.0,-35.0,-1,1.0,0.2676999999999907
143,15,0.5,0.0625,-35.0,1,0.0,0.27940000000000964
144,15,0.5,0.125,-35.0,-1,1.0,0.30090100000006714
145,15,0.5,0.25,-35.0,-1,1.0,2.1315000000000737
146,15,0.5,1.0,-35.0,-1,1.0,0.31179999999994834
147,15,0.5,0.0625,35.0,1,1.0,0.7557000000000471
148,15,0.5,0.25,-35.0,-1,1.0,0.29870099999993727
149,15,0.5,1.0,35.0,1,1.0,0.22429999999997108
150,15,0.5,1.0,35.0,1,1.0,0.2919009999999389
151,15,0.5,0.0625,35.0,-1,0.0,0.9996999999999616
152,15,0.5,0.125,-35.0,-1,1.0,0.26710000000002765
153,15,0.5,0.125,-35.0,-1,1.0,0.42469999999991614
154,15,0.5,1.0,-35.0,-1,1.0,0.28989999999987504
155,15,0.5,1.0,-35.0,-1,1.0,0.2516999999999143
156,15,0.5,0.0625,35.0,-1,0.0,1.836099999999874
157,15,0.3,0.0625,35.0,-1,0.0,0.3147000000000162
158,15,0.5,1.0,35.0,1,1.0,0.26940000000001874
159,15,0.5,0.125,-35.0,-1,1.0,0.8216999999999643
160,15,0.5,1.0,-35.0,-1,1.0,0.33600000000001273
161,15,0.5,0.125,-35.0,-1,1.0,0.2595999999999776
162,15,0.5,0.25,35.0,1,1.0,0.5022999999999911
163,15,0.5,0.125,-35.0,-1,1.0,0.2923999999999296
164,15,0.5,0.125,-35.0,-1,1.0,0.2559009999999944
165,15,0.5,0.25,35.0,1,1.0,0.36189999999999145
166,15,0.5,1.0,35.0,1,1.0,0.2945999999999458
167,15,0.5,0.125,35.0,-1,0.0,0.3362999999999374
168,15,0.5,0.125,35.0,1,1.0,0.4560999999999922
169,15,0.5,0.0,35.0,-1,0.0,4.514099999999985
170,15,0.5,0.125,35.0,1,1.0,0.3089999999999691
171,15,0.5,0.0,35.0,-1,0.0,0.1997000000000071
172,15,0.5,0.0625,35.0,1,1.0,0.2986999999999398
173,15,0.5,0.25,-35.0,-1,1.0,0.32760099999995873
174,15,0.5,0.0625,35.0,1,1.0,1.0448000000000093
175,15,0.5,0.125,-35.0,-1,1.0,0.2906000000000404
176,15,0.5,0.125,-35.0,-1,1.0,0.2535000000000309
177,15,0.5,1.0,-35.0,-1,1.0,0.454701
178,15,0.5,0.25,-35.0,-1,1.0,0.9157000000000153
179,15,0.5,0.25,35.0,1,1.0,0.24610099999995327
180,15,0.5,1.0,35.0,1,1.0,0.25679999999999836
181,15,0.5,0.25,35.0,1,1.0,0.27509999999995216
182,15,0.5,0.0625,-35.0,1,0.0,0.09389999999996235
183,15,0.5,0.0625,-35.0,-1,1.0,0.2898000000000138
184,15,0.5,1.0,35.0,1,1.0,0.13469999999995252
185,15,0.5,1.0,35.0,1,1.0,0.3827999999999747
186,15,0.5,1.0,-35.0,-1,1.0,0.3365999999999758
187,15,0.5,0.0625,-35.0,-1,1.0,1.2674999999999272
188,15,0.5,0.0,-35.0,-1,1.0,0.3792999999999438
189,15,0.5,0.0625,35.0,1,1.0,2.055599999999913
190,15,0.5,0.25,35.0,1,1.0,1.1511999999999034
191,15,0.5,0.0625,35.0,1,1.0,3.6403999999999996
192,15,0.5,0.25,-35.0,-1,1.0,0.2662999999998874
193,15,0.5,1.0,35.0,1,1.0,0.1128999999999678
194,15,0.5,0.25,-35.0,-1,1.0,0.3405999999999949
195,15,0.5,0.25,35.0,1,1.0,0.22299999999995634
196,15,0.5,1.0,-35.0,-1,1.0,0.5439999999999827
197,15,0.5,0.0625,-35.0,-1,1.0,1.7415999999999485
198,15,0.5,0.125,35.0,1,1.0,1.2788000000000466
199,15,0.5,0.125,-35.0,-1,1.0,0.5052999999999201
200,15,0.5,0.0625,35.0,-1,0.0,0.39549999999997
201,15,0.4,0.0625,35.0,-1,0.0,0.42070000000001073
202,15,0.5,1.0,35.0,1,1.0,0.25090000000000146
203,15,0.5,0.0,35.0,-1,0.0,0.31599999999991724
204,15,0.5,0.25,35.0,1,1.0,0.23050000000000637
205,15,0.5,0.0625,35.0,1,1.0,0.2777999999999565
206,15,0.5,0.0625,35.0,1,1.0,0.5634999999998627
207,15,0.5,0.125,-35.0,-1,1.0,0.2717000000000098
208,15,0.5,0.0,-35.0,-1,1.0,0.4619999999998754
209,15,0.5,1.0,35.0,1,1.0,0.31389999999987594
210,15,0.5,0.0625,-35.0,-1,1.0,1.354600000000005
211,15,0.5,0.0,-35.0,1,0.0,0.253400000000056
212,15,0.5,0.0,-35.0,1,0.0,1.7188009999998712
213,15,0.6,0.0,-35.0,-1,1.0,0.35239999999987504
214,15,0.5,1.0,-35.0,-1,1.0,0.2799999999999727
215,15,0.5,0.0,35.0,-1,0.0,0.36760100000003604
216,15,0.4,0.0,35.0,1,1.0,1.926499999999919
217,15,0.5,1.0,-35.0,-1,1.0,0.15770099999997456
218,15,0.5,0.0,35.0,-1,0.0,2.0002000000000635
219,15,0.4,0.0,35.0,-1,0.0,0.3731000000000222
220,15,0.5,1.0,35.0,1,1.0,0.35810000000003583
221,15,0.5,0.0625,35.0,1,1.0,1.951599999999985
222,15,0.5,0.25,35.0,1,1.0,0.9479000000000042
223,15,0.5,0.125,-35.0,-1,1.0,0.3847000000000662
224,15,0.5,1.0,-35.0,-1,1.0,0.2686999999999671
225,15,0.5,1.0,35.0,1,1.0,0.28660100000001876
226,15,0.5,0.25,35.0,1,1.0,0.5177999999999656
227,15,0.5,0.25,35.0,1,1.0,0.26250099999992926
228,15,0.5,0.0625,-35.0,-1,1.0,0.6734010000000126
229,15,0.5,0.25,35.0,1,1.0,1.663499999999999
230,15,0.5,0.25,-35.0,-1,1.0,0.31719999999995707
231,15,0.5,0.0625,35.0,1,1.0,0.445699999999988
232,15,0.5,1.0,-35.0,-1,1.0,0.3849999999999909
233,15,0.5,0.125,35.0,1,1.0,0.34159999999997126
234,15,0.5,1.0,-35.0,-1,1.0,0.4015000000000555
235,15,0.5,0.0625,-35.0,-1,1.0,0.31490099999996346
236,15,0.5,1.0,-35.0,-1,1.0,0.2726999999998725
237,15,0.5,1.0,35.0,1,1.0,0.3795999999999822
238,15,0.5,1.0,35.0,1,1.0,0.24509999999997945
239,15,0.5,0.0,35.0,1,1.0,1.7118010000000368
240,15,0.5,1.0,35.0,1,1.0,0.466199999999958
241,15,0.5,1.0,35.0,1,1.0,0.3139010000001008
242,15,0.5,0.0625,-35.0,-1,1.0,0.3221999999999525
243,15,0.5,0.125,35.0,1,1.0,0.34970099999998183
244,15,0.5,0.25,-35.0,-1,1.0,0.28919999999993706
245,15,0.5,1.0,35.0,1,1.0,0.35979999999995016
246,15,0.5,0.0,-35.0,-1,1.0,2.7094999999999345
247,15,0.5,0.25,-35.0,-1,1.0,0.2902010000000246
248,15,0.5,0.0,-35.0,-1,1.0,1.0027000000000044
249,15,0.5,0.125,35.0,1,1.0,0.3405009999999038
250,15,0.5,0.125,35.0,1,1.0,0.546100000000024
251,15,0.5,0.0,-35.0,-1,1.0,0.2573000000002139
252,15,0.5,0.0625,35.0,-1,0.0,0.7029999999999745
253,15,0.4,0.0625,35.0,1,1.0,0.3706010000000788
254,15,0.5,1.0,35.0,1,1.0,0.26319999999986976
255,15,0.5,0.0,35.0,1,1.0,4.417501000000129
256,15,0.5,0.125,-35.0,-1,1.0,0.2733009999999467
257,15,0.5,0.0,35.0,1,1.0,2.554499999999962
258,15,0.5,0.0625,35.0,1,1.0,0.4268000000001848
259,15,0.5,0.125,-35.0,-1,1.0,0.40449999999987085
260,15,0.5,0.0625,-35.0,-1,1.0,0.9769000000001142
261,15,0.5,0.25,35.0,1,1.0,0.23780100000021775
262,15,0.5,0.0625,35.0,1,1.0,0.2904999999998381
263,15,0.5,0.0625,35.0,1,1.0,0.8946000000000822
264,15,0.5,1.0,35.0,1,1.0,0.4005010000000766
265,15,0.5,0.25,-35.0,1,0.0,0.17830000000003565
266,15,0.5,0.0625,-35.0,1,0.0,2.270600000000286
267,15,0.5,0.0,-35.0,1,0.0,4.561500000000251
268,15,0.5,0.25,-35.0,-1,1.0,0.2875000000001364
269,15,0.5,0.0625,-35.0,-1,1.0,1.1216999999999189
270,15,0.5,0.125,-35.0,-1,1.0,0.30760000000009313
271,15,0.5,0.25,35.0,1,1.0,0.2519000000002052
272,15,0.5,0.25,-35.0,-1,1.0,0.46440000000006876
273,15,0.5,0.0,-35.0,-1,1.0,0.33870100000012826
274,15,0.5,0.0625,-35.0,-1,1.0,0.36789999999996326
275,15,0.5,0.25,35.0,1,1.0,0.2756010000000515
276,15,0.5,0.0625,-35.0,-1,1.0,0.26830000000018117
277,15,0.5,0.125,35.0,1,1.0,0.3627000000001317
278,15,0.5,0.25,-35.0,-1,1.0,0.23839999999995598
279,15,0.5,0.25,35.0,1,1.0,0.25250000000028194
280,15,0.5,0.0625,35.0,1,1.0,0.35510000000022046
281,15,0.5,0.0625,35.0,1,1.0,0.2660009999999602
282,15,0.5,0.0625,-35.0,-1,1.0,0.2854000000002088
283,15,0.5,0.0625,35.0,1,1.0,0.6127999999998792
284,15,0.5,1.0,-35.0,-1,1.0,0.29870000000028085
285,15,0.5,1.0,35.0,1,1.0,0.2195000000001528
286,15,0.5,0.25,35.0,1,1.0,0.2887999999998101
287,15,0.5,0.25,35.0,1,1.0,0.543400000000247
288,15,0.5,0.125,35.0,1,1.0,0.24250000000029104
289,15,0.5,1.0,35.0,1,1.0,0.29310000000009495
290,15,0.5,0.25,-35.0,-1,1.0,0.2657010000000355
291,15,0.5,0.25,35.0,1,1.0,0.23350100000016027
292,15,0.5,0.0625,-35.0,-1,1.0,0.322400000000016
293,15,0.5,0.25,-35.0,-1,1.0,0.260300000000143
294,15,0.5,1.0,-35.0,-1,1.0,0.355900000000247
295,15,0.5,0.125,-35.0,-1,1.0,0.2704000000001088
296,15,0.5,0.0,35.0,-1,0.0,0.306400000000167
297,15,0.4,0.0,35.0,-1,0.0,0.30730000000016844
298,15,0.5,1.0,-35.0,-1,1.0,0.24289999999996326
299,15,0.5,1.0,35.0,1,1.0,0.217600000000175
300,15,0.5,0.0,35.0,-1,0.0,0.2763999999999669
301,15,0.2,0.0,35.0,1,1.0,3.927400000000034
302,15,0.5,1.0,35.0,1,1.0,0.41669999999999163
303,15,0.5,0.0,-35.0,1,0.0,1.667599999999993
304,15,0.5,0.125,35.0,1,1.0,0.27680000000009386
305,15,0.5,0.0625,-35.0,-1,1.0,0.28140000000007603
306,15,0.5,0.0625,-35.0,-1,1.0,0.26350000000002183
307,15,0.5,0.0625,35.0,1,1.0,0.2478000000000975
308,15,0.5,0.0625,-35.0,-1,1.0,0.30720100000007733
309,15,0.5,0.0625,35.0,1,1.0,0.35789999999997235
310,15,0.5,0.0,35.0,1,1.0,0.49050000000033833
311,15,0.5,0.25,35.0,1,1.0,0.3046999999999116
312,15,0.5,1.0,35.0,1,1.0,0.22059999999987667
313,15,0.5,0.125,-35.0,-1,1.0,0.3681000000001404
314,15,0.5,0.25,-35.0,-1,1.0,0.29740000000015243
315,15,0.5,0.25,-35.0,-1,1.0,0.2686999999998534
316,15,0.5,0.25,-35.0,-1,1.0,0.2678000000000793
317,15,0.5,0.125,-35.0,-1,1.0,0.3287000000000262
318,15,0.5,0.25,35.0,1,1.0,0.6177000000000135
319,15,0.5,1.0,-35.0,-1,1.0,0.22230000000013206
320,15,0.5,0.0625,35.0,1,1.0,1.1178000000002157
321,15,0.5,0.125,35.0,1,1.0,0.2955000000001746
322,15,0.5,0.0625,-35.0,-1,1.0,0.4214000000001761
323,15,0.5,0.25,-35.0,-1,1.0,0.2626000000000204
324,15,0.5,0.25,-35.0,-1,1.0,0.2847999999999047
325,15,0.5,0.0625,-35.0,-1,1.0,0.32910000000015316
326,15,0.5,0.0625,-35.0,-1,1.0,0.8283000000001266
327,15,0.5,1.0,-35.0,-1,1.0,0.2358999999999014
328,15,0.5,0.0,35.0,1,1.0,2.178400000000238
329,15,0.5,0.0625,35.0,-1,0.0,0.3326009999998405
330,15,0.5,0.0625,35.0,1,1.0,0.28530000000000655
331,15,0.5,0.25,35.0,1,1.0,0.21029999999996107
332,15,0.5,0.125,-35.0,-1,1.0,0.7720000000001619
333,15,0.5,0.125,-35.0,-1,1.0,0.31320000000005166
334,15,0.5,1.0,-35.0,-1,1.0,0.33550000000013824
335,15,0.5,0.0625,-35.0,-1,1.0,0.31340000000022883
336,15,0.5,0.125,35.0,1,1.0,1.1590000000001055
337,15,0.5,0.0625,35.0,1,1.0,0.34650100000021666
338,15,0.5,0.0625,-35.0,-1,1.0,0.4192000000000462
339,15,0.5,0.25,35.0,1,1.0,0.2199000000000524
340,15,0.5,0.0625,35.0,-1,0.0,0.35930100000018683
341,15,0.5,0.25,-35.0,-1,1.0,0.2567999999998847
342,15,0.5,1.0,35.0,1,1.0,0.18280000000004293
343,15,0.5,0.25,-35.0,-1,1.0,0.3302000000001044
344,15,0.5,0.0,35.0,1,1.0,2.942800000000034
345,15,0.5,0.0625,-35.0,-1,1.0,0.2774000000001706
346,15,0.5,0.25,35.0,1,1.0,0.513101000000006
347,15,0.5,0.125,35.0,1,1.0,0.41430000000013933
348,15,0.5,0.0625,35.0,1,1.0,0.516800000000103
349,15,0.5,0.25,-35.0,-1,1.0,0.3483000000003358
350,15,0.5,0.25,-35.0,-1,1.0,0.31700100000011844
351,15,0.5,0.125,35.0,1,1.0,0.23110000000019681
352,15,0.5,0.0625,-35.0,-1,1.0,0.3204000000000633
353,15,0.5,0.0,-35.0,-1,1.0,0.27120000000013533
354,15,0.5,0.0625,35.0,1,1.0,0.2838000000001557
355,15,0.5,0.125,-35.0,-1,1.0,0.26830000000018117
356,15,0.5,0.0625,35.0,1,1.0,0.30730000000016844
357,15,0.5,0.25,35.0,1,1.0,0.2649000000003525
358,15,0.5,0.125,35.0,1,1.0,0.28080100000011043
359,15,0.5,0.25,-35.0,-1,1.0,0.24499999999989086
360,15,0.5,0.25,35.0,1,1.0,0.3042000000002645
361,15,0.5,0.125,35.0,1,1.0,0.44860000000016953
362,15,0.5,0.0625,-35.0,-1,1.0,0.3443999999999505
363,15,0.5,0.125,-35.0,-1,1.0,0.2755000000001928
364,15,0.5,0.0625,35.0,1,1.0,2.951301000000285
365,15,0.5,0.25,-35.0,-1,1.0,0.2792010000000573
366,15,0.5,1.0,35.0,1,1.0,0.3148000000001048
367,15,0.5,0.25,-35.0,-1,1.0,0.23540000000002692
368,15,0.5,0.0625,-35.0,1,0.0,2.3248009999999795
369,15,0.5,0.0,-35.0,-1,1.0,0.26569999999992433
370,15,0.5,0.0,-35.0,1,0.0,0.3518010000002505
371,15,0.5,0.0,35.0,-1,0.0,2.5325010000001384
372,15,0.5,0.25,35.0,1,1.0,0.2820000000001528
373,15,0.5,0.125,35.0,1,1.0,1.2432000000001153
374,15,0.5,0.125,-35.0,-1,1.0,0.3188010000003487
375,15,0.5,1.0,-35.0,-1,1.0,0.316300000000183
376,15,0.5,1.0,-35.0,-1,1.0,0.2723000000000866
377,15,0.5,1.0,-35.0,-1,1.0,0.29330000000004475
378,15,0.5,1.0,-35.0,-1,1.0,0.28559999999993124
379,15,0.5,0.0625,35.0,-1,0.0,0.8933000000001812
380,15,0.5,0.125,-35.0,-1,1.0,2.59920000000011
381,15,0.5,0.0,35.0,-1,0.0,4.896700000000237
382,15,0.5,0.25,35.0,1,1.0,0.22270000000003165
383,15,0.5,1.0,35.0,1,1.0,0.3869999999999436
384,15,0.5,0.25,-35.0,-1,1.0,0.276299999999992
385,15,0.5,0.0625,-35.0,-1,1.0,2.990300000000161
386,15,0.5,1.0,-35.0,-1,1.0,0.2697009999999409
387,15,0.5,1.0,35.0,1,1.0,0.20710000000008222
388,15,0.5,0.25,-35.0,-1,1.0,0.3466000000003078
389,15,0.5,0.25,-35.0,-1,1.0,0.2840000000001055
390,15,0.5,0.0,35.0,-1,0.0,8.483300999999983
391,15,0.5,0.0,-35.0,1,0.0,1.7601999999999407
392,15,0.4,0.0,-35.0,-1,1.0,3.311200000000099
393,15,0.5,1.0,35.0,1,1.0,2.0937000000001262
394,15,0.5,0.0625,35.0,1,1.0,0.5647000000001299
395,15,0.5,0.25,-35.0,-1,1.0,0.6906010000000151
396,15,0.5,0.125,-35.0,-1,1.0,0.32519999999999527
397,15,0.5,0.125,-35.0,-1,1.0,0.30730000000016844
398,15,0.5,1.0,35.0,1,1.0,0.19839999999999236
399,15,0.5,0.0625,35.0,1,1.0,1.6274000000000797
400,15,0.5,0.125,-35.0,-1,1.0,0.6592000000002827
401,15,0.5,0.0,-35.0,1,0.0,0.17770100000007005
402,15,0.5,0.25,35.0,1,1.0,0.36510000000021137
403,15,0.5,0.125,35.0,1,1.0,0.4711000000002059
404,15,0.5,0.25,-35.0,-1,1.0,0.24880000000007385
405,15,0.5,0.25,35.0,1,1.0,0.40130000000021937
406,15,0.5,0.25,-35.0,-1,1.0,0.41230000000018663
407,15,0.5,0.25,-35.0,-1,1.0,1.1615010000002712
408,15,0.5,0.0625,-35.0,-1,1.0,0.2957000000001244
409,15,0.5,0.0625,35.0,1,1.0,0.25510000000008404
410,15,0.5,0.25,35.0,1,1.0,0.4658999999999196
411,15,0.5,0.0625,-35.0,-1,1.0,0.3852000000001681
412,15,0.5,1.0,-35.0,-1,1.0,1.2291999999999916
413,15,0.5,0.125,-35.0,-1,1.0,0.3085009999999784
414,15,0.5,0.25,-35.0,-1,1.0,0.2560000000000855
415,15,0.5,0.25,-35.0,-1,1.0,0.25520000000005894
416,15,0.5,0.125,-35.0,-1,1.0,0.6194000000002688
417,15,0.5,1.0,35.0,1,1.0,0.33540099999981976
418,15,0.5,0.0625,35.0,-1,0.0,0.33950000000027103
419,15,0.5,0.125,-35.0,-1,1.0,0.2855000000001837
420,15,0.5,0.0625,-35.0,-1,1.0,0.27640100000007806
421,15,0.5,0.25,35.0,1,1.0,0.2556999999999334
422,15,0.5,0.25,35.0,1,1.0,0.3772000000001299
423,15,0.5,1.0,-35.0,-1,1.0,0.25270000000000437
424,15,0.5,1.0,35.0,1,1.0,0.36700100000007296
425,15,0.5,0.0,-35.0,1,0.0,2.719400000000178
426,15,0.5,0.0,-35.0,-1,1.0,0.6571000000001277
427,15,0.5,1.0,-35.0,-1,1.0,0.24630000000024665
428,15,0.5,0.25,35.0,1,1.0,0.34710000000018226
429,15,0.5,0.0625,-35.0,-1,1.0,0.5062000000000353
430,15,0.5,1.0,35.0,1,1.0,0.22410000000013497
431,15,0.5,0.0625,35.0,1,1.0,0.13650000000006912
432,15,0.5,0.0,-35.0,1,0.0,0.2272000000002663
433,15,0.5,0.25,-35.0,-1,1.0,0.21339999999986503
434,15,0.5,1.0,-35.0,-1,1.0,0.26749999999992724
435,15,0.5,0.0625,-35.0,-1,1.0,4.046700000000101
436,15,0.5,0.125,35.0,1,1.0,0.2378000000001066
437,15,0.5,0.25,35.0,1,1.0,0.29690000000005057
438,15,0.5,1.0,35.0,1,1.0,0.2851000000002841
439,15,0.5,0.0,-35.0,1,0.0,0.4471009999999751
440,15,0.7,0.0,35.0,1,1.0,0.7410999999999603
441,15,0.5,1.0,-35.0,-1,1.0,0.2903999999998632
442,15,0.5,0.0625,-35.0,-1,1.0,0.2984000000001288
443,15,0.5,0.0625,35.0,1,1.0,0.20409999999992579
444,15,0.5,0.0,35.0,-1,0.0,0.632001000000173
445,15,0.6,0.0,35.0,1,1.0,2.3940999999999804
446,15,0.5,1.0,-35.0,-1,1.0,0.2781999999999698
447,15,0.5,0.25,35.0,1,1.0,0.19760000000019318
448,15,0.5,0.25,-35.0,-1,1.0,0.26909999999998035
449,15,0.5,0.25,-35.0,-1,1.0,0.39810000000011314
450,15,0.5,0.125,35.0,1,1.0,0.22910000000001673
451,15,0.5,0.125,-35.0,-1,1.0,0.26810100000011516
452,15,0.5,0.0,35.0,-1,0.0,0.9593000000002121
453,15,0.5,0.25,-35.0,-1,1.0,0.29140000000006694
454,15,0.5,0.25,-35.0,-1,1.0,0.22570000000018808
455,15,0.5,0.125,-35.0,-1,1.0,0.27500000000009095
456,15,0.5,0.125,35.0,1,1.0,0.3057000000001153
457,15,0.5,0.125,-35.0,-1,1.0,0.3351999999999862
458,15,0.5,0.125,35.0,1,1.0,0.25929999999993925
459,15,0.5,1.0,35.0,1,1.0,0.22520099999997
460,15,0.5,1.0,35.0,1,1.0,0.2494000000001506
461,15,0.5,0.125,-35.0,-1,1.0,0.3320000000003347
462,15,0.5,0.25,35.0,1,1.0,0.2494000000001506
463,15,0.5,0.25,-35.0,-1,1.0,0.30559999999991305
464,15,0.5,0.125,35.0,1,1.0,0.286200000000008
465,15,0.5,0.25,-35.0,-1,1.0,0.4455000000000382
466,15,0.5,0.125,35.0,1,1.0,0.3870999999999185
467,15,0.5,0.125,35.0,1,1.0,0.8089999999999691
468,15,0.5,0.25,35.0,-1,0.0,0.4231000000002041
469,15,0.5,0.25,35.0,1,1.0,0.25250000000005457
470,15,0.5,0.0625,35.0,1,1.0,0.30680099999995036
471,15,0.5,0.25,35.0,1,1.0,0.2593000000001666
472,15,0.5,0.125,35.0,1,1.0,0.5134000000000469
473,15,0.5,1.0,-35.0,-1,1.0,0.25309999999990396
474,15,0.5,0.25,-35.0,-1,1.0,0.25010100000008606
475,15,0.5,0.0625,35.0,1,1.0,0.5094000000001415
476,15,0.5,1.0,35.0,1,1.0,0.31730100000004313
477,15,0.5,0.0625,35.0,1,1.0,0.44299999999998363
478,15,0.5,0.25,-35.0,-1,1.0,0.26089999999999236
479,15,0.5,0.25,-35.0,-1,1.0,0.2533000000000811
480,15,0.5,1.0,35.0,1,1.0,0.24400100000002567
481,15,0.5,1.0,35.0,1,1.0,0.28320000000007894
482,15,0.5,0.125,35.0,1,1.0,0.42420000000015534
483,15,0.5,0.25,-35.0,-1,1.0,0.14999999999986358
484,15,0.5,1.0,-35.0,-1,1.0,0.24099999999998545
485,15,0.5,1.0,-35.0,-1,1.0,0.24700000000007094
486,15,0.5,1.0,-35.0,-1,1.0,0.24100000000021282
487,15,0.5,0.25,-35.0,-1,1.0,1.457100999999966
488,15,0.5,0.0,35.0,1,1.0,0.2211000000002059
489,15,0.5,0.0625,-35.0,-1,1.0,0.30709999999999127
490,15,0.5,1.0,35.0,1,1.0,0.2319999999999709
491,15,0.5,1.0,-35.0,-1,1.0,0.26050000000009277
492,15,0.5,0.125,35.0,1,1.0,0.3081999999999425
493,15,0.5,0.25,-35.0,-1,1.0,0.2740999999998621
494,15,0.5,0.0625,35.0,-1,0.0,0.09900000000016007
495,15,0.5,0.25,-35.0,-1,1.0,0.2943000000002485
496,15,0.5,0.0625,-35.0,-1,1.0,0.3483000000003358
497,15,0.5,1.0,35.0,1,1.0,0.33110099999998965
498,15,0.5,0.0,-35.0,1,0.0,0.831899999999905
499,15,0.5,0.125,35.0,1,1.0,0.5345000000002074
500,15,0.5,1.0,-35.0,-1,1.0,0.4089000000001306
501,15,0.5,0.25,-35.0,-1,1.0,0.3482000000001335
502,15,0.5,0.125,35.0,1,1.0,0.892301000000316
503,15,0.5,0.0625,35.0,1,1.0,0.2719010000000708
504,15,0.5,0.25,35.0,1,1.0,0.2660000000000764
505,15,0.5,0.25,35.0,1,1.0,0.8016010000001188
506,15,0.5,0.25,35.0,1,1.0,0.2460000000000946
507,15,0.5,0.0625,35.0,1,1.0,0.2819009999998343
508,15,0.5,0.0,35.0,1,1.0,0.9398999999998523
509,15,0.5,0.25,35.0,1,1.0,0.2519999999999527
510,15,0.5,0.0625,-35.0,-1,1.0,0.35300000000052023
511,15,0.5,0.125,35.0,1,1.0,0.27880000000004657
512,15,0.5,0.25,35.0,1,1.0,0.2729010000002745
513,15,0.5,0.25,-35.0,-1,1.0,0.322400000000016
514,15,0.5,0.25,35.0,1,1.0,0.283900000000358
515,15,0.5,0.0,-35.0,1,0.0,0.2723999999998341
516,15,0.5,0.0625,-35.0,-1,1.0,0.31389999999964857
517,15,0.5,0.25,35.0,1,1.0,3.2723000000000866
518,15,0.5,0.125,35.0,1,1.0,0.2967010000006667
519,15,0.5,0.125,-35.0,-1,1.0,0.4659999999998945
520,15,0.5,0.125,35.0,1,1.0,0.23390000000017608
521,15,0.5,0.125,-35.0,-1,1.0,0.3095000000002983
522,15,0.5,1.0,35.0,1,1.0,0.21709999999984575
523,15,0.5,1.0,-35.0,-1,1.0,0.2531000000003587
524,15,0.5,1.0,-35.0,-1,1.0,0.8305000000004839
525,15,0.5,0.25,-35.0,-1,1.0,0.27979999999979555
526,15,0.5,0.0,-35.0,1,0.0,0.26090000000021973
527,15,0.5,0.25,35.0,1,1.0,0.25320000000010623
528,15,0.5,0.125,35.0,1,1.0,0.270799999999781
529,15,0.5,0.0625,35.0,1,1.0,0.240099999999984
530,15,0.5,0.25,35.0,-1,0.0,0.12060100000053353
531,15,0.5,0.25,35.0,1,1.0,0.390201000000161
532,15,0.5,1.0,-35.0,-1,1.0,0.2680000000000291
533,15,0.5,0.125,-35.0,-1,1.0,0.5839000000000851
534,15,0.5,0.25,-35.0,-1,1.0,0.30110000000013315
535,15,0.5,1.0,35.0,1,1.0,0.33720000000039363
536,15,0.5,0.125,35.0,1,1.0,0.3312000000005355
537,15,0.5,1.0,-35.0,-1,1.0,0.2539000000001579
538,15,0.5,1.0,35.0,1,1.0,0.2514000000001033
539,15,0.5,0.25,35.0,1,1.0,0.3108999999999469
540,15,0.5,0.0625,35.0,1,1.0,0.4249000000004344
541,15,0.5,1.0,35.0,1,1.0,0.22749999999996362
542,15,0.5,0.125,35.0,1,1.0,0.8417999999996937
543,15,0.5,1.0,-35.0,-1,1.0,0.22430100000019593
544,15,0.5,1.0,35.0,1,1.0,0.2519000000002052
545,15,0.5,0.125,35.0,1,1.0,0.3044009999998707
546,15,0.5,0.0625,35.0,-1,0.0,0.61200000000008
547,15,0.7,0.0625,-35.0,-1,1.0,0.3846000000003187
548,15,0.5,1.0,35.0,1,1.0,0.21220000000039363
549,15,0.5,0.25,35.0,1,1.0,0.38479999999981374
550,15,0.5,0.0,-35.0,-1,1.0,1.9057000000002517
551,15,0.5,0.0,35.0,-1,0.0,1.0750000000002728
552,15,0.5,0.0,-35.0,-1,1.0,0.31579999999985375
553,15,0.5,1.0,35.0,1,1.0,0.2784999999998945
554,15,0.5,0.25,35.0,1,1.0,0.37989999999990687
555,15,0.5,1.0,-35.0,-1,1.0,0.3886000000002241
556,15,0.5,1.0,35.0,1,1.0,0.22950099999980011
557,15,0.5,1.0,35.0,1,1.0,0.24530000000004293
558,15,0.5,1.0,-35.0,-1,1.0,0.2699000000002343
559,15,0.5,1.0,35.0,1,1.0,0.41540100000020175
560,15,0.5,0.0,-35.0,-1,1.0,0.26300099999980375
561,15,0.5,0.125,35.0,1,1.0,0.18580000000019936
562,15,0.5,0.25,35.0,1,1.0,0.4567000000001826
563,15,0.5,1.0,-35.0,-1,1.0,0.2559000000001106
564,15,0.5,0.25,-35.0,-1,1.0,0.6297999999997046
565,15,0.5,0.0625,35.0,1,1.0,0.7928000000001703
566,15,0.5,0.0,-35.0,1,0.0,5.733400000000074
567,15,0.5,0.0625,35.0,1,1.0,5.673000000000229
568,15,0.5,0.0,35.0,1,1.0,3.3271999999997206
569,15,0.5,0.125,-35.0,-1,1.0,0.2798000000002503
570,15,0.5,0.25,35.0,1,1.0,1.9441000000001623
571,15,0.5,0.25,35.0,1,1.0,0.24679999999989377
572,15,0.5,0.0625,35.0,1,1.0,0.26769999999987704
573,15,0.5,0.0625,35.0,1,1.0,0.29690000000027794
574,15,0.5,0.25,35.0,1,1.0,0.4544999999998254
575,15,0.5,0.0625,-35.0,-1,1.0,1.8638000000005377
576,15,0.5,0.125,35.0,1,1.0,0.404700000000048
577,15,0.5,0.125,-35.0,-1,1.0,0.35080100000004677
578,15,0.5,0.25,-35.0,-1,1.0,0.3012999999996282
579,15,0.5,1.0,35.0,1,1.0,0.23080000000027212
580,15,0.5,0.0625,35.0,1,1.0,0.3413999999997941
581,15,0.5,1.0,-35.0,-1,1.0,0.40750000000025466
582,15,0.5,1.0,35.0,1,1.0,0.2747999999996864
583,15,0.5,0.125,35.0,1,1.0,0.2777000000000953
584,15,0.5,0.25,35.0,1,1.0,0.20499999999992724
585,15,0.5,0.0625,-35.0,-1,1.0,0.7278000000001157
586,15,0.5,0.125,35.0,1,1.0,1.58849999999984
587,15,0.5,0.0625,-35.0,-1,1.0,3.937800000000152
588,15,0.5,0.0,35.0,-1,0.0,0.44570100000009916
589,15,0.5,0.0,35.0,-1,0.0,0.27799999999979264
590,15,0.5,0.125,-35.0,-1,1.0,0.2757000000001426
591,15,0.5,0.25,35.0,1,1.0,0.26820000000043365
592,15,0.5,0.0625,35.0,1,1.0,1.279000000000451
593,15,0.5,1.0,35.0,1,1.0,0.28510000000005675
594,15,0.5,1.0,35.0,1,1.0,0.28270000000020445
595,15,0.5,0.25,-35.0,-1,1.0,0.2751000000002932
596,15,0.5,0.25,-35.0,-1,1.0,0.28270000000020445
597,15,0.5,0.125,-35.0,-1,1.0,0.5587000000000444
598,15,0.5,1.0,-35.0,-1,1.0,0.2927999999997155
599,15,0.5,0.25,-35.0,-1,1.0,0.25220100000024104
600,15,0.5,1.0,-35.0,-1,1.0,0.27660000000014406
601,15,0.5,0.125,35.0,-1,0.0,2.9358000000001994
602,15,0.5,0.0625,35.0,1,1.0,0.6031000000002678
603,15,0.5,0.0625,35.0,-1,0.0,2.162499999999909
604,15,0.5,0.125,-35.0,-1,1.0,0.27680000000009386
605,15,0.5,1.0,-35.0,-1,1.0,0.22620099999994636
606,15,0.5,0.0,-35.0,-1,1.0,0.3939999999997781
607,15,0.5,1.0,-35.0,-1,1.0,0.28980000000046857
608,15,0.5,0.25,35.0,1,1.0,0.22380000000021028
609,15,0.5,0.0625,35.0,-1,0.0,0.2498000000000502
610,15,0.5,0.125,35.0,1,1.0,0.24080000000003565
611,15,0.5,0.125,-35.0,-1,1.0,0.27320000000008804
612,15,0.5,0.25,35.0,1,1.0,0.23390000000063083
613,15,0.5,0.0625,35.0,-1,0.0,0.49000100000012026
614,15,0.3,0.0625,35.0,1,1.0,0.24420000000009168
615,15,0.5,1.0,35.0,1,1.0,0.2569999999996071
616,15,0.5,0.125,-35.0,-1,1.0,0.26470000000017535
617,15,0.5,1.0,35.0,1,1.0,0.18029999999998836
618,15,0.5,0.0,35.0,1,1.0,5.784599999999955
619,15,0.5,0.0,35.0,-1,0.0,0.3173010000004979
620,15,0.5,0.125,-35.0,-1,1.0,0.2885000000001128
621,15,0.5,1.0,-35.0,-1,1.0,0.31080000000019936
622,15,0.5,0.125,35.0,1,1.0,0.21179999999958454
623,15,0.5,0.25,-35.0,-1,1.0,0.3176000000003114
624,15,0.5,1.0,-35.0,-1,1.0,0.32150099999989834
625,15,0.5,0.0625,-35.0,-1,1.0,0.4145999999996093
626,15,0.5,0.125,35.0,1,1.0,0.22560000000021319
627,15,0.5,1.0,-35.0,-1,1.0,0.33789999999999054
628,15,0.5,0.25,-35.0,-1,1.0,0.27270099999986996
629,15,0.5,0.0625,-35.0,1,0.0,8.048099999999977
630,15,0.3,0.0625,35.0,1,1.0,0.38599999999996726
631,15,0.5,1.0,-35.0,-1,1.0,0.2517000000002554
632,15,0.5,0.0,-35.0,1,0.0,0.8092999999998938
633,15,0.4,0.0,35.0,-1,0.0,0.5851999999999862
634,15,0.5,1.0,35.0,1,1.0,0.22670100000004823
635,15,0.5,0.125,35.0,1,1.0,0.7321000000001732
636,15,0.5,0.125,-35.0,-1,1.0,0.3026999999997315
637,15,0.5,0.0625,35.0,1,1.0,0.2788999999997941
638,15,0.5,0.0,-35.0,1,0.0,0.5332000000003063
639,15,0.7,0.0,-35.0,1,0.0,0.4190000000003238
640,15,0.5,1.0,-35.0,-1,1.0,0.2733000000002903
641,15,0.5,0.125,-35.0,-1,1.0,0.3358000000002903
642,15,0.5,0.25,35.0,1,1.0,0.26670000000012806
643,15,0.5,0.125,-35.0,-1,1.0,0.40599999999994907
644,15,0.5,0.0625,35.0,1,1.0,0.22690000000011423
645,15,0.5,0.125,-35.0,-1,1.0,0.32960000000002765
646,15,0.5,0.25,35.0,1,1.0,0.24760100000048624
647,15,0.5,1.0,-35.0,-1,1.0,0.31619999999975335
648,15,0.5,0.0625,-35.0,-1,1.0,3.7937009999996008
649,15,0.5,0.0625,-35.0,1,0.0,2.5766010000002098
650,15,0.5,0.0625,35.0,1,1.0,0.5640000000003056
651,15,0.5,0.0625,35.0,-1,0.0,0.1936000000000604
652,15,0.5,0.0625,35.0,1,1.0,0.35430100000030507
653,15,0.5,1.0,-35.0,-1,1.0,0.2800999999999476
654,15,0.5,0.0625,-35.0,1,0.0,0.6210000000000946
655,15,0.5,0.125,35.0,-1,0.0,0.2836999999994987
656,15,0.5,0.25,-35.0,-1,1.0,0.2816000000002532
657,15,0.5,0.125,35.0,-1,0.0,0.3769999999999527
658,15,0.5,0.25,-35.0,-1,1.0,0.2579000000000633
659,15,0.5,0.25,-35.0,-1,1.0,0.2972010000003138
660,15,0.5,0.25,-35.0,-1,1.0,0.22479999999995925
661,15,0.5,0.125,-35.0,-1,1.0,0.27080000000023574
662,15,0.5,1.0,35.0,1,1.0,0.43500100000028397
663,15,0.5,1.0,-35.0,-1,1.0,0.26080000000001746
664,15,0.5,0.0625,-35.0,-1,1.0,0.262000000000171
665,15,0.5,0.0,-35.0,-1,1.0,0.2977000000000771
666,15,0.5,0.25,-35.0,-1,1.0,0.22200000000020736
667,15,0.5,0.0625,35.0,1,1.0,0.3146999999999025
668,15,0.5,0.0625,-35.0,1,0.0,0.7288000000003194
669,15,0.5,0.0625,-35.0,-1,1.0,0.29810000000043146
670,15,0.5,0.0625,-35.0,-1,1.0,0.3196000000002641
671,15,0.5,0.0625,-35.0,-1,1.0,2.748601000000235
672,15,0.5,0.25,-35.0,-1,1.0,0.28949999999986176
673,15,0.5,0.125,-35.0,-1,1.0,0.4049009999998816
674,15,0.5,0.0,35.0,-1,0.0,4.612600000000384
675,15,0.5,0.0625,35.0,-1,0.0,0.9356000000002496
676,15,0.5,0.0625,-35.0,-1,1.0,0.4131000000002132
677,15,0.5,1.0,35.0,1,1.0,0.3621010000001661
678,15,0.5,1.0,-35.0,-1,1.0,0.23640000000023065
679,15,0.5,0.25,-35.0,-1,1.0,0.3856999999998152
680,15,0.5,0.125,35.0,1,1.0,0.2536000000000058
681,15,0.5,1.0,35.0,1,1.0,0.2725000000000364
682,15,0.5,1.0,35.0,1,1.0,0.28690000000005966
683,15,0.5,0.125,35.0,1,1.0,0.32260000000042055
684,15,0.5,1.0,35.0,1,1.0,0.21030100000007224
685,15,0.5,0.0,-35.0,1,0.0,1.0030000000001564
686,15,0.5,0.0,-35.0,1,0.0,0.4238999999997759
687,15,0.5,0.125,35.0,1,1.0,0.3029999999998836
688,15,0.5,0.0,-35.0,-1,1.0,1.6306000000004133
689,15,0.5,0.0625,35.0,1,1.0,0.4329999999999927
690,15,0.5,0.125,-35.0,-1,1.0,0.3308999999999287
691,15,0.5,1.0,35.0,1,1.0,0.31989999999996144
692,15,0.5,0.0625,35.0,1,1.0,0.2744999999999891
693,15,0.5,0.125,35.0,1,1.0,0.2701999999999316
694,15,0.5,0.25,35.0,1,1.0,0.23450000000002547
695,15,0.5,0.25,35.0,1,1.0,0.23350100000061502
696,15,0.5,0.125,-35.0,-1,1.0,0.33770000000004075
697,15,0.5,0.125,-35.0,-1,1.0,0.25700000000006185
698,15,0.5,1.0,-35.0,-1,1.0,0.26850000000013097
699,15,0.5,0.0625,35.0,1,1.0,2.183900000000449
700,15,0.5,1.0,-35.0,-1,1.0,0.25070000000005166
701,15,0.5,1.0,-35.0,-1,1.0,0.2415000000000873
702,15,0.5,0.0,35.0,-1,0.0,2.714100000000144
703,15,0.5,0.0625,35.0,-1,0.0,0.27860099999998056
704,15,0.3,0.0625,-35.0,-1,1.0,0.3044009999998707
705,15,0.5,1.0,35.0,1,1.0,0.3953010000004724
706,15,0.5,0.0625,-35.0,-1,1.0,0.9245010000004186
707,15,0.5,1.0,35.0,1,1.0,0.30860200000006444
708,15,0.5,1.0,35.0,1,1.0,0.6081020000001445
709,15,0.5,0.0625,-35.0,-1,1.0,0.5895009999999274
710,15,0.5,0.125,35.0,1,1.0,0.4215009999998074
711,15,0.5,0.0,-35.0,-1,1.0,5.862301000000116
712,15,0.5,0.25,35.0,1,1.0,0.9618009999999231
713,15,0.5,0.0,-35.0,1,0.0,5.80250100000012
714,15,0.5,0.0625,35.0,1,1.0,0.3686010000001261
715,15,0.5,0.0625,-35.0,-1,1.0,0.44290200000023106
716,15,0.5,0.125,-35.0,-1,1.0,0.3389010000005328
717,15,0.5,1.0,35.0,1,1.0,0.233400999999958
718,15,0.5,0.0,35.0,-1,0.0,4.339000999999826
719,15,0.5,0.0,35.0,-1,0.0,1.1268010000003414
720,15,0.5,0.0,-35.0,1,0.0,9.729301999999734
721,15,0.5,1.0,35.0,1,1.0,0.2571010000001479
722,15,0.5,0.0,-35.0,1,0.0,0.24640100000033271
723,15,0.5,0.25,-35.0,-1,1.0,0.2704020000001037
724,15,0.5,1.0,-35.0,-1,1.0,0.3299010000000635
725,15,0.5,0.25,35.0,1,1.0,0.22740199999998367
726,15,0.5,0.125,35.0,1,1.0,0.5234010000003764
727,15,0.5,0.125,-35.0,-1,1.0,1.8776010000001406
728,15,0.5,1.0,-35.0,-1,1.0,0.2868009999997412
729,15,0.5,1.0,-35.0,-1,1.0,0.2714009999999689
730,15,0.5,0.25,-35.0,-1,1.0,0.2536009999998896
731,15,0.5,0.0625,35.0,1,1.0,6.401202000000012
732,15,0.5,0.0,35.0,-1,0.0,0.30050100000016755
733,15,0.5,0.25,-35.0,-1,1.0,0.3051020000002609
734,15,0.5,0.0625,35.0,1,1.0,1.9241010000000642
735,15,0.5,0.125,-35.0,1,0.0,2.971900999999889
736,15,0.5,0.0625,-35.0,1,0.0,0.3077010000001792
737,15,0.5,0.125,35.0,1,1.0,1.2584020000003875
738,15,0.5,1.0,35.0,1,1.0,0.19780100000025413
739,15,0.5,0.25,-35.0,-1,1.0,0.2319009999996524
740,15,0.5,0.125,35.0,1,1.0,0.4014010000005328
741,15,0.5,0.25,-35.0,-1,1.0,0.2621019999996861
742,15,0.5,0.25,35.0,1,1.0,0.30150200000025507
743,15,0.5,0.0625,35.0,1,1.0,0.3523009999998976
744,15,0.5,0.25,35.0,1,1.0,0.36140100000011444
745,15,0.5,0.0625,-35.0,1,0.0,0.8925020000001496
746,15,0.5,0.25,35.0,1,1.0,0.22170099999993909
747,15,0.5,0.0,-35.0,1,0.0,3.0525010000001203
748,15,0.5,0.0625,-35.0,1,0.0,1.5954010000004928
749,15,0.5,0.25,-35.0,-1,1.0,0.29950100000041857
750,15,0.5,0.125,-35.0,-1,1.0,0.24560100000053353
751,15,0.5,0.125,-35.0,1,0.0,2.926401000000169
752,15,0.5,0.125,35.0,1,1.0,0.24910099999988233
753,15,0.5,1.0,35.0,1,1.0,0.2734009999999216
754,15,0.5,0.0,-35.0,1,0.0,0.6694010000005619
755,15,0.8,0.0,-35.0,-1,1.0,0.24020100000007005
756,15,0.5,1.0,-35.0,-1,1.0,0.25260100000014063
757,15,0.5,0.0,-35.0,-1,1.0,11.017002000000048
758,15,0.5,0.0,-35.0,-1,1.0,13.316401000000042
759,15,0.5,0.125,35.0,1,1.0,0.4908010000003742
760,15,0.5,0.125,35.0,1,1.0,0.4167010000001028
761,15,0.5,0.25,-35.0,-1,1.0,0.28430100000014136
762,15,0.5,0.25,35.0,1,1.0,0.3536010000002534
763,15,0.5,0.125,-35.0,-1,1.0,0.664400999999998
764,15,0.5,0.125,35.0,1,1.0,0.20360100000016246
765,15,0.5,0.0625,35.0,1,1.0,0.781402000000071
766,15,0.5,0.0,-35.0,-1,1.0,1.600402000000031
767,15,0.5,0.0625,35.0,1,1.0,0.4815019999996366
768,15,0.5,0.0625,-35.0,-1,1.0,3.8242009999999027
769,15,0.5,0.0625,-35.0,-1,1.0,0.3415010000003349
770,15,0.5,0.0,-35.0,-1,1.0,0.8610020000000986
771,15,0.5,0.25,35.0,1,1.0,0.34170099999982995
772,15,0.5,1.0,-35.0,-1,1.0,0.32110199999988254
773,15,0.5,0.25,-35.0,-1,1.0,0.4553019999998469
774,15,0.5,0.25,-35.0,-1,1.0,0.30780100000038146
775,15,0.5,0.0625,-35.0,-1,1.0,0.268601000000217
776,15,0.5,1.0,35.0,1,1.0,0.24140100000022358
777,15,0.5,0.125,-35.0,-1,1.0,0.1191009999997732
778,15,0.5,0.125,-35.0,-1,1.0,0.28830100000004677
779,15,0.5,0.0625,-35.0,-1,1.0,0.7623010000002068
780,15,0.5,0.25,35.0,1,1.0,0.41500100000030216
781,15,0.5,0.25,-35.0,-1,1.0,0.2558009999997921
782,15,0.5,0.0625,35.0,1,1.0,0.3552020000001903
783,15,0.5,1.0,-35.0,-1,1.0,0.2426010000003771
784,15,0.5,0.125,35.0,1,1.0,0.2552009999999427
785,15,0.5,0.125,35.0,1,1.0,0.2693020000001525
786,15,0.5,0.25,35.0,1,1.0,0.2253009999999449
787,15,0.5,0.0,-35.0,-1,1.0,13.776300999999876
788,15,0.5,0.125,-35.0,-1,1.0,0.39920100000017555
789,15,0.5,0.0625,35.0,1,1.0,0.36010099999975864
790,15,0.5,0.0625,35.0,1,1.0,0.8293010000002141
791,15,0.5,0.125,-35.0,1,0.0,0.5970010000000912
792,15,0.5,0.0625,35.0,1,1.0,0.31300099999998565
793,15,0.5,0.25,35.0,1,1.0,0.23040100000025632
794,15,0.5,0.25,-35.0,-1,1.0,0.2732019999998556
795,15,0.5,0.0,35.0,1,1.0,0.24050100000022212
796,15,0.5,1.0,35.0,1,1.0,0.22320100000024468
797,15,0.5,0.0625,-35.0,-1,1.0,0.6343010000000504
798,15,0.5,0.0625,-35.0,-1,1.0,1.2234010000001945
799,15,0.5,0.0,-35.0,-1,1.0,0.3512020000002849
800,15,0.5,0.0625,-35.0,1,0.0,
801,15,0.6,0.0625,-35.0,-1,1.0,1.3372020000001612
802,15,0.5,1.0,-35.0,-1,1.0,0.6845010000001821
803,15,0.5,0.0,-35.0,1,0.0,2.77040100000022
804,15,0.5,0.0625,-35.0,-1,1.0,0.7345009999999093
805,15,0.5,0.0625,-35.0,-1,1.0,0.3672010000004775
806,15,0.5,0.0625,35.0,-1,0.0,1.7314010000000053
807,15,0.5,0.0625,-35.0,-1,1.0,0.5807009999998627
808,15,0.5,0.125,35.0,-1,0.0,0.89860200000021
809,15,0.5,0.0625,-35.0,-1,1.0,0.40120100000012826
810,15,0.5,1.0,35.0,1,1.0,0.2419009999998707
811,15,0.5,0.25,35.0,1,1.0,0.3076009999999769
812,15,0.5,0.25,35.0,1,1.0,1.7919010000000526
813,15,0.5,0.25,-35.0,-1,1.0,0.35460100000045713
814,15,0.5,0.0625,-35.0,-1,1.0,0.5992009999999937
815,15,0.5,0.0625,-35.0,-1,1.0,0.784802000000127
816,15,0.5,0.0625,35.0,1,1.0,0.22880200000054174
817,15,0.5,0.0,-35.0,-1,1.0,0.17810099999996964
818,15,0.5,0.125,35.0,1,1.0,0.9423019999999269
819,15,0.5,0.0625,-35.0,-1,1.0,0.3283010000000104
820,15,0.5,0.125,35.0,1,1.0,0.2997009999999136
1,16,0.5,1.0,-35.0,-1,1.0,0.5662999999999998
2,16,0.5,0.0625,-35.0,-1,1.0,0.26750000000000007
3,16,0.5,0.25,35.0,1,1.0,0.40029999999999966
4,16,0.5,0.0625,35.0,1,1.0,0.2748999999999988
5,16,0.5,0.25,-35.0,-1,1.0,0.41040000000000276
6,16,0.5,1.0,35.0,1,1.0,0.30260000000000176
7,16,0.5,0.0625,-35.0,-1,1.0,0.7101000000000042
8,16,0.5,0.125,35.0,1,1.0,0.335600000000003
9,16,0.5,0.0625,35.0,1,1.0,0.9438999999999957
10,16,0.5,0.0625,35.0,1,1.0,0.2799000000000049
11,16,0.5,0.0625,35.0,1,1.0,0.2517999999999958
12,16,0.5,0.0,35.0,1,1.0,4.436800000000005
13,16,0.5,0.25,-35.0,-1,1.0,0.2760009999999937
14,16,0.5,0.125,-35.0,-1,1.0,0.2550019999999975
15,16,0.5,0.25,35.0,1,1.0,0.25450099999999765
16,16,0.5,0.25,35.0,1,1.0,0.34290199999999516
17,16,0.5,0.0,35.0,1,1.0,0.4505010000000027
18,16,0.5,0.25,35.0,1,1.0,0.34560099999998783
19,16,0.5,0.0,35.0,1,1.0,0.24940100000000598
20,16,0.5,0.25,-35.0,-1,1.0,0.6025009999999895
21,16,0.5,0.125,35.0,1,1.0,0.2654009999999971
22,16,0.5,1.0,35.0,1,1.0,0.24800100000000214
23,16,0.5,0.125,-35.0,-1,1.0,0.494300999999993
24,16,0.5,0.25,-35.0,-1,1.0,0.25510099999999625
25,16,0.5,1.0,35.0,1,1.0,0.32570099999999513
26,16,0.5,0.0625,35.0,1,1.0,4.045601000000005
27,16,0.5,0.25,-35.0,-1,1.0,0.2904009999999886
28,16,0.5,1.0,-35.0,-1,1.0,0.30830199999999763
29,16,0.5,0.125,35.0,1,1.0,0.5096010000000035
30,16,0.5,0.25,35.0,1,1.0,0.44050199999999506
31,16,0.5,0.0,35.0,-1,0.0,0.6082010000000082
32,16,0.5,0.25,-35.0,-1,1.0,0.2396009999999933
33,16,0.5,1.0,-35.0,-1,1.0,0.24870099999999695
34,16,0.5,0.0,35.0,-1,0.0,1.8798010000000005
35,16,0.5,0.0,35.0,1,1.0,10.06660100000002
36,16,0.5,0.0625,35.0,1,1.0,0.8089010000000201
37,16,0.5,1.0,-35.0,-1,1.0,4.527300999999994
38,16,0.5,1.0,-35.0,-1,1.0,0.31580100000002176
39,16,0.5,0.0625,35.0,1,1.0,0.5507010000000037
40,16,0.5,0.25,-35.0,-1,1.0,0.25930099999999356
41,16,0.5,0.25,35.0,1,1.0,0.2705009999999959
42,16,0.5,0.125,-35.0,-1,1.0,0.5237010000000453
43,16,0.5,0.0,-35.0,1,0.0,2.953502000000043
44,16,0.5,0.0,-35.0,-1,1.0,0.4996010000000126
45,16,0.5,1.0,-35.0,-1,1.0,0.22520099999999843
46,16,0.5,0.0,35.0,-1,0.0,0.39860100000001353
47,16,0.5,0.0625,-35.0,-1,1.0,0.3140009999999904
48,16,0.5,0.0625,35.0,1,1.0,0.5726010000000201
49,16,0.5,0.25,-35.0,-1,1.0,0.32400200000000723
50,16,0.5,1.0,-35.0,-1,1.0,0.3337010000000191
51,16,0.5,0.125,35.0,1,1.0,0.35920199999998204
52,16,0.5,0.25,35.0,1,1.0,0.2746010000000183
53,16,0.5,0.25,35.0,1,1.0,0.2350009999999827
54,16,0.5,0.0625,35.0,1,1.0,0.47190100000000257
55,16,0.5,0.25,-35.0,-1,1.0,0.28650100000001544
56,16,0.5,0.0625,35.0,1,1.0,0.2899010000000146
57,16,0.5,1.0,35.0,1,1.0,0.23170100000001526
58,16,0.5,0.125,-35.0,-1,1.0,0.32220100000000684
59,16,0.5,0.0625,-35.0,-1,1.0,1.618501000000009
60,16,0.5,0.25,-35.0,-1,1.0,0.262201000000033
61,16,0.5,0.125,35.0,1,1.0,0.32690100000002076
62,16,0.5,0.125,-35.0,-1,1.0,0.28750199999998927
63,16,0.5,1.0,-35.0,-1,1.0,0.23710200000002146
64,16,0.5,0.0625,35.0,1,1.0,5.204000999999977
65,16,0.5,1.0,-35.0,-1,1.0,0.2589009999999803
66,16,0.5,0.0,35.0,1,1.0,4.059800999999993
67,16,0.5,0.25,-35.0,-1,1.0,0.2291010000000142
68,16,0.5,0.0,-35.0,-1,1.0,0.23400100000003476
69,16,0.5,0.0,35.0,-1,0.0,0.31080099999996946
70,16,0.5,0.125,-35.0,-1,1.0,0.25350099999997155
71,16,0.5,0.25,35.0,1,1.0,0.3115010000000211
72,16,0.5,0.0,-35.0,1,0.0,3.231700999999987
73,16,0.4,0.0,-35.0,1,0.0,3.233901000000003
74,16,0.5,1.0,35.0,1,1.0,0.25080100000002403
75,16,0.5,0.125,-35.0,-1,1.0,0.4826009999999883
76,16,0.5,0.25,35.0,1,1.0,0.2538009999999531
77,16,0.5,1.0,35.0,1,1.0,0.38780099999996764
78,16,0.5,1.0,-35.0,-1,1.0,0.3085010000000352
79,16,0.5,0.0625,-35.0,-1,1.0,0.27770100000003595
80,16,0.5,0.0625,-35.0,-1,1.0,0.6100010000000111
81,16,0.5,1.0,35.0,1,1.0,0.20970099999999547
82,16,0.5,0.25,-35.0,-1,1.0,0.2618009999999913
83,16,0.5,0.125,35.0,1,1.0,0.44840099999998984
84,16,0.5,0.0,35.0,-1,0.0,0.5058009999999626
85,16,0.5,0.0625,35.0,1,1.0,0.3054010000000176
86,16,0.5,0.25,-35.0,-1,1.0,0.23400099999997792
87,16,0.5,0.25,-35.0,-1,1.0,0.3361009999999851
88,16,0.5,0.125,-35.0,-1,1.0,0.2637009999999691
89,16,0.5,0.0625,35.0,1,1.0,0.2895009999999729
90,16,0.5,0.0625,-35.0,-1,1.0,0.38430099999999356
91,16,0.5,0.25,35.0,1,1.0,0.3047009999999659
92,16,0.5,0.0,-35.0,1,0.0,0.7395010000000184
93,16,0.5,0.0,35.0,-1,0.0,0.3675010000000043
94,16,0.5,1.0,35.0,1,1.0,0.2176019999999994
95,16,0.5,0.25,35.0,1,1.0,0.2869010000000003
96,16,0.5,0.25,-35.0,-1,1.0,0.3034020000000055
97,16,0.5,0.0,35.0,1,1.0,0.25440100000002985
98,16,0.5,0.0625,-35.0,-1,1.0,0.4066010000000233
99,16,0.5,0.0,35.0,1,1.0,0.30240099999997483
100,16,0.5,1.0,35.0,1,1.0,0.2645010000000525
101,16,0.5,1.0,-35.0,-1,1.0,0.31610100000006014
102,16,0.5,0.25,-35.0,-1,1.0,0.23590100000001257
103,16,0.5,0.0625,-35.0,-1,1.0,0.6765010000000302
104,16,0.5,1.0,-35.0,-1,1.0,0.22290099999997892
105,16,0.5,0.0,35.0,-1,0.0,4.8837010000000305
106,16,0.5,0.0625,35.0,1,1.0,0.2769010000000094
107,16,0.5,0.0625,35.0,1,1.0,0.24820099999999456
108,16,0.5,1.0,35.0,1,1.0,0.2546010000000365
109,16,0.5,1.0,35.0,1,1.0,0.34610100000003285
110,16,0.5,0.0625,35.0,1,1.0,0.9051010000000019
111,16,0.5,0.125,-35.0,-1,1.0,0.2738010000000486
112,16,0.5,0.125,35.0,1,1.0,0.22660200000001396
113,16,0.5,0.125,-35.0,-1,1.0,0.36830100000003085
114,16,0.5,1.0,35.0,1,1.0,0.22310099999998556
115,16,0.5,0.25,-35.0,-1,1.0,0.2734010000000353
116,16,0.5,0.125,-35.0,-1,1.0,0.3003010000000472
117,16,0.5,0.25,-35.0,-1,1.0,0.2766020000000253
118,16,0.5,0.25,-35.0,-1,1.0,0.34100100000000566
119,16,0.5,0.125,35.0,1,1.0,2.300401000000022
120,16,0.5,1.0,35.0,1,1.0,0.17620099999999184
121,16,0.5,1.0,35.0,1,1.0,0.2465010000000234
122,16,0.5,0.125,-35.0,-1,1.0,0.30010099999998374
123,16,0.5,1.0,-35.0,-1,1.0,0.2937010000000555
124,16,0.5,1.0,35.0,1,1.0,0.4744010000000003
125,16,0.5,0.25,-35.0,-1,1.0,1.526001000000008
126,16,0.5,0.125,-35.0,-1,1.0,2.884001000000012
127,16,0.5,1.0,35.0,1,1.0,0.3226010000000201
128,16,0.5,0.0625,-35.0,-1,1.0,0.36420200000003433
129,16,0.5,0.125,-35.0,-1,1.0,0.3068010000000072
130,16,0.5,1.0,35.0,1,1.0,0.23360199999996212
131,16,0.5,0.25,35.0,1,1.0,0.3233010000001286
132,16,0.5,0.25,-35.0,-1,1.0,0.33720099999993636
133,16,0.5,0.125,35.0,-1,0.0,1.8607010000000628
134,16,0.5,0.0625,-35.0,-1,1.0,0.2634010000000444
135,16,0.5,0.125,-35.0,-1,1.0,0.35530199999993783
136,16,0.5,1.0,-35.0,-1,1.0,0.24830099999996946
137,16,0.5,0.125,-35.0,-1,1.0,0.32090200000004643
138,16,0.5,0.25,-35.0,-1,1.0,0.28080099999999675
139,16,0.5,0.125,-35.0,-1,1.0,0.27630099999998947
140,16,0.5,1.0,35.0,1,1.0,0.28430200000002515
141,16,0.5,0.25,35.0,1,1.0,0.30730099999993854
142,16,0.5,1.0,35.0,1,1.0,0.2645020000001068
143,16,0.5,0.125,-35.0,-1,1.0,0.24240100000008624
144,16,0.5,1.0,-35.0,-1,1.0,0.2370010000000775
145,16,0.5,0.0,-35.0,-1,1.0,0.35380099999997583
146,16,0.5,0.0625,-35.0,-1,1.0,0.4213009999999713
147,16,0.5,0.125,-35.0,-1,1.0,0.3908009999998967
148,16,0.5,0.0625,-35.0,-1,1.0,0.49830100000008315
149,16,0.5,0.125,-35.0,-1,1.0,0.2501009999999724
150,16,0.5,1.0,35.0,1,1.0,0.3323009999999158
151,16,0.5,1.0,-35.0,-1,1.0,0.2776010000001179
152,16,0.5,0.25,35.0,1,1.0,0.25080100000002403
153,16,0.5,1.0,35.0,1,1.0,0.31330100000002403
154,16,0.5,1.0,35.0,1,1.0,0.36500200000000405
155,16,0.5,1.0,35.0,1,1.0,0.22430099999996855
156,16,0.5,0.25,-35.0,-1,1.0,0.26180199999998877
157,16,0.5,0.25,35.0,1,1.0,0.22360199999991437
158,16,0.5,0.0625,35.0,1,1.0,1.0346009999999524
159,16,0.5,0.0,-35.0,-1,1.0,0.34280100000000857
160,16,0.5,0.125,35.0,1,1.0,0.5507010000000037
161,16,0.5,1.0,35.0,1,1.0,0.22260099999994054
162,16,0.5,0.25,35.0,1,1.0,0.41830099999992854
163,16,0.5,1.0,35.0,1,1.0,0.3303010000000768
164,16,0.5,0.25,35.0,1,1.0,0.2516010000000506
165,16,0.5,1.0,35.0,1,1.0,0.449301000000105
166,16,0.5,0.125,35.0,-1,0.0,0.41920099999993
167,16,0.5,0.0625,-35.0,-1,1.0,0.4474009999998998
168,16,0.5,0.25,35.0,1,1.0,0.24420099999997547
169,16,0.5,0.0,-35.0,-1,1.0,2.575700999999981
170,16,0.5,0.25,35.0,1,1.0,0.5549009999999726
171,16,0.5,0.0625,-35.0,-1,1.0,0.3113010000000713
172,16,0.5,1.0,35.0,1,1.0,0.17160200000000714
173,16,0.5,1.0,35.0,1,1.0,0.22640200000000732
174,16,0.5,0.0,35.0,1,1.0,0.5285010000000057
175,16,0.5,0.0625,-35.0,-1,1.0,1.708201000000031
176,16,0.5,1.0,-35.0,-1,1.0,0.3119010000000344
177,16,0.5,0.25,-35.0,-1,1.0,0.3334010000000944
178,16,0.5,0.125,-35.0,-1,1.0,0.38170100000002094
179,16,0.5,0.0625,35.0,1,1.0,0.2518010000000004
180,16,0.5,0.125,-35.0,-1,1.0,0.2881009999999833
181,16,0.5,0.0625,-35.0,1,0.0,3.7482010000001083
182,16,0.5,0.25,35.0,1,1.0,0.4112010000000055
183,16,0.5,1.0,35.0,1,1.0,0.23830099999997856
184,16,0.5,0.25,35.0,1,1.0,2.6893010000000004
185,16,0.5,0.25,-35.0,-1,1.0,0.2600009999999884
186,16,0.5,0.25,-35.0,-1,1.0,0.2552020000000539
187,16,0.5,0.0,-35.0,1,0.0,0.3148009999998749
188,16,0.6,0.0,-35.0,-1,1.0,0.33660100000008697
189,16,0.5,1.0,-35.0,-1,1.0,0.22890099999995073
190,16,0.5,1.0,35.0,1,1.0,0.13410099999998693
191,16,0.5,0.125,-35.0,-1,1.0,0.28560200000015357
192,16,0.5,0.0,-35.0,1,0.0,3.9989010000000462
193,16,0.5,0.0,-35.0,1,0.0,0.31280200000003333
194,16,0.5,0.0,35.0,-1,0.0,0.35720100000014554
195,16,0.4,0.0,35.0,1,1.0,3.0183009999999513
196,16,0.5,1.0,35.0,1,1.0,0.2093009999999822
197,16,0.5,0.0625,35.0,1,1.0,0.34290199999998094
198,16,0.5,0.25,-35.0,-1,1.0,0.27080100000000584
199,16,0.5,0.0625,-35.0,-1,1.0,0.8037010000000464
200,16,0.5,1.0,-35.0,-1,1.0,0.22450100000003204
201,16,0.5,0.25,35.0,1,1.0,0.23740200000008826
202,16,0.5,1.0,-35.0,-1,1.0,0.2813009999999849
203,16,0.5,1.0,35.0,1,1.0,0.2635010000000193
204,16,0.5,0.125,35.0,1,1.0,0.23240099999998165
205,16,0.5,0.0,-35.0,1,0.0,1.3335020000000668
206,16,0.5,0.0625,-35.0,-1,1.0,0.3016010000000051
207,16,0.5,1.0,35.0,1,1.0,0.32100100000002385
208,16,0.5,0.0625,-35.0,-1,1.0,0.30320100000005823
209,16,0.5,0.25,35.0,1,1.0,0.7772009999999909
210,16,0.5,0.0,35.0,-1,0.0,6.08720100000005
211,16,0.5,0.125,35.0,1,1.0,0.4246009999999387
212,16,0.5,1.0,35.0,1,1.0,0.2473009999999931
213,16,0.5,0.25,35.0,1,1.0,0.2597010000000637
214,16,0.5,0.125,-35.0,-1,1.0,0.24210100000004786
215,16,0.5,1.0,-35.0,-1,1.0,0.41550100000006296
216,16,0.5,0.25,-35.0,-1,1.0,0.24810100000001967
217,16,0.5,1.0,-35.0,-1,1.0,0.24450100000001385
218,16,0.5,1.0,35.0,1,1.0,0.2738010000000486
219,16,0.5,1.0,35.0,1,1.0,0.24860100000000784
220,16,0.5,1.0,-35.0,-1,1.0,0.24920099999997092
221,16,0.5,0.0625,35.0,1,1.0,0.22560100000009697
222,16,0.5,1.0,-35.0,-1,1.0,0.19950200000005225
223,16,0.5,1.0,-35.0,-1,1.0,0.22240099999987706
224,16,0.5,1.0,-35.0,-1,1.0,0.24900100000002112
225,16,0.5,0.125,-35.0,-1,1.0,0.4068010000000868
226,16,0.5,0.0625,-35.0,-1,1.0,1.6722009999999727
227,16,0.5,0.0625,-35.0,-1,1.0,0.23620100000005095
228,16,0.5,1.0,35.0,1,1.0,0.2522009999999
229,16,0.5,1.0,35.0,1,1.0,0.18610100000000784
230,16,0.5,1.0,-35.0,-1,1.0,0.7868010000000822
231,16,0.5,0.0625,-35.0,-1,1.0,0.37760100000002694
232,16,0.5,0.0625,35.0,1,1.0,0.7619009999999662
233,16,0.5,0.0625,-35.0,-1,1.0,0.27910099999996874
234,16,0.5,0.25,-35.0,-1,1.0,0.2718010000000959
235,16,0.5,0.25,-35.0,-1,1.0,0.25830100000007405
236,16,0.5,0.125,-35.0,-1,1.0,0.5058010000000195
237,16,0.5,0.0625,-35.0,-1,1.0,0.28120100000001
238,16,0.5,0.0,35.0,-1,0.0,0.6791010000000597
239,16,0.2,0.0,35.0,1,1.0,4.525801000000001
240,16,0.5,1.0,35.0,1,1.0,0.20980099999997037
241,16,0.5,0.0625,35.0,1,1.0,3.422602000000097
242,16,0.5,1.0,-35.0,-1,1.0,0.26210100000002967
243,16,0.5,1.0,35.0,1,1.0,0.24460099999998874
244,16,0.5,1.0,35.0,1,1.0,0.2476009999999178
245,16,0.5,0.0625,-35.0,-1,1.0,0.26830199999994875
246,16,0.5,1.0,-35.0,-1,1.0,0.2530010000000402
247,16,0.5,0.0,-35.0,1,0.0,0.4474010000000135
248,16,0.6,0.0,-35.0,1,0.0,0.4574010000000044
249,16,0.5,1.0,-35.0,-1,1.0,0.2781009999999924
250,16,0.5,0.0625,-35.0,-1,1.0,0.4671009999999569
251,16,0.5,0.0,35.0,1,1.0,0.30910100000005514
252,16,0.5,0.25,35.0,1,1.0,0.3406009999999924
253,16,0.5,0.0625,35.0,1,1.0,0.5625009999999975
254,16,0.5,0.0,-35.0,1,0.0,1.0478010000000495
255,16,0.5,0.0625,-35.0,-1,1.0,0.29430200000001605
256,16,0.5,0.125,35.0,1,1.0,0.3581010000000333
257,16,0.5,0.125,35.0,1,1.0,0.22240099999999074
258,16,0.5,1.0,-35.0,-1,1.0,0.2571020000000317
259,16,0.5,1.0,-35.0,-1,1.0,0.2593010000000504
260,16,0.5,0.0,-35.0,-1,1.0,0.3402010000000928
261,16,0.5,0.125,-35.0,1,0.0,0.6562009999998963
262,16,0.6,0.125,-35.0,-1,1.0,0.27760200000011537
263,16,0.5,1.0,-35.0,-1,1.0,0.24630100000013044
264,16,0.5,0.25,-35.0,-1,1.0,0.30410200000005716
265,16,0.5,0.125,-35.0,-1,1.0,0.3231020000000626
266,16,0.5,0.125,35.0,1,1.0,0.7007009999999809
267,16,0.5,0.25,35.0,1,1.0,0.7700009999998656
268,16,0.5,0.0625,35.0,1,1.0,0.4241010000002916
269,16,0.5,0.25,-35.0,-1,1.0,0.27000100000009297
270,16,0.5,0.25,-35.0,-1,1.0,0.38740099999995437
271,16,0.5,1.0,-35.0,-1,1.0,0.3267009999999573
272,16,0.5,0.0625,-35.0,-1,1.0,0.40110100000015336
273,16,0.5,1.0,-35.0,-1,1.0,0.6102010000001883
274,16,0.5,0.0625,-35.0,-1,1.0,0.4381020000000717
275,16,0.5,0.125,-35.0,-1,1.0,0.4470010000000002
276,16,0.5,1.0,-35.0,-1,1.0,0.23810200000002624
277,16,0.5,0.0625,-35.0,-1,1.0,0.29720099999985905
278,16,0.5,0.0,35.0,1,1.0,0.11130099999991216
279,16,0.5,0.25,35.0,1,1.0,1.7972010000000864
280,16,0.5,0.25,-35.0,-1,1.0,0.4649010000000544
281,16,0.5,0.125,-35.0,-1,1.0,0.35750099999995655
282,16,0.5,0.0,35.0,1,1.0,0.42170099999998456
283,16,0.5,0.25,35.0,1,1.0,0.24420099999997547
284,16,0.5,0.125,35.0,1,1.0,0.39910200000008444
285,16,0.5,1.0,35.0,1,1.0,0.4311010000001261
286,16,0.5,1.0,-35.0,-1,1.0,0.28550099999984013
287,16,0.5,0.125,35.0,1,1.0,0.7280010000001766
288,16,0.5,0.0625,-35.0,-1,1.0,0.5253010000001268
289,16,0.5,0.0625,-35.0,1,0.0,1.7680010000001403
290,16,0.5,0.0,35.0,-1,0.0,0.3391009999998005
291,16,0.5,0.125,35.0,1,1.0,0.3583009999999831
292,16,0.5,1.0,35.0,1,1.0,0.219101000000137
293,16,0.5,0.25,-35.0,-1,1.0,0.255102000000079
294,16,0.5,0.25,35.0,1,1.0,1.6324010000000726
295,16,0.5,0.0625,35.0,1,1.0,0.2818010000000868
296,16,0.5,0.0625,-35.0,-1,1.0,0.4130010000001221
297,16,0.5,0.0625,-35.0,-1,1.0,0.38520100000005186
298,16,0.5,0.125,-35.0,-1,1.0,0.4030009999999038
299,16,0.5,0.0625,-35.0,-1,1.0,0.2455010000001039
300,16,0.5,1.0,-35.0,-1,1.0,0.20000100000015664
301,16,0.5,0.125,-35.0,-1,1.0,0.32550099999980375
302,16,0.5,1.0,35.0,1,1.0,0.25700099999994563
303,16,0.5,0.125,35.0,1,1.0,0.21900099999993472
304,16,0.5,0.125,35.0,1,1.0,0.293201000000181
305,16,0.5,0.25,-35.0,-1,1.0,0.34920099999999366
306,16,0.5,0.125,-35.0,-1,1.0,0.29340099999990343
307,16,0.5,1.0,35.0,1,1.0,0.2859009999999671
308,16,0.5,0.25,-35.0,-1,1.0,0.370401000000129
309,16,0.5,0.0625,-35.0,-1,1.0,0.30940099999997983
310,16,0.5,0.0625,-35.0,-1,1.0,0.2939010000000053
311,16,0.5,1.0,35.0,1,1.0,0.26610100000016246
312,16,0.5,1.0,35.0,1,1.0,0.26040100000000166
313,16,0.5,0.0,-35.0,1,0.0,0.886400999999978
314,16,0.5,0.0,-35.0,1,0.0,5.410901999999851
315,16,0.5,1.0,-35.0,-1,1.0,0.3034020000002329
316,16,0.5,0.0625,-35.0,-1,1.0,3.7545020000000022
317,16,0.5,0.125,35.0,1,1.0,0.4670010000002094
318,16,0.5,0.125,-35.0,-1,1.0,0.4878009999999904
319,16,0.5,0.125,-35.0,-1,1.0,0.35700100000008206
320,16,0.5,0.25,35.0,1,1.0,1.291101000000026
321,16,0.5,0.0625,-35.0,-1,1.0,0.39720200000010664
322,16,0.5,0.25,-35.0,-1,1.0,0.4649010000000544
323,16,0.5,1.0,35.0,1,1.0,0.2172009999999318
324,16,0.5,0.25,35.0,1,1.0,0.388101000000006
325,16,0.5,0.125,-35.0,-1,1.0,0.27400200000010955
326,16,0.5,0.25,35.0,1,1.0,0.251500999999962
327,16,0.5,0.125,-35.0,-1,1.0,0.3142009999999118
328,16,0.5,1.0,35.0,1,1.0,0.3484009999997397
329,16,0.5,0.0,35.0,-1,0.0,0.6310010000001967
330,16,0.5,0.0625,-35.0,-1,1.0,0.6886010000002898
331,16,0.5,1.0,-35.0,-1,1.0,0.29130099999997583
332,16,0.5,1.0,35.0,1,1.0,2.112001000000191
333,16,0.5,0.0625,35.0,-1,0.0,3.9180009999997765
334,16,0.4,0.0625,35.0,1,1.0,0.46590100000003076
335,16,0.5,1.0,35.0,1,1.0,0.3414010000001326
336,16,0.5,0.0625,35.0,1,1.0,2.0525010000001203
337,16,0.5,0.25,-35.0,-1,1.0,0.25840199999993274
338,16,0.5,0.125,35.0,1,1.0,0.5999010000000453
339,16,0.5,0.25,-35.0,-1,1.0,0.5551010000001497
