trial_num,session_num,stim_probability_left,contrast,position,response_choice,trial_correct,reaction_time
1,18,0.5,0.0,-35.0,1,0.0,1.144099999999999
2,18,0.5,0.25,-35.0,1,0.0,1.2502999999999993
3,18,0.5,0.0625,-35.0,-1,1.0,3.1732999999999993
4,18,0.5,0.0625,-35.0,-1,1.0,0.6489010000000022
5,18,0.5,0.25,35.0,1,1.0,0.4753000000000007
6,18,0.5,0.125,35.0,1,1.0,0.4582999999999977
7,18,0.5,1.0,-35.0,-1,1.0,0.755199999999995
8,18,0.5,0.25,-35.0,1,0.0,0.6271000000000058
9,18,0.5,0.25,35.0,1,1.0,0.5197000000000003
10,18,0.5,0.0,35.0,1,1.0,0.4580999999999946
11,18,0.5,0.125,35.0,-1,0.0,4.222600999999997
12,18,0.5,0.0,-35.0,-1,1.0,2.2726010000000016
13,18,0.5,0.125,-35.0,-1,1.0,2.7877009999999984
14,18,0.5,1.0,-35.0,1,0.0,0.6280000000000001
15,18,0.6,1.0,-35.0,-1,1.0,0.906099999999995
16,18,0.5,1.0,-35.0,-1,1.0,3.3048
17,18,0.5,0.0,-35.0,-1,1.0,1.2424000000000035
18,18,0.5,0.0625,35.0,1,1.0,1.6723999999999961
19,18,0.5,0.0625,-35.0,-1,1.0,2.174599999999998
20,18,0.5,0.125,35.0,1,1.0,0.41039999999999566
21,18,0.5,1.0,-35.0,-1,1.0,0.4480999999999966
22,18,0.5,0.0625,-35.0,-1,1.0,0.5490999999999957
23,18,0.5,1.0,35.0,1,1.0,0.2353999999999843
24,18,0.5,0.25,-35.0,1,0.0,2.126800000000003
25,18,0.5,0.125,-35.0,-1,1.0,2.8536009999999976
26,18,0.5,0.0625,-35.0,-1,1.0,1.5520000000000067
27,18,0.5,1.0,-35.0,1,0.0,0.4163000000000068
28,18,0.5,0.25,35.0,1,1.0,0.36489999999999156
29,18,0.5,0.0625,-35.0,-1,1.0,0.8598999999999819
30,18,0.5,0.0625,35.0,1,1.0,0.3471009999999808
31,18,0.5,0.125,35.0,-1,0.0,0.4251999999999896
32,18,0.5,0.25,-35.0,1,0.0,2.5413000000000068
33,18,0.5,0.125,-35.0,1,0.0,1.120900000000006
34,18,0.6,0.125,-35.0,-1,1.0,1.125801000000024
35,18,0.5,1.0,-35.0,-1,1.0,0.8634999999999877
36,18,0.5,0.25,-35.0,-1,1.0,1.327399999999983
37,18,0.5,1.0,35.0,1,1.0,0.30750000000003297
38,18,0.5,0.0625,35.0,1,1.0,0.5201999999999884
39,18,0.5,0.25,-35.0,-1,1.0,0.46170000000000755
40,18,0.5,0.0625,35.0,-1,0.0,2.475699999999989
41,18,0.5,0.125,35.0,-1,0.0,0.3812000000000353
42,18,0.4,0.125,-35.0,1,0.0,0.44530000000000314
43,18,0.5,1.0,35.0,1,1.0,0.4590000000000032
44,18,0.5,1.0,35.0,1,1.0,0.3397000000000219
45,18,0.5,0.125,35.0,1,1.0,0.5289000000000215
46,18,0.5,0.125,-35.0,1,0.0,0.32630100000000084
47,18,0.5,0.125,35.0,1,1.0,0.41970000000000596
48,18,0.5,1.0,35.0,1,1.0,0.4142999999999972
49,18,0.5,0.0,-35.0,1,0.0,0.4099999999999966
50,18,0.5,0.125,-35.0,-1,1.0,3.939700000000016
51,18,0.5,0.125,35.0,1,1.0,2.418500999999992
52,18,0.5,0.0625,35.0,-1,0.0,0.43829999999999814
53,18,0.5,0.125,35.0,1,1.0,0.5302000000000078
54,18,0.5,0.0,35.0,1,1.0,0.8185999999999751
55,18,0.5,1.0,35.0,1,1.0,0.35019999999997253
56,18,0.5,0.0625,35.0,-1,0.0,1.7881999999999891
57,18,0.5,0.25,35.0,1,1.0,0.5840000000000032
58,18,0.5,0.0625,35.0,-1,0.0,4.1892
59,18,0.5,0.0,35.0,1,1.0,0.3221999999999525
60,18,0.5,0.25,35.0,1,1.0,0.48289999999997235
61,18,0.5,0.25,-35.0,1,0.0,7.51159999999993
62,18,0.7,0.25,-35.0,-1,1.0,0.7522010000000137
63,18,0.5,1.0,35.0,1,1.0,0.7893000000000256
64,18,0.5,0.0625,-35.0,-1,1.0,0.5745009999999979
65,18,0.5,0.0625,35.0,-1,0.0,0.9192000000000462
66,18,0.5,0.0625,35.0,1,1.0,1.3272000000000048
67,18,0.5,0.0625,35.0,1,1.0,0.43220000000007985
68,18,0.5,0.0625,-35.0,-1,1.0,0.6777000000000726
69,18,0.5,0.25,35.0,1,1.0,0.6064000000000078
70,18,0.5,0.0625,35.0,1,1.0,0.40750100000002476
71,18,0.5,0.0,35.0,1,1.0,0.429300000000012
72,18,0.5,1.0,-35.0,-1,1.0,0.4300999999999817
73,18,0.5,0.25,-35.0,1,0.0,0.45940100000001394
74,18,0.5,0.0625,-35.0,-1,1.0,3.380500999999981
75,18,0.5,0.0625,-35.0,1,0.0,3.1588010000000395
76,18,0.5,0.125,35.0,-1,0.0,0.45940000000001646
77,18,0.5,0.0625,35.0,1,1.0,0.7450999999999794
78,18,0.5,0.125,35.0,1,1.0,0.356200000000058
79,18,0.5,0.0625,-35.0,-1,1.0,0.6981009999999515
80,18,0.5,0.125,-35.0,-1,1.0,0.7350999999999885
81,18,0.5,0.125,-35.0,-1,1.0,1.226099999999974
82,18,0.5,0.25,35.0,-1,0.0,1.4227999999999952
83,18,0.5,0.25,35.0,-1,0.0,0.17399999999997817
84,18,0.5,0.125,35.0,1,1.0,3.0067000000000235
85,18,0.5,0.25,-35.0,-1,1.0,0.7635999999999967
86,18,0.5,1.0,-35.0,-1,1.0,1.3399999999999181
87,18,0.5,0.25,-35.0,-1,1.0,0.672300000000007
88,18,0.5,1.0,-35.0,-1,1.0,0.45340000000004466
89,18,0.5,0.125,-35.0,-1,1.0,0.8765000000000214
90,18,0.5,0.125,-35.0,-1,1.0,0.3709999999999809
91,18,0.5,0.125,-35.0,-1,1.0,0.5158000000000129
92,18,0.5,0.0625,35.0,-1,0.0,0.6368999999999687
93,18,0.5,0.0625,35.0,-1,0.0,0.27800000000002
94,18,0.1,0.0625,35.0,-1,0.0,0.6020009999999161
95,18,0.5,1.0,-35.0,-1,1.0,0.3613000000000284
96,18,0.5,0.25,-35.0,1,0.0,2.656499999999994
97,18,0.5,0.125,-35.0,-1,1.0,2.8442000000000007
98,18,0.5,1.0,-35.0,-1,1.0,1.0965999999999667
99,18,0.5,0.25,-35.0,-1,1.0,0.3721010000000433
100,18,0.5,1.0,35.0,1,1.0,0.8140010000000188
101,18,0.5,0.0625,35.0,1,1.0,4.612900000000025
102,18,0.5,1.0,35.0,1,1.0,0.4383999999999446
103,18,0.5,0.25,35.0,-1,0.0,0.8990000000000009
104,18,0.5,0.125,35.0,1,1.0,0.5230000000000246
105,18,0.5,0.125,35.0,1,1.0,1.9174999999999613
106,18,0.5,0.125,35.0,1,1.0,0.3472000000000435
107,18,0.5,0.25,-35.0,-1,1.0,6.693200000000047
108,18,0.5,0.125,35.0,1,1.0,2.966299999999933
109,18,0.5,0.25,-35.0,-1,1.0,1.1072999999999524
110,18,0.5,1.0,35.0,1,1.0,3.113900000000001
111,18,0.5,1.0,-35.0,-1,1.0,0.2044999999999959
112,18,0.5,1.0,-35.0,1,0.0,0.24059999999997217
113,18,0.5,0.125,35.0,1,1.0,0.5732000000000426
114,18,0.5,1.0,-35.0,-1,1.0,0.5128999999999451
115,18,0.5,1.0,35.0,1,1.0,0.43630099999995764
116,18,0.5,0.0625,-35.0,1,0.0,2.6166000000000054
117,18,0.5,0.125,-35.0,-1,1.0,0.6748010000000022
118,18,0.5,0.25,-35.0,-1,1.0,0.6989010000000917
119,18,0.5,0.25,35.0,-1,0.0,0.9791999999999916
120,18,0.5,0.25,-35.0,1,0.0,0.39170000000001437
121,18,0.5,1.0,35.0,1,1.0,0.46319999999991524
122,18,0.5,0.25,35.0,1,1.0,0.4232000000000653
123,18,0.5,0.125,-35.0,-1,1.0,0.8865999999999303
124,18,0.5,0.0625,35.0,1,1.0,0.33989999999994325
125,18,0.5,1.0,-35.0,-1,1.0,0.4311999999999898
126,18,0.5,1.0,-35.0,-1,1.0,1.3696999999999662
127,18,0.5,0.125,35.0,1,1.0,0.49720000000002074
128,18,0.5,0.25,-35.0,-1,1.0,0.8044999999999618
129,18,0.5,0.125,35.0,1,1.0,0.27689999999995507
130,18,0.5,0.25,-35.0,-1,1.0,0.33190000000001874
131,18,0.5,0.25,-35.0,-1,1.0,1.289899999999875
132,18,0.5,0.125,35.0,1,1.0,0.4257000000000062
133,18,0.5,0.0,35.0,1,1.0,0.8182000000000471
134,18,0.5,0.0,-35.0,-1,1.0,2.0587999999999056
135,18,0.5,0.25,-35.0,1,0.0,0.4287009999999327
136,18,0.5,0.0625,35.0,1,1.0,0.5950000000000273
137,18,0.5,0.25,-35.0,-1,1.0,2.8268000000000484
138,18,0.5,0.0625,-35.0,1,0.0,0.31179999999994834
139,18,0.5,0.0625,35.0,-1,0.0,0.3391999999998916
140,18,0.5,0.25,35.0,1,1.0,0.38379999999995107
141,18,0.5,0.0625,35.0,-1,0.0,1.3069999999999027
142,18,0.5,0.25,35.0,1,1.0,0.5096999999999525
143,18,0.5,0.25,35.0,1,1.0,1.2462000000000444
144,18,0.5,0.0625,-35.0,1,0.0,0.5788000000000011
145,18,0.7,0.0625,-35.0,1,0.0,1.3479999999999563
146,18,0.5,1.0,-35.0,-1,1.0,0.36180000000001655
147,18,0.5,1.0,35.0,1,1.0,0.29919999999992797
148,18,0.5,0.0625,35.0,-1,0.0,0.8270009999999957
149,18,0.5,0.125,-35.0,-1,1.0,1.0218000000000984
150,18,0.5,1.0,-35.0,-1,1.0,0.38639999999998054
151,18,0.5,0.25,35.0,1,1.0,0.4148000000000138
152,18,0.5,0.0625,35.0,1,1.0,1.7975999999999885
153,18,0.5,1.0,35.0,1,1.0,2.967700000000036
154,18,0.5,0.0625,35.0,-1,0.0,2.269700999999941
155,18,0.5,0.25,-35.0,1,0.0,0.5429999999998927
156,18,0.5,0.25,-35.0,-1,1.0,2.407199999999989
157,18,0.5,1.0,-35.0,-1,1.0,0.6438999999999169
158,18,0.5,0.125,35.0,-1,0.0,3.953399999999988
159,18,0.4,0.125,-35.0,-1,1.0,2.7350999999999885
160,18,0.5,1.0,-35.0,-1,1.0,0.3930009999999129
161,18,0.5,0.125,35.0,1,1.0,0.35799999999994725
162,18,0.5,0.125,35.0,1,1.0,0.65199999999993
163,18,0.5,0.125,35.0,1,1.0,0.6538999999999078
164,18,0.5,0.0,-35.0,-1,1.0,0.5260999999999285
165,18,0.5,0.25,-35.0,-1,1.0,2.177799999999934
166,18,0.5,0.125,-35.0,-1,1.0,1.7092999999999847
167,18,0.5,0.0625,-35.0,-1,1.0,1.3432999999999993
168,18,0.5,1.0,-35.0,-1,1.0,0.45100000000002183
169,18,0.5,0.25,35.0,1,1.0,0.5372999999999593
170,18,0.5,0.25,35.0,1,1.0,0.58520099999987
171,18,0.5,1.0,-35.0,1,0.0,2.445100000000025
172,18,0.5,0.0625,35.0,1,1.0,2.469699999999875
173,18,0.5,0.0,35.0,-1,0.0,0.7488999999999351
174,18,0.5,0.0625,-35.0,-1,1.0,1.1625000000000227
175,18,0.5,0.0625,-35.0,-1,1.0,1.5267999999999802
176,18,0.5,0.0625,-35.0,-1,1.0,3.4716999999999416
177,18,0.5,0.0,35.0,-1,0.0,1.660600000000045
178,18,0.5,0.0625,35.0,1,1.0,4.460299999999961
179,18,0.5,0.25,-35.0,1,0.0,0.2764999999999418
180,18,0.5,0.25,-35.0,1,0.0,1.0065999999999349
181,18,0.5,1.0,35.0,1,1.0,0.5469000000000506
182,18,0.5,0.25,-35.0,-1,1.0,0.5005999999999631
183,18,0.5,0.0625,35.0,-1,0.0,0.6456999999999198
184,18,0.5,0.25,-35.0,-1,1.0,0.9927999999999884
185,18,0.5,0.25,-35.0,-1,1.0,0.31359999999995125
186,18,0.5,0.125,35.0,1,1.0,0.5335999999999785
187,18,0.5,0.25,35.0,1,1.0,0.7083000000000084
188,18,0.5,0.125,-35.0,-1,1.0,0.37059999999985394
189,18,0.5,0.25,-35.0,-1,1.0,3.1488999999999123
190,18,0.5,0.25,35.0,1,1.0,0.3345000000000482
191,18,0.5,0.0625,35.0,1,1.0,4.0528000000000475
192,18,0.5,0.25,-35.0,1,0.0,7.155099999999948
193,18,0.5,0.25,35.0,1,1.0,0.3828000000000884
194,18,0.5,1.0,-35.0,-1,1.0,1.6285999999998921
195,18,0.5,0.0625,-35.0,1,0.0,0.5236009999999851
196,18,0.7,0.0625,-35.0,-1,1.0,0.49249999999995
197,18,0.5,1.0,-35.0,-1,1.0,0.8076999999999543
198,18,0.5,0.0625,-35.0,-1,1.0,2.1824009999999134
199,18,0.5,0.25,-35.0,-1,1.0,0.4176999999998543
200,18,0.5,0.0625,-35.0,1,0.0,3.0050999999999704
201,18,0.5,0.0625,-35.0,1,0.0,3.502499999999941
202,18,0.5,1.0,-35.0,1,0.0,0.3875999999999067
203,18,0.5,0.25,35.0,-1,0.0,3.7504999999998745
204,18,0.5,0.0625,-35.0,-1,1.0,5.953800000000001
205,18,0.5,0.25,35.0,1,1.0,0.39200000000005275
206,18,0.5,1.0,-35.0,-1,1.0,3.4213999999999487
207,18,0.5,0.125,35.0,1,1.0,4.6182999999999765
208,18,0.5,1.0,35.0,1,1.0,0.35639999999989413
209,18,0.5,0.125,35.0,1,1.0,3.8366999999999507
210,18,0.5,1.0,35.0,1,1.0,0.3343999999999596
211,18,0.5,0.0625,-35.0,1,0.0,3.0524010000000317
212,18,0.7,0.0625,-35.0,1,0.0,3.592399999999998
213,18,0.5,1.0,-35.0,-1,1.0,0.49149999999985994
214,18,0.5,1.0,-35.0,-1,1.0,0.7473999999998568
215,18,0.5,0.25,35.0,1,1.0,0.45630099999993945
216,18,0.5,1.0,35.0,1,1.0,0.4474010000000135
217,18,0.5,0.25,35.0,1,1.0,0.4400999999999158
218,18,0.5,0.0,-35.0,1,0.0,6.650099999999952
219,18,0.5,0.25,35.0,1,1.0,1.1383009999998421
220,18,0.5,0.25,35.0,1,1.0,0.427599999999984
221,18,0.5,0.125,-35.0,1,0.0,0.4415000000000191
222,18,0.5,0.0625,-35.0,-1,1.0,0.5027999999999793
223,18,0.5,0.0625,35.0,-1,0.0,0.7635999999999967
224,18,0.5,0.125,-35.0,1,0.0,0.5546010000000479
225,18,0.5,0.0625,-35.0,-1,1.0,0.22630099999992126
226,18,0.5,0.125,35.0,1,1.0,3.3482999999999947
227,18,0.5,0.125,-35.0,1,0.0,2.957300000000032
228,18,0.7,0.125,-35.0,-1,1.0,0.3344999999999345
229,18,0.5,1.0,-35.0,-1,1.0,0.49719999999990705
230,18,0.5,1.0,35.0,1,1.0,0.41469999999992524
231,18,0.5,0.25,35.0,1,1.0,1.4604999999999109
232,18,0.5,0.25,35.0,1,1.0,0.3786999999999807
233,18,0.5,0.0625,35.0,1,1.0,0.35730100000000675
234,18,0.5,1.0,35.0,1,1.0,0.29149999999981446
235,18,0.5,0.0,-35.0,-1,1.0,3.117501000000175
236,18,0.5,1.0,35.0,1,1.0,0.14170000000012806
237,18,0.5,0.0625,35.0,1,1.0,0.26099999999996726
238,18,0.5,0.125,-35.0,1,0.0,0.2886000000000877
239,18,0.5,0.25,-35.0,1,0.0,1.8844000000001415
240,18,0.5,0.25,35.0,1,1.0,3.0087999999998374
241,18,0.5,0.0625,-35.0,-1,1.0,0.19459999999980937
242,18,0.5,0.25,-35.0,1,0.0,0.3224009999998998
243,18,0.8,0.25,35.0,1,1.0,0.39830000000006294
244,18,0.5,1.0,-35.0,-1,1.0,0.8392999999998665
245,18,0.5,0.0,-35.0,-1,1.0,3.9349999999999454
246,18,0.5,0.25,-35.0,-1,1.0,4.392599999999902
247,18,0.5,0.0,-35.0,-1,1.0,5.628500000000031
248,18,0.5,0.125,-35.0,-1,1.0,0.9695010000000366
249,18,0.5,0.25,-35.0,1,0.0,0.5353999999999814
250,18,0.5,0.125,35.0,1,1.0,0.5432000000000698
251,18,0.5,0.0625,35.0,-1,0.0,0.9023999999999432
252,18,0.4,0.0625,-35.0,1,0.0,0.4465999999997621
253,18,0.5,1.0,-35.0,-1,1.0,0.31239999999979773
254,18,0.5,1.0,-35.0,-1,1.0,0.6399999999998727
255,18,0.5,1.0,35.0,1,1.0,0.2861000000000331
256,18,0.5,1.0,-35.0,-1,1.0,0.2803000000001248
257,18,0.5,0.25,-35.0,-1,1.0,3.1860999999998967
258,18,0.5,0.25,35.0,1,1.0,0.9169999999999163
259,18,0.5,1.0,-35.0,-1,1.0,2.6228009999999813
260,18,0.5,0.0625,-35.0,-1,1.0,0.42400000000020555
261,18,0.5,1.0,35.0,1,1.0,0.4331999999999425
262,18,0.5,1.0,35.0,1,1.0,2.72400000000016
263,18,0.5,0.125,-35.0,-1,1.0,2.326599999999871
264,18,0.5,0.125,-35.0,-1,1.0,0.838099999999713
265,18,0.5,0.0625,-35.0,-1,1.0,4.0965000000001055
266,18,0.5,1.0,35.0,1,1.0,0.3511000000000877
267,18,0.5,0.0625,35.0,-1,0.0,4.403600000000097
268,18,0.5,0.25,35.0,1,1.0,0.44470000000001164
269,18,0.5,0.0,-35.0,-1,1.0,0.30369999999993524
270,18,0.5,0.125,-35.0,-1,1.0,1.1549009999998816
271,18,0.5,0.0,35.0,-1,0.0,2.1141000000000076
272,18,0.5,0.0625,35.0,1,1.0,0.5721000000000913
273,18,0.5,0.125,-35.0,-1,1.0,0.7906000000002678
274,18,0.5,0.125,35.0,1,1.0,0.6083000000000993
275,18,0.5,0.125,35.0,1,1.0,1.704101000000037
276,18,0.5,0.0625,-35.0,-1,1.0,2.6151000000002114
277,18,0.5,1.0,35.0,1,1.0,0.5543999999999869
278,18,0.5,1.0,35.0,1,1.0,0.4957009999998263
279,18,0.5,0.0625,35.0,1,1.0,0.2545000000000073
280,18,0.5,0.0625,-35.0,1,0.0,1.6120999999998276
281,18,0.5,0.25,-35.0,-1,1.0,2.278099999999995
282,18,0.5,0.0625,-35.0,-1,1.0,3.1825000000001182
283,18,0.5,0.0625,-35.0,1,0.0,0.2615000000000691
284,18,0.7,0.0625,35.0,1,1.0,1.4325999999998658
285,18,0.5,1.0,-35.0,-1,1.0,1.9850999999998749
286,18,0.5,0.125,35.0,1,1.0,1.039199999999937
287,18,0.5,0.0,-35.0,-1,1.0,0.3484000000000833
288,18,0.5,0.0625,-35.0,1,0.0,0.2960000000000491
289,18,0.5,0.0625,-35.0,-1,1.0,1.821999999999889
290,18,0.5,0.125,-35.0,-1,1.0,0.1795999999999367
291,18,0.5,0.0625,35.0,1,1.0,0.952199999999948
292,18,0.5,1.0,35.0,1,1.0,0.6032999999997628
293,18,0.5,0.0625,35.0,-1,0.0,0.6555000000000746
294,18,0.5,0.0625,-35.0,-1,1.0,2.403200000000197
295,18,0.5,1.0,35.0,1,1.0,0.5957999999998265
296,18,0.5,0.125,35.0,-1,0.0,2.356999999999971
297,18,0.5,0.125,-35.0,-1,1.0,0.9525000000001
298,18,0.5,0.0,35.0,-1,0.0,3.7970000000000255
299,18,0.5,0.25,35.0,1,1.0,0.4393000000000029
300,18,0.5,1.0,-35.0,-1,1.0,0.45040099999982885
301,18,0.5,1.0,35.0,1,1.0,0.5096000000000913
302,18,0.5,0.25,35.0,-1,0.0,0.6570999999999003
303,18,0.5,0.25,-35.0,-1,1.0,1.3130000000001019
304,18,0.5,1.0,35.0,1,1.0,0.48420099999998456
305,18,0.5,0.0,-35.0,-1,1.0,1.3464000000001306
306,18,0.5,0.0625,35.0,1,1.0,0.4475009999998747
307,18,0.5,0.0,-35.0,-1,1.0,3.0232999999998356
308,18,0.5,0.25,35.0,1,1.0,0.21090000000003783
309,18,0.5,0.25,-35.0,-1,1.0,0.8368000000002667
310,18,0.5,0.0625,-35.0,-1,1.0,1.5713009999999485
311,18,0.5,0.125,-35.0,1,0.0,0.30369999999993524
312,18,0.4,0.125,35.0,1,1.0,0.7348999999999251
313,18,0.5,1.0,35.0,1,1.0,0.6539000000000215
314,18,0.5,0.25,-35.0,-1,1.0,0.3119010000000344
315,18,0.5,0.25,-35.0,-1,1.0,2.077199999999948
316,18,0.5,0.0625,35.0,-1,0.0,1.4480999999998403
317,18,0.5,0.25,35.0,-1,0.0,2.1040999999997894
318,18,0.5,0.25,-35.0,-1,1.0,4.858400000000074
319,18,0.5,1.0,35.0,1,1.0,0.2542999999998301
320,18,0.5,1.0,35.0,1,1.0,0.46890000000007603
321,18,0.5,0.25,35.0,1,1.0,0.8044009999998707
322,18,0.5,0.25,-35.0,-1,1.0,0.591899999999896
323,18,0.5,0.0625,35.0,-1,0.0,3.144500999999991
324,18,0.5,0.25,35.0,1,1.0,0.22900000000004184
325,18,0.5,0.25,-35.0,1,0.0,2.3283000000001266
326,18,0.5,0.25,35.0,1,1.0,0.46919999999977335
327,18,0.5,0.125,-35.0,1,0.0,2.5450000000000728
328,18,0.7,0.125,35.0,-1,0.0,2.8694000000000415
329,18,0.5,1.0,35.0,1,1.0,0.1953009999999722
330,18,0.5,1.0,35.0,1,1.0,0.7695000000001073
331,18,0.5,0.0625,35.0,1,1.0,4.481899999999996
332,18,0.5,0.25,-35.0,-1,1.0,0.9597009999997681
333,18,0.5,1.0,-35.0,-1,1.0,2.208799999999883
334,18,0.5,0.0,35.0,1,1.0,6.116800000000012
335,18,0.5,1.0,-35.0,1,0.0,0.45250000000010004
336,18,0.5,0.25,35.0,1,1.0,0.42679999999995744
337,18,0.5,0.125,-35.0,-1,1.0,2.2457999999999174
338,18,0.5,1.0,35.0,1,1.0,3.84699999999998
339,18,0.5,0.0,-35.0,1,0.0,2.036100999999917
340,18,0.7,0.0,35.0,-1,0.0,0.9837999999997464
341,18,0.5,1.0,-35.0,-1,1.0,0.6798009999999977
342,18,0.5,0.125,-35.0,1,0.0,7.307499999999891
343,18,0.5,0.0,35.0,-1,0.0,9.223300000000108
344,18,0.5,0.0625,-35.0,1,0.0,6.087799999999788
345,18,0.5,0.125,-35.0,1,0.0,1.0871999999999389
346,18,0.6,0.125,35.0,1,1.0,3.371399999999994
347,18,0.5,1.0,-35.0,1,0.0,1.7607000000000426
348,18,0.7,1.0,-35.0,1,0.0,0.3083999999998923
349,18,0.7,1.0,35.0,1,1.0,1.5108009999999013
350,18,0.5,1.0,-35.0,-1,1.0,1.0186999999998534
351,18,0.5,1.0,-35.0,1,0.0,3.6376000000002477
352,18,0.5,0.0625,35.0,1,1.0,0.6686999999999443
353,18,0.5,0.125,35.0,1,1.0,0.4511999999999716
354,18,0.5,0.0625,35.0,-1,0.0,6.651800000000094
355,18,0.5,0.25,35.0,1,1.0,0.40469999999982065
356,18,0.5,1.0,-35.0,-1,1.0,0.5624000000002525
357,18,0.5,0.25,35.0,1,1.0,0.5680999999999585
358,18,0.5,0.125,-35.0,1,0.0,1.1723000000001775
359,18,0.5,0.0625,35.0,-1,0.0,4.568200000000161
360,18,0.5,0.125,35.0,-1,0.0,0.5894999999998163
361,18,0.5,0.0,-35.0,1,0.0,1.9785999999996875
362,18,0.5,0.125,-35.0,-1,1.0,1.8530009999999493
363,18,0.5,0.25,-35.0,-1,1.0,2.9054000000000997
364,18,0.5,1.0,35.0,1,1.0,0.5230999999998858
365,18,0.5,0.0625,-35.0,-1,1.0,3.475600000000213
366,18,0.5,0.0625,35.0,-1,0.0,2.4002000000000407
367,18,0.5,0.25,35.0,1,1.0,2.8092999999998938
368,18,0.5,0.0625,35.0,-1,0.0,3.55050099999994
369,18,0.5,0.0625,-35.0,-1,1.0,0.552599999999984
370,18,0.5,1.0,35.0,1,1.0,0.39059999999994943
371,18,0.5,1.0,35.0,1,1.0,0.6260999999999513
372,18,0.5,1.0,35.0,1,1.0,0.5536999999999352
373,18,0.5,1.0,-35.0,-1,1.0,5.0530999999998585
374,18,0.5,0.125,35.0,-1,0.0,1.4974999999999454
375,18,0.4,0.125,-35.0,-1,1.0,7.980099999999993
376,18,0.5,1.0,35.0,1,1.0,0.4545999999998003
377,18,0.5,0.125,-35.0,-1,1.0,2.643501000000242
378,18,0.5,0.25,35.0,-1,0.0,6.4646999999999935
379,18,0.5,0.125,35.0,1,1.0,0.7506000000000768
380,18,0.5,0.0625,-35.0,-1,1.0,1.4515010000000075
381,18,0.5,1.0,35.0,1,1.0,0.8739000000000487
382,18,0.5,0.25,-35.0,-1,1.0,0.2684999999999036
383,18,0.5,0.25,35.0,1,1.0,0.6476000000000113
384,18,0.5,0.0,35.0,-1,0.0,3.818599999999833
385,18,0.5,0.125,35.0,1,1.0,0.22099999999977626
386,18,0.5,0.125,35.0,-1,0.0,3.412499999999909
387,18,0.4,0.125,35.0,1,1.0,0.28149999999982356
388,18,0.5,1.0,-35.0,-1,1.0,0.2621999999998934
389,18,0.5,0.0625,35.0,1,1.0,0.8215009999998983
390,18,0.5,0.125,35.0,1,1.0,0.5354999999999563
391,18,0.5,0.0625,-35.0,1,0.0,1.051501000000144
392,18,0.5,0.125,-35.0,1,0.0,0.7889999999999873
393,18,0.5,0.25,35.0,1,1.0,1.0384999999998854
394,18,0.5,0.125,-35.0,-1,1.0,1.4590999999998076
395,18,0.5,0.125,-35.0,-1,1.0,5.251700000000028
396,18,0.5,0.125,35.0,1,1.0,0.4761000000000877
397,18,0.5,0.125,35.0,-1,0.0,1.0286000000000968
398,18,0.5,0.0625,35.0,1,1.0,0.439600000000155
399,18,0.5,0.125,-35.0,1,0.0,2.7686999999998534
400,18,0.5,0.125,-35.0,-1,1.0,0.753800000000183
401,18,0.5,1.0,-35.0,1,0.0,0.5289010000001326
402,18,0.5,0.125,-35.0,1,0.0,0.9365999999999985
403,18,0.6,0.125,-35.0,-1,1.0,3.3589999999999236
404,18,0.5,1.0,35.0,1,1.0,1.6835009999999784
405,18,0.5,0.0,35.0,1,1.0,5.9659999999998945
406,18,0.5,0.25,35.0,1,1.0,0.5074999999999363
407,18,0.5,0.0,35.0,1,1.0,3.4896000000001095
408,18,0.5,0.25,-35.0,-1,1.0,1.234499999999798
409,18,0.5,1.0,-35.0,-1,1.0,0.6598000000001321
410,18,0.5,0.0625,35.0,1,1.0,0.42080099999975573
411,18,0.5,0.25,35.0,1,1.0,0.7964999999999236
412,18,0.5,0.125,35.0,-1,0.0,1.3841999999999643
413,18,0.5,0.125,-35.0,-1,1.0,0.33989999999994325
414,18,0.5,1.0,35.0,1,1.0,0.794399999999996
415,18,0.5,0.0,-35.0,-1,1.0,3.070400999999947
416,18,0.5,0.25,-35.0,1,0.0,4.107999999999947
417,18,0.5,0.25,35.0,1,1.0,0.5302999999998974
418,18,0.5,1.0,35.0,1,1.0,0.48139999999989413
419,18,0.5,0.0625,35.0,-1,0.0,2.5838000000001102
420,18,0.5,0.0625,-35.0,-1,1.0,0.6553999999998723
421,18,0.5,0.0,35.0,1,1.0,0.30080099999986487
422,18,0.5,1.0,-35.0,1,0.0,0.30150000000003274
423,18,0.5,0.125,-35.0,-1,1.0,0.46440000000006876
424,18,0.5,0.0,-35.0,-1,1.0,0.5054009999998925
425,18,0.5,0.0625,-35.0,-1,1.0,1.4076000000000022
426,18,0.5,0.0625,-35.0,1,0.0,0.22530000000006112
427,18,0.5,0.125,35.0,-1,0.0,1.0813999999998032
428,18,0.4,0.125,35.0,1,1.0,0.7724000000000615
429,18,0.5,1.0,35.0,1,1.0,0.3145999999999276
430,18,0.5,0.25,35.0,1,1.0,0.7854999999999563
431,18,0.5,0.0625,-35.0,-1,1.0,4.561400000000049
432,18,0.5,0.0625,-35.0,-1,1.0,3.5491999999997006
433,18,0.5,0.25,-35.0,1,0.0,0.7184999999999491
434,18,0.5,0.25,35.0,1,1.0,0.4919000000002143
435,18,0.5,1.0,35.0,1,1.0,6.730299999999943
436,18,0.5,0.0625,-35.0,1,0.0,5.005699999999933
437,18,0.5,0.25,-35.0,-1,1.0,0.7400010000001203
438,18,0.5,0.125,35.0,1,1.0,2.7492010000000846
439,18,0.5,0.0625,-35.0,1,0.0,7.300099999999929
440,18,0.5,0.0625,-35.0,1,0.0,4.97630000000072
441,18,0.5,0.125,-35.0,1,0.0,2.4873010000005706
442,18,0.5,0.125,-35.0,1,0.0,3.4697000000005573
443,18,0.5,0.125,35.0,1,1.0,1.844100000000708
444,18,0.5,0.0625,-35.0,-1,1.0,0.9234010000004673
445,18,0.5,1.0,35.0,1,1.0,0.48750100000052043
446,18,0.5,0.125,35.0,1,1.0,5.923400000000129
447,18,0.5,1.0,-35.0,-1,1.0,1.4252000000001317
448,18,0.5,0.0,-35.0,1,0.0,0.9773010000003524
449,18,0.8,0.0,35.0,1,1.0,12.894501000000218
450,18,0.5,1.0,35.0,1,1.0,0.6242000000006556
451,18,0.5,0.125,35.0,1,1.0,11.515200000000277
452,18,0.5,0.125,-35.0,-1,1.0,1.3342999999999847
453,18,0.5,0.25,-35.0,-1,1.0,3.975300000000061
454,18,0.5,0.0625,35.0,1,1.0,13.994499999999789
455,18,0.5,0.125,35.0,1,1.0,0.6860000000001492
456,18,0.5,1.0,-35.0,-1,1.0,2.6251000000002023
457,18,0.5,0.0625,35.0,-1,0.0,12.256000000000313
458,18,0.5,0.125,35.0,1,1.0,7.918700000000172
459,18,0.5,0.125,-35.0,-1,1.0,5.346599999999853
460,18,0.5,0.0,35.0,-1,0.0,3.705699999999979
461,18,0.5,0.0,-35.0,1,0.0,4.253400000000056
462,18,0.5,0.0,-35.0,1,0.0,23.739300000000185
463,18,0.5,0.0625,-35.0,-1,1.0,24.5909000000006
464,18,0.5,0.25,-35.0,-1,1.0,1.7570000000005166
465,18,0.5,0.25,-35.0,-1,1.0,3.0012000000001535
466,18,0.5,1.0,-35.0,1,0.0,7.444700999999895
467,18,0.5,0.0625,-35.0,1,0.0,5.097500000000309
468,18,0.5,0.125,-35.0,1,0.0,2.3221000000003187
469,18,0.5,0.125,35.0,-1,0.0,17.894600000000082
470,18,0.5,0.0,-35.0,1,0.0,20.919000000000324
471,18,0.6,0.0,35.0,1,1.0,47.7786000000001
472,18,0.5,1.0,-35.0,-1,1.0,6.560900999999831
473,18,0.5,0.125,-35.0,-1,1.0,4.983101000000261
474,18,0.5,0.25,-35.0,-1,1.0,13.324300000000676
475,18,0.5,0.0625,35.0,1,1.0,1.3168000000005122
476,18,0.5,0.125,-35.0,1,0.0,8.854400000000169
477,18,0.5,0.0625,-35.0,-1,1.0,20.50720000000001
478,18,0.5,1.0,35.0,1,1.0,0.6886999999996988
479,18,0.5,0.25,35.0,1,1.0,0.39420100000052116
480,18,0.5,0.125,35.0,1,1.0,0.6452010000002701
481,18,0.5,0.25,35.0,1,1.0,1.3911010000001625
482,18,0.5,0.0625,-35.0,1,0.0,3.622100000000046
483,18,0.5,0.25,-35.0,1,0.0,0.4447000000004664
484,18,0.5,0.0,-35.0,1,0.0,12.325800000000072
485,18,0.5,0.25,35.0,1,1.0,0.4050999999999476
486,18,0.5,0.0625,35.0,1,1.0,0.38930000000027576
487,18,0.5,0.0625,35.0,1,1.0,0.5683000000003631
488,18,0.5,0.125,-35.0,1,0.0,0.5962000000004082
489,18,0.5,0.0625,-35.0,1,0.0,0.6320000000000618
490,18,0.5,0.25,35.0,1,1.0,0.44260100000064995
491,18,0.5,0.125,35.0,1,1.0,0.6455000000000837
492,18,0.5,0.0,-35.0,-1,1.0,0.4030000000002474
493,18,0.5,0.25,35.0,1,1.0,0.3322000000002845
494,18,0.5,0.25,35.0,1,1.0,0.5538000000005923
495,18,0.5,1.0,35.0,1,1.0,0.332300000000032
496,18,0.5,0.25,-35.0,-1,1.0,0.49980000000050495
497,18,0.5,0.125,-35.0,1,0.0,2.095800000000054
498,18,0.5,0.125,35.0,1,1.0,0.2436000000002423
499,18,0.5,0.0625,35.0,1,1.0,1.5492000000003827
1,19,0.5,0.25,-35.0,1,0.0,6.2174
2,19,0.5,0.0625,35.0,1,1.0,0.5004999999999988
3,19,0.5,0.125,35.0,1,1.0,0.42009900000000044
4,19,0.5,0.0625,-35.0,1,0.0,0.440099
5,19,0.5,0.25,-35.0,-1,1.0,4.954298999999999
6,19,0.5,0.25,-35.0,-1,1.0,0.9009990000000023
7,19,0.5,0.25,35.0,1,1.0,0.34939899999999824
8,19,0.5,0.125,35.0,1,1.0,0.6625000000000014
9,19,0.5,0.0625,35.0,1,1.0,0.3754990000000049
10,19,0.5,0.25,-35.0,-1,1.0,0.4163989999999913
11,19,0.5,0.25,-35.0,-1,1.0,1.0342989999999972
12,19,0.5,0.0625,-35.0,1,0.0,1.9399990000000003
13,19,0.5,0.125,35.0,1,1.0,0.6429990000000032
14,19,0.5,0.125,-35.0,-1,1.0,0.6942990000000009
15,19,0.5,0.25,-35.0,-1,1.0,0.500499000000012
16,19,0.5,0.125,35.0,1,1.0,0.507899000000009
17,19,0.5,0.0,-35.0,-1,1.0,0.9091990000000152
18,19,0.5,0.0625,-35.0,-1,1.0,0.8424990000000037
19,19,0.5,0.125,35.0,1,1.0,0.45219900000000735
20,19,0.5,0.125,35.0,1,1.0,0.5807999999999964
21,19,0.5,0.0625,-35.0,-1,1.0,2.7683990000000023
22,19,0.5,1.0,35.0,1,1.0,0.37509900000000584
23,19,0.5,0.0625,-35.0,-1,1.0,2.8967990000000157
24,19,0.5,0.25,35.0,1,1.0,0.3246989999999954
25,19,0.5,0.25,-35.0,-1,1.0,3.4160990000000027
26,19,0.5,1.0,-35.0,-1,1.0,0.504499000000024
27,19,0.5,0.25,-35.0,-1,1.0,34.47049900000002
28,19,0.5,0.0,-35.0,-1,1.0,9.283398999999974
29,19,0.5,1.0,-35.0,-1,1.0,0.3467990000000043
30,19,0.5,0.125,-35.0,-1,1.0,1.6745990000000006
31,19,0.5,1.0,-35.0,-1,1.0,3.974998999999997
32,19,0.5,0.125,35.0,1,1.0,0.8989990000000034
33,19,0.5,1.0,35.0,1,1.0,0.5095990000000086
34,19,0.5,0.125,-35.0,-1,1.0,4.803899000000001
35,19,0.5,0.0625,35.0,-1,0.0,0.9794989999999757
36,19,0.5,0.0,-35.0,-1,1.0,2.7543999999999755
37,19,0.5,1.0,35.0,1,1.0,0.45999899999998206
38,19,0.5,0.0,35.0,1,1.0,0.8775989999999751
39,19,0.5,0.125,-35.0,-1,1.0,1.9014990000000012
40,19,0.5,0.0625,-35.0,1,0.0,3.2657990000000154
41,19,0.5,0.25,-35.0,-1,1.0,0.4239989999999807
42,19,0.5,1.0,35.0,1,1.0,0.3024999999999807
43,19,0.5,1.0,35.0,1,1.0,0.4676990000000103
44,19,0.5,0.125,-35.0,-1,1.0,4.393899000000005
45,19,0.5,1.0,-35.0,-1,1.0,1.8575989999999933
46,19,0.5,0.125,35.0,-1,0.0,2.535698999999994
47,19,0.5,0.125,35.0,1,1.0,0.6494989999999916
48,19,0.5,0.0625,35.0,1,1.0,1.6152989999999932
49,19,0.5,0.125,-35.0,1,0.0,0.3805990000000179
50,19,0.5,0.0625,35.0,1,1.0,0.5524990000000116
51,19,0.5,1.0,-35.0,-1,1.0,1.6046990000000392
52,19,0.5,0.0,35.0,-1,0.0,2.1616989999999987
53,19,0.5,0.25,35.0,1,1.0,0.35119900000000825
54,19,0.5,1.0,-35.0,-1,1.0,1.1734990000000494
55,19,0.5,0.0625,-35.0,-1,1.0,0.6954990000000407
56,19,0.5,1.0,-35.0,-1,1.0,0.6504990000000248
57,19,0.5,0.125,35.0,1,1.0,3.076799000000051
58,19,0.5,0.125,35.0,1,1.0,0.4262990000000286
59,19,0.5,1.0,-35.0,-1,1.0,0.4676000000000613
60,19,0.5,0.25,35.0,1,1.0,0.40250000000003183
61,19,0.5,1.0,-35.0,-1,1.0,0.1804000000000201
62,19,0.5,0.25,-35.0,-1,1.0,2.6256989999999973
63,19,0.5,0.125,35.0,1,1.0,5.775498999999968
64,19,0.5,0.25,-35.0,-1,1.0,1.3049990000000093
65,19,0.5,0.0625,35.0,1,1.0,2.1844990000000166
66,19,0.5,0.0,-35.0,1,0.0,0.4957989999999768
67,19,0.5,0.0625,-35.0,-1,1.0,0.5438990000000103
68,19,0.5,0.0625,-35.0,-1,1.0,0.6810000000000969
69,19,0.5,0.25,35.0,-1,0.0,0.5347990000000777
70,19,0.5,0.125,35.0,-1,0.0,0.17350000000004684
71,19,0.5,0.125,35.0,1,1.0,0.3267990000000509
72,19,0.5,1.0,35.0,1,1.0,0.40339899999997897
73,19,0.5,0.25,35.0,1,1.0,0.46839900000003354
74,19,0.5,0.0625,-35.0,1,0.0,0.5065989999999942
75,19,0.5,0.25,-35.0,-1,1.0,0.2787990000000491
76,19,0.5,0.0625,35.0,1,1.0,0.3274990000000457
77,19,0.5,1.0,-35.0,-1,1.0,0.7540989999999965
78,19,0.5,0.25,-35.0,-1,1.0,4.828899000000035
79,19,0.5,0.25,-35.0,-1,1.0,7.704098999999985
80,19,0.5,0.125,-35.0,1,0.0,0.9957990000000336
81,19,0.5,0.125,35.0,1,1.0,1.087898999999993
82,19,0.5,0.25,-35.0,1,0.0,16.01339900000005
83,19,0.5,0.125,35.0,1,1.0,0.8598990000000413
84,19,0.5,0.25,-35.0,-1,1.0,0.8374990000000366
85,19,0.5,1.0,-35.0,-1,1.0,2.495400000000018
86,19,0.5,0.25,-35.0,-1,1.0,2.252499000000057
87,19,0.5,0.125,-35.0,-1,1.0,0.452399000000014
88,19,0.5,0.0625,35.0,1,1.0,6.400599
89,19,0.5,1.0,-35.0,-1,1.0,1.2027990000000273
90,19,0.5,0.125,-35.0,-1,1.0,0.6938990000000445
91,19,0.5,1.0,-35.0,-1,1.0,0.5176000000000158
92,19,0.5,1.0,35.0,1,1.0,0.4789989999999875
93,19,0.5,0.25,35.0,1,1.0,2.919599000000005
94,19,0.5,0.25,35.0,1,1.0,0.5701990000000023
95,19,0.5,1.0,-35.0,-1,1.0,3.6899990000000003
96,19,0.5,0.25,35.0,1,1.0,0.5635990000000106
97,19,0.5,1.0,-35.0,-1,1.0,3.042898999999977
98,19,0.5,1.0,-35.0,-1,1.0,1.363900000000001
99,19,0.5,1.0,35.0,1,1.0,1.403799000000049
100,19,0.5,0.25,35.0,1,1.0,0.38460000000003447
101,19,0.5,0.125,-35.0,-1,1.0,0.5382999999999925
102,19,0.5,1.0,-35.0,-1,1.0,1.0173990000000117
103,19,0.5,0.0625,-35.0,-1,1.0,0.5938000000000443
104,19,0.5,0.0,-35.0,-1,1.0,3.3877989999999727
105,19,0.5,0.125,35.0,1,1.0,0.20650000000000546
106,19,0.5,0.25,-35.0,-1,1.0,0.6582999999999402
107,19,0.5,0.25,35.0,1,1.0,5.1605990000000475
108,19,0.5,1.0,35.0,1,1.0,0.4175990000001093
109,19,0.5,0.0625,35.0,-1,0.0,1.1670990000000074
110,19,0.5,0.0,-35.0,1,0.0,0.41449899999997797
111,19,0.5,0.25,35.0,1,1.0,0.5313989999999649
112,19,0.5,0.125,35.0,1,1.0,8.360899000000018
113,19,0.5,0.125,35.0,1,1.0,0.5707990000000791
114,19,0.5,0.125,-35.0,-1,1.0,0.18869900000004236
115,19,0.5,0.0625,-35.0,-1,1.0,0.6536990000000742
116,19,0.5,1.0,-35.0,-1,1.0,2.722299000000021
117,19,0.5,0.125,-35.0,-1,1.0,0.49029900000005
118,19,0.5,0.25,35.0,1,1.0,0.28730000000007294
119,19,0.5,0.25,-35.0,-1,1.0,0.3042990000001282
120,19,0.5,0.0625,-35.0,1,0.0,0.353699000000006
121,19,0.5,0.0,35.0,-1,0.0,3.2032990000000154
122,19,0.4,0.0,35.0,1,1.0,0.5233990000000404
123,19,0.5,1.0,-35.0,-1,1.0,0.24869900000010148
124,19,0.5,1.0,35.0,1,1.0,0.30560000000002674
125,19,0.5,0.0,35.0,1,1.0,3.5361990000000105
126,19,0.5,0.25,35.0,1,1.0,0.14839900000004036
127,19,0.5,0.0,-35.0,1,0.0,6.667298999999957
128,19,0.5,0.25,-35.0,-1,1.0,0.3861989999999196
129,19,0.5,0.0,-35.0,-1,1.0,2.560799000000088
130,19,0.5,0.25,-35.0,-1,1.0,0.6512000000000171
131,19,0.5,0.0625,35.0,1,1.0,0.27529900000013185
132,19,0.5,0.25,35.0,1,1.0,0.26310000000012224
133,19,0.5,0.0,-35.0,-1,1.0,2.934199000000035
134,19,0.5,1.0,35.0,1,1.0,1.0745990000000347
135,19,0.5,1.0,-35.0,-1,1.0,4.298699000000056
136,19,0.5,0.125,35.0,1,1.0,0.4592000000000098
137,19,0.5,0.25,35.0,1,1.0,0.41089899999997215
138,19,0.5,0.0625,35.0,1,1.0,0.9533989999999903
139,19,0.5,0.0625,-35.0,1,0.0,0.38619900000003327
140,19,0.7,0.0625,-35.0,-1,1.0,0.6798989999999776
141,19,0.5,1.0,-35.0,-1,1.0,0.4665989999999738
142,19,0.5,0.0625,35.0,1,1.0,1.490000000000009
143,19,0.5,1.0,-35.0,-1,1.0,1.0063989999999876
144,19,0.5,0.25,-35.0,-1,1.0,2.3385990000000447
145,19,0.5,1.0,35.0,1,1.0,0.2991989999999305
146,19,0.5,0.0625,-35.0,-1,1.0,1.4950000000000045
147,19,0.5,1.0,35.0,1,1.0,0.31320000000005166
148,19,0.5,0.125,35.0,1,1.0,0.43519900000001144
149,19,0.5,0.0625,35.0,1,1.0,0.6008000000000493
150,19,0.5,0.0625,-35.0,-1,1.0,0.501498999999967
151,19,0.5,1.0,-35.0,-1,1.0,0.43859900000006746
152,19,0.5,0.0625,35.0,1,1.0,0.4016990000001215
153,19,0.5,0.125,35.0,1,1.0,0.5606989999999996
154,19,0.5,1.0,35.0,1,1.0,0.32189900000003036
155,19,0.5,0.0625,35.0,-1,0.0,0.33629900000005364
156,19,0.5,0.125,35.0,1,1.0,0.613700000000108
157,19,0.5,1.0,35.0,1,1.0,0.3104990000000498
158,19,0.5,0.0,-35.0,1,0.0,2.0441990000000487
159,19,0.5,0.125,35.0,1,1.0,0.20629999999994197
160,19,0.5,0.25,-35.0,1,0.0,1.721400000000017
161,19,0.5,0.0,35.0,-1,0.0,2.8173000000000457
162,19,0.5,0.25,-35.0,-1,1.0,2.5651000000000295
163,19,0.5,0.0,35.0,1,1.0,0.19010000000002947
164,19,0.5,0.0,-35.0,1,0.0,1.3878990000000613
165,19,0.5,0.25,-35.0,-1,1.0,0.2541990000000851
166,19,0.5,0.125,-35.0,-1,1.0,0.5361990000000105
167,19,0.5,0.125,-35.0,-1,1.0,0.6276990000000069
168,19,0.5,0.25,-35.0,-1,1.0,0.8637990000000855
169,19,0.5,0.125,35.0,1,1.0,3.125099000000091
170,19,0.5,1.0,35.0,1,1.0,0.391599000000042
171,19,0.5,0.25,35.0,1,1.0,0.8430989999999383
172,19,0.5,0.0,35.0,1,1.0,0.9722990000000209
173,19,0.5,1.0,35.0,1,1.0,0.36219900000003236
174,19,0.5,0.25,-35.0,1,0.0,2.452899000000002
175,19,0.5,0.0625,-35.0,-1,1.0,0.901299999999992
176,19,0.5,0.25,35.0,1,1.0,0.5651990000000069
177,19,0.5,0.25,-35.0,-1,1.0,0.401299999999992
178,19,0.5,0.0,35.0,-1,0.0,0.4056989999999132
179,19,0.5,0.125,-35.0,-1,1.0,2.1740989999999556
180,19,0.5,0.125,-35.0,-1,1.0,0.7880999999999858
181,19,0.5,0.0625,-35.0,-1,1.0,0.7492999999999483
182,19,0.5,0.25,-35.0,-1,1.0,0.8533990000000813
183,19,0.5,1.0,35.0,1,1.0,1.9040989999999738
184,19,0.5,0.125,-35.0,-1,1.0,0.5060990000000629
185,19,0.5,1.0,35.0,1,1.0,0.3189990000000762
186,19,0.5,0.125,-35.0,-1,1.0,1.05929900000001
187,19,0.5,1.0,35.0,1,1.0,0.4300990000000411
188,19,0.5,0.25,-35.0,-1,1.0,0.09359900000004018
189,19,0.5,0.25,-35.0,-1,1.0,0.41319899999996323
190,19,0.5,0.125,-35.0,1,0.0,0.1539989999999989
191,19,0.5,0.125,35.0,1,1.0,0.5302989999998999
192,19,0.5,1.0,-35.0,-1,1.0,3.5770990000000893
193,19,0.5,0.25,35.0,1,1.0,0.632099000000153
194,19,0.5,0.125,35.0,1,1.0,0.5065990000000511
195,19,0.5,0.0625,-35.0,-1,1.0,1.2171990000000505
196,19,0.5,0.125,35.0,-1,0.0,0.34639900000001944
197,19,0.5,0.125,35.0,-1,0.0,0.5373990000000504
198,19,0.5,0.0625,35.0,1,1.0,2.9363990000000513
199,19,0.5,0.125,35.0,1,1.0,0.2769990000000462
200,19,0.5,1.0,35.0,1,1.0,0.29719999999997526
201,19,0.5,0.0,-35.0,-1,1.0,0.9010990000000447
202,19,0.5,0.25,-35.0,1,0.0,5.773199000000091
203,19,0.5,0.125,-35.0,-1,1.0,0.643999000000008
204,19,0.5,0.0625,35.0,1,1.0,0.43200000000001637
205,19,0.5,0.0625,35.0,-1,0.0,2.628798999999958
206,19,0.5,0.0625,35.0,-1,0.0,2.27359899999999
207,19,0.5,0.125,-35.0,-1,1.0,0.4232990000000427
208,19,0.5,1.0,-35.0,-1,1.0,0.3793990000001486
209,19,0.5,0.125,-35.0,-1,1.0,0.40399999999999636
210,19,0.5,0.0625,35.0,1,1.0,0.3129989999999907
211,19,0.5,1.0,35.0,1,1.0,0.5659990000000334
212,19,0.5,0.0,35.0,1,1.0,0.2889990000001035
213,19,0.5,1.0,35.0,1,1.0,0.2478000000000975
214,19,0.5,1.0,-35.0,-1,1.0,0.47139900000001944
215,19,0.5,0.0,35.0,-1,0.0,0.5613990000000513
216,19,0.5,0.25,-35.0,-1,1.0,0.33399899999994886
217,19,0.5,0.25,-35.0,-1,1.0,0.2919990000001462
218,19,0.5,0.25,35.0,1,1.0,0.09389900000007856
219,19,0.5,1.0,-35.0,1,0.0,0.2219990000000962
220,19,0.5,0.25,35.0,1,1.0,0.4239990000000944
221,19,0.5,0.25,-35.0,-1,1.0,0.39899900000000343
222,19,0.5,0.125,-35.0,-1,1.0,0.49099900000010166
223,19,0.5,1.0,-35.0,-1,1.0,0.31849899999997433
224,19,0.5,0.125,35.0,1,1.0,3.897899000000052
225,19,0.5,1.0,-35.0,-1,1.0,0.29539900000008856
226,19,0.5,0.125,-35.0,-1,1.0,0.49109900000007656
227,19,0.5,0.125,-35.0,-1,1.0,0.6090999999998985
228,19,0.5,1.0,35.0,1,1.0,0.49129900000002635
229,19,0.5,1.0,35.0,1,1.0,0.2621990000000096
230,19,0.5,0.25,35.0,1,1.0,0.3113989999999376
231,19,0.5,0.0,35.0,1,1.0,0.27229899999974805
232,19,0.5,0.0,35.0,-1,0.0,0.264899000000014
233,19,0.5,0.0625,35.0,1,1.0,0.7627990000000864
234,19,0.5,1.0,35.0,1,1.0,4.138298999999961
235,19,0.5,0.0625,-35.0,-1,1.0,0.3793989999999212
236,19,0.5,0.0,-35.0,-1,1.0,0.4719990000000962
237,19,0.5,0.125,-35.0,1,0.0,1.9694990000000416
238,19,0.5,0.0625,-35.0,-1,1.0,0.4654000000000451
239,19,0.5,0.125,35.0,1,1.0,0.5762989999998354
240,19,0.5,0.125,35.0,-1,0.0,2.0289000000000215
241,19,0.5,0.0625,35.0,1,1.0,0.7698989999998958
242,19,0.5,0.0625,35.0,1,1.0,0.47239900000022317
243,19,0.5,1.0,-35.0,-1,1.0,2.9565990000000966
244,19,0.5,0.125,35.0,1,1.0,2.0159989999999652
245,19,0.5,0.25,35.0,1,1.0,0.42029900000011367
246,19,0.5,0.125,-35.0,-1,1.0,0.2927999999999429
247,19,0.5,0.125,-35.0,-1,1.0,0.2805989999999383
248,19,0.5,0.125,-35.0,-1,1.0,0.14289899999994304
249,19,0.5,0.0,-35.0,1,0.0,0.5278990000001613
250,19,0.5,0.0,35.0,-1,0.0,0.5262990000001082
251,19,0.5,1.0,-35.0,-1,1.0,0.32789900000011585
252,19,0.5,0.125,-35.0,-1,1.0,1.5399989999998525
253,19,0.5,0.25,35.0,1,1.0,0.41449999999986176
254,19,0.5,0.0625,-35.0,-1,1.0,1.7199989999999161
255,19,0.5,0.125,35.0,1,1.0,0.5210999999999331
256,19,0.5,1.0,-35.0,-1,1.0,1.340298999999959
257,19,0.5,0.25,35.0,1,1.0,0.4011990000001333
258,19,0.5,0.0,35.0,-1,0.0,3.866999000000078
259,19,0.5,0.25,35.0,1,1.0,0.3413990000001377
260,19,0.5,1.0,35.0,1,1.0,0.25379900000007183
261,19,0.5,1.0,35.0,1,1.0,0.15839900000014495
262,19,0.5,1.0,-35.0,-1,1.0,3.814198999999917
263,19,0.5,0.0,35.0,1,1.0,1.3550990000001093
264,19,0.5,0.25,-35.0,-1,1.0,0.37789999999995416
265,19,0.5,0.0625,35.0,1,1.0,5.11529900000005
266,19,0.5,0.125,35.0,1,1.0,4.03129899999999
267,19,0.5,0.125,35.0,1,1.0,0.37239900000008674
268,19,0.5,0.125,35.0,1,1.0,0.35819900000024063
269,19,0.5,0.0,-35.0,1,0.0,0.41239900000005036
270,19,0.5,0.125,-35.0,-1,1.0,0.7281989999999041
271,19,0.5,0.0625,35.0,1,1.0,0.8691989999999805
272,19,0.5,0.0,-35.0,-1,1.0,0.6917989999999463
273,19,0.5,1.0,-35.0,-1,1.0,0.5627990000000409
274,19,0.5,0.0625,-35.0,-1,1.0,0.47880000000009204
275,19,0.5,0.0625,35.0,1,1.0,0.3795990000000984
276,19,0.5,1.0,-35.0,-1,1.0,5.825399999999945
277,19,0.5,1.0,35.0,1,1.0,0.3700989999997546
278,19,0.5,0.0,-35.0,-1,1.0,1.2757990000002337
279,19,0.5,1.0,-35.0,-1,1.0,0.49989899999991394
280,19,0.5,0.25,-35.0,-1,1.0,1.3790989999999965
281,19,0.5,0.0625,35.0,1,1.0,1.8100990000000365
282,19,0.5,0.125,-35.0,-1,1.0,0.8626990000002479
283,19,0.5,0.0,35.0,-1,0.0,0.3435990000000402
284,19,0.5,0.0625,-35.0,-1,1.0,0.45610000000010587
285,19,0.5,0.125,-35.0,-1,1.0,0.5507990000000973
286,19,0.5,0.0625,35.0,-1,0.0,0.4861990000001697
287,19,0.2,0.0625,-35.0,-1,1.0,0.6039989999999307
288,19,0.5,1.0,35.0,1,1.0,1.0697989999998754
289,19,0.5,0.0625,-35.0,-1,1.0,1.5997990000000755
290,19,0.5,1.0,-35.0,-1,1.0,0.35659899999996014
291,19,0.5,0.0625,-35.0,-1,1.0,3.734099000000242
292,19,0.5,1.0,35.0,1,1.0,0.4499990000001617
293,19,0.5,1.0,-35.0,-1,1.0,2.42779900000005
294,19,0.5,0.125,-35.0,-1,1.0,0.44699900000000525
295,19,0.5,0.25,-35.0,-1,1.0,1.4380989999999656
296,19,0.5,0.125,35.0,1,1.0,0.357099000000062
297,19,0.5,0.125,-35.0,-1,1.0,0.46129900000005364
298,19,0.5,0.125,35.0,1,1.0,0.3271989999998368
299,19,0.5,0.125,35.0,1,1.0,3.788099000000102
300,19,0.5,0.0625,-35.0,-1,1.0,0.23389900000006492
301,19,0.5,0.0625,35.0,-1,0.0,0.3584990000001653
302,19,0.5,0.125,35.0,1,1.0,0.4641990000002352
303,19,0.5,0.0,-35.0,-1,1.0,0.3387990000001082
304,19,0.5,0.125,-35.0,1,0.0,0.2242989999999736
305,19,0.5,0.125,-35.0,-1,1.0,0.27870000000007167
306,19,0.5,1.0,35.0,1,1.0,0.29789899999991576
307,19,0.5,0.125,35.0,1,1.0,0.1392990000001646
308,19,0.5,0.25,35.0,1,1.0,0.3246990000000096
309,19,0.5,0.0625,-35.0,-1,1.0,12.902299000000085
310,19,0.5,0.0625,35.0,1,1.0,0.3716990000000351
311,19,0.5,0.0625,35.0,1,1.0,0.7660999999998239
312,19,0.5,0.125,-35.0,1,0.0,0.35170000000016444
313,19,0.5,0.0625,35.0,-1,0.0,1.8795000000000073
314,19,0.5,0.25,-35.0,-1,1.0,1.241899999999987
315,19,0.5,0.0625,-35.0,1,0.0,0.3132989999999154
316,19,0.5,0.0625,-35.0,-1,1.0,0.6587999999999283
317,19,0.5,0.25,35.0,1,1.0,0.40629899999999
318,19,0.5,0.125,-35.0,1,0.0,0.17569899999989502
319,19,0.6,0.125,35.0,1,1.0,0.425698999999895
320,19,0.5,1.0,-35.0,-1,1.0,0.3166989999999714
321,19,0.5,1.0,35.0,1,1.0,0.27919900000006237
322,19,0.5,0.125,35.0,1,1.0,0.8340989999999238
323,19,0.5,1.0,-35.0,1,0.0,0.38599900000008347
324,19,0.5,0.25,-35.0,1,0.0,0.7304990000000089
325,19,0.5,0.25,-35.0,-1,1.0,0.2861990000001242
326,19,0.5,0.0625,-35.0,-1,1.0,0.4103989999998703
327,19,0.5,0.125,35.0,1,1.0,0.2727990000000773
328,19,0.5,1.0,-35.0,-1,1.0,0.12730000000010477
329,19,0.5,0.125,-35.0,1,0.0,2.7230990000000475
330,19,0.5,0.0625,-35.0,-1,1.0,0.3872999999998683
331,19,0.5,1.0,-35.0,-1,1.0,0.3766000000000531
332,19,0.5,1.0,-35.0,-1,1.0,0.34069899999985864
333,19,0.5,0.25,-35.0,-1,1.0,0.27670000000011896
334,19,0.5,0.0625,35.0,1,1.0,0.2977000000000771
335,19,0.5,1.0,-35.0,1,0.0,0.35359999999991487
336,19,0.5,0.0625,-35.0,-1,1.0,0.4946990000000824
337,19,0.5,0.25,-35.0,-1,1.0,0.350599000000102
338,19,0.5,1.0,35.0,1,1.0,0.2645990000000893
339,19,0.5,0.0625,35.0,-1,0.0,0.3137989999997899
340,19,0.3,0.0625,-35.0,-1,1.0,0.5149989999999889
341,19,0.5,1.0,35.0,1,1.0,0.30399899999997615
342,19,0.5,0.0625,35.0,1,1.0,1.0948989999999412
343,19,0.5,0.0625,35.0,1,1.0,0.9876990000000205
344,19,0.5,0.125,35.0,1,1.0,0.2885989999999765
345,19,0.5,0.0625,35.0,1,1.0,3.650998999999956
346,19,0.5,0.125,-35.0,-1,1.0,0.5286989999999605
347,19,0.5,0.0,35.0,1,1.0,1.7411990000000515
348,19,0.5,0.25,-35.0,-1,1.0,2.0488990000001195
349,19,0.5,1.0,35.0,1,1.0,0.1978990000000067
350,19,0.5,1.0,-35.0,1,0.0,5.975599000000102
351,19,0.5,0.0625,-35.0,1,0.0,0.32169999999996435
352,19,0.5,0.0625,35.0,1,1.0,1.8965990000001511
353,19,0.5,0.0625,-35.0,-1,1.0,1.9885990000002494
354,19,0.5,1.0,-35.0,-1,1.0,0.2759990000001835
355,19,0.5,0.25,35.0,1,1.0,0.4285989999998492
356,19,0.5,1.0,-35.0,-1,1.0,0.29960000000005493
357,19,0.5,1.0,35.0,1,1.0,0.35199899999997797
358,19,0.5,0.25,35.0,1,1.0,3.5495989999997164
359,19,0.5,1.0,-35.0,-1,1.0,0.28219899999999143
360,19,0.5,0.25,35.0,1,1.0,0.5432989999999336
361,19,0.5,0.0625,35.0,1,1.0,1.1656990000001315
362,19,0.5,0.0625,35.0,1,1.0,0.3466990000001715
363,19,0.5,0.0625,-35.0,1,0.0,0.59579900000017
364,19,0.5,0.25,-35.0,-1,1.0,0.4675999999999476
365,19,0.5,0.25,-35.0,-1,1.0,0.4495990000000347
366,19,0.5,0.25,35.0,1,1.0,0.3668990000001031
367,19,0.5,0.0625,35.0,1,1.0,0.4027990000001864
368,19,0.5,1.0,-35.0,-1,1.0,0.2605990000001839
369,19,0.5,0.125,35.0,1,1.0,1.042999000000009
370,19,0.5,0.125,-35.0,-1,1.0,0.7445989999998801
371,19,0.5,0.125,-35.0,1,0.0,3.9598989999999503
372,19,0.5,0.0625,-35.0,-1,1.0,2.2675990000002457
373,19,0.5,0.25,-35.0,-1,1.0,0.323598999999831
374,19,0.5,0.0625,-35.0,-1,1.0,2.2078989999999976
375,19,0.5,0.125,35.0,1,1.0,0.5569000000000415
376,19,0.5,1.0,-35.0,-1,1.0,0.3285000000000764
377,19,0.5,0.0625,-35.0,1,0.0,0.42039900000008856
378,19,0.5,0.125,-35.0,-1,1.0,0.31799900000009984
379,19,0.5,1.0,35.0,1,1.0,0.2604989999999816
380,19,0.5,0.0,-35.0,-1,1.0,2.34479999999985
381,19,0.5,0.25,35.0,1,1.0,0.24749900000006164
382,19,0.5,0.25,-35.0,-1,1.0,0.3815990000000511
383,19,0.5,0.125,-35.0,-1,1.0,0.670898999999963
384,19,0.5,0.25,35.0,1,1.0,0.4552000000001044
385,19,0.5,0.25,35.0,1,1.0,1.377599999999802
386,19,0.5,1.0,-35.0,-1,1.0,0.38190000000008695
387,19,0.5,1.0,35.0,1,1.0,0.4377990000000409
388,19,0.5,0.25,-35.0,1,0.0,2.225799000000052
389,19,0.6,0.25,-35.0,-1,1.0,0.37469899999996414
390,19,0.5,1.0,35.0,1,1.0,0.21559899999988374
391,19,0.5,0.125,-35.0,1,0.0,0.7615000000002965
392,19,0.5,0.125,35.0,1,1.0,1.0194989999999962
393,19,0.5,0.0625,35.0,-1,0.0,0.7884990000000016
394,19,0.5,0.0625,-35.0,1,0.0,3.3826990000002297
395,19,0.5,0.125,35.0,1,1.0,5.588598999999931
396,19,0.5,0.0625,35.0,1,1.0,0.373499000000038
397,19,0.5,0.25,35.0,1,1.0,0.26900000000000546
398,19,0.5,0.0625,-35.0,-1,1.0,0.8533990000003087
399,19,0.5,0.0,-35.0,1,0.0,3.282498999999916
400,19,0.5,0.0625,35.0,-1,0.0,0.5268000000000939
401,19,0.5,0.0,-35.0,-1,1.0,2.769298999999819
402,19,0.5,1.0,35.0,1,1.0,0.1435989999999947
403,19,0.5,0.25,-35.0,-1,1.0,2.0894989999999325
404,19,0.5,0.125,-35.0,-1,1.0,5.270398999999998
405,19,0.5,1.0,35.0,1,1.0,0.4563989999999194
406,19,0.5,0.125,35.0,1,1.0,0.6672989999999572
407,19,0.5,0.125,35.0,1,1.0,0.476399999999785
408,19,0.5,0.125,-35.0,-1,1.0,2.1940989999998237
409,19,0.5,0.125,-35.0,-1,1.0,0.5633990000001177
410,19,0.5,0.0,35.0,-1,0.0,0.2642990000001646
411,19,0.5,0.0625,35.0,1,1.0,0.8034989999998743
412,19,0.5,0.125,-35.0,-1,1.0,1.0078989999999521
413,19,0.5,0.0,-35.0,1,0.0,0.2704989999999725
414,19,0.5,0.0,-35.0,-1,1.0,0.748098999999911
415,19,0.5,1.0,35.0,1,1.0,0.3073990000000322
416,19,0.5,1.0,35.0,1,1.0,0.5249999999998636
417,19,0.5,0.0625,-35.0,-1,1.0,0.46739900000011403
418,19,0.5,1.0,35.0,1,1.0,0.2384990000000471
419,19,0.5,0.125,35.0,-1,0.0,0.9575990000000729
420,19,0.5,0.0625,35.0,1,1.0,0.6752990000002228
421,19,0.5,0.25,-35.0,1,0.0,9.977798999999777
422,19,0.5,0.25,35.0,1,1.0,0.5353990000000977
423,19,0.5,0.125,-35.0,-1,1.0,3.581299000000172
424,19,0.5,0.25,-35.0,-1,1.0,0.37639899999999216
425,19,0.5,0.25,35.0,1,1.0,0.8083999999998923
426,19,0.5,0.0625,-35.0,-1,1.0,0.819199000000026
427,19,0.5,1.0,35.0,1,1.0,0.27159999999980755
428,19,0.5,0.25,35.0,1,1.0,0.3425990000000638
429,19,0.5,0.0625,-35.0,-1,1.0,3.608500000000049
430,19,0.5,1.0,-35.0,-1,1.0,0.3164990000000216
431,19,0.5,0.125,-35.0,-1,1.0,0.6818989999999303
432,19,0.5,0.125,35.0,1,1.0,1.1062999999999192
433,19,0.5,0.125,-35.0,-1,1.0,1.46229900000003
434,19,0.5,0.25,35.0,1,1.0,0.30339900000012676
435,19,0.5,0.25,-35.0,-1,1.0,0.32569899999998597
436,19,0.5,0.125,35.0,1,1.0,0.41739899999993213
437,19,0.5,1.0,35.0,1,1.0,0.3890989999999874
438,19,0.5,0.0,-35.0,-1,1.0,1.1668990000000576
439,19,0.5,0.0625,-35.0,1,0.0,0.41929899999990994
440,19,0.5,0.0625,35.0,1,1.0,0.34389899999996487
441,19,0.5,0.25,35.0,1,1.0,2.6063990000002377
442,19,0.5,0.0,-35.0,1,0.0,1.8202989999999772
443,19,0.5,0.25,-35.0,-1,1.0,0.5063990000001013
444,19,0.5,0.25,35.0,1,1.0,0.29439899999988484
445,19,0.5,0.25,35.0,1,1.0,3.25309900000002
446,19,0.5,0.25,35.0,1,1.0,0.37139899999965564
447,19,0.5,1.0,-35.0,-1,1.0,3.4465989999998783
448,19,0.5,0.25,-35.0,-1,1.0,0.41129899999987174
449,19,0.5,0.125,-35.0,-1,1.0,0.6435999999998785
450,19,0.5,0.25,-35.0,1,0.0,0.16129999999975553
451,19,0.5,0.0625,35.0,-1,0.0,0.43029900000010457
452,19,0.5,0.125,-35.0,1,0.0,0.34139900000036505
453,19,0.5,0.125,35.0,1,1.0,0.647298999999748
454,19,0.5,0.0625,-35.0,1,0.0,0.43840000000000146
455,19,0.5,0.0625,35.0,1,1.0,0.23059899999952904
456,19,0.5,0.125,35.0,1,1.0,1.738299999999981
457,19,0.5,0.0625,35.0,1,1.0,0.5306989999999132
458,19,0.5,0.0625,-35.0,-1,1.0,0.6052989999998317
459,19,0.5,0.125,-35.0,-1,1.0,0.42429900000024645
460,19,0.5,0.25,35.0,1,1.0,0.7988989999998921
461,19,0.5,0.0625,35.0,1,1.0,3.631198999999924
462,19,0.5,0.25,-35.0,-1,1.0,0.42929899999990084
463,19,0.5,0.0625,-35.0,-1,1.0,2.464599000000362
464,19,0.5,0.25,-35.0,-1,1.0,0.5992989999999736
465,19,0.5,1.0,35.0,1,1.0,0.3814990000000762
466,19,0.5,0.125,-35.0,-1,1.0,0.8962989999999991
467,19,0.5,0.0625,-35.0,-1,1.0,3.0416989999998805
468,19,0.5,0.125,-35.0,-1,1.0,0.8558990000001359
469,19,0.5,1.0,35.0,1,1.0,0.3317000000001826
470,19,0.5,0.125,35.0,1,1.0,1.7294990000000325
471,19,0.5,1.0,35.0,1,1.0,0.3854999999998654
472,19,0.5,0.25,-35.0,-1,1.0,0.2732989999999518
473,19,0.5,0.125,35.0,1,1.0,0.355399000000034
474,19,0.5,0.125,35.0,1,1.0,1.9030989999996564
475,19,0.5,0.125,35.0,1,1.0,0.4855999999999767
476,19,0.5,1.0,35.0,1,1.0,0.3137000000001535
477,19,0.5,0.25,-35.0,1,0.0,2.7058990000004997
478,19,0.8,0.25,-35.0,-1,1.0,0.5602990000002137
479,19,0.5,1.0,-35.0,-1,1.0,0.5861989999998514
480,19,0.5,0.0625,-35.0,-1,1.0,0.12719899999956397
481,19,0.5,0.125,35.0,1,1.0,2.9661990000004153
482,19,0.5,0.0625,-35.0,1,0.0,29.97729900000013
483,19,0.5,0.25,-35.0,1,0.0,3.1971990000001824
484,19,0.5,0.25,35.0,-1,0.0,4.001299999999901
485,19,0.5,0.0625,-35.0,-1,1.0,1.2239990000002763
486,19,0.5,1.0,35.0,1,1.0,2.062199000000419
487,19,0.5,0.25,35.0,1,1.0,14.324199000000135
488,19,0.5,0.125,35.0,1,1.0,3.498599000000013
489,19,0.5,0.0625,-35.0,-1,1.0,20.891399000000092
490,19,0.5,0.25,35.0,1,1.0,0.7831999999998516
491,19,0.5,0.0625,35.0,1,1.0,0.3653989999997975
492,19,0.5,0.125,35.0,1,1.0,0.47319999999990614
493,19,0.5,0.0,35.0,1,1.0,0.432198999999855
494,19,0.5,0.125,-35.0,1,0.0,1.3729990000001635
495,19,0.5,0.25,-35.0,-1,1.0,2.605598999999984
496,19,0.5,1.0,-35.0,-1,1.0,0.5101990000002843
497,19,0.5,0.125,35.0,1,1.0,0.3723989999994046
498,19,0.5,0.125,-35.0,1,0.0,0.580098999999791
499,19,0.5,0.125,-35.0,-1,1.0,0.48609899999974004
500,19,0.5,0.25,35.0,1,1.0,0.3171990000000733
501,19,0.5,1.0,35.0,1,1.0,1.2894000000001142
502,19,0.5,0.25,35.0,1,1.0,0.6771990000002006
503,19,0.5,0.25,35.0,1,1.0,0.4229989999994359
504,19,0.5,0.0625,35.0,-1,0.0,0.7171990000001642
505,19,0.6,0.0625,35.0,-1,0.0,1.8363989999998012
506,19,0.5,1.0,-35.0,1,0.0,0.41739899999993213
507,19,0.7,1.0,-35.0,1,0.0,1.8701989999999569
508,19,0.7,1.0,-35.0,-1,1.0,0.6977999999999156
509,19,0.5,1.0,35.0,1,1.0,0.36019900000019334
510,19,0.5,0.125,-35.0,-1,1.0,0.3044990000003054
511,19,0.5,0.25,35.0,1,1.0,3.5101989999998295
512,19,0.5,0.0625,35.0,-1,0.0,0.7111989999998514
513,19,0.5,0.0625,35.0,1,1.0,0.4481999999998152
514,19,0.5,1.0,-35.0,1,0.0,0.620600000000195
515,19,0.6,1.0,-35.0,-1,1.0,0.6781989999999496
516,19,0.5,1.0,35.0,1,1.0,0.8973989999999503
517,19,0.5,0.25,35.0,1,1.0,1.601698999999826
518,19,0.5,0.25,35.0,1,1.0,0.3811990000003789
519,19,0.5,1.0,-35.0,-1,1.0,1.1020990000001802
520,19,0.5,0.125,-35.0,-1,1.0,2.5843989999998485
521,19,0.5,1.0,35.0,1,1.0,0.4152990000002319
522,19,0.5,0.125,35.0,1,1.0,0.8379989999998543
523,19,0.5,0.25,35.0,1,1.0,0.7690999999999804
524,19,0.5,0.0625,35.0,1,1.0,0.34139899999945555
525,19,0.5,0.25,35.0,1,1.0,0.16619900000023335
526,19,0.5,0.125,35.0,1,1.0,0.42819900000040434
527,19,0.5,0.25,-35.0,-1,1.0,0.49909900000011476
528,19,0.5,0.0625,-35.0,-1,1.0,5.505200000000059
529,19,0.5,0.25,-35.0,1,0.0,8.849698999999873
530,19,0.5,0.125,-35.0,-1,1.0,13.768798999999944
531,19,0.5,0.25,-35.0,-1,1.0,0.576799999999821
532,19,0.5,1.0,-35.0,-1,1.0,0.6992000000000189
533,19,0.5,0.25,-35.0,-1,1.0,0.4569989999995414
534,19,0.5,0.0,35.0,1,1.0,6.266099000000395
535,19,0.5,1.0,-35.0,-1,1.0,0.6003989999999249
536,19,0.5,0.125,35.0,1,1.0,2.8395989999999074
537,19,0.5,0.25,-35.0,-1,1.0,0.617200000000139
538,19,0.5,0.125,35.0,1,1.0,0.3732010000003356
539,19,0.5,0.25,-35.0,-1,1.0,4.070799999999963
540,19,0.5,0.0,35.0,-1,0.0,0.7134999999998399
541,19,0.5,0.125,35.0,1,1.0,0.7510999999999513
542,19,0.5,0.25,35.0,1,1.0,0.6003000000000611
543,19,0.5,1.0,35.0,1,1.0,0.3344999999999345
544,19,0.5,0.125,-35.0,1,0.0,2.8171010000000933
545,19,0.5,0.0625,-35.0,1,0.0,0.7481000000002496
546,19,0.5,0.0625,-35.0,-1,1.0,2.500601000000188
547,19,0.5,1.0,35.0,1,1.0,0.5781010000000606
548,19,0.5,0.25,35.0,1,1.0,0.46070000000008804
549,19,0.5,0.125,-35.0,-1,1.0,0.33160099999986414
550,19,0.5,0.125,35.0,1,1.0,0.6109000000001288
551,19,0.5,0.0,35.0,-1,0.0,2.3750999999997475
552,19,0.5,0.0625,-35.0,1,0.0,2.1344010000002527
553,19,0.5,0.125,35.0,1,1.0,0.36209999999982756
554,19,0.5,0.0625,35.0,1,1.0,0.9913000000001375
555,19,0.5,0.0,35.0,1,1.0,1.2191000000002532
556,19,0.5,0.0625,-35.0,1,0.0,1.9949000000001433
557,19,0.5,0.0625,-35.0,1,0.0,9.082500000000437
558,19,0.5,0.0625,-35.0,-1,1.0,0.23840100000006714
559,19,0.5,0.0,35.0,-1,0.0,4.106100000000424
560,19,0.7,0.0,-35.0,-1,1.0,1.5688000000000102
561,19,0.5,1.0,-35.0,-1,1.0,1.0369999999998072
562,19,0.5,0.25,-35.0,-1,1.0,1.4557009999998627
563,19,0.5,0.0625,35.0,1,1.0,0.38659999999981665
564,19,0.5,0.125,-35.0,1,0.0,4.469000000000051
565,19,0.5,0.125,-35.0,-1,1.0,0.5868000000000393
566,19,0.5,1.0,-35.0,-1,1.0,0.16600000000016735
567,19,0.5,1.0,-35.0,-1,1.0,0.7834010000001399
568,19,0.5,0.125,35.0,1,1.0,0.559400000000096
569,19,0.5,1.0,-35.0,-1,1.0,2.564100000000053
570,19,0.5,0.125,-35.0,-1,1.0,0.5830000000000837
571,19,0.5,0.25,-35.0,-1,1.0,0.5575999999996384
572,19,0.5,0.0,35.0,-1,0.0,7.163099999999758
573,19,0.5,0.25,35.0,1,1.0,0.8409999999998945
574,19,0.5,0.25,35.0,1,1.0,0.39010000000007494
575,19,0.5,0.25,-35.0,-1,1.0,0.3208999999997104
576,19,0.5,0.0,35.0,1,1.0,4.993499999999585
577,19,0.5,0.0,-35.0,1,0.0,1.3778999999994994
578,19,0.5,0.125,-35.0,-1,1.0,1.3304000000002816
579,19,0.5,0.0625,35.0,1,1.0,1.311200000000099
580,19,0.5,1.0,35.0,1,1.0,0.4273000000002867
581,19,0.5,0.0625,-35.0,-1,1.0,0.4914000000003398
582,19,0.5,0.0,-35.0,1,0.0,4.224100999999791
583,19,0.5,0.25,-35.0,-1,1.0,0.5850000000000364
584,19,0.5,0.25,-35.0,-1,1.0,5.487500000000182
585,19,0.5,0.0,35.0,-1,0.0,2.208701000000019
586,19,0.5,0.0,35.0,-1,0.0,3.8114000000000487
587,19,0.5,1.0,35.0,1,1.0,0.472700000000259
588,19,0.5,1.0,35.0,1,1.0,0.6882000000000517
589,19,0.5,0.125,-35.0,1,0.0,4.819100000000162
590,19,0.5,0.125,35.0,1,1.0,3.088400999999976
591,19,0.5,0.25,35.0,1,1.0,0.47300099999984013
592,19,0.5,0.125,-35.0,1,0.0,4.011999999999716
593,19,0.5,0.125,-35.0,-1,1.0,4.616100000000188
594,19,0.5,0.125,-35.0,-1,1.0,0.5821999999998297
595,19,0.5,0.0625,35.0,1,1.0,0.40990000000010696
596,19,0.5,0.125,-35.0,-1,1.0,0.09910000000036234
597,19,0.5,0.0,-35.0,1,0.0,5.013999999999669
598,19,0.5,0.25,35.0,1,1.0,0.7591999999999643
599,19,0.5,0.25,-35.0,-1,1.0,0.3570999999997184
600,19,0.5,0.0625,35.0,1,1.0,1.4992999999999483
601,19,0.5,0.0625,-35.0,-1,1.0,0.3704000000002452
602,19,0.5,0.0625,35.0,1,1.0,3.8362999999999374
603,19,0.5,0.125,35.0,1,1.0,0.23099999999976717
604,19,0.5,0.25,35.0,1,1.0,0.3998999999998887
605,19,0.5,0.125,35.0,1,1.0,0.9875000000001819
606,19,0.5,1.0,-35.0,-1,1.0,0.32660000000032596
607,19,0.5,0.0625,35.0,1,1.0,0.5545000000001892
608,19,0.5,1.0,-35.0,-1,1.0,1.596900000000005
609,19,0.5,1.0,35.0,1,1.0,3.114900000000034
610,19,0.5,0.0,-35.0,-1,1.0,4.617000000000189
611,19,0.5,0.125,35.0,1,1.0,0.8047999999998865
612,19,0.5,0.25,35.0,1,1.0,0.457300000000032
613,19,0.5,0.0,-35.0,-1,1.0,0.34160000000019863
614,19,0.5,0.25,35.0,1,1.0,0.6107999999999265
615,19,0.5,0.25,35.0,1,1.0,0.34859999999980573
616,19,0.5,1.0,-35.0,-1,1.0,0.7609000000002197
617,19,0.5,0.125,-35.0,-1,1.0,5.222200000000157
618,19,0.5,1.0,35.0,1,1.0,0.40439999999989595
619,19,0.5,0.0,35.0,-1,0.0,0.508701000000201
620,19,0.5,0.125,-35.0,-1,1.0,1.0549000000000888
621,19,0.5,1.0,35.0,1,1.0,0.32549999999991996
622,19,0.5,0.25,35.0,1,1.0,0.5914000000002488
623,19,0.5,1.0,-35.0,-1,1.0,0.7024000000005799
624,19,0.5,0.125,35.0,1,1.0,0.3682000000003427
625,19,0.5,0.125,-35.0,-1,1.0,0.5460010000001603
626,19,0.5,1.0,35.0,1,1.0,0.3348999999998341
627,19,0.5,0.0625,-35.0,-1,1.0,6.692700999999943
628,19,0.5,0.125,-35.0,1,0.0,3.475300000000061
629,19,0.5,0.125,35.0,1,1.0,1.5266010000000279
630,19,0.5,1.0,-35.0,-1,1.0,0.3589000000001761
631,19,0.5,1.0,35.0,1,1.0,0.5
632,19,0.5,0.0625,35.0,1,1.0,0.28579999999965366
633,19,0.5,1.0,35.0,1,1.0,0.2600000000002183
634,19,0.5,0.0625,35.0,1,1.0,2.002600000000257
635,19,0.5,1.0,-35.0,-1,1.0,0.863901000000169
636,19,0.5,0.0625,-35.0,-1,1.0,3.5727999999999156
1,20,0.5,0.125,-35.0,-1,1.0,0.9579
2,20,0.5,0.125,-35.0,-1,1.0,0.2687000000000008
3,20,0.5,0.0625,35.0,1,1.0,0.817499999999999
4,20,0.5,0.25,35.0,1,1.0,0.5604010000000006
5,20,0.5,1.0,35.0,1,1.0,0.4167000000000005
6,20,0.5,0.0625,-35.0,-1,1.0,2.2495999999999974
7,20,0.5,0.25,-35.0,-1,1.0,0.5295999999999985
8,20,0.5,0.0625,-35.0,-1,1.0,0.7155999999999985
9,20,0.5,1.0,-35.0,-1,1.0,0.5489999999999959
10,20,0.5,0.0625,-35.0,1,0.0,0.31910000000000593
11,20,0.5,0.0,-35.0,-1,1.0,1.5641999999999996
12,20,0.5,0.125,-35.0,-1,1.0,1.8957999999999942
13,20,0.5,0.125,-35.0,-1,1.0,0.33319999999999794
14,20,0.5,0.0625,-35.0,-1,1.0,1.3198000000000008
15,20,0.5,0.125,35.0,1,1.0,0.3002000000000038
16,20,0.5,0.0625,-35.0,1,0.0,0.6527999999999992
17,20,0.5,0.25,35.0,1,1.0,0.36309999999999576
18,20,0.5,0.25,35.0,1,1.0,0.3594010000000054
19,20,0.5,0.0,-35.0,-1,1.0,2.3788000000000125
20,20,0.5,1.0,35.0,1,1.0,0.20880099999999402
21,20,0.5,0.0,-35.0,-1,1.0,0.35130000000000905
22,20,0.5,0.125,35.0,1,1.0,0.2878000000000043
23,20,0.5,0.0,-35.0,1,0.0,0.46529999999999916
24,20,0.7,0.0,-35.0,-1,1.0,0.3252000000000095
25,20,0.5,1.0,-35.0,-1,1.0,0.3692000000000064
26,20,0.5,1.0,35.0,1,1.0,0.33310000000000173
27,20,0.5,1.0,35.0,1,1.0,0.4024000000000001
28,20,0.5,0.0,35.0,-1,0.0,1.018800000000013
29,20,0.5,0.125,-35.0,1,0.0,0.4193000000000069
30,20,0.6,0.125,-35.0,1,0.0,1.3936010000000039
31,20,0.5,1.0,35.0,1,1.0,0.47640099999999563
32,20,0.5,1.0,35.0,1,1.0,0.39909999999999
33,20,0.5,0.25,-35.0,-1,1.0,0.4132010000000008
34,20,0.5,0.125,35.0,1,1.0,0.49800000000001887
35,20,0.5,0.0625,-35.0,-1,1.0,0.46220000000000994
36,20,0.5,0.125,35.0,1,1.0,0.4467999999999961
37,20,0.5,0.0625,-35.0,-1,1.0,0.585000000000008
38,20,0.5,0.125,35.0,1,1.0,0.3132009999999923
39,20,0.5,0.25,-35.0,-1,1.0,0.4358999999999753
40,20,0.5,0.0625,35.0,-1,0.0,2.6167999999999836
41,20,0.5,0.25,-35.0,-1,1.0,1.6076999999999941
42,20,0.5,0.0625,-35.0,-1,1.0,0.38900000000001
43,20,0.5,0.25,-35.0,-1,1.0,0.6551999999999794
44,20,0.5,1.0,-35.0,-1,1.0,0.3637999999999977
45,20,0.5,0.25,35.0,1,1.0,0.30369999999996367
46,20,0.5,0.125,-35.0,-1,1.0,0.11779999999998836
47,20,0.5,0.0,35.0,-1,0.0,1.2504000000000133
48,20,0.5,0.25,35.0,1,1.0,0.4046999999999912
49,20,0.5,0.25,35.0,1,1.0,0.3802000000000021
50,20,0.5,0.0,-35.0,-1,1.0,1.1911999999999807
51,20,0.5,0.25,35.0,1,1.0,0.2687999999999704
52,20,0.5,0.125,35.0,1,1.0,0.42269999999999186
53,20,0.5,0.0625,-35.0,-1,1.0,0.5446999999999775
54,20,0.5,0.25,-35.0,-1,1.0,1.6992999999999654
55,20,0.5,1.0,-35.0,-1,1.0,0.39870000000001937
56,20,0.5,0.0625,35.0,1,1.0,0.45830100000000584
57,20,0.5,0.125,35.0,1,1.0,0.6710999999999956
58,20,0.5,1.0,35.0,1,1.0,0.36450099999998997
59,20,0.5,0.125,-35.0,-1,1.0,1.352800000000002
60,20,0.5,0.125,-35.0,-1,1.0,0.6502000000000123
61,20,0.5,0.25,35.0,1,1.0,0.23209999999997422
62,20,0.5,0.25,35.0,1,1.0,0.32849999999999113
63,20,0.5,0.125,35.0,1,1.0,0.9081999999999937
64,20,0.5,1.0,-35.0,-1,1.0,0.5367999999999711
65,20,0.5,0.0625,35.0,-1,0.0,1.6566999999999723
66,20,0.6,0.0625,-35.0,1,0.0,0.5935000000000059
67,20,0.5,1.0,35.0,1,1.0,0.2698000000000036
68,20,0.5,0.125,35.0,1,1.0,2.49969999999999
69,20,0.5,0.0625,35.0,1,1.0,0.3299999999999841
70,20,0.5,1.0,35.0,1,1.0,0.3032000000000039
71,20,0.5,0.125,-35.0,-1,1.0,0.5197000000000003
72,20,0.5,0.0,-35.0,1,0.0,0.3406999999999698
73,20,0.7,0.0,35.0,-1,0.0,0.5763000000000034
74,20,0.5,1.0,-35.0,-1,1.0,0.3261999999999716
75,20,0.5,1.0,35.0,1,1.0,2.079999999999984
76,20,0.5,0.125,35.0,1,1.0,0.26269999999999527
77,20,0.5,1.0,-35.0,-1,1.0,0.45789999999993825
78,20,0.5,0.0,35.0,1,1.0,5.572299999999984
79,20,0.5,0.25,35.0,1,1.0,0.26960100000002285
80,20,0.5,0.25,-35.0,-1,1.0,2.1352999999999724
81,20,0.5,0.0,35.0,1,1.0,0.5509000000000128
82,20,0.5,1.0,35.0,1,1.0,0.40120099999995773
83,20,0.5,1.0,35.0,1,1.0,0.2715999999999781
84,20,0.5,1.0,35.0,1,1.0,0.26240000000001373
85,20,0.5,1.0,35.0,1,1.0,0.3376999999999839
86,20,0.5,1.0,-35.0,-1,1.0,3.0809000000000424
87,20,0.5,0.25,35.0,1,1.0,0.279200000000003
88,20,0.5,0.0,-35.0,1,0.0,0.14960000000002083
89,20,0.5,0.25,35.0,1,1.0,2.226699999999937
90,20,0.5,0.25,-35.0,-1,1.0,0.39489999999995007
91,20,0.5,0.0625,-35.0,1,0.0,0.4336010000000101
92,20,0.5,0.125,-35.0,-1,1.0,0.2908999999999651
93,20,0.5,0.125,35.0,1,1.0,0.21199999999998909
94,20,0.5,1.0,35.0,1,1.0,0.281599999999969
95,20,0.5,1.0,-35.0,-1,1.0,0.4736000000000331
96,20,0.5,1.0,35.0,1,1.0,0.39360099999998965
97,20,0.5,0.125,35.0,1,1.0,0.43460099999998647
98,20,0.5,0.25,-35.0,-1,1.0,0.25209999999998445
99,20,0.5,0.0625,-35.0,-1,1.0,1.5657999999999674
100,20,0.5,0.125,35.0,1,1.0,0.2857000000000198
101,20,0.5,0.0,35.0,-1,0.0,3.239599999999996
102,20,0.5,0.0625,-35.0,-1,1.0,2.652601000000004
103,20,0.5,0.125,-35.0,-1,1.0,0.8041010000000028
104,20,0.5,0.25,35.0,1,1.0,0.3113999999999919
105,20,0.5,0.125,-35.0,-1,1.0,0.6066010000000119
106,20,0.5,0.0625,35.0,1,1.0,0.2896999999999821
107,20,0.5,1.0,35.0,1,1.0,0.8636999999999944
108,20,0.5,1.0,35.0,1,1.0,0.4950009999999452
109,20,0.5,0.125,35.0,1,1.0,2.285199999999975
110,20,0.5,0.0625,35.0,1,1.0,7.3525999999999385
111,20,0.5,0.0625,35.0,1,1.0,2.188199999999995
112,20,0.5,0.125,35.0,1,1.0,0.4634999999999536
113,20,0.5,1.0,-35.0,-1,1.0,0.32900000000000773
114,20,0.5,0.25,35.0,1,1.0,0.4155999999999267
115,20,0.5,0.25,-35.0,-1,1.0,0.492999999999995
116,20,0.5,0.125,35.0,1,1.0,0.6159000000000106
117,20,0.5,0.0625,35.0,1,1.0,0.9842009999999846
118,20,0.5,0.25,-35.0,-1,1.0,0.35300000000000864
119,20,0.5,0.0,35.0,-1,0.0,0.6385999999999967
120,20,0.6,0.0,35.0,-1,0.0,5.1363999999999805
121,20,0.5,1.0,-35.0,-1,1.0,0.2895009999999729
122,20,0.5,0.25,35.0,1,1.0,0.7050009999999247
123,20,0.5,1.0,35.0,1,1.0,0.39529999999996335
124,20,0.5,0.0625,-35.0,-1,1.0,0.3584999999999354
125,20,0.5,0.0625,35.0,1,1.0,0.40590099999997165
126,20,0.5,0.0,35.0,-1,0.0,0.6905000000000427
127,20,0.5,0.0,35.0,-1,0.0,3.623299999999972
128,20,0.3,0.0,35.0,-1,0.0,0.3353010000000154
129,20,0.5,1.0,35.0,1,1.0,0.34309999999999263
130,20,0.5,0.0,35.0,1,1.0,1.4044000000000096
131,20,0.5,0.25,35.0,1,1.0,0.3745000000000118
132,20,0.5,0.25,-35.0,-1,1.0,0.752399999999966
133,20,0.5,0.25,-35.0,-1,1.0,0.4071999999999889
134,20,0.5,0.25,35.0,1,1.0,0.7069000000000187
135,20,0.5,0.0625,35.0,1,1.0,0.3836000000000013
136,20,0.5,0.0,-35.0,-1,1.0,4.864999999999895
137,20,0.5,1.0,35.0,1,1.0,0.2198999999999387
138,20,0.5,0.25,35.0,1,1.0,0.29340000000001965
139,20,0.5,1.0,-35.0,-1,1.0,0.27539999999999054
140,20,0.5,0.25,-35.0,-1,1.0,0.39049999999997453
141,20,0.5,0.25,-35.0,-1,1.0,0.38789999999994507
142,20,0.5,0.25,35.0,1,1.0,0.45279999999991105
143,20,0.5,0.125,35.0,1,1.0,0.5263999999999669
144,20,0.5,0.25,35.0,1,1.0,0.29530000000011114
145,20,0.5,0.125,-35.0,-1,1.0,0.5985999999999194
146,20,0.5,0.125,35.0,1,1.0,0.417699999999968
147,20,0.5,0.25,-35.0,-1,1.0,0.24469999999996617
148,20,0.5,0.25,35.0,1,1.0,0.349399999999946
149,20,0.5,1.0,-35.0,-1,1.0,0.4440999999999349
150,20,0.5,0.125,35.0,1,1.0,0.34770000000003165
151,20,0.5,0.125,35.0,1,1.0,0.24640099999999165
152,20,0.5,0.25,-35.0,-1,1.0,0.3584999999999354
153,20,0.5,0.125,-35.0,-1,1.0,0.44039999999995416
154,20,0.5,1.0,-35.0,-1,1.0,0.46460000000001855
155,20,0.5,0.0,-35.0,-1,1.0,2.4504000000000588
156,20,0.5,1.0,-35.0,-1,1.0,0.18479999999999563
157,20,0.5,0.0,-35.0,-1,1.0,1.081401000000028
158,20,0.5,0.25,35.0,1,1.0,0.4843999999999369
159,20,0.5,0.0625,-35.0,1,0.0,0.4936999999999898
160,20,0.5,0.125,35.0,1,1.0,0.37140100000010534
161,20,0.5,0.25,35.0,1,1.0,0.3203999999999496
162,20,0.5,0.0625,-35.0,-1,1.0,0.5357999999999947
163,20,0.5,0.0625,-35.0,-1,1.0,0.24440000000004147
164,20,0.5,0.25,-35.0,-1,1.0,1.0332999999999402
165,20,0.5,0.125,-35.0,-1,1.0,0.3911999999999125
166,20,0.5,0.25,35.0,-1,0.0,0.5022999999999911
167,20,0.5,0.0625,-35.0,-1,1.0,0.38160000000004857
168,20,0.5,0.25,-35.0,-1,1.0,0.2505999999999631
169,20,0.5,0.0625,35.0,1,1.0,0.9406999999999925
170,20,0.5,0.0625,35.0,1,1.0,0.34780000000000655
171,20,0.5,0.125,-35.0,-1,1.0,0.3692999999999529
172,20,0.5,0.125,-35.0,-1,1.0,0.2562000000000353
173,20,0.5,0.25,-35.0,-1,1.0,0.42230000000006385
174,20,0.5,0.0,-35.0,-1,1.0,0.274599999999964
175,20,0.5,0.0,-35.0,-1,1.0,0.40879999999992833
176,20,0.5,0.0,-35.0,-1,1.0,0.12439999999992324
177,20,0.5,0.25,35.0,1,1.0,0.27289999999993597
178,20,0.5,0.0625,35.0,1,1.0,0.31350000000009004
179,20,0.5,0.25,-35.0,-1,1.0,0.45650000000000546
180,20,0.5,0.125,35.0,1,1.0,0.4904999999998836
181,20,0.5,0.0625,35.0,1,1.0,0.14209999999991396
182,20,0.5,0.125,-35.0,-1,1.0,0.5589999999999691
183,20,0.5,0.0,35.0,-1,0.0,2.5855999999999995
184,20,0.4,0.0,-35.0,-1,1.0,0.6312999999998965
185,20,0.5,1.0,35.0,1,1.0,1.4222999999999502
186,20,0.5,0.25,35.0,1,1.0,0.5053010000000313
187,20,0.5,0.125,-35.0,-1,1.0,1.0818000000000438
188,20,0.5,0.0625,35.0,-1,0.0,0.7192999999999756
189,20,0.5,0.0625,35.0,1,1.0,0.38259999999991123
190,20,0.5,1.0,35.0,1,1.0,0.2924009999999271
191,20,0.5,0.25,35.0,1,1.0,0.26539999999988595
192,20,0.5,0.125,35.0,-1,0.0,0.14819999999997435
193,20,0.5,0.0625,35.0,-1,0.0,1.1235000000000355
194,20,0.5,0.0625,35.0,1,1.0,0.3951999999999316
195,20,0.5,1.0,-35.0,-1,1.0,1.0731999999999289
196,20,0.5,0.0625,35.0,1,1.0,0.3303999999999405
197,20,0.5,0.25,35.0,1,1.0,0.3451999999999771
198,20,0.5,0.0,35.0,-1,0.0,0.5751999999999953
199,20,0.6,0.0,-35.0,1,0.0,1.072400000000016
200,20,0.5,1.0,35.0,1,1.0,0.3244999999999436
201,20,0.5,0.125,35.0,1,1.0,0.5134000000000469
202,20,0.5,1.0,35.0,1,1.0,0.36820000000000164
203,20,0.5,0.125,35.0,1,1.0,0.30730099999993854
204,20,0.5,0.0,-35.0,-1,1.0,0.37039999999990414
205,20,0.5,0.25,-35.0,-1,1.0,0.4460999999998876
206,20,0.5,0.125,35.0,1,1.0,0.272199999999998
207,20,0.5,0.0,-35.0,-1,1.0,0.494199999999978
208,20,0.5,0.125,-35.0,-1,1.0,0.3634999999999309
209,20,0.5,0.25,35.0,1,1.0,0.7660999999999376
210,20,0.5,0.125,-35.0,-1,1.0,0.45620000000008076
211,20,0.5,0.0625,-35.0,-1,1.0,0.44079999999996744
212,20,0.5,1.0,-35.0,-1,1.0,0.30480000000011387
213,20,0.5,0.125,35.0,1,1.0,0.46739999999988413
214,20,0.5,0.125,35.0,1,1.0,0.5222999999999729
215,20,0.5,0.25,-35.0,1,0.0,1.2303999999999178
216,20,0.5,0.25,-35.0,-1,1.0,0.5054000000000087
217,20,0.5,1.0,35.0,1,1.0,0.2763999999999669
218,20,0.5,1.0,-35.0,-1,1.0,0.21849999999994907
219,20,0.5,0.25,-35.0,-1,1.0,0.2842999999999165
220,20,0.5,0.25,35.0,1,1.0,0.3490000000000464
221,20,0.5,0.125,35.0,1,1.0,0.5010999999999513
222,20,0.5,1.0,-35.0,-1,1.0,0.415100999999936
223,20,0.5,0.0625,-35.0,-1,1.0,0.2181999999999107
224,20,0.5,0.0625,35.0,-1,0.0,0.3327000000000453
225,20,0.5,0.0,-35.0,-1,1.0,0.8177010000000564
226,20,0.5,0.25,-35.0,-1,1.0,3.5751000000000204
227,20,0.5,0.25,-35.0,-1,1.0,0.5663999999999305
228,20,0.5,0.25,-35.0,-1,1.0,0.37960000000009586
229,20,0.5,0.25,-35.0,-1,1.0,0.29710000000000036
230,20,0.5,1.0,35.0,1,1.0,0.7461009999999533
231,20,0.5,0.125,35.0,1,1.0,0.3612000000000535
232,20,0.5,0.125,-35.0,-1,1.0,0.7371999999999161
233,20,0.5,0.125,-35.0,-1,1.0,0.3509999999998854
234,20,0.5,0.25,-35.0,-1,1.0,0.453200000000038
235,20,0.5,0.25,-35.0,-1,1.0,0.22620000000006257
236,20,0.5,0.0625,-35.0,-1,1.0,0.5054999999999836
237,20,0.5,0.0625,-35.0,-1,1.0,0.3791009999999915
238,20,0.5,0.0625,-35.0,-1,1.0,1.4782000000000153
239,20,0.5,0.25,-35.0,-1,1.0,0.36019999999996344
240,20,0.5,0.0625,-35.0,-1,1.0,0.2680000000000291
241,20,0.5,0.0625,-35.0,-1,1.0,0.4796000000000049
242,20,0.5,0.25,35.0,1,1.0,0.8075999999999794
243,20,0.5,0.25,-35.0,-1,1.0,1.1585000000000036
244,20,0.5,0.25,35.0,1,1.0,0.8958999999999833
245,20,0.5,0.0,-35.0,-1,1.0,2.059900000000084
246,20,0.5,0.25,35.0,1,1.0,0.3170000000000073
247,20,0.5,0.25,-35.0,-1,1.0,0.1892010000000255
248,20,0.5,0.25,35.0,1,1.0,0.3057009999999991
249,20,0.5,0.25,35.0,1,1.0,0.26139999999998054
250,20,0.5,0.25,-35.0,-1,1.0,0.3488999999999578
251,20,0.5,1.0,35.0,1,1.0,0.34810000000004493
252,20,0.5,0.25,-35.0,-1,1.0,0.5439000000000078
253,20,0.5,1.0,-35.0,-1,1.0,0.4292000000000371
254,20,0.5,0.125,35.0,1,1.0,0.4138999999998987
255,20,0.5,0.0625,35.0,1,1.0,7.48599999999999
256,20,0.5,0.0625,35.0,1,1.0,0.32710099999997055
257,20,0.5,1.0,35.0,1,1.0,0.31959999999992306
258,20,0.5,0.0625,-35.0,1,0.0,0.41390000000001237
259,20,0.5,0.25,-35.0,-1,1.0,1.1765000000000327
260,20,0.5,0.0,-35.0,-1,1.0,0.3806999999999334
261,20,0.5,0.25,35.0,1,1.0,0.28339999999980137
262,20,0.5,0.0,35.0,-1,0.0,0.28090099999985796
263,20,0.5,0.125,-35.0,-1,1.0,0.4800999999999931
264,20,0.5,1.0,35.0,1,1.0,0.3609999999998763
265,20,0.5,1.0,35.0,1,1.0,0.326799999999821
266,20,0.5,0.25,35.0,1,1.0,0.32130099999994854
267,20,0.5,1.0,35.0,1,1.0,0.3269999999999982
268,20,0.5,0.125,-35.0,1,0.0,0.7549000000001342
269,20,0.5,0.25,-35.0,-1,1.0,0.2805000000000746
270,20,0.5,0.25,35.0,1,1.0,1.0679999999999836
271,20,0.5,0.25,-35.0,-1,1.0,0.43400000000019645
272,20,0.5,0.125,-35.0,-1,1.0,2.238299999999981
273,20,0.5,0.125,35.0,1,1.0,0.6174000000000888
274,20,0.5,0.0625,35.0,1,1.0,0.3386000000000422
275,20,0.5,0.125,-35.0,-1,1.0,0.40430000000014843
276,20,0.5,1.0,35.0,1,1.0,0.31179999999994834
277,20,0.5,0.25,-35.0,-1,1.0,0.4677999999998974
278,20,0.5,1.0,35.0,1,1.0,0.3586999999999989
279,20,0.5,0.125,-35.0,-1,1.0,0.64449999999988
280,20,0.5,0.25,-35.0,-1,1.0,0.17579999999998108
281,20,0.5,0.125,-35.0,-1,1.0,0.4147000000000389
282,20,0.5,0.0625,35.0,1,1.0,0.49630000000024665
283,20,0.5,0.0,-35.0,-1,1.0,0.4816000000000713
284,20,0.5,1.0,35.0,1,1.0,0.29920000000015534
285,20,0.5,1.0,-35.0,-1,1.0,0.4580999999998312
286,20,0.5,0.0625,35.0,1,1.0,0.5290999999997439
287,20,0.5,0.125,35.0,1,1.0,0.38190000000008695
288,20,0.5,1.0,35.0,1,1.0,0.4695010000000366
289,20,0.5,1.0,35.0,1,1.0,0.2919999999999163
290,20,0.5,0.125,-35.0,-1,1.0,0.4297999999998865
291,20,0.5,0.125,35.0,1,1.0,0.4252999999998792
292,20,0.5,1.0,35.0,1,1.0,0.32979999999997744
293,20,0.5,0.25,-35.0,-1,1.0,0.1956000000000131
294,20,0.5,1.0,-35.0,-1,1.0,0.27680000000009386
295,20,0.5,1.0,-35.0,-1,1.0,0.3790999999998803
296,20,0.5,0.125,35.0,1,1.0,0.32339999999999236
297,20,0.5,0.125,-35.0,-1,1.0,0.3392009999997754
298,20,0.5,0.25,-35.0,-1,1.0,0.17009999999982028
299,20,0.5,0.0625,35.0,1,1.0,0.29599999999982174
300,20,0.5,0.0,-35.0,1,0.0,1.3137000000001535
301,20,0.5,0.0625,-35.0,-1,1.0,0.14939999999978681
302,20,0.5,1.0,-35.0,-1,1.0,0.19389999999998508
303,20,0.5,1.0,35.0,1,1.0,0.32599999999979445
304,20,0.5,1.0,-35.0,-1,1.0,0.15710100000001148
305,20,0.5,1.0,-35.0,-1,1.0,0.3162999999999556
306,20,0.5,1.0,-35.0,-1,1.0,1.5773999999998978
307,20,0.5,0.0625,-35.0,-1,1.0,0.5996999999999844
308,20,0.5,0.25,35.0,1,1.0,0.26470000000017535
309,20,0.5,0.0,35.0,-1,0.0,0.2933000000002721
310,20,0.5,0.125,35.0,1,1.0,0.3106999999999971
311,20,0.5,0.0,35.0,1,1.0,0.3065999999998894
312,20,0.5,0.0625,35.0,1,1.0,0.4311000000000149
313,20,0.5,1.0,35.0,1,1.0,0.5569000000000415
314,20,0.5,0.0625,-35.0,1,0.0,0.34799999999995634
315,20,0.5,0.125,-35.0,-1,1.0,0.2037000000000262
316,20,0.5,1.0,-35.0,-1,1.0,0.25469999999995707
317,20,0.5,0.25,35.0,-1,0.0,0.15069999999991524
318,20,0.5,0.25,-35.0,-1,1.0,0.5481009999998605
319,20,0.5,1.0,-35.0,-1,1.0,0.30389999999988504
320,20,0.5,0.125,-35.0,-1,1.0,0.21499999999991815
321,20,0.5,0.0625,35.0,1,1.0,0.2908999999999651
322,20,0.5,0.125,35.0,1,1.0,0.8121000000001004
323,20,0.5,1.0,35.0,1,1.0,0.46080000000006294
324,20,0.5,0.0625,35.0,1,1.0,2.22180000000003
325,20,0.5,0.25,35.0,1,1.0,0.37770000000000437
326,20,0.5,0.0625,35.0,-1,0.0,0.13869999999997162
327,20,0.5,0.125,35.0,1,1.0,0.48460000000000036
328,20,0.5,0.0625,-35.0,1,0.0,0.44270000000005894
329,20,0.5,0.125,-35.0,-1,1.0,0.9847999999999502
330,20,0.5,1.0,35.0,1,1.0,1.965599999999995
331,20,0.5,0.0625,35.0,-1,0.0,1.3915999999999258
332,20,0.5,0.25,-35.0,-1,1.0,2.275899999999865
333,20,0.5,0.125,-35.0,-1,1.0,0.30179999999995744
334,20,0.5,0.125,35.0,-1,0.0,0.4360999999998967
335,20,0.5,0.0625,35.0,1,1.0,0.5786000000000513
336,20,0.5,1.0,-35.0,-1,1.0,0.14959999999996398
337,20,0.5,0.25,35.0,1,1.0,0.6720000000000255
338,20,0.5,0.0625,35.0,-1,0.0,0.36659999999983484
339,20,0.5,0.25,-35.0,-1,1.0,0.4855999999999767
340,20,0.5,0.125,-35.0,-1,1.0,2.199600000000146
341,20,0.5,0.25,35.0,1,1.0,0.6989999999998417
342,20,0.5,0.0625,35.0,1,1.0,0.4166000000002441
343,20,0.5,0.25,35.0,1,1.0,0.582501000000093
344,20,0.5,0.0,35.0,-1,0.0,1.9235000000001037
345,20,0.5,0.25,-35.0,-1,1.0,0.9158999999999651
346,20,0.5,0.0,35.0,1,1.0,1.2938010000000304
347,20,0.5,1.0,35.0,1,1.0,0.3894999999999982
348,20,0.5,0.0625,-35.0,-1,1.0,0.34379999999987376
349,20,0.5,0.125,35.0,1,1.0,0.3363999999999123
350,20,0.5,0.0625,35.0,1,1.0,1.4309000000000651
351,20,0.5,0.0625,35.0,1,1.0,0.36649999999985994
352,20,0.5,0.125,-35.0,1,0.0,0.3807999999999083
353,20,0.5,0.125,-35.0,-1,1.0,0.5966000000000804
354,20,0.5,0.125,-35.0,-1,1.0,0.4774999999999636
355,20,0.5,0.25,-35.0,-1,1.0,0.5945000000001528
356,20,0.5,1.0,-35.0,-1,1.0,0.5009000000000015
357,20,0.5,0.0625,35.0,-1,0.0,0.7005000000001473
358,20,0.5,0.0625,35.0,1,1.0,0.3145999999999276
359,20,0.5,0.0,35.0,-1,0.0,3.0336999999999534
360,20,0.5,0.0625,-35.0,-1,1.0,0.4480999999998403
361,20,0.5,1.0,35.0,1,1.0,0.12059999999974025
362,20,0.5,0.25,-35.0,-1,1.0,0.33819999999991524
363,20,0.5,0.25,35.0,1,1.0,1.0007000000000517
364,20,0.5,1.0,35.0,1,1.0,0.34159999999997126
365,20,0.5,0.25,35.0,1,1.0,0.3074010000000271
366,20,0.5,0.0,35.0,-1,0.0,0.8785000000000309
367,20,0.5,0.0,-35.0,-1,1.0,0.2611010000000533
368,20,0.5,0.125,35.0,1,1.0,0.38180099999999584
369,20,0.5,0.125,35.0,1,1.0,0.27110099999981685
370,20,0.5,0.0625,35.0,1,1.0,0.3955999999998312
371,20,0.5,0.125,35.0,1,1.0,0.42460000000005493
372,20,0.5,0.0,35.0,1,1.0,1.9723999999998796
373,20,0.5,1.0,-35.0,-1,1.0,0.38810000000012224
374,20,0.5,0.0625,-35.0,-1,1.0,0.7064000000000306
375,20,0.5,0.0,-35.0,1,0.0,1.0985000000000582
376,20,0.5,0.25,35.0,1,1.0,0.6859009999998307
377,20,0.5,1.0,35.0,1,1.0,0.30510099999992235
378,20,0.5,0.0625,35.0,1,1.0,0.5628999999998996
379,20,0.5,0.25,35.0,1,1.0,0.3352999999999611
380,20,0.5,1.0,35.0,1,1.0,0.34940000000005966
381,20,0.5,1.0,-35.0,-1,1.0,0.41869999999994434
382,20,0.5,0.25,-35.0,-1,1.0,0.24340000000006512
383,20,0.5,1.0,35.0,1,1.0,0.33549999999991087
384,20,0.5,0.0,35.0,1,1.0,0.11639999999988504
385,20,0.5,1.0,35.0,1,1.0,1.8623000000000047
386,20,0.5,0.25,-35.0,-1,1.0,0.6273009999999886
387,20,0.5,0.125,35.0,1,1.0,0.38589999999999236
388,20,0.5,0.125,-35.0,-1,1.0,0.6803999999999633
389,20,0.5,0.0,-35.0,-1,1.0,0.4359009999998307
390,20,0.5,0.25,35.0,1,1.0,0.2967999999998483
391,20,0.5,0.0,35.0,1,1.0,0.7663010000001123
392,20,0.5,0.0,35.0,1,1.0,0.3974000000000615
393,20,0.5,0.25,-35.0,-1,1.0,0.2195000000001528
394,20,0.5,0.125,-35.0,-1,1.0,0.5003999999996722
395,20,0.5,0.25,-35.0,-1,1.0,0.4595999999999094
396,20,0.5,0.125,-35.0,-1,1.0,2.690599999999904
397,20,0.5,0.125,35.0,-1,0.0,0.14330000000018117
398,20,0.5,0.25,35.0,1,1.0,0.3708000000001448
399,20,0.5,0.125,35.0,1,1.0,0.9402999999999793
400,20,0.5,0.25,-35.0,-1,1.0,0.6042999999999665
401,20,0.5,0.125,-35.0,-1,1.0,0.46030000000018845
402,20,0.5,0.25,-35.0,-1,1.0,0.33130000000005566
403,20,0.5,0.125,35.0,1,1.0,0.46030000000018845
404,20,0.5,1.0,35.0,1,1.0,0.35790099999985614
405,20,0.5,0.125,-35.0,-1,1.0,1.1438000000000557
406,20,0.5,0.125,-35.0,-1,1.0,0.6080000000001746
407,20,0.5,0.0625,35.0,1,1.0,0.41730000000029577
408,20,0.5,1.0,35.0,1,1.0,0.3387999999997646
409,20,0.5,0.25,35.0,1,1.0,0.24069999999983338
410,20,0.5,0.125,-35.0,-1,1.0,0.8651999999999589
411,20,0.5,0.125,-35.0,-1,1.0,0.4942999999998392
412,20,0.5,0.25,35.0,1,1.0,0.47529999999983374
413,20,0.5,0.0625,35.0,1,1.0,3.3444999999999254
414,20,0.5,0.125,-35.0,-1,1.0,0.5059000000001106
415,20,0.5,0.25,35.0,1,1.0,0.5544999999999618
416,20,0.5,1.0,35.0,1,1.0,0.21569999999974243
417,20,0.5,0.125,35.0,1,1.0,0.6112000000000535
418,20,0.5,0.0625,35.0,1,1.0,0.31229999999982283
419,20,0.5,1.0,-35.0,-1,1.0,0.5048000000001593
420,20,0.5,1.0,-35.0,-1,1.0,0.3792000000000826
421,20,0.5,0.0625,35.0,1,1.0,0.3284000000001015
422,20,0.5,0.0,-35.0,-1,1.0,2.376199999999926
423,20,0.5,0.25,-35.0,-1,1.0,0.27520000000004075
424,20,0.5,0.0625,35.0,-1,0.0,0.4153000000001157
425,20,0.5,0.0625,-35.0,-1,1.0,2.8886999999999716
426,20,0.5,1.0,-35.0,-1,1.0,0.7497010000001865
427,20,0.5,0.0,-35.0,-1,1.0,0.24890000000004875
428,20,0.5,0.25,-35.0,-1,1.0,1.5062999999997828
429,20,0.5,0.0625,35.0,1,1.0,0.45230100000003404
430,20,0.5,0.125,35.0,1,1.0,1.4263999999998305
431,20,0.5,0.25,35.0,1,1.0,0.485700000000179
432,20,0.5,0.125,-35.0,-1,1.0,0.5134000000000469
433,20,0.5,1.0,-35.0,-1,1.0,2.985900000000129
434,20,0.5,0.125,35.0,1,1.0,0.5602000000001226
435,20,0.5,0.0,35.0,1,1.0,3.559500000000071
436,20,0.5,0.125,35.0,1,1.0,0.4838999999999487
437,20,0.5,1.0,35.0,1,1.0,0.6430000000000291
438,20,0.5,0.0625,-35.0,-1,1.0,1.0138999999999214
439,20,0.5,1.0,35.0,1,1.0,0.3831000000000131
440,20,0.5,0.125,-35.0,-1,1.0,0.43720100000018647
441,20,0.5,0.25,35.0,1,1.0,0.5932000000000244
442,20,0.5,0.0625,35.0,1,1.0,0.3382010000000264
443,20,0.5,0.125,-35.0,-1,1.0,0.50649999999996
444,20,0.5,0.25,-35.0,-1,1.0,0.4440999999999349
445,20,0.5,0.0,35.0,-1,0.0,0.49670100000003004
446,20,0.5,0.25,-35.0,-1,1.0,0.49109999999996035
447,20,0.5,0.25,-35.0,-1,1.0,0.39350000000013097
448,20,0.5,0.0625,-35.0,-1,1.0,0.38149999999996
449,20,0.5,0.25,-35.0,-1,1.0,0.39380000000005566
450,20,0.5,0.125,35.0,1,1.0,0.44509999999991123
451,20,0.5,0.125,35.0,1,1.0,0.30709999999999127
452,20,0.5,1.0,35.0,1,1.0,0.401299999999992
453,20,0.5,0.0625,35.0,1,1.0,0.8341009999999187
454,20,0.5,0.25,35.0,1,1.0,0.7817999999997483
455,20,0.5,0.25,35.0,1,1.0,0.38409999999998945
456,20,0.5,0.0,-35.0,-1,1.0,0.5953999999999269
457,20,0.5,0.25,35.0,1,1.0,0.3442999999999756
458,20,0.5,0.0625,35.0,1,1.0,1.8416999999999462
459,20,0.5,0.0625,-35.0,-1,1.0,0.7512000000001535
460,20,0.5,0.0625,-35.0,-1,1.0,0.49909999999999854
461,20,0.5,0.0,35.0,1,1.0,2.798000000000002
462,20,0.5,0.0625,35.0,1,1.0,3.8479999999999563
463,20,0.5,0.0625,-35.0,-1,1.0,0.55600000000004
464,20,0.5,0.0625,35.0,-1,0.0,2.005000000000109
465,20,0.5,0.25,-35.0,-1,1.0,0.3430999999998221
466,20,0.5,0.0625,-35.0,1,0.0,0.20850099999984195
467,20,0.5,0.125,-35.0,-1,1.0,0.5899999999999181
468,20,0.5,0.0,35.0,-1,0.0,1.6085000000000491
469,20,0.5,0.25,-35.0,-1,1.0,0.36970100000007733
470,20,0.5,1.0,35.0,1,1.0,0.33539999999993597
471,20,0.5,0.0625,-35.0,-1,1.0,0.3730000000000473
472,20,0.5,0.0625,-35.0,-1,1.0,0.45230000000015025
473,20,0.5,0.25,-35.0,-1,1.0,0.37000000000011823
474,20,0.5,1.0,35.0,1,1.0,2.4126009999997677
475,20,0.5,0.0,35.0,-1,0.0,0.43000000000006366
476,20,0.5,0.125,35.0,-1,0.0,0.15929999999980282
477,20,0.5,0.25,-35.0,-1,1.0,0.3602009999999609
478,20,0.5,0.125,-35.0,-1,1.0,1.6094000000000506
479,20,0.5,0.125,35.0,-1,0.0,0.40020000000004075
480,20,0.5,0.0,35.0,-1,0.0,1.9895000000001346
481,20,0.1,0.0,-35.0,-1,1.0,0.43390000000022155
482,20,0.5,1.0,35.0,-1,0.0,0.16990099999975428
483,20,0.5,0.0625,35.0,1,1.0,0.38799999999991996
484,20,0.5,1.0,-35.0,-1,1.0,0.4131999999999607
485,20,0.5,0.125,35.0,1,1.0,1.9409999999998035
486,20,0.5,0.25,35.0,-1,0.0,0.1369999999999436
487,20,0.2,0.25,35.0,1,1.0,0.390999999999849
488,20,0.5,1.0,35.0,1,1.0,0.2701999999999316
489,20,0.5,0.0,35.0,-1,0.0,1.5749000000000706
490,20,0.5,0.0625,-35.0,-1,1.0,0.49390100000005077
491,20,0.5,0.0625,35.0,1,1.0,0.38789999999994507
492,20,0.5,0.25,-35.0,-1,1.0,0.36389999999983047
493,20,0.5,0.125,-35.0,-1,1.0,0.5815000000000055
494,20,0.5,0.25,35.0,1,1.0,0.7772999999999683
495,20,0.5,0.125,35.0,-1,0.0,0.45899999999983265
496,20,0.5,0.0,35.0,-1,0.0,0.7374999999999545
497,20,0.5,0.0,-35.0,-1,1.0,3.3285000000000764
498,20,0.5,0.25,35.0,1,1.0,0.6878999999998996
499,20,0.5,0.0625,-35.0,1,0.0,0.6886999999999261
500,20,0.5,0.25,-35.0,-1,1.0,0.3544999999999163
501,20,0.5,0.25,-35.0,-1,1.0,0.42879999999991014
502,20,0.5,0.0,35.0,-1,0.0,0.3413999999997941
503,20,0.5,0.125,35.0,-1,0.0,0.2221999999997024
504,20,0.5,0.0625,-35.0,-1,1.0,0.5015000000003056
505,20,0.5,0.125,-35.0,-1,1.0,2.899300999999923
506,20,0.5,0.0625,35.0,-1,0.0,0.8117999999999483
507,20,0.2,0.0625,-35.0,1,0.0,1.0026000000002568
508,20,0.5,1.0,-35.0,-1,1.0,0.46860000000015134
509,20,0.5,0.125,-35.0,-1,1.0,0.5328999999996995
510,20,0.5,0.0625,35.0,1,1.0,0.38550100000020393
511,20,0.5,0.125,-35.0,-1,1.0,3.089900000000398
512,20,0.5,0.125,-35.0,-1,1.0,0.5358000000001084
513,20,0.5,0.0,35.0,-1,0.0,0.51299999999992
514,20,0.5,0.0625,-35.0,-1,1.0,0.7289000000000669
515,20,0.5,0.125,35.0,1,1.0,0.30379999999968277
516,20,0.5,0.125,35.0,1,1.0,0.31579999999985375
517,20,0.5,0.125,35.0,1,1.0,0.32349999999996726
518,20,0.5,0.0625,35.0,1,1.0,0.3758999999995467
519,20,0.5,1.0,35.0,1,1.0,0.373700999999528
520,20,0.5,0.0625,35.0,1,1.0,0.702900000000227
521,20,0.5,0.125,-35.0,-1,1.0,0.42390000000023065
522,20,0.5,0.25,35.0,1,1.0,0.3164000000001579
523,20,0.5,0.25,-35.0,-1,1.0,0.7037999999997737
524,20,0.5,0.125,35.0,1,1.0,0.4831000000003769
525,20,0.5,0.0,-35.0,1,0.0,0.3878009999993992
526,20,0.5,0.125,35.0,1,1.0,0.5533000000000357
527,20,0.5,0.25,-35.0,-1,1.0,0.3773999999998523
528,20,0.5,1.0,35.0,1,1.0,1.5001999999999498
529,20,0.5,0.125,-35.0,-1,1.0,0.15480099999967933
530,20,0.5,0.0625,35.0,1,1.0,0.7202000000002045
531,20,0.5,1.0,-35.0,-1,1.0,0.4544999999998254
532,20,0.5,0.25,35.0,1,1.0,0.19369999999980791
533,20,0.5,0.125,35.0,1,1.0,0.40819999999985157
534,20,0.5,0.125,-35.0,-1,1.0,0.4472000000000662
535,20,0.5,0.125,-35.0,-1,1.0,0.4348009999998794
536,20,0.5,0.0625,-35.0,-1,1.0,0.6572999999998501
537,20,0.5,1.0,-35.0,-1,1.0,0.45810100000016973
538,20,0.5,0.0625,-35.0,-1,1.0,4.584100000000035
539,20,0.5,0.125,35.0,1,1.0,0.5218000000004395
540,20,0.5,1.0,-35.0,-1,1.0,0.3077000000002954
541,20,0.5,0.0625,35.0,1,1.0,1.9519000000000233
542,20,0.5,0.25,-35.0,-1,1.0,7.814700000000357
543,20,0.5,0.125,-35.0,-1,1.0,5.135501000000204
544,20,0.5,1.0,35.0,1,1.0,0.4216999999998734
545,20,0.5,0.125,35.0,-1,0.0,1.2393000000001848
546,20,0.5,0.25,-35.0,-1,1.0,0.5016999999998006
547,20,0.5,1.0,35.0,1,1.0,0.5727000000001681
548,20,0.5,0.25,35.0,1,1.0,0.6052009999998518
549,20,0.5,0.125,-35.0,-1,1.0,1.692700000000059
550,20,0.5,0.25,35.0,1,1.0,0.47859999999991487
551,20,0.5,0.125,35.0,1,1.0,1.3088010000001304
552,20,0.5,0.0625,35.0,1,1.0,0.47370000000046275
553,20,0.5,0.125,35.0,-1,0.0,0.14210000000002765
554,20,0.5,0.0,35.0,1,1.0,0.8966000000000349
555,20,0.5,0.0625,-35.0,1,0.0,1.8591010000000097
556,20,0.5,0.0625,-35.0,-1,1.0,2.543699999999717
557,20,0.5,1.0,35.0,1,1.0,0.2759000000000924
558,20,0.5,0.125,35.0,1,1.0,0.38360000000011496
559,20,0.5,0.0625,-35.0,-1,1.0,1.409599999999955
560,20,0.5,0.0,-35.0,-1,1.0,5.946900999999798
561,20,0.5,0.0625,35.0,1,1.0,0.8864000000003216
562,20,0.5,0.25,35.0,1,1.0,0.35720000000037544
563,20,0.5,0.25,35.0,1,1.0,0.40660099999968224
564,20,0.5,0.25,35.0,1,1.0,0.3276000000005297
565,20,0.5,1.0,35.0,1,1.0,1.653400000000147
566,20,0.5,0.125,-35.0,-1,1.0,0.18759999999974752
567,20,0.5,0.125,35.0,1,1.0,0.3667009999999209
568,20,0.5,1.0,35.0,1,1.0,0.27769999999964057
569,20,0.5,1.0,35.0,1,1.0,0.543699999999717
570,20,0.5,1.0,-35.0,-1,1.0,0.4280010000002221
571,20,0.5,1.0,-35.0,-1,1.0,2.5870999999997366
572,20,0.5,0.25,35.0,1,1.0,1.2216010000001916
573,20,0.5,0.25,35.0,1,1.0,0.31060000000024957
574,20,0.5,0.25,-35.0,-1,1.0,0.4317999999998392
575,20,0.5,0.25,-35.0,-1,1.0,3.543999999999869
576,20,0.5,0.125,35.0,-1,0.0,0.39190000000007785
577,20,0.5,0.25,35.0,-1,0.0,0.7175999999999476
578,20,0.5,0.125,35.0,-1,0.0,0.45549999999957436
579,20,0.5,0.0625,-35.0,-1,1.0,2.417699999999968
580,20,0.5,1.0,35.0,1,1.0,0.3720000000002983
581,20,0.5,1.0,35.0,1,1.0,0.28450000000020736
582,20,0.5,0.125,35.0,1,1.0,0.662499999999909
583,20,0.5,0.25,-35.0,-1,1.0,0.5581010000000788
584,20,0.5,0.125,-35.0,-1,1.0,0.4925010000001748
585,20,0.5,0.25,-35.0,-1,1.0,0.2584000000006199
586,20,0.5,0.0625,35.0,1,1.0,0.4092999999998028
587,20,0.5,0.0625,-35.0,-1,1.0,2.3115999999999985
588,20,0.5,0.0,-35.0,-1,1.0,1.3627010000000155
589,20,0.5,0.25,35.0,1,1.0,0.4286010000000715
590,20,0.5,1.0,-35.0,-1,1.0,0.2962009999996553
591,20,0.5,0.0,-35.0,-1,1.0,0.9119999999998072
592,20,0.5,0.25,-35.0,-1,1.0,3.3932999999997264
593,20,0.5,0.0,-35.0,-1,1.0,0.60550000000012
594,20,0.5,0.25,-35.0,-1,1.0,0.4034999999998945
595,20,0.5,1.0,-35.0,-1,1.0,0.3125999999997475
596,20,0.5,0.0625,35.0,1,1.0,3.1601000000000568
597,20,0.5,0.0,-35.0,-1,1.0,0.369499999999789
598,20,0.5,0.0625,35.0,1,1.0,0.6334999999999127
599,20,0.5,0.0625,35.0,1,1.0,3.502799999999752
600,20,0.5,0.0,35.0,1,1.0,0.4272000000000844
601,20,0.5,0.125,35.0,1,1.0,0.4764999999997599
602,20,0.5,1.0,35.0,1,1.0,0.3605999999999767
603,20,0.5,0.0625,35.0,1,1.0,8.26969999999983
604,20,0.5,0.25,35.0,1,1.0,0.3108999999999469
605,20,0.5,0.25,35.0,1,1.0,0.32700000000022555
606,20,0.5,0.125,35.0,1,1.0,0.28749999999990905
607,20,0.5,0.25,-35.0,1,0.0,3.64029999999957
608,20,0.5,0.0625,35.0,1,1.0,0.5214000000000851
609,20,0.5,0.25,35.0,1,1.0,1.0904999999997926
610,20,0.5,0.0625,35.0,1,1.0,3.18840100000034
611,20,0.5,0.0,-35.0,1,0.0,2.167399999999816
612,20,0.5,0.0625,35.0,1,1.0,0.4317999999998392
613,20,0.5,0.0625,35.0,-1,0.0,0.8874000000000706
614,20,0.5,0.25,35.0,1,1.0,0.5616999999997461
615,20,0.5,0.0,-35.0,-1,1.0,2.2310010000001057
616,20,0.5,1.0,35.0,1,1.0,0.5353999999997541
617,20,0.5,0.125,35.0,1,1.0,0.494499999999789
618,20,0.5,1.0,-35.0,-1,1.0,0.6123999999999796
619,20,0.5,1.0,-35.0,-1,1.0,0.41460000000006403
620,20,0.5,0.125,-35.0,-1,1.0,0.6956000000000131
621,20,0.5,0.25,-35.0,-1,1.0,0.3647000000000844
622,20,0.5,0.25,-35.0,-1,1.0,0.6156000000000859
623,20,0.5,0.0,-35.0,-1,1.0,0.6082999999998719
624,20,0.5,0.0625,35.0,1,1.0,1.3963010000002214
625,20,0.5,1.0,35.0,1,1.0,0.528400000000147
626,20,0.5,0.0625,-35.0,-1,1.0,1.569300000000112
627,20,0.5,1.0,35.0,1,1.0,0.49189999999953216
628,20,0.5,0.25,-35.0,-1,1.0,0.532799999999952
629,20,0.5,0.0625,-35.0,-1,1.0,0.40219999999999345
630,20,0.5,0.0,-35.0,-1,1.0,0.5063000000000102
631,20,0.5,0.0625,-35.0,-1,1.0,0.6622999999999593
632,20,0.5,1.0,35.0,1,1.0,0.44909999999981665
633,20,0.5,0.125,-35.0,-1,1.0,0.40730100000018865
634,20,0.5,0.0625,35.0,1,1.0,0.4459000000006199
635,20,0.5,1.0,-35.0,-1,1.0,0.40360000000009677
636,20,0.5,0.125,-35.0,-1,1.0,0.49020000000018626
637,20,0.5,1.0,35.0,1,1.0,0.43030099999987215
638,20,0.5,0.0625,35.0,1,1.0,0.7733000000002903
639,20,0.5,0.25,-35.0,-1,1.0,0.344300000000203
640,20,0.5,0.25,-35.0,-1,1.0,0.3730009999999311
641,20,0.5,0.25,-35.0,-1,1.0,0.40399999999999636
642,20,0.5,1.0,-35.0,-1,1.0,1.4233000000003813
643,20,0.5,0.125,35.0,1,1.0,0.427599999999984
644,20,0.5,1.0,-35.0,-1,1.0,0.48340000000052896
645,20,0.5,0.0625,35.0,1,1.0,2.3301000000001295
646,20,0.5,0.0625,-35.0,-1,1.0,0.5935999999996966
647,20,0.5,0.0625,35.0,-1,0.0,0.6815000000001419
648,20,0.5,0.0625,-35.0,-1,1.0,0.3704000000002452
649,20,0.5,0.25,35.0,1,1.0,0.22139999999990323
650,20,0.5,1.0,-35.0,-1,1.0,0.533799999999701
651,20,0.5,1.0,35.0,1,1.0,0.3252999999995154
652,20,0.5,0.125,35.0,1,1.0,0.6405009999998583
653,20,0.5,1.0,-35.0,-1,1.0,0.2852999999995518
654,20,0.5,0.0625,-35.0,-1,1.0,2.1006999999999607
655,20,0.5,0.25,35.0,1,1.0,0.47859999999991487
656,20,0.5,0.25,35.0,1,1.0,0.47119999999995343
657,20,0.5,0.125,35.0,1,1.0,0.3751009999996313
658,20,0.5,0.125,35.0,1,1.0,0.4877999999998792
659,20,0.5,1.0,35.0,1,1.0,0.3087000000000444
660,20,0.5,1.0,-35.0,-1,1.0,0.38140100000009625
661,20,0.5,1.0,35.0,1,1.0,0.28880100000014863
662,20,0.5,0.125,-35.0,-1,1.0,0.4315000000001419
663,20,0.5,0.0,-35.0,-1,1.0,0.4421999999995023
664,20,0.5,1.0,35.0,1,1.0,0.43160100000022794
665,20,0.5,1.0,35.0,1,1.0,0.31229999999959546
666,20,0.5,0.0625,35.0,-1,0.0,0.8584999999998217
667,20,0.5,0.0625,-35.0,-1,1.0,3.389299999999821
668,20,0.5,0.125,35.0,1,1.0,0.23220000000037544
669,20,0.5,0.0625,-35.0,-1,1.0,0.42650000000003274
670,20,0.5,0.125,35.0,1,1.0,0.6986000000001695
671,20,0.5,1.0,-35.0,-1,1.0,0.3966000000000349
672,20,0.5,1.0,35.0,1,1.0,0.46210000000019136
673,20,0.5,0.125,-35.0,-1,1.0,0.7331009999998059
674,20,0.5,0.25,-35.0,-1,1.0,1.6089999999999236
675,20,0.5,0.0625,35.0,1,1.0,0.8372010000002774
676,20,0.5,0.125,-35.0,-1,1.0,0.5357999999996537
677,20,0.5,0.125,-35.0,-1,1.0,7.557099999999991
678,20,0.5,0.0625,35.0,1,1.0,0.5394999999998618
679,20,0.5,1.0,-35.0,-1,1.0,7.007101000000148
680,20,0.5,0.25,-35.0,-1,1.0,0.8463999999999032
681,20,0.5,1.0,-35.0,-1,1.0,0.5275000000001455
682,20,0.5,0.125,35.0,1,1.0,0.6433999999999287
683,20,0.5,0.0,-35.0,1,0.0,3.7411999999999352
684,20,0.5,0.25,-35.0,-1,1.0,7.853501000000506
685,20,0.5,0.25,-35.0,-1,1.0,1.8980000000001382
686,20,0.5,1.0,-35.0,-1,1.0,0.36389999999983047
687,20,0.5,0.125,35.0,1,1.0,2.041400000000067
688,20,0.5,1.0,-35.0,-1,1.0,0.534099999999853
689,20,0.5,0.125,-35.0,-1,1.0,1.7316000000000713
690,20,0.5,0.25,35.0,1,1.0,0.510899999999765
691,20,0.5,0.0625,-35.0,-1,1.0,5.328600000000279
692,20,0.5,0.0625,35.0,1,1.0,0.40770100000008824
693,20,0.5,1.0,-35.0,-1,1.0,0.6286999999997533
694,20,0.5,0.25,35.0,1,1.0,7.358099999999922
695,20,0.5,1.0,35.0,1,1.0,0.4391000000000531
696,20,0.5,0.0625,-35.0,-1,1.0,3.8051000000000386
697,20,0.5,1.0,-35.0,-1,1.0,0.6222999999999956
698,20,0.5,0.125,-35.0,-1,1.0,2.241700000000037
699,20,0.5,0.0625,35.0,-1,0.0,0.8360009999996691
700,20,0.5,0.125,35.0,-1,0.0,1.8752009999998336
701,20,0.5,0.0625,-35.0,-1,1.0,6.759399999999914
702,20,0.5,1.0,-35.0,-1,1.0,0.5020999999997002
703,20,0.5,0.125,35.0,-1,0.0,1.2130999999999403
704,20,0.2,0.125,35.0,-1,0.0,4.612300000000232
705,20,0.5,1.0,35.0,1,1.0,0.29359999999996944
706,20,0.5,1.0,-35.0,-1,1.0,0.40590000000020154
707,20,0.5,1.0,-35.0,-1,1.0,1.4099999999998545
708,20,0.5,0.0625,35.0,1,1.0,0.4394999999999527
709,20,0.5,0.0625,35.0,1,1.0,7.123600000000351
710,20,0.5,0.125,35.0,1,1.0,2.586300000000392
711,20,0.5,0.0625,-35.0,-1,1.0,1.014100999999755
712,20,0.5,0.0,35.0,-1,0.0,6.253099999999904
713,20,0.5,0.0625,-35.0,-1,1.0,0.3744000000001506
714,20,0.5,0.0,-35.0,1,0.0,5.04340000000002
715,20,0.5,0.0,-35.0,-1,1.0,0.22100000000000364
716,20,0.5,0.0625,-35.0,-1,1.0,0.5270000000000437
717,20,0.5,0.0625,-35.0,-1,1.0,1.1448999999997795
718,20,0.5,0.0625,-35.0,1,0.0,0.3971999999998843
719,20,0.5,0.125,35.0,1,1.0,0.5848000000000866
720,20,0.5,0.0625,35.0,-1,0.0,2.3008999999997286
721,20,0.3,0.0625,35.0,1,1.0,0.8382000000001426
722,20,0.5,1.0,35.0,1,1.0,1.5243000000000393
723,20,0.5,1.0,35.0,1,1.0,0.39520000000038635
724,20,0.5,1.0,-35.0,-1,1.0,0.38089999999965585
725,20,0.5,1.0,35.0,1,1.0,0.399000999999771
726,20,0.5,0.0,35.0,-1,0.0,0.5511010000000169
727,20,0.5,0.125,35.0,1,1.0,0.4389000000001033
728,20,0.5,0.125,-35.0,-1,1.0,1.6846999999997934
729,20,0.5,0.0625,35.0,1,1.0,2.065900000000056
730,20,0.5,0.0625,35.0,1,1.0,0.6249000000002525
731,20,0.5,0.0625,35.0,1,1.0,3.9122999999999593
732,20,0.5,1.0,-35.0,-1,1.0,0.615099999999984
733,20,0.5,0.0625,-35.0,1,0.0,2.4028010000001814
734,20,0.5,0.125,35.0,1,1.0,0.2919000000001688
735,20,0.5,0.0625,35.0,1,1.0,0.3829009999999471
736,20,0.5,0.25,-35.0,1,0.0,1.8954000000003361
737,20,0.5,0.0625,-35.0,-1,1.0,2.399899999999434
738,20,0.5,1.0,-35.0,-1,1.0,0.8222000000000662
739,20,0.5,0.125,35.0,1,1.0,0.43990000000030705
740,20,0.5,0.25,-35.0,-1,1.0,0.4323999999996886
741,20,0.5,0.125,35.0,1,1.0,0.40079999999989013
742,20,0.5,1.0,-35.0,-1,1.0,0.3659010000001217
743,20,0.5,0.125,35.0,1,1.0,0.3769999999999527
744,20,0.5,0.125,-35.0,-1,1.0,1.2760010000001785
745,20,0.5,0.25,-35.0,-1,1.0,0.7102000000004409
746,20,0.5,0.0625,-35.0,-1,1.0,0.6828999999997905
747,20,0.5,1.0,35.0,1,1.0,0.39720100000022285
748,20,0.5,0.125,-35.0,-1,1.0,1.8298000000004322
