trial_num,session_num,stim_probability_left,contrast,position,response_choice,trial_correct,reaction_time
1,15,0.5,1.0,-35.0,-1,1.0,0.9916
2,15,0.5,0.25,35.0,1,1.0,0.48110100000000156
3,15,0.5,1.0,35.0,1,1.0,0.3497009999999996
4,15,0.5,0.25,-35.0,1,0.0,2.4278010000000005
5,15,0.5,0.0,35.0,-1,0.0,3.065399999999997
6,15,0.8,0.0,-35.0,1,0.0,4.735899999999997
7,15,0.5,1.0,-35.0,-1,1.0,0.19030099999999806
8,15,0.5,0.0625,-35.0,-1,1.0,0.23650100000000407
9,15,0.5,0.0625,35.0,-1,0.0,1.5848000000000013
10,15,0.5,0.0,-35.0,1,0.0,1.4524009999999947
11,15,0.5,0.25,35.0,1,1.0,3.7265999999999977
12,15,0.5,0.25,35.0,1,1.0,0.32089999999999463
13,15,0.5,0.25,-35.0,-1,1.0,0.18469999999999942
14,15,0.5,0.25,35.0,-1,0.0,0.12330000000000041
15,15,0.4,0.25,-35.0,1,0.0,0.21760100000000193
16,15,0.5,1.0,35.0,1,1.0,0.26730000000000587
17,15,0.5,0.0,35.0,1,1.0,6.257500999999991
18,15,0.5,0.125,35.0,1,1.0,2.420900000000003
19,15,0.5,0.25,-35.0,-1,1.0,0.18139999999999645
20,15,0.5,0.25,-35.0,-1,1.0,0.27780099999999663
21,15,0.5,0.125,35.0,1,1.0,2.3097999999999956
22,15,0.5,0.0625,35.0,1,1.0,0.3687009999999873
23,15,0.5,0.0625,-35.0,-1,1.0,0.2981010000000026
24,15,0.5,0.0625,-35.0,1,0.0,2.8759009999999847
25,15,0.5,0.0,-35.0,1,0.0,0.1910000000000025
26,15,0.5,0.0625,-35.0,-1,1.0,0.33619999999999095
27,15,0.5,0.125,35.0,-1,0.0,0.2372000000000014
28,15,0.5,0.125,35.0,1,1.0,4.135999999999996
29,15,0.5,1.0,35.0,1,1.0,0.29710099999999784
30,15,0.5,0.0625,-35.0,-1,1.0,0.2891010000000165
31,15,0.5,0.25,35.0,1,1.0,0.27550099999999134
32,15,0.5,1.0,35.0,1,1.0,0.3276010000000156
33,15,0.5,0.0,-35.0,-1,1.0,0.5020999999999844
34,15,0.5,0.25,-35.0,-1,1.0,0.43090100000000575
35,15,0.5,0.125,35.0,1,1.0,0.39820100000000025
36,15,0.5,0.0,35.0,-1,0.0,0.28120000000001255
37,15,0.5,0.25,-35.0,-1,1.0,0.3847009999999784
38,15,0.5,1.0,35.0,1,1.0,3.484500999999966
39,15,0.5,0.0625,35.0,1,1.0,0.3993009999999799
40,15,0.5,0.25,-35.0,-1,1.0,0.1782000000000039
41,15,0.5,0.25,35.0,-1,0.0,0.325300000000027
42,15,0.5,0.25,-35.0,-1,1.0,0.21940100000000484
43,15,0.5,0.0625,-35.0,-1,1.0,0.21720099999998865
44,15,0.5,1.0,-35.0,-1,1.0,0.19030099999997674
45,15,0.5,0.125,-35.0,-1,1.0,3.4196999999999775
46,15,0.5,0.0625,-35.0,1,0.0,6.431601000000001
47,15,0.5,0.25,35.0,1,1.0,0.31350100000000225
48,15,0.5,0.125,-35.0,-1,1.0,0.28360100000000443
49,15,0.5,0.125,-35.0,-1,1.0,0.25100100000000225
50,15,0.5,0.125,-35.0,-1,1.0,0.2873010000000136
51,15,0.5,1.0,-35.0,-1,1.0,0.23519999999999186
52,15,0.5,0.0625,35.0,-1,0.0,0.319800999999984
53,15,0.5,0.0,-35.0,1,0.0,0.4995000000000118
54,15,0.3,0.0,35.0,-1,0.0,2.6085999999999956
55,15,0.5,1.0,35.0,1,1.0,0.32229999999998427
56,15,0.5,0.25,35.0,1,1.0,0.44950099999999793
57,15,0.5,0.0625,-35.0,-1,1.0,0.2796000000000163
58,15,0.5,0.125,-35.0,-1,1.0,0.2196999999999889
59,15,0.5,1.0,-35.0,-1,1.0,0.16790000000000305
60,15,0.5,1.0,35.0,1,1.0,0.2376000000000431
61,15,0.5,0.125,-35.0,-1,1.0,0.5591000000000008
62,15,0.5,0.0,-35.0,1,0.0,3.344699999999989
63,15,0.5,0.0625,35.0,1,1.0,0.9908000000000357
64,15,0.5,0.125,-35.0,-1,1.0,0.28670099999999366
65,15,0.5,0.25,35.0,1,1.0,0.3054000000000201
66,15,0.5,0.0625,35.0,1,1.0,0.34580000000005384
67,15,0.5,1.0,35.0,1,1.0,0.3141000000000531
68,15,0.5,0.0625,35.0,1,1.0,0.3839009999999803
69,15,0.5,0.25,-35.0,-1,1.0,0.17820100000000139
70,15,0.5,0.125,-35.0,-1,1.0,0.5730000000000359
71,15,0.5,0.125,-35.0,-1,1.0,0.2576999999999998
72,15,0.5,0.25,35.0,1,1.0,0.3252000000000521
73,15,0.5,0.125,-35.0,-1,1.0,0.26949999999999363
74,15,0.5,0.0,35.0,1,1.0,0.41490000000004557
75,15,0.5,0.25,-35.0,-1,1.0,0.2779010000000426
76,15,0.5,0.25,35.0,1,1.0,0.19490100000001576
77,15,0.5,1.0,35.0,1,1.0,0.30560000000002674
78,15,0.5,0.125,-35.0,-1,1.0,0.2680000000000291
79,15,0.5,0.125,-35.0,-1,1.0,0.2952009999999632
80,15,0.5,1.0,-35.0,-1,1.0,0.21100100000006705
81,15,0.5,0.125,35.0,1,1.0,0.3015010000000302
82,15,0.5,1.0,-35.0,-1,1.0,0.21550100000007433
83,15,0.5,0.125,-35.0,-1,1.0,0.2504010000000676
84,15,0.5,1.0,35.0,1,1.0,0.3030010000000516
85,15,0.5,0.0625,-35.0,1,0.0,0.7366000000000099
86,15,0.5,0.0625,-35.0,-1,1.0,0.380299999999977
87,15,0.5,0.125,-35.0,-1,1.0,0.3610010000000443
88,15,0.5,0.125,-35.0,-1,1.0,0.4800000000000182
89,15,0.5,0.25,-35.0,-1,1.0,0.36920000000003483
90,15,0.5,0.125,35.0,1,1.0,0.500300999999979
91,15,0.5,1.0,-35.0,-1,1.0,0.26729999999997744
92,15,0.5,1.0,-35.0,-1,1.0,0.2515000000000214
93,15,0.5,0.25,35.0,1,1.0,0.33559999999999945
94,15,0.5,0.0,-35.0,1,0.0,0.5683000000000789
95,15,0.5,0.25,-35.0,-1,1.0,0.21760100000005878
96,15,0.5,1.0,35.0,1,1.0,0.22130000000004202
97,15,0.5,0.0,35.0,-1,0.0,0.2943000000000211
98,15,0.4,0.0,-35.0,1,0.0,0.5792999999999893
99,15,0.5,1.0,-35.0,1,0.0,0.1233010000000263
100,15,0.5,0.0,35.0,-1,0.0,1.721400000000017
101,15,0.5,0.0,35.0,-1,0.0,1.696700000000078
102,15,0.5,0.25,-35.0,-1,1.0,0.33710000000007767
103,15,0.5,1.0,35.0,1,1.0,0.34840100000002394
104,15,0.5,1.0,35.0,1,1.0,0.4784999999999968
105,15,0.5,1.0,35.0,1,1.0,0.2814999999999941
106,15,0.5,0.25,35.0,1,1.0,0.2875010000000202
107,15,0.5,0.25,-35.0,-1,1.0,0.19670000000007803
108,15,0.5,0.0,-35.0,1,0.0,0.2232010000000173
109,15,0.5,0.125,35.0,1,1.0,0.6865000000000236
110,15,0.5,0.0625,-35.0,-1,1.0,0.27660100000002785
111,15,0.5,0.0625,35.0,1,1.0,0.35210100000000466
112,15,0.5,0.125,-35.0,-1,1.0,0.24860000000001037
113,15,0.5,0.0625,35.0,1,1.0,0.3458010000000513
114,15,0.5,1.0,-35.0,-1,1.0,0.20360099999999193
115,15,0.5,1.0,35.0,1,1.0,0.2950010000000134
116,15,0.5,0.0,-35.0,1,0.0,0.24259999999998172
117,15,0.6,0.0,35.0,1,1.0,0.2942010000000437
118,15,0.5,1.0,-35.0,-1,1.0,0.1937000000000353
119,15,0.5,1.0,35.0,1,1.0,0.2939999999999827
120,15,0.5,0.0625,-35.0,1,0.0,0.29470100000003185
121,15,0.5,0.125,35.0,1,1.0,0.32610000000005357
122,15,0.5,0.0,-35.0,-1,1.0,0.11240000000003647
123,15,0.5,0.0,-35.0,-1,1.0,0.3977010000000405
124,15,0.5,0.0625,35.0,-1,0.0,0.3958010000000627
125,15,0.6,0.0625,-35.0,-1,1.0,0.44589999999999463
126,15,0.5,1.0,35.0,1,1.0,0.2844000000000051
127,15,0.5,0.0625,35.0,1,1.0,0.5189000000000306
128,15,0.5,0.0625,35.0,1,1.0,0.5910000000000082
129,15,0.5,0.0625,-35.0,-1,1.0,0.2411000000000172
130,15,0.5,0.0,35.0,1,1.0,0.4391000000000531
131,15,0.5,0.0625,35.0,1,1.0,0.366800000000012
132,15,0.5,0.25,-35.0,-1,1.0,0.21490000000005693
133,15,0.5,0.25,-35.0,-1,1.0,0.23890000000005784
134,15,0.5,0.125,-35.0,-1,1.0,0.16099999999994452
135,15,0.5,1.0,35.0,1,1.0,0.3329000000001088
136,15,0.5,0.125,-35.0,-1,1.0,0.1328009999999722
137,15,0.5,0.0625,35.0,1,1.0,0.5810010000000148
138,15,0.5,0.125,-35.0,-1,1.0,0.3256010000001197
139,15,0.5,0.125,35.0,1,1.0,0.27089999999998327
140,15,0.5,0.0,35.0,1,1.0,0.47880099999997583
141,15,0.5,1.0,-35.0,-1,1.0,0.21600000000000819
142,15,0.5,0.0625,35.0,1,1.0,0.3607010000000628
143,15,0.5,0.25,-35.0,-1,1.0,0.22410100000001876
144,15,0.5,0.25,35.0,1,1.0,0.24100099999998292
145,15,0.5,0.125,-35.0,1,0.0,0.6331000000000131
146,15,0.5,0.125,-35.0,-1,1.0,0.34199999999998454
147,15,0.5,0.125,35.0,1,1.0,0.2653010000000222
148,15,0.5,0.25,-35.0,-1,1.0,0.20340100000009897
149,15,0.5,1.0,35.0,1,1.0,0.1732000000000653
150,15,0.5,0.25,35.0,1,1.0,0.3264000000000351
151,15,0.5,0.125,-35.0,-1,1.0,0.3842009999999618
152,15,0.5,0.0625,35.0,1,1.0,0.17000100000007023
153,15,0.5,0.25,35.0,1,1.0,0.314200000000028
154,15,0.5,0.0625,-35.0,-1,1.0,0.2219000000000051
155,15,0.5,0.25,-35.0,-1,1.0,0.20220100000005914
156,15,0.5,0.25,35.0,1,1.0,0.26060100000006514
157,15,0.5,0.0,35.0,-1,0.0,1.4037010000000691
158,15,0.5,0.25,35.0,1,1.0,0.2798000000000229
159,15,0.5,0.0625,-35.0,-1,1.0,0.3375010000000884
160,15,0.5,0.25,35.0,1,1.0,0.2880000000000109
161,15,0.5,0.25,35.0,1,1.0,0.2863009999999804
162,15,0.5,0.0625,-35.0,1,0.0,0.36120100000005095
163,15,0.6,0.0625,-35.0,1,0.0,6.331400000000031
164,15,0.5,1.0,35.0,1,1.0,0.32650000000001
165,15,0.5,0.125,-35.0,-1,1.0,0.24350000000004002
166,15,0.5,1.0,-35.0,-1,1.0,0.22199999999998
167,15,0.5,0.125,35.0,1,1.0,0.2914010000000644
168,15,0.5,0.25,35.0,1,1.0,0.2897000000000389
169,15,0.5,1.0,-35.0,-1,1.0,0.16770099999996546
170,15,0.5,0.125,-35.0,-1,1.0,0.22600099999999657
171,15,0.5,0.25,35.0,1,1.0,0.25050100000009934
172,15,0.5,0.25,35.0,1,1.0,0.28920000000005075
173,15,0.5,1.0,-35.0,-1,1.0,0.10710000000005948
174,15,0.5,0.25,-35.0,1,0.0,0.6992999999999938
175,15,0.5,0.25,35.0,1,1.0,0.2716010000000324
176,15,0.5,0.125,-35.0,-1,1.0,0.24099999999998545
177,15,0.5,0.125,-35.0,-1,1.0,0.32970000000011623
178,15,0.5,0.125,35.0,1,1.0,0.3423000000000229
179,15,0.5,0.0625,35.0,1,1.0,0.4468010000000504
180,15,0.5,0.0,35.0,-1,0.0,0.17770099999995637
181,15,0.5,0.125,35.0,1,1.0,0.2878000000000611
182,15,0.5,0.0625,-35.0,-1,1.0,0.26020100000005186
183,15,0.5,0.125,35.0,1,1.0,0.3020010000000184
184,15,0.5,1.0,35.0,1,1.0,0.30870100000004186
185,15,0.5,1.0,35.0,1,1.0,0.25480100000004313
186,15,0.5,0.125,35.0,1,1.0,0.3198000000001002
187,15,0.5,1.0,35.0,1,1.0,0.2828999999999269
188,15,0.5,0.0625,-35.0,1,0.0,7.0031999999999925
189,15,0.5,0.125,35.0,1,1.0,0.2819000000000642
190,15,0.5,1.0,35.0,1,1.0,0.1993999999999687
191,15,0.5,0.25,-35.0,-1,1.0,0.1950010000000475
192,15,0.5,1.0,35.0,1,1.0,0.2975010000000111
193,15,0.5,0.0625,-35.0,-1,1.0,0.23420099999998456
194,15,0.5,0.0625,35.0,1,1.0,0.31799999999998363
195,15,0.5,0.125,35.0,1,1.0,0.30110000000013315
196,15,0.5,0.125,-35.0,-1,1.0,0.2312010000000555
197,15,0.5,0.0625,35.0,1,1.0,0.29509999999993397
198,15,0.5,0.0,35.0,1,1.0,0.4714000000000169
199,15,0.5,0.125,35.0,1,1.0,0.2601000000000795
200,15,0.5,0.125,35.0,1,1.0,0.15819999999996526
201,15,0.5,0.25,-35.0,-1,1.0,0.2521009999999251
202,15,0.5,0.0625,35.0,1,1.0,0.3948010000000295
203,15,0.5,1.0,-35.0,-1,1.0,0.2032010000000355
204,15,0.5,0.125,35.0,1,1.0,0.15080000000000382
205,15,0.5,0.0,-35.0,-1,1.0,0.1386010000001079
206,15,0.5,0.25,35.0,1,1.0,0.41540100000008806
207,15,0.5,0.0625,-35.0,-1,1.0,0.23830099999997856
208,15,0.5,1.0,-35.0,-1,1.0,0.2135000000000673
209,15,0.5,0.125,35.0,1,1.0,0.2723000000000866
210,15,0.5,1.0,-35.0,-1,1.0,0.28830100000004677
211,15,0.5,1.0,-35.0,-1,1.0,0.20630000000005566
212,15,0.5,0.0,35.0,1,1.0,0.3906010000000606
213,15,0.5,0.25,-35.0,-1,1.0,0.24240099999997256
214,15,0.5,0.0,-35.0,1,0.0,0.1304010000000062
215,15,0.5,0.0625,35.0,1,1.0,0.28040099999998347
216,15,0.5,0.0,-35.0,1,0.0,1.4575999999999567
217,15,0.5,0.0,35.0,-1,0.0,0.2375000000000682
218,15,0.5,1.0,-35.0,-1,1.0,0.24639999999999418
219,15,0.5,0.125,-35.0,-1,1.0,0.43040000000007694
220,15,0.5,0.25,35.0,1,1.0,0.4225010000000111
221,15,0.5,0.125,-35.0,-1,1.0,0.14340100000003986
222,15,0.5,1.0,35.0,1,1.0,0.25240100000007715
223,15,0.5,0.0625,-35.0,-1,1.0,0.22460100000000693
224,15,0.5,0.0,35.0,1,1.0,0.23080000000004475
225,15,0.5,0.125,-35.0,-1,1.0,0.22950000000003
226,15,0.5,0.25,35.0,1,1.0,0.257300999999984
227,15,0.5,0.25,35.0,1,1.0,0.2551010000000815
228,15,0.5,0.0625,-35.0,-1,1.0,0.2753010000000131
229,15,0.5,0.125,35.0,1,1.0,0.4752000000000862
230,15,0.5,0.0625,-35.0,-1,1.0,0.19610099999999875
231,15,0.5,1.0,35.0,1,1.0,0.1710000000000491
232,15,0.5,1.0,35.0,1,1.0,0.29450100000008206
233,15,0.5,0.125,35.0,1,1.0,0.3099000000000842
234,15,0.5,1.0,-35.0,-1,1.0,0.22030000000006567
235,15,0.5,0.0625,-35.0,-1,1.0,0.3863010000000031
236,15,0.5,1.0,35.0,1,1.0,0.2457000000000562
237,15,0.5,0.0625,-35.0,1,0.0,0.3300010000000384
238,15,0.5,0.125,-35.0,-1,1.0,0.22400100000015755
239,15,0.5,0.0625,35.0,1,1.0,0.24640000000010787
240,15,0.5,0.125,-35.0,-1,1.0,0.22780099999999948
241,15,0.5,0.0,35.0,-1,0.0,0.2118000000000393
242,15,0.5,0.125,-35.0,-1,1.0,0.2938000000001466
243,15,0.5,0.125,-35.0,-1,1.0,0.26490000000012515
244,15,0.5,0.0625,-35.0,-1,1.0,1.4829010000000835
245,15,0.5,0.25,35.0,1,1.0,0.46879999999998745
246,15,0.5,0.25,35.0,1,1.0,0.2826999999999771
247,15,0.5,0.0625,35.0,1,1.0,0.42820099999994454
248,15,0.5,0.125,35.0,1,1.0,0.4999000000000251
249,15,0.5,0.125,-35.0,-1,1.0,0.5741010000000415
250,15,0.5,1.0,35.0,1,1.0,0.27630099999998947
251,15,0.5,0.0625,-35.0,1,0.0,0.44620099999997365
252,15,0.5,0.25,35.0,1,1.0,0.4679000000000997
253,15,0.5,1.0,35.0,1,1.0,0.2881999999999607
254,15,0.5,1.0,35.0,1,1.0,0.41430000000002565
255,15,0.5,0.0625,35.0,1,1.0,0.4781000000000404
256,15,0.5,0.125,35.0,1,1.0,0.27020100000004277
257,15,0.5,0.125,35.0,-1,0.0,0.4132000000000744
258,15,0.5,0.0,35.0,-1,0.0,0.31910000000004857
259,15,0.5,0.25,-35.0,-1,1.0,0.24310099999991053
260,15,0.5,0.25,-35.0,-1,1.0,0.2665999999999258
261,15,0.5,0.0625,-35.0,-1,1.0,0.20220000000006166
262,15,0.5,0.0625,35.0,-1,0.0,0.20630100000005314
263,15,0.4,0.0625,35.0,1,1.0,0.292699999999968
264,15,0.5,1.0,35.0,1,1.0,0.47650099999998474
265,15,0.5,0.0625,35.0,1,1.0,0.38210000000003674
266,15,0.5,0.125,-35.0,1,0.0,0.4067000000000007
267,15,0.5,0.0625,35.0,1,1.0,0.3843010000000504
268,15,0.5,0.0625,-35.0,1,0.0,0.32690100000002076
269,15,0.6,0.0625,35.0,1,1.0,0.6503000000000156
270,15,0.5,1.0,35.0,1,1.0,0.27370099999996
271,15,0.5,1.0,35.0,1,1.0,0.3744010000000344
272,15,0.5,1.0,35.0,1,1.0,0.31060100000013335
273,15,0.5,0.25,-35.0,-1,1.0,0.352500000000191
274,15,0.5,0.25,-35.0,-1,1.0,0.3176009999999678
275,15,0.5,0.0,35.0,1,1.0,0.2826000000000022
276,15,0.5,0.25,-35.0,1,0.0,3.7144009999999525
277,15,0.8,0.25,-35.0,-1,1.0,0.2598000000000411
278,15,0.5,1.0,-35.0,-1,1.0,0.21460100000012972
279,15,0.5,1.0,-35.0,-1,1.0,0.19160099999999147
280,15,0.5,0.25,-35.0,-1,1.0,0.2113010000000486
281,15,0.5,1.0,35.0,-1,0.0,0.20100099999990562
282,15,0.3,1.0,-35.0,-1,1.0,0.2515000000000782
283,15,0.5,1.0,35.0,1,1.0,0.2376009999998132
284,15,0.5,1.0,-35.0,-1,1.0,0.22870000000011714
285,15,0.5,0.25,-35.0,-1,1.0,0.20670000000018263
286,15,0.5,1.0,-35.0,-1,1.0,0.14180100000021412
287,15,0.5,0.25,35.0,1,1.0,0.6636999999998352
288,15,0.5,1.0,-35.0,-1,1.0,0.2589010000001508
289,15,0.5,0.125,-35.0,1,0.0,2.8597010000000864
290,15,0.3,0.125,35.0,1,1.0,0.38560099999995145
291,15,0.5,1.0,-35.0,-1,1.0,0.19110000000000582
292,15,0.5,0.25,35.0,1,1.0,0.2823009999999613
293,15,0.5,0.125,35.0,1,1.0,0.1947010000001228
294,15,0.5,0.125,35.0,1,1.0,0.32930000000010295
295,15,0.5,0.125,35.0,1,1.0,0.2508010000001377
296,15,0.5,0.25,-35.0,-1,1.0,0.2529010000000653
297,15,0.5,1.0,-35.0,-1,1.0,0.19820000000026994
298,15,0.5,0.25,-35.0,-1,1.0,0.18960100000003877
299,15,0.5,0.25,35.0,-1,0.0,0.23490000000015243
300,15,0.5,0.25,-35.0,-1,1.0,0.23620000000005348
301,15,0.5,1.0,-35.0,-1,1.0,0.21200099999987287
302,15,0.5,0.0625,-35.0,1,0.0,3.5932010000001355
303,15,0.5,0.125,35.0,1,1.0,0.3390999999999167
304,15,0.5,0.125,35.0,1,1.0,0.30340000000001055
305,15,0.5,0.0625,35.0,1,1.0,0.5010999999999513
306,15,0.5,0.0625,-35.0,-1,1.0,0.3170000000000073
307,15,0.5,0.0,35.0,-1,0.0,0.22610099999997146
308,15,0.4,0.0,35.0,-1,0.0,0.3004000000000815
309,15,0.5,1.0,35.0,1,1.0,0.5127009999998791
310,15,0.5,0.25,35.0,1,1.0,0.30740000000014334
311,15,0.5,1.0,-35.0,-1,1.0,0.20120100000008279
312,15,0.5,0.0625,-35.0,-1,1.0,0.23079999999981737
313,15,0.5,0.0625,35.0,1,1.0,0.26630100000011225
314,15,0.5,0.125,-35.0,-1,1.0,0.30090100000006714
315,15,0.5,0.125,-35.0,-1,1.0,0.39960100000007515
316,15,0.5,1.0,-35.0,-1,1.0,0.19470000000001164
317,15,0.5,0.0,-35.0,1,0.0,7.40620100000001
318,15,0.5,0.25,-35.0,-1,1.0,0.2582999999999629
319,15,0.5,0.125,-35.0,-1,1.0,0.21430000000009386
320,15,0.5,0.25,-35.0,-1,1.0,0.23840099999983977
321,15,0.5,0.25,35.0,1,1.0,0.539400999999998
322,15,0.5,0.25,-35.0,-1,1.0,0.21839999999997417
323,15,0.5,0.125,-35.0,-1,1.0,0.289400999999998
324,15,0.5,1.0,35.0,1,1.0,0.22849999999993997
325,15,0.5,0.25,35.0,1,1.0,0.30740000000014334
326,15,0.5,0.0,35.0,-1,0.0,0.23869999999988067
327,15,0.5,0.125,-35.0,1,0.0,3.815599999999904
328,15,0.4,0.125,35.0,1,1.0,0.2657000000001517
329,15,0.5,1.0,35.0,1,1.0,0.16860100000030798
330,15,0.5,0.0625,35.0,1,1.0,0.40249999999991815
331,15,0.5,1.0,35.0,1,1.0,0.2581009999998969
332,15,0.5,0.0,-35.0,-1,1.0,0.18590000000017426
333,15,0.5,0.125,-35.0,1,0.0,0.2478000000000975
334,15,0.8,0.125,35.0,1,1.0,0.4829010000000835
335,15,0.5,1.0,-35.0,-1,1.0,0.19810000000006767
336,15,0.5,0.0625,35.0,-1,0.0,0.38609999999994216
337,15,0.7,0.0625,-35.0,-1,1.0,0.22170099999993909
338,15,0.5,1.0,35.0,1,1.0,0.27300100000002203
339,15,0.5,0.125,-35.0,1,0.0,0.37970000000018445
340,15,0.5,0.125,35.0,1,1.0,0.8731010000001334
341,15,0.5,0.25,35.0,1,1.0,0.31670099999996637
342,15,0.5,1.0,35.0,1,1.0,0.38030000000003383
343,15,0.5,0.125,35.0,1,1.0,0.3067000000000917
344,15,0.5,0.0,35.0,1,1.0,2.94380000000001
345,15,0.5,0.0625,35.0,1,1.0,0.463799999999992
346,15,0.5,0.0625,35.0,1,1.0,0.36720100000002276
347,15,0.5,0.0,-35.0,1,0.0,0.6348009999999249
348,15,0.5,0.25,35.0,1,1.0,0.3572999999998956
349,15,0.5,0.0625,35.0,1,1.0,0.323900999999978
350,15,0.5,0.0625,-35.0,-1,1.0,0.36740099999997256
351,15,0.5,0.25,-35.0,-1,1.0,0.21850000000017644
352,15,0.5,0.25,35.0,1,1.0,0.48100099999987833
353,15,0.5,0.0,35.0,-1,0.0,0.2699000000000069
354,15,0.5,0.0625,35.0,1,1.0,4.134700000000066
355,15,0.5,0.25,35.0,1,1.0,0.2540010000000166
356,15,0.5,1.0,35.0,1,1.0,0.3080000000002201
357,15,0.5,1.0,35.0,1,1.0,0.2641009999999824
358,15,0.5,0.25,35.0,1,1.0,0.3216000000002168
359,15,0.5,0.0625,-35.0,-1,1.0,0.635101000000077
360,15,0.5,0.125,35.0,1,1.0,0.5951999999999771
361,15,0.5,0.0625,-35.0,-1,1.0,0.27520000000004075
362,15,0.5,0.0625,-35.0,-1,1.0,0.19220000000018445
363,15,0.5,0.0,35.0,1,1.0,4.587200000000166
364,15,0.5,0.0625,35.0,1,1.0,0.37550000000010186
365,15,0.5,0.125,35.0,1,1.0,0.41430000000013933
366,15,0.5,0.25,35.0,1,1.0,0.39239999999995234
367,15,0.5,0.125,-35.0,-1,1.0,0.27130000000011023
368,15,0.5,1.0,35.0,1,1.0,0.4393000000002303
369,15,0.5,0.25,35.0,1,1.0,0.42030099999988124
370,15,0.5,0.125,-35.0,-1,1.0,0.3863000000001193
371,15,0.5,0.0625,-35.0,-1,1.0,0.21139999999991232
372,15,0.5,0.0625,-35.0,-1,1.0,0.23280100000010862
373,15,0.5,0.0,35.0,1,1.0,0.6274010000001908
374,15,0.5,0.0625,-35.0,-1,1.0,0.19650100000012571
375,15,0.5,0.0625,-35.0,-1,1.0,0.25040000000012697
376,15,0.5,0.125,-35.0,-1,1.0,0.16980100000000675
377,15,0.5,1.0,35.0,1,1.0,0.32229999999981374
378,15,0.5,1.0,35.0,1,1.0,0.35349999999994
379,15,0.5,0.25,-35.0,-1,1.0,0.1894999999999527
380,15,0.5,0.25,-35.0,-1,1.0,0.21360100000015336
381,15,0.5,0.25,35.0,-1,0.0,0.18260000000009313
382,15,0.5,0.0,-35.0,-1,1.0,0.24060099999996964
383,15,0.5,1.0,35.0,1,1.0,0.4624999999998636
384,15,0.5,0.25,35.0,1,1.0,0.6673010000001796
385,15,0.5,0.0625,-35.0,-1,1.0,0.22759999999993852
386,15,0.5,0.0625,35.0,1,1.0,0.324301000000105
387,15,0.5,0.0625,35.0,1,1.0,0.33590000000003783
388,15,0.5,0.0,-35.0,1,0.0,2.4876010000000406
389,15,0.5,0.0625,-35.0,-1,1.0,0.27070100000014463
390,15,0.5,0.0625,-35.0,-1,1.0,3.2311010000000806
391,15,0.5,0.25,35.0,1,1.0,0.30369999999993524
392,15,0.5,0.25,35.0,1,1.0,0.32490099999995437
393,15,0.5,0.0,-35.0,1,0.0,0.28599999999983083
394,15,0.5,0.0,35.0,-1,0.0,0.3082010000000537
395,15,0.5,0.0625,-35.0,-1,1.0,0.2337999999999738
396,15,0.5,0.25,35.0,-1,0.0,0.23520000000007713
397,15,0.5,0.25,35.0,1,1.0,0.2737999999999374
398,15,0.5,1.0,-35.0,-1,1.0,0.24200000000018917
399,15,0.5,1.0,-35.0,-1,1.0,0.22190100000011626
400,15,0.5,1.0,-35.0,-1,1.0,0.2587999999998374
401,15,0.5,0.125,35.0,1,1.0,0.36990000000014334
402,15,0.5,0.0,-35.0,-1,1.0,0.2558999999998832
403,15,0.5,0.125,35.0,1,1.0,0.3141009999999369
404,15,0.5,0.125,35.0,1,1.0,0.3825010000000475
405,15,0.5,0.0625,-35.0,-1,1.0,0.4150009999998474
406,15,0.5,0.25,35.0,1,1.0,0.3360009999998965
407,15,0.5,0.0,35.0,-1,0.0,3.0631000000000768
408,15,0.5,0.125,-35.0,1,0.0,0.48100099999987833
409,15,0.5,0.25,35.0,1,1.0,0.3162999999999556
410,15,0.5,1.0,35.0,1,1.0,0.3765000000000782
411,15,0.5,1.0,35.0,1,1.0,0.39520100000004277
412,15,0.5,1.0,35.0,1,1.0,0.3366009999999733
413,15,0.5,0.125,35.0,1,1.0,0.23919999999998254
414,15,0.5,1.0,35.0,1,1.0,0.12329999999997199
415,15,0.5,1.0,-35.0,-1,1.0,0.2613010000000031
416,15,0.5,0.125,35.0,1,1.0,0.60020099999997
417,15,0.5,0.0,35.0,-1,0.0,0.1573000000000775
418,15,0.5,0.125,-35.0,-1,1.0,0.2936010000000806
419,15,0.5,1.0,35.0,1,1.0,0.43330100000025595
420,15,0.5,0.125,35.0,1,1.0,0.47060099999998783
421,15,0.5,0.125,35.0,1,1.0,0.30130099999996673
422,15,0.5,0.0625,35.0,1,1.0,0.32740000000012515
423,15,0.5,1.0,-35.0,-1,1.0,0.2131010000000515
424,15,0.5,1.0,-35.0,-1,1.0,0.2074999999999818
425,15,0.5,1.0,35.0,1,1.0,0.39640000000008513
426,15,0.5,0.125,-35.0,-1,1.0,0.22780100000022685
427,15,0.5,0.0625,-35.0,-1,1.0,0.23870099999999184
428,15,0.5,0.0,35.0,1,1.0,0.3244010000000799
429,15,0.5,0.125,35.0,1,1.0,0.4245010000001912
430,15,0.5,0.0,-35.0,1,0.0,0.3380010000000766
431,15,0.5,0.125,35.0,1,1.0,0.3344999999999345
432,15,0.5,0.125,35.0,1,1.0,0.25860000000011496
433,15,0.5,0.25,35.0,1,1.0,0.45210099999985687
434,15,0.5,0.25,-35.0,-1,1.0,0.23850099999981467
435,15,0.5,0.125,35.0,1,1.0,0.2626000000000204
436,15,0.5,1.0,35.0,1,1.0,0.35550000000012005
437,15,0.5,1.0,-35.0,-1,1.0,0.20270000000027721
438,15,0.5,0.25,-35.0,-1,1.0,0.2187010000002374
439,15,0.5,1.0,-35.0,-1,1.0,0.20960100000002058
440,15,0.5,0.0,35.0,1,1.0,0.5459000000000742
441,15,0.5,1.0,35.0,1,1.0,0.30100100000004204
442,15,0.5,0.0625,-35.0,1,0.0,0.5656999999998789
443,15,0.5,0.125,35.0,1,1.0,0.48160100000018247
444,15,0.5,0.0625,-35.0,1,0.0,0.28270100000008824
445,15,0.5,0.25,35.0,1,1.0,0.36580099999991944
446,15,0.5,0.25,-35.0,-1,1.0,0.27280000000018845
447,15,0.5,0.25,-35.0,-1,1.0,0.26880099999993945
448,15,0.5,0.25,35.0,1,1.0,0.3061010000001261
449,15,0.5,0.25,35.0,1,1.0,0.27090099999986705
450,15,0.5,1.0,35.0,1,1.0,0.3966000000000349
451,15,0.5,1.0,-35.0,-1,1.0,0.20890099999996892
452,15,0.5,0.0625,35.0,-1,0.0,0.2533000000000811
453,15,0.6,0.0625,-35.0,-1,1.0,0.2309010000001308
454,15,0.5,1.0,35.0,1,1.0,0.3469000000000051
455,15,0.5,0.0,-35.0,1,0.0,0.5957999999998265
456,15,0.5,0.125,35.0,1,1.0,0.4472000000000662
457,15,0.5,1.0,-35.0,-1,1.0,0.25900000000001455
458,15,0.5,0.25,35.0,1,1.0,0.2971010000001115
459,15,0.5,0.125,35.0,1,1.0,0.1790000000000873
460,15,0.5,0.25,-35.0,-1,1.0,0.2339999999999236
461,15,0.5,0.125,-35.0,1,0.0,0.40580000000022665
462,15,0.5,0.125,-35.0,-1,1.0,0.1875999999999749
463,15,0.5,0.125,35.0,1,1.0,0.5651000000000295
464,15,0.5,0.0625,35.0,1,1.0,1.6477010000000973
465,15,0.5,0.125,35.0,1,1.0,0.32320099999992635
466,15,0.5,0.0,35.0,1,1.0,0.6212010000001555
467,15,0.5,0.0625,35.0,-1,0.0,0.41320100000007187
468,15,0.7,0.0625,35.0,1,1.0,0.3346000000001368
469,15,0.5,1.0,-35.0,-1,1.0,0.24620000000004438
470,15,0.5,0.25,-35.0,-1,1.0,0.23149999999986903
471,15,0.5,0.0625,35.0,1,1.0,0.38560100000017883
472,15,0.5,0.25,-35.0,-1,1.0,0.24159999999983484
473,15,0.5,1.0,35.0,1,1.0,0.2232000000001335
474,15,0.5,0.125,35.0,1,1.0,0.3185009999999693
475,15,0.5,0.25,-35.0,-1,1.0,0.2434009999999489
476,15,0.5,1.0,35.0,1,1.0,0.3421009999999569
477,15,0.5,1.0,35.0,1,1.0,0.29680099999995946
478,15,0.5,1.0,35.0,1,1.0,0.3187000000000353
479,15,0.5,0.25,-35.0,-1,1.0,0.2622999999998683
480,15,0.5,0.125,35.0,1,1.0,0.7823000000000775
481,15,0.5,1.0,-35.0,-1,1.0,0.2114010000000235
482,15,0.5,0.0625,35.0,1,1.0,0.30910000000017135
483,15,0.5,0.0,-35.0,1,0.0,3.166500000000042
484,15,0.5,0.0,35.0,1,1.0,0.5431009999997514
485,15,0.5,1.0,35.0,1,1.0,0.33169999999995525
486,15,0.5,0.125,-35.0,-1,1.0,0.3062999999999647
487,15,0.5,0.25,35.0,1,1.0,0.3946000000000822
488,15,0.5,1.0,35.0,1,1.0,0.3666000000000622
489,15,0.5,0.25,35.0,1,1.0,1.0816000000002077
490,15,0.5,0.25,-35.0,-1,1.0,0.263700000000199
491,15,0.5,1.0,-35.0,-1,1.0,0.23469999999997526
492,15,0.5,0.0,-35.0,1,0.0,0.4368010000000595
493,15,0.5,0.125,35.0,1,1.0,0.30369999999993524
494,15,0.5,1.0,35.0,1,1.0,0.32700100000010934
495,15,0.5,1.0,-35.0,-1,1.0,0.28270100000008824
496,15,0.5,0.125,-35.0,1,0.0,0.37419999999997344
497,15,0.5,0.0625,35.0,1,1.0,0.4437000000000353
498,15,0.5,0.0,-35.0,1,0.0,5.570799999999963
499,15,0.7,0.0,-35.0,1,0.0,0.3549000000000433
500,15,0.5,1.0,35.0,1,1.0,0.37780099999986305
501,15,0.5,0.125,-35.0,-1,1.0,0.2667999999998756
502,15,0.5,0.125,-35.0,-1,1.0,0.2577009999999973
503,15,0.5,0.0625,35.0,1,1.0,0.5909010000002581
504,15,0.5,0.0625,-35.0,1,0.0,4.18460099999993
505,15,0.5,0.25,35.0,1,1.0,0.557901000000129
506,15,0.5,0.0625,-35.0,-1,1.0,10.408300999999938
507,15,0.5,0.125,35.0,1,1.0,0.484000000000151
508,15,0.5,1.0,35.0,1,1.0,0.37530100000003586
509,15,0.5,0.0625,-35.0,1,0.0,0.6520000000000437
510,15,0.5,0.0,-35.0,1,0.0,5.078700000000026
511,15,0.7,0.0,35.0,1,1.0,33.46030000000019
512,15,0.5,1.0,-35.0,-1,1.0,0.19340100000022176
513,15,0.5,0.0625,-35.0,-1,1.0,3.189401000000089
514,15,0.5,0.125,-35.0,-1,1.0,0.2434009999999489
515,15,0.5,0.0625,-35.0,-1,1.0,0.26450099999988197
516,15,0.5,0.25,35.0,1,1.0,0.6469999999994798
517,15,0.5,1.0,-35.0,-1,1.0,0.18910000000005311
518,15,0.5,0.0625,35.0,1,1.0,0.5304999999993925
519,15,0.5,0.25,35.0,1,1.0,0.38850000000002183
520,15,0.5,0.125,-35.0,-1,1.0,0.38390099999969607
521,15,0.5,0.125,35.0,1,1.0,0.27249999999958163
522,15,0.5,1.0,35.0,1,1.0,0.3007009999996626
523,15,0.5,1.0,-35.0,-1,1.0,0.28249999999934516
524,15,0.5,0.25,-35.0,-1,1.0,0.4709999999995489
525,15,0.5,0.0625,35.0,-1,0.0,3.4996009999995294
526,15,0.5,0.0625,-35.0,-1,1.0,0.2846009999998387
527,15,0.5,1.0,35.0,1,1.0,0.257600999999795
528,15,0.5,0.25,35.0,1,1.0,0.4015999999996893
529,15,0.5,1.0,-35.0,1,0.0,0.3270999999999731
530,15,0.5,0.0625,-35.0,1,0.0,0.44830099999990125
531,15,0.5,0.0,-35.0,1,0.0,9.122700999999779
532,15,0.5,0.0625,35.0,1,1.0,0.4353009999999813
533,15,0.5,1.0,-35.0,-1,1.0,0.2207999999995991
534,15,0.5,0.0625,-35.0,-1,1.0,3.5657999999998538
535,15,0.5,1.0,35.0,1,1.0,0.5138999999994667
536,15,0.5,0.0625,-35.0,1,0.0,3.3658009999999194
537,15,0.5,0.125,-35.0,-1,1.0,0.2644000000000233
538,15,0.5,0.0625,35.0,1,1.0,0.7894999999998618
539,15,0.5,1.0,35.0,1,1.0,0.39100099999950544
540,15,0.5,0.25,-35.0,-1,1.0,0.2995009999999638
541,15,0.5,0.125,35.0,1,1.0,0.38340100000004895
542,15,0.5,0.0,35.0,-1,0.0,0.2529999999997017
543,15,0.5,0.25,35.0,1,1.0,0.24310099999956947
544,15,0.5,1.0,35.0,1,1.0,0.3432009999996808
545,15,0.5,0.0,35.0,1,1.0,0.3290999999999258
546,15,0.5,0.125,-35.0,-1,1.0,0.2666999999996733
547,15,0.5,0.25,35.0,1,1.0,0.44640099999969607
548,15,0.5,0.0625,35.0,1,1.0,0.35710000000017317
549,15,0.5,0.25,-35.0,-1,1.0,0.20910000000003492
550,15,0.5,1.0,-35.0,-1,1.0,0.20030099999985396
551,15,0.5,0.0,-35.0,1,0.0,0.6800999999995838
552,15,0.5,0.0625,35.0,1,1.0,0.6006000000002132
553,15,0.5,0.0625,35.0,1,1.0,0.7206009999999878
554,15,0.5,0.0625,35.0,1,1.0,0.41429999999991196
555,15,0.5,0.125,-35.0,-1,1.0,0.24930099999937738
556,15,0.5,0.25,35.0,1,1.0,0.38490099999944505
557,15,0.5,0.125,35.0,1,1.0,0.3994009999996706
558,15,0.5,1.0,-35.0,-1,1.0,0.29140000000006694
559,15,0.5,0.0625,35.0,1,1.0,0.3046009999998205
560,15,0.5,0.25,35.0,1,1.0,0.49159999999983484
561,15,0.5,0.125,-35.0,-1,1.0,0.23529999999982465
562,15,0.5,0.125,35.0,1,1.0,0.36849999999958527
563,15,0.5,0.0625,-35.0,1,0.0,2.0585009999995236
564,15,0.5,0.25,-35.0,-1,1.0,0.4218999999998232
565,15,0.5,1.0,35.0,1,1.0,0.3436999999994441
566,15,0.5,1.0,35.0,1,1.0,0.2919010000000526
567,15,0.5,1.0,-35.0,-1,1.0,0.19849999999996726
568,15,0.5,0.0,-35.0,1,0.0,6.79890099999966
569,15,0.5,0.0625,35.0,1,1.0,0.37759999999934735
570,15,0.5,0.0625,35.0,1,1.0,0.5690999999997075
571,15,0.5,0.0625,35.0,1,1.0,0.28569999999990614
572,15,0.5,1.0,-35.0,-1,1.0,0.42600099999981467
573,15,0.5,1.0,35.0,1,1.0,0.2947009999998045
574,15,0.5,0.25,35.0,1,1.0,0.34639999999990323
575,15,0.5,1.0,35.0,1,1.0,0.29959999999982756
576,15,0.5,0.25,-35.0,-1,1.0,0.21650099999988015
577,15,0.5,0.0625,-35.0,1,0.0,13.716599999999744
578,15,0.5,0.25,35.0,1,1.0,0.2669009999995069
579,15,0.5,0.0625,35.0,1,1.0,0.39990099999977247
580,15,0.5,0.125,-35.0,1,0.0,0.12040100000012899
581,15,0.5,0.125,35.0,1,1.0,0.464900000000398
582,15,0.5,1.0,35.0,1,1.0,0.34390099999973245
583,15,0.5,0.0625,-35.0,-1,1.0,0.2100999999997839
584,15,0.5,0.0625,35.0,1,1.0,0.8711009999997259
585,15,0.5,0.125,35.0,1,1.0,0.3249009999994996
586,15,0.5,0.25,-35.0,-1,1.0,0.2245999999995547
587,15,0.5,0.0625,-35.0,1,0.0,0.30499999999938154
588,15,0.8,0.0625,35.0,1,1.0,0.3879999999994652
589,15,0.5,1.0,-35.0,-1,1.0,0.256500999999389
590,15,0.5,0.25,-35.0,-1,1.0,0.2481009999996786
591,15,0.5,1.0,-35.0,-1,1.0,0.21609999999964202
592,15,0.5,0.25,-35.0,-1,1.0,0.28490000000010696
593,15,0.5,0.0,35.0,1,1.0,1.3134000000000015
594,15,0.5,0.25,35.0,1,1.0,0.17160000000012587
595,15,0.5,0.0625,35.0,1,1.0,0.36740000000008877
596,15,0.5,0.25,-35.0,1,0.0,0.47189999999955035
597,15,0.5,0.125,-35.0,-1,1.0,0.324301000000105
598,15,0.5,0.125,-35.0,-1,1.0,0.23519999999962238
599,15,0.5,0.125,35.0,1,1.0,0.676300999999512
600,15,0.5,0.0,-35.0,-1,1.0,0.2855009999993854
601,15,0.5,0.25,35.0,1,1.0,0.32690099999990707
602,15,0.5,1.0,-35.0,-1,1.0,0.2321999999999207
603,15,0.5,1.0,35.0,1,1.0,0.3303999999993721
604,15,0.5,0.25,-35.0,1,0.0,0.5059009999999944
605,15,0.5,0.25,35.0,1,1.0,0.2984010000000126
606,15,0.5,0.0625,-35.0,1,0.0,0.6261009999993803
607,15,0.5,0.125,-35.0,1,0.0,0.4533999999994194
608,15,0.5,0.0625,35.0,1,1.0,4.796300999999403
609,15,0.5,0.25,-35.0,-1,1.0,0.4364999999997963
610,15,0.5,0.0625,-35.0,1,0.0,0.20820099999991726
611,15,0.5,0.25,-35.0,-1,1.0,0.4333999999998923
612,15,0.5,0.25,-35.0,-1,1.0,0.4640999999996893
613,15,0.5,0.25,-35.0,-1,1.0,1.1235999999998967
614,15,0.5,0.0625,-35.0,1,0.0,5.103600999999799
615,15,0.6,0.0625,35.0,1,1.0,0.5806999999999789
616,15,0.5,1.0,35.0,1,1.0,0.3893009999997048
617,15,0.5,0.125,35.0,1,1.0,0.42070099999955346
618,15,0.5,0.0,35.0,1,1.0,0.2467009999995753
619,15,0.5,0.125,-35.0,-1,1.0,0.27769999999964057
620,15,0.5,1.0,35.0,1,1.0,0.269800000000032
621,15,0.5,0.0,-35.0,1,0.0,0.487800999999763
622,15,0.5,0.0,-35.0,-1,1.0,0.2688009999997121
623,15,0.5,0.0,35.0,1,1.0,1.524801000000025
624,15,0.5,0.125,-35.0,-1,1.0,0.22300099999984013
625,15,0.5,0.0625,35.0,1,1.0,0.38479999999981374
626,15,0.5,1.0,-35.0,-1,1.0,0.21299999999973807
627,15,0.5,0.125,-35.0,-1,1.0,0.4015009999998256
628,15,0.5,0.25,-35.0,-1,1.0,0.23689999999942302
629,15,0.5,0.125,-35.0,-1,1.0,0.37830099999973754
630,15,0.5,0.25,35.0,1,1.0,0.5188999999995758
631,15,0.5,1.0,35.0,1,1.0,0.31199999999989814
632,15,0.5,0.125,-35.0,1,0.0,3.3404999999997926
633,15,0.5,0.125,-35.0,-1,1.0,0.3854009999995469
634,15,0.5,0.25,-35.0,-1,1.0,0.3200010000000475
635,15,0.5,0.25,35.0,1,1.0,0.39559999999937645
636,15,0.5,1.0,-35.0,-1,1.0,0.2411010000000715
637,15,0.5,1.0,35.0,1,1.0,0.5424009999996997
638,15,0.5,0.25,-35.0,-1,1.0,0.24420099999997547
639,15,0.5,1.0,-35.0,-1,1.0,0.2660999999998239
640,15,0.5,1.0,-35.0,-1,1.0,0.22109999999975116
641,15,0.5,0.25,-35.0,-1,1.0,0.2662000000000262
642,15,0.5,1.0,35.0,1,1.0,0.5050999999998567
643,15,0.5,0.0625,35.0,-1,0.0,0.3931999999999789
644,15,0.5,0.25,-35.0,-1,1.0,0.2383999999997286
645,15,0.5,1.0,-35.0,-1,1.0,0.2299009999996997
646,15,0.5,0.0625,-35.0,-1,1.0,0.5362999999997555
647,15,0.5,0.0625,-35.0,1,0.0,7.143299999999726
648,15,0.2,0.0625,35.0,1,1.0,0.36650100000042585
649,15,0.5,1.0,35.0,1,1.0,0.3874009999994996
650,15,0.5,1.0,-35.0,-1,1.0,0.22430099999974118
651,15,0.5,0.0625,-35.0,-1,1.0,0.47390100000029634
652,15,0.5,0.25,35.0,1,1.0,0.4614999999994325
653,15,0.5,0.0625,-35.0,1,0.0,0.3407009999996262
654,15,0.5,0.25,35.0,1,1.0,0.6258999999995467
655,15,0.5,0.125,35.0,1,1.0,0.5175999999996748
656,15,0.5,0.25,35.0,1,1.0,0.3755009999995309
657,15,0.5,0.125,-35.0,1,0.0,2.8476999999998043
658,15,0.5,0.0625,35.0,1,1.0,0.663499999999658
659,15,0.5,0.0,-35.0,1,0.0,0.4875999999994747
660,15,0.8,0.0,-35.0,1,0.0,4.864599999999882
661,15,0.5,1.0,-35.0,-1,1.0,0.4791009999999005
662,15,0.5,0.25,-35.0,-1,1.0,0.49510000000009313
663,15,0.5,0.0625,-35.0,-1,1.0,12.225000999999793
664,15,0.5,0.0625,35.0,1,1.0,0.18229999999994106
665,15,0.5,1.0,-35.0,-1,1.0,0.37080099999957383
666,15,0.5,0.25,-35.0,-1,1.0,0.41230099999984304
667,15,0.5,0.125,-35.0,1,0.0,0.5293009999995775
668,15,0.5,0.0625,35.0,1,1.0,0.4326009999999769
669,15,0.5,0.0625,35.0,1,1.0,0.4347999999995409
670,15,0.5,0.0,35.0,1,1.0,0.5598999999997432
671,15,0.5,0.25,-35.0,-1,1.0,0.4280009999997674
672,15,0.5,0.25,-35.0,-1,1.0,0.22630099999969389
673,15,0.5,0.0625,-35.0,-1,1.0,4.129999999999654
674,15,0.5,1.0,-35.0,-1,1.0,0.23650099999986196
675,15,0.5,0.125,-35.0,-1,1.0,1.0786999999995714
676,15,0.5,0.0625,35.0,1,1.0,0.6100009999995564
677,15,0.5,0.25,-35.0,-1,1.0,0.3552999999997155
678,15,0.5,0.125,-35.0,1,0.0,0.3302009999993061
679,15,0.5,0.0,-35.0,1,0.0,20.596000999999887
680,15,0.5,0.0,-35.0,-1,1.0,0.23759999999992942
681,15,0.5,0.125,-35.0,-1,1.0,0.23620100000016464
682,15,0.5,1.0,35.0,1,1.0,0.38780099999985396
683,15,0.5,1.0,35.0,1,1.0,0.29629999999951906
684,15,0.5,0.0,35.0,1,1.0,0.7813999999998487
685,15,0.5,0.0,-35.0,-1,1.0,0.18229999999994106
686,15,0.5,0.0625,-35.0,-1,1.0,0.2014009999998052
687,15,0.5,0.0625,-35.0,-1,1.0,0.2653009999999085
688,15,0.5,0.0,35.0,1,1.0,3.5384009999997943
689,15,0.5,0.125,-35.0,-1,1.0,0.24349999999958527
690,15,0.5,0.0,-35.0,-1,1.0,0.3285000000000764
691,15,0.5,0.0625,-35.0,1,0.0,0.7133999999996377
692,15,0.5,0.0625,-35.0,1,0.0,0.42540099999951053
693,15,0.5,0.125,35.0,1,1.0,0.44159999999965294
694,15,0.5,0.0,35.0,1,1.0,0.4690009999999347
695,15,0.5,0.0,35.0,1,1.0,3.884099999999762
696,15,0.5,0.0,35.0,1,1.0,11.332601000000068
697,15,0.5,0.125,-35.0,-1,1.0,0.24490099999957238
698,15,0.5,0.0625,35.0,1,1.0,0.39290100000016537
699,15,0.5,1.0,-35.0,-1,1.0,0.27270099999986996
700,15,0.5,0.25,-35.0,-1,1.0,0.34999999999990905
701,15,0.5,0.125,35.0,1,1.0,0.5257009999995716
702,15,0.5,0.25,35.0,1,1.0,0.38669999999956417
703,15,0.5,0.125,-35.0,-1,1.0,0.3248009999997521
704,15,0.5,0.125,35.0,1,1.0,0.3701009999999769
705,15,0.5,0.25,35.0,1,1.0,0.25080099999968297
706,15,0.5,1.0,35.0,1,1.0,0.44700099999954546
707,15,0.5,1.0,35.0,1,1.0,0.3427999999998974
708,15,0.5,0.0,-35.0,-1,1.0,5.714000999999826
709,15,0.5,0.0625,-35.0,-1,1.0,10.860900999999558
710,15,0.5,0.0625,-35.0,1,0.0,9.11770099999967
711,15,0.5,0.0625,-35.0,-1,1.0,0.26399999999966894
712,15,0.5,0.125,-35.0,-1,1.0,0.3481999999994514
713,15,0.5,1.0,-35.0,-1,1.0,0.2642009999999573
714,15,0.5,0.0625,-35.0,-1,1.0,5.89160099999981
715,15,0.5,1.0,-35.0,-1,1.0,0.24719999999979336
716,15,0.5,0.25,35.0,1,1.0,0.7321999999999207
717,15,0.5,0.125,35.0,1,1.0,0.2803009999997812
718,15,0.5,1.0,35.0,1,1.0,0.28909999999996217
719,15,0.5,0.25,-35.0,1,0.0,0.8473009999993337
720,15,0.5,0.25,-35.0,-1,1.0,0.2523999999998523
721,15,0.5,1.0,35.0,1,1.0,0.3702999999995882
722,15,0.5,0.25,35.0,1,1.0,0.5625
723,15,0.5,0.125,35.0,1,1.0,0.3692999999998392
724,15,0.5,0.0,35.0,-1,0.0,18.149399999999787
725,15,0.5,0.0,35.0,1,1.0,0.5874999999996362
726,15,0.5,0.25,35.0,1,1.0,0.28989999999976135
727,15,0.5,1.0,-35.0,-1,1.0,0.25200099999938175
728,15,0.5,0.0625,35.0,1,1.0,0.3935999999998785
729,15,0.5,0.0,-35.0,1,0.0,0.5487009999997099
730,15,0.7,0.0,-35.0,1,0.0,7.503600000000006
731,15,0.5,1.0,-35.0,-1,1.0,0.33060100000011516
732,15,0.5,0.0625,35.0,1,1.0,0.517399999999725
733,15,0.5,0.25,35.0,1,1.0,0.3627010000000155
734,15,0.5,0.0625,-35.0,-1,1.0,0.27770099999952436
735,15,0.5,0.25,35.0,1,1.0,0.6416999999996733
736,15,0.5,0.0,35.0,1,1.0,0.58100099999956
737,15,0.5,0.25,-35.0,1,0.0,0.5266999999998916
738,15,0.5,0.125,35.0,1,1.0,0.6247999999995955
739,15,0.5,0.25,-35.0,1,0.0,3.98929999999973
740,15,0.5,0.125,35.0,1,1.0,0.48830099999986487
741,15,0.5,0.0625,-35.0,1,0.0,0.38479999999981374
742,15,0.5,0.0625,-35.0,1,0.0,0.40180099999997765
743,15,0.9,0.0625,-35.0,-1,1.0,0.2439009999998234
744,15,0.5,1.0,-35.0,-1,1.0,0.22190099999988888
745,15,0.5,0.125,-35.0,-1,1.0,3.309900999999627
746,15,0.5,0.0,-35.0,1,0.0,4.528899999999794
747,15,0.5,0.25,35.0,1,1.0,17.65249999999969
748,15,0.5,0.0625,35.0,1,1.0,0.4495009999996
749,15,0.5,0.25,-35.0,1,0.0,0.5052999999998065
750,15,0.5,0.25,-35.0,-1,1.0,0.23970099999951344
751,15,0.5,0.25,-35.0,-1,1.0,0.3885009999999056
752,15,0.5,0.0,35.0,-1,0.0,0.2201999999997497
753,15,0.5,0.0625,-35.0,-1,1.0,10.200600999999551
754,15,0.5,0.0625,35.0,1,1.0,0.8202999999994063
755,15,0.5,1.0,35.0,1,1.0,0.47539999999980864
756,15,0.5,0.0,-35.0,-1,1.0,22.4703999999997
757,15,0.5,0.0625,35.0,1,1.0,1.00649999999996
758,15,0.5,0.125,-35.0,1,0.0,0.5513999999998305
759,15,0.5,0.125,35.0,1,1.0,0.4555000000000291
760,15,0.5,1.0,35.0,1,1.0,0.3780010000000402
761,15,0.5,0.0,-35.0,1,0.0,4.836600999999973
762,15,0.5,0.0,-35.0,1,0.0,0.44159999999965294
763,15,0.8,0.0,-35.0,1,0.0,10.79359999999997
764,15,0.5,1.0,-35.0,-1,1.0,0.3787999999999556
765,15,0.5,0.0,35.0,-1,0.0,7.844700000000103
766,15,0.7,0.0,-35.0,1,0.0,1.145900999999867
767,15,0.5,1.0,35.0,1,1.0,0.49880099999973027
768,15,0.5,0.25,35.0,1,1.0,0.38279999999986103
769,15,0.5,0.25,-35.0,-1,1.0,0.28579999999965366
770,15,0.5,1.0,-35.0,-1,1.0,0.4029009999999289
771,15,0.5,0.25,35.0,1,1.0,0.3519009999995433
772,15,0.5,0.0625,35.0,1,1.0,3.2432009999997717
773,15,0.5,0.0625,-35.0,-1,1.0,26.966901000000234
774,15,0.5,0.0,35.0,1,1.0,9.767199999999775
775,15,0.5,0.125,35.0,-1,0.0,4.445199999999659
776,15,0.6,0.125,-35.0,1,0.0,0.6846999999997934
777,15,0.5,1.0,-35.0,-1,1.0,0.26720099999965896
778,15,0.5,0.125,-35.0,-1,1.0,0.26480099999980666
779,15,0.5,0.0,-35.0,-1,1.0,3.271300999999312
780,15,0.5,0.25,-35.0,-1,1.0,0.3682999999996355
781,15,0.5,1.0,35.0,1,1.0,0.6582999999995991
782,15,0.5,1.0,35.0,1,1.0,0.4218009999995047
783,15,0.5,0.25,35.0,1,1.0,0.2892999999994572
784,15,0.5,0.0625,35.0,1,1.0,0.5854009999998198
785,15,0.5,0.0625,35.0,1,1.0,0.3809999999998581
786,15,0.5,0.125,35.0,1,1.0,0.33560099999976956
787,15,0.5,0.0625,35.0,1,1.0,0.3565009999992981
788,15,0.5,0.125,-35.0,-1,1.0,0.47270099999968807
789,15,0.5,0.125,35.0,1,1.0,0.4805009999995491
790,15,0.5,0.0,-35.0,1,0.0,0.6024999999999636
791,15,0.5,0.125,35.0,1,1.0,0.3825000000001637
792,15,0.5,0.125,35.0,1,1.0,0.27270099999986996
793,15,0.5,0.0,-35.0,1,0.0,0.3585009999997055
794,15,0.9,0.0,-35.0,1,0.0,5.199600999999802
795,15,0.5,1.0,-35.0,-1,1.0,0.2876000000001113
796,15,0.5,0.25,-35.0,-1,1.0,0.27320000000008804
797,15,0.5,0.25,35.0,1,1.0,0.3526999999999134
798,15,0.5,0.25,35.0,1,1.0,0.3732999999997446
799,15,0.5,1.0,35.0,1,1.0,0.2907999999997628
800,15,0.5,0.125,35.0,1,1.0,0.5937999999996464
801,15,0.5,0.25,35.0,1,1.0,0.2917010000001028
802,15,0.5,1.0,35.0,1,1.0,0.31030099999952654
803,15,0.5,0.0625,-35.0,-1,1.0,4.709200999999666
804,15,0.5,0.25,35.0,1,1.0,0.3308009999996102
805,15,0.5,0.125,35.0,1,1.0,0.31780099999969025
806,15,0.5,0.25,-35.0,1,0.0,0.30079999999952634
807,15,0.5,0.0625,35.0,1,1.0,0.4349010000000817
808,15,0.5,0.125,-35.0,-1,1.0,4.454399999999623
809,15,0.5,0.0625,35.0,1,1.0,0.6168999999995322
810,15,0.5,0.125,-35.0,1,0.0,0.3780010000000402
811,15,0.5,0.25,35.0,1,1.0,0.33259999999972933
812,15,0.5,0.0625,-35.0,-1,1.0,0.4016009999995731
813,15,0.5,0.0,-35.0,1,0.0,3.7302009999998518
814,15,0.5,0.125,35.0,1,1.0,0.38509999999951106
815,15,0.5,0.125,35.0,1,1.0,0.2810999999996966
816,15,0.5,0.0625,35.0,1,1.0,0.45870000000013533
817,15,0.5,0.125,35.0,1,1.0,0.29809999999952197
818,15,0.5,0.0625,35.0,1,1.0,4.378901000000042
819,15,0.5,0.125,35.0,1,1.0,0.2955000000001746
820,15,0.5,0.25,-35.0,-1,1.0,0.24589999999943757
821,15,0.5,0.125,35.0,1,1.0,0.3262009999998554
822,15,0.5,0.0,-35.0,1,0.0,0.34929999999940264
823,15,0.5,0.0,-35.0,-1,1.0,1.652299999999741
824,15,0.5,0.125,35.0,1,1.0,0.5896999999999935
825,15,0.5,0.25,35.0,1,1.0,0.4513999999999214
826,15,0.5,0.25,35.0,1,1.0,0.35989999999992506
827,15,0.5,0.25,35.0,1,1.0,0.291400999999496
828,15,0.5,0.25,-35.0,1,0.0,0.2998999999999796
829,15,0.5,0.125,-35.0,-1,1.0,0.4124010000000453
830,15,0.5,0.125,-35.0,1,0.0,2.9736000000002605
831,15,0.8,0.125,35.0,1,1.0,0.6684999999997672
832,15,0.5,1.0,-35.0,-1,1.0,0.28080099999988306
833,15,0.5,0.125,-35.0,1,0.0,0.4394999999999527
834,15,0.5,0.0,-35.0,1,0.0,0.3439999999995962
835,15,0.5,0.25,35.0,1,1.0,0.16880100000025777
836,15,0.5,0.25,35.0,1,1.0,0.39440099999956146
837,15,0.5,0.25,-35.0,-1,1.0,0.36560000000008586
838,15,0.5,0.0625,-35.0,1,0.0,4.577800999999454
839,15,0.5,0.0625,-35.0,-1,1.0,0.24569999999994252
840,15,0.5,0.25,-35.0,-1,1.0,0.40810099999998783
841,15,0.5,0.0625,-35.0,1,0.0,16.657700999999633
842,15,0.6,0.0625,35.0,1,1.0,0.342000999999982
843,15,0.5,1.0,35.0,1,1.0,0.33229999999957727
844,15,0.5,1.0,-35.0,-1,1.0,0.40889999999990323
845,15,0.5,0.125,35.0,1,1.0,0.4019999999995889
846,15,0.5,0.0625,35.0,-1,0.0,0.2921999999998661
847,15,0.5,0.0625,35.0,1,1.0,0.3712000000000444
848,15,0.5,1.0,-35.0,-1,1.0,0.27590099999952145
849,15,0.5,0.25,35.0,1,1.0,0.3279999999995198
850,15,0.5,0.0625,-35.0,-1,1.0,0.25590099999953964
851,15,0.5,0.0625,35.0,1,1.0,0.297099999999773
852,15,0.5,0.25,-35.0,-1,1.0,0.2663009999996575
853,15,0.5,0.25,-35.0,-1,1.0,0.37500100000033854
854,15,0.5,1.0,35.0,1,1.0,0.34629999999970096
855,15,0.5,1.0,35.0,1,1.0,0.3180999999999585
856,15,0.5,0.125,-35.0,-1,1.0,0.2731999999996333
857,15,0.5,0.25,35.0,1,1.0,0.287199999999757
858,15,0.5,0.0625,35.0,1,1.0,0.3500999999996566
859,15,0.5,0.125,-35.0,-1,1.0,0.35419999999976426
860,15,0.5,0.0625,-35.0,1,0.0,3.6469019999999546
861,15,0.6,0.0625,-35.0,-1,1.0,2.034200999999939
862,15,0.5,1.0,35.0,1,1.0,0.32430099999965023
863,15,0.5,0.0,35.0,1,1.0,8.898600999999871
864,15,0.5,0.25,35.0,-1,0.0,7.534500999999636
865,15,0.5,0.0625,35.0,1,1.0,4.173302000000149
866,15,0.5,0.125,-35.0,-1,1.0,4.651401999999507
867,15,0.5,0.25,-35.0,-1,1.0,0.43360100000018065
868,15,0.5,1.0,35.0,1,1.0,0.36860200000000987
869,15,0.5,1.0,-35.0,-1,1.0,0.2249019999999291
870,15,0.5,0.0,35.0,-1,0.0,4.1655009999994945
871,15,0.5,0.0625,35.0,-1,0.0,10.660902000000078
872,15,0.5,0.125,35.0,-1,0.0,9.992800999999872
873,15,0.5,0.25,35.0,-1,0.0,4.50530099999969
1,16,0.5,1.0,-35.0,-1,1.0,0.24339999999999962
2,16,0.5,0.25,-35.0,-1,1.0,0.24019999999999886
3,16,0.5,0.125,-35.0,-1,1.0,0.2375000000000007
4,16,0.5,0.125,35.0,1,1.0,0.39110099999999903
5,16,0.5,1.0,35.0,1,1.0,0.3722999999999974
6,16,0.5,0.125,35.0,1,1.0,0.3058000000000014
7,16,0.5,0.125,-35.0,-1,1.0,0.26210100000000125
8,16,0.5,0.25,-35.0,1,0.0,0.11910100000000057
9,16,0.5,0.0,-35.0,1,0.0,0.45870100000000136
10,16,0.6,0.0,-35.0,-1,1.0,0.3009999999999948
11,16,0.5,1.0,-35.0,-1,1.0,0.1351009999999917
12,16,0.5,0.0625,35.0,-1,0.0,0.11030000000000229
13,16,0.5,0.0,-35.0,1,0.0,0.3770009999999999
14,16,0.5,0.0,35.0,1,1.0,0.8401009999999971
15,16,0.5,0.25,-35.0,-1,1.0,0.21419999999999817
16,16,0.5,0.0,-35.0,-1,1.0,1.6082999999999927
17,16,0.5,1.0,35.0,-1,0.0,0.2133009999999942
18,16,0.5,0.0625,35.0,1,1.0,0.3394009999999952
19,16,0.5,0.125,-35.0,-1,1.0,0.14149999999999352
20,16,0.5,0.0625,-35.0,1,0.0,0.46699999999998454
21,16,0.5,0.0625,35.0,1,1.0,0.3821009999999916
22,16,0.5,0.25,35.0,-1,0.0,0.12640100000000132
23,16,0.5,0.25,-35.0,-1,1.0,0.21420099999998854
24,16,0.5,1.0,-35.0,-1,1.0,0.2090999999999923
25,16,0.5,0.25,-35.0,-1,1.0,0.23170100000000105
26,16,0.5,0.0625,-35.0,1,0.0,1.4059000000000026
27,16,0.5,0.25,35.0,1,1.0,0.26450099999999566
28,16,0.5,0.0625,-35.0,-1,1.0,0.06840000000001112
29,16,0.5,0.25,-35.0,-1,1.0,0.10209999999999297
30,16,0.5,0.0625,35.0,1,1.0,0.3506
31,16,0.5,0.125,35.0,1,1.0,0.3200000000000074
32,16,0.5,0.0,-35.0,1,0.0,0.2921010000000024
33,16,0.5,0.125,-35.0,-1,1.0,0.26420000000000243
34,16,0.5,0.0625,-35.0,-1,1.0,0.2771010000000018
35,16,0.5,0.25,-35.0,-1,1.0,0.1752999999999929
36,16,0.5,1.0,35.0,1,1.0,0.27510099999999227
37,16,0.5,0.0,35.0,-1,0.0,0.09910000000000707
38,16,0.5,0.0,35.0,1,1.0,0.34500100000002476
39,16,0.5,0.0625,-35.0,-1,1.0,0.27180100000003904
40,16,0.5,0.25,35.0,1,1.0,0.3069010000000105
41,16,0.5,1.0,35.0,1,1.0,0.3161010000000033
42,16,0.5,0.0625,-35.0,1,0.0,0.600701000000015
43,16,0.5,0.0,35.0,1,1.0,0.3492999999999995
44,16,0.5,1.0,35.0,1,1.0,0.23400000000000887
45,16,0.5,0.25,35.0,1,1.0,0.20870100000001912
46,16,0.5,1.0,-35.0,1,0.0,0.37520100000003254
47,16,0.5,0.25,-35.0,-1,1.0,0.279200000000003
48,16,0.5,1.0,-35.0,-1,1.0,0.19030100000000516
49,16,0.5,0.0,35.0,1,1.0,2.096001000000001
50,16,0.5,0.125,-35.0,-1,1.0,0.2506999999999948
51,16,0.5,0.0625,35.0,1,1.0,0.28240000000002397
52,16,0.5,1.0,-35.0,-1,1.0,0.19940000000002556
53,16,0.5,0.125,-35.0,-1,1.0,0.3345000000000198
54,16,0.5,0.25,-35.0,-1,1.0,0.24710000000001742
55,16,0.5,0.0625,35.0,1,1.0,0.42500000000001137
56,16,0.5,0.125,35.0,1,1.0,0.3108010000000263
57,16,0.5,0.0,-35.0,-1,1.0,0.12340000000000373
58,16,0.5,1.0,35.0,1,1.0,0.2635010000000193
59,16,0.5,1.0,35.0,1,1.0,0.3124000000000251
60,16,0.5,0.0625,35.0,1,1.0,1.413499999999999
61,16,0.5,1.0,35.0,1,1.0,0.3020000000000209
62,16,0.5,0.125,-35.0,-1,1.0,0.22750100000001794
63,16,0.5,1.0,-35.0,-1,1.0,0.1495000000000175
64,16,0.5,0.0625,35.0,1,1.0,0.3727010000000064
65,16,0.5,0.0625,-35.0,1,0.0,0.36780100000001426
66,16,0.5,0.125,-35.0,-1,1.0,0.2506010000000174
67,16,0.5,0.0,35.0,-1,0.0,0.34250100000002703
68,16,0.5,0.25,-35.0,-1,1.0,0.24890099999998938
69,16,0.5,0.125,-35.0,-1,1.0,0.26890000000003056
70,16,0.5,0.0,-35.0,-1,1.0,0.3651000000000124
71,16,0.5,0.0625,35.0,1,1.0,0.3499999999999943
72,16,0.5,0.125,-35.0,-1,1.0,0.20150100000000748
73,16,0.5,0.25,35.0,1,1.0,0.30530100000001426
74,16,0.5,1.0,35.0,1,1.0,0.2677010000000166
75,16,0.5,0.25,35.0,1,1.0,0.24340000000000828
76,16,0.5,1.0,-35.0,-1,1.0,0.216700000000003
77,16,0.5,0.25,-35.0,-1,1.0,0.27780100000001084
78,16,0.5,0.25,-35.0,1,0.0,0.14980000000002747
79,16,0.5,0.25,35.0,1,1.0,0.3879999999999768
80,16,0.5,0.125,-35.0,1,0.0,0.24080100000003313
81,16,0.5,0.0625,-35.0,1,0.0,3.2191010000000233
82,16,0.5,0.0625,35.0,1,1.0,0.33880000000004884
83,16,0.5,1.0,35.0,1,1.0,0.396000000000015
84,16,0.5,0.0625,-35.0,-1,1.0,0.1629010000000335
85,16,0.5,0.125,-35.0,-1,1.0,0.14740100000005896
86,16,0.5,0.0625,-35.0,1,0.0,0.4609999999999559
87,16,0.5,0.0,35.0,-1,0.0,0.18250000000000455
88,16,0.7,0.0,-35.0,1,0.0,6.745999999999981
89,16,0.5,1.0,-35.0,-1,1.0,0.23250100000007023
90,16,0.5,0.0625,35.0,-1,0.0,0.2104009999999903
91,16,0.5,0.0625,-35.0,-1,1.0,0.19999999999998863
92,16,0.5,1.0,-35.0,-1,1.0,0.22210000000001173
93,16,0.5,0.0625,-35.0,-1,1.0,0.5919999999999845
94,16,0.5,1.0,35.0,1,1.0,0.2798000000000229
95,16,0.5,0.0625,35.0,-1,0.0,0.2711009999999874
96,16,0.5,0.0,35.0,1,1.0,2.778500000000008
97,16,0.5,0.125,-35.0,-1,1.0,0.25510100000002467
98,16,0.5,0.125,-35.0,1,0.0,1.236201000000051
99,16,0.5,0.25,-35.0,-1,1.0,0.29940100000004577
100,16,0.5,1.0,-35.0,-1,1.0,0.17669999999998254
101,16,0.5,0.25,-35.0,-1,1.0,0.2267999999999688
102,16,0.5,0.0,35.0,-1,0.0,0.22920000000004848
103,16,0.5,0.0625,35.0,-1,0.0,1.3304999999999723
104,16,0.5,0.125,35.0,1,1.0,0.37420100000002776
105,16,0.5,0.125,35.0,1,1.0,0.3658010000000331
106,16,0.5,0.125,-35.0,-1,1.0,0.10420000000004848
107,16,0.5,0.125,-35.0,1,0.0,0.29009999999999536
108,16,0.5,0.125,35.0,1,1.0,0.34720100000004095
109,16,0.5,0.0625,-35.0,-1,1.0,0.2865000000000464
110,16,0.5,0.125,-35.0,-1,1.0,0.19040100000006532
111,16,0.5,0.0625,35.0,1,1.0,0.32799999999997453
112,16,0.5,0.0,35.0,1,1.0,0.692401000000018
113,16,0.5,0.125,35.0,1,1.0,0.3464000000000169
114,16,0.5,0.0625,-35.0,-1,1.0,0.14110100000004877
115,16,0.5,0.0625,35.0,1,1.0,0.3738999999999919
116,16,0.5,0.0625,35.0,1,1.0,0.41950100000008206
117,16,0.5,0.0,35.0,-1,0.0,0.21150000000005775
118,16,0.6,0.0,35.0,1,1.0,0.34449999999998226
119,16,0.5,1.0,-35.0,-1,1.0,0.21050000000002456
120,16,0.5,0.25,-35.0,1,0.0,0.30000000000001137
121,16,0.5,0.0625,-35.0,-1,1.0,0.26410000000004175
122,16,0.5,0.125,35.0,1,1.0,0.28160000000002583
123,16,0.5,0.0625,35.0,-1,0.0,0.14560000000000173
124,16,0.5,0.0625,35.0,1,1.0,0.3486010000000306
125,16,0.5,1.0,-35.0,-1,1.0,0.17489999999997963
126,16,0.5,0.25,35.0,1,1.0,0.3629000000000815
127,16,0.5,1.0,-35.0,-1,1.0,0.17339999999995825
128,16,0.5,0.25,35.0,-1,0.0,0.0776000000000181
129,16,0.5,0.0625,35.0,1,1.0,0.29370099999999866
130,16,0.5,0.25,35.0,1,1.0,0.31490099999996346
131,16,0.5,0.25,-35.0,-1,1.0,0.25200000000000955
132,16,0.5,0.25,35.0,1,1.0,0.22280000000000655
133,16,0.5,0.125,35.0,1,1.0,0.3106000000000222
134,16,0.5,0.0625,-35.0,1,0.0,0.3338000000000534
135,16,0.5,0.0625,-35.0,1,0.0,2.863800000000026
136,16,0.5,0.0625,35.0,1,1.0,0.27490000000000236
137,16,0.5,0.25,35.0,1,1.0,0.2528000000000361
138,16,0.5,1.0,-35.0,-1,1.0,0.2324010000000385
139,16,0.5,1.0,35.0,1,1.0,0.17029999999999745
140,16,0.5,0.25,-35.0,-1,1.0,0.4950000000000614
141,16,0.5,0.25,-35.0,-1,1.0,0.2629009999999994
142,16,0.5,0.0,-35.0,1,0.0,4.187099999999987
143,16,0.5,0.25,35.0,1,1.0,0.28890100000000984
144,16,0.5,0.0625,-35.0,-1,1.0,0.2521009999999251
145,16,0.5,0.0625,-35.0,1,0.0,0.3569999999999709
146,16,0.5,0.25,-35.0,-1,1.0,0.251500999999962
147,16,0.5,0.125,35.0,1,1.0,0.34400099999982103
148,16,0.5,0.0625,-35.0,1,0.0,2.746801000000005
149,16,0.6,0.0625,-35.0,1,0.0,0.30700000000001637
150,16,0.5,1.0,35.0,1,1.0,0.30960000000004584
151,16,0.5,1.0,35.0,1,1.0,0.26310000000000855
152,16,0.5,1.0,35.0,1,1.0,0.28280000000006567
153,16,0.5,0.25,35.0,1,1.0,0.19620099999985996
154,16,0.5,0.0625,35.0,1,1.0,0.3119010000000344
155,16,0.5,0.0625,-35.0,-1,1.0,0.29139999999995325
156,16,0.5,0.0625,-35.0,-1,1.0,0.2802999999998974
157,16,0.5,1.0,-35.0,-1,1.0,0.18619999999987158
158,16,0.5,0.125,-35.0,-1,1.0,0.21119999999996253
159,16,0.5,0.25,-35.0,-1,1.0,0.18430099999989125
160,16,0.5,1.0,35.0,1,1.0,0.2801999999999225
161,16,0.5,0.25,35.0,1,1.0,0.21810100000004695
162,16,0.5,0.25,35.0,-1,0.0,0.11530099999981758
163,16,0.5,0.0625,-35.0,1,0.0,0.96550000000002
164,16,0.5,0.25,35.0,1,1.0,0.2939999999999827
165,16,0.5,0.125,-35.0,-1,1.0,0.19790000000000418
166,16,0.5,0.0625,35.0,-1,0.0,0.17980000000000018
167,16,0.5,0.125,35.0,1,1.0,0.2854010000000926
168,16,0.5,0.25,-35.0,-1,1.0,0.24459999999999127
169,16,0.5,0.25,35.0,1,1.0,0.21619999999995798
170,16,0.5,0.0625,-35.0,1,0.0,0.341199999999958
171,16,0.5,0.125,35.0,1,1.0,0.4623999999998887
172,16,0.5,0.25,-35.0,-1,1.0,0.18889999999998963
173,16,0.5,1.0,35.0,1,1.0,0.29350000000010823
174,16,0.5,0.125,35.0,1,1.0,0.2861009999999169
175,16,0.5,0.25,-35.0,-1,1.0,0.25490000000002055
176,16,0.5,0.0,35.0,1,1.0,0.2925999999998794
177,16,0.5,1.0,35.0,1,1.0,0.2986000000000786
178,16,0.5,0.25,-35.0,-1,1.0,0.24620000000004438
179,16,0.5,1.0,-35.0,-1,1.0,0.21119999999984884
180,16,0.5,0.0625,35.0,1,1.0,0.12460099999987051
181,16,0.5,0.0625,35.0,-1,0.0,0.09080099999994218
182,16,0.5,0.0625,35.0,-1,0.0,0.1748010000000022
183,16,0.5,1.0,35.0,1,1.0,0.28850099999999657
184,16,0.5,0.0,35.0,1,1.0,0.31999999999993634
185,16,0.5,0.125,35.0,1,1.0,0.3089999999999691
186,16,0.5,0.25,35.0,1,1.0,0.2192009999999982
187,16,0.5,0.25,35.0,1,1.0,0.3487009999998918
188,16,0.5,0.25,35.0,1,1.0,0.09060099999999238
189,16,0.5,0.125,-35.0,1,0.0,0.09269999999992251
190,16,0.5,0.0,-35.0,1,0.0,0.34150099999999384
191,16,0.5,0.125,35.0,1,1.0,0.33789999999999054
192,16,0.5,0.25,-35.0,-1,1.0,0.2927009999998518
193,16,0.5,0.0,35.0,1,1.0,0.2659009999998716
194,16,0.5,0.125,-35.0,1,0.0,0.2815009999999347
195,16,0.5,0.125,-35.0,1,0.0,0.44390099999998256
196,16,0.5,0.25,35.0,1,1.0,0.3653009999998176
197,16,0.5,0.0625,35.0,1,1.0,0.39000099999998383
198,16,0.5,0.0625,-35.0,-1,1.0,0.25670099999990725
199,16,0.5,0.125,-35.0,-1,1.0,0.22249999999996817
200,16,0.5,1.0,-35.0,-1,1.0,0.18500000000005912
201,16,0.5,0.0625,35.0,1,1.0,0.2869999999999209
202,16,0.5,0.25,-35.0,-1,1.0,0.2577999999999747
203,16,0.5,0.125,35.0,-1,0.0,0.13610100000005332
204,16,0.5,0.25,-35.0,-1,1.0,0.19700000000000273
205,16,0.5,0.0625,-35.0,-1,1.0,0.2402999999999338
206,16,0.5,0.0,-35.0,1,0.0,4.772999999999911
207,16,0.5,0.25,-35.0,-1,1.0,0.2719009999998434
208,16,0.5,1.0,-35.0,-1,1.0,0.18919999999991433
209,16,0.5,0.25,-35.0,-1,1.0,0.2319999999999709
210,16,0.5,0.0,-35.0,1,0.0,0.4356999999999971
211,16,0.5,0.0,35.0,-1,0.0,1.883100000000013
212,16,0.5,0.25,-35.0,-1,1.0,0.28520099999991544
213,16,0.5,0.0625,35.0,-1,0.0,0.24490099999991344
214,16,0.5,0.0625,35.0,1,1.0,0.3231999999999289
215,16,0.5,0.0,35.0,-1,0.0,0.08230100000002949
216,16,0.5,0.125,-35.0,-1,1.0,0.2298999999999296
217,16,0.5,0.0,-35.0,-1,1.0,4.31149999999991
218,16,0.5,1.0,-35.0,-1,1.0,0.19240000000002055
219,16,0.5,0.25,-35.0,-1,1.0,0.13039999999989504
220,16,0.5,0.0,35.0,1,1.0,0.22439999999994598
221,16,0.5,0.0625,35.0,-1,0.0,0.2560999999999467
222,16,0.5,0.125,-35.0,-1,1.0,0.21230000000002747
223,16,0.5,1.0,35.0,1,1.0,0.39210099999991144
224,16,0.5,0.25,35.0,1,1.0,0.26730099999986123
225,16,0.5,0.0,35.0,1,1.0,8.3224009999999
226,16,0.5,0.0625,-35.0,-1,1.0,0.24309999999991305
227,16,0.5,0.125,35.0,1,1.0,0.3521009999999478
228,16,0.5,0.0,35.0,1,1.0,0.38849999999990814
229,16,0.5,0.125,-35.0,-1,1.0,0.25480099999992945
230,16,0.5,0.125,35.0,-1,0.0,0.10480100000006587
231,16,0.5,0.0,35.0,1,1.0,0.4071999999999889
232,16,0.5,1.0,35.0,1,1.0,0.2702009999999291
233,16,0.5,0.125,35.0,1,1.0,0.23459999999988668
234,16,0.5,1.0,35.0,1,1.0,0.29060099999992417
235,16,0.5,0.0625,-35.0,-1,1.0,0.20460100000002512
236,16,0.5,0.0625,-35.0,1,0.0,0.2636999999999716
237,16,0.5,0.0,-35.0,1,0.0,0.431299999999851
238,16,0.7,0.0,-35.0,1,0.0,0.34569999999985157
239,16,0.5,1.0,-35.0,1,0.0,1.5327009999999746
240,16,0.8,1.0,-35.0,-1,1.0,0.24680100000000493
241,16,0.5,1.0,-35.0,-1,1.0,0.20559999999989031
242,16,0.5,0.25,-35.0,-1,1.0,0.21479999999996835
243,16,0.5,0.25,-35.0,-1,1.0,0.25480099999992945
244,16,0.5,0.125,-35.0,-1,1.0,0.23779999999987922
245,16,0.5,0.0,-35.0,1,0.0,0.28920099999993454
246,16,0.5,0.0625,35.0,1,1.0,0.37190099999997983
247,16,0.5,0.125,35.0,1,1.0,0.3038999999999987
248,16,0.5,0.0625,35.0,1,1.0,0.36330100000009224
249,16,0.5,0.125,-35.0,-1,1.0,0.25650099999995746
250,16,0.5,0.125,35.0,1,1.0,0.31339999999988777
251,16,0.5,0.0,-35.0,1,0.0,0.435100000000034
252,16,0.5,0.0625,-35.0,-1,1.0,0.28910099999995964
253,16,0.5,0.0,-35.0,1,0.0,0.3410000000000082
254,16,0.5,0.0625,-35.0,-1,1.0,0.2600009999999884
255,16,0.5,0.0625,35.0,-1,0.0,0.33960099999990234
256,16,0.5,0.0,35.0,-1,0.0,0.23400099999992108
257,16,0.5,0.0,35.0,-1,0.0,0.2257000000000744
258,16,0.5,1.0,35.0,1,1.0,0.24099999999987176
259,16,0.5,1.0,35.0,1,1.0,0.28959999999995034
260,16,0.5,0.0625,-35.0,1,0.0,0.28309999999999036
261,16,0.5,0.125,-35.0,-1,1.0,0.26759999999990214
262,16,0.5,0.0625,35.0,1,1.0,0.29120000000000346
263,16,0.5,1.0,35.0,1,1.0,0.28750000000002274
264,16,0.5,0.0625,35.0,1,1.0,0.2814009999999598
265,16,0.5,0.25,-35.0,-1,1.0,0.20839999999986958
266,16,0.5,0.125,35.0,1,1.0,0.2637999999999465
267,16,0.5,1.0,-35.0,-1,1.0,0.22270099999991544
268,16,0.5,0.25,35.0,1,1.0,0.564200000000028
269,16,0.5,1.0,35.0,1,1.0,0.3750009999999975
270,16,0.5,0.25,35.0,1,1.0,0.2562999999998965
271,16,0.5,0.0,-35.0,1,0.0,0.28339999999991505
272,16,0.5,0.0625,35.0,1,1.0,0.29549999999994725
273,16,0.5,0.125,35.0,1,1.0,0.2805009999998447
274,16,0.5,1.0,35.0,1,1.0,0.44830099999990125
275,16,0.5,1.0,-35.0,-1,1.0,0.21429999999998017
276,16,0.5,1.0,-35.0,-1,1.0,0.17140099999994618
277,16,0.5,0.125,35.0,1,1.0,0.24090000000001055
278,16,0.5,0.0625,35.0,1,1.0,0.3352999999998474
279,16,0.5,0.25,35.0,1,1.0,0.3145009999999502
280,16,0.5,1.0,-35.0,-1,1.0,0.19539999999983593
281,16,0.5,1.0,-35.0,-1,1.0,0.18460000000004584
282,16,0.5,0.25,35.0,1,1.0,0.29949999999985266
283,16,0.5,1.0,35.0,1,1.0,0.2179999999998472
284,16,0.5,1.0,35.0,1,1.0,0.2865009999998165
285,16,0.5,1.0,-35.0,-1,1.0,0.22469999999998436
286,16,0.5,0.125,35.0,1,1.0,0.26910000000020773
287,16,0.5,0.125,35.0,1,1.0,0.4150010000000748
288,16,0.5,0.0625,-35.0,-1,1.0,0.24260099999992235
289,16,0.5,1.0,35.0,-1,0.0,0.09520100000008824
290,16,0.5,0.0,35.0,-1,0.0,0.4436009999999442
291,16,0.5,0.125,-35.0,-1,1.0,0.21880000000010114
292,16,0.5,0.0625,-35.0,1,0.0,0.31670099999996637
293,16,0.5,0.0625,-35.0,-1,1.0,0.4636999999997897
294,16,0.5,1.0,35.0,1,1.0,0.2566999999999098
295,16,0.5,1.0,35.0,1,1.0,0.2658010000000104
296,16,0.5,1.0,35.0,1,1.0,0.2868009999997412
297,16,0.5,0.25,35.0,1,1.0,0.29589999999984684
298,16,0.5,0.0,35.0,1,1.0,0.25779999999986103
299,16,0.5,0.0625,-35.0,1,0.0,0.3059009999999489
300,16,0.5,0.0625,35.0,1,1.0,0.3488999999997304
301,16,0.5,0.25,-35.0,-1,1.0,0.14959999999996398
302,16,0.5,0.0625,35.0,-1,0.0,1.7078999999998814
303,16,0.7,0.0625,-35.0,-1,1.0,0.33979999999996835
304,16,0.5,1.0,-35.0,-1,1.0,0.19850100000007842
305,16,0.5,0.0,-35.0,1,0.0,0.48680100000001403
306,16,0.6,0.0,-35.0,1,0.0,8.889001000000007
307,16,0.5,1.0,-35.0,-1,1.0,0.20020100000010643
308,16,0.5,0.125,-35.0,-1,1.0,0.2390010000001439
309,16,0.5,0.0625,-35.0,-1,1.0,0.2838009999998121
310,16,0.5,0.0625,35.0,1,1.0,0.31009999999992033
311,16,0.5,0.0625,-35.0,-1,1.0,0.26050099999997656
312,16,0.5,0.0625,35.0,-1,0.0,0.23490099999980885
313,16,0.5,0.25,-35.0,-1,1.0,0.2575010000000475
314,16,0.5,0.0625,35.0,1,1.0,0.31199999999989814
315,16,0.5,0.0625,35.0,1,1.0,0.6611000000000331
316,16,0.5,0.0625,-35.0,-1,1.0,0.24900099999990744
317,16,0.5,0.125,35.0,1,1.0,0.2878000000000611
318,16,0.5,0.0625,35.0,1,1.0,0.3362010000000737
319,16,0.5,1.0,-35.0,-1,1.0,0.5113999999998668
320,16,0.5,0.25,-35.0,-1,1.0,0.1992009999999027
321,16,0.5,0.0625,35.0,1,1.0,0.3347999999998592
322,16,0.5,0.0625,35.0,1,1.0,0.3003009999999904
323,16,0.5,0.0625,-35.0,-1,1.0,0.2653010000001359
324,16,0.5,0.0625,35.0,1,1.0,0.31320099999993545
325,16,0.5,1.0,-35.0,-1,1.0,0.12859999999977845
326,16,0.5,0.0625,-35.0,-1,1.0,0.1900999999998021
327,16,0.5,0.0625,35.0,1,1.0,0.29189999999994143
328,16,0.5,0.125,35.0,1,1.0,0.25430099999994127
329,16,0.5,0.25,35.0,1,1.0,0.3554999999998927
330,16,0.5,0.25,35.0,1,1.0,0.3873999999998432
331,16,0.5,1.0,-35.0,-1,1.0,0.4024010000000544
332,16,0.5,0.0,-35.0,-1,1.0,0.24010100000009515
333,16,0.5,0.25,-35.0,-1,1.0,0.3259009999999307
334,16,0.5,0.125,35.0,1,1.0,0.3430999999998221
335,16,0.5,0.125,-35.0,-1,1.0,0.24590100000000348
336,16,0.5,1.0,-35.0,-1,1.0,0.14370099999973718
337,16,0.5,0.0625,-35.0,-1,1.0,0.3096009999999296
338,16,0.5,0.125,-35.0,-1,1.0,0.19250099999999293
339,16,0.5,0.25,35.0,1,1.0,0.30950000000007094
340,16,0.5,0.0,35.0,-1,0.0,0.6441999999999553
341,16,0.5,0.125,-35.0,-1,1.0,0.18650099999990744
342,16,0.5,0.0,-35.0,1,0.0,0.3107009999998809
343,16,0.3,0.0,35.0,-1,0.0,6.339899999999943
344,16,0.5,1.0,-35.0,-1,1.0,0.2057009999998627
345,16,0.5,0.125,35.0,1,1.0,0.3470999999999549
346,16,0.5,1.0,-35.0,-1,1.0,0.25810100000012426
347,16,0.5,0.0625,-35.0,-1,1.0,0.2674000000001797
348,16,0.5,0.125,35.0,1,1.0,0.3914999999999509
349,16,0.5,0.25,-35.0,-1,1.0,0.1974999999999909
350,16,0.5,0.25,35.0,1,1.0,0.30510099999992235
351,16,0.5,0.0625,35.0,-1,0.0,0.1776999999999589
352,16,0.5,0.0625,35.0,1,1.0,0.5387009999999464
353,16,0.5,0.25,35.0,1,1.0,0.27789999999981774
354,16,0.5,0.0625,35.0,1,1.0,0.14390000000003056
355,16,0.5,0.125,-35.0,1,0.0,0.3913009999998849
356,16,0.5,0.125,35.0,1,1.0,0.4031009999998787
357,16,0.5,1.0,-35.0,-1,1.0,0.20170099999995728
358,16,0.5,0.0625,35.0,-1,0.0,1.424000999999862
359,16,0.5,0.0,35.0,-1,0.0,0.4852009999999609
360,16,0.5,0.125,-35.0,-1,1.0,0.27250099999992017
361,16,0.5,0.25,-35.0,-1,1.0,0.17859999999996035
362,16,0.5,0.125,-35.0,-1,1.0,0.27299999999991087
363,16,0.5,0.0,-35.0,-1,1.0,0.21210100000007515
364,16,0.5,0.0625,-35.0,-1,1.0,0.19409999999993488
365,16,0.5,0.25,35.0,1,1.0,0.5892009999997754
366,16,0.5,0.25,-35.0,-1,1.0,0.1631999999999607
367,16,0.5,0.0,-35.0,1,0.0,0.389100999999755
368,16,0.2,0.0,35.0,1,1.0,2.9811009999998532
369,16,0.5,1.0,35.0,1,1.0,0.24919999999997344
370,16,0.5,0.125,-35.0,-1,1.0,0.22029999999995198
371,16,0.5,0.0,-35.0,1,0.0,3.1894999999999527
372,16,0.5,0.125,35.0,1,1.0,0.320500999999922
373,16,0.5,0.0625,-35.0,1,0.0,0.35970099999985905
374,16,0.5,0.125,35.0,1,1.0,0.2742000000000644
375,16,0.5,0.25,35.0,1,1.0,0.28319999999985157
376,16,0.5,0.125,-35.0,-1,1.0,0.261400999999978
377,16,0.5,1.0,-35.0,-1,1.0,0.21339999999986503
378,16,0.5,1.0,35.0,1,1.0,0.2779009999999289
379,16,0.5,0.0625,-35.0,1,0.0,0.4035999999998694
380,16,0.7,0.0625,-35.0,-1,1.0,0.2884000000001379
381,16,0.5,1.0,-35.0,-1,1.0,0.19699999999988904
382,16,0.5,0.25,35.0,1,1.0,0.2653009999999085
383,16,0.5,0.0625,35.0,-1,0.0,0.19070099999999002
384,16,0.5,0.0625,35.0,1,1.0,0.4617000000000644
385,16,0.5,0.25,-35.0,-1,1.0,0.22749999999996362
386,16,0.5,0.25,35.0,1,1.0,0.2954999999997199
387,16,0.5,0.0625,-35.0,1,0.0,0.4975009999998292
388,16,0.5,0.0625,-35.0,1,0.0,0.8017010000000937
389,16,0.6,0.0625,-35.0,-1,1.0,0.2979000000000269
390,16,0.5,1.0,-35.0,-1,1.0,0.19910000000004402
391,16,0.5,0.0,-35.0,-1,1.0,0.37130100000013044
392,16,0.5,0.0625,-35.0,-1,1.0,0.27060000000005857
393,16,0.5,0.25,-35.0,-1,1.0,0.1779999999996562
394,16,0.5,0.0,-35.0,-1,1.0,0.23240099999998165
395,16,0.5,0.125,35.0,-1,0.0,0.21179999999981192
396,16,0.5,0.25,35.0,1,1.0,0.23569999999995161
397,16,0.5,0.0625,35.0,1,1.0,0.2119000000000142
398,16,0.5,1.0,35.0,1,1.0,0.2667999999998756
399,16,0.5,0.0,-35.0,-1,1.0,0.18190099999992526
400,16,0.5,1.0,-35.0,-1,1.0,0.213799999999992
401,16,0.5,0.0625,-35.0,-1,1.0,0.17880000000013752
402,16,0.5,0.125,-35.0,-1,1.0,0.19339999999988322
403,16,0.5,0.25,35.0,1,1.0,0.9557999999999538
404,16,0.5,1.0,35.0,1,1.0,0.26670100000001185
405,16,0.5,0.0,35.0,1,1.0,0.47230000000013206
406,16,0.5,0.0625,35.0,1,1.0,0.31690100000014354
407,16,0.5,1.0,35.0,1,1.0,0.22930099999985032
408,16,0.5,1.0,-35.0,-1,1.0,0.24389999999971224
409,16,0.5,1.0,-35.0,-1,1.0,0.2294010000000526
410,16,0.5,0.125,-35.0,-1,1.0,0.18440099999997983
411,16,0.5,1.0,-35.0,-1,1.0,0.09609999999975116
412,16,0.5,0.25,-35.0,-1,1.0,0.3789999999999054
413,16,0.5,0.25,35.0,1,1.0,0.27300000000013824
414,16,0.5,0.0625,35.0,1,1.0,0.2680000000000291
415,16,0.5,0.0625,-35.0,-1,1.0,0.17319999999995161
416,16,0.5,0.125,-35.0,-1,1.0,0.2551009999999678
417,16,0.5,0.125,35.0,-1,0.0,0.1334999999999127
418,16,0.5,0.0,-35.0,1,0.0,0.5644999999999527
419,16,0.5,0.25,35.0,1,1.0,0.34720100000004095
420,16,0.5,0.0625,35.0,-1,0.0,0.22210100000006605
421,16,0.5,0.125,-35.0,-1,1.0,0.2403999999999087
422,16,0.5,0.125,-35.0,-1,1.0,0.21630000000004657
423,16,0.5,0.125,35.0,-1,0.0,0.1973000000000411
424,16,0.5,0.125,35.0,1,1.0,0.41830099999992854
425,16,0.5,0.25,35.0,1,1.0,0.5046010000000933
426,16,0.5,0.0625,-35.0,-1,1.0,0.24890099999993254
427,16,0.5,1.0,-35.0,-1,1.0,0.21129999999993743
428,16,0.5,0.25,-35.0,-1,1.0,0.20230000000015025
429,16,0.5,0.0625,35.0,-1,0.0,4.561300999999958
430,16,0.5,0.25,35.0,1,1.0,0.38940100000013445
431,16,0.5,0.25,-35.0,-1,1.0,0.21820099999990816
432,16,0.5,0.25,-35.0,-1,1.0,0.20650000000000546
433,16,0.5,0.125,35.0,1,1.0,0.3784009999999398
434,16,0.5,1.0,35.0,1,1.0,0.364500999999791
435,16,0.5,0.25,-35.0,1,0.0,0.22180100000014136
436,16,0.5,0.125,-35.0,-1,1.0,0.22630099999992126
437,16,0.5,0.25,35.0,1,1.0,0.24879999999984648
438,16,0.5,0.0,35.0,-1,0.0,0.09049999999979264
439,16,0.5,0.0625,-35.0,-1,1.0,0.2822999999998501
440,16,0.5,0.125,-35.0,-1,1.0,0.1773000000000593
441,16,0.5,0.0,-35.0,-1,1.0,0.33580000000006294
442,16,0.5,0.0625,35.0,1,1.0,0.29389999999989413
443,16,0.5,0.125,35.0,1,1.0,0.5526999999999589
444,16,0.5,0.0625,35.0,1,1.0,0.9087010000000646
445,16,0.5,0.25,35.0,1,1.0,0.22959999999989122
446,16,0.5,0.125,-35.0,-1,1.0,0.22860100000002603
447,16,0.5,0.0,-35.0,1,0.0,0.3063009999998485
448,16,0.5,0.0,35.0,1,1.0,0.3838999999998123
449,16,0.5,1.0,-35.0,-1,1.0,0.1531009999998787
450,16,0.5,1.0,35.0,1,1.0,0.32780000000002474
451,16,0.5,0.25,-35.0,-1,1.0,0.2068010000000413
452,16,0.5,0.25,-35.0,-1,1.0,0.19879999999989195
453,16,0.5,1.0,35.0,1,1.0,0.3236010000000533
454,16,0.5,1.0,-35.0,-1,1.0,0.19130100000006678
455,16,0.5,0.25,35.0,1,1.0,0.2638000000001739
456,16,0.5,0.25,35.0,1,1.0,0.2618999999999687
457,16,0.5,0.25,35.0,1,1.0,0.27710000000001855
458,16,0.5,0.125,35.0,1,1.0,0.3429999999998472
459,16,0.5,0.0625,-35.0,-1,1.0,0.2840009999999893
460,16,0.5,1.0,35.0,1,1.0,0.29700100000013663
461,16,0.5,0.25,35.0,1,1.0,0.33100100000001476
462,16,0.5,0.25,35.0,1,1.0,0.1730009999998856
463,16,0.5,0.25,-35.0,-1,1.0,0.22110099999986232
464,16,0.5,0.125,35.0,1,1.0,0.2960000000000491
465,16,0.5,0.0,-35.0,-1,1.0,0.3181010000000697
466,16,0.5,0.125,-35.0,-1,1.0,0.18930100000011407
467,16,0.5,0.0625,-35.0,-1,1.0,0.1613999999999578
468,16,0.5,0.125,35.0,-1,0.0,0.09230000000002292
469,16,0.5,0.25,-35.0,-1,1.0,0.3851009999998496
470,16,0.5,0.125,-35.0,-1,1.0,0.25260099999991326
471,16,0.5,0.0625,-35.0,1,0.0,0.15829999999982647
472,16,0.5,0.0,-35.0,1,0.0,0.33590000000003783
473,16,0.5,0.125,35.0,-1,0.0,0.20860099999981685
474,16,0.3,0.125,35.0,1,1.0,0.33290099999999256
475,16,0.5,1.0,-35.0,-1,1.0,0.21870100000001003
476,16,0.5,0.125,-35.0,-1,1.0,0.21970099999998638
477,16,0.5,0.125,35.0,1,1.0,0.2756009999998241
478,16,0.5,1.0,-35.0,-1,1.0,0.17330100000003767
479,16,0.5,0.0,-35.0,1,0.0,0.2692999999997028
480,16,0.5,0.125,35.0,1,1.0,0.35669999999981883
481,16,0.5,1.0,-35.0,-1,1.0,0.1592000000000553
482,16,0.5,0.125,35.0,1,1.0,0.31760000000008404
483,16,0.5,1.0,-35.0,-1,1.0,0.1728009999999358
484,16,0.5,0.0,-35.0,-1,1.0,0.25440100000014354
485,16,0.5,0.125,35.0,-1,0.0,0.31960099999992053
486,16,0.5,0.0,35.0,-1,0.0,0.28550099999984013
487,16,0.4,0.0,-35.0,-1,1.0,0.2997009999999136
488,16,0.5,1.0,35.0,1,1.0,0.21739999999999782
489,16,0.5,1.0,35.0,1,1.0,0.2766999999998916
490,16,0.5,0.0625,35.0,1,1.0,0.3272999999999229
491,16,0.5,0.25,-35.0,-1,1.0,0.19659999999998945
492,16,0.5,0.125,-35.0,-1,1.0,0.23860100000001694
493,16,0.5,0.0625,-35.0,-1,1.0,0.22010099999988597
494,16,0.5,1.0,-35.0,-1,1.0,0.19420100000002094
495,16,0.5,0.25,-35.0,-1,1.0,0.23050100000000384
496,16,0.5,0.0,35.0,-1,0.0,0.14159999999992579
497,16,0.5,0.0,35.0,1,1.0,0.7472009999999045
498,16,0.5,0.125,35.0,1,1.0,0.25860099999999875
499,16,0.5,0.0625,35.0,-1,0.0,0.2112000000001899
500,16,0.5,0.0625,-35.0,-1,1.0,0.33559999999988577
501,16,0.5,0.0625,-35.0,-1,1.0,0.26440099999990707
502,16,0.5,0.0625,-35.0,1,0.0,0.12190000000009604
503,16,0.3,0.0625,35.0,1,1.0,0.6177010000001246
504,16,0.5,1.0,-35.0,-1,1.0,0.18499999999971806
505,16,0.5,0.0625,35.0,-1,0.0,0.22810099999992417
506,16,0.4,0.0625,-35.0,-1,1.0,0.21550000000002
507,16,0.5,1.0,35.0,-1,0.0,0.13819999999986976
508,16,0.5,0.0625,35.0,1,1.0,0.08600099999989652
509,16,0.5,1.0,35.0,1,1.0,0.248299999999972
510,16,0.5,0.0,-35.0,-1,1.0,0.24090000000001055
511,16,0.5,0.0625,35.0,1,1.0,0.32540099999982885
512,16,0.5,0.125,-35.0,-1,1.0,0.22689999999988686
513,16,0.5,1.0,-35.0,1,0.0,0.098700000000008
514,16,0.4,1.0,-35.0,-1,1.0,0.2339999999999236
515,16,0.5,1.0,35.0,1,1.0,0.27559999999994034
516,16,0.5,0.25,35.0,-1,0.0,0.11800000000016553
517,16,0.5,0.0,-35.0,-1,1.0,0.17899999999985994
518,16,0.5,0.125,-35.0,-1,1.0,0.19010000000002947
519,16,0.5,0.125,35.0,1,1.0,0.2826000000000022
520,16,0.5,1.0,35.0,1,1.0,0.1535999999998694
521,16,0.5,1.0,35.0,1,1.0,0.29940000000010514
522,16,0.5,1.0,35.0,1,1.0,0.40410099999985505
523,16,0.5,0.0625,-35.0,1,0.0,4.012901000000056
524,16,0.6,0.0625,35.0,-1,0.0,3.1939999999997326
525,16,0.5,1.0,35.0,1,1.0,0.3033010000001468
526,16,0.5,1.0,35.0,1,1.0,0.26759999999990214
527,16,0.5,1.0,-35.0,-1,1.0,0.29349999999999454
528,16,0.5,0.25,35.0,1,1.0,0.30120099999999184
529,16,0.5,0.0625,-35.0,-1,1.0,0.2435009999999238
530,16,0.5,0.125,35.0,-1,0.0,0.20129999999994652
531,16,0.5,0.25,35.0,1,1.0,0.4037999999998192
532,16,0.5,0.25,-35.0,-1,1.0,0.17530099999999038
533,16,0.5,0.125,-35.0,-1,1.0,0.17430099999978665
534,16,0.5,0.125,35.0,1,1.0,0.2357999999999265
535,16,0.5,1.0,-35.0,-1,1.0,0.19410100000004604
536,16,0.5,0.125,-35.0,-1,1.0,0.2152009999999791
537,16,0.5,0.25,35.0,-1,0.0,0.180800999999974
538,16,0.5,0.0,35.0,-1,0.0,0.13890000000037617
539,16,0.5,0.125,35.0,1,1.0,0.43150100000002567
540,16,0.5,0.25,-35.0,-1,1.0,0.22220000000015716
541,16,0.5,0.25,35.0,1,1.0,0.34480100000018865
542,16,0.5,0.25,35.0,1,1.0,0.3566000000000713
543,16,0.5,1.0,35.0,1,1.0,0.5649000000007618
544,16,0.5,0.0,35.0,1,1.0,1.1926010000001952
545,16,0.5,1.0,35.0,1,1.0,0.24160100000017337
546,16,0.5,0.0625,35.0,1,1.0,0.4428000000002612
547,16,0.5,0.125,-35.0,-1,1.0,0.26190100000030725
548,16,0.5,0.125,35.0,1,1.0,0.31770000000005894
549,16,0.5,0.125,35.0,1,1.0,0.29230000000052314
550,16,0.5,0.125,-35.0,-1,1.0,0.2666009999998096
551,16,0.5,1.0,-35.0,-1,1.0,0.20580100000006496
552,16,0.5,0.25,35.0,1,1.0,0.24330000000009022
553,16,0.5,0.125,35.0,-1,0.0,0.29240000000027067
554,16,0.5,0.25,-35.0,-1,1.0,0.22590000000036525
555,16,0.5,0.0,-35.0,-1,1.0,0.20590100000026723
556,16,0.5,0.25,35.0,1,1.0,0.2968010000004142
557,16,0.5,0.0,-35.0,1,0.0,0.44610099999999875
558,16,0.5,0.25,-35.0,-1,1.0,0.29179999999996653
559,16,0.5,0.0,-35.0,1,0.0,0.33650000000034197
560,16,0.5,0.125,35.0,1,1.0,0.327900000000227
561,16,0.5,0.25,35.0,1,1.0,0.3765010000001894
562,16,0.5,0.0625,-35.0,-1,1.0,0.3910009999999602
563,16,0.5,0.0625,35.0,-1,0.0,0.3168000000000575
564,16,0.5,0.125,35.0,1,1.0,0.41100000000051296
565,16,0.5,1.0,-35.0,-1,1.0,0.233600000000024
566,16,0.5,1.0,35.0,1,1.0,0.23200099999985468
567,16,0.5,0.0625,-35.0,-1,1.0,0.2270000000003165
568,16,0.5,0.125,-35.0,1,0.0,0.16130000000066502
569,16,0.6,0.125,35.0,1,1.0,0.4076000000000022
570,16,0.5,1.0,-35.0,-1,1.0,0.13520000000016807
571,16,0.5,0.25,35.0,1,1.0,0.28110000000015134
572,16,0.5,0.25,35.0,-1,0.0,0.17540099999996528
573,16,0.5,0.125,35.0,1,1.0,0.5477000000000771
574,16,0.5,0.0625,-35.0,-1,1.0,0.2231010000000424
575,16,0.5,1.0,-35.0,-1,1.0,0.28770100000065213
576,16,0.5,1.0,35.0,1,1.0,0.26020100000005186
577,16,0.5,0.125,-35.0,-1,1.0,5.224600000000464
578,16,0.5,0.25,-35.0,-1,1.0,0.19650000000001455
579,16,0.5,1.0,35.0,1,1.0,0.12170000000014625
580,16,0.5,0.0625,-35.0,-1,1.0,0.24620099999992817
581,16,0.5,0.25,-35.0,-1,1.0,0.26880100000062157
582,16,0.5,0.125,-35.0,-1,1.0,0.209400000000187
583,16,0.5,0.125,35.0,1,1.0,0.30860000000029686
584,16,0.5,0.25,35.0,1,1.0,0.4833010000002105
585,16,0.5,0.0625,35.0,1,1.0,0.1855000000000473
586,16,0.5,0.0625,-35.0,-1,1.0,0.1910000000002583
587,16,0.5,1.0,35.0,1,1.0,0.25900099999989834
588,16,0.5,0.25,-35.0,1,0.0,0.12050099999987651
589,16,0.5,0.125,-35.0,-1,1.0,0.3225000000002183
590,16,0.5,0.125,-35.0,-1,1.0,0.23450000000002547
591,16,0.5,0.0,35.0,1,1.0,0.3828000000003158
592,16,0.5,0.0625,-35.0,1,0.0,0.23040000000037253
593,16,0.5,0.0625,35.0,1,1.0,3.5765000000001237
594,16,0.5,0.0,35.0,1,1.0,0.28720099999964077
595,16,0.5,0.0625,35.0,1,1.0,0.3897000000006301
596,16,0.5,0.25,-35.0,-1,1.0,0.12069999999994252
597,16,0.5,0.125,35.0,1,1.0,0.18670000000020082
598,16,0.5,0.0,35.0,-1,0.0,0.7697010000001683
599,16,0.5,0.0625,-35.0,1,0.0,3.3238000000001193
600,16,0.7,0.0625,-35.0,-1,1.0,1.0648000000005595
601,16,0.5,1.0,-35.0,-1,1.0,0.19390000000021246
602,16,0.5,1.0,35.0,1,1.0,0.309001000000535
603,16,0.5,1.0,35.0,1,1.0,0.2739000000001397
604,16,0.5,0.0625,35.0,1,1.0,0.35179999999991196
605,16,0.5,0.0625,35.0,1,1.0,1.160899999999856
606,16,0.5,0.125,-35.0,-1,1.0,0.21289999999999054
607,16,0.5,0.125,35.0,1,1.0,0.33110000000033324
608,16,0.5,1.0,-35.0,-1,1.0,0.18990000000030705
609,16,0.5,0.125,35.0,1,1.0,0.487999999999829
610,16,0.5,1.0,35.0,1,1.0,0.2854000000002088
611,16,0.5,0.0625,-35.0,1,0.0,0.25790000000051805
612,16,0.5,0.125,-35.0,-1,1.0,0.25240000000030705
613,16,0.5,0.125,35.0,1,1.0,0.30160000000068976
614,16,0.5,0.25,-35.0,-1,1.0,0.25030000000015207
615,16,0.5,0.125,35.0,1,1.0,0.355000999999902
616,16,0.5,0.0625,-35.0,-1,1.0,0.23260000000027503
617,16,0.5,0.25,-35.0,-1,1.0,0.22870100000000093
618,16,0.5,0.0,35.0,1,1.0,0.21310100000073362
619,16,0.5,0.0,35.0,-1,0.0,0.23869999999988067
620,16,0.5,0.0,35.0,1,1.0,0.480199999999968
621,16,0.5,0.125,35.0,1,1.0,0.3192000000003645
622,16,0.5,0.125,35.0,1,1.0,0.36730000000034124
623,16,0.5,0.125,35.0,1,1.0,0.43240000000014334
624,16,0.5,0.125,-35.0,-1,1.0,0.20370099999990998
625,16,0.5,0.0,35.0,-1,0.0,0.3295010000001639
626,16,0.5,0.25,35.0,1,1.0,0.33050100000036764
627,16,0.5,0.0625,-35.0,-1,1.0,0.24650000000019645
628,16,0.5,0.125,35.0,1,1.0,0.3672999999998865
629,16,0.5,1.0,35.0,1,1.0,0.3564010000000053
630,16,0.5,0.0625,-35.0,1,0.0,0.3242009999999027
631,16,0.5,0.0,35.0,1,1.0,0.40330000000039945
632,16,0.5,0.25,-35.0,1,0.0,0.10740100000020902
633,16,0.5,0.0625,-35.0,-1,1.0,2.9170009999998
634,16,0.5,0.125,-35.0,1,0.0,2.278400000000147
635,16,0.5,0.125,35.0,1,1.0,0.34360000000015134
636,16,0.5,0.0625,-35.0,-1,1.0,0.2954999999997199
637,16,0.5,0.0625,35.0,1,1.0,0.3340000000002874
638,16,0.5,0.125,-35.0,-1,1.0,0.19239999999990687
639,16,0.5,1.0,-35.0,-1,1.0,0.19750000000021828
640,16,0.5,0.0625,35.0,1,1.0,0.3006000000000313
641,16,0.5,1.0,-35.0,-1,1.0,0.19770000000016807
642,16,0.5,0.0625,-35.0,1,0.0,0.36970000000019354
643,16,0.5,0.0625,35.0,1,1.0,0.35770099999990634
644,16,0.5,1.0,35.0,1,1.0,0.3258009999999558
645,16,0.5,1.0,35.0,1,1.0,0.35459999999966385
646,16,0.5,0.125,35.0,1,1.0,0.2352009999999609
647,16,0.5,0.0625,35.0,-1,0.0,0.44470099999989543
648,16,0.5,0.0,35.0,1,1.0,0.37700100000029124
649,16,0.5,0.0625,-35.0,-1,1.0,0.27870100000018283
650,16,0.5,1.0,35.0,1,1.0,0.34970000000021173
651,16,0.5,0.125,35.0,1,1.0,0.6384000000002743
652,16,0.5,0.25,35.0,1,1.0,0.3892009999999573
653,16,0.5,1.0,35.0,1,1.0,0.3188000000000102
654,16,0.5,0.0625,-35.0,-1,1.0,0.20670000000018263
655,16,0.5,0.25,35.0,-1,0.0,0.1689010000000053
656,16,0.6,0.25,-35.0,-1,1.0,0.1999010000004091
657,16,0.5,1.0,35.0,1,1.0,0.33910100000002785
658,16,0.5,0.0625,35.0,-1,0.0,0.23100100000056045
659,16,0.5,0.0625,-35.0,1,0.0,0.5694010000001981
660,16,0.6,0.0625,35.0,1,1.0,1.1302999999998065
661,16,0.5,1.0,35.0,1,1.0,0.40300100000013117
662,16,0.5,1.0,-35.0,-1,1.0,0.19459999999980937
663,16,0.5,0.0625,-35.0,-1,1.0,0.2596010000002025
664,16,0.5,0.125,-35.0,-1,1.0,0.2349010000002636
665,16,0.5,0.125,35.0,1,1.0,0.31989999999996144
666,16,0.5,0.125,-35.0,-1,1.0,0.43209999999999127
667,16,0.5,0.25,35.0,1,1.0,0.333299999999781
668,16,0.5,0.0625,-35.0,1,0.0,0.644600000000537
669,16,0.5,0.125,-35.0,-1,1.0,0.19350100000019665
670,16,0.5,1.0,-35.0,-1,1.0,0.26450000000022555
671,16,0.5,0.25,35.0,1,1.0,0.2972010000003138
672,16,0.5,0.125,-35.0,-1,1.0,0.25580100000024686
673,16,0.5,0.125,-35.0,-1,1.0,0.20060000000012224
674,16,0.5,1.0,35.0,1,1.0,0.40920100000039383
675,16,0.5,0.0,-35.0,1,0.0,0.3840010000003531
676,16,0.5,0.0,-35.0,1,0.0,0.4183000000002721
677,16,0.5,1.0,-35.0,-1,1.0,0.2175000000002001
678,16,0.5,0.125,35.0,1,1.0,0.36950000000024374
679,16,0.5,0.125,-35.0,-1,1.0,0.21090000000049258
680,16,0.5,0.25,35.0,-1,0.0,0.2624010000004091
681,16,0.5,0.0,35.0,1,1.0,7.41780000000017
682,16,0.5,0.0625,-35.0,1,0.0,0.5790999999999258
683,16,0.6,0.0625,-35.0,-1,1.0,0.22839999999996508
684,16,0.5,1.0,-35.0,-1,1.0,0.1991000000002714
685,16,0.5,0.0625,35.0,1,1.0,5.711700000000292
686,16,0.5,1.0,35.0,1,1.0,0.36990100000048187
687,16,0.5,1.0,-35.0,-1,1.0,0.1987010000002556
688,16,0.5,0.125,35.0,1,1.0,0.2666010000002643
689,16,0.5,0.0625,35.0,1,1.0,0.18230099999982485
690,16,0.5,1.0,35.0,1,1.0,0.5107000000002699
691,16,0.5,1.0,35.0,1,1.0,0.2424999999998363
692,16,0.5,0.25,35.0,1,1.0,0.2836000000002059
693,16,0.5,1.0,35.0,1,1.0,0.3757999999997992
694,16,0.5,1.0,35.0,1,1.0,0.34680000000025757
695,16,0.5,0.25,-35.0,-1,1.0,0.2330010000000584
696,16,0.5,1.0,-35.0,-1,1.0,0.2106010000002243
697,16,0.5,0.25,35.0,1,1.0,0.32979999999997744
698,16,0.5,1.0,35.0,1,1.0,0.34780000000000655
699,16,0.5,0.125,-35.0,-1,1.0,0.31300099999998565
700,16,0.5,0.25,35.0,1,1.0,0.2889000000004671
701,16,0.5,0.125,-35.0,-1,1.0,0.22340100000019447
702,16,0.5,0.25,35.0,1,1.0,0.35580000000072687
703,16,0.5,0.0625,-35.0,-1,1.0,0.3036010000000715
704,16,0.5,0.125,35.0,-1,0.0,0.1444010000000162
705,16,0.4,0.125,35.0,1,1.0,0.6470010000007278
706,16,0.5,1.0,35.0,1,1.0,0.29530100000056336
707,16,0.5,0.0625,35.0,1,1.0,0.3671009999998205
708,16,0.5,0.0,35.0,1,1.0,0.808100000000195
709,16,0.5,1.0,35.0,1,1.0,0.35740000000032524
710,16,0.5,0.125,-35.0,-1,1.0,0.2183010000003378
711,16,0.5,0.125,-35.0,-1,1.0,0.23420000000032815
712,16,0.5,0.25,-35.0,-1,1.0,0.12470000000030268
713,16,0.5,0.0,35.0,1,1.0,14.551000999999815
714,16,0.5,0.25,-35.0,-1,1.0,0.34290099999998347
715,16,0.5,1.0,35.0,1,1.0,0.5482999999999265
716,16,0.5,0.0,35.0,1,1.0,0.6163000000001375
717,16,0.5,1.0,35.0,1,1.0,0.2818010000000868
718,16,0.5,0.125,35.0,1,1.0,0.16630099999974846
719,16,0.5,1.0,35.0,1,1.0,0.35530100000005405
720,16,0.5,0.25,-35.0,-1,1.0,0.25070099999993545
721,16,0.5,1.0,-35.0,-1,1.0,0.21880200000032346
722,16,0.5,0.0625,35.0,1,1.0,0.5071020000004864
723,16,0.5,0.125,35.0,1,1.0,0.4159010000003036
724,16,0.5,1.0,-35.0,-1,1.0,0.18140200000061668
725,16,0.5,0.125,-35.0,-1,1.0,0.3226009999998496
726,16,0.5,0.125,-35.0,-1,1.0,0.20140100000025996
727,16,0.5,0.0,35.0,-1,0.0,0.44270200000028126
728,16,0.5,0.0625,35.0,1,1.0,0.3594010000006165
729,16,0.5,0.0625,35.0,-1,0.0,0.17960100000027523
730,16,0.3,0.0625,35.0,1,1.0,0.33190200000035475
731,16,0.5,1.0,-35.0,-1,1.0,0.19980200000054538
732,16,0.5,0.125,35.0,-1,0.0,0.33160199999974793
733,16,0.5,0.0625,-35.0,-1,1.0,5.466601000000082
734,16,0.5,0.25,-35.0,-1,1.0,0.13460200000008626
735,16,0.5,0.0625,35.0,1,1.0,0.5173020000001998
736,16,0.5,0.25,-35.0,-1,1.0,0.2080010000004222
737,16,0.5,0.25,-35.0,-1,1.0,0.1938020000002325
738,16,0.5,0.125,-35.0,-1,1.0,0.3947010000001683
739,16,0.5,0.25,-35.0,-1,1.0,0.7072010000001683
740,16,0.5,0.125,35.0,1,1.0,0.4254009999999653
741,16,0.5,0.125,35.0,1,1.0,0.3910009999999602
742,16,0.5,0.125,35.0,1,1.0,0.3297010000001137
743,16,0.5,1.0,-35.0,-1,1.0,0.40100200000006225
744,16,0.5,1.0,-35.0,-1,1.0,0.18880200000012337
745,16,0.5,0.125,35.0,1,1.0,0.47800199999983306
746,16,0.5,0.125,35.0,1,1.0,0.30880200000001423
747,16,0.5,0.25,-35.0,-1,1.0,0.4649010000002818
748,16,0.5,0.25,-35.0,-1,1.0,0.1899009999997361
749,16,0.5,0.0625,-35.0,-1,1.0,2.5882010000000264
750,16,0.5,0.0625,35.0,1,1.0,0.5929009999999835
751,16,0.5,1.0,-35.0,-1,1.0,0.20860199999970064
752,16,0.5,0.25,35.0,1,1.0,0.4156009999996968
753,16,0.5,0.0,-35.0,-1,1.0,0.23910100000057355
754,16,0.5,0.25,35.0,1,1.0,0.28710199999977704
755,16,0.5,1.0,-35.0,-1,1.0,0.19910099999970043
756,16,0.5,1.0,35.0,1,1.0,0.31060100000013335
757,16,0.5,0.125,35.0,1,1.0,0.44240099999979066
758,16,0.5,0.25,-35.0,-1,1.0,0.27410199999985707
759,16,0.5,1.0,35.0,1,1.0,0.37930199999982506
760,16,0.5,0.125,35.0,1,1.0,0.5848020000003089
761,16,0.5,0.0625,-35.0,-1,1.0,0.2894019999998818
762,16,0.5,0.0625,-35.0,-1,1.0,0.2272010000001501
763,16,0.5,0.125,-35.0,-1,1.0,0.2928020000003926
764,16,0.5,0.25,35.0,1,1.0,0.6982020000000375
765,16,0.5,0.0625,-35.0,-1,1.0,0.1297020000001794
766,16,0.5,0.0625,-35.0,1,0.0,0.3343020000006618
767,16,0.5,0.0625,35.0,1,1.0,0.32020200000033583
768,16,0.5,1.0,35.0,1,1.0,0.33100100000001476
769,16,0.5,1.0,-35.0,-1,1.0,0.21360199999980978
770,16,0.5,0.0625,35.0,-1,0.0,0.2424020000003111
771,16,0.5,0.25,-35.0,-1,1.0,0.23750100000052043
772,16,0.5,0.125,-35.0,-1,1.0,0.16800199999988763
773,16,0.5,1.0,-35.0,-1,1.0,0.2207010000001901
774,16,0.5,0.125,35.0,1,1.0,0.22350100000039674
775,16,0.5,1.0,-35.0,1,0.0,0.14090200000009645
776,16,0.5,0.0625,35.0,1,1.0,0.428501000000324
777,16,0.5,0.0625,-35.0,-1,1.0,0.32770099999970626
778,16,0.5,0.0,35.0,1,1.0,0.5155009999998583
779,16,0.5,1.0,-35.0,-1,1.0,0.20770100000027014
780,16,0.5,0.25,35.0,-1,0.0,0.1290010000006987
781,16,0.5,0.125,-35.0,-1,1.0,0.28800100000034945
782,16,0.5,0.25,-35.0,-1,1.0,0.17560099999991508
783,16,0.5,0.0625,35.0,1,1.0,0.5316010000005917
784,16,0.5,1.0,35.0,1,1.0,0.2927020000001903
785,16,0.5,0.0,-35.0,-1,1.0,14.188701000000492
786,16,0.5,1.0,35.0,1,1.0,0.25980100000015227
787,16,0.5,0.125,-35.0,-1,1.0,0.2956010000002607
788,16,0.5,0.0625,-35.0,-1,1.0,0.32690099999990707
789,16,0.5,0.125,35.0,1,1.0,0.40250099999957456
790,16,0.5,0.125,35.0,-1,0.0,0.33690100000012535
791,16,0.5,0.125,35.0,-1,0.0,0.3125009999998838
792,16,0.5,0.0,35.0,1,1.0,0.40790100000003804
793,16,0.5,0.25,-35.0,-1,1.0,0.21290200000021287
794,16,0.5,0.25,-35.0,-1,1.0,0.27090199999975084
795,16,0.5,0.25,-35.0,-1,1.0,0.19280100000059974
1,17,0.5,1.0,-35.0,-1,1.0,0.23450000000000015
2,17,0.5,0.125,35.0,1,1.0,0.3205999999999998
3,17,0.5,0.0,-35.0,1,0.0,1.681699
4,17,0.9,0.0,-35.0,1,0.0,12.8196
5,17,0.5,1.0,-35.0,-1,1.0,0.315400000000011
6,17,0.5,0.0625,-35.0,1,0.0,13.916699000000001
7,17,0.5,0.125,-35.0,-1,1.0,7.191799000000003
8,17,0.5,0.25,-35.0,-1,1.0,0.1990990000000039
9,17,0.5,0.125,35.0,1,1.0,0.3743000000000052
10,17,0.5,0.125,-35.0,-1,1.0,0.1986000000000132
11,17,0.5,0.25,35.0,1,1.0,0.3175990000000155
12,17,0.5,1.0,35.0,-1,0.0,0.22640000000001237
13,17,0.5,0.125,35.0,-1,0.0,11.139399999999995
14,17,0.5,0.25,35.0,1,1.0,0.26359900000001346
15,17,0.5,1.0,-35.0,-1,1.0,0.2305990000000122
16,17,0.5,1.0,-35.0,-1,1.0,0.28699999999999193
17,17,0.5,0.0,-35.0,-1,1.0,13.935198999999983
18,17,0.5,0.25,-35.0,-1,1.0,0.31280000000000996
19,17,0.5,0.0,-35.0,-1,1.0,0.2949999999999875
20,17,0.5,0.125,35.0,-1,0.0,0.13759899999999448
21,17,0.5,0.125,-35.0,-1,1.0,0.5181989999999814
22,17,0.5,0.0625,-35.0,1,0.0,5.849700000000013
23,17,0.5,0.25,-35.0,-1,1.0,0.30920000000000414
24,17,0.5,0.25,-35.0,-1,1.0,0.5791989999999885
25,17,0.5,0.25,-35.0,-1,1.0,0.49499900000000707
26,17,0.5,0.125,35.0,1,1.0,0.3016990000000135
27,17,0.5,0.0625,-35.0,-1,1.0,0.3359000000000094
28,17,0.5,1.0,35.0,1,1.0,0.5502999999999929
29,17,0.5,0.0625,35.0,-1,0.0,7.161799000000002
30,17,0.5,0.125,35.0,1,1.0,0.3007999999999811
31,17,0.5,0.25,-35.0,-1,1.0,0.26049900000001003
32,17,0.5,0.25,-35.0,1,0.0,0.6413000000000011
33,17,0.5,0.125,35.0,1,1.0,0.4853999999999985
34,17,0.5,0.25,-35.0,-1,1.0,0.3367990000000134
35,17,0.5,0.0,35.0,1,1.0,2.072199000000012
36,17,0.5,0.0,35.0,-1,0.0,8.783699000000013
37,17,0.5,0.0,-35.0,-1,1.0,6.1392990000000225
38,17,0.5,0.0,-35.0,-1,1.0,0.29349899999999707
39,17,0.5,1.0,-35.0,-1,1.0,0.24949899999998593
40,17,0.5,0.0,-35.0,-1,1.0,0.22249899999999911
41,17,0.5,0.0,-35.0,-1,1.0,0.2411989999999946
42,17,0.5,1.0,-35.0,-1,1.0,0.35359900000000266
43,17,0.5,0.0625,35.0,-1,0.0,0.3325990000000161
44,17,0.5,0.25,35.0,-1,0.0,1.9196000000000026
45,17,0.5,0.25,35.0,1,1.0,0.4730989999999906
46,17,0.5,0.125,-35.0,-1,1.0,0.24619899999999006
47,17,0.5,1.0,-35.0,-1,1.0,0.22219899999998916
48,17,0.5,0.125,-35.0,-1,1.0,2.5483990000000176
49,17,0.5,1.0,-35.0,-1,1.0,0.3427990000000136
50,17,0.5,0.0625,35.0,-1,0.0,3.422300000000007
51,17,0.1,0.0625,35.0,1,1.0,0.3949999999999818
52,17,0.5,1.0,35.0,1,1.0,0.31339899999994714
53,17,0.5,0.25,-35.0,-1,1.0,0.2421990000000278
54,17,0.5,0.0625,-35.0,-1,1.0,4.074800000000039
55,17,0.5,0.25,-35.0,-1,1.0,0.22689900000000307
56,17,0.5,0.0625,-35.0,-1,1.0,0.8518990000000031
57,17,0.5,0.25,35.0,-1,0.0,1.4004990000000248
58,17,0.5,0.0,35.0,-1,0.0,0.4810000000000514
59,17,0.5,0.125,-35.0,-1,1.0,0.23750000000001137
60,17,0.5,1.0,35.0,1,1.0,0.2330000000000041
61,17,0.5,1.0,-35.0,-1,1.0,0.2896999999999821
62,17,0.5,0.25,-35.0,-1,1.0,0.37000000000000455
63,17,0.5,1.0,-35.0,-1,1.0,0.15489900000000034
64,17,0.5,0.0,35.0,-1,0.0,0.26200000000000045
65,17,0.1,0.0,35.0,1,1.0,0.4329990000000521
66,17,0.5,1.0,35.0,1,1.0,0.36700000000001864
67,17,0.5,1.0,-35.0,-1,1.0,0.17249900000001617
68,17,0.5,0.0625,35.0,1,1.0,6.265098999999964
69,17,0.5,0.125,-35.0,-1,1.0,0.24759999999997717
70,17,0.5,0.125,-35.0,-1,1.0,0.3007000000000062
71,17,0.5,0.125,-35.0,-1,1.0,0.24850000000003547
72,17,0.5,0.25,-35.0,-1,1.0,0.14519899999999097
73,17,0.5,0.25,-35.0,-1,1.0,0.3131990000000542
74,17,0.5,0.0625,-35.0,-1,1.0,0.5280999999999949
75,17,0.5,0.125,35.0,1,1.0,0.3258989999999926
76,17,0.5,0.25,35.0,1,1.0,0.6421989999999482
77,17,0.5,0.25,35.0,1,1.0,0.5801989999999932
78,17,0.5,0.0625,35.0,-1,0.0,0.2570989999999824
79,17,0.5,0.125,-35.0,-1,1.0,0.3061000000000149
80,17,0.5,0.0625,-35.0,-1,1.0,0.5372990000000186
81,17,0.5,0.0625,-35.0,-1,1.0,0.2225999999999999
82,17,0.5,0.25,35.0,1,1.0,0.22289899999998397
83,17,0.5,1.0,-35.0,-1,1.0,0.17730000000000246
84,17,0.5,1.0,-35.0,-1,1.0,0.24429900000001226
85,17,0.5,0.25,35.0,1,1.0,0.3053990000000226
86,17,0.5,0.0625,-35.0,-1,1.0,4.871498999999972
87,17,0.5,0.125,35.0,-1,0.0,3.8876999999999953
88,17,0.5,0.125,35.0,-1,0.0,4.767899000000057
89,17,0.5,0.0625,35.0,1,1.0,0.3691000000000031
90,17,0.5,0.0625,35.0,1,1.0,0.5020999999999844
91,17,0.5,0.125,35.0,1,1.0,0.6710000000000491
92,17,0.5,0.25,-35.0,-1,1.0,0.2189999999999941
93,17,0.5,1.0,-35.0,-1,1.0,0.2645999999999731
94,17,0.5,0.0625,-35.0,-1,1.0,0.24399999999997135
95,17,0.5,1.0,-35.0,-1,1.0,0.42769900000001826
96,17,0.5,0.0625,-35.0,-1,1.0,0.5058989999999994
97,17,0.5,1.0,35.0,1,1.0,0.1556990000000269
98,17,0.5,0.0625,-35.0,-1,1.0,0.396000000000015
99,17,0.5,1.0,35.0,1,1.0,0.49179900000001453
100,17,0.5,0.25,35.0,1,1.0,0.3314990000000648
101,17,0.5,0.25,-35.0,-1,1.0,0.614799000000005
102,17,0.5,0.0625,-35.0,-1,1.0,0.3959000000000401
103,17,0.5,0.0625,-35.0,-1,1.0,3.2037990000000036
104,17,0.5,0.125,35.0,1,1.0,0.3824000000000183
105,17,0.5,1.0,-35.0,-1,1.0,0.18889999999987594
106,17,0.5,0.0625,-35.0,-1,1.0,0.2137000000000171
107,17,0.5,0.0625,35.0,-1,0.0,8.84909899999991
108,17,0.5,0.25,-35.0,-1,1.0,5.791998999999919
109,17,0.5,0.0,35.0,-1,0.0,0.23309900000003836
110,17,0.5,0.0,-35.0,-1,1.0,0.6880989999999656
111,17,0.5,0.25,-35.0,1,0.0,1.1230990000000247
112,17,0.5,0.0625,-35.0,-1,1.0,0.333498999999847
113,17,0.5,1.0,35.0,1,1.0,0.3788999999999305
114,17,0.5,0.25,-35.0,-1,1.0,3.052699999999959
115,17,0.5,0.125,-35.0,-1,1.0,0.3494999999999209
116,17,0.5,0.125,-35.0,-1,1.0,0.6906999999998789
117,17,0.5,0.25,-35.0,-1,1.0,0.20420000000001437
118,17,0.5,1.0,35.0,1,1.0,0.19969899999989593
119,17,0.5,1.0,-35.0,-1,1.0,0.27419899999995323
120,17,0.5,0.125,35.0,1,1.0,0.5287999999999329
121,17,0.5,1.0,35.0,1,1.0,0.3329999999998563
122,17,0.5,0.125,35.0,1,1.0,0.8251999999998816
123,17,0.5,0.125,35.0,1,1.0,0.3572999999998956
124,17,0.5,0.25,-35.0,-1,1.0,0.48939899999993486
125,17,0.5,1.0,-35.0,-1,1.0,0.3706999999999425
126,17,0.5,0.25,35.0,1,1.0,0.3634989999999334
127,17,0.5,0.25,35.0,1,1.0,0.5002990000000409
128,17,0.5,1.0,-35.0,-1,1.0,0.38469899999995505
129,17,0.5,1.0,-35.0,-1,1.0,0.3533989999999676
130,17,0.5,1.0,-35.0,-1,1.0,0.40650000000005093
131,17,0.5,0.0625,35.0,1,1.0,0.28949999999986176
132,17,0.5,0.0625,-35.0,-1,1.0,0.26799900000003163
133,17,0.5,0.125,35.0,1,1.0,0.3903989999998885
134,17,0.5,0.0,35.0,1,1.0,0.48529999999982465
135,17,0.5,0.25,-35.0,-1,1.0,0.208498999999847
136,17,0.5,1.0,-35.0,-1,1.0,0.3938989999999194
137,17,0.5,0.125,-35.0,-1,1.0,0.2225989999998319
138,17,0.5,0.125,-35.0,-1,1.0,0.23730000000000473
139,17,0.5,0.125,-35.0,-1,1.0,0.42729899999994814
140,17,0.5,0.0,-35.0,1,0.0,11.403799999999933
141,17,0.5,0.0625,35.0,1,1.0,0.3895989999998619
142,17,0.5,0.0,-35.0,-1,1.0,23.459699
143,17,0.5,0.0625,-35.0,-1,1.0,0.5077989999998636
144,17,0.5,0.25,-35.0,-1,1.0,0.4502989999999727
145,17,0.5,0.125,-35.0,-1,1.0,0.2257999999999356
146,17,0.5,0.25,-35.0,-1,1.0,0.21289999999999054
147,17,0.5,0.125,-35.0,-1,1.0,0.3989999999998872
148,17,0.5,0.125,35.0,1,1.0,0.6481999999999744
149,17,0.5,1.0,35.0,1,1.0,0.3572999999998956
150,17,0.5,0.0625,-35.0,-1,1.0,0.3221999999999525
151,17,0.5,0.0625,35.0,1,1.0,1.0368989999999485
152,17,0.5,1.0,35.0,1,1.0,0.3550000000000182
153,17,0.5,1.0,-35.0,-1,1.0,0.2218999999998914
154,17,0.5,0.25,35.0,1,1.0,0.3754989999999907
155,17,0.5,0.125,35.0,1,1.0,0.42899899999997615
156,17,0.5,0.25,35.0,1,1.0,0.4585989999999356
157,17,0.5,1.0,-35.0,-1,1.0,0.23509999999998854
158,17,0.5,0.0,-35.0,-1,1.0,1.3319989999999962
159,17,0.5,1.0,35.0,1,1.0,0.4089000000000169
160,17,0.5,0.125,-35.0,-1,1.0,0.25329999999985375
161,17,0.5,0.0625,-35.0,-1,1.0,0.23299999999994725
162,17,0.5,0.0625,35.0,1,1.0,0.6600989999999456
163,17,0.5,0.125,-35.0,-1,1.0,0.2460999999999558
164,17,0.5,0.125,-35.0,-1,1.0,0.14719899999988684
165,17,0.5,1.0,35.0,1,1.0,0.33619899999996505
166,17,0.5,0.125,35.0,1,1.0,0.759698999999955
167,17,0.5,0.0625,-35.0,-1,1.0,9.779198999999949
168,17,0.5,1.0,35.0,1,1.0,0.391599000000042
169,17,0.5,0.0625,35.0,1,1.0,0.7024999999999864
170,17,0.5,0.25,-35.0,-1,1.0,0.22469899999998688
171,17,0.5,0.0625,-35.0,-1,1.0,16.000399000000016
172,17,0.5,1.0,35.0,1,1.0,0.5635989999999538
173,17,0.5,0.0625,35.0,-1,0.0,0.13499899999987974
174,17,0.5,0.0625,35.0,1,1.0,0.7124000000000024
175,17,0.5,0.25,-35.0,-1,1.0,0.24349899999992886
176,17,0.5,0.125,35.0,1,1.0,0.3598989999999276
177,17,0.5,0.0625,35.0,-1,0.0,0.2524999999999409
178,17,0.5,0.0625,35.0,1,1.0,0.3250999999999067
179,17,0.5,0.25,35.0,1,1.0,0.34469899999999143
180,17,0.5,0.0,35.0,-1,0.0,15.07189900000003
181,17,0.5,0.0,35.0,-1,0.0,1.4880999999999176
182,17,0.5,1.0,-35.0,-1,1.0,0.24649999999996908
183,17,0.5,0.125,35.0,1,1.0,0.5597000000000207
184,17,0.5,0.25,35.0,1,1.0,0.19049899999993158
185,17,0.5,1.0,-35.0,-1,1.0,0.26569899999992685
186,17,0.5,0.25,-35.0,-1,1.0,0.19669899999985319
187,17,0.5,0.125,35.0,1,1.0,0.4821989999999232
188,17,0.5,0.25,-35.0,-1,1.0,0.2337999999999738
189,17,0.5,1.0,35.0,1,1.0,0.3680989999999156
190,17,0.5,1.0,-35.0,-1,1.0,0.463799999999992
191,17,0.5,0.0,-35.0,-1,1.0,15.017398999999841
192,17,0.5,0.25,35.0,1,1.0,5.379799999999932
193,17,0.5,0.0,-35.0,-1,1.0,7.168898999999897
194,17,0.5,1.0,-35.0,-1,1.0,0.4029999999999063
195,17,0.5,1.0,35.0,1,1.0,0.4420000000000073
196,17,0.5,0.0625,35.0,-1,0.0,0.4076000000000022
197,17,0.5,0.0625,35.0,1,1.0,5.529098999999974
198,17,0.5,1.0,-35.0,-1,1.0,0.21539899999993395
199,17,0.5,0.25,35.0,1,1.0,0.2635999999999967
200,17,0.5,0.25,35.0,1,1.0,0.6099989999999025
201,17,0.5,0.25,35.0,1,1.0,0.4156000000000404
202,17,0.5,0.125,-35.0,-1,1.0,0.2521999999999025
203,17,0.5,0.125,35.0,1,1.0,0.5183989999999312
204,17,0.5,0.0625,-35.0,-1,1.0,7.570198999999889
205,17,0.5,0.25,35.0,1,1.0,0.3487999999998692
206,17,0.5,0.25,-35.0,-1,1.0,0.2255999999999858
207,17,0.5,0.125,35.0,-1,0.0,0.19109899999989466
208,17,0.5,0.125,35.0,-1,0.0,0.2682999999999538
209,17,0.5,0.0,-35.0,1,0.0,0.4212999999998601
210,17,0.5,0.0,-35.0,-1,1.0,14.725398999999925
211,17,0.5,1.0,-35.0,-1,1.0,0.48539899999991576
212,17,0.5,0.125,35.0,1,1.0,0.49959899999998925
213,17,0.5,0.125,-35.0,-1,1.0,0.29179900000008274
214,17,0.5,0.0,-35.0,-1,1.0,0.4744989999999234
215,17,0.5,0.125,35.0,1,1.0,0.6385999999999967
216,17,0.5,0.25,35.0,1,1.0,0.49749900000006164
217,17,0.5,0.0625,35.0,-1,0.0,0.23559999999997672
218,17,0.5,0.125,-35.0,-1,1.0,1.0096999999998388
219,17,0.5,1.0,-35.0,-1,1.0,0.1822999999997137
220,17,0.5,0.25,-35.0,-1,1.0,1.0630999999998494
221,17,0.5,0.125,35.0,1,1.0,0.5026989999998932
222,17,0.5,0.125,-35.0,-1,1.0,0.22929999999996653
223,17,0.5,1.0,-35.0,-1,1.0,0.3413989999999103
224,17,0.5,0.0625,35.0,1,1.0,1.0661999999999807
225,17,0.5,0.125,-35.0,-1,1.0,0.30799899999988156
226,17,0.5,0.125,35.0,1,1.0,0.3095989999999347
227,17,0.5,0.25,-35.0,1,0.0,2.9169999999999163
228,17,0.4,0.25,-35.0,-1,1.0,0.2567999999998847
229,17,0.5,1.0,35.0,-1,0.0,0.34479899999973895
230,17,0.5,0.125,35.0,-1,0.0,0.2633989999997084
231,17,0.5,0.0625,35.0,-1,0.0,1.8578990000000886
232,17,0.3,0.0625,-35.0,1,0.0,1.2202989999998408
233,17,0.5,1.0,35.0,1,1.0,0.5719990000000053
234,17,0.5,0.0625,35.0,-1,0.0,7.670499999999947
235,17,0.5,0.0625,35.0,-1,0.0,5.749098999999887
236,17,0.4,0.0625,35.0,-1,0.0,10.614198999999871
237,17,0.5,1.0,35.0,1,1.0,7.989099000000124
238,17,0.5,1.0,-35.0,-1,1.0,0.4414999999999054
239,17,0.5,0.0625,-35.0,-1,1.0,6.7490999999999985
240,17,0.5,0.0625,-35.0,-1,1.0,0.26510000000007494
241,17,0.5,1.0,-35.0,-1,1.0,2.753199999999879
242,17,0.5,0.125,35.0,1,1.0,0.4954999999999927
243,17,0.5,1.0,35.0,1,1.0,0.4463999999998123
244,17,0.5,0.125,-35.0,-1,1.0,0.44899899999995796
245,17,0.5,0.0625,35.0,1,1.0,0.8542989999998554
246,17,0.5,0.25,35.0,1,1.0,0.8655999999998585
247,17,0.5,0.125,35.0,1,1.0,0.46640000000002146
248,17,0.5,0.0,-35.0,-1,1.0,0.23929899999984627
249,17,0.5,0.0625,35.0,1,1.0,1.3733999999999469
250,17,0.5,1.0,35.0,1,1.0,0.465900000000147
251,17,0.5,0.0625,35.0,-1,0.0,4.027499999999918
252,17,0.5,0.125,35.0,1,1.0,0.4362999999998465
253,17,0.5,0.125,35.0,1,1.0,0.9444999999998345
254,17,0.5,0.125,35.0,1,1.0,3.0865000000001146
255,17,0.5,0.0625,-35.0,1,0.0,1.358498999999938
256,17,0.5,0.25,-35.0,-1,1.0,0.2766990000000078
257,17,0.5,0.0625,35.0,-1,0.0,1.8706989999998314
258,17,0.6,0.0625,35.0,1,1.0,14.303499000000102
259,17,0.5,1.0,-35.0,-1,1.0,0.6486989999998514
260,17,0.5,1.0,35.0,1,1.0,0.32750000000010004
261,17,0.5,0.125,35.0,1,1.0,0.34869899999989684
262,17,0.5,0.0625,-35.0,1,0.0,0.30090000000018335
263,17,0.7,0.0625,-35.0,-1,1.0,0.366800000000012
264,17,0.5,1.0,35.0,1,1.0,0.4044989999997597
265,17,0.5,0.125,-35.0,-1,1.0,2.305498999999827
266,17,0.5,0.125,-35.0,-1,1.0,0.2747999999999138
267,17,0.5,0.0625,35.0,1,1.0,0.558898999999883
268,17,0.5,0.25,35.0,1,1.0,0.3714989999998579
269,17,0.5,0.25,35.0,1,1.0,0.3892989999999372
270,17,0.5,0.0625,-35.0,-1,1.0,6.184999999999945
271,17,0.5,1.0,-35.0,-1,1.0,0.21979899999996633
272,17,0.5,0.125,-35.0,-1,1.0,3.5151989999999387
273,17,0.5,1.0,35.0,1,1.0,0.3292999999998756
274,17,0.5,0.125,-35.0,1,0.0,3.405499999999847
275,17,0.5,0.125,-35.0,-1,1.0,0.15099899999995614
276,17,0.5,1.0,-35.0,-1,1.0,0.22259899999971822
277,17,0.5,0.25,-35.0,-1,1.0,0.4049999999999727
278,17,0.5,0.0625,35.0,1,1.0,0.42919899999992595
279,17,0.5,0.25,-35.0,-1,1.0,0.347199000000046
280,17,0.5,0.125,-35.0,-1,1.0,0.25949900000000525
281,17,0.5,1.0,-35.0,-1,1.0,0.3111989999999878
282,17,0.5,0.125,-35.0,-1,1.0,0.24629899999968075
283,17,0.5,0.25,-35.0,-1,1.0,0.24119900000005146
284,17,0.5,0.25,-35.0,-1,1.0,0.22620000000006257
285,17,0.5,0.25,35.0,1,1.0,0.6981989999999314
286,17,0.5,0.25,35.0,1,1.0,1.126498999999967
287,17,0.5,0.25,-35.0,-1,1.0,0.24749999999994543
288,17,0.5,0.25,35.0,1,1.0,0.6231999999999971
289,17,0.5,0.0,-35.0,-1,1.0,0.24929900000006455
290,17,0.5,0.125,35.0,1,1.0,10.260298999999804
291,17,0.5,0.25,-35.0,-1,1.0,0.28340000000002874
292,17,0.5,0.25,-35.0,1,0.0,2.567298999999821
293,17,0.5,0.25,35.0,1,1.0,0.4024000000001706
294,17,0.5,1.0,35.0,1,1.0,0.46059999999988577
295,17,0.5,0.125,-35.0,-1,1.0,0.2420990000000529
296,17,0.5,0.25,35.0,1,1.0,0.6876999999999498
297,17,0.5,1.0,-35.0,-1,1.0,0.3755999999998494
298,17,0.5,0.0,-35.0,-1,1.0,6.357698999999911
299,17,0.5,0.125,35.0,-1,0.0,0.22249899999974332
300,17,0.5,0.0625,35.0,1,1.0,15.337999000000082
301,17,0.5,0.25,35.0,1,1.0,0.9245999999998276
302,17,0.5,1.0,-35.0,-1,1.0,0.40199900000015987
303,17,0.5,1.0,-35.0,-1,1.0,0.332700000000159
304,17,0.5,0.0625,-35.0,-1,1.0,0.4219989999999143
305,17,0.5,0.0,35.0,-1,0.0,0.36619999999993524
306,17,0.5,0.0625,35.0,-1,0.0,0.5188999999998032
307,17,0.5,0.0,-35.0,-1,1.0,5.203800000000001
308,17,0.5,0.125,35.0,1,1.0,0.9791999999999916
309,17,0.5,1.0,-35.0,-1,1.0,0.4108000000001084
310,17,0.5,0.125,-35.0,-1,1.0,0.5096000000000913
311,17,0.5,0.25,35.0,1,1.0,0.49699999999984357
312,17,0.5,0.0625,35.0,-1,0.0,2.4597989999999754
313,17,0.5,0.125,-35.0,-1,1.0,0.5903990000001613
314,17,0.5,0.25,-35.0,-1,1.0,0.25670000000013715
315,17,0.5,0.125,35.0,-1,0.0,0.4049999999999727
316,17,0.5,0.0625,-35.0,-1,1.0,0.3333989999998721
317,17,0.5,0.25,35.0,1,1.0,0.41030000000000655
318,17,0.5,0.25,-35.0,-1,1.0,0.20349899999996524
319,17,0.5,0.0,-35.0,-1,1.0,3.561000000000149
320,17,0.5,0.0625,-35.0,-1,1.0,23.29719900000009
321,17,0.5,0.0625,-35.0,-1,1.0,0.2624989999999343
322,17,0.5,0.0625,-35.0,1,0.0,3.57120000000009
323,17,0.5,0.25,35.0,1,1.0,0.7047999999997501
324,17,0.5,0.125,35.0,1,1.0,1.2622989999999845
325,17,0.5,0.125,-35.0,-1,1.0,0.32829999999967185
326,17,0.5,0.25,35.0,1,1.0,0.5390990000000784
327,17,0.5,0.0625,-35.0,-1,1.0,0.2683999999999287
328,17,0.5,1.0,35.0,1,1.0,0.516198999999915
329,17,0.5,0.125,35.0,1,1.0,0.5353000000000065
330,17,0.5,0.125,35.0,1,1.0,0.5828989999997702
331,17,0.5,0.125,35.0,-1,0.0,0.24209899999982554
332,17,0.5,0.25,-35.0,-1,1.0,0.5696990000001279
333,17,0.5,0.25,-35.0,-1,1.0,0.24880000000007385
334,17,0.5,0.25,35.0,1,1.0,0.3174989999997706
335,17,0.5,1.0,35.0,1,1.0,0.5024989999999434
336,17,0.5,0.0,-35.0,-1,1.0,7.013399000000163
337,17,0.5,1.0,-35.0,-1,1.0,0.21939999999995052
338,17,0.5,1.0,-35.0,-1,1.0,0.3073990000000322
339,17,0.5,0.25,-35.0,-1,1.0,0.3460989999998674
340,17,0.5,0.25,-35.0,-1,1.0,0.22100000000000364
341,17,0.5,1.0,35.0,1,1.0,0.5364989999998215
342,17,0.5,0.25,-35.0,-1,1.0,0.4705999999998767
343,17,0.5,0.0,-35.0,1,0.0,10.219698999999764
344,17,0.5,0.0,-35.0,-1,1.0,0.29729999999995016
345,17,0.5,0.0,35.0,-1,0.0,0.2868989999999485
346,17,0.5,0.0625,35.0,-1,0.0,0.11069999999995161
347,17,0.2,0.0625,35.0,1,1.0,0.5137989999998354
348,17,0.5,1.0,-35.0,-1,1.0,0.46129999999971005
349,17,0.5,0.125,-35.0,-1,1.0,0.23709899999994377
350,17,0.5,1.0,35.0,1,1.0,0.4068009999998594
351,17,0.5,0.125,35.0,1,1.0,0.5073999999999614
352,17,0.5,0.125,35.0,1,1.0,0.48150100000020757
353,17,0.5,0.125,35.0,1,1.0,0.47080000000005384
354,17,0.5,1.0,-35.0,-1,1.0,0.22550100000012208
355,17,0.5,0.125,-35.0,-1,1.0,0.23430000000007567
356,17,0.5,0.25,35.0,1,1.0,0.3788999999999305
357,17,0.5,0.25,35.0,1,1.0,0.3944010000000162
358,17,0.5,0.125,35.0,1,1.0,0.3889010000000326
359,17,0.5,1.0,-35.0,-1,1.0,0.3779010000000653
360,17,0.5,1.0,35.0,1,1.0,0.33890100000007806
361,17,0.5,0.125,35.0,1,1.0,0.40810000000010405
362,17,0.5,0.0625,35.0,1,1.0,0.4470010000000002
363,17,0.5,0.25,-35.0,-1,1.0,0.17829999999980828
364,17,0.5,0.0,-35.0,1,0.0,1.324000999999953
365,17,0.5,0.0625,35.0,1,1.0,0.34520099999986087
366,17,0.5,0.0,35.0,-1,0.0,0.2857000000001335
367,17,0.5,0.25,35.0,1,1.0,0.5121999999998934
368,17,0.5,1.0,35.0,1,1.0,0.3527999999998883
369,17,0.5,0.0,35.0,-1,0.0,3.042400999999927
370,17,0.5,0.0,-35.0,1,0.0,0.457100999999966
371,17,0.5,0.0625,35.0,1,1.0,16.62259999999992
372,17,0.5,0.0625,35.0,-1,0.0,7.9465999999999894
373,17,0.5,0.25,35.0,1,1.0,0.5766000000000986
374,17,0.5,0.125,-35.0,-1,1.0,0.34770099999991544
375,17,0.5,0.125,35.0,1,1.0,0.45030100000008133
376,17,0.5,0.0,-35.0,1,0.0,0.4814000000001215
377,17,0.5,0.0,35.0,1,1.0,16.8237009999998
378,17,0.5,0.125,-35.0,-1,1.0,0.23509999999987485
379,17,0.5,0.25,-35.0,-1,1.0,0.42419999999992797
380,17,0.5,1.0,35.0,1,1.0,0.6082010000000082
381,17,0.5,1.0,35.0,1,1.0,0.4244010000002163
382,17,0.5,0.25,35.0,1,1.0,0.3451999999999771
383,17,0.5,1.0,-35.0,-1,1.0,0.24450000000001637
384,17,0.5,1.0,35.0,1,1.0,0.4719999999997526
385,17,0.5,0.0,-35.0,-1,1.0,1.0379009999999198
386,17,0.5,1.0,-35.0,-1,1.0,0.19570099999987178
387,17,0.5,0.0625,35.0,1,1.0,10.364900000000034
388,17,0.5,0.0625,35.0,1,1.0,0.3427999999998974
389,17,0.5,0.125,35.0,1,1.0,0.4150999999999385
390,17,0.5,0.125,-35.0,-1,1.0,0.2561009999997168
391,17,0.5,1.0,-35.0,-1,1.0,0.3588009999998576
392,17,0.5,0.0625,-35.0,-1,1.0,3.3738009999999576
393,17,0.5,0.125,-35.0,-1,1.0,0.21230100000002494
394,17,0.5,0.25,35.0,1,1.0,0.35350100000005114
