trial_num,session_num,stim_probability_left,contrast,position,response_choice,trial_correct,reaction_time
1,4,0.5,1.0,35.0,1,1.0,0.6524000000000005
2,4,0.5,0.25,35.0,1,1.0,0.9438000000000004
3,4,0.5,0.125,35.0,1,1.0,1.544599999999999
4,4,0.5,0.0625,-35.0,-1,1.0,1.2540010000000024
5,4,0.5,0.0625,-35.0,-1,1.0,0.33340100000000206
6,4,0.5,0.5,35.0,1,1.0,0.5877010000000027
7,4,0.5,0.0,-35.0,1,0.0,0.38400000000000034
8,4,0.5,0.125,35.0,1,1.0,0.5482000000000014
9,4,0.5,0.0,35.0,-1,0.0,1.330600000000004
10,4,0.5,0.25,-35.0,-1,1.0,0.4955009999999973
11,4,0.5,0.125,35.0,1,1.0,6.774500000000003
12,4,0.5,1.0,-35.0,-1,1.0,0.8573000000000022
13,4,0.5,0.5,-35.0,-1,1.0,0.3469000000000051
14,4,0.5,0.0,35.0,1,1.0,0.28140099999999535
15,4,0.5,0.0,-35.0,-1,1.0,0.5345009999999917
16,4,0.5,0.25,35.0,1,1.0,0.23969999999999914
17,4,0.5,0.0,-35.0,1,0.0,0.11210099999998135
18,4,0.5,0.0,35.0,1,1.0,0.3262009999999975
19,4,0.5,0.125,35.0,1,1.0,0.2587999999999937
20,4,0.5,0.0625,35.0,1,1.0,0.3649999999999949
21,4,0.5,0.0625,-35.0,-1,1.0,0.33449999999999136
22,4,0.5,0.25,-35.0,-1,1.0,0.38649999999999807
23,4,0.5,0.25,35.0,1,1.0,0.19909999999998718
24,4,0.5,0.5,35.0,1,1.0,0.3696999999999946
25,4,0.5,0.0625,-35.0,1,0.0,0.20430000000000348
26,4,0.5,0.25,35.0,1,1.0,0.23480099999999027
27,4,0.5,0.125,35.0,1,1.0,0.18150099999999725
28,4,0.5,0.5,35.0,1,1.0,0.2499999999999858
29,4,0.5,0.0625,35.0,-1,0.0,1.1144010000000009
30,4,0.7,0.0625,-35.0,-1,1.0,0.3410999999999831
31,4,0.5,1.0,-35.0,-1,1.0,0.6733999999999867
32,4,0.5,0.125,-35.0,-1,1.0,0.4937010000000157
33,4,0.5,0.125,-35.0,-1,1.0,0.43950000000000955
34,4,0.5,0.0,35.0,-1,0.0,0.46889999999999077
35,4,0.5,0.125,35.0,1,1.0,0.20829999999997995
36,4,0.5,1.0,-35.0,-1,1.0,0.337900999999988
37,4,0.5,0.125,-35.0,-1,1.0,0.35849999999999227
38,4,0.5,0.25,-35.0,1,0.0,0.16139999999998622
39,4,0.2,0.25,35.0,1,1.0,0.3447999999999922
40,4,0.5,1.0,35.0,1,1.0,0.2070009999999911
41,4,0.5,0.0625,35.0,1,1.0,0.2073000000000036
42,4,0.5,0.0625,35.0,-1,0.0,0.8726999999999805
43,4,0.5,0.0,35.0,-1,0.0,0.31770099999997115
44,4,0.5,0.25,35.0,1,1.0,0.2477000000000089
45,4,0.5,0.0625,35.0,1,1.0,0.19780000000000086
46,4,0.5,0.0625,-35.0,-1,1.0,1.4435009999999977
47,4,0.5,1.0,35.0,1,1.0,0.20180099999998902
48,4,0.5,0.0625,35.0,1,1.0,0.3861000000000274
49,4,0.5,0.125,-35.0,-1,1.0,0.6538010000000156
50,4,0.5,0.125,-35.0,-1,1.0,0.4890999999999792
51,4,0.5,0.25,-35.0,-1,1.0,0.43089999999997985
52,4,0.5,0.25,-35.0,-1,1.0,0.31990099999998733
53,4,0.5,0.0625,35.0,1,1.0,0.23099999999999454
54,4,0.5,0.25,35.0,1,1.0,0.27100099999998406
55,4,0.5,0.25,35.0,1,1.0,0.3670009999999877
56,4,0.5,1.0,-35.0,-1,1.0,0.38400000000001455
57,4,0.5,0.125,35.0,1,1.0,0.21160099999997328
58,4,0.5,1.0,-35.0,-1,1.0,0.5791009999999801
59,4,0.5,0.25,-35.0,-1,1.0,0.15450000000004138
60,4,0.5,0.0625,35.0,1,1.0,1.5200000000000387
61,4,0.5,1.0,35.0,-1,0.0,0.11090100000006942
62,4,0.5,1.0,35.0,1,1.0,0.4292000000000371
63,4,0.5,1.0,-35.0,-1,1.0,0.19970100000000457
64,4,0.5,0.0625,35.0,-1,0.0,0.1332010000000423
65,4,0.5,0.0625,35.0,1,1.0,0.2503000000000384
66,4,0.5,1.0,-35.0,-1,1.0,0.571200000000033
67,4,0.5,0.0625,35.0,1,1.0,0.3604000000000269
68,4,0.5,0.0625,-35.0,-1,1.0,0.834301000000039
69,4,0.5,0.25,-35.0,-1,1.0,0.36930000000000973
70,4,0.5,0.0625,35.0,1,1.0,0.30670099999997547
71,4,0.5,0.0,-35.0,-1,1.0,1.3063999999999965
72,4,0.5,1.0,35.0,1,1.0,0.2177000000000362
73,4,0.5,0.0625,-35.0,-1,1.0,0.3320000000000505
74,4,0.5,0.0625,35.0,1,1.0,0.24740000000002738
75,4,0.5,1.0,-35.0,-1,1.0,0.4846010000000547
76,4,0.5,0.0625,-35.0,-1,1.0,0.3185010000000261
77,4,0.5,0.0625,-35.0,1,0.0,0.23050000000000637
78,4,0.4,0.0625,35.0,-1,0.0,0.22860000000002856
79,4,0.5,1.0,-35.0,-1,1.0,0.43800099999998565
80,4,0.5,0.125,-35.0,-1,1.0,0.45940000000001646
81,4,0.5,0.125,-35.0,-1,1.0,0.31300099999998565
82,4,0.5,0.0625,35.0,1,1.0,0.21460000000001855
83,4,0.5,0.0,35.0,1,1.0,1.8767010000000255
84,4,0.5,1.0,35.0,1,1.0,0.18870099999998047
85,4,0.5,0.25,-35.0,-1,1.0,0.5319010000000048
86,4,0.5,0.25,35.0,-1,0.0,6.141799999999989
87,4,0.4,0.25,35.0,1,1.0,0.25180000000005975
88,4,0.5,1.0,-35.0,-1,1.0,0.6557999999999993
89,4,0.5,0.0625,-35.0,-1,1.0,3.736801000000014
90,4,0.5,0.0625,-35.0,-1,1.0,0.4608000000000061
91,4,0.5,1.0,-35.0,-1,1.0,0.34840000000002647
92,4,0.5,0.25,35.0,1,1.0,1.7443000000000666
93,4,0.5,0.25,-35.0,-1,1.0,0.3249010000000112
94,4,0.5,1.0,35.0,1,1.0,0.3900010000000407
95,4,0.5,1.0,-35.0,-1,1.0,0.42200000000002547
96,4,0.5,1.0,-35.0,-1,1.0,0.3583000000000425
97,4,0.5,0.0625,-35.0,1,0.0,0.22830000000004702
98,4,0.5,0.25,-35.0,-1,1.0,0.4551010000000133
99,4,0.5,0.0,35.0,1,1.0,0.21639999999996462
100,4,0.5,0.0625,-35.0,-1,1.0,1.7981000000000336
101,4,0.5,0.25,-35.0,1,0.0,0.16210100000000693
102,4,0.5,0.125,35.0,1,1.0,0.25820000000004484
103,4,0.5,0.0625,-35.0,-1,1.0,0.4393010000000004
104,4,0.5,0.0,35.0,-1,0.0,0.440900000000056
105,4,0.4,0.0,-35.0,1,0.0,0.691201000000035
106,4,0.5,1.0,35.0,1,1.0,0.19220100000006823
107,4,0.5,0.125,-35.0,-1,1.0,0.25710000000003674
108,4,0.5,0.0625,-35.0,-1,1.0,0.5982999999999947
109,4,0.5,0.125,35.0,1,1.0,0.2823009999999613
110,4,0.5,0.0,35.0,-1,0.0,1.2962999999998601
111,4,0.5,0.25,35.0,1,1.0,0.2503000000000384
112,4,0.5,0.125,-35.0,-1,1.0,0.27749999999991815
113,4,0.5,0.0625,35.0,-1,0.0,0.6036009999999123
114,4,0.5,0.125,-35.0,-1,1.0,0.5765010000000075
115,4,0.5,0.25,-35.0,-1,1.0,0.4775009999999611
116,4,0.5,0.125,-35.0,-1,1.0,0.3035009999999829
117,4,0.5,0.125,-35.0,-1,1.0,0.34550000000001546
118,4,0.5,0.0625,-35.0,-1,1.0,0.2540010000000166
119,4,0.5,1.0,35.0,1,1.0,0.270300999999904
120,4,0.5,1.0,-35.0,-1,1.0,0.10960099999999784
121,4,0.5,0.0625,-35.0,-1,1.0,1.7720999999999094
122,4,0.5,0.0,-35.0,-1,1.0,0.3347009999998818
123,4,0.5,0.25,35.0,1,1.0,0.23080099999992854
124,4,0.5,0.0625,-35.0,-1,1.0,0.3057009999999991
125,4,0.5,0.125,35.0,1,1.0,0.29450099999996837
126,4,0.5,0.125,35.0,1,1.0,0.8069009999999253
127,4,0.5,0.0625,-35.0,-1,1.0,0.47030099999994945
128,4,0.5,1.0,-35.0,-1,1.0,0.3629009999999653
129,4,0.5,0.125,35.0,1,1.0,0.9482999999999038
130,4,0.5,1.0,-35.0,-1,1.0,0.3450009999999111
131,4,0.5,0.25,-35.0,-1,1.0,0.48040100000002894
132,4,0.5,0.125,35.0,1,1.0,0.5298000000000229
133,4,0.5,0.0625,-35.0,1,0.0,0.213799999999992
134,4,0.5,0.0,-35.0,-1,1.0,1.9000999999999522
135,4,0.5,0.125,-35.0,-1,1.0,0.5490999999999531
136,4,0.5,1.0,35.0,1,1.0,0.20420000000001437
137,4,0.5,1.0,35.0,1,1.0,0.2682009999998627
138,4,0.5,0.25,35.0,1,1.0,0.19480099999987033
139,4,0.5,0.0625,35.0,1,1.0,1.234299999999962
140,4,0.5,0.0,-35.0,-1,1.0,0.24030099999993126
141,4,0.5,0.25,35.0,1,1.0,0.26630099999999857
142,4,0.5,0.0625,-35.0,-1,1.0,0.2760999999999285
143,4,0.5,0.25,-35.0,-1,1.0,0.3826000000000249
144,4,0.5,0.0625,35.0,-1,0.0,0.3893009999999322
145,4,0.5,0.0625,35.0,1,1.0,0.926300999999853
146,4,0.5,1.0,-35.0,-1,1.0,0.2033999999999878
147,4,0.5,0.0,-35.0,-1,1.0,0.939899999999966
148,4,0.5,0.125,35.0,1,1.0,0.9343999999999824
149,4,0.5,0.0,35.0,1,1.0,0.19050099999992653
150,4,0.5,0.125,-35.0,-1,1.0,0.33939999999995507
151,4,0.5,0.0625,-35.0,-1,1.0,0.43269999999995434
152,4,0.5,0.0625,-35.0,-1,1.0,0.3634999999999309
153,4,0.5,1.0,-35.0,-1,1.0,0.33890099999996437
154,4,0.5,0.0625,-35.0,-1,1.0,0.2966999999999871
155,4,0.5,0.125,-35.0,1,0.0,0.3322010000000546
156,4,0.5,0.0625,35.0,1,1.0,2.038000000000011
157,4,0.5,0.125,35.0,1,1.0,0.23460099999999784
158,4,0.5,0.0625,35.0,1,1.0,1.1417009999998982
159,4,0.5,0.0,35.0,-1,0.0,1.319101000000046
160,4,0.5,0.0625,-35.0,-1,1.0,0.34569999999996526
161,4,0.5,1.0,-35.0,-1,1.0,0.12720100000001366
162,4,0.5,0.0625,-35.0,-1,1.0,0.2519009999999753
163,4,0.5,0.125,-35.0,-1,1.0,0.3785009999999147
164,4,0.5,0.0,35.0,-1,0.0,1.3978009999999585
165,4,0.5,0.25,-35.0,-1,1.0,0.30510100000003604
166,4,0.5,0.125,-35.0,-1,1.0,0.47090099999991253
167,4,0.5,0.125,35.0,-1,0.0,0.656699999999887
168,4,0.5,0.0,-35.0,1,0.0,0.26690099999984795
169,4,0.5,0.0625,-35.0,-1,1.0,0.71120099999996
170,4,0.5,0.0,35.0,-1,0.0,1.9359999999999218
171,4,0.5,0.125,35.0,-1,0.0,1.0874999999999773
172,4,0.5,0.25,35.0,1,1.0,0.27800000000002
173,4,0.5,1.0,-35.0,-1,1.0,0.6411009999999351
174,4,0.5,0.25,-35.0,-1,1.0,0.31510099999991326
175,4,0.5,0.125,-35.0,-1,1.0,0.26210100000002967
176,4,0.5,0.0625,-35.0,-1,1.0,0.6261000000000649
177,4,0.5,0.125,35.0,1,1.0,0.24460099999998874
178,4,0.5,0.25,35.0,1,1.0,0.23019999999996799
179,4,0.5,0.25,35.0,1,1.0,0.1696999999999207
180,4,0.5,0.25,35.0,1,1.0,0.27080000000000837
181,4,0.5,0.0625,35.0,1,1.0,0.3262009999999691
182,4,0.5,0.25,35.0,1,1.0,0.22449999999992087
183,4,0.5,0.25,-35.0,-1,1.0,1.3113009999999576
184,4,0.5,0.125,-35.0,-1,1.0,0.5013000000000147
185,4,0.5,0.25,35.0,1,1.0,0.20900099999994382
186,4,0.5,0.25,-35.0,-1,1.0,0.9453999999999496
187,4,0.5,0.0625,35.0,1,1.0,1.346700999999939
188,4,0.5,0.125,35.0,1,1.0,0.2914009999999507
189,4,0.5,0.125,35.0,1,1.0,0.21199999999998909
190,4,0.5,0.25,35.0,1,1.0,0.2395010000000184
191,4,0.5,1.0,35.0,1,1.0,0.12980099999992945
192,4,0.5,1.0,-35.0,-1,1.0,0.4455000000000382
193,4,0.5,0.125,35.0,-1,0.0,0.3976000000000113
194,4,0.5,0.125,35.0,-1,0.0,2.6245009999998956
195,4,0.5,0.25,-35.0,-1,1.0,0.32579999999995835
196,4,0.5,0.125,35.0,1,1.0,0.5547000000000253
197,4,0.5,0.25,-35.0,-1,1.0,0.9467999999999392
198,4,0.5,0.25,-35.0,-1,1.0,0.3546999999999798
199,4,0.5,0.25,35.0,1,1.0,0.2679999999999154
200,4,0.5,0.125,-35.0,-1,1.0,0.34280100000000857
201,4,0.5,0.25,-35.0,-1,1.0,0.23480000000006385
202,4,0.5,0.25,-35.0,-1,1.0,0.2378009999998767
203,4,0.5,0.0,35.0,1,1.0,1.2058000000000675
204,4,0.5,0.25,-35.0,-1,1.0,0.2478009999999813
205,4,0.5,0.0,-35.0,-1,1.0,0.876399999999876
206,4,0.5,1.0,35.0,1,1.0,0.17489999999997963
207,4,0.5,0.25,35.0,1,1.0,0.49620099999992817
208,4,0.5,1.0,-35.0,-1,1.0,0.28090099999985796
209,4,0.5,0.25,35.0,1,1.0,1.7563000000000102
210,4,0.5,0.25,35.0,1,1.0,0.20470099999988633
211,4,0.5,0.25,-35.0,-1,1.0,0.34999999999990905
212,4,0.5,0.25,-35.0,-1,1.0,1.3919999999998254
213,4,0.5,0.25,35.0,1,1.0,0.21340099999974882
214,4,0.5,0.125,35.0,-1,0.0,1.0655010000000402
215,4,0.5,0.25,-35.0,-1,1.0,0.273401000000149
216,4,0.5,0.0625,-35.0,-1,1.0,0.4069010000000617
217,4,0.5,0.0,-35.0,-1,1.0,0.613700000000108
218,4,0.5,0.0,-35.0,-1,1.0,3.2326000000000477
219,4,0.5,0.25,35.0,1,1.0,0.3141009999999369
220,4,0.5,0.0,-35.0,-1,1.0,0.5915009999998802
221,4,0.5,1.0,35.0,1,1.0,0.7341999999998734
222,4,0.5,0.25,-35.0,-1,1.0,0.5205999999998312
223,4,0.5,0.125,-35.0,1,0.0,0.3244010000000799
224,4,0.5,0.25,-35.0,-1,1.0,0.13720100000000457
225,4,0.5,0.125,35.0,-1,0.0,1.7346999999997479
226,4,0.5,0.25,-35.0,-1,1.0,0.4112999999999829
227,4,0.5,1.0,-35.0,-1,1.0,0.46480099999985214
228,4,0.5,0.25,-35.0,-1,1.0,0.24589999999989232
229,4,0.5,0.0625,35.0,1,1.0,0.3320009999999911
230,4,0.5,0.25,35.0,1,1.0,0.23940099999981612
231,4,0.5,0.0625,35.0,1,1.0,1.60870100000011
232,4,0.5,0.0,35.0,-1,0.0,1.0144999999997708
233,4,0.5,0.125,-35.0,1,0.0,0.20250099999975646
234,4,0.5,0.125,-35.0,-1,1.0,0.4812009999998281
235,4,0.5,0.0625,35.0,1,1.0,0.27569999999991524
236,4,0.5,0.0625,35.0,1,1.0,0.27060000000005857
237,4,0.5,1.0,-35.0,-1,1.0,0.3525999999999385
238,4,0.5,0.0625,-35.0,-1,1.0,0.3625999999999294
239,4,0.5,0.25,-35.0,-1,1.0,0.36619999999993524
240,4,0.5,0.25,-35.0,-1,1.0,0.24860000000012406
241,4,0.5,0.0,-35.0,1,0.0,3.8661010000000715
242,4,0.5,0.25,35.0,1,1.0,0.537000999999691
243,4,0.5,1.0,35.0,1,1.0,0.14070099999980812
244,4,0.5,0.125,-35.0,-1,1.0,0.3166999999998552
245,4,0.5,0.125,35.0,1,1.0,0.26670100000001185
246,4,0.5,0.0625,-35.0,-1,1.0,0.4434009999999944
247,4,0.5,1.0,-35.0,-1,1.0,0.5537999999999101
248,4,0.5,0.0625,35.0,1,1.0,0.30359999999996035
249,4,0.5,0.25,35.0,1,1.0,0.2598009999999249
250,4,0.5,0.125,35.0,1,1.0,0.4338000000000193
251,4,0.5,0.25,35.0,1,1.0,2.7480010000001585
252,4,0.5,1.0,-35.0,-1,1.0,0.4575009999998656
253,4,0.5,0.125,-35.0,-1,1.0,0.28099999999994907
254,4,0.5,0.125,-35.0,-1,1.0,0.3911000000000513
255,4,0.5,0.25,-35.0,-1,1.0,0.3861010000000533
256,4,0.5,1.0,-35.0,-1,1.0,1.7246999999999844
257,4,0.5,0.0,-35.0,-1,1.0,3.426100000000133
258,4,0.5,1.0,-35.0,-1,1.0,0.5284009999998034
259,4,0.5,0.0625,35.0,-1,0.0,3.1340999999999894
260,4,0.2,0.0625,35.0,1,1.0,1.562199999999848
261,4,0.5,1.0,35.0,1,1.0,0.28720099999986815
262,4,0.5,0.25,-35.0,-1,1.0,0.6155009999999947
263,4,0.5,0.125,-35.0,-1,1.0,0.3432000000000244
264,4,0.5,0.0,-35.0,1,0.0,0.24929999999994834
265,4,0.5,0.25,-35.0,-1,1.0,0.30929999999989377
266,4,0.5,0.25,35.0,1,1.0,0.2059999999999036
267,4,0.5,0.25,35.0,1,1.0,0.2353009999999358
268,4,0.5,0.0,-35.0,-1,1.0,0.6594009999998889
269,4,0.5,1.0,35.0,1,1.0,0.24440100000015264
270,4,0.5,0.0,35.0,-1,0.0,1.503400000000056
271,4,0.5,0.125,-35.0,-1,1.0,0.24519999999984066
272,4,0.5,1.0,-35.0,-1,1.0,0.29339999999979227
273,4,0.5,0.0625,-35.0,-1,1.0,0.33239999999977954
274,4,0.5,0.125,35.0,1,1.0,0.27660100000002785
275,4,0.5,0.0,-35.0,1,0.0,3.0494999999998527
276,4,0.5,0.25,-35.0,-1,1.0,0.23060099999997874
277,4,0.5,0.25,-35.0,-1,1.0,0.3158009999999649
278,4,0.5,0.0625,-35.0,-1,1.0,0.35380099999974846
279,4,0.5,1.0,-35.0,-1,1.0,0.7191999999997734
280,4,0.5,0.0625,35.0,-1,0.0,0.6306009999998423
281,4,0.5,0.25,-35.0,-1,1.0,0.9116009999997914
282,4,0.5,0.0,35.0,1,1.0,1.157699999999977
283,4,0.5,1.0,-35.0,-1,1.0,0.36669999999980973
284,4,0.5,1.0,35.0,1,1.0,0.19440000000008695
285,4,0.5,1.0,35.0,1,1.0,0.28080099999988306
286,4,0.5,0.25,-35.0,-1,1.0,0.7545000000000073
287,4,0.5,0.25,35.0,1,1.0,0.20660100000009152
288,4,0.5,0.0625,35.0,1,1.0,0.8615010000000893
289,4,0.5,1.0,35.0,1,1.0,0.16479999999978645
290,4,0.5,0.0625,-35.0,1,0.0,0.31490100000019083
291,4,0.5,0.0625,-35.0,-1,1.0,0.4754010000001472
292,4,0.5,0.25,35.0,1,1.0,0.2918010000000777
293,4,0.5,0.25,35.0,1,1.0,0.2138999999999669
294,4,0.5,0.0,-35.0,1,0.0,0.24510099999974955
295,4,0.5,0.125,35.0,1,1.0,0.233400999999958
296,4,0.5,0.0625,-35.0,-1,1.0,1.812199999999848
297,4,0.5,0.0625,35.0,1,1.0,2.2469999999998436
298,4,0.5,0.0625,35.0,1,1.0,2.0255010000000766
299,4,0.5,0.125,35.0,1,1.0,0.3443999999999505
300,4,0.5,0.25,35.0,1,1.0,0.2859000000000833
301,4,0.5,0.125,35.0,1,1.0,0.7064000000000306
302,4,0.5,1.0,35.0,1,1.0,0.16630099999997583
303,4,0.5,0.25,35.0,1,1.0,0.24319999999988795
304,4,0.5,0.125,35.0,1,1.0,0.23640000000000327
305,4,0.5,1.0,-35.0,-1,1.0,0.3243009999998776
306,4,0.5,0.25,-35.0,-1,1.0,0.2967009999997572
307,4,0.5,0.0625,35.0,-1,0.0,0.35019999999985885
308,4,0.5,0.0625,-35.0,1,0.0,0.24679999999989377
309,4,0.5,0.0625,-35.0,-1,1.0,0.3343009999998685
310,4,0.5,0.125,-35.0,-1,1.0,0.3904010000001108
311,4,0.5,1.0,-35.0,-1,1.0,0.2994009999999889
312,4,0.5,0.0,35.0,-1,0.0,3.187400999999909
313,4,0.5,0.125,-35.0,-1,1.0,0.4513010000000577
314,4,0.5,0.25,35.0,1,1.0,0.177599999999984
315,4,0.5,0.0,-35.0,1,0.0,0.2562009999999191
316,4,0.5,0.25,-35.0,-1,1.0,0.3476999999998043
317,4,0.5,0.125,35.0,1,1.0,0.4075000000000273
318,4,0.5,0.25,-35.0,-1,1.0,0.274599999999964
319,4,0.5,1.0,-35.0,-1,1.0,0.47650099999987106
320,4,0.5,0.125,-35.0,-1,1.0,0.52470100000005
321,4,0.5,1.0,35.0,1,1.0,0.27250099999992017
322,4,0.5,1.0,-35.0,-1,1.0,0.2984010000000126
323,4,0.5,0.125,-35.0,-1,1.0,0.32159999999998945
324,4,0.5,1.0,35.0,1,1.0,0.2886999999998352
325,4,0.5,0.25,35.0,1,1.0,0.25860099999999875
326,4,0.5,0.0625,35.0,1,1.0,1.5817010000000664
327,4,0.5,0.0,-35.0,1,0.0,0.9785010000000511
328,4,0.5,0.125,35.0,-1,0.0,2.1257009999999354
329,4,0.5,0.125,-35.0,-1,1.0,0.4822999999998956
330,4,0.5,0.125,-35.0,-1,1.0,0.4609009999999216
331,4,0.5,1.0,-35.0,-1,1.0,1.2189009999999598
332,4,0.5,0.25,-35.0,-1,1.0,2.3514010000001235
333,4,0.5,0.0,-35.0,1,0.0,0.15919999999982792
334,4,0.5,0.0,-35.0,-1,1.0,5.632900999999947
335,4,0.5,1.0,-35.0,-1,1.0,0.6466010000001461
336,4,0.5,0.25,35.0,1,1.0,0.5479000000000269
337,4,0.5,1.0,35.0,1,1.0,0.27000100000009297
338,4,0.5,0.25,35.0,1,1.0,0.28129999999987376
339,4,0.5,0.0,35.0,-1,0.0,0.9465000000000146
340,4,0.5,0.0625,35.0,-1,0.0,0.8090010000000802
341,4,0.5,0.25,35.0,1,1.0,0.2838009999998121
342,4,0.5,0.0625,-35.0,-1,1.0,2.000101000000086
343,4,0.5,1.0,35.0,1,1.0,0.24700000000007094
344,4,0.5,0.0,35.0,-1,0.0,18.53900099999987
345,4,0.5,0.0,35.0,-1,0.0,5.3808010000000195
346,4,0.5,1.0,35.0,1,1.0,0.21620000000007167
347,4,0.5,0.0625,35.0,-1,0.0,0.25470100000006823
348,4,0.5,0.25,35.0,1,1.0,0.6631000000002132
349,4,0.5,0.0,-35.0,-1,1.0,7.478000999999949
350,4,0.5,0.0625,-35.0,-1,1.0,2.038399999999683
351,4,0.5,0.0625,-35.0,1,0.0,0.2749999999998636
352,4,0.5,0.25,-35.0,-1,1.0,0.3084010000000035
353,4,0.5,0.0,-35.0,-1,1.0,11.461800999999923
354,4,0.5,0.0,35.0,-1,0.0,6.107499999999845
355,4,0.5,0.0625,-35.0,-1,1.0,0.5824999999997544
356,4,0.5,1.0,-35.0,-1,1.0,0.7096000000001368
357,4,0.5,0.0625,-35.0,-1,1.0,4.072701000000052
358,4,0.5,0.125,35.0,1,1.0,0.5854999999999109
359,4,0.5,0.25,-35.0,-1,1.0,0.5063000000000102
360,4,0.5,0.125,-35.0,-1,1.0,0.941700999999739
361,4,0.5,0.0625,-35.0,-1,1.0,0.8867010000001301
362,4,0.5,0.0625,35.0,1,1.0,0.24880000000007385
363,4,0.5,0.0,-35.0,-1,1.0,1.5167999999998756
364,4,0.5,0.0625,35.0,-1,0.0,0.34379999999987376
365,4,0.5,0.125,35.0,1,1.0,0.25700000000006185
366,4,0.5,1.0,-35.0,-1,1.0,0.3269009999996797
367,4,0.5,0.0625,-35.0,-1,1.0,0.5238999999999123
368,4,0.5,0.0625,35.0,1,1.0,0.33019999999987704
369,4,0.5,0.25,-35.0,-1,1.0,0.5439000000001215
370,4,0.5,0.25,-35.0,-1,1.0,0.2568999999998596
371,4,0.5,0.0,-35.0,-1,1.0,1.824301000000105
372,4,0.5,0.125,-35.0,-1,1.0,0.5764999999998963
373,4,0.5,0.0,35.0,-1,0.0,2.1811999999997624
374,4,0.5,0.25,-35.0,-1,1.0,0.5399999999999636
375,4,0.5,1.0,35.0,1,1.0,0.20499999999992724
376,4,0.5,0.25,35.0,1,1.0,0.23610099999996237
377,4,0.5,0.0625,35.0,1,1.0,0.6816010000000006
378,4,0.5,0.25,-35.0,-1,1.0,0.4951009999999769
379,4,0.5,1.0,35.0,1,1.0,0.24839999999994689
380,4,0.5,0.25,-35.0,-1,1.0,0.28710000000023683
381,4,0.5,0.0625,-35.0,-1,1.0,1.455300999999963
382,4,0.5,0.0625,-35.0,1,0.0,1.3902999999997974
383,4,0.5,0.0625,-35.0,-1,1.0,0.435399999999845
384,4,0.5,0.25,35.0,1,1.0,0.26319999999986976
385,4,0.5,1.0,-35.0,-1,1.0,0.49900000000002365
386,4,0.5,1.0,-35.0,-1,1.0,0.4863000000000284
387,4,0.5,0.25,35.0,1,1.0,0.22590100000024904
388,4,0.5,0.25,-35.0,-1,1.0,0.8414000000000215
389,4,0.5,1.0,35.0,1,1.0,0.25290099999983795
390,4,0.5,0.0625,35.0,-1,0.0,0.5743999999999687
391,4,0.5,0.25,-35.0,-1,1.0,0.2864009999998416
392,4,0.5,0.25,35.0,1,1.0,0.21050100000002203
393,4,0.5,1.0,-35.0,-1,1.0,0.30979999999999563
394,4,0.5,0.0,35.0,-1,0.0,0.29890099999988706
395,4,0.5,0.125,35.0,-1,0.0,1.1099999999999
396,4,0.3,0.125,35.0,-1,0.0,0.4725999999998294
397,4,0.5,1.0,35.0,1,1.0,0.32369999999991705
398,4,0.5,0.25,-35.0,-1,1.0,0.3428999999998723
399,4,0.5,0.0625,-35.0,-1,1.0,1.1739999999999782
400,4,0.5,0.0,35.0,1,1.0,2.546000999999933
401,4,0.5,0.25,35.0,1,1.0,0.26759999999990214
402,4,0.5,0.25,35.0,1,1.0,0.31169999999974607
403,4,0.5,0.0,35.0,-1,0.0,0.5480009999998856
404,4,0.5,0.125,35.0,1,1.0,0.7848010000000158
405,4,0.5,0.0625,35.0,1,1.0,0.2581009999998969
406,4,0.5,0.25,35.0,1,1.0,1.080199999999877
407,4,0.5,0.25,-35.0,-1,1.0,0.41479999999978645
408,4,0.5,1.0,-35.0,-1,1.0,
409,4,0.5,0.25,35.0,1,1.0,0.8510009999999966
410,4,0.5,0.0,35.0,1,1.0,2.0083009999998467
411,4,0.5,0.25,35.0,1,1.0,0.26090099999987615
412,4,0.5,0.0,35.0,-1,0.0,1.298900999999887
413,4,0.5,0.125,-35.0,-1,1.0,0.46299999999973807
414,4,0.5,0.0,-35.0,1,0.0,0.3453999999999269
415,4,0.5,0.125,-35.0,-1,1.0,0.48200000000019827
416,4,0.5,0.0625,-35.0,-1,1.0,1.7124009999999998
417,4,0.5,0.0625,35.0,-1,0.0,3.501100000000406
418,4,0.5,0.25,35.0,1,1.0,0.2559999999998581
419,4,0.5,0.125,35.0,1,1.0,0.4460010000002512
420,4,0.5,0.0625,-35.0,-1,1.0,1.4992999999999483
421,4,0.5,0.0625,35.0,-1,0.0,0.4661010000004353
422,4,0.5,0.0625,35.0,1,1.0,3.409801000000243
423,4,0.5,0.125,-35.0,-1,1.0,0.48020000000042273
424,4,0.5,0.0625,-35.0,-1,1.0,0.56020000000035
425,4,0.5,0.0,-35.0,-1,1.0,0.629001000000244
426,4,0.5,1.0,-35.0,-1,1.0,0.4169000000001688
427,4,0.5,0.0,-35.0,-1,1.0,1.3203000000003158
428,4,0.5,0.125,35.0,1,1.0,0.23380000000042855
429,4,0.5,1.0,-35.0,-1,1.0,0.5648999999998523
430,4,0.5,0.0625,35.0,1,1.0,0.3273000000003776
431,4,0.5,0.0625,35.0,1,1.0,1.0844010000000708
432,4,0.5,0.0625,-35.0,-1,1.0,0.3241000000002714
433,4,0.5,0.0,35.0,-1,0.0,0.48950000000058935
434,4,0.5,0.0,35.0,-1,0.0,5.344400000000405
435,4,0.5,0.25,35.0,1,1.0,0.3675010000001748
436,4,0.5,0.0,35.0,1,1.0,2.7146010000005845
437,4,0.5,0.0625,-35.0,-1,1.0,0.8935010000004695
438,4,0.5,0.0625,35.0,1,1.0,0.9214000000001761
439,4,0.5,0.125,-35.0,-1,1.0,0.9356000000002496
440,4,0.5,0.125,-35.0,-1,1.0,0.6116000000001804
441,4,0.5,0.0625,35.0,1,1.0,0.35570000000006985
442,4,0.5,0.25,-35.0,-1,1.0,0.5587010000003829
443,4,0.5,0.0625,-35.0,-1,1.0,0.6167000000004919
444,4,0.5,0.25,-35.0,-1,1.0,0.5420009999998001
445,4,0.5,1.0,-35.0,-1,1.0,1.2871000000004642
446,4,0.5,0.125,35.0,1,1.0,0.9689000000003034
447,4,0.5,0.25,35.0,1,1.0,0.21070099999997183
448,4,0.5,1.0,35.0,1,1.0,0.34240100000033635
449,4,0.5,1.0,-35.0,-1,1.0,0.4338010000005852
450,4,0.5,1.0,-35.0,-1,1.0,0.5659010000003946
451,4,0.5,0.0625,-35.0,-1,1.0,0.9058010000003378
452,4,0.5,0.25,-35.0,-1,1.0,0.5661010000003444
453,4,0.5,0.25,-35.0,-1,1.0,0.5298999999999978
454,4,0.5,0.0625,35.0,1,1.0,0.31970000000001164
455,4,0.5,0.125,-35.0,-1,1.0,0.613901000000169
456,4,0.5,0.0,-35.0,1,0.0,1.0198999999997795
457,4,0.5,0.0625,35.0,1,1.0,2.369000000000142
458,4,0.5,0.0625,-35.0,-1,1.0,0.6434010000002672
459,4,0.5,0.125,-35.0,-1,1.0,0.39600000000018554
460,4,0.5,0.0,35.0,-1,0.0,1.4370010000002367
461,4,0.5,0.125,35.0,1,1.0,1.7312999999999192
462,4,0.5,1.0,35.0,1,1.0,0.7671009999999114
463,4,0.5,1.0,35.0,1,1.0,0.20710100000042075
464,4,0.5,0.25,-35.0,-1,1.0,0.7171010000001843
465,4,0.5,1.0,-35.0,-1,1.0,0.34770000000071377
466,4,0.5,1.0,35.0,1,1.0,0.2810010000002876
467,4,0.5,0.0625,-35.0,-1,1.0,2.385200000000623
468,4,0.5,0.25,-35.0,-1,1.0,0.581101000000217
469,4,0.5,1.0,35.0,1,1.0,0.24410100000022794
470,4,0.5,0.25,35.0,1,1.0,0.27129999999988286
471,4,0.5,0.0625,35.0,1,1.0,2.088600999999926
472,4,0.5,0.125,35.0,1,1.0,0.22830100000010134
473,4,0.5,0.0625,-35.0,-1,1.0,0.5302000000001499
474,4,0.5,0.0625,-35.0,1,0.0,0.2984010000000126
475,4,0.6,0.0625,-35.0,-1,1.0,0.7541010000004462
476,4,0.5,1.0,-35.0,-1,1.0,0.4854000000000269
477,4,0.5,1.0,-35.0,-1,1.0,0.6084010000004128
478,4,0.5,0.25,35.0,1,1.0,0.6255009999999857
479,4,0.5,1.0,35.0,1,1.0,0.344300000000203
480,4,0.5,1.0,35.0,1,1.0,0.2593000000001666
481,4,0.5,0.0625,35.0,-1,0.0,1.398501000000124
482,4,0.5,0.125,35.0,1,1.0,2.2460000000000946
483,4,0.5,1.0,35.0,1,1.0,0.30600100000037855
484,4,0.5,0.0625,-35.0,1,0.0,0.27620000000024447
485,4,0.5,0.0625,35.0,-1,0.0,6.922601000000213
486,4,0.5,0.125,35.0,1,1.0,11.303200000000743
487,4,0.5,0.125,-35.0,-1,1.0,0.5755000000003747
488,4,0.5,0.125,35.0,1,1.0,1.210301000000527
489,4,0.5,0.125,-35.0,-1,1.0,0.4558010000005197
490,4,0.5,1.0,-35.0,-1,1.0,0.3804000000004635
491,4,0.5,0.125,35.0,1,1.0,0.2489000000005035
492,4,0.5,0.0625,-35.0,-1,1.0,0.6307000000001608
493,4,0.5,0.0625,35.0,1,1.0,0.38740099999995437
494,4,0.5,1.0,-35.0,-1,1.0,0.501100000000406
495,4,0.5,1.0,-35.0,-1,1.0,0.3194010000001981
496,4,0.5,1.0,-35.0,-1,1.0,0.43430099999977756
497,4,0.5,0.125,-35.0,-1,1.0,1.0629000000003543
1,5,0.5,1.0,-35.0,1,0.0,0.4131999999999998
2,5,0.5,0.0625,-35.0,-1,1.0,0.30840099999999815
3,5,0.5,0.25,-35.0,-1,1.0,0.09610100000000088
4,5,0.5,0.0625,35.0,1,1.0,0.2106009999999987
5,5,0.5,0.0625,-35.0,1,0.0,0.5221009999999993
6,5,0.8,0.0625,35.0,1,1.0,0.2705999999999982
7,5,0.5,1.0,-35.0,-1,1.0,0.3237009999999998
8,5,0.5,0.125,-35.0,-1,1.0,0.6983010000000043
9,5,0.5,0.0625,-35.0,1,0.0,0.4265000000000043
10,5,0.5,0.25,35.0,1,1.0,0.23740099999999842
11,5,0.5,0.25,35.0,1,1.0,0.24249999999999972
12,5,0.5,0.125,35.0,1,1.0,0.23510099999999312
13,5,0.5,0.0625,-35.0,1,0.0,0.3201999999999998
14,5,0.8,0.0625,35.0,1,1.0,0.2378010000000046
15,5,0.5,1.0,-35.0,-1,1.0,0.32180100000000067
16,5,0.5,0.0625,-35.0,1,0.0,0.2963009999999997
17,5,0.5,0.0,-35.0,-1,1.0,3.6034999999999897
18,5,0.5,0.0,-35.0,-1,1.0,5.107900999999998
19,5,0.5,0.0,-35.0,-1,1.0,3.418199999999999
20,5,0.5,0.125,-35.0,-1,1.0,0.38640100000002064
21,5,0.5,1.0,35.0,1,1.0,0.362000000000009
22,5,0.5,1.0,35.0,1,1.0,0.2857010000000031
23,5,0.5,0.25,-35.0,-1,1.0,0.348101000000014
24,5,0.5,0.25,35.0,1,1.0,0.23800000000001376
25,5,0.5,0.0625,-35.0,-1,1.0,0.36170000000001323
26,5,0.5,0.125,35.0,1,1.0,0.24180099999999527
27,5,0.5,0.125,-35.0,-1,1.0,0.44250000000000966
28,5,0.5,0.0625,-35.0,1,0.0,0.29000100000000373
29,5,0.5,0.0,-35.0,-1,1.0,0.7736010000000135
30,5,0.5,0.0625,35.0,1,1.0,0.26730000000000587
31,5,0.5,0.0,35.0,1,1.0,0.23969999999999914
32,5,0.5,0.0625,-35.0,1,0.0,0.21300000000002228
33,5,0.6,0.0625,35.0,1,1.0,0.22980000000002576
34,5,0.5,1.0,35.0,-1,0.0,0.08440099999998552
35,5,0.6,1.0,35.0,1,1.0,0.2254000000000076
36,5,0.5,1.0,-35.0,1,0.0,0.2758000000000038
37,5,0.5,0.0625,-35.0,1,0.0,0.2695009999999911
38,5,0.5,0.0,-35.0,1,0.0,0.2855000000000132
39,5,0.5,0.0625,-35.0,-1,1.0,1.108600999999993
40,5,0.5,1.0,35.0,1,1.0,0.23090000000001965
41,5,0.5,0.25,-35.0,-1,1.0,0.6277000000000044
42,5,0.5,0.0,35.0,1,1.0,0.29359999999999786
43,5,0.5,0.0,35.0,1,1.0,0.2555009999999811
44,5,0.5,0.0625,35.0,-1,0.0,0.6239999999999668
45,5,0.5,0.125,-35.0,-1,1.0,0.3308009999999797
46,5,0.5,1.0,35.0,1,1.0,0.2098009999999988
47,5,0.5,0.125,-35.0,-1,1.0,0.3607009999999775
48,5,0.5,0.125,35.0,1,1.0,0.295599999999979
49,5,0.5,0.125,35.0,1,1.0,0.3536009999999692
50,5,0.5,0.125,35.0,1,1.0,0.2646999999999764
51,5,0.5,1.0,-35.0,-1,1.0,0.31869999999997844
52,5,0.5,0.125,-35.0,-1,1.0,0.34450099999997974
53,5,0.5,0.25,-35.0,-1,1.0,0.3721999999999639
54,5,0.5,0.25,35.0,1,1.0,0.3458009999999945
55,5,0.5,0.0625,35.0,1,1.0,0.2257009999999866
56,5,0.5,0.25,35.0,1,1.0,0.1895009999999786
57,5,0.5,0.125,-35.0,-1,1.0,0.4249010000000055
58,5,0.5,0.25,-35.0,1,0.0,0.1894010000000037
59,5,0.5,0.125,-35.0,-1,1.0,0.6027009999999677
60,5,0.5,0.0625,35.0,1,1.0,0.2543009999999981
61,5,0.5,0.0625,-35.0,-1,1.0,0.10290000000000532
62,5,0.5,0.25,35.0,1,1.0,0.24590100000000348
63,5,0.5,0.0625,35.0,1,1.0,0.2839999999999918
64,5,0.5,1.0,35.0,1,1.0,0.21869999999998413
65,5,0.5,0.0625,-35.0,1,0.0,0.22799999999998022
66,5,0.5,0.0625,-35.0,1,0.0,0.23859999999999104
67,5,0.5,0.125,35.0,1,1.0,0.2831010000000447
68,5,0.5,0.0,-35.0,1,0.0,0.24010000000004084
69,5,0.5,0.0,35.0,1,1.0,0.28410100000002103
70,5,0.5,1.0,35.0,1,1.0,0.21460000000001855
71,5,0.5,0.25,35.0,1,1.0,0.2531010000000151
72,5,0.5,0.125,35.0,1,1.0,0.26609999999999445
73,5,0.5,1.0,-35.0,-1,1.0,0.3822010000000091
74,5,0.5,0.0,-35.0,1,0.0,0.16620100000005777
75,5,0.5,0.0625,-35.0,-1,1.0,0.3827999999999747
76,5,0.5,0.125,-35.0,-1,1.0,0.6387010000000259
77,5,0.5,0.25,-35.0,-1,1.0,0.3732010000000514
78,5,0.5,1.0,35.0,1,1.0,0.5907000000000266
79,5,0.5,0.125,35.0,1,1.0,0.29230000000001155
80,5,0.5,1.0,-35.0,1,0.0,0.27780100000001084
81,5,0.5,0.125,-35.0,-1,1.0,0.6022010000000364
82,5,0.5,0.25,35.0,1,1.0,0.22090000000002874
83,5,0.5,0.125,-35.0,-1,1.0,0.36230000000000473
84,5,0.5,0.25,35.0,1,1.0,0.4476010000000201
85,5,0.5,0.25,35.0,1,1.0,0.2113010000000486
86,5,0.5,0.125,-35.0,1,0.0,0.40989999999999327
87,5,0.7,0.125,-35.0,-1,1.0,0.2744000000000142
88,5,0.5,1.0,-35.0,-1,1.0,0.39370000000008076
89,5,0.5,0.0625,35.0,1,1.0,0.2313010000000304
90,5,0.5,1.0,-35.0,-1,1.0,0.5124010000000112
91,5,0.5,1.0,-35.0,-1,1.0,0.1886000000000081
92,5,0.5,1.0,-35.0,-1,1.0,0.5174010000000067
93,5,0.5,0.125,35.0,1,1.0,0.6225009999999997
94,5,0.5,0.125,35.0,1,1.0,0.2525009999999952
95,5,0.5,0.0625,35.0,1,1.0,0.23750100000000884
96,5,0.5,1.0,-35.0,1,0.0,0.413599999999974
97,5,0.5,1.0,-35.0,-1,1.0,0.32460100000002967
98,5,0.5,1.0,-35.0,1,0.0,0.7692010000000664
99,5,0.5,0.125,-35.0,-1,1.0,0.5787000000000262
100,5,0.5,0.0625,-35.0,1,0.0,0.22280100000006087
101,5,0.6,0.0625,-35.0,-1,1.0,0.8396999999999935
102,5,0.5,1.0,-35.0,-1,1.0,0.20120100000002594
103,5,0.5,0.125,35.0,1,1.0,0.2787999999999897
104,5,0.5,0.0625,-35.0,1,0.0,0.2241010000000756
105,5,0.6,0.0625,35.0,1,1.0,0.26400000000006685
106,5,0.5,1.0,-35.0,1,0.0,0.4788010000000327
107,5,0.5,0.0625,-35.0,1,0.0,0.6318009999999958
108,5,0.7,0.0625,-35.0,1,0.0,0.22190100000000257
109,5,0.5,1.0,35.0,1,1.0,0.22490099999998847
110,5,0.5,0.0,35.0,1,1.0,0.26979999999997517
111,5,0.5,0.125,35.0,1,1.0,0.3019010000000435
112,5,0.5,0.25,35.0,1,1.0,0.1955000000000382
113,5,0.5,0.125,35.0,1,1.0,0.16890000000000782
114,5,0.5,0.125,35.0,1,1.0,0.2498000000000502
115,5,0.5,0.0625,-35.0,1,0.0,0.36890100000005077
116,5,1.0,0.0625,-35.0,1,0.0,0.20060000000000855
117,5,0.5,1.0,-35.0,-1,1.0,0.49700000000007094
118,5,0.5,0.125,35.0,1,1.0,0.2340000000000373
119,5,0.5,0.0625,-35.0,1,0.0,0.5682009999999877
120,5,0.5,0.125,-35.0,-1,1.0,0.3186009999999442
121,5,0.5,0.125,-35.0,-1,1.0,0.2711010000000442
122,5,0.5,1.0,35.0,1,1.0,0.17430000000001655
123,5,0.5,0.125,35.0,1,1.0,0.8412010000000123
124,5,0.5,0.125,-35.0,1,0.0,0.2255010000000084
125,5,0.5,0.0625,-35.0,1,0.0,0.22610099999997146
126,5,0.5,0.25,35.0,1,1.0,0.22120100000000775
127,5,0.5,0.0625,-35.0,1,0.0,1.7632000000000403
128,5,0.5,0.0625,-35.0,1,0.0,0.24850100000003295
129,5,0.5,0.25,-35.0,-1,1.0,0.3193000000000552
130,5,0.5,0.25,-35.0,-1,1.0,0.31620100000003504
131,5,0.5,0.25,-35.0,-1,1.0,0.8443010000000299
132,5,0.5,1.0,35.0,1,1.0,0.23660100000006423
133,5,0.5,0.25,-35.0,-1,1.0,0.2594009999999116
134,5,0.5,0.25,35.0,1,1.0,0.2636009999999942
135,5,0.5,1.0,35.0,1,1.0,0.21539999999993142
136,5,0.5,0.25,35.0,1,1.0,0.20400100000006205
137,5,0.5,0.25,35.0,1,1.0,0.17449999999985266
138,5,0.5,0.0625,-35.0,1,0.0,0.24839999999994689
139,5,0.5,0.125,-35.0,-1,1.0,0.3104009999999562
140,5,0.5,0.25,35.0,1,1.0,0.2907999999999902
141,5,0.5,0.0,-35.0,-1,1.0,0.6635009999999966
142,5,0.5,1.0,35.0,1,1.0,0.155399999999986
143,5,0.5,1.0,-35.0,-1,1.0,0.34920099999999366
144,5,0.5,1.0,35.0,1,1.0,0.23599999999999
145,5,0.5,0.0625,-35.0,-1,1.0,0.7023009999999204
146,5,0.5,0.25,-35.0,-1,1.0,0.6363000000000056
147,5,0.5,0.25,-35.0,-1,1.0,0.3745999999999867
148,5,0.5,1.0,-35.0,-1,1.0,0.2969999999999118
149,5,0.5,0.125,-35.0,-1,1.0,0.2819999999999254
150,5,0.5,0.0625,35.0,1,1.0,0.21100000000001273
151,5,0.5,1.0,-35.0,-1,1.0,0.5547009999999091
152,5,0.5,0.125,35.0,1,1.0,0.23200099999996837
153,5,0.5,0.0625,35.0,1,1.0,0.35579999999993106
154,5,0.5,0.0625,-35.0,-1,1.0,1.2931999999999562
155,5,0.5,0.125,-35.0,-1,1.0,0.28430100000002767
156,5,0.5,0.0625,35.0,1,1.0,0.21060099999999693
157,5,0.5,0.0625,-35.0,-1,1.0,0.5817999999999302
158,5,0.5,0.0,35.0,1,1.0,0.23840099999995346
159,5,0.5,0.0,-35.0,-1,1.0,0.495900000000006
160,5,0.5,1.0,-35.0,-1,1.0,0.15180099999997765
161,5,0.5,0.0,35.0,1,1.0,0.16180099999985487
162,5,0.5,1.0,-35.0,-1,1.0,0.35019999999985885
163,5,0.5,1.0,35.0,1,1.0,0.20079999999995835
164,5,0.5,0.25,35.0,1,1.0,0.2135009999999511
165,5,0.5,0.25,-35.0,-1,1.0,0.2969999999999118
166,5,0.5,1.0,35.0,1,1.0,0.20850099999984195
167,5,0.5,0.0,-35.0,-1,1.0,0.30600000000004
168,5,0.5,0.0625,-35.0,1,0.0,0.48470000000008895
169,5,0.5,0.125,-35.0,-1,1.0,0.22299999999995634
170,5,0.5,0.0625,-35.0,-1,1.0,0.4090009999998756
171,5,0.5,0.0625,-35.0,1,0.0,0.18600000000003547
172,5,0.5,0.125,-35.0,-1,1.0,0.26359999999988304
173,5,0.5,0.25,-35.0,-1,1.0,0.25339999999994234
174,5,0.5,0.0,-35.0,1,0.0,0.20889999999985776
175,5,0.5,0.125,35.0,1,1.0,0.23720099999991362
176,5,0.5,1.0,-35.0,-1,1.0,0.34019999999998163
177,5,0.5,0.125,35.0,1,1.0,0.3423000000000229
178,5,0.5,1.0,35.0,1,1.0,0.21420100000000275
179,5,0.5,0.25,-35.0,-1,1.0,0.3242009999999027
180,5,0.5,0.25,-35.0,-1,1.0,0.3932009999998627
181,5,0.5,0.0625,35.0,-1,0.0,0.6651010000000497
182,5,0.5,0.0625,35.0,1,1.0,0.25040099999989707
183,5,0.5,0.125,-35.0,-1,1.0,0.3613000000000284
184,5,0.5,0.25,35.0,-1,0.0,0.12220099999990452
185,5,0.5,0.25,35.0,1,1.0,0.22180100000002767
186,5,0.5,0.0,35.0,1,1.0,0.1773999999999205
187,5,0.5,0.0625,-35.0,1,0.0,0.25739999999996144
188,5,0.5,0.0625,-35.0,-1,1.0,0.4105009999999538
189,5,0.5,0.25,35.0,1,1.0,0.23250000000007276
190,5,0.5,0.0625,35.0,1,1.0,0.2177000000000362
191,5,0.5,1.0,-35.0,-1,1.0,0.27049999999997
192,5,0.5,0.125,35.0,1,1.0,0.2355009999999993
193,5,0.5,0.0625,35.0,1,1.0,0.26620100000002367
194,5,0.5,1.0,-35.0,-1,1.0,0.522000999999932
195,5,0.5,0.25,-35.0,1,0.0,0.4756000000000995
196,5,0.7,0.25,35.0,1,1.0,0.2862999999998692
197,5,0.5,1.0,35.0,1,1.0,0.5514000000000578
198,5,0.5,0.0,35.0,-1,0.0,1.0106999999999289
199,5,0.5,0.125,-35.0,-1,1.0,0.3944009999999025
200,5,0.5,1.0,35.0,1,1.0,0.21170099999994818
201,5,0.5,1.0,35.0,1,1.0,0.11569999999994707
202,5,0.5,1.0,-35.0,-1,1.0,0.4113009999999804
203,5,0.5,0.0625,35.0,1,1.0,0.20350099999996019
204,5,0.5,0.125,35.0,1,1.0,0.2915010000000393
205,5,0.5,0.125,-35.0,-1,1.0,0.35730100000000675
206,5,0.5,0.0625,35.0,1,1.0,0.18010099999992235
207,5,0.5,0.0625,35.0,1,1.0,0.23479999999995016
208,5,0.5,0.25,35.0,1,1.0,0.2218999999998914
209,5,0.5,0.0,35.0,1,1.0,0.2218999999998914
210,5,0.5,0.125,35.0,1,1.0,0.23550000000000182
211,5,0.5,0.125,-35.0,-1,1.0,0.19780099999991307
212,5,0.5,0.0,35.0,1,1.0,0.2659999999999627
213,5,0.5,0.25,-35.0,-1,1.0,0.31690099999991617
214,5,0.5,0.25,-35.0,1,0.0,0.19719999999995252
215,5,0.5,0.0625,35.0,1,1.0,0.23689999999999145
216,5,0.5,0.125,35.0,1,1.0,0.2441000000000031
217,5,0.5,1.0,35.0,1,1.0,0.4476999999999407
218,5,0.5,0.0625,-35.0,1,0.0,0.23329999999998563
219,5,0.8,0.0625,-35.0,-1,1.0,1.3658010000000331
220,5,0.5,1.0,-35.0,1,0.0,0.28110000000003765
221,5,0.7,1.0,35.0,1,1.0,0.22850099999993745
222,5,0.5,1.0,-35.0,-1,1.0,0.6181000000000267
223,5,0.5,1.0,-35.0,-1,1.0,0.30529999999987467
224,5,0.5,0.0,35.0,1,1.0,0.2801010000000588
225,5,0.5,0.125,35.0,1,1.0,0.22020099999997456
226,5,0.5,0.0625,35.0,1,1.0,0.23779999999987922
227,5,0.5,0.25,35.0,1,1.0,0.21390000000008058
228,5,0.5,0.0625,35.0,1,1.0,0.22910099999990052
229,5,0.5,0.25,35.0,1,1.0,0.18830099999991035
230,5,0.5,0.0625,-35.0,1,0.0,0.15580099999999675
231,5,0.5,0.25,-35.0,-1,1.0,0.38730099999997947
232,5,0.5,0.125,-35.0,-1,1.0,0.6639999999998736
233,5,0.5,0.25,35.0,1,1.0,0.20639999999991687
234,5,0.5,0.25,-35.0,1,0.0,0.2559999999999718
235,5,0.5,0.25,-35.0,-1,1.0,0.4314009999999371
236,5,0.5,0.0625,35.0,1,1.0,0.23880099999996673
237,5,0.5,0.0625,35.0,1,1.0,0.12229999999988195
238,5,0.5,0.25,35.0,1,1.0,0.21150099999999838
239,5,0.5,0.0625,-35.0,1,0.0,0.21650099999999384
240,5,0.5,0.0625,-35.0,-1,1.0,0.3804010000000062
241,5,0.5,0.125,-35.0,-1,1.0,0.6074009999999817
242,5,0.5,0.25,-35.0,-1,1.0,0.525400999999988
243,5,0.5,1.0,-35.0,-1,1.0,0.24460099999998874
244,5,0.5,0.0,35.0,-1,0.0,1.1698000000000093
245,5,0.5,0.125,35.0,1,1.0,0.2580010000000357
246,5,0.5,0.25,-35.0,-1,1.0,0.3169999999998936
247,5,0.5,0.125,35.0,1,1.0,0.21640000000002146
248,5,0.5,0.125,-35.0,1,0.0,0.15489999999999782
249,5,0.4,0.125,-35.0,-1,1.0,0.493300999999974
250,5,0.5,1.0,-35.0,-1,1.0,0.39170099999989816
251,5,0.5,1.0,-35.0,-1,1.0,0.2803000000000111
252,5,0.5,1.0,-35.0,-1,1.0,0.34780099999989034
253,5,0.5,1.0,35.0,1,1.0,0.3550999999998794
254,5,0.5,0.25,35.0,1,1.0,0.21480099999996582
255,5,0.5,0.0625,35.0,1,1.0,0.17980100000011134
256,5,0.5,0.25,-35.0,1,0.0,0.23490100000003622
257,5,0.5,0.0625,-35.0,-1,1.0,0.4189000000001215
258,5,0.5,0.125,35.0,1,1.0,0.20820000000003347
259,5,0.5,0.25,35.0,1,1.0,0.20570000000020627
260,5,0.5,0.125,-35.0,-1,1.0,0.8186000000000604
261,5,0.5,0.0625,35.0,1,1.0,0.22240000000010696
262,5,0.5,0.125,35.0,1,1.0,0.27549999999996544
263,5,0.5,0.25,35.0,1,1.0,0.1870000000001255
264,5,0.5,0.0625,35.0,1,1.0,0.2690010000001166
265,5,0.5,0.25,-35.0,1,0.0,0.16640099999995073
266,5,0.5,0.25,-35.0,-1,1.0,0.3323010000001432
267,5,0.5,0.0625,-35.0,-1,1.0,0.3631009999999151
268,5,0.5,0.25,-35.0,-1,1.0,0.18610000000035143
269,5,0.5,0.0625,35.0,1,1.0,0.16679999999996653
270,5,0.5,0.0,35.0,-1,0.0,0.38950099999988197
271,5,0.6,0.0,-35.0,-1,1.0,0.35410000000001673
272,5,0.5,1.0,-35.0,-1,1.0,0.32310100000017883
273,5,0.5,0.125,35.0,1,1.0,0.21120100000030106
274,5,0.5,1.0,-35.0,-1,1.0,0.21020000000021355
275,5,0.5,0.25,35.0,1,1.0,0.21720000000004802
276,5,0.5,1.0,-35.0,-1,1.0,0.3000999999999294
277,5,0.5,1.0,-35.0,-1,1.0,0.2540010000000166
278,5,0.5,0.0625,-35.0,1,0.0,0.23730000000000473
279,5,0.5,0.25,35.0,1,1.0,0.20539999999982683
280,5,0.5,0.125,35.0,1,1.0,1.0037999999999556
281,5,0.5,0.125,-35.0,-1,1.0,0.201200000000199
282,5,0.5,0.125,35.0,1,1.0,0.2839010000000144
283,5,0.5,0.25,-35.0,-1,1.0,0.2795000000000982
284,5,0.5,0.125,35.0,1,1.0,0.47440000000028704
285,5,0.5,1.0,35.0,1,1.0,0.22180099999991398
286,5,0.5,1.0,35.0,1,1.0,0.20460000000002765
287,5,0.5,0.25,-35.0,-1,1.0,0.3386000000000422
288,5,0.5,1.0,35.0,1,1.0,0.3080009999998765
289,5,0.5,1.0,35.0,1,1.0,0.18260000000009313
290,5,0.5,0.0625,35.0,1,1.0,0.17489999999997963
291,5,0.5,0.0,35.0,1,1.0,0.28290000000015425
292,5,0.5,0.25,35.0,1,1.0,0.22500000000013642
293,5,0.5,0.0625,-35.0,-1,1.0,0.3547000000000935
294,5,0.5,0.0625,-35.0,1,0.0,0.3487000000002354
295,5,0.5,0.125,35.0,1,1.0,0.21770000000014988
296,5,0.5,1.0,-35.0,-1,1.0,0.26539999999999964
297,5,0.5,1.0,-35.0,-1,1.0,0.28280000000017935
298,5,0.5,1.0,-35.0,-1,1.0,0.19280000000003383
299,5,0.5,0.125,35.0,1,1.0,0.24330000000009022
300,5,0.5,0.0,35.0,-1,0.0,0.7595010000000002
301,5,0.5,0.125,-35.0,-1,1.0,0.1909009999999398
302,5,0.5,0.125,35.0,1,1.0,0.25640000000021246
303,5,0.5,1.0,35.0,1,1.0,0.22380100000009406
304,5,0.5,0.0,35.0,1,1.0,0.25320000000010623
305,5,0.5,0.25,-35.0,-1,1.0,0.37110100000018065
306,5,0.5,0.125,-35.0,1,0.0,0.24320100000022649
307,5,0.5,0.25,-35.0,-1,1.0,0.3275010000002112
308,5,0.5,0.0,35.0,1,1.0,0.2770010000001548
309,5,0.5,0.125,35.0,1,1.0,0.26420100000018465
310,5,0.5,1.0,-35.0,-1,1.0,0.4236000000000786
311,5,0.5,1.0,35.0,1,1.0,0.17210000000022774
312,5,0.5,0.125,-35.0,1,0.0,0.14730099999997037
313,5,0.5,0.125,35.0,1,1.0,0.2152009999999791
314,5,0.5,0.25,-35.0,-1,1.0,0.247300000000223
315,5,0.5,1.0,-35.0,-1,1.0,0.10510000000022046
316,5,0.5,1.0,35.0,1,1.0,0.22450000000026193
317,5,0.5,0.25,35.0,1,1.0,0.20450099999993654
318,5,0.5,0.125,35.0,1,1.0,0.19129999999995562
319,5,0.5,0.25,35.0,1,1.0,0.10270000000036816
320,5,0.5,0.0625,35.0,1,1.0,0.24130000000013752
321,5,0.5,0.0625,35.0,1,1.0,0.2515010000001894
322,5,0.5,0.125,35.0,1,1.0,0.18820099999993545
323,5,0.5,0.125,-35.0,-1,1.0,0.8734000000001743
324,5,0.5,0.0625,35.0,-1,0.0,0.3687000000002172
325,5,0.5,0.0625,35.0,1,1.0,0.22510000000011132
326,5,0.5,0.125,-35.0,-1,1.0,0.666300000000092
327,5,0.5,0.0,35.0,-1,0.0,1.0519010000000435
328,5,0.6,0.0,35.0,-1,0.0,0.3166000000001077
329,5,0.5,1.0,35.0,1,1.0,0.20880000000011023
330,5,0.5,1.0,-35.0,-1,1.0,0.30050100000016755
331,5,0.5,0.25,35.0,1,1.0,0.2555009999998674
332,5,0.5,1.0,-35.0,-1,1.0,0.2131019999999353
333,5,0.5,0.0,35.0,-1,0.0,0.44250099999999293
334,5,0.5,0.25,-35.0,-1,1.0,0.2203020000001743
335,5,0.5,0.0,35.0,1,1.0,0.2329010000000835
336,5,0.5,0.125,-35.0,1,0.0,0.2368020000001252
337,5,0.5,0.25,-35.0,-1,1.0,0.45970200000010664
338,5,0.5,0.25,35.0,-1,0.0,0.6503020000000106
339,5,0.5,0.125,35.0,-1,0.0,0.4802020000001903
340,5,0.5,0.125,-35.0,-1,1.0,0.333800999999994
341,5,0.5,0.125,-35.0,-1,1.0,0.3199010000000726
342,5,0.5,0.25,35.0,1,1.0,0.2558010000000195
343,5,0.5,0.25,35.0,1,1.0,0.40350100000023303
344,5,0.5,0.125,35.0,1,1.0,0.1398010000002614
345,5,0.5,0.0625,-35.0,-1,1.0,0.9839019999999437
346,5,0.5,0.0625,35.0,-1,0.0,0.574301000000105
347,5,0.5,0.25,-35.0,-1,1.0,0.3141009999999369
348,5,0.5,0.0,-35.0,-1,1.0,0.5179020000002765
349,5,0.5,0.125,-35.0,-1,1.0,0.4074009999999362
350,5,0.5,0.0625,35.0,1,1.0,0.24290200000018558
351,5,0.5,0.0625,35.0,1,1.0,0.24420099999997547
352,5,0.5,1.0,35.0,1,1.0,0.21850100000006023
353,5,0.5,1.0,-35.0,-1,1.0,0.25800200000003315
354,5,0.5,0.0,-35.0,-1,1.0,0.6550019999999677
355,5,0.5,0.125,35.0,1,1.0,0.18800200000009681
356,5,0.5,0.125,35.0,1,1.0,0.23310200000014447
357,5,0.5,1.0,35.0,1,1.0,0.19160099999999147
358,5,0.5,0.125,-35.0,-1,1.0,0.3581010000000333
359,5,0.5,0.125,35.0,1,1.0,0.33830200000011246
360,5,0.5,0.25,-35.0,-1,1.0,0.36960100000010243
361,5,0.5,0.0,-35.0,-1,1.0,2.721802000000025
362,5,0.5,0.125,-35.0,-1,1.0,0.48720100000036837
363,5,0.5,1.0,35.0,1,1.0,0.19560100000012426
364,5,0.5,0.25,-35.0,-1,1.0,0.5237010000000737
365,5,0.5,0.125,35.0,1,1.0,0.18240100000002712
366,5,0.5,0.125,-35.0,1,0.0,0.11730100000022503
367,5,0.5,0.25,-35.0,-1,1.0,0.29930100000001403
368,5,0.5,0.0625,35.0,1,1.0,0.7214020000001256
369,5,0.5,0.25,-35.0,-1,1.0,0.40940200000000004
370,5,0.5,1.0,35.0,1,1.0,0.2474010000000817
371,5,0.5,0.0,-35.0,1,0.0,0.2829010000002654
372,5,0.5,0.0625,35.0,-1,0.0,2.4338020000000142
373,5,0.5,0.0,-35.0,-1,1.0,1.1466009999999187
374,5,0.5,0.125,35.0,1,1.0,0.15450200000009318
375,5,0.5,1.0,35.0,1,1.0,0.17000199999984034
376,5,0.5,0.0,35.0,-1,0.0,0.3514020000002347
377,5,0.5,0.125,-35.0,-1,1.0,0.47060099999998783
378,5,0.5,0.125,-35.0,-1,1.0,0.24450100000012753
379,5,0.5,1.0,35.0,1,1.0,0.19720200000006116
380,5,0.5,1.0,35.0,1,1.0,0.19140100000004168
381,5,0.5,0.0625,-35.0,-1,1.0,0.3375020000000859
382,5,0.5,0.0625,35.0,1,1.0,0.23770200000035402
383,5,0.5,0.125,35.0,1,1.0,0.21760100000005878
384,5,0.5,0.0625,35.0,1,1.0,0.24480199999993602
385,5,0.5,0.25,35.0,1,1.0,0.23460199999999531
386,5,0.5,0.0625,35.0,1,1.0,0.28280199999994693
387,5,0.5,0.0,-35.0,1,0.0,0.23800100000016755
388,5,0.5,0.25,35.0,1,1.0,0.21490200000016557
389,5,0.5,0.125,-35.0,-1,1.0,0.35820200000034674
390,5,0.5,0.0625,35.0,1,1.0,0.21320199999991019
391,5,0.5,0.25,-35.0,-1,1.0,0.3383010000000013
392,5,0.5,0.125,-35.0,-1,1.0,0.24290100000007442
393,5,0.5,0.0625,-35.0,-1,1.0,0.4386010000000624
394,5,0.5,0.0625,-35.0,-1,1.0,0.6999010000001817
395,5,0.5,0.0625,-35.0,-1,1.0,0.7287010000002283
396,5,0.5,1.0,35.0,1,1.0,0.16300200000000586
397,5,0.5,0.25,35.0,1,1.0,0.1922010000002956
398,5,0.5,0.25,35.0,1,1.0,0.23800200000005134
399,5,0.5,1.0,35.0,1,1.0,0.20940100000007078
400,5,0.5,1.0,-35.0,1,0.0,0.1464019999998527
401,5,0.5,0.25,35.0,1,1.0,0.1660020000001623
402,5,0.5,0.0,-35.0,-1,1.0,0.9934010000001763
403,5,0.5,0.0625,35.0,-1,0.0,1.0729020000001128
404,5,0.6,0.0625,-35.0,-1,1.0,0.38720100000000457
405,5,0.5,1.0,-35.0,-1,1.0,0.31640200000015284
406,5,0.5,0.125,35.0,1,1.0,0.8082019999999375
407,5,0.5,0.125,35.0,1,1.0,0.22660199999995712
408,5,0.5,0.25,-35.0,-1,1.0,0.24820100000010825
409,5,0.5,0.0625,-35.0,-1,1.0,1.9368010000000595
410,5,0.5,0.125,35.0,1,1.0,0.29840200000012373
411,5,0.5,0.0625,35.0,1,1.0,0.28050100000018574
412,5,0.5,0.0,35.0,-1,0.0,5.191000999999915
413,5,0.5,0.0625,35.0,1,1.0,0.2909020000001874
414,5,0.5,1.0,35.0,1,1.0,0.18450099999995473
415,5,0.5,0.0,35.0,1,1.0,0.23780200000010154
416,5,0.5,1.0,35.0,1,1.0,0.20650200000022778
417,5,0.5,0.25,35.0,1,1.0,0.201001000000133
418,5,0.5,0.125,35.0,1,1.0,0.2385020000001532
419,5,0.5,0.125,35.0,1,1.0,0.23460099999988415
420,5,0.5,0.0,-35.0,1,0.0,0.3075020000001132
421,5,0.9,0.0,-35.0,1,0.0,0.20830099999989216
422,5,0.5,1.0,-35.0,-1,1.0,0.3906010000000606
423,5,0.5,1.0,35.0,1,1.0,0.15820099999996273
424,5,0.5,0.0,-35.0,1,0.0,0.24910099999988233
425,5,0.5,0.0625,-35.0,-1,1.0,0.5717020000001867
426,5,0.5,1.0,35.0,1,1.0,0.21660100000008242
427,5,0.5,0.25,-35.0,-1,1.0,0.4057020000002467
428,5,0.5,0.0625,-35.0,-1,1.0,0.3270010000003367
429,5,0.5,1.0,-35.0,-1,1.0,0.2157009999998536
430,5,0.5,0.125,35.0,1,1.0,0.22780099999999948
431,5,0.5,0.25,35.0,1,1.0,0.22920199999998658
432,5,0.5,0.125,-35.0,-1,1.0,0.5968020000000251
433,5,0.5,0.0625,-35.0,-1,1.0,1.0028020000002016
434,5,0.5,0.0625,35.0,1,1.0,0.21950100000003658
435,5,0.5,0.0,-35.0,-1,1.0,4.24630100000013
436,5,0.5,0.125,-35.0,-1,1.0,0.12900100000001657
437,5,0.5,0.0625,-35.0,-1,1.0,0.7399020000000291
438,5,0.5,0.25,35.0,1,1.0,0.2677009999999882
439,5,0.5,0.0625,35.0,-1,0.0,2.1500009999999747
440,5,0.5,0.125,-35.0,-1,1.0,0.33110099999998965
441,5,0.5,1.0,35.0,1,1.0,0.24360200000000987
442,5,0.5,0.25,-35.0,1,0.0,0.14910099999997328
443,5,0.5,0.0,35.0,-1,0.0,0.5572019999999611
444,5,0.5,0.0625,35.0,-1,0.0,6.468001000000186
445,5,0.5,0.25,35.0,1,1.0,0.2611010000000533
446,5,0.5,0.0625,35.0,1,1.0,0.33500200000003133
447,5,0.5,0.0625,-35.0,1,0.0,2.7612020000001394
448,5,0.5,0.25,35.0,1,1.0,0.23030100000005405
449,5,0.5,0.0625,35.0,1,1.0,0.31120099999998274
450,5,0.5,0.125,-35.0,-1,1.0,0.2653009999999085
451,5,0.5,0.0625,35.0,1,1.0,1.9015019999999367
452,5,0.5,0.0625,-35.0,-1,1.0,0.8833019999999578
453,5,0.5,0.25,-35.0,-1,1.0,0.5051010000001952
454,5,0.5,0.0,35.0,1,1.0,0.25590100000022176
455,5,0.5,0.125,-35.0,-1,1.0,0.6122020000000248
456,5,0.5,0.0,-35.0,1,0.0,0.5030010000000402
457,5,0.5,0.125,35.0,1,1.0,0.31880100000012135
458,5,0.5,0.0625,35.0,1,1.0,0.4244009999999889
459,5,0.5,1.0,-35.0,-1,1.0,0.5489020000002256
460,5,0.5,0.125,35.0,1,1.0,0.19750200000021323
461,5,0.5,1.0,35.0,1,1.0,0.20580199999994875
462,5,0.5,0.125,-35.0,-1,1.0,0.42750200000000405
463,5,0.5,1.0,35.0,1,1.0,0.2625020000000404
464,5,0.5,0.0625,-35.0,1,0.0,0.24360200000000987
465,5,0.5,0.125,-35.0,-1,1.0,0.432901000000129
466,5,0.5,0.25,-35.0,-1,1.0,0.34460200000012264
467,5,0.5,1.0,-35.0,-1,1.0,0.2764020000001892
468,5,0.5,0.25,35.0,1,1.0,0.29030100000022685
469,5,0.5,1.0,35.0,1,1.0,0.20330200000012155
470,5,0.5,0.0625,-35.0,-1,1.0,1.4535010000001876
471,5,0.5,0.125,35.0,1,1.0,0.16340200000013283
472,5,0.5,1.0,35.0,1,1.0,0.16180099999996855
473,5,0.5,0.0,-35.0,1,0.0,0.19710100000020248
474,5,0.5,0.125,35.0,1,1.0,0.2250010000000202
475,5,0.5,0.0625,35.0,-1,0.0,1.0371020000000044
476,5,0.5,0.125,-35.0,-1,1.0,0.36890199999993456
477,5,0.5,0.125,35.0,1,1.0,0.19400199999995493
478,5,0.5,0.25,-35.0,-1,1.0,0.34890199999995275
479,5,0.5,0.25,-35.0,1,0.0,0.2142020000001139
480,5,0.5,0.0,35.0,1,1.0,9.588001000000077
481,5,0.5,0.25,35.0,1,1.0,0.22450100000014572
482,5,0.5,0.125,35.0,1,1.0,0.5929020000000946
483,5,0.5,0.125,-35.0,-1,1.0,0.835102000000461
484,5,0.5,0.0625,35.0,1,1.0,0.22610100000019884
485,5,0.5,0.0,35.0,-1,0.0,0.18180200000051627
486,5,0.5,0.25,-35.0,-1,1.0,0.31250100000033854
487,5,0.5,0.125,-35.0,-1,1.0,0.4921009999998205
488,5,0.5,0.0625,-35.0,-1,1.0,0.46310200000016266
489,5,0.5,1.0,35.0,1,1.0,0.21870099999978265
490,5,0.5,0.0625,-35.0,1,0.0,0.2732019999998556
491,5,0.5,0.25,-35.0,-1,1.0,0.3856010000004062
492,5,0.5,0.25,-35.0,-1,1.0,0.3699010000000271
493,5,0.5,0.25,-35.0,-1,1.0,0.4923020000001088
494,5,0.5,1.0,-35.0,-1,1.0,0.31280199999991964
495,5,0.5,0.125,35.0,1,1.0,0.21930199999997058
496,5,0.5,0.25,35.0,1,1.0,0.22430100000019593
497,5,0.5,0.0625,35.0,1,1.0,0.2193010000000868
498,5,0.5,1.0,35.0,1,1.0,0.23430199999984325
499,5,0.5,0.25,35.0,1,1.0,0.20280199999979232
500,5,0.5,0.0625,35.0,1,1.0,0.25810100000035163
501,5,0.5,1.0,-35.0,-1,1.0,0.39320100000031744
502,5,0.5,1.0,35.0,1,1.0,0.22720099999969534
503,5,0.5,0.0,35.0,1,1.0,1.4901010000003225
504,5,0.5,1.0,35.0,1,1.0,0.233201999999892
505,5,0.5,0.125,-35.0,1,0.0,0.23350100000016027
506,5,0.5,0.0625,-35.0,-1,1.0,0.32470199999988836
507,5,0.5,0.0625,-35.0,-1,1.0,1.444101000000046
508,5,0.5,0.125,35.0,1,1.0,0.27160100000037346
509,5,0.5,0.125,-35.0,-1,1.0,0.6271020000003773
510,5,0.5,0.0,-35.0,-1,1.0,1.3286020000000462
511,5,0.5,1.0,-35.0,-1,1.0,0.5876020000000608
512,5,0.5,0.25,-35.0,-1,1.0,0.7920020000001387
513,5,0.5,0.0,35.0,1,1.0,0.244202000000314
514,5,0.5,0.0625,-35.0,1,0.0,0.24170199999980468
515,5,0.4,0.0625,35.0,1,1.0,0.29450100000030943
516,5,0.5,1.0,35.0,1,1.0,0.24790200000006735
517,5,0.5,0.125,35.0,1,1.0,0.22790100000020175
518,5,0.5,1.0,35.0,1,1.0,0.19880100000000311
519,5,0.5,0.125,35.0,1,1.0,0.08470100000022285
520,5,0.5,0.0,35.0,1,1.0,0.20980100000042512
521,5,0.5,0.125,-35.0,-1,1.0,0.4219020000000455
522,5,0.5,0.0625,35.0,1,1.0,0.590802000000167
523,5,0.5,1.0,-35.0,-1,1.0,0.5952009999996335
524,5,0.5,0.25,-35.0,1,0.0,0.15950100000009115
525,5,0.5,0.0625,35.0,1,1.0,0.2789010000001326
526,5,0.5,0.0625,35.0,1,1.0,0.17080200000009427
527,5,0.5,0.0,35.0,1,1.0,0.1490010000006805
528,5,0.5,0.0,35.0,1,1.0,0.2710010000000693
529,5,0.5,0.125,-35.0,1,0.0,0.29580099999975573
530,5,0.5,0.0,-35.0,1,0.0,0.1826019999998607
531,5,0.5,0.25,35.0,1,1.0,0.28270100000008824
532,5,0.5,0.25,-35.0,-1,1.0,0.429602000000159
533,5,0.5,1.0,-35.0,-1,1.0,0.3863010000000031
534,5,0.5,1.0,35.0,1,1.0,0.15410200000042096
535,5,0.5,0.0625,35.0,1,1.0,0.2932019999998374
536,5,0.5,0.25,-35.0,1,0.0,0.15120200000001205
537,5,0.5,0.25,-35.0,-1,1.0,0.390201000000161
538,5,0.5,0.125,-35.0,-1,1.0,0.5210010000000693
539,5,0.5,0.25,35.0,1,1.0,0.2467009999995753
540,5,0.5,0.25,-35.0,-1,1.0,0.4292019999998047
541,5,0.5,0.0625,-35.0,1,0.0,0.22700200000053883
542,5,0.5,0.25,-35.0,-1,1.0,0.4582020000002558
543,5,0.5,1.0,35.0,1,1.0,0.24050100000022212
544,5,0.5,0.0625,-35.0,1,0.0,0.21530200000006516
545,5,0.5,0.0625,-35.0,-1,1.0,1.4874019999997472
546,5,0.5,1.0,-35.0,-1,1.0,0.4328019999998105
547,5,0.5,1.0,35.0,1,1.0,0.22440099999994345
548,5,0.5,0.0,-35.0,-1,1.0,7.2288009999997485
549,5,0.5,0.25,35.0,1,1.0,0.7077019999996992
550,5,0.5,0.0625,35.0,1,1.0,0.3195019999998294
551,5,0.5,0.125,-35.0,-1,1.0,0.6414009999998598
552,5,0.5,0.0625,-35.0,-1,1.0,0.4035020000001168
553,5,0.5,0.0625,-35.0,-1,1.0,0.63470099999995
554,5,0.5,0.125,35.0,1,1.0,0.2555020000004333
555,5,0.5,0.25,35.0,1,1.0,0.21220200000061595
556,5,0.5,0.25,-35.0,-1,1.0,0.2763020000002143
557,5,0.5,0.0625,-35.0,-1,1.0,0.8387010000001283
558,5,0.5,1.0,-35.0,-1,1.0,0.4936010000001261
559,5,0.5,0.0625,35.0,1,1.0,0.18580100000008315
560,5,0.5,0.25,35.0,1,1.0,1.1391010000002098
561,5,0.5,0.125,-35.0,-1,1.0,0.372501999999713
562,5,0.5,1.0,35.0,1,1.0,0.3162010000000919
563,5,0.5,0.0625,35.0,1,1.0,0.25250099999993836
564,5,0.5,0.125,-35.0,-1,1.0,0.5571020000002136
565,5,0.5,0.0625,35.0,1,1.0,0.2528019999999742
566,5,0.5,0.0,-35.0,1,0.0,0.2708020000000033
567,5,0.5,0.125,35.0,1,1.0,0.2766020000003664
568,5,0.5,0.25,35.0,1,1.0,0.21180200000026161
569,5,0.5,0.125,35.0,1,1.0,0.2733010000001741
570,5,0.5,0.25,35.0,1,1.0,0.17060200000014447
571,5,0.5,0.25,35.0,1,1.0,0.6133019999997487
572,5,0.5,0.125,35.0,1,1.0,0.3510020000003351
573,5,0.5,0.125,-35.0,1,0.0,0.25340100000039456
574,5,0.5,0.0625,-35.0,-1,1.0,0.30420100000037564
575,5,0.5,1.0,35.0,1,1.0,0.18360100000018065
576,5,0.5,0.0,-35.0,1,0.0,0.16110100000014427
577,5,0.9,0.0,-35.0,-1,1.0,3.2471019999998134
1,6,0.5,0.25,35.0,1,1.0,0.5131999999999999
2,6,0.5,0.0,-35.0,-1,1.0,0.3716999999999988
3,6,0.5,0.125,-35.0,-1,1.0,0.4230009999999993
4,6,0.5,0.25,-35.0,-1,1.0,0.726500999999999
5,6,0.5,1.0,35.0,1,1.0,0.33810000000000073
6,6,0.5,1.0,35.0,1,1.0,0.18100000000000094
7,6,0.5,0.0625,-35.0,1,0.0,0.23290000000000077
8,6,0.5,0.0625,-35.0,-1,1.0,0.19319999999999737
9,6,0.5,1.0,-35.0,-1,1.0,0.3611000000000004
10,6,0.5,0.0625,35.0,1,1.0,0.21000099999999833
11,6,0.5,0.25,-35.0,-1,1.0,0.14000099999999804
12,6,0.5,0.125,-35.0,-1,1.0,0.6632999999999996
13,6,0.5,0.125,35.0,1,1.0,1.3836000000000013
14,6,0.5,0.125,-35.0,-1,1.0,0.34249999999999403
15,6,0.5,0.25,-35.0,-1,1.0,0.3928009999999986
16,6,0.5,1.0,-35.0,-1,1.0,0.1887000000000043
17,6,0.5,0.25,35.0,1,1.0,0.3805010000000095
18,6,0.5,0.0,-35.0,-1,1.0,1.1631010000000117
19,6,0.5,0.125,35.0,1,1.0,0.2750000000000057
20,6,0.5,0.0625,-35.0,-1,1.0,0.6140000000000043
21,6,0.5,0.25,35.0,1,1.0,0.2500010000000117
22,6,0.5,1.0,-35.0,-1,1.0,0.3824000000000183
23,6,0.5,0.25,-35.0,-1,1.0,0.28260099999999966
24,6,0.5,0.125,-35.0,-1,1.0,0.3622000000000014
25,6,0.5,0.0625,-35.0,-1,1.0,0.5832010000000025
26,6,0.5,0.0625,-35.0,-1,1.0,2.1984010000000183
27,6,0.5,0.0625,-35.0,-1,1.0,0.40630000000000166
28,6,0.5,1.0,-35.0,-1,1.0,0.3816010000000034
29,6,0.5,1.0,35.0,1,1.0,0.5551000000000101
30,6,0.5,0.25,-35.0,-1,1.0,0.2938000000000045
31,6,0.5,0.0625,35.0,-1,0.0,0.7854000000000099
32,6,0.5,0.25,-35.0,-1,1.0,0.3436010000000067
33,6,0.5,0.125,-35.0,-1,1.0,0.4021010000000018
34,6,0.5,0.125,35.0,-1,0.0,0.5825999999999851
35,6,0.5,0.125,35.0,-1,0.0,4.214900000000014
36,6,0.5,0.0625,35.0,-1,0.0,2.3573010000000068
37,6,0.5,0.25,-35.0,-1,1.0,0.24390100000002235
38,6,0.5,1.0,-35.0,-1,1.0,0.5364999999999895
39,6,0.5,1.0,35.0,1,1.0,0.1856999999999971
40,6,0.5,0.25,-35.0,-1,1.0,0.3377010000000098
41,6,0.5,0.0625,35.0,-1,0.0,4.991899999999987
42,6,0.1,0.0625,35.0,-1,0.0,4.281700000000001
43,6,0.5,1.0,35.0,1,1.0,0.36090099999998415
44,6,0.5,0.125,-35.0,-1,1.0,0.396601000000004
45,6,0.5,0.125,-35.0,-1,1.0,0.3378010000000131
46,6,0.5,1.0,35.0,1,1.0,0.456200999999993
47,6,0.5,1.0,35.0,1,1.0,0.7461009999999817
48,6,0.5,0.25,35.0,1,1.0,0.25090000000000146
49,6,0.5,0.125,-35.0,-1,1.0,0.46000100000000543
50,6,0.5,0.25,-35.0,-1,1.0,0.26290099999997096
51,6,0.5,0.0,35.0,-1,0.0,0.6646000000000072
52,6,0.5,0.0625,35.0,-1,0.0,0.5420009999999991
53,6,0.5,0.0,35.0,-1,0.0,2.996799999999979
54,6,0.5,0.0625,35.0,1,1.0,0.7221000000000117
55,6,0.5,0.0625,35.0,1,1.0,0.3745000000000118
56,6,0.5,0.25,-35.0,-1,1.0,0.28150100000002
57,6,0.5,0.25,35.0,1,1.0,0.32280100000002676
58,6,0.5,1.0,-35.0,-1,1.0,0.4475010000000168
59,6,0.5,0.0,-35.0,-1,1.0,0.8736000000000388
60,6,0.5,0.125,35.0,1,1.0,0.2741010000000017
61,6,0.5,1.0,-35.0,-1,1.0,0.2757000000000005
62,6,0.5,1.0,35.0,1,1.0,0.3271000000000015
63,6,0.5,0.125,35.0,1,1.0,0.2998010000000022
64,6,0.5,1.0,-35.0,-1,1.0,0.408299999999997
65,6,0.5,0.0625,-35.0,-1,1.0,1.7746009999999899
66,6,0.5,0.0625,35.0,-1,0.0,3.3179999999999836
67,6,0.5,0.0625,35.0,1,1.0,0.31500099999993836
68,6,0.5,0.125,35.0,1,1.0,0.31929999999999836
69,6,0.5,0.0,35.0,-1,0.0,3.8103009999999813
70,6,0.5,0.0625,-35.0,-1,1.0,0.5423999999999296
71,6,0.5,0.25,35.0,1,1.0,0.28000100000002703
72,6,0.5,1.0,35.0,1,1.0,0.3133999999999446
73,6,0.5,0.25,35.0,1,1.0,0.2701999999999316
74,6,0.5,0.0625,35.0,1,1.0,3.2845009999999775
75,6,0.5,1.0,-35.0,-1,1.0,0.40559999999999263
76,6,0.5,0.0625,-35.0,-1,1.0,0.59050000000002
77,6,0.5,0.125,35.0,1,1.0,0.2826009999999428
78,6,0.5,1.0,35.0,1,1.0,0.2941009999999551
79,6,0.5,1.0,-35.0,-1,1.0,0.2946999999999207
80,6,0.5,1.0,-35.0,-1,1.0,0.36950100000001385
81,6,0.5,0.0,-35.0,-1,1.0,3.5114999999999554
82,6,0.5,0.0625,35.0,-1,0.0,1.6236000000000104
83,6,0.5,0.25,-35.0,-1,1.0,0.6670009999999706
84,6,0.5,1.0,35.0,1,1.0,0.2798010000000204
85,6,0.5,0.0,-35.0,-1,1.0,3.200600999999949
86,6,0.5,1.0,35.0,1,1.0,0.2717000000000098
87,6,0.5,1.0,35.0,1,1.0,0.26760099999995646
88,6,0.5,0.125,-35.0,-1,1.0,0.29059999999998354
89,6,0.5,0.0625,-35.0,-1,1.0,0.9459009999999921
90,6,0.5,1.0,35.0,1,1.0,0.3599999999999568
91,6,0.5,0.125,35.0,1,1.0,0.33670000000000755
92,6,0.5,0.125,35.0,1,1.0,0.33480099999991353
93,6,0.5,0.25,-35.0,-1,1.0,0.28300100000001294
94,6,0.5,0.0625,-35.0,-1,1.0,3.315700999999933
95,6,0.5,0.0625,35.0,-1,0.0,3.6338010000000054
96,6,0.5,0.0,35.0,-1,0.0,3.1106999999999516
97,6,0.5,0.125,-35.0,-1,1.0,0.4905009999999379
98,6,0.5,0.125,35.0,1,1.0,0.43180000000000973
99,6,0.5,0.25,-35.0,-1,1.0,0.2863009999999804
100,6,0.5,0.25,35.0,1,1.0,0.257300999999984
101,6,0.5,1.0,35.0,1,1.0,0.7249999999999659
102,6,0.5,0.0625,-35.0,-1,1.0,3.363999999999976
103,6,0.5,1.0,-35.0,-1,1.0,0.38840099999998756
104,6,0.5,0.125,35.0,1,1.0,0.3518999999999437
105,6,0.5,1.0,35.0,1,1.0,0.19029999999997926
106,6,0.5,0.25,-35.0,-1,1.0,0.31430099999994354
107,6,0.5,0.125,35.0,1,1.0,0.3272999999999797
108,6,0.5,1.0,35.0,1,1.0,0.2838010000000395
109,6,0.5,0.0625,35.0,1,1.0,0.23509999999998854
110,6,0.5,1.0,35.0,1,1.0,0.29810099999991735
111,6,0.5,0.0625,35.0,1,1.0,0.417699999999968
112,6,0.5,0.0625,35.0,1,1.0,0.45250099999998383
113,6,0.5,0.25,-35.0,-1,1.0,0.44170099999996637
114,6,0.5,0.25,-35.0,-1,1.0,0.4640009999999961
115,6,0.5,0.0625,35.0,1,1.0,0.36410099999994827
116,6,0.5,0.0625,-35.0,-1,1.0,0.8748009999999908
117,6,0.5,0.25,-35.0,-1,1.0,0.32050099999997883
118,6,0.5,1.0,35.0,1,1.0,0.22819999999995844
119,6,0.5,1.0,-35.0,-1,1.0,0.3091999999999757
120,6,0.5,0.0625,-35.0,-1,1.0,2.6304000000000087
121,6,0.5,0.125,-35.0,-1,1.0,5.362299999999948
122,6,0.5,0.0625,-35.0,-1,1.0,3.4439009999999826
123,6,0.5,1.0,-35.0,-1,1.0,0.36070000000000846
124,6,0.5,0.125,-35.0,-1,1.0,0.5738009999999463
125,6,0.5,0.25,-35.0,-1,1.0,0.5543999999999301
126,6,0.5,0.125,-35.0,-1,1.0,0.29840099999995573
127,6,0.5,0.0,35.0,1,1.0,0.39789999999993597
128,6,0.5,0.125,35.0,1,1.0,0.3663999999999987
129,6,0.5,0.25,-35.0,-1,1.0,0.6918000000000006
130,6,0.5,0.0625,35.0,1,1.0,0.5820999999999685
131,6,0.5,0.25,35.0,1,1.0,0.19810000000001082
132,6,0.5,0.0625,-35.0,-1,1.0,1.5615009999999643
133,6,0.5,0.125,35.0,1,1.0,0.3727999999999838
134,6,0.5,0.125,35.0,1,1.0,0.35400099999998247
135,6,0.5,0.25,-35.0,-1,1.0,0.6465000000000032
136,6,0.5,0.25,-35.0,-1,1.0,0.5855000000001382
137,6,0.5,1.0,-35.0,-1,1.0,0.28660100000001876
138,6,0.5,0.125,-35.0,-1,1.0,0.8618999999999915
139,6,0.5,0.0625,-35.0,1,0.0,0.2933010000000422
140,6,0.5,0.25,-35.0,-1,1.0,0.43960100000003877
141,6,0.5,0.125,35.0,1,1.0,3.476101000000085
142,6,0.5,1.0,-35.0,-1,1.0,0.4148999999999887
143,6,0.5,0.125,35.0,1,1.0,1.1430010000000266
144,6,0.5,0.0,35.0,-1,0.0,2.530701000000022
145,6,0.5,0.0625,-35.0,-1,1.0,0.7576999999999998
146,6,0.5,0.0625,35.0,-1,0.0,2.8087000000000444
147,6,0.5,0.125,35.0,1,1.0,0.3347009999999955
148,6,0.5,0.0625,-35.0,-1,1.0,0.742601000000036
149,6,0.5,0.0625,35.0,-1,0.0,3.1572009999999864
150,6,0.3,0.0625,35.0,-1,0.0,1.3507999999999356
151,6,0.5,1.0,35.0,1,1.0,0.2753010000000131
152,6,0.5,0.0625,-35.0,-1,1.0,0.2903009999999995
153,6,0.5,0.125,35.0,1,1.0,0.60550000000012
154,6,0.5,0.0,35.0,-1,0.0,0.3849010000000135
155,6,0.5,0.0625,-35.0,-1,1.0,0.6512010000000146
156,6,0.5,0.0625,35.0,-1,0.0,2.824999999999932
157,6,0.3,0.0625,35.0,1,1.0,0.25640000000009877
158,6,0.5,1.0,-35.0,-1,1.0,0.28860100000008515
159,6,0.5,0.0,35.0,-1,0.0,4.9459000000000515
160,6,0.5,0.0625,-35.0,-1,1.0,0.26729999999997744
161,6,0.5,0.125,-35.0,-1,1.0,0.40049999999996544
162,6,0.5,0.125,35.0,1,1.0,3.0911010000000942
163,6,0.5,1.0,-35.0,-1,1.0,0.3255010000000311
164,6,0.5,0.25,35.0,1,1.0,0.3581010000000333
165,6,0.5,0.0,-35.0,1,0.0,4.893799999999942
166,6,0.4,0.0,35.0,-1,0.0,9.978300999999988
167,6,0.5,1.0,35.0,1,1.0,0.33310100000005605
168,6,0.5,0.25,35.0,1,1.0,0.35750000000007276
169,6,0.5,1.0,35.0,1,1.0,0.2858000000001084
170,6,0.5,0.0625,35.0,1,1.0,0.2833010000000513
171,6,0.5,1.0,-35.0,-1,1.0,0.29549999999994725
172,6,0.5,0.0,35.0,-1,0.0,4.830500000000029
173,6,0.5,0.125,35.0,1,1.0,0.2779010000000426
174,6,0.5,1.0,-35.0,-1,1.0,0.316599999999994
175,6,0.5,0.0625,-35.0,-1,1.0,0.5620000000000118
176,6,0.5,0.0625,-35.0,-1,1.0,2.8294010000000753
177,6,0.5,0.25,-35.0,-1,1.0,0.4194000000001097
178,6,0.5,0.0,-35.0,-1,1.0,3.9965009999999666
179,6,0.5,0.0625,-35.0,-1,1.0,0.3953999999999951
180,6,0.5,1.0,35.0,1,1.0,0.27260100000012244
181,6,0.5,0.0625,-35.0,1,0.0,0.36580000000014934
182,6,0.5,0.25,-35.0,-1,1.0,0.35330099999998765
183,6,0.5,0.25,35.0,1,1.0,0.5263010000001032
184,6,0.5,0.0625,35.0,1,1.0,0.2790010000001075
185,6,0.5,1.0,-35.0,-1,1.0,0.34550000000001546
186,6,0.5,0.0,35.0,-1,0.0,4.7176010000001725
187,6,0.5,0.0,35.0,1,1.0,0.22770100000002458
188,6,0.5,0.25,-35.0,-1,1.0,0.4616999999999507
189,6,0.5,0.0625,35.0,1,1.0,0.3147999999999911
190,6,0.5,0.125,35.0,1,1.0,0.21000000000003638
191,6,0.5,0.125,-35.0,-1,1.0,0.6269009999999753
192,6,0.5,0.0625,-35.0,-1,1.0,0.8368000000000393
193,6,0.5,0.0625,-35.0,-1,1.0,1.793700000000058
194,6,0.5,0.0625,-35.0,-1,1.0,0.9097000000000435
195,6,0.5,0.125,-35.0,-1,1.0,0.592200000000048
196,6,0.5,0.25,-35.0,-1,1.0,0.3181010000000697
197,6,0.5,0.25,35.0,1,1.0,0.22480000000007294
198,6,0.5,0.0625,35.0,1,1.0,0.4223010000000613
199,6,0.5,0.0625,35.0,1,1.0,0.2919010000000526
200,6,0.5,0.0625,-35.0,-1,1.0,0.5929010000000972
201,6,0.5,0.125,-35.0,-1,1.0,0.6016000000000759
202,6,0.5,0.25,35.0,1,1.0,0.23410000000012587
203,6,0.5,0.0625,35.0,1,1.0,0.2784999999998945
204,6,0.5,0.0625,35.0,1,1.0,0.26210100000002967
205,6,0.5,0.0,35.0,1,1.0,0.37910100000010516
206,6,0.5,0.125,35.0,1,1.0,0.21030100000007224
207,6,0.5,0.0,-35.0,1,0.0,0.2917009999999891
208,6,0.5,0.25,-35.0,-1,1.0,0.3924010000000635
209,6,0.5,0.0,35.0,1,1.0,4.178400000000124
210,6,0.5,0.125,-35.0,-1,1.0,0.2981009999999742
211,6,0.5,0.25,35.0,1,1.0,0.2640010000000075
212,6,0.5,0.25,-35.0,-1,1.0,0.5208000000000084
213,6,0.5,0.25,35.0,1,1.0,0.36940100000003895
214,6,0.5,0.0,-35.0,-1,1.0,5.009199999999964
215,6,0.5,0.0,-35.0,-1,1.0,4.495499999999879
216,6,0.5,1.0,-35.0,-1,1.0,0.2615009999999529
217,6,0.5,0.125,-35.0,-1,1.0,0.43420099999991635
218,6,0.5,0.25,-35.0,-1,1.0,0.32650000000001
219,6,0.5,1.0,35.0,1,1.0,0.2372010000000273
220,6,0.5,0.0,35.0,1,1.0,2.525800000000004
221,6,0.5,0.125,35.0,1,1.0,0.28280000000006567
222,6,0.5,0.125,-35.0,-1,1.0,0.6289010000000417
223,6,0.5,0.25,-35.0,-1,1.0,0.48650100000008933
224,6,0.5,0.0625,-35.0,-1,1.0,1.2713010000001077
225,6,0.5,0.0625,35.0,1,1.0,0.23650100000008933
226,6,0.5,0.0625,35.0,1,1.0,0.2454010000000153
227,6,0.5,0.25,-35.0,-1,1.0,0.4089010000000144
228,6,0.5,1.0,-35.0,-1,1.0,0.44440000000008695
229,6,0.5,0.0,-35.0,1,0.0,4.730100000000107
230,6,0.5,0.0,35.0,-1,0.0,3.7435010000000375
231,6,0.5,1.0,35.0,1,1.0,0.25270100000000184
232,6,0.5,0.125,-35.0,-1,1.0,0.5061010000000579
233,6,0.5,0.125,-35.0,-1,1.0,0.6276010000000269
234,6,0.5,0.125,-35.0,-1,1.0,0.5065010000000711
235,6,0.5,0.25,35.0,1,1.0,0.2171010000000706
236,6,0.5,1.0,-35.0,-1,1.0,0.3526000000000522
237,6,0.5,0.125,35.0,1,1.0,0.3279010000001108
238,6,0.5,0.25,-35.0,-1,1.0,0.73920099999998
239,6,0.5,0.0625,35.0,1,1.0,0.2136000000000422
240,6,0.5,0.0,-35.0,-1,1.0,5.501900999999975
241,6,0.5,0.25,35.0,1,1.0,0.3148000000001048
242,6,0.5,0.0625,-35.0,-1,1.0,0.49820099999999456
243,6,0.5,0.0625,35.0,1,1.0,0.6960010000000239
244,6,0.5,0.0,35.0,1,1.0,0.5198010000000295
245,6,0.5,0.25,35.0,1,1.0,0.29200000000003
246,6,0.5,0.125,-35.0,-1,1.0,0.5738000000001193
247,6,0.5,1.0,35.0,1,1.0,0.19880000000000564
248,6,0.5,1.0,-35.0,-1,1.0,0.3649000000000342
249,6,0.5,0.0,35.0,1,1.0,0.2198999999999387
250,6,0.5,0.25,35.0,1,1.0,0.2329010000000835
251,6,0.5,1.0,35.0,1,1.0,0.20990100000005896
252,6,0.5,0.25,-35.0,-1,1.0,0.44390099999998256
253,6,0.5,0.0,-35.0,-1,1.0,14.330801000000065
254,6,0.5,0.125,-35.0,-1,1.0,0.48600100000010116
255,6,0.5,0.0625,-35.0,-1,1.0,1.3413000000000466
256,6,0.5,0.0,35.0,1,1.0,5.2957009999998945
257,6,0.5,0.125,35.0,1,1.0,0.42829999999992197
258,6,0.5,0.25,35.0,1,1.0,0.5970999999999549
259,6,0.5,0.25,35.0,1,1.0,0.18200099999990016
260,6,0.5,0.0625,35.0,1,1.0,0.3529009999999744
261,6,0.5,0.0625,35.0,1,1.0,0.24870000000009895
262,6,0.5,1.0,35.0,1,1.0,0.19409999999993488
263,6,0.5,0.0625,-35.0,-1,1.0,0.8519999999998618
264,6,0.5,0.25,-35.0,-1,1.0,1.4032009999998536
265,6,0.5,1.0,35.0,1,1.0,0.2823009999997339
266,6,0.5,1.0,-35.0,-1,1.0,0.3702009999999518
267,6,0.5,1.0,35.0,1,1.0,0.26250099999992926
268,6,0.5,1.0,35.0,1,1.0,0.2400000000000091
269,6,0.5,1.0,-35.0,-1,1.0,0.3324009999998907
270,6,0.5,1.0,35.0,1,1.0,0.35670099999993
271,6,0.5,0.0,-35.0,-1,1.0,3.4460009999997965
272,6,0.5,1.0,35.0,1,1.0,0.23729999999977736
273,6,0.5,0.125,35.0,1,1.0,0.2863999999999578
274,6,0.5,0.125,35.0,1,1.0,0.5511009999997896
275,6,0.5,0.0625,-35.0,-1,1.0,4.149901
276,6,0.5,0.0,-35.0,1,0.0,0.21839999999997417
277,6,0.5,0.125,35.0,1,1.0,0.27979999999979555
278,6,0.5,1.0,35.0,1,1.0,0.31540099999983795
279,6,0.5,0.25,-35.0,-1,1.0,0.45679999999993015
280,6,0.5,0.25,35.0,1,1.0,0.351399999999785
281,6,0.5,0.25,35.0,1,1.0,0.36049999999977445
282,6,0.5,0.0,-35.0,1,0.0,0.3343009999998685
283,6,0.8,0.0,-35.0,-1,1.0,10.663800000000037
284,6,0.5,1.0,35.0,1,1.0,0.28480100000001585
285,6,0.5,0.25,-35.0,-1,1.0,0.3408009999998285
286,6,0.5,0.125,35.0,-1,0.0,1.5988009999998667
287,6,0.5,0.125,-35.0,-1,1.0,0.41429999999991196
288,6,0.5,0.25,35.0,1,1.0,1.9226999999998498
289,6,0.5,0.125,35.0,1,1.0,4.927799999999934
290,6,0.5,0.125,35.0,1,1.0,0.40830000000005384
291,6,0.5,0.25,-35.0,-1,1.0,0.3648009999999431
292,6,0.5,0.25,-35.0,-1,1.0,0.4156000000000404
293,6,0.5,1.0,-35.0,-1,1.0,0.3118010000000595
294,6,0.5,0.125,-35.0,-1,1.0,0.392900999999938
295,6,0.5,0.0,-35.0,1,0.0,0.31500000000005457
296,6,0.5,0.125,35.0,1,1.0,0.2930999999998676
297,6,0.5,0.0625,-35.0,-1,1.0,2.112000999999964
298,6,0.5,0.0,35.0,-1,0.0,2.503099999999904
299,6,0.5,0.125,-35.0,-1,1.0,0.42580099999986487
300,6,0.5,0.25,-35.0,-1,1.0,0.33320000000003347
301,6,0.5,0.0,-35.0,-1,1.0,5.852500000000191
302,6,0.5,0.0625,-35.0,-1,1.0,0.577000999999882
303,6,0.5,0.25,35.0,1,1.0,0.3160009999999147
304,6,0.5,0.125,35.0,1,1.0,0.2839010000000144
305,6,0.5,0.25,-35.0,-1,1.0,0.3627010000000155
306,6,0.5,0.125,-35.0,-1,1.0,0.554100999999946
307,6,0.5,1.0,35.0,1,1.0,0.2530010000000402
308,6,0.5,1.0,35.0,1,1.0,0.15709999999990032
309,6,0.5,1.0,-35.0,-1,1.0,0.41320100000007187
310,6,0.5,0.25,-35.0,-1,1.0,0.3119000000001506
311,6,0.5,0.0,-35.0,-1,1.0,3.5832000000000335
312,6,0.5,0.25,-35.0,-1,1.0,0.5952009999998609
313,6,0.5,0.25,-35.0,-1,1.0,0.2567999999996573
314,6,0.5,0.25,-35.0,-1,1.0,0.6012999999998101
315,6,0.5,0.125,-35.0,-1,1.0,0.4735000000000582
316,6,0.5,0.25,-35.0,-1,1.0,0.45869999999990796
317,6,0.5,0.0625,-35.0,-1,1.0,0.34019999999986794
318,6,0.5,1.0,-35.0,-1,1.0,0.33819999999991524
319,6,0.5,1.0,-35.0,-1,1.0,0.28080099999988306
320,6,0.5,1.0,35.0,1,1.0,0.23139999999989413
321,6,0.5,0.125,-35.0,-1,1.0,0.6307009999998172
322,6,0.5,0.125,-35.0,-1,1.0,0.5016999999998006
323,6,0.5,1.0,35.0,1,1.0,0.22089999999980137
324,6,0.5,1.0,-35.0,-1,1.0,0.5157010000000355
325,6,0.5,0.0625,35.0,1,1.0,0.20440000000007785
326,6,0.5,0.25,35.0,1,1.0,0.292100999999775
327,6,0.5,1.0,35.0,1,1.0,0.2114010000000235
328,6,0.5,0.125,-35.0,-1,1.0,0.3425999999999476
329,6,0.5,0.125,35.0,1,1.0,0.2215009999999893
330,6,0.5,1.0,-35.0,-1,1.0,0.3566009999999551
331,6,0.5,0.25,35.0,1,1.0,0.22489999999993415
332,6,0.5,0.0,-35.0,-1,1.0,15.469899999999825
333,6,0.5,0.0,35.0,1,1.0,0.3455999999998767
334,6,0.5,0.25,-35.0,-1,1.0,0.5036000000000058
335,6,0.5,1.0,35.0,1,1.0,0.312300999999934
336,6,0.5,0.125,-35.0,-1,1.0,0.4099999999998545
337,6,0.5,0.125,35.0,1,1.0,0.39230099999986123
338,6,0.5,1.0,35.0,1,1.0,0.17669999999998254
339,6,0.5,0.125,-35.0,-1,1.0,0.6026999999999134
340,6,0.5,0.25,-35.0,-1,1.0,0.437300999999934
341,6,0.5,0.125,-35.0,-1,1.0,0.9527000000000498
342,6,0.5,0.0625,-35.0,-1,1.0,4.197801000000027
343,6,0.5,0.25,-35.0,-1,1.0,0.6698999999998705
344,6,0.5,0.125,35.0,1,1.0,0.30070099999989
345,6,0.5,0.125,35.0,1,1.0,0.21630099999993035
346,6,0.5,1.0,-35.0,-1,1.0,0.28090000000020154
347,6,0.5,1.0,-35.0,-1,1.0,0.4768010000000231
348,6,0.5,0.0625,35.0,1,1.0,0.31759999999985666
349,6,0.5,0.0625,-35.0,1,0.0,0.2668999999998505
350,6,0.5,0.125,-35.0,-1,1.0,0.4649010000000544
351,6,0.5,0.125,35.0,1,1.0,0.22020099999986087
352,6,0.5,0.0625,-35.0,-1,1.0,0.4813010000000304
353,6,0.5,0.0625,-35.0,1,0.0,0.3204999999998108
354,6,0.6,0.0625,35.0,1,1.0,0.3147009999997863
355,6,0.5,1.0,35.0,1,1.0,0.23080099999992854
356,6,0.5,0.0625,35.0,1,1.0,0.2948999999998705
357,6,0.5,1.0,-35.0,-1,1.0,0.304100999999946
358,6,0.5,0.125,35.0,1,1.0,0.24229999999965912
359,6,0.5,0.0,-35.0,1,0.0,0.2844009999998889
360,6,0.5,0.125,35.0,1,1.0,0.2861000000000331
361,6,0.5,0.0625,-35.0,-1,1.0,1.7110999999999876
362,6,0.5,0.125,-35.0,-1,1.0,4.210100999999895
363,6,0.5,1.0,-35.0,-1,1.0,0.3581000000001495
364,6,0.5,1.0,-35.0,-1,1.0,0.35120099999994636
365,6,0.5,1.0,-35.0,-1,1.0,0.2949999999998454
366,6,0.5,1.0,-35.0,-1,1.0,0.3091999999999189
367,6,0.5,0.0,35.0,-1,0.0,10.408400999999913
368,6,0.5,0.125,35.0,1,1.0,0.26030100000002676
369,6,0.5,0.25,35.0,1,1.0,0.37859999999977845
370,6,0.5,0.25,-35.0,-1,1.0,0.3083009999998012
371,6,0.5,0.0625,-35.0,1,0.0,0.2355009999998856
372,6,0.5,0.0625,-35.0,-1,1.0,0.736500999999862
373,6,0.5,0.0625,35.0,1,1.0,0.39259999999990214
374,6,0.5,0.0625,35.0,-1,0.0,1.5639000000001033
375,6,0.5,0.0625,-35.0,-1,1.0,0.50649999999996
376,6,0.5,1.0,35.0,1,1.0,0.2824999999997999
377,6,0.5,1.0,35.0,1,1.0,0.23939999999993233
378,6,0.5,1.0,35.0,1,1.0,0.3975999999997839
379,6,0.5,0.0625,35.0,1,1.0,0.26660100000003695
380,6,0.5,0.0625,-35.0,-1,1.0,0.35760099999993145
381,6,0.5,0.25,35.0,1,1.0,1.3065999999998894
382,6,0.5,0.125,35.0,1,1.0,0.5905999999997675
383,6,0.5,0.25,-35.0,-1,1.0,0.5865999999998621
384,6,0.5,0.125,35.0,1,1.0,0.2648999999998978
385,6,0.5,1.0,-35.0,-1,1.0,0.34360099999980775
386,6,0.5,1.0,-35.0,-1,1.0,0.3317010000000664
387,6,0.5,1.0,-35.0,-1,1.0,0.3671000000001641
388,6,0.5,0.25,-35.0,-1,1.0,0.3147009999997863
389,6,0.5,0.25,-35.0,-1,1.0,0.3604000000000269
390,6,0.5,1.0,-35.0,-1,1.0,0.31970000000001164
391,6,0.5,1.0,-35.0,-1,1.0,0.35730100000000675
392,6,0.5,0.125,-35.0,-1,1.0,0.698600999999826
393,6,0.5,0.25,-35.0,-1,1.0,0.4240999999997257
394,6,0.5,0.25,-35.0,-1,1.0,0.34940000000005966
395,6,0.5,0.125,-35.0,-1,1.0,0.32780000000002474
396,6,0.5,0.0625,-35.0,-1,1.0,0.5419009999998252
397,6,0.5,0.125,35.0,1,1.0,0.3077009999999518
398,6,0.5,1.0,35.0,1,1.0,0.18590100000005805
399,6,0.5,1.0,35.0,1,1.0,0.21440099999995255
400,6,0.5,0.25,-35.0,-1,1.0,0.3187009999999191
401,6,0.5,1.0,35.0,1,1.0,0.19109999999977845
402,6,0.5,0.0625,-35.0,-1,1.0,0.613901000000169
403,6,0.5,0.0625,35.0,1,1.0,0.8280010000000857
404,6,0.5,0.0,35.0,1,1.0,0.2940009999999802
405,6,0.5,0.125,-35.0,-1,1.0,0.4882999999999811
406,6,0.5,1.0,35.0,1,1.0,0.26299999999991996
407,6,0.5,0.0625,35.0,1,1.0,0.29520099999990634
408,6,0.5,1.0,35.0,1,1.0,0.29609999999979664
409,6,0.5,0.125,-35.0,-1,1.0,0.5153009999999085
410,6,0.5,1.0,-35.0,-1,1.0,0.4699000000000524
411,6,0.5,0.0625,35.0,1,1.0,0.20890099999974154
