trial_num,session_num,stim_probability_left,contrast,position,response_choice,trial_correct,reaction_time
1,27,0.5,0.0625,35.0,1,1.0,0.7568000000000001
2,27,0.5,0.25,-35.0,-1,1.0,0.42089999999999916
3,27,0.5,0.125,-35.0,-1,1.0,0.26449999999999907
4,27,0.5,1.0,35.0,1,1.0,0.39200000000000124
5,27,0.5,1.0,-35.0,-1,1.0,0.27280000000000015
6,27,0.5,0.0625,-35.0,1,0.0,0.29930000000000057
7,27,0.5,0.125,35.0,1,1.0,0.37299999999999756
8,27,0.5,0.25,35.0,1,1.0,0.4923000000000002
9,27,0.5,1.0,35.0,1,1.0,0.2699999999999996
10,27,0.5,0.25,35.0,1,1.0,0.367799999999999
11,27,0.5,0.0,35.0,1,1.0,0.3440000000000012
12,27,0.5,0.25,35.0,1,1.0,0.35079999999999245
13,27,0.5,1.0,35.0,1,1.0,0.27369999999999806
14,27,0.5,0.125,35.0,1,1.0,0.3628
15,27,0.5,1.0,35.0,1,1.0,0.29180000000000206
16,27,0.5,0.0,-35.0,1,0.0,0.4269999999999996
17,27,1.0,0.0,-35.0,1,0.0,0.3228999999999971
18,27,0.5,1.0,-35.0,-1,1.0,0.24289999999999168
19,27,0.5,1.0,-35.0,-1,1.0,0.5056000000000012
20,27,0.5,1.0,-35.0,1,0.0,2.5796999999999954
21,27,0.5,0.25,35.0,1,1.0,0.3032000000000039
22,27,0.5,0.125,35.0,1,1.0,0.554300000000012
23,27,0.5,0.0625,-35.0,1,0.0,0.46980000000000643
24,27,0.8,0.0625,-35.0,-1,1.0,0.3836000000000155
25,27,0.5,1.0,35.0,1,1.0,0.39520000000000266
26,27,0.5,0.25,35.0,1,1.0,0.38870000000000005
27,27,0.5,0.25,35.0,1,1.0,0.3423000000000087
28,27,0.5,1.0,35.0,1,1.0,0.23529999999999518
29,27,0.5,0.125,35.0,1,1.0,0.32900000000000773
30,27,0.5,0.25,35.0,1,1.0,0.3480999999999881
31,27,0.5,1.0,-35.0,-1,1.0,0.26890000000000214
32,27,0.5,0.125,35.0,1,1.0,0.4124000000000052
33,27,0.5,0.0625,35.0,1,1.0,0.3726000000000056
34,27,0.5,0.0625,35.0,1,1.0,0.36120000000001085
35,27,0.5,0.125,35.0,1,1.0,0.2966000000000122
36,27,0.5,0.125,-35.0,-1,1.0,0.28420000000001266
37,27,0.5,0.0625,35.0,1,1.0,0.33480000000001553
38,27,0.5,1.0,-35.0,-1,1.0,0.3983999999999952
39,27,0.5,0.125,-35.0,-1,1.0,0.4522000000000048
40,27,0.5,0.0625,-35.0,1,0.0,0.46530000000001337
41,27,0.6,0.0625,-35.0,1,0.0,0.49559999999999604
42,27,0.5,1.0,-35.0,-1,1.0,0.24739999999999895
43,27,0.5,0.0625,-35.0,1,0.0,0.37129999999999086
44,27,0.5,0.0,35.0,1,1.0,0.48730000000000473
45,27,0.5,1.0,-35.0,-1,1.0,0.24869999999998527
46,27,0.5,1.0,35.0,1,1.0,0.2933999999999628
47,27,0.5,0.25,-35.0,-1,1.0,0.24480000000002633
48,27,0.5,0.0,-35.0,-1,1.0,0.5563999999999965
49,27,0.5,1.0,-35.0,-1,1.0,0.3592999999999904
50,27,0.5,1.0,-35.0,-1,1.0,0.2336999999999989
51,27,0.5,0.25,-35.0,-1,1.0,0.44539999999997804
52,27,0.5,0.25,35.0,1,1.0,0.24190000000001532
53,27,0.5,0.25,-35.0,-1,1.0,0.37009999999997945
54,27,0.5,0.125,35.0,1,1.0,0.33909999999997353
55,27,0.5,0.0,-35.0,1,0.0,0.4006999999999721
56,27,0.5,0.0625,-35.0,-1,1.0,0.4282999999999788
57,27,0.5,1.0,35.0,1,1.0,0.3673999999999751
58,27,0.5,0.25,-35.0,-1,1.0,0.22929999999996653
59,27,0.5,0.125,-35.0,-1,1.0,0.5851999999999862
60,27,0.5,0.25,35.0,-1,0.0,0.7468999999999824
61,27,0.5,0.0,-35.0,-1,1.0,0.4391000000000247
62,27,0.5,0.0625,35.0,1,1.0,0.29710000000000036
63,27,0.5,0.0625,35.0,-1,0.0,0.5165999999999826
64,27,0.5,0.0,35.0,-1,0.0,0.23499999999998522
65,27,0.3,0.0,35.0,1,1.0,0.2960999999999956
66,27,0.5,1.0,35.0,1,1.0,0.36609999999998877
67,27,0.5,0.0625,35.0,1,1.0,0.4766999999999655
68,27,0.5,0.25,-35.0,-1,1.0,0.42669999999998254
69,27,0.5,0.0625,-35.0,-1,1.0,0.7980000000000018
70,27,0.5,0.0625,35.0,1,1.0,0.38689999999999714
71,27,0.5,1.0,35.0,1,1.0,0.24809999999999377
72,27,0.5,0.0625,-35.0,-1,1.0,0.46079999999997767
73,27,0.5,1.0,-35.0,-1,1.0,0.2541999999999973
74,27,0.5,0.0,35.0,1,1.0,0.38900000000001
75,27,0.5,1.0,35.0,1,1.0,0.5426999999999964
76,27,0.5,0.125,-35.0,-1,1.0,0.2528999999999826
77,27,0.5,0.0625,-35.0,1,0.0,0.3480999999999881
78,27,0.5,0.125,35.0,1,1.0,0.276800000000037
79,27,0.5,0.25,35.0,1,1.0,0.28820000000001755
80,27,0.5,0.125,-35.0,-1,1.0,0.6101000000000454
81,27,0.5,0.125,-35.0,-1,1.0,0.2919000000000551
82,27,0.5,0.25,35.0,1,1.0,3.199099999999987
83,27,0.5,0.125,35.0,1,1.0,0.45760000000001355
84,27,0.5,0.25,-35.0,-1,1.0,0.31100000000003547
85,27,0.5,0.25,35.0,1,1.0,0.42630000000008295
86,27,0.5,1.0,-35.0,-1,1.0,0.28239999999999554
87,27,0.5,0.0625,35.0,1,1.0,2.1309000000000538
88,27,0.5,0.0625,35.0,1,1.0,3.481200000000058
89,27,0.5,0.125,35.0,1,1.0,0.2790000000000532
90,27,0.5,1.0,-35.0,-1,1.0,0.26480000000003656
91,27,0.5,0.25,-35.0,-1,1.0,0.5119000000000256
92,27,0.5,1.0,35.0,1,1.0,0.2807000000000244
93,27,0.5,0.0,35.0,1,1.0,0.5754000000000019
94,27,0.5,1.0,-35.0,-1,1.0,0.23110000000002628
95,27,0.5,0.0625,-35.0,1,0.0,0.49350000000004
96,27,0.5,0.0625,35.0,1,1.0,0.36770000000001346
97,27,0.5,0.25,-35.0,-1,1.0,0.47910000000001673
98,27,0.5,0.0,35.0,1,1.0,0.41390000000001237
99,27,0.5,0.0625,35.0,1,1.0,0.3643000000000711
100,27,0.5,0.0,35.0,-1,0.0,2.3401000000000067
101,27,0.5,0.25,-35.0,1,0.0,0.42540000000002465
102,27,0.5,0.125,35.0,1,1.0,0.3909999999999627
103,27,0.5,0.125,-35.0,-1,1.0,0.438000000000045
104,27,0.5,0.25,-35.0,-1,1.0,0.457300000000032
105,27,0.5,0.0,35.0,1,1.0,0.40100000000001046
106,27,0.5,0.125,-35.0,-1,1.0,0.411700000000053
107,27,0.5,0.0,-35.0,-1,1.0,0.547300000000007
108,27,0.5,1.0,35.0,1,1.0,0.30920000000003256
109,27,0.5,0.0,35.0,-1,0.0,0.6733000000000402
110,27,0.4,0.0,35.0,-1,0.0,0.6112000000000535
111,27,0.5,1.0,-35.0,-1,1.0,0.2697000000000003
112,27,0.5,0.125,-35.0,-1,1.0,3.23640000000006
113,27,0.5,0.0625,35.0,1,1.0,0.5639999999999645
114,27,0.5,0.0,-35.0,-1,1.0,0.494199999999978
115,27,0.5,0.25,-35.0,-1,1.0,0.45249999999998636
116,27,0.5,0.125,35.0,-1,0.0,4.594500000000039
117,27,0.2,0.125,35.0,1,1.0,0.36970000000007985
118,27,0.5,1.0,35.0,1,1.0,0.33240000000006376
119,27,0.5,0.25,35.0,1,1.0,0.4537000000000262
120,27,0.5,0.125,35.0,1,1.0,0.33260000000001355
121,27,0.5,0.25,35.0,1,1.0,0.2895000000000323
122,27,0.5,1.0,35.0,1,1.0,0.2613000000000625
123,27,0.5,0.0625,35.0,1,1.0,0.36400000000003274
124,27,0.5,0.0625,-35.0,1,0.0,0.5364000000000715
125,27,0.5,0.125,35.0,1,1.0,0.23210000000000264
126,27,0.5,0.0,35.0,1,1.0,0.47100000000000364
127,27,0.5,0.0,35.0,1,1.0,0.3797000000000139
128,27,0.5,1.0,35.0,1,1.0,0.335200000000043
129,27,0.5,1.0,-35.0,-1,1.0,0.26190000000002556
130,27,0.5,0.25,-35.0,-1,1.0,0.24529999999998608
131,27,0.5,0.25,-35.0,-1,1.0,0.43600000000003547
132,27,0.5,0.125,35.0,1,1.0,0.37909900000005337
133,27,0.5,0.25,-35.0,-1,1.0,0.46050000000002456
134,27,0.5,1.0,35.0,1,1.0,0.3543000000000234
135,27,0.5,1.0,35.0,1,1.0,0.3453000000000088
136,27,0.5,0.25,35.0,1,1.0,0.2755000000000223
137,27,0.5,0.0625,35.0,1,1.0,0.35920000000004393
138,27,0.5,0.25,-35.0,1,0.0,0.35110000000003083
139,27,0.5,0.0,35.0,-1,0.0,0.45350000000001955
140,27,0.5,0.0,35.0,-1,0.0,0.5583000000000311
141,27,0.5,0.25,35.0,1,1.0,0.4128000000000043
142,27,0.5,0.0,35.0,1,1.0,0.43840000000000146
143,27,0.5,1.0,35.0,1,1.0,4.288800000000094
144,27,0.5,0.0625,35.0,1,1.0,0.33840000000003556
145,27,0.5,0.25,35.0,1,1.0,0.3990999999999758
146,27,0.5,0.125,35.0,-1,0.0,0.9191000000000145
147,27,0.5,0.25,35.0,1,1.0,0.3694000000000415
148,27,0.5,0.25,-35.0,-1,1.0,0.5775999999999613
149,27,0.5,0.25,35.0,1,1.0,0.7455999999999676
150,27,0.5,0.125,-35.0,-1,1.0,0.4134000000000242
151,27,0.5,0.25,-35.0,1,0.0,0.3471999999999298
152,27,0.5,0.0625,35.0,1,1.0,0.3904000000001133
153,27,0.5,0.0,-35.0,1,0.0,0.42029999999999745
154,27,0.5,0.125,35.0,1,1.0,0.350400000000036
155,27,0.5,0.25,-35.0,-1,1.0,0.43600000000014916
156,27,0.5,0.25,35.0,1,1.0,0.36730000000011387
157,27,0.5,1.0,-35.0,-1,1.0,0.5124000000000706
158,27,0.5,1.0,-35.0,-1,1.0,0.42639999999994416
159,27,0.5,0.25,-35.0,-1,1.0,0.4975000000000591
160,27,0.5,0.0625,-35.0,-1,1.0,0.519800000000032
161,27,0.5,0.0625,35.0,1,1.0,0.3432999999998856
162,27,0.5,0.0625,-35.0,-1,1.0,0.4857000000000653
163,27,0.5,1.0,-35.0,-1,1.0,0.3548000000000684
164,27,0.5,0.25,35.0,1,1.0,0.3250000000000455
165,27,0.5,0.125,35.0,1,1.0,0.4773000000001275
166,27,0.5,0.25,35.0,-1,0.0,0.6613999999999578
167,27,0.5,0.0625,-35.0,-1,1.0,0.44640000000003965
168,27,0.5,1.0,35.0,1,1.0,0.5079999999999245
169,27,0.5,0.25,-35.0,1,0.0,0.46850000000006276
170,27,0.5,0.25,-35.0,-1,1.0,0.40240000000005693
171,27,0.5,0.25,-35.0,-1,1.0,0.5007000000000517
172,27,0.5,0.25,-35.0,-1,1.0,0.4981999999999971
173,27,0.5,0.0625,-35.0,1,0.0,0.47649999999998727
174,27,0.5,0.25,35.0,1,1.0,0.41240000000004784
175,27,0.5,0.125,35.0,1,1.0,0.46830000000011296
176,27,0.5,0.25,-35.0,-1,1.0,2.0413999999999533
177,27,0.5,0.0625,-35.0,-1,1.0,0.6358000000000175
178,27,0.5,0.25,-35.0,-1,1.0,0.27350000000001273
179,27,0.5,0.0625,35.0,1,1.0,0.3826999999999998
180,27,0.5,1.0,35.0,1,1.0,0.3105000000000473
181,27,0.5,0.0,-35.0,-1,1.0,0.6734000000000151
182,27,0.5,0.0,-35.0,-1,1.0,1.1346000000000913
183,27,0.5,1.0,-35.0,-1,1.0,0.27089999999998327
184,27,0.5,1.0,-35.0,-1,1.0,0.23860000000001946
185,27,0.5,1.0,-35.0,-1,1.0,0.25869999999997617
186,27,0.5,0.25,-35.0,-1,1.0,0.45470000000000255
187,27,0.5,0.125,35.0,-1,0.0,0.8267999999999347
188,27,0.5,0.125,-35.0,-1,1.0,0.3527000000000271
189,27,0.5,0.25,35.0,1,1.0,0.39620000000002165
190,27,0.5,0.25,35.0,1,1.0,0.5029000000000678
191,27,0.5,1.0,35.0,1,1.0,0.42880000000002383
192,27,0.5,0.125,35.0,-1,0.0,0.6596000000000686
193,27,0.5,0.125,35.0,1,1.0,0.3608000000000402
194,27,0.5,1.0,35.0,1,1.0,0.33789999999999054
195,27,0.5,0.125,35.0,1,1.0,0.3748000000000502
196,27,0.5,0.0,35.0,-1,0.0,0.46220000000005257
197,27,0.5,0.25,35.0,1,1.0,0.3744000000000369
198,27,0.5,0.125,-35.0,-1,1.0,0.27870000000007167
199,27,0.5,1.0,35.0,1,1.0,0.5692999999999984
200,27,0.5,0.125,35.0,-1,0.0,6.674200000000042
201,27,0.5,0.0,-35.0,1,0.0,0.45670000000006894
202,27,0.5,0.0625,-35.0,-1,1.0,0.3897999999999229
203,27,0.5,0.0625,35.0,1,1.0,0.4737999999999829
204,27,0.5,0.25,35.0,1,1.0,5.066600000000108
205,27,0.5,0.25,35.0,1,1.0,0.39809999999999945
206,27,0.5,0.125,-35.0,-1,1.0,0.5670000000000073
207,27,0.5,0.125,-35.0,-1,1.0,0.5318000000000893
208,27,0.5,0.0625,35.0,1,1.0,0.49120000000004893
209,27,0.5,1.0,35.0,1,1.0,0.4090999999999667
210,27,0.5,0.0,-35.0,1,0.0,1.1317999999999984
211,27,0.5,0.0625,-35.0,-1,1.0,0.5538999999999987
212,27,0.5,0.125,-35.0,-1,1.0,0.4453999999999496
213,27,0.5,0.125,-35.0,1,0.0,0.4229000000000269
214,27,0.5,0.0625,35.0,1,1.0,0.38009999999997035
215,27,0.5,0.0,35.0,1,1.0,0.33619999999996253
216,27,0.5,0.25,35.0,1,1.0,0.5631000000000768
217,27,0.5,0.0625,-35.0,-1,1.0,0.6027000000000271
218,27,0.5,0.125,-35.0,-1,1.0,0.5161999999999125
219,27,0.5,0.0625,-35.0,1,0.0,0.3868000000001075
220,27,0.5,0.25,-35.0,-1,1.0,0.48070000000006985
221,27,0.5,0.125,-35.0,-1,1.0,0.3852000000000544
222,27,0.5,0.125,-35.0,-1,1.0,0.4013999999999669
223,27,0.5,1.0,-35.0,-1,1.0,0.25509999999997035
224,27,0.5,0.0625,-35.0,-1,1.0,0.43280000000004293
225,27,0.5,0.25,-35.0,-1,1.0,0.2918000000000802
226,27,0.5,0.125,35.0,1,1.0,0.3386999999999034
227,27,0.5,1.0,35.0,1,1.0,0.3732000000001108
228,27,0.5,0.25,-35.0,-1,1.0,0.34580000000005384
229,27,0.5,0.0,35.0,1,1.0,0.45719999999994343
230,27,0.5,0.25,-35.0,-1,1.0,0.3947000000000571
231,27,0.5,1.0,35.0,1,1.0,0.35210000000006403
232,27,0.5,0.0625,35.0,-1,0.0,0.6875
233,27,0.5,0.0625,35.0,1,1.0,0.2339000000000624
234,27,0.5,0.0625,35.0,1,1.0,0.36950000000001637
235,27,0.5,0.25,35.0,1,1.0,0.35190000000011423
236,27,0.5,0.125,-35.0,-1,1.0,0.4411999999999807
237,27,0.5,1.0,35.0,1,1.0,0.46069999999997435
238,27,0.5,0.0625,-35.0,-1,1.0,0.5639999999999645
239,27,0.5,1.0,35.0,1,1.0,0.41390000000001237
240,27,0.5,0.0625,-35.0,-1,1.0,0.5049000000000206
241,27,0.5,0.25,35.0,1,1.0,0.35779999999999745
242,27,0.5,1.0,35.0,1,1.0,0.4375999999999749
243,27,0.5,0.0,-35.0,1,0.0,0.4793000000000802
244,27,0.5,0.0,35.0,1,1.0,0.3573999999999842
245,27,0.5,0.0,-35.0,1,0.0,0.4011000000000422
246,27,0.5,0.25,35.0,1,1.0,0.42970000000013897
247,27,0.5,0.125,-35.0,-1,1.0,0.5262000000000171
248,27,0.5,1.0,35.0,1,1.0,0.31530000000009295
249,27,0.5,0.0625,-35.0,-1,1.0,0.4959999999999809
250,27,0.5,0.0625,-35.0,-1,1.0,0.43040000000007694
251,27,0.5,0.0625,-35.0,-1,1.0,0.4633999999999787
252,27,0.5,1.0,-35.0,-1,1.0,0.27049999999997
253,27,0.5,0.0,-35.0,1,0.0,0.3491999999999962
254,27,0.5,0.0,35.0,-1,0.0,0.3792999999999438
255,27,0.5,1.0,35.0,1,1.0,0.2440000000000282
256,27,0.5,1.0,35.0,1,1.0,0.4333000000000311
257,27,0.5,0.0625,-35.0,-1,1.0,0.5214999999999463
258,27,0.5,0.25,35.0,1,1.0,0.3425000000000864
259,27,0.5,0.25,35.0,1,1.0,0.3491000000000213
260,27,0.5,0.0625,-35.0,-1,1.0,0.42600000000015825
261,27,0.5,0.0625,35.0,-1,0.0,0.4694999999999254
262,27,0.5,0.0625,-35.0,-1,1.0,0.364400000000046
263,27,0.5,0.25,35.0,1,1.0,0.38609999999994216
264,27,0.5,0.0,-35.0,1,0.0,0.45839999999998327
265,27,0.5,0.125,35.0,1,1.0,0.39099899999996524
266,27,0.5,1.0,-35.0,-1,1.0,0.2521000000000413
267,27,0.5,0.125,-35.0,-1,1.0,0.47460000000000946
268,27,0.5,0.25,35.0,1,1.0,0.3591000000000122
269,27,0.5,0.0625,-35.0,-1,1.0,0.4053000000000111
270,27,0.5,0.25,35.0,1,1.0,0.2981000000000904
271,27,0.5,1.0,-35.0,-1,1.0,0.2561000000000604
272,27,0.5,0.125,-35.0,1,0.0,0.5624000000000251
273,27,0.5,0.25,35.0,1,1.0,0.36019999999996344
274,27,0.5,1.0,35.0,1,1.0,0.30369999999993524
275,27,0.5,1.0,-35.0,-1,1.0,0.400600000000054
276,27,0.5,0.125,-35.0,1,0.0,0.3813000000000102
277,27,0.5,0.125,35.0,-1,0.0,0.7792000000000598
278,27,0.6,0.125,35.0,1,1.0,0.3885000000001355
279,27,0.5,1.0,-35.0,1,0.0,0.4076999999999771
280,27,0.5,0.25,-35.0,-1,1.0,0.30569999999988795
281,27,0.5,0.0,-35.0,1,0.0,0.5202000000000453
282,27,0.5,0.125,-35.0,-1,1.0,0.6924000000000206
283,27,0.5,1.0,-35.0,-1,1.0,0.26700000000005275
284,27,0.5,0.125,-35.0,-1,1.0,0.5335999999999785
285,27,0.5,0.125,35.0,1,1.0,0.41219999999998436
286,27,0.5,0.0625,-35.0,-1,1.0,0.39170000000001437
287,27,0.5,1.0,35.0,1,1.0,0.4335000000000946
288,27,0.5,0.125,-35.0,-1,1.0,0.586400000000026
289,27,0.5,0.25,-35.0,-1,1.0,0.6299999999999955
290,27,0.5,0.125,35.0,1,1.0,0.26319999999998345
291,27,0.5,0.125,-35.0,-1,1.0,0.3967000000000098
292,27,0.5,1.0,35.0,1,1.0,0.27350000000001273
293,27,0.5,1.0,-35.0,-1,1.0,0.313199999999938
294,27,0.5,0.125,-35.0,-1,1.0,0.29330000000004475
295,27,0.5,0.0625,-35.0,1,0.0,0.44000000000005457
296,27,0.5,0.125,35.0,1,1.0,0.37689999999975043
297,27,0.5,1.0,-35.0,-1,1.0,0.28009999999972024
298,27,0.5,0.0,-35.0,-1,1.0,0.7333999999998468
299,27,0.5,0.25,35.0,1,1.0,0.26339999999981956
300,27,0.5,1.0,-35.0,-1,1.0,0.2236000000000331
301,27,0.5,1.0,35.0,1,1.0,0.2436999999999898
302,27,0.5,1.0,-35.0,-1,1.0,0.34379999999987376
303,27,0.5,1.0,35.0,1,1.0,0.3571999999999207
304,27,0.5,0.0,-35.0,1,0.0,0.4334999999998672
305,27,0.5,0.125,35.0,1,1.0,0.34359999999992397
306,27,0.5,0.0625,-35.0,-1,1.0,0.5537999999999101
307,27,0.5,0.25,-35.0,-1,1.0,0.4373000000000502
308,27,0.5,0.0625,-35.0,-1,1.0,0.327199999999948
309,27,0.5,0.25,35.0,-1,0.0,0.5172999999999774
310,27,0.5,0.0,35.0,1,1.0,0.41429999999991196
311,27,0.5,1.0,35.0,1,1.0,0.25720000000001164
312,27,0.5,0.25,35.0,1,1.0,0.29749999999989996
313,27,0.5,0.25,-35.0,-1,1.0,0.5243999999997868
314,27,0.5,0.0,35.0,1,1.0,0.38419999999996435
315,27,0.5,0.25,35.0,1,1.0,0.30419999999980973
316,27,0.5,1.0,35.0,1,1.0,0.2643000000000484
317,27,0.5,0.125,35.0,1,1.0,0.24759999999992033
318,27,0.5,0.0625,35.0,1,1.0,0.4443999999998596
319,27,0.5,0.0,-35.0,1,0.0,0.3912999999997737
320,27,0.5,0.0,35.0,1,1.0,0.3611000000000786
321,27,0.5,0.25,-35.0,-1,1.0,0.41129999999975553
322,27,0.5,0.0625,-35.0,-1,1.0,0.38449999999988904
323,27,0.5,0.0625,-35.0,1,0.0,0.3713999999999942
324,27,0.5,0.25,-35.0,-1,1.0,0.2514000000001033
325,27,0.5,0.0625,35.0,1,1.0,0.35809999999992215
326,27,0.5,0.25,35.0,1,1.0,0.42449999999985266
327,27,0.5,0.25,35.0,1,1.0,0.3148999999998523
328,27,0.5,0.0625,-35.0,-1,1.0,0.514699999999948
329,27,0.5,0.0625,35.0,1,1.0,0.3182999999999083
330,27,0.5,0.0625,-35.0,-1,1.0,0.4615999999998621
331,27,0.5,0.25,-35.0,-1,1.0,0.4783999999999651
332,27,0.5,0.125,-35.0,1,0.0,0.40170000000011896
333,27,0.5,0.0625,-35.0,-1,1.0,0.48529999999982465
334,27,0.5,0.0625,35.0,1,1.0,0.3951999999999316
335,27,0.5,0.125,35.0,1,1.0,0.4053999999998723
336,27,0.5,0.0625,-35.0,-1,1.0,0.4417999999998301
337,27,0.5,0.125,-35.0,-1,1.0,0.5718999999999141
338,27,0.5,0.25,-35.0,-1,1.0,0.715099999999893
339,27,0.5,0.0,35.0,1,1.0,0.35179999999991196
340,27,0.5,0.125,-35.0,1,0.0,0.4155000000000655
341,27,0.5,0.0625,-35.0,-1,1.0,0.40850000000000364
342,27,0.5,0.0625,-35.0,1,0.0,0.3987999999999374
343,27,0.5,0.125,-35.0,-1,1.0,0.2856000000001586
344,27,0.5,0.125,35.0,1,1.0,0.3454999999996744
345,27,0.5,0.125,-35.0,-1,1.0,0.5489000000000033
346,27,0.5,1.0,-35.0,-1,1.0,0.2622999999998683
347,27,0.5,1.0,35.0,1,1.0,0.26559999999972206
348,27,0.5,0.0,35.0,1,1.0,0.35560000000009495
349,27,0.5,0.25,35.0,1,1.0,0.28569999999990614
350,27,0.5,1.0,-35.0,-1,1.0,0.23579999999969914
351,27,0.5,1.0,-35.0,-1,1.0,0.34920000000010987
352,27,0.5,0.125,35.0,1,1.0,0.3625999999999294
353,27,0.5,0.125,-35.0,-1,1.0,0.2623999999998432
354,27,0.5,0.25,35.0,1,1.0,0.36599999999998545
355,27,0.5,1.0,35.0,1,1.0,0.256099999999833
356,27,0.5,0.25,-35.0,-1,1.0,0.3025000000000091
357,27,0.5,0.0625,-35.0,-1,1.0,0.6027999999998883
358,27,0.5,0.125,35.0,1,1.0,0.3628000000001066
359,27,0.5,0.0625,35.0,1,1.0,0.42269999999984975
360,27,0.5,0.25,35.0,1,1.0,0.3630999999998039
361,27,0.5,0.125,35.0,1,1.0,0.2665999999999258
362,27,0.5,1.0,-35.0,-1,1.0,0.31969999999978427
363,27,0.5,0.0,35.0,1,1.0,0.34639999999990323
364,27,0.5,0.0,35.0,-1,0.0,0.5596999999997934
365,27,0.5,0.0,35.0,1,1.0,0.35979999999995016
366,27,0.5,0.0625,35.0,1,1.0,0.3396999999997661
367,27,0.5,0.25,35.0,1,1.0,0.27319999999986067
368,27,0.5,0.0,-35.0,1,0.0,0.3467000000000553
369,27,0.8,0.0,35.0,-1,0.0,0.693299999999681
370,27,0.5,1.0,-35.0,-1,1.0,0.24989999999979773
371,27,0.5,0.25,-35.0,-1,1.0,0.3934999999999036
372,27,0.5,1.0,35.0,1,1.0,0.36009999999987485
373,27,0.5,0.125,35.0,1,1.0,0.356899999999996
374,27,0.5,1.0,35.0,1,1.0,0.3202000000001135
375,27,0.5,0.0,35.0,1,1.0,0.36989999999991596
376,27,0.5,0.0625,-35.0,1,0.0,0.36679999999978463
377,27,0.5,0.0,35.0,1,1.0,0.44059999999990396
378,27,0.5,0.0625,-35.0,-1,1.0,0.32379999999989195
379,27,0.5,0.125,-35.0,-1,1.0,0.33059999999977663
380,27,0.5,1.0,35.0,1,1.0,0.25710000000003674
381,27,0.5,0.0625,35.0,1,1.0,0.35369999999988977
382,27,0.5,0.25,-35.0,-1,1.0,0.3270999999999731
383,27,0.5,0.0625,-35.0,-1,1.0,0.5773999999998978
384,27,0.5,0.125,-35.0,-1,1.0,0.4540999999999258
385,27,0.5,0.25,-35.0,-1,1.0,0.29399999999986903
386,27,0.5,1.0,35.0,1,1.0,0.31379999999990105
387,27,0.5,1.0,-35.0,-1,1.0,0.23739999999975225
388,27,0.5,1.0,35.0,1,1.0,0.2638999999999214
389,27,0.5,0.0625,35.0,1,1.0,0.37059999999974025
390,27,0.5,0.0625,35.0,1,1.0,0.3472999999999047
391,27,0.5,0.25,35.0,1,1.0,0.28730000000018663
392,27,0.5,1.0,35.0,1,1.0,0.2878000000000611
393,27,0.5,0.25,35.0,1,1.0,0.3508999999999105
394,27,0.5,0.0625,35.0,1,1.0,0.3409999999998945
395,27,0.5,0.0625,-35.0,-1,1.0,0.36789999999996326
396,27,0.5,0.125,-35.0,-1,1.0,0.464799999999741
397,27,0.5,1.0,-35.0,-1,1.0,0.2747999999999138
398,27,0.5,0.125,35.0,1,1.0,0.34130000000004657
399,27,0.5,1.0,-35.0,-1,1.0,0.22769999999991342
400,27,0.5,0.0625,-35.0,-1,1.0,0.6178999999999633
401,27,0.5,1.0,-35.0,-1,1.0,0.3148999999998523
402,27,0.5,0.0,35.0,1,1.0,0.5147999999999229
403,27,0.5,0.0625,35.0,1,1.0,0.5312999999998738
404,27,0.5,0.0,-35.0,-1,1.0,1.0478999999997995
405,27,0.5,0.0,-35.0,1,0.0,0.37789999999995416
406,27,0.5,0.125,35.0,1,1.0,0.26809999999977663
407,27,0.5,0.125,35.0,1,1.0,0.34819999999990614
408,27,0.5,0.0,-35.0,1,0.0,0.35819999999989705
409,27,0.5,0.25,35.0,1,1.0,0.3548000000000684
410,27,0.5,0.0625,35.0,1,1.0,0.5913999999997941
411,27,0.5,1.0,-35.0,-1,1.0,0.24189999999975953
412,27,0.5,0.0,-35.0,1,0.0,0.378400000000056
413,27,0.5,0.0625,-35.0,-1,1.0,0.5017999999997755
414,27,0.5,0.0625,35.0,1,1.0,0.5286999999998443
415,27,0.5,0.25,35.0,1,1.0,0.33199999999987995
416,27,0.5,0.25,-35.0,-1,1.0,0.28510000000005675
417,27,0.5,1.0,-35.0,-1,1.0,0.2518999999999778
418,27,0.5,0.0625,35.0,1,1.0,0.29520000000002256
419,27,0.5,0.0625,-35.0,-1,1.0,0.5354999999999563
420,27,0.5,0.0625,35.0,1,1.0,0.4154999999998381
421,27,0.5,0.0,-35.0,-1,1.0,0.5820999999998548
422,27,0.5,0.0625,-35.0,1,0.0,0.9419999999997799
423,27,0.5,0.0625,35.0,1,1.0,0.31239999999979773
424,27,0.5,0.0625,35.0,1,1.0,0.3791999999998552
425,27,0.5,0.125,-35.0,1,0.0,0.36230000000000473
426,27,0.6,0.125,-35.0,-1,1.0,0.3691999999998643
427,27,0.5,1.0,-35.0,-1,1.0,0.2593000000001666
428,27,0.5,0.25,35.0,1,1.0,0.6993999999999687
429,27,0.5,1.0,35.0,1,1.0,0.33609999999998763
430,27,0.5,1.0,-35.0,-1,1.0,0.34600000000000364
431,27,0.5,0.25,-35.0,-1,1.0,0.2590999999997621
432,27,0.5,0.125,-35.0,-1,1.0,0.30619999999976244
433,27,0.5,0.25,35.0,1,1.0,0.33619999999996253
434,27,0.5,1.0,35.0,1,1.0,0.256099999999833
435,27,0.5,0.0625,35.0,1,1.0,0.34960000000000946
436,27,0.5,1.0,35.0,1,1.0,0.2361999999998261
437,27,0.5,0.125,-35.0,-1,1.0,0.46319999999991524
438,27,0.5,1.0,-35.0,-1,1.0,0.2828999999996995
439,27,0.5,0.25,-35.0,-1,1.0,0.27309999999988577
440,27,0.5,0.125,-35.0,-1,1.0,0.5196999999998297
441,27,0.5,0.0625,-35.0,-1,1.0,0.5029999999999291
442,27,0.5,0.125,35.0,1,1.0,0.343199999999797
443,27,0.5,0.0625,-35.0,-1,1.0,0.43319999999971515
444,27,0.5,0.125,35.0,1,1.0,0.5000999999999749
445,27,0.5,1.0,35.0,1,1.0,0.4298999999998614
446,27,0.5,0.0,-35.0,-1,1.0,0.8265000000001237
447,27,0.5,0.25,35.0,1,1.0,0.34339999999997417
448,27,0.5,0.0625,-35.0,-1,1.0,0.27379999999971005
449,27,0.5,0.0625,35.0,-1,0.0,0.5300999999999476
450,27,0.4,0.0625,35.0,1,1.0,0.38019999999983156
451,27,0.5,1.0,-35.0,-1,1.0,0.4137000000000626
452,27,0.5,0.25,-35.0,-1,1.0,0.2602999999996882
453,27,0.5,0.0625,-35.0,1,0.0,0.3571999999999207
454,27,0.5,0.125,-35.0,-1,1.0,0.38699999999971624
455,27,0.5,0.125,35.0,1,1.0,0.3602000000000771
456,27,0.5,0.0625,-35.0,-1,1.0,0.4937999999999647
457,27,0.5,0.25,35.0,1,1.0,0.3006999999997788
458,27,0.5,0.25,35.0,1,1.0,0.6204000000000178
459,27,0.5,0.0625,-35.0,1,0.0,0.38419999999996435
460,27,0.5,0.25,35.0,1,1.0,0.5941999999997734
461,27,0.5,0.0625,35.0,1,1.0,0.39729999999963184
462,27,0.5,1.0,-35.0,-1,1.0,0.36409999999978027
463,27,0.5,1.0,-35.0,-1,1.0,0.39409999999998035
464,27,0.5,0.125,35.0,1,1.0,0.3307999999999538
465,27,0.5,0.125,35.0,1,1.0,0.28089999999997417
466,27,0.5,0.25,35.0,1,1.0,0.32759999999984757
467,27,0.5,0.125,-35.0,-1,1.0,0.28099999999994907
468,27,0.5,0.0,-35.0,1,0.0,0.3976999999999862
469,27,0.5,0.125,-35.0,-1,1.0,0.3977999999999611
470,27,0.5,1.0,35.0,1,1.0,0.27909999999997126
471,27,0.5,0.125,-35.0,-1,1.0,0.3944999999996526
472,27,0.5,0.0625,-35.0,1,0.0,0.4945999999997639
473,27,0.6,0.0625,-35.0,-1,1.0,0.41460000000006403
474,27,0.5,1.0,-35.0,-1,1.0,0.26139999999986685
475,27,0.5,0.0625,35.0,1,1.0,0.2415000000000873
476,27,0.5,0.0,-35.0,1,0.0,2.13149999999996
477,27,0.5,0.125,35.0,1,1.0,0.341499999999769
478,27,0.5,0.0625,35.0,1,1.0,0.5317000000000007
479,27,0.5,1.0,35.0,1,1.0,0.3617999999996755
480,27,0.5,1.0,-35.0,-1,1.0,0.2785999999998694
481,27,0.5,0.25,-35.0,-1,1.0,0.2884999999998854
482,27,0.5,0.25,-35.0,-1,1.0,0.2783999999999196
483,27,0.5,0.0625,35.0,1,1.0,0.3350999999997839
484,27,0.5,1.0,35.0,1,1.0,0.29189999999994143
485,27,0.5,0.25,-35.0,-1,1.0,0.2518999999999778
486,27,0.5,0.125,-35.0,1,0.0,0.3952999999999065
487,27,0.6,0.125,35.0,1,1.0,0.24890000000004875
488,27,0.5,1.0,35.0,1,1.0,0.27539999999976317
489,27,0.5,0.125,-35.0,-1,1.0,0.338799999999992
490,27,0.5,0.0625,-35.0,-1,1.0,0.40889999999990323
491,27,0.5,0.25,-35.0,-1,1.0,0.3224999999999909
492,27,0.5,1.0,-35.0,-1,1.0,0.2419999999999618
493,27,0.5,0.25,-35.0,-1,1.0,0.44229999999993197
494,27,0.5,0.25,-35.0,-1,1.0,0.25900000000001455
495,27,0.5,0.0,-35.0,-1,1.0,0.5256999999999152
496,27,0.5,0.0625,-35.0,-1,1.0,0.475800000000163
497,27,0.5,0.25,35.0,1,1.0,0.3591000000001259
498,27,0.5,0.125,-35.0,-1,1.0,0.26579999999989923
499,27,0.5,0.125,-35.0,-1,1.0,0.515999999999849
500,27,0.5,0.25,35.0,1,1.0,0.38590000000021973
501,27,0.5,0.125,35.0,1,1.0,3.7192999999999756
502,27,0.5,0.0,35.0,1,1.0,0.43279999999981555
503,27,0.5,0.125,-35.0,-1,1.0,0.3294999999998254
504,27,0.5,0.0625,-35.0,1,0.0,0.44280000000003383
505,27,0.5,0.0625,-35.0,1,0.0,0.48289999999997235
506,27,0.5,1.0,35.0,1,1.0,0.26959999999985484
507,27,0.5,0.0625,-35.0,-1,1.0,0.7163999999997941
508,27,0.5,1.0,-35.0,-1,1.0,0.07769999999982247
509,27,0.5,0.125,-35.0,-1,1.0,0.47640000000001237
510,27,0.5,0.0625,-35.0,-1,1.0,0.4197999999998956
511,27,0.5,0.0625,-35.0,-1,1.0,0.3632999999999811
512,27,0.5,0.0625,35.0,1,1.0,0.3631999999997788
513,27,0.5,1.0,35.0,1,1.0,0.2699000000000069
514,27,0.5,0.0625,-35.0,-1,1.0,0.4312999999999647
515,27,0.5,0.25,35.0,1,1.0,0.11189999999987776
516,27,0.5,0.25,35.0,1,1.0,0.4966999999999189
517,27,0.5,0.125,35.0,1,1.0,0.34339999999997417
518,27,0.5,0.125,-35.0,-1,1.0,0.5933999999999742
519,27,0.5,0.125,-35.0,-1,1.0,0.6368999999999687
520,27,0.5,0.0625,-35.0,-1,1.0,0.8101999999998952
521,27,0.5,0.0,35.0,-1,0.0,0.6536999999998443
522,27,0.5,0.25,-35.0,-1,1.0,0.3170999999999822
523,27,0.5,1.0,35.0,1,1.0,0.43709999999987303
524,27,0.5,0.125,-35.0,-1,1.0,0.27710000000001855
525,27,0.5,0.25,35.0,1,1.0,0.22519999999985885
526,27,0.5,1.0,35.0,1,1.0,0.26060000000006767
527,27,0.5,1.0,-35.0,-1,1.0,0.2505999999998494
528,27,0.5,0.0625,-35.0,1,0.0,0.3975999999997839
529,27,0.5,0.25,-35.0,-1,1.0,0.45079999999984466
530,27,0.5,1.0,35.0,1,1.0,0.3242999999999938
531,27,0.5,0.0625,35.0,1,1.0,0.34400000000005093
532,27,0.5,1.0,35.0,1,1.0,0.2743999999997868
533,27,0.5,0.25,-35.0,-1,1.0,0.37409999999977117
534,27,0.5,0.125,-35.0,-1,1.0,0.300899999999956
535,27,0.5,0.25,-35.0,-1,1.0,0.4677999999998974
536,27,0.5,1.0,35.0,1,1.0,0.46119999999996253
537,27,0.5,0.0625,-35.0,-1,1.0,0.43099999999981264
538,27,0.5,1.0,-35.0,-1,1.0,0.25759999999991123
539,27,0.5,0.125,-35.0,-1,1.0,0.44479999999998654
540,27,0.5,0.125,35.0,-1,0.0,0.6076000000000477
541,27,0.5,0.125,35.0,1,1.0,0.45479999999997744
542,27,0.5,0.25,-35.0,-1,1.0,0.4046000000000731
543,27,0.5,1.0,35.0,1,1.0,0.33130000000005566
544,27,0.5,0.125,-35.0,-1,1.0,0.5046999999999571
545,27,0.5,0.125,35.0,1,1.0,0.6880999999998494
546,27,0.5,0.0,35.0,1,1.0,0.36169999999992797
547,27,0.5,1.0,-35.0,-1,1.0,0.2380999999998039
548,27,0.5,0.125,35.0,1,1.0,0.3350999999997839
549,27,0.5,0.0625,-35.0,-1,1.0,0.4179999999998927
550,27,0.5,0.0,35.0,-1,0.0,2.834799999999632
551,27,0.5,0.0625,-35.0,-1,1.0,0.40850000000000364
552,27,0.5,1.0,-35.0,-1,1.0,0.32179999999993925
553,27,0.5,1.0,35.0,1,1.0,0.3653999999999087
554,27,0.5,0.0,-35.0,1,0.0,0.5386999999998352
555,27,0.5,0.0625,35.0,1,1.0,0.3520999999996093
556,27,0.5,0.25,-35.0,-1,1.0,0.3751999999999498
557,27,0.5,0.0625,35.0,1,1.0,0.30199999999990723
558,27,0.5,1.0,35.0,1,1.0,0.2823000000000775
559,27,0.5,0.0625,35.0,1,1.0,0.3523000000000138
560,27,0.5,0.0625,-35.0,-1,1.0,0.48879999999985557
561,27,0.5,0.125,35.0,1,1.0,0.27530000000001564
562,27,0.5,0.125,-35.0,-1,1.0,0.2584999999999127
563,27,0.5,0.25,35.0,1,1.0,0.278999999999769
564,27,0.5,0.0625,35.0,-1,0.0,0.5121999999998934
565,27,0.5,0.0625,35.0,1,1.0,0.3789999999999054
566,27,0.5,0.25,-35.0,-1,1.0,0.2422999999998865
567,27,0.5,0.125,35.0,1,1.0,0.27579999999989013
568,27,0.5,0.0625,35.0,1,1.0,0.429100999999946
569,27,0.5,0.0625,35.0,1,1.0,0.3725010000000566
570,27,0.5,0.0625,35.0,1,1.0,0.38600099999985105
571,27,0.5,0.25,-35.0,-1,1.0,0.3861010000000533
572,27,0.5,0.0625,35.0,1,1.0,0.3361009999998714
573,27,0.5,0.0625,35.0,1,1.0,0.37610099999983504
574,27,0.5,1.0,-35.0,-1,1.0,0.28260099999988597
575,27,0.5,0.125,35.0,1,1.0,0.3962010000000191
576,27,0.5,1.0,35.0,1,1.0,0.3200010000000475
577,27,0.5,0.125,-35.0,1,0.0,3.9395010000002912
578,27,0.5,0.0625,35.0,1,1.0,0.5230009999995673
579,27,0.5,0.25,35.0,1,1.0,0.29980099999966114
580,27,0.5,1.0,-35.0,-1,1.0,0.3398010000000795
581,27,0.5,0.0,35.0,1,1.0,0.39000099999975646
582,27,0.5,1.0,-35.0,-1,1.0,0.2763009999998758
583,27,0.5,0.25,35.0,1,1.0,0.2799009999998816
584,27,0.5,1.0,35.0,1,1.0,0.24320100000022649
585,27,0.5,0.0625,35.0,1,1.0,0.33650099999931626
586,27,0.5,0.25,-35.0,-1,1.0,0.46670099999982995
587,27,0.5,0.25,-35.0,-1,1.0,0.27330099999971935
588,27,0.5,0.25,35.0,1,1.0,0.3435010000002876
589,27,0.5,0.0625,35.0,1,1.0,0.41670099999964805
590,27,0.5,1.0,35.0,1,1.0,0.386801000000105
591,27,0.5,0.25,-35.0,-1,1.0,0.2702009999998154
592,27,0.5,0.125,-35.0,-1,1.0,0.28360099999963495
593,27,0.5,1.0,-35.0,-1,1.0,0.43030099999987215
594,27,0.5,1.0,-35.0,-1,1.0,0.2538009999998394
595,27,0.5,0.0625,35.0,1,1.0,0.3070009999996728
596,27,0.5,0.0625,35.0,1,1.0,0.2571010000001479
597,27,0.5,0.0,35.0,-1,0.0,0.5671009999996386
598,27,0.5,0.25,35.0,1,1.0,0.2607010000001537
599,27,0.5,0.0625,-35.0,1,0.0,0.36050099999965823
600,27,0.5,0.25,-35.0,-1,1.0,0.47720099999969534
601,27,0.5,0.0625,-35.0,1,0.0,0.5541010000001734
602,27,0.5,0.125,35.0,1,1.0,0.2943009999999049
603,27,0.5,1.0,-35.0,-1,1.0,0.3141009999999369
604,27,0.5,0.0,-35.0,-1,1.0,0.6544009999997797
605,27,0.5,0.25,35.0,1,1.0,0.3443010000000868
606,27,0.5,0.0625,35.0,1,1.0,0.3143009999998867
607,27,0.5,0.25,-35.0,-1,1.0,0.2643009999997048
608,27,0.5,0.0,-35.0,1,0.0,0.401100999999926
609,27,0.5,0.125,35.0,1,1.0,0.26780099999950835
610,27,0.5,0.0,-35.0,-1,1.0,2.464400999999725
611,27,0.5,0.0625,-35.0,-1,1.0,0.5076010000002498
612,27,0.5,0.25,-35.0,-1,1.0,0.2647009999996044
613,27,0.5,0.0625,35.0,1,1.0,0.34120100000018283
614,27,0.5,0.0,35.0,1,1.0,0.39150100000006205
615,27,0.5,1.0,35.0,1,1.0,0.23460099999965678
616,27,0.5,0.0625,-35.0,-1,1.0,0.5214009999999689
617,27,0.5,0.0,35.0,1,1.0,0.37160099999982776
618,27,0.5,1.0,-35.0,-1,1.0,0.30140099999971426
619,27,0.5,1.0,35.0,1,1.0,0.26140099999975064
620,27,0.5,1.0,35.0,1,1.0,0.3019009999998161
621,27,0.5,0.0625,35.0,-1,0.0,0.27170099999966624
622,27,0.5,0.0625,-35.0,-1,1.0,0.26160099999970043
623,27,0.5,0.25,35.0,1,1.0,0.275101000000177
624,27,0.5,0.25,-35.0,-1,1.0,0.2785009999997783
625,27,0.5,0.25,35.0,1,1.0,0.36190099999976155
626,27,0.5,1.0,-35.0,-1,1.0,0.08000099999981103
627,27,0.5,0.25,35.0,1,1.0,0.7353009999997084
628,27,0.5,0.0,-35.0,1,0.0,0.3653010000002723
629,27,0.5,0.25,-35.0,-1,1.0,0.24860099999978047
630,27,0.5,1.0,-35.0,-1,1.0,0.27210099999956583
631,27,0.5,1.0,-35.0,-1,1.0,0.2622009999995498
632,27,0.5,0.125,-35.0,-1,1.0,0.7856010000000424
633,27,0.5,1.0,35.0,1,1.0,0.25900099999989834
634,27,0.5,0.25,-35.0,-1,1.0,0.39560100000016973
635,27,0.5,0.0625,35.0,-1,0.0,0.7889010000003509
636,27,0.5,0.125,35.0,1,1.0,0.24560100000007878
637,27,0.5,0.0625,-35.0,1,0.0,0.42260099999975864
638,27,0.5,0.25,-35.0,-1,1.0,0.31600099999968734
639,27,0.5,0.125,-35.0,-1,1.0,0.3460009999998874
640,27,0.5,0.0625,-35.0,-1,1.0,0.3593010000004142
641,27,0.5,0.125,35.0,1,1.0,0.36270099999956074
642,27,0.5,0.125,35.0,1,1.0,0.33930099999997765
643,27,0.5,0.25,-35.0,-1,1.0,0.28610100000014427
644,27,0.5,0.125,-35.0,-1,1.0,0.36640099999976883
645,27,0.5,0.0625,35.0,1,1.0,0.5660009999996873
646,27,0.5,0.0,35.0,-1,0.0,0.28970099999969534
647,27,0.5,0.125,-35.0,-1,1.0,0.7096010000000206
648,27,0.5,1.0,35.0,1,1.0,0.3696009999994203
649,27,0.5,0.25,35.0,1,1.0,0.32350099999985105
650,27,0.5,0.125,35.0,-1,0.0,0.6196009999998751
651,27,0.5,0.0625,35.0,1,1.0,0.3333009999996648
652,27,0.5,1.0,35.0,1,1.0,0.3135010000000875
653,27,0.5,0.0,-35.0,1,0.0,0.4700009999996837
654,27,0.5,0.0,35.0,1,1.0,0.39020099999970626
655,27,0.5,0.125,-35.0,-1,1.0,0.2935010000001057
656,27,0.5,0.125,-35.0,-1,1.0,0.4033009999998285
657,27,0.5,0.125,35.0,1,1.0,0.2901010000000497
658,27,0.5,1.0,35.0,1,1.0,0.40660099999968224
659,27,0.5,0.25,35.0,1,1.0,0.24030099999981758
660,27,0.5,0.25,35.0,1,1.0,0.2601009999998496
661,27,0.5,1.0,-35.0,-1,1.0,0.38340100000004895
662,27,0.5,1.0,35.0,1,1.0,0.26680099999975937
663,27,0.5,0.0625,-35.0,-1,1.0,0.6537010000001828
664,27,0.5,0.25,35.0,1,1.0,0.3604009999999107
665,27,0.5,0.0,-35.0,-1,1.0,0.5039009999995869
666,27,0.5,1.0,-35.0,-1,1.0,0.26760100000046805
667,27,0.5,0.0625,-35.0,1,0.0,0.37050099999942177
668,27,0.5,0.25,35.0,1,1.0,0.2606010000004062
669,27,0.5,0.125,35.0,1,1.0,0.2806009999994785
670,27,0.5,0.125,-35.0,-1,1.0,0.6275009999999384
671,27,0.5,0.125,-35.0,-1,1.0,0.2606010000004062
672,27,0.5,0.125,-35.0,-1,1.0,0.4142010000000482
673,27,0.5,0.0625,-35.0,-1,1.0,0.27070099999991726
674,27,0.5,0.0625,35.0,1,1.0,0.3843010000000504
675,27,0.5,0.0625,-35.0,-1,1.0,0.30110100000001694
676,27,0.5,0.125,35.0,1,1.0,0.3442009999998845
677,27,0.5,0.25,-35.0,-1,1.0,0.4707010000001901
678,27,0.5,0.0,35.0,1,1.0,0.3710009999999784
679,27,0.5,0.25,-35.0,-1,1.0,0.4312009999998736
680,27,0.5,0.25,35.0,1,1.0,0.29780099999970844
681,27,0.5,0.0,35.0,1,1.0,0.3809009999999944
682,27,0.5,0.25,-35.0,-1,1.0,0.2417009999999209
683,27,0.5,0.25,-35.0,-1,1.0,0.3348009999999704
684,27,0.5,0.0625,-35.0,-1,1.0,0.4781009999996968
685,27,0.5,0.0625,-35.0,1,0.0,0.5780010000003131
686,27,0.5,0.0,-35.0,1,0.0,0.4718009999996866
687,27,0.5,0.125,35.0,1,1.0,0.38180099999999584
688,27,0.5,0.0,35.0,-1,0.0,0.7483010000000831
689,27,0.5,0.25,35.0,1,1.0,0.39190099999996164
690,27,0.5,0.0,-35.0,-1,1.0,0.5218009999998685
691,27,0.5,0.25,-35.0,-1,1.0,0.2450010000002294
692,27,0.5,0.125,35.0,1,1.0,0.42180099999995946
693,27,0.5,0.25,35.0,-1,0.0,0.4385010000000875
694,27,0.5,0.0625,35.0,1,1.0,0.24870099999998274
695,27,0.5,0.0,-35.0,1,0.0,0.5158010000000104
696,27,0.5,0.25,-35.0,-1,1.0,0.2522009999997863
697,27,0.5,1.0,-35.0,-1,1.0,0.23890099999971426
698,27,0.5,0.25,-35.0,-1,1.0,0.35540099999980157
699,27,0.5,0.25,-35.0,-1,1.0,0.22210099999983868
700,27,0.5,0.25,-35.0,-1,1.0,0.33890100000007806
701,27,0.5,0.125,35.0,1,1.0,0.2692010000000664
702,27,0.5,0.0,35.0,-1,0.0,0.3723009999998794
703,27,0.3,0.0,35.0,1,1.0,0.4259009999996124
704,27,0.5,1.0,35.0,1,1.0,0.2656010000000606
705,27,0.5,0.0625,35.0,1,1.0,0.3126009999996313
706,27,0.5,0.0625,-35.0,-1,1.0,0.25920099999984814
707,27,0.5,1.0,-35.0,-1,1.0,0.25250099999993836
708,27,0.5,0.0,35.0,-1,0.0,0.23960099999976592
709,27,0.5,0.0625,-35.0,-1,1.0,0.5061009999999442
710,27,0.5,0.25,-35.0,-1,1.0,0.25940099999979793
711,27,0.5,0.0625,-35.0,-1,1.0,0.6730009999996582
712,27,0.5,0.0,-35.0,1,0.0,0.42590100000006714
713,27,0.5,0.25,35.0,1,1.0,0.33610099999941667
714,27,0.5,0.0625,-35.0,-1,1.0,0.47630100000014863
715,27,0.5,0.125,35.0,1,1.0,0.3297010000001137
716,27,0.5,0.125,-35.0,-1,1.0,0.3029009999995651
717,27,0.5,0.125,35.0,-1,0.0,0.4596010000000206
718,27,0.5,0.25,35.0,1,1.0,0.3164010000000417
719,27,0.5,0.25,35.0,-1,0.0,0.6565010000003895
720,27,0.5,0.0,35.0,1,1.0,0.37650099999973463
721,27,0.5,0.25,-35.0,-1,1.0,0.23660099999960948
722,27,0.5,0.0625,35.0,1,1.0,0.33010100000046805
723,27,0.5,0.0625,35.0,1,1.0,0.38010099999974045
724,27,0.5,0.0,35.0,-1,0.0,0.4634009999999762
725,27,0.5,0.0625,-35.0,-1,1.0,0.3804009999998925
726,27,0.5,0.25,35.0,1,1.0,0.3136010000002898
727,27,0.5,1.0,-35.0,-1,1.0,0.23380100000031234
728,27,0.5,0.0625,-35.0,1,0.0,0.3903009999999085
729,27,0.5,0.0625,-35.0,1,0.0,3.4205009999996037
730,27,0.5,1.0,-35.0,-1,1.0,0.3903009999999085
731,27,0.5,0.0,35.0,1,1.0,0.48390100000005987
732,27,0.5,1.0,35.0,1,1.0,0.3505009999998947
733,27,0.5,1.0,-35.0,-1,1.0,0.24420099999997547
734,27,0.5,0.125,-35.0,-1,1.0,0.2672010000001137
735,27,0.5,0.0625,35.0,1,1.0,0.4208010000002105
736,27,0.5,0.25,35.0,1,1.0,0.3142009999996844
737,27,0.5,0.125,-35.0,-1,1.0,0.2674010000000635
738,27,0.5,1.0,35.0,1,1.0,0.69070099999999
739,27,0.5,1.0,-35.0,-1,1.0,0.4041010000000824
740,27,0.5,0.0625,35.0,1,1.0,0.37750099999993836
741,27,0.5,1.0,35.0,1,1.0,0.2578009999997448
742,27,0.5,1.0,-35.0,-1,1.0,0.26430100000015955
743,27,0.5,1.0,35.0,1,1.0,0.2976010000002134
744,27,0.5,0.25,-35.0,1,0.0,0.37120099999992817
745,27,0.7,0.25,-35.0,-1,1.0,0.5411009999997987
746,27,0.5,1.0,-35.0,-1,1.0,0.2579009999999471
747,27,0.5,0.25,-35.0,-1,1.0,0.2712009999995644
748,27,0.5,1.0,-35.0,-1,1.0,0.2614010000002054
749,27,0.5,1.0,35.0,1,1.0,0.2545010000003458
750,27,0.5,0.0625,-35.0,-1,1.0,0.2882009999998445
751,27,0.5,0.0,35.0,1,1.0,0.32810099999960585
752,27,0.5,1.0,35.0,1,1.0,0.37840099999948507
753,27,0.5,0.125,35.0,1,1.0,0.3817010000002483
754,27,0.5,0.0625,-35.0,-1,1.0,0.29500099999995655
755,27,0.5,0.25,-35.0,-1,1.0,0.2517010000001392
756,27,0.5,0.25,35.0,1,1.0,0.41140100000029634
757,27,0.5,0.0625,35.0,1,1.0,0.36490100000037273
758,27,0.5,0.25,-35.0,-1,1.0,0.48520099999950617
759,27,0.5,0.0625,35.0,1,1.0,0.3752009999998336
760,27,0.5,0.25,-35.0,-1,1.0,0.25190100000008897
761,27,0.5,0.25,35.0,1,1.0,0.3220010000000002
762,27,0.5,0.125,35.0,1,1.0,0.38520100000005186
763,27,0.5,0.125,-35.0,-1,1.0,0.22870100000000093
764,27,0.5,0.25,35.0,1,1.0,0.33190099999956146
765,27,0.5,0.125,-35.0,-1,1.0,0.2919010000000526
766,27,0.5,0.0,-35.0,-1,1.0,0.7319009999996524
767,27,0.5,0.125,35.0,1,1.0,0.4620010000003276
768,27,0.5,1.0,35.0,1,1.0,0.2855010000002949
769,27,0.5,0.0,-35.0,1,0.0,0.3954009999997652
770,27,0.5,0.25,-35.0,-1,1.0,0.2490010000001348
771,27,0.5,1.0,-35.0,-1,1.0,0.25880099999994854
772,27,0.5,0.0,-35.0,1,0.0,0.40570100000013554
773,27,0.5,0.0625,35.0,1,1.0,0.2759009999999762
774,27,0.5,0.125,-35.0,-1,1.0,0.2756009999998241
775,27,0.5,0.125,35.0,1,1.0,0.29940099999976155
776,27,0.5,0.125,-35.0,-1,1.0,0.2825009999996837
777,27,0.5,1.0,35.0,1,1.0,0.2593010000000504
778,27,0.5,1.0,-35.0,-1,1.0,0.26620099999991
779,27,0.5,0.0625,-35.0,1,0.0,0.3827009999999973
780,27,0.5,0.0625,35.0,1,1.0,0.28950099999974555
781,27,0.5,0.125,-35.0,-1,1.0,0.7862009999998918
782,27,0.5,0.0625,-35.0,1,0.0,0.352900999999747
783,27,0.5,0.25,35.0,1,1.0,0.3096009999999296
784,27,0.5,0.0,-35.0,1,0.0,0.40970100000004095
785,27,0.5,0.125,-35.0,-1,1.0,0.5397009999996953
786,27,0.5,0.0,-35.0,-1,1.0,0.8464010000002418
787,27,0.5,0.25,35.0,1,1.0,0.3532010000003538
788,27,0.5,0.0,-35.0,-1,1.0,0.2899010000000999
789,27,0.5,0.25,-35.0,-1,1.0,0.26340099999970334
790,27,0.5,0.125,-35.0,-1,1.0,0.5530010000002221
791,27,0.5,0.0,-35.0,-1,1.0,0.7199009999999362
792,27,0.5,1.0,-35.0,-1,1.0,0.2665009999996073
793,27,0.5,0.125,35.0,1,1.0,0.45330099999955564
794,27,0.5,0.25,-35.0,-1,1.0,0.24360099999967133
795,27,0.5,0.125,35.0,1,1.0,0.35000099999979284
796,27,0.5,0.0625,35.0,1,1.0,0.3036010000000715
797,27,0.5,0.25,35.0,1,1.0,0.3101010000000315
798,27,0.5,0.125,-35.0,-1,1.0,0.2572009999994407
799,27,0.5,0.0625,-35.0,-1,1.0,0.2768010000004324
800,27,0.5,0.125,35.0,-1,0.0,0.4639009999996233
801,27,0.5,0.125,-35.0,-1,1.0,0.5005009999999857
802,27,0.5,1.0,35.0,1,1.0,0.2539010000000417
803,27,0.5,0.125,35.0,1,1.0,0.270701000000372
804,27,0.5,0.125,35.0,1,1.0,0.350800999999592
805,27,0.5,0.125,-35.0,-1,1.0,0.4876009999998132
806,27,0.5,0.0,35.0,-1,0.0,0.7274010000000999
807,27,0.5,0.0625,35.0,1,1.0,0.3874010000004091
808,27,0.5,0.0625,35.0,1,1.0,0.37750099999993836
809,27,0.5,0.25,35.0,1,1.0,0.3074010000000271
810,27,0.5,0.25,35.0,1,1.0,0.4839009999996051
811,27,0.5,0.25,-35.0,-1,1.0,0.24760099999957674
812,27,0.5,0.0,-35.0,-1,1.0,0.5746009999998023
813,27,0.5,0.0,35.0,1,1.0,0.3945010000002185
814,27,0.5,1.0,-35.0,-1,1.0,0.31120099999998274
815,27,0.5,1.0,35.0,1,1.0,0.25780100000019956
816,27,0.5,0.0,-35.0,1,0.0,0.3177009999999427
817,27,0.5,0.0625,-35.0,-1,1.0,0.3147009999997863
818,27,0.5,1.0,-35.0,-1,1.0,0.26150099999949816
819,27,0.5,1.0,-35.0,-1,1.0,0.25470099999984086
820,27,0.5,1.0,-35.0,-1,1.0,0.271701000000121
821,27,0.5,0.0625,35.0,1,1.0,0.2683009999996102
822,27,0.5,0.25,35.0,1,1.0,0.37810099999978775
823,27,0.5,0.0625,-35.0,1,0.0,0.44850099999985105
824,27,0.5,0.0625,-35.0,-1,1.0,0.7249010000000453
825,27,0.5,0.125,-35.0,-1,1.0,0.27500099999997474
826,27,0.5,0.0625,-35.0,-1,1.0,0.48510099999975864
827,27,0.5,1.0,-35.0,-1,1.0,0.29500099999995655
828,27,0.5,0.25,-35.0,-1,1.0,0.47170100000039383
829,27,0.5,0.125,35.0,1,1.0,0.3319010000000162
830,27,0.5,1.0,-35.0,-1,1.0,0.38520100000005186
831,27,0.5,0.25,-35.0,-1,1.0,0.25510099999974045
832,27,0.5,1.0,35.0,1,1.0,0.2858009999999922
833,27,0.5,0.25,35.0,1,1.0,0.49860099999978047
834,27,0.5,0.0625,35.0,1,1.0,0.47190100000034363
835,27,0.5,0.25,-35.0,-1,1.0,0.2555010000000948
836,27,0.5,0.25,-35.0,-1,1.0,0.3623010000001159
837,27,0.5,1.0,-35.0,-1,1.0,0.23240100000020902
838,27,0.5,0.125,35.0,1,1.0,0.9921009999998205
839,27,0.5,1.0,35.0,1,1.0,0.3426009999998314
840,27,0.5,0.125,35.0,1,1.0,0.3558010000001559
841,27,0.5,1.0,35.0,1,1.0,0.24580099999957383
842,27,0.5,0.0,-35.0,-1,1.0,0.729200999999648
843,27,0.5,0.0625,35.0,1,1.0,0.3226009999998496
844,27,0.5,0.0625,35.0,1,1.0,0.31600099999968734
845,27,0.5,1.0,-35.0,-1,1.0,0.26260099999990416
846,27,0.5,0.25,35.0,1,1.0,0.4395009999998365
847,27,0.5,0.125,-35.0,-1,1.0,0.31940099999974336
848,27,0.5,0.25,35.0,1,1.0,0.43620099999998274
849,27,0.5,0.125,-35.0,-1,1.0,0.2496009999999842
850,27,0.5,0.0,35.0,1,1.0,0.39970099999982267
851,27,0.5,0.0625,-35.0,-1,1.0,0.773001000000022
852,27,0.5,0.125,35.0,1,1.0,0.3831009999998969
853,27,0.5,1.0,35.0,1,1.0,0.256500999999389
854,27,0.5,0.25,35.0,1,1.0,0.32650099999955273
855,27,0.5,0.0,35.0,1,1.0,0.38980099999980666
856,27,0.5,0.25,-35.0,1,0.0,0.41630099999974846
857,27,0.5,0.25,-35.0,-1,1.0,0.3270009999996546
858,27,0.5,0.125,35.0,1,1.0,0.3299010000000635
859,27,0.5,0.25,-35.0,-1,1.0,0.44000099999993836
860,27,0.5,0.0625,35.0,1,1.0,0.39350100000001476
861,27,0.5,1.0,-35.0,-1,1.0,0.3801010000001952
862,27,0.5,1.0,-35.0,-1,1.0,0.23690099999976155
863,27,0.5,0.0,-35.0,1,0.0,0.41010099999994054
864,27,0.6,0.0,35.0,1,1.0,0.37040099999967424
865,27,0.5,1.0,-35.0,-1,1.0,0.48030100000005405
866,27,0.5,0.0625,-35.0,1,0.0,0.3636009999995622
867,27,0.5,0.125,-35.0,1,0.0,0.42030099999965387
868,27,0.5,0.125,35.0,1,1.0,0.4173009999999522
869,27,0.5,0.0625,-35.0,-1,1.0,0.4441009999995913
870,27,0.5,0.0,-35.0,-1,1.0,1.607300999999552
871,27,0.5,0.0625,35.0,1,1.0,0.344101000000137
872,27,0.5,0.125,-35.0,-1,1.0,0.3509009999997943
873,27,0.5,0.25,35.0,1,1.0,0.3577010000003611
874,27,0.5,0.125,35.0,1,1.0,0.32750099999975646
875,27,0.5,0.125,-35.0,-1,1.0,0.4609009999999216
876,27,0.5,0.125,35.0,1,1.0,0.3810009999997419
877,27,0.5,0.125,-35.0,-1,1.0,0.2743009999999231
878,27,0.5,0.25,-35.0,-1,1.0,0.23100099999965096
879,27,0.5,0.125,35.0,1,1.0,0.324301000000105
880,27,0.5,0.125,-35.0,-1,1.0,0.2614010000002054
881,27,0.5,0.125,35.0,1,1.0,0.2913010000002032
882,27,0.5,0.0625,-35.0,-1,1.0,0.3814009999996415
883,27,0.5,0.0625,-35.0,-1,1.0,0.26790100000016537
884,27,0.5,1.0,-35.0,-1,1.0,0.3645010000000184
885,27,0.5,0.125,-35.0,-1,1.0,0.39510100000006787
886,27,0.5,1.0,35.0,1,1.0,0.29150099999969825
887,27,0.5,1.0,-35.0,-1,1.0,0.2546009999996386
888,27,0.5,1.0,35.0,1,1.0,0.25480100000004313
889,27,0.5,0.125,35.0,1,1.0,0.4151010000000497
890,27,0.5,1.0,35.0,1,1.0,0.24510099999997692
891,27,0.5,0.0625,35.0,1,1.0,0.3551009999996495
892,27,0.5,0.0625,-35.0,-1,1.0,0.2784010000004855
893,27,0.5,1.0,35.0,1,1.0,0.39510100000006787
894,27,0.5,0.0625,35.0,-1,0.0,0.5452009999999063
895,27,0.5,0.25,-35.0,-1,1.0,0.25530099999969025
896,27,0.5,1.0,-35.0,-1,1.0,0.248801000000185
897,27,0.5,0.125,-35.0,-1,1.0,0.248801000000185
898,27,0.5,1.0,35.0,1,1.0,0.2656010000000606
899,27,0.5,0.25,-35.0,-1,1.0,0.5254009999998743
900,27,0.5,0.0625,-35.0,1,0.0,0.5053009999996902
901,27,0.4,0.0625,-35.0,1,0.0,0.3323009999999158
902,27,0.5,1.0,35.0,1,1.0,0.305800999999974
903,27,0.5,0.0625,-35.0,-1,1.0,0.5058009999997921
904,27,0.5,0.125,-35.0,-1,1.0,0.27590099999952145
905,27,0.5,0.25,-35.0,-1,1.0,0.2555010000000948
906,27,0.5,1.0,-35.0,-1,1.0,0.4326009999999769
907,27,0.5,0.0,35.0,1,1.0,0.369300999999723
908,27,0.5,0.125,35.0,1,1.0,0.30270100000007005
909,27,0.5,0.0625,35.0,1,1.0,0.3662010000002738
910,27,0.5,0.25,35.0,-1,0.0,0.4627010000003793
911,27,0.5,0.25,-35.0,-1,1.0,0.5295009999995273
912,27,0.5,1.0,-35.0,-1,1.0,0.2627009999996517
913,27,0.5,0.125,-35.0,-1,1.0,0.37590100000034
914,27,0.5,0.0625,-35.0,-1,1.0,0.3596010000001115
915,27,0.5,0.25,35.0,1,1.0,0.23310100000026068
916,27,0.5,0.125,-35.0,-1,1.0,0.4063009999999849
917,27,0.5,0.0,-35.0,1,0.0,0.3633010000003196
918,27,0.5,0.125,-35.0,-1,1.0,0.49320099999977174
919,27,0.5,1.0,-35.0,-1,1.0,0.3834009999995942
920,27,0.5,0.125,-35.0,-1,1.0,0.43990100000019083
921,27,0.5,1.0,35.0,1,1.0,0.30330099999991944
922,27,0.5,0.0625,35.0,1,1.0,0.3500010000002476
923,27,0.5,0.0625,-35.0,1,0.0,1.1002009999997426
924,27,0.5,0.25,-35.0,-1,1.0,0.290400999999747
925,27,0.5,0.0,35.0,-1,0.0,0.5167010000000118
926,27,0.5,0.0625,-35.0,-1,1.0,0.29050099999994927
927,27,0.5,0.125,35.0,1,1.0,0.7868010000001959
928,27,0.5,0.0,35.0,1,1.0,0.8835009999997965
929,27,0.5,0.25,35.0,1,1.0,0.2505009999995309
930,27,0.5,0.0625,35.0,1,1.0,0.2538009999998394
931,27,0.5,0.25,35.0,1,1.0,0.24380100000007587
932,27,0.5,1.0,35.0,1,1.0,0.34740099999999074
933,27,0.5,0.25,35.0,1,1.0,0.3505009999998947
934,27,0.5,0.0625,-35.0,-1,1.0,0.41050099999984013
935,27,0.5,0.0625,-35.0,-1,1.0,0.5439009999995505
936,27,0.5,1.0,-35.0,-1,1.0,0.26750099999981103
937,27,0.5,0.0625,35.0,1,1.0,0.4173009999999522
938,27,0.5,0.0,-35.0,1,0.0,0.36430099999961385
939,27,0.5,0.25,-35.0,-1,1.0,0.26120099999980084
940,27,0.5,1.0,35.0,1,1.0,0.25440100000014354
941,27,0.5,1.0,35.0,1,1.0,0.2546009999996386
942,27,0.5,0.0625,35.0,1,1.0,0.2945009999998547
943,27,0.5,1.0,-35.0,-1,1.0,0.4379009999997834
944,27,0.5,0.25,35.0,1,1.0,0.7279010000002017
945,27,0.5,0.125,35.0,1,1.0,0.3546010000000024
946,27,0.5,0.125,35.0,1,1.0,0.3046009999998205
947,27,0.5,0.125,35.0,1,1.0,0.27140099999951417
948,27,0.5,0.25,35.0,1,1.0,0.4048010000001341
949,27,0.5,0.125,-35.0,-1,1.0,0.6215010000000802
950,27,0.5,0.25,-35.0,1,0.0,0.4315009999995709
951,27,0.5,0.25,35.0,1,1.0,0.3084009999997761
952,27,0.5,0.25,-35.0,-1,1.0,0.4415009999997892
953,27,0.5,0.25,35.0,1,1.0,0.3115010000001348
954,27,0.5,0.0625,35.0,1,1.0,0.44850099999985105
955,27,0.5,0.0,-35.0,1,0.0,0.3851009999998496
956,27,0.5,0.0625,-35.0,-1,1.0,0.7386010000000169
957,27,0.5,0.125,35.0,1,1.0,0.3952009999998154
958,27,0.5,1.0,35.0,1,1.0,0.255301000000145
959,27,0.5,0.25,35.0,1,1.0,0.3319010000000162
960,27,0.5,0.25,35.0,1,1.0,0.35880099999940285
961,27,0.5,0.25,35.0,1,1.0,0.2552009999999427
962,27,0.5,0.25,35.0,1,1.0,0.42570100000011735
963,27,0.5,0.25,35.0,1,1.0,0.3522010000001501
964,27,0.5,0.0,35.0,1,1.0,0.41250099999979284
965,27,0.5,0.125,35.0,1,1.0,0.3587009999996553
966,27,0.5,0.125,-35.0,-1,1.0,0.34230099999967933
967,27,0.5,1.0,35.0,1,1.0,0.24580100000002858
968,27,0.5,0.0,35.0,1,1.0,0.3592009999997572
969,27,0.5,0.25,35.0,1,1.0,0.4292009999999209
970,27,0.5,1.0,-35.0,-1,1.0,0.3258009999999558
971,27,0.5,0.0625,35.0,1,1.0,0.26580099999955564
972,27,0.5,0.125,35.0,1,1.0,0.2997009999999136
973,27,0.5,0.125,-35.0,-1,1.0,0.2824009999999362
974,27,0.5,1.0,-35.0,-1,1.0,0.256300999999894
975,27,0.5,0.25,35.0,1,1.0,0.1810009999999238
976,27,0.5,1.0,-35.0,-1,1.0,0.3528009999999995
977,27,0.5,0.0625,35.0,1,1.0,0.2996010000001661
978,27,0.5,0.25,-35.0,-1,1.0,0.4229009999999107
979,27,0.5,0.0,35.0,1,1.0,0.356300999999803
980,27,0.5,0.125,35.0,1,1.0,0.3863010000000031
981,27,0.5,1.0,-35.0,-1,1.0,0.25970099999995
982,27,0.5,0.0,35.0,1,1.0,0.311301000000185
983,27,0.5,1.0,-35.0,-1,1.0,0.28650100000004386
984,27,0.5,1.0,-35.0,-1,1.0,0.3565009999997528
985,27,0.5,0.0,35.0,1,1.0,0.33990099999982704
986,27,0.5,0.0625,-35.0,-1,1.0,0.38660099999970043
987,27,0.5,0.125,35.0,1,1.0,0.36330099999986487
988,27,0.5,0.125,35.0,1,1.0,0.28000099999962913
989,27,0.5,0.0,35.0,1,1.0,0.3701009999999769
990,27,0.5,0.25,-35.0,-1,1.0,0.4501009999994494
991,27,0.5,0.125,35.0,1,1.0,0.35360099999979866
992,27,0.5,0.25,-35.0,-1,1.0,0.2603009999997994
993,27,0.5,1.0,35.0,1,1.0,0.24030099999981758
994,27,0.5,0.125,-35.0,-1,1.0,0.27360100000032617
995,27,0.5,1.0,35.0,1,1.0,0.43370099999992817
996,27,0.5,0.125,-35.0,-1,1.0,0.25380100000029415
997,27,0.5,1.0,35.0,1,1.0,0.3038010000000213
998,27,0.5,0.25,-35.0,-1,1.0,0.1726010000002134
999,27,0.5,1.0,35.0,1,1.0,0.2872010000000955
1000,27,0.5,1.0,35.0,1,1.0,0.2573010000000977
1001,27,0.5,1.0,-35.0,-1,1.0,0.26730099999986123
1002,27,0.5,1.0,-35.0,-1,1.0,0.2441009999997732
1003,27,0.5,0.125,-35.0,-1,1.0,0.3307009999998627
1004,27,0.5,0.25,-35.0,-1,1.0,0.37080099999957383
1005,27,0.5,1.0,-35.0,-1,1.0,0.3308009999996102
1006,27,0.5,0.125,-35.0,-1,1.0,0.5509010000000671
1007,27,0.5,0.125,35.0,1,1.0,0.340900999999576
1008,27,0.5,1.0,-35.0,-1,1.0,0.2943009999999049
1009,27,0.5,0.0625,35.0,1,1.0,0.3110009999995782
1010,27,0.5,0.25,35.0,1,1.0,0.2577009999999973
1011,27,0.5,0.0,35.0,1,1.0,0.577701000000161
1012,27,0.5,0.0625,-35.0,-1,1.0,0.5095010000000002
1013,27,0.5,0.125,35.0,1,1.0,0.2879010000001472
1014,27,0.5,0.25,-35.0,-1,1.0,0.22790100000020175
1015,27,0.5,0.0,35.0,1,1.0,0.3647009999999682
1016,27,0.5,1.0,-35.0,-1,1.0,0.2914010000004055
1017,27,0.5,0.0625,-35.0,-1,1.0,0.5981010000000424
1018,27,0.5,0.125,35.0,1,1.0,0.3115010000001348
1019,27,0.5,0.0625,35.0,-1,0.0,0.6615010000000439
1020,27,0.5,0.25,-35.0,-1,1.0,0.24950099999978192
1021,27,0.5,0.0625,-35.0,1,0.0,0.2617009999999027
1022,27,0.5,0.25,35.0,1,1.0,0.33500099999992017
1023,27,0.5,0.125,35.0,1,1.0,0.3517010000000482
1024,27,0.5,0.125,35.0,1,1.0,0.28510099999994054
1025,27,0.5,1.0,35.0,1,1.0,0.11690099999987069
1026,27,0.5,0.0625,-35.0,1,0.0,0.38530100000025413
1027,27,0.5,0.125,-35.0,-1,1.0,0.30530099999987215
1028,27,0.5,0.25,35.0,1,1.0,0.29870100000016464
1029,27,0.5,0.0,-35.0,1,0.0,0.4654009999999289
1030,27,0.5,0.0,-35.0,-1,1.0,0.48210100000005696
1031,27,0.5,0.125,-35.0,-1,1.0,0.40220099999987724
1032,27,0.5,0.25,-35.0,-1,1.0,0.5089010000001508
1033,27,0.5,0.0625,35.0,1,1.0,0.25900099999989834
1034,27,0.5,0.25,-35.0,-1,1.0,0.2757010000000264
1035,27,0.5,0.0,35.0,1,1.0,0.42570100000011735
1036,27,0.5,0.25,-35.0,-1,1.0,0.2858009999999922
1037,27,0.5,0.0625,35.0,1,1.0,0.31580099999973754
1038,27,0.5,0.125,-35.0,-1,1.0,0.19720099999995
1039,27,0.5,0.0625,-35.0,-1,1.0,0.4559009999998125
1040,27,0.5,0.125,-35.0,-1,1.0,0.41260099999954036
1041,27,0.5,0.25,-35.0,-1,1.0,0.27270099999986996
1042,27,0.5,0.0625,-35.0,1,0.0,0.43270099999972444
1043,27,0.5,0.125,35.0,1,1.0,0.3728009999999813
1044,27,0.5,0.0,-35.0,1,0.0,0.2077009999998154
1045,27,0.5,0.25,35.0,1,1.0,0.2629009999996015
1046,27,0.5,1.0,-35.0,-1,1.0,0.3762010000000373
1047,27,0.5,1.0,35.0,1,1.0,0.3830009999996946
1048,27,0.5,0.25,35.0,1,1.0,0.24640099999987797
1049,27,0.5,0.125,35.0,1,1.0,0.2664010000003145
1050,27,0.5,0.125,-35.0,-1,1.0,0.5032010000004448
1051,27,0.5,0.0625,35.0,1,1.0,0.41330100000004677
1052,27,0.5,0.0625,-35.0,1,0.0,0.4199009999997543
1053,27,0.5,0.0625,35.0,1,1.0,0.396701000000121
1054,27,0.5,1.0,-35.0,-1,1.0,0.2601009999998496
1055,27,0.5,0.125,-35.0,-1,1.0,0.5334010000001399
1056,27,0.5,0.25,-35.0,-1,1.0,0.31340099999988524
1057,27,0.5,0.0625,-35.0,-1,1.0,0.41690099999959784
1058,27,0.5,0.125,35.0,1,1.0,0.4069009999998343
1059,27,0.5,0.25,35.0,1,1.0,0.2903009999999995
1060,27,0.5,1.0,-35.0,-1,1.0,0.2637009999998554
1061,27,0.5,0.0625,-35.0,1,0.0,0.38380099999994854
1062,27,0.5,0.0625,35.0,1,1.0,0.46720099999947706
1063,27,0.5,1.0,-35.0,-1,1.0,0.2639009999998052
1064,27,0.5,0.0,35.0,-1,0.0,0.4939009999998234
1065,27,0.5,0.0625,-35.0,-1,1.0,0.4941009999997732
1066,27,0.5,1.0,35.0,1,1.0,0.5640009999997346
1067,27,0.5,0.125,-35.0,-1,1.0,0.38420099999984814
1068,27,0.5,0.0,35.0,-1,0.0,4.584200999999666
1069,27,0.5,0.0625,35.0,1,1.0,0.31430100000034145
1070,27,0.5,0.25,-35.0,-1,1.0,0.2876009999999951
1071,27,0.5,0.25,35.0,1,1.0,0.4177009999998518
1072,27,0.5,1.0,-35.0,-1,1.0,0.26780099999950835
1073,27,0.5,1.0,-35.0,-1,1.0,0.3245010000000548
1074,27,0.5,0.125,-35.0,-1,1.0,0.40790100000003804
1075,27,0.5,1.0,-35.0,-1,1.0,0.25130099999978484
1076,27,0.5,0.0625,-35.0,-1,1.0,0.7280009999999493
1077,27,0.5,0.125,-35.0,-1,1.0,0.5647009999997863
1078,27,0.5,0.25,35.0,1,1.0,0.35140099999989616
1079,27,0.5,0.25,35.0,1,1.0,0.30810099999962404
1080,27,0.5,0.125,-35.0,-1,1.0,0.2682009999998627
1081,27,0.5,0.125,-35.0,1,0.0,0.3682010000002265
1082,27,0.5,0.125,-35.0,-1,1.0,0.3117010000000846
1083,27,0.5,0.25,-35.0,-1,1.0,0.3549010000006092
1084,27,0.5,0.0625,35.0,1,1.0,0.34840100000019447
1085,27,0.5,0.25,-35.0,-1,1.0,0.42170100000021193
1086,27,0.5,1.0,35.0,1,1.0,0.7919010000005073
1087,27,0.5,0.25,-35.0,-1,1.0,0.34190100000068924
1088,27,0.5,0.125,-35.0,-1,1.0,0.2986010000004171
1089,27,0.5,0.0,-35.0,-1,1.0,0.47200100000009115
1090,27,0.5,0.25,35.0,1,1.0,0.41200100000060047
1091,27,0.5,1.0,35.0,1,1.0,0.30870100000083767
1092,27,0.5,0.25,-35.0,-1,1.0,0.26210100000025705
1093,27,0.5,0.25,-35.0,-1,1.0,0.4722010000004957
1094,27,0.5,0.125,-35.0,-1,1.0,0.3789010000000417
1095,27,0.5,0.25,35.0,1,1.0,0.1773009999997157
1096,27,0.5,0.0,-35.0,-1,1.0,0.6723010000005161
1097,27,0.5,0.25,35.0,1,1.0,0.2590010000012626
1098,27,0.5,0.125,35.0,1,1.0,0.35910100000000966
1099,27,0.5,0.0,-35.0,1,0.0,0.38270100000045204
1100,27,0.5,0.0,35.0,-1,0.0,0.31940100000065286
1101,27,0.5,0.125,35.0,1,1.0,0.369300999999723
1102,27,0.5,0.25,35.0,1,1.0,0.27270100000077946
1103,27,0.5,1.0,35.0,1,1.0,0.3762010000000373
1104,27,0.5,0.25,-35.0,-1,1.0,0.2961010000008173
1105,27,0.5,1.0,-35.0,-1,1.0,0.2594010000011622
1106,27,0.5,0.0625,-35.0,-1,1.0,0.282800999999381
1107,27,0.5,0.125,-35.0,-1,1.0,0.2527010000003429
1108,27,0.5,0.0625,35.0,1,1.0,0.40980100000069797
1109,27,0.5,0.0625,35.0,1,1.0,0.30620099999941885
1110,27,0.5,0.125,-35.0,-1,1.0,0.4931010000009337
1111,27,0.5,1.0,35.0,1,1.0,0.30320100000062666
1112,27,0.5,1.0,-35.0,-1,1.0,0.2601010000007591
1113,27,0.5,0.0625,-35.0,-1,1.0,0.27680100000088714
1114,27,0.5,0.0625,-35.0,-1,1.0,0.4233009999998103
1115,27,0.5,0.0625,-35.0,-1,1.0,0.38670100000035745
1116,27,0.5,1.0,-35.0,-1,1.0,0.2666010000011738
1117,27,0.5,1.0,-35.0,-1,1.0,0.2667009999995571
1118,27,0.5,0.25,-35.0,-1,1.0,0.26350099999945087
1119,27,0.5,0.25,35.0,1,1.0,0.38010100000064995
1120,27,0.5,0.125,35.0,1,1.0,0.4436010000008537
1121,27,0.5,0.0625,35.0,1,1.0,0.39080100000046514
1122,27,0.5,0.0625,35.0,-1,0.0,0.967000999999982
1123,27,0.5,0.0,-35.0,-1,1.0,0.5872009999993679
1124,27,0.5,1.0,-35.0,-1,1.0,0.33040100000016537
1125,27,0.5,0.125,-35.0,-1,1.0,0.40400099999988015
1126,27,0.5,0.125,-35.0,-1,1.0,0.270701000000372
1127,27,0.5,0.25,-35.0,-1,1.0,0.2774010000002818
1128,27,0.5,0.0,-35.0,-1,1.0,0.5507010000001173
1129,27,0.5,0.125,-35.0,-1,1.0,0.38080100000115635
1130,27,0.5,0.125,-35.0,-1,1.0,0.4475010000005568
1131,27,0.5,0.125,35.0,1,1.0,0.43080100000042876
1132,27,0.5,0.0625,35.0,1,1.0,0.3880010000002585
1133,27,0.5,1.0,-35.0,-1,1.0,0.3141009999999369
1134,27,0.5,1.0,-35.0,-1,1.0,0.2310010000001057
1135,27,0.5,1.0,-35.0,-1,1.0,0.24080099999991944
1136,27,0.5,0.25,35.0,1,1.0,0.3847010000008595
1137,27,0.5,0.25,35.0,1,1.0,0.4346009999999296
1138,27,0.5,0.25,-35.0,-1,1.0,0.4877010000000155
1139,27,0.5,1.0,35.0,1,1.0,0.2579010000008566
1140,27,0.5,0.25,-35.0,-1,1.0,0.2483009999996284
1141,27,0.5,0.25,-35.0,-1,1.0,0.2513010000002396
1142,27,0.5,0.0625,35.0,1,1.0,0.3583010000002105
1143,27,0.5,1.0,-35.0,-1,1.0,0.26800100000036764
1144,27,0.5,1.0,-35.0,-1,1.0,0.2450010000002294
1145,27,0.5,0.0625,-35.0,-1,1.0,0.2916009999999005
1146,27,0.5,0.125,35.0,1,1.0,0.3850010000014663
1147,27,0.5,0.25,-35.0,-1,1.0,0.31510100000014063
1148,27,0.5,0.0,35.0,-1,0.0,0.6918009999999413
1149,27,0.5,0.125,35.0,1,1.0,0.2620010000000548
1150,27,0.5,1.0,35.0,1,1.0,0.25210100000003877
1151,27,0.5,0.125,35.0,-1,0.0,0.5786010000001625
1152,27,0.5,0.125,35.0,1,1.0,0.24190100000123493
1153,27,0.5,0.0,35.0,1,1.0,0.40220100000078673
1154,27,0.5,0.125,35.0,-1,0.0,0.2692010000000664
1155,27,0.5,0.125,35.0,1,1.0,0.3622010000008231
1156,27,0.5,0.125,35.0,1,1.0,0.3354010000002745
1157,27,0.5,0.25,-35.0,-1,1.0,0.25880099999994854
1158,27,0.5,0.25,-35.0,-1,1.0,0.28890100000080565
1159,27,0.5,0.0625,-35.0,-1,1.0,0.3023009999997157
1160,27,0.5,0.0625,35.0,1,1.0,0.3424010000007911
1161,27,0.5,0.25,-35.0,-1,1.0,0.26240099999995437
1162,27,0.5,0.0625,35.0,1,1.0,0.4391010000008464
1163,27,0.5,0.125,-35.0,-1,1.0,0.2825010000005932
1164,27,0.5,0.25,35.0,1,1.0,0.19370100000105595
1165,27,0.5,0.125,35.0,1,1.0,1.3626010000007227
1166,27,0.5,0.0,35.0,1,1.0,0.4160009999995964
1167,27,0.5,0.25,-35.0,-1,1.0,0.24270100000012462
1168,27,0.5,0.0625,35.0,1,1.0,0.41610099999979866
1169,27,0.5,0.25,35.0,1,1.0,0.5871010000000751
1170,27,0.5,0.25,-35.0,-1,1.0,0.34950100000060047
1171,27,0.5,1.0,-35.0,-1,1.0,0.3296010000003662
1172,27,0.5,0.0625,35.0,1,1.0,0.2563010000012582
1173,27,0.5,0.25,-35.0,-1,1.0,0.5430010000000038
1174,27,0.5,0.125,35.0,1,1.0,0.3964009999999689
1175,27,0.5,0.25,-35.0,-1,1.0,0.10460100000000239
1176,27,0.5,0.25,-35.0,-1,1.0,0.14820100000088132
1177,27,0.5,0.0625,35.0,1,1.0,0.35650100000020757
1178,27,0.5,1.0,35.0,1,1.0,0.30320100000062666
1179,27,0.5,0.125,-35.0,1,0.0,0.506601000000046
1180,27,0.5,0.0,-35.0,-1,1.0,0.573301000000356
1181,27,0.5,1.0,35.0,1,1.0,0.39670100000057573
1182,27,0.5,0.0625,35.0,1,1.0,0.5400010000003022
1183,27,0.5,1.0,35.0,1,1.0,0.4035010000006878
1184,27,0.5,0.125,-35.0,-1,1.0,0.5068010000013601
1185,27,0.5,0.125,-35.0,-1,1.0,0.4836009999999078
1186,27,0.5,0.0,35.0,-1,0.0,0.6436009999997623
1187,27,0.5,0.25,35.0,1,1.0,0.8403010000010909
1188,27,0.5,0.0625,35.0,1,1.0,0.4038010000003851
1189,27,0.5,0.125,-35.0,-1,1.0,0.4438010000003487
1190,27,0.5,0.25,-35.0,-1,1.0,0.2539010000000417
1191,27,0.5,0.25,-35.0,-1,1.0,0.2872010000000955
1192,27,0.5,1.0,-35.0,-1,1.0,0.3240010000008624
1193,27,0.5,0.0625,35.0,-1,0.0,0.510801000000356
1194,27,0.5,0.0625,-35.0,1,0.0,0.29220100000020466
1195,27,0.3,0.0625,35.0,1,1.0,0.44080100000064704
1196,27,0.5,1.0,-35.0,-1,1.0,0.14270100000067032
1197,27,0.5,0.125,35.0,1,1.0,0.2891010000003007
1198,27,0.5,0.125,-35.0,-1,1.0,0.5043009999999413
1199,27,0.5,0.0,-35.0,1,0.0,0.5343010000005961
1200,27,0.5,0.125,-35.0,-1,1.0,0.6211010000006354
1201,27,0.5,0.125,35.0,1,1.0,0.13230100000055245
1202,27,0.5,1.0,-35.0,-1,1.0,0.2678010000008726
1203,27,0.5,0.125,-35.0,-1,1.0,0.5112010000002556
1204,27,0.5,0.25,35.0,1,1.0,0.5079010000008566
1205,27,0.5,1.0,35.0,1,1.0,0.3813010000003487
1206,27,0.5,0.0625,-35.0,1,0.0,0.4847010000003138
1207,27,0.5,0.125,-35.0,1,0.0,0.5115009999999529
1208,27,0.5,0.25,35.0,1,1.0,0.48820100000011735
1209,27,0.5,0.125,-35.0,-1,1.0,0.4182010000004084
1210,27,0.5,0.125,-35.0,1,0.0,0.4449010000007547
1211,27,0.5,0.125,-35.0,-1,1.0,0.5750010000010661
1212,27,0.5,0.0625,-35.0,-1,1.0,0.4850010000000111
1213,27,0.5,1.0,-35.0,-1,1.0,0.30030100000021775
1214,27,0.5,0.125,-35.0,-1,1.0,0.3696010000003298
1215,27,0.5,0.0625,-35.0,-1,1.0,0.4818010000008144
1216,27,0.5,0.25,-35.0,-1,1.0,0.3619010000002163
1217,27,0.5,0.125,-35.0,-1,1.0,0.4486010000000533
1218,27,0.5,0.0,-35.0,1,0.0,0.46530100000109087
1219,27,0.5,0.0,-35.0,1,0.0,0.8521010000004026
1220,27,0.5,0.0625,-35.0,-1,1.0,0.5288010000003851
1221,27,0.5,0.0625,-35.0,-1,1.0,0.45550100000036764
1222,27,0.5,0.0625,35.0,-1,0.0,0.6289010000000417
1223,27,0.5,0.0625,-35.0,-1,1.0,0.318901000000551
1224,27,0.5,0.0625,-35.0,-1,1.0,0.3324010000005728
1225,27,0.5,0.125,35.0,1,1.0,0.4924010000004273
1226,27,0.5,0.125,35.0,1,1.0,0.2825010000005932
1227,27,0.5,1.0,-35.0,-1,1.0,0.3358010000010836
1228,27,0.5,0.0625,-35.0,1,0.0,0.5592010000009395
1229,27,0.5,0.0,-35.0,-1,1.0,0.7841010000001916
1230,27,0.5,0.0,35.0,-1,0.0,0.5426010000010137
1231,27,0.3,0.0,35.0,-1,0.0,0.4561010000006718
1232,27,0.5,1.0,35.0,1,1.0,0.4262010000002192
1233,27,0.5,0.125,35.0,1,1.0,0.4795009999998001
1234,27,0.5,0.0,-35.0,1,0.0,0.699601000000257
1235,27,0.5,0.125,35.0,1,1.0,0.4464009999992413
1236,27,0.5,0.125,-35.0,-1,1.0,0.8030010000002221
1237,27,0.5,0.0625,-35.0,-1,1.0,0.46650100000078965
1238,27,0.5,0.125,-35.0,-1,1.0,0.513201000000663
1239,27,0.5,0.0625,35.0,-1,0.0,0.5265010000002803
1240,27,0.5,0.25,35.0,-1,0.0,0.7066010000007736
1241,27,0.5,0.0,-35.0,-1,1.0,10.823400999999649
1242,27,0.5,1.0,35.0,1,1.0,0.5202010000002701
1243,27,0.5,0.125,35.0,-1,0.0,0.6203010000008362
1244,27,0.3,0.125,-35.0,-1,1.0,0.6103010000006179
1245,27,0.5,1.0,-35.0,-1,1.0,0.28710099999989325
1246,27,0.5,1.0,35.0,1,1.0,0.7404010000009293
1247,27,0.5,0.125,35.0,-1,0.0,0.7238010000000941
1248,27,0.5,0.25,35.0,1,1.0,0.5154010000005655
1249,27,0.5,1.0,35.0,1,1.0,0.4906010000004244
1250,27,0.5,1.0,35.0,1,1.0,0.4773010000008071
1251,27,0.5,0.125,-35.0,-1,1.0,0.28740099999959057
1252,27,0.5,0.125,35.0,-1,0.0,0.5674010000002454
1253,27,0.5,0.0625,35.0,-1,0.0,10.189001000000644
1254,27,0.5,0.125,-35.0,-1,1.0,9.047701000001325
1255,27,0.5,1.0,-35.0,-1,1.0,1.337800999999672
1256,27,0.5,0.125,-35.0,-1,1.0,2.684601000000839
1257,27,0.5,0.125,-35.0,-1,1.0,0.4413009999998394
1258,27,0.5,0.125,-35.0,-1,1.0,0.2814010000001872
1259,27,0.5,1.0,-35.0,-1,1.0,0.3248009999997521
1260,27,0.5,1.0,35.0,1,1.0,0.39480100000037055
1261,27,0.5,0.125,-35.0,-1,1.0,0.6948010000005524
1262,27,0.5,1.0,35.0,1,1.0,0.4583010000005743
1263,27,0.5,0.0625,35.0,-1,0.0,0.5316010000005917
1264,27,0.5,0.0,-0.0,0,0.0,60.208301000000574
1265,27,0.5,0.0625,-35.0,-1,1.0,0.9992010000005394
1266,27,0.5,0.0625,-35.0,-1,1.0,2.19260100000065
1267,27,0.5,0.0625,-35.0,-1,1.0,0.8193010000004506
1268,27,0.5,0.0625,-35.0,-1,1.0,0.4961010000006354
1269,27,0.5,1.0,-35.0,-1,1.0,0.4861010000004171
1270,27,0.5,1.0,-35.0,-1,1.0,0.3461010000000897
1271,27,0.5,1.0,-35.0,-1,1.0,0.2861010000015085
1272,27,0.5,0.125,35.0,-1,0.0,49.37290099999973
1273,27,0.1,0.125,-35.0,-1,1.0,0.8503010000003997
1274,27,0.5,1.0,35.0,1,1.0,0.7603010000002541
1275,27,0.5,0.0,35.0,-1,0.0,29.763700999999855
1276,27,0.1,0.0,-35.0,-1,1.0,42.725500999999895
1277,27,0.5,1.0,35.0,1,1.0,0.9980009999999311
1278,27,0.5,0.0625,35.0,-1,0.0,0.548001000000113
1279,27,0.5,0.25,35.0,-1,0.0,18.561501000000135
1280,27,0.5,0.125,35.0,1,1.0,7.871900999999525
1281,27,0.5,0.125,-35.0,-1,1.0,0.6054010000007111
1282,27,0.5,0.25,35.0,-1,0.0,8.62880099999984
1283,27,0.5,0.25,-35.0,-1,1.0,25.139001000000462
1284,27,0.5,0.25,-35.0,-1,1.0,0.42930100000103266
1285,27,0.5,1.0,35.0,-1,0.0,11.302801000000727
1286,27,0.2,1.0,35.0,-1,0.0,43.91290099999969
1287,27,0.2,1.0,35.0,1,1.0,0.6269010000005437
1288,27,0.5,1.0,35.0,1,1.0,0.5269010000001799
1289,27,0.5,0.0625,35.0,1,1.0,1.1003009999994902
1290,27,0.5,1.0,-35.0,-1,1.0,0.40030100000058155
1291,27,0.5,0.0,35.0,-1,0.0,2.687000999999327
1292,27,0.5,0.25,-35.0,-1,1.0,36.30720100000053
1293,27,0.5,0.0,35.0,-1,0.0,6.64100100000087
1,28,0.5,0.0625,35.0,1,1.0,0.5016999999999998
2,28,0.5,0.25,35.0,1,1.0,0.16570000000000018
3,28,0.5,0.0625,-35.0,-1,1.0,2.1174
4,28,0.5,0.0625,-35.0,1,0.0,0.33559999999999945
5,28,0.5,0.25,35.0,1,1.0,0.12719999999999843
6,28,0.5,1.0,-35.0,-1,1.0,0.2041000000000004
7,28,0.5,1.0,-35.0,-1,1.0,0.24909999999999854
8,28,0.5,0.0,35.0,1,1.0,1.461699999999997
9,28,0.5,0.25,-35.0,-1,1.0,0.34809999999999874
10,28,0.5,0.0,35.0,-1,0.0,0.22559999999999647
11,28,0.5,0.125,-35.0,-1,1.0,0.21940000000000026
12,28,0.5,0.25,35.0,1,1.0,1.006999999999998
13,28,0.5,0.0625,35.0,1,1.0,0.17900000000000205
14,28,0.5,0.125,35.0,1,1.0,0.29420000000000357
15,28,0.5,1.0,35.0,1,1.0,0.19310000000000116
16,28,0.5,0.25,-35.0,-1,1.0,0.21709999999999496
17,28,0.5,1.0,35.0,1,1.0,0.42549999999999244
18,28,0.5,0.25,-35.0,-1,1.0,0.24459999999999127
19,28,0.5,0.0625,-35.0,1,0.0,0.14100000000000534
20,28,0.5,0.25,-35.0,-1,1.0,0.2295000000000016
21,28,0.5,0.0625,35.0,1,1.0,0.7291999999999987
22,28,0.5,0.25,35.0,1,1.0,0.10950000000000415
23,28,0.5,0.0625,35.0,-1,0.0,0.25970000000000937
24,28,0.5,0.25,-35.0,1,0.0,0.1478000000000037
25,28,0.5,0.125,-35.0,-1,1.0,0.23470000000000368
26,28,0.5,0.25,-35.0,-1,1.0,0.22279999999999234
27,28,0.5,0.125,-35.0,-1,1.0,0.24030000000000484
28,28,0.5,1.0,-35.0,1,0.0,0.09689999999999088
29,28,0.5,0.25,-35.0,1,0.0,0.16459999999999297
30,28,0.5,0.25,35.0,1,1.0,0.045400000000014984
31,28,0.5,1.0,-35.0,-1,1.0,0.15529999999999688
32,28,0.5,0.0625,-35.0,1,0.0,0.23399999999999466
33,28,0.5,0.125,-35.0,-1,1.0,0.20659999999999457
34,28,0.5,1.0,35.0,1,1.0,0.1851999999999947
35,28,0.5,0.25,-35.0,-1,1.0,0.25849999999999795
36,28,0.5,0.125,-35.0,-1,1.0,0.24750000000000227
37,28,0.5,0.0625,-35.0,1,0.0,0.24289999999999168
38,28,0.5,0.25,35.0,-1,0.0,0.3155000000000001
39,28,0.5,0.25,35.0,1,1.0,0.8194000000000301
40,28,0.5,0.0625,35.0,1,1.0,4.238799999999998
41,28,0.5,0.25,35.0,1,1.0,0.13700000000000045
42,28,0.5,1.0,-35.0,-1,1.0,0.19310000000001537
43,28,0.5,0.25,35.0,1,1.0,3.2686000000000206
44,28,0.5,0.0625,-35.0,1,0.0,0.12510000000000332
45,28,0.5,0.125,-35.0,-1,1.0,0.19140000000001578
46,28,0.5,1.0,35.0,1,1.0,0.059799999999995634
47,28,0.5,1.0,35.0,1,1.0,0.17730000000003088
48,28,0.5,0.125,-35.0,1,0.0,0.17199999999999704
49,28,0.5,0.25,35.0,1,1.0,0.12640000000001805
50,28,0.5,1.0,-35.0,-1,1.0,0.1985000000000241
51,28,0.5,1.0,35.0,1,1.0,0.11000000000001364
52,28,0.5,0.25,-35.0,-1,1.0,0.8584000000000174
53,28,0.5,0.125,-35.0,1,0.0,0.16800000000000637
54,28,0.5,0.0625,-35.0,1,0.0,0.09870000000003643
55,28,0.5,0.0,-35.0,1,0.0,0.318300000000022
56,28,0.8,0.0,-35.0,1,0.0,0.16729999999998313
57,28,0.5,1.0,-35.0,-1,1.0,0.21970000000001733
58,28,0.5,0.0625,35.0,-1,0.0,0.3710000000000093
59,28,0.6,0.0625,-35.0,-1,1.0,0.27060000000000173
60,28,0.5,1.0,-35.0,-1,1.0,0.21129999999999427
61,28,0.5,0.125,-35.0,-1,1.0,0.22210000000001173
62,28,0.5,1.0,35.0,1,1.0,0.14340000000001396
63,28,0.5,0.125,35.0,1,1.0,0.15139999999999532
64,28,0.5,1.0,35.0,1,1.0,0.2231000000000165
65,28,0.5,0.125,-35.0,-1,1.0,0.3235000000000241
66,28,0.5,1.0,35.0,1,1.0,0.18600000000000705
67,28,0.5,0.0625,35.0,-1,0.0,0.38800000000000523
68,28,0.5,0.125,35.0,-1,0.0,0.30750000000000455
69,28,0.5,0.25,-35.0,-1,1.0,0.17120000000002733
70,28,0.5,0.25,35.0,1,1.0,0.38640000000000896
71,28,0.5,0.125,-35.0,-1,1.0,0.21640000000002146
72,28,0.5,0.25,-35.0,-1,1.0,0.18010000000001014
73,28,0.5,0.125,-35.0,-1,1.0,0.18619999999998527
74,28,0.5,0.125,-35.0,-1,1.0,0.05200000000002092
75,28,0.5,0.25,-35.0,-1,1.0,0.17980000000000018
76,28,0.5,0.25,35.0,1,1.0,0.22360000000000468
77,28,0.5,0.0625,35.0,-1,0.0,0.5252000000000123
78,28,0.5,0.125,-35.0,-1,1.0,0.23390000000000555
79,28,0.5,0.125,-35.0,-1,1.0,0.24040000000002237
80,28,0.5,0.0625,-35.0,1,0.0,0.31359999999995125
81,28,0.5,0.25,-35.0,-1,1.0,0.1734000000000151
82,28,0.5,0.0,-35.0,1,0.0,0.25829999999990605
83,28,0.3,0.0,-35.0,-1,1.0,0.12160000000000082
84,28,0.5,1.0,35.0,1,1.0,0.18079999999997654
85,28,0.5,0.0,35.0,-1,0.0,0.1923999999999637
86,28,0.5,0.25,-35.0,-1,1.0,0.223700000000008
87,28,0.5,0.25,35.0,1,1.0,0.24340000000000828
88,28,0.5,0.25,35.0,1,1.0,0.09239999999999782
89,28,0.5,1.0,-35.0,-1,1.0,0.21440000000001191
90,28,0.5,1.0,-35.0,-1,1.0,0.169399999999996
91,28,0.5,1.0,-35.0,-1,1.0,0.21519999999998163
92,28,0.5,0.0,35.0,1,1.0,0.21239999999994552
93,28,0.5,0.125,35.0,1,1.0,0.14379999999999882
94,28,0.5,0.125,-35.0,-1,1.0,0.31689999999997553
95,28,0.5,0.25,-35.0,-1,1.0,0.1963000000000079
96,28,0.5,0.25,35.0,1,1.0,0.1675999999999931
97,28,0.5,0.0625,35.0,1,1.0,0.24569999999999936
98,28,0.5,1.0,-35.0,-1,1.0,0.09139999999996462
99,28,0.5,0.125,35.0,1,1.0,0.14789999999999281
100,28,0.5,0.125,35.0,1,1.0,0.11839999999995143
101,28,0.5,0.0,-35.0,1,0.0,0.20249999999998636
102,28,0.5,0.125,-35.0,-1,1.0,0.25610000000000355
103,28,0.5,0.0625,-35.0,-1,1.0,2.092700000000036
104,28,0.5,0.0,-35.0,1,0.0,0.0585999999999558
105,28,0.5,0.25,-35.0,-1,1.0,0.17279999999999518
106,28,0.5,0.25,-35.0,-1,1.0,0.19080000000002428
107,28,0.5,0.25,-35.0,-1,1.0,0.2408999999999537
108,28,0.5,1.0,35.0,1,1.0,0.15109999999998536
109,28,0.5,0.125,-35.0,-1,1.0,0.3047000000000253
110,28,0.5,0.0,-35.0,1,0.0,0.12700000000000955
111,28,0.5,0.25,35.0,-1,0.0,0.1631999999999607
112,28,0.5,0.25,35.0,1,1.0,0.1520999999999617
113,28,0.5,1.0,35.0,1,1.0,0.17789999999996553
114,28,0.5,1.0,35.0,1,1.0,0.13019999999994525
115,28,0.5,0.0,-35.0,1,0.0,0.14760000000001128
116,28,0.5,0.25,35.0,1,1.0,0.19429999999999836
117,28,0.5,0.0625,35.0,1,1.0,0.24629999999996244
118,28,0.5,0.0,-35.0,1,0.0,0.09369999999995571
119,28,0.8,0.0,-35.0,1,0.0,0.15460000000001628
120,28,0.5,1.0,-35.0,-1,1.0,0.1653999999999769
121,28,0.5,0.125,-35.0,-1,1.0,0.4563999999999737
122,28,0.5,0.0625,-35.0,-1,1.0,0.21989999999999554
123,28,0.5,0.25,35.0,1,1.0,0.14239999999995234
124,28,0.5,0.125,-35.0,-1,1.0,0.2545000000000073
125,28,0.5,0.125,35.0,-1,0.0,0.23129999999997608
126,28,0.5,0.125,35.0,1,1.0,0.32059999999995625
127,28,0.5,0.25,35.0,1,1.0,0.14979999999997062
128,28,0.5,1.0,35.0,1,1.0,0.20709999999996853
129,28,0.5,0.125,35.0,1,1.0,0.16109999999997626
130,28,0.5,0.125,35.0,1,1.0,0.15950000000003683
131,28,0.5,1.0,35.0,1,1.0,0.15949999999998
132,28,0.5,0.25,-35.0,1,0.0,0.11579999999997881
133,28,0.5,0.0625,-35.0,1,0.0,0.473700000000008
134,28,0.5,0.25,35.0,1,1.0,0.4638999999999669
135,28,0.5,0.25,35.0,1,1.0,0.1671999999999798
136,28,0.5,0.0625,-35.0,-1,1.0,1.115600000000029
137,28,0.5,1.0,35.0,1,1.0,0.16679999999996653
138,28,0.5,0.0625,35.0,1,1.0,0.22219999999998663
139,28,0.5,0.125,-35.0,1,0.0,0.11549999999999727
140,28,0.5,0.0625,35.0,1,1.0,0.21570000000002665
141,28,0.5,0.25,35.0,1,1.0,0.17610000000001946
142,28,0.5,0.0,-35.0,1,0.0,0.14560000000000173
143,28,0.9,0.0,-35.0,-1,1.0,0.261099999999999
144,28,0.5,1.0,-35.0,1,0.0,0.11939999999998463
145,28,0.5,0.125,-35.0,-1,1.0,0.1903000000000361
146,28,0.5,0.125,-35.0,1,0.0,0.15869999999995343
147,28,0.8,0.125,-35.0,-1,1.0,0.3523999999999887
148,28,0.5,1.0,-35.0,1,0.0,0.06879999999995334
149,28,0.5,0.0625,-35.0,1,0.0,0.17060000000003583
150,28,0.5,0.0625,35.0,1,1.0,0.08990000000000009
151,28,0.5,1.0,-35.0,-1,1.0,0.19019999999994752
152,28,0.5,0.25,35.0,1,1.0,0.17300000000000182
153,28,0.5,0.125,-35.0,1,0.0,0.14069999999998117
154,28,0.5,0.0625,-35.0,1,0.0,0.0777999999999679
155,28,0.7,0.0625,-35.0,-1,1.0,0.2595999999999776
156,28,0.5,1.0,-35.0,1,0.0,0.0988999999999578
157,28,0.5,0.125,35.0,1,1.0,0.23879999999996926
158,28,0.5,1.0,35.0,1,1.0,0.49220000000013897
159,28,0.5,0.125,-35.0,-1,1.0,0.46850000000006276
160,28,0.5,0.25,-35.0,-1,1.0,0.18420000000014625
161,28,0.5,0.125,35.0,1,1.0,0.2016999999999598
162,28,0.5,0.125,-35.0,-1,1.0,0.2536999999999807
163,28,0.5,0.0,-35.0,1,0.0,0.2577999999999747
164,28,0.5,0.125,-35.0,1,0.0,0.12340000000006057
165,28,0.5,0.125,-35.0,-1,1.0,0.29730000000006385
166,28,0.5,0.25,35.0,1,1.0,0.12649999999996453
167,28,0.5,0.125,35.0,1,1.0,0.08480000000008658
168,28,0.5,1.0,35.0,1,1.0,0.20490000000006603
169,28,0.5,0.0625,-35.0,-1,1.0,0.22790000000009059
170,28,0.5,1.0,-35.0,-1,1.0,0.15009999999995216
171,28,0.5,1.0,35.0,1,1.0,0.13350000000002638
172,28,0.5,0.125,-35.0,-1,1.0,0.3549000000000433
173,28,0.5,0.25,-35.0,-1,1.0,0.20040000000005875
174,28,0.5,0.125,-35.0,1,0.0,0.1129999999999427
175,28,0.5,0.125,35.0,-1,0.0,0.3085999999999558
176,28,0.5,1.0,-35.0,-1,1.0,0.12289999999995871
177,28,0.5,0.25,-35.0,-1,1.0,0.15880000000004202
178,28,0.5,0.25,35.0,1,1.0,0.3242000000000189
179,28,0.5,0.25,-35.0,-1,1.0,0.21609999999998308
180,28,0.5,0.0625,35.0,1,1.0,0.1087000000001126
181,28,0.5,0.0,-35.0,1,0.0,0.2097999999999729
182,28,0.5,0.25,-35.0,-1,1.0,0.171100000000024
183,28,0.5,0.0,-35.0,1,0.0,4.987799999999993
184,28,0.5,0.0,35.0,-1,0.0,0.2860000000000582
185,28,0.5,1.0,35.0,1,1.0,0.2400000000000091
186,28,0.5,0.125,-35.0,-1,1.0,0.39410000000009404
187,28,0.5,0.25,35.0,1,1.0,0.18490000000008422
188,28,0.5,0.125,-35.0,-1,1.0,0.24840000000006057
189,28,0.5,0.125,35.0,1,1.0,0.09360000000003765
190,28,0.5,1.0,35.0,1,1.0,0.15870000000006712
191,28,0.5,0.25,-35.0,-1,1.0,0.10360000000002856
192,28,0.5,1.0,35.0,1,1.0,0.10710000000005948
193,28,0.5,0.0625,-35.0,-1,1.0,0.23830000000009477
194,28,0.5,1.0,35.0,1,1.0,0.16909999999995762
195,28,0.5,1.0,35.0,1,1.0,0.22440000000005966
196,28,0.5,1.0,35.0,1,1.0,0.09230000000002292
197,28,0.5,1.0,35.0,1,1.0,0.12340000000006057
198,28,0.5,0.25,-35.0,-1,1.0,0.21400000000005548
199,28,0.5,0.0625,-35.0,-1,1.0,0.8584000000000742
200,28,0.5,0.25,35.0,1,1.0,0.26460000000008677
201,28,0.5,0.0625,-35.0,-1,1.0,0.14720000000011169
202,28,0.5,0.125,-35.0,-1,1.0,0.19519999999988613
203,28,0.5,0.125,-35.0,-1,1.0,0.17750000000012278
204,28,0.5,0.25,35.0,1,1.0,0.17229999999995016
205,28,0.5,0.0625,-35.0,1,0.0,0.0703000000000884
206,28,0.5,0.25,-35.0,-1,1.0,0.23510000000010223
207,28,0.5,0.0,35.0,1,1.0,0.1531999999999698
208,28,0.5,1.0,35.0,1,1.0,0.1511000000000422
209,28,0.5,0.125,-35.0,-1,1.0,0.18899999999996453
210,28,0.5,0.25,35.0,1,1.0,0.16430000000013933
211,28,0.5,0.25,-35.0,-1,1.0,0.183400000000006
212,28,0.5,0.125,-35.0,-1,1.0,0.20500000000004093
213,28,0.5,0.25,-35.0,-1,1.0,0.21120000000007622
214,28,0.5,1.0,35.0,1,1.0,0.1271000000000413
215,28,0.5,0.0,35.0,-1,0.0,0.17570000000000618
216,28,0.5,0.25,35.0,1,1.0,0.2600999999999658
217,28,0.5,0.0625,35.0,1,1.0,0.26890000000003056
218,28,0.5,0.0625,-35.0,-1,1.0,0.6647000000000389
219,28,0.5,0.125,35.0,1,1.0,0.26870000000008076
220,28,0.5,0.0625,-35.0,-1,1.0,0.16919999999993252
221,28,0.5,0.125,-35.0,-1,1.0,0.20270000000004984
222,28,0.5,0.125,-35.0,-1,1.0,0.18479999999999563
223,28,0.5,1.0,-35.0,-1,1.0,0.1972000000000662
224,28,0.5,0.125,35.0,-1,0.0,0.48649999999997817
225,28,0.5,0.0625,-35.0,-1,1.0,2.152400000000057
226,28,0.5,1.0,-35.0,-1,1.0,0.14570000000003347
227,28,0.5,0.0625,-35.0,-1,1.0,0.2837000000000671
228,28,0.5,0.0625,35.0,-1,0.0,0.1773000000000593
229,28,0.5,0.0625,35.0,-1,0.0,0.43060000000002674
230,28,0.5,0.25,-35.0,-1,1.0,0.20450000000005275
231,28,0.5,0.25,-35.0,-1,1.0,0.12460000000010041
232,28,0.5,0.25,35.0,1,1.0,0.22289999999998145
233,28,0.5,1.0,-35.0,-1,1.0,0.2742000000000644
234,28,0.5,1.0,35.0,1,1.0,0.12410000000011223
235,28,0.5,0.25,35.0,1,1.0,0.1292999999999438
236,28,0.5,1.0,35.0,1,1.0,0.2980000000001155
237,28,0.5,1.0,35.0,1,1.0,0.21430000000009386
238,28,0.5,0.25,-35.0,-1,1.0,0.20259999999996126
239,28,0.5,0.25,35.0,1,1.0,0.20080000000007203
240,28,0.5,0.25,-35.0,-1,1.0,0.1752999999999929
241,28,0.5,0.0625,35.0,1,1.0,0.2031000000001768
242,28,0.5,0.0625,-35.0,-1,1.0,0.17070000000001073
243,28,0.5,0.0625,-35.0,1,0.0,0.0703000000000884
244,28,0.5,0.25,-35.0,-1,1.0,0.19240000000002055
245,28,0.5,0.125,35.0,1,1.0,0.07950000000016644
246,28,0.5,0.25,-35.0,-1,1.0,0.22040000000004056
247,28,0.5,1.0,35.0,1,1.0,0.2156000000001086
248,28,0.5,0.125,-35.0,-1,1.0,0.15200000000004366
249,28,0.5,0.125,35.0,1,1.0,0.14440000000001874
250,28,0.5,0.25,35.0,1,1.0,0.05030000000010659
251,28,0.5,0.0625,35.0,-1,0.0,0.43400000000008276
252,28,0.5,0.0625,35.0,-1,0.0,0.2684000000000424
253,28,0.5,0.125,35.0,1,1.0,0.580600000000004
254,28,0.5,0.125,35.0,1,1.0,0.1690000000000964
255,28,0.5,0.125,35.0,1,1.0,0.28670000000010987
256,28,0.5,0.25,35.0,1,1.0,0.15630000000010114
257,28,0.5,0.125,35.0,1,1.0,0.21500000000003183
258,28,0.5,0.0625,-35.0,1,0.0,0.15229999999996835
259,28,0.5,0.125,35.0,-1,0.0,0.31749999999999545
260,28,0.5,0.125,-35.0,-1,1.0,0.17170000000010077
261,28,0.5,1.0,35.0,1,1.0,1.1884000000001151
262,28,0.5,1.0,-35.0,-1,1.0,0.17870000000004893
263,28,0.5,0.125,35.0,1,1.0,0.2237000000001217
264,28,0.5,0.25,-35.0,1,0.0,0.1268000000000029
265,28,0.5,0.25,-35.0,-1,1.0,0.16919999999993252
266,28,0.5,0.25,35.0,1,1.0,0.17460000000005493
267,28,0.5,0.25,-35.0,-1,1.0,0.22900000000015552
268,28,0.5,0.0,35.0,1,1.0,0.2277000000000271
269,28,0.5,1.0,-35.0,-1,1.0,0.17799999999999727
270,28,0.5,1.0,-35.0,-1,1.0,0.19570000000010168
271,28,0.5,0.0,-35.0,1,0.0,0.20660000000009404
272,28,0.5,0.125,-35.0,-1,1.0,0.3285000000000764
273,28,0.5,0.25,-35.0,-1,1.0,0.12060000000008131
274,28,0.5,0.0625,35.0,-1,0.0,0.282799999999952
275,28,0.5,0.125,35.0,-1,0.0,0.37350000000003547
276,28,0.5,0.25,35.0,1,1.0,0.338100000000054
277,28,0.5,1.0,35.0,1,1.0,0.1150000000000091
278,28,0.5,1.0,35.0,1,1.0,0.22940000000005512
279,28,0.5,0.125,35.0,1,1.0,0.34740000000010696
280,28,0.5,0.125,-35.0,-1,1.0,0.2635999999999967
281,28,0.5,1.0,-35.0,-1,1.0,0.1812999999999647
282,28,0.5,0.25,-35.0,-1,1.0,0.2540000000000191
283,28,0.5,1.0,-35.0,-1,1.0,0.18509999999992033
284,28,0.5,0.25,-35.0,-1,1.0,0.425200000000018
285,28,0.5,0.25,35.0,1,1.0,0.16280000000006112
286,28,0.5,1.0,35.0,1,1.0,0.37010000000009313
287,28,0.5,0.125,-35.0,-1,1.0,0.2834000000001424
288,28,0.5,0.0625,35.0,-1,0.0,0.2131000000001677
289,28,0.5,0.0625,35.0,-1,0.0,0.5446999999999207
290,28,0.5,0.0625,-35.0,-1,1.0,0.1753000000001066
291,28,0.5,0.125,-35.0,-1,1.0,0.3612000000000535
292,28,0.5,1.0,-35.0,-1,1.0,0.2638000000000602
293,28,0.5,0.0625,35.0,1,1.0,0.3428000000001248
294,28,0.5,1.0,35.0,1,1.0,0.20260000000007494
295,28,0.5,0.25,-35.0,-1,1.0,0.1938000000000102
296,28,0.5,0.0,-35.0,-1,1.0,0.36850000000004
297,28,0.5,0.25,-35.0,-1,1.0,0.17870000000016262
298,28,0.5,0.25,-35.0,-1,1.0,0.38570000000004256
299,28,0.5,0.25,-35.0,-1,1.0,0.1287000000000944
300,28,0.5,0.25,-35.0,-1,1.0,0.17200000000013915
301,28,0.5,1.0,35.0,1,1.0,0.27540000000010423
302,28,0.5,1.0,35.0,1,1.0,0.20239999999989777
303,28,0.5,0.25,35.0,1,1.0,0.412199999999757
304,28,0.5,1.0,35.0,1,1.0,0.07240000000001601
305,28,0.5,1.0,-35.0,-1,1.0,0.2021999999997206
306,28,0.5,1.0,-35.0,-1,1.0,0.17880000000013752
307,28,0.5,0.0625,35.0,1,1.0,0.3890000000001237
308,28,0.5,0.125,35.0,1,1.0,0.18279999999981555
309,28,0.5,1.0,-35.0,-1,1.0,0.16590000000019245
310,28,0.5,1.0,35.0,1,1.0,0.278999999999769
311,28,0.5,0.0625,35.0,-1,0.0,0.42249999999989996
312,28,0.5,0.25,35.0,1,1.0,0.1994999999999436
313,28,0.5,0.0625,35.0,-1,0.0,0.6125999999999294
314,28,0.5,0.25,35.0,1,1.0,0.20919999999978245
315,28,0.5,1.0,35.0,1,1.0,0.22929999999996653
316,28,0.5,0.125,35.0,-1,0.0,0.2561000000000604
317,28,0.5,0.25,35.0,1,1.0,0.23630000000002838
318,28,0.5,0.125,-35.0,-1,1.0,0.19619999999986248
319,28,0.5,0.25,35.0,1,1.0,0.1798999999998614
320,28,0.5,0.0625,35.0,1,1.0,0.20959999999990941
321,28,0.5,0.0625,35.0,-1,0.0,0.4695999999999003
322,28,0.5,0.125,35.0,1,1.0,0.21949999999992542
323,28,0.5,0.25,35.0,1,1.0,0.2964999999999236
324,28,0.5,0.0,35.0,1,1.0,0.23620000000005348
325,28,0.5,1.0,35.0,1,1.0,0.15989999999987958
326,28,0.5,0.125,35.0,1,1.0,0.07659999999987122
327,28,0.5,0.0625,35.0,-1,0.0,0.2932999999998174
328,28,0.5,0.0,35.0,1,1.0,0.2233000000001084
329,28,0.5,0.0625,35.0,1,1.0,0.2568999999998596
330,28,0.5,0.125,-35.0,-1,1.0,0.19339999999988322
331,28,0.5,0.25,-35.0,1,0.0,0.3967999999999847
332,28,0.8,0.25,-35.0,-1,1.0,0.23699999999985266
333,28,0.5,1.0,-35.0,-1,1.0,0.23349999999982174
334,28,0.5,0.0625,-35.0,1,0.0,0.12019999999984066
335,28,0.5,0.0625,-35.0,1,0.0,0.31369999999992615
336,28,0.5,0.25,35.0,1,1.0,0.19709999999986394
337,28,0.5,1.0,35.0,1,1.0,0.18699999999989814
338,28,0.5,0.25,35.0,1,1.0,0.14689999999995962
339,28,0.5,1.0,-35.0,-1,1.0,0.2239999999999327
340,28,0.5,0.125,-35.0,1,0.0,0.15009999999983847
341,28,0.7,0.125,-35.0,-1,1.0,0.8740000000000236
342,28,0.5,1.0,-35.0,-1,1.0,0.1971000000000913
343,28,0.5,0.25,35.0,1,1.0,0.13400000000001455
344,28,0.5,0.25,35.0,1,1.0,0.6507000000001426
345,28,0.5,0.0625,35.0,1,1.0,0.25749999999993634
346,28,0.5,1.0,-35.0,-1,1.0,0.10759999999982028
347,28,0.5,1.0,35.0,1,1.0,0.25099999999997635
348,28,0.5,0.25,35.0,1,1.0,0.2508999999997741
349,28,0.5,0.0625,-35.0,1,0.0,0.15429999999992106
350,28,0.7,0.0625,-35.0,1,0.0,0.1275999999998021
351,28,0.5,1.0,35.0,1,1.0,0.21430000000009386
352,28,0.5,0.25,-35.0,-1,1.0,0.21070000000008804
353,28,0.5,0.0625,35.0,1,1.0,0.15420000000017353
354,28,0.5,0.125,-35.0,-1,1.0,0.6046000000001186
355,28,0.5,0.125,-35.0,-1,1.0,0.7345000000000255
356,28,0.5,1.0,-35.0,-1,1.0,0.171100000000024
357,28,0.5,0.25,-35.0,-1,1.0,0.0510999999996784
358,28,0.5,0.25,-35.0,-1,1.0,0.20100000000002183
359,28,0.5,0.125,-35.0,-1,1.0,0.14449999999987995
360,28,0.5,0.125,-35.0,-1,1.0,0.16439999999988686
361,28,0.5,0.25,35.0,1,1.0,0.9213999999997213
362,28,0.5,0.0625,-35.0,-1,1.0,0.11130000000002838
363,28,0.5,0.0,-35.0,-1,1.0,0.19509999999991123
364,28,0.5,1.0,35.0,1,1.0,0.1814999999999145
365,28,0.5,0.0625,-35.0,-1,1.0,3.8383999999996377
366,28,0.5,1.0,35.0,1,1.0,0.22820000000001528
367,28,0.5,0.125,-35.0,-1,1.0,0.21829999999999927
368,28,0.5,0.0,35.0,-1,0.0,0.721599999999853
369,28,0.5,0.125,35.0,-1,0.0,0.3616999999997006
370,28,0.5,0.25,-35.0,-1,1.0,0.26520000000004984
371,28,0.5,1.0,35.0,1,1.0,0.19539999999983593
372,28,0.5,1.0,35.0,1,1.0,0.1552999999998974
373,28,0.5,0.0625,-35.0,-1,1.0,0.29529999999999745
374,28,0.5,0.0,35.0,-1,0.0,0.2421999999999116
375,28,0.5,0.0625,-35.0,-1,1.0,0.2886000000000877
376,28,0.5,0.0,35.0,-1,0.0,0.5054000000000087
377,28,0.5,0.0625,-35.0,1,0.0,0.28530000000000655
378,28,0.5,0.25,-35.0,-1,1.0,0.21870000000012624
379,28,0.5,0.0625,35.0,1,1.0,0.3053999999997359
380,28,0.5,0.125,-35.0,-1,1.0,0.2221999999997024
381,28,0.5,0.125,-35.0,-1,1.0,2.2789000000000215
382,28,0.5,1.0,35.0,1,1.0,0.2056999999999789
383,28,0.5,0.0625,35.0,1,1.0,0.16229999999973188
384,28,0.5,0.25,-35.0,-1,1.0,0.17219999999997526
385,28,0.5,0.25,-35.0,-1,1.0,0.2057999999999538
386,28,0.5,0.125,-35.0,-1,1.0,0.19920000000001892
387,28,0.5,0.0,-35.0,-1,1.0,0.2424999999998363
388,28,0.5,0.0625,35.0,-1,0.0,0.3994000000000142
389,28,0.5,0.125,35.0,1,1.0,0.24569999999994252
390,28,0.5,0.125,35.0,-1,0.0,0.44929999999976644
391,28,0.5,0.125,35.0,1,1.0,0.2794000000001233
392,28,0.5,0.25,35.0,1,1.0,0.19270000000005894
393,28,0.5,0.0625,35.0,-1,0.0,0.2928999999999178
394,28,0.5,0.25,35.0,1,1.0,0.17609999999990578
395,28,0.5,0.25,-35.0,-1,1.0,0.21270000000004075
396,28,0.5,0.25,35.0,1,1.0,0.302599999999984
397,28,0.5,0.25,35.0,1,1.0,0.18269999999984066
398,28,0.5,0.0625,35.0,1,1.0,0.3061000000000149
399,28,0.5,0.125,35.0,1,1.0,0.24319999999966058
400,28,0.5,1.0,-35.0,-1,1.0,0.19639999999981228
401,28,0.5,0.125,-35.0,1,0.0,0.12980000000015934
402,28,0.5,0.0625,-35.0,-1,1.0,8.526400000000194
403,28,0.5,1.0,-35.0,-1,1.0,0.19329999999990832
404,28,0.5,0.0625,-35.0,-1,1.0,0.24979999999982283
405,28,0.5,1.0,-35.0,-1,1.0,0.18329999999991742
406,28,0.5,0.25,35.0,1,1.0,0.19670000000019172
407,28,0.5,0.25,35.0,1,1.0,0.3500000000001364
408,28,0.5,0.0625,-35.0,-1,1.0,0.29340000000001965
409,28,0.5,0.25,35.0,1,1.0,0.24340000000006512
410,28,0.5,1.0,-35.0,-1,1.0,0.18339999999989232
411,28,0.5,0.125,-35.0,-1,1.0,0.3934999999999036
412,28,0.5,0.125,-35.0,-1,1.0,0.47050000000012915
413,28,0.5,0.125,-35.0,-1,1.0,0.5202999999999065
414,28,0.5,0.125,35.0,1,1.0,0.31379999999990105
415,28,0.5,0.0625,-35.0,-1,1.0,0.20719999999982974
416,28,0.5,1.0,-35.0,-1,1.0,0.17039999999997235
417,28,0.5,0.125,35.0,-1,0.0,0.16709999999989122
418,28,0.2,0.125,35.0,-1,0.0,0.4072000000001026
419,28,0.5,1.0,35.0,1,1.0,0.25729999999998654
420,28,0.5,0.0625,-35.0,-1,1.0,0.7042000000001281
421,28,0.5,0.125,-35.0,-1,1.0,0.23089999999979227
422,28,0.5,0.0,35.0,-1,0.0,0.3207999999997355
423,28,0.5,0.0625,35.0,1,1.0,0.4273999999998068
424,28,0.5,0.125,35.0,1,1.0,0.21069999999986067
425,28,0.5,0.25,35.0,1,1.0,0.26739999999995234
426,28,0.5,0.25,-35.0,-1,1.0,0.24749999999994543
427,28,0.5,0.0,-35.0,1,0.0,0.25119999999992615
428,28,0.5,0.125,35.0,-1,0.0,0.24089999999978318
429,28,0.5,0.0,35.0,1,1.0,0.1940999999997075
430,28,0.5,0.125,35.0,1,1.0,0.33780000000001564
431,28,0.5,0.0,35.0,1,1.0,0.1777999999999338
432,28,0.5,1.0,35.0,1,1.0,0.14139999999974862
433,28,0.5,1.0,-35.0,-1,1.0,0.22450000000003456
434,28,0.5,0.125,-35.0,-1,1.0,1.9945999999999913
435,28,0.5,0.0625,35.0,1,1.0,0.1414999999999509
436,28,0.5,0.0,-35.0,1,0.0,19.914999999999964
437,28,0.7,0.0,-35.0,1,0.0,0.5716999999999643
438,28,0.5,1.0,35.0,1,1.0,0.13170000000013715
439,28,0.5,0.0,35.0,1,1.0,0.13859999999999673
440,28,0.5,0.0,-35.0,1,0.0,0.10519999999996799
441,28,0.8,0.0,35.0,1,1.0,0.2154000000000451
442,28,0.5,1.0,-35.0,-1,1.0,0.20199999999999818
443,28,0.5,0.0625,35.0,-1,0.0,0.4251999999999043
444,28,0.7,0.0625,-35.0,1,0.0,0.15889999999967586
445,28,0.5,1.0,-35.0,-1,1.0,0.16229999999995925
446,28,0.5,0.0625,-35.0,-1,1.0,4.741999999999962
447,28,0.5,0.0625,35.0,1,1.0,0.19229999999993197
448,28,0.5,0.0625,-35.0,-1,1.0,18.622299999999996
449,28,0.5,0.0625,-35.0,-1,1.0,5.386099999999715
450,28,0.5,0.125,-35.0,-1,1.0,0.22270000000003165
451,28,0.5,0.0625,-35.0,-1,1.0,0.11950000000001637
452,28,0.5,0.0625,-35.0,-1,1.0,0.2160999999998694
453,28,0.5,0.25,-35.0,-1,1.0,0.22929999999996653
454,28,0.5,1.0,-35.0,-1,1.0,0.2198000000000775
455,28,0.5,1.0,-35.0,-1,1.0,0.15289999999981774
456,28,0.5,0.0625,35.0,1,1.0,0.22640000000001237
457,28,0.5,0.25,35.0,1,1.0,0.24289999999996326
458,28,0.5,1.0,-35.0,-1,1.0,0.17649999999980537
459,28,0.5,0.125,-35.0,-1,1.0,0.3429999999998472
460,28,0.5,0.25,35.0,1,1.0,0.2062999999998283
461,28,0.5,1.0,35.0,1,1.0,0.19629999999983738
462,28,0.5,1.0,-35.0,-1,1.0,0.15309999999976753
463,28,0.5,0.125,35.0,1,1.0,0.25649999999996
464,28,0.5,0.125,-35.0,-1,1.0,0.2265999999997348
465,28,0.5,1.0,-35.0,-1,1.0,0.2200999999997748
466,28,0.5,0.0625,35.0,-1,0.0,0.3301000000001295
467,28,0.5,0.0,35.0,1,1.0,0.26999999999975444
468,28,0.5,1.0,35.0,1,1.0,0.2200999999997748
469,28,0.5,0.0,35.0,-1,0.0,15.886499999999842
470,28,0.5,0.0,-35.0,-1,1.0,0.27369999999996253
471,28,0.5,1.0,-35.0,-1,1.0,0.1437999999998283
472,28,0.5,0.125,-35.0,-1,1.0,0.14709999999968204
473,28,0.5,0.125,35.0,-1,0.0,0.11040099999991071
474,28,0.5,0.25,-35.0,-1,1.0,0.22100099999988743
475,28,0.5,0.25,-35.0,-1,1.0,0.02720099999987724
476,28,0.5,1.0,-35.0,-1,1.0,0.1407010000000355
477,28,0.5,0.0,35.0,-1,0.0,0.38400099999989834
478,28,0.5,0.0625,-35.0,-1,1.0,0.09400099999970735
479,28,0.5,0.0625,-35.0,-1,1.0,0.34100100000000566
480,28,0.5,0.125,-35.0,-1,1.0,0.2640009999997801
481,28,0.5,0.125,35.0,1,1.0,0.1509009999999762
482,28,0.5,0.0625,35.0,-1,0.0,0.19750100000010207
483,28,0.5,0.25,-35.0,-1,1.0,0.20420100000001185
484,28,0.5,0.0,-35.0,1,0.0,0.16110100000014427
485,28,0.5,0.0,35.0,-1,0.0,4.941000999999915
486,28,0.5,0.125,35.0,1,1.0,0.2210010000001148
487,28,0.5,0.0625,-35.0,-1,1.0,0.5144009999999071
488,28,0.5,0.125,-35.0,-1,1.0,0.1977009999998245
489,28,0.5,0.0625,35.0,-1,0.0,0.2844009999998889
490,28,0.3,0.0625,-35.0,-1,1.0,0.1910009999999147
491,28,0.5,1.0,35.0,1,1.0,0.30480099999999766
492,28,0.5,0.25,35.0,-1,0.0,0.19470099999989543
493,28,0.5,0.125,35.0,-1,0.0,0.36140099999988706
494,28,0.3,0.125,35.0,-1,0.0,0.1914009999998143
495,28,0.5,1.0,35.0,1,1.0,0.24490099999979975
496,28,0.5,0.25,35.0,1,1.0,0.17470099999991362
497,28,0.5,0.0,-35.0,-1,1.0,0.34520099999986087
498,28,0.5,1.0,35.0,1,1.0,0.28500099999996564
499,28,0.5,0.0625,-35.0,-1,1.0,0.2681009999998878
500,28,0.5,0.0625,35.0,-1,0.0,0.21510099999977683
501,28,0.5,0.25,35.0,1,1.0,0.26490100000000893
502,28,0.5,0.125,-35.0,-1,1.0,0.20150100000000748
503,28,0.5,0.25,35.0,-1,0.0,0.3952009999998154
504,28,0.5,0.125,-35.0,-1,1.0,0.21180099999992308
505,28,0.5,1.0,-35.0,-1,1.0,0.2055009999999129
506,28,0.5,1.0,35.0,1,1.0,0.20860099999981685
507,28,0.5,0.0,-35.0,-1,1.0,0.20190099999990707
508,28,0.5,0.125,35.0,-1,0.0,0.22510099999976774
509,28,0.5,0.125,-35.0,-1,1.0,0.26220100000000457
510,28,0.5,0.0625,35.0,1,1.0,0.585501000000022
511,28,0.5,0.0625,35.0,-1,0.0,0.5422009999999773
512,28,0.5,0.125,35.0,-1,0.0,0.2756010000000515
513,28,0.5,0.0625,35.0,1,1.0,0.10880100000008497
514,28,0.5,0.0,-35.0,-1,1.0,10.712100999999848
515,28,0.5,0.125,35.0,1,1.0,0.23240099999975428
516,28,0.5,1.0,35.0,1,1.0,0.13570099999992635
517,28,0.5,0.25,35.0,1,1.0,0.13240099999984523
518,28,0.5,0.25,-35.0,-1,1.0,0.2158009999998285
519,28,0.5,0.125,-35.0,-1,1.0,0.6093009999999595
520,28,0.5,0.25,35.0,1,1.0,0.19270099999971535
521,28,0.5,0.0625,35.0,1,1.0,0.3592009999997572
522,28,0.5,0.25,-35.0,-1,1.0,2.0229009999998198
523,28,0.5,0.25,-35.0,-1,1.0,0.1795009999998456
524,28,0.5,0.0625,-35.0,-1,1.0,0.2762009999999009
525,28,0.5,0.125,-35.0,-1,1.0,0.15630099999998492
526,28,0.5,1.0,35.0,1,1.0,0.26640100000008715
527,28,0.5,0.0625,-35.0,1,0.0,0.16970100000003185
528,28,0.5,0.0625,35.0,1,1.0,0.24330099999974664
529,28,0.5,0.0625,35.0,1,1.0,0.18620099999975537
530,28,0.5,0.25,-35.0,-1,1.0,0.25660099999981867
531,28,0.5,0.0625,35.0,1,1.0,0.249800999999934
532,28,0.5,0.125,35.0,1,1.0,0.24660099999982776
533,28,0.5,0.0625,-35.0,-1,1.0,0.3134010000001126
534,28,0.5,1.0,-35.0,-1,1.0,0.13330099999984668
535,28,0.5,0.125,35.0,1,1.0,0.056700999999975465
536,28,0.5,0.25,-35.0,-1,1.0,0.223500999999942
537,28,0.5,0.0625,35.0,1,1.0,0.29340099999990343
538,28,0.5,1.0,35.0,1,1.0,0.20000099999992926
539,28,0.5,0.25,35.0,1,1.0,0.25690099999974336
540,28,0.5,0.125,-35.0,-1,1.0,1.8036010000000715
541,28,0.5,0.0625,35.0,-1,0.0,6.857400999999754
542,28,0.5,0.25,-35.0,-1,1.0,0.19040099999983795
543,28,0.5,0.125,35.0,1,1.0,0.2940009999999802
544,28,0.5,0.0625,-35.0,-1,1.0,0.30740099999979975
545,28,0.5,0.125,-35.0,-1,1.0,0.24390100000005077
546,28,0.5,1.0,-35.0,-1,1.0,-0.01259899999990921
547,28,0.5,0.125,35.0,1,1.0,0.25060099999996055
548,28,0.5,0.125,-35.0,-1,1.0,0.20400099999983468
549,28,0.5,0.25,-35.0,-1,1.0,0.17410099999983686
550,28,0.5,0.125,-35.0,-1,1.0,0.21410099999980048
551,28,0.5,0.125,35.0,-1,0.0,0.551001000000042
552,28,0.2,0.125,35.0,-1,0.0,0.33750099999997474
553,28,0.5,1.0,35.0,1,1.0,0.23090099999990343
554,28,0.5,0.0,35.0,-1,0.0,0.6410009999999602
555,28,0.5,0.0625,-35.0,-1,1.0,0.274400999999898
556,28,0.5,0.0,-35.0,-1,1.0,0.2045010000001639
557,28,0.5,0.0,35.0,-1,0.0,0.3976009999996677
558,28,0.5,0.125,-35.0,-1,1.0,0.2978009999999358
559,28,0.5,0.25,35.0,1,1.0,0.21130099999982122
560,28,0.5,0.0625,35.0,-1,0.0,0.16440099999999802
561,28,0.5,0.125,-35.0,-1,1.0,0.23140100000023267
562,28,0.5,0.25,-35.0,-1,1.0,0.22450099999991835
563,28,0.5,0.125,35.0,1,1.0,0.271300999999994
564,28,0.5,0.0625,35.0,1,1.0,0.4914009999999962
565,28,0.5,0.25,35.0,1,1.0,0.27160099999969134
566,28,0.5,0.0,35.0,1,1.0,0.2415009999999711
567,28,0.5,0.0,35.0,1,1.0,0.20820099999968988
568,28,0.5,0.25,-35.0,-1,1.0,0.25510099999974045
569,28,0.5,0.125,35.0,1,1.0,0.06480099999953381
570,28,0.5,0.0625,-35.0,-1,1.0,0.24180099999966842
571,28,0.5,0.25,35.0,1,1.0,0.24500099999977465
572,28,0.5,0.0,-35.0,-1,1.0,0.18160100000022794
573,28,0.5,1.0,-35.0,-1,1.0,0.22210099999983868
574,28,0.5,0.25,35.0,1,1.0,0.08500099999992017
575,28,0.5,1.0,35.0,1,1.0,0.19180099999994127
576,28,0.5,0.125,35.0,-1,0.0,0.3919010000004164
577,28,0.5,0.125,-35.0,-1,1.0,0.23850099999981467
578,28,0.5,0.25,35.0,1,1.0,0.2822010000004411
579,28,0.5,0.25,-35.0,-1,1.0,0.18880099999978484
580,28,0.5,0.125,35.0,1,1.0,0.2452010000001792
581,28,0.5,0.25,35.0,1,1.0,5.045300999999654
582,28,0.5,0.0625,-35.0,-1,1.0,1.9556010000001152
583,28,0.5,0.125,-35.0,-1,1.0,0.3889009999998052
584,28,0.5,0.25,-35.0,-1,1.0,0.1990009999999529
585,28,0.5,0.125,-35.0,-1,1.0,0.2356009999998605
586,28,0.5,0.0625,-35.0,-1,1.0,0.20590099999981248
587,28,0.5,0.0,35.0,-1,0.0,0.10590099999990343
588,28,0.5,0.0625,-35.0,-1,1.0,0.1792009999999209
589,28,0.5,0.25,-35.0,-1,1.0,0.19270100000039747
590,28,0.5,0.25,-35.0,-1,1.0,0.21930099999963204
591,28,0.5,0.125,-35.0,-1,1.0,0.22980099999995218
592,28,0.5,0.0625,-35.0,-1,1.0,0.23970099999951344
593,28,0.5,0.0,-35.0,-1,1.0,0.21620099999972808
594,28,0.5,0.25,35.0,-1,0.0,0.26980099999946106
595,28,0.5,0.125,-35.0,-1,1.0,0.2598009999996975
596,28,0.5,1.0,-35.0,-1,1.0,0.16990099999975428
597,28,0.5,0.25,35.0,1,1.0,0.3062009999998736
598,28,0.5,0.0625,-35.0,-1,1.0,0.2332010000000082
599,28,0.5,0.125,35.0,-1,0.0,0.2198009999997339
600,28,0.5,0.0,-35.0,-1,1.0,7.359800999999607
601,28,0.5,0.25,35.0,1,1.0,0.25320099999953527
602,28,0.5,0.0,-35.0,-1,1.0,0.49340099999972153
603,28,0.5,1.0,-35.0,-1,1.0,0.26320099999975355
604,28,0.5,0.25,35.0,1,1.0,0.10000100000024759
605,28,0.5,0.25,35.0,1,1.0,0.22020100000008824
606,28,0.5,0.25,-35.0,-1,1.0,0.25380100000029415
607,28,0.5,0.25,35.0,1,1.0,0.23690099999976155
608,28,0.5,0.0,35.0,-1,0.0,0.3538010000002032
609,28,0.5,0.25,-35.0,-1,1.0,0.3170010000003458
610,28,0.5,0.25,35.0,1,1.0,0.2371010000001661
611,28,0.5,0.0,-35.0,-1,1.0,0.16690099999959784
612,28,0.5,1.0,35.0,1,1.0,0.2373010000001159
613,28,0.5,0.0625,-35.0,-1,1.0,0.22050099999978556
614,28,0.5,0.25,35.0,1,1.0,0.20700099999976374
615,28,0.5,0.25,35.0,1,1.0,0.18040100000007442
616,28,0.5,0.125,35.0,1,1.0,0.23390100000005987
617,28,0.5,0.125,-35.0,-1,1.0,0.24080099999991944
618,28,0.5,0.125,35.0,1,1.0,0.23090099999990343
619,28,0.5,0.25,35.0,-1,0.0,0.420900999999958
620,28,0.6,0.25,35.0,1,1.0,0.2507010000003902
621,28,0.5,1.0,-35.0,-1,1.0,0.18760100000008606
622,28,0.5,0.25,-35.0,-1,1.0,0.18760100000008606
623,28,0.5,0.0625,35.0,1,1.0,0.12090100000023085
624,28,0.5,0.0625,35.0,-1,0.0,0.19090100000039456
625,28,0.5,0.25,-35.0,-1,1.0,0.27410099999951854
626,28,0.5,1.0,-35.0,-1,1.0,0.18770100000028833
627,28,0.5,1.0,-35.0,-1,1.0,0.1842009999995753
628,28,0.5,1.0,-35.0,-1,1.0,0.17800100000022212
629,28,0.5,1.0,-35.0,-1,1.0,0.1512009999996735
630,28,0.5,0.25,-35.0,-1,1.0,0.21420099999977538
631,28,0.5,0.25,35.0,-1,0.0,0.15760100000034072
632,28,0.5,0.0,-35.0,-1,1.0,0.7980009999996582
633,28,0.5,1.0,35.0,1,1.0,0.20150100000000748
634,28,0.5,0.25,35.0,-1,0.0,0.3351009999996677
635,28,0.5,0.0,35.0,-1,0.0,0.34150099999988015
636,28,0.5,0.125,35.0,1,1.0,0.38150099999984377
637,28,0.5,1.0,35.0,1,1.0,0.24810100000013335
638,28,0.5,0.0625,35.0,-1,0.0,1.111500999999862
639,28,0.5,0.0,35.0,-1,0.0,0.4416009999999915
640,28,0.5,0.0625,35.0,-1,0.0,0.24850100000003295
641,28,0.5,0.0625,35.0,-1,0.0,0.22200100000009115
642,28,0.3,0.0625,35.0,1,1.0,0.21510099999977683
643,28,0.5,1.0,35.0,1,1.0,0.1952009999999973
644,28,0.5,0.125,35.0,1,1.0,0.17520100000001548
645,28,0.5,0.0625,-35.0,1,0.0,0.13210099999969316
646,28,0.6,0.0625,-35.0,-1,1.0,0.17540099999996528
647,28,0.5,1.0,35.0,1,1.0,0.24530099999992672
648,28,0.5,0.0625,-35.0,-1,1.0,0.8086009999997259
649,28,0.5,0.0625,35.0,-1,0.0,0.27880099999993035
650,28,0.5,0.0625,35.0,-1,0.0,0.25880099999994854
651,28,0.5,0.125,35.0,1,1.0,0.18920099999968443
652,28,0.5,0.125,-35.0,-1,1.0,0.1790009999999711
653,28,0.5,0.125,-35.0,-1,1.0,0.24560100000007878
654,28,0.5,1.0,35.0,1,1.0,0.2626009999994494
655,28,0.5,0.25,-35.0,-1,1.0,0.2292010000001028
656,28,0.5,0.0625,-35.0,-1,1.0,0.24250100000017483
657,28,0.5,0.125,35.0,-1,0.0,0.20580100000006496
658,28,0.5,0.0625,35.0,1,1.0,0.12250099999982922
659,28,0.5,0.25,-35.0,-1,1.0,0.2791010000000824
660,28,0.5,0.25,-35.0,-1,1.0,0.1959009999995942
661,28,0.5,0.0625,-35.0,-1,1.0,0.21240099999977247
662,28,0.5,0.125,-35.0,-1,1.0,0.26280099999985396
663,28,0.5,0.0625,-35.0,-1,1.0,0.25620100000014645
664,28,0.5,0.125,-35.0,-1,1.0,0.28970099999969534
665,28,0.5,0.0625,35.0,1,1.0,0.7492010000000846
666,28,0.5,0.0,-35.0,-1,1.0,0.4897009999999682
667,28,0.5,0.0625,-35.0,-1,1.0,0.2297009999997499
668,28,0.5,0.0625,-35.0,-1,1.0,0.24950099999978192
669,28,0.5,0.25,-35.0,-1,1.0,0.21620099999972808
670,28,0.5,0.0625,-35.0,-1,1.0,0.21310100000027887
671,28,0.5,0.0625,35.0,1,1.0,0.2130010000000766
672,28,0.5,0.0625,35.0,1,1.0,0.2632010000002083
673,28,0.5,0.0625,35.0,-1,0.0,0.326600999999755
674,28,0.3,0.0625,-35.0,-1,1.0,0.24650100000008024
675,28,0.5,1.0,35.0,1,1.0,0.37000099999977465
676,28,0.5,0.25,-35.0,-1,1.0,0.2703009999995629
677,28,0.5,0.125,-35.0,-1,1.0,0.25330099999973754
678,28,0.5,1.0,35.0,1,1.0,0.14340099999981248
679,28,0.5,0.125,35.0,-1,0.0,0.24360100000012608
680,28,0.4,0.125,-35.0,-1,1.0,0.20670100000006641
681,28,0.5,1.0,-35.0,-1,1.0,0.31680099999994127
682,28,0.5,0.25,35.0,-1,0.0,0.1671010000000024
683,28,0.5,0.0,-35.0,1,0.0,0.22710099999994782
684,28,0.3,0.0,35.0,-1,0.0,0.26700099999970917
685,28,0.5,1.0,35.0,1,1.0,0.28040099999998347
686,28,0.5,1.0,-35.0,-1,1.0,0.17040099999985614
687,28,0.5,0.125,35.0,1,1.0,0.29700099999990925
688,28,0.5,0.25,35.0,1,1.0,0.3038010000000213
689,28,0.5,0.125,-35.0,-1,1.0,0.22080099999993763
690,28,0.5,1.0,35.0,1,1.0,0.14740100000017264
691,28,0.5,1.0,35.0,-1,0.0,0.3141009999999369
692,28,0.5,0.125,-35.0,-1,1.0,0.2239009999998416
693,28,0.5,0.125,-35.0,-1,1.0,0.180800999999974
694,28,0.5,0.25,35.0,1,1.0,0.2409010000001217
695,28,0.5,0.25,-35.0,-1,1.0,0.1810009999999238
696,28,0.5,1.0,-35.0,-1,1.0,0.20440099999996164
697,28,0.5,0.0625,35.0,-1,0.0,0.4409009999999398
698,28,0.5,0.25,-35.0,-1,1.0,0.18410099999982776
699,28,0.5,1.0,-35.0,-1,1.0,0.13740099999995437
700,28,0.5,0.125,35.0,-1,0.0,0.5913010000003851
701,28,0.5,0.25,-35.0,-1,1.0,0.17760099999986778
702,28,0.5,1.0,-35.0,-1,1.0,0.14770099999986996
703,28,0.5,0.0625,-35.0,-1,1.0,0.28110100000003513
704,28,0.5,0.125,35.0,-1,0.0,0.32760099999995873
705,28,0.5,0.125,35.0,1,1.0,1.5081009999998969
706,28,0.5,1.0,-35.0,-1,1.0,0.2014009999998052
707,28,0.5,1.0,-35.0,-1,1.0,0.16800100000000384
708,28,0.5,0.125,-35.0,-1,1.0,0.1946010000001479
709,28,0.5,0.25,35.0,1,1.0,0.2581009999998969
710,28,0.5,0.0625,-35.0,-1,1.0,0.20480099999986123
711,28,0.5,0.0625,35.0,-1,0.0,0.445100999999795
712,28,0.2,0.0625,35.0,1,1.0,0.4616009999999733
713,28,0.5,1.0,35.0,1,1.0,0.20150099999955273
714,28,0.5,1.0,-35.0,-1,1.0,0.15510100000028615
715,28,0.5,0.25,35.0,-1,0.0,0.24860099999978047
716,28,0.5,0.125,-35.0,-1,1.0,0.18170099999952072
717,28,0.5,0.0,35.0,-1,0.0,18.858601000000363
718,28,0.5,0.25,35.0,1,1.0,0.2455009999998765
719,28,0.5,0.0625,35.0,-1,0.0,0.6956009999994421
720,28,0.5,0.125,35.0,1,1.0,0.3055010000002767
721,28,0.5,1.0,-35.0,-1,1.0,0.3022009999999682
722,28,0.5,0.125,-35.0,-1,1.0,0.3026009999998678
723,28,0.5,0.125,35.0,1,1.0,0.17910099999971862
724,28,0.5,0.0,-35.0,1,0.0,0.32870099999991
725,28,0.5,0.0625,-35.0,-1,1.0,0.25250099999993836
726,28,0.5,0.25,35.0,1,1.0,0.34910099999933664
727,28,0.5,0.125,-35.0,-1,1.0,0.39230099999986123
728,28,0.5,0.125,35.0,1,1.0,0.3890010000000075
729,28,0.5,0.25,-35.0,-1,1.0,0.18260099999997692
730,28,0.5,0.125,-35.0,-1,1.0,0.16270099999974263
731,28,0.5,0.0625,-35.0,-1,1.0,0.20620099999996455
732,28,0.5,0.125,-35.0,-1,1.0,0.1858009999996284
733,28,0.5,0.0625,-35.0,-1,1.0,0.2859009999997397
734,28,0.5,0.25,-35.0,-1,1.0,0.1895009999998365
735,28,0.5,0.125,35.0,-1,0.0,8.779801000000134
736,28,0.5,0.125,35.0,1,1.0,4.1896010000004935
737,28,0.5,1.0,-35.0,-1,1.0,0.19960100000025705
738,28,0.5,0.0625,35.0,-1,0.0,0.6830009999998765
739,28,0.5,0.0625,-35.0,-1,1.0,0.16990099999975428
740,28,0.5,0.0625,-35.0,-1,1.0,0.1531009999998787
741,28,0.5,0.25,-35.0,-1,1.0,0.1897009999997863
742,28,0.5,0.125,-35.0,-1,1.0,0.5101010000003043
743,28,0.5,0.25,-35.0,-1,1.0,0.18330099999957383
744,28,0.5,0.125,-35.0,-1,1.0,0.20680099999981394
745,28,0.5,0.0625,-35.0,-1,1.0,0.2501009999996313
746,28,0.5,0.0,35.0,-1,0.0,0.2268010000002505
747,28,0.5,0.0,-35.0,-1,1.0,0.3004009999999653
748,28,0.5,0.0625,-35.0,-1,1.0,0.22020100000008824
749,28,0.5,0.125,-35.0,-1,1.0,0.2502009999998336
750,28,0.5,0.25,-35.0,-1,1.0,0.24030099999981758
751,28,0.5,0.0625,35.0,1,1.0,0.3371009999996204
752,28,0.5,1.0,-35.0,-1,1.0,0.09710099999983868
753,28,0.5,0.25,-35.0,-1,1.0,0.16030099999989034
754,28,0.5,0.0,35.0,-1,0.0,0.1505010000000766
