trial_num,session_num,stim_probability_left,contrast,position,response_choice,trial_correct,reaction_time
1,1,0.2,0.0625,35.0,1,1.0,0.3669
2,1,0.2,1.0,-35.0,-1,1.0,0.29740000000000144
3,1,0.2,0.125,35.0,-1,0.0,0.3744999999999994
4,1,0.2,0.0625,-35.0,-1,1.0,0.31389999999999674
5,1,0.2,0.0625,35.0,1,1.0,0.23179999999999623
6,1,0.2,1.0,35.0,-1,0.0,0.17059999999999675
7,1,0.2,1.0,35.0,1,1.0,0.2458000000000098
8,1,0.2,1.0,35.0,1,1.0,2.3072000000000017
9,1,0.2,1.0,35.0,1,1.0,0.20010000000000616
10,1,0.2,0.0,35.0,-1,0.0,7.863200000000006
11,1,0.2,0.0625,-35.0,-1,1.0,1.3877000000000024
12,1,0.2,0.25,35.0,1,1.0,2.6122999999999905
13,1,0.2,0.25,35.0,-1,0.0,0.32219999999999516
14,1,0.2,0.125,35.0,1,1.0,7.655900000000003
15,1,0.2,0.25,35.0,-1,0.0,0.2506000000000057
16,1,0.2,0.25,35.0,-1,0.0,0.30509999999999593
17,1,0.2,1.0,35.0,1,1.0,0.24510000000000787
18,1,0.2,0.125,35.0,-1,0.0,0.4030000000000058
19,1,0.2,0.125,35.0,1,1.0,0.41559999999999775
20,1,0.2,0.0625,35.0,1,1.0,3.9893000000000143
21,1,0.2,0.25,35.0,1,1.0,0.5297000000000054
22,1,0.2,1.0,35.0,1,1.0,0.22380000000001132
23,1,0.2,0.25,35.0,1,1.0,0.3558000000000021
24,1,0.2,0.125,35.0,1,1.0,0.5683999999999969
25,1,0.2,0.0,35.0,1,1.0,0.4706989999999962
26,1,0.2,0.25,35.0,1,1.0,3.0774999999999864
27,1,0.2,0.25,35.0,1,1.0,0.3313999999999737
28,1,0.2,0.125,35.0,1,1.0,0.2755999999999972
29,1,0.2,0.25,-35.0,1,0.0,0.28290000000001214
30,1,0.2,0.0625,35.0,1,1.0,0.1927000000000021
31,1,0.2,0.125,-35.0,-1,1.0,0.3740999999999701
32,1,0.2,1.0,35.0,1,1.0,0.5466000000000122
33,1,0.8,0.125,35.0,1,1.0,0.28770000000000095
34,1,0.8,0.125,-35.0,1,0.0,0.23120000000000118
35,1,0.8,1.0,-35.0,-1,1.0,0.26990000000003533
36,1,0.8,0.125,-35.0,1,0.0,0.24239999999997508
37,1,0.8,0.125,-35.0,1,0.0,0.199799999999982
38,1,0.8,0.0625,-35.0,-1,1.0,0.22159999999999513
39,1,0.8,0.0625,-35.0,-1,1.0,2.746700000000004
40,1,0.8,1.0,-35.0,-1,1.0,0.4338999999999942
41,1,0.8,0.125,-35.0,1,0.0,0.3773999999999944
42,1,0.8,0.0625,-35.0,-1,1.0,5.109100000000012
43,1,0.8,0.25,-35.0,-1,1.0,0.5270999999999901
44,1,0.8,0.125,35.0,1,1.0,3.4968999999999824
45,1,0.8,0.125,-35.0,-1,1.0,0.44530000000000314
46,1,0.8,0.125,-35.0,1,0.0,3.3114000000000203
47,1,0.8,1.0,-35.0,-1,1.0,0.24660000000002924
48,1,0.8,0.25,-35.0,-1,1.0,0.23950000000002092
49,1,0.8,0.125,-35.0,-1,1.0,0.39040000000002806
50,1,0.8,0.0,-35.0,1,0.0,0.8807999999999936
51,1,0.8,0.25,-35.0,-1,1.0,0.49310000000002674
52,1,0.8,0.0625,-35.0,1,0.0,7.011799999999994
53,1,0.8,0.25,35.0,-1,0.0,0.24589900000000853
54,1,0.8,0.25,-35.0,-1,1.0,0.4522000000000048
55,1,0.2,0.0625,35.0,1,1.0,0.5228000000000179
56,1,0.2,0.125,35.0,1,1.0,0.2575000000000216
57,1,0.2,0.25,35.0,1,1.0,0.3280000000000314
58,1,0.2,0.0,35.0,1,1.0,3.019700000000057
59,1,0.2,0.125,35.0,1,1.0,0.703899999999976
60,1,0.2,0.0625,35.0,1,1.0,0.283299999999997
61,1,0.2,0.125,35.0,1,1.0,2.8140000000000214
62,1,0.2,0.125,35.0,1,1.0,0.552599999999984
63,1,0.2,0.25,35.0,1,1.0,0.4300000000000068
64,1,0.2,0.0625,35.0,1,1.0,0.16530000000005884
65,1,0.2,0.25,35.0,1,1.0,0.392599999999959
66,1,0.2,1.0,35.0,1,1.0,0.286200000000008
67,1,0.2,0.25,35.0,1,1.0,0.5040000000000191
68,1,0.2,0.25,35.0,1,1.0,0.5898999999999432
69,1,0.2,1.0,35.0,1,1.0,0.6420999999999708
70,1,0.2,0.0,35.0,1,1.0,0.7375999999999863
71,1,0.2,0.25,35.0,1,1.0,0.5217000000000098
72,1,0.2,0.0625,35.0,1,1.0,1.6412000000000262
73,1,0.2,0.125,-35.0,1,0.0,1.9180000000000064
74,1,0.2,0.0625,35.0,1,1.0,0.2936000000000263
75,1,0.2,0.0625,-35.0,1,0.0,2.70150000000001
76,1,0.2,1.0,35.0,1,1.0,0.212600000000009
77,1,0.2,1.0,35.0,1,1.0,0.5416999999999916
78,1,0.2,0.0,35.0,1,1.0,1.5810000000000173
79,1,0.2,1.0,35.0,1,1.0,0.3129999999999882
80,1,0.2,1.0,35.0,1,1.0,0.42029999999999745
81,1,0.2,0.125,35.0,1,1.0,1.2356999999999516
82,1,0.2,1.0,35.0,1,1.0,0.24179999999995516
83,1,0.2,0.0,-35.0,1,0.0,1.374900000000025
84,1,0.2,0.0625,35.0,1,1.0,0.2957000000000676
85,1,0.2,1.0,35.0,1,1.0,0.7021000000000299
86,1,0.2,0.25,-35.0,1,0.0,1.1473999999999478
87,1,0.2,0.0625,35.0,1,1.0,0.33670000000000755
88,1,0.2,1.0,35.0,1,1.0,0.23140000000000782
89,1,0.2,0.0,35.0,1,1.0,0.27129999999999654
90,1,0.2,0.25,-35.0,-1,1.0,1.5179999999999723
91,1,0.2,0.125,-35.0,1,0.0,0.3002999999999929
92,1,0.2,0.25,35.0,1,1.0,0.48490000000003874
93,1,0.2,0.125,35.0,1,1.0,0.4327999999999861
94,1,0.2,1.0,35.0,1,1.0,0.27290000000004966
95,1,0.2,0.0,35.0,1,1.0,0.4592000000000098
96,1,0.2,0.0625,35.0,1,1.0,0.2669999999999959
97,1,0.2,0.125,-35.0,1,0.0,1.2521000000000413
98,1,0.2,0.125,-35.0,1,0.0,0.9496000000000322
99,1,0.2,0.125,35.0,1,1.0,0.7093999999999596
100,1,0.2,1.0,35.0,1,1.0,2.9202999999999975
101,1,0.2,0.25,35.0,-1,0.0,2.619700000000023
102,1,0.2,0.0625,35.0,1,1.0,0.655900000000031
103,1,0.2,0.125,35.0,1,1.0,0.4825999999999908
104,1,0.2,1.0,35.0,1,1.0,0.4228999999999701
105,1,0.2,0.0625,35.0,1,1.0,0.6373000000000388
106,1,0.2,0.0625,35.0,1,1.0,0.48619999999999663
107,1,0.2,1.0,35.0,1,1.0,0.27940000000000964
108,1,0.2,0.0625,35.0,1,1.0,0.2826000000000022
109,1,0.2,0.125,35.0,1,1.0,0.2751999999999839
110,1,0.2,0.0625,-35.0,1,0.0,0.2085999999999899
111,1,0.2,1.0,35.0,1,1.0,0.42799999999999727
112,1,0.2,0.125,-35.0,-1,1.0,0.6695000000000277
113,1,0.2,0.25,35.0,1,1.0,0.3209000000000515
114,1,0.2,1.0,35.0,1,1.0,0.3450000000000273
115,1,0.2,0.0625,-35.0,1,0.0,0.35870000000005575
116,1,0.2,0.25,35.0,1,1.0,0.266900000000021
117,1,0.2,0.125,35.0,1,1.0,0.45589999999998554
118,1,0.2,1.0,-35.0,-1,1.0,0.2318000000000211
119,1,0.2,0.0625,35.0,1,1.0,0.5214000000000283
120,1,0.2,1.0,35.0,1,1.0,0.2481999999999971
121,1,0.2,0.125,-35.0,-1,1.0,1.568300000000022
122,1,0.2,0.0625,35.0,1,1.0,0.633700000000033
123,1,0.2,0.125,35.0,1,1.0,0.414100000000019
124,1,0.2,0.25,35.0,1,1.0,0.3131999999999948
125,1,0.2,0.0625,35.0,1,1.0,0.5100999999999658
126,1,0.2,0.0625,35.0,1,1.0,1.0246999999999957
127,1,0.2,0.0,35.0,1,1.0,7.7386000000000195
128,1,0.2,0.125,35.0,1,1.0,0.598700000000008
129,1,0.2,0.25,35.0,1,1.0,0.4797999999999547
130,1,0.8,0.125,-35.0,-1,1.0,0.3225000000001046
131,1,0.8,0.0625,-35.0,1,0.0,0.5126999999999953
132,1,0.8,0.25,-35.0,-1,1.0,0.8192000000000235
133,1,0.8,0.25,-35.0,-1,1.0,0.21690000000000964
134,1,0.8,0.0625,-35.0,1,0.0,0.5466999999999871
135,1,0.8,1.0,-35.0,-1,1.0,0.23149999999998272
136,1,0.8,1.0,-35.0,-1,1.0,0.5083999999999378
137,1,0.8,0.0625,-35.0,1,0.0,9.278299999999945
138,1,0.8,0.25,35.0,1,1.0,0.47879999999997835
139,1,0.8,0.25,-35.0,-1,1.0,0.15579999999999927
140,1,0.8,0.25,-35.0,-1,1.0,0.4116999999999962
141,1,0.8,0.25,-35.0,-1,1.0,0.2078999999998814
142,1,0.8,0.0625,-35.0,-1,1.0,4.4775999999999385
143,1,0.8,0.125,-35.0,-1,1.0,0.5923000000000229
144,1,0.8,0.0625,-35.0,-1,1.0,0.8607000000000653
145,1,0.8,0.0625,-35.0,1,0.0,9.182300000000055
146,1,0.8,1.0,35.0,1,1.0,0.5110999999999422
147,1,0.8,0.0,-35.0,1,0.0,4.34839999999997
148,1,0.8,0.25,-35.0,-1,1.0,0.3243000000001075
149,1,0.8,0.25,-35.0,-1,1.0,4.9570999999999685
150,1,0.8,1.0,-35.0,-1,1.0,0.6901000000000295
151,1,0.8,1.0,35.0,1,1.0,0.2359000000000151
152,1,0.8,0.25,-35.0,-1,1.0,0.9529999999999745
153,1,0.8,0.25,35.0,1,1.0,0.422800000000052
154,1,0.8,0.125,-35.0,-1,1.0,0.7065999999999804
155,1,0.8,0.125,-35.0,1,0.0,6.161000000000058
156,1,0.8,0.0,-35.0,1,0.0,1.3652999999999338
157,1,0.8,0.0625,-35.0,1,0.0,0.519800000000032
158,1,0.8,1.0,-35.0,-1,1.0,0.6313999999999851
159,1,0.8,0.25,-35.0,-1,1.0,0.5229000000000497
160,1,0.8,0.125,-35.0,1,0.0,0.5929000000000997
161,1,0.8,0.0625,-35.0,1,0.0,0.5967990000000327
162,1,0.8,0.125,-35.0,-1,1.0,0.6330000000000382
163,1,0.8,0.125,-35.0,-1,1.0,0.7157000000000835
164,1,0.8,1.0,-35.0,-1,1.0,0.5452000000000226
165,1,0.8,0.125,35.0,-1,0.0,4.389799999999923
166,1,0.8,1.0,-35.0,-1,1.0,0.28719999999998436
167,1,0.8,0.25,-35.0,1,0.0,0.985300000000052
168,1,0.2,0.25,35.0,1,1.0,0.38170000000002346
169,1,0.2,1.0,35.0,1,1.0,0.31100000000003547
170,1,0.2,0.0,35.0,1,1.0,0.3968999999999596
171,1,0.2,0.25,-35.0,-1,1.0,0.9545000000000528
172,1,0.2,0.125,35.0,1,1.0,0.34609999999997854
173,1,0.2,0.0,-35.0,1,0.0,0.6458000000000084
174,1,0.2,0.25,35.0,1,1.0,0.5509000000000697
175,1,0.2,1.0,35.0,1,1.0,0.28510000000005675
176,1,0.2,1.0,35.0,1,1.0,0.3826999999999998
177,1,0.2,0.125,-35.0,1,0.0,6.227700000000027
178,1,0.2,0.125,35.0,1,1.0,0.45080000000007203
179,1,0.2,0.25,35.0,1,1.0,0.9088999999999032
180,1,0.2,0.25,-35.0,1,0.0,0.9720000000000937
181,1,0.2,0.125,-35.0,1,0.0,0.3228000000000293
182,1,0.2,0.125,35.0,1,1.0,0.46090000000003783
183,1,0.2,1.0,35.0,1,1.0,0.34180000000003474
184,1,0.2,1.0,35.0,1,1.0,0.4652000000000953
185,1,0.2,0.25,35.0,1,1.0,0.403400000000147
186,1,0.2,0.0,-35.0,1,0.0,0.26339999999993324
187,1,0.2,1.0,-35.0,1,0.0,0.7717000000000098
188,1,0.2,0.0625,35.0,1,1.0,0.4477000000000544
189,1,0.2,0.25,35.0,1,1.0,0.3505999999999858
190,1,0.2,0.25,-35.0,1,0.0,0.3444999999999254
191,1,0.2,1.0,35.0,1,1.0,0.22259999999994307
192,1,0.2,1.0,35.0,1,1.0,0.2159999999998945
193,1,0.2,1.0,35.0,1,1.0,0.26299999999991996
194,1,0.2,0.0625,-35.0,1,0.0,1.2574999999999363
195,1,0.2,1.0,-35.0,-1,1.0,0.495900000000006
196,1,0.2,0.0,35.0,1,1.0,0.42810000000008586
197,1,0.2,0.0625,35.0,1,1.0,0.371599999999944
198,1,0.2,0.0,-35.0,1,0.0,0.4133000000000493
199,1,0.2,0.0625,-35.0,1,0.0,0.24950000000001182
200,1,0.2,0.0,35.0,1,1.0,0.2479999999999336
201,1,0.2,0.0,35.0,-1,0.0,2.9942000000000917
202,1,0.2,0.0625,35.0,1,1.0,0.3003999999999678
203,1,0.2,0.125,35.0,1,1.0,0.3907000000001517
204,1,0.2,1.0,35.0,1,1.0,0.3972000000001117
205,1,0.2,0.25,35.0,1,1.0,0.20659999999998035
206,1,0.2,0.25,35.0,1,1.0,0.39829999999994925
207,1,0.2,0.0,35.0,1,1.0,0.5543999999999869
208,1,0.2,0.125,35.0,1,1.0,0.3887000000000853
209,1,0.2,1.0,35.0,1,1.0,0.40399999999999636
210,1,0.2,0.125,35.0,1,1.0,0.46839999999997417
211,1,0.2,0.125,-35.0,1,0.0,0.5289999999999964
212,1,0.2,0.125,-35.0,1,0.0,0.4638999999999669
213,1,0.2,1.0,35.0,1,1.0,0.3224999999999909
214,1,0.2,1.0,35.0,1,1.0,0.3952000000000453
215,1,0.2,0.0625,35.0,1,1.0,0.5521999999999707
216,1,0.2,0.125,35.0,1,1.0,0.3732000000001108
217,1,0.2,0.0625,35.0,1,1.0,0.49460000000010496
218,1,0.2,1.0,35.0,1,1.0,0.5178999999999405
219,1,0.8,0.0,-35.0,1,0.0,0.3462000000000671
220,1,0.8,1.0,-35.0,-1,1.0,0.6174000000000888
221,1,0.8,0.125,-35.0,1,0.0,4.889700000000062
222,1,0.8,0.0625,-35.0,1,0.0,0.45019999999999527
223,1,0.8,0.0625,35.0,1,1.0,0.33500000000015007
224,1,0.8,0.125,35.0,1,1.0,0.22730000000001382
225,1,0.8,0.25,-35.0,-1,1.0,5.3636000000000195
226,1,0.8,0.125,-35.0,-1,1.0,0.2639000000000351
227,1,0.8,0.0,35.0,1,1.0,0.5697999999999865
228,1,0.8,0.0,35.0,-1,0.0,0.3988000000000511
229,1,0.8,0.25,-35.0,-1,1.0,0.16089999999996962
230,1,0.8,1.0,-35.0,-1,1.0,0.24520000000006803
231,1,0.8,0.25,-35.0,-1,1.0,0.20180000000004839
232,1,0.8,0.0,-35.0,-1,1.0,0.5785999999999376
233,1,0.8,0.125,-35.0,-1,1.0,0.3242000000000189
234,1,0.8,1.0,-35.0,-1,1.0,0.37829999999996744
235,1,0.8,1.0,-35.0,-1,1.0,0.5908000000000584
236,1,0.8,0.125,-35.0,1,0.0,0.9375999999999749
237,1,0.8,0.125,35.0,1,1.0,0.9014000000000806
238,1,0.8,0.0,-35.0,1,0.0,4.3986999999999625
239,1,0.8,1.0,-35.0,-1,1.0,0.7473000000001093
240,1,0.8,0.0,35.0,1,1.0,0.35590000000001965
241,1,0.8,0.0,-35.0,-1,1.0,3.1493000000000393
242,1,0.8,1.0,-35.0,-1,1.0,0.40239999999994325
243,1,0.8,1.0,35.0,1,1.0,0.4316000000000031
244,1,0.8,0.25,-35.0,-1,1.0,0.3727999999999838
245,1,0.8,0.0625,-35.0,-1,1.0,0.39809999999999945
246,1,0.8,0.25,-35.0,-1,1.0,0.3403000000000702
247,1,0.8,0.0,-35.0,-1,1.0,0.4391000000000531
248,1,0.8,0.0625,-35.0,-1,1.0,4.101600000000076
249,1,0.8,0.125,35.0,1,1.0,0.4056000000000495
250,1,0.8,0.0,-35.0,1,0.0,0.5014999999998508
251,1,0.8,1.0,-35.0,-1,1.0,0.42709999999988213
252,1,0.8,1.0,-35.0,-1,1.0,0.45279999999979736
253,1,0.8,0.0,-35.0,1,0.0,0.785799999999881
254,1,0.8,1.0,-35.0,-1,1.0,0.6172999999996591
255,1,0.8,0.0625,-35.0,-1,1.0,0.3993999999997868
256,1,0.8,0.25,-35.0,-1,1.0,0.3449999999997999
257,1,0.8,0.25,-35.0,-1,1.0,0.4175000000000182
258,1,0.8,1.0,-35.0,-1,1.0,0.5231999999998607
259,1,0.8,0.0625,-35.0,-1,1.0,0.38199999999983447
260,1,0.8,1.0,-35.0,-1,1.0,0.4411000000000058
261,1,0.8,0.0625,-35.0,-1,1.0,0.6200000000001182
262,1,0.8,1.0,35.0,1,1.0,0.5529999999998836
263,1,0.8,0.125,35.0,1,1.0,0.615099999999984
264,1,0.8,0.125,-35.0,-1,1.0,0.5236999999999625
265,1,0.8,1.0,-35.0,-1,1.0,0.5626999999997224
266,1,0.8,0.0625,-35.0,-1,1.0,0.5319999999999254
267,1,0.8,0.0625,-35.0,-1,1.0,6.367099999999937
268,1,0.8,0.0625,35.0,-1,0.0,4.474399999999832
269,1,0.8,1.0,35.0,1,1.0,0.4420999999997548
270,1,0.8,0.0625,-35.0,-1,1.0,6.490699999999833
271,1,0.8,0.0,35.0,-1,0.0,0.40439999999989595
272,1,0.8,1.0,-35.0,-1,1.0,0.3598999999996977
273,1,0.8,1.0,35.0,1,1.0,0.42980000000011387
274,1,0.8,0.125,-35.0,1,0.0,4.538099999999986
275,1,0.8,1.0,-35.0,-1,1.0,0.3225999999999658
276,1,0.8,0.25,-35.0,-1,1.0,0.2748999999998887
277,1,0.8,0.0,-35.0,-1,1.0,0.35390000000006694
278,1,0.8,0.125,-35.0,1,0.0,0.48349999999982174
279,1,0.8,0.0,-35.0,1,0.0,8.788999999999987
280,1,0.8,0.25,-35.0,-1,1.0,0.7217000000000553
281,1,0.8,0.25,-35.0,-1,1.0,0.4602999999999611
282,1,0.8,0.0625,-35.0,-1,1.0,0.8857999999997901
283,1,0.8,0.25,-35.0,-1,1.0,0.3614000000000033
284,1,0.8,0.125,35.0,1,1.0,0.43369999999958964
285,1,0.8,0.25,-35.0,-1,1.0,0.9293999999997595
286,1,0.8,0.0625,-35.0,-1,1.0,0.8647999999998319
287,1,0.8,0.125,-35.0,-1,1.0,0.4800999999999931
288,1,0.8,0.125,-35.0,-1,1.0,1.205600000000004
289,1,0.8,1.0,-35.0,-1,1.0,3.544399999999996
290,1,0.8,0.0,-35.0,1,0.0,0.48919999999975516
291,1,0.8,0.0625,-35.0,-1,1.0,0.4852000000000771
292,1,0.2,1.0,35.0,1,1.0,0.3571999999999207
293,1,0.2,0.0625,35.0,-1,0.0,3.5593999999998687
294,1,0.2,0.25,35.0,1,1.0,0.3008999999997286
295,1,0.2,1.0,35.0,1,1.0,0.42259999999987485
296,1,0.2,1.0,-35.0,-1,1.0,0.5887000000000171
297,1,0.2,1.0,35.0,1,1.0,0.46719999999982065
298,1,0.2,0.125,35.0,1,1.0,0.3591999999998734
299,1,0.2,0.0,35.0,-1,0.0,3.8147999999998774
300,1,0.2,0.125,-35.0,-1,1.0,0.36609999999996035
301,1,0.2,1.0,35.0,1,1.0,0.2749999999998636
302,1,0.2,1.0,35.0,1,1.0,0.42029999999999745
303,1,0.2,0.25,35.0,1,1.0,0.31619999999975335
304,1,0.2,1.0,35.0,1,1.0,0.37200000000007094
305,1,0.2,1.0,35.0,1,1.0,0.4572000000000571
306,1,0.2,0.125,35.0,1,1.0,0.5300999999997202
307,1,0.2,1.0,35.0,1,1.0,0.4519000000000233
308,1,0.2,1.0,35.0,1,1.0,0.20719999999982974
309,1,0.2,0.0625,35.0,1,1.0,4.462999999999965
310,1,0.2,1.0,35.0,1,1.0,0.3167999999998301
311,1,0.2,1.0,35.0,1,1.0,0.3025999999997566
312,1,0.2,1.0,35.0,1,1.0,0.21829999999999927
313,1,0.2,0.0625,35.0,1,1.0,0.413899999999785
314,1,0.2,0.125,35.0,1,1.0,0.32239999999978863
315,1,0.2,0.125,35.0,1,1.0,0.40099999999983993
316,1,0.2,0.0,-35.0,1,0.0,0.4637000000000171
317,1,0.2,0.125,35.0,1,1.0,0.3061000000000149
318,1,0.2,0.0625,35.0,1,1.0,0.6616999999998825
319,1,0.2,1.0,35.0,1,1.0,0.5608999999999469
320,1,0.2,0.0625,-35.0,-1,1.0,0.6330000000000382
321,1,0.2,0.0625,35.0,1,1.0,3.502499999999827
322,1,0.2,0.0625,35.0,1,1.0,0.520200000000159
323,1,0.2,0.25,35.0,1,1.0,5.924099999999953
324,1,0.2,0.25,35.0,1,1.0,2.720700000000079
325,1,0.2,0.125,35.0,1,1.0,0.20329999999989923
326,1,0.2,0.125,35.0,1,1.0,0.4051999999999225
327,1,0.2,0.0625,35.0,1,1.0,0.18769999999972242
328,1,0.2,0.125,35.0,1,1.0,0.35989999999992506
329,1,0.2,0.0625,35.0,1,1.0,0.30529999999998836
330,1,0.2,1.0,35.0,1,1.0,0.2874999999996817
331,1,0.8,0.0625,-35.0,1,0.0,0.5765999999998712
332,1,0.8,0.25,-35.0,1,0.0,0.4052999999998974
333,1,0.8,0.125,-35.0,1,0.0,0.3777999999997519
334,1,0.8,0.25,-35.0,-1,1.0,0.41679999999973916
335,1,0.8,1.0,-35.0,-1,1.0,0.2618999999999687
336,1,0.8,0.25,-35.0,1,0.0,0.35149999999998727
337,1,0.8,0.0625,-35.0,1,0.0,0.30369999999993524
338,1,0.8,0.25,-35.0,-1,1.0,0.8927999999996246
339,1,0.8,0.25,-35.0,-1,1.0,0.43509999999992033
340,1,0.8,0.0625,35.0,1,1.0,0.265999999999849
341,1,0.8,0.0625,-35.0,1,0.0,0.4381999999998243
342,1,0.8,1.0,-35.0,-1,1.0,0.4641999999996642
343,1,0.8,0.0,-35.0,1,0.0,0.40299999999979264
344,1,0.8,0.0625,-35.0,-1,1.0,2.508600000000115
345,1,0.8,0.0625,-35.0,-1,1.0,0.3205999999997857
346,1,0.8,0.0,-35.0,-1,1.0,9.862999999999829
347,1,0.8,0.0625,35.0,1,1.0,0.4654000000000451
348,1,0.8,0.0,35.0,1,1.0,0.3977999999999611
349,1,0.8,0.0,-35.0,1,0.0,0.24979999999982283
350,1,0.8,0.0,-35.0,1,0.0,0.33239999999977954
351,1,0.8,0.0,-35.0,-1,1.0,4.891299999999774
352,1,0.8,1.0,-35.0,-1,1.0,0.7520999999999276
353,1,0.8,0.0,-35.0,-1,1.0,7.1737000000000535
354,1,0.8,0.0625,-35.0,-1,1.0,1.3406999999999698
355,1,0.8,0.0625,-35.0,-1,1.0,1.0845999999999094
356,1,0.8,0.0625,-35.0,-1,1.0,0.7202999999997246
357,1,0.8,0.0625,-35.0,-1,1.0,0.43260000000009313
358,1,0.8,0.0625,-35.0,-1,1.0,0.6052999999997155
359,1,0.8,1.0,-35.0,-1,1.0,1.167399999999816
360,1,0.8,0.0625,-35.0,-1,1.0,0.06309999999984939
361,1,0.8,0.0625,35.0,-1,0.0,1.0980999999999312
362,1,0.8,0.125,35.0,1,1.0,0.5500999999999294
363,1,0.8,0.25,-35.0,-1,1.0,4.2982999999999265
364,1,0.8,0.0625,-35.0,-1,1.0,5.635299999999916
365,1,0.8,0.125,-35.0,-1,1.0,0.6820999999999913
366,1,0.8,0.25,-35.0,-1,1.0,0.7030999999999494
367,1,0.8,0.25,-35.0,-1,1.0,0.5623000000000502
368,1,0.8,1.0,-35.0,-1,1.0,0.6380999999996675
369,1,0.8,0.0625,-35.0,-1,1.0,10.287399999999934
370,1,0.8,0.0625,-35.0,-1,1.0,0.6337000000000899
371,1,0.8,0.125,35.0,1,1.0,0.7496000000001004
372,1,0.8,0.0,35.0,-1,0.0,5.041699999999992
373,1,0.8,0.25,-35.0,-1,1.0,0.2722000000001117
374,1,0.8,0.125,-35.0,-1,1.0,8.07159999999999
375,1,0.8,0.0625,-35.0,1,0.0,0.7736999999999625
376,1,0.8,0.125,-35.0,-1,1.0,0.33579999999983556
377,1,0.8,0.0625,-35.0,-1,1.0,0.7253000000000611
378,1,0.8,0.25,-35.0,-1,1.0,2.1348999999997886
379,1,0.8,0.0625,-35.0,-1,1.0,5.866599999999835
380,1,0.8,1.0,-35.0,-1,1.0,0.947400000000016
381,1,0.8,1.0,35.0,1,1.0,0.4255999999998039
382,1,0.8,0.125,-35.0,-1,1.0,0.3309999999999036
383,1,0.8,0.25,-35.0,1,0.0,0.6536000000000968
384,1,0.8,0.125,-35.0,-1,1.0,0.5961999999999534
385,1,0.8,1.0,-35.0,1,0.0,1.2381999999997788
386,1,0.8,1.0,-35.0,-1,1.0,0.4037999999998192
387,1,0.8,1.0,-35.0,-1,1.0,0.18319999999994252
388,1,0.8,0.125,-35.0,-1,1.0,0.45889999999985776
389,1,0.8,1.0,-35.0,-1,1.0,0.9315999999998894
390,1,0.8,0.125,-35.0,-1,1.0,0.8140999999998257
391,1,0.8,0.0625,-35.0,-1,1.0,0.4964999999999691
392,1,0.8,0.0,-35.0,-1,1.0,6.5888999999997395
393,1,0.8,0.25,35.0,1,1.0,0.45939999999973224
394,1,0.8,1.0,-35.0,-1,1.0,1.7152000000000953
395,1,0.8,1.0,35.0,1,1.0,0.32389999999986685
396,1,0.8,0.25,-35.0,-1,1.0,0.48909999999978027
397,1,0.8,0.25,-35.0,-1,1.0,0.4917000000000371
398,1,0.8,1.0,-35.0,-1,1.0,0.48430000000007567
399,1,0.8,1.0,-35.0,-1,1.0,3.36629999999991
400,1,0.8,0.25,-35.0,1,0.0,1.7313999999998941
401,1,0.8,0.125,35.0,1,1.0,0.5600999999999203
402,1,0.8,0.25,-35.0,-1,1.0,0.4592999999999847
403,1,0.8,1.0,-35.0,-1,1.0,0.6416999999999007
404,1,0.8,0.125,-35.0,-1,1.0,3.667299999999841
405,1,0.8,1.0,-35.0,-1,1.0,2.2416999999998097
406,1,0.8,0.125,-35.0,-1,1.0,0.49699999999984357
407,1,0.8,0.0625,35.0,-1,0.0,3.8258999999998196
408,1,0.8,0.0625,-35.0,-1,1.0,4.330400000000054
409,1,0.8,0.0,-35.0,-1,1.0,0.6885999999999513
410,1,0.8,0.0,-35.0,1,0.0,5.177899999999909
411,1,0.8,0.125,-35.0,-1,1.0,3.835299999999961
412,1,0.8,0.125,35.0,1,1.0,0.3491999999996551
413,1,0.8,1.0,35.0,1,1.0,0.36159999999995307
414,1,0.8,0.0625,-35.0,-1,1.0,10.617299999999886
415,1,0.8,0.25,-35.0,-1,1.0,0.4197999999998956
416,1,0.8,1.0,-35.0,-1,1.0,0.5719000000001415
417,1,0.8,0.0625,-35.0,1,0.0,0.5782000000001517
418,1,0.8,0.0625,-35.0,-1,1.0,0.680699999999888
419,1,0.8,0.0625,-35.0,-1,1.0,1.1261999999999261
420,1,0.8,0.125,-35.0,-1,1.0,6.4949999999996635
421,1,0.8,0.25,-35.0,-1,1.0,0.268699999999626
422,1,0.2,1.0,-35.0,-1,1.0,0.4777999999998883
423,1,0.2,1.0,35.0,1,1.0,0.4334999999998672
424,1,0.2,0.25,35.0,1,1.0,0.41239999999993415
425,1,0.2,0.0625,35.0,1,1.0,0.5383999999999105
426,1,0.2,0.125,35.0,1,1.0,0.36750000000006366
427,1,0.2,0.25,35.0,1,1.0,0.2664999999999509
428,1,0.2,1.0,35.0,1,1.0,0.295399999999745
429,1,0.2,1.0,35.0,1,1.0,0.2947999999998956
430,1,0.2,0.25,35.0,1,1.0,0.45029999999997017
431,1,0.2,0.125,-35.0,1,0.0,0.4295999999999367
432,1,0.2,1.0,35.0,1,1.0,0.3385999999998148
433,1,0.2,1.0,35.0,1,1.0,0.44139999999970314
434,1,0.2,1.0,35.0,1,1.0,0.39400000000000546
435,1,0.2,1.0,35.0,1,1.0,0.31639999999970314
436,1,0.2,0.25,-35.0,-1,1.0,1.518999999999778
437,1,0.2,0.125,35.0,1,1.0,2.2246999999999844
438,1,0.2,1.0,35.0,1,1.0,4.726000000000113
439,1,0.2,0.25,35.0,1,1.0,0.35750000000007276
440,1,0.2,0.0625,35.0,1,1.0,49.40639999999985
441,1,0.2,0.0625,35.0,1,1.0,0.4028000000000702
442,1,0.2,1.0,35.0,1,1.0,0.21879999999987376
443,1,0.2,0.0,35.0,1,1.0,0.2380990000001475
444,1,0.2,0.0625,35.0,1,1.0,0.36649999999985994
445,1,0.2,0.125,35.0,1,1.0,0.3551999999997406
446,1,0.2,1.0,-35.0,-1,1.0,0.7473999999999705
447,1,0.2,0.0625,35.0,1,1.0,0.3165999999998803
448,1,0.2,0.0625,35.0,1,1.0,0.42259999999987485
449,1,0.2,0.0625,-35.0,-1,1.0,5.571699999999737
450,1,0.2,0.0625,35.0,1,1.0,0.33549999999991087
451,1,0.2,0.25,35.0,1,1.0,0.3648999999998068
452,1,0.2,1.0,35.0,1,1.0,0.31389999999987594
453,1,0.2,0.0625,35.0,1,1.0,0.29989999999975225
454,1,0.2,0.25,35.0,1,1.0,0.3688999999999396
455,1,0.2,0.25,35.0,1,1.0,0.35779999999999745
456,1,0.2,0.25,-35.0,-1,1.0,0.956899999999905
457,1,0.2,0.0625,35.0,-1,0.0,9.322199999999839
458,1,0.2,0.25,35.0,1,1.0,0.49519999999984066
459,1,0.2,0.125,-35.0,1,0.0,0.2710999999997057
460,1,0.2,1.0,35.0,1,1.0,0.30700000000001637
461,1,0.2,0.25,35.0,1,1.0,0.3656999999998334
462,1,0.2,1.0,-35.0,-1,1.0,0.6446999999998297
463,1,0.2,1.0,35.0,1,1.0,0.2932999999998174
464,1,0.2,0.25,35.0,1,1.0,0.322400000000016
465,1,0.2,0.0625,35.0,1,1.0,0.5315999999997985
466,1,0.2,0.125,35.0,1,1.0,0.5507999999999811
467,1,0.2,0.25,35.0,1,1.0,0.4334000000001197
468,1,0.2,0.0625,-35.0,1,0.0,0.51949999999988
469,1,0.2,0.125,35.0,1,1.0,2.9017999999998665
470,1,0.2,0.0625,35.0,1,1.0,0.3232999999997901
471,1,0.2,0.0625,35.0,1,1.0,0.3891999999998461
472,1,0.2,0.0625,35.0,1,1.0,0.5144000000000233
473,1,0.8,0.25,-35.0,1,0.0,0.17030000000022483
474,1,0.8,0.0625,-35.0,1,0.0,0.24590000000034706
475,1,0.8,0.0625,-35.0,-1,1.0,0.49830000000019936
476,1,0.8,1.0,35.0,1,1.0,0.24769999999989523
477,1,0.8,0.125,-35.0,-1,1.0,0.6100000000001273
478,1,0.8,0.0625,-35.0,1,0.0,1.019300000000385
479,1,0.8,0.0625,35.0,1,1.0,3.1147000000000844
480,1,0.8,1.0,-35.0,-1,1.0,1.2233000000001084
481,1,0.8,0.25,-35.0,-1,1.0,0.5422000000003209
482,1,0.8,1.0,-35.0,-1,1.0,0.5449000000003252
483,1,0.8,1.0,-35.0,-1,1.0,0.7105000000001382
484,1,0.8,0.125,35.0,1,1.0,0.5095000000001164
485,1,0.8,0.0625,-35.0,1,0.0,0.4952000000002954
486,1,0.8,0.125,-35.0,-1,1.0,0.31750000000010914
487,1,0.8,1.0,-35.0,1,0.0,6.649800000000141
488,1,0.8,1.0,-35.0,-1,1.0,1.0133999999998196
489,1,0.8,0.0625,-35.0,1,0.0,1.1592999999998028
490,1,0.8,0.0625,-35.0,-1,1.0,6.504800000000159
491,1,0.8,0.0,35.0,-1,0.0,4.915100000000166
492,1,0.8,0.0625,-35.0,-1,1.0,2.62270000000035
493,1,0.8,0.25,-35.0,-1,1.0,1.0814000000000306
494,1,0.8,0.0625,-35.0,-1,1.0,0.5264999999999418
495,1,0.8,0.125,35.0,1,1.0,0.37560000000030414
496,1,0.8,0.0625,-35.0,-1,1.0,1.7345000000000255
497,1,0.8,1.0,-35.0,-1,1.0,2.4299999999998363
498,1,0.8,0.25,35.0,1,1.0,0.342000000000553
499,1,0.8,0.0,35.0,-1,0.0,6.104600000000119
500,1,0.8,0.125,-35.0,-1,1.0,3.1085000000002765
501,1,0.8,0.125,-35.0,-1,1.0,0.41980000000012296
502,1,0.8,0.25,-35.0,-1,1.0,0.3991000000000895
503,1,0.8,0.25,35.0,1,1.0,12.891300000000228
504,1,0.8,0.0,-35.0,-1,1.0,0.919800000000123
505,1,0.8,0.25,-35.0,-1,1.0,2.0153000000000247
506,1,0.8,0.0625,35.0,1,1.0,0.7941000000000713
507,1,0.8,0.125,-35.0,1,0.0,0.4000999999998385
508,1,0.8,0.0625,-35.0,-1,1.0,4.682300000000396
509,1,0.8,0.0625,-35.0,-1,1.0,3.522099999999682
510,1,0.8,0.0625,-35.0,-1,1.0,0.5972000000001572
511,1,0.8,0.125,-35.0,-1,1.0,9.279200000000401
512,1,0.8,0.125,-35.0,-1,1.0,4.738000000000284
513,1,0.8,0.125,-35.0,-1,1.0,0.6422999999999774
514,1,0.8,0.0625,-35.0,-1,1.0,1.6349000000004708
515,1,0.8,0.25,-35.0,-1,1.0,0.29690000000027794
516,1,0.8,0.125,-35.0,-1,1.0,1.825800000000072
517,1,0.8,0.25,-35.0,-1,1.0,5.324500000000171
518,1,0.8,0.125,-35.0,-1,1.0,4.035300000000461
519,1,0.8,0.0625,35.0,1,1.0,0.3069000000000415
520,1,0.8,0.0625,35.0,1,1.0,0.33829999999989013
521,1,0.8,0.0,-35.0,-1,1.0,0.22670000000016444
522,1,0.8,0.0625,35.0,-1,0.0,14.209400000000187
523,1,0.8,0.0625,-35.0,-1,1.0,0.4008000000003449
524,1,0.8,0.125,-35.0,-1,1.0,0.6301999999996042
525,1,0.8,0.25,-35.0,-1,1.0,0.3095000000002983
526,1,0.8,0.25,-35.0,-1,1.0,0.34209999999984575
527,1,0.8,0.0625,-35.0,-1,1.0,0.35039999999980864
528,1,0.8,0.125,-35.0,-1,1.0,0.42650000000003274
529,1,0.8,0.125,-35.0,-1,1.0,4.034900000000107
530,1,0.8,0.0,-35.0,-1,1.0,5.973400000000311
531,1,0.8,0.25,-35.0,-1,1.0,0.5043000000000575
532,1,0.8,0.125,-35.0,-1,1.0,4.376500000000306
533,1,0.8,0.0625,-35.0,-1,1.0,0.4078999999996995
534,1,0.8,0.25,-35.0,-1,1.0,14.439800000000105
535,1,0.8,0.125,-35.0,-1,1.0,9.707400000000234
536,1,0.8,0.25,-35.0,-1,1.0,18.60990000000038
537,1,0.8,0.0,-35.0,-1,1.0,6.1896999999999025
538,1,0.8,0.25,-35.0,-1,1.0,5.350100000000111
539,1,0.8,0.125,-35.0,-1,1.0,6.147399999999834
540,1,0.8,0.25,-35.0,-1,1.0,6.120899999999892
541,1,0.8,0.0625,-35.0,-1,1.0,0.4452000000001135
542,1,0.8,0.0625,-35.0,-1,1.0,0.0978000000004613
543,1,0.8,0.125,-35.0,-1,1.0,0.3272000000006301
544,1,0.8,0.25,-35.0,-1,1.0,8.669199999999819
545,1,0.8,0.25,-35.0,-1,1.0,0.6793000000002394
546,1,0.8,0.0625,-35.0,-1,1.0,30.4046000000003
547,1,0.8,1.0,-35.0,-1,1.0,0.7940000000003238
548,1,0.8,0.125,-35.0,-1,1.0,7.4461999999998625
549,1,0.8,1.0,-35.0,-1,1.0,0.5401000000001659
550,1,0.8,0.25,-35.0,-1,1.0,0.3227000000001681
551,1,0.8,0.0,35.0,1,1.0,0.17869999999993524
552,1,0.8,1.0,-35.0,-1,1.0,6.587500000000091
1,2,0.5,1.0,-35.0,-1,1.0,0.18910000000000027
2,2,0.5,1.0,35.0,1,1.0,0.3291000000000004
3,2,0.5,0.25,35.0,1,1.0,0.42320000000000135
4,2,0.5,0.0,35.0,1,1.0,0.4944000000000024
5,2,0.5,0.125,35.0,1,1.0,0.3349000000000011
6,2,0.5,0.0625,35.0,1,1.0,0.5372999999999983
7,2,0.5,0.0625,35.0,1,1.0,0.3669990000000034
8,2,0.5,0.25,-35.0,-1,1.0,1.1748999999999974
9,2,0.5,0.125,35.0,1,1.0,0.2995000000000019
10,2,0.5,0.125,35.0,1,1.0,0.3055999999999983
11,2,0.5,0.25,-35.0,-1,1.0,0.20029999999999148
12,2,0.5,0.0625,35.0,-1,0.0,0.34440000000000026
13,2,0.5,0.125,35.0,1,1.0,0.2593999999999994
14,2,0.5,0.125,35.0,-1,0.0,0.40969999999999374
15,2,0.5,0.25,-35.0,-1,1.0,0.2563000000000031
16,2,0.5,1.0,-35.0,-1,1.0,0.22119999999999607
17,2,0.5,0.0,-35.0,-1,1.0,0.5270000000000152
18,2,0.5,0.25,35.0,1,1.0,0.24670000000000414
19,2,0.5,1.0,-35.0,-1,1.0,0.31640000000000157
20,2,0.5,0.25,35.0,1,1.0,0.28840000000001
21,2,0.5,0.125,-35.0,-1,1.0,0.44700000000000273
22,2,0.5,0.0625,35.0,1,1.0,0.7049000000000092
23,2,0.5,1.0,35.0,1,1.0,0.3622000000000014
24,2,0.5,0.125,35.0,1,1.0,0.22380000000001132
25,2,0.5,0.0625,35.0,1,1.0,1.1868000000000052
26,2,0.5,0.125,-35.0,-1,1.0,0.37690000000000623
27,2,0.5,0.25,35.0,1,1.0,0.38230000000000075
28,2,0.5,0.25,-35.0,-1,1.0,0.7190999999999974
29,2,0.5,0.0625,35.0,1,1.0,0.4017000000000053
30,2,0.5,0.0625,35.0,1,1.0,0.39400000000000546
31,2,0.5,0.0,35.0,1,1.0,0.25149999999999295
32,2,0.5,0.25,-35.0,-1,1.0,0.3213000000000079
33,2,0.5,0.125,-35.0,-1,1.0,0.24560000000001025
34,2,0.5,0.0625,-35.0,-1,1.0,1.4372000000000043
35,2,0.5,1.0,35.0,-1,0.0,0.0190990000000113
36,2,0.5,0.125,-35.0,-1,1.0,0.49020000000001573
37,2,0.5,0.125,-35.0,-1,1.0,0.5363000000000113
38,2,0.5,0.0,35.0,-1,0.0,0.32390000000000896
39,2,0.5,0.0625,35.0,1,1.0,0.27499999999997726
40,2,0.5,0.0625,-35.0,-1,1.0,0.2926000000000215
41,2,0.5,0.125,35.0,1,1.0,0.3019000000000176
42,2,0.5,0.25,35.0,1,1.0,0.297300000000007
43,2,0.5,1.0,35.0,1,1.0,0.23749999999998295
44,2,0.5,0.0625,-35.0,-1,1.0,0.38889999999997826
45,2,0.5,0.0625,-35.0,1,0.0,0.2412999999999954
46,2,0.5,0.0625,-35.0,1,0.0,0.020000000000038654
47,2,0.5,0.25,-35.0,-1,1.0,0.23579999999998336
48,2,0.5,0.125,-35.0,-1,1.0,0.4216000000000122
49,2,0.5,0.125,35.0,-1,0.0,0.22670000000002233
50,2,0.5,0.25,35.0,1,1.0,0.2265999999999906
51,2,0.5,0.125,35.0,1,1.0,1.1398000000000081
52,2,0.5,0.0,35.0,-1,0.0,1.015400000000028
53,2,0.5,0.0,-35.0,1,0.0,0.2341000000000122
54,2,0.5,0.125,-35.0,-1,1.0,0.24209999999999354
55,2,0.5,0.0625,35.0,1,1.0,0.24360000000001492
56,2,0.5,0.0625,-35.0,-1,1.0,0.358600000000024
57,2,0.5,1.0,-35.0,-1,1.0,0.40690000000000737
58,2,0.5,0.0625,-35.0,1,0.0,0.3786000000000058
59,2,0.5,0.125,35.0,-1,0.0,0.18790000000001328
60,2,0.5,0.125,-35.0,-1,1.0,0.2407000000000039
61,2,0.5,0.0625,-35.0,-1,1.0,1.1762999999999977
62,2,0.5,0.0625,35.0,1,1.0,0.5075000000000216
63,2,0.5,0.0,-35.0,-1,1.0,0.21930000000003247
64,2,0.5,0.0625,35.0,1,1.0,0.5736000000000274
65,2,0.5,1.0,-35.0,-1,1.0,0.6449989999999843
66,2,0.5,0.0625,-35.0,-1,1.0,0.6932999999999936
67,2,0.5,0.125,-35.0,-1,1.0,0.2331999999999823
68,2,0.5,0.25,35.0,1,1.0,0.32620000000000005
69,2,0.5,0.0625,-35.0,-1,1.0,0.605700000000013
70,2,0.5,1.0,-35.0,-1,1.0,0.1483000000000061
71,2,0.5,0.0625,-35.0,-1,1.0,0.369700000000023
72,2,0.5,0.125,-35.0,-1,1.0,0.15170000000000528
73,2,0.5,0.125,-35.0,-1,1.0,0.6012000000000057
74,2,0.5,0.0,-35.0,-1,1.0,1.7186000000000092
75,2,0.5,0.0625,-35.0,-1,1.0,0.36899999999997135
76,2,0.5,1.0,35.0,1,1.0,0.2545000000000641
77,2,0.5,0.25,-35.0,-1,1.0,0.507000000000005
78,2,0.5,0.0625,35.0,1,1.0,0.34819900000002235
79,2,0.5,1.0,-35.0,-1,1.0,0.30770000000006803
80,2,0.5,0.0,-35.0,1,0.0,0.19959999999997535
81,2,0.5,0.0,-35.0,-1,1.0,0.2499000000000251
82,2,0.5,1.0,-35.0,-1,1.0,0.2208999999999719
83,2,0.5,0.0625,-35.0,-1,1.0,0.9103000000000065
84,2,0.5,1.0,35.0,-1,0.0,0.18479999999999563
85,2,0.5,0.25,-35.0,-1,1.0,0.2230000000000132
86,2,0.5,0.0625,-35.0,-1,1.0,0.29040000000003374
87,2,0.5,0.25,35.0,1,1.0,0.2411999999999921
88,2,0.5,0.25,-35.0,-1,1.0,0.28019999999997935
89,2,0.5,1.0,-35.0,-1,1.0,0.272700000000043
90,2,0.5,0.25,35.0,1,1.0,0.22449999999997772
91,2,0.2,0.125,-35.0,-1,1.0,0.22600000000005593
92,2,0.2,0.0625,35.0,1,1.0,0.1463000000000534
93,2,0.2,0.0625,35.0,-1,0.0,0.19559900000001562
94,2,0.2,0.125,35.0,-1,0.0,0.17619999999999436
95,2,0.2,1.0,35.0,1,1.0,0.20240000000001146
96,2,0.2,0.25,35.0,1,1.0,1.2064000000000306
97,2,0.2,0.25,35.0,1,1.0,0.27949999999998454
98,2,0.2,0.25,-35.0,-1,1.0,0.9997000000000185
99,2,0.2,0.0625,35.0,-1,0.0,0.3468000000000302
100,2,0.2,0.125,35.0,1,1.0,0.23130000000003292
101,2,0.2,0.125,35.0,-1,0.0,0.40569999999996753
102,2,0.2,0.125,-35.0,1,0.0,0.2596999999999525
103,2,0.2,0.0625,35.0,1,1.0,2.827099999999973
104,2,0.2,0.25,35.0,1,1.0,0.45599999999996044
105,2,0.2,0.25,35.0,1,1.0,0.19110000000000582
106,2,0.2,0.0625,35.0,1,1.0,0.49629999999996244
107,2,0.2,0.125,-35.0,1,0.0,0.17449999999996635
108,2,0.2,0.0625,35.0,1,1.0,0.23970000000002756
109,2,0.2,0.0,35.0,1,1.0,0.5113999999999805
110,2,0.2,1.0,-35.0,-1,1.0,0.4238000000000284
111,2,0.2,0.125,-35.0,1,0.0,0.186300000000017
112,2,0.2,0.25,35.0,1,1.0,0.21930000000003247
113,2,0.2,1.0,35.0,1,1.0,0.24500000000000455
114,2,0.2,0.0625,35.0,-1,0.0,0.6719000000000506
115,2,0.2,1.0,35.0,1,1.0,0.2153000000000702
116,2,0.2,1.0,35.0,1,1.0,0.23750000000001137
117,2,0.2,0.25,-35.0,-1,1.0,0.32630000000000337
118,2,0.2,0.125,35.0,1,1.0,0.22340000000002647
119,2,0.2,0.125,35.0,1,1.0,0.3406999999999698
120,2,0.2,0.125,-35.0,1,0.0,0.007399999999961437
121,2,0.2,1.0,35.0,1,1.0,0.22849999999999682
122,2,0.2,0.0,35.0,1,1.0,0.7282000000000153
123,2,0.2,0.25,35.0,1,1.0,0.26180000000005066
124,2,0.2,1.0,35.0,1,1.0,0.13749999999998863
125,2,0.2,0.0,35.0,1,1.0,0.20100000000002183
126,2,0.2,0.25,-35.0,1,0.0,0.2899999999999636
127,2,0.2,1.0,35.0,1,1.0,0.19929999999999382
128,2,0.2,0.25,35.0,1,1.0,0.5701000000000249
129,2,0.2,0.25,-35.0,1,0.0,0.15280000000001337
130,2,0.2,1.0,35.0,1,1.0,0.3462000000000103
131,2,0.2,0.0,-35.0,1,0.0,0.03879999999998063
132,2,0.2,0.0625,35.0,1,1.0,0.24619999999998754
133,2,0.2,1.0,35.0,1,1.0,0.2585000000000264
134,2,0.2,0.0,-35.0,1,0.0,0.29839999999995825
135,2,0.2,1.0,35.0,1,1.0,0.20849999999995816
136,2,0.2,0.0625,35.0,1,1.0,0.2277000000000271
137,2,0.2,0.0,35.0,1,1.0,0.1383999999999901
138,2,0.2,0.25,35.0,1,1.0,0.1827000000000112
139,2,0.2,0.25,35.0,1,1.0,0.17480000000000473
140,2,0.2,0.25,35.0,1,1.0,0.2287000000000603
141,2,0.2,0.125,35.0,1,1.0,0.17770000000001573
142,2,0.2,0.125,35.0,1,1.0,0.21289999999999054
143,2,0.2,1.0,-35.0,-1,1.0,0.7151999999999816
144,2,0.2,0.0625,-35.0,1,0.0,0.2113000000000511
145,2,0.2,0.25,35.0,1,1.0,0.2135000000000673
146,2,0.2,0.25,35.0,1,1.0,0.279700000000048
147,2,0.2,0.0,35.0,1,1.0,0.19659999999998945
148,2,0.8,0.25,-35.0,1,0.0,0.23250000000001592
149,2,0.8,0.125,-35.0,1,0.0,0.15350000000000819
150,2,0.8,0.0625,-35.0,1,0.0,0.18869999999992615
151,2,0.8,0.0625,-35.0,1,0.0,0.1674999999999045
152,2,0.8,0.25,-35.0,-1,1.0,0.19839999999999236
153,2,0.8,0.125,-35.0,-1,1.0,0.1937000000000353
154,2,0.8,1.0,-35.0,-1,1.0,0.16770000000008167
155,2,0.8,1.0,-35.0,-1,1.0,0.4923000000000002
156,2,0.8,0.125,-35.0,-1,1.0,0.20050000000003365
157,2,0.8,1.0,-35.0,-1,1.0,0.2718999999999596
158,2,0.8,0.25,-35.0,-1,1.0,0.21500000000003183
159,2,0.8,0.25,-35.0,-1,1.0,0.50100000000009
160,2,0.8,0.125,-35.0,-1,1.0,0.2117999999999256
161,2,0.8,0.25,-35.0,-1,1.0,0.18280000000004293
162,2,0.8,0.25,-35.0,-1,1.0,0.24249999999994998
163,2,0.8,1.0,-35.0,-1,1.0,0.33969999999999345
164,2,0.8,0.0625,-35.0,-1,1.0,0.22800000000006548
165,2,0.8,0.0625,-35.0,-1,1.0,1.1831999999999425
166,2,0.8,0.125,35.0,-1,0.0,0.26179999999988013
167,2,0.8,0.25,-35.0,-1,1.0,0.2038000000000011
168,2,0.2,0.25,35.0,1,1.0,0.25950000000000273
169,2,0.2,0.0625,35.0,1,1.0,0.327199999999948
170,2,0.2,1.0,35.0,-1,0.0,-0.00479999999993197
171,2,0.2,0.0625,35.0,1,1.0,0.3085999999999558
172,2,0.2,0.125,35.0,1,1.0,0.20019999999999527
173,2,0.2,0.0,35.0,1,1.0,0.2037000000000262
174,2,0.2,0.125,-35.0,1,0.0,0.15389999999990778
175,2,0.2,0.0625,35.0,1,1.0,0.18209999999999127
176,2,0.2,0.125,35.0,1,1.0,0.18619999999998527
177,2,0.2,0.25,35.0,1,1.0,0.21029999999996107
178,2,0.2,0.25,35.0,1,1.0,0.18400000000008276
179,2,0.2,0.0625,35.0,1,1.0,0.2037000000000262
180,2,0.2,0.125,35.0,1,1.0,0.2219000000000051
181,2,0.2,0.0625,35.0,1,1.0,0.18440000000009604
182,2,0.2,0.0625,-35.0,1,0.0,0.3328999999999951
183,2,0.2,0.25,35.0,1,1.0,0.25480000000004566
184,2,0.2,0.25,35.0,1,1.0,0.10149999999987358
185,2,0.2,0.0625,35.0,1,1.0,0.18399999999996908
186,2,0.2,1.0,35.0,1,1.0,0.23550000000000182
187,2,0.2,0.0625,35.0,1,1.0,0.1712000000001126
188,2,0.2,0.0625,35.0,1,1.0,0.2039999999999509
189,2,0.2,0.25,35.0,1,1.0,0.1958999999999378
190,2,0.2,1.0,35.0,1,1.0,0.20330000000001291
191,2,0.2,0.0625,35.0,1,1.0,0.29750000000001364
192,2,0.2,0.25,35.0,1,1.0,0.38589999999999236
193,2,0.2,0.0,35.0,1,1.0,0.2315000000000964
194,2,0.2,1.0,35.0,1,1.0,0.11859999999990123
195,2,0.2,0.25,35.0,1,1.0,0.1691000000000713
196,2,0.2,0.25,35.0,1,1.0,0.15010000000006585
197,2,0.2,0.25,35.0,1,1.0,0.21670000000005984
198,2,0.2,0.0,-35.0,1,0.0,0.0805000000000291
199,2,0.2,0.0,35.0,1,1.0,0.15800000000001546
200,2,0.2,0.0625,35.0,-1,0.0,0.2097999999999729
201,2,0.2,0.0625,35.0,1,1.0,0.2477000000000089
202,2,0.2,0.125,35.0,1,1.0,0.2707999999998947
203,2,0.2,0.0,35.0,1,1.0,0.15779999999995198
204,2,0.2,0.0,35.0,1,1.0,0.14070000000003802
205,2,0.2,0.125,35.0,1,1.0,0.052199999999970714
206,2,0.2,0.25,35.0,1,1.0,0.23869999999999436
207,2,0.2,1.0,35.0,1,1.0,0.17610000000013315
208,2,0.2,0.0625,35.0,1,1.0,0.2337999999999738
209,2,0.2,0.25,35.0,1,1.0,0.20730000000003201
210,2,0.2,1.0,35.0,1,1.0,0.2296000000000049
211,2,0.2,0.0625,35.0,1,1.0,0.16899999999998272
212,2,0.2,1.0,35.0,1,1.0,0.15960000000006858
213,2,0.2,0.125,35.0,1,1.0,0.17709999999999582
214,2,0.2,0.125,35.0,1,1.0,0.259900000000016
215,2,0.2,1.0,35.0,1,1.0,0.20119999999997162
216,2,0.2,1.0,35.0,1,1.0,0.21129900000005364
217,2,0.2,1.0,35.0,1,1.0,0.20489999999995234
218,2,0.2,0.0625,35.0,1,1.0,0.22289999999998145
219,2,0.2,0.25,35.0,1,1.0,0.20190000000002328
220,2,0.2,0.125,35.0,1,1.0,0.1735999999999649
221,2,0.2,0.0625,35.0,1,1.0,0.15610000000003765
222,2,0.2,0.125,35.0,1,1.0,0.2419999999999618
223,2,0.2,0.125,35.0,1,1.0,0.16919999999993252
224,2,0.2,0.0,35.0,1,1.0,0.13930000000004839
225,2,0.2,0.0625,35.0,1,1.0,0.30599999999992633
226,2,0.2,0.125,35.0,1,1.0,0.15160000000003038
227,2,0.2,0.125,35.0,1,1.0,0.19300000000009732
228,2,0.2,1.0,-35.0,-1,1.0,0.2686999999999671
229,2,0.2,0.0625,35.0,-1,0.0,0.3122999999999365
230,2,0.2,1.0,-35.0,-1,1.0,0.37140000000010787
231,2,0.2,0.125,35.0,1,1.0,0.2846999999999298
232,2,0.2,0.25,-35.0,-1,1.0,0.3817999999998847
233,2,0.2,1.0,-35.0,1,0.0,0.1995000000000573
234,2,0.2,0.0,35.0,-1,0.0,0.30600000000004
235,2,0.2,0.25,35.0,1,1.0,0.20410000000003947
236,2,0.2,0.0,35.0,1,1.0,0.251700000000028
237,2,0.2,1.0,35.0,1,1.0,0.16809999999998126
238,2,0.2,0.125,35.0,1,1.0,0.1449999999999818
239,2,0.2,0.125,35.0,1,1.0,0.17050000000006094
240,2,0.2,0.25,35.0,1,1.0,0.16519999999991342
241,2,0.8,0.125,-35.0,1,0.0,0.18200000000001637
242,2,0.8,0.125,-35.0,-1,1.0,0.4057000000000244
243,2,0.8,0.0625,-35.0,-1,1.0,0.26149999999995543
244,2,0.8,1.0,-35.0,-1,1.0,0.39659999999992124
245,2,0.8,0.125,35.0,1,1.0,0.1430000000000291
246,2,0.8,1.0,35.0,1,1.0,0.17439999999999145
247,2,0.8,0.0625,-35.0,1,0.0,0.2603000000000293
248,2,0.8,0.25,35.0,1,1.0,0.25720000000001164
249,2,0.8,0.0,-35.0,1,0.0,0.17590000000006967
250,2,0.8,0.0625,-35.0,1,0.0,0.19510000000002492
251,2,0.8,0.0625,-35.0,1,0.0,0.24120000000004893
252,2,0.8,0.25,-35.0,-1,1.0,0.23929999999995744
253,2,0.8,0.0625,-35.0,-1,1.0,0.24040000000002237
254,2,0.8,0.125,-35.0,-1,1.0,0.4499999999999318
255,2,0.8,0.125,35.0,1,1.0,0.31520000000000437
256,2,0.8,0.0625,-35.0,-1,1.0,0.5826000000000704
257,2,0.8,1.0,35.0,1,1.0,0.19470000000001164
258,2,0.8,0.25,-35.0,-1,1.0,0.2746999999999389
259,2,0.8,1.0,-35.0,-1,1.0,0.49189899999998943
260,2,0.8,1.0,-35.0,-1,1.0,0.2522999999998774
261,2,0.8,1.0,-35.0,-1,1.0,0.42600000000004457
262,2,0.8,0.125,-35.0,1,0.0,0.18669999999997344
263,2,0.8,0.0625,35.0,-1,0.0,0.14780000000007476
264,2,0.8,0.125,-35.0,-1,1.0,0.18490000000008422
265,2,0.8,0.0625,35.0,1,1.0,0.2718000000000984
266,2,0.8,0.125,35.0,1,1.0,0.3027999999999338
267,2,0.8,0.0,35.0,1,1.0,0.22400000000004638
268,2,0.8,0.125,35.0,1,1.0,0.16250000000002274
269,2,0.8,0.125,35.0,1,1.0,0.2015999999999849
270,2,0.8,1.0,-35.0,-1,1.0,0.5065000000000737
271,2,0.8,0.25,-35.0,-1,1.0,0.31960000000003674
272,2,0.8,1.0,-35.0,1,0.0,0.1632999999999356
273,2,0.8,1.0,-35.0,-1,1.0,0.2540000000000191
274,2,0.8,0.0,-35.0,1,0.0,0.23169999999993252
275,2,0.8,1.0,-35.0,-1,1.0,0.47109999999997854
276,2,0.8,0.125,-35.0,-1,1.0,0.2802000000000362
277,2,0.8,0.125,-35.0,-1,1.0,0.23729999999989104
278,2,0.8,0.0625,-35.0,-1,1.0,0.26919999999995525
279,2,0.8,0.125,-35.0,-1,1.0,0.08780000000001564
280,2,0.8,0.25,35.0,1,1.0,0.24309999999991305
281,2,0.8,1.0,-35.0,-1,1.0,0.42010000000004766
282,2,0.8,1.0,-35.0,1,0.0,0.24080000000003565
283,2,0.8,0.125,-35.0,-1,1.0,0.3704999999999927
284,2,0.8,0.25,35.0,1,1.0,0.296799999999962
285,2,0.8,1.0,-35.0,-1,1.0,0.5362999999999829
286,2,0.8,0.125,35.0,1,1.0,1.054899999999975
287,2,0.8,1.0,35.0,1,1.0,0.32799999999997453
288,2,0.8,0.0625,-35.0,-1,1.0,0.5429000000000315
289,2,0.8,0.25,-35.0,-1,1.0,0.2622000000000071
290,2,0.2,0.125,35.0,-1,0.0,0.21439999999995507
291,2,0.2,1.0,-35.0,-1,1.0,0.1996999999998934
292,2,0.2,0.25,35.0,1,1.0,0.22849999999993997
293,2,0.2,0.125,35.0,1,1.0,0.3512999999998101
294,2,0.2,0.0625,-35.0,-1,1.0,0.18370000000004438
295,2,0.2,1.0,35.0,1,1.0,0.2327989999998863
296,2,0.2,0.0,35.0,-1,0.0,2.049099999999953
297,2,0.2,0.125,-35.0,-1,1.0,0.33029999999985193
298,2,0.2,0.125,35.0,-1,0.0,0.015499999999974534
299,2,0.2,0.25,35.0,1,1.0,0.25870000000008986
300,2,0.2,0.25,35.0,1,1.0,0.21080000000006294
301,2,0.2,1.0,35.0,1,1.0,0.2641000000000986
302,2,0.2,0.125,35.0,1,1.0,0.18849999999997635
303,2,0.2,0.0625,35.0,1,1.0,0.19110000000000582
304,2,0.2,0.25,35.0,1,1.0,0.1999999999998181
305,2,0.2,0.125,35.0,1,1.0,0.20460000000002765
306,2,0.2,0.0,35.0,1,1.0,0.2313000000001466
307,2,0.2,0.0625,35.0,1,1.0,0.22049999999990177
308,2,0.2,0.0625,35.0,1,1.0,0.2625000000000455
309,2,0.2,0.25,35.0,1,1.0,0.1712999999999738
310,2,0.2,1.0,35.0,1,1.0,0.16640000000006694
311,2,0.2,1.0,-35.0,-1,1.0,0.5882999999998901
312,2,0.2,0.25,35.0,1,1.0,0.22129999999992833
313,2,0.2,0.0625,35.0,1,1.0,0.20910000000003492
314,2,0.8,0.25,35.0,1,1.0,0.2514000000001033
315,2,0.8,0.25,35.0,1,1.0,0.1675000000000182
316,2,0.8,0.125,-35.0,1,0.0,0.2398000000000593
317,2,0.8,0.125,-35.0,1,0.0,0.47200000000020736
318,2,0.8,0.0625,35.0,1,1.0,0.2545000000000073
319,2,0.8,0.125,35.0,1,1.0,0.20640000000003056
320,2,0.8,1.0,-35.0,1,0.0,-0.001199999999926149
321,2,0.8,0.25,35.0,1,1.0,0.17800000000011096
322,2,0.8,1.0,-35.0,-1,1.0,0.4697999999998501
323,2,0.8,0.125,-35.0,1,0.0,0.17239999999992506
324,2,0.8,0.125,-35.0,-1,1.0,0.33900000000016917
325,2,0.8,0.0625,-35.0,-1,1.0,0.8807000000001608
326,2,0.8,0.0625,-35.0,-1,1.0,0.23989999999980682
327,2,0.8,1.0,35.0,1,1.0,0.18689999999992324
328,2,0.8,0.125,35.0,1,1.0,0.1428000000000793
329,2,0.8,0.0625,-35.0,1,0.0,1.2416000000000622
330,2,0.8,0.125,-35.0,1,0.0,0.16699999999991633
331,2,0.8,0.0625,-35.0,1,0.0,0.19879999999989195
332,2,0.8,0.125,-35.0,-1,1.0,0.2941000000000713
333,2,0.8,0.0625,-35.0,-1,1.0,0.33979999999996835
334,2,0.8,0.0625,-35.0,-1,1.0,0.1850000000001728
335,2,0.8,0.25,-35.0,-1,1.0,0.4539999999999509
336,2,0.8,0.25,-35.0,-1,1.0,0.600099999999884
337,2,0.8,0.0625,-35.0,-1,1.0,0.30600000000004
338,2,0.8,0.0625,-35.0,-1,1.0,0.49459999999999127
339,2,0.8,1.0,-35.0,-1,1.0,0.2336999999999989
340,2,0.8,0.125,-35.0,-1,1.0,0.4898000000000593
341,2,0.8,0.0625,-35.0,-1,1.0,0.20489999999995234
342,2,0.8,0.25,-35.0,-1,1.0,0.22400000000016007
343,2,0.8,0.0625,-35.0,-1,1.0,0.21280000000001564
344,2,0.8,0.0,-35.0,1,0.0,0.15489999999999782
345,2,0.8,0.25,-35.0,-1,1.0,0.29739999999992506
346,2,0.8,1.0,-35.0,-1,1.0,0.282799999999952
347,2,0.8,0.0625,-35.0,-1,1.0,0.28120000000012624
348,2,0.8,0.25,35.0,1,1.0,0.28729999999995925
349,2,0.8,0.0,-35.0,-1,1.0,0.4833000000000993
350,2,0.8,1.0,-35.0,-1,1.0,0.3526000000001659
351,2,0.8,0.125,35.0,1,1.0,0.2117000000000644
352,2,0.8,0.0625,-35.0,-1,1.0,0.25060000000007676
353,2,0.8,0.0,-35.0,-1,1.0,3.10979999999995
354,2,0.8,0.0625,-35.0,-1,1.0,0.43810000000007676
355,2,0.8,0.0,-35.0,1,0.0,0.060699999999769716
356,2,0.8,0.25,-35.0,-1,1.0,0.24939999999992324
357,2,0.8,0.25,-35.0,-1,1.0,0.4514999999998963
358,2,0.8,1.0,-35.0,-1,1.0,0.2341999999998734
359,2,0.8,0.0625,-35.0,-1,1.0,0.04009999999993852
360,2,0.8,0.25,-35.0,-1,1.0,0.6361000000001695
361,2,0.8,0.125,-35.0,-1,1.0,0.384900000000016
362,2,0.8,1.0,-35.0,-1,1.0,0.42020000000002256
363,2,0.8,0.125,-35.0,-1,1.0,0.2960000000000491
364,2,0.8,0.125,-35.0,-1,1.0,1.821999999999889
365,2,0.8,0.125,-35.0,-1,1.0,0.5674999999998818
366,2,0.2,0.125,35.0,1,1.0,0.41010000000005675
367,2,0.2,0.0625,-35.0,-1,1.0,0.3061999999999898
368,2,0.2,1.0,35.0,1,1.0,0.231899999999996
369,2,0.2,0.25,35.0,1,1.0,0.22100000000000364
370,2,0.2,0.0,35.0,-1,0.0,0.23299999999994725
371,2,0.2,0.0625,35.0,1,1.0,0.2986999999998261
372,2,0.2,1.0,-35.0,-1,1.0,0.6508000000001175
373,2,0.2,0.25,35.0,1,1.0,0.2767999999998665
374,2,0.2,1.0,35.0,1,1.0,0.2496000000001004
375,2,0.2,0.25,-35.0,-1,1.0,1.0050999999998567
376,2,0.2,1.0,35.0,1,1.0,0.17390000000023065
377,2,0.2,0.0625,35.0,1,1.0,0.2195000000001528
378,2,0.2,0.125,35.0,1,1.0,0.38220000000001164
379,2,0.2,0.25,35.0,1,1.0,0.20460000000002765
380,2,0.2,0.25,35.0,1,1.0,0.1672000000000935
381,2,0.2,0.25,35.0,1,1.0,0.27670000000011896
382,2,0.2,0.0625,35.0,1,1.0,0.24939999999992324
383,2,0.2,0.125,35.0,1,1.0,0.19509900000002744
384,2,0.2,0.25,35.0,1,1.0,0.20380000000022847
385,2,0.2,0.25,-35.0,1,0.0,0.21270000000004075
386,2,0.2,0.125,-35.0,1,0.0,0.19180000000005748
387,2,0.2,0.0625,-35.0,-1,1.0,0.2976000000001022
388,2,0.2,0.25,35.0,1,1.0,0.2802999999998974
389,2,0.2,0.0625,35.0,1,1.0,0.19260000000008404
390,2,0.2,0.125,35.0,1,1.0,0.19859999999994216
391,2,0.2,1.0,35.0,1,1.0,0.18439999999986867
392,2,0.2,0.0625,35.0,1,1.0,0.2197000000001026
393,2,0.2,0.0,35.0,1,1.0,0.1957999999999629
394,2,0.2,1.0,35.0,1,1.0,0.21460000000001855
395,2,0.2,1.0,35.0,1,1.0,0.24739999999997053
396,2,0.2,0.125,35.0,1,1.0,0.3267000000000735
397,2,0.2,0.0625,-35.0,1,0.0,0.2060989999999947
398,2,0.2,0.125,35.0,1,1.0,0.2501999999999498
399,2,0.2,0.0625,35.0,1,1.0,0.22919999999999163
400,2,0.2,0.0625,-35.0,1,0.0,0.3351999999999862
401,2,0.2,0.25,35.0,1,1.0,0.2140999999999167
402,2,0.2,0.25,-35.0,-1,1.0,0.2898000000000138
403,2,0.2,0.125,35.0,1,1.0,0.25489999999990687
404,2,0.2,0.0625,35.0,1,1.0,0.27100000000018554
405,2,0.2,0.125,35.0,1,1.0,0.2336999999999989
406,2,0.2,0.25,-35.0,1,0.0,0.06960000000003674
407,2,0.2,0.0625,35.0,1,1.0,0.22529999999983374
408,2,0.2,0.25,35.0,1,1.0,0.2077999999999065
409,2,0.2,1.0,35.0,1,1.0,0.22329999999988104
410,2,0.2,0.0625,-35.0,1,0.0,0.3692000000000917
411,2,0.2,0.25,-35.0,-1,1.0,0.2782999999999447
412,2,0.2,0.0,-35.0,1,0.0,0.2242999999998574
413,2,0.2,0.0625,35.0,-1,0.0,0.1797999999998865
414,2,0.2,1.0,35.0,1,1.0,0.3089999999999691
415,2,0.2,0.25,35.0,1,1.0,0.3017000000002099
416,2,0.2,1.0,-35.0,1,0.0,0.17079999999987194
417,2,0.2,0.25,35.0,1,1.0,0.2899999999999636
418,2,0.2,0.125,35.0,1,1.0,0.30609999999978754
419,2,0.2,0.25,35.0,1,1.0,0.2720999999999094
420,2,0.2,0.0625,35.0,-1,0.0,3.8049000000000888
421,2,0.2,0.125,35.0,1,1.0,0.20280000000002474
422,2,0.2,0.25,35.0,1,1.0,0.22869999999988977
423,2,0.2,1.0,35.0,1,1.0,0.20139999999992142
424,2,0.2,0.25,-35.0,1,0.0,0.3606999999999516
425,2,0.2,0.0625,35.0,1,1.0,0.2595000000001164
426,2,0.2,0.0625,-35.0,1,0.0,0.28890000000001237
427,2,0.2,0.25,35.0,1,1.0,0.2581000000000131
428,2,0.2,1.0,35.0,1,1.0,0.26739999999995234
429,2,0.2,0.125,35.0,1,1.0,0.2235000000000582
430,2,0.2,1.0,35.0,1,1.0,0.2056999999999789
431,2,0.2,1.0,35.0,1,1.0,0.22509999999988395
432,2,0.2,0.0625,35.0,1,1.0,0.22119999999995343
433,2,0.2,0.0625,35.0,1,1.0,0.23670000000015534
434,2,0.2,1.0,35.0,1,1.0,0.21550000000024738
435,2,0.2,0.125,35.0,1,1.0,0.2617000000000189
436,2,0.2,0.25,35.0,1,1.0,0.5843000000002121
437,2,0.2,0.125,35.0,1,1.0,0.20019999999999527
438,2,0.2,0.25,-35.0,-1,1.0,0.6225999999999203
439,2,0.2,0.0625,35.0,1,1.0,0.578499999999849
440,2,0.2,0.0625,35.0,1,1.0,0.29099999999994
441,2,0.2,1.0,-35.0,-1,1.0,0.4568000000001575
442,2,0.2,0.0625,-35.0,1,0.0,0.23260000000004766
443,2,0.2,1.0,35.0,1,1.0,0.248299999999972
444,2,0.2,0.0625,35.0,1,1.0,0.0009999999999763531
445,2,0.8,1.0,-35.0,-1,1.0,0.327199999999948
446,2,0.8,0.0625,-35.0,1,0.0,0.23299999999994725
447,2,0.8,0.0625,-35.0,-1,1.0,1.2019999999999982
448,2,0.8,1.0,-35.0,-1,1.0,0.5878000000000156
449,2,0.8,0.0,-35.0,-1,1.0,1.4537999999997737
450,2,0.8,0.25,35.0,1,1.0,0.2295000000001437
451,2,0.8,1.0,-35.0,-1,1.0,0.26880000000005566
452,2,0.8,0.0625,-35.0,1,0.0,0.21149999999988722
453,2,0.8,0.25,35.0,1,1.0,0.2740000000001146
454,2,0.8,0.0625,-35.0,-1,1.0,0.25329999999985375
455,2,0.8,0.25,-35.0,-1,1.0,0.2593000000001666
456,2,0.8,0.25,35.0,1,1.0,0.2685999999998785
457,2,0.8,0.125,-35.0,1,0.0,0.2380000000000564
458,2,0.8,0.0625,-35.0,-1,1.0,0.727100000000064
459,2,0.8,0.25,-35.0,-1,1.0,0.44299999999998363
460,2,0.8,0.0625,-35.0,-1,1.0,0.6421999999997752
461,2,0.8,1.0,-35.0,-1,1.0,0.25480000000015934
462,2,0.8,0.25,35.0,-1,0.0,0.41409999999996217
463,2,0.8,0.0,35.0,-1,0.0,0.4963999999999942
464,2,0.8,0.25,-35.0,-1,1.0,0.22880000000009204
465,2,0.8,1.0,-35.0,-1,1.0,0.3549000000000433
466,2,0.8,0.0,-35.0,-1,1.0,3.0704000000000633
467,2,0.8,1.0,-35.0,-1,1.0,0.21869999999989886
468,2,0.8,0.0,-35.0,-1,1.0,1.2946999999999207
469,2,0.8,0.25,-35.0,-1,1.0,0.33999999999991815
470,2,0.8,0.25,-35.0,-1,1.0,0.4349000000001979
471,2,0.8,1.0,-35.0,-1,1.0,0.7007999999998447
472,2,0.8,0.125,-35.0,-1,1.0,0.3168000000000575
473,2,0.8,0.0625,-35.0,-1,1.0,0.3161999999999807
474,2,0.8,0.25,-35.0,-1,1.0,0.4819999999999709
475,2,0.8,0.25,-35.0,-1,1.0,0.2580000000000382
476,2,0.8,1.0,-35.0,-1,1.0,0.34720000000015716
477,2,0.8,0.0,-35.0,-1,1.0,0.27319999999986067
478,2,0.8,0.25,-35.0,-1,1.0,0.282399999999825
479,2,0.8,0.0625,-35.0,-1,1.0,0.31169999999997344
480,2,0.8,0.0625,35.0,1,1.0,0.38449999999988904
481,2,0.8,0.25,35.0,1,1.0,0.2938000000001466
482,2,0.8,0.25,35.0,1,1.0,0.26320000000009713
483,2,0.8,1.0,-35.0,-1,1.0,0.46230000000014115
484,2,0.8,0.0,-35.0,1,0.0,0.21479999999996835
485,2,0.8,0.0,35.0,-1,0.0,1.1305999999999585
486,2,0.8,0.0625,-35.0,-1,1.0,0.33609999999998763
487,2,0.8,0.0,-35.0,-1,1.0,0.39220000000000255
488,2,0.8,0.125,-35.0,-1,1.0,0.4881000000000313
489,2,0.8,0.0625,-35.0,-1,1.0,1.1708000000000993
490,2,0.8,1.0,-35.0,-1,1.0,0.32320000000004256
491,2,0.8,0.0625,-35.0,-1,1.0,0.3726000000001477
492,2,0.8,0.125,35.0,1,1.0,0.29520000000002256
493,2,0.8,0.25,-35.0,-1,1.0,0.29749999999989996
494,2,0.8,1.0,-35.0,-1,1.0,0.4233000000001539
495,2,0.8,0.25,-35.0,-1,1.0,0.3989000000001397
496,2,0.8,0.125,-35.0,-1,1.0,0.4381999999998243
497,2,0.8,0.0625,35.0,-1,0.0,0.6006999999999607
498,2,0.8,0.0625,-35.0,-1,1.0,0.4329999999999927
499,2,0.8,0.125,-35.0,-1,1.0,0.815599999999904
500,2,0.8,1.0,-35.0,-1,1.0,0.37810000000013133
501,2,0.8,0.0625,-35.0,-1,1.0,0.4940999999998894
502,2,0.8,0.0625,-35.0,-1,1.0,0.49339999999983775
503,2,0.2,0.125,35.0,1,1.0,0.2623000000000957
504,2,0.2,0.0,35.0,-1,0.0,0.5550000000000637
505,2,0.2,0.0625,-35.0,-1,1.0,0.6673000000000684
506,2,0.2,0.0,35.0,-1,0.0,4.349799999999959
507,2,0.2,1.0,35.0,1,1.0,0.29100000000016735
508,2,0.2,0.0,35.0,-1,0.0,0.8136000000001786
509,2,0.2,0.0625,35.0,1,1.0,0.39249999999992724
510,2,0.2,0.0625,35.0,-1,0.0,2.9486000000001695
511,2,0.2,0.25,35.0,1,1.0,0.2700999999999567
512,2,0.2,0.125,35.0,-1,0.0,1.0995000000000346
513,2,0.2,0.25,35.0,1,1.0,0.2948999999998705
514,2,0.2,0.25,35.0,1,1.0,2.7310999999999694
515,2,0.2,0.0625,-35.0,-1,1.0,0.37969999999995707
516,2,0.2,1.0,35.0,1,1.0,0.34570000000007894
517,2,0.2,1.0,35.0,1,1.0,0.2783000000001721
518,2,0.2,0.0625,35.0,1,1.0,0.23730000000000473
519,2,0.2,0.0625,-35.0,-1,1.0,3.5867000000000644
520,2,0.2,0.0625,35.0,1,1.0,0.3183000000001357
521,2,0.2,0.0625,35.0,1,1.0,0.31770000000005894
522,2,0.2,0.25,-35.0,-1,1.0,1.8670000000001892
523,2,0.2,0.125,35.0,-1,0.0,1.5394000000001142
524,2,0.2,1.0,35.0,1,1.0,0.3347000000001117
525,2,0.2,0.25,-35.0,-1,1.0,0.5907999999999447
526,2,0.2,0.125,-35.0,-1,1.0,0.5732999999997901
527,2,0.2,0.25,35.0,1,1.0,0.28539999999998145
528,2,0.2,1.0,35.0,1,1.0,0.2581000000000131
529,2,0.2,0.0625,-35.0,1,0.0,3.024299999999812
530,2,0.2,0.25,35.0,1,1.0,0.9684999999999491
531,2,0.2,0.0,35.0,1,1.0,0.3009999999999309
532,2,0.2,0.125,35.0,1,1.0,0.27369999999996253
533,2,0.2,0.125,35.0,1,1.0,5.8564000000001215
534,2,0.2,0.0,35.0,1,1.0,0.34059999999976753
535,2,0.2,0.25,35.0,1,1.0,4.848499999999831
536,2,0.2,0.0,35.0,1,1.0,17.80899999999997
537,2,0.2,0.25,35.0,-1,0.0,3.9429999999997563
538,2,0.2,0.0,35.0,1,1.0,19.954299999999876
539,2,0.2,0.25,-35.0,-1,1.0,0.4540999999999258
540,2,0.2,1.0,35.0,1,1.0,0.260099000000082
541,2,0.2,0.125,35.0,1,1.0,8.24590000000012
542,2,0.2,0.0625,35.0,1,1.0,0.3629000000000815
543,2,0.2,0.25,35.0,1,1.0,0.15210000000001855
544,2,0.2,0.0625,35.0,1,1.0,0.3082000000001699
545,2,0.2,0.0,35.0,1,1.0,0.26089999999999236
546,2,0.2,1.0,35.0,1,1.0,0.3502000000000862
547,2,0.2,0.0625,35.0,1,1.0,0.29290000000014516
548,2,0.2,0.125,35.0,1,1.0,2.5448999999998705
549,2,0.8,0.0625,-35.0,-1,1.0,0.6168999999999869
550,2,0.8,0.0,35.0,1,1.0,0.24919999999997344
551,2,0.8,0.0625,-35.0,1,0.0,0.38850000000002183
552,2,0.8,1.0,35.0,1,1.0,0.2877000000000862
553,2,0.8,1.0,-35.0,-1,1.0,0.45689999999990505
554,2,0.8,0.25,-35.0,-1,1.0,0.45919999999978245
555,2,0.8,0.0625,-35.0,1,0.0,0.2949989999999616
556,2,0.8,0.125,-35.0,1,0.0,5.420800000000099
557,2,0.8,0.0625,-35.0,1,0.0,4.947599999999966
558,2,0.8,0.125,35.0,1,1.0,0.25530000000003383
559,2,0.8,1.0,-35.0,-1,1.0,0.401299999999992
560,2,0.8,1.0,35.0,1,1.0,0.277299999999741
561,2,0.8,0.25,-35.0,-1,1.0,0.2767999999998665
562,2,0.8,0.25,-35.0,-1,1.0,0.42289999999979955
563,2,0.8,0.0,-35.0,1,0.0,14.32549999999992
564,2,0.8,0.25,-35.0,-1,1.0,0.9402999999999793
565,2,0.8,0.25,-35.0,-1,1.0,0.5361000000000331
566,2,0.8,0.0625,-35.0,1,0.0,0.17869999999993524
567,2,0.8,0.0,-35.0,1,0.0,16.83120000000008
568,2,0.8,0.125,-35.0,-1,1.0,0.5151000000000749
569,2,0.8,0.125,35.0,-1,0.0,0.5010999999999513
570,2,0.8,0.25,-35.0,-1,1.0,3.2035000000000764
571,2,0.8,1.0,-35.0,-1,1.0,0.3085000000000946
572,2,0.8,0.25,-35.0,-1,1.0,0.5545000000001892
573,2,0.8,0.0,-35.0,-1,1.0,0.7603999999998905
574,2,0.8,1.0,-35.0,-1,1.0,0.34950000000003456
575,2,0.8,0.125,35.0,1,1.0,0.24850000000014916
576,2,0.8,0.125,-35.0,-1,1.0,1.5411999999998898
577,2,0.8,0.0625,-35.0,-1,1.0,0.626399999999876
578,2,0.8,0.0625,-35.0,1,0.0,0.24510000000009313
579,2,0.8,0.0625,35.0,-1,0.0,0.7108000000000629
580,2,0.8,0.0625,-35.0,-1,1.0,0.3731999999997697
581,2,0.8,0.0625,35.0,-1,0.0,10.052599999999984
582,2,0.8,0.0625,-35.0,-1,1.0,0.6716999999998734
583,2,0.8,0.0625,-35.0,-1,1.0,0.6128000000001066
584,2,0.8,0.25,-35.0,-1,1.0,0.5554000000001906
585,2,0.8,0.125,-35.0,-1,1.0,0.4568000000001575
586,2,0.8,0.25,35.0,1,1.0,0.24939999999992324
587,2,0.8,0.125,-35.0,-1,1.0,0.6286000000000058
588,2,0.8,0.0,-35.0,-1,1.0,0.6078999999999724
589,2,0.8,0.25,-35.0,-1,1.0,0.4759000000001379
590,2,0.8,0.25,35.0,1,1.0,0.2452000000002954
591,2,0.8,0.125,-35.0,-1,1.0,0.5311999999998989
592,2,0.8,0.0,-35.0,-1,1.0,0.7241999999998825
593,2,0.8,0.0,-35.0,-1,1.0,2.7796999999998206
594,2,0.8,0.125,-35.0,-1,1.0,0.1752000000001317
595,2,0.8,0.125,-35.0,-1,1.0,0.31819999999970605
596,2,0.8,0.0,35.0,-1,0.0,0.46370000000024447
597,2,0.8,1.0,-35.0,-1,1.0,0.3328999999998814
598,2,0.8,0.0625,-35.0,-1,1.0,0.3888999999999214
599,2,0.8,0.0625,-35.0,-1,1.0,0.8449999999997999
600,2,0.8,0.25,-35.0,-1,1.0,0.3805999999999585
601,2,0.2,0.0,35.0,-1,0.0,13.480099999999311
602,2,0.2,0.0625,35.0,1,1.0,0.6056999999996151
603,2,0.2,1.0,-35.0,-1,1.0,0.4946999999997388
604,2,0.2,0.125,35.0,1,1.0,0.46399999999948704
605,2,0.2,1.0,35.0,1,1.0,0.2761999999997897
606,2,0.2,1.0,35.0,1,1.0,0.3621000000002823
607,2,0.2,0.125,35.0,1,1.0,0.25879999999961
608,2,0.2,0.125,35.0,1,1.0,0.6647999999995591
609,2,0.2,0.0,35.0,-1,0.0,18.347299999999905
610,2,0.2,1.0,35.0,1,1.0,0.26729999999997744
611,2,0.2,0.0625,35.0,1,1.0,2.819799999999759
612,2,0.2,1.0,35.0,1,1.0,0.26470000000017535
613,2,0.2,0.0625,35.0,1,1.0,47.3144999999995
614,2,0.2,0.25,35.0,1,1.0,0.2826989999998659
615,2,0.2,0.0625,35.0,-1,0.0,0.19509999999991123
616,2,0.2,0.25,35.0,1,1.0,0.2504999999996471
617,2,0.2,1.0,35.0,1,1.0,0.39629999999988286
618,2,0.2,0.0625,35.0,1,1.0,0.25939999999991414
619,2,0.2,1.0,35.0,1,1.0,0.32169999999996435
620,2,0.2,0.0,-35.0,1,0.0,16.43820000000005
621,2,0.2,1.0,-35.0,-1,1.0,0.2615999999993619
622,2,0.8,0.0625,-35.0,-1,1.0,0.4248999999995249
623,2,0.8,0.0625,-35.0,-1,1.0,0.25520000000005894
624,2,0.8,0.25,-35.0,-1,1.0,2.636399999999867
625,2,0.8,0.0625,-35.0,-1,1.0,0.37139999999953943
626,2,0.8,0.125,-35.0,-1,1.0,0.4173000000000684
627,2,0.8,0.125,-35.0,-1,1.0,0.5534999999999854
628,2,0.8,0.0,-35.0,-1,1.0,24.12599999999975
629,2,0.8,0.0625,-35.0,-1,1.0,0.787399999999252
630,2,0.8,1.0,-35.0,-1,1.0,0.43289999999979045
631,2,0.8,0.125,-35.0,-1,1.0,1.0246999999994841
632,2,0.8,0.125,-35.0,-1,1.0,0.4338999999999942
633,2,0.8,0.125,-35.0,-1,1.0,0.3760999999994965
634,2,0.8,0.0,-35.0,-1,1.0,0.3154999999997017
635,2,0.8,0.25,-35.0,-1,1.0,0.10829999999987194
636,2,0.8,0.25,-35.0,-1,1.0,0.2078999999998814
637,2,0.8,0.25,35.0,1,1.0,0.5669000000002598
638,2,0.8,1.0,-35.0,-1,1.0,0.2890999999995074
639,2,0.8,0.25,35.0,1,1.0,0.20839999999998327
640,2,0.8,1.0,-35.0,1,0.0,0.17699999999967986
641,2,0.8,0.0625,35.0,-1,0.0,0.32609999999976935
642,2,0.8,1.0,-35.0,-1,1.0,0.45489999999972497
643,2,0.8,0.125,-35.0,-1,1.0,3.9074000000000524
644,2,0.8,0.125,-35.0,-1,1.0,0.34600000000000364
645,2,0.8,0.25,35.0,-1,0.0,1.4351999999998952
646,2,0.8,1.0,-35.0,-1,1.0,0.466099999999642
647,2,0.8,0.0,-35.0,-1,1.0,3.892199999999775
648,2,0.8,0.0,35.0,-1,0.0,1.2537999999995009
649,2,0.8,1.0,-35.0,-1,1.0,0.222599999999602
650,2,0.8,0.0625,-35.0,-1,1.0,2.5716999999999643
651,2,0.8,1.0,-35.0,-1,1.0,0.29399999999986903
652,2,0.8,0.0625,-35.0,-1,1.0,0.21339999999963766
653,2,0.8,0.125,35.0,1,1.0,6.539099999999962
654,2,0.8,0.0,35.0,1,1.0,23.779999999999745
655,2,0.8,1.0,-35.0,-1,1.0,0.15879999999970096
656,2,0.8,0.125,-35.0,1,0.0,5.434699999999793
657,2,0.8,1.0,-35.0,-1,1.0,0.6296010000000933
658,2,0.8,0.125,-35.0,-1,1.0,17.168301000000156
659,2,0.8,0.125,-35.0,1,0.0,53.8257009999993
660,2,0.8,1.0,-35.0,-1,1.0,0.28140099999973245
661,2,0.2,0.125,35.0,1,1.0,1.6942009999997936
662,2,0.2,0.0625,-35.0,-1,1.0,1.116400999999314
663,2,0.2,0.0625,35.0,-1,0.0,0.3819009999992886
664,2,0.2,0.0625,35.0,1,1.0,15.551300999999512
665,2,0.2,0.0625,35.0,-1,0.0,4.818600999999944
666,2,0.2,1.0,35.0,1,1.0,0.2695010000002185
667,2,0.2,1.0,-35.0,-1,1.0,1.374800999999934
668,2,0.2,0.25,-35.0,1,0.0,39.710200999999415
669,2,0.2,0.0,35.0,1,1.0,40.79040099999929
670,2,0.2,0.0,35.0,-1,0.0,1.3177009999999427
671,2,0.2,0.0625,35.0,1,1.0,3.3488009999996393
672,2,0.2,0.0625,35.0,1,1.0,1.737101000000166
673,2,0.2,1.0,35.0,1,1.0,0.3991009999999733
674,2,0.2,1.0,35.0,1,1.0,0.24200099999961822
675,2,0.2,1.0,-35.0,-1,1.0,0.21130099999982122
1,3,0.2,1.0,35.0,1,1.0,0.23720000000000008
2,3,0.2,0.125,35.0,1,1.0,0.22449999999999903
3,3,0.2,1.0,-35.0,-1,1.0,0.17339999999999822
4,3,0.2,1.0,-35.0,-1,1.0,0.23300000000000054
5,3,0.2,0.0625,35.0,1,1.0,0.23559999999999803
6,3,0.2,0.125,35.0,1,1.0,0.5714999999999986
7,3,0.2,0.0625,35.0,1,1.0,0.712299999999999
8,3,0.2,0.25,35.0,1,1.0,0.27309999999999945
9,3,0.2,0.0625,35.0,1,1.0,2.2424999999999997
10,3,0.2,0.125,35.0,1,1.0,0.44450000000000145
11,3,0.2,0.0625,35.0,1,1.0,4.095299999999998
12,3,0.2,0.0625,35.0,-1,0.0,0.8787999999999911
13,3,0.2,0.25,35.0,1,1.0,0.34850000000000136
14,3,0.2,0.25,35.0,1,1.0,0.9405000000000001
15,3,0.2,0.0625,35.0,1,1.0,2.0608999999999966
16,3,0.2,0.0625,-35.0,-1,1.0,0.6811999999999969
17,3,0.2,0.125,35.0,1,1.0,0.3148999999999944
18,3,0.2,0.125,35.0,1,1.0,0.21809999999999974
19,3,0.2,0.25,35.0,1,1.0,0.5729999999999933
20,3,0.2,1.0,35.0,1,1.0,0.2839999999999989
21,3,0.2,0.125,35.0,1,1.0,0.25969999999999516
22,3,0.2,0.25,35.0,1,1.0,0.22650000000000148
23,3,0.2,0.0625,35.0,1,1.0,0.3406999999999982
24,3,0.2,0.125,-35.0,-1,1.0,0.5828999999999951
25,3,0.2,0.0,35.0,-1,0.0,7.034999999999997
26,3,0.2,1.0,35.0,1,1.0,0.27719999999997924
27,3,0.2,0.0,-35.0,1,0.0,0.468599999999995
28,3,0.2,0.25,35.0,1,1.0,0.25149999999999295
29,3,0.2,1.0,35.0,1,1.0,0.18210000000000548
30,3,0.2,0.25,35.0,1,1.0,0.20069999999999766
31,3,0.2,0.0625,35.0,-1,0.0,1.1425000000000125
32,3,0.2,1.0,35.0,1,1.0,0.2553000000000054
33,3,0.2,1.0,35.0,1,1.0,0.3199990000000099
34,3,0.2,0.125,-35.0,-1,1.0,0.23470000000000368
35,3,0.2,0.25,35.0,1,1.0,0.26309999999999434
36,3,0.2,1.0,35.0,1,1.0,0.1811000000000007
37,3,0.8,0.25,-35.0,-1,1.0,0.5713000000000079
38,3,0.8,0.0625,35.0,1,1.0,0.349899999999991
39,3,0.8,0.125,-35.0,-1,1.0,0.5874000000000166
40,3,0.8,0.0625,-35.0,1,0.0,0.38050000000001205
41,3,0.8,0.0625,-35.0,1,0.0,0.2224999999999966
42,3,0.8,0.25,-35.0,-1,1.0,0.3351999999999862
43,3,0.8,0.0625,35.0,1,1.0,1.3015000000000043
44,3,0.8,0.25,-35.0,-1,1.0,0.525999999999982
45,3,0.8,0.125,-35.0,-1,1.0,0.4111000000000047
46,3,0.8,0.125,-35.0,-1,1.0,0.41809999999998126
47,3,0.8,0.25,35.0,1,1.0,0.3003000000000213
48,3,0.8,0.25,35.0,1,1.0,0.27060000000000173
49,3,0.8,0.25,-35.0,-1,1.0,0.5510000000000161
50,3,0.8,0.0,-35.0,-1,1.0,4.592500000000001
51,3,0.8,1.0,-35.0,-1,1.0,0.35829999999998563
52,3,0.8,0.0,-35.0,-1,1.0,1.6119999999999948
53,3,0.8,0.125,-35.0,-1,1.0,0.46479999999999677
54,3,0.8,1.0,-35.0,-1,1.0,0.33099999999998886
55,3,0.8,0.0,-35.0,1,0.0,3.7982999999999834
56,3,0.8,0.0625,-35.0,-1,1.0,0.36889999999999645
57,3,0.8,0.25,-35.0,-1,1.0,0.26830000000001064
58,3,0.8,0.0625,-35.0,-1,1.0,1.0720000000000027
59,3,0.8,0.0625,-35.0,-1,1.0,0.2115000000000009
60,3,0.8,1.0,-35.0,-1,1.0,0.2545999999999822
61,3,0.8,0.0,-35.0,1,0.0,4.5283000000000015
62,3,0.8,0.0625,35.0,1,1.0,0.21060000000002788
63,3,0.8,0.25,-35.0,-1,1.0,0.5174999999999841
64,3,0.8,0.0625,35.0,1,1.0,0.20069899999998597
65,3,0.8,1.0,-35.0,-1,1.0,0.24159999999997694
66,3,0.8,1.0,-35.0,-1,1.0,0.21989999999999554
67,3,0.8,0.125,-35.0,-1,1.0,0.45539999999999736
68,3,0.8,0.0,-35.0,1,0.0,0.31219999999999004
69,3,0.8,0.125,-35.0,-1,1.0,0.38450000000000273
70,3,0.8,0.0625,-35.0,-1,1.0,0.49049999999999727
71,3,0.8,0.0625,-35.0,-1,1.0,0.47040000000001214
72,3,0.8,0.0625,-35.0,-1,1.0,0.20259999999998968
73,3,0.2,0.0625,35.0,-1,0.0,0.18420000000003256
74,3,0.2,0.125,35.0,1,1.0,0.2815999999999974
75,3,0.2,1.0,35.0,1,1.0,0.23849999999998772
76,3,0.2,0.0,35.0,1,1.0,0.2599999999999909
77,3,0.2,0.125,35.0,1,1.0,0.19419999999999504
78,3,0.2,0.0625,35.0,1,1.0,0.23149999999998272
79,3,0.2,0.0625,35.0,1,1.0,0.2842000000000269
80,3,0.2,0.0625,-35.0,1,0.0,0.19389999999998508
81,3,0.2,1.0,-35.0,-1,1.0,0.3856000000000108
82,3,0.2,0.25,35.0,1,1.0,0.1844000000000392
83,3,0.2,0.0,35.0,1,1.0,0.24270000000001346
84,3,0.2,0.0625,35.0,1,1.0,0.31030000000004065
85,3,0.2,1.0,35.0,1,1.0,0.20700000000005048
86,3,0.2,1.0,35.0,1,1.0,0.20320000000003802
87,3,0.2,0.0625,35.0,1,1.0,0.3351000000000681
88,3,0.2,0.25,35.0,1,1.0,0.20220000000006166
89,3,0.2,0.125,35.0,1,1.0,0.27129999999999654
90,3,0.2,0.0625,35.0,1,1.0,0.27750000000003183
91,3,0.2,0.0625,35.0,1,1.0,0.14049999999997453
92,3,0.2,1.0,35.0,1,1.0,0.23300000000006094
93,3,0.2,0.25,35.0,1,1.0,0.2287000000000603
94,3,0.2,0.0625,-35.0,1,0.0,0.24090000000001055
95,3,0.8,0.0625,35.0,1,1.0,0.3397000000000503
96,3,0.8,0.0625,-35.0,1,0.0,0.2737000000000762
97,3,0.8,1.0,35.0,1,1.0,0.17870000000004893
98,3,0.8,0.0625,-35.0,1,0.0,1.8631000000000313
99,3,0.8,0.25,-35.0,-1,1.0,0.5002000000000066
100,3,0.8,0.25,-35.0,-1,1.0,0.4805000000000632
101,3,0.8,0.25,-35.0,-1,1.0,0.4680000000000746
102,3,0.8,0.125,-35.0,-1,1.0,0.6252000000000066
103,3,0.8,0.0,35.0,1,1.0,0.2561000000000604
104,3,0.8,0.0,35.0,1,1.0,0.2586000000000013
105,3,0.8,1.0,-35.0,-1,1.0,0.5586000000000695
106,3,0.8,1.0,35.0,1,1.0,0.23869999999999436
107,3,0.8,0.0,-35.0,1,0.0,0.1867000000000303
108,3,0.8,0.125,-35.0,-1,1.0,0.40629999999998745
109,3,0.8,0.0,35.0,1,1.0,3.6616000000000213
110,3,0.8,1.0,-35.0,-1,1.0,0.4175999999999931
111,3,0.8,0.0,35.0,-1,0.0,0.32370000000003074
112,3,0.8,0.125,-35.0,1,0.0,0.1974999999999909
113,3,0.8,0.25,35.0,1,1.0,0.22169999999999845
114,3,0.8,0.125,-35.0,-1,1.0,0.26640000000003283
115,3,0.8,0.125,-35.0,-1,1.0,0.3136000000000081
116,3,0.8,1.0,35.0,1,1.0,0.2545999999999822
117,3,0.8,0.0625,35.0,-1,0.0,0.23149999999998272
118,3,0.8,1.0,35.0,1,1.0,0.16970000000003438
119,3,0.8,1.0,-35.0,1,0.0,0.16300000000001091
120,3,0.8,0.125,-35.0,1,0.0,0.12340000000000373
121,3,0.8,0.25,-35.0,-1,1.0,0.5891000000000872
122,3,0.8,0.25,35.0,1,1.0,0.24459900000005064
123,3,0.8,1.0,-35.0,-1,1.0,0.39990000000000236
124,3,0.8,0.125,-35.0,-1,1.0,0.3006000000000313
125,3,0.8,0.0625,-35.0,-1,1.0,0.43990000000007967
126,3,0.8,0.125,-35.0,-1,1.0,0.489400000000046
127,3,0.8,1.0,-35.0,-1,1.0,0.5312000000000126
128,3,0.8,0.0,-35.0,1,0.0,0.22390000000001464
129,3,0.8,0.125,35.0,1,1.0,0.2869999999999777
130,3,0.8,1.0,-35.0,-1,1.0,0.22430000000002792
131,3,0.8,0.125,-35.0,-1,1.0,4.808200000000056
132,3,0.8,0.25,-35.0,-1,1.0,0.477800000000002
133,3,0.8,0.125,-35.0,-1,1.0,0.39980000000002747
134,3,0.8,1.0,-35.0,-1,1.0,0.3830000000000382
135,3,0.8,0.125,35.0,1,1.0,0.2849000000000501
136,3,0.8,0.125,35.0,1,1.0,0.2716000000000349
137,3,0.8,0.0,-35.0,1,0.0,0.30070000000006303
138,3,0.8,1.0,-35.0,-1,1.0,0.37510000000003174
139,3,0.8,0.125,-35.0,-1,1.0,0.5163000000000011
140,3,0.8,1.0,-35.0,-1,1.0,0.20890000000002829
141,3,0.8,1.0,35.0,1,1.0,0.24099999999998545
142,3,0.8,0.0625,-35.0,1,0.0,0.5925000000000296
143,3,0.8,0.0625,35.0,1,1.0,0.36489999999997735
144,3,0.8,0.125,-35.0,-1,1.0,0.9218000000000188
145,3,0.8,0.0,-35.0,1,0.0,0.2439000000000533
146,3,0.8,0.125,35.0,1,1.0,0.22970000000003665
147,3,0.8,0.0625,-35.0,-1,1.0,0.5058999999999969
148,3,0.8,0.125,-35.0,-1,1.0,0.2721000000000231
149,3,0.8,0.0,-35.0,-1,1.0,4.316600000000051
150,3,0.8,1.0,-35.0,-1,1.0,0.3261999999999716
151,3,0.8,0.125,-35.0,-1,1.0,0.3125
152,3,0.8,1.0,-35.0,-1,1.0,0.4410000000000309
153,3,0.8,1.0,-35.0,-1,1.0,0.33939999999995507
154,3,0.8,0.0625,-35.0,-1,1.0,0.3404000000000451
155,3,0.8,0.25,-35.0,-1,1.0,0.3371000000000208
156,3,0.8,0.25,-35.0,-1,1.0,0.261099999999999
157,3,0.8,0.25,-35.0,-1,1.0,0.46850000000006276
158,3,0.8,0.0625,35.0,-1,0.0,0.20010000000007722
159,3,0.8,1.0,-35.0,-1,1.0,0.16809999999998126
160,3,0.8,0.0625,35.0,1,1.0,0.30550000000005184
161,3,0.8,0.25,-35.0,-1,1.0,0.30600000000004
162,3,0.8,1.0,-35.0,-1,1.0,0.44880000000000564
163,3,0.8,0.25,-35.0,-1,1.0,0.3467000000000553
164,3,0.8,0.0625,35.0,1,1.0,0.3343000000000984
165,3,0.8,0.25,-35.0,-1,1.0,0.4378000000000384
166,3,0.2,0.25,35.0,1,1.0,0.17250000000001364
167,3,0.2,0.25,35.0,1,1.0,0.17570000000000618
168,3,0.2,0.125,35.0,1,1.0,0.1855000000000473
169,3,0.2,0.0,35.0,1,1.0,0.24480000000005475
170,3,0.2,1.0,35.0,1,1.0,0.19860000000005584
171,3,0.2,0.0625,-35.0,1,0.0,1.6870000000000118
172,3,0.2,0.25,35.0,1,1.0,0.3089999999999691
173,3,0.2,1.0,-35.0,-1,1.0,0.2282999999998765
174,3,0.2,0.25,35.0,1,1.0,0.24919999999997344
175,3,0.2,1.0,-35.0,-1,1.0,0.2378999999999678
176,3,0.2,0.25,-35.0,-1,1.0,0.23489999999992506
177,3,0.2,0.0625,35.0,1,1.0,0.6163000000001375
178,3,0.2,1.0,35.0,1,1.0,0.2399000000000342
179,3,0.2,0.25,35.0,1,1.0,0.4336000000000695
180,3,0.2,0.0625,35.0,1,1.0,0.2943000000000211
181,3,0.2,0.25,35.0,1,1.0,0.22670000000005075
182,3,0.2,0.0625,-35.0,1,0.0,0.2136000000000422
183,3,0.2,0.25,35.0,1,1.0,0.23950000000002092
184,3,0.2,0.25,35.0,1,1.0,0.2563999999999851
185,3,0.2,0.25,-35.0,-1,1.0,0.5240999999999758
186,3,0.8,0.25,-35.0,-1,1.0,0.9267999999999574
187,3,0.8,0.125,-35.0,-1,1.0,0.2336999999999989
188,3,0.8,0.125,35.0,1,1.0,0.2219000000000051
189,3,0.8,0.25,-35.0,-1,1.0,0.37220000000002074
190,3,0.8,0.0,-35.0,-1,1.0,0.3930000000000291
191,3,0.8,0.25,-35.0,-1,1.0,0.22659999999996217
192,3,0.8,0.125,-35.0,1,0.0,0.17099999999993543
193,3,0.8,0.0625,-35.0,-1,1.0,0.23689999999999145
194,3,0.8,0.125,-35.0,-1,1.0,0.23720000000002983
195,3,0.8,1.0,-35.0,-1,1.0,0.24109999999996035
196,3,0.8,0.25,-35.0,-1,1.0,0.20609999999999218
197,3,0.8,0.125,35.0,1,1.0,0.3612000000000535
198,3,0.8,1.0,35.0,1,1.0,0.1653000000001157
199,3,0.8,0.0,35.0,-1,0.0,0.4094000000000051
200,3,0.8,0.25,-35.0,-1,1.0,0.6057000000000698
201,3,0.8,1.0,-35.0,1,0.0,0.18820000000005166
202,3,0.8,1.0,-35.0,-1,1.0,0.2645999999999731
203,3,0.8,0.125,35.0,1,1.0,0.30169999999998254
204,3,0.8,0.0625,-35.0,-1,1.0,0.684099999999944
205,3,0.8,1.0,-35.0,-1,1.0,0.18200000000001637
206,3,0.8,0.25,35.0,1,1.0,0.29739999999992506
207,3,0.8,0.0,-35.0,1,0.0,0.23130000000003292
208,3,0.8,1.0,-35.0,1,0.0,3.0538999999999987
209,3,0.8,0.125,-35.0,-1,1.0,0.3870000000000573
210,3,0.8,0.25,-35.0,-1,1.0,0.35930000000007567
211,3,0.8,1.0,-35.0,-1,1.0,0.3310999999999922
212,3,0.8,0.25,-35.0,-1,1.0,0.3444000000000642
213,3,0.8,1.0,-35.0,-1,1.0,0.3120000000000118
214,3,0.8,0.25,-35.0,-1,1.0,0.38049999999998363
215,3,0.8,0.125,-35.0,-1,1.0,0.19090000000005602
216,3,0.8,0.25,-35.0,-1,1.0,0.23630000000002838
217,3,0.8,0.0,35.0,-1,0.0,0.27480000000014115
218,3,0.8,0.125,-35.0,-1,1.0,0.2337999999999738
219,3,0.8,0.0625,-35.0,-1,1.0,1.152400000000057
220,3,0.8,0.0,35.0,-1,0.0,0.7023000000000366
221,3,0.8,0.0625,35.0,1,1.0,0.08420000000000982
222,3,0.8,0.25,35.0,1,1.0,0.19780000000002929
223,3,0.8,0.125,-35.0,-1,1.0,0.6055999999999813
224,3,0.8,0.125,35.0,1,1.0,0.2259999999999991
225,3,0.8,0.25,35.0,1,1.0,0.179300000000012
226,3,0.8,0.0,-35.0,1,0.0,0.2798999999999978
227,3,0.8,0.25,35.0,1,1.0,0.1895000000000664
228,3,0.8,0.125,-35.0,-1,1.0,0.5287000000000717
229,3,0.8,0.125,-35.0,-1,1.0,0.25460000000009586
230,3,0.2,0.125,-35.0,-1,1.0,0.2839000000000169
231,3,0.2,0.25,35.0,1,1.0,0.31389999999987594
232,3,0.2,0.25,35.0,1,1.0,0.25650000000007367
233,3,0.2,0.125,-35.0,-1,1.0,0.45810000000005857
234,3,0.2,0.125,35.0,1,1.0,0.20209999999997308
235,3,0.2,1.0,-35.0,-1,1.0,0.23599899999999252
236,3,0.2,1.0,35.0,1,1.0,0.2904000000000906
237,3,0.2,0.0625,35.0,1,1.0,0.9974999999999454
238,3,0.2,0.0625,35.0,1,1.0,0.3022000000000844
239,3,0.2,1.0,35.0,1,1.0,0.18060000000002674
240,3,0.2,0.0,35.0,1,1.0,0.2521000000000413
241,3,0.2,1.0,35.0,1,1.0,0.24230000000000018
242,3,0.2,0.0625,35.0,1,1.0,0.17399999999997817
243,3,0.2,1.0,35.0,1,1.0,0.148900000000026
244,3,0.2,0.0625,35.0,-1,0.0,0.2545000000000073
245,3,0.2,0.125,35.0,1,1.0,0.22130000000004202
246,3,0.2,0.125,35.0,1,1.0,0.24500000000011823
247,3,0.2,0.125,35.0,1,1.0,0.16030000000012024
248,3,0.2,0.25,35.0,1,1.0,0.16990000000009786
249,3,0.2,0.25,35.0,1,1.0,0.19299999999998363
250,3,0.2,0.0,-35.0,1,0.0,0.2034000000001015
251,3,0.2,0.0625,35.0,1,1.0,0.23860000000001946
252,3,0.2,0.25,35.0,1,1.0,0.22219900000015969
253,3,0.2,0.125,35.0,1,1.0,0.2319999999999709
254,3,0.2,0.125,35.0,1,1.0,0.20669999999995525
255,3,0.2,0.0,35.0,1,1.0,0.29290000000003147
256,3,0.2,1.0,35.0,1,1.0,0.18229999999994106
257,3,0.2,0.25,-35.0,-1,1.0,0.7314999999999827
258,3,0.2,1.0,35.0,1,1.0,0.18810000000007676
259,3,0.2,0.25,-35.0,-1,1.0,0.4535000000000764
260,3,0.8,0.0625,-35.0,1,0.0,0.2153000000000702
261,3,0.8,0.25,-35.0,-1,1.0,0.42430000000001655
262,3,0.8,0.0625,-35.0,-1,1.0,0.44399999999996
263,3,0.8,0.0,-35.0,1,0.0,0.2298000000000684
264,3,0.8,0.125,-35.0,-1,1.0,0.20619999999996708
265,3,0.8,0.25,-35.0,-1,1.0,0.3509999999998854
266,3,0.8,1.0,-35.0,-1,1.0,0.255800000000022
267,3,0.8,0.0,-35.0,1,0.0,2.64670000000001
268,3,0.8,1.0,-35.0,-1,1.0,0.6707000000000107
269,3,0.8,0.0625,-35.0,1,0.0,3.8525000000000773
270,3,0.8,0.25,-35.0,-1,1.0,0.2902999999998883
271,3,0.8,0.125,-35.0,-1,1.0,0.2697000000000571
272,3,0.8,0.0625,35.0,1,1.0,4.106899999999996
273,3,0.8,0.125,-35.0,-1,1.0,0.23739999999997963
274,3,0.8,0.0,-35.0,1,0.0,4.4809999999999945
275,3,0.8,1.0,35.0,1,1.0,0.2540000000000191
276,3,0.8,0.0625,-35.0,-1,1.0,1.9369999999998981
277,3,0.8,1.0,-35.0,-1,1.0,0.22500000000002274
278,3,0.8,1.0,-35.0,-1,1.0,0.3749000000000251
279,3,0.8,0.125,35.0,1,1.0,0.2602000000000544
280,3,0.8,0.0625,-35.0,-1,1.0,0.4009000000000924
281,3,0.8,1.0,-35.0,-1,1.0,0.266399999999976
282,3,0.8,1.0,35.0,1,1.0,0.2115000000000009
283,3,0.8,0.0625,-35.0,1,0.0,0.25079999999991287
284,3,0.8,0.125,-35.0,1,0.0,0.21840000000008786
285,3,0.8,0.0625,-35.0,-1,1.0,0.3207000000001017
286,3,0.8,0.25,-35.0,-1,1.0,0.18799999999998818
287,3,0.8,0.0,-35.0,-1,1.0,0.31130000000007385
288,3,0.8,0.125,-35.0,-1,1.0,0.3191999999999098
289,3,0.8,0.0625,-35.0,-1,1.0,0.7493999999999232
290,3,0.8,0.125,35.0,1,1.0,0.2215999999999667
291,3,0.8,0.0,-35.0,-1,1.0,0.3106999999999971
292,3,0.8,0.25,-35.0,-1,1.0,0.26300000000003365
293,3,0.8,0.0625,-35.0,-1,1.0,0.4600000000000364
294,3,0.8,1.0,-35.0,-1,1.0,0.24299900000005437
295,3,0.8,0.0625,-35.0,-1,1.0,0.38560000000006767
296,3,0.8,0.0,-35.0,1,0.0,0.7621000000000322
297,3,0.8,1.0,-35.0,-1,1.0,0.23079999999993106
298,3,0.8,0.0625,-35.0,-1,1.0,0.4476000000000795
299,3,0.8,0.0625,-35.0,-1,1.0,0.3989000000001397
300,3,0.8,0.0,-35.0,-1,1.0,4.359000000000037
301,3,0.8,0.25,35.0,1,1.0,0.2847000000000435
302,3,0.8,0.125,-35.0,1,0.0,0.22849999999993997
303,3,0.8,0.0625,-35.0,-1,1.0,0.5923000000000229
304,3,0.8,0.0625,-35.0,-1,1.0,0.2859000000000833
305,3,0.8,0.125,35.0,1,1.0,0.2697000000000571
306,3,0.8,0.25,-35.0,-1,1.0,0.3506999999999607
307,3,0.8,0.125,-35.0,-1,1.0,0.32359999999994216
308,3,0.8,0.0625,-35.0,-1,1.0,0.14150000000006457
309,3,0.8,0.0,35.0,1,1.0,11.059200000000033
310,3,0.8,0.0,-35.0,-1,1.0,0.22649999999998727
311,3,0.8,0.0625,-35.0,-1,1.0,0.22439999999994598
312,3,0.8,0.125,-35.0,-1,1.0,0.24710000000004584
313,3,0.8,0.0625,-35.0,1,0.0,1.7862000000001217
314,3,0.8,0.125,-35.0,-1,1.0,0.3350000000000364
315,3,0.8,0.125,-35.0,-1,1.0,4.587500000000091
316,3,0.8,0.25,35.0,1,1.0,0.23239999999998417
317,3,0.8,0.25,-35.0,-1,1.0,0.311800000000062
318,3,0.8,0.125,-35.0,-1,1.0,0.25129999999990105
319,3,0.8,0.125,-35.0,-1,1.0,0.29719999999997526
320,3,0.8,0.0625,-35.0,1,0.0,5.686799999999948
321,3,0.8,0.25,-35.0,-1,1.0,4.671100000000251
322,3,0.8,0.25,-35.0,-1,1.0,0.24870000000009895
323,3,0.8,0.0625,-35.0,1,0.0,2.748500000000149
324,3,0.8,0.125,-35.0,-1,1.0,0.21679999999992106
325,3,0.8,0.25,-35.0,-1,1.0,0.3760999999997239
326,3,0.8,0.0,-35.0,1,0.0,6.452099999999973
327,3,0.8,0.0625,35.0,1,1.0,6.325600000000122
328,3,0.8,1.0,-35.0,-1,1.0,0.2032000000001517
329,3,0.8,0.0625,-35.0,1,0.0,6.909400000000005
330,3,0.8,0.0625,35.0,1,1.0,0.34950000000003456
331,3,0.8,0.25,-35.0,-1,1.0,0.2989000000000033
332,3,0.8,0.0625,-35.0,1,0.0,18.422399999999925
333,3,0.8,1.0,-35.0,-1,1.0,0.2017000000000735
334,3,0.8,0.25,-35.0,-1,1.0,0.49109999999996035
335,3,0.8,0.0,-35.0,1,0.0,0.6973999999997886
336,3,0.8,0.125,-35.0,1,0.0,3.059199999999919
337,3,0.8,0.25,-35.0,-1,1.0,0.21749999999997272
338,3,0.8,0.25,-35.0,-1,1.0,0.309800000000223
339,3,0.8,1.0,-35.0,-1,1.0,0.5757999999998447
340,3,0.8,0.0,35.0,1,1.0,0.3420000000000982
341,3,0.8,0.125,-35.0,-1,1.0,3.404700000000048
342,3,0.8,0.125,-35.0,-1,1.0,0.516399999999976
343,3,0.2,0.0,35.0,-1,0.0,36.205600000000004
344,3,0.2,0.0625,35.0,1,1.0,9.933199999999943
345,3,0.2,0.0,35.0,1,1.0,0.2728990000000522
346,3,0.2,0.125,35.0,1,1.0,0.3022000000000844
347,3,0.2,0.0625,35.0,1,1.0,11.757800000000088
348,3,0.2,0.0,35.0,1,1.0,20.31309999999985
349,3,0.2,0.25,35.0,1,1.0,0.2692010000000664
350,3,0.2,1.0,35.0,1,1.0,0.35540100000002894
351,3,0.2,0.25,35.0,1,1.0,7.980401000000029
352,3,0.2,0.0625,35.0,1,1.0,34.410400999999865
353,3,0.2,0.0625,35.0,1,1.0,3.3827009999999973
354,3,0.2,1.0,35.0,1,1.0,0.2711010000000442
355,3,0.2,1.0,35.0,1,1.0,0.4006010000000515
356,3,0.2,1.0,35.0,1,1.0,0.3667009999999209
357,3,0.2,0.25,35.0,-1,0.0,0.9091009999999642
358,3,0.2,0.25,-35.0,-1,1.0,3.5021010000000388
359,3,0.2,0.0,35.0,1,1.0,15.913201000000072
360,3,0.2,0.25,-35.0,-1,1.0,0.23440099999993436
361,3,0.2,0.0,-35.0,-1,1.0,8.356401000000005
362,3,0.2,0.0625,35.0,1,1.0,1.3968010000000959
363,3,0.2,1.0,35.0,1,1.0,0.28270100000008824
364,3,0.2,1.0,-35.0,-1,1.0,0.4284010000001217
365,3,0.2,1.0,35.0,1,1.0,0.2712010000000191
366,3,0.2,0.0625,35.0,-1,0.0,7.384401000000025
367,3,0.8,0.25,-35.0,-1,1.0,1.3979010000000471
368,3,0.8,0.0625,-35.0,-1,1.0,0.1765010000001439
369,3,0.8,1.0,-35.0,-1,1.0,0.5624010000001363
370,3,0.8,0.125,-35.0,-1,1.0,0.07110099999999875
371,3,0.8,1.0,-35.0,-1,1.0,1.4405010000000402
372,3,0.8,1.0,-35.0,-1,1.0,0.269600999999966
373,3,0.8,1.0,-35.0,-1,1.0,0.27240099999994527
374,3,0.8,1.0,35.0,1,1.0,0.48840100000006714
375,3,0.8,0.0625,-35.0,-1,1.0,0.331101000000217
376,3,0.8,0.0625,-35.0,-1,1.0,0.370401000000129
377,3,0.8,0.0,35.0,-1,0.0,4.843800999999985
378,3,0.8,0.125,-35.0,-1,1.0,0.2538010000000668
379,3,0.8,0.25,-35.0,-1,1.0,0.2632009999999809
380,3,0.8,0.25,-35.0,-1,1.0,0.2657009999998081
381,3,0.8,1.0,-35.0,-1,1.0,0.3051010000001497
382,3,0.8,1.0,-35.0,-1,1.0,0.30410100000017337
383,3,0.8,0.0,-35.0,-1,1.0,0.24020100000007005
384,3,0.8,0.0625,-35.0,-1,1.0,2.2034009999999853
385,3,0.8,0.0625,-35.0,-1,1.0,0.30480099999999766
386,3,0.8,0.0625,-35.0,-1,1.0,1.3740010000001348
387,3,0.8,0.25,-35.0,-1,1.0,0.3560010000001057
388,3,0.8,1.0,-35.0,-1,1.0,7.77819999999997
389,3,0.8,0.0625,-35.0,-1,1.0,5.258701000000201
390,3,0.8,0.0,-35.0,-1,1.0,0.28320099999996273
391,3,0.8,0.0625,-35.0,-1,1.0,0.30870100000015555
392,3,0.8,0.0625,-35.0,-1,1.0,1.6619010000001708
393,3,0.8,0.25,-35.0,-1,1.0,0.23380100000008497
394,3,0.8,0.0,-35.0,-1,1.0,0.23670099999981176
395,3,0.8,1.0,35.0,1,1.0,0.5425999999997657
396,3,0.8,0.125,-35.0,-1,1.0,0.3020010000000184
397,3,0.8,0.125,-35.0,-1,1.0,5.704700999999886
398,3,0.8,1.0,-35.0,-1,1.0,0.49790100000018356
399,3,0.8,0.125,-35.0,-1,1.0,0.3801009999999678
400,3,0.8,0.25,-35.0,-1,1.0,0.3228009999997994
401,3,0.8,0.25,-35.0,-1,1.0,0.4750010000000202
402,3,0.8,0.0625,-35.0,-1,1.0,4.94090099999994
403,3,0.8,0.0625,35.0,-1,0.0,1.8118010000000595
404,3,0.8,0.0625,-35.0,-1,1.0,0.743300999999974
405,3,0.8,0.25,35.0,-1,0.0,1.72940100000028
406,3,0.2,0.125,35.0,-1,0.0,4.0010010000000875
407,3,0.2,0.0625,35.0,1,1.0,0.3726009999998041
408,3,0.2,0.0625,35.0,-1,0.0,0.24500100000000202
409,3,0.2,0.25,35.0,1,1.0,0.3276010000001861
410,3,0.2,0.125,35.0,1,1.0,2.223400999999967
411,3,0.2,1.0,35.0,1,1.0,0.2660009999999602
412,3,0.2,1.0,-35.0,-1,1.0,0.3184009999999944
413,3,0.2,0.0,35.0,1,1.0,43.92110099999991
414,3,0.2,0.125,35.0,-1,0.0,1.7302000000001954
415,3,0.2,0.125,-35.0,-1,1.0,0.29900099999986196
416,3,0.2,0.0625,35.0,1,1.0,5.6520009999999274
417,3,0.2,1.0,35.0,1,1.0,0.519600999999966
418,3,0.2,0.25,35.0,1,1.0,16.124701000000186
419,3,0.2,1.0,35.0,1,1.0,0.24190100000009807
420,3,0.2,1.0,35.0,1,1.0,0.3312010000001919
421,3,0.2,0.0,-0.0,0,0.0,59.94030100000009
422,3,0.2,0.25,35.0,1,1.0,0.7384010000000671
423,3,0.2,0.125,35.0,1,1.0,0.47610099999997146
424,3,0.2,1.0,35.0,1,1.0,0.1425010000000384
425,3,0.2,0.0,-0.0,0,0.0,59.93420100000003
426,3,0.2,1.0,35.0,1,1.0,0.08240100000011807
427,3,0.2,0.0,35.0,-1,0.0,19.64040100000011
428,3,0.2,0.0,35.0,1,1.0,44.45290100000011
429,3,0.2,0.0625,-35.0,-1,1.0,0.3620010000001912
430,3,0.2,0.0625,35.0,1,1.0,3.3209009999998216
431,3,0.2,0.25,35.0,1,1.0,0.352301000000125
432,3,0.2,0.125,35.0,1,1.0,17.871801000000005
433,3,0.2,1.0,35.0,1,1.0,0.17470099999991362
434,3,0.8,1.0,-35.0,-1,1.0,0.5206009999999424
1,4,0.8,0.0625,-35.0,-1,1.0,2.0221999999999998
2,4,0.8,1.0,35.0,1,1.0,0.5007000000000001
3,4,0.8,1.0,-35.0,-1,1.0,0.3734000000000002
4,4,0.8,0.0625,-35.0,1,0.0,0.3370999999999995
5,4,0.8,0.25,-35.0,-1,1.0,0.1933999999999969
6,4,0.8,0.0625,-35.0,-1,1.0,0.1967999999999961
7,4,0.8,0.0,-35.0,-1,1.0,0.3754000000000026
8,4,0.8,1.0,35.0,1,1.0,0.28600000000000847
9,4,0.8,0.0625,35.0,1,1.0,0.5367000000000033
10,4,0.8,0.25,-35.0,-1,1.0,0.24920000000000897
11,4,0.8,0.25,35.0,1,1.0,0.25020000000000664
12,4,0.8,1.0,-35.0,-1,1.0,0.5726999999999975
13,4,0.8,1.0,-35.0,-1,1.0,0.2231000000000023
14,4,0.8,0.125,-35.0,-1,1.0,0.4432000000000045
15,4,0.8,0.0625,-35.0,-1,1.0,1.638300000000008
16,4,0.8,0.25,-35.0,-1,1.0,0.4655000000000058
17,4,0.8,0.125,-35.0,-1,1.0,0.2382999999999953
18,4,0.8,0.25,-35.0,-1,1.0,0.5262000000000029
19,4,0.8,1.0,-35.0,-1,1.0,0.37930000000000064
20,4,0.8,0.0,-35.0,1,0.0,0.4709000000000003
21,4,0.8,0.0625,-35.0,1,0.0,0.38769999999999527
22,4,0.8,1.0,-35.0,-1,1.0,0.2424000000000035
23,4,0.8,0.0625,-35.0,-1,1.0,0.47570000000000334
24,4,0.8,0.125,-35.0,-1,1.0,0.23289999999998656
25,4,0.8,0.125,-35.0,-1,1.0,0.2703999999999951
26,4,0.8,0.0625,-35.0,-1,1.0,0.4294000000000011
27,4,0.8,0.125,-35.0,-1,1.0,0.10260000000000957
28,4,0.8,0.0625,-35.0,-1,1.0,0.28289999999999793
29,4,0.8,0.0625,-35.0,-1,1.0,0.359099999999998
30,4,0.8,0.125,-35.0,-1,1.0,0.23220000000000596
31,4,0.8,0.0,-35.0,-1,1.0,0.24629999999999086
32,4,0.8,1.0,35.0,1,1.0,0.247099999999989
33,4,0.8,0.25,-35.0,-1,1.0,0.8091999999999899
34,4,0.8,0.125,-35.0,-1,1.0,0.24610000000001264
35,4,0.8,0.125,-35.0,-1,1.0,0.25840000000002306
36,4,0.8,0.25,35.0,-1,0.0,0.17040000000000077
37,4,0.8,0.0625,35.0,1,1.0,0.2861999999999796
38,4,0.8,0.25,-35.0,-1,1.0,0.247099999999989
39,4,0.8,0.0625,-35.0,-1,1.0,5.437999999999988
40,4,0.8,0.25,-35.0,-1,1.0,0.161200000000008
41,4,0.8,0.0625,35.0,-1,0.0,0.4136000000000024
42,4,0.8,0.125,-35.0,-1,1.0,0.3714999999999975
43,4,0.8,0.125,-35.0,-1,1.0,0.2767000000000053
44,4,0.8,0.25,-35.0,-1,1.0,0.1897000000000162
45,4,0.8,1.0,-35.0,-1,1.0,0.224899999999991
46,4,0.8,0.0625,-35.0,-1,1.0,0.2709999999999866
47,4,0.8,0.0625,-35.0,-1,1.0,1.0098000000000127
48,4,0.8,0.25,-35.0,-1,1.0,0.3918000000000177
49,4,0.8,1.0,-35.0,-1,1.0,0.22100000000000364
50,4,0.8,0.25,-35.0,-1,1.0,0.30460000000002196
51,4,0.8,0.0625,-35.0,-1,1.0,0.3213000000000079
52,4,0.8,0.0625,-35.0,-1,1.0,0.32670000000001664
53,4,0.8,1.0,-35.0,-1,1.0,0.3902999999999963
54,4,0.8,0.25,-35.0,-1,1.0,0.45709999999999695
55,4,0.8,1.0,35.0,1,1.0,0.22900000000001342
56,4,0.8,0.0625,-35.0,-1,1.0,0.4370000000000118
57,4,0.8,0.125,-35.0,-1,1.0,0.578200000000038
58,4,0.8,0.125,-35.0,1,0.0,0.23569999999998004
59,4,0.8,0.25,-35.0,-1,1.0,0.2827000000000339
60,4,0.8,0.125,-35.0,-1,1.0,0.24490000000000123
61,4,0.8,0.25,-35.0,-1,1.0,0.43180000000000973
62,4,0.8,1.0,-35.0,-1,1.0,0.3009000000000128
63,4,0.8,0.0625,-35.0,-1,1.0,0.2890999999999906
64,4,0.8,0.25,-35.0,-1,1.0,0.21770000000000778
65,4,0.8,1.0,-35.0,-1,1.0,0.13290000000000646
66,4,0.8,0.125,35.0,1,1.0,0.30529999999998836
67,4,0.8,1.0,-35.0,-1,1.0,0.3404999999999916
68,4,0.8,0.125,-35.0,-1,1.0,0.2563000000000102
69,4,0.8,0.0625,-35.0,1,0.0,0.31260000000003174
70,4,0.8,0.125,-35.0,-1,1.0,0.3995999999999924
71,4,0.8,0.125,-35.0,-1,1.0,0.36950000000001637
72,4,0.2,0.125,35.0,1,1.0,0.30589999999995143
73,4,0.2,1.0,35.0,1,1.0,0.2390999999999508
74,4,0.2,0.0625,35.0,1,1.0,0.3170000000000073
75,4,0.2,0.125,35.0,1,1.0,0.5727999999999724
76,4,0.2,0.0,-35.0,-1,1.0,11.272699999999986
77,4,0.2,0.25,35.0,-1,0.0,0.38139999999992824
78,4,0.2,0.0625,35.0,1,1.0,0.3480999999999881
79,4,0.2,0.0625,-35.0,-1,1.0,0.2793999999999528
80,4,0.2,0.125,35.0,1,1.0,0.29300000000000637
81,4,0.2,0.125,35.0,1,1.0,0.10329999999999018
82,4,0.2,0.0,35.0,1,1.0,0.26039999999994734
83,4,0.2,1.0,35.0,1,1.0,0.2518999999999778
84,4,0.2,0.0,35.0,1,1.0,0.25239999999990914
85,4,0.2,0.25,35.0,1,1.0,0.23069999999995616
86,4,0.2,0.125,-35.0,1,0.0,0.28479999999996153
87,4,0.2,0.0,35.0,1,1.0,0.17889999999994188
88,4,0.2,0.0625,35.0,1,1.0,0.3797999999999888
89,4,0.2,1.0,35.0,1,1.0,0.25430000000000064
90,4,0.2,0.25,35.0,1,1.0,0.19079999999996744
91,4,0.2,0.25,-35.0,-1,1.0,0.24859999999995352
92,4,0.2,1.0,35.0,1,1.0,0.23049999999994952
93,4,0.2,1.0,35.0,1,1.0,0.24729999999999563
94,4,0.2,0.0,35.0,1,1.0,0.26549999999997453
95,4,0.2,0.0,35.0,1,1.0,0.22749999999996362
96,4,0.2,1.0,35.0,1,1.0,0.2477999999999838
97,4,0.2,1.0,-35.0,-1,1.0,0.24619999999998754
98,4,0.2,0.25,-35.0,-1,1.0,0.4709999999999468
99,4,0.2,0.25,35.0,1,1.0,0.24049999999999727
100,4,0.2,1.0,35.0,1,1.0,0.23259999999999081
101,4,0.2,1.0,35.0,1,1.0,0.2623999999999569
102,4,0.2,1.0,35.0,1,1.0,0.2044999999999959
103,4,0.2,1.0,35.0,1,1.0,0.21330000000000382
104,4,0.2,0.125,35.0,1,1.0,0.21789999999992915
105,4,0.2,0.125,35.0,1,1.0,0.22010000000000218
106,4,0.2,0.0625,-35.0,1,0.0,0.4107000000000198
107,4,0.2,0.0625,35.0,1,1.0,0.2256999999999607
108,4,0.2,0.0625,35.0,1,1.0,0.2616999999999621
109,4,0.2,0.25,35.0,1,1.0,0.23840000000001282
110,4,0.2,1.0,35.0,1,1.0,0.23939999999998918
111,4,0.2,0.25,35.0,1,1.0,0.17439999999999145
112,4,0.2,0.0625,-35.0,1,0.0,0.2547999999999888
113,4,0.2,0.0625,35.0,1,1.0,0.25240000000002283
114,4,0.2,0.125,35.0,1,1.0,0.21719999999999118
115,4,0.2,0.125,35.0,1,1.0,0.20589999999998554
116,4,0.2,1.0,-35.0,-1,1.0,0.3026999999999589
117,4,0.2,0.125,-35.0,1,0.0,0.21940000000000737
118,4,0.2,0.0,-35.0,-1,1.0,0.5559999999999832
119,4,0.2,0.25,35.0,1,1.0,0.2819999999999254
120,4,0.8,1.0,-35.0,-1,1.0,0.48570000000000846
121,4,0.8,0.125,-35.0,-1,1.0,5.397899999999993
122,4,0.8,0.25,-35.0,1,0.0,4.976799999999969
123,4,0.8,0.25,-35.0,-1,1.0,3.5062000000000353
124,4,0.8,0.125,-35.0,-1,1.0,0.5434999999999945
125,4,0.8,0.25,35.0,1,1.0,0.2594999999999459
126,4,0.8,0.25,-35.0,-1,1.0,0.2886999999999489
127,4,0.8,0.125,-35.0,-1,1.0,0.24649999999996908
128,4,0.8,0.0625,-35.0,1,0.0,0.24209999999999354
129,4,0.8,0.125,-35.0,-1,1.0,0.19259999999997035
130,4,0.8,0.0625,-35.0,1,0.0,0.06719999999995707
131,4,0.8,0.0625,-35.0,-1,1.0,0.24349999999998317
132,4,0.8,0.125,-35.0,-1,1.0,0.21529999999995653
133,4,0.8,0.125,-35.0,-1,1.0,0.2126999999999839
134,4,0.8,0.0,-35.0,-1,1.0,0.24569999999999936
135,4,0.8,0.125,-35.0,-1,1.0,0.24889999999993506
136,4,0.8,0.25,35.0,1,1.0,0.2126999999999839
137,4,0.8,0.125,-35.0,-1,1.0,0.5057999999999652
138,4,0.8,0.0625,35.0,1,1.0,1.3564000000000078
139,4,0.8,0.25,-35.0,-1,1.0,0.27219999999994116
140,4,0.8,1.0,35.0,1,1.0,0.21870000000001255
141,4,0.8,0.25,35.0,1,1.0,0.28920000000005075
142,4,0.8,0.25,-35.0,-1,1.0,0.27539999999999054
143,4,0.8,0.125,-35.0,-1,1.0,0.5529000000000224
144,4,0.8,0.0,-35.0,-1,1.0,3.491300000000024
145,4,0.8,0.125,-35.0,-1,1.0,0.22070000000007894
146,4,0.8,0.125,35.0,1,1.0,0.22459999999989577
147,4,0.2,0.25,35.0,1,1.0,0.23159999999995762
148,4,0.2,0.125,35.0,1,1.0,0.23850000000004457
149,4,0.2,0.25,-35.0,-1,1.0,0.3023000000000593
150,4,0.2,0.25,-35.0,-1,1.0,0.27940000000000964
151,4,0.2,0.125,35.0,1,1.0,0.24899999999990996
152,4,0.2,0.125,35.0,1,1.0,0.2620000000000573
153,4,0.2,0.125,35.0,1,1.0,0.21550000000002
154,4,0.2,0.25,35.0,1,1.0,0.22509999999999764
155,4,0.2,0.0625,35.0,1,1.0,0.25930000000005293
156,4,0.2,0.125,35.0,1,1.0,0.22470000000009804
157,4,0.2,0.0,35.0,1,1.0,0.31569999999999254
158,4,0.2,0.0625,35.0,1,1.0,0.25739999999984775
159,4,0.2,0.0625,35.0,1,1.0,0.22669999999993706
160,4,0.2,0.25,35.0,1,1.0,0.1915000000000191
161,4,0.2,1.0,35.0,1,1.0,0.19689999999991414
162,4,0.2,0.0625,35.0,-1,0.0,0.5734999999999673
163,4,0.2,0.0625,35.0,1,1.0,0.16030000000000655
164,4,0.2,0.0,35.0,1,1.0,0.19519999999999982
165,4,0.2,0.0625,35.0,1,1.0,0.2477999999999838
166,4,0.2,0.25,-35.0,-1,1.0,0.32550000000003365
167,4,0.2,1.0,-35.0,-1,1.0,0.290300000000002
168,4,0.2,0.125,35.0,1,1.0,0.25329999999996744
169,4,0.2,1.0,35.0,1,1.0,0.18649999999990996
170,4,0.2,0.125,35.0,1,1.0,0.23230000000000928
171,4,0.2,0.0,35.0,1,1.0,0.2282989999999927
172,4,0.2,0.0,35.0,1,1.0,3.826599999999985
173,4,0.2,0.0625,35.0,1,1.0,0.24030000000004748
174,4,0.8,1.0,-35.0,-1,1.0,0.3065000000000282
175,4,0.8,0.0,-35.0,-1,1.0,0.5603999999999587
176,4,0.8,0.25,35.0,1,1.0,0.2515999999999394
177,4,0.8,0.25,35.0,1,1.0,0.21080000000006294
178,4,0.8,1.0,-35.0,-1,1.0,0.28379999999992833
179,4,0.8,1.0,35.0,1,1.0,0.18339999999989232
180,4,0.8,0.125,-35.0,1,0.0,0.22950000000003
181,4,0.8,1.0,-35.0,-1,1.0,0.2904999999999518
182,4,0.8,0.125,-35.0,-1,1.0,0.3864000000000942
183,4,0.8,0.0,35.0,1,1.0,0.25929999999993925
184,4,0.8,0.0,-35.0,1,0.0,0.33149999999989177
185,4,0.8,0.0,35.0,1,1.0,0.21050000000002456
186,4,0.8,0.125,35.0,1,1.0,0.3045999999999367
187,4,0.8,0.0,-35.0,-1,1.0,3.331399999999917
188,4,0.8,0.125,-35.0,-1,1.0,0.25499999999988177
189,4,0.8,0.0625,-35.0,-1,1.0,0.47500000000002274
190,4,0.8,0.0625,-35.0,-1,1.0,0.29290000000003147
191,4,0.8,0.125,-35.0,-1,1.0,0.5172999999999774
192,4,0.8,0.125,35.0,-1,0.0,0.4959999999999809
193,4,0.8,0.25,-35.0,-1,1.0,0.2900999999999385
194,4,0.8,1.0,-35.0,-1,1.0,0.21229999999991378
195,4,0.8,0.125,-35.0,-1,1.0,0.46699999999998454
196,4,0.8,0.0625,-35.0,-1,1.0,0.43269999999995434
197,4,0.8,1.0,35.0,1,1.0,0.24329999999997654
198,4,0.8,0.25,-35.0,-1,1.0,0.546799999999962
199,4,0.8,1.0,35.0,1,1.0,0.1933999999999969
200,4,0.8,0.25,35.0,1,1.0,0.20440000000007785
201,4,0.8,0.25,-35.0,-1,1.0,1.1235000000000355
202,4,0.8,0.25,-35.0,-1,1.0,0.28339999999991505
203,4,0.8,0.25,-35.0,-1,1.0,0.181699999999978
204,4,0.8,0.0625,-35.0,-1,1.0,0.4331000000000813
205,4,0.8,0.125,-35.0,-1,1.0,1.2721999999998843
206,4,0.8,0.0,-35.0,-1,1.0,0.9265000000000327
207,4,0.8,0.0625,-35.0,-1,1.0,0.26349999999990814
208,4,0.2,0.25,35.0,1,1.0,0.2577999999999747
209,4,0.2,0.0625,-35.0,1,0.0,0.44299999999998363
210,4,0.2,0.25,35.0,1,1.0,0.22379999999986921
211,4,0.2,0.25,35.0,1,1.0,0.2689989999998943
212,4,0.2,0.125,35.0,1,1.0,0.2880000000000109
213,4,0.2,0.0625,35.0,1,1.0,4.706999999999994
214,4,0.2,0.25,35.0,1,1.0,0.31730000000004566
215,4,0.2,0.0,35.0,-1,0.0,0.2886999999999489
216,4,0.2,0.125,35.0,1,1.0,0.31149999999990996
217,4,0.2,1.0,-35.0,-1,1.0,0.2543000000000575
218,4,0.2,1.0,35.0,1,1.0,0.23149999999998272
219,4,0.2,0.125,35.0,1,1.0,2.0328000000000657
220,4,0.2,0.25,-35.0,-1,1.0,0.20710000000008222
221,4,0.2,1.0,35.0,1,1.0,0.2417000000000371
222,4,0.2,0.0625,35.0,1,1.0,0.49090000000001055
223,4,0.2,0.25,35.0,1,1.0,2.769800000000032
224,4,0.2,0.125,35.0,1,1.0,2.9857999999999265
225,4,0.2,1.0,35.0,1,1.0,0.24130000000002383
226,4,0.2,0.125,35.0,1,1.0,1.3990999999999758
227,4,0.2,0.0625,35.0,1,1.0,0.9764000000000124
228,4,0.2,0.0,35.0,1,1.0,1.8927999999999656
229,4,0.2,0.125,-35.0,-1,1.0,2.7827000000000908
230,4,0.2,0.25,35.0,1,1.0,0.39409999999998035
231,4,0.2,0.0625,35.0,1,1.0,17.176899999999932
232,4,0.2,0.25,35.0,1,1.0,0.2558999999999969
233,4,0.2,0.0625,35.0,1,1.0,2.018699999999967
234,4,0.2,1.0,35.0,1,1.0,0.2502999999999247
235,4,0.2,0.125,35.0,1,1.0,2.4354999999999336
236,4,0.2,1.0,35.0,1,1.0,0.22140000000001692
237,4,0.2,0.25,35.0,1,1.0,0.2678999999999405
238,4,0.2,0.25,-35.0,-1,1.0,2.441000000000031
239,4,0.2,0.0625,35.0,1,1.0,0.4013999999999669
240,4,0.2,0.125,-35.0,-1,1.0,7.955900000000042
241,4,0.2,0.25,-35.0,-1,1.0,1.471300000000042
242,4,0.2,0.0625,35.0,1,1.0,2.7239999999999327
243,4,0.8,0.0625,-35.0,1,0.0,5.7444000000000415
244,4,0.8,0.25,-35.0,-1,1.0,0.5334000000000287
245,4,0.8,0.25,35.0,1,1.0,2.859499999999912
246,4,0.8,0.0625,35.0,1,1.0,7.015899999999988
247,4,0.8,0.0,-35.0,1,0.0,18.94979999999987
248,4,0.8,0.0625,-35.0,1,0.0,2.78329999999994
249,4,0.8,0.0,-35.0,1,0.0,2.2489000000000487
250,4,0.8,0.0,35.0,1,1.0,33.585199999999986
251,4,0.8,0.125,-35.0,-1,1.0,0.3220999999999776
252,4,0.8,0.0625,-35.0,-1,1.0,0.838100000000054
253,4,0.8,0.0,-35.0,1,0.0,6.301799999999957
254,4,0.8,0.25,-35.0,-1,1.0,0.8156999999999925
255,4,0.8,0.125,35.0,1,1.0,1.1312000000000353
256,4,0.8,0.0625,-35.0,-1,1.0,3.3893000000000484
257,4,0.8,0.0,35.0,-1,0.0,1.1834000000001197
258,4,0.8,0.125,-35.0,-1,1.0,0.4919999999999618
259,4,0.8,0.125,-35.0,1,0.0,5.257900000000063
260,4,0.8,0.125,-35.0,-1,1.0,0.24589999999989232
261,4,0.8,0.0,35.0,-1,0.0,5.003799999999956
262,4,0.8,0.25,-35.0,-1,1.0,0.32600000000002183
263,4,0.8,0.0625,-35.0,-1,1.0,15.458700000000135
264,4,0.8,0.0,35.0,1,1.0,2.1623000000001866
265,4,0.8,1.0,35.0,1,1.0,0.334400000000187
266,4,0.8,1.0,-35.0,-1,1.0,0.29030000000034306
267,4,0.8,1.0,35.0,1,1.0,0.25270000000023174
268,4,0.8,0.0,-35.0,1,0.0,21.97460000000001
269,4,0.8,1.0,-35.0,-1,1.0,0.3302000000001044
270,4,0.8,1.0,-35.0,-1,1.0,7.752799999999979
271,4,0.8,0.25,35.0,1,1.0,0.2701000000001841
272,4,0.8,0.25,35.0,1,1.0,0.2701000000001841
273,4,0.8,0.0625,35.0,1,1.0,27.64480000000026
274,4,0.8,0.125,-35.0,-1,1.0,0.21469999999999345
275,4,0.8,0.125,-35.0,-1,1.0,0.3079000000002452
276,4,0.8,0.25,-35.0,1,0.0,1.3569000000002234
277,4,0.8,0.125,-35.0,-1,1.0,12.805300000000216
278,4,0.8,1.0,-35.0,-1,1.0,3.00630000000001
279,4,0.8,0.25,-35.0,-1,1.0,0.10819999999989705
280,4,0.8,0.125,-35.0,1,0.0,1.9044000000001233
281,4,0.8,0.125,-35.0,1,0.0,25.611899999999878
282,4,0.8,0.0,-35.0,1,0.0,24.71420000000012
283,4,0.8,1.0,-35.0,-1,1.0,0.5088000000000648
284,4,0.8,0.25,-35.0,-1,1.0,0.36740000000031614
285,4,0.8,0.125,35.0,1,1.0,0.3406000000002223
286,4,0.8,0.125,-35.0,-1,1.0,16.381900000000314
287,4,0.8,0.25,-35.0,-1,1.0,0.24280000000021573
288,4,0.8,1.0,-35.0,-1,1.0,0.2584999999999127
289,4,0.8,1.0,-35.0,-1,1.0,0.27100000000018554
290,4,0.8,0.0625,-35.0,-1,1.0,13.61050000000023
291,4,0.8,0.25,-35.0,-1,1.0,0.3184000000001106
292,4,0.8,1.0,-35.0,-1,1.0,0.2685999999998785
293,4,0.8,0.25,-35.0,-1,1.0,6.183800000000247
294,4,0.8,1.0,-35.0,-1,1.0,0.31720000000018445
295,4,0.8,0.25,-35.0,-1,1.0,0.2897000000002663
296,4,0.8,0.0625,-35.0,1,0.0,6.761999999999944
297,4,0.8,0.125,-35.0,1,0.0,10.960500000000138
298,4,0.8,0.0625,-35.0,1,0.0,37.81500000000028
299,4,0.8,0.125,35.0,1,1.0,8.94179999999983
300,4,0.2,1.0,-35.0,-1,1.0,0.998600000000124
301,4,0.2,1.0,35.0,1,1.0,0.2907000000000153
302,4,0.2,0.125,35.0,1,1.0,0.6628000000000611
303,4,0.2,0.0625,35.0,1,1.0,32.636000000000195
304,4,0.2,0.125,-35.0,-1,1.0,0.24100000000021282
305,4,0.2,0.0,35.0,-1,0.0,0.19010000000002947
306,4,0.2,0.125,35.0,1,1.0,0.2759000000000924
307,4,0.2,1.0,35.0,1,1.0,0.28490000000033433
308,4,0.2,0.125,35.0,1,1.0,14.214099999999917
309,4,0.2,0.125,35.0,-1,0.0,6.469300000000203
310,4,0.2,1.0,-35.0,-1,1.0,0.5765000000001237
311,4,0.2,1.0,35.0,1,1.0,0.36220000000002983
312,4,0.2,1.0,35.0,1,1.0,0.38540000000011787
313,4,0.2,0.0,35.0,-1,0.0,7.211700000000292
314,4,0.2,0.0625,-35.0,1,0.0,36.89710000000014
315,4,0.2,0.0,35.0,1,1.0,11.624500000000126
316,4,0.2,1.0,35.0,1,1.0,0.3006000000000313
317,4,0.2,0.25,35.0,1,1.0,1.5721000000003187
318,4,0.2,0.125,35.0,1,1.0,6.217600000000175
319,4,0.2,1.0,35.0,1,1.0,10.01110000000017
320,4,0.2,0.25,35.0,1,1.0,0.2966000000001259
321,4,0.2,1.0,35.0,1,1.0,0.31290000000012697
322,4,0.2,0.25,35.0,1,1.0,3.8315999999999804
323,4,0.2,0.0,35.0,1,1.0,37.027000000000044
324,4,0.2,0.0625,35.0,1,1.0,0.3809000000001106
325,4,0.2,0.25,35.0,1,1.0,0.7064000000000306
326,4,0.2,0.0625,35.0,-1,0.0,38.74209999999994
327,4,0.2,0.0625,-35.0,1,0.0,8.549499999999853
328,4,0.2,0.0,35.0,1,1.0,7.011900000000196
329,4,0.2,0.125,-35.0,-1,1.0,3.615800000000263
330,4,0.2,0.125,-35.0,0,0.0,59.94470000000001
331,4,0.2,0.125,35.0,1,1.0,24.111400000000003
332,4,0.2,0.25,35.0,1,1.0,5.156800000000203
333,4,0.2,1.0,35.0,1,1.0,0.5485000000001037
334,4,0.2,0.0625,35.0,-1,0.0,43.07339999999999
335,4,0.2,0.0625,35.0,1,1.0,1.672800000000052
336,4,0.2,0.0,35.0,1,1.0,9.084400000000187
337,4,0.2,1.0,35.0,1,1.0,0.27620000000024447
338,4,0.2,0.125,35.0,-1,0.0,4.665200000000141
339,4,0.2,0.125,35.0,1,1.0,4.666700000000219
340,4,0.2,0.125,35.0,1,1.0,0.46370000000024447
341,4,0.2,0.125,35.0,-1,0.0,8.540300000000116
342,4,0.2,1.0,-35.0,-1,1.0,0.8564000000001215
343,4,0.2,0.25,35.0,1,1.0,11.05840000000012
344,4,0.2,0.0,35.0,1,1.0,27.844100000000026
345,4,0.2,0.125,35.0,1,1.0,45.65480000000002
346,4,0.2,0.125,35.0,1,1.0,2.189900000000307
347,4,0.8,1.0,-35.0,-1,1.0,0.21850000000040382
348,4,0.8,0.25,-35.0,-1,1.0,6.9845000000000255
349,4,0.8,1.0,-35.0,-1,1.0,0.6577000000002045
350,4,0.8,0.0625,-35.0,1,0.0,2.5567000000005464
351,4,0.8,0.0,-35.0,1,0.0,0.6449999999999818
352,4,0.8,0.125,35.0,1,1.0,0.2622999999998683
353,4,0.8,0.25,35.0,1,1.0,26.89180000000033
354,4,0.8,1.0,-35.0,-1,1.0,0.45590000000038344
355,4,0.8,0.25,35.0,1,1.0,0.2721999999998843
356,4,0.8,0.25,35.0,1,1.0,5.584299999999985
357,4,0.8,0.0625,-35.0,1,0.0,39.71149999999989
358,4,0.8,0.0625,-35.0,1,0.0,2.610200000000077
359,4,0.8,0.0625,-35.0,1,0.0,4.784599999999955
360,4,0.8,1.0,-35.0,-1,1.0,0.21550000000024738
361,4,0.8,0.0625,-35.0,1,0.0,13.621100000000297
362,4,0.8,0.0625,-35.0,1,0.0,4.6426000000001295
363,4,0.8,0.0625,-35.0,1,0.0,2.446900000000369
364,4,0.8,0.25,35.0,1,1.0,0.2921000000001186
365,4,0.8,1.0,-35.0,-1,1.0,0.2944999999999709
366,4,0.8,0.0,-35.0,1,0.0,9.386500000000524
367,4,0.8,0.0,-35.0,1,0.0,5.619000000000142
368,4,0.8,0.25,-35.0,-1,1.0,0.5331000000005588
369,4,0.8,0.25,-35.0,-1,1.0,0.24549999999999272
370,4,0.8,0.25,-35.0,-1,1.0,0.4054000000000997
371,4,0.8,0.125,-35.0,-1,1.0,10.513699999999972
372,4,0.8,0.125,-35.0,-1,1.0,3.7603000000003703
373,4,0.8,1.0,-35.0,-1,1.0,0.3483000000001084
374,4,0.8,0.25,-35.0,-1,1.0,0.5614000000000487
375,4,0.8,0.125,-35.0,1,0.0,11.108900000000176
376,4,0.8,0.0625,-35.0,-1,1.0,1.8350000000000364
377,4,0.8,1.0,-35.0,-1,1.0,4.492199999999684
378,4,0.8,1.0,-35.0,-1,1.0,0.3816999999999098
379,4,0.8,0.0625,-35.0,-1,1.0,0.22769999999991342
380,4,0.8,0.0,-35.0,1,0.0,9.106499999999869
381,4,0.8,1.0,-35.0,-1,1.0,0.2830000000003565
382,4,0.8,0.125,-35.0,-1,1.0,19.916099999999915
383,4,0.8,0.0625,-35.0,1,0.0,29.74890000000005
384,4,0.8,1.0,-35.0,-1,1.0,0.3251000000004751
385,4,0.8,1.0,-35.0,-1,1.0,0.3238000000001193
386,4,0.8,0.0625,-35.0,1,0.0,45.52599999999984
387,4,0.8,0.0625,-35.0,1,0.0,51.94470000000001
388,4,0.8,1.0,35.0,1,1.0,0.29140000000006694
389,4,0.2,0.0,-35.0,1,0.0,29.84960000000001
390,4,0.2,0.0625,35.0,1,1.0,23.776000000000295
391,4,0.2,1.0,35.0,1,1.0,0.27440000000024156
392,4,0.2,0.125,35.0,1,1.0,23.1138990000004
393,4,0.2,0.0,35.0,1,1.0,35.5619999999999
394,4,0.2,0.0625,-35.0,-1,1.0,8.571199999999862
395,4,0.2,0.0625,35.0,1,1.0,1.9879000000000815
396,4,0.2,0.25,35.0,1,1.0,0.4452000000001135
397,4,0.2,0.125,-35.0,-1,1.0,5.725799999999708
398,4,0.2,0.25,35.0,1,1.0,0.40950000000020736
399,4,0.2,0.25,35.0,1,1.0,1.3338000000003376
400,4,0.2,0.0,-0.0,0,0.0,59.93600000000015
401,4,0.2,0.125,-35.0,1,0.0,17.48429999999962
402,4,0.2,1.0,-35.0,-1,1.0,0.5138999999999214
403,4,0.2,0.0625,-35.0,1,0.0,6.229600000000119
404,4,0.2,0.0625,35.0,1,1.0,10.736699999999928
405,4,0.2,0.25,35.0,1,1.0,1.1156000000000859
406,4,0.2,0.0625,-35.0,-1,1.0,2.550999999999931
407,4,0.2,0.25,35.0,1,1.0,0.4085000000004584
408,4,0.2,1.0,-35.0,-1,1.0,6.814201000000139
409,4,0.2,0.25,35.0,1,1.0,6.188000999999986
410,4,0.2,0.25,35.0,1,1.0,9.048701000000165
411,4,0.2,0.25,-35.0,1,0.0,18.29140099999995
412,4,0.2,0.25,-35.0,1,0.0,24.151401000000078
413,4,0.2,0.25,35.0,1,1.0,7.716201000000183
414,4,0.2,0.0625,-35.0,-1,1.0,2.119800999999825
415,4,0.2,0.25,35.0,1,1.0,6.8981009999997696
416,4,0.2,0.25,35.0,1,1.0,6.148600999999871
417,4,0.2,0.125,35.0,1,1.0,25.756000999999742
418,4,0.2,0.0,35.0,1,1.0,16.590100999999777
419,4,0.8,1.0,-35.0,1,0.0,1.114201000000321
420,4,0.8,0.0,-35.0,1,0.0,4.879300999999941
421,4,0.8,0.125,-35.0,1,0.0,28.049900999999863
422,4,0.8,0.125,-35.0,1,0.0,9.45180100000016
423,4,0.8,0.125,-35.0,1,0.0,7.564401000000089
424,4,0.8,0.25,-35.0,1,0.0,3.9387010000000373
425,4,0.8,0.25,-35.0,1,0.0,4.880000999999993
426,4,0.8,0.125,35.0,1,1.0,9.847001000000091
427,4,0.8,0.25,-35.0,-1,1.0,2.886500999999953
428,4,0.8,0.0625,-35.0,1,0.0,5.338101000000279
429,4,0.8,0.0,-35.0,1,0.0,0.07260100000030434
430,4,0.8,0.125,-35.0,1,0.0,8.261500999999953
431,4,0.8,1.0,-35.0,1,0.0,6.95790100000022
432,4,0.8,0.25,-35.0,1,0.0,11.584700999999768
433,4,0.8,1.0,-35.0,-1,1.0,0.5001009999996313
434,4,0.8,0.125,35.0,1,1.0,35.032400999999936
435,4,0.8,0.0,-35.0,1,0.0,53.33760100000018
436,4,0.8,0.0625,-35.0,-1,1.0,33.23010099999965
437,4,0.8,0.0625,-35.0,1,0.0,0.7816010000005917
438,4,0.8,1.0,-35.0,-1,1.0,6.586901000000125
439,4,0.8,0.0625,-35.0,-1,1.0,3.7574010000003
440,4,0.8,0.0625,35.0,1,1.0,0.3355010000004768
441,4,0.8,0.0625,35.0,-1,0.0,7.064701000000241
442,4,0.8,0.0,35.0,1,1.0,55.30430100000012
443,4,0.8,0.0,-35.0,1,0.0,17.673001000000568
444,4,0.8,0.125,-35.0,-1,1.0,0.6866010000003371
445,4,0.8,1.0,-35.0,-1,1.0,0.521701000000121
446,4,0.8,0.25,-35.0,1,0.0,45.127200999999786
447,4,0.8,0.0,-35.0,1,0.0,42.61230099999966
448,4,0.8,0.25,-35.0,-1,1.0,9.741401000000224
449,4,0.8,1.0,-35.0,-1,1.0,0.674000999999862
