trial_num,session_num,stim_probability_left,contrast,position,response_choice,trial_correct,reaction_time
1,14,0.5,0.0625,-35.0,-1,1.0,0.5193000000000001
2,14,0.5,0.0625,-35.0,1,0.0,0.2713000000000001
3,14,0.5,0.125,35.0,1,1.0,0.41579999999999906
4,14,0.5,0.25,-35.0,-1,1.0,0.40160000000000196
5,14,0.5,0.125,35.0,1,1.0,0.3501999999999974
6,14,0.5,1.0,-35.0,-1,1.0,0.3625000000000007
7,14,0.5,0.25,35.0,-1,0.0,0.29350000000000165
8,14,0.5,0.0625,35.0,1,1.0,0.24169999999999447
9,14,0.5,0.0,35.0,1,1.0,0.22819999999999396
10,14,0.5,0.0625,35.0,1,1.0,0.42430000000000234
11,14,0.5,1.0,35.0,1,1.0,0.21659999999999968
12,14,0.5,0.0625,-35.0,1,0.0,0.16199999999999903
13,14,0.5,0.125,35.0,1,1.0,0.4006999999999934
14,14,0.5,0.125,35.0,1,1.0,0.2598000000000127
15,14,0.5,1.0,35.0,1,1.0,0.22820000000000107
16,14,0.5,0.0625,35.0,1,1.0,0.21040000000000703
17,14,0.5,0.0,35.0,1,1.0,0.21399999999999864
18,14,0.5,1.0,-35.0,-1,1.0,0.4141000000000048
19,14,0.5,0.25,35.0,1,1.0,0.8558000000000021
20,14,0.5,0.0625,35.0,1,1.0,0.3272000000000048
21,14,0.5,1.0,-35.0,-1,1.0,0.19969999999999288
22,14,0.5,0.125,35.0,1,1.0,0.22860000000000014
23,14,0.5,1.0,-35.0,-1,1.0,0.22090000000000032
24,14,0.5,1.0,-35.0,-1,1.0,0.24630000000001928
25,14,0.5,0.0625,-35.0,1,0.0,1.5036000000000058
26,14,0.5,0.0,35.0,1,1.0,0.5133999999999901
27,14,0.5,0.125,35.0,1,1.0,0.4545000000000101
28,14,0.5,0.125,-35.0,-1,1.0,0.23720000000002983
29,14,0.5,0.0625,35.0,1,1.0,0.34839999999999804
30,14,0.5,1.0,-35.0,-1,1.0,0.2682999999999822
31,14,0.5,1.0,-35.0,-1,1.0,0.19250000000002387
32,14,0.5,1.0,35.0,-1,0.0,0.26389900000003763
33,14,0.5,0.125,-35.0,-1,1.0,0.2942000000000178
34,14,0.5,0.25,35.0,1,1.0,0.3537000000000319
35,14,0.5,0.0625,-35.0,-1,1.0,0.24309999999999832
36,14,0.5,0.0,35.0,-1,0.0,1.8792000000000257
37,14,0.5,0.0625,-35.0,-1,1.0,0.2213999999999885
38,14,0.5,0.125,-35.0,-1,1.0,0.3188999999999851
39,14,0.5,1.0,-35.0,1,0.0,0.11599999999998545
40,14,0.5,0.25,-35.0,1,0.0,0.41459999999997876
41,14,0.3,0.25,35.0,1,1.0,0.20939999999998804
42,14,0.5,1.0,-35.0,-1,1.0,0.234800000000007
43,14,0.5,1.0,-35.0,-1,1.0,0.24850000000000705
44,14,0.5,0.125,-35.0,-1,1.0,0.31860000000000355
45,14,0.5,0.0625,-35.0,-1,1.0,0.10869999999999891
46,14,0.5,0.25,-35.0,-1,1.0,0.24169999999998026
47,14,0.5,1.0,-35.0,-1,1.0,0.24660000000000082
48,14,0.5,0.0625,-35.0,-1,1.0,0.3967999999999847
49,14,0.5,0.125,35.0,1,1.0,0.4966000000000008
50,14,0.5,1.0,35.0,1,1.0,2.1587000000000103
51,14,0.5,0.125,35.0,-1,0.0,0.23200000000002774
52,14,0.5,0.25,-35.0,-1,1.0,0.21510000000000673
53,14,0.5,0.125,-35.0,-1,1.0,0.219600000000014
54,14,0.5,0.25,-35.0,-1,1.0,0.41809999999998126
55,14,0.5,0.0625,35.0,-1,0.0,0.07630000000000337
56,14,0.5,0.25,-35.0,1,0.0,1.4573000000000036
57,14,0.3,0.25,-35.0,-1,1.0,0.39270000000004757
58,14,0.5,1.0,35.0,1,1.0,0.6937000000000353
59,14,0.5,0.25,35.0,1,1.0,0.6163999999999987
60,14,0.5,0.0,-35.0,1,0.0,0.21549999999996317
61,14,0.5,0.0625,35.0,-1,0.0,0.2248000000000161
62,14,0.5,0.0625,-35.0,-1,1.0,0.31520000000000437
63,14,0.5,0.0,-35.0,1,0.0,0.3200989999999706
64,14,0.5,0.25,-35.0,-1,1.0,0.42710000000005266
65,14,0.5,1.0,-35.0,-1,1.0,0.184599999999989
66,14,0.5,0.25,35.0,1,1.0,0.15260000000000673
67,14,0.5,0.25,35.0,1,1.0,0.290300000000002
68,14,0.5,0.125,-35.0,-1,1.0,0.28039999999992915
69,14,0.5,0.0625,-35.0,-1,1.0,0.17039999999997235
70,14,0.5,0.0625,35.0,1,1.0,0.6861000000000104
71,14,0.5,1.0,35.0,1,1.0,0.9216000000000122
72,14,0.5,1.0,-35.0,-1,1.0,0.44460000000003674
73,14,0.5,0.125,-35.0,-1,1.0,0.26940000000001874
74,14,0.5,0.125,35.0,1,1.0,0.4241000000000099
75,14,0.5,0.0625,-35.0,-1,1.0,0.2370999999999981
76,14,0.5,1.0,-35.0,-1,1.0,0.07540000000000191
77,14,0.5,1.0,35.0,-1,0.0,0.13330000000001974
78,14,0.5,0.0,-35.0,-1,1.0,0.11509999999998399
79,14,0.5,0.125,-35.0,-1,1.0,0.08510000000001128
80,14,0.5,1.0,35.0,1,1.0,0.5905999999999949
81,14,0.5,0.25,-35.0,-1,1.0,0.22519999999997253
82,14,0.5,1.0,-35.0,-1,1.0,0.2691000000000372
83,14,0.5,1.0,35.0,-1,0.0,0.3964000000000283
84,14,0.5,0.125,-35.0,-1,1.0,0.23030000000005657
85,14,0.5,0.0,-35.0,-1,1.0,0.45810000000005857
86,14,0.5,0.0625,35.0,-1,0.0,0.08029999999996562
87,14,0.5,0.125,-35.0,-1,1.0,0.2898000000000138
88,14,0.5,0.25,-35.0,-1,1.0,0.21469999999999345
89,14,0.5,0.0,-35.0,-1,1.0,0.3353999999999928
90,14,0.5,1.0,35.0,-1,0.0,0.1882999999999697
91,14,0.5,0.125,35.0,1,1.0,0.6444999999999936
92,14,0.5,0.125,-35.0,-1,1.0,0.25900000000001455
93,14,0.5,1.0,35.0,1,1.0,0.4105999999999881
94,14,0.5,0.25,35.0,1,1.0,0.24550000000004957
95,14,0.5,0.25,35.0,1,1.0,1.6524
96,14,0.5,1.0,35.0,1,1.0,0.29710000000000036
97,14,0.5,0.125,35.0,1,1.0,0.2980000000000018
98,14,0.5,0.0,-35.0,-1,1.0,1.8403000000000134
99,14,0.5,1.0,-35.0,-1,1.0,0.3139009999999871
100,14,0.5,0.25,-35.0,-1,1.0,0.21460099999995919
101,14,0.5,1.0,35.0,1,1.0,1.1000009999999634
102,14,0.5,0.25,35.0,1,1.0,0.34790100000003576
103,14,0.5,0.0625,-35.0,1,0.0,1.6461010000000442
104,14,0.5,0.0625,-35.0,1,0.0,4.355001000000016
105,14,0.5,0.125,-35.0,1,0.0,0.3948010000000295
106,14,0.5,0.0625,-35.0,1,0.0,2.2586009999999987
107,14,0.5,0.25,35.0,1,1.0,0.571000999999967
108,14,0.5,0.125,35.0,1,1.0,0.3522010000000364
109,14,0.5,1.0,-35.0,-1,1.0,0.18620099999998274
110,14,0.5,0.25,-35.0,1,0.0,0.4107010000000173
111,14,0.5,0.125,-35.0,-1,1.0,0.24400100000002567
112,14,0.5,0.25,-35.0,-1,1.0,0.23480100000006132
113,14,0.5,1.0,-35.0,-1,1.0,0.24670099999991635
114,14,0.5,0.125,35.0,1,1.0,0.13090099999999438
115,14,0.5,0.0625,35.0,-1,0.0,0.16730099999995218
116,14,0.5,0.25,35.0,1,1.0,0.42390100000000075
117,14,0.5,1.0,35.0,1,1.0,0.43370100000004186
118,14,0.5,0.0625,-35.0,1,0.0,3.2762010000000146
119,14,0.5,0.125,-35.0,-1,1.0,0.21970100000010007
120,14,0.5,0.125,35.0,1,1.0,0.41770099999996546
121,14,0.5,1.0,35.0,1,1.0,0.2957010000001219
122,14,0.5,1.0,35.0,1,1.0,0.4797009999999773
123,14,0.5,0.25,35.0,1,1.0,0.44740100000012717
124,14,0.5,1.0,35.0,1,1.0,0.3322010000000546
125,14,0.5,0.125,-35.0,1,0.0,0.2897010000000364
126,14,0.5,0.0,35.0,1,1.0,0.3399010000000544
127,14,0.5,0.125,35.0,1,1.0,0.5226010000001224
128,14,0.5,0.0625,35.0,1,1.0,0.348500999999942
129,14,0.5,0.25,35.0,1,1.0,0.3404009999999289
130,14,0.5,1.0,35.0,1,1.0,0.4994009999999207
131,14,0.5,0.125,-35.0,-1,1.0,0.24300099999993563
132,14,0.5,0.0625,35.0,1,1.0,0.2579009999999471
133,14,0.5,0.125,35.0,1,1.0,0.11600099999998292
134,14,0.5,0.0625,35.0,1,1.0,0.22180099999991398
135,14,0.5,0.125,-35.0,-1,1.0,0.48270100000002003
136,14,0.5,0.125,35.0,1,1.0,0.6003009999999449
137,14,0.5,0.25,-35.0,1,0.0,0.6903009999999767
138,14,0.8,0.25,-35.0,-1,1.0,0.20440100000007533
139,14,0.5,1.0,-35.0,-1,1.0,0.19550100000003567
140,14,0.5,1.0,-35.0,-1,1.0,0.2353010000000495
141,14,0.5,0.125,-35.0,-1,1.0,0.2313010000000304
142,14,0.5,0.0,35.0,1,1.0,0.41790100000002894
143,14,0.5,1.0,-35.0,-1,1.0,0.19530100000008588
144,14,0.5,0.0625,35.0,-1,0.0,0.29070100000001275
145,14,0.5,0.125,35.0,1,1.0,0.11780099999987215
146,14,0.5,1.0,-35.0,-1,1.0,0.13940100000002076
147,14,0.5,0.0625,-35.0,-1,1.0,0.3707010000000537
148,14,0.5,0.25,35.0,1,1.0,0.30090100000006714
149,14,0.5,0.25,-35.0,-1,1.0,0.21180100000003677
150,14,0.5,0.125,35.0,1,1.0,0.31280099999992217
151,14,0.5,0.25,35.0,1,1.0,0.26910099999997783
152,14,0.5,0.0,-35.0,1,0.0,0.5864010000000235
153,14,0.5,0.25,-35.0,-1,1.0,0.4310009999999238
154,14,0.5,0.125,35.0,1,1.0,0.19360100000005787
155,14,0.5,0.0625,35.0,1,1.0,1.2973009999999476
156,14,0.5,0.0,35.0,-1,0.0,1.6000010000000202
157,14,0.5,0.25,-35.0,-1,1.0,0.16010099999994054
158,14,0.5,0.25,35.0,1,1.0,0.4385010000000875
159,14,0.5,0.25,35.0,1,1.0,0.4652009999999791
160,14,0.5,1.0,-35.0,-1,1.0,0.07480099999997947
161,14,0.5,0.25,35.0,1,1.0,1.3749010000000226
162,14,0.5,1.0,35.0,-1,0.0,0.3245010000000548
163,14,0.5,1.0,-35.0,-1,1.0,0.24510099999997692
164,14,0.5,1.0,-35.0,-1,1.0,0.21560099999999238
165,14,0.5,0.125,35.0,-1,0.0,0.1365010000000666
166,14,0.5,0.0,35.0,1,1.0,0.2775010000000293
167,14,0.5,1.0,-35.0,-1,1.0,0.29300100000000384
168,14,0.5,0.25,35.0,1,1.0,0.33760099999994964
169,14,0.5,0.125,-35.0,-1,1.0,0.490901000000008
170,14,0.5,1.0,-35.0,1,0.0,0.10330099999998765
171,14,0.5,0.0,-35.0,1,0.0,0.28870099999994636
172,14,0.4,0.0,35.0,-1,0.0,0.307501000000002
173,14,0.5,1.0,-35.0,-1,1.0,0.20670099999995273
174,14,0.5,1.0,-35.0,-1,1.0,0.05540099999996073
175,14,0.5,1.0,35.0,-1,0.0,0.2800009999999702
176,14,0.5,0.0625,-35.0,-1,1.0,0.22350100000005568
177,14,0.5,0.0625,-35.0,1,0.0,0.4234009999998989
178,14,0.5,0.0625,35.0,1,1.0,0.1027000000000271
179,14,0.5,0.25,35.0,1,1.0,0.3382010000000264
180,14,0.5,0.125,-35.0,-1,1.0,0.2172010000000455
181,14,0.5,0.0,-35.0,1,0.0,0.2838009999999258
182,14,0.4,0.0,35.0,1,1.0,0.5111010000000533
183,14,0.5,1.0,-35.0,-1,1.0,0.22620099999994636
184,14,0.5,0.125,-35.0,-1,1.0,0.2171010000000706
185,14,0.5,0.0625,35.0,-1,0.0,0.4494010000000799
186,14,0.5,0.0,-35.0,1,0.0,0.7203010000000631
187,14,0.5,0.25,35.0,1,1.0,0.6377009999999927
188,14,0.5,0.0,35.0,1,1.0,0.11870100000010098
189,14,0.5,0.0625,35.0,1,1.0,0.41990099999998165
190,14,0.5,0.0,-35.0,1,0.0,0.4287010000000464
191,14,0.5,0.25,35.0,1,1.0,0.4972010000000182
192,14,0.5,0.125,-35.0,-1,1.0,0.25650099999995746
193,14,0.5,1.0,-35.0,-1,1.0,0.21190100000001166
194,14,0.5,0.0,35.0,1,1.0,0.3830010000000357
195,14,0.5,0.25,-35.0,1,0.0,0.26270099999999275
196,14,0.5,0.125,-35.0,-1,1.0,0.2745009999998729
197,14,0.5,0.25,35.0,1,1.0,0.2896009999999478
198,14,0.5,0.25,-35.0,-1,1.0,0.38590099999998984
199,14,0.5,0.125,35.0,1,1.0,2.6059009999999034
200,14,0.5,1.0,35.0,1,1.0,0.3949010000000044
201,14,0.5,0.125,-35.0,-1,1.0,0.18980099999998856
202,14,0.5,0.125,-35.0,1,0.0,0.31280100000014954
203,14,0.5,0.125,-35.0,-1,1.0,1.3175010000001066
204,14,0.5,1.0,35.0,1,1.0,0.42030099999999493
205,14,0.5,0.25,35.0,1,1.0,0.27280099999995855
206,14,0.5,1.0,-35.0,-1,1.0,0.2520009999999502
207,14,0.5,0.0625,-35.0,-1,1.0,0.17850099999998292
208,14,0.5,0.125,35.0,1,1.0,0.180800999999974
209,14,0.5,0.0,35.0,-1,0.0,0.25240099999996346
210,14,0.5,0.125,-35.0,-1,1.0,0.31510100000002694
211,14,0.5,0.125,-35.0,1,0.0,0.28060099999993326
212,14,0.5,0.125,-35.0,-1,1.0,0.13930100000004586
213,14,0.5,0.0625,-35.0,-1,1.0,0.2958009999999831
214,14,0.5,0.25,35.0,1,1.0,1.0179010000000517
215,14,0.5,1.0,-35.0,-1,1.0,0.24080100000003313
216,14,0.5,1.0,-35.0,-1,1.0,0.17260099999998602
217,14,0.5,1.0,-35.0,-1,1.0,0.3020010000000184
218,14,0.5,0.0625,35.0,1,1.0,0.36970100000007733
219,14,0.5,0.0,35.0,1,1.0,0.43550100000004477
220,14,0.5,0.0625,35.0,1,1.0,0.33170000000006894
221,14,0.5,0.125,35.0,1,1.0,0.18320100000005368
222,14,0.5,0.0,-35.0,1,0.0,0.11070099999994909
223,14,0.5,0.125,35.0,1,1.0,0.360100999999986
224,14,0.5,0.0625,35.0,1,1.0,0.3425010000000839
225,14,0.5,1.0,35.0,-1,0.0,0.08090100000003986
226,14,0.5,0.25,-35.0,-1,1.0,0.198900999999978
227,14,0.5,0.125,35.0,1,1.0,0.36700100000007296
228,14,0.5,1.0,35.0,-1,0.0,0.2835009999998874
229,14,0.7,1.0,-35.0,-1,1.0,0.2682009999998627
230,14,0.5,1.0,-35.0,-1,1.0,0.24420100000020284
231,14,0.5,0.0625,-35.0,-1,1.0,0.814000999999962
232,14,0.5,0.125,-35.0,-1,1.0,0.23250100000018392
233,14,0.5,0.0625,35.0,1,1.0,1.381901000000198
234,14,0.5,0.0625,35.0,-1,0.0,0.10070100000007187
235,14,0.2,0.0625,35.0,-1,0.0,4.305601000000024
236,14,0.5,1.0,35.0,-1,0.0,0.2591010000001006
237,14,0.2,1.0,35.0,1,1.0,0.2517009999999118
238,14,0.5,1.0,35.0,1,1.0,0.36370099999999184
239,14,0.5,1.0,-35.0,-1,1.0,0.2030010000000857
240,14,0.5,1.0,35.0,1,1.0,0.47090099999991253
241,14,0.5,0.125,-35.0,-1,1.0,0.28490099999999074
242,14,0.5,0.0,35.0,1,1.0,0.7160010000000057
243,14,0.5,0.0625,35.0,1,1.0,0.7852009999999154
244,14,0.5,0.25,35.0,1,1.0,0.2370010000001912
245,14,0.5,0.25,-35.0,-1,1.0,0.9795010000000275
246,14,0.5,0.0625,35.0,1,1.0,0.5387010000001737
247,14,0.5,0.25,-35.0,1,0.0,0.2636010000001079
248,14,0.5,0.25,35.0,1,1.0,0.3224009999998998
249,14,0.5,1.0,-35.0,1,0.0,0.29080099999987397
250,14,0.5,0.125,35.0,1,1.0,0.3459010000001399
251,14,0.5,0.25,-35.0,-1,1.0,0.2752010000001519
252,14,0.5,0.0625,35.0,1,1.0,0.46510099999977683
253,14,0.5,0.25,-35.0,-1,1.0,0.22880099999997583
254,14,0.5,0.0625,35.0,-1,0.0,0.08370100000001912
255,14,0.5,0.0625,-35.0,1,0.0,0.33300099999996746
256,14,0.7,0.0625,-35.0,-1,1.0,0.30130099999996673
257,14,0.5,1.0,-35.0,-1,1.0,0.18330100000025595
258,14,0.5,1.0,-35.0,-1,1.0,0.23310100000026068
259,14,0.5,1.0,-35.0,-1,1.0,0.2311010000000806
260,14,0.5,0.25,35.0,-1,0.0,0.1523010000000795
261,14,0.5,0.0,35.0,1,1.0,0.6811009999998987
262,14,0.5,1.0,-35.0,-1,1.0,0.10330099999987397
263,14,0.5,0.0625,35.0,1,1.0,0.25100099999986014
264,14,0.5,1.0,-35.0,-1,1.0,0.36950100000012753
265,14,0.5,0.125,35.0,1,1.0,0.3144009999998616
266,14,0.5,0.0,35.0,-1,0.0,0.2495010000000093
267,14,0.3,0.0,35.0,1,1.0,0.36380099999996673
268,14,0.5,1.0,35.0,-1,0.0,0.21640100000013263
269,14,0.5,0.25,35.0,1,1.0,0.36130099999991216
270,14,0.5,0.0625,-35.0,-1,1.0,0.35360100000002603
271,14,0.5,0.0625,-35.0,1,0.0,0.5788010000001123
272,14,0.5,0.25,35.0,-1,0.0,0.11090100000001257
273,14,0.5,0.25,35.0,1,1.0,0.38230099999987033
274,14,0.5,0.125,35.0,1,1.0,0.3652009999998427
275,14,0.5,0.125,35.0,1,1.0,0.33950099999992744
276,14,0.5,0.0,35.0,1,1.0,0.6810009999999238
277,14,0.5,1.0,-35.0,-1,1.0,0.0860010000001239
278,14,0.5,0.125,35.0,1,1.0,0.29540099999985614
279,14,0.5,1.0,-35.0,-1,1.0,0.2211010000000897
280,14,0.5,0.25,-35.0,-1,1.0,0.2659009999999853
281,14,0.5,0.25,-35.0,-1,1.0,0.2213010000000395
282,14,0.5,1.0,-35.0,-1,1.0,0.20370100000013736
283,14,0.5,0.125,-35.0,-1,1.0,0.17230000000017753
284,14,0.5,0.125,35.0,-1,0.0,0.22480100000007042
285,14,0.5,0.25,-35.0,-1,1.0,0.23650100000008933
286,14,0.5,1.0,-35.0,-1,1.0,0.27250099999992017
287,14,0.5,1.0,-35.0,-1,1.0,0.2238009999998667
288,14,0.5,0.125,-35.0,-1,1.0,0.3624009999998634
289,14,0.5,0.25,-35.0,-1,1.0,0.23400100000003476
290,14,0.5,0.0,-35.0,-1,1.0,3.899901
291,14,0.5,0.0,35.0,1,1.0,0.6472009999999955
292,14,0.5,0.125,-35.0,-1,1.0,0.3908999999998741
293,14,0.5,0.25,35.0,-1,0.0,0.6093009999999595
294,14,0.5,0.25,-35.0,-1,1.0,0.20430099999998674
295,14,0.5,0.25,-35.0,-1,1.0,0.2730010000002494
296,14,0.5,0.125,35.0,-1,0.0,0.09890099999984159
297,14,0.5,0.25,35.0,-1,0.0,0.2414009999999962
298,14,0.5,0.125,35.0,1,1.0,1.169601000000057
299,14,0.5,0.0625,-35.0,-1,1.0,0.12170100000003004
300,14,0.5,0.25,-35.0,1,0.0,0.3102010000000064
301,14,0.3,0.25,35.0,-1,0.0,0.0826009999998405
302,14,0.5,1.0,-35.0,-1,1.0,0.2273009999998976
303,14,0.5,0.0,-35.0,-1,1.0,0.4233009999998103
304,14,0.5,1.0,-35.0,-1,1.0,0.21900099999993472
305,14,0.5,0.0625,35.0,1,1.0,0.316700999999739
306,14,0.5,0.125,35.0,1,1.0,0.13620099999980084
307,14,0.5,0.0,-35.0,1,0.0,1.1742010000000391
308,14,0.5,0.0625,-35.0,1,0.0,1.4757010000000719
309,14,0.5,0.0625,35.0,1,1.0,1.2227010000001428
310,14,0.5,1.0,35.0,1,1.0,0.42160100000000966
311,14,0.5,1.0,35.0,1,1.0,0.6666010000001279
312,14,0.5,0.0625,-35.0,1,0.0,0.3315010000001166
313,14,0.8,0.0625,35.0,1,1.0,0.11020099999996091
314,14,0.5,1.0,-35.0,-1,1.0,0.20250099999998383
315,14,0.5,0.125,35.0,-1,0.0,0.19430099999999584
316,14,0.5,0.125,35.0,-1,0.0,0.21620099999995546
317,14,0.7,0.125,-35.0,1,0.0,0.2215009999999893
318,14,0.5,1.0,35.0,-1,0.0,0.2967009999997572
319,14,0.6,1.0,-35.0,-1,1.0,0.24190100000009807
320,14,0.5,1.0,35.0,1,1.0,0.1243010000000595
321,14,0.5,0.25,-35.0,-1,1.0,0.2434009999999489
322,14,0.5,0.125,35.0,1,1.0,0.2819010000000617
323,14,0.5,0.0,-35.0,1,0.0,0.5167010000000118
324,14,0.5,0.0625,-35.0,-1,1.0,0.10890099999983249
325,14,0.5,0.125,35.0,1,1.0,0.3476010000001679
326,14,0.5,1.0,-35.0,-1,1.0,0.20640099999991435
327,14,0.5,0.0625,35.0,1,1.0,0.33140099999991435
328,14,0.5,0.0625,-35.0,-1,1.0,0.40760100000011334
329,14,0.5,1.0,-35.0,-1,1.0,0.24840100000005805
330,14,0.5,0.0625,-35.0,-1,1.0,0.2773010000000795
331,14,0.5,1.0,35.0,-1,0.0,0.2922009999999773
332,14,0.5,0.25,35.0,1,1.0,0.6143009999998412
333,14,0.5,0.125,35.0,1,1.0,0.5672010000000682
334,14,0.5,0.125,35.0,-1,0.0,0.26790100000016537
335,14,0.5,0.0625,35.0,1,1.0,0.5920010000002094
336,14,0.5,0.125,35.0,-1,0.0,0.2875010000000202
337,14,0.5,0.25,-35.0,-1,1.0,0.06910100000004604
338,14,0.5,0.125,35.0,-1,0.0,0.21510000000012042
339,14,0.5,0.25,-35.0,-1,1.0,0.22020100000008824
340,14,0.5,0.125,35.0,1,1.0,0.3423009999999067
341,14,0.5,0.0625,-35.0,1,0.0,0.3600010000000111
342,14,0.5,0.125,35.0,-1,0.0,0.3256010000002334
343,14,0.4,0.125,35.0,1,1.0,0.34740099999976337
344,14,0.5,1.0,35.0,1,1.0,0.2899010000000999
345,14,0.5,0.0,35.0,1,1.0,0.33490099999994527
346,14,0.5,0.25,35.0,1,1.0,0.30440100000009807
347,14,0.5,1.0,-35.0,-1,1.0,0.20620099999996455
348,14,0.5,0.25,-35.0,-1,1.0,0.23860099999978956
349,14,0.5,0.125,35.0,1,1.0,0.28050099999995837
350,14,0.5,0.0625,35.0,1,1.0,0.17970100000025013
351,14,0.5,0.25,-35.0,1,0.0,0.2717009999998936
352,14,0.5,0.0,-35.0,1,0.0,0.3004009999999653
353,14,0.5,0.125,-35.0,1,0.0,0.15210100000012972
354,14,0.8,0.125,-35.0,-1,1.0,1.2979009999999107
355,14,0.5,1.0,-35.0,-1,1.0,0.18690099999980703
356,14,0.5,0.125,35.0,1,1.0,0.28840100000002167
357,14,0.5,0.25,-35.0,-1,1.0,0.4673010000001341
358,14,0.5,0.0625,-35.0,1,0.0,0.3288009999998849
359,14,0.5,0.0,-35.0,1,0.0,0.5009010000001126
360,14,0.5,0.0625,-35.0,-1,1.0,0.39900100000022576
361,14,0.5,0.125,35.0,-1,0.0,0.26780100000019047
362,14,0.5,0.125,-35.0,-1,1.0,0.3299010000000635
363,14,0.5,1.0,35.0,1,1.0,0.4047010000001592
364,14,0.5,0.125,-35.0,1,0.0,0.11370099999999184
365,14,0.5,0.0,35.0,1,1.0,1.5219010000000708
366,14,0.5,1.0,-35.0,-1,1.0,0.24350000000004002
367,14,0.5,0.125,35.0,-1,0.0,0.11200099999996382
368,14,0.5,0.0625,35.0,1,1.0,0.580801000000065
369,14,0.5,0.125,-35.0,1,0.0,0.3790010000000166
370,14,0.5,0.0625,-35.0,1,0.0,0.5582009999998263
371,14,0.5,0.125,-35.0,1,0.0,0.2675010000000384
372,14,0.5,0.125,-35.0,-1,1.0,0.31830100000024686
373,14,0.5,0.0,35.0,1,1.0,0.42409999999995307
374,14,0.5,0.0625,-35.0,1,0.0,0.4050010000000839
375,14,0.7,0.0625,35.0,1,1.0,0.3200009999998201
376,14,0.5,1.0,-35.0,-1,1.0,0.25260100000014063
377,14,0.5,1.0,-35.0,-1,1.0,0.2077009999998154
378,14,0.5,1.0,-35.0,-1,1.0,0.30690100000015264
379,14,0.5,0.25,35.0,1,1.0,0.16640099999995073
380,14,0.5,1.0,-35.0,-1,1.0,0.2314010000000053
381,14,0.5,0.0,-35.0,-1,1.0,0.2269010000002254
382,14,0.5,0.125,35.0,-1,0.0,0.30920100000003004
383,14,0.5,0.125,-35.0,-1,1.0,0.27680099999997765
384,14,0.5,0.125,35.0,1,1.0,0.7228009999998903
385,14,0.5,0.25,-35.0,-1,1.0,0.25660100000004604
386,14,0.5,0.0625,35.0,1,1.0,0.5720010000000002
387,14,0.5,1.0,-35.0,-1,1.0,0.16340100000002167
388,14,0.5,0.25,35.0,1,1.0,0.2927009999998518
389,14,0.5,0.0625,-35.0,1,0.0,0.30140099999994163
390,14,0.5,0.0625,35.0,1,1.0,0.5336010000000897
391,14,0.5,0.25,-35.0,-1,1.0,0.30570099999977174
392,14,0.5,1.0,-35.0,-1,1.0,0.21380099999987578
393,14,0.5,0.125,35.0,1,1.0,0.45240100000000893
394,14,0.5,1.0,35.0,-1,0.0,0.2904009999999744
395,14,0.5,0.0625,35.0,1,1.0,0.29840100000023995
396,14,0.5,0.125,35.0,1,1.0,0.33100100000001476
397,14,0.5,0.125,35.0,1,1.0,0.24630099999990307
398,14,0.5,0.25,35.0,1,1.0,0.30209999999988213
399,14,0.5,0.125,35.0,1,1.0,0.43450099999995473
400,14,0.5,0.0625,-35.0,1,0.0,0.3164009999998143
401,14,0.5,0.125,-35.0,-1,1.0,0.3143010000001141
402,14,0.5,0.0,-35.0,-1,1.0,0.25670100000002094
403,14,0.5,0.125,-35.0,-1,1.0,0.43840099999988524
404,14,0.5,0.25,35.0,1,1.0,0.5142009999999573
405,14,0.5,1.0,35.0,1,1.0,0.6537010000001828
406,14,0.5,1.0,35.0,1,1.0,0.3217010000000755
407,14,0.5,0.25,-35.0,-1,1.0,0.2564009999998689
408,14,0.5,0.25,35.0,1,1.0,0.35900100000003476
409,14,0.5,1.0,-35.0,-1,1.0,0.2085010000002967
410,14,0.5,0.0625,-35.0,-1,1.0,0.2859009999999671
411,14,0.5,0.0625,-35.0,-1,1.0,2.38130000000001
412,14,0.5,0.0625,-35.0,1,0.0,0.2664009999998598
413,14,0.5,0.0625,35.0,1,1.0,0.4047010000001592
414,14,0.5,1.0,-35.0,-1,1.0,0.2233009999999922
415,14,0.5,0.25,-35.0,-1,1.0,0.2661009999999351
416,14,0.5,0.25,35.0,1,1.0,1.1407009999998081
417,14,0.5,0.0625,-35.0,-1,1.0,0.34910100000001876
418,14,0.5,0.0625,-35.0,-1,1.0,0.6573009999999613
419,14,0.5,0.0625,-35.0,-1,1.0,0.10900100000003476
420,14,0.5,0.25,35.0,1,1.0,0.848100999999815
421,14,0.5,1.0,35.0,-1,0.0,0.08760099999994964
422,14,0.5,0.0625,35.0,1,1.0,4.986501000000089
423,14,0.5,0.0,35.0,-1,0.0,0.3237010000000282
424,14,0.5,0.0625,35.0,1,1.0,0.4289009999999962
425,14,0.5,0.125,-35.0,-1,1.0,0.2797010000001592
426,14,0.5,0.25,-35.0,1,0.0,0.2556010000000697
427,14,0.5,0.25,-35.0,-1,1.0,0.3010010000002694
428,14,0.5,0.0,-35.0,1,0.0,0.2798010000001341
429,14,0.5,0.25,-35.0,-1,1.0,0.3018009999998412
430,14,0.5,0.125,-35.0,1,0.0,0.7237009999998918
431,14,0.5,0.25,35.0,1,1.0,0.5383010000000468
432,14,0.5,0.125,35.0,1,1.0,0.4307009999999991
433,14,0.5,0.25,-35.0,-1,1.0,0.27250099999992017
434,14,0.5,0.0625,-35.0,1,0.0,0.33490100000017264
435,14,0.6,0.0625,35.0,1,1.0,0.5795010000001639
436,14,0.5,1.0,-35.0,-1,1.0,0.2055009999999129
437,14,0.5,0.125,-35.0,-1,1.0,0.26300099999980375
438,14,0.5,0.0625,-35.0,-1,1.0,0.29880100000013954
439,14,0.5,0.25,-35.0,-1,1.0,0.25720099999989543
440,14,0.5,0.125,-35.0,-1,1.0,0.32300100000020393
441,14,0.5,0.0625,-35.0,-1,1.0,0.942100999999866
442,14,0.5,0.125,-35.0,-1,1.0,0.31740100000001803
443,14,0.5,0.25,35.0,1,1.0,0.4326009999995222
444,14,0.5,0.125,35.0,1,1.0,0.5077009999999973
445,14,0.5,0.125,35.0,1,1.0,0.3028009999998176
446,14,0.5,1.0,35.0,-1,0.0,0.3036010000000715
447,14,0.5,0.25,35.0,1,1.0,0.5434009999999034
448,14,0.5,0.25,-35.0,-1,1.0,0.2845009999996364
449,14,0.5,0.125,35.0,-1,0.0,0.2528009999996357
450,14,0.5,0.25,-35.0,-1,1.0,0.3085009999999784
451,14,0.5,0.125,35.0,1,1.0,0.16370099999994636
452,14,0.5,1.0,-35.0,-1,1.0,0.21610099999998056
453,14,0.5,0.25,35.0,-1,0.0,0.26150099999949816
454,14,0.5,0.0625,-35.0,1,0.0,0.499800999999934
455,14,0.5,0.25,-35.0,-1,1.0,0.2681009999996604
456,14,0.5,0.25,-35.0,-1,1.0,0.25730099999964295
457,14,0.5,0.0625,-35.0,-1,1.0,0.21950099999958184
458,14,0.5,0.0625,-35.0,-1,1.0,0.30460099999936574
459,14,0.5,0.125,35.0,1,1.0,0.18960099999958402
460,14,0.5,0.125,-35.0,-1,1.0,0.26830100000006496
461,14,0.5,0.125,-35.0,-1,1.0,0.22340099999928498
462,14,0.5,0.25,-35.0,1,0.0,0.21850099999983286
463,14,0.5,0.25,-35.0,-1,1.0,0.27720099999987724
464,14,0.5,0.125,-35.0,1,0.0,0.4528009999999085
465,14,0.3,0.125,-35.0,-1,1.0,0.28440099999943413
466,14,0.5,1.0,35.0,1,1.0,0.500000999999429
467,14,0.5,1.0,-35.0,-1,1.0,0.20500099999981103
468,14,0.5,0.25,-35.0,-1,1.0,0.2842009999999391
469,14,0.5,0.0,35.0,1,1.0,0.8194009999997434
470,14,0.5,0.25,35.0,1,1.0,0.5816009999998641
471,14,0.5,0.125,35.0,1,1.0,0.34770099999968807
472,14,0.5,0.0625,35.0,1,1.0,0.2625009999997019
473,14,0.5,0.125,35.0,1,1.0,0.45070099999975355
474,14,0.5,0.125,-35.0,-1,1.0,0.3063009999996211
475,14,0.5,0.25,-35.0,-1,1.0,0.2922009999997499
476,14,0.5,0.25,35.0,1,1.0,0.8973009999999704
477,14,0.5,0.0625,-35.0,1,0.0,0.8527009999997972
478,14,0.5,0.0625,-35.0,1,0.0,0.6577009999996335
479,14,0.8,0.0625,-35.0,-1,1.0,0.3195009999994909
480,14,0.5,1.0,35.0,-1,0.0,0.31820099999958984
481,14,0.5,0.125,-35.0,1,0.0,0.10750099999995655
482,14,0.5,0.125,-35.0,1,0.0,0.47860099999979866
483,14,0.5,0.0,-35.0,1,0.0,0.5812009999995098
484,14,0.6,0.0,-35.0,1,0.0,0.5092009999998481
485,14,0.5,1.0,-35.0,-1,1.0,0.22090099999968515
486,14,0.5,0.125,-35.0,-1,1.0,0.2966009999995549
487,14,0.5,0.125,-35.0,1,0.0,0.18850099999963277
488,14,0.5,0.0625,35.0,1,1.0,0.48100099999965096
489,14,0.5,0.125,35.0,1,1.0,0.3630009999997128
490,14,0.5,0.25,-35.0,-1,1.0,0.25560099999938757
491,14,0.5,0.25,35.0,1,1.0,0.49760099999957674
492,14,0.5,0.25,35.0,1,1.0,0.5034009999999398
493,14,0.5,0.25,35.0,1,1.0,0.37980100000004313
494,14,0.5,0.0625,35.0,1,1.0,0.3954009999997652
495,14,0.5,1.0,-35.0,-1,1.0,0.2340009999998074
496,14,0.5,0.125,35.0,1,1.0,0.13980099999980666
497,14,0.5,0.0625,35.0,1,1.0,0.5020009999993817
498,14,0.5,0.25,35.0,1,1.0,0.5105009999997492
499,14,0.5,0.0625,-35.0,-1,1.0,0.395600999999715
500,14,0.5,1.0,-35.0,-1,1.0,0.30050100000016755
501,14,0.5,0.125,-35.0,-1,1.0,0.3116009999994276
502,14,0.5,1.0,35.0,1,1.0,0.7700010000003203
503,14,0.5,0.25,35.0,1,1.0,0.39850099999966915
504,14,0.5,0.25,35.0,1,1.0,0.36410099999966405
505,14,0.5,1.0,-35.0,-1,1.0,0.48980099999926097
506,14,0.5,0.25,35.0,1,1.0,0.4312009999998736
507,14,0.5,0.25,35.0,-1,0.0,0.3458009999994829
508,14,0.5,0.25,-35.0,-1,1.0,0.2842009999999391
509,14,0.5,1.0,-35.0,-1,1.0,0.2277009999997972
510,14,0.5,1.0,-35.0,-1,1.0,0.25690099999974336
511,14,0.5,1.0,35.0,1,1.0,0.3493009999997412
512,14,0.5,1.0,35.0,-1,0.0,0.40760099999988597
513,14,0.5,0.125,35.0,1,1.0,1.3993009999994683
514,14,0.5,0.125,35.0,1,1.0,0.3715009999996255
515,14,0.5,1.0,-35.0,-1,1.0,0.233400999999958
516,14,0.5,1.0,-35.0,-1,1.0,0.2655009999994036
517,14,0.5,0.25,35.0,1,1.0,1.1211009999992712
518,14,0.5,0.125,35.0,-1,0.0,0.44319999999970605
519,14,0.5,0.125,-35.0,1,0.0,0.39910099999951854
520,14,0.5,0.25,35.0,1,1.0,0.7072009999997135
521,14,0.5,1.0,-35.0,-1,1.0,0.21550099999967642
522,14,0.5,1.0,-35.0,-1,1.0,0.21470099999987724
523,14,0.5,0.25,-35.0,1,0.0,2.532300999999734
524,14,0.5,0.0,-35.0,1,0.0,0.514100999999755
525,14,0.5,0.0625,35.0,1,1.0,0.30560099999956947
526,14,0.5,0.0625,35.0,1,1.0,0.3438009999999849
527,14,0.5,0.0625,35.0,1,1.0,0.42260099999975864
528,14,0.5,0.25,35.0,1,1.0,0.23770099999956074
529,14,0.5,0.0625,-35.0,-1,1.0,0.2557010000000446
530,14,0.5,0.0625,-35.0,-1,1.0,0.24110099999961676
531,14,0.5,0.25,35.0,1,1.0,0.41730099999949744
532,14,0.5,1.0,-35.0,-1,1.0,0.2687009999995098
533,14,0.5,0.0625,35.0,-1,0.0,0.37750099999993836
534,14,0.5,0.0625,35.0,1,1.0,0.24950099999932718
535,14,0.5,0.125,35.0,1,1.0,0.42090099999950326
536,14,0.5,1.0,-35.0,1,0.0,0.3302009999997608
537,14,0.6,1.0,-35.0,-1,1.0,0.2522009999997863
538,14,0.5,1.0,35.0,1,1.0,0.47760099999959493
539,14,0.5,0.0625,-35.0,1,0.0,0.35320099999989907
540,14,0.5,0.0625,35.0,1,1.0,0.5317009999998845
541,14,0.5,0.0,-35.0,1,0.0,0.4415009999997892
542,14,0.5,0.0,35.0,1,1.0,0.5556010000000242
543,14,0.5,0.0625,-35.0,1,0.0,0.5008010000001377
544,14,0.9,0.0625,-35.0,-1,1.0,0.3631009999999151
545,14,0.5,1.0,-35.0,-1,1.0,0.23850099999935992
546,14,0.5,1.0,-35.0,-1,1.0,0.24730099999987942
547,14,0.5,1.0,35.0,1,1.0,0.31210099999952945
548,14,0.5,1.0,-35.0,-1,1.0,0.3282009999998081
549,14,0.5,0.125,35.0,1,1.0,0.3767009999996844
550,14,0.5,1.0,35.0,1,1.0,0.5122009999995498
551,14,0.5,0.125,35.0,1,1.0,0.4051009999998314
552,14,0.5,0.0625,35.0,1,1.0,0.33640099999956874
553,14,0.5,0.25,35.0,1,1.0,0.3917009999995571
554,14,0.5,0.25,-35.0,1,0.0,0.43110099999967133
555,14,0.5,0.0625,35.0,1,1.0,0.4326009999995222
556,14,0.5,0.125,-35.0,-1,1.0,0.32840099999930317
557,14,0.5,0.0625,-35.0,1,0.0,0.44040099999983795
558,14,0.5,0.0,-35.0,-1,1.0,0.9049009999994269
559,14,0.5,0.25,35.0,1,1.0,2.4132009999998445
560,14,0.5,0.25,35.0,1,1.0,0.42160100000000966
561,14,0.5,0.0,-35.0,1,0.0,0.38070099999958984
562,14,0.5,0.0625,-35.0,1,0.0,0.6027009999997972
563,14,0.5,0.0625,-35.0,1,0.0,0.1759009999996124
564,14,0.8,0.0625,-35.0,1,0.0,0.27660100000002785
565,14,0.5,1.0,-35.0,-1,1.0,0.3291010000002643
566,14,0.5,1.0,35.0,1,1.0,0.47090099999968515
567,14,0.5,0.25,35.0,1,1.0,0.41010099999994054
568,14,0.5,0.0625,35.0,1,1.0,0.42880099999956656
569,14,0.5,0.25,-35.0,-1,1.0,0.9207009999995535
570,14,0.5,0.0625,35.0,1,1.0,0.6064010000000053
571,14,0.5,0.125,-35.0,-1,1.0,7.56820099999959
572,14,0.5,0.0625,-35.0,-1,1.0,0.5077009999995425
573,14,0.5,0.125,35.0,1,1.0,0.21959999999990032
574,14,0.5,1.0,35.0,1,1.0,0.4884009999996124
575,14,0.5,1.0,35.0,1,1.0,0.4332009999998263
576,14,0.5,1.0,-35.0,-1,1.0,0.2888009999996939
577,14,0.5,0.0625,-35.0,1,0.0,0.38440099999979793
578,14,0.5,0.25,-35.0,-1,1.0,0.6591009999997368
579,14,0.5,0.25,-35.0,1,0.0,0.5339010000002418
580,14,0.6,0.25,-35.0,-1,1.0,0.5895009999994727
581,14,0.5,1.0,-35.0,-1,1.0,0.3588009999998576
582,14,0.5,0.0,35.0,1,1.0,0.45050099999980375
583,14,0.5,0.0625,-35.0,1,0.0,0.6300009999999929
584,14,0.6,0.0625,35.0,1,1.0,0.5941009999996822
585,14,0.5,1.0,35.0,1,1.0,0.6059009999994487
586,14,0.5,0.0,35.0,1,1.0,0.5451009999997041
587,14,0.5,0.25,-35.0,-1,1.0,0.296900999999707
588,14,0.5,0.0625,35.0,1,1.0,0.5355009999998401
589,14,0.5,0.125,35.0,1,1.0,0.43110099999967133
590,14,0.5,0.25,35.0,1,1.0,0.42330099999935555
591,14,0.5,0.125,35.0,1,1.0,0.45519999999987704
592,14,0.5,0.25,35.0,1,1.0,0.6077009999999063
593,14,0.5,0.0,-35.0,1,0.0,0.43880099999978484
594,14,0.5,0.0,-35.0,1,0.0,0.4409009999999398
595,14,0.9,0.0,35.0,1,1.0,0.40300100000013117
596,14,0.5,1.0,-35.0,-1,1.0,0.2785009999997783
597,14,0.5,0.25,-35.0,-1,1.0,0.2261009999997441
598,14,0.5,1.0,-35.0,-1,1.0,0.26170099999944796
599,14,0.5,0.25,35.0,1,1.0,0.35420099999964805
600,14,0.5,0.0625,-35.0,1,0.0,0.35300099999994927
601,14,0.5,0.0,-35.0,1,0.0,3.2059009999998125
602,14,0.7,0.0,-35.0,1,0.0,0.632600999999795
603,14,0.5,1.0,-35.0,-1,1.0,0.357300999999552
604,14,0.5,0.25,35.0,-1,0.0,0.346400999999787
605,14,0.5,0.25,35.0,1,1.0,0.544601000000057
606,14,0.5,1.0,35.0,-1,0.0,0.35990099999980885
607,14,0.5,1.0,-35.0,-1,1.0,0.23530099999970844
608,14,0.5,1.0,35.0,1,1.0,0.3974009999997179
609,14,0.5,0.125,35.0,1,1.0,0.41260099999954036
610,14,0.5,0.125,35.0,1,1.0,0.3414009999996779
611,14,0.5,0.25,-35.0,-1,1.0,0.2525009999994836
612,14,0.5,0.25,-35.0,-1,1.0,0.3114009999994778
613,14,0.5,0.25,35.0,1,1.0,0.40370099999927334
614,14,0.5,0.0625,-35.0,1,0.0,0.9623009999995702
615,14,0.5,0.25,35.0,1,1.0,0.46390100000007806
616,14,0.5,0.125,-35.0,-1,1.0,0.6726009999997586
617,14,0.5,1.0,35.0,1,1.0,0.5378009999999449
618,14,0.5,0.25,-35.0,-1,1.0,0.2500009999998838
619,14,0.5,0.125,35.0,1,1.0,1.128501000000142
620,14,0.5,0.0,-35.0,-1,1.0,0.7431009999995695
621,14,0.5,0.25,35.0,1,1.0,0.4773009999998976
622,14,0.5,1.0,-35.0,-1,1.0,0.31620099999963713
623,14,0.5,0.0625,35.0,1,1.0,0.5881010000002789
624,14,0.5,0.125,-35.0,1,0.0,0.48060099999975137
625,14,0.5,0.0625,-35.0,-1,1.0,0.6099010000002636
626,14,0.5,0.125,-35.0,-1,1.0,0.35120099999994636
627,14,0.5,0.0625,35.0,1,1.0,0.5669009999996888
628,14,0.5,1.0,-35.0,-1,1.0,0.44240099999979066
629,14,0.5,0.0625,35.0,1,1.0,0.5147009999996044
630,14,0.5,0.125,-35.0,-1,1.0,0.7168010000000322
631,14,0.5,1.0,35.0,1,1.0,0.8623009999996611
632,14,0.5,1.0,-35.0,-1,1.0,0.2910009999995964
633,14,0.5,0.0625,-35.0,1,0.0,0.4862009999997099
634,14,0.5,0.0625,35.0,1,1.0,3.185000999999829
635,14,0.5,1.0,35.0,1,1.0,0.27930099999957747
636,14,0.5,0.0625,-35.0,1,0.0,1.0080010000001494
637,14,0.5,0.25,-35.0,-1,1.0,1.766501000000062
638,14,0.5,0.0625,-35.0,1,0.0,0.548200999999608
639,14,0.5,0.25,35.0,-1,0.0,0.34000099999957456
640,14,0.6,0.25,-35.0,-1,1.0,0.7109009999994669
641,14,0.5,1.0,-35.0,-1,1.0,0.2566009999995913
642,14,0.5,0.0625,-35.0,1,0.0,0.29540099999985614
643,14,0.5,0.0625,-35.0,1,0.0,0.47110099999963495
644,14,0.6,0.0625,-35.0,-1,1.0,2.015900999999758
645,14,0.5,1.0,35.0,1,1.0,0.49400100000002567
646,14,0.5,0.25,-35.0,1,0.0,0.48300099999960366
647,14,0.5,0.25,-35.0,-1,1.0,0.7970009999999093
648,14,0.5,0.125,35.0,1,1.0,0.569000999999389
649,14,0.5,0.0625,35.0,1,1.0,0.3009009999996124
650,14,0.5,1.0,35.0,1,1.0,0.2402009999996153
651,14,0.5,0.25,-35.0,1,0.0,0.39210099999991144
652,14,0.5,0.0,-35.0,1,0.0,0.43110099999967133
653,14,0.5,0.0625,-35.0,1,0.0,0.7601009999993948
654,14,0.5,0.0625,-35.0,-1,1.0,0.41800100000000384
655,14,0.5,1.0,35.0,1,1.0,0.44650099999989834
656,14,0.5,0.25,-35.0,-1,1.0,0.4757009999998445
657,14,0.5,1.0,35.0,1,1.0,0.45090099999970334
658,14,0.5,0.125,35.0,1,1.0,0.5299009999994269
659,14,0.5,1.0,-35.0,-1,1.0,0.24940099999957965
660,14,0.5,1.0,-35.0,-1,1.0,0.3006009999994603
661,14,0.5,1.0,35.0,1,1.0,0.5787009999994552
662,14,0.5,0.0625,-35.0,1,0.0,1.8035009999994145
663,14,0.5,0.0625,35.0,1,1.0,0.4017009999997754
664,14,0.5,0.125,-35.0,1,0.0,0.4006009999998241
665,14,0.5,0.0625,35.0,1,1.0,0.5394009999995433
666,14,0.5,0.0625,35.0,1,1.0,0.5681009999998423
667,14,0.5,1.0,-35.0,-1,1.0,0.41700099999934537
668,14,0.5,0.0625,35.0,1,1.0,0.5025009999994836
669,14,0.5,0.0,-35.0,1,0.0,0.7087009999995644
670,14,0.8,0.0,-35.0,1,0.0,0.673200999999608
671,14,0.5,1.0,-35.0,-1,1.0,0.24820099999988088
672,14,0.5,0.125,-35.0,-1,1.0,3.08730099999957
673,14,0.5,0.125,35.0,1,1.0,0.5157009999998081
674,14,0.5,0.0625,-35.0,1,0.0,0.3742010000000846
675,14,0.5,0.125,-35.0,-1,1.0,0.41290099999969243
676,14,0.5,1.0,-35.0,-1,1.0,0.26130099999954837
677,14,0.5,1.0,-35.0,-1,1.0,0.390100999999504
678,14,0.5,0.0625,-35.0,-1,1.0,0.3291009999993548
679,14,0.5,1.0,-35.0,-1,1.0,0.3246009999998023
680,14,0.5,0.0625,35.0,1,1.0,1.1702009999999063
681,14,0.5,0.125,-35.0,-1,1.0,0.35200099999974555
682,14,0.5,1.0,-35.0,-1,1.0,0.3610009999997601
683,14,0.5,0.125,35.0,-1,0.0,1.9296009999998205
684,14,0.2,0.125,-35.0,1,0.0,0.6147009999995134
685,14,0.5,1.0,-35.0,-1,1.0,0.2763009999998758
686,14,0.5,0.25,35.0,1,1.0,0.6390010000000075
687,14,0.5,1.0,35.0,-1,0.0,0.3875009999997019
688,14,0.3,1.0,35.0,1,1.0,0.2929010000002563
689,14,0.5,1.0,35.0,1,1.0,0.6679009999998016
690,14,0.5,0.25,35.0,1,1.0,0.5302009999995789
691,14,0.5,0.0,35.0,1,1.0,1.2630009999998038
692,14,0.5,0.0625,35.0,1,1.0,5.514400999999907
693,14,0.5,0.0,-35.0,-1,1.0,1.8947009999997135
694,14,0.5,0.125,-35.0,-1,1.0,0.6596009999993839
695,14,0.5,0.125,35.0,1,1.0,2.235001000000011
696,14,0.5,0.25,35.0,1,1.0,3.0466010000000097
697,14,0.5,1.0,-35.0,-1,1.0,0.29080100000010134
698,14,0.5,1.0,-35.0,-1,1.0,0.25350099999968734
699,14,0.5,0.25,-35.0,-1,1.0,0.3427010000000337
700,14,0.5,0.125,-35.0,-1,1.0,0.3910009999999602
701,14,0.5,0.0625,35.0,1,1.0,1.0031009999997877
702,14,0.5,0.125,35.0,1,1.0,0.4185009999991962
703,14,0.5,0.0625,35.0,1,1.0,1.497400999999627
704,14,0.5,0.0625,-35.0,1,0.0,1.955300999999963
705,14,0.5,0.0625,35.0,1,1.0,1.6902009999998882
706,14,0.5,1.0,-35.0,-1,1.0,0.3019009999998161
707,14,0.5,0.125,-35.0,-1,1.0,0.48040099999980157
708,14,0.5,0.25,35.0,-1,0.0,0.35610099999985323
709,14,0.5,0.0625,35.0,1,1.0,0.6686009999998532
710,14,0.5,0.125,35.0,1,1.0,3.3369010000001254
711,14,0.5,1.0,-35.0,-1,1.0,0.37120099999992817
712,14,0.5,1.0,-35.0,-1,1.0,0.3205009999996946
713,14,0.5,1.0,35.0,-1,0.0,0.3422009999999318
714,14,0.5,0.0625,-35.0,-1,1.0,1.057901000000129
715,14,0.5,0.0,-35.0,1,0.0,1.9462009999992915
716,14,0.5,0.0625,35.0,-1,0.0,8.441400999999587
717,14,0.5,0.25,35.0,-1,0.0,0.7741009999999733
718,14,0.5,0.0,-35.0,-1,1.0,0.7324009999997543
719,14,0.5,1.0,-35.0,-1,1.0,0.283900999999787
720,14,0.5,0.0,35.0,1,1.0,0.746400999999878
721,14,0.5,0.0625,-35.0,-1,1.0,0.3119010000000344
722,14,0.5,0.0625,-35.0,-1,1.0,1.5867009999997208
723,14,0.5,0.0625,-35.0,1,0.0,0.9389009999995324
724,14,0.5,0.25,-35.0,-1,1.0,0.4405009999995855
725,14,0.5,0.25,-35.0,-1,1.0,0.2763009999998758
726,14,0.5,1.0,35.0,1,1.0,0.6253009999995811
727,14,0.5,0.125,-35.0,-1,1.0,0.4773009999998976
728,14,0.5,0.0625,35.0,-1,0.0,1.4260009999998147
729,14,0.3,0.0625,35.0,-1,0.0,4.767001000000164
730,14,0.5,1.0,35.0,1,1.0,0.537300999999843
731,14,0.5,1.0,-35.0,-1,1.0,0.4231009999998605
732,14,0.5,0.0625,-35.0,-1,1.0,0.5317009999998845
733,14,0.5,0.125,35.0,-1,0.0,11.834100999999919
734,14,0.5,0.25,-35.0,-1,1.0,0.3396010000001297
735,14,0.5,0.25,-35.0,-1,1.0,0.40110099999947124
736,14,0.5,0.0625,-35.0,-1,1.0,7.540000999999393
737,14,0.5,1.0,-35.0,-1,1.0,0.26340099999970334
738,14,0.5,1.0,-35.0,-1,1.0,0.27200100000027305
739,14,0.5,1.0,-35.0,-1,1.0,0.24140100000022358
740,14,0.5,0.0625,35.0,-1,0.0,1.5132009999997535
741,14,0.5,0.0,-35.0,-1,1.0,6.441600999999537
742,14,0.5,0.0625,-35.0,-1,1.0,0.7682009999998627
743,14,0.5,1.0,35.0,1,1.0,0.524000999999771
744,14,0.5,0.0625,35.0,-1,0.0,2.582600999999613
745,14,0.1,0.0625,35.0,1,1.0,1.627400999999736
746,14,0.5,1.0,35.0,1,1.0,0.6789010000002236
747,14,0.5,0.0,-35.0,1,0.0,0.6747009999999136
748,14,0.5,0.0625,-35.0,-1,1.0,0.4369010000000344
749,14,0.5,0.0,-35.0,-1,1.0,0.30210100000022067
750,14,0.5,0.25,-35.0,-1,1.0,0.34060099999942395
751,14,0.5,0.25,35.0,-1,0.0,0.1694009999996524
752,14,0.4,0.25,35.0,1,1.0,0.6011009999997441
753,14,0.5,1.0,35.0,1,1.0,2.0360009999994872
754,14,0.5,0.0,-35.0,-1,1.0,0.31780099999969025
755,14,0.5,1.0,-35.0,-1,1.0,0.5267009999997754
756,14,0.5,0.0625,35.0,-1,0.0,1.3187009999996917
757,14,0.5,0.125,-35.0,-1,1.0,0.283900999999787
758,14,0.5,0.0,35.0,-1,0.0,0.27270099999986996
759,14,0.2,0.0,-0.0,0,0.0,59.998200999999426
760,14,0.5,1.0,35.0,1,1.0,0.9316009999997732
761,14,0.5,0.125,-35.0,-1,1.0,0.37380099999973027
762,14,0.5,0.0,-35.0,1,0.0,7.339101000000028
763,14,0.4,0.0,35.0,-1,0.0,7.568600999999944
764,14,0.5,1.0,-35.0,-1,1.0,0.23200099999985468
765,14,0.5,0.0625,-35.0,-1,1.0,3.441400999999587
766,14,0.5,0.0625,35.0,1,1.0,0.6717009999997572
767,14,0.5,0.25,-35.0,-1,1.0,0.22670100000004823
768,14,0.5,0.125,-35.0,-1,1.0,0.537000999999691
769,14,0.5,0.125,-35.0,-1,1.0,0.6068009999999049
770,14,0.5,1.0,-35.0,-1,1.0,0.304700999999568
771,14,0.5,0.25,-35.0,-1,1.0,7.826500999999553
772,14,0.5,1.0,35.0,1,1.0,1.933100999999624
773,14,0.5,0.0,35.0,-1,0.0,1.0377009999997426
774,14,0.5,0.0,-35.0,-1,1.0,3.2385009999998147
775,14,0.5,1.0,35.0,1,1.0,2.208701000000019
776,14,0.5,0.25,35.0,1,1.0,0.3606009999998605
777,14,0.5,0.0625,-35.0,1,0.0,4.620700999999826
778,14,0.5,0.125,-35.0,-1,1.0,0.7502010000002883
779,14,0.5,0.125,35.0,1,1.0,0.5256009999993694
780,14,0.5,0.0,35.0,1,1.0,4.014400999999907
781,14,0.5,1.0,35.0,-1,0.0,3.1319009999997434
782,14,0.6,1.0,35.0,1,1.0,0.5797010000001137
783,14,0.5,1.0,-35.0,-1,1.0,0.28500099999973827
784,14,0.5,1.0,35.0,1,1.0,0.8031009999995149
785,14,0.5,0.25,35.0,1,1.0,0.7450009999997746
786,14,0.5,0.25,35.0,1,1.0,0.5673009999995884
787,14,0.5,0.0,-35.0,1,0.0,0.636000999999851
788,14,0.5,0.25,35.0,1,1.0,0.4513010000000577
789,14,0.5,0.25,35.0,1,1.0,8.579000999999607
790,14,0.5,0.25,35.0,1,1.0,8.23180099999945
791,14,0.5,0.0625,-35.0,-1,1.0,
792,14,0.5,0.125,35.0,1,1.0,0.6912009999996371
793,14,0.5,0.0,35.0,-1,0.0,3.2432999999996355
794,14,0.5,0.25,-35.0,-1,1.0,0.3934009999998125
795,14,0.5,0.0625,-35.0,-1,1.0,1.2026009999999587
796,14,0.5,1.0,-35.0,-1,1.0,0.2710009999996146
797,14,0.5,0.125,35.0,-1,0.0,10.280201000000034
798,14,0.5,0.125,35.0,-1,0.0,16.995400999999674
799,14,0.5,0.0625,35.0,-1,0.0,0.8526010000000497
800,14,0.2,0.0625,35.0,-1,0.0,1.634400999999798
801,14,0.5,1.0,35.0,-1,0.0,0.8609010000000126
802,14,0.5,0.25,35.0,-1,0.0,8.66260099999954
803,14,0.5,0.0625,35.0,-1,0.0,37.89190099999996
804,14,0.5,0.125,-35.0,-1,1.0,0.5585009999999784
805,14,0.5,0.25,35.0,1,1.0,0.6738009999994574
806,14,0.5,0.25,-35.0,-1,1.0,0.3324009999996633
807,14,0.5,0.25,-35.0,-1,1.0,0.43800099999998565
808,14,0.5,0.0625,-35.0,-1,1.0,16.553800999999567
809,14,0.5,0.25,35.0,-1,0.0,2.139901000000009
810,14,0.1,0.25,35.0,1,1.0,6.97090100000014
811,14,0.5,1.0,35.0,1,1.0,0.624700999999277
812,14,0.5,0.0625,35.0,1,1.0,7.4528009999999085
813,14,0.5,1.0,-35.0,-1,1.0,0.31260100000008606
814,14,0.5,0.0,-35.0,1,0.0,31.641501000000062
815,14,0.5,0.25,35.0,-1,0.0,2.0032009999995353
816,14,0.5,0.125,35.0,1,1.0,0.4609009999994669
817,14,0.5,0.25,35.0,1,1.0,0.575601000000006
818,14,0.5,0.0,35.0,-1,0.0,0.37160099999982776
819,14,0.6,0.0,35.0,1,1.0,0.5486009999999624
820,14,0.5,1.0,-35.0,-1,1.0,0.27490099999977247
821,14,0.5,0.25,35.0,-1,0.0,0.9131009999996422
822,14,0.5,0.25,-35.0,-1,1.0,0.32790099999965605
823,14,0.5,0.25,-35.0,-1,1.0,0.7070009999997637
824,14,0.5,0.125,-35.0,-1,1.0,0.36270099999956074
825,14,0.5,0.0625,35.0,1,1.0,2.0380010000003494
826,14,0.5,0.125,35.0,-1,0.0,7.603401000001213
827,14,0.5,0.125,35.0,-1,0.0,58.07270000000062
828,14,0.5,0.25,-35.0,1,0.0,0.7001010000003589
829,14,0.3,0.25,-35.0,-1,1.0,0.29500000000007276
830,14,0.5,1.0,35.0,1,1.0,4.7346010000001115
831,14,0.5,0.0625,-35.0,1,0.0,3.8444009999993796
832,14,0.5,0.25,35.0,-1,0.0,2.0091010000005554
833,14,0.5,0.0625,-35.0,-1,1.0,0.37640100000044185
834,14,0.5,0.0625,35.0,-1,0.0,0.2148010000000795
835,14,0.5,0.125,35.0,1,1.0,5.163601000000199
836,14,0.5,0.0,35.0,-1,0.0,11.911301000000094
837,14,0.5,0.25,35.0,-1,0.0,11.592501000000993
838,14,0.5,0.0625,-35.0,-1,1.0,21.16070099999979
839,14,0.5,0.25,35.0,-1,0.0,3.36290100000042
840,14,0.5,0.0625,-35.0,-1,1.0,0.5569010000008348
841,14,0.5,0.125,-35.0,-1,1.0,0.5192009999991569
842,14,0.5,0.0625,35.0,-1,0.0,13.427601000000323
843,14,0.1,0.0625,-35.0,-1,1.0,1.1724010000007183
844,14,0.5,1.0,35.0,1,1.0,2.3606010000012247
845,14,0.5,1.0,-35.0,-1,1.0,0.24180100000103266
1,15,0.5,1.0,-35.0,-1,1.0,0.1999000000000004
2,15,0.5,1.0,35.0,1,1.0,0.4511010000000004
3,15,0.5,0.125,-35.0,-1,1.0,0.05590100000000042
4,15,0.5,0.25,35.0,-1,0.0,0.05770099999999978
5,15,0.5,0.125,-35.0,-1,1.0,0.9227010000000035
6,15,0.5,0.125,35.0,1,1.0,0.27040099999999967
7,15,0.5,0.0625,-35.0,1,0.0,0.22350099999999884
8,15,0.5,0.125,-35.0,-1,1.0,0.23570100000000238
9,15,0.5,1.0,-35.0,-1,1.0,0.13890099999998995
10,15,0.5,0.0625,-35.0,-1,1.0,0.3325009999999935
11,15,0.5,0.25,-35.0,-1,1.0,0.2658009999999962
12,15,0.5,0.125,35.0,1,1.0,0.3273009999999985
13,15,0.5,0.25,-35.0,-1,1.0,0.21090099999999978
14,15,0.5,0.0,35.0,1,1.0,0.08800099999999844
15,15,0.5,1.0,35.0,1,1.0,0.1912009999999924
16,15,0.5,0.0625,35.0,1,1.0,0.3190010000000001
17,15,0.5,1.0,-35.0,-1,1.0,0.2350009999999969
18,15,0.5,0.0,-35.0,1,0.0,0.3394009999999952
19,15,0.5,0.125,-35.0,-1,1.0,0.15690099999999063
20,15,0.5,0.125,-35.0,-1,1.0,0.10970099999998695
21,15,0.5,0.25,-35.0,-1,1.0,0.2367009999999965
22,15,0.5,0.125,-35.0,-1,1.0,0.21490099999999757
23,15,0.5,1.0,-35.0,1,0.0,0.11390100000001269
24,15,0.5,0.0,35.0,-1,0.0,0.3431010000000043
25,15,0.5,0.25,-35.0,-1,1.0,0.27430100000000834
26,15,0.5,0.0625,-35.0,1,0.0,0.3877999999999986
27,15,0.5,0.0,35.0,1,1.0,0.1766009999999909
28,15,0.5,0.25,35.0,1,1.0,0.30950099999998315
29,15,0.5,0.25,35.0,-1,0.0,0.5839010000000115
30,15,0.5,0.0625,-35.0,-1,1.0,0.240200999999999
31,15,0.5,1.0,-35.0,-1,1.0,0.15820099999999115
32,15,0.5,0.0,-35.0,-1,1.0,0.24790099999999882
33,15,0.5,1.0,35.0,-1,0.0,0.18310100000000773
34,15,0.3,1.0,35.0,1,1.0,0.25560100000001285
35,15,0.5,1.0,35.0,1,1.0,0.29590100000001485
36,15,0.5,0.25,-35.0,1,0.0,0.37960100000000807
37,15,0.5,0.25,35.0,1,1.0,0.3977010000000121
38,15,0.5,1.0,35.0,1,1.0,0.22570100000001503
39,15,0.5,0.125,-35.0,-1,1.0,0.22190100000000257
40,15,0.5,0.125,-35.0,-1,1.0,0.2126010000000349
41,15,0.5,0.25,-35.0,-1,1.0,0.2916010000000142
42,15,0.5,0.0625,-35.0,-1,1.0,0.2846009999999808
43,15,0.5,0.125,-35.0,1,0.0,0.192701000000028
44,15,0.5,0.125,-35.0,-1,1.0,0.23520099999998934
45,15,0.5,1.0,35.0,1,1.0,0.09810100000001398
46,15,0.5,0.25,-35.0,-1,1.0,0.22310100000001398
47,15,0.5,0.0,35.0,-1,0.0,0.8555009999999754
48,15,0.5,0.25,-35.0,-1,1.0,0.23520100000001776
49,15,0.5,1.0,35.0,1,1.0,0.2759010000000046
50,15,0.5,1.0,-35.0,-1,1.0,0.21410100000002785
51,15,0.5,1.0,-35.0,-1,1.0,0.1793010000000379
52,15,0.5,0.0625,35.0,1,1.0,1.2009010000000444
53,15,0.5,0.125,-35.0,-1,1.0,0.22310100000001398
54,15,0.5,0.25,35.0,1,1.0,0.4815010000000086
55,15,0.5,0.25,-35.0,1,0.0,0.07850100000001703
56,15,0.4,0.25,35.0,1,1.0,0.40570100000002185
57,15,0.5,1.0,35.0,1,1.0,0.3331009999999992
58,15,0.5,0.0,-35.0,1,0.0,0.4353010000000097
59,15,0.5,0.0625,35.0,1,1.0,0.2835010000000011
60,15,0.5,0.25,-35.0,-1,1.0,0.2595010000000286
61,15,0.5,0.25,35.0,1,1.0,0.18770000000000664
62,15,0.5,1.0,-35.0,1,0.0,0.15500100000002703
63,15,0.5,0.0,-35.0,-1,1.0,0.13020099999999957
64,15,0.5,0.0625,-35.0,-1,1.0,0.08000100000000998
65,15,0.5,0.0625,-35.0,-1,1.0,0.08610000000001605
66,15,0.5,0.25,35.0,1,1.0,0.11390099999999848
67,15,0.5,0.25,35.0,1,1.0,0.18530100000003813
68,15,0.5,0.125,-35.0,-1,1.0,0.06170099999997092
69,15,0.5,0.25,-35.0,-1,1.0,0.2216009999999642
70,15,0.5,1.0,35.0,1,1.0,0.2748009999999681
71,15,0.5,0.125,-35.0,-1,1.0,0.2256009999999833
72,15,0.5,0.125,35.0,1,1.0,0.1790009999999711
73,15,0.5,0.125,-35.0,1,0.0,2.4888010000000236
74,15,0.5,0.125,-35.0,1,0.0,0.8129009999999539
75,15,0.5,1.0,35.0,1,1.0,0.11600099999992608
76,15,0.5,0.25,35.0,1,1.0,0.3315009999999461
77,15,0.5,0.25,35.0,1,1.0,0.08890100000002121
78,15,0.5,0.125,-35.0,1,0.0,1.6760009999999852
79,15,0.5,0.0625,35.0,1,1.0,0.11810099999996737
80,15,0.5,1.0,-35.0,-1,1.0,0.2052009999999882
81,15,0.5,0.125,35.0,-1,0.0,0.2343010000000163
82,15,0.8,0.125,-35.0,1,0.0,0.26850100000001476
83,15,0.5,1.0,35.0,1,1.0,0.31610099999994645
84,15,0.5,0.0625,-35.0,1,0.0,0.2776010000000042
85,15,0.5,0.0,35.0,-1,0.0,0.22170099999993909
86,15,0.5,0.125,-35.0,-1,1.0,0.24300099999999247
87,15,0.5,0.125,-35.0,-1,1.0,0.21180099999997992
88,15,0.5,0.0625,-35.0,-1,1.0,0.2386009999999601
89,15,0.5,0.25,35.0,1,1.0,0.353100999999981
90,15,0.5,0.25,-35.0,1,0.0,0.09090099999997392
91,15,0.5,0.25,-35.0,1,0.0,0.4352010000000064
92,15,0.5,1.0,-35.0,-1,1.0,0.35820099999995136
93,15,0.5,0.0625,-35.0,-1,1.0,0.3377010000000382
94,15,0.5,0.0625,-35.0,-1,1.0,0.1761009999999601
95,15,0.5,0.0,-35.0,1,0.0,0.6537009999999555
96,15,0.5,0.125,-35.0,-1,1.0,0.30480099999999766
97,15,0.5,1.0,-35.0,-1,1.0,0.10700099999996837
98,15,0.5,0.0625,-35.0,-1,1.0,0.335000999999977
99,15,0.5,0.25,35.0,-1,0.0,0.212400999999943
100,15,0.5,0.0625,-35.0,-1,1.0,0.43510099999997465
101,15,0.5,0.25,35.0,-1,0.0,0.23080099999998538
102,15,0.1,0.25,35.0,1,1.0,0.4480010000000334
103,15,0.5,1.0,35.0,1,1.0,0.6016009999999596
104,15,0.5,0.25,35.0,1,1.0,3.631300999999951
105,15,0.5,0.125,35.0,1,1.0,0.5226009999999519
106,15,0.5,1.0,35.0,1,1.0,0.3154010000000085
107,15,0.5,1.0,35.0,1,1.0,1.0814009999999712
108,15,0.5,0.0625,-35.0,1,0.0,0.3080009999999902
109,15,0.5,0.125,35.0,1,1.0,0.48030099999994036
110,15,0.5,0.25,-35.0,-1,1.0,0.19880100000000311
111,15,0.5,0.125,35.0,1,1.0,0.38880100000000084
112,15,0.5,0.0,-35.0,-1,1.0,0.8370009999999866
113,15,0.5,1.0,35.0,-1,0.0,0.09600100000000111
114,15,0.5,0.0625,-35.0,-1,1.0,0.32700099999999566
115,15,0.5,0.0625,-35.0,1,0.0,0.41290099999997665
116,15,0.5,0.125,35.0,1,1.0,0.2864010000000121
117,15,0.5,1.0,35.0,1,1.0,0.2941009999999551
118,15,0.5,0.0625,-35.0,1,0.0,0.3347009999999955
119,15,0.5,0.25,35.0,1,1.0,0.36630099999996446
120,15,0.5,0.125,35.0,1,1.0,0.3590009999999211
121,15,0.5,0.0625,35.0,1,1.0,0.3471010000000092
122,15,0.5,0.0,35.0,-1,0.0,2.301701000000037
123,15,0.7,0.0,-35.0,1,0.0,0.4254009999999653
124,15,0.5,1.0,35.0,1,1.0,0.3921010000000251
125,15,0.5,1.0,-35.0,-1,1.0,0.2263009999999781
126,15,0.5,0.25,35.0,1,1.0,0.45590100000003986
127,15,0.5,0.0625,35.0,1,1.0,0.19160099999999147
128,15,0.5,0.0,-35.0,1,0.0,0.22850099999993745
129,15,0.5,0.25,35.0,1,1.0,0.6739009999998871
130,15,0.5,1.0,35.0,1,1.0,0.310600999999906
131,15,0.5,0.0,35.0,1,1.0,0.35530100000005405
132,15,0.5,1.0,35.0,1,1.0,0.23330099999986942
133,15,0.5,0.0,-35.0,1,0.0,0.5240009999999984
134,15,0.5,0.25,35.0,1,1.0,0.5052009999999427
135,15,0.5,0.125,35.0,1,1.0,0.2896009999999478
136,15,0.5,1.0,-35.0,-1,1.0,0.4306009999999105
137,15,0.5,0.25,-35.0,-1,1.0,0.27520099999992453
138,15,0.5,0.0625,-35.0,1,0.0,0.6251009999999724
139,15,0.5,0.0625,-35.0,-1,1.0,1.4587010000000191
140,15,0.5,0.0,-35.0,-1,1.0,0.3943010000000413
141,15,0.5,1.0,-35.0,-1,1.0,0.17200100000002294
142,15,0.5,0.0,35.0,1,1.0,3.6435010000000148
143,15,0.5,0.25,35.0,1,1.0,0.16470099999992271
144,15,0.5,0.0625,-35.0,1,0.0,0.06630100000006678
145,15,0.5,0.125,35.0,1,1.0,0.5293010000000322
146,15,0.5,0.0625,35.0,1,1.0,0.09470099999987269
147,15,0.5,0.0625,-35.0,1,0.0,0.10300100000006296
148,15,0.5,0.0,35.0,1,1.0,0.5025009999999384
149,15,0.5,0.25,35.0,-1,0.0,1.2064009999999143
150,15,0.7,0.25,-35.0,-1,1.0,0.44010100000002694
151,15,0.5,1.0,35.0,1,1.0,0.22510099999988142
152,15,0.5,0.125,-35.0,-1,1.0,0.22180100000002767
153,15,0.5,0.0625,-35.0,1,0.0,0.24250099999994745
154,15,0.7,0.0625,35.0,1,1.0,0.26070100000004004
155,15,0.5,1.0,35.0,1,1.0,0.4656009999999924
156,15,0.5,0.25,35.0,1,1.0,0.34110099999998056
157,15,0.5,0.125,35.0,1,1.0,0.34300099999995837
158,15,0.5,1.0,-35.0,-1,1.0,0.26710099999991144
159,15,0.5,0.0625,-35.0,1,0.0,0.36510100000009515
160,15,0.5,0.0625,-35.0,1,0.0,0.16060099999992872
161,15,0.5,0.25,-35.0,-1,1.0,0.26110099999993963
162,15,0.5,0.25,35.0,1,1.0,0.32710099999997055
163,15,0.5,0.0625,35.0,1,1.0,0.2418009999998958
164,15,0.5,0.25,-35.0,-1,1.0,0.2801009999998314
165,15,0.5,0.0,35.0,1,1.0,0.21120099999996
166,15,0.5,1.0,35.0,1,1.0,0.31950099999994563
167,15,0.5,0.25,-35.0,-1,1.0,0.4205009999999447
168,15,0.5,0.0625,-35.0,-1,1.0,0.22380099999998038
169,15,0.5,1.0,35.0,-1,0.0,0.16200100000003204
170,15,0.5,0.125,35.0,-1,0.0,0.411000999999942
171,15,0.4,0.125,-35.0,-1,1.0,0.5240010000001121
172,15,0.5,1.0,-35.0,-1,1.0,0.1104010000000244
173,15,0.5,1.0,-35.0,-1,1.0,0.17600100000004204
174,15,0.5,0.0,35.0,1,1.0,0.30530099999998583
175,15,0.5,1.0,35.0,1,1.0,0.12340099999994436
176,15,0.5,0.0625,35.0,1,1.0,0.36340100000006714
177,15,0.5,0.0625,-35.0,-1,1.0,0.41010099999994054
178,15,0.5,0.25,-35.0,-1,1.0,0.15600099999994654
179,15,0.5,0.0625,35.0,1,1.0,0.3255010000000311
180,15,0.5,0.125,-35.0,-1,1.0,0.24850099999991926
181,15,0.5,0.25,35.0,1,1.0,0.46060099999988324
182,15,0.5,0.125,-35.0,-1,1.0,0.6587010000000646
183,15,0.5,0.0625,35.0,1,1.0,0.3236010000000533
184,15,0.5,1.0,35.0,1,1.0,0.22420099999999366
185,15,0.5,0.25,35.0,1,1.0,0.08380099999999402
186,15,0.5,1.0,35.0,1,1.0,0.36350100000004204
187,15,0.5,1.0,-35.0,-1,1.0,0.35720100000003185
188,15,0.5,0.25,35.0,-1,0.0,0.32570000000009713
189,15,0.5,0.0625,-35.0,1,0.0,0.4774009999999862
190,15,0.5,0.25,35.0,1,1.0,0.36940099999992526
191,15,0.5,0.0,-35.0,1,0.0,0.23100099999999202
192,15,0.5,0.125,-35.0,-1,1.0,0.23920099999998
193,15,0.5,0.25,35.0,1,1.0,0.305800999999974
194,15,0.5,0.125,-35.0,-1,1.0,0.8022009999999682
195,15,0.5,0.125,35.0,1,1.0,0.3924009999999498
196,15,0.5,0.25,35.0,1,1.0,0.2816009999999096
197,15,0.5,1.0,-35.0,-1,1.0,0.3689000000000533
198,15,0.5,0.0625,-35.0,1,0.0,0.3580009999999447
199,15,0.7,0.0625,-35.0,1,0.0,2.101900999999998
200,15,0.5,1.0,35.0,1,1.0,0.3226009999999633
201,15,0.5,0.125,35.0,1,1.0,0.2854009999999789
202,15,0.5,0.0625,35.0,-1,0.0,2.860100999999986
203,15,0.5,0.125,-35.0,1,0.0,0.50970099999995
204,15,0.5,0.125,-35.0,-1,1.0,0.2982009999999491
205,15,0.5,0.0625,35.0,1,1.0,0.3100009999999429
206,15,0.5,0.125,-35.0,-1,1.0,0.2918010000000777
207,15,0.5,0.25,-35.0,-1,1.0,0.4608009999999467
208,15,0.5,0.0,-35.0,-1,1.0,0.6479009999999334
209,15,0.5,0.125,35.0,1,1.0,0.26470100000005914
210,15,0.5,0.0625,35.0,1,1.0,0.855301000000054
211,15,0.5,1.0,35.0,1,1.0,0.40449999999998454
212,15,0.5,0.125,-35.0,-1,1.0,1.0070009999999456
213,15,0.5,0.0625,35.0,1,1.0,0.22590099999990798
214,15,0.5,0.0,-35.0,1,0.0,0.36380099999996673
215,15,0.5,0.0,35.0,1,1.0,0.44400099999995746
216,15,0.5,0.25,-35.0,-1,1.0,0.1953009999999722
217,15,0.5,0.25,35.0,1,1.0,0.12510099999997237
218,15,0.5,1.0,-35.0,-1,1.0,0.07150100000001203
219,15,0.5,0.0,-35.0,1,0.0,0.43030099999998583
220,15,0.5,0.0625,35.0,1,1.0,0.42620099999999184
221,15,0.5,0.125,-35.0,-1,1.0,0.2961010000000215
222,15,0.5,0.125,35.0,1,1.0,0.3721009999999296
223,15,0.5,0.125,-35.0,-1,1.0,1.3428010000000086
224,15,0.5,0.125,35.0,1,1.0,0.3800010000001066
225,15,0.5,0.125,-35.0,-1,1.0,0.053100999999969645
226,15,0.5,0.25,35.0,1,1.0,0.32080099999996037
227,15,0.5,0.0,35.0,1,1.0,0.17630099999996673
228,15,0.5,0.0625,-35.0,-1,1.0,0.040400999999974374
229,15,0.5,1.0,35.0,1,1.0,0.40410099999996874
230,15,0.5,1.0,35.0,1,1.0,0.44040099999995164
231,15,0.5,0.25,-35.0,-1,1.0,0.26420100000007096
232,15,0.5,0.0,35.0,1,1.0,0.445500999999922
233,15,0.5,0.0625,-35.0,-1,1.0,0.3081009999998514
234,15,0.5,0.0,35.0,-1,0.0,0.26250100000004295
235,15,0.5,0.0,35.0,1,1.0,0.18250100000000202
236,15,0.5,0.0625,35.0,-1,0.0,0.16270099999997
237,15,0.5,0.0625,35.0,1,1.0,0.10120099999994636
238,15,0.5,0.0625,-35.0,-1,1.0,0.2961010000001352
239,15,0.5,0.125,35.0,1,1.0,0.3925010000000384
240,15,0.5,0.0625,35.0,1,1.0,0.3644009999999298
241,15,0.5,0.25,35.0,1,1.0,0.37720100000001366
242,15,0.5,0.125,35.0,1,1.0,0.2598000000000411
243,15,0.5,0.25,-35.0,-1,1.0,0.25840099999993527
244,15,0.5,0.0625,-35.0,1,0.0,0.2798010000000204
245,15,0.5,0.0625,-35.0,-1,1.0,0.4153009999999995
246,15,0.5,0.125,35.0,1,1.0,0.3481009999999287
247,15,0.5,0.125,-35.0,-1,1.0,0.34660100000019156
248,15,0.5,1.0,35.0,-1,0.0,0.15950099999986378
249,15,0.5,0.125,-35.0,1,0.0,0.390201000000161
250,15,0.6,0.125,35.0,-1,0.0,0.168201000000181
251,15,0.5,1.0,35.0,1,1.0,0.29430100000013226
252,15,0.5,0.0,35.0,1,1.0,0.3192010000002483
253,15,0.5,0.25,35.0,1,1.0,0.46190100000012535
254,15,0.5,1.0,35.0,-1,0.0,0.24390100000005077
255,15,0.5,0.25,-35.0,-1,1.0,0.05610100000012608
256,15,0.5,0.25,-35.0,-1,1.0,0.20120100000008279
257,15,0.5,0.0625,-35.0,1,0.0,1.5443010000001323
258,15,0.5,0.0625,-35.0,-1,1.0,0.7056009999998878
259,15,0.5,0.25,35.0,1,1.0,0.4613010000000486
260,15,0.5,0.0625,35.0,1,1.0,0.4993010000000595
261,15,0.5,0.125,35.0,1,1.0,0.46200100000010025
262,15,0.5,0.0625,35.0,1,1.0,0.35720100000025923
263,15,0.5,0.0625,-35.0,1,0.0,0.4158010000003287
264,15,0.6,0.0625,35.0,1,1.0,0.1872009999999591
265,15,0.5,1.0,-35.0,-1,1.0,0.27640100000007806
266,15,0.5,1.0,35.0,1,1.0,0.4872009999999136
267,15,0.5,0.0625,35.0,1,1.0,0.3267009999999573
268,15,0.5,0.25,-35.0,-1,1.0,0.27800100000013117
269,15,0.5,0.0,35.0,1,1.0,0.23620100000016464
270,15,0.5,0.25,35.0,1,1.0,0.34130100000015773
271,15,0.5,0.25,35.0,1,1.0,0.32070100000009916
272,15,0.5,0.0625,-35.0,1,0.0,0.3194010000001981
273,15,0.5,0.0625,-35.0,1,0.0,0.41170100000022103
274,15,0.5,0.0,35.0,1,1.0,0.38350100000002385
275,15,0.5,0.25,-35.0,-1,1.0,0.9862010000001646
276,15,0.5,0.0625,-35.0,1,0.0,0.2150010000000293
277,15,0.5,0.0625,35.0,1,1.0,0.43340100000023085
278,15,0.5,0.125,-35.0,1,0.0,0.4989010000001599
279,15,0.5,0.25,-35.0,-1,1.0,0.3022009999999682
280,15,0.5,0.0625,-35.0,1,0.0,0.36100099999998747
281,15,0.8,0.0625,-35.0,1,0.0,0.42010099999993145
282,15,0.5,1.0,-35.0,-1,1.0,0.26830100000006496
283,15,0.5,0.125,35.0,1,1.0,0.28720099999986815
284,15,0.5,0.25,35.0,1,1.0,0.3631009999999151
285,15,0.5,0.25,-35.0,-1,1.0,0.23210100000005696
286,15,0.5,0.125,-35.0,-1,1.0,0.3336010000000442
287,15,0.5,0.0,35.0,1,1.0,0.5266010000000279
288,15,0.5,0.25,35.0,1,1.0,2.1718009999999595
289,15,0.5,0.25,35.0,1,1.0,0.40390000000024884
290,15,0.5,0.0,-35.0,1,0.0,2.489700999999968
291,15,0.7,0.0,-35.0,1,0.0,0.2873010000002978
292,15,0.5,1.0,35.0,1,1.0,0.555800999999974
293,15,0.5,0.125,-35.0,-1,1.0,0.6007010000000719
294,15,0.5,0.25,35.0,1,1.0,0.5624010000001363
295,15,0.5,1.0,-35.0,-1,1.0,0.2551010000001952
296,15,0.5,0.0,35.0,-1,0.0,2.963901000000078
297,15,0.7,0.0,-35.0,1,0.0,0.3521009999999478
298,15,0.5,1.0,-35.0,-1,1.0,0.2533010000001923
299,15,0.5,0.0625,-35.0,1,0.0,0.30880100000013044
300,15,0.5,0.25,-35.0,-1,1.0,0.31080100000008315
301,15,0.5,0.25,35.0,1,1.0,0.41590100000007624
302,15,0.5,0.0,-35.0,1,0.0,0.4248010000001159
303,15,0.5,0.125,35.0,1,1.0,0.3701009999999769
304,15,0.5,0.125,35.0,1,1.0,0.3483009999999922
305,15,0.5,0.0625,35.0,1,1.0,0.3174010000002454
306,15,0.5,0.125,35.0,1,1.0,2.6258009999999103
307,15,0.5,0.0625,-35.0,1,0.0,0.3114010000001599
308,15,0.8,0.0625,-35.0,1,0.0,0.36970100000007733
309,15,0.5,1.0,35.0,1,1.0,0.4416000000001077
310,15,0.5,0.0,35.0,1,1.0,0.3404000000000451
311,15,0.5,0.0,35.0,1,1.0,0.1727010000001883
312,15,0.5,0.0625,-35.0,1,0.0,0.44420100000002094
313,15,0.5,0.125,-35.0,-1,1.0,0.34350100000006023
314,15,0.5,1.0,-35.0,-1,1.0,0.2085010000002967
315,15,0.5,0.25,35.0,1,1.0,3.4549010000000635
316,15,0.5,0.0625,35.0,1,1.0,4.276601000000255
317,15,0.5,1.0,-35.0,-1,1.0,0.22750100000007478
318,15,0.5,0.0625,35.0,1,1.0,0.8695010000001275
319,15,0.5,0.25,-35.0,-1,1.0,0.5688010000001213
320,15,0.5,1.0,35.0,1,1.0,0.5372010000000955
321,15,0.5,0.125,35.0,1,1.0,0.37990100000001803
322,15,0.5,1.0,-35.0,-1,1.0,0.40200099999992744
323,15,0.5,0.25,35.0,1,1.0,0.3080010000001039
324,15,0.5,0.125,35.0,1,1.0,4.273601000000099
325,15,0.5,1.0,-35.0,-1,1.0,0.24140100000022358
326,15,0.5,0.125,35.0,1,1.0,0.4068010000000868
327,15,0.5,0.25,35.0,1,1.0,0.3125
328,15,0.5,0.0,35.0,1,1.0,0.4007010000000264
329,15,0.5,0.25,-35.0,-1,1.0,0.3861010000000533
330,15,0.5,0.0625,35.0,-1,0.0,0.32090100000004895
331,15,0.5,0.0625,-35.0,1,0.0,0.3266009999999824
332,15,0.5,0.0,35.0,1,1.0,0.31500100000016573
333,15,0.5,0.25,35.0,1,1.0,1.9807000000000698
334,15,0.5,0.0625,-35.0,1,0.0,0.44830099999990125
335,15,0.5,0.125,35.0,1,1.0,0.3203009999999722
336,15,0.5,0.0625,-35.0,1,0.0,0.24860100000023522
337,15,0.8,0.0625,-35.0,1,0.0,0.5608010000000831
338,15,0.5,1.0,35.0,1,1.0,0.42610100000001694
339,15,0.5,0.125,-35.0,1,0.0,0.2651010000001861
340,15,0.5,0.125,-35.0,1,0.0,0.42660099999989143
341,15,0.5,0.125,-35.0,-1,1.0,0.38200099999994563
342,15,0.5,0.125,-35.0,-1,1.0,0.27400100000022576
343,15,0.5,0.0,-35.0,1,0.0,0.3598010000000613
344,15,0.5,0.0625,-35.0,1,0.0,0.46150100000022576
345,15,0.5,0.25,35.0,1,1.0,0.44390100000009625
346,15,0.5,1.0,-35.0,-1,1.0,0.6098010000000613
347,15,0.5,1.0,-35.0,-1,1.0,0.26820100000009006
348,15,0.5,0.25,-35.0,-1,1.0,0.2534009999999398
349,15,0.5,0.0,35.0,-1,0.0,1.0421010000000024
350,15,0.5,0.25,35.0,1,1.0,0.44990100000018174
351,15,0.5,0.25,-35.0,-1,1.0,0.24930100000028688
352,15,0.5,0.0625,35.0,1,1.0,0.3186009999999442
353,15,0.5,0.125,-35.0,-1,1.0,0.6762010000002192
354,15,0.5,0.0625,-35.0,1,0.0,0.5818010000002687
355,15,0.5,0.0625,-35.0,-1,1.0,0.5703009999999722
356,15,0.5,0.0625,35.0,1,1.0,0.5356010000002698
357,15,0.5,0.0,-35.0,1,0.0,0.5839010000001963
358,15,0.5,0.0,-35.0,1,0.0,0.45560100000011516
359,15,0.5,1.0,-35.0,-1,1.0,0.23450099999990925
360,15,0.5,0.125,35.0,1,1.0,0.4567010000000664
361,15,0.5,0.25,-35.0,-1,1.0,0.31920100000002094
362,15,0.5,0.125,-35.0,1,0.0,2.3686009999998987
363,15,0.5,0.0625,-35.0,-1,1.0,0.36300100000016755
364,15,0.5,0.125,35.0,1,1.0,0.24650100000008024
365,15,0.5,0.25,-35.0,-1,1.0,0.26070099999992635
366,15,0.5,0.25,-35.0,-1,1.0,0.23230100000000675
367,15,0.5,0.125,-35.0,-1,1.0,0.5986009999999169
368,15,0.5,1.0,35.0,-1,0.0,0.2535010000001421
369,15,0.5,0.125,35.0,1,1.0,0.2924009999999271
370,15,0.5,0.125,-35.0,-1,1.0,0.39770099999986996
371,15,0.5,0.125,35.0,1,1.0,1.5104010000000017
372,15,0.5,1.0,35.0,1,1.0,0.5523010000001705
373,15,0.5,0.125,-35.0,-1,1.0,0.6008010000000468
374,15,0.5,1.0,-35.0,-1,1.0,0.20610100000021703
375,15,0.5,0.0625,-35.0,1,0.0,0.8151010000001406
376,15,0.5,0.25,35.0,1,1.0,0.2898009999998976
377,15,0.5,1.0,-35.0,-1,1.0,0.21930100000031416
378,15,0.5,0.0,35.0,1,1.0,0.36430100000029597
379,15,0.5,1.0,35.0,1,1.0,0.2735010000001239
380,15,0.5,0.25,35.0,1,1.0,0.21530100000018138
381,15,0.5,1.0,-35.0,-1,1.0,0.2776010000000042
382,15,0.5,1.0,-35.0,1,0.0,0.10280100000022685
383,15,0.5,0.25,-35.0,-1,1.0,0.2315009999999802
384,15,0.5,0.25,35.0,1,1.0,0.2610010000000784
385,15,0.5,0.0,35.0,1,1.0,0.575601000000006
386,15,0.5,0.125,-35.0,1,0.0,0.3237010000000282
387,15,0.5,0.125,-35.0,-1,1.0,0.3526010000000497
388,15,0.5,1.0,-35.0,-1,1.0,0.2113010000000486
389,15,0.5,1.0,35.0,1,1.0,0.48380100000008497
390,15,0.5,0.25,-35.0,-1,1.0,0.2689010000001417
391,15,0.5,0.125,35.0,-1,0.0,0.2918010000000777
392,15,0.5,0.0625,-35.0,-1,1.0,0.9598010000001977
393,15,0.5,0.125,35.0,1,1.0,0.31900100000007114
394,15,0.5,0.125,35.0,1,1.0,1.107001000000082
395,15,0.5,0.0625,35.0,-1,0.0,0.08930100000020502
396,15,0.5,0.0625,-35.0,1,0.0,0.47220100000004095
397,15,0.5,0.125,-35.0,1,0.0,0.2998010000001159
398,15,0.5,0.125,-35.0,-1,1.0,0.4017010000002301
399,15,0.5,1.0,-35.0,1,0.0,0.10760100000015882
400,15,0.5,0.0625,-35.0,1,0.0,0.11950100000012753
401,15,0.5,0.0625,-35.0,1,0.0,0.15520100000003367
402,15,0.5,0.125,35.0,1,1.0,0.9674009999998816
403,15,0.5,0.125,-35.0,-1,1.0,0.27270100000009734
404,15,0.5,0.0,35.0,1,1.0,0.48220100000003185
405,15,0.5,1.0,35.0,1,1.0,0.5806009999998878
406,15,0.5,0.25,-35.0,-1,1.0,0.21980100000018865
407,15,0.5,1.0,-35.0,-1,1.0,0.26500099999998383
408,15,0.5,0.25,35.0,1,1.0,0.4675010000000839
409,15,0.5,0.0625,-35.0,1,0.0,0.2595010000000002
410,15,0.5,0.125,-35.0,1,0.0,0.2045010000001639
411,15,0.5,0.0625,-35.0,1,0.0,0.3334010000000944
412,15,0.5,0.125,-35.0,-1,1.0,1.7022000000001754
413,15,0.5,0.0625,-35.0,1,0.0,0.38720100000000457
414,15,0.5,0.125,-35.0,-1,1.0,0.2421999999999116
415,15,0.5,0.0625,-35.0,-1,1.0,0.24480100000005223
416,15,0.5,0.25,-35.0,-1,1.0,0.21060099999999693
417,15,0.5,0.25,-35.0,-1,1.0,0.2689010000001417
418,15,0.5,0.25,35.0,1,1.0,0.32710100000008424
419,15,0.5,0.0,35.0,1,1.0,0.3131010000001879
420,15,0.5,0.0,-35.0,1,0.0,0.2914009999999507
421,15,0.5,0.0625,35.0,1,1.0,0.380301000000145
422,15,0.5,0.25,-35.0,-1,1.0,0.19910100000015518
423,15,0.5,0.0625,-35.0,1,0.0,0.544601000000057
424,15,0.5,0.0,-35.0,1,0.0,0.3598010000000613
425,15,0.5,0.125,-35.0,-1,1.0,0.35500100000012935
426,15,0.5,0.125,35.0,1,1.0,0.411200000000008
427,15,0.5,0.0625,-35.0,-1,1.0,0.27620100000012826
428,15,0.5,0.0625,35.0,1,1.0,0.3580010000002858
429,15,0.5,0.25,35.0,1,1.0,0.48390100000005987
430,15,0.5,0.25,-35.0,-1,1.0,0.23230100000023413
431,15,0.5,0.25,35.0,1,1.0,0.5048010000002705
432,15,0.5,0.0625,-35.0,-1,1.0,0.3063010000000759
433,15,0.5,0.125,35.0,1,1.0,0.26240100000018174
434,15,0.5,0.0,-35.0,-1,1.0,5.218300999999883
435,15,0.5,0.0625,35.0,1,1.0,0.3619009999999889
436,15,0.5,0.25,-35.0,-1,1.0,0.2204010000002654
437,15,0.5,0.25,35.0,1,1.0,0.489900999999918
438,15,0.5,1.0,-35.0,-1,1.0,0.3783010000001923
439,15,0.5,0.0,-35.0,1,0.0,0.3544010000000526
440,15,0.5,0.0625,35.0,1,1.0,0.18600100000003295
441,15,0.5,0.25,-35.0,-1,1.0,0.29830100000026505
442,15,0.5,0.125,-35.0,-1,1.0,0.34090100000003076
443,15,0.5,0.125,35.0,1,1.0,2.043001000000004
444,15,0.5,0.0,35.0,-1,0.0,0.37470100000041384
445,15,0.5,0.25,-35.0,-1,1.0,0.2899009999998725
446,15,0.5,0.0625,35.0,1,1.0,0.5961010000000897
447,15,0.5,0.125,-35.0,-1,1.0,0.307901000000129
448,15,0.5,0.125,-35.0,1,0.0,0.679501000000073
449,15,0.5,0.0625,-35.0,1,0.0,0.3318010000000413
450,15,0.5,0.0625,-35.0,1,0.0,0.36310100000014245
451,15,0.5,1.0,-35.0,-1,1.0,0.23220100000025923
452,15,0.5,0.125,-35.0,-1,1.0,0.8349010000001726
453,15,0.5,0.0625,35.0,1,1.0,0.4931010000000242
454,15,0.5,0.25,35.0,1,1.0,0.3888009999998303
455,15,0.5,0.0625,35.0,1,1.0,0.40100100000017846
456,15,0.5,0.0625,-35.0,1,0.0,0.3562010000000555
457,15,0.5,0.0625,35.0,-1,0.0,0.3051010000001497
458,15,0.5,0.0625,-35.0,-1,1.0,0.9232010000002902
459,15,0.5,1.0,-35.0,-1,1.0,0.2090010000001712
460,15,0.5,0.0625,-35.0,1,0.0,0.3784010000001672
461,15,0.5,0.125,-35.0,-1,1.0,0.21650100000010752
462,15,0.5,0.25,-35.0,-1,1.0,0.23190100000010716
463,15,0.5,0.125,-35.0,-1,1.0,0.26430100000015955
464,15,0.5,1.0,-35.0,-1,1.0,0.1966010000001006
465,15,0.5,0.25,35.0,1,1.0,0.498801000000185
466,15,0.5,0.125,-35.0,-1,1.0,1.4042010000002847
467,15,0.5,0.0625,35.0,1,1.0,0.5619010000000344
468,15,0.5,0.125,-35.0,-1,1.0,0.1842010000002574
469,15,0.5,0.0625,-35.0,-1,1.0,0.21970100000021375
470,15,0.5,1.0,-35.0,-1,1.0,0.18519999999989523
471,15,0.5,0.25,35.0,1,1.0,0.3074010000002545
472,15,0.5,0.25,-35.0,-1,1.0,0.2654010000001108
473,15,0.5,0.25,35.0,1,1.0,0.25800100000014936
474,15,0.5,0.125,-35.0,-1,1.0,2.347301000000243
475,15,0.5,1.0,-35.0,-1,1.0,0.23180100000013226
476,15,0.5,0.25,-35.0,-1,1.0,0.2574010000003
477,15,0.5,1.0,35.0,1,1.0,1.0766010000002098
478,15,0.5,0.25,35.0,-1,0.0,0.25800100000037673
479,15,0.3,0.25,-35.0,-1,1.0,0.18660100000033708
480,15,0.5,1.0,35.0,1,1.0,0.2618000000002212
481,15,0.5,0.125,-35.0,-1,1.0,0.2903009999999995
482,15,0.5,0.125,35.0,1,1.0,0.27620100000012826
483,15,0.5,0.0625,35.0,1,1.0,0.2148010000000795
484,15,0.5,0.0625,-35.0,1,0.0,0.4063010000002123
485,15,0.5,0.25,35.0,1,1.0,0.48190100000010716
486,15,0.5,0.25,-35.0,-1,1.0,0.434601000000157
487,15,0.5,0.125,-35.0,-1,1.0,1.0563010000000759
488,15,0.5,0.125,-35.0,-1,1.0,0.30440100000009807
489,15,0.5,0.25,-35.0,-1,1.0,0.4301010000001497
490,15,0.5,0.25,35.0,1,1.0,0.35270100000025195
491,15,0.5,0.25,35.0,1,1.0,0.4565010000001166
492,15,0.5,0.125,-35.0,-1,1.0,0.1854009999997288
493,15,0.5,0.125,-35.0,-1,1.0,0.7647009999996044
494,15,0.5,0.0625,-35.0,-1,1.0,0.29290099999980157
495,15,0.5,1.0,-35.0,-1,1.0,0.23230100000000675
496,15,0.5,1.0,35.0,1,1.0,0.4145010000002003
497,15,0.5,0.0625,35.0,-1,0.0,0.2734009999999216
498,15,0.5,0.25,-35.0,-1,1.0,0.24860099999978047
499,15,0.5,0.0625,35.0,1,1.0,0.14440099999956146
500,15,0.5,0.125,35.0,1,1.0,2.996201000000383
501,15,0.5,0.0,-35.0,1,0.0,0.45760100000006787
502,15,0.5,0.125,-35.0,-1,1.0,0.3392009999997754
503,15,0.5,0.0,35.0,1,1.0,0.37820099999953527
504,15,0.5,0.25,-35.0,1,0.0,0.07370099999980084
505,15,0.6,0.25,35.0,1,1.0,0.3427009999995789
506,15,0.5,1.0,35.0,1,1.0,0.36130099999991216
507,15,0.5,0.0,35.0,1,1.0,0.41730099999949744
508,15,0.5,0.25,-35.0,-1,1.0,0.11920099999997547
509,15,0.5,0.125,35.0,-1,0.0,0.1319010000001981
510,15,0.7,0.125,-35.0,-1,1.0,0.07040099999994709
511,15,0.5,1.0,-35.0,-1,1.0,0.2658999999998741
512,15,0.5,0.0625,-35.0,-1,1.0,0.3542010000001028
513,15,0.5,0.0,35.0,-1,0.0,0.18020099999966988
514,15,0.4,0.0,35.0,1,1.0,0.3655009999997674
515,15,0.5,1.0,35.0,1,1.0,0.28710099999989325
516,15,0.5,0.25,35.0,1,1.0,0.3659010000001217
517,15,0.5,0.0625,35.0,1,1.0,0.29420100000015736
518,15,0.5,1.0,35.0,1,1.0,1.249500999999782
519,15,0.5,0.0625,-35.0,1,0.0,1.0151009999999587
520,15,0.6,0.0625,-35.0,1,0.0,0.27030100000001767
521,15,0.5,1.0,-35.0,-1,1.0,0.21180099999992308
522,15,0.5,0.125,35.0,1,1.0,0.2878009999999449
523,15,0.5,1.0,35.0,1,1.0,0.29980099999966114
524,15,0.5,0.125,35.0,1,1.0,0.2851009999994858
525,15,0.5,0.125,35.0,-1,0.0,1.277700999999979
526,15,0.5,0.25,35.0,1,1.0,0.508600999999544
527,15,0.5,0.25,35.0,1,1.0,0.3980009999995673
528,15,0.5,0.25,35.0,1,1.0,0.24660099999982776
529,15,0.5,0.0625,-35.0,-1,1.0,0.2358009999998103
530,15,0.5,0.125,-35.0,-1,1.0,0.24790100000018356
531,15,0.5,0.125,35.0,1,1.0,0.4098009999997885
532,15,0.5,1.0,35.0,1,1.0,0.31130099999973027
533,15,0.5,0.125,-35.0,1,0.0,0.3329009999997652
534,15,0.7,0.125,-35.0,1,0.0,0.45090099999970334
535,15,0.5,1.0,35.0,1,1.0,0.3765010000001894
536,15,0.5,1.0,35.0,1,1.0,0.31380099999978484
537,15,0.5,0.125,35.0,1,1.0,0.6364009999997506
538,15,0.5,1.0,35.0,1,1.0,0.098500999999942
539,15,0.5,0.0625,35.0,1,1.0,0.19420099999979357
540,15,0.5,0.25,35.0,1,1.0,0.27250099999992017
541,15,0.5,0.0,35.0,-1,0.0,1.0320010000000366
542,15,0.5,0.25,-35.0,-1,1.0,0.2900009999998474
543,15,0.5,0.0,35.0,1,1.0,0.3426009999998314
544,15,0.5,0.0625,35.0,1,1.0,0.33400099999971644
545,15,0.5,0.25,-35.0,-1,1.0,0.2533010000001923
546,15,0.5,0.0625,-35.0,-1,1.0,0.3295010000001639
547,15,0.5,0.0625,35.0,1,1.0,3.1246009999995294
548,15,0.5,1.0,35.0,1,1.0,0.40920100000039383
549,15,0.5,0.125,-35.0,1,0.0,0.4416009999999915
550,15,0.5,0.125,-35.0,1,0.0,0.40680099999963204
551,15,0.5,0.0625,-35.0,1,0.0,0.24220100000002276
552,15,0.5,0.0625,35.0,1,1.0,1.9471009999997477
553,15,0.5,1.0,35.0,1,1.0,0.27260100000012244
554,15,0.5,1.0,-35.0,-1,1.0,0.27460100000007515
555,15,0.5,0.125,-35.0,-1,1.0,0.3103009999999813
556,15,0.5,1.0,35.0,-1,0.0,0.2890009999996437
557,15,0.5,0.0625,-35.0,-1,1.0,0.5939010000001872
558,15,0.5,0.0625,-35.0,1,0.0,0.3687009999998736
559,15,0.6,0.0625,-35.0,-1,1.0,0.2937000000001717
560,15,0.5,1.0,-35.0,-1,1.0,0.19560099999989689
561,15,0.5,1.0,35.0,1,1.0,0.4112009999998918
562,15,0.5,1.0,35.0,1,1.0,0.3028009999998176
563,15,0.5,1.0,-35.0,-1,1.0,0.2556009999998423
564,15,0.5,1.0,35.0,1,1.0,0.5340009999995345
565,15,0.5,0.25,35.0,1,1.0,0.5999010000000453
566,15,0.5,0.0,35.0,-1,0.0,1.0727010000000519
567,15,0.5,0.0625,35.0,-1,0.0,0.5939009999997324
568,15,0.5,0.125,35.0,1,1.0,0.5634009999998852
569,15,0.5,0.0625,35.0,1,1.0,0.08800099999962185
570,15,0.5,0.0,-35.0,-1,1.0,2.0832009999999173
571,15,0.5,0.0625,-35.0,1,0.0,0.2888009999996939
572,15,0.5,0.0,35.0,1,1.0,0.42810099999996964
573,15,0.5,0.25,35.0,-1,0.0,1.2130009999996219
574,15,0.6,0.25,-35.0,-1,1.0,0.36180100000001403
575,15,0.5,1.0,35.0,1,1.0,0.27360100000032617
576,15,0.5,0.0625,35.0,1,1.0,0.3790009999997892
577,15,0.5,0.25,35.0,-1,0.0,0.3676010000003771
578,15,0.5,0.0625,-35.0,-1,1.0,0.37880099999938466
579,15,0.5,1.0,-35.0,-1,1.0,0.283900999999787
580,15,0.5,0.0625,-35.0,1,0.0,0.4294009999998707
581,15,0.5,0.125,-35.0,-1,1.0,0.53800099999944
582,15,0.5,0.25,-35.0,-1,1.0,0.28280099999983577
583,15,0.5,0.125,-35.0,-1,1.0,0.27169999999978245
584,15,0.5,1.0,35.0,1,1.0,0.33400099999971644
585,15,0.5,0.125,35.0,1,1.0,0.6796009999998205
586,15,0.5,0.25,-35.0,1,0.0,0.3346010000000206
587,15,0.5,0.125,-35.0,-1,1.0,0.2901010000000497
588,15,0.5,0.125,-35.0,-1,1.0,0.4953009999999267
589,15,0.5,0.25,35.0,1,1.0,0.2778009999997266
590,15,0.5,0.125,35.0,1,1.0,0.32660100000020975
591,15,0.5,0.25,35.0,1,1.0,0.47520099999974263
592,15,0.5,1.0,35.0,1,1.0,0.9872009999999136
593,15,0.5,0.25,-35.0,-1,1.0,0.3096009999999296
594,15,0.5,0.125,35.0,1,1.0,0.4149010000000999
595,15,0.5,0.0625,-35.0,-1,1.0,3.4173009999994974
596,15,0.5,0.25,-35.0,-1,1.0,0.3580000000001746
597,15,0.5,1.0,-35.0,-1,1.0,0.26740099999960876
598,15,0.5,0.25,-35.0,-1,1.0,0.4502009999996517
599,15,0.5,0.0625,35.0,-1,0.0,0.5419010000000526
600,15,0.5,0.25,35.0,1,1.0,0.28650100000004386
601,15,0.5,1.0,35.0,1,1.0,0.6225009999998292
602,15,0.5,0.0625,-35.0,1,0.0,0.3790009999997892
603,15,0.5,0.25,-35.0,-1,1.0,0.2514009999999871
604,15,0.5,0.125,35.0,1,1.0,0.270600999999715
605,15,0.5,0.25,35.0,1,1.0,0.4494009999998525
606,15,0.5,0.25,35.0,1,1.0,0.377100999999584
607,15,0.5,0.0,35.0,1,1.0,2.3031009999999696
608,15,0.5,0.0,35.0,1,1.0,0.4317009999995207
609,15,0.5,1.0,-35.0,-1,1.0,0.2738009999998212
610,15,0.5,0.0625,35.0,1,1.0,0.8892009999999573
611,15,0.5,0.25,35.0,1,1.0,0.3181009999998423
612,15,0.5,0.0625,-35.0,1,0.0,0.48030100000005405
613,15,0.5,0.25,35.0,1,1.0,0.42239999999992506
614,15,0.5,0.25,35.0,1,1.0,0.44710099999974773
615,15,0.5,0.0625,35.0,1,1.0,0.249800999999934
616,15,0.5,0.25,-35.0,-1,1.0,0.28520099999968807
617,15,0.5,0.125,35.0,1,1.0,0.071100999999544
618,15,0.5,0.25,-35.0,-1,1.0,0.35080100000004677
619,15,0.5,1.0,35.0,1,1.0,0.45220100000005914
620,15,0.5,0.0,-35.0,1,0.0,0.4375009999998838
621,15,0.5,0.0625,-35.0,-1,1.0,0.4597009999997681
622,15,0.5,0.0625,-35.0,-1,1.0,0.3320010000002185
623,15,0.5,0.125,-35.0,-1,1.0,0.4276009999998678
624,15,0.5,0.0,-35.0,1,0.0,7.462200999999823
625,15,0.5,0.125,-35.0,1,0.0,0.2656010000000606
626,15,0.5,0.125,35.0,1,1.0,0.1571009999997841
627,15,0.5,1.0,35.0,1,1.0,0.42240099999980885
628,15,0.5,1.0,-35.0,-1,1.0,0.24390100000027815
629,15,0.5,0.0625,-35.0,-1,1.0,0.32590099999970334
630,15,0.5,0.0,-35.0,1,0.0,0.39560100000016973
631,15,0.5,0.0,35.0,1,1.0,0.8629009999999653
632,15,0.5,1.0,-35.0,-1,1.0,0.2284010000003036
633,15,0.5,0.0625,35.0,1,1.0,0.40400099999988015
634,15,0.5,0.25,35.0,-1,0.0,0.21290099999987433
635,15,0.5,0.125,35.0,1,1.0,0.4278009999998176
636,15,0.5,0.25,-35.0,-1,1.0,0.10690100000010716
637,15,0.5,0.125,-35.0,-1,1.0,0.3313009999997121
638,15,0.5,0.0625,-35.0,1,0.0,0.3206009999998969
639,15,0.5,0.0,-35.0,1,0.0,0.4455009999996946
640,15,0.5,0.0625,35.0,1,1.0,0.39760100000012244
641,15,0.5,0.125,-35.0,-1,1.0,0.34290099999998347
642,15,0.5,1.0,35.0,1,1.0,0.3883009999995011
643,15,0.5,0.125,-35.0,-1,1.0,0.10730100000000675
644,15,0.5,1.0,-35.0,-1,1.0,0.2932009999994989
645,15,0.5,0.0625,-35.0,1,0.0,7.288301000000047
646,15,0.5,0.25,-35.0,-1,1.0,0.2888009999996939
647,15,0.5,0.0625,-35.0,-1,1.0,0.6106009999998605
648,15,0.5,1.0,-35.0,-1,1.0,0.21330099999977392
649,15,0.5,1.0,35.0,1,1.0,0.4616009999999733
650,15,0.5,1.0,-35.0,-1,1.0,0.25720099999989543
651,15,0.5,0.125,-35.0,1,0.0,0.4127010000001974
652,15,0.5,0.25,35.0,1,1.0,0.3346010000000206
653,15,0.5,0.25,35.0,1,1.0,0.27310099999976956
654,15,0.5,0.125,35.0,1,1.0,0.31560099999978775
655,15,0.5,0.0625,-35.0,1,0.0,0.3641010000001188
656,15,0.5,0.25,-35.0,-1,1.0,0.27510099999972226
657,15,0.5,1.0,35.0,1,1.0,0.45760100000006787
658,15,0.5,0.0625,35.0,1,1.0,0.326600999999755
659,15,0.5,0.125,-35.0,-1,1.0,0.6355009999997492
660,15,0.5,1.0,35.0,1,1.0,0.22070099999973536
661,15,0.5,0.0625,35.0,-1,0.0,0.7066009999998641
662,15,0.5,0.25,-35.0,-1,1.0,0.24850100000003295
663,15,0.5,0.25,35.0,1,1.0,0.38740099999995437
664,15,0.5,1.0,-35.0,-1,1.0,0.24270099999966988
665,15,0.5,0.25,-35.0,-1,1.0,0.2650010000002112
666,15,0.5,1.0,-35.0,-1,1.0,0.2843009999996866
667,15,0.5,1.0,35.0,1,1.0,0.5362009999998918
668,15,0.5,0.25,-35.0,-1,1.0,0.2945009999998547
669,15,0.5,0.0625,-35.0,-1,1.0,0.217000999999982
670,15,0.5,0.0625,35.0,1,1.0,0.5455009999996037
671,15,0.5,0.25,35.0,1,1.0,0.6582010000001901
672,15,0.5,0.25,35.0,1,1.0,0.5234009999999216
673,15,0.5,0.0625,35.0,-1,0.0,0.786000999999942
674,15,0.5,0.0625,-35.0,1,0.0,0.8775009999994836
675,15,0.5,0.0625,-35.0,1,0.0,0.356300999999803
676,15,0.5,1.0,35.0,1,1.0,0.32840100000021266
677,15,0.5,0.25,-35.0,-1,1.0,0.4937009999998736
678,15,0.5,0.25,35.0,1,1.0,0.342000999999982
679,15,0.5,0.25,-35.0,-1,1.0,0.5481009999998605
680,15,0.5,1.0,-35.0,-1,1.0,0.2467009999995753
681,15,0.5,0.0,-35.0,-1,1.0,0.28600100000039674
682,15,0.5,1.0,-35.0,-1,1.0,0.23080099999970116
683,15,0.5,1.0,35.0,1,1.0,0.28320099999973536
684,15,0.5,0.125,-35.0,1,0.0,0.6187009999998736
685,15,0.5,0.125,-35.0,-1,1.0,0.37990099999979066
686,15,0.5,0.125,35.0,1,1.0,0.5019009999996342
687,15,0.5,1.0,-35.0,-1,1.0,0.30000099999961094
688,15,0.5,0.125,35.0,1,1.0,1.1223009999998794
689,15,0.5,0.0625,35.0,-1,0.0,6.407500999999684
690,15,0.4,0.0625,-35.0,1,0.0,0.3849009999998998
691,15,0.5,1.0,35.0,1,1.0,3.4494009999998525
692,15,0.5,0.0,35.0,1,1.0,7.821100999999544
693,15,0.5,0.0,-35.0,1,0.0,0.6031009999996968
694,15,0.5,0.25,-35.0,-1,1.0,0.3180010000000948
695,15,0.5,0.0,-35.0,1,0.0,0.6807009999997717
696,15,0.5,0.0625,-35.0,-1,1.0,0.5721009999997477
697,15,0.5,0.0625,35.0,-1,0.0,0.8880009999998038
698,15,0.5,0.25,-35.0,-1,1.0,0.3559010000003582
699,15,0.5,0.125,-35.0,-1,1.0,0.381300999999894
700,15,0.5,1.0,35.0,1,1.0,0.3968009999998685
701,15,0.5,1.0,-35.0,-1,1.0,0.32240099999944505
702,15,0.5,0.125,35.0,1,1.0,1.1246009999999842
703,15,0.5,0.25,35.0,1,1.0,0.34980099999984304
704,15,0.5,0.125,35.0,-1,0.0,0.6052010000003065
705,15,0.5,0.0625,35.0,1,1.0,3.5872009999998227
706,15,0.5,0.125,35.0,1,1.0,1.9484009999996488
707,15,0.5,0.0625,35.0,-1,0.0,5.935001000000284
708,15,0.5,0.0625,-35.0,-1,1.0,1.272001000000273
709,15,0.5,1.0,35.0,1,1.0,0.4203010000001086
710,15,0.5,0.0625,35.0,1,1.0,8.554701000000023
711,15,0.5,1.0,35.0,1,1.0,0.4911010000000715
712,15,0.5,1.0,35.0,1,1.0,0.3165009999997892
713,15,0.5,0.0,-35.0,1,0.0,0.5256009999998241
714,15,0.5,0.0625,35.0,1,1.0,0.40760099999988597
715,15,0.5,0.0,-35.0,1,0.0,0.3697009999996226
716,15,0.5,0.125,35.0,1,1.0,0.47200100000009115
717,15,0.5,0.25,-35.0,-1,1.0,0.2973010000000613
718,15,0.5,0.0,35.0,-1,0.0,5.559801000000334
719,15,0.5,0.25,35.0,1,1.0,0.3931009999996604
720,15,0.5,0.125,35.0,1,1.0,0.44850099999985105
721,15,0.5,1.0,-35.0,-1,1.0,0.27760099999977683
722,15,0.5,0.0,35.0,1,1.0,0.4906009999995149
723,15,0.5,0.25,35.0,1,1.0,0.42180099999995946
724,15,0.5,1.0,35.0,1,1.0,0.23750099999961094
725,15,0.5,1.0,-35.0,-1,1.0,0.23630099999991216
726,15,0.5,0.25,35.0,1,1.0,0.5419010000000526
727,15,0.5,0.0625,-35.0,1,0.0,0.3171009999996386
728,15,0.5,0.125,-35.0,1,0.0,0.3424009999998816
729,15,0.5,0.125,-35.0,-1,1.0,4.043801000000258
730,15,0.5,1.0,-35.0,-1,1.0,0.23510099999975864
731,15,0.5,0.125,35.0,1,1.0,0.4170009999998001
732,15,0.5,0.25,-35.0,-1,1.0,0.28880100000014863
733,15,0.5,0.125,35.0,1,1.0,1.4511009999996531
734,15,0.5,1.0,-35.0,-1,1.0,0.20950100000027305
735,15,0.5,0.0,-35.0,-1,1.0,0.8845010000000002
736,15,0.5,0.0,35.0,1,1.0,0.4699009999999362
737,15,0.5,0.25,35.0,1,1.0,0.3284009999997579
738,15,0.5,0.0625,35.0,1,1.0,0.3333009999996648
739,15,0.5,0.125,35.0,1,1.0,0.3859009999996488
740,15,0.5,0.125,-35.0,-1,1.0,0.33220099999971353
741,15,0.5,0.25,-35.0,-1,1.0,0.3567009999997026
742,15,0.5,0.0625,-35.0,-1,1.0,0.592000999999982
743,15,0.5,1.0,35.0,1,1.0,0.44080099999973754
744,15,0.5,0.125,35.0,1,1.0,1.409200999999939
745,15,0.5,0.125,-35.0,-1,1.0,0.31440100000008897
746,15,0.5,0.25,-35.0,-1,1.0,0.21970099999953163
747,15,0.5,0.0625,35.0,1,1.0,2.4121009999994385
748,15,0.5,0.125,-35.0,-1,1.0,0.30340099999966696
749,15,0.5,0.0625,-35.0,-1,1.0,0.34240100000033635
750,15,0.5,0.25,-35.0,-1,1.0,0.27860099999998056
751,15,0.5,1.0,-35.0,-1,1.0,0.2802010000000337
752,15,0.5,0.125,35.0,1,1.0,3.605700999999499
753,15,0.5,0.0625,-35.0,-1,1.0,0.3870010000000548
754,15,0.5,0.125,-35.0,-1,1.0,0.5555009999993672
755,15,0.5,0.25,-35.0,-1,1.0,0.33440099999961603
756,15,0.5,0.125,35.0,1,1.0,0.08660099999951854
757,15,0.5,0.0625,35.0,1,1.0,2.858600999999908
758,15,0.5,0.125,35.0,1,1.0,0.27680099999997765
759,15,0.5,0.0,-35.0,-1,1.0,0.6621009999998932
760,15,0.5,1.0,-35.0,-1,1.0,0.25370099999963713
761,15,0.5,0.125,35.0,-1,0.0,0.6264009999995324
762,15,0.5,0.0625,-35.0,1,0.0,0.5211009999998168
763,15,0.5,0.125,-35.0,-1,1.0,2.6166010000001734
764,15,0.5,0.125,35.0,1,1.0,1.011000999999851
765,15,0.5,0.125,-35.0,-1,1.0,0.30350099999986924
766,15,0.5,0.0625,-35.0,1,0.0,4.825800999999956
767,15,0.5,0.125,35.0,1,1.0,1.1092009999997572
768,15,0.5,0.25,-35.0,-1,1.0,0.3074010000000271
769,15,0.5,1.0,35.0,1,1.0,0.4290000000000873
770,15,0.5,0.0,-35.0,1,0.0,0.958100999999715
771,15,0.5,0.0625,35.0,1,1.0,0.5594009999995251
772,15,0.5,0.25,-35.0,-1,1.0,0.23470099999985905
773,15,0.5,1.0,35.0,1,1.0,0.46050100000002203
774,15,0.5,1.0,35.0,1,1.0,0.42020099999990634
775,15,0.5,0.0625,35.0,1,1.0,0.4079009999995833
776,15,0.5,0.125,-35.0,-1,1.0,0.3096009999994749
777,15,0.5,1.0,-35.0,-1,1.0,0.24570100000028106
778,15,0.5,1.0,-35.0,-1,1.0,0.2012009999998554
779,15,0.5,0.0,35.0,-1,0.0,2.280200999999579
780,15,0.5,0.125,-35.0,-1,1.0,0.2380009999997128
781,15,0.5,0.125,-35.0,-1,1.0,2.7057010000003174
782,15,0.5,1.0,35.0,1,1.0,0.2844009999998889
783,15,0.5,0.125,35.0,1,1.0,4.275701000000026
784,15,0.5,0.0,-35.0,1,0.0,2.1498019999999087
785,15,0.5,0.25,-35.0,-1,1.0,3.434001999999964
786,15,0.5,0.0625,35.0,-1,0.0,1.8524019999999837
787,15,0.5,0.25,35.0,1,1.0,0.3367019999996046
788,15,0.5,0.0625,35.0,-1,0.0,2.628501999999571
789,15,0.5,0.125,-35.0,-1,1.0,0.24940199999946344
790,15,0.5,0.0625,-35.0,-1,1.0,1.9235020000000986
791,15,0.5,0.125,-35.0,-1,1.0,0.3522020000000339
792,15,0.5,0.0,35.0,-1,0.0,2.008201999999528
793,15,0.5,0.25,-35.0,-1,1.0,0.3654019999994489
794,15,0.5,0.125,-35.0,-1,1.0,0.28760199999942415
795,15,0.5,1.0,-35.0,-1,1.0,0.3633020000002034
796,15,0.5,0.0625,-35.0,-1,1.0,1.6659020000001874
797,15,0.5,0.0,35.0,-1,0.0,11.704001000000062
798,15,0.5,0.0625,-35.0,-1,1.0,9.002301999999872
799,15,0.5,0.0625,-35.0,1,0.0,5.691301999999723
800,15,0.5,0.25,-35.0,-1,1.0,2.7014020000001437
801,15,0.5,0.25,-35.0,-1,1.0,0.32290199999988545
802,15,0.5,0.125,-35.0,-1,1.0,4.589201999999659
803,15,0.5,0.25,35.0,-1,0.0,3.7659019999996417
804,15,0.5,0.0625,35.0,-1,0.0,6.209801999999399
805,15,0.1,0.0625,35.0,1,1.0,38.13020199999983
806,15,0.5,1.0,35.0,1,1.0,0.39740200000005643
807,15,0.5,0.0625,-35.0,-1,1.0,2.1953020000000834
808,15,0.5,1.0,-35.0,-1,1.0,0.2566019999994751
809,15,0.5,1.0,-35.0,-1,1.0,0.46200199999975666
1,16,0.5,0.125,-35.0,-1,1.0,0.31510000000000016
2,16,0.5,0.125,35.0,1,1.0,0.2817999999999987
3,16,0.5,0.25,35.0,1,1.0,0.2519999999999989
4,16,0.5,0.125,35.0,1,1.0,0.2863989999999994
5,16,0.5,1.0,35.0,1,1.0,0.23219999999999885
6,16,0.5,1.0,35.0,1,1.0,0.1980999999999966
7,16,0.5,0.0,35.0,1,1.0,0.2670999999999992
8,16,0.5,0.25,35.0,1,1.0,0.2447999999999979
9,16,0.5,0.25,35.0,1,1.0,0.21659999999999968
10,16,0.5,0.25,-35.0,-1,1.0,0.46000000000000085
11,16,0.5,0.0625,-35.0,1,0.0,0.254800000000003
12,16,0.9,0.0625,-35.0,1,0.0,0.32269999999999754
13,16,0.5,1.0,-35.0,-1,1.0,0.21170000000000044
14,16,0.5,0.25,-35.0,-1,1.0,0.4018000000000086
15,16,0.5,0.25,35.0,1,1.0,0.25830000000001974
16,16,0.5,0.25,35.0,1,1.0,0.3345999999999947
17,16,0.5,1.0,-35.0,-1,1.0,0.22120000000001028
18,16,0.5,0.0625,35.0,-1,0.0,0.406400000000005
19,16,0.5,0.0625,35.0,-1,0.0,0.24330000000000496
20,16,0.5,0.0625,35.0,1,1.0,0.36070000000000846
21,16,0.5,0.0625,-35.0,1,0.0,0.5611000000000104
22,16,0.5,0.0,35.0,1,1.0,0.281400000000005
23,16,0.5,0.25,35.0,1,1.0,0.23699999999999477
24,16,0.5,1.0,-35.0,-1,1.0,0.45220000000001903
25,16,0.5,0.0,35.0,1,1.0,0.25370000000000914
26,16,0.5,0.0625,35.0,1,1.0,0.20660000000000878
27,16,0.5,1.0,-35.0,-1,1.0,0.6233000000000004
28,16,0.5,0.25,35.0,1,1.0,0.23049999999997794
29,16,0.5,0.125,-35.0,1,0.0,0.2377999999999929
30,16,0.5,0.0625,35.0,1,1.0,0.23519999999999186
31,16,0.5,0.0625,-35.0,1,0.0,0.21889999999999077
32,16,0.5,0.25,-35.0,-1,1.0,0.6204999999999927
33,16,0.5,0.125,35.0,1,1.0,0.24920000000000186
34,16,0.5,0.25,35.0,1,1.0,0.2546999999999855
35,16,0.5,1.0,35.0,1,1.0,0.2296999999999798
36,16,0.5,0.0625,35.0,1,1.0,0.2530000000000143
37,16,0.5,1.0,35.0,1,1.0,0.21329899999997792
38,16,0.5,0.0625,-35.0,1,0.0,0.23039999999997463
39,16,0.5,0.125,-35.0,-1,1.0,0.4358000000000004
40,16,0.5,0.125,35.0,1,1.0,0.23349999999999227
41,16,0.5,0.0,-35.0,1,0.0,0.22049999999998704
42,16,0.5,0.0,-35.0,1,0.0,0.09749999999996817
43,16,0.5,0.125,-35.0,-1,1.0,0.387299999999982
44,16,0.5,1.0,35.0,1,1.0,0.2582999999999913
45,16,0.5,0.25,-35.0,1,0.0,0.7460999999999842
46,16,0.5,0.125,35.0,1,1.0,0.28129999999998745
47,16,0.5,0.0625,35.0,1,1.0,0.28549999999998477
48,16,0.5,1.0,35.0,1,1.0,0.23160000000001446
49,16,0.5,1.0,-35.0,-1,1.0,0.18459899999999152
50,16,0.5,1.0,-35.0,-1,1.0,0.4253000000000213
51,16,0.5,1.0,-35.0,-1,1.0,0.19700000000000273
52,16,0.5,0.0,-35.0,-1,1.0,0.5668000000000006
53,16,0.5,1.0,35.0,1,1.0,0.24619899999999006
54,16,0.5,0.25,-35.0,-1,1.0,0.4446999999999832
55,16,0.5,0.0625,-35.0,-1,1.0,0.2471999999999639
56,16,0.5,0.125,-35.0,-1,1.0,0.7279000000000053
57,16,0.5,0.0625,35.0,1,1.0,0.24340000000000828
58,16,0.5,1.0,-35.0,-1,1.0,0.3540000000000134
59,16,0.5,0.25,35.0,1,1.0,0.2653999999999712
60,16,0.5,0.125,-35.0,-1,1.0,0.7724000000000046
61,16,0.5,1.0,35.0,1,1.0,0.24729999999999563
62,16,0.5,1.0,35.0,1,1.0,0.25010000000003174
63,16,0.5,0.0625,-35.0,1,0.0,0.3166999999999689
64,16,0.5,0.0625,-35.0,-1,1.0,0.48689999999999145
65,16,0.5,1.0,35.0,1,1.0,0.2253989999999817
66,16,0.5,0.0,-35.0,1,0.0,0.273399999999981
67,16,0.5,0.0625,35.0,-1,0.0,0.4907000000000039
68,16,0.5,0.25,35.0,1,1.0,0.28230000000002065
69,16,0.5,0.0,35.0,1,1.0,0.41500000000002046
70,16,0.5,0.125,-35.0,-1,1.0,0.5738000000000056
71,16,0.5,0.0625,35.0,1,1.0,0.3094990000000166
72,16,0.5,0.0625,-35.0,1,0.0,0.24500000000000455
73,16,0.5,0.25,35.0,1,1.0,0.25020000000000664
74,16,0.5,0.125,-35.0,-1,1.0,0.2658000000000129
75,16,0.5,0.0625,35.0,1,1.0,0.31810000000001537
76,16,0.5,1.0,-35.0,-1,1.0,0.23689999999999145
77,16,0.5,0.0,-35.0,1,0.0,0.380299999999977
78,16,0.5,0.25,35.0,1,1.0,0.2855989999999906
79,16,0.5,0.0,-35.0,1,0.0,0.23139999999995098
80,16,0.5,0.125,-35.0,-1,1.0,0.23259999999999081
81,16,0.5,1.0,35.0,1,1.0,0.25909899999993513
82,16,0.5,1.0,-35.0,-1,1.0,0.47379900000004227
83,16,0.5,1.0,-35.0,-1,1.0,0.4329999999999927
84,16,0.5,1.0,-35.0,-1,1.0,0.49049999999999727
85,16,0.5,1.0,-35.0,-1,1.0,0.2267999999999688
86,16,0.5,0.0625,35.0,1,1.0,0.32030000000003156
87,16,0.5,0.0,35.0,1,1.0,0.26190000000002556
88,16,0.5,0.25,35.0,1,1.0,0.46109999999998763
89,16,0.5,1.0,-35.0,-1,1.0,0.21509900000000926
90,16,0.5,0.0625,-35.0,1,0.0,0.5283999999999764
91,16,0.5,0.0,-35.0,-1,1.0,0.11649999999997362
92,16,0.5,1.0,-35.0,-1,1.0,0.22849999999993997
93,16,0.5,0.0,35.0,1,1.0,0.8509999999999991
94,16,0.5,1.0,35.0,1,1.0,0.2411999999999921
95,16,0.5,0.0625,-35.0,-1,1.0,0.3036999999999921
96,16,0.5,0.0625,-35.0,1,0.0,0.25070000000005166
97,16,0.6,0.0625,35.0,1,1.0,0.9812999999999761
98,16,0.5,1.0,35.0,1,1.0,0.226099999999974
99,16,0.5,0.0,-35.0,1,0.0,0.23759999999998627
100,16,0.5,0.0625,35.0,1,1.0,0.26459999999991624
101,16,0.5,0.0625,35.0,1,1.0,0.22729999999995698
102,16,0.5,1.0,-35.0,-1,1.0,0.5264000000000237
103,16,0.5,0.0625,35.0,1,1.0,0.25929999999993925
104,16,0.5,0.0625,-35.0,1,0.0,0.2660999999999376
105,16,0.5,0.125,-35.0,1,0.0,0.24439999999998463
106,16,0.5,0.25,-35.0,-1,1.0,0.21929999999997563
107,16,0.5,1.0,-35.0,-1,1.0,0.20290000000005648
108,16,0.5,1.0,35.0,1,1.0,0.5349999999999682
109,16,0.5,0.0625,35.0,1,1.0,0.26909999999998035
110,16,0.5,0.25,-35.0,1,0.0,0.7823000000000206
111,16,0.5,0.125,-35.0,1,0.0,0.24699999999995725
112,16,0.5,0.25,35.0,1,1.0,0.24340000000000828
113,16,0.5,0.25,35.0,1,1.0,0.21620000000001482
114,16,0.5,0.25,35.0,1,1.0,0.21080000000006294
115,16,0.5,0.125,35.0,1,1.0,0.22210000000001173
116,16,0.5,0.125,35.0,1,1.0,0.6077999999999975
117,16,0.5,0.0,35.0,1,1.0,0.16660000000001673
118,16,0.5,0.125,-35.0,1,0.0,0.2249999999999659
119,16,0.5,0.125,35.0,1,1.0,0.20089899999993577
120,16,0.5,0.125,35.0,1,1.0,0.20800000000002683
121,16,0.5,0.25,35.0,1,1.0,0.22019999999997708
122,16,0.5,1.0,35.0,1,1.0,0.23090000000001965
123,16,0.5,0.0625,35.0,1,1.0,0.21430000000003702
124,16,0.5,0.125,35.0,1,1.0,0.245900000000006
125,16,0.5,0.25,35.0,1,1.0,0.2719989999999939
126,16,0.5,0.0,35.0,1,1.0,0.21529999999995653
127,16,0.5,0.25,-35.0,1,0.0,0.23490000000003874
128,16,1.0,0.25,-35.0,1,0.0,0.2623999999999569
129,16,0.5,1.0,-35.0,-1,1.0,0.3342999999999847
130,16,0.5,1.0,-35.0,-1,1.0,0.4017000000000053
131,16,0.5,0.0625,-35.0,1,0.0,0.25109999999995125
132,16,0.5,0.0625,-35.0,-1,1.0,0.5274999999999181
133,16,0.5,0.25,-35.0,-1,1.0,0.7644999999999982
134,16,0.5,0.0625,-35.0,-1,1.0,0.3565999999999576
135,16,0.5,1.0,-35.0,-1,1.0,0.5248999999998887
136,16,0.5,0.0,-35.0,-1,1.0,0.5848000000000866
137,16,0.5,0.0625,35.0,-1,0.0,0.5595000000000709
138,16,0.2,0.0625,35.0,-1,0.0,0.2817999999999756
139,16,0.5,1.0,-35.0,-1,1.0,0.1976999999999407
140,16,0.5,0.0625,-35.0,-1,1.0,0.4841000000000122
141,16,0.5,0.0,-35.0,-1,1.0,0.49569900000005873
142,16,0.5,0.125,35.0,1,1.0,0.23549900000000434
