trial_num,session_num,stim_probability_left,contrast,position,response_choice,trial_correct,reaction_time
1,11,0.5,0.125,35.0,1,1.0,0.4706999999999999
2,11,0.5,1.0,35.0,1,1.0,0.28229999999999933
3,11,0.5,0.125,35.0,1,1.0,0.12519999999999953
4,11,0.5,0.125,35.0,1,1.0,2.2067000000000014
5,11,0.5,0.125,-35.0,-1,1.0,0.7315000000000005
6,11,0.5,0.5,35.0,1,1.0,0.43459999999999965
7,11,0.5,1.0,35.0,1,1.0,0.3656000000000006
8,11,0.5,0.25,-35.0,-1,1.0,1.6537000000000006
9,11,0.5,1.0,-35.0,-1,1.0,2.4071000000000033
10,11,0.5,0.125,35.0,1,1.0,0.13590000000000657
11,11,0.5,0.125,35.0,-1,0.0,4.1540000000000035
12,11,0.5,0.25,35.0,1,1.0,0.4111000000000047
13,11,0.5,0.25,-35.0,-1,1.0,1.1287999999999982
14,11,0.5,0.125,-35.0,-1,1.0,0.7488000000000028
15,11,0.5,0.5,-35.0,-1,1.0,0.3073999999999941
16,11,0.5,0.5,35.0,1,1.0,1.8906000000000063
17,11,0.5,0.5,-35.0,-1,1.0,0.2727000000000004
18,11,0.5,0.125,-35.0,-1,1.0,0.6450999999999993
19,11,0.5,1.0,-35.0,-1,1.0,0.31389999999998963
20,11,0.5,0.5,-35.0,-1,1.0,-0.0020000000000095497
21,11,0.5,0.125,-35.0,-1,1.0,0.48279999999998324
22,11,0.5,0.125,35.0,1,1.0,1.3079999999999927
23,11,0.5,0.5,35.0,1,1.0,2.743600000000015
24,11,0.5,0.25,-35.0,-1,1.0,0.32689999999999486
25,11,0.5,0.125,-35.0,-1,1.0,1.055499999999995
26,11,0.5,0.25,-35.0,-1,1.0,0.446700000000007
27,11,0.5,0.5,35.0,1,1.0,0.4013000000000062
28,11,0.5,0.25,35.0,1,1.0,1.7213999999999885
29,11,0.5,0.5,-35.0,-1,1.0,0.27490000000000236
30,11,0.5,0.125,-35.0,-1,1.0,0.579599999999985
31,11,0.5,0.125,-35.0,-1,1.0,0.34240000000001203
32,11,0.5,0.25,35.0,1,1.0,2.046500000000009
33,11,0.5,0.125,35.0,1,1.0,0.34440000000000737
34,11,0.5,1.0,-35.0,-1,1.0,0.5072999999999865
35,11,0.5,0.5,-35.0,-1,1.0,0.6208000000000027
36,11,0.5,1.0,35.0,1,1.0,0.23260000000001924
37,11,0.5,1.0,35.0,1,1.0,0.640199999999993
38,11,0.5,0.5,-35.0,-1,1.0,0.34899999999998954
39,11,0.5,0.125,35.0,1,1.0,0.2866999999999962
40,11,0.5,0.5,35.0,1,1.0,0.21860000000000923
41,11,0.5,1.0,35.0,1,1.0,0.5462990000000048
42,11,0.5,1.0,35.0,1,1.0,0.2155999999999949
43,11,0.5,0.125,-35.0,-1,1.0,0.43479999999999563
44,11,0.5,0.25,-35.0,-1,1.0,0.9087000000000103
45,11,0.5,1.0,35.0,1,1.0,0.27060000000000173
46,11,0.5,0.25,-35.0,-1,1.0,0.3394000000000119
47,11,0.5,1.0,35.0,1,1.0,0.30220000000002756
48,11,0.5,0.5,-35.0,-1,1.0,0.7644999999999982
49,11,0.5,0.5,35.0,1,1.0,0.34300000000001774
50,11,0.5,1.0,-35.0,-1,1.0,1.931600000000003
51,11,0.5,0.5,35.0,1,1.0,0.5271000000000186
52,11,0.5,0.125,-35.0,-1,1.0,1.113599999999991
53,11,0.5,0.5,-35.0,-1,1.0,1.5316000000000258
54,11,0.5,0.25,35.0,1,1.0,0.2662000000000262
55,11,0.5,0.5,-35.0,-1,1.0,1.9517999999999915
56,11,0.5,0.25,35.0,1,1.0,0.3147000000000162
57,11,0.5,1.0,35.0,1,1.0,0.30819999999999936
58,11,0.5,0.25,-35.0,1,0.0,2.6018000000000256
59,11,0.5,0.25,-35.0,-1,1.0,0.7308000000000163
60,11,0.5,0.25,35.0,1,1.0,0.41909999999998604
61,11,0.5,0.5,-35.0,-1,1.0,0.49269999999998504
62,11,0.5,0.25,-35.0,-1,1.0,1.5960999999999785
63,11,0.5,0.5,35.0,1,1.0,0.25439999999997553
64,11,0.5,0.125,-35.0,-1,1.0,0.8691990000000089
65,11,0.5,0.25,-35.0,1,0.0,0.3206000000000131
66,11,0.6,0.25,-35.0,-1,1.0,0.5007000000000517
67,11,0.5,0.5,-35.0,-1,1.0,0.6148000000000593
68,11,0.5,0.25,35.0,1,1.0,0.30670000000003483
69,11,0.5,1.0,-35.0,-1,1.0,0.4966999999999757
70,11,0.5,0.125,35.0,1,1.0,0.44319999999999027
71,11,0.5,0.125,35.0,1,1.0,1.1172000000000253
72,11,0.5,0.125,-35.0,-1,1.0,0.2935000000000514
73,11,0.5,1.0,-35.0,-1,1.0,0.32450000000000045
74,11,0.5,0.5,-35.0,-1,1.0,0.4787990000000377
75,11,0.5,1.0,35.0,1,1.0,0.5294999999999845
76,11,0.5,0.125,35.0,1,1.0,0.2702000000000453
77,11,0.5,1.0,35.0,1,1.0,0.21609999999998308
78,11,0.5,1.0,35.0,1,1.0,0.2366000000000099
79,11,0.5,0.25,35.0,1,1.0,0.384900000000016
80,11,0.5,0.125,-35.0,1,0.0,5.84839999999997
81,11,0.7,0.125,-35.0,-1,1.0,0.4623000000000843
82,11,0.5,1.0,-35.0,-1,1.0,0.5542000000000371
83,11,0.5,0.25,-35.0,-1,1.0,0.4770000000000323
84,11,0.5,0.125,-35.0,-1,1.0,2.768000000000029
85,11,0.5,0.25,35.0,1,1.0,0.684599999999989
86,11,0.5,0.0625,35.0,1,1.0,-0.016000000000019554
87,11,0.5,1.0,35.0,1,1.0,0.28100000000006276
88,11,0.5,0.0625,35.0,1,1.0,0.3953000000000202
89,11,0.5,0.125,-35.0,-1,1.0,0.3193000000000552
90,11,0.5,0.125,35.0,1,1.0,0.6044999999999732
91,11,0.5,0.125,-35.0,-1,1.0,0.7544000000000324
92,11,0.5,0.25,35.0,1,1.0,0.277499999999975
93,11,0.5,0.5,-35.0,-1,1.0,0.5081000000000699
94,11,0.5,0.0625,-35.0,-1,1.0,0.3207999999999629
95,11,0.5,0.125,35.0,1,1.0,0.21240000000000236
96,11,0.5,0.125,35.0,1,1.0,0.25410000000005084
97,11,0.5,0.5,35.0,1,1.0,0.5344000000000619
98,11,0.5,0.0625,35.0,1,1.0,0.42730000000000246
99,11,0.5,0.25,35.0,1,1.0,0.2968999999999937
100,11,0.5,0.0625,35.0,1,1.0,0.8460000000000036
101,11,0.5,0.0625,35.0,-1,0.0,0.7788000000000466
102,11,0.5,0.125,35.0,1,1.0,0.338799999999992
103,11,0.5,0.25,-35.0,-1,1.0,0.5185999999999922
104,11,0.5,0.0625,-35.0,-1,1.0,0.5542000000000371
105,11,0.5,0.125,35.0,1,1.0,0.5970000000000937
106,11,0.5,0.25,-35.0,-1,1.0,0.26139999999998054
107,11,0.5,0.0625,35.0,-1,0.0,0.5034999999999741
108,11,0.5,0.125,-35.0,1,0.0,0.0724999999999909
109,11,0.5,0.0625,35.0,1,1.0,0.5086999999999762
110,11,0.5,0.25,35.0,1,1.0,0.24790000000001555
111,11,0.5,0.5,35.0,1,1.0,0.2107000000000312
112,11,0.5,0.5,35.0,1,1.0,0.2376000000000431
113,11,0.5,0.25,35.0,1,1.0,0.30390000000005557
114,11,0.5,0.125,35.0,1,1.0,0.2429000000000201
115,11,0.5,0.5,35.0,1,1.0,0.7001000000000772
116,11,0.5,0.0625,-35.0,-1,1.0,0.5275000000000318
117,11,0.5,1.0,-35.0,-1,1.0,0.8683000000000334
118,11,0.5,1.0,-35.0,-1,1.0,0.36149999999997817
119,11,0.5,1.0,-35.0,-1,1.0,0.36970000000007985
120,11,0.5,1.0,-35.0,-1,1.0,0.3976999999999862
121,11,0.5,1.0,35.0,1,1.0,0.6025000000000773
122,11,0.5,0.5,35.0,-1,0.0,1.468599999999924
123,11,0.5,0.125,-35.0,-1,1.0,0.41209999999989577
124,11,0.5,0.5,-35.0,-1,1.0,0.3573000000000093
125,11,0.5,0.25,-35.0,-1,1.0,0.5307999999999993
126,11,0.5,0.25,35.0,1,1.0,0.334699999999998
127,11,0.5,0.25,-35.0,-1,1.0,0.47099999999988995
128,11,0.5,0.0625,-35.0,-1,1.0,0.4754999999998972
129,11,0.5,0.125,-35.0,-1,1.0,0.2417000000000371
130,11,0.5,0.0625,-35.0,-1,1.0,0.3386999999999034
131,11,0.5,1.0,-35.0,-1,1.0,0.3669999999999618
132,11,0.5,0.5,-35.0,-1,1.0,0.3101999999998952
133,11,0.5,0.0625,35.0,-1,0.0,1.859899999999925
134,11,0.1,0.0625,35.0,1,1.0,0.7240999999999076
135,11,0.5,0.5,35.0,1,1.0,0.3020000000000209
136,11,0.5,0.0625,-35.0,-1,1.0,0.4959999999999809
137,11,0.5,0.25,35.0,1,1.0,0.37409999999999854
138,11,0.5,0.125,-35.0,-1,1.0,0.36369999999999436
139,11,0.5,0.5,-35.0,-1,1.0,1.6351999999999407
140,11,0.5,0.125,35.0,-1,0.0,0.4823999999999842
141,11,0.5,0.125,35.0,-1,0.0,0.48529999999993834
142,11,0.5,0.0625,35.0,1,1.0,0.26509999999996126
143,11,0.5,0.5,-35.0,-1,1.0,0.22199999999998
144,11,0.5,0.5,35.0,1,1.0,0.40279999999984284
145,11,0.5,0.5,-35.0,-1,1.0,0.28700000000003456
146,11,0.5,0.125,-35.0,1,0.0,0.24989999999991142
147,11,0.4,0.125,35.0,1,1.0,0.34759999999994307
148,11,0.5,0.5,35.0,1,1.0,0.35140000000001237
149,11,0.5,1.0,35.0,1,1.0,0.306699999999978
150,11,0.5,0.125,-35.0,-1,1.0,0.48649999999997817
151,11,0.5,0.5,35.0,1,1.0,0.3047000000000253
152,11,0.5,0.125,35.0,1,1.0,1.5506000000000313
153,11,0.5,1.0,35.0,1,1.0,0.3210000000000264
154,11,0.5,1.0,-35.0,-1,1.0,0.5427000000000817
155,11,0.5,0.25,-35.0,-1,1.0,0.2724999999999227
156,11,0.5,0.5,35.0,1,1.0,0.6242999999999483
157,11,0.5,1.0,-35.0,-1,1.0,0.37609999999995125
158,11,0.5,0.0625,35.0,-1,0.0,0.4860999999998512
159,11,0.5,0.125,35.0,1,1.0,0.5710000000000264
160,11,0.5,0.0625,-35.0,-1,1.0,0.3420000000000982
161,11,0.5,0.5,-35.0,-1,1.0,0.8573999999998705
162,11,0.5,0.0625,35.0,1,1.0,0.3119000000000369
163,11,0.5,0.25,-35.0,-1,1.0,0.2898999999999887
164,11,0.5,0.5,35.0,1,1.0,1.005800000000022
165,11,0.5,1.0,35.0,1,1.0,0.27339999999992415
166,11,0.5,0.5,35.0,1,1.0,0.5507999999999811
167,11,0.5,0.5,-35.0,-1,1.0,0.2338999999999487
168,11,0.5,0.5,35.0,1,1.0,0.9128000000000611
169,11,0.5,0.125,-35.0,-1,1.0,0.27959999999995944
170,11,0.5,0.25,35.0,1,1.0,0.5279000000000451
171,11,0.5,1.0,-35.0,-1,1.0,0.3709999999998672
172,11,0.5,0.0625,35.0,-1,0.0,0.9672999999999092
173,11,0.5,0.25,35.0,-1,0.0,0.4028999999999314
174,11,0.5,0.25,35.0,1,1.0,0.28509999999994307
175,11,0.5,0.5,35.0,1,1.0,0.28290000000004056
176,11,0.5,0.5,35.0,1,1.0,2.806699999999978
177,11,0.5,1.0,-35.0,-1,1.0,0.4239000000000033
178,11,0.5,0.25,-35.0,-1,1.0,0.37829999999996744
179,11,0.5,0.5,35.0,1,1.0,0.4597999999999729
180,11,0.5,0.125,-35.0,-1,1.0,0.4461000000000013
181,11,0.5,0.0625,-35.0,-1,1.0,0.331299999999942
182,11,0.5,0.25,-35.0,-1,1.0,0.3975999999998976
183,11,0.5,0.25,35.0,1,1.0,0.25359999999989213
184,11,0.5,0.125,-35.0,-1,1.0,2.456800000000044
185,11,0.5,0.5,-35.0,1,0.0,2.9161000000000286
186,11,0.5,0.0625,-35.0,-1,1.0,0.7081999999999198
187,11,0.5,0.25,35.0,-1,0.0,0.36779999999998836
188,11,0.3,0.25,35.0,1,1.0,0.2740000000000009
189,11,0.5,0.5,-35.0,-1,1.0,0.2541999999999689
190,11,0.5,0.25,35.0,1,1.0,0.2781999999999698
191,11,0.5,1.0,35.0,1,1.0,0.3710999999999558
192,11,0.5,0.0625,-35.0,1,0.0,0.3604000000000269
193,11,0.6,0.0625,-35.0,-1,1.0,0.34579999999994016
194,11,0.5,1.0,35.0,1,1.0,0.269800000000032
195,11,0.5,1.0,-35.0,-1,1.0,0.48059999999998126
196,11,0.5,0.25,-35.0,-1,1.0,0.8050999999999249
197,11,0.5,1.0,35.0,1,1.0,0.25
198,11,0.5,0.5,-35.0,-1,1.0,0.36219999999991614
199,11,0.5,1.0,-35.0,-1,1.0,0.3646999999999707
200,11,0.5,1.0,-35.0,-1,1.0,0.4129999999998972
201,11,0.5,1.0,35.0,1,1.0,0.34010000000000673
202,11,0.5,0.0625,-35.0,-1,1.0,0.3140999999999394
203,11,0.5,1.0,35.0,1,1.0,0.4472000000000662
204,11,0.5,1.0,-35.0,-1,1.0,0.31769999999994525
205,11,0.5,0.125,35.0,1,1.0,0.0925000000000864
206,11,0.5,1.0,-35.0,-1,1.0,0.27899999999999636
207,11,0.5,1.0,35.0,1,1.0,0.34379999999998745
208,11,0.5,0.25,35.0,1,1.0,0.2544000000000324
209,11,0.5,0.0625,-35.0,-1,1.0,0.39839999999992415
210,11,0.5,0.0625,35.0,1,1.0,0.36589999999989686
211,11,0.5,0.125,-35.0,-1,1.0,3.099800000000073
212,11,0.5,1.0,35.0,1,1.0,0.21879999999998745
213,11,0.5,0.5,-35.0,-1,1.0,0.33619999999996253
214,11,0.5,1.0,-35.0,-1,1.0,0.3221999999999525
215,11,0.5,0.25,-35.0,-1,1.0,0.30340000000001055
216,11,0.5,0.25,-35.0,-1,1.0,0.30209999999988213
217,11,0.5,0.25,-35.0,-1,1.0,0.27890000000002146
218,11,0.5,1.0,35.0,1,1.0,0.322400000000016
219,11,0.5,0.125,35.0,-1,0.0,1.1165999999999485
220,11,0.5,0.25,-35.0,-1,1.0,0.3768999999999778
221,11,0.5,0.125,-35.0,1,0.0,2.489199999999869
222,11,0.5,0.25,-35.0,-1,1.0,0.17629999999996926
223,11,0.5,0.25,-35.0,-1,1.0,1.8010000000000446
224,11,0.5,0.125,-35.0,-1,1.0,0.9067999999999756
225,11,0.5,0.5,-35.0,-1,1.0,0.3226999999999407
226,11,0.5,0.0625,-35.0,-1,1.0,0.6211000000000695
227,11,0.5,0.25,35.0,1,1.0,0.5113999999998668
228,11,0.5,1.0,35.0,1,1.0,0.4958000000000311
229,11,0.5,0.0625,-35.0,-1,1.0,2.407199999999989
230,11,0.5,0.0625,35.0,1,1.0,0.29589999999996053
231,11,0.5,0.5,-35.0,-1,1.0,0.32799999999986085
232,11,0.5,0.0625,35.0,1,1.0,0.22690000000011423
233,11,0.5,0.25,-35.0,-1,1.0,0.5332999999999402
234,11,0.5,0.25,35.0,1,1.0,0.29139999999995325
235,11,0.5,1.0,-35.0,-1,1.0,0.4899000000000342
236,11,0.5,0.0625,-35.0,-1,1.0,0.3871000000000322
237,11,0.5,1.0,35.0,1,1.0,0.21629999999993288
238,11,0.5,0.25,-35.0,-1,1.0,0.7895000000000891
239,11,0.5,0.125,35.0,1,1.0,0.6067000000000462
240,11,0.5,0.25,-35.0,-1,1.0,0.609700000000089
241,11,0.5,0.5,-35.0,-1,1.0,0.7154000000000451
242,11,0.5,0.25,-35.0,-1,1.0,0.6941999999999098
243,11,0.5,0.5,35.0,1,1.0,0.9139999999999873
244,11,0.5,0.125,-35.0,-1,1.0,0.5135999999999967
245,11,0.5,0.25,-35.0,-1,1.0,0.4314999999999145
246,11,0.5,0.5,-35.0,-1,1.0,0.33160000000009404
247,11,0.5,0.5,-35.0,-1,1.0,0.38819999999998345
248,11,0.5,0.25,35.0,1,1.0,0.24569999999994252
249,11,0.5,1.0,35.0,1,1.0,0.20200000000011187
250,11,0.5,0.0625,35.0,1,1.0,0.2765999999999167
251,11,0.5,0.5,35.0,1,1.0,0.5027999999999793
252,11,0.5,0.125,-35.0,-1,1.0,0.43279999999992924
253,11,0.5,0.0625,35.0,1,1.0,0.26149999999995543
254,11,0.5,1.0,35.0,1,1.0,0.2358999999999014
255,11,0.5,0.25,35.0,1,1.0,1.383799999999951
256,11,0.5,0.25,35.0,1,1.0,0.45679999999993015
257,11,0.5,0.0625,35.0,-1,0.0,0.8307989999998426
258,11,0.5,0.25,-35.0,-1,1.0,0.21339999999997872
259,11,0.5,0.125,35.0,1,1.0,0.29309999999998126
260,11,0.5,0.25,35.0,1,1.0,0.620900000000006
261,11,0.5,0.5,35.0,1,1.0,0.0627999999999247
262,11,0.5,0.5,35.0,1,1.0,0.26900000000000546
263,11,0.5,0.5,35.0,1,1.0,0.4178999999999178
264,11,0.5,0.5,35.0,1,1.0,0.856200000000058
265,11,0.5,0.0625,-35.0,-1,1.0,2.425100000000043
266,11,0.5,0.25,-35.0,-1,1.0,0.5045999999999822
267,11,0.5,0.125,-35.0,-1,1.0,3.0108999999998787
268,11,0.5,0.5,-35.0,-1,1.0,0.33429999999987103
269,11,0.5,0.25,35.0,1,1.0,1.3541999999999916
270,11,0.5,0.0625,-35.0,-1,1.0,0.44839999999999236
271,11,0.5,0.5,-35.0,-1,1.0,0.7305999999999813
272,11,0.5,0.5,35.0,1,1.0,0.633199999999988
273,11,0.5,1.0,-35.0,1,0.0,0.1050999999998794
274,11,0.4,1.0,35.0,1,1.0,0.3301000000000158
275,11,0.5,0.5,-35.0,-1,1.0,0.5661999999999807
276,11,0.5,1.0,35.0,1,1.0,0.22199999999998
277,11,0.5,0.125,35.0,1,1.0,0.5677999999999201
278,11,0.5,0.5,-35.0,-1,1.0,0.26009999999973843
279,11,0.5,0.0625,35.0,1,1.0,0.4231999999999516
280,11,0.5,0.5,35.0,1,1.0,0.6394999999999982
281,11,0.5,0.25,35.0,1,1.0,0.28100000000017644
282,11,0.5,0.125,-35.0,-1,1.0,0.370600000000195
283,11,0.5,0.0625,-35.0,-1,1.0,0.35639999999989413
284,11,0.5,0.5,-35.0,-1,1.0,0.4190000000000964
285,11,0.5,0.5,35.0,1,1.0,0.24109999999996035
286,11,0.5,1.0,35.0,1,1.0,0.3534999999997126
287,11,0.5,0.0,35.0,-1,0.0,0.2699000000000069
288,11,0.5,0.125,35.0,1,1.0,0.4054999999998472
289,11,0.5,0.0,35.0,1,1.0,2.4869999999998527
290,11,0.5,0.125,-35.0,-1,1.0,0.6124999999997272
291,11,0.5,0.25,35.0,1,1.0,0.4316999999998643
292,11,0.5,0.5,35.0,1,1.0,0.11079999999992651
293,11,0.5,0.5,-35.0,-1,1.0,0.526299999999992
294,11,0.5,0.0625,35.0,1,1.0,1.2259999999998854
295,11,0.5,0.25,-35.0,-1,1.0,2.1466999999997824
296,11,0.5,1.0,35.0,1,1.0,0.26929999999993015
297,11,0.5,0.0625,-35.0,-1,1.0,1.378500000000031
298,11,0.5,0.25,-35.0,-1,1.0,0.3704999999999927
299,11,0.5,0.25,-35.0,-1,1.0,0.6487999999999374
300,11,0.5,1.0,-35.0,-1,1.0,0.4715000000001055
301,11,0.5,0.25,-35.0,-1,1.0,0.3307999999999538
302,11,0.5,1.0,-35.0,-1,1.0,0.3065000000001419
303,11,0.5,1.0,-35.0,-1,1.0,0.36239999999975225
304,11,0.5,0.125,35.0,1,1.0,0.2719999999999345
305,11,0.5,0.5,-35.0,-1,1.0,0.4009000000000924
306,11,0.5,0.25,35.0,1,1.0,0.5270999999997912
307,11,0.5,1.0,35.0,1,1.0,0.36249900000007074
308,11,0.5,0.0,-35.0,-1,1.0,2.0786000000000513
309,11,0.5,0.125,-35.0,-1,1.0,0.47410000000013497
310,11,0.5,0.5,35.0,1,1.0,0.3597999999997228
311,11,0.5,0.25,35.0,-1,0.0,5.42269999999985
312,11,0.5,0.0,-35.0,-1,1.0,0.5600999999999203
313,11,0.5,0.0,-35.0,-1,1.0,1.6792999999997846
314,11,0.5,0.25,-35.0,-1,1.0,4.927699999999959
315,11,0.5,0.25,-35.0,-1,1.0,0.31560000000013133
316,11,0.5,1.0,35.0,1,1.0,0.3812000000000353
317,11,0.5,0.25,-35.0,-1,1.0,0.3405999999999949
318,11,0.5,0.0625,-35.0,1,0.0,6.0733000000000175
319,11,0.5,0.25,-35.0,-1,1.0,2.917900000000145
320,11,0.5,0.0625,-35.0,-1,1.0,0.8420999999998457
321,11,0.5,0.125,-35.0,-1,1.0,2.268299999999954
322,11,0.5,0.125,35.0,1,1.0,6.133399999999938
323,11,0.5,0.125,35.0,1,1.0,0.3347999999998592
324,11,0.5,0.125,-35.0,-1,1.0,1.8340999999998076
325,11,0.5,0.0,-35.0,-1,1.0,1.8449000000000524
326,11,0.5,0.0625,35.0,-1,0.0,0.46080000000006294
327,11,0.3,0.0625,35.0,-1,0.0,2.909700000000157
328,11,0.5,0.5,35.0,1,1.0,0.6347999999998137
329,11,0.5,1.0,35.0,1,1.0,0.5801000000001295
330,11,0.5,0.125,-35.0,-1,1.0,0.5230999999998858
331,11,0.5,0.0,35.0,1,1.0,0.3583000000000993
332,11,0.5,0.125,-35.0,-1,1.0,0.26759999999990214
333,11,0.5,0.25,-35.0,-1,1.0,0.28680000000008476
334,11,0.5,0.125,35.0,1,1.0,0.5462999999999738
335,11,0.5,0.0625,35.0,1,1.0,0.3572999999998956
336,11,0.5,0.125,35.0,-1,0.0,9.126299999999901
337,11,0.5,0.0625,35.0,-1,0.0,9.035899999999856
338,11,0.5,0.0625,-35.0,-1,1.0,6.582200000000057
339,11,0.5,0.5,35.0,1,1.0,9.93289999999979
340,11,0.5,0.0625,-35.0,1,0.0,1.7958999999998468
341,11,0.5,0.0,-35.0,-1,1.0,1.7106999999998607
342,11,0.5,0.0625,35.0,-1,0.0,0.646199999999908
343,11,0.5,0.25,-35.0,-1,1.0,2.173300000000154
344,11,0.5,1.0,-35.0,-1,1.0,0.4719000000000051
345,11,0.5,0.0625,-35.0,1,0.0,14.001500000000078
346,11,0.5,0.0625,35.0,1,1.0,0.31589999999982865
347,11,0.5,0.125,-35.0,-1,1.0,10.958099999999831
348,11,0.5,0.5,-35.0,-1,1.0,0.32760000000007494
349,11,0.5,0.0,35.0,-1,0.0,0.3003000000001066
350,11,0.3,0.0,35.0,1,1.0,35.678899999999885
351,11,0.5,1.0,35.0,1,1.0,2.347400000000107
352,11,0.5,0.125,-35.0,-1,1.0,1.1931999999999334
353,11,0.5,0.5,35.0,1,1.0,3.082200000000057
354,11,0.5,0.5,35.0,1,1.0,1.8163999999997031
355,11,0.5,0.5,35.0,1,1.0,0.5955999999998767
356,11,0.5,1.0,35.0,1,1.0,1.8346999999998843
357,11,0.5,0.0625,35.0,1,1.0,6.6565999999997985
358,11,0.5,0.125,-35.0,-1,1.0,0.4877999999998792
359,11,0.5,0.25,35.0,1,1.0,3.840099999999893
360,11,0.5,0.25,-35.0,-1,1.0,0.2848999999998796
361,11,0.5,0.0,35.0,1,1.0,1.6675000000000182
362,11,0.5,0.125,-35.0,-1,1.0,0.5631000000000768
363,11,0.5,1.0,35.0,1,1.0,0.3024000000000342
364,11,0.5,1.0,-35.0,-1,1.0,0.4214999999999236
365,11,0.5,0.125,35.0,1,1.0,1.8081999999999425
366,11,0.5,0.5,35.0,1,1.0,0.27330000000006294
367,11,0.5,0.0625,-35.0,-1,1.0,23.7492000000002
368,11,0.5,1.0,-35.0,-1,1.0,0.3908999999998741
369,11,0.5,1.0,35.0,1,1.0,0.36410000000000764
370,11,0.5,0.0625,-35.0,-1,1.0,0.4656999999999698
371,11,0.5,0.125,-35.0,-1,1.0,0.4415999999998803
372,11,0.5,0.125,35.0,1,1.0,2.1273999999998523
373,11,0.5,0.125,35.0,-1,0.0,0.39249999999992724
374,11,0.4,0.125,35.0,-1,0.0,0.6548999999999978
375,11,0.5,1.0,-35.0,-1,1.0,0.2576000000001386
376,11,0.5,0.25,-35.0,-1,1.0,0.4834000000000742
377,11,0.5,0.5,35.0,1,1.0,1.06899999999996
378,11,0.5,0.25,35.0,1,1.0,0.8541999999999916
379,11,0.5,1.0,-35.0,-1,1.0,1.0633000000000266
380,11,0.5,0.0,-35.0,1,0.0,0.435399999999845
381,11,0.5,0.125,35.0,1,1.0,2.65079999999989
382,11,0.5,0.0625,-35.0,-1,1.0,0.8523000000000138
383,11,0.5,0.0625,-35.0,-1,1.0,3.9187999999999192
384,11,0.5,0.5,-35.0,-1,1.0,6.7697000000002845
385,11,0.5,0.25,35.0,1,1.0,0.4396999999999025
386,11,0.5,0.25,-35.0,-1,1.0,0.45549999999980173
387,11,0.5,0.125,-35.0,-1,1.0,0.4079999999999018
388,11,0.5,0.25,-35.0,-1,1.0,0.3444000000001779
389,11,0.5,1.0,-35.0,-1,1.0,0.3327999999999065
390,11,0.5,0.5,-35.0,-1,1.0,0.5487000000000535
391,11,0.5,0.5,35.0,1,1.0,0.4777000000001408
392,11,0.5,0.0625,-35.0,-1,1.0,12.093799999999874
393,11,0.5,0.125,35.0,1,1.0,1.0961999999999534
394,11,0.5,0.125,-35.0,1,0.0,1.7350999999998749
395,11,0.5,0.25,-35.0,-1,1.0,0.4772000000000389
396,11,0.5,0.125,-35.0,-1,1.0,0.4493999999999687
397,11,0.5,1.0,-35.0,-1,1.0,0.34829999999988104
398,11,0.5,0.0625,-35.0,-1,1.0,10.527599999999893
399,11,0.5,1.0,35.0,1,1.0,0.3402000000000953
400,11,0.5,0.125,-35.0,-1,1.0,3.8595000000000255
401,11,0.5,0.5,35.0,1,1.0,0.28099999999994907
402,11,0.5,0.25,-35.0,-1,1.0,0.4040989999998601
403,11,0.5,0.25,-35.0,-1,1.0,0.5196000000000822
404,11,0.5,1.0,-35.0,-1,1.0,0.3324999999999818
405,11,0.5,0.125,35.0,1,1.0,0.6679999999998927
406,11,0.5,0.0625,35.0,1,1.0,4.599899999999934
407,11,0.5,0.25,35.0,1,1.0,0.36190000000010514
408,11,0.5,0.5,-35.0,-1,1.0,0.9705989999999929
409,11,0.5,0.5,-35.0,-1,1.0,1.6924999999998818
410,11,0.5,0.0,35.0,1,1.0,0.7378000000001066
411,11,0.5,0.25,-35.0,-1,1.0,5.969299999999976
412,11,0.5,1.0,-35.0,-1,1.0,3.1605999999999312
413,11,0.5,0.5,35.0,1,1.0,0.25549999999998363
414,11,0.5,0.5,35.0,1,1.0,0.4411999999999807
415,11,0.5,0.25,-35.0,-1,1.0,0.883199999999988
416,11,0.5,0.5,35.0,1,1.0,0.32549999999991996
417,11,0.5,0.0625,35.0,-1,0.0,3.9216999999998734
418,11,0.5,0.0,-35.0,-1,1.0,0.3731999999999971
419,11,0.5,0.5,-35.0,-1,1.0,0.5125000000000455
420,11,0.5,0.0,-35.0,1,0.0,1.7146000000000186
421,11,0.5,0.125,35.0,1,1.0,1.8969999999999345
422,11,0.5,0.125,35.0,1,1.0,8.7654
423,11,0.5,0.25,-35.0,-1,1.0,0.5247999999999138
424,11,0.5,0.125,35.0,1,1.0,0.5640000000000782
425,11,0.5,1.0,35.0,1,1.0,0.22620000000006257
426,11,0.5,0.5,35.0,1,1.0,2.611699999999928
427,11,0.5,1.0,35.0,1,1.0,0.23039999999991778
428,11,0.5,0.25,-35.0,-1,1.0,0.5130999999998949
429,11,0.5,0.5,35.0,1,1.0,0.3955000000000837
430,11,0.5,0.25,-35.0,-1,1.0,0.151299999999992
431,11,0.5,0.25,-35.0,-1,1.0,0.5342000000000553
432,11,0.5,0.125,-35.0,1,0.0,0.8234999999999673
433,11,0.6,0.125,-35.0,-1,1.0,0.29919999999992797
434,11,0.5,0.5,35.0,1,1.0,0.028199999999969805
435,11,0.5,0.0625,35.0,1,1.0,5.075399999999945
436,11,0.5,0.0625,-35.0,1,0.0,0.3531000000000404
437,11,0.5,0.0625,35.0,-1,0.0,6.815200000000004
438,11,0.5,0.0625,-35.0,-1,1.0,1.6153999999999087
439,11,0.5,1.0,35.0,1,1.0,1.830600000000004
440,11,0.5,1.0,35.0,1,1.0,1.599798999999848
441,11,0.5,0.25,-35.0,1,0.0,7.13839999999982
442,11,0.5,0.25,-35.0,-1,1.0,8.664900000000216
443,11,0.5,0.5,35.0,1,1.0,16.9849999999999
444,11,0.5,0.5,-35.0,-1,1.0,0.27569999999991524
445,11,0.5,1.0,35.0,1,1.0,0.737999999999829
446,11,0.5,0.0,35.0,-1,0.0,5.7111999999999625
447,11,0.5,0.0,35.0,-1,0.0,1.193899999999985
448,11,0.5,0.0625,-35.0,-1,1.0,0.3756999999998243
449,11,0.5,0.125,-35.0,-1,1.0,0.6316000000001623
450,11,0.5,0.25,-35.0,-1,1.0,0.35740000000009786
451,11,0.5,0.25,35.0,1,1.0,0.34699999999998
452,11,0.5,0.5,35.0,-1,0.0,0.8362000000001899
453,11,0.5,0.25,35.0,-1,0.0,1.5213999999998578
454,11,0.5,0.125,-35.0,-1,1.0,2.5
455,11,0.5,1.0,-35.0,-1,1.0,0.5021999999996751
456,11,0.5,0.0625,35.0,1,1.0,1.4745000000000346
457,11,0.5,0.5,-35.0,-1,1.0,0.36340000000018335
458,11,0.5,0.125,-35.0,-1,1.0,0.23509999999987485
459,11,0.5,0.0,-35.0,-1,1.0,0.3888999999999214
460,11,0.5,1.0,-35.0,-1,1.0,0.4885999999999058
461,11,0.5,0.0,35.0,-1,0.0,0.6077999999999975
462,11,0.5,0.125,35.0,1,1.0,1.4169999999999163
463,11,0.5,0.5,35.0,1,1.0,1.0587000000000444
464,11,0.5,1.0,35.0,1,1.0,5.49109999999996
465,11,0.5,1.0,-35.0,-1,1.0,0.47479999999995925
466,11,0.5,0.5,-35.0,-1,1.0,0.5842000000000098
467,11,0.5,0.25,-35.0,-1,1.0,1.2340999999998985
468,11,0.5,0.0,35.0,-1,0.0,5.518699999999853
469,11,0.5,0.25,35.0,-1,0.0,9.429999999999836
470,11,0.5,0.0625,35.0,-1,0.0,3.622899999999845
471,11,0.3,0.0625,35.0,1,1.0,7.697799999999916
472,11,0.5,0.5,35.0,1,1.0,1.4270999999998821
473,11,0.5,0.5,-35.0,-1,1.0,0.30929999999989377
474,11,0.5,1.0,-35.0,-1,1.0,0.23190000000022337
475,11,0.5,0.0625,-35.0,-1,1.0,7.074100000000044
476,11,0.5,0.0625,-35.0,-1,1.0,0.5749000000000706
477,11,0.5,0.0,-35.0,-1,1.0,20.48070000000007
478,11,0.5,0.0625,35.0,-1,0.0,0.593599999999924
479,11,0.2,0.0625,35.0,1,1.0,19.62220000000002
480,11,0.5,1.0,35.0,1,1.0,1.5247999999999138
481,11,0.5,0.5,-35.0,-1,1.0,0.27340000000003783
482,11,0.5,0.0625,35.0,1,1.0,49.556299999999965
483,11,0.5,0.125,-35.0,-1,1.0,2.0364000000004125
484,11,0.5,0.0,-35.0,1,0.0,48.95820000000049
485,11,0.5,0.125,-35.0,-1,1.0,18.694500000000062
486,11,0.5,1.0,-35.0,-1,1.0,0.8454000000001543
1,12,0.5,0.25,35.0,-1,0.0,0.19930000000000092
2,12,0.5,0.125,35.0,-1,0.0,0.3003
3,12,0.8,0.125,-35.0,-1,1.0,0.3366999999999969
4,12,0.5,0.5,-35.0,-1,1.0,0.4596999999999998
5,12,0.5,0.25,35.0,1,1.0,0.8216000000000001
6,12,0.5,0.125,-35.0,-1,1.0,0.2272999999999996
7,12,0.5,0.125,-35.0,-1,1.0,0.6859999999999999
8,12,0.5,0.0625,-35.0,-1,1.0,0.22499999999999432
9,12,0.5,1.0,35.0,-1,0.0,0.2008999999999972
10,12,0.5,0.25,35.0,1,1.0,1.2306999999999988
11,12,0.5,0.0625,-35.0,-1,1.0,0.7080999999999946
12,12,0.5,0.0625,35.0,-1,0.0,0.940499999999993
13,12,0.5,0.125,35.0,-1,0.0,0.25959999999999894
14,12,0.2,0.125,-35.0,-1,1.0,0.1565999999999974
15,12,0.5,1.0,35.0,1,1.0,0.3668000000000049
16,12,0.5,0.25,35.0,1,1.0,0.25489999999999213
17,12,0.5,0.125,-35.0,-1,1.0,0.7066999999999979
18,12,0.5,0.125,-35.0,-1,1.0,0.22969999999999402
19,12,0.5,1.0,35.0,1,1.0,0.361699999999999
20,12,0.5,0.125,-35.0,-1,1.0,0.7330999999999932
21,12,0.5,0.0625,-35.0,-1,1.0,0.28070000000001016
22,12,0.5,0.125,-35.0,-1,1.0,0.2592999999999961
23,12,0.5,0.125,-35.0,-1,1.0,0.2167999999999921
24,12,0.5,0.25,35.0,1,1.0,0.38100000000001444
25,12,0.5,0.0625,35.0,-1,0.0,0.22849999999999682
26,12,0.5,0.125,-35.0,1,0.0,0.21160000000000423
27,12,0.5,0.0625,35.0,1,1.0,0.2792999999999921
28,12,0.5,0.0,35.0,1,1.0,0.3352999999999895
29,12,0.5,0.0625,35.0,1,1.0,0.29349999999999454
30,12,0.5,0.125,35.0,1,1.0,0.36469999999999914
31,12,0.5,0.125,35.0,1,1.0,0.3409000000000191
32,12,0.5,0.25,-35.0,-1,1.0,0.2336999999999989
33,12,0.5,0.0,-35.0,-1,1.0,0.1677999999999713
34,12,0.5,0.0625,-35.0,-1,1.0,0.22550000000001091
35,12,0.5,1.0,35.0,1,1.0,0.19890000000000896
36,12,0.5,0.25,-35.0,1,0.0,0.48919999999998254
37,12,0.5,0.125,-35.0,-1,1.0,0.2560000000000002
38,12,0.5,1.0,-35.0,-1,1.0,0.2155999999999949
39,12,0.5,0.0625,-35.0,-1,1.0,0.2419999999999618
40,12,0.5,0.125,-35.0,-1,1.0,0.23210000000000264
41,12,0.5,0.25,-35.0,-1,1.0,0.18700000000001182
42,12,0.5,1.0,-35.0,-1,1.0,0.5747000000000071
43,12,0.5,0.0625,-35.0,-1,1.0,0.29829999999998336
44,12,0.5,0.25,-35.0,-1,1.0,0.17029899999999998
45,12,0.5,0.125,-35.0,-1,1.0,0.2442000000000064
46,12,0.5,0.0625,35.0,-1,0.0,0.18460000000001742
47,12,0.5,0.0625,-35.0,-1,1.0,0.27640000000002374
48,12,0.5,0.125,-35.0,-1,1.0,0.2686999999999955
49,12,0.5,0.0625,-35.0,-1,1.0,0.21929999999997563
50,12,0.5,0.125,-35.0,-1,1.0,0.08750000000000568
51,12,0.5,0.0625,35.0,-1,0.0,0.16159999999999286
52,12,0.0,0.0625,35.0,-1,0.0,0.05449999999999022
53,12,0.5,1.0,35.0,1,1.0,0.21639999999999304
54,12,0.5,0.0625,35.0,1,1.0,0.3258999999999901
55,12,0.5,0.125,-35.0,-1,1.0,0.2483000000000004
56,12,0.5,0.125,35.0,1,1.0,0.45640000000000214
57,12,0.5,0.25,-35.0,1,0.0,2.0056000000000154
58,12,0.5,0.25,-35.0,1,0.0,0.7452000000000112
59,12,0.5,0.0625,-35.0,-1,1.0,0.3064000000000249
60,12,0.5,0.25,35.0,1,1.0,0.4293999999999869
61,12,0.5,0.0625,-35.0,-1,1.0,0.24370000000001824
62,12,0.5,0.25,-35.0,-1,1.0,0.2488999999999919
63,12,0.5,1.0,-35.0,-1,1.0,0.45019999999999527
64,12,0.5,0.25,-35.0,-1,1.0,0.16509999999999536
65,12,0.5,0.125,35.0,-1,0.0,0.373800000000017
66,12,0.5,0.0625,-35.0,1,0.0,0.5287999999999897
67,12,0.5,0.0625,35.0,-1,0.0,0.19720000000000937
68,12,0.5,0.25,-35.0,-1,1.0,0.23550000000000182
69,12,0.5,0.125,35.0,1,1.0,0.4926999999999566
70,12,0.5,1.0,-35.0,-1,1.0,0.3227000000000544
71,12,0.5,0.25,-35.0,-1,1.0,0.23900000000003274
72,12,0.5,1.0,35.0,-1,0.0,0.3727999999999838
73,12,0.5,0.0625,35.0,-1,0.0,0.3332999999999515
74,12,0.5,0.125,35.0,-1,0.0,0.22129999999998518
75,12,0.5,0.0625,35.0,-1,0.0,0.2218000000000302
76,12,0.5,0.0625,-35.0,-1,1.0,0.26789999999999736
77,12,0.5,1.0,35.0,1,1.0,0.2348999999999819
78,12,0.5,0.125,-35.0,-1,1.0,0.342899999999986
79,12,0.5,0.25,-35.0,-1,1.0,0.2329000000000292
80,12,0.5,0.25,35.0,1,1.0,0.27890000000002146
81,12,0.5,1.0,-35.0,-1,1.0,0.16489999999998872
82,12,0.5,0.0,35.0,-1,0.0,0.24439999999998463
83,12,0.2,0.0,35.0,1,1.0,3.2305000000000064
84,12,0.5,1.0,35.0,1,1.0,0.2417000000000371
85,12,0.5,0.0625,-35.0,-1,1.0,0.34140000000002146
86,12,0.5,0.0,-35.0,-1,1.0,0.7589999999999577
87,12,0.5,0.0625,35.0,1,1.0,0.5289999999999964
88,12,0.5,0.0,-35.0,-1,1.0,0.2589999999999577
89,12,0.5,0.0,-35.0,1,0.0,1.025799999999947
90,12,0.5,0.0,35.0,-1,0.0,0.22549999999995407
91,12,0.5,1.0,-35.0,-1,1.0,0.06499999999999773
92,12,0.5,0.0,-35.0,-1,1.0,0.20100000000002183
93,12,0.5,0.0,35.0,-1,0.0,0.29579999999998563
94,12,0.5,0.0,-35.0,-1,1.0,0.24560000000002447
95,12,0.5,0.0625,35.0,-1,0.0,0.33279899999996587
96,12,0.2,0.0625,35.0,1,1.0,2.8899999999999864
97,12,0.5,1.0,35.0,1,1.0,0.3200999999999681
98,12,0.5,1.0,-35.0,-1,1.0,0.2857000000000198
99,12,0.5,0.25,35.0,1,1.0,0.11439999999998918
100,12,0.5,0.0,35.0,1,1.0,0.5668999999999755
101,12,0.5,0.0625,35.0,1,1.0,0.31409999999999627
102,12,0.5,0.0625,-35.0,1,0.0,0.39699999999999136
103,12,0.5,0.125,35.0,-1,0.0,2.6972000000000094
104,12,0.6,0.125,-35.0,-1,1.0,0.8926999999999339
105,12,0.5,1.0,35.0,1,1.0,0.3604000000000269
106,12,0.5,1.0,-35.0,1,0.0,0.12879999999995562
107,12,0.5,0.125,-35.0,1,0.0,3.445899999999938
108,12,0.5,0.25,-35.0,-1,1.0,0.28340000000002874
109,12,0.5,0.125,-35.0,-1,1.0,0.1805999999999699
110,12,0.5,0.125,-35.0,-1,1.0,0.4115000000000464
111,12,0.5,0.0625,35.0,1,1.0,0.6745999999999981
112,12,0.5,0.0625,35.0,1,1.0,0.4119999999999777
113,12,0.5,0.25,35.0,1,1.0,0.42399999999997817
114,12,0.5,0.0,35.0,1,1.0,1.4473999999999592
115,12,0.5,0.0,-35.0,1,0.0,3.164800000000014
116,12,0.5,0.0625,-35.0,-1,1.0,0.2817000000000007
117,12,0.5,0.25,-35.0,-1,1.0,0.4519000000000233
118,12,0.5,0.0625,-35.0,-1,1.0,0.16570000000001528
119,12,0.5,0.125,-35.0,-1,1.0,0.6467000000000098
120,12,0.5,0.125,35.0,1,1.0,0.7169000000000096
121,12,0.5,1.0,35.0,1,1.0,0.36950000000001637
122,12,0.5,1.0,-35.0,-1,1.0,0.4613000000000511
123,12,0.5,0.0,-35.0,-1,1.0,0.24689999999998236
124,12,0.5,0.125,35.0,-1,0.0,0.24149999999997362
125,12,0.5,0.0625,-35.0,-1,1.0,3.0218999999999596
126,12,0.5,0.0,35.0,-1,0.0,0.2321999999999207
127,12,0.5,0.0,35.0,-1,0.0,0.31189999999992324
128,12,0.5,0.25,35.0,-1,0.0,0.3025000000000091
129,12,0.2,0.25,-35.0,-1,1.0,0.2665999999999258
130,12,0.5,1.0,35.0,1,1.0,0.36000000000001364
131,12,0.5,0.0,-35.0,-1,1.0,2.411399999999958
132,12,0.5,0.25,-35.0,-1,1.0,0.28089999999997417
133,12,0.5,1.0,35.0,1,1.0,0.43209999999999127
134,12,0.5,0.0625,35.0,1,1.0,0.5443000000000211
135,12,0.5,0.0625,35.0,-1,0.0,0.3001999999999043
136,12,0.5,0.25,-35.0,-1,1.0,0.3610999999999649
137,12,0.5,0.125,-35.0,-1,1.0,0.7104000000000497
138,12,0.5,0.0625,35.0,-1,0.0,2.5860000000000127
139,12,0.5,0.125,35.0,-1,0.0,0.38220000000001164
140,12,0.5,0.125,-35.0,-1,1.0,3.2370999999999412
141,12,0.5,0.125,-35.0,-1,1.0,0.24250000000006366
142,12,0.5,1.0,-35.0,-1,1.0,0.17270000000007713
143,12,0.5,1.0,-35.0,1,0.0,0.7937999999999192
144,12,0.5,0.125,-35.0,-1,1.0,3.855000000000018
145,12,0.5,0.0625,35.0,-1,0.0,0.23300000000006094
146,12,0.5,0.25,35.0,-1,0.0,0.23670000000004165
147,12,0.5,0.125,35.0,-1,0.0,0.2017999999999347
148,12,0.5,0.125,35.0,-1,0.0,0.0808999999999287
149,12,0.5,0.25,-35.0,-1,1.0,0.28530000000012024
150,12,0.5,1.0,35.0,1,1.0,0.20619999999996708
151,12,0.5,0.0625,-35.0,-1,1.0,0.24210000000005039
152,12,0.5,1.0,-35.0,-1,1.0,0.21400000000005548
153,12,0.5,0.0625,35.0,-1,0.0,0.1817999999999529
154,12,0.5,0.0625,-35.0,-1,1.0,3.0496009999999387
155,12,0.5,0.125,-35.0,-1,1.0,0.5252009999999245
156,12,0.5,1.0,35.0,1,1.0,0.2576009999999087
157,12,0.5,1.0,35.0,1,1.0,0.47299999999984266
158,12,0.5,0.125,-35.0,-1,1.0,0.4130010000000084
159,12,0.5,1.0,35.0,-1,0.0,0.1790009999999711
160,12,0.5,0.25,35.0,-1,0.0,0.18730100000004768
161,12,0.5,0.0625,-35.0,-1,1.0,0.2838009999999258
162,12,0.5,0.25,35.0,1,1.0,0.596100999999976
163,12,0.5,0.25,35.0,1,1.0,0.38310100000001057
164,12,0.5,0.25,-35.0,-1,1.0,0.23240099999998165
165,12,0.5,0.25,-35.0,-1,1.0,0.4025010000000293
166,12,0.5,0.25,35.0,-1,0.0,0.24250099999994745
167,12,0.5,0.25,35.0,-1,0.0,1.6274009999999635
168,12,0.2,0.25,-35.0,-1,1.0,0.39870099999996
169,12,0.5,1.0,35.0,1,1.0,0.9920009999999593
170,12,0.5,0.25,35.0,1,1.0,3.3136009999999487
171,12,0.5,0.25,-35.0,-1,1.0,0.24910099999999602
172,12,0.5,0.125,-35.0,-1,1.0,2.250701000000049
173,12,0.5,0.125,-35.0,1,0.0,0.757300999999984
174,12,0.5,0.0625,35.0,-1,0.0,0.24520099999995182
175,12,0.5,0.25,35.0,1,1.0,0.33550100000002203
176,12,0.5,0.25,-35.0,-1,1.0,0.21309999999994034
177,12,0.5,1.0,-35.0,-1,1.0,0.170900999999958
178,12,0.5,0.0,35.0,-1,0.0,3.285201000000029
179,12,0.5,0.25,35.0,-1,0.0,0.21650099999999384
180,12,0.3,0.25,35.0,1,1.0,0.35920099999998456
181,12,0.5,1.0,35.0,1,1.0,0.2332010000000082
182,12,0.5,0.25,-35.0,-1,1.0,0.22490099999993163
183,12,0.5,0.125,35.0,1,1.0,0.8172010000000682
184,12,0.5,0.25,-35.0,1,0.0,0.5724009999998998
185,12,0.5,0.0625,-35.0,-1,1.0,2.3633010000000922
186,12,0.5,0.25,35.0,-1,0.0,0.2333009999999831
187,12,0.5,0.0625,-35.0,-1,1.0,0.4558009999999513
188,12,0.5,0.0,-35.0,-1,1.0,4.554000999999971
189,12,0.5,0.25,-35.0,-1,1.0,0.3442010000001119
190,12,0.5,0.25,-35.0,-1,1.0,0.3305010000000266
191,12,0.5,0.125,-35.0,-1,1.0,0.31120099999998274
192,12,0.5,0.25,35.0,1,1.0,0.80820099999994
193,12,0.5,0.25,-35.0,-1,1.0,0.17220099999997274
194,12,0.5,0.0625,-35.0,-1,1.0,0.7249010000000453
195,12,0.5,0.0,-35.0,-1,1.0,0.21220099999993636
196,12,0.5,0.0625,35.0,-1,0.0,0.18360099999995327
197,12,0.5,0.125,-35.0,-1,1.0,0.22660099999995964
198,12,0.5,0.125,-35.0,-1,1.0,0.22800099999994927
199,12,0.5,0.0625,35.0,-1,0.0,0.17730100000005677
200,12,0.1,0.0625,35.0,-1,0.0,0.030800999999996748
201,12,0.5,1.0,35.0,1,1.0,0.30940099999986614
202,12,0.5,1.0,35.0,-1,0.0,0.08550100000002203
203,12,0.1,1.0,35.0,1,1.0,0.2653010000000222
204,12,0.5,1.0,35.0,1,1.0,0.31480100000010225
205,12,0.5,0.25,-35.0,-1,1.0,0.19670099999996182
206,12,0.5,0.125,35.0,-1,0.0,0.19360100000005787
207,12,0.5,0.0,-35.0,-1,1.0,0.26230099999997947
208,12,0.5,1.0,-35.0,-1,1.0,0.17970100000002276
209,12,0.5,0.0625,35.0,-1,0.0,0.22230100000001585
210,12,0.5,0.0,35.0,-1,0.0,2.256501000000071
211,12,0.5,0.0625,-35.0,-1,1.0,0.024201000000061867
212,12,0.5,0.0625,35.0,-1,0.0,0.191400999999928
213,12,0.2,0.0625,35.0,-1,0.0,0.29490099999998165
214,12,0.5,1.0,35.0,-1,0.0,0.283800000000042
215,12,0.0,1.0,35.0,1,1.0,0.28110100000003513
216,12,0.5,1.0,35.0,1,1.0,0.3441010000000233
217,12,0.5,0.125,35.0,-1,0.0,0.23900100000003022
218,12,0.5,0.0625,-35.0,-1,1.0,0.27500099999997474
219,12,0.5,0.125,-35.0,-1,1.0,0.227600999999936
220,12,0.5,0.25,-35.0,-1,1.0,0.20610099999998965
221,12,0.5,0.0625,-35.0,-1,1.0,0.18610099999989416
222,12,0.5,1.0,35.0,1,1.0,0.36550100000010843
223,12,0.5,0.125,35.0,1,1.0,0.6435010000000148
224,12,0.5,1.0,-35.0,-1,1.0,0.36170100000003913
225,12,0.5,0.25,-35.0,-1,1.0,0.08970099999999093
226,12,0.5,0.0625,35.0,-1,0.0,0.16170099999999366
227,12,0.2,0.0625,35.0,1,1.0,0.5029010000000653
228,12,0.5,1.0,35.0,1,1.0,0.5871009999999615
229,12,0.5,0.0,35.0,-1,0.0,0.29850099999998747
230,12,0.5,0.25,35.0,1,1.0,0.33080100000006496
231,12,0.5,0.0625,-35.0,-1,1.0,0.3746009999999842
232,12,0.5,0.0625,35.0,-1,0.0,0.2643009999999322
233,12,0.5,0.0625,-35.0,-1,1.0,0.2984009999998989
234,12,0.5,0.25,-35.0,-1,1.0,0.2552010000000564
235,12,0.5,0.125,35.0,1,1.0,0.44450099999994563
236,12,0.5,0.0625,-35.0,-1,1.0,0.2863009999999804
237,12,0.5,0.25,-35.0,-1,1.0,0.18450099999995473
238,12,0.5,0.125,-35.0,-1,1.0,0.2051010000000133
239,12,0.5,0.125,-35.0,-1,1.0,0.24780100000009497
240,12,0.5,0.125,-35.0,-1,1.0,0.1913009999999531
241,12,0.5,1.0,-35.0,-1,1.0,0.21240099999988615
242,12,0.5,0.25,35.0,-1,0.0,0.189000999999962
243,12,0.5,0.0625,-35.0,-1,1.0,0.1813009999999622
244,12,0.5,0.0,-35.0,-1,1.0,0.1931010000000697
245,12,0.5,0.0,-35.0,-1,1.0,0.1628010000000586
246,12,0.5,0.25,-35.0,-1,1.0,0.0518010000000686
247,12,0.5,0.125,-35.0,-1,1.0,-0.011899000000084925
248,12,0.5,0.0625,35.0,1,1.0,0.7168010000000322
249,12,0.5,0.25,35.0,-1,0.0,0.23200099999985468
250,12,0.5,0.0,-35.0,-1,1.0,0.23760100000004059
251,12,0.5,0.25,35.0,-1,0.0,3.5403009999999995
252,12,0.5,0.0625,35.0,1,1.0,0.534300999999914
253,12,0.5,1.0,35.0,-1,0.0,0.42620099999999184
254,12,0.5,0.125,35.0,-1,0.0,4.0515009999999165
255,12,0.5,0.0625,35.0,-1,0.0,0.27210100000024795
256,12,0.5,0.0625,35.0,-1,0.0,0.31720100000006823
257,12,0.5,0.125,-35.0,-1,1.0,0.40620100000001
258,12,0.5,0.0625,35.0,-1,0.0,0.38220099999989543
259,12,0.5,0.25,35.0,1,1.0,0.3914009999998598
260,12,0.5,0.0,35.0,-1,0.0,0.340300999999954
261,12,0.5,0.125,35.0,1,1.0,0.25610100000017155
262,12,0.5,0.0625,-35.0,-1,1.0,0.37200099999995473
263,12,0.5,1.0,35.0,1,1.0,0.24460099999987506
264,12,0.5,1.0,-35.0,-1,1.0,0.34970099999986815
265,12,0.5,0.0625,35.0,1,1.0,1.1157009999999445
266,12,0.5,0.0625,35.0,1,1.0,0.2641009999999824
267,12,0.5,0.0625,35.0,1,1.0,0.9701010000001133
268,12,0.5,0.125,-35.0,-1,1.0,0.28290100000003804
269,12,0.5,0.0625,35.0,-1,0.0,0.23830100000009224
270,12,0.5,0.125,35.0,1,1.0,0.20670099999983904
271,12,0.5,0.0625,35.0,1,1.0,1.5162010000001374
272,12,0.5,0.0625,35.0,-1,0.0,0.24130099999979393
273,12,0.5,0.0625,-35.0,1,0.0,0.15030099999989943
274,12,0.5,0.125,35.0,1,1.0,0.2732010000001992
275,12,0.5,0.125,-35.0,1,0.0,1.2956010000000333
276,12,0.5,0.25,-35.0,1,0.0,0.2371010000001661
277,12,0.5,0.25,-35.0,-1,1.0,0.25630100000012135
278,12,0.5,0.0625,-35.0,-1,1.0,0.24850099999980557
279,12,0.5,0.0625,-35.0,-1,1.0,0.26100099999985105
280,12,0.5,0.0,-35.0,-1,1.0,0.2573010000000977
281,12,0.5,0.0625,35.0,-1,0.0,0.5154010000001108
282,12,0.5,0.25,35.0,1,1.0,0.4513010000000577
283,12,0.5,0.125,35.0,1,1.0,0.27320099999974445
284,12,0.5,0.0625,-35.0,-1,1.0,0.27860099999998056
285,12,0.5,0.0625,-35.0,-1,1.0,0.23070099999995364
286,12,0.5,1.0,35.0,1,1.0,0.25000100000011116
287,12,0.5,0.125,-35.0,-1,1.0,0.41920099999993
288,12,0.5,0.25,-35.0,-1,1.0,0.3242010000001301
289,12,0.5,1.0,35.0,1,1.0,0.2872010000000955
290,12,0.5,0.25,35.0,-1,0.0,0.46250099999997474
291,12,0.5,0.0625,35.0,-1,0.0,0.3265010000000075
292,12,0.4,0.0625,35.0,1,1.0,0.3486009999999169
293,12,0.5,1.0,-35.0,-1,1.0,0.2675010000000384
294,12,0.5,1.0,35.0,1,1.0,0.2231010000000424
295,12,0.5,0.125,-35.0,-1,1.0,0.32560099999977865
296,12,0.5,0.0,35.0,-1,0.0,4.008100999999897
297,12,0.3,0.0,35.0,1,1.0,0.198900999999978
298,12,0.5,1.0,35.0,1,1.0,0.2052009999999882
299,12,0.5,0.0625,-35.0,-1,1.0,0.4172009999999773
300,12,0.5,0.25,-35.0,1,0.0,0.39340100000003986
301,12,0.5,0.125,-35.0,1,0.0,0.07920100000001185
302,12,0.5,0.25,35.0,1,1.0,0.28770099999997
303,12,0.5,0.0,35.0,-1,0.0,0.12020099999995182
304,12,0.5,0.0625,-35.0,-1,1.0,0.4690009999999347
305,12,0.5,1.0,35.0,1,1.0,1.0715009999998983
306,12,0.5,0.0625,35.0,1,1.0,0.2801009999998314
307,12,0.5,0.25,-35.0,-1,1.0,0.7885009999999966
308,12,0.5,0.0625,35.0,-1,0.0,1.1512010000001283
309,12,0.5,0.125,-35.0,-1,1.0,0.17000100000018392
310,12,0.5,0.0,35.0,-1,0.0,0.5096009999999751
311,12,0.5,0.0625,-35.0,-1,1.0,1.0747010000000046
312,12,0.5,0.125,-35.0,-1,1.0,0.23390100000005987
313,12,0.5,0.125,35.0,1,1.0,0.27280099999984486
314,12,0.5,0.0625,35.0,-1,0.0,0.32870099999991
315,12,0.3,0.0625,-35.0,-1,1.0,0.26460099999985687
316,12,0.5,1.0,-35.0,-1,1.0,0.3406009999998787
317,12,0.5,0.25,35.0,1,1.0,0.213600999999926
318,12,0.5,0.25,35.0,1,1.0,0.2750010000002021
319,12,0.5,0.25,35.0,1,1.0,0.22110099999986232
320,12,0.5,0.0625,35.0,1,1.0,0.2995009999999638
321,12,0.5,0.25,-35.0,-1,1.0,0.1949010000000726
322,12,0.5,1.0,35.0,1,1.0,0.257600999999795
323,12,0.5,1.0,-35.0,-1,1.0,0.22950100000025486
324,12,0.5,0.25,35.0,1,1.0,0.2356009999998605
325,12,0.5,0.125,35.0,1,1.0,1.1413010000001123
326,12,0.5,0.25,-35.0,-1,1.0,0.20020099999987906
327,12,0.5,0.0625,35.0,-1,0.0,0.4660009999997783
328,12,0.5,0.125,-35.0,-1,1.0,0.189000999999962
329,12,0.5,0.25,35.0,1,1.0,0.269600999999966
330,12,0.5,0.0625,35.0,-1,0.0,0.25840100000004895
331,12,0.5,0.0625,35.0,1,1.0,0.4406010000000151
332,12,0.5,0.125,-35.0,-1,1.0,0.2432009999999991
333,12,0.5,0.125,-35.0,-1,1.0,1.1755009999999402
334,12,0.5,0.25,35.0,1,1.0,0.2211010000000897
335,12,0.5,0.25,35.0,1,1.0,0.4471010000002025
336,12,0.5,0.0625,35.0,-1,0.0,0.38530100000002676
337,12,0.4,0.0625,-35.0,1,0.0,0.11790100000007442
338,12,0.5,1.0,-35.0,-1,1.0,0.5569010000001526
339,12,0.5,0.0,35.0,1,1.0,0.9262009999999918
340,12,0.5,0.125,35.0,1,1.0,0.32120099999997365
341,12,0.5,0.25,-35.0,-1,1.0,0.5109009999998761
342,12,0.5,0.125,35.0,1,1.0,0.269600999999966
343,12,0.5,0.0,35.0,-1,0.0,0.3888010000000577
344,12,0.5,0.0625,35.0,1,1.0,0.7244010000001708
345,12,0.5,0.0625,-35.0,-1,1.0,0.35320100000012644
346,12,0.5,0.125,-35.0,1,0.0,0.41200099999991835
347,12,0.5,0.0,35.0,-1,0.0,0.3145009999998365
348,12,0.5,0.125,35.0,1,1.0,0.28060100000016064
349,12,0.5,0.0625,-35.0,1,0.0,0.15920099999993909
350,12,0.6,0.0625,-35.0,-1,1.0,0.348500999999942
351,12,0.5,1.0,35.0,1,1.0,0.2575010000000475
352,12,0.5,1.0,-35.0,-1,1.0,0.3201010000000224
353,12,0.5,1.0,-35.0,-1,1.0,0.2094009999998434
354,12,0.5,0.125,-35.0,-1,1.0,0.292500999999902
355,12,0.5,1.0,35.0,1,1.0,0.22840099999984886
356,12,0.5,0.125,-35.0,-1,1.0,0.2636009999998805
357,12,0.5,1.0,35.0,1,1.0,0.2434009999999489
358,12,0.5,1.0,-35.0,-1,1.0,0.2052009999999882
359,12,0.5,0.125,-35.0,-1,1.0,0.3870009999998274
360,12,0.5,0.125,-35.0,-1,1.0,0.2692010000000664
361,12,0.5,0.25,-35.0,-1,1.0,0.18220099999984996
362,12,0.5,0.0625,35.0,-1,0.0,0.2309010000001308
363,12,0.2,0.0625,-35.0,-1,1.0,0.35350099999982376
364,12,0.5,1.0,-35.0,-1,1.0,0.30930100000000493
365,12,0.5,0.25,35.0,1,1.0,0.27830100000005586
366,12,0.5,0.0625,-35.0,-1,1.0,0.20680099999981394
367,12,0.5,0.125,35.0,1,1.0,1.020001000000093
368,12,0.5,0.25,35.0,1,1.0,0.6848010000001068
369,12,0.5,0.0625,-35.0,-1,1.0,0.3807009999998172
370,12,0.5,0.25,-35.0,-1,1.0,0.4120010000001457
371,12,0.5,0.125,-35.0,-1,1.0,0.2513010000000122
372,12,0.5,1.0,35.0,1,1.0,0.37710100000003877
373,12,0.5,0.0625,-35.0,-1,1.0,0.3966009999999187
374,12,0.5,0.0,35.0,-1,0.0,2.585600999999997
375,12,0.5,0.125,-35.0,-1,1.0,0.5900010000002567
376,12,0.5,0.0625,-35.0,-1,1.0,1.305900999999949
377,12,0.5,0.125,-35.0,-1,1.0,0.2579009999999471
378,12,0.5,1.0,35.0,1,1.0,0.3500010000000202
379,12,0.5,1.0,-35.0,-1,1.0,0.2621009999998023
380,12,0.5,0.25,-35.0,-1,1.0,0.2782999999999447
381,12,0.5,0.0625,-35.0,-1,1.0,0.33740099999999984
382,12,0.5,0.25,-35.0,-1,1.0,0.29030100000022685
383,12,0.5,1.0,35.0,1,1.0,0.4288010000000213
384,12,0.5,1.0,35.0,1,1.0,0.6217009999998027
385,12,0.5,0.25,35.0,1,1.0,0.19780100000002676
386,12,0.5,0.0625,-35.0,-1,1.0,0.427000999999791
387,12,0.5,0.25,-35.0,-1,1.0,0.2534009999999398
388,12,0.5,1.0,35.0,1,1.0,0.24570100000005368
389,12,0.5,0.125,-35.0,-1,1.0,0.2841009999999642
390,12,0.5,0.25,-35.0,-1,1.0,0.24940100000026177
391,12,0.5,0.0,-35.0,1,0.0,0.592000999999982
392,12,0.5,0.25,-35.0,-1,1.0,0.4774010000000999
393,12,0.5,1.0,35.0,1,1.0,0.5303010000000086
394,12,0.5,0.0,-35.0,-1,1.0,0.35600099999987833
395,12,0.5,0.0625,35.0,-1,0.0,0.29130099999997583
396,12,0.5,0.25,35.0,1,1.0,0.22400100000004386
397,12,0.5,1.0,-35.0,-1,1.0,0.2260999999998603
398,12,0.5,0.0,-35.0,-1,1.0,0.31240100000013626
399,12,0.5,0.25,35.0,-1,0.0,0.2979010000001381
400,12,0.5,0.25,-35.0,-1,1.0,0.21050100000002203
401,12,0.5,0.125,35.0,1,1.0,0.4465010000001257
402,12,0.5,0.25,-35.0,-1,1.0,0.058400999999776104
403,12,0.5,0.0625,-35.0,-1,1.0,0.6641010000000733
404,12,0.5,0.25,-35.0,-1,1.0,0.06340099999988524
405,12,0.5,1.0,-35.0,-1,1.0,0.20210100000008424
406,12,0.5,0.25,35.0,-1,0.0,0.18150100000002567
407,12,0.5,0.25,35.0,1,1.0,0.2770010000001548
408,12,0.5,1.0,35.0,1,1.0,0.35290100000020175
409,12,0.5,0.25,-35.0,-1,1.0,0.21170099999994818
410,12,0.5,0.25,35.0,1,1.0,0.8811009999999442
411,12,0.5,1.0,-35.0,-1,1.0,0.2506010000001879
412,12,0.5,0.0625,35.0,-1,0.0,0.44000100000016573
413,12,0.5,0.25,35.0,1,1.0,0.5818010000000413
414,12,0.5,0.25,-35.0,1,0.0,0.21440099999995255
415,12,0.5,0.25,-35.0,-1,1.0,1.8060009999999238
416,12,0.5,0.25,35.0,1,1.0,1.5912010000001828
417,12,0.5,0.125,35.0,1,1.0,2.149300999999923
418,12,0.5,0.25,-35.0,-1,1.0,0.25800100000014936
419,12,0.5,0.125,35.0,1,1.0,1.3073010000000522
420,12,0.5,1.0,-35.0,-1,1.0,0.34710100000006605
421,12,0.5,0.125,-35.0,-1,1.0,0.3417010000000573
422,12,0.5,0.25,-35.0,-1,1.0,0.2577009999999973
423,12,0.5,0.0,-35.0,-1,1.0,1.2971010000001115
424,12,0.5,0.0625,-35.0,-1,1.0,1.4683010000001104
425,12,0.5,0.0,-35.0,1,0.0,0.27060100000016973
426,12,0.5,0.25,-35.0,-1,1.0,0.5167009999997845
427,12,0.5,0.125,-35.0,-1,1.0,0.37590099999988524
428,12,0.5,1.0,-35.0,-1,1.0,0.27510099999994964
429,12,0.5,0.0,-35.0,-1,1.0,0.19100100000014208
430,12,0.5,0.0,-35.0,-1,1.0,1.793201000000181
431,12,0.5,0.125,-35.0,-1,1.0,1.714301000000205
432,12,0.5,0.0,35.0,-1,0.0,4.736601000000064
433,12,0.1,0.0,35.0,-1,0.0,1.134600999999975
434,12,0.5,1.0,35.0,1,1.0,0.5033009999999649
435,12,0.5,0.0625,-35.0,-1,1.0,0.3023009999999431
436,12,0.5,0.0625,-35.0,-1,1.0,0.45460099999991144
437,12,0.5,0.25,35.0,-1,0.0,0.3138010000002396
438,12,0.5,0.0625,35.0,-1,0.0,0.4693010000000868
439,12,0.1,0.0625,35.0,-1,0.0,5.647600999999895
440,12,0.5,1.0,35.0,1,1.0,0.3381009999998241
441,12,0.5,0.0625,-35.0,-1,1.0,0.9404010000000653
442,12,0.5,0.25,-35.0,-1,1.0,0.22600099999999657
443,12,0.5,0.125,35.0,1,1.0,0.6522009999998772
444,12,0.5,0.25,35.0,1,1.0,0.4312009999998736
445,12,0.5,0.125,35.0,1,1.0,0.55070099999989
446,12,0.5,0.25,35.0,-1,0.0,3.0060009999999693
447,12,0.5,0.0625,-35.0,-1,1.0,0.2972010000003138
448,12,0.5,0.0625,35.0,1,1.0,2.883301000000074
449,12,0.5,0.0625,35.0,-1,0.0,0.20190099999990707
450,12,0.5,0.25,35.0,1,1.0,0.4041010000000824
451,12,0.5,0.25,35.0,1,1.0,0.3199010000000726
452,12,0.5,0.0,35.0,1,1.0,4.46260099999995
453,12,0.5,0.0625,35.0,-1,0.0,4.277201000000105
454,12,0.5,0.0,-35.0,-1,1.0,2.071400999999696
455,12,0.5,0.125,35.0,-1,0.0,2.686801000000287
456,12,0.5,0.25,35.0,-1,0.0,1.9354009999999562
457,12,0.5,0.25,35.0,1,1.0,8.863800999999967
458,12,0.5,0.0625,-35.0,-1,1.0,0.3103009999999813
459,12,0.5,0.0625,-35.0,-1,1.0,0.5503009999999904
460,12,0.5,1.0,35.0,1,1.0,0.3857010000001537
461,12,0.5,1.0,-35.0,-1,1.0,3.5169009999999616
462,12,0.5,1.0,35.0,1,1.0,0.30510099999992235
463,12,0.5,0.25,-35.0,-1,1.0,1.7146010000001297
464,12,0.5,0.125,-35.0,-1,1.0,0.2899010000000999
465,12,0.5,0.0625,-35.0,-1,1.0,0.7927999999999429
466,12,0.5,0.0625,-35.0,-1,1.0,11.972301000000243
467,12,0.5,1.0,-35.0,-1,1.0,0.30090100000006714
468,12,0.5,1.0,35.0,1,1.0,0.7401010000000952
469,12,0.5,0.0625,35.0,-1,0.0,1.3690009999997983
470,12,0.5,0.0625,35.0,1,1.0,11.614300999999841
471,12,0.5,0.125,-35.0,-1,1.0,0.25010100000008606
472,12,0.5,1.0,35.0,1,1.0,0.4226010000002134
473,12,0.5,0.0625,-35.0,-1,1.0,0.2015009999997801
474,12,0.5,0.0625,35.0,1,1.0,0.4017010000002301
475,12,0.5,1.0,35.0,1,1.0,0.6901009999999133
476,12,0.5,0.0,-35.0,-1,1.0,0.22640099999989616
477,12,0.5,1.0,-35.0,-1,1.0,3.761201000000028
478,12,0.5,0.0625,35.0,-1,0.0,10.516401000000087
479,12,0.4,0.0625,-35.0,-1,1.0,0.638501000000133
480,12,0.5,1.0,-35.0,-1,1.0,0.3077009999999518
481,12,0.5,0.0,35.0,-1,0.0,0.4839009999998325
482,12,0.5,0.0625,35.0,1,1.0,0.8593009999999595
483,12,0.5,0.0625,35.0,-1,0.0,5.35430099999985
484,12,0.3,0.0625,35.0,1,1.0,0.4252010000000155
485,12,0.5,1.0,35.0,1,1.0,0.2813010000002123
486,12,0.5,0.25,35.0,-1,0.0,0.3402009999999791
487,12,0.5,0.0,35.0,-1,0.0,5.14320100000009
488,12,0.3,0.0,-35.0,-1,1.0,0.3867009999999027
489,12,0.5,1.0,35.0,1,1.0,0.5091009999998732
490,12,0.5,0.125,35.0,1,1.0,0.32500099999992926
491,12,0.5,1.0,35.0,1,1.0,0.3944010000000162
492,12,0.5,1.0,-35.0,-1,1.0,0.24010099999986778
493,12,0.5,1.0,35.0,1,1.0,0.392900999999938
494,12,0.5,0.125,-35.0,-1,1.0,0.18200100000012753
495,12,0.5,0.0,35.0,-1,0.0,0.3279009999998834
496,12,0.4,0.0,35.0,-1,0.0,3.4440009999998438
497,12,0.5,1.0,35.0,1,1.0,0.4120010000001457
498,12,0.5,1.0,35.0,1,1.0,-0.008798999999953594
499,12,0.5,0.125,35.0,-1,0.0,3.5736010000000533
500,12,0.5,0.125,35.0,1,1.0,0.24840100000028542
501,12,0.5,1.0,-35.0,-1,1.0,0.29080100000010134
502,12,0.5,0.0625,35.0,-1,0.0,1.3169010000001435
503,12,0.4,0.0625,35.0,1,1.0,6.142601000000013
504,12,0.5,1.0,-35.0,1,0.0,3.16050099999984
505,12,0.5,1.0,35.0,1,1.0,0.2981009999998605
506,12,0.5,1.0,35.0,1,1.0,0.4074009999999362
507,12,0.5,1.0,35.0,1,1.0,0.3385009999999511
508,12,0.5,0.25,-35.0,-1,1.0,0.3806010000000697
509,12,0.5,1.0,35.0,1,1.0,0.3394010000001799
510,12,0.5,0.0,-35.0,1,0.0,9.279301000000032
511,12,0.7,0.0,-35.0,1,0.0,1.8316010000000915
512,12,0.5,1.0,-35.0,-1,1.0,0.4397009999997863
513,12,0.5,0.0625,35.0,1,1.0,35.42250100000001
514,12,0.5,0.25,-35.0,-1,1.0,3.604301000000305
515,12,0.5,0.0625,-35.0,-1,1.0,14.365500999999767
516,12,0.5,0.0625,35.0,1,1.0,2.3598010000000613
517,12,0.5,0.125,35.0,1,1.0,1.2926009999996495
518,12,0.5,0.0625,35.0,1,1.0,27.825800999999956
519,12,0.5,0.25,35.0,1,1.0,0.28260099999988597
520,12,0.5,0.0625,35.0,-1,0.0,0.5083009999998467
521,12,0.5,0.0,-35.0,1,0.0,21.153601000000435
522,12,0.5,0.25,-35.0,-1,1.0,0.8028010000002723
523,12,0.5,0.125,35.0,-1,0.0,3.8677010000001246
524,12,0.5,0.0625,-35.0,1,0.0,1.9433010000002469
525,12,0.5,0.125,-35.0,-1,1.0,0.14530100000001767
526,12,0.5,0.0625,35.0,-1,0.0,0.5316009999996822
527,12,0.5,0.0625,-35.0,-1,1.0,1.993601000000126
528,12,0.5,0.125,-35.0,-1,1.0,3.459001000000171
529,12,0.5,0.0,-35.0,-1,1.0,1.8505010000003494
530,12,0.5,0.25,-35.0,-1,1.0,0.3230009999997492
531,12,0.5,0.125,35.0,1,1.0,0.3586009999999078
1,13,0.5,0.0625,35.0,1,1.0,0.5285
2,13,0.5,0.0625,-35.0,1,0.0,1.3188000000000004
3,13,1.0,0.0625,-35.0,-1,1.0,0.22590000000000288
4,13,0.5,1.0,-35.0,-1,1.0,0.1936
5,13,0.5,0.0,35.0,-1,0.0,0.2997999999999976
6,13,0.5,0.0625,35.0,1,1.0,0.25859999999999417
7,13,0.5,0.25,-35.0,-1,1.0,1.5863999999999905
8,13,0.5,0.0,35.0,-1,0.0,0.30689999999999884
9,13,0.5,0.0,-35.0,1,0.0,0.21659999999999968
10,13,0.5,1.0,-35.0,-1,1.0,0.22409999999999997
11,13,0.5,0.125,-35.0,-1,1.0,0.16679999999999495
12,13,0.5,0.125,35.0,1,1.0,0.5161000000000016
13,13,0.5,0.0,35.0,1,1.0,1.4340000000000046
14,13,0.5,0.125,35.0,-1,0.0,0.1980999999999966
15,13,0.5,0.125,-35.0,-1,1.0,0.25390000000000157
16,13,0.5,1.0,35.0,1,1.0,0.5493000000000023
17,13,0.5,0.0625,35.0,-1,0.0,0.10500000000000398
18,13,0.5,0.0625,-35.0,-1,1.0,2.2160999999999973
19,13,0.5,0.125,35.0,-1,0.0,0.39230000000000587
20,13,0.5,0.0,35.0,-1,0.0,0.6796000000000078
21,13,0.5,0.0625,-35.0,-1,1.0,0.8780000000000001
22,13,0.5,1.0,35.0,1,1.0,0.27820000000001244
23,13,0.5,0.0625,35.0,1,1.0,0.35320000000000107
24,13,0.5,0.0,35.0,1,1.0,0.6953000000000031
25,13,0.5,0.0,-35.0,1,0.0,0.7133000000000038
26,13,0.5,0.0,-35.0,-1,1.0,0.6981999999999999
27,13,0.5,1.0,35.0,1,1.0,0.7755999999999972
28,13,0.5,0.25,-35.0,-1,1.0,0.24380000000000734
29,13,0.5,1.0,35.0,1,1.0,0.5760999999999967
30,13,0.5,1.0,35.0,1,1.0,0.22459999999998104
31,13,0.5,0.0625,35.0,1,1.0,0.34679999999997335
32,13,0.5,0.25,35.0,1,1.0,0.24239999999997508
33,13,0.5,0.0625,-35.0,-1,1.0,0.4102999999999781
34,13,0.5,1.0,35.0,1,1.0,0.5627000000000066
35,13,0.5,0.25,-35.0,-1,1.0,0.26209999999997535
36,13,0.5,1.0,35.0,1,1.0,0.2711999999999932
37,13,0.5,0.0625,35.0,-1,0.0,0.4672999999999661
38,13,0.5,0.0625,35.0,1,1.0,0.7541000000000224
39,13,0.5,0.0625,35.0,-1,0.0,1.5932999999999709
40,13,0.5,0.25,-35.0,-1,1.0,0.40330000000000155
41,13,0.5,0.125,-35.0,-1,1.0,0.6250999999999749
42,13,0.5,0.25,35.0,1,1.0,0.3340999999999781
43,13,0.5,0.25,35.0,1,1.0,0.30060000000000286
44,13,0.5,0.25,-35.0,-1,1.0,0.2744999999999891
45,13,0.5,0.125,35.0,1,1.0,0.7463999999999942
46,13,0.5,0.25,35.0,-1,0.0,0.5546999999999969
47,13,0.5,0.125,-35.0,-1,1.0,0.30299999999999727
48,13,0.5,0.25,35.0,1,1.0,0.28530000000000655
49,13,0.5,0.25,35.0,1,1.0,1.0153999999999712
50,13,0.5,0.125,35.0,1,1.0,0.4052999999999827
51,13,0.5,1.0,35.0,1,1.0,0.2255999999999858
52,13,0.5,0.0625,-35.0,1,0.0,0.04429999999999268
53,13,0.5,0.125,35.0,1,1.0,0.7870000000000061
54,13,0.5,0.125,35.0,1,1.0,0.1710999999999956
55,13,0.5,0.0,-35.0,-1,1.0,0.36469999999999914
56,13,0.5,0.0,-35.0,1,0.0,0.5544999999999902
57,13,0.5,0.0625,-35.0,-1,1.0,0.2102999999999895
58,13,0.5,0.25,-35.0,-1,1.0,0.2510999999999797
59,13,0.5,0.0625,35.0,1,1.0,0.3755999999999915
60,13,0.5,0.0625,-35.0,-1,1.0,0.32229999999998427
61,13,0.5,1.0,-35.0,-1,1.0,0.2372999999999763
62,13,0.5,0.0,35.0,-1,0.0,0.2436999999999898
63,13,0.5,0.125,-35.0,-1,1.0,0.2820999999999856
64,13,0.5,0.125,-35.0,-1,1.0,0.3190999999999917
65,13,0.5,0.0625,-35.0,-1,1.0,0.24199999999999022
66,13,0.5,0.0625,-35.0,-1,1.0,0.19149999999999068
67,13,0.5,0.125,35.0,1,1.0,1.1981999999999857
68,13,0.5,0.25,-35.0,-1,1.0,0.3230999999999824
69,13,0.5,0.125,35.0,1,1.0,0.42429999999998813
70,13,0.5,0.25,-35.0,-1,1.0,0.26340000000004693
71,13,0.5,0.0625,35.0,-1,0.0,0.21190000000007103
72,13,0.5,0.125,35.0,1,1.0,0.6576000000000022
73,13,0.5,0.125,-35.0,-1,1.0,0.42720000000002756
74,13,0.5,0.0625,-35.0,-1,1.0,0.42770000000001573
75,13,0.5,0.0,-35.0,-1,1.0,1.8137000000000398
76,13,0.5,0.125,35.0,1,1.0,0.4492000000000189
77,13,0.5,0.0625,35.0,1,1.0,0.00760000000002492
78,13,0.5,0.25,-35.0,-1,1.0,0.39620000000002165
79,13,0.5,1.0,35.0,1,1.0,0.43170000000003483
80,13,0.5,0.25,35.0,-1,0.0,0.07179999999999609
81,13,0.4,0.25,35.0,1,1.0,0.5330000000000155
82,13,0.5,1.0,35.0,1,1.0,0.2518000000000029
83,13,0.5,0.125,35.0,1,1.0,0.6188999999999965
84,13,0.5,0.0625,-35.0,1,0.0,0.29779999999993834
85,13,0.5,0.0625,-35.0,-1,1.0,0.2656000000000063
86,13,0.5,0.0,35.0,-1,0.0,0.30680000000000973
87,13,0.5,0.25,35.0,1,1.0,0.9377000000000635
88,13,0.5,1.0,35.0,1,1.0,-0.0014999999999645297
89,13,0.5,1.0,-35.0,-1,1.0,0.26350000000002183
90,13,0.5,1.0,-35.0,-1,1.0,0.28340000000002874
91,13,0.5,0.25,35.0,1,1.0,0.3562000000000012
92,13,0.5,0.125,35.0,1,1.0,2.5166999999999575
93,13,0.5,1.0,-35.0,-1,1.0,0.44429999999999836
94,13,0.5,0.125,35.0,1,1.0,3.0288999999999646
95,13,0.5,0.0625,-35.0,-1,1.0,0.36990000000002965
96,13,0.5,1.0,-35.0,1,0.0,-0.010099999999965803
97,13,0.5,0.25,-35.0,-1,1.0,0.25720000000001164
98,13,0.5,0.0,35.0,1,1.0,0.6488000000000511
99,13,0.5,0.0,-35.0,-1,1.0,0.4373000000000502
100,13,0.5,0.125,-35.0,-1,1.0,0.35079999999999245
101,13,0.5,0.0625,-35.0,-1,1.0,0.362199999999973
102,13,0.5,0.0625,-35.0,-1,1.0,0.7207999999999402
103,13,0.5,0.25,35.0,1,1.0,2.400699999999972
104,13,0.5,0.0625,-35.0,-1,1.0,0.3947000000000571
105,13,0.5,1.0,-35.0,-1,1.0,0.23200000000002774
106,13,0.5,1.0,-35.0,-1,1.0,0.22920000000004848
107,13,0.5,0.125,35.0,1,1.0,0.7107000000000312
108,13,0.5,0.25,35.0,1,1.0,0.419399999999996
109,13,0.5,0.125,-35.0,-1,1.0,0.3005000000000564
110,13,0.5,1.0,35.0,-1,0.0,0.9984000000000037
111,13,0.5,0.0,35.0,-1,0.0,0.1903000000000361
112,13,0.5,0.0625,-35.0,-1,1.0,0.2380000000000564
113,13,0.5,0.25,35.0,-1,0.0,0.2610000000000241
114,13,0.5,0.0625,35.0,-1,0.0,0.18380000000007612
115,13,0.5,0.25,-35.0,-1,1.0,0.864400000000046
116,13,0.5,0.125,-35.0,-1,1.0,0.32610000000005357
117,13,0.5,0.125,-35.0,-1,1.0,0.6410000000000196
118,13,0.5,1.0,-35.0,-1,1.0,3.503500000000031
119,13,0.5,1.0,35.0,1,1.0,0.8466000000000236
120,13,0.5,0.25,-35.0,-1,1.0,0.43130000000002156
121,13,0.5,1.0,35.0,1,1.0,0.4703000000000088
122,13,0.5,0.125,35.0,1,1.0,0.5936000000000377
123,13,0.5,0.0,-35.0,-1,1.0,0.2707000000000903
124,13,0.5,0.125,35.0,-1,0.0,0.23629999999997153
125,13,0.3,0.125,35.0,-1,0.0,0.23560000000003356
126,13,0.5,1.0,35.0,1,1.0,0.25520000000005894
127,13,0.5,0.0625,35.0,1,1.0,0.9623000000000275
128,13,0.5,0.25,-35.0,-1,1.0,0.2085999999999899
129,13,0.5,0.0625,35.0,1,1.0,0.5260000000000105
130,13,0.5,0.125,-35.0,-1,1.0,0.1853999999999587
131,13,0.5,0.125,-35.0,-1,1.0,0.20130000000000337
132,13,0.5,0.0,35.0,-1,0.0,0.3351999999999862
133,13,0.5,0.0625,-35.0,-1,1.0,0.25480000000004566
134,13,0.5,0.0625,-35.0,-1,1.0,0.37219900000002326
135,13,0.5,0.0,35.0,-1,0.0,1.586900000000071
136,13,0.5,0.125,35.0,-1,0.0,0.109800000000007
137,13,0.5,0.25,-35.0,-1,1.0,0.23809999999997444
138,13,0.5,0.125,-35.0,-1,1.0,0.21659999999997126
139,13,0.5,0.125,35.0,-1,0.0,0.047300000000063847
140,13,0.0,0.125,35.0,-1,0.0,0.24059999999985848
141,13,0.5,1.0,35.0,-1,0.0,1.2124000000000024
142,13,0.5,0.25,-35.0,-1,1.0,0.18189999999992779
143,13,0.5,0.0,-35.0,-1,1.0,0.2282999999998765
144,13,0.5,0.125,-35.0,1,0.0,2.2350999999999885
145,13,0.5,0.25,-35.0,-1,1.0,0.5782999999998992
146,13,0.5,0.25,35.0,-1,0.0,0.2641999999999598
147,13,0.5,0.0625,-35.0,-1,1.0,1.7983999999999014
148,13,0.5,1.0,35.0,1,1.0,0.37019999999995434
149,13,0.5,0.0,-35.0,-1,1.0,0.21499999999991815
150,13,0.5,1.0,-35.0,-1,1.0,0.29690000000005057
151,13,0.5,0.0625,-35.0,-1,1.0,0.21539999999993142
152,13,0.5,0.0625,35.0,-1,0.0,0.5828999999999951
153,13,0.2,0.0625,35.0,-1,0.0,2.9351999999998952
154,13,0.5,1.0,-35.0,-1,1.0,0.25919999999996435
155,13,0.5,1.0,-35.0,-1,1.0,0.18629999999996016
156,13,0.5,0.25,35.0,1,1.0,1.4715999999999667
157,13,0.5,1.0,35.0,1,1.0,0.35009999999988395
158,13,0.5,0.25,-35.0,-1,1.0,0.21460000000001855
159,13,0.5,0.125,35.0,-1,0.0,3.383000000000038
160,13,0.5,0.0,35.0,-1,0.0,0.28320000000007894
161,13,0.2,0.0,35.0,-1,0.0,1.7476999999998952
162,13,0.5,1.0,35.0,1,1.0,0.5554999999999382
163,13,0.5,0.0,-35.0,1,0.0,2.2748000000000275
164,13,0.5,0.125,-35.0,-1,1.0,0.2900999999999385
165,13,0.5,1.0,-35.0,-1,1.0,0.2859999999999445
166,13,0.5,1.0,35.0,1,1.0,0.217899999999986
167,13,0.5,0.25,-35.0,-1,1.0,0.3352999999999611
168,13,0.5,0.0,-35.0,-1,1.0,-0.031000000000062755
169,13,0.5,0.25,35.0,1,1.0,0.27919999999994616
170,13,0.5,0.125,-35.0,-1,1.0,0.539600000000064
171,13,0.5,1.0,35.0,1,1.0,0.7136999999999034
172,13,0.5,0.25,35.0,-1,0.0,1.8356999999999744
173,13,0.5,0.125,-35.0,-1,1.0,0.036200000000008004
174,13,0.5,1.0,35.0,1,1.0,0.3873999999999569
175,13,0.5,1.0,-35.0,-1,1.0,0.29529999999988377
176,13,0.5,0.125,35.0,1,1.0,0.29539999999997235
177,13,0.5,0.125,35.0,1,1.0,0.6088000000000875
178,13,0.5,1.0,35.0,1,1.0,0.5876999999999271
179,13,0.5,0.0625,-35.0,1,0.0,0.9707000000000789
180,13,0.5,0.125,-35.0,-1,1.0,0.272199999999998
181,13,0.5,0.0625,35.0,1,1.0,0.21010000000001128
182,13,0.5,0.0625,35.0,1,1.0,1.798599999999965
183,13,0.5,0.25,35.0,1,1.0,0.5626999999999498
184,13,0.5,0.0625,-35.0,1,0.0,0.43020000000001346
185,13,0.5,0.0625,-35.0,-1,1.0,0.2678999999999405
186,13,0.5,0.125,35.0,-1,0.0,0.25889999999992597
187,13,0.7,0.125,-35.0,-1,1.0,0.25719999999989795
188,13,0.5,1.0,-35.0,-1,1.0,0.24719999999990705
189,13,0.5,0.0625,35.0,1,1.0,0.1370999999999185
190,13,0.5,1.0,-35.0,-1,1.0,0.19529999999997472
191,13,0.5,0.25,35.0,-1,0.0,0.23430000000007567
192,13,0.4,0.25,35.0,1,1.0,0.23929999999995744
193,13,0.5,1.0,-35.0,-1,1.0,0.370900000000006
194,13,0.5,0.125,35.0,1,1.0,0.5254999999999654
195,13,0.5,1.0,-35.0,-1,1.0,0.31310000000007676
196,13,0.5,0.25,-35.0,-1,1.0,0.319199000000026
197,13,0.5,1.0,-35.0,-1,1.0,0.1855999999999085
198,13,0.5,0.0,35.0,1,1.0,1.6772999999999456
199,13,0.5,1.0,-35.0,-1,1.0,0.3027000000000726
200,13,0.5,0.125,35.0,1,1.0,0.2765999999999167
201,13,0.5,0.125,35.0,1,1.0,0.7815999999999121
202,13,0.5,1.0,35.0,-1,0.0,0.13989999999989777
203,13,0.4,1.0,-35.0,-1,1.0,0.2798999999999978
204,13,0.5,1.0,-35.0,-1,1.0,0.46519999999998163
205,13,0.5,0.25,-35.0,-1,1.0,0.40800000000001546
206,13,0.5,0.125,35.0,1,1.0,0.6791999999999234
207,13,0.5,1.0,35.0,1,1.0,0.31920000000002346
208,13,0.5,0.25,-35.0,-1,1.0,1.0152000000000498
209,13,0.5,0.125,35.0,1,1.0,0.055099999999924876
210,13,0.5,1.0,-35.0,-1,1.0,0.22499999999990905
211,13,0.5,0.0,35.0,-1,0.0,0.2719999999999345
212,13,0.5,0.25,-35.0,-1,1.0,0.276299999999992
213,13,0.5,0.125,-35.0,-1,1.0,0.23659999999995307
214,13,0.5,0.25,35.0,1,1.0,0.3160000000000309
215,13,0.5,0.125,-35.0,-1,1.0,0.25519999999994525
216,13,0.5,0.125,35.0,1,1.0,0.7871000000000095
217,13,0.5,0.0,-35.0,-1,1.0,0.2179999999999609
218,13,0.5,0.125,35.0,1,1.0,0.3972999999999729
219,13,0.5,1.0,35.0,1,1.0,0.6354999999999791
220,13,0.5,0.25,-35.0,-1,1.0,0.2259999999999991
221,13,0.5,1.0,-35.0,-1,1.0,0.23889999999994416
222,13,0.5,0.0625,35.0,1,1.0,1.8941999999999553
223,13,0.5,1.0,-35.0,-1,1.0,0.24920000000008713
224,13,0.5,0.25,-35.0,-1,1.0,0.338799999999992
225,13,0.5,0.25,35.0,1,1.0,0.6557999999998856
226,13,0.5,0.25,35.0,1,1.0,0.2524999999999409
227,13,0.5,0.0,35.0,-1,0.0,0.3716999999999189
228,13,0.5,0.25,-35.0,-1,1.0,0.161200000000008
229,13,0.5,1.0,35.0,1,1.0,0.37829999999996744
230,13,0.5,1.0,35.0,1,1.0,0.6375999999999067
231,13,0.5,0.25,35.0,1,1.0,0.5623999999999114
232,13,0.5,0.25,35.0,1,1.0,0.31159999999999854
233,13,0.5,0.25,-35.0,1,0.0,0.49499999999989086
234,13,0.5,0.0,35.0,1,1.0,0.4878999999999678
235,13,0.5,0.0625,35.0,1,1.0,14.313300000000027
236,13,0.5,0.0625,35.0,1,1.0,0.6126000000000431
237,13,0.5,0.0,-35.0,-1,1.0,0.6694999999999709
238,13,0.5,0.125,35.0,-1,0.0,0.9157999999999902
239,13,0.5,0.125,35.0,1,1.0,0.6550000000000864
240,13,0.5,0.0625,35.0,1,1.0,0.5236999999999625
241,13,0.5,1.0,-35.0,-1,1.0,0.23149999999998272
242,13,0.5,0.0625,-35.0,-1,1.0,0.29739999999992506
243,13,0.5,0.25,-35.0,-1,1.0,0.376700000000028
244,13,0.5,0.125,35.0,1,1.0,0.5768999999999096
245,13,0.5,0.0625,35.0,1,1.0,0.5451000000000477
246,13,0.5,1.0,35.0,1,1.0,0.4939000000000533
247,13,0.5,0.25,35.0,1,1.0,0.5109999999998536
248,13,0.5,0.0625,-35.0,-1,1.0,0.9208999999999605
249,13,0.5,0.25,35.0,1,1.0,0.44299999999986994
250,13,0.5,0.25,-35.0,-1,1.0,0.4010999999999285
251,13,0.5,0.0625,35.0,1,1.0,0.4824999999999591
252,13,0.5,0.25,35.0,1,1.0,0.7006000000000085
253,13,0.5,0.25,35.0,1,1.0,0.5346999999999298
254,13,0.5,1.0,-35.0,-1,1.0,0.3048999999999751
255,13,0.5,0.25,-35.0,-1,1.0,0.47069999999996526
256,13,0.5,0.0625,-35.0,1,0.0,0.14170000000001437
257,13,0.6,0.0625,35.0,-1,0.0,0.13580000000001746
258,13,0.5,1.0,-35.0,-1,1.0,0.17210000000000036
259,13,0.5,0.0,35.0,-1,0.0,3.6007000000000744
260,13,0.5,0.125,-35.0,-1,1.0,0.39580000000000837
261,13,0.5,0.25,35.0,1,1.0,0.5063000000000102
262,13,0.5,0.25,35.0,1,1.0,0.5021999999999025
263,13,0.5,0.125,35.0,1,1.0,0.31129999999996016
264,13,0.5,0.0625,-35.0,-1,1.0,0.36810000000002674
265,13,0.5,0.0625,-35.0,-1,1.0,0.4658999999999196
266,13,0.5,0.125,35.0,1,1.0,1.661299999999983
267,13,0.5,1.0,35.0,1,1.0,0.5371000000000095
268,13,0.5,0.25,-35.0,-1,1.0,0.459699999999998
269,13,0.5,0.125,35.0,1,1.0,0.4778999999999769
270,13,0.5,0.0625,-35.0,-1,1.0,0.33609999999998763
271,13,0.5,1.0,35.0,1,1.0,0.44839999999999236
272,13,0.5,1.0,35.0,1,1.0,0.4537000000000262
273,13,0.5,0.0625,35.0,1,1.0,0.6496999999999389
274,13,0.5,1.0,-35.0,-1,1.0,0.2217999999999165
275,13,0.5,0.25,35.0,1,1.0,0.4875999999999294
276,13,0.5,0.0625,-35.0,-1,1.0,0.36330000000020846
277,13,0.5,0.0,35.0,-1,0.0,0.23540000000002692
278,13,0.5,0.0625,-35.0,-1,1.0,0.26080000000001746
279,13,0.5,0.25,35.0,1,1.0,0.7792999999999211
280,13,0.5,0.25,35.0,1,1.0,0.49520000000006803
281,13,0.5,1.0,-35.0,-1,1.0,0.21000000000003638
282,13,0.5,1.0,35.0,1,1.0,0.2494000000001506
283,13,0.5,0.0625,-35.0,-1,1.0,0.2780999999999949
284,13,0.5,0.125,35.0,1,1.0,0.6565000000000509
285,13,0.5,0.25,-35.0,-1,1.0,0.3158000000000811
286,13,0.5,0.125,-35.0,-1,1.0,0.3977999999999611
287,13,0.5,0.125,-35.0,-1,1.0,0.27680000000009386
288,13,0.5,0.125,-35.0,-1,1.0,0.2757000000001426
289,13,0.5,0.25,35.0,1,1.0,0.24489999999991596
290,13,0.5,0.0625,35.0,1,1.0,1.3642999999999574
291,13,0.5,0.25,-35.0,-1,1.0,0.25670000000013715
292,13,0.5,0.0,35.0,-1,0.0,0.2887000000000626
293,13,0.5,0.125,-35.0,-1,1.0,0.3910000000000764
294,13,0.5,0.25,35.0,1,1.0,0.2804000000000997
295,13,0.5,0.125,-35.0,-1,1.0,0.36950000000001637
296,13,0.5,0.125,-35.0,-1,1.0,0.2920000000001437
297,13,0.5,0.25,35.0,1,1.0,0.8313000000000557
298,13,0.5,1.0,-35.0,-1,1.0,0.28310000000010405
299,13,0.5,0.0,35.0,1,1.0,0.0523000000000593
300,13,0.5,0.125,35.0,1,1.0,0.21820000000002437
301,13,0.5,0.125,-35.0,-1,1.0,0.7205999999998767
302,13,0.5,0.25,35.0,1,1.0,0.6225000000001728
303,13,0.5,0.25,-35.0,-1,1.0,0.3183000000001357
304,13,0.5,0.0625,-35.0,-1,1.0,0.4475000000002183
305,13,0.5,0.0625,35.0,1,1.0,0.3166999999998552
306,13,0.5,0.0,-35.0,1,0.0,0.3324000000002343
307,13,0.5,0.0625,35.0,1,1.0,0.27120000000013533
308,13,0.5,1.0,35.0,1,1.0,0.2437000000002172
309,13,0.5,1.0,-35.0,-1,1.0,0.30960000000004584
310,13,0.5,0.125,35.0,1,1.0,0.4151000000001659
311,13,0.5,0.25,-35.0,-1,1.0,0.30070000000023356
312,13,0.5,0.25,-35.0,-1,1.0,0.2526990000001206
313,13,0.5,0.0625,-35.0,-1,1.0,0.3219000000001415
314,13,0.5,0.0625,35.0,1,1.0,4.803700000000163
315,13,0.5,0.0625,-35.0,-1,1.0,0.404700000000048
316,13,0.5,0.25,35.0,1,1.0,0.8966000000002623
317,13,0.5,0.125,-35.0,-1,1.0,0.1148000000000593
318,13,0.5,1.0,35.0,1,1.0,0.5372999999999593
319,13,0.5,1.0,35.0,1,1.0,0.10230000000001382
320,13,0.5,0.125,35.0,1,1.0,0.25499999999988177
321,13,0.5,0.125,-35.0,-1,1.0,0.4574999999999818
322,13,0.5,0.0625,-35.0,-1,1.0,2.0
323,13,0.5,1.0,35.0,-1,0.0,5.061500000000251
324,13,0.5,0.125,35.0,1,1.0,0.2625000000000455
325,13,0.5,0.0625,-35.0,-1,1.0,0.39840000000003783
326,13,0.5,1.0,-35.0,-1,1.0,0.3845000000001164
327,13,0.5,1.0,-35.0,-1,1.0,0.26660000000015316
328,13,0.5,0.25,35.0,1,1.0,0.6525000000001455
329,13,0.5,0.0,-35.0,1,0.0,0.29140000000006694
330,13,0.5,0.125,35.0,1,1.0,0.4936000000002423
331,13,0.5,0.25,35.0,1,1.0,0.6327000000001135
332,13,0.5,0.125,-35.0,1,0.0,0.155100000000175
333,13,0.6,0.125,-35.0,-1,1.0,0.3974000000000615
334,13,0.5,1.0,35.0,1,1.0,0.32340000000021973
335,13,0.5,0.0625,35.0,-1,0.0,3.22219999999993
336,13,0.5,0.0625,35.0,-1,0.0,0.09699999999997999
337,13,0.5,0.25,35.0,1,1.0,0.4994000000001506
338,13,0.5,0.0,-35.0,-1,1.0,0.35200000000008913
339,13,0.5,0.125,-35.0,-1,1.0,0.6503999999999905
340,13,0.5,1.0,-35.0,-1,1.0,0.4329000000000178
341,13,0.5,0.0,35.0,1,1.0,5.435400000000072
342,13,0.5,0.25,35.0,1,1.0,0.2626000000000204
343,13,0.5,0.0625,-35.0,-1,1.0,0.3614000000000033
344,13,0.5,0.25,35.0,1,1.0,0.2565999999999349
345,13,0.5,0.0625,35.0,1,1.0,0.4957000000001699
346,13,0.5,0.25,35.0,1,1.0,0.2812000000003536
347,13,0.5,0.25,35.0,1,1.0,0.9304000000001906
348,13,0.5,0.25,-35.0,-1,1.0,0.2562000000000353
349,13,0.5,0.0625,35.0,-1,0.0,0.26110000000016953
350,13,0.5,0.125,35.0,1,1.0,0.43010000000003856
351,13,0.5,0.0625,-35.0,-1,1.0,0.8660000000002128
352,13,0.5,1.0,35.0,1,1.0,2.984100000000126
353,13,0.5,1.0,-35.0,-1,1.0,0.23220000000014807
354,13,0.5,0.25,-35.0,1,0.0,0.3348000000000866
355,13,0.5,0.0625,35.0,1,1.0,0.4071000000001277
356,13,0.5,1.0,35.0,1,1.0,0.17610000000013315
357,13,0.5,0.125,-35.0,-1,1.0,0.39859999999998763
358,13,0.5,0.125,35.0,1,1.0,0.4205000000001746
359,13,0.5,1.0,-35.0,-1,1.0,0.40949999999998
360,13,0.5,0.25,35.0,1,1.0,0.6587999999999283
361,13,0.5,0.125,35.0,1,1.0,0.5737000000001444
362,13,0.5,1.0,35.0,1,1.0,0.24630000000001928
363,13,0.5,0.0625,-35.0,1,0.0,2.359000000000151
364,13,0.5,0.0625,-35.0,-1,1.0,0.21070000000008804
365,13,0.5,0.0625,35.0,1,1.0,0.27289999999993597
366,13,0.5,0.25,35.0,1,1.0,0.31189999999992324
367,13,0.5,0.25,-35.0,-1,1.0,0.41760000000022046
368,13,0.5,0.125,35.0,1,1.0,1.259499999999889
369,13,0.5,0.0,35.0,1,1.0,0.15170000000011896
370,13,0.5,0.125,-35.0,-1,1.0,1.3944000000001324
371,13,0.5,0.125,-35.0,-1,1.0,0.6094000000000506
372,13,0.5,0.125,35.0,1,1.0,0.5653999999999542
373,13,0.5,1.0,-35.0,-1,1.0,0.23080000000004475
374,13,0.5,0.0,-35.0,1,0.0,0.3002000000001317
375,13,0.6,0.0,-35.0,-1,1.0,0.7825000000000273
376,13,0.5,1.0,-35.0,-1,1.0,0.27090000000021064
377,13,0.5,0.25,-35.0,-1,1.0,0.4234000000001288
378,13,0.5,0.0625,35.0,1,1.0,0.29270000000019536
379,13,0.5,1.0,-35.0,-1,1.0,0.27860000000009677
380,13,0.5,0.25,35.0,1,1.0,0.2176999999999225
381,13,0.5,1.0,35.0,1,1.0,0.5430999999998676
382,13,0.5,1.0,35.0,1,1.0,0.5489000000000033
383,13,0.5,0.125,-35.0,-1,1.0,0.5048000000001593
384,13,0.5,0.0625,-35.0,-1,1.0,0.23339999999984684
385,13,0.5,0.125,35.0,1,1.0,1.3155000000001564
386,13,0.5,1.0,-35.0,-1,1.0,0.4778000000001157
387,13,0.5,0.25,-35.0,1,0.0,0.2635999999999967
388,13,0.5,0.125,35.0,1,1.0,0.29909999999995307
389,13,0.5,0.0625,-35.0,1,0.0,3.384999999999991
390,13,0.5,0.125,35.0,1,1.0,0.28270000000020445
391,13,0.5,0.25,-35.0,-1,1.0,0.45870000000013533
392,13,0.5,0.0625,-35.0,1,0.0,5.3547000000000935
393,13,0.5,0.25,-35.0,-1,1.0,0.40200000000027103
394,13,0.5,0.0625,-35.0,-1,1.0,0.27460000000019136
395,13,0.5,0.125,35.0,1,1.0,1.6271999999999025
396,13,0.5,0.0625,35.0,1,1.0,0.5695000000000618
397,13,0.5,0.0,-35.0,-1,1.0,0.287900000000036
398,13,0.5,1.0,-35.0,-1,1.0,0.2704999999998563
399,13,0.5,0.125,35.0,1,1.0,0.2594000000001415
400,13,0.5,1.0,-35.0,-1,1.0,0.4713000000001557
401,13,0.5,0.0625,-35.0,1,0.0,0.5340000000001055
402,13,0.5,0.0625,-35.0,-1,1.0,2.9160000000001673
403,13,0.5,1.0,35.0,1,1.0,0.38790000000017244
404,13,0.5,1.0,35.0,1,1.0,0.34710000000018226
405,13,0.5,1.0,-35.0,-1,1.0,0.37970000000018445
406,13,0.5,0.25,-35.0,-1,1.0,0.4557000000002063
407,13,0.5,0.25,35.0,1,1.0,0.25480000000015934
408,13,0.5,0.0,35.0,1,1.0,1.0907000000001972
409,13,0.5,0.0,35.0,-1,0.0,3.90930000000003
410,13,0.5,0.25,35.0,1,1.0,0.5770999999999731
411,13,0.5,1.0,35.0,1,1.0,0.19580000000019027
412,13,0.5,0.0,35.0,-1,0.0,0.3351999999999862
413,13,0.5,0.25,35.0,1,1.0,0.37390000000004875
414,13,0.5,0.0625,35.0,1,1.0,1.156500000000051
415,13,0.5,0.125,-35.0,1,0.0,0.2522000000001299
416,13,0.5,0.25,-35.0,-1,1.0,0.6945000000000618
417,13,0.5,0.125,35.0,1,1.0,1.600400000000036
418,13,0.5,1.0,35.0,1,1.0,2.3689999999999145
419,13,0.5,0.125,-35.0,-1,1.0,0.27719999999999345
420,13,0.5,1.0,35.0,1,1.0,0.4497999999998683
421,13,0.5,0.125,-35.0,1,0.0,5.735300000000279
422,13,0.5,0.0,-35.0,1,0.0,0.5226000000000113
423,13,0.5,0.0625,35.0,-1,0.0,0.3248000000000957
424,13,0.7,0.0625,35.0,1,1.0,0.3772000000001299
425,13,0.5,1.0,35.0,1,1.0,0.23620000000005348
426,13,0.5,1.0,35.0,1,1.0,0.18200000000001637
427,13,0.5,1.0,35.0,1,1.0,0.28460000000018226
428,13,0.5,0.0,35.0,1,1.0,0.2703000000001339
429,13,0.5,0.125,-35.0,-1,1.0,0.76949999999988
430,13,0.5,0.25,-35.0,-1,1.0,0.4287000000001626
431,13,0.5,0.25,-35.0,-1,1.0,0.35130000000003747
432,13,0.5,1.0,35.0,1,1.0,0.3004000000000815
433,13,0.5,0.25,-35.0,-1,1.0,0.4097999999999047
434,13,0.5,0.0,35.0,1,1.0,5.689000000000078
435,13,0.5,0.0625,-35.0,-1,1.0,0.5467000000001008
436,13,0.5,1.0,35.0,1,1.0,0.2155999999999949
437,13,0.5,0.0,-35.0,-1,1.0,11.245000000000118
438,13,0.5,0.25,-35.0,-1,1.0,0.24080000000003565
439,13,0.5,0.0,-35.0,-1,1.0,10.929900000000316
440,13,0.5,0.25,35.0,1,1.0,0.24929999999994834
441,13,0.5,0.125,35.0,-1,0.0,2.6186000000002423
442,13,0.4,0.125,-35.0,-1,1.0,0.2400000000000091
443,13,0.5,1.0,-35.0,-1,1.0,0.18900000000007822
444,13,0.5,0.25,35.0,1,1.0,0.5009999999999764
445,13,0.5,0.25,35.0,1,1.0,0.4701999999999771
446,13,0.5,0.0625,35.0,1,1.0,8.412000000000035
447,13,0.5,0.25,-35.0,-1,1.0,0.7921000000001186
448,13,0.5,0.25,-35.0,-1,1.0,3.911100000000033
449,13,0.5,0.25,-35.0,-1,1.0,0.4494000000001961
450,13,0.5,1.0,35.0,1,1.0,3.395200000000159
451,13,0.5,0.0625,35.0,1,1.0,0.28359999999997854
452,13,0.5,1.0,35.0,1,1.0,0.2194000000001779
453,13,0.5,0.25,-35.0,-1,1.0,5.235100000000102
454,13,0.5,0.0,35.0,1,1.0,55.23230000000012
455,13,0.5,1.0,-35.0,-1,1.0,0.48460000000022774
456,13,0.5,0.0625,-35.0,1,0.0,0.7204000000001543
457,13,0.5,0.125,-35.0,-1,1.0,0.3889000000001488
458,13,0.5,0.0625,35.0,1,1.0,0.68100000000004
459,13,0.5,0.25,35.0,1,1.0,0.6697000000001481
460,13,0.5,1.0,-35.0,-1,1.0,0.3322000000000571
461,13,0.5,0.0625,-35.0,1,0.0,7.856899999999996
462,13,0.5,0.25,35.0,1,1.0,3.366899999999987
463,13,0.5,0.125,-35.0,1,0.0,5.705200000000104
464,13,0.5,0.25,35.0,1,1.0,1.9123000000001866
465,13,0.5,0.125,35.0,1,1.0,0.4044000000001233
466,13,0.5,0.25,35.0,1,1.0,0.5337000000001808
467,13,0.5,0.0625,-35.0,1,0.0,5.954000000000178
468,13,0.5,0.25,-35.0,-1,1.0,0.6584000000000287
469,13,0.5,1.0,35.0,1,1.0,0.25050000000032924
470,13,0.5,0.0625,-35.0,-1,1.0,0.9433000000001357
471,13,0.5,0.0,-35.0,1,0.0,0.07520000000022264
472,13,0.8,0.0,-35.0,-1,1.0,12.49090000000001
473,13,0.5,1.0,35.0,1,1.0,0.6795999999999367
474,13,0.5,0.25,-35.0,-1,1.0,2.671800000000303
475,13,0.5,0.125,-35.0,-1,1.0,0.5873000000003685
476,13,0.5,0.0625,-35.0,-1,1.0,0.4431999999999334
477,13,0.5,0.125,35.0,1,1.0,0.3080000000002201
478,13,0.5,0.125,35.0,1,1.0,3.5242000000002918
479,13,0.5,0.0625,-35.0,-1,1.0,0.28929999999991196
480,13,0.5,0.125,-35.0,-1,1.0,3.2182999999999993
481,13,0.5,1.0,-35.0,-1,1.0,0.36979999999994106
482,13,0.5,1.0,-35.0,-1,1.0,4.711500000000115
483,13,0.5,0.0,-35.0,-1,1.0,5.260100000000193
484,13,0.5,0.0625,35.0,1,1.0,8.729199999999992
485,13,0.5,0.0,35.0,-1,0.0,0.9975000000001728
486,13,0.5,0.0625,35.0,1,1.0,1.662900000000036
487,13,0.5,0.25,-35.0,-1,1.0,0.6083000000000993
488,13,0.5,0.0625,-35.0,1,0.0,1.646800000000212
489,13,0.5,0.25,-35.0,-1,1.0,0.7787000000000717
490,13,0.5,0.125,35.0,1,1.0,1.424600000000055
491,13,0.5,0.125,35.0,-1,0.0,4.617199999999912
492,13,0.5,0.0625,-35.0,-1,1.0,0.7748000000001412
493,13,0.5,1.0,35.0,1,1.0,0.6203000000000429
494,13,0.5,0.125,-35.0,-1,1.0,5.852100000000291
495,13,0.5,1.0,-35.0,-1,1.0,0.5894000000000688
496,13,0.5,0.0,35.0,1,1.0,0.4916000000000622
497,13,0.5,0.25,-35.0,-1,1.0,0.23090000000001965
498,13,0.5,0.125,35.0,-1,0.0,0.2399000000000342
499,13,0.5,0.125,-35.0,-1,1.0,4.77800000000002
500,13,0.5,0.0,-35.0,-1,1.0,14.31639999999993
501,13,0.5,1.0,35.0,1,1.0,0.30770000000006803
502,13,0.5,1.0,-35.0,-1,1.0,0.38390000000003965
503,13,0.5,0.125,35.0,1,1.0,0.6774000000000342
504,13,0.5,0.125,35.0,1,1.0,0.3065000000001419
505,13,0.5,0.0625,35.0,1,1.0,0.2658000000001266
506,13,0.5,1.0,-35.0,-1,1.0,0.445100000000366
507,13,0.5,0.25,-35.0,-1,1.0,0.6868990000000395
508,13,0.5,0.0625,-35.0,-1,1.0,1.919300000000021
509,13,0.5,0.125,35.0,1,1.0,0.48430000000007567
510,13,0.5,0.0625,35.0,1,1.0,0.2635000000004766
511,13,0.5,0.0,35.0,-1,0.0,6.105799999999817
512,13,0.5,0.0625,35.0,-1,0.0,2.289600000000064
513,13,0.5,0.25,35.0,1,1.0,0.31140000000004875
514,13,0.5,0.25,-35.0,-1,1.0,0.3640000000004875
515,13,0.5,0.25,35.0,1,1.0,0.27990000000045256
516,13,0.5,0.25,-35.0,-1,1.0,0.3690999999998894
517,13,0.5,0.25,-35.0,-1,1.0,0.4517000000000735
518,13,0.5,1.0,-35.0,-1,1.0,0.5707999999999629
519,13,0.5,0.25,35.0,1,1.0,1.166200000000572
520,13,0.5,0.125,35.0,1,1.0,0.5117000000000189
521,13,0.5,0.0625,35.0,-1,0.0,7.2409999999999854
522,13,0.5,0.0625,35.0,-1,0.0,6.567800000000261
523,13,0.5,0.125,35.0,-1,0.0,0.15490000000045256
524,13,0.5,0.0625,-35.0,-1,1.0,0.7537999999999556
525,13,0.5,1.0,-35.0,-1,1.0,0.44630000000006476
526,13,0.5,1.0,-35.0,-1,1.0,0.2755000000001928
527,13,0.5,0.25,35.0,1,1.0,6.928299000000152
528,13,0.5,0.125,-35.0,-1,1.0,11.065299999999752
529,13,0.5,0.25,-35.0,-1,1.0,0.6446000000000822
530,13,0.5,0.25,-35.0,-1,1.0,32.406300000000556
531,13,0.5,0.25,35.0,1,1.0,0.4853000000002794
532,13,0.5,0.25,-35.0,-1,1.0,0.45779999999967913
533,13,0.5,0.125,-35.0,1,0.0,0.7429999999999382
534,13,0.5,0.0,-35.0,1,0.0,5.935100000000148
535,13,0.5,0.125,35.0,-1,0.0,32.689200000000255
536,13,0.5,0.0625,-35.0,1,0.0,45.98810000000003
537,13,0.5,0.0,35.0,-1,0.0,5.343000000000302
538,13,0.4,0.0,35.0,1,1.0,14.837099999999737
539,13,0.5,1.0,35.0,1,1.0,0.7518000000000029
540,13,0.5,0.125,35.0,1,1.0,4.216000000000349
541,13,0.5,0.25,-35.0,-1,1.0,1.2770999999997912
542,13,0.5,1.0,35.0,1,1.0,2.322700000000168
543,13,0.5,1.0,35.0,1,1.0,5.807499999999891
544,13,0.5,0.0625,35.0,1,1.0,2.831699999999728
545,13,0.5,1.0,35.0,1,1.0,0.4897000000000844
546,13,0.5,0.125,35.0,1,1.0,27.035499999999956
