trial_num,session_num,stim_probability_left,contrast,position,response_choice,trial_correct,reaction_time
1,1,0.5,0.0625,35.0,1,1.0,1.9125999999999994
2,1,0.5,0.125,35.0,1,1.0,2.733599999999999
3,1,0.5,0.125,35.0,-1,0.0,25.028299999999998
4,1,0.5,0.125,35.0,1,1.0,0.3563000000000045
5,1,0.5,0.0,-35.0,1,0.0,0.4867000000000061
6,1,0.5,1.0,-35.0,-1,1.0,0.23060000000000258
7,1,0.5,0.0625,-35.0,-1,1.0,11.191799999999994
8,1,0.5,1.0,-35.0,-1,1.0,0.28419999999998424
9,1,0.5,0.125,-35.0,1,0.0,0.9184999999999945
10,1,0.5,0.0,35.0,1,1.0,3.4845000000000113
11,1,0.5,0.25,35.0,1,1.0,0.37640000000000384
12,1,0.5,0.125,-35.0,1,0.0,1.1902999999999935
13,1,0.5,0.25,35.0,1,1.0,0.47939999999999827
14,1,0.5,0.0625,35.0,1,1.0,1.2667000000000002
15,1,0.5,0.125,35.0,1,1.0,0.4574000000000069
16,1,0.5,0.125,-35.0,1,0.0,0.3638999999999868
17,1,0.5,0.25,-35.0,1,0.0,0.5161999999999978
18,1,0.5,0.25,-35.0,-1,1.0,0.4911999999999921
19,1,0.5,0.0,-35.0,1,0.0,0.3691000000000031
20,1,0.5,0.25,35.0,1,1.0,0.3626000000000147
21,1,0.5,0.25,-35.0,-1,1.0,0.8579009999999982
22,1,0.5,0.0,-35.0,1,0.0,1.9863009999999974
23,1,0.5,0.0625,-35.0,1,0.0,0.49990099999999416
24,1,0.5,0.25,-35.0,1,0.0,0.9723009999999874
25,1,0.5,0.0625,-35.0,1,0.0,0.27570099999996955
26,1,0.5,0.25,35.0,1,1.0,0.35770100000002003
27,1,0.5,0.0,35.0,1,1.0,0.41210100000000693
28,1,0.5,0.25,35.0,1,1.0,0.3161010000000033
29,1,0.5,0.0625,-35.0,1,0.0,0.38699999999997203
30,1,0.5,1.0,-35.0,-1,1.0,0.31280100000000743
31,1,0.5,1.0,-35.0,1,0.0,0.9359010000000012
32,1,0.5,0.0625,35.0,1,1.0,0.41170099999999366
33,1,0.5,0.125,-35.0,1,0.0,0.4207010000000082
34,1,0.5,0.0625,35.0,1,1.0,4.9778009999999995
35,1,0.5,0.25,35.0,1,1.0,0.39000100000001225
36,1,0.5,0.25,-35.0,1,0.0,0.47870100000000093
37,1,0.5,1.0,-35.0,1,0.0,0.3476009999999974
38,1,0.5,0.125,-35.0,1,0.0,0.34730100000001585
39,1,0.5,0.0625,-35.0,1,0.0,0.37950100000000475
40,1,0.5,1.0,35.0,1,1.0,0.3289010000000303
41,1,0.5,1.0,35.0,1,1.0,0.3220010000000002
42,1,0.5,1.0,-35.0,-1,1.0,0.271601000000004
43,1,0.5,1.0,35.0,1,1.0,0.3349010000000021
44,1,0.5,0.25,-35.0,-1,1.0,0.7751010000000065
45,1,0.5,1.0,35.0,1,1.0,0.3297009999999716
46,1,0.5,0.0625,35.0,1,1.0,0.5971010000000092
47,1,0.5,0.0625,35.0,1,1.0,0.3138010000000122
48,1,0.5,0.0625,-35.0,1,0.0,0.2888010000000065
49,1,0.5,0.25,-35.0,-1,1.0,0.7537010000000066
50,1,0.5,1.0,-35.0,-1,1.0,0.41820099999998206
51,1,0.5,0.0625,35.0,1,1.0,0.30500099999994745
52,1,0.5,0.0,35.0,1,1.0,0.33830099999994445
53,1,0.5,0.125,-35.0,-1,1.0,0.5039009999999848
54,1,0.5,0.125,-35.0,1,0.0,0.34640099999995755
55,1,0.5,1.0,-35.0,1,0.0,0.9873009999999454
56,1,0.5,0.25,35.0,1,1.0,0.35160099999995964
57,1,0.5,0.0,-35.0,1,0.0,0.3609010000000126
58,1,0.5,0.25,-35.0,1,0.0,0.3390009999999961
59,1,0.5,0.0625,35.0,1,1.0,0.45630099999993945
60,1,0.5,0.125,35.0,1,1.0,0.32250099999993154
61,1,0.5,0.125,35.0,1,1.0,0.365400999999963
62,1,0.5,0.25,35.0,1,1.0,0.43130100000001903
63,1,0.5,0.125,-35.0,1,0.0,0.22850099999993745
64,1,0.5,0.125,-35.0,1,0.0,2.1689009999999485
65,1,0.5,0.25,35.0,1,1.0,0.30700100000001385
66,1,0.5,0.25,-35.0,1,0.0,0.4449009999999589
67,1,0.5,0.25,-35.0,-1,1.0,1.656300999999985
68,1,0.5,0.125,-35.0,1,0.0,0.48260099999993145
69,1,0.5,0.0625,-35.0,1,0.0,0.3921009999999683
70,1,0.5,0.0625,-35.0,1,0.0,0.2579009999999471
71,1,0.5,0.125,-35.0,1,0.0,0.33650099999994154
72,1,0.5,0.125,-35.0,-1,1.0,0.5198009999999158
73,1,0.5,0.0625,35.0,1,1.0,0.47950099999997065
74,1,0.5,0.0,35.0,1,1.0,1.5521009999999933
75,1,0.5,0.0625,-35.0,1,0.0,2.311000999999976
76,1,0.5,0.25,-35.0,-1,1.0,0.3022009999999682
77,1,0.5,0.125,35.0,1,1.0,1.5625009999999406
78,1,0.5,1.0,35.0,1,1.0,0.3062009999999873
79,1,0.5,0.0625,-35.0,1,0.0,0.28570099999996046
80,1,0.5,0.125,35.0,1,1.0,0.35760099999993145
81,1,0.5,0.125,-35.0,1,0.0,0.11390099999999848
82,1,0.5,0.0,35.0,1,1.0,0.136400999999978
83,1,0.5,0.0625,-35.0,1,0.0,0.330900999999983
84,1,0.5,1.0,-35.0,-1,1.0,0.27000099999992244
85,1,0.5,1.0,35.0,1,1.0,0.3258009999999558
86,1,0.5,0.125,-35.0,1,0.0,0.45570099999991953
87,1,0.5,0.125,-35.0,1,0.0,0.38470099999995
88,1,0.5,0.25,35.0,1,1.0,0.28050099999995837
89,1,0.5,0.0625,35.0,1,1.0,0.3503009999999449
90,1,0.5,0.0,-35.0,1,0.0,0.2815009999999347
91,1,0.8,1.0,35.0,1,1.0,0.3548009999999522
92,1,0.8,0.0625,-35.0,1,0.0,0.38260099999996555
93,1,0.8,0.125,-35.0,1,0.0,0.7261009999999715
94,1,0.8,0.0,35.0,1,1.0,3.9581009999999424
95,1,0.8,0.25,35.0,1,1.0,0.35800100000000157
96,1,0.8,0.0,-35.0,1,0.0,0.32820099999997865
97,1,0.8,1.0,-35.0,1,0.0,0.36060100000003104
98,1,0.8,0.0625,-35.0,1,0.0,0.4049009999999953
99,1,0.8,0.25,-35.0,-1,1.0,0.6452009999999291
100,1,0.8,1.0,-35.0,-1,1.0,1.1688010000000304
101,1,0.8,0.125,-35.0,1,0.0,2.460501000000022
102,1,0.8,0.0625,-35.0,1,0.0,0.3166009999999915
103,1,0.8,0.25,-35.0,-1,1.0,0.8422009999999318
104,1,0.8,0.0,-35.0,1,0.0,0.345600999999931
105,1,0.8,1.0,-35.0,-1,1.0,0.2824009999999362
106,1,0.8,0.0,-35.0,1,0.0,0.3623010000000022
107,1,0.8,0.0625,-35.0,1,0.0,1.9306009999999674
108,1,0.8,0.125,-35.0,1,0.0,1.8874009999999544
109,1,0.8,0.125,-35.0,-1,1.0,0.891001000000017
110,1,0.8,0.125,35.0,1,1.0,0.3448009999999613
111,1,0.8,0.0625,-35.0,1,0.0,1.1195010000000138
112,1,0.8,1.0,-35.0,1,0.0,0.9937009999998736
113,1,0.8,0.25,-35.0,1,0.0,0.4445010000000593
114,1,0.8,0.0625,-35.0,1,0.0,0.4031009999999924
115,1,0.8,0.0625,-35.0,1,0.0,3.473300999999992
116,1,0.2,0.0625,-35.0,1,0.0,0.295900999999958
117,1,0.2,0.0625,35.0,1,1.0,3.010801000000015
118,1,0.2,0.0625,-35.0,1,0.0,0.45840099999998074
119,1,0.2,0.125,35.0,1,1.0,0.42669999999998254
120,1,0.2,0.125,35.0,1,1.0,0.33520099999998365
121,1,0.2,0.0625,35.0,1,1.0,0.3647009999999682
122,1,0.2,0.125,35.0,1,1.0,0.36100099999998747
123,1,0.2,1.0,-35.0,1,0.0,0.37140099999999165
124,1,0.2,0.25,35.0,1,1.0,1.520200999999929
125,1,0.2,0.125,35.0,1,1.0,0.3558010000000422
126,1,0.2,0.25,35.0,1,1.0,0.19350099999996928
127,1,0.2,0.0625,35.0,1,1.0,0.28700100000003204
128,1,0.2,0.0625,-35.0,1,0.0,0.10290099999986069
129,1,0.2,0.25,35.0,1,1.0,0.2938010000000304
130,1,0.2,0.125,-35.0,1,0.0,0.34690100000011626
131,1,0.2,1.0,-35.0,1,0.0,0.3566009999999551
132,1,0.2,1.0,-35.0,-1,1.0,0.5294010000000071
133,1,0.2,0.125,35.0,1,1.0,0.36740099999997256
134,1,0.2,0.25,35.0,1,1.0,0.2641009999999824
135,1,0.2,0.125,35.0,1,1.0,0.25870099999997365
136,1,0.2,0.125,35.0,-1,0.0,3.0821009999998523
137,1,0.8,1.0,-35.0,-1,1.0,0.42990099999997256
138,1,0.8,0.25,-35.0,1,0.0,0.9060009999999465
139,1,0.8,1.0,-35.0,-1,1.0,0.531900999999948
140,1,0.8,0.25,-35.0,-1,1.0,0.5935009999999465
141,1,0.8,1.0,-35.0,1,0.0,0.07340099999987615
142,1,0.8,1.0,35.0,1,1.0,0.4115009999999302
143,1,0.8,0.0625,-35.0,1,0.0,0.34140100000001894
144,1,0.8,1.0,-35.0,-1,1.0,0.437300999999934
145,1,0.8,0.25,-35.0,1,0.0,0.29120100000000093
146,1,0.8,0.0625,-35.0,1,0.0,0.5805009999999129
147,1,0.8,0.125,-35.0,1,0.0,0.41750100000001567
148,1,0.8,1.0,-35.0,-1,1.0,0.37190099999986614
149,1,0.8,0.25,-35.0,1,0.0,1.0340009999998756
150,1,0.8,0.0,-35.0,1,0.0,0.4024009999999407
151,1,0.8,0.125,-35.0,-1,1.0,0.34170099999994363
152,1,0.8,0.0625,-35.0,1,0.0,0.3425009999999702
153,1,0.8,1.0,-35.0,-1,1.0,0.38950099999999566
154,1,0.8,0.25,-35.0,1,0.0,0.3666010000000597
155,1,0.8,0.125,-35.0,-1,1.0,0.5404009999998607
156,1,0.8,0.25,-35.0,-1,1.0,0.44720099999995
157,1,0.8,1.0,-35.0,-1,1.0,0.528801000000044
158,1,0.8,0.25,35.0,1,1.0,0.2755009999999629
159,1,0.8,0.125,-35.0,1,0.0,0.2982009999999491
160,1,0.8,0.25,-35.0,1,0.0,0.3400010000000293
161,1,0.8,0.0,-35.0,1,0.0,0.39170100000012553
162,1,0.8,0.125,-35.0,1,0.0,0.5323009999999613
163,1,0.8,1.0,-35.0,-1,1.0,0.6628009999999449
164,1,0.8,0.25,-35.0,1,0.0,0.257300999999984
165,1,0.8,0.0,-35.0,-1,1.0,0.8171009999999796
166,1,0.8,0.125,-35.0,1,0.0,0.9575009999999793
167,1,0.2,0.0625,35.0,1,1.0,0.3319009999999025
168,1,0.2,1.0,35.0,1,1.0,0.29500099999995655
169,1,0.2,0.0625,-35.0,1,0.0,3.1695009999999684
170,1,0.2,0.25,-35.0,-1,1.0,0.5491010000000642
171,1,0.2,0.0625,35.0,1,1.0,0.36510099999998147
172,1,0.2,0.25,35.0,1,1.0,0.3359009999999216
173,1,0.2,0.0,35.0,1,1.0,0.27090099999998074
174,1,0.2,0.25,35.0,1,1.0,0.2722009999999955
175,1,0.2,0.25,-35.0,1,0.0,0.2997010000000273
176,1,0.2,1.0,35.0,1,1.0,0.3165010000000166
177,1,0.2,0.0625,-35.0,1,0.0,0.2756010000000515
178,1,0.2,0.125,-35.0,-1,1.0,0.4288010000000213
179,1,0.2,1.0,35.0,1,1.0,0.30910099999994145
180,1,0.2,0.125,-35.0,-1,1.0,0.5417009999998754
181,1,0.2,1.0,35.0,1,1.0,0.27110099999993054
182,1,0.2,1.0,35.0,1,1.0,0.2898010000000113
183,1,0.2,0.0,35.0,-1,0.0,0.5127009999998791
184,1,0.2,0.0625,-35.0,1,0.0,0.24670100000003004
185,1,0.2,0.125,-35.0,-1,1.0,0.6065000000000964
186,1,0.2,0.0625,35.0,1,1.0,0.33340099999998074
187,1,0.2,0.25,35.0,1,1.0,0.38970099999994545
188,1,0.2,1.0,35.0,1,1.0,0.3505010000000084
189,1,0.8,1.0,-35.0,-1,1.0,0.5734009999999898
190,1,0.8,0.0,35.0,1,1.0,0.17140099999994618
191,1,0.8,0.0625,-35.0,1,0.0,0.26850099999990107
192,1,0.8,0.125,35.0,1,1.0,0.3117009999999709
193,1,0.8,0.0625,-35.0,1,0.0,0.4895010000000184
194,1,0.8,0.0625,35.0,1,1.0,0.8064010000000508
195,1,0.8,0.25,-35.0,1,0.0,0.06450100000006387
196,1,0.8,0.25,-35.0,1,0.0,0.2133009999998876
197,1,0.8,0.0,-35.0,1,0.0,0.12580099999991035
198,1,0.8,0.25,-35.0,-1,1.0,0.2939010000000053
199,1,0.8,0.25,35.0,1,1.0,0.31920100000002094
200,1,0.8,0.125,-35.0,-1,1.0,0.31759999999997035
201,1,0.8,0.0625,35.0,1,1.0,0.30480099999999766
202,1,0.8,0.0,-35.0,1,0.0,0.31110100000000784
203,1,0.8,1.0,-35.0,-1,1.0,0.5167010000000118
204,1,0.8,0.125,-35.0,1,0.0,0.31360000000006494
205,1,0.8,1.0,-35.0,-1,1.0,0.2541009999999915
206,1,0.8,0.0625,-35.0,1,0.0,0.31340099999999893
207,1,0.8,0.125,-35.0,-1,1.0,0.7890009999999847
208,1,0.8,0.25,-35.0,-1,1.0,1.4637009999999009
209,1,0.8,1.0,-35.0,-1,1.0,0.45049999999991996
210,1,0.8,0.125,-35.0,-1,1.0,1.1248010000000477
211,1,0.8,0.25,-35.0,1,0.0,0.39630099999988033
212,1,0.8,0.125,35.0,1,1.0,0.29530099999999493
213,1,0.8,1.0,-35.0,-1,1.0,0.4416009999999915
214,1,0.8,0.0,-35.0,-1,1.0,2.2412010000000464
215,1,0.8,0.25,-35.0,-1,1.0,0.5516010000000051
216,1,0.8,0.0,-35.0,1,0.0,0.2682009999999764
217,1,0.8,1.0,-35.0,-1,1.0,0.27100099999995564
218,1,0.8,0.25,-35.0,-1,1.0,0.2977010000000746
219,1,0.8,1.0,-35.0,-1,1.0,0.5229010000000471
220,1,0.8,1.0,-35.0,-1,1.0,0.23980100000005677
221,1,0.8,1.0,-35.0,-1,1.0,0.811001000000033
222,1,0.8,1.0,-35.0,-1,1.0,0.3580010000000584
223,1,0.8,0.125,-35.0,-1,1.0,0.8195000000000618
224,1,0.8,0.125,35.0,1,1.0,0.45200099999988197
225,1,0.8,0.125,-35.0,1,0.0,0.30360099999984413
226,1,0.8,0.0625,-35.0,1,0.0,0.3263010000000577
227,1,0.8,1.0,35.0,1,1.0,0.31330100000002403
228,1,0.2,0.0625,35.0,1,1.0,0.3120010000000093
229,1,0.2,0.25,35.0,1,1.0,0.25100099999997383
230,1,0.2,1.0,35.0,1,1.0,0.22650099999998474
231,1,0.2,0.125,-35.0,1,0.0,0.26870099999996455
232,1,0.2,0.125,-35.0,1,0.0,0.3440009999999347
233,1,0.2,0.0625,35.0,1,1.0,0.48920099999998
234,1,0.2,0.125,35.0,1,1.0,0.261801000000105
235,1,0.2,0.25,-35.0,-1,1.0,0.7112010000000737
236,1,0.2,1.0,35.0,1,1.0,0.08980100000007951
237,1,0.2,0.125,35.0,1,1.0,0.28520099999991544
238,1,0.2,0.0625,35.0,1,1.0,0.27400100000022576
239,1,0.2,0.0625,35.0,1,1.0,0.21630099999993035
240,1,0.2,0.125,35.0,1,1.0,0.27060100000016973
241,1,0.2,0.25,-35.0,1,0.0,0.15280100000018138
242,1,0.2,0.0625,35.0,1,1.0,0.33159999999998035
243,1,0.2,1.0,-35.0,1,0.0,0.09040100000015627
244,1,0.2,0.0625,-35.0,1,0.0,0.27270100000009734
245,1,0.2,0.0625,-35.0,1,0.0,0.30120099999999184
246,1,0.2,0.0,35.0,1,1.0,0.30670099999997547
247,1,0.2,0.125,35.0,1,1.0,0.1324010000000726
248,1,0.2,0.0,35.0,1,1.0,0.29090100000007624
249,1,0.2,1.0,35.0,1,1.0,0.2499009999999089
250,1,0.2,1.0,35.0,1,1.0,0.10910100000000966
251,1,0.2,0.125,35.0,1,1.0,0.26780100000019047
252,1,0.2,0.25,35.0,1,1.0,0.5203010000000177
253,1,0.2,0.0625,35.0,1,1.0,0.2722009999999955
254,1,0.2,0.125,35.0,1,1.0,0.30150099999991653
255,1,0.2,0.0625,35.0,1,1.0,0.27670100000000275
256,1,0.2,0.0625,35.0,1,1.0,0.2796009999999569
257,1,0.2,1.0,35.0,1,1.0,0.8822010000001228
258,1,0.2,1.0,35.0,1,1.0,0.3263010000000577
259,1,0.2,0.0,35.0,1,1.0,0.33520099999986996
260,1,0.2,0.125,35.0,1,1.0,1.084201000000121
261,1,0.2,1.0,35.0,1,1.0,0.3059010000001763
262,1,0.2,1.0,-35.0,-1,1.0,0.5778010000001359
263,1,0.2,0.0625,35.0,1,1.0,0.19970100000000457
264,1,0.2,0.25,35.0,1,1.0,0.2590010000001257
265,1,0.2,1.0,35.0,1,1.0,0.24770100000023376
266,1,0.8,0.125,-35.0,1,0.0,0.14710100000002058
267,1,0.8,0.0,-35.0,1,0.0,0.26240100000018174
268,1,0.8,0.25,-35.0,-1,1.0,0.32080100000030143
269,1,0.8,0.125,-35.0,1,0.0,0.27030100000024504
270,1,0.8,0.0625,-35.0,1,0.0,0.22180100000014136
271,1,0.8,0.125,35.0,1,1.0,0.3139009999999871
272,1,0.8,0.0625,-35.0,1,0.0,0.11630100000024868
273,1,0.8,0.0,-35.0,1,0.0,0.3481010000000424
274,1,0.8,0.25,35.0,1,1.0,0.36690100000032544
275,1,0.8,0.125,-35.0,1,0.0,0.2824009999999362
276,1,0.8,1.0,35.0,1,1.0,0.3442010000001119
277,1,0.8,1.0,-35.0,-1,1.0,0.7627010000001064
278,1,0.8,1.0,-35.0,-1,1.0,0.3217010000000755
279,1,0.8,0.125,35.0,1,1.0,0.22700099999997292
280,1,0.8,0.125,-35.0,-1,1.0,0.5059009999999944
281,1,0.8,0.125,-35.0,-1,1.0,0.691101000000117
282,1,0.8,0.0625,-35.0,1,0.0,0.30700100000012753
283,1,0.8,0.25,-35.0,1,0.0,0.31870100000014645
284,1,0.8,0.25,-35.0,-1,1.0,0.5202010000002701
285,1,0.8,1.0,-35.0,1,0.0,1.3267010000001846
286,1,0.8,0.25,-35.0,-1,1.0,0.2938010000000304
287,1,0.8,0.125,-35.0,1,0.0,0.3459010000001399
288,1,0.8,0.0625,-35.0,-1,1.0,0.7005010000000311
289,1,0.8,1.0,-35.0,-1,1.0,0.26240100000018174
290,1,0.8,1.0,-35.0,-1,1.0,0.43509999999992033
291,1,0.8,1.0,-35.0,-1,1.0,0.3035010000000966
292,1,0.8,1.0,-35.0,-1,1.0,0.2789010000001326
293,1,0.8,0.125,-35.0,-1,1.0,0.5115010000001803
294,1,0.8,0.25,-35.0,-1,1.0,
295,1,0.8,0.0625,-35.0,-1,1.0,0.5823010000001432
296,1,0.8,0.125,-35.0,-1,1.0,0.2901010000000497
297,1,0.8,0.125,35.0,1,1.0,0.18910100000016428
298,1,0.8,0.0625,-35.0,1,0.0,0.32810100000028797
299,1,0.8,0.0625,-35.0,1,0.0,0.19710100000020248
300,1,0.8,0.0625,-35.0,-1,1.0,0.5423010000001796
301,1,0.8,0.125,-35.0,-1,1.0,0.5840010000001712
302,1,0.8,0.25,-35.0,-1,1.0,0.46970100000021375
303,1,0.8,1.0,-35.0,-1,1.0,0.21200099999987287
304,1,0.8,1.0,35.0,1,1.0,0.3038010000000213
305,1,0.8,1.0,-35.0,-1,1.0,0.26370100000031016
306,1,0.8,0.0625,-35.0,-1,1.0,0.43190100000015264
307,1,0.8,0.0625,-35.0,1,0.0,0.5572010000000773
308,1,0.8,0.0,-35.0,1,0.0,3.4822010000002592
309,1,0.8,0.25,-35.0,-1,1.0,0.4633010000000013
310,1,0.8,0.125,-35.0,-1,1.0,0.28200100000026396
311,1,0.8,0.0625,-35.0,-1,1.0,0.31440100000008897
312,1,0.8,1.0,-35.0,-1,1.0,0.2493010000000595
313,1,0.8,0.25,-35.0,1,0.0,0.9117009999999937
314,1,0.8,0.25,-35.0,-1,1.0,0.3625010000000657
315,1,0.8,0.25,35.0,1,1.0,0.26780100000019047
316,1,0.8,0.0,35.0,1,1.0,0.31040100000018356
317,1,0.8,0.125,-35.0,-1,1.0,0.26920099999983904
318,1,0.8,0.25,-35.0,-1,1.0,0.5317010000001119
319,1,0.8,0.25,-35.0,1,0.0,0.2677009999999882
320,1,0.8,1.0,-35.0,-1,1.0,0.24600100000020575
321,1,0.8,0.0,35.0,-1,0.0,0.6077010000001337
322,1,0.8,0.125,-35.0,-1,1.0,0.6030010000001766
323,1,0.8,0.125,-35.0,-1,1.0,0.5614009999999325
324,1,0.8,0.0,35.0,1,1.0,0.37390099999993254
325,1,0.8,0.25,35.0,1,1.0,0.3159010000001672
326,1,0.8,0.0625,-35.0,-1,1.0,0.7219009999998889
327,1,0.8,0.0625,-35.0,-1,1.0,1.6845009999999547
328,1,0.8,0.125,-35.0,1,0.0,0.33610100000032617
329,1,0.8,0.125,-35.0,-1,1.0,0.5249010000002272
330,1,0.8,0.125,-35.0,-1,1.0,0.2470010000001821
331,1,0.8,0.25,-35.0,-1,1.0,0.49880099999995764
332,1,0.8,0.0625,-35.0,-1,1.0,0.6277010000001155
333,1,0.8,0.25,-35.0,-1,1.0,0.5823010000001432
334,1,0.8,0.25,-35.0,-1,1.0,0.4749010000000453
335,1,0.8,0.0625,-35.0,-1,1.0,0.3903010000001359
336,1,0.8,0.25,-35.0,-1,1.0,0.26250099999992926
337,1,0.2,0.0625,35.0,1,1.0,0.6440010000001166
338,1,0.2,0.0625,35.0,1,1.0,0.2955010000000584
339,1,0.2,0.125,-35.0,-1,1.0,0.30700100000012753
340,1,0.2,0.125,35.0,1,1.0,0.3754010000002381
341,1,0.2,0.0625,35.0,1,1.0,0.23380100000008497
342,1,0.2,0.25,35.0,1,1.0,0.2998010000001159
343,1,0.2,0.25,35.0,1,1.0,0.36110099999996237
344,1,0.2,0.0625,35.0,1,1.0,0.2834010000001399
345,1,0.2,1.0,-35.0,-1,1.0,0.28250100000013845
346,1,0.2,0.25,35.0,1,1.0,0.0882010000000264
347,1,0.2,0.125,35.0,1,1.0,0.44380100000012135
348,1,0.2,0.0,-35.0,1,0.0,0.3094010000002072
349,1,0.2,0.125,35.0,1,1.0,0.2653010000001359
350,1,0.2,1.0,35.0,1,1.0,0.23050100000000384
351,1,0.2,0.125,35.0,1,1.0,0.3500010000002476
352,1,0.2,1.0,-35.0,-1,1.0,0.4651010000000042
353,1,0.2,0.125,35.0,1,1.0,0.23810099999991508
354,1,0.2,0.0625,35.0,1,1.0,0.2629010000002836
355,1,0.2,0.0625,-35.0,1,0.0,0.23240099999998165
356,1,0.2,0.25,-35.0,-1,1.0,0.5168010000002141
357,1,0.2,1.0,-35.0,-1,1.0,0.22230100000001585
358,1,0.2,0.125,-35.0,-1,1.0,0.3713000000000193
359,1,0.2,0.0625,35.0,1,1.0,0.31720100000006823
360,1,0.2,0.125,35.0,1,1.0,0.2721010000000206
361,1,0.2,0.0,35.0,1,1.0,0.43430100000000493
362,1,0.2,0.25,35.0,1,1.0,0.2455010000001039
363,1,0.2,1.0,35.0,1,1.0,0.2278000000001157
364,1,0.2,0.25,35.0,1,1.0,0.5395010000002003
365,1,0.2,0.0625,-35.0,-1,1.0,0.1116010000002916
366,1,0.2,0.0625,35.0,1,1.0,0.08660100000020066
367,1,0.2,0.0625,-35.0,1,0.0,0.18780000000015207
368,1,0.2,1.0,35.0,1,1.0,0.2567010000002483
369,1,0.2,0.25,35.0,1,1.0,0.32920100000001185
370,1,0.2,0.0,-35.0,1,0.0,0.3681010000000242
371,1,0.2,1.0,-35.0,-1,1.0,0.2595010000000002
372,1,0.2,0.125,-35.0,-1,1.0,0.6022010000001501
373,1,0.2,1.0,35.0,1,1.0,0.17830100000014681
374,1,0.2,0.0625,35.0,1,1.0,0.3733010000003105
375,1,0.2,0.125,35.0,1,1.0,0.2653010000001359
376,1,0.2,0.25,35.0,1,1.0,0.30040100000019265
377,1,0.2,1.0,35.0,1,1.0,0.27000100000009297
378,1,0.2,1.0,35.0,1,1.0,0.18510100000025886
379,1,0.2,0.25,35.0,1,1.0,0.1769010000000435
380,1,0.2,0.0,-35.0,1,0.0,0.21160099999997328
381,1,0.2,0.25,35.0,1,1.0,0.3201010000000224
382,1,0.2,0.25,35.0,1,1.0,0.4194009999998798
383,1,0.2,0.0625,35.0,1,1.0,0.19500100000027487
384,1,0.2,0.125,35.0,1,1.0,0.29060100000015154
385,1,0.2,0.0625,35.0,1,1.0,0.2661009999999351
386,1,0.2,1.0,35.0,1,1.0,0.27510099999994964
387,1,0.2,0.0,35.0,1,1.0,0.2875010000000202
388,1,0.2,0.25,-35.0,1,0.0,0.335901000000149
389,1,0.2,0.0,35.0,1,1.0,0.33160099999986414
390,1,0.2,0.125,35.0,1,1.0,0.31020100000023376
391,1,0.2,0.125,35.0,1,1.0,0.3561010000000806
392,1,0.2,0.0625,-35.0,1,0.0,0.33090100000026723
393,1,0.2,1.0,35.0,1,1.0,0.2802010000000337
394,1,0.2,1.0,35.0,1,1.0,0.2620010000000548
395,1,0.2,0.0625,35.0,1,1.0,0.31700100000011844
396,1,0.2,1.0,-35.0,-1,1.0,0.4128009999999449
397,1,0.2,0.0625,-35.0,1,0.0,0.27860099999998056
398,1,0.2,1.0,35.0,1,1.0,0.3004009999999653
399,1,0.2,0.125,-35.0,1,0.0,0.2391010000001188
400,1,0.2,1.0,35.0,1,1.0,0.30710100000010243
401,1,0.2,0.125,-35.0,-1,1.0,0.5326010000001133
402,1,0.2,1.0,-35.0,-1,1.0,0.27800100000013117
403,1,0.2,1.0,35.0,1,1.0,0.24010100000009515
404,1,0.2,1.0,35.0,1,1.0,0.3155010000000402
405,1,0.2,0.0625,35.0,1,1.0,0.3415010000001075
406,1,0.2,0.25,35.0,1,1.0,0.22260100000016791
407,1,0.2,0.0625,-35.0,1,0.0,0.13510100000007697
408,1,0.2,0.25,-35.0,-1,1.0,0.6504010000001017
409,1,0.2,0.125,35.0,1,1.0,0.2921010000000024
410,1,0.2,1.0,35.0,1,1.0,0.3444010000000617
411,1,0.2,0.0625,35.0,1,1.0,0.2798010000001341
412,1,0.2,0.25,-35.0,1,0.0,0.1686010000000806
413,1,0.2,0.0,35.0,1,1.0,0.10090000000013788
414,1,0.8,1.0,-35.0,-1,1.0,0.23590100000001257
415,1,0.8,0.125,-35.0,1,0.0,0.37140100000010534
416,1,0.8,0.125,-35.0,-1,1.0,0.30250100000012026
417,1,0.8,0.25,-35.0,-1,1.0,0.4890010000001439
418,1,0.8,0.25,-35.0,-1,1.0,0.4806010000002061
419,1,0.8,0.25,35.0,-1,0.0,0.5156010000000606
420,1,0.8,0.0,-35.0,1,0.0,0.3542010000001028
421,1,0.8,0.125,-35.0,1,0.0,0.579001000000062
422,1,0.8,0.0625,-35.0,-1,1.0,0.3012010000002192
423,1,0.8,0.125,-35.0,-1,1.0,0.3561010000000806
424,1,0.8,0.25,35.0,1,1.0,0.9852010000001883
425,1,0.8,0.0,-35.0,1,0.0,0.420900999999958
426,1,0.8,0.25,-35.0,1,0.0,0.3994010000003527
427,1,0.8,1.0,35.0,1,1.0,0.2815010000001621
428,1,0.8,0.0,-35.0,1,0.0,0.23360100000013517
429,1,0.8,0.0625,-35.0,1,0.0,0.1887010000000373
430,1,0.8,1.0,35.0,1,1.0,0.36380099999996673
431,1,0.8,0.125,35.0,-1,0.0,0.7530010000002676
432,1,0.8,1.0,-35.0,-1,1.0,0.2880010000001221
433,1,0.8,0.125,35.0,1,1.0,0.27020100000004277
434,1,0.8,1.0,-35.0,-1,1.0,0.28240100000016355
435,1,0.8,0.0,35.0,1,1.0,0.29800100000034035
436,1,0.8,0.25,-35.0,-1,1.0,0.5267010000000028
437,1,0.8,0.125,-35.0,-1,1.0,0.2852010000001428
438,1,0.8,1.0,-35.0,-1,1.0,0.46410100000002785
439,1,0.8,0.125,-35.0,-1,1.0,0.6569010000000617
440,1,0.8,0.125,-35.0,1,0.0,0.27870100000018283
441,1,0.8,0.25,-35.0,-1,1.0,0.2874010000002727
442,1,0.8,0.0,-35.0,1,0.0,0.3623009999998885
443,1,0.8,0.0625,-35.0,-1,1.0,4.480801000000156
444,1,0.8,1.0,35.0,1,1.0,0.2085010000002967
445,1,0.8,1.0,-35.0,1,0.0,0.1771009999999933
446,1,0.8,0.25,-35.0,1,0.0,0.35900100000003476
447,1,0.8,0.125,-35.0,-1,1.0,0.3384009999999762
448,1,0.8,0.0625,-35.0,-1,1.0,0.5499010000000908
449,1,0.8,0.25,-35.0,-1,1.0,0.26450099999988197
450,1,0.8,0.25,-35.0,-1,1.0,0.2998009999998885
451,1,0.8,0.0,35.0,1,1.0,0.3580010000002858
452,1,0.8,0.125,-35.0,1,0.0,0.36680100000012317
453,1,0.8,1.0,-35.0,-1,1.0,0.27590100000020357
454,1,0.2,0.0,35.0,1,1.0,0.16430100000002312
455,1,0.2,0.25,-35.0,-1,1.0,0.2596000000000913
456,1,0.2,0.125,35.0,1,1.0,0.34110100000020793
457,1,0.2,0.0,35.0,1,1.0,0.4027009999999791
458,1,0.2,0.0,35.0,1,1.0,0.29490099999998165
459,1,0.2,0.0625,35.0,1,1.0,0.23430099999995946
460,1,0.2,1.0,35.0,1,1.0,0.3322010000001683
461,1,0.2,0.0,35.0,1,1.0,0.3608010000000377
462,1,0.2,0.25,35.0,1,1.0,0.3034010000001217
463,1,0.2,0.0625,35.0,1,1.0,0.24520099999995182
464,1,0.2,0.0,35.0,1,1.0,0.31110100000000784
465,1,0.2,1.0,35.0,1,1.0,0.29260100000010425
466,1,0.2,0.25,35.0,1,1.0,0.3452010000003156
467,1,0.2,1.0,35.0,1,1.0,0.2872010000000955
468,1,0.2,1.0,35.0,1,1.0,0.36940100000015264
469,1,0.2,0.0,35.0,1,1.0,0.2919010000000526
470,1,0.2,0.125,35.0,1,1.0,0.35690100000010716
471,1,0.2,0.0625,35.0,1,1.0,2.2947010000002592
472,1,0.2,0.25,35.0,1,1.0,0.33280100000001767
473,1,0.2,0.125,35.0,1,1.0,0.35130100000014863
474,1,0.2,0.25,35.0,1,1.0,0.2903009999999995
475,1,0.2,0.25,35.0,-1,0.0,0.40570099999990816
476,1,0.2,0.0,35.0,1,1.0,0.354001000000153
477,1,0.2,1.0,35.0,1,1.0,0.33300100000019484
478,1,0.2,0.125,35.0,1,1.0,0.3082009999998263
479,1,0.2,1.0,35.0,1,1.0,0.27680099999997765
480,1,0.2,0.0625,35.0,1,1.0,0.2653009999999085
481,1,0.2,0.125,-35.0,1,0.0,0.3176010000001952
482,1,0.2,0.0625,35.0,1,1.0,0.42930100000012317
483,1,0.2,0.0625,35.0,1,1.0,0.3781010000002425
484,1,0.2,0.0625,35.0,1,1.0,0.31350099999963277
485,1,0.2,0.25,35.0,1,1.0,0.3049999999998363
486,1,0.2,0.125,35.0,1,1.0,0.3231010000004062
487,1,0.2,1.0,-35.0,-1,1.0,0.26220100000000457
488,1,0.2,1.0,35.0,1,1.0,0.3074010000000271
489,1,0.2,1.0,35.0,1,1.0,0.39960100000007515
490,1,0.2,0.0625,35.0,1,1.0,0.3184009999999944
491,1,0.2,0.25,-35.0,-1,1.0,0.39060099999960585
492,1,0.2,1.0,-35.0,-1,1.0,0.25940099999979793
493,1,0.2,0.125,35.0,1,1.0,0.31730100000004313
494,1,0.2,0.25,35.0,1,1.0,0.3065009999995709
495,1,0.8,0.0625,-35.0,-1,1.0,0.4919009999998707
496,1,0.8,1.0,35.0,1,1.0,0.2827009999996335
497,1,0.8,0.125,-35.0,-1,1.0,0.4319009999994705
498,1,0.8,1.0,-35.0,-1,1.0,0.46370100000012826
499,1,0.8,1.0,35.0,1,1.0,0.37270100000023376
500,1,0.8,0.0625,-35.0,1,0.0,0.29460100000005696
501,1,0.8,0.0,-35.0,-1,1.0,0.52270099999987
502,1,0.8,0.25,35.0,1,1.0,0.29170099999964805
503,1,0.8,0.25,35.0,1,1.0,0.2797009999999318
504,1,0.8,1.0,-35.0,-1,1.0,0.26240099999995437
505,1,0.8,0.0625,-35.0,1,0.0,0.36410099999966405
506,1,0.8,1.0,-35.0,-1,1.0,0.4791009999999005
507,1,0.8,1.0,-35.0,-1,1.0,0.2804999999998472
508,1,0.8,0.25,-35.0,-1,1.0,0.2794010000002345
509,1,0.8,0.125,35.0,1,1.0,0.2941009999999551
510,1,0.8,0.125,-35.0,-1,1.0,0.13340100000004895
511,1,0.8,0.25,-35.0,-1,1.0,0.30530099999987215
512,1,0.8,0.125,-35.0,-1,1.0,0.3608009999998103
513,1,0.8,0.25,-35.0,-1,1.0,0.4963009999996757
514,1,0.8,0.125,-35.0,-1,1.0,0.4882009999996626
515,1,0.8,0.125,-35.0,-1,1.0,0.6767009999998663
516,1,0.8,1.0,-35.0,-1,1.0,0.2249999999994543
517,1,0.8,0.0625,35.0,1,1.0,0.2780009999996764
518,1,0.8,0.0,-35.0,1,0.0,0.25270099999988815
519,1,0.8,0.0625,-35.0,1,0.0,0.4378009999995811
520,1,0.8,0.0,-35.0,1,0.0,0.2698009999999158
521,1,0.8,1.0,-35.0,-1,1.0,0.17910099999971862
522,1,0.8,1.0,35.0,1,1.0,0.2842009999999391
523,1,0.8,0.0625,-35.0,-1,1.0,0.5204009999997652
524,1,0.8,0.0625,-35.0,-1,1.0,0.33160099999986414
525,1,0.8,0.0,-35.0,1,0.0,0.6466009999999187
526,1,0.8,0.0625,-35.0,-1,1.0,0.4287010000002738
527,1,0.8,0.25,35.0,1,1.0,0.3006009999999151
528,1,0.8,0.0,-35.0,1,0.0,0.3465009999999893
529,1,0.8,1.0,-35.0,-1,1.0,0.4620010000003276
530,1,0.8,0.25,-35.0,-1,1.0,0.30690099999992526
531,1,0.8,1.0,-35.0,-1,1.0,0.24240099999997256
532,1,0.8,0.25,-35.0,-1,1.0,0.2577009999999973
533,1,0.8,0.125,-35.0,-1,1.0,0.6406010000000606
534,1,0.8,0.0625,35.0,-1,0.0,0.3355009999995673
535,1,0.8,0.125,-35.0,-1,1.0,0.7240010000000439
536,1,0.8,1.0,-35.0,1,0.0,0.09620099999983722
537,1,0.8,0.25,-35.0,-1,1.0,0.5346009999998387
538,1,0.8,0.0625,35.0,1,1.0,0.31350099999963277
539,1,0.8,0.25,-35.0,-1,1.0,0.3187009999996917
540,1,0.8,1.0,-35.0,-1,1.0,0.4541009999998096
541,1,0.8,1.0,-35.0,-1,1.0,0.38990100000000893
542,1,0.2,1.0,35.0,1,1.0,0.6653009999995447
543,1,0.2,1.0,35.0,1,1.0,0.3334009999994123
544,1,0.2,0.0625,35.0,1,1.0,0.4015009999998256
545,1,0.2,0.125,35.0,1,1.0,0.3234009999996488
546,1,0.2,0.0625,35.0,1,1.0,0.3251009999994494
547,1,0.2,0.0,35.0,1,1.0,4.027001000000382
548,1,0.2,0.125,35.0,-1,0.0,0.11450099999956365
549,1,0.2,1.0,35.0,1,1.0,0.3695009999996728
550,1,0.2,1.0,35.0,1,1.0,0.2619009999998525
551,1,0.2,0.0625,35.0,1,1.0,0.31070099999942613
552,1,0.2,1.0,-35.0,-1,1.0,0.24950099999978192
553,1,0.2,0.25,35.0,1,1.0,0.2516009999999369
554,1,0.2,0.25,-35.0,-1,1.0,0.3073010000002796
555,1,0.2,0.0,35.0,1,1.0,0.3029009999995651
556,1,0.2,0.125,35.0,1,1.0,0.2517010000001392
557,1,0.2,0.0625,35.0,1,1.0,0.3001009999998132
558,1,0.2,0.0625,35.0,1,1.0,0.3291009999998096
559,1,0.2,0.0625,35.0,1,1.0,0.34130099999993035
560,1,0.2,0.0625,-35.0,1,0.0,0.26020100000005186
561,1,0.2,0.125,35.0,1,1.0,0.40840099999968515
562,1,0.2,0.0625,-35.0,-1,1.0,0.2807009999996808
563,1,0.8,0.125,-35.0,-1,1.0,0.3732009999998809
564,1,0.8,0.125,-35.0,-1,1.0,0.4148009999998976
565,1,0.8,0.0625,-35.0,-1,1.0,0.44010100000014063
566,1,0.8,0.125,-35.0,-1,1.0,0.579001000000062
567,1,0.8,0.0625,-35.0,-1,1.0,0.3445010000000366
568,1,0.8,0.25,-35.0,-1,1.0,0.2492010000000846
569,1,0.8,1.0,-35.0,-1,1.0,0.1209009999997761
570,1,0.8,0.0625,-35.0,-1,1.0,0.4368010000002869
571,1,0.8,0.25,-35.0,-1,1.0,0.2786009999995258
572,1,0.8,0.125,35.0,1,1.0,0.3469009999998889
573,1,0.8,0.25,-35.0,1,0.0,0.11610099999961676
574,1,0.8,1.0,-35.0,-1,1.0,0.2672010000001137
575,1,0.8,0.0625,-35.0,-1,1.0,0.38220099999989543
576,1,0.8,0.125,-35.0,1,0.0,0.347400999999536
577,1,0.8,1.0,-35.0,-1,1.0,0.19260099999974045
578,1,0.8,1.0,-35.0,-1,1.0,0.4751009999999951
579,1,0.8,1.0,-35.0,-1,1.0,0.2803009999997812
580,1,0.8,0.125,-35.0,-1,1.0,0.4858009999998103
581,1,0.8,1.0,-35.0,-1,1.0,0.450601000000006
582,1,0.8,0.0,-35.0,-1,1.0,0.6731009999998605
583,1,0.8,0.25,-35.0,-1,1.0,0.22140100000024177
584,1,0.8,0.0625,-35.0,1,0.0,1.113601000000017
585,1,0.8,0.25,-35.0,-1,1.0,0.2621009999998023
586,1,0.2,0.0625,35.0,1,1.0,0.29390099999955055
587,1,0.2,0.125,35.0,1,1.0,0.4326009999999769
588,1,0.2,0.0,35.0,-1,0.0,0.3918010000002141
589,1,0.2,1.0,35.0,1,1.0,0.30010099999935846
590,1,0.2,0.0625,35.0,1,1.0,0.3860009999993963
591,1,0.2,1.0,35.0,1,1.0,0.3511009999997441
592,1,0.2,0.125,35.0,1,1.0,0.293800999999803
593,1,0.2,0.0,35.0,1,1.0,0.30230100000017046
594,1,0.2,0.125,35.0,1,1.0,0.24400100000002567
595,1,0.2,0.25,35.0,1,1.0,0.39570099999991726
596,1,0.2,0.0,35.0,1,1.0,0.3613009999994574
597,1,0.2,1.0,35.0,1,1.0,0.25050099999998565
598,1,0.2,0.25,35.0,1,1.0,0.4224009999993541
599,1,0.2,0.0,-35.0,1,0.0,0.31400099999973463
600,1,0.2,0.0625,-35.0,1,0.0,0.38940099999990707
601,1,0.2,0.0625,35.0,1,1.0,0.2704009999997652
602,1,0.2,1.0,35.0,1,1.0,0.3427010000000337
603,1,0.2,1.0,35.0,1,1.0,0.20100099999990562
604,1,0.2,0.125,35.0,1,1.0,0.2768009999995229
605,1,0.2,0.25,35.0,1,1.0,0.2957010000000082
606,1,0.2,0.25,35.0,1,1.0,0.2879010000001472
607,1,0.2,0.25,35.0,1,1.0,0.11990100000002712
608,1,0.2,1.0,35.0,1,1.0,0.08850099999972372
609,1,0.2,0.25,35.0,1,1.0,0.46050100000002203
610,1,0.2,1.0,35.0,1,1.0,0.2496009999999842
611,1,0.2,0.25,35.0,1,1.0,0.2783009999998285
612,1,0.2,0.125,-35.0,1,0.0,0.2769009999997252
613,1,0.2,0.125,-35.0,-1,1.0,0.33220099999971353
614,1,0.2,1.0,35.0,1,1.0,0.11770099999966988
615,1,0.2,1.0,35.0,1,1.0,2.277100999999675
616,1,0.2,1.0,35.0,1,1.0,0.12490099999968152
617,1,0.2,0.0,35.0,1,1.0,0.2821009999997841
618,1,0.2,0.25,35.0,1,1.0,0.11760099999992235
619,1,0.2,0.125,35.0,1,1.0,0.24300099999982194
620,1,0.2,0.0625,35.0,1,1.0,0.27840100000003076
621,1,0.2,0.0625,35.0,1,1.0,0.29070099999989907
622,1,0.2,0.125,35.0,1,1.0,0.289400999999998
623,1,0.2,0.0625,35.0,1,1.0,0.31500099999993836
624,1,0.2,0.125,35.0,1,1.0,0.27060100000016973
625,1,0.2,0.0625,35.0,1,1.0,0.2829009999995833
626,1,0.2,1.0,35.0,1,1.0,0.2949009999997543
627,1,0.2,0.125,35.0,1,1.0,0.2846010000002934
628,1,0.2,1.0,35.0,1,1.0,0.2992010000002665
629,1,0.2,1.0,35.0,-1,0.0,0.12120099999992817
630,1,0.2,1.0,35.0,1,1.0,0.2825009999996837
631,1,0.2,0.0625,35.0,1,1.0,0.32830099999955564
632,1,0.2,0.0625,35.0,1,1.0,0.31670100000019374
633,1,0.2,0.125,35.0,1,1.0,0.4057009999996808
634,1,0.2,0.25,35.0,1,1.0,0.270600999999715
635,1,0.2,0.25,35.0,1,1.0,0.33590100000037637
636,1,0.2,0.25,35.0,1,1.0,0.29110099999979866
637,1,0.2,0.25,35.0,1,1.0,0.3602009999999609
638,1,0.2,1.0,35.0,1,1.0,0.2051010000000133
639,1,0.2,0.0625,35.0,1,1.0,0.2838010000000395
640,1,0.2,0.0625,35.0,1,1.0,0.2689009999994596
641,1,0.2,0.0625,35.0,1,1.0,0.26750099999981103
642,1,0.2,0.125,35.0,1,1.0,0.3199010000003
643,1,0.2,0.0625,35.0,1,1.0,0.28590100000019447
644,1,0.2,0.125,35.0,1,1.0,0.24430100000017774
645,1,0.2,0.25,35.0,1,1.0,0.24300099999982194
646,1,0.2,0.25,35.0,1,1.0,0.31900099999984377
647,1,0.2,0.0625,35.0,1,1.0,0.3039010000002236
648,1,0.2,0.125,35.0,1,1.0,0.3394009999997252
649,1,0.2,1.0,35.0,1,1.0,0.2683009999996102
650,1,0.2,0.0,35.0,1,1.0,0.2635009999999056
651,1,0.2,0.125,35.0,1,1.0,0.38600099999985105
652,1,0.2,0.125,35.0,1,1.0,0.32720100000005914
653,1,0.8,0.125,-35.0,-1,1.0,0.539100999999846
654,1,0.8,0.0625,35.0,-1,0.0,0.46780100000023594
655,1,0.8,0.125,35.0,1,1.0,0.963600999999926
656,1,0.8,0.125,-35.0,-1,1.0,0.28710099999989325
657,1,0.8,0.125,-35.0,1,0.0,0.3624009999998634
658,1,0.8,0.0,-35.0,1,0.0,0.47110099999963495
659,1,0.8,1.0,-35.0,-1,1.0,0.2635009999999056
660,1,0.8,0.0625,-35.0,-1,1.0,0.6653009999995447
661,1,0.8,0.125,-35.0,-1,1.0,0.47680099999979575
662,1,0.8,1.0,35.0,1,1.0,0.3421010000001843
663,1,0.8,0.125,-35.0,1,0.0,0.18410099999982776
664,1,0.8,0.0625,-35.0,-1,1.0,0.4425009999995382
665,1,0.8,0.125,-35.0,-1,1.0,0.39790099999981976
666,1,0.8,0.0625,-35.0,-1,1.0,1.0632010000003902
667,1,0.8,1.0,35.0,1,1.0,0.34190099999977974
668,1,0.8,0.125,35.0,1,1.0,0.31700099999989106
669,1,0.8,0.0,-35.0,1,0.0,0.312300999999934
670,1,0.8,0.0,-35.0,1,0.0,0.4079009999995833
671,1,0.8,1.0,35.0,1,1.0,0.28690099999994345
672,1,0.8,0.0625,-35.0,1,0.0,0.35530100000005405
673,1,0.8,0.125,-35.0,-1,1.0,0.2576009999993403
674,1,0.8,0.0625,-35.0,-1,1.0,4.6663009999997485
675,1,0.8,1.0,-35.0,-1,1.0,0.26380099999960294
676,1,0.8,0.125,-35.0,-1,1.0,0.5226010000001224
677,1,0.8,1.0,-35.0,-1,1.0,0.4619009999996706
678,1,0.8,0.25,-35.0,-1,1.0,0.5502009999995607
679,1,0.8,0.0,-35.0,-1,1.0,0.612999999999829
680,1,0.8,0.125,-35.0,1,0.0,0.22020100000008824
681,1,0.8,0.0625,-35.0,-1,1.0,0.6156009999999696
682,1,0.8,0.0625,-35.0,-1,1.0,0.5376009999995404
683,1,0.8,0.125,-35.0,-1,1.0,0.7659010000002127
684,1,0.8,0.25,-35.0,-1,1.0,0.5409009999998489
685,1,0.8,0.25,-35.0,-1,1.0,0.45960099999956583
686,1,0.8,0.0625,-35.0,-1,1.0,0.4150009999998474
687,1,0.8,1.0,35.0,1,1.0,0.3109009999998307
688,1,0.8,0.0625,-35.0,1,0.0,0.32270100000005186
689,1,0.8,1.0,-35.0,-1,1.0,0.254200999999739
690,1,0.8,1.0,35.0,1,1.0,0.3368009999999231
691,1,0.8,0.0,-35.0,1,0.0,0.389100999999755
692,1,0.8,1.0,-35.0,-1,1.0,0.31700099999989106
693,1,0.8,0.0,-35.0,-1,1.0,3.4354010000001836
694,1,0.8,0.0,-35.0,1,0.0,0.47700099999974555
695,1,0.8,0.0625,-35.0,-1,1.0,3.9650010000000293
696,1,0.8,0.125,-35.0,-1,1.0,1.532800999999381
697,1,0.8,0.25,-35.0,-1,1.0,0.4215999999996711
698,1,0.8,0.125,-35.0,-1,1.0,0.42020099999990634
699,1,0.8,1.0,-35.0,-1,1.0,0.5090009999998983
700,1,0.8,0.125,-35.0,-1,1.0,0.7047010000001137
701,1,0.8,0.25,-35.0,-1,1.0,0.6239000000000487
702,1,0.8,0.0625,-35.0,-1,1.0,3.4547010000001137
703,1,0.8,0.0625,35.0,1,1.0,0.39220099999965896
704,1,0.8,0.0625,-35.0,-1,1.0,0.6379999999994652
705,1,0.8,0.25,-35.0,-1,1.0,0.42350099999930535
706,1,0.8,0.0625,-35.0,-1,1.0,0.740900999999667
707,1,0.8,1.0,-35.0,-1,1.0,0.43640099999993254
708,1,0.8,0.125,-35.0,1,0.0,0.4348009999998794
709,1,0.8,0.125,-35.0,-1,1.0,0.48630099999991216
710,1,0.8,0.125,-35.0,-1,1.0,0.9418009999999413
711,1,0.8,0.25,-35.0,-1,1.0,0.8244009999998525
712,1,0.8,0.25,35.0,1,1.0,0.42570100000011735
713,1,0.8,0.0,35.0,-1,0.0,0.21860099999958038
714,1,0.8,0.25,-35.0,-1,1.0,0.6453009999995629
715,1,0.8,0.0,-35.0,-1,1.0,4.896901000000071
716,1,0.8,1.0,35.0,1,1.0,0.5046009999996386
717,1,0.8,0.0625,-35.0,-1,1.0,0.7098009999999704
718,1,0.8,0.125,-35.0,-1,1.0,0.3048009999997703
719,1,0.8,1.0,-35.0,-1,1.0,0.3135010000000875
720,1,0.8,0.25,-35.0,1,0.0,0.24250100000017483
721,1,0.8,0.25,-35.0,1,0.0,0.40780099999983577
722,1,0.8,0.0625,35.0,1,1.0,0.46630099999993035
723,1,0.8,1.0,-35.0,-1,1.0,0.32040099999949234
724,1,0.8,0.0,-35.0,1,0.0,2.5028010000000904
725,1,0.8,0.25,-35.0,-1,1.0,0.6041009999999005
726,1,0.8,0.25,-35.0,-1,1.0,0.7395010000000184
727,1,0.8,0.25,-35.0,-1,1.0,0.9817010000001574
728,1,0.2,1.0,35.0,1,1.0,0.5269010000001799
729,1,0.2,0.0625,-35.0,-1,1.0,1.989100999999664
730,1,0.2,0.25,35.0,1,1.0,0.614100999999664
731,1,0.2,0.0,35.0,1,1.0,0.3631009999999151
732,1,0.2,0.25,35.0,1,1.0,0.13840099999970334
733,1,0.2,1.0,-35.0,-1,1.0,0.3502010000001974
734,1,0.2,0.125,35.0,1,1.0,0.44230100000004313
735,1,0.2,0.0,-35.0,1,0.0,0.40050099999962185
736,1,0.2,0.125,35.0,1,1.0,0.4128009999999449
737,1,0.2,0.0,35.0,-1,0.0,0.881500999999389
738,1,0.2,0.25,35.0,1,1.0,0.4733009999999922
739,1,0.2,0.125,-35.0,-1,1.0,0.4292009999999209
740,1,0.2,1.0,35.0,1,1.0,0.48030100000005405
741,1,0.2,1.0,35.0,1,1.0,0.4056009999994785
742,1,0.2,0.0625,35.0,1,1.0,0.3144009999996342
743,1,0.2,0.0625,35.0,1,1.0,0.38230099999964295
744,1,0.2,0.125,-35.0,1,0.0,0.4347010000001319
745,1,0.2,0.125,35.0,-1,0.0,0.3732010000003356
746,1,0.2,0.0625,35.0,1,1.0,0.10190099999999802
747,1,0.2,1.0,-35.0,-1,1.0,0.38780099999985396
748,1,0.2,1.0,35.0,1,1.0,0.31240100000013626
749,1,0.2,0.125,35.0,1,1.0,0.44120099999963713
750,1,0.2,0.0625,-35.0,1,0.0,0.3568009999999049
751,1,0.2,0.125,35.0,1,1.0,0.3753009999995811
752,1,0.2,0.0,35.0,1,1.0,0.39420099999961167
753,1,0.2,1.0,35.0,1,1.0,0.3499010000000453
754,1,0.2,0.125,35.0,1,1.0,0.2517009999996844
755,1,0.2,1.0,-35.0,-1,1.0,0.5904009999999289
756,1,0.2,1.0,-35.0,-1,1.0,0.2692010000000664
757,1,0.2,0.25,35.0,1,1.0,0.31210099999952945
758,1,0.2,0.25,35.0,1,1.0,0.14030099999945378
759,1,0.2,0.125,35.0,1,1.0,0.0747999999998683
760,1,0.2,1.0,35.0,1,1.0,0.3063999999999396
761,1,0.2,0.125,35.0,1,1.0,0.248700999999528
762,1,0.2,1.0,-35.0,-1,1.0,0.28040099999998347
763,1,0.2,0.25,35.0,1,1.0,0.3514009999994414
764,1,0.2,1.0,35.0,1,1.0,3.239600999999766
765,1,0.8,0.25,-35.0,1,0.0,0.0869009999996706
766,1,0.8,1.0,-35.0,1,0.0,0.3156010000002425
767,1,0.8,0.25,-35.0,1,0.0,0.23070099999995364
768,1,0.8,0.0,-35.0,1,0.0,0.372700999999779
769,1,0.8,0.125,-35.0,-1,1.0,0.4608010000001741
770,1,0.8,1.0,-35.0,-1,1.0,0.2701009999996131
771,1,0.8,0.0,-35.0,1,0.0,0.42890099999976883
772,1,0.8,0.0,-35.0,-1,1.0,0.5104010000000017
773,1,0.8,0.25,35.0,1,1.0,0.26920099999961167
774,1,0.8,0.0625,35.0,1,1.0,0.37790099999983795
775,1,0.8,0.25,-35.0,-1,1.0,0.29660100000000966
776,1,0.8,0.0,35.0,1,1.0,6.242200999999568
777,1,0.8,0.125,-35.0,1,0.0,0.41460100000040256
778,1,0.8,1.0,-35.0,-1,1.0,0.25620100000014645
779,1,0.8,0.125,-35.0,1,0.0,0.6048010000004069
780,1,0.8,0.25,-35.0,-1,1.0,0.2461009999997259
781,1,0.8,0.25,-35.0,-1,1.0,0.26560099999960585
782,1,0.8,0.25,-35.0,-1,1.0,0.22340100000019447
783,1,0.8,1.0,-35.0,-1,1.0,0.2327010000003611
784,1,0.8,0.0,-35.0,-1,1.0,0.35770099999990634
785,1,0.8,0.0625,-35.0,-1,1.0,0.24280099999987215
786,1,0.8,0.125,-35.0,-1,1.0,0.501901000000089
787,1,0.8,0.25,-35.0,-1,1.0,0.6112009999997099
788,1,0.8,0.0625,-35.0,-1,1.0,0.26930099999981394
789,1,0.8,0.0625,35.0,1,1.0,0.41460099999949307
790,1,0.8,0.0625,-35.0,-1,1.0,0.34660100000019156
791,1,0.8,0.125,-35.0,-1,1.0,0.24770099999932427
792,1,0.8,1.0,-35.0,-1,1.0,0.22930099999985032
793,1,0.8,0.0625,-35.0,-1,1.0,0.31140099999993254
794,1,0.8,1.0,35.0,1,1.0,0.2831009999995331
795,1,0.8,0.25,-35.0,-1,1.0,0.2819009999998343
796,1,0.8,0.125,-35.0,-1,1.0,0.20730099999946106
797,1,0.8,0.25,-35.0,-1,1.0,0.24940099999957965
798,1,0.8,1.0,-35.0,-1,1.0,0.2512010000000373
799,1,0.8,1.0,-35.0,-1,1.0,0.24360100000012608
800,1,0.8,0.0,-35.0,-1,1.0,0.39940100000012535
801,1,0.8,0.0625,35.0,-1,0.0,0.4642010000002301
802,1,0.8,1.0,-35.0,-1,1.0,0.21890099999973245
803,1,0.8,0.25,-35.0,-1,1.0,0.26460099999985687
804,1,0.8,1.0,-35.0,-1,1.0,0.29580099999975573
805,1,0.8,0.25,-35.0,-1,1.0,0.2213010000000395
806,1,0.8,1.0,-35.0,-1,1.0,0.22630100000014863
807,1,0.8,0.0,35.0,-1,0.0,0.7517010000001392
808,1,0.8,0.0625,-35.0,-1,1.0,0.6165009999995164
809,1,0.8,0.25,-35.0,-1,1.0,0.4357009999998809
810,1,0.8,1.0,35.0,1,1.0,0.34420099999942977
811,1,0.8,1.0,-35.0,-1,1.0,0.20340099999975791
812,1,0.8,1.0,-35.0,-1,1.0,0.48270000000002256
813,1,0.8,0.0625,-35.0,-1,1.0,0.47440099999994345
814,1,0.8,0.25,-35.0,-1,1.0,0.4596010000000206
815,1,0.8,0.25,-35.0,-1,1.0,0.5420009999993454
816,1,0.8,0.25,35.0,1,1.0,0.3140010000001894
817,1,0.8,1.0,-35.0,-1,1.0,0.2395010000000184
818,1,0.8,1.0,35.0,1,1.0,0.26830100000006496
819,1,0.8,0.25,-35.0,-1,1.0,0.2541009999999915
820,1,0.8,0.25,-35.0,-1,1.0,0.31920099999979357
821,1,0.8,1.0,-35.0,-1,1.0,0.2944009999996524
822,1,0.8,0.25,35.0,1,1.0,0.2664009999998598
823,1,0.8,0.25,35.0,1,1.0,0.36860099999967133
824,1,0.8,0.0,-35.0,-1,1.0,0.3502010000001974
825,1,0.8,0.125,-35.0,1,0.0,0.4026010000002316
826,1,0.8,0.25,-35.0,-1,1.0,0.3177009999999427
827,1,0.8,0.0,-35.0,1,0.0,0.4393009999998867
828,1,0.8,0.0625,-35.0,-1,1.0,0.29750099999955637
829,1,0.8,0.25,-35.0,-1,1.0,0.5464010000000599
830,1,0.8,0.0625,-35.0,-1,1.0,0.9380009999995309
831,1,0.8,0.25,-35.0,-1,1.0,0.3471009999998387
832,1,0.8,0.25,-35.0,-1,1.0,0.3093009999993228
833,1,0.8,0.0625,-35.0,-1,1.0,0.6781009999999696
834,1,0.8,0.125,-35.0,-1,1.0,0.42990099999997256
835,1,0.8,0.25,-35.0,-1,1.0,0.22560100000009697
836,1,0.8,1.0,-35.0,-1,1.0,0.22080099999993763
837,1,0.8,0.125,-35.0,-1,1.0,0.36580099999991944
838,1,0.2,0.0,-35.0,1,0.0,1.4072009999999864
839,1,0.2,0.0,35.0,-1,0.0,4.261899999999514
840,1,0.2,0.125,35.0,1,1.0,0.4923009999997703
841,1,0.2,0.25,-35.0,-1,1.0,0.29110099999979866
842,1,0.2,0.125,35.0,1,1.0,0.6061009999993985
843,1,0.2,1.0,-35.0,-1,1.0,0.28490099999999074
844,1,0.2,0.0625,35.0,1,1.0,0.2907009999994443
845,1,0.2,0.0,35.0,1,1.0,0.41550099999994927
846,1,0.2,0.25,35.0,1,1.0,0.1448009999999158
847,1,0.2,0.25,35.0,1,1.0,0.423001000000113
848,1,0.2,0.125,35.0,1,1.0,0.3216010000001006
849,1,0.2,0.25,35.0,1,1.0,0.406601000000137
850,1,0.2,0.0625,35.0,1,1.0,0.39520100000027014
851,1,0.2,1.0,35.0,1,1.0,0.21750100000008388
852,1,0.2,0.0,35.0,1,1.0,0.3635009999993599
853,1,0.2,0.25,35.0,1,1.0,0.2653009999999085
854,1,0.2,0.25,35.0,1,1.0,0.32110099999999875
855,1,0.2,0.25,35.0,1,1.0,0.3762010000000373
856,1,0.2,0.25,-35.0,-1,1.0,0.2783009999998285
857,1,0.2,0.25,-35.0,-1,1.0,0.70370099999991
858,1,0.2,0.125,35.0,-1,0.0,0.238901000000169
859,1,0.2,0.0,35.0,-1,0.0,0.49100099999986924
860,1,0.2,1.0,35.0,1,1.0,0.41220099999964077
861,1,0.2,0.0,35.0,1,1.0,0.3608009999998103
862,1,0.2,1.0,35.0,1,1.0,0.540400999999747
863,1,0.2,1.0,35.0,1,1.0,0.3680010000002767
864,1,0.2,0.125,35.0,1,1.0,0.4294009999998707
865,1,0.2,0.125,35.0,1,1.0,0.4414010000000417
866,1,0.2,0.25,-35.0,-1,1.0,0.293800999999803
867,1,0.2,1.0,35.0,1,1.0,0.38880099999960294
868,1,0.2,0.25,35.0,1,1.0,0.32740100000000893
869,1,0.2,0.125,35.0,1,1.0,0.5897009999998772
870,1,0.2,0.125,35.0,1,1.0,0.41560100000015154
871,1,0.2,1.0,35.0,1,1.0,0.39700100000027305
872,1,0.2,0.0625,35.0,1,1.0,0.4859010000000126
873,1,0.2,0.25,35.0,1,1.0,0.367200999999568
874,1,0.2,0.125,-35.0,-1,1.0,0.5287010000001828
875,1,0.2,1.0,35.0,-1,0.0,0.1777009999996153
876,1,0.2,1.0,-35.0,-1,1.0,0.24670100000003004
877,1,0.2,0.0,35.0,-1,0.0,0.5013009999997848
878,1,0.2,0.125,35.0,1,1.0,1.3358009999997194
879,1,0.2,0.25,35.0,1,1.0,0.44440099999974336
880,1,0.2,0.0,35.0,1,1.0,0.48650099999986196
881,1,0.2,0.0625,-35.0,-1,1.0,0.2955010000000584
882,1,0.2,0.0625,35.0,-1,0.0,0.841001000000233
883,1,0.2,0.0625,35.0,1,1.0,0.3960009999996146
884,1,0.2,1.0,35.0,1,1.0,0.26500099999975646
885,1,0.2,0.25,35.0,1,1.0,0.29020100000025195
886,1,0.2,1.0,35.0,1,1.0,0.3426009999998314
887,1,0.2,0.0625,35.0,1,1.0,0.3144009999996342
888,1,0.2,1.0,35.0,1,1.0,0.30360099999961676
889,1,0.2,0.0,35.0,1,1.0,0.38190099999974336
890,1,0.2,0.0,35.0,1,1.0,0.264100999999755
891,1,0.2,0.0625,35.0,1,1.0,0.28890099999989616
892,1,0.2,0.0625,35.0,1,1.0,0.28090100000008533
893,1,0.2,1.0,35.0,1,1.0,0.29320099999995364
894,1,0.2,0.125,35.0,1,1.0,0.29910100000006423
895,1,0.2,0.125,35.0,1,1.0,0.3305009999999129
896,1,0.2,0.25,35.0,1,1.0,0.2995009999995091
897,1,0.2,0.125,35.0,1,1.0,0.34070100000008097
898,1,0.2,0.0625,35.0,1,1.0,0.286000999999942
899,1,0.2,0.125,-35.0,-1,1.0,0.298001000000113
900,1,0.2,0.0,35.0,1,1.0,0.4333010000000286
901,1,0.2,0.0,-35.0,1,0.0,0.21880099999998492
902,1,0.2,0.0625,35.0,1,1.0,0.4207010000000082
903,1,0.2,0.0625,35.0,-1,0.0,0.8762009999995826
904,1,0.2,0.25,35.0,1,1.0,0.9416009999999915
905,1,0.2,0.125,35.0,1,1.0,0.3263010000000577
906,1,0.2,1.0,35.0,-1,0.0,4.468700999999783
907,1,0.2,0.25,-35.0,-1,1.0,4.186000999999578
908,1,0.2,0.0625,35.0,-1,0.0,4.064199999999801
909,1,0.2,0.0,-35.0,-1,1.0,0.7110009999996691
910,1,0.2,1.0,-35.0,-1,1.0,0.31960099999969316
911,1,0.2,0.0625,35.0,-1,0.0,0.7087010000000191
912,1,0.2,0.125,-35.0,-1,1.0,0.429700999999568
913,1,0.2,1.0,35.0,1,1.0,0.7306010000002061
914,1,0.2,0.125,35.0,-1,0.0,0.5490009999994072
915,1,0.2,1.0,-35.0,-1,1.0,0.25450099999989106
916,1,0.2,0.25,35.0,1,1.0,0.5171009999999114
917,1,0.2,0.0,35.0,1,1.0,0.5121009999998023
918,1,0.2,0.0,35.0,1,1.0,0.3616009999996095
919,1,0.2,0.125,35.0,1,1.0,0.4596010000000206
920,1,0.2,0.0625,-35.0,-1,1.0,0.14830099999971935
921,1,0.2,0.25,35.0,1,1.0,0.35730100000000675
922,1,0.2,0.125,35.0,1,1.0,0.5727009999995971
923,1,0.2,0.125,35.0,-1,0.0,0.8482010000002447
924,1,0.2,0.0625,35.0,-1,0.0,0.6099009999998088
925,1,0.8,0.0625,-35.0,-1,1.0,1.3619010000002163
926,1,0.8,0.0,-35.0,-1,1.0,6.890400999999656
927,1,0.8,1.0,-35.0,-1,1.0,0.4138009999996939
928,1,0.8,0.25,-35.0,-1,1.0,0.5096010000006572
929,1,0.8,0.125,-35.0,-1,1.0,0.7679009999992559
930,1,0.8,1.0,-35.0,-1,1.0,0.2587009999997463
931,1,0.8,0.25,-35.0,-1,1.0,0.2539009999991322
932,1,0.8,0.0625,35.0,-1,0.0,12.862701000000015
933,1,0.8,1.0,35.0,1,1.0,0.3806009999998423
934,1,0.8,1.0,-35.0,1,0.0,0.1200010000002294
935,1,0.8,0.0625,-35.0,-1,1.0,0.5778009999994538
936,1,0.8,0.25,35.0,-1,0.0,0.14310000000023138
937,1,0.8,0.0,-35.0,1,0.0,0.3784009999999398
938,1,0.8,1.0,35.0,1,1.0,0.3237009999993461
939,1,0.8,0.25,-35.0,1,0.0,0.4524009999995542
940,1,0.8,1.0,-35.0,-1,1.0,0.2682009999989532
941,1,0.8,0.0625,-35.0,-1,1.0,0.7731009999997696
942,1,0.8,0.25,35.0,1,1.0,0.36240100000031816
943,1,0.8,0.25,35.0,1,1.0,0.2604009999995469
944,1,0.8,0.0,-35.0,1,0.0,0.45430099999975937
945,1,0.8,1.0,-35.0,-1,1.0,0.23610099999950762
946,1,0.8,0.0625,35.0,1,1.0,0.31460099999912927
947,1,0.8,0.125,-35.0,-1,1.0,0.8271009999998569
948,1,0.8,0.25,-35.0,-1,1.0,0.6129009999995105
949,1,0.8,0.125,-35.0,-1,1.0,0.41130100000009406
950,1,0.8,0.0,-35.0,-1,1.0,0.7803010000006907
951,1,0.8,1.0,-35.0,-1,1.0,0.43209999999999127
952,1,0.8,0.25,-35.0,-1,1.0,0.33080100000006496
953,1,0.8,1.0,-35.0,-1,1.0,0.26850099999956
954,1,0.8,0.0625,-35.0,-1,1.0,0.44710099999974773
955,1,0.8,0.125,-35.0,-1,1.0,0.5362010000008013
956,1,0.8,0.0625,-35.0,-1,1.0,0.4420009999994363
957,1,0.8,0.25,-35.0,1,0.0,0.5535009999994145
958,1,0.8,0.0625,-35.0,-1,1.0,0.6355009999997492
959,1,0.8,1.0,-35.0,-1,1.0,0.35070100000029925
960,1,0.8,0.0625,-35.0,-1,1.0,2.311501000000135
961,1,0.8,0.0,-35.0,-1,1.0,0.726701000000503
962,1,0.8,0.0,-35.0,-1,1.0,0.765400999999656
963,1,0.8,0.25,35.0,1,1.0,0.47720099999969534
964,1,0.8,0.25,-35.0,-1,1.0,0.61580099999901
965,1,0.8,1.0,-35.0,-1,1.0,0.30140099999971426
966,1,0.8,0.125,-35.0,-1,1.0,0.12340099999983067
967,1,0.8,0.25,-35.0,-1,1.0,0.48900099999991653
968,1,0.8,0.125,-35.0,-1,1.0,0.644800999999461
969,1,0.8,0.125,-35.0,-1,1.0,0.6065010000002076
970,1,0.8,1.0,-35.0,-1,1.0,0.36400099999991653
971,1,0.8,0.25,-35.0,-1,1.0,0.24920100000053935
972,1,0.8,0.0625,-35.0,-1,1.0,0.9289009999993141
973,1,0.2,1.0,35.0,1,1.0,0.3899010000004637
974,1,0.2,0.125,35.0,1,1.0,0.39190100000087114
975,1,0.2,0.125,35.0,1,1.0,0.27750099999957456
976,1,0.2,0.125,-35.0,1,0.0,0.49290099999961967
977,1,0.2,0.125,35.0,-1,0.0,0.5515009999999165
978,1,0.2,0.125,35.0,1,1.0,0.42970100000093225
979,1,0.2,0.125,35.0,-1,0.0,0.6653009999999995
980,1,0.2,0.125,-35.0,-1,1.0,0.6176009999999224
981,1,0.2,0.0625,35.0,-1,0.0,0.7292010000001028
982,1,0.2,0.125,35.0,-1,0.0,5.197601000000759
983,1,0.2,0.0,35.0,-1,0.0,0.6712010000001101
984,1,0.2,0.0625,35.0,-1,0.0,14.570200999999543
985,1,0.2,0.125,35.0,-1,0.0,7.213800999999876
986,1,0.2,1.0,35.0,1,1.0,5.916502000000037
987,1,0.2,0.125,35.0,-1,0.0,1.7103019999995013
988,1,0.2,1.0,35.0,1,1.0,7.2782020000004195
989,1,0.2,0.25,35.0,1,1.0,2.0116020000004937
990,1,0.2,0.25,35.0,1,1.0,0.5264020000004166
991,1,0.2,0.125,35.0,1,1.0,0.3621020000000499
992,1,0.2,0.125,35.0,1,1.0,11.317901999999776
993,1,0.2,1.0,35.0,1,1.0,0.3598019999999451
994,1,0.2,0.125,35.0,1,1.0,0.3382019999999102
995,1,0.2,0.0625,35.0,1,1.0,0.36070199999994657
996,1,0.2,0.0625,-35.0,-1,1.0,0.7134019999994052
997,1,0.2,0.25,35.0,1,1.0,0.5515020000002551
998,1,0.2,0.25,35.0,1,1.0,1.8098020000006727
999,1,0.2,0.25,-35.0,-1,1.0,0.5111020000003919
1000,1,0.2,0.0625,35.0,-1,0.0,0.3929019999995944
1001,1,0.2,0.25,-35.0,-1,1.0,3.0071020000004864
1002,1,0.2,0.0625,35.0,-1,0.0,4.588401999999405
1003,1,0.2,0.125,35.0,1,1.0,7.325502000000597
1004,1,0.2,1.0,35.0,1,1.0,0.3929019999995944
1005,1,0.2,1.0,35.0,-1,0.0,5.264101999999184
1006,1,0.2,0.0625,35.0,-1,0.0,2.5543020000004617
1007,1,0.2,1.0,35.0,1,1.0,16.25560199999927
1008,1,0.2,0.125,35.0,1,1.0,0.9967019999994591
1009,1,0.2,0.25,35.0,1,1.0,2.567902000000686
1010,1,0.2,0.25,35.0,1,1.0,13.125600999999733
1011,1,0.2,0.0625,35.0,1,1.0,7.233901999999944
1012,1,0.2,1.0,35.0,-1,0.0,2.2065020000000004
1013,1,0.2,1.0,-35.0,-1,1.0,0.3484019999996235
1014,1,0.2,0.0625,35.0,-1,0.0,6.631102000000283
1,2,0.5,0.0625,-35.0,1,0.0,0.49729999999999985
2,2,0.5,0.125,35.0,1,1.0,0.2362000000000002
3,2,0.5,0.0,-35.0,1,0.0,0.3625999999999987
4,2,0.5,0.0,35.0,1,1.0,2.656599999999999
5,2,0.5,0.0,35.0,1,1.0,0.30770000000000053
6,2,0.5,0.125,-35.0,-1,1.0,0.2785000000000011
7,2,0.5,0.0625,35.0,1,1.0,0.2895000000000003
8,2,0.5,0.0,35.0,-1,0.0,0.5626000000000033
9,2,0.5,1.0,-35.0,-1,1.0,0.21039999999999992
10,2,0.5,0.0625,35.0,1,1.0,0.3294000000000068
11,2,0.5,0.25,35.0,1,1.0,0.2685999999999993
12,2,0.5,0.0,35.0,1,1.0,0.5936999999999983
13,2,0.5,1.0,-35.0,-1,1.0,0.21940000000000026
14,2,0.5,1.0,-35.0,-1,1.0,0.23380000000000223
15,2,0.5,0.0,-35.0,-1,1.0,0.3270999999999873
16,2,0.5,0.125,-35.0,-1,1.0,0.24229999999998597
17,2,0.5,0.0,-35.0,-1,1.0,0.2948999999999984
18,2,0.5,0.125,-35.0,-1,1.0,0.22240000000000748
19,2,0.5,0.0,35.0,-1,0.0,0.3037999999999812
20,2,0.5,0.25,35.0,1,1.0,0.4321999999999946
21,2,0.5,0.125,35.0,-1,0.0,0.292199999999994
22,2,0.5,0.0625,35.0,-1,0.0,0.27599999999998204
23,2,0.5,1.0,-35.0,-1,1.0,0.19369999999999266
24,2,0.5,0.0625,35.0,1,1.0,0.3172999999999888
25,2,0.5,0.25,35.0,1,1.0,0.3663999999999845
26,2,0.5,1.0,35.0,1,1.0,0.2593999999999994
27,2,0.5,0.0,35.0,1,1.0,0.3405999999999949
28,2,0.5,0.0625,35.0,1,1.0,0.27829999999998734
29,2,0.5,0.25,-35.0,-1,1.0,0.20189999999999486
30,2,0.5,0.125,35.0,1,1.0,0.26679999999998927
31,2,0.5,0.125,-35.0,1,0.0,0.1389000000000351
32,2,0.5,0.25,35.0,1,1.0,0.26659999999998263
33,2,0.5,0.0,-35.0,1,0.0,0.38100000000002865
34,2,0.5,0.0,35.0,1,1.0,0.2400000000000091
35,2,0.5,0.0,35.0,1,1.0,0.08120000000002392
36,2,0.5,0.125,35.0,1,1.0,0.09470000000001733
37,2,0.5,0.0,35.0,1,1.0,0.2359000000000151
38,2,0.5,0.0,-35.0,1,0.0,0.24260000000001014
39,2,0.5,0.25,-35.0,-1,1.0,0.5159999999999911
40,2,0.5,0.0625,-35.0,-1,1.0,1.2115000000000293
41,2,0.5,0.25,35.0,1,1.0,3.009299999999996
42,2,0.5,0.25,-35.0,-1,1.0,0.4426000000000272
43,2,0.5,0.0625,-35.0,1,0.0,0.15520000000000778
44,2,0.5,0.25,-35.0,-1,1.0,0.217899999999986
45,2,0.5,1.0,35.0,1,1.0,0.3038999999999987
46,2,0.5,0.0625,-35.0,-1,1.0,0.2896999999999821
47,2,0.5,0.25,-35.0,-1,1.0,0.19820000000001414
48,2,0.5,0.0625,-35.0,-1,1.0,0.29820000000000846
49,2,0.5,0.125,35.0,-1,0.0,0.16719900000001076
50,2,0.5,1.0,-35.0,-1,1.0,0.3669000000000153
51,2,0.5,0.25,35.0,1,1.0,0.2798000000000229
52,2,0.5,0.0,35.0,-1,0.0,0.35650000000001114
53,2,0.5,0.0625,35.0,1,1.0,0.4183000000000163
54,2,0.5,0.0625,35.0,1,1.0,0.4562999999999988
55,2,0.5,1.0,-35.0,-1,1.0,0.3877000000000237
56,2,0.5,0.25,35.0,1,1.0,0.31219999999999004
57,2,0.5,0.125,-35.0,-1,1.0,0.25019900000000916
58,2,0.5,0.0,-35.0,1,0.0,0.37280000000001223
59,2,0.5,0.0625,-35.0,-1,1.0,0.27490000000000236
60,2,0.5,0.0,-35.0,-1,1.0,0.2553000000000054
61,2,0.5,0.25,-35.0,-1,1.0,0.07480000000001041
62,2,0.5,0.125,-35.0,-1,1.0,0.20929999999998472
63,2,0.5,0.0625,35.0,-1,0.0,0.31419999999997117
64,2,0.5,0.0,35.0,-1,0.0,0.2459999999999809
65,2,0.5,0.0,35.0,1,1.0,0.32920000000001437
66,2,0.5,0.0625,-35.0,-1,1.0,0.307899999999961
67,2,0.5,1.0,35.0,1,1.0,0.26619999999996935
68,2,0.5,0.25,35.0,1,1.0,0.3693999999999278
69,2,0.5,0.0625,35.0,1,1.0,0.1653999999999769
70,2,0.5,0.125,35.0,1,1.0,0.32049999999998136
71,2,0.5,0.0625,-35.0,1,0.0,0.23080000000004475
72,2,0.5,1.0,35.0,1,1.0,0.23959999999999582
73,2,0.5,0.25,-35.0,-1,1.0,0.23819999999994934
74,2,0.5,0.0625,-35.0,1,0.0,0.25409999999993715
75,2,0.5,0.25,35.0,-1,0.0,0.08169999999995525
76,2,0.5,0.0625,-35.0,1,0.0,0.34609999999997854
77,2,0.5,0.25,35.0,-1,0.0,0.12139999999993734
78,2,0.5,0.25,-35.0,-1,1.0,0.2308999999999628
79,2,0.5,0.25,-35.0,-1,1.0,0.22429999999997108
80,2,0.5,1.0,-35.0,-1,1.0,0.21039999999999281
81,2,0.5,0.0,-35.0,1,0.0,0.3224999999999909
82,2,0.5,0.0625,-35.0,-1,1.0,0.20279999999991105
83,2,0.5,0.125,35.0,1,1.0,0.36269999999996116
84,2,0.5,0.0,-35.0,1,0.0,0.09129999999998972
85,2,0.5,0.0,-35.0,1,0.0,0.29700000000002547
86,2,0.5,0.25,-35.0,-1,1.0,0.2411999999999921
87,2,0.5,0.0,-35.0,1,0.0,0.4066999999999439
88,2,0.5,0.25,-35.0,-1,1.0,0.25869999999997617
89,2,0.5,0.125,-35.0,-1,1.0,0.3122999999999365
90,2,0.5,1.0,-35.0,-1,1.0,0.18929999999994607
91,2,0.2,0.0625,35.0,1,1.0,0.4216000000000122
92,2,0.2,0.0,35.0,-1,0.0,0.2430999999999699
93,2,0.2,0.125,35.0,-1,0.0,0.09829999999999472
94,2,0.2,0.0625,35.0,1,1.0,0.2594999999999459
95,2,0.2,0.0,35.0,-1,0.0,0.20949999999999136
96,2,0.2,0.0625,35.0,1,1.0,0.27520000000004075
97,2,0.2,0.125,35.0,-1,0.0,0.1675999999999931
98,2,0.2,0.0,35.0,1,1.0,0.30429999999995516
99,2,0.2,0.25,-35.0,-1,1.0,0.22239999999993643
100,2,0.2,0.125,35.0,1,1.0,0.21519999999998163
101,2,0.2,0.25,35.0,-1,0.0,0.13989999999995462
102,2,0.2,1.0,35.0,1,1.0,0.22839999999996508
103,2,0.2,0.0625,35.0,1,1.0,0.30789999999990414
104,2,0.2,0.0625,-35.0,1,0.0,0.2524999999999977
105,2,0.2,0.0625,35.0,1,1.0,0.30069999999994934
106,2,0.2,0.0,-35.0,-1,1.0,0.10599999999999454
107,2,0.2,0.0,35.0,-1,0.0,0.08319999999997663
108,2,0.2,0.125,35.0,1,1.0,0.10909999999995534
109,2,0.2,0.25,-35.0,-1,1.0,0.23980000000000246
110,2,0.2,0.125,35.0,1,1.0,0.2810000000000059
111,2,0.2,0.0,35.0,1,1.0,0.33039999999999736
112,2,0.2,0.125,35.0,-1,0.0,0.091700000000003
113,2,0.2,1.0,35.0,1,1.0,0.2518999999999778
114,2,0.2,0.0,35.0,1,1.0,0.2767999999999802
115,2,0.2,0.25,35.0,1,1.0,0.27329999999994925
116,2,0.2,0.25,35.0,1,1.0,0.27199999999999136
117,2,0.8,1.0,-35.0,-1,1.0,0.24160000000000537
118,2,0.8,0.25,-35.0,1,0.0,0.12599999999997635
119,2,0.8,0.125,-35.0,-1,1.0,0.30560000000002674
120,2,0.8,0.0,-35.0,-1,1.0,0.10529999999999973
121,2,0.8,0.0,-35.0,1,0.0,0.25299999999992906
122,2,0.8,0.25,-35.0,-1,1.0,0.28129999999998745
123,2,0.8,0.25,-35.0,-1,1.0,0.2928999999999746
124,2,0.8,0.25,-35.0,-1,1.0,0.26959999999996853
125,2,0.8,1.0,35.0,1,1.0,0.12249999999994543
126,2,0.8,0.125,-35.0,1,0.0,0.15260000000000673
127,2,0.8,0.0625,-35.0,1,0.0,0.3145000000000664
128,2,0.8,0.25,-35.0,-1,1.0,0.2274000000001024
129,2,0.8,0.0,-35.0,1,0.0,0.2521000000000413
130,2,0.8,0.125,35.0,1,1.0,0.2198000000000775
131,2,0.8,0.25,-35.0,-1,1.0,0.22889999999995325
132,2,0.8,0.0625,-35.0,-1,1.0,0.4035000000000082
133,2,0.8,1.0,-35.0,-1,1.0,0.23060000000009495
134,2,0.8,0.0625,35.0,1,1.0,0.2921000000001186
135,2,0.8,0.0625,-35.0,1,0.0,0.6665000000000418
136,2,0.8,0.0,35.0,-1,0.0,0.45839999999998327
137,2,0.8,0.125,-35.0,-1,1.0,0.24660000000005766
138,2,0.8,0.125,-35.0,-1,1.0,0.3040000000000873
139,2,0.8,0.0,-35.0,-1,1.0,0.3001999999999043
140,2,0.8,1.0,-35.0,-1,1.0,0.1794000000001006
141,2,0.8,0.0,-35.0,-1,1.0,6.095100000000116
142,2,0.8,0.125,-35.0,-1,1.0,0.2341000000000122
143,2,0.8,1.0,-35.0,-1,1.0,0.22299999999995634
144,2,0.8,0.0,-35.0,-1,1.0,0.23550000000000182
145,2,0.8,0.25,-35.0,-1,1.0,0.11230000000000473
146,2,0.8,0.125,-35.0,-1,1.0,0.22930000000008022
147,2,0.8,0.25,-35.0,-1,1.0,0.2661000000000513
148,2,0.8,0.25,-35.0,-1,1.0,0.21430000000009386
149,2,0.8,0.0,-35.0,-1,1.0,0.2705000000000837
150,2,0.8,0.125,-35.0,-1,1.0,0.23540000000002692
151,2,0.8,0.125,35.0,-1,0.0,0.4492999999999938
152,2,0.8,0.0,-35.0,-1,1.0,0.24930000000006203
153,2,0.8,1.0,-35.0,-1,1.0,0.15970000000015716
154,2,0.8,0.0,-35.0,-1,1.0,0.23680000000001655
155,2,0.8,0.125,-35.0,-1,1.0,0.21890000000007603
156,2,0.8,0.0,-35.0,-1,1.0,0.2278999999999769
157,2,0.8,0.25,-35.0,-1,1.0,0.20289999999999964
158,2,0.8,0.0,-35.0,-1,1.0,0.4755000000000109
159,2,0.8,0.0,-35.0,-1,1.0,0.6108000000000402
160,2,0.8,0.25,-35.0,-1,1.0,0.2584999999999127
161,2,0.8,0.0625,-35.0,-1,1.0,0.2721000000000231
162,2,0.8,0.0625,35.0,-1,0.0,0.08429999999998472
163,2,0.8,1.0,-35.0,-1,1.0,0.22710000000006403
164,2,0.8,0.0,35.0,-1,0.0,0.24100000000009913
165,2,0.8,0.0625,35.0,-1,0.0,0.32150000000012824
166,2,0.8,0.25,-35.0,-1,1.0,0.21260000000006585
167,2,0.8,0.0625,-35.0,-1,1.0,0.2642000000000735
168,2,0.8,0.125,35.0,1,1.0,0.3730000000000473
169,2,0.8,0.0,-35.0,-1,1.0,0.2921999999999798
170,2,0.8,1.0,-35.0,-1,1.0,0.2595999999999776
171,2,0.8,0.125,35.0,1,1.0,0.4475999999999658
172,2,0.8,0.25,-35.0,-1,1.0,0.21969899999999143
173,2,0.8,0.0,35.0,-1,0.0,0.3649000000001479
174,2,0.8,0.0625,-35.0,-1,1.0,0.2496000000001004
175,2,0.8,0.0,35.0,-1,0.0,0.2963000000000875
176,2,0.8,0.25,-35.0,-1,1.0,0.20330000000001291
177,2,0.8,0.0,-35.0,-1,1.0,0.23040000000003147
178,2,0.8,0.25,-35.0,-1,1.0,0.2300000000000182
179,2,0.8,0.0625,-35.0,-1,1.0,0.23850000000004457
180,2,0.8,0.25,-35.0,-1,1.0,0.22900000000004184
181,2,0.8,0.125,35.0,1,1.0,0.3467000000000553
182,2,0.2,0.125,35.0,1,1.0,0.33360000000016043
183,2,0.2,1.0,-35.0,-1,1.0,0.18449999999995725
184,2,0.2,1.0,35.0,1,1.0,0.2643000000000484
185,2,0.2,0.0,35.0,1,1.0,0.1372000000000071
186,2,0.2,0.0625,35.0,1,1.0,0.3631000000000313
187,2,0.2,0.125,35.0,1,1.0,0.2598000000000411
188,2,0.2,0.125,35.0,1,1.0,0.3124000000000251
189,2,0.2,0.25,35.0,1,1.0,0.2622989999999845
190,2,0.2,0.25,-35.0,-1,1.0,0.24319999999988795
191,2,0.2,0.0,35.0,1,1.0,0.3402000000000953
192,2,0.2,1.0,35.0,1,1.0,0.2115999999999758
193,2,0.2,0.125,35.0,1,1.0,0.2800999999999476
194,2,0.2,0.125,35.0,1,1.0,0.2156999999999698
195,2,0.2,1.0,35.0,1,1.0,0.21709999999995944
196,2,0.2,0.0625,35.0,1,1.0,0.2561000000000604
197,2,0.2,1.0,-35.0,-1,1.0,0.2154000000000451
198,2,0.2,1.0,35.0,1,1.0,0.26679999999998927
199,2,0.2,1.0,35.0,1,1.0,0.29160000000001673
200,2,0.2,1.0,35.0,1,1.0,0.23280000000011114
201,2,0.2,0.125,35.0,1,1.0,0.22889999999995325
202,2,0.2,0.0,35.0,1,1.0,0.18630000000007385
203,2,0.2,1.0,35.0,1,1.0,0.2637000000000853
204,2,0.2,1.0,35.0,1,1.0,0.22400000000004638
205,2,0.2,0.0625,35.0,1,1.0,0.2845999999999549
206,2,0.2,0.0,-35.0,1,0.0,4.484200000000101
207,2,0.2,0.125,-35.0,-1,1.0,0.2524999999999409
208,2,0.2,1.0,35.0,-1,0.0,0.203899999999976
209,2,0.2,0.25,35.0,1,1.0,0.38850000000002183
210,2,0.2,0.25,-35.0,-1,1.0,0.28900000000010095
211,2,0.2,0.25,-35.0,-1,1.0,0.20620000000008076
212,2,0.2,0.0,35.0,-1,0.0,0.2966000000001259
213,2,0.2,0.0,35.0,1,1.0,0.21230000000002747
214,2,0.2,1.0,35.0,1,1.0,0.4010999999999285
215,2,0.2,0.25,35.0,-1,0.0,0.28690000000005966
216,2,0.2,0.0,35.0,1,1.0,0.3347999999999729
217,2,0.2,0.125,-35.0,-1,1.0,0.2965000000000373
218,2,0.2,0.25,35.0,1,1.0,0.3046000000000504
219,2,0.2,0.0,35.0,1,1.0,0.3264000000000351
220,2,0.2,0.0625,35.0,1,1.0,0.2867999999999711
221,2,0.2,0.25,35.0,1,1.0,0.17060000000003583
222,2,0.2,0.0625,35.0,1,1.0,0.2415000000000873
223,2,0.2,1.0,35.0,1,1.0,0.23029999999994288
224,2,0.2,0.0,-35.0,1,0.0,0.1453000000000202
225,2,0.2,0.25,35.0,1,1.0,0.2637000000000853
226,2,0.2,1.0,35.0,1,1.0,0.10180000000002565
227,2,0.2,0.25,35.0,1,1.0,0.1470000000000482
228,2,0.2,0.25,35.0,1,1.0,0.2938000000000329
229,2,0.2,0.25,35.0,1,1.0,0.13440000000002783
230,2,0.2,0.0,35.0,1,1.0,0.2700000000000955
231,2,0.2,1.0,35.0,1,1.0,0.279700000000048
232,2,0.2,1.0,35.0,1,1.0,0.2505999999999631
233,2,0.2,0.125,35.0,1,1.0,0.2057000000000926
234,2,0.2,0.125,35.0,1,1.0,0.2501000000000886
235,2,0.2,0.0625,-35.0,1,0.0,0.258199999999988
236,2,0.2,0.125,35.0,1,1.0,0.28489999999999327
237,2,0.2,0.25,35.0,1,1.0,0.09900000000004638
238,2,0.2,0.25,35.0,1,1.0,0.29330000000004475
239,2,0.2,0.0,35.0,-1,0.0,0.13440000000002783
240,2,0.2,0.0625,35.0,1,1.0,0.27880000000004657
241,2,0.2,0.125,35.0,1,1.0,0.28700000000003456
242,2,0.2,1.0,35.0,1,1.0,0.2823999999999387
243,2,0.2,1.0,35.0,1,1.0,0.25749999999993634
244,2,0.2,0.25,35.0,1,1.0,0.3165000000000191
245,2,0.8,1.0,-35.0,-1,1.0,0.23860000000001946
246,2,0.8,0.0,35.0,1,1.0,0.24709999999993215
247,2,0.8,1.0,-35.0,-1,1.0,0.2159000000000333
248,2,0.8,0.25,35.0,1,1.0,0.24469900000008238
249,2,0.8,0.125,-35.0,-1,1.0,0.2697000000000571
250,2,0.8,0.25,-35.0,-1,1.0,0.21550000000002
251,2,0.8,0.25,-35.0,-1,1.0,0.2175999999999476
252,2,0.8,1.0,-35.0,-1,1.0,0.19370000000026266
253,2,0.8,1.0,-35.0,-1,1.0,0.26860000000010587
254,2,0.8,1.0,-35.0,-1,1.0,0.2773000000001957
255,2,0.8,1.0,35.0,1,1.0,0.1595999999999549
256,2,0.8,0.0625,-35.0,-1,1.0,0.29460000000017317
257,2,0.8,0.125,35.0,1,1.0,0.2699999999999818
258,2,0.8,0.125,-35.0,-1,1.0,0.22090000000002874
259,2,0.8,0.25,-35.0,-1,1.0,0.21679999999992106
260,2,0.8,1.0,-35.0,-1,1.0,0.29500000000007276
261,2,0.8,1.0,-35.0,-1,1.0,0.16679900000008274
262,2,0.8,0.0,35.0,-1,0.0,0.15670000000000073
263,2,0.8,1.0,-35.0,-1,1.0,0.20800000000008367
264,2,0.8,0.25,-35.0,-1,1.0,0.09300000000007458
265,2,0.8,0.125,-35.0,-1,1.0,0.29340000000001965
266,2,0.8,0.125,35.0,1,1.0,0.31959999999980937
267,2,0.8,0.125,-35.0,1,0.0,0.14799999999991087
268,2,0.8,0.0,-35.0,1,0.0,0.2964999999999236
269,2,0.8,0.0625,35.0,1,1.0,0.35750000000007276
270,2,0.8,0.25,-35.0,-1,1.0,0.1995999999999185
271,2,0.8,0.0625,35.0,-1,0.0,0.2117000000000644
272,2,0.8,0.25,35.0,1,1.0,0.3161000000000058
273,2,0.8,0.0,-35.0,1,0.0,0.28829899999982445
274,2,0.8,0.0,-35.0,-1,1.0,3.4470000000001164
275,2,0.8,0.0625,-35.0,1,0.0,0.3374999999998636
276,2,0.8,0.25,35.0,1,1.0,0.3464000000001306
277,2,0.8,0.0625,35.0,1,1.0,0.2617999999999938
278,2,0.8,0.0625,-35.0,1,0.0,0.670699999999897
279,2,0.8,0.0625,35.0,1,1.0,0.27910000000019863
280,2,0.8,0.0625,-35.0,-1,1.0,0.31150000000002365
281,2,0.8,1.0,-35.0,1,0.0,0.1207000000001699
282,2,0.8,0.0625,35.0,-1,0.0,0.5193000000001575
283,2,0.8,0.0,-35.0,-1,1.0,0.8079000000000178
284,2,0.8,0.125,-35.0,-1,1.0,0.22049999999990177
285,2,0.8,1.0,-35.0,-1,1.0,0.21879999999987376
286,2,0.8,0.25,35.0,-1,0.0,0.3805999999999585
287,2,0.8,0.0,-35.0,1,0.0,3.6756000000000313
288,2,0.8,1.0,35.0,1,1.0,0.24680000000012114
289,2,0.2,0.0625,35.0,-1,0.0,0.3529999999998381
290,2,0.2,0.125,35.0,1,1.0,0.31130000000007385
291,2,0.2,0.0625,35.0,1,1.0,0.30989999999997053
292,2,0.2,0.25,35.0,1,1.0,0.22899999999981446
293,2,0.2,0.0,35.0,1,1.0,8.58439999999996
294,2,0.2,0.0625,-35.0,1,0.0,0.2675000000001546
295,2,0.2,0.0625,35.0,1,1.0,0.32999999999992724
296,2,0.2,0.125,-35.0,1,0.0,0.378400000000056
297,2,0.2,0.0625,-35.0,1,0.0,0.3766000000000531
298,2,0.2,0.125,35.0,1,1.0,0.2787989999999354
299,2,0.2,0.125,35.0,1,1.0,0.2738999999999123
300,2,0.2,1.0,-35.0,-1,1.0,0.12590000000000146
301,2,0.2,0.0,35.0,1,1.0,0.3773000000001048
302,2,0.2,0.0625,-35.0,-1,1.0,0.24930000000017571
303,2,0.2,0.0,35.0,-1,0.0,1.2242000000001099
304,2,0.2,0.125,-35.0,-1,1.0,0.5824000000000069
305,2,0.2,0.0,-35.0,1,0.0,0.23320000000012442
306,2,0.2,1.0,35.0,1,1.0,0.3651999999999589
307,2,0.2,0.125,35.0,1,1.0,0.3206990000003316
308,2,0.2,0.25,35.0,1,1.0,0.26569999999992433
309,2,0.2,0.0625,35.0,1,1.0,0.2943000000000211
310,2,0.2,0.0625,35.0,1,1.0,0.3329000000001088
311,2,0.8,0.125,-35.0,1,0.0,0.2987000000000535
312,2,0.8,0.125,-35.0,-1,1.0,0.3706999999999425
313,2,0.8,0.0,-35.0,1,0.0,0.3103000000000975
314,2,0.8,1.0,-35.0,-1,1.0,0.2313000000001466
315,2,0.8,0.0,-35.0,1,0.0,0.31320000000005166
316,2,0.8,0.125,-35.0,-1,1.0,0.27880000000004657
317,2,0.8,0.0,-35.0,-1,1.0,0.33359999999993306
318,2,0.8,0.0,-35.0,-1,1.0,0.2717000000000098
319,2,0.8,0.125,-35.0,-1,1.0,0.3206000000000131
320,2,0.8,0.0,35.0,-1,0.0,0.32300000000009277
321,2,0.8,1.0,-35.0,-1,1.0,0.21450000000004366
322,2,0.8,0.0,-35.0,1,0.0,0.4307000000001153
323,2,0.8,0.125,-35.0,-1,1.0,0.43849999999997635
324,2,0.8,0.25,-35.0,-1,1.0,0.23099999999976717
325,2,0.8,0.0,-35.0,-1,1.0,0.4800999999999931
326,2,0.8,0.25,-35.0,-1,1.0,0.2052000000001044
327,2,0.8,0.125,-35.0,-1,1.0,0.37770000000000437
328,2,0.8,1.0,-35.0,-1,1.0,0.18630000000007385
329,2,0.8,0.25,-35.0,-1,1.0,0.21520000000009532
330,2,0.8,0.25,-35.0,-1,1.0,0.22690000000011423
331,2,0.8,0.125,-35.0,-1,1.0,0.6193999999998141
332,2,0.8,0.25,-35.0,-1,1.0,0.27480000000014115
333,2,0.8,0.0625,35.0,-1,0.0,0.2642000000000735
334,2,0.8,0.0625,-35.0,-1,1.0,0.2622999999998683
335,2,0.8,0.0,-35.0,-1,1.0,0.151299999999992
336,2,0.8,1.0,35.0,1,1.0,0.32339999999999236
337,2,0.8,0.0625,-35.0,-1,1.0,0.5018000000000029
338,2,0.8,0.0,-35.0,-1,1.0,0.3167000000000826
339,2,0.8,0.25,35.0,1,1.0,0.2520999999999276
340,2,0.8,0.0,-35.0,1,0.0,0.24460000000021864
341,2,0.8,1.0,-35.0,-1,1.0,0.22649999999998727
342,2,0.8,0.0,35.0,-1,0.0,0.6289000000001579
343,2,0.8,1.0,35.0,1,1.0,0.5542000000000371
344,2,0.8,0.0625,-35.0,-1,1.0,0.2862999999999829
345,2,0.8,0.125,-35.0,-1,1.0,0.3680989999998019
346,2,0.8,0.0,-35.0,-1,1.0,0.3668999999999869
347,2,0.8,0.25,-35.0,-1,1.0,0.19209999999998217
348,2,0.8,1.0,35.0,1,1.0,0.35960000000022774
349,2,0.8,0.0,-35.0,1,0.0,0.3648000000000593
350,2,0.8,1.0,35.0,1,1.0,0.2402999999999338
351,2,0.8,0.125,-35.0,-1,1.0,0.20959999999990941
352,2,0.8,0.125,-35.0,-1,1.0,0.09400000000005093
353,2,0.8,0.0625,-35.0,-1,1.0,0.4363000000003012
354,2,0.8,1.0,-35.0,-1,1.0,0.1813999999999396
355,2,0.2,0.25,35.0,1,1.0,0.22530000000006112
356,2,0.2,0.0,35.0,1,1.0,0.28109999999992397
357,2,0.2,0.25,35.0,1,1.0,0.24589999999989232
358,2,0.2,0.0,35.0,1,1.0,0.24749999999994543
359,2,0.2,0.0625,-35.0,1,0.0,0.3830000000000382
360,2,0.2,0.0625,35.0,-1,0.0,0.25179999999977554
361,2,0.2,0.0,35.0,1,1.0,0.39020000000004984
362,2,0.2,0.25,35.0,1,1.0,0.3088000000000193
363,2,0.2,0.0,-35.0,-1,1.0,0.6335999999998876
364,2,0.2,0.125,35.0,1,1.0,0.43200000000001637
365,2,0.2,0.125,35.0,1,1.0,0.41800000000012005
366,2,0.2,0.0625,-35.0,1,0.0,0.11660000000006221
367,2,0.2,1.0,35.0,1,1.0,0.2759000000000924
368,2,0.2,0.25,-35.0,1,0.0,0.22420000000010987
369,2,0.2,0.0,35.0,1,1.0,0.2497000000000753
370,2,0.2,0.0625,-35.0,1,0.0,0.29149999999981446
371,2,0.2,0.125,35.0,1,1.0,0.2802000000001499
372,2,0.2,0.125,-35.0,-1,1.0,0.2558000000001357
373,2,0.2,0.0,35.0,1,1.0,0.5739000000000942
374,2,0.2,0.25,35.0,1,1.0,0.21620000000007167
375,2,0.2,0.0625,-35.0,-1,1.0,0.24510000000009313
376,2,0.2,0.25,-35.0,-1,1.0,0.20959999999990941
377,2,0.2,0.125,-35.0,-1,1.0,0.3088000000000193
378,2,0.2,0.0625,35.0,1,1.0,2.1740000000002055
379,2,0.8,1.0,-35.0,-1,1.0,0.21910000000002583
380,2,0.8,0.0625,-35.0,-1,1.0,0.1710000000000491
381,2,0.8,0.0,-35.0,1,0.0,0.3667000000000371
382,2,0.8,1.0,-35.0,-1,1.0,0.22880000000009204
383,2,0.8,1.0,-35.0,-1,1.0,0.22759999999993852
384,2,0.8,0.0,-35.0,-1,1.0,0.5522000000000844
385,2,0.8,1.0,-35.0,-1,1.0,0.20689999999990505
386,2,0.8,1.0,-35.0,-1,1.0,0.20260000000007494
387,2,0.8,0.0,-35.0,-1,1.0,0.25830000000019027
388,2,0.8,0.0625,-35.0,-1,1.0,0.254399999999805
389,2,0.8,0.0,35.0,-1,0.0,0.30950000000007094
390,2,0.8,1.0,-35.0,-1,1.0,0.2514000000001033
391,2,0.8,0.25,-35.0,-1,1.0,0.21670000000017353
392,2,0.8,0.0625,-35.0,-1,1.0,0.292299999999841
393,2,0.8,0.25,-35.0,-1,1.0,0.25070000000005166
394,2,0.8,1.0,-35.0,-1,1.0,0.21670000000017353
395,2,0.8,0.0625,-35.0,-1,1.0,0.2701999999999316
396,2,0.8,0.0,-35.0,-1,1.0,0.43249999999989086
397,2,0.8,0.0625,35.0,1,1.0,0.364100000000235
398,2,0.8,0.0,-35.0,1,0.0,0.3461000000002059
399,2,0.8,0.0,-35.0,-1,1.0,0.3308999999999287
400,2,0.8,0.0625,-35.0,-1,1.0,0.8304000000000542
401,2,0.8,0.125,-35.0,-1,1.0,0.3085000000000946
402,2,0.8,0.0,35.0,-1,0.0,0.27690000000006876
403,2,0.8,1.0,-35.0,-1,1.0,0.239100000000235
404,2,0.8,0.25,35.0,1,1.0,0.2647999999999229
405,2,0.8,1.0,-35.0,-1,1.0,0.2133000000001175
406,2,0.8,1.0,-35.0,-1,1.0,0.12789999999995416
407,2,0.8,0.125,-35.0,-1,1.0,0.21730000000002292
408,2,0.8,0.125,-35.0,-1,1.0,0.6584999999997763
409,2,0.8,0.25,-35.0,-1,1.0,0.13730000000009568
410,2,0.8,0.25,-35.0,-1,1.0,0.09299899999996342
411,2,0.8,0.125,35.0,1,1.0,0.5352000000000317
412,2,0.8,0.125,35.0,-1,0.0,0.08470000000011169
413,2,0.8,0.25,35.0,1,1.0,0.27939999999989595
414,2,0.8,1.0,-35.0,-1,1.0,0.22109999999997854
415,2,0.8,0.0,-35.0,-1,1.0,0.2672000000002299
416,2,0.8,1.0,-35.0,-1,1.0,0.22989999999981592
417,2,0.8,0.25,-35.0,-1,1.0,0.22149999999987813
418,2,0.8,0.125,35.0,1,1.0,0.27289999999993597
419,2,0.8,0.25,-35.0,-1,1.0,0.19529999999986103
420,2,0.8,0.0,-35.0,1,0.0,0.18750000000022737
421,2,0.8,0.125,35.0,1,1.0,0.1895999999999276
422,2,0.8,1.0,-35.0,-1,1.0,0.2321999999999207
423,2,0.8,0.25,-35.0,-1,1.0,0.13409999999998945
424,2,0.8,0.0,-35.0,1,0.0,0.4895000000001346
425,2,0.8,0.0625,-35.0,1,0.0,0.401299999999992
426,2,0.8,1.0,-35.0,-1,1.0,0.23060000000009495
427,2,0.8,0.0,-35.0,1,0.0,0.6882000000000517
428,2,0.8,0.0625,-35.0,1,0.0,0.3766000000002805
429,2,0.8,0.0,-35.0,-1,1.0,1.0488000000002557
430,2,0.8,0.0625,-35.0,-1,1.0,0.2704999999998563
431,2,0.8,0.0625,-35.0,-1,1.0,0.3851999999999407
432,2,0.8,0.125,-35.0,-1,1.0,0.24710000000004584
433,2,0.8,0.0625,-35.0,-1,1.0,0.25309999999990396
434,2,0.8,0.25,-35.0,-1,1.0,0.3143999999999778
435,2,0.8,1.0,-35.0,-1,1.0,0.23340000000007421
436,2,0.8,0.0,-35.0,-1,1.0,0.5057000000001608
437,2,0.8,1.0,-35.0,-1,1.0,0.23430000000007567
438,2,0.8,1.0,-35.0,-1,1.0,0.21969999999987522
439,2,0.8,0.125,-35.0,-1,1.0,0.27890000000024884
440,2,0.8,0.25,-35.0,-1,1.0,0.3703000000002703
441,2,0.8,0.25,-35.0,-1,1.0,0.29939999999987776
442,2,0.8,0.0625,35.0,-1,0.0,0.40180000000009386
443,2,0.8,0.0625,-35.0,-1,1.0,0.21019999999998618
444,2,0.8,0.0625,35.0,-1,0.0,0.2298000000000684
445,2,0.8,0.125,-35.0,-1,1.0,0.23440000000005057
446,2,0.8,0.125,35.0,-1,0.0,0.3106999999999971
447,2,0.8,1.0,-35.0,-1,1.0,0.25549999999998363
448,2,0.8,0.0625,-35.0,-1,1.0,0.30070000000023356
449,2,0.8,0.25,-35.0,-1,1.0,0.2624999999998181
450,2,0.8,0.125,35.0,1,1.0,0.32829999999989923
451,2,0.8,0.0,-35.0,-1,1.0,0.40949999999998
452,2,0.8,0.125,-35.0,-1,1.0,0.3375989999999547
453,2,0.8,0.0625,-35.0,-1,1.0,0.24630000000001928
454,2,0.8,1.0,-35.0,-1,1.0,0.23110000000019681
455,2,0.8,0.0,-35.0,-1,1.0,0.2865999999999076
456,2,0.8,0.125,-35.0,-1,1.0,0.41420000000016444
457,2,0.8,0.0625,-35.0,-1,1.0,0.29340000000001965
458,2,0.8,0.0625,-35.0,-1,1.0,0.338799999999992
459,2,0.8,0.0625,-35.0,-1,1.0,0.10059999999998581
460,2,0.8,0.125,-35.0,-1,1.0,0.4533000000001266
461,2,0.8,0.25,-35.0,-1,1.0,0.25119999999992615
462,2,0.8,0.25,-35.0,-1,1.0,0.25440000000025975
463,2,0.8,0.0625,-35.0,-1,1.0,0.1792000000000371
464,2,0.8,0.0,-35.0,1,0.0,0.5136989999998605
465,2,0.8,1.0,-35.0,-1,1.0,0.2457000000001699
466,2,0.8,0.25,35.0,1,1.0,0.3817999999998847
467,2,0.8,0.0,35.0,1,1.0,0.5100999999999658
468,2,0.8,0.125,-35.0,-1,1.0,0.26569999999992433
469,2,0.8,0.0625,35.0,1,1.0,0.34799999999995634
470,2,0.2,1.0,35.0,1,1.0,0.2996000000002823
471,2,0.2,0.25,35.0,1,1.0,0.3282000000001517
472,2,0.2,0.25,35.0,1,1.0,0.23630000000002838
473,2,0.2,0.25,35.0,1,1.0,0.3217000000001917
474,2,0.2,1.0,35.0,1,1.0,0.28779999999983374
475,2,0.2,0.125,35.0,-1,0.0,0.995200000000068
476,2,0.2,0.0625,35.0,1,1.0,0.3341000000000349
477,2,0.2,0.125,35.0,1,1.0,0.3049999999998363
478,2,0.2,0.25,35.0,1,1.0,0.282999999999447
479,2,0.2,1.0,35.0,1,1.0,0.3111989999997604
480,2,0.2,1.0,35.0,1,1.0,0.32689999999956854
481,2,0.2,0.0625,-35.0,-1,1.0,0.3223000000002685
482,2,0.2,1.0,35.0,1,1.0,0.2615000000000691
483,2,0.2,0.0,35.0,1,1.0,0.30599999999958527
484,2,0.2,0.0,35.0,1,1.0,0.9713999999994485
485,2,0.2,0.0,35.0,-1,0.0,0.08699999999998909
486,2,0.2,0.0,35.0,-1,0.0,0.33849999999983993
487,2,0.2,1.0,35.0,1,1.0,0.3737999999998465
488,2,0.2,1.0,35.0,1,1.0,0.25949999999966167
489,2,0.2,0.25,-35.0,-1,1.0,0.22349999999960346
490,2,0.2,0.0,35.0,1,1.0,0.3654999999998836
491,2,0.2,0.25,35.0,1,1.0,0.324500000000171
492,2,0.2,0.0,-35.0,-1,1.0,1.6997999999994136
493,2,0.2,0.0625,35.0,1,1.0,0.4052000000001499
494,2,0.2,1.0,35.0,1,1.0,0.3148000000001048
495,2,0.8,0.25,-35.0,-1,1.0,0.2473999999992884
496,2,0.8,1.0,-35.0,-1,1.0,0.21630000000004657
497,2,0.8,0.125,35.0,1,1.0,0.32199999999966167
498,2,0.8,0.25,-35.0,-1,1.0,0.27769999999964057
499,2,0.8,1.0,35.0,1,1.0,0.3053999999997359
500,2,0.8,1.0,-35.0,-1,1.0,0.23520000000007713
501,2,0.8,1.0,-35.0,-1,1.0,0.2561989999999241
502,2,0.8,0.0625,-35.0,-1,1.0,0.3184000000001106
503,2,0.8,0.25,-35.0,-1,1.0,0.18080000000009022
504,2,0.8,0.125,35.0,1,1.0,0.3623999999999796
505,2,0.8,1.0,-35.0,-1,1.0,0.23149999999986903
506,2,0.8,0.25,35.0,1,1.0,0.2369999999996253
507,2,0.8,1.0,-35.0,-1,1.0,0.21589999999969223
508,2,0.8,0.0625,-35.0,1,0.0,0.37869999999975335
509,2,0.8,0.25,35.0,1,1.0,0.36029999999982465
510,2,0.8,1.0,-35.0,-1,1.0,0.2161999999998443
511,2,0.8,0.125,-35.0,-1,1.0,0.30039999999962674
512,2,0.8,0.125,-35.0,-1,1.0,0.24929999999994834
513,2,0.8,0.0,35.0,1,1.0,7.661599999999908
514,2,0.8,0.25,-35.0,-1,1.0,0.39349899999979243
515,2,0.8,0.125,-35.0,-1,1.0,0.2790999999997439
516,2,0.8,0.0,-35.0,-1,1.0,0.36089999999967404
517,2,0.8,0.25,35.0,1,1.0,0.46279999999978827
518,2,0.8,0.0,-35.0,-1,1.0,0.09479899999951158
519,2,0.8,0.0625,-35.0,-1,1.0,0.30019999999967695
520,2,0.8,0.0,-35.0,-1,1.0,0.10229999999955908
521,2,0.8,0.25,-35.0,-1,1.0,0.3306999999999789
522,2,0.8,0.125,35.0,1,1.0,0.3261000000002241
523,2,0.8,0.25,-35.0,1,0.0,0.4118999999996049
524,2,0.8,0.25,-35.0,-1,1.0,0.11209999999982756
525,2,0.8,1.0,-35.0,-1,1.0,0.18719999999984793
526,2,0.8,0.25,-35.0,-1,1.0,0.17639999999983047
527,2,0.8,0.125,-35.0,-1,1.0,0.3546999999998661
528,2,0.8,1.0,-35.0,-1,1.0,0.1332999999999629
529,2,0.8,0.125,35.0,-1,0.0,0.11179999999967549
530,2,0.8,0.0625,-35.0,-1,1.0,0.2470999999995911
531,2,0.8,0.0625,-35.0,-1,1.0,0.29589999999961947
532,2,0.8,0.0,-35.0,-1,1.0,0.5276999999996406
533,2,0.8,0.0,-35.0,1,0.0,0.3454999999999018
534,2,0.8,0.0625,-35.0,-1,1.0,0.5937999999996464
535,2,0.8,0.0,35.0,-1,0.0,0.45249999999987267
536,2,0.8,0.25,-35.0,-1,1.0,0.2642000000000735
537,2,0.8,0.25,35.0,-1,0.0,0.13319999999976062
538,2,0.8,0.0,-35.0,1,0.0,0.3649999999997817
539,2,0.8,0.0,35.0,-1,0.0,3.033599999999751
540,2,0.8,0.125,35.0,1,1.0,0.32129999999961
541,2,0.8,0.0625,-35.0,-1,1.0,0.9070999999994456
542,2,0.8,0.0,-35.0,-1,1.0,0.4926999999997861
543,2,0.8,0.0625,35.0,-1,0.0,0.37039999999979045
544,2,0.8,0.25,35.0,1,1.0,0.28530000000000655
545,2,0.8,0.25,-35.0,-1,1.0,0.25349999999980355
546,2,0.8,0.125,-35.0,-1,1.0,0.469199999999546
547,2,0.8,0.0,-35.0,-1,1.0,0.29819999999972424
548,2,0.8,0.0625,-35.0,-1,1.0,0.326799999999821
549,2,0.8,1.0,-35.0,-1,1.0,0.12590000000000146
550,2,0.8,0.25,-35.0,-1,1.0,0.24119999999993524
551,2,0.8,0.0625,-35.0,-1,1.0,0.2359999999998763
552,2,0.8,0.125,-35.0,-1,1.0,0.27799999999979264
553,2,0.8,0.0625,-35.0,-1,1.0,0.2536000000000058
554,2,0.8,1.0,-35.0,-1,1.0,0.21250000000009095
555,2,0.8,0.0625,-35.0,-1,1.0,0.2711999999996806
556,2,0.8,0.0625,35.0,-1,0.0,0.10599999999976717
557,2,0.8,0.125,-35.0,-1,1.0,0.260899999999765
558,2,0.8,1.0,-35.0,-1,1.0,0.21600000000034925
559,2,0.8,0.0625,-35.0,-1,1.0,0.33829900000000634
560,2,0.8,1.0,-35.0,-1,1.0,0.21770000000014988
561,2,0.8,1.0,35.0,1,1.0,0.5122999999998683
562,2,0.8,0.125,-35.0,-1,1.0,0.31419999999980064
563,2,0.8,0.0625,35.0,-1,0.0,0.5561999999995351
564,2,0.8,0.0,-35.0,1,0.0,0.7383999999992739
565,2,0.8,0.125,35.0,1,1.0,0.5497000000000298
566,2,0.8,0.0,-35.0,-1,1.0,0.23559999999997672
567,2,0.8,0.0625,35.0,-1,0.0,0.38999999999987267
568,2,0.8,0.25,35.0,-1,0.0,0.39519999999947686
569,2,0.8,0.125,35.0,1,1.0,0.3538999999996122
570,2,0.8,0.125,35.0,-1,0.0,0.16879999999991924
571,2,0.8,0.25,-35.0,-1,1.0,0.23410000000012587
572,2,0.8,1.0,35.0,-1,0.0,0.39640000000008513
573,2,0.8,0.25,-35.0,-1,1.0,0.37099999999963984
574,2,0.8,0.25,-35.0,-1,1.0,0.2096999999998843
575,2,0.8,0.125,-35.0,-1,1.0,0.3416999999994914
576,2,0.8,1.0,-35.0,-1,1.0,0.24110000000018772
577,2,0.8,0.125,-35.0,-1,1.0,0.2822000000001026
578,2,0.8,0.25,35.0,-1,0.0,0.46099999999978536
579,2,0.8,0.125,-35.0,-1,1.0,0.26949999999987995
580,2,0.8,0.25,-35.0,-1,1.0,0.2179999999998472
581,2,0.8,0.125,35.0,-1,0.0,0.7130000000001928
582,2,0.8,0.0625,-35.0,-1,1.0,0.25809999999955835
583,2,0.8,0.0,-35.0,-1,1.0,0.45309999999972206
584,2,0.8,0.0,-35.0,-1,1.0,3.4917999999997846
585,2,0.8,1.0,-35.0,-1,1.0,0.2464999999997417
586,2,0.8,0.0625,-35.0,-1,1.0,0.26539999999977226
587,2,0.8,0.0625,35.0,-1,0.0,0.3874000000000706
588,2,0.8,0.25,-35.0,-1,1.0,0.3091999999996915
589,2,0.8,1.0,-35.0,-1,1.0,0.2348999999994703
590,2,0.8,0.0,-35.0,-1,1.0,5.824099999999817
591,2,0.8,1.0,-35.0,-1,1.0,0.20710000000008222
592,2,0.8,1.0,35.0,1,1.0,0.2191000000002532
593,2,0.8,0.0,35.0,-1,0.0,0.2523999999998523
594,2,0.2,1.0,35.0,1,1.0,0.24419999999963693
595,2,0.2,0.0625,35.0,1,1.0,0.5498999999995249
596,2,0.2,0.0,-35.0,1,0.0,0.28779999999960637
597,2,0.2,0.0625,35.0,1,1.0,0.2998000000002321
598,2,0.2,0.25,35.0,1,1.0,0.6476999999995314
599,2,0.2,1.0,35.0,1,1.0,0.32659999999941647
600,2,0.2,0.25,35.0,1,1.0,0.38200000000006185
601,2,0.2,0.125,35.0,1,1.0,0.270799999999781
602,2,0.2,0.25,35.0,1,1.0,0.3096989999999096
603,2,0.2,0.125,35.0,1,1.0,0.33839999999963766
604,2,0.2,0.0625,35.0,1,1.0,0.2671999999997752
605,2,0.2,0.25,-35.0,-1,1.0,0.2991999999994732
606,2,0.2,0.0,35.0,1,1.0,2.2140999999996893
607,2,0.2,0.125,35.0,1,1.0,0.23939999999993233
608,2,0.2,0.25,35.0,1,1.0,0.1388000000001739
609,2,0.2,0.125,35.0,1,1.0,0.30239999999957945
610,2,0.2,1.0,-35.0,-1,1.0,0.25139999999964857
611,2,0.2,0.125,35.0,1,1.0,1.1199999999994361
612,2,0.2,0.125,-35.0,-1,1.0,0.6651999999999134
613,2,0.2,0.0625,35.0,1,1.0,0.21050000000013824
614,2,0.2,0.0,35.0,1,1.0,0.1893000000000029
615,2,0.2,1.0,35.0,1,1.0,0.29649999999946886
616,2,0.2,1.0,35.0,1,1.0,0.27890000000024884
617,2,0.2,0.0,-35.0,-1,1.0,1.7372999999997774
618,2,0.2,0.125,-35.0,-1,1.0,0.27599999999983993
619,2,0.2,0.25,35.0,1,1.0,0.27100000000018554
620,2,0.2,0.0,35.0,-1,0.0,0.802599999999984
621,2,0.2,0.0,35.0,1,1.0,1.9409999999998035
622,2,0.2,1.0,35.0,1,1.0,0.29309999999941283
623,2,0.2,0.0625,-35.0,-1,1.0,0.36289999999962674
624,2,0.2,0.25,35.0,1,1.0,0.32489999999961583
625,2,0.2,0.25,35.0,1,1.0,0.3304000000002816
626,2,0.2,0.0,35.0,1,1.0,0.5693999999998596
627,2,0.2,0.25,35.0,1,1.0,0.29739999999992506
628,2,0.2,0.0,35.0,1,1.0,6.105999999999312
629,2,0.2,0.125,35.0,1,1.0,0.2887000000000626
630,2,0.2,0.25,-35.0,-1,1.0,0.23469999999952051
631,2,0.2,0.0625,-35.0,-1,1.0,0.8115999999999985
632,2,0.2,0.25,35.0,1,1.0,0.1001999999994041
633,2,0.2,0.125,35.0,1,1.0,0.30239999999957945
634,2,0.2,0.0625,35.0,1,1.0,0.30059999999957654
635,2,0.2,0.125,35.0,1,1.0,0.2794999999996435
636,2,0.2,0.125,35.0,1,1.0,0.2948999999998705
637,2,0.8,1.0,-35.0,-1,1.0,0.24399999999968713
638,2,0.8,0.0625,35.0,1,1.0,0.3265000000001237
639,2,0.8,1.0,-35.0,-1,1.0,0.22119999999995343
640,2,0.8,0.0,35.0,-1,0.0,0.27349999999978536
641,2,0.8,0.25,-35.0,-1,1.0,0.33209999999962747
642,2,0.8,1.0,-35.0,-1,1.0,0.22710000000006403
643,2,0.8,0.125,35.0,1,1.0,0.31550000000015643
644,2,0.8,0.125,-35.0,-1,1.0,0.25420000000030996
645,2,0.8,1.0,-35.0,-1,1.0,0.23869999999988067
646,2,0.8,0.25,35.0,1,1.0,0.26439999999956854
647,2,0.8,0.0625,-35.0,1,0.0,0.27959899999996196
648,2,0.8,0.0625,-35.0,1,0.0,0.3382000000001426
649,2,0.8,0.25,-35.0,-1,1.0,0.18349999999963984
650,2,0.8,0.0,-35.0,-1,1.0,0.2647999999999229
651,2,0.8,0.25,-35.0,-1,1.0,0.2035000000000764
652,2,0.8,1.0,-35.0,-1,1.0,0.28609999999980573
653,2,0.8,0.25,35.0,1,1.0,0.31389999999964857
654,2,0.8,0.125,-35.0,-1,1.0,0.3480999999992491
655,2,0.8,1.0,-35.0,-1,1.0,0.2098999999998341
656,2,0.8,0.25,35.0,1,1.0,0.2521999999999025
657,2,0.8,0.125,-35.0,-1,1.0,0.19699999999966167
658,2,0.8,0.125,-35.0,-1,1.0,0.3374999999996362
659,2,0.8,0.0,-35.0,-1,1.0,0.31179999999994834
660,2,0.8,0.0625,-35.0,-1,1.0,0.22629999999935535
661,2,0.8,0.25,-35.0,-1,1.0,0.1115999999997257
662,2,0.8,0.0625,35.0,-1,0.0,0.21769999999969514
663,2,0.8,0.125,-35.0,-1,1.0,0.2854999999995016
664,2,0.8,0.125,-35.0,-1,1.0,0.2205999999996493
665,2,0.8,1.0,-35.0,-1,1.0,0.1830999999992855
666,2,0.8,0.25,35.0,1,1.0,0.3085999999998421
667,2,0.8,1.0,-35.0,-1,1.0,0.19419999999990978
668,2,0.8,0.0,-35.0,1,0.0,0.3532000000000153
669,2,0.8,0.125,-35.0,-1,1.0,0.22749999999950887
670,2,0.8,0.0625,-35.0,-1,1.0,0.23649999999997817
671,2,0.8,0.25,-35.0,-1,1.0,0.858600000000024
672,2,0.8,0.25,-35.0,-1,1.0,0.22659999999950742
673,2,0.8,1.0,-35.0,-1,1.0,0.2023999999996704
674,2,0.8,0.0,-35.0,-1,1.0,0.25749999999970896
675,2,0.8,0.25,-35.0,-1,1.0,0.1859999999996944
676,2,0.8,0.0625,-35.0,-1,1.0,0.3148999999998523
677,2,0.2,0.25,-35.0,-1,1.0,0.29309999999941283
678,2,0.2,1.0,35.0,1,1.0,0.39139999999952124
679,2,0.2,0.125,35.0,-1,0.0,1.073099999999613
680,2,0.2,0.25,35.0,1,1.0,0.3647999999998319
681,2,0.2,1.0,-35.0,-1,1.0,0.27369999999973516
682,2,0.2,0.125,35.0,1,1.0,0.7989000000002306
683,2,0.2,1.0,35.0,1,1.0,0.22719999999981155
684,2,0.2,0.25,35.0,1,1.0,0.2832999999995991
685,2,0.2,0.25,35.0,1,1.0,0.32429999999976644
686,2,0.2,0.125,35.0,1,1.0,0.3852999999999156
687,2,0.2,0.25,35.0,1,1.0,0.3674999999998363
688,2,0.2,0.0,35.0,1,1.0,0.389299999999821
689,2,0.2,0.25,-35.0,-1,1.0,0.22139999999990323
690,2,0.2,0.0625,-35.0,1,0.0,0.3107999999997446
691,2,0.2,0.0625,35.0,-1,0.0,0.3522989999996753
692,2,0.2,0.0,-35.0,1,0.0,0.4441999999999098
693,2,0.2,0.0625,35.0,1,1.0,0.37259999999969295
694,2,0.2,0.0625,-35.0,-1,1.0,0.42510000000038417
695,2,0.2,0.125,-35.0,-1,1.0,0.32009999999991123
696,2,0.2,0.25,35.0,1,1.0,0.29939999999987776
697,2,0.2,0.0,35.0,-1,0.0,2.257799999999861
698,2,0.2,0.125,35.0,1,1.0,0.29559999999992215
699,2,0.2,0.25,35.0,1,1.0,0.26089899999942645
700,2,0.2,0.0,35.0,1,1.0,2.2268989999997757
701,2,0.2,0.25,35.0,-1,0.0,0.14709999999968204
702,2,0.2,0.125,-35.0,-1,1.0,0.23909999999932552
703,2,0.2,0.0,35.0,1,1.0,6.434799999999996
704,2,0.2,0.125,35.0,1,1.0,0.278599999999642
705,2,0.2,0.0625,-35.0,1,0.0,0.4673999999999978
706,2,0.2,1.0,35.0,1,1.0,0.2794999999996435
707,2,0.2,0.25,-35.0,-1,1.0,0.24749999999994543
708,2,0.2,0.125,-35.0,-1,1.0,0.5068999999998596
709,2,0.2,0.25,35.0,1,1.0,0.2551999999996042
710,2,0.2,0.125,35.0,-1,0.0,0.18280000000004293
711,2,0.2,0.0,35.0,-1,0.0,0.5580999999997402
712,2,0.8,0.0,-35.0,1,0.0,0.40759899999966365
713,2,0.8,0.0625,-35.0,-1,1.0,0.2925999999997657
714,2,0.8,0.0,-35.0,1,0.0,0.3214999999995598
715,2,0.8,0.0625,-35.0,1,0.0,0.37210000000004584
716,2,0.8,1.0,35.0,1,1.0,0.2808999999997468
717,2,0.8,0.25,-35.0,-1,1.0,0.2496000000001004
718,2,0.8,0.125,-35.0,-1,1.0,0.2383999999997286
719,2,0.8,0.0,-35.0,-1,1.0,0.2502999999996973
720,2,0.8,0.0625,-35.0,-1,1.0,0.43820000000005166
721,2,0.8,1.0,-35.0,-1,1.0,0.19369999999980791
722,2,0.8,1.0,35.0,1,1.0,0.24619999999958964
723,2,0.8,0.0,-35.0,-1,1.0,0.27149999999983265
724,2,0.8,1.0,35.0,1,1.0,0.29759999999987485
725,2,0.8,0.0625,-35.0,-1,1.0,1.0054999999997563
726,2,0.8,1.0,-35.0,-1,1.0,0.19479999999930442
727,2,0.8,0.125,35.0,1,1.0,0.30629999999973734
728,2,0.8,0.0625,-35.0,-1,1.0,0.5916000000001986
729,2,0.8,0.0625,-35.0,-1,1.0,0.31379999999990105
730,2,0.8,0.125,35.0,1,1.0,0.45959999999968204
731,2,0.8,0.0625,35.0,-1,0.0,0.37099999999963984
732,2,0.8,0.0,-35.0,1,0.0,0.3364000000001397
733,2,0.8,1.0,-35.0,-1,1.0,0.23469999999952051
734,2,0.8,0.0,-35.0,-1,1.0,0.3162000000002081
735,2,0.8,1.0,-35.0,-1,1.0,0.19870099999980084
736,2,0.8,0.125,-35.0,-1,1.0,0.25730099999964295
737,2,0.8,1.0,-35.0,-1,1.0,0.21940099999937956
738,2,0.8,0.25,-35.0,-1,1.0,0.22480099999984304
739,2,0.8,0.125,-35.0,-1,1.0,0.2540009999997892
740,2,0.8,0.125,-35.0,-1,1.0,0.4757009999998445
741,2,0.8,0.125,-35.0,-1,1.0,0.397900999999365
742,2,0.8,0.25,-35.0,-1,1.0,0.21620099999972808
743,2,0.8,0.125,-35.0,-1,1.0,0.3583010000002105
744,2,0.8,0.0,-35.0,-1,1.0,0.2702009999998154
745,2,0.8,0.0,-35.0,-1,1.0,0.4288010000000213
746,2,0.8,1.0,-35.0,-1,1.0,0.1579009999995833
747,2,0.8,0.0,-35.0,-1,1.0,1.2527009999998882
748,2,0.8,0.0625,-35.0,-1,1.0,0.38490099999944505
749,2,0.8,0.125,-35.0,-1,1.0,0.2766009999995731
750,2,0.8,0.125,-35.0,-1,1.0,0.10550100000000384
751,2,0.8,0.0,-35.0,-1,1.0,0.2743009999999231
752,2,0.8,0.0625,-35.0,-1,1.0,0.22670099999959348
753,2,0.8,0.25,-35.0,-1,1.0,0.2150010000000293
754,2,0.8,0.125,-35.0,-1,1.0,0.24690099999952508
755,2,0.8,0.125,-35.0,-1,1.0,0.2490010000001348
756,2,0.8,0.25,-35.0,-1,1.0,0.23370099999965532
757,2,0.8,0.0625,-35.0,1,0.0,0.3359009999994669
758,2,0.8,0.25,-35.0,-1,1.0,0.26400099999955273
759,2,0.8,0.125,-35.0,-1,1.0,0.26600099999950544
760,2,0.8,0.0,35.0,-1,0.0,0.5116009999997004
761,2,0.8,0.125,-35.0,-1,1.0,0.28000099999962913
762,2,0.8,0.25,-35.0,-1,1.0,0.2589010000001508
763,2,0.8,0.125,35.0,-1,0.0,0.10770099999990634
764,2,0.8,0.25,-35.0,-1,1.0,0.24310099999956947
765,2,0.2,0.0625,35.0,-1,0.0,0.29540099999985614
766,2,0.2,0.0,35.0,-1,0.0,0.6504009999994196
767,2,0.2,0.25,35.0,1,1.0,0.3317010000000664
768,2,0.2,1.0,35.0,1,1.0,0.24379999999973734
769,2,0.2,0.0,35.0,1,1.0,0.29920099999981176
770,2,0.2,0.0625,35.0,1,1.0,0.3141009999999369
771,2,0.2,0.0625,-35.0,1,0.0,0.3060009999999238
772,2,0.2,0.25,35.0,1,1.0,0.2281009999996968
773,2,0.2,0.0625,35.0,1,1.0,0.2938010000002578
774,2,0.2,1.0,35.0,1,1.0,0.2660009999999602
775,2,0.2,0.125,35.0,1,1.0,0.22770099999934246
776,2,0.2,0.125,35.0,1,1.0,0.3081010000000788
777,2,0.2,0.25,35.0,1,1.0,0.24700099999972736
778,2,0.2,1.0,35.0,1,1.0,0.27760099999977683
779,2,0.2,0.0625,35.0,1,1.0,0.24300099999982194
780,2,0.2,0.125,35.0,1,1.0,0.2919010000000526
781,2,0.2,0.0,35.0,1,1.0,0.29020100000025195
782,2,0.2,1.0,35.0,1,1.0,0.22250099999973827
783,2,0.2,0.25,35.0,1,1.0,0.2644009999994523
784,2,0.2,0.0625,35.0,1,1.0,0.3262009999998554
785,2,0.2,0.125,35.0,1,1.0,0.23860100000001694
786,2,0.2,0.25,-35.0,-1,1.0,0.24750100000028397
787,2,0.2,0.0,35.0,1,1.0,0.3493999999996049
788,2,0.2,1.0,35.0,1,1.0,0.25540099999943777
789,2,0.2,0.0,35.0,-1,0.0,0.4637009999996735
790,2,0.2,0.125,-35.0,-1,1.0,0.26810100000011516
791,2,0.2,1.0,-35.0,-1,1.0,0.2369009999993068
792,2,0.2,0.0,-35.0,1,0.0,0.36330099999986487
793,2,0.2,0.0625,-35.0,1,0.0,0.28770099999974263
794,2,0.2,0.125,35.0,1,1.0,0.4063009999999849
795,2,0.2,0.0625,-35.0,-1,1.0,0.484400999999707
796,2,0.2,0.125,35.0,1,1.0,0.3139000000001033
797,2,0.2,0.0625,35.0,-1,0.0,0.39530100000001767
798,2,0.2,0.25,35.0,1,1.0,0.30710099999987506
799,2,0.2,0.25,35.0,1,1.0,0.3025009999996655
800,2,0.2,1.0,35.0,1,1.0,0.24850100000003295
801,2,0.2,0.0,35.0,1,1.0,0.2802009999995789
802,2,0.2,0.0625,-35.0,1,0.0,0.2664010000003145
803,2,0.2,0.125,35.0,1,1.0,1.4475009999996473
804,2,0.2,1.0,35.0,1,1.0,0.25920099999984814
805,2,0.2,0.0625,35.0,1,1.0,0.4142009999995935
806,2,0.2,0.125,35.0,1,1.0,0.283900999999787
807,2,0.2,1.0,35.0,1,1.0,0.2986009999995076
808,2,0.2,0.125,35.0,1,1.0,0.3072999999994863
809,2,0.2,1.0,-35.0,1,0.0,0.2960009999997055
810,2,0.2,0.125,35.0,1,1.0,0.2809009999996306
811,2,0.8,0.0625,-35.0,1,0.0,0.2596010000002025
812,2,0.8,0.25,-35.0,-1,1.0,0.29800099999965823
813,2,0.8,1.0,-35.0,-1,1.0,0.31010099999957674
814,2,0.8,0.0,-35.0,-1,1.0,0.6192009999995207
815,2,0.8,0.125,-35.0,-1,1.0,0.19450099999994563
816,2,0.8,1.0,-35.0,-1,1.0,0.2584009999995942
817,2,0.8,0.125,-35.0,-1,1.0,0.300300999999763
818,2,0.8,0.125,-35.0,-1,1.0,0.21890099999973245
819,2,0.8,0.25,-35.0,-1,1.0,0.25790099999949234
820,2,0.8,0.25,-35.0,-1,1.0,0.29640100000005987
821,2,0.8,0.0,-35.0,-1,1.0,0.3988009999998212
822,2,0.8,0.25,-35.0,-1,1.0,0.2505009999995309
823,2,0.8,0.125,-35.0,-1,1.0,0.2891009999993912
824,2,0.8,0.25,-35.0,-1,1.0,0.27760099999977683
825,2,0.8,0.0625,-35.0,-1,1.0,0.3867009999999027
826,2,0.8,0.0,-35.0,-1,1.0,0.23190100000010716
827,2,0.8,0.25,35.0,1,1.0,1.0301009999998314
828,2,0.8,0.125,-35.0,-1,1.0,0.2554009999998925
829,2,0.8,0.0,35.0,-1,0.0,0.3143009999998867
830,2,0.8,0.25,-35.0,-1,1.0,0.2760009999997237
831,2,0.8,0.125,35.0,1,1.0,0.30810099999962404
832,2,0.8,0.125,-35.0,-1,1.0,0.244300999999723
833,2,0.8,0.0625,-35.0,-1,1.0,0.5124009999999544
834,2,0.8,1.0,35.0,1,1.0,0.22090099999968515
835,2,0.8,0.0,35.0,1,1.0,0.2928009999995993
836,2,0.8,0.0,-35.0,1,0.0,0.2842009999999391
837,2,0.8,0.125,-35.0,-1,1.0,0.3030009999997674
838,2,0.8,1.0,-35.0,-1,1.0,0.24540099999967424
839,2,0.8,0.0625,35.0,1,1.0,0.35400099999969825
840,2,0.8,1.0,-35.0,-1,1.0,0.369300999999723
841,2,0.8,0.0625,-35.0,-1,1.0,0.4549010000000635
842,2,0.8,0.0625,-35.0,1,0.0,0.31710100000009334
843,2,0.8,1.0,-35.0,-1,1.0,0.22870099999954618
844,2,0.8,0.0625,-35.0,-1,1.0,0.39750099999992017
845,2,0.8,0.25,35.0,1,1.0,0.27989999999954307
846,2,0.8,0.0,-35.0,1,0.0,0.27620100000012826
847,2,0.8,0.0,-35.0,1,0.0,0.19680099999959566
848,2,0.8,0.0625,-35.0,-1,1.0,0.5244009999996706
849,2,0.8,0.125,-35.0,-1,1.0,0.3863010000000031
850,2,0.8,0.25,-35.0,-1,1.0,0.2014009999998052
851,2,0.8,0.0,-35.0,-1,1.0,0.3796009999996386
852,2,0.8,0.0625,-35.0,1,0.0,6.53110099999958
853,2,0.8,0.0,-35.0,-1,1.0,1.5029010000002927
854,2,0.8,0.125,-35.0,-1,1.0,0.4017009999997754
855,2,0.8,1.0,-35.0,-1,1.0,0.36360100000001694
856,2,0.8,0.25,35.0,1,1.0,4.575500999999804
857,2,0.8,1.0,-35.0,-1,1.0,0.39010099999995873
858,2,0.8,1.0,35.0,1,1.0,0.3355009999995673
859,2,0.8,1.0,35.0,1,1.0,0.30770099999972444
860,2,0.8,0.25,-35.0,-1,1.0,0.380200999999488
861,2,0.8,0.0,-35.0,-1,1.0,0.47540099999969243
862,2,0.8,0.0625,-35.0,-1,1.0,0.5102999999999156
863,2,0.8,0.0,-35.0,-1,1.0,0.9291009999997186
864,2,0.8,0.25,-35.0,1,0.0,0.3944010000000162
865,2,0.2,0.0625,35.0,1,1.0,0.45270099999970626
866,2,0.2,1.0,35.0,1,1.0,0.3046009999998205
867,2,0.2,0.25,-35.0,-1,1.0,0.26700099999970917
868,2,0.2,0.25,35.0,1,1.0,0.2924009999996997
869,2,0.2,0.125,-35.0,-1,1.0,0.2942009999997026
870,2,0.2,0.25,35.0,1,1.0,0.23690099999976155
871,2,0.2,1.0,35.0,1,1.0,0.35180099999979575
872,2,0.2,0.25,35.0,1,1.0,0.3107010000003356
873,2,0.2,0.125,-35.0,1,0.0,0.3662010000002738
874,2,0.2,0.0625,35.0,1,1.0,0.2984010000000126
875,2,0.2,0.0,35.0,1,1.0,0.38000099999999293
876,2,0.2,0.0,35.0,1,1.0,0.351900999999998
877,2,0.2,0.0,35.0,1,1.0,0.28750099999979284
878,2,0.2,0.25,35.0,1,1.0,0.3126009999996313
879,2,0.2,0.0625,35.0,1,1.0,0.28840099999933955
880,2,0.2,0.0625,35.0,1,1.0,0.25500099999999293
881,2,0.2,1.0,35.0,1,1.0,0.2093009999998685
882,2,0.2,0.125,35.0,1,1.0,0.24430100000017774
883,2,0.2,0.25,-35.0,-1,1.0,0.4434009999999944
884,2,0.2,1.0,35.0,1,1.0,0.2653009999999085
885,2,0.2,0.0,35.0,1,1.0,0.3072009999996226
886,2,0.2,0.25,35.0,1,1.0,0.28600099999948725
887,2,0.2,0.25,35.0,1,1.0,0.3149009999997361
888,2,0.2,1.0,35.0,1,1.0,0.24210100000027523
889,2,0.2,0.0625,35.0,1,1.0,0.29770099999950617
890,2,0.2,0.25,35.0,1,1.0,0.26410100000020975
891,2,0.2,0.25,35.0,1,1.0,0.2655009999998583
892,2,0.2,1.0,35.0,1,1.0,0.2975010000000111
893,2,0.2,0.0625,35.0,1,1.0,0.2598009999996975
894,2,0.2,0.25,35.0,1,1.0,0.2687009999995098
895,2,0.2,0.0625,35.0,1,1.0,0.3176010000001952
896,2,0.2,0.0,35.0,-1,0.0,6.680300999999872
897,2,0.2,0.0,35.0,-1,0.0,0.11970100000007733
898,2,0.2,0.0,35.0,1,1.0,0.3140010000001894
899,2,0.2,0.25,35.0,1,1.0,0.2861009999996895
900,2,0.2,1.0,-35.0,-1,1.0,0.21890099999973245
901,2,0.2,0.125,35.0,1,1.0,0.2998010000001159
902,2,0.2,1.0,35.0,1,1.0,0.5126009999994494
903,2,0.2,1.0,35.0,1,1.0,0.2582010000005539
904,2,0.8,0.125,35.0,1,1.0,0.3406010000007882
905,2,0.8,0.0,-35.0,1,0.0,0.35550100000000384
906,2,0.8,0.0625,-35.0,-1,1.0,0.34450100000049133
907,2,0.8,0.0,-35.0,1,0.0,0.33970100000078673
908,2,0.8,0.0,-35.0,1,0.0,5.5720009999995455
909,2,0.8,0.25,-35.0,-1,1.0,0.3116010000003371
910,2,0.8,1.0,-35.0,-1,1.0,0.22710100000040256
911,2,0.8,0.125,-35.0,-1,1.0,0.48890100000062375
912,2,0.8,0.25,-35.0,-1,1.0,0.26430100000015955
913,2,0.8,0.25,-35.0,-1,1.0,0.2932010000004084
914,2,0.8,0.0625,-35.0,-1,1.0,0.2855010000002949
915,2,0.8,0.125,35.0,1,1.0,0.2939010000000053
916,2,0.8,0.125,-35.0,-1,1.0,0.3567009999997026
917,2,0.8,0.125,-35.0,-1,1.0,0.3949009999996633
918,2,0.8,0.25,35.0,1,1.0,0.6442010000000664
919,2,0.8,0.25,-35.0,-1,1.0,0.3457010000001901
920,2,0.8,0.125,-35.0,1,0.0,0.2916009999999005
921,2,0.8,0.0,-35.0,1,0.0,0.2928010000014183
922,2,0.8,1.0,-35.0,-1,1.0,0.23890100000062375
923,2,0.8,1.0,-35.0,-1,1.0,0.2634010000001581
924,2,0.8,0.125,-35.0,-1,1.0,0.2919000000001688
925,2,0.8,0.125,-35.0,-1,1.0,0.40720000000055734
926,2,0.8,0.0,35.0,-1,0.0,0.3994010000005801
927,2,0.8,0.0,35.0,1,1.0,16.757700999999543
928,2,0.8,0.0,-35.0,1,0.0,0.3810009999997419
929,2,0.8,0.25,-35.0,1,0.0,0.3832010000005539
930,2,0.8,1.0,35.0,1,1.0,0.2916009999999005
931,2,0.8,0.25,35.0,1,1.0,0.2504010000002381
932,2,0.8,1.0,35.0,1,1.0,0.3192010000002483
933,2,0.8,0.0,-35.0,1,0.0,0.46470099999987724
934,2,0.8,0.0625,-35.0,1,0.0,0.2993010000009235
935,2,0.8,0.25,-35.0,-1,1.0,0.3509009999997943
936,2,0.8,0.0,-35.0,-1,1.0,6.019701000000168
937,2,0.8,0.0,-35.0,-1,1.0,0.6432010000007722
938,2,0.8,1.0,-35.0,-1,1.0,0.27900099999988015
939,2,0.8,0.25,-35.0,-1,1.0,0.27060100000016973
940,2,0.8,0.25,-35.0,-1,1.0,0.22950099999980011
941,2,0.8,0.0625,-35.0,-1,1.0,0.5283010000002832
942,2,0.8,0.25,-35.0,-1,1.0,0.33700100000078237
943,2,0.8,0.25,-35.0,-1,1.0,0.379200999999739
944,2,0.8,0.125,-35.0,-1,1.0,0.26559999999972206
945,2,0.8,1.0,-35.0,-1,1.0,0.24360100000103557
946,2,0.8,0.0,-35.0,-1,1.0,0.3892009999999573
947,2,0.8,0.0625,-35.0,-1,1.0,0.3479010000000926
948,2,0.8,0.0,-35.0,-1,1.0,0.47930100000030507
949,2,0.8,1.0,-35.0,-1,1.0,0.21830100000079256
950,2,0.8,0.0,-35.0,-1,1.0,0.46580100000028324
951,2,0.8,1.0,-35.0,-1,1.0,0.30650100000002567
952,2,0.8,0.0625,-35.0,-1,1.0,0.45250100000066595
953,2,0.8,0.125,-35.0,-1,1.0,0.3074010000000271
954,2,0.8,0.25,-35.0,-1,1.0,0.21950099999958184
955,2,0.8,0.0,-35.0,-1,1.0,0.27490099999977247
956,2,0.8,0.125,35.0,-1,0.0,0.5238010000011855
957,2,0.8,1.0,-35.0,-1,1.0,0.2516009999999369
958,2,0.8,0.0625,-35.0,-1,1.0,0.3607010000005175
959,2,0.8,0.0,-35.0,-1,1.0,0.3289009999998598
960,2,0.8,0.25,-35.0,-1,1.0,0.29450100000030943
961,2,0.8,0.0625,-35.0,-1,1.0,0.31950099999994563
962,2,0.8,0.0625,35.0,-1,0.0,0.43820099999993545
963,2,0.8,0.25,-35.0,-1,1.0,0.272901000001184
964,2,0.8,0.25,-35.0,-1,1.0,0.27570099999957165
965,2,0.8,0.25,-35.0,-1,1.0,0.21000099999946542
966,2,0.8,0.0,-35.0,-1,1.0,0.3391010000004826
967,2,0.8,0.0625,35.0,-1,0.0,0.520900999999867
968,2,0.8,0.0,-35.0,-1,1.0,0.3557010000013179
969,2,0.8,0.0,-35.0,-1,1.0,0.49780099999952654
970,2,0.8,1.0,-35.0,-1,1.0,0.7995010000004186
971,2,0.8,0.0625,-35.0,-1,1.0,0.5083009999998467
972,2,0.8,0.0,-35.0,-1,1.0,0.3436009999995804
973,2,0.8,0.125,35.0,-1,0.0,0.5192010000000664
974,2,0.8,0.0,-35.0,-1,1.0,0.33820100000048114
975,2,0.8,0.0625,35.0,1,1.0,2.1132010000001173
976,2,0.8,0.125,-35.0,-1,1.0,0.37200099999972736
977,2,0.2,0.25,35.0,-1,0.0,0.5468009999995047
978,2,0.2,1.0,35.0,1,1.0,8.079501000000164
979,2,0.2,0.125,-35.0,-1,1.0,0.6428010000008726
980,2,0.2,1.0,35.0,-1,0.0,44.238501000000724
981,2,0.2,0.0625,35.0,-1,0.0,15.04620100000011
982,2,0.2,0.25,-35.0,-1,1.0,0.4903009999998176
983,2,0.2,0.25,-35.0,-1,1.0,0.39560100000016973
984,2,0.2,0.125,-35.0,-1,1.0,0.5242010000001756
985,2,0.2,0.25,35.0,-1,0.0,1.7198010000001887
986,2,0.2,1.0,-35.0,-1,1.0,0.40840100000059465
987,2,0.2,0.0,35.0,-1,0.0,6.903301000000283
988,2,0.2,0.125,35.0,-1,0.0,0.5899010000002818
989,2,0.2,1.0,-35.0,-1,1.0,0.47160100000019156
990,2,0.2,0.25,35.0,-1,0.0,5.5370010000006005
991,2,0.2,0.25,35.0,0,0.0,60.037201000000096
992,2,0.2,0.125,35.0,-1,0.0,3.3038010000000213
993,2,0.2,0.125,35.0,1,1.0,0.49810100000013335
994,2,0.2,0.25,35.0,1,1.0,0.41760100000010425
995,2,0.2,1.0,35.0,1,1.0,0.5320010000004913
996,2,0.2,0.125,35.0,-1,0.0,0.1994009999998525
997,2,0.2,1.0,35.0,1,1.0,9.093100999999479
998,2,0.2,0.125,35.0,-1,0.0,5.433201000000736
999,2,0.2,0.0,35.0,-1,0.0,7.746101000000635
1000,2,0.2,0.0625,35.0,-1,0.0,3.335401000001184
1001,2,0.2,0.25,35.0,-1,0.0,10.746500999999625
1002,2,0.2,0.0625,-35.0,-1,1.0,14.411501000000499
1003,2,0.2,0.0,35.0,-1,0.0,13.069201000000248
1004,2,0.2,0.125,35.0,-1,0.0,7.250601000000643
1005,2,0.2,0.0625,35.0,-1,0.0,0.42490100000031816
1006,2,0.2,0.0,35.0,1,1.0,10.203400999999758
1007,2,0.2,0.0,-0.0,0,0.0,60.03190100000029
1008,2,0.2,1.0,35.0,1,1.0,1.8284010000006674
1,3,0.5,0.125,-35.0,-1,1.0,0.9895999999999998
2,3,0.5,1.0,-35.0,-1,1.0,0.18599999999999994
3,3,0.5,0.0,35.0,1,1.0,0.33750000000000213
4,3,0.5,0.25,35.0,1,1.0,0.7025999999999968
5,3,0.5,1.0,35.0,1,1.0,0.2350999999999992
6,3,0.5,0.125,35.0,1,1.0,0.6467999999999989
7,3,0.5,0.0,35.0,1,1.0,0.5121000000000002
8,3,0.5,0.0,35.0,1,1.0,0.3720999999999961
9,3,0.5,1.0,35.0,1,1.0,0.5366
10,3,0.5,0.25,35.0,1,1.0,0.47919999999999874
11,3,0.5,1.0,35.0,1,1.0,0.5721999999999952
12,3,0.5,0.125,35.0,-1,0.0,0.39749999999999375
13,3,0.5,0.0,35.0,-1,0.0,1.990399999999994
14,3,0.5,0.25,35.0,1,1.0,0.37760000000000105
15,3,0.5,1.0,-35.0,-1,1.0,0.32679999999999154
16,3,0.5,1.0,35.0,1,1.0,0.36369999999999436
17,3,0.5,0.0,35.0,1,1.0,2.852800000000002
18,3,0.5,0.0625,35.0,-1,0.0,0.6158989999999989
19,3,0.5,0.0625,35.0,1,1.0,0.6554000000000002
20,3,0.5,1.0,-35.0,-1,1.0,0.20829899999999668
21,3,0.5,0.125,35.0,-1,0.0,0.2752999999999872
22,3,0.5,0.125,-35.0,-1,1.0,0.278499999999994
23,3,0.5,0.25,35.0,1,1.0,0.441599999999994
24,3,0.5,0.25,-35.0,-1,1.0,0.20509900000000414
25,3,0.5,1.0,-35.0,-1,1.0,0.1945999999999799
26,3,0.5,0.0625,35.0,-1,0.0,0.2933000000000021
27,3,0.5,1.0,35.0,1,1.0,0.3632999999999953
28,3,0.5,0.0625,-35.0,-1,1.0,0.2282990000000069
29,3,0.5,1.0,-35.0,-1,1.0,0.19970000000003552
30,3,0.5,0.0,-35.0,-1,1.0,0.2412999999999954
31,3,0.5,0.0625,-35.0,-1,1.0,0.205600000000004
32,3,0.5,0.125,-35.0,-1,1.0,0.2407000000000039
33,3,0.5,1.0,35.0,-1,0.0,0.20240000000001146
34,3,0.5,1.0,35.0,1,1.0,0.30270000000001573
35,3,0.5,1.0,-35.0,-1,1.0,0.19060000000001764
36,3,0.5,0.125,-35.0,-1,1.0,0.2341000000000122
37,3,0.5,1.0,35.0,1,1.0,0.6790000000000305
38,3,0.5,0.0625,-35.0,-1,1.0,0.2575999999999965
39,3,0.5,0.0625,-35.0,1,0.0,1.0459000000000458
40,3,0.5,0.0,35.0,1,1.0,0.2768999999999835
41,3,0.5,0.125,-35.0,1,0.0,0.4796000000000049
42,3,0.5,0.0625,-35.0,-1,1.0,0.25780000000003156
43,3,0.5,0.0,35.0,-1,0.0,0.09809900000001903
44,3,0.5,0.0625,35.0,1,1.0,0.4661000000000115
45,3,0.5,0.25,-35.0,-1,1.0,0.22610000000003083
46,3,0.5,0.0625,35.0,-1,0.0,1.508400000000023
47,3,0.5,0.0625,35.0,1,1.0,0.5763000000000318
48,3,0.5,1.0,35.0,-1,0.0,0.2518000000000029
49,3,0.5,0.125,35.0,1,1.0,0.3241000000000156
50,3,0.5,0.25,-35.0,-1,1.0,0.22349999999997294
51,3,0.5,0.125,-35.0,-1,1.0,0.2144999999999868
52,3,0.5,0.0625,35.0,-1,0.0,0.26189999999999714
53,3,0.5,0.0,35.0,-1,0.0,0.2923990000000174
54,3,0.5,1.0,-35.0,-1,1.0,0.19310000000001537
55,3,0.5,0.0625,-35.0,-1,1.0,0.18880000000001473
56,3,0.5,0.125,-35.0,-1,1.0,0.2483000000000004
57,3,0.5,0.0625,-35.0,-1,1.0,0.29879999999999995
58,3,0.5,0.0,35.0,1,1.0,0.7306990000000155
59,3,0.5,0.125,35.0,1,1.0,1.6549999999999727
60,3,0.5,0.0,-35.0,1,0.0,0.3907989999999586
61,3,0.5,1.0,35.0,1,1.0,0.4220990000000029
62,3,0.5,0.125,35.0,1,1.0,0.42509999999998627
63,3,0.5,1.0,35.0,1,1.0,0.4194999999999709
64,3,0.5,0.25,35.0,1,1.0,0.4394010000000321
65,3,0.5,1.0,-35.0,-1,1.0,0.2004000000000019
66,3,0.5,0.25,-35.0,-1,1.0,0.22490099999998847
67,3,0.5,0.25,35.0,1,1.0,0.5867000000000644
68,3,0.5,0.25,-35.0,-1,1.0,0.20890100000002576
69,3,0.5,0.125,-35.0,-1,1.0,0.18369999999998754
70,3,0.5,1.0,-35.0,-1,1.0,0.11820100000005596
71,3,0.5,0.0,-35.0,-1,1.0,0.20320000000003802
72,3,0.5,0.0625,35.0,-1,0.0,0.18980099999998856
73,3,0.5,0.25,-35.0,-1,1.0,0.19470099999995227
74,3,0.5,0.25,-35.0,-1,1.0,0.22680100000002312
75,3,0.5,0.25,35.0,-1,0.0,0.23920100000003686
76,3,0.5,1.0,35.0,-1,0.0,0.24610100000006696
77,3,0.5,0.0625,35.0,1,1.0,1.3003009999999904
78,3,0.5,0.125,35.0,-1,0.0,0.42480100000005905
79,3,0.5,0.0,35.0,-1,0.0,0.4895010000000184
80,3,0.5,0.0625,-35.0,-1,1.0,0.26090099999998984
81,3,0.5,0.25,-35.0,-1,1.0,0.2279999999999518
82,3,0.5,1.0,35.0,-1,0.0,1.028801000000044
