trial_num,session_num,stim_probability_left,contrast,position,response_choice,trial_correct,reaction_time
1,15,0.5,0.25,35.0,1,1.0,0.2701
2,15,0.5,0.0,-35.0,1,0.0,0.2801999999999998
3,15,0.5,0.25,35.0,1,1.0,0.2408000000000019
4,15,0.5,0.125,35.0,1,1.0,0.15660000000000096
5,15,0.5,0.0625,35.0,1,1.0,0.18879999999999697
6,15,0.5,0.125,-35.0,1,0.0,0.06749999999999545
7,15,0.5,0.0625,-35.0,1,0.0,0.20929999999999893
8,15,0.5,0.0625,-35.0,1,0.0,0.15399999999999636
9,15,0.5,0.0625,35.0,1,1.0,0.20060000000000144
10,15,0.5,0.25,-35.0,1,0.0,0.08220000000000027
11,15,0.5,0.125,-35.0,1,0.0,0.1927000000000021
12,15,1.0,0.125,-35.0,1,0.0,0.2886999999999986
13,15,0.5,1.0,-35.0,-1,1.0,0.34380000000000166
14,15,0.5,1.0,35.0,1,1.0,0.21039999999999992
15,15,0.5,0.125,35.0,1,1.0,0.19650000000000034
16,15,0.5,0.25,-35.0,1,0.0,1.3911990000000074
17,15,0.5,0.125,35.0,1,1.0,0.21749999999998693
18,15,0.5,1.0,-35.0,-1,1.0,0.3982999999999919
19,15,0.5,0.0625,-35.0,1,0.0,0.1599999999999966
20,15,0.8,0.0625,-35.0,1,0.0,7.357899999999987
21,15,0.5,1.0,-35.0,-1,1.0,0.1944999999999908
22,15,0.5,0.125,-35.0,1,0.0,1.0783999999999878
23,15,0.5,0.0,-35.0,1,0.0,0.23550000000000182
24,15,0.5,0.25,-35.0,-1,1.0,0.2395000000000067
25,15,0.5,0.125,-35.0,1,0.0,0.1746999999999872
26,15,0.5,0.25,35.0,1,1.0,0.27069999999999084
27,15,0.5,1.0,35.0,1,1.0,0.19880000000000564
28,15,0.5,0.0625,-35.0,1,0.0,0.16909999999998604
29,15,0.5,0.125,35.0,1,1.0,0.0619999999999834
30,15,0.5,0.125,35.0,1,1.0,0.3225999999999942
31,15,0.5,0.125,-35.0,1,0.0,0.05189999999998918
32,15,0.5,0.0625,-35.0,1,0.0,0.25310000000001764
33,15,0.5,0.0,-35.0,1,0.0,3.488200000000006
34,15,0.9,0.0,-35.0,1,0.0,0.16279999999997585
35,15,0.5,1.0,-35.0,1,0.0,0.1636999999999773
36,15,1.0,1.0,-35.0,-1,1.0,0.23169999999998936
37,15,0.5,1.0,-35.0,-1,1.0,0.20289999999997121
38,15,0.5,0.0625,35.0,1,1.0,0.24809999999999377
39,15,0.5,0.0625,-35.0,1,0.0,0.0952000000000055
40,15,0.5,0.125,35.0,1,1.0,0.294399999999996
41,15,0.5,0.125,-35.0,-1,1.0,0.24549999999999272
42,15,0.5,1.0,-35.0,-1,1.0,0.24510000000000787
43,15,0.5,1.0,35.0,1,1.0,0.22519999999997253
44,15,0.5,0.25,-35.0,1,0.0,0.6809999999999832
45,15,0.5,0.0625,-35.0,1,0.0,0.4164000000000101
46,15,0.5,0.0,35.0,1,1.0,0.311300000000017
47,15,0.5,0.0,-35.0,1,0.0,0.2383000000000095
48,15,0.5,0.125,35.0,1,1.0,0.23499999999998522
49,15,0.5,0.125,-35.0,-1,1.0,0.3696999999999946
50,15,0.5,0.0625,35.0,1,1.0,0.3439000000000192
51,15,0.5,0.0625,-35.0,-1,1.0,0.8574999999999875
52,15,0.5,0.0625,35.0,1,1.0,0.1647000000000105
53,15,0.5,0.125,35.0,1,1.0,0.342599000000007
54,15,0.5,0.25,35.0,1,1.0,0.17189999999999372
55,15,0.5,0.25,35.0,1,1.0,0.1839999999999975
56,15,0.5,0.125,35.0,1,1.0,0.06629899999998656
57,15,0.5,1.0,35.0,1,1.0,0.12420000000000186
58,15,0.5,0.0625,-35.0,1,0.0,0.32329999999998904
59,15,0.5,0.25,35.0,1,1.0,0.2154999999999916
60,15,0.5,0.25,-35.0,-1,1.0,0.38800000000003365
61,15,0.5,0.25,-35.0,-1,1.0,0.3801000000000272
62,15,0.5,0.125,35.0,1,1.0,0.4999000000000251
63,15,0.5,0.125,-35.0,1,0.0,0.07790000000005648
64,15,0.5,0.0625,35.0,1,1.0,0.2747999999999706
65,15,0.5,0.0625,35.0,1,1.0,0.26650000000000773
66,15,0.5,0.125,-35.0,-1,1.0,0.25169999999997117
67,15,0.5,0.0,35.0,1,1.0,0.09420000000000073
68,15,0.5,0.0,-35.0,1,0.0,0.3346000000000231
69,15,0.7,0.0,-35.0,1,0.0,0.182200000000023
70,15,0.5,1.0,-35.0,-1,1.0,0.20539999999999736
71,15,0.5,0.0625,-35.0,1,0.0,3.512200000000064
72,15,0.5,0.25,35.0,1,1.0,0.4064989999999966
73,15,0.5,0.0625,-35.0,-1,1.0,0.2881999999999607
74,15,0.5,0.125,35.0,1,1.0,0.24450000000001637
75,15,0.5,0.0625,-35.0,1,0.0,0.0856000000000563
76,15,0.5,0.125,35.0,1,1.0,0.13650000000006912
77,15,0.5,0.0,35.0,1,1.0,0.28640000000001464
78,15,0.5,0.25,-35.0,1,0.0,0.18430000000000746
79,15,0.5,0.125,35.0,1,1.0,0.2504000000000133
80,15,0.5,1.0,-35.0,-1,1.0,0.2337999999999738
81,15,0.5,0.125,35.0,1,1.0,0.5119000000000256
82,15,0.5,0.0,35.0,1,1.0,0.11800000000005184
83,15,0.5,0.125,35.0,1,1.0,0.1097000000000321
84,15,0.5,1.0,35.0,1,1.0,0.21700000000004138
85,15,0.5,0.125,35.0,1,1.0,0.15899999999999181
86,15,0.5,0.0625,35.0,1,1.0,0.12560000000001992
87,15,0.5,0.0625,-35.0,-1,1.0,0.639500000000055
88,15,0.5,0.25,-35.0,-1,1.0,0.27800000000007685
89,15,0.5,0.125,35.0,1,1.0,0.25729999999998654
90,15,0.5,0.25,-35.0,1,0.0,0.14680000000004156
91,15,0.5,0.25,-35.0,-1,1.0,0.21059999999999945
92,15,0.5,0.25,35.0,1,1.0,0.14720000000005484
93,15,0.5,0.0625,35.0,1,1.0,0.30930000000000746
94,15,0.5,0.25,-35.0,1,0.0,0.07550000000003365
95,15,0.7,0.25,-35.0,-1,1.0,0.26409900000004427
96,15,0.5,1.0,-35.0,-1,1.0,0.12110000000001264
97,15,0.5,0.0,-35.0,1,0.0,0.6724000000000387
98,15,0.5,0.125,35.0,1,1.0,0.433900000000051
99,15,0.5,0.0625,35.0,1,1.0,0.4075000000000273
100,15,0.5,0.0625,-35.0,1,0.0,0.3686999999999898
101,15,0.5,0.125,-35.0,-1,1.0,0.20630000000005566
102,15,0.5,0.0,35.0,1,1.0,2.6199000000000296
103,15,0.5,0.25,35.0,1,1.0,0.25300000000004275
104,15,0.5,1.0,35.0,1,1.0,0.2509000000000583
105,15,0.5,0.125,35.0,1,1.0,0.5076999999999998
106,15,0.5,0.25,35.0,1,1.0,0.26900000000000546
107,15,0.5,0.125,35.0,1,1.0,0.20290000000005648
108,15,0.5,0.125,-35.0,-1,1.0,0.36259999999998627
109,15,0.5,0.0,-35.0,1,0.0,0.16700000000003
110,15,0.5,0.25,35.0,1,1.0,0.24260000000003856
111,15,0.5,0.125,35.0,1,1.0,0.252900000000011
112,15,0.5,0.0625,-35.0,1,0.0,0.09239999999999782
113,15,0.5,0.125,35.0,1,1.0,0.12990000000002055
114,15,0.5,0.25,-35.0,-1,1.0,0.22930000000002337
115,15,0.5,1.0,-35.0,-1,1.0,0.2370999999999981
116,15,0.5,0.125,35.0,1,1.0,0.2986999999999398
117,15,0.5,0.25,-35.0,-1,1.0,0.4497999999998683
118,15,0.5,0.25,35.0,1,1.0,0.3305000000000291
119,15,0.5,1.0,-35.0,-1,1.0,0.22620000000006257
120,15,0.5,1.0,-35.0,-1,1.0,0.20799999999997
121,15,0.5,0.25,-35.0,-1,1.0,0.21410000000003038
122,15,0.5,0.25,-35.0,-1,1.0,0.5018000000000029
123,15,0.5,0.0,-35.0,1,0.0,0.12189999999998236
124,15,0.3,0.0,-35.0,1,0.0,0.2817000000000007
125,15,0.5,1.0,35.0,1,1.0,0.3029999999998836
126,15,0.5,1.0,35.0,1,1.0,0.34350000000006276
127,15,0.5,0.0,-35.0,1,0.0,0.3229999999998654
128,15,0.6,0.0,35.0,1,1.0,0.334699999999998
129,15,0.5,1.0,-35.0,1,0.0,0.07240000000001601
130,15,0.5,0.25,-35.0,1,0.0,0.106899999999996
131,15,0.5,0.0,35.0,1,1.0,0.24189999999987322
132,15,0.5,0.0,-35.0,1,0.0,0.28509999999994307
133,15,0.5,0.0625,35.0,1,1.0,0.9906999999999471
134,15,0.5,0.25,-35.0,1,0.0,0.33550000000002456
135,15,1.0,0.25,-35.0,-1,1.0,0.30330000000003565
136,15,0.5,1.0,-35.0,-1,1.0,0.1852000000000089
137,15,0.5,1.0,35.0,1,1.0,0.08869999999990341
138,15,0.5,0.0,35.0,1,1.0,0.21829999999988559
139,15,0.5,0.25,-35.0,1,0.0,0.3854000000000042
140,15,0.5,0.125,-35.0,1,0.0,0.31740000000002055
141,15,0.5,0.125,-35.0,-1,1.0,0.18489999999997053
142,15,0.5,1.0,35.0,1,1.0,0.24899999999990996
143,15,0.5,1.0,35.0,1,1.0,0.27689999999995507
144,15,0.5,0.0,-35.0,1,0.0,0.3748999999999114
145,15,0.5,0.0625,-35.0,1,0.0,0.4229000000000269
146,15,0.5,0.0625,-35.0,1,0.0,0.4116999999999962
147,15,0.5,0.0625,-35.0,-1,1.0,2.1509999999999536
148,15,0.5,0.125,35.0,-1,0.0,0.09379999999998745
149,15,0.5,0.125,-35.0,-1,1.0,0.3371999999999389
150,15,0.5,0.125,-35.0,-1,1.0,0.2504999999998745
151,15,0.5,0.125,35.0,-1,0.0,0.08100000000001728
152,15,0.5,0.25,35.0,1,1.0,0.33299999999997
153,15,0.5,0.0625,-35.0,-1,1.0,0.30369999999993524
154,15,0.5,0.0,-35.0,-1,1.0,0.209699999999998
155,15,0.5,0.25,-35.0,-1,1.0,0.20039999999994507
156,15,0.5,1.0,35.0,-1,0.0,0.12429999999994834
157,15,0.5,0.0625,35.0,1,1.0,0.33359999999993306
158,15,0.5,0.125,35.0,1,1.0,0.3935000000000173
159,15,0.5,1.0,-35.0,-1,1.0,0.25889999999992597
160,15,0.5,0.0625,35.0,1,1.0,0.3654989999999998
161,15,0.5,1.0,-35.0,-1,1.0,0.26939999999990505
162,15,0.5,1.0,35.0,-1,0.0,0.24739999999997053
163,15,0.5,0.0625,35.0,1,1.0,0.24850000000003547
164,15,0.5,0.0,-35.0,1,0.0,0.2961999999999989
165,15,0.5,0.125,35.0,1,1.0,0.2700999999999567
166,15,0.5,1.0,-35.0,-1,1.0,0.19709999999997763
167,15,0.5,0.25,35.0,1,1.0,0.18479999999999563
168,15,0.5,0.25,-35.0,1,0.0,0.15850000000000364
169,15,0.5,0.0625,35.0,1,1.0,0.12319999999999709
170,15,0.5,1.0,35.0,1,1.0,0.22320000000001983
171,15,0.5,0.25,-35.0,-1,1.0,0.23859999999990578
172,15,0.5,0.25,35.0,1,1.0,0.24659999999994398
173,15,0.5,1.0,35.0,-1,0.0,0.06479999999999109
174,15,0.5,0.125,-35.0,1,0.0,1.4552999999999656
175,15,0.5,0.0625,35.0,1,1.0,0.2477999999999838
176,15,0.5,1.0,35.0,1,1.0,0.2703000000000202
177,15,0.5,0.0625,-35.0,1,0.0,1.420500000000061
178,15,0.5,0.125,35.0,1,1.0,0.21050000000002456
179,15,0.5,0.25,-35.0,-1,1.0,0.48479999999995016
180,15,0.5,0.25,-35.0,-1,1.0,0.5274999999999181
181,15,0.5,0.0625,35.0,1,1.0,0.38039999999989504
182,15,0.5,0.0,35.0,1,1.0,1.272899999999936
183,15,0.5,0.0625,-35.0,1,0.0,2.883999999999901
184,15,0.5,0.25,35.0,1,1.0,0.3290000000000646
185,15,0.5,1.0,35.0,1,1.0,0.2423999999998614
186,15,0.5,0.0625,35.0,1,1.0,0.5599999999999454
187,15,0.5,1.0,35.0,1,1.0,0.0888999999999669
188,15,0.5,0.0625,35.0,1,1.0,0.5229999999999109
189,15,0.5,1.0,-35.0,-1,1.0,0.205600000000004
190,15,0.5,0.0,-35.0,1,0.0,1.1276000000000295
191,15,0.5,0.0625,35.0,1,1.0,0.6666999999999916
192,15,0.5,0.125,35.0,1,1.0,0.3064999999999145
193,15,0.5,0.0,35.0,1,1.0,0.2583999999999378
194,15,0.5,0.125,35.0,1,1.0,0.2438999999999396
195,15,0.5,1.0,-35.0,-1,1.0,0.2156999999999698
196,15,0.5,1.0,-35.0,-1,1.0,0.241800000000012
197,15,0.5,0.0,-35.0,1,0.0,0.14209999999991396
198,15,0.5,0.25,35.0,1,1.0,0.07910000000003947
199,15,0.5,0.25,35.0,1,1.0,0.3227999999999156
200,15,0.5,0.25,35.0,1,1.0,0.07380000000000564
201,15,0.5,1.0,35.0,1,1.0,0.20510000000001583
202,15,0.5,1.0,35.0,1,1.0,0.2703000000000202
203,15,0.5,0.125,-35.0,1,0.0,0.1693000000000211
204,15,0.5,0.125,35.0,1,1.0,0.2360999999999649
205,15,0.5,0.25,35.0,1,1.0,0.4854000000000269
206,15,0.5,0.0,-35.0,1,0.0,0.12609999999995125
207,15,0.5,0.0,-35.0,1,0.0,0.23860000000001946
208,15,0.5,0.25,-35.0,-1,1.0,0.24509999999986576
209,15,0.5,0.125,35.0,1,1.0,0.3102999999998701
210,15,0.5,0.25,35.0,1,1.0,0.2579999999999245
211,15,0.5,1.0,35.0,1,1.0,0.19829999999990378
212,15,0.5,0.125,-35.0,-1,1.0,0.8652000000000726
213,15,0.5,0.0625,35.0,1,1.0,0.2625999999999067
214,15,0.5,1.0,-35.0,-1,1.0,0.2845999999998412
215,15,0.5,0.125,-35.0,-1,1.0,0.25869999999997617
216,15,0.5,0.25,35.0,1,1.0,0.0727999999999156
217,15,0.5,0.125,35.0,1,1.0,0.4400999999999158
218,15,0.5,0.25,35.0,1,1.0,0.2643999999999096
219,15,0.5,0.125,35.0,1,1.0,0.07939999999996417
220,15,0.5,0.25,35.0,1,1.0,0.27899999999999636
221,15,0.5,0.0,-35.0,1,0.0,0.2340000000000373
222,15,0.5,0.0625,-35.0,1,0.0,0.7270999999999503
223,15,0.5,0.125,35.0,1,1.0,0.3485999999999194
224,15,0.5,0.25,35.0,1,1.0,0.21700000000009823
225,15,0.5,1.0,35.0,1,1.0,0.1530999999999949
226,15,0.5,0.25,-35.0,-1,1.0,0.24139999999999873
227,15,0.5,0.25,35.0,1,1.0,0.24249999999994998
228,15,0.5,0.0625,-35.0,-1,1.0,0.2115000000000009
229,15,0.5,0.125,35.0,1,1.0,0.2139999999998281
230,15,0.5,0.0,35.0,1,1.0,0.1790000000000873
231,15,0.5,0.0625,35.0,1,1.0,0.22800000000006548
232,15,0.5,0.0625,35.0,1,1.0,0.22630000000003747
233,15,0.5,0.0,35.0,1,1.0,0.06280000000015207
234,15,0.5,0.25,35.0,1,1.0,0.41380000000003747
235,15,0.5,0.0,35.0,1,1.0,0.08980000000019572
236,15,0.5,0.125,35.0,1,1.0,0.1849000000001979
237,15,0.5,0.0,-35.0,1,0.0,0.13450000000011642
238,15,0.5,0.125,-35.0,1,0.0,0.22210000000018226
239,15,0.5,0.25,35.0,1,1.0,0.3105000000000473
240,15,0.5,0.125,-35.0,1,0.0,0.1126000000001568
241,15,1.0,0.125,-35.0,-1,1.0,0.10209900000018024
242,15,0.5,1.0,-35.0,-1,1.0,0.2136000000000422
243,15,0.5,0.0625,-35.0,-1,1.0,0.29349999999999454
244,15,0.5,0.0625,-35.0,1,0.0,0.3688000000001921
245,15,0.5,0.0625,-35.0,1,0.0,0.11360000000013315
246,15,0.5,0.125,-35.0,-1,1.0,0.23590000000012878
247,15,0.5,0.0,35.0,1,1.0,0.15130000000021937
248,15,0.5,0.25,-35.0,-1,1.0,0.2373000000002321
249,15,0.5,0.0625,35.0,-1,0.0,0.23610000000007858
250,15,0.5,0.25,-35.0,-1,1.0,0.22869999999988977
251,15,0.5,0.25,35.0,1,1.0,0.25709999999980937
252,15,0.5,1.0,-35.0,-1,1.0,0.1289000000001579
253,15,0.5,0.25,-35.0,-1,1.0,0.21739999999999782
254,15,0.5,1.0,-35.0,-1,1.0,0.21590000000014697
255,15,0.5,0.0625,-35.0,-1,1.0,0.2744999999999891
256,15,0.5,0.125,-35.0,1,0.0,0.26269999999999527
257,15,0.5,0.0625,-35.0,1,0.0,0.4048000000000229
258,15,0.5,0.0625,35.0,1,1.0,2.536600000000135
259,15,0.5,0.25,35.0,1,1.0,0.3444000000001779
260,15,0.5,0.0,-35.0,-1,1.0,0.21010000000001128
261,15,0.5,1.0,35.0,1,1.0,0.268100000000004
262,15,0.5,0.25,-35.0,-1,1.0,0.18990000000007967
263,15,0.5,0.25,-35.0,-1,1.0,0.1880999999998494
264,15,0.5,0.25,-35.0,-1,1.0,0.20700000000010732
265,15,0.5,0.0625,35.0,-1,0.0,0.18280000000004293
266,15,0.5,0.0625,35.0,1,1.0,0.8680000000001655
267,15,0.5,1.0,35.0,1,1.0,0.21220000000016626
268,15,0.5,0.125,35.0,1,1.0,0.31090000000017426
269,15,0.5,1.0,-35.0,1,0.0,0.0826999999999316
270,15,0.5,0.0625,-35.0,1,0.0,0.3510000000001128
271,15,0.5,0.25,-35.0,-1,1.0,0.23949999999990723
272,15,0.5,1.0,-35.0,-1,1.0,0.16840000000024702
273,15,0.5,0.0625,-35.0,1,0.0,0.14610000000016043
274,15,0.5,0.0625,-35.0,-1,1.0,0.35920000000010077
275,15,0.5,0.125,35.0,1,1.0,0.25710000000003674
276,15,0.5,0.0625,-35.0,-1,1.0,0.25290000000018154
277,15,0.5,0.0625,-35.0,1,0.0,0.1751000000001568
278,15,0.5,0.0625,35.0,1,1.0,0.4338000000000193
279,15,0.5,1.0,35.0,1,1.0,0.3387000000000171
280,15,0.5,0.25,-35.0,1,0.0,0.06009999999992033
281,15,0.5,0.0625,35.0,1,1.0,0.2657000000001517
282,15,0.5,0.25,35.0,1,1.0,0.16509999999993852
283,15,0.5,0.125,35.0,1,1.0,0.32350000000019463
284,15,0.5,0.25,35.0,1,1.0,0.19240000000013424
285,15,0.5,0.0,35.0,1,1.0,0.09769900000014786
286,15,0.5,0.25,-35.0,1,0.0,0.10599999999999454
287,15,0.5,0.125,35.0,1,1.0,0.2278000000001157
288,15,0.5,0.125,-35.0,1,0.0,0.16370000000028995
289,15,0.5,0.0625,-35.0,1,0.0,0.2722000000001117
290,15,0.5,0.0625,35.0,1,1.0,0.2574000000001888
291,15,0.5,0.0625,-35.0,-1,1.0,0.21280000000001564
292,15,0.5,0.25,35.0,1,1.0,0.2155999999999949
293,15,0.5,0.25,-35.0,-1,1.0,0.2637999999999465
294,15,0.5,0.0625,-35.0,1,0.0,0.36570000000006075
295,15,0.5,0.0,35.0,1,1.0,0.16460000000006403
296,15,0.5,0.0625,35.0,1,1.0,0.05700000000001637
297,15,0.5,0.25,-35.0,-1,1.0,0.23890000000005784
298,15,0.5,1.0,-35.0,-1,1.0,0.23290000000019973
299,15,0.5,0.125,-35.0,1,0.0,0.08179900000004636
300,15,0.6,0.125,-35.0,-1,1.0,0.2439999999999145
301,15,0.5,1.0,35.0,1,1.0,0.12630000000012842
302,15,0.5,0.25,-35.0,1,0.0,0.06160000000022592
303,15,0.5,0.125,35.0,1,1.0,0.2635999999999967
304,15,0.5,1.0,35.0,-1,0.0,1.0053000000002612
305,15,0.5,0.0625,-35.0,1,0.0,0.575800000000072
306,15,0.5,0.125,35.0,1,1.0,0.3569999999999709
307,15,0.5,0.0625,-35.0,-1,1.0,0.27309999999988577
308,15,0.5,1.0,-35.0,-1,1.0,0.20800000000008367
309,15,0.5,0.125,35.0,1,1.0,0.4360999999998967
310,15,0.5,0.25,-35.0,1,0.0,0.43100000000004
311,15,0.5,0.0625,35.0,1,1.0,0.30939999999986867
312,15,0.5,0.25,35.0,1,1.0,0.2874000000001615
313,15,0.5,0.0625,-35.0,-1,1.0,0.565900000000056
314,15,0.5,0.0,35.0,1,1.0,0.10090000000013788
315,15,0.5,0.125,-35.0,1,0.0,0.18630000000007385
316,15,0.7,0.125,-35.0,-1,1.0,0.2945999999999458
317,15,0.5,1.0,35.0,1,1.0,0.15300000000002
318,15,0.5,0.0625,35.0,1,1.0,0.2851000000002841
319,15,0.5,1.0,-35.0,1,0.0,0.16040000000020882
320,15,0.5,0.25,35.0,1,1.0,0.2656000000001768
321,15,0.5,1.0,-35.0,1,0.0,0.1412000000000262
322,15,0.5,0.125,-35.0,-1,1.0,0.32979999999997744
323,15,0.5,0.125,-35.0,-1,1.0,0.24430000000006658
324,15,0.5,0.0625,-35.0,1,0.0,0.09000000000014552
325,15,0.5,0.125,-35.0,-1,1.0,0.2585999999998876
326,15,0.5,0.25,35.0,1,1.0,0.24350000000004002
327,15,0.5,0.0625,-35.0,1,0.0,0.21490000000017062
328,15,0.5,0.0625,-35.0,1,0.0,0.3003000000001066
329,15,0.5,0.0625,-35.0,1,0.0,0.43820000000005166
330,15,0.5,0.0625,35.0,1,1.0,1.2796000000000731
331,15,0.5,0.0,-35.0,1,0.0,0.29130000000009204
332,15,0.5,0.0625,35.0,1,1.0,0.10320000000001528
333,15,0.5,0.25,-35.0,1,0.0,0.11210000000005493
334,15,0.9,0.25,-35.0,-1,1.0,0.20699999999987995
335,15,0.5,1.0,-35.0,-1,1.0,0.21900000000005093
336,15,0.5,0.25,35.0,1,1.0,0.2944999999999709
337,15,0.5,0.25,-35.0,-1,1.0,0.21410000000014406
338,15,0.5,0.0625,35.0,1,1.0,0.1587000000001808
339,15,0.5,0.25,-35.0,1,0.0,0.10060000000021319
340,15,0.5,0.0625,-35.0,1,0.0,0.3722000000002481
341,15,0.5,0.125,-35.0,-1,1.0,1.1442000000001826
342,15,0.5,0.25,35.0,1,1.0,0.2763999999999669
343,15,0.5,1.0,35.0,1,1.0,0.16120000000023538
344,15,0.5,1.0,-35.0,-1,1.0,0.23670000000015534
345,15,0.5,0.0625,35.0,1,1.0,0.25500000000010914
346,15,0.5,0.0625,-35.0,1,0.0,7.39650000000006
347,15,0.7,0.0625,35.0,1,1.0,0.3004000000000815
348,15,0.5,1.0,-35.0,1,0.0,0.12879999999995562
349,15,0.5,0.25,35.0,1,1.0,0.2777000000000953
350,15,0.5,0.125,35.0,1,1.0,0.21580000000017208
351,15,0.5,0.25,35.0,1,1.0,0.16529999999988831
352,15,0.5,0.125,35.0,1,1.0,0.13279999999986103
353,15,0.5,0.0625,-35.0,1,0.0,0.17519999999990432
354,15,0.5,0.0625,-35.0,-1,1.0,0.6940000000001874
355,15,0.5,0.25,35.0,1,1.0,0.45370000000025357
356,15,0.5,0.125,35.0,1,1.0,0.09510000000000218
357,15,0.5,0.0625,-35.0,1,0.0,0.5903000000002976
358,15,0.5,0.125,-35.0,1,0.0,0.4956999999999425
359,15,0.5,0.125,-35.0,-1,1.0,0.567600000000084
360,15,0.5,0.0625,35.0,1,1.0,0.32950000000005275
361,15,0.5,0.25,35.0,1,1.0,0.33090000000015607
362,15,0.5,0.0625,35.0,1,1.0,0.24320000000011532
363,15,0.5,1.0,-35.0,-1,1.0,0.1693000000000211
364,15,0.5,1.0,-35.0,-1,1.0,0.23690000000010514
365,15,0.5,0.125,-35.0,-1,1.0,0.21260000000006585
366,15,0.5,0.0625,35.0,1,1.0,0.2983000000001539
367,15,0.5,1.0,35.0,1,1.0,0.2874000000001615
368,15,0.5,0.25,35.0,1,1.0,0.5225000000000364
369,15,0.5,1.0,35.0,1,1.0,0.281800000000203
370,15,0.5,0.125,-35.0,1,0.0,0.19050000000015643
371,15,0.7,0.125,-35.0,-1,1.0,0.2299000000000433
372,15,0.5,1.0,35.0,1,1.0,0.3342000000002372
373,15,0.5,0.125,35.0,1,1.0,0.09269999999992251
374,15,0.5,1.0,-35.0,-1,1.0,0.16830000000004475
375,15,0.5,1.0,-35.0,-1,1.0,0.20109999999999673
376,15,0.5,1.0,35.0,1,1.0,0.29910000000018044
377,15,0.5,0.25,35.0,1,1.0,0.16830000000004475
378,15,0.5,0.0,35.0,1,1.0,0.3670000000001892
379,15,0.5,1.0,-35.0,-1,1.0,0.29910000000018044
380,15,0.5,0.0,-35.0,1,0.0,0.2114000000001397
381,15,0.5,0.0,-35.0,1,0.0,0.5433000000002721
382,15,0.7,0.0,-35.0,1,0.0,0.355199999999968
383,15,0.5,1.0,35.0,1,1.0,0.3041000000000622
384,15,0.5,0.25,-35.0,-1,1.0,0.19600000000014006
385,15,0.5,0.125,-35.0,1,0.0,0.08339900000009948
386,15,0.5,0.0,35.0,-1,0.0,0.20890000000008513
387,15,0.5,0.0625,-35.0,1,0.0,0.34349999999994907
388,15,0.5,0.125,-35.0,-1,1.0,0.2320999999999458
389,15,0.5,0.0,35.0,1,1.0,0.21080000000006294
390,15,0.5,0.125,-35.0,1,0.0,0.11630000000013752
391,15,0.5,0.125,35.0,1,1.0,0.21450000000004366
392,15,0.5,0.0625,-35.0,1,0.0,0.36379999999985557
393,15,0.7,0.0625,-35.0,1,0.0,0.32900000000017826
394,15,0.5,1.0,-35.0,-1,1.0,0.2942000000000462
395,15,0.5,0.25,35.0,1,1.0,0.1595990000000711
396,15,0.5,1.0,35.0,1,1.0,0.3889000000001488
397,15,0.5,0.0625,-35.0,1,0.0,0.12810000000013133
398,15,0.8,0.0625,35.0,1,1.0,0.23290000000019973
399,15,0.5,1.0,35.0,1,1.0,0.3618000000003576
400,15,0.5,1.0,35.0,1,1.0,0.15750000000002728
401,15,0.5,0.0,-35.0,1,0.0,0.17590000000018335
402,15,0.5,0.0,35.0,1,1.0,0.5980999999999312
403,15,0.5,0.0625,-35.0,1,0.0,0.07320000000004256
404,15,0.5,0.0,35.0,1,1.0,0.24890000000004875
405,15,0.5,0.0625,-35.0,1,0.0,0.40370000000007167
406,15,0.5,0.0,-35.0,1,0.0,0.44529999999986103
407,15,0.5,0.125,35.0,1,1.0,0.3867999999999938
408,15,0.5,0.125,-35.0,1,0.0,0.2726999999999862
409,15,1.0,0.125,-35.0,1,0.0,0.6325000000001637
410,15,0.5,1.0,-35.0,-1,1.0,0.23000000000024556
411,15,0.5,0.0,-35.0,1,0.0,0.34550000000012915
412,15,0.5,0.0,-35.0,1,0.0,0.3307000000002063
413,15,0.9,0.0,-35.0,1,0.0,0.2033000000001266
414,15,0.5,1.0,-35.0,-1,1.0,0.553899999999885
415,15,0.5,1.0,35.0,1,1.0,0.3693000000000666
416,15,0.5,0.25,35.0,1,1.0,0.2518000000000029
417,15,0.5,0.25,35.0,1,1.0,0.770200000000159
418,15,0.5,0.0,35.0,1,1.0,0.3449000000000524
419,15,0.5,1.0,35.0,1,1.0,0.5274000000001706
420,15,0.5,0.25,-35.0,-1,1.0,0.26280000000019754
421,15,0.5,1.0,35.0,1,1.0,0.18450000000007094
422,15,0.5,0.125,-35.0,-1,1.0,0.30999999999994543
423,15,0.5,1.0,35.0,1,1.0,0.39229999999997744
424,15,0.5,0.0625,-35.0,-1,1.0,0.257200000000239
425,15,0.5,1.0,35.0,1,1.0,0.26280000000019754
426,15,0.5,0.0625,35.0,-1,0.0,0.08179999999993015
427,15,0.6,0.0625,-35.0,-1,1.0,0.2742000000000644
428,15,0.5,1.0,35.0,1,1.0,0.33189999999990505
429,15,0.5,0.0,35.0,1,1.0,0.25050000000010186
430,15,0.5,0.0,-35.0,1,0.0,0.08940000000006876
431,15,0.5,0.125,-35.0,-1,1.0,0.24200000000018917
432,15,0.5,0.25,-35.0,-1,1.0,0.703899999999976
433,15,0.5,0.0625,35.0,1,1.0,0.21290000000021791
434,15,0.5,0.0625,35.0,1,1.0,0.21090000000003783
435,15,0.5,1.0,-35.0,-1,1.0,0.2241989999999987
436,15,0.5,0.25,-35.0,-1,1.0,0.3246999999998934
437,15,0.5,0.125,-35.0,-1,1.0,0.3533999999999651
438,15,0.5,0.0625,-35.0,1,0.0,0.4819999999999709
439,15,0.5,0.0625,35.0,1,1.0,0.3465000000001055
440,15,0.5,1.0,-35.0,-1,1.0,0.23510000000010223
441,15,0.5,0.125,35.0,1,1.0,0.3003999999998541
442,15,0.5,1.0,-35.0,-1,1.0,0.2459999999998672
443,15,0.5,0.125,35.0,1,1.0,0.235700000000179
444,15,0.5,0.0,-35.0,1,0.0,0.2774000000001706
445,15,0.5,0.25,-35.0,-1,1.0,0.28900000000021464
446,15,0.5,0.0625,35.0,1,1.0,0.33159999999998035
447,15,0.5,1.0,35.0,1,1.0,0.324100000000044
448,15,0.5,0.125,-35.0,-1,1.0,0.8194000000003143
449,15,0.5,0.125,35.0,1,1.0,0.28160000000002583
450,15,0.5,0.0625,35.0,1,1.0,0.2771000000002459
451,15,0.5,1.0,35.0,1,1.0,0.2863999999999578
452,15,0.5,0.25,-35.0,-1,1.0,0.22070000000007894
453,15,0.5,0.25,35.0,1,1.0,0.2194000000001779
454,15,0.5,1.0,35.0,1,1.0,0.3182000000001608
455,15,0.5,0.25,-35.0,-1,1.0,0.23910000000000764
456,15,0.5,1.0,-35.0,-1,1.0,0.24719999999979336
457,15,0.5,1.0,-35.0,-1,1.0,0.23559999999952197
458,15,0.5,0.25,-35.0,-1,1.0,0.24129999999968277
459,15,0.5,0.125,35.0,1,1.0,0.25709999999980937
460,15,0.5,0.0625,35.0,1,1.0,0.3055999999996857
461,15,0.5,0.25,35.0,1,1.0,0.35099999999965803
462,15,0.5,0.125,-35.0,-1,1.0,0.8333999999995285
463,15,0.5,0.25,35.0,0,0.0,59.99839999999995
464,15,0.5,0.25,-35.0,0,0.0,60.00520000000006
465,15,0.5,1.0,35.0,0,0.0,60.0019999999995
466,15,0.5,0.125,35.0,0,0.0,59.99879999999985
467,15,0.5,0.25,35.0,0,0.0,59.998999999999796
468,15,0.5,0.125,35.0,0,0.0,60.00590000000011
469,15,0.9,0.125,-35.0,0,0.0,59.99609999999984
470,15,0.5,1.0,-35.0,0,0.0,59.99969999999985
471,15,0.5,0.0,-0.0,0,0.0,60.003200000000106
472,15,0.5,0.0,-0.0,0,0.0,60.003299999999854
473,15,1.0,0.0,-0.0,0,0.0,60.0002999999997
474,15,0.5,1.0,-35.0,0,0.0,60.000400000000354
475,15,0.5,0.25,-35.0,0,0.0,59.99719999999979
476,15,0.5,0.25,35.0,0,0.0,60.00410000000011
477,15,0.5,0.0625,-35.0,-1,1.0,33.29099999999971
478,15,0.5,0.25,-35.0,-1,1.0,0.2424999999998363
479,15,0.5,0.0,-35.0,-1,1.0,0.7777999999998428
480,15,0.5,0.0,-35.0,1,0.0,0.33150000000023283
481,15,0.5,0.0625,-35.0,-1,1.0,0.33009999999967476
482,15,0.5,0.25,35.0,1,1.0,0.36220000000002983
483,15,0.5,1.0,35.0,1,1.0,0.22069999999985157
484,15,0.5,0.25,-35.0,-1,1.0,0.21550000000024738
485,15,0.5,0.125,35.0,1,1.0,0.19770000000016807
486,15,0.5,0.25,35.0,1,1.0,0.21969999999964784
487,15,0.5,0.0625,35.0,1,1.0,0.24089999999978318
488,15,0.5,1.0,-35.0,1,0.0,0.0921000000003005
489,15,0.5,0.0625,35.0,1,1.0,0.3115999999995438
490,15,0.5,1.0,-35.0,-1,1.0,0.21969899999976406
491,15,0.5,0.125,35.0,-1,0.0,1.3279999999999745
492,15,0.7,0.125,35.0,1,1.0,0.25949999999966167
493,15,0.5,1.0,35.0,1,1.0,0.2624999999998181
494,15,0.5,0.0625,35.0,1,1.0,0.08950000000004366
495,15,0.5,0.125,35.0,1,1.0,0.1813999999999396
496,15,0.5,1.0,-35.0,-1,1.0,0.31719999999995707
497,15,0.5,0.0625,-35.0,-1,1.0,0.22289999999975407
498,15,0.5,1.0,-35.0,1,0.0,0.10510000000022046
499,15,0.5,0.25,35.0,1,1.0,0.2680000000000291
500,15,0.5,0.125,35.0,1,1.0,0.28909999999996217
501,15,0.5,1.0,-35.0,-1,1.0,0.20460000000002765
502,15,0.5,0.0625,-35.0,1,0.0,2.403200000000197
503,15,0.5,0.25,35.0,1,1.0,0.337699999999586
504,15,0.5,0.25,35.0,1,1.0,0.20339999999987413
505,15,0.5,0.25,35.0,1,1.0,0.32219999999961146
506,15,0.5,0.25,-35.0,1,0.0,0.08120000000008076
507,15,0.5,0.0,35.0,1,1.0,0.16019999999980428
508,15,0.5,0.125,-35.0,-1,1.0,1.3851999999997133
509,15,0.5,0.25,35.0,1,1.0,0.314600000000155
510,15,0.5,0.25,35.0,1,1.0,0.3227000000001681
511,15,0.5,0.25,35.0,1,1.0,0.3152999999997519
512,15,0.5,0.25,35.0,1,1.0,0.22389999999950305
513,15,0.5,0.0625,35.0,1,1.0,0.45870000000013533
514,15,0.5,1.0,-35.0,-1,1.0,0.09769999999980428
515,15,0.5,0.0,-35.0,1,0.0,0.342200000000048
516,15,0.5,0.25,-35.0,-1,1.0,0.21439999999984138
517,15,0.5,0.125,35.0,1,1.0,0.25349999999980355
518,15,0.5,0.25,-35.0,-1,1.0,0.5455999999999221
519,15,0.5,0.0,35.0,1,1.0,0.5608999999994921
520,15,0.5,0.0,-35.0,1,0.0,0.3029999999998836
521,15,0.5,0.0625,-35.0,1,0.0,0.4586999999996806
522,15,0.7,0.0625,35.0,1,1.0,0.32689999999956854
523,15,0.5,1.0,35.0,1,1.0,0.3065999999998894
524,15,0.5,1.0,-35.0,-1,1.0,0.17439999999942302
525,15,0.5,0.0625,35.0,1,1.0,0.316899999999805
526,15,0.5,0.125,-35.0,-1,1.0,0.23889999999983047
527,15,0.5,0.25,35.0,1,1.0,0.39370000000008076
528,15,0.5,0.0,35.0,1,1.0,0.3993000000000393
529,15,0.5,0.0625,-35.0,-1,1.0,0.6514000000001943
530,15,0.5,0.25,35.0,1,1.0,0.46729999999979555
531,15,0.5,0.25,35.0,1,1.0,0.5456999999996697
532,15,0.5,0.0625,35.0,1,1.0,0.307999999999538
533,15,0.5,0.0625,-35.0,-1,1.0,0.2867989999999736
534,15,0.5,0.25,35.0,1,1.0,0.4621999999999389
535,15,0.5,0.125,35.0,1,1.0,0.2780999999999949
536,15,0.5,0.125,-35.0,-1,1.0,0.2640000000001237
537,15,0.5,0.125,-35.0,-1,1.0,0.27569999999968786
538,15,0.5,0.25,35.0,1,1.0,0.37489999999979773
539,15,0.5,1.0,35.0,1,1.0,0.09679999999934807
540,15,0.5,0.0625,35.0,1,1.0,0.26549999999997453
541,15,0.5,1.0,-35.0,-1,1.0,0.23779999999987922
542,15,0.5,1.0,-35.0,-1,1.0,0.2701999999999316
543,15,0.5,0.0625,-35.0,-1,1.0,0.3423000000002503
544,15,0.5,0.25,-35.0,-1,1.0,0.22089999999980137
545,15,0.5,0.25,35.0,1,1.0,0.24670000000014625
546,15,0.5,0.125,-35.0,-1,1.0,0.25879999999961
547,15,0.5,0.0625,35.0,1,1.0,0.3478999999997541
548,15,0.5,0.25,-35.0,-1,1.0,0.23700000000008004
549,15,0.5,0.125,-35.0,-1,1.0,0.6419999999998254
550,15,0.5,0.25,35.0,-1,0.0,8.714399999999841
551,15,0.5,0.0,35.0,1,1.0,0.6198999999996886
552,15,0.5,0.125,-35.0,-1,1.0,0.36580000000003565
553,15,0.5,0.25,35.0,1,1.0,0.3874000000000706
554,15,0.5,1.0,35.0,1,1.0,0.2098999999998341
555,15,0.5,0.25,35.0,1,1.0,0.9711999999999534
556,15,0.5,0.0,35.0,1,1.0,0.3733999999999469
557,15,0.5,1.0,-35.0,-1,1.0,0.22239899999976842
558,15,0.5,0.25,35.0,1,1.0,0.3352999999997337
559,15,0.5,0.125,-35.0,-1,1.0,0.2968999999998232
560,15,0.5,0.0625,35.0,1,1.0,0.24239999999963402
561,15,0.5,0.125,-35.0,-1,1.0,0.28799999999955617
562,15,0.5,0.0,35.0,1,1.0,0.32019999999965876
563,15,0.5,0.25,35.0,1,1.0,0.2959000000000742
564,15,0.5,0.0625,35.0,-1,0.0,0.2417000000000371
565,15,0.5,0.0,-35.0,-1,1.0,0.9662999999995918
566,15,0.5,0.0625,35.0,-1,0.0,0.5122999999998683
567,15,0.5,0.25,-35.0,-1,1.0,0.23999999999978172
568,15,0.5,1.0,-35.0,-1,1.0,0.20649999999977808
569,15,0.5,0.125,-35.0,1,0.0,0.9212999999999738
570,15,0.4,0.125,-35.0,-1,1.0,2.7332000000001244
571,15,0.5,1.0,35.0,1,1.0,0.38779999999997017
572,15,0.5,0.25,-35.0,-1,1.0,0.28339999999980137
573,15,0.5,0.0,-35.0,-1,1.0,0.25569999999970605
574,15,0.5,1.0,35.0,1,1.0,0.33859999999958745
575,15,0.5,0.125,-35.0,-1,1.0,0.3865000000000691
576,15,0.5,0.0625,35.0,1,1.0,0.3758999999995467
577,15,0.5,1.0,35.0,1,1.0,0.3310999999998785
578,15,0.5,0.25,35.0,1,1.0,0.4776999999999134
579,15,0.5,0.125,-35.0,-1,1.0,0.28569999999990614
580,15,0.5,0.25,35.0,-1,0.0,5.637799999999515
581,15,0.5,0.0,-35.0,1,0.0,8.994599999999537
582,15,0.5,0.0625,35.0,0,0.0,59.99749999999949
583,15,0.5,0.25,-35.0,-1,1.0,0.4003999999995358
584,15,0.5,0.125,-35.0,-1,1.0,0.28929999999991196
585,15,0.5,0.125,-35.0,-1,1.0,0.24929999999994834
586,15,0.5,0.25,35.0,1,1.0,0.0972990000000209
587,15,0.5,0.125,35.0,1,1.0,0.24939999999969586
588,15,0.5,0.125,-35.0,-1,1.0,0.2348999999994703
589,15,0.5,0.125,35.0,1,1.0,0.30709999999999127
590,15,0.5,0.25,-35.0,-1,1.0,0.22280000000000655
591,15,0.5,0.0625,-35.0,1,0.0,0.704899999999725
592,15,0.5,0.0625,35.0,1,1.0,0.9467999999997119
593,15,0.5,0.0,-35.0,1,0.0,0.30279999999947904
594,15,0.5,0.0,-35.0,1,0.0,0.41409999999996217
595,15,0.5,0.125,-35.0,-1,1.0,0.38619999999991705
596,15,0.5,1.0,-35.0,-1,1.0,0.1916999999998552
597,15,0.5,1.0,35.0,1,1.0,0.34400000000005093
598,15,0.5,0.25,35.0,1,1.0,0.5426000000002205
599,15,0.5,0.25,-35.0,-1,1.0,0.24850000000014916
600,15,0.5,0.25,-35.0,-1,1.0,0.2670999999995729
601,15,0.5,0.0625,-35.0,1,0.0,0.3265000000001237
602,15,0.6,0.0625,-35.0,-1,1.0,3.0715000000000146
603,15,0.5,1.0,35.0,1,1.0,0.3162000000002081
604,15,0.5,0.0625,35.0,1,1.0,3.6617999999998574
605,15,0.5,0.0625,-35.0,-1,1.0,0.2701999999999316
606,15,0.5,0.0625,-35.0,-1,1.0,0.36859999999978754
607,15,0.5,0.25,-35.0,-1,1.0,0.21519999999964057
608,15,0.5,0.25,35.0,1,1.0,0.3961999999996806
609,15,0.5,1.0,35.0,1,1.0,0.24519999999984066
610,15,0.5,1.0,-35.0,-1,1.0,0.19739999999956126
611,15,0.5,1.0,-35.0,-1,1.0,0.22619999999960783
612,15,0.5,0.125,-35.0,-1,1.0,0.6319999999996071
613,15,0.5,0.0625,35.0,1,1.0,0.3943999999996777
614,15,0.5,1.0,-35.0,-1,1.0,0.21899999999959618
615,15,0.5,0.25,35.0,1,1.0,0.4250000000001819
616,15,0.5,0.25,-35.0,-1,1.0,0.31690000000025975
617,15,0.5,0.25,-35.0,-1,1.0,0.2561999999998079
618,15,0.5,0.125,35.0,1,1.0,2.5776999999998225
619,15,0.5,0.0625,-35.0,1,0.0,0.19290000000000873
620,15,0.5,0.125,-35.0,1,0.0,0.35130000000026484
621,15,0.5,0.25,-35.0,-1,1.0,0.25280000000020664
622,15,0.5,1.0,35.0,1,1.0,0.3350999999997839
623,15,0.5,1.0,35.0,1,1.0,0.2642989999999372
624,15,0.5,0.0625,-35.0,1,0.0,0.7594999999996617
625,15,0.5,0.125,35.0,1,1.0,3.9549999999999272
626,15,0.5,0.25,-35.0,-1,1.0,0.26239999999961583
627,15,0.5,0.25,-35.0,-1,1.0,0.3411999999998443
628,15,0.5,1.0,-35.0,-1,1.0,0.23010000000022046
629,15,0.5,0.25,35.0,1,1.0,0.40570000000025175
630,15,0.5,1.0,35.0,1,1.0,0.5345999999995001
631,15,0.5,0.25,35.0,1,1.0,0.7204000000001543
632,15,0.5,0.0,35.0,-1,0.0,1.9354999999995925
633,15,0.6,0.0,-35.0,-1,1.0,1.3272000000001754
634,15,0.5,1.0,35.0,1,1.0,2.8353000000001884
635,15,0.5,0.125,-35.0,-1,1.0,0.19349999999940337
636,15,0.5,0.125,35.0,-1,0.0,0.31570000000010623
637,15,0.5,0.25,35.0,-1,0.0,1.1249999999995453
638,15,0.5,0.25,-35.0,-1,1.0,0.28629999999975553
639,15,0.5,0.0,-35.0,-1,1.0,15.402099999999791
640,15,0.5,0.25,35.0,-1,0.0,0.8825999999994565
641,15,0.5,0.0,35.0,1,1.0,0.36819999999988795
642,15,0.5,1.0,35.0,-1,0.0,46.81309999999985
643,15,0.5,0.125,-35.0,-1,1.0,3.0077009999999973
644,15,0.5,0.125,-35.0,-1,1.0,0.42220099999985905
645,15,0.5,0.25,35.0,-1,0.0,12.52440099999967
646,15,0.5,0.0625,35.0,-1,0.0,0.37590100000034
647,15,0.5,0.125,35.0,-1,0.0,5.061200999999528
648,15,0.5,0.125,35.0,-1,0.0,1.5384009999997943
649,15,0.1,0.125,35.0,-1,0.0,5.620500999999422
650,15,0.5,1.0,35.0,-1,0.0,5.463601000000381
651,15,0.5,0.125,-35.0,-1,1.0,0.14069999999992433
652,15,0.5,0.25,-35.0,-1,1.0,6.989700999999513
653,15,0.5,0.125,35.0,1,1.0,0.5601999999998952
654,15,0.5,0.0625,-35.0,-1,1.0,1.008401000000049
655,15,0.5,0.25,35.0,1,1.0,0.46760100000028615
656,15,0.5,0.125,-35.0,-1,1.0,0.22560100000009697
657,15,0.5,1.0,35.0,1,1.0,0.3446009999997841
658,15,0.5,0.0625,35.0,1,1.0,0.3602009999999609
659,15,0.5,0.125,35.0,-1,0.0,2.306000999999469
660,15,0.5,0.0625,-35.0,-1,1.0,1.160301000000345
661,15,0.5,0.0625,35.0,-1,0.0,1.0157009999998081
662,15,0.5,0.125,-35.0,-1,1.0,2.7270000000003165
663,15,0.5,0.0625,-35.0,-1,1.0,0.7828010000002905
664,15,0.5,0.0625,35.0,-1,0.0,0.4540009999996073
665,15,0.5,0.0,-35.0,-1,1.0,5.448900999999751
666,15,0.5,1.0,35.0,1,1.0,0.8061010000001261
667,15,0.5,0.0,35.0,-1,0.0,0.6088009999998576
668,15,0.5,0.25,35.0,-1,0.0,8.000101000000086
669,15,0.5,0.125,35.0,-1,0.0,0.49310099999956947
670,15,0.5,0.25,-35.0,-1,1.0,0.29170099999964805
671,15,0.5,0.25,35.0,-1,0.0,21.607100999999602
672,15,0.5,0.125,35.0,-1,0.0,14.472400999999536
673,15,0.1,0.125,-35.0,-1,1.0,0.3034010000001217
674,15,0.5,1.0,35.0,-1,0.0,0.3688009999996211
675,15,0.5,0.125,35.0,-1,0.0,45.90740100000039
676,15,0.5,0.0625,35.0,-1,0.0,2.7945010000003094
677,15,0.5,0.125,35.0,-1,0.0,4.056000999999924
678,15,0.5,0.125,-35.0,-1,1.0,0.38640100000066013
679,15,0.5,0.125,-35.0,-1,1.0,4.0154010000005655
680,15,0.5,0.125,-35.0,-1,1.0,0.28630100000100356
681,15,0.5,0.25,-35.0,-1,1.0,0.20920100000057573
682,15,0.5,1.0,-35.0,-1,1.0,0.2207010000001901
683,15,0.5,0.25,-35.0,-1,1.0,1.7100000000000364
684,15,0.5,0.25,-35.0,-1,1.0,0.21140100000047823
685,15,0.5,0.0,35.0,-1,0.0,2.8680010000007314
686,15,0.0,0.0,35.0,-1,0.0,11.284601000000293
687,15,0.5,1.0,35.0,1,1.0,0.42740000000048894
688,15,0.5,1.0,-35.0,-1,1.0,0.2354009999999107
689,15,0.5,1.0,35.0,1,1.0,0.42430100000001403
690,15,0.5,1.0,-35.0,-1,1.0,0.20990100000017264
691,15,0.5,0.0625,35.0,1,1.0,0.42600100000072416
692,15,0.5,0.25,-35.0,-1,1.0,0.19440099999974336
693,15,0.5,0.25,35.0,-1,0.0,5.917300999999497
694,15,0.5,0.125,35.0,1,1.0,2.097001000000091
695,15,0.5,0.0625,-35.0,-1,1.0,0.5622010000006412
696,15,0.5,0.0625,35.0,-1,0.0,6.217501000000084
697,15,0.5,0.25,35.0,1,1.0,3.211201000000983
698,15,0.5,0.25,-35.0,-1,1.0,0.2325010000004113
699,15,0.5,1.0,-35.0,-1,1.0,0.22450100000060047
700,15,0.5,0.0625,-35.0,-1,1.0,0.48040099999980157
701,15,0.5,0.125,-35.0,-1,1.0,0.2561010000008537
702,15,0.5,1.0,-35.0,-1,1.0,0.2215009999999893
703,15,0.5,1.0,35.0,1,1.0,0.3938010000010763
704,15,0.5,0.0625,35.0,-1,0.0,2.245901000000231
705,15,0.5,0.0625,-35.0,-1,1.0,2.830801000000065
706,15,0.5,0.25,35.0,1,1.0,0.4851010000002134
707,15,0.5,1.0,-35.0,-1,1.0,0.1840009999996255
708,15,0.5,0.25,-35.0,-1,1.0,1.3220009999995455
709,15,0.5,0.25,35.0,-1,0.0,1.6546010000001843
710,15,0.5,0.25,35.0,-1,0.0,20.385401000000456
711,15,0.5,0.25,-35.0,-1,1.0,0.3310010000004695
712,15,0.5,0.0625,35.0,-1,0.0,10.589601000000584
713,15,0.5,0.125,-35.0,-1,1.0,0.2818010000000868
714,15,0.5,0.125,35.0,-1,0.0,2.494101000000228
715,15,0.5,0.0,-35.0,-1,1.0,25.962000999999873
716,15,0.5,0.0625,-35.0,-1,1.0,0.4663010000003851
717,15,0.5,0.0625,35.0,-1,0.0,13.098401000001104
718,15,0.5,0.125,35.0,1,1.0,2.1695010000003094
719,15,0.5,0.125,-35.0,-1,1.0,3.1117009999998118
720,15,0.5,1.0,-35.0,-1,1.0,0.24220100000002276
721,15,0.5,0.125,35.0,-1,0.0,4.601101000000199
722,15,0.5,0.0625,35.0,-1,0.0,0.4116999999996551
723,15,0.5,0.125,35.0,-1,0.0,15.520500999999967
724,15,0.5,0.125,35.0,-1,0.0,5.450701000000663
725,15,0.5,0.0625,-35.0,-1,1.0,0.2780009999996764
726,15,0.5,1.0,35.0,-1,0.0,0.9266009999992093
727,15,0.5,0.125,35.0,-1,0.0,2.4220010000008187
728,15,0.5,0.25,35.0,-1,0.0,1.7730009999995673
1,16,0.5,0.0,35.0,1,1.0,5.737799999999999
2,16,0.5,0.0625,35.0,1,1.0,0.16910000000000203
3,16,0.5,0.25,-35.0,-1,1.0,0.5046999999999997
4,16,0.5,0.125,-35.0,-1,1.0,0.268099000000003
5,16,0.5,0.125,-35.0,-1,1.0,0.2784000000000013
6,16,0.5,0.125,-35.0,-1,1.0,0.19790000000000063
7,16,0.5,0.125,35.0,1,1.0,0.23560000000000159
8,16,0.5,1.0,-35.0,-1,1.0,0.27879999999999683
9,16,0.5,0.0625,-35.0,1,0.0,0.177500000000002
10,16,0.5,0.0625,35.0,1,1.0,0.193400000000004
11,16,0.5,0.125,-35.0,1,0.0,0.31739999999999924
12,16,0.5,0.25,35.0,1,1.0,0.2972999999999999
13,16,0.5,0.125,-35.0,1,0.0,0.23390000000000555
14,16,0.6,0.125,-35.0,-1,1.0,0.8440000000000012
15,16,0.5,1.0,-35.0,-1,1.0,0.15619999999999834
16,16,0.5,0.125,35.0,1,1.0,0.1401000000000039
17,16,0.5,0.0,35.0,1,1.0,0.31569999999999254
18,16,0.5,0.0625,-35.0,1,0.0,0.17900000000000205
19,16,0.5,0.25,35.0,1,1.0,0.21760000000000446
20,16,0.5,1.0,35.0,1,1.0,0.15850000000000364
21,16,0.5,0.0625,35.0,1,1.0,0.20379999999998688
22,16,0.5,0.25,-35.0,1,0.0,0.12330000000001462
23,16,0.5,0.25,-35.0,-1,1.0,0.17730000000000246
24,16,0.5,0.25,35.0,1,1.0,0.12649999999999295
25,16,0.5,0.25,35.0,1,1.0,0.1927000000000021
26,16,0.5,0.25,35.0,1,1.0,0.20490000000000919
27,16,0.5,1.0,-35.0,-1,1.0,0.18830000000001235
28,16,0.5,0.0,35.0,1,1.0,0.2815999999999974
29,16,0.5,0.125,35.0,1,1.0,0.19779999999998665
30,16,0.5,0.25,-35.0,-1,1.0,0.3795000000000073
31,16,0.5,0.0625,-35.0,1,0.0,0.10369999999997503
32,16,0.7,0.0625,35.0,1,1.0,0.3172999999999888
33,16,0.5,1.0,-35.0,-1,1.0,0.19259999999999877
34,16,0.5,1.0,-35.0,1,0.0,0.07559999999998013
35,16,0.5,0.0,-35.0,1,0.0,2.4183999999999912
36,16,0.5,0.0,-35.0,-1,1.0,0.084699999999998
37,16,0.5,0.0625,35.0,1,1.0,0.22479999999998768
38,16,0.5,0.0,35.0,1,1.0,0.2833999999999719
39,16,0.5,0.0625,-35.0,1,0.0,0.13569999999998572
40,16,0.5,0.0,35.0,1,1.0,0.21460000000001855
41,16,0.5,0.25,35.0,1,1.0,0.2132000000000005
42,16,0.5,1.0,35.0,1,1.0,0.21709999999995944
43,16,0.5,0.0,-35.0,1,0.0,0.07529999999999859
44,16,0.5,0.0,35.0,1,1.0,0.12999999999999545
45,16,0.5,0.125,-35.0,-1,1.0,0.5423999999999864
46,16,0.5,0.125,-35.0,-1,1.0,0.3158999999999992
47,16,0.5,0.125,35.0,1,1.0,0.23629999999997153
48,16,0.5,0.0625,35.0,1,1.0,0.20999999999997954
49,16,0.5,0.25,-35.0,-1,1.0,0.13829999999998677
50,16,0.5,0.125,35.0,1,1.0,0.10079999999996403
51,16,0.5,1.0,-35.0,-1,1.0,0.18789999999998486
52,16,0.5,1.0,-35.0,-1,1.0,0.18389999999996576
53,16,0.5,0.0,-35.0,1,0.0,0.18850000000000477
54,16,0.5,0.0,35.0,1,1.0,0.21129999999996585
55,16,0.5,1.0,-35.0,-1,1.0,0.19419999999996662
56,16,0.5,0.25,35.0,1,1.0,0.2883989999999699
57,16,0.5,0.25,35.0,1,1.0,0.16259999999999764
58,16,0.5,0.125,-35.0,1,0.0,0.26209999999997535
59,16,0.5,0.25,35.0,1,1.0,0.2609999999999957
60,16,0.5,0.25,35.0,-1,0.0,0.1980000000000075
61,16,0.5,0.0625,-35.0,1,0.0,0.2746999999999957
62,16,0.5,0.25,-35.0,-1,1.0,0.21109999999998763
63,16,0.5,1.0,35.0,-1,0.0,0.16140000000001464
64,16,0.5,0.125,-35.0,1,0.0,0.10329999999999018
65,16,0.5,0.0625,-35.0,1,0.0,0.4757999999999356
66,16,0.5,0.125,-35.0,-1,1.0,0.24769999999995207
67,16,0.5,0.0625,-35.0,-1,1.0,0.27010000000001355
68,16,0.5,0.0625,-35.0,-1,1.0,0.3129999999999882
69,16,0.5,0.0625,-35.0,-1,1.0,0.444500000000005
70,16,0.5,0.0625,-35.0,-1,1.0,0.7313000000000329
71,16,0.5,0.125,35.0,1,1.0,0.3564000000000078
72,16,0.5,1.0,35.0,1,1.0,0.2945999999999458
73,16,0.5,0.0625,-35.0,1,0.0,0.1403999999999428
74,16,0.5,0.25,-35.0,-1,1.0,0.20350000000001955
75,16,0.5,0.0,35.0,1,1.0,0.33660000000003265
76,16,0.5,0.125,-35.0,1,0.0,0.1309999999999718
77,16,0.5,0.125,-35.0,1,0.0,0.22139999999996007
78,16,0.5,0.0625,35.0,1,1.0,0.07729999999997972
79,16,0.5,1.0,-35.0,-1,1.0,0.14289999999999736
80,16,0.5,0.0,-35.0,-1,1.0,0.2197999999999638
81,16,0.5,0.125,35.0,1,1.0,0.10129999999998063
82,16,0.5,0.25,35.0,1,1.0,0.20060000000000855
83,16,0.5,0.125,-35.0,1,0.0,0.15040000000004738
84,16,0.5,0.0,-35.0,1,0.0,0.398399999999981
85,16,0.5,0.0625,35.0,1,1.0,0.27080000000000837
86,16,0.5,0.25,35.0,-1,0.0,0.2740000000000009
87,16,0.5,0.125,-35.0,-1,1.0,0.291499999999985
88,16,0.5,0.125,35.0,-1,0.0,0.21539999999998827
89,16,0.5,0.0,-35.0,-1,1.0,0.3599999999999568
90,16,0.5,0.0625,-35.0,-1,1.0,0.3521999999999821
91,16,0.5,0.0625,-35.0,-1,1.0,0.2492000000000303
92,16,0.5,0.125,-35.0,-1,1.0,0.24869999999998527
93,16,0.5,0.0625,35.0,1,1.0,0.25790000000000646
94,16,0.5,0.0625,35.0,1,1.0,0.45409999999998263
95,16,0.5,0.125,-35.0,-1,1.0,0.20909999999997808
96,16,0.5,0.0625,-35.0,-1,1.0,0.24670000000003256
97,16,0.5,0.0625,-35.0,-1,1.0,0.259399999999971
98,16,0.5,1.0,-35.0,-1,1.0,0.17499999999995453
99,16,0.5,0.25,-35.0,-1,1.0,0.162399999999991
100,16,0.5,0.0625,35.0,1,1.0,3.8396000000000186
101,16,0.5,0.125,-35.0,1,0.0,0.3687999999999647
102,16,0.5,0.25,-35.0,-1,1.0,0.1701999999999657
103,16,0.5,0.0625,35.0,-1,0.0,0.21510000000000673
104,16,0.5,0.0625,-35.0,-1,1.0,0.25420000000002574
105,16,0.5,0.0625,-35.0,-1,1.0,0.2948999999999842
106,16,0.5,0.125,-35.0,-1,1.0,0.22999999999996135
107,16,0.5,1.0,35.0,1,1.0,0.2980000000000018
108,16,0.5,0.0625,35.0,-1,0.0,0.3190999999999917
109,16,0.5,0.0625,-35.0,-1,1.0,0.22699999999997544
110,16,0.5,0.25,35.0,1,1.0,0.23989999999997735
111,16,0.5,0.25,-35.0,-1,1.0,0.25
112,16,0.5,0.0,35.0,1,1.0,0.49879999999996016
113,16,0.5,0.25,35.0,1,1.0,0.35149999999998727
114,16,0.5,1.0,-35.0,-1,1.0,0.23619999999999663
115,16,0.5,0.125,35.0,1,1.0,0.18989999999996598
116,16,0.5,0.25,-35.0,-1,1.0,0.2718999999999596
117,16,0.5,0.25,35.0,-1,0.0,0.09149999999999636
118,16,0.5,0.25,35.0,1,1.0,0.5543999999999869
119,16,0.5,0.0625,-35.0,1,0.0,0.3469000000000051
120,16,0.5,0.125,-35.0,-1,1.0,0.2562000000000353
121,16,0.5,0.0625,-35.0,1,0.0,0.3444000000000642
122,16,0.5,0.125,-35.0,-1,1.0,0.18889999999998963
123,16,0.5,0.0,35.0,1,1.0,0.24089999999989686
124,16,0.5,0.125,35.0,1,1.0,0.08709999999996398
125,16,0.5,0.125,-35.0,1,0.0,0.17230000000006385
126,16,0.5,0.0625,-35.0,-1,1.0,0.2561000000000604
127,16,0.5,0.0625,-35.0,1,0.0,0.12389999999993506
128,16,0.5,0.125,35.0,1,1.0,0.5597999999999956
129,16,0.5,0.125,-35.0,1,0.0,0.1091999999998734
130,16,0.5,0.25,-35.0,-1,1.0,0.23019999999996799
131,16,0.5,1.0,-35.0,-1,1.0,0.1997999999998683
132,16,0.5,0.25,-35.0,1,0.0,0.1675999999999931
133,16,0.5,0.25,-35.0,-1,1.0,0.2317000000000462
134,16,0.5,0.0625,35.0,1,1.0,0.3086999999999307
135,16,0.5,0.25,-35.0,-1,1.0,0.20640000000003056
136,16,0.5,0.25,35.0,1,1.0,0.5630999999999631
137,16,0.5,0.0625,35.0,-1,0.0,1.490199999999959
138,16,0.5,0.0625,-35.0,1,0.0,1.7595000000000027
139,16,0.5,0.0625,35.0,1,1.0,0.4290000000000873
140,16,0.5,1.0,35.0,1,1.0,0.4134000000000242
141,16,0.5,1.0,-35.0,-1,1.0,0.23309999999992215
142,16,0.5,1.0,-35.0,-1,1.0,0.2240999999999076
143,16,0.5,0.25,-35.0,-1,1.0,0.22720000000003893
144,16,0.5,0.125,35.0,-1,0.0,0.14289999999994052
145,16,0.5,0.0625,35.0,1,1.0,0.35130000000003747
146,16,0.5,0.125,35.0,1,1.0,0.2867999999999711
147,16,0.5,0.125,35.0,1,1.0,0.27350000000001273
148,16,0.5,0.25,35.0,1,1.0,0.5095999999999776
149,16,0.5,0.25,-35.0,-1,1.0,0.2239999999999327
150,16,0.5,0.0,-35.0,1,0.0,0.38390000000003965
151,16,0.5,0.125,35.0,-1,0.0,0.42029999999999745
152,16,0.5,0.0625,35.0,-1,0.0,0.2584000000000515
153,16,0.5,0.25,35.0,1,1.0,0.43259999999997945
154,16,0.5,0.125,-35.0,-1,1.0,0.24529999999992924
155,16,0.5,0.25,35.0,1,1.0,0.17430000000001655
156,16,0.5,0.25,-35.0,-1,1.0,0.25729999999998654
157,16,0.5,0.0,35.0,1,1.0,0.1087000000001126
158,16,0.5,0.25,35.0,1,1.0,0.21329999999989013
159,16,0.5,1.0,35.0,1,1.0,0.1451999999999316
160,16,0.5,1.0,35.0,1,1.0,0.28489999999999327
161,16,0.5,1.0,-35.0,-1,1.0,0.1957999999999629
162,16,0.5,0.0625,-35.0,1,0.0,0.13959999999997308
163,16,0.7,0.0625,-35.0,-1,1.0,0.23410000000012587
164,16,0.5,1.0,35.0,1,1.0,0.35180000000002565
165,16,0.5,0.25,-35.0,-1,1.0,0.2723999999999478
166,16,0.5,0.125,-35.0,-1,1.0,0.2239000000000715
167,16,0.5,1.0,-35.0,-1,1.0,0.21000000000003638
168,16,0.5,1.0,35.0,1,1.0,0.16599999999993997
169,16,0.5,0.125,35.0,1,1.0,0.2436999999999898
170,16,0.5,0.25,35.0,1,1.0,0.2138999999999669
171,16,0.5,0.0625,-35.0,-1,1.0,0.2641999999999598
172,16,0.5,0.125,-35.0,1,0.0,0.15089999999997872
173,16,0.5,0.0,-35.0,1,0.0,0.23309899999992467
174,16,0.6,0.0,-35.0,-1,1.0,0.32300000000009277
175,16,0.5,1.0,35.0,1,1.0,0.09550000000001546
176,16,0.5,0.25,-35.0,1,0.0,0.20850000000007185
177,16,0.5,0.125,-35.0,-1,1.0,0.5930999999999358
178,16,0.5,0.125,35.0,1,1.0,0.24459999999999127
179,16,0.5,0.0625,35.0,1,1.0,0.34530000000006567
180,16,0.5,1.0,-35.0,-1,1.0,0.19680000000005293
181,16,0.5,0.0625,-35.0,-1,1.0,0.19679999999993925
182,16,0.5,1.0,-35.0,-1,1.0,0.19240000000002055
183,16,0.5,0.0625,35.0,1,1.0,0.5627999999999247
184,16,0.5,0.0625,-35.0,1,0.0,0.5195999999999685
185,16,0.5,0.25,35.0,-1,0.0,0.08389999999997144
186,16,0.5,0.125,35.0,1,1.0,0.3511999999999489
187,16,0.5,0.0625,35.0,1,1.0,0.11799999999993815
188,16,0.5,0.25,35.0,1,1.0,0.1493000000000393
189,16,0.5,0.0625,-35.0,1,0.0,0.17280000000005202
190,16,0.6,0.0625,35.0,1,1.0,0.1973000000000411
191,16,0.5,1.0,-35.0,1,0.0,0.12009999999997945
192,16,0.5,0.25,35.0,1,1.0,0.26539999999999964
193,16,0.5,0.25,-35.0,-1,1.0,0.2601999999999407
194,16,0.5,0.0,-35.0,-1,1.0,0.043499999999880856
195,16,0.5,0.25,35.0,1,1.0,0.1251999999999498
196,16,0.5,1.0,35.0,1,1.0,0.24709999999993215
197,16,0.5,1.0,-35.0,-1,1.0,0.23929999999995744
198,16,0.5,0.0625,-35.0,-1,1.0,0.7927999999999429
199,16,0.5,0.0625,35.0,1,1.0,0.17799999999999727
200,16,0.5,0.25,-35.0,-1,1.0,0.21069999999997435
201,16,0.5,0.25,-35.0,-1,1.0,0.17020000000002256
202,16,0.5,0.0625,-35.0,1,0.0,2.68730000000005
203,16,0.4,0.0625,-35.0,-1,1.0,0.23820000000000618
204,16,0.5,1.0,35.0,1,1.0,0.12329999999997199
205,16,0.5,0.25,-35.0,-1,1.0,0.20079999999995835
206,16,0.5,1.0,35.0,1,1.0,0.3645000000000209
207,16,0.5,1.0,-35.0,-1,1.0,0.19780000000002929
208,16,0.5,0.0625,35.0,-1,0.0,5.6802000000000135
209,16,0.5,0.25,-35.0,-1,1.0,0.24089999999989686
210,16,0.5,0.125,-35.0,-1,1.0,0.2603000000000293
211,16,0.5,1.0,-35.0,-1,1.0,0.18479999999999563
212,16,0.5,0.0625,35.0,-1,0.0,0.17660000000000764
213,16,0.5,0.25,-35.0,-1,1.0,0.21040000000004966
214,16,0.5,0.25,35.0,-1,0.0,0.3613000000000284
215,16,0.5,0.0625,35.0,1,1.0,0.1491999999999507
216,16,0.5,0.125,-35.0,1,0.0,0.38030000000003383
217,16,0.2,0.125,35.0,1,1.0,0.17979899999988902
218,16,0.5,1.0,35.0,1,1.0,0.42849999999998545
219,16,0.5,0.0625,35.0,1,1.0,0.23440000000005057
220,16,0.5,0.25,35.0,1,1.0,0.41650000000004184
221,16,0.5,0.125,35.0,1,1.0,0.3573000000000093
222,16,0.5,0.0625,-35.0,1,0.0,0.3728999999999587
223,16,0.5,0.125,35.0,1,1.0,0.2907999999999902
224,16,0.5,0.125,35.0,1,1.0,0.38409999999998945
225,16,0.5,0.125,35.0,1,1.0,0.18619999999998527
226,16,0.5,0.0625,-35.0,1,0.0,0.13789999999994507
227,16,0.5,0.25,-35.0,-1,1.0,0.26350000000002183
228,16,0.5,0.25,35.0,1,1.0,0.37189999999986867
229,16,0.5,0.25,35.0,1,1.0,0.3369999999999891
230,16,0.5,0.125,35.0,1,1.0,0.33819999999991524
231,16,0.5,0.25,-35.0,-1,1.0,0.23419999999998709
232,16,0.5,0.125,-35.0,-1,1.0,0.17429999999990287
233,16,0.5,0.0,35.0,1,1.0,0.18290000000001783
234,16,0.5,0.0625,35.0,1,1.0,0.39419999999995525
235,16,0.5,0.25,35.0,1,1.0,0.3525999999999385
236,16,0.5,0.125,35.0,1,1.0,0.1813999999999396
237,16,0.5,0.25,35.0,1,1.0,0.8038990000000013
238,16,0.5,1.0,-35.0,-1,1.0,0.23900000000003274
239,16,0.5,0.0625,35.0,1,1.0,0.45069999999986976
240,16,0.5,0.0,-35.0,1,0.0,0.22139999999990323
241,16,0.7,0.0,35.0,1,1.0,0.366800000000012
242,16,0.5,1.0,35.0,1,1.0,0.19450000000006185
243,16,0.5,0.125,-35.0,1,0.0,0.1306000000001859
244,16,0.5,0.0625,35.0,1,1.0,0.5358999999998559
245,16,0.5,1.0,35.0,1,1.0,0.32799900000009075
246,16,0.5,0.0625,35.0,1,1.0,0.2861000000000331
247,16,0.5,0.0,-35.0,1,0.0,0.3250000000000455
248,16,0.5,0.0,35.0,1,1.0,0.32399899999995796
249,16,0.5,0.0625,-35.0,-1,1.0,0.48659999999995307
250,16,0.5,0.125,35.0,1,1.0,0.22480000000018663
251,16,0.5,0.125,35.0,1,1.0,0.0830999999998312
252,16,0.5,0.125,-35.0,1,0.0,0.1855000000000473
253,16,0.5,0.0625,-35.0,1,0.0,0.25099999999997635
254,16,0.5,0.0625,35.0,1,1.0,0.4963999999999942
255,16,0.5,0.0625,-35.0,1,0.0,0.3021000000001095
256,16,0.9,0.0625,-35.0,-1,1.0,0.4069999999999254
257,16,0.5,1.0,-35.0,-1,1.0,0.19250000000010914
258,16,0.5,1.0,-35.0,-1,1.0,0.21500000000014552
259,16,0.5,0.0625,35.0,1,1.0,0.22029999999995198
260,16,0.5,0.0625,35.0,1,1.0,0.21229999999991378
261,16,0.5,0.125,-35.0,-1,1.0,0.6479999999999109
262,16,0.5,0.0625,35.0,-1,0.0,0.4511999999999716
263,16,0.5,0.125,-35.0,1,0.0,0.09360000000015134
264,16,0.5,0.125,35.0,1,1.0,0.5052000000000589
265,16,0.5,1.0,-35.0,-1,1.0,0.1973000000000411
266,16,0.5,1.0,-35.0,-1,1.0,0.2059999999999036
267,16,0.5,1.0,35.0,1,1.0,0.3811000000000604
268,16,0.5,1.0,35.0,-1,0.0,0.8123000000000502
269,16,0.5,1.0,35.0,1,1.0,0.3977999999997337
270,16,0.5,1.0,-35.0,-1,1.0,0.21329999999989013
271,16,0.5,0.125,35.0,1,1.0,0.6178999999999633
272,16,0.5,0.0625,35.0,-1,0.0,0.19020000000023174
273,16,0.5,0.0625,35.0,1,1.0,0.36239999999975225
274,16,0.5,0.0625,-35.0,-1,1.0,0.4512999999999465
275,16,0.5,0.0625,35.0,1,1.0,0.3668999999999869
276,16,0.5,0.25,-35.0,-1,1.0,0.2381000000000313
277,16,0.5,0.0625,35.0,1,1.0,0.1630000000002383
278,16,0.5,0.125,35.0,1,1.0,0.28819999999973334
279,16,0.5,0.25,35.0,1,1.0,0.259900000000016
280,16,0.5,1.0,-35.0,1,0.0,0.10259999999993852
281,16,0.5,0.125,-35.0,-1,1.0,0.9242999999999029
282,16,0.5,1.0,35.0,1,1.0,0.2459000000001197
283,16,0.5,0.125,35.0,1,1.0,1.4213999999999487
284,16,0.5,0.125,35.0,1,1.0,0.16300000000001091
285,16,0.5,0.25,35.0,1,1.0,0.19460000000003674
286,16,0.5,0.125,-35.0,-1,1.0,0.30310000000008586
287,16,0.5,0.25,-35.0,-1,1.0,0.09840000000008331
288,16,0.5,0.0,-35.0,1,0.0,0.4371000000001004
289,16,0.7,0.0,-35.0,-1,1.0,0.46489999999994325
290,16,0.5,1.0,-35.0,-1,1.0,0.2540000000001328
291,16,0.5,1.0,35.0,-1,0.0,0.0831999999998061
292,16,0.5,0.125,35.0,1,1.0,0.26530000000002474
293,16,0.5,0.0625,-35.0,-1,1.0,0.22069999999985157
294,16,0.5,1.0,-35.0,-1,1.0,0.1894999999999527
295,16,0.5,0.125,35.0,1,1.0,0.15550000000007458
296,16,0.5,1.0,-35.0,-1,1.0,0.23689999999987776
297,16,0.5,0.25,35.0,1,1.0,0.2595000000001164
298,16,0.5,0.0625,-35.0,-1,1.0,0.18499999999994543
299,16,0.5,1.0,-35.0,-1,1.0,0.22280000000000655
300,16,0.5,1.0,-35.0,-1,1.0,0.2054000000000542
301,16,0.5,0.0625,-35.0,-1,1.0,0.05739999999991596
302,16,0.5,0.0625,35.0,-1,0.0,0.28490000000010696
303,16,0.5,0.25,35.0,1,1.0,0.7901999999999134
304,16,0.5,1.0,-35.0,-1,1.0,0.19539999999983593
305,16,0.5,0.25,35.0,1,1.0,0.13450000000011642
306,16,0.5,1.0,35.0,1,1.0,0.0967000000000553
307,16,0.5,0.0625,-35.0,-1,1.0,0.5052000000000589
308,16,0.5,0.0625,-35.0,-1,1.0,0.28769999999985885
309,16,0.5,0.125,-35.0,-1,1.0,0.5695989999999256
310,16,0.5,0.125,-35.0,-1,1.0,0.22440000000005966
311,16,0.5,0.0625,35.0,-1,0.0,0.31549999999992906
312,16,0.5,0.25,-35.0,-1,1.0,0.21700000000009823
313,16,0.5,0.0625,-35.0,-1,1.0,0.19929999999999382
314,16,0.5,0.0,35.0,1,1.0,0.3303000000000793
315,16,0.5,0.25,-35.0,-1,1.0,0.264299999999821
316,16,0.5,0.0625,-35.0,1,0.0,0.22999999999979082
317,16,0.5,0.0625,35.0,1,1.0,0.3988999999999123
318,16,0.5,0.125,35.0,-1,0.0,0.24109999999973297
319,16,0.5,0.0625,-35.0,-1,1.0,0.22999999999979082
320,16,0.5,0.0625,35.0,-1,0.0,0.2343999999998232
321,16,0.5,0.0625,-35.0,1,0.0,0.5400999999999385
322,16,0.5,0.125,-35.0,-1,1.0,0.3185000000000855
323,16,0.5,0.125,35.0,1,1.0,0.09400000000005093
324,16,0.5,0.0,35.0,-1,0.0,0.25329999999985375
325,16,0.5,0.0625,-35.0,-1,1.0,0.324100000000044
326,16,0.5,1.0,35.0,1,1.0,0.21299999999996544
327,16,0.5,0.0625,-35.0,1,0.0,0.24880000000007385
328,16,0.4,0.0625,35.0,1,1.0,1.3342000000000098
329,16,0.5,1.0,-35.0,-1,1.0,0.1452999999999065
330,16,0.5,0.0,-35.0,-1,1.0,0.537599999999884
331,16,0.5,0.0625,-35.0,1,0.0,0.16210000000000946
332,16,0.5,0.125,-35.0,-1,1.0,0.3009999999999309
333,16,0.5,0.0,-35.0,-1,1.0,0.259900000000016
334,16,0.5,0.125,35.0,-1,0.0,0.2758000000001175
335,16,0.5,0.0625,35.0,1,1.0,0.2116000000000895
336,16,0.5,0.0625,35.0,1,1.0,0.16360000000008768
337,16,0.5,1.0,35.0,-1,0.0,0.266399999999976
338,16,0.5,0.125,-35.0,1,0.0,0.20450000000005275
339,16,0.5,0.0625,-35.0,1,0.0,0.41649999999981446
340,16,0.5,0.0,-35.0,1,0.0,0.4153000000001157
341,16,0.5,0.125,35.0,1,1.0,0.41399999999998727
342,16,0.5,0.25,35.0,1,1.0,0.3251000000000204
343,16,0.5,0.0625,-35.0,-1,1.0,0.19399999999995998
344,16,0.5,0.0,-35.0,1,0.0,0.5185999999998785
345,16,0.5,0.25,35.0,1,1.0,0.09339999999997417
346,16,0.5,0.125,-35.0,-1,1.0,0.3025000000000091
347,16,0.5,0.125,35.0,1,1.0,0.23149999999986903
348,16,0.5,0.125,35.0,1,1.0,0.323399999999765
349,16,0.5,0.125,-35.0,-1,1.0,0.22949999999968895
350,16,0.5,0.125,35.0,1,1.0,0.08809999999994034
351,16,0.5,1.0,35.0,1,1.0,0.4759999999998854
352,16,0.5,0.125,-35.0,-1,1.0,0.31150000000002365
353,16,0.5,1.0,-35.0,-1,1.0,0.21289999999999054
354,16,0.5,0.125,-35.0,-1,1.0,0.2182999999997719
355,16,0.5,0.0625,-35.0,-1,1.0,0.5399990000000798
356,16,0.5,0.0,35.0,-1,0.0,1.8552999999999429
357,16,0.5,0.125,-35.0,-1,1.0,0.23019999999996799
358,16,0.5,0.0625,-35.0,-1,1.0,0.05580000000009022
359,16,0.5,0.25,35.0,1,1.0,0.4820999999999458
360,16,0.5,0.25,-35.0,-1,1.0,0.2157999999999447
361,16,0.5,1.0,-35.0,1,0.0,0.10719999999992069
362,16,0.5,0.0,35.0,1,1.0,0.0763000000001739
363,16,0.5,0.125,35.0,1,1.0,0.6920999999999822
364,16,0.5,0.0625,35.0,1,1.0,0.2704000000001088
365,16,0.5,0.25,35.0,-1,0.0,0.21610000000009677
366,16,0.5,0.0,35.0,-1,0.0,0.3246999999998934
367,16,0.5,0.25,35.0,1,1.0,0.5172000000000025
368,16,0.5,0.0625,35.0,1,1.0,0.35570000000006985
369,16,0.5,0.0,-35.0,1,0.0,0.303599999999733
370,16,0.5,0.0625,35.0,-1,0.0,0.3553999999999178
371,16,0.7,0.0625,35.0,1,1.0,2.3204000000000633
372,16,0.5,1.0,35.0,1,1.0,0.2420999999999367
373,16,0.5,0.25,35.0,1,1.0,0.28129999999987376
374,16,0.5,0.125,35.0,1,1.0,0.5201999999999316
375,16,0.5,0.0625,-35.0,-1,1.0,0.25649999999996
376,16,0.5,0.125,35.0,1,1.0,0.17459999999982756
377,16,0.5,0.125,35.0,1,1.0,0.2565999999999349
378,16,0.5,1.0,-35.0,1,0.0,0.17249999999989996
379,16,0.8,1.0,35.0,1,1.0,0.3309999999999036
380,16,0.5,1.0,-35.0,-1,1.0,0.19670000000019172
381,16,0.5,0.125,35.0,1,1.0,0.3287999999997737
382,16,0.5,1.0,-35.0,-1,1.0,0.15790000000015425
383,16,0.5,0.25,-35.0,-1,1.0,0.3001000000001568
384,16,0.5,1.0,35.0,-1,0.0,0.4010999999998148
385,16,0.5,0.0625,-35.0,-1,1.0,0.23929999999995744
386,16,0.5,1.0,-35.0,1,0.0,0.09809999999993124
387,16,0.5,0.125,-35.0,-1,1.0,0.9635000000000673
388,16,0.5,1.0,-35.0,-1,1.0,0.25890000000003965
389,16,0.5,1.0,-35.0,-1,1.0,0.20470000000000255
390,16,0.5,1.0,-35.0,-1,1.0,0.23680000000013024
391,16,0.5,0.0,35.0,1,1.0,0.39239999999995234
392,16,0.5,0.0625,35.0,-1,0.0,0.2907999999999902
393,16,0.5,0.125,-35.0,-1,1.0,0.1993999999999687
394,16,0.5,0.25,-35.0,-1,1.0,0.2074000000000069
395,16,0.5,0.0625,-35.0,1,0.0,0.6358999999999924
396,16,0.5,0.0625,-35.0,-1,1.0,0.2842999999998028
397,16,0.5,0.125,-35.0,-1,1.0,0.23659999999995307
398,16,0.5,1.0,-35.0,-1,1.0,0.2341999999998734
399,16,0.5,0.25,35.0,1,1.0,0.16340000000013788
400,16,0.5,1.0,-35.0,-1,1.0,0.1750000000001819
401,16,0.5,1.0,35.0,1,1.0,0.19630000000006476
402,16,0.5,0.25,35.0,1,1.0,0.09210000000007312
403,16,0.5,1.0,-35.0,-1,1.0,0.19410000000016225
404,16,0.5,1.0,35.0,1,1.0,0.22499999999990905
405,16,0.5,0.25,-35.0,-1,1.0,0.1350999999999658
406,16,0.5,0.0,35.0,1,1.0,0.4449000000001888
407,16,0.5,0.125,35.0,1,1.0,0.14049999999997453
408,16,0.5,0.25,-35.0,-1,1.0,0.23289999999997235
409,16,0.5,1.0,35.0,1,1.0,0.4619000000000142
410,16,0.5,0.0625,35.0,-1,0.0,0.23660000000018044
411,16,0.5,0.25,-35.0,-1,1.0,0.2817999999999756
412,16,0.5,0.25,-35.0,-1,1.0,0.23699999999985266
413,16,0.5,0.25,35.0,1,1.0,0.15270000000009532
414,16,0.5,0.125,-35.0,1,0.0,0.1414999999999509
415,16,0.5,0.25,-35.0,-1,1.0,0.32110000000011496
416,16,0.5,0.125,-35.0,-1,1.0,0.20280000000002474
417,16,0.5,0.125,-35.0,-1,1.0,0.23839999999995598
418,16,0.5,0.0625,-35.0,-1,1.0,0.2964999999999236
419,16,0.5,1.0,-35.0,-1,1.0,0.18579899999986083
420,16,0.5,1.0,35.0,1,1.0,0.25080000000002656
421,16,0.5,0.0625,35.0,1,1.0,0.3829000000000633
422,16,0.5,0.25,35.0,1,1.0,0.33730000000014115
423,16,0.5,0.0625,35.0,1,1.0,0.30589999999983775
424,16,0.5,1.0,-35.0,-1,1.0,0.2481000000000222
425,16,0.5,0.0625,-35.0,1,0.0,0.5265999999999167
426,16,0.5,0.0625,-35.0,1,0.0,0.231899999999996
427,16,0.5,1.0,35.0,-1,0.0,0.300899999999956
428,16,0.6,1.0,-35.0,-1,1.0,0.20929999999998472
429,16,0.5,1.0,-35.0,-1,1.0,0.20489999999995234
430,16,0.5,0.125,-35.0,-1,1.0,0.2372000000002572
431,16,0.5,0.25,35.0,-1,0.0,0.22270000000003165
432,16,0.5,0.0625,35.0,1,1.0,0.2777000000000953
433,16,0.5,0.0625,35.0,1,1.0,0.34700000000020736
434,16,0.5,0.125,35.0,1,1.0,0.4153000000001157
435,16,0.5,0.25,-35.0,-1,1.0,0.23099999999999454
436,16,0.5,0.25,-35.0,-1,1.0,0.22830000000021755
437,16,0.5,1.0,-35.0,-1,1.0,0.24079999999980828
438,16,0.5,0.0,35.0,-1,0.0,0.22839999999996508
439,16,0.5,0.125,35.0,1,1.0,0.1373999999998432
440,16,0.5,0.25,35.0,1,1.0,0.19590000000016516
441,16,0.5,1.0,-35.0,-1,1.0,0.17880000000013752
442,16,0.5,1.0,35.0,1,1.0,0.2887000000000626
443,16,0.5,1.0,35.0,1,1.0,0.3204000000000633
444,16,0.5,0.0625,35.0,1,1.0,0.3927000000001044
445,16,0.5,1.0,35.0,1,1.0,0.31120000000009895
446,16,0.5,1.0,35.0,1,1.0,0.30719999999996617
447,16,0.5,1.0,-35.0,-1,1.0,0.18640000000004875
448,16,0.5,0.0,35.0,1,1.0,0.1350999999999658
449,16,0.5,0.0625,35.0,1,1.0,0.20760000000018408
450,16,0.5,0.0625,35.0,-1,0.0,0.1696999999999207
451,16,0.5,0.125,35.0,1,1.0,0.24530000000004293
452,16,0.5,1.0,-35.0,-1,1.0,0.17759899999987283
453,16,0.5,1.0,-35.0,-1,1.0,0.1894999999999527
454,16,0.5,0.0625,-35.0,-1,1.0,0.3449999999997999
455,16,0.5,0.0625,-35.0,-1,1.0,0.24279999999998836
456,16,0.5,0.0,35.0,1,1.0,0.2119000000000142
457,16,0.5,1.0,-35.0,-1,1.0,0.19369999999980791
458,16,0.5,0.25,-35.0,-1,1.0,0.265400000000227
459,16,0.5,0.25,35.0,1,1.0,0.3900000000003274
460,16,0.5,0.125,35.0,-1,0.0,0.21169999999983702
461,16,0.5,0.0625,35.0,1,1.0,0.3835000000008222
462,16,0.5,0.25,35.0,1,1.0,0.35240000000067084
463,16,0.5,0.125,-35.0,-1,1.0,0.18170000000054642
464,16,0.5,0.25,-35.0,1,0.0,0.15039999999999054
465,16,0.5,0.0,-35.0,1,0.0,0.6615000000001601
466,16,0.6,0.0,35.0,-1,0.0,0.2937000000001717
467,16,0.5,1.0,-35.0,-1,1.0,0.258900000000267
468,16,0.5,0.25,35.0,-1,0.0,0.37700000000040745
469,16,0.5,0.0625,-35.0,-1,1.0,0.2525000000005093
470,16,0.5,1.0,-35.0,-1,1.0,0.20820000000003347
471,16,0.5,0.25,35.0,-1,0.0,0.19059999999990396
472,16,0.5,0.125,35.0,1,1.0,1.0150000000003274
473,16,0.5,0.0625,-35.0,1,0.0,0.36040000000048167
474,16,0.4,0.0625,-35.0,1,0.0,0.46600000000034925
475,16,0.5,1.0,35.0,1,1.0,0.23739999999997963
476,16,0.5,0.125,-35.0,1,0.0,0.4427000000005137
477,16,0.5,0.125,-35.0,-1,1.0,0.5208000000002357
478,16,0.5,0.0,-35.0,-1,1.0,0.41990000000032524
479,16,0.5,0.0,35.0,-1,0.0,0.3514000000004671
480,16,0.5,0.0,35.0,1,1.0,0.47659999999996217
481,16,0.5,0.125,35.0,1,1.0,0.3451999999997497
482,16,0.5,0.125,-35.0,-1,1.0,0.23329999999987194
483,16,0.5,0.125,-35.0,-1,1.0,0.2857000000003609
484,16,0.5,0.125,35.0,1,1.0,0.2046000000004824
485,16,0.5,0.0625,35.0,1,1.0,0.21380000000044674
486,16,0.5,1.0,35.0,-1,0.0,0.25309999999990396
487,16,0.5,0.0625,-35.0,-1,1.0,0.3413000000005013
488,16,0.5,0.0625,-35.0,-1,1.0,0.3306999999999789
489,16,0.5,0.125,35.0,1,1.0,0.3420000000000982
490,16,0.5,0.0625,35.0,1,1.0,0.1077000000004773
491,16,0.5,0.125,35.0,-1,0.0,0.25650000000041473
492,16,0.4,0.125,35.0,1,1.0,0.3484000000003107
493,16,0.5,1.0,35.0,1,1.0,0.13730000000032305
494,16,0.5,0.25,-35.0,-1,1.0,0.28580000000056316
495,16,0.5,0.125,35.0,1,1.0,0.194100000000617
496,16,0.5,0.125,-35.0,1,0.0,0.15270000000055006
497,16,0.6,0.125,-35.0,1,0.0,0.5849000000002889
498,16,0.5,1.0,35.0,1,1.0,0.44660000000067157
499,16,0.5,0.25,-35.0,1,0.0,0.11530000000038854
500,16,0.5,0.125,-35.0,-1,1.0,0.14050000000042928
501,16,0.5,0.25,35.0,1,1.0,0.3923000000004322
502,16,0.5,0.0625,35.0,1,1.0,0.39800000000013824
503,16,0.5,0.125,35.0,-1,0.0,0.29370000000062646
504,16,0.5,0.125,35.0,-1,0.0,4.518900000000031
505,16,0.5,0.25,35.0,1,1.0,0.3435000000004038
506,16,0.5,0.125,35.0,1,1.0,0.3516000000004169
507,16,0.5,0.125,35.0,1,1.0,0.33080000000018117
508,16,0.5,0.25,35.0,1,1.0,0.45600000000013097
509,16,0.5,0.25,35.0,-1,0.0,0.9902999999999338
510,16,0.5,0.25,35.0,-1,0.0,0.7255000000000109
511,16,0.6,0.25,35.0,1,1.0,0.3006999999997788
512,16,0.5,1.0,-35.0,-1,1.0,0.1827000000002954
513,16,0.5,0.125,35.0,1,1.0,0.23470000000043
514,16,0.5,0.125,35.0,1,1.0,0.30010000000038417
515,16,0.5,0.0625,35.0,1,1.0,0.2732000000005428
516,16,0.5,0.0625,35.0,1,1.0,0.3745000000003529
517,16,0.5,0.0625,-35.0,1,0.0,0.5562000000004446
518,16,0.5,0.25,35.0,1,1.0,0.4249000000004344
519,16,0.5,0.0,-35.0,-1,1.0,0.25020000000040454
520,16,0.5,0.0625,-35.0,-1,1.0,0.3591000000005806
521,16,0.5,0.0625,-35.0,-1,1.0,0.2810000000004038
522,16,0.5,0.0625,-35.0,-1,1.0,0.15940000000045984
523,16,0.5,0.0625,-35.0,-1,1.0,0.1485000000002401
524,16,0.5,0.125,35.0,-1,0.0,0.14750000000003638
525,16,0.5,0.0625,-35.0,-1,1.0,0.2596000000003187
526,16,0.5,0.0625,35.0,1,1.0,0.4281000000005406
527,16,0.5,0.125,35.0,1,1.0,0.3634999999999309
528,16,0.5,1.0,35.0,1,1.0,0.2988000000004831
529,16,0.5,0.25,35.0,1,1.0,0.20710000000008222
530,16,0.5,1.0,-35.0,-1,1.0,0.21940000000040527
531,16,0.5,0.0,-35.0,-1,1.0,0.21860000000015134
532,16,0.5,1.0,-35.0,-1,1.0,0.22730000000001382
533,16,0.5,0.25,-35.0,-1,1.0,0.25260000000025684
534,16,0.5,0.0,-35.0,1,0.0,0.29490000000032524
535,16,0.5,0.125,35.0,1,1.0,1.0335999999997512
536,16,0.5,0.0625,-35.0,-1,1.0,0.3752990000002683
537,16,0.5,0.0,35.0,-1,0.0,0.15450000000009823
538,16,0.4,0.0,35.0,1,1.0,1.0829000000003361
539,16,0.5,1.0,35.0,1,1.0,0.4448000000002139
540,16,0.5,0.0,-35.0,-1,1.0,0.24710000000004584
541,16,0.5,0.25,-35.0,-1,1.0,0.27220000000033906
542,16,0.5,1.0,35.0,1,1.0,0.4505000000003747
543,16,0.5,0.0,35.0,1,1.0,0.4027000000000953
544,16,0.5,0.25,35.0,1,1.0,0.27470000000039363
545,16,0.5,1.0,35.0,1,1.0,0.32070000000021537
546,16,0.5,1.0,35.0,1,1.0,0.42870000000039
547,16,0.5,0.0,-35.0,1,0.0,0.1906000000003587
548,16,0.5,0.25,-35.0,-1,1.0,0.30280000000038854
549,16,0.5,0.25,35.0,-1,0.0,0.3249999999998181
550,16,0.5,0.0,35.0,-1,0.0,0.4131000000002132
551,16,0.5,0.0,35.0,-1,0.0,0.33809999999994034
552,16,0.6,0.0,-35.0,1,0.0,2.0702000000001135
553,16,0.5,1.0,35.0,1,1.0,0.34230000000070504
554,16,0.5,0.0625,35.0,1,1.0,0.3540000000002692
555,16,0.5,1.0,-35.0,-1,1.0,0.2163000000005013
556,16,0.5,0.25,-35.0,-1,1.0,0.21199999999998909
557,16,0.5,1.0,35.0,1,1.0,0.8644000000003871
558,16,0.5,0.0,-35.0,1,0.0,0.38970000000017535
559,16,0.5,0.25,35.0,1,1.0,0.3081999999999425
560,16,0.5,0.0625,35.0,1,1.0,0.8139000000005581
561,16,0.5,0.125,-35.0,-1,1.0,0.2858000000001084
562,16,0.5,1.0,-35.0,-1,1.0,0.2514000000001033
563,16,0.5,0.0625,-35.0,-1,1.0,0.11360000000013315
564,16,0.5,0.25,-35.0,-1,1.0,0.21600000000034925
565,16,0.5,0.0625,35.0,-1,0.0,0.3483000000001084
566,16,0.4,0.0625,35.0,1,1.0,0.5470000000000255
567,16,0.5,1.0,35.0,1,1.0,0.43890000000055807
568,16,0.5,1.0,-35.0,-1,1.0,0.21460000000024593
569,16,0.5,1.0,-35.0,-1,1.0,0.24710000000004584
570,16,0.5,0.0,35.0,-1,0.0,0.23250000000007276
571,16,0.5,0.25,35.0,-1,0.0,0.29450000000042564
572,16,0.5,0.125,-35.0,-1,1.0,0.2694000000001324
573,16,0.5,1.0,-35.0,-1,1.0,0.24160000000028958
574,16,0.5,0.0,-35.0,1,0.0,0.197400000000016
575,16,0.5,0.0,35.0,-1,0.0,0.23660000000018044
576,16,0.5,0.125,35.0,1,1.0,0.3146000000006097
577,16,0.5,0.0625,-35.0,1,0.0,0.5570000000002437
578,16,0.5,0.25,-35.0,-1,1.0,0.2721999999998843
579,16,0.5,0.25,-35.0,-1,1.0,0.25090000000000146
580,16,0.5,1.0,35.0,1,1.0,0.21230000000014115
581,16,0.5,0.0,35.0,1,1.0,0.14510000000018408
582,16,0.5,1.0,35.0,1,1.0,0.24650000000019645
583,16,0.5,0.0625,-35.0,-1,1.0,0.30940000000009604
584,16,0.5,1.0,-35.0,-1,1.0,0.3306999999999789
585,16,0.5,0.25,35.0,-1,0.0,0.16589999999996508
586,16,0.5,0.25,35.0,-1,0.0,0.4447000000004664
587,16,0.5,0.0,-35.0,-1,1.0,0.34369999999989886
588,16,0.5,1.0,-35.0,-1,1.0,0.2219000000000051
589,16,0.5,0.0625,35.0,1,1.0,0.30720000000019354
590,16,0.5,0.0,35.0,-1,0.0,0.17630000000008295
591,16,0.5,0.125,-35.0,-1,1.0,0.25460000000020955
592,16,0.5,0.0,-35.0,1,0.0,0.32009900000002744
593,16,0.2,0.0,35.0,1,1.0,0.43910000000050786
594,16,0.5,1.0,35.0,1,1.0,0.3305000000000291
595,16,0.5,0.0625,35.0,-1,0.0,0.1959000000006199
596,16,0.5,0.25,-35.0,-1,1.0,0.28929999999991196
597,16,0.5,0.25,-35.0,-1,1.0,2.1549000000004526
598,16,0.5,0.0625,35.0,-1,0.0,0.5394000000001142
599,16,0.5,0.0625,-35.0,-1,1.0,0.24440000000004147
600,16,0.5,1.0,35.0,1,1.0,0.40000000000009095
601,16,0.5,0.125,35.0,1,1.0,0.4286000000001877
602,16,0.5,0.0,-35.0,1,0.0,0.07769999999982247
603,16,0.5,0.0625,35.0,1,1.0,0.35980000000017753
604,16,0.5,0.25,-35.0,-1,1.0,0.12160000000039872
605,16,0.5,1.0,-35.0,-1,1.0,0.22420000000010987
606,16,0.5,0.25,35.0,1,1.0,0.2219000000000051
607,16,0.5,0.0,-35.0,1,0.0,0.3445000000001528
608,16,0.5,0.25,-35.0,-1,1.0,0.26279999999997017
609,16,0.5,0.25,35.0,1,1.0,0.8117000000002008
610,16,0.5,1.0,-35.0,-1,1.0,0.2136000000000422
611,16,0.5,1.0,-35.0,-1,1.0,0.17620000000033542
612,16,0.5,0.125,-35.0,-1,1.0,0.23760000000038417
613,16,0.5,1.0,35.0,1,1.0,0.3162999999999556
614,16,0.5,0.125,-35.0,-1,1.0,0.27210000000059154
615,16,0.5,0.0,-35.0,1,0.0,0.6302000000000589
616,16,0.5,0.0625,-35.0,-1,1.0,0.2955000000001746
617,16,0.5,1.0,-35.0,-1,1.0,0.17800000000033833
618,16,0.5,0.0625,-35.0,-1,1.0,0.2531000000003587
619,16,0.5,0.125,35.0,1,1.0,0.3253000000004249
620,16,0.5,0.125,-35.0,-1,1.0,0.2436000000002423
621,16,0.5,1.0,-35.0,-1,1.0,0.22250000000030923
622,16,0.5,0.0,35.0,-1,0.0,0.894900000000689
623,16,0.5,0.0,35.0,-1,0.0,0.9466000000002168
624,16,0.5,0.125,-35.0,-1,1.0,0.1184000000002925
625,16,0.5,0.125,35.0,-1,0.0,0.31179999999994834
626,16,0.1,0.125,35.0,-1,0.0,0.31260000000020227
627,16,0.5,1.0,-35.0,-1,1.0,0.17760000000043874
628,16,0.5,0.25,-35.0,-1,1.0,0.25240000000030705
629,16,0.5,1.0,-35.0,-1,1.0,0.1880999999998494
630,16,0.5,0.125,35.0,1,1.0,0.413300000000163
631,16,0.5,0.0625,-35.0,-1,1.0,0.22880000000031941
632,16,0.5,0.125,35.0,1,1.0,0.283900000000358
633,16,0.5,0.25,35.0,1,1.0,0.28310000000010405
634,16,0.5,0.0,35.0,1,1.0,0.46840000000020154
635,16,0.5,0.0625,35.0,1,1.0,0.453899999999976
636,16,0.5,0.125,-35.0,-1,1.0,0.2357999999999265
637,16,0.5,0.125,-35.0,-1,1.0,0.2151000000003478
638,16,0.5,0.0625,35.0,1,1.0,0.3366000000000895
639,16,0.5,0.125,35.0,-1,0.0,0.47200000000020736
640,16,0.6,0.125,35.0,-1,0.0,0.28700000000026193
641,16,0.5,1.0,35.0,1,1.0,0.42220000000043
642,16,0.5,0.0,35.0,-1,0.0,6.801300000000083
643,16,0.5,0.125,35.0,-1,0.0,0.5286000000000968
644,16,0.4,0.125,35.0,-1,0.0,1.5331000000005588
645,16,0.5,1.0,-35.0,-1,1.0,0.4753000000000611
646,16,0.5,0.25,-35.0,-1,1.0,0.22169899999971676
647,16,0.5,1.0,-35.0,-1,1.0,0.23100000000022192
648,16,0.5,0.125,35.0,1,1.0,0.3160000000002583
649,16,0.5,1.0,35.0,1,1.0,0.188600000000406
650,16,0.5,0.25,-35.0,-1,1.0,0.20390000000043074
651,16,0.5,1.0,35.0,1,1.0,0.35629999999991924
652,16,0.5,0.25,-35.0,-1,1.0,0.21540000000049986
653,16,0.5,1.0,-35.0,-1,1.0,0.20750000000043656
654,16,0.5,0.0,-35.0,1,0.0,0.266399999999976
655,16,0.5,0.0625,35.0,-1,0.0,3.6748999999999796
656,16,0.4,0.0625,35.0,1,1.0,8.022500000000036
657,16,0.5,1.0,-35.0,-1,1.0,0.19580000000041764
658,16,0.5,0.125,-35.0,-1,1.0,0.2814000000003034
659,16,0.5,0.25,35.0,-1,0.0,5.537300000000414
660,16,0.5,0.25,-35.0,-1,1.0,0.4207000000001244
661,16,0.5,0.0625,35.0,-1,0.0,2.1727999999998246
662,16,0.5,0.25,35.0,-1,0.0,6.043700000000172
663,16,0.5,0.125,-35.0,-1,1.0,0.2780999999999949
664,16,0.5,0.25,35.0,-1,0.0,9.582700000000386
665,16,0.5,0.0,35.0,-1,0.0,10.665300000000116
666,16,0.5,0.125,-35.0,-1,1.0,2.0932999999999993
667,16,0.5,0.25,-35.0,-1,1.0,0.18220000000019354
668,16,0.5,0.125,35.0,-1,0.0,0.6405000000004293
669,16,0.5,0.0625,35.0,-1,0.0,0.3087000000000444
670,16,0.5,0.0625,-35.0,-1,1.0,3.514600000000428
671,16,0.5,0.0625,-35.0,-1,1.0,10.938900000000103
672,16,0.5,0.25,-35.0,-1,1.0,0.2513000000003558
673,16,0.5,0.125,35.0,-1,0.0,0.490099999999984
674,16,0.5,0.125,-35.0,-1,1.0,0.5122000000001208
675,16,0.5,0.125,35.0,-1,0.0,1.2906000000007225
676,16,0.5,0.0625,-35.0,-1,1.0,7.3718000000003485
677,16,0.5,0.25,-35.0,-1,1.0,0.19820000000026994
678,16,0.5,0.0625,35.0,-1,0.0,5.5003999999999
679,16,0.5,0.125,35.0,-1,0.0,2.117399999999634
680,16,0.5,0.25,-35.0,-1,1.0,0.27210000000059154
681,16,0.5,0.125,-35.0,-1,1.0,0.3710000000000946
682,16,0.5,0.25,35.0,-1,0.0,2.942700000000059
683,16,0.5,0.0,-35.0,-1,1.0,0.26729999999997744
684,16,0.5,0.0625,-35.0,-1,1.0,0.30520000000024083
685,16,0.5,0.0625,35.0,-1,0.0,0.23740000000043437
686,16,0.5,0.0625,-35.0,-1,1.0,3.537800000000061
687,16,0.5,0.0,-35.0,-1,1.0,3.672299999999723
688,16,0.5,0.0625,-35.0,-1,1.0,7.973500000000513
689,16,0.5,1.0,-35.0,-1,1.0,0.21330000000034488
690,16,0.5,0.0,35.0,-1,0.0,0.32540000000017244
691,16,0.5,0.0625,-35.0,-1,1.0,4.514300000000276
1,17,0.5,0.125,-35.0,-1,1.0,
2,17,0.5,1.0,35.0,1,1.0,
3,17,0.5,0.0625,35.0,1,1.0,
4,17,0.5,1.0,-35.0,-1,1.0,
5,17,0.5,0.0625,-35.0,-1,1.0,
6,17,0.5,0.125,-35.0,-1,1.0,
7,17,0.5,0.125,35.0,1,1.0,
8,17,0.5,0.125,-35.0,-1,1.0,
9,17,0.5,1.0,-35.0,-1,1.0,
10,17,0.5,0.0625,35.0,1,1.0,
11,17,0.5,0.25,35.0,1,1.0,
12,17,0.5,0.0,35.0,1,1.0,
13,17,0.5,0.125,35.0,1,1.0,
14,17,0.5,0.0,35.0,1,1.0,
15,17,0.5,0.25,-35.0,-1,1.0,
16,17,0.5,0.125,-35.0,1,0.0,
17,17,0.7,0.125,35.0,1,1.0,
18,17,0.5,1.0,35.0,1,1.0,
19,17,0.5,0.125,-35.0,-1,1.0,
20,17,0.5,0.125,-35.0,-1,1.0,
21,17,0.5,1.0,-35.0,-1,1.0,
22,17,0.5,0.25,35.0,1,1.0,
23,17,0.5,1.0,-35.0,-1,1.0,
24,17,0.5,1.0,-35.0,-1,1.0,
25,17,0.5,0.25,-35.0,-1,1.0,
26,17,0.5,0.25,-35.0,-1,1.0,
27,17,0.5,1.0,35.0,1,1.0,
28,17,0.5,0.25,-35.0,-1,1.0,
29,17,0.5,0.0,-35.0,-1,1.0,
30,17,0.5,1.0,35.0,1,1.0,
31,17,0.5,0.25,-35.0,-1,1.0,
32,17,0.5,1.0,-35.0,-1,1.0,
33,17,0.5,1.0,-35.0,-1,1.0,
34,17,0.5,0.0,35.0,1,1.0,
35,17,0.5,0.25,-35.0,-1,1.0,
36,17,0.5,1.0,-35.0,-1,1.0,
37,17,0.5,0.0,-35.0,-1,1.0,
38,17,0.5,1.0,-35.0,-1,1.0,
39,17,0.5,0.125,-35.0,-1,1.0,
40,17,0.5,1.0,-35.0,-1,1.0,
41,17,0.5,1.0,35.0,1,1.0,
42,17,0.5,0.125,35.0,1,1.0,
43,17,0.5,1.0,-35.0,-1,1.0,
44,17,0.5,0.125,35.0,1,1.0,
45,17,0.5,1.0,35.0,1,1.0,
46,17,0.5,0.25,-35.0,1,0.0,
47,17,0.5,0.25,35.0,1,1.0,
48,17,0.5,1.0,-35.0,1,0.0,
49,17,0.5,0.25,-35.0,-1,1.0,
50,17,0.5,0.25,35.0,1,1.0,
51,17,0.5,0.125,35.0,1,1.0,
52,17,0.5,0.125,35.0,1,1.0,
53,17,0.5,0.25,-35.0,-1,1.0,
54,17,0.5,0.0625,35.0,1,1.0,
55,17,0.5,0.125,35.0,1,1.0,
56,17,0.5,0.25,-35.0,-1,1.0,
57,17,0.5,0.0625,35.0,1,1.0,
58,17,0.5,0.125,-35.0,-1,1.0,
59,17,0.5,0.25,35.0,1,1.0,
60,17,0.5,0.125,35.0,1,1.0,
61,17,0.5,1.0,-35.0,-1,1.0,
62,17,0.5,0.0,-35.0,1,0.0,
63,17,0.6,0.0,-35.0,1,0.0,
64,17,0.5,1.0,35.0,1,1.0,
65,17,0.5,0.125,35.0,1,1.0,
66,17,0.5,0.0625,35.0,1,1.0,
67,17,0.5,1.0,35.0,1,1.0,
68,17,0.5,0.25,35.0,1,1.0,
69,17,0.5,1.0,-35.0,-1,1.0,
70,17,0.5,0.25,-35.0,-1,1.0,
71,17,0.5,0.0,35.0,1,1.0,
72,17,0.5,1.0,-35.0,1,0.0,
73,17,0.8,1.0,35.0,1,1.0,
74,17,0.5,1.0,35.0,1,1.0,
75,17,0.5,0.25,35.0,1,1.0,
76,17,0.5,0.125,35.0,1,1.0,
77,17,0.5,0.25,-35.0,1,0.0,
78,17,0.5,0.25,-35.0,-1,1.0,
79,17,0.5,0.0625,35.0,1,1.0,
80,17,0.5,0.0625,-35.0,1,0.0,
81,17,0.5,0.125,35.0,1,1.0,
82,17,0.5,0.125,35.0,1,1.0,
83,17,0.5,0.0,35.0,1,1.0,
84,17,0.5,0.0,35.0,1,1.0,
85,17,0.5,0.25,-35.0,-1,1.0,
86,17,0.5,0.125,-35.0,-1,1.0,
87,17,0.5,0.0,35.0,-1,0.0,
88,17,0.5,0.0,35.0,1,1.0,
89,17,0.5,0.125,35.0,1,1.0,
90,17,0.5,0.0625,35.0,1,1.0,
91,17,0.5,0.25,-35.0,-1,1.0,
92,17,0.5,0.25,35.0,1,1.0,
93,17,0.5,0.25,35.0,1,1.0,
94,17,0.5,0.125,35.0,1,1.0,
95,17,0.5,1.0,35.0,1,1.0,
96,17,0.5,0.25,35.0,1,1.0,
97,17,0.5,0.125,35.0,-1,0.0,
98,17,0.5,0.25,-35.0,-1,1.0,
99,17,0.5,0.125,35.0,1,1.0,
100,17,0.5,1.0,-35.0,-1,1.0,
101,17,0.5,0.125,-35.0,-1,1.0,
102,17,0.5,0.125,-35.0,1,0.0,
103,17,0.5,0.125,35.0,1,1.0,
104,17,0.5,0.125,35.0,1,1.0,
105,17,0.5,0.0625,35.0,1,1.0,
106,17,0.5,0.25,-35.0,1,0.0,
107,17,0.5,0.25,-35.0,1,0.0,
108,17,0.5,0.25,35.0,1,1.0,
109,17,0.5,0.25,-35.0,-1,1.0,
110,17,0.5,0.0,35.0,1,1.0,
111,17,0.5,0.125,35.0,1,1.0,
112,17,0.5,0.25,35.0,1,1.0,
113,17,0.5,1.0,-35.0,-1,1.0,
114,17,0.5,0.0,-35.0,1,0.0,
115,17,0.5,0.0625,35.0,1,1.0,
116,17,0.5,0.0625,-35.0,1,0.0,
117,17,0.5,0.125,35.0,1,1.0,
118,17,0.5,1.0,-35.0,-1,1.0,
119,17,0.5,0.0,35.0,1,1.0,
120,17,0.5,1.0,35.0,1,1.0,
121,17,0.5,0.0625,-35.0,1,0.0,
122,17,0.5,0.0,-35.0,1,0.0,
123,17,0.5,0.25,35.0,1,1.0,
124,17,0.5,0.125,-35.0,1,0.0,
125,17,0.5,0.125,35.0,1,1.0,
126,17,0.5,0.25,-35.0,1,0.0,
127,17,0.9,0.25,-35.0,-1,1.0,
128,17,0.5,1.0,-35.0,1,0.0,
129,17,0.5,0.0625,-35.0,1,0.0,
130,17,0.5,0.25,-35.0,1,0.0,
131,17,0.5,0.25,-35.0,-1,1.0,
132,17,0.5,0.0,-35.0,1,0.0,
133,17,0.5,0.125,-35.0,1,0.0,
134,17,0.8,0.125,-35.0,-1,1.0,
135,17,0.5,1.0,-35.0,-1,1.0,
136,17,0.5,0.125,35.0,1,1.0,
137,17,0.5,0.125,35.0,1,1.0,
138,17,0.5,0.125,-35.0,-1,1.0,
139,17,0.5,0.25,35.0,1,1.0,
140,17,0.5,1.0,35.0,1,1.0,
141,17,0.5,0.125,35.0,-1,0.0,
142,17,0.5,0.25,-35.0,-1,1.0,
143,17,0.5,0.125,35.0,1,1.0,
144,17,0.5,0.25,35.0,1,1.0,
145,17,0.5,0.25,-35.0,-1,1.0,
146,17,0.5,0.25,-35.0,-1,1.0,
147,17,0.5,0.25,35.0,1,1.0,
148,17,0.5,0.125,-35.0,-1,1.0,
149,17,0.5,0.0625,35.0,1,1.0,
150,17,0.5,1.0,-35.0,-1,1.0,
151,17,0.5,0.0,-35.0,1,0.0,
152,17,0.5,0.0625,35.0,1,1.0,
153,17,0.5,0.25,35.0,1,1.0,
154,17,0.5,0.25,-35.0,-1,1.0,
155,17,0.5,0.125,35.0,1,1.0,
156,17,0.5,1.0,35.0,1,1.0,
157,17,0.5,0.25,35.0,1,1.0,
158,17,0.5,0.25,-35.0,-1,1.0,
159,17,0.5,0.125,35.0,1,1.0,
160,17,0.5,1.0,35.0,1,1.0,
161,17,0.5,0.0,-35.0,1,0.0,
162,17,0.8,0.0,-35.0,1,0.0,
163,17,0.5,1.0,-35.0,-1,1.0,
164,17,0.5,1.0,35.0,1,1.0,
165,17,0.5,1.0,-35.0,-1,1.0,
166,17,0.5,0.25,35.0,1,1.0,
167,17,0.5,0.0625,35.0,1,1.0,
168,17,0.5,0.0625,35.0,1,1.0,
169,17,0.5,1.0,-35.0,-1,1.0,
170,17,0.5,0.125,-35.0,-1,1.0,
171,17,0.5,0.0,35.0,1,1.0,
172,17,0.5,0.0625,35.0,1,1.0,
173,17,0.5,0.25,35.0,1,1.0,
174,17,0.5,1.0,-35.0,-1,1.0,
175,17,0.5,0.0625,35.0,1,1.0,
176,17,0.5,0.0625,-35.0,1,0.0,
177,17,0.5,0.125,35.0,1,1.0,
178,17,0.5,0.25,-35.0,-1,1.0,
179,17,0.5,0.125,-35.0,-1,1.0,
180,17,0.5,0.0,-35.0,1,0.0,
181,17,0.7,0.0,-35.0,1,0.0,
182,17,0.5,1.0,-35.0,-1,1.0,
183,17,0.5,0.0,-35.0,1,0.0,
184,17,0.5,0.25,35.0,1,1.0,
185,17,0.5,0.25,-35.0,-1,1.0,
186,17,0.5,0.25,-35.0,-1,1.0,
187,17,0.5,1.0,-35.0,-1,1.0,
188,17,0.5,0.0625,35.0,1,1.0,
189,17,0.5,0.25,-35.0,-1,1.0,
190,17,0.5,0.125,35.0,-1,0.0,
191,17,0.4,0.125,-35.0,1,0.0,
192,17,0.5,1.0,-35.0,-1,1.0,
193,17,0.5,1.0,35.0,1,1.0,
194,17,0.5,0.125,35.0,1,1.0,
195,17,0.5,0.125,-35.0,1,0.0,
196,17,0.5,0.125,35.0,1,1.0,
197,17,0.5,0.0,35.0,-1,0.0,
198,17,0.6,0.0,35.0,1,1.0,
199,17,0.5,1.0,-35.0,-1,1.0,
200,17,0.5,1.0,-35.0,-1,1.0,
201,17,0.5,1.0,-35.0,-1,1.0,
202,17,0.5,0.0625,-35.0,1,0.0,
203,17,0.5,0.0,35.0,1,1.0,
204,17,0.5,1.0,-35.0,-1,1.0,
205,17,0.5,1.0,-35.0,1,0.0,
206,17,0.5,0.25,-35.0,-1,1.0,
207,17,0.5,0.25,-35.0,-1,1.0,
208,17,0.5,0.25,35.0,1,1.0,
209,17,0.5,1.0,-35.0,-1,1.0,
210,17,0.5,0.0625,-35.0,1,0.0,
211,17,0.5,0.0625,-35.0,-1,1.0,
212,17,0.5,1.0,-35.0,-1,1.0,
213,17,0.5,0.125,-35.0,-1,1.0,
214,17,0.5,1.0,35.0,1,1.0,
215,17,0.5,0.125,35.0,1,1.0,
216,17,0.5,0.25,-35.0,1,0.0,
217,17,0.5,0.25,-35.0,-1,1.0,
218,17,0.5,1.0,-35.0,-1,1.0,
219,17,0.5,0.0625,-35.0,1,0.0,
220,17,0.5,0.25,-35.0,-1,1.0,
221,17,0.5,0.0625,-35.0,-1,1.0,
222,17,0.5,0.0625,35.0,1,1.0,
223,17,0.5,0.125,-35.0,-1,1.0,
224,17,0.5,0.125,35.0,1,1.0,
225,17,0.5,0.25,-35.0,1,0.0,
226,17,0.5,0.25,-35.0,1,0.0,
227,17,0.5,0.25,35.0,1,1.0,
228,17,0.5,0.125,-35.0,-1,1.0,
229,17,0.5,0.0,-35.0,-1,1.0,
230,17,0.5,1.0,35.0,-1,0.0,
231,17,0.5,0.0625,35.0,1,1.0,
232,17,0.5,0.25,-35.0,-1,1.0,
233,17,0.5,0.25,35.0,1,1.0,
234,17,0.5,1.0,35.0,1,1.0,
235,17,0.5,1.0,-35.0,-1,1.0,
236,17,0.5,0.125,-35.0,-1,1.0,
237,17,0.5,0.125,35.0,1,1.0,
238,17,0.5,0.0625,35.0,-1,0.0,
239,17,0.5,0.0,-35.0,1,0.0,
240,17,0.5,0.0625,-35.0,1,0.0,
241,17,0.5,0.25,-35.0,-1,1.0,
242,17,0.5,0.25,35.0,1,1.0,
243,17,0.5,0.0625,35.0,1,1.0,
244,17,0.5,0.0625,35.0,1,1.0,
245,17,0.5,0.0625,-35.0,-1,1.0,
246,17,0.5,0.25,-35.0,-1,1.0,
247,17,0.5,0.125,-35.0,-1,1.0,
248,17,0.5,0.25,35.0,1,1.0,
249,17,0.5,0.125,-35.0,-1,1.0,
250,17,0.5,0.125,-35.0,-1,1.0,
251,17,0.5,1.0,35.0,1,1.0,
252,17,0.5,0.125,-35.0,-1,1.0,
253,17,0.5,0.0625,35.0,1,1.0,
254,17,0.5,0.25,-35.0,-1,1.0,
255,17,0.5,0.0,-35.0,-1,1.0,
256,17,0.5,0.125,35.0,1,1.0,
257,17,0.5,0.0625,-35.0,-1,1.0,
258,17,0.5,1.0,35.0,1,1.0,
259,17,0.5,1.0,-35.0,-1,1.0,
260,17,0.5,1.0,35.0,1,1.0,
261,17,0.5,0.0625,35.0,1,1.0,
262,17,0.5,0.0625,-35.0,-1,1.0,
263,17,0.5,0.125,35.0,1,1.0,
264,17,0.5,1.0,35.0,1,1.0,
265,17,0.5,0.0,-35.0,1,0.0,
266,17,0.5,0.0625,35.0,1,1.0,
267,17,0.5,0.0,35.0,1,1.0,
268,17,0.5,0.0625,35.0,1,1.0,
269,17,0.5,0.0,35.0,1,1.0,
270,17,0.5,0.25,-35.0,-1,1.0,
271,17,0.5,1.0,35.0,1,1.0,
272,17,0.5,1.0,-35.0,-1,1.0,
273,17,0.5,0.25,-35.0,-1,1.0,
274,17,0.5,0.125,35.0,1,1.0,
275,17,0.5,1.0,35.0,1,1.0,
276,17,0.5,0.25,-35.0,1,0.0,
277,17,0.5,0.0,35.0,-1,0.0,
278,17,0.5,0.25,35.0,1,1.0,
279,17,0.5,0.25,-35.0,-1,1.0,
280,17,0.5,0.25,-35.0,1,0.0,
281,17,0.5,0.125,-35.0,-1,1.0,
282,17,0.5,0.125,-35.0,-1,1.0,
283,17,0.5,0.125,-35.0,-1,1.0,
284,17,0.5,1.0,35.0,1,1.0,
285,17,0.5,0.0,-35.0,1,0.0,
286,17,0.5,0.0,35.0,-1,0.0,
287,17,0.5,1.0,35.0,1,1.0,
288,17,0.5,0.0625,-35.0,1,0.0,
289,17,0.5,0.125,-35.0,-1,1.0,
290,17,0.5,0.125,-35.0,-1,1.0,
291,17,0.5,0.125,35.0,1,1.0,
292,17,0.5,0.25,35.0,1,1.0,
293,17,0.5,0.0625,-35.0,1,0.0,
294,17,0.5,0.25,-35.0,-1,1.0,
295,17,0.5,0.0625,-35.0,-1,1.0,
296,17,0.5,0.125,-35.0,1,0.0,
297,17,0.5,0.25,35.0,1,1.0,
298,17,0.5,1.0,35.0,1,1.0,
299,17,0.5,0.25,35.0,1,1.0,
300,17,0.5,0.0625,35.0,1,1.0,
301,17,0.5,0.25,-35.0,-1,1.0,
302,17,0.5,1.0,35.0,1,1.0,
303,17,0.5,0.25,35.0,1,1.0,
304,17,0.5,0.0625,35.0,1,1.0,
305,17,0.5,0.125,35.0,1,1.0,
306,17,0.5,0.0625,-35.0,-1,1.0,
307,17,0.5,1.0,-35.0,-1,1.0,
308,17,0.5,0.25,35.0,1,1.0,
309,17,0.5,1.0,35.0,1,1.0,
310,17,0.5,1.0,35.0,1,1.0,
311,17,0.5,0.125,-35.0,-1,1.0,
312,17,0.5,0.125,-35.0,-1,1.0,
313,17,0.5,0.25,35.0,1,1.0,
314,17,0.5,1.0,35.0,1,1.0,
315,17,0.5,0.125,35.0,1,1.0,
316,17,0.5,0.125,35.0,1,1.0,
317,17,0.5,0.25,-35.0,1,0.0,
318,17,0.5,0.0625,35.0,1,1.0,
319,17,0.5,0.125,-35.0,-1,1.0,
320,17,0.5,1.0,-35.0,-1,1.0,
321,17,0.5,0.125,-35.0,-1,1.0,
322,17,0.5,0.0625,-35.0,1,0.0,
323,17,0.5,0.25,35.0,1,1.0,
324,17,0.5,0.0625,35.0,1,1.0,
325,17,0.5,0.125,35.0,1,1.0,
326,17,0.5,0.125,35.0,1,1.0,
327,17,0.5,0.0625,-35.0,-1,1.0,
328,17,0.5,0.0625,-35.0,1,0.0,
329,17,0.5,0.0625,-35.0,-1,1.0,
330,17,0.5,0.25,-35.0,-1,1.0,
331,17,0.5,1.0,-35.0,-1,1.0,
332,17,0.5,0.125,-35.0,-1,1.0,
333,17,0.5,0.125,-35.0,-1,1.0,
334,17,0.5,0.0,35.0,1,1.0,
335,17,0.5,0.25,35.0,1,1.0,
336,17,0.5,0.125,35.0,1,1.0,
337,17,0.5,0.0625,35.0,1,1.0,
338,17,0.5,0.0625,-35.0,1,0.0,
339,17,0.5,0.0625,35.0,1,1.0,
340,17,0.5,0.25,-35.0,-1,1.0,
341,17,0.5,0.125,35.0,-1,0.0,
342,17,0.6,0.125,-35.0,1,0.0,
343,17,0.5,1.0,-35.0,-1,1.0,
344,17,0.5,1.0,35.0,1,1.0,
345,17,0.5,0.125,35.0,1,1.0,
346,17,0.5,1.0,35.0,1,1.0,
347,17,0.5,0.125,35.0,1,1.0,
348,17,0.5,0.125,-35.0,1,0.0,
349,17,0.5,0.125,35.0,1,1.0,
350,17,0.5,1.0,-35.0,-1,1.0,
351,17,0.5,0.25,35.0,1,1.0,
352,17,0.5,1.0,35.0,1,1.0,
353,17,0.5,0.25,-35.0,-1,1.0,
354,17,0.5,0.25,-35.0,-1,1.0,
355,17,0.5,1.0,-35.0,-1,1.0,
356,17,0.5,0.0625,-35.0,1,0.0,
357,17,0.5,0.0625,35.0,1,1.0,
358,17,0.5,1.0,35.0,1,1.0,
359,17,0.5,0.0625,35.0,1,1.0,
360,17,0.5,0.0,-35.0,1,0.0,
361,17,0.5,0.0625,35.0,1,1.0,
362,17,0.5,0.125,-35.0,-1,1.0,
363,17,0.5,0.0,-35.0,1,0.0,
364,17,0.5,0.125,35.0,1,1.0,
365,17,0.5,0.0625,35.0,1,1.0,
366,17,0.5,0.0,35.0,1,1.0,
367,17,0.5,1.0,-35.0,-1,1.0,
368,17,0.5,0.125,-35.0,1,0.0,
369,17,0.8,0.125,-35.0,-1,1.0,
370,17,0.5,1.0,-35.0,1,0.0,
371,17,0.5,0.25,-35.0,-1,1.0,
372,17,0.5,0.0625,-35.0,1,0.0,
373,17,0.7,0.0625,35.0,1,1.0,
374,17,0.5,1.0,-35.0,-1,1.0,
375,17,0.5,0.125,35.0,1,1.0,
376,17,0.5,0.25,-35.0,-1,1.0,
377,17,0.5,0.0625,35.0,1,1.0,
378,17,0.5,0.25,35.0,1,1.0,
379,17,0.5,1.0,-35.0,1,0.0,
380,17,0.7,1.0,-35.0,-1,1.0,
381,17,0.5,1.0,-35.0,-1,1.0,
382,17,0.5,0.0625,35.0,1,1.0,
383,17,0.5,1.0,35.0,1,1.0,
384,17,0.5,1.0,-35.0,1,0.0,
385,17,0.5,0.125,-35.0,1,0.0,
386,17,0.5,0.25,-35.0,-1,1.0,
387,17,0.5,1.0,-35.0,-1,1.0,
388,17,0.5,0.0625,-35.0,1,0.0,
389,17,0.6,0.0625,35.0,1,1.0,
390,17,0.5,1.0,-35.0,-1,1.0,
391,17,0.5,0.25,35.0,1,1.0,
392,17,0.5,1.0,35.0,-1,0.0,
393,17,0.6,1.0,-35.0,-1,1.0,
394,17,0.5,1.0,35.0,1,1.0,
395,17,0.5,0.125,35.0,1,1.0,
396,17,0.5,0.0625,35.0,1,1.0,
397,17,0.5,0.0625,35.0,1,1.0,
398,17,0.5,0.0625,-35.0,1,0.0,
399,17,0.5,0.125,-35.0,-1,1.0,
400,17,0.5,0.0625,35.0,1,1.0,
401,17,0.5,0.25,-35.0,1,0.0,
402,17,0.7,0.25,-35.0,-1,1.0,
403,17,0.5,1.0,-35.0,-1,1.0,
404,17,0.5,0.0625,-35.0,1,0.0,
405,17,0.5,0.125,-35.0,-1,1.0,
406,17,0.5,1.0,-35.0,-1,1.0,
407,17,0.5,0.0625,-35.0,-1,1.0,
408,17,0.5,0.125,-35.0,1,0.0,
409,17,0.5,0.0,-35.0,1,0.0,
410,17,0.5,0.125,-35.0,-1,1.0,
411,17,0.5,0.25,35.0,1,1.0,
412,17,0.5,0.125,35.0,1,1.0,
413,17,0.5,0.25,-35.0,-1,1.0,
414,17,0.5,1.0,-35.0,-1,1.0,
415,17,0.5,0.0625,35.0,1,1.0,
416,17,0.5,0.0625,35.0,1,1.0,
417,17,0.5,1.0,-35.0,-1,1.0,
418,17,0.5,1.0,-35.0,-1,1.0,
419,17,0.5,0.25,-35.0,-1,1.0,
420,17,0.5,0.125,35.0,1,1.0,
421,17,0.5,0.0625,-35.0,1,0.0,
422,17,0.5,0.0625,35.0,1,1.0,
423,17,0.5,0.0,-35.0,1,0.0,
424,17,0.5,0.0625,35.0,1,1.0,
425,17,0.5,0.25,-35.0,-1,1.0,
426,17,0.5,0.0625,35.0,1,1.0,
427,17,0.5,0.125,-35.0,1,0.0,
428,17,0.7,0.125,35.0,1,1.0,
429,17,0.5,1.0,35.0,1,1.0,
430,17,0.5,0.0625,35.0,1,1.0,
431,17,0.5,1.0,35.0,1,1.0,
432,17,0.5,0.25,35.0,1,1.0,
433,17,0.5,0.0625,35.0,1,1.0,
434,17,0.5,0.125,35.0,1,1.0,
435,17,0.5,0.125,-35.0,1,0.0,
436,17,0.5,0.0625,-35.0,1,0.0,
437,17,1.0,0.0625,-35.0,1,0.0,
438,17,0.5,1.0,-35.0,-1,1.0,
439,17,0.5,0.0625,-35.0,-1,1.0,
440,17,0.5,0.25,35.0,1,1.0,
441,17,0.5,0.25,35.0,1,1.0,
442,17,0.5,1.0,-35.0,1,0.0,
443,17,0.5,0.0625,-35.0,1,0.0,
444,17,0.8,0.0625,-35.0,-1,1.0,
445,17,0.5,1.0,-35.0,-1,1.0,
446,17,0.5,0.0625,-35.0,-1,1.0,
447,17,0.5,1.0,-35.0,-1,1.0,
448,17,0.5,0.125,-35.0,1,0.0,
449,17,0.5,0.125,-35.0,-1,1.0,
450,17,0.5,0.0625,35.0,1,1.0,
451,17,0.5,0.0625,35.0,1,1.0,
452,17,0.5,0.0625,35.0,-1,0.0,
453,17,0.5,0.25,35.0,1,1.0,
454,17,0.5,1.0,35.0,1,1.0,
455,17,0.5,0.25,-35.0,-1,1.0,
456,17,0.5,1.0,35.0,1,1.0,
457,17,0.5,0.0,35.0,1,1.0,
458,17,0.5,0.25,-35.0,-1,1.0,
459,17,0.5,1.0,-35.0,-1,1.0,
460,17,0.5,1.0,-35.0,-1,1.0,
461,17,0.5,0.125,35.0,1,1.0,
462,17,0.5,0.0,-35.0,1,0.0,
463,17,0.5,0.0,-35.0,1,0.0,
464,17,0.5,0.25,35.0,1,1.0,
465,17,0.5,0.25,-35.0,-1,1.0,
466,17,0.5,0.0625,35.0,1,1.0,
467,17,0.5,0.25,35.0,1,1.0,
468,17,0.5,1.0,35.0,1,1.0,
469,17,0.5,1.0,-35.0,-1,1.0,
470,17,0.5,1.0,35.0,1,1.0,
471,17,0.5,0.0,35.0,-1,0.0,
472,17,0.5,0.125,35.0,1,1.0,
473,17,0.5,0.0625,35.0,1,1.0,
474,17,0.5,0.125,35.0,1,1.0,
475,17,0.5,0.125,-35.0,1,0.0,
476,17,0.5,0.0,35.0,-1,0.0,
477,17,0.5,0.125,-35.0,-1,1.0,
478,17,0.5,0.0625,-35.0,-1,1.0,
479,17,0.5,0.0625,35.0,1,1.0,
480,17,0.5,0.25,-35.0,1,0.0,
481,17,0.6,0.25,-35.0,1,0.0,
482,17,0.5,1.0,-35.0,-1,1.0,
483,17,0.5,0.25,35.0,1,1.0,
484,17,0.5,0.125,35.0,1,1.0,
485,17,0.5,1.0,35.0,1,1.0,
486,17,0.5,0.0,-35.0,1,0.0,
487,17,0.5,0.25,35.0,1,1.0,
488,17,0.5,0.125,-35.0,-1,1.0,
489,17,0.5,0.0625,35.0,1,1.0,
490,17,0.5,0.25,-35.0,-1,1.0,
491,17,0.5,1.0,35.0,-1,0.0,
492,17,0.5,0.125,-35.0,-1,1.0,
493,17,0.5,0.0625,35.0,1,1.0,
494,17,0.5,0.0,-35.0,1,0.0,
495,17,0.6,0.0,-35.0,1,0.0,
496,17,0.5,1.0,-35.0,-1,1.0,
497,17,0.5,0.25,-35.0,-1,1.0,
498,17,0.5,0.0625,-35.0,1,0.0,
499,17,0.5,0.125,35.0,1,1.0,
500,17,0.5,0.0625,-35.0,1,0.0,
501,17,0.6,0.0625,-35.0,1,0.0,
502,17,0.5,1.0,-35.0,-1,1.0,
503,17,0.5,0.25,-35.0,-1,1.0,
504,17,0.5,0.0625,-35.0,1,0.0,
505,17,0.6,0.0625,35.0,1,1.0,
506,17,0.5,1.0,-35.0,-1,1.0,
507,17,0.5,0.125,35.0,1,1.0,
508,17,0.5,0.125,-35.0,-1,1.0,
509,17,0.5,0.25,35.0,1,1.0,
510,17,0.5,0.25,35.0,1,1.0,
511,17,0.5,0.25,35.0,-1,0.0,
512,17,0.5,0.125,35.0,1,1.0,
513,17,0.5,0.125,35.0,1,1.0,
514,17,0.5,0.25,35.0,1,1.0,
515,17,0.5,0.0,35.0,1,1.0,
516,17,0.5,0.0625,35.0,1,1.0,
517,17,0.5,0.25,35.0,1,1.0,
518,17,0.5,0.125,-35.0,-1,1.0,
519,17,0.5,0.125,35.0,1,1.0,
520,17,0.5,0.0625,35.0,1,1.0,
521,17,0.5,1.0,35.0,1,1.0,
522,17,0.5,0.0,-35.0,1,0.0,
523,17,0.5,0.0625,-35.0,1,0.0,
524,17,0.5,0.0625,-35.0,-1,1.0,
525,17,0.5,0.0625,35.0,1,1.0,
526,17,0.5,0.125,-35.0,1,0.0,
527,17,0.5,0.0,-35.0,1,0.0,
528,17,0.5,0.25,-35.0,-1,1.0,
529,17,0.5,1.0,35.0,1,1.0,
530,17,0.5,0.0625,-35.0,-1,1.0,
531,17,0.5,0.125,35.0,1,1.0,
532,17,0.5,0.25,-35.0,-1,1.0,
533,17,0.5,0.25,35.0,1,1.0,
534,17,0.5,0.0625,35.0,1,1.0,
535,17,0.5,0.25,35.0,1,1.0,
536,17,0.5,0.0,-35.0,1,0.0,
537,17,0.5,0.25,35.0,1,1.0,
538,17,0.5,0.25,-35.0,-1,1.0,
539,17,0.5,0.125,35.0,1,1.0,
540,17,0.5,1.0,-35.0,-1,1.0,
541,17,0.5,0.0625,35.0,1,1.0,
542,17,0.5,0.125,-35.0,-1,1.0,
543,17,0.5,0.0625,35.0,1,1.0,
544,17,0.5,1.0,35.0,1,1.0,
545,17,0.5,0.25,-35.0,-1,1.0,
546,17,0.5,0.125,35.0,1,1.0,
547,17,0.5,0.125,35.0,1,1.0,
548,17,0.5,1.0,-35.0,-1,1.0,
549,17,0.5,0.0,35.0,1,1.0,
550,17,0.5,1.0,35.0,-1,0.0,
551,17,0.6,1.0,35.0,1,1.0,
552,17,0.5,1.0,35.0,1,1.0,
553,17,0.5,0.0,35.0,-1,0.0,
554,17,0.5,0.125,35.0,-1,0.0,
555,17,0.5,0.125,-35.0,-1,1.0,
556,17,0.5,0.125,-35.0,1,0.0,
557,17,0.5,0.0625,35.0,1,1.0,
558,17,0.5,0.0625,-35.0,-1,1.0,
559,17,0.5,0.25,35.0,1,1.0,
560,17,0.5,0.25,35.0,1,1.0,
561,17,0.5,0.125,35.0,1,1.0,
562,17,0.5,0.0625,35.0,1,1.0,
563,17,0.5,0.125,35.0,1,1.0,
564,17,0.5,0.125,-35.0,-1,1.0,
565,17,0.5,0.0,-35.0,1,0.0,
566,17,0.5,0.125,-35.0,-1,1.0,
567,17,0.5,0.25,35.0,1,1.0,
568,17,0.5,0.125,35.0,1,1.0,
569,17,0.5,1.0,-35.0,-1,1.0,
570,17,0.5,0.0,35.0,1,1.0,
571,17,0.5,1.0,35.0,1,1.0,
572,17,0.5,0.25,-35.0,-1,1.0,
573,17,0.5,0.0625,-35.0,1,0.0,
574,17,0.6,0.0625,-35.0,1,0.0,
575,17,0.5,1.0,-35.0,-1,1.0,
576,17,0.5,0.125,-35.0,-1,1.0,
577,17,0.5,0.125,35.0,-1,0.0,
578,17,0.5,0.125,35.0,1,1.0,
579,17,0.5,1.0,35.0,1,1.0,
580,17,0.5,1.0,-35.0,-1,1.0,
581,17,0.5,0.0625,35.0,-1,0.0,
582,17,0.5,0.125,35.0,1,1.0,
583,17,0.5,0.0625,35.0,1,1.0,
584,17,0.5,1.0,-35.0,-1,1.0,
585,17,0.5,0.125,35.0,1,1.0,
586,17,0.5,0.0625,-35.0,1,0.0,
587,17,0.6,0.0625,-35.0,-1,1.0,
588,17,0.5,1.0,-35.0,-1,1.0,
589,17,0.5,0.0625,35.0,1,1.0,
590,17,0.5,0.125,35.0,1,1.0,
591,17,0.5,1.0,35.0,-1,0.0,
592,17,0.5,0.125,-35.0,1,0.0,
593,17,0.5,0.125,35.0,1,1.0,
594,17,0.5,0.125,-35.0,-1,1.0,
595,17,0.5,0.0,-35.0,1,0.0,
596,17,0.6,0.0,-35.0,1,0.0,
597,17,0.5,1.0,35.0,1,1.0,
598,17,0.5,0.0,35.0,1,1.0,
599,17,0.5,0.125,-35.0,1,0.0,
600,17,0.5,0.25,35.0,1,1.0,
601,17,0.5,0.0625,35.0,1,1.0,
602,17,0.5,0.125,-35.0,1,0.0,
603,17,0.5,0.125,-35.0,-1,1.0,
604,17,0.5,0.0,35.0,1,1.0,
605,17,0.5,0.25,35.0,1,1.0,
606,17,0.5,0.0625,-35.0,1,0.0,
607,17,0.9,0.0625,-35.0,-1,1.0,
608,17,0.5,1.0,-35.0,-1,1.0,
609,17,0.5,0.0,-35.0,1,0.0,
610,17,0.5,0.0,35.0,-1,0.0,
611,17,0.5,0.25,-35.0,-1,1.0,
612,17,0.5,1.0,35.0,1,1.0,
613,17,0.5,0.0,35.0,1,1.0,
614,17,0.5,0.25,35.0,1,1.0,
615,17,0.5,0.0,-35.0,1,0.0,
616,17,0.5,0.25,-35.0,-1,1.0,
617,17,0.5,0.125,-35.0,-1,1.0,
618,17,0.5,1.0,35.0,1,1.0,
619,17,0.5,1.0,35.0,1,1.0,
620,17,0.5,0.125,-35.0,1,0.0,
621,17,0.5,0.0625,-35.0,1,0.0,
622,17,0.5,0.25,-35.0,-1,1.0,
623,17,0.5,0.0625,-35.0,-1,1.0,
624,17,0.5,0.125,-35.0,-1,1.0,
625,17,0.5,0.25,-35.0,-1,1.0,
626,17,0.5,0.25,35.0,1,1.0,
627,17,0.5,0.0,-35.0,-1,1.0,
628,17,0.5,0.0625,35.0,1,1.0,
629,17,0.5,1.0,-35.0,-1,1.0,
630,17,0.5,0.0625,-35.0,-1,1.0,
631,17,0.5,0.0625,35.0,1,1.0,
632,17,0.5,0.0,35.0,1,1.0,
633,17,0.5,0.125,-35.0,-1,1.0,
634,17,0.5,0.25,-35.0,-1,1.0,
635,17,0.5,0.0625,-35.0,-1,1.0,
636,17,0.5,0.25,-35.0,-1,1.0,
637,17,0.5,0.125,-35.0,-1,1.0,
638,17,0.5,0.0625,35.0,1,1.0,
639,17,0.5,0.0,-35.0,1,0.0,
640,17,0.5,0.25,35.0,1,1.0,
641,17,0.5,0.0625,-35.0,-1,1.0,
642,17,0.5,0.0,35.0,-1,0.0,
643,17,0.5,0.0625,-35.0,-1,1.0,
644,17,0.5,1.0,-35.0,-1,1.0,
645,17,0.5,0.25,35.0,1,1.0,
646,17,0.5,0.125,-35.0,-1,1.0,
647,17,0.5,0.25,35.0,1,1.0,
648,17,0.5,0.25,35.0,1,1.0,
649,17,0.5,1.0,35.0,1,1.0,
650,17,0.5,1.0,35.0,1,1.0,
651,17,0.5,0.0,35.0,-1,0.0,
652,17,0.5,0.0,-35.0,1,0.0,
653,17,0.5,0.25,-35.0,-1,1.0,
654,17,0.5,0.0625,-35.0,1,0.0,
655,17,0.5,0.0,35.0,1,1.0,
656,17,0.5,0.125,35.0,1,1.0,
657,17,0.5,0.25,35.0,1,1.0,
658,17,0.5,0.25,35.0,1,1.0,
659,17,0.5,0.125,35.0,-1,0.0,
660,17,0.5,0.25,35.0,1,1.0,
661,17,0.5,1.0,-35.0,-1,1.0,
662,17,0.5,0.125,35.0,1,1.0,
663,17,0.5,0.25,35.0,-1,0.0,
664,17,0.5,0.25,-35.0,-1,1.0,
665,17,0.5,0.25,35.0,1,1.0,
666,17,0.5,1.0,-35.0,-1,1.0,
667,17,0.5,0.125,35.0,1,1.0,
668,17,0.5,0.125,-35.0,1,0.0,
669,17,0.5,0.125,-35.0,1,0.0,
670,17,0.5,0.125,35.0,1,1.0,
671,17,0.5,0.125,35.0,1,1.0,
672,17,0.5,0.0625,-35.0,-1,1.0,
673,17,0.5,1.0,-35.0,-1,1.0,
674,17,0.5,0.0,-35.0,1,0.0,
675,17,0.7,0.0,-35.0,1,0.0,
676,17,0.5,1.0,-35.0,-1,1.0,
677,17,0.5,0.25,-35.0,-1,1.0,
678,17,0.5,0.0,35.0,1,1.0,
679,17,0.5,0.25,-35.0,-1,1.0,
680,17,0.5,1.0,-35.0,-1,1.0,
681,17,0.5,0.25,-35.0,-1,1.0,
682,17,0.5,0.0,35.0,1,1.0,
683,17,0.5,0.25,35.0,1,1.0,
684,17,0.5,0.125,35.0,1,1.0,
685,17,0.5,0.0,-35.0,1,0.0,
686,17,0.5,0.125,35.0,1,1.0,
687,17,0.5,0.0625,35.0,1,1.0,
688,17,0.5,0.125,35.0,1,1.0,
689,17,0.5,0.0625,-35.0,1,0.0,
690,17,0.5,0.0625,-35.0,1,0.0,
691,17,0.5,0.0625,-35.0,-1,1.0,
692,17,0.5,0.125,-35.0,-1,1.0,
693,17,0.5,0.0625,35.0,-1,0.0,
694,17,0.5,0.125,35.0,1,1.0,
695,17,0.5,1.0,35.0,1,1.0,
696,17,0.5,0.25,35.0,1,1.0,
697,17,0.5,0.0625,35.0,1,1.0,
698,17,0.5,0.25,35.0,1,1.0,
699,17,0.5,0.0,35.0,-1,0.0,
700,17,0.5,0.25,35.0,1,1.0,
701,17,0.5,0.0625,-35.0,-1,1.0,
702,17,0.5,0.25,35.0,1,1.0,
703,17,0.5,0.0625,35.0,1,1.0,
704,17,0.5,1.0,-35.0,1,0.0,
705,17,0.5,0.0625,35.0,1,1.0,
706,17,0.5,0.0,-35.0,-1,1.0,
707,17,0.5,1.0,35.0,1,1.0,
708,17,0.5,0.125,-35.0,-1,1.0,
709,17,0.5,0.0625,35.0,1,1.0,
710,17,0.5,0.25,-35.0,-1,1.0,
711,17,0.5,0.125,-35.0,-1,1.0,
712,17,0.5,0.0625,35.0,1,1.0,
713,17,0.5,1.0,-35.0,-1,1.0,
714,17,0.5,0.25,-35.0,-1,1.0,
715,17,0.5,0.25,-35.0,-1,1.0,
716,17,0.5,1.0,-35.0,-1,1.0,
717,17,0.5,0.0625,-35.0,-1,1.0,
718,17,0.5,0.125,-35.0,-1,1.0,
719,17,0.5,0.25,-35.0,-1,1.0,
720,17,0.5,0.25,35.0,1,1.0,
721,17,0.5,0.25,-35.0,1,0.0,
722,17,0.3,0.25,-35.0,1,0.0,
723,17,0.5,1.0,35.0,1,1.0,
724,17,0.5,0.125,35.0,1,1.0,
725,17,0.5,0.25,35.0,1,1.0,
726,17,0.5,0.125,-35.0,-1,1.0,
727,17,0.5,1.0,35.0,1,1.0,
728,17,0.5,0.0625,35.0,1,1.0,
729,17,0.5,0.0,-35.0,1,0.0,
730,17,0.5,0.0,35.0,-1,0.0,
731,17,0.8,0.0,-35.0,1,0.0,
732,17,0.5,1.0,-35.0,-1,1.0,
733,17,0.5,0.125,-35.0,-1,1.0,
734,17,0.5,0.125,-35.0,-1,1.0,
735,17,0.5,1.0,35.0,1,1.0,
736,17,0.5,0.125,35.0,1,1.0,
737,17,0.5,0.0,-35.0,1,0.0,
738,17,0.5,0.125,-35.0,1,0.0,
739,17,0.5,0.25,35.0,1,1.0,
740,17,0.5,0.0625,-35.0,1,0.0,
741,17,0.5,0.125,-35.0,-1,1.0,
742,17,0.5,1.0,35.0,1,1.0,
743,17,0.5,0.0625,-35.0,1,0.0,
744,17,0.5,0.0625,35.0,-1,0.0,
745,17,0.5,0.0625,35.0,-1,0.0,
746,17,0.7,0.0625,-35.0,-1,1.0,
747,17,0.5,1.0,-35.0,-1,1.0,
748,17,0.5,0.125,-35.0,-1,1.0,
749,17,0.5,0.25,-35.0,-1,1.0,
750,17,0.5,0.0625,-35.0,-1,1.0,
751,17,0.5,0.0625,-35.0,-1,1.0,
752,17,0.5,0.25,-35.0,-1,1.0,
753,17,0.5,0.25,35.0,1,1.0,
754,17,0.5,0.0625,35.0,1,1.0,
755,17,0.5,1.0,35.0,1,1.0,
756,17,0.5,0.125,-35.0,-1,1.0,
757,17,0.5,1.0,35.0,1,1.0,
758,17,0.5,0.0,35.0,-1,0.0,
759,17,0.5,0.0625,-35.0,-1,1.0,
760,17,0.5,0.0,-35.0,-1,1.0,
761,17,0.5,0.25,-35.0,-1,1.0,
762,17,0.5,1.0,-35.0,-1,1.0,
763,17,0.5,0.25,-35.0,-1,1.0,
764,17,0.5,0.0625,-35.0,-1,1.0,
765,17,0.5,0.0625,35.0,1,1.0,
766,17,0.5,1.0,-35.0,-1,1.0,
767,17,0.5,0.25,35.0,1,1.0,
768,17,0.5,0.125,35.0,1,1.0,
769,17,0.5,0.125,-35.0,-1,1.0,
770,17,0.5,1.0,-35.0,-1,1.0,
771,17,0.5,0.0,-35.0,1,0.0,
772,17,0.5,0.125,-35.0,-1,1.0,
773,17,0.5,0.25,-35.0,-1,1.0,
774,17,0.5,1.0,-35.0,-1,1.0,
775,17,0.5,0.0625,35.0,1,1.0,
776,17,0.5,0.25,35.0,1,1.0,
777,17,0.5,0.125,35.0,1,1.0,
778,17,0.5,0.0625,35.0,1,1.0,
779,17,0.5,1.0,-35.0,-1,1.0,
780,17,0.5,0.0625,35.0,1,1.0,
781,17,0.5,0.0625,-35.0,1,0.0,
782,17,0.5,0.25,-35.0,-1,1.0,
783,17,0.5,1.0,-35.0,-1,1.0,
784,17,0.5,0.0,35.0,1,1.0,
785,17,0.5,0.25,-35.0,1,0.0,
786,17,0.5,0.25,35.0,1,1.0,
787,17,0.5,1.0,35.0,1,1.0,
788,17,0.5,1.0,35.0,1,1.0,
789,17,0.5,0.0,35.0,-1,0.0,
790,17,0.7,0.0,35.0,1,1.0,
791,17,0.5,1.0,-35.0,-1,1.0,
792,17,0.5,0.0,35.0,1,1.0,
793,17,0.5,0.25,-35.0,-1,1.0,
794,17,0.5,0.125,35.0,1,1.0,
795,17,0.5,0.125,-35.0,1,0.0,
796,17,0.5,0.0625,-35.0,1,0.0,
797,17,0.5,0.0,-35.0,-1,1.0,
798,17,0.5,0.0,35.0,1,1.0,
799,17,0.5,1.0,35.0,1,1.0,
800,17,0.5,0.0,35.0,1,1.0,
801,17,0.5,0.125,-35.0,-1,1.0,
802,17,0.5,0.0625,-35.0,-1,1.0,
803,17,0.5,0.0,35.0,-1,0.0,
804,17,0.5,0.0625,35.0,1,1.0,
805,17,0.5,1.0,35.0,1,1.0,
806,17,0.5,0.125,-35.0,-1,1.0,
807,17,0.5,1.0,-35.0,-1,1.0,
808,17,0.5,0.0625,35.0,1,1.0,
809,17,0.5,0.0625,35.0,-1,0.0,
810,17,0.5,0.125,-35.0,1,0.0,
811,17,0.5,0.25,35.0,1,1.0,
812,17,0.5,0.0,35.0,1,1.0,
813,17,0.5,1.0,35.0,1,1.0,
814,17,0.5,0.0,-35.0,1,0.0,
815,17,0.5,0.0625,35.0,1,1.0,
816,17,0.5,1.0,35.0,1,1.0,
817,17,0.5,0.0625,-35.0,1,0.0,
818,17,0.5,0.125,35.0,1,1.0,
819,17,0.5,0.125,35.0,1,1.0,
820,17,0.5,0.0625,-35.0,1,0.0,
821,17,0.5,0.125,-35.0,-1,1.0,
822,17,0.5,0.125,-35.0,-1,1.0,
823,17,0.5,0.25,35.0,1,1.0,
824,17,0.5,0.25,-35.0,-1,1.0,
825,17,0.5,0.0,35.0,-1,0.0,
826,17,0.5,0.125,-35.0,-1,1.0,
827,17,0.5,0.125,-35.0,-1,1.0,
828,17,0.5,1.0,-35.0,-1,1.0,
829,17,0.5,0.0625,-35.0,-1,1.0,
830,17,0.5,0.0,35.0,-1,0.0,
831,17,0.5,0.25,35.0,-1,0.0,
832,17,0.5,0.0625,-35.0,-1,1.0,
833,17,0.5,1.0,35.0,1,1.0,
834,17,0.5,1.0,35.0,-1,0.0,
835,17,0.5,0.125,35.0,-1,0.0,
836,17,0.5,0.125,-35.0,-1,1.0,
837,17,0.5,1.0,-35.0,-1,1.0,
838,17,0.5,0.0,35.0,-1,0.0,
839,17,0.5,0.125,35.0,-1,0.0,
840,17,0.1,0.125,35.0,-1,0.0,
841,17,0.5,1.0,35.0,1,1.0,
842,17,0.5,0.25,-35.0,-1,1.0,
843,17,0.5,1.0,-35.0,-1,1.0,
844,17,0.5,0.25,35.0,-1,0.0,
845,17,0.5,0.125,-35.0,-1,1.0,
846,17,0.5,1.0,-35.0,-1,1.0,
847,17,0.5,0.0,-35.0,-1,1.0,
848,17,0.5,1.0,-35.0,-1,1.0,
849,17,0.5,0.0625,35.0,1,1.0,
850,17,0.5,1.0,-35.0,-1,1.0,
851,17,0.5,0.0625,35.0,1,1.0,
852,17,0.5,0.0625,-35.0,-1,1.0,
853,17,0.5,0.25,-35.0,-1,1.0,
854,17,0.5,0.0625,35.0,-1,0.0,
855,17,0.5,0.0625,-35.0,-1,1.0,
856,17,0.5,0.125,35.0,-1,0.0,
857,17,0.2,0.125,-35.0,-1,1.0,
858,17,0.5,1.0,35.0,-1,0.0,
859,17,0.5,0.0625,35.0,-1,0.0,
860,17,0.5,0.0,35.0,1,1.0,
861,17,0.5,0.25,35.0,-1,0.0,
862,17,0.1,0.25,35.0,-1,0.0,
863,17,0.5,1.0,35.0,-1,0.0,
864,17,0.5,0.125,35.0,1,1.0,
865,17,0.5,1.0,35.0,-1,0.0,
866,17,0.5,0.25,35.0,-1,0.0,
867,17,0.2,0.25,-35.0,-1,1.0,
868,17,0.5,1.0,-35.0,-1,1.0,
869,17,0.5,1.0,-35.0,-1,1.0,
870,17,0.5,0.0625,35.0,-1,0.0,
871,17,0.5,0.25,-35.0,-1,1.0,
872,17,0.5,0.25,35.0,-1,0.0,
873,17,0.5,0.0,35.0,-1,0.0,
874,17,0.1,0.0,35.0,-1,0.0,
875,17,0.5,1.0,35.0,-1,0.0,
876,17,0.0,1.0,35.0,-1,0.0,
877,17,0.0,1.0,-35.0,-1,1.0,
878,17,0.5,1.0,35.0,-1,0.0,
879,17,0.5,0.125,35.0,-1,0.0,
880,17,0.5,0.25,35.0,-1,0.0,
881,17,0.5,0.125,-35.0,-1,1.0,
882,17,0.5,0.125,-35.0,-1,1.0,
883,17,0.5,0.125,-35.0,-1,1.0,
884,17,0.5,0.25,-35.0,-1,1.0,
885,17,0.5,0.0625,-35.0,-1,1.0,
886,17,0.5,0.125,35.0,-1,0.0,
887,17,0.5,0.25,35.0,-1,0.0,
888,17,0.5,0.25,35.0,-1,0.0,
889,17,0.5,0.125,35.0,-1,0.0,
890,17,0.5,0.0625,-35.0,-1,1.0,
891,17,0.5,0.125,-35.0,-1,1.0,
892,17,0.5,0.125,-35.0,-1,1.0,
893,17,0.5,0.25,-35.0,-1,1.0,
894,17,0.5,1.0,-35.0,-1,1.0,
