trial_num,session_num,stim_probability_left,contrast,position,response_choice,trial_correct,reaction_time
1,1,0.8,0.125,-35.0,1,0.0,0.12309999999999977
2,1,0.8,0.125,-35.0,-1,1.0,0.271399999999999
3,1,0.8,1.0,-35.0,-1,1.0,0.2502000000000004
4,1,0.8,1.0,-35.0,-1,1.0,0.22860000000000014
5,1,0.8,0.125,-35.0,-1,1.0,0.22910000000000075
6,1,0.8,0.0625,35.0,1,1.0,0.2472999999999992
7,1,0.8,0.125,-35.0,-1,1.0,0.23210100000000367
8,1,0.8,0.0,-35.0,1,0.0,0.19299999999999784
9,1,0.8,0.25,-35.0,-1,1.0,0.20250000000000057
10,1,0.8,1.0,35.0,1,1.0,0.24340000000000117
11,1,0.8,0.0625,-35.0,-1,1.0,0.6331999999999987
12,1,0.8,0.0625,-35.0,-1,1.0,0.06839999999999691
13,1,0.8,0.125,-35.0,1,0.0,0.1629000000000076
14,1,0.8,0.25,35.0,1,1.0,0.31579999999999586
15,1,0.8,0.125,35.0,-1,0.0,0.9012000000000029
16,1,0.8,0.25,35.0,-1,0.0,0.626899999999992
17,1,0.8,0.25,35.0,-1,0.0,0.5114999999999981
18,1,0.8,1.0,-35.0,-1,1.0,0.19690000000000651
19,1,0.8,0.0625,-35.0,-1,1.0,0.2179000000000073
20,1,0.8,0.25,-35.0,-1,1.0,0.19599999999999085
21,1,0.8,0.25,35.0,1,1.0,0.487000000000009
22,1,0.8,0.0625,-35.0,-1,1.0,0.2525009999999952
23,1,0.8,1.0,-35.0,-1,1.0,4.853899999999996
24,1,0.8,0.0625,35.0,1,1.0,0.6470999999999947
25,1,0.8,0.0625,35.0,-1,0.0,0.2483000000000004
26,1,0.8,0.25,-35.0,-1,1.0,0.2051009999999991
27,1,0.8,0.125,-35.0,-1,1.0,0.20109999999998251
28,1,0.8,0.0625,35.0,1,1.0,0.25339999999998497
29,1,0.8,0.125,35.0,1,1.0,0.2688009999999963
30,1,0.8,1.0,35.0,1,1.0,0.30239999999999156
31,1,0.8,0.25,-35.0,-1,1.0,0.04970000000000141
32,1,0.8,0.125,35.0,1,1.0,0.22059999999999036
33,1,0.8,0.125,-35.0,-1,1.0,0.18499999999998806
34,1,0.8,1.0,35.0,1,1.0,0.36659999999999116
35,1,0.8,0.25,-35.0,-1,1.0,0.25400099999998815
36,1,0.8,0.0625,35.0,1,1.0,0.4207010000000082
37,1,0.8,0.25,-35.0,-1,1.0,0.1962000000000046
38,1,0.8,0.125,-35.0,-1,1.0,5.910599999999988
39,1,0.8,1.0,-35.0,-1,1.0,0.2096000000000089
40,1,0.8,0.0625,35.0,-1,0.0,7.912700999999984
41,1,0.8,0.0625,-35.0,-1,1.0,0.0010000000000047748
42,1,0.8,0.125,-35.0,1,0.0,0.5540010000000279
43,1,0.8,0.125,-35.0,-1,1.0,0.21970000000001733
44,1,0.8,0.25,35.0,1,1.0,0.2866999999999962
45,1,0.8,1.0,-35.0,-1,1.0,0.21520000000001005
46,1,0.8,1.0,-35.0,-1,1.0,0.28819999999998913
47,1,0.8,0.25,-35.0,-1,1.0,0.2650999999999897
48,1,0.8,1.0,-35.0,-1,1.0,0.3223999999999876
49,1,0.8,0.0625,-35.0,-1,1.0,0.3269000000000233
50,1,0.2,0.0625,35.0,-1,0.0,0.43020000000001346
51,1,0.2,0.25,35.0,1,1.0,0.29060000000001196
52,1,0.2,0.125,-35.0,-1,1.0,0.6360000000000241
53,1,0.2,0.25,35.0,1,1.0,0.28560000000004493
54,1,0.2,0.25,35.0,1,1.0,1.0875010000000032
55,1,0.2,1.0,-35.0,-1,1.0,0.26950000000002206
56,1,0.2,0.125,-35.0,-1,1.0,0.2512000000000114
57,1,0.2,1.0,35.0,1,1.0,0.22580099999998993
58,1,0.2,0.0625,-35.0,-1,1.0,0.3517010000000198
59,1,0.2,1.0,35.0,1,1.0,0.22730000000001382
60,1,0.2,0.0625,-35.0,1,0.0,0.7105000000000246
61,1,0.2,0.0625,35.0,-1,0.0,0.4323009999999954
62,1,0.2,0.125,35.0,-1,0.0,0.22579999999999245
63,1,0.2,0.0625,35.0,1,1.0,0.37760100000002694
64,1,0.2,1.0,35.0,1,1.0,0.4041010000000256
65,1,0.2,0.0625,35.0,1,1.0,0.544700000000006
66,1,0.2,0.25,35.0,1,1.0,0.19630000000003633
67,1,0.2,0.125,35.0,1,1.0,4.144101000000006
68,1,0.2,1.0,-35.0,-1,1.0,0.20929999999998472
69,1,0.2,0.125,35.0,1,1.0,0.30750000000003297
70,1,0.2,0.0625,35.0,1,1.0,0.293801000000002
71,1,0.2,0.125,-35.0,-1,1.0,0.38230100000001244
72,1,0.2,0.125,35.0,1,1.0,0.33740000000000236
73,1,0.2,0.0625,35.0,1,1.0,0.4574000000000069
74,1,0.2,0.25,35.0,1,1.0,0.2545000000000073
75,1,0.2,0.25,35.0,1,1.0,0.2796000000000163
76,1,0.2,0.0625,-35.0,-1,1.0,0.3553009999999972
77,1,0.2,0.125,35.0,1,1.0,0.4889000000000294
78,1,0.2,0.25,-35.0,-1,1.0,0.24960000000001514
79,1,0.2,0.0625,-35.0,-1,1.0,0.8503010000000302
80,1,0.2,0.25,35.0,1,1.0,0.24500000000000455
81,1,0.2,0.0,35.0,-1,0.0,0.22520100000002685
82,1,0.2,0.125,35.0,1,1.0,0.2970009999999661
83,1,0.2,0.0625,35.0,1,1.0,0.32499999999998863
84,1,0.2,0.125,35.0,1,1.0,0.23619999999999663
85,1,0.2,1.0,35.0,1,1.0,0.26670000000001437
86,1,0.2,0.0625,35.0,1,1.0,0.17889999999994188
87,1,0.2,0.0,35.0,-1,0.0,0.31399999999996453
88,1,0.2,0.125,35.0,1,1.0,0.2750010000000316
89,1,0.2,0.25,35.0,1,1.0,0.09100000000000819
90,1,0.2,0.25,35.0,1,1.0,0.2591000000000463
91,1,0.2,1.0,-35.0,-1,1.0,0.15559999999999263
92,1,0.2,0.25,-35.0,-1,1.0,0.8091999999999757
93,1,0.2,0.0,35.0,-1,0.0,0.25579999999996517
94,1,0.2,0.0,-35.0,-1,1.0,0.263499999999965
95,1,0.2,0.0625,35.0,1,1.0,0.41060099999998556
96,1,0.2,0.25,35.0,1,1.0,0.5275999999999499
97,1,0.2,0.25,-35.0,-1,1.0,0.19820100000004004
98,1,0.2,0.0625,35.0,-1,0.0,0.5076999999999998
99,1,0.2,1.0,-35.0,-1,1.0,0.23759999999998627
100,1,0.2,0.0625,35.0,1,1.0,0.3285999999999376
101,1,0.2,0.0625,35.0,1,1.0,0.3935999999999922
102,1,0.2,1.0,-35.0,-1,1.0,0.21849999999994907
103,1,0.2,0.25,-35.0,-1,1.0,0.36250000000001137
104,1,0.2,1.0,-35.0,-1,1.0,1.712500000000034
105,1,0.2,0.125,35.0,1,1.0,0.25049999999993133
106,1,0.2,0.25,35.0,1,1.0,0.2939000000000078
107,1,0.2,0.25,35.0,1,1.0,0.28340099999996937
108,1,0.2,0.25,-35.0,-1,1.0,0.23259999999999081
109,1,0.2,0.25,35.0,1,1.0,0.2541999999999689
110,1,0.2,0.25,-35.0,-1,1.0,0.33859999999998536
111,1,0.2,0.0625,35.0,1,1.0,0.2810000000000059
112,1,0.2,0.0,35.0,1,1.0,0.3137010000000373
113,1,0.2,0.25,35.0,1,1.0,0.2892999999999688
114,1,0.2,0.125,35.0,1,1.0,0.26019999999999754
115,1,0.2,0.0625,35.0,1,1.0,0.29759999999998854
116,1,0.2,0.125,35.0,1,1.0,0.2571999999999548
117,1,0.2,1.0,35.0,1,1.0,0.2104999999999677
118,1,0.2,0.0625,35.0,1,1.0,0.15309999999993806
119,1,0.2,0.125,-35.0,-1,1.0,0.2255999999999858
120,1,0.2,0.0,-35.0,-1,1.0,0.26150100000000975
121,1,0.2,1.0,35.0,1,1.0,0.21589999999997644
122,1,0.2,0.25,35.0,1,1.0,0.26259999999996353
123,1,0.2,1.0,35.0,1,1.0,0.2289000000000101
124,1,0.2,1.0,35.0,1,1.0,0.28449999999998
125,1,0.2,0.125,35.0,1,1.0,0.3680999999999699
126,1,0.2,0.0625,35.0,-1,0.0,0.29200099999997065
127,1,0.2,1.0,35.0,1,1.0,0.23860000000001946
128,1,0.2,0.0,35.0,1,1.0,0.22239999999999327
129,1,0.2,1.0,-35.0,-1,1.0,0.28310099999998783
130,1,0.2,0.0625,35.0,-1,0.0,0.28920000000005075
131,1,0.2,0.125,35.0,1,1.0,0.2938010000000304
132,1,0.2,1.0,-35.0,-1,1.0,0.2442999999999529
133,1,0.2,1.0,35.0,1,1.0,0.38939999999996644
134,1,0.2,0.0,35.0,-1,0.0,0.227600999999936
135,1,0.2,0.0625,35.0,-1,0.0,0.20789999999993825
136,1,0.2,0.0,35.0,-1,0.0,0.21239999999994552
137,1,0.2,0.25,35.0,1,1.0,0.25499999999999545
138,1,0.2,0.25,35.0,1,1.0,0.2099010000000021
139,1,0.2,0.0625,35.0,1,1.0,0.22929999999996653
140,1,0.2,0.125,35.0,1,1.0,0.23700099999996382
141,1,0.2,0.0625,-35.0,-1,1.0,0.36820099999994227
142,1,0.2,1.0,35.0,1,1.0,0.24170100000003458
143,1,0.2,0.0,-35.0,1,0.0,0.22969999999992297
144,1,0.2,0.0625,35.0,-1,0.0,0.40299999999996317
145,1,0.2,0.25,-35.0,-1,1.0,0.2588010000000054
146,1,0.2,0.25,-35.0,-1,1.0,0.2548999999999637
147,1,0.2,0.25,35.0,1,1.0,0.23830099999997856
148,1,0.8,1.0,-35.0,-1,1.0,0.31639999999998736
149,1,0.8,0.125,-35.0,-1,1.0,0.2128999999999337
150,1,0.8,0.25,-35.0,-1,1.0,0.28570099999996046
151,1,0.8,0.0625,-35.0,1,0.0,0.26659999999998263
152,1,0.8,0.25,35.0,1,1.0,0.23380099999997128
153,1,0.8,0.25,35.0,1,1.0,0.24500000000000455
154,1,0.8,0.25,-35.0,-1,1.0,0.2180999999999358
155,1,0.8,0.125,-35.0,-1,1.0,0.24840099999994436
156,1,0.8,0.0625,35.0,1,1.0,0.2916999999999348
157,1,0.8,0.0625,35.0,1,1.0,0.5008999999999446
158,1,0.8,0.25,-35.0,-1,1.0,0.27830000000000155
159,1,0.8,0.0625,-35.0,-1,1.0,0.4198000000000093
160,1,0.8,0.25,-35.0,-1,1.0,0.286200000000008
161,1,0.8,0.125,-35.0,1,0.0,0.5172999999999774
162,1,0.8,1.0,-35.0,-1,1.0,0.19559999999995625
163,1,0.8,0.125,-35.0,-1,1.0,0.17749999999995225
164,1,0.8,1.0,-35.0,-1,1.0,0.1848999999999137
165,1,0.8,0.0625,-35.0,-1,1.0,0.1239999999999668
166,1,0.8,0.25,-35.0,-1,1.0,0.22439999999994598
167,1,0.8,0.25,-35.0,-1,1.0,0.24329999999997654
168,1,0.8,1.0,-35.0,-1,1.0,0.1896999999999025
169,1,0.8,0.25,-35.0,-1,1.0,0.26919999999995525
170,1,0.8,0.0625,35.0,-1,0.0,0.12590100000011262
171,1,0.8,1.0,-35.0,-1,1.0,0.19249999999988177
172,1,0.2,0.0625,-35.0,-1,1.0,0.22500000000002274
173,1,0.2,0.0625,35.0,-1,0.0,0.18489999999997053
174,1,0.2,0.125,35.0,1,1.0,0.2819999999999254
175,1,0.2,0.25,35.0,1,1.0,0.29109999999991487
176,1,0.2,0.0625,-35.0,-1,1.0,0.18990099999996346
177,1,0.2,0.25,-35.0,-1,1.0,0.46669999999994616
178,1,0.2,0.0625,-35.0,-1,1.0,0.1172999999998865
179,1,0.2,0.125,35.0,1,1.0,0.25689999999997326
180,1,0.2,0.125,-35.0,-1,1.0,0.2560999999999467
181,1,0.2,0.125,35.0,1,1.0,0.8554000000000315
182,1,0.2,0.0,35.0,-1,0.0,0.21929999999986194
183,1,0.2,0.25,-35.0,-1,1.0,0.15409999999997126
184,1,0.2,1.0,35.0,1,1.0,0.051200999999991836
185,1,0.2,0.0625,35.0,1,1.0,0.3204000000000633
186,1,0.2,0.0625,35.0,1,1.0,4.177000000000021
187,1,0.2,0.25,35.0,1,1.0,0.24869999999998527
188,1,0.2,0.125,35.0,-1,0.0,0.21680000000003474
189,1,0.2,0.125,35.0,-1,0.0,0.28729999999995925
190,1,0.2,0.125,35.0,1,1.0,0.21830099999988306
191,1,0.2,0.0625,35.0,1,1.0,0.21220099999993636
192,1,0.2,0.0625,35.0,1,1.0,0.3364010000000235
193,1,0.2,0.25,35.0,1,1.0,0.2780999999999949
194,1,0.2,0.0625,35.0,-1,0.0,0.2700999999999567
195,1,0.2,1.0,35.0,1,1.0,0.2381000000000313
196,1,0.2,1.0,35.0,1,1.0,0.24920099999997092
197,1,0.2,0.0625,35.0,-1,0.0,0.30540099999996073
198,1,0.2,0.0,35.0,-1,0.0,0.22629999999992378
199,1,0.2,0.25,35.0,1,1.0,0.1892009999999118
200,1,0.2,0.25,-35.0,-1,1.0,0.24040000000002237
201,1,0.2,0.125,-35.0,-1,1.0,0.34739999999999327
202,1,0.2,0.0625,35.0,1,1.0,0.23360100000002149
203,1,0.2,1.0,35.0,1,1.0,0.21650000000011005
204,1,0.2,0.125,35.0,1,1.0,0.35419999999999163
205,1,0.2,1.0,35.0,1,1.0,0.23469999999997526
206,1,0.2,0.125,35.0,1,1.0,0.34019999999998163
207,1,0.2,0.0625,35.0,1,1.0,0.3357010000000855
208,1,0.2,0.25,35.0,1,1.0,0.3036009999999578
209,1,0.2,0.125,35.0,1,1.0,0.30930000000000746
210,1,0.2,0.125,35.0,1,1.0,0.27920000000005984
211,1,0.2,0.125,35.0,1,1.0,0.42420099999992544
212,1,0.2,0.25,35.0,1,1.0,0.1150000000000091
213,1,0.2,0.0625,35.0,-1,0.0,4.9343000000000075
214,1,0.2,0.125,35.0,1,1.0,0.28050099999995837
215,1,0.2,0.0625,35.0,-1,0.0,0.22470099999986815
216,1,0.2,1.0,35.0,1,1.0,0.2216000000000804
217,1,0.2,1.0,35.0,1,1.0,0.2520999999999276
218,1,0.2,0.0625,35.0,1,1.0,0.4755999999999858
219,1,0.2,0.25,35.0,1,1.0,0.29189999999994143
220,1,0.2,1.0,35.0,1,1.0,0.18470000000002074
221,1,0.2,0.25,35.0,1,1.0,0.22070000000007894
222,1,0.2,0.0625,35.0,1,1.0,0.413599999999974
223,1,0.2,0.0625,35.0,1,1.0,0.21879999999998745
224,1,0.2,0.25,35.0,1,1.0,0.24729999999999563
225,1,0.2,1.0,-35.0,-1,1.0,0.21529999999995653
226,1,0.2,0.25,-35.0,-1,1.0,0.26460000000008677
227,1,0.2,0.0,-35.0,-1,1.0,0.16620000000000346
228,1,0.2,0.125,-35.0,1,0.0,2.304200000000037
229,1,0.2,0.125,-35.0,-1,1.0,0.20440000000007785
230,1,0.2,1.0,35.0,1,1.0,0.2440999999998894
231,1,0.2,1.0,35.0,1,1.0,0.22529999999994743
232,1,0.2,1.0,35.0,1,1.0,0.284099999999853
233,1,0.2,0.125,35.0,1,1.0,0.2596999999999525
234,1,0.2,0.0625,35.0,1,1.0,0.47519999999997253
235,1,0.2,0.125,35.0,1,1.0,0.30370000000004893
236,1,0.2,0.0625,-35.0,-1,1.0,0.31379999999990105
237,1,0.2,0.125,35.0,1,1.0,0.38810099999989234
238,1,0.2,1.0,35.0,1,1.0,0.2259999999999991
239,1,0.2,1.0,35.0,1,1.0,0.2297000000000935
240,1,0.2,0.25,35.0,1,1.0,0.27080000000000837
241,1,0.2,0.25,35.0,1,1.0,0.2866999999998825
242,1,0.2,0.0,35.0,-1,0.0,0.41200099999991835
243,1,0.2,0.25,35.0,1,1.0,0.26139999999998054
244,1,0.2,0.125,35.0,1,1.0,0.31769999999994525
245,1,0.2,1.0,35.0,1,1.0,0.259900000000016
246,1,0.2,1.0,35.0,1,1.0,0.22249999999996817
247,1,0.2,0.25,35.0,1,1.0,0.13840000000004693
248,1,0.2,0.0625,35.0,1,1.0,0.29529999999999745
249,1,0.2,0.125,35.0,1,1.0,0.28700000000003456
250,1,0.2,0.125,35.0,1,1.0,0.585700000000088
251,1,0.2,0.125,-35.0,-1,1.0,0.2941000000000713
252,1,0.2,0.0625,35.0,1,1.0,0.2938000000000329
253,1,0.2,0.125,35.0,1,1.0,0.2478009999999813
254,1,0.2,0.25,35.0,1,1.0,0.22149999999999181
255,1,0.2,0.25,35.0,1,1.0,0.24059999999997217
256,1,0.2,0.0,35.0,1,1.0,0.3106000000000222
257,1,0.2,0.125,35.0,1,1.0,0.1768009999999549
258,1,0.2,0.125,35.0,1,1.0,0.22719999999992524
259,1,0.2,0.0625,35.0,1,1.0,0.06749999999999545
260,1,0.2,1.0,-35.0,-1,1.0,0.22099999999988995
261,1,0.8,1.0,-35.0,-1,1.0,0.31149999999990996
262,1,0.8,0.25,-35.0,1,0.0,0.24610000000006949
263,1,0.8,0.0625,-35.0,-1,1.0,0.18050000000005184
264,1,0.8,0.0625,-35.0,-1,1.0,0.2436999999999898
265,1,0.8,0.0625,35.0,-1,0.0,0.19799999999997908
266,1,0.8,0.0625,-35.0,-1,1.0,0.18089999999995143
267,1,0.8,1.0,-35.0,-1,1.0,0.1789009999999962
268,1,0.8,0.0625,-35.0,-1,1.0,0.23660000000006676
269,1,0.8,1.0,-35.0,-1,1.0,0.1874999999998863
270,1,0.8,0.25,-35.0,-1,1.0,0.19479999999987285
271,1,0.8,0.125,-35.0,-1,1.0,0.20900000000006003
272,1,0.8,1.0,-35.0,-1,1.0,0.22659999999996217
273,1,0.8,1.0,35.0,1,1.0,0.2196999999999889
274,1,0.8,0.0625,-35.0,-1,1.0,0.22059999999987667
275,1,0.8,0.25,35.0,-1,0.0,0.32159999999998945
276,1,0.8,1.0,-35.0,-1,1.0,0.1895000000000664
277,1,0.8,0.125,-35.0,-1,1.0,0.24510099999986323
278,1,0.8,0.0625,-35.0,-1,1.0,0.6780999999999722
279,1,0.8,0.0625,-35.0,-1,1.0,0.4434999999999718
280,1,0.8,0.0625,-35.0,-1,1.0,0.2967009999998709
281,1,0.8,1.0,-35.0,-1,1.0,0.20679999999993015
282,1,0.8,0.0,35.0,-1,0.0,0.3728000000000975
283,1,0.8,0.0,-35.0,-1,1.0,0.32770000000004984
284,1,0.8,1.0,-35.0,-1,1.0,0.25649999999996
285,1,0.8,1.0,35.0,1,1.0,0.24720099999990452
286,1,0.8,0.0,35.0,-1,0.0,0.25940000000002783
287,1,0.8,0.0625,-35.0,-1,1.0,0.2948000000000093
288,1,0.8,0.125,35.0,1,1.0,0.2604000000000042
289,1,0.8,0.125,35.0,-1,0.0,0.4359999999999218
290,1,0.8,1.0,35.0,1,1.0,0.27470000000005257
291,1,0.8,0.25,35.0,1,1.0,0.316599999999994
292,1,0.8,0.25,35.0,1,1.0,0.30780000000004293
293,1,0.8,0.25,35.0,1,1.0,0.2332010000000082
294,1,0.8,0.0625,-35.0,-1,1.0,0.24070000000006075
295,1,0.8,0.0,-35.0,-1,1.0,0.35789999999997235
296,1,0.8,0.25,35.0,1,1.0,0.20899999999994634
297,1,0.8,0.25,-35.0,-1,1.0,0.2380000000000564
298,1,0.8,0.0,35.0,-1,0.0,0.3307999999999538
299,1,0.8,0.25,-35.0,-1,1.0,0.23660000000006676
300,1,0.8,0.25,-35.0,-1,1.0,0.2417000000000371
301,1,0.8,0.0625,-35.0,-1,1.0,0.3790000000000191
302,1,0.8,0.25,-35.0,-1,1.0,0.2699999999999818
303,1,0.2,0.25,35.0,1,1.0,0.2900999999999385
304,1,0.2,0.25,35.0,-1,0.0,0.4030999999998812
305,1,0.2,0.0625,35.0,-1,0.0,0.40219999999999345
306,1,0.2,0.125,35.0,1,1.0,0.3267999999999347
307,1,0.2,1.0,35.0,1,1.0,0.245900000000006
308,1,0.2,0.0625,-35.0,-1,1.0,0.2019999999998845
309,1,0.2,0.0625,35.0,1,1.0,0.2826000000000022
310,1,0.2,0.125,35.0,-1,0.0,0.17800099999988106
311,1,0.2,0.25,35.0,1,1.0,0.2826999999999771
312,1,0.2,1.0,-35.0,-1,1.0,0.07440099999996619
313,1,0.2,0.25,35.0,1,1.0,0.2946999999999207
314,1,0.2,0.0,35.0,-1,0.0,0.7992000000000417
315,1,0.2,0.0,-35.0,1,0.0,0.35349999999994
316,1,0.2,0.25,-35.0,-1,1.0,0.25060000000007676
317,1,0.2,0.125,-35.0,-1,1.0,0.27289999999993597
318,1,0.2,1.0,35.0,1,1.0,0.36159999999995307
319,1,0.2,0.0625,35.0,1,1.0,0.25
320,1,0.2,0.125,35.0,-1,0.0,0.31939999999997326
321,1,0.2,0.125,35.0,1,1.0,0.35450000000003
322,1,0.2,0.0625,35.0,1,1.0,0.29890100000000075
323,1,0.2,0.0625,35.0,1,1.0,0.2579000000000633
324,1,0.2,0.125,-35.0,1,0.0,0.258000999999922
325,1,0.2,1.0,35.0,1,1.0,0.24469999999996617
326,1,0.2,0.0,35.0,-1,0.0,0.44800100000009024
327,1,0.2,1.0,35.0,1,1.0,0.23480000000006385
328,1,0.2,0.0625,-35.0,-1,1.0,0.3603009999999358
329,1,0.2,1.0,35.0,1,1.0,0.19489999999996144
330,1,0.8,1.0,-35.0,-1,1.0,0.10700000000008458
331,1,0.8,0.25,35.0,1,1.0,0.25490000000013424
332,1,0.8,1.0,-35.0,-1,1.0,0.25160099999970953
333,1,0.8,0.125,-35.0,-1,1.0,0.1271009999998114
334,1,0.8,0.25,-35.0,-1,1.0,0.25499999999988177
335,1,0.8,0.25,-35.0,-1,1.0,0.251700000000028
336,1,0.8,0.125,35.0,1,1.0,0.4617999999998119
337,1,0.8,0.0625,-35.0,1,0.0,1.0250999999998385
338,1,0.8,0.0625,-35.0,-1,1.0,0.4984999999996944
339,1,0.8,0.0,-35.0,1,0.0,0.3651999999999589
340,1,0.8,0.0,-35.0,1,0.0,0.3752999999999247
341,1,0.8,0.125,-35.0,-1,1.0,0.7319999999999709
342,1,0.8,0.0625,-35.0,-1,1.0,0.3421000000000731
343,1,0.8,0.125,-35.0,-1,1.0,0.21219999999993888
344,1,0.8,0.0625,-35.0,-1,1.0,0.24890099999993254
345,1,0.8,1.0,-35.0,-1,1.0,0.2921999999998661
346,1,0.8,0.125,35.0,1,1.0,1.0456010000000333
347,1,0.8,1.0,-35.0,-1,1.0,0.2624000000000706
348,1,0.8,0.125,35.0,1,1.0,0.47899999999981446
349,1,0.8,0.125,-35.0,-1,1.0,0.219101000000137
350,1,0.8,1.0,-35.0,-1,1.0,0.23909999999978027
351,1,0.8,0.25,-35.0,-1,1.0,0.23909999999978027
352,1,0.8,1.0,-35.0,-1,1.0,0.02189999999995962
353,1,0.8,0.0,-35.0,-1,1.0,0.2525999999998021
354,1,0.8,0.0625,35.0,1,1.0,0.3126999999999498
355,1,0.8,1.0,-35.0,-1,1.0,0.33590000000003783
356,1,0.8,0.0625,-35.0,-1,1.0,0.3292999999998756
357,1,0.8,0.25,-35.0,-1,1.0,0.10740100000020902
358,1,0.8,0.25,-35.0,-1,1.0,0.289400999999998
359,1,0.8,0.0625,35.0,1,1.0,1.756000999999742
360,1,0.8,0.125,-35.0,-1,1.0,0.3127999999999247
361,1,0.8,0.25,-35.0,-1,1.0,0.31949999999983447
362,1,0.8,0.125,-35.0,-1,1.0,0.39279999999985193
363,1,0.8,0.0,-35.0,-1,1.0,0.2862000000002354
364,1,0.8,0.0625,35.0,1,1.0,5.966199999999844
365,1,0.8,0.125,-35.0,-1,1.0,0.21299999999996544
366,1,0.8,0.125,-35.0,-1,1.0,0.3164000000001579
367,1,0.8,0.0625,35.0,1,1.0,0.3664000000001124
368,1,0.8,1.0,35.0,1,1.0,0.2798000000000229
369,1,0.2,0.25,35.0,-1,0.0,0.7699000000000069
370,1,0.2,1.0,-35.0,-1,1.0,0.20990000000006148
371,1,0.2,0.125,35.0,-1,0.0,0.3265000000001237
372,1,0.2,0.0,-35.0,-1,1.0,0.48659999999995307
373,1,0.2,0.0625,35.0,-1,0.0,0.3066999999998643
374,1,0.2,0.25,35.0,1,1.0,0.26660000000015316
375,1,0.2,0.0625,35.0,1,1.0,1.5833999999999833
376,1,0.2,0.125,35.0,1,1.0,0.6900999999998021
377,1,0.2,1.0,-35.0,1,0.0,0.3068000000000666
378,1,0.2,1.0,-35.0,-1,1.0,0.21020099999986996
379,1,0.2,0.0625,35.0,1,1.0,0.35349999999994
380,1,0.2,0.25,-35.0,1,0.0,3.966799999999921
381,1,0.2,0.0625,35.0,1,1.0,0.5135999999999967
382,1,0.2,0.25,35.0,1,1.0,-0.0362999999999829
383,1,0.2,1.0,35.0,1,1.0,0.2438009999998485
384,1,0.2,0.125,35.0,1,1.0,0.18039999999996326
385,1,0.2,0.25,-35.0,-1,1.0,0.2237999999999829
386,1,0.2,0.125,-35.0,-1,1.0,0.24719999999979336
387,1,0.2,0.0625,35.0,1,1.0,0.2138999999999669
388,1,0.2,1.0,35.0,1,1.0,0.24059999999985848
389,1,0.2,0.125,-35.0,-1,1.0,0.45070000000009713
390,1,0.2,0.125,35.0,-1,0.0,0.30729999999994106
391,1,0.2,1.0,35.0,1,1.0,0.3240000000000691
392,1,0.2,0.0,35.0,-1,0.0,0.2740999999998621
393,1,0.2,0.0625,35.0,-1,0.0,0.4174999999997908
394,1,0.2,0.25,35.0,1,1.0,0.2607999999997901
395,1,0.2,0.25,35.0,1,1.0,0.3708000000001448
396,1,0.2,0.0,35.0,1,1.0,0.26749999999992724
397,1,0.2,0.0,-35.0,-1,1.0,0.2276000000001659
398,1,0.2,0.0625,35.0,-1,0.0,0.3009999999999309
399,1,0.2,1.0,35.0,1,1.0,0.24769999999989523
400,1,0.2,1.0,35.0,1,1.0,0.3043999999999869
401,1,0.2,0.125,-35.0,-1,1.0,0.16780100000005405
402,1,0.2,0.0,35.0,-1,0.0,0.23109999999996944
403,1,0.2,0.25,35.0,-1,0.0,0.1877999999999247
404,1,0.2,0.0,-35.0,-1,1.0,0.31130000000007385
405,1,0.2,0.125,35.0,1,1.0,0.3079000000000178
406,1,0.2,0.125,35.0,1,1.0,0.25129999999990105
407,1,0.2,0.0625,35.0,1,1.0,0.24129999999991014
408,1,0.2,0.25,35.0,1,1.0,0.3646000000001095
409,1,0.2,0.125,35.0,1,1.0,0.38469999999983884
410,1,0.2,0.0625,-35.0,-1,1.0,0.12149999999996908
411,1,0.2,0.0625,35.0,1,1.0,0.3180999999999585
412,1,0.2,0.25,35.0,1,1.0,0.30829999999969004
413,1,0.8,0.0625,-35.0,-1,1.0,0.13820000000009713
414,1,0.8,0.0625,35.0,1,1.0,0.3749000000000251
415,1,0.8,0.25,-35.0,-1,1.0,0.6050000000000182
416,1,0.8,0.25,-35.0,-1,1.0,0.26510000000007494
417,1,0.8,0.125,35.0,1,1.0,0.26509999999984757
418,1,0.8,0.0625,-35.0,1,0.0,0.23849999999993088
419,1,0.8,0.125,35.0,1,1.0,0.38849999999979445
420,1,0.8,0.0625,35.0,1,1.0,0.2785999999998694
421,1,0.8,0.125,-35.0,-1,1.0,0.22520000000008622
422,1,0.8,0.125,-35.0,-1,1.0,0.6853000000000975
423,1,0.8,0.125,-35.0,-1,1.0,0.25540000000000873
424,1,0.8,1.0,-35.0,-1,1.0,0.22869999999988977
425,1,0.8,1.0,-35.0,-1,1.0,0.2554000000002361
426,1,0.8,0.0,35.0,-1,0.0,0.46210100000007515
427,1,0.8,0.125,-35.0,-1,1.0,0.3621009999999387
428,1,0.8,0.0,-35.0,-1,1.0,0.2420999999999367
429,1,0.8,0.25,-35.0,-1,1.0,0.48879999999985557
430,1,0.8,0.0625,-35.0,-1,1.0,0.22220099999981358
431,1,0.8,0.0,-35.0,-1,1.0,0.3388999999999669
432,1,0.8,0.0625,35.0,1,1.0,0.3122000000000753
433,1,0.8,1.0,-35.0,-1,1.0,0.19910000000004402
434,1,0.8,1.0,-35.0,-1,1.0,0.20900000000006003
435,1,0.8,0.0625,-35.0,-1,1.0,0.23900000000003274
436,1,0.8,0.25,-35.0,-1,1.0,0.28569999999990614
437,1,0.8,0.0,-35.0,-1,1.0,0.2623999999998432
438,1,0.8,0.125,-35.0,-1,1.0,0.2157999999999447
439,1,0.8,0.0625,-35.0,-1,1.0,0.2825000000000273
440,1,0.8,0.0625,-35.0,-1,1.0,-0.06420000000002801
441,1,0.8,1.0,-35.0,-1,1.0,0.19590000000016516
442,1,0.8,0.125,-35.0,1,0.0,0.4194009999998798
443,1,0.8,0.0625,-35.0,-1,1.0,0.2074999999999818
444,1,0.8,0.0625,35.0,-1,0.0,0.2560000000000855
445,1,0.8,0.125,-35.0,-1,1.0,0.0461009999999078
446,1,0.8,1.0,-35.0,-1,1.0,0.18599999999992178
447,1,0.8,0.125,-35.0,-1,1.0,0.1694999999999709
448,1,0.8,1.0,-35.0,-1,1.0,0.2529010000000653
449,1,0.8,0.125,-35.0,-1,1.0,0.23290000000019973
450,1,0.8,1.0,-35.0,-1,1.0,0.286200000000008
451,1,0.8,1.0,-35.0,-1,1.0,0.24970100000018647
452,1,0.8,0.125,-35.0,-1,1.0,4.609699999999975
453,1,0.8,0.25,-35.0,-1,1.0,0.19319999999993342
454,1,0.8,0.0625,-35.0,-1,1.0,0.21649999999999636
455,1,0.8,0.0625,-35.0,-1,1.0,0.21659999999997126
456,1,0.8,0.25,-35.0,-1,1.0,0.2965999999998985
457,1,0.8,0.25,-35.0,-1,1.0,0.27660000000014406
458,1,0.8,0.0,35.0,-1,0.0,1.509999999999991
459,1,0.8,0.0625,35.0,-1,0.0,0.20000000000004547
460,1,0.8,1.0,-35.0,-1,1.0,0.05910000000017135
461,1,0.8,0.125,-35.0,-1,1.0,0.2300000000000182
462,1,0.8,0.125,-35.0,-1,1.0,0.23340000000007421
463,1,0.8,0.125,35.0,-1,0.0,0.2234009999999671
464,1,0.8,0.125,-35.0,-1,1.0,0.28680000000008476
465,1,0.8,0.0625,-35.0,-1,1.0,0.2436009999998987
466,1,0.8,0.25,-35.0,-1,1.0,0.20359999999982392
467,1,0.8,0.25,-35.0,-1,1.0,0.2402999999999338
468,1,0.8,1.0,35.0,1,1.0,0.24040000000013606
469,1,0.8,0.0,-35.0,-1,1.0,0.4036999999998443
470,1,0.8,1.0,-35.0,-1,1.0,0.2437009999998736
471,1,0.8,0.125,35.0,-1,0.0,0.22379999999975553
472,1,0.8,0.0,-35.0,-1,1.0,0.21379999999976462
473,1,0.8,0.0625,35.0,1,1.0,0.33380000000011023
474,1,0.8,0.125,35.0,1,1.0,0.22729999999978645
475,1,0.8,0.0,-35.0,-1,1.0,0.2138999999999669
476,1,0.8,0.125,-35.0,-1,1.0,0.26730099999986123
477,1,0.8,0.0625,-35.0,-1,1.0,0.2639999999998963
478,1,0.8,0.0625,-35.0,-1,1.0,0.284099999999853
479,1,0.8,1.0,-35.0,-1,1.0,0.24070000000006075
480,1,0.8,1.0,35.0,1,1.0,0.2674000000001797
481,1,0.8,1.0,-35.0,-1,1.0,0.25080099999991035
482,1,0.8,0.25,-35.0,-1,1.0,0.2341999999998734
483,1,0.8,0.0625,-35.0,-1,1.0,0.4841999999998734
484,1,0.8,0.125,35.0,-1,0.0,0.23090000000001965
485,1,0.8,0.0,-35.0,-1,1.0,0.1941999999996824
486,1,0.8,0.25,-35.0,-1,1.0,0.22759999999993852
487,1,0.8,1.0,-35.0,-1,1.0,0.211100000000215
488,1,0.8,0.125,-35.0,-1,1.0,0.21100099999989652
489,1,0.8,0.125,35.0,1,1.0,0.35770000000002256
490,1,0.8,0.0625,-35.0,-1,1.0,0.26779999999985193
491,1,0.8,0.25,35.0,-1,0.0,0.24639999999999418
492,1,0.8,1.0,-35.0,-1,1.0,0.18450099999995473
493,1,0.8,0.25,35.0,1,1.0,0.2545999999999822
494,1,0.8,1.0,-35.0,-1,1.0,0.24129999999991014
495,1,0.8,0.0625,-35.0,-1,1.0,0.16800000000012005
496,1,0.8,1.0,35.0,-1,0.0,0.049500000000080036
497,1,0.8,0.0,-35.0,-1,1.0,0.28470100000004095
498,1,0.8,1.0,35.0,1,1.0,0.38479999999981374
499,1,0.8,1.0,35.0,1,1.0,0.2515000000000782
500,1,0.8,0.0625,-35.0,-1,1.0,0.27480000000014115
501,1,0.8,0.25,-35.0,-1,1.0,0.218199999999797
502,1,0.8,0.0625,-35.0,-1,1.0,0.3682009999999991
503,1,0.8,0.25,-35.0,-1,1.0,0.2116000000000895
504,1,0.8,0.125,-35.0,-1,1.0,0.25489999999990687
505,1,0.8,0.125,-35.0,-1,1.0,0.23499999999989996
506,1,0.8,0.25,-35.0,-1,1.0,0.21499999999991815
507,1,0.8,0.0625,-35.0,-1,1.0,0.2317000000000462
508,1,0.8,1.0,-35.0,-1,1.0,0.17849999999998545
509,1,0.8,0.0625,-35.0,-1,1.0,0.16849999999999454
510,1,0.8,0.0625,35.0,-1,0.0,0.23859999999990578
511,1,0.8,0.0625,35.0,-1,0.0,0.17190000000005057
512,1,0.2,0.25,35.0,1,1.0,0.29189999999994143
513,1,0.2,0.25,-35.0,-1,1.0,0.19860099999982594
514,1,0.2,0.125,35.0,1,1.0,0.16869999999994434
515,1,0.2,1.0,-35.0,-1,1.0,0.3020000000001346
516,1,0.2,0.125,35.0,1,1.0,0.19870100000002822
517,1,0.2,1.0,35.0,1,1.0,0.24549999999999272
518,1,0.2,1.0,35.0,1,1.0,0.23550000000000182
519,1,0.2,0.0,35.0,-1,0.0,0.25549999999975626
520,1,0.2,0.0625,35.0,1,1.0,0.16879999999991924
521,1,0.2,1.0,-35.0,-1,1.0,0.20230000000015025
522,1,0.2,0.25,-35.0,-1,1.0,0.3023009999997157
523,1,0.2,0.125,-35.0,-1,1.0,0.23559999999997672
524,1,0.2,0.0,35.0,-1,0.0,6.445799999999963
525,1,0.2,0.125,35.0,1,1.0,0.2924999999997908
526,1,0.2,0.125,35.0,1,1.0,0.29920000000015534
527,1,0.2,0.25,35.0,1,1.0,0.439200000000028
528,1,0.2,1.0,-35.0,-1,1.0,0.20259999999984757
529,1,0.2,0.0625,35.0,1,1.0,0.3026999999999589
530,1,0.2,0.0625,35.0,1,1.0,0.2460999999998421
531,1,0.2,0.0625,35.0,1,1.0,0.3061000000000149
532,1,0.2,1.0,35.0,1,1.0,0.23620000000005348
533,1,0.2,1.0,35.0,1,1.0,0.23620000000005348
534,1,0.2,1.0,35.0,1,1.0,0.22630000000003747
535,1,0.2,0.125,35.0,1,1.0,0.06629999999995562
536,1,0.2,0.125,35.0,1,1.0,0.3264010000000326
537,1,0.2,0.0,35.0,-1,0.0,0.6597009999998136
538,1,0.2,0.25,35.0,1,1.0,0.29980000000000473
539,1,0.2,1.0,35.0,1,1.0,0.24309999999991305
540,1,0.2,0.0625,35.0,-1,0.0,0.11989999999991596
541,1,0.2,0.25,35.0,1,1.0,0.27320000000008804
542,1,0.2,1.0,-35.0,-1,1.0,0.26989999999977954
543,1,0.2,0.25,35.0,1,1.0,0.2800000000002001
544,1,0.2,0.25,35.0,-1,0.0,0.7133000000001175
545,1,0.2,1.0,35.0,1,1.0,0.240099999999984
546,1,0.2,0.0625,35.0,-1,0.0,0.5468000000000757
547,1,0.2,0.125,35.0,1,1.0,0.3068000000000666
548,1,0.2,1.0,35.0,1,1.0,0.2500999999999749
549,1,0.2,0.25,35.0,1,1.0,0.3067999999998392
550,1,0.2,0.25,35.0,1,1.0,0.3169000000000324
551,1,0.2,0.25,35.0,1,1.0,0.32359999999994216
552,1,0.2,1.0,35.0,1,1.0,0.22019999999997708
553,1,0.2,0.25,-35.0,-1,1.0,0.4137000000000626
554,1,0.2,0.125,35.0,1,1.0,0.24700099999995473
555,1,0.2,0.0625,35.0,1,1.0,0.28369999999995343
556,1,0.2,1.0,35.0,1,1.0,0.2771999999997661
557,1,0.2,0.0,35.0,-1,0.0,0.30719999999996617
558,1,0.2,0.0625,35.0,1,1.0,0.38049999999998363
559,1,0.2,0.25,35.0,1,1.0,0.20390000000020336
560,1,0.2,0.0625,35.0,1,1.0,0.3339009999999689
561,1,0.2,0.0625,35.0,1,1.0,0.3040000000000873
562,1,0.2,0.25,-35.0,-1,1.0,0.24739999999997053
563,1,0.2,1.0,35.0,1,1.0,0.23069999999984248
564,1,0.2,0.0625,35.0,-1,0.0,0.43410000000017135
565,1,0.2,0.125,35.0,1,1.0,0.36409999999978027
566,1,0.2,0.125,35.0,1,1.0,0.3108999999999469
567,1,0.2,0.125,35.0,1,1.0,0.27759999999989304
568,1,0.2,0.0625,35.0,-1,0.0,0.48430000000007567
569,1,0.2,1.0,35.0,1,1.0,0.2543000000000575
570,1,0.2,0.0,35.0,-1,0.0,0.4876999999999043
571,1,0.2,1.0,35.0,1,1.0,0.22769999999991342
572,1,0.2,1.0,35.0,1,1.0,0.23779999999987922
573,1,0.2,1.0,35.0,1,1.0,0.2778000000000702
574,1,0.2,1.0,35.0,1,1.0,0.2278000000001157
575,1,0.2,0.0625,-35.0,1,0.0,0.20459999999980027
576,1,0.2,0.125,35.0,1,1.0,0.3411999999998443
577,1,0.2,1.0,35.0,1,1.0,0.3345999999999094
578,1,0.2,1.0,35.0,1,1.0,0.21800000000007458
579,1,0.2,0.125,35.0,1,1.0,0.2746999999999389
580,1,0.2,1.0,35.0,1,1.0,0.11140000000000327
581,1,0.2,0.0625,-35.0,-1,1.0,0.37799999999992906
582,1,0.2,1.0,35.0,1,1.0,0.25479999999993197
583,1,0.2,0.0625,35.0,1,1.0,0.3549000000000433
584,1,0.2,0.125,35.0,1,1.0,0.3949000000000069
585,1,0.8,0.0,-35.0,-1,1.0,0.49159999999983484
586,1,0.8,0.125,-35.0,-1,1.0,0.2982999999999265
587,1,0.8,0.0625,35.0,1,1.0,0.2882999999999356
588,1,0.8,1.0,-35.0,-1,1.0,0.27500000000009095
589,1,0.8,0.125,-35.0,1,0.0,0.6250000000002274
590,1,0.8,1.0,35.0,1,1.0,0.11839999999983775
591,1,0.8,0.0625,-35.0,-1,1.0,0.333800999999994
592,1,0.8,0.0625,-35.0,1,0.0,0.47859999999991487
593,1,0.8,0.125,-35.0,-1,1.0,0.3652999999997064
594,1,0.8,0.25,-35.0,-1,1.0,0.2919999999999163
595,1,0.8,0.0625,35.0,1,1.0,0.25870099999997365
596,1,0.8,0.25,-35.0,-1,1.0,0.27880099999993035
597,1,0.8,0.125,-35.0,-1,1.0,0.3553999999999178
598,1,0.8,0.125,-35.0,-1,1.0,0.24220000000013897
599,1,0.8,1.0,35.0,1,1.0,0.29550099999983104
600,1,0.8,1.0,-35.0,-1,1.0,0.2356000000002041
601,1,0.8,0.0625,-35.0,-1,1.0,0.35560099999997874
602,1,0.8,1.0,-35.0,-1,1.0,0.26569999999992433
603,1,0.8,0.125,-35.0,-1,1.0,0.2256999999999607
604,1,0.8,0.0625,-35.0,-1,1.0,0.2557000000001608
605,1,0.8,0.0625,-35.0,-1,1.0,0.18910000000005311
606,1,0.8,0.125,-35.0,-1,1.0,0.2758000000001175
607,1,0.8,0.0625,35.0,1,1.0,0.3524999999999636
608,1,0.8,0.0625,-35.0,1,0.0,1.1592000000000553
609,1,0.8,0.0,-35.0,-1,1.0,0.22919999999999163
610,1,0.8,1.0,-35.0,-1,1.0,0.2293010000000777
611,1,0.8,0.0625,-35.0,-1,1.0,0.23260000000004766
612,1,0.8,0.0625,-35.0,-1,1.0,3.40930000000003
613,1,0.8,1.0,-35.0,-1,1.0,0.20269999999982247
614,1,0.8,0.25,-35.0,-1,1.0,0.23949999999990723
615,1,0.8,0.0,-35.0,-1,1.0,0.3161000000000058
616,1,0.8,1.0,-35.0,-1,1.0,0.21280000000001564
617,1,0.8,1.0,35.0,-1,0.0,0.759499999999889
618,1,0.8,0.0,-35.0,-1,1.0,0.49630099999990307
619,1,0.8,1.0,-35.0,-1,1.0,0.20630000000028303
620,1,0.8,0.0,-35.0,-1,1.0,0.22969999999986612
621,1,0.8,0.125,-35.0,-1,1.0,0.1896999999999025
622,1,0.8,0.25,-35.0,-1,1.0,0.2597000000000662
623,1,0.8,1.0,-35.0,-1,1.0,0.059801000000106797
624,1,0.8,0.125,35.0,-1,0.0,0.48649999999997817
625,1,0.8,0.0625,-35.0,-1,1.0,0.21309999999994034
626,1,0.8,0.0625,-35.0,-1,1.0,0.25650100000007114
627,1,0.8,0.0625,-35.0,-1,1.0,0.259900000000016
628,1,0.8,0.125,-35.0,-1,1.0,0.2165999999997439
629,1,0.8,1.0,35.0,1,1.0,0.3266000000000986
630,1,0.8,1.0,35.0,1,1.0,0.24659999999994398
631,1,0.8,0.0,-35.0,1,0.0,0.5399999999999636
632,1,0.8,0.125,-35.0,-1,1.0,0.22010000000000218
633,1,0.8,1.0,-35.0,-1,1.0,0.2034009999999853
634,1,0.8,0.0625,-35.0,-1,1.0,0.21339999999986503
635,1,0.8,0.0625,-35.0,-1,1.0,0.24680000000012114
636,1,0.8,0.25,-35.0,-1,1.0,0.6134999999999309
637,1,0.8,0.125,-35.0,-1,1.0,0.2867999999998574
638,1,0.8,1.0,35.0,1,1.0,0.30369999999993524
639,1,0.8,0.125,-35.0,-1,1.0,0.29359999999996944
640,1,0.8,0.125,-35.0,-1,1.0,0.21200000000021646
641,1,0.8,0.0,-35.0,-1,1.0,0.42039999999997235
642,1,0.8,1.0,-35.0,-1,1.0,0.2303999999996904
643,1,0.8,1.0,35.0,1,1.0,0.27369999999996253
644,1,0.8,0.0625,-35.0,-1,1.0,0.6438009999999394
645,1,0.8,1.0,-35.0,-1,1.0,0.07720100000005914
646,1,0.8,0.0625,-35.0,-1,1.0,0.3771999999999025
647,1,0.8,0.25,35.0,1,1.0,0.32539999999994507
648,1,0.8,0.25,35.0,1,1.0,0.3072999999997137
649,1,0.8,0.0625,-35.0,-1,1.0,0.40069999999991524
650,1,0.8,0.125,-35.0,-1,1.0,0.2439999999999145
651,1,0.8,1.0,-35.0,-1,1.0,0.15220099999987724
652,1,0.8,0.25,-35.0,-1,1.0,0.21740100000010898
653,1,0.8,0.0,-35.0,1,0.0,0.28750099999979284
654,1,0.8,0.0625,-35.0,-1,1.0,0.2374010000000908
655,1,0.8,1.0,-35.0,-1,1.0,0.22080000000005384
656,1,0.8,0.25,-35.0,-1,1.0,0.20420000000012806
657,1,0.8,0.25,-35.0,-1,1.0,0.2376000000001568
658,1,0.8,0.0,35.0,-1,0.0,0.20430000000010295
659,1,0.2,0.125,35.0,-1,0.0,-0.022300000000086584
660,1,0.2,0.25,35.0,1,1.0,0.24099999999998545
661,1,0.2,1.0,35.0,1,1.0,0.28109999999992397
662,1,0.2,0.0625,35.0,-1,0.0,0.25450000000023465
663,1,0.2,0.25,35.0,1,1.0,0.27450000000021646
664,1,0.2,1.0,35.0,1,1.0,0.2845999999999549
665,1,0.2,0.125,35.0,1,1.0,0.44800000000032014
666,1,0.2,0.0,35.0,-1,0.0,0.3213000000005195
667,1,0.2,0.125,35.0,1,1.0,0.2980000000002292
668,1,0.2,0.125,35.0,1,1.0,0.19810000000006767
669,1,0.2,0.25,35.0,1,1.0,0.2615000000000691
670,1,0.2,0.0625,35.0,1,1.0,0.8416000000006534
671,1,0.2,0.0,35.0,1,1.0,0.35510100000010425
672,1,0.2,0.0,35.0,1,1.0,1.0183999999999287
673,1,0.2,0.0625,35.0,1,1.0,0.5218000000004395
674,1,0.2,0.25,-35.0,-1,1.0,0.23520000000007713
675,1,0.2,0.25,35.0,1,1.0,0.25860099999999875
676,1,0.2,0.125,35.0,1,1.0,0.28530000000000655
677,1,0.2,0.125,-35.0,-1,1.0,0.24530000000004293
678,1,0.2,0.25,35.0,1,1.0,0.29870000000028085
679,1,0.2,0.125,-35.0,-1,1.0,0.49210000000039145
680,1,0.2,0.125,-35.0,-1,1.0,0.26210100000025705
681,1,0.2,0.125,35.0,1,1.0,0.3021000000003369
682,1,0.2,0.25,35.0,1,1.0,0.30880100000013044
683,1,0.2,0.0625,35.0,1,1.0,0.39560100000016973
684,1,0.2,1.0,35.0,1,1.0,0.06570000000010623
685,1,0.2,0.25,35.0,1,1.0,0.38890000000037617
686,1,0.2,0.125,-35.0,1,0.0,0.2422999999998865
687,1,0.2,0.25,-35.0,-1,1.0,0.3623000000002321
688,1,0.2,0.25,35.0,1,1.0,0.31570099999999
689,1,0.2,0.0,35.0,-1,0.0,0.5858000000002903
690,1,0.2,1.0,35.0,1,1.0,0.1891009999999369
691,1,0.2,0.0625,35.0,-1,0.0,0.42250000000012733
692,1,0.2,0.0625,35.0,1,1.0,0.28920000000016444
693,1,0.2,0.125,-35.0,-1,1.0,0.23600000000033106
694,1,0.2,1.0,35.0,1,1.0,0.25600100000019665
695,1,0.2,1.0,35.0,1,1.0,0.2393000000001848
696,1,0.2,1.0,35.0,1,1.0,0.33940000000029613
697,1,0.2,0.125,35.0,-1,0.0,0.46940000000040527
698,1,0.2,1.0,-35.0,-1,1.0,0.23610000000007858
699,1,0.2,0.25,35.0,-1,0.0,0.22950000000037107
700,1,0.2,0.125,-35.0,-1,1.0,0.26290100000005623
701,1,0.2,1.0,-35.0,-1,1.0,0.20960000000059154
702,1,0.2,1.0,35.0,1,1.0,0.27300000000013824
703,1,0.2,1.0,-35.0,-1,1.0,0.24969999999984793
704,1,0.2,1.0,35.0,1,1.0,0.28969999999981155
705,1,0.2,0.0625,35.0,-1,0.0,0.20300100000031307
706,1,0.2,0.25,35.0,1,1.0,0.3398010000000795
707,1,0.2,1.0,35.0,1,1.0,0.2266000000004169
708,1,0.2,1.0,35.0,1,1.0,0.3132000000005064
709,1,0.2,1.0,35.0,1,1.0,0.3366000000000895
710,1,0.2,1.0,35.0,1,1.0,0.2833010000003924
711,1,0.2,0.125,35.0,1,1.0,0.33470000000033906
712,1,0.2,1.0,35.0,1,1.0,0.31670100000019374
713,1,0.2,1.0,35.0,1,1.0,0.26339999999981956
714,1,0.2,0.125,35.0,1,1.0,0.2691010000003189
715,1,0.2,1.0,35.0,1,1.0,0.25010000000020227
716,1,0.2,0.0625,35.0,1,1.0,0.6334000000001652
717,1,0.2,0.0,35.0,1,1.0,0.30010000000038417
718,1,0.2,0.125,35.0,1,1.0,0.5868999999997868
719,1,0.2,0.25,35.0,1,1.0,0.35690000000022337
720,1,0.2,0.0,35.0,1,1.0,0.8803000000002612
721,1,0.2,0.125,35.0,1,1.0,0.3103000000000975
722,1,0.2,0.0,35.0,1,1.0,0.3670010000005277
723,1,0.2,1.0,35.0,1,1.0,0.25030000000015207
724,1,0.2,0.25,35.0,1,1.0,0.24700000000029831
725,1,0.2,0.0625,35.0,1,1.0,0.2837000000004082
726,1,0.2,0.0,35.0,1,1.0,0.3238000000001193
727,1,0.2,0.125,35.0,1,1.0,0.2537999999999556
728,1,0.2,0.25,35.0,1,1.0,0.29060000000026776
729,1,0.2,1.0,35.0,1,1.0,0.25390000000061264
730,1,0.2,0.0625,35.0,1,1.0,4.327299999999923
731,1,0.2,1.0,35.0,1,1.0,0.22410100000024613
732,1,0.2,0.25,35.0,1,1.0,0.2139999999999418
733,1,0.2,0.0625,35.0,1,1.0,0.34740000000010696
734,1,0.2,0.125,35.0,1,1.0,0.25410000000056243
735,1,0.2,0.0625,35.0,1,1.0,0.28090000000020154
736,1,0.2,1.0,-35.0,-1,1.0,0.20100000000002183
737,1,0.2,0.0625,35.0,1,1.0,0.37760100000014063
738,1,0.2,0.25,35.0,1,1.0,0.261000000000422
739,1,0.2,0.0,35.0,-1,0.0,0.2278000000001157
740,1,0.2,0.25,-35.0,-1,1.0,0.2711000000003878
741,1,0.2,1.0,35.0,1,1.0,0.07040000000051805
742,1,0.2,1.0,-35.0,-1,1.0,0.21790000000009968
743,1,0.2,0.0625,-35.0,-1,1.0,0.24459999999999127
744,1,0.8,1.0,-35.0,-1,1.0,0.29120000000011714
745,1,0.8,0.25,-35.0,-1,1.0,0.19010000000025684
746,1,0.8,0.25,-35.0,-1,1.0,0.5913000000000466
747,1,0.8,1.0,35.0,1,1.0,0.2480000000000473
748,1,0.8,1.0,-35.0,-1,1.0,0.2179999999998472
749,1,0.8,1.0,-35.0,1,0.0,0.2381000000000313
750,1,0.8,0.0625,-35.0,-1,1.0,0.30480000000034124
751,1,0.8,0.125,-35.0,-1,1.0,0.35480000000052314
752,1,0.8,0.0625,-35.0,-1,1.0,0.23490099999980885
753,1,0.8,0.25,35.0,1,1.0,0.2782000000001972
754,1,0.8,0.125,-35.0,-1,1.0,0.3915999999999258
755,1,0.8,0.125,-35.0,-1,1.0,0.43160000000034415
756,1,0.8,0.0625,-35.0,-1,1.0,0.0717000000004191
757,1,0.8,0.0625,-35.0,-1,1.0,0.32160000000067157
758,1,0.8,0.25,35.0,1,1.0,0.25500000000010914
759,1,0.8,0.0625,-35.0,-1,1.0,0.2950000000005275
760,1,0.8,0.125,-35.0,-1,1.0,0.29850000000033106
761,1,0.8,0.25,-35.0,-1,1.0,0.3117000000002008
762,1,0.8,1.0,35.0,1,1.0,0.2652000000002772
763,1,0.8,1.0,-35.0,-1,1.0,0.4552000000003318
764,1,0.8,0.0625,35.0,-1,0.0,0.38850000000002183
765,1,0.8,0.0625,-35.0,-1,1.0,0.2007000000003245
766,1,0.8,0.0625,-35.0,-1,1.0,0.24860000000035143
767,1,0.8,0.0625,-35.0,-1,1.0,0.7919999999999163
768,1,0.8,0.125,-35.0,-1,1.0,0.22730100000035236
769,1,0.8,1.0,-35.0,-1,1.0,0.20080100000041057
770,1,0.8,0.125,-35.0,-1,1.0,0.27209999999968204
771,1,0.8,0.125,-35.0,-1,1.0,0.3121009999999842
772,1,0.8,1.0,-35.0,-1,1.0,0.21550000000024738
773,1,0.8,0.25,-35.0,-1,1.0,0.27550100000053135
774,1,0.8,0.0625,-35.0,-1,1.0,4.072200000000521
775,1,0.8,0.0625,-35.0,-1,1.0,0.2822000000001026
776,1,0.8,0.0625,35.0,1,1.0,0.2856000000001586
777,1,0.8,0.25,35.0,1,1.0,0.15730000000030486
778,1,0.8,1.0,35.0,1,1.0,0.2824000000000524
779,1,0.8,1.0,-35.0,-1,1.0,0.2558000000008178
780,1,0.8,0.125,35.0,1,1.0,0.46250000000009095
781,1,0.8,1.0,-35.0,-1,1.0,0.2458000000001448
782,1,0.8,0.25,35.0,1,1.0,0.20740000000023429
783,1,0.8,0.125,-35.0,-1,1.0,0.28250100000013845
784,1,0.8,0.0625,-35.0,-1,1.0,0.2825000000007094
785,1,0.8,0.125,-35.0,-1,1.0,0.4916000000002896
786,1,0.8,1.0,-35.0,-1,1.0,0.2659000000003289
787,1,0.8,0.125,-35.0,-1,1.0,3.8126000000002023
788,1,0.8,0.125,35.0,1,1.0,0.19600000000036744
789,1,0.8,1.0,-35.0,-1,1.0,0.26270100000010643
790,1,0.8,0.25,-35.0,-1,1.0,0.25610000000051514
791,1,0.2,0.25,35.0,1,1.0,0.10510000000022046
792,1,0.2,1.0,35.0,1,1.0,0.22949999999991633
793,1,0.2,0.0,35.0,1,1.0,0.6662000000001171
794,1,0.2,0.25,35.0,1,1.0,0.3027999999999338
795,1,0.2,0.0625,35.0,-1,0.0,0.21620000000029904
796,1,0.2,0.0,-35.0,1,0.0,0.44630000000006476
797,1,0.2,0.125,35.0,1,1.0,0.26969999999982974
798,1,0.2,0.125,35.0,1,1.0,0.3263000000001739
799,1,0.2,1.0,35.0,1,1.0,0.2697000000002845
800,1,0.2,0.125,-35.0,-1,1.0,0.7364000000002306
801,1,0.2,1.0,-35.0,-1,1.0,0.23980000000028667
802,1,0.2,0.25,35.0,1,1.0,0.25650099999984377
803,1,0.2,0.0625,35.0,1,1.0,0.5098010000001523
804,1,0.2,1.0,35.0,1,1.0,0.1368999999999687
805,1,0.2,0.125,35.0,-1,0.0,0.23990000000048894
806,1,0.2,0.0625,35.0,-1,0.0,0.2434000000002925
807,1,0.2,0.25,35.0,1,1.0,0.25000000000045475
808,1,0.2,0.125,35.0,1,1.0,0.25329999999985375
809,1,0.2,0.0,35.0,-1,0.0,0.25000000000045475
810,1,0.2,1.0,-35.0,-1,1.0,0.1853000000000975
811,1,0.2,0.0,35.0,1,1.0,0.4534000000003289
812,1,0.2,0.0,-35.0,1,0.0,0.21680000000060318
813,1,0.2,0.0625,-35.0,-1,1.0,0.24679999999989377
814,1,0.2,1.0,-35.0,-1,1.0,0.20690000000013242
815,1,0.2,0.125,35.0,1,1.0,0.33030100000041784
816,1,0.2,0.25,35.0,1,1.0,0.3769000000002052
817,1,0.2,1.0,35.0,1,1.0,0.26030100000025413
818,1,0.2,0.125,35.0,1,1.0,0.2436000000002423
819,1,0.2,0.25,35.0,1,1.0,0.24040000000013606
820,1,0.2,0.0625,-35.0,-1,1.0,0.6837000000004991
821,1,0.2,0.0625,35.0,1,1.0,0.3238000000001193
822,1,0.2,1.0,-35.0,-1,1.0,0.5970999999999549
823,1,0.2,0.25,35.0,1,1.0,0.2971010000001115
824,1,0.2,0.0,35.0,1,1.0,4.583799999999883
825,1,0.2,0.0625,35.0,1,1.0,0.31390000000055807
826,1,0.2,0.0,35.0,-1,0.0,0.21400099999982558
827,1,0.2,0.125,-35.0,-1,1.0,0.39400000000023283
828,1,0.2,0.125,35.0,1,1.0,0.24400000000014188
829,1,0.2,0.0,-35.0,-1,1.0,0.26070000000026994
830,1,0.2,0.25,35.0,1,1.0,0.36410100000057355
831,1,0.2,0.25,35.0,1,1.0,0.25739999999996144
832,1,0.2,0.25,35.0,1,1.0,0.344101000000137
833,1,0.2,0.125,35.0,1,1.0,0.23750100000052043
834,1,0.2,0.25,35.0,1,1.0,0.26090000000021973
835,1,0.2,1.0,-35.0,-1,1.0,0.27899999999999636
836,1,0.2,0.25,35.0,1,1.0,0.4009000000000924
837,1,0.2,0.25,35.0,1,1.0,0.2876009999999951
838,1,0.2,0.25,35.0,1,1.0,0.2577000000001135
839,1,0.2,1.0,35.0,1,1.0,0.25770000000056825
840,1,0.2,0.125,35.0,1,1.0,0.31110000000035143
841,1,0.2,0.0625,35.0,-1,0.0,0.3011010000004717
842,1,0.2,0.125,35.0,1,1.0,0.2778000000002976
843,1,0.2,0.125,35.0,1,1.0,0.32120000000031723
844,1,0.2,1.0,35.0,1,1.0,0.28130000000010114
845,1,0.2,1.0,35.0,1,1.0,0.2345000000004802
846,1,0.2,0.0,35.0,-1,0.0,0.4513000000001739
847,1,0.2,0.25,35.0,1,1.0,0.26470100000005914
848,1,0.2,1.0,35.0,1,1.0,0.22810000000026776
849,1,0.2,0.25,-35.0,1,0.0,0.14800100000002203
850,1,0.2,0.0625,35.0,1,1.0,0.35470000000032087
851,1,0.2,0.125,35.0,1,1.0,0.3348000000000866
852,1,0.2,0.125,35.0,-1,0.0,0.6081000000003769
853,1,0.2,0.0,35.0,-1,0.0,0.3182010000000446
854,1,0.2,0.0625,35.0,1,1.0,0.3148000000005595
855,1,0.2,0.25,35.0,1,1.0,0.3416010000000824
856,1,0.2,0.125,35.0,1,1.0,0.24160000000028958
857,1,0.2,1.0,35.0,1,1.0,0.27160000000048967
858,1,0.2,0.0625,35.0,1,1.0,0.30500000000029104
859,1,0.2,0.25,-35.0,1,0.0,0.17010100000015882
860,1,0.2,0.125,35.0,1,1.0,0.25840000000016516
861,1,0.2,1.0,35.0,1,1.0,0.24850000000014916
862,1,0.2,0.25,35.0,1,1.0,0.28510000000005675
863,1,0.2,0.25,35.0,1,1.0,0.27180000000043947
864,1,0.2,0.0625,35.0,1,1.0,0.38850000000002183
865,1,0.2,0.0625,35.0,1,1.0,0.1886010000002898
866,1,0.2,0.125,35.0,1,1.0,0.22200000000020736
867,1,0.2,0.125,35.0,1,1.0,0.26190000000042346
868,1,0.2,0.25,35.0,1,1.0,0.268601000000217
869,1,0.8,1.0,-35.0,-1,1.0,0.5687010000001465
870,1,0.8,0.0,-35.0,-1,1.0,0.30540000000019063
871,1,0.8,1.0,35.0,1,1.0,0.22210100000029342
872,1,0.8,1.0,35.0,1,1.0,0.23210000000017317
873,1,0.8,0.0625,-35.0,-1,1.0,3.88550000000032
874,1,0.8,0.0625,35.0,1,1.0,0.22550000000001091
875,1,0.8,1.0,35.0,1,1.0,0.12560000000030414
876,1,0.8,0.0625,-35.0,1,0.0,0.24900000000025102
877,1,0.8,0.125,-35.0,-1,1.0,0.32890000000043074
878,1,0.8,0.0625,-35.0,-1,1.0,0.36910000000034415
879,1,0.8,1.0,-35.0,-1,1.0,0.2323010000004615
880,1,0.8,1.0,-35.0,-1,1.0,0.2857010000002447
881,1,0.8,0.25,-35.0,-1,1.0,0.2591010000001006
882,1,0.8,0.0,-35.0,-1,1.0,5.20719999999983
883,1,0.8,1.0,35.0,1,1.0,0.2292010000001028
884,1,0.8,0.125,-35.0,-1,1.0,0.09080000000039945
885,1,0.8,0.125,35.0,1,1.0,0.4025000000001455
886,1,0.8,1.0,-35.0,-1,1.0,0.22590100000024904
887,1,0.8,0.0625,-35.0,-1,1.0,0.6145010000000184
888,1,0.8,0.125,-35.0,-1,1.0,0.3326999999999316
889,1,0.8,0.25,-35.0,-1,1.0,0.3560010000001057
890,1,0.8,1.0,-35.0,-1,1.0,0.2493000000004031
891,1,0.8,0.25,-35.0,-1,1.0,0.25600000000031287
892,1,0.8,0.25,-35.0,-1,1.0,0.27280000000018845
893,1,0.8,1.0,-35.0,-1,1.0,0.21280000000024302
894,1,0.8,0.25,-35.0,-1,1.0,0.31280100000003586
895,1,0.8,0.125,-35.0,-1,1.0,0.47119999999995343
896,1,0.8,1.0,35.0,1,1.0,0.22620000000006257
897,1,0.8,0.125,-35.0,-1,1.0,0.28620100000034654
898,1,0.8,0.0625,-35.0,-1,1.0,0.44630000000006476
899,1,0.8,0.0,-35.0,-1,1.0,3.426300000000083
900,1,0.8,0.0625,35.0,-1,0.0,0.23970000000053915
901,1,0.8,0.25,-35.0,-1,1.0,0.31640000000061264
902,1,0.8,1.0,-35.0,-1,1.0,0.27640000000019427
903,1,0.8,0.0,-35.0,-1,1.0,6.30980000000045
904,1,0.8,0.0625,-35.0,-1,1.0,0.42660100000057355
905,1,0.8,0.25,-35.0,-1,1.0,0.2998999999999796
906,1,0.8,0.125,-35.0,-1,1.0,0.3000000000001819
907,1,0.8,1.0,-35.0,-1,1.0,0.2266000000004169
908,1,0.8,0.125,-35.0,-1,1.0,0.24000000000023647
909,1,0.8,0.0625,-35.0,-1,1.0,0.2600000000002183
910,1,0.8,0.25,-35.0,-1,1.0,0.22339999999985594
911,1,0.8,1.0,-35.0,-1,1.0,0.24680000000034852
912,1,0.8,0.25,-35.0,-1,1.0,0.3368000000000393
913,1,0.2,0.0625,35.0,1,1.0,4.490099999999984
914,1,0.2,1.0,35.0,1,1.0,0.19020000000000437
915,1,0.2,0.0,35.0,-1,0.0,0.2903000000001157
916,1,0.2,0.0,35.0,-1,0.0,0.20700100000021848
917,1,0.2,1.0,35.0,1,1.0,0.1971000000003187
918,1,0.2,0.25,35.0,1,1.0,0.2636999999999716
919,1,0.2,1.0,-35.0,-1,1.0,0.3138000000003558
920,1,0.2,0.0,35.0,-1,0.0,0.48370000000068103
921,1,0.2,1.0,35.0,1,1.0,0.21050000000013824
922,1,0.2,1.0,-35.0,-1,1.0,0.2938010000002578
923,1,0.2,0.0625,35.0,-1,0.0,0.2072000000002845
924,1,0.2,1.0,35.0,1,1.0,0.18740000000025248
925,1,0.2,0.0625,35.0,1,1.0,0.27060100000016973
926,1,0.2,0.125,35.0,1,1.0,0.29399999999986903
927,1,0.2,0.25,35.0,1,1.0,0.2741000000000895
928,1,0.2,0.0625,35.0,1,1.0,0.197400000000016
929,1,0.2,0.125,35.0,1,1.0,0.2875000000003638
930,1,0.2,0.0625,35.0,-1,0.0,0.06090000000040163
931,1,0.2,0.0,35.0,1,1.0,0.1876009999996313
932,1,0.2,1.0,35.0,1,1.0,0.167601000000559
933,1,0.2,0.25,-35.0,-1,1.0,0.48090000000001965
934,1,0.2,1.0,35.0,1,1.0,0.1710000000002765
935,1,0.2,1.0,35.0,1,1.0,0.09440000000040527
936,1,0.2,0.0,35.0,1,1.0,0.33440000000064174
937,1,0.2,0.25,35.0,1,1.0,0.21450000000004366
938,1,0.2,0.125,35.0,1,1.0,0.13320000000021537
939,1,0.2,0.125,35.0,1,1.0,0.36790000000019063
940,1,0.2,1.0,35.0,1,1.0,0.26120100000071034
941,1,0.2,1.0,35.0,1,1.0,0.04970000000002983
942,1,0.2,0.25,35.0,1,1.0,0.24470100000007733
943,1,0.2,0.0,-35.0,1,0.0,0.29460000000017317
944,1,0.2,0.25,35.0,1,1.0,0.27460000000019136
945,1,0.2,1.0,35.0,1,1.0,0.22470000000021173
946,1,0.2,0.0625,35.0,1,1.0,0.5214010000004237
947,1,0.2,1.0,35.0,1,1.0,0.23150000000032378
948,1,0.2,0.125,35.0,1,1.0,0.35140000000001237
949,1,0.2,0.0,-35.0,1,0.0,0.27810000000044965
950,1,0.2,0.0625,-35.0,-1,1.0,0.23480000000017753
951,1,0.2,0.125,35.0,1,1.0,0.214900000000398
952,1,0.2,0.25,35.0,1,1.0,0.0682000000001608
953,1,0.2,0.0,-35.0,1,0.0,0.28490000000010696
954,1,0.2,0.125,35.0,1,1.0,0.23500000000012733
955,1,0.2,0.25,-35.0,-1,1.0,0.5050000000001091
956,1,0.2,1.0,35.0,1,1.0,0.2118000000000393
957,1,0.2,0.125,-35.0,-1,1.0,0.8684009999997215
958,1,0.2,1.0,35.0,1,1.0,0.21509999999989304
959,1,0.2,0.125,-35.0,1,0.0,4.938500000000204
960,1,0.2,0.125,35.0,1,1.0,0.2519000000002052
961,1,0.2,0.125,-35.0,1,0.0,0.27190000000064174
962,1,0.2,1.0,35.0,1,1.0,0.2487010000004375
963,1,0.2,1.0,35.0,1,1.0,0.22200100000009115
964,1,0.2,1.0,35.0,1,1.0,0.2154000000000451
965,1,0.2,0.0625,35.0,1,1.0,0.255500000000211
966,1,0.2,0.0625,-35.0,1,0.0,8.378799999999956
967,1,0.2,1.0,-35.0,-1,1.0,0.25890099999969607
968,1,0.2,1.0,35.0,1,1.0,0.21900100000038947
969,1,0.2,0.25,35.0,1,1.0,0.2723000000000866
970,1,0.2,0.0625,35.0,1,1.0,0.5590000000001965
971,1,0.2,0.25,35.0,1,1.0,0.25240000000030705
972,1,0.2,1.0,35.0,1,1.0,0.15070100000048114
973,1,0.2,0.0625,35.0,-1,0.0,0.32900000000017826
974,1,0.2,0.125,35.0,1,1.0,0.2591000000002168
975,1,0.2,0.0625,35.0,1,1.0,0.3291010000002643
976,1,0.2,0.25,35.0,1,1.0,0.27590100000043094
977,1,0.8,0.0625,-35.0,-1,1.0,0.27260000000023865
978,1,0.8,0.25,-35.0,-1,1.0,0.2793000000006032
979,1,0.8,0.0625,-35.0,-1,1.0,0.32260100000030434
980,1,0.8,0.125,35.0,1,1.0,0.2626000000004751
981,1,0.8,0.25,-35.0,-1,1.0,0.2693000000003849
982,1,0.8,0.0625,-35.0,-1,1.0,12.419400000000223
983,1,0.8,0.125,-35.0,-1,1.0,0.32290000000011787
984,1,0.8,0.0,-35.0,-1,1.0,0.3129010000002381
985,1,0.8,0.25,-35.0,-1,1.0,0.2096000000001368
986,1,0.8,0.25,-35.0,-1,1.0,0.2597000000000662
987,1,0.8,0.25,-35.0,-1,1.0,0.279700000000048
988,1,0.8,0.125,-35.0,-1,1.0,1.056300000000192
989,1,0.8,0.125,-35.0,-1,1.0,0.19310000000041327
990,1,0.8,0.125,-35.0,-1,1.0,0.31850000000031287
991,1,0.8,0.125,-35.0,-1,1.0,0.3164999999999054
992,1,0.8,0.0,35.0,-1,0.0,0.18650000000025102
993,1,0.8,0.25,-35.0,-1,1.0,0.2964999999999236
994,1,0.8,0.125,-35.0,-1,1.0,0.28000000000065484
995,1,0.8,0.25,-35.0,-1,1.0,0.19660000000021682
996,1,0.8,0.125,35.0,1,1.0,0.2233000000001084
997,1,0.8,0.0,-35.0,-1,1.0,0.24330000000009022
998,1,0.8,0.125,35.0,-1,0.0,0.3488000000002103
999,1,0.8,0.25,-35.0,-1,1.0,0.2634000000002743
1000,1,0.8,0.25,35.0,1,1.0,0.2100999999997839
1001,1,0.8,1.0,-35.0,-1,1.0,0.21010000000023865
1002,1,0.8,0.0,-35.0,-1,1.0,0.2869010000003982
1003,1,0.8,0.0,-35.0,-1,1.0,0.4269000000003871
1004,1,0.8,0.0,35.0,-1,0.0,0.37019999999984066
1005,1,0.8,0.25,-35.0,-1,1.0,0.32360000000016953
1006,1,0.8,0.125,-35.0,-1,1.0,0.25700000000006185
1007,1,0.8,1.0,-35.0,-1,1.0,0.22040100000003804
1008,1,0.8,1.0,-35.0,-1,1.0,0.2371000000002823
1009,1,0.8,0.125,-35.0,-1,1.0,0.6471000000001368
1010,1,0.8,0.0625,-35.0,-1,1.0,0.2604000000005726
1011,1,0.8,0.25,-35.0,-1,1.0,0.22040100000003804
1012,1,0.8,0.25,-35.0,-1,1.0,0.24379999999973734
1013,1,0.8,0.125,-35.0,-1,1.0,0.24380100000007587
1014,1,0.8,1.0,-35.0,-1,1.0,0.2272000000002663
1015,1,0.8,0.25,35.0,1,1.0,0.04250000000001819
1016,1,0.2,0.125,35.0,1,1.0,0.12720100000024104
1017,1,0.2,0.0625,-35.0,-1,1.0,0.3506000000002132
1018,1,0.2,0.125,35.0,-1,0.0,0.41060000000061336
1019,1,0.2,0.125,35.0,1,1.0,0.0739000000003216
1020,1,0.2,1.0,35.0,1,1.0,0.11730000000034124
1021,1,0.2,0.25,35.0,-1,0.0,0.5808000000001812
1022,1,0.2,1.0,35.0,1,1.0,0.24420000000009168
1023,1,0.2,1.0,35.0,1,1.0,0.21410000000014406
1024,1,0.2,1.0,35.0,1,1.0,0.20080000000007203
1025,1,0.2,0.125,35.0,1,1.0,0.21410000000014406
1026,1,0.2,1.0,35.0,1,1.0,0.19090000000005602
1027,1,0.2,0.125,-35.0,-1,1.0,2.104301000000305
1028,1,0.2,0.125,35.0,1,1.0,0.20430100000066886
1029,1,0.2,0.125,-35.0,-1,1.0,0.23100000000022192
1030,1,0.2,0.25,35.0,1,1.0,0.20100000000002183
1031,1,0.2,1.0,35.0,1,1.0,0.20780000000013388
1032,1,0.2,0.25,-35.0,-1,1.0,0.29109999999991487
1033,1,0.2,0.0625,35.0,1,1.0,0.059200000000600994
1034,1,0.2,0.25,35.0,1,1.0,11.714500000000044
1035,1,0.2,0.25,35.0,1,1.0,9.038099999999758
1036,1,0.2,0.0625,35.0,1,1.0,0.24490000000059808
1037,1,0.2,1.0,35.0,1,1.0,0.2116000000000895
1038,1,0.2,0.125,-35.0,-1,1.0,14.49499999999989
1039,1,0.2,1.0,35.0,1,1.0,0.17190000000027794
1040,1,0.2,0.25,35.0,1,1.0,0.2653009999999085
1041,1,0.2,1.0,-35.0,-1,1.0,0.6420000000002801
1042,1,0.2,0.125,35.0,1,1.0,2.012000000000171
1043,1,0.2,0.25,35.0,1,1.0,12.908699999999953
1044,1,0.2,0.0625,35.0,1,1.0,5.988900000000285
1045,1,0.2,0.0625,35.0,1,1.0,0.5124000000000706
1046,1,0.2,0.25,35.0,1,1.0,11.47250000000031
1047,1,0.2,0.25,-35.0,-1,1.0,2.6327000000001135
1048,1,0.2,1.0,35.0,1,1.0,5.1829000000007
1049,1,0.2,0.125,35.0,1,1.0,8.979600000000119
1050,1,0.2,0.125,35.0,1,1.0,12.53320100000019
1051,1,0.2,1.0,35.0,1,1.0,0.22340000000031068
1052,1,0.2,1.0,35.0,1,1.0,4.836700000000292
1053,1,0.2,0.25,35.0,1,1.0,6.633500000000367
1054,1,0.2,0.0625,35.0,1,1.0,4.203600000000279
1055,1,0.2,1.0,35.0,1,1.0,0.2837000000004082
1,2,0.2,0.0,35.0,1,1.0,0.38249999999999995
2,2,0.2,0.0,-35.0,1,0.0,0.300600000000002
3,2,0.2,0.25,35.0,1,1.0,0.36350000000000016
4,2,0.2,0.0,-35.0,1,0.0,0.39860000000000007
5,2,0.2,1.0,35.0,1,1.0,0.19109999999999872
6,2,0.2,1.0,35.0,1,1.0,0.20770099999999658
7,2,0.2,0.0625,35.0,-1,0.0,0.2892009999999985
8,2,0.2,1.0,35.0,1,1.0,0.26060000000000016
9,2,0.2,1.0,35.0,1,1.0,0.37869999999999493
10,2,0.2,0.0625,35.0,1,1.0,0.33029999999999404
11,2,0.2,0.25,-35.0,-1,1.0,0.34539999999999793
12,2,0.2,0.0625,35.0,1,1.0,0.5850009999999983
13,2,0.2,0.125,35.0,-1,0.0,0.5796999999999954
14,2,0.2,0.25,35.0,1,1.0,0.4782999999999973
15,2,0.2,0.25,-35.0,-1,1.0,-0.013200000000004763
16,2,0.2,0.25,35.0,1,1.0,0.2560009999999906
17,2,0.2,0.0625,35.0,-1,0.0,0.3442010000000053
18,2,0.2,0.0625,35.0,1,1.0,0.455600000000004
19,2,0.2,0.125,35.0,1,1.0,0.4445010000000025
20,2,0.2,1.0,35.0,1,1.0,0.45790099999999256
21,2,0.2,0.25,35.0,1,1.0,0.4668009999999967
22,2,0.2,1.0,35.0,1,1.0,0.3895999999999944
23,2,0.2,0.0625,-35.0,-1,1.0,0.4883000000000024
24,2,0.2,0.125,-35.0,-1,1.0,0.5965010000000035
25,2,0.2,0.0625,35.0,1,1.0,0.39059999999999206
26,2,0.2,0.125,-35.0,-1,1.0,0.2590009999999978
27,2,0.2,0.25,35.0,1,1.0,0.47039999999999793
28,2,0.2,0.0625,35.0,1,1.0,0.38720099999999036
29,2,0.2,0.25,35.0,1,1.0,0.24390099999999393
30,2,0.2,0.0,35.0,1,1.0,0.30230099999999993
31,2,0.2,0.0625,35.0,1,1.0,0.2937000000000012
32,2,0.2,0.25,35.0,1,1.0,0.4813999999999936
33,2,0.2,1.0,35.0,1,1.0,0.375
34,2,0.2,0.25,35.0,1,1.0,0.33330000000000837
35,2,0.2,1.0,35.0,1,1.0,0.3275000000000148
36,2,0.2,0.25,35.0,1,1.0,0.539000999999999
37,2,0.2,0.25,35.0,1,1.0,0.26549999999998875
38,2,0.2,0.25,-35.0,-1,1.0,0.2973999999999961
39,2,0.2,0.0625,-35.0,1,0.0,4.3940000000000055
40,2,0.2,0.0,35.0,1,1.0,0.19639999999999702
41,2,0.2,0.125,35.0,1,1.0,0.34440000000000737
42,2,0.2,0.25,35.0,1,1.0,0.31690100000000143
43,2,0.8,0.25,-35.0,-1,1.0,0.31989999999998986
44,2,0.8,0.0,35.0,1,1.0,0.32399999999999807
45,2,0.8,0.25,-35.0,-1,1.0,1.4668000000000063
46,2,0.8,1.0,-35.0,-1,1.0,0.24890099999998938
47,2,0.8,0.25,-35.0,-1,1.0,0.4205000000000041
48,2,0.8,0.0,-35.0,-1,1.0,0.38530000000000086
49,2,0.8,0.125,-35.0,-1,1.0,0.19320099999998774
50,2,0.8,0.0625,-35.0,1,0.0,0.4609999999999843
51,2,0.8,0.0625,-35.0,-1,1.0,0.3533999999999935
52,2,0.8,0.125,-35.0,-1,1.0,0.21210000000002083
53,2,0.8,1.0,-35.0,-1,1.0,0.7232999999999947
54,2,0.8,0.0625,-35.0,-1,1.0,0.45410000000003947
55,2,0.8,0.125,-35.0,-1,1.0,0.36119999999999663
56,2,0.8,1.0,-35.0,-1,1.0,0.23090000000001965
57,2,0.8,0.0625,-35.0,-1,1.0,0.2548009999999863
58,2,0.8,0.0,35.0,-1,0.0,0.2937000000000012
59,2,0.8,0.0625,-35.0,-1,1.0,0.21860099999997828
60,2,0.8,0.125,-35.0,-1,1.0,0.2540010000000166
61,2,0.8,0.25,35.0,1,1.0,0.5320999999999856
62,2,0.8,0.0625,-35.0,-1,1.0,0.2670999999999992
63,2,0.8,0.125,-35.0,-1,1.0,0.32640100000000416
64,2,0.8,0.25,-35.0,-1,1.0,0.25099999999997635
65,2,0.8,0.0625,-35.0,-1,1.0,0.6242009999999993
66,2,0.8,0.25,-35.0,-1,1.0,0.12330000000000041
67,2,0.8,0.125,-35.0,-1,1.0,0.22499999999999432
68,2,0.8,0.125,-35.0,-1,1.0,0.28010100000000193
69,2,0.8,0.0625,-35.0,-1,1.0,0.6110000000000184
70,2,0.8,0.0625,-35.0,-1,1.0,0.45190100000002076
71,2,0.8,0.0625,-35.0,-1,1.0,0.4321000000000197
72,2,0.8,0.125,-35.0,-1,1.0,0.39229999999997744
73,2,0.8,0.25,-35.0,-1,1.0,0.2612000000000023
74,2,0.8,0.25,-35.0,-1,1.0,0.11019999999999186
75,2,0.8,0.0625,-35.0,-1,1.0,5.2531999999999925
76,2,0.8,0.125,-35.0,-1,1.0,0.17549999999999955
77,2,0.8,0.0625,-35.0,-1,1.0,0.5508000000000095
78,2,0.8,0.25,-35.0,-1,1.0,0.3540999999999883
79,2,0.8,0.25,-35.0,-1,1.0,0.2844000000000051
80,2,0.8,0.125,35.0,1,1.0,0.43430000000000746
81,2,0.8,0.0625,-35.0,1,0.0,0.5555999999999983
82,2,0.8,0.125,-35.0,-1,1.0,0.22070099999999115
83,2,0.8,1.0,-35.0,-1,1.0,0.4650999999999783
84,2,0.8,1.0,-35.0,-1,1.0,0.20799999999997
85,2,0.8,0.25,-35.0,-1,1.0,0.2674000000000092
86,2,0.8,0.25,-35.0,-1,1.0,0.3254000000000019
87,2,0.8,0.0625,-35.0,-1,1.0,0.5725009999999884
88,2,0.8,0.125,-35.0,-1,1.0,0.11940000000001305
89,2,0.2,1.0,35.0,1,1.0,0.24619999999998754
90,2,0.2,0.125,35.0,1,1.0,0.3439999999999941
91,2,0.2,0.25,-35.0,-1,1.0,0.21539999999998827
92,2,0.2,0.125,35.0,1,1.0,0.362199999999973
93,2,0.2,1.0,35.0,1,1.0,0.348700000000008
94,2,0.2,0.0625,35.0,1,1.0,0.5200000000000387
95,2,0.2,0.0,-35.0,-1,1.0,0.3791999999999689
96,2,0.2,0.0625,35.0,-1,0.0,0.35810000000003583
97,2,0.2,0.125,35.0,1,1.0,0.4644000000000119
98,2,0.2,0.125,-35.0,-1,1.0,0.27750000000003183
99,2,0.2,0.0625,35.0,1,1.0,0.376199999999983
100,2,0.2,0.0625,-35.0,-1,1.0,0.21659999999997126
101,2,0.2,0.25,35.0,1,1.0,0.4356000000000222
102,2,0.2,0.125,35.0,1,1.0,0.47249999999996817
103,2,0.2,0.0625,35.0,-1,0.0,0.23839999999995598
104,2,0.2,0.25,35.0,1,1.0,0.32269999999999754
105,2,0.2,0.125,-35.0,-1,1.0,0.27350000000001273
106,2,0.2,0.125,35.0,1,1.0,0.4753999999999792
107,2,0.2,1.0,-35.0,-1,1.0,0.22950000000003
108,2,0.2,0.25,35.0,1,1.0,0.18240099999997028
109,2,0.2,1.0,35.0,1,1.0,0.3453999999999837
110,2,0.2,0.25,35.0,1,1.0,0.498299999999972
111,2,0.2,0.0,35.0,-1,0.0,0.45849999999995816
112,2,0.2,0.25,-35.0,-1,1.0,0.33740000000000236
113,2,0.2,0.125,35.0,1,1.0,0.34060099999993554
114,2,0.2,1.0,35.0,1,1.0,0.17499999999995453
115,2,0.2,0.125,35.0,-1,0.0,0.4645999999999617
116,2,0.2,0.125,35.0,1,1.0,0.3358000000000061
117,2,0.2,0.0625,35.0,-1,0.0,0.6555000000000177
118,2,0.2,0.0625,35.0,1,1.0,0.7655999999999494
119,2,0.2,0.0625,-35.0,-1,1.0,0.6310000000000286
120,2,0.2,0.0625,-35.0,-1,1.0,0.3149999999999977
121,2,0.2,1.0,-35.0,-1,1.0,0.3353000000000179
122,2,0.2,0.25,35.0,-1,0.0,0.35269999999997026
123,2,0.2,0.0625,35.0,1,1.0,0.6087999999999738
124,2,0.2,0.25,35.0,1,1.0,0.21649999999999636
125,2,0.2,0.125,35.0,1,1.0,0.4107000000000198
126,2,0.2,1.0,35.0,1,1.0,0.358099999999979
127,2,0.8,0.125,-35.0,-1,1.0,5.146499999999946
128,2,0.8,0.125,-35.0,1,0.0,0.3539000000000101
129,2,0.8,0.0625,-35.0,-1,1.0,0.3059999999999832
130,2,0.8,0.125,-35.0,-1,1.0,2.2384010000000103
131,2,0.8,1.0,-35.0,-1,1.0,3.4424999999999955
132,2,0.8,0.0,-35.0,-1,1.0,0.22040000000004056
133,2,0.8,0.25,-35.0,-1,1.0,0.36930000000000973
134,2,0.8,0.125,-35.0,-1,1.0,0.25729999999998654
135,2,0.8,1.0,-35.0,-1,1.0,0.2866000000000213
136,2,0.8,0.125,-35.0,-1,1.0,0.27549999999996544
137,2,0.8,0.25,35.0,1,1.0,0.46870000000001255
138,2,0.8,0.0625,-35.0,-1,1.0,0.23160100000001194
139,2,0.8,1.0,-35.0,-1,1.0,0.2149000000000001
140,2,0.8,0.0,-35.0,1,0.0,0.4048010000000204
141,2,0.8,0.0,-35.0,-1,1.0,0.35049999999995407
142,2,0.8,0.125,-35.0,-1,1.0,0.5677009999999996
143,2,0.8,0.0625,-35.0,-1,1.0,0.11469999999997071
144,2,0.8,0.125,-35.0,-1,1.0,5.127900000000011
145,2,0.8,0.0625,-35.0,-1,1.0,0.48659999999995307
146,2,0.8,1.0,35.0,1,1.0,0.37460100000004104
147,2,0.8,0.125,-35.0,-1,1.0,2.7952999999999975
148,2,0.8,1.0,-35.0,-1,1.0,0.2717999999999847
149,2,0.8,0.0625,-35.0,-1,1.0,0.35520000000002483
150,2,0.8,0.0625,35.0,-1,0.0,0.24729999999999563
151,2,0.8,0.25,35.0,1,1.0,0.3106999999999971
152,2,0.2,0.25,-35.0,-1,1.0,0.13990000000001146
153,2,0.2,0.125,35.0,1,1.0,0.5220000000000482
154,2,0.2,1.0,35.0,1,1.0,0.31700100000000475
155,2,0.2,0.0625,35.0,-1,0.0,0.1552000000000362
156,2,0.2,0.0625,35.0,-1,0.0,0.22109999999997854
157,2,0.2,1.0,35.0,1,1.0,0.24060099999996964
158,2,0.2,0.0,-35.0,-1,1.0,0.2769000000000119
159,2,0.2,0.125,35.0,-1,0.0,1.825900000000047
160,2,0.2,1.0,35.0,1,1.0,0.272700000000043
161,2,0.2,0.25,35.0,1,1.0,0.43760000000003174
162,2,0.2,0.0625,-35.0,-1,1.0,0.32059999999995625
163,2,0.2,1.0,35.0,1,1.0,0.31080000000002883
164,2,0.2,0.0625,-35.0,-1,1.0,0.367999999999995
165,2,0.2,0.25,35.0,1,1.0,0.4324999999999477
166,2,0.2,1.0,35.0,1,1.0,0.3393010000000345
167,2,0.2,1.0,-35.0,-1,1.0,0.2596999999999525
168,2,0.2,0.0625,35.0,1,1.0,0.3901000000000181
169,2,0.2,0.0,35.0,1,1.0,0.3885999999999967
170,2,0.2,0.125,35.0,1,1.0,0.3087000000000444
171,2,0.2,0.25,35.0,1,1.0,0.29370099999999866
172,2,0.2,1.0,-35.0,-1,1.0,0.49870099999998274
173,2,0.2,0.125,-35.0,1,0.0,0.13469999999995252
174,2,0.2,0.25,35.0,1,1.0,0.3553999999999746
175,2,0.2,0.0,-35.0,-1,1.0,7.562999999999988
176,2,0.2,0.0,35.0,-1,0.0,0.22570099999995819
177,2,0.2,1.0,35.0,1,1.0,0.27579999999989013
178,2,0.2,0.125,35.0,1,1.0,0.31840100000010807
179,2,0.2,0.0625,35.0,1,1.0,0.24540000000001783
180,2,0.2,0.125,35.0,1,1.0,0.36549999999999727
181,2,0.2,1.0,-35.0,-1,1.0,0.3127000000000635
182,2,0.2,0.0625,35.0,1,1.0,0.20860100000004422
183,2,0.2,1.0,35.0,1,1.0,0.3345999999999094
184,2,0.2,0.25,35.0,1,1.0,0.2847000000000435
185,2,0.2,0.25,35.0,1,1.0,0.38900000000001
186,2,0.2,1.0,35.0,1,1.0,0.31560000000001764
187,2,0.2,0.0,35.0,-1,0.0,0.43479999999999563
188,2,0.2,0.125,35.0,-1,0.0,0.4857999999999265
189,2,0.2,0.0625,35.0,1,1.0,0.28890000000001237
190,2,0.2,1.0,-35.0,-1,1.0,0.2522999999999911
191,2,0.2,0.0625,35.0,1,1.0,0.45709999999985484
192,2,0.2,0.0625,-35.0,-1,1.0,0.6100000000000136
193,2,0.2,1.0,35.0,1,1.0,0.28309999999999036
194,2,0.2,0.25,35.0,1,1.0,0.46480000000008204
195,2,0.2,0.0,35.0,-1,0.0,0.6888010000000122
196,2,0.2,0.125,35.0,1,1.0,0.3074010000000271
197,2,0.2,0.0,35.0,-1,0.0,0.20839999999998327
198,2,0.2,0.125,-35.0,-1,1.0,0.3028000000000475
199,2,0.2,1.0,35.0,1,1.0,0.22699999999997544
200,2,0.2,0.25,35.0,1,1.0,0.2754010000001017
201,2,0.2,1.0,-35.0,-1,1.0,0.30989999999997053
202,2,0.2,0.0625,35.0,1,1.0,0.3843009999999367
203,2,0.2,0.125,35.0,1,1.0,0.341199999999958
204,2,0.2,1.0,35.0,1,1.0,0.3162999999999556
205,2,0.2,0.125,35.0,1,1.0,0.4330009999999902
206,2,0.2,0.25,35.0,1,1.0,0.8586999999999989
207,2,0.2,1.0,35.0,1,1.0,0.27300000000013824
208,2,0.2,1.0,-35.0,-1,1.0,0.38659999999993033
209,2,0.2,0.25,35.0,1,1.0,0.2477000000000089
210,2,0.2,0.125,35.0,1,1.0,0.2867999999999711
211,2,0.2,1.0,-35.0,-1,1.0,0.26689999999996417
212,2,0.2,1.0,-35.0,-1,1.0,0.4210999999999103
213,2,0.2,0.125,35.0,1,1.0,0.41020000000003165
214,2,0.2,0.0625,-35.0,1,0.0,0.692401000000018
215,2,0.2,0.125,35.0,1,1.0,0.31470100000001366
216,2,0.2,0.0625,-35.0,-1,1.0,4.831999999999994
217,2,0.2,0.25,35.0,1,1.0,0.30780000000004293
218,2,0.2,0.25,35.0,1,1.0,0.26660000000003947
219,2,0.2,0.25,-35.0,-1,1.0,0.4692999999999756
220,2,0.8,0.0,35.0,1,1.0,0.3060010000001512
221,2,0.8,0.0625,-35.0,1,0.0,0.28949999999997544
222,2,0.8,0.25,-35.0,-1,1.0,0.32550000000003365
223,2,0.8,1.0,-35.0,-1,1.0,0.2555999999999585
224,2,0.8,0.0625,-35.0,-1,1.0,0.3352999999999611
225,2,0.8,0.0,35.0,-1,0.0,4.342300000000023
226,2,0.8,0.25,35.0,1,1.0,0.36219999999991614
227,2,0.8,0.125,-35.0,-1,1.0,0.23640000000000327
228,2,0.8,0.25,-35.0,-1,1.0,0.2581000000000131
229,2,0.8,0.125,-35.0,-1,1.0,1.1470999999999094
230,2,0.8,0.0625,-35.0,-1,1.0,0.22730000000001382
231,2,0.8,0.25,-35.0,-1,1.0,0.24879999999996016
232,2,0.8,0.125,35.0,1,1.0,0.21600000000000819
233,2,0.8,0.25,-35.0,-1,1.0,0.18810000000007676
234,2,0.8,0.25,35.0,1,1.0,0.41649999999992815
235,2,0.8,0.125,-35.0,-1,1.0,0.399599999999964
236,2,0.8,0.125,-35.0,-1,1.0,0.25920000000007803
237,2,0.8,0.125,-35.0,-1,1.0,0.2228010000001177
238,2,0.8,1.0,35.0,1,1.0,0.27120000000002165
239,2,0.8,0.0625,-35.0,-1,1.0,0.258199999999988
240,2,0.8,0.0625,35.0,1,1.0,0.4123010000000704
241,2,0.8,0.0625,-35.0,-1,1.0,0.23820000000000618
242,2,0.8,0.0,-35.0,1,0.0,0.18880000000001473
243,2,0.8,0.125,35.0,1,1.0,0.3795999999999822
244,2,0.8,0.125,-35.0,-1,1.0,0.5740000000000691
245,2,0.8,0.25,-35.0,-1,1.0,0.22050000000001546
246,2,0.8,0.0625,-35.0,-1,1.0,0.859299999999962
247,2,0.8,0.0,35.0,-1,0.0,0.31560000000001764
248,2,0.8,1.0,-35.0,-1,1.0,0.2341000000000122
249,2,0.8,0.125,-35.0,-1,1.0,0.25469999999995707
250,2,0.8,0.0625,35.0,1,1.0,0.26700000000005275
251,2,0.8,0.25,-35.0,-1,1.0,0.5167000000000144
252,2,0.8,0.25,-35.0,-1,1.0,0.22299999999995634
253,2,0.8,0.0625,-35.0,-1,1.0,0.19650000000001455
254,2,0.8,0.0625,-35.0,-1,1.0,0.41250000000002274
255,2,0.8,0.0625,-35.0,-1,1.0,0.19640000000003965
256,2,0.8,0.0625,-35.0,1,0.0,0.4315000000000282
257,2,0.8,0.25,-35.0,-1,1.0,0.24250000000006366
258,2,0.8,0.0625,-35.0,-1,1.0,0.3442000000000007
259,2,0.8,0.25,-35.0,-1,1.0,0.1891010000000506
260,2,0.8,0.125,-35.0,-1,1.0,0.20180000000004839
261,2,0.8,0.0625,-35.0,1,0.0,0.15419999999994616
262,2,0.8,0.125,-35.0,-1,1.0,0.24839999999994689
263,2,0.8,0.0,-35.0,-1,1.0,0.2966999999998734
264,2,0.8,0.25,-35.0,-1,1.0,0.27710000000013224
265,2,0.8,1.0,-35.0,-1,1.0,0.5431999999999562
266,2,0.8,0.0,-35.0,-1,1.0,4.361400000000003
267,2,0.8,0.125,-35.0,-1,1.0,0.21920099999988452
268,2,0.8,0.0,-35.0,-1,1.0,0.22889999999995325
269,2,0.8,0.25,-35.0,-1,1.0,0.3025000000000091
270,2,0.8,0.125,-35.0,-1,1.0,0.2553010000000313
271,2,0.8,0.25,35.0,-1,0.0,0.5154999999999745
272,2,0.8,0.25,-35.0,-1,1.0,0.2598999999999023
273,2,0.8,0.125,-35.0,-1,1.0,0.14549999999997
274,2,0.8,0.0,-35.0,1,0.0,0.46119999999996253
275,2,0.8,1.0,-35.0,-1,1.0,0.29700100000002294
276,2,0.8,0.25,-35.0,-1,1.0,2.291900000000055
277,2,0.2,0.25,35.0,1,1.0,0.2173010000000204
278,2,0.2,1.0,-35.0,-1,1.0,0.3126999999999498
279,2,0.2,0.0,35.0,-1,0.0,0.2826999999999771
280,2,0.2,1.0,35.0,1,1.0,0.2880000000000109
281,2,0.2,1.0,-35.0,-1,1.0,0.2320999999999458
282,2,0.2,0.25,35.0,1,1.0,0.45429999999998927
283,2,0.2,1.0,35.0,1,1.0,0.19259999999997035
284,2,0.2,0.0,35.0,-1,0.0,0.45879999999999654
285,2,0.2,0.25,35.0,1,1.0,0.3977999999999611
286,2,0.2,0.125,-35.0,1,0.0,0.48440100000004804
287,2,0.2,0.0,35.0,1,1.0,0.4920999999999367
288,2,0.2,0.125,35.0,1,1.0,0.3318010000000413
289,2,0.2,0.0,35.0,1,1.0,0.39229999999997744
290,2,0.2,0.0625,-35.0,-1,1.0,0.30389999999988504
291,2,0.2,1.0,-35.0,-1,1.0,0.27359999999998763
292,2,0.2,0.25,35.0,1,1.0,0.29529999999988377
293,2,0.2,0.125,35.0,1,1.0,0.373299999999972
294,2,0.2,0.0625,35.0,-1,0.0,0.5457999999999856
295,2,0.2,0.125,35.0,1,1.0,0.2766999999998916
296,2,0.2,0.0625,35.0,1,1.0,0.3269999999999982
297,2,0.2,1.0,35.0,1,1.0,0.22439999999994598
298,2,0.2,0.25,35.0,1,1.0,0.25660000000016225
299,2,0.2,1.0,35.0,1,1.0,0.24450100000001385
300,2,0.2,0.25,35.0,1,1.0,0.27520000000004075
301,2,0.2,0.125,35.0,1,1.0,0.32149999999990087
302,2,0.2,1.0,35.0,1,1.0,0.2492010000000846
303,2,0.2,0.25,35.0,1,1.0,0.22319999999990614
304,2,0.2,1.0,35.0,1,1.0,0.2337999999999738
305,2,0.2,0.0625,35.0,1,1.0,0.3652999999999338
306,2,0.2,0.25,35.0,1,1.0,0.13159999999993488
307,2,0.2,1.0,35.0,1,1.0,0.31150000000002365
308,2,0.2,0.0625,35.0,1,1.0,0.35940000000005057
309,2,0.2,0.0625,35.0,1,1.0,0.477301000000125
310,2,0.2,0.25,35.0,1,1.0,0.4211999999999989
311,2,0.2,0.0625,-35.0,1,0.0,0.5798999999999523
312,2,0.2,1.0,35.0,1,1.0,0.28070100000002185
313,2,0.2,1.0,35.0,1,1.0,0.22649999999998727
314,2,0.2,0.0625,-35.0,1,0.0,0.3672000000000253
315,2,0.2,0.0,-35.0,1,0.0,0.2902000000000271
316,2,0.2,0.25,-35.0,1,0.0,0.38649999999995543
317,2,0.2,1.0,-35.0,-1,1.0,0.24669999999991887
318,2,0.2,0.125,35.0,1,1.0,0.30149999999991905
319,2,0.2,0.25,35.0,1,1.0,0.09140000000002146
320,2,0.2,0.0625,-35.0,-1,1.0,0.7265010000000984
321,2,0.2,0.25,35.0,1,1.0,0.3423999999999978
322,2,0.2,0.25,-35.0,-1,1.0,0.21860100000003513
323,2,0.2,0.125,35.0,-1,0.0,0.5608000000000857
324,2,0.2,0.0625,35.0,-1,0.0,0.4335999999999558
325,2,0.2,1.0,35.0,1,1.0,0.2600000000001046
326,2,0.2,0.0,35.0,1,1.0,0.3351999999999862
327,2,0.2,0.0625,35.0,1,1.0,0.2834010000000262
328,2,0.2,0.25,35.0,1,1.0,0.2476010000000315
329,2,0.2,1.0,35.0,1,1.0,0.21609999999998308
330,2,0.2,1.0,35.0,1,1.0,0.23949999999990723
331,2,0.2,0.0625,35.0,1,1.0,0.4168010000000777
332,2,0.2,0.125,35.0,1,1.0,0.20750099999997929
333,2,0.2,0.0625,-35.0,1,0.0,0.351099999999974
334,2,0.2,1.0,35.0,1,1.0,0.2797009999999318
335,2,0.2,0.25,-35.0,-1,1.0,0.44849999999996726
336,2,0.2,0.125,35.0,1,1.0,0.38850000000002183
337,2,0.2,1.0,35.0,1,1.0,0.23249999999995907
338,2,0.2,0.125,35.0,1,1.0,0.39160000000003947
339,2,0.2,0.0625,35.0,1,1.0,0.35140000000001237
340,2,0.2,0.125,-35.0,-1,1.0,0.3362999999999374
341,2,0.2,0.0625,35.0,-1,0.0,0.2642000000000735
342,2,0.2,0.0,35.0,1,1.0,0.41380099999992126
343,2,0.2,0.0625,35.0,1,1.0,0.2922009999999773
344,2,0.8,0.25,-35.0,-1,1.0,0.2999999999999545
345,2,0.8,1.0,-35.0,-1,1.0,0.11040000000002692
346,2,0.8,0.125,35.0,1,1.0,0.634200000000078
347,2,0.8,1.0,-35.0,-1,1.0,0.21070100000008551
348,2,0.8,1.0,35.0,1,1.0,0.21200000000010277
349,2,0.8,0.25,-35.0,1,0.0,0.5215010000000575
350,2,0.8,0.0,-35.0,1,0.0,0.29140000000006694
351,2,0.8,0.0625,-35.0,-1,1.0,0.26670000000012806
352,2,0.8,0.0,-35.0,-1,1.0,0.3126999999999498
353,2,0.8,1.0,35.0,1,1.0,0.2684000000000424
354,2,0.8,0.125,-35.0,1,0.0,0.0981010000000424
355,2,0.8,0.25,-35.0,-1,1.0,0.2978009999999358
356,2,0.8,1.0,-35.0,-1,1.0,0.33780000000001564
357,2,0.8,1.0,35.0,1,1.0,0.31790000000000873
358,2,0.8,0.125,-35.0,1,0.0,0.3613000000000284
359,2,0.8,0.25,-35.0,-1,1.0,0.5213999999998578
360,2,0.8,0.0,-35.0,-1,1.0,0.438199999999938
361,2,0.8,0.25,-35.0,-1,1.0,0.05150100000003022
362,2,0.8,0.0,-35.0,1,0.0,0.3947999999999183
363,2,0.8,0.0625,-35.0,-1,1.0,0.2418000000001257
364,2,0.8,0.0625,-35.0,-1,1.0,0.45479999999997744
365,2,0.8,0.125,-35.0,-1,1.0,0.29160000000001673
366,2,0.8,1.0,35.0,1,1.0,0.27149999999983265
367,2,0.8,1.0,-35.0,-1,1.0,0.20849999999995816
368,2,0.8,0.25,-35.0,-1,1.0,0.2115000000001146
369,2,0.8,0.25,35.0,1,1.0,0.26139999999986685
370,2,0.8,1.0,-35.0,-1,1.0,0.2617999999999938
371,2,0.8,0.0,-35.0,-1,1.0,0.24500100000000202
372,2,0.8,0.125,-35.0,-1,1.0,0.18519999999989523
373,2,0.8,0.25,-35.0,-1,1.0,0.2183999999997468
374,2,0.8,0.0,-35.0,-1,1.0,0.271900000000187
375,2,0.8,0.25,-35.0,-1,1.0,0.19209999999998217
376,2,0.8,0.125,35.0,-1,0.0,0.2150010000000293
377,2,0.8,0.0,-35.0,-1,1.0,0.6519000000000688
378,2,0.8,0.25,-35.0,-1,1.0,0.2453010000001541
379,2,0.8,0.0625,-35.0,-1,1.0,0.20890099999996892
380,2,0.8,0.0625,35.0,1,1.0,0.45879999999988286
381,2,0.8,0.0625,-35.0,-1,1.0,0.3687999999999647
382,2,0.8,1.0,-35.0,-1,1.0,0.18889999999987594
383,2,0.8,0.25,-35.0,-1,1.0,0.22890000000006694
384,2,0.8,0.0625,35.0,-1,0.0,0.22530000000006112
385,2,0.8,0.0625,-35.0,-1,1.0,0.23550000000000182
386,2,0.8,0.25,-35.0,-1,1.0,0.21890000000007603
387,2,0.8,0.125,-35.0,-1,1.0,0.2558999999998832
388,2,0.8,0.0625,-35.0,-1,1.0,0.24579999999991742
389,2,0.8,0.125,-35.0,-1,1.0,0.21899999999982356
390,2,0.8,0.125,-35.0,-1,1.0,0.16560000000004038
391,2,0.8,1.0,-35.0,-1,1.0,0.19229999999993197
392,2,0.8,0.0625,-35.0,-1,1.0,0.2059999999999036
393,2,0.8,0.0625,-35.0,-1,1.0,0.21580100000005586
394,2,0.8,1.0,-35.0,-1,1.0,0.27240099999994527
395,2,0.8,1.0,-35.0,-1,1.0,0.4358999999999469
396,2,0.8,0.0625,-35.0,-1,1.0,0.5955000000001291
397,2,0.8,0.0625,-35.0,-1,1.0,0.21260000000006585
398,2,0.8,0.0625,-35.0,-1,1.0,0.2759000000000924
399,2,0.8,0.125,-35.0,-1,1.0,0.31569999999987886
400,2,0.8,0.125,-35.0,-1,1.0,0.2159999999998945
401,2,0.8,1.0,-35.0,-1,1.0,0.5893000000000939
402,2,0.8,0.0625,35.0,-1,0.0,0.20610000000010587
403,2,0.8,0.25,-35.0,-1,1.0,0.1830000000002201
404,2,0.8,0.125,-35.0,-1,1.0,0.21280099999989943
405,2,0.8,0.125,-35.0,-1,1.0,0.19620000000008986
406,2,0.8,0.25,-35.0,-1,1.0,0.19600100000002385
407,2,0.8,1.0,-35.0,-1,1.0,0.22640000000001237
408,2,0.8,1.0,-35.0,-1,1.0,0.24939999999992324
409,2,0.8,0.125,-35.0,-1,1.0,0.2296000000001186
410,2,0.8,0.0625,-35.0,-1,1.0,0.4430999999999585
411,2,0.8,1.0,-35.0,-1,1.0,0.1929010000001199
412,2,0.8,0.125,-35.0,-1,1.0,0.22000000000025466
413,2,0.8,0.0625,-35.0,-1,1.0,0.2361999999998261
414,2,0.8,1.0,35.0,1,1.0,0.383199999999988
415,2,0.8,0.25,-35.0,-1,1.0,0.4598000000000866
416,2,0.8,0.125,-35.0,-1,1.0,0.19319999999993342
417,2,0.8,0.125,-35.0,-1,1.0,0.24000099999989288
418,2,0.8,0.25,-35.0,-1,1.0,0.2563999999999851
419,2,0.8,0.125,-35.0,-1,1.0,0.31310099999996055
420,2,0.8,0.0,-35.0,-1,1.0,0.33979999999996835
421,2,0.8,0.25,-35.0,-1,1.0,0.2634009999999307
422,2,0.8,0.0,-35.0,-1,1.0,0.24320000000011532
423,2,0.8,0.125,-35.0,-1,1.0,0.2533000000000811
424,2,0.8,1.0,-35.0,-1,1.0,0.20699999999987995
425,2,0.8,0.0625,-35.0,-1,1.0,0.3167000000000826
426,2,0.8,0.0625,-35.0,-1,1.0,0.3334010000000944
427,2,0.8,0.25,-35.0,-1,1.0,0.24670000000014625
428,2,0.2,0.0625,-35.0,-1,1.0,0.15690100000006169
429,2,0.2,0.0,35.0,-1,0.0,0.526700000000119
430,2,0.2,0.25,-35.0,-1,1.0,0.24030000000016116
431,2,0.2,0.25,35.0,-1,0.0,0.17370099999993727
432,2,0.2,0.125,-35.0,-1,1.0,0.22029999999995198
433,2,0.2,0.0625,35.0,1,1.0,0.33730099999979757
434,2,0.2,0.0,35.0,1,1.0,0.4503999999997177
1,3,0.2,0.0,35.0,-1,0.0,0.17779999999999963
2,3,0.2,1.0,35.0,1,1.0,0.14700000000000113
3,3,0.2,0.25,35.0,1,1.0,0.18090000000000028
4,3,0.2,1.0,-35.0,-1,1.0,1.5432000000000006
5,3,0.2,1.0,35.0,1,1.0,0.27300000000000324
6,3,0.2,0.0625,35.0,-1,0.0,0.23079999999999856
7,3,0.2,0.0,35.0,-1,0.0,0.19150000000000134
8,3,0.2,0.125,-35.0,-1,1.0,0.17670099999999778
9,3,0.2,0.0625,35.0,1,1.0,0.5557999999999979
10,3,0.2,1.0,-35.0,-1,1.0,0.2534999999999954
11,3,0.2,0.25,35.0,1,1.0,1.7213009999999969
12,3,0.2,0.0625,-35.0,-1,1.0,0.18670100000000645
13,3,0.2,0.125,35.0,1,1.0,0.5589000000000084
14,3,0.2,0.125,-35.0,-1,1.0,0.08129999999999171
15,3,0.2,0.0,35.0,-1,0.0,0.38519999999999044
16,3,0.2,1.0,35.0,1,1.0,0.2569000000000017
17,3,0.2,1.0,35.0,1,1.0,0.18089999999997985
18,3,0.2,0.125,-35.0,-1,1.0,0.5090000000000003
19,3,0.2,1.0,35.0,1,1.0,0.3289999999999935
20,3,0.2,0.0,35.0,1,1.0,0.7168009999999896
21,3,0.2,1.0,-35.0,-1,1.0,0.117999999999995
22,3,0.2,0.125,35.0,-1,0.0,0.13019999999998788
23,3,0.2,0.0,35.0,-1,0.0,0.14739999999997622
24,3,0.2,0.25,35.0,1,1.0,3.8163999999999874
25,3,0.2,1.0,35.0,1,1.0,0.35479999999999734
26,3,0.2,0.25,35.0,1,1.0,0.21910099999999488
27,3,0.2,0.0625,35.0,1,1.0,0.29989999999999384
28,3,0.2,0.0625,35.0,1,1.0,0.3861009999999965
29,3,0.2,0.25,35.0,1,1.0,0.3726999999999947
30,3,0.2,0.125,35.0,1,1.0,0.2795009999999962
31,3,0.2,0.0625,35.0,1,1.0,0.5802010000000024
32,3,0.2,0.0625,35.0,1,1.0,0.2694000000000045
33,3,0.2,0.25,-35.0,-1,1.0,2.4477999999999867
34,3,0.2,1.0,35.0,1,1.0,0.5481000000000051
35,3,0.2,0.25,-35.0,-1,1.0,0.20810000000003015
36,3,0.2,0.125,35.0,1,1.0,0.26330099999998424
37,3,0.2,0.25,-35.0,-1,1.0,0.24220000000002528
38,3,0.2,0.0,35.0,-1,0.0,0.7411999999999921
39,3,0.2,0.0625,35.0,-1,0.0,0.16930099999999015
40,3,0.2,0.0,35.0,-1,0.0,0.18019999999998504
41,3,0.2,1.0,35.0,1,1.0,0.21420000000000528
42,3,0.8,0.25,-35.0,1,0.0,0.5562999999999931
43,3,0.8,0.125,-35.0,-1,1.0,0.3172999999999888
44,3,0.8,1.0,-35.0,-1,1.0,0.5466010000000097
45,3,0.8,0.25,-35.0,-1,1.0,0.26550000000000296
46,3,0.8,1.0,-35.0,-1,1.0,0.21229999999999905
47,3,0.8,0.0,-35.0,1,0.0,0.28190000000000737
48,3,0.8,0.125,-35.0,-1,1.0,0.14430000000004384
49,3,0.8,0.0625,-35.0,-1,1.0,0.18820000000002324
50,3,0.8,0.25,-35.0,-1,1.0,0.6469000000000165
51,3,0.8,0.125,-35.0,-1,1.0,0.17120000000002733
52,3,0.8,1.0,-35.0,-1,1.0,0.14330000000001064
53,3,0.8,0.0,-35.0,-1,1.0,6.198400000000021
54,3,0.8,1.0,-35.0,-1,1.0,0.18950000000000955
55,3,0.8,1.0,-35.0,-1,1.0,0.1529000000000167
56,3,0.8,1.0,-35.0,-1,1.0,0.21750000000000114
57,3,0.8,0.25,-35.0,-1,1.0,0.4222000000000037
58,3,0.8,0.0625,-35.0,-1,1.0,0.22800000000000864
59,3,0.8,0.0,-35.0,-1,1.0,0.44939999999999714
60,3,0.8,0.0,-35.0,-1,1.0,4.494601000000017
61,3,0.8,0.0625,-35.0,-1,1.0,0.220799999999997
62,3,0.8,0.0,-35.0,-1,1.0,0.17140000000003397
63,3,0.8,0.125,-35.0,-1,1.0,1.842000000000013
64,3,0.8,0.25,-35.0,-1,1.0,0.2927999999999997
65,3,0.2,0.25,35.0,-1,0.0,0.7212000000000103
66,3,0.2,0.25,35.0,1,1.0,1.1444000000000187
67,3,0.2,0.25,35.0,1,1.0,0.440400000000011
68,3,0.2,1.0,35.0,1,1.0,0.4644000000000119
69,3,0.2,0.0625,-35.0,-1,1.0,0.2108000000000061
70,3,0.2,1.0,35.0,1,1.0,0.321501000000012
71,3,0.2,0.0625,-35.0,-1,1.0,0.3970000000000198
72,3,0.2,0.0625,-35.0,-1,1.0,0.4095000000000084
73,3,0.2,0.0,-35.0,-1,1.0,0.6761000000000195
74,3,0.2,0.25,35.0,1,1.0,0.5714009999999803
75,3,0.2,0.125,35.0,1,1.0,0.6814999999999714
76,3,0.2,0.0625,35.0,1,1.0,0.4615000000000009
77,3,0.2,0.25,35.0,1,1.0,0.5636000000000081
78,3,0.2,0.0625,35.0,1,1.0,0.4449999999999932
79,3,0.2,0.125,35.0,-1,0.0,4.531799999999976
80,3,0.2,1.0,35.0,1,1.0,0.3224999999999909
81,3,0.2,0.25,35.0,1,1.0,0.4379999999999882
82,3,0.2,0.25,-35.0,-1,1.0,0.44650000000001455
83,3,0.2,0.0625,35.0,1,1.0,2.453200000000038
84,3,0.2,0.25,35.0,1,1.0,0.35780099999999493
85,3,0.2,1.0,35.0,1,1.0,0.3535999999999717
86,3,0.2,0.0,35.0,-1,0.0,0.39280100000001994
87,3,0.2,0.125,35.0,1,1.0,0.3780009999999834
88,3,0.2,0.125,-35.0,-1,1.0,0.28129999999998745
89,3,0.2,0.125,35.0,1,1.0,0.40360099999998056
90,3,0.2,0.125,35.0,-1,0.0,0.38769999999999527
91,3,0.2,0.0625,35.0,1,1.0,0.3791009999999915
92,3,0.2,0.0,35.0,1,1.0,0.44160000000005084
93,3,0.8,0.0625,-35.0,-1,1.0,3.269900000000007
94,3,0.8,0.125,-35.0,-1,1.0,0.21649999999999636
95,3,0.8,0.0625,35.0,-1,0.0,0.3126999999999498
96,3,0.8,1.0,-35.0,-1,1.0,0.15130099999998947
97,3,0.8,0.25,35.0,1,1.0,0.247099999999989
98,3,0.8,0.25,-35.0,-1,1.0,0.22490000000004784
99,3,0.8,0.25,-35.0,-1,1.0,0.3924000000000092
100,3,0.8,0.0625,-35.0,-1,1.0,0.3477010000000291
101,3,0.8,0.0625,-35.0,-1,1.0,5.338200000000029
102,3,0.8,0.0625,35.0,-1,0.0,0.17899999999997362
103,3,0.8,1.0,-35.0,-1,1.0,0.15589999999997417
104,3,0.8,0.25,-35.0,-1,1.0,0.16160000000002128
105,3,0.8,0.125,-35.0,-1,1.0,3.880999999999972
106,3,0.8,0.25,-35.0,-1,1.0,0.028800000000046566
107,3,0.8,1.0,-35.0,-1,1.0,0.18019999999995662
108,3,0.8,0.25,-35.0,-1,1.0,0.2008000000000152
109,3,0.8,0.0625,-35.0,-1,1.0,0.4262000000000512
110,3,0.8,0.125,35.0,-1,0.0,0.19069999999999254
111,3,0.8,0.0625,-35.0,-1,1.0,0.09490000000005239
112,3,0.8,0.0625,35.0,-1,0.0,4.357900000000029
113,3,0.8,0.0625,-35.0,-1,1.0,0.17079999999998563
114,3,0.8,0.125,35.0,1,1.0,0.39010099999995873
115,3,0.8,0.0625,-35.0,1,0.0,0.40979999999996153
116,3,0.8,0.125,35.0,-1,0.0,0.17340100000001257
117,3,0.8,1.0,-35.0,-1,1.0,0.16910000000001446
118,3,0.8,1.0,-35.0,-1,1.0,0.1786999999999921
119,3,0.8,1.0,-35.0,-1,1.0,0.2235000000000582
120,3,0.8,0.25,-35.0,-1,1.0,0.22490000000004784
121,3,0.8,0.25,-35.0,-1,1.0,0.3690000000000282
122,3,0.8,0.25,-35.0,-1,1.0,0.21900000000005093
123,3,0.8,0.25,-35.0,-1,1.0,0.30290100000001985
124,3,0.8,1.0,-35.0,-1,1.0,0.22820000000001528
125,3,0.8,0.0625,35.0,-1,0.0,0.8990000000000009
126,3,0.8,1.0,35.0,1,1.0,0.4171000000000049
127,3,0.8,0.25,35.0,1,1.0,0.4132009999999582
128,3,0.8,0.25,-35.0,-1,1.0,0.20439999999996417
129,3,0.8,0.0,35.0,-1,0.0,0.15989999999999327
130,3,0.8,0.25,-35.0,-1,1.0,0.2509000000000583
131,3,0.8,0.25,-35.0,-1,1.0,0.5013000000000147
132,3,0.8,0.125,-35.0,-1,1.0,0.23850000000004457
133,3,0.8,0.125,-35.0,-1,1.0,0.374100999999996
134,3,0.8,1.0,-35.0,-1,1.0,0.14950000000004593
135,3,0.8,0.25,35.0,1,1.0,0.3979999999999677
136,3,0.8,1.0,-35.0,-1,1.0,0.22330000000005157
137,3,0.8,0.0625,-35.0,-1,1.0,0.3432999999999993
138,3,0.8,1.0,35.0,1,1.0,0.30630000000002156
139,3,0.8,1.0,-35.0,-1,1.0,0.15780000000006567
140,3,0.8,1.0,-35.0,-1,1.0,0.7036000000000513
141,3,0.8,0.125,-35.0,-1,1.0,0.19420000000002346
142,3,0.8,1.0,35.0,1,1.0,0.2769010000000094
143,3,0.8,0.125,-35.0,-1,1.0,0.24289999999996326
144,3,0.8,0.0625,-35.0,-1,1.0,3.5317000000000007
145,3,0.8,0.0625,-35.0,-1,1.0,0.19890000000003738
146,3,0.8,0.125,-35.0,-1,1.0,0.2505010000000425
147,3,0.8,1.0,35.0,1,1.0,0.935799999999972
148,3,0.8,0.0625,-35.0,-1,1.0,0.1882999999999697
149,3,0.8,0.25,-35.0,-1,1.0,0.19310000000001537
150,3,0.8,0.0625,-35.0,-1,1.0,0.3931999999999789
151,3,0.8,0.0625,-35.0,-1,1.0,3.189501000000007
152,3,0.8,0.125,-35.0,-1,1.0,0.2884999999999991
153,3,0.8,0.25,-35.0,-1,1.0,0.4596000000000231
154,3,0.8,0.125,-35.0,-1,1.0,0.5120009999999979
155,3,0.8,1.0,-35.0,-1,1.0,0.21749999999997272
156,3,0.8,0.0,35.0,-1,0.0,0.2381000000000313
157,3,0.8,0.125,35.0,1,1.0,0.4896999999999707
158,3,0.2,0.0625,35.0,1,1.0,0.8190009999999575
159,3,0.2,1.0,35.0,1,1.0,0.2573000000000434
160,3,0.2,1.0,35.0,1,1.0,0.27410100000008697
161,3,0.2,0.125,35.0,1,1.0,0.43100000000004
162,3,0.2,1.0,35.0,1,1.0,0.19229999999993197
163,3,0.2,0.125,35.0,1,1.0,0.4615999999999758
164,3,0.2,0.125,35.0,1,1.0,0.3711999999999307
165,3,0.2,1.0,-35.0,-1,1.0,0.23899999999991905
166,3,0.2,0.125,35.0,1,1.0,0.3525009999999611
167,3,0.2,0.25,-35.0,-1,1.0,0.21669999999994616
168,3,0.2,0.0625,35.0,-1,0.0,0.2320999999999458
169,3,0.2,0.0,35.0,1,1.0,0.5201009999999542
170,3,0.2,0.0625,35.0,1,1.0,0.30160000000000764
171,3,0.2,0.125,35.0,1,1.0,0.3369999999999891
172,3,0.2,0.0,-35.0,1,0.0,0.20739999999989323
173,3,0.2,1.0,35.0,1,1.0,0.22939999999982774
174,3,0.2,0.0625,35.0,-1,0.0,0.15889999999990323
175,3,0.2,1.0,35.0,1,1.0,0.1874000000000251
176,3,0.2,1.0,35.0,1,1.0,0.11169999999992797
177,3,0.2,0.25,35.0,1,1.0,0.33809999999994034
178,3,0.2,0.125,35.0,1,1.0,0.4109009999999671
179,3,0.2,0.0625,35.0,1,1.0,0.24450000000001637
180,3,0.2,0.0625,-35.0,-1,1.0,0.25149999999985084
181,3,0.2,1.0,35.0,1,1.0,0.17489999999997963
182,3,0.2,1.0,35.0,1,1.0,0.2239999999999327
183,3,0.2,0.0,-35.0,-1,1.0,0.4862999999999147
184,3,0.2,0.125,35.0,1,1.0,0.30970000000002074
185,3,0.2,1.0,35.0,1,1.0,0.26519999999993615
186,3,0.2,0.25,35.0,1,1.0,0.29730099999994763
187,3,0.2,0.125,35.0,1,1.0,0.41950099999996837
188,3,0.2,0.0625,35.0,-1,0.0,0.23500000000001364
189,3,0.2,0.25,35.0,1,1.0,0.4252999999999929
190,3,0.2,0.0625,35.0,-1,0.0,0.38459999999986394
191,3,0.2,0.0625,35.0,1,1.0,0.20330000000001291
192,3,0.2,0.25,35.0,1,1.0,0.22659999999996217
193,3,0.2,0.125,35.0,1,1.0,0.46459999999990487
194,3,0.2,1.0,35.0,1,1.0,0.2155999999999949
195,3,0.2,0.0625,35.0,-1,0.0,0.377399999999966
196,3,0.2,0.0625,35.0,1,1.0,0.3996999999999389
197,3,0.2,1.0,35.0,1,1.0,0.20709999999996853
198,3,0.2,0.0625,-35.0,-1,1.0,0.44459999999992306
199,3,0.2,0.25,-35.0,-1,1.0,0.1676999999998543
200,3,0.2,0.125,-35.0,-1,1.0,0.5322999999999638
201,3,0.2,0.25,35.0,1,1.0,0.35140000000001237
202,3,0.2,0.25,35.0,1,1.0,0.3574999999999591
203,3,0.2,0.25,35.0,1,1.0,0.348700000000008
204,3,0.2,1.0,35.0,1,1.0,0.23679999999990287
205,3,0.2,0.0625,35.0,1,1.0,0.41010099999994054
206,3,0.2,0.0625,35.0,1,1.0,0.28349999999988995
207,3,0.2,1.0,-35.0,-1,1.0,0.25109999999995125
208,3,0.2,0.0,-35.0,-1,1.0,5.245800000000031
209,3,0.2,0.0625,35.0,1,1.0,0.6390999999999849
210,3,0.2,0.0,35.0,1,1.0,0.6879000000000133
211,3,0.2,1.0,35.0,1,1.0,0.2335000000000491
212,3,0.2,0.0625,35.0,1,1.0,0.4210999999999103
213,3,0.2,0.125,35.0,1,1.0,0.36629999999991014
214,3,0.2,0.0625,35.0,1,1.0,0.31639999999981683
215,3,0.2,0.25,35.0,1,1.0,0.23599999999999
216,3,0.2,0.125,35.0,1,1.0,0.5253000000000156
217,3,0.2,0.0,35.0,1,1.0,0.34130099999993035
218,3,0.2,0.0625,-35.0,1,0.0,0.3445999999999003
219,3,0.2,1.0,35.0,1,1.0,0.19279999999992015
220,3,0.2,1.0,35.0,1,1.0,0.29589999999996053
221,3,0.2,0.125,35.0,1,1.0,0.3284009999999853
222,3,0.8,0.0625,-35.0,1,0.0,0.39239999999995234
223,3,0.8,1.0,-35.0,1,0.0,0.2379999999999427
224,3,0.8,0.125,-35.0,1,0.0,0.283800000000042
225,3,0.8,1.0,-35.0,-1,1.0,0.2583999999999378
226,3,0.8,1.0,-35.0,-1,1.0,0.18859999999995125
227,3,0.8,0.25,-35.0,-1,1.0,0.5019000000000915
228,3,0.8,1.0,35.0,1,1.0,0.34530099999994945
229,3,0.8,1.0,-35.0,-1,1.0,0.3221999999999525
230,3,0.8,0.0625,-35.0,-1,1.0,0.22520099999997
231,3,0.8,1.0,-35.0,-1,1.0,0.22949999999991633
232,3,0.8,0.0,35.0,1,1.0,0.5860999999999876
233,3,0.8,0.0625,-35.0,-1,1.0,0.25679999999999836
234,3,0.8,0.0,-35.0,-1,1.0,4.062999999999988
235,3,0.8,0.0625,-35.0,-1,1.0,0.1919999999998936
236,3,0.8,0.25,-35.0,-1,1.0,3.740099999999984
237,3,0.8,0.0,-35.0,-1,1.0,0.16660000000001673
238,3,0.8,0.125,35.0,1,1.0,0.390500999999972
239,3,0.8,0.0625,35.0,-1,0.0,0.661899999999946
240,3,0.8,0.125,-35.0,-1,1.0,0.3328000000000202
241,3,0.8,0.0,-35.0,-1,1.0,0.4518999999999096
242,3,0.8,1.0,35.0,1,1.0,0.4718999999998914
243,3,0.8,0.0625,-35.0,-1,1.0,0.21029999999996107
244,3,0.8,0.125,35.0,1,1.0,0.3646009999999933
245,3,0.8,0.125,-35.0,-1,1.0,3.808699999999817
246,3,0.8,0.0,-35.0,-1,1.0,0.2826000000000022
247,3,0.8,0.25,-35.0,-1,1.0,0.2101999999998725
248,3,0.8,0.0625,35.0,-1,0.0,4.031399999999849
249,3,0.8,0.0625,35.0,-1,0.0,0.20099999999990814
250,3,0.8,0.0,-35.0,-1,1.0,0.25549999999998363
251,3,0.8,0.125,-35.0,-1,1.0,0.1954999999999245
252,3,0.8,0.25,-35.0,-1,1.0,0.2377999999999929
253,3,0.8,0.125,-35.0,-1,1.0,0.22640000000001237
254,3,0.8,0.25,-35.0,-1,1.0,0.42659999999989395
255,3,0.8,1.0,35.0,1,1.0,0.4214999999999236
256,3,0.8,0.0625,-35.0,-1,1.0,0.2623999999999569
257,3,0.8,0.125,-35.0,-1,1.0,0.1795999999999367
258,3,0.8,0.0625,-35.0,-1,1.0,0.20670099999995273
259,3,0.8,0.0625,35.0,-1,0.0,2.873600999999894
260,3,0.8,0.25,35.0,1,1.0,0.2947999999998956
261,3,0.8,0.125,-35.0,-1,1.0,0.20590099999992617
262,3,0.8,0.25,-35.0,-1,1.0,0.48489999999992506
263,3,0.2,0.25,35.0,1,1.0,0.26369999999985794
264,3,0.2,0.25,35.0,1,1.0,0.31119999999998527
265,3,0.2,1.0,35.0,1,1.0,0.29050099999994927
266,3,0.2,0.125,35.0,1,1.0,0.455600000000004
267,3,0.2,1.0,35.0,1,1.0,0.2442999999999529
268,3,0.2,0.125,35.0,1,1.0,0.429300000000012
269,3,0.2,0.0625,-35.0,-1,1.0,0.3636999999998807
270,3,0.2,0.0625,-35.0,-1,1.0,0.21580099999994218
271,3,0.2,0.0625,35.0,-1,0.0,0.3751999999998361
272,3,0.2,0.0625,35.0,1,1.0,0.4531000000000631
273,3,0.2,1.0,-35.0,-1,1.0,0.24249999999994998
274,3,0.2,0.125,35.0,-1,0.0,0.4218999999999369
275,3,0.2,0.25,35.0,1,1.0,0.42319999999983793
276,3,0.2,0.125,35.0,1,1.0,0.3470009999998638
277,3,0.2,1.0,35.0,1,1.0,0.27739999999994325
278,3,0.2,0.0,35.0,-1,0.0,0.2054000000000542
279,3,0.2,0.0,35.0,1,1.0,0.49519999999995434
280,3,0.2,0.25,35.0,1,1.0,0.3410999999999831
281,3,0.2,0.0,35.0,1,1.0,0.3668999999998732
282,3,0.2,1.0,35.0,1,1.0,0.2238999999999578
283,3,0.2,0.25,-35.0,-1,1.0,0.23390100000005987
284,3,0.2,0.25,35.0,1,1.0,0.6140000000000327
285,3,0.2,0.25,-35.0,1,0.0,0.33110099999998965
286,3,0.2,0.125,35.0,1,1.0,0.25729999999998654
287,3,0.2,0.25,35.0,1,1.0,0.2718009999999822
288,3,0.2,0.0625,35.0,1,1.0,0.3612999999999147
289,3,0.2,0.125,-35.0,1,0.0,0.27499999999997726
290,3,0.2,0.25,35.0,1,1.0,0.3207999999998492
291,3,0.2,1.0,35.0,1,1.0,0.360800999999924
292,3,0.2,0.25,35.0,1,1.0,0.3673999999999751
293,3,0.2,0.0625,-35.0,-1,1.0,0.3106999999998834
294,3,0.2,0.125,-35.0,-1,1.0,0.42299999999988813
295,3,0.2,1.0,35.0,1,1.0,0.2018999999999096
296,3,0.2,0.0625,35.0,-1,0.0,0.2117999999999256
297,3,0.2,0.0625,35.0,1,1.0,0.39279999999985193
298,3,0.2,0.25,35.0,1,1.0,0.38750099999992926
299,3,0.2,1.0,35.0,1,1.0,0.24989999999991142
300,3,0.2,0.25,35.0,1,1.0,0.43029999999987467
301,3,0.2,1.0,35.0,1,1.0,0.23059999999986758
302,3,0.2,0.0,35.0,1,1.0,0.718599999999924
303,3,0.2,1.0,35.0,1,1.0,0.22769999999991342
304,3,0.2,0.25,35.0,1,1.0,0.32740000000001146
305,3,0.2,0.0,35.0,1,1.0,0.48079999999993106
306,3,0.2,0.125,35.0,1,1.0,0.44980099999997947
307,3,0.8,0.25,35.0,1,1.0,0.36580000000003565
308,3,0.8,0.0625,-35.0,-1,1.0,3.2170999999998457
309,3,0.8,1.0,-35.0,-1,1.0,0.1122010000000273
310,3,0.8,0.125,35.0,1,1.0,3.1179009999999607
311,3,0.8,0.25,-35.0,-1,1.0,0.27689999999995507
312,3,0.8,0.0625,35.0,-1,0.0,0.35789999999985866
313,3,0.8,0.0625,-35.0,-1,1.0,0.26719999999988886
314,3,0.8,0.25,-35.0,-1,1.0,0.25109999999995125
315,3,0.8,0.125,35.0,1,1.0,0.32590099999981703
316,3,0.8,0.25,-35.0,-1,1.0,0.21699999999987085
317,3,0.8,0.0,-35.0,-1,1.0,0.36399999999991905
318,3,0.8,0.25,-35.0,-1,1.0,0.21429999999998017
319,3,0.8,0.25,-35.0,-1,1.0,0.22000000000002728
320,3,0.8,1.0,-35.0,-1,1.0,0.540599999999813
321,3,0.8,0.25,-35.0,-1,1.0,0.2564999999998463
322,3,0.8,1.0,-35.0,-1,1.0,0.17889999999999873
323,3,0.8,0.0625,-35.0,-1,1.0,0.3586999999998852
324,3,0.8,1.0,-35.0,-1,1.0,0.16589999999996508
325,3,0.8,0.0625,-35.0,1,0.0,0.2560999999999467
326,3,0.8,0.125,-35.0,-1,1.0,0.1998999999999569
327,3,0.8,1.0,-35.0,-1,1.0,0.2258999999999105
328,3,0.8,0.25,-35.0,-1,1.0,0.17499999999995453
329,3,0.8,0.125,-35.0,-1,1.0,3.481899999999996
330,3,0.8,1.0,-35.0,-1,1.0,0.18199999999990268
331,3,0.8,0.25,-35.0,-1,1.0,0.15879999999992833
332,3,0.8,0.0,35.0,-1,0.0,0.772000999999932
333,3,0.8,0.0,-35.0,-1,1.0,0.31209999999987303
334,3,0.8,0.25,-35.0,-1,1.0,0.32540099999982885
335,3,0.8,0.0,-35.0,-1,1.0,0.20889999999985776
336,3,0.8,1.0,-35.0,-1,1.0,0.27520099999981085
337,3,0.8,0.0625,-35.0,-1,1.0,0.20209999999997308
338,3,0.8,0.25,35.0,-1,0.0,0.5123000000000957
339,3,0.8,0.0625,-35.0,-1,1.0,0.18550000000027467
340,3,0.8,1.0,-35.0,-1,1.0,0.24240000000008877
341,3,0.8,1.0,-35.0,-1,1.0,1.322400000000016
342,3,0.8,0.0625,-35.0,-1,1.0,0.19249999999988177
343,3,0.8,0.0,-35.0,-1,1.0,0.2357999999999265
344,3,0.8,0.25,-35.0,-1,1.0,0.6054999999998927
345,3,0.8,0.0,-35.0,-1,1.0,0.39599999999995816
346,3,0.8,0.0625,-35.0,-1,1.0,0.23569999999995161
347,3,0.8,0.0,35.0,-1,0.0,0.46240000000011605
348,3,0.8,0.25,-35.0,-1,1.0,0.16589999999996508
349,3,0.8,1.0,-35.0,-1,1.0,0.19909999999981665
350,3,0.8,0.125,35.0,-1,0.0,0.4827010000001337
351,3,0.8,0.25,-35.0,-1,1.0,0.26620000000025357
352,3,0.8,0.25,35.0,1,1.0,0.5196000000000822
353,3,0.8,0.0625,-35.0,-1,1.0,0.3527999999998883
354,3,0.8,0.125,-35.0,-1,1.0,0.06930000000011205
355,3,0.8,1.0,-35.0,-1,1.0,0.4593999999999596
356,3,0.8,1.0,35.0,1,1.0,0.2826000000000022
357,3,0.8,0.25,-35.0,-1,1.0,0.14610000000016043
358,3,0.8,0.125,35.0,-1,0.0,0.18309999999996762
359,3,0.8,0.0625,-35.0,-1,1.0,0.25290000000018154
360,3,0.8,0.0,-35.0,-1,1.0,0.34629999999992833
361,3,0.8,0.25,-35.0,-1,1.0,0.4432010000000446
362,3,0.8,0.0,35.0,-1,0.0,2.519800000000032
363,3,0.8,0.0625,-35.0,-1,1.0,0.40949999999998
364,3,0.8,0.0625,-35.0,-1,1.0,0.4230999999999767
365,3,0.8,0.25,-35.0,-1,1.0,0.30310000000008586
366,3,0.8,0.25,-35.0,-1,1.0,0.19010000000002947
367,3,0.8,1.0,-35.0,-1,1.0,0.3297000000002299
368,3,0.8,1.0,-35.0,-1,1.0,0.2802000000001499
369,3,0.8,0.0625,-35.0,-1,1.0,0.5865000000001146
370,3,0.8,0.25,-35.0,-1,1.0,0.21319999999991524
371,3,0.8,0.0625,-35.0,-1,1.0,0.40650000000005093
372,3,0.8,0.0,-35.0,-1,1.0,0.19660000000021682
373,3,0.8,0.0625,-35.0,-1,1.0,0.6199000000001433
374,3,0.8,1.0,-35.0,-1,1.0,0.24360000000001492
375,3,0.2,0.125,35.0,-1,0.0,4.790100000000166
376,3,0.2,1.0,35.0,1,1.0,0.43010000000026594
377,3,0.2,0.25,35.0,1,1.0,0.33730000000014115
378,3,0.2,0.0625,35.0,1,1.0,0.4835000000000491
379,3,0.2,0.0625,35.0,1,1.0,0.4936999999999898
380,3,0.2,0.0625,35.0,-1,0.0,0.4901999999999589
381,3,0.2,0.0,35.0,1,1.0,0.3901010000001861
382,3,0.2,0.25,35.0,1,1.0,0.2673000000002048
383,3,0.2,0.25,35.0,1,1.0,0.30379999999991014
384,3,0.2,0.0,-35.0,1,0.0,0.6304000000002361
385,3,0.2,1.0,-35.0,-1,1.0,0.22730000000001382
386,3,0.2,0.125,35.0,1,1.0,0.49729999999999563
387,3,0.2,0.125,35.0,1,1.0,0.39400000000000546
388,3,0.2,1.0,35.0,1,1.0,0.3707000000001699
389,3,0.2,0.25,-35.0,-1,1.0,0.383900000000267
390,3,0.2,0.0625,35.0,1,1.0,0.2475000000001728
391,3,0.2,0.125,35.0,1,1.0,0.4909000000002379
392,3,0.2,0.125,35.0,1,1.0,0.3341000000000349
393,3,0.2,1.0,-35.0,-1,1.0,0.1873000000000502
394,3,0.2,0.0,35.0,1,1.0,0.5609000000001743
395,3,0.2,0.25,35.0,1,1.0,0.31769999999983156
396,3,0.2,0.25,35.0,1,1.0,0.44410000000016225
397,3,0.2,1.0,35.0,1,1.0,0.29420100000015736
398,3,0.8,0.0,-35.0,-1,1.0,2.914399999999887
399,3,0.8,1.0,-35.0,-1,1.0,0.38760100000013153
400,3,0.8,0.0,-35.0,-1,1.0,0.20119999999997162
401,3,0.8,1.0,-35.0,-1,1.0,0.404700000000048
402,3,0.8,1.0,-35.0,-1,1.0,0.28450000000020736
403,3,0.8,0.0,35.0,-1,0.0,0.2315000000000964
404,3,0.8,0.0625,35.0,-1,0.0,0.6545000000000982
405,3,0.8,0.0,-35.0,-1,1.0,0.2114000000001397
406,3,0.8,0.0625,-35.0,-1,1.0,0.3443999999999505
407,3,0.8,0.25,-35.0,-1,1.0,0.5414999999998145
408,3,0.8,0.25,-35.0,-1,1.0,0.21480000000019572
409,3,0.8,1.0,-35.0,-1,1.0,0.1246009999999842
410,3,0.8,0.0,35.0,-1,0.0,2.16150000000016
411,3,0.8,0.25,-35.0,-1,1.0,0.12149999999996908
412,3,0.8,0.0625,-35.0,-1,1.0,0.41160000000013497
413,3,0.8,0.0625,35.0,1,1.0,0.8384999999998399
414,3,0.8,0.0625,-35.0,-1,1.0,0.1950010000000475
415,3,0.8,1.0,-35.0,-1,1.0,0.16489999999998872
416,3,0.8,0.0625,-35.0,-1,1.0,3.901600000000144
417,3,0.8,0.25,-35.0,-1,1.0,0.1585010000001148
418,3,0.8,0.25,-35.0,-1,1.0,0.40190000000006876
419,3,0.8,0.25,-35.0,-1,1.0,0.4552000000001044
420,3,0.8,0.125,35.0,1,1.0,0.36199999999985266
421,3,0.8,1.0,-35.0,-1,1.0,0.6818000000000666
422,3,0.8,1.0,-35.0,-1,1.0,0.5419000000001688
423,3,0.8,1.0,-35.0,-1,1.0,0.06510000000002947
424,3,0.8,0.0,-35.0,-1,1.0,0.37530100000003586
425,3,0.8,0.0625,-35.0,-1,1.0,0.48210000000017317
426,3,0.8,0.25,-35.0,-1,1.0,0.462099999999964
427,3,0.8,1.0,-35.0,-1,1.0,0.2955010000002858
428,3,0.8,0.0625,-35.0,-1,1.0,0.1855000000000473
429,3,0.8,0.125,-35.0,-1,1.0,1.9221000000002277
430,3,0.8,1.0,-35.0,-1,1.0,0.19220000000018445
431,3,0.8,0.25,-35.0,-1,1.0,0.18890000000010332
432,3,0.8,0.25,35.0,-1,0.0,3.945399999999836
433,3,0.8,0.125,-35.0,-1,1.0,0.12889999999993051
434,3,0.8,0.125,-35.0,-1,1.0,0.15560000000004948
435,3,0.8,0.0,-35.0,-1,1.0,0.5923999999999978
436,3,0.8,1.0,-35.0,-1,1.0,0.1825010000002294
437,3,0.8,0.0,-35.0,-1,1.0,0.20970099999999547
438,3,0.8,0.125,-35.0,-1,1.0,0.21910000000002583
439,3,0.8,1.0,-35.0,-1,1.0,0.1826000000003205
440,3,0.8,0.125,-35.0,-1,1.0,0.27579999999989013
441,3,0.8,0.0625,35.0,1,1.0,0.5260000000000673
442,3,0.8,0.0625,-35.0,-1,1.0,0.22289999999998145
443,3,0.8,1.0,35.0,1,1.0,0.7195999999999003
444,3,0.8,0.125,-35.0,-1,1.0,0.21590000000037435
445,3,0.8,0.0625,-35.0,-1,1.0,0.16970100000003185
446,3,0.8,1.0,-35.0,-1,1.0,0.2497000000000753
447,3,0.8,0.0625,-35.0,-1,1.0,2.429401000000098
448,3,0.8,0.0625,-35.0,-1,1.0,0.13940000000002328
449,3,0.8,0.0,-35.0,-1,1.0,0.21960100000001148
450,3,0.8,0.0625,-35.0,-1,1.0,0.18640000000004875
451,3,0.8,0.125,-35.0,-1,1.0,0.24640000000022155
452,3,0.8,0.25,-35.0,-1,1.0,0.1729009999999107
453,3,0.8,1.0,35.0,1,1.0,0.3763010000002396
454,3,0.8,0.0625,-35.0,-1,1.0,2.4930000000001655
455,3,0.8,0.0625,-35.0,-1,1.0,0.3667000000000371
456,3,0.8,0.0625,-35.0,-1,1.0,0.19669999999996435
457,3,0.8,0.0625,-35.0,-1,1.0,0.28310000000010405
458,3,0.8,1.0,-35.0,-1,1.0,0.15650000000005093
459,3,0.8,1.0,-35.0,-1,1.0,0.1834000000001197
460,3,0.8,1.0,-35.0,-1,1.0,0.16320100000007187
461,3,0.8,0.125,-35.0,-1,1.0,0.5598999999999705
462,3,0.8,0.125,-35.0,-1,1.0,0.11339999999995598
463,3,0.8,0.0,-35.0,-1,1.0,0.13020000000005894
464,3,0.8,0.25,-35.0,-1,1.0,0.20659999999998035
465,3,0.8,0.0625,-35.0,-1,1.0,0.20000100000015664
466,3,0.8,0.25,-35.0,-1,1.0,0.2236000000000331
467,3,0.8,0.0625,-35.0,-1,1.0,0.32019999999988613
468,3,0.8,0.125,-35.0,-1,1.0,0.3933999999999287
469,3,0.8,1.0,35.0,1,1.0,0.29330000000004475
470,3,0.8,1.0,-35.0,-1,1.0,0.16999999999984539
471,3,0.8,0.125,-35.0,-1,1.0,0.23040000000014516
472,3,0.8,0.0625,-35.0,-1,1.0,0.2300000000000182
473,3,0.8,0.125,-35.0,-1,1.0,0.0805000000000291
474,3,0.8,0.0,-35.0,-1,1.0,0.25700099999994563
475,3,0.8,1.0,-35.0,-1,1.0,0.1770000000001346
476,3,0.8,0.0625,-35.0,-1,1.0,0.23360100000036255
477,3,0.8,0.0,-35.0,-1,1.0,0.18389999999999418
478,3,0.8,0.25,-35.0,-1,1.0,0.2636999999999716
479,3,0.8,0.0,35.0,-1,0.0,3.810300000000325
480,3,0.2,1.0,35.0,1,1.0,0.4272000000003118
481,3,0.2,0.25,35.0,1,1.0,0.8241010000001552
482,3,0.2,1.0,35.0,1,1.0,0.21410100000002785
483,3,0.2,0.25,35.0,1,1.0,0.3907000000001517
484,3,0.2,0.125,35.0,1,1.0,0.2807999999999993
485,3,0.2,0.0625,35.0,1,1.0,0.41750100000012935
486,3,0.2,0.0625,35.0,1,1.0,0.2440999999998894
487,3,0.2,1.0,35.0,1,1.0,0.2541000000001077
488,3,0.2,0.125,-35.0,1,0.0,0.28089999999997417
489,3,0.2,0.125,35.0,-1,0.0,0.340900000000147
490,3,0.2,0.25,35.0,1,1.0,0.5310000000001764
491,3,0.2,0.0625,-35.0,-1,1.0,0.2478009999999813
492,3,0.2,0.25,35.0,1,1.0,0.4109009999999671
493,3,0.2,0.25,35.0,1,1.0,0.2610010000000784
494,3,0.2,0.0625,35.0,1,1.0,0.4576999999999316
495,3,0.2,0.0,-35.0,-1,1.0,0.20440000000007785
496,3,0.2,0.125,35.0,1,1.0,0.07460000000014588
497,3,0.2,0.0625,35.0,1,1.0,0.3709000000001197
498,3,0.2,0.25,35.0,1,1.0,0.24800000000027467
499,3,0.2,0.0,35.0,-1,0.0,0.1980999999998403
500,3,0.2,0.0,-35.0,-1,1.0,0.20440000000007785
501,3,0.2,0.125,-35.0,-1,1.0,0.7945000000001983
502,3,0.2,1.0,35.0,1,1.0,0.32500100000015664
503,3,0.2,0.0,35.0,-1,0.0,0.31790000000000873
504,3,0.2,1.0,35.0,1,1.0,0.3181010000000697
505,3,0.2,0.0625,35.0,1,1.0,0.3549000000000433
506,3,0.2,0.25,-35.0,-1,1.0,0.48479999999995016
507,3,0.2,0.25,35.0,1,1.0,0.32150000000001455
508,3,0.2,0.25,35.0,-1,0.0,0.19170099999996637
509,3,0.2,0.25,35.0,1,1.0,0.5215000000002874
510,3,0.2,1.0,35.0,1,1.0,0.2416000000000622
511,3,0.2,1.0,35.0,1,1.0,0.2920000000001437
512,3,0.2,0.0625,-35.0,1,0.0,0.23500100000001112
513,3,0.2,1.0,35.0,1,1.0,0.3084000000001197
514,3,0.2,0.25,35.0,1,1.0,0.21200099999987287
515,3,0.2,0.0625,35.0,1,1.0,0.24520000000006803
516,3,0.2,0.125,35.0,1,1.0,0.32530000000019754
517,3,0.2,0.125,35.0,1,1.0,0.3786000000000058
518,3,0.2,0.125,35.0,1,1.0,0.45869999999990796
519,3,0.2,0.0625,-35.0,1,0.0,0.4853000000002794
520,3,0.2,0.25,35.0,1,1.0,0.6186000000000149
521,3,0.2,0.0625,35.0,1,1.0,0.42520100000024286
522,3,0.2,0.0,35.0,-1,0.0,4.3219000000001415
523,3,0.2,0.0625,-35.0,-1,1.0,0.13540100000000166
524,3,0.2,1.0,35.0,1,1.0,0.32560000000012224
525,3,0.2,0.125,35.0,1,1.0,0.6023000000000138
526,3,0.2,0.0625,35.0,1,1.0,0.4653000000000702
527,3,0.2,1.0,-35.0,-1,1.0,0.27540099999987433
528,3,0.2,1.0,35.0,1,1.0,0.3691000000001168
529,3,0.2,0.125,35.0,1,1.0,0.6425010000000384
530,3,0.2,1.0,35.0,1,1.0,0.20240100000000893
531,3,0.2,1.0,35.0,1,1.0,0.21900099999993472
532,3,0.2,1.0,35.0,1,1.0,0.3225000000002183
533,3,0.2,0.125,35.0,1,1.0,0.42240000000015243
534,3,0.2,0.0625,35.0,-1,0.0,0.2090010000001712
535,3,0.2,0.0625,35.0,1,1.0,0.39560000000005857
536,3,0.2,0.25,-35.0,-1,1.0,0.2056999999999789
537,3,0.2,0.0625,35.0,1,1.0,0.4393010000001141
538,3,0.2,0.125,35.0,1,1.0,0.5926010000002861
539,3,0.2,0.125,35.0,-1,0.0,0.12940100000014354
540,3,0.2,0.0625,35.0,-1,0.0,0.20950100000004568
541,3,0.2,0.25,35.0,1,1.0,0.35940000000005057
542,3,0.2,0.25,-35.0,-1,1.0,0.4393999999999778
543,3,0.2,0.0,35.0,-1,0.0,0.399599999999964
544,3,0.2,0.25,35.0,1,1.0,0.3431000000000495
545,3,0.2,1.0,-35.0,-1,1.0,0.22610100000019884
546,3,0.2,0.25,35.0,1,1.0,0.26280000000019754
547,3,0.2,0.125,35.0,1,1.0,0.41610100000002603
548,3,0.2,1.0,35.0,1,1.0,0.2897000000000389
549,3,0.2,0.0,35.0,-1,0.0,3.146400000000085
550,3,0.2,0.125,35.0,1,1.0,0.27320000000008804
551,3,0.2,0.0625,35.0,1,1.0,0.546500000000151
552,3,0.2,0.125,35.0,1,1.0,0.4665010000001075
553,3,0.2,0.25,35.0,1,1.0,0.42000000000007276
554,3,0.2,0.0,35.0,1,1.0,0.6033000000002176
555,3,0.2,0.0,-35.0,-1,1.0,0.27640100000007806
556,3,0.2,0.25,35.0,1,1.0,0.3630000000000564
557,3,0.2,0.25,35.0,1,1.0,0.4698000000000775
558,3,0.2,0.0625,35.0,-1,0.0,3.303201000000172
559,3,0.2,1.0,35.0,1,1.0,0.20680000000015752
560,3,0.2,0.0625,35.0,-1,0.0,0.43659999999999854
561,3,0.2,1.0,35.0,1,1.0,0.26030100000025413
562,3,0.2,0.125,-35.0,-1,1.0,0.4336000000000695
563,3,0.2,0.0625,35.0,-1,0.0,0.2767010000002301
564,3,0.8,0.25,-35.0,-1,1.0,0.17650000000003274
565,3,0.8,0.125,-35.0,-1,1.0,0.17660000000000764
566,3,0.8,0.0625,-35.0,-1,1.0,0.4435000000000855
567,3,0.8,0.125,35.0,-1,0.0,0.32020100000022467
568,3,0.8,0.125,-35.0,-1,1.0,0.2370000000003074
569,3,0.8,1.0,-35.0,-1,1.0,0.2803000000001248
570,3,0.8,0.0625,-35.0,-1,1.0,0.28050100000018574
571,3,0.8,0.25,-35.0,-1,1.0,0.1936000000000604
572,3,0.8,0.25,-35.0,-1,1.0,0.19399999999995998
573,3,0.8,1.0,-35.0,-1,1.0,0.223700000000008
574,3,0.8,0.25,-35.0,-1,1.0,0.080600000000004
575,3,0.8,0.125,-35.0,-1,1.0,0.20050000000014734
576,3,0.8,0.0625,-35.0,-1,1.0,0.19740100000012717
577,3,0.8,0.25,-35.0,-1,1.0,0.19389999999998508
578,3,0.8,0.125,35.0,-1,0.0,0.17070000000012442
579,3,0.8,0.0625,35.0,-1,0.0,0.20430000000010295
580,3,0.8,0.0,-35.0,-1,1.0,0.1574000000000524
581,3,0.8,0.0625,35.0,1,1.0,2.9943000000000666
582,3,0.8,0.0625,35.0,-1,0.0,0.29749999999989996
583,3,0.8,0.0,-35.0,-1,1.0,0.22430099999996855
584,3,0.8,1.0,-35.0,-1,1.0,0.177599999999984
585,3,0.8,0.0,-35.0,-1,1.0,0.1875999999999749
586,3,0.8,1.0,-35.0,-1,1.0,0.20450000000005275
587,3,0.8,1.0,-35.0,-1,1.0,0.2074999999999818
588,3,0.8,0.0625,-35.0,-1,1.0,0.2376000000001568
589,3,0.8,0.25,-35.0,-1,1.0,0.1412000000000262
590,3,0.8,0.0,-35.0,-1,1.0,0.21430000000009386
591,3,0.8,0.0,-35.0,-1,1.0,3.0045010000001184
592,3,0.8,1.0,-35.0,-1,1.0,0.15470000000004802
593,3,0.8,0.25,-35.0,-1,1.0,0.19150100000001657
594,3,0.8,0.0,-35.0,-1,1.0,0.364500000000362
595,3,0.8,0.125,-35.0,-1,1.0,0.4615000000001146
596,3,0.8,0.125,-35.0,-1,1.0,0.3247000000001208
597,3,0.8,0.0625,-35.0,-1,1.0,0.16800100000000384
598,3,0.8,0.25,-35.0,-1,1.0,0.3681000000001404
599,3,0.8,0.25,-35.0,-1,1.0,2.621399999999994
600,3,0.8,1.0,-35.0,-1,1.0,0.18840100000011262
601,3,0.8,1.0,-35.0,-1,1.0,0.16489999999998872
602,3,0.8,1.0,35.0,1,1.0,0.3147999999998774
603,3,0.8,0.125,-35.0,-1,1.0,0.5014000000001033
604,3,0.8,0.125,-35.0,-1,1.0,0.6280000000001564
605,3,0.8,1.0,-35.0,-1,1.0,0.1948010000000977
606,3,0.8,0.0,35.0,-1,0.0,0.3250000000000455
