trial_num,session_num,stim_probability_left,contrast,position,response_choice,trial_correct,reaction_time
1,17,0.5,0.0,35.0,1,1.0,0.2855000000000004
2,17,0.5,1.0,-35.0,-1,1.0,0.20489999999999853
3,17,0.5,0.25,35.0,1,1.0,0.27520000000000167
4,17,0.5,0.0625,-35.0,1,0.0,0.17909999999999826
5,17,0.5,0.0625,35.0,-1,0.0,0.20319999999999894
6,17,0.5,0.25,35.0,1,1.0,0.40640000000000853
7,17,0.5,0.0,35.0,1,1.0,0.4629010000000022
8,17,0.5,0.0,-35.0,1,0.0,0.209699999999998
9,17,0.8,0.0,-35.0,1,0.0,0.2838000000000065
10,17,0.5,1.0,-35.0,-1,1.0,0.21870000000000545
11,17,0.5,0.0625,35.0,1,1.0,0.24520100000000156
12,17,0.5,0.125,35.0,1,1.0,0.25720000000000454
13,17,0.5,0.25,-35.0,-1,1.0,0.19420100000000673
14,17,0.5,0.125,35.0,1,1.0,0.27200100000001015
15,17,0.5,0.0,35.0,1,1.0,0.24620100000000633
16,17,0.5,0.125,35.0,1,1.0,0.2049999999999983
17,17,0.5,1.0,-35.0,-1,1.0,0.24739999999999895
18,17,0.5,0.0625,35.0,-1,0.0,0.24729999999999563
19,17,0.5,0.25,35.0,1,1.0,0.1856999999999971
20,17,0.5,1.0,35.0,1,1.0,0.12890000000000157
21,17,0.5,0.0625,35.0,1,1.0,0.24890000000000612
22,17,0.5,0.125,-35.0,-1,1.0,0.09729999999998995
23,17,0.5,0.0,-35.0,1,0.0,0.2342999999999904
24,17,0.5,0.0,35.0,1,1.0,0.2843999999999909
25,17,0.5,1.0,-35.0,-1,1.0,0.23430000000000462
26,17,0.5,1.0,35.0,1,1.0,0.22990000000000066
27,17,0.5,0.0625,35.0,1,1.0,0.2822999999999922
28,17,0.5,0.125,-35.0,-1,1.0,0.2674999999999841
29,17,0.5,0.125,35.0,1,1.0,0.2968999999999937
30,17,0.5,1.0,-35.0,-1,1.0,0.2360000000000042
31,17,0.5,0.25,-35.0,-1,1.0,0.2648009999999914
32,17,0.5,0.0,-35.0,-1,1.0,0.10420099999998911
33,17,0.5,0.0,35.0,1,1.0,0.22719999999998208
34,17,0.5,0.125,-35.0,1,0.0,0.2869000000000028
35,17,0.5,0.25,-35.0,-1,1.0,0.21099999999999852
36,17,0.5,0.0625,35.0,1,1.0,0.3999999999999915
37,17,0.5,0.125,35.0,1,1.0,0.28539999999998145
38,17,0.5,0.125,-35.0,1,0.0,0.1747000000000014
39,17,0.5,0.125,-35.0,-1,1.0,0.5930000000000177
40,17,0.5,0.125,-35.0,-1,1.0,0.21750000000000114
41,17,0.5,1.0,-35.0,-1,1.0,0.18599999999997863
42,17,0.5,1.0,35.0,1,1.0,0.3120009999999809
43,17,0.5,0.125,35.0,1,1.0,0.24870100000001116
44,17,0.5,0.0625,-35.0,-1,1.0,0.2108000000000061
45,17,0.5,0.0,-35.0,-1,1.0,0.2013000000000318
46,17,0.5,0.0625,-35.0,1,0.0,0.404200000000003
47,17,0.5,0.25,-35.0,-1,1.0,0.19429999999999836
48,17,0.5,1.0,35.0,1,1.0,0.275100000000009
1,18,0.5,0.125,35.0,1,1.0,0.1862999999999997
2,18,0.5,0.125,35.0,1,1.0,0.26539999999999964
3,18,0.5,0.25,35.0,-1,0.0,0.16970099999999988
4,18,0.5,0.25,-35.0,-1,1.0,0.2123009999999983
5,18,0.5,0.0625,-35.0,-1,1.0,0.14819999999999922
6,18,0.5,0.25,35.0,-1,0.0,0.21350000000000335
7,18,0.5,0.125,-35.0,-1,1.0,0.161601000000001
8,18,0.5,0.125,-35.0,-1,1.0,0.16199999999999903
9,18,0.5,0.125,-35.0,-1,1.0,0.11030000000000229
10,18,0.5,0.0625,35.0,-1,0.0,0.12539999999999907
11,18,0.2,0.0625,35.0,-1,0.0,0.13820000000001187
12,18,0.5,1.0,35.0,-1,0.0,0.14960000000000662
13,18,0.0,1.0,35.0,-1,0.0,0.11240100000000552
14,18,0.0,1.0,35.0,-1,0.0,0.1373010000000079
15,18,0.0,1.0,35.0,-1,0.0,0.15400099999999384
16,18,0.0,1.0,35.0,-1,0.0,0.14580000000000837
17,18,0.0,1.0,35.0,-1,0.0,0.15630000000000166
18,18,0.0,1.0,35.0,1,1.0,0.1016999999999939
19,18,0.5,1.0,35.0,-1,0.0,0.10480099999999481
20,18,0.5,0.25,35.0,1,1.0,0.14640099999999734
21,18,0.5,0.0625,35.0,-1,0.0,0.13540100000000166
22,18,0.5,0.0625,-35.0,-1,1.0,0.13430100000000778
23,18,0.5,0.125,35.0,1,1.0,0.14620000000000744
24,18,0.5,0.0,-35.0,-1,1.0,0.047601000000000226
25,18,0.5,0.25,35.0,-1,0.0,0.14239999999999498
26,18,0.5,0.0625,-35.0,-1,1.0,0.14149999999999352
27,18,0.5,1.0,35.0,-1,0.0,0.12140000000000839
28,18,0.3,1.0,-35.0,-1,1.0,0.13800000000000523
29,18,0.5,1.0,-35.0,-1,1.0,0.13360000000000127
30,18,0.5,1.0,-35.0,-1,1.0,0.13589999999999236
31,18,0.5,1.0,35.0,-1,0.0,0.14160000000001105
32,18,0.5,0.125,35.0,1,1.0,0.23330000000001405
33,18,0.5,1.0,-35.0,-1,1.0,0.2711000000000183
34,18,0.5,0.125,35.0,-1,0.0,0.13360000000000127
35,18,0.5,0.125,-35.0,-1,1.0,0.1641999999999939
36,18,0.5,0.0625,35.0,-1,0.0,0.12800000000001432
37,18,0.1,0.0625,35.0,-1,0.0,0.14519999999998845
38,18,0.5,1.0,35.0,1,1.0,0.19780000000000086
39,18,0.5,0.0625,-35.0,1,0.0,0.09430000000000405
40,18,0.5,0.0,35.0,-1,0.0,0.1524000000000001
41,18,0.5,0.0625,-35.0,-1,1.0,0.216700000000003
42,18,0.5,1.0,-35.0,-1,1.0,0.22769999999999868
43,18,0.5,0.125,-35.0,-1,1.0,0.5204999999999984
44,18,0.5,1.0,-35.0,-1,1.0,0.14509999999998513
45,18,0.5,1.0,-35.0,-1,1.0,-0.004899999999992133
46,18,0.5,0.125,35.0,-1,0.0,0.15460100000001376
47,18,0.2,0.125,35.0,-1,0.0,0.13820000000001187
48,18,0.5,1.0,35.0,1,1.0,0.2674000000000092
49,18,0.5,0.25,-35.0,-1,1.0,0.157100000000014
50,18,0.5,1.0,-35.0,-1,1.0,0.16079999999999472
51,18,0.5,0.0625,35.0,1,1.0,0.21280000000001564
52,18,0.5,0.125,-35.0,-1,1.0,0.1301000000000272
53,18,0.5,0.25,-35.0,-1,1.0,0.16859999999996944
54,18,0.5,0.25,-35.0,-1,1.0,0.14249999999998408
55,18,0.5,0.0625,-35.0,-1,1.0,0.12749999999999773
56,18,0.5,0.0,35.0,-1,0.0,0.163599999999974
57,18,0.2,0.0,35.0,-1,0.0,0.14740000000000464
58,18,0.5,1.0,35.0,1,1.0,0.18800000000004502
59,18,0.5,0.125,-35.0,-1,1.0,0.1560999999999808
60,18,0.5,0.125,-35.0,-1,1.0,0.14180099999998674
61,18,0.5,0.25,35.0,1,1.0,0.20439999999996417
62,18,0.5,1.0,35.0,1,1.0,0.19029999999997926
63,18,0.5,1.0,-35.0,-1,1.0,0.18280000000004293
64,18,0.5,1.0,-35.0,-1,1.0,0.5237000000000194
65,18,0.5,0.125,-35.0,-1,1.0,0.1512000000000171
66,18,0.5,0.125,-35.0,-1,1.0,0.13650000000001228
67,18,0.5,1.0,-35.0,-1,1.0,0.23020000000002483
68,18,0.5,1.0,-35.0,-1,1.0,0.13040000000000873
69,18,0.5,0.25,35.0,1,1.0,0.24689999999998236
70,18,0.5,0.0,-35.0,-1,1.0,0.16209999999995262
71,18,0.5,1.0,-35.0,-1,1.0,0.12669999999997117
72,18,0.5,0.125,-35.0,-1,1.0,0.15690000000000737
73,18,0.5,0.125,35.0,-1,0.0,0.15389999999996462
74,18,0.5,0.0,-35.0,-1,1.0,0.16400099999998474
75,18,0.5,0.25,-35.0,-1,1.0,-0.03459999999995489
76,18,0.5,0.0625,35.0,-1,0.0,0.1567009999999982
77,18,0.1,0.0625,-35.0,-1,1.0,0.16170000000005302
78,18,0.5,1.0,35.0,1,1.0,0.233099999999979
79,18,0.5,0.25,-35.0,-1,1.0,0.15279999999995653
80,18,0.5,1.0,35.0,1,1.0,0.2335000000000491
81,18,0.5,0.125,-35.0,-1,1.0,0.1453010000000745
82,18,0.5,1.0,-35.0,-1,1.0,0.16170000000005302
83,18,0.5,1.0,35.0,-1,0.0,0.11520000000001573
84,18,0.2,1.0,35.0,-1,0.0,0.12620000000003984
85,18,0.2,1.0,35.0,1,1.0,0.20810000000000173
86,18,0.5,1.0,35.0,1,1.0,0.1525999999999499
87,18,0.5,0.125,-35.0,-1,1.0,0.1595999999999549
88,18,0.5,0.125,-35.0,-1,1.0,0.25740100000001576
89,18,0.5,0.25,35.0,-1,0.0,0.1594000000000051
90,18,0.3,0.25,-35.0,-1,1.0,0.1684999999999377
91,18,0.5,1.0,35.0,1,1.0,0.1904999999999859
92,18,0.5,0.0,35.0,-1,0.0,0.24790000000001555
93,18,0.3,0.0,-35.0,-1,1.0,0.20510099999995646
94,18,0.5,1.0,35.0,-1,0.0,0.14170000000001437
95,18,0.5,0.0625,35.0,1,1.0,0.22670000000005075
96,18,0.5,0.0,35.0,1,1.0,0.1904999999999859
97,18,0.5,0.25,35.0,-1,0.0,0.20780100000001767
98,18,0.5,0.25,35.0,1,1.0,0.19880000000000564
99,18,0.5,0.0625,-35.0,-1,1.0,0.1541000000000281
100,18,0.5,1.0,35.0,1,1.0,0.2074000000000069
101,18,0.5,0.0625,35.0,-1,0.0,0.27389999999996917
102,18,0.5,0.25,-35.0,-1,1.0,0.1312000000000353
103,18,0.5,1.0,-35.0,-1,1.0,0.1523000000000252
104,18,0.5,0.125,35.0,-1,0.0,0.04200000000003001
105,18,0.5,0.125,35.0,-1,0.0,0.12510000000003174
106,18,0.5,0.0625,-35.0,-1,1.0,0.20070100000003777
107,18,0.5,0.125,-35.0,-1,1.0,0.15510100000000193
108,18,0.5,1.0,-35.0,-1,1.0,0.028099999999994907
109,18,0.5,1.0,35.0,1,1.0,0.19220000000001392
110,18,0.5,0.25,-35.0,-1,1.0,0.2136000000000422
111,18,0.5,0.0625,-35.0,-1,1.0,0.23569999999995161
112,18,0.5,1.0,-35.0,-1,1.0,0.1453999999998814
113,18,0.5,0.125,35.0,1,1.0,0.19380099999989397
114,18,0.5,0.0,-35.0,-1,1.0,0.26909999999998035
115,18,0.5,0.0625,-35.0,-1,1.0,0.15320099999996728
116,18,0.5,0.125,-35.0,-1,1.0,0.24090000000001055
117,18,0.5,0.125,35.0,1,1.0,0.18279999999992924
118,18,0.5,1.0,-35.0,-1,1.0,0.20249999999998636
119,18,0.5,0.125,-35.0,-1,1.0,0.195699999999988
120,18,0.5,0.0625,-35.0,-1,1.0,0.21029999999996107
121,18,0.5,0.25,35.0,1,1.0,0.24850000000003547
122,18,0.5,0.0625,35.0,1,1.0,0.3973999999999478
123,18,0.5,0.25,-35.0,-1,1.0,0.2923999999999296
124,18,0.5,0.0,35.0,-1,0.0,0.30499999999995
125,18,0.5,0.125,-35.0,-1,1.0,0.19929999999999382
126,18,0.5,0.125,35.0,1,1.0,0.2020999999998594
127,18,0.5,0.125,-35.0,-1,1.0,0.08129999999994197
128,18,0.5,0.0625,35.0,-1,0.0,0.17220099999997274
129,18,0.5,0.0625,35.0,-1,0.0,0.21660099999985505
130,18,0.5,0.25,35.0,1,1.0,0.17929999999989832
131,18,0.5,0.0625,35.0,1,1.0,0.2557999999999083
132,18,0.5,0.25,-35.0,-1,1.0,0.07839999999998781
133,18,0.5,1.0,35.0,1,1.0,0.1994999999999436
134,18,0.5,0.0625,-35.0,-1,1.0,0.19859999999982847
135,18,0.5,0.125,35.0,-1,0.0,0.2599999999999909
136,18,0.5,0.25,-35.0,-1,1.0,0.18709999999998672
137,18,0.5,0.0625,-35.0,-1,1.0,0.2359999999998763
138,18,0.5,0.0625,35.0,1,1.0,0.2939000000000078
139,18,0.5,0.125,35.0,-1,0.0,0.17649999999991905
140,18,0.5,0.25,35.0,1,1.0,0.21629999999993288
141,18,0.5,0.0,35.0,-1,0.0,0.19109999999989213
142,18,0.5,0.125,-35.0,-1,1.0,0.17460000000005493
143,18,0.5,0.125,35.0,1,1.0,0.29349999999988086
144,18,0.5,0.125,-35.0,-1,1.0,0.08110099999987597
145,18,0.5,1.0,35.0,1,1.0,0.20790099999999256
146,18,0.5,1.0,35.0,1,1.0,0.2091009999999187
147,18,0.5,1.0,35.0,1,1.0,0.17239999999992506
148,18,0.5,0.0625,-35.0,-1,1.0,0.23919999999986885
149,18,0.5,1.0,35.0,1,1.0,0.22070099999996273
150,18,0.5,0.125,35.0,-1,0.0,0.4089009999999007
151,18,0.5,0.0,35.0,-1,0.0,0.425200000000018
152,18,0.5,0.0625,35.0,-1,0.0,0.250699999999938
153,18,0.5,0.0625,35.0,1,1.0,0.23669999999992797
154,18,0.5,1.0,-35.0,-1,1.0,0.19040099999995164
155,18,0.5,1.0,35.0,1,1.0,0.1915999999998803
156,18,0.5,0.0625,35.0,1,1.0,0.36449999999979354
157,18,0.5,0.125,-35.0,-1,1.0,0.21269999999992706
158,18,0.5,0.0625,35.0,-1,0.0,0.22269999999991796
159,18,0.5,0.125,-35.0,-1,1.0,0.19759999999985212
160,18,0.5,0.125,35.0,-1,0.0,0.27520000000004075
161,18,0.3,0.125,35.0,1,1.0,0.27329999999994925
162,18,0.5,1.0,35.0,1,1.0,0.17489999999997963
163,18,0.5,0.0,35.0,-1,0.0,0.28119999999989886
164,18,0.5,0.25,35.0,1,1.0,0.1850009999999429
165,18,0.5,0.0,-35.0,1,0.0,0.16860099999996692
166,18,0.5,0.25,35.0,1,1.0,0.2603000000000293
167,18,0.5,0.0,35.0,1,1.0,0.3428000000000111
168,18,0.5,1.0,35.0,1,1.0,0.19639999999992597
169,18,0.5,0.125,-35.0,-1,1.0,0.2256999999999607
170,18,0.5,0.125,35.0,-1,0.0,0.47879999999997835
171,18,0.5,0.125,-35.0,-1,1.0,0.0022999999998774
172,18,0.5,1.0,35.0,1,1.0,0.22659999999984848
173,18,0.5,1.0,-35.0,-1,1.0,0.37219999999990705
174,18,0.5,0.0,35.0,1,1.0,0.12110100000006696
175,18,0.5,0.0,35.0,-1,0.0,0.22070000000007894
176,18,0.5,0.125,35.0,1,1.0,0.16989999999998417
177,18,0.5,1.0,-35.0,-1,1.0,0.22069999999996526
178,18,0.5,0.125,35.0,1,1.0,0.2889999999998736
179,18,0.5,0.0625,-35.0,-1,1.0,0.24269999999989977
180,18,0.5,1.0,-35.0,-1,1.0,0.24899999999990996
181,18,0.5,0.0625,35.0,1,1.0,0.2749999999998636
182,18,0.5,0.0625,35.0,1,1.0,0.2381000000000313
183,18,0.5,0.125,35.0,1,1.0,0.03679999999997108
184,18,0.5,1.0,-35.0,-1,1.0,0.19119999999986703
185,18,0.5,1.0,-35.0,-1,1.0,0.18319999999994252
186,18,0.5,0.125,35.0,1,1.0,0.17459999999994125
187,18,0.5,0.0625,-35.0,-1,1.0,0.2778009999998403
188,18,0.5,0.0625,-35.0,-1,1.0,0.3039999999999736
189,18,0.5,0.0625,35.0,-1,0.0,0.36219999999991614
190,18,0.5,0.125,-35.0,-1,1.0,0.2197999999999638
191,18,0.5,0.125,-35.0,-1,1.0,0.18189999999992779
192,18,0.5,0.0625,-35.0,-1,1.0,0.19119999999998072
193,18,0.5,1.0,-35.0,-1,1.0,0.18290000000001783
194,18,0.5,0.25,-35.0,-1,1.0,0.3225999999999658
195,18,0.5,0.25,35.0,1,1.0,0.24289999999996326
196,18,0.5,0.25,-35.0,-1,1.0,0.25139999999998963
197,18,0.5,1.0,-35.0,-1,1.0,0.3773999999998523
198,18,0.5,0.0,35.0,1,1.0,0.29589999999996053
199,18,0.5,0.0625,35.0,-1,0.0,0.20879999999988286
200,18,0.2,0.0625,35.0,1,1.0,0.20159999999987122
201,18,0.5,1.0,35.0,1,1.0,0.11069999999995161
202,18,0.5,1.0,-35.0,-1,1.0,0.23550000000000182
203,18,0.5,0.0,-35.0,-1,1.0,0.1592999999999165
204,18,0.5,0.25,-35.0,-1,1.0,0.21500099999991562
205,18,0.5,1.0,-35.0,-1,1.0,0.1876999999999498
206,18,0.5,0.0625,-35.0,-1,1.0,0.23709999999994125
207,18,0.5,0.125,-35.0,-1,1.0,0.16999999999995907
208,18,0.5,0.0625,35.0,-1,0.0,0.19389999999998508
209,18,0.2,0.0625,35.0,1,1.0,0.2010010000000193
210,18,0.5,1.0,35.0,1,1.0,0.19899999999995543
211,18,0.5,0.125,35.0,1,1.0,0.20289999999988595
212,18,0.5,0.125,-35.0,1,0.0,0.3410999999999831
213,18,0.5,0.0625,35.0,1,1.0,0.173300999999924
214,18,0.5,0.0625,35.0,1,1.0,0.21939999999983684
215,18,0.5,0.0,-35.0,-1,1.0,0.3809009999998807
216,18,0.5,0.0,35.0,-1,0.0,0.28309999999999036
217,18,0.6,0.0,-35.0,1,0.0,0.1352999999999156
218,18,0.5,1.0,-35.0,-1,1.0,0.27729999999996835
219,18,0.5,0.125,35.0,1,1.0,0.21669999999994616
220,18,0.5,1.0,35.0,1,1.0,0.14200000000005275
221,18,0.5,0.0625,-35.0,-1,1.0,0.21909999999991214
222,18,0.5,0.0625,-35.0,-1,1.0,0.18249999999989086
223,18,0.5,1.0,-35.0,-1,1.0,0.1715999999998985
224,18,0.5,0.0625,35.0,-1,0.0,0.3108009999998558
225,18,0.3,0.0625,35.0,1,1.0,0.3269000000000233
226,18,0.5,1.0,35.0,1,1.0,0.19059999999990396
227,18,0.5,0.0625,35.0,-1,0.0,0.18449999999995725
228,18,0.4,0.0625,-35.0,1,0.0,0.14949999999998909
229,18,0.5,1.0,-35.0,-1,1.0,0.19669999999996435
230,18,0.5,0.0625,-35.0,1,0.0,0.380800000000022
231,18,0.5,0.125,-35.0,-1,1.0,0.17319999999995161
232,18,0.5,0.125,-35.0,-1,1.0,0.18260099999997692
233,18,0.5,0.125,35.0,-1,0.0,0.14269999999987704
234,18,0.5,0.0,35.0,1,1.0,0.25670000000002346
235,18,0.5,0.0625,-35.0,-1,1.0,0.3341010000000324
236,18,0.5,0.125,35.0,1,1.0,0.24340000000006512
237,18,0.5,0.0625,35.0,-1,0.0,0.21400099999993927
238,18,0.5,0.125,-35.0,-1,1.0,0.15039999999999054
239,18,0.5,0.125,35.0,-1,0.0,0.1611000000000331
240,18,0.5,0.125,-35.0,-1,1.0,0.17049999999994725
241,18,0.5,0.125,-35.0,-1,1.0,0.18459999999981846
242,18,0.5,0.0,-35.0,-1,1.0,0.3040009999999711
243,18,0.5,0.0625,-35.0,-1,1.0,0.19129999999972824
244,18,0.5,0.25,35.0,-1,0.0,0.1874009999999089
245,18,0.5,0.125,35.0,1,1.0,0.2880999999999858
246,18,0.5,0.0625,35.0,1,1.0,0.2141999999998916
247,18,0.5,1.0,-35.0,-1,1.0,0.20479999999975007
248,18,0.5,0.0625,35.0,1,1.0,0.03099999999994907
249,18,0.5,0.125,-35.0,-1,1.0,0.24479999999994106
250,18,0.5,0.0,-35.0,-1,1.0,0.19110000000000582
251,18,0.5,1.0,-35.0,-1,1.0,0.17839999999978318
252,18,0.5,0.25,-35.0,-1,1.0,0.20110099999988051
253,18,0.5,1.0,-35.0,-1,1.0,0.17820099999994454
254,18,0.5,0.25,35.0,1,1.0,0.29119999999988977
255,18,0.5,1.0,35.0,1,1.0,0.1915999999998803
256,18,0.5,0.0625,35.0,-1,0.0,0.1312999999997828
257,18,0.5,0.125,-35.0,-1,1.0,0.16529999999988831
258,18,0.5,0.125,-35.0,-1,1.0,0.21130099999982122
259,18,0.5,0.25,35.0,1,1.0,0.23530000000005202
260,18,0.5,0.125,-35.0,-1,1.0,0.20149999999989632
261,18,0.5,1.0,35.0,1,1.0,0.20180099999993217
262,18,0.5,0.125,35.0,1,1.0,0.13820000000009713
263,18,0.5,0.0625,35.0,-1,0.0,0.23850099999981467
264,18,0.5,0.0,35.0,-1,0.0,0.21829999999999927
265,18,0.5,0.25,35.0,-1,0.0,0.12869999999998072
266,18,0.5,0.0,35.0,-1,0.0,0.4285010000000966
267,18,0.5,0.0625,35.0,-1,0.0,0.2255999999999858
268,18,0.5,0.25,35.0,1,1.0,0.1886010000000624
269,18,0.5,0.125,35.0,1,1.0,0.4089999999998781
270,18,0.5,0.125,-35.0,-1,1.0,0.24859999999989668
271,18,0.5,0.25,35.0,1,1.0,0.3324000000000069
272,18,0.5,0.25,35.0,1,1.0,0.3987999999999374
273,18,0.5,0.0625,-35.0,-1,1.0,0.17570000000000618
274,18,0.5,0.125,35.0,1,1.0,0.20209999999997308
275,18,0.5,0.0625,-35.0,-1,1.0,0.25270000000000437
276,18,0.5,0.0625,-35.0,1,0.0,0.41219999999998436
277,18,0.5,0.0625,-35.0,-1,1.0,0.3295010000001639
278,18,0.5,1.0,35.0,1,1.0,0.24230099999999766
279,18,0.5,0.25,35.0,1,1.0,0.15950099999986378
280,18,0.5,1.0,-35.0,-1,1.0,0.22239999999987958
281,18,0.5,1.0,-35.0,-1,1.0,0.21280000000001564
282,18,0.5,0.125,35.0,-1,0.0,0.2057999999999538
283,18,0.5,0.0,35.0,1,1.0,0.44299999999998363
284,18,0.5,0.125,-35.0,-1,1.0,0.25250000000005457
285,18,0.5,0.125,-35.0,-1,1.0,0.1895999999999276
286,18,0.5,1.0,35.0,1,1.0,0.19269999999983156
287,18,0.5,0.25,35.0,1,1.0,0.13990000000012515
288,18,0.5,0.25,-35.0,-1,1.0,0.1895999999999276
289,18,0.5,0.25,35.0,1,1.0,0.21309999999994034
290,18,0.5,1.0,35.0,1,1.0,0.1995999999999185
291,18,0.5,0.125,35.0,1,1.0,0.20339999999987413
292,18,0.5,1.0,35.0,1,1.0,0.17300000000000182
293,18,0.5,0.0,-35.0,1,0.0,0.29350099999987833
294,18,0.5,0.25,-35.0,-1,1.0,0.20300099999985832
295,18,0.5,1.0,35.0,1,1.0,0.1937000000000353
296,18,0.5,0.0625,35.0,-1,0.0,0.20650099999988925
297,18,0.5,0.25,35.0,1,1.0,0.17689999999993233
298,18,0.5,1.0,35.0,1,1.0,0.21660000000019863
299,18,0.5,0.0625,-35.0,1,0.0,0.3672999999998865
300,18,0.8,0.0625,-35.0,-1,1.0,0.25989999999978863
301,18,0.5,1.0,-35.0,-1,1.0,0.24720000000002074
302,18,0.5,1.0,-35.0,-1,1.0,0.24999999999977263
303,18,0.5,1.0,35.0,1,1.0,0.14710100000002058
304,18,0.5,0.25,35.0,1,1.0,0.22019999999997708
305,18,0.5,1.0,35.0,1,1.0,0.20720000000005712
306,18,0.5,0.25,35.0,1,1.0,0.10030100000017228
307,18,0.5,0.25,35.0,1,1.0,0.507799999999861
308,18,0.5,0.0625,35.0,1,1.0,0.24700099999995473
309,18,0.5,0.125,-35.0,-1,1.0,0.2941009999997277
310,18,0.5,1.0,35.0,1,1.0,0.2038000000000011
311,18,0.5,0.25,-35.0,-1,1.0,0.23090000000001965
312,18,0.5,1.0,35.0,1,1.0,0.16400099999987106
313,18,0.5,0.0,-35.0,-1,1.0,0.2742999999998119
314,18,0.5,0.125,35.0,-1,0.0,0.23739999999997963
315,18,0.5,0.0625,35.0,-1,0.0,0.20459999999980027
316,18,0.5,0.0625,35.0,1,1.0,0.37409999999999854
317,18,0.5,1.0,35.0,1,1.0,0.20109999999999673
318,18,0.5,0.0,35.0,1,1.0,0.15089999999986503
319,18,0.5,0.0625,-35.0,-1,1.0,0.2513010000000122
320,18,0.5,0.125,35.0,1,1.0,0.15760099999988597
321,18,0.5,0.125,-35.0,-1,1.0,0.17809999999985848
322,18,0.5,1.0,-35.0,-1,1.0,0.1876999999999498
323,18,0.5,0.0625,35.0,-1,0.0,0.21159999999986212
324,18,0.5,0.0625,35.0,1,1.0,0.1512009999999009
325,18,0.5,0.0625,-35.0,-1,1.0,0.16160100000001876
326,18,0.5,0.0625,35.0,1,1.0,0.21460000000001855
327,18,0.5,1.0,35.0,1,1.0,0.17530099999999038
328,18,0.5,0.0625,35.0,1,1.0,0.2946999999996933
329,18,0.5,0.0625,-35.0,1,0.0,0.16879999999991924
330,18,0.5,0.125,35.0,1,1.0,0.3116010000001097
331,18,0.5,0.125,35.0,1,1.0,0.1855000000000473
332,18,0.5,0.0625,-35.0,1,0.0,0.2849999999998545
333,18,0.5,0.125,35.0,1,1.0,0.18899999999985084
334,18,0.5,0.125,35.0,1,1.0,0.1851000000001477
335,18,0.5,0.125,35.0,1,1.0,0.25900000000001455
336,18,0.5,0.25,35.0,1,1.0,0.20519999999987704
337,18,0.5,1.0,-35.0,-1,1.0,0.22239999999987958
338,18,0.5,0.25,-35.0,-1,1.0,0.20859999999993306
339,18,0.5,0.0625,-35.0,-1,1.0,0.3492999999998574
340,18,0.5,0.125,-35.0,-1,1.0,0.17540099999996528
341,18,0.5,0.25,-35.0,-1,1.0,0.24570100000005368
342,18,0.5,0.0625,35.0,1,1.0,0.3653999999999087
343,18,0.5,0.0625,35.0,1,1.0,0.36599999999998545
344,18,0.5,0.125,35.0,1,1.0,0.21219999999993888
345,18,0.5,1.0,-35.0,-1,1.0,0.2360999999998512
346,18,0.5,0.25,-35.0,-1,1.0,0.38229999999998654
347,18,0.5,0.0,35.0,1,1.0,0.15620000000012624
348,18,0.5,0.25,-35.0,-1,1.0,0.24909999999999854
349,18,0.5,0.125,35.0,1,1.0,0.24309999999991305
350,18,0.5,0.0625,35.0,-1,0.0,0.7158999999999196
351,18,0.5,0.125,35.0,1,1.0,0.4128000000000611
352,18,0.5,1.0,-35.0,-1,1.0,0.41599999999994
353,18,0.5,0.0625,-35.0,-1,1.0,0.1999999999998181
354,18,0.5,0.0,-35.0,-1,1.0,0.20940100000007078
355,18,0.5,0.0625,-35.0,-1,1.0,0.18010099999992235
356,18,0.5,0.25,35.0,1,1.0,0.246199999999817
357,18,0.5,1.0,-35.0,-1,1.0,0.2401999999999589
358,18,0.5,0.125,-35.0,-1,1.0,0.17960100000004786
359,18,0.5,1.0,-35.0,-1,1.0,0.33019999999987704
360,18,0.5,1.0,35.0,1,1.0,0.22299999999995634
361,18,0.5,0.125,35.0,1,1.0,0.14660000000003492
362,18,0.5,0.0625,-35.0,-1,1.0,0.736500999999862
363,18,0.5,1.0,-35.0,-1,1.0,0.19020100000011553
364,18,0.5,0.0,35.0,-1,0.0,0.7199000000000524
365,18,0.5,0.0625,35.0,-1,0.0,0.42059999999992215
366,18,0.5,0.0,-35.0,-1,1.0,0.24340000000006512
367,18,0.5,0.125,-35.0,-1,1.0,0.2803999999998723
368,18,0.5,0.25,35.0,1,1.0,0.22019999999997708
369,18,0.5,0.0625,-35.0,1,0.0,0.24430099999995036
370,18,0.5,0.125,35.0,1,1.0,0.23689999999987776
371,18,0.5,0.25,35.0,1,1.0,0.24759999999992033
372,18,0.5,1.0,-35.0,-1,1.0,0.5402010000000246
373,18,0.5,0.0625,-35.0,-1,1.0,0.22749999999973625
374,18,0.5,1.0,-35.0,-1,1.0,0.20369999999979882
375,18,0.5,0.125,-35.0,1,0.0,0.2176999999999225
376,18,0.5,0.0625,-35.0,-1,1.0,0.4004010000001017
377,18,0.5,0.0625,35.0,1,1.0,0.2643999999997959
378,18,0.5,0.25,35.0,1,1.0,0.28720000000021173
379,18,0.5,0.25,-35.0,-1,1.0,0.22759999999993852
380,18,0.5,0.0625,35.0,-1,0.0,0.2039999999999509
381,18,0.5,0.125,35.0,1,1.0,0.24430000000006658
382,18,0.5,0.25,35.0,1,1.0,0.2274009999998725
383,18,0.5,1.0,-35.0,-1,1.0,0.48129999999991924
384,18,0.5,0.0625,35.0,1,1.0,0.2074999999999818
385,18,0.5,0.25,35.0,1,1.0,0.151299999999992
386,18,0.5,0.0,-35.0,-1,1.0,0.2076009999998405
387,18,0.5,0.25,-35.0,-1,1.0,0.1981999999998152
388,18,0.5,1.0,35.0,1,1.0,0.4410000000000309
389,18,0.5,0.125,35.0,-1,0.0,0.4516000000000986
390,18,0.5,0.125,-35.0,-1,1.0,0.29109999999991487
391,18,0.5,0.125,35.0,1,1.0,0.2883999999999105
392,18,0.5,1.0,-35.0,-1,1.0,0.21780100000000857
393,18,0.5,0.25,35.0,1,1.0,0.22499999999990905
394,18,0.5,0.25,-35.0,-1,1.0,0.2613000000001193
395,18,0.5,0.0,-35.0,-1,1.0,0.3652009999998427
396,18,0.5,0.125,35.0,1,1.0,0.2980999999999767
397,18,0.5,0.0,35.0,1,1.0,0.23509999999987485
398,18,0.5,0.0625,-35.0,-1,1.0,0.3214999999997872
399,18,0.5,1.0,-35.0,-1,1.0,0.18190000000004147
400,18,0.5,0.0625,-35.0,-1,1.0,0.2215000000001055
401,18,0.5,0.0625,-35.0,-1,1.0,0.3351000000000113
402,18,0.5,1.0,-35.0,-1,1.0,0.2316009999999551
403,18,0.5,1.0,35.0,1,1.0,0.22199999999998
404,18,0.5,1.0,35.0,1,1.0,0.21839999999997417
405,18,0.5,0.25,-35.0,-1,1.0,0.205600000000004
406,18,0.5,0.125,35.0,1,1.0,0.24180100000012317
407,18,0.5,1.0,-35.0,-1,1.0,0.19250099999976555
408,18,0.5,0.0625,35.0,-1,0.0,0.21869999999989886
409,18,0.5,0.0625,35.0,1,1.0,0.14259999999990214
410,18,0.5,0.0625,-35.0,-1,1.0,0.18209999999999127
1,19,0.5,0.25,-35.0,1,0.0,0.7535999999999998
2,19,0.5,0.125,35.0,1,1.0,0.18069999999999897
3,19,0.5,0.125,35.0,1,1.0,0.36139999999999883
4,19,0.5,0.0625,-35.0,1,0.0,0.11210000000000164
5,19,0.5,0.125,-35.0,1,0.0,0.13540000000000063
6,19,0.5,0.125,35.0,1,1.0,0.1602999999999959
7,19,0.5,0.125,-35.0,1,0.0,0.11399999999999366
8,19,0.5,0.0,35.0,1,1.0,0.1495999999999995
9,19,0.5,0.125,35.0,1,1.0,0.22069999999999723
10,19,0.5,0.0625,35.0,1,1.0,0.3462999999999994
11,19,0.5,0.125,-35.0,1,0.0,0.1640999999999977
12,19,0.5,0.125,35.0,1,1.0,0.12100000000000222
13,19,0.5,0.25,35.0,1,1.0,0.2179000000000002
14,19,0.5,0.125,35.0,1,1.0,0.13250000000000028
15,19,0.5,0.125,35.0,1,1.0,0.17180000000000462
16,19,0.5,0.125,-35.0,1,0.0,0.1512000000000029
17,19,0.5,0.0625,-35.0,1,0.0,0.14049999999999585
18,19,0.5,0.125,-35.0,-1,1.0,0.38519999999999754
19,19,0.5,0.25,-35.0,-1,1.0,0.28879999999999484
20,19,0.5,0.0625,35.0,1,1.0,0.18240000000000123
21,19,0.5,0.25,35.0,1,1.0,0.22630000000000194
22,19,0.5,0.125,35.0,1,1.0,0.266200000000012
23,19,0.5,0.0625,-35.0,-1,1.0,0.4965000000000117
24,19,0.5,0.0625,35.0,-1,0.0,0.3178000000000054
25,19,0.5,0.0,-35.0,1,0.0,0.20880000000001075
26,19,0.5,0.25,-35.0,1,0.0,0.13330000000000553
27,19,0.5,0.0625,-35.0,-1,1.0,0.22710000000000719
28,19,0.5,0.125,-35.0,-1,1.0,0.23670000000001323
29,19,0.5,0.125,-35.0,-1,1.0,0.19310000000000116
30,19,0.5,0.0625,35.0,-1,0.0,0.1513000000000062
31,19,0.5,0.125,-35.0,-1,1.0,0.1893000000000029
32,19,0.5,0.0625,35.0,-1,0.0,0.16639999999999588
33,19,0.5,0.125,35.0,-1,0.0,0.19420000000002346
34,19,0.5,0.25,-35.0,-1,1.0,0.18300000000000693
35,19,0.5,0.0625,-35.0,-1,1.0,0.15100000000001046
36,19,0.5,1.0,35.0,1,1.0,0.2318000000000069
37,19,0.5,0.125,-35.0,-1,1.0,0.1500000000000199
38,19,0.5,0.25,-35.0,-1,1.0,0.18999999999999773
39,19,0.5,0.0,-35.0,-1,1.0,0.19490000000000407
40,19,0.5,0.25,35.0,-1,0.0,0.18600000000000705
41,19,0.5,0.0625,35.0,-1,0.0,0.23220000000000596
42,19,0.5,0.0,-35.0,-1,1.0,0.2231000000000023
43,19,0.5,0.25,35.0,1,1.0,0.3345999999999947
44,19,0.5,0.125,-35.0,-1,1.0,0.22339999999999804
45,19,0.5,1.0,-35.0,-1,1.0,0.208500000000015
46,19,0.5,1.0,35.0,1,1.0,0.20050000000000523
47,19,0.5,0.125,35.0,1,1.0,0.25
48,19,0.5,0.0625,35.0,1,1.0,0.4077000000000055
49,19,0.5,0.125,35.0,1,1.0,0.2669999999999959
50,19,0.5,1.0,-35.0,-1,1.0,0.38330000000001974
51,19,0.5,0.125,-35.0,-1,1.0,0.28419999999999845
52,19,0.5,0.0625,-35.0,-1,1.0,0.27470000000002415
53,19,0.5,1.0,35.0,1,1.0,0.29169999999999163
54,19,0.5,1.0,-35.0,1,0.0,0.18960000000001287
55,19,0.5,0.0625,-35.0,1,0.0,0.3286000000000229
56,19,0.5,0.0,-35.0,-1,1.0,0.31340000000000146
57,19,0.5,0.0625,-35.0,-1,1.0,0.2546000000000106
58,19,0.5,0.25,35.0,1,1.0,0.3480999999999881
59,19,0.5,0.0,35.0,-1,0.0,0.29710000000000036
60,19,0.5,0.25,-35.0,-1,1.0,0.244700000000023
61,19,0.5,0.25,35.0,1,1.0,0.27420000000000755
62,19,0.5,0.25,-35.0,-1,1.0,0.300200000000018
63,19,0.5,0.0,-35.0,1,0.0,0.3919999999999959
64,19,0.5,0.0,-35.0,-1,1.0,0.24840000000000373
65,19,0.5,1.0,35.0,1,1.0,0.3176000000000272
66,19,0.5,1.0,35.0,1,1.0,0.22900000000001342
67,19,0.5,0.125,35.0,1,1.0,0.2265000000000157
68,19,0.5,1.0,-35.0,-1,1.0,0.28650000000001796
69,19,0.5,0.0625,-35.0,-1,1.0,0.2861000000000047
70,19,0.5,1.0,35.0,1,1.0,0.27880000000001814
71,19,0.5,0.125,-35.0,-1,1.0,0.5341999999999985
72,19,0.5,0.0625,35.0,1,1.0,0.42910000000000537
73,19,0.5,0.125,35.0,-1,0.0,0.27230000000002974
74,19,0.5,0.0,35.0,-1,0.0,0.2680000000000007
75,19,0.5,0.25,35.0,1,1.0,0.20400000000000773
76,19,0.5,0.0625,35.0,1,1.0,0.19830000000001746
77,19,0.5,0.0625,-35.0,1,0.0,0.23430000000001883
78,19,0.5,0.0625,-35.0,-1,1.0,0.23470000000000368
79,19,0.5,0.125,35.0,1,1.0,0.29870000000002506
80,19,0.5,0.25,-35.0,-1,1.0,0.3949999999999818
81,19,0.5,0.25,-35.0,-1,1.0,0.34719999999998663
82,19,0.5,0.25,-35.0,-1,1.0,0.23620000000002506
83,19,0.5,0.25,-35.0,-1,1.0,0.25739999999998986
84,19,0.5,0.125,-35.0,-1,1.0,0.21920000000000073
85,19,0.5,0.0625,35.0,-1,0.0,0.22110000000000696
86,19,0.5,0.25,-35.0,-1,1.0,0.20249999999998636
87,19,0.5,0.25,-35.0,-1,1.0,0.3008999999999844
88,19,0.5,0.125,-35.0,-1,1.0,0.23029999999999973
89,19,0.5,0.0625,-35.0,-1,1.0,0.16940000000002442
90,19,0.5,0.0625,35.0,-1,0.0,0.25260000000000105
91,19,0.5,0.0625,-35.0,-1,1.0,0.15440000000000964
92,19,0.5,0.0,35.0,-1,0.0,0.08770000000001232
93,19,0.5,0.25,-35.0,-1,1.0,0.1325000000000216
94,19,0.5,0.0625,35.0,-1,0.0,0.1653999999999769
95,19,0.5,0.125,-35.0,-1,1.0,0.4404999999999859
96,19,0.5,0.0625,35.0,-1,0.0,0.8602999999999952
97,19,0.5,0.125,35.0,-1,0.0,0.14039999999999964
98,19,0.5,0.0,35.0,-1,0.0,0.13819999999998345
99,19,0.5,0.125,-35.0,-1,1.0,0.14220000000000255
100,19,0.5,1.0,35.0,1,1.0,0.218400000000031
101,19,0.5,0.125,-35.0,-1,1.0,0.29149999999992815
102,19,0.5,0.25,35.0,1,1.0,0.3258999999999901
103,19,0.5,0.25,-35.0,-1,1.0,0.31729999999993197
104,19,0.5,0.25,-35.0,-1,1.0,0.2715999999999781
105,19,0.5,0.125,35.0,1,1.0,0.27370000000001937
106,19,0.5,0.125,-35.0,-1,1.0,0.24970000000001846
107,19,0.5,1.0,35.0,1,1.0,0.22469999999998436
108,19,0.5,0.25,35.0,1,1.0,0.20249999999992951
109,19,0.5,0.25,35.0,1,1.0,0.2752999999999588
110,19,0.5,0.125,35.0,1,1.0,0.1694999999999709
111,19,0.5,0.125,35.0,1,1.0,0.15399999999999636
112,19,0.5,1.0,35.0,1,1.0,0.18799999999998818
113,19,0.5,0.0,-35.0,1,0.0,0.16459999999995034
114,19,0.8,0.0,-35.0,1,0.0,0.17669999999998254
115,19,0.5,1.0,-35.0,-1,1.0,0.20969999999994116
116,19,0.5,0.0,35.0,-1,0.0,0.2518000000000029
117,19,0.5,0.125,-35.0,-1,1.0,0.285699999999963
118,19,0.5,0.125,-35.0,-1,1.0,0.21259999999995216
119,19,0.5,0.125,35.0,1,1.0,0.3242999999999938
120,19,0.5,1.0,-35.0,-1,1.0,0.2645999999999731
121,19,0.5,1.0,35.0,1,1.0,0.211400000000026
122,19,0.5,0.0,-35.0,1,0.0,0.2381000000000313
123,19,0.5,0.0,-35.0,-1,1.0,0.3953999999999951
124,19,0.5,0.0625,35.0,-1,0.0,0.2758000000000038
125,19,0.3,0.0625,-35.0,-1,1.0,0.1630999999999858
126,19,0.5,1.0,35.0,1,1.0,0.275799999999947
127,19,0.5,0.0625,-35.0,-1,1.0,0.2528000000000361
128,19,0.5,1.0,35.0,-1,0.0,0.09120000000001482
129,19,0.5,0.25,35.0,1,1.0,0.2880999999999858
130,19,0.5,0.0625,35.0,-1,0.0,0.4069999999999254
131,19,0.5,0.0625,35.0,-1,0.0,0.2563999999999851
132,19,0.5,0.25,-35.0,-1,1.0,0.3825999999999681
133,19,0.5,0.0625,35.0,1,1.0,0.32339999999999236
134,19,0.5,1.0,35.0,1,1.0,0.24989999999996826
135,19,0.5,0.125,-35.0,-1,1.0,0.34049999999996317
136,19,0.5,0.125,35.0,1,1.0,0.30049999999999955
137,19,0.5,0.125,-35.0,-1,1.0,0.31979999999998654
138,19,0.5,1.0,-35.0,-1,1.0,0.23589999999995825
139,19,0.5,0.25,35.0,1,1.0,0.26099999999996726
140,19,0.5,0.125,-35.0,1,0.0,0.16190000000000282
141,19,0.5,0.125,35.0,1,1.0,0.22399999999998954
142,19,0.5,0.0,-35.0,1,0.0,0.28659999999996444
143,19,0.7,0.0,-35.0,1,0.0,0.21079999999994925
144,19,0.5,1.0,-35.0,-1,1.0,0.18909999999993943
145,19,0.5,0.25,-35.0,-1,1.0,0.2004999999999768
146,19,0.5,0.0625,-35.0,-1,1.0,0.3301999999999907
147,19,0.5,0.125,-35.0,-1,1.0,0.19199999999995043
148,19,0.5,0.25,35.0,-1,0.0,0.16879999999997608
149,19,0.5,0.0625,35.0,-1,0.0,0.14740000000000464
150,19,0.5,0.25,35.0,-1,0.0,0.16199999999997772
151,19,0.5,0.25,-35.0,-1,1.0,0.17969999999996844
152,19,0.5,0.125,-35.0,-1,1.0,0.16279999999994743
153,19,0.5,1.0,35.0,1,1.0,0.2826999999999771
154,19,0.5,0.125,35.0,1,1.0,0.26519999999993615
155,19,0.5,1.0,-35.0,-1,1.0,0.21359999999998536
156,19,0.5,0.0,35.0,-1,0.0,0.1329999999999245
157,19,0.5,0.25,35.0,1,1.0,0.22739999999993188
158,19,0.5,1.0,35.0,1,1.0,0.12549999999998818
159,19,0.5,0.25,-35.0,-1,1.0,0.2547999999999888
160,19,0.5,0.0,-35.0,1,0.0,0.407100000000014
161,19,0.5,0.0,-35.0,1,0.0,0.15699999999992542
162,19,0.5,1.0,-35.0,-1,1.0,0.21010000000001128
163,19,0.5,1.0,35.0,1,1.0,0.21750000000002956
164,19,0.5,0.25,35.0,1,1.0,0.24809999999996535
165,19,0.5,1.0,35.0,1,1.0,0.18250000000000455
166,19,0.5,1.0,35.0,1,1.0,0.2078999999999951
167,19,0.5,0.125,-35.0,-1,1.0,0.33969999999999345
168,19,0.5,0.25,35.0,1,1.0,0.28750000000002274
169,19,0.5,0.125,35.0,1,1.0,0.1884999999999195
