trial_num,session_num,stim_probability_left,contrast,position,response_choice,trial_correct,reaction_time
1,1,0.5,0.25,-35.0,-1,1.0,1.0639
2,1,0.5,0.125,35.0,-1,0.0,0.3050999999999995
3,1,0.5,0.125,35.0,1,1.0,0.252200000000002
4,1,0.5,0.0625,-35.0,-1,1.0,0.4582000000000015
5,1,0.5,0.25,-35.0,-1,1.0,0.2754000000000012
6,1,0.5,0.125,35.0,1,1.0,0.5418999999999983
7,1,0.5,0.25,35.0,1,1.0,0.3085000000000022
8,1,0.5,0.125,-35.0,-1,1.0,0.3045000000000009
9,1,0.5,0.125,-35.0,-1,1.0,0.41449999999999676
10,1,0.5,0.125,35.0,-1,0.0,0.16969999999999885
11,1,0.5,1.0,35.0,1,1.0,0.28660000000000707
12,1,0.5,1.0,35.0,-1,0.0,0.9943000000000026
13,1,0.5,0.0625,-35.0,-1,1.0,0.8220999999999989
14,1,0.5,0.25,35.0,-1,0.0,1.2338999999999984
15,1,0.5,1.0,-35.0,-1,1.0,0.3357000000000028
16,1,0.5,0.0,-35.0,-1,1.0,1.424900000000001
17,1,0.5,1.0,-35.0,-1,1.0,0.3447000000000031
18,1,0.5,0.0625,35.0,-1,0.0,1.3863999999999947
19,1,0.5,0.25,-35.0,-1,1.0,0.35430000000000916
20,1,0.5,1.0,-35.0,-1,1.0,0.31199900000000014
21,1,0.5,1.0,-35.0,-1,1.0,0.30389900000001546
22,1,0.5,0.0625,-35.0,-1,1.0,0.4270999999999958
23,1,0.5,0.25,35.0,1,1.0,2.9983000000000004
24,1,0.5,0.125,-35.0,-1,1.0,0.25490000000000634
25,1,0.5,1.0,-35.0,-1,1.0,0.3389000000000095
26,1,0.5,0.0625,-35.0,-1,1.0,3.629899999999992
27,1,0.5,0.125,-35.0,1,0.0,0.3225999999999942
28,1,0.5,0.25,-35.0,-1,1.0,0.2604999999999933
29,1,0.5,1.0,35.0,1,1.0,0.3378990000000073
30,1,0.5,0.0,35.0,-1,0.0,4.281199999999998
31,1,0.5,1.0,35.0,1,1.0,0.4340999999999724
32,1,0.5,0.25,-35.0,-1,1.0,1.4125000000000227
33,1,0.5,0.0625,-35.0,-1,1.0,0.5547999999999718
34,1,0.5,1.0,-35.0,-1,1.0,0.5876999999999555
35,1,0.5,0.0,-35.0,-1,1.0,0.26789999999996894
36,1,0.5,0.0625,35.0,-1,0.0,0.4146000000000072
37,1,0.5,1.0,35.0,1,1.0,0.37469999999999004
38,1,0.5,1.0,-35.0,-1,1.0,0.5703000000000031
39,1,0.5,0.25,-35.0,-1,1.0,0.3438000000000443
40,1,0.5,0.25,35.0,1,1.0,1.3203000000000031
41,1,0.5,0.125,-35.0,-1,1.0,0.34950000000000614
42,1,0.5,0.0625,-35.0,-1,1.0,0.4828000000000259
43,1,0.5,1.0,35.0,1,1.0,0.26329999999998677
44,1,0.5,1.0,35.0,1,1.0,0.6954000000000349
45,1,0.5,0.25,35.0,1,1.0,0.45249999999998636
46,1,0.5,0.125,-35.0,-1,1.0,0.4776000000000238
47,1,0.5,0.125,-35.0,-1,1.0,1.235999000000021
48,1,0.5,0.0625,-35.0,-1,1.0,0.6238989999999944
49,1,0.5,0.0625,-35.0,-1,1.0,0.37909900000002494
50,1,0.5,0.0,-35.0,-1,1.0,0.31390000000001805
51,1,0.5,1.0,-35.0,-1,1.0,0.3363000000000227
52,1,0.5,0.0,35.0,-1,0.0,0.32140000000001123
53,1,0.5,0.0625,35.0,-1,0.0,0.3464000000000169
54,1,0.5,0.125,-35.0,-1,1.0,4.918199999999985
55,1,0.5,0.125,35.0,1,1.0,0.4679000000000144
56,1,0.5,1.0,-35.0,-1,1.0,0.26950000000002206
57,1,0.5,0.125,-35.0,-1,1.0,0.6918000000000291
58,1,0.5,0.125,35.0,1,1.0,1.5089000000000112
59,1,0.5,0.125,-35.0,-1,1.0,3.547900000000027
60,1,0.5,0.0625,-35.0,-1,1.0,0.36689899999998943
61,1,0.5,0.0625,-35.0,-1,1.0,0.3024990000000116
62,1,0.5,1.0,-35.0,-1,1.0,0.35250000000002046
63,1,0.5,0.25,35.0,-1,0.0,0.43230000000002633
64,1,0.5,1.0,-35.0,-1,1.0,0.07389999999998054
65,1,0.5,0.0625,-35.0,-1,1.0,0.3020999999999674
66,1,0.5,0.125,-35.0,-1,1.0,0.3059000000000083
67,1,0.5,0.25,35.0,-1,0.0,0.6255999999999915
68,1,0.5,1.0,-35.0,-1,1.0,0.3906000000000063
69,1,0.5,0.25,35.0,1,1.0,0.36829999999997654
70,1,0.5,0.125,-35.0,-1,1.0,0.41679999999996653
71,1,0.5,0.0625,35.0,-1,0.0,0.5973000000000184
72,1,0.5,1.0,-35.0,-1,1.0,0.293200000000013
73,1,0.5,1.0,-35.0,-1,1.0,0.5438990000000103
74,1,0.5,1.0,-35.0,-1,1.0,0.43110000000007176
75,1,0.5,0.0625,-35.0,-1,1.0,0.2827000000000339
76,1,0.5,0.0625,-35.0,1,0.0,4.172900000000027
77,1,0.5,1.0,35.0,1,1.0,0.34699900000003936
78,1,0.5,0.25,35.0,1,1.0,0.38249900000005255
79,1,0.5,1.0,-35.0,-1,1.0,0.4289999999999736
80,1,0.5,0.25,-35.0,-1,1.0,0.7397000000000276
81,1,0.5,0.25,35.0,1,1.0,0.6124000000000365
82,1,0.5,0.125,35.0,1,1.0,3.2081000000000017
83,1,0.5,0.0,35.0,1,1.0,0.3808999999999969
84,1,0.5,1.0,-35.0,-1,1.0,0.4350000000000023
85,1,0.5,0.125,-35.0,1,0.0,0.9312000000000467
86,1,0.5,0.0,35.0,-1,0.0,0.303100000000029
87,1,0.5,1.0,-35.0,-1,1.0,0.6870000000000118
88,1,0.5,0.0,-35.0,-1,1.0,1.34050000000002
89,1,0.5,0.25,35.0,-1,0.0,1.292699999999968
90,1,0.5,0.0625,-35.0,-1,1.0,0.3566990000000487
91,1,0.2,1.0,-35.0,-1,1.0,0.3505999999999858
92,1,0.2,0.25,35.0,-1,0.0,0.3050000000000068
93,1,0.2,0.25,35.0,1,1.0,0.5228000000000748
94,1,0.2,0.25,35.0,1,1.0,5.76479999999998
95,1,0.2,0.0,35.0,-1,0.0,0.33440000000001646
96,1,0.2,1.0,35.0,1,1.0,0.495900000000006
97,1,0.2,0.0625,35.0,-1,0.0,0.5251000000000658
98,1,0.2,0.0,35.0,1,1.0,0.3251000000000204
99,1,0.2,0.125,35.0,1,1.0,0.6446000000000254
100,1,0.2,0.25,-35.0,1,0.0,0.3153000000000361
101,1,0.2,0.0,35.0,1,1.0,0.24950000000006867
102,1,0.2,0.25,35.0,1,1.0,0.3580000000000041
103,1,0.2,0.125,35.0,1,1.0,0.27979900000002544
104,1,0.2,0.0625,35.0,1,1.0,0.1937990000000127
105,1,0.2,0.0625,35.0,1,1.0,0.3124000000000251
106,1,0.2,0.25,35.0,1,1.0,0.45640000000003056
107,1,0.2,0.0625,35.0,1,1.0,0.5819999999999936
108,1,0.2,0.0625,35.0,1,1.0,2.1851990000000683
109,1,0.2,0.125,35.0,1,1.0,0.46670000000005984
110,1,0.2,0.0625,-35.0,1,0.0,0.2545989999999847
111,1,0.2,0.25,35.0,1,1.0,0.30740000000002965
112,1,0.2,0.125,35.0,1,1.0,0.24240000000003192
113,1,0.2,0.0625,35.0,1,1.0,0.30220000000002756
114,1,0.2,0.25,-35.0,-1,1.0,0.7945999999999458
115,1,0.2,0.125,35.0,1,1.0,0.3394999999999868
116,1,0.2,0.0,35.0,-1,0.0,0.33279999999996335
117,1,0.2,0.0625,35.0,1,1.0,0.7653999999999428
118,1,0.2,0.0,35.0,-1,0.0,4.301800000000014
119,1,0.2,0.0625,35.0,1,1.0,0.6259000000000583
120,1,0.2,0.0625,35.0,1,1.0,0.2857000000000198
121,1,0.2,0.25,35.0,1,1.0,0.7588000000000079
122,1,0.2,1.0,35.0,1,1.0,0.34590000000002874
123,1,0.2,0.0625,35.0,1,1.0,0.1798989999999776
124,1,0.2,0.0625,35.0,1,1.0,0.2633000000000152
125,1,0.2,0.125,35.0,1,1.0,0.5432999999999879
126,1,0.2,0.0,35.0,-1,0.0,0.7518000000000029
127,1,0.2,0.0,35.0,-1,0.0,0.5582000000000562
128,1,0.2,0.0,35.0,1,1.0,0.227800000000002
129,1,0.2,0.0625,35.0,-1,0.0,1.2823999999999955
130,1,0.2,0.125,-35.0,-1,1.0,0.40100000000001046
131,1,0.2,0.0625,35.0,-1,0.0,3.9096000000000117
132,1,0.2,0.0625,35.0,-1,0.0,0.3913000000000011
133,1,0.2,0.125,35.0,-1,0.0,0.3432000000000244
134,1,0.2,0.25,35.0,-1,0.0,0.3631990000000087
135,1,0.2,0.0625,35.0,-1,0.0,0.13049999999998363
136,1,0.2,0.125,-35.0,-1,1.0,0.40479999999990923
137,1,0.2,1.0,35.0,1,1.0,0.5979000000000951
138,1,0.2,0.125,35.0,1,1.0,0.4836999999999989
139,1,0.2,1.0,-35.0,-1,1.0,0.31920000000002346
140,1,0.2,0.125,35.0,-1,0.0,2.1345000000000027
141,1,0.2,0.25,35.0,1,1.0,0.6268000000001166
142,1,0.8,0.125,35.0,1,1.0,0.3893000000000484
143,1,0.8,0.25,-35.0,-1,1.0,0.48909999999989395
144,1,0.8,0.25,35.0,1,1.0,0.8795999999999822
145,1,0.8,0.25,35.0,1,1.0,0.5424000000000433
146,1,0.8,0.0625,35.0,-1,0.0,0.5123990000000731
147,1,0.8,1.0,-35.0,-1,1.0,0.8903000000000247
148,1,0.8,0.0625,-35.0,-1,1.0,0.2886999999999489
149,1,0.8,0.125,-35.0,-1,1.0,0.4197000000000344
150,1,0.8,1.0,-35.0,-1,1.0,0.4902999999999338
151,1,0.8,0.0625,-35.0,-1,1.0,0.49339999999995143
152,1,0.8,0.0,-35.0,-1,1.0,0.9278999999999087
153,1,0.8,0.125,35.0,1,1.0,4.875800000000027
154,1,0.8,0.0625,-35.0,1,0.0,0.6936000000000604
155,1,0.8,1.0,35.0,1,1.0,0.26720000000000255
156,1,0.8,0.125,-35.0,1,0.0,5.841800000000035
157,1,0.8,0.25,35.0,1,1.0,0.33160000000009404
158,1,0.8,0.25,35.0,1,1.0,0.21500000000003183
159,1,0.8,0.25,-35.0,-1,1.0,0.3488999999999578
160,1,0.8,0.125,35.0,-1,0.0,0.378400000000056
161,1,0.8,0.125,-35.0,-1,1.0,0.2699000000001206
162,1,0.8,0.25,-35.0,-1,1.0,0.26130000000000564
163,1,0.8,0.0625,-35.0,-1,1.0,0.4420999999998685
164,1,0.8,0.125,-35.0,-1,1.0,0.31949999999994816
165,1,0.8,0.25,-35.0,-1,1.0,0.3771000000000413
166,1,0.8,0.25,-35.0,-1,1.0,0.3123000000001639
167,1,0.8,0.125,-35.0,-1,1.0,5.772599000000014
168,1,0.8,1.0,-35.0,-1,1.0,0.32929999999998927
169,1,0.8,0.125,-35.0,1,0.0,0.7927990000000591
170,1,0.8,1.0,-35.0,1,0.0,0.4435999999999467
171,1,0.8,0.125,35.0,-1,0.0,0.28350000000000364
172,1,0.8,1.0,35.0,-1,0.0,0.18449999999995725
173,1,0.8,0.25,-35.0,1,0.0,0.4298999999999751
174,1,0.8,0.0625,35.0,-1,0.0,0.44860000000005584
175,1,0.8,0.0,-35.0,1,0.0,4.809898999999973
176,1,0.8,1.0,-35.0,1,0.0,0.5997999999999593
177,1,0.8,0.0625,-35.0,-1,1.0,0.6040000000001555
178,1,0.8,0.125,35.0,-1,0.0,0.1550999999999476
179,1,0.8,0.25,35.0,-1,0.0,0.5003990000000158
180,1,0.8,0.0625,-35.0,-1,1.0,0.425899999999956
181,1,0.2,0.125,-35.0,-1,1.0,0.35159999999996217
182,1,0.2,0.0625,35.0,-1,0.0,0.2942000000000462
183,1,0.2,0.25,35.0,-1,0.0,0.407100000000014
184,1,0.2,0.25,35.0,-1,0.0,0.4516000000000986
185,1,0.2,0.25,35.0,-1,0.0,0.5857989999999518
186,1,0.2,0.0625,35.0,-1,0.0,7.019499999999994
187,1,0.2,0.125,35.0,1,1.0,0.9130999999999858
188,1,0.2,1.0,35.0,1,1.0,0.5032999999999674
189,1,0.2,1.0,35.0,1,1.0,0.2763999999999669
190,1,0.2,1.0,35.0,1,1.0,0.5016000000000531
191,1,0.2,1.0,35.0,1,1.0,0.49069999999994707
192,1,0.2,0.125,35.0,1,1.0,0.3423000000000229
193,1,0.2,0.0,35.0,-1,0.0,0.411899999999946
194,1,0.2,0.125,35.0,1,1.0,0.5531000000000859
195,1,0.2,0.0,35.0,-1,0.0,0.34130000000004657
196,1,0.2,0.25,-35.0,-1,1.0,0.5688000000000102
197,1,0.2,1.0,35.0,1,1.0,0.7894000000001142
198,1,0.2,1.0,35.0,1,1.0,0.3645000000001346
199,1,0.2,0.0625,35.0,-1,0.0,0.1473999999999478
200,1,0.2,1.0,35.0,1,1.0,0.3910000000000764
201,1,0.2,1.0,35.0,1,1.0,0.2457000000000562
202,1,0.2,0.0,35.0,1,1.0,0.5803000000000793
203,1,0.2,1.0,35.0,1,1.0,1.0515000000000327
204,1,0.2,0.0625,35.0,1,1.0,8.255700000000047
205,1,0.2,1.0,35.0,1,1.0,0.2620990000000347
206,1,0.2,0.125,35.0,1,1.0,0.5910999999999831
207,1,0.2,0.125,35.0,1,1.0,0.3386999999999034
208,1,0.2,0.125,-35.0,1,0.0,0.2770990000000211
209,1,0.2,0.125,35.0,-1,0.0,0.2887000000000626
210,1,0.2,0.25,35.0,1,1.0,0.4007000000000289
211,1,0.2,0.25,35.0,1,1.0,0.27080000000000837
212,1,0.2,0.25,35.0,1,1.0,0.7789999999999964
213,1,0.2,0.25,35.0,1,1.0,0.3432999999999993
214,1,0.2,0.0625,35.0,1,1.0,3.8436000000000377
215,1,0.2,0.0625,35.0,1,1.0,0.34370000000001255
216,1,0.8,0.0625,-35.0,-1,1.0,1.0787990000000036
217,1,0.8,1.0,-35.0,-1,1.0,0.5593999999999824
218,1,0.8,0.25,35.0,1,1.0,0.41449999999997544
219,1,0.8,0.0,-35.0,-1,1.0,0.38369999999997617
220,1,0.8,0.25,-35.0,1,0.0,0.4642990000000964
221,1,0.8,1.0,-35.0,-1,1.0,0.3836000000000013
222,1,0.8,0.0,-35.0,-1,1.0,0.466199999999958
223,1,0.8,0.25,-35.0,-1,1.0,0.5033999999999423
224,1,0.8,0.0625,-35.0,-1,1.0,0.33589999999992415
225,1,0.8,0.25,-35.0,-1,1.0,10.274299999999926
226,1,0.8,0.125,-35.0,-1,1.0,0.4213999999999487
227,1,0.8,0.25,35.0,1,1.0,0.31749999999999545
228,1,0.8,0.0625,-35.0,1,0.0,0.35769999999990887
229,1,0.8,0.0,-35.0,1,0.0,0.6973999999999023
230,1,0.8,0.0,35.0,1,1.0,0.4158999999999651
231,1,0.8,0.125,-35.0,-1,1.0,0.6389990000000125
232,1,0.8,0.0,-35.0,-1,1.0,0.36220000000002983
233,1,0.8,0.25,-35.0,-1,1.0,0.459699999999998
234,1,0.8,0.125,-35.0,-1,1.0,0.46749899999997524
235,1,0.8,0.125,-35.0,-1,1.0,0.6084000000000742
236,1,0.8,0.125,-35.0,-1,1.0,0.3432000000000244
237,1,0.8,0.0625,-35.0,-1,1.0,0.8114000000000487
238,1,0.8,1.0,-35.0,-1,1.0,0.4758000000000493
239,1,0.8,1.0,-35.0,-1,1.0,0.4635999999999285
240,1,0.8,1.0,35.0,1,1.0,0.37570000000005166
241,1,0.8,0.25,-35.0,-1,1.0,0.2852990000000091
242,1,0.8,0.125,35.0,1,1.0,0.3852990000000318
243,1,0.8,0.0,-35.0,-1,1.0,9.737899999999968
244,1,0.8,0.0625,-35.0,-1,1.0,0.1934000000001106
245,1,0.8,0.0625,-35.0,-1,1.0,0.30389900000000125
246,1,0.8,0.125,-35.0,-1,1.0,0.512700000000109
247,1,0.8,0.0,-35.0,-1,1.0,0.5226000000000113
248,1,0.8,0.125,-35.0,-1,1.0,0.23140000000000782
249,1,0.8,0.0625,-35.0,-1,1.0,0.10740000000009786
250,1,0.8,0.0625,-35.0,-1,1.0,0.27329999999994925
251,1,0.8,1.0,-35.0,-1,1.0,0.3122999999999365
252,1,0.8,0.125,-35.0,-1,1.0,0.46469999999999345
253,1,0.8,0.25,-35.0,-1,1.0,2.3568989999996575
254,1,0.8,1.0,35.0,1,1.0,1.0815000000000055
255,1,0.8,1.0,-35.0,-1,1.0,0.9370999999996457
256,1,0.2,0.0,35.0,-1,0.0,0.2787999999995918
257,1,0.2,0.125,35.0,-1,0.0,0.4775999999999385
258,1,0.2,1.0,35.0,1,1.0,4.943199999999933
259,1,0.2,1.0,35.0,1,1.0,0.10089899999979934
260,1,0.2,0.25,35.0,1,1.0,0.666300000000092
261,1,0.2,1.0,35.0,1,1.0,0.30139999999983047
262,1,0.2,1.0,35.0,1,1.0,0.35359999999991487
263,1,0.2,0.125,-35.0,1,0.0,0.6558999999999742
264,1,0.2,0.0,-35.0,-1,1.0,0.518100000000004
265,1,0.2,0.0,35.0,-1,0.0,3.5136999999997443
266,1,0.2,0.0625,35.0,-1,0.0,0.5282999999997173
267,1,0.2,0.125,35.0,1,1.0,14.416200000000117
268,1,0.2,0.0625,35.0,1,1.0,0.5072999999999865
269,1,0.2,1.0,-35.0,-1,1.0,1.1731999999997242
270,1,0.2,0.25,35.0,1,1.0,0.4637000000000171
271,1,0.2,0.0625,35.0,1,1.0,0.6587999999999283
272,1,0.2,0.125,35.0,1,1.0,7.375999999999976
273,1,0.2,1.0,35.0,1,1.0,0.5628999999998996
274,1,0.2,0.0625,35.0,-1,0.0,37.74869999999987
275,1,0.2,1.0,35.0,1,1.0,1.902599999999893
276,1,0.2,0.0625,35.0,-1,0.0,4.624599999999873
277,1,0.2,1.0,-35.0,-1,1.0,0.3009999999999309
278,1,0.2,0.25,35.0,1,1.0,0.8064999999996871
279,1,0.2,0.0625,35.0,1,1.0,0.4720999999999549
280,1,0.2,0.0625,-35.0,-1,1.0,0.4979990000001635
281,1,0.2,0.25,35.0,1,1.0,0.3366000000000895
282,1,0.2,0.125,35.0,1,1.0,4.272199999999884
283,1,0.2,0.0,-35.0,-1,1.0,22.23989900000015
284,1,0.8,0.0,-35.0,1,0.0,0.5848999999998341
285,1,0.8,0.25,-35.0,-1,1.0,0.4403990000000704
286,1,0.8,0.25,-35.0,-1,1.0,1.9993999999999232
287,1,0.8,1.0,-35.0,-1,1.0,0.3110999999998967
288,1,0.8,0.0625,35.0,-1,0.0,2.639799000000039
289,1,0.8,0.25,35.0,-1,0.0,0.487999999999829
290,1,0.8,1.0,35.0,1,1.0,0.47640000000001237
291,1,0.8,0.125,-35.0,-1,1.0,6.865199999999959
292,1,0.8,1.0,-35.0,-1,1.0,0.3085999999998421
293,1,0.8,0.25,-35.0,-1,1.0,10.757900000000063
294,1,0.8,0.125,-35.0,-1,1.0,0.40309999999976753
295,1,0.8,0.25,-35.0,-1,1.0,0.3854999999998654
296,1,0.8,0.0625,-35.0,-1,1.0,0.3146999999999025
297,1,0.8,0.0,-35.0,-1,1.0,0.2606999999998152
298,1,0.8,1.0,35.0,1,1.0,0.9463999999998123
299,1,0.8,0.0625,-35.0,-1,1.0,6.92879999999991
300,1,0.8,0.0625,-35.0,-1,1.0,0.33940000000006876
301,1,0.8,0.25,-35.0,-1,1.0,0.4016999999996642
302,1,0.8,0.25,-35.0,-1,1.0,0.6640999999999622
303,1,0.8,0.0625,-35.0,-1,1.0,0.4198999999998705
304,1,0.8,0.0625,-35.0,-1,1.0,0.33829999999989013
305,1,0.8,1.0,-35.0,-1,1.0,0.3508999999999105
306,1,0.8,0.25,-35.0,-1,1.0,0.3128999999996722
307,1,0.8,0.0625,-35.0,-1,1.0,0.33549999999991087
308,1,0.8,0.0,-35.0,-1,1.0,0.31140000000004875
309,1,0.8,1.0,-35.0,-1,1.0,0.36379999999985557
310,1,0.8,0.25,-35.0,-1,1.0,4.442099999999982
311,1,0.8,1.0,-35.0,-1,1.0,0.44309900000007474
312,1,0.8,0.0,-35.0,1,0.0,1.0052999999998065
313,1,0.8,1.0,-35.0,-1,1.0,0.5239999999998872
314,1,0.8,1.0,-35.0,-1,1.0,0.5162000000000262
315,1,0.8,0.125,-35.0,-1,1.0,7.468399999999747
316,1,0.8,0.25,35.0,-1,0.0,0.3849999999999909
317,1,0.8,0.0,35.0,-1,0.0,0.5571999999999662
318,1,0.8,1.0,-35.0,-1,1.0,0.4227000000000771
319,1,0.8,1.0,-35.0,-1,1.0,0.34279899999978625
320,1,0.8,1.0,-35.0,-1,1.0,9.165199999999913
321,1,0.8,0.0625,35.0,-1,0.0,9.234500000000025
322,1,0.8,0.25,-35.0,-1,1.0,0.29710000000000036
323,1,0.8,0.125,-35.0,-1,1.0,1.0462999999999738
324,1,0.8,0.25,35.0,-1,0.0,14.397699999999986
325,1,0.8,0.125,-35.0,-1,1.0,2.2355999999997493
326,1,0.8,0.125,-35.0,-1,1.0,1.91379999999981
327,1,0.8,0.0,-35.0,-1,1.0,6.027400000000171
328,1,0.8,0.25,35.0,1,1.0,2.140100000000075
329,1,0.8,0.125,-35.0,-1,1.0,2.1752989999999954
330,1,0.8,0.0625,-35.0,-1,1.0,0.366800000000012
331,1,0.8,0.25,-35.0,-1,1.0,5.512299999999868
332,1,0.8,1.0,-35.0,-1,1.0,0.9454999999998108
333,1,0.8,0.25,-35.0,-1,1.0,0.21869999999989886
334,1,0.8,0.125,-35.0,-1,1.0,2.560899999999947
335,1,0.8,0.0625,-35.0,-1,1.0,0.1719999999997981
336,1,0.8,0.0,-35.0,-1,1.0,8.361100000000079
337,1,0.8,0.0625,-35.0,-1,1.0,5.7608000000000175
338,1,0.8,0.0625,-35.0,-1,1.0,7.94439999999986
339,1,0.8,0.25,-35.0,-1,1.0,4.227399999999989
340,1,0.8,0.25,-35.0,-1,1.0,7.711499999999887
341,1,0.8,0.0625,-35.0,-1,1.0,0.6473999999998341
342,1,0.8,0.25,-35.0,-1,1.0,7.013099999999895
343,1,0.8,0.125,-35.0,-1,1.0,0.5835999999999331
344,1,0.8,0.0625,-35.0,-1,1.0,6.842499999999973
345,1,0.8,0.25,-35.0,-1,1.0,0.3362999999999374
346,1,0.8,0.25,-35.0,-1,1.0,8.6783989999999
347,1,0.8,0.25,35.0,-1,0.0,0.4412999999999556
348,1,0.8,0.125,35.0,-1,0.0,0.3833999999997104
349,1,0.8,0.25,-35.0,-1,1.0,3.812199999999848
350,1,0.8,0.0,-35.0,-1,1.0,0.6263999999996486
351,1,0.8,0.0,-35.0,-1,1.0,3.612100000000055
352,1,0.8,0.125,35.0,-1,0.0,3.233400000000074
353,1,0.8,1.0,-35.0,-1,1.0,0.08799999999996544
354,1,0.8,0.0625,35.0,1,1.0,0.7134999999998399
355,1,0.8,1.0,35.0,1,1.0,0.6259999999999764
356,1,0.8,1.0,-35.0,-1,1.0,0.36819999999988795
357,1,0.8,0.0625,35.0,-1,0.0,5.25409999999988
358,1,0.8,0.0625,35.0,-1,0.0,0.3680999999996857
359,1,0.8,0.25,-35.0,-1,1.0,0.4402999999997519
360,1,0.2,0.125,35.0,1,1.0,0.6754000000000815
361,1,0.2,1.0,35.0,1,1.0,0.7842999999998028
362,1,0.2,0.0625,35.0,1,1.0,0.4032999999999447
363,1,0.2,0.0625,35.0,1,1.0,0.49909999999977117
364,1,0.2,1.0,35.0,1,1.0,0.5080000000000382
365,1,0.2,0.125,35.0,-1,0.0,3.913399999999683
366,1,0.2,0.25,35.0,1,1.0,0.5777999999997974
367,1,0.2,0.25,35.0,1,1.0,2.7368999999998778
368,1,0.2,0.0625,-35.0,-1,1.0,0.7185999999996966
369,1,0.2,0.0,-35.0,-1,1.0,6.54769999999985
370,1,0.2,0.0625,35.0,-1,0.0,0.25090000000000146
371,1,0.2,0.125,35.0,1,1.0,0.6697999999996682
372,1,0.2,0.0625,35.0,1,1.0,0.7089000000000851
373,1,0.2,0.25,35.0,-1,0.0,6.481300000000147
374,1,0.2,0.0625,-35.0,-1,1.0,0.2782999999999447
375,1,0.2,0.0625,35.0,-1,0.0,2.6371999999998934
376,1,0.2,0.25,35.0,1,1.0,0.6418999999998505
377,1,0.2,0.0625,35.0,-1,0.0,0.2677000000001044
378,1,0.2,0.0625,-35.0,-1,1.0,0.3731999999997697
379,1,0.2,0.25,35.0,1,1.0,0.6989999999998417
380,1,0.2,0.0625,35.0,1,1.0,6.057999999999765
381,1,0.2,0.0625,35.0,1,1.0,0.4019999999998163
382,1,0.2,0.125,-35.0,1,0.0,4.434199999999919
383,1,0.2,1.0,35.0,1,1.0,0.7485000000001492
384,1,0.2,0.125,35.0,1,1.0,1.6643000000001393
385,1,0.2,0.0,35.0,-1,0.0,5.972898999999643
386,1,0.2,0.25,35.0,1,1.0,0.5932999999999993
387,1,0.2,0.0,35.0,-1,0.0,5.358698999999888
388,1,0.2,1.0,35.0,1,1.0,0.5492999999999029
389,1,0.2,0.125,35.0,1,1.0,0.9416999999998552
390,1,0.2,0.0625,35.0,-1,0.0,2.8174999999998818
391,1,0.2,0.125,35.0,1,1.0,0.9021999999999935
392,1,0.2,0.125,35.0,-1,0.0,5.997499999999945
393,1,0.2,0.25,35.0,1,1.0,0.8779999999999291
394,1,0.2,0.125,35.0,1,1.0,0.4103999999997541
395,1,0.2,0.25,35.0,1,1.0,0.5428000000001703
396,1,0.2,0.125,35.0,1,1.0,0.8585999999997966
397,1,0.2,0.0,35.0,-1,0.0,7.927599999999984
398,1,0.2,1.0,-35.0,-1,1.0,0.6140990000001239
399,1,0.2,0.0,-35.0,-1,1.0,0.3830999999997857
400,1,0.2,0.25,35.0,-1,0.0,0.36879999999973734
401,1,0.2,1.0,-35.0,-1,1.0,0.650899999999865
402,1,0.2,0.0625,35.0,-1,0.0,0.41669999999976426
403,1,0.2,1.0,35.0,-1,0.0,0.3488999999999578
404,1,0.2,0.0625,-35.0,-1,1.0,2.9609999999997854
405,1,0.2,0.125,-35.0,-1,1.0,10.245499999999993
406,1,0.2,0.125,35.0,-1,0.0,6.214799999999968
407,1,0.2,0.0625,35.0,-1,0.0,5.871799999999894
408,1,0.2,0.0,-35.0,-1,1.0,1.3852999999996882
409,1,0.2,0.0625,-35.0,-1,1.0,0.45069999999986976
410,1,0.2,0.0,35.0,-1,0.0,0.4496999999998934
411,1,0.2,0.25,35.0,-1,0.0,17.495200000000068
412,1,0.2,0.0625,35.0,-1,0.0,45.82860000000028
413,1,0.2,1.0,35.0,1,1.0,0.645600000000286
414,1,0.8,0.125,-35.0,-1,1.0,0.25409999999965294
415,1,0.8,0.25,35.0,-1,0.0,6.459800000000087
416,1,0.8,0.25,-35.0,-1,1.0,4.469600000000355
417,1,0.8,0.25,35.0,-1,0.0,6.420799999999872
418,1,0.8,1.0,-35.0,-1,1.0,3.0511999999998807
419,1,0.8,1.0,-35.0,-1,1.0,4.008500000000367
420,1,0.8,0.125,-35.0,-1,1.0,0.0864000000001397
421,1,0.8,1.0,-35.0,-1,1.0,5.012299999999868
422,1,0.8,0.0625,-35.0,1,0.0,2.5865990000002057
423,1,0.8,0.25,-35.0,-1,1.0,5.734699999999975
424,1,0.8,0.0,35.0,-1,0.0,7.97420000000011
425,1,0.8,0.0625,35.0,-1,0.0,4.6698999999998705
426,1,0.8,0.125,-35.0,-1,1.0,0.33730000000014115
427,1,0.8,0.125,35.0,-1,0.0,0.3463000000001557
428,1,0.8,0.25,-35.0,-1,1.0,18.62830000000031
429,1,0.8,0.0625,-35.0,-1,1.0,0.18800000000010186
1,2,0.5,1.0,35.0,-1,0.0,0.6498000000000002
2,2,0.5,1.0,-35.0,-1,1.0,0.7888999999999999
3,2,0.5,0.125,-35.0,-1,1.0,0.3030999999999988
4,2,0.5,1.0,-35.0,-1,1.0,0.34830000000000005
5,2,0.5,0.25,35.0,1,1.0,0.6506000000000007
6,2,0.5,0.25,-35.0,-1,1.0,0.40309999999999846
7,2,0.5,0.0625,35.0,-1,0.0,0.5991999999999997
8,2,0.5,0.125,-35.0,-1,1.0,0.577300000000001
9,2,0.5,0.125,35.0,-1,0.0,0.8122000000000043
10,2,0.5,0.0625,35.0,-1,0.0,0.44839999999999947
11,2,0.5,0.125,-35.0,-1,1.0,0.42269999999999897
12,2,0.5,0.0625,-35.0,-1,1.0,0.3329999999999984
13,2,0.5,0.25,35.0,1,1.0,0.261099999999999
14,2,0.5,1.0,35.0,1,1.0,0.24520000000000408
15,2,0.5,0.25,35.0,1,1.0,0.2424000000000035
16,2,0.5,0.125,35.0,1,1.0,0.3783999999999992
17,2,0.5,0.125,-35.0,-1,1.0,6.737599000000003
18,2,0.5,0.0625,-35.0,1,0.0,0.5639000000000038
19,2,0.5,0.25,35.0,1,1.0,0.26129999999999143
20,2,0.5,0.125,-35.0,1,0.0,4.759900000000002
21,2,0.5,1.0,-35.0,-1,1.0,0.5491000000000099
22,2,0.5,1.0,35.0,-1,0.0,0.669399999999996
23,2,0.5,1.0,35.0,1,1.0,0.3572990000000118
24,2,0.5,0.125,-35.0,-1,1.0,0.2167999999999921
25,2,0.5,0.25,-35.0,-1,1.0,0.5786000000000087
26,2,0.5,1.0,35.0,1,1.0,0.3009000000000128
27,2,0.5,0.25,-35.0,1,0.0,0.3297990000000084
28,2,0.5,1.0,35.0,1,1.0,0.8541999999999916
29,2,0.5,0.0,35.0,-1,0.0,0.4075989999999905
30,2,0.5,0.0625,35.0,1,1.0,0.20820000000000505
31,2,0.5,0.0625,35.0,1,1.0,0.20600000000001728
32,2,0.5,0.0625,-35.0,-1,1.0,0.33250000000001023
33,2,0.5,0.0,-35.0,-1,1.0,0.5304999999999893
34,2,0.5,0.125,-35.0,-1,1.0,0.4814000000000078
35,2,0.5,0.25,-35.0,-1,1.0,0.3484009999999955
36,2,0.5,0.0,-35.0,-1,1.0,0.48920100000000843
37,2,0.5,0.0625,35.0,-1,0.0,0.5292010000000005
38,2,0.5,0.125,-35.0,1,0.0,0.4761009999999999
39,2,0.5,0.0625,35.0,1,1.0,0.4130010000000084
40,2,0.5,0.0625,-35.0,-1,1.0,0.8451000000000022
41,2,0.5,0.0625,35.0,1,1.0,0.5909010000000023
42,2,0.5,0.0625,35.0,1,1.0,0.9449009999999873
43,2,0.5,0.0,-35.0,-1,1.0,3.666101000000026
44,2,0.5,0.25,35.0,1,1.0,0.24890099999998938
45,2,0.5,0.0625,35.0,1,1.0,0.24220099999999434
46,2,0.5,0.125,-35.0,-1,1.0,0.5836009999999874
47,2,0.5,0.0,-35.0,1,0.0,1.3548999999999864
48,2,0.5,0.125,-35.0,-1,1.0,0.3155010000000118
49,2,0.5,0.0625,35.0,1,1.0,0.4109009999999955
50,2,0.5,0.25,-35.0,-1,1.0,2.5044010000000014
51,2,0.5,0.0,-35.0,-1,1.0,3.9760009999999966
52,2,0.5,1.0,-35.0,-1,1.0,0.2792010000000005
53,2,0.5,0.0625,35.0,-1,0.0,0.24830099999999788
54,2,0.5,0.125,35.0,1,1.0,0.6945010000000025
55,2,0.5,0.0625,35.0,1,1.0,0.36960100000001717
56,2,0.5,1.0,-35.0,-1,1.0,0.5984009999999955
57,2,0.5,1.0,35.0,1,1.0,0.6081000000000074
58,2,0.5,1.0,35.0,1,1.0,0.38940100000002076
59,2,0.5,0.0625,-35.0,-1,1.0,3.331101000000018
60,2,0.5,0.125,-35.0,-1,1.0,0.5293010000000038
61,2,0.5,0.0,-35.0,-1,1.0,0.7995010000000207
62,2,0.5,0.25,-35.0,-1,1.0,0.3746009999999842
63,2,0.5,0.0,35.0,-1,0.0,0.38060100000001285
64,2,0.5,0.125,35.0,-1,0.0,0.6692009999999868
65,2,0.5,0.25,35.0,1,1.0,0.432200000000023
66,2,0.5,0.0625,35.0,1,1.0,0.6087009999999964
67,2,0.5,0.0,-35.0,1,0.0,6.229300000000023
68,2,0.5,1.0,35.0,1,1.0,0.2647010000000023
69,2,0.5,0.0625,-35.0,-1,1.0,0.6915010000000734
70,2,0.5,0.25,35.0,1,1.0,0.21890100000001667
71,2,0.5,0.125,35.0,1,1.0,0.2552009999999427
72,2,0.5,0.0,35.0,-1,0.0,5.655101000000059
73,2,0.5,0.25,-35.0,-1,1.0,0.791701000000046
74,2,0.5,0.25,-35.0,-1,1.0,0.2880010000000084
75,2,0.5,0.25,-35.0,-1,1.0,0.5928999999999292
76,2,0.5,0.0625,35.0,-1,0.0,0.5379010000000335
77,2,0.5,0.125,35.0,1,1.0,0.4396009999999819
78,2,0.5,0.125,35.0,1,1.0,0.252700999999945
79,2,0.5,1.0,-35.0,-1,1.0,0.4468010000000504
80,2,0.5,1.0,35.0,1,1.0,0.21060100000005377
81,2,0.5,0.0,-35.0,1,0.0,0.5272009999999341
82,2,0.5,0.125,-35.0,-1,1.0,0.8037009999999327
83,2,0.5,0.0,-35.0,-1,1.0,0.6692010000000437
84,2,0.5,0.125,-35.0,1,0.0,0.29600099999998974
85,2,0.5,0.25,35.0,1,1.0,0.450601000000006
86,2,0.5,0.25,35.0,1,1.0,0.2253010000000586
87,2,0.5,0.125,35.0,1,1.0,0.30260099999998147
88,2,0.5,0.25,-35.0,-1,1.0,0.528801000000044
89,2,0.5,0.0,35.0,-1,0.0,0.5276010000000042
90,2,0.5,1.0,35.0,1,1.0,0.6622010000000387
91,2,0.8,0.25,35.0,1,1.0,0.3442009999999982
92,2,0.8,1.0,-35.0,-1,1.0,0.5190010000000598
93,2,0.8,0.125,-35.0,1,0.0,0.400400999999988
94,2,0.8,0.25,-35.0,1,0.0,0.27250099999992017
95,2,0.8,0.125,-35.0,-1,1.0,0.19430100000005268
96,2,0.8,0.0,-35.0,1,0.0,3.731700999999987
97,2,0.8,0.25,-35.0,-1,1.0,0.32630100000000084
98,2,0.8,0.0625,-35.0,-1,1.0,0.25950099999994336
99,2,0.8,0.0625,-35.0,-1,1.0,0.27160099999997556
100,2,0.8,1.0,-35.0,-1,1.0,0.18980099999998856
101,2,0.8,0.25,35.0,1,1.0,0.6400010000000407
102,2,0.8,0.0625,-35.0,-1,1.0,0.28460099999995236
103,2,0.8,1.0,-35.0,-1,1.0,0.436100999999951
104,2,0.8,0.125,-35.0,-1,1.0,0.43620099999998274
105,2,0.8,0.0625,-35.0,-1,1.0,0.4427010000000564
106,2,0.8,1.0,35.0,1,1.0,0.5093009999999936
107,2,0.8,0.125,-35.0,-1,1.0,0.5282010000000241
108,2,0.8,1.0,35.0,1,1.0,0.8344010000000139
109,2,0.8,0.25,-35.0,-1,1.0,0.46460000000001855
110,2,0.8,1.0,35.0,1,1.0,1.1368009999999913
111,2,0.8,0.125,35.0,1,1.0,0.4182010000000105
112,2,0.8,0.25,-35.0,1,0.0,0.4668009999999754
113,2,0.8,0.125,-35.0,1,0.0,0.3244010000000799
114,2,0.8,0.125,-35.0,-1,1.0,0.8706010000000219
115,2,0.8,0.25,-35.0,-1,1.0,0.28420099999999593
116,2,0.8,1.0,-35.0,-1,1.0,0.28350099999994427
117,2,0.8,0.0625,35.0,-1,0.0,0.30279999999999063
118,2,0.8,0.0625,35.0,1,1.0,0.31119999999998527
119,2,0.8,0.25,-35.0,-1,1.0,0.2962010000000532
120,2,0.8,0.0,-35.0,-1,1.0,0.5533000000000357
121,2,0.8,0.0625,-35.0,-1,1.0,5.160300999999947
122,2,0.8,0.0,-35.0,1,0.0,0.2477010000000064
123,2,0.8,0.0,35.0,1,1.0,0.3997009999999932
124,2,0.2,0.125,35.0,-1,0.0,2.418900000000008
125,2,0.2,1.0,35.0,1,1.0,0.5631010000000174
126,2,0.2,0.0625,35.0,1,1.0,0.45410100000003695
127,2,0.2,0.125,35.0,1,1.0,0.8220010000000002
128,2,0.2,1.0,35.0,1,1.0,0.49050099999988106
129,2,0.2,0.125,35.0,1,1.0,0.24700099999995473
130,2,0.2,0.0625,35.0,1,1.0,5.790700999999899
131,2,0.2,0.0625,35.0,1,1.0,0.24130000000002383
132,2,0.2,1.0,35.0,1,1.0,0.4412009999998645
133,2,0.2,0.25,35.0,1,1.0,0.4509010000000444
134,2,0.2,0.125,35.0,1,1.0,0.5361009999999169
135,2,0.2,0.0625,-35.0,-1,1.0,0.42030099999999493
136,2,0.2,0.0,-35.0,-1,1.0,0.7001009999999042
137,2,0.2,0.0625,35.0,-1,0.0,0.2917009999999891
138,2,0.2,0.125,35.0,1,1.0,0.521300999999994
139,2,0.2,0.125,35.0,1,1.0,0.3204010000000608
140,2,0.2,0.0625,35.0,1,1.0,0.37960099999986596
141,2,0.2,0.0,35.0,1,1.0,0.4839009999999462
142,2,0.2,0.25,-35.0,-1,1.0,0.5682009999999309
143,2,0.2,0.0625,35.0,-1,0.0,0.6222009999999045
144,2,0.2,0.125,-35.0,1,0.0,0.22480100000007042
145,2,0.2,0.125,-35.0,1,0.0,0.24790099999995618
146,2,0.2,0.0,35.0,1,1.0,0.2551009999999678
147,2,0.2,0.0625,35.0,-1,0.0,0.10520099999996546
148,2,0.2,0.0625,35.0,1,1.0,0.3381009999999378
149,2,0.2,0.125,35.0,1,1.0,0.6163010000000213
150,2,0.2,0.0625,35.0,1,1.0,0.34720100000004095
151,2,0.2,0.25,35.0,1,1.0,0.251500999999962
152,2,0.8,0.25,-35.0,-1,1.0,0.3949999999999818
153,2,0.8,0.0,-35.0,-1,1.0,0.5174009999999498
154,2,0.8,0.0625,-35.0,-1,1.0,0.2865009999999302
155,2,0.8,0.0,-35.0,-1,1.0,0.4811009999999669
156,2,0.8,1.0,35.0,1,1.0,0.2673009999999749
157,2,0.8,0.0,-35.0,-1,1.0,0.667201000000091
158,2,0.8,1.0,-35.0,-1,1.0,0.36570099999994454
159,2,0.8,0.0625,-35.0,1,0.0,0.2495009999998956
160,2,0.8,0.0625,-35.0,1,0.0,5.567000999999891
161,2,0.8,0.0625,-35.0,-1,1.0,0.4107010000000173
162,2,0.8,0.125,35.0,-1,0.0,0.45260099999995873
163,2,0.8,0.125,-35.0,-1,1.0,0.25840099999993527
164,2,0.8,0.125,-35.0,-1,1.0,0.3847010000000637
165,2,0.8,0.125,-35.0,1,0.0,0.009799999999927422
166,2,0.8,0.25,-35.0,1,0.0,0.36720100000002276
167,2,0.8,0.25,-35.0,-1,1.0,1.1471010000000206
168,2,0.8,0.0625,-35.0,-1,1.0,0.6502009999999245
169,2,0.8,0.0625,-35.0,-1,1.0,0.3096009999999296
170,2,0.8,0.0625,-35.0,-1,1.0,0.3967010000000073
171,2,0.8,0.0625,35.0,-1,0.0,0.4715009999998756
172,2,0.8,0.125,-35.0,-1,1.0,0.4819999999998572
173,2,0.2,0.0625,-35.0,-1,1.0,3.6047009999999773
174,2,0.2,0.0625,-35.0,-1,1.0,9.770601000000056
175,2,0.2,0.0,35.0,1,1.0,0.2541009999999915
176,2,0.2,0.0,35.0,1,1.0,0.1817999999999529
177,2,0.2,0.0,-35.0,-1,1.0,8.483200999999895
178,2,0.2,0.0625,-35.0,1,0.0,0.24590100000000348
179,2,0.2,0.25,35.0,1,1.0,0.29480100000000675
180,2,0.2,0.0625,-35.0,-1,1.0,0.5825999999999567
181,2,0.2,0.0,35.0,-1,0.0,0.19850099999996473
182,2,0.2,0.0625,-35.0,-1,1.0,0.6014999999999873
183,2,0.2,0.0,35.0,-1,0.0,0.43320099999994
184,2,0.2,0.0625,35.0,1,1.0,0.34350100000006023
185,2,0.2,0.25,35.0,1,1.0,0.2513009999998985
186,2,0.2,0.125,35.0,1,1.0,0.3079010000000153
187,2,0.2,0.125,35.0,1,1.0,0.42590000000006967
188,2,0.2,0.125,35.0,1,1.0,0.3203009999999722
189,2,0.2,0.0625,35.0,1,1.0,0.2535010000000284
190,2,0.2,0.0,-35.0,1,0.0,0.643600999999876
191,2,0.2,0.125,35.0,1,1.0,0.6882009999999354
192,2,0.2,1.0,35.0,1,1.0,0.5873009999999113
193,2,0.2,1.0,35.0,1,1.0,0.22500099999990653
194,2,0.2,1.0,35.0,1,1.0,0.4108009999999922
195,2,0.2,0.0625,35.0,1,1.0,0.3169999999998936
196,2,0.2,0.25,35.0,1,1.0,0.18000099999994745
197,2,0.2,1.0,35.0,1,1.0,0.3541009999999005
198,2,0.2,0.0625,35.0,1,1.0,0.3029000000000224
199,2,0.2,0.0,35.0,1,1.0,0.29589999999996053
200,2,0.2,0.125,35.0,1,1.0,0.3705009999999902
201,2,0.2,0.125,35.0,1,1.0,0.41160100000001876
202,2,0.2,0.0625,35.0,1,1.0,0.8237009999999145
203,2,0.2,0.25,35.0,1,1.0,0.6850999999999203
204,2,0.2,0.125,-35.0,1,0.0,0.2191010000000233
205,2,0.2,0.25,35.0,1,1.0,0.5244000000000142
206,2,0.2,0.0625,35.0,-1,0.0,11.398200999999972
207,2,0.2,0.0625,35.0,1,1.0,1.1212000000000444
208,2,0.2,0.0,-35.0,1,0.0,0.6338009999999485
209,2,0.2,0.25,-35.0,-1,1.0,0.7667010000000118
210,2,0.2,1.0,-35.0,-1,1.0,0.4358009999998558
211,2,0.2,1.0,35.0,1,1.0,0.3306009999998878
212,2,0.2,0.0625,35.0,-1,0.0,0.8459009999999125
213,2,0.2,0.25,35.0,1,1.0,0.3097010000000182
214,2,0.2,0.0625,35.0,1,1.0,0.5493009999999003
215,2,0.2,0.125,35.0,1,1.0,0.5104010000000017
216,2,0.2,0.25,35.0,1,1.0,0.23720099999991362
217,2,0.2,0.125,35.0,1,1.0,0.8744010000000344
218,2,0.2,0.0625,-35.0,1,0.0,0.3036009999999578
219,2,0.2,0.25,35.0,1,1.0,0.35920100000009825
220,2,0.2,0.0,35.0,1,1.0,0.3264010000000326
221,2,0.2,0.25,35.0,1,1.0,0.24110099999995782
222,2,0.2,0.25,35.0,1,1.0,0.329701
223,2,0.2,0.0625,35.0,-1,0.0,5.932700999999952
224,2,0.2,0.25,-35.0,-1,1.0,0.6578009999999495
225,2,0.2,0.125,-35.0,1,0.0,0.7744010000000117
226,2,0.2,0.0,35.0,1,1.0,0.3722010000000182
227,2,0.2,1.0,35.0,1,1.0,0.28870100000006005
228,2,0.2,1.0,35.0,1,1.0,0.3558010000000422
229,2,0.2,0.0625,35.0,1,1.0,0.6277010000000018
230,2,0.2,1.0,-35.0,-1,1.0,1.1820010000000138
231,2,0.2,0.25,35.0,1,1.0,0.7953010000001086
232,2,0.2,0.125,35.0,1,1.0,0.4141010000000733
233,2,0.2,0.0625,35.0,1,1.0,0.654500999999982
234,2,0.2,1.0,35.0,1,1.0,0.7110010000000102
235,2,0.2,0.25,35.0,1,1.0,0.28900099999998474
236,2,0.2,0.25,35.0,1,1.0,0.8112009999999827
237,2,0.2,0.0,-35.0,-1,1.0,8.978200999999899
238,2,0.2,0.0625,-35.0,-1,1.0,0.7620009999999411
239,2,0.2,0.0625,-35.0,-1,1.0,0.5764009999999189
240,2,0.2,0.0625,-35.0,-1,1.0,0.3479009999999789
241,2,0.2,0.0,-35.0,-1,1.0,0.4470009999998865
242,2,0.2,0.125,35.0,1,1.0,0.7089009999999689
243,2,0.2,0.125,35.0,1,1.0,0.5865009999999984
244,2,0.2,0.0625,35.0,-1,0.0,7.469500999999923
245,2,0.2,0.0,35.0,-1,0.0,0.4129009999999198
246,2,0.2,0.25,35.0,1,1.0,0.3117009999999709
247,2,0.2,1.0,35.0,1,1.0,0.5573009999999385
248,2,0.2,0.25,35.0,1,1.0,0.38620099999991453
249,2,0.2,1.0,35.0,1,1.0,0.3186009999999442
250,2,0.2,0.0625,35.0,1,1.0,0.22450000000003456
251,2,0.2,0.125,35.0,1,1.0,0.3337010000000191
252,2,0.2,0.0,35.0,-1,0.0,2.7624009999999544
253,2,0.2,0.0625,35.0,1,1.0,1.467000999999982
254,2,0.2,1.0,-35.0,-1,1.0,0.32920100000001185
255,2,0.2,0.125,35.0,1,1.0,0.7269999999998618
256,2,0.2,0.125,35.0,1,1.0,10.159601000000066
257,2,0.2,1.0,35.0,1,1.0,0.6715009999998074
258,2,0.2,0.25,35.0,1,1.0,0.4610010000001239
259,2,0.2,0.0,35.0,1,1.0,0.28280000000017935
260,2,0.2,0.125,35.0,1,1.0,0.12170100000003004
261,2,0.2,0.0,35.0,1,1.0,0.4748010000000704
262,2,0.2,0.0625,35.0,1,1.0,0.26660100000003695
263,2,0.2,0.125,35.0,-1,0.0,0.4655009999999038
264,2,0.2,0.25,35.0,1,1.0,0.8476009999999405
265,2,0.2,0.0,35.0,1,1.0,0.46030099999984486
266,2,0.2,0.0625,35.0,-1,0.0,0.35550100000000384
267,2,0.8,0.0,-35.0,1,0.0,4.254300999999941
268,2,0.8,0.25,35.0,1,1.0,0.40210099999990234
269,2,0.8,0.25,-35.0,-1,1.0,0.4848010000000613
270,2,0.8,0.0625,-35.0,-1,1.0,0.45759999999972933
271,2,0.8,0.125,-35.0,-1,1.0,0.27270100000009734
272,2,0.8,0.125,-35.0,-1,1.0,0.46220100000005004
273,2,0.8,0.25,-35.0,-1,1.0,0.4875010000000657
274,2,0.8,0.25,35.0,-1,0.0,0.40320100000008097
275,2,0.8,1.0,-35.0,-1,1.0,2.378801000000067
276,2,0.8,1.0,35.0,1,1.0,0.557501000000002
277,2,0.8,1.0,-35.0,-1,1.0,0.27020100000004277
278,2,0.8,0.0625,-35.0,-1,1.0,0.308500999999751
279,2,0.8,0.0625,-35.0,-1,1.0,0.9081009999999878
280,2,0.8,0.0625,-35.0,-1,1.0,0.3670009999998456
281,2,0.8,0.125,-35.0,-1,1.0,0.4135999999998603
282,2,0.8,0.0,-35.0,-1,1.0,0.8083010000000286
283,2,0.8,0.0625,-35.0,-1,1.0,0.3303009999999631
284,2,0.8,0.25,-35.0,-1,1.0,0.4128010000001723
285,2,0.8,1.0,35.0,-1,0.0,0.39580099999989216
286,2,0.8,0.0,-35.0,-1,1.0,5.617500000000064
287,2,0.8,0.125,-35.0,-1,1.0,0.4779999999998381
288,2,0.8,0.0,-35.0,-1,1.0,0.5734010000001035
289,2,0.8,0.25,-35.0,-1,1.0,0.19290099999989252
290,2,0.8,0.25,-35.0,-1,1.0,0.6380010000000311
291,2,0.8,0.0625,-35.0,-1,1.0,0.5969009999998889
292,2,0.8,0.25,-35.0,-1,1.0,0.2695009999999911
293,2,0.8,0.0,-35.0,-1,1.0,0.7983010000000377
294,2,0.8,0.0625,-35.0,-1,1.0,0.6273009999999886
295,2,0.8,0.0625,-35.0,-1,1.0,0.36310100000014245
296,2,0.8,0.125,-35.0,-1,1.0,0.31490099999996346
297,2,0.8,0.25,-35.0,-1,1.0,0.3938999999998032
298,2,0.8,0.0625,35.0,-1,0.0,0.7396000000001095
299,2,0.8,1.0,-35.0,-1,1.0,0.5152009999999336
300,2,0.8,0.25,-35.0,-1,1.0,0.47370100000011917
301,2,0.8,0.0,35.0,-1,0.0,0.6098010000000613
302,2,0.8,0.125,-35.0,1,0.0,0.4516009999999824
303,2,0.8,0.0,-35.0,1,0.0,0.26700099999993654
304,2,0.8,0.125,35.0,-1,0.0,2.5456010000000333
305,2,0.8,0.25,-35.0,-1,1.0,1.9607009999997445
306,2,0.8,0.0625,-35.0,-1,1.0,6.7452009999997244
307,2,0.8,0.0625,-35.0,-1,1.0,0.5286009999999806
308,2,0.8,1.0,-35.0,-1,1.0,0.6157009999999445
309,2,0.8,0.0625,-35.0,1,0.0,0.3084009999997761
310,2,0.8,0.125,35.0,1,1.0,5.126500999999962
311,2,0.8,0.125,-35.0,-1,1.0,7.710599999999886
312,2,0.8,0.0625,-35.0,-1,1.0,4.001101000000062
313,2,0.8,0.25,-35.0,-1,1.0,29.645200999999815
314,2,0.8,0.0,-35.0,-1,1.0,7.731801000000132
315,2,0.8,0.25,35.0,-1,0.0,0.6324010000000726
316,2,0.8,0.0625,-35.0,-1,1.0,0.9736010000001443
317,2,0.8,0.0625,35.0,1,1.0,0.7228009999998903
318,2,0.8,0.125,-35.0,-1,1.0,3.139400999999907
319,2,0.8,0.0625,-35.0,1,0.0,0.6605010000000675
320,2,0.8,0.125,-35.0,1,0.0,4.006000999999742
321,2,0.8,0.0,35.0,-1,0.0,0.46380100000010316
322,2,0.8,0.0,-35.0,1,0.0,0.405500999999731
323,2,0.8,0.0625,-35.0,-1,1.0,13.42070099999978
324,2,0.8,0.25,-35.0,-1,1.0,0.6828009999999267
325,2,0.8,0.0625,-35.0,-1,1.0,6.421501000000035
326,2,0.8,1.0,-35.0,-1,1.0,0.5416009999999005
327,2,0.8,0.0,35.0,-1,0.0,0.4305010000000493
328,2,0.8,0.25,-35.0,-1,1.0,0.3425009999998565
329,2,0.8,0.0,-35.0,-1,1.0,0.302400999999918
330,2,0.8,1.0,-35.0,-1,1.0,14.134401000000025
331,2,0.8,0.0625,-35.0,-1,1.0,0.5630009999999857
332,2,0.8,0.125,35.0,1,1.0,0.30140000000005784
333,2,0.8,0.0,-35.0,-1,1.0,0.5429009999998016
334,2,0.8,0.125,35.0,-1,0.0,0.6085009999999329
335,2,0.8,1.0,-35.0,-1,1.0,0.7779009999999289
336,2,0.8,1.0,-35.0,-1,1.0,0.7570999999998094
337,2,0.8,0.25,35.0,1,1.0,0.665800999999874
338,2,0.8,1.0,35.0,1,1.0,0.33150099999988925
339,2,0.8,0.0,-35.0,1,0.0,0.443400999999767
340,2,0.2,0.25,35.0,1,1.0,0.21150099999999838
341,2,0.2,0.0,35.0,1,1.0,0.10710100000005696
342,2,0.2,1.0,35.0,1,1.0,0.4131009999998696
343,2,0.2,0.0625,35.0,1,1.0,0.2555010000000948
344,2,0.2,0.125,35.0,1,1.0,0.40430099999980484
345,2,0.2,1.0,35.0,1,1.0,0.376500999999962
346,2,0.2,0.25,35.0,1,1.0,0.0358009999999922
347,2,0.2,0.25,35.0,1,1.0,0.5638009999997848
348,2,0.2,0.125,35.0,1,1.0,0.3162009999998645
349,2,0.2,0.125,35.0,1,1.0,0.2151010000000042
350,2,0.2,0.0625,35.0,1,1.0,6.707700000000159
351,2,0.2,0.125,-35.0,-1,1.0,0.631601000000046
352,2,0.2,0.0625,35.0,1,1.0,1.557600999999977
353,2,0.2,0.25,35.0,-1,0.0,0.6292009999999664
354,2,0.2,0.25,35.0,1,1.0,0.22189999999977772
355,2,0.2,0.0625,-35.0,1,0.0,0.4147009999999227
356,2,0.2,0.0625,35.0,1,1.0,0.38640099999975064
357,2,0.2,0.0,35.0,1,1.0,3.287800999999945
358,2,0.2,0.125,-35.0,1,0.0,0.40610100000003513
359,2,0.2,0.0625,35.0,1,1.0,0.7426009999999224
360,2,0.2,1.0,35.0,1,1.0,0.6037009999997736
361,2,0.2,0.0625,35.0,-1,0.0,3.8298009999998612
362,2,0.2,0.25,-35.0,1,0.0,0.5205999999998312
363,2,0.2,0.0,35.0,-1,0.0,0.3726010000000315
364,2,0.2,0.0625,35.0,1,1.0,0.5883010000000013
365,2,0.2,0.0625,-35.0,1,0.0,0.6112009999999373
366,2,0.2,1.0,35.0,1,1.0,0.44540100000017446
367,2,0.2,0.0,-35.0,1,0.0,5.242901000000074
368,2,0.2,0.125,35.0,1,1.0,0.5837010000000191
369,2,0.2,1.0,35.0,1,1.0,0.7297009999999773
370,2,0.2,0.25,35.0,1,1.0,0.2580009999996946
371,2,0.2,0.0625,35.0,1,1.0,0.3644010000000435
372,2,0.2,1.0,35.0,1,1.0,1.5901010000000042
373,2,0.2,1.0,35.0,1,1.0,0.8455999999998767
374,2,0.2,0.25,-35.0,-1,1.0,0.5078009999999722
375,2,0.2,1.0,35.0,1,1.0,0.7094010000000708
376,2,0.2,0.125,35.0,1,1.0,2.1920000000000073
377,2,0.2,0.0,-35.0,-1,1.0,2.7768009999999776
378,2,0.2,1.0,35.0,1,1.0,0.9618009999999231
379,2,0.2,0.25,35.0,-1,0.0,3.4143000000001393
380,2,0.2,1.0,35.0,1,1.0,0.6687010000000555
381,2,0.2,0.25,35.0,1,1.0,7.207500999999866
382,2,0.2,0.125,-35.0,-1,1.0,10.631600999999819
383,2,0.2,0.0625,35.0,-1,0.0,0.944101000000046
384,2,0.2,1.0,35.0,-1,0.0,0.5928010000000086
385,2,0.2,1.0,35.0,1,1.0,0.4448010000000977
386,2,0.2,0.0625,-35.0,-1,1.0,19.54770099999996
387,2,0.2,0.125,35.0,-1,0.0,5.213301000000001
388,2,0.2,1.0,35.0,-1,0.0,0.5273009999998521
389,2,0.2,1.0,35.0,1,1.0,0.5701010000000224
390,2,0.2,0.25,35.0,-1,0.0,7.405900999999858
391,2,0.2,0.25,35.0,-1,0.0,0.3322010000001683
392,2,0.2,1.0,35.0,1,1.0,0.4275009999998929
393,2,0.2,0.25,-35.0,-1,1.0,0.38770099999987906
394,2,0.2,0.0625,35.0,-1,0.0,0.4855009999998856
395,2,0.2,0.0625,35.0,-1,0.0,0.45460099999991144
396,2,0.2,0.0,35.0,1,1.0,0.33320099999991726
397,2,0.2,0.25,-35.0,-1,1.0,0.36600099999986924
398,2,0.2,0.0,35.0,-1,0.0,0.3885009999999056
399,2,0.2,0.25,-35.0,-1,1.0,0.3868009999998776
400,2,0.2,0.25,35.0,1,1.0,0.3828009999999722
401,2,0.2,0.125,35.0,1,1.0,1.035600999999815
402,2,0.2,0.25,-35.0,-1,1.0,0.26690099999996164
403,2,0.2,0.125,35.0,1,1.0,0.4026010000000042
404,2,0.2,1.0,35.0,1,1.0,0.2584009999998216
405,2,0.2,0.0625,-35.0,-1,1.0,0.43430100000000493
406,2,0.2,1.0,35.0,1,1.0,0.30940099999997983
407,2,0.2,0.0625,35.0,1,1.0,0.3182010000000446
408,2,0.2,0.25,35.0,1,1.0,1.3210010000002512
409,2,0.2,0.25,35.0,-1,0.0,1.1193009999999504
410,2,0.2,0.0625,-35.0,-1,1.0,5.978100999999924
411,2,0.2,0.125,35.0,1,1.0,0.29900099999986196
412,2,0.2,0.0,35.0,-1,0.0,0.5215010000001712
413,2,0.2,0.25,35.0,1,1.0,0.25650100000007114
414,2,0.2,0.0,35.0,1,1.0,4.885301000000027
415,2,0.2,0.0625,35.0,1,1.0,0.40770100000008824
416,2,0.8,0.125,-35.0,-1,1.0,1.0798010000000886
417,2,0.8,0.0,35.0,-1,0.0,0.43410099999982776
418,2,0.8,0.25,35.0,1,1.0,0.33960099999990234
419,2,0.8,0.0625,35.0,1,1.0,0.22890099999995073
420,2,0.8,1.0,35.0,1,1.0,0.23070099999995364
421,2,0.8,0.125,-35.0,1,0.0,0.2231010000000424
422,2,0.8,0.125,-35.0,-1,1.0,0.5684009999999944
423,2,0.8,0.0,35.0,-1,0.0,0.5675009999997656
424,2,0.8,1.0,-35.0,-1,1.0,0.3722009999999045
425,2,0.8,1.0,-35.0,-1,1.0,0.2844009999998889
426,2,0.8,1.0,-35.0,-1,1.0,0.65620100000001
427,2,0.8,0.25,-35.0,-1,1.0,0.5179010000001654
428,2,0.8,0.25,-35.0,-1,1.0,0.3506009999998696
429,2,0.8,0.125,-35.0,-1,1.0,4.122401000000082
430,2,0.8,0.0625,-35.0,1,0.0,1.5933999999999742
431,2,0.8,1.0,-35.0,-1,1.0,0.42130100000008497
432,2,0.8,0.0625,-35.0,-1,1.0,0.676200000000108
433,2,0.8,0.0,-35.0,1,0.0,0.44840099999987615
434,2,0.8,0.125,-35.0,-1,1.0,0.7069010000000162
435,2,0.8,0.0625,-35.0,-1,1.0,5.622301000000107
436,2,0.8,1.0,-35.0,-1,1.0,7.813101000000188
437,2,0.8,0.0625,-35.0,-1,1.0,4.479800999999952
438,2,0.8,0.25,-35.0,-1,1.0,4.8876010000001315
439,2,0.8,1.0,35.0,1,1.0,0.4386010000000624
440,2,0.8,0.25,-35.0,-1,1.0,0.8507010000000719
441,2,0.8,0.0,-35.0,-1,1.0,4.819601000000148
442,2,0.8,0.0625,-35.0,-1,1.0,3.440300999999863
443,2,0.8,1.0,35.0,1,1.0,1.5351009999999405
444,2,0.8,0.125,-35.0,-1,1.0,0.9901999999999589
445,2,0.8,0.25,-35.0,-1,1.0,0.6454009999999926
446,2,0.8,0.25,-35.0,-1,1.0,10.151700999999775
447,2,0.8,1.0,-35.0,-1,1.0,4.0635010000000875
448,2,0.8,0.25,35.0,1,1.0,19.021300999999767
449,2,0.8,0.0625,-35.0,-1,1.0,0.855000999999902
450,2,0.8,0.25,-35.0,1,0.0,2.7398010000001705
451,2,0.8,0.25,-35.0,-1,1.0,0.5311010000000351
452,2,0.8,0.0,-35.0,-1,1.0,0.5765010000000075
453,2,0.8,0.25,-35.0,-1,1.0,0.4822009999998045
454,2,0.8,1.0,35.0,1,1.0,0.3916009999998096
455,2,0.8,0.0625,-35.0,-1,1.0,6.823501000000306
456,2,0.8,0.25,35.0,1,1.0,0.437300999999934
457,2,0.8,0.25,35.0,-1,0.0,0.4591009999999187
458,2,0.8,1.0,-35.0,-1,1.0,0.6947000000000116
459,2,0.8,0.0,-35.0,1,0.0,0.6773010000001705
460,2,0.8,0.125,-35.0,-1,1.0,0.47910100000035527
461,2,0.8,0.25,-35.0,-1,1.0,4.662200000000212
462,2,0.8,0.25,-35.0,-1,1.0,1.0864010000000235
463,2,0.8,0.125,35.0,-1,0.0,3.238100999999915
464,2,0.8,0.25,-35.0,1,0.0,0.42280099999970844
465,2,0.8,1.0,-35.0,-1,1.0,5.498400999999831
466,2,0.8,1.0,35.0,1,1.0,0.4192009999997026
467,2,0.8,0.125,-35.0,1,0.0,0.5916010000000824
468,2,0.8,0.125,-35.0,1,0.0,0.8405010000001312
469,2,0.8,0.25,35.0,1,1.0,0.40820099999973536
470,2,0.8,0.0625,-35.0,-1,1.0,8.544001000000208
471,2,0.8,0.25,35.0,1,1.0,0.3141009999999369
472,2,0.8,0.25,-35.0,-1,1.0,4.018801000000167
473,2,0.8,0.0,-35.0,-1,1.0,0.6902010000003429
474,2,0.8,0.125,35.0,1,1.0,0.333100999999715
475,2,0.8,1.0,35.0,1,1.0,0.44140099999958693
476,2,0.8,0.25,-35.0,1,0.0,0.5443009999999049
477,2,0.8,0.0625,35.0,1,1.0,0.3000010000000657
478,2,0.8,0.25,35.0,1,1.0,0.43220100000007733
479,2,0.2,0.25,35.0,1,1.0,0.24130100000047605
480,2,0.2,0.25,-35.0,-1,1.0,7.430001000000175
481,2,0.2,0.0625,35.0,-1,0.0,0.9467009999998481
482,2,0.2,0.0625,35.0,1,1.0,0.2785009999997783
483,2,0.2,0.125,-35.0,-1,1.0,3.5749009999999544
484,2,0.2,0.25,35.0,1,1.0,0.2330010000000584
485,2,0.2,0.125,35.0,1,1.0,0.2984010000000126
486,2,0.2,0.0625,35.0,1,1.0,0.2338009999998576
487,2,0.2,0.125,-35.0,1,0.0,0.4763009999996939
488,2,0.2,0.25,35.0,1,1.0,0.27510099999972226
489,2,0.2,1.0,35.0,1,1.0,0.3582010000000082
490,2,0.2,0.0625,35.0,1,1.0,0.2927010000003065
491,2,0.2,0.25,35.0,1,1.0,0.1786010000000715
492,2,0.2,0.125,-35.0,1,0.0,0.26120099999980084
493,2,0.2,0.125,-35.0,-1,1.0,0.9140010000000984
494,2,0.2,0.25,35.0,1,1.0,0.25590099999953964
495,2,0.2,0.0625,-35.0,-1,1.0,0.3850009999996473
496,2,0.2,0.125,35.0,1,1.0,0.46780100000023594
497,2,0.2,0.0625,35.0,-1,0.0,0.24580100000002858
498,2,0.2,1.0,35.0,1,1.0,0.31140099999993254
499,2,0.2,0.25,-35.0,-1,1.0,0.6205009999998765
500,2,0.2,0.125,35.0,1,1.0,0.3334010000003218
501,2,0.2,0.25,35.0,1,1.0,0.5052009999999427
502,2,0.2,0.125,35.0,1,1.0,0.4483009999994465
503,2,0.2,0.25,35.0,1,1.0,0.503001000000495
504,2,0.2,1.0,35.0,1,1.0,0.47260099999994054
505,2,0.2,0.25,35.0,1,1.0,0.3810009999997419
506,2,0.2,0.125,-35.0,-1,1.0,0.8270009999996546
507,2,0.2,1.0,35.0,1,1.0,0.42200099999990925
508,2,0.2,0.125,-35.0,-1,1.0,0.49460099999987506
509,2,0.2,1.0,-35.0,-1,1.0,0.8808010000002469
510,2,0.2,0.25,35.0,1,1.0,9.170000000000073
511,2,0.2,0.0,35.0,1,1.0,0.8358009999997194
512,2,0.2,1.0,35.0,1,1.0,0.24480099999982485
513,2,0.2,0.125,-35.0,1,0.0,9.030101000000286
514,2,0.2,0.25,35.0,1,1.0,9.482801000000109
515,2,0.2,0.25,35.0,1,1.0,0.6423009999998612
516,2,0.2,0.125,35.0,1,1.0,0.2288010000002032
517,2,0.2,1.0,35.0,1,1.0,0.2944009999996524
518,2,0.2,0.25,-35.0,-1,1.0,2.7399999999997817
519,2,0.2,0.125,35.0,-1,0.0,0.6116009999996095
520,2,0.2,0.125,35.0,-1,0.0,10.12630100000024
521,2,0.8,1.0,-35.0,-1,1.0,3.6388010000000577
522,2,0.8,0.25,-35.0,-1,1.0,6.723300999999992
523,2,0.8,1.0,-35.0,-1,1.0,0.45699999999987995
524,2,0.8,0.0625,-35.0,-1,1.0,2.1361010000000533
525,2,0.8,0.125,-35.0,-1,1.0,4.137901000000056
526,2,0.8,0.0,-35.0,-1,1.0,2.275901000000431
527,2,0.8,0.25,-35.0,-1,1.0,4.357700999999906
528,2,0.8,0.25,-35.0,-1,1.0,2.386301000000003
529,2,0.8,0.0,-35.0,-1,1.0,5.927400999999918
530,2,0.8,0.25,35.0,1,1.0,10.80860100000018
531,2,0.8,0.125,-35.0,-1,1.0,7.430201000000125
532,2,0.8,0.125,35.0,1,1.0,0.28030100000023594
533,2,0.8,0.0625,-35.0,1,0.0,0.9960009999999784
534,2,0.8,0.125,35.0,1,1.0,4.615200999999615
535,2,0.8,0.0625,-35.0,-1,1.0,2.719301000000087
536,2,0.8,0.25,-35.0,-1,1.0,2.8445010000000366
537,2,0.8,0.125,-35.0,1,0.0,1.4328010000003815
538,2,0.8,0.125,-35.0,-1,1.0,0.08110099999976228
539,2,0.8,1.0,-35.0,-1,1.0,6.963300999999774
540,2,0.8,1.0,-35.0,-1,1.0,0.5036010000003444
541,2,0.8,0.125,35.0,-1,0.0,3.8059009999997215
542,2,0.8,0.25,-35.0,-1,1.0,8.210100999999668
543,2,0.8,0.0625,-35.0,-1,1.0,0.36680100000012317
544,2,0.8,0.25,-35.0,-1,1.0,5.912600999999995
545,2,0.8,1.0,-35.0,-1,1.0,0.4532009999998081
1,3,0.5,0.25,-35.0,1,0.0,1.7136
2,3,0.5,0.125,-35.0,1,0.0,0.22510099999999955
3,3,0.5,0.0,-35.0,1,0.0,5.902901000000002
4,3,0.5,1.0,-35.0,-1,1.0,0.2938009999999984
5,3,0.5,1.0,35.0,1,1.0,0.2542010000000019
6,3,0.5,0.25,-35.0,1,0.0,8.389401
7,3,0.5,0.125,35.0,1,1.0,0.47760100000000705
8,3,0.5,0.0625,35.0,1,1.0,0.20130100000000084
9,3,0.5,0.125,35.0,1,1.0,0.2647010000000023
10,3,0.5,0.25,-35.0,1,0.0,13.302200999999997
11,3,0.5,0.125,35.0,1,1.0,0.10540099999998631
12,3,0.5,0.125,-35.0,1,0.0,0.2512009999999947
13,3,0.5,0.25,35.0,1,1.0,0.42910100000000284
14,3,0.5,0.0625,-35.0,1,0.0,0.19150100000000236
15,3,0.5,1.0,-35.0,-1,1.0,0.6744010000000173
16,3,0.5,1.0,35.0,1,1.0,0.2296010000000024
17,3,0.5,1.0,-35.0,-1,1.0,0.8479010000000073
18,3,0.5,0.0,35.0,1,1.0,3.647700999999998
19,3,0.5,0.25,35.0,-1,0.0,0.7625010000000003
20,3,0.5,0.0625,-35.0,1,0.0,0.2052010000000024
21,3,0.5,0.0,35.0,1,1.0,0.327100999999999
22,3,0.5,0.0625,35.0,1,1.0,0.19190100000000143
23,3,0.5,1.0,35.0,1,1.0,0.3059999999999974
24,3,0.5,0.0625,35.0,1,1.0,0.27320100000000025
25,3,0.5,0.0,-35.0,1,0.0,0.5158010000000104
26,3,0.5,0.125,35.0,1,1.0,0.4341009999999983
27,3,0.5,0.0625,-35.0,1,0.0,0.443601000000001
28,3,0.5,0.125,35.0,1,1.0,0.17450099999999225
29,3,0.5,1.0,35.0,1,1.0,0.254400999999973
30,3,0.5,0.25,35.0,1,1.0,0.4032009999999673
31,3,0.5,1.0,-35.0,-1,1.0,1.0500009999999804
32,3,0.5,0.25,35.0,1,1.0,0.20380099999999857
33,3,0.5,1.0,-35.0,-1,1.0,0.5633009999999672
34,3,0.5,1.0,35.0,1,1.0,0.22270000000000323
35,3,0.5,0.125,-35.0,1,0.0,0.6073009999999783
36,3,0.5,0.0625,-35.0,-1,1.0,4.41440099999997
37,3,0.5,0.0625,35.0,1,1.0,0.21920099999996978
38,3,0.5,1.0,35.0,1,1.0,0.23880099999996673
39,3,0.5,0.0,-35.0,-1,1.0,4.49490099999997
40,3,0.5,0.25,-35.0,-1,1.0,0.754100999999963
41,3,0.5,0.125,-35.0,1,0.0,0.16800100000000384
42,3,0.5,0.125,-35.0,-1,1.0,1.1289009999999848
43,3,0.5,1.0,35.0,1,1.0,0.24440100000001053
44,3,0.5,0.25,-35.0,-1,1.0,0.620001000000002
45,3,0.5,0.125,35.0,-1,0.0,0.7254000000000076
46,3,0.5,0.125,35.0,1,1.0,0.1713009999999997
47,3,0.5,0.125,-35.0,-1,1.0,1.0369010000000003
48,3,0.5,0.0625,35.0,-1,0.0,0.5221010000000206
49,3,0.5,0.0,-35.0,-1,1.0,0.48980000000000246
50,3,0.5,0.0,35.0,-1,0.0,0.5123009999999795
51,3,0.5,0.0625,35.0,1,1.0,0.265500999999972
52,3,0.5,0.25,-35.0,1,0.0,0.28010100000000193
53,3,0.5,0.25,35.0,1,1.0,0.21900099999999156
54,3,0.5,0.125,-35.0,1,0.0,0.2741009999999733
55,3,0.5,0.0625,35.0,1,1.0,0.13230099999998401
56,3,0.5,0.125,-35.0,-1,1.0,0.7542009999999948
57,3,0.5,0.0625,35.0,1,1.0,1.3199009999999873
58,3,0.5,0.0625,35.0,1,1.0,0.24180100000000948
59,3,0.5,1.0,-35.0,-1,1.0,0.3437009999999816
60,3,0.5,0.25,35.0,1,1.0,0.2424010000000294
61,3,0.5,1.0,35.0,1,1.0,0.25380100000000994
62,3,0.5,0.0625,35.0,1,1.0,7.2459010000000035
63,3,0.5,1.0,-35.0,-1,1.0,0.777101000000016
64,3,0.5,1.0,35.0,1,1.0,0.2601009999999633
65,3,0.5,0.0625,-35.0,-1,1.0,0.45140099999997574
66,3,0.5,0.125,-35.0,1,0.0,0.3479009999999221
67,3,0.5,0.0,35.0,-1,0.0,0.5731009999999515
68,3,0.5,0.125,-35.0,-1,1.0,0.443601000000001
69,3,0.5,0.25,-35.0,-1,1.0,0.5774010000000089
70,3,0.5,0.0625,35.0,-1,0.0,0.3704010000000153
71,3,0.5,0.0625,-35.0,-1,1.0,0.4778009999999995
72,3,0.5,0.0625,-35.0,-1,1.0,0.3811009999999442
73,3,0.5,1.0,35.0,1,1.0,0.2639009999999189
74,3,0.5,0.125,35.0,1,1.0,0.49520100000000866
75,3,0.5,1.0,-35.0,1,0.0,0.20130100000000084
76,3,0.5,0.25,-35.0,1,0.0,5.916700999999989
77,3,0.5,0.0625,-35.0,-1,1.0,0.7254009999999766
78,3,0.5,0.0625,-35.0,-1,1.0,0.6964009999999803
79,3,0.5,0.0,35.0,1,1.0,0.4141010000000165
80,3,0.5,0.125,35.0,1,1.0,0.5420009999999706
81,3,0.5,1.0,35.0,1,1.0,0.29420099999998683
82,3,0.5,0.25,-35.0,-1,1.0,0.6912009999999782
83,3,0.5,1.0,-35.0,-1,1.0,0.3679010000000176
84,3,0.5,0.0625,-35.0,-1,1.0,4.487600999999984
85,3,0.5,1.0,-35.0,-1,1.0,0.3009010000000103
86,3,0.5,1.0,-35.0,-1,1.0,0.2683009999999513
87,3,0.5,1.0,35.0,1,1.0,0.35700099999996837
88,3,0.5,1.0,35.0,1,1.0,0.22800100000000612
89,3,0.5,0.25,-35.0,1,0.0,0.2858009999999922
90,3,0.5,0.125,35.0,1,1.0,0.3332009999999741
91,3,0.2,0.0625,35.0,1,1.0,0.19490100000001576
92,3,0.2,1.0,-35.0,1,0.0,1.2405009999999947
93,3,0.2,0.25,35.0,-1,0.0,1.2956009999999765
94,3,0.2,0.125,-35.0,1,0.0,0.6477009999999837
95,3,0.2,0.125,35.0,-1,0.0,0.4696010000000115
96,3,0.2,0.0,35.0,-1,0.0,0.3826010000000224
97,3,0.2,0.0,35.0,-1,0.0,0.8644010000000435
98,3,0.2,0.125,35.0,-1,0.0,0.8772010000000137
99,3,0.2,1.0,35.0,-1,0.0,0.8218009999999936
100,3,0.2,0.25,35.0,1,1.0,0.5069009999999707
101,3,0.2,1.0,-35.0,-1,1.0,0.4306010000000242
102,3,0.2,0.0,-35.0,-1,1.0,4.858600000000024
103,3,0.2,1.0,35.0,1,1.0,0.22690099999999802
104,3,0.2,0.0625,35.0,1,1.0,0.3006009999999719
105,3,0.2,0.125,35.0,1,1.0,0.41629999999997835
106,3,0.2,0.25,35.0,1,1.0,0.4225010000000111
107,3,0.2,0.0625,35.0,1,1.0,0.21670100000000048
108,3,0.2,0.125,35.0,1,1.0,0.36270099999995864
109,3,0.2,0.0625,35.0,1,1.0,0.610100999999986
110,3,0.2,0.0625,35.0,1,1.0,0.282400999999993
111,3,0.2,0.25,35.0,1,1.0,0.6909009999999967
112,3,0.2,0.0625,35.0,1,1.0,0.3910009999999602
113,3,0.2,1.0,-35.0,1,0.0,0.21780099999995173
114,3,0.2,0.125,35.0,1,1.0,0.6340999999999894
115,3,0.2,1.0,-35.0,1,0.0,0.19910099999998465
116,3,0.2,1.0,35.0,1,1.0,0.19970100000000457
117,3,0.2,0.125,35.0,1,1.0,0.3214009999999803
118,3,0.2,1.0,35.0,1,1.0,0.2625009999999861
119,3,0.2,0.125,35.0,1,1.0,0.5034009999999967
120,3,0.2,1.0,-35.0,1,0.0,0.19910099999998465
121,3,0.2,0.125,35.0,1,1.0,0.23510099999998602
122,3,0.2,0.0625,35.0,1,1.0,0.2841009999999642
123,3,0.2,0.0,35.0,1,1.0,0.4153009999999995
124,3,0.2,1.0,35.0,1,1.0,0.18310000000002447
125,3,0.2,0.0625,35.0,1,1.0,0.2553009999999176
126,3,0.2,0.25,35.0,1,1.0,0.5240999999999758
127,3,0.2,0.125,35.0,1,1.0,0.6332009999999855
128,3,0.2,0.0,35.0,1,1.0,1.0601009999999178
129,3,0.2,0.0,35.0,-1,0.0,5.620001000000002
130,3,0.2,0.25,35.0,1,1.0,0.3469000000000051
131,3,0.2,0.0625,35.0,1,1.0,0.4222010000000864
132,3,0.2,0.0625,35.0,1,1.0,0.1327009999999973
133,3,0.2,0.125,35.0,1,1.0,0.38170100000002094
134,3,0.2,0.125,-35.0,1,0.0,0.85670099999993
135,3,0.2,0.0,-35.0,1,0.0,0.469400999999948
136,3,0.2,0.0625,35.0,1,1.0,5.823300999999901
137,3,0.2,0.0,-35.0,1,0.0,0.32710099999997055
138,3,0.2,0.0625,35.0,1,1.0,0.17689999999993233
139,3,0.2,0.0625,35.0,1,1.0,0.12890100000004168
140,3,0.2,1.0,35.0,1,1.0,0.4232009999999491
141,3,0.2,1.0,35.0,1,1.0,0.44210099999997965
142,3,0.2,0.25,-35.0,1,0.0,0.19520199999999477
143,3,0.2,1.0,35.0,1,1.0,0.22700200000008408
144,3,0.2,0.0,35.0,1,1.0,5.9622020000000475
145,3,0.2,1.0,35.0,1,1.0,0.34120199999995293
146,3,0.2,1.0,-35.0,-1,1.0,0.4183020000000397
147,3,0.2,1.0,35.0,1,1.0,0.5851020000000062
148,3,0.2,0.0625,35.0,-1,0.0,0.39530200000001514
149,3,0.8,0.125,-35.0,1,0.0,0.7246020000000044
150,3,0.8,1.0,35.0,1,1.0,0.38300199999991946
151,3,0.8,1.0,-35.0,-1,1.0,0.4630020000000741
152,3,0.8,0.0625,-35.0,-1,1.0,0.5100019999999859
153,3,0.8,0.0625,-35.0,-1,1.0,0.6037019999999984
154,3,0.8,0.25,-35.0,1,0.0,2.1509019999999737
155,3,0.8,1.0,-35.0,-1,1.0,5.9925009999999475
156,3,0.8,0.0,-35.0,-1,1.0,0.2777019999999766
157,3,0.8,0.125,-35.0,-1,1.0,0.8233020000000124
158,3,0.8,0.125,-35.0,-1,1.0,0.4953019999999242
159,3,0.8,0.0625,-35.0,1,0.0,1.417701999999963
160,3,0.8,0.25,35.0,1,1.0,0.4642020000000002
161,3,0.8,1.0,-35.0,-1,1.0,0.5540020000000823
162,3,0.8,0.125,35.0,1,1.0,0.5790019999999458
163,3,0.8,0.125,-35.0,-1,1.0,3.7128020000000106
164,3,0.8,1.0,-35.0,-1,1.0,0.2697019999999384
165,3,0.8,1.0,-35.0,-1,1.0,0.2989019999999982
166,3,0.8,0.125,-35.0,-1,1.0,3.671102000000019
167,3,0.8,0.0,-35.0,-1,1.0,6.929301999999893
168,3,0.8,0.125,-35.0,-1,1.0,0.3195019999999431
169,3,0.8,0.0625,-35.0,-1,1.0,0.2767020000000002
170,3,0.8,0.0625,35.0,-1,0.0,0.4018020000000888
171,3,0.8,1.0,35.0,1,1.0,0.7152019999999766
172,3,0.8,0.0625,-35.0,1,0.0,0.7032019999999193
173,3,0.8,0.25,-35.0,1,0.0,1.2469019999999773
174,3,0.8,0.25,-35.0,-1,1.0,0.8555020000000013
175,3,0.8,0.0625,-35.0,-1,1.0,0.5292020000000548
176,3,0.8,0.25,-35.0,-1,1.0,0.7485020000000304
177,3,0.8,0.125,-35.0,-1,1.0,5.548701999999935
178,3,0.8,0.25,-35.0,-1,1.0,0.5511020000000144
179,3,0.8,0.0625,-35.0,-1,1.0,5.730401999999913
180,3,0.8,1.0,-35.0,-1,1.0,0.6337020000000848
181,3,0.8,0.125,35.0,1,1.0,0.40710200000000896
182,3,0.8,1.0,-35.0,-1,1.0,0.5990019999999276
183,3,0.8,1.0,-35.0,-1,1.0,0.4710019999999986
184,3,0.8,0.0,-35.0,-1,1.0,0.3624019999999746
185,3,0.8,0.125,35.0,1,1.0,0.6986019999999371
186,3,0.2,0.0,-35.0,-1,1.0,6.2361020000000735
187,3,0.2,0.25,-35.0,-1,1.0,0.6957020000000966
188,3,0.2,0.25,35.0,1,1.0,0.4303019999999833
189,3,0.2,0.0625,-35.0,-1,1.0,0.35890200000005734
190,3,0.2,1.0,35.0,1,1.0,0.4145019999999704
191,3,0.2,0.25,35.0,1,1.0,0.5381019999999808
192,3,0.2,0.25,-35.0,-1,1.0,7.107602000000043
193,3,0.2,1.0,35.0,1,1.0,0.8356019999999944
194,3,0.2,0.125,35.0,1,1.0,0.8552019999999629
195,3,0.2,0.0625,35.0,1,1.0,0.503001999999924
196,3,0.2,0.125,35.0,1,1.0,0.6323019999999815
197,3,0.2,1.0,35.0,1,1.0,0.5051019999999653
198,3,0.2,1.0,35.0,1,1.0,0.4138020000000324
199,3,0.2,0.0625,35.0,1,1.0,0.31680200000005243
200,3,0.2,1.0,35.0,1,1.0,0.47210199999994984
201,3,0.2,0.25,35.0,1,1.0,0.2127020000000357
202,3,0.2,0.0625,35.0,1,1.0,0.5539019999999937
203,3,0.2,0.25,35.0,1,1.0,0.46800200000006953
204,3,0.2,0.125,35.0,1,1.0,1.452401000000009
205,3,0.2,0.0625,35.0,1,1.0,0.6678020000000515
206,3,0.2,1.0,35.0,1,1.0,0.26880100000005314
207,3,0.2,0.0625,-35.0,-1,1.0,0.5361019999999144
208,3,0.2,0.25,-35.0,-1,1.0,0.710702000000083
209,3,0.2,0.25,-35.0,-1,1.0,0.6447020000000521
210,3,0.2,0.25,-35.0,-1,1.0,6.069602000000032
211,3,0.2,0.125,35.0,1,1.0,0.36850200000003497
212,3,0.2,0.125,35.0,1,1.0,0.6134019999999509
213,3,0.2,1.0,35.0,1,1.0,0.35340199999984634
214,3,0.2,0.125,35.0,1,1.0,0.41300200000000586
215,3,0.2,1.0,35.0,1,1.0,0.2753010000000131
216,3,0.2,0.0,35.0,1,1.0,1.0021019999999226
217,3,0.2,0.0625,35.0,1,1.0,0.9507019999998647
218,3,0.2,1.0,-35.0,-1,1.0,8.940602000000013
219,3,0.2,1.0,35.0,1,1.0,0.2852019999999129
220,3,0.2,0.0,35.0,1,1.0,0.5439019999998891
221,3,0.2,1.0,35.0,1,1.0,0.45970199999999295
222,3,0.2,0.25,35.0,1,1.0,0.6804019999999582
223,3,0.2,0.125,35.0,1,1.0,0.5874019999999973
224,3,0.2,0.0625,-35.0,1,0.0,0.5334020000000237
225,3,0.2,1.0,35.0,1,1.0,0.27240199999994275
226,3,0.8,0.125,-35.0,-1,1.0,6.061701999999968
227,3,0.8,1.0,-35.0,-1,1.0,3.7755019999999604
228,3,0.8,0.0625,-35.0,1,0.0,16.56170199999997
229,3,0.8,1.0,35.0,1,1.0,0.4990020000000186
230,3,0.8,1.0,-35.0,-1,1.0,5.738001999999938
231,3,0.8,0.125,-35.0,-1,1.0,4.857501999999954
232,3,0.8,1.0,-35.0,-1,1.0,5.338801999999987
233,3,0.8,0.125,-35.0,-1,1.0,14.405600999999933
234,3,0.8,0.0625,-35.0,-1,1.0,2.287001000000373
235,3,0.8,0.125,35.0,-1,0.0,0.31890199999998003
236,3,0.8,0.25,35.0,1,1.0,1.2451010000002043
237,3,0.8,0.25,35.0,1,1.0,3.369901000000027
238,3,0.8,0.0,35.0,-1,0.0,2.888102000000117
239,3,0.8,1.0,-35.0,-1,1.0,5.797402000000147
240,3,0.8,0.0625,35.0,-1,0.0,6.037302000000182
241,3,0.8,0.25,-35.0,-1,1.0,16.408402000000024
242,3,0.8,0.25,35.0,1,1.0,0.7149019999999382
243,3,0.8,0.125,-35.0,1,0.0,5.110601999999972
244,3,0.8,0.125,-35.0,1,0.0,0.5211020000001554
245,3,0.8,0.0,-35.0,-1,1.0,5.149702000000161
246,3,0.8,0.125,-35.0,-1,1.0,20.138002000000142
247,3,0.8,0.0,-35.0,-1,1.0,0.7665020000001732
248,3,0.8,0.125,-35.0,-1,1.0,11.802302000000054
249,3,0.8,1.0,35.0,1,1.0,0.33750099999997474
250,3,0.8,0.0625,35.0,1,1.0,3.5701020000001336
251,3,0.8,0.25,35.0,1,1.0,0.42570100000011735
252,3,0.8,0.25,35.0,1,1.0,0.6407020000001467
253,3,0.8,0.25,35.0,1,1.0,0.6029009999999744
254,3,0.8,0.25,35.0,1,1.0,0.37880199999995057
255,3,0.8,0.0625,35.0,1,1.0,0.5582020000001648
256,3,0.8,1.0,-35.0,-1,1.0,0.9833020000000943
257,3,0.8,0.125,-35.0,1,0.0,5.499402000000146
258,3,0.8,0.25,-35.0,1,0.0,0.9868020000001252
259,3,0.8,1.0,-35.0,1,0.0,0.6348010000001523
260,3,0.8,0.25,35.0,1,1.0,0.7470020000000659
261,3,0.8,0.0625,-35.0,1,0.0,0.5895020000000386
262,3,0.8,0.25,-35.0,1,0.0,0.6413020000002234
263,3,0.8,1.0,-35.0,1,0.0,0.8063019999999597
264,3,0.8,0.0,-35.0,1,0.0,0.5827020000001539
265,3,0.8,1.0,-35.0,-1,1.0,0.15140199999996184
266,3,0.8,0.25,-35.0,1,0.0,0.9364020000000437
267,3,0.8,0.25,-35.0,1,0.0,0.6691020000000663
268,3,0.8,1.0,-35.0,-1,1.0,1.5535020000002078
269,3,0.8,1.0,-35.0,-1,1.0,0.3354020000001583
270,3,0.8,0.0625,-35.0,-1,1.0,4.667801000000281
271,3,0.8,0.25,35.0,1,1.0,0.2790019999999913
272,3,0.8,0.0625,-35.0,-1,1.0,0.7681020000002263
273,3,0.8,0.0625,-35.0,1,0.0,0.6814010000002781
274,3,0.8,1.0,-35.0,-1,1.0,0.3093019999998887
275,3,0.8,0.0625,-35.0,-1,1.0,5.9913020000001325
276,3,0.8,1.0,-35.0,-1,1.0,0.31230200000004515
277,3,0.8,0.125,-35.0,-1,1.0,0.32860200000004625
278,3,0.8,0.25,35.0,1,1.0,0.37700200000017503
279,3,0.8,0.125,-35.0,-1,1.0,0.40350100000023303
280,3,0.8,0.0625,-35.0,-1,1.0,10.145602000000054
281,3,0.8,0.0,-35.0,-1,1.0,0.668002000000115
282,3,0.2,0.125,35.0,1,1.0,0.5537019999999302
283,3,0.2,0.25,-35.0,-1,1.0,0.6330020000002605
284,3,0.2,1.0,-35.0,-1,1.0,0.2684020000003784
285,3,0.2,0.125,35.0,1,1.0,0.3636020000001281
286,3,0.2,1.0,35.0,1,1.0,0.4264020000000528
287,3,0.2,0.125,35.0,1,1.0,0.4483020000000124
288,3,0.2,0.0,-35.0,1,0.0,0.6146020000001045
289,3,0.2,0.0625,35.0,1,1.0,0.7200020000000222
290,3,0.2,0.25,-35.0,-1,1.0,0.8495020000002569
291,3,0.2,1.0,35.0,1,1.0,0.43940200000020013
292,3,0.2,0.25,35.0,1,1.0,2.239002000000255
293,3,0.2,0.125,-35.0,1,0.0,0.4811019999999644
294,3,0.2,1.0,35.0,1,1.0,0.5936019999999189
295,3,0.2,0.25,35.0,1,1.0,0.5187020000000757
296,3,0.2,0.125,35.0,1,1.0,0.3080019999999877
297,3,0.2,0.0,35.0,1,1.0,5.380402000000004
298,3,0.2,0.25,35.0,1,1.0,0.24130200000035984
299,3,0.2,0.25,35.0,1,1.0,0.2806020000002718
300,3,0.2,1.0,-35.0,-1,1.0,0.5735020000001896
301,3,0.2,0.125,35.0,1,1.0,0.5153020000002471
302,3,0.2,0.25,35.0,-1,0.0,0.5542020000000321
303,3,0.2,1.0,35.0,1,1.0,0.34670200000005025
304,3,0.2,0.0625,35.0,-1,0.0,4.675402000000076
305,3,0.2,0.0625,-35.0,-1,1.0,12.139302000000043
306,3,0.2,0.125,35.0,1,1.0,0.3679020000001856
307,3,0.2,0.125,35.0,1,1.0,0.2510020000001987
308,3,0.2,0.0,-35.0,1,0.0,0.2528020000002016
309,3,0.2,0.125,35.0,1,1.0,0.4419020000002547
310,3,0.2,1.0,35.0,1,1.0,0.2511020000001736
311,3,0.2,0.125,35.0,1,1.0,0.3335010000000693
312,3,0.2,0.0,35.0,1,1.0,0.455902000000151
313,3,0.2,0.125,35.0,1,1.0,0.37070200000016484
314,3,0.2,0.0625,35.0,1,1.0,0.5198020000002543
315,3,0.2,0.0625,35.0,1,1.0,0.43910200000027544
316,3,0.2,0.25,35.0,1,1.0,0.2676019999998971
317,3,0.2,0.0625,35.0,1,1.0,0.7403020000001561
318,3,0.2,0.25,35.0,1,1.0,0.30630199999995966
319,3,0.2,1.0,-35.0,-1,1.0,2.691102000000228
320,3,0.2,0.25,35.0,-1,0.0,0.19700200000011137
321,3,0.2,0.0625,35.0,1,1.0,15.644802000000254
322,3,0.2,0.125,35.0,1,1.0,0.22580200000015793
323,3,0.2,1.0,35.0,1,1.0,0.41540200000008554
324,3,0.2,0.125,-35.0,1,0.0,4.133801999999832
325,3,0.2,0.125,35.0,1,1.0,0.3882020000000921
326,3,0.2,0.125,-35.0,-1,1.0,0.5880010000000766
327,3,0.2,0.0,-35.0,1,0.0,0.3860020000001896
328,3,0.2,0.125,35.0,1,1.0,11.455802000000176
329,3,0.2,0.25,35.0,1,1.0,0.3204009999999471
330,3,0.2,0.0625,35.0,1,1.0,0.5006020000000717
331,3,0.2,0.125,35.0,1,1.0,0.4524020000001201
332,3,0.2,0.0,35.0,1,1.0,0.38840200000026925
333,3,0.2,1.0,-35.0,-1,1.0,3.1304020000000037
334,3,0.2,1.0,35.0,1,1.0,0.31220200000007026
335,3,0.2,0.125,35.0,1,1.0,0.45780200000012883
336,3,0.2,0.0625,35.0,1,1.0,1.4499020000000655
337,3,0.2,0.25,35.0,1,1.0,3.4057020000000193
338,3,0.2,0.0,35.0,1,1.0,15.673702000000048
339,3,0.2,0.0625,35.0,-1,0.0,8.504802000000154
340,3,0.2,0.125,35.0,1,1.0,0.8613020000002507
341,3,0.2,0.25,35.0,1,1.0,0.4569020000001274
342,3,0.2,0.125,35.0,0,0.0,59.93200200000024
343,3,0.2,0.0625,35.0,-1,0.0,17.012202000000116
344,3,0.2,0.0,-35.0,-1,1.0,32.046401999999944
345,3,0.2,0.0625,35.0,1,1.0,0.4122020000002067
346,3,0.2,0.0625,35.0,1,1.0,0.5312019999998938
347,3,0.2,0.25,35.0,1,1.0,0.32040200000005825
348,3,0.2,1.0,35.0,1,1.0,0.5466020000001208
349,3,0.2,1.0,35.0,1,1.0,0.14590199999997822
350,3,0.2,0.0625,35.0,1,1.0,0.5240020000001095
351,3,0.2,0.125,-35.0,1,0.0,0.29970200000025216
352,3,0.2,0.25,35.0,1,1.0,0.2120020000002114
353,3,0.2,1.0,35.0,1,1.0,0.29410200000006625
354,3,0.2,0.0625,35.0,1,1.0,0.3076020000000881
355,3,0.2,0.25,35.0,1,1.0,0.2990019999999731
356,3,0.2,0.0,35.0,1,1.0,0.3680020000001605
357,3,0.2,0.0625,-35.0,1,0.0,0.46730200000001787
358,3,0.2,0.25,35.0,1,1.0,0.5693020000003344
359,3,0.2,0.25,35.0,1,1.0,0.2488020000000688
360,3,0.2,0.125,-35.0,-1,1.0,0.5551020000000335
361,3,0.2,0.0625,35.0,-1,0.0,0.6174020000000837
362,3,0.2,1.0,35.0,1,1.0,0.30880200000001423
363,3,0.2,1.0,35.0,1,1.0,0.3008020000002034
364,3,0.2,0.25,-35.0,-1,1.0,0.3268020000002707
365,3,0.2,0.0625,35.0,1,1.0,0.35620200000016666
366,3,0.2,0.0625,-35.0,1,0.0,0.3781019999998989
367,3,0.2,0.0,35.0,-1,0.0,5.577502000000322
368,3,0.2,0.0625,35.0,-1,0.0,0.11780200000021068
369,3,0.2,0.25,35.0,1,1.0,0.459002000000055
370,3,0.2,0.125,35.0,1,1.0,0.4882020000002285
371,3,0.2,1.0,35.0,1,1.0,0.21740199999999277
372,3,0.2,0.125,-35.0,1,0.0,0.6599020000001019
373,3,0.2,0.125,35.0,1,1.0,34.35540200000014
374,3,0.2,0.125,-35.0,1,0.0,0.25370200000020304
375,3,0.2,0.0625,35.0,1,1.0,0.4326020000000881
376,3,0.8,0.25,-35.0,-1,1.0,0.6251010000003134
377,3,0.8,0.0625,-35.0,-1,1.0,7.38750200000004
378,3,0.8,1.0,-35.0,-1,1.0,1.0579020000002402
379,3,0.8,0.25,35.0,1,1.0,0.47970200000008845
380,3,0.8,1.0,-35.0,1,0.0,0.30200100000024577
381,3,0.8,0.0,-35.0,-1,1.0,16.43070200000011
382,3,0.8,1.0,-35.0,1,0.0,6.8447020000000975
383,3,0.8,0.0625,-35.0,0,0.0,59.94840199999999
384,3,0.8,0.25,-35.0,-1,1.0,22.4253020000001
385,3,0.8,1.0,-35.0,-1,1.0,0.307901000000129
386,3,0.8,0.0625,-35.0,-1,1.0,0.7329019999999673
387,3,0.8,0.0625,-35.0,-1,1.0,0.36520199999995384
388,3,0.8,0.25,-35.0,-1,1.0,0.5977020000000266
389,3,0.8,0.125,-35.0,-1,1.0,0.5037010000000919
390,3,0.8,0.25,-35.0,-1,1.0,15.265502000000197
391,3,0.8,0.0625,-35.0,-1,1.0,17.122902000000067
392,3,0.8,0.125,-35.0,-1,1.0,0.8634019999999509
393,3,0.8,0.25,-35.0,-1,1.0,1.462402000000111
394,3,0.8,0.125,-35.0,-1,1.0,6.801202000000103
395,3,0.8,0.125,35.0,1,1.0,0.3516020000001845
396,3,0.8,1.0,-35.0,-1,1.0,0.37400200000047334
397,3,0.8,0.25,-35.0,-1,1.0,0.6094010000001617
398,3,0.8,0.0625,-35.0,-1,1.0,40.76170100000036
399,3,0.8,1.0,35.0,1,1.0,0.41480200000023615
400,3,0.8,0.25,-35.0,-1,1.0,4.660602000000381
401,3,0.8,0.25,-35.0,-1,1.0,0.830601999999999
402,3,0.8,0.0,35.0,1,1.0,41.586201000000074
403,3,0.8,0.125,35.0,1,1.0,9.997502000000168
404,3,0.8,0.0625,-35.0,1,0.0,0.3904019999999946
405,3,0.8,0.125,35.0,1,1.0,0.48920200000020486
406,3,0.8,0.0625,-35.0,1,0.0,7.981502000000091
407,3,0.8,1.0,-35.0,1,0.0,0.6046019999998862
408,3,0.8,1.0,35.0,1,1.0,0.21330200000011246
409,3,0.2,0.0625,35.0,0,0.0,59.91720200000009
410,3,0.2,0.125,35.0,1,1.0,0.2866020000001299
411,3,0.2,0.125,35.0,1,1.0,0.22850100000005114
412,3,0.2,0.0625,35.0,1,1.0,0.31440199999997276
413,3,0.2,1.0,35.0,1,1.0,0.27360200000020996
414,3,0.2,1.0,35.0,1,1.0,0.27950200000032055
415,3,0.2,1.0,35.0,1,1.0,0.3586009999999078
416,3,0.2,0.0625,-35.0,1,0.0,0.49790200000006735
417,3,0.2,0.0,35.0,1,1.0,0.7266020000001845
418,3,0.2,1.0,-35.0,1,0.0,2.1257019999998192
419,3,0.2,0.25,35.0,1,1.0,0.3174020000001292
420,3,0.2,0.125,35.0,1,1.0,0.396502000000055
421,3,0.2,0.125,-35.0,1,0.0,5.718902000000526
422,3,0.2,0.25,35.0,1,1.0,0.4294019999997545
423,3,0.2,1.0,35.0,1,1.0,0.3819020000000819
424,3,0.2,0.0,35.0,-1,0.0,14.811101000000235
425,3,0.2,0.125,-35.0,-1,1.0,0.5888020000006691
426,3,0.2,0.0,-0.0,0,0.0,59.94460200000003
427,3,0.2,1.0,35.0,1,1.0,1.2415019999998549
428,3,0.2,0.125,35.0,1,1.0,0.5503020000001015
429,3,0.2,0.0625,35.0,0,0.0,59.9558020000004
430,3,0.2,0.25,35.0,1,1.0,0.14000200000054974
431,3,0.2,0.25,35.0,1,1.0,11.171802000000298
432,3,0.2,0.0625,35.0,-1,0.0,38.14420199999995
433,3,0.2,0.0625,35.0,1,1.0,0.901202000000012
434,3,0.2,0.0625,-35.0,1,0.0,6.176801999999952
435,3,0.2,1.0,35.0,1,1.0,0.2739019999999073
436,3,0.2,1.0,35.0,1,1.0,0.42310200000019904
437,3,0.2,0.0625,-35.0,-1,1.0,0.8921019999997952
438,3,0.2,0.25,35.0,1,1.0,0.5177020000000994
439,3,0.2,0.125,35.0,-1,0.0,38.71350200000006
440,3,0.2,1.0,35.0,1,1.0,0.6238020000000688
441,3,0.2,0.125,35.0,-1,0.0,28.62610200000063
442,3,0.2,0.125,35.0,1,1.0,1.4894020000001547
443,3,0.2,1.0,35.0,1,1.0,0.4616020000003118
444,3,0.2,0.0625,-35.0,-1,1.0,16.79410199999984
445,3,0.2,0.0625,35.0,1,1.0,0.5814020000002529
446,3,0.2,0.125,35.0,1,1.0,0.3138019999996686
447,3,0.2,0.25,35.0,1,1.0,0.11950200000046607
448,3,0.8,1.0,-35.0,1,0.0,10.445502000000033
449,3,0.8,0.0,-35.0,1,0.0,14.104502000000593
450,3,0.8,0.0625,-35.0,0,0.0,59.965701999999965
451,3,0.8,0.0625,-35.0,-1,1.0,0.9726009999999405
452,3,0.8,0.125,-35.0,-1,1.0,14.935101999999915
453,3,0.8,0.0,-35.0,1,0.0,23.292801999999938
454,3,0.8,1.0,35.0,1,1.0,0.3880020000001423
455,3,0.8,0.25,35.0,1,1.0,0.33390100000042366
456,3,0.8,0.0625,-35.0,1,0.0,0.767001999999593
457,3,0.8,0.25,-35.0,1,0.0,0.48870199999964825
458,3,0.8,0.125,-35.0,-1,1.0,21.877502000000277
459,3,0.8,0.0,-35.0,1,0.0,33.906801999999516
460,3,0.8,0.25,-35.0,1,0.0,0.31830200000013065
461,3,0.8,1.0,-35.0,-1,1.0,42.52060200000005
462,3,0.8,0.25,-35.0,-1,1.0,35.91240199999993
463,3,0.8,0.25,-35.0,-1,1.0,0.6680020000003424
464,3,0.8,1.0,-35.0,-1,1.0,0.76710200000025
465,3,0.8,0.25,-35.0,-1,1.0,3.0652020000002267
466,3,0.8,0.25,-35.0,-1,1.0,15.169002000000091
467,3,0.8,0.0625,-35.0,-1,1.0,18.603602000000137
468,3,0.8,0.0625,35.0,-1,0.0,13.690301999999974
1,4,0.5,0.0625,-35.0,-1,1.0,0.8074000000000001
2,4,0.5,0.0625,35.0,-1,0.0,0.2927999999999997
3,4,0.5,0.125,-35.0,-1,1.0,0.5614000000000008
4,4,0.5,0.125,35.0,1,1.0,0.1601999999999979
5,4,0.5,0.25,35.0,1,1.0,0.11140000000000327
6,4,0.5,1.0,-35.0,1,0.0,0.19290000000000163
7,4,0.5,0.0625,-35.0,-1,1.0,0.7750000000000021
8,4,0.5,1.0,-35.0,1,0.0,0.248899999999999
9,4,0.5,0.125,-35.0,1,0.0,0.428600000000003
10,4,0.5,1.0,-35.0,1,0.0,0.2307000000000059
11,4,0.5,0.25,-35.0,1,0.0,0.16910000000000025
12,4,0.5,1.0,35.0,1,1.0,0.1574990000000014
13,4,0.5,1.0,35.0,1,1.0,0.17480000000000473
14,4,0.5,0.0625,-35.0,-1,1.0,0.3785000000000025
15,4,0.5,1.0,35.0,1,1.0,0.5512000000000086
16,4,0.5,0.25,35.0,1,1.0,0.273299999999999
17,4,0.5,0.125,35.0,1,1.0,0.2370999999999981
18,4,0.5,1.0,-35.0,1,0.0,0.24079999999999302
19,4,0.5,0.25,35.0,1,1.0,0.18569999999998288
20,4,0.5,0.25,35.0,1,1.0,0.15369899999998893
21,4,0.5,0.0625,35.0,1,1.0,0.20589900000000227
22,4,0.5,0.125,-35.0,1,0.0,0.18369999999998754
23,4,0.5,0.125,35.0,1,1.0,0.41340000000001
24,4,0.5,0.0625,-35.0,1,0.0,0.06810000000000116
25,4,0.5,0.25,35.0,1,1.0,0.1296999999999997
26,4,0.5,0.25,35.0,1,1.0,0.1710989999999981
27,4,0.5,0.0,35.0,1,1.0,1.3041000000000054
28,4,0.5,1.0,-35.0,1,0.0,0.2703999999999951
29,4,0.5,0.125,35.0,1,1.0,0.2716999999999956
30,4,0.5,0.125,35.0,1,1.0,0.08440000000000225
31,4,0.5,0.25,35.0,1,1.0,0.3667999999999978
32,4,0.5,0.25,35.0,1,1.0,0.328400000000002
33,4,0.5,0.25,-35.0,1,0.0,0.23820000000000618
34,4,0.5,0.125,35.0,1,1.0,0.35799999999997567
35,4,0.5,1.0,35.0,1,1.0,0.09800000000001319
36,4,0.5,1.0,-35.0,1,0.0,0.1679990000000089
37,4,0.5,0.125,-35.0,1,0.0,0.20160000000001332
38,4,0.5,0.0,35.0,1,1.0,0.208500000000015
39,4,0.5,0.25,35.0,1,1.0,0.18029999999998836
40,4,0.5,0.0625,-35.0,1,0.0,0.2576000000000249
41,4,0.5,0.125,35.0,1,1.0,0.28760000000002606
42,4,0.5,0.0625,-35.0,-1,1.0,0.28230000000002065
43,4,0.5,0.125,-35.0,1,0.0,0.1534989999999823
44,4,0.5,0.125,-35.0,-1,1.0,0.28350000000003206
45,4,0.5,0.0,-35.0,1,0.0,0.1862000000000137
46,4,0.5,0.0625,35.0,-1,0.0,0.3499000000000194
47,4,0.5,0.25,35.0,1,1.0,0.37400000000002365
48,4,0.5,0.125,35.0,1,1.0,0.17960000000002196
49,4,0.5,0.125,-35.0,-1,1.0,0.19130000000001246
50,4,0.5,0.125,-35.0,-1,1.0,0.6537000000000148
51,4,0.5,0.25,-35.0,-1,1.0,0.4930000000000234
52,4,0.5,0.0,35.0,-1,0.0,0.24660000000002924
53,4,0.5,0.125,35.0,1,1.0,0.18469999999999231
54,4,0.5,1.0,35.0,1,1.0,0.17479900000000725
55,4,0.5,1.0,35.0,1,1.0,
56,4,0.5,0.125,35.0,1,1.0,
57,4,0.5,0.0,-35.0,1,0.0,-1.8205999999999847
58,4,0.5,1.0,-35.0,-1,1.0,0.47990000000001487
59,4,0.5,1.0,-35.0,-1,1.0,0.16949999999999932
60,4,0.5,0.0,35.0,1,1.0,0.1599999999999966
61,4,0.5,0.0,35.0,1,1.0,0.16790000000000305
62,4,0.5,0.0,-35.0,1,0.0,0.32929999999998927
63,4,0.5,0.25,35.0,1,1.0,0.7013999999999783
64,4,0.5,0.0625,-35.0,-1,1.0,0.727800000000002
65,4,0.5,0.0625,35.0,1,1.0,0.283299999999997
66,4,0.5,1.0,-35.0,-1,1.0,0.37009999999997945
67,4,0.5,1.0,35.0,1,1.0,0.20900000000000318
68,4,0.5,0.0,35.0,-1,0.0,6.748999999999967
69,4,0.5,1.0,35.0,1,1.0,0.14860000000004447
70,4,0.5,0.125,-35.0,1,0.0,0.365099999999984
71,4,0.5,0.25,35.0,1,1.0,0.20549999999997226
72,4,0.5,1.0,-35.0,1,0.0,0.21280000000001564
73,4,0.5,0.25,-35.0,1,0.0,0.07189999999997099
74,4,0.5,1.0,-35.0,1,0.0,0.16890000000000782
75,4,0.5,0.0625,-35.0,-1,1.0,0.2973999999999819
76,4,0.5,0.0625,35.0,-1,0.0,0.5143999999999664
77,4,0.5,0.0625,35.0,1,1.0,0.19409999999999172
78,4,0.5,0.125,35.0,1,1.0,0.38109900000000607
79,4,0.5,0.0625,-35.0,1,0.0,0.1957999999999629
80,4,0.5,0.125,-35.0,1,0.0,0.16950000000002774
81,4,0.5,1.0,-35.0,-1,1.0,0.3155999999999608
82,4,0.5,1.0,-35.0,-1,1.0,0.3613000000000284
83,4,0.5,1.0,35.0,1,1.0,0.18950000000000955
84,4,0.5,0.125,35.0,1,1.0,0.17369999999999663
85,4,0.5,1.0,35.0,1,1.0,0.08910000000003038
86,4,0.5,0.0,-35.0,-1,1.0,0.6077000000000226
87,4,0.5,0.0625,35.0,1,1.0,0.1671999999999798
88,4,0.5,0.0625,-35.0,1,0.0,0.3500999999999408
89,4,0.5,0.125,-35.0,1,0.0,0.20599899999996296
90,4,0.5,1.0,35.0,1,1.0,0.17390000000000327
91,4,0.8,0.0625,-35.0,-1,1.0,0.48209900000000516
92,4,0.8,0.125,-35.0,1,0.0,0.17559999999997444
93,4,0.8,0.0625,35.0,1,1.0,0.23950000000002092
94,4,0.8,0.25,-35.0,-1,1.0,0.33490000000000464
95,4,0.8,0.125,35.0,-1,0.0,0.277499999999975
96,4,0.8,1.0,-35.0,-1,1.0,0.48179999999996426
97,4,0.8,0.0,35.0,-1,0.0,0.2751989999999296
98,4,0.8,0.25,-35.0,-1,1.0,0.19859899999994468
99,4,0.8,0.125,-35.0,-1,1.0,0.3267999999999347
100,4,0.8,0.25,-35.0,-1,1.0,0.23570000000000846
101,4,0.8,0.0625,-35.0,-1,1.0,0.3524999999999636
102,4,0.8,0.0,-35.0,-1,1.0,0.3762999999999579
103,4,0.8,0.0625,-35.0,-1,1.0,0.47640000000001237
104,4,0.8,0.0625,35.0,1,1.0,0.3470999999999549
105,4,0.8,0.25,35.0,1,1.0,0.2401999999999589
106,4,0.8,0.0,-35.0,1,0.0,0.26579999999995607
107,4,0.8,0.25,35.0,1,1.0,0.22239999999999327
108,4,0.8,0.0625,-35.0,-1,1.0,0.3688999999999396
109,4,0.8,0.125,-35.0,-1,1.0,0.5840999999999781
110,4,0.8,0.125,35.0,1,1.0,0.21879900000004682
111,4,0.8,0.0,-35.0,1,0.0,-0.004500000000007276
112,4,0.8,0.0625,-35.0,1,0.0,0.17730000000000246
113,4,0.8,0.0625,-35.0,1,0.0,0.156599999999969
114,4,0.8,0.0,-35.0,1,0.0,0.7273000000000138
115,4,0.8,0.0625,-35.0,1,0.0,0.15910000000002356
116,4,0.2,0.25,35.0,1,1.0,0.3061999999999898
117,4,0.2,0.125,-35.0,-1,1.0,0.2777999999999565
118,4,0.2,0.125,35.0,-1,0.0,0.3369000000000142
119,4,0.2,0.125,35.0,1,1.0,0.24049999999999727
120,4,0.2,1.0,35.0,1,1.0,0.1811999999999898
121,4,0.2,0.25,-35.0,-1,1.0,0.21380000000010568
122,4,0.2,0.0625,35.0,1,1.0,0.27949999999998454
123,4,0.2,0.25,35.0,1,1.0,0.4741999999999962
124,4,0.2,0.125,35.0,1,1.0,0.4897999999999456
125,4,0.2,0.125,35.0,1,1.0,0.18989999999996598
126,4,0.2,0.25,-35.0,-1,1.0,0.4470999999999776
127,4,0.2,0.125,35.0,1,1.0,0.3000999999999294
128,4,0.2,1.0,35.0,1,1.0,0.19209999999998217
129,4,0.2,0.0,35.0,-1,0.0,0.21229999999991378
130,4,0.2,0.125,35.0,1,1.0,0.27919999999994616
131,4,0.2,1.0,35.0,1,1.0,0.19200000000000728
132,4,0.2,1.0,35.0,1,1.0,0.3446999999999889
133,4,0.2,0.0,35.0,1,1.0,0.3919990000000553
134,4,0.2,0.0625,-35.0,1,0.0,0.7454000000000178
135,4,0.2,0.125,35.0,1,1.0,0.34999999999990905
136,4,0.2,1.0,35.0,1,1.0,0.3210990000000038
137,4,0.2,0.25,-35.0,1,0.0,0.20519999999999072
138,4,0.2,0.125,-35.0,1,0.0,1.597099999999955
139,4,0.2,0.125,35.0,1,1.0,0.3104999999999336
140,4,0.2,0.125,35.0,1,1.0,0.294399999999996
141,4,0.2,0.0,35.0,1,1.0,0.3467000000000553
142,4,0.2,0.0625,35.0,1,1.0,0.5378999999999223
143,4,0.2,0.25,35.0,1,1.0,0.5307990000000018
144,4,0.2,0.0625,35.0,1,1.0,0.20889899999997397
145,4,0.2,0.0625,35.0,1,1.0,0.16789999999991778
146,4,0.2,0.125,35.0,1,1.0,0.286899999999946
147,4,0.2,0.25,35.0,1,1.0,0.449799999999982
148,4,0.2,0.125,35.0,1,1.0,0.4115000000000464
149,4,0.2,1.0,35.0,1,1.0,0.18029999999987467
150,4,0.2,0.0625,35.0,1,1.0,0.37760000000002947
151,4,0.2,0.125,35.0,-1,0.0,0.39580000000000837
152,4,0.2,0.25,35.0,1,1.0,0.43059999999991305
153,4,0.2,0.25,35.0,1,1.0,0.18600000000003547
154,4,0.2,0.0625,35.0,1,1.0,0.47659999999996217
155,4,0.2,0.125,35.0,1,1.0,0.18360000000006949
156,4,0.2,0.0,35.0,1,1.0,0.33740000000000236
157,4,0.2,1.0,35.0,1,1.0,0.18659999999999854
158,4,0.2,1.0,35.0,1,1.0,0.5255999999999403
159,4,0.2,0.125,-35.0,-1,1.0,0.43509999999992033
160,4,0.2,0.0625,35.0,1,1.0,0.3305990000000065
161,4,0.2,0.25,35.0,1,1.0,0.7818999999999505
162,4,0.2,0.25,35.0,1,1.0,0.3280000000000882
163,4,0.2,0.125,35.0,1,1.0,0.3941989999999578
164,4,0.2,0.25,35.0,1,1.0,0.3730999999999085
165,4,0.2,0.25,35.0,1,1.0,0.5473000000000638
166,4,0.2,0.0625,35.0,1,1.0,4.214199999999892
167,4,0.2,0.0625,-35.0,1,0.0,0.32600000000002183
168,4,0.2,0.25,-35.0,1,0.0,0.4814000000000078
169,4,0.2,0.25,35.0,1,1.0,0.30979899999999816
170,4,0.2,1.0,-35.0,-1,1.0,0.3266999999999598
171,4,0.2,0.25,35.0,1,1.0,0.18729999999993652
172,4,0.2,0.25,35.0,1,1.0,0.45839999999998327
173,4,0.2,0.25,35.0,1,1.0,0.17289999999991323
174,4,0.2,1.0,-35.0,1,0.0,0.6590999999999667
175,4,0.2,1.0,35.0,1,1.0,0.34379999999998745
176,4,0.2,0.125,35.0,1,1.0,0.3415999999998576
177,4,0.2,0.0625,35.0,1,1.0,0.6171989999999141
178,4,0.2,0.125,35.0,1,1.0,0.3835000000000264
179,4,0.2,1.0,35.0,1,1.0,0.2718000000000984
180,4,0.2,0.125,35.0,1,1.0,0.13440000000002783
181,4,0.2,0.0625,35.0,1,1.0,0.2361999999999398
182,4,0.2,0.0625,-35.0,1,0.0,0.45719999999994343
183,4,0.2,0.0625,35.0,1,1.0,0.3201000000000249
184,4,0.2,1.0,35.0,1,1.0,0.23230000000000928
185,4,0.2,0.125,35.0,1,1.0,0.07600000000002183
186,4,0.2,0.0625,-35.0,1,0.0,0.21699999999998454
187,4,0.2,0.125,-35.0,1,0.0,0.21499999999991815
188,4,0.2,0.0625,35.0,1,1.0,0.268100000000004
189,4,0.2,0.25,35.0,1,1.0,0.15610000000003765
190,4,0.2,0.0625,35.0,1,1.0,0.4882999999999811
191,4,0.2,0.125,35.0,1,1.0,0.20450000000005275
192,4,0.2,0.125,35.0,1,1.0,0.2843999999998914
193,4,0.2,0.0625,35.0,1,1.0,0.7780999999999949
194,4,0.2,0.25,35.0,1,1.0,0.3010999999999058
195,4,0.2,0.0625,-35.0,-1,1.0,0.5242999999999256
196,4,0.2,0.25,-35.0,-1,1.0,0.3371999999999389
197,4,0.2,0.0625,35.0,1,1.0,0.449799999999982
198,4,0.2,0.0,35.0,1,1.0,4.413999999999874
199,4,0.2,0.0,35.0,1,1.0,0.38229999999998654
200,4,0.2,0.0625,35.0,1,1.0,0.5516999999998689
201,4,0.2,0.0,35.0,1,1.0,0.47089900000003126
202,4,0.2,0.25,-35.0,1,0.0,0.17419999999992797
203,4,0.2,0.25,35.0,1,1.0,0.3609000000000151
204,4,0.2,0.25,-35.0,-1,1.0,0.6442999999999302
205,4,0.2,0.125,35.0,1,1.0,0.2741999999999507
206,4,0.2,0.125,-35.0,-1,1.0,0.841199999999958
207,4,0.2,0.25,35.0,1,1.0,0.3627999999999929
208,4,0.2,1.0,-35.0,-1,1.0,0.5721999999999525
209,4,0.2,1.0,35.0,1,1.0,6.013300000000072
210,4,0.2,1.0,35.0,1,1.0,0.36369999999999436
211,4,0.2,0.0625,35.0,1,1.0,0.9593999999999596
212,4,0.2,0.25,-35.0,1,0.0,0.6158999999998969
213,4,0.8,0.0,-35.0,1,0.0,0.4254999999999427
214,4,0.8,0.0625,35.0,1,1.0,0.5270999999999049
215,4,0.8,0.0,-35.0,-1,1.0,0.3611000000000786
216,4,0.8,0.25,-35.0,-1,1.0,0.534099999999853
217,4,0.8,0.125,-35.0,-1,1.0,0.3264999999998963
218,4,0.8,0.0625,-35.0,-1,1.0,0.3953000000000202
219,4,0.8,0.0,-35.0,-1,1.0,0.371599999999944
220,4,0.8,0.0,35.0,-1,0.0,6.3221999999999525
221,4,0.8,1.0,35.0,1,1.0,0.25500000000010914
222,4,0.8,0.0,-35.0,-1,1.0,0.3546000000000049
223,4,0.8,0.25,-35.0,1,0.0,0.20839999999998327
224,4,0.8,0.125,-35.0,-1,1.0,3.8062999999999647
225,4,0.8,1.0,-35.0,-1,1.0,0.5278999999999314
226,4,0.8,0.125,-35.0,-1,1.0,0.4213999999999487
227,4,0.8,0.125,-35.0,-1,1.0,0.46179899999992813
228,4,0.8,0.0625,-35.0,-1,1.0,0.3828999999999496
229,4,0.8,1.0,35.0,1,1.0,0.21900000000005093
230,4,0.8,0.125,-35.0,-1,1.0,0.3830000000000382
231,4,0.8,1.0,35.0,1,1.0,0.8415999999999713
232,4,0.8,0.0625,-35.0,-1,1.0,9.416499999999928
233,4,0.8,0.125,35.0,-1,0.0,1.2580000000000382
234,4,0.8,0.125,-35.0,-1,1.0,0.8002999999999929
235,4,0.8,1.0,-35.0,-1,1.0,0.7869990000000371
236,4,0.8,0.25,-35.0,1,0.0,0.2041990000000169
237,4,0.8,0.25,-35.0,-1,1.0,7.909400000000005
238,4,0.8,1.0,-35.0,-1,1.0,0.43849999999997635
239,4,0.8,0.125,35.0,-1,0.0,0.4395999999999276
240,4,0.8,1.0,-35.0,-1,1.0,0.641399999999976
241,4,0.8,1.0,-35.0,-1,1.0,0.509499999999889
242,4,0.8,0.25,-35.0,-1,1.0,0.5537999999999101
243,4,0.8,1.0,-35.0,-1,1.0,7.53670000000011
244,4,0.8,0.0625,-35.0,-1,1.0,0.579599999999914
245,4,0.8,0.0625,-35.0,-1,1.0,0.8284989999999652
246,4,0.8,0.0625,-35.0,-1,1.0,0.5909990000000107
247,4,0.8,0.0625,-35.0,-1,1.0,0.5159990000000789
248,4,0.8,1.0,-35.0,-1,1.0,0.3650989999999865
249,4,0.8,0.25,-35.0,-1,1.0,0.6541999999999462
250,4,0.8,0.125,-35.0,-1,1.0,12.393300000000181
251,4,0.8,0.25,35.0,1,1.0,0.3875000000000455
252,4,0.8,0.125,-35.0,-1,1.0,0.4598999999998341
253,4,0.8,1.0,-35.0,-1,1.0,0.5451000000000477
254,4,0.8,0.125,-35.0,-1,1.0,0.6171999999999116
255,4,0.8,0.0625,-35.0,-1,1.0,0.47289999999998145
256,4,0.8,1.0,-35.0,-1,1.0,0.7382000000000062
257,4,0.8,0.125,-35.0,-1,1.0,0.39810000000011314
258,4,0.8,0.125,-35.0,-1,1.0,0.4229000000000269
259,4,0.8,0.0625,-35.0,-1,1.0,0.4420000000000073
260,4,0.8,1.0,-35.0,-1,1.0,0.37820000000010623
261,4,0.8,1.0,-35.0,-1,1.0,0.7169989999999871
262,4,0.8,0.0625,-35.0,1,0.0,6.848299999999881
263,4,0.8,0.25,-35.0,-1,1.0,8.81859899999995
264,4,0.8,0.0625,-35.0,-1,1.0,0.7242999999998574
265,4,0.8,0.0625,-35.0,-1,1.0,0.3993000000000393
266,4,0.8,0.25,-35.0,-1,1.0,0.5714000000000397
267,4,0.8,0.0625,-35.0,-1,1.0,0.5302990000000136
268,4,0.8,1.0,-35.0,-1,1.0,0.5891990000002352
269,4,0.8,0.25,-35.0,-1,1.0,0.9746000000000095
270,4,0.8,0.25,-35.0,-1,1.0,4.813499999999976
271,4,0.8,0.25,35.0,1,1.0,0.24759899999980917
272,4,0.8,0.25,35.0,1,1.0,0.28409899999996924
273,4,0.8,0.125,-35.0,-1,1.0,0.33600000000001273
274,4,0.8,0.125,35.0,1,1.0,0.5910999999998694
275,4,0.8,0.25,-35.0,1,0.0,0.34750000000008185
276,4,0.8,0.25,-35.0,1,0.0,4.935899999999947
277,4,0.8,0.0625,-35.0,-1,1.0,0.7500999999999749
278,4,0.8,0.0,-35.0,1,0.0,0.3289999999999509
279,4,0.8,0.0,-35.0,-1,1.0,9.008699999999862
280,4,0.8,0.0,35.0,-1,0.0,7.177500000000009
281,4,0.8,0.0625,-35.0,-1,1.0,0.6903999999997268
282,4,0.8,0.0625,-35.0,1,0.0,0.2664999999999509
283,4,0.8,0.125,-35.0,-1,1.0,11.517999999999802
284,4,0.8,0.0625,-35.0,-1,1.0,0.7537000000002081
285,4,0.8,0.125,-35.0,-1,1.0,0.6829000000002452
286,4,0.8,0.125,35.0,1,1.0,1.1341999999999643
287,4,0.8,0.0625,-35.0,-1,1.0,7.925699999999779
288,4,0.8,1.0,-35.0,-1,1.0,0.5765000000001237
289,4,0.2,0.25,35.0,1,1.0,0.5148999999998978
290,4,0.2,0.25,35.0,1,1.0,0.26660000000015316
291,4,0.2,0.0625,35.0,1,1.0,0.6332000000002154
292,4,0.2,0.25,35.0,1,1.0,0.6545000000000982
293,4,0.2,0.0,35.0,-1,0.0,7.18730000000005
294,4,0.2,1.0,35.0,1,1.0,0.3868990000000849
295,4,0.2,0.25,35.0,1,1.0,0.29939999999987776
296,4,0.2,0.25,-35.0,1,0.0,0.18830000000002656
297,4,0.2,0.25,35.0,1,1.0,0.4841989999999896
298,4,0.2,0.0625,-35.0,-1,1.0,0.5159000000001015
299,4,0.2,1.0,35.0,1,1.0,0.2580999999997857
300,4,0.2,0.0625,-35.0,-1,1.0,0.4173000000000684
301,4,0.2,0.25,35.0,1,1.0,0.21699999999987085
302,4,0.2,1.0,35.0,1,1.0,0.3748000000000502
303,4,0.2,0.0,35.0,1,1.0,0.36770000000024083
304,4,0.2,0.0625,35.0,-1,0.0,8.976300000000265
305,4,0.2,0.125,35.0,1,1.0,0.29899999999997817
306,4,0.2,0.25,35.0,1,1.0,0.6441999999999553
307,4,0.2,1.0,35.0,1,1.0,0.34930000000008476
308,4,0.2,0.0,-35.0,1,0.0,0.33589900000015405
309,4,0.2,0.0625,35.0,1,1.0,0.44049999999992906
310,4,0.2,0.25,-35.0,1,0.0,0.3967000000002372
311,4,0.2,0.25,35.0,1,1.0,0.20849999999995816
312,4,0.2,0.125,35.0,1,1.0,0.2001999999997679
313,4,0.2,0.125,35.0,1,1.0,0.18590000000017426
314,4,0.2,0.0625,-35.0,-1,1.0,9.89739899999995
315,4,0.2,0.0625,35.0,-1,0.0,0.4372000000000753
316,4,0.2,0.0625,35.0,1,1.0,2.5855999999998858
317,4,0.2,0.25,35.0,1,1.0,0.2300999999999931
318,4,0.2,0.0625,35.0,-1,0.0,0.15499999999997272
319,4,0.2,0.125,35.0,1,1.0,0.4978000000000975
320,4,0.2,0.0625,35.0,1,1.0,0.26300000000014734
321,4,0.2,0.125,35.0,1,1.0,5.578199999999924
322,4,0.2,0.125,35.0,1,1.0,0.30539999999996326
323,4,0.2,1.0,-35.0,1,0.0,0.8345999999999094
324,4,0.2,0.0,35.0,1,1.0,31.952999999999975
325,4,0.2,0.25,-35.0,-1,1.0,0.41889999999989413
326,4,0.2,0.0625,-35.0,1,0.0,11.837300000000141
327,4,0.2,0.125,-35.0,-1,1.0,0.6826009999999769
328,4,0.2,0.0625,35.0,1,1.0,1.1909009999999398
329,4,0.2,1.0,35.0,1,1.0,0.5628010000000359
330,4,0.2,0.25,35.0,1,1.0,0.5385009999997692
331,4,0.2,0.0,35.0,-1,0.0,26.711000999999897
332,4,0.2,0.0,35.0,-1,0.0,4.734901000000036
333,4,0.2,0.0625,35.0,-1,0.0,7.445701000000099
334,4,0.2,1.0,35.0,1,1.0,0.3323009999999158
335,4,0.2,0.0625,-35.0,-1,1.0,0.7513010000000122
336,4,0.2,0.25,35.0,1,1.0,0.4468010000000504
337,4,0.2,0.0625,35.0,1,1.0,2.4055009999999584
338,4,0.2,0.0625,35.0,1,1.0,0.44720099999995
339,4,0.2,0.25,35.0,1,1.0,0.5088009999999485
340,4,0.2,0.125,35.0,1,1.0,0.2113010000000486
341,4,0.2,0.125,-35.0,1,0.0,0.4103010000001177
342,4,0.2,1.0,-35.0,-1,1.0,3.159200999999939
343,4,0.2,0.125,35.0,-1,0.0,0.6270010000000639
344,4,0.2,1.0,35.0,1,1.0,0.3125009999998838
345,4,0.2,0.25,35.0,1,1.0,0.5447010000000319
346,4,0.2,0.125,35.0,1,1.0,0.40030099999989943
347,4,0.2,0.0,35.0,-1,0.0,0.8360000000000127
348,4,0.2,0.0,35.0,-1,0.0,0.8514010000001235
349,4,0.2,0.0625,35.0,1,1.0,0.7301009999998769
350,4,0.2,0.0625,35.0,1,1.0,0.5353999999999814
351,4,0.2,1.0,35.0,1,1.0,0.22800100000017665
352,4,0.2,0.0625,35.0,-1,0.0,9.133400999999822
353,4,0.2,1.0,35.0,1,1.0,1.282901000000038
354,4,0.2,0.25,35.0,1,1.0,0.7836009999998623
355,4,0.2,0.25,35.0,1,1.0,10.712700999999925
356,4,0.2,0.0625,35.0,1,1.0,0.41850099999987833
357,4,0.2,0.0625,35.0,1,1.0,0.3341000000000349
358,4,0.2,0.25,35.0,1,1.0,0.7964010000002872
359,4,0.2,1.0,35.0,1,1.0,0.6849010000000817
360,4,0.2,1.0,35.0,1,1.0,0.31670099999996637
361,4,0.8,1.0,-35.0,1,0.0,0.36920100000020284
362,4,0.8,0.125,-35.0,-1,1.0,18.14790099999982
363,4,0.8,0.0,-35.0,-1,1.0,5.008100999999897
364,4,0.8,1.0,-35.0,-1,1.0,0.4856010000000879
365,4,0.8,0.0,-35.0,-1,1.0,0.31120099999998274
366,4,0.8,1.0,-35.0,-1,1.0,0.336900999999898
367,4,0.8,0.0625,-35.0,-1,1.0,0.4914009999999962
368,4,0.8,0.125,35.0,1,1.0,0.3004000000000815
369,4,0.8,0.25,-35.0,-1,1.0,8.635101000000077
370,4,0.8,0.125,35.0,-1,0.0,0.5215009999999438
371,4,0.8,1.0,-35.0,-1,1.0,0.7304010000000289
372,4,0.8,0.0625,-35.0,1,0.0,0.2292010000001028
373,4,0.8,0.25,-35.0,-1,1.0,0.6315009999998438
374,4,0.8,0.0625,-35.0,-1,1.0,3.064000000000078
375,4,0.8,0.125,-35.0,-1,1.0,0.4454999999998108
376,4,0.8,0.25,-35.0,-1,1.0,0.5476999999998498
377,4,0.8,0.0625,-35.0,-1,1.0,0.4132000000001881
378,4,0.8,1.0,-35.0,-1,1.0,0.2822009999999864
379,4,0.8,0.125,-35.0,-1,1.0,0.6879010000000108
380,4,0.8,0.125,-35.0,-1,1.0,1.0000010000001112
381,4,0.8,0.0,35.0,-1,0.0,19.64210100000014
382,4,0.8,1.0,-35.0,-1,1.0,20.401700999999775
383,4,0.8,0.0,-35.0,-1,1.0,0.7146009999999023
384,4,0.8,0.125,-35.0,-1,1.0,0.623501000000033
385,4,0.8,0.125,-35.0,-1,1.0,0.8391010000000279
386,4,0.8,1.0,35.0,1,1.0,0.6112000000000535
387,4,0.8,0.0625,35.0,-1,0.0,4.45330100000001
388,4,0.8,0.0,35.0,-1,0.0,1.0209010000000944
389,4,0.8,0.125,-35.0,1,0.0,0.37280100000020866
390,4,0.8,0.0625,-35.0,-1,1.0,6.1817009999999755
391,4,0.8,1.0,-35.0,-1,1.0,19.53530099999989
392,4,0.8,0.25,-35.0,-1,1.0,0.6950010000000475
393,4,0.8,0.125,-35.0,-1,1.0,0.5837010000000191
394,4,0.8,0.125,-35.0,-1,1.0,3.702600000000075
395,4,0.8,0.25,-35.0,-1,1.0,0.38019999999983156
396,4,0.8,0.0625,-35.0,-1,1.0,0.7223010000000158
397,4,0.8,0.0625,-35.0,-1,1.0,3.324000999999953
398,4,0.8,0.25,-35.0,-1,1.0,0.3320009999999911
399,4,0.8,0.0625,-35.0,-1,1.0,0.3708009999998012
400,4,0.8,0.0,-35.0,-1,1.0,0.4228010000001632
401,4,0.8,1.0,-35.0,-1,1.0,0.3546010000000024
402,4,0.8,1.0,-35.0,-1,1.0,0.2533009999999649
403,4,0.8,0.0625,-35.0,-1,1.0,0.4487010000000282
404,4,0.8,0.0,-35.0,-1,1.0,0.29100100000005114
405,4,0.8,0.0625,35.0,-1,0.0,0.3466009999999642
406,4,0.8,1.0,-35.0,-1,1.0,0.40540099999998347
407,4,0.8,0.0,-35.0,1,0.0,0.9979010000001836
408,4,0.8,0.125,35.0,-1,0.0,0.3965010000001712
409,4,0.8,1.0,35.0,1,1.0,0.27530099999989943
410,4,0.8,1.0,-35.0,1,0.0,0.5177009999999882
411,4,0.8,0.0625,-35.0,1,0.0,1.903201000000081
412,4,0.8,0.0625,35.0,1,1.0,1.1950009999998201
413,4,0.8,0.0,35.0,1,1.0,0.3701009999999769
414,4,0.8,0.25,-35.0,1,0.0,0.44580100000007405
415,4,0.8,1.0,-35.0,-1,1.0,8.458000999999967
416,4,0.8,1.0,-35.0,-1,1.0,0.5111010000000533
417,4,0.8,1.0,-35.0,-1,1.0,0.41960100000005696
418,4,0.8,0.25,-35.0,-1,1.0,7.395400999999993
419,4,0.8,0.0625,-35.0,-1,1.0,0.7421010000000479
420,4,0.8,0.0625,-35.0,-1,1.0,7.997600999999804
421,4,0.8,1.0,-35.0,-1,1.0,12.10080099999982
422,4,0.8,1.0,-35.0,-1,1.0,0.8057009999997717
423,4,0.8,0.125,-35.0,-1,1.0,12.03060000000005
424,4,0.8,0.125,-35.0,0,0.0,59.95940000000019
425,4,0.8,0.125,-35.0,1,0.0,4.844101000000137
426,4,0.8,0.0625,-35.0,0,0.0,59.92580100000032
427,4,0.8,1.0,-35.0,1,0.0,56.82770100000016
428,4,0.8,0.25,-35.0,0,0.0,59.93990100000019
429,4,0.8,0.25,-35.0,-1,1.0,11.837401000000227
430,4,0.8,0.0,-35.0,-1,1.0,20.575401000000056
431,4,0.8,1.0,-35.0,-1,1.0,0.3348009999999704
1,5,0.5,1.0,-35.0,-1,1.0,0.5065000000000004
2,5,0.5,0.25,35.0,1,1.0,0.21020099999999786
3,5,0.5,0.125,35.0,1,1.0,0.23280099999999848
4,5,0.5,0.125,35.0,1,1.0,0.18760099999999724
5,5,0.5,1.0,-35.0,1,0.0,0.15460099999999954
6,5,0.5,1.0,-35.0,-1,1.0,0.26310099999999537
7,5,0.5,0.25,35.0,-1,0.0,0.20879999999999654
8,5,0.5,1.0,-35.0,-1,1.0,0.27610099999999704
9,5,0.5,1.0,-35.0,-1,1.0,0.25090099999999893
10,5,0.5,0.125,35.0,-1,0.0,0.5115010000000026
11,5,0.5,0.0625,35.0,1,1.0,0.23070099999999627
12,5,0.5,0.25,35.0,-1,0.0,0.29320099999999627
13,5,0.5,1.0,35.0,1,1.0,0.17880099999999288
14,5,0.5,0.125,35.0,-1,0.0,0.2654009999999971
15,5,0.5,1.0,-35.0,1,0.0,0.16210100000000693
16,5,0.5,0.125,35.0,1,1.0,0.34340100000000007
17,5,0.5,1.0,-35.0,1,0.0,0.1550009999999986
18,5,0.5,0.125,-35.0,-1,1.0,0.3586010000000073
19,5,0.5,0.25,-35.0,-1,1.0,0.4703009999999921
20,5,0.5,0.25,35.0,1,1.0,1.6862999999999886
21,5,0.5,0.25,-35.0,-1,1.0,2.4734009999999955
22,5,0.5,0.0625,35.0,1,1.0,0.20610099999998965
23,5,0.5,0.125,-35.0,-1,1.0,0.354101
24,5,0.5,0.0,35.0,1,1.0,0.19160099999999147
25,5,0.5,0.125,-35.0,-1,1.0,0.8098010000000073
26,5,0.5,1.0,-35.0,-1,1.0,0.27160099999998977
27,5,0.5,0.125,-35.0,-1,1.0,0.38950099999999566
28,5,0.5,0.25,-35.0,-1,1.0,0.5108000000000033
29,5,0.5,1.0,35.0,1,1.0,0.18609999999998195
30,5,0.5,0.0625,35.0,1,1.0,0.23450099999999452
31,5,0.5,0.125,-35.0,-1,1.0,0.37940100000000143
32,5,0.5,1.0,-35.0,-1,1.0,0.39020099999999047
33,5,0.5,0.0,35.0,-1,0.0,0.3219010000000253
34,5,0.5,1.0,-35.0,-1,1.0,0.2536010000000033
35,5,0.5,0.125,35.0,-1,0.0,0.39480100000000107
36,5,0.5,1.0,-35.0,-1,1.0,0.40340100000000234
37,5,0.5,0.0,-35.0,1,0.0,0.26320000000001187
38,5,0.5,0.0625,35.0,-1,0.0,0.4003009999999847
39,5,0.5,0.25,-35.0,-1,1.0,0.20519999999999072
40,5,0.5,0.125,35.0,1,1.0,0.24040099999999143
41,5,0.5,0.125,35.0,-1,0.0,0.2881010000000117
42,5,0.5,1.0,35.0,1,1.0,0.2145010000000127
43,5,0.5,0.25,35.0,1,1.0,0.2632009999999809
44,5,0.5,0.0625,35.0,1,1.0,0.8445009999999797
45,5,0.5,0.25,35.0,1,1.0,0.4404010000000085
46,5,0.5,0.25,-35.0,1,0.0,0.1613010000000088
47,5,0.5,0.0,-35.0,1,0.0,0.16190099999997187
48,5,0.5,0.125,35.0,1,1.0,0.23880099999999516
49,5,0.5,0.125,35.0,1,1.0,0.49460099999998874
50,5,0.5,0.0625,-35.0,1,0.0,0.17230100000000448
51,5,0.5,0.125,-35.0,1,0.0,0.17450099999999225
52,5,0.5,0.25,35.0,1,1.0,0.17400099999997565
53,5,0.5,0.0625,-35.0,-1,1.0,0.26850099999998633
54,5,0.5,0.0625,35.0,1,1.0,0.18910100000002217
55,5,0.5,0.25,-35.0,1,0.0,0.21500100000000089
56,5,0.5,0.125,-35.0,-1,1.0,0.3751000000000033
57,5,0.5,0.125,-35.0,1,0.0,1.6595999999999833
58,5,0.5,1.0,35.0,1,1.0,0.9306009999999958
59,5,0.5,0.0625,35.0,1,1.0,0.23990100000003167
60,5,0.5,0.125,35.0,1,1.0,0.21520100000003595
61,5,0.5,0.0625,35.0,1,1.0,0.557501000000002
62,5,0.5,0.0625,35.0,1,1.0,0.3094010000000367
63,5,0.5,0.25,-35.0,-1,1.0,0.7610010000000216
64,5,0.5,0.0,35.0,1,1.0,0.9019010000000094
65,5,0.5,0.125,-35.0,1,0.0,0.2130010000000766
66,5,0.5,0.125,-35.0,1,0.0,0.18730100000004768
67,5,0.5,1.0,-35.0,-1,1.0,0.2835010000000011
68,5,0.5,1.0,-35.0,1,0.0,0.20070100000003777
69,5,0.5,0.25,-35.0,1,0.0,0.4282010000000014
70,5,0.5,0.0,35.0,1,1.0,0.18910099999999375
71,5,0.5,0.125,35.0,1,1.0,0.15240099999999757
72,5,0.5,0.0625,-35.0,-1,1.0,0.8607010000000059
73,5,0.5,0.25,35.0,1,1.0,0.16680100000002085
74,5,0.5,1.0,35.0,1,1.0,0.4481010000000083
75,5,0.5,1.0,-35.0,1,0.0,0.21070100000002867
76,5,0.5,0.25,35.0,1,1.0,0.18900000000007822
77,5,0.5,1.0,35.0,1,1.0,0.5206000000000017
78,5,0.5,0.25,-35.0,-1,1.0,0.19610000000000127
79,5,0.5,0.25,35.0,1,1.0,0.33230100000008633
80,5,0.5,0.0,-35.0,1,0.0,0.18330100000002858
81,5,0.5,0.0,-35.0,1,0.0,0.2189010000000735
82,5,0.5,0.25,35.0,1,1.0,0.17550100000005386
83,5,0.5,1.0,35.0,1,1.0,0.17570100000000366
84,5,0.5,0.0625,-35.0,1,0.0,0.15500100000002703
85,5,0.5,0.0625,35.0,1,1.0,0.5126010000000178
86,5,0.5,1.0,35.0,1,1.0,0.3452010000000314
87,5,0.5,0.0625,35.0,1,1.0,1.1037010000000578
88,5,0.5,0.25,35.0,1,1.0,0.13530000000002929
89,5,0.5,0.0625,35.0,1,1.0,0.16510100000004968
90,5,0.5,1.0,-35.0,-1,1.0,0.3234010000000467
91,5,0.8,1.0,-35.0,-1,1.0,2.2616010000000415
92,5,0.8,0.0625,-35.0,-1,1.0,0.3148010000000454
93,5,0.8,0.0,-35.0,-1,1.0,0.3127010000000041
94,5,0.8,0.0625,-35.0,-1,1.0,0.40050100000001976
95,5,0.8,0.0625,-35.0,-1,1.0,0.2402010000000132
96,5,0.8,0.125,-35.0,-1,1.0,0.2761010000000397
97,5,0.8,0.125,-35.0,-1,1.0,0.3625010000000657
98,5,0.8,0.25,35.0,-1,0.0,0.25730100000004086
99,5,0.8,0.0625,-35.0,-1,1.0,0.22450100000008888
100,5,0.8,1.0,-35.0,-1,1.0,0.2398000000000593
101,5,0.8,0.0625,-35.0,-1,1.0,0.26150100000000975
102,5,0.8,0.125,-35.0,-1,1.0,0.28250100000002476
103,5,0.8,0.0,35.0,1,1.0,1.9933010000000309
104,5,0.8,0.125,-35.0,-1,1.0,0.27940100000006396
105,5,0.8,0.0,-35.0,1,0.0,0.2124000000000592
106,5,0.8,0.0625,-35.0,-1,1.0,0.2842010000000528
107,5,0.8,1.0,-35.0,-1,1.0,0.2650010000000407
108,5,0.8,0.125,-35.0,-1,1.0,0.2860010000000557
109,5,0.8,1.0,-35.0,-1,1.0,0.2833010000000513
110,5,0.8,0.25,35.0,1,1.0,0.3638010000000804
111,5,0.8,0.0625,-35.0,-1,1.0,1.4397010000000137
112,5,0.8,0.25,-35.0,-1,1.0,0.4873010000000022
113,5,0.8,0.0625,-35.0,-1,1.0,0.3337010000000191
114,5,0.8,0.0625,-35.0,-1,1.0,0.2150010000000293
115,5,0.8,1.0,-35.0,-1,1.0,0.3364009999999098
116,5,0.8,0.0625,-35.0,-1,1.0,0.2862999999998692
117,5,0.8,0.25,-35.0,-1,1.0,0.13239999999996144
118,5,0.8,0.125,35.0,1,1.0,0.9710009999998874
119,5,0.8,0.0625,35.0,-1,0.0,0.22710099999994782
120,5,0.8,0.0,-35.0,-1,1.0,0.36340099999995346
121,5,0.8,0.0,-35.0,-1,1.0,0.05690099999992526
122,5,0.8,1.0,35.0,1,1.0,0.28340099999991253
123,5,0.8,1.0,-35.0,1,0.0,0.1264009999999871
124,5,0.8,0.25,-35.0,-1,1.0,0.20480099999997492
125,5,0.8,1.0,-35.0,-1,1.0,0.457100999999966
126,5,0.8,0.0,-35.0,-1,1.0,0.5136009999999942
127,5,0.8,0.125,-35.0,1,0.0,5.572001
128,5,0.8,0.125,-35.0,-1,1.0,0.29450099999996837
129,5,0.8,0.0,-35.0,-1,1.0,0.2980009999999993
130,5,0.8,0.25,-35.0,-1,1.0,0.24450100000001385
131,5,0.8,0.25,-35.0,1,0.0,0.09590100000002622
132,5,0.8,0.125,35.0,1,1.0,2.0006009999999605
133,5,0.8,0.0625,35.0,1,1.0,3.4280009999999947
134,5,0.8,0.0,-35.0,1,0.0,0.290100999999936
135,5,0.8,0.25,-35.0,-1,1.0,0.5022999999999911
136,5,0.8,0.125,-35.0,1,0.0,1.5447009999999182
137,5,0.8,0.125,-35.0,-1,1.0,0.5387009999999464
138,5,0.8,0.0625,-35.0,-1,1.0,0.3627999999999929
139,5,0.8,0.25,35.0,1,1.0,0.42380100000002585
140,5,0.8,1.0,-35.0,-1,1.0,0.28930099999990944
141,5,0.8,0.0625,-35.0,1,0.0,1.8589009999999462
142,5,0.8,0.0,35.0,-1,0.0,0.43390099999999165
143,5,0.8,0.25,35.0,1,1.0,0.30510100000003604
144,5,0.8,0.25,-35.0,1,0.0,0.22980099999995218
145,5,0.8,0.25,-35.0,-1,1.0,0.6884009999998852
146,5,0.8,1.0,-35.0,1,0.0,0.9577010000000428
147,5,0.8,1.0,-35.0,-1,1.0,0.5016010000000506
148,5,0.8,0.25,35.0,1,1.0,0.20050100000003113
149,5,0.8,0.0625,-35.0,-1,1.0,0.41630099999986214
150,5,0.8,0.25,-35.0,1,0.0,0.12439999999992324
151,5,0.8,0.125,-35.0,-1,1.0,0.274400999999898
152,5,0.8,1.0,-35.0,-1,1.0,0.39589999999998327
153,5,0.8,0.0625,-35.0,-1,1.0,0.5627009999998336
154,5,0.8,0.0625,-35.0,-1,1.0,0.30950099999995473
155,5,0.8,0.0625,-35.0,-1,1.0,0.2314009999998916
156,5,0.8,1.0,-35.0,-1,1.0,0.49260100000003604
157,5,0.8,0.125,-35.0,-1,1.0,0.23460000000000036
158,5,0.8,1.0,-35.0,-1,1.0,0.1727009999999609
159,5,0.8,0.125,-35.0,-1,1.0,0.32520099999999275
160,5,0.8,0.25,-35.0,-1,1.0,0.9977000000000089
161,5,0.8,0.0625,-35.0,-1,1.0,0.37400099999990744
162,5,0.8,0.125,-35.0,-1,1.0,0.4270010000000184
163,5,0.8,1.0,-35.0,-1,1.0,0.6628009999999449
164,5,0.8,0.125,-35.0,-1,1.0,5.0246009999999615
165,5,0.8,0.0,-35.0,1,0.0,0.2984009999998989
166,5,0.8,0.0625,-35.0,-1,1.0,0.3970010000000457
167,5,0.8,0.25,35.0,-1,0.0,0.2455009999999902
168,5,0.8,0.0625,-35.0,-1,1.0,0.2640999999999849
169,5,0.8,0.25,-35.0,-1,1.0,0.05320099999994454
170,5,0.8,1.0,-35.0,-1,1.0,0.2815009999999347
171,5,0.8,0.25,-35.0,-1,1.0,0.2711010000000442
172,5,0.8,0.0,-35.0,-1,1.0,0.3147009999999
173,5,0.8,0.125,-35.0,-1,1.0,0.2719009999999571
174,5,0.8,0.25,-35.0,-1,1.0,0.24410100000000057
175,5,0.8,0.0625,-35.0,1,0.0,0.21850099999994654
176,5,0.8,0.0,-35.0,-1,1.0,0.3155010000000402
177,5,0.8,1.0,-35.0,-1,1.0,0.28770099999997
178,5,0.8,1.0,-35.0,-1,1.0,0.4331009999999651
179,5,0.8,1.0,-35.0,-1,1.0,0.5419009999999389
180,5,0.8,0.125,-35.0,-1,1.0,0.26040100000000166
181,5,0.8,0.25,-35.0,-1,1.0,0.7436000000000149
182,5,0.8,0.25,-35.0,-1,1.0,0.2654009999999971
183,5,0.8,0.0625,-35.0,-1,1.0,0.4087009999999509
184,5,0.8,0.0,-35.0,-1,1.0,0.28540000000009513
185,5,0.8,0.125,-35.0,-1,1.0,0.3954009999998789
186,5,0.8,0.0,-35.0,-1,1.0,0.10670100000004368
187,5,0.8,0.125,-35.0,-1,1.0,0.6826009999999769
188,5,0.8,0.0625,-35.0,-1,1.0,0.9000009999999747
189,5,0.8,0.125,-35.0,-1,1.0,0.27900099999999384
190,5,0.2,1.0,35.0,1,1.0,0.1910009999999147
191,5,0.2,0.0,35.0,-1,0.0,0.9454009999999471
192,5,0.2,0.0625,35.0,1,1.0,0.6682010000000673
193,5,0.2,1.0,35.0,1,1.0,0.13869999999997162
194,5,0.2,1.0,35.0,1,1.0,0.47890000000006694
195,5,0.2,1.0,35.0,1,1.0,0.2233009999999922
196,5,0.2,0.25,-35.0,1,0.0,0.6688009999999167
197,5,0.2,1.0,35.0,1,1.0,0.21390099999985068
198,5,0.2,0.0625,35.0,1,1.0,0.2601009999999633
199,5,0.2,0.0,-35.0,1,0.0,0.2859009999999671
200,5,0.2,0.0625,35.0,-1,0.0,0.1770009999999047
201,5,0.2,0.0,35.0,1,1.0,0.3250000000000455
202,5,0.2,0.125,-35.0,1,0.0,0.1630999999999858
203,5,0.2,1.0,-35.0,-1,1.0,0.47640099999989616
204,5,0.2,1.0,35.0,1,1.0,0.1958999999999378
205,5,0.2,0.25,-35.0,-1,1.0,0.305800999999974
206,5,0.2,1.0,35.0,1,1.0,0.28080099999988306
207,5,0.2,0.0625,35.0,-1,0.0,0.3177009999999427
208,5,0.2,0.0625,35.0,-1,0.0,0.1909009999999398
209,5,0.2,0.125,35.0,1,1.0,0.3204009999999471
210,5,0.2,0.25,35.0,1,1.0,0.2617010000000164
211,5,0.2,0.0,35.0,1,1.0,0.1727009999999609
212,5,0.2,0.0,35.0,1,1.0,0.5775999999999613
213,5,0.2,1.0,-35.0,-1,1.0,0.243300999999974
214,5,0.2,1.0,-35.0,-1,1.0,1.8362009999998463
215,5,0.2,0.25,35.0,1,1.0,0.3267009999999573
216,5,0.2,0.125,35.0,1,1.0,0.16960100000005696
217,5,0.2,0.0,35.0,-1,0.0,0.40810099999998783
218,5,0.2,0.0,35.0,1,1.0,0.21910099999990962
219,5,0.2,0.25,35.0,1,1.0,0.1349009999998998
220,5,0.2,0.125,35.0,1,1.0,1.3206009999998969
221,5,0.2,0.25,35.0,1,1.0,0.16610100000002603
222,5,0.2,0.25,35.0,1,1.0,0.48650100000008933
223,5,0.2,0.125,35.0,1,1.0,0.18460099999992963
224,5,0.2,0.25,35.0,1,1.0,0.15699999999992542
225,5,0.2,0.125,35.0,-1,0.0,0.017900999999937994
226,5,0.2,0.25,-35.0,1,0.0,0.21000099999992017
227,5,0.2,0.125,35.0,1,1.0,0.286000999999942
228,5,0.2,0.0,35.0,1,1.0,0.40420099999982995
229,5,0.2,0.25,35.0,1,1.0,0.3054010000000744
230,5,0.2,1.0,35.0,1,1.0,0.1508010000000013
231,5,0.2,0.25,-35.0,-1,1.0,1.3104010000001836
232,5,0.2,0.125,35.0,1,1.0,0.35149999999998727
233,5,0.2,0.0625,35.0,1,1.0,0.4073009999999613
234,5,0.2,0.125,-35.0,1,0.0,0.18910099999970953
235,5,0.2,0.125,35.0,-1,0.0,0.0880010000000766
236,5,0.2,1.0,35.0,1,1.0,0.24380100000007587
237,5,0.2,1.0,35.0,1,1.0,0.5170009999999365
238,5,0.2,0.125,-35.0,-1,1.0,0.5220010000000457
239,5,0.2,0.25,35.0,1,1.0,0.18030100000009952
240,5,0.2,1.0,35.0,1,1.0,0.6464009999999689
241,5,0.2,0.125,35.0,1,1.0,0.1868010000000595
242,5,0.2,0.0625,35.0,-1,0.0,0.30530099999987215
243,5,0.2,0.125,35.0,1,1.0,0.2310010000001057
244,5,0.2,0.0625,35.0,-1,0.0,0.23700099999996382
245,5,0.2,0.125,35.0,1,1.0,0.18600100000003295
246,5,0.2,0.0625,-35.0,-1,1.0,0.43410100000005514
247,5,0.2,0.0,-35.0,1,0.0,0.19920100000013008
