trial_num,session_num,stim_probability_left,contrast,position,response_choice,trial_correct,reaction_time
1,15,0.5,0.25,-35.0,-1,1.0,1.3277
2,15,0.5,1.0,-35.0,-1,1.0,0.21890000000000143
3,15,0.5,0.5,-35.0,-1,1.0,0.6414999999999988
4,15,0.5,0.25,35.0,-1,0.0,0.08259999999999934
5,15,0.6,0.25,35.0,1,1.0,0.3649009999999997
6,15,0.5,1.0,35.0,1,1.0,0.653300999999999
7,15,0.5,1.0,-35.0,-1,1.0,0.2675999999999945
8,15,0.5,0.25,-35.0,-1,1.0,0.40570000000000306
9,15,0.5,1.0,35.0,1,1.0,0.21470000000000056
10,15,0.5,1.0,35.0,1,1.0,0.07700000000000529
11,15,0.5,0.5,35.0,1,1.0,0.21989999999999554
12,15,0.5,1.0,35.0,1,1.0,0.30989999999999895
13,15,0.5,0.25,-35.0,1,0.0,1.9218000000000046
14,15,0.7,0.25,-35.0,-1,1.0,0.8638010000000094
15,15,0.5,1.0,-35.0,-1,1.0,0.4258999999999986
16,15,0.5,0.25,-35.0,-1,1.0,0.5819000000000045
17,15,0.5,1.0,35.0,1,1.0,0.684701000000004
18,15,0.5,0.25,35.0,-1,0.0,0.40569999999999595
19,15,0.6,0.25,35.0,-1,0.0,0.400400999999988
20,15,0.5,1.0,35.0,1,1.0,0.21630000000000393
21,15,0.5,1.0,-35.0,-1,1.0,0.28700000000000614
22,15,0.5,0.25,35.0,1,1.0,0.506299999999996
23,15,0.5,0.25,-35.0,-1,1.0,0.9762999999999948
24,15,0.5,0.25,35.0,-1,0.0,1.6130999999999887
25,15,0.3,0.25,35.0,1,1.0,0.4648999999999859
26,15,0.5,1.0,35.0,1,1.0,0.26489999999998304
27,15,0.5,1.0,-35.0,-1,1.0,0.17789999999999395
28,15,0.5,0.5,-35.0,-1,1.0,0.8793000000000006
29,15,0.5,0.25,35.0,1,1.0,0.18960000000001287
30,15,0.5,1.0,35.0,1,1.0,0.303401000000008
31,15,0.5,0.25,-35.0,1,0.0,0.17709999999999582
32,15,0.6,0.25,-35.0,1,0.0,0.2150000000000034
33,15,0.5,0.5,35.0,1,1.0,0.4130010000000368
34,15,0.5,0.25,-35.0,1,0.0,0.04780100000002108
35,15,0.5,0.25,-35.0,-1,1.0,0.6261000000000081
36,15,0.5,0.25,35.0,-1,0.0,1.6292000000000257
37,15,0.6,0.25,35.0,1,1.0,0.27009999999998513
38,15,0.5,1.0,-35.0,-1,1.0,0.7971000000000004
39,15,0.5,0.25,35.0,-1,0.0,0.2939999999999827
40,15,0.6,0.25,35.0,1,1.0,0.21820000000002437
41,15,0.5,0.5,-35.0,1,0.0,0.345799999999997
42,15,0.6,0.5,-35.0,-1,1.0,0.43620100000001116
43,15,0.5,1.0,-35.0,-1,1.0,0.41210000000000946
44,15,0.5,0.25,-35.0,-1,1.0,0.14109999999999445
45,15,0.5,1.0,35.0,-1,0.0,0.9017000000000053
46,15,0.5,0.25,-35.0,-1,1.0,0.34619999999998186
47,15,0.5,1.0,35.0,1,1.0,0.07500000000001705
48,15,0.5,1.0,-35.0,1,0.0,0.06460000000001287
49,15,0.5,0.25,35.0,1,1.0,0.21530000000001337
50,15,0.5,1.0,35.0,1,1.0,0.46560000000002333
51,15,0.5,0.25,-35.0,1,0.0,0.2553010000000029
52,15,0.5,0.25,-35.0,-1,1.0,0.7142000000000053
53,15,0.5,1.0,-35.0,-1,1.0,0.583201000000031
54,15,0.5,0.5,35.0,1,1.0,0.06759999999999877
55,15,0.5,0.25,35.0,1,1.0,0.5837999999999965
56,15,0.5,1.0,35.0,1,1.0,0.8746000000000151
57,15,0.5,1.0,-35.0,1,0.0,0.02919999999997458
58,15,0.8,1.0,35.0,1,1.0,0.12870100000003504
59,15,0.5,0.5,-35.0,1,0.0,0.22340100000002394
60,15,0.8,0.5,35.0,1,1.0,0.057999999999992724
61,15,0.5,0.5,-35.0,1,0.0,0.34469999999993206
62,15,0.5,0.25,35.0,1,1.0,0.20939999999995962
63,15,0.5,1.0,35.0,1,1.0,0.09149999999993952
64,15,0.5,0.5,-35.0,1,0.0,0.14059999999994943
65,15,1.0,0.5,35.0,1,1.0,0.2267999999999688
66,15,0.5,1.0,-35.0,1,0.0,0.22479999999995925
67,15,1.0,1.0,35.0,1,1.0,0.20209999999997308
68,15,0.5,1.0,-35.0,1,0.0,0.15389999999996462
69,15,1.0,1.0,-35.0,1,0.0,0.1926000000000272
70,15,1.0,1.0,-35.0,1,0.0,0.23169999999998936
71,15,1.0,1.0,35.0,1,1.0,0.22579999999999245
72,15,0.5,1.0,-35.0,1,0.0,0.21239999999994552
73,15,0.5,0.25,35.0,1,1.0,0.26080000000001746
74,15,0.5,0.25,-35.0,-1,1.0,0.46539999999998827
75,15,0.5,0.25,-35.0,1,0.0,0.12819999999999254
76,15,0.9,0.25,-35.0,-1,1.0,0.4700000000000273
77,15,0.5,1.0,-35.0,-1,1.0,0.3405999999999949
78,15,0.5,1.0,-35.0,-1,1.0,0.15579999999999927
79,15,0.5,1.0,-35.0,-1,1.0,0.5235999999999308
80,15,0.5,0.25,35.0,1,1.0,1.9277010000000132
81,15,0.5,0.5,-35.0,-1,1.0,0.3836000000000013
82,15,0.5,1.0,-35.0,-1,1.0,0.07310000000001082
83,15,0.5,1.0,35.0,1,1.0,0.2821999999999889
84,15,0.5,0.5,-35.0,1,0.0,0.11570099999994454
85,15,0.5,0.25,-35.0,1,0.0,0.0907999999999447
86,15,0.4,0.25,35.0,1,1.0,0.1926000000000272
87,15,0.5,0.5,35.0,1,1.0,0.19020000000000437
88,15,0.5,0.25,-35.0,-1,1.0,0.23020000000002483
89,15,0.5,1.0,35.0,1,1.0,0.21710000000001628
90,15,0.5,0.5,-35.0,1,0.0,0.40100000000001046
91,15,0.7,0.5,35.0,1,1.0,0.4980009999999879
92,15,0.5,0.5,-35.0,-1,1.0,0.2998999999999796
93,15,0.5,1.0,35.0,1,1.0,0.20170000000001664
94,15,0.5,0.5,35.0,1,1.0,0.4856999999999516
95,15,0.5,1.0,35.0,1,1.0,0.209699999999998
96,15,0.5,0.5,-35.0,1,0.0,-0.0698990000000208
97,15,0.5,0.25,35.0,1,1.0,0.2196999999999889
98,15,0.5,0.25,35.0,1,1.0,0.49729999999999563
99,15,0.5,0.25,-35.0,-1,1.0,0.0988999999999578
100,15,0.5,0.5,35.0,1,1.0,0.06889999999998508
101,15,0.5,0.25,-35.0,-1,1.0,0.7066999999999553
102,15,0.5,1.0,-35.0,1,0.0,0.08629999999999427
103,15,0.8,1.0,-35.0,1,0.0,0.20790099999999256
104,15,0.8,1.0,-35.0,-1,1.0,0.5566000000000031
105,15,0.5,1.0,35.0,1,1.0,0.21329999999994698
106,15,0.5,0.25,35.0,1,1.0,0.20780099999996082
107,15,0.5,0.5,35.0,1,1.0,0.2259000000000242
108,15,0.5,0.5,-35.0,1,0.0,0.248299999999972
109,15,0.7,0.5,35.0,1,1.0,0.25610000000000355
110,15,0.5,1.0,-35.0,-1,1.0,1.012900000000002
111,15,0.5,1.0,-35.0,1,0.0,0.24529999999998608
112,15,0.8,1.0,35.0,1,1.0,0.2640010000000075
113,15,0.5,1.0,-35.0,1,0.0,0.2924000000000433
114,15,0.5,0.25,35.0,1,1.0,0.04390000000000782
115,15,0.5,0.25,-35.0,-1,1.0,0.7107009999999718
116,15,0.5,1.0,-35.0,-1,1.0,0.2895010000000866
117,15,0.5,0.25,-35.0,1,0.0,0.22800099999994927
118,15,0.5,0.25,35.0,1,1.0,0.31349999999997635
119,15,0.5,0.25,-35.0,-1,1.0,0.7619000000000824
120,15,0.5,1.0,-35.0,-1,1.0,0.2818999999999505
121,15,0.5,1.0,-35.0,-1,1.0,0.24520099999995182
122,15,0.5,1.0,35.0,1,1.0,1.6440000000000055
123,15,0.5,0.25,35.0,1,1.0,0.18799999999998818
124,15,0.5,0.5,35.0,1,1.0,0.14409999999998035
125,15,0.5,1.0,-35.0,1,0.0,0.15809999999999036
126,15,0.6,1.0,-35.0,1,0.0,0.1292999999998301
127,15,0.7,1.0,-35.0,-1,1.0,0.4492999999999938
128,15,0.5,0.5,35.0,1,1.0,0.15409999999997126
129,15,0.5,1.0,35.0,1,1.0,0.13999999999987267
130,15,0.5,0.5,35.0,-1,0.0,0.10109999999997399
131,15,0.5,0.25,-35.0,-1,1.0,0.5965009999999893
132,15,0.5,0.5,35.0,1,1.0,0.16610000000002856
133,15,0.5,0.25,35.0,1,1.0,0.5647010000000137
134,15,0.5,0.5,35.0,1,1.0,0.5004010000000108
135,15,0.5,0.25,-35.0,1,0.0,0.09199999999998454
136,15,0.5,0.25,35.0,-1,0.0,0.09929999999997108
137,15,0.6,0.25,-35.0,-1,1.0,0.4682000000000244
138,15,0.5,0.5,-35.0,-1,1.0,0.776100999999926
139,15,0.5,0.25,35.0,1,1.0,0.2200999999998885
140,15,0.5,0.25,-35.0,1,0.0,0.1510999999999285
141,15,0.6,0.25,-35.0,1,0.0,0.24940000000003693
142,15,0.5,0.5,-35.0,1,0.0,2.9254000000000815
143,15,0.7,0.5,-35.0,-1,1.0,0.37180000000000746
144,15,0.5,1.0,35.0,1,1.0,0.6605999999999312
145,15,0.5,0.5,-35.0,-1,1.0,0.40440000000000964
146,15,0.5,1.0,35.0,1,1.0,0.5833010000000058
147,15,0.5,1.0,35.0,-1,0.0,0.06779999999992015
148,15,0.5,0.25,35.0,-1,0.0,0.495900000000006
149,15,0.6,0.25,-35.0,-1,1.0,0.34960100000000693
150,15,0.5,0.5,35.0,1,1.0,0.4297000000000253
151,15,0.5,0.5,35.0,1,1.0,0.313199999999938
152,15,0.5,0.25,35.0,1,1.0,0.7849009999999907
153,15,0.5,1.0,-35.0,1,0.0,0.16399999999998727
154,15,0.6,1.0,-35.0,-1,1.0,0.4008999999999787
155,15,0.5,1.0,35.0,1,1.0,0.83299999999997
156,15,0.5,1.0,35.0,1,1.0,0.22070000000007894
157,15,0.5,0.25,-35.0,-1,1.0,0.28319999999996526
158,15,0.5,0.25,35.0,1,1.0,0.14130099999999857
159,15,0.5,0.25,35.0,1,1.0,0.5363009999999804
160,15,0.5,0.5,35.0,1,1.0,0.23530000000005202
161,15,0.5,0.25,-35.0,-1,1.0,1.6168999999998732
162,15,0.5,0.25,35.0,1,1.0,0.30529999999998836
163,15,0.5,0.5,35.0,1,1.0,0.32179999999993925
164,15,0.5,1.0,35.0,1,1.0,0.17879999999991014
165,15,0.5,0.5,35.0,1,1.0,0.18860000000006494
166,15,0.5,0.5,35.0,1,1.0,0.12029999999992924
167,15,0.5,1.0,-35.0,1,0.0,0.5123999999999569
168,15,0.9,1.0,-35.0,-1,1.0,0.4028999999999314
169,15,0.5,1.0,35.0,1,1.0,0.4352000000000089
170,15,0.5,1.0,35.0,1,1.0,0.21939999999995052
171,15,0.5,1.0,-35.0,-1,1.0,0.5052010000000564
172,15,0.5,0.25,35.0,1,1.0,0.22939999999994143
173,15,0.5,0.5,35.0,1,1.0,0.7227000000000317
174,15,0.5,0.25,-35.0,-1,1.0,0.63900000000001
175,15,0.5,1.0,-35.0,-1,1.0,0.4154009999999744
176,15,0.5,0.5,-35.0,-1,1.0,0.4265010000000302
177,15,0.5,0.25,35.0,1,1.0,0.16550099999994927
178,15,0.5,1.0,-35.0,1,0.0,0.11239999999997963
179,15,0.6,1.0,-35.0,-1,1.0,0.6778999999999087
180,15,0.5,1.0,35.0,-1,0.0,-0.043199000000072374
181,15,0.4,1.0,35.0,1,1.0,0.027500000000031832
182,15,0.5,1.0,-35.0,-1,1.0,0.39650000000006
183,15,0.5,0.25,-35.0,-1,1.0,0.46039999999993597
184,15,0.5,1.0,-35.0,-1,1.0,0.3047000000000253
185,15,0.5,0.25,-35.0,-1,1.0,0.19649999999990087
186,15,0.5,0.25,-35.0,-1,1.0,0.1937000000000353
187,15,0.5,0.25,35.0,1,1.0,0.280399999999986
188,15,0.5,1.0,35.0,1,1.0,0.40229999999996835
189,15,0.5,1.0,-35.0,-1,1.0,0.3342000000000098
190,15,0.5,0.5,-35.0,-1,1.0,0.3429999999999609
191,15,0.5,0.25,-35.0,-1,1.0,0.28569999999990614
192,15,0.5,0.25,35.0,-1,0.0,0.7319999999999709
193,15,0.2,0.25,-35.0,-1,1.0,0.4251010000000406
194,15,0.5,1.0,-35.0,-1,1.0,0.5018999999999778
195,15,0.5,0.5,35.0,-1,0.0,0.43430000000000746
196,15,0.5,0.25,35.0,1,1.0,0.29369999999994434
197,15,0.5,0.25,35.0,1,1.0,0.23169999999993252
198,15,0.5,0.5,-35.0,-1,1.0,0.1573999999999387
199,15,0.5,1.0,35.0,-1,0.0,0.06779999999992015
200,15,0.2,1.0,35.0,1,1.0,0.29759999999998854
201,15,0.5,0.5,35.0,-1,0.0,0.09859999999991942
202,15,0.5,0.25,35.0,1,1.0,0.3177009999999427
203,15,0.5,0.5,35.0,1,1.0,0.6807000000000016
204,15,0.5,0.25,-35.0,-1,1.0,0.2537999999999556
205,15,0.5,0.25,-35.0,-1,1.0,0.6650009999999611
206,15,0.5,1.0,35.0,1,1.0,0.28910000000007585
207,15,0.5,1.0,-35.0,1,0.0,0.5308999999999742
208,15,0.5,1.0,-35.0,-1,1.0,0.3158000000000811
209,15,0.5,1.0,-35.0,-1,1.0,0.9413009999999531
210,15,0.5,0.5,-35.0,-1,1.0,0.33589999999992415
211,15,0.5,0.25,-35.0,-1,1.0,0.031200000000126238
212,15,0.5,0.5,-35.0,-1,1.0,0.16909999999995762
213,15,0.5,1.0,-35.0,-1,1.0,0.14400000000000546
214,15,0.5,0.5,-35.0,-1,1.0,0.36369999999999436
215,15,0.5,0.5,35.0,1,1.0,0.2258000000000493
216,15,0.5,0.25,35.0,1,1.0,0.30930000000000746
217,15,0.5,0.25,-35.0,-1,1.0,1.6475000000000364
218,15,0.5,0.5,-35.0,1,0.0,0.20030099999996764
219,15,0.3,0.5,35.0,1,1.0,0.198900999999978
220,15,0.5,1.0,35.0,1,1.0,0.1169999999999618
221,15,0.5,1.0,35.0,1,1.0,0.5087999999999511
222,15,0.5,0.5,35.0,1,1.0,0.2237999999999829
223,15,0.5,0.25,35.0,1,1.0,0.25720000000001164
224,15,0.5,0.5,35.0,1,1.0,0.22210099999995236
225,15,0.5,1.0,-35.0,-1,1.0,0.14629999999999654
226,15,0.5,0.5,35.0,1,1.0,0.38940100000002076
227,15,0.5,0.25,35.0,1,1.0,0.207100999999966
228,15,0.5,0.5,-35.0,-1,1.0,0.3309000000000424
229,15,0.5,0.5,-35.0,1,0.0,0.08620000000007622
230,15,0.8,0.5,35.0,1,1.0,0.23990099999991799
231,15,0.5,1.0,-35.0,1,0.0,0.17099999999993543
232,15,0.8,1.0,-35.0,-1,1.0,1.0679999999999836
233,15,0.5,0.5,35.0,1,1.0,0.8443010000000868
234,15,0.5,0.5,35.0,-1,0.0,0.1410999999999376
235,15,0.6,0.5,-35.0,1,0.0,0.2777999999999565
236,15,0.7,0.5,35.0,1,1.0,0.27800000000002
237,15,0.5,0.5,35.0,-1,0.0,0.1346000000000913
238,15,0.5,0.25,-35.0,-1,1.0,0.1911000000002332
239,15,0.5,1.0,35.0,1,1.0,0.17800099999999475
240,15,0.5,0.5,35.0,1,1.0,0.538101000000097
241,15,0.5,0.25,-35.0,-1,1.0,0.901299999999992
242,15,0.5,0.25,-35.0,-1,1.0,1.2113999999999123
243,15,0.5,0.25,35.0,1,1.0,0.6782000000000608
244,15,0.5,0.5,35.0,1,1.0,0.4882000000000062
245,15,0.5,0.25,35.0,1,1.0,0.3849999999999909
246,15,0.5,0.25,-35.0,-1,1.0,0.2817999999999756
247,15,0.5,1.0,35.0,1,1.0,0.525000000000091
248,15,0.5,0.25,35.0,1,1.0,0.31510100000014063
249,15,0.5,0.5,35.0,1,1.0,0.22849999999993997
250,15,0.5,0.5,-35.0,1,0.0,0.3687999999999647
251,15,0.7,0.5,-35.0,-1,1.0,0.5821000000000822
252,15,0.5,1.0,-35.0,1,0.0,1.4621000000001914
253,15,0.5,0.25,-35.0,-1,1.0,0.4492000000002463
254,15,0.5,0.25,-35.0,1,0.0,0.11920000000009168
255,15,0.7,0.25,35.0,1,1.0,0.23910099999989143
256,15,0.5,0.5,-35.0,1,0.0,0.18570100000010825
257,15,0.5,0.25,35.0,-1,0.0,0.5091009999998732
258,15,0.7,0.25,-35.0,-1,1.0,0.33560000000011314
259,15,0.5,0.5,-35.0,-1,1.0,0.6656010000001515
260,15,0.5,0.25,-35.0,-1,1.0,1.0023000000001048
261,15,0.5,1.0,-35.0,1,0.0,0.10920100000021193
262,15,0.5,0.25,35.0,1,1.0,0.34910000000013497
263,15,0.5,0.5,-35.0,-1,1.0,0.32590000000004693
264,15,0.5,0.25,35.0,1,1.0,0.19620100000020102
265,15,0.5,1.0,-35.0,-1,1.0,0.7361000000000786
266,15,0.5,0.25,35.0,1,1.0,0.25260000000002947
267,15,0.5,1.0,35.0,1,1.0,0.29950000000008004
268,15,0.5,0.5,-35.0,-1,1.0,0.6496000000001914
269,15,0.5,1.0,35.0,1,1.0,0.19950000000017099
270,15,0.5,1.0,-35.0,1,0.0,0.42640099999994163
271,15,0.5,0.25,-35.0,1,0.0,0.1932010000000446
272,15,0.7,0.25,-35.0,-1,1.0,0.0864000000001397
273,15,0.5,1.0,35.0,1,1.0,0.026400000000194268
274,15,0.5,1.0,35.0,1,1.0,0.15630000000010114
275,15,0.5,0.25,-35.0,1,0.0,0.41990000000009786
276,15,0.8,0.25,-35.0,-1,1.0,0.33340000000021064
277,15,0.5,0.5,35.0,1,1.0,0.12660100000016428
278,15,0.5,0.5,-35.0,1,0.0,0.19340100000022176
279,15,0.8,0.5,-35.0,-1,1.0,0.6601000000002841
280,15,0.5,0.5,-35.0,1,0.0,0.19659999999998945
281,15,0.5,0.25,-35.0,-1,1.0,1.1603010000001177
282,15,0.5,1.0,-35.0,1,0.0,0.15350000000012187
283,15,0.7,1.0,-35.0,-1,1.0,0.750400000000127
284,15,0.5,1.0,35.0,1,1.0,0.26350000000002183
285,15,0.5,0.5,35.0,1,1.0,0.2670010000001639
286,15,0.5,1.0,-35.0,-1,1.0,0.6471000000001368
287,15,0.5,0.25,-35.0,1,0.0,0.15049999999996544
288,15,0.5,0.25,35.0,1,1.0,0.253800000000183
289,15,0.5,0.5,-35.0,-1,1.0,0.31750000000010914
290,15,0.5,1.0,35.0,1,1.0,0.6206999999999425
291,15,0.5,0.25,35.0,1,1.0,0.2138999999999669
292,15,0.5,1.0,35.0,1,1.0,0.17439999999987776
293,15,0.5,0.25,35.0,1,1.0,0.37740000000007967
294,15,0.5,1.0,-35.0,1,0.0,0.3242000000000189
295,15,0.8,1.0,-35.0,-1,1.0,0.6943999999998596
296,15,0.5,0.5,-35.0,-1,1.0,0.5108000000002448
297,15,0.5,0.25,-35.0,-1,1.0,2.1644000000001142
298,15,0.5,1.0,35.0,1,1.0,0.2644000000000233
299,15,0.5,0.5,-35.0,-1,1.0,0.2944999999999709
300,15,0.5,0.25,-35.0,-1,1.0,0.48460000000000036
301,15,0.5,1.0,-35.0,-1,1.0,0.41790000000014516
302,15,0.5,0.5,-35.0,-1,1.0,0.6014010000001235
303,15,0.5,1.0,-35.0,-1,1.0,0.38160000000016225
304,15,0.5,0.5,35.0,1,1.0,1.3681000000001404
305,15,0.5,0.5,-35.0,-1,1.0,0.41160000000013497
306,15,0.5,0.5,35.0,1,1.0,0.25490000000013424
307,15,0.5,1.0,35.0,1,1.0,1.66150000000016
308,15,0.5,0.5,-35.0,-1,1.0,1.3615010000000893
309,15,0.5,1.0,35.0,1,1.0,0.2417000000000371
310,15,0.5,0.5,35.0,1,1.0,0.2516000000002805
311,15,0.5,1.0,-35.0,-1,1.0,0.6917000000000826
312,15,0.5,0.5,-35.0,1,0.0,0.1750000000001819
313,15,0.6,0.5,35.0,-1,0.0,0.49850000000014916
314,15,0.6,0.5,35.0,1,1.0,0.1853000000000975
315,15,0.5,0.5,-35.0,-1,1.0,0.5885000000002947
316,15,0.5,0.5,35.0,1,1.0,0.16550000000006548
317,15,0.5,0.5,35.0,1,1.0,0.5556000000001404
318,15,0.5,1.0,35.0,1,1.0,0.20560100000011516
319,15,0.5,0.25,-35.0,1,0.0,0.26860000000010587
320,15,0.5,0.25,-35.0,-1,1.0,0.3987000000001899
321,15,0.5,0.5,35.0,1,1.0,0.18900000000007822
322,15,0.5,1.0,35.0,1,1.0,1.1222000000000207
323,15,0.5,0.5,35.0,1,1.0,0.05890000000022155
324,15,0.5,1.0,-35.0,-1,1.0,0.3691000000001168
325,15,0.5,0.5,-35.0,-1,1.0,0.5023000000001048
326,15,0.5,0.5,35.0,-1,0.0,0.15570000000002437
327,15,0.6,0.5,-35.0,-1,1.0,0.6424999999999272
328,15,0.5,0.5,35.0,1,1.0,0.11910000000011678
329,15,0.5,1.0,35.0,1,1.0,0.4027000000003227
330,15,0.5,0.25,35.0,1,1.0,0.3692000000000917
331,15,0.5,1.0,35.0,1,1.0,0.1493000000000393
332,15,0.5,0.5,35.0,1,1.0,0.1494000000000142
333,15,0.5,0.25,-35.0,1,0.0,0.8161000000000058
334,15,0.6,0.25,35.0,1,1.0,0.2096000000001368
335,15,0.5,1.0,-35.0,-1,1.0,0.7197000000001026
336,15,0.5,1.0,-35.0,-1,1.0,1.259800000000041
337,15,0.5,0.25,-35.0,-1,1.0,0.7297000000003209
338,15,0.5,0.25,-35.0,1,0.0,0.9362999999998465
339,15,0.5,0.25,35.0,1,1.0,0.25309999999990396
340,15,0.5,1.0,35.0,1,1.0,0.1796999999999116
341,15,0.5,0.25,35.0,1,1.0,1.0799010000000635
342,15,0.5,1.0,-35.0,-1,1.0,1.0732000000000426
343,15,0.5,1.0,-35.0,-1,1.0,0.7198000000000775
344,15,0.5,0.5,-35.0,-1,1.0,0.7597000000000662
345,15,0.5,0.25,-35.0,-1,1.0,1.156700000000228
346,15,0.5,0.25,35.0,1,1.0,0.30310000000008586
347,15,0.5,0.5,35.0,1,1.0,0.2599000000002434
348,15,0.5,0.5,35.0,1,1.0,0.15020000000026812
349,15,0.5,0.5,-35.0,1,0.0,0.20010100000013153
350,15,0.5,0.25,-35.0,-1,1.0,1.4301000000000386
351,15,0.5,0.5,-35.0,1,0.0,0.01020099999982449
352,15,0.5,0.5,35.0,1,1.0,0.2902000000001408
353,15,0.5,1.0,-35.0,-1,1.0,0.2639010000000326
354,15,0.5,0.25,35.0,-1,0.0,0.5269009999999525
355,15,0.6,0.25,35.0,-1,0.0,0.4239000000000033
356,15,0.5,0.5,-35.0,-1,1.0,0.43390000000022155
357,15,0.5,0.5,35.0,1,1.0,0.21380100000010316
358,15,0.5,1.0,-35.0,-1,1.0,0.24030000000016116
359,15,0.5,0.5,-35.0,-1,1.0,0.34380000000010114
360,15,0.5,1.0,35.0,1,1.0,0.23380100000008497
361,15,0.5,0.5,35.0,1,1.0,0.8339000000003125
362,15,0.5,0.25,-35.0,1,0.0,0.030900000000201544
363,15,0.4,0.25,-35.0,-1,1.0,0.2538999999999305
364,15,0.5,0.5,35.0,1,1.0,0.19100000000003092
365,15,0.5,1.0,35.0,1,1.0,0.26089999999999236
366,15,0.5,0.5,-35.0,-1,1.0,1.2810010000000602
367,15,0.5,0.5,35.0,1,1.0,0.20420000000012806
368,15,0.5,1.0,-35.0,-1,1.0,0.7010000000000218
369,15,0.5,0.5,35.0,1,1.0,0.37760000000002947
370,15,0.5,0.25,35.0,-1,0.0,0.057999999999992724
371,15,0.6,0.25,-35.0,-1,1.0,0.33110000000010587
372,15,0.5,0.5,35.0,1,1.0,0.5279000000000451
373,15,0.5,1.0,35.0,1,1.0,0.17800000000011096
374,15,0.5,1.0,35.0,1,1.0,0.1811000000002423
375,15,0.5,1.0,35.0,1,1.0,0.3080000000002201
376,15,0.5,0.25,35.0,1,1.0,1.2480010000001585
377,15,0.5,1.0,35.0,1,1.0,0.6513999999999669
378,15,0.5,0.5,-35.0,-1,1.0,0.11500000000023647
379,15,0.5,1.0,-35.0,-1,1.0,0.6946000000000367
380,15,0.5,0.25,35.0,-1,0.0,2.105000000000018
381,15,0.5,0.25,-35.0,-1,1.0,0.8615000000002055
382,15,0.5,0.5,-35.0,-1,1.0,0.5214009999999689
383,15,0.5,1.0,35.0,1,1.0,0.4915000000000873
384,15,0.5,1.0,-35.0,-1,1.0,0.25830000000019027
385,15,0.5,0.25,35.0,1,1.0,0.5551000000000386
386,15,0.5,1.0,-35.0,-1,1.0,0.8584000000000742
387,15,0.5,0.5,-35.0,-1,1.0,1.2752000000000407
388,15,0.5,0.5,35.0,1,1.0,0.23520000000007713
389,15,0.5,0.5,-35.0,-1,1.0,0.502100000000155
390,15,0.5,0.5,35.0,1,1.0,0.2352000000003045
391,15,0.5,0.25,35.0,1,1.0,2.3117999999999483
392,15,0.5,0.5,35.0,-1,0.0,1.092100999999957
393,15,0.5,0.5,35.0,1,1.0,0.3953000000001339
394,15,0.5,0.5,-35.0,-1,1.0,0.302000000000362
395,15,0.5,0.25,35.0,1,1.0,0.41219999999998436
396,15,0.5,1.0,35.0,1,1.0,0.28539999999998145
397,15,0.5,1.0,-35.0,-1,1.0,0.31560000000013133
398,15,0.5,1.0,-35.0,-1,1.0,1.0489000000002306
399,15,0.5,0.25,35.0,1,1.0,1.585700000000088
400,15,0.5,1.0,35.0,1,1.0,0.18900000000007822
401,15,0.5,1.0,-35.0,-1,1.0,0.5625
402,15,0.5,0.25,35.0,1,1.0,0.2556000000001859
403,15,0.5,0.25,35.0,1,1.0,0.3357009999999718
404,15,0.5,0.5,-35.0,-1,1.0,0.9024999999999181
405,15,0.5,0.25,-35.0,-1,1.0,0.26919999999995525
406,15,0.5,0.5,35.0,1,1.0,0.28920000000016444
407,15,0.5,0.25,35.0,1,1.0,3.6359999999999673
408,15,0.5,0.5,35.0,1,1.0,0.2960000000002765
409,15,0.5,0.5,35.0,1,1.0,0.3293010000002141
410,15,0.5,0.5,-35.0,-1,1.0,3.302800000000161
411,15,0.5,0.25,-35.0,1,0.0,-0.007100000000036744
412,15,0.7,0.25,-35.0,-1,1.0,1.956300000000283
413,15,0.5,1.0,-35.0,-1,1.0,0.339701000000332
414,15,0.5,1.0,35.0,1,1.0,0.4031000000002223
415,15,0.5,0.25,-35.0,-1,1.0,0.4530000000002019
416,15,0.5,1.0,-35.0,-1,1.0,0.566300000000183
417,15,0.5,0.25,35.0,-1,0.0,0.17980000000011387
418,15,0.4,0.25,-35.0,-1,1.0,0.7297000000000935
419,15,0.5,0.5,35.0,1,1.0,0.18970100000001366
420,15,0.5,0.5,-35.0,-1,1.0,1.3898000000001502
421,15,0.5,1.0,35.0,1,1.0,0.3300000000001546
422,15,0.5,0.5,-35.0,-1,1.0,0.25020000000017717
423,15,0.5,1.0,-35.0,-1,1.0,0.35340100000007624
424,15,0.5,1.0,35.0,1,1.0,0.5402999999998883
425,15,0.5,0.5,-35.0,-1,1.0,0.4534000000001015
426,15,0.5,1.0,35.0,1,1.0,0.17030099999988124
427,15,0.5,0.25,-35.0,-1,1.0,0.24680000000012114
428,15,0.5,0.25,35.0,-1,0.0,0.7367999999999029
429,15,0.5,0.25,-35.0,-1,1.0,0.24040100000024722
430,15,0.5,1.0,35.0,1,1.0,0.3004000000000815
431,15,0.5,0.5,35.0,1,1.0,0.3074010000000271
432,15,0.5,1.0,35.0,1,1.0,0.33370000000013533
433,15,0.5,0.5,35.0,1,1.0,0.3605000000000018
434,15,0.5,1.0,35.0,1,1.0,0.19389999999998508
435,15,0.5,0.5,35.0,1,1.0,0.32750000000010004
436,15,0.5,0.5,35.0,1,1.0,0.25050000000010186
437,15,0.5,0.5,-35.0,-1,1.0,0.6141009999998914
438,15,0.5,0.5,-35.0,-1,1.0,0.4873999999999796
439,15,0.5,0.5,-35.0,-1,1.0,0.4908010000001468
440,15,0.5,1.0,35.0,1,1.0,0.20750100000032035
441,15,0.5,0.5,35.0,1,1.0,0.32080100000007405
442,15,0.5,0.25,35.0,1,1.0,0.6075000000003001
443,15,0.5,0.5,35.0,1,1.0,0.3109010000002854
444,15,0.5,1.0,-35.0,-1,1.0,1.5045000000000073
445,15,0.5,0.5,35.0,1,1.0,0.5445000000001983
446,15,0.5,0.5,-35.0,-1,1.0,4.9809999999999945
447,15,0.5,1.0,-35.0,-1,1.0,0.47450000000003456
448,15,0.5,0.5,-35.0,-1,1.0,0.8745010000002367
449,15,0.5,1.0,35.0,1,1.0,0.2213010000000395
450,15,0.5,1.0,35.0,1,1.0,0.4580000000000837
451,15,0.5,0.5,35.0,1,1.0,0.33799999999996544
452,15,0.5,0.25,35.0,1,1.0,0.3614000000000033
453,15,0.5,0.25,35.0,1,1.0,0.4048000000002503
454,15,0.5,1.0,35.0,1,1.0,0.4547000000002299
455,15,0.5,1.0,35.0,1,1.0,0.25820000000021537
456,15,0.5,0.25,35.0,1,1.0,0.18980000000010477
457,15,0.5,0.25,35.0,1,1.0,0.47820000000024265
458,15,0.5,0.5,-35.0,-1,1.0,0.5449000000000979
459,15,0.5,0.5,35.0,1,1.0,0.22159999999985303
460,15,0.5,0.5,-35.0,-1,1.0,3.2364000000000033
461,15,0.5,1.0,-35.0,-1,1.0,0.7717000000002372
462,15,0.5,1.0,-35.0,-1,1.0,12.071699999999964
463,15,0.5,1.0,-35.0,-1,1.0,5.805300000000216
464,15,0.5,0.25,35.0,1,1.0,0.2686999999998534
465,15,0.5,0.5,-35.0,-1,1.0,0.4288000000001375
466,15,0.5,0.5,-35.0,-1,1.0,11.892200000000003
467,15,0.5,0.5,-35.0,-1,1.0,6.789000000000215
468,15,0.5,0.5,35.0,1,1.0,0.22900000000004184
469,15,0.5,1.0,35.0,1,1.0,0.40570099999990816
470,15,0.5,1.0,35.0,1,1.0,0.49240099999997256
471,15,0.5,0.5,-35.0,-1,1.0,5.435800000000199
472,15,0.5,0.5,-35.0,-1,1.0,7.5159000000001015
473,15,0.5,1.0,-35.0,-1,1.0,0.46270000000004075
474,15,0.5,0.5,35.0,1,1.0,0.2861000000000331
475,15,0.5,1.0,35.0,1,1.0,1.5462000000002263
476,15,0.5,1.0,35.0,1,1.0,1.032799999999952
477,15,0.5,0.5,-35.0,1,0.0,0.24950100000023667
478,15,0.7,0.5,-35.0,-1,1.0,8.463000000000193
479,15,0.5,0.5,35.0,1,1.0,0.4030999999999949
480,15,0.5,0.5,35.0,-1,0.0,8.979800000000068
481,15,0.5,0.5,35.0,1,1.0,1.136600000000044
482,15,0.5,1.0,35.0,1,1.0,0.297800000000052
483,15,0.5,0.25,-35.0,-1,1.0,6.966599999999971
484,15,0.5,0.25,35.0,1,1.0,0.6468000000002121
485,15,0.5,0.5,-35.0,-1,1.0,5.810100000000148
486,15,0.5,0.5,35.0,1,1.0,0.4236000000000786
487,15,0.5,0.5,-35.0,-1,1.0,3.506900000000087
488,15,0.5,0.25,35.0,1,1.0,0.6737010000001646
489,15,0.5,0.5,-35.0,-1,1.0,0.31379999999990105
490,15,0.5,1.0,35.0,1,1.0,0.25860000000011496
491,15,0.5,1.0,35.0,1,1.0,0.44709999999986394
492,15,0.5,0.25,35.0,-1,0.0,4.387199999999893
493,15,0.5,0.25,35.0,-1,0.0,3.5539000000001124
494,15,0.5,0.25,35.0,-1,0.0,2.874001000000135
495,15,0.5,1.0,-35.0,-1,1.0,0.7974010000002636
496,15,0.5,0.25,35.0,-1,0.0,5.514200000000301
497,15,0.5,0.25,35.0,-1,0.0,6.877600999999686
498,15,0.3,0.25,35.0,1,1.0,8.875899999999547
499,15,0.5,1.0,35.0,1,1.0,0.4978009999999813
500,15,0.5,0.25,-35.0,-1,1.0,0.4579009999997652
501,15,0.5,1.0,-35.0,-1,1.0,0.38799999999991996
502,15,0.5,0.25,35.0,1,1.0,1.3130999999998494
503,15,0.5,0.25,-35.0,-1,1.0,14.197999999999865
504,15,0.5,0.25,-35.0,-1,1.0,1.3182999999999083
505,15,0.5,0.25,35.0,1,1.0,0.4181999999996151
506,15,0.5,0.25,35.0,1,1.0,0.31490100000019083
507,15,0.5,0.25,-35.0,-1,1.0,10.461699999999837
508,15,0.5,0.25,-35.0,-1,1.0,1.455199999999877
509,15,0.5,0.25,-35.0,-1,1.0,16.77529999999979
510,15,0.5,1.0,35.0,1,1.0,0.4987999999998465
511,15,0.5,1.0,-35.0,-1,1.0,0.4088000000001557
512,15,0.5,0.5,-35.0,1,0.0,0.4222999999997228
513,15,0.5,0.25,35.0,1,1.0,0.4788999999996122
514,15,0.5,0.25,-35.0,-1,1.0,23.78569999999945
515,15,0.5,0.25,-35.0,-1,1.0,6.339300999999978
1,16,0.5,0.25,-35.0,-1,1.0,1.1121
2,16,0.5,0.5,-35.0,1,0.0,1.7999999999999972
3,16,0.5,0.25,35.0,1,1.0,0.34960099999999983
4,16,0.5,0.25,35.0,1,1.0,0.19200099999999765
5,16,0.5,0.5,-35.0,-1,1.0,0.520700999999999
6,16,0.5,0.5,-35.0,-1,1.0,0.9984999999999999
7,16,0.5,1.0,-35.0,-1,1.0,2.396000000000001
8,16,0.5,1.0,35.0,-1,0.0,0.5450000000000017
9,16,0.5,0.25,35.0,1,1.0,0.3569000000000031
10,16,0.5,1.0,-35.0,-1,1.0,0.3729010000000059
11,16,0.5,0.25,-35.0,-1,1.0,0.45930000000000604
12,16,0.5,1.0,35.0,-1,0.0,1.4126010000000022
13,16,0.3,1.0,-35.0,-1,1.0,0.36489999999999867
14,16,0.5,1.0,35.0,1,1.0,0.26899999999999835
15,16,0.5,1.0,35.0,1,1.0,0.8970000000000056
16,16,0.5,0.25,-35.0,-1,1.0,3.3717010000000016
17,16,0.5,1.0,35.0,1,1.0,0.1642009999999985
18,16,0.5,0.25,-35.0,-1,1.0,0.25609999999998934
19,16,0.5,1.0,-35.0,-1,1.0,0.5427010000000081
20,16,0.5,0.25,-35.0,-1,1.0,0.3141999999999996
21,16,0.5,0.25,-35.0,-1,1.0,0.10969999999998947
22,16,0.5,1.0,-35.0,1,0.0,0.18999999999999773
23,16,0.4,1.0,35.0,1,1.0,0.1957000000000022
24,16,0.5,0.5,-35.0,-1,1.0,1.9507000000000119
25,16,0.5,1.0,-35.0,1,0.0,0.16049999999999898
26,16,0.4,1.0,35.0,1,1.0,0.1500999999999948
27,16,0.5,0.5,35.0,1,1.0,0.248800000000017
28,16,0.5,1.0,-35.0,-1,1.0,3.2503010000000074
29,16,0.5,1.0,35.0,1,1.0,0.04619999999999891
30,16,0.5,0.5,-35.0,1,0.0,0.11560000000000059
31,16,0.7,0.5,-35.0,-1,1.0,0.1460000000000008
32,16,0.5,0.5,35.0,1,1.0,0.11700000000000443
33,16,0.5,0.25,35.0,1,1.0,0.47169999999999845
34,16,0.5,0.5,35.0,1,1.0,0.8876999999999953
35,16,0.5,0.25,35.0,1,1.0,0.38690000000002556
36,16,0.5,1.0,-35.0,-1,1.0,0.613599999999991
37,16,0.5,1.0,-35.0,-1,1.0,1.1948010000000124
38,16,0.5,0.5,35.0,1,1.0,0.16540000000000532
39,16,0.5,1.0,35.0,1,1.0,0.20010000000002037
40,16,0.5,0.25,35.0,1,1.0,0.1297999999999888
41,16,0.5,0.25,35.0,1,1.0,1.1473000000000297
42,16,0.5,0.25,-35.0,-1,1.0,2.7993009999999856
43,16,0.5,0.25,-35.0,1,0.0,0.183400000000006
44,16,0.7,0.25,35.0,1,1.0,0.15040000000001896
45,16,0.5,0.5,-35.0,-1,1.0,0.5899009999999976
46,16,0.5,1.0,35.0,1,1.0,0.3082000000000278
47,16,0.5,0.25,35.0,-1,0.0,1.4665999999999997
48,16,0.7,0.25,35.0,1,1.0,0.45290000000002806
49,16,0.5,0.5,-35.0,-1,1.0,0.3529000000000053
50,16,0.5,1.0,-35.0,-1,1.0,0.3959999999999866
51,16,0.5,0.25,-35.0,-1,1.0,0.4744010000000003
52,16,0.5,0.5,-35.0,1,0.0,0.21479999999999677
53,16,0.5,0.5,35.0,-1,0.0,0.3312000000000239
54,16,0.4,0.5,35.0,1,1.0,0.18389999999999418
55,16,0.5,1.0,35.0,1,1.0,0.5579010000000153
56,16,0.5,0.25,-35.0,-1,1.0,0.532999999999987
57,16,0.5,0.5,35.0,1,1.0,1.6559000000000026
58,16,0.5,1.0,-35.0,-1,1.0,0.34770000000000323
59,16,0.5,0.25,-35.0,-1,1.0,0.20400000000000773
60,16,0.5,0.25,35.0,-1,0.0,2.7697009999999977
61,16,0.5,0.25,-35.0,-1,1.0,0.4755000000000109
62,16,0.5,0.25,-35.0,1,0.0,0.1069999999999709
63,16,0.5,0.25,-35.0,-1,1.0,0.473700000000008
64,16,0.5,0.5,-35.0,-1,1.0,0.3183999999999685
65,16,0.5,0.25,35.0,1,1.0,0.4481999999999289
66,16,0.5,0.25,-35.0,-1,1.0,0.34719999999998663
67,16,0.5,1.0,-35.0,1,0.0,0.0912010000000123
68,16,0.3,1.0,35.0,1,1.0,0.36119999999999663
69,16,0.5,1.0,35.0,1,1.0,0.19640099999998029
70,16,0.5,0.25,-35.0,-1,1.0,0.6782000000000039
71,16,0.5,0.25,-35.0,-1,1.0,0.327500999999927
72,16,0.5,0.5,35.0,1,1.0,0.14809999999999945
73,16,0.5,0.25,35.0,1,1.0,1.6731999999999516
74,16,0.5,0.25,-35.0,1,0.0,0.1379000000000019
75,16,0.5,0.25,35.0,1,1.0,0.17809999999997217
76,16,0.5,1.0,-35.0,1,0.0,0.2168999999999528
77,16,0.8,1.0,-35.0,-1,1.0,0.467200000000048
78,16,0.5,1.0,-35.0,-1,1.0,1.2566009999999324
79,16,0.5,1.0,-35.0,-1,1.0,0.0727999999999156
80,16,0.5,0.25,-35.0,-1,1.0,0.6659999999999968
81,16,0.5,1.0,35.0,1,1.0,0.20820000000003347
82,16,0.5,0.25,35.0,1,1.0,0.3331999999999766
83,16,0.5,0.5,35.0,1,1.0,0.18299999999993588
84,16,0.5,0.25,-35.0,-1,1.0,0.4935009999999238
85,16,0.5,0.5,-35.0,-1,1.0,0.3802000000000021
86,16,0.5,1.0,-35.0,-1,1.0,0.035599999999988086
87,16,0.5,0.5,-35.0,-1,1.0,0.214999999999975
88,16,0.5,0.5,35.0,1,1.0,0.5966999999999985
89,16,0.5,0.25,35.0,1,1.0,0.16950000000002774
90,16,0.5,1.0,35.0,1,1.0,0.6609999999999445
91,16,0.5,0.25,-35.0,-1,1.0,0.6543999999999528
92,16,0.5,0.5,-35.0,-1,1.0,0.9095999999999549
93,16,0.5,0.5,35.0,-1,0.0,0.7798010000000204
94,16,0.3,0.5,35.0,-1,0.0,0.19559999999995625
95,16,0.3,0.5,-35.0,-1,1.0,0.2796009999999569
96,16,0.5,1.0,35.0,1,1.0,0.20650000000000546
97,16,0.5,0.25,35.0,1,1.0,0.37309999999996535
98,16,0.5,1.0,35.0,1,1.0,0.15059999999999718
99,16,0.5,0.5,-35.0,-1,1.0,0.34069999999991296
100,16,0.5,0.5,-35.0,-1,1.0,1.5766009999999824
101,16,0.5,1.0,35.0,1,1.0,0.17179999999996198
102,16,0.5,0.25,-35.0,1,0.0,0.2633999999999901
103,16,0.5,0.25,-35.0,-1,1.0,0.2797999999999661
104,16,0.5,1.0,-35.0,1,0.0,0.14560000000000173
105,16,0.6,1.0,-35.0,-1,1.0,0.448599999999999
106,16,0.5,1.0,35.0,1,1.0,0.5604999999999336
107,16,0.5,0.5,35.0,1,1.0,0.4409999999999741
108,16,0.5,0.5,35.0,1,1.0,0.18209999999999127
109,16,0.5,1.0,-35.0,-1,1.0,0.44910099999998465
110,16,0.5,1.0,35.0,-1,0.0,0.919499999999914
111,16,0.6,1.0,-35.0,-1,1.0,0.8514999999999873
112,16,0.5,1.0,35.0,1,1.0,0.7734009999999785
113,16,0.5,1.0,-35.0,-1,1.0,0.9184999999999945
114,16,0.5,1.0,-35.0,-1,1.0,0.38759999999996353
115,16,0.5,0.5,35.0,1,1.0,0.5074000000000183
116,16,0.5,1.0,-35.0,-1,1.0,0.5583009999999717
117,16,0.5,1.0,-35.0,1,0.0,0.21630000000004657
118,16,0.4,1.0,35.0,1,1.0,0.22929999999996653
119,16,0.5,1.0,-35.0,-1,1.0,0.7201999999999771
120,16,0.5,0.25,-35.0,1,0.0,0.3909009999999853
121,16,0.5,0.25,35.0,1,1.0,0.35379999999997835
122,16,0.5,0.5,-35.0,1,0.0,0.11990100000002712
123,16,0.6,0.5,-35.0,-1,1.0,0.545400000000086
124,16,0.5,0.5,-35.0,1,0.0,0.16380100000003495
125,16,0.7,0.5,35.0,1,1.0,0.33600000000001273
126,16,0.5,0.5,-35.0,-1,1.0,0.45410000000003947
127,16,0.5,1.0,35.0,1,1.0,0.20580100000006496
128,16,0.5,0.25,-35.0,-1,1.0,0.3204000000000633
129,16,0.5,0.5,35.0,1,1.0,0.2674010000000635
130,16,0.5,0.5,35.0,-1,0.0,1.148900000000026
131,16,0.6,0.5,-35.0,-1,1.0,0.5106000000000677
132,16,0.5,1.0,35.0,1,1.0,0.2236000000000331
133,16,0.5,0.5,-35.0,-1,1.0,0.4833000000000993
134,16,0.5,0.25,35.0,-1,0.0,0.05140100000005532
135,16,0.4,0.25,-35.0,-1,1.0,0.57650000000001
136,16,0.5,0.5,35.0,1,1.0,0.18319999999994252
137,16,0.5,0.25,-35.0,-1,1.0,1.5428000000000566
138,16,0.5,1.0,-35.0,1,0.0,0.102800000000002
139,16,0.4,1.0,35.0,1,1.0,0.1856000000000222
140,16,0.5,1.0,35.0,1,1.0,0.6732000000000653
141,16,0.5,1.0,-35.0,-1,1.0,0.47300000000007003
142,16,0.5,0.25,35.0,-1,0.0,1.5524000000001479
143,16,0.5,0.25,35.0,-1,0.0,0.3469000000001188
144,16,0.4,0.25,-35.0,-1,1.0,0.26860000000010587
145,16,0.5,0.5,-35.0,1,0.0,0.1272000000000162
146,16,0.5,0.5,35.0,1,1.0,0.29100000000005366
147,16,0.5,1.0,-35.0,-1,1.0,0.3570000000000846
148,16,0.5,0.25,-35.0,-1,1.0,0.40009999999995216
149,16,0.5,0.5,-35.0,-1,1.0,0.31340000000000146
150,16,0.5,0.25,35.0,1,1.0,0.29480000000012296
151,16,0.5,1.0,35.0,1,1.0,0.2966999999999871
152,16,0.5,0.25,35.0,1,1.0,0.1511000000000422
153,16,0.5,0.25,35.0,1,1.0,1.0150000000001
154,16,0.5,0.5,35.0,1,1.0,0.20839999999998327
155,16,0.5,1.0,35.0,1,1.0,0.23120000000005803
156,16,0.5,0.25,-35.0,-1,1.0,0.6329000000000633
157,16,0.5,0.5,35.0,1,1.0,0.185799999999972
158,16,0.5,1.0,35.0,1,1.0,1.2064000000000306
159,16,0.5,1.0,-35.0,1,0.0,0.03700000000003456
160,16,0.9,1.0,-35.0,-1,1.0,0.7264010000000098
161,16,0.5,1.0,-35.0,-1,1.0,0.18700000000001182
162,16,0.5,0.5,-35.0,-1,1.0,0.46080000000006294
163,16,0.5,1.0,-35.0,1,0.0,0.058600000000069485
164,16,0.6,1.0,-35.0,-1,1.0,0.7599010000000135
165,16,0.5,0.5,35.0,1,1.0,0.134900000000016
166,16,0.5,1.0,-35.0,-1,1.0,0.45640000000003056
167,16,0.5,0.5,-35.0,1,0.0,0.2727999999999611
168,16,0.5,0.5,35.0,1,1.0,0.2017999999999347
169,16,0.5,1.0,-35.0,-1,1.0,0.18900000000007822
170,16,0.5,1.0,-35.0,-1,1.0,0.45659999999998035
171,16,0.5,0.25,35.0,1,1.0,0.22360100000003058
172,16,0.5,0.5,35.0,1,1.0,0.12370099999998274
173,16,0.5,1.0,-35.0,1,0.0,0.1693000000001348
174,16,0.5,0.25,-35.0,-1,1.0,0.3383999999999787
175,16,0.5,0.5,-35.0,-1,1.0,0.7940009999999802
176,16,0.5,0.5,35.0,1,1.0,0.5751000000000204
177,16,0.5,1.0,-35.0,-1,1.0,1.0427000000000817
178,16,0.5,1.0,-35.0,-1,1.0,0.5125000000000455
179,16,0.5,0.25,-35.0,-1,1.0,1.058501000000092
180,16,0.5,0.5,-35.0,1,0.0,0.1444010000001299
181,16,0.5,0.5,-35.0,-1,1.0,0.3180000000000973
182,16,0.5,0.5,35.0,1,1.0,0.3410000000000082
183,16,0.5,0.25,35.0,1,1.0,0.3325999999999567
184,16,0.5,0.5,35.0,1,1.0,0.22629999999992378
185,16,0.5,1.0,-35.0,-1,1.0,0.4167010000001028
186,16,0.5,0.5,-35.0,-1,1.0,0.32749999999998636
187,16,0.5,0.25,-35.0,-1,1.0,0.27310000000011314
188,16,0.5,0.5,35.0,1,1.0,0.24850100000003295
189,16,0.5,1.0,-35.0,-1,1.0,1.252399999999966
190,16,0.5,0.25,35.0,1,1.0,0.16589999999996508
191,16,0.5,0.5,-35.0,-1,1.0,0.48240100000009534
192,16,0.5,0.25,-35.0,1,0.0,1.6093999999999369
193,16,0.5,0.25,35.0,1,1.0,0.2866000000000213
194,16,0.5,0.5,35.0,1,1.0,0.1309999999999718
195,16,0.5,0.5,-35.0,-1,1.0,0.21440000000006876
196,16,0.5,0.5,35.0,1,1.0,0.06320100000004913
197,16,0.5,0.5,-35.0,-1,1.0,0.7173000000001366
198,16,0.5,0.25,35.0,1,1.0,0.19220100000006823
199,16,0.5,0.5,35.0,1,1.0,0.21019999999998618
200,16,0.5,0.5,35.0,1,1.0,0.13780099999996764
201,16,0.5,0.5,-35.0,-1,1.0,0.1630999999999858
202,16,0.5,1.0,-35.0,-1,1.0,0.485100999999986
203,16,0.5,1.0,35.0,1,1.0,0.2622000000001208
204,16,0.5,0.25,35.0,1,1.0,0.10659999999995762
205,16,0.5,1.0,35.0,1,1.0,0.30310100000008333
206,16,0.5,0.25,35.0,-1,0.0,1.3704000000000178
207,16,0.5,0.25,35.0,1,1.0,0.24149999999997362
208,16,0.5,0.5,-35.0,-1,1.0,0.36380000000008295
209,16,0.5,1.0,35.0,1,1.0,0.4552999999999656
210,16,0.5,0.25,-35.0,-1,1.0,0.15130000000010568
211,16,0.5,1.0,35.0,1,1.0,0.3286000000000513
212,16,0.5,0.25,-35.0,-1,1.0,0.7362009999999373
213,16,0.5,0.25,35.0,1,1.0,0.46410100000002785
214,16,0.5,0.25,-35.0,-1,1.0,0.43430000000012114
215,16,0.5,1.0,-35.0,-1,1.0,0.38450000000000273
216,16,0.5,1.0,35.0,1,1.0,0.269800000000032
217,16,0.5,0.5,-35.0,-1,1.0,0.38840000000004693
218,16,0.5,0.25,35.0,1,1.0,0.2154000000000451
219,16,0.5,1.0,-35.0,-1,1.0,0.8510000000001128
220,16,0.5,1.0,35.0,1,1.0,0.05660000000000309
221,16,0.5,0.25,35.0,1,1.0,0.0827999999999065
222,16,0.5,0.5,35.0,1,1.0,0.18849999999997635
223,16,0.5,0.25,35.0,1,1.0,0.3421000000000731
224,16,0.5,1.0,-35.0,-1,1.0,0.5039010000000417
225,16,0.5,0.5,35.0,1,1.0,0.15380000000004657
226,16,0.5,0.25,35.0,1,1.0,0.177599999999984
227,16,0.5,0.25,-35.0,-1,1.0,0.6279999999999291
228,16,0.5,1.0,35.0,1,1.0,0.2481000000000222
229,16,0.5,1.0,-35.0,1,0.0,0.22850000000005366
230,16,0.5,0.25,35.0,1,1.0,0.1550009999998565
231,16,0.5,0.25,-35.0,1,0.0,0.09160000000019863
232,16,0.8,0.25,35.0,1,1.0,0.2119000000000142
233,16,0.5,0.5,-35.0,-1,1.0,1.2584999999999127
234,16,0.5,1.0,-35.0,-1,1.0,0.2253009999999449
235,16,0.5,0.25,-35.0,1,0.0,0.09169999999994616
236,16,0.7,0.25,-35.0,1,0.0,0.11190099999998893
237,16,0.5,1.0,-35.0,-1,1.0,0.44869999999991705
238,16,0.5,0.5,-35.0,-1,1.0,0.3320000000001073
239,16,0.5,0.5,-35.0,-1,1.0,0.6955000000000382
240,16,0.5,1.0,-35.0,-1,1.0,0.4187000000001717
241,16,0.5,0.25,-35.0,-1,1.0,0.1787010000000464
242,16,0.5,0.25,-35.0,-1,1.0,0.41230000000018663
243,16,0.5,0.25,35.0,-1,0.0,1.632101000000148
244,16,0.5,0.25,35.0,1,1.0,0.21859999999992397
245,16,0.5,1.0,-35.0,-1,1.0,0.5260000000000673
246,16,0.5,0.25,-35.0,-1,1.0,0.32590000000004693
247,16,0.5,0.5,-35.0,-1,1.0,1.0824999999999818
248,16,0.5,0.5,-35.0,-1,1.0,0.7560000000000855
249,16,0.5,1.0,35.0,1,1.0,0.21280000000001564
250,16,0.5,0.5,-35.0,-1,1.0,0.8726999999998952
251,16,0.5,0.5,35.0,1,1.0,0.2727999999999611
252,16,0.5,0.5,-35.0,-1,1.0,0.5662010000000919
253,16,0.5,0.25,35.0,1,1.0,1.2130000000001928
254,16,0.5,1.0,-35.0,-1,1.0,0.4597000000001117
255,16,0.5,0.25,-35.0,1,0.0,0.22980099999995218
256,16,0.4,0.25,-35.0,-1,1.0,0.556400000000167
257,16,0.5,0.5,35.0,1,1.0,0.22630000000003747
258,16,0.5,1.0,-35.0,-1,1.0,0.7431000000001404
259,16,0.5,0.5,35.0,1,1.0,0.22340100000019447
260,16,0.5,0.25,35.0,1,1.0,0.2667999999998756
261,16,0.5,0.25,-35.0,-1,1.0,0.41030000000000655
262,16,0.5,1.0,35.0,-1,0.0,0.0699010000000726
263,16,0.5,0.25,35.0,-1,0.0,0.25670100000002094
264,16,0.5,0.25,-35.0,-1,1.0,0.32690100000013445
265,16,0.5,0.25,35.0,1,1.0,0.18029999999998836
266,16,0.5,1.0,35.0,1,1.0,0.18050000000016553
267,16,0.5,1.0,-35.0,-1,1.0,0.05019999999990432
268,16,0.5,0.5,35.0,1,1.0,0.7305010000000038
269,16,0.5,0.25,35.0,1,1.0,0.25050099999998565
270,16,0.5,0.5,35.0,1,1.0,0.23040000000014516
271,16,0.5,1.0,-35.0,-1,1.0,0.5906999999999698
272,16,0.5,0.25,-35.0,1,0.0,0.18070000000011532
273,16,0.6,0.25,35.0,1,1.0,0.2542999999998301
274,16,0.5,0.5,-35.0,1,0.0,0.27739999999994325
275,16,0.8,0.5,-35.0,1,0.0,0.19090000000005602
276,16,0.8,0.5,35.0,1,1.0,0.30780000000004293
277,16,0.5,0.5,-35.0,-1,1.0,0.34780000000000655
278,16,0.5,0.25,-35.0,1,0.0,0.26080000000024484
279,16,0.8,0.25,-35.0,-1,1.0,0.3380010000000766
280,16,0.5,0.5,-35.0,-1,1.0,1.0080000000000382
281,16,0.5,0.5,-35.0,-1,1.0,1.1710999999997966
282,16,0.5,0.25,35.0,1,1.0,0.36809999999991305
283,16,0.5,0.5,35.0,1,1.0,0.23789999999985412
284,16,0.5,1.0,-35.0,-1,1.0,0.267900999999938
285,16,0.5,0.5,35.0,-1,0.0,0.8080999999999676
286,16,0.4,0.5,-35.0,-1,1.0,0.5080000000000382
287,16,0.5,0.5,35.0,1,1.0,0.2880999999999858
288,16,0.5,0.25,-35.0,-1,1.0,1.9416000000001077
289,16,0.5,0.25,35.0,1,1.0,0.21160099999997328
290,16,0.5,1.0,-35.0,-1,1.0,0.30500000000006366
291,16,0.5,0.25,-35.0,-1,1.0,0.3816999999999098
292,16,0.5,1.0,-35.0,1,0.0,0.088799999999992
293,16,0.4,1.0,35.0,1,1.0,0.17220000000020264
294,16,0.5,0.5,35.0,1,1.0,0.19850000000019463
295,16,0.5,1.0,35.0,1,1.0,0.10849999999982174
296,16,0.5,0.5,35.0,1,1.0,0.5620000000001255
297,16,0.5,0.5,-35.0,1,0.0,0.12530000000015207
298,16,0.7,0.5,35.0,1,1.0,0.1891009999999369
299,16,0.5,1.0,-35.0,-1,1.0,0.7623000000000957
300,16,0.5,0.25,35.0,-1,0.0,0.7358000000001539
301,16,0.5,0.25,35.0,1,1.0,0.3121000000001004
302,16,0.5,1.0,35.0,1,1.0,0.28910000000018954
303,16,0.5,0.25,35.0,1,1.0,1.219200000000228
304,16,0.5,0.5,35.0,1,1.0,0.1661010000002534
305,16,0.5,0.25,-35.0,-1,1.0,0.5391999999999371
306,16,0.5,0.5,35.0,1,1.0,0.18260000000009313
307,16,0.5,1.0,35.0,1,1.0,1.439301000000114
308,16,0.5,0.5,-35.0,1,0.0,0.2696010000001934
309,16,0.7,0.5,-35.0,-1,1.0,0.3125000000002274
310,16,0.5,1.0,35.0,1,1.0,0.21959999999990032
311,16,0.5,1.0,-35.0,-1,1.0,1.2197010000002138
312,16,0.5,0.25,-35.0,1,0.0,0.143100000000004
313,16,0.5,0.25,35.0,1,1.0,0.5296009999999569
314,16,0.5,0.5,35.0,1,1.0,0.383199999999988
315,16,0.5,0.25,-35.0,-1,1.0,0.23670100000003913
316,16,0.5,0.25,35.0,1,1.0,0.17319999999995161
317,16,0.5,1.0,35.0,1,1.0,0.4067000000000007
318,16,0.5,1.0,-35.0,1,0.0,0.2503999999998996
319,16,0.7,1.0,-35.0,1,0.0,0.2135000000000673
320,16,0.8,1.0,35.0,1,1.0,0.29369999999994434
321,16,0.5,0.5,-35.0,-1,1.0,0.4172000000000935
322,16,0.5,1.0,35.0,1,1.0,0.2870999999997821
323,16,0.5,1.0,35.0,1,1.0,0.1870000000001255
324,16,0.5,0.25,35.0,-1,0.0,1.3371009999998478
325,16,0.7,0.25,-35.0,-1,1.0,0.1303000000002612
326,16,0.5,0.5,-35.0,-1,1.0,0.4936999999999898
327,16,0.5,0.5,35.0,-1,0.0,0.0839000000003125
328,16,0.5,0.5,-35.0,-1,1.0,0.27719999999999345
329,16,0.5,0.5,35.0,1,1.0,0.07420100000013008
330,16,0.5,0.25,-35.0,1,0.0,0.10079999999993561
331,16,0.4,0.25,35.0,1,1.0,0.2375000000001819
332,16,0.5,0.5,35.0,1,1.0,0.0543999999999869
333,16,0.5,0.5,-35.0,1,0.0,0.23780099999999038
334,16,0.5,0.25,35.0,1,1.0,0.22440000000005966
335,16,0.5,1.0,35.0,1,1.0,1.1477000000002135
336,16,0.5,0.5,-35.0,-1,1.0,2.501400999999987
337,16,0.5,0.5,-35.0,-1,1.0,0.2645999999999731
338,16,0.5,0.25,-35.0,-1,1.0,0.5744999999999436
339,16,0.5,0.25,-35.0,-1,1.0,0.268100000000004
340,16,0.5,1.0,35.0,1,1.0,0.18810000000007676
341,16,0.5,0.5,35.0,-1,0.0,0.09480000000007749
342,16,0.5,0.5,-35.0,-1,1.0,0.4050999999999476
343,16,0.5,0.5,-35.0,-1,1.0,0.3447009999999864
344,16,0.5,1.0,-35.0,-1,1.0,0.30140099999994163
345,16,0.5,0.5,35.0,1,1.0,0.11150000000020555
346,16,0.5,0.5,-35.0,-1,1.0,0.4850010000000111
347,16,0.5,0.25,35.0,1,1.0,0.3714999999999691
348,16,0.5,0.25,35.0,1,1.0,0.3084999999998672
349,16,0.5,0.25,35.0,1,1.0,0.23559999999997672
350,16,0.5,0.25,35.0,1,1.0,1.001800000000003
351,16,0.5,0.5,-35.0,-1,1.0,0.45859999999993306
352,16,0.5,0.5,35.0,1,1.0,0.2956010000000333
353,16,0.5,1.0,35.0,1,1.0,0.2556999999999334
354,16,0.5,0.25,35.0,1,1.0,1.1322999999997592
355,16,0.5,0.25,-35.0,-1,1.0,0.8557000000000698
356,16,0.5,0.25,-35.0,-1,1.0,0.3390999999999167
357,16,0.5,1.0,-35.0,1,0.0,0.26929999999993015
358,16,0.7,1.0,-35.0,-1,1.0,0.6627010000001974
359,16,0.5,0.5,-35.0,-1,1.0,0.6860000000001492
360,16,0.5,1.0,-35.0,-1,1.0,0.6792000000000371
361,16,0.5,0.25,-35.0,1,0.0,0.2228010000001177
362,16,0.5,0.25,35.0,1,1.0,0.289801000000125
363,16,0.5,1.0,35.0,1,1.0,0.24289999999996326
364,16,0.5,0.5,-35.0,-1,1.0,0.17280000000005202
365,16,0.5,0.25,35.0,1,1.0,0.2828999999999269
366,16,0.5,0.5,-35.0,1,0.0,0.15970000000015716
367,16,0.6,0.5,35.0,1,1.0,0.3068000000000666
368,16,0.5,1.0,-35.0,-1,1.0,0.23640000000023065
369,16,0.5,0.25,-35.0,-1,1.0,0.2697009999999409
370,16,0.5,0.25,35.0,1,1.0,0.4463999999998123
371,16,0.5,0.25,-35.0,-1,1.0,0.7597999999998137
372,16,0.5,0.25,-35.0,-1,1.0,0.9600009999999202
373,16,0.5,0.25,35.0,1,1.0,0.4801009999998769
374,16,0.5,0.5,-35.0,1,0.0,0.09010000000012042
375,16,0.6,0.5,-35.0,-1,1.0,0.45360000000027867
376,16,0.5,0.5,-35.0,-1,1.0,0.49349999999981264
377,16,0.5,0.5,-35.0,-1,1.0,0.7201999999999771
378,16,0.5,1.0,-35.0,-1,1.0,0.17679999999995744
379,16,0.5,1.0,35.0,-1,0.0,0.05040000000008149
380,16,0.3,1.0,-35.0,-1,1.0,0.5036000000000058
381,16,0.5,1.0,35.0,-1,0.0,1.8004000000000815
382,16,0.2,1.0,35.0,1,1.0,0.45070000000009713
383,16,0.5,0.5,-35.0,-1,1.0,0.2737999999999374
384,16,0.5,1.0,35.0,1,1.0,0.2240999999999076
385,16,0.5,0.5,35.0,-1,0.0,1.2373999999999796
386,16,0.2,0.5,35.0,1,1.0,0.42400100000008933
387,16,0.5,1.0,35.0,1,1.0,0.22080000000005384
388,16,0.5,0.5,35.0,1,1.0,0.24040000000013606
389,16,0.5,0.5,35.0,1,1.0,0.23749999999995453
390,16,0.5,0.25,-35.0,-1,1.0,0.7976000000001022
391,16,0.5,0.25,35.0,1,1.0,0.18409999999994398
392,16,0.5,1.0,35.0,1,1.0,0.19760000000019318
393,16,0.5,1.0,-35.0,-1,1.0,0.22800000000006548
394,16,0.5,1.0,-35.0,1,0.0,0.18790000000012697
395,16,0.7,1.0,-35.0,-1,1.0,0.3647000000000844
396,16,0.5,1.0,-35.0,1,0.0,0.2079999999998563
397,16,0.7,1.0,-35.0,1,0.0,0.11789999999996326
398,16,0.7,1.0,-35.0,-1,1.0,0.4780000000000655
399,16,0.5,0.5,35.0,1,1.0,0.7179000000000997
400,16,0.5,0.5,35.0,1,1.0,1.291300000000092
401,16,0.5,0.25,-35.0,1,0.0,0.444700000000239
402,16,0.7,0.25,35.0,1,1.0,0.34159999999997126
403,16,0.5,1.0,-35.0,1,0.0,1.0717000000001917
404,16,0.8,1.0,35.0,1,1.0,0.2717999999999847
405,16,0.5,0.5,35.0,1,1.0,0.19510099999979502
406,16,0.5,0.25,35.0,1,1.0,0.6217000000001462
407,16,0.5,1.0,35.0,1,1.0,0.23500100000001112
408,16,0.5,1.0,35.0,1,1.0,0.8720999999998185
409,16,0.5,0.25,-35.0,1,0.0,0.13850000000002183
410,16,0.5,0.25,-35.0,1,0.0,0.3954000000001088
411,16,1.0,0.25,-35.0,1,0.0,0.24539999999979045
412,16,0.5,0.5,-35.0,-1,1.0,0.5088000000000648
413,16,0.5,0.5,-35.0,-1,1.0,0.47860100000002603
414,16,0.5,0.25,35.0,1,1.0,1.2590999999999894
415,16,0.5,0.25,-35.0,-1,1.0,0.7322009999998045
416,16,0.5,1.0,35.0,1,1.0,0.27909999999997126
417,16,0.5,0.5,35.0,1,1.0,1.445400999999947
418,16,0.5,1.0,-35.0,-1,1.0,0.5624000000000251
419,16,0.5,0.5,35.0,1,1.0,0.21920000000000073
420,16,0.5,0.25,35.0,1,1.0,0.19580099999984668
421,16,0.5,0.25,-35.0,1,0.0,0.18260000000009313
422,16,0.6,0.25,-35.0,-1,1.0,0.28919999999993706
423,16,0.5,1.0,-35.0,-1,1.0,0.6562999999998738
424,16,0.5,0.25,35.0,1,1.0,1.2996999999998025
425,16,0.5,1.0,-35.0,1,0.0,0.2033000000001266
426,16,0.7,1.0,-35.0,1,0.0,0.32330000000001746
427,16,0.7,1.0,-35.0,-1,1.0,0.5929000000000997
428,16,0.5,1.0,-35.0,-1,1.0,1.5031000000001313
429,16,0.5,0.25,35.0,1,1.0,0.12630000000012842
430,16,0.5,0.25,-35.0,1,0.0,0.12650000000007822
431,16,0.6,0.25,-35.0,-1,1.0,0.516601000000037
432,16,0.5,1.0,-35.0,-1,1.0,0.6264999999998508
433,16,0.5,1.0,35.0,1,1.0,1.9932000000001153
434,16,0.5,1.0,-35.0,-1,1.0,0.3931999999999789
435,16,0.5,1.0,-35.0,-1,1.0,0.5434999999999945
436,16,0.5,1.0,35.0,1,1.0,0.29999999999972715
437,16,0.5,1.0,35.0,1,1.0,0.25050099999998565
438,16,0.5,0.5,35.0,1,1.0,0.060000000000172804
439,16,0.5,0.25,35.0,1,1.0,0.34359999999992397
440,16,0.5,1.0,-35.0,-1,1.0,1.0569000000000415
441,16,0.5,0.25,35.0,1,1.0,0.27369999999996253
442,16,0.5,0.25,35.0,1,1.0,0.1872000000000753
443,16,0.5,1.0,35.0,1,1.0,0.1973000000000411
444,16,0.5,0.25,35.0,1,1.0,0.1307010000000446
445,16,0.5,1.0,-35.0,-1,1.0,0.3874999999998181
446,16,0.5,1.0,35.0,1,1.0,0.1706010000000333
447,16,0.5,0.5,35.0,1,1.0,0.9171000000001186
448,16,0.5,0.25,35.0,1,1.0,0.33390000000008513
449,16,0.5,0.5,35.0,1,1.0,0.22070000000030632
450,16,0.5,0.25,-35.0,-1,1.0,0.6376999999999953
451,16,0.5,0.5,-35.0,1,0.0,0.2576000000001386
452,16,0.8,0.5,-35.0,-1,1.0,0.48080000000004475
453,16,0.5,0.5,-35.0,-1,1.0,0.7875000000001364
454,16,0.5,0.25,-35.0,-1,1.0,0.9508999999998196
455,16,0.5,1.0,35.0,1,1.0,0.15440000000012333
456,16,0.5,0.5,35.0,1,1.0,0.24440099999992526
457,16,0.5,0.5,-35.0,-1,1.0,0.5146999999997206
458,16,0.5,0.5,-35.0,1,0.0,0.2114000000001397
459,16,0.5,0.5,-35.0,-1,1.0,0.3348009999995156
460,16,0.5,0.5,35.0,1,1.0,0.13160000000016225
461,16,0.5,0.5,35.0,1,1.0,0.8179999999997563
462,16,0.5,0.5,-35.0,-1,1.0,0.058000999999421765
463,16,0.5,1.0,35.0,1,1.0,0.21159999999963475
464,16,0.5,0.25,-35.0,-1,1.0,0.36149999999997817
465,16,0.5,0.5,35.0,1,1.0,0.22169999999960055
466,16,0.5,0.25,-35.0,-1,1.0,0.3617010000002665
467,16,0.5,1.0,35.0,1,1.0,0.21869999999944412
468,16,0.5,0.25,-35.0,-1,1.0,0.9184000000000196
469,16,0.5,1.0,35.0,1,1.0,0.24859999999989668
470,16,0.5,0.25,-35.0,-1,1.0,0.5019000000002052
471,16,0.5,0.25,-35.0,-1,1.0,0.5987009999998918
472,16,0.5,1.0,-35.0,-1,1.0,0.1786999999994805
473,16,0.5,0.5,-35.0,-1,1.0,0.6587009999998372
474,16,0.5,1.0,-35.0,-1,1.0,0.26539999999977226
475,16,0.5,0.5,-35.0,-1,1.0,0.688799999999901
476,16,0.5,0.25,-35.0,-1,1.0,0.4654000000000451
477,16,0.5,1.0,35.0,1,1.0,0.2787999999995918
478,16,0.5,0.5,-35.0,-1,1.0,0.39890099999956874
479,16,0.5,1.0,35.0,1,1.0,0.10890000000017608
480,16,0.5,0.25,35.0,1,1.0,0.6257999999997992
481,16,0.5,1.0,-35.0,-1,1.0,0.5126999999997679
482,16,0.5,0.25,35.0,1,1.0,0.7425999999995838
483,16,0.5,1.0,-35.0,-1,1.0,0.5257999999998901
484,16,0.5,1.0,35.0,1,1.0,0.19939999999951397
485,16,0.5,0.25,-35.0,-1,1.0,0.9160999999999149
486,16,0.5,1.0,35.0,1,1.0,0.1795999999999367
487,16,0.5,0.25,-35.0,-1,1.0,0.26279999999997017
488,16,0.5,0.25,-35.0,1,0.0,0.2996999999995751
489,16,0.6,0.25,35.0,1,1.0,0.4028009999997266
490,16,0.5,1.0,-35.0,1,0.0,0.24990000000025248
491,16,0.6,1.0,-35.0,-1,1.0,0.47640000000001237
492,16,0.5,0.5,-35.0,-1,1.0,0.5568999999995867
493,16,0.5,0.25,35.0,1,1.0,1.043199999999615
494,16,0.5,0.25,35.0,1,1.0,0.09310099999993326
495,16,0.5,1.0,-35.0,1,0.0,0.08680099999992308
496,16,0.7,1.0,-35.0,-1,1.0,0.25349999999980355
497,16,0.5,0.5,-35.0,-1,1.0,0.8436009999995804
498,16,0.5,1.0,35.0,1,1.0,0.22329999999965366
499,16,0.5,0.25,35.0,-1,0.0,1.1735999999996238
500,16,0.5,0.25,35.0,1,1.0,0.7368000000001302
501,16,0.5,1.0,-35.0,-1,1.0,0.5039009999995869
502,16,0.5,1.0,35.0,1,1.0,1.1503999999995358
503,16,0.5,0.25,35.0,1,1.0,0.17030000000022483
504,16,0.5,1.0,-35.0,-1,1.0,0.7501999999999498
505,16,0.5,1.0,35.0,1,1.0,0.7938999999996668
506,16,0.5,0.5,-35.0,-1,1.0,0.8472000000001572
507,16,0.5,0.5,35.0,1,1.0,0.4704999999999018
508,16,0.5,1.0,-35.0,-1,1.0,0.3337999999994281
509,16,0.5,1.0,35.0,1,1.0,0.6671999999998661
510,16,0.5,0.25,-35.0,-1,1.0,1.9039999999999964
511,16,0.5,0.25,35.0,1,1.0,0.6939000000002125
512,16,0.5,0.25,35.0,1,1.0,0.2139999999999418
513,16,0.5,1.0,35.0,1,1.0,0.2705999999998312
514,16,0.5,1.0,35.0,1,1.0,0.2207999999995991
515,16,0.5,0.5,35.0,1,1.0,0.2407999999995809
516,16,0.5,0.5,-35.0,-1,1.0,1.0677009999999427
517,16,0.5,1.0,-35.0,-1,1.0,0.8407999999999447
518,16,0.5,0.5,35.0,1,1.0,0.18759999999974752
519,16,0.5,0.5,35.0,1,1.0,0.33109999999942374
520,16,0.5,0.5,-35.0,-1,1.0,0.6143010000000686
521,16,0.5,1.0,-35.0,-1,1.0,5.521099999999933
522,16,0.5,0.25,35.0,1,1.0,2.171299999999974
523,16,0.5,1.0,35.0,1,1.0,0.5881999999996879
524,16,0.5,1.0,-35.0,-1,1.0,0.6679999999996653
525,16,0.5,0.25,35.0,1,1.0,0.1880009999995309
526,16,0.5,1.0,35.0,1,1.0,1.2548010000000431
527,16,0.5,0.5,-35.0,-1,1.0,0.4116009999997914
528,16,0.5,0.25,-35.0,-1,1.0,0.21819999999934225
529,16,0.5,0.25,35.0,1,1.0,0.40499999999974534
530,16,0.5,0.5,35.0,1,1.0,0.2951999999995678
531,16,0.5,0.25,35.0,-1,0.0,2.8281999999999243
532,16,0.6,0.25,35.0,1,1.0,11.008499999999458
533,16,0.5,1.0,-35.0,-1,1.0,3.975300000000061
534,16,0.5,0.25,-35.0,-1,1.0,4.315499999999702
535,16,0.5,0.25,-35.0,-1,1.0,0.7723009999999704
536,16,0.5,0.5,-35.0,-1,1.0,3.275300999999672
537,16,0.5,0.5,-35.0,-1,1.0,0.399199999999837
538,16,0.5,1.0,-35.0,-1,1.0,0.47879999999986467
539,16,0.5,1.0,-35.0,-1,1.0,0.8256999999998698
540,16,0.5,0.5,-35.0,-1,1.0,0.4391999999993459
541,16,0.5,0.5,-35.0,-1,1.0,0.20909999999958018
542,16,0.5,0.25,35.0,1,1.0,0.29579999999987194
543,16,0.5,0.25,35.0,1,1.0,0.23589999999967404
544,16,0.5,0.5,-35.0,-1,1.0,0.4424999999996544
545,16,0.5,1.0,-35.0,-1,1.0,0.46270000000004075
546,16,0.5,0.5,35.0,1,1.0,0.21270099999992453
547,16,0.5,0.5,35.0,1,1.0,0.17269999999962238
548,16,0.5,1.0,35.0,1,1.0,0.2925999999997657
549,16,0.5,0.25,-35.0,-1,1.0,0.3760000000002037
550,16,0.5,0.5,-35.0,-1,1.0,0.5361010000001443
551,16,0.5,1.0,-35.0,-1,1.0,0.29639999999972133
552,16,0.5,0.5,-35.0,-1,1.0,0.4960999999998421
553,16,0.5,0.25,35.0,1,1.0,0.2696000000000822
554,16,0.5,0.5,-35.0,-1,1.0,0.31979999999975917
555,16,0.5,0.25,35.0,1,1.0,0.8228000000003703
556,16,0.5,1.0,35.0,1,1.0,0.93329999999969
557,16,0.5,0.5,-35.0,-1,1.0,0.24959999999964566
558,16,0.5,0.25,-35.0,-1,1.0,5.996600999999828
559,16,0.5,0.5,35.0,-1,0.0,1.9663999999993393
560,16,0.3,0.5,-35.0,-1,1.0,0.5068999999998596
561,16,0.5,1.0,35.0,1,1.0,0.23669999999992797
562,16,0.5,0.25,35.0,1,1.0,0.8604000000000269
563,16,0.5,1.0,-35.0,1,0.0,0.1268000000000029
564,16,0.5,1.0,35.0,1,1.0,0.47349999999960346
565,16,0.5,1.0,-35.0,-1,1.0,0.5202009999998154
566,16,0.5,0.25,-35.0,-1,1.0,2.9705009999997856
567,16,0.5,0.5,-35.0,-1,1.0,0.5502999999998792
568,16,0.5,0.5,35.0,1,1.0,0.26710000000002765
569,16,0.5,0.25,35.0,-1,0.0,3.547099999999773
570,16,0.5,0.25,35.0,1,1.0,0.2905000000000655
571,16,0.5,0.5,-35.0,-1,1.0,0.30389999999988504
572,16,0.5,1.0,-35.0,-1,1.0,0.4669999999996435
573,16,0.5,1.0,35.0,1,1.0,0.3305000000000291
574,16,0.5,1.0,35.0,1,1.0,1.3740999999999985
575,16,0.5,0.25,-35.0,-1,1.0,9.443899999999758
576,16,0.5,0.25,-35.0,-1,1.0,0.6307009999995898
577,16,0.5,0.5,35.0,1,1.0,0.9375999999997475
578,16,0.5,0.25,35.0,1,1.0,0.767699999999877
579,16,0.5,0.5,35.0,1,1.0,0.4277999999999338
580,16,0.5,1.0,35.0,1,1.0,0.20079999999961728
581,16,0.5,0.5,35.0,1,1.0,0.19100099999968734
582,16,0.5,0.5,-35.0,-1,1.0,0.5943999999999505
583,16,0.5,1.0,35.0,1,1.0,0.3910999999998239
584,16,0.5,1.0,-35.0,-1,1.0,1.997599999999693
585,16,0.5,0.5,-35.0,-1,1.0,0.5344999999997526
586,16,0.5,0.5,35.0,1,1.0,0.2943999999997686
587,16,0.5,1.0,-35.0,-1,1.0,0.8844999999996617
588,16,0.5,1.0,35.0,1,1.0,0.2713999999996304
589,16,0.5,0.5,35.0,1,1.0,0.3813000000000102
590,16,0.5,0.5,-35.0,-1,1.0,0.7681999999999789
591,16,0.5,0.25,-35.0,-1,1.0,0.33159999999998035
592,16,0.5,0.25,-35.0,-1,1.0,2.034599999999955
593,16,0.5,0.5,35.0,1,1.0,0.7680999999997766
594,16,0.5,0.25,-35.0,-1,1.0,5.178199999999379
595,16,0.5,0.5,-35.0,-1,1.0,0.44489999999996144
596,16,0.5,0.25,-35.0,-1,1.0,1.411899999999605
597,16,0.5,0.25,-35.0,-1,1.0,0.5482999999994718
598,16,0.5,1.0,35.0,1,1.0,0.4884999999999309
599,16,0.5,1.0,35.0,1,1.0,0.3285999999998239
600,16,0.5,1.0,-35.0,-1,1.0,0.32510099999990416
601,16,0.5,1.0,-35.0,-1,1.0,0.36520100000007005
602,16,0.5,0.25,-35.0,-1,1.0,4.5315999999997985
603,16,0.5,0.5,35.0,1,1.0,0.48880000000008295
604,16,0.5,0.5,35.0,1,1.0,0.3753009999995811
605,16,0.5,0.25,-35.0,-1,1.0,0.32569999999986976
606,16,0.5,1.0,35.0,1,1.0,0.30870099999992817
607,16,0.5,1.0,-35.0,-1,1.0,0.3854999999998654
608,16,0.5,0.5,35.0,1,1.0,0.502100000000155
609,16,0.5,0.25,35.0,1,1.0,0.39210000000002765
610,16,0.5,0.5,35.0,1,1.0,0.41519999999945867
611,16,0.5,0.25,35.0,1,1.0,0.28569999999990614
612,16,0.5,1.0,-35.0,-1,1.0,0.5688999999997577
613,16,0.5,0.25,35.0,1,1.0,0.6588010000000395
614,16,0.5,0.25,35.0,-1,0.0,7.3091999999996915
615,16,0.5,0.25,-35.0,-1,1.0,10.249201000000085
616,16,0.5,1.0,35.0,1,1.0,0.33579999999983556
617,16,0.5,0.25,35.0,1,1.0,4.5593000000003485
618,16,0.5,0.25,35.0,1,1.0,2.6329009999994923
619,16,0.5,0.25,35.0,1,1.0,0.5130009999998038
620,16,0.5,0.5,-35.0,-1,1.0,10.18600000000015
621,16,0.5,1.0,35.0,-1,0.0,8.759899999999561
622,16,0.5,0.25,35.0,-1,0.0,9.782999999999447
623,16,0.5,0.25,35.0,1,1.0,16.65979999999945
624,16,0.5,0.5,35.0,-1,0.0,2.037000000000262
625,16,0.5,0.25,-35.0,-1,1.0,0.7769010000001799
626,16,0.5,0.25,35.0,1,1.0,0.5273009999996248
627,16,0.5,0.5,-35.0,-1,1.0,0.7003999999997177
628,16,0.5,0.125,35.0,-1,0.0,6.043999999999414
629,16,0.3,0.125,-35.0,-1,1.0,7.030700999999226
630,16,0.5,0.5,-35.0,-1,1.0,0.9173000000000684
631,16,0.5,1.0,35.0,1,1.0,0.4875999999999294
632,16,0.5,1.0,-35.0,-1,1.0,0.4074999999997999
633,16,0.5,0.25,35.0,-1,0.0,3.307499999999891
634,16,0.5,0.125,-35.0,-1,1.0,1.2575999999994565
635,16,0.5,0.125,35.0,1,1.0,0.9079000000001543
636,16,0.5,0.5,-35.0,-1,1.0,2.961000999999669
637,16,0.5,0.5,-35.0,-1,1.0,2.1042999999999665
638,16,0.5,0.25,35.0,1,1.0,0.35809999999992215
639,16,0.5,1.0,-35.0,-1,1.0,1.2211999999999534
640,16,0.5,0.5,35.0,1,1.0,0.38459999999986394
641,16,0.5,1.0,35.0,1,1.0,0.42440099999976155
642,16,0.5,0.25,35.0,1,1.0,0.3512999999998101
643,16,0.5,0.5,-35.0,-1,1.0,7.211199999999735
644,16,0.5,0.5,35.0,1,1.0,0.6213999999999942
645,16,0.5,0.5,35.0,1,1.0,0.451600999999755
646,16,0.5,0.25,-35.0,-1,1.0,0.24149999999963256
647,16,0.5,0.25,-35.0,-1,1.0,0.968199999999797
648,16,0.5,0.125,-35.0,-1,1.0,4.558299999999235
649,16,0.5,0.5,-35.0,-1,1.0,0.5983009999995375
650,16,0.5,0.125,-35.0,-1,1.0,4.928399999999783
651,16,0.5,0.125,-35.0,-1,1.0,3.5151009999999587
652,16,0.5,0.5,35.0,1,1.0,0.5685019999996257
653,16,0.5,0.25,35.0,1,1.0,0.49870199999986653
654,16,0.5,1.0,35.0,1,1.0,0.20850099999961458
655,16,0.5,1.0,35.0,1,1.0,0.29200200000013865
656,16,0.5,0.125,-35.0,-1,1.0,0.5987009999998918
657,16,0.5,0.5,-35.0,-1,1.0,4.522001999999702
658,16,0.5,1.0,-35.0,-1,1.0,0.9422020000001794
659,16,0.5,0.5,-35.0,-1,1.0,8.015300999999909
660,16,0.5,1.0,35.0,1,1.0,0.6024019999999837
661,16,0.5,1.0,35.0,-1,0.0,4.642201000000114
662,16,0.5,1.0,35.0,1,1.0,3.4858009999993556
663,16,0.5,0.5,-35.0,-1,1.0,0.30260099999941303
664,16,0.5,1.0,-35.0,1,0.0,13.989300999999614
665,16,0.4,1.0,-35.0,-1,1.0,29.70270100000016
666,16,0.5,1.0,-35.0,-1,1.0,0.4563009999997121
667,16,0.5,0.25,-35.0,1,0.0,1.4630010000000766
668,16,0.5,0.125,-35.0,-1,1.0,0.3398010000000795
669,16,0.5,0.25,-35.0,-1,1.0,13.256401999999525
670,16,0.5,0.125,35.0,1,1.0,0.7366009999996095
671,16,0.5,0.5,35.0,-1,0.0,8.553300999999465
672,16,0.5,0.25,-35.0,-1,1.0,17.593500999999833
673,16,0.5,0.25,-35.0,-1,1.0,3.20370099999991
674,16,0.5,1.0,35.0,1,1.0,0.26720099999965896
675,16,0.5,1.0,-35.0,-1,1.0,0.94720099999995
676,16,0.5,0.125,35.0,1,1.0,0.9773009999998976
677,16,0.5,0.5,35.0,1,1.0,0.6007019999997283
678,16,0.5,1.0,35.0,1,1.0,0.31400099999973463
679,16,0.5,1.0,35.0,1,1.0,0.520600999999715
680,16,0.5,0.5,-35.0,-1,1.0,17.100700999999844
681,16,0.5,0.5,35.0,1,1.0,6.371001999999862
682,16,0.5,0.25,35.0,-1,0.0,0.29440100000010716
683,16,0.5,0.25,-35.0,-1,1.0,14.497800999999981
684,16,0.5,0.5,-35.0,0,0.0,59.94800099999975
1,17,0.5,0.25,-35.0,-1,1.0,0.6290999999999998
2,17,0.5,0.125,-35.0,-1,1.0,0.23970100000000016
3,17,0.5,0.125,-35.0,-1,1.0,0.24809999999999732
4,17,0.5,0.125,-35.0,-1,1.0,0.5146000000000015
5,17,0.5,0.5,35.0,1,1.0,0.14010100000000136
6,17,0.5,0.25,-35.0,-1,1.0,1.2753000000000014
7,17,0.5,0.5,35.0,1,1.0,0.23929999999999296
8,17,0.5,0.125,35.0,1,1.0,0.9803010000000043
9,17,0.5,1.0,35.0,1,1.0,0.1232000000000042
10,17,0.5,0.25,35.0,-1,0.0,1.5785000000000053
11,17,0.4,0.25,35.0,-1,0.0,0.21999999999999886
12,17,0.5,1.0,35.0,1,1.0,0.2582009999999997
13,17,0.5,0.5,35.0,1,1.0,0.2769000000000119
14,17,0.5,0.25,-35.0,-1,1.0,2.5270010000000127
15,17,0.5,1.0,35.0,1,1.0,0.17199999999999704
16,17,0.5,0.25,-35.0,-1,1.0,0.7137000000000029
17,17,0.5,1.0,35.0,1,1.0,0.19030000000000769
18,17,0.5,0.25,-35.0,-1,1.0,1.8991000000000184
19,17,0.5,0.25,35.0,1,1.0,0.4624999999999915
20,17,0.5,0.25,-35.0,-1,1.0,0.4225010000000111
21,17,0.5,1.0,-35.0,-1,1.0,1.0373000000000019
22,17,0.5,0.25,-35.0,1,0.0,0.13160000000000593
23,17,0.5,0.125,35.0,1,1.0,0.2575999999999965
24,17,0.5,0.25,35.0,1,1.0,1.0470009999999945
25,17,0.5,0.5,35.0,1,1.0,2.470300000000009
26,17,0.5,0.125,-35.0,1,0.0,0.1880000000000024
27,17,0.5,0.25,35.0,1,1.0,0.22859999999998593
28,17,0.5,0.5,35.0,1,1.0,0.3235000000000099
29,17,0.5,1.0,35.0,1,1.0,1.9303000000000026
30,17,0.5,0.125,-35.0,-1,1.0,0.9480999999999824
31,17,0.5,0.5,35.0,1,1.0,1.6297999999999888
32,17,0.5,1.0,35.0,1,1.0,0.20539999999999736
33,17,0.5,1.0,-35.0,-1,1.0,1.4034000000000049
34,17,0.5,0.125,35.0,-1,0.0,3.4078999999999837
35,17,0.7,0.125,-35.0,1,0.0,1.0604999999999905
36,17,0.5,0.5,-35.0,-1,1.0,0.4038010000000156
37,17,0.5,0.25,-35.0,1,0.0,0.18789999999998486
38,17,0.6,0.25,-35.0,-1,1.0,1.633199999999988
39,17,0.5,0.5,-35.0,-1,1.0,0.29529999999999745
40,17,0.5,0.25,35.0,1,1.0,0.21000100000000543
41,17,0.5,0.25,35.0,1,1.0,0.7351999999999919
42,17,0.5,0.25,-35.0,-1,1.0,0.4136000000000024
43,17,0.5,1.0,35.0,1,1.0,0.1331000000000131
44,17,0.5,1.0,-35.0,-1,1.0,0.20520000000001914
45,17,0.5,0.5,-35.0,-1,1.0,1.3186000000000035
46,17,0.5,0.25,-35.0,-1,1.0,0.5092999999999677
47,17,0.5,0.5,35.0,1,1.0,0.3680999999999983
48,17,0.5,0.25,35.0,-1,0.0,0.8610999999999933
49,17,0.4,0.25,35.0,1,1.0,0.22630000000000905
50,17,0.5,0.5,35.0,1,1.0,0.2436999999999614
51,17,0.5,1.0,-35.0,-1,1.0,0.388101000000006
52,17,0.5,1.0,-35.0,-1,1.0,2.0789999999999793
53,17,0.5,0.25,35.0,1,1.0,0.20109999999999673
54,17,0.5,1.0,35.0,1,1.0,0.16969999999997754
55,17,0.5,0.25,-35.0,-1,1.0,0.4265999999999792
56,17,0.5,0.5,-35.0,1,0.0,0.09429999999997563
57,17,0.6,0.5,35.0,1,1.0,0.1910999999999774
58,17,0.5,0.5,35.0,-1,0.0,1.0168010000000152
59,17,0.6,0.5,35.0,1,1.0,0.24030000000001905
60,17,0.5,1.0,35.0,1,1.0,0.2920000000000016
61,17,0.5,0.25,35.0,1,1.0,0.4863000000000284
62,17,0.5,1.0,-35.0,-1,1.0,0.49749999999994543
63,17,0.5,0.5,35.0,1,1.0,0.23570000000000846
64,17,0.5,1.0,35.0,1,1.0,2.1292000000000257
65,17,0.5,0.5,35.0,1,1.0,0.35550000000000637
66,17,0.5,0.125,-35.0,-1,1.0,0.5833000000000652
67,17,0.5,0.125,35.0,1,1.0,0.3137999999999579
68,17,0.5,0.125,-35.0,-1,1.0,1.6526999999999816
69,17,0.5,0.125,35.0,1,1.0,1.4617000000000075
70,17,0.5,1.0,-35.0,1,0.0,0.15790000000004056
71,17,0.5,0.25,-35.0,1,0.0,0.20940100000001394
72,17,0.7,0.25,-35.0,-1,1.0,0.4451999999999998
73,17,0.5,1.0,35.0,1,1.0,0.4855000000000018
74,17,0.5,0.125,-35.0,-1,1.0,0.44479999999998654
75,17,0.5,0.25,35.0,1,1.0,0.32560000000000855
76,17,0.5,0.25,-35.0,-1,1.0,0.48399999999998045
77,17,0.5,1.0,-35.0,-1,1.0,0.3505999999999858
78,17,0.5,1.0,-35.0,-1,1.0,0.39189999999996417
79,17,0.5,1.0,-35.0,-1,1.0,0.21989999999999554
80,17,0.5,1.0,35.0,1,1.0,0.9425999999999704
81,17,0.5,0.25,-35.0,-1,1.0,0.48989999999997735
82,17,0.5,0.5,-35.0,-1,1.0,0.4685000000000059
83,17,0.5,0.25,-35.0,-1,1.0,0.4466000000000463
84,17,0.5,1.0,35.0,1,1.0,0.41989999999992733
85,17,0.5,0.25,-35.0,-1,1.0,0.48059999999998126
86,17,0.5,0.25,-35.0,-1,1.0,0.4067000000000007
87,17,0.5,0.5,35.0,1,1.0,0.3591999999999871
88,17,0.5,0.125,-35.0,-1,1.0,0.30230000000000246
89,17,0.5,0.5,35.0,1,1.0,0.4947010000000205
90,17,0.5,1.0,35.0,1,1.0,0.172300000000007
91,17,0.5,0.125,-35.0,-1,1.0,1.521599999999978
92,17,0.5,0.5,-35.0,-1,1.0,0.3933999999999287
93,17,0.5,0.25,-35.0,-1,1.0,0.40960000000001173
94,17,0.5,0.5,-35.0,-1,1.0,0.3417999999999779
95,17,0.5,0.25,35.0,1,1.0,1.1426010000000133
96,17,0.5,1.0,35.0,1,1.0,0.4773999999999887
97,17,0.5,1.0,-35.0,-1,1.0,0.1470000000000482
98,17,0.5,0.25,35.0,1,1.0,0.23270000000002256
99,17,0.5,0.5,-35.0,-1,1.0,0.4037999999999897
100,17,0.5,0.5,35.0,1,1.0,0.3032000000000039
101,17,0.5,0.5,35.0,-1,0.0,0.36299999999999955
102,17,0.4,0.5,-35.0,-1,1.0,0.21829999999999927
103,17,0.5,0.5,-35.0,-1,1.0,0.4287010000000464
104,17,0.5,1.0,35.0,1,1.0,1.0238000000000511
105,17,0.5,1.0,35.0,1,1.0,0.17809999999997217
106,17,0.5,0.25,35.0,-1,0.0,0.41960000000000264
107,17,0.4,0.25,-35.0,-1,1.0,0.2867999999999711
108,17,0.5,1.0,35.0,1,1.0,0.1313000000000102
109,17,0.5,1.0,-35.0,-1,1.0,0.387800000000027
110,17,0.5,0.5,35.0,1,1.0,0.27500099999997474
111,17,0.5,1.0,35.0,-1,0.0,0.1705000000000041
112,17,0.4,1.0,35.0,1,1.0,0.24860100000000784
113,17,0.5,0.5,-35.0,-1,1.0,0.4548000000000343
114,17,0.5,0.5,35.0,1,1.0,1.970700000000022
115,17,0.5,0.5,35.0,1,1.0,0.9042999999999779
116,17,0.5,1.0,35.0,1,1.0,0.28770099999997
117,17,0.5,0.5,-35.0,-1,1.0,0.44729999999998427
118,17,0.5,0.25,35.0,1,1.0,0.1408010000000104
119,17,0.5,1.0,35.0,1,1.0,0.22699999999997544
120,17,0.5,0.25,35.0,1,1.0,0.6069999999999709
121,17,0.5,0.5,35.0,1,1.0,0.09539999999998372
122,17,0.5,0.5,35.0,1,1.0,1.0084999999999695
123,17,0.5,1.0,-35.0,-1,1.0,0.6018010000000231
124,17,0.5,0.125,35.0,1,1.0,0.23339999999996053
125,17,0.5,0.5,-35.0,-1,1.0,1.2012000000000285
126,17,0.5,0.25,-35.0,1,0.0,-0.036899999999945976
127,17,0.5,0.25,-35.0,-1,1.0,0.3622010000000273
128,17,0.5,1.0,-35.0,-1,1.0,0.565300000000093
129,17,0.5,0.5,35.0,1,1.0,1.6380000000001473
130,17,0.5,1.0,35.0,1,1.0,0.23380100000008497
131,17,0.5,0.5,35.0,1,1.0,0.213799999999992
132,17,0.5,0.25,35.0,1,1.0,0.19400000000007367
133,17,0.5,0.5,-35.0,-1,1.0,0.35730000000012296
134,17,0.5,1.0,-35.0,-1,1.0,0.03260000000011587
135,17,0.5,1.0,-35.0,-1,1.0,0.484299999999962
136,17,0.5,0.5,35.0,1,1.0,0.11750100000006114
137,17,0.5,0.25,35.0,1,1.0,0.5708000000000766
138,17,0.5,0.25,35.0,1,1.0,0.15000099999997474
139,17,0.5,1.0,35.0,1,1.0,0.19410000000004857
140,17,0.5,1.0,35.0,1,1.0,0.13999999999998636
141,17,0.5,0.125,35.0,-1,0.0,1.324100000000044
142,17,0.6,0.125,-35.0,-1,1.0,0.39750000000015007
143,17,0.5,1.0,-35.0,-1,1.0,0.1230000000000473
144,17,0.5,0.25,35.0,1,1.0,0.6675999999999931
145,17,0.5,0.125,35.0,1,1.0,0.0961010000000897
146,17,0.5,0.5,35.0,1,1.0,0.37570000000005166
147,17,0.5,0.25,35.0,1,1.0,0.2050010000000384
148,17,0.5,1.0,-35.0,-1,1.0,0.41640000000006694
149,17,0.5,0.125,-35.0,-1,1.0,0.5390009999999847
150,17,0.5,0.5,35.0,1,1.0,0.461400000000026
151,17,0.5,0.25,35.0,1,1.0,0.17470000000002983
152,17,0.5,1.0,35.0,1,1.0,0.18689999999992324
153,17,0.5,0.125,-35.0,-1,1.0,0.27150000000006
154,17,0.5,0.25,35.0,1,1.0,0.19660000000010314
155,17,0.5,1.0,-35.0,-1,1.0,1.004000000000019
156,17,0.5,1.0,-35.0,-1,1.0,0.4473000000000411
157,17,0.5,0.0625,35.0,1,1.0,0.6246000000001004
158,17,0.5,0.25,35.0,-1,0.0,1.3132000000000517
159,17,0.5,0.125,35.0,-1,0.0,0.22000000000002728
160,17,0.5,0.0625,35.0,1,1.0,0.8651000000000977
161,17,0.5,0.5,-35.0,-1,1.0,0.36180000000013024
162,17,0.5,1.0,35.0,1,1.0,0.3544000000000551
163,17,0.5,0.5,35.0,1,1.0,0.18360100000006696
164,17,0.5,0.125,-35.0,-1,1.0,0.5490999999999531
165,17,0.5,1.0,35.0,1,1.0,0.22950000000003
166,17,0.5,0.125,-35.0,-1,1.0,2.121201000000042
167,17,0.5,0.25,35.0,-1,0.0,0.3220999999999776
168,17,0.5,0.125,-35.0,-1,1.0,0.29930000000001655
169,17,0.5,1.0,35.0,1,1.0,0.16430000000002565
170,17,0.5,0.0625,-35.0,-1,1.0,0.346300000000042
171,17,0.5,0.0625,35.0,-1,0.0,1.879000000000019
172,17,0.5,0.0625,35.0,1,1.0,0.13300100000003567
173,17,0.5,0.0625,35.0,-1,0.0,0.5148000000000366
174,17,0.3,0.0625,35.0,1,1.0,0.21050000000002456
175,17,0.5,0.5,35.0,1,1.0,0.19479999999998654
176,17,0.5,0.125,35.0,1,1.0,1.093800999999985
177,17,0.5,0.0625,-35.0,1,0.0,0.307901000000129
178,17,0.5,0.125,35.0,-1,0.0,3.4627000000000407
179,17,0.5,0.25,35.0,1,1.0,0.21109999999998763
180,17,0.5,1.0,-35.0,-1,1.0,0.4275000000001228
181,17,0.5,0.5,-35.0,-1,1.0,0.4108000000001084
182,17,0.5,1.0,-35.0,-1,1.0,0.46020000000009986
183,17,0.5,0.25,35.0,-1,0.0,0.3432999999999993
184,17,0.5,0.25,-35.0,-1,1.0,0.1512000000000171
185,17,0.5,0.5,35.0,1,1.0,1.8134000000000015
186,17,0.5,1.0,-35.0,-1,1.0,0.306699999999978
187,17,0.5,0.0625,35.0,-1,0.0,0.26080000000013115
188,17,0.5,0.125,-35.0,1,0.0,0.2611010000000533
189,17,0.5,0.25,-35.0,-1,1.0,0.1995000000000573
190,17,0.5,0.5,35.0,-1,0.0,0.45830100000011953
191,17,0.2,0.5,-35.0,-1,1.0,0.4389000000001033
192,17,0.5,0.5,35.0,1,1.0,2.019700000000057
193,17,0.5,0.125,35.0,1,1.0,0.47240000000010696
194,17,0.5,0.0625,35.0,1,1.0,0.336400000000026
195,17,0.5,1.0,-35.0,-1,1.0,0.3687000000001035
196,17,0.5,0.125,-35.0,-1,1.0,0.41390000000001237
197,17,0.5,0.125,-35.0,-1,1.0,0.3574999999999591
198,17,0.5,0.125,-35.0,-1,1.0,0.22850000000005366
199,17,0.5,1.0,-35.0,-1,1.0,0.6580000000000155
200,17,0.5,0.0625,-35.0,-1,1.0,0.49460000000010496
201,17,0.5,0.0625,35.0,-1,0.0,0.2863000000000966
202,17,0.5,0.25,-35.0,-1,1.0,0.2637000000000853
203,17,0.5,0.125,-35.0,-1,1.0,1.3677999999999884
204,17,0.5,0.25,35.0,1,1.0,0.24740000000008422
205,17,0.5,0.25,-35.0,-1,1.0,0.48889999999994416
206,17,0.5,1.0,-35.0,-1,1.0,0.26130000000000564
207,17,0.5,0.125,35.0,-1,0.0,1.3573010000000068
208,17,0.1,0.125,35.0,1,1.0,0.07270000000005439
209,17,0.5,0.5,35.0,1,1.0,0.2573000000001002
210,17,0.5,0.125,35.0,1,1.0,0.9081010000001015
211,17,0.5,0.5,-35.0,-1,1.0,0.213500000000181
212,17,0.5,0.0625,35.0,-1,0.0,0.3512000000000626
213,17,0.4,0.0625,35.0,-1,0.0,0.42760100000009515
214,17,0.5,0.5,35.0,-1,0.0,0.16669999999999163
215,17,0.3,0.5,35.0,1,1.0,0.3727000000000089
216,17,0.5,0.5,35.0,-1,0.0,1.4554000000000542
217,17,0.4,0.5,35.0,1,1.0,0.2818000000000893
218,17,0.5,1.0,35.0,1,1.0,0.2598000000000411
219,17,0.5,0.125,-35.0,-1,1.0,0.28489999999999327
220,17,0.5,0.5,-35.0,1,0.0,0.1749010000000908
221,17,0.5,0.125,-35.0,-1,1.0,0.2539000000000442
222,17,0.5,0.125,35.0,1,1.0,0.4090000000001055
223,17,0.5,1.0,35.0,1,1.0,0.25710000000003674
224,17,0.5,0.125,35.0,1,1.0,0.9504000000001724
225,17,0.5,1.0,-35.0,-1,1.0,0.5445000000000846
226,17,0.5,0.125,-35.0,-1,1.0,0.8792010000000801
227,17,0.5,0.5,35.0,1,1.0,0.34120000000007167
228,17,0.5,0.5,35.0,-1,0.0,0.34300100000007205
229,17,0.5,0.125,35.0,-1,0.0,0.6159999999999854
230,17,0.5,0.125,-35.0,-1,1.0,0.2175999999999476
231,17,0.5,0.5,-35.0,-1,1.0,0.4067000000000007
232,17,0.5,0.5,35.0,1,1.0,0.818300000000022
233,17,0.5,0.25,35.0,1,1.0,0.18410100000016882
234,17,0.5,0.25,35.0,-1,0.0,2.0133999999999332
235,17,0.5,0.125,-35.0,1,0.0,0.23330000000009932
236,17,0.5,0.25,35.0,1,1.0,0.5076000000001386
237,17,0.5,0.5,-35.0,-1,1.0,0.4296000000001641
238,17,0.5,0.0625,35.0,1,1.0,0.24730000000010932
239,17,0.5,0.25,-35.0,-1,1.0,0.8897000000000617
240,17,0.5,0.25,35.0,1,1.0,0.23410000000012587
241,17,0.5,0.25,-35.0,-1,1.0,0.4189000000000078
242,17,0.5,0.25,-35.0,-1,1.0,1.6292000000000826
243,17,0.5,0.125,35.0,1,1.0,0.7992000000001553
244,17,0.5,0.5,35.0,1,1.0,0.9286009999999578
245,17,0.5,0.0625,-35.0,-1,1.0,0.5710000000000264
246,17,0.5,0.5,35.0,1,1.0,0.1730000000001155
247,17,0.5,0.25,-35.0,1,0.0,0.21570099999996728
248,17,0.5,0.0625,35.0,-1,0.0,0.38810000000000855
249,17,0.5,0.25,-35.0,-1,1.0,0.5359000000000833
250,17,0.5,0.125,-35.0,-1,1.0,0.5126010000001315
251,17,0.5,1.0,-35.0,-1,1.0,1.8233000000000175
252,17,0.5,0.125,35.0,1,1.0,0.2923999999999296
253,17,0.5,0.125,-35.0,-1,1.0,0.5260999999999285
254,17,0.5,0.0625,-35.0,-1,1.0,1.8818009999999958
255,17,0.5,0.5,35.0,1,1.0,0.19610000000000127
256,17,0.5,0.5,35.0,1,1.0,0.19690000000014152
257,17,0.5,1.0,35.0,1,1.0,2.160600000000045
258,17,0.5,0.25,-35.0,1,0.0,0.20070000000009713
259,17,0.5,0.25,35.0,1,1.0,0.2173010000000204
260,17,0.5,1.0,35.0,1,1.0,0.21410000000014406
261,17,0.5,1.0,35.0,1,1.0,0.26410100000009606
262,17,0.5,0.5,35.0,1,1.0,0.18419999999991887
263,17,0.5,0.5,35.0,1,1.0,0.21420100000000275
264,17,0.5,0.25,-35.0,-1,1.0,0.5142999999999347
265,17,0.5,0.25,-35.0,1,0.0,0.07089999999993779
266,17,0.5,0.0625,35.0,1,1.0,0.31770000000005894
267,17,0.5,1.0,-35.0,1,0.0,1.437701000000061
268,17,0.5,0.0625,-35.0,-1,1.0,0.6111009999999624
269,17,0.5,0.0625,35.0,1,1.0,0.06789999999978136
270,17,0.5,1.0,35.0,1,1.0,0.051199999999880674
271,17,0.5,0.5,-35.0,-1,1.0,1.3211999999998625
272,17,0.5,0.25,-35.0,1,0.0,0.23129999999991924
273,17,0.7,0.25,-35.0,-1,1.0,0.13799999999991996
274,17,0.5,1.0,-35.0,-1,1.0,0.4546999999997752
275,17,0.5,1.0,-35.0,-1,1.0,0.5980999999997039
276,17,0.5,0.5,-35.0,1,0.0,0.1914999999999054
277,17,0.5,0.5,35.0,1,1.0,0.23829999999998108
278,17,0.5,1.0,35.0,1,1.0,0.18830000000002656
279,17,0.5,0.125,-35.0,-1,1.0,1.3115999999999985
280,17,0.5,0.25,-35.0,1,0.0,2.751700999999912
281,17,0.5,0.25,-35.0,-1,1.0,0.38170100000002094
282,17,0.5,1.0,-35.0,-1,1.0,0.30179999999995744
283,17,0.5,1.0,-35.0,-1,1.0,3.475199999999859
284,17,0.5,0.125,35.0,-1,0.0,0.6718999999998232
285,17,0.5,0.25,35.0,1,1.0,0.25530000000003383
286,17,0.5,0.25,35.0,1,1.0,0.2686999999998534
287,17,0.5,1.0,35.0,1,1.0,0.16529999999988831
288,17,0.5,1.0,-35.0,1,0.0,0.1587010000000646
289,17,0.5,1.0,35.0,1,1.0,0.22540000000003602
290,17,0.5,0.5,-35.0,1,0.0,0.172099999999773
291,17,0.6,0.5,35.0,1,1.0,0.25890000000003965
292,17,0.5,0.5,35.0,1,1.0,2.2590010000001257
293,17,0.5,0.125,-35.0,-1,1.0,0.7055999999997766
294,17,0.5,0.125,-35.0,-1,1.0,0.4057000000000244
295,17,0.5,0.5,35.0,1,1.0,0.1856999999999971
296,17,0.5,0.5,-35.0,-1,1.0,0.48579999999969914
297,17,0.5,0.125,35.0,-1,0.0,0.5524000000000342
298,17,0.5,0.25,-35.0,1,0.0,0.185799999999972
299,17,0.6,0.25,35.0,1,1.0,0.2825000000000273
300,17,0.5,1.0,-35.0,-1,1.0,2.005899999999883
301,17,0.5,1.0,35.0,1,1.0,0.24260000000003856
302,17,0.5,0.5,35.0,1,1.0,0.3326999999999316
303,17,0.5,0.0625,35.0,1,1.0,0.169399999999996
304,17,0.5,0.25,35.0,1,1.0,0.20279999999979736
305,17,0.5,0.25,35.0,1,1.0,0.26280099999985396
306,17,0.5,0.5,-35.0,1,0.0,0.20620000000008076
307,17,0.8,0.5,-35.0,1,0.0,0.2230010000000675
308,17,0.9,0.5,-35.0,-1,1.0,0.39629999999988286
309,17,0.5,0.5,-35.0,-1,1.0,0.37969999999995707
310,17,0.5,0.125,35.0,1,1.0,1.0231000000001131
311,17,0.5,0.5,35.0,1,1.0,0.21319999999991524
312,17,0.5,0.0625,-35.0,1,0.0,0.12989999999990687
313,17,0.8,0.0625,-35.0,1,0.0,0.21650100000010752
314,17,0.5,0.5,-35.0,-1,1.0,0.45329999999989923
315,17,0.5,0.125,35.0,1,1.0,0.26999999999975444
316,17,0.5,0.0625,-35.0,-1,1.0,0.2566999999999098
317,17,0.5,0.125,-35.0,-1,1.0,0.378400000000056
318,17,0.5,0.0625,-35.0,1,0.0,0.21689999999966858
319,17,0.5,0.0625,35.0,-1,0.0,0.4835000000000491
320,17,0.6,0.0625,-35.0,-1,1.0,1.3201999999998861
321,17,0.5,1.0,-35.0,-1,1.0,0.827000999999882
322,17,0.5,0.0625,-35.0,-1,1.0,0.2536999999999807
323,17,0.5,0.0625,-35.0,-1,1.0,2.2687009999999646
324,17,0.5,0.125,-35.0,-1,1.0,0.3104009999999562
325,17,0.5,1.0,-35.0,-1,1.0,0.36720000000013897
326,17,0.5,0.5,35.0,1,1.0,0.2439009999998234
327,17,0.5,0.125,35.0,1,1.0,0.43390099999987797
328,17,0.5,0.125,-35.0,-1,1.0,0.8872010000000046
329,17,0.5,0.125,-35.0,-1,1.0,0.4773009999998976
330,17,0.5,0.25,35.0,1,1.0,0.2173009999999067
331,17,0.5,0.25,-35.0,-1,1.0,1.307401999999911
332,17,0.5,0.0625,35.0,1,1.0,1.6022009999999227
333,17,0.5,1.0,-35.0,-1,1.0,0.37410099999988233
334,17,0.5,0.125,-35.0,1,0.0,0.2108019999998305
335,17,0.5,0.125,35.0,1,1.0,0.26090099999987615
336,17,0.5,0.125,-35.0,-1,1.0,1.9242009999998118
337,17,0.5,0.5,-35.0,-1,1.0,0.28430199999979777
338,17,0.5,0.5,-35.0,-1,1.0,0.40770100000008824
339,17,0.5,1.0,-35.0,-1,1.0,0.4978009999997539
340,17,0.5,1.0,-35.0,-1,1.0,0.09440100000006169
341,17,0.5,0.25,-35.0,-1,1.0,1.7578010000001996
342,17,0.5,0.5,35.0,1,1.0,0.23460199999999531
343,17,0.5,0.125,35.0,1,1.0,0.32460100000002967
344,17,0.5,0.5,-35.0,-1,1.0,0.36130199999979595
345,17,0.5,1.0,35.0,1,1.0,0.2213010000000395
346,17,0.5,0.25,-35.0,-1,1.0,0.2814009999999598
347,17,0.5,0.5,35.0,1,1.0,0.25150200000007317
348,17,0.5,0.5,35.0,1,1.0,0.4415009999997892
349,17,0.5,1.0,-35.0,-1,1.0,0.2849020000001019
350,17,0.5,0.25,-35.0,-1,1.0,1.8916019999999207
351,17,0.5,1.0,35.0,1,1.0,0.5250009999999747
352,17,0.5,0.125,35.0,1,1.0,0.16830099999992854
353,17,0.5,0.5,35.0,1,1.0,0.29840199999989636
354,17,0.5,0.25,35.0,1,1.0,0.28510099999994054
355,17,0.5,0.5,35.0,1,1.0,0.19850099999985105
356,17,0.5,1.0,-35.0,1,0.0,0.098500999999942
357,17,0.8,1.0,-35.0,-1,1.0,0.465300999999954
358,17,0.5,1.0,35.0,1,1.0,0.23530100000016319
359,17,0.5,0.125,-35.0,-1,1.0,0.8654010000000198
360,17,0.5,0.0625,-35.0,-1,1.0,2.082102000000077
361,17,0.5,0.0625,-35.0,-1,1.0,0.6489010000000235
362,17,0.5,0.125,35.0,-1,0.0,0.6589010000000144
363,17,0.5,0.125,-35.0,-1,1.0,0.42550199999982397
364,17,0.5,0.5,35.0,1,1.0,0.23890099999994163
365,17,0.5,0.5,35.0,-1,0.0,1.7289009999999507
366,17,0.5,0.0625,35.0,1,1.0,0.5357010000000173
367,17,0.5,0.5,-35.0,-1,1.0,0.3025009999998929
368,17,0.5,0.125,35.0,1,1.0,0.5358009999997648
369,17,0.5,1.0,35.0,1,1.0,0.18250100000000202
370,17,0.5,0.25,35.0,-1,0.0,2.3280010000000857
371,17,0.4,0.25,35.0,1,1.0,1.2027020000000448
372,17,0.5,0.5,35.0,1,1.0,0.2893010000000231
373,17,0.5,1.0,-35.0,-1,1.0,0.27610200000003715
374,17,0.5,0.125,-35.0,-1,1.0,1.3527009999997972
375,17,0.5,0.5,35.0,1,1.0,0.28280100000006314
376,17,0.5,0.0625,35.0,-1,0.0,0.4195009999998547
377,17,0.5,0.25,35.0,1,1.0,0.4095009999998638
378,17,0.5,1.0,35.0,1,1.0,1.382900999999947
379,17,0.5,0.0625,-35.0,-1,1.0,0.6295009999998911
380,17,0.5,1.0,-35.0,-1,1.0,0.4029009999999289
381,17,0.5,0.25,-35.0,-1,1.0,0.34300099999995837
382,17,0.5,1.0,35.0,1,1.0,1.3463009999998121
383,17,0.5,0.5,-35.0,-1,1.0,0.3564010000000053
384,17,0.5,0.125,35.0,1,1.0,3.886500999999953
385,17,0.5,0.0625,35.0,1,1.0,0.49310099999979684
386,17,0.5,0.0625,-35.0,-1,1.0,1.5865019999998822
387,17,0.5,0.125,35.0,1,1.0,3.4600010000001475
388,17,0.5,0.125,-35.0,-1,1.0,0.6501019999998334
389,17,0.5,0.125,35.0,1,1.0,0.6301009999997405
390,17,0.5,0.0625,-35.0,-1,1.0,0.5803009999997357
391,17,0.5,1.0,35.0,1,1.0,0.14700100000004568
392,17,0.5,0.25,-35.0,-1,1.0,0.2337009999998827
393,17,0.5,0.25,35.0,1,1.0,0.23050099999977647
394,17,0.5,0.125,35.0,1,1.0,0.40390099999990525
395,17,0.5,0.0625,-35.0,-1,1.0,2.2871009999998932
396,17,0.5,0.5,-35.0,-1,1.0,0.680400999999847
397,17,0.5,1.0,-35.0,-1,1.0,0.41390099999989616
398,17,0.5,1.0,-35.0,-1,1.0,0.5107010000001537
399,17,0.5,0.25,35.0,1,1.0,0.2738019999999324
400,17,0.5,0.0625,-35.0,-1,1.0,1.9276009999998678
401,17,0.5,0.25,35.0,1,1.0,2.127401000000191
402,17,0.5,0.5,35.0,1,1.0,0.22420099999999366
403,17,0.5,0.0625,35.0,-1,0.0,0.524000999999771
404,17,0.5,0.25,35.0,1,1.0,0.24800099999993108
405,17,0.5,0.0625,35.0,1,1.0,0.24080100000014681
406,17,0.5,0.5,35.0,1,1.0,0.2379009999997379
407,17,0.5,0.0,-35.0,-1,1.0,0.21440099999972517
408,17,0.5,0.0625,35.0,1,1.0,0.88790199999994
409,17,0.5,0.25,-35.0,-1,1.0,0.5578009999996993
410,17,0.5,0.0,-35.0,-1,1.0,1.5112010000000282
411,17,0.5,0.5,-35.0,-1,1.0,1.0446009999998296
412,17,0.5,1.0,35.0,1,1.0,0.34130099999993035
413,17,0.5,0.0625,35.0,1,1.0,1.0680009999998674
414,17,0.5,0.25,-35.0,-1,1.0,0.7713019999996504
415,17,0.5,0.25,-35.0,-1,1.0,0.40140199999996184
416,17,0.5,0.125,-35.0,-1,1.0,0.47490199999970173
417,17,0.5,0.5,35.0,1,1.0,0.6481009999999969
418,17,0.5,1.0,-35.0,-1,1.0,0.8313020000000506
419,17,0.5,0.25,35.0,1,1.0,3.1051019999997607
420,17,0.5,1.0,35.0,1,1.0,0.27520099999992453
421,17,0.5,0.0,-35.0,1,0.0,0.9587010000000191
422,17,0.6,0.0,35.0,-1,0.0,0.5018009999998867
423,17,0.5,0.5,-35.0,-1,1.0,0.3949009999998907
424,17,0.5,1.0,-35.0,-1,1.0,0.6783009999999194
425,17,0.5,0.0625,-35.0,-1,1.0,1.185200999999779
426,17,0.5,0.25,35.0,-1,0.0,2.1519020000000637
427,17,0.4,0.25,35.0,1,1.0,1.7186010000000351
428,17,0.5,0.5,35.0,1,1.0,0.27540099999987433
429,17,0.5,0.0625,35.0,1,1.0,2.3086020000000644
430,17,0.5,0.25,-35.0,-1,1.0,0.3721009999999296
431,17,0.5,0.25,-35.0,-1,1.0,3.1423009999998612
432,17,0.5,0.0625,35.0,-1,0.0,0.5057010000000446
433,17,0.5,0.125,-35.0,-1,1.0,0.5690009999998438
434,17,0.5,0.25,-35.0,-1,1.0,4.975601000000097
435,17,0.5,0.125,35.0,1,1.0,2.0923009999999067
436,17,0.5,0.25,35.0,1,1.0,0.2824009999999362
437,17,0.5,0.125,35.0,1,1.0,0.3461019999999735
438,17,0.5,0.125,-35.0,-1,1.0,3.015700999999808
439,17,0.5,1.0,-35.0,-1,1.0,0.28620200000000295
440,17,0.5,0.0,35.0,-1,0.0,0.42630099999996673
441,17,0.5,0.125,35.0,-1,0.0,0.3962010000000191
442,17,0.3,0.125,35.0,-1,0.0,3.0862010000000737
443,17,0.5,0.5,35.0,1,1.0,0.2530010000000402
444,17,0.5,1.0,35.0,1,1.0,0.21610099999998056
445,17,0.5,0.0625,-35.0,-1,1.0,0.3265009999997801
446,17,0.5,0.0625,35.0,1,1.0,0.4532010000000355
447,17,0.5,1.0,-35.0,-1,1.0,1.1632010000000719
448,17,0.5,0.0,-35.0,1,0.0,3.720000999999911
449,17,0.5,0.125,-35.0,-1,1.0,0.4067009999998845
450,17,0.5,0.125,-35.0,-1,1.0,0.6134020000001783
451,17,0.5,1.0,-35.0,-1,1.0,0.5068009999999958
452,17,0.5,0.5,-35.0,-1,1.0,1.0002009999998336
453,17,0.5,0.0625,-35.0,-1,1.0,0.443400999999767
454,17,0.5,0.0,35.0,1,1.0,0.4335009999999784
455,17,0.5,0.5,35.0,1,1.0,0.2699010000001181
456,17,0.5,0.0625,35.0,1,1.0,1.9204010000000835
457,17,0.5,1.0,-35.0,-1,1.0,0.5069009999999707
458,17,0.5,0.0625,35.0,-1,0.0,0.4167010000001028
459,17,0.5,0.25,-35.0,-1,1.0,0.1704010000000835
460,17,0.5,0.0625,-35.0,-1,1.0,0.32050100000014936
461,17,0.5,0.0625,35.0,-1,0.0,0.2603009999997994
462,17,0.3,0.0625,-35.0,-1,1.0,0.6004010000001472
463,17,0.5,1.0,35.0,1,1.0,0.2739009999997961
464,17,0.5,0.125,35.0,1,1.0,0.25060099999996055
465,17,0.5,0.125,35.0,1,1.0,0.33060199999999895
466,17,0.5,0.25,-35.0,-1,1.0,0.47050100000001294
467,17,0.5,0.125,-35.0,-1,1.0,0.44440099999997074
468,17,0.5,0.125,-35.0,-1,1.0,0.32090100000004895
469,17,0.5,0.0625,-35.0,-1,1.0,1.0305020000000695
470,17,0.5,1.0,-35.0,-1,1.0,0.6910009999999147
471,17,0.5,0.0,35.0,-1,0.0,1.7077009999998154
472,17,0.3,0.0,35.0,-1,0.0,5.407601000000113
473,17,0.5,1.0,-35.0,-1,1.0,0.3479010000000926
474,17,0.5,0.25,-35.0,-1,1.0,0.414400999999998
475,17,0.5,0.25,-35.0,-1,1.0,0.38450099999977283
476,17,0.5,0.0625,-35.0,-1,1.0,0.6814009999998234
477,17,0.5,0.0625,35.0,1,1.0,1.4378010000000359
478,17,0.5,0.25,35.0,1,1.0,0.3078020000000379
479,17,0.5,0.0625,35.0,-1,0.0,0.21460099999990234
480,17,0.5,0.0625,-35.0,-1,1.0,0.38790100000005623
481,17,0.5,0.5,35.0,1,1.0,0.6813010000000759
482,17,0.5,0.5,-35.0,1,0.0,0.20150100000000748
483,17,0.4,0.5,35.0,1,1.0,0.48780100000021775
484,17,0.5,1.0,-35.0,-1,1.0,0.8281009999998332
485,17,0.5,0.0625,35.0,1,1.0,3.324800999999752
486,17,0.5,0.5,35.0,1,1.0,0.3279019999997672
487,17,0.5,0.0,35.0,-1,0.0,4.4282009999999445
488,17,0.5,0.25,35.0,1,1.0,0.29820199999994657
489,17,0.5,0.0625,-35.0,-1,1.0,2.958300999999892
490,17,0.5,0.25,35.0,1,1.0,0.08170100000006641
491,17,0.5,0.5,-35.0,-1,1.0,1.0151009999999587
492,17,0.5,0.25,35.0,1,1.0,0.2518009999998867
493,17,0.5,0.0625,-35.0,1,0.0,0.31510099999991326
494,17,0.5,0.125,35.0,1,1.0,0.5153009999999085
495,17,0.5,0.0,-35.0,1,0.0,1.9052009999998063
496,17,0.7,0.0,-35.0,-1,1.0,2.228501999999935
497,17,0.5,0.5,-35.0,-1,1.0,4.498601000000008
498,17,0.5,0.0625,35.0,1,1.0,0.4388010000000122
499,17,0.5,0.0,-35.0,-1,1.0,4.548900999999887
500,17,0.5,1.0,-35.0,-1,1.0,0.4688009999999849
501,17,0.5,0.0,35.0,1,1.0,4.809101000000055
502,17,0.5,1.0,35.0,1,1.0,12.71260099999995
503,17,0.5,1.0,35.0,1,1.0,4.356101999999964
504,17,0.5,0.25,-35.0,-1,1.0,6.752800999999863
505,17,0.5,1.0,-35.0,-1,1.0,0.5127009999998791
506,17,0.5,0.0,35.0,-1,0.0,16.58980100000008
507,17,0.5,0.0625,-35.0,-1,1.0,4.009801999999809
508,17,0.5,0.125,-35.0,-1,1.0,0.486601999999948
509,17,0.5,0.5,35.0,1,1.0,0.3164010000000417
510,17,0.5,0.25,35.0,-1,0.0,16.059601000000157
511,17,0.4,0.25,-35.0,-1,1.0,2.7402009999998427
512,17,0.5,0.5,35.0,1,1.0,2.203400999999758
513,17,0.5,0.125,35.0,1,1.0,1.5367020000001048
514,17,0.5,0.25,-35.0,-1,1.0,1.943700999999919
515,17,0.5,0.0625,-35.0,1,0.0,9.797100999999884
516,17,0.4,0.0625,35.0,-1,0.0,11.586900999999898
517,17,0.5,1.0,35.0,1,1.0,14.050701999999774
518,17,0.5,0.0,-35.0,-1,1.0,4.951101999999992
519,17,0.5,0.125,35.0,1,1.0,14.151002000000062
520,17,0.5,1.0,-35.0,-1,1.0,0.304602000000159
521,17,0.5,0.5,35.0,-1,0.0,4.211100999999871
522,17,0.5,0.0625,35.0,1,1.0,4.438000999999986
523,17,0.5,1.0,35.0,1,1.0,0.3050020000000586
524,17,0.5,1.0,-35.0,-1,1.0,0.2621009999998023
525,17,0.5,0.5,35.0,1,1.0,0.3849009999998998
526,17,0.5,0.5,-35.0,-1,1.0,0.4551019999998971
527,17,0.5,0.5,35.0,1,1.0,2.204801000000316
528,17,0.5,0.25,35.0,1,1.0,0.342000999999982
529,17,0.5,0.0625,35.0,-1,0.0,5.661601000000246
530,17,0.5,0.125,35.0,-1,0.0,0.7917019999995318
531,17,0.5,0.125,35.0,1,1.0,1.108400999999958
532,17,0.5,0.5,35.0,1,1.0,1.2020009999996546
533,17,0.5,1.0,35.0,1,1.0,0.3019009999998161
534,17,0.5,0.25,35.0,1,1.0,1.8017019999997501
535,17,0.5,0.0625,-35.0,-1,1.0,0.4191009999999551
536,17,0.5,0.5,35.0,1,1.0,0.28530099999989034
537,17,0.5,1.0,-35.0,-1,1.0,0.3319010000000162
538,17,0.5,0.0625,35.0,1,1.0,3.752100999999584
539,17,0.5,0.25,35.0,1,1.0,0.40220099999987724
540,17,0.5,1.0,-35.0,-1,1.0,0.6088010000003123
541,17,0.5,0.0625,-35.0,1,0.0,0.29870100000016464
542,17,0.7,0.0625,35.0,1,1.0,0.32920100000001185
543,17,0.5,0.5,-35.0,-1,1.0,2.6890009999997346
544,17,0.5,1.0,35.0,1,1.0,0.22880099999974846
545,17,0.5,0.0,-35.0,1,0.0,0.29580099999975573
546,17,0.7,0.0,-35.0,-1,1.0,1.128802000000178
547,17,0.5,0.5,-35.0,-1,1.0,0.2692019999999502
548,17,0.5,0.125,35.0,1,1.0,5.482401000000209
549,17,0.5,0.0,-35.0,-1,1.0,8.42620100000022
550,17,0.5,0.125,-35.0,-1,1.0,0.5661010000003444
551,17,0.5,0.0625,-35.0,-1,1.0,5.742800999999872
552,17,0.5,1.0,35.0,1,1.0,0.41280100000039965
553,17,0.5,1.0,-35.0,-1,1.0,1.4898009999997157
554,17,0.5,0.0625,35.0,-1,0.0,5.089900999999827
555,17,0.5,0.25,35.0,1,1.0,0.5363019999995231
556,17,0.5,0.25,-35.0,-1,1.0,0.9564009999999143
