trial_num,session_num,stim_probability_left,contrast,position,response_choice,trial_correct,reaction_time
1,1,0.5,0.0625,-35.0,1,0.0,0.1638999999999995
2,1,0.5,0.0,35.0,-1,0.0,0.24520000000000053
3,1,0.5,1.0,-35.0,-1,1.0,0.15560000000000151
4,1,0.5,1.0,-35.0,-1,1.0,0.19159999999999755
5,1,0.5,0.0,35.0,-1,0.0,0.1811000000000007
6,1,0.5,0.125,-35.0,1,0.0,0.2245999999999988
7,1,0.5,1.0,35.0,1,1.0,0.19159900000000007
8,1,0.5,0.0625,-35.0,-1,1.0,2.379799999999996
9,1,0.5,0.25,-35.0,-1,1.0,0.17839999999999634
10,1,0.5,0.0625,-35.0,-1,1.0,0.20589999999999975
11,1,0.5,1.0,-35.0,-1,1.0,0.15920000000000556
12,1,0.5,0.125,35.0,-1,0.0,0.18200000000000216
13,1,0.5,0.25,35.0,1,1.0,0.19999999999999574
14,1,0.5,1.0,-35.0,-1,1.0,0.18019999999999925
15,1,0.5,0.0625,-35.0,1,0.0,1.1148000000000025
16,1,0.5,0.0,35.0,-1,0.0,0.1612999999999971
17,1,0.5,0.25,-35.0,-1,1.0,0.16029999999999234
18,1,0.5,0.0,35.0,1,1.0,0.2225999999999857
19,1,0.5,1.0,-35.0,-1,1.0,0.1834999999999951
20,1,0.5,0.0625,-35.0,1,0.0,0.27549999999997965
21,1,0.5,0.25,-35.0,-1,1.0,0.22009999999998797
22,1,0.5,0.0,-35.0,-1,1.0,0.21289999999999054
23,1,0.5,0.0,35.0,-1,0.0,0.2465999999999866
24,1,0.5,0.25,-35.0,-1,1.0,0.17929999999998358
25,1,0.5,0.0,-35.0,1,0.0,0.2428989999999942
26,1,0.5,0.125,35.0,1,1.0,1.0402999999999878
27,1,0.5,1.0,-35.0,-1,1.0,0.16960000000000264
28,1,0.5,0.0,35.0,1,1.0,1.6441999999999837
29,1,0.5,1.0,35.0,1,1.0,0.2187990000000184
30,1,0.5,0.0,-35.0,1,0.0,0.23740000000000805
31,1,0.5,1.0,35.0,1,1.0,0.21340000000000714
32,1,0.5,0.0,-35.0,1,0.0,0.23329999999998563
33,1,0.5,0.125,35.0,1,1.0,0.22049999999998704
34,1,0.5,0.125,35.0,1,1.0,0.24670000000000414
35,1,0.5,0.0,35.0,1,1.0,0.2749000000000308
36,1,0.5,0.0625,-35.0,1,0.0,0.3356000000000279
37,1,0.5,1.0,-35.0,-1,1.0,0.1711999999999989
38,1,0.5,0.125,35.0,-1,0.0,0.26779999999999404
39,1,0.5,0.0625,-35.0,1,0.0,0.22630000000000905
40,1,0.5,0.0,-35.0,-1,1.0,9.286500000000018
41,1,0.5,0.0625,-35.0,1,0.0,0.20290000000002806
42,1,0.5,0.125,-35.0,-1,1.0,0.2470000000000141
43,1,0.5,0.125,35.0,1,1.0,0.24350000000004002
44,1,0.5,0.125,-35.0,1,0.0,0.24850000000003547
45,1,0.5,0.0625,-35.0,1,0.0,0.24019900000001826
46,1,0.5,1.0,35.0,1,1.0,0.20400000000003615
47,1,0.5,1.0,35.0,1,1.0,0.22450000000000614
48,1,0.5,0.25,-35.0,-1,1.0,0.19690000000002783
49,1,0.5,0.0625,-35.0,-1,1.0,1.0424000000000149
50,1,0.5,1.0,35.0,1,1.0,2.273300000000006
51,1,0.5,0.25,35.0,1,1.0,0.25259900000000357
52,1,0.5,0.25,35.0,1,1.0,0.2387990000000002
53,1,0.5,1.0,-35.0,-1,1.0,0.2041990000000169
54,1,0.5,1.0,35.0,1,1.0,0.24549999999999272
55,1,0.5,0.125,-35.0,-1,1.0,0.20519900000002167
56,1,0.5,0.0625,-35.0,1,0.0,1.4676999999999794
57,1,0.5,1.0,35.0,1,1.0,0.22129999999998518
58,1,0.5,0.125,35.0,-1,0.0,0.18080000000000496
59,1,0.5,0.0625,-35.0,1,0.0,0.24570000000002779
60,1,0.5,0.0,35.0,-1,0.0,3.574799999999982
61,1,0.5,0.0625,35.0,1,1.0,0.28450000000003683
62,1,0.5,1.0,35.0,1,1.0,0.6388999999999783
63,1,0.5,0.125,-35.0,1,0.0,0.23619999999999663
64,1,0.5,0.0625,-35.0,1,0.0,0.23790000000002465
65,1,0.5,0.0625,-35.0,1,0.0,0.24130000000002383
66,1,0.5,0.25,35.0,1,1.0,0.23849999999998772
67,1,0.5,0.125,-35.0,-1,1.0,0.26499999999998636
68,1,0.5,0.25,35.0,1,1.0,1.9682000000000244
69,1,0.5,0.125,35.0,1,1.0,0.24450000000001637
70,1,0.5,0.0,-35.0,1,0.0,0.22289999999998145
71,1,0.5,0.0625,35.0,1,1.0,0.28000000000002956
72,1,0.5,0.25,35.0,1,1.0,0.2348999999999819
73,1,0.5,0.0,-35.0,1,0.0,0.2576999999999998
74,1,0.5,0.0625,-35.0,1,0.0,0.23279999999999745
75,1,0.5,0.0,35.0,1,1.0,0.24439999999998463
76,1,0.5,0.0625,35.0,1,1.0,0.24579999999997426
77,1,0.5,0.25,35.0,1,1.0,0.22790000000003374
78,1,0.5,0.25,35.0,1,1.0,0.21739999999999782
79,1,0.5,0.0,35.0,1,1.0,0.25909999999998945
80,1,0.5,0.25,35.0,1,1.0,0.2326999999999657
81,1,0.5,0.0625,-35.0,1,0.0,0.2407000000000039
82,1,0.5,0.0,35.0,1,1.0,0.2329000000000292
83,1,0.5,1.0,-35.0,-1,1.0,0.21149900000000343
84,1,0.5,0.125,-35.0,-1,1.0,0.2715999999999781
85,1,0.5,1.0,35.0,1,1.0,0.24389999999999645
86,1,0.5,0.125,-35.0,-1,1.0,0.18190000000004147
87,1,0.5,1.0,-35.0,-1,1.0,0.21329900000000634
88,1,0.5,0.0625,-35.0,1,0.0,0.24529999999998608
89,1,0.5,0.0625,-35.0,1,0.0,0.24559999999996762
90,1,0.5,0.125,-35.0,-1,1.0,0.2015999999999849
91,1,0.8,0.25,-35.0,-1,1.0,0.2623999999999569
92,1,0.8,0.125,-35.0,1,0.0,7.73479999999995
93,1,0.8,0.25,-35.0,1,0.0,0.2697000000000003
94,1,0.8,1.0,35.0,1,1.0,0.2459999999999809
95,1,0.8,0.125,35.0,1,1.0,0.240099999999984
96,1,0.8,0.125,-35.0,-1,1.0,0.23010000000004993
97,1,0.8,1.0,-35.0,-1,1.0,0.19139999999998736
98,1,0.8,0.25,35.0,1,1.0,0.24639999999999418
99,1,0.8,0.125,-35.0,-1,1.0,0.22570000000001755
100,1,0.8,0.0625,-35.0,-1,1.0,1.2972999999999502
101,1,0.8,0.0625,35.0,1,1.0,0.9411999999999807
102,1,0.8,0.25,35.0,1,1.0,0.4730999999999881
103,1,0.8,0.0,-35.0,1,0.0,1.190499999999986
104,1,0.8,0.0625,-35.0,-1,1.0,0.8567000000000462
105,1,0.8,1.0,-35.0,-1,1.0,0.1893000000000029
106,1,0.8,0.0,-35.0,1,0.0,6.7812000000000126
107,1,0.8,0.25,-35.0,-1,1.0,0.22740000000004557
108,1,0.8,0.0625,-35.0,1,0.0,1.5565000000000282
109,1,0.8,0.25,-35.0,1,0.0,0.3423000000000229
110,1,0.8,0.0625,-35.0,1,0.0,0.255299999999977
111,1,0.8,1.0,-35.0,-1,1.0,0.1904999999999859
112,1,0.8,0.0,-35.0,1,0.0,9.665800000000047
113,1,0.8,0.125,-35.0,-1,1.0,0.2196999999999889
114,1,0.8,1.0,-35.0,-1,1.0,0.20839999999986958
115,1,0.8,0.0,-35.0,1,0.0,0.2659999999999627
116,1,0.8,1.0,35.0,1,1.0,0.27480000000002747
117,1,0.8,0.0,-35.0,1,0.0,1.6277000000000044
118,1,0.8,0.0,-35.0,1,0.0,0.24729999999988195
119,1,0.8,0.0625,35.0,1,1.0,0.1893999999999778
120,1,0.8,1.0,35.0,1,1.0,0.19929999999999382
121,1,0.8,0.0,-35.0,1,0.0,0.18479999999999563
122,1,0.8,0.125,-35.0,-1,1.0,0.20270000000004984
123,1,0.8,0.25,-35.0,-1,1.0,0.18029999999998836
124,1,0.8,0.125,-35.0,-1,1.0,0.2277000000000271
125,1,0.8,0.125,-35.0,-1,1.0,0.2000990000000229
126,1,0.8,1.0,-35.0,-1,1.0,0.2121999999998252
127,1,0.2,1.0,35.0,1,1.0,0.30209999999988213
128,1,0.2,0.0,35.0,1,1.0,0.26729999999997744
129,1,0.2,0.25,-35.0,-1,1.0,0.28159999999991214
130,1,0.2,0.25,35.0,1,1.0,0.3106999999999971
131,1,0.2,0.0,35.0,1,1.0,0.2686999999999671
132,1,0.2,0.0,35.0,1,1.0,0.2790989999999738
133,1,0.2,1.0,35.0,1,1.0,0.23489999999992506
134,1,0.2,1.0,35.0,1,1.0,0.27129999999988286
135,1,0.2,0.0625,35.0,-1,0.0,0.09779999999989286
136,1,0.2,0.0,35.0,1,1.0,0.24959999999987303
137,1,0.2,0.125,35.0,1,1.0,0.23840000000006967
138,1,0.2,1.0,35.0,1,1.0,0.2456000000000813
139,1,0.2,0.0625,35.0,1,1.0,0.3310989999999947
140,1,0.2,0.25,35.0,1,1.0,0.2639000000000351
141,1,0.2,0.0,35.0,1,1.0,0.2280999999999267
142,1,0.2,1.0,35.0,1,1.0,0.2746989999999414
143,1,0.2,0.25,35.0,1,1.0,0.28319999999985157
144,1,0.2,0.25,35.0,1,1.0,0.22669999999993706
145,1,0.2,1.0,35.0,1,1.0,0.2477000000000089
146,1,0.2,1.0,35.0,1,1.0,0.2685000000000173
147,1,0.2,0.25,35.0,1,1.0,0.40049999999996544
148,1,0.2,0.0625,35.0,1,1.0,0.41049999999995634
149,1,0.2,0.125,35.0,1,1.0,0.26959999999996853
150,1,0.2,0.25,35.0,1,1.0,0.2687999999998283
151,1,0.2,0.0,35.0,1,1.0,0.2518999999998641
152,1,0.2,0.0,35.0,1,1.0,0.44420000000002346
153,1,0.2,0.125,-35.0,-1,1.0,0.2479999999999336
154,1,0.2,0.125,35.0,1,1.0,0.30320000000006075
155,1,0.2,0.125,35.0,1,1.0,0.24459999999999127
156,1,0.2,0.0625,35.0,1,1.0,0.4673999999999978
157,1,0.2,0.125,-35.0,-1,1.0,0.2663989999999785
158,1,0.2,0.125,35.0,1,1.0,0.28919999999993706
159,1,0.2,0.0,35.0,1,1.0,3.563099999999963
160,1,0.2,0.0625,35.0,1,1.0,0.27710000000001855
161,1,0.2,0.25,35.0,1,1.0,0.40599999999994907
162,1,0.2,1.0,35.0,1,1.0,0.2845999999999549
163,1,0.2,0.25,35.0,1,1.0,0.27340000000003783
164,1,0.2,0.25,35.0,1,1.0,0.2583999999998241
165,1,0.2,0.25,35.0,1,1.0,0.24139999999988504
166,1,0.2,0.25,35.0,1,1.0,0.2578999999999496
167,1,0.2,0.125,35.0,1,1.0,0.21719899999993686
168,1,0.2,0.0,35.0,1,1.0,0.3910999999999376
169,1,0.2,0.125,35.0,1,1.0,0.3345999999999094
170,1,0.2,1.0,35.0,1,1.0,0.24089999999989686
171,1,0.2,1.0,-35.0,-1,1.0,0.19860000000005584
172,1,0.2,0.125,35.0,1,1.0,0.2620000000000573
173,1,0.2,0.125,35.0,1,1.0,0.4117999999999711
174,1,0.2,0.0,35.0,1,1.0,0.23289999999997235
175,1,0.2,0.0625,35.0,1,1.0,0.33950000000004366
176,1,0.2,0.125,35.0,1,1.0,0.24859999999989668
177,1,0.2,0.25,35.0,1,1.0,0.2360999999999649
178,1,0.2,1.0,35.0,1,1.0,0.24719899999990957
179,1,0.2,0.0625,35.0,1,1.0,0.32599999999990814
180,1,0.2,0.25,35.0,1,1.0,0.2279999999999518
181,1,0.2,0.0625,35.0,1,1.0,0.25159899999994195
182,1,0.2,0.0,35.0,1,1.0,0.6552000000000362
183,1,0.2,1.0,-35.0,-1,1.0,0.22069999999996526
184,1,0.2,1.0,-35.0,-1,1.0,0.20090000000004693
185,1,0.2,0.25,35.0,1,1.0,0.2117999999999256
186,1,0.2,0.125,-35.0,1,0.0,1.3041999999999234
187,1,0.2,0.0625,35.0,1,1.0,0.2681999999999789
188,1,0.2,1.0,35.0,1,1.0,0.2626000000000204
189,1,0.2,0.0625,35.0,1,1.0,0.7129999999999654
190,1,0.2,0.25,35.0,1,1.0,0.31749999999988177
191,1,0.2,0.0,-35.0,-1,1.0,15.337099999999964
192,1,0.2,1.0,35.0,1,1.0,0.23569999999995161
193,1,0.2,0.125,-35.0,1,0.0,0.6889999999999645
194,1,0.2,1.0,35.0,1,1.0,0.2381999999998925
195,1,0.2,0.0625,35.0,1,1.0,0.2420999999999367
196,1,0.2,0.0,35.0,1,1.0,0.20299999999986085
197,1,0.2,1.0,35.0,1,1.0,0.3635999999999058
198,1,0.2,0.25,35.0,-1,0.0,0.7619999999999436
199,1,0.8,0.25,35.0,1,1.0,0.20819999999991978
200,1,0.8,0.0625,35.0,1,1.0,0.23490000000003874
201,1,0.8,0.125,-35.0,1,0.0,0.2948999999999842
202,1,0.8,0.25,-35.0,-1,1.0,0.24729999999988195
203,1,0.8,0.0,-35.0,1,0.0,0.3031999999998334
204,1,0.8,0.0625,-35.0,1,0.0,0.9597999999999729
205,1,0.8,1.0,-35.0,-1,1.0,0.17430000000001655
206,1,0.8,1.0,35.0,1,1.0,0.22249999999985448
207,1,0.8,0.125,-35.0,-1,1.0,0.21000000000003638
208,1,0.8,0.125,35.0,1,1.0,0.26699999999993906
209,1,0.8,0.25,-35.0,-1,1.0,0.29109999999991487
210,1,0.8,0.125,-35.0,-1,1.0,0.8018999999999323
211,1,0.8,0.0625,-35.0,1,0.0,0.2885999999998603
212,1,0.8,0.125,-35.0,-1,1.0,0.2459999999998672
213,1,0.8,0.0625,-35.0,-1,1.0,0.31500000000005457
214,1,0.8,0.0625,-35.0,1,0.0,3.536699999999996
215,1,0.8,1.0,-35.0,-1,1.0,0.2037999999998874
216,1,0.8,0.25,-35.0,-1,1.0,0.22549999999989723
217,1,0.8,0.0625,35.0,-1,0.0,0.23279999999988377
218,1,0.8,0.0625,-35.0,-1,1.0,0.2722999999999729
219,1,0.8,0.25,-35.0,-1,1.0,0.37009999999997945
220,1,0.8,1.0,-35.0,-1,1.0,0.21730000000002292
221,1,0.8,0.0625,35.0,1,1.0,0.31740000000002055
222,1,0.8,0.125,35.0,1,1.0,0.30510000000003856
223,1,0.8,0.0,-35.0,1,0.0,0.26729999999986376
224,1,0.8,0.125,-35.0,-1,1.0,0.2605989999999565
225,1,0.8,0.0,-35.0,1,0.0,0.3281000000000631
226,1,0.8,0.25,-35.0,-1,1.0,0.23419999999998709
227,1,0.8,0.0,35.0,-1,0.0,8.85329999999999
228,1,0.8,0.25,-35.0,-1,1.0,0.2522999999998774
229,1,0.8,0.25,-35.0,-1,1.0,0.4173000000000684
230,1,0.8,0.0625,35.0,-1,0.0,0.1895999999999276
231,1,0.8,0.0625,-35.0,-1,1.0,0.47890000000006694
232,1,0.8,0.0625,-35.0,-1,1.0,0.28320000000007894
233,1,0.8,1.0,-35.0,-1,1.0,0.21829999999999927
234,1,0.8,1.0,35.0,1,1.0,0.2401999999999589
235,1,0.8,1.0,-35.0,-1,1.0,0.19890000000009422
236,1,0.8,0.0,-35.0,1,0.0,0.26100000000019463
237,1,0.8,1.0,-35.0,-1,1.0,0.23690000000010514
238,1,0.8,1.0,-35.0,-1,1.0,0.21879999999987376
239,1,0.8,0.0,-35.0,-1,1.0,0.6207999999999174
240,1,0.8,0.0,-35.0,-1,1.0,0.389699999999948
241,1,0.8,0.0,-35.0,1,0.0,0.25840000000016516
242,1,0.8,0.25,-35.0,-1,1.0,0.2135000000000673
243,1,0.8,0.125,-35.0,-1,1.0,0.4992000000002008
244,1,0.8,0.0,-35.0,-1,1.0,0.38800000000014734
245,1,0.2,0.125,35.0,-1,0.0,6.194000000000187
246,1,0.2,0.25,35.0,1,1.0,0.3770999999999276
247,1,0.2,1.0,35.0,1,1.0,0.26320000000009713
248,1,0.2,0.0625,35.0,1,1.0,0.268100000000004
249,1,0.2,0.125,-35.0,-1,1.0,0.2406989999999496
250,1,0.2,0.125,-35.0,-1,1.0,0.23589900000001762
251,1,0.2,0.0,35.0,-1,0.0,7.379000000000133
252,1,0.2,0.25,35.0,1,1.0,0.27140000000008513
253,1,0.2,0.0625,-35.0,-1,1.0,0.5028990000000704
254,1,0.2,0.125,-35.0,-1,1.0,0.27480000000014115
255,1,0.2,0.0625,35.0,1,1.0,0.23700000000008004
256,1,0.2,1.0,35.0,1,1.0,0.23279999999999745
257,1,0.2,0.0625,35.0,1,1.0,0.23489999999992506
258,1,0.2,0.0625,-35.0,1,0.0,0.1937999999997828
259,1,0.2,0.25,-35.0,-1,1.0,0.20010000000002037
260,1,0.2,0.125,35.0,1,1.0,0.22420000000010987
261,1,0.2,0.125,35.0,1,1.0,0.22000000000002728
262,1,0.2,1.0,-35.0,-1,1.0,0.2052000000001044
263,1,0.2,0.0,35.0,1,1.0,0.2904990000001817
264,1,0.2,1.0,-35.0,-1,1.0,0.4095999999999549
265,1,0.2,0.25,-35.0,-1,1.0,0.24179900000012822
266,1,0.2,0.25,35.0,1,1.0,0.3469000000000051
267,1,0.2,1.0,35.0,1,1.0,0.23240000000009786
268,1,0.2,0.0,35.0,1,1.0,0.36780000000021573
269,1,0.2,0.0,35.0,1,1.0,0.2236000000000331
270,1,0.2,0.0625,35.0,1,1.0,0.23240000000009786
271,1,0.2,0.25,35.0,1,1.0,0.2416000000000622
272,1,0.2,0.25,35.0,1,1.0,0.230399000000034
273,1,0.2,1.0,-35.0,-1,1.0,0.45070000000009713
274,1,0.2,0.0625,35.0,1,1.0,0.28500000000008185
275,1,0.2,1.0,35.0,1,1.0,0.2134000000000924
276,1,0.2,1.0,35.0,1,1.0,0.2419999999999618
277,1,0.2,1.0,35.0,1,1.0,0.21400000000016917
278,1,0.2,1.0,35.0,1,1.0,0.19629999999983738
279,1,0.8,1.0,35.0,1,1.0,0.23870000000010805
280,1,0.8,0.25,-35.0,-1,1.0,0.23109999999996944
281,1,0.8,0.0625,-35.0,1,0.0,0.3967000000000098
282,1,0.8,0.0,-35.0,1,0.0,0.20859900000004927
283,1,0.8,1.0,-35.0,-1,1.0,0.21089999999981046
284,1,0.8,1.0,-35.0,-1,1.0,0.21899899999993977
285,1,0.8,0.0625,-35.0,1,0.0,1.7644999999999982
286,1,0.8,0.125,-35.0,-1,1.0,0.4458999999999378
287,1,0.8,0.0625,-35.0,1,0.0,0.2641989999999623
288,1,0.8,1.0,-35.0,-1,1.0,0.19309999999995853
289,1,0.8,0.125,-35.0,-1,1.0,0.27519900000015696
290,1,0.8,0.125,-35.0,-1,1.0,0.4130000000000109
291,1,0.8,1.0,-35.0,-1,1.0,0.18859900000006746
292,1,0.8,0.0,35.0,-1,0.0,0.5008000000000266
293,1,0.8,0.0625,-35.0,-1,1.0,0.2392000000002099
294,1,0.8,1.0,-35.0,-1,1.0,0.20139900000003763
295,1,0.8,0.25,-35.0,-1,1.0,0.20699899999999616
296,1,0.8,0.125,-35.0,-1,1.0,0.43229999999994106
297,1,0.8,0.25,-35.0,-1,1.0,0.2112000000001899
298,1,0.8,0.25,-35.0,-1,1.0,0.20990000000028886
299,1,0.8,0.25,-35.0,-1,1.0,0.22250000000008185
300,1,0.8,0.0,-35.0,1,0.0,0.25020000000017717
301,1,0.8,0.0625,-35.0,-1,1.0,1.70900000000006
302,1,0.8,1.0,-35.0,-1,1.0,0.18729899999993904
303,1,0.8,0.25,-35.0,-1,1.0,0.19910000000004402
304,1,0.8,0.125,-35.0,-1,1.0,0.7946000000001732
305,1,0.8,1.0,35.0,1,1.0,0.25379899999984445
306,1,0.8,1.0,-35.0,-1,1.0,0.2055000000000291
307,1,0.8,0.125,-35.0,-1,1.0,0.46040000000016335
308,1,0.8,0.125,-35.0,1,0.0,0.3990000000001146
309,1,0.2,0.0,35.0,-1,0.0,0.3934999999999036
310,1,0.2,0.25,35.0,1,1.0,3.3800999999998567
311,1,0.2,0.0,-35.0,1,0.0,0.22479999999995925
312,1,0.2,0.125,35.0,1,1.0,0.4492999999999938
313,1,0.2,0.0625,35.0,-1,0.0,0.2925999999999931
314,1,0.2,0.0,35.0,1,1.0,0.2839000000001306
315,1,0.2,1.0,35.0,1,1.0,0.3530000000000655
316,1,0.2,1.0,35.0,1,1.0,0.46850000000017644
317,1,0.2,0.0,35.0,-1,0.0,0.7109000000000378
318,1,0.2,0.0625,-35.0,1,0.0,2.34599900000012
319,1,0.2,1.0,35.0,1,1.0,0.2636000000002241
320,1,0.2,1.0,35.0,1,1.0,0.34209999999984575
321,1,0.2,0.125,35.0,1,1.0,2.707499999999982
322,1,0.2,1.0,35.0,1,1.0,0.2553000000002612
323,1,0.2,0.0,35.0,-1,0.0,0.4308000000000902
324,1,0.2,1.0,35.0,1,1.0,0.2392000000002099
325,1,0.2,1.0,35.0,1,1.0,0.26870000000008076
326,1,0.2,1.0,35.0,1,1.0,0.2600999999999658
327,1,0.2,0.0,35.0,-1,0.0,2.7559000000001106
328,1,0.2,0.125,35.0,1,1.0,0.22710000000006403
329,1,0.2,0.125,-35.0,-1,1.0,0.5858000000000629
330,1,0.2,0.125,35.0,-1,0.0,0.7546999999999571
331,1,0.2,1.0,-35.0,-1,1.0,0.2233000000001084
332,1,0.2,0.0,35.0,-1,0.0,0.5989999999999327
333,1,0.2,0.25,-35.0,-1,1.0,0.25090000000000146
334,1,0.2,0.0,-35.0,-1,1.0,0.48319900000001326
335,1,0.2,0.25,35.0,1,1.0,0.2624000000000706
336,1,0.2,0.0,35.0,1,1.0,16.78459900000007
337,1,0.2,1.0,35.0,-1,0.0,0.43210000000021864
338,1,0.2,1.0,35.0,1,1.0,0.4705999999998767
339,1,0.2,0.0,35.0,-1,0.0,0.4295999999999367
340,1,0.2,1.0,35.0,1,1.0,0.23820000000000618
341,1,0.2,0.0625,35.0,1,1.0,0.34130000000027394
342,1,0.2,0.25,35.0,1,1.0,0.24909900000011476
343,1,0.2,0.0,35.0,1,1.0,0.24499999999989086
344,1,0.2,0.25,35.0,1,1.0,0.27290000000016335
345,1,0.2,1.0,35.0,1,1.0,0.25279999999997926
346,1,0.8,0.25,-35.0,-1,1.0,0.3343000000002121
347,1,0.8,0.0625,-35.0,-1,1.0,0.38040000000000873
348,1,0.8,0.25,-35.0,-1,1.0,0.4681000000000495
349,1,0.8,0.125,-35.0,-1,1.0,0.2174000000002252
350,1,0.8,0.125,-35.0,-1,1.0,0.3023990000001504
351,1,0.8,0.0,-35.0,-1,1.0,3.1881000000000768
352,1,0.8,0.0625,35.0,1,1.0,0.2950989999999365
353,1,0.8,1.0,-35.0,-1,1.0,0.2300000000000182
354,1,0.8,0.0625,35.0,-1,0.0,0.2518999999999778
355,1,0.8,1.0,-35.0,-1,1.0,0.20479999999997744
356,1,0.8,0.125,-35.0,-1,1.0,0.40200000000004366
357,1,0.8,0.0,-35.0,-1,1.0,0.6385999999999967
358,1,0.8,1.0,-35.0,-1,1.0,0.21640000000024884
359,1,0.8,0.25,-35.0,-1,1.0,0.20620000000008076
360,1,0.8,0.0625,35.0,-1,0.0,0.1979989999999816
361,1,0.8,0.125,-35.0,-1,1.0,0.40020000000004075
362,1,0.8,0.125,35.0,-1,0.0,0.27549999999996544
363,1,0.8,0.25,-35.0,-1,1.0,0.24500000000011823
364,1,0.8,0.0,-35.0,1,0.0,0.29310000000009495
365,1,0.8,0.0,-35.0,1,0.0,0.278400000000147
366,1,0.8,0.25,35.0,1,1.0,0.2635999999999967
367,1,0.8,0.25,-35.0,-1,1.0,0.20640000000003056
368,1,0.8,0.125,-35.0,-1,1.0,0.4413999999999305
369,1,0.8,0.125,-35.0,-1,1.0,3.556600000000117
370,1,0.8,0.125,-35.0,-1,1.0,0.22460000000000946
371,1,0.8,0.25,-35.0,-1,1.0,0.20029999999997017
372,1,0.8,0.25,35.0,1,1.0,0.45249999999987267
373,1,0.8,1.0,-35.0,-1,1.0,0.1880999999998494
374,1,0.8,1.0,-35.0,-1,1.0,0.18679999999994834
375,1,0.8,1.0,-35.0,-1,1.0,0.1856999999999971
376,1,0.8,0.0625,-35.0,-1,1.0,0.39459999999985484
377,1,0.8,0.0,35.0,1,1.0,1.740099999999984
378,1,0.8,0.0625,-35.0,1,0.0,1.9678000000001248
379,1,0.8,0.25,-35.0,-1,1.0,0.20580000000018117
380,1,0.8,0.25,-35.0,-1,1.0,0.2080989999999474
381,1,0.8,0.0625,35.0,1,1.0,0.30750000000011823
382,1,0.8,0.125,-35.0,1,0.0,0.7960000000000491
383,1,0.8,0.25,35.0,1,1.0,0.2378000000001066
384,1,0.8,1.0,-35.0,-1,1.0,0.21360000000026957
385,1,0.8,1.0,-35.0,-1,1.0,0.22680000000013933
386,1,0.8,0.25,-35.0,-1,1.0,0.20829900000012458
387,1,0.8,0.25,-35.0,-1,1.0,0.21139900000002854
388,1,0.8,0.125,-35.0,-1,1.0,0.2296000000001186
389,1,0.8,0.25,-35.0,-1,1.0,0.2323989999999867
390,1,0.8,0.0,-35.0,-1,1.0,0.44020000000000437
391,1,0.8,0.25,-35.0,-1,1.0,0.21580000000017208
392,1,0.8,1.0,-35.0,-1,1.0,0.20470000000022992
393,1,0.8,0.0625,35.0,1,1.0,0.4937999999999647
394,1,0.8,0.125,-35.0,-1,1.0,0.6458000000000084
395,1,0.2,0.125,-35.0,-1,1.0,0.21469999999999345
396,1,0.2,0.25,35.0,1,1.0,0.5003990000000158
397,1,0.2,0.0,35.0,-1,0.0,0.23299900000006346
398,1,0.2,0.125,35.0,1,1.0,0.25469999999995707
399,1,0.2,0.125,35.0,1,1.0,0.5969000000000051
400,1,0.2,0.0,35.0,1,1.0,0.4657999999999447
401,1,0.2,0.25,35.0,1,1.0,0.3951999999999316
402,1,0.2,1.0,-35.0,-1,1.0,0.22030000000017935
403,1,0.2,0.0,35.0,-1,0.0,0.28290000000015425
404,1,0.2,0.0,35.0,1,1.0,0.41790000000014516
405,1,0.2,0.125,35.0,1,1.0,0.3145000000001801
406,1,0.2,0.0625,-35.0,1,0.0,0.27880000000004657
407,1,0.2,1.0,35.0,1,1.0,0.25769999999988613
408,1,0.2,0.25,35.0,1,1.0,0.31549999999992906
409,1,0.2,0.0625,35.0,1,1.0,0.3011999999998807
410,1,0.2,0.125,-35.0,1,0.0,0.4299999999998363
411,1,0.2,0.0,35.0,1,1.0,0.3251989999998841
412,1,0.2,0.125,35.0,1,1.0,0.3810000000000855
413,1,0.2,1.0,35.0,1,1.0,0.24979900000016642
414,1,0.2,0.0,35.0,1,1.0,4.875300000000152
415,1,0.2,0.0625,-35.0,-1,1.0,0.33960000000001855
416,1,0.2,1.0,-35.0,-1,1.0,0.2118000000000393
417,1,0.8,0.125,-35.0,-1,1.0,0.2675000000001546
418,1,0.8,0.125,-35.0,-1,1.0,0.8596000000002277
419,1,0.8,0.0,-35.0,1,0.0,0.8523000000000138
420,1,0.8,0.25,-35.0,1,0.0,0.0966000000000804
421,1,0.8,0.25,-35.0,-1,1.0,0.18910000000005311
422,1,0.8,0.0625,-35.0,-1,1.0,0.2377000000001317
423,1,0.8,0.0,-35.0,-1,1.0,0.26340000000004693
424,1,0.8,1.0,35.0,1,1.0,0.3852990000000318
425,1,0.8,0.125,-35.0,1,0.0,3.2030999999999494
426,1,0.8,0.0,35.0,1,1.0,0.2841000000000804
427,1,0.8,0.25,-35.0,-1,1.0,0.22349999999983083
428,1,0.8,1.0,-35.0,-1,1.0,0.19849999999996726
429,1,0.8,1.0,35.0,1,1.0,0.4175000000000182
430,1,0.8,0.25,-35.0,-1,1.0,0.2096000000001368
431,1,0.8,0.0625,-35.0,-1,1.0,0.2520000000001801
432,1,0.8,0.0,-35.0,1,0.0,3.970900000000256
433,1,0.8,0.25,-35.0,-1,1.0,0.2381000000000313
434,1,0.8,0.0,-35.0,-1,1.0,0.42669999999998254
435,1,0.8,0.0625,-35.0,-1,1.0,0.28569999999990614
436,1,0.8,0.25,-35.0,-1,1.0,0.24130000000013752
437,1,0.8,0.125,35.0,1,1.0,0.4639999999999418
438,1,0.8,0.25,35.0,1,1.0,0.45200000000022555
439,1,0.8,0.0,35.0,-1,0.0,0.35750000000007276
440,1,0.8,0.0,-35.0,-1,1.0,4.396199999999908
441,1,0.8,0.0625,-35.0,1,0.0,2.8466000000000804
442,1,0.2,1.0,35.0,1,1.0,0.2778000000000702
443,1,0.2,0.0,-35.0,-1,1.0,0.39380000000005566
444,1,0.2,0.25,35.0,1,1.0,2.219100000000026
445,1,0.2,0.25,-35.0,-1,1.0,0.21100000000001273
446,1,0.2,0.25,35.0,1,1.0,0.3629000000000815
447,1,0.2,0.25,35.0,1,1.0,0.3184000000001106
448,1,0.2,0.0,35.0,-1,0.0,0.47050000000012915
449,1,0.2,0.0625,35.0,1,1.0,0.3792000000000826
450,1,0.2,0.25,35.0,1,1.0,0.314600000000155
451,1,0.2,0.25,35.0,1,1.0,0.3205000000000382
452,1,0.2,0.25,35.0,1,1.0,0.44590000000016516
453,1,0.2,0.0,35.0,1,1.0,0.4319000000000415
454,1,0.2,0.125,35.0,1,1.0,0.34930000000008476
455,1,0.2,0.0625,-35.0,-1,1.0,0.2319999999999709
456,1,0.2,0.0625,35.0,1,1.0,4.743900000000167
457,1,0.2,0.25,35.0,1,1.0,0.34570000000007894
458,1,0.2,0.25,35.0,1,1.0,0.26349999999979445
459,1,0.2,0.25,35.0,1,1.0,0.2620999999999185
460,1,0.2,0.0,35.0,1,1.0,0.2544000000000324
461,1,0.2,0.25,35.0,1,1.0,0.2543000000000575
462,1,0.2,1.0,35.0,1,1.0,0.24219900000025518
463,1,0.2,0.125,-35.0,1,0.0,0.6643989999997757
464,1,0.2,1.0,35.0,1,1.0,0.23650000000043292
465,1,0.2,0.0,35.0,1,1.0,0.40190000000029613
466,1,0.2,0.0625,35.0,1,1.0,0.630500000000211
467,1,0.2,1.0,35.0,1,1.0,0.24899999999979627
468,1,0.2,0.25,35.0,1,1.0,0.24739999999974316
469,1,0.2,1.0,35.0,1,1.0,0.2696000000000822
470,1,0.2,0.0625,35.0,1,1.0,1.2047999999999774
471,1,0.2,0.25,35.0,1,1.0,0.28779999999960637
472,1,0.2,0.25,35.0,1,1.0,0.2458000000001448
473,1,0.2,0.0,-35.0,1,0.0,0.25480000000015934
474,1,0.2,0.0625,35.0,1,1.0,0.3533999999999651
475,1,0.2,0.0625,-35.0,-1,1.0,0.6864999999997963
476,1,0.2,0.0625,35.0,1,1.0,0.4178999999999178
477,1,0.2,0.0,-35.0,1,0.0,0.32700000000022555
478,1,0.2,0.125,-35.0,1,0.0,0.3221990000001824
479,1,0.2,0.0,35.0,-1,0.0,0.6008999999999105
480,1,0.2,0.0625,35.0,1,1.0,0.19600000000036744
481,1,0.2,0.0,35.0,1,1.0,2.9177999999997155
482,1,0.2,0.25,35.0,1,1.0,0.41269999999985885
483,1,0.2,0.0625,35.0,1,1.0,0.27089999999998327
484,1,0.2,0.0,35.0,1,1.0,0.362999999999829
485,1,0.2,1.0,-35.0,-1,1.0,0.20549900000014532
486,1,0.2,1.0,35.0,1,1.0,0.25400000000036016
487,1,0.2,0.25,35.0,1,1.0,0.33419999999978245
488,1,0.2,0.25,35.0,1,1.0,0.4552000000003318
489,1,0.2,0.25,-35.0,-1,1.0,0.26080000000001746
490,1,0.2,0.125,35.0,1,1.0,0.37629999999990105
491,1,0.2,0.0625,-35.0,1,0.0,1.3286999999995714
492,1,0.2,0.0625,35.0,1,1.0,1.167000000000371
493,1,0.2,0.125,35.0,1,1.0,0.29919999999992797
494,1,0.2,0.125,35.0,1,1.0,0.39110000000027867
495,1,0.2,0.125,35.0,1,1.0,0.34320000000025175
496,1,0.2,0.0625,35.0,1,1.0,0.6219000000005508
497,1,0.2,0.0,35.0,1,1.0,0.28909999999996217
498,1,0.2,0.0625,-35.0,1,0.0,2.8170000000000073
499,1,0.2,0.0,35.0,1,1.0,0.3783000000003085
500,1,0.2,0.0,-35.0,-1,1.0,0.41380000000026484
501,1,0.2,0.0625,35.0,-1,0.0,2.333099999999831
502,1,0.2,0.125,35.0,1,1.0,0.20739899999989575
503,1,0.2,0.0,35.0,-1,0.0,0.42989899999975023
504,1,0.2,1.0,35.0,1,1.0,0.2448000000003958
505,1,0.2,0.0,35.0,1,1.0,11.897100000000137
506,1,0.2,0.25,35.0,1,1.0,0.7658000000001266
507,1,0.2,0.0,-35.0,-1,1.0,0.23210000000017317
508,1,0.2,0.0625,35.0,1,1.0,0.6901000000002568
509,1,0.2,0.0,35.0,1,1.0,0.2722990000002028
510,1,0.2,0.0,35.0,-1,0.0,0.4645000000004984
511,1,0.2,0.125,35.0,1,1.0,0.3227999999999156
512,1,0.2,1.0,35.0,1,1.0,0.24829999999974461
513,1,0.2,0.0,35.0,1,1.0,0.2610999999997148
514,1,0.2,0.0,35.0,1,1.0,0.39239999999972497
515,1,0.2,0.0,35.0,1,1.0,0.3245999999999185
516,1,0.2,0.25,-35.0,-1,1.0,0.2068000000003849
517,1,0.2,0.125,35.0,1,1.0,0.3758999999995467
518,1,0.2,0.25,35.0,1,1.0,0.23420000000032815
519,1,0.2,0.0625,35.0,-1,0.0,0.4466000000002168
520,1,0.2,0.0625,35.0,1,1.0,0.27520000000004075
521,1,0.2,0.125,35.0,1,1.0,0.37170000000014625
522,1,0.2,0.125,35.0,1,1.0,2.8328999999998814
523,1,0.2,0.0,35.0,1,1.0,0.2617000000000189
524,1,0.2,1.0,35.0,1,1.0,0.25939999999991414
525,1,0.2,0.25,-35.0,1,0.0,0.3413999999997941
526,1,0.2,0.25,35.0,1,1.0,0.21640000000024884
527,1,0.2,0.0625,35.0,1,1.0,0.4491000000002714
528,1,0.2,0.0625,35.0,1,1.0,0.280699999999797
529,1,0.2,0.0625,35.0,1,1.0,0.36009999999987485
530,1,0.8,0.25,35.0,1,1.0,0.4216000000001259
531,1,0.8,0.0,35.0,1,1.0,2.300100000000384
532,1,0.8,0.25,-35.0,-1,1.0,0.41499900000007983
533,1,0.8,1.0,-35.0,-1,1.0,0.2275990000002821
534,1,0.8,0.125,-35.0,-1,1.0,0.24289999999973588
535,1,0.8,0.25,-35.0,-1,1.0,0.20169899999973495
536,1,0.8,0.25,-35.0,1,0.0,1.802900000000136
537,1,0.8,0.25,-35.0,-1,1.0,0.484599999999773
538,1,0.8,0.0,-35.0,1,0.0,0.28569999999990614
539,1,0.8,1.0,35.0,1,1.0,0.2808999999997468
540,1,0.8,1.0,35.0,1,1.0,0.2960000000002765
541,1,0.8,0.125,-35.0,-1,1.0,0.22490000000016153
542,1,0.8,1.0,-35.0,-1,1.0,0.22060000000010405
543,1,0.8,0.125,-35.0,-1,1.0,0.23040000000037253
544,1,0.8,0.0,-35.0,1,0.0,1.2683999999999287
545,1,0.8,0.0,-35.0,1,0.0,0.259900000000016
546,1,0.8,0.0625,-35.0,1,0.0,0.3085000000000946
547,1,0.8,1.0,-35.0,-1,1.0,0.28010000000040236
548,1,0.8,0.0625,-35.0,-1,1.0,3.0954000000001543
549,1,0.8,0.0,-35.0,1,0.0,0.4360990000000129
550,1,0.8,0.125,-35.0,-1,1.0,0.4313000000001921
551,1,0.8,1.0,-35.0,-1,1.0,0.4499000000000706
552,1,0.8,0.0625,35.0,1,1.0,0.28490000000010696
553,1,0.8,0.0625,-35.0,-1,1.0,0.40749900000037087
554,1,0.8,0.25,-35.0,-1,1.0,0.2357999999999265
555,1,0.8,0.125,35.0,-1,0.0,0.3121000000001004
556,1,0.8,0.25,-35.0,-1,1.0,0.1835000000000946
557,1,0.8,0.0625,-35.0,-1,1.0,2.6029999999996107
558,1,0.8,0.125,35.0,1,1.0,0.3466000000003078
559,1,0.8,0.125,35.0,1,1.0,0.3454999999999018
560,1,0.8,1.0,35.0,1,1.0,0.41100000000051296
561,1,0.8,0.125,-35.0,-1,1.0,0.23010000000022046
562,1,0.8,1.0,35.0,1,1.0,0.2687999999998283
563,1,0.8,0.25,35.0,1,1.0,0.37150000000019645
564,1,0.8,0.25,-35.0,-1,1.0,0.33339999999998327
565,1,0.8,0.125,-35.0,-1,1.0,0.3025990000001002
566,1,0.8,0.25,-35.0,-1,1.0,0.2512000000001535
567,1,0.8,0.0,-35.0,-1,1.0,0.24749999999994543
568,1,0.8,0.25,-35.0,-1,1.0,0.4788000000003194
569,1,0.8,0.0625,35.0,1,1.0,0.36160000000018044
570,1,0.8,0.0625,-35.0,1,0.0,0.44669999999996435
571,1,0.8,0.0625,-35.0,-1,1.0,0.9492000000004737
572,1,0.8,0.125,-35.0,-1,1.0,0.22719999999981155
573,1,0.8,0.25,-35.0,-1,1.0,0.20949999999993452
574,1,0.8,0.125,-35.0,1,0.0,1.391099999999824
575,1,0.8,0.0,-35.0,1,0.0,0.2861000000002605
576,1,0.8,1.0,-35.0,-1,1.0,0.24109900000030393
577,1,0.2,0.25,35.0,1,1.0,3.059900000000198
578,1,0.2,0.0,35.0,-1,0.0,0.14089899999999034
579,1,0.2,0.0625,35.0,1,1.0,0.3263999999999214
580,1,0.2,1.0,35.0,1,1.0,0.2284999999997126
581,1,0.2,0.0,35.0,-1,0.0,0.46739900000011403
582,1,0.2,0.0,35.0,1,1.0,0.25600000000031287
583,1,0.2,0.0,35.0,1,1.0,0.21869999999989886
584,1,0.2,1.0,35.0,1,1.0,0.21350000000029468
585,1,0.2,0.125,35.0,1,1.0,0.3227000000001681
586,1,0.2,0.0,-35.0,-1,1.0,0.16780000000017026
587,1,0.2,0.0625,35.0,1,1.0,3.1422999999999774
588,1,0.2,0.25,35.0,1,1.0,0.3438000000005559
589,1,0.2,0.0,35.0,1,1.0,0.30600000000004
590,1,0.2,0.25,-35.0,1,0.0,0.5311000000001513
591,1,0.2,0.25,35.0,1,1.0,0.23320000000012442
592,1,0.2,0.0625,-35.0,-1,1.0,0.47870000000011714
593,1,0.2,0.125,-35.0,-1,1.0,0.22089900000037233
594,1,0.2,0.25,35.0,1,1.0,0.3320000000003347
595,1,0.2,1.0,35.0,1,1.0,0.2246000000004642
596,1,0.2,0.0625,35.0,1,1.0,0.42659999999978027
597,1,0.2,0.125,35.0,1,1.0,0.4355000000000473
598,1,0.2,0.25,35.0,1,1.0,0.3012000000003354
599,1,0.2,0.0,35.0,1,1.0,0.5372000000002117
600,1,0.2,1.0,35.0,1,1.0,0.3014000000002852
601,1,0.2,1.0,35.0,1,1.0,0.2406000000005406
602,1,0.2,0.125,35.0,1,1.0,0.2458000000001448
603,1,0.2,0.25,35.0,1,1.0,0.32120000000031723
604,1,0.2,0.0625,35.0,1,1.0,0.44980000000032305
605,1,0.2,1.0,35.0,1,1.0,0.26569999999992433
606,1,0.2,0.0625,-35.0,-1,1.0,0.5465999999996711
607,1,0.2,1.0,35.0,1,1.0,0.235700000000179
608,1,0.2,0.0,35.0,-1,0.0,0.3611999999998261
609,1,0.2,0.0625,-35.0,1,0.0,0.3024999999997817
610,1,0.2,1.0,35.0,1,1.0,0.25779999999986103
611,1,0.2,1.0,35.0,1,1.0,0.27070000000003347
612,1,0.2,1.0,35.0,1,1.0,0.2452000000002954
613,1,0.2,0.0625,35.0,1,1.0,0.2841000000003078
614,1,0.2,1.0,35.0,1,1.0,0.2929999999996653
615,1,0.2,0.0625,35.0,1,1.0,0.4058999999997468
616,1,0.8,1.0,35.0,1,1.0,0.30090000000018335
617,1,0.8,0.0625,-35.0,1,0.0,3.1458999999999833
618,1,0.8,0.125,35.0,1,1.0,0.3469000000000051
619,1,0.8,0.125,-35.0,1,0.0,0.4758999999999105
620,1,0.8,1.0,35.0,1,1.0,0.20800000000008367
621,1,0.8,0.125,-35.0,-1,1.0,0.39010000000007494
622,1,0.8,0.0,35.0,1,1.0,0.46909899999991467
623,1,0.8,0.0,-35.0,1,0.0,0.38160000000016225
624,1,0.8,0.0,-35.0,1,0.0,0.3231999999998152
625,1,0.8,0.25,-35.0,-1,1.0,0.26870000000008076
626,1,0.8,0.0,-35.0,-1,1.0,5.397500000000491
627,1,0.8,0.125,-35.0,-1,1.0,0.22160000000030777
628,1,0.8,0.0,-35.0,-1,1.0,0.5038000000004104
629,1,0.8,0.125,-35.0,-1,1.0,3.1351000000004206
630,1,0.8,0.25,-35.0,-1,1.0,0.4265000000004875
631,1,0.8,0.0,-35.0,-1,1.0,0.3196000000002641
632,1,0.8,0.0625,-35.0,-1,1.0,0.2943000000000211
633,1,0.8,0.125,35.0,1,1.0,0.3898999999996704
634,1,0.8,0.0625,-35.0,-1,1.0,0.21220000000039363
635,1,0.8,0.125,-35.0,-1,1.0,0.501299999999901
636,1,0.8,1.0,-35.0,-1,1.0,0.21340000000054715
637,1,0.8,0.25,-35.0,-1,1.0,0.2800000000002001
638,1,0.8,0.25,-35.0,-1,1.0,0.23099999999976717
639,1,0.8,0.0,-35.0,-1,1.0,0.513300000000072
640,1,0.8,0.25,-35.0,-1,1.0,0.3486000000002605
641,1,0.8,0.25,-35.0,-1,1.0,0.21090000000003783
642,1,0.8,0.125,-35.0,-1,1.0,0.2230000000004111
643,1,0.8,0.125,-35.0,-1,1.0,0.42190000000027794
644,1,0.8,0.0,-35.0,-1,1.0,3.1136999999998807
645,1,0.8,1.0,-35.0,-1,1.0,0.2250000000003638
646,1,0.8,0.125,-35.0,-1,1.0,0.2705999999998312
647,1,0.8,0.125,-35.0,-1,1.0,0.23319999999966967
648,1,0.8,0.0625,-35.0,-1,1.0,0.2316000000000713
649,1,0.8,0.0,-35.0,-1,1.0,0.2706999999995787
650,1,0.8,1.0,-35.0,-1,1.0,0.202900000000227
651,1,0.8,0.25,-35.0,-1,1.0,0.3350000000000364
652,1,0.8,0.125,-35.0,-1,1.0,2.1234000000004016
653,1,0.8,0.25,-35.0,-1,1.0,0.31520000000000437
654,1,0.8,1.0,-35.0,-1,1.0,0.27670000000034634
655,1,0.8,0.0625,-35.0,-1,1.0,0.22250000000030923
656,1,0.8,1.0,-35.0,-1,1.0,0.19460000000026412
657,1,0.8,0.25,-35.0,-1,1.0,0.23030000000017026
658,1,0.8,0.25,35.0,1,1.0,0.31490000000030705
659,1,0.8,1.0,-35.0,-1,1.0,0.2240990000000238
660,1,0.8,1.0,35.0,1,1.0,0.4259999999999309
661,1,0.8,0.0,-35.0,-1,1.0,0.4551000000001295
662,1,0.8,0.25,-35.0,-1,1.0,0.22029999999995198
663,1,0.8,0.25,-35.0,-1,1.0,0.20339899999999034
664,1,0.8,1.0,-35.0,-1,1.0,0.125
665,1,0.8,0.25,-35.0,-1,1.0,0.18100000000004002
666,1,0.8,1.0,-35.0,-1,1.0,2.8256000000001222
667,1,0.8,0.0625,-35.0,-1,1.0,0.2577000000001135
668,1,0.8,0.25,-35.0,-1,1.0,0.39170000000012806
669,1,0.8,0.25,-35.0,-1,1.0,0.4683999999997468
670,1,0.8,1.0,35.0,1,1.0,0.34589999999980137
671,1,0.8,0.0625,-35.0,-1,1.0,0.2418999999999869
672,1,0.8,0.25,-35.0,-1,1.0,0.2270000000003165
673,1,0.8,1.0,35.0,1,1.0,0.4218999999998232
674,1,0.8,0.0,-35.0,1,0.0,0.2671989999998914
675,1,0.8,0.125,-35.0,-1,1.0,0.45279999999957
676,1,0.8,0.25,35.0,1,1.0,0.2845999999999549
677,1,0.8,1.0,-35.0,-1,1.0,0.18699999999989814
678,1,0.8,1.0,35.0,1,1.0,0.3291999999996733
679,1,0.8,0.25,35.0,1,1.0,0.25500000000010914
680,1,0.8,0.0,-35.0,-1,1.0,1.1467000000002372
681,1,0.8,0.0,-35.0,1,0.0,0.31559999999990396
682,1,0.8,1.0,-35.0,-1,1.0,0.3141000000000531
683,1,0.8,0.0,-35.0,-1,1.0,0.23299999999971988
684,1,0.8,0.125,-35.0,-1,1.0,0.3184000000001106
685,1,0.8,0.25,-35.0,-1,1.0,0.21079899999995177
686,1,0.8,1.0,-35.0,-1,1.0,0.2295990000002348
687,1,0.8,0.25,-35.0,-1,1.0,0.4553000000000793
688,1,0.8,1.0,-35.0,-1,1.0,0.20410000000038053
689,1,0.8,0.0625,-35.0,-1,1.0,0.9161999999996624
690,1,0.8,0.125,-35.0,-1,1.0,0.4479999999998654
691,1,0.8,0.25,-35.0,-1,1.0,0.24650000000019645
692,1,0.8,0.0625,35.0,1,1.0,0.33090000000038344
693,1,0.8,0.25,-35.0,-1,1.0,0.21039999999993597
694,1,0.8,1.0,-35.0,-1,1.0,0.21190000000024156
695,1,0.8,0.125,-35.0,-1,1.0,0.22460000000000946
696,1,0.8,0.0,35.0,-1,0.0,3.221400000000358
697,1,0.8,0.125,35.0,1,1.0,0.23919900000009875
698,1,0.8,0.25,-35.0,-1,1.0,0.4576999999999316
699,1,0.8,0.125,-35.0,-1,1.0,0.2300000000000182
700,1,0.8,0.125,-35.0,-1,1.0,0.22220000000015716
701,1,0.8,0.0625,-35.0,-1,1.0,0.47430000000031214
702,1,0.8,0.0625,-35.0,-1,1.0,0.2796000000003005
703,1,0.2,1.0,-35.0,-1,1.0,0.18220000000019354
704,1,0.2,1.0,35.0,1,1.0,0.34760000000005675
705,1,0.2,0.125,35.0,1,1.0,0.252100000000155
706,1,0.2,0.25,35.0,1,1.0,0.2905000000000655
707,1,0.2,0.0625,-35.0,-1,1.0,0.4720999999999549
708,1,0.2,0.0625,35.0,1,1.0,0.24089900000035414
709,1,0.2,0.25,35.0,1,1.0,0.26650000000017826
710,1,0.2,0.125,35.0,1,1.0,0.2952000000004773
711,1,0.2,1.0,35.0,1,1.0,0.2343999999998232
712,1,0.2,1.0,35.0,1,1.0,0.3664000000003398
713,1,0.2,0.125,-35.0,1,0.0,3.4778000000001157
714,1,0.2,0.0,35.0,1,1.0,0.2516000000000531
715,1,0.2,0.25,35.0,1,1.0,0.30130000000008295
716,1,0.2,0.0625,35.0,1,1.0,0.3393999999998414
717,1,0.2,0.25,35.0,1,1.0,0.3184999999998581
718,1,0.2,1.0,35.0,1,1.0,0.3171990000000733
719,1,0.2,0.0625,35.0,1,1.0,0.2958000000003267
720,1,0.2,1.0,-35.0,-1,1.0,0.587500000000091
721,1,0.2,0.125,35.0,1,1.0,0.2494000000001506
722,1,0.2,0.0,35.0,-1,0.0,0.6010999999998603
723,1,0.2,0.125,35.0,1,1.0,0.2537999999999556
724,1,0.2,0.25,35.0,1,1.0,0.22850000000016735
725,1,0.2,0.125,35.0,1,1.0,0.30470000000013897
726,1,0.2,0.0625,35.0,1,1.0,0.3257000000003245
727,1,0.2,1.0,35.0,1,1.0,0.2573000000002139
728,1,0.2,0.0,35.0,-1,0.0,3.8434990000000653
729,1,0.2,1.0,35.0,1,1.0,0.2274000000002161
730,1,0.2,0.25,35.0,1,1.0,0.3123000000000502
731,1,0.2,0.0625,35.0,1,1.0,0.38120000000026266
732,1,0.2,0.0625,35.0,1,1.0,0.2935000000002219
733,1,0.2,0.0,35.0,1,1.0,3.1227990000002137
734,1,0.2,1.0,35.0,1,1.0,0.2298000000000684
735,1,0.2,0.0625,35.0,1,1.0,0.35210000000006403
736,1,0.2,0.0,35.0,1,1.0,0.347599999999602
737,1,0.2,0.0,35.0,-1,0.0,0.2898000000000138
738,1,0.2,0.0625,35.0,1,1.0,0.3583990000001904
739,1,0.2,1.0,35.0,1,1.0,0.3171999999995023
740,1,0.2,0.125,35.0,1,1.0,0.3427000000001499
741,1,0.2,0.125,35.0,1,1.0,0.4854000000000269
742,1,0.2,0.0,35.0,-1,0.0,2.8467000000000553
743,1,0.2,1.0,35.0,1,1.0,0.26119999999991705
744,1,0.2,0.25,35.0,1,1.0,0.2561000000000604
745,1,0.2,0.0,35.0,1,1.0,0.3920989999996891
746,1,0.2,1.0,35.0,1,1.0,0.4139000000004671
747,1,0.2,1.0,35.0,1,1.0,0.23269900000059351
748,1,0.2,0.0,35.0,1,1.0,0.2480000000000473
749,1,0.2,0.25,-35.0,-1,1.0,0.23389999999972133
750,1,0.2,0.0625,35.0,1,1.0,0.46569999999974243
751,1,0.2,0.125,35.0,1,1.0,0.234599999999773
752,1,0.2,0.25,-35.0,-1,1.0,0.2268000000003667
753,1,0.2,0.0625,35.0,1,1.0,0.44570000000021537
754,1,0.2,1.0,35.0,1,1.0,0.3209990000000289
755,1,0.2,0.25,-35.0,-1,1.0,0.29040000000031796
756,1,0.2,0.25,35.0,-1,0.0,2.6820999999999913
757,1,0.2,0.125,35.0,1,1.0,0.24349999999958527
758,1,0.2,1.0,35.0,1,1.0,0.26230000000032305
759,1,0.2,0.0,35.0,-1,0.0,0.2778000000002976
760,1,0.2,1.0,35.0,-1,0.0,0.2561989999999241
761,1,0.2,0.0625,35.0,-1,0.0,0.09810000000015862
762,1,0.2,1.0,35.0,1,1.0,0.21989999999959764
763,1,0.2,1.0,35.0,1,1.0,0.21149999999988722
764,1,0.2,0.25,35.0,1,1.0,0.29359999999996944
765,1,0.8,0.125,35.0,1,1.0,0.40990000000010696
766,1,0.8,0.0625,-35.0,-1,1.0,0.7281000000002678
767,1,0.8,0.0,-35.0,1,0.0,0.2600999999999658
768,1,0.8,0.0625,-35.0,1,0.0,0.2953000000002248
769,1,0.8,1.0,-35.0,-1,1.0,0.2004000000006272
770,1,0.8,1.0,-35.0,-1,1.0,0.29579999999987194
771,1,0.8,0.125,-35.0,-1,1.0,0.3379000000004453
772,1,0.8,0.125,-35.0,-1,1.0,0.24020000000018626
773,1,0.8,0.25,-35.0,-1,1.0,0.2129000000004453
774,1,0.8,1.0,-35.0,-1,1.0,0.2676000000001295
775,1,0.8,0.0,-35.0,-1,1.0,0.8498999999997068
776,1,0.8,0.25,-35.0,-1,1.0,0.3478000000004613
777,1,0.8,0.0625,-35.0,-1,1.0,2.7440000000005966
778,1,0.8,0.25,-35.0,1,0.0,1.1478000000001884
1,2,0.5,0.25,-35.0,-1,1.0,0.20009999999999994
2,2,0.5,0.0,35.0,1,1.0,0.48159999999999936
3,2,0.5,1.0,-35.0,-1,1.0,0.1753
4,2,0.5,0.25,-35.0,-1,1.0,0.21359900000000032
5,2,0.5,0.0625,35.0,1,1.0,0.3384989999999988
6,2,0.5,0.0625,-35.0,-1,1.0,3.216299999999997
7,2,0.5,0.25,-35.0,1,0.0,0.3379000000000012
8,2,0.5,0.125,35.0,1,1.0,0.2173000000000016
9,2,0.5,0.0,-35.0,1,0.0,0.18319999999999936
10,2,0.5,0.0,35.0,1,1.0,2.259599999999999
11,2,0.5,0.25,-35.0,-1,1.0,0.44180000000000064
12,2,0.5,0.0,35.0,1,1.0,0.1961999999999975
13,2,0.5,1.0,-35.0,-1,1.0,0.20130000000000337
14,2,0.5,0.0625,-35.0,1,0.0,0.23850000000000193
15,2,0.5,0.25,35.0,1,1.0,0.23049999999999926
16,2,0.5,0.25,-35.0,-1,1.0,0.4222000000000037
17,2,0.5,0.0,-35.0,1,0.0,0.20710000000001116
18,2,0.5,1.0,35.0,1,1.0,0.227800000000002
19,2,0.5,0.25,-35.0,-1,1.0,0.27370000000000516
20,2,0.5,0.25,35.0,1,1.0,0.24330000000000496
21,2,0.5,0.25,35.0,1,1.0,0.21989999999999554
22,2,0.5,0.0,35.0,1,1.0,0.17919999999999447
23,2,0.5,0.25,-35.0,-1,1.0,0.21739999999999782
24,2,0.5,0.0625,35.0,1,1.0,0.33859999999999957
25,2,0.5,1.0,-35.0,-1,1.0,0.19430000000001257
26,2,0.5,0.25,35.0,1,1.0,0.26939900000000705
27,2,0.5,0.25,-35.0,-1,1.0,0.19950000000000045
28,2,0.5,0.0625,35.0,1,1.0,0.27009999999999934
29,2,0.5,0.125,-35.0,1,0.0,0.23669999999999902
30,2,0.5,0.0,35.0,1,1.0,0.26479999999999393
31,2,0.5,0.0,-35.0,1,0.0,0.22470000000001278
32,2,0.5,1.0,-35.0,-1,1.0,0.1997999999999962
33,2,0.5,0.0625,35.0,1,1.0,0.20589999999999975
34,2,0.5,1.0,-35.0,-1,1.0,0.1998000000000104
35,2,0.5,0.125,-35.0,-1,1.0,0.24809999999999377
36,2,0.5,0.125,-35.0,-1,1.0,0.22399999999996112
37,2,0.5,1.0,-35.0,-1,1.0,0.19640000000001123
38,2,0.5,0.25,35.0,1,1.0,2.628998999999993
39,2,0.5,0.125,-35.0,-1,1.0,0.21069999999997435
40,2,0.5,1.0,35.0,1,1.0,0.24279999999998836
41,2,0.5,0.25,-35.0,-1,1.0,0.22870000000000346
42,2,0.5,1.0,35.0,1,1.0,0.28439999999997667
43,2,0.5,0.0625,-35.0,1,0.0,0.6904999999999859
44,2,0.5,0.0625,-35.0,1,0.0,0.9628999999999905
45,2,0.5,1.0,-35.0,-1,1.0,0.1962999999999795
46,2,0.5,0.125,-35.0,-1,1.0,0.4219999999999686
47,2,0.5,1.0,35.0,1,1.0,0.2120000000000175
48,2,0.5,0.25,-35.0,-1,1.0,0.21530000000001337
49,2,0.5,1.0,35.0,1,1.0,0.21340000000000714
50,2,0.5,1.0,-35.0,-1,1.0,0.20299899999997706
51,2,0.5,0.25,35.0,1,1.0,0.2525999999999726
52,2,0.5,0.0,35.0,-1,0.0,3.0008989999999756
53,2,0.5,0.125,-35.0,-1,1.0,0.18829999999999814
54,2,0.5,0.0625,35.0,1,1.0,0.21870000000001255
55,2,0.5,0.25,35.0,1,1.0,0.26989900000000944
56,2,0.5,0.0625,35.0,1,1.0,0.22739999999998872
57,2,0.5,0.25,-35.0,-1,1.0,0.18489999999997053
58,2,0.5,0.0,35.0,1,1.0,0.408299999999997
59,2,0.5,0.0625,-35.0,1,0.0,0.30769999999995434
60,2,0.5,0.25,35.0,1,1.0,0.21639999999999304
61,2,0.5,0.125,-35.0,-1,1.0,2.757199999999983
62,2,0.5,0.0625,-35.0,-1,1.0,0.48509999999998854
63,2,0.5,0.25,-35.0,-1,1.0,0.21450000000001523
64,2,0.5,0.25,35.0,1,1.0,0.23570000000000846
65,2,0.5,0.125,35.0,1,1.0,0.244199999999978
66,2,0.5,0.0625,35.0,-1,0.0,0.292098999999979
67,2,0.5,1.0,-35.0,-1,1.0,0.19299999999998363
68,2,0.5,1.0,-35.0,-1,1.0,0.20499999999998408
69,2,0.5,0.0625,-35.0,-1,1.0,1.303699999999992
70,2,0.5,0.25,35.0,-1,0.0,0.42230000000006385
71,2,0.5,0.0625,35.0,1,1.0,0.23979900000000498
72,2,0.5,0.25,35.0,1,1.0,0.22850000000005366
73,2,0.5,1.0,-35.0,-1,1.0,0.18729999999999336
74,2,0.5,0.125,35.0,1,1.0,0.23919999999998254
75,2,0.5,0.25,-35.0,-1,1.0,0.18159900000006246
76,2,0.5,0.125,35.0,1,1.0,0.23910000000000764
77,2,0.5,0.125,-35.0,-1,1.0,0.22440000000005966
78,2,0.5,0.0,-35.0,1,0.0,1.5933999999999742
79,2,0.5,0.125,-35.0,-1,1.0,0.4603999999999928
80,2,0.5,0.0,-35.0,1,0.0,0.22280000000000655
81,2,0.5,1.0,-35.0,-1,1.0,0.16860000000002628
82,2,0.5,0.25,35.0,1,1.0,0.23510000000004538
83,2,0.5,0.0625,35.0,1,1.0,0.5634999999999764
84,2,0.5,0.0,-35.0,-1,1.0,0.21940000000000737
85,2,0.5,0.25,-35.0,-1,1.0,0.2318000000000211
86,2,0.5,1.0,-35.0,-1,1.0,0.20120000000002847
87,2,0.5,0.125,35.0,1,1.0,0.24640000000005102
88,2,0.5,0.0625,-35.0,-1,1.0,0.404200000000003
89,2,0.5,0.125,-35.0,-1,1.0,0.4649000000000001
90,2,0.5,0.0625,-35.0,-1,1.0,0.20830000000000837
91,2,0.8,1.0,-35.0,-1,1.0,0.3567000000000462
92,2,0.8,0.25,-35.0,-1,1.0,0.22169900000000098
93,2,0.8,0.125,35.0,1,1.0,1.4927990000000477
94,2,0.8,1.0,-35.0,-1,1.0,0.21750000000002956
95,2,0.8,0.0,-35.0,-1,1.0,0.5321999999999889
96,2,0.8,0.0,-35.0,-1,1.0,0.38460000000003447
97,2,0.8,0.0,35.0,-1,0.0,0.3942989999999895
98,2,0.8,0.25,-35.0,-1,1.0,0.276800000000037
99,2,0.8,0.0,-35.0,-1,1.0,0.47759999999999536
100,2,0.8,0.0,-35.0,-1,1.0,0.8649000000000342
101,2,0.8,0.25,-35.0,-1,1.0,0.22690000000000055
102,2,0.8,1.0,-35.0,-1,1.0,0.18439999999998236
103,2,0.8,1.0,-35.0,-1,1.0,0.1490000000000009
104,2,0.8,0.125,-35.0,-1,1.0,0.19559899999995878
105,2,0.8,0.25,-35.0,-1,1.0,0.34899999999998954
106,2,0.8,0.25,-35.0,-1,1.0,0.2721000000000231
107,2,0.8,0.125,-35.0,1,0.0,0.25790000000000646
108,2,0.8,0.0,35.0,1,1.0,0.26389999999997826
109,2,0.8,0.0625,-35.0,-1,1.0,0.22560000000004266
110,2,0.8,0.125,35.0,1,1.0,0.6719000000000506
111,2,0.8,0.125,-35.0,1,0.0,0.33890000000002374
112,2,0.8,0.25,-35.0,-1,1.0,0.33940000000006876
113,2,0.8,0.0625,-35.0,1,0.0,0.28040000000004284
114,2,0.8,0.25,-35.0,-1,1.0,0.21350000000001046
115,2,0.8,0.0625,-35.0,-1,1.0,0.21750000000002956
116,2,0.8,0.0,35.0,-1,0.0,0.36149900000003754
117,2,0.8,0.0625,-35.0,1,0.0,0.236199000000056
118,2,0.8,0.0,-35.0,1,0.0,0.24000000000006594
119,2,0.8,0.25,-35.0,-1,1.0,0.20010000000007722
120,2,0.8,0.25,-35.0,-1,1.0,0.2317000000000462
121,2,0.2,0.0,-35.0,-1,1.0,0.23320000000001073
122,2,0.2,0.0,35.0,-1,0.0,0.3132990000000291
123,2,0.2,0.0,35.0,1,1.0,0.3106999999999971
124,2,0.2,0.0625,35.0,1,1.0,3.684100000000001
125,2,0.2,0.0625,35.0,1,1.0,0.29410000000001446
126,2,0.2,0.0,35.0,1,1.0,0.7053999999999974
127,2,0.2,1.0,35.0,1,1.0,0.3449000000000524
128,2,0.2,1.0,35.0,1,1.0,0.188699999999983
129,2,0.2,1.0,35.0,1,1.0,0.24619999999998754
130,2,0.2,1.0,35.0,1,1.0,0.2675000000000409
131,2,0.2,0.125,35.0,1,1.0,1.3425000000000296
132,2,0.2,0.0625,35.0,1,1.0,0.22750000000002046
133,2,0.2,0.125,35.0,1,1.0,0.4085990000000379
134,2,0.2,0.0,35.0,1,1.0,0.18379999999996244
135,2,0.2,0.0625,35.0,1,1.0,0.288298999999995
136,2,0.2,0.0,-35.0,1,0.0,0.29710000000000036
137,2,0.2,0.0625,35.0,1,1.0,0.21429999999998017
138,2,0.2,1.0,35.0,1,1.0,0.23559899999997924
139,2,0.2,0.125,35.0,1,1.0,0.27579900000000634
140,2,0.2,0.0625,35.0,1,1.0,0.26729999999997744
141,2,0.2,0.25,35.0,1,1.0,0.2807999999999993
142,2,0.2,0.0625,35.0,-1,0.0,0.3811000000000604
143,2,0.2,0.0625,35.0,1,1.0,0.2499999999998863
144,2,0.2,0.25,35.0,1,1.0,0.25139999999998963
145,2,0.2,0.0625,-35.0,1,0.0,2.2948999999998705
146,2,0.2,0.125,35.0,1,1.0,0.23949999999990723
147,2,0.2,0.0,35.0,-1,0.0,0.3442000000000007
148,2,0.2,0.0,35.0,1,1.0,0.2543989999999212
149,2,0.2,0.25,35.0,1,1.0,2.897399999999948
150,2,0.2,0.125,-35.0,-1,1.0,0.2562990000000127
151,2,0.2,0.0,35.0,1,1.0,0.24239999999997508
152,2,0.2,0.0625,35.0,1,1.0,0.291498999999817
153,2,0.2,0.0625,35.0,1,1.0,0.29139999999983957
154,2,0.2,0.125,35.0,1,1.0,2.053399999999897
155,2,0.2,0.0625,-35.0,1,0.0,0.20129999999994652
156,2,0.2,0.0,35.0,1,1.0,0.08769900000004327
157,2,0.2,0.125,35.0,1,1.0,0.20879999999999654
158,2,0.2,1.0,-35.0,-1,1.0,0.20240000000001146
159,2,0.2,0.0625,35.0,1,1.0,0.23719999999991614
160,2,0.2,0.25,35.0,1,1.0,0.1636999999999489
161,2,0.2,1.0,35.0,1,1.0,0.23450000000002547
162,2,0.2,0.125,35.0,1,1.0,0.21499999999991815
163,2,0.2,0.125,35.0,1,1.0,0.27499999999997726
164,2,0.2,0.0625,-35.0,1,0.0,0.37389999999993506
165,2,0.2,0.0625,35.0,1,1.0,0.20449999999993906
166,2,0.2,0.0625,35.0,-1,0.0,0.498299999999972
167,2,0.2,0.0,35.0,1,1.0,0.262299999999982
168,2,0.2,1.0,-35.0,-1,1.0,0.2196999999999889
169,2,0.2,0.25,-35.0,-1,1.0,0.2720999999999094
170,2,0.2,0.0625,35.0,1,1.0,0.2658000000000129
171,2,0.2,0.125,-35.0,1,0.0,0.34779999999989286
172,2,0.2,0.125,35.0,1,1.0,0.23979899999994814
173,2,0.2,0.25,35.0,1,1.0,6.046499999999924
174,2,0.2,0.0,35.0,-1,0.0,2.886100000000056
175,2,0.2,0.0625,35.0,1,1.0,0.2458000000000311
176,2,0.2,0.0625,-35.0,-1,1.0,0.2607999999999038
177,2,0.2,1.0,35.0,1,1.0,0.23439999999993688
178,2,0.2,0.0,-35.0,1,0.0,0.2436999999999898
179,2,0.2,1.0,35.0,1,1.0,0.25139899999999216
180,2,0.2,1.0,35.0,1,1.0,0.2540989999999965
181,2,0.2,0.0,35.0,1,1.0,0.4134999999998854
182,2,0.8,1.0,-35.0,-1,1.0,0.1972000000000662
183,2,0.8,0.0625,-35.0,1,0.0,0.21850000000006276
184,2,0.8,1.0,-35.0,-1,1.0,0.1937999999998965
185,2,0.8,0.0,35.0,1,1.0,0.28369999999995343
186,2,0.8,0.125,35.0,1,1.0,0.47289899999998397
187,2,0.8,1.0,-35.0,-1,1.0,0.1937000000000353
188,2,0.8,0.25,35.0,1,1.0,0.2579999999999245
189,2,0.8,0.0,-35.0,1,0.0,0.27969999999993433
190,2,0.8,0.0,-35.0,1,0.0,0.9457999999999629
191,2,0.8,1.0,-35.0,-1,1.0,0.21499999999991815
192,2,0.8,0.0,-35.0,1,0.0,0.38629999999989195
193,2,0.8,1.0,-35.0,-1,1.0,0.19810000000006767
194,2,0.8,1.0,35.0,1,1.0,0.2138999999999669
195,2,0.8,0.0625,35.0,1,1.0,0.2985999999998512
196,2,0.8,0.0,-35.0,1,0.0,0.20180000000004839
197,2,0.8,0.25,35.0,1,1.0,0.2527999999998656
198,2,0.8,0.0625,-35.0,-1,1.0,0.25110000000006494
199,2,0.8,0.0625,-35.0,1,0.0,0.5004000000000133
200,2,0.8,0.125,-35.0,1,0.0,0.23329999999998563
201,2,0.8,0.125,-35.0,1,0.0,0.21029999999996107
202,2,0.8,0.125,-35.0,-1,1.0,0.273900000000026
203,2,0.8,0.25,35.0,1,1.0,0.27529999999990196
204,2,0.8,1.0,-35.0,-1,1.0,0.18639999999993506
205,2,0.8,0.0625,-35.0,1,0.0,0.2681999999999789
206,2,0.8,0.125,-35.0,-1,1.0,0.43269999999995434
207,2,0.8,0.0625,35.0,1,1.0,4.302998999999886
208,2,0.8,0.125,-35.0,1,0.0,0.24500000000000455
209,2,0.8,0.25,-35.0,-1,1.0,0.2486989999999878
210,2,0.8,1.0,-35.0,-1,1.0,0.20590000000004238
211,2,0.8,0.0625,-35.0,-1,1.0,0.5649999999999409
212,2,0.8,0.0625,-35.0,-1,1.0,0.28559999999993124
213,2,0.8,0.25,-35.0,-1,1.0,0.40419999999994616
214,2,0.2,0.0625,-35.0,-1,1.0,0.6689000000000078
215,2,0.2,0.25,35.0,1,1.0,0.262299999999982
216,2,0.2,0.125,35.0,1,1.0,0.2705999999999449
217,2,0.2,0.0,35.0,1,1.0,0.2991989999999305
218,2,0.2,0.25,-35.0,-1,1.0,0.2658999999998741
219,2,0.2,0.0,35.0,1,1.0,0.2723999999999478
220,2,0.2,0.0,35.0,1,1.0,0.1938999999998714
221,2,0.2,0.0625,35.0,1,1.0,0.26330000000007203
222,2,0.2,0.0625,35.0,1,1.0,0.2647990000000391
223,2,0.2,0.0625,35.0,1,1.0,0.2177000000000362
224,2,0.2,0.25,35.0,1,1.0,0.24890000000004875
225,2,0.2,0.125,35.0,1,1.0,0.21079999999994925
226,2,0.2,0.0,35.0,1,1.0,0.2543990000000349
227,2,0.2,0.0,35.0,1,1.0,0.19449999999994816
228,2,0.2,0.0625,35.0,1,1.0,0.2420999999999367
229,2,0.2,0.25,35.0,1,1.0,0.2423999999998614
230,2,0.2,0.0625,35.0,1,1.0,0.24749999999994543
231,2,0.2,0.25,35.0,1,1.0,0.23699999999996635
232,2,0.2,0.0625,-35.0,1,0.0,0.2829999999999018
233,2,0.2,1.0,-35.0,-1,1.0,0.24659999999994398
234,2,0.2,0.125,35.0,1,1.0,0.2787990000000491
235,2,0.2,0.0,35.0,1,1.0,0.2602999999999156
236,2,0.2,0.0,35.0,1,1.0,0.24729999999988195
237,2,0.2,0.25,35.0,1,1.0,0.23159999999984393
238,2,0.2,0.0625,35.0,1,1.0,0.20860000000004675
239,2,0.2,1.0,35.0,1,1.0,0.24509999999986576
240,2,0.2,0.0,35.0,1,1.0,0.20409999999992579
241,2,0.2,0.0625,35.0,1,1.0,0.23109999999985575
242,2,0.2,0.0625,35.0,1,1.0,0.2579999999999245
243,2,0.2,0.25,35.0,1,1.0,0.2598999999999023
244,2,0.2,0.125,-35.0,-1,1.0,0.3104999999999336
245,2,0.2,0.0,-35.0,1,0.0,0.2807000000000244
246,2,0.2,0.0625,35.0,1,1.0,0.28359999999986485
247,2,0.2,0.0625,35.0,-1,0.0,0.40419999999994616
248,2,0.2,0.0625,35.0,1,1.0,1.5366999999999962
249,2,0.2,0.125,35.0,1,1.0,0.2718999999999596
250,2,0.2,0.125,-35.0,-1,1.0,0.22769999999991342
251,2,0.2,0.0625,-35.0,1,0.0,0.445699999999988
252,2,0.2,0.25,-35.0,-1,1.0,0.4109999999999445
253,2,0.2,0.0,35.0,1,1.0,0.23419999999998709
254,2,0.2,1.0,35.0,1,1.0,0.23299999999994725
255,2,0.2,0.25,35.0,1,1.0,0.22280000000000655
256,2,0.2,0.25,-35.0,-1,1.0,0.23249999999995907
257,2,0.2,0.0625,35.0,1,1.0,0.3447999999999638
258,2,0.2,1.0,35.0,1,1.0,0.2327989999998863
259,2,0.2,1.0,-35.0,-1,1.0,0.2335000000000491
260,2,0.2,0.0,-35.0,1,0.0,0.2319999999999709
261,2,0.8,0.0625,-35.0,1,0.0,0.23889999999994416
262,2,0.8,0.25,-35.0,-1,1.0,0.24329999999997654
263,2,0.8,0.125,-35.0,-1,1.0,0.41129899999987174
264,2,0.8,0.25,-35.0,-1,1.0,0.38649999999995543
265,2,0.8,0.125,-35.0,-1,1.0,0.4115000000000464
266,2,0.8,0.0625,-35.0,-1,1.0,0.3505000000000109
267,2,0.8,0.0,-35.0,-1,1.0,1.2695999999999685
268,2,0.8,0.25,-35.0,-1,1.0,0.24149999999985994
269,2,0.8,1.0,-35.0,-1,1.0,0.18840000000022883
270,2,0.8,0.25,-35.0,-1,1.0,0.22270000000025902
271,2,0.8,0.25,-35.0,-1,1.0,0.22550000000001091
272,2,0.8,0.0,-35.0,1,0.0,0.2807999999999993
273,2,0.8,1.0,-35.0,-1,1.0,0.20309999999994943
274,2,0.8,0.0625,-35.0,-1,1.0,0.2453000000002703
275,2,0.8,0.125,35.0,-1,0.0,0.3744000000001506
276,2,0.8,1.0,-35.0,-1,1.0,0.4158990000000813
277,2,0.8,0.0,-35.0,-1,1.0,0.6882000000000517
278,2,0.8,0.0,-35.0,1,0.0,0.2598000000002685
279,2,0.8,0.0,-35.0,1,0.0,0.23829999999998108
280,2,0.8,0.0625,-35.0,-1,1.0,0.22669999999993706
281,2,0.8,0.125,35.0,1,1.0,0.2964000000001761
282,2,0.8,1.0,-35.0,-1,1.0,0.1914000000001579
283,2,0.8,0.125,-35.0,-1,1.0,0.2174000000002252
284,2,0.8,0.0,-35.0,1,0.0,0.9351000000001477
285,2,0.8,0.125,35.0,1,1.0,0.6772000000000844
286,2,0.8,0.0625,-35.0,-1,1.0,0.28900000000021464
287,2,0.8,0.0625,-35.0,-1,1.0,0.44800000000009277
288,2,0.8,0.0,-35.0,1,0.0,0.2863999999999578
289,2,0.8,1.0,-35.0,-1,1.0,0.22520000000008622
290,2,0.8,0.125,-35.0,1,0.0,0.24069900000017697
291,2,0.8,0.0625,-35.0,-1,1.0,0.4697989999999663
292,2,0.8,1.0,-35.0,-1,1.0,0.1950000000001637
293,2,0.8,0.0,35.0,-1,0.0,0.8709000000001197
294,2,0.8,0.125,-35.0,1,0.0,0.24930000000017571
295,2,0.8,0.0625,35.0,1,1.0,0.22139999999990323
296,2,0.8,0.0,-35.0,1,0.0,0.5302999999998974
297,2,0.8,0.125,-35.0,-1,1.0,0.41879999999991924
298,2,0.8,0.0,35.0,1,1.0,0.27070000000003347
299,2,0.8,0.25,35.0,1,1.0,0.24620000000027176
300,2,0.8,0.125,-35.0,-1,1.0,0.6050000000002456
301,2,0.8,0.125,-35.0,1,0.0,0.33390000000008513
302,2,0.8,1.0,-35.0,-1,1.0,0.20889899999997397
303,2,0.8,0.125,35.0,1,1.0,0.2813000000003285
304,2,0.8,0.25,-35.0,-1,1.0,0.260300000000143
305,2,0.8,0.0,-35.0,1,0.0,0.29940000000010514
306,2,0.8,0.125,35.0,1,1.0,0.22759999999993852
307,2,0.8,0.25,-35.0,1,0.0,0.2665999999999258
308,2,0.8,0.0625,-35.0,-1,1.0,0.4719000000000051
309,2,0.8,0.0,-35.0,1,0.0,1.6635999999998603
310,2,0.8,0.0625,-35.0,1,0.0,0.20190000000002328
311,2,0.8,0.0625,-35.0,1,0.0,0.27140000000008513
312,2,0.8,0.0625,-35.0,-1,1.0,0.282799999999952
313,2,0.8,0.0625,-35.0,-1,1.0,0.2818999999999505
314,2,0.8,0.25,35.0,1,1.0,0.237400000000207
315,2,0.8,0.25,35.0,1,1.0,0.20710000000008222
316,2,0.8,0.0625,-35.0,-1,1.0,0.3187990000001264
317,2,0.8,1.0,35.0,1,1.0,0.22439900000017587
318,2,0.8,1.0,-35.0,-1,1.0,0.20980000000008658
319,2,0.8,0.25,35.0,1,1.0,0.2625000000000455
320,2,0.8,0.0625,-35.0,1,0.0,0.2239999999999327
321,2,0.8,0.0625,-35.0,1,0.0,0.3062000000002172
322,2,0.8,0.25,-35.0,-1,1.0,0.22810000000004038
323,2,0.8,0.0,-35.0,-1,1.0,0.5541999999998097
324,2,0.8,0.25,-35.0,-1,1.0,0.23289999999997235
325,2,0.8,0.0,-35.0,-1,1.0,0.5024989999999434
326,2,0.8,0.25,35.0,1,1.0,0.2836000000002059
327,2,0.8,1.0,-35.0,-1,1.0,0.20630000000005566
328,2,0.8,0.25,-35.0,-1,1.0,0.2516000000000531
329,2,0.8,1.0,35.0,1,1.0,0.2313000000001466
330,2,0.8,0.125,-35.0,-1,1.0,0.22630000000026484
331,2,0.8,0.0,35.0,1,1.0,0.25880000000006476
332,2,0.8,0.25,-35.0,-1,1.0,0.22710000000006403
333,2,0.8,0.0625,-35.0,-1,1.0,2.1397000000001754
334,2,0.8,0.0,35.0,-1,0.0,0.5480000000000018
335,2,0.8,0.125,-35.0,-1,1.0,0.3441000000002532
336,2,0.8,0.125,35.0,1,1.0,0.2620999999999185
337,2,0.8,0.125,-35.0,-1,1.0,0.32150000000001455
338,2,0.8,0.125,-35.0,-1,1.0,0.28359999999997854
339,2,0.8,1.0,-35.0,-1,1.0,0.2091000000002623
340,2,0.8,0.125,-35.0,-1,1.0,0.48030000000017026
341,2,0.8,1.0,-35.0,-1,1.0,0.18269999999984066
342,2,0.8,1.0,35.0,1,1.0,0.23459900000011658
343,2,0.8,0.0,35.0,-1,0.0,0.2076999999999316
344,2,0.8,0.0,-35.0,-1,1.0,0.5386000000000877
345,2,0.8,0.0,35.0,1,1.0,3.091000000000122
346,2,0.8,0.125,-35.0,-1,1.0,0.5591000000001713
347,2,0.8,0.0,-35.0,1,0.0,0.2954000000001997
348,2,0.2,0.0625,35.0,1,1.0,0.22349999999983083
349,2,0.2,1.0,35.0,1,1.0,0.2695000000001073
350,2,0.2,0.125,35.0,1,1.0,0.2481000000000222
351,2,0.2,1.0,35.0,1,1.0,0.2574000000001888
352,2,0.2,0.25,35.0,1,1.0,0.44270000000005894
353,2,0.2,0.125,35.0,1,1.0,0.24520000000006803
354,2,0.2,0.0625,35.0,1,1.0,0.24379900000008092
355,2,0.2,0.0,35.0,1,1.0,0.29670000000010077
356,2,0.2,0.25,35.0,1,1.0,0.29150000000004184
357,2,0.2,0.25,35.0,1,1.0,0.25119999999992615
358,2,0.2,0.125,35.0,1,1.0,0.21749999999997272
359,2,0.2,0.0625,-35.0,-1,1.0,0.3003999999998541
360,2,0.2,1.0,35.0,1,1.0,0.21220000000016626
361,2,0.2,0.0625,35.0,1,1.0,0.261600000000044
362,2,0.2,0.0,35.0,1,1.0,0.23260000000004766
363,2,0.2,1.0,35.0,1,1.0,0.3124000000000251
364,2,0.2,1.0,35.0,1,1.0,0.22390000000018517
365,2,0.2,0.125,35.0,1,1.0,0.4132000000001881
366,2,0.2,0.25,35.0,1,1.0,0.23150000000032378
367,2,0.2,0.125,35.0,1,1.0,0.2778000000000702
368,2,0.2,0.25,35.0,1,1.0,3.0108000000000175
369,2,0.2,0.25,35.0,1,1.0,0.2950999999998203
370,2,0.2,0.0625,35.0,1,1.0,0.30720000000019354
371,2,0.2,0.125,35.0,1,1.0,0.22659999999996217
372,2,0.2,1.0,35.0,1,1.0,0.23500000000012733
373,2,0.2,0.0,35.0,1,1.0,0.27440000000024156
374,2,0.2,0.25,35.0,1,1.0,0.22660000000018954
375,2,0.2,1.0,-35.0,-1,1.0,0.21939999999995052
376,2,0.2,1.0,-35.0,-1,1.0,0.20459999999980027
377,2,0.2,0.0,35.0,1,1.0,0.2737999999999374
378,2,0.2,0.0,35.0,1,1.0,0.26939999999990505
379,2,0.8,0.25,35.0,1,1.0,0.2986000000000786
380,2,0.8,0.25,-35.0,-1,1.0,0.26060000000006767
381,2,0.8,0.125,-35.0,-1,1.0,0.4397000000001299
382,2,0.8,0.0,-35.0,1,0.0,0.32539999999994507
383,2,0.8,0.0625,-35.0,1,0.0,0.3335990000000493
384,2,0.8,0.0,-35.0,1,0.0,0.23200000000019827
385,2,0.8,0.125,-35.0,1,0.0,0.3544999999999163
386,2,0.8,0.0,-35.0,1,0.0,0.2725000000000364
387,2,0.8,0.25,-35.0,-1,1.0,0.2215000000001055
388,2,0.8,1.0,35.0,1,1.0,0.19980000000009568
389,2,0.8,0.25,35.0,1,1.0,0.27899999999999636
390,2,0.8,0.0,-35.0,-1,1.0,0.2511000000001786
391,2,0.8,0.0,-35.0,1,0.0,0.35370000000011714
392,2,0.8,0.125,-35.0,-1,1.0,0.265400000000227
393,2,0.8,1.0,-35.0,-1,1.0,0.31539999999995416
394,2,0.8,1.0,-35.0,-1,1.0,0.21870000000012624
395,2,0.8,0.25,-35.0,-1,1.0,0.21460000000001855
396,2,0.8,1.0,-35.0,-1,1.0,0.21309999999994034
397,2,0.8,0.0625,-35.0,1,0.0,1.0760000000000218
398,2,0.8,0.0,-35.0,-1,1.0,0.370600000000195
399,2,0.8,1.0,-35.0,-1,1.0,0.209599000000253
400,2,0.8,0.25,35.0,1,1.0,0.3483990000001995
401,2,0.8,0.0,-35.0,-1,1.0,0.67450000000008
402,2,0.8,0.25,-35.0,-1,1.0,0.24599899999998343
403,2,0.8,0.25,-35.0,-1,1.0,0.2151000000003478
404,2,0.8,0.0,-35.0,-1,1.0,0.203899999999976
405,2,0.8,0.25,35.0,-1,0.0,0.35700000000019827
406,2,0.8,0.25,-35.0,1,0.0,2.3332000000000335
407,2,0.8,0.0625,-35.0,1,0.0,0.7346999999999753
408,2,0.8,0.0625,-35.0,-1,1.0,0.5092990000002828
409,2,0.8,0.125,-35.0,-1,1.0,0.2954000000001997
410,2,0.8,0.125,35.0,1,1.0,0.40380000000004657
411,2,0.8,0.125,35.0,1,1.0,0.42669999999998254
412,2,0.8,0.125,-35.0,-1,1.0,0.3147000000001299
413,2,0.8,0.0,-35.0,-1,1.0,0.33090000000015607
414,2,0.8,1.0,-35.0,-1,1.0,0.2195000000001528
415,2,0.8,0.0,-35.0,-1,1.0,0.5117999999999938
416,2,0.8,0.25,-35.0,-1,1.0,0.17060000000014952
417,2,0.8,0.125,-35.0,-1,1.0,0.2197000000001026
418,2,0.8,0.25,35.0,1,1.0,0.39859999999998763
419,2,0.8,1.0,-35.0,-1,1.0,0.2278000000001157
420,2,0.8,0.0625,35.0,-1,0.0,0.643100000000004
421,2,0.8,0.0,-35.0,1,0.0,7.201999999999998
422,2,0.8,0.125,35.0,1,1.0,0.2120990000000802
423,2,0.8,0.25,-35.0,-1,1.0,0.2236000000000331
424,2,0.8,0.0,-35.0,1,0.0,0.35980000000017753
425,2,0.8,0.25,35.0,1,1.0,0.24130000000013752
426,2,0.8,0.0625,-35.0,-1,1.0,0.46020000000021355
427,2,0.8,0.125,35.0,1,1.0,0.271900000000187
428,2,0.8,0.25,-35.0,-1,1.0,0.21470000000022083
429,2,0.8,0.0625,-35.0,1,0.0,0.26340000000004693
430,2,0.8,0.0,-35.0,1,0.0,0.3461000000002059
431,2,0.8,1.0,35.0,1,1.0,0.23040000000014516
432,2,0.8,0.125,-35.0,-1,1.0,0.23630000000002838
433,2,0.8,0.0625,-35.0,1,0.0,0.3610000000001037
434,2,0.8,1.0,-35.0,-1,1.0,0.2035000000000764
435,2,0.8,0.125,-35.0,-1,1.0,0.2353000000002794
436,2,0.8,0.25,-35.0,-1,1.0,0.38730000000032305
437,2,0.8,0.25,-35.0,-1,1.0,0.4456000000000131
438,2,0.8,0.125,-35.0,-1,1.0,0.4615000000001146
439,2,0.8,0.125,-35.0,-1,1.0,0.24020000000018626
440,2,0.8,0.0,-35.0,1,0.0,0.4231999999999516
441,2,0.8,0.25,-35.0,-1,1.0,0.3578000000002248
442,2,0.8,0.125,-35.0,-1,1.0,0.5104000000001179
443,2,0.8,0.125,-35.0,-1,1.0,0.5144000000000233
444,2,0.8,0.0625,-35.0,-1,1.0,0.3967000000002372
445,2,0.8,0.0,35.0,-1,0.0,0.3187000000000353
446,2,0.8,0.25,-35.0,-1,1.0,0.3273999999998978
447,2,0.8,0.0,-35.0,1,0.0,3.118099999999913
448,2,0.8,0.0625,-35.0,1,0.0,0.20929999999998472
449,2,0.8,0.0,-35.0,1,0.0,0.2513000000001284
450,2,0.8,0.0,-35.0,-1,1.0,0.6936000000002878
451,2,0.8,1.0,-35.0,-1,1.0,0.24080000000003565
452,2,0.8,0.25,-35.0,-1,1.0,0.35019999999985885
453,2,0.8,1.0,-35.0,-1,1.0,0.20830000000000837
454,2,0.8,0.0,-35.0,-1,1.0,0.25739999999996144
455,2,0.8,0.125,-35.0,-1,1.0,0.4160990000000311
456,2,0.8,0.0625,35.0,1,1.0,0.30179900000007365
457,2,0.8,0.125,-35.0,-1,1.0,0.23070000000006985
458,2,0.8,0.25,-35.0,-1,1.0,0.23990000000026157
459,2,0.8,0.125,-35.0,-1,1.0,0.25540000000000873
460,2,0.8,0.0,-35.0,-1,1.0,0.6715999999998985
461,2,0.8,0.25,-35.0,-1,1.0,0.2500000000002274
462,2,0.8,0.25,-35.0,-1,1.0,0.3553999999999178
463,2,0.8,0.0,-35.0,-1,1.0,0.25080000000002656
464,2,0.8,0.0,-35.0,-1,1.0,0.23020000000019536
465,2,0.8,0.25,-35.0,-1,1.0,0.2221999999999298
466,2,0.8,0.0625,-35.0,-1,1.0,0.24120000000016262
467,2,0.8,0.0,-35.0,-1,1.0,0.4697000000001026
468,2,0.2,0.25,35.0,1,1.0,0.5025000000000546
469,2,0.2,0.25,-35.0,-1,1.0,0.4236989999999423
470,2,0.2,1.0,35.0,1,1.0,0.2828990000000431
471,2,0.2,0.0,35.0,1,1.0,0.22840000000019245
472,2,0.2,0.0,35.0,1,1.0,0.44400000000018736
473,2,0.2,0.0625,35.0,1,1.0,0.2695000000001073
474,2,0.2,1.0,-35.0,-1,1.0,0.21860000000015134
475,2,0.2,0.125,35.0,1,1.0,0.3975000000000364
476,2,0.2,0.0,35.0,1,1.0,0.4536000000000513
477,2,0.2,0.0625,-35.0,1,0.0,0.26530000000002474
478,2,0.2,0.25,35.0,1,1.0,0.29749999999989996
479,2,0.2,0.0,35.0,1,1.0,0.2856000000001586
480,2,0.2,0.25,35.0,1,1.0,0.33130000000005566
481,2,0.2,1.0,35.0,1,1.0,0.28680000000031214
482,2,0.2,0.0625,35.0,1,1.0,0.20920000000000982
483,2,0.2,0.125,35.0,1,1.0,0.41429999999991196
484,2,0.2,0.0625,35.0,1,1.0,0.18710000000032778
485,2,0.2,0.0625,35.0,1,1.0,0.28899999999998727
486,2,0.2,0.0,35.0,1,1.0,0.21500000000014552
487,2,0.2,0.0,-35.0,1,0.0,0.3303000000000793
488,2,0.2,0.0625,35.0,1,1.0,0.20539899999994304
489,2,0.2,1.0,35.0,1,1.0,0.2544000000000324
490,2,0.2,0.25,-35.0,-1,1.0,0.4177990000000591
491,2,0.2,0.0,35.0,1,1.0,0.2479990000001635
492,2,0.2,0.0,35.0,1,1.0,0.2705000000000837
493,2,0.2,0.125,35.0,1,1.0,0.21250000000009095
494,2,0.2,0.0625,35.0,1,1.0,0.4681000000000495
495,2,0.2,0.125,-35.0,-1,1.0,0.22700000000008913
496,2,0.2,0.0625,35.0,1,1.0,0.31060000000024957
497,2,0.2,1.0,35.0,1,1.0,0.2681999999999789
498,2,0.2,0.0,35.0,1,1.0,0.2535000000002583
499,2,0.2,0.0625,35.0,1,1.0,0.23900000000003274
500,2,0.2,0.0625,-35.0,1,0.0,0.35560000000009495
501,2,0.2,0.25,35.0,1,1.0,0.20929999999998472
502,2,0.2,1.0,35.0,1,1.0,0.2494000000001506
503,2,0.2,0.25,35.0,1,1.0,0.32730000000015025
504,2,0.2,0.0,35.0,1,1.0,0.41650000000004184
505,2,0.2,0.125,35.0,1,1.0,0.27140000000008513
506,2,0.2,0.25,35.0,1,1.0,0.4473000000000411
507,2,0.2,0.0625,35.0,1,1.0,2.6773000000000593
508,2,0.2,0.125,35.0,1,1.0,0.2661000000000513
509,2,0.2,0.125,-35.0,-1,1.0,0.24440000000026885
510,2,0.2,0.25,35.0,1,1.0,0.24720000000002074
511,2,0.2,0.0,-35.0,1,0.0,0.4521989999998368
512,2,0.2,0.0,35.0,1,1.0,0.22410000000013497
513,2,0.2,0.25,35.0,1,1.0,0.3932000000002063
514,2,0.2,0.25,-35.0,-1,1.0,0.23959999999988213
515,2,0.2,0.0,35.0,1,1.0,0.3410000000001219
516,2,0.2,0.0,-35.0,1,0.0,0.2544000000000324
517,2,0.2,0.0,35.0,1,1.0,0.24510000000009313
518,2,0.2,0.0,35.0,1,1.0,0.358600000000024
519,2,0.2,0.0625,35.0,1,1.0,0.34970000000021173
520,2,0.2,1.0,35.0,1,1.0,0.29559999999992215
521,2,0.2,0.0625,35.0,1,1.0,0.32780000000002474
522,2,0.2,0.0,35.0,1,1.0,0.2533000000003085
523,2,0.2,0.125,35.0,1,1.0,0.281800000000203
524,2,0.2,0.25,35.0,1,1.0,0.31089999999949214
525,2,0.2,0.0625,35.0,1,1.0,0.432999999999538
526,2,0.2,1.0,35.0,1,1.0,0.27549999999973807
527,2,0.2,0.0625,35.0,1,1.0,0.3308999999999287
528,2,0.2,0.0625,35.0,1,1.0,0.2600999999999658
529,2,0.8,1.0,35.0,1,1.0,0.34189999999989595
530,2,0.8,0.0625,-35.0,1,0.0,3.010099999999511
531,2,0.8,0.0,-35.0,1,0.0,0.27309999999988577
532,2,0.8,0.0,-35.0,1,0.0,0.19519999999965876
533,2,0.8,0.0,-35.0,-1,1.0,0.472700000000259
534,2,0.8,0.25,-35.0,-1,1.0,0.37309899999991103
535,2,0.8,0.0625,35.0,1,1.0,0.2983989999993355
536,2,0.8,0.125,-35.0,-1,1.0,0.14400000000023283
537,2,0.8,0.25,-35.0,-1,1.0,0.22269999999980428
538,2,0.8,0.25,-35.0,-1,1.0,0.20869999999968059
539,2,0.8,0.0625,-35.0,-1,1.0,0.23079999999981737
540,2,0.8,0.0,-35.0,1,0.0,0.2829999999999018
541,2,0.8,0.0,-35.0,1,0.0,0.31459999999970023
542,2,0.8,0.0625,-35.0,-1,1.0,0.4268989999995938
543,2,0.8,0.0625,-35.0,-1,1.0,0.4284000000002379
544,2,0.8,1.0,-35.0,-1,1.0,0.20129999999971915
545,2,0.8,0.0,35.0,-1,0.0,0.3128999999998996
546,2,0.8,0.125,-35.0,-1,1.0,0.2380990000001475
547,2,0.8,0.0,-35.0,-1,1.0,0.2836000000002059
548,2,0.8,0.25,-35.0,-1,1.0,0.2060999999998785
549,2,0.8,0.0625,-35.0,-1,1.0,0.4648999999994885
550,2,0.8,1.0,-35.0,-1,1.0,0.22399999999970532
551,2,0.8,0.25,-35.0,-1,1.0,0.22600000000011278
552,2,0.8,0.0625,-35.0,-1,1.0,0.3888999999994667
553,2,0.8,1.0,-35.0,-1,1.0,0.20730000000003201
554,2,0.8,1.0,-35.0,-1,1.0,0.20289999999977226
555,2,0.2,1.0,35.0,1,1.0,0.36029999999982465
556,2,0.2,0.0625,35.0,-1,0.0,0.5561999999995351
557,2,0.2,0.0,-35.0,1,0.0,0.9642999999996391
558,2,0.2,1.0,35.0,1,1.0,0.28290000000015425
559,2,0.2,1.0,35.0,1,1.0,0.2881999999999607
560,2,0.2,0.125,-35.0,-1,1.0,0.4707999999995991
561,2,0.2,0.25,35.0,1,1.0,0.25929899999937334
562,2,0.2,1.0,-35.0,-1,1.0,0.19499999999970896
563,2,0.2,0.25,35.0,-1,0.0,0.21389999999973952
564,2,0.2,0.0,35.0,1,1.0,0.24989999999979773
565,2,0.2,0.0,35.0,-1,0.0,1.7633999999998196
566,2,0.2,0.0,35.0,1,1.0,0.2723000000000866
567,2,0.2,0.125,35.0,1,1.0,0.2972999999997228
568,2,0.2,0.0,-35.0,1,0.0,0.44330000000036307
569,2,0.2,0.125,35.0,1,1.0,0.22839999999951033
570,2,0.2,0.25,-35.0,-1,1.0,0.40029999999978827
571,2,0.2,1.0,35.0,1,1.0,0.4157000000000153
572,2,0.2,0.0,35.0,1,1.0,0.3117000000002008
573,2,0.2,1.0,35.0,1,1.0,0.28369999999995343
574,2,0.2,0.25,-35.0,-1,1.0,0.2060999999998785
575,2,0.2,0.25,35.0,1,1.0,0.2209999999995489
576,2,0.2,0.125,35.0,-1,0.0,0.42439999999987776
577,2,0.2,0.0,35.0,1,1.0,0.23859899999979461
578,2,0.2,0.0,35.0,1,1.0,0.29119900000023335
579,2,0.2,0.0625,35.0,1,1.0,0.3766000000000531
580,2,0.2,0.125,35.0,1,1.0,0.3222000000000662
581,2,0.2,0.25,35.0,1,1.0,0.34780000000000655
582,2,0.2,0.25,35.0,1,1.0,0.14699999999993452
583,2,0.2,0.25,35.0,1,1.0,0.2523999999998523
584,2,0.2,0.0625,35.0,1,1.0,0.2747999999996864
585,2,0.2,1.0,35.0,1,1.0,0.2332999999994172
586,2,0.2,0.0,35.0,1,1.0,0.30250000000023647
587,2,0.2,0.25,35.0,1,1.0,0.25480000000015934
588,2,0.2,0.125,35.0,1,1.0,0.2543989999999212
589,2,0.2,1.0,35.0,1,1.0,0.2526999999995496
590,2,0.2,0.25,35.0,1,1.0,0.2955999999994674
591,2,0.2,0.125,35.0,1,1.0,0.4272999999998319
592,2,0.2,0.125,35.0,1,1.0,0.28009999999949287
593,2,0.2,0.25,35.0,1,1.0,0.27829999999948996
594,2,0.2,0.0,-35.0,1,0.0,5.0086999999998625
595,2,0.2,0.0625,35.0,1,1.0,0.3184999999998581
596,2,0.2,0.25,35.0,1,1.0,0.26179999999976644
597,2,0.8,0.125,35.0,1,1.0,0.27979999999979555
598,2,0.8,0.0625,-35.0,1,0.0,0.2957999999994172
599,2,0.8,0.25,-35.0,1,0.0,0.27070000000003347
600,2,0.8,0.25,-35.0,-1,1.0,0.40299999999979264
601,2,0.8,0.25,-35.0,-1,1.0,0.3445999999999003
602,2,0.8,0.0,-35.0,-1,1.0,0.8843999999994594
603,2,0.8,0.25,35.0,1,1.0,0.645600000000286
604,2,0.8,0.0,35.0,1,1.0,0.2880000000000109
605,2,0.8,0.0625,-35.0,1,0.0,0.3530989999999292
606,2,0.8,0.0,-35.0,1,0.0,0.2719999999999345
607,2,0.8,1.0,-35.0,-1,1.0,0.3271999999997206
608,2,0.8,0.25,-35.0,-1,1.0,0.2187999999996464
609,2,0.8,1.0,-35.0,-1,1.0,0.22759999999971114
610,2,0.8,0.0,-35.0,-1,1.0,0.4201999999995678
611,2,0.8,0.125,-35.0,-1,1.0,0.31879999999955544
612,2,0.8,0.125,-35.0,-1,1.0,0.2244999999998072
613,2,0.8,0.0,35.0,-1,0.0,3.298699999999826
614,2,0.8,0.25,-35.0,-1,1.0,0.18759999999974752
615,2,0.8,0.0625,-35.0,1,0.0,0.2620999999999185
616,2,0.8,0.0625,-35.0,-1,1.0,0.41820000000006985
617,2,0.8,0.25,-35.0,-1,1.0,0.23279999999977008
618,2,0.8,0.0625,-35.0,-1,1.0,0.40859999999975116
619,2,0.8,1.0,-35.0,-1,1.0,0.24719999999979336
620,2,0.8,0.25,35.0,1,1.0,0.2664999999997235
621,2,0.8,0.125,-35.0,-1,1.0,0.4847999999997228
622,2,0.8,0.0625,35.0,1,1.0,0.2704999999996289
623,2,0.8,1.0,-35.0,-1,1.0,0.21239999999988868
624,2,0.8,0.125,-35.0,-1,1.0,0.2118000000000393
625,2,0.8,1.0,-35.0,-1,1.0,0.2395989999995436
626,2,0.8,0.0,-35.0,1,0.0,0.3223990000001322
627,2,0.8,0.0,-35.0,-1,1.0,8.6903999999995
628,2,0.8,0.25,-35.0,-1,1.0,0.2770999999997912
629,2,0.8,0.0,35.0,1,1.0,0.5587999999997919
630,2,0.8,0.0625,-35.0,1,0.0,0.3313999999995758
631,2,0.8,1.0,-35.0,-1,1.0,0.21630000000004657
632,2,0.8,0.25,-35.0,-1,1.0,0.2090000000002874
633,2,0.8,0.0625,-35.0,-1,1.0,0.29080000000021755
634,2,0.8,0.0,-35.0,1,0.0,0.6574000000000524
635,2,0.8,0.0625,35.0,1,1.0,0.24819999999954234
636,2,0.8,0.125,-35.0,-1,1.0,0.4070999999999003
637,2,0.8,0.25,35.0,1,1.0,0.3290999999999258
638,2,0.8,0.25,-35.0,-1,1.0,0.23529999999982465
639,2,0.8,0.125,-35.0,-1,1.0,0.2831989999999678
640,2,0.8,0.125,35.0,1,1.0,0.328899999999976
641,2,0.8,0.0625,35.0,1,1.0,0.36419999999998254
642,2,0.8,0.125,-35.0,-1,1.0,0.24969999999984793
643,2,0.8,0.0,-35.0,1,0.0,1.05829999999969
644,2,0.8,0.0625,-35.0,-1,1.0,0.7965999999996711
645,2,0.8,0.0625,-35.0,-1,1.0,0.17869999999993524
646,2,0.8,0.0625,-35.0,-1,1.0,0.21789999999964493
647,2,0.8,0.0,35.0,-1,0.0,0.13999999999987267
648,2,0.8,0.125,-35.0,1,0.0,0.2887999999998101
649,2,0.8,0.0,-35.0,1,0.0,5.354000000000269
650,2,0.8,0.25,35.0,1,1.0,0.2671999999997752
651,2,0.8,1.0,-35.0,-1,1.0,0.21259999999983847
652,2,0.8,0.0625,35.0,1,1.0,0.31089899999960835
653,2,0.8,0.0625,35.0,1,1.0,0.4029000000000451
654,2,0.8,1.0,35.0,1,1.0,0.2553000000002612
655,2,0.8,0.0625,-35.0,1,0.0,0.41390000000001237
656,2,0.8,0.0,-35.0,1,0.0,0.26270000000022264
657,2,0.8,0.0625,-35.0,1,0.0,0.24439999999958673
658,2,0.8,0.125,35.0,1,1.0,0.23979999999983193
659,2,0.8,0.0625,-35.0,1,0.0,0.1718999999998232
660,2,0.8,1.0,-35.0,-1,1.0,0.25059999999939464
661,2,0.8,0.0,-35.0,-1,1.0,0.14609900000004927
662,2,0.8,0.25,-35.0,-1,1.0,0.22189999999955035
663,2,0.8,0.25,-35.0,-1,1.0,0.4300989999997
664,2,0.8,0.0,-35.0,-1,1.0,0.495499999999538
665,2,0.8,0.0625,35.0,1,1.0,0.2842000000000553
666,2,0.8,0.0625,-35.0,-1,1.0,0.4762999999998101
667,2,0.8,0.125,35.0,1,1.0,0.3647000000000844
668,2,0.8,0.0625,35.0,1,1.0,0.3368999999997868
669,2,0.8,1.0,-35.0,-1,1.0,0.2286999999996624
670,2,0.8,0.125,-35.0,-1,1.0,0.40129999999953725
671,2,0.8,0.0625,-35.0,-1,1.0,0.24309999999968568
672,2,0.8,0.25,-35.0,-1,1.0,0.20559999999977663
673,2,0.8,0.0,-35.0,-1,1.0,0.3634999999999309
674,2,0.8,0.125,-35.0,-1,1.0,0.28629999999975553
675,2,0.8,0.25,-35.0,-1,1.0,0.20460000000002765
676,2,0.8,1.0,-35.0,-1,1.0,0.20709899999974368
677,2,0.8,0.0625,-35.0,-1,1.0,0.18800000000010186
678,2,0.8,0.25,-35.0,-1,1.0,0.3994999999999891
679,2,0.8,0.0,35.0,-1,0.0,0.26799999999957436
680,2,0.8,1.0,-35.0,-1,1.0,0.22989999999981592
681,2,0.8,0.25,-35.0,-1,1.0,0.6911000000000058
682,2,0.8,0.25,35.0,1,1.0,0.3033999999997832
683,2,0.8,0.125,-35.0,-1,1.0,0.24890000000004875
684,2,0.8,1.0,35.0,1,1.0,0.3346000000001368
685,2,0.8,0.125,-35.0,-1,1.0,0.23999899999989793
686,2,0.8,0.125,-35.0,-1,1.0,0.3417999999996937
687,2,0.8,0.125,-35.0,-1,1.0,0.22009999999954744
688,2,0.8,0.0625,-35.0,-1,1.0,0.09919899999977133
689,2,0.8,0.0625,-35.0,-1,1.0,0.7211999999994987
690,2,0.8,0.0,-35.0,-1,1.0,3.309099999999944
691,2,0.8,0.125,-35.0,-1,1.0,0.21689899999955742
692,2,0.2,0.125,35.0,1,1.0,0.3265999999998712
693,2,0.2,0.0625,35.0,1,1.0,0.38469999999961146
694,2,0.2,1.0,35.0,1,1.0,0.1902999999997519
695,2,0.2,0.0625,35.0,1,1.0,0.25889999999935753
696,2,0.2,1.0,35.0,1,1.0,0.24830000000019936
697,2,0.2,0.125,35.0,1,1.0,0.2929999999996653
698,2,0.2,0.0625,-35.0,1,0.0,0.25529999999980646
699,2,0.2,1.0,35.0,1,1.0,0.13700000000017099
700,2,0.2,0.0625,-35.0,-1,1.0,1.6758999999997286
701,2,0.2,0.0,-35.0,1,0.0,0.2568999999994048
702,2,0.2,0.25,-35.0,-1,1.0,0.2124999999996362
703,2,0.2,0.125,35.0,1,1.0,0.26099999999996726
704,2,0.2,0.125,35.0,1,1.0,0.290599999999813
705,2,0.2,0.0625,-35.0,-1,1.0,0.23219999999946594
706,2,0.2,0.125,-35.0,-1,1.0,0.23150000000032378
707,2,0.2,0.25,35.0,1,1.0,0.31349899999941044
708,2,0.2,0.125,35.0,1,1.0,0.31249899999966146
709,2,0.2,0.25,35.0,1,1.0,0.4345999999995911
710,2,0.2,0.125,35.0,1,1.0,0.33049999999957436
711,2,0.2,0.125,35.0,1,1.0,0.3622999999993226
712,2,0.2,0.125,35.0,1,1.0,0.2581000000000131
713,2,0.2,0.25,35.0,1,1.0,0.24019999999973152
714,2,0.2,1.0,35.0,1,1.0,0.24979999999959546
715,2,0.2,0.125,35.0,1,1.0,0.3213999999998123
716,2,0.2,0.25,35.0,1,1.0,0.2525999999998021
717,2,0.2,0.125,35.0,1,1.0,0.25759900000002744
718,2,0.2,1.0,35.0,1,1.0,0.2699989999996433
719,2,0.2,0.125,35.0,1,1.0,0.361899999999423
720,2,0.2,1.0,35.0,1,1.0,0.2944999999999709
721,2,0.2,1.0,35.0,1,1.0,0.26299999999991996
722,2,0.2,1.0,-35.0,-1,1.0,0.18319999999948777
723,2,0.2,0.0625,35.0,1,1.0,0.32089899999982663
724,2,0.2,0.0,35.0,1,1.0,0.3099999999994907
725,2,0.2,0.25,35.0,1,1.0,0.4521999999997206
726,2,0.2,0.25,35.0,1,1.0,0.22510000000011132
727,2,0.2,0.0,-35.0,1,0.0,0.21959999999990032
728,2,0.2,1.0,35.0,1,1.0,0.21159999999963475
729,2,0.2,0.25,35.0,1,1.0,0.2704999999996289
730,2,0.2,0.125,35.0,1,1.0,0.25320000000010623
731,2,0.2,1.0,-35.0,-1,1.0,0.20829999999932625
732,2,0.2,0.0625,35.0,1,1.0,0.341099999999642
733,2,0.2,0.125,-35.0,-1,1.0,0.4060999999996966
734,2,0.2,1.0,35.0,1,1.0,0.22510000000011132
735,2,0.2,0.0,35.0,1,1.0,0.5268000000000939
736,2,0.2,0.0625,-35.0,1,0.0,0.33910000000014406
737,2,0.2,0.0,35.0,1,1.0,3.179599999999482
738,2,0.8,0.0625,-35.0,-1,1.0,0.7777000000000953
739,2,0.8,0.0,-35.0,1,0.0,0.4926999999997861
740,2,0.8,0.125,-35.0,-1,1.0,0.32429999999976644
741,2,0.8,0.25,-35.0,-1,1.0,0.338799999999992
742,2,0.8,0.125,-35.0,-1,1.0,0.5568999999995867
743,2,0.8,0.0,-35.0,-1,1.0,0.4485999999997148
744,2,0.8,0.0,-35.0,-1,1.0,1.154700000000048
745,2,0.8,0.125,-35.0,-1,1.0,0.22269999999980428
746,2,0.8,0.0,-35.0,-1,1.0,0.42869999999993524
747,2,0.8,0.125,-35.0,-1,1.0,0.2573000000002139
748,2,0.8,0.125,-35.0,-1,1.0,0.41529999999966094
749,2,0.8,0.0625,-35.0,-1,1.0,0.3033999999997832
750,2,0.8,0.25,-35.0,-1,1.0,0.44779999999946085
751,2,0.8,0.0625,-35.0,1,0.0,2.4288990000000013
752,2,0.8,1.0,35.0,1,1.0,0.26769899999999325
753,2,0.8,0.125,-35.0,-1,1.0,0.2321999999999207
754,2,0.8,0.0625,-35.0,-1,1.0,0.7778999999995904
755,2,0.8,0.0,-35.0,-1,1.0,0.38999999999987267
756,2,0.8,1.0,35.0,1,1.0,0.23559999999997672
757,2,0.8,0.0625,-35.0,-1,1.0,0.2574989999998252
758,2,0.8,0.0625,-35.0,1,0.0,0.29340000000001965
759,2,0.8,0.0625,-35.0,-1,1.0,0.17830000000003565
760,2,0.2,0.0,35.0,-1,0.0,0.2539000000001579
761,2,0.2,0.25,-35.0,-1,1.0,0.27919999999994616
762,2,0.2,0.125,35.0,-1,0.0,0.7815999999997985
763,2,0.2,0.25,35.0,1,1.0,0.3592999999996209
764,2,0.2,0.0,35.0,1,1.0,3.3840989999998783
765,2,0.2,0.0625,-35.0,1,0.0,0.3476999999998043
766,2,0.2,0.25,35.0,1,1.0,0.24319900000000416
767,2,0.2,0.0,35.0,1,1.0,2.537399999999707
768,2,0.2,0.125,-35.0,1,0.0,0.4157999999997628
769,2,0.2,0.0625,-35.0,-1,1.0,0.5297989999999118
770,2,0.2,0.0625,35.0,1,1.0,0.6690989999997328
771,2,0.2,0.25,35.0,1,1.0,0.3107999999997446
772,2,0.2,0.125,35.0,1,1.0,0.3101000000001477
773,2,0.2,0.25,35.0,1,1.0,0.31520000000000437
774,2,0.2,0.0625,35.0,1,1.0,0.4841999999998734
775,2,0.2,0.125,35.0,1,1.0,0.23929999999973006
776,2,0.2,0.0625,35.0,1,1.0,0.35900000000037835
777,2,0.2,1.0,35.0,1,1.0,0.2770989999999074
778,2,0.2,1.0,-35.0,-1,1.0,0.22309999999970387
779,2,0.2,0.0,-35.0,1,0.0,4.557098999999653
780,2,0.2,0.0625,35.0,1,1.0,0.23100000000022192
781,2,0.2,0.25,35.0,1,1.0,3.152599999999893
782,2,0.2,0.0,35.0,1,1.0,0.2672000000002299
783,2,0.2,1.0,35.0,1,1.0,0.2622999999998683
784,2,0.2,0.0,35.0,1,1.0,0.31879899999967165
785,2,0.2,0.125,35.0,1,1.0,0.27369999999973516
786,2,0.2,1.0,35.0,1,1.0,0.25270000000000437
787,2,0.2,0.0,35.0,1,1.0,0.36129899999968984
788,2,0.2,0.125,35.0,1,1.0,0.36340000000018335
789,2,0.2,0.125,35.0,1,1.0,0.33559999999988577
790,2,0.2,0.0625,35.0,1,1.0,0.27579999999989013
791,2,0.2,0.0625,35.0,1,1.0,0.18349899999975605
792,2,0.2,0.0,35.0,1,1.0,0.4818999999997686
793,2,0.2,1.0,-35.0,-1,1.0,0.2640999999998712
794,2,0.2,0.0625,35.0,1,1.0,0.3164000000001579
795,2,0.2,1.0,35.0,1,1.0,0.3018000000001848
796,2,0.2,0.25,-35.0,-1,1.0,0.5072999999997592
797,2,0.2,1.0,35.0,1,1.0,0.30940000000009604
798,2,0.2,0.0,35.0,1,1.0,3.17450000000008
799,2,0.2,0.0,-35.0,1,0.0,0.26529999999957
800,2,0.2,0.25,35.0,1,1.0,0.2671999999997752
801,2,0.2,0.0,35.0,-1,0.0,0.42259999999987485
802,2,0.2,0.0625,-35.0,1,0.0,0.2644999999997708
803,2,0.2,0.125,-35.0,-1,1.0,0.3926989999995385
804,2,0.2,1.0,35.0,1,1.0,0.3052999999995336
805,2,0.2,0.0,35.0,1,1.0,0.31710000000020955
806,2,0.2,0.0625,35.0,1,1.0,0.3198000000002139
807,2,0.2,0.125,35.0,1,1.0,0.3380000000001928
808,2,0.2,0.0625,35.0,1,1.0,0.5943999999999505
809,2,0.2,0.25,35.0,1,1.0,0.2947999999996682
810,2,0.2,0.125,35.0,1,1.0,2.9041999999994914
811,2,0.2,0.0625,35.0,1,1.0,1.688499999999749
812,2,0.2,0.0,35.0,1,1.0,0.23410000000012587
813,2,0.2,0.0,-35.0,1,0.0,0.5453000000002248
814,2,0.2,0.0625,35.0,1,1.0,0.2972999999997228
815,2,0.2,1.0,35.0,1,1.0,1.0914999999999964
816,2,0.8,0.0,-35.0,1,0.0,0.2567999999996573
817,2,0.8,0.125,-35.0,-1,1.0,0.25789899999972477
818,2,0.8,0.125,-35.0,-1,1.0,0.23700000000008004
819,2,0.8,0.0,-35.0,-1,1.0,0.5089999999995598
820,2,0.8,0.0625,-35.0,-1,1.0,0.8647999999998319
821,2,0.8,0.0,-35.0,-1,1.0,0.6984999999999673
822,2,0.8,1.0,-35.0,-1,1.0,0.2367999999996755
823,2,0.8,0.25,35.0,1,1.0,0.3188000000000102
824,2,0.8,0.125,-35.0,-1,1.0,0.23139999999966676
825,2,0.8,0.0625,-35.0,-1,1.0,0.8731999999999971
826,2,0.8,1.0,-35.0,-1,1.0,0.2220999999999549
827,2,0.8,0.0625,-35.0,-1,1.0,0.27419999999938227
828,2,0.8,0.0,35.0,-1,0.0,0.3231999999998152
829,2,0.8,1.0,-35.0,-1,1.0,0.2750999999998385
830,2,0.8,0.0625,-35.0,-1,1.0,0.42659999999978027
831,2,0.8,0.0625,-35.0,1,0.0,0.30520000000024083
832,2,0.8,1.0,-35.0,-1,1.0,0.22910000000001673
833,2,0.8,0.0625,-35.0,-1,1.0,0.25129999999990105
834,2,0.8,0.0625,-35.0,-1,1.0,0.2539999999999054
835,2,0.8,1.0,35.0,1,1.0,0.2889999999997599
836,2,0.8,1.0,-35.0,-1,1.0,0.23129999999991924
837,2,0.8,0.125,-35.0,-1,1.0,0.28350000000000364
838,2,0.8,0.25,-35.0,-1,1.0,0.49240000000008877
839,2,0.8,0.0625,-35.0,-1,1.0,0.25789999999960855
840,2,0.8,0.0625,-35.0,-1,1.0,0.3334999999997308
841,2,0.8,1.0,-35.0,-1,1.0,0.23759999999992942
842,2,0.8,1.0,-35.0,-1,1.0,0.5673999999994521
843,2,0.8,0.25,-35.0,-1,1.0,0.24179999999978463
844,2,0.8,0.25,35.0,1,1.0,0.39069999999992433
845,2,0.8,0.125,35.0,1,1.0,3.7419989999998506
846,2,0.8,0.25,-35.0,-1,1.0,0.5037999999995009
847,2,0.8,0.125,-35.0,-1,1.0,0.21849999999994907
848,2,0.8,1.0,-35.0,-1,1.0,0.21419999999943684
849,2,0.8,1.0,35.0,1,1.0,0.34239900000011403
850,2,0.8,1.0,-35.0,-1,1.0,0.2647999999999229
851,2,0.8,0.0625,-35.0,-1,1.0,0.9232999999999265
852,2,0.8,0.25,-35.0,1,0.0,2.6047999999996136
853,2,0.8,0.125,-35.0,-1,1.0,0.4389000000001033
854,2,0.2,1.0,35.0,1,1.0,2.3676000000000386
855,2,0.2,0.0625,35.0,1,1.0,0.2687999999998283
856,2,0.2,0.0,35.0,1,1.0,0.26159999999981665
857,2,0.2,1.0,35.0,1,1.0,0.24650000000019645
858,2,0.2,0.0,-35.0,1,0.0,0.34809999999970387
859,2,0.2,0.0625,35.0,1,1.0,0.26949999999987995
860,2,0.2,1.0,35.0,1,1.0,0.3281989999995858
861,2,0.2,0.0,35.0,1,1.0,0.30649999999968713
862,2,0.2,0.0,35.0,1,1.0,0.37239999999974316
863,2,0.2,0.0,35.0,1,1.0,0.29419999999981883
864,2,0.2,1.0,35.0,1,1.0,0.34999900000002526
865,2,0.2,0.25,35.0,1,1.0,0.19519999999965876
866,2,0.2,1.0,35.0,1,1.0,0.3247000000001208
867,2,0.2,0.125,35.0,1,1.0,0.2996989999996913
868,2,0.2,0.0,35.0,1,1.0,0.342200000000048
869,2,0.2,0.25,35.0,1,1.0,0.3906989999995858
870,2,0.2,1.0,-35.0,-1,1.0,0.27620000000024447
871,2,0.2,0.125,-35.0,1,0.0,0.3651999999997315
872,2,0.2,0.125,-35.0,1,0.0,0.3271999999997206
873,2,0.2,0.25,35.0,1,1.0,0.24549999999953798
874,2,0.2,0.0625,-35.0,1,0.0,1.843499999999949
875,2,0.2,1.0,35.0,1,1.0,0.23469999999997526
876,2,0.2,0.0625,35.0,1,1.0,0.3811000000000604
877,2,0.2,0.125,35.0,1,1.0,0.5488999999997759
878,2,0.8,0.125,-35.0,1,0.0,0.2818999999999505
879,2,0.8,0.125,35.0,1,1.0,0.2626999999997679
880,2,0.8,0.125,35.0,1,1.0,0.26189999999951397
881,2,0.8,0.125,-35.0,-1,1.0,0.6103999999995722
882,2,0.8,0.0625,-35.0,-1,1.0,0.3489999999997053
883,2,0.8,0.125,-35.0,-1,1.0,0.38379999999961
884,2,0.8,1.0,-35.0,-1,1.0,0.23609899999974004
885,2,0.8,0.125,-35.0,-1,1.0,0.228099999999813
886,2,0.8,0.0625,-35.0,-1,1.0,0.2773000000001957
887,2,0.8,0.0625,35.0,1,1.0,0.3211999999998625
888,2,0.8,0.125,-35.0,-1,1.0,0.3071999999997388
889,2,0.8,1.0,-35.0,-1,1.0,0.1989000000003216
890,2,0.8,0.0,35.0,1,1.0,1.619699999999284
891,2,0.8,0.125,35.0,1,1.0,0.3081999999994878
892,2,0.8,0.0625,35.0,1,1.0,0.29379999999991924
893,2,0.8,0.25,-35.0,-1,1.0,0.2557999999994536
894,2,0.8,0.0625,-35.0,-1,1.0,0.7754999999997381
895,2,0.8,0.0625,-35.0,1,0.0,5.089699999999539
896,2,0.8,0.25,-35.0,-1,1.0,0.26670000000012806
897,2,0.8,0.25,-35.0,-1,1.0,0.5277000000000953
898,2,0.8,1.0,35.0,1,1.0,0.3400999999994383
899,2,0.8,0.0625,-35.0,-1,1.0,0.32529999999997017
900,2,0.8,0.25,-35.0,-1,1.0,0.3712000000000444
901,2,0.8,1.0,-35.0,-1,1.0,0.2181989999999132
902,2,0.8,0.125,-35.0,-1,1.0,0.3674999999998363
903,2,0.8,0.25,-35.0,-1,1.0,0.37829899999996996
904,2,0.8,1.0,-35.0,-1,1.0,0.3093999999996413
905,2,0.8,0.0,-35.0,1,0.0,3.18080000000009
906,2,0.8,0.25,-35.0,-1,1.0,0.37229999999999563
907,2,0.8,0.0625,-35.0,-1,1.0,4.159500000000207
908,2,0.8,1.0,-35.0,-1,1.0,0.25089900000011767
909,2,0.8,0.25,-35.0,-1,1.0,0.31239999999979773
910,2,0.8,0.0,-35.0,-1,1.0,2.404700000000048
911,2,0.8,0.0,-35.0,1,0.0,3.735599999999522
912,2,0.8,1.0,-35.0,-1,1.0,0.2564990000000762
913,2,0.8,1.0,-35.0,-1,1.0,0.31500000000005457
914,2,0.8,0.25,-35.0,-1,1.0,0.45759899999984555
915,2,0.8,0.25,-35.0,-1,1.0,0.30569999999988795
916,2,0.8,0.0625,-35.0,-1,1.0,0.35819999999966967
917,2,0.8,0.25,35.0,1,1.0,0.6198999999996886
918,2,0.8,1.0,35.0,1,1.0,0.32219999999961146
919,2,0.8,0.0625,-35.0,1,0.0,0.3540000000002692
920,2,0.8,0.0,-35.0,1,0.0,0.3205000000002656
921,2,0.8,1.0,-35.0,-1,1.0,0.5838999999996304
922,2,0.8,0.25,-35.0,-1,1.0,0.41309999999975844
923,2,0.8,1.0,-35.0,-1,1.0,0.23469999999997526
924,2,0.8,0.125,35.0,1,1.0,0.28049999999939246
925,2,0.8,0.125,-35.0,-1,1.0,0.4256999999997788
926,2,0.8,0.125,35.0,1,1.0,0.2615989999994781
927,2,0.8,0.25,35.0,1,1.0,0.25009899999986374
928,2,0.8,0.25,-35.0,-1,1.0,0.23529999999982465
929,2,0.8,0.25,-35.0,-1,1.0,0.2306999999996151
930,2,0.8,0.0625,-35.0,-1,1.0,1.3928999999998268
931,2,0.8,0.0625,-35.0,-1,1.0,0.37489999999979773
932,2,0.8,0.0,35.0,1,1.0,0.39729999999963184
933,2,0.8,0.25,-35.0,-1,1.0,0.22240000000010696
934,2,0.8,0.125,-35.0,-1,1.0,0.757499999999709
935,2,0.8,0.25,-35.0,-1,1.0,0.2685999999998785
936,2,0.8,0.0,-35.0,1,0.0,0.28419999999960055
937,2,0.8,0.25,-35.0,-1,1.0,0.23259999999982028
938,2,0.8,0.0,-35.0,-1,1.0,0.48529999999982465
939,2,0.8,0.125,-35.0,-1,1.0,0.6502000000000407
940,2,0.2,0.0,35.0,-1,0.0,0.4094000000000051
941,2,0.2,0.25,35.0,1,1.0,0.2875000000003638
942,2,0.2,1.0,35.0,1,1.0,0.3032999999995809
943,2,0.2,0.125,-35.0,-1,1.0,0.2650999999996202
944,2,0.2,0.0625,35.0,1,1.0,0.3742000000002008
945,2,0.2,1.0,35.0,1,1.0,0.30929999999989377
946,2,0.2,0.125,35.0,1,1.0,0.30849999999963984
947,2,0.2,1.0,35.0,1,1.0,0.23700000000008004
948,2,0.2,0.125,35.0,1,1.0,0.36669999999958236
949,2,0.2,1.0,35.0,1,1.0,0.27089999999998327
950,2,0.2,0.0625,35.0,1,1.0,0.3934999999996762
951,2,0.2,0.125,35.0,1,1.0,2.3353000000001884
952,2,0.2,0.125,35.0,1,1.0,0.24639999999999418
953,2,0.2,0.25,35.0,1,1.0,5.667399999999361
954,2,0.2,1.0,35.0,1,1.0,0.2551999999996042
955,2,0.2,0.125,35.0,1,1.0,0.25979999999981374
956,2,0.2,0.125,35.0,1,1.0,0.29280000000017026
957,2,0.2,0.25,35.0,1,1.0,0.3107999999997446
958,2,0.2,0.0625,35.0,1,1.0,1.7433999999998377
959,2,0.2,0.0625,35.0,1,1.0,0.40120000000024447
960,2,0.8,0.25,-35.0,1,0.0,0.35350000000016735
961,2,0.8,0.0,-35.0,1,0.0,2.3481010000000424
962,2,0.8,0.125,-35.0,1,0.0,0.3700010000002294
963,2,0.8,0.25,-35.0,-1,1.0,0.31110099999978047
964,2,0.8,0.25,-35.0,-1,1.0,0.2240009999995891
965,2,0.8,0.25,-35.0,-1,1.0,0.2490010000010443
966,2,0.8,0.25,35.0,1,1.0,0.2945010000012189
967,2,0.8,0.125,-35.0,-1,1.0,0.5387010000004011
968,2,0.8,0.125,-35.0,1,0.0,0.34130000000095606
969,2,0.8,0.25,-35.0,-1,1.0,0.8959010000007765
970,2,0.8,0.0625,-35.0,1,0.0,0.47570100000029925
971,2,0.8,0.125,-35.0,-1,1.0,0.343101000000388
972,2,0.8,1.0,-35.0,-1,1.0,0.23220099999980448
973,2,0.8,0.125,-35.0,-1,1.0,3.4296009999998205
974,2,0.8,1.0,-35.0,-1,1.0,0.23090099999990343
975,2,0.8,0.125,-35.0,-1,1.0,0.7722010000006776
976,2,0.8,0.0625,-35.0,-1,1.0,3.54740000000038
977,2,0.8,0.0625,-35.0,-1,1.0,0.2605010000006587
978,2,0.8,0.25,-35.0,-1,1.0,0.26280100000076345
979,2,0.8,1.0,-35.0,-1,1.0,0.24470100000144157
980,2,0.8,0.0,-35.0,-1,1.0,0.3471010000002934
981,2,0.8,0.25,-35.0,-1,1.0,0.46800100000018574
982,2,0.8,0.0625,-35.0,-1,1.0,0.6733009999998103
983,2,0.8,0.0625,-35.0,-1,1.0,0.4085010000007969
984,2,0.8,0.0625,-35.0,1,0.0,3.7133000000012544
985,2,0.8,0.125,-35.0,-1,1.0,0.24050100000022212
986,2,0.8,0.125,-35.0,-1,1.0,0.4458010000007562
987,2,0.2,1.0,35.0,1,1.0,0.35690100000010716
988,2,0.2,1.0,35.0,1,1.0,0.351701000000503
989,2,0.2,0.0,35.0,-1,0.0,1.0370010000006005
990,2,0.2,0.0625,35.0,-1,0.0,0.782600999999886
991,2,0.2,0.0,35.0,1,1.0,8.223501000000397
992,2,0.2,1.0,35.0,1,1.0,0.4028010000001814
993,2,0.2,0.25,-35.0,1,0.0,0.3649010000008275
994,2,0.2,0.25,35.0,1,1.0,0.25370100000054663
995,2,0.2,0.125,35.0,1,1.0,0.32490100000086386
996,2,0.2,0.125,35.0,1,1.0,0.3910010000008697
997,2,0.2,1.0,-35.0,1,0.0,0.1726010000002134
998,2,0.2,1.0,35.0,1,1.0,0.2649010000004637
999,2,0.2,0.0,-35.0,1,0.0,0.6026010000005044
1000,2,0.2,0.25,35.0,1,1.0,0.28820100000029925
1001,2,0.2,0.0,35.0,1,1.0,0.3062000000008993
1002,2,0.2,1.0,35.0,1,1.0,0.27860099999998056
1003,2,0.2,1.0,35.0,1,1.0,0.2873010000002978
1004,2,0.2,0.25,35.0,1,1.0,0.3131009999997332
1005,2,0.2,0.125,35.0,1,1.0,0.4448000000002139
1006,2,0.2,0.25,35.0,1,1.0,2.2037010000003647
1007,2,0.2,0.0,35.0,1,1.0,0.288101000000097
1008,2,0.2,0.0,35.0,1,1.0,0.34760000000096625
1009,2,0.2,0.25,-35.0,-1,1.0,0.26540100000056555
1010,2,0.8,0.0625,-35.0,-1,1.0,0.4281010000004244
1011,2,0.8,1.0,-35.0,-1,1.0,0.24290000000110012
1012,2,0.8,0.25,-35.0,1,0.0,0.9682009999996808
1013,2,0.8,1.0,-35.0,-1,1.0,0.30290100000092934
1014,2,0.8,0.0625,-35.0,1,0.0,2.629001000000244
1015,2,0.8,1.0,35.0,1,1.0,0.4094010000007984
1016,2,0.8,0.0625,-35.0,1,0.0,0.3078009999999267
1017,2,0.8,0.0,-35.0,1,0.0,0.26250100000015664
1018,2,0.8,0.0,-35.0,1,0.0,0.2356000000008862
1019,2,0.8,0.0,-35.0,-1,1.0,0.8228009999993446
1020,2,0.8,0.25,-35.0,-1,1.0,0.3765010000015536
1021,2,0.8,0.0625,35.0,1,1.0,0.30700100000012753
1022,2,0.8,0.0625,-35.0,-1,1.0,1.2565010000007533
1023,2,0.8,1.0,-35.0,-1,1.0,0.23380100000031234
1024,2,0.8,0.0625,-35.0,-1,1.0,0.8762010000000373
1025,2,0.8,1.0,-35.0,-1,1.0,0.2612010000002556
1026,2,0.8,0.125,-35.0,-1,1.0,1.0662009999996371
1027,2,0.8,1.0,-35.0,-1,1.0,0.7882010000002992
1028,2,0.8,0.0,-35.0,-1,1.0,2.8836010000004535
1029,2,0.8,1.0,-35.0,-1,1.0,0.2704010000006747
1030,2,0.2,0.0,-35.0,-1,1.0,4.7958010000002105
1031,2,0.2,0.0,35.0,1,1.0,14.002801000000545
1032,2,0.2,1.0,35.0,1,1.0,2.1104009999999107
1033,2,0.2,0.0,35.0,1,1.0,0.25510099999974045
1034,2,0.2,0.25,-35.0,-1,1.0,0.2943009999999049
1035,2,0.2,0.25,-35.0,1,0.0,2.2761009999994712
1036,2,0.2,0.25,35.0,1,1.0,0.2807010000005903
1037,2,0.2,0.125,35.0,1,1.0,0.318901000000551
1038,2,0.2,1.0,-35.0,-1,1.0,0.5011010000007445
1039,2,0.2,0.125,35.0,1,1.0,0.28970100000060484
1040,2,0.2,0.0625,35.0,1,1.0,0.3355010000004768
1041,2,0.2,1.0,35.0,1,1.0,0.2939010000000053
1042,2,0.2,0.0625,-35.0,1,0.0,4.008899999999812
1043,2,0.2,0.25,35.0,1,1.0,0.21290099999987433
1044,2,0.2,0.0625,35.0,1,1.0,0.4156009999996968
1045,2,0.2,0.0,35.0,1,1.0,0.3237010000002556
1046,2,0.2,0.0,35.0,1,1.0,3.7563010000003487
1047,2,0.2,1.0,35.0,1,1.0,0.26690099999996164
1048,2,0.2,0.0625,35.0,1,1.0,0.3192010000002483
1049,2,0.2,1.0,35.0,1,1.0,0.2638010000009672
1050,2,0.2,0.0,35.0,-1,0.0,0.28960000000006403
1051,2,0.8,0.25,-35.0,-1,1.0,0.35110100000019884
1052,2,0.8,0.25,-35.0,-1,1.0,0.8403010000001814
1053,2,0.8,0.0,-35.0,-1,1.0,0.40140100000007806
1054,2,0.8,0.0625,35.0,-1,0.0,0.5237010000000737
1055,2,0.8,0.0625,-35.0,-1,1.0,0.4920010000005277
1056,2,0.8,1.0,-35.0,-1,1.0,0.26360100000056264
1057,2,0.8,0.25,-35.0,-1,1.0,0.26200100000096427
1058,2,0.8,0.0625,35.0,1,1.0,0.29780100000061793
1059,2,0.8,0.0625,-35.0,1,0.0,4.652401000000282
1060,2,0.8,0.25,-35.0,-1,1.0,0.3234009999996488
1061,2,0.8,0.0,-35.0,-1,1.0,2.1711000000004788
1062,2,0.8,0.0625,-35.0,-1,1.0,0.5889010000009876
1063,2,0.8,0.25,-35.0,-1,1.0,0.25059999999939464
1064,2,0.8,0.125,-35.0,-1,1.0,0.23350099999970553
1065,2,0.8,0.125,35.0,1,1.0,0.2517010000001392
1066,2,0.8,0.25,-35.0,-1,1.0,0.2171009999992748
1067,2,0.8,0.0,35.0,1,1.0,0.2924010000006092
1068,2,0.8,0.0625,-35.0,-1,1.0,0.4743010000001959
1069,2,0.8,0.0625,-35.0,1,0.0,0.1895009999998365
1070,2,0.8,0.125,-35.0,-1,1.0,0.4582010000012815
1071,2,0.8,0.125,-35.0,-1,1.0,0.6728010000006179
1072,2,0.8,0.0,35.0,-1,0.0,4.358801000000312
1073,2,0.8,1.0,-35.0,-1,1.0,0.2115010000006805
1074,2,0.8,0.0,-35.0,-1,1.0,0.5305000000007567
1075,2,0.8,0.125,-35.0,-1,1.0,0.6257010000008449
1076,2,0.8,0.25,-35.0,-1,1.0,0.35110100000019884
1077,2,0.8,0.25,35.0,1,1.0,0.2898010000008071
1078,2,0.8,1.0,-35.0,-1,1.0,0.2354009999999107
1079,2,0.8,0.125,-35.0,-1,1.0,0.48710100000062084
1080,2,0.8,0.0625,-35.0,1,0.0,3.5023010000004433
1081,2,0.8,1.0,-35.0,-1,1.0,0.3627010000000155
1082,2,0.8,0.0625,35.0,1,1.0,0.2751009999992675
1083,2,0.8,1.0,-35.0,-1,1.0,0.2563010000003487
1084,2,0.8,1.0,35.0,1,1.0,0.28190100000028906
1085,2,0.8,0.0,-35.0,1,0.0,0.23660100000051898
1086,2,0.8,1.0,-35.0,-1,1.0,0.35540000000037253
1087,2,0.8,0.0,35.0,-1,0.0,22.286801000000196
1088,2,0.8,0.25,-35.0,-1,1.0,0.2951999999995678
1089,2,0.8,0.0,-35.0,1,0.0,13.290301
1090,2,0.8,0.0,-35.0,-1,1.0,1.7261010000001988
1091,2,0.8,0.0625,-35.0,-1,1.0,1.3096009999999296
1092,2,0.8,1.0,-35.0,-1,1.0,0.41850000000067666
1093,2,0.8,0.25,-35.0,-1,1.0,0.42340100000092207
1094,2,0.8,1.0,-35.0,-1,1.0,0.4590010000001712
1095,2,0.8,0.0625,-35.0,1,0.0,0.38090100000044913
1096,2,0.8,0.25,35.0,1,1.0,0.25950100000045495
1097,2,0.8,0.0625,-35.0,-1,1.0,0.47790100000111124
1098,2,0.8,1.0,-35.0,-1,1.0,0.21320099999957165
1099,2,0.8,0.125,-35.0,-1,1.0,0.5252009999994698
1100,2,0.8,0.25,-35.0,-1,1.0,0.38750100000106613
1101,2,0.8,0.125,-35.0,-1,1.0,0.289400999999998
1102,2,0.8,0.0625,-35.0,1,0.0,0.2583999999997104
1103,2,0.8,1.0,-35.0,-1,1.0,0.20990100000017264
1104,2,0.8,0.0,35.0,-1,0.0,0.41250100000070233
1105,2,0.2,0.25,35.0,1,1.0,0.28040099999998347
1106,2,0.2,1.0,35.0,1,1.0,0.2658000000001266
1107,2,0.2,0.25,35.0,1,1.0,0.24140099999931408
1108,2,0.2,0.125,35.0,1,1.0,0.25720000000001164
1109,2,0.2,0.0,35.0,1,1.0,0.24890100000084203
1110,2,0.2,1.0,-35.0,1,0.0,0.39520100000027014
1111,2,0.2,0.25,35.0,1,1.0,0.1527009999999791
1112,2,0.2,0.25,35.0,1,1.0,0.23820100000011735
1113,2,0.2,1.0,35.0,1,1.0,0.39010099999995873
1114,2,0.2,0.125,35.0,1,1.0,0.2588999999998123
1115,2,0.2,0.0,35.0,1,1.0,0.24750099999982922
1116,2,0.2,1.0,35.0,1,1.0,0.2332010000009177
1117,2,0.2,0.125,35.0,1,1.0,0.2651010000008682
1118,2,0.2,0.25,35.0,1,1.0,0.26080000000001746
1119,2,0.2,0.0625,35.0,1,1.0,0.3226010000007591
1120,2,0.2,1.0,35.0,1,1.0,0.2951009999997041
1121,2,0.2,0.25,35.0,1,1.0,0.3898010000002614
1122,2,0.2,1.0,35.0,1,1.0,0.24880000000030122
1123,2,0.2,0.0,-35.0,1,0.0,0.34410099999968224
1124,2,0.2,0.0,35.0,1,1.0,0.51980100000128
1125,2,0.2,0.125,-35.0,1,0.0,2.838101000000279
1126,2,0.2,0.0625,35.0,1,1.0,1.4726010000003953
1127,2,0.2,0.25,35.0,1,1.0,0.2475010000007387
1128,2,0.2,1.0,35.0,1,1.0,0.22630100000060338
1129,2,0.2,0.25,-35.0,-1,1.0,0.2347010000003138
1130,2,0.2,0.125,35.0,1,1.0,3.3367010000001756
1131,2,0.2,0.25,35.0,1,1.0,0.2535010000010516
1132,2,0.2,0.25,35.0,1,1.0,0.3487009999998918
1133,2,0.2,0.0,-35.0,1,0.0,1.9837009999992006
1134,2,0.2,0.25,-35.0,-1,1.0,0.8351010000005772
1135,2,0.2,0.0,35.0,1,1.0,2.7932010000004084
1136,2,0.2,0.25,35.0,1,1.0,0.3112010000004375
1137,2,0.2,0.0,35.0,1,1.0,1.439300999999432
1138,2,0.2,0.125,-35.0,-1,1.0,0.9242009999998118
1139,2,0.2,0.0,35.0,-1,0.0,1.7207010000010996
1140,2,0.2,0.0625,35.0,1,1.0,0.2755010000000766
1141,2,0.2,0.25,-35.0,-1,1.0,0.2642009999999573
1142,2,0.2,0.0,35.0,-1,0.0,14.9103010000008
1143,2,0.2,1.0,-35.0,-1,1.0,0.23010100000010425
1144,2,0.8,0.125,-35.0,-1,1.0,0.2200010000005932
1145,2,0.8,0.25,-35.0,-1,1.0,0.3807999999999083
1146,2,0.8,0.125,-35.0,-1,1.0,1.849500999999691
1147,2,0.8,0.0625,35.0,1,1.0,2.946501000000353
1148,2,0.8,1.0,-35.0,-1,1.0,0.1881999999995969
1149,2,0.8,0.0,-35.0,-1,1.0,0.2997009999999136
1150,2,0.8,0.25,35.0,1,1.0,0.2354010000008202
1151,2,0.8,1.0,-35.0,-1,1.0,0.18720099999973172
1152,2,0.8,1.0,-35.0,-1,1.0,0.202701000000161
1153,2,0.8,0.0625,-35.0,-1,1.0,0.4514000000008309
1154,2,0.8,0.0,-35.0,-1,1.0,4.889901000000464
1155,2,0.8,1.0,-35.0,-1,1.0,0.2237010000008013
1156,2,0.8,0.125,35.0,1,1.0,0.2365010000003167
1157,2,0.8,0.0,-35.0,-1,1.0,4.224100999999791
1158,2,0.8,0.0,-35.0,1,0.0,0.3921010000003662
1159,2,0.8,0.125,35.0,1,1.0,0.27020100000027014
1160,2,0.8,0.0625,-35.0,-1,1.0,0.4691000000002532
1161,2,0.8,0.0,-35.0,-1,1.0,0.35430100000030507
1162,2,0.8,0.0625,-35.0,-1,1.0,0.45650100000057137
1163,2,0.8,0.0,-35.0,-1,1.0,0.5147010000000591
1164,2,0.8,0.0,35.0,1,1.0,2.426800999999614
1165,2,0.8,0.0,-35.0,-1,1.0,1.507900999999947
1166,2,0.8,0.0625,-35.0,-1,1.0,1.8129010000002381
1167,2,0.8,0.125,-35.0,-1,1.0,0.42060099999980594
1168,2,0.8,0.0625,35.0,1,1.0,5.459601000000475
1169,2,0.8,1.0,-35.0,-1,1.0,0.25980000000072323
1170,2,0.8,0.0,-35.0,1,0.0,0.3188010000003487
1171,2,0.8,0.125,-35.0,-1,1.0,0.24660100000073726
1172,2,0.8,0.0,-35.0,1,0.0,4.065701000001354
1173,2,0.8,0.0625,-35.0,-1,1.0,1.6709000000000742
1174,2,0.8,1.0,-35.0,-1,1.0,0.22590000000036525
1175,2,0.8,0.125,35.0,1,1.0,7.734500999999909
1176,2,0.8,0.0,-35.0,-1,1.0,13.911501000000499
1177,2,0.8,0.25,-35.0,-1,1.0,0.22130099999958475
1178,2,0.8,0.25,-35.0,-1,1.0,2.0135010000003604
1179,2,0.8,1.0,-35.0,-1,1.0,0.4208010000002105
1180,2,0.8,0.0625,-35.0,-1,1.0,0.3553010000005088
1181,2,0.8,1.0,35.0,1,1.0,4.631501000000753
1182,2,0.8,0.0625,-35.0,1,0.0,6.361601000000519
1183,2,0.8,0.125,35.0,1,1.0,6.458001000000877
1184,2,0.8,1.0,-35.0,-1,1.0,0.41830099999970116
1185,2,0.8,0.125,-35.0,-1,1.0,0.5067010000002483
1,3,0.5,0.25,-35.0,-1,1.0,0.2003999999999997
2,3,0.5,0.125,-35.0,-1,1.0,0.19620099999999852
3,3,0.5,0.0625,-35.0,1,0.0,0.21690000000000254
4,3,0.5,0.25,-35.0,-1,1.0,0.20880100000000112
5,3,0.5,0.25,-35.0,-1,1.0,0.1804009999999998
6,3,0.5,0.125,35.0,1,1.0,0.26660099999999787
7,3,0.5,0.125,35.0,1,1.0,0.23050099999999674
8,3,0.5,0.125,-35.0,-1,1.0,0.19340099999999438
9,3,0.5,0.25,-35.0,-1,1.0,0.20660000000000167
10,3,0.5,0.0,-35.0,1,0.0,0.20360000000000156
11,3,0.5,0.25,-35.0,-1,1.0,0.176600999999998
12,3,0.5,0.25,-35.0,-1,1.0,0.17110100000000017
13,3,0.5,1.0,-35.0,-1,1.0,0.17220100000000116
14,3,0.5,0.125,35.0,1,1.0,0.3197009999999949
15,3,0.5,1.0,35.0,1,1.0,0.22350000000000136
16,3,0.5,0.0,35.0,1,1.0,0.20420099999999763
17,3,0.5,0.0625,-35.0,1,0.0,0.23230100000000675
18,3,0.5,1.0,35.0,1,1.0,0.2098009999999988
19,3,0.5,0.125,-35.0,-1,1.0,0.20720000000000027
20,3,0.5,0.0,-35.0,1,0.0,0.21650000000001057
21,3,0.5,0.0,35.0,1,1.0,0.22220000000000084
22,3,0.5,0.25,-35.0,-1,1.0,0.271601000000004
23,3,0.5,0.0625,35.0,1,1.0,0.20410099999999431
24,3,0.5,0.0,35.0,1,1.0,0.1228009999999955
25,3,0.5,1.0,35.0,1,1.0,0.2074010000000044
26,3,0.5,0.0625,-35.0,1,0.0,0.23990100000000325
27,3,0.5,0.0625,-35.0,-1,1.0,0.17210099999999784
28,3,0.5,0.0625,-35.0,-1,1.0,0.23520000000000607
29,3,0.5,0.125,-35.0,-1,1.0,0.23020099999996546
30,3,0.5,1.0,35.0,1,1.0,0.2175009999999986
31,3,0.5,0.0,35.0,-1,0.0,0.23780099999999038
32,3,0.5,0.25,35.0,1,1.0,0.20540099999999484
33,3,0.5,0.0,35.0,1,1.0,0.2583009999999888
34,3,0.5,0.0625,-35.0,-1,1.0,0.35680099999996173
35,3,0.5,0.25,35.0,1,1.0,0.2333009999999831
36,3,0.5,0.125,35.0,1,1.0,0.2559009999999944
37,3,0.5,0.0,-35.0,1,0.0,0.20690000000001874
38,3,0.5,1.0,-35.0,-1,1.0,0.19360100000000102
39,3,0.5,0.0,-35.0,-1,1.0,0.27440100000001166
40,3,0.5,0.25,35.0,-1,0.0,0.29430099999999015
41,3,0.5,0.25,-35.0,-1,1.0,0.1934010000000228
42,3,0.5,0.25,-35.0,-1,1.0,0.19250099999999293
43,3,0.5,0.0625,-35.0,-1,1.0,0.2543009999999981
44,3,0.5,1.0,-35.0,-1,1.0,0.17790099999999143
45,3,0.5,1.0,35.0,1,1.0,0.26380100000000084
46,3,0.5,0.0625,35.0,1,1.0,0.3244009999999946
47,3,0.5,0.0625,-35.0,1,0.0,0.24810100000001967
48,3,0.5,1.0,35.0,1,1.0,0.22410099999999034
49,3,0.5,0.125,35.0,1,1.0,0.24150099999999952
50,3,0.5,0.25,35.0,1,1.0,0.24060099999999807
51,3,0.5,0.0,35.0,1,1.0,0.2279010000000028
52,3,0.5,0.0,-35.0,-1,1.0,0.3028009999999881
53,3,0.5,1.0,35.0,1,1.0,0.2431009999999958
54,3,0.5,0.125,-35.0,-1,1.0,0.19380100000000766
55,3,0.5,0.125,-35.0,-1,1.0,0.26170099999995955
56,3,0.5,0.25,-35.0,-1,1.0,0.22429999999997108
57,3,0.5,0.0625,35.0,1,1.0,0.25440100000000143
58,3,0.5,0.125,35.0,1,1.0,0.22710099999997624
59,3,0.5,0.0,35.0,1,1.0,0.21990099999999302
60,3,0.5,0.0625,-35.0,1,0.0,0.20970099999999547
61,3,0.5,0.25,-35.0,-1,1.0,0.19830100000007178
62,3,0.5,1.0,35.0,1,1.0,0.24400099999996883
63,3,0.5,0.25,-35.0,-1,1.0,0.1880010000000425
64,3,0.5,0.0,35.0,1,1.0,0.29180100000002085
65,3,0.5,0.0625,35.0,1,1.0,0.2398000000000593
66,3,0.5,0.25,35.0,1,1.0,0.34790100000003576
67,3,0.5,1.0,35.0,1,1.0,0.19550100000003567
68,3,0.5,0.0,-35.0,1,0.0,0.23030100000005405
69,3,0.5,0.0,35.0,1,1.0,0.25090099999999893
70,3,0.5,1.0,-35.0,-1,1.0,0.21060100000005377
71,3,0.5,0.25,-35.0,-1,1.0,0.1957010000000423
72,3,0.5,1.0,-35.0,-1,1.0,0.1717010000000414
73,3,0.5,0.0625,35.0,1,1.0,0.22190100000000257
74,3,0.5,0.0625,-35.0,1,0.0,0.24470100000002049
75,3,0.5,0.0,-35.0,1,0.0,0.22750100000001794
76,3,0.5,0.0,-35.0,-1,1.0,0.3393010000000345
77,3,0.5,0.25,-35.0,-1,1.0,0.17210100000005468
78,3,0.5,0.0,-35.0,-1,1.0,0.22309999999998809
79,3,0.5,0.125,35.0,-1,0.0,0.22110100000003285
80,3,0.5,0.125,-35.0,-1,1.0,0.19270099999999957
81,3,0.5,0.0625,35.0,-1,0.0,1.0208010000000627
82,3,0.5,0.0,35.0,1,1.0,0.2321010000000001
83,3,0.5,1.0,35.0,1,1.0,0.21810100000004695
84,3,0.5,0.0,-35.0,1,0.0,0.22050100000001294
85,3,0.5,1.0,-35.0,-1,1.0,0.2140009999999961
86,3,0.5,0.0,-35.0,-1,1.0,0.233400999999958
87,3,0.5,1.0,35.0,-1,0.0,0.0689010000000394
88,3,0.5,0.0,-35.0,-1,1.0,0.24080100000003313
89,3,0.5,0.25,35.0,1,1.0,0.30890099999999165
90,3,0.5,0.25,-35.0,-1,1.0,0.18340100000000348
91,3,0.2,0.0625,35.0,-1,0.0,0.23340100000001485
92,3,0.2,0.0,-35.0,1,0.0,0.23680100000007087
93,3,0.2,1.0,35.0,1,1.0,0.24050099999999475
94,3,0.2,0.125,35.0,1,1.0,0.23310099999997647
95,3,0.2,1.0,35.0,1,1.0,0.21870100000001003
96,3,0.2,0.0,35.0,1,1.0,0.44420100000002094
97,3,0.2,0.0625,35.0,1,1.0,0.21690100000000712
98,3,0.2,1.0,-35.0,-1,1.0,0.2775010000000293
99,3,0.2,0.125,35.0,1,1.0,0.23470100000002958
100,3,0.2,0.25,35.0,1,1.0,0.20930100000003904
101,3,0.2,0.125,35.0,1,1.0,0.19770100000005186
102,3,0.2,0.0,35.0,1,1.0,0.2932010000000105
103,3,0.2,1.0,35.0,1,1.0,0.2821010000000115
104,3,0.2,0.0625,-35.0,-1,1.0,0.24270100000001094
105,3,0.2,0.0625,35.0,1,1.0,0.23360100000002149
106,3,0.2,0.0,35.0,1,1.0,0.2640010000000643
107,3,0.2,0.0625,-35.0,-1,1.0,0.37860100000006014
108,3,0.2,0.25,35.0,1,1.0,0.19650100000001203
109,3,0.2,0.125,35.0,1,1.0,0.21300100000001976
110,3,0.2,0.25,35.0,1,1.0,0.25030100000003586
111,3,0.2,0.25,35.0,1,1.0,0.2092010000000073
112,3,0.2,0.25,35.0,1,1.0,0.21960100000001148
113,3,0.2,1.0,35.0,1,1.0,0.21740100000005214
114,3,0.2,0.0625,35.0,1,1.0,0.21920100000005505
115,3,0.2,0.25,35.0,1,1.0,0.2092010000000073
116,3,0.2,0.0,35.0,1,1.0,0.29280100000005405
117,3,0.2,0.125,35.0,1,1.0,0.20670100000006641
118,3,0.2,0.0,35.0,1,1.0,0.20860100000004422
119,3,0.2,1.0,35.0,1,1.0,0.2149010000000544
120,3,0.2,0.25,35.0,1,1.0,0.21740100000005214
121,3,0.2,0.125,35.0,1,1.0,0.23109999999996944
122,3,0.2,0.25,35.0,1,1.0,0.22950099999997065
123,3,0.2,0.0,35.0,1,1.0,0.24210099999993417
124,3,0.2,0.0,35.0,1,1.0,0.23320099999989452
125,3,0.2,0.125,35.0,1,1.0,0.2371010000000524
126,3,0.2,0.25,-35.0,-1,1.0,0.18650000000002365
127,3,0.2,0.125,35.0,-1,0.0,0.29710099999999784
128,3,0.2,0.0,35.0,1,1.0,0.2210010000001148
129,3,0.2,0.125,35.0,1,1.0,0.22469999999998436
130,3,0.2,0.0,35.0,-1,0.0,0.33550099999990834
131,3,0.2,0.125,35.0,1,1.0,0.24020099999995637
132,3,0.2,0.0625,35.0,1,1.0,0.25240099999996346
133,3,0.2,0.0625,35.0,1,1.0,0.27130099999988033
134,3,0.2,0.125,-35.0,1,0.0,0.25030100000003586
135,3,0.2,0.0,35.0,1,1.0,0.24300099999993563
136,3,0.8,0.125,35.0,1,1.0,0.31910099999993236
137,3,0.8,0.125,35.0,1,1.0,0.2275009999999611
138,3,0.8,0.125,35.0,1,1.0,0.22250099999996564
139,3,0.8,0.125,-35.0,-1,1.0,0.23480000000006385
140,3,0.8,0.0,-35.0,1,0.0,0.223500999999942
141,3,0.8,1.0,35.0,1,1.0,0.2630010000000311
142,3,0.8,0.25,-35.0,-1,1.0,0.1807009999999991
