trial_num,session_num,stim_probability_left,contrast,position,response_choice,trial_correct,reaction_time
1,13,0.5,0.25,35.0,1,1.0,0.24439999999999995
2,13,0.5,0.5,35.0,1,1.0,0.2727000000000004
3,13,0.5,0.25,35.0,1,1.0,0.634999999999998
4,13,0.5,0.5,35.0,1,1.0,0.4314999999999998
5,13,0.5,1.0,35.0,1,1.0,0.32839999999999847
6,13,0.5,0.5,35.0,1,1.0,0.27229999999999777
7,13,0.5,1.0,35.0,1,1.0,0.21860000000000213
8,13,0.5,0.25,35.0,1,1.0,1.178799999999999
9,13,0.5,1.0,35.0,1,1.0,1.8640000000000008
10,13,0.5,1.0,-35.0,-1,1.0,0.8915000000000006
11,13,0.5,0.5,-35.0,-1,1.0,0.5831999999999979
12,13,0.5,0.25,-35.0,-1,1.0,0.7581999999999951
13,13,0.5,1.0,35.0,1,1.0,0.5409999999999968
14,13,0.5,0.25,-35.0,-1,1.0,0.5555999999999983
15,13,0.5,1.0,35.0,1,1.0,0.5174999999999983
16,13,0.5,0.25,35.0,-1,0.0,0.8941999999999979
17,13,0.5,0.25,-35.0,-1,1.0,0.3445000000000036
18,13,0.5,1.0,35.0,1,1.0,0.5386000000000024
19,13,0.5,1.0,35.0,1,1.0,1.7510999999999939
20,13,0.5,0.25,35.0,1,1.0,0.6500999999999948
21,13,0.5,0.5,-35.0,-1,1.0,0.6946999999999974
22,13,0.5,1.0,-35.0,-1,1.0,0.6350000000000051
23,13,0.5,0.25,35.0,1,1.0,0.27300000000001035
24,13,0.5,0.5,35.0,1,1.0,0.8182000000000045
25,13,0.5,0.5,-35.0,-1,1.0,1.0614000000000061
26,13,0.5,0.5,-35.0,-1,1.0,0.470799999999997
27,13,0.5,0.25,-35.0,-1,1.0,2.4982000000000113
28,13,0.5,0.5,35.0,1,1.0,0.5141000000000133
29,13,0.5,0.5,35.0,1,1.0,0.8114999999999952
30,13,0.5,0.5,35.0,1,1.0,0.48450000000001125
31,13,0.5,0.25,-35.0,-1,1.0,1.502600000000001
32,13,0.5,0.25,35.0,1,1.0,0.2576999999999714
33,13,0.5,1.0,35.0,1,1.0,0.3503990000000101
34,13,0.5,1.0,-35.0,-1,1.0,0.31220000000001846
35,13,0.5,1.0,-35.0,-1,1.0,0.44360000000003197
36,13,0.5,0.5,35.0,-1,0.0,1.5609000000000037
37,13,0.5,0.25,-35.0,-1,1.0,0.4358999999999753
38,13,0.5,0.25,-35.0,-1,1.0,0.6624000000000194
39,13,0.5,0.25,35.0,1,1.0,0.24729999999999563
40,13,0.5,1.0,35.0,1,1.0,0.3603999999999985
41,13,0.5,0.5,35.0,1,1.0,0.396000000000015
42,13,0.5,0.5,-35.0,-1,1.0,0.0981999999999914
43,13,0.5,1.0,35.0,1,1.0,0.31749999999999545
44,13,0.5,0.5,35.0,1,1.0,0.2558999999999969
45,13,0.5,1.0,-35.0,-1,1.0,1.3468000000000018
46,13,0.5,0.25,-35.0,-1,1.0,0.43729999999999336
47,13,0.5,1.0,35.0,-1,0.0,0.040300000000002
48,13,0.5,1.0,35.0,-1,0.0,0.6355000000000075
49,13,0.5,1.0,35.0,-1,0.0,0.8163000000000125
50,13,0.4,1.0,35.0,1,1.0,0.501400000000018
51,13,0.5,1.0,-35.0,1,0.0,0.7727999999999895
52,13,0.4,1.0,35.0,1,1.0,0.36949999999998795
53,13,0.5,1.0,-35.0,-1,1.0,0.858399999999989
54,13,0.5,1.0,-35.0,-1,1.0,0.7513999999999896
55,13,0.5,1.0,-35.0,-1,1.0,0.25310000000001764
56,13,0.5,0.5,-35.0,-1,1.0,0.4585999999999899
57,13,0.5,0.5,35.0,1,1.0,0.4753000000000043
58,13,0.5,0.5,35.0,1,1.0,1.6230000000000189
59,13,0.5,0.25,-35.0,-1,1.0,0.9594999999999914
60,13,0.5,0.25,-35.0,-1,1.0,0.9436000000000035
61,13,0.5,0.5,-35.0,-1,1.0,0.5889000000000237
62,13,0.5,1.0,35.0,1,1.0,1.267499999999984
63,13,0.5,1.0,35.0,1,1.0,0.36309999999997444
64,13,0.5,0.25,-35.0,-1,1.0,0.06099999999997863
65,13,0.5,0.25,-35.0,-1,1.0,0.9519000000000233
66,13,0.5,0.5,-35.0,-1,1.0,1.0156999999999812
67,13,0.5,0.5,35.0,1,1.0,0.35840000000001737
68,13,0.5,0.25,-35.0,-1,1.0,0.34459999999995716
69,13,0.5,0.5,35.0,1,1.0,0.30709999999999127
70,13,0.5,0.25,-35.0,-1,1.0,0.5002000000000066
71,13,0.5,1.0,35.0,1,1.0,0.33789999999999054
72,13,0.5,0.25,35.0,1,1.0,0.5263999999999669
73,13,0.5,1.0,35.0,1,1.0,1.3339000000000283
74,13,0.5,1.0,-35.0,-1,1.0,0.8974000000000046
75,13,0.5,0.25,35.0,1,1.0,0.3294999999999959
76,13,0.5,0.25,35.0,1,1.0,0.1875999999999749
77,13,0.5,0.5,-35.0,-1,1.0,0.8729000000000156
78,13,0.5,1.0,-35.0,-1,1.0,0.5583000000000311
79,13,0.5,0.5,35.0,1,1.0,0.3091999999999757
80,13,0.5,0.5,-35.0,-1,1.0,0.8205999999999563
81,13,0.5,0.25,35.0,1,1.0,0.3229000000000042
82,13,0.5,1.0,-35.0,1,0.0,0.13459999999997763
83,13,0.5,0.25,-35.0,-1,1.0,0.34039999999998827
84,13,0.5,1.0,-35.0,-1,1.0,0.20929999999998472
85,13,0.5,0.25,35.0,-1,0.0,0.18360000000001264
86,13,0.4,0.25,-35.0,1,0.0,0.1957999999999629
87,13,0.5,0.5,35.0,1,1.0,0.6889000000000465
88,13,0.5,1.0,35.0,1,1.0,1.1959000000000515
89,13,0.5,0.25,-35.0,1,0.0,0.21240000000000236
90,13,0.5,0.25,-35.0,-1,1.0,0.29509899999999334
91,13,0.5,1.0,35.0,-1,0.0,0.17140000000000555
92,13,0.5,1.0,-35.0,-1,1.0,1.072999999999979
93,13,0.5,1.0,-35.0,-1,1.0,0.457300000000032
94,13,0.5,1.0,-35.0,-1,1.0,0.20819999999997663
95,13,0.5,0.25,35.0,-1,0.0,0.2115999999999758
96,13,0.4,0.25,-35.0,-1,1.0,0.3136000000000081
97,13,0.5,1.0,35.0,-1,0.0,0.11739999999997508
98,13,0.5,0.25,35.0,1,1.0,0.6032000000000153
99,13,0.5,1.0,35.0,1,1.0,0.36390000000005784
100,13,0.5,1.0,35.0,-1,0.0,0.17170000000004393
101,13,0.2,1.0,35.0,1,1.0,0.3079000000000178
102,13,0.5,0.5,35.0,-1,0.0,1.4642000000000053
103,13,0.3,0.5,35.0,1,1.0,0.40660000000002583
104,13,0.5,1.0,35.0,1,1.0,0.34080000000000155
105,13,0.5,0.5,-35.0,-1,1.0,0.28899999999998727
106,13,0.5,1.0,-35.0,-1,1.0,0.7905999999999835
107,13,0.5,1.0,-35.0,-1,1.0,0.3234000000000492
108,13,0.5,1.0,35.0,1,1.0,0.7578999999999496
109,13,0.5,0.5,-35.0,-1,1.0,0.3231999999999289
110,13,0.5,0.25,35.0,1,1.0,0.48460000000000036
111,13,0.5,1.0,-35.0,-1,1.0,0.3365999999999758
112,13,0.5,0.5,-35.0,-1,1.0,2.324200000000019
113,13,0.5,1.0,-35.0,-1,1.0,2.0143999999999096
114,13,0.5,1.0,35.0,1,1.0,0.8251000000000204
115,13,0.5,0.25,-35.0,-1,1.0,0.49480000000005475
116,13,0.5,0.25,35.0,1,1.0,0.3260999999999967
117,13,0.5,0.25,-35.0,-1,1.0,0.3929000000000542
118,13,0.5,0.5,-35.0,-1,1.0,0.9327999999999292
119,13,0.5,1.0,35.0,1,1.0,0.18360000000006949
120,13,0.5,1.0,-35.0,-1,1.0,0.5230000000000246
121,13,0.5,0.5,35.0,1,1.0,0.6183000000000902
122,13,0.5,0.5,35.0,1,1.0,0.5106999999999289
123,13,0.5,0.5,-35.0,-1,1.0,0.10360000000002856
124,13,0.5,0.5,35.0,1,1.0,0.3830000000000382
125,13,0.5,1.0,35.0,1,1.0,0.6077999999999975
126,13,0.5,0.25,35.0,1,1.0,0.16840000000001965
127,13,0.5,1.0,-35.0,-1,1.0,0.22439999999994598
128,13,0.5,0.5,35.0,1,1.0,0.14730000000008658
129,13,0.5,0.25,35.0,1,1.0,0.29150000000004184
130,13,0.5,0.25,35.0,1,1.0,0.38049999999998363
131,13,0.5,0.5,-35.0,-1,1.0,0.3122000000000753
132,13,0.5,1.0,35.0,1,1.0,0.3029000000000224
133,13,0.5,0.25,35.0,1,1.0,0.5235999999999876
134,13,0.5,1.0,-35.0,1,0.0,0.24700000000007094
135,13,0.5,0.25,-35.0,1,0.0,0.16800000000000637
136,13,0.5,0.125,-35.0,1,0.0,0.23429999999996198
137,13,0.5,0.25,35.0,1,1.0,0.9601999999998725
138,13,0.5,0.5,-35.0,-1,1.0,0.3129000000000133
139,13,0.5,0.25,-35.0,-1,1.0,0.2860000000000582
140,13,0.5,0.5,35.0,1,1.0,0.28909999999996217
141,13,0.5,0.5,-35.0,-1,1.0,0.5452000000000226
142,13,0.5,1.0,-35.0,-1,1.0,2.531600000000026
143,13,0.5,0.125,-35.0,-1,1.0,0.816599999999994
144,13,0.5,0.25,-35.0,-1,1.0,0.8815000000000737
145,13,0.5,0.125,35.0,1,1.0,0.2988999999998896
146,13,0.5,0.5,-35.0,-1,1.0,1.1454010000001063
147,13,0.5,1.0,35.0,1,1.0,0.33260100000006787
148,13,0.5,0.25,-35.0,1,0.0,0.17600099999992835
149,13,0.5,0.125,35.0,1,1.0,0.651501000000053
150,13,0.5,1.0,-35.0,-1,1.0,0.2615009999999529
151,13,0.5,0.25,-35.0,-1,1.0,0.24500100000000202
152,13,0.5,0.25,-35.0,1,0.0,0.6213009999999031
153,13,0.5,0.125,-35.0,1,0.0,2.7103009999999585
154,13,0.5,0.125,-35.0,1,0.0,0.7834010000000262
155,13,0.7,0.125,-35.0,1,0.0,0.3458010000000513
156,13,0.5,1.0,35.0,1,1.0,0.2615009999999529
157,13,0.5,1.0,-35.0,-1,1.0,0.8748010000000477
158,13,0.5,0.25,-35.0,-1,1.0,0.17970100000002276
159,13,0.5,1.0,-35.0,1,0.0,0.3669009999999844
160,13,0.5,0.125,-35.0,1,0.0,0.147000999999932
161,13,0.5,0.25,35.0,1,1.0,0.30480000000011387
162,13,0.5,0.5,35.0,-1,0.0,0.05190099999992981
163,13,0.5,0.25,35.0,1,1.0,0.08070100000009006
164,13,0.5,0.125,35.0,1,1.0,0.6634010000000217
165,13,0.5,0.25,-35.0,1,0.0,0.21580100000005586
166,13,0.7,0.25,35.0,-1,0.0,0.10370100000000093
167,13,0.5,0.5,-35.0,-1,1.0,0.495001000000002
168,13,0.5,1.0,35.0,1,1.0,0.41570100000001275
169,13,0.5,0.125,35.0,1,1.0,0.15800099999989925
170,13,0.5,0.25,-35.0,-1,1.0,0.9993009999999458
171,13,0.5,1.0,35.0,1,1.0,0.3143010000000004
172,13,0.5,0.25,-35.0,-1,1.0,0.28080099999999675
173,13,0.5,0.25,-35.0,-1,1.0,0.13320099999998547
174,13,0.5,0.125,35.0,1,1.0,0.6169009999999844
175,13,0.5,0.5,35.0,1,1.0,0.16720100000009097
176,13,0.5,1.0,-35.0,-1,1.0,2.058101000000079
177,13,0.5,1.0,35.0,1,1.0,0.2639010000000326
178,13,0.5,0.25,-35.0,-1,1.0,1.3519009999998843
179,13,0.5,0.25,35.0,-1,0.0,0.05430100000012317
180,13,0.4,0.25,35.0,-1,0.0,2.05270100000007
181,13,0.5,0.5,-35.0,1,0.0,0.255600999999956
182,13,0.4,0.5,35.0,1,1.0,0.27700100000004113
183,13,0.5,1.0,35.0,1,1.0,0.6052010000000791
184,13,0.5,0.25,-35.0,-1,1.0,1.023001000000022
185,13,0.5,0.25,35.0,-1,0.0,0.0883010000000013
186,13,0.4,0.25,-35.0,-1,1.0,0.21000100000003386
187,13,0.5,0.5,35.0,1,1.0,0.5754010000000562
188,13,0.5,0.5,35.0,1,1.0,0.26270099999999275
189,13,0.5,0.125,-35.0,-1,1.0,0.22190100000011626
190,13,0.5,1.0,-35.0,-1,1.0,0.9559010000000399
191,13,0.5,0.25,35.0,-1,0.0,0.19430100000010952
192,13,0.4,0.25,-35.0,-1,1.0,0.33880099999998947
193,13,0.5,1.0,-35.0,-1,1.0,0.453401000000099
194,13,0.5,0.25,-35.0,-1,1.0,0.40180099999997765
195,13,0.5,0.25,35.0,-1,0.0,0.0963010000000395
196,13,0.5,0.25,-35.0,-1,1.0,0.2743009999999231
197,13,0.5,0.125,35.0,1,1.0,0.36150099999997565
198,13,0.5,0.25,-35.0,-1,1.0,0.8425009999999702
199,13,0.5,0.25,35.0,-1,0.0,1.8255010000000311
200,13,0.1,0.25,35.0,1,1.0,0.3518010000000231
201,13,0.5,0.5,35.0,1,1.0,0.35530099999994036
202,13,0.5,0.5,-35.0,-1,1.0,0.8623010000000022
203,13,0.5,0.5,-35.0,-1,1.0,0.17550099999994018
204,13,0.5,0.25,-35.0,-1,1.0,0.09200099999998201
205,13,0.5,0.5,-35.0,-1,1.0,0.3968009999999822
206,13,0.5,0.5,35.0,1,1.0,0.5120009999999411
207,13,0.5,0.125,-35.0,-1,1.0,0.7279009999999744
208,13,0.5,0.125,35.0,1,1.0,0.33670100000006187
209,13,0.5,0.5,-35.0,-1,1.0,0.56570099999999
210,13,0.5,0.25,35.0,1,1.0,0.6642010000000482
211,13,0.5,1.0,35.0,1,1.0,0.45260099999995873
212,13,0.5,0.125,-35.0,-1,1.0,0.42190099999993436
213,13,0.5,0.25,35.0,1,1.0,0.3800010000002203
214,13,0.5,0.5,35.0,1,1.0,0.27850100000023303
215,13,0.5,1.0,-35.0,1,0.0,0.15690100000006169
216,13,0.5,0.125,35.0,1,1.0,0.6284009999999398
217,13,0.5,0.125,35.0,-1,0.0,0.6808010000002014
218,13,0.5,0.125,35.0,1,1.0,0.2397009999999682
219,13,0.5,1.0,-35.0,-1,1.0,1.7907010000001264
220,13,0.5,0.25,35.0,1,1.0,1.279500999999982
221,13,0.5,0.5,35.0,1,1.0,0.7651009999999587
222,13,0.5,0.25,-35.0,-1,1.0,0.4511010000001079
223,13,0.5,0.125,-35.0,-1,1.0,2.000301000000036
224,13,0.5,0.125,35.0,1,1.0,0.798301000000265
225,13,0.5,0.125,35.0,-1,0.0,1.036401000000069
226,13,0.5,0.125,35.0,1,1.0,0.37750100000016573
227,13,0.5,0.5,35.0,1,1.0,0.32690100000013445
228,13,0.5,0.25,35.0,1,1.0,0.40610099999980775
229,13,0.5,0.5,35.0,1,1.0,0.3083010000000286
230,13,0.5,0.25,-35.0,-1,1.0,1.9844010000001617
231,13,0.5,1.0,35.0,1,1.0,0.39200099999993654
232,13,0.5,1.0,35.0,1,1.0,0.4279010000002472
233,13,0.5,0.25,-35.0,-1,1.0,0.6495010000001002
234,13,0.5,0.5,-35.0,-1,1.0,0.23780100000021775
235,13,0.5,0.125,35.0,1,1.0,0.279901000000109
236,13,0.5,0.125,35.0,1,1.0,3.930900999999949
237,13,0.5,1.0,-35.0,-1,1.0,0.8690010000000257
238,13,0.5,0.25,-35.0,1,0.0,0.43780100000003586
239,13,0.6,0.25,-35.0,1,0.0,0.1630009999998947
240,13,0.5,1.0,-35.0,1,0.0,0.23870099999999184
241,13,0.7,1.0,-35.0,1,0.0,0.7807009999999082
242,13,0.7,1.0,35.0,1,1.0,0.08480099999997037
243,13,0.5,0.5,-35.0,-1,1.0,1.582000999999991
244,13,0.5,0.25,-35.0,1,0.0,0.19230100000004313
245,13,0.8,0.25,-35.0,-1,1.0,0.3645010000000184
246,13,0.5,1.0,-35.0,1,0.0,0.1969010000000253
247,13,0.7,1.0,-35.0,-1,1.0,0.15260099999977683
248,13,0.5,0.5,35.0,1,1.0,0.2915009999999256
249,13,0.5,1.0,-35.0,-1,1.0,0.8575010000001839
250,13,0.5,1.0,-35.0,-1,1.0,1.2214010000000144
251,13,0.5,0.5,-35.0,-1,1.0,1.070500999999922
252,13,0.5,1.0,-35.0,-1,1.0,0.7322010000000319
253,13,0.5,0.125,35.0,-1,0.0,3.021500999999944
254,13,0.3,0.125,35.0,1,1.0,0.2796009999999569
255,13,0.5,1.0,35.0,1,1.0,0.4637009999999009
256,13,0.5,0.125,35.0,1,1.0,0.368300999999974
257,13,0.5,0.5,35.0,1,1.0,0.45600100000001476
258,13,0.5,1.0,-35.0,-1,1.0,0.37510100000008606
259,13,0.5,0.5,35.0,1,1.0,0.4511009999998805
260,13,0.5,0.125,-35.0,-1,1.0,0.8770010000000639
261,13,0.5,1.0,35.0,1,1.0,0.5487009999999373
262,13,0.5,1.0,-35.0,-1,1.0,0.8869010000000799
263,13,0.5,0.125,-35.0,1,0.0,0.43600100000003295
264,13,0.5,0.25,35.0,1,1.0,2.901601000000028
265,13,0.5,1.0,-35.0,-1,1.0,0.6435010000000148
266,13,0.5,0.25,35.0,1,1.0,0.7078010000000177
267,13,0.5,0.25,-35.0,-1,1.0,0.5031010000002425
268,13,0.5,0.5,-35.0,-1,1.0,0.25870099999997365
269,13,0.5,0.25,-35.0,-1,1.0,0.7011009999998805
270,13,0.5,1.0,-35.0,-1,1.0,0.7569009999999707
271,13,0.5,0.125,-35.0,-1,1.0,0.9288010000000213
272,13,0.5,0.5,35.0,1,1.0,0.4973010000001068
273,13,0.5,0.25,-35.0,-1,1.0,0.7465009999998529
274,13,0.5,1.0,35.0,1,1.0,0.5647010000000137
275,13,0.5,1.0,35.0,1,1.0,0.3237010000000282
276,13,0.5,0.25,-35.0,1,0.0,1.1297010000000682
277,13,0.5,0.25,-35.0,-1,1.0,0.44440099999997074
278,13,0.5,0.25,35.0,1,1.0,0.29690100000016173
279,13,0.5,0.125,-35.0,-1,1.0,1.052801000000045
280,13,0.5,0.125,35.0,1,1.0,0.2117009999997208
281,13,0.5,0.5,-35.0,-1,1.0,1.077601000000186
282,13,0.5,0.5,35.0,-1,0.0,0.11340100000006714
283,13,0.5,0.5,-35.0,1,0.0,0.5318009999998594
284,13,0.6,0.5,-35.0,-1,1.0,0.8135009999998601
285,13,0.5,0.5,35.0,1,1.0,0.5892010000000028
286,13,0.5,0.125,35.0,1,1.0,0.33030100000019047
287,13,0.5,1.0,35.0,1,1.0,0.3858010000001286
288,13,0.5,1.0,35.0,1,1.0,0.5652010000001155
289,13,0.5,0.125,35.0,1,1.0,0.45760100000006787
290,13,0.5,1.0,-35.0,1,0.0,0.22260099999994054
291,13,0.5,0.125,35.0,1,1.0,0.3684009999999489
292,13,0.5,1.0,-35.0,-1,1.0,0.22060099999998783
293,13,0.5,0.5,35.0,1,1.0,0.5063010000001213
294,13,0.5,0.25,35.0,1,1.0,0.4709010000001399
295,13,0.5,0.25,35.0,1,1.0,0.4227009999999609
296,13,0.5,0.25,-35.0,1,0.0,0.3425010000000839
297,13,0.9,0.25,35.0,1,1.0,0.25450100000011844
298,13,0.5,0.5,-35.0,1,0.0,0.501500999999962
299,13,0.5,0.25,35.0,1,1.0,0.38370099999997365
300,13,0.5,0.5,-35.0,1,0.0,0.295900999999958
301,13,0.9,0.5,-35.0,1,0.0,1.4249009999998634
302,13,0.9,0.5,-35.0,-1,1.0,0.629901000000018
303,13,0.5,0.5,35.0,1,1.0,0.32500100000015664
304,13,0.5,1.0,35.0,1,1.0,0.3299010000000635
305,13,0.5,0.25,35.0,1,1.0,0.27520099999992453
306,13,0.5,1.0,-35.0,-1,1.0,0.650101000000177
307,13,0.5,0.125,-35.0,-1,1.0,0.3724009999998543
308,13,0.5,0.125,35.0,-1,0.0,0.7045009999999365
309,13,0.5,0.25,35.0,-1,0.0,0.8001010000000406
310,13,0.5,0.25,35.0,1,1.0,3.393101000000115
311,13,0.5,0.5,-35.0,-1,1.0,3.941301000000067
312,13,0.5,1.0,-35.0,-1,1.0,0.5058010000000195
313,13,0.5,0.125,-35.0,-1,1.0,6.806900999999925
314,13,0.5,1.0,35.0,1,1.0,0.12710100000003877
315,13,0.5,1.0,-35.0,-1,1.0,0.4631010000000515
316,13,0.5,1.0,35.0,1,1.0,0.3058010000002014
317,13,0.5,1.0,-35.0,-1,1.0,1.2836010000000897
318,13,0.5,1.0,-35.0,1,0.0,3.584401000000071
319,13,0.4,1.0,35.0,1,1.0,0.26240100000018174
320,13,0.5,1.0,35.0,1,1.0,0.2881009999998696
321,13,0.5,0.125,35.0,-1,0.0,0.4408009999999649
322,13,0.5,0.125,-35.0,-1,1.0,3.1120009999997365
323,13,0.5,1.0,-35.0,-1,1.0,0.6935009999999693
324,13,0.5,0.5,-35.0,-1,1.0,0.6560010000000602
325,13,0.5,0.5,-35.0,-1,1.0,0.44170100000019374
326,13,0.5,0.125,35.0,-1,0.0,0.5943009999998594
327,13,0.3,0.125,-35.0,1,0.0,0.5692009999997936
328,13,0.5,0.5,35.0,1,1.0,0.3948009999999158
329,13,0.5,1.0,35.0,1,1.0,0.3971010000000206
330,13,0.5,1.0,35.0,1,1.0,0.3097009999999045
331,13,0.5,0.5,35.0,1,1.0,0.31230100000016137
332,13,0.5,0.125,35.0,1,1.0,0.2975010000000111
333,13,0.5,1.0,35.0,1,1.0,0.4262010000002192
334,13,0.5,0.125,-35.0,-1,1.0,0.5856009999999969
335,13,0.5,0.25,-35.0,-1,1.0,3.117001000000073
336,13,0.5,0.5,35.0,1,1.0,0.2719010000000708
337,13,0.5,0.5,-35.0,1,0.0,0.30680100000017774
338,13,0.5,0.25,35.0,1,1.0,0.2892010000000482
339,13,0.5,0.5,-35.0,-1,1.0,0.4284010000001217
340,13,0.5,1.0,35.0,1,1.0,1.0343010000001414
341,13,0.5,1.0,35.0,1,1.0,0.22260099999994054
342,13,0.5,1.0,35.0,1,1.0,0.49850100000003295
343,13,0.5,1.0,-35.0,1,0.0,0.11340100000006714
344,13,0.7,1.0,-35.0,-1,1.0,3.0415009999999256
345,13,0.5,1.0,35.0,1,1.0,0.21980099999996128
346,13,0.5,0.125,35.0,1,1.0,0.10900100000003476
347,13,0.5,0.125,35.0,-1,0.0,3.4107010000000173
348,13,0.7,0.125,35.0,1,1.0,0.3154010000000653
349,13,0.5,1.0,-35.0,1,0.0,0.3579010000000835
350,13,0.5,0.25,-35.0,-1,1.0,2.4532010000000355
351,13,0.5,0.5,35.0,1,1.0,0.20100099999990562
352,13,0.5,0.5,-35.0,1,0.0,0.5136010000001079
353,13,0.5,0.125,-35.0,1,0.0,2.621500999999853
354,13,0.5,0.125,-35.0,1,0.0,0.17640099999994163
355,13,0.8,0.125,35.0,1,1.0,0.31840100000022176
356,13,0.5,1.0,-35.0,-1,1.0,0.5240009999999984
357,13,0.5,1.0,35.0,1,1.0,0.4833009999999831
358,13,0.5,0.5,35.0,1,1.0,0.3516010000003007
359,13,0.5,0.0625,35.0,1,1.0,0.20070099999998092
360,13,0.5,1.0,35.0,1,1.0,0.4634009999999762
361,13,0.5,0.5,-35.0,-1,1.0,0.7355009999998856
362,13,0.5,0.5,35.0,-1,0.0,0.5412010000000009
363,13,0.7,0.5,-35.0,-1,1.0,0.370001000000002
364,13,0.5,1.0,-35.0,-1,1.0,2.8154010000000653
365,13,0.5,0.125,35.0,-1,0.0,0.27720099999987724
366,13,0.5,0.0625,35.0,1,1.0,0.31940099999997074
367,13,0.5,1.0,35.0,1,1.0,0.5820009999999911
368,13,0.5,0.5,-35.0,-1,1.0,0.40760099999988597
369,13,0.5,0.0625,-35.0,-1,1.0,1.519901000000118
370,13,0.5,0.25,35.0,1,1.0,0.03510099999994054
371,13,0.5,0.25,35.0,1,1.0,0.44630099999994854
372,13,0.5,0.0625,-35.0,-1,1.0,0.41240099999981794
373,13,0.5,1.0,35.0,1,1.0,0.5513009999999667
374,13,0.5,0.25,35.0,1,1.0,0.23410100000000966
375,13,0.5,0.5,-35.0,-1,1.0,0.9393010000001141
376,13,0.5,0.25,35.0,1,1.0,0.777800999999954
377,13,0.5,0.125,-35.0,1,0.0,0.7063009999999394
378,13,0.6,0.125,-35.0,-1,1.0,2.9858010000000377
379,13,0.5,1.0,-35.0,-1,1.0,0.6070009999998547
380,13,0.5,1.0,-35.0,1,0.0,0.2918010000000777
381,13,0.5,0.125,-35.0,-1,1.0,0.6232010000001083
382,13,0.5,1.0,35.0,1,1.0,0.436301000000185
383,13,0.5,0.25,35.0,1,1.0,0.24790099999995618
384,13,0.5,0.0625,-35.0,-1,1.0,0.6004010000001472
385,13,0.5,0.125,35.0,1,1.0,0.2813010000002123
386,13,0.5,0.5,-35.0,-1,1.0,0.2675010000000384
387,13,0.5,0.0625,-35.0,1,0.0,0.23970100000019556
388,13,0.5,0.0625,35.0,1,1.0,0.3285009999999602
389,13,0.5,1.0,35.0,1,1.0,0.31660100000021885
390,13,0.5,0.125,-35.0,-1,1.0,0.539000999999871
391,13,0.5,0.125,35.0,1,1.0,0.38210099999992053
392,13,0.5,0.125,35.0,1,1.0,0.31250100000011116
393,13,0.5,0.0625,-35.0,-1,1.0,0.7948009999997794
394,13,0.5,0.25,-35.0,-1,1.0,0.8874009999999544
395,13,0.5,0.0625,-35.0,-1,1.0,0.7024010000000089
396,13,0.5,0.0625,35.0,1,1.0,7.265200999999934
397,13,0.5,0.0625,35.0,-1,0.0,0.5356010000000424
398,13,0.5,0.0625,35.0,-1,0.0,1.0750010000001566
399,13,0.5,0.125,-35.0,-1,1.0,3.9397010000000137
400,13,0.5,0.25,-35.0,-1,1.0,0.3080009999998765
401,13,0.5,0.0625,-35.0,-1,1.0,0.9570010000002185
402,13,0.5,0.0625,35.0,-1,0.0,4.855101000000104
403,13,0.5,0.0625,35.0,1,1.0,0.489500999999791
404,13,0.5,0.0625,-35.0,-1,1.0,3.345301000000063
405,13,0.5,0.125,-35.0,-1,1.0,0.5603009999999813
406,13,0.5,0.5,-35.0,-1,1.0,0.8124009999999089
407,13,0.5,1.0,-35.0,-1,1.0,0.6179010000000744
408,13,0.5,0.125,35.0,1,1.0,0.5061010000001716
409,13,0.5,0.125,35.0,1,1.0,0.3454010000002654
410,13,0.5,0.5,35.0,1,1.0,0.6177010000001246
411,13,0.5,0.5,-35.0,-1,1.0,0.4572010000001683
412,13,0.5,0.0625,-35.0,-1,1.0,0.9969009999999798
413,13,0.5,0.125,-35.0,-1,1.0,0.5590010000000802
414,13,0.5,0.125,35.0,1,1.0,0.31110100000000784
415,13,0.5,0.0625,35.0,1,1.0,0.2632010000002083
416,13,0.5,0.0625,35.0,-1,0.0,0.18210100000010243
417,13,0.5,0.0625,-35.0,-1,1.0,4.028000999999904
418,13,0.5,0.25,35.0,1,1.0,0.3489009999998416
419,13,0.5,0.5,35.0,1,1.0,0.5582010000000537
420,13,0.5,0.25,35.0,-1,0.0,0.5478009999999358
421,13,0.4,0.25,35.0,1,1.0,0.4857009999998354
422,13,0.5,0.5,35.0,1,1.0,0.4552009999999882
423,13,0.5,0.25,-35.0,-1,1.0,0.8875010000001566
424,13,0.5,0.25,-35.0,-1,1.0,0.3801009999999678
425,13,0.5,0.125,-35.0,-1,1.0,0.8953010000000177
426,13,0.5,0.25,35.0,1,1.0,0.5973010000000158
427,13,0.5,1.0,-35.0,-1,1.0,0.5129010000000562
428,13,0.5,0.25,-35.0,-1,1.0,3.6587009999998372
429,13,0.5,0.0625,35.0,-1,0.0,0.386400999999978
430,13,0.5,0.0625,35.0,1,1.0,0.44200100000011844
431,13,0.5,0.25,-35.0,-1,1.0,0.868300999999974
432,13,0.5,0.25,-35.0,-1,1.0,0.24310100000002421
433,13,0.5,0.125,-35.0,-1,1.0,0.904100999999855
434,13,0.5,1.0,35.0,1,1.0,0.3766010000001643
435,13,0.5,0.25,-35.0,-1,1.0,1.0243010000001505
436,13,0.5,0.125,-35.0,-1,1.0,0.8202009999999973
437,13,0.5,1.0,35.0,1,1.0,0.3085009999999784
438,13,0.5,0.0625,-35.0,1,0.0,0.27750099999980193
439,13,0.4,0.0625,35.0,1,1.0,0.30640100000005077
440,13,0.5,0.5,35.0,1,1.0,0.46230100000002494
441,13,0.5,0.125,-35.0,-1,1.0,1.881300999999894
442,13,0.5,1.0,-35.0,-1,1.0,0.637101000000257
443,13,0.5,0.125,35.0,1,1.0,1.0622010000001865
444,13,0.5,1.0,-35.0,-1,1.0,0.5741009999997004
445,13,0.5,0.5,35.0,1,1.0,0.39610099999981685
446,13,0.5,0.5,35.0,1,1.0,0.3851009999998496
447,13,0.5,0.0625,35.0,-1,0.0,1.1611010000001443
448,13,0.5,0.0625,35.0,1,1.0,3.006901000000198
449,13,0.5,0.5,35.0,1,1.0,0.3019009999998161
450,13,0.5,0.125,-35.0,-1,1.0,0.2375010000000657
451,13,0.5,0.125,-35.0,1,0.0,1.147001000000273
452,13,0.5,0.25,-35.0,-1,1.0,0.5087009999997463
453,13,0.5,0.125,-35.0,-1,1.0,3.17790100000002
454,13,0.5,0.5,35.0,1,1.0,0.36970100000007733
455,13,0.5,0.5,-35.0,1,0.0,0.3675009999997201
456,13,0.5,0.0625,-35.0,1,0.0,0.36290100000042
457,13,0.5,0.25,-35.0,-1,1.0,0.5649009999997361
458,13,0.5,0.5,-35.0,-1,1.0,0.4641009999995731
459,13,0.5,0.0625,-35.0,-1,1.0,0.40000099999997474
460,13,0.5,0.0625,-35.0,-1,1.0,2.562300999999934
461,13,0.5,0.0625,-35.0,-1,1.0,0.5666009999999915
462,13,0.5,1.0,35.0,1,1.0,0.3892009999999573
463,13,0.5,0.0625,35.0,1,1.0,1.0584010000002309
464,13,0.5,1.0,-35.0,-1,1.0,0.4710010000003422
465,13,0.5,0.125,35.0,1,1.0,0.38950100000010934
466,13,0.5,1.0,35.0,1,1.0,0.2815009999999347
467,13,0.5,1.0,-35.0,-1,1.0,0.08750100000042949
468,13,0.5,1.0,35.0,1,1.0,0.38650100000040766
469,13,0.5,1.0,35.0,1,1.0,0.3519009999995433
470,13,0.5,0.25,35.0,1,1.0,0.41430099999979575
471,13,0.5,0.5,-35.0,-1,1.0,1.162800999999945
472,13,0.5,0.125,35.0,1,1.0,0.3153010000000904
473,13,0.5,0.0625,-35.0,-1,1.0,0.5845009999998183
474,13,0.5,0.0625,-35.0,1,0.0,2.9403010000000904
475,13,0.5,0.25,35.0,1,1.0,0.3147009999997863
476,13,0.5,1.0,35.0,1,1.0,0.36100100000021484
477,13,0.5,0.0625,35.0,1,1.0,1.842801000000236
478,13,0.5,0.5,35.0,1,1.0,0.5717009999998481
479,13,0.5,0.0625,-35.0,-1,1.0,0.4609009999999216
480,13,0.5,0.25,-35.0,-1,1.0,0.5873010000000249
481,13,0.5,0.5,-35.0,-1,1.0,0.42610100000001694
482,13,0.5,0.5,35.0,-1,0.0,0.09540100000003804
483,13,0.5,0.0625,-35.0,-1,1.0,8.111401000000114
484,13,0.5,1.0,-35.0,-1,1.0,6.768201000000317
485,13,0.5,1.0,-35.0,-1,1.0,0.8252010000005612
486,13,0.5,1.0,35.0,1,1.0,0.3675009999997201
487,13,0.5,0.125,35.0,1,1.0,1.9859009999995578
488,13,0.5,0.125,35.0,-1,0.0,0.7179009999999835
489,13,0.2,0.125,35.0,1,1.0,5.646600999999919
490,13,0.5,0.5,35.0,1,1.0,0.8244010000003072
491,13,0.5,0.0625,35.0,-1,0.0,3.1835009999999784
492,13,0.4,0.0625,35.0,-1,0.0,8.40480000000025
493,13,0.5,1.0,35.0,1,1.0,0.3916009999998096
494,13,0.5,0.25,35.0,1,1.0,0.3471010000002934
495,13,0.5,0.5,-35.0,-1,1.0,3.863300999999865
496,13,0.5,0.5,35.0,1,1.0,0.40140100000007806
497,13,0.5,1.0,35.0,1,1.0,0.9639010000000781
498,13,0.5,1.0,-35.0,1,0.0,0.4163010000002032
499,13,0.5,0.25,35.0,1,1.0,3.5718010000000504
500,13,0.5,1.0,35.0,1,1.0,0.24290100000007442
501,13,0.5,0.125,-35.0,-1,1.0,3.4023009999996248
502,13,0.5,0.25,-35.0,-1,1.0,0.467000999999982
503,13,0.5,0.0625,-35.0,-1,1.0,6.1488009999993665
504,13,0.5,0.25,-35.0,1,0.0,1.1464010000004237
505,13,0.6,0.25,35.0,1,1.0,2.1487010000000737
506,13,0.5,1.0,-35.0,-1,1.0,0.3505009999998947
507,13,0.5,0.25,-35.0,-1,1.0,0.33970099999987724
508,13,0.5,1.0,35.0,1,1.0,0.48870099999976446
509,13,0.5,0.125,-35.0,-1,1.0,0.5480009999996582
510,13,0.5,0.0625,-35.0,-1,1.0,1.11100099999976
511,13,0.5,0.125,-35.0,-1,1.0,1.5230009999995673
512,13,0.5,0.0625,-35.0,-1,1.0,3.282101000000239
513,13,0.5,0.125,35.0,-1,0.0,0.6005009999998947
514,13,0.3,0.125,35.0,1,1.0,1.9025010000000293
515,13,0.5,0.5,-35.0,-1,1.0,4.194801000000098
516,13,0.5,0.25,-35.0,-1,1.0,2.0661009999998896
517,13,0.5,0.0625,-35.0,1,0.0,0.3846010000002025
518,13,0.5,0.0625,35.0,-1,0.0,0.20360100000016246
519,13,0.5,0.0625,-35.0,-1,1.0,2.166001000000051
520,13,0.5,0.25,-35.0,-1,1.0,0.5213009999997666
521,13,0.5,0.25,35.0,1,1.0,0.4640009999998256
522,13,0.5,1.0,35.0,1,1.0,0.6190010000000257
523,13,0.5,0.125,35.0,-1,0.0,2.3714010000003327
524,13,0.5,0.125,-35.0,-1,1.0,0.5156010000000606
525,13,0.5,0.125,35.0,1,1.0,0.5415009999996983
526,13,0.5,0.25,35.0,1,1.0,0.6845009999997274
527,13,0.5,0.125,35.0,-1,0.0,0.7600009999996473
528,13,0.4,0.125,35.0,1,1.0,0.3752009999998336
529,13,0.5,1.0,35.0,1,1.0,0.32150099999989834
530,13,0.5,0.5,-35.0,-1,1.0,3.5171009999999114
531,13,0.5,0.0625,-35.0,-1,1.0,0.7387009999997645
532,13,0.5,0.125,-35.0,-1,1.0,0.5478010000001632
533,13,0.5,1.0,35.0,1,1.0,0.32360099999959857
534,13,0.5,0.5,35.0,1,1.0,0.3262009999998554
535,13,0.5,0.5,-35.0,-1,1.0,0.9955009999998765
536,13,0.5,0.125,-35.0,-1,1.0,2.6676010000001042
537,13,0.5,0.5,-35.0,-1,1.0,0.41620100000000093
538,13,0.5,1.0,-35.0,-1,1.0,0.6220010000001821
539,13,0.5,0.5,35.0,1,1.0,0.6210009999999784
540,13,0.5,0.125,35.0,-1,0.0,3.4804009999998016
541,13,0.3,0.125,-35.0,-1,1.0,0.43170099999997547
542,13,0.5,0.5,35.0,1,1.0,0.4041010000000824
543,13,0.5,0.25,-35.0,-1,1.0,3.4030009999996764
544,13,0.5,0.5,35.0,1,1.0,0.2308010000001559
545,13,0.5,0.125,-35.0,-1,1.0,1.0870009999998729
546,13,0.5,0.125,35.0,-1,0.0,4.471700999999939
547,13,0.5,0.0625,35.0,1,1.0,3.949301000000105
548,13,0.5,0.0625,-35.0,-1,1.0,5.650701000000026
549,13,0.5,0.25,-35.0,-1,1.0,0.36800099999982194
550,13,0.5,0.0625,-35.0,-1,1.0,6.197201000000405
551,13,0.5,0.0625,35.0,-1,0.0,0.24560099999962404
552,13,0.3,0.0625,35.0,1,1.0,0.5135009999999056
553,13,0.5,0.5,35.0,1,1.0,0.33630100000027596
554,13,0.5,0.0625,35.0,1,1.0,1.06570099999999
555,13,0.5,0.5,-35.0,-1,1.0,0.21790099999998347
556,13,0.5,0.25,-35.0,-1,1.0,1.2506009999997332
557,13,0.5,0.25,35.0,1,1.0,0.5095010000000002
558,13,0.5,0.25,-35.0,-1,1.0,3.595401000000493
559,13,0.5,1.0,35.0,1,1.0,0.37360099999978047
560,13,0.5,0.125,-35.0,-1,1.0,0.5535009999998692
561,13,0.5,0.5,35.0,1,1.0,0.4126009999999951
562,13,0.5,0.125,35.0,1,1.0,0.5649009999997361
563,13,0.5,0.125,-35.0,-1,1.0,4.140800999999556
564,13,0.5,0.25,35.0,1,1.0,0.2716000000000349
565,13,0.5,0.0625,35.0,-1,0.0,0.764100999999755
566,13,0.5,0.0625,35.0,1,1.0,0.2963009999998576
567,13,0.5,1.0,-35.0,-1,1.0,7.405600999999933
568,13,0.5,0.25,35.0,1,1.0,0.32260100000030434
569,13,0.5,0.5,-35.0,-1,1.0,3.2884009999997943
570,13,0.5,0.25,-35.0,-1,1.0,1.2241009999997914
571,13,0.5,0.25,-35.0,-1,1.0,3.736001000000215
572,13,0.5,0.125,-35.0,-1,1.0,0.6174009999999726
573,13,0.5,0.5,-35.0,-1,1.0,1.8433010000003378
574,13,0.5,0.125,-35.0,1,0.0,2.6187009999998736
575,13,0.5,0.0625,35.0,-1,0.0,2.4872009999999136
576,13,0.5,0.0625,35.0,1,1.0,0.2854010000000926
577,13,0.5,1.0,35.0,1,1.0,0.577701000000161
578,13,0.5,0.5,35.0,1,1.0,0.3170009999994363
579,13,0.5,0.5,-35.0,1,0.0,3.8331010000001697
580,13,0.5,0.25,35.0,1,1.0,0.6909009999999398
581,13,0.5,0.0,35.0,1,1.0,12.870100999999977
582,13,0.5,0.0625,-35.0,-1,1.0,2.685500999999931
583,13,0.5,0.0625,35.0,-1,0.0,4.880701000000045
584,13,0.5,0.0625,35.0,1,1.0,1.0717010000003029
585,13,0.5,1.0,35.0,-1,0.0,2.3335010000000693
586,13,0.5,0.125,35.0,1,1.0,3.575300999999854
587,13,0.5,0.0625,-35.0,1,0.0,23.800300999999763
588,13,0.7,0.0625,35.0,1,1.0,12.79830099999981
589,13,0.5,1.0,-35.0,1,0.0,24.790100999999595
590,13,0.5,0.25,35.0,1,1.0,5.28110099999958
591,13,0.5,1.0,35.0,1,1.0,0.3427010000000337
592,13,0.5,1.0,35.0,1,1.0,0.4816000000000713
593,13,0.5,0.0,35.0,-1,0.0,0.7148010000000795
594,13,0.5,0.0,35.0,1,1.0,22.02330099999972
595,13,0.5,0.0625,35.0,1,1.0,10.574501000000055
1,14,0.5,0.0625,-35.0,-1,1.0,0.41159999999999974
2,14,0.5,0.25,-35.0,-1,1.0,0.21579999999999977
3,14,0.5,1.0,-35.0,-1,1.0,0.6401999999999992
4,14,0.5,0.5,-35.0,-1,1.0,0.5763000000000034
5,14,0.5,0.25,-35.0,-1,1.0,0.2541000000000011
6,14,0.5,0.125,-35.0,-1,1.0,1.4657000000000018
7,14,0.5,0.0,35.0,-1,0.0,1.8920999999999992
8,14,0.3,0.0,-35.0,-1,1.0,0.47160000000000224
9,14,0.5,1.0,-35.0,-1,1.0,0.8977000000000004
10,14,0.5,0.0625,-35.0,1,0.0,2.716799999999999
11,14,0.5,0.125,-35.0,-1,1.0,0.3193999999999946
12,14,0.5,0.25,-35.0,1,0.0,1.0738999999999947
13,14,0.2,0.25,35.0,1,1.0,0.3913999999999973
14,14,0.5,0.5,35.0,1,1.0,0.3388999999999953
15,14,0.5,1.0,35.0,-1,0.0,0.4025999999999925
16,14,0.4,1.0,35.0,-1,0.0,1.0385989999999978
17,14,0.4,1.0,-35.0,-1,1.0,1.4432999999999936
18,14,0.5,1.0,-35.0,-1,1.0,0.40989999999999327
19,14,0.5,0.0625,-35.0,-1,1.0,0.21530000000001337
20,14,0.5,0.25,-35.0,-1,1.0,2.749200000000002
21,14,0.5,0.125,35.0,-1,0.0,0.24740000000001316
22,14,0.5,0.0625,-35.0,-1,1.0,1.773300000000006
23,14,0.5,0.25,35.0,-1,0.0,0.3353000000000037
24,14,0.5,0.125,-35.0,-1,1.0,0.06879999999999598
25,14,0.5,0.125,-35.0,1,0.0,2.5254000000000048
26,14,0.1,0.125,35.0,-1,0.0,1.6895999999999987
27,14,0.5,0.5,35.0,1,1.0,0.28010000000000446
28,14,0.5,0.125,35.0,1,1.0,0.24900000000000944
29,14,0.5,0.0,-35.0,-1,1.0,0.6091000000000122
30,14,0.5,0.5,35.0,1,1.0,0.23390000000000555
31,14,0.5,0.0625,-35.0,-1,1.0,0.4714000000000027
32,14,0.5,0.0,-35.0,-1,1.0,0.3545000000000158
33,14,0.5,0.5,-35.0,-1,1.0,0.7723000000000013
34,14,0.5,0.25,35.0,-1,0.0,0.07479999999998199
35,14,0.5,0.0625,-35.0,-1,1.0,0.42560000000000286
36,14,0.5,0.0625,35.0,-1,0.0,0.3961000000000183
37,14,0.5,0.125,-35.0,-1,1.0,0.47999999999998977
38,14,0.5,0.0625,35.0,-1,0.0,0.38399999999998613
39,14,0.1,0.0625,35.0,-1,0.0,0.4855000000000018
40,14,0.5,1.0,35.0,1,1.0,0.3345999999999947
41,14,0.5,0.0625,-35.0,-1,1.0,0.54819999999998
42,14,0.5,0.125,-35.0,-1,1.0,2.408299999999997
43,14,0.5,0.125,35.0,1,1.0,0.31039999999998713
44,14,0.5,0.0625,-35.0,-1,1.0,0.6636999999999773
45,14,0.5,0.0625,-35.0,-1,1.0,0.21920000000000073
46,14,0.5,0.0625,35.0,1,1.0,0.4421999999999855
47,14,0.5,0.0,-35.0,-1,1.0,2.603499999999997
48,14,0.5,0.125,-35.0,-1,1.0,0.5919999999999845
49,14,0.5,0.25,35.0,1,1.0,0.2266999999999939
50,14,0.5,0.125,35.0,-1,0.0,0.6110999999999933
51,14,0.3,0.125,-35.0,-1,1.0,4.31110000000001
52,14,0.5,1.0,35.0,1,1.0,0.3240999999999872
53,14,0.5,0.25,35.0,1,1.0,0.5608999999999753
54,14,0.5,0.5,35.0,1,1.0,0.19059999999998922
55,14,0.5,0.0625,-35.0,1,0.0,0.34610000000000696
56,14,0.6,0.0625,35.0,1,1.0,0.3380999999999972
57,14,0.5,1.0,-35.0,-1,1.0,0.5103999999999758
58,14,0.5,0.125,-35.0,-1,1.0,0.10550000000000637
59,14,0.5,0.0,-35.0,-1,1.0,1.0590999999999724
60,14,0.5,0.25,-35.0,-1,1.0,0.5391999999999939
61,14,0.5,0.5,-35.0,-1,1.0,0.5251999999999839
62,14,0.5,0.5,35.0,1,1.0,0.27990000000002624
63,14,0.5,0.125,-35.0,-1,1.0,0.4987000000000421
64,14,0.5,0.5,35.0,1,1.0,0.5618000000000052
65,14,0.5,0.0,35.0,-1,0.0,0.5539999999999736
66,14,0.3,0.0,35.0,-1,0.0,1.9677999999999543
67,14,0.5,1.0,35.0,1,1.0,0.27830000000000155
68,14,0.5,0.125,35.0,1,1.0,0.2696000000000254
69,14,0.5,0.125,-35.0,-1,1.0,0.9602999999999611
70,14,0.5,0.125,-35.0,-1,1.0,0.08909999999997353
71,14,0.5,0.25,35.0,1,1.0,0.31689999999997553
72,14,0.5,0.125,-35.0,-1,1.0,0.19269999999994525
73,14,0.5,0.125,35.0,1,1.0,0.29290000000003147
74,14,0.5,1.0,-35.0,-1,1.0,0.7668999999999642
75,14,0.5,0.125,-35.0,1,0.0,0.2147000000000503
76,14,0.5,0.25,35.0,1,1.0,0.30740000000002965
77,14,0.5,0.5,-35.0,-1,1.0,0.11849999999998317
78,14,0.5,0.25,-35.0,-1,1.0,0.2547999999999888
79,14,0.5,0.125,-35.0,-1,1.0,0.2529999999999859
80,14,0.5,0.125,35.0,-1,0.0,1.9400000000000546
81,14,0.5,0.125,35.0,-1,0.0,0.5367999999999711
82,14,0.5,0.0625,35.0,1,1.0,0.4123000000000161
83,14,0.5,0.5,-35.0,-1,1.0,0.27949999999998454
84,14,0.5,1.0,-35.0,-1,1.0,0.9600000000000364
85,14,0.5,0.5,35.0,1,1.0,0.2940999999999576
86,14,0.5,1.0,35.0,1,1.0,0.45149999999995316
87,14,0.5,1.0,35.0,1,1.0,0.6166999999999803
88,14,0.5,0.5,-35.0,-1,1.0,0.5262000000000171
89,14,0.5,0.25,-35.0,-1,1.0,0.2108000000000061
90,14,0.5,0.0,35.0,-1,0.0,3.3115000000000236
91,14,0.5,0.0,35.0,-1,0.0,-0.03180000000003247
92,14,0.4,0.0,-35.0,-1,1.0,2.649600000000021
93,14,0.5,1.0,35.0,1,1.0,0.43029999999998836
94,14,0.5,1.0,35.0,1,1.0,0.26439999999996644
95,14,0.5,0.125,-35.0,-1,1.0,0.3441999999999439
96,14,0.5,0.125,35.0,-1,0.0,0.13449900000000525
97,14,0.3,0.125,-35.0,-1,1.0,0.22359999999997626
98,14,0.5,1.0,35.0,-1,0.0,0.07550000000003365
99,14,0.5,0.125,-35.0,-1,1.0,0.31550000000004275
100,14,0.5,0.25,35.0,1,1.0,0.28640000000001464
101,14,0.5,0.25,35.0,1,1.0,0.5487999999999715
102,14,0.5,0.125,35.0,-1,0.0,0.29419999999998936
103,14,0.4,0.125,35.0,1,1.0,0.3068999999999278
104,14,0.5,1.0,-35.0,-1,1.0,0.2407000000000039
105,14,0.5,1.0,-35.0,-1,1.0,0.377900000000011
106,14,0.5,1.0,-35.0,-1,1.0,0.4254999999999427
107,14,0.5,0.125,-35.0,-1,1.0,0.3772000000000162
108,14,0.5,0.0625,35.0,-1,0.0,0.6415000000000077
109,14,0.3,0.0625,-35.0,-1,1.0,2.468599999999981
110,14,0.5,1.0,35.0,1,1.0,0.3143999999999778
111,14,0.5,1.0,35.0,1,1.0,0.5246999999999957
112,14,0.5,1.0,35.0,1,1.0,0.25549999999998363
113,14,0.5,1.0,35.0,1,1.0,0.2598000000000411
114,14,0.5,0.0625,35.0,-1,0.0,0.7133999999999787
115,14,0.5,0.0625,35.0,-1,0.0,0.24729999999999563
116,14,0.4,0.0625,35.0,-1,0.0,0.5201999999999884
117,14,0.5,1.0,-35.0,-1,1.0,0.29769999999996344
118,14,0.5,1.0,-35.0,-1,1.0,0.2728999999999928
119,14,0.5,0.125,-35.0,-1,1.0,0.467899999999986
120,14,0.5,0.5,35.0,1,1.0,0.011399999999980537
121,14,0.5,0.5,-35.0,-1,1.0,0.22200000000003683
122,14,0.5,0.0625,-35.0,-1,1.0,0.17989999999997508
123,14,0.5,1.0,35.0,-1,0.0,0.10719999999997754
124,14,0.5,0.125,-35.0,1,0.0,0.2706999999999766
125,14,0.5,0.25,-35.0,-1,1.0,0.18530000000004065
126,14,0.5,0.125,35.0,-1,0.0,0.2266999999999939
127,14,0.2,0.125,35.0,1,1.0,0.22589900000002672
128,14,0.5,0.5,35.0,1,1.0,0.6007999999999925
129,14,0.5,0.125,35.0,1,1.0,0.33269999999998845
130,14,0.5,0.25,35.0,1,1.0,0.5309999999999491
131,14,0.5,0.0,-35.0,-1,1.0,0.24480000000005475
132,14,0.5,0.125,35.0,1,1.0,0.22449999999992087
133,14,0.5,0.0625,-35.0,-1,1.0,0.25099999999997635
134,14,0.5,1.0,-35.0,-1,1.0,0.1269999999999527
135,14,0.5,1.0,-35.0,-1,1.0,0.8075000000000045
136,14,0.5,0.25,35.0,1,1.0,0.3119000000000369
137,14,0.5,1.0,35.0,1,1.0,0.6897000000000162
138,14,0.5,0.25,35.0,1,1.0,0.2843999999998914
139,14,0.5,0.0625,35.0,-1,0.0,0.8605000000000018
140,14,0.5,0.0625,35.0,1,1.0,0.23329999999998563
141,14,0.5,1.0,35.0,1,1.0,0.28340000000002874
142,14,0.5,0.5,-35.0,-1,1.0,0.6827999999999292
143,14,0.5,1.0,35.0,1,1.0,0.25470000000007076
144,14,0.5,0.0625,-35.0,-1,1.0,0.34950000000003456
145,14,0.5,0.125,-35.0,-1,1.0,0.21539999999993142
146,14,0.5,0.125,35.0,-1,0.0,0.25149999999996453
147,14,0.5,0.25,35.0,1,1.0,0.23469999999997526
148,14,0.5,0.25,-35.0,-1,1.0,0.4272999999999456
149,14,0.5,0.0625,-35.0,-1,1.0,0.8918999999999642
150,14,0.5,0.125,-35.0,-1,1.0,2.218599999999924
151,14,0.5,0.5,35.0,1,1.0,0.595299999999952
152,14,0.5,0.0,-35.0,1,0.0,1.3564999999999827
153,14,0.5,0.125,35.0,-1,0.0,0.4963999999999942
154,14,0.5,0.0625,-35.0,1,0.0,0.34800000000007003
155,14,0.4,0.0625,-35.0,-1,1.0,0.37200000000007094
156,14,0.5,1.0,35.0,1,1.0,0.5208999999999833
157,14,0.5,0.25,-35.0,-1,1.0,0.05480000000000018
158,14,0.5,0.25,-35.0,-1,1.0,0.3994000000000142
159,14,0.5,0.125,35.0,1,1.0,0.3442000000000007
160,14,0.5,0.0,-35.0,-1,1.0,0.2925999999999931
161,14,0.5,0.0,-35.0,-1,1.0,0.07299999999997908
162,14,0.5,0.5,-35.0,-1,1.0,0.6474000000000615
163,14,0.5,0.25,35.0,-1,0.0,0.3606000000000904
164,14,0.5,0.125,-35.0,-1,1.0,1.3112999999999602
165,14,0.5,0.0625,-35.0,-1,1.0,0.25950000000000273
166,14,0.5,0.0,-35.0,-1,1.0,0.7513999999999896
167,14,0.5,0.125,35.0,-1,0.0,0.2602999999999156
168,14,0.5,0.125,35.0,1,1.0,0.39549999999997
169,14,0.5,0.0625,-35.0,-1,1.0,2.6672999999999547
170,14,0.5,0.25,-35.0,-1,1.0,0.3523000000000138
171,14,0.5,1.0,-35.0,-1,1.0,2.8215999999999894
172,14,0.5,0.125,35.0,-1,0.0,0.435799999999972
173,14,0.5,0.25,35.0,-1,0.0,1.7799999999999727
174,14,0.1,0.25,-35.0,-1,1.0,0.4107999999999947
175,14,0.5,0.5,35.0,-1,0.0,0.45489999999995234
176,14,0.1,0.5,35.0,1,1.0,0.6293999999999187
177,14,0.5,0.5,35.0,1,1.0,0.3007000000000062
178,14,0.5,0.5,35.0,1,1.0,0.5144999999998845
179,14,0.5,1.0,-35.0,-1,1.0,0.33350000000007185
180,14,0.5,0.0625,-35.0,-1,1.0,0.2598000000000411
181,14,0.5,0.0625,-35.0,-1,1.0,0.5561000000001286
182,14,0.5,0.5,-35.0,1,0.0,3.085399999999936
183,14,0.5,0.0625,35.0,-1,0.0,0.5438000000000329
184,14,0.4,0.0625,-35.0,-1,1.0,0.17309999999997672
185,14,0.5,0.5,35.0,1,1.0,0.2617999999999938
186,14,0.5,0.5,35.0,1,1.0,0.33589999999992415
187,14,0.5,0.0625,-35.0,-1,1.0,0.3929000000000542
188,14,0.5,0.25,35.0,1,1.0,0.43449999999995725
189,14,0.5,0.5,35.0,1,1.0,0.2685999999999922
190,14,0.5,0.125,-35.0,-1,1.0,0.1997000000000071
191,14,0.5,0.0625,35.0,-1,0.0,0.35569999999995616
192,14,0.5,0.0625,35.0,-1,0.0,0.5061000000000604
193,14,0.5,1.0,-35.0,-1,1.0,0.44029999999997926
194,14,0.5,0.25,-35.0,-1,1.0,1.2409999999999854
195,14,0.5,0.125,-35.0,-1,1.0,0.5381999999999607
196,14,0.5,0.25,-35.0,-1,1.0,0.33190000000001874
197,14,0.5,0.125,-35.0,-1,1.0,0.4196999999999207
198,14,0.5,0.25,35.0,1,1.0,0.36619999999993524
199,14,0.5,0.125,-35.0,-1,1.0,0.4050999999999476
200,14,0.5,1.0,-35.0,1,0.0,0.3328999999999951
201,14,0.5,0.0,35.0,-1,0.0,0.3129999999999882
202,14,0.5,0.25,35.0,-1,0.0,0.42839999999989686
203,14,0.5,0.0625,-35.0,1,0.0,0.3713000000000193
204,14,0.3,0.0625,35.0,-1,0.0,0.18719999999996162
205,14,0.5,1.0,-35.0,-1,1.0,2.1209989999999834
206,14,0.5,0.25,35.0,1,1.0,0.2844000000000051
207,14,0.5,1.0,-35.0,-1,1.0,0.3139000000001033
208,14,0.5,1.0,-35.0,-1,1.0,0.21019999999998618
209,14,0.5,0.0625,-35.0,-1,1.0,0.3693000000000666
210,14,0.5,0.25,-35.0,-1,1.0,0.3028999999999087
211,14,0.5,1.0,35.0,1,1.0,0.3210999999998876
212,14,0.5,0.25,-35.0,-1,1.0,0.09950000000003456
213,14,0.5,1.0,35.0,1,1.0,0.22029999999995198
214,14,0.5,1.0,35.0,1,1.0,0.5413999999999533
215,14,0.5,0.25,35.0,-1,0.0,0.09510000000011587
216,14,0.5,0.0625,35.0,-1,0.0,0.3391000000000304
217,14,0.5,0.0,-35.0,-1,1.0,0.9731000000000449
218,14,0.5,1.0,35.0,1,1.0,0.3003999999999678
219,14,0.5,1.0,-35.0,-1,1.0,0.371599999999944
220,14,0.5,1.0,35.0,1,1.0,0.3185999999999467
221,14,0.5,1.0,-35.0,-1,1.0,0.6825999999999794
222,14,0.5,1.0,-35.0,-1,1.0,0.5252000000000407
223,14,0.5,1.0,-35.0,-1,1.0,0.22110000000009222
224,14,0.5,1.0,-35.0,-1,1.0,0.3024000000000342
225,14,0.5,0.125,35.0,-1,0.0,0.08949999999992997
226,14,0.5,0.0,35.0,-1,0.0,0.46690000000000964
227,14,0.5,0.0625,-35.0,-1,1.0,0.47509999999999764
228,14,0.5,0.0625,35.0,-1,0.0,0.5873000000000275
229,14,0.5,0.25,35.0,1,1.0,0.5852999999999611
230,14,0.5,1.0,-35.0,-1,1.0,0.24239999999997508
231,14,0.5,0.0625,-35.0,-1,1.0,1.7192999999999756
232,14,0.5,0.0,35.0,-1,0.0,0.33009999999990214
233,14,0.5,0.25,35.0,-1,0.0,0.6671999999999798
234,14,0.5,0.0625,35.0,-1,0.0,0.10210000000006403
235,14,0.1,0.0625,35.0,-1,0.0,0.676900000000046
236,14,0.5,1.0,35.0,1,1.0,0.6191000000000031
237,14,0.5,0.125,-35.0,-1,1.0,3.6082999999999856
238,14,0.5,0.25,35.0,-1,0.0,0.5403000000001157
239,14,0.5,0.0625,-35.0,-1,1.0,0.4050999999999476
240,14,0.5,1.0,35.0,1,1.0,0.29509999999993397
241,14,0.5,0.0,-35.0,-1,1.0,0.06770000000005894
242,14,0.5,1.0,-35.0,-1,1.0,0.07449999999994361
243,14,0.5,0.0,35.0,-1,0.0,0.5787000000000262
244,14,0.5,0.125,35.0,1,1.0,0.2175999999999476
245,14,0.5,0.25,-35.0,-1,1.0,1.1931999999999334
246,14,0.5,0.0625,35.0,-1,0.0,0.6032000000000153
247,14,0.5,0.0625,-35.0,-1,1.0,1.9401999999998907
248,14,0.5,0.25,35.0,1,1.0,0.27709999999990487
249,14,0.5,0.0,-35.0,-1,1.0,0.7829000000000406
250,14,0.5,0.125,35.0,-1,0.0,0.1129999999999427
251,14,0.5,0.0625,-35.0,-1,1.0,0.44669999999996435
252,14,0.5,0.0625,35.0,-1,0.0,0.23059999999998126
253,14,0.5,0.125,35.0,-1,0.0,0.15589999999997417
254,14,0.5,0.125,35.0,1,1.0,0.22119999999995343
255,14,0.5,0.25,35.0,-1,0.0,0.24230000000000018
256,14,0.5,0.0625,-35.0,-1,1.0,0.33150000000000546
257,14,0.5,0.0625,-35.0,-1,1.0,0.49710000000004584
258,14,0.5,1.0,-35.0,-1,1.0,1.002999999999929
259,14,0.5,0.125,-35.0,-1,1.0,0.38479999999981374
260,14,0.5,1.0,35.0,1,1.0,0.4737000000002354
261,14,0.5,0.0,35.0,-1,0.0,2.069500000000062
262,14,0.5,0.0,35.0,-1,0.0,0.43820000000005166
263,14,0.5,0.0625,-35.0,-1,1.0,0.32749999999987267
264,14,0.5,0.0,35.0,1,1.0,5.722600000000057
265,14,0.5,0.125,-35.0,-1,1.0,0.32339999999999236
266,14,0.5,0.0,35.0,-1,0.0,0.4094000000000051
267,14,0.5,0.0,35.0,-1,0.0,0.5049999999998818
268,14,0.5,0.0625,35.0,-1,0.0,0.37409999999999854
269,14,0.5,0.0,35.0,-1,0.0,0.32300000000009277
270,14,0.5,0.0,-35.0,-1,1.0,0.4248999999999796
271,14,0.5,0.0625,-35.0,-1,1.0,0.0910999999998694
272,14,0.5,1.0,35.0,1,1.0,1.2933000000002721
273,14,0.5,0.125,35.0,1,1.0,0.8014999999998054
274,14,0.5,0.0625,-35.0,-1,1.0,0.47030000000017935
275,14,0.5,1.0,35.0,1,1.0,0.30970000000002074
276,14,0.5,0.0625,35.0,-1,0.0,0.05510000000003856
277,14,0.5,0.0625,35.0,-1,0.0,2.477700000000141
278,14,0.5,0.0625,35.0,-1,0.0,2.725300000000061
279,14,0.5,0.0625,-35.0,-1,1.0,1.5202999999999065
280,14,0.5,0.125,-35.0,-1,1.0,0.7128000000000156
281,14,0.5,0.0,-35.0,-1,1.0,0.48899999999980537
282,14,0.5,1.0,35.0,1,1.0,0.7212999999999283
283,14,0.5,1.0,-35.0,-1,1.0,0.6965999999999894
284,14,0.5,0.0625,-35.0,-1,1.0,0.03530000000000655
285,14,0.5,0.25,-35.0,1,0.0,0.2603999999998905
286,14,0.5,0.0,-35.0,-1,1.0,2.665899999999965
287,14,0.5,0.125,35.0,1,1.0,0.5144999999999982
288,14,0.5,0.0625,35.0,-1,0.0,0.7336000000002514
289,14,0.5,0.0625,35.0,-1,0.0,0.5892999999998665
290,14,0.5,0.25,-35.0,-1,1.0,1.8119999999998981
291,14,0.5,0.0625,-35.0,1,0.0,0.2158999999999196
292,14,0.5,0.125,-35.0,-1,1.0,3.62480000000005
293,14,0.5,0.25,35.0,-1,0.0,0.4962999999997919
294,14,0.5,0.25,35.0,-1,0.0,2.1719000000000506
295,14,0.5,0.125,-35.0,-1,1.0,0.983600000000024
296,14,0.5,0.125,35.0,-1,0.0,0.46509999999989304
297,14,0.5,0.125,-35.0,-1,1.0,0.40399999999999636
298,14,0.5,0.125,-35.0,-1,1.0,0.09269999999992251
299,14,0.5,0.25,35.0,-1,0.0,1.1419999999998254
300,14,0.1,0.25,35.0,-1,0.0,1.4575999999999567
301,14,0.5,1.0,-35.0,-1,1.0,0.779700000000048
302,14,0.5,0.125,-35.0,-1,1.0,0.32179999999993925
303,14,0.5,1.0,-35.0,-1,1.0,0.4178999999999178
304,14,0.5,0.25,-35.0,-1,1.0,0.5003000000001521
305,14,0.5,0.25,35.0,1,1.0,0.37179999999989377
306,14,0.5,0.0625,35.0,1,1.0,0.2840000000001055
307,14,0.5,0.0625,-35.0,-1,1.0,-0.003200000000106229
308,14,0.5,0.25,35.0,-1,0.0,0.5755000000001473
309,14,0.2,0.25,35.0,-1,0.0,0.6176000000000386
310,14,0.5,1.0,35.0,1,1.0,0.3231999999998152
311,14,0.5,0.25,-35.0,-1,1.0,0.3226999999999407
312,14,0.5,1.0,-35.0,-1,1.0,0.9447000000000116
313,14,0.5,0.125,35.0,-1,0.0,0.1369999999999436
314,14,0.3,0.125,35.0,1,1.0,0.4456000000000131
315,14,0.5,1.0,-35.0,-1,1.0,0.6971999999998388
316,14,0.5,0.0,35.0,-1,0.0,0.2660000000000764
317,14,0.2,0.0,35.0,-1,0.0,0.1515999999999167
318,14,0.5,1.0,35.0,-1,0.0,0.4905999999998585
319,14,0.2,1.0,-35.0,-1,1.0,0.7896999999998116
320,14,0.5,1.0,35.0,-1,0.0,0.1853000000000975
321,14,0.1,1.0,-35.0,-1,1.0,0.5609999999999218
322,14,0.5,1.0,35.0,1,1.0,0.5002999999999247
323,14,0.5,0.0625,35.0,1,1.0,0.2921999999998661
324,14,0.5,0.25,-35.0,-1,1.0,0.6784999999999854
325,14,0.5,0.0625,-35.0,-1,1.0,0.3000999999999294
326,14,0.5,1.0,-35.0,-1,1.0,1.276399999999967
327,14,0.5,0.25,35.0,-1,0.0,0.4481999999998152
328,14,0.2,0.25,35.0,1,1.0,0.734000000000151
329,14,0.5,1.0,35.0,1,1.0,0.47900000000004184
330,14,0.5,0.0,35.0,-1,0.0,3.9152999999998883
331,14,0.4,0.0,35.0,-1,0.0,1.052500000000009
332,14,0.5,1.0,35.0,1,1.0,0.3478000000002339
333,14,0.5,0.25,-35.0,1,0.0,0.6231000000000222
334,14,0.5,0.0625,-35.0,-1,1.0,0.5817999999999302
335,14,0.5,0.0,-35.0,-1,1.0,0.18090000000006512
336,14,0.5,0.125,-35.0,-1,1.0,0.43990000000007967
337,14,0.5,0.25,35.0,-1,0.0,0.37200000000007094
338,14,0.5,0.0625,-35.0,-1,1.0,2.0010999999999513
339,14,0.5,0.0625,35.0,1,1.0,0.7298000000000684
340,14,0.5,0.0625,35.0,1,1.0,0.8624999999999545
341,14,0.5,0.125,35.0,1,1.0,0.40610000000015134
342,14,0.5,0.0625,-35.0,-1,1.0,0.575099999999793
343,14,0.5,0.25,35.0,1,1.0,0.6006999999999607
344,14,0.5,0.125,35.0,-1,0.0,0.17659999999978027
345,14,0.4,0.125,35.0,-1,0.0,2.2689989999998943
346,14,0.5,1.0,35.0,1,1.0,0.5207000000002608
347,14,0.5,0.125,-35.0,-1,1.0,0.6623999999999342
348,14,0.5,0.0625,35.0,1,1.0,0.3248000000000957
349,14,0.5,0.0625,-35.0,-1,1.0,0.2942000000000462
350,14,0.5,0.25,35.0,-1,0.0,0.9163999999998396
351,14,0.4,0.25,35.0,1,1.0,0.49520000000006803
352,14,0.5,1.0,35.0,-1,0.0,0.19439999999985957
353,14,0.5,0.25,35.0,-1,0.0,4.443400000000111
354,14,0.5,0.0,-35.0,-1,1.0,4.6042999999999665
355,14,0.5,0.125,35.0,-1,0.0,0.5450000000000728
356,14,0.5,0.0625,35.0,-1,0.0,2.5139999999998963
357,14,0.2,0.0625,35.0,-1,0.0,1.9956999999999425
358,14,0.5,1.0,35.0,1,1.0,0.34039999999981774
359,14,0.5,1.0,35.0,1,1.0,0.30290000000013606
360,14,0.5,0.125,35.0,-1,0.0,0.7653999999999996
361,14,0.3,0.125,35.0,1,1.0,0.347700000000259
362,14,0.5,1.0,35.0,1,1.0,0.3001999999999043
363,14,0.5,1.0,-35.0,-1,1.0,0.36590000000001055
364,14,0.5,0.0,35.0,-1,0.0,0.384900000000016
365,14,0.5,0.125,-35.0,-1,1.0,1.5906000000002223
366,14,0.5,0.25,35.0,-1,0.0,0.2520999999999276
367,14,0.4,0.25,-35.0,-1,1.0,1.3912000000000262
368,14,0.5,1.0,35.0,1,1.0,0.6231000000000222
369,14,0.5,0.125,-35.0,-1,1.0,0.38560000000006767
370,14,0.5,0.0,-35.0,-1,1.0,0.09789999999998145
371,14,0.5,0.125,-35.0,-1,1.0,1.363399999999956
372,14,0.5,0.0,-35.0,-1,1.0,0.26870000000008076
373,14,0.5,1.0,-35.0,-1,1.0,0.39810000000011314
374,14,0.5,0.0,-35.0,-1,1.0,0.4431999999999334
375,14,0.5,1.0,-35.0,-1,1.0,4.658799999999928
376,14,0.5,1.0,35.0,1,1.0,0.2799999999999727
377,14,0.5,0.0,-35.0,-1,1.0,0.29609999999979664
378,14,0.5,0.0,35.0,-1,0.0,0.15189900000018497
379,14,0.1,0.0,-35.0,-1,1.0,1.2375999999999294
380,14,0.5,1.0,35.0,1,1.0,0.3696990000000824
381,14,0.5,1.0,35.0,1,1.0,0.2986999999998261
382,14,0.5,0.25,35.0,1,1.0,0.2513000000001284
383,14,0.5,0.0625,35.0,-1,0.0,1.303400000000238
384,14,0.5,0.25,35.0,-1,0.0,0.7688000000000557
385,14,0.5,0.125,-35.0,-1,1.0,1.6876999999999498
386,14,0.5,0.0,-35.0,-1,1.0,0.4460999999998876
387,14,0.5,0.125,-35.0,-1,1.0,0.3588000000002012
388,14,0.5,0.0625,35.0,-1,0.0,0.463799999999992
389,14,0.3,0.0625,35.0,-1,0.0,5.399499999999989
390,14,0.5,1.0,-35.0,-1,1.0,3.8035999999999603
391,14,0.5,0.0625,-35.0,-1,1.0,0.598299999999881
392,14,0.5,0.25,35.0,1,1.0,2.9366999999999734
393,14,0.5,1.0,-35.0,1,0.0,5.101000000000113
394,14,0.5,0.25,-35.0,1,0.0,2.8152000000002317
395,14,0.5,0.25,35.0,-1,0.0,0.7901000000001659
396,14,0.5,0.25,35.0,-1,0.0,2.9255000000000564
397,14,0.5,0.25,35.0,-1,0.0,12.380399999999781
398,14,0.5,0.125,-35.0,-1,1.0,7.855000000000018
399,14,0.5,0.0625,35.0,1,1.0,0.09519999999997708
400,14,0.5,1.0,35.0,1,1.0,0.1593000000000302
401,14,0.5,0.25,35.0,-1,0.0,2.1652999999998883
402,14,0.5,0.0,-35.0,-1,1.0,5.072600000000193
403,14,0.5,0.25,-35.0,-1,1.0,26.75350000000003
404,14,0.5,0.125,-35.0,-1,1.0,7.031300000000101
405,14,0.5,0.0,35.0,-1,0.0,6.721199999999953
406,14,0.2,0.0,35.0,-1,0.0,5.601400000000012
407,14,0.5,1.0,35.0,1,1.0,0.6788000000001375
408,14,0.5,0.0625,35.0,1,1.0,1.9711999999999534
409,14,0.5,0.125,-35.0,-1,1.0,5.6030000000000655
410,14,0.5,0.125,35.0,1,1.0,0.6605000000001837
411,14,0.5,0.0,35.0,1,1.0,4.232699999999795
412,14,0.5,1.0,-35.0,-1,1.0,1.4975000000001728
413,14,0.5,0.125,-35.0,-1,1.0,8.096199999999953
414,14,0.5,1.0,35.0,-1,0.0,5.479699999999866
415,14,0.5,0.25,-35.0,-1,1.0,4.626999999999953
416,14,0.5,1.0,-35.0,-1,1.0,0.8316999999999553
417,14,0.5,0.125,35.0,-1,0.0,6.583799999999883
418,14,0.5,0.25,-35.0,-1,1.0,20.32420000000002
419,14,0.5,0.0,35.0,1,1.0,1.617100000000164
420,14,0.5,1.0,-35.0,-1,1.0,0.7026999999998225
421,14,0.5,0.25,-35.0,1,0.0,2.1874000000002525
422,14,0.5,0.25,35.0,1,1.0,1.215800000000172
423,14,0.5,0.0,-35.0,1,0.0,32.97140000000013
424,14,0.5,0.25,-35.0,-1,1.0,10.213600000000042
425,14,0.5,0.125,35.0,1,1.0,0.6090999999998985
426,14,0.5,0.25,35.0,-1,0.0,0.6371999999998934
427,14,0.5,0.0625,35.0,-1,0.0,3.2427999999999884
428,14,0.5,0.25,35.0,-1,0.0,9.701000000000022
429,14,0.5,0.0,35.0,-1,0.0,6.240399999999909
430,14,0.5,0.125,35.0,1,1.0,0.4741999999998825
431,14,0.5,0.0625,35.0,-1,0.0,0.40639999999984866
432,14,0.5,0.25,35.0,-1,0.0,3.0253999999999905
433,14,0.5,0.0,35.0,-1,0.0,12.363399999999956
434,14,0.5,0.125,35.0,-1,0.0,24.818700000000035
435,14,0.5,0.125,-35.0,-1,1.0,32.60349999999994
436,14,0.5,0.0625,-35.0,1,0.0,1.1195000000000164
437,14,0.5,0.125,35.0,-1,0.0,2.58829999999989
1,15,0.5,0.0,35.0,1,1.0,1.7984999999999998
2,15,0.5,0.0625,-35.0,-1,1.0,0.5774999999999997
3,15,0.5,1.0,35.0,1,1.0,1.561300000000001
4,15,0.5,0.25,-35.0,-1,1.0,0.6131000000000029
5,15,0.5,0.25,-35.0,-1,1.0,15.3382
6,15,0.5,0.0625,-35.0,-1,1.0,0.9278000000000048
7,15,0.5,0.25,-35.0,1,0.0,3.0296999999999983
8,15,0.5,0.125,-35.0,1,0.0,13.218999999999994
9,15,0.5,0.0625,-35.0,-1,1.0,1.0969999999999942
10,15,0.5,0.0,35.0,1,1.0,8.746999999999986
11,15,0.5,0.0625,-35.0,-1,1.0,7.548099999999991
12,15,0.5,1.0,35.0,1,1.0,0.2804999999999893
13,15,0.5,0.125,35.0,1,1.0,2.639399999999995
14,15,0.5,1.0,-35.0,-1,1.0,2.4942999999999955
15,15,0.5,0.125,35.0,-1,0.0,0.47119999999998186
16,15,0.5,0.125,35.0,1,1.0,4.431499999999986
17,15,0.5,1.0,35.0,1,1.0,0.450800000000001
18,15,0.5,0.25,35.0,1,1.0,2.19019999999999
19,15,0.5,0.25,-35.0,-1,1.0,1.8363000000000085
20,15,0.5,0.125,35.0,-1,0.0,0.25420000000002574
21,15,0.5,0.0625,-35.0,-1,1.0,1.3603000000000236
22,15,0.5,0.25,35.0,1,1.0,0.24989999999999668
23,15,0.5,1.0,35.0,1,1.0,0.5500000000000398
24,15,0.5,1.0,35.0,1,1.0,0.7798999999999978
25,15,0.5,0.25,35.0,1,1.0,0.5629000000000133
26,15,0.5,0.0,-35.0,-1,1.0,0.36830000000000496
27,15,0.5,1.0,35.0,1,1.0,0.25020000000000664
28,15,0.5,0.0,35.0,-1,0.0,2.7641000000000133
29,15,0.5,0.0625,-35.0,-1,1.0,1.8373000000000275
30,15,0.5,0.125,35.0,1,1.0,0.28239999999999554
31,15,0.5,0.25,35.0,1,1.0,0.2289000000000101
32,15,0.5,0.0625,35.0,-1,0.0,1.8610999999999933
33,15,0.5,0.125,-35.0,1,0.0,5.827600000000018
34,15,0.5,0.0,35.0,-1,0.0,0.7057000000000073
35,15,0.5,0.0625,35.0,1,1.0,0.7275000000000205
36,15,0.5,0.125,35.0,1,1.0,0.5622000000000185
37,15,0.5,0.125,35.0,1,1.0,0.5260000000000105
38,15,0.5,0.125,-35.0,-1,1.0,0.2598000000000127
39,15,0.5,0.25,35.0,1,1.0,1.0193000000000154
40,15,0.5,0.125,-35.0,-1,1.0,4.435399999999987
41,15,0.5,0.0625,-35.0,-1,1.0,0.5903000000000134
42,15,0.5,0.125,35.0,1,1.0,0.3141999999999996
43,15,0.5,0.25,35.0,1,1.0,0.2388000000000261
44,15,0.5,1.0,35.0,-1,0.0,0.1307999999999936
45,15,0.5,0.0,-35.0,-1,1.0,0.470799999999997
46,15,0.5,0.25,-35.0,-1,1.0,0.492999999999995
47,15,0.5,0.125,-35.0,-1,1.0,0.11850000000004002
48,15,0.5,0.125,35.0,1,1.0,1.3964000000000283
49,15,0.5,0.125,35.0,1,1.0,0.29019999999997026
50,15,0.5,1.0,-35.0,-1,1.0,4.211999999999989
51,15,0.5,0.0625,-35.0,-1,1.0,0.6564000000000192
52,15,0.5,0.0,35.0,-1,0.0,0.6506999999999721
53,15,0.5,0.0,35.0,-1,0.0,0.9237999999999715
54,15,0.5,0.0625,-35.0,-1,1.0,0.4404999999999859
55,15,0.5,1.0,-35.0,-1,1.0,0.5095000000000027
56,15,0.5,0.25,35.0,1,1.0,0.481899999999996
57,15,0.5,0.0625,35.0,-1,0.0,0.2960999999999103
58,15,0.5,0.0625,-35.0,-1,1.0,-0.013000000000033651
59,15,0.5,0.25,-35.0,-1,1.0,1.455099999999959
60,15,0.5,0.0625,-35.0,-1,1.0,0.42789999999996553
61,15,0.5,0.0,-35.0,-1,1.0,4.178200000000004
62,15,0.5,0.0,-35.0,1,0.0,2.3852999999999724
63,15,0.5,0.25,35.0,1,1.0,0.4420000000000073
64,15,0.5,0.125,-35.0,-1,1.0,2.3145999999999844
65,15,0.5,0.0625,-35.0,-1,1.0,2.6451000000000136
66,15,0.5,0.25,35.0,1,1.0,0.26749999999992724
67,15,0.5,0.0625,-35.0,-1,1.0,2.420599999999979
68,15,0.5,1.0,35.0,1,1.0,0.4046999999999912
69,15,0.5,0.25,35.0,1,1.0,1.6200000000000045
70,15,0.5,1.0,35.0,1,1.0,1.1988999999999805
71,15,0.5,0.0625,35.0,-1,0.0,7.094800000000021
72,15,0.5,0.0,35.0,-1,0.0,0.49919999999997344
73,15,0.5,0.25,35.0,1,1.0,0.6149000000000342
74,15,0.5,0.0625,-35.0,-1,1.0,0.23849999999998772
75,15,0.5,0.25,-35.0,1,0.0,2.6293000000000006
76,15,0.5,0.0625,-35.0,1,0.0,0.17589999999995598
77,15,0.6,0.0625,35.0,-1,0.0,0.5205999999999449
78,15,0.5,1.0,35.0,-1,0.0,0.1331000000000131
79,15,0.5,0.25,35.0,1,1.0,0.376199999999983
80,15,0.5,0.125,-35.0,-1,1.0,1.9243999999999915
81,15,0.5,1.0,35.0,1,1.0,0.26659999999998263
82,15,0.5,0.25,-35.0,-1,1.0,0.4060000000000059
83,15,0.5,0.25,-35.0,1,0.0,0.3454999999999586
84,15,0.5,0.25,35.0,-1,0.0,0.45609999999993533
85,15,0.5,1.0,-35.0,-1,1.0,2.256399999999985
86,15,0.5,0.25,-35.0,-1,1.0,3.716099999999983
87,15,0.5,0.0,35.0,-1,0.0,0.4014999999999418
88,15,0.5,0.125,-35.0,-1,1.0,2.588999999999942
89,15,0.5,0.0625,-35.0,-1,1.0,0.2506999999999948
90,15,0.5,0.25,-35.0,-1,1.0,0.2638999999999214
91,15,0.5,0.0,-35.0,-1,1.0,4.339199999999948
92,15,0.5,1.0,-35.0,-1,1.0,2.542500000000018
93,15,0.5,0.125,35.0,-1,0.0,0.4580999999999449
94,15,0.5,0.25,-35.0,-1,1.0,1.3606000000000336
95,15,0.5,0.125,35.0,1,1.0,0.4915999999999485
96,15,0.5,0.125,35.0,1,1.0,0.6517999999999802
97,15,0.5,0.0625,35.0,-1,0.0,0.42639999999994416
98,15,0.2,0.0625,35.0,-1,0.0,0.23399999999998045
99,15,0.5,1.0,35.0,1,1.0,0.22349999999994452
100,15,0.5,1.0,35.0,1,1.0,0.8606999999999516
101,15,0.5,1.0,35.0,1,1.0,0.35650000000003956
102,15,0.5,1.0,-35.0,-1,1.0,4.479399999999998
103,15,0.5,0.25,-35.0,1,0.0,2.5663999999999874
104,15,0.6,0.25,35.0,-1,0.0,0.022299999999972897
105,15,0.5,1.0,-35.0,1,0.0,0.4352000000000089
106,15,0.6,1.0,-35.0,1,0.0,0.45889999999997144
107,15,0.6,1.0,35.0,-1,0.0,0.10910000000001219
108,15,0.6,1.0,-35.0,1,0.0,0.30970000000002074
109,15,0.7,1.0,-35.0,1,0.0,1.022199999999998
110,15,0.7,1.0,-35.0,1,0.0,0.41210000000000946
111,15,0.7,1.0,-35.0,1,0.0,0.3526000000000522
112,15,0.7,1.0,-35.0,1,0.0,0.407100000000014
113,15,0.8,1.0,-35.0,-1,1.0,0.3263999999999214
114,15,0.5,1.0,35.0,1,1.0,0.2718009999999822
115,15,0.5,1.0,35.0,1,1.0,0.2718009999999822
116,15,0.5,0.25,35.0,1,1.0,0.5479010000000244
117,15,0.5,0.25,35.0,1,1.0,0.31050100000004477
118,15,0.5,0.125,-35.0,-1,1.0,1.9903010000001586
119,15,0.5,0.25,35.0,1,1.0,0.9175010000000157
120,15,0.5,0.125,-35.0,1,0.0,0.43810100000007424
121,15,0.5,0.0625,35.0,1,1.0,0.3727010000000064
122,15,0.5,0.0,-35.0,1,0.0,4.353301000000101
123,15,0.5,0.25,-35.0,-1,1.0,4.821901000000025
124,15,0.5,0.125,-35.0,-1,1.0,3.0415010000000393
125,15,0.5,0.25,35.0,1,1.0,0.2495010000000093
126,15,0.5,0.125,35.0,-1,0.0,1.7138009999999895
127,15,0.5,0.25,-35.0,1,0.0,3.066201000000092
128,15,0.5,0.125,-35.0,1,0.0,0.3641010000000051
129,15,0.7,0.125,-35.0,1,0.0,0.22340100000008078
130,15,0.5,1.0,-35.0,-1,1.0,0.3604010000001381
131,15,0.5,1.0,-35.0,1,0.0,0.2150010000000293
132,15,0.5,0.125,-35.0,-1,1.0,3.4905009999999947
133,15,0.5,0.0625,35.0,1,1.0,0.3587009999999964
134,15,0.5,0.125,35.0,1,1.0,1.096700999999939
135,15,0.5,0.125,35.0,1,1.0,0.3362010000000737
136,15,0.5,0.125,-35.0,-1,1.0,0.4404010000000653
137,15,0.5,0.0625,35.0,-1,0.0,0.8485010000000557
138,15,0.6,0.0625,-35.0,-1,1.0,0.6764010000000553
139,15,0.5,1.0,-35.0,-1,1.0,0.6482010000000855
140,15,0.5,1.0,-35.0,-1,1.0,0.3762010000000373
141,15,0.5,0.0625,-35.0,-1,1.0,0.06560100000001512
142,15,0.5,0.25,-35.0,-1,1.0,0.09590100000002622
143,15,0.5,0.25,35.0,1,1.0,0.670900999999958
144,15,0.5,0.0,-35.0,-1,1.0,2.4364010000000462
145,15,0.5,0.0625,-35.0,-1,1.0,1.2813010000000986
146,15,0.5,0.125,-35.0,-1,1.0,4.510301000000027
147,15,0.5,0.125,35.0,-1,0.0,2.920101000000045
148,15,0.5,0.0,-35.0,-1,1.0,5.783300999999938
149,15,0.5,0.125,-35.0,-1,1.0,3.33840100000009
150,15,0.5,0.125,-35.0,-1,1.0,0.1062010000000555
151,15,0.5,0.25,-35.0,-1,1.0,1.5602010000000064
152,15,0.5,0.25,-35.0,1,0.0,3.189501000000064
153,15,0.5,0.0,-35.0,-1,1.0,0.36570100000005823
154,15,0.5,1.0,35.0,1,1.0,0.33900100000005295
155,15,0.5,0.0625,-35.0,1,0.0,0.797600999999986
156,15,0.5,0.125,-35.0,1,0.0,1.0665010000000166
157,15,0.5,0.0625,-35.0,-1,1.0,0.737901000000079
158,15,0.5,0.0625,-35.0,1,0.0,0.3074010000001408
159,15,0.5,0.125,-35.0,-1,1.0,0.49240100000008624
160,15,0.5,0.25,-35.0,-1,1.0,1.4061010000001488
161,15,0.5,0.0,35.0,-1,0.0,0.5598009999999931
162,15,0.5,0.125,-35.0,-1,1.0,0.31080099999996946
163,15,0.5,0.125,-35.0,-1,1.0,0.4572010000000546
164,15,0.5,0.0625,35.0,-1,0.0,0.35120100000006005
165,15,0.5,0.125,35.0,1,1.0,0.388101000000006
166,15,0.5,1.0,-35.0,-1,1.0,0.8055010000000493
167,15,0.5,0.0625,35.0,-1,0.0,4.70450100000005
168,15,0.5,0.0625,-35.0,-1,1.0,2.4920009999999593
169,15,0.5,0.25,-35.0,-1,1.0,0.297600999999986
170,15,0.5,1.0,-35.0,-1,1.0,3.817500999999993
171,15,0.5,0.125,-35.0,1,0.0,0.2520009999999502
172,15,0.2,0.125,35.0,1,1.0,0.423001000000113
173,15,0.5,1.0,35.0,1,1.0,0.3950009999999793
174,15,0.5,0.125,-35.0,-1,1.0,5.750301000000036
175,15,0.5,0.0,35.0,-1,0.0,1.3404010000000426
176,15,0.5,0.25,-35.0,1,0.0,0.952301000000034
177,15,0.4,0.25,35.0,1,1.0,1.2852010000000291
178,15,0.5,1.0,35.0,1,1.0,0.5235010000000102
179,15,0.5,0.0625,-35.0,-1,1.0,3.7098009999999704
180,15,0.5,0.25,35.0,1,1.0,0.5859010000000353
181,15,0.5,0.0,35.0,-1,0.0,7.443900999999983
182,15,0.5,0.25,-35.0,-1,1.0,0.28520099999991544
183,15,0.5,1.0,35.0,-1,0.0,0.08090099999992617
184,15,0.5,0.125,35.0,1,1.0,0.3748010000000477
185,15,0.5,1.0,-35.0,-1,1.0,0.2904009999999744
186,15,0.5,0.0625,-35.0,-1,1.0,1.3188010000000077
187,15,0.5,0.25,35.0,1,1.0,2.5245010000001002
188,15,0.5,0.125,-35.0,-1,1.0,2.3909009999999853
189,15,0.5,0.125,-35.0,-1,1.0,0.8056010000000242
190,15,0.5,1.0,-35.0,-1,1.0,2.712301000000025
191,15,0.5,0.25,-35.0,-1,1.0,0.32320000000004256
192,15,0.5,0.0625,35.0,-1,0.0,0.5571010000001024
193,15,0.2,0.0625,35.0,-1,0.0,0.19510100000013608
194,15,0.5,1.0,35.0,1,1.0,0.28680100000008224
195,15,0.5,0.25,-35.0,-1,1.0,2.7020009999999957
196,15,0.5,0.25,35.0,1,1.0,0.6934010000001081
197,15,0.5,0.0625,35.0,-1,0.0,3.462900999999988
198,15,0.5,0.125,35.0,1,1.0,0.11550100000010843
199,15,0.5,0.0625,-35.0,1,0.0,0.7126010000000633
200,15,0.5,0.0,35.0,-1,0.0,0.142601000000127
201,15,0.5,0.25,-35.0,-1,1.0,0.04550100000005841
202,15,0.5,0.0,-35.0,-1,1.0,1.2563010000001213
203,15,0.5,1.0,35.0,1,1.0,0.28050100000007205
204,15,0.5,0.125,-35.0,-1,1.0,0.4287010000000464
205,15,0.5,0.0,35.0,-1,0.0,5.2305010000001175
206,15,0.5,0.25,35.0,1,1.0,0.30050100000005386
207,15,0.5,0.125,-35.0,-1,1.0,0.34500100000013845
208,15,0.5,0.125,-35.0,-1,1.0,0.4290009999999711
209,15,0.5,0.25,-35.0,-1,1.0,0.4751010000001088
210,15,0.5,0.125,35.0,-1,0.0,0.22630099999992126
211,15,0.5,0.25,-35.0,1,0.0,0.3643009999999549
212,15,0.5,0.25,-35.0,-1,1.0,0.5410009999999374
213,15,0.5,0.0625,-35.0,-1,1.0,2.8707010000000537
214,15,0.5,1.0,-35.0,1,0.0,0.229300999999964
215,15,0.3,1.0,-35.0,-1,1.0,1.8545010000000275
216,15,0.5,1.0,-35.0,1,0.0,0.20120100000008279
217,15,0.5,0.25,-35.0,-1,1.0,1.6599009999999907
218,15,0.5,0.0,35.0,-1,0.0,0.3377010000000382
219,15,0.5,0.125,-35.0,-1,1.0,0.44970100000000457
220,15,0.5,0.0625,-35.0,-1,1.0,1.1910010000000284
221,15,0.5,0.0,-35.0,-1,1.0,0.5617010000000846
222,15,0.5,0.25,-35.0,-1,1.0,0.243001000000163
223,15,0.5,1.0,35.0,1,1.0,0.3179010000000062
224,15,0.5,0.25,-35.0,-1,1.0,0.5861009999999851
225,15,0.5,1.0,35.0,1,1.0,0.2617010000000164
226,15,0.5,0.0,-35.0,-1,1.0,1.9932009999999991
227,15,0.5,0.0625,-35.0,-1,1.0,0.8555010000000038
228,15,0.5,0.125,-35.0,-1,1.0,0.7210010000000011
229,15,0.5,1.0,35.0,1,1.0,0.2596010000000888
230,15,0.5,1.0,35.0,1,1.0,0.3059009999999489
231,15,0.5,0.25,-35.0,-1,1.0,2.526801000000205
232,15,0.5,1.0,35.0,1,1.0,0.45490099999983613
233,15,0.5,0.0625,35.0,1,1.0,0.6407009999998081
234,15,0.5,0.125,35.0,1,1.0,0.31920100000002094
235,15,0.5,0.0625,-35.0,-1,1.0,0.4054009999997561
236,15,0.5,0.125,-35.0,-1,1.0,0.7652009999999336
237,15,0.5,1.0,35.0,1,1.0,0.2535009999999147
238,15,0.5,0.125,35.0,-1,0.0,0.37350099999980557
239,15,0.5,0.0625,-35.0,1,0.0,0.5824009999998907
240,15,0.5,0.25,-35.0,1,0.0,0.5413009999997485
241,15,0.5,0.25,-35.0,-1,1.0,2.2095010000000457
242,15,0.5,1.0,-35.0,-1,1.0,0.3317010000000664
243,15,0.5,1.0,35.0,1,1.0,1.2243009999999686
244,15,0.5,1.0,-35.0,-1,1.0,2.99690099999998
245,15,0.5,0.0625,-35.0,1,0.0,1.6917009999999664
246,15,0.5,0.0625,-35.0,-1,1.0,0.8971010000000206
247,15,0.5,1.0,35.0,1,1.0,0.29470100000003185
248,15,0.5,1.0,-35.0,-1,1.0,0.1110009999997601
249,15,0.5,0.125,35.0,-1,0.0,0.7003010000000813
250,15,0.5,0.0,-35.0,-1,1.0,1.41920099999993
251,15,0.5,0.0625,-35.0,-1,1.0,0.7180009999999584
252,15,0.5,0.125,35.0,1,1.0,1.5471009999998842
253,15,0.5,0.25,-35.0,-1,1.0,2.7256009999998696
254,15,0.5,0.0625,-35.0,1,0.0,0.6142010000000937
255,15,0.5,0.0625,35.0,-1,0.0,2.1799009999999726
256,15,0.5,0.25,-35.0,1,0.0,4.355000999999902
257,15,0.5,0.125,-35.0,1,0.0,0.45590100000003986
258,15,0.5,0.0,35.0,-1,0.0,2.3950009999998656
259,15,0.5,0.0625,-35.0,-1,1.0,0.3101010000000315
260,15,0.5,0.125,35.0,-1,0.0,0.3129009999997834
261,15,0.5,0.0625,35.0,-1,0.0,0.5916010000000824
262,15,0.5,0.0625,-35.0,-1,1.0,0.18420100000003004
263,15,0.5,0.0625,-35.0,1,0.0,2.2656010000000606
264,15,0.5,0.0625,35.0,-1,0.0,3.4906009999997423
265,15,0.5,0.0625,-35.0,-1,1.0,1.8918009999999867
266,15,0.5,1.0,-35.0,-1,1.0,0.2842009999999391
267,15,0.5,0.125,-35.0,-1,1.0,7.346100999999862
268,15,0.5,0.0625,35.0,1,1.0,0.7365010000000893
269,15,0.5,0.125,-35.0,1,0.0,3.4512009999998554
270,15,0.5,0.25,-35.0,-1,1.0,2.7393010000000686
271,15,0.5,0.0625,35.0,1,1.0,0.42430099999978665
272,15,0.5,0.0625,-35.0,-1,1.0,9.213200999999799
273,15,0.5,0.0,35.0,-1,0.0,3.0862009999998463
274,15,0.5,0.125,35.0,-1,0.0,0.5310009999998329
275,15,0.3,0.125,-35.0,-1,1.0,0.5202009999998154
276,15,0.5,1.0,35.0,1,1.0,0.3228009999997994
277,15,0.5,0.0,35.0,1,1.0,0.7878009999999449
278,15,0.5,0.125,-35.0,1,0.0,4.011101000000053
279,15,0.5,0.0625,-35.0,1,0.0,1.8082010000000537
280,15,0.5,0.0625,35.0,1,1.0,4.810001000000057
281,15,0.5,0.125,35.0,1,1.0,0.45640099999991435
282,15,0.5,0.0625,35.0,-1,0.0,7.355700999999726
283,15,0.5,0.25,35.0,1,1.0,0.4593009999998685
284,15,0.5,1.0,35.0,1,1.0,0.2940009999999802
285,15,0.5,1.0,-35.0,1,0.0,5.809800999999879
286,15,0.5,0.25,-35.0,1,0.0,2.04400099999998
287,15,0.5,0.125,35.0,1,1.0,0.32540100000005623
288,15,0.5,0.125,-35.0,-1,1.0,5.67100100000016
289,15,0.5,0.125,-35.0,-1,1.0,0.3588009999996302
290,15,0.5,0.125,35.0,1,1.0,0.36770099999989725
291,15,0.5,0.0625,35.0,1,1.0,0.5701010000000224
292,15,0.5,0.25,35.0,1,1.0,0.33520100000009734
293,15,0.5,0.0625,35.0,1,1.0,0.6807999999998628
294,15,0.5,0.25,-35.0,-1,1.0,5.696401000000151
295,15,0.5,1.0,35.0,1,1.0,0.323900999999978
296,15,0.5,0.25,35.0,-1,0.0,1.7532009999997626
297,15,0.5,0.25,35.0,1,1.0,0.42170099999998456
298,15,0.5,0.25,35.0,1,1.0,0.7139009999998507
299,15,0.5,0.25,-35.0,-1,1.0,2.8031009999997423
300,15,0.5,0.125,35.0,-1,0.0,6.959700999999768
301,15,0.5,0.0625,-35.0,1,0.0,3.2454009999999016
302,15,0.6,0.0625,-35.0,-1,1.0,4.540001000000075
303,15,0.5,1.0,-35.0,1,0.0,2.6846009999999296
304,15,0.5,0.25,-35.0,1,0.0,7.483000999999831
305,15,0.5,0.25,-35.0,1,0.0,0.45280099999968115
306,15,0.5,0.0625,-35.0,-1,1.0,4.68850099999986
307,15,0.5,1.0,35.0,1,1.0,0.3628009999999904
308,15,0.5,0.125,-35.0,-1,1.0,0.9220009999999093
309,15,0.5,0.125,35.0,1,1.0,5.557300999999825
310,15,0.5,0.125,-35.0,1,0.0,4.161000999999715
311,15,0.5,0.125,35.0,1,1.0,7.3589009999998325
312,15,0.5,1.0,-35.0,1,0.0,9.43250100000023
313,15,0.5,0.0625,35.0,-1,0.0,32.72230099999979
314,15,0.5,0.25,-35.0,1,0.0,10.056900999999925
315,15,0.5,0.0,-35.0,-1,1.0,21.563000999999986
316,15,0.5,1.0,-35.0,1,0.0,0.8252009999998791
317,15,0.5,0.0625,-35.0,1,0.0,2.8646009999999933
318,15,0.5,0.125,-35.0,1,0.0,12.24260100000015
319,15,0.8,0.125,-35.0,1,0.0,52.53740099999982
320,15,0.5,1.0,-35.0,-1,1.0,19.883500999999796
321,15,0.5,0.25,35.0,1,1.0,9.152201000000105
322,15,0.5,0.25,35.0,-1,0.0,0.7655009999998583
323,15,0.5,0.0625,-35.0,-1,1.0,5.211001000000124
324,15,0.5,0.25,-35.0,-1,1.0,3.6384009999999307
325,15,0.5,1.0,-35.0,1,0.0,1.1599009999999907
326,15,0.5,0.25,35.0,1,1.0,0.4388010000000122
327,15,0.5,0.0625,-35.0,1,0.0,0.5511009999997896
328,15,0.5,0.125,-35.0,-1,1.0,4.863700999999992
329,15,0.5,0.0,-35.0,-1,1.0,7.4279009999997925
330,15,0.5,0.0625,-35.0,-1,1.0,5.037801000000172
331,15,0.5,0.0625,-35.0,-1,1.0,0.5126009999999042
332,15,0.5,0.125,35.0,1,1.0,0.3647009999997408
333,15,0.5,0.125,35.0,-1,0.0,0.064000999999962
334,15,0.5,0.125,35.0,1,1.0,0.3522009999999227
335,15,0.5,0.25,35.0,1,1.0,0.37170100000003004
336,15,0.5,0.125,-35.0,-1,1.0,0.8642009999998663
337,15,0.5,0.0625,-35.0,-1,1.0,3.8095009999999547
338,15,0.5,0.25,35.0,1,1.0,0.33090100000003986
339,15,0.5,1.0,35.0,1,1.0,0.3161009999998896
340,15,0.5,1.0,35.0,1,1.0,0.28870099999994636
341,15,0.5,1.0,-35.0,-1,1.0,0.6441009999998641
342,15,0.5,1.0,35.0,1,1.0,0.2958009999999831
343,15,0.5,0.25,-35.0,-1,1.0,0.5349009999997634
344,15,0.5,0.0625,35.0,-1,0.0,5.423900999999887
345,15,0.5,0.0625,35.0,-1,0.0,9.764400999999907
346,15,0.5,0.125,35.0,-1,0.0,0.9835009999999329
347,15,0.4,0.125,35.0,1,1.0,0.9023010000000795
348,15,0.5,1.0,35.0,1,1.0,0.8810009999999693
349,15,0.5,1.0,35.0,1,1.0,0.289400999999998
350,15,0.5,0.0,-35.0,-1,1.0,0.34860100000014427
351,15,0.5,0.0625,35.0,-1,0.0,1.427801000000045
352,15,0.4,0.0625,-35.0,-1,1.0,1.0100009999998747
353,15,0.5,1.0,-35.0,-1,1.0,0.7392009999998663
354,15,0.5,1.0,35.0,1,1.0,0.2880009999998947
355,15,0.5,0.0625,-35.0,-1,1.0,0.8330009999999675
356,15,0.5,0.0625,-35.0,-1,1.0,0.8754009999997834
357,15,0.5,0.0625,-35.0,-1,1.0,7.944400999999971
358,15,0.5,0.0625,35.0,1,1.0,0.2946009999998296
359,15,0.5,0.125,-35.0,-1,1.0,0.6369009999998525
360,15,0.5,1.0,35.0,1,1.0,0.4458009999998467
361,15,0.5,0.0625,-35.0,-1,1.0,0.5810009999997874
362,15,0.5,1.0,-35.0,-1,1.0,2.9767010000000482
363,15,0.5,0.25,35.0,1,1.0,0.2817009999998845
364,15,0.5,0.125,35.0,-1,0.0,0.3081009999998514
365,15,0.5,0.0625,-35.0,-1,1.0,0.7465009999998529
366,15,0.5,0.25,35.0,1,1.0,0.2657010000000355
367,15,0.5,0.0625,-35.0,-1,1.0,5.584800999999743
368,15,0.5,0.125,-35.0,-1,1.0,0.6104009999996833
369,15,0.5,0.25,35.0,-1,0.0,0.502800999999863
370,15,0.5,0.0625,-35.0,-1,1.0,3.6917009999999664
371,15,0.5,0.125,-35.0,-1,1.0,0.2966009999997823
372,15,0.5,0.0,35.0,-1,0.0,0.2092009999998936
373,15,0.5,0.125,35.0,1,1.0,0.6682009999999536
374,15,0.5,0.125,35.0,1,1.0,0.4569010000000162
375,15,0.5,0.0,35.0,1,1.0,1.1557009999999082
376,15,0.5,0.0625,-35.0,-1,1.0,0.9009009999999762
377,15,0.5,0.125,-35.0,-1,1.0,3.8463010000000395
378,15,0.5,0.125,35.0,1,1.0,0.8768009999998867
379,15,0.5,0.0625,35.0,-1,0.0,5.292700999999852
380,15,0.4,0.0625,35.0,-1,0.0,1.3168009999999413
381,15,0.5,1.0,-35.0,-1,1.0,12.608900999999832
382,15,0.5,0.125,-35.0,1,0.0,4.6338009999999485
383,15,0.5,0.125,35.0,1,1.0,4.011400999999978
384,15,0.5,0.25,-35.0,1,0.0,13.72540099999992
385,15,0.5,0.125,35.0,1,1.0,6.536900999999716
386,15,0.5,1.0,-35.0,-1,1.0,0.21410100000002785
387,15,0.5,1.0,-35.0,-1,1.0,1.0164010000000872
388,15,0.5,0.0625,-35.0,-1,1.0,6.808599999999842
389,15,0.5,0.25,-35.0,-1,1.0,3.9393009999998867
390,15,0.5,1.0,35.0,1,1.0,0.2972010000000864
391,15,0.5,1.0,-35.0,-1,1.0,11.749700999999732
392,15,0.5,0.0,35.0,-1,0.0,3.9586010000000442
393,15,0.5,0.125,35.0,1,1.0,1.9197009999998045
394,15,0.5,1.0,-35.0,-1,1.0,4.618501000000151
395,15,0.5,0.0,35.0,-1,0.0,3.1294010000001435
396,15,0.2,0.0,35.0,-1,0.0,5.167700999999852
397,15,0.5,1.0,-35.0,-1,1.0,8.87840099999994
398,15,0.5,0.25,-35.0,-1,1.0,4.83480099999997
399,15,0.5,1.0,-35.0,-1,1.0,0.645900999999867
400,15,0.5,0.0625,35.0,1,1.0,0.40840099999968515
401,15,0.5,0.0625,35.0,-1,0.0,4.337000999999418
402,15,0.5,0.125,-35.0,-1,1.0,7.968100999999933
403,15,0.5,0.0625,35.0,1,1.0,0.29830100000026505
404,15,0.5,0.0625,-35.0,-1,1.0,0.6105009999996582
405,15,0.5,1.0,35.0,1,1.0,0.31930099999999584
406,15,0.5,0.0,35.0,-1,0.0,0.5452009999994516
407,15,0.5,0.25,-35.0,-1,1.0,3.0575009999997746
408,15,0.5,0.125,-35.0,-1,1.0,3.242601000000377
409,15,0.5,1.0,-35.0,-1,1.0,0.3408009999998285
410,15,0.5,0.25,-35.0,-1,1.0,0.6258010000001377
411,15,0.5,0.125,-35.0,-1,1.0,0.5749009999999544
412,15,0.5,0.0625,35.0,1,1.0,0.7774010000002818
413,15,0.5,1.0,-35.0,-1,1.0,0.5629010000002381
414,15,0.5,1.0,35.0,-1,0.0,0.34550099999978556
415,15,0.5,0.125,-35.0,-1,1.0,2.7911009999997987
416,15,0.5,0.25,35.0,-1,0.0,0.6228009999999813
