trial_num,session_num,stim_probability_left,contrast,position,response_choice,trial_correct,reaction_time
1,1,0.5,0.0625,-35.0,-1,1.0,0.7822000000000002
2,1,0.5,1.0,-35.0,-1,1.0,0.1382999999999992
3,1,0.5,1.0,-35.0,-1,1.0,0.1747999999999994
4,1,0.5,0.0625,35.0,1,1.0,0.2251000000000012
5,1,0.5,0.0625,-35.0,-1,1.0,0.41410000000000124
6,1,0.5,0.0,-35.0,-1,1.0,0.16550000000000153
7,1,0.5,0.25,-35.0,-1,1.0,
8,1,0.5,0.125,35.0,1,1.0,
9,1,0.5,0.25,-35.0,-1,1.0,0.11630000000000251
10,1,0.5,1.0,35.0,1,1.0,0.16230000000000544
11,1,0.5,0.25,35.0,1,1.0,0.3272000000000048
12,1,0.5,0.0625,35.0,1,1.0,0.1518000000000015
13,1,0.5,0.25,-35.0,1,0.0,0.1367000000000047
14,1,0.5,0.0625,-35.0,-1,1.0,0.3108000000000004
15,1,0.5,0.125,35.0,-1,0.0,0.2657999999999987
16,1,0.5,0.0625,35.0,1,1.0,0.2698000000000036
17,1,0.5,0.125,35.0,1,1.0,0.15270000000000294
18,1,0.5,1.0,35.0,1,1.0,0.14880000000000848
19,1,0.5,0.125,35.0,1,1.0,0.3241999999999905
20,1,0.5,0.25,35.0,1,1.0,0.1688999999999936
21,1,0.5,1.0,-35.0,-1,1.0,0.16929999999999268
22,1,0.5,0.0,35.0,-1,0.0,0.23049999999999216
23,1,0.5,0.25,35.0,1,1.0,0.11959999999999127
24,1,0.5,0.125,-35.0,-1,1.0,0.18769999999999243
25,1,0.5,0.125,-35.0,-1,1.0,0.22809999999999775
26,1,0.5,0.0625,-35.0,-1,1.0,0.22419999999999618
27,1,0.5,0.0,-35.0,-1,1.0,0.4800999999999931
28,1,0.5,0.0,-35.0,-1,1.0,0.19289999999999452
29,1,0.5,0.25,35.0,-1,0.0,0.24719999999999231
30,1,0.5,0.25,-35.0,-1,1.0,0.20529999999999404
31,1,0.5,0.0,-35.0,-1,1.0,0.21759999999999025
32,1,0.5,0.25,-35.0,-1,1.0,0.21399999999999864
33,1,0.5,0.0625,-35.0,-1,1.0,0.13700000000000045
34,1,0.5,0.125,35.0,-1,0.0,0.5048999999999921
35,1,0.5,0.125,35.0,1,1.0,0.1950000000000074
36,1,0.5,0.0625,35.0,-1,0.0,0.0759000000000043
37,1,0.5,0.0625,35.0,-1,0.0,0.14769999999998618
38,1,0.5,0.125,35.0,1,1.0,0.25389999999998736
39,1,0.5,0.125,35.0,-1,0.0,3.2040000000000077
40,1,0.5,1.0,35.0,1,1.0,0.19499999999999318
41,1,0.5,0.0625,35.0,-1,0.0,0.19110000000000582
42,1,0.5,0.25,-35.0,-1,1.0,0.18000000000000682
43,1,0.5,0.125,-35.0,-1,1.0,0.30239999999997735
44,1,0.5,0.0625,-35.0,-1,1.0,0.22329999999999472
45,1,0.5,0.0,35.0,-1,0.0,0.22759999999999536
46,1,0.5,0.0625,35.0,1,1.0,0.25849999999999795
47,1,0.5,0.125,-35.0,-1,1.0,0.15819999999999368
48,1,0.5,0.125,35.0,-1,0.0,0.3259999999999934
49,1,0.5,1.0,35.0,1,1.0,0.24929999999997676
50,1,0.5,0.0625,-35.0,-1,1.0,0.20949999999999136
51,1,0.5,0.125,-35.0,-1,1.0,0.28119999999998413
52,1,0.5,0.0625,35.0,-1,0.0,0.2319999999999709
53,1,0.5,0.0625,-35.0,-1,1.0,0.23220000000000596
54,1,0.5,0.0,-35.0,-1,1.0,0.3557999999999879
55,1,0.5,0.0,35.0,-1,0.0,0.266399999999976
56,1,0.5,0.0,-35.0,-1,1.0,0.23759999999998627
57,1,0.5,0.0625,-35.0,-1,1.0,0.2231999999999914
58,1,0.5,0.125,-35.0,-1,1.0,0.16259999999999764
59,1,0.5,0.0625,35.0,-1,0.0,0.2569000000000017
60,1,0.5,0.125,35.0,1,1.0,0.21739999999999782
61,1,0.5,0.0,35.0,-1,0.0,0.2978999999999985
62,1,0.5,0.125,35.0,1,1.0,0.5449999999999875
63,1,0.5,0.0,35.0,-1,0.0,0.21250000000000568
64,1,0.5,0.125,-35.0,-1,1.0,0.22299999999998477
65,1,0.5,0.0625,35.0,-1,0.0,5.341800000000006
66,1,0.5,0.125,35.0,1,1.0,0.2961999999999989
67,1,0.5,1.0,-35.0,-1,1.0,0.18509999999997717
68,1,0.5,0.125,35.0,1,1.0,0.31389999999998963
69,1,0.5,0.0,-35.0,-1,1.0,0.3124999999999716
70,1,0.5,0.0625,35.0,-1,0.0,0.1939999999999884
71,1,0.5,1.0,35.0,1,1.0,0.18610000000001037
72,1,0.5,1.0,35.0,1,1.0,0.23819999999997776
73,1,0.5,0.0,-35.0,-1,1.0,0.23859999999999104
74,1,0.5,0.125,35.0,1,1.0,0.5051999999999737
75,1,0.5,0.125,35.0,1,1.0,4.224799999999988
76,1,0.5,0.0625,-35.0,-1,1.0,0.34559999999999036
77,1,0.5,0.0,35.0,-1,0.0,0.23569999999998004
78,1,0.5,1.0,-35.0,-1,1.0,0.20799999999997
79,1,0.5,0.0625,-35.0,-1,1.0,0.09960000000000946
80,1,0.5,0.125,-35.0,-1,1.0,0.242999999999995
81,1,0.5,0.125,35.0,-1,0.0,0.19110000000000582
82,1,0.5,0.0625,-35.0,-1,1.0,0.22649999999998727
83,1,0.5,0.0625,35.0,-1,0.0,0.36480000000000246
84,1,0.5,0.125,35.0,1,1.0,0.2208999999999719
85,1,0.5,1.0,-35.0,-1,1.0,0.18019999999995662
86,1,0.5,0.0,-35.0,-1,1.0,0.2798999999999978
87,1,0.5,0.125,35.0,-1,0.0,0.4304000000000201
88,1,0.5,1.0,-35.0,-1,1.0,0.18830000000002656
89,1,0.5,0.0625,35.0,-1,0.0,0.22100000000000364
90,1,0.5,1.0,35.0,1,1.0,0.21839999999997417
91,1,0.2,0.25,-35.0,-1,1.0,0.18079999999997654
92,1,0.2,0.0625,-35.0,-1,1.0,0.199799999999982
93,1,0.2,0.125,35.0,-1,0.0,0.3879000000000019
94,1,0.2,0.0625,-35.0,-1,1.0,0.2278999999999769
95,1,0.2,1.0,35.0,1,1.0,0.5828000000000202
96,1,0.2,1.0,35.0,1,1.0,0.2489999999999668
97,1,0.2,0.25,-35.0,-1,1.0,0.21870000000001255
98,1,0.2,0.0,35.0,-1,0.0,0.2067000000000121
99,1,0.2,0.0625,35.0,-1,0.0,0.362199999999973
100,1,0.2,0.0625,35.0,1,1.0,0.4211999999999989
101,1,0.2,1.0,35.0,1,1.0,3.89530000000002
102,1,0.2,0.25,-35.0,-1,1.0,0.22230000000001837
103,1,0.2,0.125,35.0,-1,0.0,0.858600000000024
104,1,0.2,0.25,35.0,1,1.0,0.31009999999997717
105,1,0.2,0.0625,35.0,-1,0.0,0.4220999999999435
106,1,0.2,0.0,35.0,-1,0.0,0.22249999999996817
107,1,0.2,0.125,35.0,1,1.0,0.23550000000000182
108,1,0.2,0.125,35.0,1,1.0,0.30279999999999063
109,1,0.2,0.125,-35.0,-1,1.0,0.22759999999999536
110,1,0.2,0.0625,35.0,-1,0.0,0.5815000000000055
111,1,0.2,1.0,35.0,1,1.0,0.25130000000001473
112,1,0.2,0.25,35.0,1,1.0,0.2349999999999568
113,1,0.2,0.0625,-35.0,-1,1.0,0.188699999999983
114,1,0.2,0.0625,35.0,-1,0.0,0.3177000000000021
115,1,0.2,0.125,35.0,1,1.0,0.3124000000000251
116,1,0.2,0.25,35.0,1,1.0,0.484800000000007
117,1,0.2,0.0625,35.0,1,1.0,0.16720000000003665
118,1,0.2,1.0,35.0,1,1.0,0.1864999999999668
119,1,0.2,0.25,35.0,1,1.0,0.0805000000000291
120,1,0.2,0.125,35.0,1,1.0,0.26000000000004775
121,1,0.2,0.25,35.0,1,1.0,0.23529999999999518
122,1,0.2,0.0,35.0,1,1.0,0.23559999999997672
123,1,0.2,0.25,35.0,1,1.0,0.12469999999996162
124,1,0.2,0.0,35.0,1,1.0,0.20369999999996935
125,1,0.2,0.0625,-35.0,1,0.0,0.18020000000001346
126,1,0.2,0.25,35.0,1,1.0,0.20249999999998636
127,1,0.2,1.0,35.0,1,1.0,0.20690000000001874
128,1,0.2,1.0,35.0,1,1.0,0.20690000000001874
129,1,0.2,0.25,-35.0,-1,1.0,0.244199999999978
130,1,0.2,0.125,35.0,1,1.0,0.45429999999998927
131,1,0.2,0.0625,35.0,-1,0.0,0.38619999999991705
132,1,0.2,0.25,35.0,1,1.0,0.194500000000005
133,1,0.2,1.0,35.0,1,1.0,0.2777999999999565
134,1,0.2,0.25,35.0,1,1.0,0.6382999999999583
135,1,0.2,0.0,35.0,-1,0.0,0.34590000000002874
136,1,0.2,1.0,35.0,1,1.0,0.1775000000000091
137,1,0.2,0.125,35.0,1,1.0,0.26710000000002765
138,1,0.2,0.0625,35.0,-1,0.0,0.46550000000002
139,1,0.2,0.0625,35.0,1,1.0,1.0731000000000108
140,1,0.8,0.0,35.0,-1,0.0,0.39850000000001273
141,1,0.8,0.125,-35.0,-1,1.0,0.2545000000000073
142,1,0.8,1.0,-35.0,-1,1.0,0.17699999999996407
143,1,0.8,0.25,35.0,1,1.0,0.4730000000000132
144,1,0.8,0.0,-35.0,-1,1.0,0.38630000000000564
145,1,0.8,0.25,-35.0,-1,1.0,0.13650000000001228
146,1,0.8,0.25,35.0,1,1.0,0.38810000000000855
147,1,0.8,0.125,-35.0,-1,1.0,0.281599999999969
148,1,0.8,0.25,35.0,1,1.0,0.30810000000002447
149,1,0.8,0.25,-35.0,-1,1.0,0.18380000000001928
150,1,0.8,0.0,-35.0,-1,1.0,0.42490000000003647
151,1,0.8,1.0,-35.0,-1,1.0,0.1811999999999898
152,1,0.8,1.0,-35.0,-1,1.0,0.17959999999999354
153,1,0.8,0.125,-35.0,-1,1.0,0.33099999999996044
154,1,0.8,0.0625,-35.0,-1,1.0,0.2896999999999821
155,1,0.8,0.0625,-35.0,-1,1.0,0.27630000000004884
156,1,0.8,0.0,-35.0,-1,1.0,0.18659999999999854
157,1,0.8,1.0,-35.0,-1,1.0,0.18599999999997863
158,1,0.8,1.0,-35.0,-1,1.0,0.19900000000001228
159,1,0.8,0.0,-35.0,-1,1.0,0.2606999999999857
160,1,0.8,0.0,-35.0,-1,1.0,0.29129999999997835
161,1,0.8,1.0,-35.0,-1,1.0,0.16370000000000573
162,1,0.8,1.0,35.0,1,1.0,0.19700000000000273
163,1,0.8,0.25,-35.0,-1,1.0,0.2074999999999818
164,1,0.8,0.125,35.0,-1,0.0,0.1785000000000423
165,1,0.8,0.25,35.0,1,1.0,0.1964999999999577
166,1,0.8,1.0,-35.0,-1,1.0,0.17479999999989104
167,1,0.8,1.0,-35.0,-1,1.0,0.21120000000007622
168,1,0.8,0.25,-35.0,-1,1.0,0.20669999999995525
169,1,0.8,1.0,-35.0,-1,1.0,0.1856000000000222
170,1,0.8,0.0,-35.0,-1,1.0,0.3388999999999669
171,1,0.8,0.25,-35.0,-1,1.0,0.24959999999987303
172,1,0.8,0.0,-35.0,-1,1.0,0.2725000000000364
173,1,0.8,0.0,-35.0,-1,1.0,0.3406999999999698
174,1,0.8,0.0,-35.0,-1,1.0,0.1830000000001064
175,1,0.8,1.0,-35.0,-1,1.0,0.1794000000001006
176,1,0.8,0.0,-35.0,-1,1.0,0.3897999999999229
177,1,0.8,0.25,-35.0,-1,1.0,0.1915000000000191
178,1,0.8,0.125,-35.0,-1,1.0,0.25309999999990396
179,1,0.8,0.125,-35.0,-1,1.0,0.16579999999999018
180,1,0.8,1.0,35.0,1,1.0,0.23429999999996198
181,1,0.8,0.0625,-35.0,-1,1.0,0.19679999999993925
182,1,0.8,0.0625,-35.0,-1,1.0,0.2867999999999711
183,1,0.8,0.0625,-35.0,-1,1.0,0.19799999999997908
184,1,0.8,0.0625,35.0,-1,0.0,0.2075999999999567
185,1,0.8,0.125,-35.0,-1,1.0,0.18199999999990268
186,1,0.8,0.25,-35.0,-1,1.0,0.20839999999986958
187,1,0.8,0.125,-35.0,-1,1.0,0.19230000000004566
188,1,0.8,1.0,-35.0,-1,1.0,0.2217000000000553
189,1,0.8,0.125,35.0,-1,0.0,0.1530999999999949
190,1,0.8,0.0625,-35.0,1,0.0,0.2136999999999034
191,1,0.8,0.125,-35.0,-1,1.0,0.2943000000000211
192,1,0.8,0.0625,-35.0,-1,1.0,0.17419999999992797
193,1,0.8,0.125,-35.0,-1,1.0,0.2154000000000451
194,1,0.8,1.0,-35.0,-1,1.0,0.14819999999997435
195,1,0.8,0.0625,-35.0,-1,1.0,0.22329999999999472
196,1,0.8,0.125,-35.0,-1,1.0,0.25959999999986394
197,1,0.8,0.25,35.0,-1,0.0,0.38209999999992306
198,1,0.8,0.0625,-35.0,1,0.0,0.27729999999996835
199,1,0.8,0.25,-35.0,-1,1.0,0.21500000000003183
200,1,0.8,0.0625,-35.0,-1,1.0,0.2884000000000242
201,1,0.8,0.0,-35.0,-1,1.0,0.2800000000000864
202,1,0.8,0.25,-35.0,-1,1.0,0.300200000000018
203,1,0.8,1.0,35.0,1,1.0,0.26119999999991705
204,1,0.8,1.0,-35.0,-1,1.0,0.20309999999994943
205,1,0.2,0.0625,35.0,1,1.0,0.46630000000004657
206,1,0.2,0.0625,35.0,-1,0.0,0.34569999999996526
207,1,0.2,0.125,35.0,1,1.0,0.4438000000000102
208,1,0.2,1.0,-35.0,-1,1.0,0.18209999999999127
209,1,0.2,0.25,35.0,-1,0.0,3.7349000000000387
210,1,0.2,0.25,35.0,-1,0.0,0.42799999999999727
211,1,0.2,1.0,-35.0,-1,1.0,0.27089999999998327
212,1,0.2,0.25,35.0,1,1.0,0.29759999999998854
213,1,0.2,1.0,-35.0,-1,1.0,0.2155999999999949
214,1,0.2,1.0,35.0,1,1.0,0.21860000000003765
215,1,0.2,1.0,35.0,1,1.0,0.23849999999993088
216,1,0.2,0.125,35.0,-1,0.0,0.19809999999995398
217,1,0.2,0.0625,35.0,1,1.0,0.2680000000000291
218,1,0.2,0.25,35.0,-1,0.0,0.4494000000000824
219,1,0.2,0.0,35.0,1,1.0,0.11580000000003565
220,1,0.2,1.0,-35.0,-1,1.0,0.2882999999999356
221,1,0.2,0.125,-35.0,-1,1.0,0.32799999999997453
222,1,0.2,0.25,35.0,1,1.0,0.2738999999999123
223,1,0.2,0.0,35.0,-1,0.0,0.4169000000000551
224,1,0.2,0.25,35.0,1,1.0,0.21490000000005693
225,1,0.2,0.25,35.0,1,1.0,0.21050000000002456
226,1,0.2,0.25,35.0,1,1.0,0.14779999999996107
227,1,0.2,0.25,35.0,1,1.0,0.10329999999987649
228,1,0.2,0.125,35.0,1,1.0,0.399599999999964
229,1,0.2,0.125,35.0,1,1.0,0.2038000000000011
230,1,0.8,0.0625,35.0,-1,0.0,0.8346000000000231
231,1,0.8,0.0625,-35.0,1,0.0,3.8006000000000313
232,1,0.8,0.0625,-35.0,1,0.0,0.16899999999998272
233,1,0.8,1.0,-35.0,-1,1.0,0.2117999999999256
234,1,0.8,0.0625,-35.0,-1,1.0,0.6870999999999867
235,1,0.8,0.125,-35.0,-1,1.0,0.7220000000000937
236,1,0.8,1.0,-35.0,-1,1.0,0.21630000000004657
237,1,0.8,0.25,-35.0,-1,1.0,0.20050000000003365
238,1,0.8,0.25,-35.0,-1,1.0,0.22109999999997854
239,1,0.8,1.0,-35.0,-1,1.0,0.20489999999995234
240,1,0.8,1.0,-35.0,-1,1.0,0.22899999999992815
241,1,0.8,0.125,-35.0,-1,1.0,0.38570000000004256
242,1,0.8,0.125,35.0,-1,0.0,0.32539999999994507
243,1,0.8,0.25,-35.0,-1,1.0,0.2115999999999758
244,1,0.8,1.0,-35.0,-1,1.0,0.17269999999996344
245,1,0.8,1.0,-35.0,-1,1.0,0.24030000000004748
246,1,0.8,0.125,-35.0,-1,1.0,0.211400000000026
247,1,0.8,0.0,-35.0,-1,1.0,0.3971999999998843
248,1,0.8,0.0,-35.0,-1,1.0,0.4434999999999718
249,1,0.8,1.0,-35.0,-1,1.0,0.1937999999998965
250,1,0.8,0.0625,-35.0,-1,1.0,0.625699999999938
251,1,0.8,1.0,35.0,1,1.0,0.38440000000002783
252,1,0.8,0.125,-35.0,-1,1.0,0.24630000000001928
253,1,0.8,0.0625,-35.0,-1,1.0,0.5131999999999834
254,1,0.8,0.0625,-35.0,-1,1.0,0.18849999999997635
255,1,0.2,1.0,-35.0,-1,1.0,0.19460000000003674
256,1,0.2,0.0,35.0,-1,0.0,1.5930000000000746
257,1,0.2,1.0,-35.0,-1,1.0,0.05089999999995598
258,1,0.2,1.0,35.0,1,1.0,0.2984000000000151
259,1,0.2,1.0,-35.0,-1,1.0,0.1855000000000473
260,1,0.2,0.0625,-35.0,-1,1.0,0.19910000000004402
261,1,0.2,0.125,35.0,-1,0.0,0.1853000000000975
262,1,0.2,0.25,35.0,1,1.0,0.3424999999999727
263,1,0.2,0.125,35.0,1,1.0,0.2682999999999538
264,1,0.2,1.0,35.0,1,1.0,0.23869999999999436
265,1,0.2,0.0625,-35.0,-1,1.0,0.33339999999998327
266,1,0.2,1.0,-35.0,-1,1.0,0.19220000000007076
267,1,0.2,0.0625,35.0,-1,0.0,0.5070999999999231
268,1,0.2,0.125,-35.0,-1,1.0,0.2520999999999276
269,1,0.2,0.0625,35.0,-1,0.0,0.3201999999999998
270,1,0.2,1.0,35.0,1,1.0,0.19700000000000273
271,1,0.2,0.25,-35.0,-1,1.0,0.22820000000001528
272,1,0.2,0.0625,35.0,-1,0.0,0.42629999999985557
273,1,0.2,1.0,35.0,1,1.0,0.3143000000000029
274,1,0.2,0.25,35.0,1,1.0,0.29959999999994125
275,1,0.2,1.0,35.0,1,1.0,0.19539999999994961
276,1,0.2,0.125,35.0,1,1.0,3.722499999999968
277,1,0.2,1.0,35.0,1,1.0,0.2681999999999789
278,1,0.2,0.0625,35.0,1,1.0,0.22900000000004184
279,1,0.2,1.0,35.0,1,1.0,0.21459999999990487
280,1,0.2,0.125,-35.0,-1,1.0,0.2115000000000009
281,1,0.2,0.125,-35.0,-1,1.0,0.27940000000000964
282,1,0.2,0.0625,35.0,-1,0.0,0.17349999999999
283,1,0.2,0.125,35.0,1,1.0,0.7479000000000724
284,1,0.2,0.0625,35.0,-1,0.0,0.545400000000086
285,1,0.2,0.25,35.0,1,1.0,0.453899999999976
286,1,0.2,0.25,35.0,1,1.0,0.16950000000008458
287,1,0.2,0.0625,35.0,1,1.0,0.2278999999999769
288,1,0.2,0.25,35.0,1,1.0,0.2362999999999147
289,1,0.2,1.0,-35.0,-1,1.0,0.23349999999993543
290,1,0.2,0.0,35.0,1,1.0,0.31370000000003984
291,1,0.2,0.125,35.0,1,1.0,0.22490000000004784
292,1,0.2,0.25,35.0,1,1.0,0.06069999999999709
293,1,0.2,0.0625,35.0,-1,0.0,0.3747999999999365
294,1,0.2,0.25,35.0,1,1.0,0.306699999999978
295,1,0.2,0.0625,35.0,1,1.0,0.1993999999999687
296,1,0.2,0.125,35.0,1,1.0,0.2620000000000573
297,1,0.2,0.125,35.0,1,1.0,0.19849999999996726
298,1,0.8,0.25,-35.0,-1,1.0,0.9518000000000484
299,1,0.8,0.125,-35.0,-1,1.0,0.5615999999999985
300,1,0.8,1.0,35.0,1,1.0,0.15790000000004056
301,1,0.8,0.125,-35.0,-1,1.0,0.3772000000000162
302,1,0.8,1.0,-35.0,-1,1.0,0.17859999999996035
303,1,0.8,0.0,-35.0,-1,1.0,0.5427999999999429
304,1,0.8,1.0,35.0,1,1.0,0.18760000000008858
305,1,0.8,0.25,35.0,-1,0.0,0.5272999999999683
306,1,0.8,1.0,-35.0,-1,1.0,0.20039999999994507
307,1,0.8,0.25,-35.0,-1,1.0,0.22919999999987795
308,1,0.8,0.25,-35.0,-1,1.0,0.19010000000002947
309,1,0.8,0.0,35.0,-1,0.0,0.6861000000000104
310,1,0.8,1.0,-35.0,-1,1.0,0.1815000000000282
311,1,0.8,0.25,35.0,-1,0.0,0.4254999999999427
312,1,0.8,1.0,-35.0,-1,1.0,0.2500999999999749
313,1,0.8,0.0,-35.0,-1,1.0,0.3898999999998978
314,1,0.8,0.0625,-35.0,-1,1.0,0.21289999999987685
315,1,0.8,0.0625,-35.0,-1,1.0,0.33740000000000236
316,1,0.8,0.125,-35.0,-1,1.0,0.3623999999999796
317,1,0.8,0.125,-35.0,-1,1.0,0.2478999999999587
318,1,0.8,0.125,35.0,-1,0.0,0.3974000000000615
319,1,0.8,0.0625,-35.0,-1,1.0,0.2819999999999254
320,1,0.8,0.25,-35.0,-1,1.0,0.20400000000006457
321,1,0.8,1.0,35.0,1,1.0,0.3143000000000029
322,1,0.8,1.0,-35.0,-1,1.0,0.1110999999999649
323,1,0.2,0.125,35.0,-1,0.0,0.5309999999999491
324,1,0.2,0.125,35.0,-1,0.0,0.3511000000000877
325,1,0.2,0.0625,35.0,1,1.0,0.49100000000009913
326,1,0.2,0.125,35.0,-1,0.0,0.3146000000000413
327,1,0.2,1.0,35.0,1,1.0,0.2278999999998632
328,1,0.2,1.0,35.0,1,1.0,0.26450000000022555
329,1,0.2,0.0625,35.0,-1,0.0,0.4711000000002059
330,1,0.2,1.0,35.0,1,1.0,0.2013000000001739
331,1,0.2,1.0,35.0,1,1.0,0.41770000000019536
332,1,0.2,0.0625,35.0,-1,0.0,0.21780000000035216
333,1,0.2,0.0625,-35.0,1,0.0,0.18110000000001492
334,1,0.2,0.125,35.0,1,1.0,0.2378000000001066
335,1,0.2,1.0,35.0,1,1.0,0.25500000000010914
336,1,0.2,1.0,35.0,1,1.0,0.2515000000000782
337,1,0.2,0.125,35.0,1,1.0,0.23129999999991924
338,1,0.2,0.0,35.0,-1,0.0,0.405100000000175
339,1,0.2,0.125,35.0,1,1.0,0.16860000000019681
340,1,0.2,1.0,35.0,1,1.0,0.291700000000219
341,1,0.2,0.125,35.0,-1,0.0,0.28500000000008185
342,1,0.2,0.25,-35.0,-1,1.0,0.17170000000010077
343,1,0.2,0.125,35.0,-1,0.0,0.1485000000002401
344,1,0.2,0.0,35.0,-1,0.0,0.2154000000000451
345,1,0.2,0.0625,35.0,-1,0.0,0.3019000000001597
346,1,0.2,1.0,35.0,1,1.0,0.20580000000018117
347,1,0.2,0.0,35.0,-1,0.0,0.23530000000005202
348,1,0.2,0.125,35.0,-1,0.0,0.21199999999998909
349,1,0.2,0.25,35.0,1,1.0,0.37590000000000146
350,1,0.2,0.0625,35.0,1,1.0,16.32900000000018
351,1,0.2,0.0,35.0,1,1.0,0.2155999999999949
352,1,0.2,1.0,-35.0,-1,1.0,0.19590000000016516
353,1,0.2,0.0,-35.0,1,0.0,0.2559000000001106
354,1,0.2,0.0625,35.0,1,1.0,0.23919999999998254
355,1,0.2,1.0,35.0,1,1.0,0.19249999999988177
356,1,0.2,0.0625,35.0,-1,0.0,0.3790000000001328
357,1,0.2,1.0,35.0,1,1.0,0.2559000000001106
358,1,0.2,0.0,35.0,-1,0.0,0.24610000000006949
359,1,0.2,0.0,35.0,-1,0.0,0.28280000000017935
360,1,0.2,0.0625,35.0,1,1.0,0.27930000000014843
361,1,0.2,0.0625,35.0,1,1.0,0.22290000000020882
362,1,0.2,0.125,-35.0,1,0.0,0.13279999999986103
363,1,0.2,0.25,35.0,1,1.0,0.2295000000001437
364,1,0.2,0.0,-35.0,1,0.0,0.23300000000017462
365,1,0.2,0.0625,35.0,-1,0.0,0.6594000000002325
366,1,0.2,0.25,35.0,1,1.0,0.3265000000001237
367,1,0.2,0.0625,35.0,-1,0.0,19.316100000000006
368,1,0.2,0.125,35.0,1,1.0,0.17340000000012878
369,1,0.2,0.25,-35.0,-1,1.0,0.1934000000001106
370,1,0.2,1.0,35.0,1,1.0,0.6032999999999902
371,1,0.2,1.0,-35.0,-1,1.0,0.14020000000004984
372,1,0.2,0.25,-35.0,-1,1.0,0.21019999999998618
373,1,0.2,0.25,35.0,-1,0.0,1.42020000000025
374,1,0.2,0.125,35.0,1,1.0,0.273600000000215
375,1,0.2,0.0625,35.0,1,1.0,0.29690000000005057
376,1,0.2,1.0,-35.0,-1,1.0,0.18400000000019645
377,1,0.2,0.0,35.0,1,1.0,0.20029999999997017
378,1,0.2,0.25,35.0,1,1.0,0.1872000000000753
379,1,0.2,0.125,35.0,1,1.0,0.21700000000009823
380,1,0.2,0.125,35.0,-1,0.0,0.49670000000014625
381,1,0.2,0.25,35.0,1,1.0,0.18050000000016553
382,1,0.2,0.125,35.0,1,1.0,0.2636999999999716
383,1,0.2,0.125,35.0,1,1.0,0.1507000000001426
384,1,0.2,0.0625,35.0,-1,0.0,0.35360000000014224
385,1,0.2,0.125,35.0,1,1.0,0.20060000000012224
386,1,0.2,1.0,35.0,1,1.0,0.18400000000019645
387,1,0.2,0.25,35.0,1,1.0,0.23050000000012005
388,1,0.2,0.0625,35.0,-1,0.0,0.2907999999999902
389,1,0.2,0.25,-35.0,-1,1.0,0.32740000000012515
390,1,0.2,0.25,35.0,1,1.0,0.16740000000027067
391,1,0.2,1.0,35.0,1,1.0,0.10750000000030013
392,1,0.2,0.0,35.0,-1,0.0,0.29110000000014224
393,1,0.2,0.0625,35.0,1,1.0,0.22800000000006548
394,1,0.2,1.0,-35.0,-1,1.0,0.171100000000024
395,1,0.2,0.25,35.0,1,1.0,0.17450000000008004
396,1,0.2,0.125,-35.0,-1,1.0,0.19450000000006185
397,1,0.2,0.25,35.0,1,1.0,0.2777000000000953
398,1,0.2,0.25,35.0,1,1.0,0.3045000000001892
399,1,0.2,0.125,-35.0,-1,1.0,0.23450000000002547
400,1,0.2,0.125,35.0,1,1.0,0.25450000000023465
401,1,0.2,0.125,-35.0,-1,1.0,0.2514000000001033
402,1,0.8,0.0625,-35.0,-1,1.0,0.4614000000001397
403,1,0.8,0.25,-35.0,-1,1.0,0.4113999999999578
404,1,0.8,0.125,-35.0,-1,1.0,0.574800000000323
405,1,0.8,0.0,-35.0,-1,1.0,0.6416000000001532
406,1,0.8,0.0625,-35.0,-1,1.0,0.3046000000001641
407,1,0.8,0.25,-35.0,-1,1.0,0.2748999999998887
408,1,0.8,0.25,-35.0,-1,1.0,0.31169999999997344
409,1,0.8,0.125,-35.0,-1,1.0,0.3217000000001917
410,1,0.8,0.25,-35.0,-1,1.0,0.20820000000003347
411,1,0.8,1.0,-35.0,-1,1.0,0.29520000000024993
412,1,0.8,1.0,35.0,1,1.0,0.311500000000251
413,1,0.8,0.0625,-35.0,1,0.0,0.1485000000002401
414,1,0.8,0.125,35.0,1,1.0,0.42869999999993524
415,1,0.8,0.0,-35.0,1,0.0,1.2919000000003962
416,1,0.8,0.125,-35.0,-1,1.0,0.30540000000019063
417,1,0.8,1.0,-35.0,-1,1.0,0.1755000000000564
418,1,0.8,0.125,-35.0,-1,1.0,0.16200000000003456
419,1,0.8,0.0625,-35.0,-1,1.0,0.2154000000000451
420,1,0.8,0.125,-35.0,-1,1.0,0.19219999999995707
421,1,0.8,0.0625,-35.0,-1,1.0,0.20860000000016043
422,1,0.8,0.0625,-35.0,-1,1.0,0.5858000000000629
423,1,0.8,0.125,-35.0,-1,1.0,0.2923000000000684
424,1,0.8,0.0,-35.0,-1,1.0,0.3922000000002299
425,1,0.8,1.0,-35.0,-1,1.0,0.17219999999997526
426,1,0.8,0.25,-35.0,-1,1.0,0.2055990000001202
427,1,0.8,0.25,-35.0,-1,1.0,0.2192000000002281
428,1,0.8,1.0,-35.0,-1,1.0,0.20260000000007494
429,1,0.8,0.125,-35.0,-1,1.0,0.2394000000001597
430,1,0.8,0.125,-35.0,-1,1.0,0.2593000000001666
431,1,0.8,1.0,-35.0,-1,1.0,0.19590000000016516
432,1,0.8,0.0625,-35.0,-1,1.0,0.38580000000001746
433,1,0.8,0.0,-35.0,-1,1.0,0.2896000000002914
434,1,0.8,0.125,-35.0,-1,1.0,0.3892000000000735
435,1,0.8,1.0,-35.0,-1,1.0,0.23240000000009786
436,1,0.8,0.0625,-35.0,-1,1.0,0.4528000000002521
437,1,0.8,1.0,-35.0,-1,1.0,0.27930000000014843
438,1,0.8,0.25,-35.0,-1,1.0,0.26939999999990505
439,1,0.8,1.0,-35.0,-1,1.0,0.1793999999999869
440,1,0.8,0.0625,-35.0,-1,1.0,0.45630000000028303
441,1,0.8,1.0,-35.0,-1,1.0,0.21290000000021791
442,1,0.8,0.125,-35.0,-1,1.0,0.19290000000000873
443,1,0.8,1.0,-35.0,-1,1.0,0.18290000000001783
444,1,0.8,0.0625,-35.0,-1,1.0,0.19630000000006476
445,1,0.8,0.125,-35.0,-1,1.0,0.3263000000001739
446,1,0.8,0.0625,-35.0,-1,1.0,0.3630999999998039
447,1,0.8,0.25,-35.0,-1,1.0,0.16990000000009786
448,1,0.8,0.125,-35.0,-1,1.0,0.24010000000021137
449,1,0.8,0.25,-35.0,-1,1.0,0.10680000000024847
450,1,0.8,1.0,-35.0,-1,1.0,0.24319999999988795
451,1,0.8,1.0,-35.0,-1,1.0,0.19660000000021682
452,1,0.8,0.0625,35.0,1,1.0,0.2500999999999749
453,1,0.8,0.0625,-35.0,-1,1.0,0.08670000000006439
454,1,0.8,0.125,-35.0,-1,1.0,0.19970000000012078
455,1,0.8,1.0,-35.0,-1,1.0,0.17029999999999745
456,1,0.8,0.25,-35.0,-1,1.0,0.2967999999998483
457,1,0.8,1.0,35.0,-1,0.0,0.606899999999996
458,1,0.8,0.0625,-35.0,1,0.0,0.2270000000003165
459,1,0.8,0.125,-35.0,-1,1.0,0.2171000000003005
460,1,0.8,1.0,-35.0,-1,1.0,0.2906000000000404
461,1,0.8,0.125,-35.0,-1,1.0,0.2701999999999316
462,1,0.8,0.25,-35.0,-1,1.0,0.3404000000002725
463,1,0.8,0.125,-35.0,-1,1.0,0.1507000000001426
464,1,0.8,0.125,-35.0,-1,1.0,0.1772000000000844
465,1,0.8,1.0,-35.0,-1,1.0,0.14720000000011169
466,1,0.8,0.0625,-35.0,-1,1.0,0.15410000000019863
467,1,0.8,0.0625,-35.0,-1,1.0,0.2640000000001237
468,1,0.8,0.0625,-35.0,-1,1.0,0.27060000000005857
469,1,0.8,1.0,-35.0,-1,1.0,0.16760000000022046
470,1,0.8,0.0,-35.0,-1,1.0,0.28109999999992397
471,1,0.8,1.0,-35.0,-1,1.0,0.14750000000026375
472,1,0.8,0.0625,-35.0,-1,1.0,0.031000000000176442
473,1,0.8,1.0,-35.0,-1,1.0,0.2477000000001226
474,1,0.8,1.0,-35.0,-1,1.0,0.1909000000002834
475,1,0.8,0.0,35.0,-1,0.0,0.264299999999821
476,1,0.8,1.0,-35.0,-1,1.0,0.16430000000013933
477,1,0.8,0.0,-35.0,-1,1.0,0.257600000000366
478,1,0.8,0.0625,-35.0,-1,1.0,0.3510000000001128
479,1,0.8,0.0,-35.0,-1,1.0,0.22800000000006548
480,1,0.8,0.0625,-35.0,-1,1.0,0.1510000000000673
481,1,0.8,0.0625,-35.0,-1,1.0,0.18479999999999563
482,1,0.8,1.0,35.0,-1,0.0,0.4511999999999716
483,1,0.8,1.0,-35.0,-1,1.0,0.29480000000012296
484,1,0.8,0.0625,-35.0,-1,1.0,0.3247000000001208
485,1,0.2,0.25,35.0,-1,0.0,0.6081000000001495
486,1,0.2,0.25,-35.0,-1,1.0,0.21790000000032705
487,1,0.2,1.0,-35.0,-1,1.0,0.2414000000001124
488,1,0.2,0.0625,35.0,-1,0.0,0.4979000000000724
489,1,0.2,0.25,35.0,1,1.0,0.35140000000001237
490,1,0.2,0.0625,35.0,-1,0.0,0.3015000000002601
491,1,0.2,0.0,35.0,-1,0.0,0.33130000000005566
492,1,0.2,0.0,35.0,1,1.0,0.4251000000001568
493,1,0.2,0.0625,35.0,-1,0.0,0.3082000000001699
494,1,0.2,0.0625,35.0,1,1.0,0.22850000000016735
495,1,0.2,0.0,35.0,1,1.0,0.4216000000001259
496,1,0.2,1.0,35.0,1,1.0,0.2088000000003376
497,1,0.2,0.0625,35.0,1,1.0,0.24190000000021428
498,1,0.2,0.0625,35.0,-1,0.0,0.27870000000007167
499,1,0.2,1.0,35.0,1,1.0,0.18879999999990105
500,1,0.2,0.25,35.0,1,1.0,4.52189999999996
501,1,0.2,0.25,-35.0,-1,1.0,0.30550000000016553
502,1,0.2,0.125,-35.0,-1,1.0,0.24200000000018917
503,1,0.2,1.0,35.0,1,1.0,0.2089000000003125
504,1,0.2,0.0625,35.0,-1,0.0,1.7155990000001111
505,1,0.2,0.0625,35.0,-1,0.0,0.15900000000033288
506,1,0.2,1.0,35.0,1,1.0,0.22210000000018226
507,1,0.2,0.0,-35.0,1,0.0,0.27910000000019863
508,1,0.2,1.0,35.0,1,1.0,0.20240000000012515
509,1,0.2,0.0,35.0,-1,0.0,0.3725000000001728
510,1,0.2,1.0,35.0,1,1.0,0.26260000000024775
511,1,0.2,0.0,35.0,-1,0.0,0.29250000000024556
512,1,0.2,0.25,35.0,1,1.0,0.23280000000022483
513,1,0.8,0.0,35.0,-1,0.0,0.33930000000009386
514,1,0.8,0.125,-35.0,-1,1.0,0.4158999999999651
515,1,0.8,0.125,-35.0,-1,1.0,0.31280000000037944
516,1,0.8,0.125,-35.0,-1,1.0,0.2297000000000935
517,1,0.8,1.0,-35.0,-1,1.0,0.17620000000010805
518,1,0.8,0.25,-35.0,-1,1.0,0.399599999999964
519,1,0.8,1.0,-35.0,-1,1.0,0.1931000000001859
520,1,0.8,0.0625,35.0,-1,0.0,0.2196000000001277
521,1,0.8,0.125,-35.0,-1,1.0,0.32310000000006767
522,1,0.8,1.0,35.0,1,1.0,0.09629999999992833
523,1,0.8,0.0625,-35.0,-1,1.0,0.3101000000001477
524,1,0.8,1.0,35.0,1,1.0,0.4532000000001517
525,1,0.8,0.0,35.0,1,1.0,0.20660000000020773
526,1,0.8,0.25,-35.0,-1,1.0,0.24989999999979773
527,1,0.8,0.125,-35.0,-1,1.0,0.26090000000021973
528,1,0.8,1.0,-35.0,-1,1.0,0.1733000000001539
529,1,0.8,0.25,35.0,1,1.0,0.08330000000000837
530,1,0.8,0.125,35.0,-1,0.0,0.3368000000000393
531,1,0.8,0.25,35.0,1,1.0,0.1834999999998672
532,1,0.8,0.125,35.0,1,1.0,0.3002000000001317
533,1,0.8,0.0625,-35.0,-1,1.0,0.273600000000215
534,1,0.8,0.125,-35.0,-1,1.0,0.27700000000004366
535,1,0.8,1.0,35.0,1,1.0,0.27359999999998763
536,1,0.8,0.25,-35.0,-1,1.0,0.1937000000000353
537,1,0.8,0.125,-35.0,-1,1.0,0.18370000000004438
538,1,0.8,0.25,35.0,-1,0.0,0.1671000000001186
539,1,0.8,0.25,35.0,1,1.0,0.20710000000008222
540,1,0.8,0.125,35.0,1,1.0,0.22390000000018517
541,1,0.8,0.125,35.0,1,1.0,0.3505000000000109
542,1,0.8,0.125,-35.0,-1,1.0,0.5472999999999502
543,1,0.8,1.0,-35.0,-1,1.0,0.20390000000020336
544,1,0.8,0.125,-35.0,-1,1.0,0.4207000000001244
545,1,0.8,0.0,-35.0,-1,1.0,0.39410000000020773
546,1,0.8,0.25,-35.0,-1,1.0,0.22070000000007894
547,1,0.8,0.0625,-35.0,-1,1.0,0.1775000000000091
548,1,0.2,0.125,35.0,-1,0.0,0.4874999999999545
549,1,0.2,0.25,35.0,1,1.0,0.2542000000000826
550,1,0.2,0.25,35.0,-1,0.0,0.21760000000040236
551,1,0.2,0.125,35.0,1,1.0,0.27090000000021064
552,1,0.2,0.25,-35.0,-1,1.0,0.2677000000003318
553,1,0.2,1.0,35.0,1,1.0,0.23109999999996944
554,1,0.2,0.125,35.0,1,1.0,0.18219999999996617
555,1,0.2,1.0,35.0,1,1.0,0.23110000000019681
556,1,0.2,1.0,-35.0,-1,1.0,0.21109999999998763
557,1,0.2,0.125,-35.0,-1,1.0,0.27130000000011023
558,1,0.2,0.25,35.0,-1,0.0,0.38790000000017244
559,1,0.2,0.125,35.0,-1,0.0,0.32130000000029213
560,1,0.2,1.0,35.0,1,1.0,0.1812999999999647
561,1,0.2,0.0625,35.0,-1,0.0,0.3713000000000193
562,1,0.2,0.25,35.0,1,1.0,0.3080999999999676
563,1,0.2,0.0,-35.0,-1,1.0,0.45820000000003347
564,1,0.2,0.25,35.0,1,1.0,0.3015000000002601
565,1,0.2,0.125,35.0,-1,0.0,0.25810000000024047
566,1,0.2,0.0,35.0,1,1.0,0.22500000000013642
567,1,0.2,0.25,35.0,-1,0.0,0.31159999999999854
568,1,0.2,1.0,35.0,1,1.0,0.2617000000000189
569,1,0.2,0.0,-35.0,-1,1.0,0.2682999999999538
570,1,0.2,0.0625,35.0,-1,0.0,0.4451000000001386
571,1,0.2,1.0,35.0,1,1.0,0.18840000000022883
572,1,0.2,0.0,35.0,-1,0.0,0.3850999999999658
573,1,0.2,1.0,35.0,1,1.0,0.231899999999996
574,1,0.2,0.0625,35.0,1,1.0,0.35190000000011423
575,1,0.2,0.125,35.0,1,1.0,0.2820000000001528
576,1,0.2,1.0,-35.0,-1,1.0,0.19869999999991705
577,1,0.2,0.0625,35.0,-1,0.0,0.36540000000013606
578,1,0.2,0.125,35.0,1,1.0,0.21870000000012624
579,1,0.2,1.0,35.0,1,1.0,0.19890000000009422
580,1,0.2,0.125,-35.0,-1,1.0,0.3188000000000102
581,1,0.2,1.0,35.0,1,1.0,0.2321999999999207
582,1,0.2,0.25,35.0,1,1.0,0.39560000000005857
583,1,0.2,0.0,35.0,1,1.0,0.245600000000195
584,1,0.2,0.0625,35.0,-1,0.0,0.2590000000002419
585,1,0.2,1.0,35.0,1,1.0,0.20240000000012515
586,1,0.2,1.0,35.0,1,1.0,0.2458000000001448
587,1,0.2,0.0625,35.0,1,1.0,0.2459000000001197
588,1,0.2,0.125,35.0,1,1.0,0.21920000000000073
589,1,0.2,1.0,35.0,1,1.0,0.20920000000000982
590,1,0.2,0.125,35.0,1,1.0,0.1927000000002863
591,1,0.2,1.0,35.0,1,1.0,0.1626000000003387
592,1,0.2,0.125,35.0,1,1.0,3.552599999999984
593,1,0.2,0.25,35.0,1,1.0,4.359500000000253
594,1,0.2,0.0625,35.0,1,1.0,0.1508000000001175
595,1,0.2,0.25,35.0,1,1.0,0.16960000000017317
596,1,0.2,0.0625,-35.0,-1,1.0,0.26959999999985484
597,1,0.2,0.0625,35.0,1,1.0,0.3464000000001306
598,1,0.2,0.0625,35.0,1,1.0,0.2730000000003656
599,1,0.2,0.0625,35.0,1,1.0,0.5996999999999844
600,1,0.2,0.25,35.0,1,1.0,0.2397000000000844
601,1,0.2,1.0,-35.0,-1,1.0,0.22310000000015862
602,1,0.2,0.25,35.0,1,1.0,0.22650000000021464
603,1,0.2,0.25,35.0,1,1.0,0.26309999999989486
604,1,0.2,0.125,35.0,1,1.0,0.044499999999970896
605,1,0.2,0.0625,35.0,1,1.0,0.3432999999999993
606,1,0.2,0.25,35.0,1,1.0,0.17990000000008877
607,1,0.2,0.125,35.0,-1,0.0,0.2700000000002092
608,1,0.2,0.25,35.0,1,1.0,0.19349999999985812
609,1,0.2,0.125,35.0,1,1.0,0.26350000000002183
610,1,0.2,0.25,35.0,1,1.0,0.0784000000001015
611,1,0.2,0.125,35.0,1,1.0,0.4135000000001128
612,1,0.2,0.0625,35.0,1,1.0,0.17360000000007858
613,1,0.2,0.0625,35.0,1,1.0,0.25700000000006185
614,1,0.2,0.0625,35.0,-1,0.0,0.37370000000009895
615,1,0.2,0.0625,35.0,1,1.0,0.18040000000019063
616,1,0.2,0.25,35.0,1,1.0,0.2638000000001739
617,1,0.2,0.25,35.0,1,1.0,0.27710000000001855
618,1,0.2,1.0,35.0,1,1.0,0.21049999999991087
619,1,0.2,0.0625,35.0,1,1.0,0.22049999999990177
620,1,0.2,0.0625,35.0,1,1.0,2.3105000000000473
621,1,0.2,0.0625,35.0,1,1.0,0.2373000000002321
622,1,0.2,0.0625,35.0,-1,0.0,0.18859999999995125
623,1,0.2,0.0625,-35.0,1,0.0,0.18740000000025248
624,1,0.2,0.25,35.0,1,1.0,0.16079999999965366
625,1,0.2,0.0625,-35.0,-1,1.0,0.2974999999996726
626,1,0.2,0.0,-35.0,1,0.0,-0.012499999999818101
627,1,0.2,0.0625,35.0,1,1.0,0.2909999999997126
628,1,0.2,1.0,35.0,1,1.0,0.1687000000001717
629,1,0.2,0.0,35.0,1,1.0,5.221799999999803
630,1,0.2,0.125,35.0,1,1.0,0.244499999999789
631,1,0.2,1.0,-35.0,-1,1.0,0.25109999999995125
632,1,0.8,0.0625,-35.0,-1,1.0,0.2411999999994805
633,1,0.8,0.0,-35.0,1,0.0,0.18449999999984357
634,1,0.8,0.25,-35.0,-1,1.0,0.22119999999995343
635,1,0.8,0.25,-35.0,-1,1.0,0.1780999999996311
636,1,0.8,0.25,-35.0,-1,1.0,0.28130000000010114
637,1,0.8,0.125,-35.0,-1,1.0,0.16479999999955908
638,1,0.8,0.125,-35.0,-1,1.0,0.25149999999985084
639,1,0.8,0.0625,-35.0,-1,1.0,0.1681999999996151
640,1,0.8,1.0,-35.0,-1,1.0,0.19819999999936044
641,1,0.8,1.0,35.0,-1,0.0,0.17159999999967113
642,1,0.8,0.0,35.0,-1,0.0,0.19489999999996144
643,1,0.8,0.125,35.0,1,1.0,0.33179999999993015
644,1,0.8,0.25,-35.0,-1,1.0,0.2217000000000553
645,1,0.8,0.25,-35.0,-1,1.0,0.2518000000000029
646,1,0.8,0.0625,-35.0,1,0.0,0.25509999999985666
647,1,0.8,0.125,-35.0,-1,1.0,0.19849999999996726
648,1,0.8,0.125,-35.0,-1,1.0,0.15869999999995343
649,1,0.8,0.25,35.0,-1,0.0,0.358600000000024
650,1,0.8,0.25,-35.0,-1,1.0,0.17199999999957072
651,1,0.8,0.0,-35.0,-1,1.0,0.15869999999995343
652,1,0.8,0.0625,-35.0,-1,1.0,0.18879999999990105
653,1,0.8,0.125,35.0,-1,0.0,0.4454999999998108
654,1,0.8,0.125,-35.0,-1,1.0,0.2321999999999207
655,1,0.8,0.125,-35.0,-1,1.0,0.2788999999997941
656,1,0.8,0.125,-35.0,-1,1.0,0.19230000000015934
657,1,0.8,0.125,-35.0,-1,1.0,0.27229999999963184
658,1,0.8,0.25,-35.0,-1,1.0,0.28230000000030486
659,1,0.8,0.0,35.0,-1,0.0,0.21909999999979846
660,1,0.8,0.0,-35.0,-1,1.0,0.09580000000005384
661,1,0.8,0.0625,-35.0,-1,1.0,0.19579999999950815
662,1,0.8,1.0,-35.0,-1,1.0,0.2092000000002372
663,1,0.8,0.125,-35.0,-1,1.0,0.24260000000003856
664,1,0.8,0.125,35.0,1,1.0,0.28259999999954744
665,1,0.8,0.0,-35.0,-1,1.0,0.16929999999956635
666,1,0.8,0.25,-35.0,-1,1.0,0.19259999999985666
667,1,0.8,0.0625,-35.0,-1,1.0,0.26270000000022264
668,1,0.8,0.25,-35.0,-1,1.0,0.22610000000031505
669,1,0.8,1.0,-35.0,-1,1.0,0.209400000000187
670,1,0.8,1.0,-35.0,-1,1.0,0.18280000000004293
671,1,0.8,1.0,-35.0,-1,1.0,0.16390000000001237
672,1,0.8,0.0,-35.0,1,0.0,0.2662999999997737
673,1,0.8,0.0625,-35.0,1,0.0,0.2563000000000102
674,1,0.8,1.0,-35.0,-1,1.0,0.18299999999999272
675,1,0.8,1.0,-35.0,-1,1.0,0.21319999999968786
676,1,0.8,0.25,-35.0,-1,1.0,0.17639999999983047
677,1,0.8,0.125,-35.0,-1,1.0,0.18649999999979627
678,1,0.8,0.25,-35.0,-1,1.0,-0.0433999999995649
679,1,0.8,0.25,-35.0,-1,1.0,0.19659999999976208
680,1,0.8,0.25,35.0,-1,0.0,0.20119999999997162
681,1,0.8,0.25,-35.0,-1,1.0,0.08009999999967476
682,1,0.8,0.25,35.0,1,1.0,0.240099999999984
683,1,0.8,1.0,-35.0,-1,1.0,0.16679999999996653
684,1,0.8,0.25,-35.0,-1,1.0,0.2568999999998596
685,1,0.8,0.125,35.0,-1,0.0,0.38360000000011496
686,1,0.8,0.125,35.0,-1,0.0,0.2481999999999971
687,1,0.8,1.0,-35.0,-1,1.0,0.2402999999999338
688,1,0.8,0.25,-35.0,-1,1.0,0.20380000000022847
689,1,0.8,0.25,-35.0,-1,1.0,0.3270999999999731
690,1,0.8,0.25,-35.0,-1,1.0,0.20049999999946522
691,1,0.8,0.125,-35.0,-1,1.0,0.33039999999982683
692,1,0.8,1.0,-35.0,-1,1.0,0.26549999999997453
693,1,0.8,0.125,-35.0,-1,1.0,0.28729999999995925
694,1,0.8,0.25,35.0,1,1.0,0.40059999999994034
695,1,0.8,0.125,35.0,-1,0.0,0.3206000000000131
696,1,0.8,0.125,-35.0,-1,1.0,0.09400000000005093
697,1,0.8,1.0,-35.0,-1,1.0,0.19749999999976353
698,1,0.8,0.0,-35.0,-1,1.0,0.1754000000000815
699,1,0.8,0.125,35.0,-1,0.0,0.6274999999995998
700,1,0.8,1.0,-35.0,-1,1.0,0.23420000000032815
701,1,0.8,0.0625,-35.0,-1,1.0,0.3975000000000364
702,1,0.8,1.0,-35.0,-1,1.0,0.20089999999981956
703,1,0.8,0.25,-35.0,-1,1.0,0.1942999999996573
704,1,0.8,1.0,-35.0,-1,1.0,0.18429999999989377
705,1,0.8,0.25,35.0,-1,0.0,0.06869999999980791
706,1,0.8,0.125,-35.0,-1,1.0,0.2043999999996231
707,1,0.8,0.0625,-35.0,-1,1.0,0.30780000000004293
708,1,0.8,0.25,-35.0,-1,1.0,0.21119999999973516
709,1,0.8,0.125,-35.0,-1,1.0,0.26789999999982683
710,1,0.2,0.0,35.0,-1,0.0,0.14460000000008222
711,1,0.2,1.0,35.0,1,1.0,0.21129999999993743
712,1,0.2,1.0,35.0,1,1.0,0.24139999999988504
713,1,0.2,0.0,35.0,1,1.0,0.3146999999999025
714,1,0.2,1.0,35.0,1,1.0,0.27470000000039363
715,1,0.2,0.0,-35.0,1,0.0,0.23489999999992506
716,1,0.2,0.25,35.0,1,1.0,0.23489999999992506
717,1,0.2,0.25,35.0,1,1.0,0.23489999999992506
718,1,0.2,0.125,35.0,-1,0.0,0.33159999999998035
719,1,0.2,1.0,35.0,1,1.0,0.23509999999987485
720,1,0.2,0.0625,35.0,1,1.0,0.5783999999998741
721,1,0.2,0.125,35.0,1,1.0,0.10609999999996944
722,1,0.2,0.25,35.0,1,1.0,0.24179999999978463
723,1,0.2,0.125,-35.0,-1,1.0,0.34520000000020445
724,1,0.2,0.25,35.0,-1,0.0,0.1386000000002241
725,1,0.2,0.125,35.0,-1,0.0,0.4818999999997686
726,1,0.2,0.0625,35.0,1,1.0,0.2820999999999003
727,1,0.2,0.0,35.0,-1,0.0,1.4288000000001375
728,1,0.2,0.0,35.0,-1,0.0,0.5321999999996478
729,1,0.2,0.125,35.0,1,1.0,0.18890000000010332
730,1,0.2,0.0625,35.0,-1,0.0,0.2521999999999025
731,1,0.2,0.25,-35.0,-1,1.0,0.20569999999952415
732,1,0.2,0.125,35.0,-1,0.0,0.3523000000000138
733,1,0.2,0.0625,-35.0,-1,1.0,0.399199999999837
734,1,0.2,0.0625,35.0,-1,0.0,0.36919999999963693
735,1,0.2,0.125,-35.0,-1,1.0,0.17249999999967258
736,1,0.2,0.25,-35.0,-1,1.0,0.24589999999989232
737,1,0.2,0.0,35.0,-1,0.0,0.2760000000002947
738,1,0.2,1.0,35.0,1,1.0,0.27589999999963766
739,1,0.2,0.125,35.0,1,1.0,0.21270000000004075
740,1,0.2,0.0625,35.0,1,1.0,0.37609999999995125
741,1,0.2,0.125,-35.0,-1,1.0,0.3261000000002241
742,1,0.2,1.0,35.0,1,1.0,0.2662000000000262
743,1,0.2,1.0,35.0,1,1.0,0.24619999999958964
744,1,0.2,0.0625,35.0,-1,0.0,0.2928999999999178
745,1,0.2,1.0,35.0,1,1.0,0.2563000000000102
746,1,0.2,0.25,35.0,1,1.0,0.3963999999996304
747,1,0.8,0.125,-35.0,-1,1.0,0.36309999999957654
748,1,0.8,0.25,-35.0,-1,1.0,0.2498000000000502
749,1,0.8,0.25,-35.0,-1,1.0,0.22309999999970387
750,1,0.8,0.125,-35.0,-1,1.0,0.18979999999965003
751,1,0.8,0.0,-35.0,-1,1.0,0.033100000000104046
752,1,0.8,0.125,-35.0,-1,1.0,0.21319999999968786
753,1,0.8,1.0,35.0,-1,0.0,0.21660000000019863
754,1,0.8,0.0625,-35.0,-1,1.0,0.3467000000000553
755,1,0.8,0.0625,-35.0,-1,1.0,0.3067000000000917
756,1,0.8,1.0,-35.0,-1,1.0,0.18669999999929132
757,1,0.8,0.0625,-35.0,-1,1.0,0.31340000000000146
758,1,0.8,0.125,-35.0,-1,1.0,0.22179999999980282
759,1,0.8,0.25,-35.0,-1,1.0,0.2035000000000764
760,1,0.8,0.0625,-35.0,-1,1.0,0.28359999999975116
761,1,0.8,0.125,35.0,-1,0.0,0.36029999999982465
762,1,0.8,0.0625,-35.0,1,0.0,1.8568999999993139
763,1,0.8,0.0,-35.0,-1,1.0,0.24380000000019209
764,1,0.8,0.0625,-35.0,-1,1.0,0.5005000000001019
765,1,0.8,0.25,-35.0,-1,1.0,0.20710000000008222
766,1,0.8,0.0,-35.0,-1,1.0,0.20049999999991996
767,1,0.8,0.0625,-35.0,-1,1.0,0.047299999999722786
768,1,0.8,0.125,-35.0,-1,1.0,0.1905999999994492
769,1,0.8,0.25,35.0,-1,0.0,0.3339999999993779
770,1,0.8,1.0,-35.0,-1,1.0,0.3273000000003776
771,1,0.8,1.0,-35.0,-1,1.0,0.20069999999986976
772,1,0.8,1.0,-35.0,-1,1.0,0.15249999999969077
773,1,0.8,0.125,35.0,-1,0.0,0.11829999999963547
774,1,0.8,0.0,-35.0,-1,1.0,0.7807999999999993
775,1,0.8,0.25,-35.0,-1,1.0,0.03099999999994907
776,1,0.8,0.0625,-35.0,-1,1.0,0.34760000000005675
777,1,0.8,1.0,-35.0,-1,1.0,0.18429999999989377
778,1,0.8,0.25,-35.0,-1,1.0,0.16440000000011423
779,1,0.8,0.0,-35.0,-1,1.0,0.16769999999996799
780,1,0.8,1.0,35.0,-1,0.0,0.501100000000406
781,1,0.8,1.0,-35.0,-1,1.0,0.1777999999999338
782,1,0.8,0.0625,-35.0,-1,1.0,0.30780000000004293
783,1,0.8,0.0625,-35.0,-1,1.0,0.161200000000008
784,1,0.8,0.125,-35.0,-1,1.0,0.2579000000000633
785,1,0.8,1.0,-35.0,-1,1.0,0.17470000000002983
786,1,0.8,0.0,-35.0,-1,1.0,0.4147000000002663
787,1,0.8,0.25,-35.0,-1,1.0,0.22799999999961074
788,1,0.8,1.0,-35.0,-1,1.0,0.17480099999966114
789,1,0.8,0.25,-35.0,-1,1.0,0.05150099999946178
790,1,0.8,0.125,35.0,-1,0.0,0.32490099999995437
791,1,0.8,0.0625,-35.0,-1,1.0,0.19160099999953673
792,1,0.8,0.25,-35.0,-1,1.0,0.18820099999993545
793,1,0.8,1.0,-35.0,-1,1.0,0.15170099999977538
794,1,0.8,1.0,-35.0,-1,1.0,0.16160099999979138
795,1,0.8,1.0,-35.0,-1,1.0,0.1851010000000315
796,1,0.8,1.0,-35.0,-1,1.0,0.09000099999957456
797,1,0.8,0.125,-35.0,-1,1.0,0.19180099999994127
798,1,0.8,0.25,-35.0,-1,1.0,0.1619009999994887
799,1,0.8,1.0,-35.0,-1,1.0,0.19530099999974482
800,1,0.8,0.125,-35.0,-1,1.0,0.1786010000000715
801,1,0.8,0.25,-35.0,-1,1.0,0.22540099999969243
802,1,0.8,0.25,35.0,-1,0.0,0.12200099999972736
803,1,0.8,1.0,-35.0,-1,1.0,0.3021009999997659
804,1,0.8,0.25,-35.0,-1,1.0,0.1922009999993861
805,1,0.8,0.0625,-35.0,-1,1.0,0.18220100000007733
806,1,0.8,1.0,-35.0,-1,1.0,0.1323010000000977
807,1,0.8,1.0,-35.0,-1,1.0,0.13020099999994272
808,1,0.8,0.125,-35.0,-1,1.0,0.16220099999964077
809,1,0.8,0.25,-35.0,-1,1.0,0.16230099999984304
810,1,0.8,0.25,-35.0,-1,1.0,-0.019199000000298838
811,1,0.8,1.0,-35.0,-1,1.0,0.16240100000004531
812,1,0.8,0.0625,-35.0,-1,1.0,0.1691009999999551
813,1,0.8,0.125,-35.0,-1,1.0,0.34250099999962913
814,1,0.2,0.0625,35.0,1,1.0,0.41920100000015736
815,1,0.2,0.125,35.0,-1,0.0,0.5526009999998678
816,1,0.2,1.0,35.0,1,1.0,0.28270100000008824
817,1,0.2,0.0,35.0,1,1.0,2.726000999999542
818,1,0.2,0.25,35.0,-1,0.0,0.37610099999983504
819,1,0.2,1.0,35.0,1,1.0,0.3261010000001079
820,1,0.2,0.0625,-35.0,-1,1.0,0.23390100000005987
821,1,0.2,1.0,-35.0,-1,1.0,0.20960100000002058
822,1,0.2,0.125,35.0,-1,0.0,0.3263010000000577
823,1,0.2,0.125,35.0,1,1.0,0.4296009999998205
824,1,0.2,0.25,35.0,1,1.0,0.5330009999997856
825,1,0.2,0.25,35.0,1,1.0,4.453101000000061
826,1,0.2,0.25,35.0,1,1.0,0.2999009999998634
827,1,0.2,0.0625,35.0,1,1.0,0.32330099999990125
828,1,0.2,0.25,35.0,1,1.0,0.30010100000026796
829,1,0.2,0.25,35.0,1,1.0,0.30340099999966696
830,1,0.2,1.0,35.0,1,1.0,0.3767009999996844
831,1,0.2,0.0625,35.0,1,1.0,0.2801009999998314
832,1,0.2,1.0,35.0,1,1.0,0.23690099999976155
833,1,0.2,0.25,-35.0,-1,1.0,0.09770099999968807
834,1,0.2,0.0625,35.0,1,1.0,0.26690099999996164
835,1,0.2,0.0625,35.0,1,1.0,0.19810099999995145
836,1,0.2,0.125,35.0,1,1.0,0.23700099999996382
837,1,0.2,1.0,35.0,1,1.0,0.041600999999445776
838,1,0.2,1.0,35.0,1,1.0,0.18700099999978192
839,1,0.2,0.0625,35.0,-1,0.0,0.18800099999998565
840,1,0.2,0.125,35.0,1,1.0,3.407100000000355
841,1,0.2,0.25,35.0,1,1.0,0.6206010000000788
842,1,0.2,0.25,35.0,1,1.0,0.27730099999962476
843,1,0.2,0.125,35.0,1,1.0,0.14060099999960585
844,1,0.2,0.125,-35.0,-1,1.0,0.29740099999980885
845,1,0.2,0.25,35.0,1,1.0,0.23080099999970116
846,1,0.2,0.125,-35.0,-1,1.0,0.3275010000002112
847,1,0.2,0.25,35.0,1,1.0,0.23410100000000966
848,1,0.2,0.0625,35.0,1,1.0,0.2742009999997208
849,1,0.2,0.0625,-35.0,-1,1.0,0.4942009999995207
850,1,0.2,0.125,35.0,1,1.0,0.13250099999959275
851,1,0.2,0.125,35.0,1,1.0,0.22090099999968515
852,1,0.2,0.25,-35.0,-1,1.0,0.30430100000012317
853,1,0.2,0.125,35.0,-1,0.0,0.4344009999995251
854,1,0.2,0.25,-35.0,-1,1.0,0.30770099999972444
855,1,0.2,0.25,35.0,1,1.0,0.29110099999979866
856,1,0.2,0.25,35.0,1,1.0,0.17450099999996382
857,1,0.2,0.125,-35.0,-1,1.0,0.22450100000014572
858,1,0.2,0.25,-35.0,-1,1.0,0.26120099999980084
859,1,0.2,0.25,35.0,1,1.0,0.22800099999994927
860,1,0.8,1.0,35.0,1,1.0,0.04620099999965532
861,1,0.8,0.25,-35.0,-1,1.0,0.24470099999962258
862,1,0.8,0.125,-35.0,-1,1.0,0.2514009999999871
863,1,0.8,0.0,-35.0,-1,1.0,0.4648010000000795
864,1,0.8,0.125,-35.0,-1,1.0,0.26480099999980666
865,1,0.8,1.0,-35.0,-1,1.0,0.3282009999998081
866,1,0.8,0.125,-35.0,-1,1.0,0.22490100000004531
867,1,0.8,0.0,-35.0,1,0.0,0.12290100000018356
868,1,0.8,0.125,-35.0,-1,1.0,0.41170099999999366
869,1,0.8,0.0625,-35.0,-1,1.0,0.2550009999995382
870,1,0.8,0.25,-35.0,-1,1.0,0.1750010000000657
871,1,0.8,0.25,-35.0,-1,1.0,0.17850099999986924
872,1,0.8,0.0,35.0,-1,0.0,0.17520100000001548
873,1,0.8,0.25,-35.0,-1,1.0,0.2653009999999085
874,1,0.8,0.125,-35.0,-1,1.0,0.25530099999969025
875,1,0.8,0.0625,35.0,-1,0.0,0.19530099999974482
876,1,0.8,0.0,-35.0,-1,1.0,0.2053009999999631
877,1,0.8,0.0625,35.0,-1,0.0,0.18880099999978484
878,1,0.8,1.0,-35.0,-1,1.0,0.2055009999999129
879,1,0.8,0.25,-35.0,-1,1.0,0.22560099999964223
880,1,0.8,0.0,-35.0,-1,1.0,2.123200999999881
881,1,0.8,0.0625,-35.0,-1,1.0,0.24560100000007878
882,1,0.8,0.0625,-35.0,-1,1.0,0.15570100000013554
883,1,0.8,0.25,35.0,-1,0.0,0.37900100000024395
884,1,0.8,0.25,-35.0,-1,1.0,0.27900099999988015
885,1,0.8,0.125,-35.0,-1,1.0,0.19910099999970043
886,1,0.8,0.0625,-35.0,-1,1.0,0.30580099999951926
887,1,0.8,0.0,-35.0,1,0.0,2.5626009999996313
888,1,0.8,0.25,35.0,1,1.0,0.23260099999970407
889,1,0.8,0.0625,-35.0,-1,1.0,0.22260099999994054
890,1,0.2,1.0,35.0,-1,0.0,0.4028009999997266
891,1,0.2,0.25,-35.0,-1,1.0,0.006100999999944179
892,1,0.2,0.25,35.0,1,1.0,0.2728009999996175
893,1,0.2,0.125,35.0,1,1.0,0.2962009999996553
894,1,0.2,0.125,35.0,-1,0.0,0.4462009999997463
895,1,0.2,0.25,-35.0,-1,1.0,0.18960100000003877
896,1,0.2,0.0625,35.0,-1,0.0,0.10790099999985614
897,1,0.2,1.0,35.0,1,1.0,0.5197010000001683
898,1,0.2,0.25,35.0,-1,0.0,0.34980099999984304
899,1,0.2,0.0625,35.0,-1,0.0,12.0099009999999
900,1,0.2,0.125,35.0,-1,0.0,0.4434009999999944
901,1,0.2,1.0,35.0,1,1.0,0.30020099999956074
902,1,0.2,1.0,35.0,1,1.0,0.36360100000001694
903,1,0.2,0.125,-35.0,-1,1.0,0.28690099999994345
904,1,0.2,0.125,-35.0,-1,1.0,0.2603009999997994
905,1,0.2,0.0625,35.0,-1,0.0,0.4770010000002003
906,1,0.2,1.0,35.0,1,1.0,0.2504010000002381
907,1,0.2,0.0625,35.0,-1,0.0,4.137100999999802
908,1,0.2,1.0,-35.0,-1,1.0,0.24050099999976737
909,1,0.2,0.125,35.0,-1,0.0,0.2973010000000613
910,1,0.2,0.0,35.0,-1,0.0,0.4006009999998241
911,1,0.2,0.125,35.0,1,1.0,11.510801000000356
912,1,0.2,1.0,-35.0,-1,1.0,0.21090099999946688
913,1,0.2,1.0,35.0,1,1.0,0.34430099999963204
914,1,0.2,0.0,35.0,1,1.0,4.08100099999956
915,1,0.2,0.125,35.0,1,1.0,0.26450100000010934
916,1,0.2,0.0625,35.0,-1,0.0,0.28780100000039965
917,1,0.2,1.0,35.0,1,1.0,0.21790099999998347
918,1,0.2,0.0,35.0,1,1.0,0.16530099999999948
919,1,0.2,1.0,-35.0,-1,1.0,0.20460099999991144
920,1,0.2,0.0625,35.0,-1,0.0,0.18460100000038437
921,1,0.2,1.0,35.0,1,1.0,0.23470099999985905
922,1,0.2,0.125,35.0,1,1.0,0.1648009999998976
923,1,0.2,1.0,35.0,1,1.0,0.08260100000006787
924,1,0.2,1.0,35.0,1,1.0,0.17480099999966114
925,1,0.2,0.125,-35.0,1,0.0,3.394901000000118
926,1,0.2,0.25,35.0,1,1.0,0.16840099999990343
927,1,0.2,0.125,35.0,1,1.0,0.4017009999997754
928,1,0.2,0.25,35.0,1,1.0,0.22170099999993909
929,1,0.2,0.125,-35.0,-1,1.0,0.22170099999948434
930,1,0.2,0.0625,35.0,-1,0.0,0.21180099999946833
931,1,0.2,0.0,35.0,1,1.0,7.77270099999987
932,1,0.2,0.25,35.0,1,1.0,0.2419009999998707
933,1,0.2,0.25,35.0,1,1.0,0.42530100000021775
934,1,0.2,0.125,-35.0,-1,1.0,0.3987010000000737
935,1,0.2,0.25,35.0,1,1.0,0.21210100000007515
936,1,0.2,1.0,35.0,1,1.0,-0.051198999999996886
937,1,0.2,1.0,35.0,1,1.0,0.2156009999998787
938,1,0.2,0.0,-35.0,-1,1.0,0.2922009999997499
939,1,0.2,0.25,-35.0,-1,1.0,0.2655009999994036
940,1,0.2,0.125,35.0,1,1.0,0.5967009999999391
941,1,0.2,1.0,35.0,1,1.0,0.19560099999989689
942,1,0.2,0.25,35.0,1,1.0,0.2574009999998452
943,1,0.2,0.0625,35.0,1,1.0,0.22910099999990052
944,1,0.2,0.0,35.0,1,1.0,7.562500999999429
945,1,0.2,1.0,35.0,1,1.0,0.09400099999993472
946,1,0.2,0.125,35.0,1,1.0,0.2793010000000322
947,1,0.2,0.25,35.0,1,1.0,0.2393010000000686
948,1,0.2,0.0625,35.0,1,1.0,0.15020099999992453
949,1,0.2,1.0,35.0,1,1.0,0.19950099999960003
950,1,0.8,0.125,-35.0,-1,1.0,0.26280099999985396
951,1,0.8,0.25,35.0,-1,0.0,0.1661009999993439
952,1,0.8,0.25,35.0,1,1.0,0.27960099999972954
953,1,0.8,0.25,-35.0,-1,1.0,0.23290099999985614
954,1,0.8,1.0,-35.0,-1,1.0,0.18300099999942177
955,1,0.8,1.0,-35.0,-1,1.0,0.11820099999931699
956,1,0.8,1.0,-35.0,-1,1.0,0.1897009999997863
957,1,0.8,0.25,-35.0,-1,1.0,0.2031010000000606
958,1,0.8,0.125,-35.0,-1,1.0,0.2398009999997157
959,1,0.8,0.25,-35.0,-1,1.0,0.24990100000013626
960,1,0.8,1.0,-35.0,-1,1.0,0.16990099999975428
961,1,0.8,0.0,-35.0,-1,1.0,0.23660100000006423
962,1,0.8,0.125,-35.0,-1,1.0,0.2266010000003007
963,1,0.8,1.0,-35.0,-1,1.0,0.24670100000003004
964,1,0.8,0.0,-35.0,-1,1.0,0.24350099999946906
965,1,0.8,0.0625,35.0,-1,0.0,0.21350099999972372
966,1,0.8,0.0,-35.0,-1,1.0,0.22350100000039674
967,1,0.8,0.25,-35.0,-1,1.0,0.21020099999986996
968,1,0.8,1.0,-35.0,-1,1.0,0.1970010000000002
969,1,0.8,0.0625,-35.0,-1,1.0,0.31700099999989106
970,1,0.8,0.25,-35.0,-1,1.0,0.2803009999997812
971,1,0.8,0.0625,-35.0,-1,1.0,0.1937009999996917
972,1,0.8,0.0,-35.0,-1,1.0,0.31720099999984086
973,1,0.8,1.0,-35.0,-1,1.0,0.1538009999994756
974,1,0.8,0.25,-35.0,-1,1.0,0.20050099999980375
975,1,0.8,1.0,-35.0,-1,1.0,0.17060099999980594
976,1,0.8,0.125,-35.0,-1,1.0,0.1773009999997157
977,1,0.8,0.0625,-35.0,-1,1.0,0.11210099999971135
978,1,0.8,0.125,-35.0,-1,1.0,0.18400100000008024
979,1,0.8,1.0,35.0,1,1.0,0.24740099999962695
980,1,0.8,0.0625,-35.0,1,0.0,0.16880099999980303
981,1,0.8,0.0625,-35.0,1,0.0,0.32760099999995873
982,1,0.8,0.0625,35.0,1,1.0,0.23770100000001548
983,1,0.8,1.0,35.0,1,1.0,0.21100099999966915
984,1,0.8,1.0,-35.0,-1,1.0,0.16440099999999802
985,1,0.8,0.125,35.0,1,1.0,0.22440099999994345
986,1,0.8,0.125,-35.0,-1,1.0,0.23450099999990925
987,1,0.8,0.125,-35.0,-1,1.0,0.22120100000029197
988,1,0.8,0.25,-35.0,-1,1.0,0.1812009999998736
989,1,0.8,0.0,-35.0,-1,1.0,0.15790100000003804
990,1,0.8,0.25,-35.0,-1,1.0,0.2047010000001137
991,1,0.8,0.125,35.0,-1,0.0,0.18810099999973318
992,1,0.8,1.0,-35.0,-1,1.0,0.1814009999998234
993,1,0.8,0.25,-35.0,-1,1.0,0.20810100000016973
994,1,0.8,0.125,-35.0,-1,1.0,0.24140100000022358
995,1,0.8,1.0,-35.0,-1,1.0,0.18490099999962695
996,1,0.8,0.125,-35.0,-1,1.0,0.364900999999918
997,1,0.8,0.25,-35.0,-1,1.0,0.1816009999997732
998,1,0.8,0.0,-35.0,-1,1.0,0.2550010000004477
999,1,0.8,1.0,-35.0,-1,1.0,0.181800999999723
1000,1,0.8,1.0,35.0,-1,0.0,0.18170099999997547
1001,1,0.8,0.25,-35.0,-1,1.0,0.20850099999961458
1002,1,0.8,0.0,-35.0,-1,1.0,0.21850099999983286
1003,1,0.8,0.125,35.0,-1,0.0,0.3052010000001246
1004,1,0.8,0.125,-35.0,-1,1.0,14.915401000000202
1005,1,0.8,0.0,-35.0,-1,1.0,1.2922010000002047
1006,1,0.8,0.125,-35.0,-1,1.0,9.01560100000006
1007,1,0.8,0.25,-35.0,-1,1.0,0.3491009999997914
1008,1,0.8,0.25,-35.0,-1,1.0,0.21580099999937374
1009,1,0.8,1.0,-35.0,-1,1.0,0.24920099999962986
1010,1,0.8,1.0,-35.0,-1,1.0,0.25920099999984814
1011,1,0.8,0.0625,-35.0,-1,1.0,0.25590099999953964
1012,1,0.8,1.0,-35.0,-1,1.0,0.19600100000025122
1013,1,0.8,0.25,-35.0,-1,1.0,0.33600099999966915
1014,1,0.8,0.0625,-35.0,-1,1.0,0.21940100000028906
1015,1,0.8,1.0,35.0,1,1.0,0.27280100000007224
1016,1,0.8,0.125,35.0,-1,0.0,35.85950099999991
1017,1,0.8,0.125,35.0,1,1.0,1.0333009999999376
1018,1,0.8,0.125,-35.0,-1,1.0,0.30670099999997547
1019,1,0.8,0.25,-35.0,-1,1.0,0.25670099999979357
1020,1,0.8,1.0,35.0,-1,0.0,14.076900999999907
1021,1,0.8,0.0,35.0,1,1.0,11.263800999999603
1022,1,0.8,0.125,-35.0,-1,1.0,7.540501000000404
1023,1,0.8,0.0625,35.0,-1,0.0,17.56070099999988
1024,1,0.8,1.0,35.0,-1,0.0,2.174301000000014
1025,1,0.8,0.125,-35.0,-1,1.0,1.6411010000001625
1026,1,0.8,0.0,-35.0,-1,1.0,1.151100999999926
1027,1,0.8,0.25,-35.0,-1,1.0,0.258701000000201
1028,1,0.8,0.125,35.0,-1,0.0,12.36790099999962
1029,1,0.8,1.0,-35.0,-1,1.0,0.2981009999998605
1030,1,0.8,0.0625,-35.0,-1,1.0,4.424801000000116
1031,1,0.8,1.0,35.0,-1,0.0,1.65820100000019
1032,1,0.8,0.0625,-35.0,-1,1.0,0.3850009999996473
1033,1,0.8,0.0625,-35.0,-1,1.0,4.87840099999994
1034,1,0.8,1.0,-35.0,-1,1.0,5.59190099999978
1035,1,0.8,0.0625,-35.0,-1,1.0,0.2519009999996342
1036,1,0.8,0.0625,-35.0,-1,1.0,13.712000999999873
1037,1,0.8,1.0,-35.0,-1,1.0,0.20220100000005914
1038,1,0.8,0.0625,-35.0,-1,1.0,2.9556009999996604
1039,1,0.8,0.0,35.0,-1,0.0,3.7989010000001144
1,2,0.5,0.0625,35.0,-1,0.0,0.37929999999999975
2,2,0.5,0.125,35.0,1,1.0,0.19919999999999938
3,2,0.5,0.0625,35.0,-1,0.0,0.21539999999999893
4,2,0.5,0.0,35.0,1,1.0,0.3133999999999979
5,2,0.5,0.0625,35.0,1,1.0,0.5413000000000032
6,2,0.5,0.125,-35.0,-1,1.0,0.25
7,2,0.5,0.125,-35.0,-1,1.0,0.2342000000000013
8,2,0.5,1.0,35.0,1,1.0,0.186399999999999
9,2,0.5,0.0625,-35.0,-1,1.0,0.022399999999997533
10,2,0.5,1.0,35.0,1,1.0,0.33610000000000184
11,2,0.5,0.125,-35.0,-1,1.0,0.23080000000000211
12,2,0.5,1.0,-35.0,-1,1.0,0.1348999999999947
13,2,0.5,0.25,35.0,1,1.0,0.20019999999999527
14,2,0.5,0.0,-35.0,1,0.0,0.1266999999999996
15,2,0.5,0.0625,35.0,1,1.0,0.24759999999999138
16,2,0.5,0.25,35.0,1,1.0,0.19310000000000116
17,2,0.5,0.0,-35.0,-1,1.0,0.240099999999984
18,2,0.5,0.25,-35.0,-1,1.0,0.17849999999998545
19,2,0.5,1.0,35.0,1,1.0,0.03239999999998133
20,2,0.5,0.125,-35.0,-1,1.0,0.19419999999999504
21,2,0.5,0.125,35.0,-1,0.0,0.10509999999999309
22,2,0.5,0.125,35.0,-1,0.0,0.10010000000001185
23,2,0.5,0.125,35.0,1,1.0,0.2411999999999921
24,2,0.5,0.25,35.0,1,1.0,0.17959999999999354
25,2,0.5,0.25,-35.0,-1,1.0,0.1589000000000027
26,2,0.5,0.0,-35.0,1,0.0,0.3125
27,2,0.5,1.0,-35.0,-1,1.0,0.1869999999999976
28,2,0.5,0.0625,35.0,1,1.0,0.20709999999999695
29,2,0.5,0.0625,35.0,1,1.0,0.07650000000001
30,2,0.5,0.125,-35.0,1,0.0,0.15179999999999438
31,2,0.5,1.0,35.0,1,1.0,0.15560000000000684
32,2,0.5,0.25,-35.0,-1,1.0,0.16899999999998272
33,2,0.5,1.0,35.0,1,1.0,0.10290000000000532
34,2,0.5,0.0625,35.0,-1,0.0,0.25140000000001805
35,2,0.5,0.0625,-35.0,1,0.0,0.16249999999999432
36,2,0.5,1.0,35.0,1,1.0,0.13810000000000855
37,2,0.5,0.0625,35.0,1,1.0,0.1337000000000046
38,2,0.5,0.25,35.0,1,1.0,0.15740000000002397
39,2,0.5,0.0625,35.0,1,1.0,0.12990000000002055
40,2,0.5,0.125,35.0,1,1.0,0.7615000000000123
41,2,0.5,0.0625,-35.0,-1,1.0,0.2557999999999936
42,2,0.5,1.0,35.0,1,1.0,0.13329999999999131
43,2,0.5,0.125,35.0,1,1.0,0.12800000000004275
44,2,0.5,0.125,35.0,1,1.0,0.1664000000000101
45,2,0.5,0.125,-35.0,1,0.0,0.11280000000002133
46,2,0.5,0.0625,-35.0,1,0.0,0.12450000000004025
47,2,0.5,1.0,35.0,-1,0.0,0.15860000000000696
48,2,0.5,1.0,-35.0,-1,1.0,0.18140000000002487
49,2,0.5,0.25,35.0,-1,0.0,0.151299999999992
50,2,0.5,1.0,35.0,1,1.0,0.125
51,2,0.5,0.25,35.0,-1,0.0,0.190400000000011
52,2,0.5,0.25,35.0,1,1.0,0.1564999999999941
53,2,0.5,0.25,-35.0,-1,1.0,0.2043000000000177
54,2,0.5,1.0,-35.0,-1,1.0,0.16210000000000946
55,2,0.5,0.0625,-35.0,1,0.0,0.15059999999999718
56,2,0.5,0.125,-35.0,1,0.0,0.12880000000004088
57,2,0.5,0.0625,-35.0,1,0.0,0.16540000000000532
58,2,0.5,0.25,35.0,1,1.0,0.14200000000002433
59,2,0.5,0.125,-35.0,-1,1.0,0.22270000000000323
60,2,0.5,0.0,35.0,1,1.0,0.11840000000000828
61,2,0.5,1.0,35.0,1,1.0,0.15210000000001855
62,2,0.5,1.0,-35.0,-1,1.0,0.16779999999999973
63,2,0.5,0.0625,-35.0,-1,1.0,0.2335999999999956
64,2,0.5,0.0625,-35.0,1,0.0,0.10969999999997526
65,2,0.5,1.0,-35.0,-1,1.0,0.18279999999998608
66,2,0.5,0.25,-35.0,-1,1.0,0.09960000000000946
67,2,0.5,1.0,35.0,1,1.0,0.13549999999997908
68,2,0.5,0.0625,-35.0,-1,1.0,0.19279999999992015
69,2,0.5,1.0,-35.0,-1,1.0,0.10939999999993688
70,2,0.5,1.0,-35.0,-1,1.0,0.14749999999997954
71,2,0.5,0.125,35.0,-1,0.0,0.14449999999999363
72,2,0.5,1.0,-35.0,-1,1.0,0.14959999999996398
73,2,0.5,0.125,35.0,-1,0.0,0.27909999999997126
74,2,0.5,0.125,-35.0,-1,1.0,0.15289999999993142
75,2,0.5,0.125,35.0,-1,0.0,0.13979999999997972
76,2,0.5,0.25,-35.0,-1,1.0,0.1531999999999698
77,2,0.5,0.25,35.0,-1,0.0,0.13459999999997763
78,2,0.5,0.25,-35.0,-1,1.0,0.19839999999999236
79,2,0.5,0.25,-35.0,-1,1.0,0.04770000000002028
80,2,0.5,0.0625,35.0,1,1.0,0.12199999999995725
81,2,0.5,1.0,35.0,1,1.0,0.14759999999995443
82,2,0.5,0.125,-35.0,-1,1.0,0.315400000000011
83,2,0.5,0.125,-35.0,-1,1.0,0.16199999999992087
84,2,0.5,1.0,35.0,1,1.0,0.24750000000000227
85,2,0.5,0.0,-35.0,-1,1.0,0.1904999999999859
86,2,0.5,0.0625,-35.0,-1,1.0,0.12139999999999418
87,2,0.5,0.0625,-35.0,1,0.0,0.144299999999987
88,2,0.5,0.125,35.0,1,1.0,0.07849999999990587
89,2,0.5,0.125,-35.0,-1,1.0,0.17719999999997071
90,2,0.5,0.25,35.0,1,1.0,0.17369999999999663
91,2,0.2,0.125,-35.0,-1,1.0,0.17390000000000327
92,2,0.2,0.125,35.0,-1,0.0,0.1735999999999649
93,2,0.2,1.0,35.0,1,1.0,0.16509999999999536
94,2,0.2,0.0,35.0,1,1.0,0.28160000000002583
95,2,0.2,0.125,35.0,1,1.0,0.13429999999993925
96,2,0.2,1.0,35.0,1,1.0,0.17000000000001592
97,2,0.2,0.25,-35.0,-1,1.0,0.23759999999998627
98,2,0.2,0.125,35.0,1,1.0,0.230700000000013
99,2,0.2,1.0,35.0,1,1.0,0.20290000000005648
100,2,0.2,0.125,-35.0,-1,1.0,0.28249999999997044
101,2,0.2,0.125,-35.0,-1,1.0,0.22969999999992297
102,2,0.2,0.25,35.0,1,1.0,0.11700000000001864
103,2,0.2,0.25,-35.0,-1,1.0,0.15519999999997935
104,2,0.2,0.0,35.0,1,1.0,0.19589999999999463
105,2,0.2,1.0,35.0,1,1.0,0.28530000000000655
106,2,0.2,0.125,35.0,1,1.0,0.09799999999995634
107,2,0.2,0.0625,35.0,1,1.0,0.13769999999999527
108,2,0.2,0.25,35.0,1,1.0,0.05649999999997135
109,2,0.2,1.0,35.0,1,1.0,0.12020000000001119
110,2,0.2,0.0,-35.0,1,0.0,0.036300000000039745
111,2,0.2,0.0625,35.0,1,1.0,0.09899999999998954
112,2,0.2,0.25,-35.0,1,0.0,0.09820000000001983
113,2,0.2,0.0625,35.0,1,1.0,0.2627000000000521
114,2,0.2,1.0,35.0,1,1.0,0.1249000000000251
115,2,0.2,0.0625,35.0,1,1.0,0.11910000000000309
116,2,0.2,0.0625,35.0,1,1.0,0.11230000000000473
117,2,0.2,1.0,35.0,1,1.0,0.134900000000016
118,2,0.2,0.125,35.0,1,1.0,0.10719999999992069
119,2,0.2,0.125,35.0,1,1.0,0.15160000000003038
120,2,0.2,1.0,35.0,1,1.0,0.08649999999994407
121,2,0.2,0.0,35.0,1,1.0,0.15270000000003847
122,2,0.2,0.25,35.0,1,1.0,0.1308000000001357
123,2,0.2,0.0625,35.0,1,1.0,0.10830000000009932
124,2,0.2,1.0,-35.0,-1,1.0,0.1852000000001226
125,2,0.2,0.25,35.0,1,1.0,0.24289999999996326
126,2,0.2,0.125,35.0,1,1.0,0.4620000000001028
127,2,0.2,0.0625,35.0,1,1.0,0.11660000000006221
128,2,0.2,0.25,35.0,1,1.0,0.15070000000002892
129,2,0.2,1.0,35.0,1,1.0,0.14130000000011478
130,2,0.2,0.125,35.0,1,1.0,0.12579999999991287
131,2,0.2,0.0625,35.0,1,1.0,0.10249999999996362
132,2,0.2,0.25,35.0,1,1.0,0.11290000000008149
133,2,0.2,0.0625,-35.0,1,0.0,0.12110000000006949
134,2,0.2,0.125,35.0,1,1.0,0.2807000000000244
135,2,0.2,1.0,-35.0,-1,1.0,0.2820000000001528
136,2,0.2,0.25,-35.0,1,0.0,0.10090000000002419
137,2,0.2,0.0625,35.0,1,1.0,0.09180000000003474
138,2,0.2,0.0,-35.0,-1,1.0,0.19429999999999836
139,2,0.2,0.0625,35.0,1,1.0,0.12250000000005912
140,2,0.2,0.25,35.0,1,1.0,0.14810000000011314
141,2,0.2,0.125,35.0,1,1.0,0.12580000000002656
142,2,0.2,1.0,35.0,1,1.0,0.11789999999996326
143,2,0.2,0.0625,35.0,1,1.0,0.1309999999999718
144,2,0.2,0.125,35.0,1,1.0,0.10500000000001819
145,2,0.2,1.0,35.0,1,1.0,0.15470000000004802
146,2,0.2,1.0,35.0,1,1.0,0.13800000000003365
147,2,0.2,0.125,35.0,1,1.0,0.23280000000011114
148,2,0.2,1.0,35.0,1,1.0,0.21370000000013079
149,2,0.2,0.25,35.0,1,1.0,0.24670000000014625
150,2,0.2,0.125,35.0,1,1.0,0.08519999999998618
151,2,0.2,0.125,35.0,1,1.0,0.09130000000004657
152,2,0.8,0.125,-35.0,1,0.0,0.13200000000006185
153,2,0.8,0.0625,-35.0,1,0.0,0.10020000000008622
154,2,0.8,0.125,-35.0,-1,1.0,0.1815000000000282
155,2,0.8,0.25,-35.0,1,0.0,0.13570000000004256
156,2,0.8,0.125,35.0,1,1.0,0.5588999999999942
157,2,0.8,0.0,-35.0,1,0.0,0.11620000000004893
158,2,0.8,0.25,-35.0,1,0.0,0.02430000000003929
159,2,0.8,0.25,-35.0,-1,1.0,0.19270000000017262
160,2,0.8,1.0,35.0,1,1.0,0.1530000000001337
161,2,0.8,0.125,-35.0,1,0.0,0.1432000000000926
162,2,0.8,1.0,-35.0,-1,1.0,0.1655999999999267
163,2,0.8,0.125,-35.0,1,0.0,0.4411000000000058
164,2,0.8,1.0,-35.0,-1,1.0,0.19060000000001764
165,2,0.8,1.0,-35.0,-1,1.0,0.1956000000000131
166,2,0.8,0.125,-35.0,-1,1.0,0.22500000000002274
167,2,0.8,0.0625,-35.0,-1,1.0,0.39179999999998927
168,2,0.8,0.0625,-35.0,-1,1.0,0.29520000000002256
169,2,0.8,0.125,-35.0,-1,1.0,0.2578999999999496
170,2,0.8,0.25,-35.0,-1,1.0,0.20109999999999673
171,2,0.8,0.125,-35.0,-1,1.0,0.3330000000000837
172,2,0.8,1.0,-35.0,-1,1.0,0.17709999999999582
173,2,0.8,1.0,-35.0,-1,1.0,0.09620000000006712
174,2,0.8,0.0625,-35.0,-1,1.0,0.17870000000004893
175,2,0.8,0.25,35.0,-1,0.0,0.11469999999997071
176,2,0.8,0.25,35.0,1,1.0,0.23640000000000327
177,2,0.8,0.0,-35.0,1,0.0,0.35009999999999764
178,2,0.8,0.0625,-35.0,1,0.0,0.1490999999999758
179,2,0.8,0.0625,-35.0,-1,1.0,0.17690000000004602
180,2,0.8,0.125,35.0,-1,0.0,0.3609000000000151
181,2,0.8,0.0625,-35.0,-1,1.0,0.31900000000007367
182,2,0.8,0.0625,-35.0,-1,1.0,0.3288000000000011
183,2,0.8,1.0,-35.0,-1,1.0,0.18029999999998836
184,2,0.8,0.125,35.0,-1,0.0,0.16660000000001673
185,2,0.8,0.25,-35.0,-1,1.0,0.18870000000003984
186,2,0.8,0.0,-35.0,1,0.0,0.18679999999994834
187,2,0.8,1.0,-35.0,-1,1.0,0.16610000000002856
188,2,0.8,0.0,-35.0,-1,1.0,0.21110000000010132
189,2,0.8,0.125,-35.0,-1,1.0,0.19230000000004566
190,2,0.8,0.25,35.0,-1,0.0,0.15629999999998745
191,2,0.8,0.0625,35.0,-1,0.0,0.17250000000001364
192,2,0.8,1.0,35.0,1,1.0,0.19180000000005748
193,2,0.8,0.25,-35.0,1,0.0,0.10320000000001528
194,2,0.8,0.125,35.0,-1,0.0,0.14190000000007785
195,2,0.8,0.125,-35.0,-1,1.0,0.39770000000009986
196,2,0.8,0.0625,-35.0,-1,1.0,0.27769999999998163
197,2,0.8,0.0625,-35.0,-1,1.0,0.24919999999997344
198,2,0.8,1.0,-35.0,-1,1.0,0.16760000000010677
199,2,0.8,0.25,-35.0,-1,1.0,0.04529999999999745
200,2,0.8,1.0,-35.0,-1,1.0,0.12850000000003092
201,2,0.8,0.0,-35.0,-1,1.0,0.18060000000002674
202,2,0.8,0.25,-35.0,-1,1.0,0.15030000000001564
203,2,0.8,0.0625,-35.0,-1,1.0,0.143100000000004
204,2,0.8,1.0,-35.0,-1,1.0,0.10789999999997235
205,2,0.8,0.25,-35.0,-1,1.0,0.056400000000053296
206,2,0.8,0.125,-35.0,-1,1.0,0.17160000000012587
207,2,0.8,0.125,-35.0,-1,1.0,0.16640000000006694
208,2,0.8,0.0,-35.0,1,0.0,0.19780000000002929
209,2,0.8,0.0625,-35.0,-1,1.0,0.35360000000002856
210,2,0.8,0.0,35.0,-1,0.0,0.003399999999942338
211,2,0.8,0.25,-35.0,-1,1.0,0.14600000000007185
212,2,0.2,0.125,35.0,-1,0.0,0.32540000000005875
213,2,0.2,0.125,35.0,-1,0.0,0.13990000000001146
214,2,0.2,0.0625,35.0,-1,0.0,0.15750000000002728
215,2,0.2,0.0625,35.0,-1,0.0,0.16499999999996362
216,2,0.2,0.25,35.0,1,1.0,0.21700000000009823
217,2,0.2,1.0,35.0,1,1.0,0.014499999999998181
218,2,0.2,0.25,-35.0,1,0.0,0.16240000000004784
219,2,0.2,0.0,-35.0,1,0.0,0.13770000000010896
220,2,0.2,1.0,-35.0,-1,1.0,0.17380000000002838
221,2,0.2,0.125,35.0,-1,0.0,0.1515999999999167
222,2,0.2,1.0,35.0,1,1.0,0.16380000000003747
223,2,0.2,0.25,35.0,1,1.0,0.26279999999997017
224,2,0.2,0.0,-35.0,1,0.0,0.10850000000004911
225,2,0.2,0.25,35.0,1,1.0,0.3001000000000431
226,2,0.2,1.0,35.0,1,1.0,0.2784000000000333
227,2,0.2,1.0,-35.0,-1,1.0,0.1995000000000573
228,2,0.2,0.25,35.0,1,1.0,0.10940000000005057
229,2,0.2,0.25,35.0,1,1.0,0.1451000000000704
230,2,0.2,0.125,35.0,1,1.0,0.10860000000002401
231,2,0.2,1.0,-35.0,-1,1.0,0.22059999999999036
232,2,0.2,0.0,35.0,-1,0.0,0.26080000000013115
233,2,0.2,0.25,35.0,1,1.0,0.360700000000179
234,2,0.2,0.0625,35.0,-1,0.0,0.17060000000003583
235,2,0.2,0.125,35.0,1,1.0,0.1607000000001335
236,2,0.2,0.0625,35.0,1,1.0,0.12750000000005457
237,2,0.2,0.25,35.0,1,1.0,0.14760000000012496
238,2,0.2,0.0,35.0,1,1.0,0.11080100000003767
239,2,0.2,1.0,35.0,1,1.0,0.1044009999999389
240,2,0.2,0.125,-35.0,1,0.0,0.09760099999971317
241,2,0.2,0.0625,35.0,1,1.0,0.10760100000015882
242,2,0.2,1.0,35.0,1,1.0,0.12100099999997838
243,2,0.2,1.0,35.0,1,1.0,0.1145010000000184
244,2,0.2,0.25,35.0,1,1.0,0.08790099999987433
245,2,0.2,1.0,35.0,1,1.0,0.10820099999978083
246,2,0.2,0.0,35.0,1,1.0,0.007800999999744818
247,2,0.2,0.0,-35.0,1,0.0,0.10480099999995218
248,2,0.2,0.0,35.0,1,1.0,0.2680009999999129
249,2,0.2,0.125,35.0,1,1.0,0.08120099999973718
250,2,0.2,0.0625,35.0,1,1.0,0.22130099999981212
251,2,0.2,0.0625,-35.0,1,0.0,0.0850009999996928
252,2,0.2,1.0,35.0,1,1.0,0.12160099999982776
253,2,0.2,0.125,-35.0,1,0.0,0.12510100000008606
254,2,0.2,1.0,35.0,1,1.0,0.12200099999972736
255,2,0.2,0.25,35.0,1,1.0,0.0882010000000264
256,2,0.2,0.0625,-35.0,1,0.0,0.05890099999987797
257,2,0.2,1.0,-35.0,-1,1.0,0.2353009999999358
258,2,0.2,1.0,35.0,1,1.0,0.15530100000000857
259,2,0.2,0.0,35.0,1,1.0,0.09880100000009406
260,2,0.2,0.0625,-35.0,1,0.0,0.1287009999998645
261,2,0.2,0.125,35.0,1,1.0,0.11590099999989434
262,2,0.2,0.125,35.0,1,1.0,0.2620009999998274
263,2,0.2,1.0,35.0,1,1.0,0.11560099999996964
264,2,0.2,0.125,-35.0,1,0.0,0.10910100000000966
265,2,0.2,0.0625,-35.0,-1,1.0,0.4587010000000191
266,2,0.2,1.0,35.0,1,1.0,0.09220099999993181
267,2,0.2,0.0625,35.0,1,1.0,0.14590100000009443
268,2,0.2,0.0,35.0,1,1.0,0.09570099999973536
269,2,0.2,0.125,35.0,1,1.0,0.20920100000012098
270,2,0.2,0.0625,35.0,1,1.0,0.08580099999994673
271,2,0.2,1.0,35.0,1,1.0,0.13260099999979502
272,2,0.2,1.0,35.0,1,1.0,0.10290099999997437
273,2,0.8,0.0625,-35.0,-1,1.0,0.6260009999998601
274,2,0.8,0.0,35.0,-1,0.0,0.43990099999996346
275,2,0.8,1.0,-35.0,-1,1.0,0.11980100000005223
276,2,0.8,0.125,-35.0,-1,1.0,0.21610099999998056
277,2,0.8,0.0,35.0,-1,0.0,0.779500999999982
278,2,0.8,0.25,-35.0,1,0.0,0.15980100000001585
279,2,0.8,0.125,-35.0,-1,1.0,0.1531009999998787
280,2,0.8,0.125,-35.0,-1,1.0,0.2233009999999922
281,2,0.8,0.0625,-35.0,1,0.0,0.1264009999999871
282,2,0.8,0.25,35.0,1,1.0,0.16320100000007187
283,2,0.8,0.125,35.0,1,1.0,0.13000099999976555
284,2,0.8,1.0,-35.0,-1,1.0,0.1468009999998685
285,2,0.8,1.0,-35.0,-1,1.0,0.1870010000000093
286,2,0.8,0.25,-35.0,-1,1.0,0.15370099999995546
287,2,0.8,1.0,-35.0,-1,1.0,0.17030100000010862
288,2,0.8,0.0625,-35.0,1,0.0,0.18010099999992235
289,2,0.8,0.125,35.0,-1,0.0,0.12670100000013917
290,2,0.8,0.25,-35.0,1,0.0,0.13030099999991762
291,2,0.8,0.125,-35.0,1,0.0,0.1270009999998365
292,2,0.8,1.0,-35.0,-1,1.0,0.20390099999985978
293,2,0.8,1.0,-35.0,-1,1.0,0.18050100000004932
294,2,0.8,0.125,35.0,1,1.0,0.25050099999998565
295,2,0.8,0.0625,-35.0,-1,1.0,0.3240010000001803
296,2,0.8,1.0,-35.0,-1,1.0,0.20050099999980375
297,2,0.8,0.0625,-35.0,1,0.0,0.12410099999988233
298,2,0.8,0.0625,-35.0,1,0.0,0.11050099999988561
299,2,0.8,1.0,-35.0,-1,1.0,0.1608009999999922
300,2,0.8,0.125,-35.0,-1,1.0,0.17410099999983686
301,2,0.8,1.0,-35.0,-1,1.0,0.20070099999998092
302,2,0.8,0.125,-35.0,-1,1.0,0.12100099999997838
303,2,0.8,0.25,35.0,-1,0.0,0.2642009999999573
304,2,0.8,0.25,35.0,1,1.0,0.24110099999984413
305,2,0.8,0.125,-35.0,-1,1.0,0.17760099999986778
306,2,0.8,0.25,-35.0,-1,1.0,0.19420100000002094
307,2,0.8,0.25,-35.0,-1,1.0,0.17450099999996382
308,2,0.8,0.0,-35.0,-1,1.0,0.1712009999998827
309,2,0.8,0.125,35.0,-1,0.0,0.48460099999988415
310,2,0.8,1.0,-35.0,-1,1.0,0.19470099999989543
311,2,0.8,1.0,-35.0,-1,1.0,0.16470099999992271
312,2,0.8,0.0625,35.0,1,1.0,0.18130100000007587
313,2,0.8,0.0,-35.0,1,0.0,0.5646009999998114
314,2,0.8,0.25,-35.0,-1,1.0,0.24490099999979975
315,2,0.8,1.0,-35.0,-1,1.0,0.15170099999977538
316,2,0.8,0.25,35.0,1,1.0,0.17830099999991944
317,2,0.8,0.0625,-35.0,1,0.0,0.17170099999998456
318,2,0.8,0.125,-35.0,1,0.0,0.19850099999985105
319,2,0.8,0.0625,35.0,1,1.0,0.2884009999997943
320,2,0.8,0.0625,-35.0,1,0.0,0.12820099999999002
321,2,0.8,0.125,-35.0,-1,1.0,0.22850099999982376
322,2,0.8,0.25,-35.0,-1,1.0,0.19860099999982594
323,2,0.8,0.125,35.0,-1,0.0,0.19850099999985105
324,2,0.8,0.125,35.0,1,1.0,0.1953009999999722
325,2,0.8,0.125,-35.0,-1,1.0,0.15870099999983722
326,2,0.8,0.0,-35.0,1,0.0,0.12880100000006678
327,2,0.8,1.0,-35.0,-1,1.0,0.1589010000000144
328,2,0.8,1.0,35.0,1,1.0,0.15230099999985214
329,2,0.8,0.0,-35.0,1,0.0,0.2755009999998492
330,2,0.8,0.125,35.0,1,1.0,0.2758010000000013
331,2,0.8,1.0,35.0,1,1.0,0.14540099999999256
332,2,0.8,0.0625,-35.0,-1,1.0,0.30240100000014536
333,2,0.8,0.25,35.0,1,1.0,0.09890099999984159
334,2,0.8,1.0,-35.0,-1,1.0,0.212601000000177
335,2,0.8,1.0,-35.0,-1,1.0,0.1064010000000053
336,2,0.8,0.25,-35.0,-1,1.0,0.1626009999999951
337,2,0.8,0.0625,-35.0,-1,1.0,0.22270099999991544
338,2,0.8,0.25,-35.0,-1,1.0,0.1893009999998867
339,2,0.8,0.0625,-35.0,-1,1.0,0.08610099999987142
340,2,0.8,0.25,-35.0,-1,1.0,0.10970100000008642
341,2,0.8,0.0625,-35.0,-1,1.0,0.0664009999998143
342,2,0.8,0.125,-35.0,-1,1.0,0.01630099999988488
343,2,0.8,0.125,-35.0,-1,1.0,0.1730009999998856
344,2,0.2,0.125,35.0,-1,0.0,0.17990099999997256
345,2,0.2,1.0,35.0,1,1.0,0.08330099999989216
346,2,0.2,0.0,-35.0,-1,1.0,0.3100010000000566
347,2,0.2,0.25,35.0,-1,0.0,0.2231010000000424
348,2,0.2,0.25,35.0,1,1.0,0.2965009999998074
349,2,0.2,0.125,35.0,-1,0.0,0.41300099999966733
350,2,0.2,1.0,-35.0,-1,1.0,0.16680099999985032
351,2,0.2,0.25,35.0,1,1.0,0.17010099999970407
352,2,0.2,0.0,35.0,1,1.0,0.11000100000001112
353,2,0.2,0.25,35.0,1,1.0,0.09700100000009115
354,2,0.2,0.0,35.0,1,1.0,0.1734009999997852
355,2,0.2,0.25,-35.0,1,0.0,0.1168009999998958
356,2,0.2,0.0625,35.0,-1,0.0,0.1470009999998183
357,2,0.2,0.25,35.0,1,1.0,0.2072009999999409
358,2,0.2,0.25,35.0,1,1.0,0.11720100000002276
359,2,0.2,0.125,35.0,1,1.0,0.09720100000004095
360,2,0.2,0.25,-35.0,1,0.0,0.09410099999990962
361,2,0.2,1.0,35.0,1,1.0,0.09760100000016791
362,2,0.2,0.0625,35.0,1,1.0,0.3039009999999962
363,2,0.2,0.25,35.0,1,1.0,0.1772009999999682
364,2,0.2,0.25,35.0,1,1.0,0.10420099999987542
365,2,0.2,0.125,-35.0,1,0.0,0.1546009999999569
366,2,0.2,0.25,35.0,1,1.0,0.13410099999987324
367,2,0.2,1.0,35.0,1,1.0,0.11770099999989725
368,2,0.2,1.0,-35.0,1,0.0,0.11090100000001257
369,2,0.8,1.0,-35.0,-1,1.0,0.1909009999999398
370,2,0.8,0.25,-35.0,-1,1.0,0.19460099999969316
371,2,0.8,0.0625,35.0,-1,0.0,0.13140100000009625
372,2,0.8,0.25,-35.0,1,0.0,0.11810099999979684
373,2,0.8,0.25,-35.0,-1,1.0,0.22480100000007042
374,2,0.8,0.0625,-35.0,1,0.0,0.15820099999996273
375,2,0.8,0.125,-35.0,1,0.0,0.13130100000012135
376,2,0.8,0.25,35.0,1,1.0,0.1481010000002243
377,2,0.8,0.125,-35.0,-1,1.0,0.20830099999989216
378,2,0.8,0.0,-35.0,1,0.0,0.058500999999751
379,2,0.8,1.0,35.0,1,1.0,0.17490099999986342
380,2,0.8,0.0625,-35.0,-1,1.0,0.561900999999807
381,2,0.8,0.25,-35.0,-1,1.0,0.17200099999990925
382,2,0.8,0.125,-35.0,1,0.0,0.12200099999995473
383,2,0.8,0.25,-35.0,-1,1.0,0.14180099999975937
384,2,0.8,0.25,35.0,1,1.0,0.1786010000000715
385,2,0.8,0.125,-35.0,1,0.0,0.13890100000003258
386,2,0.8,0.0625,-35.0,-1,1.0,0.15240099999982704
387,2,0.8,1.0,-35.0,-1,1.0,0.17190099999993436
388,2,0.8,1.0,-35.0,-1,1.0,0.1489010000000235
389,2,0.8,0.125,35.0,-1,0.0,0.025900999999976193
390,2,0.8,1.0,-35.0,-1,1.0,0.16880099999980303
391,2,0.8,0.0,-35.0,-1,1.0,0.17590099999983977
392,2,0.8,0.25,-35.0,-1,1.0,0.21590100000003076
393,2,0.8,0.125,-35.0,-1,1.0,0.16250099999979284
394,2,0.8,0.25,-35.0,-1,1.0,0.14570099999991726
395,2,0.8,0.0625,-35.0,-1,1.0,0.14940100000012535
396,2,0.8,1.0,-35.0,-1,1.0,0.15940100000011626
397,2,0.8,0.125,35.0,1,1.0,0.2129010000001017
398,2,0.8,0.125,-35.0,-1,1.0,0.19960100000002967
399,2,0.8,0.25,35.0,-1,0.0,0.17290099999968334
400,2,0.8,0.25,-35.0,-1,1.0,0.11980099999982485
401,2,0.8,1.0,35.0,1,1.0,0.2031010000000606
402,2,0.8,1.0,-35.0,-1,1.0,0.1629009999999198
403,2,0.8,1.0,-35.0,-1,1.0,0.15970099999981358
404,2,0.8,0.25,-35.0,-1,1.0,0.1830009999998765
405,2,0.8,0.0625,-35.0,-1,1.0,0.16000099999996564
406,2,0.8,0.125,-35.0,-1,1.0,0.25700099999994563
407,2,0.8,0.25,-35.0,-1,1.0,0.13680100000010498
408,2,0.8,1.0,35.0,1,1.0,0.10010099999976774
409,2,0.2,0.25,35.0,1,1.0,0.5036009999998896
410,2,0.2,0.25,35.0,1,1.0,0.36350100000004204
411,2,0.2,0.125,35.0,1,1.0,0.300300999999763
412,2,0.2,0.0625,35.0,1,1.0,0.5672010000000682
413,2,0.2,0.25,35.0,1,1.0,0.11360099999978956
414,2,0.2,0.0625,35.0,-1,0.0,0.2069010000000162
415,2,0.2,0.25,35.0,1,1.0,0.23060099999997874
416,2,0.2,1.0,35.0,1,1.0,0.04070099999989907
417,2,0.2,0.125,35.0,-1,0.0,0.37730099999998856
418,2,0.2,0.0,35.0,-1,0.0,0.14400099999988925
419,2,0.2,0.25,35.0,1,1.0,0.11390099999994163
420,2,0.2,0.0625,35.0,1,1.0,0.157200999999759
421,2,0.2,0.0,35.0,1,1.0,0.15740099999993618
422,2,0.2,0.25,35.0,1,1.0,0.0074010000000725995
423,2,0.2,0.25,35.0,1,1.0,0.007400999999845226
424,2,0.2,1.0,-35.0,1,0.0,0.1009009999997943
425,2,0.2,0.25,35.0,1,1.0,0.13460099999974773
426,2,0.2,0.125,35.0,1,1.0,0.15790100000003804
427,2,0.2,0.0625,35.0,1,1.0,0.1247009999999591
428,2,0.2,0.125,35.0,1,1.0,0.12810099999978775
429,2,0.2,0.0625,35.0,1,1.0,0.08130099999993945
430,2,0.2,0.25,-35.0,-1,1.0,0.09140099999990525
431,2,0.8,1.0,-35.0,1,0.0,0.08810099999982413
432,2,0.8,0.0,-35.0,1,0.0,0.2817010000001119
433,2,0.8,1.0,-35.0,-1,1.0,0.20470099999988633
434,2,0.8,0.25,-35.0,-1,1.0,0.2151010000000042
435,2,0.8,0.125,-35.0,1,0.0,0.048100999999860505
436,2,0.8,0.0625,35.0,1,1.0,0.21850099999983286
437,2,0.8,1.0,-35.0,1,0.0,0.15840099999968515
438,2,0.8,1.0,-35.0,-1,1.0,0.19510099999979502
439,2,0.8,1.0,-35.0,-1,1.0,0.24850100000003295
440,2,0.8,0.0625,-35.0,1,0.0,0.10230100000012499
441,2,0.8,1.0,-35.0,-1,1.0,0.19830099999990125
442,2,0.8,0.25,-35.0,-1,1.0,0.16220099999986815
443,2,0.8,0.125,35.0,1,1.0,0.22180100000014136
444,2,0.8,1.0,-35.0,-1,1.0,0.1888010000000122
445,2,0.8,0.0,35.0,1,1.0,0.13190099999997074
446,2,0.8,1.0,35.0,1,1.0,0.12890100000004168
447,2,0.8,0.0625,-35.0,1,0.0,0.1655009999997219
448,2,0.8,0.25,35.0,-1,0.0,0.1690009999999802
449,2,0.8,0.25,-35.0,-1,1.0,0.19250099999976555
450,2,0.8,0.0625,-35.0,-1,1.0,0.24210100000004786
451,2,0.8,1.0,-35.0,-1,1.0,0.17260099999975864
452,2,0.8,0.25,35.0,1,1.0,0.1492009999997208
453,2,0.8,0.125,-35.0,-1,1.0,0.24240099999997256
454,2,0.8,1.0,35.0,1,1.0,0.11250099999983831
455,2,0.8,0.0625,-35.0,1,0.0,0.2494010000000344
456,2,0.8,0.125,35.0,1,1.0,0.13930099999993217
457,2,0.8,0.25,-35.0,1,0.0,0.012900999999828855
458,2,0.8,0.125,-35.0,-1,1.0,0.3164009999998143
459,2,0.2,0.0625,35.0,1,1.0,0.16940100000010716
460,2,0.2,0.0625,35.0,1,1.0,0.09950100000014572
461,2,0.2,0.125,35.0,1,1.0,0.14640099999996892
462,2,0.2,0.25,35.0,-1,0.0,0.14640099999974154
463,2,0.2,0.125,-35.0,-1,1.0,0.18630099999995764
464,2,0.2,0.125,35.0,1,1.0,0.10340099999984886
465,2,0.2,1.0,35.0,1,1.0,0.07000099999982012
466,2,0.2,0.125,35.0,1,1.0,0.13980100000003404
467,2,0.2,0.0625,35.0,1,1.0,0.05010099999981321
468,2,0.2,0.0625,35.0,1,1.0,0.09000099999980193
469,2,0.2,0.0,35.0,1,1.0,0.1368009999998776
470,2,0.2,0.25,35.0,1,1.0,0.12660100000016428
471,2,0.2,0.125,35.0,1,1.0,0.09350100000006023
472,2,0.2,0.0,35.0,1,1.0,0.11340099999983977
473,2,0.2,0.0625,35.0,1,1.0,0.020500999999967462
474,2,0.2,1.0,-35.0,1,0.0,0.13370099999974627
475,2,0.2,0.125,35.0,1,1.0,0.12060099999962404
476,2,0.2,0.125,35.0,1,1.0,0.07700100000010934
477,2,0.2,0.25,35.0,1,1.0,0.00040100000023812754
478,2,0.2,0.125,35.0,1,1.0,0.017000999999709165
479,2,0.2,0.0,35.0,1,1.0,0.08040099999971062
480,2,0.2,0.25,35.0,1,1.0,0.10060099999964223
481,2,0.2,0.25,-35.0,1,0.0,0.1106009999998605
482,2,0.2,0.0625,35.0,-1,0.0,0.1976009999998496
483,2,0.2,1.0,35.0,1,1.0,0.15080099999977392
484,2,0.2,0.25,35.0,1,1.0,0.23740099999986342
485,2,0.2,0.0625,35.0,1,1.0,0.12120099999992817
486,2,0.2,1.0,35.0,1,1.0,0.13110099999994418
487,2,0.2,0.25,35.0,1,1.0,0.1213009999996757
488,2,0.2,0.125,35.0,1,1.0,0.10470099999974991
489,2,0.2,0.0625,35.0,1,1.0,0.08460099999956583
490,2,0.2,0.25,35.0,1,1.0,0.09120099999972808
491,2,0.2,1.0,-35.0,1,0.0,0.03150099999947997
492,2,0.2,0.125,-35.0,1,0.0,0.10150100000009843
493,2,0.2,0.125,35.0,-1,0.0,0.10160099999984595
494,2,0.2,0.0625,35.0,1,1.0,0.20830099999966478
495,2,0.2,0.25,35.0,1,1.0,0.10160099999984595
496,2,0.2,1.0,35.0,1,1.0,0.06540099999983795
497,2,0.2,1.0,35.0,1,1.0,0.11530100000027232
498,2,0.2,0.0625,35.0,1,1.0,0.13510100000030434
499,2,0.2,0.0625,35.0,1,1.0,0.11540100000001985
500,2,0.2,1.0,35.0,1,1.0,0.09530100000029051
501,2,0.2,0.0,35.0,1,1.0,0.11860100000012608
502,2,0.2,0.125,35.0,1,1.0,0.08870099999967351
503,2,0.2,1.0,35.0,1,1.0,0.08890100000007806
504,2,0.2,0.0,35.0,1,1.0,0.09880100000009406
505,2,0.2,1.0,-35.0,1,0.0,0.08570099999997183
506,2,0.2,0.25,35.0,1,1.0,0.14230099999986123
507,2,0.2,0.0625,35.0,1,1.0,0.01580100000001039
508,2,0.2,0.0,-35.0,1,0.0,0.04570100000000821
509,2,0.2,0.25,35.0,1,1.0,0.1060010000001057
510,2,0.2,0.25,35.0,1,1.0,0.12920100000019374
511,2,0.2,0.125,-35.0,1,0.0,0.08290099999976519
512,2,0.2,0.125,35.0,1,1.0,0.13600099999985105
513,2,0.2,0.25,35.0,1,1.0,0.11290099999951053
514,2,0.2,0.0,35.0,1,1.0,0.11290100000042003
515,2,0.2,0.25,35.0,1,1.0,0.07630100000005768
516,2,0.2,0.125,35.0,1,1.0,0.05620100000032835
517,2,0.2,0.0625,35.0,1,1.0,0.12980100000004313
518,2,0.2,0.125,35.0,1,1.0,0.08630099999982122
519,2,0.8,0.0,-35.0,1,0.0,0.08610099999941667
520,2,0.8,0.0,-35.0,-1,1.0,0.3830009999996946
521,2,0.8,0.0625,35.0,1,1.0,0.0963010000000395
522,2,0.8,1.0,-35.0,1,0.0,0.10980099999960657
523,2,0.8,0.25,-35.0,-1,1.0,0.2970009999994545
524,2,0.8,0.0625,-35.0,-1,1.0,0.2931010000002061
525,2,0.8,0.125,-35.0,-1,1.0,0.28000099999962913
526,2,0.8,0.0625,-35.0,1,0.0,0.1132009999996626
527,2,0.8,1.0,35.0,1,1.0,0.10680099999990489
528,2,0.8,0.0,-35.0,1,0.0,0.11020099999950617
529,2,0.8,0.0,-35.0,1,0.0,0.11720100000002276
530,2,0.8,0.0,-35.0,1,0.0,0.12350100000003295
531,2,0.8,0.125,-35.0,1,0.0,0.12730099999998856
532,2,0.8,0.0625,35.0,1,1.0,0.12030099999992672
533,2,0.8,0.125,-35.0,1,0.0,0.09400099999993472
534,2,0.8,0.0625,-35.0,1,0.0,0.09400099999993472
535,2,0.8,0.125,-35.0,-1,1.0,0.25390099999958693
536,2,0.8,1.0,-35.0,1,0.0,0.10410099999990052
537,2,0.8,0.125,-35.0,-1,1.0,0.2509009999994305
538,2,0.8,1.0,-35.0,-1,1.0,0.170900999999958
539,2,0.8,0.25,35.0,1,1.0,0.1077009999994516
540,2,0.8,0.0,-35.0,1,0.0,0.1145010000000184
541,2,0.2,0.125,35.0,-1,0.0,0.15470100000038656
542,2,0.2,0.125,35.0,1,1.0,0.1246009999999842
543,2,0.2,0.125,35.0,1,1.0,0.12110100000018065
544,2,0.2,0.25,35.0,1,1.0,0.1009009999997943
545,2,0.2,1.0,35.0,1,1.0,0.0781010000000606
546,2,0.2,0.0625,35.0,1,1.0,0.10480099999995218
547,2,0.2,0.125,-35.0,1,0.0,0.1250009999998838
548,2,0.2,0.0625,35.0,1,1.0,0.12840099999948507
549,2,0.2,0.25,-35.0,1,0.0,0.07830100000046514
550,2,0.2,0.125,35.0,1,1.0,0.22840099999984886
551,2,0.2,0.125,35.0,1,1.0,0.16500100000030216
552,2,0.2,1.0,-35.0,1,0.0,0.07850099999996019
553,2,0.2,1.0,35.0,1,1.0,0.11160100000006423
554,2,0.2,0.0625,35.0,1,1.0,0.1351009999998496
555,2,0.2,1.0,35.0,1,1.0,0.1452009999998154
556,2,0.2,1.0,35.0,1,1.0,0.13850099999990562
557,2,0.2,0.125,-35.0,1,0.0,0.1152009999996153
558,2,0.2,0.0625,35.0,1,1.0,0.10530100000005405
559,2,0.2,0.0625,35.0,1,1.0,0.12850100000014208
560,2,0.2,0.25,-35.0,1,0.0,0.11520100000007005
561,2,0.2,0.0625,35.0,1,1.0,0.09870099999943704
562,2,0.2,0.0625,35.0,1,1.0,0.13540100000000166
563,2,0.2,1.0,-35.0,1,0.0,0.09930099999974118
564,2,0.2,0.0,-35.0,1,0.0,0.10930099999950471
565,2,0.2,1.0,35.0,1,1.0,0.11570100000017192
566,2,0.2,0.0625,35.0,1,1.0,0.1027009999997972
567,2,0.2,1.0,35.0,1,1.0,0.09250100000008388
568,2,0.2,0.0,35.0,1,1.0,0.0860010000001239
569,2,0.2,0.0625,35.0,1,1.0,0.14950099999987287
570,2,0.2,0.25,35.0,1,1.0,0.09970099999964077
571,2,0.2,0.0625,35.0,1,1.0,0.12280099999998129
572,2,0.2,1.0,-35.0,1,0.0,0.11930100000017774
573,2,0.2,1.0,35.0,1,1.0,0.10320099999989907
574,2,0.2,1.0,35.0,1,1.0,0.08960100000012972
575,2,0.2,1.0,35.0,1,1.0,0.11310099999991508
576,2,0.2,0.25,-35.0,1,0.0,0.03320099999973536
577,2,0.2,0.25,35.0,1,1.0,0.11990100000002712
578,2,0.2,1.0,35.0,1,1.0,0.15990099999999074
579,2,0.2,0.0625,35.0,1,1.0,0.10650099999975282
580,2,0.2,0.0,35.0,1,1.0,0.04320099999995364
581,2,0.2,0.125,35.0,1,1.0,0.0334010000001399
582,2,0.2,0.25,-35.0,1,0.0,0.09980100000029779
583,2,0.2,0.125,35.0,1,1.0,0.11030100000016319
584,2,0.2,0.0,35.0,-1,0.0,0.29700099999990925
585,2,0.2,0.0625,35.0,1,1.0,0.10040099999969243
586,2,0.2,0.25,35.0,1,1.0,0.12020099999972444
587,2,0.2,0.0,35.0,1,1.0,0.10040100000014718
588,2,0.2,0.125,35.0,1,1.0,0.033400999999685155
589,2,0.2,0.125,-35.0,1,0.0,0.030401000000438216
590,2,0.2,0.0,35.0,1,1.0,0.017001000000163913
591,2,0.2,1.0,-35.0,1,0.0,0.11720100000002276
592,2,0.2,0.0625,35.0,1,1.0,0.12050099999987651
593,2,0.2,0.0,35.0,1,1.0,0.11730099999977028
594,2,0.2,0.25,35.0,1,1.0,0.10740100000020902
595,2,0.2,0.125,-35.0,1,0.0,0.10080100000004677
596,2,0.2,1.0,-35.0,-1,1.0,0.2045010000001639
597,2,0.2,0.0625,35.0,1,1.0,0.1310009999997419
598,2,0.2,0.25,35.0,1,1.0,0.13400099999989834
599,2,0.2,0.25,-35.0,1,0.0,0.15430100000003222
600,2,0.2,0.0625,35.0,1,1.0,0.4476009999998496
601,2,0.2,1.0,35.0,1,1.0,0.11460100000022067
602,2,0.2,1.0,35.0,1,1.0,0.1246009999999842
603,2,0.2,0.0625,35.0,1,1.0,0.15770100000008824
604,2,0.2,0.25,-35.0,1,0.0,0.08790099999987433
605,2,0.2,1.0,35.0,1,1.0,0.10100099999999657
606,2,0.2,0.0,35.0,1,1.0,0.09800099999984013
607,2,0.2,0.0625,35.0,1,1.0,0.12120099999992817
608,2,0.2,0.0625,35.0,1,1.0,0.24160100000017337
609,2,0.2,0.25,35.0,1,1.0,0.09160099999962767
610,2,0.2,0.125,35.0,1,1.0,0.05500100000017483
611,2,0.2,1.0,35.0,1,1.0,0.1349009999998998
612,2,0.2,1.0,35.0,1,1.0,0.11170099999981176
613,2,0.2,0.125,35.0,1,1.0,0.3050010000001748
614,2,0.2,0.125,35.0,1,1.0,0.11500099999966551
615,2,0.2,0.25,35.0,1,1.0,0.12520099999983358
616,2,0.2,1.0,35.0,1,1.0,0.11210099999971135
617,2,0.2,0.0625,35.0,1,1.0,0.04510099999970407
618,2,0.2,0.25,35.0,1,1.0,0.11840099999972153
619,2,0.2,0.125,35.0,1,1.0,0.08560099999976956
620,2,0.2,1.0,35.0,1,1.0,0.09200099999998201
621,2,0.2,1.0,35.0,1,1.0,0.022201000000222848
622,2,0.2,0.25,35.0,1,1.0,0.0757010000002083
623,2,0.2,0.0625,35.0,1,1.0,0.1290009999997892
624,2,0.2,0.25,35.0,1,1.0,0.11230099999966114
625,2,0.2,0.25,35.0,1,1.0,0.14900100000022576
626,2,0.2,0.0,35.0,1,1.0,0.10900100000026214
627,2,0.2,0.25,35.0,1,1.0,0.08920100000023012
628,2,0.2,0.0,35.0,1,1.0,0.0792009999995571
629,2,0.2,0.0625,35.0,1,1.0,0.09930100000019593
630,2,0.2,0.125,-35.0,1,0.0,0.10280099999999948
631,2,0.2,0.125,35.0,1,1.0,0.11270100000001548
632,2,0.2,0.25,35.0,1,1.0,0.10610099999985323
633,2,0.2,0.0625,35.0,1,1.0,0.08950099999992744
634,2,0.2,0.0625,35.0,1,1.0,0.11640100000022358
635,2,0.8,1.0,35.0,1,1.0,0.0663009999998394
636,2,0.8,0.125,35.0,1,1.0,0.1398010000002614
637,2,0.8,0.125,35.0,1,1.0,0.08960100000012972
638,2,0.8,0.0625,-35.0,1,0.0,0.08680099999992308
639,2,0.8,0.25,-35.0,-1,1.0,0.24660099999982776
640,2,0.8,0.125,-35.0,1,0.0,0.08360099999981685
641,2,0.8,0.0625,35.0,1,1.0,0.1568010000000868
642,2,0.8,0.0625,35.0,1,1.0,0.15320100000008097
643,2,0.8,0.0625,-35.0,1,0.0,0.11010099999975864
644,2,0.8,1.0,-35.0,-1,1.0,0.22040100000003804
645,2,0.8,0.0625,-35.0,1,0.0,0.1005009999998947
646,2,0.8,0.125,-35.0,1,0.0,-0.032999000000017986
647,2,0.8,0.0,35.0,-1,0.0,0.13380099999994854
648,2,0.8,0.125,-35.0,1,0.0,0.09710099999983868
649,2,0.8,0.0625,35.0,1,1.0,0.12390099999947779
650,2,0.8,0.25,-35.0,-1,1.0,0.18060100000002421
651,2,0.8,1.0,35.0,-1,0.0,0.17750100000012026
652,2,0.8,0.0,-35.0,1,0.0,0.14410099999986414
653,2,0.8,1.0,35.0,1,1.0,0.1974009999998998
654,2,0.8,0.0,-35.0,1,0.0,0.11750100000017483
655,2,0.8,0.25,-35.0,-1,1.0,0.19750100000010207
656,2,0.8,0.25,-35.0,1,0.0,0.1042010000001028
657,2,0.8,0.0625,-35.0,-1,1.0,0.21790099999998347
658,2,0.8,1.0,35.0,1,1.0,0.25430099999994127
659,2,0.8,0.125,-35.0,-1,1.0,0.19470099999989543
660,2,0.8,0.25,35.0,1,1.0,0.12810099999978775
661,2,0.8,0.0625,-35.0,1,0.0,0.10130100000014863
662,2,0.8,1.0,-35.0,-1,1.0,0.19100100000014208
663,2,0.8,0.125,-35.0,1,0.0,0.11160100000006423
664,2,0.8,0.25,-35.0,-1,1.0,0.3213009999994938
665,2,0.8,0.25,-35.0,1,0.0,0.10460100000000239
666,2,0.8,0.0,35.0,-1,0.0,0.3747009999997317
667,2,0.8,0.25,35.0,1,1.0,0.10510100000010425
668,2,0.8,1.0,35.0,1,1.0,0.1717009999997572
669,2,0.8,0.125,35.0,1,1.0,0.10170100000004823
670,2,0.8,0.25,-35.0,1,0.0,0.0983009999999922
671,2,0.8,0.25,35.0,1,1.0,0.2785009999997783
672,2,0.8,0.125,-35.0,1,0.0,0.09870099999989179
673,2,0.8,0.125,-35.0,1,0.0,0.12530100000003586
674,2,0.8,0.25,-35.0,-1,1.0,0.1853009999999813
675,2,0.8,0.25,-35.0,-1,1.0,0.20200100000010934
676,2,0.8,0.25,-35.0,1,0.0,0.002001000000291242
677,2,0.8,0.25,-35.0,-1,1.0,0.22530099999949016
678,2,0.8,0.125,-35.0,-1,1.0,0.248700999999528
679,2,0.8,0.25,-35.0,1,0.0,0.09220099999993181
680,2,0.8,0.25,-35.0,-1,1.0,0.07230100000015227
681,2,0.8,0.125,-35.0,-1,1.0,0.16890099999955055
682,2,0.8,0.0625,35.0,1,1.0,0.22230099999978847
683,2,0.8,0.25,-35.0,1,0.0,0.12230099999987942
684,2,0.8,1.0,-35.0,-1,1.0,0.14250099999981103
685,2,0.8,0.25,35.0,1,1.0,0.15600099999983286
686,2,0.8,1.0,-35.0,-1,1.0,0.1893009999998867
687,2,0.8,0.25,-35.0,-1,1.0,0.2625009999997019
688,2,0.8,0.0,-35.0,-1,1.0,0.17630099999996673
689,2,0.8,0.25,35.0,1,1.0,0.5462010000001101
690,2,0.8,0.0625,-35.0,-1,1.0,0.10610099999939848
691,2,0.8,0.125,-35.0,-1,1.0,0.21310100000027887
692,2,0.8,0.25,35.0,1,1.0,0.26280099999985396
693,2,0.8,0.25,-35.0,-1,1.0,0.2064010000003691
694,2,0.8,0.0625,35.0,1,1.0,0.2563009999994392
695,2,0.8,1.0,35.0,1,1.0,0.11670100000037564
696,2,0.2,0.25,35.0,1,1.0,0.11660100000017337
697,2,0.2,1.0,35.0,1,1.0,0.09330099999988306
698,2,0.2,1.0,-35.0,1,0.0,0.1132009999996626
699,2,0.2,0.0625,35.0,-1,0.0,0.15670099999988452
700,2,0.2,0.0625,35.0,1,1.0,0.1902009999994334
701,2,0.2,0.0625,-35.0,1,0.0,0.2832010000001901
702,2,0.2,0.25,35.0,1,1.0,0.25020100000028833
703,2,0.2,1.0,35.0,1,1.0,0.11370099999976446
704,2,0.2,0.0625,35.0,1,1.0,0.12360099999978047
705,2,0.2,0.25,-35.0,1,0.0,0.08050099999991289
706,2,0.2,0.125,35.0,1,1.0,0.25390099999958693
707,2,0.2,1.0,35.0,1,1.0,0.12040100000012899
708,2,0.2,1.0,35.0,1,1.0,0.11380099999996673
709,2,0.2,0.0,-35.0,1,0.0,0.10390100000040547
710,2,0.2,0.125,35.0,1,1.0,0.15070099999957165
711,2,0.2,0.125,35.0,1,1.0,0.10740100000020902
712,2,0.2,0.25,-35.0,1,0.0,0.113901000000169
713,2,0.2,0.0625,-35.0,1,0.0,0.19060099999978775
714,2,0.2,1.0,35.0,1,1.0,0.1443010000002687
715,2,0.2,0.125,-35.0,1,0.0,0.13770100000010643
716,2,0.2,0.25,35.0,1,1.0,0.12780000000020664
717,2,0.2,0.125,35.0,1,1.0,0.08770100000037928
718,2,0.2,1.0,-35.0,1,0.0,0.10780100000010862
719,2,0.2,1.0,-35.0,-1,1.0,0.24450100000012753
720,2,0.2,1.0,35.0,1,1.0,0.10780099999965387
721,2,0.8,0.0,-35.0,1,0.0,0.09480100000018865
722,2,0.8,0.0625,-35.0,1,0.0,0.11800100000027669
723,2,0.8,0.0625,-35.0,1,0.0,0.11480100000017046
724,2,0.8,0.25,-35.0,-1,1.0,0.20850099999961458
725,2,0.8,0.0625,-35.0,1,0.0,0.12810099999978775
726,2,0.8,0.25,-35.0,-1,1.0,0.18810099999973318
727,2,0.8,1.0,-35.0,-1,1.0,0.14500100000032035
728,2,0.8,1.0,-35.0,-1,1.0,0.12510100000008606
729,2,0.8,0.125,-35.0,1,0.0,0.15830099999993763
730,2,0.8,0.25,-35.0,-1,1.0,0.191700999999739
731,2,0.8,1.0,35.0,1,1.0,0.13850100000036036
732,2,0.8,0.25,-35.0,-1,1.0,0.19560099999989689
733,2,0.8,0.25,-35.0,-1,1.0,0.22860099999979866
734,2,0.8,0.125,35.0,-1,0.0,0.15200099999992744
735,2,0.8,0.25,-35.0,-1,1.0,0.14200099999970917
736,2,0.8,1.0,-35.0,-1,1.0,0.20890099999996892
737,2,0.8,1.0,-35.0,-1,1.0,0.05530099999987215
738,2,0.8,0.125,-35.0,-1,1.0,0.3455010000002403
739,2,0.8,1.0,-35.0,-1,1.0,0.06570099999953527
740,2,0.8,0.0,-35.0,-1,1.0,0.13880100000005768
741,2,0.8,1.0,-35.0,-1,1.0,0.22250099999973827
742,2,0.8,0.0625,-35.0,1,0.0,0.19570100000009916
743,2,0.8,1.0,35.0,1,1.0,0.01930099999981394
744,2,0.8,0.25,-35.0,-1,1.0,0.1994009999998525
745,2,0.8,0.125,-35.0,-1,1.0,0.28600099999948725
746,2,0.8,1.0,-35.0,-1,1.0,0.18260099999997692
747,2,0.8,0.25,35.0,1,1.0,0.21260099999972226
748,2,0.8,1.0,-35.0,-1,1.0,0.19610099999999875
749,2,0.8,1.0,-35.0,-1,1.0,0.17980099999977028
750,2,0.8,0.25,-35.0,-1,1.0,0.14950099999987287
751,2,0.8,0.0,-35.0,-1,1.0,0.28280099999983577
752,2,0.8,0.0625,35.0,-1,0.0,0.3563010000002578
753,2,0.8,0.0625,-35.0,1,0.0,0.029800999999679334
754,2,0.8,0.125,-35.0,-1,1.0,0.21960100000023886
755,2,0.8,1.0,-35.0,-1,1.0,0.2031010000000606
756,2,0.8,1.0,-35.0,-1,1.0,0.1632009999998445
757,2,0.8,0.0,35.0,-1,0.0,0.22010099999988597
758,2,0.8,0.25,-35.0,-1,1.0,0.17990099999997256
759,2,0.8,1.0,-35.0,-1,1.0,0.18010099999992235
760,2,0.8,0.0625,-35.0,-1,1.0,0.1733009999998103
761,2,0.2,1.0,-35.0,-1,1.0,0.17010100000015882
762,2,0.2,0.25,35.0,1,1.0,0.2932009999994989
763,2,0.2,1.0,35.0,1,1.0,0.11010100000021339
764,2,0.2,1.0,35.0,1,1.0,0.06680099999948652
765,2,0.2,0.25,35.0,1,1.0,0.1772009999999682
766,2,0.2,0.0,-35.0,1,0.0,0.10040099999969243
767,2,0.2,0.0625,35.0,-1,0.0,0.8707010000002811
768,2,0.2,0.0625,35.0,-1,0.0,0.4010009999997237
769,2,0.2,0.25,35.0,1,1.0,0.18750100000033854
770,2,0.2,0.0625,35.0,1,1.0,0.10060100000009697
771,2,0.2,1.0,35.0,1,1.0,0.1042010000001028
772,2,0.2,0.0625,-35.0,1,0.0,0.08740100000022721
773,2,0.2,1.0,35.0,1,1.0,0.20400100000006205
774,2,0.2,0.0,35.0,1,1.0,0.13770100000010643
775,2,0.2,0.125,35.0,1,1.0,0.1143010000000686
776,2,0.2,0.125,35.0,1,1.0,0.1042010000001028
777,2,0.2,0.25,35.0,1,1.0,0.10480099999995218
778,2,0.2,1.0,35.0,1,1.0,0.03460099999983868
779,2,0.2,1.0,35.0,1,1.0,-0.048698999999942316
780,2,0.2,0.0625,35.0,1,1.0,0.09130099999993035
781,2,0.2,1.0,35.0,1,1.0,0.10770099999990634
782,2,0.8,0.125,35.0,1,1.0,0.13460100000020248
783,2,0.8,1.0,-35.0,1,0.0,0.10790099999940139
784,2,0.8,1.0,-35.0,1,0.0,0.0915010000003349
785,2,0.8,0.125,-35.0,1,0.0,0.12820099999953527
786,2,0.8,0.125,-35.0,1,0.0,0.23160100000040984
787,2,0.8,0.0625,-35.0,1,0.0,0.09820100000024468
788,2,0.8,0.0625,35.0,1,1.0,0.11510099999986778
789,2,0.8,1.0,-35.0,1,0.0,0.1283010000001923
790,2,0.8,0.0625,-35.0,1,0.0,0.1086009999999078
791,2,0.8,1.0,-35.0,1,0.0,0.11200099999996382
792,2,0.8,0.125,-35.0,-1,1.0,0.24890099999993254
793,2,0.8,0.0,-35.0,-1,1.0,0.2154009999999289
794,2,0.8,0.125,-35.0,1,0.0,0.09550099999978556
795,2,0.8,0.25,-35.0,-1,1.0,0.18920100000013917
796,2,0.8,0.25,-35.0,-1,1.0,0.13550099999974918
797,2,0.8,1.0,35.0,1,1.0,0.15920099999993909
798,2,0.8,0.125,-35.0,-1,1.0,0.545900999999958
799,2,0.8,0.25,-35.0,-1,1.0,0.2625009999997019
800,2,0.8,1.0,-35.0,-1,1.0,0.20270099999970626
801,2,0.8,0.0625,-35.0,-1,1.0,0.32940099999996164
802,2,0.8,0.0625,-35.0,-1,1.0,0.23240099999975428
803,2,0.8,1.0,-35.0,-1,1.0,0.11940099999992526
804,2,0.8,0.25,-35.0,-1,1.0,0.14940100000012535
805,2,0.8,0.25,-35.0,-1,1.0,0.14970100000027742
806,2,0.8,0.125,-35.0,-1,1.0,0.20280099999945378
807,2,0.8,0.125,-35.0,-1,1.0,0.2395010000000184
808,2,0.8,1.0,-35.0,-1,1.0,0.14630099999976665
809,2,0.8,0.25,-35.0,-1,1.0,0.1729009999999107
810,2,0.8,0.125,35.0,1,1.0,0.09310099999993326
811,2,0.8,0.25,-35.0,1,0.0,0.1031009999996968
812,2,0.8,0.0625,35.0,-1,0.0,0.09010100000023158
813,2,0.8,0.0625,35.0,-1,0.0,0.19990099999995437
814,2,0.8,1.0,-35.0,-1,1.0,0.1531009999998787
815,2,0.8,1.0,-35.0,-1,1.0,0.20670100000006641
816,2,0.8,0.125,-35.0,-1,1.0,0.21030100000007224
817,2,0.8,0.25,-35.0,-1,1.0,0.24690099999997983
818,2,0.8,0.0,35.0,-1,0.0,0.2466010000002825
819,2,0.8,0.125,-35.0,-1,1.0,0.2534009999999398
820,2,0.8,0.0625,-35.0,-1,1.0,0.37690100000008897
821,2,0.8,1.0,35.0,1,1.0,0.2373010000001159
822,2,0.8,0.25,-35.0,1,0.0,-0.016098999999940133
823,2,0.8,0.125,-35.0,-1,1.0,0.21060099999976956
824,2,0.8,0.0625,-35.0,-1,1.0,0.19070099999999002
825,2,0.8,0.25,-35.0,-1,1.0,0.4040010000003349
826,2,0.8,1.0,-35.0,-1,1.0,0.19730099999969752
827,2,0.8,0.0,-35.0,1,0.0,0.20070099999975355
828,2,0.8,0.0,-35.0,-1,1.0,0.20080099999995582
829,2,0.8,1.0,-35.0,-1,1.0,0.18060099999956947
830,2,0.8,0.0625,-35.0,-1,1.0,0.18440099999997983
831,2,0.8,0.0625,-35.0,-1,1.0,0.18070100000022649
832,2,0.8,1.0,-35.0,-1,1.0,0.15740100000039092
833,2,0.8,0.125,-35.0,-1,1.0,0.16090100000019447
834,2,0.8,0.125,-35.0,-1,1.0,0.161000999999942
835,2,0.8,0.125,35.0,1,1.0,0.2343009999995047
836,2,0.8,0.0625,-35.0,-1,1.0,0.2977009999999609
837,2,0.2,0.25,35.0,1,1.0,0.2578009999997448
838,2,0.2,0.0625,35.0,1,1.0,0.1213009999996757
839,2,0.2,0.0,35.0,1,1.0,0.027700999999979103
840,2,0.2,0.25,35.0,1,1.0,0.12790099999983795
841,2,0.2,0.25,35.0,1,1.0,0.06140099999947779
842,2,0.2,0.25,35.0,1,1.0,0.10810099999980594
843,2,0.2,0.125,35.0,1,1.0,0.14840099999992162
844,2,0.2,0.0625,-35.0,1,0.0,0.12140099999942322
845,2,0.2,0.0625,35.0,1,1.0,0.1650009999998474
846,2,0.2,1.0,35.0,1,1.0,0.11150099999986196
847,2,0.2,0.125,35.0,1,1.0,0.1117010000002665
848,2,0.2,0.0,35.0,1,1.0,0.06500099999993836
849,2,0.2,0.0625,35.0,1,1.0,0.10490100000015445
850,2,0.2,0.0625,35.0,1,1.0,0.1185009999999238
851,2,0.2,0.25,-35.0,1,0.0,0.1351009999998496
852,2,0.2,0.0625,35.0,1,1.0,0.5253010000001268
853,2,0.2,0.0625,35.0,1,1.0,0.3820009999994909
854,2,0.2,0.25,35.0,1,1.0,0.10510100000010425
855,2,0.2,0.125,-35.0,1,0.0,0.09560099999998783
856,2,0.2,1.0,35.0,1,1.0,0.0952009999996335
857,2,0.2,0.125,35.0,1,1.0,0.1356009999994967
858,2,0.2,0.125,35.0,1,1.0,0.09220100000038656
859,2,0.2,0.25,-35.0,1,0.0,0.08560099999976956
860,2,0.2,0.0625,-35.0,1,0.0,0.12240099999962695
861,2,0.2,0.25,35.0,1,1.0,0.20220100000005914
862,2,0.2,0.25,-35.0,1,0.0,0.015500999999858323
863,2,0.2,0.125,35.0,1,1.0,0.16240100000004531
864,2,0.2,0.0,35.0,1,1.0,0.15260099999977683
865,2,0.2,1.0,35.0,1,1.0,0.03270100000008824
866,2,0.2,0.0,35.0,1,1.0,0.09920099999999366
867,2,0.2,0.125,-35.0,1,0.0,0.08970099999987724
868,2,0.2,0.25,35.0,1,1.0,0.29620100000011007
869,2,0.2,0.0,35.0,1,1.0,0.0827009999998154
870,2,0.2,0.25,35.0,1,1.0,0.12300099999993108
871,2,0.2,1.0,-35.0,1,0.0,0.13960099999985687
872,2,0.2,0.0625,35.0,1,1.0,0.13980099999980666
873,2,0.2,0.25,-35.0,1,0.0,0.13640100000020539
874,2,0.2,0.125,35.0,1,1.0,0.22320099999978993
875,2,0.2,0.0625,35.0,1,1.0,0.22670099999959348
876,2,0.2,1.0,35.0,1,1.0,0.15320100000008097
877,2,0.2,0.125,35.0,1,1.0,0.08680099999992308
878,2,0.2,0.0625,-35.0,1,0.0,0.11660099999971862
879,2,0.2,0.25,-35.0,1,0.0,0.13330100000030143
880,2,0.2,0.0625,35.0,1,1.0,0.17670099999986633
881,2,0.2,0.125,35.0,-1,0.0,0.16980100000000675
882,2,0.2,0.0625,35.0,-1,0.0,0.14010099999995873
883,2,0.2,0.25,35.0,1,1.0,0.18020099999966988
884,2,0.2,0.0625,35.0,1,1.0,0.12010099999997692
885,2,0.8,1.0,-35.0,1,0.0,0.1336010000004535
886,2,0.8,0.125,35.0,1,1.0,0.1902010000003429
887,2,0.8,0.125,35.0,1,1.0,0.16030099999989034
888,2,0.8,0.25,-35.0,-1,1.0,0.24080099999991944
889,2,0.8,0.0625,35.0,1,1.0,0.14370099999996455
890,2,0.8,0.0,-35.0,1,0.0,0.11040099999991071
891,2,0.8,0.125,-35.0,1,0.0,0.12060100000007878
892,2,0.8,0.25,35.0,1,1.0,0.24410100000022794
893,2,0.8,0.125,35.0,1,1.0,0.10380099999974846
894,2,0.8,0.125,35.0,1,1.0,0.11050100000011298
895,2,0.8,0.0625,-35.0,1,0.0,0.1775009999996655
896,2,0.8,0.25,-35.0,-1,1.0,0.270701000000372
897,2,0.8,0.0625,-35.0,1,0.0,0.13420100000030288
898,2,0.8,1.0,-35.0,1,0.0,0.08430100000032326
899,2,0.8,0.125,-35.0,-1,1.0,0.30070100000011735
900,2,0.8,0.0625,-35.0,1,0.0,0.12430099999983213
901,2,0.8,1.0,-35.0,-1,1.0,0.19110100000034436
902,2,0.8,0.125,35.0,1,1.0,0.12780099999963568
903,2,0.8,0.25,35.0,1,1.0,0.1911009999998896
904,2,0.8,1.0,35.0,1,1.0,0.16490099999964514
905,2,0.8,0.125,-35.0,-1,1.0,0.227900999999747
906,2,0.8,0.0625,-35.0,1,0.0,0.15130099999987578
907,2,0.8,1.0,-35.0,-1,1.0,0.18120100000032835
908,2,0.2,1.0,35.0,1,1.0,0.32830099999955564
909,2,0.2,0.0625,35.0,-1,0.0,0.1650009999998474
910,2,0.2,0.125,-35.0,-1,1.0,0.25150099999973463
911,2,0.2,0.125,35.0,1,1.0,0.21490099999982704
912,2,0.2,0.125,35.0,1,1.0,0.11830099999951926
913,2,0.2,0.0625,35.0,1,1.0,0.12830099999973754
914,2,0.2,0.0625,35.0,1,1.0,0.10850100000016027
915,2,0.2,0.0625,-35.0,1,0.0,0.13850099999990562
916,2,0.2,0.0,-35.0,1,0.0,0.1152009999996153
917,2,0.2,0.0625,35.0,-1,0.0,0.4252010000000155
918,2,0.2,0.125,35.0,1,1.0,0.1384010000001581
919,2,0.2,1.0,-35.0,-1,1.0,0.18500099999982922
920,2,0.2,1.0,35.0,1,1.0,0.1685010000001057
921,2,0.2,0.0,35.0,1,1.0,0.12530100000003586
922,2,0.2,0.0625,35.0,1,1.0,0.15880099999958475
923,2,0.2,0.25,35.0,1,1.0,0.10910100000046441
924,2,0.2,1.0,35.0,1,1.0,0.12560099999973318
925,2,0.2,1.0,35.0,1,1.0,0.1323010000000977
926,2,0.2,0.125,-35.0,1,0.0,0.08900099999982558
927,2,0.2,0.125,-35.0,1,0.0,0.11210099999971135
928,2,0.2,1.0,35.0,1,1.0,0.12580099999968297
929,2,0.2,0.0625,35.0,1,1.0,0.09920099999999366
930,2,0.2,1.0,35.0,1,1.0,0.13600100000076054
931,2,0.2,0.125,35.0,1,1.0,0.10930099999950471
932,2,0.2,0.0625,35.0,1,1.0,0.11610100000052626
933,2,0.2,0.25,-35.0,1,0.0,0.11250099999961094
934,2,0.2,0.0,-35.0,1,0.0,0.22940100000050734
935,2,0.2,0.0625,35.0,1,1.0,0.09950100000060047
936,2,0.2,1.0,35.0,1,1.0,0.1362009999993461
937,2,0.2,0.0625,35.0,1,1.0,0.13300099999923987
938,2,0.2,1.0,35.0,1,1.0,0.1295010000003458
939,2,0.2,1.0,35.0,1,1.0,0.083201000000372
940,2,0.2,0.25,35.0,1,1.0,0.12980100000004313
941,2,0.2,0.125,-35.0,1,0.0,0.11650099999951635
942,2,0.2,0.0625,35.0,1,1.0,0.10330099999919184
943,2,0.2,1.0,35.0,1,1.0,0.12320099999942613
944,2,0.2,0.0625,35.0,1,1.0,0.12340099999983067
945,2,0.2,0.125,35.0,1,1.0,0.11010100000021339
946,2,0.2,0.125,35.0,1,1.0,0.11680100000012317
947,2,0.2,1.0,-35.0,1,0.0,0.07680100000015955
948,2,0.2,0.125,35.0,1,1.0,0.4770010000002003
949,2,0.2,0.125,35.0,1,1.0,0.08680100000037783
950,2,0.2,0.25,35.0,1,1.0,0.08680099999946833
951,2,0.2,0.0,35.0,1,1.0,-0.006499000000076194
952,2,0.2,0.125,35.0,1,1.0,0.1204009999992195
953,2,0.2,1.0,35.0,1,1.0,0.09360099999958038
954,2,0.2,0.125,35.0,1,1.0,0.08710100000007515
955,2,0.2,0.0,35.0,1,1.0,0.12390099999993254
956,2,0.2,0.0,35.0,1,1.0,0.07740099999955419
957,2,0.2,1.0,-35.0,-1,1.0,0.23740099999940867
958,2,0.2,0.0,35.0,1,1.0,0.14740100000017264
959,2,0.2,0.0625,35.0,1,1.0,0.10070100000029925
960,2,0.2,0.0625,35.0,1,1.0,0.010800999999446503
961,2,0.2,0.25,35.0,1,1.0,0.09440099999937956
962,2,0.2,0.0625,35.0,1,1.0,0.11110100000041712
963,2,0.2,0.0625,35.0,1,1.0,0.11750100000062957
964,2,0.2,1.0,35.0,1,1.0,0.10760100000061357
965,2,0.2,0.25,35.0,1,1.0,0.030900999999175838
966,2,0.2,0.125,35.0,1,1.0,0.13770099999965169
967,2,0.2,0.125,35.0,1,1.0,0.09800099999938539
968,2,0.2,1.0,35.0,1,1.0,0.1049009999996997
969,2,0.8,0.25,35.0,1,1.0,0.0781009999991511
970,2,0.8,0.0,-35.0,1,0.0,0.07840099999975791
971,2,0.8,0.25,-35.0,-1,1.0,0.15130099999987578
972,2,0.8,0.25,-35.0,1,0.0,0.10500099999899248
973,2,0.8,1.0,-35.0,-1,1.0,0.19150100000024395
974,2,0.8,1.0,-35.0,-1,1.0,0.20170099999995728
975,2,0.8,0.25,-35.0,1,0.0,0.13160100000004604
976,2,0.8,1.0,-35.0,-1,1.0,0.17490100000031816
977,2,0.8,1.0,-35.0,-1,1.0,0.20190100000036182
978,2,0.8,0.0625,-35.0,1,0.0,0.15880100000049424
979,2,0.8,0.0625,-35.0,-1,1.0,0.2822009999999864
980,2,0.8,0.25,-35.0,-1,1.0,0.11210099999971135
981,2,0.8,1.0,-35.0,1,0.0,0.09900099999958911
982,2,0.8,1.0,-35.0,-1,1.0,0.10870100000011007
983,2,0.8,0.0625,-35.0,-1,1.0,0.18570099999942613
984,2,0.8,0.125,35.0,1,1.0,0.21540100000038365
985,2,0.8,0.0,-35.0,1,0.0,0.18200100000012753
986,2,0.8,0.25,-35.0,-1,1.0,0.19550100000014936
987,2,0.8,1.0,-35.0,-1,1.0,0.11910100000022794
988,2,0.8,0.125,-35.0,-1,1.0,0.15910099999928207
989,2,0.8,1.0,-35.0,-1,1.0,0.16900100000020757
990,2,0.8,0.0,35.0,-1,0.0,0.3292009999995571
991,2,0.8,0.125,-35.0,-1,1.0,0.42900100000042585
992,2,0.8,1.0,-35.0,-1,1.0,0.1726010000002134
993,2,0.8,0.25,-35.0,-1,1.0,0.2097009999997681
994,2,0.8,1.0,-35.0,-1,1.0,0.2659009999997579
995,2,0.8,0.25,35.0,1,1.0,0.1560009999993781
996,2,0.8,1.0,35.0,1,1.0,0.13280099999974482
997,2,0.8,0.25,-35.0,1,0.0,0.1097009999994043
998,2,0.8,1.0,-35.0,-1,1.0,0.22630099999969389
999,2,0.8,1.0,-35.0,1,0.0,0.16610099999979866
1000,2,0.8,0.25,-35.0,-1,1.0,0.1432009999998627
1001,2,0.8,0.0,35.0,1,1.0,0.22310099999958766
1002,2,0.8,1.0,-35.0,1,0.0,0.12640100000044185
1003,2,0.8,0.25,-35.0,1,0.0,0.10630099999980303
1004,2,0.8,0.0625,-35.0,1,0.0,0.10650099999929807
1005,2,0.8,0.0625,-35.0,1,0.0,0.10000099999979284
1006,2,0.8,1.0,-35.0,-1,1.0,0.19660099999964586
1007,2,0.8,0.125,-35.0,-1,1.0,0.22320100000069942
1008,2,0.8,0.0625,-35.0,1,0.0,0.1299010000002454
1009,2,0.8,0.25,-35.0,-1,1.0,0.1704010000003109
1010,2,0.8,0.125,-35.0,-1,1.0,0.17010100000061357
1011,2,0.8,1.0,-35.0,-1,1.0,0.1538010000003851
1012,2,0.8,0.0625,-35.0,-1,1.0,0.1369009999998525
1013,2,0.8,0.0625,-35.0,-1,1.0,0.030300999999781197
1014,2,0.8,0.0,35.0,-1,0.0,0.3472009999995862
1015,2,0.8,0.25,-35.0,-1,1.0,0.1505009999991671
1016,2,0.8,1.0,-35.0,-1,1.0,0.12380099999973027
1017,2,0.8,1.0,-35.0,-1,1.0,0.13420099999984814
1018,2,0.8,0.125,-35.0,-1,1.0,0.16070099999978993
1019,2,0.8,0.0625,35.0,-1,0.0,0.14090099999975791
1020,2,0.8,1.0,-35.0,-1,1.0,0.17740100000082748
1021,2,0.8,0.25,-35.0,-1,1.0,0.13410099999964586
1022,2,0.8,1.0,35.0,-1,0.0,0.054200999999920896
1023,2,0.8,0.125,-35.0,-1,1.0,0.23440100000061648
1024,2,0.8,1.0,35.0,1,1.0,0.2579009999999471
1025,2,0.8,0.0,-35.0,1,0.0,0.10780100000010862
1026,2,0.8,0.0625,-35.0,-1,1.0,0.32420100000035745
1027,2,0.8,1.0,-35.0,-1,1.0,0.16100100000039674
1028,2,0.8,0.0625,-35.0,-1,1.0,0.12130099999922095
1029,2,0.8,1.0,-35.0,-1,1.0,0.1612010000008013
1030,2,0.8,0.125,-35.0,-1,1.0,0.14160099999935483
1031,2,0.8,0.125,-35.0,-1,1.0,0.14190099999996164
1032,2,0.8,0.0625,-35.0,-1,1.0,0.2119009999996706
1033,2,0.8,0.0625,-35.0,-1,1.0,0.1851010000000315
1034,2,0.8,0.125,35.0,1,1.0,0.2850009999992835
1035,2,0.8,0.125,35.0,-1,0.0,0.3416010000000824
1036,2,0.8,0.0625,-35.0,-1,1.0,0.17820099999971717
1037,2,0.8,0.0,-35.0,-1,1.0,0.16180099999928643
1038,2,0.8,0.25,-35.0,-1,1.0,0.23490099999980885
1039,2,0.8,0.0625,-35.0,-1,1.0,0.1954009999999471
1040,2,0.8,0.25,-35.0,-1,1.0,0.2020009999996546
1041,2,0.8,0.0625,-35.0,-1,1.0,0.15180099999997765
1042,2,0.8,0.0,-35.0,-1,1.0,0.07900099999915255
1043,2,0.8,0.0625,-35.0,-1,1.0,0.2953010000001086
1044,2,0.8,1.0,-35.0,-1,1.0,0.21220099999936792
1045,2,0.8,0.0,-35.0,-1,1.0,0.15910100000019156
1046,2,0.8,0.125,-35.0,-1,1.0,0.18600100000003295
1047,2,0.8,0.125,-35.0,-1,1.0,0.18560100000013335
1048,2,0.8,0.125,-35.0,-1,1.0,0.17900099999951635
