trial_num,session_num,stim_probability_left,contrast,position,response_choice,trial_correct,reaction_time
1,1,0.5,0.125,35.0,1,1.0,0.5143999999999997
2,1,0.5,1.0,35.0,1,1.0,0.10299999999999976
3,1,0.5,0.25,35.0,1,1.0,0.42499999999999893
4,1,0.5,0.25,35.0,1,1.0,0.6258999999999997
5,1,0.5,0.25,-35.0,-1,1.0,0.43710000000000093
6,1,0.5,0.0625,35.0,1,1.0,0.2881999999999998
7,1,0.5,0.0625,35.0,1,1.0,0.49320000000000164
8,1,0.5,0.0,-35.0,-1,1.0,0.6178999999999988
9,1,0.5,1.0,35.0,1,1.0,0.23219999999999885
10,1,0.5,1.0,35.0,1,1.0,0.21229899999999802
11,1,0.5,0.0625,-35.0,-1,1.0,0.6158000000000072
12,1,0.5,0.0,-35.0,-1,1.0,0.447499999999998
13,1,0.5,0.0625,35.0,1,1.0,0.7807999999999993
14,1,0.5,0.25,-35.0,-1,1.0,0.04870000000000374
15,1,0.5,0.25,-35.0,-1,1.0,0.18179999999999552
16,1,0.5,0.25,35.0,-1,0.0,0.3947000000000074
17,1,0.5,1.0,35.0,1,1.0,0.3661999999999992
18,1,0.5,1.0,35.0,1,1.0,0.21149900000000343
19,1,0.5,0.125,35.0,1,1.0,0.8420000000000059
20,1,0.5,1.0,35.0,1,1.0,0.20149899999999832
21,1,0.5,1.0,35.0,1,1.0,0.22100000000000364
22,1,0.5,0.0625,-35.0,-1,1.0,1.4240999999999957
23,1,0.5,0.125,35.0,1,1.0,0.3984999999999985
24,1,0.5,0.0,-35.0,1,0.0,0.1758999999999986
25,1,0.5,0.25,-35.0,-1,1.0,0.19599999999999795
26,1,0.5,0.125,35.0,-1,0.0,0.2757000000000147
27,1,0.5,0.0,-35.0,-1,1.0,0.268100000000004
28,1,0.5,0.0625,35.0,-1,0.0,0.19900000000001228
29,1,0.5,0.0625,-35.0,-1,1.0,0.23080000000000211
30,1,0.5,0.0625,35.0,-1,0.0,1.3201999999999998
31,1,0.5,0.125,35.0,1,1.0,0.879099999999994
32,1,0.5,0.25,-35.0,-1,1.0,0.19360000000000355
33,1,0.5,0.25,-35.0,-1,1.0,0.3269999999999982
34,1,0.5,0.0625,-35.0,-1,1.0,0.20539999999999736
35,1,0.5,0.125,35.0,-1,0.0,0.18609999999999616
36,1,0.5,1.0,35.0,-1,0.0,0.18250000000000455
37,1,0.5,0.0625,35.0,-1,0.0,0.3345990000000114
38,1,0.5,1.0,-35.0,-1,1.0,0.23529999999999518
39,1,0.5,0.0,-35.0,-1,1.0,0.19360000000000355
40,1,0.5,1.0,-35.0,-1,1.0,0.2113000000000227
41,1,0.5,0.25,-35.0,-1,1.0,0.25329999999999586
42,1,0.5,0.0625,35.0,1,1.0,0.4536000000000229
43,1,0.5,0.0625,-35.0,1,0.0,0.8000999999999863
44,1,0.5,0.0,-35.0,1,0.0,3.0837999999999965
45,1,0.5,0.0625,35.0,1,1.0,0.3592999999999904
46,1,0.5,1.0,-35.0,-1,1.0,0.20459999999999923
47,1,0.5,0.0625,-35.0,-1,1.0,2.89700000000002
48,1,0.5,1.0,35.0,1,1.0,0.11310000000000286
49,1,0.5,0.25,-35.0,-1,1.0,0.4410999999999774
50,1,0.5,0.0625,35.0,-1,0.0,0.2074999999999818
51,1,0.5,0.125,35.0,1,1.0,0.198599999999999
52,1,0.5,0.0,-35.0,1,0.0,3.566500000000019
53,1,0.5,0.0625,-35.0,-1,1.0,0.08429999999998472
54,1,0.5,0.0625,35.0,1,1.0,0.19739999999998759
55,1,0.5,0.0,-35.0,1,0.0,0.204400000000021
56,1,0.5,0.125,-35.0,-1,1.0,0.218400000000031
57,1,0.5,1.0,35.0,1,1.0,0.24940000000003693
58,1,0.5,0.25,-35.0,-1,1.0,0.272199999999998
59,1,0.5,0.25,35.0,1,1.0,0.21420000000000528
60,1,0.5,0.25,-35.0,-1,1.0,0.18650000000002365
61,1,0.5,1.0,-35.0,-1,1.0,0.4976000000000056
62,1,0.5,0.0625,-35.0,-1,1.0,0.22529999999997585
63,1,0.5,0.125,-35.0,-1,1.0,0.4112999999999829
64,1,0.5,0.125,-35.0,-1,1.0,0.42910000000000537
65,1,0.5,1.0,-35.0,-1,1.0,0.48340000000001737
66,1,0.5,0.25,35.0,1,1.0,0.4660000000000082
67,1,0.5,0.0625,-35.0,-1,1.0,0.28350000000000364
68,1,0.5,0.125,-35.0,-1,1.0,0.4157999999999902
69,1,0.5,0.25,35.0,1,1.0,0.2102000000000146
70,1,0.5,0.125,-35.0,-1,1.0,0.40449999999998454
71,1,0.5,1.0,-35.0,-1,1.0,0.2411999999999921
72,1,0.5,1.0,-35.0,-1,1.0,0.18359999999998422
73,1,0.5,0.25,-35.0,-1,1.0,0.21040000000002124
74,1,0.5,0.125,35.0,1,1.0,0.5673999999999921
75,1,0.5,0.0,35.0,-1,0.0,0.16840000000001965
76,1,0.5,1.0,35.0,1,1.0,0.5021000000000129
77,1,0.5,0.125,35.0,1,1.0,0.3777990000000102
78,1,0.5,1.0,35.0,1,1.0,0.4375000000000284
79,1,0.5,1.0,35.0,1,1.0,0.4005999999999972
80,1,0.5,1.0,35.0,1,1.0,0.1747000000000014
81,1,0.5,0.0,35.0,1,1.0,0.2799999999999727
82,1,0.5,0.0625,35.0,1,1.0,0.45769999999998845
83,1,0.5,0.25,35.0,1,1.0,0.1962989999999536
84,1,0.5,0.0625,-35.0,-1,1.0,0.580099999999959
85,1,0.5,1.0,35.0,1,1.0,0.17179999999996198
86,1,0.5,0.0625,35.0,1,1.0,0.24219999999996844
87,1,0.5,0.0625,-35.0,1,0.0,0.20489999999995234
88,1,0.5,1.0,-35.0,-1,1.0,0.603999999999985
89,1,0.5,0.25,-35.0,-1,1.0,1.7426999999999566
90,1,0.5,0.25,35.0,1,1.0,0.2390999999999508
91,1,0.8,0.25,-35.0,1,0.0,0.2218000000000302
92,1,0.8,0.0,35.0,1,1.0,0.522598999999957
93,1,0.8,0.125,35.0,1,1.0,0.4434999999999718
94,1,0.8,1.0,-35.0,-1,1.0,0.21330000000000382
95,1,0.8,0.25,-35.0,-1,1.0,0.3072999999999979
96,1,0.8,0.25,-35.0,-1,1.0,0.9284000000000106
97,1,0.8,0.25,-35.0,-1,1.0,0.21510000000000673
98,1,0.8,1.0,-35.0,-1,1.0,0.4497000000000071
99,1,0.8,0.0625,-35.0,-1,1.0,0.18589900000000625
100,1,0.8,1.0,-35.0,-1,1.0,0.4221999999999184
101,1,0.8,1.0,-35.0,-1,1.0,0.43489999999997053
102,1,0.8,0.0625,-35.0,-1,1.0,0.21489999999994325
103,1,0.8,0.125,-35.0,-1,1.0,0.344600000000014
104,1,0.8,0.25,-35.0,-1,1.0,0.13059999999995853
105,1,0.8,0.25,-35.0,1,0.0,0.22399899999999207
106,1,0.8,0.0625,-35.0,-1,1.0,0.19619999999997617
107,1,0.8,0.0625,35.0,-1,0.0,0.42009999999993397
108,1,0.8,0.0,-35.0,-1,1.0,0.638499999999965
109,1,0.8,0.25,-35.0,-1,1.0,0.1864999999999668
110,1,0.8,0.25,-35.0,-1,1.0,0.3972989999999754
111,1,0.8,0.0625,-35.0,-1,1.0,0.44359899999994923
112,1,0.8,0.0,-35.0,-1,1.0,0.1893000000000029
113,1,0.8,0.25,35.0,-1,0.0,0.15399999999999636
114,1,0.8,0.0625,35.0,-1,0.0,0.17409900000001244
115,1,0.8,0.0625,-35.0,-1,1.0,0.32269999999999754
116,1,0.8,0.25,-35.0,-1,1.0,0.1994999999999436
117,1,0.8,0.125,-35.0,-1,1.0,0.33619999999996253
118,1,0.8,1.0,-35.0,-1,1.0,0.49979999999999336
119,1,0.8,0.0625,-35.0,-1,1.0,0.3118999999999801
120,1,0.8,1.0,-35.0,-1,1.0,0.15300000000002
121,1,0.8,0.0,35.0,-1,0.0,0.2746999999999957
122,1,0.8,0.125,35.0,-1,0.0,0.266399999999976
123,1,0.8,0.0625,-35.0,-1,1.0,0.2304990000000089
124,1,0.8,0.25,-35.0,-1,1.0,0.35459999999994807
125,1,0.8,1.0,-35.0,-1,1.0,0.4831999999999539
126,1,0.8,0.125,35.0,-1,0.0,0.026499999999998636
127,1,0.8,0.0,-35.0,-1,1.0,0.4095999999999549
128,1,0.8,0.0,35.0,-1,0.0,0.5217000000000098
129,1,0.8,0.0625,-35.0,1,0.0,0.25540000000000873
130,1,0.8,0.0625,35.0,-1,0.0,0.33670000000000755
131,1,0.8,0.0,-35.0,1,0.0,8.268799999999942
132,1,0.8,0.125,-35.0,-1,1.0,0.27830000000000155
133,1,0.8,0.125,-35.0,-1,1.0,0.2596999999999525
134,1,0.8,0.0625,-35.0,-1,1.0,0.2019990000000007
135,1,0.8,1.0,35.0,1,1.0,0.09519999999997708
136,1,0.8,0.0,-35.0,-1,1.0,0.4194999999999709
137,1,0.8,0.125,35.0,1,1.0,0.17910000000000537
138,1,0.8,0.0625,-35.0,-1,1.0,0.21789999999992915
139,1,0.8,0.0,35.0,-1,0.0,0.7024999999999864
140,1,0.8,0.0,-35.0,1,0.0,0.274599999999964
141,1,0.8,0.25,-35.0,-1,1.0,0.40459999999995944
142,1,0.8,0.25,-35.0,-1,1.0,0.23669999999992797
143,1,0.8,1.0,-35.0,-1,1.0,0.45869999999990796
144,1,0.8,0.0,-35.0,-1,1.0,0.4160999999999717
145,1,0.8,0.125,-35.0,-1,1.0,0.22519999999997253
146,1,0.8,0.25,35.0,1,1.0,0.2291999999999348
147,1,0.8,0.0,-35.0,-1,1.0,0.42789899999996805
148,1,0.8,0.125,-35.0,-1,1.0,0.20249999999998636
149,1,0.8,0.0625,-35.0,-1,1.0,0.41329999999999245
150,1,0.8,0.0625,35.0,-1,0.0,0.23059999999992442
151,1,0.8,0.25,-35.0,-1,1.0,0.13869999999997162
152,1,0.8,0.0,-35.0,-1,1.0,0.19839999999993552
153,1,0.8,0.25,35.0,1,1.0,0.4996999999999048
154,1,0.8,0.0625,-35.0,-1,1.0,0.22339999999996962
155,1,0.8,0.125,35.0,1,1.0,0.2418999999999869
156,1,0.8,0.0,-35.0,-1,1.0,0.1732000000000653
157,1,0.8,0.25,-35.0,-1,1.0,0.41190000000005966
158,1,0.8,0.0625,35.0,1,1.0,0.7925999999999931
159,1,0.8,0.125,35.0,1,1.0,0.2438999999999396
160,1,0.8,0.25,-35.0,-1,1.0,0.14499999999986812
161,1,0.8,1.0,-35.0,1,0.0,0.11000000000001364
162,1,0.8,0.0625,-35.0,1,0.0,0.27509999999995216
163,1,0.8,1.0,-35.0,-1,1.0,0.23849999999993088
164,1,0.8,0.0,-35.0,-1,1.0,0.18029999999998836
165,1,0.8,0.25,-35.0,-1,1.0,0.3347999999999729
166,1,0.2,0.0,35.0,1,1.0,0.18589999999994689
167,1,0.2,0.125,35.0,-1,0.0,0.18290000000001783
168,1,0.2,1.0,35.0,1,1.0,0.39430000000004384
169,1,0.2,0.25,35.0,1,1.0,0.6887000000000398
170,1,0.2,0.0,-35.0,1,0.0,0.37369999999998527
171,1,0.2,0.125,35.0,-1,0.0,0.19209999999998217
172,1,0.2,1.0,35.0,1,1.0,0.2074999999999818
173,1,0.2,0.25,35.0,1,1.0,0.21920000000000073
174,1,0.2,0.125,35.0,1,1.0,0.3649999999998954
175,1,0.2,1.0,-35.0,-1,1.0,0.36559999999997217
176,1,0.2,0.125,35.0,1,1.0,0.0969999999998663
177,1,0.2,1.0,35.0,1,1.0,0.18700000000001182
178,1,0.2,0.125,35.0,1,1.0,0.33400000000006
179,1,0.2,0.0625,35.0,-1,0.0,0.22080000000005384
180,1,0.2,1.0,-35.0,-1,1.0,0.2256000000000995
181,1,0.2,0.0,35.0,1,1.0,2.4225000000000136
182,1,0.2,0.125,35.0,1,1.0,0.2158990000000358
183,1,0.2,0.25,35.0,1,1.0,-0.019700000000057116
184,1,0.2,0.125,35.0,1,1.0,0.1893000000000029
185,1,0.2,1.0,35.0,1,1.0,0.31999999999993634
186,1,0.8,0.0,-35.0,1,0.0,0.3149999999999409
187,1,0.8,0.125,-35.0,1,0.0,0.27539999999999054
188,1,0.8,0.25,-35.0,-1,1.0,0.23849999999993088
189,1,0.8,0.25,-35.0,-1,1.0,0.49120000000004893
190,1,0.8,0.125,-35.0,-1,1.0,0.2445989999999938
191,1,0.8,0.125,35.0,-1,0.0,0.34579999999994016
192,1,0.8,0.25,-35.0,-1,1.0,0.2039999999999509
193,1,0.8,1.0,-35.0,-1,1.0,0.20759899999995923
194,1,0.8,1.0,-35.0,-1,1.0,0.17899999999997362
195,1,0.8,0.0625,-35.0,-1,1.0,0.3529999999999518
196,1,0.8,0.0625,35.0,-1,0.0,0.31970000000001164
197,1,0.8,0.0625,-35.0,-1,1.0,2.9325000000000045
198,1,0.8,1.0,-35.0,-1,1.0,0.18250000000000455
199,1,0.8,1.0,-35.0,-1,1.0,0.1712999999999738
200,1,0.8,1.0,-35.0,-1,1.0,0.15499999999997272
201,1,0.8,0.25,-35.0,-1,1.0,0.1673000000000684
202,1,0.8,0.0625,-35.0,-1,1.0,0.4019989999999325
203,1,0.8,0.0,-35.0,-1,1.0,0.44299999999998363
204,1,0.8,1.0,-35.0,-1,1.0,0.4401999999998907
205,1,0.8,0.0625,-35.0,-1,1.0,3.5440999999999576
206,1,0.8,1.0,-35.0,-1,1.0,0.38189999999997326
207,1,0.8,0.125,35.0,-1,0.0,0.26490000000001146
208,1,0.8,0.25,-35.0,-1,1.0,0.18189999999992779
209,1,0.8,0.0625,-35.0,-1,1.0,0.1870000000001255
210,1,0.8,0.25,-35.0,-1,1.0,0.21000000000003638
211,1,0.8,0.0625,-35.0,-1,1.0,0.20209999999997308
212,1,0.8,0.0625,-35.0,1,0.0,0.18910000000005311
213,1,0.8,0.25,-35.0,-1,1.0,0.17619999999988067
214,1,0.8,0.125,35.0,1,1.0,0.34349999999994907
215,1,0.8,0.0625,-35.0,-1,1.0,0.4692999999999756
216,1,0.8,0.0625,35.0,-1,0.0,0.26759999999990214
217,1,0.8,0.0625,-35.0,-1,1.0,0.1594000000000051
218,1,0.8,0.25,35.0,1,1.0,0.3409999999998945
219,1,0.8,0.0625,-35.0,-1,1.0,0.17509999999992942
220,1,0.8,0.125,-35.0,-1,1.0,0.34379999999998745
221,1,0.8,0.125,-35.0,-1,1.0,0.14979900000003
222,1,0.8,0.0625,35.0,-1,0.0,0.5925000000000864
223,1,0.8,1.0,-35.0,-1,1.0,0.1752999999999929
224,1,0.8,0.25,-35.0,-1,1.0,0.4176989999999705
225,1,0.8,0.25,-35.0,-1,1.0,0.46099999999989905
226,1,0.8,0.125,-35.0,-1,1.0,0.4202989999998863
227,1,0.8,0.0625,-35.0,-1,1.0,0.22879999999997835
228,1,0.8,1.0,-35.0,-1,1.0,0.4013999999999669
229,1,0.8,0.25,-35.0,-1,1.0,0.14150000000006457
230,1,0.8,0.125,-35.0,-1,1.0,0.40949999999998
231,1,0.8,0.25,-35.0,-1,1.0,0.24220000000002528
232,1,0.8,0.25,-35.0,-1,1.0,0.203899999999976
233,1,0.8,0.25,-35.0,-1,1.0,0.042898999999920306
234,1,0.8,0.0,35.0,-1,0.0,0.16700000000003
235,1,0.2,1.0,35.0,-1,0.0,0.21039999999993597
236,1,0.2,0.25,35.0,1,1.0,0.2780999999999949
237,1,0.2,1.0,35.0,1,1.0,0.2441000000000031
238,1,0.2,0.125,35.0,1,1.0,0.16589999999996508
239,1,0.2,0.0625,-35.0,-1,1.0,0.44460000000003674
240,1,0.2,0.125,35.0,1,1.0,0.22719999999992524
241,1,0.2,0.125,35.0,1,1.0,0.7039999999999509
242,1,0.2,0.25,-35.0,1,0.0,0.17929999999989832
243,1,0.2,0.0,35.0,-1,0.0,0.1877999999999247
244,1,0.2,0.25,35.0,1,1.0,0.25319999999999254
245,1,0.2,0.0625,35.0,1,1.0,0.949100000000044
246,1,0.2,1.0,-35.0,-1,1.0,0.3229999999999791
247,1,0.2,0.125,35.0,-1,0.0,0.278699999999958
248,1,0.2,0.125,35.0,-1,0.0,0.18830000000002656
249,1,0.2,0.25,35.0,-1,0.0,0.14469999999994343
250,1,0.2,0.0,-35.0,1,0.0,0.630399999999895
251,1,0.2,0.0625,35.0,-1,0.0,0.45450000000005275
252,1,0.2,0.0625,35.0,1,1.0,0.5154999999999745
253,1,0.2,1.0,35.0,1,1.0,0.19059999999990396
254,1,0.2,0.25,-35.0,-1,1.0,0.29160000000001673
255,1,0.2,0.25,35.0,1,1.0,0.22670000000005075
256,1,0.2,0.125,-35.0,1,0.0,0.1530999999999949
257,1,0.2,0.0625,35.0,1,1.0,0.3570999999999458
258,1,0.2,0.0625,35.0,1,1.0,0.30480000000011387
259,1,0.2,0.25,35.0,1,1.0,0.3181999999999334
260,1,0.2,0.0625,35.0,1,1.0,0.16689999999994143
261,1,0.2,0.25,35.0,1,1.0,0.16289999999992233
262,1,0.2,0.125,35.0,1,1.0,0.2499999999998863
263,1,0.2,0.125,35.0,1,1.0,0.17799999999988358
264,1,0.2,0.0625,35.0,1,1.0,0.13709900000003472
265,1,0.2,1.0,35.0,1,1.0,0.1815000000000282
266,1,0.2,0.125,35.0,1,1.0,0.024200000000064392
267,1,0.2,0.0,35.0,1,1.0,0.148900000000026
268,1,0.2,0.0,35.0,-1,0.0,4.839799999999968
269,1,0.2,0.125,35.0,1,1.0,-0.046500000000150976
270,1,0.2,0.25,35.0,1,1.0,0.17039999999985866
271,1,0.2,0.125,35.0,1,1.0,0.15880000000004202
272,1,0.2,0.25,35.0,1,1.0,0.1793999999999869
273,1,0.2,0.25,35.0,1,1.0,0.16609999999991487
274,1,0.2,0.0625,-35.0,1,0.0,0.3857999999999038
275,1,0.2,1.0,-35.0,-1,1.0,0.45279900000002726
276,1,0.2,0.25,-35.0,-1,1.0,0.3487999999998692
277,1,0.2,0.0625,35.0,-1,0.0,0.1752999999999929
278,1,0.2,1.0,35.0,1,1.0,0.14219999999988886
279,1,0.2,0.25,35.0,1,1.0,0.19400000000007367
280,1,0.2,0.0,35.0,1,1.0,0.3566999999999325
281,1,0.2,1.0,35.0,1,1.0,0.18279999999992924
282,1,0.2,1.0,35.0,1,1.0,0.19110000000000582
283,1,0.2,1.0,35.0,1,1.0,0.23919999999998254
284,1,0.2,0.25,35.0,1,1.0,0.1675000000000182
285,1,0.2,0.0625,35.0,1,1.0,0.21829999999999927
286,1,0.2,0.125,35.0,1,1.0,0.1852999999999838
287,1,0.2,0.125,35.0,1,1.0,0.3366999999999507
288,1,0.2,0.0625,35.0,1,1.0,0.18399999999996908
289,1,0.2,0.125,35.0,1,1.0,0.2563989999999876
290,1,0.2,0.25,35.0,1,1.0,0.17639899999994668
291,1,0.2,0.0,35.0,1,1.0,0.35180000000002565
292,1,0.2,0.0625,35.0,1,1.0,0.22509999999988395
293,1,0.2,0.25,-35.0,-1,1.0,0.20380000000011478
294,1,0.2,0.125,35.0,-1,0.0,1.0445999999999458
295,1,0.2,0.0,35.0,-1,0.0,0.20529999999996562
296,1,0.2,0.125,35.0,-1,0.0,0.4679989999999634
297,1,0.2,1.0,35.0,-1,0.0,-0.12110000000006949
298,1,0.2,1.0,35.0,1,1.0,0.3341000000000349
299,1,0.2,0.25,35.0,1,1.0,0.1852000000000089
300,1,0.2,0.125,35.0,1,1.0,0.4173999999999296
301,1,0.2,1.0,35.0,1,1.0,0.17719999999997071
302,1,0.2,0.0625,35.0,1,1.0,0.32359900000005837
303,1,0.2,1.0,35.0,1,1.0,0.026699999999891588
304,1,0.2,0.0625,35.0,1,1.0,0.24529999999992924
305,1,0.2,0.0625,35.0,1,1.0,0.1853999999999587
306,1,0.2,1.0,35.0,1,1.0,0.20210000000008677
307,1,0.2,0.0,35.0,1,1.0,0.3386999999999034
308,1,0.2,0.0625,-35.0,1,0.0,0.1720989999998892
309,1,0.2,0.125,-35.0,-1,1.0,0.2421999999999116
310,1,0.2,0.25,35.0,1,1.0,0.2622000000001208
311,1,0.2,1.0,35.0,1,1.0,0.18889999999987594
312,1,0.2,0.0625,35.0,-1,0.0,0.37229999999999563
313,1,0.2,1.0,35.0,1,1.0,0.25890000000003965
314,1,0.2,0.0625,35.0,1,1.0,0.39239999999972497
315,1,0.2,0.125,-35.0,-1,1.0,0.443599999999833
316,1,0.2,1.0,35.0,1,1.0,0.25240000000007967
317,1,0.2,0.125,35.0,1,1.0,0.5791999999999007
318,1,0.2,1.0,35.0,1,1.0,0.17009999999982028
319,1,0.2,0.0625,35.0,1,1.0,0.33930000000009386
320,1,0.2,0.0625,35.0,1,1.0,0.17259899999999107
321,1,0.2,0.25,35.0,1,1.0,0.2059990000000198
322,1,0.2,1.0,35.0,1,1.0,0.03449999999997999
323,1,0.2,0.0,35.0,1,1.0,0.1993999999999687
324,1,0.2,1.0,35.0,1,1.0,0.20280000000002474
325,1,0.2,0.25,35.0,1,1.0,0.19610000000011496
326,1,0.2,1.0,35.0,1,1.0,0.2161999999998443
327,1,0.2,0.25,35.0,1,1.0,0.1829000000002452
328,1,0.2,1.0,-35.0,-1,1.0,0.3930000000000291
329,1,0.2,1.0,35.0,1,1.0,0.1795999999999367
330,1,0.8,0.125,-35.0,1,0.0,0.03449999999975262
331,1,0.8,0.125,-35.0,-1,1.0,0.2862999999999829
332,1,0.8,0.25,-35.0,-1,1.0,0.2598000000000411
333,1,0.8,0.25,-35.0,-1,1.0,0.37979999999993197
334,1,0.8,0.125,-35.0,-1,1.0,0.3130989999999656
335,1,0.8,0.125,35.0,-1,0.0,0.33989999999994325
336,1,0.8,1.0,-35.0,-1,1.0,0.22329999999988104
337,1,0.8,0.0625,-35.0,-1,1.0,0.41660000000001673
338,1,0.8,0.125,-35.0,1,0.0,0.13330000000019027
339,1,0.8,0.0625,-35.0,-1,1.0,0.35999999999989996
340,1,0.8,0.125,-35.0,-1,1.0,0.16340000000013788
341,1,0.8,0.25,35.0,1,1.0,0.456798999999819
342,1,0.8,1.0,35.0,1,1.0,0.2134000000000924
343,1,0.8,0.0625,-35.0,-1,1.0,0.44679999999993925
344,1,0.8,0.0625,-35.0,-1,1.0,0.5135000000000218
345,1,0.8,0.25,-35.0,-1,1.0,0.22019999999997708
346,1,0.8,1.0,-35.0,-1,1.0,0.21699899999998706
347,1,0.8,1.0,-35.0,-1,1.0,0.19699999999988904
348,1,0.8,0.25,-35.0,-1,1.0,0.24700000000007094
349,1,0.8,0.25,-35.0,-1,1.0,0.20039999999994507
350,1,0.8,0.125,-35.0,-1,1.0,0.1771000000001095
351,1,0.8,1.0,-35.0,-1,1.0,0.39380000000005566
352,1,0.8,0.125,35.0,1,1.0,0.35039899999992485
353,1,0.8,0.125,-35.0,-1,1.0,0.3471999999999298
354,1,0.8,0.0625,-35.0,1,0.0,0.2238999999999578
355,1,0.8,0.25,-35.0,-1,1.0,0.20129999999994652
356,1,0.8,0.125,-35.0,-1,1.0,0.33390000000008513
357,1,0.8,0.0,-35.0,-1,1.0,0.1774000000000342
358,1,0.8,0.0625,-35.0,-1,1.0,0.331599999999753
359,1,0.8,1.0,-35.0,-1,1.0,0.28409899999996924
360,1,0.8,0.125,-35.0,-1,1.0,0.33079900000007
361,1,0.8,1.0,-35.0,-1,1.0,0.20749899999987065
362,1,0.8,0.25,-35.0,-1,1.0,0.2340999999998985
363,1,0.8,1.0,35.0,-1,0.0,0.14429999999993015
364,1,0.8,1.0,-35.0,-1,1.0,0.10090000000013788
365,1,0.8,1.0,-35.0,-1,1.0,0.27759900000000926
366,1,0.8,0.125,-35.0,-1,1.0,0.16769999999996799
367,1,0.8,0.0625,35.0,-1,0.0,0.19109900000012203
368,1,0.8,1.0,35.0,1,1.0,0.48119999999994434
369,1,0.8,0.0625,-35.0,-1,1.0,0.2578000000000884
370,1,0.8,0.0625,-35.0,-1,1.0,0.21780000000012478
371,1,0.8,0.25,-35.0,-1,1.0,0.19460000000003674
372,1,0.8,0.25,-35.0,-1,1.0,0.19789900000023408
373,1,0.8,1.0,-35.0,-1,1.0,0.12120000000004438
374,1,0.8,0.0,-35.0,-1,1.0,0.2146989999998823
375,1,0.8,0.0,35.0,-1,0.0,0.36799999999993815
376,1,0.8,1.0,-35.0,-1,1.0,0.2279999999998381
377,1,0.8,1.0,-35.0,-1,1.0,0.6480999999998858
378,1,0.8,1.0,35.0,1,1.0,0.1914000000001579
379,1,0.8,0.25,35.0,1,1.0,0.23479900000029374
380,1,0.8,0.25,-35.0,1,0.0,0.2316000000000713
381,1,0.8,0.0625,-35.0,-1,1.0,0.375
382,1,0.8,0.25,-35.0,-1,1.0,0.27490000000011605
383,1,0.8,1.0,-35.0,-1,1.0,0.19170000000008258
384,1,0.8,0.125,-35.0,-1,1.0,0.22499999999990905
385,1,0.8,0.0625,-35.0,-1,1.0,0.38839999999981956
386,1,0.8,1.0,-35.0,-1,1.0,0.31179999999972097
387,1,0.8,0.25,35.0,1,1.0,0.22849999999993997
388,1,0.8,0.0625,-35.0,-1,1.0,0.5851999999999862
389,1,0.8,0.125,-35.0,-1,1.0,0.34189999999989595
390,1,0.8,1.0,-35.0,-1,1.0,0.39859999999998763
391,1,0.8,1.0,-35.0,-1,1.0,0.26529900000014095
392,1,0.8,0.25,-35.0,-1,1.0,0.3519989999997506
393,1,0.8,1.0,-35.0,-1,1.0,0.2920000000001437
394,1,0.8,1.0,-35.0,-1,1.0,0.25549999999998363
395,1,0.8,0.0625,-35.0,-1,1.0,0.3888000000001739
396,1,0.8,1.0,35.0,1,1.0,0.22549999999978354
397,1,0.8,0.25,-35.0,-1,1.0,0.20549999999980173
398,1,0.8,0.0,-35.0,-1,1.0,0.1856000000000222
399,1,0.8,0.0,-35.0,-1,1.0,0.23900000000026012
400,1,0.8,0.0625,-35.0,1,0.0,0.3923000000002048
401,1,0.8,0.125,35.0,-1,0.0,0.4023000000001957
402,1,0.8,1.0,-35.0,-1,1.0,0.15239999999994325
403,1,0.8,0.0,35.0,1,1.0,0.7989999999999782
404,1,0.8,0.125,-35.0,-1,1.0,0.42909899999995105
405,1,0.8,0.125,-35.0,-1,1.0,0.20910000000003492
406,1,0.8,1.0,-35.0,-1,1.0,0.22260000000005675
407,1,0.8,1.0,-35.0,-1,1.0,0.18259999999986576
408,1,0.8,1.0,-35.0,-1,1.0,0.1825989999997546
409,1,0.8,0.0,-35.0,-1,1.0,0.45260000000007494
410,1,0.8,0.25,-35.0,-1,1.0,0.24939999999992324
411,1,0.2,0.0,-35.0,1,0.0,0.1960999999998876
412,1,0.2,0.0625,35.0,-1,0.0,0.1960999999998876
413,1,0.2,0.25,35.0,1,1.0,0.5261000000000422
414,1,0.2,0.25,35.0,1,1.0,0.24630000000001928
415,1,0.2,0.125,35.0,1,1.0,0.25959999999986394
416,1,0.2,0.125,35.0,1,1.0,0.236299999999801
417,1,0.2,0.125,35.0,1,1.0,0.3162999999999556
418,1,0.2,0.0,35.0,1,1.0,0.1630999999999858
419,1,0.2,1.0,35.0,1,1.0,0.35970000000020264
420,1,0.2,1.0,35.0,1,1.0,0.18650000000002365
421,1,0.2,0.125,35.0,1,1.0,0.24649999999996908
422,1,0.2,0.125,35.0,1,1.0,0.2764999999999418
423,1,0.2,0.25,35.0,1,1.0,0.1999999999998181
424,1,0.2,0.25,35.0,1,1.0,0.1332999999999629
425,1,0.2,0.25,35.0,1,1.0,0.209999999999809
426,1,0.2,0.0625,35.0,1,1.0,0.3067000000000917
427,1,0.2,0.125,35.0,1,1.0,0.22670000000016444
428,1,0.2,0.25,-35.0,-1,1.0,0.6235000000001492
429,1,0.2,1.0,35.0,1,1.0,0.20679999999993015
430,1,0.2,0.0625,35.0,1,1.0,0.1800989999999274
431,1,0.2,1.0,35.0,1,1.0,0.1669000000001688
432,1,0.2,0.125,35.0,1,1.0,0.2036000000000513
433,1,0.2,0.0625,35.0,1,1.0,0.18699999999989814
434,1,0.2,1.0,35.0,1,1.0,0.32029899999997724
435,1,0.2,1.0,35.0,1,1.0,0.2702999999999065
436,1,0.2,0.25,35.0,1,1.0,0.17699999999990723
437,1,0.2,0.0,-35.0,1,0.0,0.3203999999998359
438,1,0.2,0.25,35.0,1,1.0,0.173799999999801
439,1,0.2,0.25,35.0,1,1.0,0.18380000000001928
440,1,0.2,0.25,35.0,1,1.0,0.2338999999999487
441,1,0.2,0.0625,35.0,1,1.0,0.2438999999999396
442,1,0.2,0.25,35.0,1,1.0,0.453899999999976
443,1,0.2,0.25,35.0,1,1.0,0.09699899999986883
444,1,0.2,0.25,35.0,1,1.0,0.6006999999997333
445,1,0.2,0.25,35.0,-1,0.0,0.5008000000000266
446,1,0.2,0.25,35.0,1,1.0,0.1574000000000524
447,1,0.2,0.25,35.0,1,1.0,0.19089899999994486
448,1,0.2,1.0,35.0,1,1.0,0.14850000000001273
449,1,0.2,0.0625,35.0,1,1.0,0.1575999999997748
450,1,0.2,1.0,-35.0,-1,1.0,0.7042000000001281
451,1,0.2,0.125,35.0,1,1.0,0.3893000000000484
452,1,0.2,0.125,35.0,1,1.0,0.21100000000001273
453,1,0.2,0.0,35.0,1,1.0,0.2278000000001157
454,1,0.2,1.0,35.0,1,1.0,0.19110000000000582
455,1,0.2,0.0625,35.0,1,1.0,0.1711999999999989
456,1,0.2,1.0,35.0,1,1.0,0.024499999999989086
457,1,0.2,0.25,-35.0,1,0.0,0.37449999999989814
458,1,0.2,0.0625,35.0,1,1.0,0.19129999999972824
459,1,0.2,1.0,35.0,1,1.0,0.1712999999999738
460,1,0.2,0.125,35.0,1,1.0,0.031300000000101136
461,1,0.2,0.0,-35.0,1,0.0,0.09310000000004948
462,1,0.2,0.125,-35.0,1,0.0,0.3648000000000593
463,1,0.2,0.0,35.0,1,1.0,0.36149999999997817
464,1,0.2,0.25,35.0,1,1.0,0.17300000000000182
465,1,0.2,0.25,35.0,1,1.0,0.6648000000000138
466,1,0.2,0.0,35.0,-1,0.0,0.39839999999981046
467,1,0.2,0.0,35.0,1,1.0,0.3650000000000091
468,1,0.2,1.0,35.0,1,1.0,0.08849999999983993
469,1,0.2,0.0,35.0,1,1.0,2.743400000000065
470,1,0.2,0.25,35.0,1,1.0,0.24519999999984066
471,1,0.2,1.0,35.0,1,1.0,0.2119000000000142
472,1,0.8,0.25,-35.0,-1,1.0,0.7952999999999975
473,1,0.8,0.125,-35.0,1,0.0,5.488700000000108
474,1,0.8,0.0625,-35.0,1,0.0,8.56880000000001
475,1,0.8,0.25,-35.0,-1,1.0,0.332300000000032
476,1,0.8,0.25,-35.0,1,0.0,0.31899999999996
477,1,0.8,0.125,-35.0,1,0.0,8.805599999999913
478,1,0.8,0.25,-35.0,1,0.0,11.732500000000073
479,1,0.8,0.0625,35.0,1,1.0,-0.05730100000005223
480,1,0.8,0.0625,35.0,1,1.0,0.24939999999992324
481,1,0.8,0.125,-35.0,-1,1.0,5.189399999999978
482,1,0.8,0.0625,35.0,1,1.0,0.09289999999987231
483,1,0.8,0.125,-35.0,-1,1.0,0.36199999999985266
484,1,0.8,0.25,-35.0,-1,1.0,0.13620000000014443
485,1,0.8,0.125,-35.0,1,0.0,0.24619899999993322
486,1,0.8,0.125,-35.0,-1,1.0,0.6230000000000473
487,1,0.8,0.0625,-35.0,-1,1.0,9.542999000000009
488,1,0.8,0.0625,-35.0,-1,1.0,7.363200000000006
489,1,0.8,0.0625,35.0,1,1.0,0.7399989999998979
490,1,0.8,1.0,-35.0,-1,1.0,0.21339899999998124
491,1,0.8,0.25,-35.0,1,0.0,0.2900999999999385
492,1,0.8,0.0625,-35.0,-1,1.0,7.876800000000003
493,1,0.2,0.125,35.0,1,1.0,0.15679999999997563
494,1,0.2,0.125,35.0,1,1.0,0.20379999999977372
495,1,0.2,0.0625,-35.0,1,0.0,3.5500999999999294
496,1,0.2,0.0,35.0,1,1.0,0.3169999999997799
497,1,0.2,0.0625,35.0,1,1.0,0.22709999999983665
498,1,0.2,0.25,-35.0,-1,1.0,10.670699999999897
499,1,0.2,1.0,35.0,1,1.0,0.22079999999982647
500,1,0.2,0.0625,-35.0,1,0.0,13.607500000000073
501,1,0.2,0.125,-35.0,-1,1.0,13.87779999999998
502,1,0.2,1.0,35.0,1,1.0,1.8911999999997988
503,1,0.2,0.0,35.0,1,1.0,0.6546999999998206
504,1,0.2,0.125,35.0,-1,0.0,0.894800000000032
505,1,0.2,1.0,35.0,1,1.0,0.23789899999997033
506,1,0.2,1.0,35.0,1,1.0,0.20810000000005857
507,1,0.2,0.25,35.0,1,1.0,0.22799899999995432
508,1,0.2,0.25,35.0,1,1.0,0.25139999999987594
509,1,0.2,0.0625,35.0,1,1.0,0.18819999999982429
510,1,0.2,0.0625,35.0,1,1.0,0.17810000000008586
511,1,0.2,1.0,35.0,1,1.0,0.1916999999998552
512,1,0.2,1.0,35.0,1,1.0,0.18499899999983427
513,1,0.8,0.0,-35.0,1,0.0,0.19839999999999236
514,1,0.8,0.0625,-35.0,-1,1.0,0.30160000000000764
515,1,0.8,0.125,-35.0,-1,1.0,0.2817000000000007
516,1,0.8,0.0625,35.0,-1,0.0,0.25159999999982574
517,1,0.8,0.25,-35.0,-1,1.0,0.19839999999999236
518,1,0.8,1.0,-35.0,-1,1.0,0.19489900000007765
519,1,0.8,0.0,-35.0,1,0.0,0.17869999999993524
520,1,0.8,0.25,-35.0,-1,1.0,0.16820000000006985
521,1,0.8,1.0,-35.0,-1,1.0,0.1351999999999407
522,1,0.8,0.125,-35.0,-1,1.0,0.1588000000001557
523,1,0.8,0.0,-35.0,-1,1.0,0.22199999999975262
524,1,0.8,0.0,-35.0,-1,1.0,0.7454000000000178
525,1,0.8,1.0,-35.0,-1,1.0,0.1818989999999303
526,1,0.8,0.125,-35.0,-1,1.0,0.15189999999984138
527,1,0.8,1.0,-35.0,-1,1.0,0.2155999999999949
528,1,0.8,0.0,35.0,-1,0.0,4.2388999999998305
529,1,0.8,0.125,-35.0,-1,1.0,0.21910000000002583
530,1,0.8,0.125,-35.0,-1,1.0,0.25919999999996435
531,1,0.8,0.0625,-35.0,-1,1.0,0.21560000000022228
532,1,0.8,1.0,-35.0,-1,1.0,0.27929900000003727
533,1,0.8,0.0625,-35.0,-1,1.0,0.26579999999989923
534,1,0.8,0.125,35.0,1,1.0,0.35920000000010077
535,1,0.8,0.0625,-35.0,-1,1.0,0.2293000000001939
536,1,0.8,0.25,35.0,1,1.0,0.3126999999999498
537,1,0.8,0.125,-35.0,-1,1.0,0.3826000000001386
538,1,0.8,0.25,-35.0,-1,1.0,0.21909900000014204
539,1,0.8,0.0625,-35.0,-1,1.0,0.4358999999999469
540,1,0.8,0.0,35.0,1,1.0,0.23600000000010368
541,1,0.8,0.25,-35.0,-1,1.0,0.5626999999999498
542,1,0.8,0.125,-35.0,-1,1.0,0.2928999999999178
543,1,0.8,1.0,-35.0,-1,1.0,0.36619999999993524
544,1,0.8,0.25,-35.0,-1,1.0,0.6393000000000484
545,1,0.8,0.0625,35.0,1,1.0,0.25299999999992906
546,1,0.8,0.125,-35.0,-1,1.0,0.22630000000003747
547,1,0.8,0.0625,-35.0,-1,1.0,8.169599999999946
548,1,0.8,0.0625,-35.0,-1,1.0,0.3731999999999971
549,1,0.8,0.0625,-35.0,1,0.0,11.589799999999968
550,1,0.8,1.0,-35.0,-1,1.0,0.24330000000009022
551,1,0.8,1.0,-35.0,-1,1.0,0.24979999999982283
552,1,0.8,0.25,35.0,1,1.0,0.2868999999998323
553,1,0.8,0.25,-35.0,-1,1.0,0.23330000000009932
554,1,0.8,1.0,-35.0,-1,1.0,0.5169999999998254
555,1,0.8,1.0,-35.0,-1,1.0,0.20029900000008638
556,1,0.8,0.0,-35.0,-1,1.0,1.083798999999999
557,1,0.8,0.125,-35.0,1,0.0,3.5135999999999967
558,1,0.8,0.0625,-35.0,1,0.0,1.5206000000000586
559,1,0.8,0.125,35.0,1,1.0,6.2804000000001
560,1,0.8,0.0,-35.0,-1,1.0,12.440898999999945
561,1,0.8,0.0,-35.0,-1,1.0,0.34419999999977335
562,1,0.8,0.25,-35.0,-1,1.0,12.357500000000073
563,1,0.8,0.125,-35.0,-1,1.0,10.87779999999998
564,1,0.8,0.25,-35.0,-1,1.0,2.8514999999999873
565,1,0.8,1.0,-35.0,-1,1.0,0.2379000000000815
566,1,0.8,0.125,-35.0,-1,1.0,8.807999999999765
567,1,0.8,0.0,-35.0,-1,1.0,11.525000000000091
568,1,0.8,0.25,-35.0,-1,1.0,0.43550000000050204
569,1,0.8,1.0,-35.0,-1,1.0,0.23849999999993088
570,1,0.8,0.0,-35.0,-1,1.0,1.1819000000000415
571,1,0.8,0.25,-35.0,1,0.0,24.858600000000024
572,1,0.8,0.125,-35.0,1,0.0,0.6256989999997131
573,1,0.8,0.25,-35.0,-1,1.0,6.638999999999669
574,1,0.8,0.25,-35.0,-1,1.0,0.2660000000000764
575,1,0.8,0.0,35.0,1,1.0,0.3789999999999054
576,1,0.8,0.25,-35.0,1,0.0,18.312399999999798
577,1,0.8,0.0625,-35.0,1,0.0,0.9060999999996966
578,1,0.8,0.25,-35.0,-1,1.0,0.28290000000015425
579,1,0.8,0.125,35.0,-1,0.0,4.619799999999486
580,1,0.8,0.0625,-35.0,-1,1.0,0.5896000000002459
581,1,0.8,0.0625,35.0,1,1.0,0.503099999999904
582,1,0.8,0.25,-35.0,-1,1.0,0.3431000000000495
583,1,0.8,0.25,-35.0,1,0.0,0.06669999999985521
584,1,0.8,0.25,-35.0,-1,1.0,45.28659999999991
585,1,0.8,0.25,-35.0,1,0.0,0.16049999999995634
1,2,0.5,1.0,35.0,1,1.0,0.4087000000000005
2,2,0.5,1.0,35.0,1,1.0,0.2765000000000004
3,2,0.5,0.0625,-35.0,-1,1.0,0.5937000000000019
4,2,0.5,0.125,35.0,-1,0.0,0.2518999999999991
5,2,0.5,0.0625,35.0,1,1.0,0.24859999999999616
6,2,0.5,0.25,-35.0,-1,1.0,0.2873999999999981
7,2,0.5,0.25,-35.0,-1,1.0,0.4785000000000039
8,2,0.5,0.0,-35.0,-1,1.0,0.3896999999999977
9,2,0.5,1.0,-35.0,-1,1.0,0.33149999999999835
10,2,0.5,0.0,35.0,-1,0.0,0.3785000000000025
11,2,0.5,0.125,-35.0,-1,1.0,0.18439999999999657
12,2,0.5,0.125,35.0,-1,0.0,0.15159999999998774
13,2,0.5,1.0,-35.0,-1,1.0,0.16779999999999973
14,2,0.5,0.0,35.0,-1,0.0,0.19779999999998665
15,2,0.5,0.0625,35.0,-1,0.0,0.1525999999999783
16,2,0.5,0.25,-35.0,-1,1.0,0.19029999999999347
17,2,0.5,1.0,-35.0,-1,1.0,0.18469999999999231
18,2,0.5,0.25,35.0,-1,0.0,1.6222999999999814
19,2,0.5,0.125,35.0,-1,0.0,0.30999999999998806
20,2,0.5,0.0625,-35.0,-1,1.0,2.7690999999999946
21,2,0.5,0.0625,-35.0,-1,1.0,0.210899999999981
22,2,0.5,0.125,-35.0,-1,1.0,0.32749999999998636
23,2,0.5,0.25,-35.0,-1,1.0,0.48399999999999466
24,2,0.5,0.0625,-35.0,-1,1.0,0.44669999999999277
25,2,0.5,0.0625,-35.0,-1,1.0,17.04729999999998
26,2,0.5,0.0625,-35.0,-1,1.0,0.5441999999999894
27,2,0.5,0.0625,35.0,1,1.0,0.5185999999999922
28,2,0.5,0.125,35.0,1,1.0,0.31399999999999295
29,2,0.5,0.0,-35.0,-1,1.0,0.19679999999996767
30,2,0.5,1.0,35.0,1,1.0,0.14409999999998035
31,2,0.5,0.0,35.0,-1,0.0,0.3638999999999726
32,2,0.5,1.0,35.0,1,1.0,0.3223999999999876
33,2,0.5,1.0,-35.0,-1,1.0,0.5544000000000153
34,2,0.5,0.0625,35.0,1,1.0,0.24370000000001824
35,2,0.5,0.25,-35.0,-1,1.0,0.44780000000000086
36,2,0.5,0.125,-35.0,-1,1.0,0.30230000000000246
37,2,0.5,1.0,-35.0,-1,1.0,0.2069999999999652
38,2,0.5,1.0,35.0,1,1.0,0.32499999999998863
39,2,0.5,0.125,-35.0,-1,1.0,0.20480000000000587
40,2,0.5,0.0,35.0,-1,0.0,0.3643999999999892
41,2,0.5,1.0,-35.0,-1,1.0,0.18479999999999563
42,2,0.5,1.0,35.0,1,1.0,0.22700000000000387
43,2,0.5,0.0,-35.0,1,0.0,1.2874999999999943
44,2,0.5,0.0625,-35.0,-1,1.0,0.13569999999998572
45,2,0.5,1.0,-35.0,-1,1.0,0.4824999999999875
46,2,0.5,0.0625,35.0,1,1.0,0.4122000000000128
47,2,0.5,0.0625,35.0,1,1.0,0.29119999999997503
48,2,0.5,0.25,35.0,1,1.0,0.25689999999997326
49,2,0.5,0.25,35.0,1,1.0,0.2727999999999895
50,2,0.5,0.25,-35.0,-1,1.0,0.16949999999999932
51,2,0.5,0.25,-35.0,-1,1.0,0.13999999999998636
52,2,0.5,0.125,35.0,1,1.0,0.7025999999999897
53,2,0.5,0.125,35.0,1,1.0,0.45410000000001105
54,2,0.5,0.125,-35.0,-1,1.0,0.4492999999999938
55,2,0.5,0.125,35.0,1,1.0,0.1922999999999888
56,2,0.5,1.0,-35.0,-1,1.0,0.22710000000000719
57,2,0.5,0.125,35.0,1,1.0,1.2101000000000113
58,2,0.5,0.0625,-35.0,1,0.0,0.3340000000000032
59,2,0.5,0.125,35.0,1,1.0,0.2989000000000033
60,2,0.5,0.25,-35.0,-1,1.0,0.38299999999998136
61,2,0.5,0.125,35.0,1,1.0,0.17679999999998586
62,2,0.5,0.0625,35.0,1,1.0,0.2921000000000049
63,2,0.5,0.25,35.0,1,1.0,0.16030000000000655
64,2,0.5,0.0625,35.0,1,1.0,0.2307999999999879
65,2,0.5,0.0,-35.0,1,0.0,0.3320000000000505
66,2,0.5,0.125,-35.0,-1,1.0,0.18410000000000082
67,2,0.5,0.25,35.0,1,1.0,0.3717999999999506
68,2,0.5,0.0,35.0,-1,0.0,0.3188999999999851
69,2,0.5,0.25,-35.0,-1,1.0,0.1856000000000222
70,2,0.5,1.0,-35.0,-1,1.0,0.2880999999999858
71,2,0.5,0.0625,-35.0,1,0.0,0.4886999999999375
72,2,0.5,1.0,-35.0,-1,1.0,0.1501999999999839
73,2,0.5,1.0,35.0,1,1.0,0.15989999999999327
74,2,0.5,1.0,-35.0,-1,1.0,0.3614000000000033
75,2,0.5,1.0,35.0,1,1.0,0.18410000000000082
76,2,0.5,0.25,35.0,1,1.0,0.20700000000005048
77,2,0.5,0.125,35.0,1,1.0,0.22709999999995034
78,2,0.5,0.25,35.0,1,1.0,0.18420000000003256
79,2,0.5,0.0625,35.0,1,1.0,0.1463000000000534
80,2,0.5,0.25,-35.0,1,0.0,0.3676999999999566
81,2,0.5,0.0625,35.0,-1,0.0,0.20699999999999363
82,2,0.5,1.0,-35.0,-1,1.0,0.18369999999998754
83,2,0.5,0.25,-35.0,1,0.0,0.4012000000000171
84,2,0.5,0.0625,-35.0,1,0.0,8.39119999999997
85,2,0.5,0.125,35.0,1,1.0,0.1553000000000111
86,2,0.5,0.125,-35.0,1,0.0,1.7031000000000063
87,2,0.5,0.0,-35.0,-1,1.0,0.352800000000002
88,2,0.5,0.25,-35.0,-1,1.0,0.17079999999998563
89,2,0.5,0.125,35.0,1,1.0,0.3891999999999598
90,2,0.5,0.0625,-35.0,-1,1.0,0.3654000000000224
91,2,0.8,1.0,35.0,1,1.0,0.21989999999999554
92,2,0.8,1.0,-35.0,-1,1.0,0.31439999999992096
93,2,0.8,0.0625,-35.0,-1,1.0,0.17619999999999436
94,2,0.8,0.0625,-35.0,-1,1.0,0.22419999999999618
95,2,0.8,0.0625,35.0,-1,0.0,0.4060999999999808
96,2,0.8,0.25,-35.0,-1,1.0,0.1695999999999458
97,2,0.8,0.25,-35.0,-1,1.0,0.1926000000000272
98,2,0.8,0.125,35.0,1,1.0,0.2899999999999636
99,2,0.8,0.25,-35.0,-1,1.0,0.16809999999998126
100,2,0.8,0.0625,-35.0,-1,1.0,0.33389999999997144
101,2,0.8,0.0,-35.0,-1,1.0,0.32920000000001437
102,2,0.8,1.0,-35.0,-1,1.0,0.17919999999998026
103,2,0.8,0.0625,-35.0,-1,1.0,0.14870000000001937
104,2,0.8,0.125,-35.0,-1,1.0,0.16140000000001464
105,2,0.8,0.0625,-35.0,-1,1.0,0.261099999999999
106,2,0.8,0.25,35.0,1,1.0,0.27379999999999427
107,2,0.8,1.0,-35.0,-1,1.0,0.20060000000000855
108,2,0.8,0.125,-35.0,-1,1.0,0.3260999999999967
109,2,0.8,0.0625,-35.0,-1,1.0,0.37740000000002283
110,2,0.8,0.25,-35.0,-1,1.0,0.31920000000002346
111,2,0.8,0.125,35.0,-1,0.0,0.18120000000004666
112,2,0.8,0.25,-35.0,-1,1.0,0.29199999999997317
113,2,0.8,1.0,-35.0,-1,1.0,0.14279999999996562
114,2,0.8,0.25,-35.0,-1,1.0,0.32059999999995625
115,2,0.8,0.25,-35.0,-1,1.0,0.2785000000000082
116,2,0.8,0.125,35.0,-1,0.0,0.13249999999999318
117,2,0.8,0.125,-35.0,-1,1.0,0.38379999999995107
118,2,0.8,0.25,35.0,1,1.0,0.20359999999999445
119,2,0.8,0.0,-35.0,1,0.0,0.47870000000000346
120,2,0.8,0.25,-35.0,-1,1.0,0.1905999999999608
121,2,0.8,0.25,-35.0,-1,1.0,0.3627999999999929
122,2,0.2,1.0,35.0,1,1.0,0.2470000000000141
123,2,0.2,0.0625,35.0,1,1.0,0.4377000000000635
124,2,0.2,0.125,35.0,1,1.0,0.25159999999999627
125,2,0.2,1.0,35.0,1,1.0,0.27429999999998245
126,2,0.2,0.25,-35.0,-1,1.0,0.7347000000000321
127,2,0.2,0.125,35.0,1,1.0,0.19769999999999754
128,2,0.2,0.125,35.0,1,1.0,0.21429999999998017
129,2,0.2,0.25,35.0,1,1.0,0.1742999999999597
130,2,0.2,0.125,35.0,1,1.0,0.1875
131,2,0.2,1.0,-35.0,-1,1.0,0.4602999999999611
132,2,0.2,1.0,-35.0,-1,1.0,0.6235000000000355
133,2,0.2,0.0,35.0,1,1.0,0.33049999999997226
134,2,0.2,0.0625,35.0,1,1.0,0.328899999999976
135,2,0.2,0.25,-35.0,-1,1.0,0.4523999999999546
136,2,0.2,0.25,35.0,1,1.0,0.19249999999999545
137,2,0.2,0.0625,-35.0,1,0.0,0.2694999999999368
138,2,0.2,0.0625,35.0,1,1.0,0.1484999999999559
139,2,0.2,1.0,35.0,1,1.0,0.13599999999996726
140,2,0.2,1.0,35.0,1,1.0,0.16859999999996944
141,2,0.2,1.0,-35.0,-1,1.0,0.19640000000003965
142,2,0.2,0.25,35.0,1,1.0,0.15010000000006585
143,2,0.2,1.0,35.0,1,1.0,0.18060000000014043
144,2,0.2,0.0,35.0,-1,0.0,0.4110999999999194
145,2,0.2,0.25,35.0,1,1.0,0.19220000000007076
146,2,0.2,1.0,35.0,1,1.0,0.1972000000000662
147,2,0.2,0.125,35.0,1,1.0,0.1673000000000684
148,2,0.2,0.25,35.0,1,1.0,0.16470000000003893
149,2,0.2,1.0,35.0,1,1.0,0.16870099999994181
150,2,0.2,0.0625,35.0,1,1.0,0.24440000000015516
151,2,0.2,1.0,35.0,1,1.0,0.19259999999997035
152,2,0.2,0.125,35.0,1,1.0,0.16160000000002128
153,2,0.2,0.25,-35.0,-1,1.0,0.3550999999999931
154,2,0.2,0.0625,35.0,1,1.0,0.16560000000004038
155,2,0.2,1.0,35.0,1,1.0,0.1591000000000804
156,2,0.2,0.0,35.0,1,1.0,0.35590000000001965
157,2,0.2,0.0625,-35.0,1,0.0,0.1832000000000562
158,2,0.2,0.0,35.0,1,1.0,0.1492000000000644
159,2,0.2,0.125,35.0,1,1.0,0.1630999999999858
160,2,0.2,0.0625,35.0,1,1.0,0.18659999999999854
161,2,0.2,0.0625,35.0,1,1.0,0.12260100000003149
162,2,0.2,0.0625,35.0,1,1.0,0.34730000000001837
163,2,0.2,0.25,35.0,1,1.0,0.14060000000006312
164,2,0.2,0.25,35.0,1,1.0,0.15170000000011896
165,2,0.2,0.125,35.0,1,1.0,0.16980000000000928
166,2,0.2,1.0,35.0,1,1.0,0.10439999999994143
167,2,0.2,1.0,35.0,1,1.0,0.1489010000000235
168,2,0.2,0.25,35.0,1,1.0,0.1488000000001648
169,2,0.2,0.0625,35.0,1,1.0,0.28930000000002565
170,2,0.2,0.0,35.0,1,1.0,0.14039999999999964
171,2,0.2,0.125,35.0,1,1.0,0.1552000000000362
172,2,0.2,0.125,35.0,1,1.0,0.13670000000001892
173,2,0.2,0.0625,35.0,1,1.0,0.1288000000000693
174,2,0.2,1.0,35.0,1,1.0,0.16059999999993124
175,2,0.2,1.0,35.0,1,1.0,0.14549999999997
176,2,0.2,1.0,35.0,1,1.0,0.11800000000005184
177,2,0.2,1.0,35.0,1,1.0,0.34110000000009677
178,2,0.2,0.0625,-35.0,1,0.0,0.18470000000002074
179,2,0.2,0.0625,35.0,1,1.0,0.13869999999997162
180,2,0.8,0.25,35.0,1,1.0,0.13459999999997763
181,2,0.8,0.125,-35.0,-1,1.0,0.2497000000000753
182,2,0.8,0.0,-35.0,1,0.0,0.22540000000003602
183,2,0.8,0.0,-35.0,-1,1.0,0.47280000000012024
184,2,0.8,0.0625,35.0,1,1.0,0.1612000000001217
185,2,0.8,0.125,-35.0,-1,1.0,0.29320000000006985
186,2,0.8,1.0,-35.0,-1,1.0,0.1938000000000102
187,2,0.8,0.125,-35.0,-1,1.0,0.22289999999998145
188,2,0.8,0.125,-35.0,1,0.0,0.17289999999991323
189,2,0.8,0.25,-35.0,-1,1.0,0.20470100000000002
190,2,0.8,0.25,-35.0,-1,1.0,0.27330000000006294
191,2,0.8,0.0,-35.0,-1,1.0,5.531800000000089
192,2,0.8,1.0,-35.0,-1,1.0,0.17390000000000327
193,2,0.8,1.0,-35.0,-1,1.0,0.19460000000003674
194,2,0.8,0.125,-35.0,-1,1.0,0.51400000000001
195,2,0.8,0.0625,-35.0,-1,1.0,0.26280100000008133
196,2,0.8,0.0625,-35.0,-1,1.0,0.37160000000005766
197,2,0.8,0.25,-35.0,-1,1.0,0.2962999999999738
198,2,0.8,0.125,-35.0,-1,1.0,0.21230000000002747
199,2,0.8,0.0625,-35.0,-1,1.0,0.7078000000000202
200,2,0.8,0.25,35.0,1,1.0,0.5278000000000702
201,2,0.8,1.0,-35.0,-1,1.0,0.16160000000002128
202,2,0.8,0.125,-35.0,-1,1.0,0.8044000000001006
203,2,0.8,1.0,-35.0,-1,1.0,0.26880000000005566
204,2,0.8,0.0625,-35.0,-1,1.0,0.18230000000016844
205,2,0.8,0.0625,35.0,-1,0.0,0.290300000000002
206,2,0.8,1.0,-35.0,-1,1.0,0.3124000000000251
207,2,0.8,0.125,-35.0,1,0.0,0.8034000000001242
208,2,0.8,1.0,-35.0,-1,1.0,0.14810000000011314
209,2,0.8,1.0,35.0,1,1.0,0.19090000000005602
210,2,0.8,0.25,-35.0,-1,1.0,0.21319999999991524
211,2,0.8,0.25,-35.0,-1,1.0,0.3224999999999909
212,2,0.8,0.125,-35.0,-1,1.0,0.3042010000000346
213,2,0.8,0.25,35.0,1,1.0,0.22660000000007585
214,2,0.8,0.125,-35.0,-1,1.0,0.30910000000005766
215,2,0.8,0.125,35.0,1,1.0,0.19430000000011205
216,2,0.8,0.0625,35.0,1,1.0,3.880200000000059
217,2,0.8,0.0625,-35.0,1,0.0,0.3952000000000453
218,2,0.8,1.0,35.0,1,1.0,0.1408999999999878
219,2,0.8,0.25,-35.0,1,0.0,0.1854000000000724
220,2,0.8,0.25,-35.0,-1,1.0,0.36790000000007694
221,2,0.8,1.0,-35.0,1,0.0,0.15820000000007894
222,2,0.8,0.25,-35.0,-1,1.0,0.4026000000001204
223,2,0.8,0.125,-35.0,-1,1.0,3.2579000000000633
224,2,0.8,0.125,-35.0,-1,1.0,0.24320000000000164
225,2,0.8,0.25,-35.0,-1,1.0,0.163599999999974
226,2,0.2,0.125,35.0,1,1.0,0.3290000000000646
227,2,0.2,0.25,35.0,1,1.0,0.23330000000009932
228,2,0.2,0.125,35.0,1,1.0,0.20019999999999527
229,2,0.2,1.0,35.0,1,1.0,0.19860000000005584
230,2,0.2,1.0,-35.0,-1,1.0,0.3170999999999822
231,2,0.2,0.0,35.0,1,1.0,0.15809999999999036
232,2,0.2,0.0,35.0,1,1.0,0.13710000000014588
233,2,0.2,0.0,35.0,1,1.0,0.18219999999996617
234,2,0.2,0.125,35.0,1,1.0,0.16830000000004475
235,2,0.2,0.125,35.0,1,1.0,0.14380000000005566
236,2,0.2,0.25,35.0,1,1.0,0.15589999999997417
237,2,0.2,0.125,-35.0,1,0.0,0.2902000000000271
238,2,0.2,0.25,35.0,1,1.0,0.31579999999996744
239,2,0.2,0.0625,35.0,1,1.0,0.21649999999999636
240,2,0.2,0.0625,35.0,1,1.0,0.2235000000000582
241,2,0.2,0.125,35.0,1,1.0,0.1588000000001557
242,2,0.2,0.0625,-35.0,1,0.0,0.1753000000001066
243,2,0.2,0.125,-35.0,-1,1.0,0.2622000000001208
244,2,0.2,0.25,35.0,1,1.0,0.1790000000000873
245,2,0.2,0.125,35.0,1,1.0,0.20870000000002165
246,2,0.2,0.25,-35.0,-1,1.0,0.3430000000000746
247,2,0.2,0.125,35.0,1,1.0,0.23610000000007858
248,2,0.2,1.0,-35.0,-1,1.0,0.30150000000003274
249,2,0.2,0.0625,35.0,1,1.0,0.27700000000004366
250,2,0.2,0.125,-35.0,-1,1.0,0.1953000000000884
251,2,0.2,0.25,35.0,1,1.0,0.22239999999999327
252,2,0.2,1.0,35.0,1,1.0,0.22270000000003165
253,2,0.2,0.25,35.0,1,1.0,0.1591000000000804
254,2,0.2,0.0625,35.0,1,1.0,0.6070010000000821
255,2,0.2,0.25,-35.0,-1,1.0,0.2033000000001266
256,2,0.2,0.0625,35.0,1,1.0,0.14740000000006148
257,2,0.2,0.0625,-35.0,1,0.0,0.17480000000000473
258,2,0.2,0.0625,35.0,1,1.0,0.15070000000002892
259,2,0.8,0.0625,-35.0,-1,1.0,0.5132000000000971
260,2,0.8,0.25,35.0,1,1.0,0.161200000000008
261,2,0.8,0.0625,-35.0,1,0.0,0.2703000000000202
262,2,0.8,0.0625,35.0,1,1.0,0.2745000000001028
263,2,0.8,1.0,-35.0,-1,1.0,0.269800000000032
264,2,0.8,0.0625,-35.0,-1,1.0,0.1998999999999569
265,2,0.8,1.0,-35.0,-1,1.0,0.17480000000000473
266,2,0.8,0.125,-35.0,1,0.0,0.15810000000010405
267,2,0.8,0.25,-35.0,-1,1.0,0.16060000000004493
268,2,0.8,0.0,-35.0,-1,1.0,6.5545000000000755
269,2,0.8,0.0625,35.0,-1,0.0,0.1933000000001357
270,2,0.8,0.25,-35.0,-1,1.0,0.16570000000001528
271,2,0.8,0.25,-35.0,-1,1.0,0.15240000000005693
272,2,0.8,0.125,-35.0,-1,1.0,0.19180000000005748
273,2,0.8,0.25,-35.0,-1,1.0,0.3005000000000564
274,2,0.8,0.0,-35.0,-1,1.0,3.514900000000125
275,2,0.8,1.0,-35.0,-1,1.0,0.2877000000000862
276,2,0.8,0.125,35.0,-1,0.0,0.1611000000000331
277,2,0.8,0.125,-35.0,-1,1.0,0.2054000000000542
278,2,0.8,0.0625,-35.0,-1,1.0,0.24360000000001492
279,2,0.8,0.0625,-35.0,-1,1.0,2.215400000000045
280,2,0.8,1.0,-35.0,-1,1.0,0.24030000000004748
281,2,0.8,0.125,-35.0,-1,1.0,0.19150100000013026
282,2,0.8,1.0,-35.0,-1,1.0,0.21670000000005984
283,2,0.8,0.125,35.0,1,1.0,0.27740000000005693
284,2,0.8,0.0625,-35.0,-1,1.0,0.3623000000001184
285,2,0.8,0.125,-35.0,-1,1.0,0.2942000000000462
286,2,0.8,0.25,35.0,1,1.0,0.1878999999998996
287,2,0.8,0.0625,-35.0,-1,1.0,0.45220000000006166
288,2,0.8,0.0,-35.0,1,0.0,0.7021000000000868
289,2,0.8,0.125,35.0,1,1.0,0.5441999999999325
290,2,0.8,0.0625,-35.0,-1,1.0,0.6025000000000773
291,2,0.8,0.0,35.0,-1,0.0,0.46280000000001564
292,2,0.8,1.0,-35.0,-1,1.0,0.20390000000008968
293,2,0.8,0.0625,-35.0,-1,1.0,0.5345000000000937
294,2,0.8,0.0625,-35.0,-1,1.0,0.37140000000010787
295,2,0.8,0.0625,-35.0,-1,1.0,0.23470000000008895
296,2,0.8,1.0,35.0,1,1.0,0.24810000000013588
297,2,0.8,0.125,-35.0,-1,1.0,0.40830000000005384
298,2,0.8,0.0,-35.0,-1,1.0,1.1785000000000991
299,2,0.8,0.0,-35.0,-1,1.0,15.021600000000035
300,2,0.8,1.0,35.0,1,1.0,0.22829999999999018
301,2,0.8,0.25,-35.0,-1,1.0,0.18840000000000146
302,2,0.8,0.0,-35.0,-1,1.0,0.5484999999998763
303,2,0.2,0.25,35.0,1,1.0,0.23850100000004204
304,2,0.2,1.0,35.0,1,1.0,0.14830000000006294
305,2,0.2,1.0,-35.0,-1,1.0,0.2821000000001277
306,2,0.2,0.25,35.0,1,1.0,0.2218000000000302
307,2,0.2,0.25,-35.0,1,0.0,0.24189999999975953
308,2,0.2,0.0,35.0,-1,0.0,0.9120000000000346
309,2,0.2,0.0,35.0,-1,0.0,0.1653999999998632
310,2,0.2,0.0625,35.0,1,1.0,0.3989000000001397
311,2,0.2,0.25,35.0,1,1.0,0.2320999999999458
312,2,0.2,1.0,35.0,1,1.0,0.1453999999998814
313,2,0.2,0.25,35.0,1,1.0,0.22869999999988977
314,2,0.2,0.125,35.0,1,1.0,0.18219999999996617
315,2,0.2,0.0625,35.0,1,1.0,0.15249999999991815
316,2,0.2,0.25,-35.0,1,0.0,0.1856999999999971
317,2,0.2,1.0,-35.0,-1,1.0,0.28559999999993124
318,2,0.2,0.125,35.0,1,1.0,0.15929999999980282
319,2,0.2,0.25,35.0,1,1.0,0.20269999999982247
320,2,0.2,0.25,-35.0,-1,1.0,0.21260000000006585
321,2,0.2,1.0,35.0,1,1.0,0.2156999999999698
322,2,0.2,1.0,35.0,1,1.0,0.1959999999999127
323,2,0.2,0.25,35.0,1,1.0,0.1391000000000986
324,2,0.2,0.125,35.0,1,1.0,0.17270000000007713
325,2,0.2,0.0,35.0,-1,0.0,0.3425999999999476
326,2,0.2,0.0625,35.0,1,1.0,0.17280000000005202
327,2,0.2,0.25,35.0,1,1.0,0.052500000000009095
328,2,0.2,0.125,35.0,1,1.0,0.16259999999988395
329,2,0.2,0.125,35.0,1,1.0,0.18609999999989668
330,2,0.2,0.25,35.0,1,1.0,0.16279999999983374
331,2,0.2,0.25,35.0,1,1.0,0.20959999999990941
332,2,0.2,0.125,35.0,1,1.0,0.1695999999999458
333,2,0.2,0.25,35.0,1,1.0,0.18650000000002365
334,2,0.2,1.0,35.0,1,1.0,0.13670000000001892
335,2,0.2,0.0,35.0,1,1.0,0.35659999999984393
336,2,0.2,0.0625,35.0,1,1.0,0.2598000000000411
337,2,0.2,0.125,35.0,1,1.0,0.16669999999999163
338,2,0.8,1.0,-35.0,-1,1.0,0.48319999999989705
339,2,0.8,0.125,35.0,1,1.0,0.13370000000008986
340,2,0.8,0.25,-35.0,-1,1.0,0.2237999999999829
341,2,0.8,0.125,-35.0,-1,1.0,0.25329999999985375
342,2,0.8,1.0,-35.0,-1,1.0,0.5138000000001739
343,2,0.8,0.25,-35.0,-1,1.0,0.24360000000001492
344,2,0.8,0.25,-35.0,-1,1.0,0.1938000000000102
345,2,0.8,0.0625,-35.0,1,0.0,0.18029999999976098
346,2,0.8,0.0625,-35.0,1,0.0,0.15689999999995052
347,2,0.8,0.0625,35.0,1,1.0,0.6772009999999682
348,2,0.8,1.0,-35.0,-1,1.0,0.19080000000008113
349,2,0.8,1.0,-35.0,-1,1.0,0.2739000000001397
350,2,0.8,0.0625,35.0,1,1.0,0.1937000000000353
351,2,0.8,0.125,-35.0,-1,1.0,0.30709999999999127
352,2,0.8,0.125,-35.0,-1,1.0,0.2237999999999829
353,2,0.8,0.125,35.0,1,1.0,0.2738999999999123
354,2,0.8,0.125,-35.0,-1,1.0,0.21709999999984575
355,2,0.8,1.0,-35.0,-1,1.0,0.36370099999999184
356,2,0.8,0.0,-35.0,1,0.0,0.1971000000000913
357,2,0.8,0.0625,-35.0,-1,1.0,0.19389999999998508
358,2,0.8,1.0,-35.0,-1,1.0,0.163899999999785
359,2,0.8,1.0,-35.0,-1,1.0,0.19089999999982865
360,2,0.8,0.25,-35.0,-1,1.0,0.4375999999997475
361,2,0.8,0.0625,-35.0,-1,1.0,0.1775000000000091
362,2,0.8,0.25,-35.0,-1,1.0,0.3608999999999014
363,2,0.8,1.0,-35.0,-1,1.0,0.19089999999982865
364,2,0.8,0.125,-35.0,-1,1.0,0.30100099999981467
365,2,0.8,0.25,-35.0,-1,1.0,0.1974999999999909
366,2,0.8,0.25,35.0,1,1.0,0.23440000000005057
367,2,0.8,1.0,35.0,1,1.0,0.33110000000010587
368,2,0.8,1.0,-35.0,-1,1.0,0.3111999999998716
369,2,0.8,0.125,-35.0,-1,1.0,0.25099999999997635
370,2,0.8,0.125,-35.0,-1,1.0,0.5744999999999436
371,2,0.8,0.0625,35.0,-1,0.0,0.6341999999999643
372,2,0.8,1.0,35.0,1,1.0,0.2545999999997548
373,2,0.8,0.125,-35.0,-1,1.0,0.2179999999998472
374,2,0.8,0.125,35.0,-1,0.0,0.3977999999999611
375,2,0.8,1.0,-35.0,-1,1.0,0.16810000000009495
376,2,0.8,0.25,35.0,1,1.0,0.18149999999968713
377,2,0.8,0.0625,35.0,-1,0.0,0.47450000000003456
378,2,0.8,1.0,-35.0,-1,1.0,0.2381999999997788
379,2,0.8,0.125,35.0,1,1.0,0.2944999999997435
380,2,0.8,0.25,-35.0,-1,1.0,0.2518000000000029
381,2,0.2,0.0625,35.0,-1,0.0,3.185000999999829
382,2,0.2,0.125,35.0,-1,0.0,0.1452999999999065
383,2,0.2,0.125,35.0,1,1.0,0.1815999999998894
384,2,0.2,0.125,35.0,1,1.0,0.29510000000004766
385,2,0.2,0.0,35.0,1,1.0,0.33829999999989013
386,2,0.2,0.0625,35.0,1,1.0,0.23869999999988067
387,2,0.2,0.0625,-35.0,-1,1.0,0.5416999999999916
388,2,0.2,0.125,35.0,1,1.0,0.46519999999986794
389,2,0.2,0.0625,35.0,1,1.0,0.2419999999999618
390,2,0.2,0.0625,35.0,1,1.0,0.16529999999988831
391,2,0.2,0.125,35.0,1,1.0,0.17200000000002547
392,2,0.2,1.0,-35.0,-1,1.0,0.4653000000000702
393,2,0.2,0.125,35.0,1,1.0,0.16529999999966094
394,2,0.2,0.0625,35.0,1,1.0,0.3853999999998905
395,2,0.2,0.0,35.0,1,1.0,0.2185999999996966
396,2,0.2,0.0625,35.0,1,1.0,0.23209999999971842
397,2,0.2,1.0,35.0,1,1.0,0.19529999999986103
398,2,0.2,1.0,-35.0,-1,1.0,0.4523999999998978
399,2,0.2,1.0,-35.0,-1,1.0,0.26539999999977226
400,2,0.2,0.0,-35.0,1,0.0,0.2058999999999287
401,2,0.8,0.125,35.0,1,1.0,0.20920000000000982
402,2,0.8,0.25,-35.0,-1,1.0,0.37259999999992033
403,2,0.8,0.0625,-35.0,1,0.0,0.1657999999997628
404,2,0.8,1.0,35.0,-1,0.0,0.055899999999837746
405,2,0.8,0.0,-35.0,-1,1.0,0.6391000000000986
406,2,0.8,1.0,35.0,1,1.0,0.18290000000001783
407,2,0.8,0.0625,-35.0,-1,1.0,0.28609999999980573
408,2,0.8,0.0625,35.0,1,1.0,0.17289999999979955
409,2,0.8,0.0,-35.0,1,0.0,0.15609999999992397
410,2,0.8,0.0625,-35.0,1,0.0,0.1859999999996944
411,2,0.8,0.125,35.0,1,1.0,0.25270000000000437
412,2,0.8,1.0,35.0,1,1.0,0.16949999999974352
413,2,0.8,0.125,-35.0,1,0.0,0.17640000000005784
414,2,0.8,0.0625,-35.0,1,0.0,0.13969999999994798
415,2,0.8,0.0,-35.0,1,0.0,0.13309999999978572
416,2,0.8,0.0625,35.0,1,1.0,0.19309999999995853
417,2,0.8,0.125,-35.0,1,0.0,0.1697999999998956
418,2,0.8,0.25,-35.0,1,0.0,0.15659999999979846
419,2,0.8,0.125,-35.0,1,0.0,0.1733999999999014
420,2,0.8,0.0,-35.0,-1,1.0,0.28670000000010987
421,2,0.8,0.0625,-35.0,1,0.0,0.9532000000001517
422,2,0.8,0.25,-35.0,-1,1.0,0.48339999999984684
423,2,0.8,0.0625,-35.0,1,0.0,0.19349999999985812
424,2,0.8,0.0,-35.0,-1,1.0,0.6269999999999527
425,2,0.8,0.0625,-35.0,-1,1.0,0.4372000000000753
426,2,0.8,0.25,-35.0,-1,1.0,0.17709999999988213
427,2,0.8,0.125,35.0,1,1.0,0.35710000000017317
428,2,0.8,0.125,-35.0,-1,1.0,0.2702999999999065
429,2,0.8,0.25,-35.0,-1,1.0,0.29729999999995016
430,2,0.8,0.25,35.0,1,1.0,0.20049999999991996
431,2,0.8,0.25,-35.0,-1,1.0,0.43049999999993815
432,2,0.8,0.0625,-35.0,-1,1.0,0.35380000000009204
433,2,0.8,1.0,-35.0,-1,1.0,0.157399999999825
434,2,0.8,0.25,-35.0,-1,1.0,0.35049999999978354
435,2,0.8,0.0625,-35.0,-1,1.0,0.2507999999997992
436,2,0.8,0.25,-35.0,-1,1.0,0.19040099999983795
437,2,0.8,0.125,-35.0,-1,1.0,0.13069999999993342
438,2,0.8,0.0625,-35.0,-1,1.0,0.21730000000002292
439,2,0.8,0.25,-35.0,-1,1.0,0.20090000000004693
440,2,0.8,0.25,-35.0,-1,1.0,0.1875999999999749
441,2,0.8,1.0,35.0,1,1.0,0.2477000000001226
442,2,0.8,0.25,35.0,1,1.0,0.25420099999996637
443,2,0.8,1.0,-35.0,1,0.0,0.13439999999991414
444,2,0.8,1.0,-35.0,-1,1.0,0.12789999999995416
445,2,0.8,0.0625,35.0,1,1.0,0.2943000000000211
446,2,0.8,0.125,35.0,1,1.0,0.18759999999974752
447,2,0.8,0.25,-35.0,-1,1.0,0.26110099999982594
448,2,0.8,0.0625,-35.0,-1,1.0,0.7210000000000036
449,2,0.8,0.125,-35.0,-1,1.0,0.30139999999983047
450,2,0.8,0.0,-35.0,-1,1.0,0.7278999999998632
451,2,0.8,0.0625,-35.0,-1,1.0,0.3112999999998465
452,2,0.8,0.25,35.0,-1,0.0,0.12449999999967076
453,2,0.2,0.25,35.0,1,1.0,0.17480000000000473
454,2,0.2,0.0625,35.0,1,1.0,1.1515000000001692
455,2,0.2,1.0,35.0,1,1.0,0.20479999999997744
456,2,0.2,1.0,35.0,1,1.0,0.22489999999993415
457,2,0.2,0.125,35.0,1,1.0,0.1513999999999669
458,2,0.2,0.0625,35.0,1,1.0,0.1716999999998734
459,2,0.2,0.0625,35.0,1,1.0,0.22499999999968168
460,2,0.2,0.0,35.0,-1,0.0,0.23550000000000182
461,2,0.2,0.125,-35.0,-1,1.0,0.4749999999996817
462,2,0.2,0.25,35.0,1,1.0,0.25489999999990687
463,2,0.2,0.125,35.0,1,1.0,0.17830000000003565
464,2,0.2,0.0625,35.0,1,1.0,0.14849999999978536
465,2,0.2,0.25,-35.0,-1,1.0,0.26860000000010587
466,2,0.2,0.125,35.0,1,1.0,0.17180000000007567
467,2,0.2,0.25,35.0,1,1.0,0.4685999999996966
468,2,0.2,1.0,35.0,1,1.0,0.19839999999999236
469,2,0.2,0.125,35.0,1,1.0,0.6153999999999087
470,2,0.2,0.0,35.0,1,1.0,0.22199999999975262
471,2,0.2,0.125,35.0,1,1.0,0.205600000000004
472,2,0.2,0.125,-35.0,1,0.0,0.26549999999974716
473,2,0.2,0.125,35.0,1,1.0,0.14880099999982122
474,2,0.2,0.0,35.0,1,1.0,0.15239999999994325
475,2,0.2,0.0625,35.0,1,1.0,0.1526010000000042
476,2,0.2,0.0625,-35.0,1,0.0,0.12889999999993051
477,2,0.2,0.0,35.0,-1,0.0,0.4057000000000244
478,2,0.2,0.0,-35.0,-1,1.0,2.8658000000000357
479,2,0.2,0.0625,35.0,1,1.0,0.15239999999994325
480,2,0.2,0.25,35.0,1,1.0,0.1692000000000462
481,2,0.2,0.125,-35.0,-1,1.0,0.27939999999989595
482,2,0.2,0.25,35.0,1,1.0,0.08909999999991669
483,2,0.2,0.25,-35.0,-1,1.0,0.4961000000000695
484,2,0.2,0.125,35.0,1,1.0,0.2158999999999196
485,2,0.8,0.0625,-35.0,-1,1.0,0.609599999999773
486,2,0.8,1.0,-35.0,-1,1.0,0.19270000000005894
487,2,0.8,0.0625,-35.0,1,0.0,0.12590000000000146
488,2,0.8,0.25,-35.0,-1,1.0,0.19970000000012078
489,2,0.8,1.0,-35.0,-1,1.0,0.143100000000004
490,2,0.8,0.0625,-35.0,-1,1.0,0.2866999999998825
491,2,0.8,1.0,35.0,1,1.0,0.219899999999825
492,2,0.8,0.0625,-35.0,-1,1.0,0.32950000000005275
493,2,0.8,0.25,-35.0,-1,1.0,0.24319999999988795
494,2,0.8,0.25,-35.0,-1,1.0,0.40660000000002583
495,2,0.8,0.25,-35.0,-1,1.0,0.43659999999999854
496,2,0.8,0.125,35.0,1,1.0,0.4031999999999698
497,2,0.8,0.25,-35.0,-1,1.0,0.3065999999998894
498,2,0.8,0.125,-35.0,-1,1.0,0.3367000000000644
499,2,0.8,0.25,-35.0,-1,1.0,0.16650000000004184
500,2,0.8,0.0625,35.0,-1,0.0,0.37669999999980064
501,2,0.8,0.125,-35.0,-1,1.0,0.17319999999972424
502,2,0.8,0.125,-35.0,-1,1.0,0.2501999999999498
503,2,0.8,1.0,35.0,1,1.0,0.1938000000000102
504,2,0.8,0.25,-35.0,-1,1.0,0.39039999999999964
505,2,0.8,1.0,-35.0,-1,1.0,0.21039999999993597
506,2,0.8,0.0625,-35.0,1,0.0,0.39380000000005566
507,2,0.8,0.125,-35.0,-1,1.0,0.08379999999988286
508,2,0.8,0.0625,-35.0,1,0.0,0.423799999999801
509,2,0.8,0.0,-35.0,-1,1.0,0.1369999999999436
510,2,0.8,0.125,-35.0,-1,1.0,0.3936999999998534
511,2,0.8,0.0,-35.0,-1,1.0,0.8804999999999836
512,2,0.8,0.25,-35.0,-1,1.0,0.2768999999998414
513,2,0.8,0.0625,-35.0,-1,1.0,0.18719999999984793
514,2,0.8,0.25,-35.0,-1,1.0,0.11090000000012878
515,2,0.8,0.0625,-35.0,-1,1.0,0.37400000000002365
516,2,0.8,0.0625,35.0,1,1.0,0.2908999999999651
517,2,0.8,0.0625,-35.0,1,0.0,0.17069999999989705
518,2,0.8,1.0,-35.0,-1,1.0,0.4574000000000069
519,2,0.8,0.25,-35.0,-1,1.0,0.44069999999987886
520,2,0.8,0.125,-35.0,-1,1.0,0.23109999999996944
521,2,0.8,0.125,-35.0,-1,1.0,0.16099999999983083
522,2,0.2,1.0,35.0,1,1.0,0.2510999999997239
523,2,0.2,0.0625,35.0,1,1.0,0.3043999999999869
524,2,0.2,1.0,-35.0,-1,1.0,0.2641999999998461
525,2,0.2,0.0625,35.0,-1,0.0,0.1978999999998905
526,2,0.2,0.125,-35.0,-1,1.0,0.2244999999998072
527,2,0.2,0.125,35.0,1,1.0,0.38809999999989486
528,2,0.2,0.0,35.0,1,1.0,0.17459999999982756
529,2,0.2,0.0625,35.0,1,1.0,0.2480000000000473
530,2,0.2,0.25,35.0,1,1.0,0.15129999999976462
531,2,0.2,0.0625,35.0,1,1.0,0.14799999999991087
532,2,0.2,0.125,35.0,1,1.0,0.14799999999991087
533,2,0.2,0.0,35.0,1,1.0,0.13799999999991996
534,2,0.2,1.0,35.0,1,1.0,0.2079999999998563
535,2,0.2,0.0,35.0,1,1.0,0.14819999999986067
536,2,0.2,0.0625,35.0,1,1.0,0.1450999999999567
537,2,0.2,0.25,35.0,1,1.0,0.15200000000004366
538,2,0.2,0.0625,35.0,1,1.0,0.13179999999988468
539,2,0.2,0.25,35.0,1,1.0,0.3249000000000706
540,2,0.2,0.0,35.0,1,1.0,0.20159999999987122
541,2,0.2,0.0,35.0,1,1.0,0.4683999999997468
542,2,0.2,0.25,35.0,1,1.0,0.1853000000000975
543,2,0.2,0.0,35.0,1,1.0,0.1652000000001408
544,2,0.2,0.0625,35.0,1,1.0,0.20209999999997308
545,2,0.2,0.0,35.0,1,1.0,0.15849999999977626
546,2,0.2,1.0,35.0,1,1.0,0.15189999999984138
547,2,0.2,0.125,35.0,1,1.0,0.16519999999991342
548,2,0.2,1.0,35.0,1,1.0,0.14869999999996253
549,2,0.2,0.0625,35.0,1,1.0,0.0751999999997679
550,2,0.2,0.0625,-35.0,1,0.0,0.15219999999999345
551,2,0.2,0.0625,35.0,1,1.0,0.16550000000006548
552,2,0.2,0.0625,35.0,1,1.0,0.14869999999996253
553,2,0.2,0.125,-35.0,1,0.0,0.28569999999990614
554,2,0.2,0.0625,35.0,1,1.0,0.2755000000001928
555,2,0.2,0.0625,-35.0,1,0.0,0.1355999999998403
556,2,0.8,0.0,-35.0,1,0.0,0.17249999999989996
557,2,0.8,0.25,35.0,1,1.0,0.16599999999993997
558,2,0.8,1.0,-35.0,-1,1.0,0.23559999999997672
559,2,0.8,0.0,-35.0,-1,1.0,0.24579999999991742
560,2,0.8,1.0,-35.0,-1,1.0,0.21600000000012187
561,2,0.8,0.125,35.0,1,1.0,0.22260000000005675
562,2,0.8,0.25,-35.0,-1,1.0,0.27919999999994616
563,2,0.8,1.0,-35.0,1,0.0,0.1593000000000302
564,2,0.8,0.25,-35.0,-1,1.0,0.5692999999998847
565,2,0.8,1.0,-35.0,-1,1.0,0.2761000000000422
566,2,0.8,1.0,-35.0,-1,1.0,0.276299999999992
567,2,0.8,0.0625,35.0,1,1.0,0.2562000000000353
568,2,0.8,0.125,-35.0,-1,1.0,0.23939999999993233
569,2,0.8,1.0,35.0,1,1.0,0.2661999999997988
570,2,0.8,1.0,-35.0,-1,1.0,0.22319999999990614
571,2,0.8,0.125,-35.0,-1,1.0,0.5395999999998367
572,2,0.8,0.25,-35.0,-1,1.0,0.28959999999983665
573,2,0.8,0.0625,-35.0,-1,1.0,0.2163999999997941
574,2,0.8,0.125,-35.0,-1,1.0,0.22969999999986612
575,2,0.8,0.25,-35.0,-1,1.0,0.08639999999991232
576,2,0.8,1.0,35.0,1,1.0,0.22669999999993706
577,2,0.8,0.125,-35.0,-1,1.0,0.4901999999997315
578,2,0.8,0.25,-35.0,-1,1.0,0.39350000000013097
579,2,0.8,0.0625,-35.0,-1,1.0,0.46319999999968786
580,2,0.8,0.125,-35.0,-1,1.0,0.27330000000006294
581,2,0.8,0.25,-35.0,-1,1.0,0.1934000000001106
582,2,0.8,0.0,-35.0,-1,1.0,0.3736999999998716
583,2,0.8,0.0625,35.0,-1,0.0,0.2903000000001157
584,2,0.8,0.125,35.0,-1,0.0,0.5168999999998505
585,2,0.8,1.0,-35.0,-1,1.0,0.2302999999997155
586,2,0.8,1.0,35.0,1,1.0,0.22730000000001382
587,2,0.8,0.125,-35.0,-1,1.0,0.28039999999964493
588,2,0.8,0.125,-35.0,-1,1.0,0.5105000000000928
589,2,0.8,0.125,-35.0,1,0.0,0.5273009999998521
590,2,0.8,0.0,-35.0,1,0.0,0.513899999999694
591,2,0.8,0.0625,-35.0,-1,1.0,0.22719999999981155
592,2,0.8,0.125,-35.0,-1,1.0,0.27729999999996835
593,2,0.8,0.25,-35.0,-1,1.0,0.20719999999982974
594,2,0.8,1.0,-35.0,-1,1.0,0.20080000000007203
595,2,0.8,0.0,-35.0,-1,1.0,0.39409999999998035
596,2,0.8,0.0,-35.0,1,0.0,0.524199999999837
597,2,0.8,0.0,-35.0,1,0.0,0.16739999999981592
598,2,0.8,0.25,35.0,1,1.0,0.510899999999765
599,2,0.8,0.25,-35.0,-1,1.0,0.40439999999989595
600,2,0.8,1.0,-35.0,-1,1.0,0.1675999999999931
601,2,0.8,0.0625,-35.0,-1,1.0,0.19440000000031432
602,2,0.8,1.0,-35.0,-1,1.0,0.21090000000003783
603,2,0.8,0.125,-35.0,-1,1.0,0.1643000000003667
604,2,0.8,0.0,-35.0,1,0.0,0.9310999999997875
605,2,0.8,1.0,-35.0,-1,1.0,0.20450000000028012
606,2,0.8,1.0,-35.0,-1,1.0,0.21430000000009386
607,2,0.8,0.25,-35.0,-1,1.0,0.17790000000013606
608,2,0.8,1.0,-35.0,-1,1.0,0.24139999999988504
609,2,0.8,0.25,-35.0,-1,1.0,0.43800000000010186
610,2,0.8,1.0,35.0,1,1.0,0.20470000000022992
611,2,0.8,0.25,-35.0,-1,1.0,0.5884000000000924
612,2,0.8,0.25,-35.0,-1,1.0,0.20839999999998327
613,2,0.8,0.25,35.0,1,1.0,0.22479999999995925
614,2,0.8,1.0,-35.0,-1,1.0,0.2051000000001295
615,2,0.8,0.125,35.0,1,1.0,0.47180000000025757
616,2,0.2,0.0,-35.0,-1,1.0,5.818400000000565
617,2,0.2,0.0,35.0,1,1.0,0.30549999999993815
618,2,0.2,1.0,35.0,1,1.0,0.181999999999789
619,2,0.2,1.0,-35.0,-1,1.0,0.19519999999965876
620,2,0.2,1.0,35.0,1,1.0,0.19529999999986103
621,2,0.2,0.0,-35.0,1,0.0,0.16200000000026193
622,2,0.2,0.25,-35.0,-1,1.0,0.47190000000045984
623,2,0.2,0.25,35.0,1,1.0,0.22550000000046566
624,2,0.2,0.0,35.0,-1,0.0,4.828700000000026
625,2,0.2,0.125,35.0,1,1.0,0.499000000000251
626,2,0.2,0.0625,35.0,1,1.0,0.20559999999977663
627,2,0.2,0.25,35.0,1,1.0,0.20250000000032742
628,2,0.2,0.125,-35.0,1,0.0,0.4092000000000553
629,2,0.2,0.25,35.0,1,1.0,0.2357999999999265
630,2,0.2,0.0,35.0,1,1.0,0.17920000000049185
631,2,0.2,1.0,35.0,1,1.0,0.1693000000000211
632,2,0.2,1.0,35.0,1,1.0,0.13900000000057844
633,2,0.2,1.0,35.0,1,1.0,0.1392000000000735
634,2,0.2,0.125,35.0,1,1.0,0.15950000000020736
635,2,0.2,0.25,35.0,1,1.0,0.2494000000001506
636,2,0.2,0.125,35.0,1,1.0,0.1526000000003478
637,2,0.2,0.125,35.0,1,1.0,0.12249999999994543
638,2,0.2,0.125,35.0,1,1.0,0.14270000000033178
639,2,0.2,0.25,35.0,1,1.0,0.14940000000024156
640,2,0.2,0.125,35.0,1,1.0,0.1595999999999549
641,2,0.2,0.0,35.0,1,1.0,0.22290000000020882
642,2,0.2,0.25,35.0,1,1.0,0.2031000000001768
643,2,0.2,0.25,35.0,1,1.0,0.1765000000004875
644,2,0.2,0.0,-35.0,1,0.0,0.24290000000019063
645,2,0.2,0.0625,-35.0,1,0.0,0.1732999999999265
646,2,0.2,0.125,35.0,1,1.0,0.13650000000006912
647,2,0.2,0.0625,35.0,1,1.0,0.13319999999976062
648,2,0.2,0.0625,-35.0,-1,1.0,5.132900000000063
649,2,0.2,0.0,35.0,1,1.0,0.4036999999998443
650,2,0.2,1.0,35.0,1,1.0,0.15679999999974825
651,2,0.2,0.0,-35.0,1,0.0,0.1936000000000604
652,2,0.2,0.0625,-35.0,-1,1.0,0.7867000000001099
653,2,0.2,0.125,35.0,1,1.0,0.16019999999980428
654,2,0.2,1.0,-35.0,-1,1.0,0.2501999999999498
655,2,0.2,0.25,-35.0,-1,1.0,0.5069000000003143
656,2,0.2,0.25,-35.0,-1,1.0,0.2871000000004642
657,2,0.2,0.25,35.0,1,1.0,0.1536999999998443
658,2,0.2,0.0,35.0,1,1.0,0.1770000000001346
659,2,0.2,0.25,-35.0,1,0.0,0.15080000000034488
660,2,0.2,0.25,-35.0,1,0.0,0.11700000000018917
661,2,0.2,0.25,35.0,1,1.0,0.16049999999995634
662,2,0.2,1.0,-35.0,-1,1.0,0.20390000000043074
663,2,0.2,0.125,35.0,1,1.0,0.17399999999997817
664,2,0.2,0.125,-35.0,1,0.0,0.1708000000003267
665,2,0.2,0.0625,-35.0,1,0.0,0.30760000000009313
666,2,0.8,0.125,35.0,1,1.0,0.274199999999837
667,2,0.8,1.0,35.0,1,1.0,0.16760000000022046
668,2,0.8,1.0,-35.0,-1,1.0,0.24090000000023792
669,2,0.8,0.0625,-35.0,1,0.0,0.38770000000022264
670,2,0.8,0.0,-35.0,-1,1.0,0.5043000000005122
671,2,0.8,0.25,35.0,1,1.0,0.2507999999997992
672,2,0.8,0.125,-35.0,-1,1.0,0.1876999999999498
673,2,0.8,0.125,-35.0,-1,1.0,0.40120000000024447
674,2,0.8,0.0625,-35.0,-1,1.0,0.3009999999999309
675,2,0.8,0.0625,-35.0,-1,1.0,0.481300000000374
676,2,0.8,0.0625,-35.0,-1,1.0,3.6043000000004213
677,2,0.8,0.125,35.0,1,1.0,0.3510000000001128
678,2,0.8,0.0625,-35.0,-1,1.0,0.28800000000046566
679,2,0.8,0.0625,-35.0,-1,1.0,0.49139999999988504
680,2,0.8,0.0,35.0,-1,0.0,0.1781000000005406
681,2,0.8,0.25,35.0,1,1.0,0.2648000000003776
682,2,0.8,0.0625,-35.0,-1,1.0,0.26150000000052387
683,2,0.8,0.0625,-35.0,-1,1.0,0.11470000000053915
684,2,0.8,0.0,-35.0,1,0.0,0.15510000000040236
685,2,0.8,1.0,-35.0,-1,1.0,0.21200000000044383
686,2,0.8,0.125,-35.0,-1,1.0,0.2519000000002052
687,2,0.8,0.0625,-35.0,-1,1.0,0.2051000000001295
688,2,0.8,0.0,-35.0,-1,1.0,0.20520000000033178
689,2,0.8,0.125,-35.0,-1,1.0,0.20200000000022555
690,2,0.8,1.0,-35.0,-1,1.0,0.24839999999994689
691,2,0.8,0.125,-35.0,-1,1.0,0.29210000000057335
692,2,0.8,1.0,-35.0,-1,1.0,0.16869999999971697
693,2,0.8,0.125,-35.0,-1,1.0,0.25220000000035725
694,2,0.8,0.25,-35.0,-1,1.0,0.355199999999968
695,2,0.8,1.0,-35.0,-1,1.0,0.3089999999997417
696,2,0.8,0.25,-35.0,1,0.0,0.1653000000001157
697,2,0.8,1.0,-35.0,-1,1.0,0.32540000000017244
698,2,0.8,0.125,-35.0,-1,1.0,0.11240000000043437
699,2,0.8,0.0,-35.0,-1,1.0,0.22600000000011278
700,2,0.2,0.0625,-35.0,-1,1.0,0.09600000000000364
701,2,0.2,1.0,35.0,1,1.0,0.24890099999993254
702,2,0.2,0.0625,35.0,1,1.0,0.21900000000050568
703,2,0.2,0.25,35.0,1,1.0,0.16229999999995925
704,2,0.2,0.125,35.0,1,1.0,0.12910000000010768
705,2,0.2,0.25,35.0,1,1.0,0.1825000000003456
706,2,0.2,1.0,35.0,1,1.0,0.2426000000004933
707,2,0.2,0.0,35.0,1,1.0,0.15610000000015134
708,2,0.2,0.25,35.0,1,1.0,0.13930100000015955
709,2,0.2,0.25,35.0,1,1.0,0.15270000000009532
710,2,0.2,0.0625,-35.0,1,0.0,0.16939999999976862
711,2,0.2,0.0625,35.0,1,1.0,0.21270000000004075
712,2,0.2,0.0625,35.0,1,1.0,0.17930000000023938
713,2,0.2,0.125,-35.0,1,0.0,0.13610000000062428
714,2,0.2,0.125,35.0,1,1.0,0.24980000000050495
715,2,0.2,0.25,35.0,1,1.0,0.1665000000002692
716,2,0.2,0.125,35.0,1,1.0,0.3528999999998632
717,2,0.2,0.0625,35.0,1,1.0,0.18630000000030122
718,2,0.2,0.0625,35.0,1,1.0,0.11310000000048603
719,2,0.2,0.125,-35.0,-1,1.0,0.21610099999998056
720,2,0.2,0.25,35.0,1,1.0,0.23320000000012442
721,2,0.2,0.0625,-35.0,-1,1.0,0.5430999999998676
722,2,0.2,1.0,35.0,1,1.0,0.17640000000028522
723,2,0.2,0.0,-35.0,-1,1.0,0.3831000000000131
724,2,0.2,0.25,35.0,1,1.0,0.16330000000016298
725,2,0.2,0.25,35.0,1,1.0,0.16340000000036525
726,2,0.2,0.25,35.0,1,1.0,0.16699999999991633
727,2,0.2,0.125,35.0,1,1.0,0.1601000000005115
728,2,0.2,0.125,35.0,1,1.0,0.22010000000045693
729,2,0.2,0.0625,-35.0,1,0.0,0.3301000000001295
730,2,0.2,0.125,35.0,1,1.0,0.21020099999986996
731,2,0.2,0.125,35.0,1,1.0,0.223500999999942
732,2,0.2,1.0,-35.0,-1,1.0,0.3637010000002192
733,2,0.2,0.0625,35.0,-1,0.0,0.19390100000009625
734,2,0.2,0.0625,35.0,-1,0.0,0.5940009999999347
735,2,0.2,0.0625,35.0,1,1.0,0.35700100000030943
736,2,0.2,0.0625,35.0,1,1.0,0.3372010000002774
737,2,0.2,1.0,35.0,1,1.0,0.2106010000002243
738,2,0.2,0.0625,35.0,1,1.0,0.22710099999994782
739,2,0.2,0.0,35.0,1,1.0,0.15060099999982413
740,2,0.2,0.125,35.0,1,1.0,0.22410100000024613
741,2,0.2,1.0,35.0,1,1.0,0.19750100000010207
742,2,0.2,0.0625,35.0,1,1.0,0.22120100000029197
743,2,0.2,0.25,-35.0,1,0.0,0.2143010000004324
744,2,0.2,0.25,35.0,1,1.0,0.15750200000002224
745,2,0.2,0.25,35.0,1,1.0,0.22080099999993763
746,2,0.2,1.0,35.0,1,1.0,0.1645010000002003
747,2,0.2,1.0,35.0,1,1.0,0.24750100000028397
748,2,0.2,1.0,35.0,1,1.0,0.19790100000000166
749,2,0.2,0.25,35.0,1,1.0,0.21780100000023594
750,2,0.2,0.125,35.0,1,1.0,0.13130099999989397
751,2,0.2,0.0,35.0,1,1.0,0.1777009999996153
752,2,0.2,0.25,35.0,1,1.0,0.19440099999974336
753,2,0.2,0.0625,35.0,1,1.0,0.17780100000027232
754,2,0.2,1.0,35.0,1,1.0,0.2012009999998554
755,2,0.2,0.0625,35.0,1,1.0,0.0880010000000766
756,2,0.2,0.0,35.0,1,1.0,0.16470099999969534
757,2,0.2,0.0625,35.0,1,1.0,0.20460100000036618
758,2,0.2,0.0625,-35.0,1,0.0,0.7417010000003756
759,2,0.2,0.25,35.0,1,1.0,0.16500100000030216
760,2,0.2,0.0,35.0,1,1.0,0.1950010000000475
761,2,0.2,0.125,35.0,1,1.0,0.1851010000000315
762,2,0.2,0.25,35.0,1,1.0,0.21180100000037783
763,2,0.2,0.0,35.0,1,1.0,0.17480200000045443
764,2,0.8,0.25,35.0,-1,0.0,-0.011599000000387605
765,2,0.8,0.0625,-35.0,1,0.0,0.20870100000047387
766,2,0.8,0.0,-35.0,1,0.0,3.5255010000000766
767,2,0.8,0.0625,-35.0,-1,1.0,0.3055010000002767
768,2,0.8,0.0625,-35.0,-1,1.0,0.4622010000002774
769,2,0.8,1.0,-35.0,-1,1.0,0.25190100000008897
770,2,0.8,0.0,-35.0,-1,1.0,0.5389010000003509
771,2,0.8,0.125,-35.0,1,0.0,0.16890100000046004
772,2,0.8,1.0,-35.0,-1,1.0,0.5924010000003364
773,2,0.8,0.25,-35.0,-1,1.0,0.3959010000003218
774,2,0.8,0.25,-35.0,1,0.0,0.16240100000050006
775,2,0.8,1.0,-35.0,-1,1.0,0.23240100000020902
776,2,0.8,0.125,-35.0,1,0.0,0.18910100000039165
777,2,0.8,0.25,-35.0,-1,1.0,0.2391010000001188
778,2,0.8,1.0,-35.0,-1,1.0,0.17270100000041566
779,2,0.8,0.125,-35.0,-1,1.0,0.40250100000048405
780,2,0.8,0.125,35.0,1,1.0,0.35600100000056045
781,2,0.8,0.0625,-35.0,1,0.0,0.16920099999970262
782,2,0.8,0.25,35.0,1,1.0,0.15630099999998492
783,2,0.8,0.125,-35.0,1,0.0,0.14270100000021557
784,2,0.8,0.125,35.0,1,1.0,0.18950100000029124
785,2,0.8,0.125,-35.0,-1,1.0,1.1796010000002752
786,2,0.8,0.25,-35.0,-1,1.0,0.3097010000001319
787,2,0.8,0.25,-35.0,-1,1.0,0.5627010000002883
788,2,0.8,1.0,35.0,1,1.0,0.15290100000038365
789,2,0.8,1.0,35.0,1,1.0,0.2033010000000104
790,2,0.8,0.25,-35.0,-1,1.0,0.3766009999999369
791,2,0.8,0.125,-35.0,-1,1.0,0.2599009999998998
792,2,0.8,0.125,-35.0,1,0.0,0.14670100000012098
793,2,0.8,0.125,-35.0,-1,1.0,0.39960100000007515
794,2,0.8,1.0,-35.0,-1,1.0,0.27660100000002785
795,2,0.8,0.125,-35.0,-1,1.0,0.22310100000049715
796,2,0.8,0.25,-35.0,1,0.0,0.1499010000002272
797,2,0.8,0.125,-35.0,-1,1.0,0.579801000000316
798,2,0.8,1.0,35.0,1,1.0,0.1700010000004113
799,2,0.8,0.0,-35.0,-1,1.0,0.25670099999979357
800,2,0.8,1.0,-35.0,-1,1.0,0.3335010000000693
801,2,0.8,0.125,-35.0,-1,1.0,0.2870010000001457
802,2,0.8,0.125,-35.0,-1,1.0,0.2604009999995469
803,2,0.8,0.25,35.0,1,1.0,0.18020100000012462
804,2,0.8,0.0625,-35.0,-1,1.0,0.17070100000046295
805,2,0.8,0.25,35.0,-1,0.0,0.1571009999997841
806,2,0.8,1.0,-35.0,-1,1.0,0.3472020000003795
807,2,0.8,0.125,35.0,-1,0.0,0.1707010000000082
808,2,0.8,0.125,-35.0,-1,1.0,0.3737010000004375
809,2,0.8,1.0,-35.0,-1,1.0,0.1772009999999682
810,2,0.8,0.0625,-35.0,-1,1.0,0.2640010000004622
811,2,0.8,1.0,-35.0,-1,1.0,0.19410100000004604
812,2,0.8,0.0625,-35.0,1,0.0,0.15750100000013845
813,2,0.8,0.125,-35.0,-1,1.0,0.17390100000011444
814,2,0.8,0.0625,-35.0,1,0.0,0.2575010000000475
815,2,0.8,1.0,-35.0,-1,1.0,0.2009010000001581
816,2,0.8,0.25,-35.0,-1,1.0,0.21100200000000768
817,2,0.8,1.0,-35.0,-1,1.0,0.30440100000032544
818,2,0.8,0.0625,-35.0,-1,1.0,0.2645009999996546
819,2,0.8,0.0,-35.0,1,0.0,0.2511010000002898
820,2,0.8,1.0,-35.0,-1,1.0,0.6242010000000846
821,2,0.8,1.0,35.0,1,1.0,0.14120099999990998
822,2,0.8,0.125,-35.0,-1,1.0,0.20120100000031016
823,2,0.8,1.0,-35.0,-1,1.0,0.40470100000038656
824,2,0.8,0.125,-35.0,-1,1.0,0.40150100000028033
825,2,0.8,0.125,35.0,1,1.0,0.32140099999969607
826,2,0.8,1.0,-35.0,1,0.0,0.15490100000033635
827,2,0.8,1.0,35.0,1,1.0,0.16130100000009406
828,2,0.8,1.0,35.0,1,1.0,0.13830100000041057
829,2,0.8,1.0,-35.0,-1,1.0,0.19170200000053228
830,2,0.8,0.125,-35.0,-1,1.0,0.6219009999999798
831,2,0.8,0.0625,-35.0,1,0.0,0.11800099999982194
832,2,0.8,0.25,-35.0,1,0.0,0.18140100000027815
833,2,0.8,1.0,-35.0,-1,1.0,0.42840100000057646
834,2,0.8,0.0625,-35.0,-1,1.0,0.5716010000005554
835,2,0.8,1.0,-35.0,1,0.0,0.14860099999987142
836,2,0.2,0.125,35.0,1,1.0,0.2988010000003669
837,2,0.2,0.0,35.0,1,1.0,0.2354009999999107
838,2,0.2,0.0625,35.0,1,1.0,0.17200099999990925
839,2,0.2,0.25,35.0,1,1.0,0.18900100000018938
840,2,0.2,0.0,35.0,1,1.0,0.16880099999980303
841,2,0.2,1.0,35.0,1,1.0,0.18560100000013335
842,2,0.2,0.125,-35.0,-1,1.0,0.15890100000024177
843,2,0.2,0.0625,35.0,1,1.0,0.36900100000002567
844,2,0.2,0.125,35.0,1,1.0,0.1656009999996968
845,2,0.2,0.0625,35.0,1,1.0,0.11580100000037419
846,2,0.2,1.0,35.0,1,1.0,0.16900100000020757
847,2,0.2,0.125,35.0,1,1.0,0.16220100000009552
848,2,0.2,0.25,35.0,1,1.0,0.18900100000018938
849,2,0.2,0.125,-35.0,1,0.0,0.19210100000009334
850,2,0.2,0.0625,35.0,1,1.0,0.1558010000003378
851,2,0.2,0.25,35.0,1,1.0,0.15590100000008533
852,2,0.2,1.0,35.0,1,1.0,0.029401000000689237
853,2,0.2,0.0625,-35.0,-1,1.0,0.12280099999998129
854,2,0.2,1.0,35.0,1,1.0,0.135801000000356
855,2,0.2,0.25,35.0,1,1.0,0.1325010000000475
856,2,0.2,0.125,35.0,1,1.0,0.14950100000032762
857,2,0.2,0.25,-35.0,1,0.0,0.14620100000001912
858,2,0.2,1.0,35.0,1,1.0,0.12620100000049206
859,2,0.2,1.0,35.0,1,1.0,0.16310100000009697
860,2,0.2,0.0625,-35.0,1,0.0,0.1463010000002214
861,2,0.2,0.25,35.0,1,1.0,0.13990100000000893
862,2,0.2,0.0625,35.0,1,1.0,0.15980100000024322
863,2,0.2,0.0625,35.0,1,1.0,0.166501000000153
864,2,0.2,0.0625,35.0,1,1.0,0.2030019999997421
865,2,0.2,0.125,-35.0,1,0.0,0.1200010000002294
866,2,0.2,1.0,35.0,1,1.0,0.150101000000177
867,2,0.2,0.125,35.0,1,1.0,0.20000100000015664
868,2,0.2,0.125,35.0,1,1.0,0.15680100000054153
869,2,0.2,0.0625,35.0,1,1.0,0.16030100000034508
870,2,0.8,0.125,-35.0,1,0.0,0.3468010000005961
871,2,0.8,0.0,-35.0,1,0.0,-0.019799000000148226
872,2,0.8,0.0625,35.0,1,1.0,0.5269010000001799
873,2,0.8,0.0,-35.0,1,0.0,0.16030100000034508
874,2,0.8,0.25,-35.0,-1,1.0,0.32030100000019956
875,2,0.8,0.125,-35.0,1,0.0,0.3804009999998925
876,2,0.8,0.125,-35.0,1,0.0,0.20380100000011225
877,2,0.8,0.25,-35.0,-1,1.0,0.2671010000003662
878,2,0.8,0.0625,35.0,1,1.0,0.17390100000011444
879,2,0.8,0.25,-35.0,1,0.0,0.26060099999995145
880,2,0.8,0.0,-35.0,1,0.0,0.1707010000000082
881,2,0.8,0.0625,-35.0,-1,1.0,0.28070100000013554
882,2,0.8,0.125,-35.0,-1,1.0,0.6042010000001028
883,2,0.8,0.25,-35.0,-1,1.0,0.5608010000000831
884,2,0.8,0.0625,-35.0,-1,1.0,0.2909020000001874
885,2,0.8,0.125,-35.0,-1,1.0,5.4942009999999755
886,2,0.8,1.0,35.0,1,1.0,0.19430099999999584
887,2,0.8,0.125,-35.0,1,0.0,0.1843010000002323
888,2,0.8,1.0,-35.0,-1,1.0,0.21780100000023594
889,2,0.8,0.125,35.0,1,1.0,0.2978010000001632
890,2,0.8,0.125,-35.0,1,0.0,0.20120100000031016
891,2,0.8,0.0625,-35.0,-1,1.0,0.3012010000002192
892,2,0.8,0.125,35.0,1,1.0,0.16130100000009406
893,2,0.8,0.25,35.0,1,1.0,0.16460100000040256
894,2,0.8,0.125,-35.0,1,0.0,0.35140099999989616
895,2,0.8,0.0625,-35.0,-1,1.0,0.2215009999999893
896,2,0.8,1.0,35.0,1,1.0,0.2148019999999633
897,2,0.8,0.125,-35.0,1,0.0,0.23150100000020757
898,2,0.8,0.0,-35.0,1,0.0,1.3882009999997535
899,2,0.8,0.125,-35.0,-1,1.0,0.24160100000062812
900,2,0.8,0.0625,-35.0,-1,1.0,0.44500100000050224
901,2,0.8,1.0,-35.0,-1,1.0,0.20510100000046805
902,2,0.8,0.125,-35.0,-1,1.0,0.011700999999902706
903,2,0.8,0.125,-35.0,-1,1.0,0.48180100000035964
904,2,0.8,0.125,-35.0,-1,1.0,0.37520100000028833
905,2,0.8,0.125,-35.0,1,0.0,0.1853009999999813
906,2,0.8,1.0,-35.0,1,0.0,0.04000099999984741
907,2,0.8,1.0,-35.0,-1,1.0,0.4620010000003276
908,2,0.8,0.25,-35.0,-1,1.0,0.6187009999998736
909,2,0.2,0.25,-35.0,-1,1.0,0.5054009999998925
910,2,0.2,0.0625,35.0,1,1.0,0.2088010000002214
911,2,0.2,0.0,35.0,1,1.0,0.12670100000013917
912,2,0.2,0.0,-35.0,1,0.0,0.30370099999981903
913,2,0.2,0.0625,-35.0,1,0.0,6.045800999999756
914,2,0.2,1.0,35.0,1,1.0,0.1992009999999027
915,2,0.2,0.125,-35.0,-1,1.0,10.479301000000305
916,2,0.2,1.0,35.0,1,1.0,0.16270100000019738
917,2,0.2,0.0625,-35.0,-1,1.0,0.9261010000000169
918,2,0.2,0.25,35.0,1,1.0,0.28630100000009406
919,2,0.2,0.25,35.0,1,1.0,6.196301000000403
920,2,0.2,0.0,35.0,1,1.0,5.216501000000335
921,2,0.2,0.0,35.0,1,1.0,11.050100999999813
922,2,0.2,0.0,35.0,-1,0.0,13.71360100000038
923,2,0.2,1.0,35.0,1,1.0,0.16710100000045713
924,2,0.2,1.0,35.0,1,1.0,0.2908010000005561
925,2,0.2,1.0,35.0,1,1.0,7.400801000000229
926,2,0.2,0.0,35.0,1,1.0,0.5191010000003189
927,2,0.2,0.0,-35.0,-1,1.0,14.797701000000416
928,2,0.2,0.125,35.0,1,1.0,6.877901000000293
929,2,0.2,0.125,35.0,1,1.0,8.01470100000006
930,2,0.2,1.0,35.0,1,1.0,0.8348020000003089
931,2,0.2,1.0,35.0,1,1.0,9.035000999999738
1,3,0.5,0.0625,-35.0,-1,1.0,0.8226999999999998
2,3,0.5,0.25,-35.0,-1,1.0,0.2741000000000007
3,3,0.5,0.25,35.0,1,1.0,0.18970099999999945
4,3,0.5,0.125,-35.0,1,0.0,0.13800000000000168
5,3,0.5,0.125,35.0,1,1.0,0.1424999999999983
6,3,0.5,1.0,35.0,1,1.0,0.17749999999999844
7,3,0.5,0.0,35.0,1,1.0,0.16329999999999956
8,3,0.5,0.0,35.0,1,1.0,2.0294000000000025
9,3,0.5,0.125,-35.0,1,0.0,0.1863999999999919
10,3,0.5,0.125,-35.0,1,0.0,0.13649999999999807
11,3,0.5,0.25,35.0,1,1.0,0.21110000000000184
12,3,0.5,1.0,-35.0,-1,1.0,0.24490000000000123
13,3,0.5,0.25,35.0,1,1.0,0.11479999999999535
14,3,0.5,0.125,-35.0,-1,1.0,0.21659999999999968
15,3,0.5,0.125,35.0,1,1.0,0.27409999999999
16,3,0.5,0.0625,35.0,-1,0.0,0.32169999999999277
17,3,0.5,0.125,35.0,1,1.0,0.20349999999999113
18,3,0.5,1.0,-35.0,-1,1.0,0.4531999999999954
19,3,0.5,1.0,-35.0,-1,1.0,0.22809999999999775
20,3,0.5,0.0625,35.0,-1,0.0,0.19879999999999143
21,3,0.5,1.0,35.0,1,1.0,0.19830000000000325
22,3,0.5,0.0625,-35.0,1,0.0,0.21839999999998838
23,3,0.5,0.25,-35.0,-1,1.0,0.49049999999999727
24,3,0.5,0.0,35.0,-1,0.0,0.42560000000000286
25,3,0.5,0.125,-35.0,1,0.0,0.09079999999998734
26,3,0.5,0.25,35.0,1,1.0,0.17559999999997444
27,3,0.5,1.0,-35.0,-1,1.0,0.18659999999998433
28,3,0.5,1.0,35.0,1,1.0,0.1722999999999928
29,3,0.5,1.0,-35.0,1,0.0,0.055799999999976535
30,3,0.5,0.25,35.0,1,1.0,0.2401999999999873
31,3,0.5,0.25,35.0,1,1.0,0.20359999999999445
32,3,0.5,0.25,-35.0,-1,1.0,0.354699999999994
33,3,0.5,0.125,-35.0,-1,1.0,0.3568000000000211
34,3,0.5,0.0,-35.0,-1,1.0,0.7523000000000195
35,3,0.5,1.0,35.0,1,1.0,0.226600000000019
36,3,0.5,0.0625,-35.0,-1,1.0,0.9930999999999983
37,3,0.5,0.0625,-35.0,-1,1.0,0.4101999999999748
38,3,0.5,0.0625,35.0,1,1.0,0.23490000000001032
39,3,0.5,1.0,35.0,1,1.0,0.15919999999999845
40,3,0.5,0.125,-35.0,-1,1.0,0.4061010000000067
41,3,0.5,1.0,35.0,1,1.0,0.2139009999999928
42,3,0.5,0.0625,35.0,-1,0.0,0.22630100000000652
43,3,0.5,0.125,35.0,1,1.0,0.23760100000001216
44,3,0.5,1.0,-35.0,-1,1.0,0.35390100000000757
45,3,0.5,0.25,35.0,1,1.0,0.21590100000003076
46,3,0.5,1.0,-35.0,-1,1.0,0.2886009999999999
47,3,0.5,0.0625,35.0,-1,0.0,0.21200100000001498
48,3,0.5,0.25,35.0,1,1.0,0.1449010000000044
49,3,0.5,0.0,35.0,1,1.0,2.1034010000000194
50,3,0.5,1.0,-35.0,-1,1.0,0.21460100000001603
51,3,0.5,0.25,-35.0,-1,1.0,0.23330100000001153
52,3,0.5,0.25,35.0,1,1.0,0.18890100000001553
53,3,0.5,0.0625,-35.0,1,0.0,0.44200099999997633
54,3,0.5,0.0625,-35.0,1,0.0,0.31640100000001325
55,3,0.5,1.0,-35.0,1,0.0,0.5574009999999987
56,3,0.5,0.0625,35.0,1,1.0,0.2016010000000108
57,3,0.5,0.25,-35.0,-1,1.0,0.19100099999999998
58,3,0.5,0.125,35.0,1,1.0,0.2789009999999905
59,3,0.5,0.25,35.0,1,1.0,0.19880100000000311
60,3,0.5,0.0625,35.0,1,1.0,0.30590100000000575
61,3,0.5,1.0,35.0,1,1.0,0.2507010000000207
62,3,0.5,0.0625,35.0,1,1.0,0.3055009999999925
63,3,0.5,0.25,-35.0,-1,1.0,0.19250100000002135
64,3,0.5,0.0,-35.0,1,0.0,0.37270099999997797
65,3,0.5,0.25,35.0,1,1.0,0.1671010000000024
66,3,0.5,1.0,-35.0,-1,1.0,0.27000100000003613
67,3,0.5,0.25,35.0,1,1.0,0.24510099999997692
68,3,0.5,1.0,35.0,1,1.0,0.2326009999999883
69,3,0.5,1.0,-35.0,-1,1.0,0.2041009999999801
70,3,0.5,1.0,35.0,1,1.0,0.1788010000000213
71,3,0.5,0.125,35.0,1,1.0,0.16220099999998183
72,3,0.5,0.25,-35.0,-1,1.0,0.18460099999992963
73,3,0.5,0.125,-35.0,-1,1.0,0.17180099999995946
74,3,0.5,0.25,35.0,1,1.0,0.2622009999999477
75,3,0.5,0.0,35.0,1,1.0,0.2598009999999249
76,3,0.5,0.125,-35.0,1,0.0,0.4689009999999598
77,3,0.5,0.0625,-35.0,1,0.0,5.666700999999989
78,3,0.5,0.25,-35.0,-1,1.0,0.3216009999999869
79,3,0.5,0.25,-35.0,-1,1.0,0.18660099999999602
80,3,0.5,0.0625,-35.0,-1,1.0,0.7296010000000024
81,3,0.5,0.25,-35.0,-1,1.0,0.352600999999936
82,3,0.5,0.0,35.0,-1,0.0,1.4604009999999334
83,3,0.5,0.125,35.0,1,1.0,0.40240099999999757
84,3,0.5,1.0,-35.0,-1,1.0,0.22600099999999657
85,3,0.5,1.0,35.0,1,1.0,0.17880099999996446
86,3,0.5,0.125,-35.0,1,0.0,0.29710099999999784
87,3,0.5,1.0,35.0,1,1.0,0.24770099999994954
88,3,0.5,0.125,35.0,1,1.0,0.19350099999996928
89,3,0.5,0.25,35.0,1,1.0,0.25230099999998856
90,3,0.5,0.0625,35.0,1,1.0,3.7423009999999977
91,3,0.2,0.25,35.0,1,1.0,0.1940010000000143
92,3,0.2,1.0,35.0,1,1.0,0.23550099999994245
93,3,0.2,1.0,35.0,1,1.0,0.1888010000000122
94,3,0.2,0.25,35.0,1,1.0,0.2608009999999581
95,3,0.2,0.25,-35.0,-1,1.0,0.40490099999993845
96,3,0.2,1.0,35.0,1,1.0,0.13040099999994936
97,3,0.2,0.125,35.0,1,1.0,0.6100009999999543
98,3,0.2,0.0,35.0,1,1.0,4.33480099999997
99,3,0.2,1.0,-35.0,-1,1.0,0.36730099999999766
100,3,0.2,1.0,35.0,1,1.0,0.2443010000000072
101,3,0.2,0.125,35.0,1,1.0,0.06960100000003422
102,3,0.2,0.25,-35.0,-1,1.0,0.4546009999999683
103,3,0.2,0.0,35.0,1,1.0,0.13440099999996846
104,3,0.2,0.25,-35.0,1,0.0,0.23910100000000511
105,3,0.2,0.25,35.0,1,1.0,0.27310099999999693
106,3,0.2,0.25,35.0,1,1.0,0.41050100000001066
107,3,0.2,0.25,-35.0,1,0.0,0.061800999999945816
108,3,0.2,0.125,35.0,1,1.0,0.21460100000001603
109,3,0.2,0.0625,35.0,1,1.0,0.21890099999995982
110,3,0.2,0.25,-35.0,1,0.0,0.30170099999998
111,3,0.2,0.0,35.0,-1,0.0,0.776100999999926
112,3,0.2,0.0625,35.0,1,1.0,0.4022009999999909
113,3,0.2,0.25,35.0,1,1.0,0.23130099999997356
114,3,0.2,0.0,35.0,-1,0.0,0.4946009999999319
115,3,0.2,0.0625,35.0,1,1.0,0.057201000000020485
116,3,0.2,0.0,35.0,1,1.0,1.152700999999979
117,3,0.2,0.0625,35.0,-1,0.0,0.5161009999999919
118,3,0.2,1.0,35.0,1,1.0,0.27880100000004404
119,3,0.2,0.0625,35.0,1,1.0,0.3412010000000123
120,3,0.2,0.0625,35.0,1,1.0,0.2425010000000043
121,3,0.2,0.125,35.0,1,1.0,0.36830100000003085
122,3,0.2,0.0625,35.0,1,1.0,0.7087010000000191
123,3,0.2,1.0,35.0,1,1.0,0.25270100000000184
124,3,0.8,0.0625,35.0,1,1.0,0.5084009999999921
125,3,0.8,0.0,-35.0,1,0.0,0.3815010000000143
126,3,0.8,1.0,-35.0,-1,1.0,0.8522009999999796
127,3,0.8,0.0,-35.0,1,0.0,0.21990099999993618
128,3,0.8,0.25,-35.0,-1,1.0,0.4486009999999965
129,3,0.8,1.0,-35.0,-1,1.0,0.21130099999999175
130,3,0.8,1.0,-35.0,-1,1.0,0.19660100000004377
131,3,0.8,1.0,35.0,1,1.0,0.36600100000003977
132,3,0.8,1.0,-35.0,-1,1.0,-0.015198999999995522
133,3,0.8,1.0,-35.0,-1,1.0,0.29980099999994536
134,3,0.8,0.0625,-35.0,-1,1.0,0.3791009999999915
135,3,0.8,0.125,35.0,1,1.0,0.1282019999999875
136,3,0.8,0.0625,35.0,-1,0.0,0.5185010000000148
137,3,0.8,0.0625,-35.0,1,0.0,0.08890099999996437
138,3,0.8,0.0,-35.0,1,0.0,0.25200100000006387
139,3,0.8,1.0,35.0,1,1.0,0.037101000000006934
140,3,0.8,0.125,-35.0,-1,1.0,0.7137010000000146
141,3,0.8,0.125,-35.0,-1,1.0,5.5608009999999695
142,3,0.8,1.0,-35.0,-1,1.0,0.4292009999999209
143,3,0.8,1.0,-35.0,-1,1.0,0.3579009999999698
144,3,0.8,0.125,-35.0,-1,1.0,0.8509010000000217
145,3,0.8,1.0,-35.0,-1,1.0,0.3567010000000437
146,3,0.8,0.25,-35.0,-1,1.0,0.27930099999991853
147,3,0.8,0.0,35.0,-1,0.0,0.9064019999999573
148,3,0.8,0.0,35.0,-1,0.0,0.3320009999999911
149,3,0.8,0.0,-35.0,-1,1.0,0.26890099999991435
150,3,0.8,0.25,-35.0,-1,1.0,0.43620099999986905
151,3,0.8,0.0625,35.0,1,1.0,0.3846009999999751
152,3,0.8,1.0,35.0,1,1.0,0.27260100000000875
153,3,0.2,0.25,35.0,1,1.0,0.25470099999995455
154,3,0.2,0.0625,35.0,1,1.0,0.23910100000000511
155,3,0.2,1.0,35.0,1,1.0,0.2131010000000515
156,3,0.2,0.0625,35.0,1,1.0,0.22090100000002622
157,3,0.2,0.0625,35.0,1,1.0,0.21120099999996
158,3,0.2,1.0,35.0,1,1.0,0.21400099999993927
159,3,0.2,0.0,35.0,1,1.0,4.68560100000002
160,3,0.2,0.0625,35.0,1,1.0,0.06240099999990889
161,3,0.2,0.0,35.0,1,1.0,0.15010099999994964
162,3,0.2,0.125,35.0,1,1.0,0.2659009999999853
163,3,0.2,0.125,35.0,1,1.0,0.18580099999996946
164,3,0.2,0.125,35.0,1,1.0,0.1992010000000164
165,3,0.2,0.0,35.0,1,1.0,0.17190100000004804
166,3,0.2,0.0625,-35.0,1,0.0,0.33560099999999693
167,3,0.2,0.25,35.0,1,1.0,0.13350099999991016
168,3,0.2,1.0,35.0,1,1.0,-0.0203990000001113
169,3,0.2,1.0,35.0,1,1.0,0.16240099999993163
170,3,0.2,0.0,35.0,1,1.0,0.20790099999999256
171,3,0.2,0.125,35.0,1,1.0,0.2456009999999651
172,3,0.2,0.25,35.0,1,1.0,0.1123010000000022
173,3,0.2,0.0625,35.0,1,1.0,0.2796009999999569
174,3,0.2,1.0,35.0,1,1.0,0.21180100000003677
175,3,0.2,1.0,-35.0,-1,1.0,0.30310099999996964
176,3,0.2,0.0,35.0,1,1.0,0.2915010000000393
177,3,0.2,0.0625,35.0,1,1.0,0.2876009999998814
178,3,0.2,0.0,35.0,1,1.0,0.4890010000000302
179,3,0.2,0.125,35.0,-1,0.0,0.17870099999993272
180,3,0.2,0.25,35.0,1,1.0,0.26040100000000166
181,3,0.2,0.0625,35.0,1,1.0,0.291800999999964
182,3,0.2,0.125,-35.0,-1,1.0,1.2554009999998925
183,3,0.2,0.0,35.0,1,1.0,0.3329009999998789
184,3,0.2,0.0625,-35.0,1,0.0,0.33330100000000584
185,3,0.2,0.125,35.0,1,1.0,0.3303009999999631
186,3,0.2,0.125,35.0,1,1.0,0.24700099999995473
187,3,0.2,0.0,35.0,1,1.0,0.14200099999993654
188,3,0.2,0.0625,35.0,1,1.0,0.0008009999999103457
189,3,0.2,1.0,35.0,1,1.0,0.18240099999991344
190,3,0.2,0.125,35.0,1,1.0,0.2855009999999538
191,3,0.2,0.125,-35.0,-1,1.0,0.7152009999999791
192,3,0.2,0.0625,-35.0,1,0.0,0.21250099999997474
193,3,0.2,0.125,35.0,1,1.0,0.15600100000006023
194,3,0.2,0.0625,35.0,1,1.0,0.21660099999996874
195,3,0.2,1.0,35.0,1,1.0,0.16370099999983267
196,3,0.2,0.125,35.0,1,1.0,0.22110099999986232
197,3,0.2,1.0,-35.0,-1,1.0,0.3385009999999511
198,3,0.2,1.0,35.0,1,1.0,0.17850099999998292
199,3,0.8,1.0,-35.0,-1,1.0,0.19810099999995145
200,3,0.8,0.25,-35.0,-1,1.0,0.2959010000000717
201,3,0.8,0.25,-35.0,-1,1.0,0.7435009999999238
202,3,0.8,1.0,35.0,1,1.0,0.19960099999991598
203,3,0.8,0.0625,-35.0,-1,1.0,0.37730099999998856
204,3,0.8,0.25,-35.0,-1,1.0,0.2394009999999298
205,3,0.8,0.0,-35.0,-1,1.0,0.4960009999999784
206,3,0.8,1.0,-35.0,-1,1.0,0.5208010000000058
207,3,0.8,1.0,-35.0,-1,1.0,0.23920099999998
208,3,0.8,0.125,-35.0,-1,1.0,0.0943009999999731
209,3,0.8,0.125,-35.0,1,0.0,1.123700999999869
210,3,0.8,0.25,35.0,1,1.0,0.24510099999997692
211,3,0.8,0.0625,-35.0,-1,1.0,0.5564009999999371
212,3,0.8,0.0625,35.0,1,1.0,0.2475009999999429
213,3,0.8,0.0625,-35.0,-1,1.0,0.47450100000003204
214,3,0.8,1.0,-35.0,-1,1.0,0.5219009999998434
215,3,0.8,0.25,35.0,1,1.0,0.18960100000003877
216,3,0.8,0.0,35.0,1,1.0,0.36770100000001094
217,3,0.8,0.0625,-35.0,1,0.0,0.23260199999992892
218,3,0.8,1.0,-35.0,-1,1.0,0.4633010000000013
219,3,0.8,0.25,35.0,1,1.0,0.25040100000001075
220,3,0.8,0.0,-35.0,-1,1.0,1.1494010000000117
221,3,0.8,0.125,-35.0,-1,1.0,0.2522009999999
222,3,0.8,0.0625,-35.0,-1,1.0,0.4382020000000466
223,3,0.8,0.25,-35.0,-1,1.0,0.2919009999999389
224,3,0.8,0.0625,35.0,-1,0.0,0.5049009999999043
225,3,0.8,0.0625,35.0,1,1.0,0.31540099999995164
226,3,0.8,0.25,-35.0,1,0.0,0.4247009999999136
227,3,0.8,0.125,-35.0,-1,1.0,0.7046009999999114
228,3,0.8,0.125,-35.0,1,0.0,0.5149009999998952
229,3,0.8,0.125,-35.0,1,0.0,0.5086010000001124
230,3,0.8,1.0,35.0,1,1.0,0.22970100000009097
231,3,0.8,1.0,35.0,1,1.0,0.20040099999994254
232,3,0.8,0.0,-35.0,1,0.0,0.0905009999999038
233,3,0.8,0.125,-35.0,-1,1.0,0.5311010000000351
234,3,0.8,0.25,-35.0,-1,1.0,0.43240099999991344
235,3,0.8,0.25,-35.0,-1,1.0,0.44980099999997947
236,3,0.8,0.0625,-35.0,-1,1.0,0.36760100000003604
237,3,0.8,0.0625,-35.0,-1,1.0,0.40020099999992453
238,3,0.8,0.25,-35.0,-1,1.0,0.3504009999999198
239,3,0.8,0.125,-35.0,-1,1.0,0.1991010000000415
240,3,0.8,0.0,-35.0,-1,1.0,0.3667010000000346
241,3,0.8,0.25,-35.0,-1,1.0,0.2475009999999429
242,3,0.2,1.0,35.0,1,1.0,0.2896009999999478
243,3,0.2,0.0,35.0,-1,0.0,0.6422009999998863
244,3,0.2,1.0,-35.0,-1,1.0,0.22670100000004823
245,3,0.2,0.0625,35.0,1,1.0,0.2940009999999802
246,3,0.2,0.0,35.0,-1,0.0,0.5636010000000624
247,3,0.2,1.0,35.0,1,1.0,0.1853009999999813
248,3,0.2,1.0,-35.0,-1,1.0,0.18070099999988543
249,3,0.2,0.0625,35.0,1,1.0,0.5021009999999251
250,3,0.2,1.0,35.0,1,1.0,0.22250099999996564
251,3,0.2,0.0625,35.0,1,1.0,0.21050100000002203
252,3,0.2,0.0625,35.0,1,1.0,0.28460099999995236
253,3,0.2,0.125,35.0,1,1.0,0.28890099999989616
254,3,0.2,0.0625,35.0,1,1.0,0.10500099999990198
255,3,0.2,0.0,35.0,1,1.0,0.32300099999997656
256,3,0.2,0.125,-35.0,1,0.0,0.20780100000001767
257,3,0.2,1.0,35.0,1,1.0,0.23250100000007023
258,3,0.2,1.0,35.0,1,1.0,0.2598010000000386
259,3,0.2,0.125,35.0,1,1.0,0.29730099999994763
260,3,0.2,0.0625,35.0,1,1.0,-0.11239899999998215
261,3,0.2,0.0625,35.0,1,1.0,0.4386009999999487
262,3,0.2,0.0,35.0,1,1.0,0.2519009999999753
263,3,0.2,0.0625,35.0,1,1.0,0.21230100000002494
264,3,0.2,0.25,35.0,1,1.0,0.23880099999996673
265,3,0.2,1.0,-35.0,-1,1.0,0.2741009999999733
266,3,0.2,0.125,35.0,1,1.0,0.09180100000003222
267,3,0.2,0.0,35.0,-1,0.0,0.5960010000000011
268,3,0.2,0.25,35.0,1,1.0,0.26470100000005914
269,3,0.2,0.0625,35.0,1,1.0,1.951400999999919
270,3,0.2,0.0625,35.0,1,1.0,0.29470099999991817
271,3,0.2,1.0,35.0,1,1.0,0.2783009999999422
272,3,0.2,1.0,35.0,1,1.0,0.25480099999992945
273,3,0.2,0.0625,35.0,1,1.0,0.2415009999999711
274,3,0.2,0.0,35.0,1,1.0,0.17830099999991944
275,3,0.2,0.25,35.0,1,1.0,0.1750010000000657
276,3,0.2,0.0,35.0,1,1.0,6.068300999999792
277,3,0.2,0.125,35.0,1,1.0,0.21180099999992308
278,3,0.2,1.0,35.0,1,1.0,0.1952009999999973
279,3,0.2,0.25,35.0,1,1.0,0.1952009999999973
280,3,0.2,1.0,-35.0,-1,1.0,0.8786009999998896
281,3,0.2,0.0625,35.0,1,1.0,0.24210100000004786
282,3,0.2,0.125,35.0,1,1.0,0.3054010000000744
283,3,0.2,0.25,35.0,1,1.0,0.10550100000000384
284,3,0.2,0.25,35.0,1,1.0,0.20880099999999402
285,3,0.2,0.0625,35.0,1,1.0,0.352301000000125
286,3,0.2,0.125,35.0,1,1.0,0.32560099999977865
287,3,0.2,0.125,35.0,1,1.0,0.2824009999999362
288,3,0.2,0.125,-35.0,-1,1.0,0.5023010000002159
289,3,0.2,0.0625,35.0,1,1.0,0.2557010000000446
290,3,0.2,1.0,35.0,1,1.0,0.16570099999989907
291,3,0.2,0.25,35.0,1,1.0,0.27250099999992017
292,3,0.2,0.0625,35.0,1,1.0,0.22250099999996564
293,3,0.2,0.125,35.0,1,1.0,0.11390099999994163
294,3,0.2,0.0,-35.0,1,0.0,0.21930099999985941
295,3,0.2,0.0625,35.0,1,1.0,0.11080100000003767
296,3,0.2,0.0,-35.0,1,0.0,0.2294010000000526
297,3,0.2,0.0625,35.0,1,1.0,0.2427020000000084
298,3,0.2,0.0625,-35.0,-1,1.0,0.20620100000019193
299,3,0.2,0.0,-35.0,-1,1.0,1.1161009999998441
300,3,0.2,1.0,35.0,1,1.0,0.2395010000000184
301,3,0.2,0.125,35.0,1,1.0,0.1629009999999198
302,3,0.2,0.0625,35.0,1,1.0,0.17090100000018538
303,3,0.2,0.125,35.0,1,1.0,0.20630099999971208
304,3,0.2,0.125,35.0,1,1.0,0.1864010000001599
305,3,0.2,0.0625,-35.0,-1,1.0,0.3165010000000166
306,3,0.2,0.0625,-35.0,-1,1.0,0.10310099999992417
307,3,0.2,0.0625,35.0,1,1.0,0.2632009999999809
308,3,0.2,0.0625,35.0,1,1.0,-0.0367989999999736
309,3,0.2,0.125,35.0,1,1.0,0.28330099999993763
310,3,0.2,1.0,35.0,1,1.0,0.16010099999994054
311,3,0.2,0.0625,35.0,1,1.0,0.1534009999998034
312,3,0.2,1.0,35.0,1,1.0,0.1668010000000777
313,3,0.2,0.125,35.0,1,1.0,0.18020099999989725
314,3,0.2,0.25,35.0,1,1.0,0.29360099999985323
315,3,0.2,0.0625,35.0,1,1.0,0.18360099999995327
316,3,0.2,1.0,-35.0,1,0.0,0.20370099999990998
317,3,0.2,0.25,35.0,1,1.0,0.8905009999998583
318,3,0.2,0.0,-35.0,1,0.0,0.2273009999998976
319,3,0.2,0.125,35.0,1,1.0,0.22060099999998783
320,3,0.2,0.0625,35.0,1,1.0,0.3707009999998263
321,3,0.2,0.125,35.0,1,1.0,0.2608010000001286
322,3,0.2,1.0,35.0,1,1.0,0.16410099999984595
323,3,0.2,0.0,35.0,-1,0.0,0.4874009999998634
324,3,0.2,0.125,35.0,1,1.0,0.24090099999989434
325,3,0.2,0.125,-35.0,-1,1.0,0.23420099999998456
326,3,0.2,1.0,35.0,1,1.0,0.22760200000016084
327,3,0.2,0.25,-35.0,-1,1.0,0.9244009999999889
328,3,0.2,0.25,35.0,1,1.0,0.26440100000013445
329,3,0.2,0.125,35.0,1,1.0,0.23440100000016173
330,3,0.8,0.0625,35.0,1,1.0,0.3179010000001199
331,3,0.8,0.125,-35.0,-1,1.0,0.29800199999999677
332,3,0.8,0.125,-35.0,-1,1.0,0.6281010000002425
333,3,0.8,1.0,-35.0,-1,1.0,0.05130100000019411
334,3,0.8,0.25,-35.0,-1,1.0,0.43140100000005077
335,3,0.8,1.0,-35.0,-1,1.0,0.414801000000125
336,3,0.8,0.0625,-35.0,-1,1.0,0.7583020000001852
337,3,0.8,0.0625,35.0,1,1.0,0.2583009999998467
338,3,0.8,0.0625,-35.0,1,0.0,0.1649009999998725
339,3,0.8,0.25,35.0,1,1.0,0.3283010000000104
340,3,0.8,0.0625,-35.0,-1,1.0,0.27500099999997474
341,3,0.8,0.125,35.0,1,1.0,0.2451010000002043
342,3,0.8,1.0,-35.0,-1,1.0,2.7219010000001163
343,3,0.8,0.125,-35.0,1,0.0,0.1685010000001057
344,3,0.8,0.0625,-35.0,1,0.0,0.14190099999996164
345,3,0.8,0.25,35.0,1,1.0,0.2654009999998834
346,3,0.8,0.25,-35.0,-1,1.0,0.7286009999997987
347,3,0.8,0.125,-35.0,-1,1.0,0.5420010000000275
348,3,0.8,0.0,-35.0,-1,1.0,0.6354010000000017
349,3,0.8,0.25,35.0,1,1.0,0.2755009999998492
350,3,0.8,0.125,-35.0,-1,1.0,0.875501000000213
351,3,0.8,1.0,-35.0,-1,1.0,0.2156009999998787
352,3,0.8,0.0,-35.0,-1,1.0,0.7723009999999704
353,3,0.8,1.0,-35.0,-1,1.0,0.2190010000001621
354,3,0.8,1.0,35.0,1,1.0,0.312300999999934
355,3,0.8,0.0625,-35.0,-1,1.0,0.2557010000000446
356,3,0.8,0.0625,-35.0,-1,1.0,0.695801000000074
357,3,0.8,0.0625,-35.0,-1,1.0,0.6625010000000202
358,3,0.8,0.0625,-35.0,-1,1.0,0.5359009999999671
359,3,0.8,0.0,-35.0,-1,1.0,0.5226009999998951
360,3,0.8,0.125,-35.0,-1,1.0,0.212601000000177
361,3,0.8,1.0,-35.0,-1,1.0,0.33930099999997765
362,3,0.8,0.25,-35.0,-1,1.0,0.66270099999997
363,3,0.8,0.125,35.0,1,1.0,0.30950099999995473
364,3,0.8,1.0,-35.0,-1,1.0,0.4195009999998547
365,3,0.8,0.0625,-35.0,1,0.0,0.2796009999999569
366,3,0.8,0.25,-35.0,-1,1.0,0.41630099999997583
367,3,0.8,0.125,-35.0,-1,1.0,0.16300100000012208
368,3,0.8,0.125,-35.0,-1,1.0,0.5597010000001319
369,3,0.8,0.25,-35.0,-1,1.0,0.4331009999998514
370,3,0.8,0.125,-35.0,-1,1.0,0.3298010000000886
371,3,0.8,0.125,35.0,1,1.0,0.25650099999984377
372,3,0.8,0.0625,-35.0,1,0.0,0.24650100000008024
373,3,0.8,0.0,35.0,-1,0.0,0.4766010000000733
374,3,0.8,1.0,-35.0,-1,1.0,0.4166009999999005
375,3,0.8,0.125,35.0,1,1.0,0.10940099999993436
376,3,0.8,1.0,-35.0,-1,1.0,0.09190100000000712
377,3,0.8,0.0,-35.0,1,0.0,0.3768010000001141
378,3,0.8,0.0,35.0,1,1.0,0.35360100000002603
379,3,0.8,0.0625,-35.0,1,0.0,0.25690099999997074
380,3,0.8,0.25,-35.0,1,0.0,0.20360099999993508
381,3,0.8,0.25,35.0,1,1.0,0.2070009999999911
382,3,0.2,1.0,-35.0,-1,1.0,0.5337010000000646
383,3,0.2,0.25,35.0,1,1.0,0.23720099999991362
384,3,0.2,1.0,35.0,1,1.0,0.23710099999993872
385,3,0.2,0.25,35.0,1,1.0,0.19050100000004022
386,3,0.2,1.0,35.0,-1,0.0,0.13390099999992344
387,3,0.2,0.25,35.0,1,1.0,0.2473010000001068
388,3,0.2,0.0625,-35.0,-1,1.0,0.5306010000001606
389,3,0.2,0.125,35.0,1,1.0,0.31730099999981576
390,3,0.2,0.125,35.0,1,1.0,0.30070099999989
391,3,0.2,0.125,35.0,1,1.0,0.2075009999998656
392,3,0.2,1.0,-35.0,-1,1.0,0.5975009999999656
393,3,0.2,1.0,35.0,1,1.0,0.1708009999999831
394,3,0.2,0.25,35.0,1,1.0,0.11760100000014972
395,3,0.2,1.0,-35.0,-1,1.0,0.4909010000001217
396,3,0.2,0.25,-35.0,1,0.0,0.17760100000009515
397,3,0.2,1.0,-35.0,-1,1.0,0.27440100000012535
398,3,0.2,0.25,35.0,1,1.0,0.22770100000002458
399,3,0.2,0.25,35.0,1,1.0,0.20440100000018901
400,3,0.2,0.125,35.0,1,1.0,0.2711010000000442
401,3,0.2,1.0,35.0,1,1.0,0.20790099999999256
402,3,0.2,0.0,35.0,-1,0.0,0.1812009999998736
403,3,0.2,0.125,35.0,1,1.0,0.24800099999993108
404,3,0.2,0.25,35.0,1,1.0,0.03140099999995982
405,3,0.2,0.25,35.0,1,1.0,0.16150100000004386
406,3,0.2,0.0625,35.0,1,1.0,0.20140100000003258
407,3,0.2,0.125,35.0,1,1.0,0.16150100000004386
408,3,0.2,0.125,35.0,1,1.0,0.21820100000013554
409,3,0.2,0.25,35.0,1,1.0,0.20830100000011953
410,3,0.2,0.125,35.0,1,1.0,0.23830100000009224
411,3,0.2,0.125,35.0,1,1.0,0.23840100000006714
412,3,0.2,0.25,35.0,1,1.0,0.2618009999998776
413,3,0.2,0.0,35.0,1,1.0,0.21180100000015045
414,3,0.2,0.25,35.0,1,1.0,0.1852010000000064
415,3,0.2,0.0625,35.0,1,1.0,0.27520099999992453
416,3,0.2,0.125,35.0,1,1.0,0.21860100000003513
417,3,0.2,0.0625,35.0,1,1.0,0.3020010000000184
418,3,0.2,0.0,35.0,-1,0.0,0.5054009999998925
419,3,0.2,0.0625,-35.0,-1,1.0,0.5521010000002207
420,3,0.2,0.0625,35.0,1,1.0,0.21220100000005004
421,3,0.2,0.125,35.0,1,1.0,0.2555010000000948
422,3,0.2,0.125,35.0,1,1.0,0.2655009999998583
423,3,0.2,1.0,35.0,1,1.0,0.2256009999998696
424,3,0.2,0.125,-35.0,-1,1.0,0.5357010000000173
425,3,0.2,0.125,-35.0,1,0.0,0.18230100000005223
426,3,0.2,0.125,-35.0,-1,1.0,0.5058010000000195
427,3,0.2,0.125,-35.0,-1,1.0,0.2791010000000824
428,3,0.2,0.25,-35.0,1,0.0,0.24260099999992235
429,3,0.2,0.0,35.0,-1,0.0,0.6725010000000111
430,3,0.2,0.25,35.0,1,1.0,0.22920099999987542
431,3,0.2,0.0,35.0,-1,0.0,0.6060010000001057
432,3,0.2,0.25,35.0,1,1.0,0.18600100000003295
433,3,0.2,0.0625,35.0,1,1.0,0.892701999999872
434,3,0.2,0.0,35.0,1,1.0,0.21040100000004713
435,3,0.2,1.0,35.0,1,1.0,0.21610099999998056
436,3,0.2,0.25,35.0,1,1.0,0.2630010000000311
437,3,0.2,1.0,35.0,1,1.0,0.22300099999984013
438,3,0.2,0.25,35.0,1,1.0,0.10970100000008642
439,3,0.2,0.125,35.0,1,1.0,0.27630100000010316
440,3,0.2,0.125,35.0,1,1.0,0.22640099999989616
441,3,0.2,0.0625,35.0,1,1.0,0.3098010000001068
442,3,0.2,0.25,35.0,1,1.0,0.1965020000000095
443,3,0.2,0.0625,35.0,1,1.0,0.19660099999987324
444,3,0.2,1.0,-35.0,1,0.0,0.036600999999791384
445,3,0.2,0.125,-35.0,-1,1.0,0.5434009999999034
446,3,0.2,0.0625,35.0,1,1.0,0.18670099999985723
447,3,0.2,0.25,-35.0,-1,1.0,0.5001010000000861
448,3,0.2,1.0,35.0,1,1.0,0.213600999999926
449,3,0.2,1.0,35.0,1,1.0,0.1968010000000504
450,3,0.2,0.0,35.0,-1,0.0,0.5336010000000897
451,3,0.2,0.0625,-35.0,1,0.0,0.4936009999998987
452,3,0.2,0.0625,35.0,1,1.0,0.26700099999970917
453,3,0.2,1.0,35.0,1,1.0,0.21040099999981976
454,3,0.8,1.0,-35.0,-1,1.0,0.31710100000009334
455,3,0.8,0.0625,35.0,1,1.0,0.27050100000019484
456,3,0.8,1.0,-35.0,-1,1.0,0.5305010000001857
457,3,0.8,0.25,35.0,1,1.0,0.24070099999994454
458,3,0.8,0.125,35.0,1,1.0,0.06860099999994418
459,3,0.8,0.25,-35.0,-1,1.0,0.3340009999999438
460,3,0.8,0.0625,35.0,1,1.0,0.24410100000000057
461,3,0.8,0.0,-35.0,-1,1.0,0.5608009999998558
462,3,0.8,1.0,-35.0,-1,1.0,0.5275010000000293
463,3,0.8,0.25,-35.0,-1,1.0,0.20090099999993072
464,3,0.8,0.0,-35.0,1,0.0,0.31090100000005805
465,3,0.8,0.0625,-35.0,-1,1.0,0.42430100000001403
466,3,0.8,0.25,-35.0,-1,1.0,0.1611009999999169
467,3,0.8,1.0,-35.0,-1,1.0,0.4311009999998987
468,3,0.8,0.25,-35.0,-1,1.0,0.23790100000019265
469,3,0.8,0.0,-35.0,1,0.0,0.3479010000000926
470,3,0.8,0.125,-35.0,-1,1.0,0.24790099999995618
471,3,0.8,0.25,35.0,1,1.0,0.22790099999997437
472,3,0.8,0.25,-35.0,-1,1.0,0.25810100000012426
473,3,0.8,0.0,-35.0,-1,1.0,0.25470099999984086
474,3,0.8,1.0,-35.0,-1,1.0,0.22810200000003533
475,3,0.8,0.0625,35.0,1,1.0,0.20480099999986123
476,3,0.8,0.25,-35.0,-1,1.0,0.26150099999972554
477,3,0.8,1.0,-35.0,-1,1.0,0.20820099999991726
478,3,0.8,0.125,-35.0,-1,1.0,0.26490100000000893
479,3,0.8,0.0,-35.0,-1,1.0,0.18830099999991035
480,3,0.8,1.0,-35.0,-1,1.0,0.18830099999991035
481,3,0.8,1.0,-35.0,-1,1.0,0.38510100000007697
482,3,0.8,1.0,-35.0,-1,1.0,0.43170099999997547
483,3,0.8,0.0,-35.0,-1,1.0,0.5551009999999224
484,3,0.8,0.125,-35.0,-1,1.0,0.601900999999998
485,3,0.8,0.25,-35.0,-1,1.0,0.3152010000001155
486,3,0.8,0.25,-35.0,-1,1.0,0.16860099999985323
487,3,0.8,1.0,35.0,1,1.0,0.2619009999998525
488,3,0.8,0.0625,-35.0,-1,1.0,0.30200100000024577
489,3,0.8,0.0625,-35.0,-1,1.0,0.3721009999999296
490,3,0.8,0.25,-35.0,-1,1.0,0.21550199999978759
491,3,0.8,0.25,-35.0,-1,1.0,0.2655009999998583
492,3,0.8,0.25,-35.0,-1,1.0,0.32560099999977865
493,3,0.8,0.25,35.0,1,1.0,0.2756009999998241
494,3,0.8,0.125,-35.0,-1,1.0,0.18240099999979975
495,3,0.8,0.25,-35.0,-1,1.0,0.4957009999998263
496,3,0.8,1.0,-35.0,-1,1.0,0.23250099999995655
497,3,0.8,0.0625,35.0,1,1.0,0.26250099999992926
498,3,0.8,0.125,-35.0,-1,1.0,0.295900999999958
499,3,0.8,0.0625,-35.0,1,0.0,0.4126009999999951
500,3,0.8,0.0625,35.0,1,1.0,0.3261009999998805
501,3,0.8,0.125,-35.0,-1,1.0,0.12420099999985723
502,3,0.8,0.0625,-35.0,-1,1.0,0.3643009999998412
503,3,0.8,0.0625,-35.0,-1,1.0,0.10280099999999948
504,3,0.8,0.0625,-35.0,1,0.0,0.13610100000005332
505,3,0.8,0.25,-35.0,-1,1.0,0.41960100000005696
506,3,0.8,0.125,35.0,1,1.0,0.22630099999992126
507,3,0.8,0.125,-35.0,-1,1.0,0.44640099999992344
508,3,0.8,1.0,-35.0,-1,1.0,0.22310099999981503
509,3,0.8,1.0,35.0,1,1.0,0.20980099999997037
510,3,0.8,1.0,-35.0,-1,1.0,0.7965019999999186
511,3,0.8,0.125,-35.0,-1,1.0,0.2232010000000173
512,3,0.8,0.25,-35.0,-1,1.0,0.3516010000000733
513,3,0.8,0.0,-35.0,1,0.0,0.22000099999991107
514,3,0.8,0.0625,35.0,-1,0.0,1.0934019999999691
515,3,0.8,1.0,-35.0,-1,1.0,0.5067010000000209
516,3,0.8,0.25,-35.0,-1,1.0,0.39350100000001476
517,3,0.8,0.25,35.0,1,1.0,0.27020100000004277
518,3,0.8,0.0,-35.0,-1,1.0,0.4569010000000162
519,3,0.8,1.0,-35.0,-1,1.0,0.2069010000000162
520,3,0.8,0.0625,-35.0,-1,1.0,0.2970009999996819
521,3,0.8,0.0,-35.0,1,0.0,0.2070009999999911
522,3,0.8,1.0,35.0,1,1.0,0.28050099999995837
523,3,0.8,0.0625,-35.0,-1,1.0,0.5871010000000751
524,3,0.8,0.0625,35.0,-1,0.0,0.6606010000000424
525,3,0.8,0.125,35.0,1,1.0,0.2806009999997059
526,3,0.8,0.0,-35.0,-1,1.0,0.08390099999996892
527,3,0.2,0.25,35.0,1,1.0,0.19410099999981867
528,3,0.2,0.0625,35.0,1,1.0,0.31740100000001803
529,3,0.2,0.25,35.0,1,1.0,0.1811009999998987
530,3,0.2,1.0,35.0,1,1.0,0.1976009999998496
531,3,0.2,0.25,35.0,1,1.0,0.2409010000001217
532,3,0.2,0.0625,35.0,1,1.0,0.20780100000001767
533,3,0.2,0.0,-35.0,1,0.0,0.2112010000000737
534,3,0.2,0.0625,35.0,-1,0.0,0.5512009999999918
535,3,0.2,0.125,35.0,1,1.0,0.49450100000012753
536,3,0.2,1.0,35.0,1,1.0,0.16440099999977065
537,3,0.2,0.0625,35.0,1,1.0,0.17450099999996382
538,3,0.2,0.125,35.0,1,1.0,0.22820099999989907
539,3,0.2,0.0625,35.0,1,1.0,0.05100099999981467
540,3,0.2,0.0625,-35.0,-1,1.0,0.6614009999998416
541,3,0.2,0.0625,35.0,1,1.0,0.24470100000007733
542,3,0.2,1.0,35.0,1,1.0,0.22140099999978702
543,3,0.2,0.0625,-35.0,1,0.0,0.2982010000000628
544,3,0.2,0.125,-35.0,-1,1.0,0.5050009999999929
545,3,0.2,0.25,35.0,1,1.0,0.2215009999999893
546,3,0.2,1.0,35.0,1,1.0,0.19830099999990125
547,3,0.2,1.0,35.0,1,1.0,0.2985019999996439
548,3,0.2,0.25,35.0,1,1.0,0.18830100000013772
549,3,0.2,0.0625,35.0,1,1.0,0.20520099999976082
550,3,0.2,1.0,35.0,1,1.0,0.24530099999992672
551,3,0.2,0.0,-35.0,1,0.0,0.24530099999992672
552,3,0.2,0.125,35.0,1,1.0,0.20230099999980666
553,3,0.2,1.0,35.0,1,1.0,0.19180099999994127
554,3,0.2,0.25,-35.0,-1,1.0,0.24870099999998274
555,3,0.2,0.0625,35.0,1,1.0,0.48510099999975864
556,3,0.2,0.0,35.0,1,1.0,0.14530100000001767
557,3,0.2,0.125,-35.0,-1,1.0,0.23530100000016319
558,3,0.2,0.0625,35.0,1,1.0,0.24230099999977028
559,3,0.2,0.125,35.0,1,1.0,0.17870099999981903
560,3,0.2,1.0,35.0,1,1.0,0.1987010000002556
561,3,0.2,0.125,35.0,1,1.0,0.21230100000002494
562,3,0.2,1.0,-35.0,-1,1.0,0.6389009999998052
563,3,0.2,0.25,35.0,1,1.0,0.20940100000007078
564,3,0.2,0.125,-35.0,-1,1.0,0.5090010000003531
565,3,0.2,1.0,35.0,1,1.0,0.25580100000024686
566,3,0.2,0.0625,35.0,1,1.0,0.3525009999998474
567,3,0.2,0.25,-35.0,-1,1.0,0.229001000000153
568,3,0.2,1.0,35.0,1,1.0,0.22250100000019302
569,3,0.2,0.0625,35.0,1,1.0,0.18930100000034145
570,3,0.2,0.125,-35.0,1,0.0,0.25270099999988815
571,3,0.2,0.0,35.0,1,1.0,0.14270100000021557
572,3,0.2,0.25,35.0,1,1.0,0.0961010000000897
573,3,0.2,0.25,-35.0,-1,1.0,0.36640099999976883
574,3,0.2,0.0,-35.0,1,0.0,0.16920099999970262
575,3,0.8,1.0,-35.0,-1,1.0,0.27940099999977974
576,3,0.8,0.0625,-35.0,1,0.0,0.2161009999995258
577,3,0.8,0.0,-35.0,1,0.0,0.22300099999984013
578,3,0.8,1.0,-35.0,-1,1.0,0.9297010000000228
579,3,0.8,1.0,35.0,1,1.0,0.22670100000004823
580,3,0.8,0.25,-35.0,-1,1.0,0.2165010000003349
581,3,0.8,0.0625,-35.0,1,0.0,0.2332010000000082
582,3,0.8,1.0,-35.0,-1,1.0,0.40000099999997474
583,3,0.8,1.0,-35.0,-1,1.0,0.3699009999995724
