trial_num,session_num,stim_probability_left,contrast,position,response_choice,trial_correct,reaction_time
1,1,0.5,0.0625,-35.0,-1,1.0,0.4370999999999998
2,1,0.5,0.0625,-35.0,-1,1.0,0.30160000000000053
3,1,0.5,0.25,-35.0,-1,1.0,0.42430000000000057
4,1,0.5,0.125,-35.0,-1,1.0,1.4605999999999995
5,1,0.5,0.25,35.0,1,1.0,0.3858000000000015
6,1,0.5,1.0,35.0,1,1.0,0.6502000000000017
7,1,0.5,1.0,-35.0,-1,1.0,0.34029999999999916
8,1,0.5,0.25,-35.0,-1,1.0,1.783100000000001
9,1,0.5,0.25,-35.0,-1,1.0,0.2283000000000044
10,1,0.5,0.0625,-35.0,-1,1.0,0.2764000000000024
11,1,0.5,0.0625,35.0,1,1.0,4.500400000000006
12,1,0.5,0.0,35.0,-1,0.0,0.31390000000000384
13,1,0.5,0.125,35.0,1,1.0,4.157000000000004
14,1,0.5,0.0,35.0,1,1.0,1.2905000000000015
15,1,0.5,0.0625,35.0,1,1.0,0.28539999999999566
16,1,0.5,0.125,35.0,1,1.0,0.26669999999999305
17,1,0.5,0.25,35.0,1,1.0,0.20669999999998367
18,1,0.5,1.0,-35.0,-1,1.0,0.2032999999999845
19,1,0.5,0.125,-35.0,-1,1.0,0.1844999999999999
20,1,0.5,0.125,-35.0,-1,1.0,1.1154999999999973
21,1,0.5,0.125,-35.0,-1,1.0,0.49729999999999563
22,1,0.5,0.0,-35.0,-1,1.0,0.25849999999999795
23,1,0.5,0.125,35.0,1,1.0,0.06459999999999866
24,1,0.5,0.0,-35.0,-1,1.0,0.16929999999999268
25,1,0.5,0.25,-35.0,-1,1.0,0.2534000000000134
26,1,0.5,0.125,35.0,1,1.0,0.3173999999999779
27,1,0.5,0.125,35.0,1,1.0,1.4382999999999981
28,1,0.5,1.0,35.0,1,1.0,0.30059999999998865
29,1,0.5,0.125,-35.0,-1,1.0,0.4370999999999867
30,1,0.5,1.0,-35.0,-1,1.0,0.22059999999999036
31,1,0.5,1.0,-35.0,-1,1.0,0.2477999999999838
32,1,0.5,0.25,-35.0,-1,1.0,0.2814999999999941
33,1,0.5,0.0625,35.0,1,1.0,2.197199999999995
34,1,0.5,0.25,35.0,1,1.0,0.2862999999999829
35,1,0.5,0.25,-35.0,-1,1.0,0.10490000000000066
36,1,0.5,0.25,35.0,1,1.0,0.24529999999998608
37,1,0.5,0.125,35.0,1,1.0,0.47469999999999857
38,1,0.5,0.0,-35.0,-1,1.0,8.052700000000016
39,1,0.5,0.125,-35.0,-1,1.0,0.2587000000000046
40,1,0.5,0.0,-35.0,1,0.0,1.8537999999999784
41,1,0.5,1.0,35.0,1,1.0,0.18379999999999086
42,1,0.5,0.25,35.0,1,1.0,0.2873000000000161
43,1,0.5,0.0625,35.0,1,1.0,0.8001999999999896
44,1,0.5,0.0,35.0,1,1.0,0.4094000000000051
45,1,0.5,0.0625,35.0,1,1.0,0.2774000000000001
46,1,0.5,1.0,35.0,1,1.0,0.7629000000000019
47,1,0.5,1.0,35.0,1,1.0,0.20369999999999777
48,1,0.5,0.125,35.0,1,1.0,0.7657999999999845
49,1,0.5,1.0,35.0,1,1.0,0.21940000000000737
50,1,0.5,0.125,-35.0,-1,1.0,0.5098000000000127
51,1,0.5,1.0,-35.0,-1,1.0,0.2927999999999997
52,1,0.5,0.0625,35.0,1,1.0,1.1347999999999843
53,1,0.5,0.125,35.0,1,1.0,0.2528999999999826
54,1,0.5,0.125,35.0,1,1.0,0.33099999999998886
55,1,0.5,1.0,-35.0,-1,1.0,0.22979999999998313
56,1,0.5,0.0625,35.0,1,1.0,0.7372000000000014
57,1,0.5,0.0,-35.0,1,0.0,0.29699999999999704
58,1,0.5,0.25,35.0,1,1.0,0.23089999999999122
59,1,0.5,0.25,35.0,1,1.0,0.29589999999998895
60,1,0.5,1.0,-35.0,-1,1.0,0.23980000000000246
61,1,0.5,1.0,35.0,1,1.0,0.19680099999999356
62,1,0.5,0.0,35.0,-1,0.0,0.36310100000000034
63,1,0.5,0.25,-35.0,1,0.0,0.41970100000000343
64,1,0.5,1.0,35.0,1,1.0,0.16050099999998224
65,1,0.5,0.0625,-35.0,-1,1.0,0.2723009999999988
66,1,0.5,1.0,-35.0,-1,1.0,0.23130100000000198
67,1,0.5,0.0625,35.0,1,1.0,0.4774009999999862
68,1,0.5,0.0625,-35.0,1,0.0,3.1394009999999923
69,1,0.5,0.25,-35.0,-1,1.0,0.23290099999996983
70,1,0.5,0.0,-35.0,1,0.0,0.32400099999998133
71,1,0.5,1.0,35.0,1,1.0,0.15470099999998865
72,1,0.5,1.0,35.0,1,1.0,0.17920100000000616
73,1,0.5,0.0,35.0,1,1.0,0.6939009999999826
74,1,0.5,1.0,35.0,1,1.0,0.1660009999999943
75,1,0.5,0.125,-35.0,-1,1.0,0.31360100000000557
76,1,0.5,0.0625,-35.0,1,0.0,2.280101000000002
77,1,0.5,0.0625,35.0,-1,0.0,0.5951010000000565
78,1,0.5,0.0625,-35.0,-1,1.0,0.6401010000000156
79,1,0.5,0.25,-35.0,-1,1.0,0.23880100000002358
80,1,0.5,0.0,-35.0,1,0.0,0.7984009999999557
81,1,0.5,0.25,35.0,1,1.0,0.23810100000002876
82,1,0.5,1.0,-35.0,-1,1.0,0.18660100000005286
83,1,0.5,0.0625,-35.0,-1,1.0,0.20570100000003322
84,1,0.5,0.0,35.0,-1,0.0,0.3733010000000263
85,1,0.5,0.0625,-35.0,-1,1.0,1.700400000000002
86,1,0.5,0.0625,-35.0,1,0.0,11.527500999999972
87,1,0.5,0.125,35.0,1,1.0,0.2032010000000355
88,1,0.5,0.125,35.0,1,1.0,0.5803010000000199
89,1,0.5,0.125,-35.0,1,0.0,0.5237010000000168
90,1,0.5,0.125,-35.0,-1,1.0,0.26880100000005314
91,1,0.8,0.25,-35.0,-1,1.0,0.2295010000000275
92,1,0.8,0.125,-35.0,-1,1.0,0.21749999999997272
93,1,0.8,0.0,35.0,-1,0.0,0.7684010000000399
94,1,0.8,0.0,35.0,1,1.0,0.5273010000000795
95,1,0.8,0.125,-35.0,-1,1.0,0.2425010000000043
96,1,0.8,0.125,-35.0,-1,1.0,1.3620009999999638
97,1,0.8,0.25,-35.0,-1,1.0,0.3593010000000163
98,1,0.8,0.25,-35.0,-1,1.0,0.2629009999999994
99,1,0.8,1.0,-35.0,-1,1.0,0.21290099999998802
100,1,0.8,0.0,-35.0,-1,1.0,0.6253010000000359
101,1,0.8,1.0,-35.0,-1,1.0,0.25550100000003795
102,1,0.8,1.0,-35.0,-1,1.0,0.2343010000000163
103,1,0.8,0.0625,-35.0,-1,1.0,0.26630099999999857
104,1,0.8,0.0,-35.0,1,0.0,8.54150100000004
105,1,0.8,0.25,-35.0,-1,1.0,0.5336010000000329
106,1,0.8,1.0,-35.0,-1,1.0,0.26290100000005623
107,1,0.8,0.0,-35.0,-1,1.0,0.9841010000000097
108,1,0.8,0.25,-35.0,-1,1.0,0.6214010000000485
109,1,0.8,0.25,-35.0,-1,1.0,0.2814010000000735
110,1,0.8,0.0625,-35.0,-1,1.0,0.31100100000003295
111,1,0.8,0.125,-35.0,-1,1.0,0.5446010000000001
112,1,0.8,1.0,-35.0,-1,1.0,0.20060100000006287
113,1,0.8,0.0625,35.0,1,1.0,0.5064010000000394
114,1,0.8,1.0,-35.0,1,0.0,0.6184010000000058
115,1,0.8,0.0,-35.0,1,0.0,0.4576009999999542
116,1,0.8,0.0,-35.0,1,0.0,0.21260100000000648
117,1,0.8,0.0,-35.0,-1,1.0,0.33200100000004795
118,1,0.8,0.25,-35.0,-1,1.0,0.2031010000000606
119,1,0.8,0.0625,35.0,1,1.0,0.18340100000000348
120,1,0.8,0.0,-35.0,1,0.0,3.160400999999979
121,1,0.8,0.0625,-35.0,-1,1.0,0.2997010000000273
122,1,0.8,0.0,-35.0,-1,1.0,0.5585010000000352
123,1,0.8,0.125,-35.0,1,0.0,0.08190099999995937
124,1,0.8,0.0625,-35.0,-1,1.0,0.5468010000000163
125,1,0.8,0.25,35.0,1,1.0,0.16130100000003722
126,1,0.8,1.0,-35.0,-1,1.0,0.2202010000000314
127,1,0.8,0.125,35.0,1,1.0,0.21270099999998138
128,1,0.8,0.125,35.0,1,1.0,0.19440100000008442
129,1,0.8,0.125,-35.0,-1,1.0,0.48980099999999993
130,1,0.8,0.0625,-35.0,1,0.0,0.24880100000001448
131,1,0.8,0.125,-35.0,-1,1.0,0.24860100000000784
132,1,0.8,1.0,-35.0,-1,1.0,0.19840100000004668
133,1,0.8,1.0,-35.0,-1,1.0,0.21870100000006687
134,1,0.8,0.0625,-35.0,-1,1.0,1.8976010000000088
135,1,0.8,0.125,-35.0,-1,1.0,0.47880099999997583
136,1,0.8,1.0,-35.0,-1,1.0,0.23760100000004059
137,1,0.8,1.0,-35.0,-1,1.0,0.22060099999998783
138,1,0.8,0.0625,-35.0,-1,1.0,0.22760100000004968
139,1,0.8,1.0,-35.0,-1,1.0,0.2472010000000182
140,1,0.8,1.0,35.0,1,1.0,0.18250100000000202
141,1,0.8,1.0,-35.0,-1,1.0,0.20760100000006787
142,1,0.8,0.25,35.0,1,1.0,0.1847010000000182
143,1,0.8,1.0,-35.0,-1,1.0,0.24630099999990307
144,1,0.8,1.0,-35.0,-1,1.0,0.3381010000000515
145,1,0.8,0.125,-35.0,-1,1.0,0.2538010000000668
146,1,0.8,0.25,-35.0,-1,1.0,0.23370099999999638
147,1,0.8,0.125,-35.0,-1,1.0,0.19450100000005932
148,1,0.8,0.0,-35.0,-1,1.0,0.2999010000000908
149,1,0.8,0.0625,-35.0,-1,1.0,0.2718010000000959
150,1,0.8,0.0625,-35.0,-1,1.0,0.26070099999992635
151,1,0.8,0.25,-35.0,-1,1.0,0.2478009999999813
152,1,0.8,0.0,-35.0,-1,1.0,0.28680099999996855
153,1,0.8,0.125,35.0,1,1.0,0.2874010000000453
154,1,0.8,0.125,-35.0,-1,1.0,0.3424009999999953
155,1,0.8,0.0625,35.0,1,1.0,0.284001000000103
156,1,0.8,1.0,-35.0,-1,1.0,0.23610100000007606
157,1,0.8,0.0,-35.0,1,0.0,1.988501000000042
158,1,0.8,0.25,-35.0,-1,1.0,0.19730100000003858
159,1,0.8,0.0625,-35.0,-1,1.0,0.207100999999966
160,1,0.8,1.0,-35.0,-1,1.0,0.2250010000000202
161,1,0.8,1.0,-35.0,-1,1.0,0.16920100000004368
162,1,0.8,0.25,-35.0,-1,1.0,0.2878010000000586
163,1,0.8,0.25,-35.0,-1,1.0,0.1910010000000284
164,1,0.8,1.0,-35.0,-1,1.0,0.13790100000005623
165,1,0.8,0.125,-35.0,-1,1.0,0.6864010000000462
166,1,0.8,0.25,-35.0,-1,1.0,0.22290099999997892
167,1,0.8,0.0625,-35.0,-1,1.0,0.24860100000000784
168,1,0.8,0.0625,35.0,1,1.0,0.3159010000000535
169,1,0.8,0.25,-35.0,-1,1.0,0.24430099999995036
170,1,0.8,0.25,-35.0,-1,1.0,0.2578010000000859
171,1,0.8,0.25,-35.0,-1,1.0,0.23110099999996692
172,1,0.8,0.25,-35.0,-1,1.0,0.2670010000000502
173,1,0.8,0.0625,35.0,1,1.0,0.32300100000009024
174,1,0.8,0.0625,-35.0,1,0.0,0.3705009999999902
175,1,0.8,0.125,-35.0,-1,1.0,0.2356009999999742
176,1,0.8,0.25,-35.0,-1,1.0,0.20260100000007242
177,1,0.8,1.0,35.0,1,1.0,0.17540100000007897
178,1,0.8,1.0,-35.0,-1,1.0,0.203000999999972
179,1,0.8,0.0625,-35.0,1,0.0,0.400400999999988
180,1,0.8,0.125,-35.0,-1,1.0,0.3710009999999784
181,1,0.2,0.125,35.0,1,1.0,0.2111010000000988
182,1,0.2,0.25,35.0,1,1.0,0.2172010000000455
183,1,0.2,1.0,35.0,1,1.0,0.2031009999999469
184,1,0.2,0.125,35.0,1,1.0,0.17980099999999766
185,1,0.2,0.125,35.0,1,1.0,0.19450100000005932
186,1,0.2,0.25,35.0,1,1.0,0.18350100000009206
187,1,0.2,0.0625,35.0,1,1.0,0.2456009999999651
188,1,0.2,0.125,-35.0,1,0.0,0.2232010000000173
189,1,0.2,1.0,35.0,1,1.0,0.17830100000003313
190,1,0.2,0.0625,35.0,1,1.0,0.30310100000008333
191,1,0.2,1.0,35.0,1,1.0,0.19470100000000912
192,1,0.2,1.0,35.0,1,1.0,0.15570100000002185
193,1,0.2,0.125,35.0,1,1.0,0.15500100000008388
194,1,0.2,0.0625,35.0,1,1.0,0.23050100000011753
195,1,0.2,0.0625,35.0,1,1.0,0.15000099999997474
196,1,0.2,1.0,35.0,1,1.0,0.15610099999992144
197,1,0.2,0.0625,35.0,1,1.0,0.23640100000000075
198,1,0.2,1.0,35.0,1,1.0,0.16580099999998765
199,1,0.2,0.0625,35.0,1,1.0,0.19040100000006532
200,1,0.2,0.125,35.0,1,1.0,0.2133010000000013
201,1,0.2,1.0,35.0,1,1.0,0.18180100000006405
202,1,0.2,1.0,35.0,1,1.0,0.17770100000007005
203,1,0.2,0.0,-35.0,1,0.0,0.2432010000001128
204,1,0.2,0.0625,35.0,1,1.0,0.19020100000000184
205,1,0.2,0.0625,-35.0,-1,1.0,0.4897009999999682
206,1,0.2,0.25,35.0,1,1.0,0.21440100000006623
207,1,0.2,0.125,-35.0,-1,1.0,0.22380099999998038
208,1,0.2,0.0,35.0,1,1.0,0.20390099999997346
209,1,0.2,0.25,35.0,1,1.0,0.22230100000012953
210,1,0.2,0.125,35.0,1,1.0,0.2253009999999449
211,1,0.2,0.125,35.0,1,1.0,0.21170099999994818
212,1,0.2,0.0625,35.0,1,1.0,0.40540099999998347
213,1,0.2,1.0,35.0,1,1.0,0.19150100000001657
214,1,0.2,1.0,35.0,1,1.0,0.1687010000000555
215,1,0.2,0.125,35.0,1,1.0,0.19330100000001949
216,1,0.2,0.25,35.0,1,1.0,0.19400099999995746
217,1,0.2,0.125,35.0,1,1.0,0.26830100000006496
218,1,0.2,0.25,35.0,1,1.0,0.20150100000000748
219,1,0.2,0.25,-35.0,-1,1.0,0.19450100000005932
220,1,0.2,0.0,35.0,1,1.0,0.19670099999996182
221,1,0.2,1.0,35.0,1,1.0,0.12740100000007715
222,1,0.2,0.0,35.0,-1,0.0,0.2452010000000655
223,1,0.2,0.0625,35.0,1,1.0,0.23560100000008788
224,1,0.2,0.25,35.0,1,1.0,0.21600100000000566
225,1,0.2,0.25,35.0,1,1.0,0.2005010000001448
226,1,0.2,0.125,35.0,1,1.0,0.19220100000006823
227,1,0.2,1.0,35.0,1,1.0,0.198900999999978
228,1,0.2,0.25,35.0,1,1.0,0.21800100000007205
229,1,0.2,0.125,35.0,1,1.0,0.19650100000001203
230,1,0.2,0.125,-35.0,-1,1.0,0.517900999999938
231,1,0.2,0.125,35.0,1,1.0,0.2108010000000604
232,1,0.2,0.0625,35.0,-1,0.0,0.29060099999992417
233,1,0.2,0.125,-35.0,-1,1.0,0.29890100000000075
234,1,0.2,1.0,-35.0,-1,1.0,0.258000999999922
235,1,0.2,0.25,35.0,1,1.0,0.20670099999995273
236,1,0.2,1.0,-35.0,-1,1.0,0.2312010000001692
237,1,0.2,0.0,35.0,1,1.0,0.36370099999999184
238,1,0.2,0.125,35.0,1,1.0,0.21160099999997328
239,1,0.2,0.125,35.0,1,1.0,0.21060099999999693
240,1,0.2,0.25,35.0,1,1.0,0.17850099999998292
241,1,0.2,0.0,-35.0,1,0.0,0.21230100000002494
242,1,0.2,0.0,35.0,1,1.0,0.180800999999974
243,1,0.2,0.125,35.0,1,1.0,0.198900999999978
244,1,0.2,0.0,35.0,1,1.0,0.20400099999994836
245,1,0.2,0.25,35.0,1,1.0,0.1747010000000273
246,1,0.2,0.125,35.0,1,1.0,0.2006010000001197
247,1,0.2,0.125,35.0,1,1.0,0.1689009999998916
248,1,0.2,0.0,35.0,1,1.0,0.19970100000000457
249,1,0.2,0.125,35.0,1,1.0,0.13190100000008442
250,1,0.2,0.25,35.0,1,1.0,0.1770010000000184
251,1,0.2,0.0625,35.0,1,1.0,0.2110010000000102
252,1,0.2,0.125,35.0,1,1.0,0.18780100000003586
253,1,0.2,0.25,35.0,1,1.0,0.23070099999995364
254,1,0.2,0.25,35.0,1,1.0,0.22370100000000548
255,1,0.2,0.125,35.0,1,1.0,0.20400100000006205
256,1,0.2,0.125,35.0,1,1.0,0.15720099999998638
257,1,0.2,0.25,35.0,1,1.0,0.006800999999995838
258,1,0.2,0.25,35.0,1,1.0,0.1427009999999882
259,1,0.2,0.0625,35.0,1,1.0,0.19410100000004604
260,1,0.2,0.125,-35.0,1,0.0,0.5938009999999849
261,1,0.2,0.125,-35.0,-1,1.0,0.23320099999989452
262,1,0.2,0.0625,-35.0,-1,1.0,0.23880100000008042
263,1,0.2,1.0,-35.0,-1,1.0,0.34150099999999384
264,1,0.2,0.0625,35.0,1,1.0,0.3925010000000384
265,1,0.2,0.0625,35.0,1,1.0,0.29490099999998165
266,1,0.2,0.0,35.0,1,1.0,0.24390100000005077
267,1,0.8,0.125,-35.0,-1,1.0,0.556201000000101
268,1,0.8,0.125,-35.0,-1,1.0,0.34690100000000257
269,1,0.8,0.0625,-35.0,-1,1.0,0.27250099999992017
270,1,0.8,1.0,35.0,1,1.0,0.18230100000005223
271,1,0.8,1.0,-35.0,-1,1.0,0.2613010000000031
272,1,0.8,1.0,-35.0,-1,1.0,0.2411010000000715
273,1,0.8,0.25,35.0,1,1.0,0.1705010000000584
274,1,0.8,1.0,-35.0,-1,1.0,0.35720100000003185
275,1,0.8,0.25,-35.0,-1,1.0,0.22390100000006896
276,1,0.8,0.125,-35.0,-1,1.0,0.360800999999924
277,1,0.8,0.25,35.0,1,1.0,0.1809009999999489
278,1,0.8,0.25,-35.0,1,0.0,0.1810010000000375
279,1,0.8,0.0625,-35.0,-1,1.0,0.2575010000000475
280,1,0.8,1.0,-35.0,-1,1.0,0.2076009999998405
281,1,0.8,0.0625,-35.0,-1,1.0,0.40450099999975464
282,1,0.8,0.125,-35.0,-1,1.0,0.274400999999898
283,1,0.8,0.0,-35.0,1,0.0,0.2680009999999129
284,1,0.8,1.0,-35.0,-1,1.0,0.23490099999980885
285,1,0.8,0.125,35.0,1,1.0,0.21800099999995837
286,1,0.8,0.125,-35.0,-1,1.0,0.1250009999998838
287,1,0.8,0.25,35.0,1,1.0,0.20490099999983613
288,1,0.8,0.25,-35.0,-1,1.0,0.33500099999992017
289,1,0.8,1.0,-35.0,-1,1.0,0.27500099999997474
290,1,0.8,0.0625,-35.0,1,0.0,0.2817009999998845
291,1,0.8,0.125,-35.0,-1,1.0,0.26520099999993363
292,1,0.8,0.0625,-35.0,1,0.0,0.1852010000000064
293,1,0.8,1.0,-35.0,-1,1.0,0.22520099999974263
294,1,0.8,0.0625,35.0,1,1.0,0.2253009999999449
295,1,0.8,0.25,-35.0,-1,1.0,0.25870099999997365
296,1,0.8,1.0,-35.0,-1,1.0,0.16600100000005114
297,1,0.8,0.25,-35.0,1,0.0,0.09230099999990671
298,1,0.8,0.25,-35.0,-1,1.0,0.27240099999994527
299,1,0.8,0.25,-35.0,-1,1.0,0.40240099999982704
300,1,0.8,0.0,-35.0,-1,1.0,0.47260099999971317
301,1,0.8,0.125,-35.0,-1,1.0,0.3232010000001537
302,1,0.8,0.0625,35.0,1,1.0,0.33610099999964405
303,1,0.8,0.25,-35.0,-1,1.0,0.25270099999988815
304,1,0.8,0.0,-35.0,1,0.0,0.2595010000000002
305,1,0.8,0.0,35.0,1,1.0,0.14300100000014027
306,1,0.8,1.0,-35.0,-1,1.0,0.3363010000000486
307,1,0.2,0.125,-35.0,-1,1.0,0.14960099999984777
308,1,0.2,0.25,35.0,1,1.0,0.18040099999984704
309,1,0.2,0.0,35.0,1,1.0,0.21990099999993618
310,1,0.2,0.125,35.0,1,1.0,0.213600999999926
311,1,0.2,0.0625,35.0,1,1.0,0.2533009999999649
312,1,0.2,0.0,35.0,1,1.0,0.16030099999989034
313,1,0.2,0.0625,-35.0,1,0.0,0.16030099999989034
314,1,0.2,1.0,35.0,1,1.0,0.16690099999982522
315,1,0.2,0.0625,35.0,-1,0.0,0.2737009999998463
316,1,0.2,0.0625,35.0,1,1.0,0.3836009999997714
317,1,0.2,0.25,35.0,1,1.0,0.27040099999999256
318,1,0.2,0.125,35.0,1,1.0,0.19370100000014645
319,1,0.2,0.0625,35.0,1,1.0,0.3204009999999471
320,1,0.2,0.25,35.0,1,1.0,0.06720099999984086
321,1,0.2,0.125,35.0,1,1.0,0.1707010000000082
322,1,0.2,0.25,35.0,1,1.0,0.19390099999986887
323,1,0.2,0.125,35.0,1,1.0,0.18400100000008024
324,1,0.2,0.0,-35.0,-1,1.0,0.28080100000011043
325,1,0.2,0.125,-35.0,-1,1.0,0.21450099999992744
326,1,0.2,0.0625,-35.0,-1,1.0,0.27100099999984195
327,1,0.8,0.25,-35.0,-1,1.0,0.257600999999795
328,1,0.8,1.0,-35.0,-1,1.0,0.26690099999996164
329,1,0.8,0.0,-35.0,1,0.0,1.1502009999999245
330,1,0.8,0.0,-35.0,-1,1.0,0.32700099999988197
331,1,0.8,1.0,-35.0,-1,1.0,0.25700099999994563
332,1,0.8,0.25,-35.0,-1,1.0,0.27710099999990234
333,1,0.8,1.0,35.0,1,1.0,0.1871009999999842
334,1,0.8,0.125,35.0,1,1.0,0.2506009999997332
335,1,0.8,1.0,-35.0,-1,1.0,0.24730099999987942
336,1,0.8,0.0625,-35.0,-1,1.0,0.7773009999998521
337,1,0.8,0.0625,-35.0,-1,1.0,0.3741010000001097
338,1,0.8,0.125,-35.0,-1,1.0,0.3341009999999187
339,1,0.8,0.25,-35.0,-1,1.0,0.28080099999988306
340,1,0.8,0.125,-35.0,-1,1.0,0.30100099999981467
341,1,0.8,0.0625,-35.0,-1,1.0,0.5077009999999973
342,1,0.8,0.125,-35.0,-1,1.0,0.4377009999998336
343,1,0.8,1.0,-35.0,-1,1.0,0.2211010000000897
344,1,0.8,0.25,35.0,1,1.0,0.21460099999967497
345,1,0.8,0.25,-35.0,-1,1.0,0.21790099999998347
346,1,0.8,1.0,-35.0,-1,1.0,0.20470099999988633
347,1,0.8,0.0,-35.0,-1,1.0,0.2947009999998045
348,1,0.8,1.0,-35.0,-1,1.0,0.2915009999999256
349,1,0.8,0.0625,-35.0,-1,1.0,0.5482010000000628
350,1,0.2,0.25,35.0,1,1.0,0.16170099999999366
351,1,0.2,0.0,35.0,1,1.0,0.2717009999998936
352,1,0.2,0.125,35.0,1,1.0,0.20500099999981103
353,1,0.2,0.0625,35.0,1,1.0,0.32510099999990416
354,1,0.2,1.0,35.0,1,1.0,0.17850099999986924
355,1,0.2,0.125,35.0,1,1.0,0.22200100000009115
356,1,0.2,0.125,35.0,1,1.0,0.18210099999987506
357,1,0.2,0.25,35.0,1,1.0,0.20880099999976665
358,1,0.2,0.25,35.0,1,1.0,0.2055009999999129
359,1,0.2,0.25,35.0,1,1.0,0.17560099999991508
360,1,0.2,0.0625,35.0,1,1.0,0.49900099999990744
361,1,0.2,0.125,35.0,1,1.0,0.2458009999998012
362,1,0.2,0.0625,35.0,1,1.0,0.255900999999767
363,1,0.2,0.25,35.0,1,1.0,0.24250099999994745
364,1,0.2,1.0,35.0,1,1.0,0.19260099999996783
365,1,0.2,0.0625,35.0,1,1.0,0.8859009999998761
366,1,0.2,0.125,35.0,1,1.0,0.07600099999990562
367,1,0.2,0.0,35.0,1,1.0,0.19600100000002385
368,1,0.2,0.125,35.0,1,1.0,0.2195009999998092
369,1,0.2,0.0625,35.0,1,1.0,0.27290100000004713
370,1,0.2,1.0,-35.0,-1,1.0,0.21630099999993035
371,1,0.2,0.25,-35.0,-1,1.0,0.2763009999998758
372,1,0.2,0.0625,35.0,1,1.0,0.22640099999989616
373,1,0.2,0.0625,35.0,1,1.0,0.23990099999991799
374,1,0.2,0.25,35.0,1,1.0,0.18000099999994745
375,1,0.2,0.25,35.0,1,1.0,0.21000099999992017
376,1,0.2,1.0,35.0,1,1.0,0.1734009999997852
377,1,0.2,0.125,35.0,1,1.0,0.22020099999986087
378,1,0.2,1.0,35.0,1,1.0,0.2702009999998154
379,1,0.2,0.0,35.0,1,1.0,0.2137009999999009
380,1,0.2,0.125,35.0,1,1.0,0.19370099999991908
381,1,0.2,1.0,35.0,1,1.0,0.1771009999999933
382,1,0.2,0.25,-35.0,-1,1.0,0.28720099999986815
383,1,0.8,1.0,35.0,1,1.0,0.18060099999979684
384,1,0.8,1.0,35.0,1,1.0,0.187300999999934
385,1,0.8,0.25,-35.0,-1,1.0,0.2640009999997801
386,1,0.8,1.0,-35.0,-1,1.0,0.20070099999998092
387,1,0.8,1.0,-35.0,-1,1.0,0.21420100000000275
388,1,0.8,0.25,-35.0,-1,1.0,0.2142999999998665
389,1,0.8,1.0,-35.0,-1,1.0,0.2311010000000806
390,1,0.8,0.25,-35.0,-1,1.0,0.15780099999983577
391,1,0.8,0.125,-35.0,1,0.0,0.1712009999998827
392,1,0.8,0.125,-35.0,-1,1.0,0.6180010000000493
393,1,0.8,0.125,35.0,1,1.0,0.31130099999995764
394,1,0.8,0.125,-35.0,-1,1.0,0.2914009999999507
395,1,0.8,0.25,-35.0,-1,1.0,0.3282009999998081
396,1,0.8,1.0,-35.0,-1,1.0,0.241600999999946
397,1,0.8,0.125,-35.0,-1,1.0,0.2551009999999678
398,1,0.8,1.0,-35.0,-1,1.0,0.2584009999998216
399,1,0.8,0.25,-35.0,-1,1.0,0.2251009999999951
400,1,0.8,0.0625,35.0,1,1.0,0.14520100000004277
401,1,0.8,0.0,-35.0,1,0.0,0.28530099999989034
402,1,0.8,0.25,-35.0,-1,1.0,0.33200099999976374
403,1,0.8,1.0,35.0,1,1.0,0.16540099999997437
404,1,0.8,0.25,-35.0,-1,1.0,0.2522009999997863
405,1,0.8,0.25,35.0,1,1.0,0.16560099999992417
406,1,0.8,0.125,-35.0,-1,1.0,0.31559999999990396
407,1,0.8,0.0625,-35.0,-1,1.0,0.292500999999902
408,1,0.8,0.25,-35.0,-1,1.0,0.2859009999999671
409,1,0.8,1.0,-35.0,-1,1.0,0.23610099999996237
410,1,0.8,0.25,-35.0,-1,1.0,0.37950099999989106
411,1,0.8,0.25,-35.0,-1,1.0,0.256300999999894
412,1,0.8,0.25,35.0,1,1.0,0.22630099999992126
413,1,0.8,0.0625,-35.0,-1,1.0,0.3130009999997583
414,1,0.8,0.0625,-35.0,-1,1.0,0.29310099999997874
415,1,0.8,0.0625,35.0,1,1.0,0.21310099999982413
416,1,0.8,0.0,-35.0,1,0.0,0.30320099999994454
417,1,0.8,0.25,-35.0,-1,1.0,0.2900009999998474
418,1,0.8,0.125,-35.0,-1,1.0,0.2534009999999398
419,1,0.8,0.0625,-35.0,1,0.0,0.22680100000002312
420,1,0.8,0.25,-35.0,-1,1.0,0.22690099999999802
421,1,0.8,0.25,-35.0,-1,1.0,0.2436009999998987
422,1,0.2,0.125,35.0,1,1.0,0.23700099999996382
423,1,0.2,0.25,35.0,1,1.0,0.1871009999999842
424,1,0.2,1.0,35.0,1,1.0,0.21050099999979466
425,1,0.2,0.0625,35.0,1,1.0,0.20060099999977865
426,1,0.2,0.25,35.0,1,1.0,0.19070099999999002
427,1,0.2,0.125,35.0,1,1.0,1.1540009999998802
428,1,0.2,0.125,35.0,1,1.0,1.0975009999999656
429,1,0.2,1.0,35.0,1,1.0,0.23080099999992854
430,1,0.2,0.0,35.0,-1,0.0,5.410900999999967
431,1,0.2,0.0,-35.0,1,0.0,0.24450099999990016
432,1,0.2,0.0,35.0,-1,0.0,0.4412009999998645
433,1,0.2,0.0625,35.0,-1,0.0,0.3145009999998365
434,1,0.2,0.0,35.0,1,1.0,13.431300999999849
435,1,0.2,0.0,35.0,-1,0.0,0.6516010000000279
436,1,0.2,1.0,35.0,1,1.0,0.21830099999988306
437,1,0.2,1.0,-35.0,-1,1.0,0.2151010000000042
438,1,0.2,0.0625,-35.0,-1,1.0,0.5586009999997259
439,1,0.2,1.0,35.0,1,1.0,0.19190099999991617
440,1,0.2,1.0,35.0,1,1.0,0.16520100000002458
441,1,0.2,0.0625,35.0,1,1.0,0.1454009999997652
442,1,0.2,1.0,35.0,1,1.0,0.17200099999990925
443,1,0.2,0.0625,-35.0,1,0.0,0.14540099999999256
444,1,0.2,0.0,35.0,1,1.0,0.17220100000008642
445,1,0.2,1.0,35.0,1,1.0,0.1789009999999962
446,1,0.2,0.25,35.0,1,1.0,0.19230100000004313
447,1,0.2,1.0,35.0,1,1.0,0.19570100000009916
448,1,0.2,0.125,35.0,1,1.0,0.23250099999995655
449,1,0.2,0.25,-35.0,-1,1.0,0.2724009999997179
450,1,0.2,1.0,35.0,1,1.0,0.19590100000004895
451,1,0.2,0.0625,35.0,1,1.0,0.19600100000002385
452,1,0.2,1.0,35.0,1,1.0,0.19610099999999875
453,1,0.2,0.0,-35.0,-1,1.0,0.38610099999982594
454,1,0.2,0.25,35.0,1,1.0,0.21950100000003658
455,1,0.2,0.125,35.0,-1,0.0,0.3829009999999471
456,1,0.2,0.0625,35.0,-1,0.0,0.47630099999992126
457,1,0.2,0.125,35.0,1,1.0,0.27300099999979466
458,1,0.2,0.0625,-35.0,-1,1.0,0.3498010000000704
459,1,0.2,1.0,35.0,1,1.0,0.036500999999816486
460,1,0.2,0.125,35.0,1,1.0,0.24410100000000057
461,1,0.2,0.125,35.0,1,1.0,0.17780100000004495
462,1,0.2,0.0625,35.0,1,1.0,0.20780100000001767
463,1,0.2,0.125,35.0,1,1.0,0.4010009999999511
464,1,0.2,0.125,-35.0,-1,1.0,0.34140099999990525
465,1,0.2,0.125,35.0,1,1.0,0.30710100000010243
466,1,0.2,0.125,-35.0,1,0.0,0.19050100000004022
467,1,0.2,0.0625,-35.0,-1,1.0,0.33720099999982267
468,1,0.2,1.0,-35.0,-1,1.0,0.21060099999999693
469,1,0.2,0.0625,35.0,1,1.0,0.28060099999993326
470,1,0.2,0.25,35.0,1,1.0,0.24740099999985432
471,1,0.2,0.0,35.0,-1,0.0,0.48410100000000966
472,1,0.2,0.125,35.0,1,1.0,0.23430099999995946
473,1,0.2,0.0,35.0,1,1.0,10.714300999999978
474,1,0.2,0.0,35.0,1,1.0,0.24790099999995618
475,1,0.2,0.25,35.0,1,1.0,0.2013009999998303
476,1,0.2,0.125,-35.0,-1,1.0,0.26140099999975064
477,1,0.2,0.25,35.0,1,1.0,0.20810099999994236
478,1,0.2,0.0625,35.0,1,1.0,0.584800999999743
479,1,0.2,0.0625,35.0,-1,0.0,0.42810099999996964
480,1,0.2,0.25,35.0,1,1.0,0.491600999999946
481,1,0.2,0.25,35.0,1,1.0,0.17160100000000966
482,1,0.2,1.0,35.0,1,1.0,0.1717009999997572
483,1,0.2,0.0625,35.0,1,1.0,0.10510099999987688
484,1,0.2,0.125,35.0,1,1.0,0.19520099999976992
485,1,0.2,0.0625,-35.0,1,0.0,0.1386010000001079
486,1,0.2,0.0625,35.0,1,1.0,0.17860099999984413
487,1,0.2,0.0625,-35.0,-1,1.0,0.3421010000001843
488,1,0.2,0.0625,35.0,1,1.0,0.2355009999998856
489,1,0.2,1.0,35.0,1,1.0,0.1489010000000235
490,1,0.2,0.125,35.0,1,1.0,0.19230099999981576
491,1,0.2,1.0,-35.0,-1,1.0,0.292500999999902
492,1,0.2,0.25,-35.0,-1,1.0,0.2659009999999853
493,1,0.2,1.0,-35.0,-1,1.0,0.1326010000000224
494,1,0.2,0.25,35.0,1,1.0,0.20600100000001476
495,1,0.2,1.0,35.0,1,1.0,0.4193009999999049
496,1,0.2,0.0625,-35.0,-1,1.0,1.3094009999999798
497,1,0.2,1.0,35.0,1,1.0,0.2329010000000835
498,1,0.2,0.0625,-35.0,-1,1.0,0.24290100000007442
499,1,0.2,0.0625,35.0,1,1.0,0.4296009999998205
500,1,0.2,0.125,35.0,1,1.0,0.1830010000001039
501,1,0.2,1.0,-35.0,-1,1.0,0.24650100000008024
502,1,0.2,0.0625,35.0,-1,0.0,0.17980099999977028
503,1,0.2,1.0,35.0,1,1.0,0.21670100000005732
504,1,0.2,0.0,35.0,-1,0.0,0.31670099999996637
505,1,0.2,0.125,-35.0,-1,1.0,0.37340100000005805
506,1,0.2,0.25,35.0,1,1.0,0.21690100000000712
507,1,0.2,0.25,35.0,1,1.0,0.2536009999998896
508,1,0.8,1.0,-35.0,-1,1.0,0.36370099999999184
509,1,0.8,1.0,35.0,1,1.0,0.1870010000000093
510,1,0.8,0.25,-35.0,-1,1.0,0.24720099999990452
511,1,0.8,1.0,-35.0,-1,1.0,0.2239009999998416
512,1,0.8,0.0625,-35.0,-1,1.0,0.36380099999996673
513,1,0.8,1.0,35.0,1,1.0,0.18060099999979684
514,1,0.8,0.0625,-35.0,-1,1.0,0.5573009999998249
515,1,0.8,0.125,-35.0,-1,1.0,0.27740099999982704
516,1,0.8,0.125,-35.0,-1,1.0,0.2741009999997459
517,1,0.8,0.25,-35.0,-1,1.0,0.2442009999997481
518,1,0.8,0.0,35.0,1,1.0,6.077700999999934
519,1,0.8,0.25,35.0,1,1.0,0.21780100000000857
520,1,0.8,0.0625,-35.0,-1,1.0,0.30790099999967424
521,1,0.8,1.0,-35.0,1,0.0,0.08140099999991435
522,1,0.8,0.25,-35.0,-1,1.0,0.2481009999996786
523,1,0.8,1.0,-35.0,-1,1.0,0.23480099999983395
524,1,0.8,0.25,-35.0,-1,1.0,0.22820099999989907
525,1,0.8,0.0,-35.0,1,0.0,1.814900999999736
526,1,0.8,0.125,-35.0,1,0.0,19.278301000000056
527,1,0.8,0.25,-35.0,1,0.0,2.97540099999992
528,1,0.8,0.0625,-35.0,-1,1.0,0.29880100000013954
529,1,0.8,1.0,-35.0,-1,1.0,0.20560099999966042
530,1,0.8,0.0625,-35.0,-1,1.0,0.2657009999998081
531,1,0.8,0.0625,-35.0,-1,1.0,0.19910100000015518
532,1,0.8,0.125,-35.0,-1,1.0,0.4326009999999769
533,1,0.8,0.25,-35.0,-1,1.0,0.6726009999997586
534,1,0.8,0.125,-35.0,-1,1.0,0.24600099999997838
535,1,0.8,0.25,-35.0,-1,1.0,0.2627009999996517
536,1,0.2,0.0625,35.0,-1,0.0,0.2661009999997077
537,1,0.2,1.0,35.0,1,1.0,0.23630099999991216
538,1,0.2,1.0,35.0,1,1.0,0.179700999999568
539,1,0.2,0.0,35.0,1,1.0,0.49640099999987797
540,1,0.2,0.0625,35.0,1,1.0,0.19310099999984232
541,1,0.2,0.125,-35.0,-1,1.0,0.5498010000001159
542,1,0.2,0.25,-35.0,-1,1.0,0.21670099999982995
543,1,0.2,0.0625,35.0,-1,0.0,0.2767009999997754
544,1,0.2,1.0,35.0,1,1.0,0.18670099999962986
545,1,0.2,1.0,35.0,1,1.0,0.1768010000000686
546,1,0.2,0.25,35.0,1,1.0,0.18680099999983213
547,1,0.2,0.125,-35.0,-1,1.0,0.28690099999994345
548,1,0.2,1.0,35.0,1,1.0,0.1836009999997259
549,1,0.2,0.0625,-35.0,-1,1.0,0.3503009999999449
550,1,0.2,0.0,35.0,-1,0.0,0.4770010000002003
551,1,0.2,0.125,-35.0,-1,1.0,0.25710099999969316
552,1,0.2,0.0625,35.0,-1,0.0,0.3772009999997863
553,1,0.2,0.0,35.0,-1,0.0,0.3006009999999151
554,1,0.2,0.25,35.0,1,1.0,0.2040009999996073
555,1,0.2,0.0625,-35.0,-1,1.0,0.2807009999996808
556,1,0.2,0.25,35.0,1,1.0,0.21740100000033635
557,1,0.2,1.0,35.0,1,1.0,0.16080099999953745
558,1,0.2,0.0625,35.0,-1,0.0,0.29430099999945014
559,1,0.2,0.0625,35.0,1,1.0,0.021001000000069325
560,1,0.2,0.0625,35.0,1,1.0,0.19770099999959712
561,1,0.2,0.0625,-35.0,-1,1.0,0.3511009999997441
562,1,0.2,0.0625,35.0,1,1.0,0.2579009999999471
563,1,0.2,0.0625,35.0,1,1.0,0.2945009999998547
564,1,0.2,0.125,35.0,1,1.0,0.23450099999990925
565,1,0.2,0.0625,35.0,1,1.0,0.21460099999967497
566,1,0.2,0.25,35.0,1,1.0,1.0247009999998227
567,1,0.2,0.0625,35.0,1,1.0,1.1615010000000439
568,1,0.2,0.125,-35.0,-1,1.0,0.24820099999988088
569,1,0.2,0.125,35.0,1,1.0,0.24490100000002712
570,1,0.2,0.25,35.0,1,1.0,0.22180100000014136
571,1,0.2,1.0,-35.0,-1,1.0,0.21520099999952436
572,1,0.2,0.25,-35.0,-1,1.0,0.2852010000001428
573,1,0.8,0.25,-35.0,-1,1.0,0.23190100000010716
574,1,0.8,0.0,-35.0,1,0.0,0.24870099999998274
575,1,0.8,0.25,-35.0,-1,1.0,0.4354009999997288
576,1,0.8,1.0,-35.0,-1,1.0,0.21220100000027742
577,1,0.8,0.25,-35.0,-1,1.0,0.23220099999980448
578,1,0.8,1.0,-35.0,-1,1.0,0.23230100000000675
579,1,0.8,0.0625,-35.0,-1,1.0,0.25230099999998856
580,1,0.8,0.125,-35.0,-1,1.0,0.5057009999995898
581,1,0.8,1.0,-35.0,-1,1.0,0.19920000000001892
582,1,0.8,0.0,35.0,-1,0.0,0.462601000000177
583,1,0.8,0.0625,-35.0,-1,1.0,0.366001000000324
584,1,0.8,0.25,-35.0,-1,1.0,0.2193010000000868
585,1,0.8,1.0,-35.0,-1,1.0,0.22940099999959784
586,1,0.8,0.0625,-35.0,-1,1.0,0.36940099999992526
587,1,0.8,0.0625,-35.0,-1,1.0,0.3129009999997834
588,1,0.8,0.0625,-35.0,-1,1.0,0.28300099999978556
589,1,0.8,0.25,35.0,1,1.0,0.2097009999997681
590,1,0.8,1.0,-35.0,-1,1.0,0.2231010000000424
591,1,0.8,0.25,-35.0,-1,1.0,0.2732009999999718
592,1,0.8,0.25,-35.0,-1,1.0,0.20990100000017264
593,1,0.8,0.25,-35.0,-1,1.0,0.2666010000002643
594,1,0.8,0.0625,-35.0,-1,1.0,3.063300999999683
595,1,0.8,1.0,-35.0,-1,1.0,0.22010099999988597
596,1,0.8,1.0,-35.0,-1,1.0,0.3568009999999049
597,1,0.8,0.25,-35.0,-1,1.0,0.21350100000017846
598,1,0.8,0.0625,-35.0,1,0.0,0.26360099999965314
599,1,0.8,0.25,35.0,1,1.0,0.1970010000000002
600,1,0.8,0.25,-35.0,-1,1.0,0.2738009999998212
601,1,0.8,0.125,-35.0,-1,1.0,0.32720100000005914
602,1,0.8,0.125,-35.0,-1,1.0,0.2872010000000955
603,1,0.8,0.125,-35.0,-1,1.0,0.32730099999980666
604,1,0.8,1.0,35.0,1,1.0,0.20740100000011807
605,1,0.8,0.125,-35.0,-1,1.0,0.31750099999999293
606,1,0.8,0.25,-35.0,-1,1.0,0.2408009999994647
607,1,0.8,0.0,-35.0,1,0.0,4.904201000000285
608,1,0.8,1.0,35.0,1,1.0,0.2310010000001057
609,1,0.8,1.0,-35.0,-1,1.0,0.27110099999981685
610,1,0.8,0.0,-35.0,1,0.0,1.154500999999982
611,1,0.8,0.125,-35.0,1,0.0,0.0413010000002032
612,1,0.8,1.0,-35.0,-1,1.0,0.21470099999987724
613,1,0.8,0.25,-35.0,-1,1.0,0.26140099999975064
614,1,0.8,0.0625,-35.0,-1,1.0,0.26810100000011516
615,1,0.8,0.0,35.0,-1,0.0,0.3581010000002607
616,1,0.8,0.0,35.0,1,1.0,0.17490100000031816
617,1,0.8,0.25,-35.0,-1,1.0,0.2516009999999369
618,1,0.8,0.0,35.0,1,1.0,2.148301000000174
619,1,0.8,0.125,-35.0,-1,1.0,0.26510099999995873
620,1,0.8,0.0625,-35.0,-1,1.0,0.8152009999998882
621,1,0.8,0.25,-35.0,-1,1.0,0.425300999999763
622,1,0.8,0.0625,-35.0,1,0.0,0.2520009999998365
623,1,0.8,1.0,-35.0,-1,1.0,0.30880100000013044
624,1,0.8,0.0625,-35.0,-1,1.0,0.22880099999974846
625,1,0.8,0.25,-35.0,-1,1.0,0.9822009999998045
626,1,0.8,0.0625,-35.0,-1,1.0,0.27900099999988015
627,1,0.8,1.0,-35.0,-1,1.0,0.23910099999966405
628,1,0.8,1.0,-35.0,-1,1.0,0.22250099999973827
629,1,0.8,1.0,-35.0,-1,1.0,0.21920099999988452
630,1,0.8,0.0625,-35.0,-1,1.0,0.2892009999995935
631,1,0.8,0.0625,-35.0,-1,1.0,0.372700999999779
632,1,0.8,0.25,-35.0,-1,1.0,0.28270100000008824
633,1,0.8,1.0,-35.0,-1,1.0,0.2461009999997259
634,1,0.8,0.0625,-35.0,-1,1.0,0.34280100000023594
635,1,0.8,1.0,-35.0,-1,1.0,0.1996009999998023
636,1,0.8,1.0,-35.0,-1,1.0,0.0630009999995309
637,1,0.8,1.0,-35.0,-1,1.0,0.30310099999996964
638,1,0.8,0.125,-35.0,-1,1.0,0.26980100000037055
639,1,0.8,1.0,-35.0,-1,1.0,0.22660099999984595
640,1,0.8,1.0,-35.0,-1,1.0,0.24330100000042876
641,1,0.8,0.0,-35.0,-1,1.0,2.613401000000067
642,1,0.8,0.0625,-35.0,-1,1.0,0.47010099999988597
643,1,0.2,1.0,35.0,1,1.0,0.38010099999974045
1,2,0.5,1.0,-35.0,-1,1.0,2.8024999999999993
2,2,0.5,0.0625,-35.0,-1,1.0,2.9157999999999973
3,2,0.5,1.0,-35.0,-1,1.0,0.6305000000000014
4,2,0.5,0.125,-35.0,-1,1.0,1.9453999999999994
5,2,0.5,0.125,-35.0,-1,1.0,1.1428000000000011
6,2,0.5,0.0625,35.0,-1,0.0,2.093700000000002
7,2,0.5,0.0625,35.0,-1,0.0,2.403700000000004
8,2,0.5,0.125,35.0,1,1.0,0.42540000000000333
9,2,0.5,0.25,35.0,1,1.0,0.365000000000002
10,2,0.5,1.0,35.0,1,1.0,0.43439999999999657
11,2,0.5,1.0,35.0,1,1.0,0.39270000000000493
12,2,0.5,0.125,-35.0,-1,1.0,2.7271999999999963
13,2,0.5,0.125,35.0,-1,0.0,2.9125000000000085
14,2,0.5,1.0,35.0,1,1.0,0.2668000000000035
15,2,0.5,0.25,35.0,1,1.0,0.3266000000000062
16,2,0.5,0.25,35.0,1,1.0,0.34380000000000166
17,2,0.5,0.25,-35.0,-1,1.0,3.1096000000000004
18,2,0.5,0.125,-35.0,-1,1.0,2.5478999999999985
19,2,0.5,1.0,-35.0,-1,1.0,1.7696000000000112
20,2,0.5,0.25,-35.0,-1,1.0,0.030700000000010164
21,2,0.5,1.0,35.0,1,1.0,0.33429999999999893
22,2,0.5,0.0625,35.0,-1,0.0,7.129900000000006
23,2,0.5,1.0,-35.0,-1,1.0,4.238600000000005
24,2,0.5,0.125,-35.0,-1,1.0,3.7624000000000137
25,2,0.5,0.0,35.0,-1,0.0,3.0852999999999895
26,2,0.5,0.25,35.0,1,1.0,0.2061999999999955
27,2,0.5,0.25,35.0,1,1.0,0.24729999999999563
28,2,0.5,1.0,-35.0,-1,1.0,0.5274999999999892
29,2,0.5,0.125,-35.0,-1,1.0,4.6939000000000135
30,2,0.5,0.125,35.0,1,1.0,0.3657999999999788
31,2,0.5,0.0625,35.0,1,1.0,1.112400000000008
32,2,0.5,0.125,35.0,1,1.0,0.3394000000000119
33,2,0.5,0.125,35.0,1,1.0,0.6055000000000064
34,2,0.5,0.125,-35.0,1,0.0,0.44950000000000045
35,2,0.5,0.0,35.0,1,1.0,2.7608000000000175
36,2,0.5,0.125,35.0,1,1.0,0.36179999999998813
37,2,0.5,1.0,35.0,1,1.0,0.3538000000000068
38,2,0.5,0.0625,35.0,1,1.0,0.45170000000001664
39,2,0.5,0.0625,35.0,1,1.0,0.4200000000000159
40,2,0.5,0.0625,35.0,1,1.0,0.34830000000002315
41,2,0.5,0.0,35.0,1,1.0,1.775100000000009
42,2,0.5,1.0,-35.0,1,0.0,1.5226999999999862
43,2,0.5,0.25,35.0,1,1.0,0.23400000000000887
44,2,0.5,0.0625,35.0,1,1.0,0.4298000000000002
45,2,0.5,0.25,35.0,1,1.0,0.28359999999997854
46,2,0.5,0.25,-35.0,1,0.0,2.455299999999994
47,2,0.5,0.0625,-35.0,-1,1.0,4.6314000000000135
48,2,0.5,0.25,35.0,1,1.0,0.10110000000000241
49,2,0.5,0.0625,-35.0,1,0.0,2.5131000000000085
50,2,0.5,1.0,-35.0,-1,1.0,1.5745000000000005
51,2,0.5,0.0,35.0,1,1.0,3.2293999999999983
52,2,0.5,0.125,35.0,1,1.0,0.2144999999999868
53,2,0.5,0.25,-35.0,1,0.0,2.087900000000019
54,2,0.5,0.125,-35.0,1,0.0,2.378299999999996
55,2,0.5,0.25,35.0,1,1.0,0.25149999999999295
56,2,0.5,0.25,-35.0,-1,1.0,0.6025000000000205
57,2,0.5,0.125,-35.0,1,0.0,0.5046000000000106
58,2,0.5,0.125,-35.0,-1,1.0,0.31490000000002283
59,2,0.5,0.0,-35.0,1,0.0,0.4864000000000033
60,2,0.5,0.0625,-35.0,-1,1.0,2.4218999999999937
61,2,0.5,0.25,35.0,1,1.0,0.3698999999999728
62,2,0.5,0.125,-35.0,1,0.0,4.7742999999999824
63,2,0.5,0.125,-35.0,-1,1.0,0.36789999999996326
64,2,0.5,0.125,-35.0,1,0.0,2.7060000000000173
65,2,0.5,0.25,-35.0,-1,1.0,0.5506000000000313
66,2,0.5,0.0625,-35.0,-1,1.0,4.802099999999996
67,2,0.5,1.0,-35.0,-1,1.0,3.050800000000038
68,2,0.5,1.0,35.0,1,1.0,0.2159000000000333
69,2,0.5,0.125,-35.0,-1,1.0,2.5862999999999943
70,2,0.5,1.0,35.0,1,1.0,0.26609999999999445
71,2,0.5,0.0625,35.0,1,1.0,0.6315000000000168
72,2,0.5,0.25,-35.0,-1,1.0,3.606200000000058
73,2,0.5,0.0625,35.0,1,1.0,0.5602999999999838
74,2,0.5,0.125,-35.0,1,0.0,3.4259999999999877
75,2,0.5,0.125,35.0,1,1.0,0.3114999999999668
76,2,0.5,0.0625,-35.0,1,0.0,0.35590000000001965
77,2,0.5,0.125,-35.0,-1,1.0,0.5935999999999808
78,2,0.5,0.25,-35.0,-1,1.0,3.6836999999999875
79,2,0.5,1.0,35.0,1,1.0,0.3128000000000384
80,2,0.5,0.0625,-35.0,1,0.0,3.4645999999999617
81,2,0.5,0.0625,-35.0,1,0.0,0.17169999999998709
82,2,0.5,0.0,-35.0,1,0.0,0.2436999999999898
83,2,0.5,0.0625,-35.0,-1,1.0,3.475500000000011
84,2,0.5,0.0,35.0,-1,0.0,0.5286000000000399
85,2,0.5,1.0,35.0,1,1.0,0.15870000000001028
86,2,0.5,1.0,-35.0,-1,1.0,0.5504000000000246
87,2,0.5,0.0,35.0,1,1.0,0.31150000000002365
88,2,0.5,0.25,-35.0,-1,1.0,2.835200000000043
89,2,0.5,1.0,-35.0,-1,1.0,2.3874000000000137
90,2,0.5,0.25,-35.0,-1,1.0,1.2613999999999805
91,2,0.8,0.25,-35.0,-1,1.0,1.829499999999939
92,2,0.8,1.0,35.0,1,1.0,0.3616000000000099
93,2,0.8,0.0,-35.0,1,0.0,0.452699999999993
94,2,0.8,0.125,-35.0,-1,1.0,2.761099999999999
95,2,0.8,1.0,35.0,1,1.0,0.2991999999999848
96,2,0.8,1.0,-35.0,-1,1.0,0.26350000000002183
97,2,0.8,1.0,-35.0,-1,1.0,2.663499999999999
98,2,0.8,0.125,35.0,1,1.0,0.5790000000000077
99,2,0.8,0.25,-35.0,-1,1.0,2.9716000000000236
100,2,0.8,0.0625,-35.0,-1,1.0,1.743599999999958
101,2,0.8,0.0625,-35.0,-1,1.0,3.578800000000001
102,2,0.8,0.0625,-35.0,-1,1.0,0.37199999999995725
103,2,0.8,0.125,-35.0,-1,1.0,2.443800000000067
104,2,0.8,0.0,-35.0,1,0.0,1.436200000000042
105,2,0.8,0.0625,-35.0,-1,1.0,0.334699999999998
106,2,0.8,0.0625,-35.0,-1,1.0,2.2393000000000143
107,2,0.8,0.0625,-35.0,1,0.0,1.3479000000000383
108,2,0.8,0.125,-35.0,-1,1.0,0.137800000000027
109,2,0.8,1.0,-35.0,-1,1.0,0.7989000000000033
110,2,0.8,1.0,-35.0,-1,1.0,0.29630000000003065
111,2,0.8,0.25,35.0,1,1.0,0.41379999999998063
112,2,0.8,0.25,-35.0,-1,1.0,2.6800999999999817
113,2,0.8,0.0,35.0,-1,0.0,6.140700000000038
114,2,0.8,0.25,35.0,1,1.0,0.2588000000000079
115,2,0.8,0.0,-35.0,1,0.0,1.696800000000053
116,2,0.8,0.0625,-35.0,-1,1.0,0.49090000000001055
117,2,0.8,0.0625,35.0,1,1.0,0.8278999999999996
118,2,0.8,0.0625,-35.0,1,0.0,0.5298999999999978
119,2,0.8,0.25,-35.0,-1,1.0,0.2011000000001104
120,2,0.8,0.25,-35.0,-1,1.0,0.25490000000002055
121,2,0.8,1.0,-35.0,-1,1.0,0.3589999999999236
122,2,0.8,1.0,-35.0,-1,1.0,0.5284000000000333
123,2,0.8,0.0625,-35.0,1,0.0,1.8683999999999514
124,2,0.8,0.125,-35.0,-1,1.0,0.9018999999999551
125,2,0.8,0.0,-35.0,1,0.0,0.16859999999996944
126,2,0.8,0.0,-35.0,-1,1.0,2.487700000000018
127,2,0.8,0.25,-35.0,-1,1.0,0.3541000000001304
128,2,0.8,0.0625,-35.0,1,0.0,2.1335000000000264
129,2,0.8,0.0625,-35.0,-1,1.0,0.5153999999999996
130,2,0.8,0.25,-35.0,-1,1.0,2.7660999999999376
131,2,0.8,0.25,-35.0,-1,1.0,2.89670000000001
132,2,0.8,0.25,-35.0,-1,1.0,0.8023000000000593
133,2,0.8,0.0,-35.0,-1,1.0,2.2660999999999376
134,2,0.8,0.125,-35.0,-1,1.0,2.1171000000000504
135,2,0.8,0.25,-35.0,-1,1.0,2.20679999999993
136,2,0.8,0.125,-35.0,-1,1.0,0.5312000000000126
137,2,0.8,0.25,-35.0,-1,1.0,1.9212999999999738
138,2,0.8,0.0625,-35.0,-1,1.0,2.3374000000000024
139,2,0.8,0.0625,-35.0,-1,1.0,1.8427000000000362
140,2,0.8,0.0625,-35.0,-1,1.0,0.8415999999999713
141,2,0.8,0.25,-35.0,-1,1.0,2.810200000000009
142,2,0.8,0.125,-35.0,-1,1.0,1.5452000000000226
143,2,0.8,0.125,-35.0,-1,1.0,1.5013999999999896
144,2,0.8,1.0,-35.0,-1,1.0,0.4692999999999756
145,2,0.8,0.0,-35.0,1,0.0,3.9152999999998883
146,2,0.8,0.125,-35.0,-1,1.0,0.5344000000000051
147,2,0.8,0.25,-35.0,-1,1.0,3.99249999999995
148,2,0.8,0.0,35.0,-1,0.0,2.4542999999999893
149,2,0.8,0.0625,-35.0,1,0.0,0.2560999999999467
150,2,0.8,0.125,-35.0,-1,1.0,3.312599999999975
151,2,0.8,1.0,-35.0,-1,1.0,0.25289999999995416
152,2,0.8,0.25,-35.0,-1,1.0,2.04099999999994
153,2,0.8,0.0625,35.0,-1,0.0,0.22540000000003602
154,2,0.8,0.0625,35.0,1,1.0,0.26089999999999236
155,2,0.2,0.125,-35.0,-1,1.0,1.9909999999999854
156,2,0.2,1.0,35.0,1,1.0,0.30349999999998545
157,2,0.2,0.25,35.0,1,1.0,0.2661000000000513
158,2,0.2,1.0,35.0,1,1.0,0.2299999999999045
159,2,0.2,1.0,-35.0,-1,1.0,0.38440000000002783
160,2,0.2,0.25,35.0,1,1.0,0.6715000000000373
161,2,0.2,0.0625,35.0,1,1.0,0.551900000000046
162,2,0.2,0.0625,35.0,1,1.0,0.5444999999999709
163,2,0.2,1.0,35.0,1,1.0,0.22400000000004638
164,2,0.2,1.0,35.0,1,1.0,0.2116999999999507
165,2,0.2,0.125,35.0,1,1.0,0.2479000000000724
166,2,0.2,1.0,35.0,1,1.0,0.22260000000005675
167,2,0.2,1.0,35.0,1,1.0,0.2884999999998854
168,2,0.2,0.0625,-35.0,1,0.0,0.2375000000000682
169,2,0.2,0.25,35.0,1,1.0,0.24459999999987758
170,2,0.2,0.0,35.0,1,1.0,0.23719999999991614
171,2,0.2,0.125,35.0,1,1.0,0.16480000000001382
172,2,0.2,0.125,-35.0,1,0.0,2.425000000000068
173,2,0.2,0.25,35.0,1,1.0,0.27860000000009677
174,2,0.2,0.0625,35.0,1,1.0,0.22270000000003165
175,2,0.2,0.125,35.0,1,1.0,0.4376999999999498
176,2,0.2,0.25,35.0,1,1.0,0.2320999999999458
177,2,0.2,0.125,35.0,1,1.0,0.2857999999999947
178,2,0.2,1.0,35.0,1,1.0,0.28159999999991214
179,2,0.2,0.0625,35.0,1,1.0,0.5471000000000004
180,2,0.2,1.0,35.0,1,1.0,0.17079999999998563
181,2,0.2,0.25,-35.0,-1,1.0,3.011799999999994
182,2,0.2,0.25,35.0,1,1.0,0.2642000000000735
183,2,0.2,0.0,35.0,1,1.0,0.2037000000000262
184,2,0.2,0.0625,35.0,1,1.0,0.17449999999996635
185,2,0.2,0.0625,35.0,1,1.0,0.20600000000001728
186,2,0.2,0.125,-35.0,-1,1.0,3.220199999999977
187,2,0.2,0.125,35.0,1,1.0,0.2503000000000384
188,2,0.2,0.0,35.0,1,1.0,1.185200000000009
189,2,0.2,1.0,35.0,1,1.0,0.14779999999996107
190,2,0.2,0.25,35.0,1,1.0,0.16580000000010386
191,2,0.2,0.125,35.0,1,1.0,0.31490000000007967
192,2,0.2,1.0,35.0,1,1.0,0.21680000000003474
193,2,0.2,0.25,35.0,1,1.0,0.13679999999999382
194,2,0.2,0.0625,-35.0,1,0.0,0.3029000000000224
195,2,0.2,0.0625,35.0,1,1.0,1.5828999999998814
196,2,0.2,0.0625,35.0,1,1.0,0.2153000000000702
197,2,0.2,0.25,35.0,1,1.0,0.1652000000000271
198,2,0.2,0.0625,35.0,1,1.0,2.915899999999965
199,2,0.2,0.125,35.0,1,1.0,0.3610999999999649
200,2,0.2,0.0,35.0,1,1.0,0.19039999999995416
201,2,0.2,0.0625,35.0,1,1.0,1.0370000000000346
202,2,0.2,0.0625,-35.0,1,0.0,3.150700000000029
203,2,0.2,0.25,35.0,1,1.0,0.2862999999999829
204,2,0.2,0.25,35.0,1,1.0,0.21640000000002146
205,2,0.2,1.0,35.0,1,1.0,0.22289999999998145
206,2,0.2,0.125,-35.0,1,0.0,0.9266000000000076
207,2,0.2,0.0,-35.0,1,0.0,1.7000000000000455
208,2,0.2,0.125,-35.0,1,0.0,0.20909999999992124
209,2,0.2,0.125,35.0,1,1.0,0.32970000000000255
210,2,0.2,0.25,35.0,1,1.0,0.2574000000000751
211,2,0.2,0.125,-35.0,-1,1.0,2.045500000000061
212,2,0.2,0.125,35.0,1,1.0,0.22030000000006567
213,2,0.2,0.0625,-35.0,-1,1.0,2.8316999999999553
214,2,0.2,0.0625,35.0,1,1.0,0.2740999999999758
215,2,0.2,0.125,35.0,1,1.0,0.2555999999999585
216,2,0.2,0.125,35.0,1,1.0,0.22019999999997708
217,2,0.2,1.0,35.0,1,1.0,0.1308999999999969
218,2,0.2,0.0625,35.0,1,1.0,0.3734999999999218
219,2,0.2,0.0625,35.0,1,1.0,0.6463999999999714
220,2,0.2,1.0,35.0,1,1.0,0.20150000000001
221,2,0.2,1.0,35.0,1,1.0,0.22319999999990614
222,2,0.2,1.0,35.0,1,1.0,0.1533000000000584
223,2,0.8,0.0625,-35.0,1,0.0,0.3386000000000422
224,2,0.8,0.0625,-35.0,1,0.0,1.0813000000000557
225,2,0.8,0.25,-35.0,-1,1.0,0.5339000000001306
226,2,0.8,0.125,35.0,1,1.0,0.22639999999989868
227,2,0.8,1.0,-35.0,-1,1.0,0.8202999999999747
228,2,0.8,1.0,-35.0,-1,1.0,2.4482999999999038
229,2,0.8,0.0625,35.0,1,1.0,0.23130000000003292
230,2,0.8,0.0625,35.0,1,1.0,0.21840000000008786
231,2,0.8,0.25,-35.0,1,0.0,1.5313999999999623
232,2,0.8,0.125,-35.0,-1,1.0,3.3251999999999953
233,2,0.8,0.0625,-35.0,1,0.0,3.884900000000016
234,2,0.8,0.125,-35.0,1,0.0,2.4753999999998086
235,2,0.8,0.25,-35.0,-1,1.0,0.5920999999998457
236,2,0.8,1.0,-35.0,-1,1.0,0.7486999999998716
237,2,0.8,0.0,-35.0,1,0.0,0.26559999999994943
238,2,0.8,1.0,-35.0,-1,1.0,0.33549999999991087
239,2,0.8,0.0625,-35.0,1,0.0,0.20249999999987267
240,2,0.8,0.0625,-35.0,1,0.0,0.2256999999999607
241,2,0.8,0.125,-35.0,-1,1.0,0.18590000000017426
242,2,0.8,1.0,-35.0,-1,1.0,0.4195999999999458
243,2,0.8,0.125,-35.0,-1,1.0,1.9459999999999127
244,2,0.8,0.0625,-35.0,1,0.0,0.2930999999998676
245,2,0.8,0.25,-35.0,-1,1.0,0.34960000000000946
246,2,0.8,0.25,35.0,1,1.0,0.27969999999982065
247,2,0.8,0.25,-35.0,-1,1.0,0.28959999999983665
248,2,0.8,1.0,35.0,1,1.0,0.5895989999999074
249,2,0.8,0.0,-35.0,-1,1.0,1.0829999999998563
250,2,0.8,0.25,-35.0,1,0.0,1.743099999999913
251,2,0.8,0.0625,-35.0,1,0.0,0.22669999999993706
252,2,0.8,1.0,-35.0,-1,1.0,0.23329999999987194
253,2,0.8,0.25,35.0,1,1.0,0.2300999999999931
254,2,0.8,0.25,-35.0,-1,1.0,0.49339999999983775
255,2,0.8,0.0625,-35.0,1,0.0,0.19679999999993925
256,2,0.8,0.0625,-35.0,-1,1.0,0.5468000000000757
257,2,0.8,0.0625,-35.0,-1,1.0,1.0169999999998254
258,2,0.8,0.25,-35.0,-1,1.0,0.39039999999999964
259,2,0.8,1.0,-35.0,-1,1.0,1.5171000000000276
260,2,0.8,0.25,-35.0,-1,1.0,0.3471999999997024
261,2,0.8,0.0625,35.0,1,1.0,0.3937999999998283
262,2,0.8,0.25,-35.0,-1,1.0,0.6773999999998068
263,2,0.8,0.0625,-35.0,-1,1.0,3.9939999999999145
264,2,0.8,0.0625,-35.0,1,0.0,3.0314999999998236
265,2,0.8,0.25,35.0,1,1.0,0.20109999999999673
266,2,0.8,0.25,-35.0,-1,1.0,5.047900000000027
267,2,0.8,0.125,-35.0,-1,1.0,8.334900000000061
268,2,0.8,1.0,-35.0,-1,1.0,0.4281989999999496
269,2,0.8,0.0,-35.0,1,0.0,0.365099999999984
270,2,0.8,0.0625,35.0,1,1.0,0.3485000000000582
271,2,0.8,0.25,-35.0,-1,1.0,0.5250999999998385
272,2,0.8,0.0625,-35.0,-1,1.0,3.3720999999998185
273,2,0.8,0.0625,-35.0,-1,1.0,6.408999999999878
274,2,0.8,1.0,-35.0,-1,1.0,1.7122999999999138
275,2,0.8,0.125,-35.0,-1,1.0,2.549299999999903
276,2,0.8,1.0,-35.0,-1,1.0,0.4192000000000462
277,2,0.8,1.0,-35.0,-1,1.0,0.906099999999924
278,2,0.2,1.0,35.0,1,1.0,0.42939999999975953
279,2,0.2,1.0,35.0,1,1.0,0.2561000000000604
280,2,0.2,0.25,35.0,1,1.0,0.22939999999971405
281,2,0.2,0.0,35.0,1,1.0,0.22289999999998145
282,2,0.2,0.0625,35.0,1,1.0,0.4130999999999858
283,2,0.2,0.25,35.0,1,1.0,0.20309999999994943
284,2,0.2,0.125,35.0,1,1.0,0.22339999999985594
285,2,0.2,0.0625,35.0,1,1.0,0.9100999999998294
286,2,0.2,0.25,35.0,1,1.0,0.3265000000001237
287,2,0.2,1.0,-35.0,-1,1.0,0.3067999999998392
288,2,0.2,0.0,-35.0,1,0.0,0.2801999999999225
289,2,0.2,1.0,35.0,1,1.0,0.2801999999999225
290,2,0.2,1.0,35.0,1,1.0,0.22719999999981155
291,2,0.2,0.0625,35.0,1,1.0,0.4070999999999003
292,2,0.2,0.25,35.0,1,1.0,0.5903999999998177
293,2,0.2,1.0,35.0,1,1.0,0.23039999999991778
294,2,0.2,0.125,35.0,1,1.0,0.2904999999998381
295,2,0.2,1.0,-35.0,-1,1.0,0.9342999999998938
296,2,0.2,0.25,-35.0,-1,1.0,0.5043000000000575
297,2,0.2,0.125,35.0,1,1.0,0.2342999999998483
298,2,0.2,0.125,35.0,1,1.0,0.19079999999985375
299,2,0.2,0.125,35.0,1,1.0,0.18429999999989377
300,2,0.2,0.25,35.0,1,1.0,0.26759999999990214
301,2,0.2,0.0625,-35.0,1,0.0,0.18780000000015207
302,2,0.2,0.0,35.0,1,1.0,2.2176999999999225
303,2,0.2,0.0625,-35.0,1,0.0,0.5913999999997941
304,2,0.2,0.0,-35.0,-1,1.0,0.7878999999998086
305,2,0.2,0.0,-35.0,1,0.0,0.8280999999997221
306,2,0.2,0.25,35.0,1,1.0,0.3048999999998614
307,2,0.2,1.0,35.0,1,1.0,0.20479999999975007
308,2,0.2,0.0,35.0,1,1.0,0.33829999999989013
309,2,0.2,0.0625,35.0,1,1.0,0.4883990000000722
310,2,0.2,1.0,35.0,1,1.0,0.2284999999997126
311,2,0.2,0.125,-35.0,-1,1.0,1.1854000000000724
312,2,0.2,0.125,35.0,1,1.0,0.21849999999994907
313,2,0.2,0.25,-35.0,-1,1.0,0.685399999999845
314,2,0.2,1.0,35.0,1,1.0,0.24559999999974025
315,2,0.2,0.0625,35.0,1,1.0,0.2688999999998032
316,2,0.2,0.25,-35.0,-1,1.0,0.9588999999998578
317,2,0.2,0.0625,35.0,1,1.0,0.32559999999989486
318,2,0.2,0.0625,35.0,1,1.0,0.14909999999963475
319,2,0.2,1.0,35.0,1,1.0,0.3625999999999294
320,2,0.2,0.25,35.0,1,1.0,0.22269999999980428
321,2,0.2,0.25,-35.0,1,0.0,2.9795999999998912
322,2,0.2,0.125,35.0,1,1.0,0.20959999999990941
323,2,0.2,0.125,35.0,1,1.0,0.40620000000012624
324,2,0.2,1.0,35.0,1,1.0,0.2563000000000102
325,2,0.2,0.25,35.0,1,1.0,0.3165999999998803
326,2,0.2,1.0,35.0,1,1.0,0.2001999999997679
327,2,0.2,0.125,35.0,1,1.0,0.2097999999998592
328,2,0.2,0.0625,35.0,1,1.0,0.5369999999998072
329,2,0.2,0.0625,35.0,1,1.0,0.47369999999978063
330,2,0.2,0.0,35.0,1,1.0,0.6401000000000749
331,2,0.2,1.0,35.0,1,1.0,0.18370000000004438
332,2,0.2,0.0,-35.0,1,0.0,0.27029999999967913
333,2,0.2,0.25,35.0,1,1.0,0.31389999999987594
334,2,0.2,0.0625,35.0,1,1.0,0.22429999999963002
335,2,0.2,0.25,-35.0,-1,1.0,0.5172009999998863
336,2,0.2,1.0,35.0,1,1.0,0.28080099999988306
337,2,0.2,0.25,35.0,1,1.0,0.237800999999763
338,2,0.2,0.125,35.0,1,1.0,0.16750099999990198
339,2,0.2,1.0,35.0,1,1.0,0.297600999999986
340,2,0.2,0.0625,-35.0,1,0.0,2.9510009999999056
341,2,0.2,0.25,35.0,1,1.0,0.36780099999987215
342,2,0.2,0.0625,35.0,1,1.0,0.20460099999991144
343,2,0.2,0.125,-35.0,1,0.0,1.0448009999997794
344,2,0.2,0.25,35.0,1,1.0,0.35130099999992126
345,2,0.2,1.0,35.0,1,1.0,0.2583009999998467
346,2,0.2,0.0625,35.0,1,1.0,0.2617009999999027
347,2,0.2,0.0,-35.0,1,0.0,0.12830099999973754
348,2,0.2,0.25,35.0,1,1.0,0.27840100000003076
349,2,0.2,0.0625,-35.0,1,0.0,0.18190099999992526
350,2,0.2,0.125,35.0,1,1.0,1.9989009999999325
351,2,0.2,0.0625,-35.0,1,0.0,0.16190099999971608
352,2,0.2,0.25,-35.0,-1,1.0,0.5321009999997841
353,2,0.2,0.0625,35.0,1,1.0,0.27890099999990525
354,2,0.2,0.0625,35.0,1,1.0,0.2824009999999362
355,2,0.2,0.0625,35.0,1,1.0,0.5928009999997812
356,2,0.2,1.0,35.0,1,1.0,0.2491010000001097
357,2,0.2,0.125,-35.0,1,0.0,0.7326009999999314
358,2,0.2,0.25,35.0,1,1.0,0.22260099999994054
359,2,0.2,0.25,35.0,1,1.0,0.21610099999975318
360,2,0.8,0.25,-35.0,1,0.0,2.6331009999996695
361,2,0.8,0.0,-35.0,1,0.0,0.763101000000006
362,2,0.8,0.25,35.0,1,1.0,0.25300099999981285
363,2,0.8,1.0,-35.0,-1,1.0,0.5963010000000395
364,2,0.8,0.125,-35.0,-1,1.0,2.7932009999999536
365,2,0.8,0.0625,-35.0,1,0.0,1.2366009999998369
366,2,0.8,0.0625,35.0,1,1.0,0.26670100000001185
367,2,0.8,0.0,-35.0,1,0.0,1.6801009999999224
368,2,0.8,0.125,-35.0,-1,1.0,0.7002009999998791
369,2,0.8,0.25,-35.0,-1,1.0,0.40020099999992453
370,2,0.8,0.125,35.0,1,1.0,0.8202009999999973
371,2,0.8,0.25,-35.0,-1,1.0,3.0371009999998932
372,2,0.8,0.0625,-35.0,-1,1.0,2.1604009999998652
373,2,0.8,0.125,-35.0,-1,1.0,0.40420099999982995
374,2,0.8,0.0625,-35.0,-1,1.0,2.2507009999999354
375,2,0.8,0.0625,-35.0,-1,1.0,6.104200999999875
376,2,0.8,0.0625,-35.0,-1,1.0,0.5009009999998852
377,2,0.8,0.0625,-35.0,-1,1.0,4.111300999999912
378,2,0.8,1.0,-35.0,-1,1.0,0.2978009999999358
379,2,0.8,0.25,-35.0,-1,1.0,1.6946009999999205
380,2,0.8,0.0,35.0,-1,0.0,4.151300999999876
381,2,0.8,0.25,-35.0,-1,1.0,0.44840099999987615
382,2,0.2,1.0,35.0,1,1.0,0.2616009999999278
383,2,0.2,1.0,35.0,1,1.0,0.20830099999989216
384,2,0.2,0.25,35.0,1,1.0,0.315000999999711
385,2,0.2,0.125,35.0,1,1.0,0.32520099999987906
386,2,0.2,0.25,35.0,1,1.0,0.36540100000001985
387,2,0.2,1.0,-35.0,-1,1.0,0.38200099999994563
388,2,0.2,0.0,35.0,-1,0.0,4.565500999999813
389,2,0.2,0.0625,35.0,1,1.0,0.48890099999994163
390,2,0.2,0.25,35.0,1,1.0,0.2890009999996437
391,2,0.2,0.25,35.0,1,1.0,0.292500999999902
392,2,0.2,0.0625,35.0,1,1.0,0.2825009999996837
393,2,0.2,0.25,-35.0,-1,1.0,0.2759009999999762
394,2,0.2,0.25,35.0,1,1.0,0.2761009999996986
395,2,0.2,0.125,35.0,1,1.0,0.30610099999967133
396,2,0.2,1.0,35.0,1,1.0,0.21960100000001148
397,2,0.2,0.125,-35.0,1,0.0,0.2331010000000333
398,2,0.2,0.25,35.0,1,1.0,0.21660099999985505
399,2,0.2,1.0,-35.0,-1,1.0,0.3429009999997561
400,2,0.2,0.0625,35.0,1,1.0,0.18640099999970516
401,2,0.2,0.0,-35.0,1,0.0,0.44980099999997947
402,2,0.2,1.0,35.0,1,1.0,0.27000100000009297
403,2,0.2,0.125,35.0,1,1.0,0.3266009999999824
404,2,0.2,0.0625,35.0,1,1.0,0.30360099999984413
405,2,0.2,0.25,-35.0,-1,1.0,0.6837009999997008
406,2,0.2,0.0625,35.0,1,1.0,0.28680099999996855
407,2,0.2,0.0,35.0,1,1.0,0.18070099999977174
408,2,0.2,0.25,35.0,1,1.0,0.2171009999999569
409,2,0.2,0.25,35.0,1,1.0,0.26700099999993654
410,2,0.2,0.0625,35.0,1,1.0,6.033901000000014
411,2,0.2,0.25,35.0,1,1.0,0.22770100000002458
412,2,0.2,1.0,35.0,1,1.0,0.20780100000001767
413,2,0.2,0.0,35.0,1,1.0,0.15440099999977974
414,2,0.2,0.0,35.0,1,1.0,3.6441010000000915
415,2,0.2,0.0,35.0,1,1.0,0.23110099999985323
416,2,0.2,0.25,35.0,1,1.0,0.19120099999963713
417,2,0.2,0.125,35.0,1,1.0,0.2878009999999449
418,2,0.8,0.0625,-35.0,1,0.0,0.31120099999998274
419,2,0.8,0.125,-35.0,-1,1.0,5.138101000000006
420,2,0.8,0.125,-35.0,-1,1.0,0.7981009999998605
421,2,0.8,1.0,-35.0,-1,1.0,0.9419009999996888
422,2,0.8,0.0625,-35.0,-1,1.0,4.5782010000000355
423,2,0.8,0.0,-35.0,1,0.0,0.14530100000001767
424,2,0.8,0.25,-35.0,-1,1.0,0.49890099999970516
425,2,0.8,0.125,-35.0,-1,1.0,0.461900999999898
426,2,0.8,1.0,-35.0,-1,1.0,0.351900999999998
427,2,0.8,0.0,-35.0,-1,1.0,0.5588009999996757
428,2,0.8,1.0,35.0,1,1.0,0.24220099999979539
429,2,0.8,0.0625,-35.0,-1,1.0,1.4458009999998467
430,2,0.8,1.0,-35.0,-1,1.0,0.32910100000003695
431,2,0.8,0.25,-35.0,1,0.0,1.4690009999999347
432,2,0.8,0.25,-35.0,-1,1.0,2.2924009999996997
433,2,0.8,0.25,-35.0,-1,1.0,4.192500999999993
434,2,0.8,0.0625,-35.0,-1,1.0,4.593000999999731
435,2,0.8,0.25,-35.0,-1,1.0,10.176200999999992
436,2,0.8,0.25,-35.0,-1,1.0,2.253101000000015
437,2,0.8,0.25,-35.0,1,0.0,10.956601000000092
438,2,0.8,1.0,35.0,1,1.0,0.25030100000003586
439,2,0.8,0.0625,-35.0,-1,1.0,0.257001000000173
440,2,0.2,1.0,35.0,1,1.0,0.3504009999999198
441,2,0.2,1.0,35.0,1,1.0,0.2842009999999391
442,2,0.2,0.0625,35.0,1,1.0,6.543901000000005
443,2,0.2,0.0625,35.0,1,1.0,0.6474010000001726
444,2,0.2,1.0,35.0,1,1.0,0.25090099999988524
445,2,0.2,1.0,-35.0,-1,1.0,9.437500999999884
446,2,0.2,0.25,35.0,1,1.0,0.317801000000145
447,2,0.2,1.0,35.0,1,1.0,0.07840099999975791
448,2,0.2,0.0625,-35.0,-1,1.0,12.724701000000096
449,2,0.2,1.0,35.0,1,1.0,0.23480099999960657
450,2,0.2,0.0625,-35.0,1,0.0,6.3549009999997
451,2,0.2,1.0,-35.0,-1,1.0,4.455200999999761
452,2,0.2,1.0,35.0,1,1.0,0.2354009999999107
453,2,0.2,0.25,35.0,1,1.0,0.3721009999994749
454,2,0.2,1.0,-35.0,0,0.0,59.95240100000001
455,2,0.2,1.0,-35.0,-1,1.0,11.03360100000009
456,2,0.2,0.25,35.0,1,1.0,0.20360100000016246
457,2,0.2,0.0625,35.0,1,1.0,0.6506009999998241
458,2,0.2,0.125,35.0,1,1.0,0.44400099999984377
459,2,0.2,1.0,35.0,1,1.0,0.26060099999995145
460,2,0.2,1.0,35.0,1,1.0,0.36400099999991653
461,2,0.2,1.0,35.0,1,1.0,0.3907009999998081
462,2,0.2,0.0625,35.0,-1,0.0,45.6041009999999
463,2,0.2,0.0,35.0,1,1.0,21.934900999999627
464,2,0.2,0.0625,35.0,-1,0.0,7.988900999999714
465,2,0.2,1.0,-35.0,-1,1.0,7.132301000000098
466,2,0.2,1.0,35.0,1,1.0,0.15260100000023158
467,2,0.2,1.0,-35.0,1,0.0,14.046000999999706
468,2,0.2,0.0625,35.0,1,1.0,0.48320099999955346
469,2,0.2,0.0,-35.0,1,0.0,0.28320099999973536
470,2,0.2,0.125,35.0,1,1.0,0.38710100000025705
471,2,0.2,0.125,35.0,1,1.0,0.21010100000012244
472,2,0.2,0.0625,35.0,1,1.0,0.14670099999966624
1,3,0.5,0.0625,-35.0,-1,1.0,0.39139999999999997
2,3,0.5,0.125,35.0,1,1.0,8.029799
3,3,0.5,0.0,-35.0,1,0.0,2.607800000000001
4,3,0.5,0.0625,-35.0,-1,1.0,0.329500000000003
5,3,0.5,1.0,35.0,1,1.0,0.21289999999999765
6,3,0.5,0.0625,-35.0,-1,1.0,0.2629999999999981
7,3,0.5,1.0,-35.0,-1,1.0,0.2819000000000038
8,3,0.5,0.0,-35.0,-1,1.0,0.9063999999999979
9,3,0.5,0.125,35.0,-1,0.0,0.09419999999999362
10,3,0.5,0.125,-35.0,-1,1.0,0.2778999999999954
11,3,0.5,0.125,35.0,-1,0.0,1.1348999999999947
12,3,0.5,0.25,-35.0,-1,1.0,0.17629999999999768
13,3,0.5,0.0,35.0,-1,0.0,0.3037999999999954
14,3,0.5,0.0,-35.0,-1,1.0,0.2569999999999979
15,3,0.5,1.0,-35.0,-1,1.0,0.22520000000000095
16,3,0.5,0.125,-35.0,-1,1.0,0.43209999999999127
17,3,0.5,0.25,35.0,1,1.0,0.2149000000000001
18,3,0.5,0.125,35.0,1,1.0,0.2501000000000033
19,3,0.5,0.25,35.0,1,1.0,0.29420000000000357
20,3,0.5,0.0625,35.0,1,1.0,0.40749999999998465
21,3,0.5,0.125,-35.0,-1,1.0,0.37359999999999616
22,3,0.5,0.0,-35.0,1,0.0,0.3386999999999887
23,3,0.5,0.0625,-35.0,-1,1.0,0.3463999999999885
24,3,0.5,0.0,35.0,1,1.0,2.2683999999999855
25,3,0.5,1.0,-35.0,-1,1.0,0.2172999999999945
26,3,0.5,1.0,35.0,1,1.0,0.1992000000000047
27,3,0.5,0.0,35.0,1,1.0,0.5900999999999925
28,3,0.5,0.0,35.0,1,1.0,0.3622000000000014
29,3,0.5,1.0,35.0,1,1.0,0.2085000000000008
30,3,0.5,0.125,35.0,1,1.0,0.23790000000001044
31,3,0.5,1.0,35.0,1,1.0,0.1880999999999915
32,3,0.5,0.25,35.0,1,1.0,0.23860000000000525
33,3,0.5,1.0,-35.0,-1,1.0,0.23109999999999786
34,3,0.5,0.25,35.0,1,1.0,0.2750999999999948
35,3,0.5,0.0625,35.0,1,1.0,0.21359999999998536
36,3,0.5,1.0,35.0,1,1.0,0.2190999999999974
37,3,0.5,0.0625,35.0,-1,0.0,2.2005000000000337
38,3,0.5,0.0625,35.0,1,1.0,0.11369999999999436
39,3,0.5,0.0,35.0,1,1.0,0.3078000000000145
40,3,0.5,0.125,35.0,1,1.0,0.22280000000000655
41,3,0.5,0.0,35.0,1,1.0,0.2698000000000036
42,3,0.5,0.125,-35.0,-1,1.0,0.2553000000000054
43,3,0.5,1.0,35.0,1,1.0,0.19129999999998404
44,3,0.5,0.0625,-35.0,-1,1.0,0.3527000000000271
45,3,0.5,0.25,35.0,1,1.0,0.21150000000002933
46,3,0.5,0.25,35.0,1,1.0,0.23520000000002028
47,3,0.5,0.0,35.0,1,1.0,0.33320000000000505
48,3,0.5,0.125,35.0,1,1.0,0.24960000000001514
49,3,0.5,0.0625,-35.0,-1,1.0,0.3071999999999946
50,3,0.5,0.125,-35.0,-1,1.0,0.22570000000001755
51,3,0.5,0.125,35.0,1,1.0,0.241800000000012
52,3,0.5,1.0,35.0,1,1.0,0.2802000000000078
53,3,0.5,0.0,-35.0,-1,1.0,1.7758000000000038
54,3,0.5,0.0625,35.0,1,1.0,0.2296000000000049
55,3,0.5,0.0625,-35.0,-1,1.0,0.28299999999998704
56,3,0.5,0.0625,-35.0,-1,1.0,1.1903000000000077
57,3,0.5,0.0625,35.0,1,1.0,0.28690000000003124
58,3,0.5,0.125,35.0,1,1.0,0.26310000000000855
59,3,0.5,0.25,-35.0,-1,1.0,0.26080000000001746
60,3,0.5,0.0625,35.0,1,1.0,0.2802999999999827
61,3,0.5,0.25,35.0,1,1.0,0.24330000000000496
62,3,0.5,0.0625,35.0,1,1.0,0.25130000000004316
63,3,0.5,0.25,35.0,1,1.0,0.20539999999999736
64,3,0.5,0.125,35.0,1,1.0,0.5405000000000086
65,3,0.5,0.0625,-35.0,1,0.0,0.5418000000000234
66,3,0.5,0.25,-35.0,-1,1.0,0.3765000000000214
67,3,0.5,0.125,-35.0,-1,1.0,0.27830000000000155
68,3,0.5,0.25,35.0,1,1.0,0.2237999999999829
69,3,0.5,0.25,-35.0,-1,1.0,0.24639999999999418
70,3,0.5,0.125,-35.0,-1,1.0,0.2738000000000227
71,3,0.5,0.0,-35.0,-1,1.0,0.25240000000002283
72,3,0.5,1.0,-35.0,-1,1.0,0.2371000000000265
73,3,0.5,0.0625,-35.0,-1,1.0,0.3346990000000005
74,3,0.5,0.25,-35.0,-1,1.0,0.26410000000004175
75,3,0.5,0.0,-35.0,1,0.0,2.3284000000000162
76,3,0.5,0.125,35.0,1,1.0,0.25509999999999877
77,3,0.5,0.125,-35.0,-1,1.0,0.24300000000002342
78,3,0.5,0.25,-35.0,1,0.0,0.551099999999991
79,3,0.5,0.25,-35.0,-1,1.0,0.21459999999999013
80,3,0.5,1.0,35.0,1,1.0,0.19599999999996953
81,3,0.5,0.125,35.0,1,1.0,0.27249999999997954
82,3,0.5,1.0,-35.0,-1,1.0,0.1875
83,3,0.5,1.0,-35.0,-1,1.0,0.1904999999999859
84,3,0.5,0.125,35.0,1,1.0,0.2839000000000169
85,3,0.5,0.0,35.0,1,1.0,5.038000000000011
86,3,0.5,0.125,-35.0,-1,1.0,0.2741999999999507
87,3,0.5,1.0,35.0,1,1.0,0.2507999999999697
88,3,0.5,1.0,35.0,1,1.0,0.19180000000000064
89,3,0.5,0.25,35.0,1,1.0,0.23159999999995762
90,3,0.5,0.125,35.0,1,1.0,0.6965999999999894
91,3,0.2,0.25,35.0,1,1.0,0.19829999999996062
92,3,0.2,0.25,35.0,1,1.0,0.41679999999996653
93,3,0.2,0.0,-35.0,1,0.0,3.796299999999974
94,3,0.2,0.125,35.0,1,1.0,0.4146000000000072
95,3,0.2,1.0,35.0,1,1.0,0.3761000000000081
96,3,0.2,0.25,35.0,1,1.0,0.199799999999982
97,3,0.2,0.0625,35.0,1,1.0,0.2238999999999578
98,3,0.2,0.125,-35.0,-1,1.0,0.4327000000000112
99,3,0.2,0.0,-35.0,1,0.0,0.40869999999995343
100,3,0.2,0.0625,35.0,-1,0.0,0.19249999999999545
101,3,0.2,0.25,35.0,1,1.0,0.1701999999999657
102,3,0.2,0.25,35.0,1,1.0,0.1997000000000071
103,3,0.2,1.0,35.0,1,1.0,0.17569999999994934
104,3,0.2,0.125,35.0,1,1.0,0.5557999999999765
105,3,0.2,0.0625,-35.0,1,0.0,0.2525999999999726
106,3,0.2,0.0625,-35.0,-1,1.0,0.5851999999999293
107,3,0.2,1.0,35.0,1,1.0,0.16179999999997108
108,3,0.2,0.0,-35.0,1,0.0,0.42669999999998254
109,3,0.2,0.0625,-35.0,-1,1.0,0.47409999999996444
110,3,0.2,0.125,35.0,1,1.0,0.27259999999995443
111,3,0.2,0.0,35.0,-1,0.0,4.630299999999977
112,3,0.8,0.0625,-35.0,-1,1.0,0.35290000000003374
113,3,0.8,1.0,-35.0,-1,1.0,0.32630000000000337
114,3,0.8,0.125,-35.0,-1,1.0,0.3462000000000103
115,3,0.8,0.0625,35.0,1,1.0,0.7127999999999588
116,3,0.8,0.0625,-35.0,-1,1.0,0.15229999999996835
117,3,0.8,0.25,-35.0,-1,1.0,0.26579999999995607
118,3,0.8,1.0,-35.0,-1,1.0,0.26619999999996935
119,3,0.8,0.0,35.0,-1,0.0,1.8011000000000195
120,3,0.8,0.0625,-35.0,-1,1.0,0.210899999999981
121,3,0.8,1.0,-35.0,-1,1.0,0.1782999999999788
122,3,0.8,0.0625,35.0,-1,0.0,0.2839999999999918
123,3,0.8,0.0625,-35.0,-1,1.0,0.26949999999999363
124,3,0.8,1.0,-35.0,-1,1.0,0.21589999999997644
125,3,0.8,0.0625,35.0,-1,0.0,0.28259999999994534
126,3,0.8,0.125,-35.0,-1,1.0,0.36899999999997135
127,3,0.8,0.0,35.0,1,1.0,2.241199999999992
128,3,0.8,0.25,-35.0,-1,1.0,0.26139999999998054
129,3,0.8,0.0625,-35.0,-1,1.0,0.27029999999996335
130,3,0.8,0.125,-35.0,-1,1.0,0.2866999999999962
131,3,0.8,0.0625,-35.0,1,0.0,0.6199999999999477
132,3,0.8,0.0625,-35.0,-1,1.0,0.31370000000003984
133,3,0.8,1.0,-35.0,-1,1.0,0.3061999999999898
134,3,0.8,0.25,-35.0,-1,1.0,0.22620000000000573
135,3,0.8,1.0,-35.0,-1,1.0,0.15339999999997644
136,3,0.8,0.0,35.0,1,1.0,10.099299999999971
137,3,0.8,0.25,-35.0,-1,1.0,0.2782999999999447
138,3,0.8,1.0,-35.0,-1,1.0,0.21999999999997044
139,3,0.2,0.125,35.0,1,1.0,0.21809999999999263
140,3,0.2,1.0,-35.0,-1,1.0,0.23409999999995534
141,3,0.2,1.0,35.0,1,1.0,0.18509999999997717
142,3,0.2,0.0625,35.0,1,1.0,0.282100000000014
143,3,0.2,0.25,-35.0,1,0.0,0.26180000000005066
144,3,0.2,0.0625,35.0,1,1.0,0.22289999999998145
145,3,0.2,0.0,-35.0,1,0.0,0.38149999999996
146,3,0.2,0.0,35.0,1,1.0,0.2447999999999979
147,3,0.2,1.0,35.0,1,1.0,0.1993999999999687
148,3,0.2,0.25,35.0,1,1.0,0.22119999999995343
149,3,0.2,1.0,-35.0,-1,1.0,0.23030000000017026
150,3,0.2,0.0625,35.0,1,1.0,0.20710000000008222
151,3,0.2,1.0,-35.0,-1,1.0,0.22820000000001528
152,3,0.2,0.25,35.0,1,1.0,0.21490000000005693
153,3,0.2,1.0,35.0,1,1.0,0.1675000000000182
154,3,0.2,0.0625,35.0,1,1.0,0.20990000000006148
155,3,0.2,1.0,-35.0,-1,1.0,0.1672000000000935
156,3,0.2,0.125,35.0,1,1.0,0.15970000000004347
157,3,0.2,0.0,35.0,1,1.0,0.2176999999999225
158,3,0.2,1.0,-35.0,-1,1.0,0.23859999999990578
159,3,0.2,0.0625,35.0,1,1.0,0.08389999999997144
160,3,0.2,0.25,35.0,1,1.0,0.20180000000004839
161,3,0.2,0.25,35.0,1,1.0,0.18770000000006348
162,3,0.2,0.0625,35.0,1,1.0,0.09839999999996962
163,3,0.2,0.125,35.0,1,1.0,0.1773000000000593
164,3,0.2,0.0,-35.0,1,0.0,0.18799999999998818
165,3,0.2,0.25,35.0,1,1.0,0.18029999999998836
166,3,0.2,1.0,-35.0,-1,1.0,0.20529999999996562
167,3,0.8,0.0625,35.0,1,1.0,0.22909999999990305
168,3,0.8,0.0625,35.0,1,1.0,0.21040000000004966
169,3,0.8,0.0625,-35.0,-1,1.0,0.4453000000000884
170,3,0.8,1.0,-35.0,-1,1.0,0.29949999999996635
171,3,0.8,1.0,-35.0,-1,1.0,0.2137000000000171
172,3,0.8,1.0,-35.0,-1,1.0,0.2036000000000513
173,3,0.8,0.125,-35.0,-1,1.0,0.2841000000000804
174,3,0.8,1.0,-35.0,-1,1.0,0.23969999999997071
175,3,0.8,0.25,-35.0,-1,1.0,0.4676000000000613
176,3,0.8,0.25,-35.0,-1,1.0,0.5015000000000782
177,3,0.8,1.0,-35.0,-1,1.0,0.22080000000005384
178,3,0.8,1.0,-35.0,-1,1.0,0.2376000000000431
179,3,0.8,0.25,-35.0,-1,1.0,0.2536000000000058
180,3,0.8,1.0,-35.0,-1,1.0,0.24890000000016244
181,3,0.8,0.0625,-35.0,-1,1.0,0.7046000000001413
182,3,0.8,0.0625,-35.0,-1,1.0,0.42650000000003274
183,3,0.8,0.125,35.0,1,1.0,0.19580000000007658
184,3,0.8,0.0,-35.0,1,0.0,0.22660000000007585
185,3,0.8,0.25,-35.0,-1,1.0,0.31979999999998654
186,3,0.8,1.0,-35.0,-1,1.0,0.21249999999997726
187,3,0.8,0.125,-35.0,-1,1.0,0.26490000000012515
188,3,0.8,0.25,35.0,1,1.0,0.19650000000001455
189,3,0.8,0.0625,-35.0,-1,1.0,0.2697000000000571
190,3,0.8,0.0625,-35.0,-1,1.0,0.4501000000000204
191,3,0.8,0.0625,-35.0,-1,1.0,0.30760000000009313
192,3,0.8,1.0,-35.0,-1,1.0,0.2576000000000249
193,3,0.8,0.125,35.0,1,1.0,0.2357000000000653
194,3,0.8,0.25,35.0,1,1.0,0.16459999999995034
195,3,0.8,0.0625,-35.0,-1,1.0,0.334699999999998
196,3,0.8,0.0,-35.0,-1,1.0,0.4498000000000957
197,3,0.8,0.125,-35.0,-1,1.0,0.27710000000001855
198,3,0.8,0.125,35.0,1,1.0,0.22690000000000055
199,3,0.8,0.125,-35.0,1,0.0,0.4893000000000711
200,3,0.8,0.125,35.0,1,1.0,0.017200000000116233
201,3,0.8,0.0,-35.0,1,0.0,0.4715999999999667
202,3,0.8,1.0,-35.0,-1,1.0,0.26880000000005566
203,3,0.8,0.0,-35.0,-1,1.0,0.2947000000000344
204,3,0.8,0.0625,-35.0,-1,1.0,0.2624000000000706
205,3,0.8,0.125,-35.0,-1,1.0,0.24470000000007985
206,3,0.8,1.0,-35.0,-1,1.0,0.08590000000003783
207,3,0.8,0.125,35.0,1,1.0,0.18680000000006203
208,3,0.8,0.25,-35.0,-1,1.0,0.276299999999992
209,3,0.8,0.125,35.0,1,1.0,0.19629999999995107
210,3,0.2,0.25,35.0,1,1.0,0.16970000000003438
211,3,0.2,0.125,35.0,1,1.0,0.19870000000003074
212,3,0.2,0.0,35.0,-1,0.0,0.2640000000001237
213,3,0.2,0.25,35.0,1,1.0,0.14769999999998618
214,3,0.2,0.0625,35.0,1,1.0,0.6189000000000533
215,3,0.2,0.125,-35.0,-1,1.0,0.2498000000000502
216,3,0.2,0.0,35.0,1,1.0,0.20680000000004384
217,3,0.2,0.125,35.0,1,1.0,0.46479999999996835
218,3,0.2,1.0,35.0,1,1.0,0.18230000000005475
219,3,0.2,0.125,35.0,1,1.0,0.21040000000004966
220,3,0.2,0.25,35.0,1,1.0,0.19719999999995252
221,3,0.2,1.0,35.0,1,1.0,0.17810000000008586
222,3,0.2,0.25,-35.0,-1,1.0,0.2550989999999729
223,3,0.2,0.25,35.0,1,1.0,0.20879999999999654
224,3,0.2,0.125,35.0,1,1.0,0.2052000000001044
225,3,0.2,0.0625,35.0,1,1.0,0.1872000000000753
226,3,0.2,1.0,35.0,1,1.0,0.16690000000005512
227,3,0.2,0.125,-35.0,-1,1.0,0.6021999999999252
228,3,0.2,1.0,35.0,1,1.0,0.17790000000002237
229,3,0.2,1.0,35.0,1,1.0,0.18010000000003856
230,3,0.8,0.0,-35.0,1,0.0,0.1892000000001417
231,3,0.8,0.0625,35.0,-1,0.0,0.59699999999998
232,3,0.8,0.125,-35.0,-1,1.0,0.33340000000009695
233,3,0.8,0.125,-35.0,-1,1.0,0.34389999999996235
234,3,0.8,0.25,-35.0,-1,1.0,0.22690000000011423
235,3,0.8,0.125,-35.0,-1,1.0,0.1896000000000413
236,3,0.8,0.125,-35.0,-1,1.0,0.1630999999999858
237,3,0.8,0.0,35.0,-1,0.0,0.383199999999988
238,3,0.8,0.125,-35.0,-1,1.0,0.244199999999978
239,3,0.8,0.25,-35.0,-1,1.0,0.2580000000001519
240,3,0.8,0.0625,-35.0,-1,1.0,0.2653000000001384
241,3,0.8,0.0625,-35.0,1,0.0,0.22929999999996653
242,3,0.8,1.0,-35.0,-1,1.0,0.26099999999996726
243,3,0.8,0.0,-35.0,1,0.0,5.216600000000085
244,3,0.8,0.125,-35.0,1,0.0,0.12660000000005311
245,3,0.8,0.0625,-35.0,-1,1.0,0.4677000000000362
246,3,0.8,0.125,-35.0,-1,1.0,0.3570000000000846
247,3,0.8,1.0,-35.0,-1,1.0,0.18420000000003256
248,3,0.8,1.0,-35.0,-1,1.0,0.522199999999998
249,3,0.8,1.0,35.0,1,1.0,0.1972000000000662
250,3,0.8,0.25,-35.0,-1,1.0,0.25349999999991724
251,3,0.8,0.0625,-35.0,1,0.0,0.1451000000000704
252,3,0.8,0.125,-35.0,-1,1.0,0.23910000000000764
253,3,0.8,1.0,-35.0,-1,1.0,0.3670999999999367
254,3,0.8,0.0625,35.0,1,1.0,5.608600000000024
255,3,0.8,1.0,-35.0,-1,1.0,0.21109999999998763
256,3,0.8,0.125,-35.0,-1,1.0,0.5289000000000215
257,3,0.8,0.125,-35.0,-1,1.0,0.3692000000000917
258,3,0.8,0.0625,-35.0,1,0.0,0.3341000000000349
259,3,0.8,0.0625,-35.0,1,0.0,0.4273000000000593
260,3,0.8,0.0625,35.0,-1,0.0,0.4696000000001277
261,3,0.8,0.25,35.0,1,1.0,0.5262000000000171
262,3,0.8,0.125,-35.0,-1,1.0,0.2698000000001457
263,3,0.8,1.0,35.0,1,1.0,0.16950000000008458
264,3,0.8,0.0625,-35.0,-1,1.0,0.24520000000006803
265,3,0.8,0.125,-35.0,-1,1.0,0.2676000000000158
266,3,0.8,0.0625,-35.0,-1,1.0,0.30370000000004893
267,3,0.8,0.25,-35.0,-1,1.0,0.2257000000000744
268,3,0.2,0.0,35.0,1,1.0,11.232200000000034
269,3,0.2,0.25,35.0,1,1.0,0.16640000000006694
270,3,0.2,0.0,35.0,1,1.0,0.23230000000012296
271,3,0.2,0.125,35.0,1,1.0,0.18200000000001637
272,3,0.2,0.125,35.0,1,1.0,0.19219999999995707
273,3,0.2,1.0,35.0,1,1.0,0.1874000000000251
274,3,0.2,0.25,35.0,1,1.0,0.20230000000003656
275,3,0.2,1.0,35.0,1,1.0,0.8765000000000782
276,3,0.2,0.0,-35.0,1,0.0,0.23140000000000782
277,3,0.2,1.0,35.0,1,1.0,0.1712999999999738
278,3,0.2,1.0,35.0,1,1.0,0.1674000000000433
279,3,0.2,0.125,35.0,1,1.0,0.21640000000013515
280,3,0.2,0.0625,35.0,1,1.0,0.199799999999982
281,3,0.2,1.0,35.0,1,1.0,0.1956000000000131
282,3,0.2,1.0,35.0,1,1.0,0.17240000000003874
283,3,0.2,0.125,35.0,1,1.0,0.23880000000008295
284,3,0.2,1.0,35.0,1,1.0,0.16669999999999163
285,3,0.2,1.0,35.0,1,1.0,0.17750000000012278
286,3,0.2,0.0,35.0,1,1.0,0.20840000000009695
287,3,0.2,0.125,35.0,1,1.0,0.25450000000012096
288,3,0.2,1.0,35.0,1,1.0,0.18790000000001328
289,3,0.2,0.0,35.0,-1,0.0,3.4045000000000982
290,3,0.2,0.125,-35.0,-1,1.0,0.2679000000000542
291,3,0.2,0.125,35.0,1,1.0,0.22810000000004038
292,3,0.2,0.25,35.0,1,1.0,0.18150000000014188
293,3,0.2,0.25,35.0,1,1.0,0.2515000000000782
294,3,0.2,1.0,35.0,1,1.0,0.1914999999999054
295,3,0.2,0.25,-35.0,-1,1.0,0.3550000000000182
296,3,0.2,0.0625,35.0,1,1.0,2.718299999999772
297,3,0.2,0.125,35.0,1,1.0,0.4152000000001408
298,3,0.2,0.125,35.0,1,1.0,0.2417000000000371
299,3,0.2,0.0625,35.0,1,1.0,0.9690000000000509
300,3,0.2,1.0,35.0,1,1.0,0.18429999999989377
301,3,0.2,0.125,35.0,1,1.0,0.2077999999999065
302,3,0.2,0.25,35.0,1,1.0,1.1877999999999247
303,3,0.2,0.125,35.0,1,1.0,0.2545999999997548
304,3,0.2,0.125,35.0,1,1.0,0.2079999999998563
305,3,0.2,0.25,35.0,1,1.0,0.1879999999998745
306,3,0.2,0.25,35.0,1,1.0,0.24479999999994106
307,3,0.8,0.125,-35.0,-1,1.0,0.26149999999984175
308,3,0.8,0.0625,-35.0,1,0.0,0.2282999999997628
309,3,0.8,0.25,-35.0,1,0.0,0.05509999999981119
310,3,0.8,0.0,35.0,1,1.0,0.20839999999998327
311,3,0.8,1.0,-35.0,-1,1.0,0.23179999999979373
312,3,0.8,0.125,35.0,1,1.0,0.21849999999994907
313,3,0.8,0.0625,-35.0,-1,1.0,0.28530000000000655
314,3,0.8,0.25,35.0,1,1.0,0.30199999999990723
315,3,0.8,1.0,-35.0,-1,1.0,0.20529999999985193
316,3,0.8,0.25,-35.0,-1,1.0,0.23869999999988067
317,3,0.8,0.125,35.0,1,1.0,0.16879999999991924
318,3,0.8,1.0,-35.0,-1,1.0,0.2055000000000291
319,3,0.8,0.25,-35.0,-1,1.0,0.2623000000000957
320,3,0.8,1.0,-35.0,-1,1.0,0.19239999999990687
321,3,0.8,0.25,-35.0,-1,1.0,0.23909999999978027
322,3,0.8,0.0625,35.0,1,1.0,0.32579999999984466
323,3,0.8,1.0,35.0,1,1.0,0.17259999999987485
324,3,0.8,0.25,-35.0,-1,1.0,0.27920000000017353
325,3,0.8,0.25,35.0,1,1.0,0.2058999999999287
326,3,0.8,0.0,-35.0,-1,1.0,9.829299999999876
327,3,0.8,0.25,-35.0,-1,1.0,0.25289999999995416
328,3,0.8,1.0,-35.0,-1,1.0,0.23299999999971988
329,3,0.8,0.125,-35.0,-1,1.0,0.25969999999983884
330,3,0.8,1.0,-35.0,-1,1.0,0.2097999999998592
331,3,0.8,1.0,-35.0,-1,1.0,0.27319999999986067
332,3,0.8,0.0625,-35.0,-1,1.0,0.19649999999978718
333,3,0.8,0.0625,-35.0,-1,1.0,0.5432999999998174
334,3,0.8,0.0625,-35.0,-1,1.0,0.21000000000003638
335,3,0.8,0.25,-35.0,-1,1.0,0.33349999999995816
336,3,0.8,1.0,-35.0,-1,1.0,0.2536000000000058
337,3,0.8,0.25,-35.0,-1,1.0,0.2502999999996973
338,3,0.8,0.25,-35.0,-1,1.0,0.2703999999998814
339,3,0.8,0.0625,-35.0,-1,1.0,0.3605000000000018
340,3,0.8,0.25,-35.0,-1,1.0,0.2637999999999465
341,3,0.8,1.0,35.0,1,1.0,0.3171999999997297
342,3,0.8,0.125,35.0,-1,0.0,0.7040999999999258
343,3,0.8,1.0,-35.0,-1,1.0,0.20739999999977954
344,3,0.8,0.0625,-35.0,1,0.0,0.2340999999998985
345,3,0.8,1.0,-35.0,-1,1.0,0.2475000000001728
346,3,0.8,0.0625,-35.0,-1,1.0,0.26109999999994216
347,3,0.8,1.0,-35.0,-1,1.0,0.24430000000006658
348,3,0.8,0.0,-35.0,1,0.0,5.877799999999752
349,3,0.8,0.25,35.0,1,1.0,0.22119999999972606
350,3,0.8,0.0625,-35.0,-1,1.0,0.2578999999998359
351,3,0.8,0.25,-35.0,-1,1.0,0.268100000000004
352,3,0.8,0.0625,35.0,-1,0.0,0.7181000000000495
353,3,0.8,0.0625,-35.0,-1,1.0,0.2881999999999607
354,3,0.8,0.25,-35.0,-1,1.0,0.2216000000000804
355,3,0.8,0.125,-35.0,-1,1.0,0.334999999999809
356,3,0.8,0.0625,35.0,-1,0.0,0.4552000000001044
357,3,0.8,0.125,-35.0,-1,1.0,0.2718999999999596
358,3,0.8,1.0,-35.0,-1,1.0,0.24189999999975953
359,3,0.8,1.0,-35.0,-1,1.0,0.2518999999999778
360,3,0.8,1.0,-35.0,-1,1.0,0.2619999999999436
361,3,0.8,0.0625,-35.0,-1,1.0,0.33539999999993597
362,3,0.8,0.125,-35.0,-1,1.0,0.2722000000001117
363,3,0.8,0.25,35.0,1,1.0,0.19219999999995707
364,3,0.8,0.0625,35.0,1,1.0,0.7522999999998774
365,3,0.8,0.0625,-35.0,1,0.0,0.24559999999996762
366,3,0.8,1.0,-35.0,-1,1.0,0.21570000000019718
367,3,0.8,0.0625,-35.0,-1,1.0,1.3357999999998356
368,3,0.8,0.0625,-35.0,-1,1.0,0.5791999999999007
369,3,0.8,0.0,-35.0,1,0.0,0.2925999999997657
370,3,0.8,0.0,-35.0,-1,1.0,0.2960000000000491
371,3,0.8,0.25,-35.0,-1,1.0,0.24939999999992324
372,3,0.8,0.125,-35.0,-1,1.0,0.23949999999990723
373,3,0.8,0.125,35.0,1,1.0,0.23959999999988213
374,3,0.8,1.0,35.0,1,1.0,0.1995999999999185
375,3,0.8,0.0,-35.0,1,0.0,4.336299999999937
376,3,0.8,0.0625,-35.0,-1,1.0,0.31310000000007676
377,3,0.8,0.25,-35.0,-1,1.0,0.2932999999998174
378,3,0.8,0.0625,-35.0,-1,1.0,0.30989999999997053
379,3,0.8,0.25,-35.0,-1,1.0,0.3066999999998643
380,3,0.8,1.0,-35.0,-1,1.0,0.2500999999997475
381,3,0.8,1.0,-35.0,-1,1.0,0.2001999999997679
382,3,0.8,1.0,-35.0,-1,1.0,0.21019999999998618
383,3,0.8,0.125,-35.0,-1,1.0,0.37020000000006803
384,3,0.8,0.0625,-35.0,-1,1.0,0.25369999999975335
385,3,0.8,0.25,35.0,1,1.0,0.20709999999985484
386,3,0.8,0.0,-35.0,-1,1.0,0.49709999999981846
387,3,0.8,0.25,35.0,1,1.0,0.22059999999987667
388,3,0.8,0.125,-35.0,-1,1.0,0.27729999999996835
389,3,0.8,0.125,-35.0,-1,1.0,0.290599999999813
390,3,0.8,0.125,-35.0,-1,1.0,0.520799999999781
391,3,0.8,0.0625,-35.0,-1,1.0,0.2540999999998803
392,3,0.8,0.0625,-35.0,-1,1.0,0.06420000000002801
393,3,0.8,1.0,-35.0,-1,1.0,0.25759999999991123
394,3,0.8,1.0,-35.0,-1,1.0,0.3853999999998905
395,3,0.2,0.125,35.0,1,1.0,0.35209999999983665
396,3,0.2,1.0,35.0,1,1.0,0.15889999999990323
397,3,0.2,0.25,-35.0,-1,1.0,0.4521999999997206
398,3,0.2,0.125,-35.0,-1,1.0,0.555699999999888
399,3,0.2,0.25,35.0,1,1.0,0.4490000000000691
400,3,0.2,0.0,35.0,-1,0.0,0.7857999999996537
401,3,0.2,1.0,35.0,1,1.0,0.17589999999995598
402,3,0.2,0.0625,-35.0,-1,1.0,1.0795999999998003
403,3,0.2,0.25,35.0,1,1.0,0.6060999999999694
404,3,0.2,0.25,35.0,1,1.0,0.34609999999975116
405,3,0.2,0.0625,-35.0,-1,1.0,0.6226999999998952
406,3,0.2,1.0,35.0,1,1.0,0.21969999999987522
407,3,0.2,0.0,35.0,1,1.0,0.6563999999998487
408,3,0.2,0.25,-35.0,-1,1.0,0.26979999999980464
409,3,0.2,1.0,35.0,1,1.0,0.42970000000013897
410,3,0.2,0.125,35.0,1,1.0,0.5667000000000826
411,3,0.2,0.25,35.0,1,1.0,0.18309999999996762
412,3,0.2,1.0,35.0,1,1.0,0.16679999999996653
413,3,0.2,0.25,35.0,1,1.0,0.19670000000019172
414,3,0.2,0.125,35.0,1,1.0,0.19010000000002947
415,3,0.2,0.0625,35.0,1,1.0,0.7537999999999556
416,3,0.2,0.0625,-35.0,1,0.0,0.16380000000003747
417,3,0.2,0.25,35.0,1,1.0,0.17689999999993233
418,3,0.8,0.0,-35.0,1,0.0,4.42029999999977
419,3,0.8,0.0625,-35.0,-1,1.0,0.5403999999996358
420,3,0.8,0.125,35.0,1,1.0,0.43400000000019645
421,3,0.8,0.25,35.0,1,1.0,0.10399999999981446
422,3,0.8,0.25,-35.0,-1,1.0,0.25739999999973406
423,3,0.8,0.25,-35.0,-1,1.0,0.2839999999998781
424,3,0.8,0.125,-35.0,-1,1.0,0.45080000000007203
425,3,0.8,1.0,-35.0,-1,1.0,0.22410000000013497
426,3,0.8,0.0,-35.0,1,0.0,4.217899999999872
427,3,0.8,0.125,-35.0,-1,1.0,0.2979000000000269
428,3,0.8,0.25,35.0,1,1.0,0.21119999999996253
429,3,0.8,0.25,-35.0,-1,1.0,0.2445999999997639
430,3,0.8,0.125,-35.0,-1,1.0,0.25139999999987594
431,3,0.8,0.0625,-35.0,-1,1.0,0.2484999999996944
432,3,0.8,0.125,-35.0,-1,1.0,0.20820000000003347
433,3,0.8,1.0,-35.0,-1,1.0,0.16830000000004475
434,3,0.8,0.125,-35.0,-1,1.0,0.34839999999985594
435,3,0.8,0.125,-35.0,-1,1.0,0.23499999999989996
436,3,0.8,0.25,-35.0,-1,1.0,0.24849999999992178
437,3,0.8,0.0,35.0,1,1.0,0.2819999999999254
438,3,0.8,0.125,-35.0,-1,1.0,0.5085999999998876
439,3,0.8,0.25,35.0,1,1.0,0.2220999999999549
440,3,0.8,0.125,-35.0,-1,1.0,0.2819999999999254
441,3,0.8,0.0625,-35.0,-1,1.0,1.1354999999998654
442,3,0.8,0.25,-35.0,-1,1.0,0.24919999999997344
443,3,0.2,0.25,35.0,1,1.0,0.42239999999992506
444,3,0.2,0.125,35.0,1,1.0,0.21909999999979846
445,3,0.2,1.0,35.0,1,1.0,0.07910000000015316
446,3,0.2,0.25,-35.0,-1,1.0,0.2723999999998341
447,3,0.2,0.0625,35.0,1,1.0,0.23309999999969477
448,3,0.2,1.0,35.0,1,1.0,0.20920000000000982
449,3,0.2,1.0,35.0,1,1.0,0.17610000000013315
450,3,0.2,0.25,35.0,1,1.0,0.20929999999998472
451,3,0.2,0.25,35.0,1,1.0,0.18609999999989668
452,3,0.2,0.125,35.0,1,1.0,0.2060999999998785
453,3,0.2,0.25,35.0,1,1.0,0.21309999999971296
454,3,0.2,0.125,35.0,1,1.0,0.26319999999986976
455,3,0.2,1.0,35.0,1,1.0,0.18309999999996762
456,3,0.2,0.25,35.0,1,1.0,0.20319999999992433
457,3,0.2,0.25,35.0,1,1.0,0.23019999999996799
458,3,0.2,1.0,35.0,1,1.0,0.20669999999995525
459,3,0.2,0.0,-35.0,1,0.0,8.519999999999754
460,3,0.2,1.0,35.0,1,1.0,0.16699999999991633
461,3,0.2,0.25,35.0,1,1.0,0.22699999999986176
462,3,0.2,0.0,35.0,1,1.0,7.760400000000118
463,3,0.2,0.0,-35.0,1,0.0,3.7937999999999192
464,3,0.2,0.25,35.0,1,1.0,0.19399999999995998
465,3,0.2,0.25,-35.0,-1,1.0,0.26739999999995234
466,3,0.2,1.0,35.0,1,1.0,0.21749999999997272
467,3,0.2,1.0,35.0,1,1.0,0.16079999999988104
468,3,0.2,0.0625,35.0,1,1.0,0.17460000000005493
469,3,0.2,1.0,-35.0,-1,1.0,0.25109999999995125
470,3,0.2,0.25,35.0,1,1.0,0.40439999999989595
471,3,0.2,0.0625,35.0,1,1.0,0.741399999999885
472,3,0.2,1.0,35.0,1,1.0,0.18810000000007676
473,3,0.2,0.25,35.0,1,1.0,0.20470000000000255
474,3,0.2,1.0,35.0,1,1.0,0.20139999999992142
475,3,0.2,0.0625,35.0,1,1.0,2.748099999999795
476,3,0.2,0.25,35.0,1,1.0,0.2583999999999378
477,3,0.8,1.0,35.0,1,1.0,0.17489999999997963
478,3,0.8,0.0625,-35.0,-1,1.0,0.48840000000018335
479,3,0.8,0.0625,-35.0,-1,1.0,0.2717999999999847
480,3,0.8,1.0,-35.0,-1,1.0,0.23519999999984975
481,3,0.8,0.125,-35.0,-1,1.0,0.26860000000010587
482,3,0.8,0.25,35.0,1,1.0,0.4054999999998472
483,3,0.8,0.0,-35.0,-1,1.0,0.39249999999992724
484,3,0.8,0.0,-35.0,-1,1.0,1.5154999999999745
485,3,0.8,1.0,-35.0,-1,1.0,0.35920000000010077
486,3,0.8,0.125,-35.0,-1,1.0,0.12229999999999563
487,3,0.8,1.0,-35.0,-1,1.0,0.2057999999999538
488,3,0.8,0.125,-35.0,-1,1.0,0.22910000000001673
489,3,0.8,1.0,-35.0,-1,1.0,0.20259999999984757
490,3,0.8,0.125,-35.0,-1,1.0,0.21260000000006585
491,3,0.8,0.25,-35.0,-1,1.0,0.2359999999998763
492,3,0.8,0.0,-35.0,-1,1.0,2.725900000000138
493,3,0.8,0.125,-35.0,-1,1.0,0.27599999999983993
494,3,0.8,0.125,-35.0,-1,1.0,0.6264000000001033
495,3,0.8,1.0,35.0,1,1.0,0.5796000000000276
496,3,0.8,0.0,-35.0,1,0.0,1.0265999999999167
497,3,0.8,0.0625,-35.0,-1,1.0,0.32960000000002765
498,3,0.8,1.0,-35.0,-1,1.0,0.24319999999988795
499,3,0.8,0.0625,-35.0,-1,1.0,0.6666999999997643
500,3,0.8,0.0,-35.0,1,0.0,1.759999999999991
501,3,0.8,0.125,35.0,1,1.0,0.19020000000000437
502,3,0.8,0.25,-35.0,-1,1.0,0.2866999999998825
503,3,0.8,0.125,35.0,1,1.0,0.2701999999999316
504,3,0.8,0.0625,-35.0,-1,1.0,0.3268999999997959
505,3,0.8,0.0625,35.0,1,1.0,0.2037000000000262
506,3,0.8,0.25,-35.0,-1,1.0,0.4903999999999087
507,3,0.8,0.25,-35.0,-1,1.0,0.4637999999997646
508,3,0.8,0.0625,-35.0,-1,1.0,0.7506999999998243
509,3,0.8,0.0625,-35.0,-1,1.0,0.3372999999999138
510,3,0.8,0.0625,-35.0,-1,1.0,0.2942999999997937
511,3,0.8,0.0,-35.0,1,0.0,2.847799999999779
512,3,0.8,0.125,-35.0,-1,1.0,0.5812999999998283
513,3,0.8,0.25,-35.0,-1,1.0,0.407799999999952
514,3,0.8,0.125,-35.0,-1,1.0,0.30789999999979045
515,3,0.8,1.0,-35.0,-1,1.0,0.3079000000000178
516,3,0.8,1.0,35.0,1,1.0,0.17489999999997963
517,3,0.8,0.125,-35.0,-1,1.0,0.3215999999997621
518,3,0.8,1.0,35.0,1,1.0,0.16489999999998872
519,3,0.8,0.0625,35.0,1,1.0,0.26139999999986685
520,3,0.8,0.25,-35.0,-1,1.0,0.23489999999992506
521,3,0.8,0.25,-35.0,-1,1.0,0.2516000000000531
522,3,0.8,0.0625,-35.0,-1,1.0,0.4882999999997537
523,3,0.8,0.25,35.0,1,1.0,0.18489999999997053
524,3,0.8,0.0,-35.0,1,0.0,4.388999999999896
525,3,0.8,0.25,-35.0,-1,1.0,0.22849999999993997
526,3,0.8,0.0,35.0,-1,0.0,0.25520000000005894
527,3,0.8,1.0,35.0,1,1.0,0.21549999999979264
528,3,0.8,0.0625,-35.0,-1,1.0,0.28559999999993124
529,3,0.2,0.0,35.0,1,1.0,0.2520999999999276
530,3,0.2,1.0,-35.0,-1,1.0,0.23240000000009786
531,3,0.2,0.125,-35.0,-1,1.0,0.26900000000000546
532,3,0.2,0.25,35.0,1,1.0,0.19569999999976062
533,3,0.2,0.0,35.0,1,1.0,0.6189999999999145
534,3,0.2,0.0,35.0,1,1.0,0.23899999999980537
535,3,0.2,0.25,35.0,1,1.0,0.18599999999992178
536,3,0.2,0.25,35.0,1,1.0,0.21929999999974825
537,3,0.2,0.0625,35.0,1,1.0,0.5660999999997784
538,3,0.2,0.0,35.0,-1,0.0,0.5560999999997875
539,3,0.2,1.0,35.0,1,1.0,0.17629999999985557
540,3,0.2,0.125,35.0,1,1.0,0.19309999999995853
541,3,0.2,0.0,35.0,1,1.0,3.456499999999778
542,3,0.2,1.0,35.0,1,1.0,0.16649999999981446
543,3,0.2,1.0,35.0,1,1.0,0.1833000000001448
544,3,0.2,0.125,35.0,1,1.0,0.18020000000001346
545,3,0.2,0.0625,35.0,1,1.0,0.2301999999997406
546,3,0.2,0.125,-35.0,-1,1.0,0.3033999999997832
547,3,0.2,0.0,35.0,1,1.0,0.2135000000000673
548,3,0.2,0.0625,35.0,1,1.0,0.30019900000002053
549,3,0.2,0.0625,-35.0,-1,1.0,0.35369999999988977
550,3,0.2,0.0625,35.0,1,1.0,0.23369999999977153
551,3,0.2,0.125,-35.0,-1,1.0,0.30719999999996617
552,3,0.2,0.0,35.0,1,1.0,0.5073000000002139
553,3,0.2,0.0625,35.0,1,1.0,0.7972999999997228
554,3,0.2,0.125,35.0,1,1.0,0.440700000000561
555,3,0.2,0.0,35.0,1,1.0,0.2775000000001455
556,3,0.2,0.125,-35.0,-1,1.0,0.19090000000005602
557,3,0.8,0.0625,-35.0,-1,1.0,0.2908999999999651
558,3,0.8,0.25,-35.0,-1,1.0,0.2582000000006701
559,3,0.8,0.25,-35.0,-1,1.0,0.2714000000005399
560,3,0.8,0.25,-35.0,-1,1.0,0.2381000000000313
561,3,0.8,0.25,35.0,1,1.0,0.2314000000001215
562,3,0.8,0.0,-35.0,-1,1.0,0.19790000000011787
563,3,0.8,0.125,-35.0,-1,1.0,0.9846999999999753
564,3,0.8,0.25,-35.0,-1,1.0,0.09160000000019863
565,3,0.8,0.0625,-35.0,1,0.0,0.5684000000001106
566,3,0.8,0.0,-35.0,-1,1.0,0.29830000000038126
567,3,0.8,1.0,-35.0,-1,1.0,0.1350999999999658
568,3,0.8,1.0,-35.0,-1,1.0,0.2118000000000393
569,3,0.8,1.0,-35.0,-1,1.0,0.2684999999996762
570,3,0.8,0.125,-35.0,-1,1.0,0.32540000000017244
571,3,0.8,0.0625,-35.0,-1,1.0,3.312000000000353
572,3,0.8,1.0,-35.0,-1,1.0,0.1989000000003216
573,3,0.8,0.0625,-35.0,-1,1.0,0.2822999999998501
574,3,0.8,0.25,35.0,1,1.0,0.18580000000019936
575,3,0.8,0.125,-35.0,-1,1.0,0.2858000000001084
576,3,0.8,1.0,-35.0,-1,1.0,0.27570000000059736
577,3,0.8,0.25,-35.0,-1,1.0,0.16600000000016735
578,3,0.8,1.0,-35.0,-1,1.0,0.13610000000062428
579,3,0.8,1.0,-35.0,-1,1.0,0.3026999999997315
580,3,0.2,0.125,35.0,1,1.0,0.3863000000001193
581,3,0.2,1.0,35.0,1,1.0,0.3166000000001077
582,3,0.2,1.0,35.0,1,1.0,0.7566000000001623
583,3,0.2,1.0,35.0,1,1.0,0.18339999999989232
584,3,0.2,1.0,-35.0,-1,1.0,0.2232000000003609
585,3,0.2,0.25,-35.0,-1,1.0,0.25370000000066284
586,3,0.2,1.0,35.0,1,1.0,0.5466000000001259
587,3,0.2,1.0,35.0,1,1.0,0.18670000000020082
588,3,0.2,0.0625,35.0,1,1.0,3.970100000000457
589,3,0.2,0.125,35.0,1,1.0,0.7966999999998734
590,3,0.2,0.0625,35.0,1,1.0,0.21689999999989595
591,3,0.2,0.25,35.0,1,1.0,0.21070000000008804
592,3,0.2,0.0,-35.0,1,0.0,0.6037999999998647
593,3,0.2,0.0,35.0,1,1.0,0.3670999999999367
594,3,0.2,0.25,-35.0,-1,1.0,0.25720000000001164
595,3,0.2,0.25,35.0,1,1.0,0.16719999999986612
596,3,0.2,0.25,35.0,1,1.0,0.197400000000016
597,3,0.2,0.0625,35.0,1,1.0,0.2873999999997068
598,3,0.2,1.0,35.0,1,1.0,0.17090000000007421
599,3,0.2,1.0,35.0,1,1.0,0.19420000000036453
600,3,0.2,0.0625,35.0,1,1.0,0.2710000000006403
601,3,0.2,0.125,35.0,1,1.0,0.21460000000024593
602,3,0.2,0.0625,35.0,1,1.0,0.2578000000003158
603,3,0.2,0.0,-35.0,1,0.0,0.501100000000406
604,3,0.2,0.0625,35.0,1,1.0,0.4814000000001215
605,3,0.2,0.0625,35.0,1,1.0,1.2714999999998327
606,3,0.2,0.25,35.0,1,1.0,0.19800000000032014
607,3,0.2,0.125,35.0,1,1.0,0.18479999999999563
608,3,0.2,0.125,35.0,1,1.0,0.25820000000021537
609,3,0.2,1.0,35.0,1,1.0,0.37820000000010623
610,3,0.2,1.0,35.0,1,1.0,0.2106999999996333
611,3,0.2,0.25,35.0,-1,0.0,0.947400000000016
612,3,0.2,0.125,35.0,1,1.0,0.7241000000003623
613,3,0.2,0.25,-35.0,-1,1.0,0.23749999999972715
614,3,0.2,0.125,35.0,1,1.0,0.2276000000001659
615,3,0.2,0.0625,35.0,1,1.0,0.24430000000029395
616,3,0.2,0.125,35.0,1,1.0,0.2143000000005486
617,3,0.2,0.0,35.0,-1,0.0,1.3144999999999527
618,3,0.2,0.25,35.0,1,1.0,0.2244999999998072
619,3,0.2,0.0625,35.0,1,1.0,0.45460000000002765
620,3,0.2,0.0625,35.0,1,1.0,0.9414000000001579
621,3,0.2,1.0,-35.0,-1,1.0,0.2647999999999229
622,3,0.2,0.0625,35.0,1,1.0,0.6282000000001062
623,3,0.2,1.0,35.0,1,1.0,0.2116000000000895
624,3,0.2,0.125,35.0,1,1.0,0.5315999999997985
625,3,0.2,0.25,35.0,1,1.0,0.4551000000001295
626,3,0.2,0.0625,35.0,1,1.0,0.16840000000001965
627,3,0.2,0.25,35.0,1,1.0,0.21860000000015134
628,3,0.2,0.125,35.0,1,1.0,0.4586000000003878
629,3,0.2,0.125,-35.0,-1,1.0,0.23540000000048167
630,3,0.2,1.0,35.0,1,1.0,0.20879999999988286
631,3,0.2,0.0,35.0,1,1.0,0.40219999999999345
632,3,0.2,1.0,35.0,1,1.0,0.23890000000028522
633,3,0.2,0.25,35.0,1,1.0,0.42889999999988504
634,3,0.2,1.0,35.0,1,1.0,0.4157000000000153
635,3,0.2,0.25,-35.0,-1,1.0,0.23919999999998254
636,3,0.2,1.0,35.0,1,1.0,0.23919999999998254
637,3,0.2,0.0625,35.0,1,1.0,0.7325000000000728
638,3,0.2,0.0,35.0,1,1.0,0.3793000000000575
639,3,0.2,1.0,35.0,1,1.0,0.17599999999993088
640,3,0.2,0.125,-35.0,-1,1.0,0.2761000000000422
641,3,0.2,0.125,-35.0,-1,1.0,0.3528000000001157
642,3,0.2,0.125,35.0,1,1.0,0.24620000000004438
643,3,0.2,0.125,-35.0,-1,1.0,0.27630000000044674
644,3,0.2,0.0625,35.0,1,1.0,0.5997000000002117
645,3,0.2,0.0,35.0,1,1.0,0.4497999999998683
646,3,0.2,0.25,-35.0,-1,1.0,0.2764999999999418
647,3,0.2,0.0625,35.0,1,1.0,0.48649999999997817
648,3,0.2,0.125,35.0,1,1.0,0.24659999999994398
649,3,0.2,0.125,35.0,1,1.0,0.23010000000022046
650,3,0.2,0.0625,35.0,1,1.0,0.29340000000001965
651,3,0.2,1.0,35.0,1,1.0,0.20349999999962165
652,3,0.2,0.0625,35.0,1,1.0,0.5804000000002816
653,3,0.2,1.0,35.0,1,1.0,0.18699999999989814
654,3,0.2,1.0,-35.0,-1,1.0,0.2537000000002081
655,3,0.2,0.25,-35.0,-1,1.0,0.22370000000046275
656,3,0.2,0.0,35.0,1,1.0,1.6104999999997744
657,3,0.2,0.125,35.0,1,1.0,0.6673000000000684
658,3,0.2,0.0625,35.0,1,1.0,0.40740000000050713
659,3,0.2,0.0,35.0,1,1.0,2.8674000000005435
660,3,0.2,1.0,-35.0,-1,1.0,0.20080000000007203
661,3,0.2,1.0,35.0,1,1.0,0.21420000000034634
662,3,0.2,0.0625,35.0,1,1.0,0.2209000000002561
663,3,0.2,0.0,-35.0,1,0.0,0.5243000000000393
664,3,0.2,0.0625,35.0,1,1.0,0.27770000000055006
665,3,0.2,0.25,-35.0,-1,1.0,0.9744000000000597
666,3,0.2,0.0625,35.0,1,1.0,0.23800000000028376
667,3,0.2,0.125,35.0,1,1.0,0.7580000000002656
668,3,0.2,0.125,-35.0,-1,1.0,0.23800000000028376
669,3,0.2,0.125,35.0,1,1.0,0.4080000000003565
670,3,0.2,1.0,35.0,1,1.0,0.19150000000036016
671,3,0.2,0.125,35.0,1,1.0,0.6048999999998159
672,3,0.8,0.0625,-35.0,1,0.0,0.26490000000012515
673,3,0.8,0.0625,-35.0,-1,1.0,0.3716999999996915
674,3,0.8,0.25,35.0,1,1.0,0.2617000000000189
675,3,0.8,0.0,-35.0,1,0.0,0.4851000000003296
1,4,0.5,0.125,-35.0,-1,1.0,0.4848000000000001
2,4,0.5,0.25,-35.0,-1,1.0,0.2646000000000006
3,4,0.5,0.25,35.0,1,1.0,0.3932000000000002
4,4,0.5,1.0,35.0,1,1.0,0.19390000000000285
5,4,0.5,0.0,-35.0,-1,1.0,0.248899999999999
6,4,0.5,1.0,-35.0,-1,1.0,0.2530999999999999
7,4,0.5,0.0,-35.0,-1,1.0,0.4942999999999991
8,4,0.5,0.0625,35.0,1,1.0,0.28040000000000376
9,4,0.5,0.25,-35.0,1,0.0,0.471899999999998
10,4,0.5,1.0,35.0,1,1.0,0.20479999999999876
11,4,0.5,0.0625,-35.0,1,0.0,2.621399999999994
12,4,0.5,0.0625,35.0,1,1.0,0.23900000000000432
13,4,0.5,1.0,35.0,1,1.0,0.28000000000000114
14,4,0.5,0.0625,35.0,-1,0.0,0.0461999999999918
15,4,0.5,0.0,35.0,1,1.0,0.31500000000000483
16,4,0.5,1.0,-35.0,-1,1.0,0.21589999999999065
17,4,0.5,0.0,35.0,1,1.0,0.5884999999999891
18,4,0.5,0.0,-35.0,1,0.0,0.3813999999999851
19,4,0.5,0.0,35.0,1,1.0,0.22279999999999234
20,4,0.5,0.125,-35.0,-1,1.0,0.2621999999999929
21,4,0.5,0.25,-35.0,-1,1.0,0.2843999999999909
22,4,0.5,1.0,-35.0,-1,1.0,0.296599999999998
23,4,0.5,0.125,-35.0,-1,1.0,0.29119999999998925
24,4,0.5,0.0625,-35.0,-1,1.0,0.2884999999999849
25,4,0.5,0.0625,35.0,1,1.0,0.9538999999999902
26,4,0.5,1.0,35.0,1,1.0,0.16249999999999432
27,4,0.5,0.25,-35.0,-1,1.0,0.30639999999999645
28,4,0.5,0.25,35.0,1,1.0,1.4151999999999845
29,4,0.5,0.125,35.0,1,1.0,0.19810000000001082
30,4,0.5,0.0625,35.0,1,1.0,0.3392999999999944
31,4,0.5,1.0,-35.0,-1,1.0,0.24509999999999366
32,4,0.5,0.0,-35.0,1,0.0,0.5752000000000095
33,4,0.5,1.0,-35.0,-1,1.0,0.35029999999999006
34,4,0.5,0.25,35.0,1,1.0,0.2114000000000118
35,4,0.5,0.0625,-35.0,1,0.0,0.372799999999998
36,4,0.5,0.25,-35.0,-1,1.0,0.24320000000000164
37,4,0.5,0.125,-35.0,-1,1.0,0.4141999999999939
38,4,0.5,0.25,35.0,1,1.0,0.3794000000000324
39,4,0.5,0.125,35.0,1,1.0,1.822499999999991
40,4,0.5,1.0,35.0,1,1.0,0.1956000000000131
41,4,0.5,0.25,35.0,1,1.0,0.17279999999999518
42,4,0.5,0.0625,35.0,1,1.0,0.28590000000002647
43,4,0.5,0.0625,-35.0,1,0.0,0.19129999999998404
44,4,0.5,0.0625,35.0,1,1.0,0.18840000000000146
45,4,0.5,1.0,-35.0,-1,1.0,0.2452000000000112
46,4,0.5,1.0,-35.0,-1,1.0,0.22580000000002087
47,4,0.5,0.0,-35.0,1,0.0,0.2189000000000192
48,4,0.5,0.125,35.0,1,1.0,0.3106000000000222
49,4,0.5,0.0625,35.0,1,1.0,2.3533000000000186
50,4,0.5,0.25,35.0,1,1.0,0.200300000000027
51,4,0.5,1.0,-35.0,-1,1.0,0.48920000000001096
52,4,0.5,0.125,35.0,1,1.0,0.22350000000002979
53,4,0.5,0.125,35.0,1,1.0,0.19589999999999463
54,4,0.5,1.0,-35.0,-1,1.0,0.25900000000001455
55,4,0.5,0.25,-35.0,-1,1.0,0.22400000000001796
56,4,0.5,0.0,-35.0,1,0.0,0.8854000000000042
57,4,0.5,0.0625,35.0,1,1.0,0.21869999999998413
58,4,0.5,0.0625,-35.0,1,0.0,3.8170000000000073
59,4,0.5,1.0,35.0,1,1.0,0.21100000000001273
60,4,0.5,0.0,35.0,1,1.0,2.7161000000000115
61,4,0.5,0.125,-35.0,-1,1.0,0.041500000000013415
62,4,0.5,1.0,-35.0,-1,1.0,0.2143000000000086
63,4,0.5,0.125,35.0,1,1.0,1.21550000000002
64,4,0.5,0.125,-35.0,-1,1.0,0.24789999999998713
65,4,0.5,0.125,35.0,1,1.0,0.5831000000000301
66,4,0.5,0.25,35.0,1,1.0,0.18189999999998463
67,4,0.5,0.25,-35.0,-1,1.0,0.4457000000000164
68,4,0.5,1.0,-35.0,-1,1.0,0.26310000000000855
69,4,0.5,0.125,35.0,-1,0.0,0.22470000000001278
70,4,0.5,0.25,-35.0,-1,1.0,0.23950000000002092
71,4,0.5,0.0,-35.0,-1,1.0,0.31389999999998963
72,4,0.5,0.25,-35.0,-1,1.0,0.28930000000002565
73,4,0.5,0.0625,35.0,-1,0.0,0.48160000000001446
74,4,0.5,1.0,-35.0,-1,1.0,0.2536000000000058
75,4,0.5,0.0,-35.0,1,0.0,0.348199999999963
76,4,0.5,0.25,-35.0,-1,1.0,0.2119000000000142
77,4,0.5,0.25,-35.0,-1,1.0,0.49720000000002074
78,4,0.5,1.0,-35.0,-1,1.0,0.22810000000004038
79,4,0.5,0.25,35.0,1,1.0,0.20860000000004675
80,4,0.5,0.25,35.0,1,1.0,1.1341999999999643
81,4,0.5,0.0625,35.0,-1,0.0,0.49410000000005994
82,4,0.5,0.25,35.0,1,1.0,0.19420000000002346
83,4,0.5,1.0,35.0,1,1.0,0.17269999999996344
84,4,0.5,0.0625,-35.0,-1,1.0,0.24569999999999936
85,4,0.5,1.0,-35.0,-1,1.0,0.1977000000000544
86,4,0.5,0.25,35.0,1,1.0,0.6877999999999815
87,4,0.5,0.25,-35.0,-1,1.0,0.25380000000001246
88,4,0.5,0.125,-35.0,-1,1.0,0.21510000000000673
89,4,0.5,1.0,-35.0,-1,1.0,0.2055000000000291
90,4,0.5,0.0625,35.0,-1,0.0,0.29570000000001073
91,4,0.2,0.25,35.0,1,1.0,0.16849999999999454
92,4,0.2,0.125,-35.0,-1,1.0,0.22800000000000864
93,4,0.2,0.0625,35.0,1,1.0,0.25490000000002055
94,4,0.2,1.0,35.0,1,1.0,0.18900000000002137
95,4,0.2,0.0625,-35.0,1,0.0,2.6819999999999595
96,4,0.2,0.125,35.0,1,1.0,0.18280000000004293
97,4,0.2,1.0,35.0,1,1.0,0.19680000000005293
98,4,0.2,0.25,-35.0,-1,1.0,0.4352000000000089
99,4,0.2,0.25,35.0,1,1.0,0.2417000000000371
100,4,0.2,0.0,35.0,-1,0.0,8.304900000000032
101,4,0.2,0.0625,-35.0,-1,1.0,0.46200000000004593
102,4,0.2,0.125,35.0,1,1.0,0.25530000000003383
103,4,0.2,1.0,35.0,1,1.0,0.18079999999997654
104,4,0.2,0.125,35.0,1,1.0,0.4793000000000802
105,4,0.2,0.0625,35.0,1,1.0,1.447300000000041
106,4,0.2,1.0,-35.0,-1,1.0,0.43100000000004
107,4,0.2,1.0,35.0,1,1.0,0.043800000000032924
108,4,0.2,0.0625,35.0,1,1.0,0.37229999999999563
109,4,0.2,1.0,35.0,1,1.0,0.1714000000000624
110,4,0.2,0.25,35.0,1,1.0,0.20190000000002328
111,4,0.2,0.125,35.0,1,1.0,0.6020000000000323
112,4,0.2,0.0,-35.0,1,0.0,1.4190000000000396
113,4,0.2,0.125,35.0,1,1.0,0.6822999999999979
114,4,0.2,1.0,35.0,1,1.0,0.20520000000004757
115,4,0.2,0.25,35.0,1,1.0,0.22500000000002274
116,4,0.2,0.25,35.0,1,1.0,0.20730000000003201
117,4,0.2,0.0625,35.0,1,1.0,0.7360999999999649
118,4,0.2,0.0,-35.0,1,0.0,5.687400000000025
119,4,0.2,0.125,35.0,1,1.0,0.20909999999997808
120,4,0.2,0.25,35.0,1,1.0,0.22249999999996817
121,4,0.2,0.125,35.0,1,1.0,1.9481000000000108
122,4,0.2,0.0,35.0,1,1.0,7.973599999999976
123,4,0.2,0.25,35.0,1,1.0,0.20079999999995835
124,4,0.8,0.125,-35.0,-1,1.0,0.28309999999999036
125,4,0.8,1.0,-35.0,-1,1.0,0.25790000000000646
126,4,0.8,0.0,-35.0,1,0.0,3.132599999999968
127,4,0.8,0.0,-35.0,1,0.0,0.2563999999999851
128,4,0.8,1.0,-35.0,-1,1.0,0.279200000000003
129,4,0.8,1.0,-35.0,-1,1.0,0.24979999999999336
130,4,0.8,0.125,-35.0,-1,1.0,0.4875989999999888
131,4,0.8,0.25,-35.0,-1,1.0,0.4201999999999657
132,4,0.8,1.0,-35.0,-1,1.0,0.21530000000001337
133,4,0.8,1.0,-35.0,-1,1.0,0.04240000000004329
134,4,0.8,0.25,35.0,1,1.0,0.36070000000000846
135,4,0.8,0.125,-35.0,-1,1.0,0.4093000000000302
136,4,0.8,0.0,35.0,1,1.0,9.668200000000013
137,4,0.8,0.125,-35.0,-1,1.0,0.27860000000009677
138,4,0.8,0.125,-35.0,-1,1.0,0.46679999999992106
139,4,0.8,0.0,-35.0,1,0.0,13.948300000000017
140,4,0.8,0.125,-35.0,-1,1.0,0.44489999999996144
141,4,0.8,0.0625,-35.0,-1,1.0,0.4374000000000251
142,4,0.8,0.125,-35.0,-1,1.0,0.41809999999998126
143,4,0.8,0.125,-35.0,-1,1.0,0.6051000000001068
144,4,0.8,0.25,35.0,1,1.0,0.21370000000013079
145,4,0.8,0.0625,-35.0,-1,1.0,0.6303000000000338
146,4,0.8,0.0,-35.0,1,0.0,5.489599999999996
147,4,0.8,1.0,-35.0,-1,1.0,0.9914999999999736
148,4,0.8,1.0,35.0,1,1.0,8.4067
149,4,0.8,0.125,35.0,1,1.0,0.62600000000009
150,4,0.8,0.125,35.0,1,1.0,1.0615000000000236
151,4,0.8,0.0625,-35.0,1,0.0,2.8514999999999873
152,4,0.2,1.0,-35.0,-1,1.0,0.26290000000005875
153,4,0.2,0.0625,35.0,1,1.0,0.5649000000000797
154,4,0.2,0.0625,35.0,1,1.0,0.6426999999999907
155,4,0.2,1.0,35.0,1,1.0,0.6514999999999418
156,4,0.2,1.0,35.0,1,1.0,0.163599999999974
157,4,0.2,0.0,35.0,1,1.0,0.288599999999974
158,4,0.2,0.25,35.0,1,1.0,0.2358999999999014
159,4,0.2,1.0,35.0,1,1.0,0.20270000000004984
160,4,0.2,1.0,35.0,1,1.0,0.19209999999998217
161,4,0.2,0.25,35.0,1,1.0,0.5838999999999714
162,4,0.2,0.0625,35.0,1,1.0,4.1259000000000015
163,4,0.2,0.0,35.0,1,1.0,0.18010000000003856
164,4,0.2,0.25,-35.0,-1,1.0,0.24870000000009895
165,4,0.2,0.125,35.0,1,1.0,0.21310000000005402
166,4,0.2,0.25,35.0,1,1.0,0.15890000000001692
167,4,0.2,0.25,-35.0,-1,1.0,0.2255999999999858
168,4,0.2,0.0625,35.0,1,1.0,0.4880000000000564
169,4,0.2,1.0,35.0,1,1.0,0.16570000000001528
170,4,0.2,1.0,35.0,1,1.0,0.19119999999998072
171,4,0.2,0.0625,35.0,1,1.0,0.20920000000000982
172,4,0.2,0.0,35.0,1,1.0,0.3387000000000171
173,4,0.2,0.25,35.0,1,1.0,0.18269999999995434
174,4,0.2,0.0625,35.0,1,1.0,0.19200000000000728
175,4,0.2,0.25,35.0,1,1.0,0.17010000000004766
176,4,0.2,0.25,35.0,1,1.0,0.19180000000005748
177,4,0.2,0.25,35.0,1,1.0,1.6433000000000675
178,4,0.2,0.0625,-35.0,1,0.0,0.1488000000000511
179,4,0.2,0.25,35.0,1,1.0,0.1776999999999589
180,4,0.2,0.125,35.0,1,1.0,0.07270000000005439
181,4,0.2,0.0625,35.0,1,1.0,0.21649999999999636
182,4,0.2,0.25,35.0,1,1.0,0.20390000000008968
183,4,0.2,0.25,35.0,1,1.0,0.17600000000004457
184,4,0.2,0.25,35.0,1,1.0,0.08799999999996544
185,4,0.2,1.0,-35.0,-1,1.0,0.4814000000000078
186,4,0.2,0.125,-35.0,-1,1.0,0.8779999999999291
187,4,0.2,0.0625,35.0,1,1.0,0.2073000000001457
188,4,0.2,0.0625,35.0,1,1.0,1.3287000000000262
189,4,0.2,0.25,35.0,1,1.0,0.20700000000010732
190,4,0.2,0.125,35.0,1,1.0,0.2339000000000624
191,4,0.2,0.25,35.0,1,1.0,0.12419999999997344
192,4,0.2,0.0,-35.0,1,0.0,0.19310000000007221
193,4,0.2,1.0,35.0,1,1.0,0.16989999999998417
194,4,0.2,0.125,35.0,1,1.0,0.25699999999994816
195,4,0.2,0.125,35.0,1,1.0,0.24350000000004002
196,4,0.2,0.25,35.0,1,1.0,0.19000000000005457
197,4,0.2,0.125,-35.0,1,0.0,1.1468999999999596
198,4,0.2,1.0,35.0,1,1.0,0.18599999999992178
199,4,0.2,0.0625,35.0,1,1.0,0.20100000000013551
200,4,0.2,0.125,35.0,1,1.0,0.21230000000002747
201,4,0.2,1.0,35.0,1,1.0,0.16399999999998727
202,4,0.2,0.0,35.0,1,1.0,0.2519999999999527
203,4,0.2,1.0,-35.0,-1,1.0,0.4560000000000173
204,4,0.2,0.125,35.0,1,1.0,0.20249999999998636
205,4,0.2,0.0625,35.0,1,1.0,0.1973000000000411
206,4,0.2,1.0,-35.0,-1,1.0,0.2660999999999376
207,4,0.2,0.0625,35.0,1,1.0,0.21420000000000528
208,4,0.2,1.0,35.0,1,1.0,0.1110999999999649
209,4,0.2,0.0625,35.0,1,1.0,0.9751000000001113
210,4,0.2,0.25,35.0,1,1.0,1.1023999999999887
211,4,0.2,0.125,35.0,1,1.0,0.8380999999999403
212,4,0.2,1.0,-35.0,-1,1.0,0.20710000000008222
213,4,0.2,1.0,35.0,1,1.0,0.19410000000004857
214,4,0.2,0.125,35.0,1,1.0,0.2481000000000222
215,4,0.2,1.0,35.0,1,1.0,0.17570000000000618
216,4,0.2,0.0625,-35.0,1,0.0,0.6964000000000397
217,4,0.2,0.0625,-35.0,-1,1.0,0.5571999999999662
218,4,0.2,1.0,35.0,1,1.0,0.16119999999989432
219,4,0.2,0.0625,35.0,1,1.0,3.796699999999987
220,4,0.2,0.125,35.0,1,1.0,0.20019999999999527
221,4,0.2,1.0,-35.0,-1,1.0,1.5532000000000608
222,4,0.2,0.0,35.0,1,1.0,4.131300000000124
223,4,0.2,0.25,35.0,1,1.0,0.19830000000001746
224,4,0.2,0.0625,35.0,1,1.0,0.17820000000006075
225,4,0.2,0.25,35.0,1,1.0,0.19119999999998072
226,4,0.2,0.0625,35.0,1,1.0,0.3324999999999818
227,4,0.2,0.25,35.0,1,1.0,0.18470000000002074
228,4,0.2,0.0625,35.0,1,1.0,0.25919999999996435
229,4,0.2,1.0,-35.0,-1,1.0,0.24669999999991887
230,4,0.2,0.125,35.0,1,1.0,0.18180000000006658
231,4,0.2,0.125,-35.0,1,0.0,0.3704000000000178
232,4,0.2,0.0625,35.0,1,1.0,0.2803000000000111
233,4,0.8,0.125,-35.0,-1,1.0,0.5803000000000793
234,4,0.8,0.25,-35.0,-1,1.0,0.45859999999993306
235,4,0.8,0.0625,35.0,1,1.0,0.2175999999999476
236,4,0.8,0.125,-35.0,1,0.0,0.18840000000000146
237,4,0.8,1.0,-35.0,1,0.0,1.370900000000006
238,4,0.8,0.25,-35.0,1,0.0,0.3727999999999838
239,4,0.8,0.0625,-35.0,1,0.0,0.17670000000009622
240,4,0.8,1.0,-35.0,-1,1.0,0.29150000000004184
241,4,0.8,0.0625,-35.0,-1,1.0,0.3854999999999791
242,4,0.8,0.125,-35.0,-1,1.0,0.5115000000000691
243,4,0.8,0.0,-35.0,1,0.0,6.540800000000104
244,4,0.8,1.0,-35.0,1,0.0,0.15820000000007894
245,4,0.8,0.125,-35.0,1,0.0,0.21839999999997417
246,4,0.8,0.0,-35.0,1,0.0,0.37799999999992906
247,4,0.8,0.0625,-35.0,-1,1.0,0.28099999999994907
248,4,0.8,0.25,-35.0,-1,1.0,0.45440000000007785
249,4,0.8,0.0625,-35.0,-1,1.0,1.5835000000000719
250,4,0.8,0.125,-35.0,-1,1.0,0.6275000000000546
251,4,0.8,0.0625,35.0,1,1.0,0.9502999999999702
252,4,0.8,1.0,35.0,1,1.0,0.04630000000008749
253,4,0.8,0.125,-35.0,1,0.0,0.35960000000000036
254,4,0.8,0.25,-35.0,-1,1.0,0.33720000000005257
255,4,0.8,1.0,35.0,1,1.0,0.15429999999992106
256,4,0.8,0.25,-35.0,-1,1.0,0.19570000000010168
257,4,0.8,0.25,-35.0,-1,1.0,0.2798999999999978
258,4,0.8,0.125,35.0,1,1.0,2.0102000000000544
259,4,0.8,0.0,35.0,-1,0.0,1.034599999999955
260,4,0.8,1.0,-35.0,-1,1.0,0.21600000000000819
261,4,0.8,0.125,-35.0,-1,1.0,0.24579999999991742
262,4,0.8,0.25,35.0,1,1.0,0.18629999999996016
263,4,0.8,0.0625,35.0,1,1.0,0.9060000000000628
264,4,0.8,1.0,-35.0,-1,1.0,0.4095000000000937
265,4,0.8,0.0625,-35.0,-1,1.0,0.2927999999999429
266,4,0.8,0.125,-35.0,1,0.0,0.16620000000000346
267,4,0.8,1.0,-35.0,-1,1.0,0.4096000000000686
268,4,0.8,0.125,-35.0,-1,1.0,0.19610000000000127
269,4,0.8,0.125,-35.0,-1,1.0,0.47280000000000655
270,4,0.8,1.0,-35.0,-1,1.0,0.31959999999980937
271,4,0.8,0.125,35.0,1,1.0,0.2097999999998592
272,4,0.8,0.125,-35.0,1,0.0,0.743199999999888
273,4,0.8,0.125,-35.0,1,0.0,0.0465999999998985
274,4,0.8,1.0,-35.0,-1,1.0,1.0367999999998574
275,4,0.8,0.25,35.0,1,1.0,0.16999999999984539
276,4,0.8,0.0625,35.0,1,1.0,1.5036999999999807
277,4,0.2,0.25,-35.0,-1,1.0,0.560399999999845
278,4,0.2,0.0625,35.0,1,1.0,0.2568999999998596
279,4,0.2,0.25,35.0,1,1.0,0.5469989999999143
280,4,0.2,0.0625,35.0,1,1.0,0.19049999999970169
281,4,0.2,0.25,35.0,1,1.0,0.16379999999958272
282,4,0.2,0.125,35.0,1,1.0,0.163899999999785
283,4,0.2,0.125,35.0,1,1.0,0.2039999999997235
284,4,0.2,0.25,35.0,1,1.0,0.8239000000000942
285,4,0.2,1.0,35.0,1,1.0,0.574100000000044
286,4,0.2,0.0625,35.0,1,1.0,0.3573999999998705
287,4,0.2,0.125,35.0,1,1.0,0.17089999999984684
288,4,0.2,0.0,-35.0,1,0.0,0.23789999999985412
289,4,0.2,1.0,35.0,1,1.0,0.1509000000000924
290,4,0.2,0.0,35.0,1,1.0,0.5710999999998876
291,4,0.2,0.125,35.0,1,1.0,1.477999999999838
292,4,0.2,0.125,35.0,1,1.0,0.20450000000005275
293,4,0.2,0.125,35.0,1,1.0,0.19489999999996144
294,4,0.2,1.0,35.0,1,1.0,0.1712999999999738
295,4,0.2,0.0625,35.0,1,1.0,0.20129999999994652
296,4,0.2,0.125,35.0,1,1.0,0.01139999999986685
297,4,0.2,1.0,35.0,1,1.0,0.15820000000007894
298,4,0.2,0.25,-35.0,-1,1.0,0.218199999999797
299,4,0.2,1.0,35.0,1,1.0,0.1717999999998483
300,4,0.2,1.0,-35.0,1,0.0,0.4482999999997901
301,4,0.2,0.25,35.0,1,1.0,0.8085000000000946
302,4,0.2,0.25,35.0,1,1.0,0.2255999999999858
303,4,0.2,0.0,35.0,1,1.0,7.192099999999755
304,4,0.2,0.125,35.0,1,1.0,0.16879999999969186
305,4,0.2,1.0,-35.0,1,0.0,0.4720999999999549
306,4,0.2,1.0,35.0,1,1.0,0.16210000000000946
307,4,0.2,0.0625,35.0,1,1.0,0.2056999999999789
308,4,0.2,0.0625,35.0,1,1.0,0.17909899999995105
309,4,0.2,0.0625,35.0,1,1.0,0.18909999999982574
310,4,0.2,1.0,35.0,1,1.0,0.10579999999981737
311,4,0.2,0.125,35.0,1,1.0,0.17599999999993088
312,4,0.2,0.25,35.0,1,1.0,0.18619999999987158
313,4,0.2,1.0,35.0,1,1.0,0.17629999999985557
314,4,0.2,0.0625,35.0,1,1.0,1.6861999999998716
315,4,0.2,0.25,35.0,1,1.0,1.4661999999998443
316,4,0.2,0.125,-35.0,1,0.0,0.12959999999998217
317,4,0.2,0.0,35.0,1,1.0,0.22319999999990614
