trial_num,session_num,stim_probability_left,contrast,position,response_choice,trial_correct,reaction_time
1,13,0.5,0.125,35.0,1,1.0,0.4352999999999998
2,13,0.5,0.125,35.0,1,1.0,0.4467990000000004
3,13,0.5,0.125,35.0,-1,0.0,0.20379900000000006
4,13,0.5,0.0,35.0,1,1.0,23.963899
5,13,0.5,0.0625,-35.0,1,0.0,1.7578000000000031
6,13,0.5,0.125,-35.0,-1,1.0,0.3388999999999953
7,13,0.5,0.125,35.0,1,1.0,0.6762000000000015
8,13,0.5,0.0625,35.0,-1,0.0,3.8026000000000053
9,13,0.7,0.0625,35.0,1,1.0,10.436300000000003
10,13,0.5,1.0,35.0,-1,0.0,9.723698999999996
11,13,0.5,0.0625,35.0,1,1.0,21.626599
12,13,0.5,0.125,-35.0,-1,1.0,3.3131000000000057
13,13,0.5,0.25,-35.0,-1,1.0,0.24830000000001462
14,13,0.5,0.0,35.0,-1,0.0,1.1407000000000238
15,13,0.4,0.0,35.0,1,1.0,16.99589899999998
16,13,0.5,1.0,35.0,1,1.0,0.8652989999999647
17,13,0.5,0.0625,-35.0,1,0.0,4.451899999999995
18,13,0.5,0.25,35.0,1,1.0,13.456798999999961
19,13,0.5,1.0,35.0,1,1.0,0.6472999999999729
20,13,0.5,0.125,-35.0,-1,1.0,0.28229899999999475
21,13,0.5,1.0,-35.0,-1,1.0,0.27959999999998786
22,13,0.5,0.125,-35.0,-1,1.0,0.2830989999999929
23,13,0.5,1.0,-35.0,-1,1.0,0.3009989999999618
24,13,0.5,0.125,-35.0,-1,1.0,0.6561999999999841
25,13,0.5,0.0625,-35.0,-1,1.0,1.7410000000000139
26,13,0.5,0.125,35.0,1,1.0,3.664798999999988
27,13,0.5,1.0,-35.0,-1,1.0,0.28770000000000095
28,13,0.5,0.125,35.0,-1,0.0,3.817399999999992
29,13,0.2,0.125,35.0,1,1.0,0.4872000000000014
30,13,0.5,1.0,35.0,1,1.0,2.751298999999989
31,13,0.5,0.0625,-35.0,1,0.0,1.4743990000000053
32,13,0.5,0.25,-35.0,-1,1.0,4.742098999999968
33,13,0.5,1.0,-35.0,-1,1.0,0.1791989999999828
34,13,0.5,1.0,-35.0,-1,1.0,0.18139899999999898
35,13,0.5,0.0,35.0,-1,0.0,1.9533999999999878
36,13,0.4,0.0,35.0,-1,0.0,0.44849999999996726
37,13,0.5,1.0,35.0,1,1.0,0.36240000000003647
38,13,0.5,0.25,35.0,1,1.0,0.480700000000013
39,13,0.5,1.0,-35.0,-1,1.0,0.2534989999999766
40,13,0.5,0.125,-35.0,-1,1.0,0.47279899999995223
41,13,0.5,1.0,-35.0,-1,1.0,0.228999999999985
42,13,0.5,0.0,-35.0,1,0.0,1.7918990000000008
43,13,0.3,0.0,-35.0,1,0.0,8.750500000000045
44,13,0.5,1.0,35.0,1,1.0,0.7097990000000323
45,13,0.5,0.25,-35.0,-1,1.0,2.9992990000000646
46,13,0.5,0.25,-35.0,1,0.0,1.8084990000000403
47,13,0.5,0.0625,35.0,1,1.0,3.3436989999999582
48,13,0.5,0.125,-35.0,1,0.0,2.960198999999932
49,13,0.5,0.25,-35.0,-1,1.0,2.011398999999926
50,13,0.5,1.0,-35.0,-1,1.0,0.15409899999997378
51,13,0.5,1.0,-35.0,-1,1.0,0.17309999999997672
52,13,0.5,0.25,-35.0,-1,1.0,0.2237999999999829
53,13,0.5,0.0,-35.0,-1,1.0,0.2782999999999447
54,13,0.5,0.125,-35.0,-1,1.0,0.4749989999999684
55,13,0.5,1.0,-35.0,-1,1.0,0.23259999999999081
56,13,0.5,0.25,-35.0,-1,1.0,0.22469999999998436
57,13,0.5,0.0625,35.0,-1,0.0,0.20819899999997915
58,13,0.5,0.25,35.0,1,1.0,0.48029900000000225
59,13,0.5,1.0,-35.0,-1,1.0,0.5392989999999713
60,13,0.5,1.0,-35.0,-1,1.0,0.5836999999999648
61,13,0.5,0.0,-35.0,1,0.0,3.906398999999965
62,13,0.2,0.0,35.0,-1,0.0,9.275898999999981
63,13,0.5,1.0,35.0,-1,0.0,10.496299999999962
64,13,0.5,0.25,35.0,1,1.0,11.491798999999958
65,13,0.5,0.25,35.0,1,1.0,1.80600000000004
66,13,0.5,1.0,35.0,1,1.0,0.2639000000000351
67,13,0.5,0.25,35.0,-1,0.0,8.48079899999999
68,13,0.5,0.125,-35.0,-1,1.0,13.76849900000002
69,13,0.5,0.125,35.0,-1,0.0,4.499500000000012
70,13,0.5,0.125,-35.0,-1,1.0,7.796699999999987
71,13,0.5,1.0,35.0,1,1.0,0.5838990000000308
72,13,0.5,0.0625,-35.0,-1,1.0,0.2968000000000188
73,13,0.5,1.0,-35.0,-1,1.0,0.2253989999999817
74,13,0.5,0.0625,-35.0,-1,1.0,0.37489999999996826
75,13,0.5,0.0625,35.0,1,1.0,0.42329899999992904
76,13,0.5,1.0,-35.0,-1,1.0,0.20339899999999034
77,13,0.5,1.0,-35.0,-1,1.0,0.41269999999997253
78,13,0.5,1.0,35.0,1,1.0,0.3813989999999876
79,13,0.5,0.0625,-35.0,1,0.0,7.740798999999981
80,13,0.5,0.0625,35.0,1,1.0,2.2736990000000787
81,13,0.5,0.0,-35.0,-1,1.0,0.1855990000001384
82,13,0.5,0.125,-35.0,-1,1.0,1.4702990000000682
83,13,0.5,0.25,35.0,1,1.0,1.1061000000000831
84,13,0.5,1.0,35.0,-1,0.0,0.07019900000000234
85,13,0.5,0.25,-35.0,-1,1.0,24.885900000000106
86,13,0.5,0.0625,35.0,-1,0.0,17.189500000000066
87,13,0.5,0.0,-0.0,0,0.0,59.928100000000086
88,13,0.5,0.25,-35.0,-1,1.0,4.710299000000077
89,13,0.5,0.0625,35.0,1,1.0,3.6995000000000573
90,13,0.5,0.25,-35.0,-1,1.0,1.2568999999999733
91,13,0.5,1.0,35.0,-1,0.0,0.2827990000000682
92,13,0.3,1.0,35.0,1,1.0,0.3124990000000025
93,13,0.5,1.0,35.0,1,1.0,7.857999999999947
94,13,0.5,0.25,35.0,1,1.0,0.9241990000000442
95,13,0.5,1.0,-35.0,-1,1.0,0.3868990000000849
96,13,0.5,1.0,35.0,1,1.0,0.3527990000000045
97,13,0.5,0.0,35.0,-1,0.0,1.0747989999999845
98,13,0.5,0.0625,35.0,1,1.0,2.9321989999999687
99,13,0.5,0.25,-35.0,-1,1.0,2.1038990000000695
100,13,0.5,0.25,35.0,-1,0.0,5.781400000000076
101,13,0.5,0.25,35.0,1,1.0,2.121199000000047
102,13,0.5,1.0,-35.0,-1,1.0,0.010498999999981606
103,13,0.5,0.0625,35.0,1,1.0,4.39959900000008
104,13,0.5,0.0625,-35.0,-1,1.0,0.2678000000000793
105,13,0.5,1.0,-35.0,-1,1.0,0.22119999999995343
106,13,0.5,0.0,35.0,1,1.0,0.8339000000000851
107,13,0.5,0.125,35.0,1,1.0,0.4961000000000695
108,13,0.5,0.25,35.0,1,1.0,0.43820000000005166
109,13,0.5,0.125,-35.0,-1,1.0,0.27129899999999907
110,13,0.5,0.125,35.0,1,1.0,0.31320000000005166
111,13,0.5,0.0,35.0,1,1.0,0.10669900000004873
112,13,0.5,0.0,35.0,1,1.0,0.6784000000000106
113,13,0.5,1.0,-35.0,-1,1.0,0.3387989999999945
114,13,0.5,0.0625,35.0,1,1.0,0.6392000000000735
115,13,0.5,0.125,35.0,-1,0.0,0.3616990000000442
116,13,0.7,0.125,35.0,1,1.0,2.2298999999999296
117,13,0.5,1.0,-35.0,-1,1.0,0.2424990000000662
118,13,0.5,0.0,35.0,1,1.0,1.8982989999999518
119,13,0.5,0.25,-35.0,-1,1.0,0.2242990000000873
120,13,0.5,0.125,-35.0,-1,1.0,0.35239900000010493
121,13,0.5,0.125,-35.0,-1,1.0,0.2159990000001244
122,13,0.5,0.25,-35.0,-1,1.0,0.2901000000000522
123,13,0.5,1.0,-35.0,-1,1.0,0.2481999999999971
124,13,0.5,0.0625,-35.0,-1,1.0,0.2095000000000482
125,13,0.5,0.125,35.0,1,1.0,1.6483989999999267
126,13,0.5,1.0,-35.0,-1,1.0,0.9764989999999898
127,13,0.5,0.25,35.0,1,1.0,1.13679900000011
128,13,0.5,1.0,-35.0,-1,1.0,0.23550000000000182
129,13,0.5,0.0625,-35.0,1,0.0,0.43429900000001
130,13,0.5,0.25,35.0,1,1.0,0.4794000000000551
131,13,0.5,1.0,35.0,1,1.0,2.3915000000000646
132,13,0.5,0.125,-35.0,-1,1.0,0.19349900000008802
133,13,0.5,0.0,35.0,1,1.0,1.8758990000001177
134,13,0.5,0.125,-35.0,-1,1.0,0.1733000000000402
135,13,0.5,0.125,-35.0,-1,1.0,0.19200000000000728
136,13,0.5,0.0625,35.0,-1,0.0,0.16060000000004493
137,13,0.5,0.0625,-35.0,-1,1.0,0.19010000000002947
138,13,0.5,1.0,35.0,1,1.0,0.7079000000001088
139,13,0.5,0.0625,35.0,1,1.0,4.837799000000018
140,13,0.5,1.0,-35.0,-1,1.0,0.15540000000009968
141,13,0.5,0.0625,-35.0,-1,1.0,0.2523990000000822
142,13,0.5,0.0,35.0,1,1.0,0.2845989999999574
143,13,0.5,0.25,-35.0,-1,1.0,0.204099000000042
144,13,0.5,0.0,-35.0,1,0.0,5.155500000000075
145,13,0.4,0.0,35.0,1,1.0,4.996699000000035
146,13,0.5,1.0,35.0,1,1.0,1.0726000000000795
147,13,0.5,0.125,35.0,-1,0.0,3.432700000000068
148,13,0.5,0.25,-35.0,-1,1.0,6.968699000000015
149,13,0.5,0.25,35.0,-1,0.0,5.182698999999957
150,13,0.4,0.25,-35.0,-1,1.0,0.21079899999995177
151,13,0.5,1.0,35.0,1,1.0,1.9454990000001544
152,13,0.5,0.25,35.0,1,1.0,0.39790000000004966
153,13,0.5,0.0625,-35.0,1,0.0,5.531999000000042
154,13,0.6,0.0625,-35.0,-1,1.0,11.094299000000092
155,13,0.5,1.0,-35.0,-1,1.0,0.16850000000010823
156,13,0.5,0.25,-35.0,-1,1.0,0.7924000000000433
157,13,0.5,1.0,-35.0,-1,1.0,0.13580000000001746
158,13,0.5,1.0,35.0,1,1.0,1.9143000000000256
159,13,0.5,1.0,35.0,1,1.0,0.3282010000001492
160,13,0.5,0.125,35.0,1,1.0,0.38379999999995107
161,13,0.5,0.0625,-35.0,-1,1.0,0.20600000000001728
162,13,0.5,0.25,-35.0,-1,1.0,0.21190100000001166
163,13,0.5,0.0625,35.0,1,1.0,22.688400000000115
164,13,0.5,1.0,-35.0,-1,1.0,0.36560099999996964
165,13,0.5,0.0625,35.0,1,1.0,10.148401000000035
166,13,0.5,0.0625,35.0,-1,0.0,2.220600999999988
167,13,0.5,0.0625,35.0,1,1.0,38.79550100000006
168,13,0.5,0.125,35.0,1,1.0,8.657100000000128
169,13,0.5,0.0625,35.0,1,1.0,6.223199999999906
170,13,0.5,1.0,35.0,1,1.0,2.1012010000001737
171,13,0.5,0.0,35.0,-1,0.0,0.5902000000000953
172,13,0.6,0.0,-35.0,1,0.0,13.818401000000222
173,13,0.5,1.0,-35.0,-1,1.0,0.1973009999999249
174,13,0.5,0.25,35.0,1,1.0,8.24260100000015
175,13,0.5,0.0625,-35.0,-1,1.0,24.924199999999928
176,13,0.5,0.0625,-35.0,1,0.0,2.2374999999999545
177,13,0.5,0.0625,35.0,-1,0.0,12.335000000000036
178,13,0.5,0.25,35.0,0,0.0,59.93720100000019
179,13,0.5,0.0625,-35.0,-1,1.0,46.608799999999974
180,13,0.5,0.125,35.0,1,1.0,10.892000000000053
181,13,0.5,1.0,35.0,1,1.0,9.234600999999884
182,13,0.5,0.25,35.0,1,1.0,4.829201000000239
183,13,0.5,0.25,-35.0,-1,1.0,0.29850099999998747
184,13,0.5,0.0,-35.0,1,0.0,3.0240010000002258
185,13,0.5,0.0625,-35.0,-1,1.0,1.671900000000278
186,13,0.5,0.125,-35.0,-1,1.0,6.604301000000078
187,13,0.5,0.0625,35.0,-1,0.0,46.85550000000012
188,13,0.5,0.0625,35.0,0,0.0,59.85000100000002
189,13,0.5,0.0,35.0,-1,0.0,41.32460100000003
190,13,0.5,0.0,35.0,1,1.0,15.367001000000073
191,13,0.5,0.0625,-35.0,1,0.0,2.952600000000075
192,13,0.5,0.0625,-35.0,-1,1.0,0.757001000000173
193,13,0.5,1.0,35.0,-1,0.0,7.9894010000000435
194,13,0.5,0.0625,35.0,-1,0.0,19.735100999999986
195,13,0.5,0.125,-35.0,-1,1.0,0.20350099999996019
196,13,0.5,0.25,35.0,-1,0.0,32.30230099999994
197,13,0.5,0.125,35.0,1,1.0,50.670900000000074
198,13,0.5,0.0,35.0,-1,0.0,2.419300000000021
199,13,0.5,0.25,-35.0,-1,1.0,0.21550100000013117
200,13,0.5,1.0,-35.0,-1,1.0,0.22410100000001876
201,13,0.5,1.0,-35.0,-1,1.0,0.19890000000009422
202,13,0.5,0.25,-35.0,-1,1.0,10.117201000000023
203,13,0.5,1.0,-35.0,-1,1.0,0.19929999999999382
204,13,0.5,0.125,-35.0,-1,1.0,0.2045010000001639
205,13,0.5,0.0,-35.0,-1,1.0,5.369400999999925
206,13,0.5,1.0,-35.0,-1,1.0,0.18040000000019063
207,13,0.5,1.0,-35.0,-1,1.0,0.18640099999993254
208,13,0.5,1.0,35.0,1,1.0,0.5780999999999494
209,13,0.5,0.125,35.0,1,1.0,7.246499999999969
210,13,0.5,0.0625,35.0,1,1.0,7.951900000000251
211,13,0.5,0.25,35.0,1,1.0,2.113701000000219
212,13,0.5,0.0,-35.0,1,0.0,3.9694999999999254
213,13,0.5,0.125,35.0,-1,0.0,17.950401000000056
214,13,0.5,0.125,-35.0,0,0.0,59.94029999999998
215,13,0.5,1.0,-35.0,-1,1.0,0.06899999999995998
216,13,0.5,0.125,35.0,-1,0.0,21.0390010000001
217,13,0.5,0.0,-35.0,1,0.0,8.770700999999917
218,13,0.5,0.25,35.0,-1,0.0,3.4198010000000068
219,13,0.5,0.25,-35.0,-1,1.0,0.23090000000024702
220,13,0.5,0.125,-35.0,1,0.0,0.19990099999995437
221,13,0.5,0.125,-35.0,-1,1.0,3.332200000000057
222,13,0.5,1.0,-35.0,1,0.0,3.080200999999988
223,13,0.5,0.125,35.0,1,1.0,10.118900000000167
224,13,0.5,0.25,-35.0,1,0.0,26.347200999999814
225,13,0.5,0.125,35.0,0,0.0,59.915301
226,13,0.6,0.125,35.0,-1,0.0,9.392401000000064
227,13,0.5,1.0,-35.0,1,0.0,7.453701000000137
228,13,0.5,0.25,-35.0,0,0.0,59.81290000000013
229,13,0.5,0.125,35.0,-1,0.0,0.3877009999996517
230,13,0.5,0.0,35.0,-1,0.0,6.677700999999615
231,13,0.5,0.25,-35.0,-1,1.0,16.066800000000057
232,13,0.5,0.25,35.0,1,1.0,9.48180100000036
233,13,0.5,0.0,35.0,1,1.0,4.836999999999534
234,13,0.5,0.25,35.0,1,1.0,3.1755010000001676
235,13,0.5,0.125,-35.0,-1,1.0,0.1742999999996755
236,13,0.5,1.0,35.0,1,1.0,0.5888999999997395
237,13,0.5,0.0,35.0,1,1.0,4.357899999999518
238,13,0.5,0.25,35.0,1,1.0,0.7490999999995438
239,13,0.5,0.0,-35.0,1,0.0,0.2402999999999338
240,13,0.5,0.125,35.0,1,1.0,14.792599999999766
241,13,0.5,1.0,35.0,1,1.0,5.145399999999881
242,13,0.5,0.25,35.0,-1,0.0,0.29320000000006985
243,13,0.5,0.125,35.0,-1,0.0,17.384999999999764
244,13,0.7,0.125,-35.0,-1,1.0,7.67699999999968
245,13,0.5,1.0,-35.0,-1,1.0,0.145600999999715
246,13,0.5,0.125,-35.0,-1,1.0,0.2671999999997752
247,13,0.5,0.125,-35.0,-1,1.0,0.24810100000013335
248,13,0.5,0.0,35.0,-1,0.0,27.69730000000027
249,13,0.5,0.25,-35.0,-1,1.0,0.25289999999995416
250,13,0.5,1.0,35.0,1,1.0,4.32470099999955
251,13,0.5,0.0625,-35.0,-1,1.0,0.003200000000106229
252,13,0.5,1.0,-35.0,-1,1.0,0.8350009999999202
253,13,0.5,1.0,35.0,-1,0.0,5.893200999999863
254,13,0.5,0.125,35.0,-1,0.0,21.138599999999315
255,13,0.5,0.25,35.0,-1,0.0,14.427500999999666
256,13,0.5,0.125,35.0,-1,0.0,17.31939999999986
257,13,0.5,0.0625,-35.0,1,0.0,0.2819999999992433
258,13,0.5,0.0,35.0,-1,0.0,9.853300999999647
259,13,0.5,0.125,-35.0,1,0.0,12.371700999999575
260,13,0.5,0.25,35.0,-1,0.0,18.29049999999961
261,13,0.5,0.25,35.0,-1,0.0,7.869800000000396
262,13,0.5,0.25,35.0,-1,0.0,26.524500999999873
263,13,0.5,0.25,35.0,1,1.0,4.392700999999761
264,13,0.5,0.0,35.0,-1,0.0,3.128599999999551
265,13,0.3,0.0,-35.0,1,0.0,47.510299999999916
266,13,0.5,1.0,35.0,-1,0.0,18.46309999999994
267,13,0.5,0.125,-35.0,-1,1.0,6.215900000000147
268,13,0.5,0.0625,35.0,-1,0.0,21.685500000000047
269,13,0.5,0.25,-35.0,-1,1.0,0.4677999999998974
270,13,0.5,0.25,35.0,-1,0.0,3.025900999999976
271,13,0.2,0.25,-35.0,-1,1.0,0.25779999999986103
272,13,0.5,1.0,35.0,1,1.0,6.379699999999957
273,13,0.5,0.25,35.0,1,1.0,21.4482009999997
274,13,0.5,0.0,35.0,-1,0.0,9.440200000000004
275,13,0.5,0.0625,-35.0,1,0.0,21.74230099999977
276,13,0.5,0.125,35.0,0,0.0,59.935399999999845
277,13,0.5,0.0625,-35.0,-1,1.0,0.9842999999996209
278,13,0.5,0.125,35.0,-1,0.0,1.8644009999993614
279,13,0.5,0.0,-35.0,1,0.0,11.986399999999776
280,13,0.5,0.0625,-35.0,-1,1.0,4.4047999999997955
281,13,0.5,0.0,35.0,1,1.0,19.382400999999845
282,13,0.5,0.125,-35.0,0,0.0,59.92879999999968
283,13,0.5,0.0,-35.0,1,0.0,6.746900000000096
1,14,0.5,0.125,35.0,1,1.0,2.2001999999999997
2,14,0.5,0.25,35.0,0,0.0,59.915
3,14,0.5,0.125,35.0,-1,0.0,23.281301000000013
4,14,0.5,0.0625,35.0,1,1.0,28.251800000000003
5,14,0.5,1.0,-35.0,-1,1.0,0.34440100000000484
6,14,0.5,0.0,35.0,1,1.0,0.6518010000000061
7,14,0.5,0.0625,35.0,1,1.0,41.92220099999997
8,14,0.5,0.125,-35.0,-1,1.0,1.5553999999999917
9,14,0.5,0.0625,-35.0,-1,1.0,0.3692999999999813
10,14,0.5,1.0,-35.0,-1,1.0,0.4556010000000015
11,14,0.5,0.25,-35.0,-1,1.0,4.307301000000024
12,14,0.5,0.125,35.0,1,1.0,1.818700999999976
13,14,0.5,0.0625,-35.0,1,0.0,1.6207009999999968
14,14,0.5,0.0625,-35.0,1,0.0,4.16070000000002
15,14,0.5,0.125,-35.0,-1,1.0,0.3139009999999871
16,14,0.5,0.0625,-35.0,-1,1.0,5.916899999999998
17,14,0.5,0.0,-35.0,-1,1.0,1.7636009999999658
18,14,0.5,0.125,-35.0,-1,1.0,0.8159009999999967
19,14,0.5,0.25,-35.0,-1,1.0,0.3529999999999802
20,14,0.5,1.0,35.0,1,1.0,2.575501000000031
21,14,0.5,0.125,35.0,1,1.0,0.2371010000000524
22,14,0.5,0.125,-35.0,1,0.0,0.990400999999963
23,14,0.5,0.0625,-35.0,-1,1.0,7.448701000000028
24,14,0.5,0.0,-35.0,1,0.0,0.5163000000000579
25,14,0.5,0.25,35.0,1,1.0,1.4832999999999856
26,14,0.5,0.125,35.0,1,1.0,2.5539999999999736
27,14,0.5,1.0,-35.0,-1,1.0,0.27190100000001394
28,14,0.5,0.125,35.0,-1,0.0,1.7446000000000481
29,14,0.5,0.25,-35.0,1,0.0,0.5895010000000411
30,14,0.5,0.125,35.0,-1,0.0,0.29939999999999145
31,14,0.5,0.0625,-35.0,-1,1.0,0.25830000000001974
32,14,0.5,0.125,-35.0,-1,1.0,3.743600000000015
33,14,0.5,0.125,-35.0,-1,1.0,0.3146000000000413
34,14,0.5,0.25,35.0,1,1.0,3.4399999999999977
35,14,0.5,0.0,35.0,1,1.0,1.31570099999999
36,14,0.5,0.0,-35.0,1,0.0,1.0778999999999996
37,14,0.4,0.0,-35.0,1,0.0,4.697800000000029
38,14,0.5,1.0,35.0,1,1.0,0.2950000000000159
39,14,0.5,0.25,35.0,-1,0.0,1.4868010000000709
40,14,0.5,0.125,35.0,1,1.0,10.293300000000045
41,14,0.5,0.0625,35.0,-1,0.0,1.3002000000000749
42,14,0.5,0.0,35.0,1,1.0,1.2134000000000356
43,14,0.5,0.0,35.0,1,1.0,0.7521000000000413
44,14,0.5,0.0,35.0,-1,0.0,0.22309999999998809
45,14,0.5,0.125,35.0,1,1.0,1.641100999999992
46,14,0.5,0.125,35.0,1,1.0,3.9882010000000037
47,14,0.5,0.0625,-35.0,-1,1.0,3.7179010000000403
48,14,0.5,0.0625,35.0,-1,0.0,2.630401000000006
49,14,0.5,0.125,35.0,1,1.0,0.46350100000000793
50,14,0.5,0.25,-35.0,-1,1.0,1.621400000000051
51,14,0.5,0.0625,35.0,-1,0.0,0.3550009999999588
52,14,0.5,0.0,-35.0,1,0.0,5.464501000000041
53,14,0.5,0.0625,-35.0,1,0.0,7.969500000000039
54,14,0.5,0.25,-35.0,-1,1.0,0.25169999999997117
55,14,0.5,0.125,-35.0,-1,1.0,0.3009000000000128
56,14,0.5,0.0,-35.0,-1,1.0,2.0442010000000437
57,14,0.5,0.25,35.0,-1,0.0,0.34660000000002356
58,14,0.5,0.0,-35.0,1,0.0,9.625800000000027
59,14,0.5,0.25,-35.0,-1,1.0,0.23349999999999227
60,14,0.5,1.0,35.0,1,1.0,0.6003010000000017
61,14,0.5,1.0,35.0,1,1.0,3.1168010000000095
62,14,0.5,0.0625,35.0,1,1.0,0.482400000000041
63,14,0.5,1.0,-35.0,-1,1.0,0.35320100000001275
64,14,0.5,1.0,-35.0,-1,1.0,0.1760009999999852
65,14,0.5,0.25,-35.0,-1,1.0,0.6660010000000511
66,14,0.5,0.25,35.0,1,1.0,2.6758010000000354
67,14,0.5,0.125,-35.0,-1,1.0,0.38460100000003195
68,14,0.5,0.0625,35.0,-1,0.0,0.743300999999974
69,14,0.4,0.0625,-35.0,-1,1.0,0.8231999999999289
70,14,0.5,1.0,35.0,1,1.0,4.339201000000116
71,14,0.5,0.25,35.0,1,1.0,0.3933000000000675
72,14,0.5,1.0,35.0,1,1.0,0.28430100000002767
73,14,0.5,0.0625,-35.0,-1,1.0,0.2851010000000542
74,14,0.5,0.125,-35.0,-1,1.0,0.15770099999997456
75,14,0.5,0.125,-35.0,-1,1.0,0.19880000000000564
76,14,0.5,0.0625,-35.0,1,0.0,2.179501000000073
77,14,0.5,0.0625,35.0,-1,0.0,3.558501000000092
78,14,0.5,0.125,-35.0,1,0.0,0.5761009999999942
79,14,0.5,0.0,-35.0,-1,1.0,1.617200999999909
80,14,0.5,1.0,-35.0,-1,1.0,0.1895000000000664
81,14,0.5,0.25,35.0,1,1.0,0.294399999999996
82,14,0.5,0.0625,-35.0,-1,1.0,0.7505000000001019
83,14,0.5,0.125,-35.0,-1,1.0,0.2657010000000355
84,14,0.5,0.0625,-35.0,-1,1.0,2.854600000000005
85,14,0.5,0.125,35.0,1,1.0,0.6782010000000582
86,14,0.5,0.125,-35.0,-1,1.0,0.26920099999995273
87,14,0.5,1.0,-35.0,-1,1.0,0.39760100000000875
88,14,0.5,0.0625,-35.0,1,0.0,2.7513999999999896
89,14,0.5,0.25,-35.0,-1,1.0,3.8391010000001415
90,14,0.5,0.25,-35.0,-1,1.0,0.29700000000002547
91,14,0.5,0.125,35.0,1,1.0,0.46010100000000875
92,14,0.5,0.125,35.0,1,1.0,3.5561010000000124
93,14,0.5,1.0,-35.0,-1,1.0,0.27420100000006187
94,14,0.5,0.25,-35.0,-1,1.0,0.43620099999998274
95,14,0.5,1.0,35.0,1,1.0,1.2309000000000196
96,14,0.5,0.125,35.0,1,1.0,0.37820099999999
97,14,0.5,0.25,35.0,1,1.0,3.259200999999962
98,14,0.5,0.0625,35.0,1,1.0,0.41409999999996217
99,14,0.5,0.0625,35.0,1,1.0,2.6349010000000135
100,14,0.5,0.125,-35.0,1,0.0,1.9183000000000447
101,14,0.5,0.0,-35.0,1,0.0,1.9095000000000937
102,14,0.5,0.0,-35.0,1,0.0,0.5824000000000069
103,14,0.5,0.0625,-35.0,1,0.0,0.41580100000010134
104,14,0.5,0.0625,35.0,-1,0.0,1.053500999999983
105,14,0.5,0.125,-35.0,-1,1.0,0.3985010000000102
106,14,0.5,0.0625,-35.0,-1,1.0,10.57370000000003
107,14,0.5,0.125,35.0,1,1.0,3.4597000000001117
108,14,0.5,0.25,35.0,1,1.0,0.5390010000000984
109,14,0.5,0.25,35.0,1,1.0,0.624100999999996
110,14,0.5,0.125,35.0,1,1.0,1.4452999999999747
111,14,0.5,1.0,-35.0,-1,1.0,0.31330000000002656
112,14,0.5,0.0625,35.0,1,1.0,1.3618999999999915
113,14,0.5,0.125,-35.0,-1,1.0,0.35320099999989907
114,14,0.5,1.0,-35.0,-1,1.0,0.551900000000046
115,14,0.5,0.125,-35.0,-1,1.0,0.25
116,14,0.5,0.0625,-35.0,1,0.0,1.0030000000000427
117,14,0.5,0.25,-35.0,-1,1.0,0.2535000000000309
118,14,0.5,0.125,-35.0,1,0.0,1.2060000000000173
119,14,0.5,0.0625,35.0,1,1.0,0.5126010000001315
120,14,0.5,0.0625,35.0,1,1.0,1.7311000000000831
121,14,0.5,1.0,35.0,1,1.0,2.773200000000088
122,14,0.5,0.25,-35.0,-1,1.0,0.7895000000000891
123,14,0.5,1.0,-35.0,-1,1.0,0.35330099999998765
124,14,0.5,0.0625,-35.0,1,0.0,0.3057000000001153
125,14,0.5,0.25,35.0,-1,0.0,0.2902000000000271
126,14,0.5,0.0625,35.0,1,1.0,0.5082999999999629
127,14,0.5,0.0,-35.0,1,0.0,2.1083999999999605
128,14,0.5,0.125,-35.0,-1,1.0,0.3061999999999898
129,14,0.5,0.125,-35.0,1,0.0,1.1051009999999906
130,14,0.5,0.25,-35.0,-1,1.0,0.21850100000006023
131,14,0.5,0.125,35.0,1,1.0,2.6824000000000296
132,14,0.5,1.0,-35.0,-1,1.0,0.24349999999992633
133,14,0.5,0.25,35.0,1,1.0,1.8753000000000384
134,14,0.5,0.25,35.0,1,1.0,2.098901000000069
135,14,0.5,0.25,-35.0,-1,1.0,0.21850099999994654
136,14,0.5,0.125,-35.0,1,0.0,0.4105009999999538
137,14,0.6,0.125,35.0,1,1.0,2.8187000000000353
138,14,0.5,1.0,-35.0,-1,1.0,0.1190000000000282
139,14,0.5,0.25,-35.0,-1,1.0,0.2677009999999882
140,14,0.5,0.25,35.0,-1,0.0,2.5486000000000786
141,14,0.5,0.0,-35.0,1,0.0,2.117800999999986
142,14,0.5,0.125,-35.0,-1,1.0,2.2717999999999847
143,14,0.5,0.25,-35.0,-1,1.0,0.2296000000000049
144,14,0.5,0.0625,35.0,1,1.0,3.3229010000000017
145,14,0.5,0.0625,35.0,1,1.0,2.094201000000112
146,14,0.5,0.25,35.0,1,1.0,0.18000100000006114
147,14,0.5,0.25,-35.0,-1,1.0,0.39340100000003986
148,14,0.5,0.0625,-35.0,-1,1.0,0.39999999999997726
149,14,0.5,1.0,-35.0,-1,1.0,0.2411010000000715
150,14,0.5,0.25,-35.0,-1,1.0,0.810100000000034
151,14,0.5,0.0,-35.0,-1,1.0,0.3141000000000531
152,14,0.5,0.125,35.0,1,1.0,0.6194009999999253
153,14,0.5,0.0625,-35.0,-1,1.0,1.861900999999989
154,14,0.5,0.0,35.0,1,1.0,2.6747010000000273
155,14,0.5,0.0625,-35.0,-1,1.0,2.2905999999999267
156,14,0.5,1.0,35.0,1,1.0,0.34930099999996855
157,14,0.5,0.0625,35.0,1,1.0,2.0226010000001224
158,14,0.5,0.25,-35.0,1,0.0,2.1133009999999786
159,14,0.5,0.0625,-35.0,1,0.0,9.708399999999983
160,14,0.6,0.0625,-35.0,-1,1.0,5.8659000000000106
161,14,0.5,1.0,35.0,-1,0.0,1.7444000000000415
162,14,0.5,0.0625,35.0,-1,0.0,26.0630010000001
163,14,0.5,0.125,-35.0,1,0.0,14.323100000000068
164,14,0.6,0.125,35.0,-1,0.0,14.591000000000008
165,14,0.5,1.0,-35.0,-1,1.0,0.2212010000000646
166,14,0.5,0.25,-35.0,-1,1.0,1.4207000000001244
167,14,0.5,0.125,35.0,-1,0.0,0.16840099999990343
168,14,0.5,0.125,-35.0,-1,1.0,0.30060100000014245
169,14,0.5,0.125,-35.0,-1,1.0,0.20850100000006933
170,14,0.5,0.0625,-35.0,-1,1.0,0.4973000000001093
171,14,0.5,1.0,-35.0,-1,1.0,0.6143009999999549
172,14,0.5,0.125,35.0,1,1.0,1.5702999999999747
173,14,0.5,0.0,-35.0,-1,1.0,2.0883010000000013
174,14,0.5,0.25,35.0,-1,0.0,0.3184009999999944
175,14,0.5,0.25,-35.0,-1,1.0,0.265500999999972
176,14,0.5,1.0,35.0,1,1.0,0.33190000000001874
177,14,0.5,0.125,-35.0,-1,1.0,0.25530000000003383
178,14,0.5,0.0,-35.0,-1,1.0,1.598500999999942
179,14,0.5,1.0,-35.0,-1,1.0,0.2826000000000022
180,14,0.5,0.125,35.0,1,1.0,2.514499999999998
181,14,0.5,1.0,-35.0,-1,1.0,0.22859999999991487
182,14,0.5,1.0,-35.0,-1,1.0,0.1557009999996808
183,14,0.5,0.25,35.0,1,1.0,0.42459999999982756
184,14,0.5,1.0,35.0,1,1.0,0.6144000000001597
185,14,0.5,0.125,-35.0,-1,1.0,0.23850099999981467
186,14,0.5,1.0,35.0,1,1.0,1.636299999999892
187,14,0.5,1.0,-35.0,-1,1.0,0.21180099999992308
188,14,0.5,0.125,35.0,1,1.0,1.752799999999752
189,14,0.5,0.0,35.0,1,1.0,2.8692000000000917
190,14,0.5,1.0,35.0,1,1.0,0.3388999999999669
191,14,0.5,1.0,35.0,1,1.0,0.458800999999994
192,14,0.5,1.0,35.0,-1,0.0,0.5829009999999926
193,14,0.5,0.25,35.0,1,1.0,0.6362010000000282
194,14,0.5,1.0,35.0,1,1.0,2.7634009999999307
195,14,0.5,0.25,-35.0,-1,1.0,0.2360009999997601
196,14,0.5,0.0625,35.0,-1,0.0,1.7892009999998209
197,14,0.5,0.0625,-35.0,-1,1.0,0.5361000000000331
198,14,0.5,1.0,35.0,1,1.0,0.41210099999989325
199,14,0.5,0.125,-35.0,1,0.0,0.8105999999997948
200,14,0.5,0.125,35.0,1,1.0,7.292500999999902
201,14,0.5,1.0,-35.0,-1,1.0,0.22930099999962295
202,14,0.5,1.0,35.0,1,1.0,2.356699999999819
203,14,0.5,0.25,35.0,1,1.0,1.1662999999998647
204,14,0.5,0.0,-35.0,-1,1.0,0.8447009999999864
205,14,0.5,0.0,35.0,-1,0.0,1.8613009999999122
206,14,0.5,0.0,-35.0,-1,1.0,1.2853999999999814
207,14,0.5,1.0,35.0,1,1.0,1.2114999999998872
208,14,0.5,0.0,-35.0,1,0.0,2.1943999999998596
209,14,0.6,0.0,35.0,1,1.0,4.557499999999891
210,14,0.5,1.0,-35.0,-1,1.0,0.21810000000004948
211,14,0.5,0.125,-35.0,-1,1.0,0.11010000000010223
212,14,0.5,1.0,35.0,1,1.0,0.5378009999999449
213,14,0.5,0.25,-35.0,-1,1.0,0.13760099999990416
214,14,0.5,0.125,35.0,-1,0.0,0.29510099999993145
215,14,0.5,0.0625,-35.0,1,0.0,0.2677000000001044
216,14,0.5,0.0625,35.0,1,1.0,8.914301000000023
217,14,0.5,0.25,-35.0,-1,1.0,0.5858009999997194
218,14,0.5,0.0625,35.0,-1,0.0,3.432600000000093
219,14,0.5,0.0625,-35.0,-1,1.0,0.3121009999999842
220,14,0.5,0.125,35.0,1,1.0,0.3591000000001259
221,14,0.5,0.125,35.0,1,1.0,0.46889999999984866
222,14,0.5,1.0,-35.0,-1,1.0,0.24880000000007385
223,14,0.5,0.0625,-35.0,-1,1.0,0.3156010000000151
224,14,0.5,0.0,-35.0,1,0.0,1.196500999999671
225,14,0.5,0.0625,35.0,-1,0.0,5.758799999999837
226,14,0.5,0.125,-35.0,-1,1.0,0.40650000000005093
227,14,0.5,0.125,35.0,1,1.0,3.8718009999997776
228,14,0.5,0.25,35.0,1,1.0,5.028299999999945
229,14,0.5,0.125,35.0,1,1.0,0.3992009999997208
230,14,0.5,0.25,35.0,1,1.0,1.3453009999998358
231,14,0.5,1.0,35.0,1,1.0,0.6828999999997905
232,14,0.5,0.0625,-35.0,1,0.0,0.5322999999998501
233,14,0.7,0.0625,-35.0,-1,1.0,5.203400999999985
234,14,0.5,1.0,-35.0,-1,1.0,0.18250100000000202
235,14,0.5,0.0625,35.0,-1,0.0,1.8362999999999374
236,14,0.5,0.0,35.0,1,1.0,4.332999999999856
237,14,0.5,0.25,35.0,1,1.0,17.970599999999877
238,14,0.5,1.0,-35.0,-1,1.0,1.5670999999997548
239,14,0.5,0.125,-35.0,-1,1.0,7.040700999999899
240,14,0.5,0.25,35.0,1,1.0,5.210501000000022
241,14,0.5,0.125,-35.0,-1,1.0,5.523799999999937
242,14,0.5,0.125,35.0,1,1.0,5.821200999999746
243,14,0.5,0.125,-35.0,-1,1.0,0.261801000000105
244,14,0.5,0.0,-35.0,-1,1.0,1.1979999999998654
245,14,0.5,0.125,-35.0,-1,1.0,0.3716999999999189
246,14,0.5,0.25,-35.0,-1,1.0,0.22140099999978702
247,14,0.5,0.0,-35.0,-1,1.0,1.4306010000000242
248,14,0.5,0.125,35.0,-1,0.0,0.2621999999998934
249,14,0.2,0.125,35.0,1,1.0,0.4041999999997188
250,14,0.5,1.0,35.0,1,1.0,0.4412010000000919
251,14,0.5,0.0625,-35.0,1,0.0,3.037901000000147
252,14,0.5,0.0,35.0,1,1.0,19.08529999999996
253,14,0.5,1.0,-35.0,-1,1.0,0.24610099999995327
254,14,0.5,0.0625,35.0,1,1.0,0.6394999999997708
255,14,0.5,0.0625,-35.0,-1,1.0,1.4896009999999933
256,14,0.5,0.0625,35.0,-1,0.0,1.0906009999998787
257,14,0.5,0.125,35.0,1,1.0,3.263301000000183
258,14,0.5,0.125,35.0,1,1.0,0.92570099999989
259,14,0.5,0.0,-35.0,1,0.0,4.859901000000036
260,14,0.5,0.125,-35.0,-1,1.0,0.9337000000000444
261,14,0.5,1.0,35.0,1,1.0,2.0468009999999595
262,14,0.5,0.0625,35.0,1,1.0,2.6338999999998123
263,14,0.5,1.0,35.0,-1,0.0,0.2796009999999569
264,14,0.5,0.125,35.0,1,1.0,0.9832009999997808
265,14,0.5,0.125,35.0,1,1.0,0.4230009999998856
266,14,0.5,0.0625,35.0,-1,0.0,3.6399009999997816
267,14,0.5,0.125,35.0,1,1.0,2.5704009999997197
268,14,0.5,0.0625,35.0,-1,0.0,59.43000099999995
269,14,0.6,0.0625,35.0,1,1.0,22.9786009999998
270,14,0.5,1.0,35.0,0,0.0,59.938399999999774
271,14,0.5,0.0625,-35.0,-1,1.0,2.916400000000067
272,14,0.5,1.0,35.0,-1,0.0,0.15940100000011626
273,14,0.5,0.25,35.0,-1,0.0,2.2573009999998703
274,14,0.5,0.25,35.0,1,1.0,34.3704009999999
275,14,0.5,1.0,-35.0,-1,1.0,1.2277009999997972
276,14,0.5,0.0625,-35.0,-1,1.0,0.4477999999996882
277,14,0.5,0.125,-35.0,-1,1.0,2.9118009999999686
278,14,0.5,1.0,35.0,1,1.0,1.5122009999997772
279,14,0.5,0.125,35.0,1,1.0,1.640900999999758
280,14,0.5,1.0,-35.0,-1,1.0,0.31500000000005457
281,14,0.5,0.25,35.0,-1,0.0,0.23119999999994434
282,14,0.5,0.125,-35.0,-1,1.0,14.158300999999938
283,14,0.5,0.0625,-35.0,-1,1.0,0.9764999999997599
284,14,0.5,0.0625,-35.0,1,0.0,9.181699999999864
285,14,0.5,0.125,-35.0,-1,1.0,0.20929999999998472
286,14,0.5,1.0,-35.0,-1,1.0,0.16329999999970823
287,14,0.5,1.0,35.0,1,1.0,0.40229999999996835
288,14,0.5,0.0625,-35.0,1,0.0,6.629300999999941
289,14,0.5,0.0625,-35.0,1,0.0,15.31939999999986
290,14,0.5,0.25,35.0,1,1.0,6.800600999999915
291,14,0.5,0.25,-35.0,-1,1.0,4.170500999999831
292,14,0.5,0.25,35.0,-1,0.0,0.20270099999993363
293,14,0.5,0.125,35.0,1,1.0,1.7376999999999043
294,14,0.5,0.0625,-35.0,-1,1.0,0.14989999999988868
295,14,0.5,0.0625,-35.0,-1,1.0,0.27769999999986794
296,14,0.5,0.0625,-35.0,-1,1.0,0.20139999999992142
297,14,0.5,0.125,35.0,-1,0.0,0.8068009999999504
298,14,0.5,0.0,35.0,1,1.0,1.9018999999998414
299,14,0.5,1.0,-35.0,-1,1.0,0.17510100000004059
300,14,0.5,1.0,35.0,1,1.0,0.2780999999999949
301,14,0.5,0.0625,-35.0,1,0.0,0.4639009999998507
302,14,0.5,0.0,-35.0,1,0.0,0.25490099999979066
303,14,0.5,0.0,35.0,-1,0.0,2.907600999999886
304,14,0.4,0.0,-35.0,1,0.0,9.718000999999958
305,14,0.5,1.0,35.0,1,1.0,0.4260999999999058
306,14,0.5,0.25,35.0,1,1.0,4.298699999999826
307,14,0.5,0.0,-35.0,1,0.0,1.84820099999979
308,14,0.5,0.125,35.0,-1,0.0,15.44569999999976
309,14,0.5,0.0,-35.0,-1,1.0,43.799500999999964
310,14,0.5,0.125,-35.0,-1,1.0,2.1167999999997846
311,14,0.5,0.25,35.0,1,1.0,0.36980099999982485
312,14,0.5,0.25,-35.0,-1,1.0,0.25649999999996
313,14,0.5,0.0625,35.0,1,1.0,0.5810009999997874
314,14,0.5,1.0,-35.0,-1,1.0,0.24280099999987215
315,14,0.5,0.125,35.0,1,1.0,0.5166009999998096
316,14,0.5,0.25,35.0,1,1.0,1.1897999999998774
317,14,0.5,0.125,35.0,1,1.0,6.883099999999786
318,14,0.5,0.0625,-35.0,1,0.0,20.496200999999928
319,14,0.5,0.125,-35.0,-1,1.0,15.81719999999973
320,14,0.5,1.0,-35.0,-1,1.0,0.19390099999986887
321,14,0.5,0.25,35.0,-1,0.0,7.0844999999999345
322,14,0.5,0.0625,35.0,-1,0.0,13.498700999999983
323,14,0.5,0.0625,35.0,0,0.0,59.931301000000076
324,14,0.5,0.25,35.0,1,1.0,6.654199999999946
325,14,0.5,0.25,35.0,1,1.0,2.2653010000003633
326,14,0.5,0.125,-35.0,1,0.0,0.49200100000007296
327,14,0.5,0.0625,-35.0,-1,1.0,23.63220000000001
328,14,0.5,0.0625,35.0,-1,0.0,0.27610100000038074
329,14,0.4,0.0625,35.0,1,1.0,2.786000999999942
330,14,0.5,1.0,35.0,1,1.0,0.3495010000001457
331,14,0.5,0.0625,35.0,1,1.0,35.992901000000074
332,14,0.5,0.0,-35.0,-1,1.0,53.3403000000003
333,14,0.5,1.0,-35.0,-1,1.0,0.23480100000006132
334,14,0.5,0.0625,-35.0,-1,1.0,0.22490100000050006
335,14,0.5,0.0,35.0,-1,0.0,1.4216010000000097
336,14,0.5,0.0625,35.0,1,1.0,2.005000000000109
337,14,0.5,0.0625,-35.0,-1,1.0,0.5050999999998567
338,14,0.5,0.0625,35.0,0,0.0,59.95190099999991
339,14,0.5,0.0,35.0,1,1.0,56.66330100000005
340,14,0.5,0.0,-35.0,-1,1.0,13.137800000000425
341,14,0.5,0.0625,-35.0,-1,1.0,0.5138000000001739
342,14,0.5,0.125,-35.0,-1,1.0,0.5073000000006687
343,14,0.5,0.25,-35.0,-1,1.0,0.22690000000011423
344,14,0.5,0.0625,-35.0,-1,1.0,3.2502010000002883
345,14,0.5,0.0,-35.0,-1,1.0,9.00689999999986
346,14,0.5,0.0625,35.0,0,0.0,59.92780099999982
347,14,0.3,0.0625,35.0,1,1.0,0.3135000000002037
348,14,0.5,1.0,35.0,1,1.0,0.3563010000002578
349,14,0.5,0.125,-35.0,-1,1.0,0.4532000000003791
350,14,0.5,0.25,35.0,1,1.0,2.5483009999998103
351,14,0.5,0.0625,35.0,1,1.0,0.4689010000001872
352,14,0.5,0.0625,35.0,1,1.0,7.354801000000407
353,14,0.5,0.125,-35.0,-1,1.0,0.20220000000017535
354,14,0.5,0.125,-35.0,-1,1.0,0.17590000000018335
355,14,0.5,0.125,35.0,-1,0.0,0.2958010000002105
356,14,0.5,0.125,35.0,-1,0.0,3.183899999999994
357,14,0.5,0.25,35.0,1,1.0,0.9369010000000344
358,14,0.5,0.25,-35.0,-1,1.0,0.17590000000018335
359,14,0.5,0.0,35.0,1,1.0,3.0359000000003107
360,14,0.5,0.125,-35.0,-1,1.0,0.18230099999982485
361,14,0.5,0.0625,35.0,1,1.0,0.7630000000003747
362,14,0.5,0.0,-35.0,1,0.0,11.653101000000333
363,14,0.5,0.125,-35.0,-1,1.0,10.883200000000215
364,14,0.5,0.125,-35.0,-1,1.0,0.21350100000017846
365,14,0.5,0.0,-35.0,1,0.0,2.0663009999998394
366,14,0.5,0.0,-35.0,1,0.0,19.681401000000278
367,14,0.5,1.0,35.0,1,1.0,0.32860100000016246
368,14,0.5,0.0,35.0,-1,0.0,38.0012999999999
369,14,0.5,0.125,-35.0,-1,1.0,0.41460100000040256
370,14,0.5,0.25,35.0,-1,0.0,0.34930000000031214
371,14,0.5,0.25,-35.0,-1,1.0,0.3089010000003327
372,14,0.5,0.25,35.0,-1,0.0,35.69310099999984
373,14,0.3,0.25,35.0,-1,0.0,28.00630000000001
374,14,0.5,1.0,35.0,-1,0.0,7.96670099999983
375,14,0.5,0.0625,-35.0,1,0.0,21.884100000000217
376,14,0.5,0.25,-35.0,-1,1.0,9.211500000000342
377,14,0.5,0.0625,-35.0,-1,1.0,14.684700000000248
378,14,0.5,0.0625,-35.0,-1,1.0,8.890800000000127
379,14,0.5,1.0,35.0,-1,0.0,46.571201000000656
380,14,0.5,0.0625,35.0,1,1.0,3.018901000000369
381,14,0.5,0.125,35.0,-1,0.0,53.406700999999885
382,14,0.5,0.25,-35.0,-1,1.0,0.8941999999997279
1,15,0.5,0.0,-35.0,-1,1.0,1.0778000000000003
2,15,0.5,0.0625,-35.0,1,0.0,2.883001
3,15,0.5,0.25,-35.0,1,0.0,7.4777999999999984
4,15,0.5,0.125,-35.0,1,0.0,0.6429000000000009
5,15,0.9,0.125,-35.0,-1,1.0,0.5210000000000008
6,15,0.5,1.0,-35.0,-1,1.0,0.6244999999999976
7,15,0.5,1.0,-35.0,-1,1.0,0.6510009999999937
8,15,0.5,1.0,35.0,1,1.0,0.6672009999999915
9,15,0.5,0.125,-35.0,1,0.0,1.0094009999999969
10,15,0.5,0.0625,35.0,1,1.0,0.3902000000000001
11,15,0.5,0.125,-35.0,-1,1.0,2.1418000000000035
12,15,0.5,1.0,35.0,1,1.0,0.4475000000000051
13,15,0.5,0.25,35.0,1,1.0,1.7856000000000023
14,15,0.5,0.125,-35.0,-1,1.0,0.40820099999999115
15,15,0.5,0.25,-35.0,-1,1.0,0.21020099999999786
16,15,0.5,0.0625,-35.0,1,0.0,0.5854009999999903
17,15,0.5,0.25,35.0,1,1.0,0.41820099999998206
18,15,0.5,0.125,35.0,1,1.0,0.3774009999999919
19,15,0.5,0.25,-35.0,-1,1.0,3.410999999999987
20,15,0.5,0.25,35.0,-1,0.0,2.237199999999987
21,15,0.5,0.25,35.0,1,1.0,5.1015000000000015
22,15,0.5,1.0,-35.0,-1,1.0,0.19480100000001244
23,15,0.5,0.25,35.0,-1,0.0,0.1389999999999958
24,15,0.5,0.125,35.0,1,1.0,0.18720000000000425
25,15,0.5,0.0625,35.0,1,1.0,2.4266999999999967
26,15,0.5,0.0625,35.0,-1,0.0,1.6186999999999898
27,15,0.5,0.0625,-35.0,-1,1.0,4.788601
28,15,0.5,0.125,-35.0,-1,1.0,0.24760100000000307
29,15,0.5,0.125,-35.0,-1,1.0,0.2781010000000208
30,15,0.5,0.0625,-35.0,-1,1.0,6.41990100000001
31,15,0.5,0.125,-35.0,-1,1.0,0.26599999999999113
32,15,0.5,0.0,35.0,-1,0.0,1.863601000000017
33,15,0.5,0.125,35.0,-1,0.0,4.5090000000000146
34,15,0.5,0.25,-35.0,-1,1.0,0.509301000000022
35,15,0.5,1.0,35.0,-1,0.0,1.5752999999999986
36,15,0.5,0.25,-35.0,-1,1.0,1.3222000000000094
37,15,0.5,0.125,35.0,1,1.0,5.127201000000014
38,15,0.5,0.25,-35.0,-1,1.0,0.31100100000003295
39,15,0.5,0.0625,35.0,-1,0.0,0.1900009999999952
40,15,0.5,0.0625,35.0,1,1.0,5.502800000000008
41,15,0.5,1.0,35.0,1,1.0,0.2904000000000053
42,15,0.5,0.125,35.0,-1,0.0,13.151500999999996
43,15,0.5,0.125,-35.0,-1,1.0,1.301700000000011
44,15,0.5,0.125,-35.0,-1,1.0,0.2721000000000231
45,15,0.5,0.125,-35.0,-1,1.0,0.3210000000000264
46,15,0.5,0.0,35.0,-1,0.0,0.28659999999999286
47,15,0.5,0.125,-35.0,1,0.0,0.04070000000001528
48,15,0.5,0.25,-35.0,1,0.0,0.03610100000003058
49,15,0.5,0.125,-35.0,-1,1.0,0.8349000000000331
50,15,0.5,0.25,35.0,-1,0.0,1.1611000000000047
51,15,0.5,0.125,35.0,1,1.0,0.3169000000000324
52,15,0.5,0.25,-35.0,-1,1.0,1.0258000000000038
53,15,0.5,0.0625,-35.0,-1,1.0,0.2769000000000119
54,15,0.5,0.125,-35.0,-1,1.0,0.21190099999995482
55,15,0.5,0.0625,-35.0,-1,1.0,0.2300000000000182
56,15,0.5,0.125,-35.0,-1,1.0,0.22110000000003538
57,15,0.5,0.125,35.0,-1,0.0,2.1097010000000296
58,15,0.5,0.25,-35.0,-1,1.0,0.29239999999998645
59,15,0.5,0.125,-35.0,1,0.0,1.5572010000000205
60,15,0.5,0.0,35.0,-1,0.0,0.7791009999999687
61,15,0.2,0.0,35.0,-1,0.0,0.4442009999999641
62,15,0.5,1.0,35.0,1,1.0,0.3951009999999542
63,15,0.5,1.0,35.0,1,1.0,0.4838010000000281
64,15,0.5,0.125,35.0,1,1.0,0.5092010000000187
65,15,0.5,1.0,35.0,1,1.0,0.5250009999999747
66,15,0.5,0.125,-35.0,-1,1.0,0.3593999999999937
67,15,0.5,0.25,35.0,1,1.0,0.6503000000000156
68,15,0.5,0.25,-35.0,-1,1.0,0.2966999999999871
69,15,0.5,0.125,-35.0,-1,1.0,0.2503000000000384
70,15,0.5,0.25,35.0,-1,0.0,0.052700000000015734
71,15,0.5,0.25,35.0,1,1.0,0.17639999999994416
72,15,0.5,1.0,-35.0,-1,1.0,0.2078010000000745
73,15,0.5,0.0625,35.0,1,1.0,0.46340000000003556
74,15,0.5,0.25,35.0,1,1.0,0.8680999999999699
75,15,0.5,0.25,-35.0,-1,1.0,0.2613010000000031
76,15,0.5,0.0625,35.0,-1,0.0,2.6224999999999454
77,15,0.5,0.25,-35.0,-1,1.0,0.17960000000005039
78,15,0.5,0.25,-35.0,-1,1.0,0.4531010000000606
79,15,0.5,0.125,35.0,1,1.0,0.5808010000000081
80,15,0.5,0.125,-35.0,1,0.0,0.19360099999994418
81,15,0.5,0.0625,-35.0,-1,1.0,0.22590100000002167
82,15,0.5,1.0,-35.0,-1,1.0,0.046701000000041404
83,15,0.5,0.25,35.0,1,1.0,0.5733009999999581
84,15,0.5,0.0,35.0,-1,0.0,1.5484010000000126
85,15,0.5,0.25,35.0,1,1.0,0.38780099999996764
86,15,0.5,0.0625,35.0,1,1.0,0.17709999999999582
87,15,0.5,0.0625,-35.0,1,0.0,0.8658009999999763
88,15,0.5,0.0625,-35.0,-1,1.0,0.18599999999997863
89,15,0.5,0.125,35.0,1,1.0,0.3401010000000042
90,15,0.5,1.0,-35.0,-1,1.0,0.20390100000008715
91,15,0.5,0.125,-35.0,-1,1.0,0.8718999999999824
92,15,0.5,1.0,35.0,1,1.0,0.7323010000000068
93,15,0.5,0.125,-35.0,-1,1.0,0.13450000000000273
94,15,0.5,1.0,35.0,1,1.0,1.8611010000000192
95,15,0.5,0.0,-35.0,-1,1.0,0.25550100000003795
96,15,0.5,0.0625,35.0,1,1.0,1.2782000000000266
97,15,0.5,0.25,-35.0,-1,1.0,0.206799999999987
98,15,0.5,0.0625,35.0,1,1.0,0.3532000000000153
99,15,0.5,1.0,-35.0,-1,1.0,0.2328000000000543
100,15,0.5,0.0625,35.0,1,1.0,2.854000000000042
101,15,0.5,1.0,-35.0,-1,1.0,0.19769999999999754
102,15,0.5,1.0,-35.0,-1,1.0,0.16560000000004038
103,15,0.5,0.125,35.0,-1,0.0,0.16860000000002628
104,15,0.4,0.125,35.0,1,1.0,0.2835010000000011
105,15,0.5,1.0,35.0,1,1.0,0.7494009999999776
106,15,0.5,1.0,35.0,1,1.0,0.2398000000000593
107,15,0.5,0.125,35.0,1,1.0,0.26290000000005875
108,15,0.5,1.0,35.0,1,1.0,0.27160099999997556
109,15,0.5,0.0,35.0,1,1.0,0.3394010000000094
110,15,0.5,0.25,35.0,1,1.0,0.9694999999999823
111,15,0.5,0.25,35.0,-1,0.0,2.627001000000007
112,15,0.5,0.0625,-35.0,-1,1.0,0.37950100000000475
113,15,0.5,0.25,35.0,1,1.0,0.773601000000042
114,15,0.5,0.125,35.0,1,1.0,1.9740010000000439
115,15,0.5,0.25,-35.0,-1,1.0,0.6761009999999601
116,15,0.5,0.125,-35.0,-1,1.0,0.20580100000006496
117,15,0.5,0.125,35.0,1,1.0,0.8438009999999849
118,15,0.5,0.0625,-35.0,1,0.0,1.549901000000034
119,15,0.5,0.0625,35.0,1,1.0,0.26790099999999484
120,15,0.5,0.25,-35.0,-1,1.0,0.7055000000000291
121,15,0.5,0.0,35.0,1,1.0,0.32320099999992635
122,15,0.5,0.25,35.0,1,1.0,0.5849999999999227
123,15,0.5,0.25,35.0,1,1.0,0.2518999999998641
124,15,0.5,0.25,-35.0,-1,1.0,0.23600099999998747
125,15,0.5,0.0625,-35.0,1,0.0,2.1060999999998558
126,15,0.5,0.0625,35.0,1,1.0,0.358600000000024
127,15,0.5,0.0,35.0,1,1.0,2.008100999999897
128,15,0.5,0.125,35.0,1,1.0,0.356899999999996
129,15,0.5,0.0625,-35.0,-1,1.0,0.2280999999999267
130,15,0.5,1.0,35.0,1,1.0,0.32929999999998927
131,15,0.5,0.0625,35.0,1,1.0,1.1981999999999289
132,15,0.5,0.0625,-35.0,-1,1.0,0.3567010000000437
133,15,0.5,0.25,35.0,1,1.0,4.037300999999843
134,15,0.5,0.0,35.0,1,1.0,0.5764999999998963
135,15,0.5,0.125,-35.0,-1,1.0,0.2176009999999451
136,15,0.5,0.0,35.0,-1,0.0,0.2802000000000362
137,15,0.5,0.0625,35.0,1,1.0,0.26139999999998054
138,15,0.5,0.0625,35.0,1,1.0,0.3552999999999429
139,15,0.5,0.25,35.0,1,1.0,0.7348010000000613
140,15,0.5,0.0625,35.0,1,1.0,0.8674010000000862
141,15,0.5,1.0,-35.0,-1,1.0,0.23860000000001946
142,15,0.5,0.25,-35.0,-1,1.0,1.307600999999977
143,15,0.5,0.125,-35.0,-1,1.0,0.3065999999998894
144,15,0.5,0.25,-35.0,-1,1.0,0.17089999999996053
145,15,0.5,0.125,35.0,1,1.0,1.2643000000000484
146,15,0.5,1.0,-35.0,-1,1.0,0.2923999999998159
147,15,0.5,0.0625,35.0,1,1.0,0.2657009999999218
148,15,0.5,1.0,-35.0,-1,1.0,0.6029999999998381
149,15,0.5,1.0,-35.0,-1,1.0,0.36110099999996237
150,15,0.5,0.0625,35.0,1,1.0,1.7807999999998856
151,15,0.5,0.125,-35.0,-1,1.0,0.41449999999997544
152,15,0.5,0.0625,35.0,-1,0.0,0.3681009999999105
153,15,0.5,0.125,35.0,1,1.0,1.6300999999999704
154,15,0.5,0.0625,-35.0,1,0.0,0.5412009999998872
155,15,0.5,0.25,35.0,1,1.0,0.21709999999995944
156,15,0.5,0.0,-35.0,1,0.0,0.3985009999998965
157,15,0.5,0.0625,35.0,1,1.0,0.3381009999999378
158,15,0.5,1.0,-35.0,-1,1.0,0.4400999999999158
159,15,0.5,0.0625,-35.0,-1,1.0,0.2582000000001017
160,15,0.5,1.0,-35.0,-1,1.0,0.17210000000000036
161,15,0.5,0.0625,-35.0,-1,1.0,0.2600009999998747
162,15,0.5,0.25,-35.0,-1,1.0,0.15419999999994616
163,15,0.5,0.125,-35.0,-1,1.0,0.25499999999988177
164,15,0.5,0.125,35.0,1,1.0,0.2864009999999553
165,15,0.5,0.0625,-35.0,1,0.0,2.34370100000001
166,15,0.5,0.25,-35.0,-1,1.0,0.5085009999999102
167,15,0.5,0.0,-35.0,1,0.0,0.7601999999999407
168,15,0.5,0.125,35.0,1,1.0,0.4613999999999123
169,15,0.5,0.25,-35.0,-1,1.0,0.2698999999998932
170,15,0.5,0.0625,-35.0,-1,1.0,0.3264009999999189
171,15,0.5,1.0,35.0,1,1.0,0.4918009999998958
172,15,0.5,0.0,35.0,-1,0.0,1.0664999999999054
173,15,0.5,0.25,35.0,1,1.0,0.5065010000000711
174,15,0.5,0.25,-35.0,-1,1.0,0.24719999999990705
175,15,0.5,0.25,35.0,1,1.0,1.1716000000000122
176,15,0.5,1.0,35.0,1,1.0,0.28099999999994907
177,15,0.5,0.0625,-35.0,-1,1.0,0.6956010000000106
178,15,0.5,1.0,-35.0,-1,1.0,1.2647009999999455
179,15,0.5,0.0625,-35.0,-1,1.0,0.2394009999999298
180,15,0.5,0.25,35.0,1,1.0,0.39580099999989216
181,15,0.5,0.0625,35.0,1,1.0,1.4497010000000046
182,15,0.5,0.0,35.0,1,1.0,2.2363999999998896
183,15,0.5,0.125,-35.0,-1,1.0,1.8414009999999053
184,15,0.5,0.25,-35.0,-1,1.0,0.1952009999998836
185,15,0.5,1.0,-35.0,-1,1.0,0.24290100000007442
186,15,0.5,0.125,-35.0,-1,1.0,1.0640009999998483
187,15,0.5,0.25,-35.0,-1,1.0,1.1193009999999504
188,15,0.5,0.0625,35.0,1,1.0,1.2380000000000564
189,15,0.5,1.0,35.0,1,1.0,0.3347009999999955
190,15,0.5,0.0625,-35.0,-1,1.0,0.2130010000000766
191,15,0.5,0.0,-35.0,-1,1.0,0.5728999999998905
192,15,0.5,0.125,-35.0,-1,1.0,0.2581009999998969
193,15,0.5,1.0,-35.0,-1,1.0,0.2417009999999209
194,15,0.5,1.0,-35.0,-1,1.0,0.5050999999999704
195,15,0.5,0.0625,35.0,1,1.0,4.081199999999967
196,15,0.5,0.0,35.0,-1,0.0,0.5401999999999134
197,15,0.5,0.0,-35.0,-1,1.0,0.9787000000000035
198,15,0.5,0.125,35.0,1,1.0,0.5062009999999191
199,15,0.5,1.0,-35.0,-1,1.0,0.4898009999999431
200,15,0.5,1.0,-35.0,-1,1.0,0.1514999999999418
201,15,0.5,0.0,-35.0,-1,1.0,2.1970000000000027
202,15,0.5,0.0625,35.0,-1,0.0,0.6124009999998634
203,15,0.5,0.0625,35.0,1,1.0,2.8975000000000364
204,15,0.5,1.0,-35.0,-1,1.0,0.403500999999892
205,15,0.5,0.0,-35.0,1,0.0,1.9897999999999456
206,15,0.5,0.0,-35.0,1,0.0,1.6292009999999664
207,15,0.4,0.0,-35.0,-1,1.0,0.17799999999988358
208,15,0.5,1.0,35.0,1,1.0,0.19970099999989088
209,15,0.5,0.125,35.0,1,1.0,0.31999999999993634
210,15,0.5,0.125,-35.0,-1,1.0,0.20270100000004732
211,15,0.5,0.0625,-35.0,-1,1.0,0.6047009999999773
212,15,0.5,0.25,35.0,-1,0.0,0.11900100000002567
213,15,0.5,0.125,35.0,-1,0.0,16.906300999999985
214,15,0.4,0.125,-35.0,-1,1.0,1.289600000000064
215,15,0.5,1.0,35.0,1,1.0,0.5309999999998354
216,15,0.5,0.0625,-35.0,1,0.0,2.7449000000000296
217,15,0.5,0.125,35.0,1,1.0,0.2943999999998823
218,15,0.5,0.0625,35.0,1,1.0,2.2420999999999367
219,15,0.5,0.125,-35.0,-1,1.0,0.8281999999999243
220,15,0.5,0.0625,35.0,1,1.0,1.713899999999967
221,15,0.5,0.0625,35.0,1,1.0,0.29730099999994763
222,15,0.5,0.0,35.0,1,1.0,0.22050000000001546
223,15,0.5,0.25,35.0,1,1.0,0.6739010000000007
224,15,0.5,1.0,35.0,1,1.0,1.8324009999998907
225,15,0.5,0.25,-35.0,-1,1.0,1.7011999999999716
226,15,0.5,0.25,35.0,1,1.0,0.400400999999988
227,15,0.5,0.125,-35.0,-1,1.0,0.9301999999998998
228,15,0.5,1.0,-35.0,-1,1.0,0.30949999999995725
229,15,0.5,0.0625,-35.0,1,0.0,1.0971009999999524
230,15,0.5,0.0,-35.0,-1,1.0,0.11610099999984413
231,15,0.5,0.0625,-35.0,1,0.0,1.763699999999858
232,15,0.5,0.125,-35.0,-1,1.0,0.6616010000000188
233,15,0.5,0.0625,35.0,1,1.0,0.31959999999992306
234,15,0.5,0.25,-35.0,-1,1.0,0.24459999999987758
235,15,0.5,0.0,35.0,1,1.0,0.3607010000000628
236,15,0.5,0.25,-35.0,-1,1.0,0.5931999999999107
237,15,0.5,1.0,35.0,1,1.0,0.27270099999998365
238,15,0.5,0.25,-35.0,-1,1.0,0.2511009999999487
239,15,0.5,1.0,-35.0,-1,1.0,0.1856999999999971
240,15,0.5,0.25,-35.0,-1,1.0,0.27930099999991853
241,15,0.5,0.0,35.0,1,1.0,0.42409999999995307
242,15,0.5,0.125,-35.0,1,0.0,0.8083010000000286
243,15,0.5,0.0,-35.0,-1,1.0,0.16990000000009786
244,15,0.5,0.125,35.0,1,1.0,1.630899999999997
245,15,0.5,0.0625,-35.0,-1,1.0,0.32989999999995234
246,15,0.5,0.25,35.0,1,1.0,0.2625999999999067
247,15,0.5,0.125,35.0,1,1.0,1.2445000000000164
248,15,0.5,0.0,35.0,-1,0.0,1.1260009999999738
249,15,0.5,0.25,-35.0,-1,1.0,0.2840009999999893
250,15,0.5,0.125,-35.0,-1,1.0,0.261400999999978
251,15,0.5,0.125,35.0,-1,0.0,0.11400099999991653
252,15,0.4,0.125,35.0,1,1.0,0.5376009999999951
253,15,0.5,1.0,35.0,1,1.0,0.20410099999992326
254,15,0.5,0.0625,35.0,1,1.0,2.454099999999812
255,15,0.5,0.0625,35.0,1,1.0,0.27430100000015045
256,15,0.5,0.0,35.0,1,1.0,1.094201000000112
257,15,0.5,0.125,35.0,1,1.0,0.29120000000011714
258,15,0.5,0.0,35.0,1,1.0,0.2919000000001688
259,15,0.5,0.25,-35.0,-1,1.0,0.03430000000025757
260,15,0.5,0.25,35.0,-1,0.0,0.12830000000008113
261,15,0.5,0.25,-35.0,-1,1.0,0.1674000000000433
262,15,0.5,0.25,35.0,1,1.0,2.020301000000245
263,15,0.5,0.25,-35.0,-1,1.0,0.24860000000012406
264,15,0.5,1.0,35.0,1,1.0,2.398400000000038
265,15,0.5,0.0625,-35.0,1,0.0,0.9715000000001055
266,15,0.5,0.125,-35.0,-1,1.0,0.24860000000012406
267,15,0.5,0.0,35.0,1,1.0,2.275500000000193
268,15,0.5,1.0,-35.0,-1,1.0,0.2528010000003178
269,15,0.5,0.0625,-35.0,1,0.0,2.8420000000000982
270,15,0.5,0.0625,-35.0,-1,1.0,0.24820099999988088
271,15,0.5,1.0,35.0,1,1.0,2.151499999999942
272,15,0.5,1.0,-35.0,-1,1.0,0.20869999999990796
273,15,0.5,1.0,35.0,1,1.0,0.18570000000022446
274,15,0.5,1.0,35.0,1,1.0,2.6258010000001377
275,15,0.5,0.0625,35.0,1,1.0,0.31579999999985375
276,15,0.5,1.0,-35.0,-1,1.0,0.18980100000021594
277,15,0.5,0.25,35.0,1,1.0,0.3733999999999469
278,15,0.5,0.25,35.0,1,1.0,0.47280000000000655
279,15,0.5,1.0,35.0,1,1.0,2.200100999999904
280,15,0.5,0.125,35.0,1,1.0,0.40970100000004095
281,15,0.5,1.0,-35.0,-1,1.0,0.2030010000000857
282,15,0.5,0.0625,-35.0,-1,1.0,0.9863000000000284
283,15,0.5,0.125,-35.0,1,0.0,1.1879000000003543
284,15,0.5,0.125,35.0,1,1.0,0.2393010000000686
285,15,0.5,0.125,-35.0,-1,1.0,0.2981010000000879
286,15,0.5,0.125,-35.0,-1,1.0,0.3235010000000784
287,15,0.5,0.0625,-35.0,-1,1.0,0.950800000000072
288,15,0.5,0.0625,35.0,-1,0.0,2.3434010000000853
289,15,0.4,0.0625,35.0,1,1.0,0.3132010000001628
290,15,0.5,1.0,35.0,1,1.0,0.24669999999991887
291,15,0.5,0.25,35.0,1,1.0,1.5430010000000038
292,15,0.5,1.0,35.0,1,1.0,0.23330000000009932
293,15,0.5,0.125,-35.0,1,0.0,1.0403010000002268
294,15,0.5,0.25,35.0,1,1.0,0.31440100000008897
295,15,0.5,0.0625,-35.0,-1,1.0,0.26030100000025413
296,15,0.5,0.125,-35.0,-1,1.0,0.23749999999995453
297,15,0.5,0.25,35.0,-1,0.0,0.2804000000000997
298,15,0.5,0.0625,-35.0,-1,1.0,2.0867000000000644
299,15,0.5,1.0,35.0,1,1.0,0.3317010000002938
300,15,0.5,0.125,-35.0,-1,1.0,0.21149999999988722
301,15,0.5,0.0,35.0,-1,0.0,2.1920000000000073
302,15,0.5,0.0625,35.0,1,1.0,2.4876010000000406
303,15,0.5,0.125,-35.0,1,0.0,1.1706010000000333
304,15,0.5,0.125,-35.0,1,0.0,0.3942010000000664
305,15,0.4,0.125,-35.0,-1,1.0,0.19560100000012426
306,15,0.5,1.0,-35.0,-1,1.0,0.2117000000000644
307,15,0.5,0.0625,35.0,1,1.0,2.3713000000000193
308,15,0.5,0.0,35.0,1,1.0,2.365000000000009
309,15,0.5,0.125,-35.0,-1,1.0,0.30490000000008877
310,15,0.5,0.0625,-35.0,1,0.0,0.3724010000000817
311,15,0.5,0.0625,35.0,1,1.0,0.35880100000008497
312,15,0.5,0.0625,35.0,-1,0.0,1.9893999999999323
313,15,0.5,0.25,-35.0,-1,1.0,0.25570100000027196
314,15,0.5,0.125,-35.0,1,0.0,0.355900000000247
315,15,0.5,0.125,-35.0,-1,1.0,3.3228009999997994
316,15,0.5,1.0,35.0,1,1.0,2.3130000000003292
317,15,0.5,0.25,-35.0,-1,1.0,0.3117000000002008
318,15,0.5,0.25,-35.0,1,0.0,3.5021010000000388
319,15,0.5,0.125,35.0,1,1.0,5.4698000000000775
320,15,0.5,0.0625,35.0,1,1.0,0.25690099999997074
321,15,0.5,0.0625,-35.0,1,0.0,1.0057000000001608
322,15,0.5,0.125,35.0,1,1.0,0.469300000000203
323,15,0.5,0.25,-35.0,-1,1.0,0.617500000000291
324,15,0.5,0.25,35.0,-1,0.0,2.580600000000004
325,15,0.5,0.25,35.0,1,1.0,0.4834000000000742
326,15,0.5,0.0625,-35.0,-1,1.0,0.23709999999982756
327,15,0.5,0.125,-35.0,-1,1.0,0.20940100000007078
328,15,0.5,0.0,-35.0,-1,1.0,0.2494000000001506
329,15,0.5,0.0625,35.0,1,1.0,2.014499999999998
330,15,0.5,0.125,35.0,1,1.0,0.659601000000066
331,15,0.5,0.0625,-35.0,-1,1.0,0.916501000000153
332,15,0.5,0.125,-35.0,-1,1.0,0.1306010000000697
333,15,0.5,0.0625,35.0,1,1.0,2.3781000000001313
334,15,0.5,0.0625,-35.0,-1,1.0,0.2136000000000422
335,15,0.5,1.0,-35.0,-1,1.0,0.21420000000011896
336,15,0.5,1.0,35.0,1,1.0,0.3447009999999864
337,15,0.5,0.125,35.0,1,1.0,1.2481010000001334
338,15,0.5,1.0,-35.0,-1,1.0,0.6645009999999729
339,15,0.5,1.0,-35.0,-1,1.0,1.3947010000001683
340,15,0.5,0.25,-35.0,1,0.0,2.7308009999999285
341,15,0.4,0.25,35.0,1,1.0,0.580801000000065
342,15,0.5,1.0,-35.0,-1,1.0,0.7278000000001157
343,15,0.5,0.0625,35.0,1,1.0,2.4579000000001088
344,15,0.5,0.125,-35.0,1,0.0,0.38530100000002676
345,15,0.5,0.0625,-35.0,1,0.0,1.9148999999999887
346,15,0.5,0.125,-35.0,-1,1.0,2.4144000000001142
347,15,0.5,1.0,-35.0,-1,1.0,0.17750099999989288
348,15,0.5,0.25,35.0,1,1.0,0.4417000000000826
349,15,0.5,0.125,35.0,1,1.0,0.21510000000012042
350,15,0.5,0.0625,35.0,1,1.0,4.255000000000109
351,15,0.5,1.0,-35.0,-1,1.0,0.3052010000001246
352,15,0.5,0.125,-35.0,-1,1.0,0.2592010000003029
353,15,0.5,0.0,-35.0,1,0.0,2.21220100000005
354,15,0.5,0.125,35.0,-1,0.0,0.3052010000001246
355,15,0.5,0.125,35.0,1,1.0,0.385300000000143
356,15,0.5,0.0,-35.0,1,0.0,0.9133010000000468
357,15,0.5,0.25,-35.0,-1,1.0,0.2051000000001295
358,15,0.5,0.0625,35.0,1,1.0,0.24230000000011387
359,15,0.5,1.0,35.0,1,1.0,0.24560100000007878
360,15,0.5,0.125,35.0,1,1.0,1.8222010000001774
361,15,0.5,0.0625,35.0,1,1.0,0.38190099999997074
362,15,0.5,0.125,-35.0,-1,1.0,0.21240000000011605
363,15,0.5,1.0,35.0,-1,0.0,0.0886000000000422
364,15,0.5,0.0,35.0,1,1.0,0.2669000000003052
365,15,0.5,1.0,-35.0,-1,1.0,0.1898999999998523
366,15,0.5,0.125,35.0,1,1.0,0.20870100000001912
367,15,0.5,0.0625,-35.0,-1,1.0,0.29300100000000384
368,15,0.5,0.0625,35.0,-1,0.0,0.16910100000018247
369,15,0.5,0.25,-35.0,-1,1.0,0.21230100000002494
370,15,0.5,0.0625,-35.0,-1,1.0,0.1856999999999971
371,15,0.5,0.125,-35.0,-1,1.0,0.229001000000153
372,15,0.5,0.125,-35.0,-1,1.0,0.2066010000003189
373,15,0.5,1.0,35.0,1,1.0,0.3526999999999134
374,15,0.5,0.0625,35.0,1,1.0,2.7359010000000126
375,15,0.5,0.0625,35.0,1,1.0,0.1908000000003085
376,15,0.5,0.125,35.0,1,1.0,0.2437999999999647
377,15,0.5,0.0625,35.0,1,1.0,6.026701000000003
378,15,0.5,0.0625,35.0,1,1.0,0.2998010000001159
379,15,0.5,1.0,35.0,1,1.0,0.571400000000267
380,15,0.5,0.25,35.0,1,1.0,2.520000000000209
381,15,0.5,0.25,-35.0,-1,1.0,0.20670000000018263
382,15,0.5,0.125,-35.0,1,0.0,1.093900000000076
383,15,0.9,0.125,-35.0,-1,1.0,1.6472009999999955
384,15,0.5,1.0,-35.0,-1,1.0,0.32700000000022555
385,15,0.5,1.0,35.0,1,1.0,0.3440010000001621
386,15,0.5,0.125,-35.0,-1,1.0,6.8271000000002005
387,15,0.5,0.25,-35.0,-1,1.0,0.44540100000017446
388,15,0.5,0.25,35.0,1,1.0,0.4805010000002312
389,15,0.5,0.0625,35.0,-1,0.0,9.561800999999832
390,15,0.5,0.25,-35.0,-1,1.0,0.21920000000000073
391,15,0.5,1.0,-35.0,-1,1.0,0.16140000000018517
392,15,0.5,0.0,-35.0,-1,1.0,0.3123000000000502
393,15,0.5,1.0,-35.0,-1,1.0,0.2075999999999567
394,15,0.5,1.0,35.0,-1,0.0,0.17840000000001055
395,15,0.5,0.25,-35.0,-1,1.0,0.3456010000002152
396,15,0.5,0.125,35.0,1,1.0,2.5615009999999074
397,15,0.5,0.0625,35.0,1,1.0,0.49459999999999127
398,15,0.5,0.0,-35.0,1,0.0,2.161299999999983
399,15,0.5,0.0625,35.0,1,1.0,1.0259010000002036
400,15,0.5,1.0,35.0,1,1.0,0.22499999999990905
401,15,0.5,0.0625,35.0,1,1.0,0.3786009999998896
402,15,0.5,0.25,35.0,-1,0.0,0.09560099999998783
403,15,0.6,0.25,35.0,1,1.0,0.3626010000000406
404,15,0.5,1.0,-35.0,-1,1.0,0.19550000000026557
405,15,0.5,0.0,35.0,1,1.0,0.4217999999998483
406,15,0.5,1.0,35.0,1,1.0,1.3460010000001148
407,15,0.5,0.0625,35.0,1,1.0,0.41330100000004677
408,15,0.5,1.0,35.0,1,1.0,0.6198010000002796
409,15,0.5,0.0,35.0,1,1.0,1.8958000000000084
410,15,0.5,0.25,35.0,1,1.0,4.509499999999889
411,15,0.5,0.25,35.0,1,1.0,2.092200999999932
412,15,0.5,0.0625,-35.0,-1,1.0,3.636099999999942
413,15,0.5,1.0,35.0,1,1.0,0.24370100000010098
414,15,0.5,0.125,35.0,1,1.0,3.039800000000241
415,15,0.5,1.0,35.0,1,1.0,2.3341009999999187
416,15,0.5,0.25,35.0,1,1.0,1.9341000000001713
417,15,0.5,1.0,-35.0,-1,1.0,4.570999999999913
418,15,0.5,0.25,35.0,1,1.0,4.973100000000159
419,15,0.5,0.0625,35.0,1,1.0,2.077201000000059
420,15,0.5,0.125,-35.0,1,0.0,0.9143010000000231
421,15,0.5,0.125,35.0,1,1.0,0.4673010000001341
422,15,0.5,0.0,-35.0,-1,1.0,15.837301000000025
423,15,0.5,0.0,35.0,1,1.0,0.26850000000013097
424,15,0.5,0.25,-35.0,-1,1.0,0.981499999999869
425,15,0.5,0.0,35.0,1,1.0,1.2380009999999402
426,15,0.5,1.0,-35.0,-1,1.0,0.14750099999992017
427,15,0.5,0.25,-35.0,-1,1.0,2.1556009999999333
428,15,0.5,1.0,35.0,1,1.0,1.0915999999999713
429,15,0.5,1.0,-35.0,-1,1.0,0.21460000000024593
430,15,0.5,0.25,-35.0,-1,1.0,1.3057009999999991
431,15,0.5,1.0,35.0,1,1.0,0.23769999999990432
432,15,0.5,0.25,-35.0,-1,1.0,0.2656010000000606
433,15,0.5,1.0,-35.0,-1,1.0,0.17170099999998456
434,15,0.5,0.25,-35.0,-1,1.0,0.19870099999980084
435,15,0.5,0.125,35.0,1,1.0,0.23490100000003622
436,15,0.5,0.0625,-35.0,-1,1.0,0.2045010000001639
437,15,0.5,0.125,-35.0,-1,1.0,0.21880099999998492
438,15,0.5,0.0,-35.0,-1,1.0,6.625800000000027
439,15,0.5,0.25,35.0,-1,0.0,0.2979010000001381
440,15,0.5,0.125,35.0,1,1.0,19.157801000000063
441,15,0.5,0.0625,35.0,-1,0.0,14.568099999999959
442,15,0.5,0.125,35.0,-1,0.0,33.58179999999993
443,15,0.5,0.0,-35.0,-1,1.0,25.08269999999993
444,15,0.5,0.0625,35.0,1,1.0,24.353200000000015
445,15,0.5,1.0,35.0,-1,0.0,20.42700100000002
446,15,0.5,0.0625,-35.0,1,0.0,15.934300000000121
447,15,0.5,0.25,35.0,-1,0.0,45.67800000000011
448,15,0.5,0.125,-35.0,0,0.0,59.95900000000006
