trial_num,session_num,stim_probability_left,contrast,position,response_choice,trial_correct,reaction_time
1,1,0.5,0.125,35.0,1,1.0,0.8202
2,1,0.5,0.125,35.0,1,1.0,0.2614999999999994
3,1,0.5,0.125,-35.0,-1,1.0,4.6741
4,1,0.5,0.0625,-35.0,-1,1.0,3.2155000000000005
5,1,0.5,0.0,35.0,-1,0.0,4.995700000000003
6,1,0.5,1.0,-35.0,-1,1.0,3.561799999999998
7,1,0.5,0.0625,-35.0,-1,1.0,2.8737999999999992
8,1,0.5,1.0,-35.0,-1,1.0,3.8582000000000036
9,1,0.5,0.25,35.0,1,1.0,0.26310000000000144
10,1,0.5,0.25,-35.0,-1,1.0,5.285200000000003
11,1,0.5,0.0625,-35.0,1,0.0,0.223700000000008
12,1,0.5,1.0,-35.0,1,0.0,0.20220000000000482
13,1,0.5,0.25,-35.0,-1,1.0,6.028100000000002
14,1,0.5,0.125,-35.0,-1,1.0,5.843999999999994
15,1,0.5,1.0,-35.0,-1,1.0,4.613900000000001
16,1,0.5,0.25,35.0,1,1.0,0.2488000000000028
17,1,0.5,0.0625,35.0,-1,0.0,6.510000000000005
18,1,0.5,0.125,35.0,1,1.0,0.30279999999999063
19,1,0.5,1.0,35.0,1,1.0,0.20639999999998793
20,1,0.5,0.125,35.0,1,1.0,0.20059999999999434
21,1,0.5,0.125,35.0,-1,0.0,8.170699999999997
22,1,0.5,1.0,35.0,1,1.0,0.22279999999997813
23,1,0.5,0.0625,35.0,-1,0.0,12.645899999999997
24,1,0.5,1.0,-35.0,-1,1.0,0.31689999999997553
25,1,0.5,0.0,-35.0,-1,1.0,15.631499999999988
26,1,0.5,1.0,-35.0,-1,1.0,0.5754000000000019
27,1,0.5,0.0625,-35.0,-1,1.0,12.67519999999999
28,1,0.5,1.0,35.0,1,1.0,0.22030000000000882
29,1,0.5,0.125,35.0,1,1.0,0.1950999999999965
30,1,0.5,0.25,-35.0,-1,1.0,9.800300000000021
31,1,0.5,0.0625,-35.0,-1,1.0,5.936700000000002
32,1,0.5,1.0,-35.0,-1,1.0,0.30469999999999686
33,1,0.5,0.125,35.0,-1,0.0,10.141599999999983
34,1,0.5,1.0,35.0,1,1.0,0.2108000000000061
35,1,0.5,0.125,-35.0,-1,1.0,19.665599999999984
36,1,0.5,0.25,-35.0,-1,1.0,12.005900000000025
37,1,0.5,0.125,35.0,1,1.0,0.23890000000002942
38,1,0.5,0.125,35.0,-1,0.0,9.567000000000007
39,1,0.5,0.125,35.0,-1,0.0,0.5364999999999895
40,1,0.5,0.0625,-35.0,-1,1.0,13.244100000000003
41,1,0.5,0.0625,-35.0,-1,1.0,17.043200000000013
42,1,0.5,0.0625,35.0,-1,0.0,9.771700000000067
43,1,0.5,0.125,-35.0,-1,1.0,0.5215000000000032
44,1,0.5,0.0625,-35.0,-1,1.0,2.431600000000003
45,1,0.5,0.0625,35.0,-1,0.0,6.595399999999984
46,1,0.5,0.0625,-35.0,-1,1.0,0.5808000000000106
47,1,0.5,0.0625,35.0,-1,0.0,5.465700000000027
48,1,0.5,0.0625,-35.0,-1,1.0,0.23440000000005057
49,1,0.5,0.25,35.0,1,1.0,0.26799999999997226
50,1,0.5,0.0,35.0,-1,0.0,4.8945999999999685
51,1,0.5,0.125,35.0,1,1.0,0.28759999999999764
52,1,0.5,0.0625,35.0,-1,0.0,4.497800000000041
53,1,0.5,0.25,35.0,1,1.0,0.27060000000000173
54,1,0.5,0.0625,35.0,1,1.0,0.8120000000000118
55,1,0.5,0.25,-35.0,1,0.0,0.18439999999998236
56,1,0.5,0.125,35.0,1,1.0,0.3769999999999527
57,1,0.5,0.25,-35.0,-1,1.0,0.3102000000000089
58,1,0.5,1.0,35.0,1,1.0,0.26900000000000546
59,1,0.5,1.0,-35.0,-1,1.0,0.8284000000000447
60,1,0.5,0.0,35.0,-1,0.0,0.38060000000001537
61,1,0.5,0.125,-35.0,-1,1.0,3.232900000000029
62,1,0.5,0.0,35.0,-1,0.0,1.0172000000000025
63,1,0.5,0.0,35.0,-1,0.0,0.5083999999999946
64,1,0.5,1.0,35.0,1,1.0,0.22549999999995407
65,1,0.5,1.0,35.0,-1,0.0,4.967899999999986
66,1,0.5,0.125,-35.0,-1,1.0,0.3119000000000369
67,1,0.5,0.0625,35.0,-1,0.0,5.94319999999999
68,1,0.5,0.0,-35.0,-1,1.0,0.2606999999999857
69,1,0.5,0.0625,-35.0,-1,1.0,4.731400000000008
70,1,0.5,0.0,-35.0,-1,1.0,3.714400000000012
71,1,0.5,0.0625,-35.0,-1,1.0,5.882600000000025
72,1,0.5,0.0,-35.0,-1,1.0,0.35979999999995016
73,1,0.5,0.125,35.0,-1,0.0,7.471799999999973
74,1,0.5,0.0,35.0,-1,0.0,3.99369999999999
75,1,0.5,1.0,35.0,1,1.0,0.2477000000000089
76,1,0.5,0.25,35.0,-1,0.0,0.799699999999973
77,1,0.5,0.125,35.0,-1,0.0,4.902299999999968
78,1,0.5,1.0,-35.0,-1,1.0,0.245900000000006
79,1,0.5,0.0625,35.0,1,1.0,0.3269000000000233
80,1,0.5,1.0,35.0,-1,0.0,4.030599999999993
81,1,0.5,0.125,35.0,-1,0.0,4.370799999999974
82,1,0.5,0.0625,35.0,-1,0.0,5.555100000000039
83,1,0.5,1.0,35.0,1,1.0,0.1802000000000703
84,1,0.5,0.0625,-35.0,-1,1.0,0.8623000000000047
85,1,0.5,0.25,35.0,1,1.0,0.26120000000003074
86,1,0.5,0.125,-35.0,-1,1.0,0.3126999999999498
87,1,0.5,1.0,35.0,1,1.0,5.947300000000041
88,1,0.5,0.125,-35.0,-1,1.0,0.36829999999997654
89,1,0.5,0.0,-35.0,-1,1.0,0.4112999999999829
90,1,0.5,0.125,-35.0,-1,1.0,0.2722999999999729
91,1,0.2,0.0625,35.0,-1,0.0,0.4574000000000069
92,1,0.2,0.125,-35.0,-1,1.0,2.8203000000000884
93,1,0.2,0.0625,35.0,-1,0.0,4.460500000000025
94,1,0.2,0.25,35.0,-1,0.0,0.42660000000000764
95,1,0.2,0.0625,35.0,-1,0.0,0.7267990000000282
96,1,0.2,0.25,35.0,1,1.0,0.22859999999991487
97,1,0.2,1.0,35.0,1,1.0,0.3005999999999176
98,1,0.2,0.0625,35.0,-1,0.0,0.14649999999994634
99,1,0.2,0.0,-35.0,-1,1.0,2.557600000000093
100,1,0.2,0.125,35.0,-1,0.0,0.34179999999992106
101,1,0.2,1.0,35.0,1,1.0,0.28490000000010696
102,1,0.2,0.125,-35.0,-1,1.0,0.29149999999992815
103,1,0.2,1.0,35.0,-1,0.0,2.6499000000000024
104,1,0.2,0.0625,-35.0,-1,1.0,5.327800000000025
105,1,0.2,0.0,35.0,-1,0.0,6.233799999999974
106,1,0.2,0.25,-35.0,-1,1.0,0.8211000000000013
107,1,0.2,0.125,35.0,-1,0.0,4.080900000000042
108,1,0.2,0.125,-35.0,-1,1.0,4.55619999999999
109,1,0.2,1.0,35.0,1,1.0,0.21609999999998308
110,1,0.2,1.0,35.0,1,1.0,0.22310000000004493
111,1,0.2,0.0625,-35.0,-1,1.0,6.537700000000086
112,1,0.2,1.0,35.0,1,1.0,0.18289999999990414
113,1,0.2,0.125,35.0,-1,0.0,0.4276000000000977
114,1,0.2,0.0,35.0,1,1.0,16.342199999999934
115,1,0.2,0.0625,35.0,-1,0.0,22.178099999999972
116,1,0.2,0.0625,35.0,-1,0.0,0.32579999999995835
117,1,0.2,1.0,35.0,1,1.0,0.5872999999999138
118,1,0.2,0.125,35.0,-1,0.0,2.7980999999999767
119,1,0.2,0.25,-35.0,-1,1.0,6.926399999999944
120,1,0.2,1.0,35.0,1,1.0,0.7948000000000093
121,1,0.2,0.125,35.0,-1,0.0,5.080900000000042
122,1,0.2,1.0,35.0,1,1.0,0.29960000000005493
123,1,0.2,0.125,35.0,1,1.0,1.1887000000000398
124,1,0.2,0.125,-35.0,-1,1.0,0.3330000000000837
125,1,0.2,0.125,35.0,1,1.0,0.5589999999999691
126,1,0.2,0.25,-35.0,-1,1.0,4.305700000000002
127,1,0.2,0.25,35.0,1,1.0,0.3935999999999922
128,1,0.2,0.125,35.0,-1,0.0,0.3250999999999067
129,1,0.2,0.125,35.0,1,1.0,0.18410000000005766
130,1,0.2,0.0625,-35.0,-1,1.0,0.2661000000000513
131,1,0.2,0.0,35.0,-1,0.0,9.908599999999979
132,1,0.2,0.25,35.0,1,1.0,0.3045999999999367
133,1,0.2,0.0625,35.0,-1,0.0,1.3242999999999938
134,1,0.8,0.125,-35.0,1,0.0,0.17409999999995307
135,1,0.8,1.0,-35.0,-1,1.0,0.5422999999999547
136,1,0.8,0.125,35.0,1,1.0,0.30890000000010787
137,1,0.8,0.0,-35.0,-1,1.0,0.2720000000000482
138,1,0.8,0.0625,-35.0,-1,1.0,1.211999999999989
139,1,0.8,0.125,-35.0,-1,1.0,0.24220000000002528
140,1,0.8,0.125,-35.0,-1,1.0,0.28750000000002274
141,1,0.8,0.25,-35.0,-1,1.0,0.2563000000000102
142,1,0.8,0.0625,35.0,1,1.0,0.5306999999999107
143,1,0.8,0.0625,-35.0,-1,1.0,0.29139999999995325
144,1,0.8,0.125,-35.0,-1,1.0,0.43649999999990996
145,1,0.8,0.125,-35.0,-1,1.0,0.5685999999999467
146,1,0.8,0.25,-35.0,-1,1.0,3.527599999999893
147,1,0.8,0.25,-35.0,-1,1.0,2.2467000000000326
148,1,0.8,1.0,-35.0,-1,1.0,0.27159999999992124
149,1,0.8,0.0625,-35.0,-1,1.0,1.3138999999999896
150,1,0.8,0.125,-35.0,-1,1.0,0.2582999999999629
151,1,0.8,0.125,35.0,-1,0.0,0.4762999999999238
152,1,0.8,0.125,35.0,-1,0.0,4.191700000000083
153,1,0.8,1.0,35.0,1,1.0,0.4833000000000993
154,1,0.8,0.125,-35.0,-1,1.0,3.2958999999999605
155,1,0.8,1.0,-35.0,-1,1.0,2.339399999999955
156,1,0.8,0.125,35.0,1,1.0,0.19249999999999545
157,1,0.8,0.0625,-35.0,-1,1.0,0.35820000000001073
158,1,0.8,0.0,-35.0,-1,1.0,2.751600000000053
159,1,0.8,0.0,35.0,-1,0.0,2.6382999999999583
160,1,0.8,0.25,-35.0,-1,1.0,0.5914999999999964
161,1,0.8,0.0625,-35.0,-1,1.0,2.8491000000000213
162,1,0.8,0.0625,-35.0,-1,1.0,1.970199999999977
163,1,0.8,0.0625,-35.0,-1,1.0,0.8352999999999611
164,1,0.8,0.125,-35.0,-1,1.0,2.4867000000000417
165,1,0.8,1.0,-35.0,-1,1.0,0.29349999999999454
166,1,0.8,0.125,-35.0,-1,1.0,0.9273999999999205
167,1,0.8,0.125,-35.0,-1,1.0,4.675600000000031
168,1,0.8,0.25,-35.0,-1,1.0,0.7143999999999551
169,1,0.8,1.0,-35.0,-1,1.0,0.2764999999999418
170,1,0.8,0.25,35.0,-1,0.0,2.852200000000039
171,1,0.8,0.125,-35.0,-1,1.0,0.7441000000000031
172,1,0.8,0.25,-35.0,-1,1.0,0.3080999999999676
173,1,0.8,0.25,-35.0,-1,1.0,1.432800000000043
174,1,0.8,0.0625,-35.0,-1,1.0,0.34960000000000946
175,1,0.8,1.0,-35.0,-1,1.0,0.7173000000000229
176,1,0.8,0.0,-35.0,-1,1.0,6.808999999999969
177,1,0.2,0.125,35.0,1,1.0,0.4032999999999447
178,1,0.2,0.25,35.0,1,1.0,0.3242999999999938
179,1,0.2,1.0,35.0,1,1.0,0.33400000000006
180,1,0.2,0.0625,-35.0,-1,1.0,10.729600000000005
181,1,0.2,0.0625,35.0,-1,0.0,12.402000000000044
182,1,0.2,1.0,35.0,1,1.0,0.3046000000000504
183,1,0.2,0.0625,35.0,-1,0.0,12.403699999999958
184,1,0.2,0.125,35.0,1,1.0,4.0400999999999385
185,1,0.2,0.125,-35.0,-1,1.0,1.008899999999926
186,1,0.2,0.125,35.0,1,1.0,0.2925999999999931
187,1,0.2,0.25,35.0,1,1.0,0.41629999999997835
188,1,0.2,0.125,35.0,1,1.0,0.2579999999999245
189,1,0.2,1.0,35.0,1,1.0,0.5213999999999714
190,1,0.2,0.25,35.0,-1,0.0,0.9180000000000064
191,1,0.2,0.0625,35.0,1,1.0,0.4983000000000857
192,1,0.2,1.0,35.0,1,1.0,0.8415999999999713
193,1,0.2,0.125,-35.0,1,0.0,8.138400000000047
194,1,0.2,0.0625,35.0,-1,0.0,0.3246999999998934
195,1,0.2,1.0,35.0,1,1.0,0.21449999999981628
196,1,0.2,1.0,35.0,1,1.0,0.5694999999998345
197,1,0.2,1.0,35.0,1,1.0,0.4981999999999971
198,1,0.2,0.0625,35.0,1,1.0,0.33320000000003347
199,1,0.2,0.0625,-35.0,-1,1.0,0.2825000000000273
200,1,0.2,0.125,35.0,1,1.0,0.38400000000001455
201,1,0.2,0.125,-35.0,1,0.0,0.3525999999999385
202,1,0.2,0.0,-35.0,-1,1.0,1.0423000000000684
203,1,0.2,0.25,35.0,1,1.0,0.320699999999988
204,1,0.2,0.125,35.0,-1,0.0,6.235900000000129
205,1,0.2,0.0625,35.0,-1,0.0,4.8728000000000975
206,1,0.2,1.0,35.0,1,1.0,0.23620000000005348
207,1,0.2,0.0,-35.0,-1,1.0,0.4494999999999436
208,1,0.2,0.25,-35.0,-1,1.0,0.8830000000000382
209,1,0.2,0.25,35.0,1,1.0,0.6030000000000655
210,1,0.2,0.0625,35.0,1,1.0,8.329700000000003
211,1,0.2,0.0625,35.0,-1,0.0,3.2832999999998265
212,1,0.2,1.0,35.0,1,1.0,0.2700999999999567
213,1,0.2,0.125,35.0,1,1.0,1.5367999999998574
214,1,0.2,0.25,35.0,1,1.0,0.3202000000001135
215,1,0.2,0.25,35.0,1,1.0,0.3569999999999709
216,1,0.2,0.0625,-35.0,-1,1.0,7.516999999999825
217,1,0.8,1.0,-35.0,-1,1.0,1.130500000000211
218,1,0.8,0.0,-35.0,-1,1.0,5.207299999999805
219,1,0.8,0.25,35.0,1,1.0,2.0208000000000084
220,1,0.8,0.0,-35.0,1,0.0,0.2276000000001659
221,1,0.8,1.0,-35.0,-1,1.0,7.380900000000111
222,1,0.8,0.0,-35.0,1,0.0,3.374499999999898
223,1,0.8,0.125,-35.0,-1,1.0,0.3011999999998807
224,1,0.8,0.25,-35.0,-1,1.0,0.3947000000000571
225,1,0.8,0.0625,-35.0,1,0.0,0.24129999999991014
226,1,0.8,0.125,-35.0,1,0.0,0.5514000000000578
227,1,0.8,1.0,-35.0,-1,1.0,1.2147999999999683
228,1,0.8,0.125,-35.0,-1,1.0,0.25499999999988177
229,1,0.8,0.0,-35.0,-1,1.0,4.508299999999963
230,1,0.8,0.25,-35.0,-1,1.0,0.47860000000014224
231,1,0.8,0.0,-35.0,-1,1.0,2.8217999999999392
232,1,0.8,0.0625,-35.0,-1,1.0,5.745300000000043
233,1,0.8,0.0,-35.0,-1,1.0,20.90560000000005
234,1,0.8,0.0625,-35.0,-1,1.0,0.23260000000004766
235,1,0.8,0.25,-35.0,-1,1.0,8.229299999999967
236,1,0.8,0.25,-35.0,-1,1.0,0.10619999999994434
237,1,0.8,0.0,-35.0,-1,1.0,0.23300000000017462
238,1,0.8,0.25,-35.0,-1,1.0,0.38970000000017535
239,1,0.8,1.0,-35.0,-1,1.0,0.8298000000002048
240,1,0.8,0.125,-35.0,-1,1.0,0.32970000000000255
241,1,0.8,0.0625,-35.0,-1,1.0,0.5997999999999593
242,1,0.2,0.0,35.0,-1,0.0,0.28650000000016007
243,1,0.2,0.25,35.0,1,1.0,0.20660000000020773
244,1,0.2,0.0,-35.0,-1,1.0,0.23669999999992797
245,1,0.2,0.25,35.0,-1,0.0,1.8066999999998643
246,1,0.2,0.0625,35.0,-1,0.0,1.1334999999999127
247,1,0.2,0.0625,-35.0,-1,1.0,0.3936989999999696
248,1,0.2,0.25,35.0,-1,0.0,1.647000000000162
249,1,0.2,0.125,35.0,-1,0.0,2.9604000000001633
250,1,0.2,0.25,35.0,1,1.0,0.3906000000001768
251,1,0.2,1.0,35.0,1,1.0,0.35730000000012296
252,1,0.2,0.0625,35.0,1,1.0,2.110700000000179
253,1,0.2,0.0625,35.0,1,1.0,0.7540000000001328
254,1,0.2,1.0,35.0,1,1.0,0.39419999999995525
255,1,0.2,1.0,35.0,1,1.0,0.28749999999990905
256,1,0.2,1.0,35.0,1,1.0,0.24430000000006658
257,1,0.2,1.0,35.0,1,1.0,0.2576000000001386
258,1,0.2,0.125,-35.0,1,0.0,0.28100000000017644
259,1,0.2,0.0,35.0,1,1.0,0.3011999999998807
260,1,0.2,1.0,35.0,1,1.0,0.2011000000002241
261,1,0.2,0.0625,-35.0,-1,1.0,0.3044999999999618
262,1,0.2,0.125,35.0,1,1.0,1.1912999999999556
263,1,0.2,1.0,35.0,1,1.0,0.20129999999994652
264,1,0.2,0.125,35.0,1,1.0,0.20470000000000255
265,1,0.2,0.125,35.0,1,1.0,0.2114000000001397
266,1,0.2,0.0,35.0,1,1.0,0.3648999999998068
267,1,0.2,0.25,-35.0,-1,1.0,0.1215999999997166
268,1,0.2,0.0,35.0,1,1.0,9.43489999999997
269,1,0.2,0.25,35.0,1,1.0,0.41190000000005966
270,1,0.2,0.0,35.0,1,1.0,4.5052999999998065
271,1,0.2,0.0,35.0,-1,0.0,0.8522000000000389
272,1,0.2,0.125,35.0,1,1.0,0.2555999999999585
273,1,0.2,0.0625,35.0,1,1.0,2.6621999999999844
274,1,0.2,0.125,35.0,1,1.0,0.21910000000002583
275,1,0.2,0.0625,35.0,-1,0.0,5.599099999999908
276,1,0.2,1.0,35.0,1,1.0,0.19270000000005894
277,1,0.2,0.0,35.0,-1,0.0,2.7326000000000477
278,1,0.2,0.0625,35.0,1,1.0,0.2360999999998512
279,1,0.2,0.25,-35.0,-1,1.0,0.9128000000000611
280,1,0.2,0.125,35.0,-1,0.0,11.622900000000072
281,1,0.2,0.25,35.0,1,1.0,4.0332999999998265
282,1,0.2,0.0625,-35.0,-1,1.0,3.5768000000000484
283,1,0.2,0.25,35.0,1,1.0,0.5634999999999764
284,1,0.2,0.125,-35.0,1,0.0,4.413499999999885
285,1,0.2,0.0,-35.0,-1,1.0,0.27700000000004366
286,1,0.2,0.25,35.0,1,1.0,0.2138999999999669
287,1,0.2,0.25,35.0,1,1.0,0.5038999999999305
288,1,0.2,1.0,-35.0,-1,1.0,0.3772000000001299
289,1,0.2,1.0,35.0,1,1.0,0.21059999999988577
290,1,0.2,0.0625,35.0,-1,0.0,1.3372999999999138
291,1,0.2,0.0625,35.0,1,1.0,1.0240999999998621
292,1,0.2,0.0625,35.0,-1,0.0,0.6540999999999713
293,1,0.2,0.25,35.0,1,1.0,7.134199999999964
294,1,0.2,0.125,35.0,-1,0.0,5.901299999999992
295,1,0.2,0.0625,35.0,-1,0.0,0.2746999999999389
296,1,0.2,0.25,35.0,1,1.0,0.2415000000000873
297,1,0.2,0.0625,35.0,-1,0.0,8.308099999999968
298,1,0.2,0.125,35.0,1,1.0,0.6950999999999112
299,1,0.2,0.0,35.0,-1,0.0,0.2950999999998203
300,1,0.2,0.25,35.0,1,1.0,0.21849999999994907
301,1,0.2,0.25,35.0,1,1.0,0.5052000000000589
302,1,0.2,0.0625,-35.0,-1,1.0,0.3352999999999611
303,1,0.2,0.0625,35.0,-1,0.0,1.0253000000000156
304,1,0.2,0.25,35.0,1,1.0,0.26539999999999964
305,1,0.2,0.0625,35.0,-1,0.0,0.2921000000001186
306,1,0.2,1.0,35.0,1,1.0,0.20890000000008513
307,1,0.2,1.0,35.0,1,1.0,0.18909999999982574
308,1,0.2,0.125,35.0,1,1.0,4.0224000000000615
309,1,0.2,0.125,35.0,1,1.0,0.2925999999997657
310,1,0.2,0.125,35.0,-1,0.0,0.42249999999989996
311,1,0.2,0.125,35.0,-1,0.0,3.1193000000000666
312,1,0.2,0.125,35.0,1,1.0,0.28939999999988686
313,1,0.8,0.0,-35.0,1,0.0,4.782900000000154
314,1,0.8,0.0,35.0,-1,0.0,4.136398999999983
315,1,0.8,0.0625,-35.0,1,0.0,0.2299000000000433
316,1,0.8,0.25,-35.0,-1,1.0,8.746599999999944
317,1,0.8,0.0,35.0,-1,0.0,0.48679999999990287
318,1,0.8,0.125,-35.0,-1,1.0,6.4202000000000226
319,1,0.8,0.0625,-35.0,-1,1.0,8.540500000000065
320,1,0.8,1.0,-35.0,-1,1.0,5.054099999999835
321,1,0.8,1.0,-35.0,-1,1.0,0.26769999999987704
322,1,0.8,1.0,-35.0,-1,1.0,1.8876999999999953
323,1,0.8,0.25,-35.0,-1,1.0,4.371000000000095
324,1,0.8,0.0,-35.0,-1,1.0,0.3477999999997792
325,1,0.8,1.0,-35.0,-1,1.0,0.27789999999981774
326,1,0.8,0.25,-35.0,-1,1.0,0.4878999999998541
327,1,0.8,1.0,-35.0,-1,1.0,8.818000000000211
328,1,0.8,0.125,-35.0,-1,1.0,5.338200000000143
329,1,0.8,0.0625,-35.0,-1,1.0,19.14500000000021
330,1,0.8,0.125,-35.0,-1,1.0,7.212199999999939
331,1,0.8,0.0625,-35.0,-1,1.0,0.322400000000016
332,1,0.8,1.0,-35.0,-1,1.0,4.0957999999998265
333,1,0.8,1.0,-35.0,-1,1.0,0.6424999999999272
334,1,0.8,0.25,-35.0,-1,1.0,0.31930000000011205
335,1,0.8,1.0,35.0,1,1.0,0.3327999999999065
336,1,0.2,0.0625,35.0,-1,0.0,3.399499999999989
337,1,0.2,0.25,35.0,1,1.0,0.2762999999997646
338,1,0.2,0.25,35.0,1,1.0,0.32960000000002765
339,1,0.2,0.0625,35.0,1,1.0,0.2697000000000571
340,1,0.2,1.0,35.0,1,1.0,0.21299999999996544
341,1,0.2,1.0,35.0,1,1.0,0.4498000000000957
342,1,0.2,1.0,35.0,1,1.0,0.2998999999999796
343,1,0.2,0.25,35.0,1,1.0,1.8566000000000713
344,1,0.2,1.0,-35.0,1,0.0,5.163299999999936
345,1,0.2,0.25,35.0,1,1.0,0.23029999999994288
346,1,0.2,0.125,35.0,1,1.0,0.32019999999988613
347,1,0.2,0.0625,35.0,-1,0.0,9.40359999999987
348,1,0.2,0.25,35.0,1,1.0,0.5839000000000851
349,1,0.2,0.0625,35.0,-1,0.0,5.800599999999804
350,1,0.2,0.0,35.0,1,1.0,0.49749999999994543
351,1,0.2,0.125,35.0,1,1.0,0.4942000000000917
352,1,0.2,0.0625,35.0,-1,0.0,0.6509000000000924
353,1,0.2,0.25,-35.0,1,0.0,6.8542999999999665
354,1,0.2,0.25,35.0,1,1.0,0.3111999999998716
355,1,0.2,0.125,35.0,1,1.0,0.39799999999991087
356,1,0.2,1.0,-35.0,-1,1.0,0.6981000000000677
357,1,0.8,0.0,-35.0,1,0.0,0.7081000000000586
358,1,0.8,0.25,-35.0,1,0.0,0.5280999999999949
359,1,0.8,1.0,-35.0,-1,1.0,0.7049000000001797
360,1,0.8,0.25,-35.0,1,0.0,3.4149999999999636
361,1,0.8,0.0625,-35.0,-1,1.0,0.48509999999987485
362,1,0.8,0.0,-35.0,-1,1.0,10.34519999999975
363,1,0.8,0.0625,-35.0,-1,1.0,0.4287000000001626
364,1,0.8,0.0625,-35.0,-1,1.0,2.4054000000000997
365,1,0.8,0.0625,-35.0,-1,1.0,0.3623999999999796
366,1,0.8,0.0,-35.0,-1,1.0,0.3424000000002252
367,1,0.8,0.25,35.0,1,1.0,0.5423000000000684
368,1,0.8,1.0,-35.0,-1,1.0,0.22249999999985448
369,1,0.8,0.25,-35.0,-1,1.0,1.1558999999997468
370,1,0.8,0.0625,35.0,1,1.0,0.309099999999944
371,1,0.8,0.25,35.0,1,1.0,0.22929999999996653
372,1,0.8,1.0,-35.0,-1,1.0,0.22259999999982938
373,1,0.8,0.125,-35.0,-1,1.0,0.24610000000006949
374,1,0.8,0.0625,-35.0,-1,1.0,3.4761000000000877
375,1,0.8,0.0625,-35.0,-1,1.0,0.25290000000018154
376,1,0.8,0.0625,-35.0,1,0.0,10.07289999999989
377,1,0.8,0.25,-35.0,-1,1.0,5.276499999999714
378,1,0.8,0.125,-35.0,-1,1.0,3.9233999999999014
379,1,0.8,0.0,-35.0,-1,1.0,3.9101000000000568
380,1,0.8,0.125,-35.0,-1,1.0,0.17709999999988213
381,1,0.8,0.25,-35.0,-1,1.0,0.2536999999999807
382,1,0.8,1.0,-35.0,-1,1.0,4.850500000000011
383,1,0.8,0.125,-35.0,-1,1.0,0.23730000000000473
384,1,0.8,0.125,-35.0,-1,1.0,0.6606999999999061
385,1,0.8,0.0,35.0,-1,0.0,0.2540000000001328
386,1,0.8,0.0625,-35.0,1,0.0,0.5141999999998461
387,1,0.8,0.125,-35.0,-1,1.0,0.8709000000001197
388,1,0.8,1.0,-35.0,-1,1.0,1.4475999999999658
389,1,0.8,1.0,-35.0,-1,1.0,2.764499999999998
390,1,0.8,1.0,-35.0,-1,1.0,0.5045000000000073
391,1,0.8,0.125,-35.0,-1,1.0,3.3577999999999975
392,1,0.8,0.125,-35.0,-1,1.0,0.3147000000001299
393,1,0.8,0.125,-35.0,-1,1.0,3.178000000000111
394,1,0.8,0.125,-35.0,-1,1.0,0.21149999999988722
395,1,0.8,0.25,35.0,1,1.0,0.2881999999999607
396,1,0.8,0.0625,-35.0,-1,1.0,3.244899999999916
397,1,0.8,0.125,-35.0,-1,1.0,0.22169999999982792
398,1,0.8,1.0,-35.0,-1,1.0,0.21510000000012042
399,1,0.8,0.0625,35.0,-1,0.0,0.2184999999997217
400,1,0.8,0.25,-35.0,-1,1.0,0.2886000000000877
401,1,0.8,0.0,-35.0,-1,1.0,0.23190000000022337
402,1,0.8,0.125,-35.0,-1,1.0,4.638599999999997
403,1,0.8,0.0,-35.0,-1,1.0,5.128800000000183
404,1,0.8,0.125,-35.0,-1,1.0,0.235700000000179
405,1,0.8,0.0625,-35.0,-1,1.0,0.2658000000001266
406,1,0.8,0.125,-35.0,-1,1.0,0.26909999999998035
407,1,0.8,0.25,-35.0,-1,1.0,0.22240000000010696
408,1,0.8,0.25,35.0,-1,0.0,4.1424999999997
409,1,0.8,0.125,-35.0,-1,1.0,0.37259999999992033
410,1,0.8,0.0625,35.0,-1,0.0,2.0895000000000437
411,1,0.8,1.0,-35.0,-1,1.0,2.26949999999988
412,1,0.8,0.25,-35.0,-1,1.0,0.25620000000026266
413,1,0.8,0.0625,-35.0,-1,1.0,0.32970000000000255
414,1,0.2,1.0,-35.0,-1,1.0,4.8663000000001375
415,1,0.2,1.0,-35.0,-1,1.0,0.2299000000000433
416,1,0.2,0.125,35.0,-1,0.0,0.2432000000003427
417,1,0.2,0.25,35.0,1,1.0,0.7599999999997635
418,1,0.2,1.0,35.0,1,1.0,0.3833999999997104
419,1,0.2,0.0625,-35.0,-1,1.0,0.3602000000000771
420,1,0.2,0.0,35.0,-1,0.0,3.5867999999995845
421,1,0.2,0.125,35.0,1,1.0,0.24690000000009604
422,1,0.2,0.25,-35.0,-1,1.0,0.29040000000031796
423,1,0.2,0.25,-35.0,-1,1.0,0.34049999999979264
424,1,0.2,0.0,-35.0,-1,1.0,4.20049999999992
425,1,0.2,0.25,-35.0,-1,1.0,1.3407000000001972
426,1,0.2,1.0,35.0,1,1.0,0.22739999999976135
427,1,0.2,0.25,35.0,1,1.0,0.2642000000000735
428,1,0.2,0.0625,35.0,1,1.0,0.30749999999989086
429,1,0.2,0.25,35.0,1,1.0,0.22750000000041837
430,1,0.2,0.25,35.0,1,1.0,0.340900000000147
431,1,0.2,1.0,-35.0,-1,1.0,5.0043000000000575
432,1,0.2,0.25,35.0,1,1.0,0.41449999999986176
433,1,0.2,0.25,35.0,1,1.0,0.28119999999989886
434,1,0.2,0.0625,35.0,1,1.0,0.26789999999982683
435,1,0.2,0.25,35.0,1,1.0,0.2579000000000633
436,1,0.2,0.25,35.0,1,1.0,0.22800000000052023
437,1,0.2,0.25,-35.0,-1,1.0,7.311400000000049
438,1,0.2,1.0,35.0,1,1.0,0.2516000000000531
439,1,0.2,0.0625,35.0,-1,0.0,5.261700000000019
440,1,0.2,1.0,35.0,1,1.0,0.41859999999996944
441,1,0.2,0.125,35.0,1,1.0,5.805299999999988
442,1,0.2,0.125,35.0,1,1.0,0.29539999999997235
443,1,0.2,1.0,35.0,1,1.0,0.22880000000031941
444,1,0.2,1.0,35.0,1,1.0,0.36220000000002983
445,1,0.2,0.0,35.0,-1,0.0,7.865699999999833
446,1,0.2,0.0625,-35.0,-1,1.0,27.465900000000147
447,1,0.2,0.0,-35.0,-1,1.0,3.2630999999996675
448,1,0.2,0.0625,35.0,1,1.0,2.1033000000002176
449,1,0.2,0.0625,35.0,-1,0.0,10.623399999999947
450,1,0.2,1.0,35.0,1,1.0,0.306999999999789
451,1,0.2,0.0625,-35.0,-1,1.0,1.790400000000318
452,1,0.2,0.25,-35.0,-1,1.0,0.31730000000015934
453,1,0.2,0.25,35.0,1,1.0,0.553899999999885
454,1,0.2,0.25,35.0,1,1.0,4.873999999999796
455,1,0.2,0.0,35.0,-1,0.0,13.820900000000165
456,1,0.2,1.0,35.0,1,1.0,0.22450000000026193
457,1,0.2,0.0625,35.0,-1,0.0,3.6246000000001004
458,1,0.2,0.0,-35.0,-1,1.0,0.46139999999968495
459,1,0.2,1.0,35.0,1,1.0,0.2015000000001237
460,1,0.2,0.0625,35.0,-1,0.0,2.5414999999998145
461,1,0.2,0.25,-35.0,-1,1.0,14.49160000000029
462,1,0.2,0.25,-35.0,-1,1.0,2.3186000000000604
463,1,0.2,0.0625,35.0,-1,0.0,0.3453999999996995
464,1,0.2,0.125,35.0,1,1.0,0.32560000000012224
465,1,0.8,0.0625,-35.0,-1,1.0,0.3122000000003027
466,1,0.8,0.0625,-35.0,-1,1.0,0.45559999999977663
467,1,0.8,1.0,-35.0,-1,1.0,0.3290999999999258
468,1,0.8,0.125,-35.0,-1,1.0,1.5324000000000524
469,1,0.8,0.0625,-35.0,-1,1.0,0.3225000000002183
470,1,0.8,0.0625,-35.0,-1,1.0,0.5091999999999643
471,1,0.8,0.125,-35.0,-1,1.0,10.652599999999893
472,1,0.8,0.0625,-35.0,-1,1.0,0.3627999999998792
473,1,0.8,0.125,35.0,-1,0.0,6.116199999999935
474,1,0.8,1.0,-35.0,-1,1.0,0.32310000000006767
475,1,0.8,1.0,35.0,1,1.0,0.2665999999999258
476,1,0.8,1.0,-35.0,-1,1.0,0.2966000000001259
477,1,0.8,0.0625,35.0,-1,0.0,0.3432999999999993
478,1,0.8,0.125,-35.0,-1,1.0,0.3200000000001637
479,1,0.8,0.25,-35.0,-1,1.0,0.30999999999994543
480,1,0.8,0.0,-35.0,-1,1.0,0.2367989999997917
481,1,0.8,0.0,-35.0,-1,1.0,0.29680000000007567
482,1,0.8,0.125,35.0,-1,0.0,0.8302999999996246
483,1,0.8,0.25,-35.0,-1,1.0,0.3170000000000073
484,1,0.8,1.0,-35.0,-1,1.0,5.010400000000118
485,1,0.8,0.0,-35.0,-1,1.0,0.24069999999983338
486,1,0.8,0.125,-35.0,-1,1.0,0.35059999999975844
487,1,0.8,0.125,-35.0,-1,1.0,0.2640999999998712
488,1,0.8,0.25,-35.0,-1,1.0,0.2606999999998152
489,1,0.8,0.0625,35.0,-1,0.0,0.3207999999999629
490,1,0.8,1.0,-35.0,-1,1.0,0.9007999999998901
491,1,0.8,0.125,-35.0,-1,1.0,0.3942000000001826
492,1,0.8,0.0,-35.0,-1,1.0,0.32429999999976644
493,1,0.8,0.0625,35.0,-1,0.0,0.684400000000096
494,1,0.8,1.0,-35.0,-1,1.0,0.3110999999998967
495,1,0.8,0.0,-35.0,-1,1.0,0.26459999999951833
496,1,0.8,0.0625,-35.0,-1,1.0,0.27120000000013533
497,1,0.8,0.0625,-35.0,-1,1.0,0.25460000000020955
498,1,0.8,0.25,-35.0,-1,1.0,0.35470000000032087
499,1,0.8,1.0,35.0,1,1.0,0.29469999999946594
500,1,0.8,0.0625,-35.0,-1,1.0,0.24479999999994106
501,1,0.8,1.0,-35.0,-1,1.0,0.2747999999996864
502,1,0.8,0.0,-35.0,-1,1.0,0.20159999999987122
503,1,0.8,0.25,-35.0,-1,1.0,0.42830000000003565
504,1,0.8,0.25,-35.0,-1,1.0,0.26830000000018117
505,1,0.8,0.125,-35.0,-1,1.0,0.23499999999967258
506,1,0.8,0.0625,-35.0,-1,1.0,0.4050999999999476
507,1,0.8,0.0,-35.0,-1,1.0,0.7219000000000051
508,1,0.8,1.0,-35.0,-1,1.0,0.20859999999993306
509,1,0.8,0.125,-35.0,-1,1.0,0.6286000000000058
510,1,0.8,0.0625,-35.0,-1,1.0,0.5986999999995533
511,1,0.8,0.25,-35.0,-1,1.0,5.5054000000004635
512,1,0.8,0.0625,-35.0,-1,1.0,0.7354999999997744
513,1,0.8,1.0,-35.0,-1,1.0,1.1857000000004518
514,1,0.8,1.0,-35.0,-1,1.0,0.2691999999997279
515,1,0.8,0.0625,-35.0,-1,1.0,0.2424999999998363
516,1,0.8,1.0,-35.0,-1,1.0,0.3524999999999636
517,1,0.8,1.0,-35.0,-1,1.0,0.31599999999980355
518,1,0.8,0.0,-35.0,-1,1.0,0.5792999999998756
519,1,0.8,0.125,-35.0,-1,1.0,0.48609999999962383
520,1,0.8,0.0,-35.0,-1,1.0,5.4728000000000065
521,1,0.8,0.25,-35.0,-1,1.0,0.2696000000000822
522,1,0.8,0.25,-35.0,-1,1.0,0.24970000000030268
523,1,0.8,0.125,-35.0,-1,1.0,2.8229999999998654
524,1,0.8,0.25,-35.0,-1,1.0,0.42650000000003274
525,1,0.8,0.125,35.0,-1,0.0,0.7364999999999782
526,1,0.8,0.125,-35.0,-1,1.0,0.3632999999999811
527,1,0.8,0.0625,-35.0,-1,1.0,0.2300000000000182
528,1,0.2,0.125,-35.0,-1,1.0,0.21030000000018845
529,1,0.2,0.0625,35.0,-1,0.0,0.2701000000001841
530,1,0.2,0.0,-35.0,-1,1.0,0.3734999999996944
531,1,0.2,1.0,35.0,1,1.0,2.200300000000425
532,1,0.2,0.0625,35.0,-1,0.0,22.563700000000154
533,1,0.2,0.25,35.0,1,1.0,15.767699999999877
534,1,0.2,0.125,35.0,-1,0.0,4.984600000000228
535,1,0.2,0.125,35.0,1,1.0,0.5182000000004336
536,1,0.2,0.0,35.0,-1,0.0,2.038300000000163
537,1,0.2,0.25,35.0,1,1.0,1.4650000000001455
538,1,0.2,0.125,35.0,-1,0.0,6.065000000000055
539,1,0.2,0.25,-35.0,-1,1.0,0.46200000000044383
540,1,0.2,0.0625,-35.0,1,0.0,0.23209999999971842
541,1,0.2,1.0,35.0,1,1.0,0.2988000000000284
542,1,0.2,1.0,35.0,1,1.0,0.36220000000002983
543,1,0.2,1.0,35.0,1,1.0,0.2588999999998123
544,1,0.2,0.25,35.0,1,1.0,0.248899999999594
545,1,0.2,1.0,35.0,1,1.0,0.2056999999999789
546,1,0.2,0.0625,35.0,-1,0.0,13.872299999999996
547,1,0.2,1.0,35.0,1,1.0,13.689499999999953
548,1,0.2,0.25,35.0,-1,0.0,3.0464999999999236
549,1,0.2,1.0,35.0,1,1.0,0.5165999999999258
550,1,0.2,0.25,35.0,1,1.0,0.3966000000000349
551,1,0.2,0.25,35.0,-1,0.0,11.023299999999836
552,1,0.8,0.0,-35.0,-1,1.0,3.9869999999996253
553,1,0.8,0.0625,35.0,-1,0.0,5.270500000000084
554,1,0.8,0.125,-35.0,-1,1.0,0.5005999999998494
555,1,0.8,0.25,-35.0,-1,1.0,0.36400000000003274
556,1,0.8,0.25,-35.0,-1,1.0,13.587399999999889
557,1,0.8,1.0,-35.0,-1,1.0,0.29109999999991487
558,1,0.8,1.0,-35.0,-1,1.0,0.8744999999998981
559,1,0.8,0.0,-35.0,-1,1.0,0.4378999999998996
560,1,0.8,1.0,-35.0,-1,1.0,2.2346000000002277
561,1,0.8,0.0625,35.0,-1,0.0,0.43469999999979336
562,1,0.8,0.25,-35.0,-1,1.0,0.8548999999998159
563,1,0.8,0.25,35.0,1,1.0,0.5214999999998327
564,1,0.8,0.25,-35.0,-1,1.0,0.29830000000038126
565,1,0.8,0.125,-35.0,-1,1.0,6.431700000000092
566,1,0.8,1.0,35.0,1,1.0,0.29850000000033106
567,1,0.8,0.0625,-35.0,-1,1.0,0.3852999999999156
568,1,0.8,1.0,-35.0,-1,1.0,0.25860000000011496
569,1,0.8,0.25,35.0,1,1.0,0.2719999999999345
570,1,0.8,0.125,-35.0,-1,1.0,8.895399999999881
571,1,0.8,0.125,-35.0,-1,1.0,0.3188999999997577
572,1,0.8,1.0,-35.0,-1,1.0,0.33910000000014406
573,1,0.8,1.0,35.0,1,1.0,0.7724000000002889
574,1,0.8,0.125,35.0,-1,0.0,7.942599999999857
575,1,0.8,0.0,-35.0,-1,1.0,21.659400000000005
576,1,0.8,0.0625,-35.0,-1,1.0,9.956599999999526
577,1,0.8,0.25,-35.0,-1,1.0,0.33350000000018554
578,1,0.8,1.0,-35.0,-1,1.0,0.8334999999997308
579,1,0.8,0.125,-35.0,-1,1.0,7.270300000000134
580,1,0.8,0.125,-35.0,-1,1.0,0.7804999999998472
581,1,0.8,1.0,35.0,1,1.0,0.5105000000003201
582,1,0.8,0.25,35.0,1,1.0,0.2942000000002736
583,1,0.8,1.0,-35.0,-1,1.0,0.3672999999998865
584,1,0.8,0.25,-35.0,1,0.0,6.51740000000018
585,1,0.8,0.125,-35.0,1,0.0,0.35429999999996653
586,1,0.8,0.125,-35.0,-1,1.0,0.4877999999998792
587,1,0.8,0.0625,-35.0,-1,1.0,0.42439999999987776
588,1,0.8,0.0625,35.0,-1,0.0,24.567900000000463
589,1,0.8,0.0,-35.0,-1,1.0,31.628299999999854
590,1,0.8,1.0,-35.0,-1,1.0,3.0126000000000204
591,1,0.8,1.0,35.0,1,1.0,0.25919999999996435
592,1,0.8,0.0,-35.0,-1,1.0,0.7292999999999665
593,1,0.8,0.25,-35.0,-1,1.0,0.3093000000003485
594,1,0.8,0.0,-35.0,-1,1.0,0.4161000000003696
595,1,0.8,0.125,35.0,1,1.0,0.9794999999999163
596,1,0.8,0.125,-35.0,-1,1.0,0.3962000000005901
597,1,0.8,1.0,-35.0,-1,1.0,15.043099999999868
598,1,0.8,0.0625,-35.0,-1,1.0,0.2966999999998734
599,1,0.8,0.25,-35.0,-1,1.0,12.253400000000056
600,1,0.8,0.125,35.0,-1,0.0,0.3669999999997344
601,1,0.8,0.0,-35.0,-1,1.0,18.85709999999972
602,1,0.8,0.25,-35.0,-1,1.0,1.71100000000024
603,1,0.8,1.0,-35.0,-1,1.0,0.3778009999996357
604,1,0.8,0.0625,-35.0,-1,1.0,0.3344010000000708
605,1,0.8,0.0,-35.0,-1,1.0,0.3044009999998707
606,1,0.8,0.125,-35.0,-1,1.0,0.8245009999996
607,1,0.8,1.0,-35.0,-1,1.0,0.31120099999998274
608,1,0.8,0.25,-35.0,-1,1.0,9.55480099999977
609,1,0.8,0.25,-35.0,-1,1.0,0.3149009999997361
610,1,0.2,0.125,35.0,-1,0.0,8.278301000000283
611,1,0.2,0.25,35.0,1,1.0,0.6752010000000155
612,1,0.2,0.125,35.0,1,1.0,0.27860099999998056
613,1,0.2,1.0,35.0,1,1.0,0.21860100000003513
614,1,0.2,0.125,35.0,1,1.0,0.57870099999991
615,1,0.2,0.0625,35.0,-1,0.0,16.505400999999893
616,1,0.2,0.25,-35.0,-1,1.0,8.939200999999684
617,1,0.2,0.125,35.0,-1,0.0,5.179501000000073
618,1,0.2,0.125,35.0,-1,0.0,1.6096009999996568
619,1,0.2,0.125,35.0,1,1.0,0.21650099999988015
620,1,0.2,0.125,35.0,1,1.0,0.2897010000001501
621,1,0.2,0.0625,35.0,1,1.0,0.9466010000001006
622,1,0.2,1.0,35.0,1,1.0,0.2899010000000999
623,1,0.2,0.125,35.0,1,1.0,0.5300010000000839
624,1,0.2,0.125,35.0,1,1.0,0.25680099999999584
625,1,0.2,0.0625,35.0,1,1.0,0.5534010000001217
626,1,0.2,0.25,35.0,1,1.0,0.3402009999999791
627,1,0.2,1.0,35.0,1,1.0,0.21350100000017846
628,1,0.2,0.0,35.0,1,1.0,0.24020100000007005
629,1,0.2,0.0,35.0,-1,0.0,1.7003010000003087
630,1,0.2,0.25,35.0,1,1.0,0.547200999999859
631,1,0.2,0.25,35.0,1,1.0,0.277201000000332
632,1,0.2,0.0625,35.0,1,1.0,0.4439009999996415
633,1,0.2,1.0,35.0,1,1.0,0.09060100000033344
634,1,0.2,0.25,35.0,1,1.0,0.2307009999994989
635,1,0.2,0.0625,35.0,1,1.0,0.38750100000015664
636,1,0.2,0.0,35.0,1,1.0,0.20080099999995582
637,1,0.2,0.25,-35.0,-1,1.0,0.3675009999997201
638,1,0.2,0.125,-35.0,-1,1.0,18.441001000000142
639,1,0.2,1.0,-35.0,-1,1.0,6.3046009999998205
640,1,0.2,0.125,35.0,1,1.0,1.0015010000006441
641,1,0.2,0.125,35.0,1,1.0,0.23500100000001112
642,1,0.2,0.25,35.0,1,1.0,0.25500099999999293
643,1,0.2,0.0625,35.0,1,1.0,0.1950010000000475
644,1,0.2,0.25,35.0,1,1.0,0.22520099999974263
645,1,0.2,0.25,35.0,1,1.0,0.44200099999989106
646,1,0.2,0.0625,35.0,1,1.0,0.268601000000217
647,1,0.2,0.0625,35.0,1,1.0,15.578600999999708
648,1,0.2,0.0,35.0,1,1.0,0.23900100000037128
649,1,0.2,0.25,35.0,1,1.0,0.46910099999968224
650,1,0.2,0.0625,35.0,-1,0.0,12.229200999999648
651,1,0.2,0.125,35.0,1,1.0,0.5161009999997077
652,1,0.2,0.125,35.0,1,1.0,0.28290100000003804
653,1,0.2,0.25,-35.0,-1,1.0,11.553001000000222
654,1,0.2,1.0,35.0,1,1.0,0.4632010000000264
655,1,0.2,1.0,35.0,1,1.0,0.5300009999996291
656,1,0.2,0.125,-35.0,1,0.0,0.24010100000032253
657,1,0.2,1.0,35.0,1,1.0,0.4434009999999944
658,1,0.2,0.25,35.0,1,1.0,0.8502010000001974
659,1,0.2,0.25,35.0,1,1.0,0.7936009999998532
660,1,0.2,0.25,35.0,1,1.0,0.6637009999999464
661,1,0.2,0.125,35.0,1,1.0,0.24370100000032835
662,1,0.2,0.0625,35.0,1,1.0,10.737100999999711
663,1,0.2,0.0625,35.0,1,1.0,0.28070100000013554
664,1,0.2,0.25,35.0,1,1.0,0.6607010000002447
665,1,0.2,1.0,35.0,1,1.0,0.4542009999995571
666,1,0.2,1.0,35.0,1,1.0,0.2176009999998314
667,1,0.2,0.125,35.0,1,1.0,0.23440099999970698
668,1,0.2,0.0,-35.0,-1,1.0,25.624501000000237
669,1,0.2,0.125,35.0,1,1.0,0.18830100000013772
670,1,0.2,1.0,35.0,1,1.0,0.21180099999992308
671,1,0.2,1.0,35.0,1,1.0,0.3751009999996313
672,1,0.2,0.125,35.0,1,1.0,0.49850100000003295
673,1,0.2,0.125,35.0,1,1.0,0.3319010000000162
674,1,0.2,1.0,35.0,1,1.0,0.43540100000018356
675,1,0.2,1.0,35.0,1,1.0,0.23530100000016319
676,1,0.2,0.0625,35.0,1,1.0,0.2789010000001326
677,1,0.2,1.0,35.0,1,1.0,0.28210100000023886
678,1,0.2,0.125,-35.0,-1,1.0,0.8489010000002963
679,1,0.2,0.0,35.0,-1,0.0,0.4390010000001894
680,1,0.2,0.0625,35.0,-1,0.0,16.495700999999826
681,1,0.2,0.0625,35.0,-1,0.0,0.5028010000000904
682,1,0.2,0.0625,35.0,-1,0.0,6.116301000000021
683,1,0.2,0.25,35.0,1,1.0,0.5697009999998954
684,1,0.2,1.0,35.0,1,1.0,1.6799009999995178
685,1,0.2,1.0,35.0,1,1.0,0.28990099999964514
686,1,0.2,0.25,35.0,1,1.0,0.22660099999984595
687,1,0.2,0.0625,35.0,-1,0.0,24.27670100000023
688,1,0.2,0.125,35.0,1,1.0,1.3340010000001712
689,1,0.2,1.0,-35.0,-1,1.0,15.84400099999948
690,1,0.2,1.0,35.0,1,1.0,0.2779009999999289
691,1,0.2,1.0,35.0,1,1.0,0.2512010000000373
692,1,0.8,0.25,-35.0,-1,1.0,12.1045009999998
693,1,0.8,0.125,35.0,1,1.0,0.6582010000001901
694,1,0.8,1.0,-35.0,-1,1.0,0.3049009999995178
695,1,0.8,0.0625,-35.0,1,0.0,0.24160099999971862
696,1,0.8,0.125,-35.0,-1,1.0,0.3051010000003771
697,1,0.8,0.125,-35.0,-1,1.0,0.8651009999998678
698,1,0.8,0.0,-35.0,-1,1.0,0.37850099999968734
699,1,0.8,0.125,-35.0,-1,1.0,0.30860100000018065
700,1,0.8,0.125,-35.0,-1,1.0,0.842000999999982
701,1,0.8,0.0625,35.0,-1,0.0,0.3387009999996735
702,1,0.8,0.25,-35.0,-1,1.0,0.32220099999995
703,1,0.8,1.0,-35.0,-1,1.0,0.2789010000001326
704,1,0.8,0.125,-35.0,-1,1.0,0.2856010000000424
705,1,0.8,0.25,-35.0,-1,1.0,0.20560100000011516
706,1,0.8,0.125,-35.0,-1,1.0,0.3324009999996633
707,1,0.8,0.0,-35.0,-1,1.0,5.949000999999953
708,1,0.8,1.0,-35.0,-1,1.0,0.7693010000002687
709,1,0.8,1.0,-35.0,-1,1.0,0.37930099999994127
710,1,0.8,0.0625,-35.0,-1,1.0,3.376100999999835
711,1,0.8,0.25,-35.0,-1,1.0,3.246200999999928
712,1,0.8,0.125,-35.0,-1,1.0,0.29630100000031234
713,1,0.8,0.125,-35.0,-1,1.0,0.23310099999980594
714,1,0.2,0.0625,35.0,-1,0.0,0.2997009999999136
715,1,0.2,0.0625,-35.0,-1,1.0,0.6199010000000271
716,1,0.2,0.25,35.0,-1,0.0,0.5500010000000657
717,1,0.2,0.0625,35.0,-1,0.0,5.506701000000248
718,1,0.2,0.125,35.0,1,1.0,0.6136010000000169
719,1,0.2,0.25,-35.0,1,0.0,20.6036009999998
720,1,0.2,1.0,35.0,1,1.0,0.30410100000017337
721,1,0.2,0.0625,35.0,1,1.0,0.2874010000000453
722,1,0.2,0.125,35.0,1,1.0,0.2710010000000693
723,1,0.2,1.0,35.0,1,1.0,0.2642009999999573
724,1,0.2,0.0,35.0,1,1.0,0.2876009999999951
725,1,0.2,0.125,35.0,1,1.0,0.19770100000005186
726,1,0.2,0.125,35.0,1,1.0,0.5012010000000373
727,1,0.2,0.25,35.0,1,1.0,0.25450099999989106
728,1,0.2,1.0,35.0,1,1.0,0.19120100000009188
729,1,0.2,0.25,-35.0,1,0.0,0.29800099999965823
730,1,0.2,0.125,35.0,1,1.0,0.35140099999989616
731,1,0.2,0.125,-35.0,1,0.0,0.26840100000026723
732,1,0.2,1.0,35.0,1,1.0,0.0448010000004615
733,1,0.2,1.0,-35.0,-1,1.0,13.474901000000045
734,1,0.2,0.25,35.0,1,1.0,0.2253009999999449
735,1,0.2,0.25,-35.0,-1,1.0,0.6419009999999616
736,1,0.2,1.0,35.0,1,1.0,0.2653009999999085
737,1,0.2,1.0,-35.0,-1,1.0,0.36540100000001985
738,1,0.2,0.25,-35.0,-1,1.0,0.6822009999996226
739,1,0.2,0.0625,35.0,-1,0.0,0.3655009999997674
740,1,0.2,0.125,35.0,1,1.0,0.6024009999996451
741,1,0.2,0.125,-35.0,-1,1.0,0.37570099999993545
742,1,0.2,0.125,35.0,1,1.0,0.5092009999998481
743,1,0.2,0.0625,35.0,1,1.0,7.352500999999847
744,1,0.2,0.25,35.0,1,1.0,0.27270099999986996
745,1,0.2,0.125,35.0,1,1.0,0.2929010000002563
746,1,0.2,0.125,35.0,1,1.0,0.29620100000011007
747,1,0.2,0.0,35.0,-1,0.0,7.066201000000092
748,1,0.2,0.25,-35.0,-1,1.0,0.3066009999997732
749,1,0.2,0.0625,35.0,-1,0.0,0.46980100000018865
750,1,0.2,0.0,-35.0,-1,1.0,0.4867010000002665
751,1,0.2,0.0,35.0,-1,0.0,7.676700999999866
752,1,0.2,1.0,35.0,1,1.0,0.33690100000012535
753,1,0.2,0.125,35.0,1,1.0,0.28030100000023594
754,1,0.2,0.0,35.0,1,1.0,0.21030100000007224
755,1,0.2,0.125,35.0,1,1.0,0.5171010000003662
756,1,0.2,0.0625,35.0,-1,0.0,31.643900999999914
757,1,0.2,1.0,35.0,1,1.0,0.21470099999987724
758,1,0.2,1.0,35.0,1,1.0,0.3781010000002425
759,1,0.2,0.125,35.0,1,1.0,0.301401000000169
760,1,0.2,0.25,35.0,1,1.0,0.26810100000011516
761,1,0.2,0.125,35.0,1,1.0,0.17820100000017192
762,1,0.2,0.125,35.0,1,1.0,0.3150010000003931
763,1,0.2,0.125,35.0,1,1.0,0.22170100000039383
764,1,0.2,0.0,35.0,1,1.0,14.87840099999994
765,1,0.2,1.0,35.0,1,1.0,0.15880099999958475
766,1,0.2,0.0625,35.0,1,1.0,0.2504010000002381
767,1,0.2,0.25,35.0,1,1.0,0.21610099999998056
768,1,0.2,0.125,35.0,1,1.0,0.21710100000018429
769,1,0.2,1.0,35.0,1,1.0,0.20940100000007078
770,1,0.2,1.0,35.0,1,1.0,0.2031010000000606
771,1,0.2,1.0,-35.0,-1,1.0,0.45420100000001185
772,1,0.2,0.0625,35.0,1,1.0,0.6161010000000715
773,1,0.2,0.125,35.0,1,1.0,0.276201000000583
774,1,0.2,1.0,35.0,1,1.0,0.19730100000015227
775,1,0.2,0.0625,35.0,1,1.0,0.2763009999998758
776,1,0.2,0.0625,35.0,1,1.0,1.299301000000014
777,1,0.2,1.0,35.0,1,1.0,0.18330099999957383
778,1,0.2,0.125,-35.0,-1,1.0,0.6936009999999442
779,1,0.2,0.0,-35.0,1,0.0,1.0704010000004018
780,1,0.2,0.25,35.0,1,1.0,0.38400099999989834
781,1,0.2,0.125,35.0,1,1.0,27.419401000000107
782,1,0.8,0.0625,35.0,-1,0.0,7.864700999999968
783,1,0.8,0.25,-35.0,1,0.0,15.42140100000006
784,1,0.8,1.0,-35.0,-1,1.0,39.58830100000023
785,1,0.8,0.0,35.0,-1,0.0,18.818300999999337
786,1,0.8,0.0,-35.0,-1,1.0,40.920600999999806
787,1,0.8,0.0625,-35.0,1,0.0,11.27100100000007
788,1,0.8,1.0,-35.0,1,0.0,12.884100999999646
789,1,0.8,0.0625,-35.0,-1,1.0,5.791400999999496
790,1,0.8,0.0625,-35.0,-1,1.0,0.5621009999995294
791,1,0.8,1.0,-35.0,-1,1.0,0.33530100000007224
792,1,0.8,0.125,-35.0,-1,1.0,13.778301000000283
793,1,0.8,0.0625,-35.0,-1,1.0,0.43560100000104285
794,1,0.8,0.0625,-35.0,-1,1.0,0.8755009999995309
795,1,0.8,0.125,-35.0,-1,1.0,0.26250099999924714
796,1,0.8,0.0625,-35.0,-1,1.0,8.125801000000138
797,1,0.8,0.125,-35.0,-1,1.0,0.3520009999992908
798,1,0.8,0.0625,-35.0,-1,1.0,5.297200999999404
799,1,0.8,0.125,35.0,1,1.0,16.656300999999075
800,1,0.8,0.0,-35.0,-1,1.0,37.09400099999948
801,1,0.8,0.125,-35.0,-1,1.0,0.6241009999994276
802,1,0.8,0.125,-35.0,-1,1.0,15.763700999999855
803,1,0.8,0.25,-35.0,-1,1.0,0.301300999999512
804,1,0.8,1.0,-35.0,-1,1.0,0.46030100000007224
805,1,0.8,0.0625,-35.0,-1,1.0,0.3916010000002643
806,1,0.8,0.25,-35.0,-1,1.0,0.3274010000004637
807,1,0.8,1.0,-35.0,-1,1.0,0.7171010000001843
808,1,0.8,0.125,-35.0,-1,1.0,0.3107010000003356
809,1,0.8,0.0,-35.0,-1,1.0,0.4986009999993257
810,1,0.8,0.125,35.0,-1,0.0,6.6917010000006485
811,1,0.8,0.0625,-35.0,1,0.0,19.978801000000203
812,1,0.8,0.25,-35.0,-1,1.0,9.626000999999633
813,1,0.8,0.125,35.0,1,1.0,0.9334009999993214
814,1,0.8,0.125,35.0,1,1.0,0.4642009999997754
815,1,0.8,0.0,-35.0,1,0.0,0.5553010000003269
816,1,0.8,0.125,-35.0,-1,1.0,0.6940009999989343
817,1,0.8,0.25,-35.0,-1,1.0,42.31380100000024
818,1,0.8,0.0625,-35.0,-1,1.0,1.1177010000001246
819,1,0.2,0.25,35.0,-1,0.0,0.07690099999945232
820,1,0.2,0.0625,35.0,1,1.0,0.5684009999995396
821,1,0.2,1.0,35.0,1,1.0,0.18850099999963277
822,1,0.2,0.25,35.0,1,1.0,0.28380100000049424
823,1,0.2,0.125,-35.0,-1,1.0,0.5548009999993155
824,1,0.2,0.125,35.0,1,1.0,0.23520100000041566
825,1,0.2,1.0,35.0,1,1.0,0.204900999999154
826,1,0.2,0.125,35.0,1,1.0,0.23190100000101666
827,1,0.2,0.25,35.0,1,1.0,0.26130099999954837
828,1,0.2,0.25,35.0,1,1.0,0.18390099999942322
829,1,0.2,0.0625,35.0,1,1.0,0.5590009999996255
830,1,0.2,1.0,35.0,1,1.0,0.17410100000051898
831,1,0.2,0.25,35.0,1,1.0,0.22820099999989907
832,1,0.2,0.125,-35.0,-1,1.0,0.4174009999996997
833,1,0.2,0.0625,35.0,-1,0.0,11.425701000000117
834,1,0.2,0.25,35.0,1,1.0,25.316200999999637
835,1,0.2,1.0,35.0,1,1.0,0.21260099999926751
836,1,0.2,0.25,-35.0,-1,1.0,39.062700999999834
837,1,0.2,0.125,35.0,-1,0.0,0.6177010000001246
838,1,0.2,0.125,35.0,-1,0.0,0.5729010000004564
839,1,0.2,0.0625,-35.0,-1,1.0,0.5400010000003022
840,1,0.2,0.0,35.0,-1,0.0,0.8240009999999529
841,1,0.2,1.0,35.0,1,1.0,0.3170010000003458
842,1,0.2,0.0625,35.0,-1,0.0,38.14640099999997
843,1,0.2,0.0625,35.0,1,1.0,6.455901000000267
844,1,0.2,1.0,35.0,1,1.0,0.2417009999999209
845,1,0.2,0.25,-35.0,1,0.0,6.759001000000353
846,1,0.2,0.0625,35.0,1,1.0,37.978500999999596
847,1,0.2,1.0,35.0,1,1.0,0.2045010000001639
848,1,0.2,1.0,35.0,1,1.0,0.16690100000050734
849,1,0.2,0.0625,-35.0,1,0.0,0.3802009999999427
850,1,0.2,0.0,35.0,1,1.0,27.41700100000071
851,1,0.2,0.0625,-35.0,-1,1.0,19.837601000000177
852,1,0.2,0.125,35.0,1,1.0,0.33850100000017846
853,1,0.2,0.125,35.0,-1,0.0,0.32130099999994854
854,1,0.2,0.0625,35.0,1,1.0,18.764401000000362
855,1,0.2,0.0,-0.0,0,0.0,59.92080100000021
856,1,0.2,0.0625,35.0,-1,0.0,21.112301000000116
857,1,0.2,0.125,35.0,-1,0.0,45.206601000000774
858,1,0.2,0.0,35.0,1,1.0,18.201700999999957
859,1,0.2,1.0,35.0,1,1.0,0.2251010000009046
860,1,0.2,0.0625,35.0,1,1.0,0.8477009999996881
861,1,0.2,0.25,35.0,1,1.0,0.16830099999970116
862,1,0.2,0.0625,-35.0,1,0.0,0.19720099999995
863,1,0.2,1.0,35.0,1,1.0,0.30920100000003004
864,1,0.2,0.0,35.0,-1,0.0,0.24530099999992672
865,1,0.2,0.125,35.0,1,1.0,0.3434010000009948
866,1,0.2,1.0,35.0,1,1.0,0.20240100000046368
867,1,0.2,1.0,35.0,1,1.0,0.16250099999979284
868,1,0.2,0.0,-35.0,1,0.0,0.2582010000005539
869,1,0.2,0.25,35.0,1,1.0,-0.041498999999930675
870,1,0.2,1.0,-35.0,-1,1.0,0.36500100000012026
871,1,0.2,1.0,35.0,1,1.0,0.25510099999974045
872,1,0.2,0.125,-35.0,1,0.0,0.2752010000003793
873,1,0.2,0.0625,35.0,1,1.0,0.39180099999975937
874,1,0.2,1.0,35.0,1,1.0,0.058600999998816405
875,1,0.2,0.0625,35.0,1,1.0,0.2950009999995018
876,1,0.2,0.0625,35.0,1,1.0,0.21400100000028033
877,1,0.2,0.125,35.0,1,1.0,0.19670099999984814
878,1,0.2,0.0625,35.0,-1,0.0,21.09740099999999
879,1,0.2,0.125,35.0,1,1.0,25.108000999999604
880,1,0.2,0.0,35.0,1,1.0,6.594500999999582
881,1,0.2,0.0,35.0,1,1.0,9.037201000000096
882,1,0.2,0.0625,35.0,1,1.0,12.227201000000605
883,1,0.2,1.0,35.0,1,1.0,0.20890099999996892
884,1,0.2,0.25,35.0,1,1.0,0.3105010000008406
885,1,0.2,0.125,35.0,1,1.0,24.56260100000054
886,1,0.2,0.125,35.0,1,1.0,0.3447010000008959
887,1,0.2,1.0,35.0,1,1.0,0.2568009999995411
888,1,0.2,1.0,35.0,1,1.0,0.26280100000076345
889,1,0.2,1.0,35.0,1,1.0,0.4379010000002381
890,1,0.2,0.125,35.0,1,1.0,0.22340100000019447
891,1,0.2,0.125,-35.0,-1,1.0,24.848901000000296
892,1,0.2,1.0,-35.0,-1,1.0,0.6762010000002192
893,1,0.2,1.0,35.0,1,1.0,0.22420099999999366
894,1,0.2,1.0,35.0,1,1.0,0.26680099999975937
895,1,0.2,1.0,-35.0,-1,1.0,4.92330099999981
896,1,0.2,1.0,35.0,1,1.0,0.14300099999945814
897,1,0.2,1.0,35.0,1,1.0,0.16460100000040256
898,1,0.2,0.0,35.0,1,1.0,14.460700999999972
899,1,0.2,0.125,35.0,1,1.0,0.1505010000000766
900,1,0.2,0.125,-35.0,-1,1.0,5.967600999999377
901,1,0.2,0.25,35.0,1,1.0,1.3305010000003676
902,1,0.2,0.0625,35.0,-1,0.0,35.42070100000001
903,1,0.2,0.0,35.0,-1,0.0,49.4119010000004
904,1,0.2,0.125,35.0,1,1.0,41.993500999999924
905,1,0.8,0.0,-35.0,1,0.0,8.12380099999973
906,1,0.8,1.0,-35.0,1,0.0,23.855101000000104
907,1,0.8,0.0625,-35.0,1,0.0,0.2987009999997099
908,1,0.8,0.0,-35.0,1,0.0,20.56890099999964
909,1,0.8,1.0,35.0,1,1.0,0.28450100000009115
910,1,0.8,0.0625,-35.0,1,0.0,14.825501000000259
911,1,0.8,1.0,-35.0,-1,1.0,6.425701000000117
912,1,0.8,0.0625,-35.0,-1,1.0,8.06720099999984
913,1,0.8,0.25,-35.0,-1,1.0,6.815000999999029
914,1,0.8,1.0,-35.0,-1,1.0,0.283900999999787
915,1,0.8,0.25,-35.0,1,0.0,9.723100999999588
916,1,0.8,0.125,-35.0,1,0.0,13.817501000000448
917,1,0.8,0.125,-35.0,1,0.0,7.020101000000977
918,1,0.8,0.0,-0.0,0,0.0,59.93670099999963
919,1,0.8,0.0,35.0,1,1.0,28.344301000000087
920,1,0.8,1.0,-35.0,-1,1.0,24.008700999999746
921,1,0.8,0.25,-35.0,-1,1.0,2.322701000000052
922,1,0.8,0.0625,-35.0,-1,1.0,9.2895010000002
923,1,0.8,0.125,-35.0,-1,1.0,28.056501000000026
924,1,0.8,0.25,-35.0,-1,1.0,14.810601000000133
925,1,0.8,0.125,35.0,1,1.0,0.3641010000001188
926,1,0.8,0.125,-35.0,-1,1.0,5.510901000000558
927,1,0.8,0.125,-35.0,1,0.0,10.92120100000011
928,1,0.8,0.125,-35.0,1,0.0,5.601400999999896
929,1,0.8,0.125,35.0,-1,0.0,32.48170100000061
930,1,0.8,0.0,-35.0,1,0.0,51.21240100000068
931,1,0.8,0.0,-35.0,1,0.0,23.60700100000031
1,2,0.5,1.0,-35.0,-1,1.0,11.4548
2,2,0.5,0.125,-35.0,-1,1.0,2.657499999999997
3,2,0.5,0.0,35.0,-1,0.0,2.327099999999998
4,2,0.5,0.25,-35.0,-1,1.0,3.5182999999999964
5,2,0.5,0.125,35.0,-1,0.0,2.9093000000000018
6,2,0.5,0.0,-35.0,-1,1.0,3.0986000000000047
7,2,0.5,0.0625,-35.0,-1,1.0,3.5516000000000005
8,2,0.5,0.25,35.0,-1,0.0,0.6037989999999951
9,2,0.5,1.0,35.0,1,1.0,0.22849999999999682
10,2,0.5,0.0625,35.0,-1,0.0,3.5760000000000005
11,2,0.5,1.0,35.0,1,1.0,0.18950000000000244
12,2,0.5,0.125,35.0,-1,0.0,4.254499999999993
13,2,0.5,0.25,-35.0,-1,1.0,0.892799999999994
14,2,0.5,0.0625,35.0,-1,0.0,4.365400000000008
15,2,0.5,1.0,35.0,1,1.0,0.20660000000000878
16,2,0.5,0.125,-35.0,1,0.0,0.3432999999999993
17,2,0.5,0.0,35.0,-1,0.0,8.510599999999997
18,2,0.5,0.25,35.0,1,1.0,0.22700000000000387
19,2,0.5,0.125,35.0,1,1.0,0.4625999999999948
20,2,0.5,0.25,-35.0,-1,1.0,7.282500000000013
21,2,0.5,1.0,-35.0,-1,1.0,9.808099999999996
22,2,0.5,0.25,35.0,1,1.0,0.18129999999999313
23,2,0.5,0.25,-35.0,-1,1.0,0.36469999999999914
24,2,0.5,0.125,-35.0,-1,1.0,5.469300000000004
25,2,0.5,0.0625,-35.0,-1,1.0,0.4514000000000067
26,2,0.5,0.0,-35.0,-1,1.0,4.020900000000012
27,2,0.5,0.0625,-35.0,-1,1.0,5.566399999999987
28,2,0.5,0.0,-35.0,-1,1.0,0.323599999999999
29,2,0.5,1.0,-35.0,-1,1.0,8.870200000000011
30,2,0.5,1.0,-35.0,-1,1.0,0.7641999999999882
31,2,0.5,0.0625,35.0,1,1.0,7.314699999999988
32,2,0.5,0.0,-35.0,-1,1.0,4.884500000000003
33,2,0.5,0.125,-35.0,-1,1.0,0.990399999999994
34,2,0.5,0.0,-35.0,-1,1.0,4.263600000000025
35,2,0.5,1.0,35.0,1,1.0,0.2224000000000217
36,2,0.5,0.0625,35.0,-1,0.0,1.0947000000000173
37,2,0.5,0.25,-35.0,-1,1.0,0.29870000000002506
38,2,0.5,0.125,-35.0,-1,1.0,4.4839999999999804
39,2,0.5,0.125,-35.0,1,0.0,4.190700000000021
40,2,0.5,0.0,35.0,-1,0.0,4.2853000000000065
41,2,0.5,0.25,-35.0,-1,1.0,3.0250000000000057
42,2,0.5,0.0,-35.0,-1,1.0,4.589000000000027
43,2,0.5,0.0625,35.0,-1,0.0,7.202499999999986
44,2,0.5,0.0625,-35.0,-1,1.0,3.0648000000000195
45,2,0.5,0.0625,35.0,-1,0.0,15.979900000000043
46,2,0.5,1.0,35.0,1,1.0,0.21350000000001046
47,2,0.5,1.0,35.0,1,1.0,0.22130000000004202
48,2,0.5,0.25,35.0,1,1.0,2.32669999999996
49,2,0.5,0.125,35.0,-1,0.0,5.981499999999983
50,2,0.5,0.125,-35.0,-1,1.0,0.27049999999997
51,2,0.5,0.0,35.0,-1,0.0,2.102899999999977
52,2,0.5,0.0,35.0,-1,0.0,8.271500000000003
53,2,0.5,0.125,-35.0,-1,1.0,0.25540000000000873
54,2,0.5,1.0,35.0,1,1.0,0.355700000000013
55,2,0.5,1.0,-35.0,-1,1.0,6.026900000000069
56,2,0.5,0.25,-35.0,-1,1.0,1.3918000000000461
57,2,0.5,0.0625,35.0,1,1.0,0.25549999999998363
58,2,0.5,0.0625,-35.0,-1,1.0,5.3245000000000005
59,2,0.5,0.125,-35.0,-1,1.0,2.7789999999999964
60,2,0.5,0.0625,35.0,-1,0.0,6.5704000000000065
61,2,0.5,1.0,35.0,-1,0.0,11.831100000000049
62,2,0.5,1.0,35.0,1,1.0,0.22819999999995844
63,2,0.5,1.0,35.0,1,1.0,0.21659999999997126
64,2,0.5,0.0,-35.0,-1,1.0,7.604300000000023
65,2,0.5,0.25,35.0,-1,0.0,11.354499999999973
66,2,0.5,1.0,35.0,-1,0.0,0.5545000000000186
67,2,0.5,1.0,-35.0,-1,1.0,18.12349999999998
68,2,0.5,1.0,35.0,1,1.0,11.015100000000018
69,2,0.5,0.25,-35.0,-1,1.0,0.5398999999999887
70,2,0.5,0.25,-35.0,-1,1.0,9.962800000000016
71,2,0.5,0.125,-35.0,-1,1.0,3.7314999999999827
72,2,0.5,0.25,35.0,-1,0.0,2.2726000000000113
73,2,0.5,0.0625,-35.0,-1,1.0,6.95799999999997
74,2,0.5,0.25,-35.0,-1,1.0,1.2851000000000568
75,2,0.5,0.0625,35.0,-1,0.0,0.6371000000000322
76,2,0.5,0.0625,35.0,-1,0.0,0.8914000000000328
77,2,0.5,0.0625,-35.0,-1,1.0,0.1734000000000151
78,2,0.5,0.125,35.0,-1,0.0,0.4974000000000274
79,2,0.5,0.0625,35.0,-1,0.0,3.840499999999963
80,2,0.5,0.0625,-35.0,-1,1.0,6.939900000000023
81,2,0.5,0.0625,35.0,-1,0.0,0.7995000000000232
82,2,0.5,0.125,-35.0,-1,1.0,54.43330000000003
83,2,0.5,0.25,-35.0,-1,1.0,17.697799999999916
84,2,0.5,1.0,35.0,1,1.0,3.2247999999999593
85,2,0.5,0.0625,-35.0,-1,1.0,7.58809999999994
86,2,0.5,0.125,-35.0,-1,1.0,40.630399999999895
87,2,0.5,0.25,35.0,-1,0.0,3.3857999999999038
88,2,0.5,0.0,-35.0,-1,1.0,0.35779999999988377
89,2,0.5,0.0,-35.0,-1,1.0,5.845900000000029
90,2,0.5,0.25,-35.0,-1,1.0,2.3064999999999145
91,2,0.8,1.0,-35.0,-1,1.0,40.696399999999926
92,2,0.8,0.0625,-35.0,-1,1.0,12.730099999999993
93,2,0.8,0.0625,35.0,-1,0.0,5.07039999999995
94,2,0.8,0.25,-35.0,-1,1.0,0.3754999999998745
95,2,0.8,0.0625,-35.0,-1,1.0,0.4332000000000562
96,2,0.8,1.0,-35.0,-1,1.0,0.59599999999989
97,2,0.8,0.0,-35.0,1,0.0,0.649599999999964
98,2,0.8,1.0,-35.0,-1,1.0,3.3344999999999345
99,2,0.8,0.0,-35.0,-1,1.0,10.125699999999938
100,2,0.8,0.25,-35.0,-1,1.0,4.696800000000053
101,2,0.8,1.0,35.0,1,1.0,0.7427999999999884
102,2,0.8,0.0,-35.0,-1,1.0,13.768099000000007
103,2,0.8,0.25,-35.0,-1,1.0,0.9860999999999649
104,2,0.8,1.0,-35.0,-1,1.0,0.2379999999999427
105,2,0.8,1.0,-35.0,-1,1.0,0.3446999999999889
106,2,0.8,0.0625,-35.0,0,0.0,59.9310999999999
107,2,0.8,0.0625,35.0,-1,0.0,9.089999999999918
108,2,0.8,0.0625,35.0,-1,0.0,5.6937999999998965
109,2,0.8,0.25,-35.0,-1,1.0,0.479799999999841
110,2,0.8,0.25,35.0,1,1.0,0.311800000000062
111,2,0.8,0.0625,35.0,1,1.0,4.234899999999925
112,2,0.8,0.0,-35.0,-1,1.0,0.22069999999996526
113,2,0.8,0.25,35.0,1,1.0,0.2960999999999103
114,2,0.8,0.25,-35.0,-1,1.0,0.2098999999999478
115,2,0.8,0.0,-35.0,1,0.0,0.8699999999998909
116,2,0.8,0.0625,35.0,-1,0.0,3.132400000000075
117,2,0.8,0.0625,35.0,1,1.0,0.6341999999999643
118,2,0.8,1.0,-35.0,-1,1.0,0.3346000000000231
119,2,0.8,0.0625,35.0,-1,0.0,4.418799999999919
120,2,0.8,0.0625,35.0,1,1.0,0.20529999999996562
121,2,0.8,0.125,-35.0,-1,1.0,0.29300000000000637
122,2,0.8,0.25,-35.0,-1,1.0,2.17330000000004
123,2,0.8,1.0,-35.0,1,0.0,43.843099999999936
124,2,0.8,1.0,35.0,1,1.0,0.5338999999999032
125,2,0.8,0.125,-35.0,1,0.0,1.3549999999999045
126,2,0.8,0.0,-35.0,-1,1.0,18.64629999999977
127,2,0.8,0.0,-35.0,1,0.0,0.3410000000001219
128,2,0.8,0.25,-35.0,-1,1.0,0.3865000000000691
129,2,0.8,1.0,-35.0,-1,1.0,0.2300000000000182
130,2,0.8,0.25,-35.0,-1,1.0,9.724300000000085
131,2,0.8,1.0,-35.0,-1,1.0,1.0860000000000127
132,2,0.8,0.25,-35.0,-1,1.0,0.3102000000001226
133,2,0.8,1.0,-35.0,-1,1.0,2.080500000000029
134,2,0.8,0.0625,35.0,-1,0.0,0.28720000000021173
135,2,0.8,0.0,-35.0,-1,1.0,27.461100000000215
136,2,0.8,0.0625,-35.0,-1,1.0,4.0900000000001455
137,2,0.8,0.25,-35.0,-1,1.0,0.7558000000001357
138,2,0.8,1.0,-35.0,-1,1.0,6.745200000000068
139,2,0.8,0.0,-35.0,-1,1.0,0.28500000000008185
140,2,0.8,0.0625,-35.0,-1,1.0,2.491800000000012
141,2,0.8,1.0,-35.0,-1,1.0,0.35580000000004475
142,2,0.8,1.0,35.0,1,1.0,5.988800000000083
143,2,0.8,0.0625,-35.0,1,0.0,1.4123000000001866
144,2,0.8,0.0625,-35.0,-1,1.0,0.21780000000012478
145,2,0.8,0.125,-35.0,-1,1.0,0.20880000000011023
146,2,0.8,0.125,35.0,-1,0.0,8.080199999999877
147,2,0.8,0.0625,-35.0,-1,1.0,0.4030999999999949
148,2,0.8,0.0625,-35.0,-1,1.0,30.780100000000175
149,2,0.8,0.125,35.0,1,1.0,10.138899999999921
150,2,0.8,0.25,-35.0,-1,1.0,0.8423999999997704
151,2,0.8,1.0,-35.0,-1,1.0,5.413400000000138
152,2,0.8,0.25,-35.0,-1,1.0,7.14409999999998
153,2,0.8,1.0,-35.0,-1,1.0,0.47060000000010405
154,2,0.8,0.25,-35.0,-1,1.0,9.48960000000011
155,2,0.8,0.0625,35.0,1,1.0,0.3787999999999556
156,2,0.8,0.0,35.0,-1,0.0,0.5019999999999527
157,2,0.8,0.25,35.0,1,1.0,0.2218000000000302
158,2,0.8,0.125,-35.0,1,0.0,7.494799999999941
159,2,0.8,0.0625,35.0,1,1.0,0.259900000000016
160,2,0.8,0.25,35.0,1,1.0,0.1290000000001328
161,2,0.8,1.0,-35.0,1,0.0,1.384999999999991
162,2,0.8,0.25,-35.0,1,0.0,0.6582000000000789
163,2,0.8,0.0625,-35.0,-1,1.0,0.3000000000001819
164,2,0.8,1.0,35.0,-1,0.0,0.43400000000019645
165,2,0.8,0.0625,-35.0,-1,1.0,5.715800000000172
166,2,0.8,0.0,-35.0,-1,1.0,0.47919999999999163
167,2,0.8,1.0,35.0,-1,0.0,5.472100000000182
168,2,0.8,0.0625,-35.0,-1,1.0,9.546199999999999
169,2,0.8,0.125,35.0,1,1.0,4.051400000000285
170,2,0.2,0.0625,-35.0,-1,1.0,5.292999999999893
171,2,0.2,0.25,35.0,-1,0.0,13.150499999999965
172,2,0.2,0.25,35.0,-1,0.0,32.58560000000011
173,2,0.2,1.0,35.0,1,1.0,0.3634999999999309
174,2,0.2,0.0,35.0,1,1.0,5.434600000000046
175,2,0.2,0.25,-35.0,-1,1.0,2.0639000000001033
176,2,0.2,1.0,35.0,1,1.0,0.27500000000009095
177,2,0.2,0.125,-35.0,-1,1.0,0.4616000000000895
178,2,0.2,0.0,35.0,1,1.0,8.014099999999871
179,2,0.2,0.25,35.0,1,1.0,0.3491999999998825
180,2,0.2,0.0625,35.0,1,1.0,6.054500000000189
181,2,0.2,0.25,35.0,1,1.0,0.5421000000001186
182,2,0.2,0.0,35.0,-1,0.0,2.35550000000012
183,2,0.2,0.125,35.0,1,1.0,0.1653000000001157
184,2,0.2,0.0,35.0,-1,0.0,10.33829999999989
185,2,0.2,1.0,35.0,1,1.0,0.4814000000001215
186,2,0.2,1.0,35.0,1,1.0,0.37990000000013424
187,2,0.2,0.0625,35.0,1,1.0,1.4795000000001437
188,2,0.2,0.125,35.0,1,1.0,0.2060999999998785
189,2,0.2,1.0,35.0,1,1.0,0.18960000000015498
190,2,0.2,0.0625,35.0,-1,0.0,4.591599999999971
191,2,0.2,0.25,35.0,1,1.0,5.981399999999894
192,2,0.2,0.125,35.0,-1,0.0,0.3486000000000331
193,2,0.2,0.125,35.0,1,1.0,18.675900000000183
194,2,0.2,0.0625,35.0,-1,0.0,7.372200000000021
195,2,0.2,1.0,35.0,1,1.0,0.19389999999998508
196,2,0.2,1.0,35.0,1,1.0,0.3711000000000695
197,2,0.2,1.0,35.0,1,1.0,0.19380000000023756
198,2,0.2,1.0,35.0,1,1.0,0.1789000000001124
199,2,0.2,0.125,-35.0,-1,1.0,0.316300000000183
200,2,0.2,0.125,35.0,-1,0.0,1.4511999999999716
201,2,0.2,0.125,35.0,1,1.0,0.19270000000005894
202,2,0.2,1.0,35.0,1,1.0,0.219300000000203
203,2,0.2,0.0625,35.0,1,1.0,0.41039999999998145
204,2,0.8,0.25,35.0,1,1.0,0.49919999999974607
205,2,0.8,0.125,-35.0,-1,1.0,0.4207000000001244
206,2,0.8,0.0625,-35.0,-1,1.0,4.97180000000003
207,2,0.8,0.0625,-35.0,-1,1.0,1.7539000000001579
208,2,0.8,0.25,-35.0,-1,1.0,11.943299999999908
209,2,0.8,0.0,-35.0,-1,1.0,6.905100000000175
210,2,0.8,0.0625,-35.0,-1,1.0,0.36400000000003274
211,2,0.8,0.0625,-35.0,-1,1.0,4.728700000000117
212,2,0.8,0.25,35.0,1,1.0,0.31970000000001164
213,2,0.8,0.0,-35.0,-1,1.0,20.831800000000158
214,2,0.8,0.0,-35.0,-1,1.0,0.5029000000001815
215,2,0.8,0.25,-35.0,-1,1.0,2.9335000000000946
216,2,0.8,0.0,-35.0,-1,1.0,5.126300000000128
217,2,0.8,0.0625,-35.0,-1,1.0,0.8093000000001211
218,2,0.8,0.125,-35.0,-1,1.0,0.9130999999999858
219,2,0.8,0.0625,35.0,-1,0.0,0.6630999999999858
220,2,0.8,1.0,35.0,1,1.0,0.10609999999996944
221,2,0.8,0.25,-35.0,-1,1.0,1.3727000000001226
222,2,0.8,1.0,-35.0,-1,1.0,0.5022000000001299
223,2,0.8,0.0625,-35.0,-1,1.0,0.22039999999992688
224,2,0.8,0.25,-35.0,1,0.0,1.1339000000000397
225,2,0.8,0.0625,-35.0,-1,1.0,8.450199999999995
226,2,0.8,1.0,-35.0,-1,1.0,0.5123010000002068
227,2,0.8,0.0,-35.0,-1,1.0,0.9004009999998743
228,2,0.8,0.125,35.0,1,1.0,0.28240100000016355
229,2,0.8,0.125,35.0,1,1.0,0.27070099999991726
230,2,0.8,0.0625,-35.0,-1,1.0,7.069500999999946
231,2,0.8,1.0,-35.0,-1,1.0,0.6365010000001803
232,2,0.8,0.0625,-35.0,1,0.0,6.34330100000011
233,2,0.8,0.125,35.0,1,1.0,0.6198010000002796
234,2,0.8,0.0,35.0,-1,0.0,7.582701000000043
235,2,0.8,0.0625,-35.0,-1,1.0,9.082801000000018
236,2,0.8,1.0,35.0,1,1.0,0.19180000000005748
237,2,0.8,0.0625,-35.0,1,0.0,0.7048010000000886
238,2,0.8,0.0,-35.0,1,0.0,0.4309010000001763
239,2,0.8,0.0625,35.0,-1,0.0,13.122501000000057
240,2,0.8,0.125,35.0,1,1.0,0.9162010000000009
241,2,0.8,0.125,-35.0,-1,1.0,8.04880100000014
242,2,0.8,1.0,-35.0,-1,1.0,9.112200999999914
243,2,0.8,0.0,35.0,-1,0.0,0.29650100000003476
244,2,0.8,1.0,-35.0,-1,1.0,0.30440100000009807
245,2,0.8,1.0,-35.0,-1,1.0,0.25240099999996346
246,2,0.8,0.0625,-35.0,-1,1.0,2.388401000000158
247,2,0.8,0.0625,-35.0,-1,1.0,0.5568009999999504
248,2,0.8,0.125,35.0,1,1.0,0.19340099999999438
249,2,0.8,0.0625,-35.0,-1,1.0,0.47840100000007624
250,2,0.8,0.0,-35.0,-1,1.0,0.3054010000000744
251,2,0.8,0.0625,35.0,-1,0.0,0.8761010000000624
252,2,0.8,0.25,-35.0,-1,1.0,25.859600999999884
253,2,0.8,1.0,-35.0,-1,1.0,1.1978010000000268
254,2,0.8,1.0,-35.0,-1,1.0,0.38380099999994854
255,2,0.8,1.0,-35.0,-1,1.0,0.35710100000005696
256,2,0.8,0.125,-35.0,-1,1.0,3.6114010000001144
257,2,0.8,0.125,35.0,1,1.0,0.34690100000011626
258,2,0.2,1.0,35.0,1,1.0,0.3240009999999529
259,2,0.2,0.125,-35.0,-1,1.0,4.9269010000000435
260,2,0.2,0.25,-35.0,-1,1.0,0.44800099999997656
261,2,0.2,0.25,-35.0,-1,1.0,5.348001000000295
262,2,0.2,0.25,35.0,-1,0.0,0.2901010000000497
263,2,0.2,0.25,35.0,-1,0.0,8.408301000000165
264,2,0.2,0.125,35.0,1,1.0,42.364200999999866
265,2,0.2,0.125,35.0,1,1.0,0.18000100000017483
266,2,0.2,0.0,-35.0,1,0.0,0.40960100000006605
267,2,0.2,0.0625,35.0,1,1.0,0.20310099999983322
268,2,0.2,0.25,35.0,-1,0.0,53.28660100000002
269,2,0.2,0.125,35.0,1,1.0,28.75450100000012
270,2,0.2,0.125,35.0,1,1.0,0.2654010000001108
271,2,0.2,1.0,35.0,1,1.0,0.19800099999997656
272,2,0.2,0.25,35.0,1,1.0,3.7295009999998
273,2,0.2,0.0625,35.0,-1,0.0,39.07780099999991
274,2,0.2,1.0,35.0,1,1.0,0.26890099999991435
275,2,0.2,0.0625,35.0,1,1.0,7.916201000000001
276,2,0.2,0.125,35.0,1,1.0,2.872700999999779
277,2,0.2,0.25,35.0,1,1.0,3.6950009999995928
278,2,0.2,1.0,-35.0,-1,1.0,0.34060099999942395
279,2,0.2,0.25,35.0,1,1.0,0.24510099999997692
280,2,0.2,0.0625,35.0,1,1.0,14.77310099999977
281,2,0.2,0.125,35.0,1,1.0,0.20780100000001767
282,2,0.2,0.25,35.0,1,1.0,0.18110099999967133
283,2,0.2,0.0625,35.0,1,1.0,0.24880099999973027
284,2,0.2,0.0625,35.0,1,1.0,0.14460099999951126
285,2,0.2,0.0625,35.0,1,1.0,0.18640099999993254
286,2,0.2,1.0,35.0,1,1.0,0.2158009999998285
287,2,0.2,1.0,35.0,1,1.0,0.22640099999989616
288,2,0.2,0.0625,35.0,1,1.0,4.22340099999974
289,2,0.2,0.0625,35.0,1,1.0,0.33750099999997474
290,2,0.2,0.25,-35.0,1,0.0,0.15650099999947997
291,2,0.2,1.0,35.0,1,1.0,0.22160099999973681
292,2,0.2,1.0,-35.0,-1,1.0,0.3076009999995222
293,2,0.2,1.0,35.0,1,1.0,0.1266009999999369
294,2,0.2,0.0,-35.0,-1,1.0,3.387800999999854
295,2,0.2,0.0625,-35.0,-1,1.0,1.3234009999996488
296,2,0.2,0.0625,35.0,1,1.0,0.14770099999986996
297,2,0.2,0.0625,35.0,-1,0.0,2.7478009999999813
298,2,0.2,0.125,35.0,-1,0.0,2.524300999999923
299,2,0.2,0.125,35.0,-1,0.0,4.745601000000079
300,2,0.2,0.25,35.0,1,1.0,0.13620099999980084
301,2,0.2,1.0,35.0,1,1.0,0.3986009999998714
302,2,0.2,0.125,35.0,1,1.0,1.8554010000002563
303,2,0.2,0.125,35.0,1,1.0,0.264100999999755
304,2,0.2,0.0625,35.0,1,1.0,0.15099999999938518
305,2,0.2,0.125,35.0,1,1.0,0.20210099999985687
306,2,0.2,0.25,35.0,1,1.0,0.1762010000002192
307,2,0.2,1.0,-35.0,-1,1.0,0.3066009999997732
308,2,0.2,1.0,35.0,1,1.0,0.17760099999941303
309,2,0.2,1.0,35.0,1,1.0,0.16939999999976862
310,2,0.2,0.0625,-35.0,1,0.0,0.20260100000041348
311,2,0.2,0.0,35.0,-1,0.0,0.3825010000000475
312,2,0.2,0.0,35.0,-1,0.0,3.718500999999833
313,2,0.2,1.0,35.0,1,1.0,0.17250099999955637
314,2,0.2,0.0625,35.0,-1,0.0,0.4025010000000293
315,2,0.2,0.0,35.0,-1,0.0,8.395300999999563
316,2,0.2,0.125,35.0,1,1.0,0.23240100000020902
317,2,0.2,1.0,35.0,1,1.0,0.24250099999972008
318,2,0.2,0.0,-35.0,1,0.0,2.0026010000001406
319,2,0.2,0.0625,35.0,-1,0.0,5.83940100000018
320,2,0.2,0.125,35.0,1,1.0,0.1729009999999107
321,2,0.2,0.0,35.0,1,1.0,16.486300999999912
322,2,0.2,0.25,35.0,1,1.0,0.4267009999998663
323,2,0.2,0.0625,35.0,1,1.0,0.27010100000006787
324,2,0.2,0.0625,-35.0,1,0.0,2.9168009999998503
325,2,0.2,1.0,35.0,1,1.0,0.0902009999999791
326,2,0.2,1.0,35.0,1,1.0,0.14030099999990853
327,2,0.2,0.0,35.0,1,1.0,11.18040099999962
328,2,0.8,0.125,-35.0,-1,1.0,0.3707009999998263
329,2,0.8,0.125,-35.0,-1,1.0,0.32740100000000893
330,2,0.8,0.125,-35.0,-1,1.0,0.40750100000013845
331,2,0.8,0.0625,-35.0,1,0.0,0.14420099999961167
332,2,0.8,0.0,35.0,-1,0.0,4.974200999999539
333,2,0.8,0.0,35.0,-1,0.0,0.9344009999995251
334,2,0.8,1.0,-35.0,-1,1.0,0.30130099999996673
335,2,0.8,0.0625,35.0,-1,0.0,0.30460099999936574
336,2,0.8,0.25,-35.0,-1,1.0,0.24800099999947633
337,2,0.8,0.0625,35.0,-1,0.0,1.7414009999997688
338,2,0.8,0.25,-35.0,-1,1.0,0.8282010000002629
339,2,0.8,0.125,-35.0,-1,1.0,6.388201000000208
340,2,0.8,1.0,-35.0,-1,1.0,0.28510099999994054
341,2,0.8,0.0,-35.0,-1,1.0,0.3051010000003771
342,2,0.8,0.125,-35.0,-1,1.0,0.27850099999932354
343,2,0.8,0.0,-35.0,-1,1.0,6.392000999999709
344,2,0.8,0.125,35.0,1,1.0,0.2055009999999129
345,2,0.8,0.125,35.0,1,1.0,0.5255009999996219
346,2,0.8,0.0625,35.0,1,1.0,1.272200999999768
347,2,0.8,0.125,-35.0,-1,1.0,0.22900099999969825
348,2,0.8,1.0,35.0,1,1.0,0.22580100000004677
349,2,0.8,0.125,35.0,1,1.0,0.27250099999992017
350,2,0.8,0.25,-35.0,-1,1.0,0.3658009999994647
351,2,0.8,1.0,-35.0,-1,1.0,0.5658010000001923
352,2,0.8,0.0,-35.0,-1,1.0,10.789300999999796
353,2,0.8,0.125,-35.0,-1,1.0,0.5663009999998394
354,2,0.8,1.0,-35.0,-1,1.0,3.332900999999765
355,2,0.8,0.0625,-35.0,-1,1.0,0.4063009999999849
356,2,0.8,0.125,-35.0,-1,1.0,9.969800999999734
357,2,0.8,0.25,-35.0,-1,1.0,4.373401000000285
358,2,0.8,0.125,35.0,1,1.0,9.770200999999815
359,2,0.8,0.0,-35.0,1,0.0,12.377200999999786
360,2,0.8,0.0625,-35.0,-1,1.0,0.38410099999964586
361,2,0.8,0.0,-35.0,1,0.0,1.5543010000001232
362,2,0.8,0.0,-35.0,-1,1.0,0.3043009999996684
363,2,0.8,0.0625,-35.0,-1,1.0,0.5144009999999071
364,2,0.8,0.25,-35.0,-1,1.0,7.947800999999345
365,2,0.8,1.0,-35.0,-1,1.0,0.37470100000018647
366,2,0.8,0.0625,-35.0,1,0.0,0.801401000000169
367,2,0.8,1.0,35.0,-1,0.0,0.5783009999995556
368,2,0.8,0.0625,-35.0,-1,1.0,0.40160100000002785
369,2,0.8,0.25,-35.0,-1,1.0,0.3183009999997921
370,2,0.8,1.0,-35.0,-1,1.0,0.31500099999993836
371,2,0.8,0.125,-35.0,-1,1.0,0.3251009999994494
372,2,0.8,0.125,-35.0,-1,1.0,0.37850099999968734
373,2,0.8,0.0625,-35.0,-1,1.0,0.6419009999995069
374,2,0.8,0.125,-35.0,-1,1.0,1.0353009999994356
375,2,0.8,0.0625,35.0,-1,0.0,17.888700999999855
376,2,0.8,1.0,-35.0,-1,1.0,3.2591010000001006
377,2,0.8,0.0625,-35.0,1,0.0,2.1991009999997004
378,2,0.8,1.0,35.0,-1,0.0,0.5727009999995971
379,2,0.8,1.0,-35.0,-1,1.0,0.41940100000010716
380,2,0.8,0.25,-35.0,-1,1.0,0.3028009999998176
381,2,0.8,1.0,-35.0,-1,1.0,6.972901000000093
382,2,0.8,0.25,35.0,1,1.0,5.819700999999895
383,2,0.8,0.25,-35.0,-1,1.0,0.2699009999996633
384,2,0.8,1.0,-35.0,-1,1.0,0.22340099999973972
385,2,0.8,0.0625,-35.0,1,0.0,8.406801000000087
386,2,0.8,0.0625,35.0,1,1.0,12.983800999999858
387,2,0.8,0.25,-35.0,1,0.0,6.780700999999681
388,2,0.8,0.0625,-35.0,1,0.0,4.371000999999978
389,2,0.8,0.25,35.0,1,1.0,0.1310009999997419
390,2,0.2,0.25,35.0,-1,0.0,18.53800099999944
391,2,0.2,0.25,35.0,-1,0.0,30.99160099999972
392,2,0.2,0.0625,-35.0,1,0.0,26.255701000000045
393,2,0.2,0.125,35.0,1,1.0,35.99970099999973
394,2,0.2,0.125,35.0,1,1.0,6.900400999999874
395,2,0.2,0.0625,35.0,1,1.0,0.5306009999999333
396,2,0.2,1.0,-35.0,-1,1.0,0.6507010000000264
397,2,0.2,1.0,35.0,1,1.0,0.21750099999962913
398,2,0.2,0.0,35.0,-1,0.0,5.6908009999997375
399,2,0.2,0.25,35.0,1,1.0,0.2744009999996706
400,2,0.2,0.125,35.0,-1,0.0,2.8145009999993817
401,2,0.2,0.125,-35.0,-1,1.0,0.2813009999995302
402,2,0.2,0.25,35.0,-1,0.0,0.26130099999954837
403,2,0.2,1.0,35.0,1,1.0,0.17470099999991362
404,2,0.2,0.0625,-35.0,-1,1.0,3.588100999999824
405,2,0.2,0.25,35.0,1,1.0,0.3982009999999718
406,2,0.2,0.125,35.0,1,1.0,0.24160099999971862
407,2,0.2,1.0,35.0,1,1.0,0.1816009999997732
408,2,0.2,0.0625,-35.0,1,0.0,0.18840099999988524
409,2,0.2,0.125,35.0,1,1.0,0.19510099999979502
410,2,0.2,0.125,35.0,1,1.0,0.19510099999979502
411,2,0.2,0.0625,-35.0,1,0.0,0.20530099999950835
412,2,0.2,0.0625,35.0,1,1.0,6.988600999999562
413,2,0.2,0.0,35.0,1,1.0,0.16210099999989325
414,2,0.2,0.0625,35.0,-1,0.0,2.838800999999421
415,2,0.2,1.0,-35.0,-1,1.0,0.5290009999998802
416,2,0.2,0.0,-35.0,1,0.0,0.18590099999937593
417,2,0.2,0.0625,35.0,-1,0.0,0.41580100000010134
418,2,0.2,0.25,35.0,1,1.0,0.25910099999964586
419,2,0.2,1.0,35.0,1,1.0,0.25920099999984814
420,2,0.2,0.0,35.0,1,1.0,0.21270099999992453
421,2,0.2,0.25,35.0,1,1.0,0.2093009999998685
422,2,0.2,0.0,35.0,1,1.0,0.22950100000025486
423,2,0.2,1.0,35.0,1,1.0,0.269600999999966
424,2,0.8,1.0,-35.0,-1,1.0,0.2796010000001843
425,2,0.8,0.125,35.0,1,1.0,0.39300099999945814
426,2,0.8,0.0625,-35.0,1,0.0,5.429700999999568
427,2,0.8,0.0625,-35.0,-1,1.0,0.3132009999994807
428,2,0.8,0.125,-35.0,-1,1.0,0.28660099999933664
429,2,0.8,0.0,-35.0,-1,1.0,0.5900009999995746
430,2,0.8,0.125,-35.0,-1,1.0,0.30670099999997547
431,2,0.8,0.25,-35.0,-1,1.0,0.4168009999998503
432,2,0.8,0.0,-35.0,-1,1.0,0.5669010000001435
433,2,0.8,1.0,-35.0,-1,1.0,1.8003010000002178
434,2,0.8,0.125,-35.0,-1,1.0,6.3870009999996
435,2,0.8,1.0,35.0,1,1.0,0.2606009999994967
436,2,0.8,0.125,-35.0,-1,1.0,0.3906010000000606
437,2,0.8,0.25,-35.0,-1,1.0,2.603900999999496
438,2,0.8,0.125,-35.0,-1,1.0,7.594100999999682
439,2,0.8,0.25,-35.0,-1,1.0,9.320901000000049
440,2,0.8,0.0,35.0,-1,0.0,0.3278009999999085
441,2,0.8,1.0,-35.0,-1,1.0,0.25130099999978484
442,2,0.8,0.0,-35.0,-1,1.0,3.858100999999806
443,2,0.8,0.25,-35.0,-1,1.0,0.3282009999998081
444,2,0.8,0.0625,35.0,1,1.0,12.291500999999698
445,2,0.8,1.0,-35.0,-1,1.0,12.201900999999452
446,2,0.8,0.25,35.0,1,1.0,8.969101000000137
447,2,0.8,1.0,-35.0,-1,1.0,0.3358010000001741
448,2,0.8,0.25,35.0,1,1.0,7.142500999999811
449,2,0.8,0.25,35.0,1,1.0,0.2294010000000526
450,2,0.2,1.0,35.0,1,1.0,0.21610099999998056
451,2,0.2,0.125,35.0,1,1.0,0.2528009999996357
452,2,0.2,0.0,35.0,-1,0.0,0.5963010000000395
453,2,0.2,0.125,35.0,-1,0.0,7.969301000000087
454,2,0.2,0.0625,35.0,-1,0.0,10.173401000000013
455,2,0.2,0.125,35.0,-1,0.0,16.007700999999997
456,2,0.2,0.25,35.0,1,1.0,0.37370099999998274
457,2,0.2,1.0,35.0,1,1.0,0.1536009999995258
458,2,0.2,0.0625,35.0,-1,0.0,1.7750009999999747
459,2,0.2,1.0,35.0,1,1.0,0.17080099999975573
460,2,0.2,0.125,35.0,1,1.0,0.1549009999998816
461,2,0.2,0.25,35.0,1,1.0,0.21490099999982704
462,2,0.2,1.0,-35.0,-1,1.0,0.40180099999997765
463,2,0.2,0.125,35.0,1,1.0,0.4979009999997288
1,3,0.5,0.0,-35.0,-1,1.0,0.44709999999999894
2,3,0.5,0.25,-35.0,-1,1.0,0.5736999999999997
3,3,0.5,0.125,35.0,1,1.0,0.5975000000000001
4,3,0.5,1.0,35.0,1,1.0,0.3201000000000018
5,3,0.5,0.0,-35.0,1,0.0,0.1897999999999982
6,3,0.5,0.125,-35.0,-1,1.0,0.4134999999999991
7,3,0.5,0.125,35.0,1,1.0,0.4085999999999963
8,3,0.5,0.125,-35.0,-1,1.0,0.4001999999999981
9,3,0.5,0.0,-35.0,-1,1.0,5.398800000000001
10,3,0.5,1.0,-35.0,-1,1.0,0.3211000000000013
11,3,0.5,0.125,-35.0,-1,1.0,0.3155000000000072
12,3,0.5,0.25,35.0,1,1.0,1.6876999999999995
13,3,0.5,0.125,35.0,1,1.0,5.0589999999999975
14,3,0.5,1.0,35.0,1,1.0,0.24600000000000222
15,3,0.5,1.0,35.0,1,1.0,0.47100000000001074
16,3,0.5,0.0,-35.0,-1,1.0,5.904299999999992
17,3,0.5,0.125,-35.0,-1,1.0,3.8907999999999987
18,3,0.5,1.0,-35.0,-1,1.0,1.2326999999999941
19,3,0.5,1.0,35.0,1,1.0,0.3441999999999865
20,3,0.5,0.25,35.0,1,1.0,0.5722999999999985
21,3,0.5,0.0,-35.0,-1,1.0,0.4228999999999985
22,3,0.5,0.0,35.0,-1,0.0,0.5699000000000041
23,3,0.5,0.125,35.0,1,1.0,0.5662999999999982
24,3,0.5,1.0,-35.0,-1,1.0,0.6968999999999994
25,3,0.5,0.25,-35.0,-1,1.0,0.390199999999993
26,3,0.5,0.125,35.0,-1,0.0,2.707499999999996
27,3,0.5,0.0625,35.0,-1,0.0,2.2387999999999977
28,3,0.5,0.0,-35.0,-1,1.0,0.3515999999999906
29,3,0.5,0.125,-35.0,-1,1.0,2.121099999999984
30,3,0.5,0.0,35.0,-1,0.0,6.222700000000003
31,3,0.5,0.0625,35.0,1,1.0,0.2717000000000098
32,3,0.5,0.0625,35.0,-1,0.0,0.5101999999999975
33,3,0.5,0.0,-35.0,-1,1.0,6.4161
34,3,0.5,0.0625,-35.0,-1,1.0,8.582099999999997
35,3,0.5,1.0,35.0,1,1.0,5.502199999999988
36,3,0.5,0.0625,-35.0,-1,1.0,0.7197000000000173
37,3,0.5,1.0,35.0,1,1.0,0.3503999999999792
38,3,0.5,0.0625,-35.0,1,0.0,3.578800000000001
39,3,0.5,0.25,35.0,1,1.0,0.26679999999998927
40,3,0.5,0.0,-35.0,-1,1.0,4.599199999999996
41,3,0.5,0.0,35.0,-1,0.0,0.4292000000000087
42,3,0.5,1.0,-35.0,-1,1.0,0.2909999999999968
43,3,0.5,1.0,-35.0,-1,1.0,1.427299999999974
44,3,0.5,0.125,35.0,-1,0.0,2.6794999999999902
45,3,0.5,0.0625,-35.0,-1,1.0,0.6891999999999996
46,3,0.5,1.0,-35.0,-1,1.0,0.30929999999997904
47,3,0.5,1.0,-35.0,-1,1.0,4.0350999999999715
48,3,0.5,1.0,35.0,1,1.0,0.5168999999999642
49,3,0.5,0.125,-35.0,-1,1.0,0.6877000000000066
50,3,0.5,0.125,35.0,1,1.0,4.003600000000006
51,3,0.5,1.0,35.0,1,1.0,0.39339999999998554
52,3,0.5,1.0,-35.0,-1,1.0,0.3661000000000172
53,3,0.5,1.0,-35.0,-1,1.0,0.37470000000001846
54,3,0.5,0.0,35.0,-1,0.0,0.8257000000000119
55,3,0.5,0.25,-35.0,-1,1.0,0.3277999999999963
56,3,0.5,0.0625,35.0,-1,0.0,3.804200000000037
57,3,0.5,0.125,35.0,1,1.0,1.1107999999999834
58,3,0.5,1.0,35.0,1,1.0,0.23399999999998045
59,3,0.5,0.0,35.0,-1,0.0,6.1188999999999965
60,3,0.5,0.0625,35.0,-1,0.0,0.43329999999997426
61,3,0.5,0.125,-35.0,1,0.0,8.8159
62,3,0.5,1.0,-35.0,-1,1.0,0.38110000000000355
63,3,0.5,0.25,-35.0,-1,1.0,0.9599999999999795
64,3,0.5,0.0,35.0,-1,0.0,1.922300000000007
65,3,0.5,0.0,35.0,-1,0.0,6.9698999999999955
66,3,0.5,1.0,-35.0,-1,1.0,0.31520000000000437
67,3,0.5,0.25,-35.0,-1,1.0,0.6771999999999707
68,3,0.5,0.125,-35.0,-1,1.0,0.39189999999996417
69,3,0.5,0.0625,-35.0,-1,1.0,0.5486999999999398
70,3,0.5,0.0625,-35.0,-1,1.0,1.869700000000023
71,3,0.5,0.25,-35.0,-1,1.0,0.37069999999999936
72,3,0.5,1.0,35.0,1,1.0,0.4682000000000244
73,3,0.5,0.0625,-35.0,-1,1.0,6.8922000000000025
74,3,0.5,0.25,-35.0,-1,1.0,2.074299999999937
75,3,0.5,0.0625,35.0,-1,0.0,1.1539999999999964
76,3,0.5,0.25,-35.0,-1,1.0,0.3007999999999811
77,3,0.5,0.0625,35.0,-1,0.0,16.727900000000034
78,3,0.5,0.0,35.0,-1,0.0,3.6795999999999935
79,3,0.5,1.0,-35.0,-1,1.0,0.2545000000000073
80,3,0.5,0.0,35.0,-1,0.0,1.5282000000000266
81,3,0.5,0.0,-35.0,-1,1.0,0.31340000000000146
82,3,0.5,0.25,-35.0,-1,1.0,0.4925999999999817
83,3,0.5,0.0625,35.0,-1,0.0,14.030799000000002
84,3,0.5,0.0,35.0,-1,0.0,0.31270000000000664
85,3,0.5,1.0,35.0,1,1.0,0.3369999999999891
86,3,0.5,0.125,35.0,1,1.0,2.4816999999999894
87,3,0.5,0.0625,35.0,-1,0.0,0.8074999999999477
88,3,0.5,0.0625,-35.0,-1,1.0,0.47809999999998354
89,3,0.5,0.125,35.0,-1,0.0,5.483400000000017
90,3,0.5,1.0,-35.0,-1,1.0,0.2641999999999598
91,3,0.2,0.0625,35.0,-1,0.0,8.729000000000042
92,3,0.2,1.0,35.0,1,1.0,0.9633000000000038
93,3,0.2,1.0,-35.0,-1,1.0,0.2857000000000198
94,3,0.2,0.25,35.0,1,1.0,0.35159999999996217
95,3,0.2,0.25,35.0,-1,0.0,2.344699999999932
96,3,0.2,1.0,35.0,1,1.0,0.30829999999997426
97,3,0.2,0.125,35.0,1,1.0,9.392800000000022
98,3,0.2,0.0,35.0,-1,0.0,0.3856000000000108
99,3,0.2,0.0,35.0,1,1.0,8.316100000000006
100,3,0.2,0.125,35.0,1,1.0,0.3551000000001068
101,3,0.2,0.0,35.0,-1,0.0,0.1250000000001137
102,3,0.2,0.0,-35.0,-1,1.0,0.3789999999999054
103,3,0.2,0.0,35.0,-1,0.0,0.5481999999999516
104,3,0.2,0.0625,35.0,-1,0.0,0.4293999999999869
105,3,0.2,0.125,35.0,1,1.0,1.441500000000019
106,3,0.2,0.0,35.0,-1,0.0,1.9732999999999947
107,3,0.2,0.0625,35.0,1,1.0,1.2047999999999774
108,3,0.2,0.25,35.0,1,1.0,7.635599999999954
109,3,0.2,0.125,-35.0,-1,1.0,1.017500000000041
110,3,0.2,0.125,-35.0,-1,1.0,0.49670000000003256
111,3,0.2,1.0,35.0,1,1.0,1.745800000000031
112,3,0.2,0.0625,-35.0,-1,1.0,5.746600000000058
113,3,0.2,1.0,35.0,1,1.0,0.4636000000000422
114,3,0.2,0.125,35.0,-1,0.0,6.30090000000007
115,3,0.2,0.25,35.0,1,1.0,6.275300000000016
116,3,0.2,0.0,35.0,-1,0.0,12.68489999999997
117,3,0.2,1.0,35.0,1,1.0,0.26930000000004384
118,3,0.2,0.25,35.0,1,1.0,0.2659999999999627
119,3,0.2,0.0625,-35.0,-1,1.0,0.45279999999991105
120,3,0.2,0.25,35.0,-1,0.0,9.817699999999945
121,3,0.2,0.0625,35.0,-1,0.0,0.3648000000000593
122,3,0.2,0.125,35.0,1,1.0,0.8468000000000302
123,3,0.2,0.25,35.0,1,1.0,0.5782999999998992
124,3,0.2,0.25,35.0,-1,0.0,13.309500000000071
125,3,0.2,1.0,35.0,-1,0.0,0.9449000000000751
126,3,0.2,0.25,-35.0,-1,1.0,0.32939999999996417
127,3,0.2,0.125,35.0,-1,0.0,0.49480000000005475
128,3,0.2,1.0,35.0,1,1.0,5.553899999999999
129,3,0.2,1.0,35.0,1,1.0,0.3180999999999585
130,3,0.2,0.125,35.0,-1,0.0,3.011199999999917
131,3,0.2,1.0,35.0,1,1.0,3.6181000000000267
132,3,0.2,1.0,35.0,1,1.0,6.430299999999875
133,3,0.2,0.25,35.0,-1,0.0,3.7005000000000337
134,3,0.8,1.0,-35.0,-1,1.0,0.28769999999997253
135,3,0.8,0.125,35.0,1,1.0,6.2672999999999774
136,3,0.8,0.0625,-35.0,-1,1.0,6.747200000000021
137,3,0.8,0.0625,35.0,-1,0.0,0.327199999999948
138,3,0.8,0.0,-35.0,-1,1.0,0.34209999999995944
139,3,0.8,0.125,-35.0,-1,1.0,0.2939000000000078
140,3,0.8,0.0625,35.0,1,1.0,12.060399999999959
141,3,0.8,0.25,-35.0,-1,1.0,0.384900000000016
142,3,0.8,0.0,35.0,-1,0.0,6.038199999999961
143,3,0.8,1.0,-35.0,-1,1.0,0.24270000000001346
144,3,0.8,1.0,-35.0,-1,1.0,0.37369999999998527
145,3,0.8,0.25,-35.0,-1,1.0,0.6470000000000482
146,3,0.8,0.25,-35.0,-1,1.0,0.3042000000000371
147,3,0.8,0.0,-35.0,-1,1.0,4.284200000000055
148,3,0.8,0.125,-35.0,-1,1.0,0.3002999999999929
149,3,0.8,0.25,-35.0,-1,1.0,0.6183999999999514
150,3,0.8,0.25,-35.0,-1,1.0,0.926900000000046
151,3,0.8,0.25,-35.0,-1,1.0,5.428199999999947
152,3,0.8,0.0625,-35.0,-1,1.0,4.856200000000058
153,3,0.8,1.0,-35.0,-1,1.0,0.3290000000000646
154,3,0.8,0.0625,-35.0,-1,1.0,6.722700000000032
155,3,0.8,0.125,-35.0,-1,1.0,0.3412999999999329
156,3,0.8,1.0,-35.0,-1,1.0,0.5215999999999212
157,3,0.8,0.0,-35.0,-1,1.0,0.3402999999999565
158,3,0.8,0.125,35.0,-1,0.0,0.11710000000005039
159,3,0.8,0.0,-35.0,-1,1.0,0.5818000000000438
160,3,0.8,0.25,35.0,1,1.0,0.5368000000000848
161,3,0.8,0.0625,-35.0,-1,1.0,0.4098999999998796
162,3,0.8,1.0,-35.0,-1,1.0,0.35360000000002856
163,3,0.8,1.0,-35.0,-1,1.0,0.408800000000042
164,3,0.8,0.25,35.0,1,1.0,0.7703000000000202
165,3,0.8,0.25,-35.0,-1,1.0,0.49699999999995725
166,3,0.8,0.0,-35.0,-1,1.0,0.4076999999999771
167,3,0.8,0.125,35.0,1,1.0,0.7136000000000422
168,3,0.8,0.125,-35.0,-1,1.0,6.850699999999961
169,3,0.8,0.0,-35.0,-1,1.0,5.4167999999999665
170,3,0.8,1.0,-35.0,-1,1.0,4.565899999999942
171,3,0.8,0.0625,35.0,-1,0.0,6.841599999999971
172,3,0.8,0.25,-35.0,-1,1.0,0.3652000000000726
173,3,0.8,0.0,-35.0,-1,1.0,0.3852000000000544
174,3,0.8,0.0625,-35.0,-1,1.0,1.6236000000000104
175,3,0.8,0.0625,-35.0,-1,1.0,0.5043999999999187
176,3,0.8,0.25,-35.0,-1,1.0,1.190900000000056
177,3,0.8,0.125,-35.0,-1,1.0,1.07650000000001
178,3,0.8,0.0625,-35.0,-1,1.0,4.315299999999979
179,3,0.8,1.0,35.0,1,1.0,0.48260000000004766
180,3,0.8,1.0,-35.0,-1,1.0,
181,3,0.8,0.125,-35.0,-1,1.0,3.8414999999998827
182,3,0.8,0.0,-35.0,-1,1.0,10.09680000000003
183,3,0.8,1.0,-35.0,-1,1.0,0.6202999999999292
184,3,0.8,0.0625,35.0,-1,0.0,5.643199999999979
185,3,0.8,0.125,-35.0,-1,1.0,0.31780000000003383
186,3,0.8,0.0625,-35.0,-1,1.0,8.802400000000034
187,3,0.8,0.0,-35.0,-1,1.0,1.392500000000041
188,3,0.8,0.125,-35.0,-1,1.0,0.41849999999999454
189,3,0.8,0.0625,35.0,-1,0.0,4.404899999999884
190,3,0.8,1.0,-35.0,-1,1.0,0.25289999999995416
191,3,0.8,0.25,-35.0,-1,1.0,5.706500000000233
192,3,0.8,0.125,35.0,1,1.0,2.1799000000000888
193,3,0.8,0.0625,-35.0,-1,1.0,6.200200000000223
194,3,0.8,0.0625,-35.0,-1,1.0,10.93529999999987
195,3,0.8,0.0,35.0,-1,0.0,2.3038000000001375
196,3,0.8,0.25,-35.0,-1,1.0,0.30510000000003856
197,3,0.8,1.0,35.0,1,1.0,0.43499900000006164
198,3,0.8,0.0,-35.0,-1,1.0,4.58860000000027
199,3,0.8,0.0625,-35.0,1,0.0,11.530700000000024
200,3,0.8,0.0625,-35.0,-1,1.0,0.6411000000002787
201,3,0.8,0.0625,-35.0,-1,1.0,0.32470000000034815
202,3,0.8,0.0625,35.0,-1,0.0,3.7383000000002085
203,3,0.8,0.25,-35.0,-1,1.0,0.251700000000028
204,3,0.8,0.25,35.0,-1,0.0,1.061600000000226
205,3,0.2,0.25,35.0,1,1.0,5.369699999999966
206,3,0.2,0.0625,35.0,-1,0.0,6.123900000000276
207,3,0.2,0.125,35.0,-1,0.0,0.5026000000000295
208,3,0.2,0.0,-35.0,-1,1.0,0.4393000000000029
209,3,0.2,0.0625,35.0,-1,0.0,0.5027000000000044
210,3,0.2,1.0,35.0,1,1.0,1.2283000000002176
211,3,0.2,0.0625,35.0,-1,0.0,0.46060000000011314
212,3,0.2,0.125,35.0,1,1.0,3.9006000000001677
213,3,0.2,0.25,-35.0,-1,1.0,1.3744000000001506
214,3,0.2,0.0625,35.0,-1,0.0,3.7362000000000535
215,3,0.2,1.0,35.0,1,1.0,0.4979000000000724
216,3,0.2,0.0,35.0,1,1.0,10.693400000000338
217,3,0.2,0.125,35.0,1,1.0,3.5534000000000106
218,3,0.2,0.0,35.0,-1,0.0,12.07529999999997
219,3,0.2,1.0,-35.0,-1,1.0,0.2625000000000455
220,3,0.2,0.0625,-35.0,-1,1.0,0.9871000000002823
221,3,0.2,1.0,35.0,-1,0.0,3.9842000000001008
222,3,0.2,1.0,-35.0,-1,1.0,0.28080000000022665
223,3,0.2,0.25,35.0,-1,0.0,13.249399999999923
224,3,0.2,1.0,35.0,1,1.0,6.311400000000276
225,3,0.2,0.25,-35.0,-1,1.0,0.29970000000002983
226,3,0.2,1.0,-35.0,-1,1.0,1.0582999999999174
227,3,0.2,0.125,35.0,-1,0.0,6.373000000000047
228,3,0.2,0.0625,-35.0,-1,1.0,0.3885000000002492
229,3,0.2,0.125,35.0,-1,0.0,0.3166000000001077
230,3,0.2,0.25,35.0,-1,0.0,6.091999999999871
231,3,0.2,0.0625,-35.0,-1,1.0,0.31560000000013133
232,3,0.2,0.125,35.0,-1,0.0,5.883299999999963
233,3,0.2,0.125,35.0,-1,0.0,0.3692000000000917
234,3,0.2,0.25,-35.0,-1,1.0,0.35920000000010077
235,3,0.2,0.0,35.0,-1,0.0,9.532900000000154
236,3,0.2,0.0625,35.0,-1,0.0,0.3166000000001077
237,3,0.2,0.125,35.0,1,1.0,2.5711000000003423
238,3,0.2,1.0,35.0,-1,0.0,3.686700000000201
239,3,0.2,0.125,-35.0,-1,1.0,0.30709999999999127
240,3,0.2,0.25,35.0,-1,0.0,3.2934000000000196
241,3,0.2,0.125,35.0,-1,0.0,0.3504000000002634
242,3,0.2,0.25,35.0,-1,0.0,3.8857000000000426
243,3,0.2,1.0,35.0,-1,0.0,1.047800000000052
244,3,0.2,0.125,35.0,-1,0.0,4.13570000000027
245,3,0.2,0.0,-35.0,1,0.0,13.61570000000006
246,3,0.2,0.0,-35.0,1,0.0,0.4680000000000746
247,3,0.2,0.0625,35.0,1,1.0,3.3961000000001604
248,3,0.2,1.0,35.0,1,1.0,0.655100000000175
249,3,0.2,1.0,35.0,1,1.0,0.35940000000027794
250,3,0.2,0.25,-35.0,-1,1.0,0.4233000000001539
251,3,0.2,0.125,-35.0,-1,1.0,0.35540000000014516
252,3,0.2,0.0,-35.0,-1,1.0,0.4308000000000902
253,3,0.2,0.0,-35.0,-1,1.0,0.43840000000022883
254,3,0.2,0.0,-35.0,-1,1.0,0.6123000000000047
255,3,0.2,0.125,35.0,-1,0.0,0.3853999999998905
256,3,0.2,0.0,35.0,1,1.0,1.2936000000001968
257,3,0.2,1.0,35.0,1,1.0,0.3999000000003434
258,3,0.2,0.125,35.0,1,1.0,1.4907000000000608
259,3,0.8,0.0625,35.0,-1,0.0,8.199000000000296
260,3,0.8,0.0,-35.0,-1,1.0,0.26080000000024484
261,3,0.8,0.125,-35.0,-1,1.0,3.747300000000223
262,3,0.8,1.0,-35.0,-1,1.0,0.6598000000001321
263,3,0.8,0.25,-35.0,-1,1.0,0.5372999999999593
264,3,0.8,0.0625,-35.0,-1,1.0,0.5497000000002572
265,3,0.8,0.0625,35.0,-1,0.0,5.048000000000002
266,3,0.8,1.0,-35.0,-1,1.0,0.26670000000012806
267,3,0.8,0.0625,-35.0,-1,1.0,1.6701000000000477
268,3,0.8,0.0625,-35.0,1,0.0,5.321400000000267
269,3,0.8,0.0625,-35.0,-1,1.0,0.37790000000018154
270,3,0.8,1.0,-35.0,-1,1.0,0.42370000000028085
271,3,0.8,0.25,35.0,1,1.0,0.3224000000002434
272,3,0.8,1.0,-35.0,-1,1.0,0.4754000000002634
273,3,0.8,0.25,-35.0,-1,1.0,1.3064999999999145
274,3,0.8,1.0,-35.0,-1,1.0,0.29169999999999163
275,3,0.8,0.125,-35.0,-1,1.0,10.889400000000023
276,3,0.8,0.0,35.0,1,1.0,2.362300000000232
277,3,0.8,0.0625,-35.0,-1,1.0,0.7779000000002725
278,3,0.8,0.125,-35.0,-1,1.0,0.25310000000013133
279,3,0.8,0.0,-35.0,-1,1.0,5.628400000000283
280,3,0.8,0.125,-35.0,-1,1.0,8.934800000000223
281,3,0.8,0.0,-35.0,-1,1.0,2.7739000000001397
282,3,0.8,0.125,-35.0,-1,1.0,4.456300000000056
283,3,0.8,0.25,-35.0,-1,1.0,2.3868999999999687
284,3,0.8,0.25,-35.0,-1,1.0,5.771400000000085
285,3,0.8,0.0,-35.0,-1,1.0,5.651400000000194
286,3,0.8,0.125,-35.0,-1,1.0,1.927699999999959
287,3,0.2,0.0625,35.0,-1,0.0,9.917200000000093
288,3,0.2,0.25,35.0,1,1.0,1.2352000000000771
289,3,0.2,0.0625,35.0,-1,0.0,6.666800000000194
290,3,0.2,0.0625,35.0,-1,0.0,1.7302999999999429
291,3,0.2,0.0,35.0,-1,0.0,0.3077000000002954
292,3,0.2,0.0,35.0,-1,0.0,0.3671999999999116
293,3,0.2,0.0625,35.0,-1,0.0,0.39370000000008076
294,3,0.2,0.0625,35.0,-1,0.0,0.33530000000018845
295,3,0.2,0.0625,35.0,-1,0.0,0.535200000000259
296,3,0.2,1.0,35.0,1,1.0,3.9661000000000968
297,3,0.2,1.0,35.0,1,1.0,0.33540000000016335
298,3,0.2,1.0,35.0,-1,0.0,2.563000000000102
299,3,0.2,0.125,35.0,-1,0.0,0.3410000000001219
300,3,0.2,0.0,35.0,-1,0.0,0.5144999999999982
301,3,0.2,0.25,35.0,1,1.0,0.7991000000001804
302,3,0.2,0.0,35.0,1,1.0,1.7669000000000779
303,3,0.2,1.0,-35.0,-1,1.0,0.24710000000004584
304,3,0.2,0.25,35.0,1,1.0,0.3448000000000775
305,3,0.2,0.0625,35.0,-1,0.0,0.3488000000002103
306,3,0.2,0.25,-35.0,-1,1.0,0.41150000000016007
307,3,0.2,1.0,-35.0,-1,1.0,0.2522000000001299
308,3,0.2,1.0,35.0,1,1.0,0.29220000000032087
309,3,0.2,0.25,35.0,-1,0.0,0.2979000000000269
310,3,0.2,0.0625,35.0,-1,0.0,0.42740000000026157
311,3,0.2,0.25,35.0,1,1.0,0.2887000000000626
312,3,0.2,0.0,35.0,-1,0.0,0.41089999999985594
313,3,0.2,0.0,-35.0,-1,1.0,0.24900000000002365
314,3,0.2,1.0,35.0,1,1.0,0.35149999999998727
315,3,0.2,0.125,35.0,-1,0.0,1.0191999999999553
316,3,0.2,1.0,35.0,1,1.0,0.4838000000002012
317,3,0.2,0.0625,35.0,-1,0.0,2.9040000000002237
318,3,0.2,0.25,35.0,-1,0.0,0.32140000000003965
319,3,0.2,0.25,-35.0,-1,1.0,0.3029999999998836
320,3,0.2,0.0625,35.0,-1,0.0,0.40640000000007603
321,3,0.2,0.0,35.0,1,1.0,9.048400000000356
322,3,0.2,0.125,35.0,1,1.0,1.2187999999998738
323,3,0.2,0.0625,-35.0,-1,1.0,9.089200000000119
324,3,0.2,1.0,35.0,-1,0.0,0.7602000000001681
325,3,0.2,0.125,35.0,-1,0.0,0.32730000000015025
326,3,0.2,0.0625,35.0,-1,0.0,0.40059999999994034
327,3,0.2,0.0625,35.0,-1,0.0,1.4606000000001131
328,3,0.2,1.0,35.0,1,1.0,0.8113000000000739
329,3,0.2,0.0625,-35.0,-1,1.0,1.4687000000001262
330,3,0.2,0.125,35.0,-1,0.0,3.81230000000005
331,3,0.2,0.125,35.0,-1,0.0,0.5714000000000397
332,3,0.2,0.0,35.0,-1,0.0,3.6626000000001113
333,3,0.8,0.0,-35.0,1,0.0,9.09849999999983
334,3,0.8,0.125,-35.0,1,0.0,13.731800000000248
335,3,0.8,1.0,-35.0,-1,1.0,5.222500000000082
336,3,0.8,0.25,-35.0,-1,1.0,5.3335000000001855
337,3,0.8,0.0625,-35.0,-1,1.0,0.34330000000022665
338,3,0.8,0.25,35.0,-1,0.0,6.5060000000000855
339,3,0.8,0.0,35.0,-1,0.0,0.3531000000000404
340,3,0.8,0.125,35.0,-1,0.0,0.36730000000034124
341,3,0.8,1.0,-35.0,-1,1.0,1.1382000000000971
342,3,0.8,1.0,35.0,1,1.0,0.29650000000037835
343,3,0.8,0.125,35.0,-1,0.0,0.45660000000020773
344,3,0.8,0.25,35.0,-1,0.0,1.171900000000278
345,3,0.8,0.0625,-35.0,-1,1.0,0.31340000000000146
346,3,0.8,0.25,-35.0,-1,1.0,0.2500999999999749
347,3,0.8,0.25,35.0,1,1.0,7.73050000000012
348,3,0.8,0.125,35.0,-1,0.0,3.230399999999918
349,3,0.8,1.0,-35.0,-1,1.0,0.21329999999989013
350,3,0.8,0.0625,35.0,-1,0.0,3.51070000000027
351,3,0.8,0.0,-35.0,1,0.0,5.599800000000187
352,3,0.8,0.25,-35.0,-1,1.0,0.2635999999999967
353,3,0.8,0.0,-35.0,1,0.0,4.818899999999985
354,3,0.8,0.25,-35.0,-1,1.0,0.31900000000018736
355,3,0.8,0.25,-35.0,-1,1.0,6.557999999999993
356,3,0.8,1.0,-35.0,-1,1.0,1.4920000000001892
357,3,0.8,0.0,-35.0,-1,1.0,11.7971
358,3,0.8,1.0,35.0,1,1.0,0.34550100000001294
359,3,0.8,1.0,35.0,1,1.0,0.7164010000001326
360,3,0.8,0.125,-35.0,-1,1.0,3.856800000000476
361,3,0.8,0.125,-35.0,-1,1.0,0.745401000000129
362,3,0.8,0.0625,-35.0,-1,1.0,0.8893010000001595
363,3,0.8,0.0,35.0,-1,0.0,3.665701000000354
364,3,0.8,1.0,-35.0,-1,1.0,0.46050100000002203
365,3,0.8,1.0,-35.0,-1,1.0,0.9663010000003851
366,3,0.8,0.0625,35.0,-1,0.0,3.509501
367,3,0.8,0.125,-35.0,-1,1.0,0.269600999999966
368,3,0.8,0.0,35.0,-1,0.0,0.30600100000037855
369,3,0.8,0.0625,-35.0,-1,1.0,0.35510100000010425
370,3,0.8,0.0625,-35.0,-1,1.0,0.40650100000038947
371,3,0.8,0.25,-35.0,-1,1.0,0.2820010000000366
372,3,0.8,0.125,-35.0,-1,1.0,1.323301000000356
373,3,0.8,1.0,-35.0,-1,1.0,0.2734009999999216
374,3,0.8,0.0,-35.0,-1,1.0,6.507900999999947
375,3,0.8,1.0,35.0,1,1.0,0.41020100000059756
376,3,0.2,0.25,35.0,1,1.0,0.191700999999739
377,3,0.2,0.0625,35.0,-1,0.0,0.3097010000001319
378,3,0.2,0.125,-35.0,-1,1.0,0.32540100000005623
379,3,0.2,0.125,35.0,1,1.0,7.127300999999989
380,3,0.2,0.0,35.0,1,1.0,10.880801000000247
381,3,0.2,1.0,35.0,-1,0.0,0.12450100000023667
382,3,0.2,0.0625,35.0,-1,0.0,0.33890100000007806
383,3,0.2,0.25,-35.0,-1,1.0,0.526201000000583
384,3,0.2,0.0625,35.0,1,1.0,1.9452009999999973
385,3,0.2,0.25,35.0,-1,0.0,6.65820100000019
386,3,0.2,0.25,35.0,1,1.0,0.4755009999998947
387,3,0.2,0.0,-35.0,1,0.0,8.202101000000312
388,3,0.2,1.0,35.0,1,1.0,0.3214010000001508
389,3,0.2,0.125,35.0,1,1.0,1.732401000000209
390,3,0.2,1.0,35.0,1,1.0,0.6167010000003756
391,3,0.2,0.0625,35.0,-1,0.0,0.21590100000003076
392,3,0.2,1.0,35.0,1,1.0,0.5872009999998227
393,3,0.2,0.0,35.0,-1,0.0,5.207601000000068
394,3,0.2,0.25,35.0,1,1.0,5.743101000000024
395,3,0.2,0.125,-35.0,-1,1.0,0.38750100000015664
396,3,0.2,0.0625,35.0,-1,0.0,5.067500999999538
397,3,0.2,0.0625,35.0,1,1.0,0.9111010000001443
398,3,0.2,0.25,35.0,1,1.0,0.09190100000023449
399,3,0.2,0.125,-35.0,-1,1.0,6.991900999999871
400,3,0.2,1.0,35.0,1,1.0,0.34170099999982995
401,3,0.2,0.0,35.0,1,1.0,5.6906010000002425
402,3,0.2,0.125,35.0,-1,0.0,6.781900999999834
403,3,0.2,0.0625,35.0,-1,0.0,0.404500999999982
404,3,0.2,0.125,35.0,-1,0.0,4.161400999999842
405,3,0.2,0.0,35.0,1,1.0,8.698001000000204
406,3,0.2,1.0,35.0,1,1.0,0.3416010000000824
407,3,0.2,0.25,35.0,-1,0.0,2.298301000000265
408,3,0.2,0.125,35.0,1,1.0,6.285501000000295
409,3,0.2,0.0625,-35.0,-1,1.0,11.2570010000004
410,3,0.2,0.125,35.0,1,1.0,0.8774009999997361
411,3,0.2,0.0625,35.0,-1,0.0,0.34240100000033635
412,3,0.2,0.25,35.0,-1,0.0,8.80690100000038
413,3,0.2,0.0,35.0,-1,0.0,0.34060100000033344
414,3,0.2,0.0625,35.0,1,1.0,4.606501000000208
415,3,0.2,0.0625,-35.0,1,0.0,0.9568010000002687
416,3,0.2,0.0,35.0,1,1.0,2.2273010000003524
417,3,0.2,0.125,35.0,1,1.0,2.064800999999534
418,3,0.2,0.0625,35.0,1,1.0,3.5320010000000366
419,3,0.2,0.25,35.0,1,1.0,0.6210010000004331
420,3,0.2,0.25,35.0,1,1.0,0.4565010000001166
421,3,0.2,1.0,35.0,1,1.0,0.22850100000005114
422,3,0.2,0.0,-35.0,1,0.0,4.848500999999942
423,3,0.2,0.0,35.0,-1,0.0,3.224300999999741
424,3,0.2,1.0,35.0,1,1.0,0.24950100000023667
425,3,0.2,1.0,-35.0,-1,1.0,0.37740100000019083
426,3,0.2,0.25,35.0,1,1.0,0.7714009999999689
427,3,0.2,1.0,35.0,-1,0.0,0.5616010000003371
428,3,0.2,0.0,35.0,-1,0.0,0.3200010000000475
429,3,0.2,0.125,35.0,1,1.0,8.420101000000159
430,3,0.2,0.0,35.0,-1,0.0,0.2979009999999107
431,3,0.2,0.0625,35.0,-1,0.0,0.44210100000009334
432,3,0.2,0.125,35.0,1,1.0,0.38890100000025996
433,3,0.2,0.125,35.0,1,1.0,11.245700999999826
434,3,0.2,0.0,35.0,1,1.0,1.6107010000005175
435,3,0.2,0.0,35.0,1,1.0,0.9339010000003327
436,3,0.2,1.0,35.0,1,1.0,0.2207010000001901
437,3,0.2,0.125,35.0,1,1.0,12.916601000000355
438,3,0.2,0.0,35.0,1,1.0,2.672200999999859
439,3,0.2,0.25,35.0,1,1.0,2.105501000000004
440,3,0.2,0.25,-35.0,-1,1.0,0.2620010000000548
441,3,0.2,0.25,35.0,1,1.0,5.048800999999912
442,3,0.2,0.125,-35.0,-1,1.0,0.4640009999998256
443,3,0.2,1.0,35.0,1,1.0,0.28880100000014863
444,3,0.2,0.0,-35.0,-1,1.0,2.6275009999999384
445,3,0.2,0.25,35.0,-1,0.0,12.863400999999612
446,3,0.2,1.0,35.0,1,1.0,0.29870100000016464
447,3,0.8,0.0,-35.0,1,0.0,13.785401000000547
448,3,0.8,0.0,-35.0,-1,1.0,1.3531010000001515
449,3,0.8,0.0625,-35.0,-1,1.0,0.39240100000051825
450,3,0.8,0.0625,-35.0,-1,1.0,0.5184010000002672
451,3,0.8,1.0,-35.0,-1,1.0,0.24250100000017483
452,3,0.8,1.0,-35.0,-1,1.0,0.2843010000005961
453,3,0.8,0.0,-35.0,-1,1.0,0.28720100000055027
454,3,0.8,0.125,-35.0,-1,1.0,1.5879009999998743
455,3,0.8,0.0625,-35.0,-1,1.0,0.29880099999991216
456,3,0.8,0.0,-35.0,-1,1.0,0.37770099999988815
457,3,0.8,1.0,-35.0,-1,1.0,0.45920099999966624
458,3,0.8,0.125,-35.0,-1,1.0,0.4024010000002818
459,3,0.8,0.0,-35.0,-1,1.0,4.545501000000058
460,3,0.8,0.25,-35.0,-1,1.0,0.9007010000000264
461,3,0.8,0.0,-35.0,-1,1.0,4.646001000000069
462,3,0.8,0.0,-35.0,-1,1.0,8.050500999999713
463,3,0.8,1.0,-35.0,-1,1.0,0.31850100000019665
464,3,0.8,0.125,-35.0,-1,1.0,0.3324010000001181
465,3,0.8,0.0,-35.0,-1,1.0,7.2299010000001545
466,3,0.8,0.125,-35.0,-1,1.0,0.40820099999973536
467,3,0.8,0.0625,-35.0,-1,1.0,0.40610100000003513
468,3,0.8,1.0,35.0,1,1.0,0.31390100000044185
469,3,0.8,0.125,-35.0,-1,1.0,2.950401000000511
470,3,0.8,1.0,-35.0,-1,1.0,5.504000999999789
471,3,0.8,0.0625,-35.0,-1,1.0,0.3217010000003029
472,3,0.8,0.0,-35.0,-1,1.0,0.2872010000000955
473,3,0.8,1.0,-35.0,-1,1.0,0.6075010000004113
474,3,0.8,1.0,-35.0,-1,1.0,1.3973010000004251
475,3,0.8,0.125,-35.0,-1,1.0,9.69470100000035
476,3,0.8,0.0,-35.0,-1,1.0,0.3781010000002425
477,3,0.8,0.0625,-35.0,-1,1.0,0.4147010000001501
478,3,0.8,0.25,-35.0,-1,1.0,4.95790100000022
479,3,0.8,0.25,-35.0,-1,1.0,0.448200999999699
480,3,0.8,0.0,-35.0,1,0.0,5.521400999999969
481,3,0.8,0.25,-35.0,-1,1.0,0.26330100000041057
482,3,0.8,0.0625,-35.0,-1,1.0,7.216801000000032
483,3,0.8,1.0,-35.0,-1,1.0,0.9713010000000395
484,3,0.8,1.0,35.0,1,1.0,0.2690010000001166
485,3,0.8,0.0,-35.0,-1,1.0,8.80710100000033
486,3,0.8,1.0,-35.0,-1,1.0,0.30030100000021775
487,3,0.8,0.125,-35.0,-1,1.0,0.7507010000003902
488,3,0.8,1.0,-35.0,-1,1.0,1.2661010000006172
489,3,0.8,1.0,-35.0,-1,1.0,7.430901000000631
490,3,0.8,0.25,-35.0,-1,1.0,2.772201000000223
491,3,0.2,0.0,35.0,1,1.0,0.16520100000025195
492,3,0.2,1.0,35.0,1,1.0,0.27700099999992744
493,3,0.2,0.25,35.0,-1,0.0,0.4466010000001006
494,3,0.2,0.25,35.0,1,1.0,5.596801000000141
495,3,0.2,0.25,35.0,1,1.0,2.0787010000003647
496,3,0.2,0.0,35.0,1,1.0,5.680500999999822
497,3,0.2,1.0,35.0,1,1.0,0.2616010000001552
498,3,0.2,0.0,35.0,1,1.0,1.3934010000002672
499,3,0.2,0.0,35.0,1,1.0,1.7109009999999216
500,3,0.2,0.0625,35.0,1,1.0,38.71410099999957
501,3,0.2,0.25,35.0,1,1.0,1.7778010000001814
502,3,0.2,0.125,35.0,1,1.0,1.6820010000001275
503,3,0.2,0.125,-35.0,1,0.0,3.182401000000027
504,3,0.2,0.0,35.0,1,1.0,2.130101000000195
505,3,0.2,0.25,35.0,1,1.0,6.198500999999851
506,3,0.2,0.25,35.0,1,1.0,14.713101000000279
507,3,0.2,0.0,35.0,1,1.0,1.9184009999999034
508,3,0.2,1.0,-35.0,1,0.0,5.07910099999981
509,3,0.2,0.0625,35.0,1,1.0,5.7336010000003625
510,3,0.2,0.0,35.0,1,1.0,3.544100999999955
511,3,0.2,0.0,35.0,1,1.0,7.177200999999968
512,3,0.2,1.0,35.0,1,1.0,0.2885010000004513
513,3,0.2,0.0625,35.0,1,1.0,2.6949009999998452
514,3,0.2,1.0,35.0,1,1.0,0.4793009999998503
515,3,0.2,1.0,35.0,1,1.0,0.784701000000041
516,3,0.2,0.0625,35.0,1,1.0,18.565001000000393
517,3,0.2,0.25,-35.0,-1,1.0,0.6263010000002396
518,3,0.2,1.0,35.0,1,1.0,0.4585010000000693
519,3,0.2,0.0,35.0,-1,0.0,0.368300999999974
520,3,0.2,0.0625,-35.0,-1,1.0,0.28510099999994054
521,3,0.2,0.0625,35.0,1,1.0,10.651800999999978
522,3,0.2,0.25,35.0,1,1.0,13.743001000000277
523,3,0.2,0.0,35.0,1,1.0,1.58940100000018
524,3,0.2,0.0,35.0,1,1.0,4.021001000000069
525,3,0.2,1.0,35.0,1,1.0,0.256300999999894
526,3,0.2,0.25,35.0,1,1.0,0.5664010000004964
527,3,0.2,0.125,-35.0,-1,1.0,5.0942009999998845
528,3,0.2,0.0,35.0,-1,0.0,0.42530100000021775
529,3,0.2,0.125,35.0,1,1.0,0.38000099999999293
530,3,0.2,0.25,35.0,-1,0.0,0.5538010000000213
531,3,0.2,0.0,35.0,1,1.0,4.073801000000003
532,3,0.2,0.125,35.0,1,1.0,8.823701000000256
533,3,0.2,1.0,35.0,1,1.0,3.8023009999997157
534,3,0.2,0.125,35.0,1,1.0,8.879801000000043
535,3,0.2,0.25,35.0,1,1.0,4.997500999999829
536,3,0.2,0.0,35.0,1,1.0,1.5770010000001093
537,3,0.2,1.0,35.0,1,1.0,0.26940099999956146
538,3,0.2,0.0,35.0,1,1.0,3.9403010000000904
539,3,0.2,1.0,35.0,1,1.0,4.430001000000175
540,3,0.2,1.0,35.0,1,1.0,7.822901000000456
541,3,0.2,0.25,35.0,1,1.0,3.772200999999768
542,3,0.2,0.0,35.0,1,1.0,5.252300999999989
543,3,0.2,0.125,35.0,1,1.0,7.5491009999996095
544,3,0.2,0.0,35.0,1,1.0,3.7395010000000184
545,3,0.2,0.125,-35.0,-1,1.0,4.761801000000105
546,3,0.2,0.0,35.0,1,1.0,6.0711010000004535
547,3,0.2,0.25,-35.0,-1,1.0,0.33520099999986996
548,3,0.2,0.125,35.0,1,1.0,5.814401000000089
549,3,0.2,0.25,-35.0,-1,1.0,0.3269010000003618
550,3,0.2,0.25,-35.0,1,0.0,4.143901000000369
551,3,0.2,0.125,35.0,1,1.0,5.978401000000304
552,3,0.2,0.25,35.0,1,1.0,7.3992010000001756
553,3,0.2,0.25,-35.0,1,0.0,3.307401000000482
554,3,0.2,1.0,35.0,1,1.0,0.29230100000040693
555,3,0.8,0.0625,35.0,1,1.0,7.614600999999766
556,3,0.8,0.0625,-35.0,1,0.0,5.997901000000184
557,3,0.8,0.0,-35.0,1,0.0,1.1234010000002854
558,3,0.8,1.0,-35.0,1,0.0,8.615000999999666
559,3,0.8,0.25,35.0,1,1.0,13.380501000000095
560,3,0.8,0.25,-35.0,1,0.0,9.062201000000186
561,3,0.8,0.125,-35.0,1,0.0,4.991000999999869
562,3,0.8,0.0,-35.0,1,0.0,0.9195009999998547
563,3,0.8,0.25,-35.0,1,0.0,1.3142010000001392
564,3,0.8,0.0,35.0,1,1.0,3.9384009999998852
565,3,0.8,0.0625,-35.0,1,0.0,9.880200999999943
566,3,0.8,1.0,-35.0,1,0.0,0.13000100000044768
567,3,0.8,0.0625,-35.0,1,0.0,3.840501000000131
568,3,0.8,0.0,-35.0,1,0.0,0.21460100000012972
569,3,0.8,1.0,35.0,1,1.0,0.5274010000002818
570,3,0.8,0.25,35.0,1,1.0,3.1670009999998
571,3,0.8,1.0,35.0,1,1.0,8.783901000000242
572,3,0.8,0.0625,35.0,1,1.0,3.8218009999995957
573,3,0.8,0.25,-35.0,1,0.0,12.287901000000147
574,3,0.8,0.125,-35.0,1,0.0,8.942401000000245
575,3,0.8,0.25,-35.0,1,0.0,3.4552010000002156
576,3,0.8,0.0625,-35.0,1,0.0,0.2633009999999558
577,3,0.8,0.125,-35.0,1,0.0,2.6522009999998772
578,3,0.8,0.25,-35.0,1,0.0,5.625601000000188
579,3,0.8,0.25,-35.0,1,0.0,3.7458010000000286
580,3,0.8,0.0,-35.0,1,0.0,0.8286010000001625
581,3,0.8,1.0,-35.0,1,0.0,1.952600999999504
582,3,0.8,0.25,-35.0,1,0.0,7.082900999999765
583,3,0.8,1.0,-35.0,1,0.0,2.300100999999813
584,3,0.8,0.25,-35.0,1,0.0,11.347901000000093
585,3,0.8,0.0,-35.0,1,0.0,7.4536010000001625
586,3,0.8,1.0,-35.0,1,0.0,9.907501000000138
587,3,0.8,0.125,-35.0,1,0.0,9.134201000000303
588,3,0.8,0.125,-35.0,1,0.0,6.551001000000269
589,3,0.8,0.25,-35.0,1,0.0,0.22280099999989034
590,3,0.8,0.0,-35.0,1,0.0,3.527100000000246
591,3,0.8,0.0,-35.0,1,0.0,2.292001000000255
592,3,0.2,0.25,35.0,1,1.0,1.551701000000321
593,3,0.2,1.0,35.0,1,1.0,1.276100999999926
594,3,0.2,0.0,-35.0,1,0.0,5.426201000000219
595,3,0.2,1.0,-35.0,1,0.0,1.2594010000002527
596,3,0.2,1.0,35.0,1,1.0,11.754100999999991
597,3,0.2,0.0,35.0,1,1.0,2.06590099999994
598,3,0.2,0.0625,-35.0,1,0.0,5.059700999999677
599,3,0.2,0.25,-35.0,1,0.0,7.176801000000069
600,3,0.2,1.0,-35.0,1,0.0,2.3322010000001683
601,3,0.2,0.125,35.0,1,1.0,1.8287010000003647
602,3,0.2,0.25,35.0,1,1.0,3.3715010000000802
603,3,0.2,0.0625,35.0,1,1.0,2.0606010000001334
604,3,0.2,1.0,35.0,1,1.0,1.9173009999999522
605,3,0.2,0.0,35.0,-1,0.0,0.3360010000001239
606,3,0.2,0.0625,35.0,1,1.0,20.325001000000157
607,3,0.2,1.0,35.0,1,1.0,0.20970100000022285
608,3,0.2,0.125,35.0,1,1.0,2.5096010000006572
609,3,0.2,0.0625,35.0,1,1.0,3.945401000000402
610,3,0.2,0.125,35.0,1,1.0,0.20080099999995582
611,3,0.2,1.0,35.0,1,1.0,3.689901000000191
612,3,0.2,0.125,35.0,1,1.0,0.16990100000020902
613,3,0.2,1.0,35.0,1,1.0,5.682601000000432
614,3,0.2,0.25,35.0,1,1.0,6.458901000000424
615,3,0.2,1.0,-35.0,1,0.0,6.411501000000044
616,3,0.2,0.0,35.0,1,1.0,6.856901000000107
617,3,0.2,0.25,35.0,1,1.0,11.004601000000093
618,3,0.2,0.25,35.0,1,1.0,9.379801000000043
619,3,0.2,1.0,-35.0,1,0.0,9.64040100000011
620,3,0.2,0.125,35.0,1,1.0,2.8950010000003203
621,3,0.2,0.125,35.0,1,1.0,7.601201000000401
622,3,0.2,0.25,35.0,1,1.0,7.472100999999839
623,3,0.2,0.0,35.0,1,1.0,3.754501000000346
624,3,0.2,1.0,35.0,1,1.0,5.756500999999844
625,3,0.2,0.125,35.0,1,1.0,3.1447010000001683
626,3,0.2,0.0,35.0,1,1.0,4.506601000000501
627,3,0.2,1.0,35.0,1,1.0,6.141900999999962
628,3,0.2,0.125,35.0,1,1.0,7.3966010000003735
629,3,0.2,0.125,35.0,1,1.0,0.5341010000001916
630,3,0.2,1.0,-35.0,1,0.0,8.421100999999908
631,3,0.2,1.0,35.0,1,1.0,14.554201000000376
632,3,0.2,0.125,-35.0,1,0.0,5.8005010000001676
633,3,0.2,1.0,-35.0,1,0.0,5.831101000000217
634,3,0.2,0.125,35.0,1,1.0,3.843800999999985
635,3,0.2,0.125,35.0,-1,0.0,0.4141010000003007
636,3,0.2,0.0,35.0,1,1.0,1.6450009999998656
637,3,0.2,0.0625,35.0,1,1.0,15.332201000000623
638,3,0.2,0.125,35.0,1,1.0,7.43000099999972
639,3,0.2,0.25,35.0,1,1.0,11.420100999999704
640,3,0.2,0.0625,35.0,1,1.0,10.971900999999889
641,3,0.2,0.0625,35.0,1,1.0,12.820300999999745
642,3,0.2,0.0,35.0,1,1.0,7.249401000000034
643,3,0.2,0.0625,35.0,1,1.0,2.4959009999993214
644,3,0.2,1.0,35.0,1,1.0,5.534201000000394
645,3,0.2,0.0,-35.0,1,0.0,9.265900999999758
646,3,0.2,0.25,35.0,1,1.0,11.334901000000173
647,3,0.2,1.0,35.0,1,1.0,0.18130099999962113
648,3,0.2,0.0625,35.0,1,1.0,6.984900999999809
649,3,0.2,0.25,35.0,1,1.0,12.400400999999874
650,3,0.2,0.125,35.0,1,1.0,5.280700999999681
651,3,0.2,0.0625,35.0,1,1.0,3.3956009999992602
652,3,0.2,1.0,35.0,1,1.0,4.702100999998947
653,3,0.2,0.25,-35.0,1,0.0,3.468800999999985
654,3,0.2,0.125,35.0,1,1.0,4.20810100000017
655,3,0.2,0.25,35.0,1,1.0,6.438301000000138
656,3,0.2,0.0625,35.0,1,1.0,10.415101000000504
657,3,0.2,0.0,35.0,1,1.0,6.6413009999996575
658,3,0.2,0.0625,35.0,1,1.0,3.0224010000001726
659,3,0.2,0.25,35.0,1,1.0,2.862500999999611
660,3,0.2,1.0,35.0,1,1.0,0.31340100000034
661,3,0.2,0.0,-35.0,1,0.0,0.16020099999968807
662,3,0.2,0.125,35.0,1,1.0,0.337601000000177
663,3,0.2,0.0,35.0,1,1.0,2.0442009999997026
664,3,0.2,0.0625,-35.0,1,0.0,1.2075009999998656
665,3,0.2,0.0625,35.0,1,1.0,3.150900999999976
666,3,0.2,0.0625,35.0,1,1.0,3.0470009999999093
667,3,0.2,0.125,35.0,1,1.0,10.410100999999486
668,3,0.2,0.25,35.0,1,1.0,2.31170099999963
669,3,0.2,0.125,-35.0,1,0.0,3.9154010000002017
670,3,0.2,0.25,-35.0,1,0.0,14.451100999999653
671,3,0.2,0.25,-35.0,1,0.0,4.433000999999422
672,3,0.2,1.0,35.0,1,1.0,9.214100999999573
673,3,0.2,0.0,-35.0,1,0.0,10.978200999999899
674,3,0.8,0.125,-35.0,1,0.0,0.4942010000004302
675,3,0.8,0.125,-35.0,1,0.0,4.790200999998888
676,3,0.8,0.0625,35.0,1,1.0,3.207900999999765
677,3,0.8,0.125,-35.0,1,0.0,2.8034010000001217
678,3,0.8,1.0,-35.0,1,0.0,7.630800999999337
679,3,0.8,0.0625,-35.0,1,0.0,6.321900999999343
680,3,0.8,0.0,35.0,1,1.0,11.57680099999925
681,3,0.8,0.25,-35.0,1,0.0,6.190000999999938
682,3,0.8,0.125,-35.0,1,0.0,14.320200999999543
683,3,0.8,1.0,-35.0,1,0.0,3.6807010000002265
684,3,0.8,1.0,-35.0,1,0.0,1.4993009999998321
685,3,0.8,0.0,-35.0,-1,1.0,0.47640099999989616
686,3,0.8,0.125,-35.0,1,0.0,3.114600999999311
687,3,0.8,0.25,-35.0,1,0.0,2.5449009999992995
688,3,0.8,0.0625,-35.0,1,0.0,0.4814010000000053
689,3,0.8,1.0,35.0,1,1.0,5.609600999999202
690,3,0.8,1.0,35.0,1,1.0,12.95850099999916
691,3,0.8,0.125,-35.0,1,0.0,2.4157010000008086
692,3,0.8,0.25,-35.0,1,0.0,8.353600999999799
693,3,0.8,1.0,-35.0,1,0.0,8.779201000000285
694,3,0.8,1.0,35.0,1,1.0,5.18000099999972
695,3,0.8,0.25,-35.0,1,0.0,5.400800999999774
696,3,0.8,0.0,35.0,1,1.0,9.117701000000125
697,3,0.8,0.25,-35.0,1,0.0,3.7068010000002687
698,3,0.8,0.125,-35.0,1,0.0,8.198400999999649
699,3,0.8,0.125,-35.0,1,0.0,0.20440099999996164
700,3,0.8,0.0625,-35.0,1,0.0,4.737300999999206
701,3,0.8,0.25,-35.0,1,0.0,3.171000999998796
702,3,0.8,0.25,-35.0,1,0.0,3.388600999999653
703,3,0.8,0.0,-35.0,1,0.0,2.5745010000000548
704,3,0.8,0.0,35.0,1,1.0,6.058200999999826
705,3,0.8,0.0,-35.0,1,0.0,2.9372009999997317
706,3,0.8,0.0625,-35.0,1,0.0,5.812200999999732
707,3,0.8,0.0,-35.0,1,0.0,24.382000999999036
708,3,0.8,1.0,-35.0,1,0.0,5.113100999999915
709,3,0.8,0.25,35.0,1,1.0,6.516200999999455
710,3,0.8,0.25,35.0,1,1.0,7.534301000000596
711,3,0.8,0.125,-35.0,1,0.0,3.8524009999991904
712,3,0.8,0.25,-35.0,1,0.0,1.8195009999990361
713,3,0.8,0.125,-35.0,1,0.0,24.762800999998944
714,3,0.8,0.0,-35.0,1,0.0,2.1655009999994945
715,3,0.2,0.0,35.0,1,1.0,6.480600999999297
716,3,0.2,1.0,35.0,1,1.0,4.9648010000000795
717,3,0.2,1.0,35.0,1,1.0,4.653700999999273
718,3,0.2,0.125,-35.0,1,0.0,5.038400999998885
719,3,0.2,0.125,35.0,1,1.0,13.115500999999313
1,4,0.5,0.0625,-35.0,1,0.0,16.7636
2,4,0.5,0.25,35.0,1,1.0,0.882799999999996
3,4,0.5,0.25,35.0,1,1.0,9.049299999999999
4,4,0.5,1.0,35.0,1,1.0,0.49800000000000466
5,4,0.5,0.0625,-35.0,-1,1.0,2.179700000000004
6,4,0.5,0.25,-35.0,-1,1.0,0.2796999999999912
7,4,0.5,0.0,35.0,-1,0.0,0.2804000000000002
8,4,0.5,0.25,35.0,1,1.0,0.9620999999999853
9,4,0.5,0.25,-35.0,-1,1.0,0.3406999999999911
10,4,0.5,0.25,35.0,1,1.0,0.29189999999999827
11,4,0.5,1.0,-35.0,-1,1.0,0.3311000000000064
12,4,0.5,0.125,35.0,1,1.0,0.25200000000000955
