trial_num,session_num,stim_probability_left,contrast,position,response_choice,trial_correct,reaction_time
1,14,0.5,0.125,35.0,1,1.0,0.3216999999999999
2,14,0.5,1.0,-35.0,-1,1.0,
3,14,0.5,0.0,35.0,1,1.0,4.1058
4,14,0.5,0.0,35.0,-1,0.0,0.7899999999999991
5,14,0.5,0.125,-35.0,-1,1.0,1.198999999999998
6,14,0.5,0.125,35.0,1,1.0,0.8917999999999964
7,14,0.5,1.0,35.0,1,1.0,0.2983000000000047
8,14,0.5,0.25,-35.0,-1,1.0,0.44760000000000844
9,14,0.5,0.0,35.0,-1,0.0,1.7685000000000102
10,14,0.5,0.0,-35.0,-1,1.0,2.7705000000000055
11,14,0.5,1.0,-35.0,-1,1.0,0.802500000000002
12,14,0.5,1.0,-35.0,-1,1.0,0.34909999999999997
13,14,0.5,0.0,35.0,-1,0.0,0.8917000000000002
14,14,0.5,0.0625,-35.0,-1,1.0,0.6012999999999948
15,14,0.5,0.25,-35.0,-1,1.0,1.2831000000000046
16,14,0.5,0.125,35.0,1,1.0,0.32569999999999766
17,14,0.5,0.125,-35.0,-1,1.0,0.7800000000000011
18,14,0.5,0.25,-35.0,-1,1.0,0.18590000000000373
19,14,0.5,0.125,-35.0,-1,1.0,3.5930000000000035
20,14,0.5,0.125,35.0,1,1.0,0.28659999999999286
21,14,0.5,0.0625,35.0,-1,0.0,0.7841000000000093
22,14,0.5,0.125,35.0,-1,0.0,0.6389000000000067
23,14,0.5,0.0625,35.0,-1,0.0,5.606099999999998
24,14,0.2,0.0625,35.0,1,1.0,1.4425999999999988
25,14,0.5,1.0,35.0,1,1.0,0.34149999999999636
26,14,0.5,0.0,-35.0,1,0.0,0.4479000000000042
27,14,0.5,0.0625,35.0,-1,0.0,0.6295000000000073
28,14,0.5,0.25,-35.0,-1,1.0,0.4771000000000072
29,14,0.5,0.25,35.0,1,1.0,0.7337000000000131
30,14,0.5,0.0625,35.0,-1,0.0,0.38349999999999795
31,14,0.5,0.25,35.0,1,1.0,0.25869999999997617
32,14,0.5,0.25,35.0,1,1.0,0.32509999999999195
33,14,0.5,0.25,-35.0,-1,1.0,0.3930999999999756
34,14,0.5,0.125,-35.0,-1,1.0,2.2340999999999838
35,14,0.5,0.25,35.0,1,1.0,0.30929999999997904
36,14,0.5,0.0,35.0,-1,0.0,0.38519999999999754
37,14,0.4,0.0,35.0,-1,0.0,0.8283000000000129
38,14,0.5,1.0,35.0,1,1.0,0.27769999999998163
39,14,0.5,1.0,35.0,1,1.0,0.2974999999999852
40,14,0.5,0.0625,-35.0,-1,1.0,0.4812999999999761
41,14,0.5,1.0,35.0,1,1.0,0.29699999999999704
42,14,0.5,1.0,35.0,1,1.0,0.2558999999999969
43,14,0.5,0.125,35.0,1,1.0,5.5627999999999815
44,14,0.5,0.25,-35.0,-1,1.0,0.5733999999999924
45,14,0.5,1.0,35.0,1,1.0,0.31569999999999254
46,14,0.5,0.25,35.0,1,1.0,0.37659999999999627
47,14,0.5,1.0,-35.0,-1,1.0,3.2461999999999875
48,14,0.5,1.0,-35.0,-1,1.0,0.9355000000000189
49,14,0.5,0.0625,-35.0,1,0.0,0.34559999999999036
50,14,0.5,0.0,-35.0,-1,1.0,1.1379999999999768
51,14,0.5,0.25,-35.0,-1,1.0,0.7874999999999943
52,14,0.5,0.125,35.0,1,1.0,0.3526999999999987
53,14,0.5,0.125,-35.0,-1,1.0,5.076599999999985
54,14,0.5,0.125,35.0,1,1.0,0.3662999999999954
55,14,0.5,0.125,35.0,1,1.0,5.274100000000004
56,14,0.5,0.0625,-35.0,-1,1.0,5.451199999999972
57,14,0.5,0.125,35.0,1,1.0,0.4030999999999949
58,14,0.5,0.0,35.0,1,1.0,7.171899999999994
59,14,0.5,0.0,-35.0,-1,1.0,0.6142999999999574
60,14,0.5,0.0625,35.0,1,1.0,0.32850000000001955
61,14,0.5,0.0,35.0,-1,0.0,5.178999000000033
62,14,0.5,0.125,-35.0,-1,1.0,4.042100000000005
63,14,0.5,0.25,-35.0,-1,1.0,1.196799999999996
64,14,0.5,1.0,35.0,1,1.0,0.3131999999999948
65,14,0.5,0.125,-35.0,-1,1.0,0.6802000000000135
66,14,0.5,1.0,35.0,1,1.0,0.23699999999996635
67,14,0.5,1.0,35.0,1,1.0,0.29120000000000346
68,14,0.5,0.0625,-35.0,1,0.0,2.814799999999991
69,14,0.5,0.25,-35.0,1,0.0,0.22329999999999472
70,14,0.6,0.25,-35.0,1,0.0,7.577600000000018
71,14,0.5,1.0,35.0,1,1.0,0.22149999999993497
72,14,0.5,0.25,35.0,1,1.0,0.26789999999999736
73,14,0.5,0.125,-35.0,-1,1.0,2.199800000000039
74,14,0.5,0.25,-35.0,-1,1.0,0.5237000000000194
75,14,0.5,1.0,-35.0,-1,1.0,0.5313999999999623
76,14,0.5,0.0625,35.0,1,1.0,0.4292000000000371
77,14,0.5,0.0625,35.0,1,1.0,0.8514999999999873
78,14,0.5,0.0625,35.0,1,1.0,0.4909999999999286
79,14,0.5,0.125,-35.0,-1,1.0,0.4578999999999951
80,14,0.5,0.0,-35.0,-1,1.0,0.371599999999944
81,14,0.5,0.125,35.0,1,1.0,0.40330000000000155
82,14,0.5,1.0,35.0,1,1.0,0.32740000000001146
83,14,0.5,0.125,35.0,1,1.0,0.6308989999999994
84,14,0.5,0.0625,35.0,1,1.0,0.3136000000000081
85,14,0.5,0.25,-35.0,-1,1.0,0.8172999999999888
86,14,0.5,0.125,35.0,1,1.0,0.29980000000000473
87,14,0.5,0.0,35.0,-1,0.0,0.9545999999999708
88,14,0.5,0.0625,35.0,1,1.0,0.5296000000000163
89,14,0.5,0.125,35.0,-1,0.0,0.10880000000003065
90,14,0.6,0.125,-35.0,-1,1.0,0.7171999999999912
91,14,0.5,1.0,-35.0,-1,1.0,0.5408999999999651
92,14,0.5,0.0,35.0,-1,0.0,1.1363000000000056
93,14,0.5,0.125,35.0,-1,0.0,0.3797999999999888
94,14,0.5,0.25,-35.0,-1,1.0,0.4804999999999495
95,14,0.5,0.0625,-35.0,-1,1.0,1.2312000000000012
96,14,0.5,0.125,35.0,1,1.0,0.25
97,14,0.5,0.125,-35.0,-1,1.0,0.4489000000000374
98,14,0.5,0.25,35.0,1,1.0,0.287399999999991
99,14,0.5,0.0625,35.0,1,1.0,3.8976000000000113
100,14,0.5,0.25,35.0,1,1.0,1.5605999999999653
101,14,0.5,0.0,-35.0,-1,1.0,2.665899999999965
102,14,0.5,1.0,-35.0,-1,1.0,0.580099999999959
103,14,0.5,0.125,35.0,1,1.0,0.3025000000000091
104,14,0.5,0.0625,-35.0,-1,1.0,0.8381999999999721
105,14,0.5,0.125,-35.0,-1,1.0,0.4186000000000263
106,14,0.5,1.0,35.0,1,1.0,0.2791000000000281
107,14,0.5,0.125,-35.0,-1,1.0,0.7045999999999708
108,14,0.5,0.125,35.0,1,1.0,0.33219999999994343
109,14,0.5,0.0,-35.0,1,0.0,0.8921999999999457
110,14,0.5,0.0,-35.0,-1,1.0,7.508799999999951
111,14,0.5,1.0,-35.0,-1,1.0,0.8728000000000407
112,14,0.5,1.0,-35.0,-1,1.0,0.7210000000000036
113,14,0.5,0.0625,35.0,1,1.0,1.8841999999999643
114,14,0.5,0.0,35.0,-1,0.0,0.5437000000000012
115,14,0.4,0.0,35.0,-1,0.0,0.7712999999999965
116,14,0.5,1.0,-35.0,-1,1.0,0.2718999999999596
117,14,0.5,0.25,35.0,1,1.0,0.44479999999998654
118,14,0.5,1.0,-35.0,-1,1.0,0.6757000000000062
119,14,0.5,1.0,35.0,1,1.0,0.38829999999995835
120,14,0.5,0.0625,-35.0,-1,1.0,4.435299999999984
121,14,0.5,0.125,35.0,1,1.0,0.31329999999991287
122,14,0.5,1.0,-35.0,-1,1.0,0.7843999999998914
123,14,0.5,1.0,35.0,1,1.0,0.2820999999999003
124,14,0.5,0.0625,35.0,-1,0.0,0.5450000000000728
125,14,0.5,0.0625,-35.0,-1,1.0,3.9966000000000577
126,14,0.5,1.0,35.0,1,1.0,0.2738000000000511
127,14,0.5,0.125,-35.0,1,0.0,1.8523000000000138
128,14,0.5,0.0625,-35.0,-1,1.0,0.33960000000001855
129,14,0.5,0.25,35.0,1,1.0,0.26709999999991396
130,14,0.5,0.125,35.0,1,1.0,0.6446999999999434
131,14,0.5,0.0625,35.0,1,1.0,0.8407999999999447
132,14,0.5,1.0,35.0,1,1.0,0.7929999999998927
133,14,0.5,0.25,-35.0,-1,1.0,1.2709999999999582
134,14,0.5,0.0625,35.0,-1,0.0,0.3885999999999967
135,14,0.5,0.0625,-35.0,-1,1.0,0.31970000000001164
136,14,0.5,0.25,-35.0,-1,1.0,0.8915000000000646
137,14,0.5,0.25,-35.0,-1,1.0,0.48879999999996926
138,14,0.5,0.0625,35.0,1,1.0,0.3386999999999034
139,14,0.5,0.0625,-35.0,-1,1.0,0.47490000000004784
140,14,0.5,0.0625,35.0,1,1.0,0.35779999999999745
141,14,0.5,0.125,-35.0,-1,1.0,4.768199999999979
142,14,0.5,0.125,35.0,1,1.0,0.3104000000000724
143,14,0.5,0.0625,-35.0,-1,1.0,0.5552000000000135
144,14,0.5,0.125,35.0,1,1.0,1.0499999999999545
145,14,0.5,0.125,35.0,1,1.0,1.1603000000000065
146,14,0.5,0.0625,-35.0,-1,1.0,0.379099999999994
147,14,0.5,0.125,-35.0,-1,1.0,0.3770999999999276
148,14,0.5,0.0,35.0,-1,0.0,0.5154999999999745
149,14,0.5,0.125,35.0,1,1.0,0.2898999999999887
150,14,0.5,1.0,-35.0,-1,1.0,0.43089999999995143
151,14,0.5,0.0,35.0,-1,0.0,0.5521999999999707
152,14,0.4,0.0,-35.0,-1,1.0,0.5775999999998476
153,14,0.5,1.0,35.0,1,1.0,0.2463999999998805
154,14,0.5,1.0,35.0,1,1.0,0.2117999999999256
155,14,0.5,0.0625,-35.0,-1,1.0,0.4535999999999376
156,14,0.5,0.0625,-35.0,-1,1.0,0.38850000000002183
157,14,0.5,0.0625,-35.0,-1,1.0,0.310100000000034
158,14,0.5,0.25,35.0,1,1.0,0.2780999999999949
159,14,0.5,0.0625,35.0,1,1.0,0.30510000000003856
160,14,0.5,0.0625,-35.0,1,0.0,0.20639999999991687
161,14,0.5,0.0625,35.0,1,1.0,1.3472999999999047
162,14,0.5,1.0,-35.0,-1,1.0,0.37610000000006494
163,14,0.5,0.125,-35.0,-1,1.0,0.38819999999998345
164,14,0.5,0.125,-35.0,-1,1.0,0.27940000000000964
165,14,0.5,0.25,-35.0,-1,1.0,0.5757000000000971
166,14,0.5,1.0,35.0,1,1.0,0.2460999999999558
167,14,0.5,0.25,-35.0,-1,1.0,0.4373000000000502
168,14,0.5,0.25,35.0,1,1.0,0.22939999999994143
169,14,0.5,1.0,35.0,1,1.0,0.24689999999998236
170,14,0.5,0.25,-35.0,-1,1.0,0.34579999999994016
171,14,0.5,0.25,35.0,1,1.0,0.23850000000004457
172,14,0.5,0.125,35.0,-1,0.0,0.7141000000000304
173,14,0.5,0.0625,-35.0,-1,1.0,0.47529999999994743
174,14,0.5,0.125,-35.0,-1,1.0,0.3450000000000273
175,14,0.5,0.25,35.0,1,1.0,0.26920000000006894
176,14,0.5,0.0,35.0,-1,0.0,0.3585999999999103
177,14,0.5,0.25,35.0,1,1.0,2.8239999999999554
178,14,0.5,0.0625,-35.0,1,0.0,4.0593000000000075
179,14,0.5,0.25,35.0,1,1.0,3.8992000000000644
180,14,0.5,0.25,-35.0,1,0.0,6.059700000000021
181,14,0.5,0.125,-35.0,1,0.0,3.5160999999999376
182,14,0.5,0.125,-35.0,1,0.0,3.6684000000000196
183,14,0.5,0.0625,-35.0,1,0.0,44.75
184,14,0.5,0.25,-35.0,1,0.0,7.229199999999992
185,14,0.5,0.25,35.0,1,1.0,5.591000000000008
186,14,0.5,0.25,35.0,1,1.0,0.5441999999999325
187,14,0.5,0.25,-35.0,-1,1.0,0.645800000000122
188,14,0.5,0.125,35.0,1,1.0,0.3728000000000975
189,14,0.5,0.125,35.0,1,1.0,0.2883999999999105
190,14,0.5,0.125,35.0,1,1.0,0.29700000000002547
191,14,0.5,0.125,-35.0,-1,1.0,3.500499999999988
192,14,0.5,0.0,35.0,-1,0.0,4.555299999999988
193,14,0.5,0.125,35.0,1,1.0,0.26149999999995543
194,14,0.5,0.125,35.0,-1,0.0,5.92389999999989
195,14,0.6,0.125,35.0,1,1.0,0.3486000000000331
196,14,0.5,1.0,35.0,1,1.0,0.24210000000005039
197,14,0.5,0.0625,35.0,-1,0.0,2.265700000000038
198,14,0.5,0.0,35.0,1,1.0,0.28930000000002565
199,14,0.5,0.0,35.0,1,1.0,8.896099999999933
200,14,0.5,1.0,-35.0,1,0.0,0.12889999999993051
201,14,0.5,0.125,-35.0,-1,1.0,0.3645000000000209
202,14,0.5,0.0,-35.0,-1,1.0,4.619100000000117
203,14,0.5,0.0,35.0,-1,0.0,4.172699999999963
204,14,0.5,0.0,35.0,1,1.0,0.880800000000022
205,14,0.5,0.0625,35.0,1,1.0,0.5369000000000597
206,14,0.5,0.0625,35.0,1,1.0,0.5487999999999147
207,14,0.5,0.0625,-35.0,1,0.0,3.5056999999999334
208,14,0.7,0.0625,35.0,1,1.0,0.5149999999999864
209,14,0.5,1.0,35.0,1,1.0,0.32949999999993906
210,14,0.5,0.125,35.0,1,1.0,5.641799999999989
211,14,0.5,1.0,-35.0,-1,1.0,0.36399999999991905
212,14,0.5,0.25,-35.0,-1,1.0,0.3351999999999862
213,14,0.5,0.0625,-35.0,1,0.0,6.580000000000041
214,14,0.8,0.0625,-35.0,-1,1.0,0.5372999999999593
215,14,0.5,1.0,-35.0,-1,1.0,4.170700000000011
216,14,0.5,0.0625,35.0,1,1.0,0.296100000000024
217,14,0.5,0.0625,35.0,1,1.0,5.624500000000012
218,14,0.5,1.0,-35.0,-1,1.0,0.4014999999999418
219,14,0.5,0.0,-35.0,1,0.0,0.27140000000008513
220,14,0.5,0.0,-35.0,1,0.0,
221,14,0.5,0.125,-35.0,1,0.0,0.09149999999999636
222,14,0.5,0.125,-35.0,1,0.0,3.3954000000001088
223,14,0.5,0.125,35.0,1,1.0,0.23530000000005202
224,14,0.5,0.25,35.0,1,1.0,0.20870000000013533
225,14,0.5,1.0,35.0,1,1.0,0.21210000000019136
226,14,0.5,0.125,-35.0,1,0.0,7.432199999999966
227,14,0.5,0.125,35.0,1,1.0,0.32910000000015316
228,14,0.5,0.0625,35.0,-1,0.0,3.692600000000084
229,14,0.5,0.125,35.0,1,1.0,0.35990000000015243
230,14,0.5,1.0,35.0,1,1.0,0.2192000000002281
231,14,0.5,1.0,-35.0,-1,1.0,0.4132000000001881
232,14,0.5,0.0625,-35.0,-1,1.0,4.009799999999814
233,14,0.5,0.0625,35.0,-1,0.0,0.4208000000000993
234,14,0.5,0.0,-35.0,1,0.0,3.1868000000001757
235,14,0.5,0.0,-35.0,1,0.0,7.833599999999933
236,14,0.5,0.125,35.0,1,1.0,0.29440000000022337
237,14,0.5,0.25,35.0,1,1.0,0.2269000000003416
238,14,0.5,0.0,-35.0,-1,1.0,7.806900000000269
239,14,0.5,0.0625,-35.0,-1,1.0,5.62740000000008
240,14,0.5,0.25,35.0,1,1.0,0.3346000000001368
241,14,0.5,0.0,35.0,-1,0.0,11.175300000000107
242,14,0.5,0.25,-35.0,-1,1.0,0.32539999999994507
243,14,0.5,1.0,35.0,1,1.0,0.20139999999992142
244,14,0.5,0.125,35.0,1,1.0,0.3482000000001335
245,14,0.5,0.25,35.0,1,1.0,0.2579000000002907
246,14,0.5,0.125,35.0,1,1.0,0.2314000000001215
247,14,0.5,0.125,35.0,1,1.0,5.8547000000000935
248,14,0.5,0.0,-35.0,1,0.0,6.7396000000001095
249,14,0.5,0.0,-35.0,1,0.0,6.3219000000001415
250,14,0.5,0.25,-35.0,1,0.0,1.0320999999999003
251,14,0.8,0.25,-35.0,1,0.0,2.0387000000000626
252,14,0.5,1.0,35.0,1,1.0,0.2597000000000662
253,14,0.5,0.0,35.0,1,1.0,6.512899999999945
254,14,0.5,0.0625,-35.0,1,0.0,1.429600000000164
255,14,0.5,0.125,35.0,1,1.0,4.030901000000313
256,14,0.5,0.125,-35.0,1,0.0,1.6131010000001424
257,14,0.5,0.0625,-35.0,1,0.0,4.6394010000001344
258,14,0.5,0.25,35.0,1,1.0,6.560001000000057
259,14,0.5,0.125,35.0,1,1.0,11.32660100000021
260,14,0.5,0.0625,35.0,1,1.0,4.873601000000235
261,14,0.5,0.25,-35.0,1,0.0,3.200501000000031
262,14,0.5,0.125,35.0,1,1.0,3.1474009999999453
263,14,0.5,0.0625,-35.0,1,0.0,0.7809010000000853
264,14,0.5,0.0625,35.0,1,1.0,3.194601000000148
265,14,0.5,1.0,35.0,1,1.0,
266,14,0.5,0.0625,35.0,1,1.0,5.185600999999906
267,14,0.5,0.25,35.0,1,1.0,7.186700999999857
268,14,0.5,0.25,35.0,1,1.0,1.3184009999999944
269,14,0.5,1.0,35.0,1,1.0,0.23610100000018974
270,14,0.5,0.25,-35.0,1,0.0,5.848601000000144
271,14,0.5,0.25,-35.0,1,0.0,10.77930100000026
272,14,1.0,0.25,-35.0,1,0.0,8.276701000000003
273,14,0.5,1.0,-35.0,1,0.0,5.729501000000255
274,14,0.5,0.125,-35.0,1,0.0,2.3137010000000373
275,14,1.0,0.125,35.0,1,1.0,4.330101000000241
276,14,0.5,1.0,-35.0,1,0.0,3.0307010000001355
277,14,1.0,1.0,-35.0,1,0.0,3.6510010000001785
278,14,1.0,1.0,-35.0,1,0.0,4.091701000000057
279,14,1.0,1.0,-35.0,1,0.0,3.7907010000001264
280,14,1.0,1.0,-35.0,1,0.0,0.9721010000002934
281,14,1.0,1.0,-35.0,1,0.0,6.248201000000108
282,14,1.0,1.0,-35.0,1,0.0,1.3642010000000937
283,14,1.0,1.0,-35.0,1,0.0,9.521101000000044
284,14,1.0,1.0,-35.0,1,0.0,5.1096010000001115
285,14,1.0,1.0,35.0,1,1.0,9.256001000000197
286,14,0.5,1.0,-35.0,1,0.0,4.6394010000001344
287,14,0.5,0.0625,35.0,1,1.0,5.788601000000199
288,14,0.5,0.125,35.0,1,1.0,11.382700999999997
289,14,0.5,1.0,35.0,1,1.0,13.67400100000009
290,14,0.5,0.25,-35.0,1,0.0,3.746300999999903
291,14,1.0,0.25,-35.0,1,0.0,3.0062010000001465
292,14,0.5,1.0,-35.0,1,0.0,5.030001000000084
293,14,0.5,0.0625,35.0,-1,0.0,1.9034010000000308
294,14,0.5,0.25,35.0,1,1.0,4.476801000000023
295,14,0.5,0.0625,35.0,1,1.0,9.760301000000254
296,14,0.5,0.125,35.0,1,1.0,12.98130100000003
297,14,0.5,0.0625,-35.0,1,0.0,3.0447010000002592
298,14,0.9,0.0625,-35.0,1,0.0,9.007800999999972
299,14,0.5,1.0,-35.0,1,0.0,6.434901000000082
300,14,0.9,1.0,-35.0,1,0.0,5.888300999999956
301,14,0.9,1.0,-35.0,1,0.0,1.7953010000001086
302,14,0.9,1.0,-35.0,1,0.0,3.871901000000207
303,14,0.9,1.0,-35.0,1,0.0,3.305601000000024
304,14,1.0,1.0,-35.0,-1,1.0,10.81620100000032
305,14,0.5,1.0,-35.0,-1,1.0,3.0493010000002414
306,14,0.5,0.0625,-35.0,1,0.0,4.7145009999999274
307,14,0.8,0.0625,35.0,1,1.0,8.743101000000024
308,14,0.5,1.0,-35.0,1,0.0,7.996801000000005
309,14,0.5,0.0625,-35.0,1,0.0,7.5109010000001035
310,14,0.5,0.0625,35.0,1,1.0,0.2313010000000304
311,14,0.5,1.0,-35.0,1,0.0,1.7474009999998543
312,14,0.5,0.125,35.0,1,1.0,3.5771010000003116
313,14,0.5,1.0,35.0,1,1.0,0.23810100000014245
314,14,0.5,0.125,35.0,1,1.0,1.577401000000009
315,14,0.5,0.125,-35.0,1,0.0,7.377601000000141
316,14,0.5,0.0625,-35.0,1,0.0,0.1487010000000737
317,14,0.5,0.125,35.0,1,1.0,1.124700999999959
318,14,0.5,1.0,35.0,1,1.0,5.96460100000013
319,14,0.5,0.125,-35.0,1,0.0,2.7787009999999555
320,14,1.0,0.125,-35.0,1,0.0,2.1217010000002574
321,14,0.5,1.0,-35.0,1,0.0,8.422101000000112
322,14,1.0,1.0,-35.0,1,0.0,1.7684010000000399
323,14,1.0,1.0,35.0,1,1.0,1.842701000000261
324,14,0.5,1.0,-35.0,1,0.0,0.370001000000002
325,14,0.5,0.125,-35.0,1,0.0,2.1725010000002385
326,14,1.0,0.125,-35.0,1,0.0,3.163301000000274
327,14,0.5,1.0,-35.0,1,0.0,5.386201000000028
328,14,0.5,0.0,-35.0,1,0.0,8.564301000000114
329,14,0.5,0.0,35.0,1,1.0,4.763901000000033
330,14,0.5,1.0,35.0,1,1.0,0.2608010000001286
331,14,0.5,0.0625,35.0,1,1.0,3.163001000000122
332,14,0.5,0.0625,35.0,1,1.0,5.207200999999941
333,14,0.5,1.0,-35.0,1,0.0,2.118701000000101
334,14,0.5,0.25,-35.0,1,0.0,2.2170010000002094
335,14,0.5,0.0,35.0,1,1.0,1.4373010000001614
336,14,0.5,0.0,35.0,1,1.0,9.017201000000114
337,14,0.5,0.0625,35.0,1,1.0,4.545201000000134
338,14,0.5,0.25,35.0,1,1.0,29.494701000000305
339,14,0.5,0.25,-35.0,1,0.0,4.286401000000069
340,14,0.5,0.125,35.0,1,1.0,3.750201000000061
341,14,0.5,0.25,35.0,1,1.0,
342,14,0.5,0.0625,-35.0,1,0.0,2.319001000000071
343,14,0.5,0.25,35.0,1,1.0,1.4464010000001508
344,14,0.5,1.0,35.0,1,1.0,3.9891009999998914
345,14,0.5,1.0,-35.0,1,0.0,3.3463010000000395
346,14,0.5,0.25,35.0,1,1.0,6.7592010000000755
347,14,0.5,0.25,-35.0,1,0.0,5.586500999999998
348,14,0.5,0.125,-35.0,1,0.0,0.5333000000000538
349,14,0.5,0.125,-35.0,1,0.0,4.6274009999999635
350,14,0.5,0.0625,35.0,1,1.0,0.30440100000009807
351,14,0.5,0.0,-35.0,1,0.0,3.6132010000001173
352,14,0.5,0.125,-35.0,1,0.0,3.9137010000001737
353,14,1.0,0.125,-35.0,1,0.0,3.7443010000001777
354,14,0.5,1.0,-35.0,1,0.0,2.4087010000000646
355,14,0.5,0.25,35.0,1,1.0,0.22430099999996855
356,14,0.5,1.0,35.0,1,1.0,0.23070100000040838
357,14,0.5,1.0,-35.0,1,0.0,5.240801000000374
358,14,0.5,0.125,35.0,1,1.0,0.25770100000045204
359,14,0.5,1.0,-35.0,1,0.0,1.6080010000000584
360,14,0.5,0.0,-35.0,1,0.0,3.465701000000081
361,14,0.5,0.125,35.0,1,1.0,0.27850100000023303
362,14,0.5,0.125,35.0,1,1.0,0.20570100000031744
363,14,0.5,0.0,35.0,1,1.0,6.512800999999854
364,14,0.5,1.0,-35.0,1,0.0,3.7052010000002156
365,14,0.5,0.125,35.0,1,1.0,4.52040100000022
366,14,0.5,0.25,-35.0,1,0.0,0.33900100000028033
367,14,0.5,0.25,-35.0,1,0.0,0.26000100000010207
368,14,0.5,0.0625,-35.0,1,0.0,0.20590100000026723
369,14,0.5,0.125,-35.0,1,0.0,0.27760099999977683
370,14,0.5,0.25,35.0,1,1.0,0.2259009999997943
371,14,0.5,1.0,-35.0,1,0.0,0.24040100000001985
372,14,0.5,0.25,-35.0,1,0.0,0.2327010000003611
373,14,0.5,0.25,-35.0,1,0.0,4.08960100000013
374,14,0.5,0.25,-35.0,1,0.0,0.35300099999994927
375,14,0.5,0.0625,-35.0,1,0.0,0.25380100000029415
376,14,0.5,0.25,35.0,1,1.0,0.3564010000000053
377,14,0.5,1.0,35.0,1,1.0,0.20060100000000602
378,14,0.5,0.25,35.0,1,1.0,6.433301000000029
379,14,0.5,0.25,-35.0,1,0.0,0.3669009999998707
380,14,1.0,0.25,35.0,1,1.0,0.23110100000030798
381,14,0.5,1.0,-35.0,1,0.0,0.2836010000000897
382,14,0.5,0.25,-35.0,1,0.0,0.3336010000002716
383,14,0.5,0.25,-35.0,1,0.0,3.1072010000002592
384,14,1.0,0.25,-35.0,1,0.0,11.117201000000023
385,14,0.5,1.0,-35.0,1,0.0,0.8476010000003953
386,14,0.5,0.0625,-35.0,1,0.0,0.3594010000006165
387,14,1.0,0.0625,35.0,1,1.0,0.10220100000015009
388,14,0.5,1.0,-35.0,1,0.0,2.1546010000001843
389,14,0.5,0.0,-35.0,1,0.0,0.23130100000025777
390,14,0.5,0.0,-35.0,1,0.0,6.071500999999898
391,14,0.5,0.25,-35.0,1,0.0,5.678301000000374
392,14,0.5,0.0,-35.0,1,0.0,6.738901000000624
393,14,0.5,0.125,35.0,1,1.0,11.825301000000309
394,14,0.5,0.0625,35.0,1,1.0,5.732201000000259
395,14,0.5,0.25,-35.0,1,0.0,8.049401000000216
396,14,0.5,0.0625,35.0,1,1.0,4.396201000000474
397,14,0.5,1.0,-35.0,1,0.0,2.3601010000002134
398,14,0.5,0.125,35.0,1,1.0,5.159801000000243
399,14,0.5,0.125,-35.0,1,0.0,8.600801000000047
400,14,0.5,0.125,35.0,1,1.0,5.953701000000365
401,14,0.5,0.125,35.0,1,1.0,4.100500999999895
402,14,0.5,0.125,35.0,1,1.0,3.1039009999999507
403,14,0.5,0.0625,-35.0,1,0.0,0.31770100000039747
404,14,0.5,0.0,35.0,1,1.0,0.22460099999989325
405,14,0.5,0.25,-35.0,1,0.0,12.706001000000015
406,14,1.0,0.25,-35.0,1,0.0,3.5882010000000264
407,14,0.5,1.0,-35.0,1,0.0,0.2549010000002454
408,14,0.5,0.0625,-35.0,1,0.0,3.33520099999987
409,14,0.5,0.0625,35.0,1,1.0,5.072001000000455
410,14,0.5,0.0625,-35.0,1,0.0,3.7435010000003786
411,14,0.5,0.0,35.0,1,1.0,4.85890100000006
412,14,0.5,1.0,35.0,1,1.0,0.20550100000036764
413,14,0.5,0.0625,35.0,1,1.0,0.3054010000000744
414,14,0.5,0.0625,-35.0,1,0.0,0.21380099999987578
415,14,0.5,0.0,-35.0,1,0.0,0.3433010000003378
416,14,0.5,0.125,35.0,1,1.0,0.18270099999972444
417,14,0.5,1.0,-35.0,1,0.0,0.2873010000002978
418,14,0.5,0.125,35.0,1,1.0,3.2101010000001224
419,14,0.5,0.0,-35.0,1,0.0,0.38100100000019665
420,14,1.0,0.0,-35.0,1,0.0,0.2996010000001661
421,14,0.5,1.0,-35.0,1,0.0,2.0401010000005044
422,14,0.5,0.0625,35.0,1,1.0,0.5333009999999376
423,14,0.5,0.25,35.0,1,1.0,0.249800999999934
424,14,0.5,0.125,-35.0,1,0.0,0.26380100000051243
425,14,0.5,0.25,-35.0,1,0.0,0.20850100000006933
426,14,0.5,0.125,35.0,1,1.0,8.301801000000069
427,14,0.5,0.0625,-35.0,1,0.0,6.718701000000237
428,14,0.5,0.0,35.0,1,1.0,17.32060100000035
429,14,0.5,0.25,-35.0,1,0.0,0.21130099999982122
430,14,0.5,0.0625,35.0,1,1.0,7.045101000000159
431,14,0.5,1.0,35.0,1,1.0,0.1915009999997892
432,14,0.5,0.25,-35.0,1,0.0,3.0620010000002367
433,14,0.5,0.0,35.0,1,1.0,5.071500999999898
434,14,0.5,0.0625,35.0,1,1.0,0.7883010000000468
435,14,0.5,1.0,35.0,1,1.0,5.3859010000001035
436,14,0.5,0.0625,-35.0,1,0.0,2.2355010000005677
437,14,0.5,0.25,35.0,1,1.0,0.09870099999989179
438,14,0.5,0.25,-35.0,1,0.0,5.765401000000111
439,14,1.0,0.25,-35.0,1,0.0,4.465701000000081
440,14,0.5,1.0,-35.0,1,0.0,3.1792010000003756
441,14,0.5,0.0625,-35.0,1,0.0,6.255900999999994
442,14,0.5,0.0,35.0,1,1.0,1.132900999999947
443,14,0.5,0.25,-35.0,1,0.0,3.4265009999999165
444,14,0.5,0.25,35.0,1,1.0,10.866801000000123
445,14,0.5,1.0,-35.0,1,0.0,5.666901000000053
446,14,1.0,1.0,-35.0,1,0.0,1.0572010000000773
447,14,1.0,1.0,-35.0,1,0.0,4.430601000000479
448,14,1.0,1.0,-35.0,1,0.0,2.707300999999916
449,14,1.0,1.0,-35.0,1,0.0,3.6411010000001625
450,14,1.0,1.0,35.0,1,1.0,0.2760009999997237
451,14,0.5,1.0,-35.0,1,0.0,1.5578009999999267
452,14,1.0,1.0,35.0,1,1.0,5.218501000000288
453,14,0.5,1.0,-35.0,1,0.0,0.2654010000001108
454,14,0.5,0.25,35.0,1,1.0,3.989101000000119
455,14,0.5,1.0,-35.0,1,0.0,4.208600999999817
456,14,1.0,1.0,-35.0,1,0.0,3.325601000000006
457,14,1.0,1.0,-35.0,1,0.0,3.135501000000204
458,14,1.0,1.0,35.0,1,1.0,9.419001000000208
459,14,0.5,1.0,-35.0,1,0.0,6.8432010000001355
460,14,0.5,0.0,35.0,1,1.0,4.262600999999904
461,14,0.5,0.25,35.0,1,1.0,8.28800100000035
462,14,0.5,1.0,35.0,1,1.0,0.269600999999966
463,14,0.5,1.0,-35.0,1,0.0,2.0272009999998772
464,14,0.5,0.0625,35.0,1,1.0,0.46330100000022867
465,14,0.5,0.0,-35.0,1,0.0,0.23160100000040984
466,14,0.5,0.0625,35.0,1,1.0,4.234900999999809
467,14,0.5,0.125,-35.0,1,0.0,1.7279010000002017
468,14,0.5,0.0,35.0,1,1.0,10.889001000000007
469,14,0.5,0.125,35.0,1,1.0,3.310700999999881
470,14,0.5,0.0625,35.0,1,1.0,0.27580100000022867
471,14,0.5,0.25,-35.0,1,0.0,0.7612009999998008
472,14,0.5,0.0625,35.0,1,1.0,4.267901000000165
473,14,0.5,0.25,-35.0,1,0.0,4.041501000000153
474,14,0.5,0.125,35.0,1,1.0,7.9549010000000635
475,14,0.5,0.0625,35.0,1,1.0,3.3914010000003145
476,14,0.5,1.0,35.0,1,1.0,0.19530100000019956
477,14,0.5,0.25,35.0,1,1.0,0.2288010000002032
478,14,0.5,0.0625,-35.0,1,0.0,1.186001000000033
479,14,0.5,0.0625,35.0,1,1.0,3.0687009999996917
480,14,0.5,0.25,35.0,1,1.0,0.28880100000014863
481,14,0.5,1.0,-35.0,1,0.0,0.37570099999993545
1,15,0.5,0.25,35.0,1,1.0,0.355
2,15,0.5,0.0625,35.0,1,1.0,0.2895000000000012
3,15,0.5,0.25,35.0,1,1.0,0.3277000000000001
4,15,0.5,0.125,-35.0,-1,1.0,0.8519999999999985
5,15,0.5,0.0625,-35.0,-1,1.0,0.8917989999999989
6,15,0.5,1.0,-35.0,-1,1.0,0.8676999999999992
7,15,0.5,0.0625,35.0,1,1.0,0.3786999999999985
8,15,0.5,0.0,35.0,-1,0.0,1.8735999999999997
9,15,0.5,0.0,-35.0,-1,1.0,3.334299999999999
10,15,0.5,0.25,-35.0,-1,1.0,2.1765999999999934
11,15,0.5,0.0625,35.0,1,1.0,0.3148999999999944
12,15,0.5,0.0625,35.0,1,1.0,1.6399999999999935
13,15,0.5,0.0,-35.0,-1,1.0,3.5984999999999943
14,15,0.5,0.125,35.0,1,1.0,0.7667000000000144
15,15,0.5,1.0,35.0,1,1.0,1.1847999999999956
16,15,0.5,0.125,35.0,1,1.0,0.8187000000000069
17,15,0.5,1.0,35.0,1,1.0,0.6075000000000159
18,15,0.5,1.0,-35.0,-1,1.0,0.43250000000000455
19,15,0.5,0.0,-35.0,-1,1.0,0.5564000000000107
20,15,0.5,0.0625,35.0,-1,0.0,3.554400000000001
21,15,0.5,0.25,-35.0,-1,1.0,0.3293000000000035
22,15,0.5,0.125,-35.0,-1,1.0,1.6118000000000023
23,15,0.5,0.25,-35.0,-1,1.0,0.39450000000000784
24,15,0.5,0.0,35.0,-1,0.0,1.0671999999999997
25,15,0.3,0.0,35.0,-1,0.0,0.2546999999999997
26,15,0.5,1.0,-35.0,-1,1.0,3.3670000000000044
27,15,0.5,0.25,-35.0,-1,1.0,0.7765000000000128
28,15,0.5,0.0625,35.0,-1,0.0,0.34539999999999793
29,15,0.5,0.25,-35.0,-1,1.0,0.3153000000000077
30,15,0.5,0.0625,35.0,-1,0.0,0.38870000000000005
31,15,0.5,0.125,35.0,1,1.0,0.3194000000000017
32,15,0.5,0.0625,-35.0,-1,1.0,0.6403999999999996
33,15,0.5,0.0,35.0,-1,0.0,1.0051999999999737
34,15,0.5,0.0625,-35.0,-1,1.0,0.3164999999999907
35,15,0.5,1.0,-35.0,-1,1.0,0.4148000000000138
36,15,0.5,0.125,-35.0,-1,1.0,0.6736999999999966
37,15,0.5,0.0625,35.0,1,1.0,0.6818999999999846
38,15,0.5,0.125,35.0,1,1.0,0.3242999999999654
39,15,0.5,0.25,-35.0,-1,1.0,0.7657999999999845
40,15,0.5,0.0,-35.0,-1,1.0,0.4380999999999915
41,15,0.5,0.25,-35.0,-1,1.0,2.8356999999999744
42,15,0.5,1.0,35.0,1,1.0,0.3348000000000013
43,15,0.5,0.0625,-35.0,-1,1.0,1.94459999999998
44,15,0.5,0.125,-35.0,-1,1.0,2.3044999999999902
45,15,0.5,1.0,-35.0,-1,1.0,0.5620999999999867
46,15,0.5,0.125,-35.0,-1,1.0,0.36659999999997694
47,15,0.5,0.0625,35.0,1,1.0,0.3854000000000042
48,15,0.5,0.125,35.0,1,1.0,0.3039999999999736
49,15,0.5,0.0,-35.0,1,0.0,1.2927999999999713
50,15,0.5,0.25,35.0,1,1.0,0.6650999999999669
51,15,0.5,0.0625,35.0,-1,0.0,2.5168000000000177
52,15,0.5,0.25,-35.0,-1,1.0,0.3312999999999988
53,15,0.5,0.25,35.0,1,1.0,1.3561999999999728
54,15,0.5,0.0,35.0,-1,0.0,0.7771999999999935
55,15,0.5,0.125,-35.0,-1,1.0,0.3054999999999666
56,15,0.5,0.0,35.0,-1,0.0,2.1287999999999556
57,15,0.5,0.0625,-35.0,-1,1.0,0.33269999999998845
58,15,0.5,0.25,35.0,1,1.0,0.9921999999999969
59,15,0.5,0.0625,-35.0,-1,1.0,0.18260000000000787
60,15,0.5,0.0,-35.0,-1,1.0,0.9007000000000005
61,15,0.5,0.0,35.0,-1,0.0,0.37210000000004584
62,15,0.2,0.0,35.0,-1,0.0,2.6497999999999706
63,15,0.5,1.0,35.0,1,1.0,0.35580000000004475
64,15,0.5,0.0625,35.0,-1,0.0,1.1564990000000535
65,15,0.5,0.0625,-35.0,-1,1.0,4.38330000000002
66,15,0.5,0.25,35.0,1,1.0,2.2760000000000105
67,15,0.5,0.25,35.0,1,1.0,1.6463000000000534
68,15,0.5,0.0625,35.0,-1,0.0,4.778700000000015
69,15,0.5,0.0625,35.0,-1,0.0,0.37899999999996226
70,15,0.5,0.125,-35.0,-1,1.0,0.3522000000000389
71,15,0.5,1.0,-35.0,-1,1.0,1.7139000000000237
72,15,0.5,0.25,35.0,-1,0.0,0.9793999999999983
73,15,0.5,0.25,35.0,-1,0.0,4.5756999999999834
74,15,0.2,0.25,35.0,-1,0.0,5.155300000000068
75,15,0.5,1.0,35.0,1,1.0,0.20990000000000464
76,15,0.5,0.0625,35.0,1,1.0,1.3758000000000266
77,15,0.5,0.0625,35.0,-1,0.0,4.046300000000031
78,15,0.5,0.0625,-35.0,-1,1.0,0.7187000000000126
79,15,0.5,1.0,-35.0,-1,1.0,0.5343000000000302
80,15,0.5,0.0625,-35.0,-1,1.0,0.48260000000004766
81,15,0.5,1.0,-35.0,-1,1.0,0.6888999999999896
82,15,0.5,0.0,-35.0,-1,1.0,3.6707000000000107
83,15,0.5,1.0,35.0,1,1.0,1.4017999999999802
84,15,0.5,1.0,35.0,1,1.0,0.36549999999999727
85,15,0.5,1.0,-35.0,-1,1.0,2.4945990000000506
86,15,0.5,0.0625,35.0,-1,0.0,0.4461000000000013
87,15,0.5,0.125,-35.0,-1,1.0,0.34700000000003683
88,15,0.5,0.25,35.0,1,1.0,0.26180000000005066
89,15,0.5,0.0,35.0,-1,0.0,3.2683999999999855
90,15,0.5,0.25,35.0,1,1.0,1.3379000000000474
91,15,0.5,0.25,35.0,-1,0.0,4.750699999999995
92,15,0.5,0.0625,-35.0,-1,1.0,0.32269999999999754
93,15,0.5,0.25,-35.0,-1,1.0,0.24930000000000518
94,15,0.5,1.0,35.0,1,1.0,0.29570000000001073
95,15,0.5,1.0,35.0,1,1.0,0.26660000000003947
96,15,0.5,0.125,-35.0,1,0.0,0.9857000000000085
97,15,0.5,0.0,35.0,-1,0.0,3.0048000000000457
98,15,0.5,0.125,-35.0,-1,1.0,6.17229999999995
99,15,0.5,0.125,35.0,1,1.0,0.47059999999999036
100,15,0.5,0.125,-35.0,-1,1.0,0.43659999999999854
101,15,0.5,0.0625,35.0,-1,0.0,0.6505999999999972
102,15,0.5,0.0625,35.0,-1,0.0,0.5880000000000223
103,15,0.5,0.25,35.0,-1,0.0,4.0294999999999845
104,15,0.5,0.0625,35.0,1,1.0,33.35890000000006
105,15,0.5,0.0625,-35.0,-1,1.0,3.2933000000000447
106,15,0.5,0.125,-35.0,-1,1.0,0.5710000000000264
107,15,0.5,0.125,35.0,1,1.0,0.5882999999998901
108,15,0.5,0.0625,35.0,-1,0.0,0.4551000000000158
109,15,0.5,0.125,-35.0,-1,1.0,0.4254999999999427
110,15,0.5,0.25,-35.0,-1,1.0,0.3874000000000706
111,15,0.5,0.25,35.0,-1,0.0,2.6041999999999916
112,15,0.5,0.125,35.0,-1,0.0,1.193399999999997
113,15,0.5,0.0,-35.0,-1,1.0,0.9759999999999991
114,15,0.5,1.0,35.0,1,1.0,0.22860000000002856
115,15,0.5,0.0,35.0,-1,0.0,0.39410000000009404
116,15,0.2,0.0,35.0,-1,0.0,0.623299999999972
117,15,0.5,1.0,-35.0,-1,1.0,0.3976000000000113
118,15,0.5,0.125,35.0,-1,0.0,0.32589999999993324
119,15,0.5,0.25,35.0,-1,0.0,0.41860000000008313
120,15,0.5,0.0625,35.0,-1,0.0,0.5543999999999869
121,15,0.1,0.0625,35.0,-1,0.0,0.4075000000000273
122,15,0.5,1.0,35.0,-1,0.0,0.6076000000000477
123,15,0.5,0.0,-35.0,-1,1.0,1.1490999999999758
124,15,0.5,0.0625,-35.0,-1,1.0,4.617100000000164
125,15,0.5,0.25,35.0,-1,0.0,0.3947000000000571
126,15,0.5,0.0625,-35.0,-1,1.0,0.3530000000000655
127,15,0.5,0.125,35.0,1,1.0,0.5517000000000962
128,15,0.5,0.125,35.0,-1,0.0,0.3768999999999778
129,15,0.5,0.25,-35.0,-1,1.0,0.3165000000000191
130,15,0.5,0.125,-35.0,-1,1.0,7.221200000000067
131,15,0.5,0.0,-35.0,-1,1.0,2.578800000000001
132,15,0.5,0.0625,35.0,-1,0.0,4.1099999999999
133,15,0.5,0.25,-35.0,-1,1.0,9.345700000000079
134,15,0.5,0.125,-35.0,-1,1.0,0.7189999999999372
135,15,0.5,0.0,-35.0,1,0.0,0.7934000000000196
136,15,0.5,0.0,35.0,-1,0.0,0.41010000000005675
137,15,0.2,0.0,35.0,-1,0.0,3.714800000000082
138,15,0.5,1.0,35.0,1,1.0,0.23659999999995307
139,15,0.5,1.0,35.0,1,1.0,0.37609999999995125
140,15,0.5,0.25,-35.0,-1,1.0,1.192700000000059
141,15,0.5,0.125,35.0,1,1.0,0.29740000000003874
142,15,0.5,0.25,-35.0,-1,1.0,0.13419999999996435
143,15,0.5,0.0625,-35.0,-1,1.0,2.6310000000000855
144,15,0.5,1.0,35.0,1,1.0,3.9442000000000235
145,15,0.5,0.0,-35.0,-1,1.0,4.070299999999975
146,15,0.5,1.0,35.0,1,1.0,3.4262999999999693
147,15,0.5,0.0,-35.0,-1,1.0,3.8333999999999833
148,15,0.5,1.0,35.0,1,1.0,1.3129000000000133
149,15,0.5,0.0625,35.0,-1,0.0,0.34159999999997126
150,15,0.4,0.0625,-35.0,-1,1.0,0.33370000000002165
151,15,0.5,1.0,35.0,1,1.0,0.29330000000004475
152,15,0.5,0.125,-35.0,-1,1.0,1.9124000000000478
153,15,0.5,1.0,35.0,1,1.0,0.2764000000000806
154,15,0.5,0.25,-35.0,-1,1.0,0.33520000000009986
155,15,0.5,0.0625,-35.0,-1,1.0,0.41190000000005966
156,15,0.5,0.0625,35.0,-1,0.0,0.9455000000000382
157,15,0.5,0.0,-35.0,-1,1.0,2.2250999999999976
158,15,0.5,0.0,35.0,-1,0.0,3.314000000000078
159,15,0.5,0.0,35.0,-1,0.0,0.417699999999968
160,15,0.5,0.25,-35.0,-1,1.0,0.7964000000000624
161,15,0.5,0.25,-35.0,-1,1.0,0.2757000000000289
162,15,0.5,0.0625,35.0,-1,0.0,0.4014000000000806
163,15,0.5,0.125,35.0,-1,0.0,0.8233000000000175
164,15,0.5,0.0625,35.0,-1,0.0,0.3494999999999209
165,15,0.5,0.0625,-35.0,-1,1.0,0.35770000000002256
166,15,0.5,0.125,35.0,-1,0.0,1.64549999999997
167,15,0.5,0.0,-35.0,-1,1.0,2.5418999999999414
168,15,0.5,0.0,-35.0,-1,1.0,0.3022999999999456
169,15,0.5,1.0,-35.0,-1,1.0,0.2638999999999214
170,15,0.5,0.0625,-35.0,-1,1.0,0.3749000000000251
171,15,0.5,0.25,35.0,-1,0.0,4.584100000000035
172,15,0.5,0.0625,35.0,-1,0.0,0.3671999999999116
173,15,0.0,0.0625,35.0,-1,0.0,0.5567000000000917
174,15,0.5,1.0,35.0,1,1.0,0.42269999999996344
175,15,0.5,0.125,35.0,1,1.0,1.2623000000000957
176,15,0.5,0.125,35.0,-1,0.0,2.5773000000001502
177,15,0.5,0.0625,-35.0,-1,1.0,0.5842999999999847
178,15,0.5,0.0625,-35.0,-1,1.0,5.731300000000033
179,15,0.5,1.0,-35.0,-1,1.0,0.37829999999996744
180,15,0.5,0.0625,-35.0,-1,1.0,3.5926999999999225
181,15,0.5,1.0,-35.0,-1,1.0,0.3628000000001066
182,15,0.5,1.0,-35.0,-1,1.0,0.5079000000000633
183,15,0.5,0.125,-35.0,-1,1.0,0.6249000000000251
184,15,0.5,0.25,35.0,-1,0.0,2.7730000000001382
185,15,0.5,0.0,-35.0,-1,1.0,0.42430000000001655
186,15,0.5,0.0,35.0,-1,0.0,4.314299999999889
187,15,0.5,0.0625,-35.0,-1,1.0,0.3423999999999978
188,15,0.5,0.25,-35.0,-1,1.0,0.42039999999997235
189,15,0.5,0.125,-35.0,-1,1.0,5.641900000000078
190,15,0.5,1.0,35.0,1,1.0,0.23769999999990432
191,15,0.5,0.25,-35.0,-1,1.0,3.0919000000000096
192,15,0.5,0.0625,-35.0,-1,1.0,0.3250000000000455
193,15,0.5,0.25,-35.0,-1,1.0,0.48509999999998854
194,15,0.5,0.25,-35.0,-1,1.0,0.880800000000022
195,15,0.5,0.25,35.0,-1,0.0,4.315400000000068
196,15,0.5,0.125,-35.0,-1,1.0,0.3244999999999436
197,15,0.5,0.0,35.0,-1,0.0,0.5534999999999854
198,15,0.5,0.25,35.0,-1,0.0,5.124200000000087
199,15,0.5,0.125,35.0,1,1.0,0.2676999999999907
200,15,0.5,0.125,-35.0,-1,1.0,0.46249999999997726
201,15,0.5,1.0,-35.0,-1,1.0,0.33950000000004366
202,15,0.5,0.25,35.0,1,1.0,0.38399999999990087
203,15,0.5,1.0,35.0,1,1.0,0.26499999999998636
204,15,0.5,0.25,-35.0,-1,1.0,0.5360000000000582
205,15,0.5,0.0,35.0,-1,0.0,4.342499999999973
206,15,0.5,0.125,-35.0,-1,1.0,0.33989999999994325
207,15,0.5,0.25,-35.0,-1,1.0,4.6422999999999774
208,15,0.5,0.125,-35.0,-1,1.0,0.39350000000013097
209,15,0.5,0.0,35.0,-1,0.0,4.492899999999963
210,15,0.5,0.25,-35.0,-1,1.0,0.3187000000000353
211,15,0.5,0.125,-35.0,-1,1.0,0.34410000000002583
212,15,0.5,0.125,35.0,-1,0.0,0.9005999999999403
213,15,0.5,0.25,35.0,-1,0.0,1.0224000000000615
214,15,0.0,0.25,35.0,1,1.0,0.716899999999896
215,15,0.5,1.0,35.0,1,1.0,0.33950000000004366
216,15,0.5,0.25,35.0,-1,0.0,10.100499999999784
217,15,0.2,0.25,35.0,1,1.0,0.2660000000000764
218,15,0.5,1.0,35.0,1,1.0,0.2777000000000953
219,15,0.5,0.125,35.0,-1,0.0,0.6576000000000022
220,15,0.5,0.0625,35.0,-1,0.0,3.499900000000025
221,15,0.5,0.0625,-35.0,-1,1.0,0.3634999999999309
222,15,0.5,0.25,35.0,-1,0.0,0.3892000000000735
223,15,0.4,0.25,35.0,-1,0.0,5.2900999999999385
224,15,0.5,1.0,35.0,1,1.0,0.2052000000001044
225,15,0.5,0.0625,-35.0,-1,1.0,0.29690000000005057
226,15,0.5,0.125,-35.0,-1,1.0,3.1941000000001623
227,15,0.5,0.0625,-35.0,-1,1.0,0.41859999999974207
228,15,0.5,0.125,35.0,-1,0.0,5.7049999999997
229,15,0.5,0.0625,35.0,-1,0.0,0.4795999999998912
230,15,0.5,0.125,35.0,-1,0.0,0.39859999999998763
231,15,0.5,0.125,35.0,1,1.0,10.711000000000013
232,15,0.5,0.0625,-35.0,1,0.0,1.5510999999999058
233,15,0.5,0.0,-35.0,-1,1.0,0.2662000000000262
234,15,0.5,1.0,-35.0,-1,1.0,0.3250000000000455
235,15,0.5,0.125,35.0,-1,0.0,5.1814999999999145
236,15,0.5,0.25,35.0,-1,0.0,9.408500000000004
237,15,0.5,0.0625,-35.0,-1,1.0,0.3352999999999611
238,15,0.5,0.25,35.0,1,1.0,0.4335000000000946
239,15,0.5,1.0,-35.0,-1,1.0,1.237100000000055
240,15,0.5,0.125,35.0,-1,0.0,6.645400000000109
241,15,0.3,0.125,35.0,1,1.0,0.6636999999998352
242,15,0.5,1.0,35.0,1,1.0,0.26680000000010295
243,15,0.5,0.0,35.0,-1,0.0,6.816000000000031
244,15,0.5,0.125,35.0,-1,0.0,3.8799000000001342
245,15,0.5,0.0,-35.0,-1,1.0,3.532799999999952
246,15,0.5,0.125,-35.0,-1,1.0,0.901299999999992
247,15,0.5,0.0625,-35.0,-1,1.0,3.3110999999998967
248,15,0.5,1.0,35.0,1,1.0,0.9951000000000931
249,15,0.5,0.25,-35.0,-1,1.0,14.637900000000172
250,15,0.5,0.25,35.0,1,1.0,0.5907000000001972
251,15,0.5,0.0,35.0,-1,0.0,3.128300000000081
252,15,0.5,0.0,-35.0,-1,1.0,3.7360000000001037
253,15,0.5,0.0625,-35.0,-1,1.0,3.057800000000043
254,15,0.5,0.0,-35.0,1,0.0,2.9612999999999374
255,15,0.5,0.125,-35.0,-1,1.0,16.78930000000014
256,15,0.5,0.0625,-35.0,-1,1.0,0.4351000000001477
257,15,0.5,0.25,-35.0,-1,1.0,2.904499999999871
258,15,0.5,0.25,35.0,-1,0.0,0.45050000000014734
259,15,0.5,0.0625,-35.0,-1,1.0,0.3786000000000058
260,15,0.5,0.125,35.0,-1,0.0,7.606700000000046
261,15,0.5,0.0625,35.0,-1,0.0,0.41219999999998436
262,15,0.1,0.0625,35.0,-1,0.0,4.246499999999969
263,15,0.5,1.0,35.0,1,1.0,1.5920999999998457
264,15,0.5,1.0,35.0,-1,0.0,11.663999999999987
265,15,0.5,0.125,-35.0,-1,1.0,0.4374000000000251
266,15,0.5,1.0,35.0,-1,0.0,1.288000000000011
267,15,0.5,0.0625,35.0,1,1.0,14.00019999999995
268,15,0.5,0.125,-35.0,1,0.0,13.444499999999834
269,15,0.5,0.0625,35.0,1,1.0,8.144999999999982
270,15,0.5,0.0,-35.0,1,0.0,2.005400000000236
271,15,0.5,0.0,-35.0,1,0.0,14.010999999999967
272,15,0.5,1.0,35.0,1,1.0,0.2880999999999858
273,15,0.5,0.0625,-35.0,1,0.0,5.188200000000052
274,15,0.7,0.0625,35.0,1,1.0,6.782100000000128
275,15,0.5,1.0,-35.0,-1,1.0,3.093800000000101
276,15,0.5,0.25,35.0,1,1.0,2.492100000000164
277,15,0.5,1.0,35.0,1,1.0,0.13209899999992558
278,15,0.5,0.0625,35.0,1,1.0,2.2391999999999825
279,15,0.5,0.0625,35.0,1,1.0,0.20470000000000255
280,15,0.5,0.0625,-35.0,1,0.0,4.659099999999853
281,15,0.5,0.125,35.0,1,1.0,3.047399999999925
282,15,0.5,0.25,35.0,1,1.0,1.927699999999959
283,15,0.5,0.0625,35.0,1,1.0,33.01990000000001
284,15,0.5,0.125,35.0,1,1.0,5.9763000000000375
285,15,0.5,0.0,-0.0,0,0.0,60.03289999999993
286,15,0.5,0.0625,35.0,1,1.0,8.561400000000049
287,15,0.5,0.125,-35.0,-1,1.0,3.654299999999921
288,15,0.5,0.0625,35.0,-1,0.0,0.531099999999924
289,15,0.5,0.25,35.0,-1,0.0,0.41770000000019536
290,15,0.5,0.125,-35.0,1,0.0,2.3601999999998498
291,15,0.5,0.25,-35.0,-1,1.0,11.35979999999995
292,15,0.5,0.0625,-35.0,-1,1.0,5.953100000000177
293,15,0.5,0.0625,-35.0,-1,1.0,3.1847000000000207
294,15,0.5,0.0625,35.0,-1,0.0,3.3471000000001823
295,15,0.5,0.25,-35.0,1,0.0,19.333899999999858
296,15,0.5,0.125,-35.0,1,0.0,3.9774999999999636
297,15,0.5,0.25,35.0,1,1.0,5.059399999999869
298,15,0.5,0.0625,-35.0,1,0.0,6.732099999999946
299,15,0.5,0.125,-35.0,1,0.0,4.158100000000104
300,15,0.5,0.25,35.0,1,1.0,0.2718999999999596
301,15,0.5,0.0625,-35.0,1,0.0,8.628400000000056
302,15,0.7,0.0625,35.0,1,1.0,16.085400000000163
303,15,0.5,1.0,-35.0,-1,1.0,5.190700000000106
304,15,0.5,0.0,35.0,1,1.0,4.5827999999999065
305,15,0.5,0.0625,35.0,1,1.0,4.376199999999926
306,15,0.5,0.0,35.0,1,1.0,7.206300000000056
307,15,0.5,0.25,35.0,-1,0.0,1.0523000000000593
308,15,0.5,0.0625,35.0,1,1.0,7.34030000000007
309,15,0.5,0.25,-35.0,1,0.0,14.761700000000019
310,15,0.5,0.125,-35.0,-1,1.0,0.39850000000001273
311,15,0.5,0.0,35.0,-1,0.0,4.433300000000145
312,15,0.5,0.25,35.0,1,1.0,16.47070000000008
313,15,0.5,0.0,-35.0,1,0.0,6.768900000000031
314,15,0.7,0.0,35.0,1,1.0,5.7047999999999774
315,15,0.5,1.0,-35.0,-1,1.0,0.5815999999999804
316,15,0.5,0.0625,35.0,-1,0.0,7.928300000000036
317,15,0.5,0.0625,-35.0,1,0.0,5.018600000000106
318,15,0.5,1.0,-35.0,-1,1.0,0.4055000000000746
319,15,0.5,0.125,35.0,1,1.0,8.848999999999933
320,15,0.5,0.0625,-35.0,1,0.0,8.29139999999984
321,15,0.5,0.25,-35.0,1,0.0,12.717000000000098
322,15,0.5,0.25,35.0,1,1.0,9.339899999999943
323,15,0.5,0.125,35.0,1,1.0,3.0210000000001855
324,15,0.5,1.0,35.0,1,1.0,0.8426999999999225
325,15,0.5,0.125,35.0,1,1.0,5.826999999999998
326,15,0.5,0.25,35.0,1,1.0,10.439600000000155
327,15,0.5,0.125,-35.0,1,0.0,4.79079999999999
328,15,0.5,0.0,-35.0,1,0.0,15.75220000000013
329,15,0.5,0.125,35.0,1,1.0,6.0456000000001495
330,15,0.5,0.25,-35.0,1,0.0,4.001899999999978
331,15,1.0,0.25,-35.0,1,0.0,3.6523000000001957
332,15,0.5,1.0,-35.0,1,0.0,10.068899999999758
333,15,1.0,1.0,-35.0,1,0.0,3.6799999999998363
334,15,1.0,1.0,-35.0,1,0.0,8.122600000000148
335,15,1.0,1.0,-35.0,1,0.0,7.07950000000028
336,15,1.0,1.0,35.0,1,1.0,0.22380000000021028
337,15,0.5,1.0,-35.0,1,0.0,5.307800000000043
338,15,0.5,0.0,35.0,1,1.0,1.9234999999998763
339,15,0.5,0.0625,-35.0,1,0.0,8.7192
340,15,0.5,0.0,35.0,1,1.0,2.167199999999866
341,15,0.5,0.25,-35.0,1,0.0,3.9970000000002983
342,15,0.5,0.125,35.0,1,1.0,0.6129000000005362
343,15,0.5,1.0,35.0,1,1.0,1.640599999999722
344,15,0.5,0.25,35.0,1,1.0,8.96730000000025
345,15,0.5,0.25,35.0,1,1.0,7.152900000000045
346,15,0.5,0.0625,-35.0,1,0.0,6.6479999999996835
347,15,1.0,0.0625,-35.0,1,0.0,6.445700000000215
348,15,0.5,1.0,-35.0,1,0.0,6.775199999999586
349,15,1.0,1.0,-35.0,1,0.0,2.2521999999999025
350,15,1.0,1.0,35.0,1,1.0,0.20560000000023138
351,15,0.5,1.0,-35.0,1,0.0,11.760199999999713
352,15,0.5,0.0,35.0,1,1.0,5.214300000000094
353,15,0.5,0.0625,35.0,1,1.0,11.23869999999988
354,15,0.5,1.0,-35.0,1,0.0,11.913300000000163
355,15,1.0,1.0,35.0,1,1.0,11.347999999999956
356,15,0.5,1.0,-35.0,1,0.0,4.8121000000001
357,15,0.5,0.0,35.0,1,1.0,0.3951999999999316
358,15,0.5,0.0625,35.0,1,1.0,3.4675999999999476
359,15,0.5,1.0,-35.0,1,0.0,1.6945000000000618
360,15,0.5,0.125,-35.0,1,0.0,4.860099999999875
361,15,1.0,0.125,-35.0,1,0.0,7.3697000000001935
362,15,0.5,1.0,-35.0,1,0.0,0.33829999999989013
363,15,0.5,0.0625,35.0,1,1.0,2.92470000000003
364,15,0.5,0.25,-35.0,1,0.0,0.2861000000002605
365,15,0.5,0.25,-35.0,1,0.0,2.0127000000002226
366,15,1.0,0.25,35.0,1,1.0,9.155099999999948
367,15,0.5,1.0,-35.0,1,0.0,6.505699999999706
368,15,0.5,0.0,35.0,-1,0.0,0.4837000000002263
369,15,0.5,0.125,35.0,1,1.0,6.439100000000053
370,15,0.5,1.0,35.0,1,1.0,5.143500000000131
371,15,0.5,0.25,35.0,1,1.0,13.377599999999802
372,15,0.5,0.25,35.0,1,1.0,4.787700000000314
373,15,0.5,0.0,-35.0,1,0.0,1.352100000000064
374,15,0.9,0.0,-35.0,1,0.0,5.172500000000127
375,15,0.5,1.0,-35.0,1,0.0,5.219500000000153
376,15,0.5,0.25,-35.0,1,0.0,8.79379999999992
377,15,0.5,0.125,-35.0,1,0.0,2.297599999999875
378,15,0.9,0.125,-35.0,1,0.0,10.115200000000186
379,15,0.5,1.0,-35.0,1,0.0,12.647899999999936
380,15,0.5,0.0,35.0,1,1.0,5.481600000000071
381,15,0.5,1.0,35.0,1,1.0,10.863200000000234
382,15,0.5,0.25,35.0,1,1.0,11.171400000000176
383,15,0.5,0.125,-35.0,1,0.0,9.882700000000114
384,15,0.5,0.25,35.0,1,1.0,5.961199999999735
385,15,0.5,0.25,35.0,1,1.0,8.121200000000044
386,15,0.5,0.0625,-35.0,1,0.0,8.696100000000115
387,15,0.5,0.0,-35.0,1,0.0,4.4646999999999935
388,15,1.0,0.0,-35.0,1,0.0,
389,15,0.5,1.0,-35.0,1,0.0,6.6515000000003965
390,15,0.5,0.25,-35.0,1,0.0,2.124300000000403
391,15,0.5,0.0625,35.0,1,1.0,11.957499999999982
392,15,0.5,1.0,35.0,1,1.0,10.676100000000133
393,15,0.5,0.0,35.0,1,1.0,4.253099999999904
394,15,0.5,0.125,35.0,1,1.0,7.7672999999999774
395,15,0.5,0.0625,-35.0,1,0.0,4.078600000000279
396,15,1.0,0.0625,-35.0,1,0.0,2.833099999999831
397,15,0.5,1.0,-35.0,1,0.0,0.9367000000002008
398,15,0.5,0.125,-35.0,1,0.0,3.702400000000125
399,15,0.5,0.125,35.0,1,1.0,0.2690999999995256
400,15,0.5,0.25,-35.0,1,0.0,6.232800000000225
401,15,0.5,0.25,35.0,1,1.0,3.832900000000336
402,15,0.5,0.0625,-35.0,1,0.0,2.4546000000004824
403,15,0.5,0.0,35.0,1,1.0,3.0681000000004133
404,15,0.5,0.0625,35.0,1,1.0,1.3467000000000553
405,15,0.5,1.0,-35.0,1,0.0,7.785000000000309
406,15,0.5,0.25,-35.0,1,0.0,1.7836999999999534
407,15,0.5,0.0,-35.0,1,0.0,2.3840000000000146
408,15,0.5,0.0625,-35.0,1,0.0,0.3216999999995096
409,15,0.5,0.0,35.0,1,1.0,1.9773000000004686
410,15,0.5,1.0,35.0,1,1.0,8.442000000000007
411,15,0.5,0.0,35.0,1,1.0,6.131199999999808
412,15,0.5,0.25,35.0,1,1.0,6.961500000000342
413,15,0.5,0.0,-35.0,1,0.0,0.5248999999998887
414,15,0.5,0.0625,35.0,1,1.0,2.279899999999998
415,15,0.5,0.0625,35.0,1,1.0,0.2496000000001004
416,15,0.5,0.0625,35.0,1,1.0,0.209400000000187
417,15,0.5,0.0625,-35.0,1,0.0,10.455399999999827
418,15,1.0,0.0625,35.0,1,1.0,3.4570000000003347
419,15,0.5,1.0,-35.0,1,0.0,8.501500000000306
420,15,0.5,0.0625,35.0,1,1.0,6.290300000000116
421,15,0.5,0.125,35.0,-1,0.0,5.439300000000003
422,15,0.5,0.125,-35.0,1,0.0,0.183100000000195
423,15,0.5,0.125,35.0,1,1.0,10.50649999999996
424,15,0.5,1.0,-35.0,1,0.0,7.485999999999876
425,15,0.5,0.0,35.0,1,1.0,4.817199999999957
426,15,0.5,0.25,35.0,1,1.0,1.8855000000003201
427,15,0.5,1.0,35.0,1,1.0,5.799099999999726
428,15,0.5,0.0625,-35.0,1,0.0,4.463999999999942
429,15,0.9,0.0625,-35.0,1,0.0,7.49310000000014
430,15,0.5,1.0,-35.0,1,0.0,7.531199999999899
431,15,0.9,1.0,-35.0,1,0.0,5.58640000000014
432,15,1.0,1.0,-35.0,1,0.0,13.076199999999972
433,15,1.0,1.0,-35.0,1,0.0,1.1057000000000698
434,15,1.0,1.0,35.0,1,1.0,0.233600000000024
435,15,0.5,1.0,-35.0,1,0.0,7.7804000000001
436,15,0.5,0.0,35.0,1,1.0,6.824200000000019
437,15,0.5,1.0,-35.0,1,0.0,3.3327000000003864
438,15,1.0,1.0,35.0,1,1.0,4.856099999999969
439,15,0.5,1.0,-35.0,1,0.0,5.300199999999677
440,15,0.5,0.0625,-35.0,1,0.0,8.754300000000057
441,15,0.5,0.25,-35.0,1,0.0,11.727100000000064
442,15,0.5,0.125,-35.0,1,0.0,7.6973000000002685
443,15,0.5,0.125,-35.0,1,0.0,0.5729000000001179
444,15,1.0,0.125,35.0,1,1.0,1.2309000000000196
445,15,0.5,1.0,-35.0,1,0.0,3.751499999999851
446,15,0.5,0.0625,-35.0,1,0.0,1.9981999999995423
447,15,1.0,0.0625,-35.0,1,0.0,0.5974999999998545
448,15,0.5,1.0,-35.0,1,0.0,0.2618999999999687
449,15,0.5,0.125,-35.0,1,0.0,2.776299999999992
450,15,0.5,0.25,-35.0,1,0.0,12.815399999999954
451,15,0.5,0.125,35.0,1,1.0,2.02350000000024
452,15,0.5,0.25,35.0,1,1.0,1.94820000000027
453,15,0.5,0.0625,35.0,1,1.0,0.26579999999967185
454,15,0.5,0.25,35.0,1,1.0,9.984899999999925
455,15,0.5,0.0,-35.0,1,0.0,0.1560999999996966
456,15,0.5,0.125,35.0,1,1.0,9.766200000000026
457,15,0.5,0.0625,-35.0,1,0.0,4.364599999999882
458,15,0.5,0.0625,35.0,1,1.0,0.8869000000004235
459,15,0.5,0.25,-35.0,1,0.0,2.1789999999996326
460,15,0.5,0.125,-35.0,1,0.0,1.650300000000243
461,15,1.0,0.125,-35.0,1,0.0,3.767199999999775
462,15,0.5,1.0,-35.0,1,0.0,3.247299999999541
463,15,0.5,0.25,-35.0,-1,1.0,14.259399999999914
464,15,0.5,0.125,-35.0,1,0.0,36.68110000000024
465,15,0.5,0.125,35.0,1,1.0,9.545799999999872
466,15,0.5,0.0625,35.0,1,1.0,4.779500000000098
467,15,0.5,1.0,-35.0,1,0.0,0.543800000000374
468,15,0.5,0.0625,35.0,1,1.0,0.25300000000015643
469,15,0.5,0.0625,-35.0,1,0.0,1.5361000000002605
470,15,0.5,0.0,35.0,1,1.0,4.286499999999705
471,15,0.5,0.25,35.0,1,1.0,3.58199999999988
472,15,0.5,1.0,-35.0,1,0.0,0.5795000000002801
473,15,0.5,0.25,35.0,1,1.0,21.54720000000043
474,15,0.5,0.0,35.0,1,1.0,3.478599999999915
475,15,0.5,0.25,-35.0,1,0.0,2.0529999999998836
476,15,1.0,0.25,-35.0,1,0.0,11.489301000000069
477,15,0.5,1.0,-35.0,1,0.0,4.935701000000336
478,15,0.5,0.0,35.0,1,1.0,6.225100999999995
479,15,0.5,0.25,-35.0,1,0.0,2.268101000000115
480,15,0.5,0.0,35.0,1,1.0,0.233400999999958
481,15,0.5,0.25,-35.0,1,0.0,0.5341010000001916
482,15,0.5,0.0625,35.0,1,1.0,4.998801000000185
483,15,0.5,0.125,-35.0,1,0.0,7.034000999999989
484,15,0.5,0.125,35.0,1,1.0,0.33470100000022285
485,15,0.5,0.25,-35.0,1,0.0,4.369400999999925
486,15,1.0,0.25,-35.0,1,0.0,1.5263009999998758
487,15,0.5,1.0,-35.0,1,0.0,0.4079009999995833
488,15,0.5,0.125,35.0,1,1.0,0.23150099999975282
489,15,0.5,0.25,35.0,-1,0.0,0.7481010000001334
490,15,0.5,0.0625,-35.0,1,0.0,4.478400999999849
491,15,0.5,0.125,35.0,1,1.0,11.549901000000318
492,15,0.5,0.0625,-35.0,1,0.0,1.7301010000001042
493,15,0.9,0.0625,-35.0,1,0.0,3.3857010000001537
494,15,0.5,1.0,-35.0,1,0.0,5.4075010000001384
495,15,0.5,0.25,35.0,1,1.0,2.9984009999998307
496,15,0.5,0.25,-35.0,1,0.0,3.531101000000035
497,15,0.5,0.0625,35.0,1,1.0,4.327701000000161
498,15,0.5,0.0625,35.0,1,1.0,0.27060100000016973
499,15,0.5,1.0,35.0,1,1.0,3.406601000000137
500,15,0.5,0.125,-35.0,1,0.0,4.181700000000092
501,15,0.5,0.125,-35.0,1,0.0,4.456301000000167
502,15,0.5,0.25,-35.0,1,0.0,5.958800999999767
503,15,0.5,0.125,-35.0,1,0.0,1.4090009999999893
504,15,0.5,0.0625,35.0,1,1.0,2.3956010000001697
505,15,0.5,0.125,-35.0,1,0.0,2.9989010000003873
506,15,0.5,0.125,35.0,1,1.0,6.797400999999809
507,15,0.5,0.125,-35.0,1,0.0,3.9325010000002294
508,15,1.0,0.125,-35.0,1,0.0,0.11610100000007151
509,15,0.5,1.0,-35.0,1,0.0,2.1794009999998707
510,15,0.5,0.0625,35.0,1,1.0,6.698401000000558
511,15,0.5,0.0625,35.0,1,1.0,11.060100999999577
512,15,0.5,0.0,35.0,1,1.0,4.8135010000000875
513,15,0.5,0.125,-35.0,1,0.0,0.573500999999851
514,15,0.5,0.25,35.0,1,1.0,2.8007009999996626
1,16,0.5,0.125,-35.0,-1,1.0,25.9592
2,16,0.5,0.25,-35.0,-1,1.0,18.939099999999996
3,16,0.5,1.0,-35.0,-1,1.0,1.6167999999999978
4,16,0.5,0.0,35.0,-1,0.0,0.7370000000000019
5,16,0.5,0.125,-35.0,-1,1.0,1.3830000000000098
6,16,0.5,0.25,-35.0,-1,1.0,0.6889000000000038
7,16,0.5,0.125,35.0,-1,0.0,0.7971000000000004
8,16,0.3,0.125,35.0,-1,0.0,8.007499999999993
9,16,0.5,1.0,35.0,1,1.0,0.3813999999999993
10,16,0.5,0.0625,35.0,-1,0.0,10.942099999999996
11,16,0.5,0.25,-35.0,-1,1.0,5.554400000000015
12,16,0.5,0.125,-35.0,-1,1.0,9.601000000000013
13,16,0.5,0.125,-35.0,-1,1.0,0.5760999999999967
14,16,0.5,0.125,35.0,-1,0.0,2.4582000000000193
15,16,0.1,0.125,-35.0,-1,1.0,0.4049999999999727
16,16,0.5,1.0,35.0,1,1.0,0.3760000000000048
17,16,0.5,0.125,35.0,-1,0.0,12.745999999999981
18,16,0.5,0.125,-35.0,-1,1.0,6.75479999999996
19,16,0.5,0.25,-35.0,-1,1.0,10.70429999999999
20,16,0.5,0.0625,-35.0,-1,1.0,1.2360999999999933
21,16,0.5,1.0,-35.0,-1,1.0,1.2590999999999894
22,16,0.5,0.0625,35.0,-1,0.0,19.57159999999999
23,16,0.1,0.0625,35.0,1,1.0,20.0805
24,16,0.5,1.0,35.0,1,1.0,1.5452999999999975
25,16,0.5,1.0,-35.0,-1,1.0,0.6495999999999924
26,16,0.5,0.0625,-35.0,-1,1.0,1.2101999999999862
27,16,0.5,0.125,35.0,-1,0.0,0.5415999999999599
28,16,0.5,0.0625,-35.0,-1,1.0,0.4211999999999989
29,16,0.5,0.25,35.0,1,1.0,1.1439000000000021
30,16,0.5,1.0,35.0,1,1.0,0.28920000000005075
31,16,0.5,0.125,35.0,1,1.0,0.34660000000002356
32,16,0.5,0.25,35.0,1,1.0,0.25660000000004857
33,16,0.5,0.0,35.0,-1,0.0,3.0557000000000016
34,16,0.5,0.0625,35.0,1,1.0,0.328200000000038
35,16,0.5,0.25,35.0,1,1.0,0.3270999999999731
36,16,0.5,0.25,35.0,1,1.0,0.34309999999999263
37,16,0.5,0.0625,-35.0,-1,1.0,2.0722000000000094
38,16,0.5,0.0625,35.0,1,1.0,0.37590000000000146
39,16,0.5,0.0625,35.0,1,1.0,0.3935999999999922
40,16,0.5,1.0,35.0,1,1.0,0.2541999999999689
41,16,0.5,0.125,35.0,1,1.0,0.37320000000005393
42,16,0.5,0.125,35.0,-1,0.0,0.25420000000002574
43,16,0.5,0.0625,-35.0,-1,1.0,0.3894000000000801
44,16,0.5,0.0625,-35.0,1,0.0,0.32560000000000855
45,16,0.5,0.0625,35.0,1,1.0,0.3064000000000533
46,16,0.5,1.0,-35.0,-1,1.0,0.40140000000002374
47,16,0.5,1.0,35.0,1,1.0,0.463799999999992
48,16,0.5,0.0625,35.0,-1,0.0,2.4996999999999616
49,16,0.5,0.0625,-35.0,-1,1.0,0.33430000000004156
50,16,0.5,0.25,-35.0,-1,1.0,0.48970000000002756
51,16,0.5,1.0,35.0,1,1.0,0.2835000000000605
52,16,0.5,0.0,-35.0,-1,1.0,0.3001000000000431
53,16,0.5,1.0,-35.0,-1,1.0,0.2779000000000451
54,16,0.5,0.125,35.0,1,1.0,0.2727999999999611
55,16,0.5,0.0625,-35.0,-1,1.0,0.4913999999999987
56,16,0.5,0.125,-35.0,-1,1.0,0.36119999999999663
57,16,0.5,0.0,35.0,-1,0.0,0.4866999999999848
58,16,0.2,0.0,35.0,-1,0.0,3.8038999999999987
59,16,0.5,1.0,35.0,1,1.0,0.5962000000000103
60,16,0.5,1.0,35.0,-1,0.0,5.073900000000037
61,16,0.5,0.0625,35.0,-1,0.0,0.141900000000021
62,16,0.2,0.0625,35.0,1,1.0,0.31100000000003547
63,16,0.5,1.0,35.0,1,1.0,0.2826000000000022
64,16,0.5,0.125,35.0,1,1.0,1.2403999999999655
65,16,0.5,0.0625,-35.0,-1,1.0,0.11510000000004084
66,16,0.5,0.125,35.0,-1,0.0,4.7113990000000285
67,16,0.4,0.125,35.0,-1,0.0,0.4270000000000209
68,16,0.5,1.0,35.0,1,1.0,2.3572000000000344
69,16,0.5,0.25,35.0,-1,0.0,4.3764000000000465
70,16,0.5,0.0625,-35.0,-1,1.0,0.3845999999999776
71,16,0.5,0.25,-35.0,-1,1.0,0.6859000000000037
72,16,0.5,1.0,-35.0,-1,1.0,0.41250000000002274
73,16,0.5,0.25,35.0,-1,0.0,0.4304000000000201
74,16,0.2,0.25,35.0,-1,0.0,0.398900000000026
75,16,0.5,1.0,35.0,1,1.0,0.24350000000004002
76,16,0.5,0.0625,35.0,1,1.0,4.1562000000000126
77,16,0.5,0.25,35.0,1,1.0,0.32670000000001664
78,16,0.5,0.0625,-35.0,-1,1.0,0.2416000000000622
79,16,0.5,0.0625,-35.0,-1,1.0,0.4035000000000082
80,16,0.5,0.0,35.0,-1,0.0,0.43880000000001473
81,16,0.5,0.125,35.0,1,1.0,0.39740000000000464
82,16,0.5,0.125,-35.0,-1,1.0,0.35149999999998727
83,16,0.5,1.0,-35.0,-1,1.0,0.23250000000001592
84,16,0.5,0.25,35.0,1,1.0,0.47919999999999163
85,16,0.5,0.25,35.0,1,1.0,0.4037999999999897
86,16,0.5,0.0625,-35.0,-1,1.0,0.2654000000000565
87,16,0.5,0.125,-35.0,-1,1.0,0.33899999999999864
88,16,0.5,1.0,-35.0,-1,1.0,0.34080000000000155
89,16,0.5,0.0625,-35.0,-1,1.0,0.46050000000002456
90,16,0.5,0.0,-35.0,-1,1.0,3.458500000000015
91,16,0.5,0.125,-35.0,-1,1.0,0.4148000000000138
92,16,0.5,0.125,-35.0,-1,1.0,0.25830000000001974
93,16,0.5,1.0,-35.0,-1,1.0,0.26670000000001437
94,16,0.5,1.0,-35.0,-1,1.0,0.6468999999999596
95,16,0.5,0.25,35.0,1,1.0,0.6451999999999316
96,16,0.5,0.0625,35.0,-1,0.0,0.3003999999998541
97,16,0.5,0.125,-35.0,-1,1.0,0.3453999999999269
98,16,0.5,0.0625,35.0,1,1.0,0.5550000000000637
99,16,0.5,0.0625,-35.0,-1,1.0,0.5930999999999358
100,16,0.5,0.0,35.0,-1,0.0,1.0575999999998658
101,16,0.5,0.125,35.0,-1,0.0,0.3342000000000098
102,16,0.5,0.25,35.0,1,1.0,0.2479999999999336
103,16,0.5,0.0,-35.0,-1,1.0,0.5251999999999271
104,16,0.5,1.0,-35.0,-1,1.0,0.3048000000000002
105,16,0.5,0.0625,35.0,-1,0.0,4.080500000000029
106,16,0.5,0.0625,35.0,-1,0.0,2.759900000000016
107,16,0.5,0.125,-35.0,1,0.0,0.12630000000001473
108,16,0.5,0.0,35.0,-1,0.0,2.634400000000028
109,16,0.5,0.0625,-35.0,-1,1.0,0.3591999999999871
110,16,0.5,0.25,-35.0,-1,1.0,0.9688999999999623
111,16,0.5,0.0,-35.0,-1,1.0,2.2953999999998587
112,16,0.5,0.125,35.0,-1,0.0,0.4399999999998272
113,16,0.5,0.0625,35.0,-1,0.0,0.365099999999984
114,16,0.5,0.0625,35.0,-1,0.0,0.21339999999986503
115,16,0.5,0.0625,35.0,1,1.0,1.0183999999999287
116,16,0.5,0.0,-35.0,-1,1.0,1.4218000000000757
117,16,0.5,1.0,-35.0,-1,1.0,0.13970000000006166
118,16,0.5,0.25,-35.0,-1,1.0,0.3405999999999949
119,16,0.5,0.0625,35.0,-1,0.0,3.8760999999999513
120,16,0.1,0.0625,35.0,1,1.0,0.6002999999999474
121,16,0.5,1.0,35.0,1,1.0,0.8449000000000524
122,16,0.5,0.125,35.0,1,1.0,0.4354000000000724
123,16,0.5,0.0,35.0,-1,0.0,2.3203999999999496
124,16,0.5,0.0,35.0,1,1.0,6.852899999999863
125,16,0.5,0.25,-35.0,-1,1.0,19.753999999999905
126,16,0.5,0.125,35.0,1,1.0,10.390700000000038
127,16,0.5,0.0625,35.0,-1,0.0,0.572400000000016
128,16,0.5,0.0625,-35.0,-1,1.0,5.037999999999897
129,16,0.5,1.0,-35.0,-1,1.0,0.30169999999986885
130,16,0.5,0.25,35.0,-1,0.0,6.351399999999899
131,16,0.4,0.25,35.0,1,1.0,0.43479999999999563
132,16,0.5,1.0,-35.0,-1,1.0,0.36779999999998836
133,16,0.5,0.0625,35.0,-1,0.0,0.547800000000052
134,16,0.5,0.0625,-35.0,-1,1.0,0.26670000000001437
135,16,0.5,0.0,-35.0,-1,1.0,2.10329999999999
136,16,0.5,0.0,35.0,-1,0.0,0.36979999999994106
137,16,0.5,0.0,35.0,-1,0.0,0.31539999999995416
138,16,0.5,0.125,35.0,-1,0.0,0.46550000000002
139,16,0.5,0.25,-35.0,-1,1.0,0.4336999999999307
140,16,0.5,0.0,35.0,-1,0.0,0.3595999999998867
141,16,0.5,0.0,35.0,-1,0.0,0.34760000000005675
142,16,0.5,0.25,35.0,1,1.0,0.28349999999988995
143,16,0.5,0.0625,35.0,-1,0.0,5.92960000000005
144,16,0.5,0.25,-35.0,-1,1.0,0.278699999999958
145,16,0.5,0.0,35.0,-1,0.0,2.9138000000000375
146,16,0.5,0.125,-35.0,-1,1.0,0.36820000000000164
147,16,0.5,0.125,35.0,1,1.0,2.0211000000000467
148,16,0.5,1.0,35.0,1,1.0,0.6179999999999382
149,16,0.5,0.0625,35.0,-1,0.0,0.6342999999999392
150,16,0.5,0.125,-35.0,-1,1.0,
151,16,0.5,0.125,-35.0,-1,1.0,0.2898999999999887
152,16,0.5,0.125,35.0,-1,0.0,0.47469999999998436
153,16,0.5,0.125,35.0,-1,0.0,0.37649999999996453
154,16,0.5,0.0625,-35.0,-1,1.0,0.37789999999995416
155,16,0.5,0.0625,35.0,-1,0.0,4.0452000000000226
156,16,0.5,0.125,35.0,-1,0.0,0.8728999999999587
157,16,0.5,0.0625,35.0,-1,0.0,0.47670000000005075
158,16,0.5,0.25,35.0,1,1.0,0.6436999999999671
159,16,0.5,0.25,35.0,1,1.0,0.3169000000000324
160,16,0.5,0.0,35.0,-1,0.0,0.3527999999998883
161,16,0.5,0.0625,-35.0,-1,1.0,4.699700000000007
162,16,0.5,0.0,-35.0,-1,1.0,3.8794999999998936
163,16,0.5,0.125,35.0,1,1.0,0.21109999999998763
164,16,0.5,1.0,-35.0,-1,1.0,0.42399999999997817
165,16,0.5,0.125,35.0,-1,0.0,0.43869999999992615
166,16,0.5,0.0,35.0,-1,0.0,0.30359999999996035
167,16,0.5,0.25,35.0,-1,0.0,0.4259999999998172
168,16,0.5,0.0,35.0,-1,0.0,0.2890999999998485
169,16,0.5,0.0,-35.0,-1,1.0,0.3128999999998996
170,16,0.5,0.125,35.0,-1,0.0,1.2345000000000255
171,16,0.1,0.125,35.0,1,1.0,3.83179999999993
172,16,0.5,1.0,35.0,1,1.0,0.3412999999999329
173,16,0.5,0.0625,35.0,-1,0.0,0.34019999999998163
174,16,0.2,0.0625,-35.0,-1,1.0,6.420700000000011
175,16,0.5,1.0,35.0,1,1.0,1.6902999999999793
176,16,0.5,0.0625,-35.0,-1,1.0,7.5803999999999405
177,16,0.5,0.0625,35.0,-1,0.0,2.6562999999999874
178,16,0.5,0.25,35.0,1,1.0,0.29909999999995307
179,16,0.5,0.125,35.0,-1,0.0,0.3668999999999869
180,16,0.4,0.125,35.0,1,1.0,0.6533000000000584
181,16,0.5,1.0,35.0,1,1.0,0.32540000000005875
182,16,0.5,0.125,35.0,-1,0.0,0.3966000000000349
183,16,0.5,0.0625,-35.0,-1,1.0,0.3125999999999749
184,16,0.5,0.125,35.0,1,1.0,2.912399999999934
185,16,0.5,0.0,35.0,-1,0.0,0.4555999999998903
186,16,0.5,0.25,35.0,1,1.0,0.3081999999999425
187,16,0.5,0.0625,-35.0,-1,1.0,15.095199999999977
188,16,0.5,0.125,35.0,1,1.0,0.5603999999999587
189,16,0.5,1.0,35.0,1,1.0,0.5553999999998496
190,16,0.5,0.25,-35.0,-1,1.0,3.466999999999871
191,16,0.5,1.0,35.0,1,1.0,0.2499000000000251
192,16,0.5,0.0625,-35.0,-1,1.0,0.3987999999999374
193,16,0.5,0.125,-35.0,-1,1.0,0.2644999999999982
194,16,0.5,0.0625,35.0,-1,0.0,3.1813000000000784
195,16,0.5,0.0625,35.0,-1,0.0,0.418700000000058
196,16,0.4,0.0625,-35.0,-1,1.0,0.3483999999999696
197,16,0.5,1.0,35.0,1,1.0,0.605199999999968
198,16,0.5,0.0625,35.0,-1,0.0,2.2656999999999243
199,16,0.5,0.25,-35.0,-1,1.0,0.3182000000001608
200,16,0.5,0.0625,-35.0,-1,1.0,0.375
201,16,0.5,1.0,-35.0,-1,1.0,0.2518999999999778
202,16,0.5,0.25,-35.0,-1,1.0,0.19530000000031578
203,16,0.5,0.25,35.0,-1,0.0,4.608600000000251
204,16,0.5,0.125,35.0,1,1.0,0.696100000000115
205,16,0.5,0.0,35.0,-1,0.0,0.5593000000001211
206,16,0.5,0.0,35.0,-1,0.0,0.29899999999997817
207,16,0.5,0.0625,35.0,1,1.0,0.8725999999999203
208,16,0.5,1.0,35.0,1,1.0,0.7489000000002761
209,16,0.5,0.0625,35.0,-1,0.0,0.35960000000000036
210,16,0.5,0.125,-35.0,-1,1.0,0.3027999999999338
211,16,0.5,0.25,35.0,1,1.0,1.2498000000000502
212,16,0.5,0.25,35.0,1,1.0,0.536200000000008
213,16,0.5,0.25,-35.0,-1,1.0,5.0762999999999465
214,16,0.5,0.0625,35.0,-1,0.0,0.41650000000004184
215,16,0.4,0.0625,-35.0,-1,1.0,0.27640000000019427
216,16,0.5,1.0,35.0,1,1.0,0.40660000000002583
217,16,0.5,0.0625,35.0,-1,0.0,4.890800000000127
218,16,0.5,0.125,-35.0,-1,1.0,0.3867000000000189
219,16,0.5,0.25,-35.0,-1,1.0,0.426600000000235
220,16,0.5,1.0,35.0,1,1.0,2.44380000000001
221,16,0.5,1.0,-35.0,-1,1.0,0.2669999999998254
222,16,0.5,0.25,-35.0,-1,1.0,0.3672999999998865
223,16,0.5,1.0,35.0,1,1.0,0.32399999999984175
224,16,0.5,0.125,35.0,-1,0.0,0.10390000000006694
225,16,0.5,0.0625,35.0,-1,0.0,0.42430000000013024
226,16,0.3,0.0625,35.0,1,1.0,4.140600000000177
227,16,0.5,1.0,-35.0,-1,1.0,4.597600000000057
228,16,0.5,0.25,35.0,-1,0.0,1.2222999999999047
229,16,0.5,0.125,35.0,-1,0.0,4.3677000000000135
230,16,0.3,0.125,35.0,1,1.0,0.2717999999999847
231,16,0.5,1.0,35.0,1,1.0,0.38140000000021246
232,16,0.5,0.0,-35.0,-1,1.0,1.5881999999999152
233,16,0.5,0.25,-35.0,-1,1.0,0.2214000000001306
234,16,0.5,1.0,-35.0,-1,1.0,0.24639999999999418
235,16,0.5,1.0,-35.0,-1,1.0,0.27589999999986503
236,16,0.5,0.125,35.0,-1,0.0,1.1817999999998392
237,16,0.5,0.0625,35.0,-1,0.0,0.28660000000013497
238,16,0.5,0.25,35.0,1,1.0,1.368900000000167
239,16,0.5,0.0,-35.0,-1,1.0,4.566600000000108
240,16,0.5,0.125,-35.0,-1,1.0,0.3089999999999691
241,16,0.5,0.125,-35.0,-1,1.0,0.16230000000018663
242,16,0.5,0.0625,35.0,-1,0.0,0.3926000000001295
243,16,0.5,0.125,35.0,-1,0.0,4.673000000000002
244,16,0.1,0.125,35.0,1,1.0,0.5028990000002977
245,16,0.5,1.0,35.0,1,1.0,0.9994999999998981
246,16,0.5,1.0,35.0,1,1.0,0.7928000000001703
247,16,0.5,0.125,35.0,-1,0.0,2.3204000000000633
248,16,0.4,0.125,-35.0,-1,1.0,0.3805999999999585
249,16,0.5,1.0,35.0,1,1.0,0.24069999999983338
250,16,0.5,0.125,35.0,-1,0.0,0.46060000000011314
251,16,0.5,0.0625,-35.0,1,0.0,5.966999999999871
252,16,0.5,0.125,-35.0,-1,1.0,0.27359999999998763
253,16,0.5,0.0,-35.0,-1,1.0,4.9736000000002605
254,16,0.5,0.0,35.0,-1,0.0,7.467800000000125
255,16,0.4,0.0,35.0,-1,0.0,0.3342000000000098
256,16,0.5,1.0,35.0,1,1.0,0.4419000000000324
257,16,0.5,0.125,35.0,-1,0.0,3.141200000000026
258,16,0.5,0.0625,35.0,-1,0.0,0.3386000000000422
259,16,0.5,0.25,35.0,-1,0.0,0.4010000000000673
260,16,0.5,0.0625,35.0,-1,0.0,4.0521000000001095
261,16,0.5,0.25,35.0,-1,0.0,0.508199999999988
262,16,0.1,0.25,-35.0,-1,1.0,0.41810000000009495
263,16,0.5,1.0,-35.0,-1,1.0,0.29510000000027503
264,16,0.5,1.0,-35.0,-1,1.0,0.30490000000008877
265,16,0.5,0.0625,-35.0,-1,1.0,0.6660000000001673
266,16,0.5,0.0625,35.0,-1,0.0,4.461599999999862
267,16,0.5,0.0625,-35.0,-1,1.0,0.2925000000000182
268,16,0.5,0.125,-35.0,-1,1.0,1.4420000000002346
269,16,0.5,0.0625,-35.0,-1,1.0,0.38850000000002183
270,16,0.5,0.125,35.0,-1,0.0,3.720100000000002
271,16,0.5,0.0625,35.0,-1,0.0,0.34930000000008476
272,16,0.5,0.125,-35.0,-1,1.0,0.2958000000000993
273,16,0.5,0.25,-35.0,-1,1.0,0.45400000000017826
274,16,0.5,0.0,-35.0,-1,1.0,0.4756999999999607
275,16,0.5,1.0,35.0,1,1.0,0.9571000000000822
276,16,0.5,0.0625,-35.0,-1,1.0,4.633399999999938
277,16,0.5,0.0625,35.0,-1,0.0,0.34710000000018226
278,16,0.5,0.0,35.0,-1,0.0,0.37649999999985084
279,16,0.5,0.125,35.0,-1,0.0,6.5598999999999705
280,16,0.5,0.125,35.0,-1,0.0,7.443400000000111
281,16,0.5,0.0,35.0,-1,0.0,0.5551000000002659
282,16,0.5,0.125,35.0,1,1.0,6.881900000000087
283,16,0.5,0.0625,-35.0,-1,1.0,1.5441999999998188
284,16,0.5,0.0625,-35.0,-1,1.0,0.35419999999999163
285,16,0.5,0.0,35.0,-1,0.0,0.3906000000001768
286,16,0.5,0.25,-35.0,-1,1.0,0.31150000000002365
287,16,0.5,0.25,-35.0,-1,1.0,0.4554000000002816
288,16,0.5,1.0,35.0,-1,0.0,0.9279000000001361
289,16,0.5,0.125,-35.0,-1,1.0,8.954600000000255
290,16,0.5,0.25,35.0,-1,0.0,0.5213000000001102
291,16,0.5,0.0625,-35.0,-1,1.0,0.29510000000027503
292,16,0.5,1.0,-35.0,-1,1.0,0.3883000000002994
293,16,0.5,0.125,35.0,1,1.0,4.982000000000198
294,16,0.5,0.0625,35.0,-1,0.0,3.789199999999937
295,16,0.5,0.125,35.0,1,1.0,8.375200000000177
296,16,0.5,0.0625,35.0,1,1.0,23.735800000000154
297,16,0.5,1.0,35.0,1,1.0,0.8536000000001422
298,16,0.5,0.25,-35.0,-1,1.0,3.0760999999999967
299,16,0.5,0.125,-35.0,-1,1.0,4.569700000000012
300,16,0.5,0.25,35.0,-1,0.0,8.903000000000247
301,16,0.5,0.0,-35.0,-1,1.0,0.45039999999994507
302,16,0.5,0.125,35.0,-1,0.0,3.6001000000001113
303,16,0.4,0.125,-35.0,-1,1.0,7.853500000000167
304,16,0.5,1.0,35.0,1,1.0,0.24410000000011678
305,16,0.5,0.125,35.0,1,1.0,5.7439999999999145
306,16,0.5,0.0625,35.0,-1,0.0,13.271999999999935
307,16,0.5,0.125,35.0,-1,0.0,4.582599999999957
308,16,0.2,0.125,35.0,1,1.0,5.128200000000106
309,16,0.5,1.0,35.0,1,1.0,0.28539999999998145
310,16,0.5,0.25,35.0,1,1.0,6.784900000000107
311,16,0.5,1.0,-35.0,-1,1.0,5.768900000000031
312,16,0.5,0.0625,35.0,1,1.0,6.115199999999959
313,16,0.5,1.0,-35.0,-1,1.0,6.055900000000065
314,16,0.5,0.25,-35.0,1,0.0,0.2875000000001364
315,16,0.6,0.25,-35.0,-1,1.0,5.7327999999999975
316,16,0.5,1.0,35.0,1,1.0,0.22249999999985448
317,16,0.5,0.125,35.0,1,1.0,1.7725000000000364
318,16,0.5,1.0,-35.0,1,0.0,19.273100000000113
319,16,0.5,0.25,-35.0,1,0.0,1.9735000000000582
320,16,0.5,0.0625,35.0,1,1.0,0.4515000000001237
321,16,0.5,0.0,35.0,1,1.0,0.3101000000001477
322,16,0.5,0.125,-35.0,1,0.0,13.356900000000223
323,16,0.5,0.125,-35.0,1,0.0,6.73720000000003
324,16,0.5,0.125,35.0,1,1.0,7.68769999999995
325,16,0.5,0.125,35.0,1,1.0,7.514699999999948
326,16,0.5,0.25,35.0,1,1.0,2.932600000000093
327,16,0.5,1.0,35.0,1,1.0,0.251700000000028
328,16,0.5,0.0625,-35.0,1,0.0,7.212600000000066
329,16,1.0,0.0625,35.0,1,1.0,8.45880000000011
330,16,0.5,1.0,-35.0,1,0.0,13.985699999999952
331,16,0.5,0.25,35.0,1,1.0,1.1060999999999694
332,16,0.5,1.0,35.0,1,1.0,0.28320000000007894
333,16,0.5,0.0625,35.0,1,1.0,8.712600000000066
334,16,0.5,0.25,35.0,1,1.0,8.313100000000077
335,16,0.5,0.125,35.0,1,1.0,2.656600000000026
336,16,0.5,0.0625,35.0,1,1.0,4.726700000000164
337,16,0.5,0.125,-35.0,1,0.0,6.614000000000033
338,16,0.5,0.0625,35.0,1,1.0,4.6702999999999975
339,16,0.5,0.0625,35.0,1,1.0,0.38429999999993925
340,16,0.5,1.0,-35.0,1,0.0,3.060799999999972
341,16,1.0,1.0,-35.0,1,0.0,7.710900000000038
342,16,1.0,1.0,-35.0,1,0.0,3.7647000000001754
343,16,1.0,1.0,-35.0,-1,1.0,0.6842000000001462
344,16,0.5,1.0,-35.0,1,0.0,4.851699999999937
345,16,0.5,0.0625,-35.0,1,0.0,1.1782000000000608
346,16,0.9,0.0625,-35.0,1,0.0,8.494800000000168
347,16,0.5,1.0,-35.0,1,0.0,9.212099999999964
348,16,0.5,0.125,-35.0,1,0.0,0.7936999999999443
349,16,0.5,0.0625,35.0,1,1.0,2.022799999999961
350,16,0.5,0.0625,-35.0,1,0.0,3.39650000000006
351,16,0.5,0.125,35.0,1,1.0,8.455800000000181
352,16,0.5,0.0625,-35.0,1,0.0,16.063000000000102
353,16,0.5,0.25,-35.0,1,0.0,7.603399999999965
354,16,0.5,0.125,35.0,1,1.0,0.29359999999996944
355,16,0.5,0.25,-35.0,1,0.0,9.016600000000153
356,16,1.0,0.25,-35.0,1,0.0,6.604800000000068
357,16,0.5,1.0,-35.0,1,0.0,7.468300000000454
358,16,0.5,0.125,-35.0,1,0.0,3.274499999999989
359,16,0.5,0.125,-35.0,1,0.0,4.7512000000001535
360,16,1.0,0.125,-35.0,1,0.0,5.62519999999995
361,16,0.5,1.0,-35.0,1,0.0,5.358799999999974
362,16,0.5,0.0625,-35.0,1,0.0,3.8449000000000524
363,16,1.0,0.0625,35.0,1,1.0,1.199500000000171
364,16,0.5,1.0,-35.0,1,0.0,6.14240000000018
365,16,0.5,0.0625,35.0,1,1.0,0.24569999999994252
366,16,0.5,0.0625,-35.0,1,0.0,0.3225999999999658
367,16,0.5,0.0,35.0,1,1.0,0.3459000000002561
368,16,0.5,1.0,-35.0,1,0.0,2.665899999999965
369,16,0.5,0.0625,-35.0,1,0.0,4.683399999999892
370,16,0.5,0.0,35.0,1,1.0,1.2928999999999178
371,16,0.5,1.0,35.0,1,1.0,5.826200000000426
372,16,0.5,0.125,35.0,1,1.0,5.649600000000191
373,16,0.5,0.25,-35.0,1,0.0,1.5333000000000538
374,16,0.5,0.25,-35.0,1,0.0,9.523999999999887
375,16,1.0,0.25,-35.0,1,0.0,5.704200000000583
376,16,0.5,1.0,-35.0,1,0.0,4.277900000000045
377,16,0.5,0.0,35.0,1,1.0,2.5974000000005617
378,16,0.5,1.0,35.0,1,1.0,0.411200000000008
379,16,0.5,0.25,35.0,1,1.0,3.528700000000299
380,16,0.5,0.25,35.0,1,1.0,0.36100000000033106
381,16,0.5,0.25,-35.0,1,0.0,1.2989000000002306
382,16,0.5,0.25,35.0,1,1.0,2.8510999999998603
383,16,0.5,0.0625,35.0,1,1.0,3.219900000000507
384,16,0.5,0.25,-35.0,1,0.0,13.175200000000132
385,16,0.5,0.25,-35.0,1,0.0,2.2352999999998246
386,16,0.5,0.125,35.0,1,1.0,5.199099999999817
387,16,0.5,1.0,-35.0,1,0.0,1.6768000000001848
388,16,0.5,0.0625,-35.0,1,0.0,10.14240000000018
389,16,1.0,0.0625,-35.0,1,0.0,15.639999999999873
390,16,0.5,1.0,-35.0,1,0.0,10.916900000000169
391,16,1.0,1.0,-35.0,1,0.0,2.9276000000004387
392,16,1.0,1.0,-35.0,1,0.0,3.985399999999572
393,16,1.0,1.0,-35.0,1,0.0,4.827800000000025
394,16,1.0,1.0,35.0,1,1.0,0.22100000000000364
395,16,0.5,1.0,-35.0,1,0.0,30.42450000000008
396,16,1.0,1.0,35.0,1,1.0,7.866199999999935
397,16,0.5,1.0,-35.0,1,0.0,13.00270000000046
398,16,1.0,1.0,-35.0,1,0.0,6.436000000000149
399,16,1.0,1.0,-35.0,1,0.0,14.622099999999591
400,16,1.0,1.0,35.0,1,1.0,6.1077000000000226
401,16,0.5,1.0,-35.0,1,0.0,3.5645999999997002
402,16,0.5,0.125,35.0,1,1.0,9.612999999999829
403,16,0.5,1.0,35.0,1,1.0,0.2535000000002583
404,16,0.5,0.25,-35.0,1,0.0,2.290100000000166
405,16,0.5,0.0625,35.0,1,1.0,3.0101999999997133
406,16,0.5,0.125,-35.0,1,0.0,1.1301000000003114
407,16,0.5,0.25,35.0,1,1.0,8.73030000000017
408,16,0.5,0.0625,35.0,1,1.0,0.2307000000005246
409,16,0.5,0.25,35.0,1,1.0,2.320900000000165
410,16,0.5,0.125,35.0,1,1.0,4.024199999999837
411,16,0.5,0.125,35.0,1,1.0,4.632199999999557
412,16,0.5,1.0,35.0,1,1.0,0.2217000000000553
413,16,0.5,0.25,35.0,1,1.0,4.311200000000099
414,16,0.5,1.0,-35.0,1,0.0,4.841400000000249
415,16,1.0,1.0,-35.0,1,0.0,4.178699999999935
416,16,1.0,1.0,-35.0,1,0.0,9.245100000000093
417,16,1.0,1.0,-35.0,1,0.0,5.303799999999683
418,16,1.0,1.0,35.0,1,1.0,0.1997999999998683
419,16,0.5,1.0,-35.0,1,0.0,7.302900000000136
420,16,1.0,1.0,-35.0,1,0.0,6.880100000000311
421,16,1.0,1.0,-35.0,1,0.0,1.3905000000004293
422,16,1.0,1.0,-35.0,1,0.0,3.449999999999818
423,16,1.0,1.0,-35.0,1,0.0,4.133499999999913
424,16,1.0,1.0,-35.0,1,0.0,9.057999999999993
425,16,1.0,1.0,35.0,1,1.0,0.2585009999997965
426,16,0.5,1.0,-35.0,1,0.0,14.293501000000106
427,16,0.5,0.125,-35.0,1,0.0,2.355000999999902
428,16,0.5,0.0625,35.0,1,1.0,9.04140099999995
429,16,0.5,0.125,35.0,1,1.0,3.5450009999999565
430,16,0.5,0.125,35.0,1,1.0,11.561400999999933
431,16,0.5,0.125,-35.0,1,0.0,11.321500999999444
432,16,0.5,0.0625,35.0,1,1.0,0.4873010000001159
433,16,0.5,0.0,35.0,1,1.0,4.1424010000000635
434,16,0.5,1.0,-35.0,1,0.0,1.1621009999998932
435,16,1.0,1.0,-35.0,1,0.0,7.486401000000114
436,16,1.0,1.0,-35.0,1,0.0,5.466001000000233
437,16,1.0,1.0,-35.0,1,0.0,2.0926009999998314
438,16,1.0,1.0,-35.0,1,0.0,3.2003010000003087
439,16,1.0,1.0,-35.0,1,0.0,6.989800999999716
440,16,1.0,1.0,35.0,1,1.0,5.396500999999716
441,16,0.5,1.0,-35.0,1,0.0,0.8268009999997048
442,16,0.5,0.0,35.0,1,1.0,2.617001000000073
443,16,0.5,0.0625,35.0,1,1.0,5.468300999999883
444,16,0.5,0.25,35.0,1,1.0,4.527601000000232
445,16,0.5,1.0,-35.0,1,0.0,4.167601000000104
446,16,0.5,0.0625,-35.0,1,0.0,3.151300999999876
447,16,0.5,0.125,-35.0,1,0.0,6.357600999999704
448,16,0.5,0.25,-35.0,1,0.0,3.6885010000000875
449,16,0.5,0.25,35.0,1,1.0,3.602100999999948
450,16,0.5,1.0,35.0,1,1.0,1.0885010000001785
451,16,0.5,0.0625,35.0,1,1.0,1.5085009999997965
452,16,0.5,0.25,-35.0,1,0.0,0.539400999999998
453,16,0.5,0.0,-35.0,1,0.0,4.103801000000203
454,16,0.5,0.25,-35.0,1,0.0,0.6192010000004302
455,16,0.5,0.125,-35.0,1,0.0,3.8268010000001595
456,16,0.5,0.25,35.0,-1,0.0,0.48230100000000675
457,16,0.5,0.0625,-35.0,1,0.0,40.310701000000336
458,16,0.5,0.25,35.0,1,1.0,9.375200999999834
459,16,0.5,0.0625,-35.0,1,0.0,1.9914010000002236
460,16,0.9,0.0625,-35.0,1,0.0,6.9372010000001865
461,16,0.5,1.0,-35.0,1,0.0,9.937501000000339
462,16,0.5,0.25,35.0,1,1.0,6.983000999999604
463,16,0.5,0.0,-35.0,1,0.0,4.777800999999727
464,16,0.5,0.25,35.0,1,1.0,6.268501000000015
465,16,0.5,1.0,-35.0,1,0.0,0.6382010000002083
466,16,0.5,0.0625,35.0,1,1.0,0.4754010000006019
467,16,0.5,0.125,-35.0,1,0.0,9.00320099999999
468,16,0.5,0.25,-35.0,1,0.0,2.409201000000394
469,16,0.5,0.125,-35.0,1,0.0,3.6935010000001967
470,16,1.0,0.125,-35.0,1,0.0,17.442601000000195
471,16,0.5,1.0,-35.0,1,0.0,5.688000999999986
472,16,0.5,0.25,35.0,1,1.0,8.398301000000174
473,16,0.5,0.25,35.0,1,1.0,4.486700999999812
474,16,0.5,0.125,-35.0,1,0.0,6.730700999999954
475,16,0.5,0.125,35.0,1,1.0,0.7011010000001079
476,16,0.5,1.0,-35.0,1,0.0,10.070600999999897
477,16,0.5,0.125,-35.0,1,0.0,3.035201000000143
