trial_num,session_num,stim_probability_left,contrast,position,response_choice,trial_correct,reaction_time
1,1,0.5,0.125,35.0,1,1.0,0.9803999999999997
2,1,0.5,1.0,-35.0,-1,1.0,0.27789999999999937
3,1,0.5,1.0,-35.0,-1,1.0,0.17169999999999952
4,1,0.5,0.0,-35.0,1,0.0,6.9312999999999985
5,1,0.5,0.125,35.0,1,1.0,0.2674000000000021
6,1,0.5,0.25,-35.0,-1,1.0,0.2840000000000025
7,1,0.5,1.0,-35.0,-1,1.0,0.23130000000000095
8,1,0.5,0.25,35.0,1,1.0,0.3221000000000025
9,1,0.5,1.0,35.0,1,1.0,0.02130000000000365
10,1,0.5,0.25,-35.0,-1,1.0,0.5651000000000082
11,1,0.5,0.25,-35.0,-1,1.0,0.25159999999999627
12,1,0.5,0.125,35.0,1,1.0,0.4040999999999997
13,1,0.5,1.0,35.0,1,1.0,0.3083000000000027
14,1,0.5,1.0,-35.0,-1,1.0,0.23930000000000007
15,1,0.5,0.125,35.0,1,1.0,0.2775000000000034
16,1,0.5,0.0,-35.0,1,0.0,2.608400000000003
17,1,0.5,1.0,-35.0,-1,1.0,0.1997999999999962
18,1,0.5,0.0625,-35.0,-1,1.0,1.9527
19,1,0.5,0.0625,-35.0,1,0.0,2.6779999999999973
20,1,0.5,0.0625,-35.0,-1,1.0,0.29049999999999443
21,1,0.5,0.25,-35.0,-1,1.0,0.2879999999999967
22,1,0.5,0.0,-35.0,-1,1.0,1.7353999999999985
23,1,0.5,0.25,-35.0,-1,1.0,0.2787000000000006
24,1,0.5,0.0625,35.0,-1,0.0,2.062599999999989
25,1,0.5,1.0,-35.0,-1,1.0,0.21249999999997726
26,1,0.5,1.0,-35.0,-1,1.0,0.22239999999999327
27,1,0.5,0.125,35.0,1,1.0,0.3049999999999926
28,1,0.5,0.0625,-35.0,1,0.0,0.4802999999999997
29,1,0.5,0.125,-35.0,-1,1.0,0.40449999999998454
30,1,0.5,0.0625,-35.0,-1,1.0,0.9073999999999955
31,1,0.5,0.0625,-35.0,-1,1.0,0.30529999999998836
32,1,0.5,0.125,-35.0,-1,1.0,0.2517999999999887
33,1,0.5,1.0,35.0,1,1.0,0.3194999999999908
34,1,0.5,0.25,35.0,1,1.0,0.3544999999999874
35,1,0.5,1.0,-35.0,-1,1.0,0.20379999999998688
36,1,0.5,0.25,-35.0,-1,1.0,0.2926000000000073
37,1,0.5,1.0,35.0,1,1.0,0.3462999999999852
38,1,0.5,1.0,35.0,1,1.0,0.32859999999999445
39,1,0.5,0.0625,35.0,1,1.0,0.460400000000007
40,1,0.5,1.0,-35.0,-1,1.0,0.24459999999999127
41,1,0.5,0.125,-35.0,-1,1.0,0.2866000000000213
42,1,0.5,1.0,-35.0,-1,1.0,0.21169999999997913
43,1,0.5,0.0625,35.0,-1,0.0,2.334799999999973
44,1,0.5,0.0625,-35.0,1,0.0,0.38409999999998945
45,1,0.5,0.0625,-35.0,-1,1.0,4.17949999999999
46,1,0.5,0.25,35.0,1,1.0,0.2968999999999937
47,1,0.5,1.0,-35.0,-1,1.0,0.21199999999998909
48,1,0.5,1.0,-35.0,-1,1.0,0.18600000000000705
49,1,0.5,0.25,-35.0,-1,1.0,0.2108000000000061
50,1,0.5,0.25,35.0,1,1.0,0.3669999999999902
51,1,0.5,0.0,-35.0,-1,1.0,1.316500000000019
52,1,0.5,1.0,35.0,1,1.0,0.37879999999998404
53,1,0.5,1.0,35.0,1,1.0,0.4440999999999917
54,1,0.5,0.125,-35.0,-1,1.0,0.23619999999999663
55,1,0.5,1.0,-35.0,-1,1.0,0.1817000000000064
56,1,0.5,0.125,-35.0,-1,1.0,2.2711999999999932
57,1,0.5,1.0,35.0,1,1.0,0.45230000000000814
58,1,0.5,0.0,35.0,1,1.0,3.3870999999999754
59,1,0.5,0.25,35.0,1,1.0,0.30829999999997426
60,1,0.5,1.0,-35.0,-1,1.0,0.4573000000000036
61,1,0.5,0.0,35.0,1,1.0,0.5922999999999945
62,1,0.5,0.0625,35.0,1,1.0,0.2862999999999829
63,1,0.5,0.125,-35.0,-1,1.0,0.6188999999999965
64,1,0.5,0.125,35.0,1,1.0,0.3716000000000008
65,1,0.5,0.0625,35.0,1,1.0,0.23550000000000182
66,1,0.5,0.125,35.0,1,1.0,0.3503000000000043
67,1,0.5,0.125,35.0,1,1.0,0.2878999999999792
68,1,0.5,0.0625,-35.0,1,0.0,0.9192999999999927
69,1,0.5,0.25,35.0,1,1.0,0.4007999999999754
70,1,0.5,0.25,35.0,1,1.0,0.23339999999998895
71,1,0.5,0.25,35.0,1,1.0,0.2898999999999887
72,1,0.5,0.25,-35.0,-1,1.0,0.8093999999999824
73,1,0.5,0.125,35.0,1,1.0,0.2633000000000152
74,1,0.5,0.125,-35.0,-1,1.0,0.24379999999999313
75,1,0.5,0.125,-35.0,-1,1.0,0.2657999999999845
76,1,0.5,0.125,-35.0,-1,1.0,0.24440000000001305
77,1,0.5,0.0,35.0,1,1.0,0.31279999999998154
78,1,0.5,0.0,-35.0,1,0.0,0.3405999999999949
79,1,0.5,0.125,35.0,1,1.0,0.2639000000000067
80,1,0.5,1.0,-35.0,-1,1.0,0.29179999999996653
81,1,0.5,0.0625,-35.0,-1,1.0,0.27649999999999864
82,1,0.5,0.125,-35.0,-1,1.0,0.280900000000031
83,1,0.5,0.25,-35.0,-1,1.0,0.2457000000000562
84,1,0.5,1.0,-35.0,-1,1.0,0.21000000000003638
85,1,0.5,0.0625,-35.0,1,0.0,2.5510000000000446
86,1,0.5,0.25,35.0,1,1.0,0.27940000000000964
87,1,0.5,0.0,35.0,1,1.0,3.8571000000000595
88,1,0.5,0.25,-35.0,-1,1.0,0.6612000000000648
89,1,0.5,0.125,35.0,1,1.0,0.2736000000000445
90,1,0.5,0.0,35.0,1,1.0,0.6424000000000092
91,1,0.2,1.0,35.0,1,1.0,0.17189999999999372
92,1,0.2,1.0,35.0,1,1.0,0.18259999999997945
93,1,0.2,0.125,35.0,1,1.0,0.32130000000006476
94,1,0.2,0.0625,35.0,1,1.0,0.3694000000000415
95,1,0.2,0.25,35.0,1,1.0,0.24320000000000164
96,1,0.2,0.0625,35.0,1,1.0,0.3211000000000013
97,1,0.2,0.0625,35.0,1,1.0,1.3768000000000598
98,1,0.2,0.0625,35.0,1,1.0,0.38250000000005
99,1,0.2,0.0625,35.0,1,1.0,0.37639999999998963
100,1,0.2,1.0,35.0,1,1.0,0.23150000000003956
101,1,0.2,0.0,35.0,1,1.0,3.5737000000000307
102,1,0.2,1.0,35.0,1,1.0,0.3269000000000233
103,1,0.2,1.0,35.0,1,1.0,0.22280000000000655
104,1,0.2,1.0,35.0,1,1.0,0.15460000000007312
105,1,0.2,0.0625,-35.0,1,0.0,2.664800000000014
106,1,0.2,1.0,35.0,1,1.0,0.2983000000000402
107,1,0.2,1.0,35.0,1,1.0,0.5018000000000598
108,1,0.2,0.0625,-35.0,1,0.0,0.36149999999997817
109,1,0.2,0.125,35.0,1,1.0,0.4288999999999987
110,1,0.2,0.0625,35.0,1,1.0,1.119799999999998
111,1,0.2,0.25,35.0,1,1.0,0.1724999999999568
112,1,0.2,0.0625,35.0,1,1.0,0.17880000000002383
113,1,0.2,0.125,35.0,1,1.0,0.18110000000001492
114,1,0.2,1.0,35.0,1,1.0,0.17990000000003192
115,1,0.2,0.0625,35.0,1,1.0,0.27000000000003865
116,1,0.2,0.25,-35.0,-1,1.0,0.6271000000000413
117,1,0.2,0.0625,35.0,1,1.0,0.09700000000003683
118,1,0.2,0.0625,-35.0,-1,1.0,1.4218000000000188
119,1,0.2,0.25,-35.0,-1,1.0,0.29440000000005284
120,1,0.2,0.125,35.0,1,1.0,0.7360000000000468
121,1,0.2,0.25,35.0,1,1.0,0.35700000000002774
122,1,0.2,1.0,35.0,1,1.0,0.387800000000027
123,1,0.2,0.0625,-35.0,1,0.0,3.900800000000004
124,1,0.2,0.125,35.0,1,1.0,0.308900000000051
125,1,0.2,1.0,35.0,1,1.0,0.3959000000000401
126,1,0.2,0.0625,35.0,1,1.0,2.4656000000000518
127,1,0.2,1.0,35.0,1,1.0,0.15140000000002374
128,1,0.2,0.25,35.0,1,1.0,0.1745000000000232
129,1,0.2,1.0,35.0,1,1.0,0.15850000000000364
130,1,0.2,1.0,35.0,1,1.0,0.2024000000000683
131,1,0.2,1.0,35.0,1,1.0,0.1966000000000463
132,1,0.2,0.125,35.0,1,1.0,0.21660000000008495
133,1,0.2,1.0,35.0,1,1.0,0.16830000000004475
134,1,0.2,0.0625,35.0,1,1.0,0.2487000000000421
135,1,0.2,0.0,-35.0,1,0.0,0.16970000000003438
136,1,0.8,0.0625,-35.0,-1,1.0,0.2576999999999998
137,1,0.8,0.125,-35.0,-1,1.0,0.22849999999999682
138,1,0.8,0.25,35.0,1,1.0,0.1358000000000743
139,1,0.8,0.0625,-35.0,-1,1.0,0.23640000000006012
140,1,0.8,1.0,35.0,1,1.0,0.18240000000002965
141,1,0.8,0.25,-35.0,-1,1.0,0.22020000000003392
142,1,0.8,0.125,-35.0,-1,1.0,0.2115000000000009
143,1,0.8,0.125,-35.0,-1,1.0,0.2078000000000202
144,1,0.8,0.0625,-35.0,-1,1.0,0.37930000000000064
145,1,0.8,0.125,35.0,-1,0.0,0.16470000000003893
146,1,0.8,0.0625,-35.0,1,0.0,0.5071000000000367
147,1,0.8,0.25,35.0,1,1.0,0.22440000000000282
148,1,0.8,1.0,-35.0,-1,1.0,0.4671000000000163
149,1,0.8,1.0,-35.0,-1,1.0,0.15040000000004738
150,1,0.8,1.0,-35.0,-1,1.0,0.20240000000001146
151,1,0.8,1.0,-35.0,-1,1.0,0.1571999999999889
152,1,0.8,1.0,-35.0,-1,1.0,0.19220000000001392
153,1,0.8,0.25,-35.0,-1,1.0,0.22520000000002938
154,1,0.8,1.0,-35.0,-1,1.0,0.1938000000000102
155,1,0.8,0.25,-35.0,-1,1.0,0.13560000000001082
156,1,0.8,1.0,-35.0,-1,1.0,0.17530000000004975
157,1,0.8,0.25,-35.0,-1,1.0,0.14459999999996853
158,1,0.8,1.0,35.0,1,1.0,0.33740000000000236
159,1,0.8,0.0,35.0,-1,0.0,0.906400000000076
160,1,0.8,0.0625,-35.0,-1,1.0,0.7798000000000229
161,1,0.8,0.0,-35.0,1,0.0,0.3306999999999789
162,1,0.8,0.25,35.0,1,1.0,2.7708999999999833
163,1,0.8,0.0625,-35.0,1,0.0,0.22649999999998727
164,1,0.8,0.0625,35.0,-1,0.0,0.2906000000000404
165,1,0.8,1.0,-35.0,-1,1.0,0.1755000000000564
166,1,0.8,0.125,-35.0,-1,1.0,0.1856000000000222
167,1,0.8,0.125,-35.0,-1,1.0,0.15660000000002583
168,1,0.8,1.0,-35.0,-1,1.0,0.08999999999991815
169,1,0.8,0.125,-35.0,-1,1.0,0.15170000000011896
170,1,0.8,1.0,-35.0,-1,1.0,0.14010000000007494
171,1,0.8,0.0625,-35.0,-1,1.0,0.2038000000000011
172,1,0.2,0.125,35.0,1,1.0,0.287900000000036
173,1,0.2,0.0,35.0,-1,0.0,0.09320000000002437
174,1,0.2,0.125,35.0,1,1.0,0.18880000000001473
175,1,0.2,0.25,35.0,1,1.0,0.16660000000001673
176,1,0.2,0.0625,35.0,1,1.0,0.4773000000000138
177,1,0.2,0.0625,35.0,1,1.0,0.199799999999982
178,1,0.2,1.0,-35.0,-1,1.0,0.23230000000000928
179,1,0.2,0.0,35.0,1,1.0,0.20609999999999218
180,1,0.2,1.0,35.0,1,1.0,0.18899999999996453
181,1,0.2,0.125,35.0,1,1.0,0.22640000000001237
182,1,0.2,0.125,35.0,1,1.0,0.197400000000016
183,1,0.2,1.0,35.0,1,1.0,0.23599999999999
184,1,0.2,0.0625,-35.0,-1,1.0,0.2460999999999558
185,1,0.2,0.125,-35.0,-1,1.0,0.06180000000006203
186,1,0.2,0.25,35.0,1,1.0,0.08230000000003201
187,1,0.2,0.25,35.0,1,1.0,0.17259999999998854
188,1,0.2,0.0,35.0,1,1.0,0.1271000000000413
189,1,0.2,0.125,35.0,1,1.0,0.04319999999995616
190,1,0.2,0.0625,35.0,1,1.0,0.13220000000001164
191,1,0.2,1.0,-35.0,1,0.0,0.08219999999994343
192,1,0.2,0.0625,35.0,1,1.0,0.19410000000004857
193,1,0.2,1.0,35.0,1,1.0,0.22260000000005675
194,1,0.2,0.125,-35.0,-1,1.0,0.23530000000005202
195,1,0.2,0.125,35.0,1,1.0,0.18690000000003693
196,1,0.2,0.125,35.0,1,1.0,0.21840000000008786
197,1,0.2,0.0625,35.0,1,1.0,0.20539999999994052
198,1,0.2,0.25,35.0,1,1.0,0.13990000000001146
199,1,0.2,1.0,35.0,1,1.0,0.20329999999989923
200,1,0.2,0.0,35.0,1,1.0,0.23059999999998126
201,1,0.2,0.125,-35.0,-1,1.0,0.19479999999998654
202,1,0.2,0.25,-35.0,-1,1.0,0.16280000000006112
203,1,0.2,0.0625,35.0,1,1.0,0.24329999999997654
204,1,0.2,0.25,35.0,1,1.0,0.22910000000001673
205,1,0.2,0.125,35.0,1,1.0,0.14949999999998909
206,1,0.2,1.0,35.0,1,1.0,0.15999999999996817
207,1,0.2,0.25,-35.0,-1,1.0,0.19790000000000418
208,1,0.2,0.25,35.0,1,1.0,0.2477000000000089
209,1,0.2,1.0,35.0,1,1.0,0.04610000000002401
210,1,0.2,0.0625,35.0,1,1.0,0.24099999999998545
211,1,0.2,1.0,35.0,1,1.0,0.18160000000011678
212,1,0.2,0.0625,35.0,1,1.0,0.4168000000000802
213,1,0.2,0.0625,35.0,-1,0.0,2.329300000000103
214,1,0.2,0.125,35.0,1,1.0,0.21490000000005693
215,1,0.2,0.125,35.0,1,1.0,0.2499000000000251
216,1,0.2,1.0,35.0,1,1.0,0.19849999999996726
217,1,0.2,0.0625,35.0,1,1.0,0.19429999999999836
218,1,0.2,0.25,35.0,1,1.0,0.2839999999999918
219,1,0.2,0.0,-35.0,1,0.0,0.19700000000000273
220,1,0.2,0.125,35.0,1,1.0,0.23450000000002547
221,1,0.2,0.25,35.0,1,1.0,0.26509999999996126
222,1,0.2,0.0,35.0,1,1.0,1.2330999999999221
223,1,0.2,0.0625,35.0,1,1.0,0.22149999999999181
224,1,0.2,0.25,35.0,1,1.0,0.2218000000000302
225,1,0.2,0.125,35.0,1,1.0,0.5117000000000189
226,1,0.2,0.25,35.0,1,1.0,0.16870000000005803
227,1,0.2,0.25,35.0,1,1.0,0.2581000000001268
228,1,0.2,1.0,-35.0,-1,1.0,0.005300000000033833
229,1,0.2,1.0,35.0,1,1.0,0.20690000000001874
230,1,0.2,1.0,35.0,1,1.0,0.17679999999995744
231,1,0.2,0.0,35.0,1,1.0,0.27470000000005257
232,1,0.2,0.125,35.0,1,1.0,0.2740999999999758
233,1,0.2,0.125,35.0,1,1.0,0.2654000000001133
234,1,0.2,0.0,35.0,1,1.0,0.20240000000001146
235,1,0.2,0.125,35.0,1,1.0,0.2194000000000642
236,1,0.2,1.0,35.0,1,1.0,0.17840000000001055
237,1,0.2,0.0,35.0,1,1.0,0.1832000000000562
238,1,0.2,0.125,35.0,1,1.0,0.16849999999999454
239,1,0.2,0.125,-35.0,-1,1.0,0.2057999999999538
240,1,0.2,0.0625,35.0,-1,0.0,0.37209999999993215
241,1,0.2,0.0,35.0,1,1.0,5.756599999999935
242,1,0.2,0.25,35.0,1,1.0,0.205600000000004
243,1,0.2,1.0,35.0,1,1.0,0.17970000000002528
244,1,0.2,0.125,35.0,1,1.0,0.21069999999997435
245,1,0.2,0.125,35.0,1,1.0,0.35769999999990887
246,1,0.2,1.0,-35.0,-1,1.0,0.18200000000001637
247,1,0.2,0.0625,35.0,-1,0.0,0.23259999999993397
248,1,0.2,0.25,35.0,1,1.0,0.28880000000003747
249,1,0.2,1.0,-35.0,-1,1.0,0.17880000000002383
250,1,0.2,0.125,35.0,1,1.0,0.23489999999992506
251,1,0.8,1.0,-35.0,-1,1.0,0.23070000000006985
252,1,0.8,0.25,-35.0,-1,1.0,0.5509000000000697
253,1,0.8,0.25,-35.0,-1,1.0,0.21000000000003638
254,1,0.8,1.0,-35.0,-1,1.0,0.1268000000000029
255,1,0.8,0.0,-35.0,-1,1.0,0.3079999999999927
256,1,0.8,1.0,35.0,1,1.0,0.3210000000000264
257,1,0.8,0.25,-35.0,-1,1.0,0.13839999999993324
258,1,0.8,0.0625,35.0,-1,0.0,0.27720000000010714
259,1,0.8,0.125,-35.0,-1,1.0,0.2193000000000893
260,1,0.8,0.125,-35.0,-1,1.0,0.18370000000004438
261,1,0.8,1.0,-35.0,-1,1.0,0.18760000000008858
262,1,0.8,0.25,-35.0,-1,1.0,0.18809999999996307
263,1,0.8,0.0625,35.0,-1,0.0,0.09370000000001255
264,1,0.8,0.125,-35.0,-1,1.0,0.5200000000000955
265,1,0.8,0.0625,-35.0,-1,1.0,0.25520000000005894
266,1,0.8,0.0,-35.0,-1,1.0,2.6136999999999944
267,1,0.8,0.0625,35.0,-1,0.0,0.18420000000003256
268,1,0.8,0.125,-35.0,-1,1.0,0.24459999999999127
269,1,0.8,0.25,-35.0,-1,1.0,0.17199999999991178
270,1,0.8,0.25,-35.0,-1,1.0,1.7963999999999487
271,1,0.8,1.0,35.0,1,1.0,0.2694000000001324
272,1,0.8,0.0625,-35.0,-1,1.0,0.8473999999999933
273,1,0.8,0.25,-35.0,-1,1.0,0.4155000000000655
274,1,0.8,0.0,35.0,-1,0.0,2.63779999999997
275,1,0.8,0.25,-35.0,-1,1.0,0.3704999999999927
276,1,0.8,0.25,-35.0,-1,1.0,0.22059999999999036
277,1,0.8,0.125,-35.0,-1,1.0,0.28080000000011296
278,1,0.8,0.25,-35.0,-1,1.0,0.26710000000002765
279,1,0.8,0.25,-35.0,-1,1.0,4.979600000000005
280,1,0.8,0.0,-35.0,-1,1.0,2.759900000000016
281,1,0.8,0.0,-35.0,-1,1.0,0.2857000000000198
282,1,0.8,0.25,35.0,1,1.0,4.82529999999997
283,1,0.8,1.0,-35.0,-1,1.0,0.2195000000000391
284,1,0.8,0.125,-35.0,-1,1.0,0.26289999999994507
285,1,0.2,1.0,35.0,1,1.0,0.4581999999999198
286,1,0.2,0.0,35.0,-1,0.0,16.222999999999956
287,1,0.2,1.0,35.0,1,1.0,0.3430999999999358
288,1,0.2,0.25,35.0,1,1.0,0.27510000000006585
289,1,0.2,0.0,35.0,1,1.0,0.3992000000000644
290,1,0.2,1.0,35.0,1,1.0,0.2925999999999931
291,1,0.2,1.0,-35.0,-1,1.0,0.22019999999997708
292,1,0.2,0.0625,35.0,1,1.0,0.30560000000002674
293,1,0.2,0.0625,35.0,1,1.0,0.30920000000003256
294,1,0.2,0.125,35.0,1,1.0,0.37819999999999254
295,1,0.2,0.25,35.0,1,1.0,0.1790000000000873
296,1,0.2,0.0,35.0,1,1.0,2.2349000000000387
297,1,0.2,0.0625,35.0,1,1.0,0.13930000000004839
298,1,0.2,0.0625,35.0,1,1.0,0.2057000000000926
299,1,0.2,0.0,-35.0,1,0.0,5.083399999999983
300,1,0.2,0.0625,35.0,1,1.0,0.2554000000001224
301,1,0.2,0.25,35.0,1,1.0,0.22520000000008622
302,1,0.2,0.0625,35.0,1,1.0,0.24049999999999727
303,1,0.2,0.0625,35.0,1,1.0,0.16189999999994598
304,1,0.2,0.25,35.0,1,1.0,0.17869999999993524
305,1,0.2,0.125,-35.0,-1,1.0,0.24130000000002383
306,1,0.2,0.0,35.0,1,1.0,2.179200000000037
307,1,0.2,0.0625,35.0,1,1.0,0.2157000000000835
308,1,0.2,0.0,35.0,1,1.0,0.177599999999984
309,1,0.2,0.0625,35.0,1,1.0,0.6921999999999571
310,1,0.2,1.0,35.0,1,1.0,0.13599999999973988
311,1,0.2,0.125,-35.0,-1,1.0,0.2506999999998243
312,1,0.2,1.0,-35.0,-1,1.0,0.15929999999980282
313,1,0.2,1.0,35.0,1,1.0,0.1510000000000673
314,1,0.2,0.25,-35.0,-1,1.0,0.22659999999996217
315,1,0.2,1.0,35.0,1,1.0,0.2035000000000764
316,1,0.2,0.25,35.0,1,1.0,0.2232000000001335
317,1,0.2,0.25,35.0,1,1.0,0.22100000000000364
318,1,0.2,1.0,-35.0,-1,1.0,0.1818999999998141
319,1,0.2,0.125,35.0,1,1.0,0.2358999999999014
320,1,0.2,0.125,35.0,1,1.0,0.19539999999983593
321,1,0.2,0.0,35.0,1,1.0,0.22319999999990614
322,1,0.2,0.25,35.0,1,1.0,0.2159999999998945
323,1,0.2,1.0,35.0,1,1.0,0.15779999999995198
324,1,0.2,1.0,35.0,1,1.0,0.1635999999998603
325,1,0.2,0.125,35.0,1,1.0,0.17599999999993088
326,1,0.2,0.125,-35.0,-1,1.0,0.20699999999987995
327,1,0.2,0.0,35.0,1,1.0,0.19259999999985666
328,1,0.2,0.125,35.0,1,1.0,1.4103000000000065
329,1,0.2,1.0,35.0,1,1.0,0.14989999999988868
330,1,0.2,0.0,35.0,1,1.0,0.22209999999972752
331,1,0.2,0.0625,35.0,1,1.0,0.19859999999994216
332,1,0.2,0.0625,35.0,1,1.0,0.2061999999998534
333,1,0.2,0.125,35.0,1,1.0,0.20719999999982974
334,1,0.2,1.0,-35.0,-1,1.0,0.21239999999988868
335,1,0.2,0.125,35.0,1,1.0,0.21280000000001564
336,1,0.2,0.0,35.0,1,1.0,0.360700000000179
337,1,0.8,0.0625,-35.0,-1,1.0,1.000400000000127
338,1,0.8,1.0,-35.0,-1,1.0,0.2234000000000833
339,1,0.8,0.125,35.0,1,1.0,0.2403999999996813
340,1,0.8,0.125,-35.0,-1,1.0,0.21399999999971442
341,1,0.8,0.0625,-35.0,1,0.0,0.2425999999998112
342,1,0.8,0.25,-35.0,-1,1.0,0.23270000000002256
343,1,0.8,0.25,35.0,1,1.0,0.2359999999998763
344,1,0.8,0.0625,-35.0,1,0.0,3.6844999999998436
345,1,0.8,0.0625,-35.0,1,0.0,0.4874999999999545
346,1,0.8,0.25,-35.0,-1,1.0,0.2516000000000531
347,1,0.8,0.0,-35.0,1,0.0,0.07679999999982101
348,1,0.8,0.25,-35.0,-1,1.0,0.3045999999999367
349,1,0.8,0.0625,-35.0,1,0.0,7.08869999999979
350,1,0.8,0.125,-35.0,-1,1.0,0.37779999999997926
351,1,0.8,0.0,-35.0,-1,1.0,4.615199999999959
352,1,0.8,0.125,35.0,1,1.0,5.49369999999999
353,1,0.8,0.125,-35.0,-1,1.0,0.23789999999985412
354,1,0.8,1.0,-35.0,-1,1.0,0.17709999999988213
355,1,0.8,1.0,-35.0,-1,1.0,0.21489999999994325
356,1,0.8,1.0,-35.0,-1,1.0,0.22090000000002874
357,1,0.8,0.0625,-35.0,-1,1.0,3.084999999999809
358,1,0.8,0.125,35.0,1,1.0,0.24799999999981992
359,1,0.8,0.0625,-35.0,-1,1.0,0.27799999999979264
360,1,0.8,0.0,-35.0,-1,1.0,0.46499999999991815
361,1,0.8,0.125,-35.0,-1,1.0,0.24759999999992033
362,1,0.8,1.0,-35.0,-1,1.0,0.20529999999985193
363,1,0.8,1.0,-35.0,-1,1.0,0.20600000000013097
364,1,0.8,0.25,-35.0,-1,1.0,0.26949999999987995
365,1,0.8,1.0,-35.0,-1,1.0,0.18529999999964275
366,1,0.8,0.25,-35.0,-1,1.0,0.23919999999998254
367,1,0.8,0.25,-35.0,-1,1.0,0.5281999999999698
368,1,0.8,0.125,-35.0,-1,1.0,5.772399999999834
369,1,0.8,0.25,-35.0,-1,1.0,0.7938999999998941
370,1,0.8,0.125,-35.0,-1,1.0,0.4322989999998299
371,1,0.8,0.0625,-35.0,-1,1.0,9.05459999999971
372,1,0.8,1.0,-35.0,-1,1.0,0.17689999999993233
373,1,0.8,0.25,35.0,1,1.0,0.32759999999984757
374,1,0.8,0.0625,-35.0,1,0.0,0.36639999999988504
375,1,0.8,0.125,-35.0,-1,1.0,0.5733000000000175
376,1,0.8,1.0,-35.0,-1,1.0,0.2852999999997792
377,1,0.8,1.0,-35.0,-1,1.0,0.19259999999985666
378,1,0.8,0.0625,-35.0,-1,1.0,4.902699999999868
379,1,0.8,0.25,-35.0,-1,1.0,0.26959999999985484
380,1,0.8,0.125,-35.0,-1,1.0,0.25759999999991123
381,1,0.8,0.25,-35.0,-1,1.0,0.21229999999991378
382,1,0.8,0.125,-35.0,-1,1.0,0.25119999999992615
383,1,0.8,1.0,-35.0,-1,1.0,0.25099999999997635
384,1,0.8,0.25,-35.0,-1,1.0,0.21430000000009386
385,1,0.8,1.0,-35.0,-1,1.0,0.19079999999985375
386,1,0.8,0.125,35.0,1,1.0,9.96979999999985
387,1,0.8,0.0625,-35.0,-1,1.0,9.306900000000041
388,1,0.8,1.0,35.0,1,1.0,0.44449999999983447
389,1,0.8,0.25,-35.0,1,0.0,11.118000000000166
390,1,0.8,0.0625,-35.0,0,0.0,59.935799999999745
391,1,0.8,1.0,-35.0,-1,1.0,0.058899999999766806
392,1,0.8,0.25,-35.0,-1,1.0,3.8230999999998403
393,1,0.8,0.0625,-35.0,-1,1.0,4.959499999999707
394,1,0.8,0.125,-35.0,-1,1.0,3.986799999999903
395,1,0.8,1.0,-35.0,-1,1.0,0.18200000000001637
396,1,0.2,0.0625,35.0,-1,0.0,4.6568999999999505
397,1,0.2,0.125,35.0,-1,0.0,5.246799999999666
398,1,0.2,0.25,-35.0,-1,1.0,12.086899999999787
399,1,0.2,1.0,35.0,-1,0.0,57.10319999999979
400,1,0.2,1.0,-35.0,-1,1.0,7.5849000000000615
401,1,0.2,0.125,35.0,0,0.0,59.942800000000034
402,1,0.2,1.0,35.0,1,1.0,19.650499999999965
403,1,0.2,0.0625,35.0,1,1.0,2.2735999999999876
404,1,0.2,0.125,35.0,1,1.0,3.3468999999997777
405,1,0.2,0.25,-35.0,-1,1.0,0.23029999999994288
406,1,0.2,0.0625,35.0,1,1.0,0.24709999999981846
407,1,0.2,0.0,35.0,1,1.0,7.70049999999992
408,1,0.2,0.25,35.0,1,1.0,-0.045900000000074215
409,1,0.2,0.125,35.0,1,1.0,4.43080000000009
410,1,0.2,0.125,35.0,1,1.0,0.35760000000004766
411,1,0.2,0.0,35.0,1,1.0,3.7242999999998574
412,1,0.2,0.0625,35.0,1,1.0,0.26779999999985193
413,1,0.2,0.0,35.0,1,1.0,0.23789999999985412
414,1,0.2,0.0625,35.0,1,1.0,0.2578999999998359
415,1,0.2,0.125,35.0,1,1.0,0.23799999999982901
416,1,0.2,0.0,35.0,1,1.0,0.5612999999998465
417,1,0.2,1.0,-35.0,-1,1.0,0.2115000000001146
418,1,0.2,0.0625,35.0,1,1.0,0.2481000000000222
419,1,0.2,1.0,35.0,1,1.0,0.16829999999981737
420,1,0.2,0.0,-35.0,1,0.0,35.9516000000001
421,1,0.8,0.25,-35.0,-1,1.0,0.27919999999994616
422,1,0.8,0.25,-35.0,-1,1.0,0.20920000000000982
423,1,0.8,0.25,-35.0,-1,1.0,0.25919999999996435
424,1,0.8,1.0,-35.0,-1,1.0,0.21929999999974825
425,1,0.8,0.0625,-35.0,-1,1.0,0.656099999999924
426,1,0.8,0.0625,-35.0,-1,1.0,0.22949999999968895
427,1,0.8,0.25,35.0,1,1.0,0.21959999999990032
428,1,0.8,1.0,-35.0,-1,1.0,0.22289999999998145
429,1,0.8,0.125,-35.0,-1,1.0,0.20289999999977226
430,1,0.8,0.125,-35.0,-1,1.0,0.23959999999988213
431,1,0.8,0.125,-35.0,-1,1.0,0.21969999999987522
432,1,0.8,0.125,35.0,1,1.0,0.24309999999991305
433,1,0.8,0.125,-35.0,-1,1.0,0.8830999999997857
434,1,0.8,0.25,35.0,1,1.0,0.23669999999992797
435,1,0.8,1.0,-35.0,-1,1.0,0.22669999999993706
436,1,0.8,0.0625,-35.0,-1,1.0,1.0699999999999363
437,1,0.8,0.0625,-35.0,-1,1.0,2.386799999999994
438,1,0.8,0.125,-35.0,1,0.0,5.186799999999948
439,1,0.8,0.25,-35.0,-1,1.0,0.3269999999997708
440,1,0.8,0.125,-35.0,-1,1.0,0.25040000000012697
441,1,0.8,0.0,-35.0,1,0.0,4.0170999999998
442,1,0.8,0.0625,-35.0,-1,1.0,31.11719999999991
443,1,0.8,1.0,-35.0,-1,1.0,0.16459999999983665
444,1,0.8,0.0625,-35.0,1,0.0,0.21459999999979118
445,1,0.8,0.25,-35.0,-1,1.0,0.26149999999984175
446,1,0.8,0.0625,-35.0,-1,1.0,0.41479999999978645
447,1,0.8,0.25,-35.0,-1,1.0,0.2016999999998461
448,1,0.8,0.25,-35.0,-1,1.0,0.16499999999996362
449,1,0.8,0.0625,-35.0,-1,1.0,0.17849999999998545
450,1,0.8,0.0625,-35.0,-1,1.0,0.34849999999983083
451,1,0.8,0.125,-35.0,-1,1.0,0.22169999999982792
452,1,0.8,1.0,-35.0,-1,1.0,0.18849999999997635
453,1,0.8,0.125,-35.0,-1,1.0,0.2784999999998945
454,1,0.8,0.0625,-35.0,-1,1.0,0.2785999999998694
455,1,0.8,1.0,-35.0,-1,1.0,0.21539999999981774
456,1,0.8,0.125,-35.0,-1,1.0,8.79560000000015
457,1,0.8,1.0,-35.0,-1,1.0,0.17229999999995016
458,1,0.8,1.0,-35.0,-1,1.0,0.22229999999990468
459,1,0.8,0.125,-35.0,-1,1.0,4.029099999999971
460,1,0.8,0.25,-35.0,-1,1.0,0.20919999999978245
461,1,0.8,0.25,-35.0,-1,1.0,0.28919999999993706
462,1,0.8,1.0,-35.0,-1,1.0,0.19260000000008404
463,1,0.8,1.0,35.0,1,1.0,0.5393999999998869
464,1,0.8,0.125,35.0,1,1.0,0.32290000000011787
465,1,0.2,0.125,-35.0,-1,1.0,8.476198999999951
466,1,0.2,0.0625,35.0,1,1.0,0.4864000000000033
467,1,0.2,1.0,-35.0,-1,1.0,0.1797999999998865
468,1,0.2,0.25,-35.0,-1,1.0,10.233199999999897
469,1,0.2,0.0,35.0,-1,0.0,0.6334999999999127
470,1,0.2,0.125,-35.0,-1,1.0,2.8601999999996224
471,1,0.2,0.125,35.0,1,1.0,6.4068999999999505
472,1,0.2,0.125,35.0,1,1.0,5.1172999999998865
473,1,0.2,0.25,35.0,1,1.0,0.2739999999998872
474,1,0.2,1.0,35.0,1,1.0,0.20070000000009713
1,2,0.5,0.25,35.0,1,1.0,8.7064
2,2,0.5,0.125,35.0,-1,0.0,0.8545999999999996
3,2,0.5,0.0625,35.0,1,1.0,0.6103000000000005
4,2,0.5,0.0,-35.0,-1,1.0,0.12630000000000408
5,2,0.5,1.0,-35.0,-1,1.0,0.2653999999999961
6,2,0.5,0.25,-35.0,-1,1.0,0.37099999999999866
7,2,0.5,0.125,-35.0,-1,1.0,2.0300999999999974
8,2,0.5,0.25,35.0,1,1.0,0.43299999999999983
9,2,0.5,0.0,-35.0,-1,1.0,1.8463999999999956
10,2,0.5,0.0625,35.0,-1,0.0,0.5075000000000003
11,2,0.5,0.25,-35.0,-1,1.0,4.262700000000002
12,2,0.5,0.0625,-35.0,1,0.0,0.20880000000000365
13,2,0.5,0.0625,35.0,1,1.0,5.535700000000006
14,2,0.5,1.0,-35.0,-1,1.0,0.22240000000000748
15,2,0.5,0.25,35.0,1,1.0,0.3650999999999982
16,2,0.5,0.0625,35.0,-1,0.0,2.746600000000008
17,2,0.5,0.125,-35.0,-1,1.0,0.7586999999999904
18,2,0.5,1.0,-35.0,-1,1.0,0.2132000000000005
19,2,0.5,0.25,-35.0,-1,1.0,2.789199999999994
20,2,0.5,0.0625,35.0,-1,0.0,3.4720000000000084
21,2,0.5,1.0,-35.0,-1,1.0,9.956900000000005
22,2,0.5,0.25,-35.0,-1,1.0,1.4928000000000026
23,2,0.5,0.0625,-35.0,1,0.0,14.946600000000004
24,2,0.5,0.125,-35.0,1,0.0,0.4767999999999972
25,2,0.5,1.0,-35.0,-1,1.0,0.2974000000000103
26,2,0.5,1.0,-35.0,-1,1.0,0.2103000000000037
27,2,0.5,0.125,35.0,1,1.0,0.4113999999999862
28,2,0.5,0.25,35.0,1,1.0,0.3889000000000067
29,2,0.5,0.25,35.0,1,1.0,0.30690000000001305
30,2,0.5,1.0,-35.0,-1,1.0,0.23220000000000596
31,2,0.5,0.25,35.0,1,1.0,3.2158999999999764
32,2,0.5,0.0,-35.0,1,0.0,0.2504990000000191
33,2,0.5,0.0625,-35.0,1,0.0,0.46340000000000714
34,2,0.5,0.25,35.0,1,1.0,5.333100000000002
35,2,0.5,0.0,-35.0,1,0.0,7.414200000000022
36,2,0.5,0.25,-35.0,-1,1.0,9.776999999999987
37,2,0.5,0.25,35.0,1,1.0,0.454400000000021
38,2,0.5,0.125,-35.0,-1,1.0,0.45839999999998327
39,2,0.5,1.0,35.0,1,1.0,0.2744999999999891
40,2,0.5,0.0,-35.0,-1,1.0,0.9285000000000139
41,2,0.5,0.125,-35.0,-1,1.0,0.30320000000003233
42,2,0.5,0.0625,-35.0,-1,1.0,0.7524999999999693
43,2,0.5,0.0625,35.0,-1,0.0,3.9742999999999995
44,2,0.5,0.0,35.0,1,1.0,0.36180000000001655
45,2,0.5,0.25,-35.0,-1,1.0,0.010699999999985721
46,2,0.5,0.125,-35.0,1,0.0,4.125200000000007
47,2,0.5,0.0625,-35.0,-1,1.0,6.936000000000007
48,2,0.5,0.0625,35.0,1,1.0,5.511799999999994
49,2,0.5,0.0,-35.0,1,0.0,0.35009999999999764
50,2,0.5,0.0625,35.0,1,1.0,8.76649999999998
51,2,0.5,1.0,35.0,1,1.0,1.033200000000022
52,2,0.5,0.125,35.0,1,1.0,8.900199999999984
53,2,0.5,1.0,-35.0,-1,1.0,0.2903999999999769
54,2,0.5,0.0625,-35.0,-1,1.0,0.3310999999999922
55,2,0.5,1.0,35.0,1,1.0,0.24629999999996244
56,2,0.5,1.0,35.0,1,1.0,0.22929999999996653
57,2,0.5,1.0,-35.0,-1,1.0,0.2448999999999728
58,2,0.5,0.125,35.0,1,1.0,0.27600000000001046
59,2,0.5,0.125,-35.0,-1,1.0,0.4414000000000442
60,2,0.5,0.125,35.0,1,1.0,0.35909999999995534
61,2,0.5,1.0,-35.0,-1,1.0,0.2644999999999982
62,2,0.5,1.0,-35.0,-1,1.0,0.2369000000000483
63,2,0.5,0.25,35.0,1,1.0,4.649400000000014
64,2,0.5,0.25,-35.0,-1,1.0,0.2691000000000372
65,2,0.5,0.0625,35.0,1,1.0,4.087100000000021
66,2,0.5,0.25,-35.0,-1,1.0,0.2439000000000533
67,2,0.5,0.125,-35.0,-1,1.0,3.556600000000003
68,2,0.5,0.0625,-35.0,1,0.0,3.1524
69,2,0.5,0.0625,35.0,1,1.0,0.31850000000002865
70,2,0.5,1.0,-35.0,-1,1.0,0.2189000000000192
71,2,0.5,0.25,-35.0,-1,1.0,0.46359999999998536
72,2,0.5,0.25,-35.0,-1,1.0,0.2582989999999654
73,2,0.5,1.0,-35.0,-1,1.0,0.21209999999996398
74,2,0.5,1.0,-35.0,-1,1.0,0.24610000000001264
75,2,0.5,0.0,-35.0,1,0.0,8.349899999999991
76,2,0.5,1.0,35.0,1,1.0,0.3054000000000201
77,2,0.5,1.0,-35.0,-1,1.0,0.408800000000042
78,2,0.5,0.0,35.0,-1,0.0,17.066399999999987
79,2,0.5,0.25,-35.0,-1,1.0,0.2159000000000333
80,2,0.5,0.0,-35.0,-1,1.0,29.81540000000001
81,2,0.5,0.0625,35.0,1,1.0,24.21199999999999
82,2,0.5,1.0,-35.0,-1,1.0,0.1493000000000393
83,2,0.5,0.125,35.0,1,1.0,0.23120000000000118
84,2,0.5,0.0,35.0,-1,0.0,2.0649999999999977
85,2,0.5,1.0,35.0,-1,0.0,8.222800000000007
86,2,0.5,1.0,35.0,1,1.0,16.457299999999975
87,2,0.5,1.0,35.0,-1,0.0,0.11489999999997735
88,2,0.5,1.0,-35.0,-1,1.0,0.2259999999999991
89,2,0.5,0.125,35.0,1,1.0,8.778300000000002
90,2,0.5,1.0,35.0,1,1.0,0.19530000000003156
91,2,0.2,0.0625,-35.0,1,0.0,2.9003000000000156
92,2,0.2,0.0,35.0,1,1.0,4.8718000000000075
93,2,0.2,0.0,35.0,1,1.0,7.987099999999941
94,2,0.2,0.125,35.0,1,1.0,0.2636999999999716
95,2,0.2,0.25,35.0,-1,0.0,9.284400000000005
96,2,0.2,1.0,35.0,1,1.0,1.54200000000003
97,2,0.2,1.0,35.0,1,1.0,1.270800000000122
98,2,0.2,0.25,35.0,1,1.0,12.070500000000038
99,2,0.2,0.25,35.0,1,1.0,15.353399999999965
100,2,0.2,0.125,35.0,-1,0.0,11.586999999999875
101,2,0.2,0.0,-35.0,-1,1.0,20.31619999999998
102,2,0.2,0.25,35.0,1,1.0,0.4497000000000071
103,2,0.2,0.0,-35.0,1,0.0,2.618400000000065
104,2,0.2,1.0,35.0,1,1.0,0.4440999999999349
105,2,0.2,1.0,35.0,1,1.0,0.1974999999999909
106,2,0.2,0.25,35.0,1,1.0,1.4995999999999867
107,2,0.2,0.0625,35.0,1,1.0,0.2320999999999458
108,2,0.2,0.125,35.0,1,1.0,0.27049999999997
109,2,0.2,1.0,35.0,1,1.0,0.26120000000003074
110,2,0.2,0.125,35.0,1,1.0,0.024800000000027467
111,2,0.2,0.25,35.0,1,1.0,0.2545999999999822
112,2,0.2,0.25,35.0,1,1.0,0.2519000000000915
113,2,0.2,1.0,35.0,1,1.0,0.23340000000007421
114,2,0.2,0.125,35.0,1,1.0,0.25329999999996744
115,2,0.2,1.0,35.0,1,1.0,0.27870000000007167
116,2,0.2,0.0625,35.0,1,1.0,0.29769999999996344
117,2,0.2,0.125,35.0,1,1.0,0.3284999999999627
118,2,0.2,1.0,-35.0,-1,1.0,0.6381999999999834
119,2,0.2,1.0,35.0,1,1.0,0.27739999999994325
120,2,0.2,1.0,35.0,1,1.0,0.32580000000007203
121,2,0.2,0.25,35.0,1,1.0,2.5211000000000467
122,2,0.2,1.0,35.0,1,1.0,0.2136000000000422
123,2,0.2,0.0,35.0,1,1.0,2.0434999999999945
124,2,0.2,0.25,35.0,1,1.0,2.929200000000037
125,2,0.2,0.0,-35.0,1,0.0,3.062999999999988
126,2,0.2,1.0,35.0,1,1.0,0.18830000000002656
127,2,0.2,0.125,35.0,1,1.0,0.28930000000002565
128,2,0.2,0.0625,35.0,1,1.0,9.039600000000064
129,2,0.2,0.0,-35.0,1,0.0,7.07890000000009
130,2,0.2,0.125,-35.0,-1,1.0,0.8300999999999021
131,2,0.2,0.0,35.0,-1,0.0,10.202800000000025
132,2,0.2,0.0625,35.0,1,1.0,0.9461000000000013
133,2,0.2,1.0,35.0,1,1.0,0.2541999999999689
134,2,0.2,0.125,35.0,1,1.0,0.2478999999999587
135,2,0.2,1.0,35.0,1,1.0,0.2154000000000451
136,2,0.2,0.0625,35.0,1,1.0,4.8904999999999745
137,2,0.2,1.0,-35.0,-1,1.0,0.22079999999994016
138,2,0.2,0.0625,-35.0,1,0.0,1.2261999999999489
139,2,0.2,0.0,35.0,-1,0.0,0.30910000000005766
140,2,0.2,0.0625,35.0,1,1.0,0.20669999999995525
141,2,0.2,0.125,35.0,1,1.0,0.2560999999999467
142,2,0.2,0.125,-35.0,-1,1.0,0.26120000000003074
143,2,0.2,0.25,35.0,1,1.0,0.23820000000000618
144,2,0.2,0.125,-35.0,-1,1.0,0.36230000000000473
145,2,0.2,0.25,35.0,1,1.0,0.4494000000000824
146,2,0.2,1.0,35.0,1,1.0,0.2824000000000524
147,2,0.2,0.25,35.0,1,1.0,5.975800000000049
148,2,0.2,0.125,-35.0,-1,1.0,1.0573000000000548
149,2,0.2,0.25,35.0,1,1.0,0.5512999999999693
150,2,0.2,0.0,35.0,-1,0.0,6.557099999999878
151,2,0.2,1.0,35.0,1,1.0,0.19059999999990396
152,2,0.2,0.25,-35.0,-1,1.0,1.0383000000000493
153,2,0.2,0.125,35.0,1,1.0,6.04849999999999
154,2,0.2,0.0625,35.0,1,1.0,16.4443
155,2,0.2,0.0,-35.0,-1,1.0,6.095400000000041
156,2,0.2,1.0,35.0,1,1.0,0.2976000000001022
157,2,0.2,0.0625,35.0,1,1.0,3.0073999999999614
158,2,0.2,0.0625,35.0,1,1.0,6.669499999999971
159,2,0.2,1.0,35.0,1,1.0,0.22079999999994016
160,2,0.2,1.0,35.0,1,1.0,0.18799999999998818
161,2,0.2,0.0625,-35.0,1,0.0,2.9570999999999685
162,2,0.2,0.0625,35.0,1,1.0,0.9296000000000504
163,2,0.2,0.125,35.0,1,1.0,0.2441000000000031
164,2,0.2,1.0,35.0,1,1.0,0.24000000000012278
165,2,0.2,1.0,-35.0,-1,1.0,0.19040000000006785
166,2,0.2,0.25,35.0,1,1.0,0.2685999999999922
167,2,0.2,1.0,35.0,1,1.0,0.24010000000009768
168,2,0.2,0.0625,-35.0,1,0.0,5.83299999999997
169,2,0.2,0.0,35.0,1,1.0,0.3120999999999867
170,2,0.2,0.125,-35.0,1,0.0,9.80320000000006
171,2,0.8,1.0,35.0,1,1.0,0.2820000000000391
172,2,0.8,0.25,35.0,-1,0.0,0.12990000000002055
173,2,0.8,0.25,35.0,1,1.0,5.400300000000016
174,2,0.8,0.125,35.0,1,1.0,0.29169999999999163
175,2,0.8,0.0625,-35.0,-1,1.0,0.5244000000000142
176,2,0.8,0.125,-35.0,-1,1.0,0.3201999999999998
177,2,0.8,0.125,-35.0,-1,1.0,0.4471999999999525
178,2,0.8,0.0625,-35.0,1,0.0,3.2179000000000997
179,2,0.8,0.125,-35.0,-1,1.0,0.2863999999999578
180,2,0.8,0.0625,-35.0,-1,1.0,0.27880000000004657
181,2,0.8,0.25,-35.0,-1,1.0,0.29319999999995616
182,2,0.8,1.0,-35.0,-1,1.0,0.21460000000001855
183,2,0.8,0.125,-35.0,-1,1.0,0.2992989999999054
184,2,0.8,0.125,35.0,1,1.0,3.2776000000000067
185,2,0.8,1.0,35.0,1,1.0,0.19519999999999982
186,2,0.8,0.125,-35.0,-1,1.0,1.7981999999999516
187,2,0.8,1.0,-35.0,-1,1.0,0.3466000000000804
188,2,0.8,0.25,-35.0,-1,1.0,1.7166999999999462
189,2,0.8,0.0,-35.0,-1,1.0,2.690099999999916
190,2,0.8,0.125,-35.0,-1,1.0,0.24699999999995725
191,2,0.8,0.125,-35.0,-1,1.0,0.25690000000008695
192,2,0.8,0.0625,-35.0,-1,1.0,3.076999999999998
193,2,0.8,0.125,35.0,1,1.0,0.27710000000001855
194,2,0.8,0.125,-35.0,-1,1.0,0.36380000000008295
195,2,0.8,0.25,35.0,1,1.0,0.3238000000001193
196,2,0.8,0.25,-35.0,-1,1.0,0.2238999999999578
197,2,0.8,0.125,35.0,1,1.0,0.2773000000001957
198,2,0.8,0.0,-35.0,1,0.0,3.9839999999999236
199,2,0.8,0.25,-35.0,-1,1.0,0.2575000000001637
200,2,0.8,0.0,-35.0,1,0.0,0.31759999999985666
201,2,0.8,0.125,-35.0,-1,1.0,0.25759999999991123
202,2,0.8,0.0625,-35.0,-1,1.0,2.3343999999999596
203,2,0.8,1.0,-35.0,-1,1.0,0.22790000000009059
204,2,0.8,1.0,-35.0,-1,1.0,0.22779999999988831
205,2,0.8,0.25,-35.0,-1,1.0,0.41460000000006403
206,2,0.8,1.0,35.0,1,1.0,0.47460000000000946
207,2,0.8,0.25,-35.0,-1,1.0,2.4213999999999487
208,2,0.8,0.25,35.0,1,1.0,0.2481000000000222
209,2,0.8,0.125,-35.0,-1,1.0,2.5148999999998978
210,2,0.8,0.25,-35.0,-1,1.0,0.24499999999989086
211,2,0.8,0.125,35.0,1,1.0,6.668300000000045
212,2,0.8,0.0,-35.0,1,0.0,4.831899999999905
213,2,0.8,0.125,-35.0,-1,1.0,0.3852999999999156
214,2,0.8,0.0625,35.0,1,1.0,0.30529999999998836
215,2,0.8,0.0,-35.0,1,0.0,10.178699999999935
216,2,0.8,0.25,-35.0,-1,1.0,0.4723989999999958
217,2,0.8,1.0,-35.0,-1,1.0,0.18239999999991596
218,2,0.8,0.0,-35.0,-1,1.0,0.8857999999997901
219,2,0.8,1.0,-35.0,-1,1.0,0.5225000000000364
220,2,0.8,0.25,-35.0,-1,1.0,8.332699999999932
221,2,0.8,1.0,-35.0,-1,1.0,0.13619999999991705
222,2,0.8,0.125,35.0,1,1.0,4.029599999999846
223,2,0.8,0.125,-35.0,-1,1.0,0.28310000000010405
224,2,0.8,0.25,-35.0,-1,1.0,0.45650000000000546
225,2,0.8,0.0,-35.0,1,0.0,5.203199999999924
226,2,0.8,0.25,-35.0,-1,1.0,0.5533000000000357
227,2,0.8,1.0,-35.0,-1,1.0,0.24329999999986285
228,2,0.8,0.0,-35.0,1,0.0,1.0869000000000142
229,2,0.2,0.125,35.0,1,1.0,0.3602000000000771
230,2,0.2,1.0,35.0,1,1.0,0.4902999999999338
231,2,0.2,0.125,35.0,1,1.0,5.900300000000016
232,2,0.2,0.0,35.0,1,1.0,0.20049999999991996
233,2,0.2,0.0625,35.0,1,1.0,3.9206000000001495
234,2,0.2,1.0,-35.0,1,0.0,0.320699999999988
235,2,0.2,0.125,35.0,1,1.0,0.35410000000001673
236,2,0.2,0.0625,-35.0,1,0.0,0.3875000000000455
237,2,0.2,0.125,35.0,1,1.0,0.32760000000007494
238,2,0.2,0.0625,-35.0,1,0.0,4.000999999999976
239,2,0.2,1.0,35.0,1,1.0,4.367799999999988
240,2,0.2,0.25,-35.0,-1,1.0,2.1447000000002845
241,2,0.2,0.0,35.0,1,1.0,6.891399999999976
242,2,0.2,0.0625,35.0,1,1.0,0.2617000000000189
243,2,0.2,0.0,35.0,1,1.0,10.738400000000183
244,2,0.2,0.25,35.0,1,1.0,1.381900000000087
245,2,0.2,0.25,35.0,1,1.0,0.24870000000009895
246,2,0.2,0.0,35.0,1,1.0,19.05880000000002
247,2,0.2,0.25,-35.0,-1,1.0,0.21260000000006585
248,2,0.2,0.25,35.0,1,1.0,0.24930000000017571
249,2,0.2,1.0,35.0,1,1.0,0.1993999999999687
250,2,0.2,0.0,35.0,-1,0.0,13.326100000000224
251,2,0.2,0.125,35.0,1,1.0,0.19640000000026703
252,2,0.2,0.125,35.0,1,1.0,0.3464999999998781
253,2,0.2,0.0625,35.0,1,1.0,0.28650000000016007
254,2,0.2,0.125,35.0,1,1.0,0.6099000000001524
255,2,0.2,0.0,35.0,1,1.0,0.30989999999997053
256,2,0.2,0.25,35.0,1,1.0,0.27350000000001273
257,2,0.2,1.0,35.0,1,1.0,0.2501999999999498
258,2,0.2,0.125,-35.0,-1,1.0,2.350200000000086
259,2,0.2,0.25,35.0,1,1.0,0.24359999999978754
260,2,0.2,0.125,-35.0,-1,1.0,0.28700000000003456
261,2,0.2,0.25,35.0,1,1.0,0.42039999999997235
262,2,0.2,0.0,35.0,-1,0.0,4.70049999999992
263,2,0.2,1.0,35.0,1,1.0,0.2705000000000837
264,2,0.2,1.0,35.0,1,1.0,0.2840000000001055
265,2,0.2,0.125,35.0,1,1.0,0.3105999999997948
266,2,0.2,1.0,35.0,1,1.0,0.324100000000044
267,2,0.2,0.125,35.0,1,1.0,14.760899999999992
268,2,0.2,0.0625,35.0,1,1.0,0.9577999999999065
269,2,0.2,0.25,35.0,1,1.0,0.6677999999999429
270,2,0.2,0.25,35.0,1,1.0,0.19459999999980937
271,2,0.2,0.125,35.0,1,1.0,2.758000000000038
272,2,0.2,0.0625,35.0,1,1.0,0.4614000000001397
273,2,0.2,0.25,35.0,1,1.0,3.6783000000000357
274,2,0.2,0.0,35.0,-1,0.0,3.141800000000103
275,2,0.2,0.25,35.0,1,1.0,4.978600000000142
276,2,0.2,0.0,35.0,1,1.0,0.1553999999998723
277,2,0.2,0.125,35.0,-1,0.0,4.295000000000073
278,2,0.2,0.125,35.0,-1,0.0,3.2117000000000644
279,2,0.2,1.0,-35.0,-1,1.0,0.32310000000006767
280,2,0.2,1.0,35.0,1,1.0,0.31549999999992906
281,2,0.2,0.25,-35.0,-1,1.0,2.2228000000000065
282,2,0.2,0.0625,35.0,-1,0.0,4.083300000000008
283,2,0.2,0.125,35.0,1,1.0,0.20450000000005275
284,2,0.2,0.125,35.0,1,1.0,2.029800000000023
285,2,0.2,1.0,35.0,1,1.0,1.5823990000001231
286,2,0.2,0.125,-35.0,-1,1.0,0.5894000000000688
287,2,0.2,0.25,35.0,1,1.0,0.2540999999998803
288,2,0.2,0.0625,35.0,1,1.0,5.471499999999878
289,2,0.2,1.0,35.0,1,1.0,0.9317000000000917
290,2,0.2,0.125,-35.0,-1,1.0,0.4575999999999567
291,2,0.2,1.0,-35.0,-1,1.0,0.1975999999999658
292,2,0.2,0.125,35.0,1,1.0,0.2742999999998119
293,2,0.2,0.0625,35.0,1,1.0,3.3957000000000335
294,2,0.2,0.125,35.0,1,1.0,2.8282000000001517
295,2,0.2,0.0625,35.0,1,1.0,0.3067000000000917
296,2,0.2,0.0,35.0,1,1.0,0.3007999999999811
297,2,0.2,0.25,35.0,1,1.0,0.20010000000002037
298,2,0.2,0.125,35.0,1,1.0,4.257000000000062
299,2,0.2,0.25,35.0,1,1.0,1.411200000000008
300,2,0.2,1.0,35.0,1,1.0,0.447400000000016
301,2,0.2,0.125,35.0,1,1.0,10.048700000000053
302,2,0.2,0.0625,35.0,1,1.0,2.617100000000164
303,2,0.2,0.25,35.0,-1,0.0,3.6458000000000084
304,2,0.2,0.0,35.0,-1,0.0,58.0791999999999
305,2,0.2,0.0625,35.0,-1,0.0,0.7162999999998192
306,2,0.8,0.25,-35.0,-1,1.0,0.2501999999999498
307,2,0.8,0.125,-35.0,-1,1.0,0.90629899999999
308,2,0.8,0.0625,-35.0,-1,1.0,1.6128999999998541
309,2,0.8,0.0625,35.0,1,1.0,0.7098000000000866
310,2,0.8,1.0,-35.0,-1,1.0,1.603900000000067
311,2,0.8,0.25,-35.0,-1,1.0,3.560999999999922
312,2,0.8,0.25,-35.0,-1,1.0,-0.013100000000122236
313,2,0.8,1.0,-35.0,-1,1.0,0.18610000000012406
314,2,0.8,1.0,35.0,1,1.0,0.24499999999989086
315,2,0.8,0.25,-35.0,-1,1.0,2.769999999999982
316,2,0.8,1.0,-35.0,-1,1.0,0.7749999999998636
317,2,0.8,0.125,35.0,1,1.0,3.2777000000000953
318,2,0.8,0.0625,-35.0,-1,1.0,3.330799999999954
319,2,0.8,0.25,-35.0,-1,1.0,0.4781000000000404
320,2,0.8,0.125,-35.0,-1,1.0,0.252100000000155
321,2,0.8,0.0625,35.0,-1,0.0,2.465400000000045
322,2,0.8,1.0,-35.0,-1,1.0,0.7994000000001051
323,2,0.8,0.125,-35.0,-1,1.0,4.5663999999999305
324,2,0.8,0.0625,-35.0,-1,1.0,2.1328000000000884
325,2,0.8,1.0,35.0,1,1.0,0.33960000000001855
326,2,0.8,0.0625,-35.0,1,0.0,2.2853999999999814
327,2,0.8,0.125,-35.0,-1,1.0,0.273600000000215
328,2,0.8,1.0,-35.0,-1,1.0,0.26559999999994943
329,2,0.8,1.0,-35.0,-1,1.0,0.25240000000007967
330,2,0.8,1.0,-35.0,-1,1.0,0.173200000000179
331,2,0.8,1.0,-35.0,-1,1.0,0.1698999999998705
332,2,0.8,0.25,-35.0,-1,1.0,0.1834000000001197
333,2,0.8,0.25,-35.0,-1,1.0,0.21339999999986503
334,2,0.8,0.25,-35.0,-1,1.0,0.20199999999999818
335,2,0.8,0.125,-35.0,-1,1.0,0.20470000000000255
336,2,0.8,1.0,-35.0,-1,1.0,0.23679999999990287
337,2,0.8,0.125,-35.0,-1,1.0,0.5531000000000859
338,2,0.8,0.0625,35.0,1,1.0,6.629800000000159
339,2,0.8,0.25,-35.0,-1,1.0,0.28280000000017935
340,2,0.8,0.25,-35.0,-1,1.0,0.730199999999968
341,2,0.8,0.25,-35.0,-1,1.0,0.4936000000000149
342,2,0.8,0.125,-35.0,-1,1.0,3.7509999999999764
343,2,0.8,0.0,-35.0,1,0.0,0.5257999999998901
344,2,0.8,0.0,-35.0,-1,1.0,4.992999999999938
345,2,0.8,0.25,-35.0,-1,1.0,0.14829999999983556
346,2,0.8,0.25,-35.0,-1,1.0,0.17709999999988213
347,2,0.8,1.0,-35.0,-1,1.0,0.26040000000011787
348,2,0.8,0.0625,-35.0,-1,1.0,7.688299999999799
349,2,0.8,0.125,-35.0,-1,1.0,2.805299999999761
350,2,0.8,0.125,-35.0,-1,1.0,2.752999999999929
351,2,0.8,1.0,-35.0,-1,1.0,3.0283999999999196
352,2,0.8,0.0,35.0,-1,0.0,3.5150999999998476
353,2,0.8,0.0625,-35.0,-1,1.0,3.138900000000149
354,2,0.8,0.125,35.0,-1,0.0,3.991600000000062
355,2,0.8,0.125,35.0,-1,0.0,1.7015000000001237
356,2,0.8,0.0625,-35.0,-1,1.0,0.10800000000017462
357,2,0.8,0.25,-35.0,-1,1.0,0.5391999999999371
358,2,0.8,0.0625,-35.0,1,0.0,2.4726000000000568
359,2,0.8,1.0,-35.0,-1,1.0,0.1687000000001717
360,2,0.8,0.0,-35.0,1,0.0,0.28719999999998436
361,2,0.8,0.0625,-35.0,-1,1.0,0.2518999999999778
362,2,0.8,0.0625,35.0,1,1.0,0.24610000000006949
363,2,0.8,0.0,-35.0,1,0.0,0.24630000000024665
364,2,0.8,1.0,-35.0,-1,1.0,0.6831999999999425
365,2,0.8,0.0625,-35.0,1,0.0,0.9284000000000106
366,2,0.8,1.0,-35.0,-1,1.0,0.7760000000000673
367,2,0.8,0.0625,-35.0,-1,1.0,3.734899999999925
368,2,0.8,0.0625,-35.0,1,0.0,0.2799999999999727
369,2,0.8,0.25,-35.0,-1,1.0,0.19709999999986394
370,2,0.8,1.0,-35.0,-1,1.0,3.3854999999998654
371,2,0.8,1.0,-35.0,-1,1.0,3.387200000000121
372,2,0.8,0.0625,-35.0,-1,1.0,1.4906000000000859
373,2,0.8,0.25,-35.0,-1,1.0,3.4192999999997937
374,2,0.8,0.0625,-35.0,1,0.0,5.3767999999997755
375,2,0.2,0.25,-35.0,-1,1.0,4.424099999999953
376,2,0.2,0.0,35.0,1,1.0,0.679300000000012
377,2,0.2,0.0,-0.0,0,0.0,59.936800000000176
378,2,0.2,0.125,35.0,1,1.0,0.09470000000010259
379,2,0.2,0.25,35.0,1,1.0,12.202400000000353
380,2,0.2,0.0625,35.0,-1,0.0,3.1261999999996988
381,2,0.2,0.0625,35.0,1,1.0,40.94529999999986
382,2,0.2,1.0,35.0,1,1.0,0.5435999999999694
383,2,0.2,1.0,35.0,1,1.0,0.3069000000000415
384,2,0.2,0.125,35.0,1,1.0,33.222699999999804
385,2,0.2,0.0625,-35.0,-1,1.0,16.31649999999945
386,2,0.2,0.0625,35.0,-1,0.0,0.9311999999999898
387,2,0.2,1.0,-35.0,-1,1.0,0.17370000000028085
388,2,0.2,0.125,35.0,1,1.0,5.005199999999604
389,2,0.2,0.125,35.0,1,1.0,1.8992999999995845
390,2,0.2,1.0,35.0,1,1.0,0.25569999999970605
391,2,0.2,0.125,35.0,1,1.0,0.5212999999994281
392,2,0.2,1.0,35.0,1,1.0,0.18539999999984502
393,2,0.2,0.125,35.0,1,1.0,0.31439999999975043
394,2,0.2,0.125,35.0,1,1.0,7.876999999999953
395,2,0.2,0.25,35.0,1,1.0,0.19159999999965294
396,2,0.2,0.125,35.0,1,1.0,2.7426000000000386
397,2,0.2,0.125,35.0,1,1.0,5.145599999999831
398,2,0.2,0.25,35.0,1,1.0,2.466099999999642
399,2,0.2,0.125,35.0,1,1.0,3.0234999999993306
400,2,0.2,0.0625,35.0,1,1.0,2.3670999999999367
401,2,0.2,0.125,35.0,1,1.0,7.496599999999944
402,2,0.2,1.0,35.0,1,1.0,2.829400000000078
403,2,0.2,0.25,35.0,1,1.0,2.4359999999996944
404,2,0.2,0.25,35.0,1,1.0,0.08389999999963038
405,2,0.2,0.0625,35.0,1,1.0,3.5262999999995372
406,2,0.2,0.0625,-35.0,-1,1.0,3.22649999999976
407,2,0.8,0.125,35.0,1,1.0,0.22659999999996217
408,2,0.8,0.25,35.0,1,1.0,0.4567000000001826
409,2,0.8,0.0625,35.0,1,1.0,0.48339999999961947
410,2,0.8,1.0,-35.0,-1,1.0,0.2201999999997497
411,2,0.8,1.0,35.0,1,1.0,0.24679999999943902
412,2,0.8,0.0625,35.0,1,1.0,0.48689999999987776
413,2,0.8,0.125,35.0,1,1.0,0.23689999999987776
414,2,0.8,0.25,-35.0,1,0.0,0.10029999999960637
415,2,0.8,0.25,-35.0,1,0.0,0.19050000000015643
416,2,0.8,1.0,-35.0,-1,1.0,0.24049999999988358
417,2,0.8,0.0625,-35.0,1,0.0,2.8205999999995583
418,2,0.8,0.125,-35.0,1,0.0,0.25409999999965294
419,2,0.8,0.25,-35.0,-1,1.0,0.30419999999958236
420,2,0.8,0.0,-35.0,1,0.0,0.2142999999996391
421,2,0.8,1.0,-35.0,-1,1.0,0.19430000000011205
422,2,0.8,0.0,-35.0,1,0.0,0.19769999999971333
423,2,0.8,0.125,35.0,1,1.0,0.22469999999975698
424,2,0.8,1.0,-35.0,-1,1.0,0.15459999999984575
425,2,0.8,0.125,-35.0,-1,1.0,0.2278999999998632
426,2,0.8,0.0625,-35.0,1,0.0,2.874699999999848
427,2,0.8,0.125,-35.0,-1,1.0,1.1715999999996711
428,2,0.8,0.0625,-35.0,-1,1.0,0.6948999999999614
429,2,0.8,0.25,-35.0,-1,1.0,0.20820000000003347
430,2,0.8,0.125,-35.0,1,0.0,0.6382999999996173
431,2,0.8,0.125,-35.0,-1,1.0,0.23840000000018335
432,2,0.8,1.0,-35.0,-1,1.0,0.2618999999999687
433,2,0.8,0.0625,-35.0,-1,1.0,0.18519999999989523
434,2,0.8,1.0,-35.0,-1,1.0,0.19200000000000728
435,2,0.8,0.25,35.0,1,1.0,0.2952999999997701
436,2,0.8,0.125,-35.0,-1,1.0,0.2387999999996282
437,2,0.8,0.0625,-35.0,1,0.0,3.122100000000046
438,2,0.8,0.0625,-35.0,-1,1.0,0.27569999999968786
439,2,0.8,0.0,-35.0,-1,1.0,0.15909999999985303
440,2,0.8,0.125,-35.0,-1,1.0,0.19249999999919964
441,2,0.8,0.0625,-35.0,-1,1.0,0.24589999999989232
442,2,0.8,0.0625,35.0,1,1.0,0.25260000000025684
443,2,0.8,0.0625,-35.0,-1,1.0,2.352600000000166
444,2,0.8,0.0625,35.0,-1,0.0,0.08609999999998763
445,2,0.8,0.0,-35.0,-1,1.0,5.379599999999755
446,2,0.8,0.125,-35.0,-1,1.0,0.7064000000000306
447,2,0.8,0.125,-35.0,-1,1.0,1.116399999999885
448,2,0.8,0.0625,-35.0,-1,1.0,1.2131999999996879
449,2,0.8,0.25,-35.0,-1,1.0,7.733299999999872
450,2,0.8,1.0,-35.0,-1,1.0,1.4569000000001324
451,2,0.8,0.25,35.0,-1,0.0,23.197000000000116
452,2,0.8,1.0,-35.0,-1,1.0,0.840900000000147
453,2,0.8,0.25,35.0,0,0.0,59.947599999999966
454,2,0.8,0.125,-35.0,0,0.0,59.93899999999985
455,2,0.8,0.25,-35.0,-1,1.0,0.25039999999944484
456,2,0.8,0.125,-35.0,0,0.0,59.956999999999425
457,2,0.8,0.0625,-35.0,1,0.0,51.01850000000013
458,2,0.8,0.25,35.0,-1,0.0,54.766200000000026
459,2,0.8,0.25,35.0,0,0.0,59.93399999999974
460,2,0.8,1.0,-35.0,-1,1.0,16.612999999999374
461,2,0.8,0.125,-35.0,-1,1.0,6.215900000000147
462,2,0.8,0.25,-35.0,-1,1.0,3.1960999999992055
463,2,0.8,0.125,-35.0,0,0.0,59.94639999999981
1,3,0.5,0.0625,35.0,1,1.0,9.359300000000001
2,3,0.5,1.0,35.0,1,1.0,0.28330000000000055
3,3,0.5,0.125,-35.0,-1,1.0,6.633300000000004
4,3,0.5,0.25,-35.0,1,0.0,8.5702
5,3,0.5,0.25,35.0,1,1.0,16.7438
6,3,0.5,1.0,-35.0,1,0.0,8.20580000000001
7,3,0.5,0.0625,-35.0,1,0.0,32.204499999999996
8,3,0.5,0.25,-35.0,1,0.0,14.698099999999997
9,3,0.5,0.125,35.0,1,1.0,30.40610000000001
10,3,0.5,1.0,-35.0,1,0.0,4.718200000000024
11,3,0.5,1.0,-35.0,-1,1.0,0.5571999999999946
12,3,0.5,0.25,-35.0,-1,1.0,22.277300000000025
13,3,0.5,0.0625,-35.0,-1,1.0,10.881599999999992
14,3,0.5,1.0,-35.0,1,0.0,6.362300000000005
15,3,0.5,1.0,35.0,1,1.0,0.2807999999999993
16,3,0.5,0.25,-35.0,-1,1.0,31.00460000000001
17,3,0.5,0.0625,-35.0,0,0.0,59.9443
18,3,0.5,0.0625,35.0,1,1.0,0.294399999999996
19,3,0.5,0.125,-35.0,-1,1.0,4.328900000000033
20,3,0.5,0.25,-35.0,1,0.0,16.90179999999998
21,3,0.5,0.25,-35.0,-1,1.0,3.960999999999956
22,3,0.5,0.0625,35.0,1,1.0,52.74340000000001
23,3,0.5,0.0625,-35.0,1,0.0,11.49509999999998
24,3,0.5,1.0,-35.0,-1,1.0,29.04509999999999
25,3,0.5,0.125,-35.0,-1,1.0,20.57869999999997
26,3,0.5,0.0625,35.0,-1,0.0,1.473099999999988
27,3,0.5,1.0,35.0,1,1.0,5.716200000000015
28,3,0.5,0.125,-35.0,-1,1.0,0.46090000000003783
29,3,0.5,0.25,35.0,1,1.0,0.2515000000000214
30,3,0.5,1.0,35.0,1,1.0,0.23029999999999973
31,3,0.5,0.125,35.0,1,1.0,4.725499000000013
32,3,0.5,0.25,-35.0,-1,1.0,0.5388000000000375
33,3,0.5,1.0,35.0,1,1.0,2.6864000000000487
34,3,0.5,0.25,-35.0,-1,1.0,2.6943999999999733
35,3,0.5,1.0,35.0,1,1.0,0.20260000000007494
36,3,0.5,0.25,-35.0,-1,1.0,0.35750000000007276
37,3,0.5,0.0625,35.0,-1,0.0,7.1247999999999365
38,3,0.5,0.125,35.0,1,1.0,5.97709999999995
39,3,0.5,0.0625,-35.0,-1,1.0,0.2156999999999698
40,3,0.5,0.0625,35.0,1,1.0,0.18909999999993943
41,3,0.5,1.0,-35.0,-1,1.0,0.30490000000008877
42,3,0.5,0.25,-35.0,-1,1.0,3.8537000000000035
43,3,0.5,0.125,-35.0,-1,1.0,0.6009000000000242
44,3,0.5,0.0625,35.0,1,1.0,3.828399999999988
45,3,0.5,0.0,35.0,1,1.0,4.028500000000008
46,3,0.5,0.125,35.0,1,1.0,0.2601000000000795
47,3,0.5,0.25,-35.0,-1,1.0,0.29720000000008895
48,3,0.5,0.25,-35.0,-1,1.0,0.323099999999954
49,3,0.5,0.0625,35.0,1,1.0,3.1521000000000186
50,3,0.5,1.0,-35.0,-1,1.0,0.397199999999998
51,3,0.5,0.25,35.0,1,1.0,7.62519999999995
52,3,0.5,0.25,35.0,1,1.0,17.25249999999994
53,3,0.5,0.125,-35.0,1,0.0,2.7735000000000127
54,3,0.5,0.0625,35.0,1,1.0,0.4518000000000484
55,3,0.5,0.125,35.0,1,1.0,3.3847999999999274
56,3,0.5,1.0,-35.0,-1,1.0,0.40210000000001855
57,3,0.5,0.0625,35.0,1,1.0,5.668699999999944
58,3,0.5,0.0625,35.0,1,1.0,0.7296999999999798
59,3,0.5,0.25,-35.0,-1,1.0,0.36569999999994707
60,3,0.5,0.0625,35.0,1,1.0,0.27769999999998163
61,3,0.5,0.0625,35.0,1,1.0,3.9464000000000397
62,3,0.5,0.125,-35.0,-1,1.0,0.547800000000052
63,3,0.5,0.125,35.0,1,1.0,0.27500000000009095
64,3,0.5,0.25,-35.0,-1,1.0,2.9261000000000195
65,3,0.5,1.0,-35.0,-1,1.0,0.1873000000000502
66,3,0.5,0.0,-35.0,1,0.0,0.2661000000000513
67,3,0.5,1.0,35.0,1,1.0,0.7876999999999725
68,3,0.5,1.0,-35.0,-1,1.0,1.2728000000000748
69,3,0.5,0.25,35.0,1,1.0,0.23309999999992215
70,3,0.5,0.0625,35.0,1,1.0,0.25509999999985666
71,3,0.5,0.0625,-35.0,-1,1.0,0.2817999999999756
72,3,0.5,0.0625,-35.0,1,0.0,4.011099999999942
73,3,0.5,1.0,35.0,1,1.0,0.27700000000004366
74,3,0.5,0.25,35.0,1,1.0,0.46890000000007603
75,3,0.5,1.0,35.0,1,1.0,0.3261999999999716
76,3,0.5,0.25,35.0,1,1.0,0.3952999999999065
77,3,0.5,0.0625,35.0,1,1.0,0.22039999999992688
78,3,0.5,1.0,-35.0,-1,1.0,0.22940000000005512
79,3,0.5,1.0,-35.0,-1,1.0,0.4247000000001435
80,3,0.5,0.0625,35.0,1,1.0,0.2644000000000233
81,3,0.5,0.25,35.0,1,1.0,1.1784000000000106
82,3,0.5,0.25,35.0,1,1.0,2.4972000000000207
83,3,0.5,0.0,35.0,1,1.0,5.189499999999953
84,3,0.5,0.125,35.0,1,1.0,0.1066000000000713
85,3,0.5,0.125,-35.0,-1,1.0,3.0077999999999747
86,3,0.5,0.0,35.0,1,1.0,0.20959999999990941
87,3,0.5,0.25,-35.0,-1,1.0,3.9692000000000007
88,3,0.5,0.25,-35.0,-1,1.0,0.2039999999999509
89,3,0.5,0.125,35.0,1,1.0,0.20870000000002165
90,3,0.5,0.25,35.0,1,1.0,0.9387000000000398
91,3,0.8,0.0625,-35.0,1,0.0,0.2596999999999525
92,3,0.8,0.125,-35.0,-1,1.0,0.40059999999994034
93,3,0.8,0.25,-35.0,-1,1.0,0.199999000000048
94,3,0.8,1.0,-35.0,-1,1.0,0.17099999999993543
95,3,0.8,0.125,35.0,1,1.0,0.25899999999990087
96,3,0.8,0.125,-35.0,-1,1.0,0.22100000000000364
97,3,0.8,0.0625,-35.0,1,0.0,0.258199999999988
98,3,0.8,0.0625,-35.0,-1,1.0,0.16099999999994452
99,3,0.8,0.125,-35.0,-1,1.0,0.2418999999999869
100,3,0.8,1.0,-35.0,-1,1.0,0.35590000000001965
101,3,0.8,1.0,-35.0,-1,1.0,1.192700000000059
102,3,0.8,0.0625,-35.0,-1,1.0,1.65300000000002
103,3,0.8,0.0625,-35.0,-1,1.0,0.5100999999999658
104,3,0.8,1.0,-35.0,-1,1.0,0.16809999999998126
105,3,0.8,0.0625,-35.0,-1,1.0,0.16769999999996799
106,3,0.8,0.0,-35.0,-1,1.0,0.16579999999999018
107,3,0.8,0.0625,-35.0,-1,1.0,1.6596999999999298
108,3,0.8,0.0625,-35.0,-1,1.0,0.2562999999998965
109,3,0.8,0.0625,-35.0,1,0.0,0.2642000000000735
110,3,0.8,0.25,-35.0,-1,1.0,0.17380000000002838
111,3,0.8,1.0,35.0,1,1.0,0.21289999999999054
112,3,0.8,0.0625,35.0,1,1.0,0.2603000000000293
113,3,0.8,0.0,-35.0,-1,1.0,2.7764000000000806
114,3,0.8,0.25,-35.0,-1,1.0,0.19459999999992306
115,3,0.8,1.0,-35.0,-1,1.0,0.19239999999990687
116,3,0.8,0.25,-35.0,-1,1.0,0.23540000000002692
117,3,0.8,0.25,-35.0,-1,1.0,4.152500000000032
118,3,0.8,0.0625,-35.0,-1,1.0,2.3745999999999867
119,3,0.8,0.0625,-35.0,-1,1.0,0.41820000000006985
120,3,0.8,0.0,-35.0,-1,1.0,1.7705999999999449
121,3,0.8,0.0625,35.0,-1,0.0,2.816000000000031
122,3,0.8,0.25,-35.0,-1,1.0,0.08569999999997435
123,3,0.8,0.0625,35.0,1,1.0,0.209699999999998
124,3,0.8,0.125,-35.0,-1,1.0,0.6730999999999767
125,3,0.8,0.125,-35.0,-1,1.0,1.965400000000045
126,3,0.8,0.25,-35.0,-1,1.0,3.084699999999998
127,3,0.8,1.0,-35.0,-1,1.0,2.446900000000028
128,3,0.8,0.25,-35.0,-1,1.0,0.3472999999999047
129,3,0.8,0.0625,-35.0,-1,1.0,4.931100000000015
130,3,0.8,0.0625,-35.0,-1,1.0,1.3138000000000147
131,3,0.8,0.0625,-35.0,-1,1.0,1.7011999999999716
132,3,0.8,0.125,-35.0,1,0.0,0.0990999999999076
133,3,0.8,0.25,-35.0,-1,1.0,0.5281999999999698
134,3,0.8,0.0625,-35.0,-1,1.0,2.056199999999876
135,3,0.8,1.0,-35.0,-1,1.0,0.4152000000000271
136,3,0.8,0.0625,-35.0,-1,1.0,2.0704000000000633
137,3,0.8,0.0625,-35.0,-1,1.0,1.762899999999945
138,3,0.8,0.0625,-35.0,-1,1.0,2.645999999999958
139,3,0.8,0.0625,-35.0,-1,1.0,2.4464000000000397
140,3,0.8,1.0,-35.0,-1,1.0,1.3663000000000238
141,3,0.8,0.125,-35.0,-1,1.0,2.0546000000000504
142,3,0.8,1.0,-35.0,-1,1.0,3.128500000000031
143,3,0.8,0.125,-35.0,-1,1.0,4.627299999999991
144,3,0.8,0.25,-35.0,-1,1.0,1.0337000000000671
145,3,0.8,0.25,-35.0,-1,1.0,2.598700000000008
146,3,0.8,0.125,-35.0,-1,1.0,3.7074000000001206
147,3,0.8,0.25,-35.0,-1,1.0,1.5738000000000056
148,3,0.8,0.25,-35.0,1,0.0,0.3470999999999549
149,3,0.8,1.0,-35.0,-1,1.0,0.26690000000007785
150,3,0.8,0.0625,-35.0,-1,1.0,10.044000000000096
151,3,0.8,0.0625,-35.0,-1,1.0,4.300899999999956
152,3,0.8,0.0625,-35.0,-1,1.0,0.70900000000006
153,3,0.8,0.125,-35.0,-1,1.0,0.2443999999998141
154,3,0.8,0.125,-35.0,-1,1.0,1.9210000000000491
155,3,0.8,0.0,-35.0,1,0.0,2.742899999999736
156,3,0.8,0.25,-35.0,-1,1.0,0.19419999999990978
157,3,0.8,0.0625,-35.0,-1,1.0,3.108199999999897
158,3,0.8,0.125,-35.0,-1,1.0,0.31740000000013424
159,3,0.8,0.125,35.0,1,1.0,2.4717000000000553
160,3,0.8,0.25,35.0,1,1.0,1.9850999999998749
161,3,0.8,0.125,35.0,1,1.0,11.417099999999891
162,3,0.8,0.125,-35.0,-1,1.0,0.32339999999999236
163,3,0.8,0.125,-35.0,1,0.0,2.0183999999999287
164,3,0.8,0.0,-35.0,1,0.0,0.31490000000007967
165,3,0.8,0.125,-35.0,-1,1.0,0.2315000000000964
166,3,0.8,1.0,-35.0,-1,1.0,0.3407999999999447
167,3,0.8,0.125,-35.0,-1,1.0,7.256599999999935
168,3,0.8,0.125,-35.0,-1,1.0,2.786399999999958
169,3,0.8,0.25,35.0,1,1.0,5.656600000000026
170,3,0.8,1.0,35.0,1,1.0,0.2132000000001426
171,3,0.8,1.0,-35.0,-1,1.0,0.19329999999990832
172,3,0.8,0.125,35.0,1,1.0,0.29480000000012296
173,3,0.8,1.0,-35.0,-1,1.0,0.18479999999999563
174,3,0.8,0.25,-35.0,-1,1.0,4.4331999999999425
175,3,0.8,0.25,-35.0,1,0.0,5.399900000000116
176,3,0.8,0.0625,-35.0,1,0.0,0.4023000000001957
177,3,0.8,0.0,-35.0,-1,1.0,4.815900000000056
178,3,0.8,0.0,-35.0,-1,1.0,0.7171000000000731
179,3,0.8,0.0625,-35.0,-1,1.0,0.11629999999991014
180,3,0.8,0.0625,35.0,-1,0.0,1.3890999999998712
181,3,0.8,0.125,-35.0,1,0.0,1.5112000000001444
182,3,0.8,0.0625,-35.0,1,0.0,1.6240999999999985
183,3,0.8,0.0625,-35.0,1,0.0,27.47050000000013
184,3,0.8,0.125,35.0,1,1.0,0.31749999999988177
185,3,0.2,0.0,35.0,1,1.0,15.494899999999916
186,3,0.2,0.25,35.0,1,1.0,0.21260000000006585
187,3,0.2,0.25,35.0,1,1.0,16.994699999999966
188,3,0.2,0.125,35.0,1,1.0,6.841500000000224
189,3,0.2,0.125,35.0,1,1.0,10.037899999999809
190,3,0.2,0.125,35.0,1,1.0,7.303000000000111
191,3,0.2,0.0625,-35.0,1,0.0,15.291200000000117
192,3,0.2,0.25,-35.0,-1,1.0,3.7795000000000982
193,3,0.2,1.0,-35.0,-1,1.0,0.18239999999991596
194,3,0.2,0.25,35.0,1,1.0,0.2243999999998323
195,3,0.2,0.125,35.0,1,1.0,12.388900000000149
196,3,0.2,0.125,35.0,1,1.0,2.408000000000129
197,3,0.2,0.0625,35.0,-1,0.0,24.286399999999958
198,3,0.2,0.0625,35.0,1,1.0,3.7807999999999993
199,3,0.2,1.0,35.0,1,1.0,1.6698989999999867
200,3,0.2,0.125,-35.0,-1,1.0,0.2255999999999858
201,3,0.2,1.0,35.0,1,1.0,7.834100000000035
202,3,0.2,0.25,35.0,1,1.0,12.300899999999956
203,3,0.2,0.0625,35.0,-1,0.0,33.47510000000011
204,3,0.2,0.125,-35.0,-1,1.0,7.838599999999815
205,3,0.2,0.25,35.0,1,1.0,4.449000000000069
206,3,0.8,0.0625,-35.0,1,0.0,5.521500000000287
207,3,0.8,1.0,35.0,-1,0.0,6.825800000000072
208,3,0.8,0.0625,-35.0,-1,1.0,5.886700000000019
209,3,0.8,0.25,35.0,-1,0.0,31.384199999999964
210,3,0.8,0.125,-35.0,-1,1.0,2.3452000000002045
211,3,0.8,0.0625,-35.0,-1,1.0,0.4048999999999978
212,3,0.8,0.125,-35.0,-1,1.0,0.564200000000028
213,3,0.8,0.0625,-35.0,-1,1.0,5.195199999999886
214,3,0.8,0.0625,-35.0,-1,1.0,2.7042999999998756
215,3,0.8,1.0,35.0,1,1.0,0.2777000000000953
216,3,0.8,0.0,-35.0,1,0.0,3.498299999999972
217,3,0.8,0.25,-35.0,-1,1.0,0.1874000000000251
218,3,0.8,0.0625,-35.0,-1,1.0,4.4547999999999774
219,3,0.8,0.125,-35.0,-1,1.0,0.4484999999997399
220,3,0.8,0.0625,-35.0,-1,1.0,4.278699999999844
221,3,0.8,0.0625,35.0,-1,0.0,4.717600000000175
222,3,0.8,0.25,-35.0,-1,1.0,2.8561999999999443
223,3,0.8,0.0625,-35.0,1,0.0,2.001700000000028
224,3,0.8,0.0625,-35.0,-1,1.0,2.685899999999947
225,3,0.8,0.0625,-35.0,-1,1.0,2.682700000000068
226,3,0.8,1.0,-35.0,-1,1.0,0.27280000000018845
227,3,0.8,0.0625,-35.0,-1,1.0,2.8534000000001924
228,3,0.8,0.25,35.0,1,1.0,0.26289999999994507
229,3,0.8,0.25,-35.0,-1,1.0,3.505100000000084
230,3,0.8,1.0,-35.0,-1,1.0,0.2460000000000946
231,3,0.8,0.125,-35.0,-1,1.0,0.193000000000211
232,3,0.8,0.125,35.0,1,1.0,0.3190999999999349
233,3,0.8,0.0,-35.0,1,0.0,5.993400000000065
234,3,0.8,1.0,-35.0,-1,1.0,0.15619999999989886
235,3,0.8,0.125,-35.0,-1,1.0,0.2881999999999607
236,3,0.8,0.25,-35.0,-1,1.0,0.23019999999996799
237,3,0.8,0.25,-35.0,-1,1.0,3.8771999999999025
238,3,0.8,0.0,-35.0,-1,1.0,2.6192000000000917
239,3,0.2,0.25,-35.0,-1,1.0,1.0243000000000393
240,3,0.2,1.0,35.0,1,1.0,0.21119999999996253
241,3,0.2,0.125,35.0,1,1.0,0.5554000000001906
242,3,0.2,1.0,35.0,1,1.0,0.6644000000001142
243,3,0.2,1.0,35.0,1,1.0,0.197400000000016
244,3,0.2,0.0625,35.0,1,1.0,0.20640000000003056
245,3,0.2,0.25,35.0,1,1.0,0.34849999999983083
246,3,0.2,0.0,35.0,1,1.0,0.27660000000014406
247,3,0.2,0.125,35.0,1,1.0,0.21690000000012333
248,3,0.2,1.0,35.0,1,1.0,0.26460000000020045
249,3,0.2,0.0,35.0,-1,0.0,1.4787000000001171
250,3,0.2,0.125,35.0,1,1.0,0.615099999999984
251,3,0.2,0.25,35.0,1,1.0,0.7389989999999216
252,3,0.2,0.125,35.0,1,1.0,0.20890000000008513
253,3,0.2,1.0,35.0,1,1.0,0.28910000000018954
254,3,0.2,0.0625,35.0,1,1.0,5.135700000000043
255,3,0.2,1.0,35.0,1,1.0,0.2017000000000735
256,3,0.2,1.0,35.0,1,1.0,0.22779999999988831
257,3,0.2,0.25,35.0,1,1.0,5.2874000000001615
258,3,0.2,0.0,-35.0,1,0.0,4.4221
259,3,0.2,1.0,-35.0,-1,1.0,0.8394000000000688
260,3,0.2,1.0,35.0,1,1.0,0.2379000000000815
261,3,0.2,1.0,35.0,1,1.0,0.7513000000001284
262,3,0.2,0.25,35.0,1,1.0,0.205600000000004
263,3,0.2,0.125,35.0,1,1.0,0.24469999999996617
264,3,0.2,0.0625,35.0,1,1.0,2.730401000000029
265,3,0.2,0.25,35.0,1,1.0,4.9382009999999354
266,3,0.2,0.125,35.0,1,1.0,0.6339009999999234
267,3,0.2,0.0,35.0,1,1.0,0.6065009999999802
268,3,0.2,0.25,-35.0,-1,1.0,0.2069010000000162
269,3,0.2,0.125,35.0,1,1.0,0.44020099999988815
270,3,0.2,0.0,35.0,1,1.0,1.7423009999999977
271,3,0.2,0.25,35.0,1,1.0,0.2663009999998849
272,3,0.2,1.0,35.0,1,1.0,0.193400999999767
273,3,0.2,1.0,-35.0,-1,1.0,0.2667010000002392
274,3,0.2,0.0625,35.0,1,1.0,0.23040099999980157
275,3,0.2,0.25,-35.0,-1,1.0,1.2001000000000204
276,3,0.2,0.0625,-35.0,1,0.0,0.4625010000002021
277,3,0.2,1.0,35.0,1,1.0,0.17760099999986778
278,3,0.2,0.125,35.0,1,1.0,0.23300099999983104
279,3,0.2,1.0,-35.0,-1,1.0,0.19350100000019665
280,3,0.2,1.0,35.0,1,1.0,0.3966009999999187
281,3,0.2,0.25,35.0,1,1.0,0.24400100000002567
282,3,0.2,0.0625,35.0,1,1.0,6.543501000000106
283,3,0.2,0.25,35.0,1,1.0,0.35360100000002603
284,3,0.2,0.125,-35.0,-1,1.0,0.7469009999999798
285,3,0.2,1.0,-35.0,-1,1.0,0.1507010000000264
286,3,0.2,0.125,-35.0,-1,1.0,0.7617010000001301
287,3,0.2,0.25,35.0,-1,0.0,4.517700999999988
288,3,0.2,0.125,-35.0,1,0.0,0.32400099999972554
289,3,0.2,0.25,35.0,1,1.0,0.23420099999998456
290,3,0.8,0.25,-35.0,-1,1.0,3.6815009999997983
291,3,0.8,0.0,-35.0,1,0.0,0.23510099999998602
292,3,0.8,0.125,-35.0,-1,1.0,0.1909009999999398
293,3,0.8,0.0625,-35.0,-1,1.0,0.21460099999990234
294,3,0.8,0.0625,-35.0,-1,1.0,1.9440010000000711
295,3,0.8,0.0625,-35.0,-1,1.0,2.3297009999998863
296,3,0.8,0.25,-35.0,-1,1.0,0.25310099999978775
297,3,0.8,0.125,-35.0,-1,1.0,2.1092009999999846
298,3,0.8,0.0625,-35.0,-1,1.0,2.1655009999999493
299,3,0.8,1.0,35.0,1,1.0,0.2952010000001337
300,3,0.8,0.125,-35.0,-1,1.0,3.152800999999954
301,3,0.8,1.0,-35.0,-1,1.0,0.2553009999999176
302,3,0.8,1.0,-35.0,-1,1.0,1.8865009999997255
303,3,0.8,0.25,-35.0,-1,1.0,0.718400999999858
304,3,0.8,0.0625,35.0,1,1.0,0.15820099999996273
305,3,0.8,0.25,-35.0,-1,1.0,0.21160099999997328
306,3,0.8,1.0,-35.0,-1,1.0,0.17460099999993872
307,3,0.8,0.25,-35.0,-1,1.0,0.74670100000003
308,3,0.8,1.0,-35.0,-1,1.0,0.8684010000001763
309,3,0.8,0.0,35.0,1,1.0,0.5507010000001173
310,3,0.8,1.0,-35.0,-1,1.0,1.3556010000002061
311,3,0.8,1.0,-35.0,-1,1.0,2.0566010000000006
312,3,0.8,0.125,-35.0,-1,1.0,0.99670100000003
313,3,0.8,0.125,-35.0,-1,1.0,1.2897009999999227
314,3,0.8,1.0,-35.0,-1,1.0,1.9598009999999704
315,3,0.8,1.0,35.0,1,1.0,0.1866010000001097
316,3,0.8,0.125,-35.0,-1,1.0,2.7178010000000086
317,3,0.8,0.25,35.0,1,1.0,0.2699010000001181
318,3,0.8,0.125,35.0,1,1.0,0.2668010000002141
319,3,0.8,0.25,-35.0,-1,1.0,0.316101000000117
320,3,0.8,1.0,-35.0,-1,1.0,0.19780100000002676
321,3,0.8,0.0625,-35.0,-1,1.0,0.6710010000001603
322,3,0.8,0.25,-35.0,-1,1.0,1.6138009999999667
323,3,0.8,0.25,35.0,1,1.0,2.51840100000004
324,3,0.2,0.25,35.0,1,1.0,0.22790099999997437
325,3,0.2,0.125,35.0,1,1.0,0.27650100000005295
326,3,0.2,0.25,-35.0,-1,1.0,0.4191009999997277
327,3,0.2,1.0,-35.0,-1,1.0,0.20820100000014463
328,3,0.2,1.0,35.0,1,1.0,0.19790099999977429
329,3,0.2,0.25,-35.0,-1,1.0,3.191201000000092
330,3,0.2,0.0625,35.0,1,1.0,0.6224010000000817
331,3,0.2,1.0,-35.0,-1,1.0,1.4812010000000555
332,3,0.2,0.0625,35.0,1,1.0,1.8348010000001977
333,3,0.2,1.0,35.0,1,1.0,0.2528010000000904
334,3,0.2,0.125,35.0,1,1.0,1.524000999999771
335,3,0.2,0.125,-35.0,-1,1.0,0.8684009999997215
336,3,0.2,1.0,35.0,1,1.0,0.2086010000002716
337,3,0.2,0.0625,35.0,1,1.0,1.9065009999999347
338,3,0.2,0.25,35.0,1,1.0,0.24470099999962258
339,3,0.2,0.25,35.0,1,1.0,0.08880099999987578
340,3,0.2,0.125,35.0,1,1.0,3.052400999999918
341,3,0.2,1.0,35.0,1,1.0,0.15590100000008533
342,3,0.2,0.25,35.0,1,1.0,0.21000099999946542
343,3,0.2,0.25,-35.0,-1,1.0,0.21610099999998056
344,3,0.2,0.25,35.0,1,1.0,0.2097009999997681
345,3,0.2,0.25,35.0,1,1.0,0.186200999999528
346,3,0.2,0.125,35.0,1,1.0,0.19570100000009916
347,3,0.2,0.0,35.0,1,1.0,0.47970100000020466
348,3,0.2,0.125,35.0,1,1.0,0.23570099999915328
349,3,0.2,0.0625,35.0,1,1.0,0.24580099999957383
350,3,0.2,1.0,35.0,1,1.0,0.1768010000000686
351,3,0.2,0.25,35.0,1,1.0,0.2398009999997157
352,3,0.2,0.125,35.0,1,1.0,0.36290099999951053
353,3,0.2,0.25,35.0,1,1.0,0.17540099999951053
354,3,0.2,0.0625,35.0,1,1.0,0.16310099999964223
355,3,0.2,1.0,35.0,1,1.0,0.17330100000026505
356,3,0.2,1.0,35.0,1,1.0,0.23700099999950908
357,3,0.2,0.125,35.0,1,1.0,11.06000099999983
358,3,0.2,0.0625,35.0,1,1.0,2.677600999999413
359,3,0.2,0.25,35.0,1,1.0,0.2522009999997863
360,3,0.2,0.25,35.0,1,1.0,0.23410099999955492
361,3,0.2,0.25,35.0,1,1.0,0.21520099999952436
362,3,0.2,0.125,35.0,1,1.0,0.3309009999998125
363,3,0.2,1.0,35.0,1,1.0,0.31130099999973027
364,3,0.2,0.0625,35.0,1,1.0,0.3006009999999151
365,3,0.2,0.0625,35.0,-1,0.0,18.71840099999963
366,3,0.2,1.0,35.0,1,1.0,0.1889009999999871
367,3,0.2,1.0,35.0,1,1.0,0.11440099999981612
368,3,0.2,1.0,35.0,1,1.0,0.6705009999996037
369,3,0.2,0.0625,-35.0,-1,1.0,3.9604009999998198
370,3,0.2,0.125,35.0,1,1.0,0.20160099999930026
371,3,0.2,0.125,35.0,1,1.0,2.2016010000002098
372,3,0.8,0.0,-35.0,1,0.0,0.2147009999994225
373,3,0.8,0.25,-35.0,-1,1.0,0.23170099999970262
374,3,0.8,1.0,35.0,1,1.0,0.1577009999996335
375,3,0.8,0.0,-35.0,-1,1.0,3.6129009999999653
376,3,0.8,0.25,35.0,1,1.0,0.17430100000001403
377,3,0.8,1.0,-35.0,-1,1.0,0.22540100000014718
378,3,0.8,0.0625,-35.0,-1,1.0,1.9849009999998088
379,3,0.8,0.25,-35.0,-1,1.0,0.28000099999962913
380,3,0.8,0.125,-35.0,-1,1.0,2.1578009999998358
381,3,0.8,0.0625,35.0,-1,0.0,2.301600999999664
382,3,0.8,0.125,-35.0,-1,1.0,0.3147009999997863
383,3,0.8,0.0625,-35.0,-1,1.0,3.4637009999996735
384,3,0.8,0.125,-35.0,-1,1.0,1.459400999999616
385,3,0.8,1.0,-35.0,-1,1.0,0.2386009999995622
386,3,0.8,1.0,-35.0,-1,1.0,0.18710099999952945
387,3,0.8,0.0,-35.0,-1,1.0,3.416201000000001
388,3,0.8,0.125,-35.0,-1,1.0,3.923200999999608
389,3,0.8,0.0,-35.0,-1,1.0,3.3509009999997943
390,3,0.8,1.0,35.0,1,1.0,0.25030100000003586
391,3,0.8,1.0,-35.0,-1,1.0,0.17450099999996382
392,3,0.8,1.0,-35.0,-1,1.0,0.9464009999996961
393,3,0.8,1.0,-35.0,-1,1.0,1.0614009999999325
394,3,0.8,0.125,-35.0,-1,1.0,1.4069009999998343
395,3,0.2,0.0625,35.0,-1,0.0,2.0705009999996946
396,3,0.2,0.0625,35.0,1,1.0,0.2859009999997397
397,3,0.2,1.0,35.0,1,1.0,0.19050099999958547
398,3,0.2,1.0,35.0,1,1.0,0.2205010000002403
399,3,0.2,1.0,35.0,1,1.0,0.24990099999968152
400,3,0.2,0.125,35.0,1,1.0,1.6927009999999427
401,3,0.2,0.0625,35.0,1,1.0,2.8650009999996655
402,3,0.2,0.0,35.0,1,1.0,1.0667010000001937
403,3,0.2,1.0,35.0,1,1.0,0.31800099999964004
404,3,0.2,0.125,35.0,1,1.0,1.0142009999995025
405,3,0.2,0.0625,-35.0,1,0.0,0.06120099999998274
406,3,0.2,0.125,35.0,1,1.0,1.5638009999997848
407,3,0.2,0.0625,35.0,1,1.0,3.787800999999945
408,3,0.2,1.0,-35.0,-1,1.0,0.27490099999977247
409,3,0.2,0.0,35.0,-1,0.0,4.834900999999263
410,3,0.2,1.0,35.0,1,1.0,0.4859010000000126
411,3,0.2,0.25,35.0,1,1.0,9.412401000000045
412,3,0.2,1.0,35.0,1,1.0,0.03890099999989616
413,3,0.2,0.25,35.0,1,1.0,11.015400999999656
414,3,0.2,1.0,-35.0,-1,1.0,0.2556009999998423
415,3,0.2,0.25,35.0,1,1.0,6.029100999999628
416,3,0.2,1.0,35.0,1,1.0,0.21920099999988452
417,3,0.8,0.0625,-35.0,1,0.0,0.8726009999995767
418,3,0.8,0.125,35.0,1,1.0,0.6426009999995586
419,3,0.8,0.0625,-35.0,1,0.0,14.189500999999836
420,3,0.8,1.0,-35.0,-1,1.0,0.009800999999697524
421,3,0.8,1.0,-35.0,-1,1.0,1.2632009999997535
422,3,0.8,0.125,-35.0,-1,1.0,1.8397009999994225
423,3,0.8,0.0,-35.0,-1,1.0,0.7147009999994225
424,3,0.8,0.25,-35.0,-1,1.0,0.05030099999976301
425,3,0.8,0.0625,-35.0,-1,1.0,4.329801000000316
426,3,0.8,0.125,-35.0,-1,1.0,1.7276010000000497
427,3,0.8,1.0,-35.0,-1,1.0,0.3359009999999216
428,3,0.8,0.0625,-35.0,-1,1.0,0.4109009999997397
429,3,0.8,0.0625,-35.0,-1,1.0,3.381000999999742
430,3,0.8,0.0625,-35.0,1,0.0,6.1270009999998365
431,3,0.8,0.125,-35.0,-1,1.0,0.23410100000000966
432,3,0.8,0.0,-35.0,-1,1.0,3.378700999999637
433,3,0.8,0.25,-35.0,-1,1.0,2.6221009999999296
434,3,0.8,0.0,-35.0,-1,1.0,5.21020099999987
435,3,0.8,0.0625,-35.0,1,0.0,0.25840100000004895
436,3,0.8,0.125,-35.0,1,0.0,3.6523009999996248
437,3,0.8,0.125,-35.0,-1,1.0,0.23070099999995364
438,3,0.8,0.0,-35.0,1,0.0,1.9154009999992923
439,3,0.8,0.125,-35.0,-1,1.0,1.0674009999997907
440,3,0.8,1.0,35.0,1,1.0,0.17540099999996528
441,3,0.8,1.0,-35.0,-1,1.0,0.18750099999942904
442,3,0.8,0.0,-35.0,-1,1.0,6.780900999999631
443,3,0.8,1.0,-35.0,-1,1.0,0.19260099999974045
444,3,0.8,0.125,-35.0,-1,1.0,1.2346010000001115
445,3,0.8,0.0,-35.0,-1,1.0,2.652600999999777
446,3,0.8,0.0625,-35.0,-1,1.0,0.2380009999997128
447,3,0.8,1.0,-35.0,-1,1.0,1.1697009999993497
448,3,0.8,0.0,35.0,-1,0.0,2.0968010000001414
449,3,0.8,0.125,-35.0,-1,1.0,0.694000999999389
450,3,0.8,0.0625,-35.0,-1,1.0,3.220100999999886
451,3,0.8,0.25,-35.0,-1,1.0,2.0093010000000504
452,3,0.8,0.0,35.0,-1,0.0,2.1856009999996786
453,3,0.8,0.0625,-35.0,-1,1.0,0.5668009999999413
454,3,0.8,0.25,-35.0,-1,1.0,0.7426009999999224
455,3,0.8,0.0625,35.0,1,1.0,0.5336010000000897
456,3,0.8,0.0625,-35.0,-1,1.0,4.229400999999598
457,3,0.8,0.125,-35.0,1,0.0,2.083100999999715
458,3,0.8,1.0,-35.0,-1,1.0,0.17010099999970407
459,3,0.8,0.25,-35.0,-1,1.0,2.25320099999999
460,3,0.8,0.0625,-35.0,1,0.0,1.254200999999739
461,3,0.8,0.25,-35.0,-1,1.0,0.27730099999962476
462,3,0.8,0.0625,35.0,-1,0.0,3.1548009999996793
463,3,0.8,0.0,-35.0,-1,1.0,1.6020010000002003
464,3,0.8,1.0,-35.0,-1,1.0,0.22300099999984013
465,3,0.8,0.125,-35.0,-1,1.0,0.21440099999972517
466,3,0.8,0.0,-35.0,-1,1.0,3.351400999999896
467,3,0.8,0.25,35.0,1,1.0,1.568500999999742
468,3,0.8,0.125,-35.0,-1,1.0,1.2890010000000984
469,3,0.8,0.25,35.0,1,1.0,0.887800999999854
470,3,0.8,0.125,35.0,1,1.0,0.25720099999989543
471,3,0.8,1.0,-35.0,-1,1.0,0.1875009999998838
472,3,0.8,0.0625,-35.0,1,0.0,10.132200999999895
473,3,0.2,0.25,35.0,1,1.0,0.22110099999963495
474,3,0.2,0.125,35.0,1,1.0,0.2622009999995498
475,3,0.2,0.0625,-35.0,1,0.0,7.887800999999854
476,3,0.2,0.125,35.0,1,1.0,0.17290099999945596
477,3,0.2,0.25,35.0,1,1.0,0.24290100000007442
478,3,0.2,1.0,35.0,1,1.0,0.4826009999997041
479,3,0.2,0.125,35.0,1,1.0,3.279301000000032
480,3,0.2,1.0,-35.0,-1,1.0,0.1998009999997521
481,3,0.2,0.125,35.0,1,1.0,0.39350100000001476
482,3,0.2,0.0625,35.0,1,1.0,0.19180099999948652
483,3,0.2,1.0,35.0,1,1.0,0.1395009999996546
484,3,0.2,0.0625,35.0,1,1.0,0.25910099999964586
485,3,0.2,0.0,-35.0,1,0.0,0.24820099999942613
486,3,0.2,1.0,-35.0,-1,1.0,0.19910100000015518
487,3,0.2,0.25,35.0,1,1.0,0.20940099999961603
488,3,0.2,1.0,35.0,1,1.0,0.21250099999997474
489,3,0.2,1.0,-35.0,-1,1.0,0.179700999999568
490,3,0.2,0.0625,35.0,1,1.0,2.3593009999995047
491,3,0.2,0.25,-35.0,-1,1.0,0.18440099999952508
492,3,0.2,0.25,35.0,1,1.0,0.20010099999990416
493,3,0.2,0.0625,35.0,1,1.0,1.5001009999996313
494,3,0.2,0.25,35.0,1,1.0,0.36740099999997256
495,3,0.2,0.125,-35.0,-1,1.0,4.103900999999951
496,3,0.2,0.0625,35.0,1,1.0,3.379200999999739
497,3,0.2,0.125,-35.0,1,0.0,7.107700999999906
498,3,0.2,0.25,35.0,1,1.0,0.23170099999970262
499,3,0.2,0.125,-35.0,-1,1.0,3.7077009999998154
500,3,0.2,0.0625,35.0,1,1.0,0.9577009999998154
501,3,0.2,0.125,35.0,1,1.0,0.2097009999997681
502,3,0.2,0.125,-35.0,-1,1.0,0.288300999999592
503,3,0.2,0.0625,-35.0,-1,1.0,0.9914009999993141
504,3,0.2,1.0,-35.0,-1,1.0,0.17450099999996382
505,3,0.2,1.0,35.0,1,1.0,0.20380100000011225
506,3,0.2,0.0625,-35.0,1,0.0,0.29090099999984886
507,3,0.2,0.25,-35.0,-1,1.0,0.9814010000000053
508,3,0.2,1.0,35.0,1,1.0,0.2619009999998525
509,3,0.2,0.25,-35.0,-1,1.0,0.2119009999996706
510,3,0.2,0.25,-35.0,-1,1.0,0.27400100000022576
511,3,0.2,1.0,35.0,1,1.0,4.552100999999766
512,3,0.2,0.25,35.0,1,1.0,0.22600099999954182
513,3,0.8,1.0,-35.0,-1,1.0,0.208100999999715
514,3,0.8,0.125,-35.0,-1,1.0,0.25110099999983504
515,3,0.8,0.25,-35.0,-1,1.0,0.2296010000000024
516,3,0.8,1.0,-35.0,-1,1.0,1.9582009999999173
517,3,0.8,0.125,-35.0,-1,1.0,0.3468009999996866
518,3,0.8,0.0,-35.0,-1,1.0,3.3747009999997317
519,3,0.8,0.125,-35.0,-1,1.0,0.19460099999969316
520,3,0.8,0.125,-35.0,-1,1.0,2.373000999999931
521,3,0.8,0.0625,-35.0,-1,1.0,0.9815009999997528
522,3,0.8,0.0625,35.0,-1,0.0,0.16640099999995073
523,3,0.8,0.25,35.0,1,1.0,0.27940099999977974
524,3,0.8,0.25,-35.0,-1,1.0,0.25350099999968734
525,3,0.8,0.125,-35.0,-1,1.0,1.2485009999995782
526,3,0.8,0.25,-35.0,-1,1.0,3.5961010000000897
527,3,0.8,0.25,-35.0,-1,1.0,0.7286009999997987
528,3,0.8,0.0625,-35.0,-1,1.0,2.5806009999996604
529,3,0.8,0.125,35.0,1,1.0,0.8307009999998627
530,3,0.8,1.0,-35.0,-1,1.0,0.22980099999949744
531,3,0.8,1.0,-35.0,-1,1.0,1.2800010000000839
532,3,0.8,0.0625,35.0,1,1.0,0.3165009999997892
533,3,0.8,1.0,-35.0,-1,1.0,0.17010099999970407
534,3,0.8,0.0,-35.0,-1,1.0,3.900800999999774
535,3,0.8,0.125,-35.0,-1,1.0,0.5498010000001159
536,3,0.8,1.0,-35.0,-1,1.0,0.2187009999993279
537,3,0.8,0.125,-35.0,-1,1.0,0.40990099999999074
538,3,0.8,0.125,-35.0,-1,1.0,0.8002009999995607
539,3,0.8,0.0,35.0,-1,0.0,2.9510009999999056
540,3,0.8,0.0,-35.0,-1,1.0,4.245100999999977
541,3,0.8,0.25,-35.0,-1,1.0,3.1471010000000206
542,3,0.8,0.0625,-35.0,-1,1.0,0.45620099999996455
543,3,0.8,0.125,-35.0,-1,1.0,0.5481009999998605
544,3,0.8,1.0,35.0,1,1.0,0.24600099999997838
545,3,0.8,1.0,-35.0,-1,1.0,8.108300999999756
546,3,0.8,0.125,-35.0,-1,1.0,1.0354009999996379
547,3,0.8,0.0,-35.0,1,0.0,2.2197009999995316
548,3,0.8,0.125,-35.0,-1,1.0,0.7594009999997979
549,3,0.8,0.125,-35.0,-1,1.0,2.3091010000002825
550,3,0.8,0.0625,-35.0,-1,1.0,6.428600999999617
551,3,0.8,0.25,-35.0,-1,1.0,1.3796009999996386
552,3,0.2,0.0,35.0,-1,0.0,1.8259009999997033
553,3,0.2,0.125,35.0,-1,0.0,8.639200999999957
554,3,0.2,0.0625,35.0,1,1.0,0.4288010000000213
555,3,0.2,0.125,-35.0,-1,1.0,0.5138010000000577
556,3,0.2,0.25,35.0,1,1.0,3.012800999999854
557,3,0.2,0.0625,35.0,1,1.0,0.2305009999995491
558,3,0.2,0.0,-35.0,1,0.0,5.036600999999337
559,3,0.2,0.125,35.0,1,1.0,0.5132009999992988
560,3,0.2,0.0625,35.0,1,1.0,0.3530009999994945
561,3,0.2,0.0625,35.0,1,1.0,0.16680099999985032
562,3,0.2,0.0625,35.0,1,1.0,0.2623009999997521
563,3,0.2,0.0625,35.0,1,1.0,2.638800999999603
564,3,0.2,0.0625,35.0,1,1.0,0.23410100000000966
565,3,0.2,0.0625,35.0,-1,0.0,2.5295009999995273
566,3,0.2,0.125,35.0,-1,0.0,0.7435009999999238
567,3,0.2,0.0625,35.0,-1,0.0,0.11020099999996091
568,3,0.2,1.0,35.0,1,1.0,2.268200999999408
569,3,0.2,0.25,35.0,1,1.0,0.17650099999991653
570,3,0.2,1.0,35.0,1,1.0,0.2103009999996175
571,3,0.2,0.125,35.0,1,1.0,0.2573010000000977
572,3,0.2,0.0,35.0,1,1.0,0.1878009999995811
573,3,0.2,0.25,35.0,1,1.0,2.557300999999825
574,3,0.2,0.125,35.0,1,1.0,0.33730100000002494
575,3,0.2,1.0,35.0,1,1.0,0.245401000000129
576,3,0.2,0.125,35.0,1,1.0,0.6774009999994632
577,3,0.2,0.0,35.0,1,1.0,0.3905009999998583
578,3,0.2,0.0625,35.0,1,1.0,0.2075009999998656
579,3,0.2,0.0625,-35.0,1,0.0,0.29370099999960075
580,3,0.2,0.0625,35.0,1,1.0,0.4054009999995287
581,3,0.2,1.0,35.0,1,1.0,0.38360099999999875
582,3,0.2,0.25,35.0,1,1.0,0.6617009999999937
583,3,0.2,1.0,35.0,1,1.0,0.19080099999973754
584,3,0.2,0.125,35.0,1,1.0,0.21870099999978265
585,3,0.2,0.125,35.0,1,1.0,0.49870099999998274
586,3,0.2,0.125,35.0,1,1.0,0.20220100000005914
587,3,0.2,0.25,35.0,1,1.0,0.24240099999997256
588,3,0.2,0.25,35.0,1,1.0,0.17610100000001694
589,3,0.2,0.0625,35.0,1,1.0,0.2548009999995884
590,3,0.2,0.25,35.0,1,1.0,0.2226009999994858
591,3,0.2,0.125,35.0,1,1.0,1.4523009999998067
592,3,0.2,0.0625,35.0,1,1.0,0.2123009999995702
593,3,0.2,1.0,35.0,1,1.0,0.27500099999997474
594,3,0.2,0.0625,35.0,1,1.0,0.759900999999445
595,3,0.2,0.0625,-35.0,1,0.0,0.7319009999996524
596,3,0.2,0.25,35.0,1,1.0,0.2426009999994676
597,3,0.2,0.125,35.0,1,1.0,0.35580099999970116
598,3,0.2,0.0625,-35.0,1,0.0,0.9435009999997419
599,3,0.2,1.0,35.0,1,1.0,0.17210099999965678
600,3,0.2,0.125,35.0,1,1.0,0.20910099999946397
601,3,0.2,1.0,35.0,1,1.0,0.16640099999949598
602,3,0.2,0.125,35.0,1,1.0,0.25020099999937884
603,3,0.2,0.0,35.0,1,1.0,3.7570009999999456
604,3,0.2,0.0625,35.0,1,1.0,0.5856010000002243
605,3,0.2,1.0,-35.0,-1,1.0,0.22930099999985032
606,3,0.2,0.125,35.0,1,1.0,7.139700999999604
607,3,0.2,0.0,35.0,1,1.0,0.2560009999997419
608,3,0.2,1.0,35.0,1,1.0,0.7507009999999354
609,3,0.2,1.0,-35.0,-1,1.0,0.21160099999951854
610,3,0.2,0.0625,-35.0,-1,1.0,3.4046999999995933
611,3,0.2,0.25,35.0,-1,0.0,3.6926009999997405
612,3,0.2,0.0625,35.0,1,1.0,1.097700999999688
613,3,0.2,0.125,35.0,1,1.0,4.037700999999743
614,3,0.2,0.25,35.0,1,1.0,0.43470099999967715
615,3,0.2,0.125,35.0,1,1.0,0.6539010000001326
616,3,0.2,0.0625,35.0,1,1.0,0.16210099999989325
617,3,0.2,0.25,35.0,1,1.0,0.31360099999983504
618,3,0.2,0.0625,35.0,1,1.0,0.19380099999989397
619,3,0.2,0.25,35.0,1,1.0,0.21090099999946688
620,3,0.2,0.0,35.0,1,1.0,2.213800999999421
621,3,0.2,0.0625,35.0,1,1.0,3.2819009999998343
622,3,0.2,0.125,35.0,1,1.0,0.22500099999979284
623,3,0.2,0.125,35.0,1,1.0,0.6372009999995498
624,3,0.2,0.125,35.0,1,1.0,0.5556009999995695
625,3,0.2,0.25,35.0,1,1.0,0.19120099999963713
626,3,0.2,1.0,35.0,1,1.0,0.38750100000015664
627,3,0.2,0.0625,35.0,1,1.0,0.6255009999999857
628,3,0.2,0.25,35.0,1,1.0,0.3262009999998554
629,3,0.2,1.0,35.0,1,1.0,0.25780100000019956
630,3,0.2,0.25,35.0,1,1.0,0.37620099999958256
631,3,0.2,0.0625,35.0,1,1.0,2.7296009999995476
632,3,0.2,0.25,35.0,1,1.0,0.44610099999999875
633,3,0.2,0.125,-35.0,-1,1.0,0.6799009999995178
634,3,0.2,0.25,35.0,1,1.0,0.3983010000001741
635,3,0.2,0.25,35.0,1,1.0,0.44640099999969607
636,3,0.2,0.25,35.0,1,1.0,0.249800999999934
637,3,0.2,0.0625,-35.0,1,0.0,3.4297010000000228
638,3,0.2,1.0,35.0,1,1.0,0.28850099999999657
639,3,0.2,0.0625,35.0,1,1.0,4.429500999999618
640,3,0.2,0.0625,35.0,1,1.0,6.539700999999695
641,3,0.2,0.0,35.0,1,1.0,7.352600999999595
642,3,0.2,1.0,35.0,1,1.0,0.37250100000028397
643,3,0.2,0.0625,-35.0,-1,1.0,0.7568009999999958
644,3,0.2,0.0625,35.0,-1,0.0,5.816800999999941
645,3,0.2,0.0,35.0,-1,0.0,3.4205009999996037
646,3,0.2,0.0625,35.0,1,1.0,0.25100099999963277
647,3,0.2,0.125,35.0,-1,0.0,4.269900999999663
648,3,0.2,0.0625,-35.0,-1,1.0,0.35400099999969825
649,3,0.2,0.0,35.0,-1,0.0,4.617400999999518
650,3,0.2,1.0,35.0,1,1.0,0.3951009999996131
651,3,0.8,0.125,-35.0,-1,1.0,0.2508010000001377
652,3,0.8,0.125,-35.0,1,0.0,0.3252009999996517
653,3,0.8,1.0,35.0,1,1.0,0.3952009999998154
654,3,0.8,0.125,-35.0,-1,1.0,0.6238009999997303
655,3,0.8,0.0625,-35.0,-1,1.0,33.28020099999958
656,3,0.8,1.0,-35.0,-1,1.0,0.2082009999994625
657,3,0.8,0.0625,-35.0,-1,1.0,1.1411009999997077
658,3,0.8,0.25,-35.0,-1,1.0,0.3291009999998096
659,3,0.8,0.0625,-35.0,-1,1.0,0.9597009999997681
660,3,0.8,1.0,-35.0,-1,1.0,0.7297009999997499
661,3,0.8,1.0,-35.0,-1,1.0,0.8467009999999391
662,3,0.8,0.0625,-35.0,-1,1.0,8.412800999999945
663,3,0.8,0.0,-35.0,-1,1.0,3.853100999999697
664,3,0.8,0.0625,35.0,-1,0.0,10.072600999999395
665,3,0.8,0.0625,-35.0,-1,1.0,9.717200999999932
666,3,0.8,0.125,-35.0,-1,1.0,0.2101009999996677
667,3,0.8,1.0,-35.0,-1,1.0,4.040600999999242
668,3,0.8,0.25,-35.0,-1,1.0,1.8705009999994218
669,3,0.8,0.0625,-35.0,-1,1.0,5.558700999999928
670,3,0.8,0.25,-35.0,-1,1.0,1.1504009999998743
671,3,0.8,0.0625,-35.0,-1,1.0,15.374401000000034
672,3,0.8,0.125,-35.0,-1,1.0,0.23020099999985177
1,4,0.5,0.0,-35.0,-1,1.0,20.151699999999998
2,4,0.5,0.0625,-35.0,-1,1.0,2.0562000000000005
3,4,0.5,0.0625,-35.0,-1,1.0,3.866699999999998
4,4,0.5,0.125,-35.0,-1,1.0,5.150599999999997
5,4,0.5,0.125,-35.0,-1,1.0,1.5641000000000034
6,4,0.5,0.25,-35.0,-1,1.0,1.9289000000000058
7,4,0.5,0.0625,-35.0,-1,1.0,0.34090000000000487
8,4,0.5,1.0,35.0,1,1.0,0.7186000000000092
9,4,0.5,0.25,-35.0,-1,1.0,0.22880000000000678
10,4,0.5,0.125,-35.0,-1,1.0,3.417900000000003
11,4,0.5,0.0625,-35.0,1,0.0,2.5834999999999937
12,4,0.5,0.125,-35.0,1,0.0,2.7667
13,4,0.5,0.0625,-35.0,1,0.0,5.2216999999999985
14,4,0.5,1.0,35.0,1,1.0,4.545299999999983
15,4,0.5,0.0,35.0,1,1.0,0.3084999999999951
16,4,0.5,0.125,35.0,1,1.0,0.5904999999999916
17,4,0.5,0.125,35.0,1,1.0,2.8643
18,4,0.5,1.0,-35.0,-1,1.0,0.24110000000000298
19,4,0.5,0.0625,-35.0,1,0.0,5.7646000000000015
20,4,0.5,0.125,35.0,1,1.0,7.2346
21,4,0.5,0.0,35.0,1,1.0,0.3252000000000095
22,4,0.5,1.0,-35.0,-1,1.0,1.6394000000000233
23,4,0.5,1.0,35.0,1,1.0,5.324200000000019
24,4,0.5,1.0,-35.0,1,0.0,1.93780000000001
25,4,0.5,1.0,35.0,1,1.0,8.216199999999986
26,4,0.5,0.0,-35.0,-1,1.0,11.483000000000004
27,4,0.5,0.0,35.0,1,1.0,2.784099999999995
28,4,0.5,0.125,-35.0,-1,1.0,0.21039999999999281
29,4,0.5,0.125,-35.0,-1,1.0,0.820699999999988
30,4,0.5,1.0,35.0,1,1.0,0.443300000000022
31,4,0.5,0.125,-35.0,-1,1.0,3.004700000000014
32,4,0.5,0.0625,35.0,-1,0.0,2.775400000000019
33,4,0.5,0.25,35.0,1,1.0,5.81140000000002
34,4,0.5,0.0625,35.0,1,1.0,0.3497999999999877
35,4,0.5,0.25,35.0,1,1.0,0.27370000000001937
36,4,0.5,0.25,-35.0,-1,1.0,0.3143999999999778
37,4,0.5,1.0,-35.0,-1,1.0,0.22350000000000136
38,4,0.5,0.125,35.0,1,1.0,3.311600000000027
39,4,0.5,0.0625,35.0,1,1.0,0.18469900000002326
40,4,0.5,0.25,35.0,1,1.0,0.2582999999999913
41,4,0.5,0.25,-35.0,-1,1.0,0.2674999999999841
42,4,0.5,0.0625,-35.0,1,0.0,1.394599999999997
43,4,0.5,0.0625,-35.0,1,0.0,0.24570000000002779
44,4,0.5,0.0,35.0,-1,0.0,10.785800000000023
45,4,0.5,0.25,35.0,1,1.0,1.5659000000000276
46,4,0.5,0.125,35.0,1,1.0,0.25020000000000664
47,4,0.5,0.0625,-35.0,1,0.0,0.35489999999998645
48,4,0.5,0.0625,-35.0,1,0.0,0.2150999999999499
49,4,0.5,0.125,-35.0,-1,1.0,0.2501999999999498
50,4,0.5,1.0,-35.0,-1,1.0,0.2307999999999879
51,4,0.5,0.0625,-35.0,1,0.0,0.3120000000000118
52,4,0.5,1.0,35.0,1,1.0,0.26319999999998345
53,4,0.5,0.25,35.0,1,1.0,2.217899999999929
54,4,0.5,0.25,35.0,1,1.0,0.20729999999997517
55,4,0.5,0.0625,-35.0,1,0.0,0.36829999999997654
56,4,0.5,0.0,-35.0,1,0.0,0.27229999999991605
57,4,0.5,0.125,35.0,1,1.0,0.6155999999999722
58,4,0.5,0.0625,-35.0,-1,1.0,0.28659999999996444
59,4,0.5,1.0,-35.0,-1,1.0,0.13240000000001828
60,4,0.5,1.0,35.0,1,1.0,0.21999999999997044
61,4,0.5,0.0625,-35.0,-1,1.0,0.162399999999991
62,4,0.5,0.25,-35.0,-1,1.0,0.12849999999997408
63,4,0.5,0.25,-35.0,-1,1.0,0.19240000000002055
64,4,0.5,1.0,35.0,1,1.0,0.24449999999995953
65,4,0.5,0.0,-35.0,-1,1.0,3.213700000000017
66,4,0.5,0.125,-35.0,-1,1.0,0.19329999999996517
67,4,0.5,0.125,35.0,1,1.0,0.26539999999999964
68,4,0.5,0.0625,-35.0,-1,1.0,0.49329999999997654
69,4,0.5,1.0,35.0,1,1.0,0.18530000000004065
70,4,0.5,1.0,-35.0,-1,1.0,0.12669999999997117
71,4,0.5,1.0,35.0,1,1.0,0.2016999999999598
72,4,0.5,1.0,35.0,1,1.0,0.216700000000003
73,4,0.5,0.0625,35.0,1,1.0,0.2576999999999998
74,4,0.5,1.0,35.0,1,1.0,0.16680000000002337
75,4,0.5,0.25,35.0,1,1.0,0.1368999999999687
76,4,0.5,1.0,-35.0,-1,1.0,0.3208999999999378
77,4,0.5,0.0625,-35.0,1,0.0,0.11849999999998317
78,4,0.5,0.0625,35.0,1,1.0,0.34739999999999327
79,4,0.5,0.125,-35.0,1,0.0,0.10190000000000055
80,4,0.5,0.0625,-35.0,-1,1.0,3.432900000000018
81,4,0.5,0.125,-35.0,-1,1.0,0.16149999999998954
82,4,0.5,0.25,35.0,1,1.0,0.16409999999996217
83,4,0.5,0.125,35.0,1,1.0,0.26809999999994716
84,4,0.5,0.125,-35.0,-1,1.0,0.06619999999998072
85,4,0.5,0.0,35.0,1,1.0,0.4680999999999358
86,4,0.5,1.0,-35.0,-1,1.0,0.09719999999998663
87,4,0.5,1.0,35.0,1,1.0,0.46949999999998226
88,4,0.5,0.0625,-35.0,-1,1.0,0.041299999999978354
89,4,0.5,0.0625,35.0,-1,0.0,1.537999999999954
90,4,0.5,0.25,35.0,1,1.0,0.2287999999999215
91,4,0.8,0.125,-35.0,-1,1.0,0.25689999999997326
92,4,0.8,0.125,-35.0,-1,1.0,0.387299999999982
93,4,0.8,1.0,-35.0,-1,1.0,0.6263999999999896
94,4,0.8,0.25,-35.0,-1,1.0,0.6342999999999961
95,4,0.8,0.25,-35.0,-1,1.0,3.3553999999999746
96,4,0.8,0.0,-35.0,1,0.0,0.24969999999996162
97,4,0.8,0.0625,-35.0,1,0.0,0.24450000000001637
98,4,0.8,0.25,-35.0,-1,1.0,0.10649999999998272
99,4,0.8,0.125,-35.0,-1,1.0,0.15750000000002728
100,4,0.8,0.0625,-35.0,-1,1.0,0.08289999999999509
101,4,0.8,1.0,-35.0,1,0.0,0.057799999999986085
102,4,0.8,0.25,-35.0,1,0.0,2.076599999999985
103,4,0.8,0.25,35.0,1,1.0,0.40269999999998163
104,4,0.8,0.125,-35.0,-1,1.0,2.685299999999984
105,4,0.8,0.0625,35.0,1,1.0,0.22719999999998208
106,4,0.8,0.125,-35.0,-1,1.0,0.27060000000000173
107,4,0.8,0.0,-35.0,-1,1.0,0.18700000000001182
108,4,0.8,0.25,-35.0,-1,1.0,0.18479999999999563
109,4,0.8,0.125,-35.0,-1,1.0,0.21079999999994925
110,4,0.8,0.0625,-35.0,-1,1.0,0.7098999999999478
111,4,0.8,0.25,35.0,1,1.0,0.41559999999998354
112,4,0.8,0.0,-35.0,-1,1.0,5.317999999999984
113,4,0.8,1.0,35.0,1,1.0,0.2740999999999758
114,4,0.8,0.125,35.0,1,1.0,0.28160000000002583
115,4,0.8,0.25,-35.0,-1,1.0,0.22320000000001983
116,4,0.8,0.0,-35.0,-1,1.0,2.0965999999999667
117,4,0.8,1.0,-35.0,-1,1.0,0.18950000000000955
118,4,0.8,1.0,35.0,-1,0.0,0.1302000000000021
119,4,0.8,0.0,-35.0,1,0.0,0.22719999999998208
120,4,0.8,0.25,-35.0,-1,1.0,0.16389999999995553
121,4,0.8,0.0625,-35.0,-1,1.0,0.06329999999996971
122,4,0.8,1.0,-35.0,-1,1.0,0.09850000000005821
123,4,0.8,0.0625,35.0,1,1.0,0.4097999999999047
124,4,0.8,0.25,-35.0,-1,1.0,0.3973999999999478
125,4,0.8,0.0625,-35.0,-1,1.0,0.4298000000000002
126,4,0.8,0.0625,-35.0,-1,1.0,0.20119999999997162
127,4,0.8,1.0,-35.0,-1,1.0,0.20240000000001146
128,4,0.8,0.0625,-35.0,-1,1.0,0.24139999999999873
129,4,0.8,0.125,-35.0,-1,1.0,1.4804000000000315
130,4,0.8,0.25,-35.0,-1,1.0,0.20180000000004839
131,4,0.8,0.125,-35.0,-1,1.0,0.133199999999988
132,4,0.8,0.25,35.0,1,1.0,0.260599999999954
133,4,0.8,1.0,-35.0,-1,1.0,0.2115999999999758
134,4,0.8,1.0,-35.0,-1,1.0,0.15409999999997126
135,4,0.8,1.0,-35.0,-1,1.0,0.4715999999999667
136,4,0.8,0.0625,35.0,-1,0.0,4.082300000000032
137,4,0.8,0.0625,-35.0,1,0.0,0.22269999999991796
138,4,0.8,0.25,-35.0,-1,1.0,0.005500000000097316
139,4,0.8,0.125,-35.0,-1,1.0,0.24869999999998527
140,4,0.8,0.25,35.0,1,1.0,0.18489899999997306
141,4,0.8,1.0,-35.0,-1,1.0,0.19880000000000564
142,4,0.8,1.0,-35.0,-1,1.0,0.1733999999999014
143,4,0.8,0.125,-35.0,-1,1.0,0.19679999999993925
144,4,0.8,0.0625,-35.0,1,0.0,0.21280000000001564
145,4,0.8,0.25,-35.0,-1,1.0,0.484299999999962
146,4,0.8,0.25,35.0,1,1.0,0.2142999999998665
147,4,0.8,0.25,-35.0,-1,1.0,0.231899999999996
148,4,0.8,0.25,-35.0,-1,1.0,0.17829999999992197
149,4,0.8,0.25,-35.0,-1,1.0,0.24879999999996016
150,4,0.8,0.0625,-35.0,-1,1.0,0.2740000000000009
151,4,0.8,0.125,-35.0,-1,1.0,0.24929999999994834
152,4,0.8,0.25,35.0,1,1.0,0.22029999999995198
153,4,0.8,0.0625,-35.0,-1,1.0,0.15499999999997272
154,4,0.8,0.25,-35.0,-1,1.0,0.14209999999991396
155,4,0.8,0.25,-35.0,-1,1.0,0.16579999999999018
156,4,0.8,0.25,35.0,-1,0.0,0.10439999999994143
157,4,0.2,0.25,35.0,-1,0.0,0.35009999999999764
158,4,0.2,1.0,35.0,1,1.0,0.2075999999999567
159,4,0.2,1.0,35.0,1,1.0,0.18619999999998527
160,4,0.2,0.0,35.0,1,1.0,0.24719999999990705
161,4,0.2,0.0625,35.0,1,1.0,0.13279999999997472
162,4,0.2,1.0,35.0,1,1.0,0.1432999999999538
163,4,0.2,0.0625,-35.0,1,0.0,0.1713000000000875
164,4,0.2,1.0,35.0,1,1.0,0.18169899999998051
165,4,0.2,0.25,-35.0,-1,1.0,0.23540000000002692
166,4,0.2,0.0,35.0,-1,0.0,0.19020000000000437
167,4,0.2,0.0,-35.0,1,0.0,0.2525999999999158
168,4,0.2,0.25,35.0,1,1.0,0.1614999999999327
169,4,0.2,0.125,35.0,1,1.0,0.18099999999992633
170,4,0.2,0.25,35.0,1,1.0,0.22659999999996217
171,4,0.2,0.25,35.0,1,1.0,0.1390999999999849
172,4,0.2,0.25,35.0,1,1.0,0.12769999999989068
173,4,0.2,0.0625,35.0,1,1.0,0.1307000000000471
174,4,0.2,0.25,35.0,1,1.0,0.1110999999999649
175,4,0.2,0.25,35.0,1,1.0,0.15379999999993288
176,4,0.2,0.25,35.0,1,1.0,0.2078999999999951
177,4,0.2,0.25,35.0,1,1.0,0.17980000000000018
178,4,0.2,0.0625,-35.0,1,0.0,0.14589999999998327
179,4,0.2,0.25,-35.0,-1,1.0,0.17999999999994998
180,4,0.2,0.125,35.0,1,1.0,0.20890000000008513
181,4,0.2,0.0625,35.0,1,1.0,0.3163000000000693
182,4,0.2,1.0,35.0,1,1.0,0.23720000000002983
183,4,0.2,0.0,35.0,1,1.0,0.20810000000005857
184,4,0.2,0.25,-35.0,-1,1.0,0.1874000000000251
185,4,0.2,0.0,35.0,1,1.0,0.15309999999988122
186,4,0.2,0.125,35.0,1,1.0,0.1230999999999085
187,4,0.2,1.0,35.0,1,1.0,0.10910000000001219
188,4,0.2,0.25,-35.0,1,0.0,-0.017200000000002547
189,4,0.2,0.0625,35.0,1,1.0,0.25709999999992306
190,4,0.2,0.25,35.0,1,1.0,0.15699999999992542
191,4,0.2,0.125,35.0,1,1.0,0.17449999999996635
192,4,0.2,0.0,-35.0,1,0.0,0.14179999999987558
193,4,0.2,0.0,35.0,1,1.0,0.27129999999999654
194,4,0.2,0.0625,35.0,1,1.0,0.19920000000001892
195,4,0.2,1.0,35.0,1,1.0,0.03719999999998436
196,4,0.2,0.25,35.0,1,1.0,0.13040000000000873
197,4,0.2,0.0,-35.0,1,0.0,0.13400000000001455
198,4,0.2,0.25,35.0,1,1.0,0.6765000000000327
199,4,0.2,0.25,35.0,1,1.0,0.15840000000002874
200,4,0.2,0.25,35.0,1,1.0,0.08420000000000982
201,4,0.2,0.125,35.0,1,1.0,0.12860000000000582
202,4,0.2,0.25,35.0,1,1.0,0.15439999999989595
203,4,0.2,1.0,35.0,1,1.0,0.25310000000001764
204,4,0.2,0.125,35.0,1,1.0,0.2726000000000113
205,4,0.2,0.0625,-35.0,1,0.0,0.1067000000000462
206,4,0.2,0.0,35.0,1,1.0,0.22870000000000346
207,4,0.2,0.0,-35.0,1,0.0,0.18599999999992178
208,4,0.2,0.0625,35.0,1,1.0,0.13169999999990978
209,4,0.2,0.25,35.0,1,1.0,0.20410000000003947
210,4,0.2,0.125,35.0,1,1.0,0.1717999999998483
211,4,0.2,0.25,35.0,1,1.0,0.16860000000008313
212,4,0.2,1.0,35.0,1,1.0,0.15560000000004948
213,4,0.2,0.125,35.0,1,1.0,0.1972000000000662
214,4,0.2,0.0625,35.0,1,1.0,0.13800000000003365
215,4,0.2,0.0625,35.0,1,1.0,0.18699999999989814
216,4,0.2,1.0,-35.0,-1,1.0,0.19399999999995998
217,4,0.2,0.25,35.0,1,1.0,0.28110000000003765
218,4,0.2,1.0,35.0,1,1.0,1.8259999999999081
219,4,0.2,0.25,35.0,1,1.0,0.23310000000003583
220,4,0.2,0.125,35.0,1,1.0,0.1632000000000744
221,4,0.2,0.25,35.0,1,1.0,0.17610000000001946
222,4,0.2,0.0625,35.0,1,1.0,0.2822999999999638
223,4,0.2,0.0625,35.0,1,1.0,0.5834999999999582
224,4,0.2,0.0,35.0,1,1.0,0.42039999999997235
225,4,0.2,0.125,35.0,1,1.0,0.37630000000001473
226,4,0.2,1.0,35.0,1,1.0,0.27340000000003783
227,4,0.2,0.25,35.0,1,1.0,0.20739999999989323
228,4,0.8,0.125,-35.0,-1,1.0,0.268100000000004
229,4,0.8,0.0,-35.0,1,0.0,0.22669999999993706
230,4,0.8,0.25,-35.0,-1,1.0,0.17039999999985866
231,4,0.8,0.125,-35.0,-1,1.0,0.6083999999999605
232,4,0.8,0.25,-35.0,-1,1.0,0.13049999999998363
233,4,0.8,0.0625,-35.0,-1,1.0,0.1753999999999678
234,4,0.8,0.0,-35.0,1,0.0,1.5544999999999618
235,4,0.8,0.25,-35.0,-1,1.0,0.19240000000002055
236,4,0.8,1.0,-35.0,-1,1.0,0.18670000000008713
237,4,0.8,0.0625,-35.0,-1,1.0,0.38379999999995107
238,4,0.8,0.125,-35.0,-1,1.0,0.2516000000000531
239,4,0.8,0.25,-35.0,-1,1.0,0.15469999999993433
240,4,0.8,0.0625,-35.0,-1,1.0,0.10180000000002565
241,4,0.8,0.0625,-35.0,-1,1.0,0.1328000000000884
242,4,0.8,0.25,-35.0,-1,1.0,0.08979999999996835
243,4,0.8,1.0,-35.0,-1,1.0,0.1596999999999298
244,4,0.8,0.0625,35.0,-1,0.0,0.5959000000000287
245,4,0.8,0.0625,-35.0,-1,1.0,0.17879999999991014
246,4,0.8,1.0,-35.0,-1,1.0,0.23020000000008167
247,4,0.8,0.0625,-35.0,-1,1.0,1.3498999999999342
248,4,0.8,0.125,-35.0,-1,1.0,0.20499999999992724
249,4,0.8,1.0,-35.0,-1,1.0,0.15899999999999181
250,4,0.8,0.0625,-35.0,-1,1.0,0.15999999999996817
251,4,0.8,1.0,-35.0,-1,1.0,1.7840999999999667
252,4,0.8,0.0625,-35.0,1,0.0,0.15010000000006585
253,4,0.8,1.0,-35.0,-1,1.0,0.2100999999998976
254,4,0.8,0.0625,-35.0,-1,1.0,0.5145999999999731
255,4,0.8,0.0625,-35.0,-1,1.0,0.2596000000000913
256,4,0.8,0.25,-35.0,-1,1.0,0.17649999999991905
257,4,0.8,1.0,-35.0,-1,1.0,0.16620000000011714
258,4,0.8,0.125,-35.0,-1,1.0,0.18629999999996016
259,4,0.8,1.0,35.0,1,1.0,0.2626999999998816
260,4,0.8,0.125,-35.0,-1,1.0,0.20030000000008386
261,4,0.8,0.125,-35.0,-1,1.0,0.7250999999999976
262,4,0.8,0.0625,-35.0,-1,1.0,0.19290000000000873
263,4,0.8,0.125,-35.0,-1,1.0,0.15640000000007603
264,4,0.8,0.125,35.0,1,1.0,0.11369999999999436
265,4,0.8,1.0,-35.0,-1,1.0,0.19039999999995416
266,4,0.8,1.0,-35.0,-1,1.0,0.15949999999998
267,4,0.8,0.0625,-35.0,-1,1.0,0.16879999999991924
268,4,0.8,0.0625,35.0,1,1.0,0.33589999999992415
269,4,0.8,1.0,-35.0,-1,1.0,0.15859999999997854
270,4,0.8,0.0625,-35.0,1,0.0,0.1893999999999778
271,4,0.8,0.25,35.0,1,1.0,0.17579999999998108
272,4,0.8,0.0,-35.0,-1,1.0,-0.004599999999982174
273,4,0.8,0.25,-35.0,-1,1.0,0.4597000000001117
274,4,0.8,0.0625,-35.0,-1,1.0,0.2697000000002845
275,4,0.8,0.125,-35.0,-1,1.0,0.05540000000019063
276,4,0.8,0.125,-35.0,-1,1.0,0.23980000000028667
277,4,0.8,0.0625,-35.0,-1,1.0,0.18380000000001928
278,4,0.8,0.125,-35.0,-1,1.0,0.20580000000018117
279,4,0.8,1.0,-35.0,-1,1.0,0.1793999999999869
280,4,0.8,1.0,-35.0,-1,1.0,0.11860000000001492
281,4,0.8,0.0,-35.0,-1,1.0,0.2531000000003587
282,4,0.8,0.0,35.0,1,1.0,0.23700000000008004
283,4,0.8,0.0625,-35.0,-1,1.0,0.21800000000007458
284,4,0.8,0.25,-35.0,-1,1.0,0.16599999999993997
285,4,0.8,1.0,-35.0,-1,1.0,0.15699999999992542
286,4,0.8,0.25,-35.0,-1,1.0,0.18010000000003856
287,4,0.8,0.125,35.0,1,1.0,0.2542000000000826
288,4,0.8,0.25,-35.0,-1,1.0,-0.0027999999999792635
289,4,0.8,1.0,-35.0,-1,1.0,0.1653000000001157
290,4,0.8,0.25,35.0,1,1.0,0.12920000000008258
291,4,0.8,0.0,-35.0,1,0.0,0.12760000000002947
292,4,0.8,0.25,-35.0,-1,1.0,0.3342999999999847
293,4,0.8,1.0,-35.0,-1,1.0,0.18029999999998836
294,4,0.8,0.0625,-35.0,-1,1.0,0.5698000000002139
295,4,0.8,1.0,-35.0,-1,1.0,0.1648000000002412
296,4,0.8,1.0,-35.0,-1,1.0,0.14480000000003201
297,4,0.8,0.25,-35.0,-1,1.0,0.2905000000000655
298,4,0.8,0.125,-35.0,-1,1.0,0.24139999999988504
299,4,0.8,0.25,-35.0,-1,1.0,0.13139999999998508
300,4,0.8,0.125,-35.0,-1,1.0,0.18850000000020373
301,4,0.8,1.0,-35.0,-1,1.0,0.1714999999999236
302,4,0.2,0.125,35.0,1,1.0,0.27860000000009677
303,4,0.2,0.125,35.0,1,1.0,0.24459999999999127
304,4,0.2,1.0,35.0,1,1.0,0.2744000000000142
305,4,0.2,0.0,-35.0,1,0.0,0.16869999999994434
306,4,0.2,0.25,35.0,1,1.0,0.11870000000021719
307,4,0.2,0.0625,35.0,1,1.0,0.12840000000005602
308,4,0.2,0.125,35.0,1,1.0,0.19539999999983593
309,4,0.2,0.0625,35.0,1,1.0,2.6433999999999287
310,4,0.2,0.25,35.0,1,1.0,0.16909999999984393
311,4,0.2,0.0,35.0,1,1.0,0.16190000000005966
312,4,0.2,0.25,35.0,1,1.0,0.12390000000004875
313,4,0.2,0.0625,35.0,1,1.0,0.3424000000002252
314,4,0.2,0.125,-35.0,1,0.0,0.2414000000001124
315,4,0.2,0.0625,35.0,1,1.0,0.2721999999998843
316,4,0.2,0.125,35.0,1,1.0,0.17589999999995598
317,4,0.2,0.125,35.0,1,1.0,0.4017999999998665
318,4,0.2,0.125,35.0,1,1.0,0.22709999999983665
319,4,0.2,0.125,35.0,1,1.0,0.12480000000027758
320,4,0.2,0.0,-35.0,1,0.0,0.09569899999996778
321,4,0.2,0.25,35.0,1,1.0,0.19290000000000873
322,4,0.2,1.0,35.0,1,1.0,0.14660000000003492
323,4,0.2,1.0,35.0,1,1.0,0.09320000000002437
324,4,0.2,1.0,35.0,1,1.0,0.18990000000030705
325,4,0.2,0.0,35.0,1,1.0,0.3611000000000786
326,4,0.2,0.0625,35.0,1,1.0,0.19730000000026848
327,4,0.2,0.0625,35.0,1,1.0,0.1912990000002992
328,4,0.2,0.125,-35.0,-1,1.0,0.21929999999997563
329,4,0.2,0.25,35.0,1,1.0,0.17350000000010368
330,4,0.2,1.0,-35.0,-1,1.0,0.14340000000015607
331,4,0.2,0.0,-35.0,-1,1.0,2.2068000000001575
332,4,0.2,1.0,-35.0,-1,1.0,0.17000000000007276
333,4,0.2,1.0,35.0,1,1.0,0.18750000000022737
334,4,0.2,0.25,-35.0,-1,1.0,0.17370000000005348
335,4,0.2,1.0,-35.0,-1,1.0,2.8976000000000113
336,4,0.2,0.0625,35.0,1,1.0,0.06460000000015498
337,4,0.2,0.25,35.0,1,1.0,0.15059999999994034
338,4,0.2,0.0625,-35.0,1,0.0,-0.015199999999822467
339,4,0.2,0.25,35.0,1,1.0,0.15460000000007312
340,4,0.2,0.0625,35.0,1,1.0,0.18399999999996908
341,4,0.2,0.125,35.0,1,1.0,0.16869999999994434
342,4,0.2,1.0,35.0,1,1.0,0.1651000000001659
343,4,0.2,0.25,35.0,1,1.0,0.1791000000000622
344,4,0.2,0.25,-35.0,-1,1.0,0.13850000000002183
345,4,0.2,0.125,35.0,-1,0.0,0.1248000000000502
346,4,0.8,0.0,-35.0,1,0.0,0.27860000000009677
347,4,0.8,1.0,-35.0,-1,1.0,0.007900000000290675
348,4,0.8,0.0625,35.0,-1,0.0,0.17190000000005057
349,4,0.8,0.25,-35.0,-1,1.0,0.17420000000015534
350,4,0.8,1.0,35.0,1,1.0,0.1856000000000222
351,4,0.8,0.25,-35.0,-1,1.0,0.18609999999989668
352,4,0.8,1.0,-35.0,-1,1.0,0.16200000000026193
353,4,0.8,0.25,-35.0,-1,1.0,0.6826000000000931
354,4,0.8,0.0625,-35.0,-1,1.0,0.3531000000000404
355,4,0.8,1.0,-35.0,-1,1.0,1.9761000000000877
356,4,0.8,1.0,-35.0,-1,1.0,0.17020000000002256
357,4,0.8,0.25,35.0,1,1.0,0.23919999999998254
358,4,0.8,0.0,-35.0,-1,1.0,0.17620000000010805
359,4,0.8,0.25,-35.0,-1,1.0,0.20470000000000255
360,4,0.8,0.25,-35.0,-1,1.0,0.22199999999998
361,4,0.8,0.25,-35.0,-1,1.0,0.1253999999998996
362,4,0.8,0.125,-35.0,-1,1.0,0.1470000000001619
363,4,0.8,0.125,-35.0,-1,1.0,0.007200000000239015
364,4,0.8,0.25,-35.0,-1,1.0,4.051800000000185
365,4,0.8,0.0625,-35.0,-1,1.0,0.26949999999987995
366,4,0.8,0.125,-35.0,-1,1.0,0.22019999999997708
367,4,0.8,0.125,-35.0,-1,1.0,0.36590000000001055
368,4,0.8,0.0625,-35.0,1,0.0,0.06349999999997635
369,4,0.8,0.125,-35.0,-1,1.0,0.2296000000001186
370,4,0.8,0.0625,35.0,1,1.0,0.27070000000003347
371,4,0.8,0.0625,-35.0,1,0.0,0.2874000000001615
372,4,0.8,0.125,-35.0,-1,1.0,0.43100000000004
373,4,0.8,0.25,-35.0,-1,1.0,0.19659999999998945
374,4,0.8,0.25,-35.0,-1,1.0,0.1630000000002383
375,4,0.8,0.25,-35.0,-1,1.0,0.20770000000015898
376,4,0.8,1.0,35.0,1,1.0,0.32350000000019463
377,4,0.8,0.25,-35.0,-1,1.0,0.17770000000018626
378,4,0.8,0.25,-35.0,-1,1.0,0.169399999999996
379,4,0.8,0.0625,35.0,1,1.0,0.30120000000010805
380,4,0.8,0.125,-35.0,-1,1.0,0.2395000000001346
381,4,0.8,0.25,-35.0,-1,1.0,0.34380000000010114
382,4,0.8,1.0,35.0,1,1.0,0.12680000000023028
383,4,0.8,0.125,35.0,1,1.0,0.17019900000013877
384,4,0.8,0.0,-35.0,1,0.0,0.20390000000020336
385,4,0.8,1.0,35.0,1,1.0,0.18460000000004584
386,4,0.8,0.0625,-35.0,-1,1.0,3.7967000000001008
387,4,0.8,0.0,-35.0,-1,1.0,2.258000000000038
388,4,0.8,0.25,35.0,1,1.0,0.2624000000000706
389,4,0.8,1.0,35.0,1,1.0,0.21749999999997272
390,4,0.8,0.25,35.0,1,1.0,0.19100000000003092
391,4,0.8,1.0,-35.0,-1,1.0,0.2670000000002801
392,4,0.8,0.25,35.0,1,1.0,0.17620000000010805
393,4,0.8,0.0625,-35.0,-1,1.0,0.6313999999999851
394,4,0.8,1.0,-35.0,-1,1.0,0.2014000000001488
395,4,0.8,0.25,-35.0,-1,1.0,0.22270000000003165
396,4,0.8,0.125,-35.0,-1,1.0,0.14620000000013533
397,4,0.8,0.0,-35.0,-1,1.0,0.15830000000005384
398,4,0.8,0.125,-35.0,-1,1.0,0.20220000000017535
399,4,0.8,0.25,35.0,-1,0.0,0.0013000000001284207
400,4,0.8,0.25,35.0,1,1.0,0.27100000000018554
401,4,0.8,1.0,35.0,1,1.0,0.2614000000000942
402,4,0.8,1.0,-35.0,-1,1.0,0.1653000000001157
403,4,0.8,0.125,-35.0,-1,1.0,0.2358999999999014
404,4,0.8,0.0625,-35.0,1,0.0,0.35140000000023974
405,4,0.8,1.0,-35.0,-1,1.0,0.17450099999996382
406,4,0.8,0.0,-35.0,1,0.0,0.2845009999998638
407,4,0.8,0.0,35.0,1,1.0,0.26850100000001476
408,4,0.8,0.25,-35.0,-1,1.0,0.22860100000002603
409,4,0.8,0.0625,-35.0,1,0.0,0.19220100000006823
410,4,0.8,1.0,35.0,1,1.0,0.16950100000008206
411,4,0.8,0.25,35.0,1,1.0,0.21260100000040438
412,4,0.8,0.0625,-35.0,1,0.0,0.1466009999999187
413,4,0.8,0.0625,-35.0,-1,1.0,3.5862010000000737
414,4,0.8,0.25,-35.0,-1,1.0,0.1927010000001701
415,4,0.8,1.0,35.0,1,1.0,0.2657010000000355
416,4,0.8,0.0625,-35.0,1,0.0,0.11330100000009224
417,4,0.8,0.125,-35.0,1,0.0,0.13680100000010498
418,4,0.8,1.0,-35.0,1,0.0,0.033100999999987835
419,4,0.8,1.0,-35.0,-1,1.0,0.17340100000001257
420,4,0.8,0.0625,35.0,1,1.0,0.16990100000020902
421,4,0.8,0.25,-35.0,-1,1.0,0.18390100000010534
422,4,0.8,1.0,-35.0,-1,1.0,0.15900100000021666
423,4,0.8,0.0625,-35.0,-1,1.0,15.471001000000115
424,4,0.8,1.0,-35.0,-1,1.0,0.033100999999987835
425,4,0.8,1.0,-35.0,-1,1.0,4.403601000000208
426,4,0.8,0.25,-35.0,-1,1.0,4.021300999999994
427,4,0.2,1.0,35.0,1,1.0,0.25250100000016573
428,4,0.2,0.125,35.0,1,1.0,0.23130100000025777
429,4,0.2,0.0625,35.0,-1,0.0,0.23430099999995946
430,4,0.2,0.0,35.0,-1,0.0,1.3374010000002272
431,4,0.2,1.0,-35.0,-1,1.0,2.480501000000004
432,4,0.2,0.0625,-35.0,-1,1.0,2.4683010000001104
433,4,0.2,0.25,35.0,1,1.0,0.5985010000001694
434,4,0.2,0.125,35.0,1,1.0,0.4915010000001985
435,4,0.2,0.125,35.0,1,1.0,0.17380100000013954
436,4,0.2,1.0,35.0,1,1.0,0.18750100000011116
437,4,0.2,0.25,35.0,1,1.0,0.1407010000000355
438,4,0.2,1.0,35.0,1,1.0,0.16150100000027123
439,4,0.2,0.125,35.0,1,1.0,0.2557010000000446
440,4,0.2,0.125,35.0,1,1.0,0.1922010000002956
441,4,0.2,0.125,-35.0,-1,1.0,0.3286009999999351
442,4,0.2,1.0,35.0,1,1.0,0.15570099999990816
443,4,0.2,0.0625,35.0,1,1.0,0.174701000000141
444,4,0.2,0.25,35.0,1,1.0,0.1887010000000373
445,4,0.2,0.125,-35.0,-1,1.0,0.8056010000002516
446,4,0.2,0.125,35.0,1,1.0,0.29179999999996653
447,4,0.2,0.0625,-35.0,1,0.0,0.19170099999996637
448,4,0.2,0.25,35.0,1,1.0,0.19190100000014354
449,4,0.2,0.125,35.0,1,1.0,0.19190100000014354
450,4,0.2,0.125,35.0,1,1.0,0.17590100000006714
451,4,0.2,0.125,35.0,1,1.0,0.16330100000027414
452,4,0.2,0.25,35.0,1,1.0,0.14900100000022576
453,4,0.2,1.0,-35.0,-1,1.0,0.1968010000000504
454,4,0.2,1.0,35.0,1,1.0,0.17580100000009224
455,4,0.2,0.0625,35.0,1,1.0,0.06370100000003731
456,4,0.2,0.0625,35.0,1,1.0,0.18950100000006387
457,4,0.2,0.25,35.0,1,1.0,0.07720100000005914
458,4,0.2,1.0,35.0,1,1.0,0.13050099999986742
459,4,0.2,1.0,35.0,1,1.0,0.18740100000013626
460,4,0.2,0.125,35.0,1,1.0,1.0924009999998816
461,4,0.2,0.0,35.0,1,1.0,0.20720100000016828
462,4,0.8,1.0,35.0,1,1.0,0.1790009999999711
463,4,0.8,0.25,-35.0,-1,1.0,0.2192010000001119
464,4,0.8,1.0,-35.0,-1,1.0,0.2193010000000868
465,4,0.8,0.25,-35.0,-1,1.0,0.2412010000000464
466,4,0.8,0.25,35.0,1,1.0,0.179100999999946
467,4,0.8,0.125,35.0,1,1.0,0.19730100000015227
468,4,0.8,0.25,-35.0,-1,1.0,0.20430099999998674
469,4,0.8,0.125,-35.0,-1,1.0,0.7576010000000224
470,4,0.8,0.25,-35.0,-1,1.0,0.22620100000017374
471,4,0.8,1.0,-35.0,-1,1.0,0.18440099999997983
472,4,0.8,0.0625,-35.0,1,0.0,8.640700000000152
473,4,0.8,1.0,-35.0,-1,1.0,0.20550100000014027
474,4,0.8,0.0625,-35.0,-1,1.0,7.508401000000049
475,4,0.8,0.25,-35.0,-1,1.0,0.27030100000001767
476,4,0.8,1.0,-35.0,-1,1.0,0.2046010000001388
477,4,0.8,0.125,35.0,-1,0.0,2.739001000000144
478,4,0.8,0.0,-35.0,-1,1.0,14.44680100000005
479,4,0.8,0.25,35.0,1,1.0,13.087101000000303
480,4,0.8,0.25,-35.0,-1,1.0,4.243200999999999
481,4,0.8,0.0625,-35.0,-1,1.0,4.807601000000204
482,4,0.8,1.0,35.0,1,1.0,0.20960100000024795
483,4,0.8,0.125,-35.0,-1,1.0,10.32810100000006
484,4,0.8,0.0625,35.0,-1,0.0,36.51620100000014
485,4,0.8,0.0,-35.0,-1,1.0,37.88630100000023
486,4,0.8,1.0,-35.0,-1,1.0,11.833900999999969
487,4,0.8,1.0,35.0,-1,0.0,2.1050010000001294
488,4,0.8,1.0,35.0,1,1.0,54.06440100000009
489,4,0.8,1.0,-35.0,-1,1.0,0.9226010000002134
490,4,0.8,0.0,35.0,-1,0.0,5.118801000000076
491,4,0.8,0.25,-35.0,-1,1.0,5.635701000000154
492,4,0.8,1.0,-35.0,-1,1.0,0.2125010000002021
493,4,0.8,0.0,-35.0,-1,1.0,1.1758010000000922
494,4,0.8,1.0,35.0,1,1.0,0.2693010000002687
495,4,0.8,0.25,-35.0,-1,1.0,4.95610099999999
496,4,0.8,0.125,35.0,1,1.0,1.0495009999999638
497,4,0.8,0.25,-35.0,-1,1.0,0.309601000000157
498,4,0.8,0.125,-35.0,-1,1.0,0.22630100000014863
499,4,0.8,0.0,-35.0,1,0.0,2.526401000000078
500,4,0.8,1.0,-35.0,-1,1.0,0.21660100000008242
501,4,0.8,0.25,-35.0,-1,1.0,8.34330100000011
502,4,0.8,1.0,-35.0,-1,1.0,0.2468010000002323
503,4,0.8,0.25,-35.0,-1,1.0,0.06360100000006241
