trial_num,session_num,stim_probability_left,contrast,position,response_choice,trial_correct,reaction_time
1,11,0.5,0.0,35.0,-1,0.0,6.884299999999999
2,11,0.9,0.0,-35.0,-1,1.0,14.5152
3,11,0.5,1.0,-35.0,-1,1.0,0.3896999999999977
4,11,0.5,1.0,35.0,-1,0.0,2.066200000000002
5,11,0.5,0.125,35.0,-1,0.0,3.8274000000000044
6,11,0.5,0.125,-35.0,-1,1.0,1.1584000000000003
7,11,0.5,0.0625,-35.0,-1,1.0,2.1761000000000053
8,11,0.5,0.25,-35.0,-1,1.0,0.42600000000000193
9,11,0.5,0.0625,35.0,-1,0.0,0.4081000000000117
10,11,0.5,0.25,35.0,-1,0.0,0.4089999999999918
11,11,0.5,0.25,-35.0,-1,1.0,0.6476000000000113
12,11,0.5,0.125,35.0,-1,0.0,2.030000000000001
13,11,0.5,0.0,35.0,-1,0.0,0.3783999999999992
14,11,0.5,0.0,35.0,-1,0.0,0.7312000000000154
15,11,0.5,0.0625,35.0,-1,0.0,5.735400000000013
16,11,0.0,0.0625,35.0,-1,0.0,3.909400000000005
17,11,0.5,1.0,35.0,1,1.0,0.7697000000000003
18,11,0.5,1.0,-35.0,-1,1.0,2.6200000000000045
19,11,0.5,0.25,-35.0,-1,1.0,2.758899999999997
20,11,0.5,0.125,35.0,-1,0.0,0.366100000000003
21,11,0.5,0.125,35.0,-1,0.0,0.37120000000000175
22,11,0.5,0.0,-35.0,-1,1.0,3.3590999999999696
23,11,0.5,0.125,-35.0,-1,1.0,0.7267999999999972
24,11,0.5,1.0,35.0,1,1.0,0.8514999999999588
25,11,0.5,0.125,35.0,-1,0.0,0.6383999999999901
26,11,0.5,0.25,35.0,-1,0.0,
27,11,0.5,0.0625,35.0,-1,0.0,4.220199999999977
28,11,0.5,0.0,-35.0,-1,1.0,0.5264999999999986
29,11,0.5,0.0625,-35.0,-1,1.0,2.7957999999999856
30,11,0.5,0.0625,-35.0,-1,1.0,0.3237999999999772
31,11,0.5,0.0,35.0,-1,0.0,3.980799999999988
32,11,0.5,0.125,35.0,-1,0.0,0.4321999999999946
33,11,0.5,0.25,-35.0,-1,1.0,0.40739999999999554
34,11,0.5,0.125,-35.0,-1,1.0,0.4114999999999611
35,11,0.5,0.0625,35.0,-1,0.0,1.495699999999971
36,11,0.5,0.125,35.0,-1,0.0,2.437699999999978
37,11,0.5,0.0,35.0,-1,0.0,4.525599999999997
38,11,0.0,0.0,35.0,-1,0.0,0.9055999999999926
39,11,0.5,1.0,35.0,-1,0.0,0.521899999999988
40,11,0.5,0.0625,-35.0,-1,1.0,0.4522000000000048
41,11,0.5,0.25,-35.0,-1,1.0,0.5346999999999582
42,11,0.5,0.25,35.0,1,1.0,1.2322999999999809
43,11,0.5,0.0625,-35.0,-1,1.0,0.6338999999999828
44,11,0.5,1.0,-35.0,-1,1.0,0.3708999999999776
45,11,0.5,0.125,35.0,-1,0.0,0.6529999999999916
46,11,0.5,0.0625,-35.0,-1,1.0,1.1509999999999536
47,11,0.5,0.0,-35.0,-1,1.0,13.092499999999973
48,11,0.5,1.0,35.0,1,1.0,0.3451000000000022
49,11,0.5,0.125,35.0,1,1.0,0.8077999999999861
50,11,0.5,0.25,-35.0,-1,1.0,0.4157000000000153
51,11,0.5,0.25,-35.0,-1,1.0,0.4141999999999939
52,11,0.5,0.125,35.0,-1,0.0,1.2448999999999728
53,11,0.5,0.125,-35.0,-1,1.0,0.4972999999999388
54,11,0.5,0.125,-35.0,1,0.0,4.249899999999968
55,11,0.5,0.125,-35.0,-1,1.0,0.20529999999996562
56,11,0.5,0.0625,-35.0,-1,1.0,0.8584000000000174
57,11,0.5,0.125,-35.0,-1,1.0,0.3299000000000092
58,11,0.5,0.0625,35.0,-1,0.0,0.4230999999999767
59,11,0.5,0.0625,-35.0,-1,1.0,0.46989999999999554
60,11,0.5,0.0,35.0,-1,0.0,4.908400000000029
61,11,0.5,0.0,-35.0,-1,1.0,2.929499999999962
62,11,0.5,0.125,35.0,-1,0.0,1.1265999999999963
63,11,0.5,0.125,-35.0,-1,1.0,1.1332000000000448
64,11,0.5,0.25,35.0,-1,0.0,0.4895999999999958
65,11,0.5,0.0625,35.0,-1,0.0,1.0611999999999853
66,11,0.5,0.25,-35.0,-1,1.0,0.42880000000002383
67,11,0.5,0.0625,35.0,-1,0.0,3.4621999999999957
68,11,0.0,0.0625,35.0,-1,0.0,0.33639999999996917
69,11,0.5,1.0,35.0,1,1.0,0.5713000000000079
70,11,0.5,0.0625,-35.0,-1,1.0,0.8485000000000014
71,11,0.5,0.0625,-35.0,-1,1.0,0.47469999999998436
72,11,0.5,0.0625,35.0,-1,0.0,10.79989999999998
73,11,0.1,0.0625,-35.0,-1,1.0,1.6023000000000138
74,11,0.5,1.0,35.0,1,1.0,4.589200000000005
75,11,0.5,1.0,-35.0,-1,1.0,0.30999999999994543
76,11,0.5,0.0625,-35.0,-1,1.0,0.3856999999999289
77,11,0.5,0.0,-35.0,-1,1.0,0.24840000000000373
78,11,0.5,1.0,35.0,1,1.0,0.8076999999999543
79,11,0.5,0.25,-35.0,-1,1.0,0.35599999999999454
80,11,0.5,0.0,-35.0,-1,1.0,0.7264999999999873
81,11,0.5,0.0,-35.0,-1,1.0,0.3143999999999778
82,11,0.5,1.0,35.0,1,1.0,0.6827000000000112
83,11,0.5,0.25,35.0,-1,0.0,0.28649999999998954
84,11,0.5,0.125,-35.0,-1,1.0,0.31569999999999254
85,11,0.5,0.0,35.0,1,1.0,0.4422999999999888
86,11,0.5,1.0,35.0,1,1.0,0.3272000000000048
87,11,0.5,1.0,-35.0,-1,1.0,0.2817000000000007
88,11,0.5,0.0,35.0,-1,0.0,4.292899999999975
89,11,0.5,0.25,-35.0,-1,1.0,0.467899999999986
90,11,0.5,1.0,-35.0,-1,1.0,0.3432999999999993
91,11,0.5,0.0625,-35.0,-1,1.0,1.059500000000014
92,11,0.5,0.125,35.0,1,1.0,1.1496000000000208
93,11,0.5,0.0625,-35.0,-1,1.0,0.3735999999999535
94,11,0.5,0.125,-35.0,-1,1.0,0.4017999999999802
95,11,0.5,0.125,35.0,1,1.0,0.6062000000000012
96,11,0.5,0.125,35.0,1,1.0,0.6899000000000228
97,11,0.5,0.0625,-35.0,-1,1.0,0.438000000000045
98,11,0.5,0.0,35.0,-1,0.0,0.2785999999999831
99,11,0.3,0.0,35.0,-1,0.0,6.343099999999993
100,11,0.5,1.0,35.0,1,1.0,0.4666000000000281
101,11,0.5,0.25,-35.0,-1,1.0,0.34660000000002356
102,11,0.5,0.125,-35.0,-1,1.0,0.27899999999999636
103,11,0.5,0.0625,35.0,-1,0.0,0.4621999999999389
104,11,0.5,0.125,35.0,1,1.0,0.892099999999914
105,11,0.5,0.125,-35.0,-1,1.0,0.22320000000001983
106,11,0.5,1.0,35.0,1,1.0,0.3203999999999496
107,11,0.5,0.0,-35.0,-1,1.0,0.9189000000000078
108,11,0.5,0.0,-35.0,-1,1.0,2.1987000000000307
109,11,0.5,0.125,35.0,1,1.0,2.479600000000005
110,11,0.5,0.0625,-35.0,-1,1.0,0.469600000000014
111,11,0.5,1.0,35.0,1,1.0,0.6136999999999944
112,11,0.5,0.125,-35.0,-1,1.0,1.2507999999999129
113,11,0.5,0.0625,-35.0,-1,1.0,0.9797999999999547
114,11,0.5,1.0,-35.0,-1,1.0,0.2724999999999227
115,11,0.5,1.0,35.0,-1,0.0,0.20920000000000982
116,11,0.5,0.0625,35.0,-1,0.0,0.5281999999999698
117,11,0.5,0.25,35.0,-1,0.0,0.37200000000007094
118,11,0.5,0.125,-35.0,-1,1.0,0.41629999999997835
119,11,0.5,0.25,35.0,-1,0.0,3.185600000000022
120,11,0.5,0.0,-35.0,-1,1.0,1.5688000000000102
121,11,0.5,0.0625,-35.0,-1,1.0,0.40260000000000673
122,11,0.5,1.0,35.0,1,1.0,0.5486999999999398
123,11,0.5,1.0,35.0,1,1.0,1.4345999999999322
124,11,0.5,0.0,-35.0,1,0.0,0.5712999999999511
125,11,0.5,0.25,35.0,1,1.0,0.46699999999998454
126,11,0.5,0.25,-35.0,-1,1.0,0.3626000000000431
127,11,0.5,0.0625,-35.0,-1,1.0,0.5095999999999776
128,11,0.5,1.0,-35.0,-1,1.0,0.34969999999998436
129,11,0.5,1.0,35.0,1,1.0,0.5853000000000748
130,11,0.5,0.125,35.0,-1,0.0,0.5455000000000609
131,11,0.5,0.125,35.0,1,1.0,0.4663999999999078
132,11,0.5,0.25,35.0,1,1.0,1.0307000000000244
133,11,0.5,0.125,35.0,1,1.0,2.3251000000000204
134,11,0.5,0.25,35.0,1,1.0,0.5353999999999814
135,11,0.5,0.0625,-35.0,1,0.0,1.4714999999999918
136,11,0.5,0.125,35.0,1,1.0,0.5557000000000016
137,11,0.5,0.125,35.0,-1,0.0,3.075200000000109
138,11,0.5,0.125,-35.0,-1,1.0,0.29319999999995616
139,11,0.5,0.25,35.0,1,1.0,0.7314000000000078
140,11,0.5,1.0,-35.0,-1,1.0,0.3102999999999838
141,11,0.5,0.25,35.0,1,1.0,0.33219999999994343
142,11,0.5,1.0,35.0,1,1.0,0.8222999999999274
143,11,0.5,0.125,35.0,-1,0.0,2.250099999999975
144,11,0.5,0.0,35.0,-1,0.0,1.1446999999999434
145,11,0.5,0.0,35.0,-1,0.0,8.270899999999983
146,11,0.5,1.0,35.0,1,1.0,5.001999999999953
147,11,0.5,0.0625,-35.0,-1,1.0,0.46649999999999636
148,11,0.5,0.0,35.0,-1,0.0,1.8711000000000695
149,11,0.5,0.25,-35.0,-1,1.0,0.3413999999999078
150,11,0.5,0.25,35.0,-1,0.0,2.14670000000001
151,11,0.5,0.125,-35.0,-1,1.0,0.7794000000000096
152,11,0.5,1.0,35.0,1,1.0,0.38440000000002783
153,11,0.5,0.0625,-35.0,-1,1.0,0.34199999999998454
154,11,0.5,0.0625,-35.0,-1,1.0,0.3854999999999791
155,11,0.5,1.0,-35.0,-1,1.0,0.24909999999988486
156,11,0.5,0.125,-35.0,-1,1.0,0.40859999999997854
157,11,0.5,0.0625,35.0,-1,0.0,0.688199999999938
158,11,0.5,0.25,-35.0,-1,1.0,0.4963000000000193
159,11,0.5,0.25,35.0,1,1.0,0.6075000000000728
160,11,0.5,1.0,-35.0,-1,1.0,0.2726000000000113
161,11,0.5,0.25,35.0,1,1.0,0.3646000000001095
162,11,0.5,1.0,35.0,1,1.0,0.2699999999999818
163,11,0.5,0.0625,35.0,1,1.0,2.0345000000000937
164,11,0.5,0.125,35.0,1,1.0,1.588899999999967
165,11,0.5,0.125,35.0,1,1.0,0.4882000000000062
166,11,0.5,1.0,35.0,1,1.0,0.30930000000000746
167,11,0.5,0.0,-35.0,-1,1.0,5.389999999999986
168,11,0.5,0.0,-35.0,-1,1.0,4.809499999999957
169,11,0.5,0.25,35.0,-1,0.0,0.6838999999999942
170,11,0.6,0.25,-35.0,-1,1.0,0.3387000000000171
171,11,0.5,1.0,35.0,1,1.0,0.4552000000001044
172,11,0.5,0.25,35.0,-1,0.0,1.0235999999999876
173,11,0.5,0.125,35.0,-1,0.0,0.39020000000004984
174,11,0.5,0.125,-35.0,-1,1.0,0.30510000000003856
175,11,0.5,0.0,-35.0,-1,1.0,3.7965000000000373
176,11,0.5,0.25,35.0,1,1.0,2.0412000000000035
177,11,0.5,0.25,35.0,1,1.0,0.6173000000000002
178,11,0.5,0.125,35.0,1,1.0,1.513599999999883
179,11,0.5,0.125,35.0,-1,0.0,4.531499999999937
180,11,0.5,0.0625,35.0,1,1.0,1.2297000000000935
181,11,0.5,0.125,-35.0,-1,1.0,2.3541000000000167
182,11,0.5,0.0625,-35.0,-1,1.0,0.26400000000001
183,11,0.5,0.0625,-35.0,-1,1.0,0.4714999999999918
184,11,0.5,0.25,-35.0,-1,1.0,0.30600000000004
185,11,0.5,0.0625,-35.0,-1,1.0,1.1268999999999778
186,11,0.5,0.25,-35.0,-1,1.0,0.36760000000003856
187,11,0.5,0.25,35.0,1,1.0,0.595899999999915
188,11,0.5,1.0,-35.0,-1,1.0,0.27909999999997126
189,11,0.5,0.0,-35.0,1,0.0,1.0599999999999454
190,11,0.5,0.25,35.0,-1,0.0,2.665300000000002
191,11,0.5,0.0625,35.0,-1,0.0,7.7924999999999045
192,11,0.5,0.125,-35.0,-1,1.0,13.746999999999957
193,11,0.5,0.125,35.0,-1,0.0,10.908400000000029
194,11,0.5,0.25,-35.0,-1,1.0,0.3345000000000482
195,11,0.5,1.0,35.0,-1,0.0,0.43830000000002656
196,11,0.5,0.0,35.0,1,1.0,5.410000000000082
197,11,0.5,0.0625,-35.0,-1,1.0,7.815300000000093
198,11,0.5,0.0625,-35.0,-1,1.0,3.578200000000038
199,11,0.5,1.0,-35.0,-1,1.0,0.21519999999998163
200,11,0.5,0.0625,35.0,-1,0.0,8.040900000000079
201,11,0.5,0.125,-35.0,-1,1.0,0.6554000000000997
202,11,0.5,0.125,35.0,-1,0.0,0.8898000000000366
203,11,0.5,0.0625,35.0,-1,0.0,5.528700000000072
204,11,0.5,0.0625,35.0,-1,0.0,11.382799999999975
205,11,0.5,0.125,35.0,-1,0.0,10.20780000000002
206,11,0.1,0.125,35.0,-1,0.0,8.164099999999848
207,11,0.5,1.0,35.0,-1,0.0,7.9486000000001695
208,11,0.5,0.25,35.0,-1,0.0,1.465900000000147
209,11,0.5,0.0,35.0,-1,0.0,11.769100000000208
210,11,0.5,0.125,35.0,-1,0.0,0.8387000000000171
211,11,0.5,0.125,35.0,-1,0.0,6.4688000000003285
212,11,0.5,0.25,-35.0,-1,1.0,7.359400000000051
213,11,0.5,0.0625,-35.0,-1,1.0,5.0534999999999854
214,11,0.5,0.0,-35.0,-1,1.0,1.0289999999999964
215,11,0.5,0.0625,35.0,-1,0.0,4.271900000000187
216,11,0.5,0.0,-35.0,-1,1.0,0.8207000000002154
217,11,0.5,1.0,-35.0,-1,1.0,0.28330000000005384
218,11,0.5,1.0,35.0,-1,0.0,1.0859000000000378
219,11,0.5,0.0625,35.0,-1,0.0,12.073200000000043
220,11,0.5,0.0,35.0,-1,0.0,9.873000000000047
221,11,0.0,0.0,35.0,-1,0.0,7.103700000000117
222,11,0.5,1.0,35.0,-1,0.0,20.5142000000003
223,11,0.0,1.0,35.0,-1,0.0,7.401000000000067
224,11,0.0,1.0,35.0,-1,0.0,15.50790000000029
225,11,0.0,1.0,35.0,-1,0.0,11.738400000000183
226,11,0.0,1.0,-35.0,-1,1.0,0.23879999999985557
227,11,0.5,1.0,35.0,-1,0.0,6.708900000000085
228,11,0.0,1.0,35.0,-1,0.0,15.322099999999864
229,11,0.0,1.0,35.0,-1,0.0,13.6717000000001
230,11,0.0,1.0,35.0,-1,0.0,5.193000000000211
231,11,0.0,1.0,-35.0,-1,1.0,0.4832000000001244
232,11,0.5,1.0,35.0,-1,0.0,10.406200000000126
233,11,0.5,0.0625,-35.0,-1,1.0,11.14689999999996
234,11,0.5,0.0625,35.0,-1,0.0,5.2103000000001884
235,11,0.5,0.25,-35.0,-1,1.0,7.150600000000168
236,11,0.5,0.0625,35.0,-1,0.0,3.5433000000000447
237,11,0.0,0.0625,35.0,-1,0.0,10.45750000000021
238,11,0.5,1.0,35.0,-1,0.0,2.8003000000001066
239,11,0.0,1.0,-35.0,-1,1.0,7.964399999999841
240,11,0.5,1.0,35.0,-1,0.0,0.22899999999981446
241,11,0.5,0.125,35.0,-1,0.0,2.514900000000125
242,11,0.5,0.25,-35.0,-1,1.0,7.044900000000098
243,11,0.5,0.0625,-35.0,-1,1.0,0.2576000000001386
244,11,0.5,0.125,-35.0,-1,1.0,0.23469999999997526
245,11,0.5,1.0,35.0,-1,0.0,0.9486000000001695
246,11,0.5,0.125,35.0,-1,0.0,4.972100000000182
247,11,0.5,0.25,35.0,-1,0.0,10.412099999999782
248,11,0.0,0.25,35.0,-1,0.0,30.312400000000025
249,11,0.5,1.0,35.0,-1,0.0,28.19230000000016
250,11,0.5,0.125,35.0,-1,0.0,5.573800000000119
251,11,0.5,0.0,-35.0,-1,1.0,18.780300000000125
252,11,0.5,1.0,-35.0,-1,1.0,0.34700000000020736
253,11,0.5,0.25,-35.0,-1,1.0,3.2210999999999785
254,11,0.5,1.0,-35.0,-1,1.0,0.22020000000020445
255,11,0.5,0.0625,35.0,-1,0.0,2.0535999999999603
256,11,0.5,0.125,-35.0,-1,1.0,0.6373999999998432
257,11,0.5,1.0,-35.0,0,0.0,60.024700000000166
258,11,0.1,1.0,35.0,-1,0.0,1.4992999999999483
259,11,0.1,1.0,-35.0,-1,1.0,10.639100000000326
260,11,0.5,1.0,35.0,1,1.0,24.370100000000093
261,11,0.5,1.0,35.0,1,1.0,18.63650000000007
262,11,0.5,0.25,35.0,-1,0.0,2.6637000000000626
263,11,0.5,0.0625,-35.0,-1,1.0,1.4238000000000284
264,11,0.5,0.125,-35.0,-1,1.0,25.903999999999996
265,11,0.5,1.0,35.0,-1,0.0,8.214399999999841
266,11,0.5,0.25,35.0,-1,0.0,5.551800000000185
267,11,0.5,0.125,35.0,-1,0.0,16.807199999999966
268,11,0.2,0.125,-35.0,-1,1.0,10.541700000000219
269,11,0.5,1.0,35.0,-1,0.0,8.628900000000158
270,11,0.5,0.0625,35.0,-1,0.0,18.875500000000102
271,11,0.5,0.0625,35.0,-1,0.0,19.229299999999967
272,11,0.5,0.25,-35.0,-1,1.0,16.620100000000093
273,11,0.5,0.125,-35.0,1,0.0,15.786900000000287
274,11,0.1,0.125,35.0,-1,0.0,9.590700000000197
275,11,0.5,1.0,35.0,-1,0.0,13.330799999999954
276,11,0.5,0.125,-35.0,-1,1.0,10.774400000000014
277,11,0.5,1.0,35.0,-1,0.0,5.241300000000365
278,11,0.1,1.0,35.0,-1,0.0,5.084800000000087
279,11,0.1,1.0,-35.0,-1,1.0,14.501600000000053
280,11,0.5,1.0,35.0,-1,0.0,6.991900000000214
281,11,0.5,0.0,35.0,-1,0.0,3.598700000000008
282,11,0.5,0.125,-35.0,-1,1.0,6.529099999999971
283,11,0.5,0.125,-35.0,-1,1.0,11.241900000000214
284,11,0.5,1.0,35.0,-1,0.0,13.912500000000136
285,11,0.5,0.0,-35.0,-1,1.0,17.94290000000001
286,11,0.5,1.0,-35.0,1,0.0,4.856899999999996
287,11,0.5,0.0625,-35.0,-1,1.0,24.746700000000146
288,11,0.5,0.25,-35.0,-1,1.0,14.185100000000148
289,11,0.5,1.0,-35.0,-1,1.0,5.340599999999995
290,11,0.5,1.0,-35.0,-1,1.0,7.4103000000000065
291,11,0.5,0.25,35.0,-1,0.0,2.227100000000064
292,11,0.1,0.25,35.0,-1,0.0,8.341300000000047
293,11,0.5,1.0,35.0,-1,0.0,17.76160000000027
294,11,0.1,1.0,35.0,-1,0.0,4.962199999999939
295,11,0.1,1.0,35.0,-1,0.0,13.462300000000141
296,11,0.1,1.0,35.0,-1,0.0,1.8830000000002656
297,11,0.0,1.0,35.0,-1,0.0,21.902599999999893
298,11,0.0,1.0,-35.0,-1,1.0,12.806500000000142
299,11,0.5,1.0,35.0,-1,0.0,3.057000999999673
300,11,0.5,0.25,-35.0,-1,1.0,2.8870010000000548
301,11,0.5,0.0625,-35.0,-1,1.0,16.68710100000044
302,11,0.5,0.25,-35.0,-1,1.0,3.5242010000001756
303,11,0.5,0.25,-35.0,-1,1.0,11.712001000000328
304,11,0.5,0.0,-35.0,-1,1.0,10.404399999999896
305,11,0.5,0.0625,-35.0,-1,1.0,6.147300999999516
306,11,0.5,0.0625,-35.0,-1,1.0,8.2249010000005
307,11,0.5,0.125,35.0,-1,0.0,9.83500099999992
308,11,0.5,0.0625,35.0,-1,0.0,2.552100999999766
309,11,0.0,0.0625,-35.0,-1,1.0,9.7591010000001
310,11,0.5,1.0,35.0,-1,0.0,12.874800999999934
311,11,0.0,1.0,35.0,-1,0.0,0.7261010000001988
312,11,0.0,1.0,35.0,-1,0.0,1.3028009999998176
313,11,0.0,1.0,35.0,-1,0.0,0.6331009999998969
314,11,0.0,1.0,-35.0,-1,1.0,3.4864010000001144
315,11,0.5,1.0,35.0,-1,0.0,1.1231010000001334
316,11,0.5,0.0625,-35.0,-1,1.0,4.940400999999838
317,11,0.5,0.0625,-35.0,-1,1.0,4.497001000000182
318,11,0.5,0.0,35.0,-1,0.0,1.6835009999999784
319,11,0.5,0.0,35.0,-1,0.0,40.336301000000276
320,11,0.5,0.25,-35.0,-1,1.0,14.891201000000365
321,11,0.5,0.125,-35.0,-1,1.0,1.1414009999998598
322,11,0.5,0.0,-35.0,-1,1.0,11.744701000000077
323,11,0.5,0.0625,35.0,-1,0.0,15.179100999999719
324,11,0.0,0.0625,35.0,-1,0.0,10.07180100000005
325,11,0.5,1.0,35.0,-1,0.0,1.3231010000004062
326,11,0.5,0.0,-35.0,-1,1.0,11.186501000000135
327,11,0.5,0.125,-35.0,1,0.0,4.042201000000205
328,11,0.5,0.25,35.0,1,1.0,10.386001000000306
329,11,0.5,0.0625,35.0,1,1.0,6.066001000000142
330,11,0.5,0.25,35.0,-1,0.0,2.079201000000012
331,11,0.3,0.25,35.0,1,1.0,3.547801000000163
332,11,0.5,1.0,35.0,1,1.0,12.190100999999686
333,11,0.5,1.0,35.0,-1,0.0,26.110301000000618
334,11,0.5,0.0625,-35.0,-1,1.0,11.064101000000392
335,11,0.5,0.0,35.0,-1,0.0,5.907901000000038
336,11,0.5,0.0625,-35.0,-1,1.0,13.947801000000254
337,11,0.5,1.0,35.0,1,1.0,11.291101000000253
338,11,0.5,0.25,35.0,-1,0.0,7.225200999999743
339,11,0.4,0.25,35.0,-1,0.0,5.725701000000299
340,11,0.5,1.0,-35.0,-1,1.0,20.285701000000245
341,11,0.5,0.0625,-35.0,1,0.0,1.9192010000001574
342,11,0.5,0.0625,-35.0,-1,1.0,8.47260099999994
343,11,0.5,0.25,35.0,-1,0.0,5.174301000000469
344,11,0.5,0.25,35.0,-1,0.0,1.9558010000005197
345,11,0.5,0.0625,35.0,-1,0.0,8.1632010000003
346,11,0.5,0.25,-35.0,1,0.0,11.683700999999928
347,11,0.5,0.0625,35.0,-1,0.0,17.453801000000112
348,11,0.2,0.0625,35.0,-1,0.0,27.447001
349,11,0.5,1.0,35.0,1,1.0,13.231201000000056
350,11,0.5,0.125,35.0,-1,0.0,1.3247010000004593
351,11,0.5,0.0625,35.0,-1,0.0,3.4945010000001275
352,11,0.5,0.0625,35.0,-1,0.0,19.231901000000107
353,11,0.5,0.25,35.0,-1,0.0,10.429001000000426
354,11,0.5,0.25,35.0,1,1.0,3.2228009999998903
355,11,0.5,0.25,35.0,-1,0.0,3.0493010000004688
356,11,0.5,0.125,35.0,1,1.0,9.142301000000316
357,11,0.5,0.0625,-35.0,-1,1.0,5.692601000000195
358,11,0.5,0.25,-35.0,-1,1.0,0.8333010000001195
359,11,0.5,0.25,35.0,-1,0.0,8.996600999999828
360,11,0.5,0.25,-35.0,-1,1.0,0.8934010000002672
361,11,0.5,1.0,-35.0,-1,1.0,8.073001000000204
362,11,0.5,0.0625,-35.0,-1,1.0,42.41440099999954
363,11,0.5,1.0,35.0,-1,0.0,6.278201000000081
364,11,0.5,0.125,-35.0,-1,1.0,13.668800999999803
365,11,0.5,0.25,-35.0,-1,1.0,12.231401000000005
366,11,0.5,0.125,35.0,1,1.0,3.2552009999999427
367,11,0.5,0.25,35.0,-1,0.0,16.692201000000296
368,11,0.5,0.125,-35.0,1,0.0,14.359201000000212
369,11,0.5,0.0625,35.0,1,1.0,34.036301000000094
370,11,0.5,1.0,35.0,1,1.0,3.3093010000002323
371,11,0.5,0.25,35.0,-1,0.0,4.837101000000075
372,11,0.5,0.0,-35.0,1,0.0,1.6816009999997732
373,11,0.5,0.0625,-35.0,-1,1.0,6.983401000000413
374,11,0.5,0.0625,35.0,1,1.0,5.55020100000047
375,11,0.5,0.25,35.0,1,1.0,2.027400999999827
376,11,0.5,1.0,35.0,1,1.0,10.104601000000002
377,11,0.5,0.0625,-35.0,1,0.0,5.761401000000205
378,11,0.5,0.0,35.0,-1,0.0,0.4820009999998547
379,11,0.5,0.125,35.0,-1,0.0,4.058200999999826
380,11,0.6,0.125,-35.0,-1,1.0,10.375001000000339
381,11,0.5,1.0,-35.0,-1,1.0,0.21220100000027742
382,11,0.5,0.25,35.0,1,1.0,9.59110099999998
383,11,0.5,0.25,-35.0,-1,1.0,1.2458010000004833
384,11,0.5,1.0,35.0,-1,0.0,3.6726010000002134
385,11,0.5,0.0625,35.0,1,1.0,25.132101000000148
386,11,0.5,0.0,35.0,-1,0.0,10.049701000000368
387,11,0.5,0.125,-35.0,-1,1.0,9.239600999999766
388,11,0.5,1.0,35.0,-1,0.0,0.22950100000025486
389,11,0.5,0.0625,35.0,-1,0.0,12.823701000000256
390,11,0.5,0.0,-35.0,-1,1.0,10.691101000000344
391,11,0.5,1.0,-35.0,-1,1.0,0.4575009999998656
392,11,0.5,0.25,-35.0,1,0.0,8.81800099999964
393,11,0.5,0.25,-35.0,-1,1.0,6.588101000000279
394,11,0.5,1.0,35.0,1,1.0,18.277201000000332
395,11,0.5,0.25,35.0,1,1.0,7.3757009999999354
396,11,0.5,0.25,35.0,-1,0.0,36.5686010000004
397,11,0.5,0.25,-35.0,-1,1.0,0.28600100000039674
398,11,0.5,0.125,-35.0,1,0.0,7.062200999999732
399,11,0.5,0.0625,-35.0,-1,1.0,11.256301000000349
400,11,0.5,1.0,35.0,-1,0.0,6.163100999999642
401,11,0.4,1.0,-35.0,1,0.0,2.196401000000151
402,11,0.5,1.0,-35.0,1,0.0,6.847001000000091
403,11,0.5,1.0,35.0,1,1.0,25.45020100000056
404,11,0.5,1.0,35.0,-1,0.0,4.557701000000179
405,11,0.5,0.25,-35.0,1,0.0,0.5210010000000693
406,11,0.5,0.0625,35.0,1,1.0,13.171200999999655
407,11,0.5,0.25,-35.0,-1,1.0,2.8922010000001137
408,11,0.5,1.0,-35.0,-1,1.0,7.524300999999923
409,11,0.5,0.0625,-35.0,1,0.0,1.4477010000000519
410,11,0.5,0.0,35.0,-1,0.0,17.564300999999887
1,12,0.5,0.0625,-35.0,-1,1.0,0.35699999999999976
2,12,0.5,0.125,-35.0,-1,1.0,0.36329999999999973
3,12,0.5,1.0,-35.0,-1,1.0,0.38339999999999996
4,12,0.5,0.0,35.0,-1,0.0,0.31899999999999906
5,12,0.5,0.125,35.0,1,1.0,0.6155000000000008
6,12,0.5,0.125,35.0,1,1.0,0.31670000000000087
7,12,0.5,0.125,35.0,1,1.0,0.5407010000000021
8,12,0.5,0.125,35.0,1,1.0,0.48720100000000244
9,12,0.5,0.0625,35.0,-1,0.0,0.40590099999999296
10,12,0.5,0.25,35.0,-1,0.0,2.1084010000000006
11,12,0.5,0.0625,-35.0,-1,1.0,0.40640099999999535
12,12,0.5,0.125,35.0,-1,0.0,0.22710100000000466
13,12,0.5,0.25,35.0,1,1.0,0.5932010000000005
14,12,0.5,1.0,35.0,1,1.0,0.3881009999999918
15,12,0.5,1.0,35.0,1,1.0,0.4505009999999956
16,12,0.5,0.125,35.0,1,1.0,0.24910099999999602
17,12,0.5,0.0625,-35.0,1,0.0,0.9004010000000022
18,12,0.6,0.0625,-35.0,-1,1.0,0.38880100000000084
19,12,0.5,1.0,35.0,1,1.0,0.27670100000000275
20,12,0.5,1.0,-35.0,-1,1.0,0.3435010000000034
21,12,0.5,0.125,35.0,1,1.0,0.6663010000000043
22,12,0.5,0.125,-35.0,-1,1.0,0.5238009999999917
23,12,0.5,0.0625,-35.0,-1,1.0,1.2477009999999922
24,12,0.5,0.0625,-35.0,-1,1.0,3.196200999999988
25,12,0.5,0.0625,35.0,-1,0.0,0.35840100000000064
26,12,0.4,0.0625,35.0,-1,0.0,0.6442010000000096
27,12,0.5,1.0,35.0,1,1.0,0.37660099999999375
28,12,0.5,0.25,35.0,-1,0.0,2.3398009999999942
29,12,0.3,0.25,-35.0,-1,1.0,0.9387009999999947
30,12,0.5,1.0,35.0,1,1.0,0.6698009999999925
31,12,0.5,0.0,-35.0,-1,1.0,0.29120100000000093
32,12,0.5,0.0625,-35.0,-1,1.0,0.7055010000000124
33,12,0.5,0.0,-35.0,-1,1.0,4.913500999999997
34,12,0.5,0.25,35.0,-1,0.0,0.3809009999999944
35,12,0.5,0.0625,-35.0,-1,1.0,
36,12,0.5,0.125,35.0,1,1.0,0.4929010000000176
37,12,0.5,0.0,35.0,-1,0.0,0.5095010000000002
38,12,0.5,0.25,35.0,1,1.0,0.5881010000000231
39,12,0.5,0.25,-35.0,-1,1.0,0.402401000000026
40,12,0.5,0.125,35.0,-1,0.0,2.076201000000026
41,12,0.5,0.0625,-35.0,1,0.0,2.55260100000001
42,12,0.5,0.0,35.0,-1,0.0,3.2894010000000264
43,12,0.5,0.125,-35.0,-1,1.0,0.3897010000000307
44,12,0.5,0.25,35.0,1,1.0,5.8513010000000065
45,12,0.5,1.0,-35.0,-1,1.0,0.22050100000001294
46,12,0.5,0.25,35.0,1,1.0,0.6911010000000317
47,12,0.5,1.0,-35.0,-1,1.0,0.24100100000001135
48,12,0.5,0.0625,35.0,-1,0.0,0.6017010000000198
49,12,0.5,0.0625,35.0,-1,0.0,2.9828010000000234
50,12,0.5,0.25,35.0,1,1.0,0.3647009999999966
51,12,0.5,0.25,35.0,1,1.0,0.38110100000002944
52,12,0.5,0.25,-35.0,-1,1.0,0.3423010000000204
53,12,0.5,0.0625,-35.0,-1,1.0,0.34910099999999034
54,12,0.5,0.0625,-35.0,-1,1.0,0.5086009999999987
55,12,0.5,1.0,35.0,1,1.0,0.46760100000000193
56,12,0.5,0.0625,-35.0,1,0.0,0.5853010000000154
57,12,0.4,0.0625,35.0,-1,0.0,1.6738009999999974
58,12,0.5,1.0,35.0,-1,0.0,9.741201000000018
59,12,0.5,0.125,35.0,-1,0.0,2.674801000000002
60,12,0.4,0.125,-35.0,-1,1.0,1.1006010000000401
61,12,0.5,1.0,-35.0,-1,1.0,0.26500099999998383
62,12,0.5,0.125,-35.0,-1,1.0,0.15620100000001003
63,12,0.5,0.125,-35.0,-1,1.0,0.3378009999999563
64,12,0.5,0.0625,-35.0,-1,1.0,0.09260100000000193
65,12,0.5,0.0625,-35.0,-1,1.0,0.10750100000001339
66,12,0.5,0.25,35.0,-1,0.0,0.09140100000001894
67,12,0.0,0.25,35.0,1,1.0,0.454701
68,12,0.5,1.0,35.0,1,1.0,0.3384009999999762
69,12,0.5,0.25,35.0,1,1.0,0.3082010000000537
70,12,0.5,0.25,-35.0,-1,1.0,0.7102010000000405
71,12,0.5,1.0,35.0,-1,0.0,0.08460100000002058
72,12,0.3,1.0,35.0,1,1.0,0.27630099999998947
73,12,0.5,1.0,35.0,1,1.0,0.27990100000005214
74,12,0.5,0.0625,-35.0,-1,1.0,0.556901000000039
75,12,0.5,0.25,35.0,1,1.0,0.515500999999972
76,12,0.5,0.125,35.0,-1,0.0,0.5006010000000174
77,12,0.5,0.0,35.0,-1,0.0,0.10290100000003122
78,12,0.5,0.25,-35.0,-1,1.0,0.7641010000000392
79,12,0.5,0.125,-35.0,-1,1.0,0.2994009999999889
80,12,0.5,1.0,-35.0,-1,1.0,0.22630100000003495
81,12,0.5,0.25,35.0,1,1.0,0.9922009999999659
82,12,0.5,1.0,-35.0,-1,1.0,0.21690100000000712
83,12,0.5,1.0,35.0,1,1.0,0.6857009999999377
84,12,0.5,0.0,-35.0,-1,1.0,0.3114009999999894
85,12,0.5,0.125,35.0,-1,0.0,1.6946010000000342
86,12,0.5,0.25,-35.0,-1,1.0,0.24220100000002276
87,12,0.5,1.0,-35.0,-1,1.0,0.17850100000003977
88,12,0.5,0.0625,35.0,-1,0.0,0.35470100000003413
89,12,0.5,0.25,35.0,1,1.0,0.4372010000000728
90,12,0.5,0.0625,-35.0,-1,1.0,0.3137010000000373
91,12,0.5,0.0625,-35.0,-1,1.0,0.11160100000000739
92,12,0.5,0.25,35.0,1,1.0,0.43140099999999393
93,12,0.5,0.25,-35.0,-1,1.0,0.2466009999999983
94,12,0.5,0.25,-35.0,-1,1.0,0.2032010000000355
95,12,0.5,0.25,-35.0,-1,1.0,0.3276000000000181
96,12,0.5,1.0,35.0,1,1.0,0.44250099999999293
97,12,0.5,0.125,-35.0,-1,1.0,0.25810100000001057
98,12,0.5,0.125,35.0,1,1.0,1.2945010000000252
99,12,0.5,1.0,-35.0,-1,1.0,0.24390099999999393
100,12,0.5,0.0625,35.0,-1,0.0,0.5728010000000268
101,12,0.5,0.25,35.0,1,1.0,0.770601000000056
102,12,0.5,1.0,35.0,1,1.0,0.31390100000004395
103,12,0.5,0.0625,-35.0,1,0.0,0.4003010000000131
104,12,0.5,0.0625,35.0,-1,0.0,0.25580099999996264
105,12,0.5,0.0625,-35.0,-1,1.0,0.5397009999999796
106,12,0.5,1.0,35.0,1,1.0,0.7564010000000394
107,12,0.5,0.0,-35.0,-1,1.0,1.791201000000001
108,12,0.5,0.25,35.0,-1,0.0,0.6890010000000188
109,12,0.4,0.25,35.0,1,1.0,0.4902010000000132
110,12,0.5,1.0,35.0,1,1.0,0.3323010000000295
111,12,0.5,0.25,-35.0,-1,1.0,0.23130099999997356
112,12,0.5,1.0,-35.0,-1,1.0,0.15920099999993909
113,12,0.5,0.25,35.0,1,1.0,0.7874009999999885
114,12,0.5,0.25,-35.0,-1,1.0,0.28270099999997456
115,12,0.5,0.25,-35.0,-1,1.0,0.27210099999996373
116,12,0.5,0.0625,35.0,-1,0.0,0.33210100000002285
117,12,0.5,0.25,-35.0,-1,1.0,0.34250100000002703
118,12,0.5,0.0625,35.0,-1,0.0,4.654601000000014
119,12,0.3,0.0625,35.0,-1,0.0,0.12390100000004622
120,12,0.5,1.0,35.0,1,1.0,0.4836010000000215
121,12,0.5,0.125,35.0,1,1.0,2.129801000000043
122,12,0.5,0.25,35.0,1,1.0,0.7398009999999999
123,12,0.5,0.25,-35.0,-1,1.0,0.29110100000002603
124,12,0.5,0.0625,35.0,-1,0.0,1.5602010000000064
125,12,0.5,0.125,35.0,-1,0.0,0.39850100000006705
126,12,0.5,0.0625,35.0,1,1.0,0.6896010000000388
127,12,0.5,1.0,-35.0,-1,1.0,0.2880010000000084
128,12,0.5,1.0,35.0,1,1.0,0.29550100000000157
129,12,0.5,1.0,-35.0,-1,1.0,0.22740100000009988
130,12,0.5,0.0625,-35.0,-1,1.0,0.2901010000000497
131,12,0.5,1.0,35.0,1,1.0,0.3320009999999911
132,12,0.5,0.25,35.0,1,1.0,0.5810010000000148
133,12,0.5,0.125,35.0,-1,0.0,0.09330100000011043
134,12,0.5,0.125,-35.0,-1,1.0,0.5204009999999926
135,12,0.5,0.0,-35.0,1,0.0,0.46580100000005586
136,12,0.5,0.125,35.0,1,1.0,8.205201000000102
137,12,0.5,1.0,35.0,1,1.0,0.3706010000000788
138,12,0.5,0.125,35.0,-1,0.0,1.2205009999998992
139,12,0.5,0.125,35.0,-1,0.0,5.501101000000062
140,12,0.5,0.125,-35.0,1,0.0,0.07640100000003258
141,12,0.5,1.0,-35.0,-1,1.0,0.2640010000000075
142,12,0.5,0.0625,-35.0,-1,1.0,5.953200999999922
143,12,0.5,1.0,-35.0,-1,1.0,0.5984009999999671
144,12,0.5,0.0,35.0,-1,0.0,2.1057009999999536
145,12,0.5,0.125,35.0,-1,0.0,16.459101000000032
146,12,0.5,0.125,-35.0,-1,1.0,0.6451010000000679
147,12,0.5,1.0,-35.0,-1,1.0,0.279901000000109
148,12,0.5,0.0625,35.0,-1,0.0,1.28770099999997
149,12,0.5,0.0625,35.0,-1,0.0,0.740301000000045
150,12,0.5,0.0,-35.0,1,0.0,5.506301000000008
151,12,0.5,0.0625,-35.0,1,0.0,6.902501000000029
152,12,0.5,0.0,35.0,-1,0.0,0.6206010000000788
153,12,0.5,0.0,35.0,-1,0.0,3.3214009999999234
154,12,0.5,0.125,-35.0,-1,1.0,0.3843010000000504
155,12,0.5,0.25,35.0,-1,0.0,0.39360099999998965
156,12,0.5,0.0625,35.0,-1,0.0,0.744401000000039
157,12,0.5,0.25,35.0,1,1.0,0.5068009999999958
158,12,0.5,0.125,-35.0,-1,1.0,0.2571010000000342
159,12,0.5,1.0,35.0,1,1.0,0.2710010000000693
160,12,0.5,0.25,-35.0,-1,1.0,0.20670099999995273
161,12,0.5,1.0,35.0,1,1.0,0.3057009999999991
162,12,0.5,0.25,35.0,1,1.0,0.8766010000000506
163,12,0.5,0.25,35.0,1,1.0,1.7659009999999853
164,12,0.5,0.0,35.0,-1,0.0,8.84450100000015
165,12,0.5,0.125,-35.0,-1,1.0,0.6852010000000064
166,12,0.5,0.0,-35.0,-1,1.0,0.9517009999999573
167,12,0.5,0.0,35.0,-1,0.0,4.394201000000066
168,12,0.5,0.25,35.0,-1,0.0,0.4000010000000884
169,12,0.5,0.0,-35.0,1,0.0,4.088000999999963
170,12,0.5,0.0625,35.0,1,1.0,1.2531009999999014
171,12,0.5,0.25,-35.0,-1,1.0,0.37690100000008897
172,12,0.5,0.0,-35.0,1,0.0,3.1546010000000706
173,12,0.5,0.125,35.0,-1,0.0,1.1346010000000888
174,12,0.5,0.125,35.0,1,1.0,0.8423010000000204
175,12,0.5,1.0,35.0,1,1.0,0.2903009999999995
176,12,0.5,1.0,-35.0,-1,1.0,0.2651010000000724
177,12,0.5,0.125,-35.0,-1,1.0,12.648801000000049
178,12,0.5,0.125,35.0,-1,0.0,2.0411009999999123
179,12,0.5,0.0625,35.0,1,1.0,0.4386010000000624
180,12,0.5,0.25,-35.0,-1,1.0,0.591301000000044
181,12,0.5,0.0,-35.0,-1,1.0,0.3641010000000051
182,12,0.5,0.25,35.0,-1,0.0,0.15730099999996128
183,12,0.5,0.0625,35.0,-1,0.0,2.140500999999972
184,12,0.5,0.0625,-35.0,-1,1.0,0.396300999999994
185,12,0.5,0.25,35.0,1,1.0,0.796301000000085
186,12,0.5,0.125,-35.0,-1,1.0,0.15020100000003822
187,12,0.5,0.125,-35.0,-1,1.0,0.45250099999998383
188,12,0.5,0.25,-35.0,-1,1.0,0.2557010000000446
189,12,0.5,0.125,-35.0,-1,1.0,0.8416009999999687
190,12,0.5,0.25,-35.0,-1,1.0,0.27030100000001767
191,12,0.5,0.25,-35.0,-1,1.0,0.3306009999998878
192,12,0.5,1.0,-35.0,-1,1.0,0.21020099999998365
193,12,0.5,0.125,35.0,-1,0.0,0.3645010000001321
194,12,0.5,0.25,-35.0,-1,1.0,0.22370100000000548
195,12,0.5,0.0625,35.0,-1,0.0,0.7445010000000138
196,12,0.5,0.125,35.0,1,1.0,0.5362010000000055
197,12,0.5,0.125,35.0,-1,0.0,1.5667009999999664
198,12,0.5,0.125,35.0,1,1.0,0.6135010000001557
199,12,0.5,1.0,-35.0,-1,1.0,0.21760100000005878
200,12,0.5,1.0,-35.0,-1,1.0,0.22590100000002167
201,12,0.5,0.25,-35.0,-1,1.0,0.2517009999999118
202,12,0.5,1.0,35.0,1,1.0,0.45760100000006787
203,12,0.5,0.0625,35.0,-1,0.0,3.7644010000000208
204,12,0.5,0.25,35.0,1,1.0,0.6133010000000922
205,12,0.5,0.125,-35.0,-1,1.0,0.7401009999999815
206,12,0.5,0.0,35.0,-1,0.0,1.0030010000000402
207,12,0.5,0.125,35.0,1,1.0,0.5927010000001474
208,12,0.5,0.0,35.0,-1,0.0,0.3496010000001206
209,12,0.5,0.25,-35.0,-1,1.0,0.4936010000000124
210,12,0.5,0.25,-35.0,-1,1.0,0.38920100000007096
211,12,0.5,0.0,35.0,-1,0.0,0.267201
212,12,0.5,0.0625,-35.0,1,0.0,2.555201000000011
213,12,0.3,0.0625,35.0,-1,0.0,2.2413009999999076
214,12,0.5,1.0,-35.0,-1,1.0,0.3217009999999618
215,12,0.5,1.0,35.0,1,1.0,0.2674010000000635
216,12,0.5,1.0,-35.0,-1,1.0,0.5647010000001274
217,12,0.5,0.25,35.0,1,1.0,0.5151009999999587
218,12,0.5,1.0,35.0,1,1.0,0.5501010000000406
219,12,0.5,0.25,-35.0,-1,1.0,0.7904010000000881
220,12,0.5,0.125,35.0,-1,0.0,3.370001000000002
221,12,0.5,0.125,-35.0,-1,1.0,0.9212009999999964
222,12,0.5,0.125,35.0,-1,0.0,3.7509009999998852
223,12,0.5,0.0625,35.0,1,1.0,0.47520099999997
224,12,0.5,1.0,-35.0,-1,1.0,0.23410100000000966
225,12,0.5,0.0625,35.0,-1,0.0,7.875401000000011
226,12,0.5,0.0,-35.0,-1,1.0,7.888501000000019
227,12,0.5,0.0625,-35.0,-1,1.0,0.31520100000000184
228,12,0.5,1.0,-35.0,-1,1.0,0.2842009999999391
229,12,0.5,0.0625,-35.0,1,0.0,3.222801000000004
230,12,0.5,0.125,-35.0,-1,1.0,7.620601000000079
231,12,0.5,0.25,-35.0,1,0.0,2.6998009999999795
232,12,0.5,0.0625,-35.0,-1,1.0,7.986401000000114
233,12,0.5,0.25,35.0,-1,0.0,19.754200999999966
234,12,0.5,0.0625,35.0,-1,0.0,1.5207009999999173
235,12,0.5,0.25,-35.0,-1,1.0,1.0973010000000158
236,12,0.5,0.25,35.0,1,1.0,40.30070099999989
237,12,0.5,0.25,-35.0,-1,1.0,43.011401000000205
238,12,0.5,0.0625,-35.0,-1,1.0,3.175600999999915
239,12,0.5,0.125,-35.0,-1,1.0,5.1830009999998765
240,12,0.5,0.0625,-35.0,-1,1.0,13.729201000000103
241,12,0.5,0.0,-35.0,-1,1.0,8.526401000000078
242,12,0.5,0.25,-35.0,-1,1.0,0.46230100000002494
243,12,0.5,0.125,35.0,-1,0.0,0.5033009999999649
244,12,0.5,0.0625,-35.0,-1,1.0,0.8560009999998783
245,12,0.5,0.125,35.0,-1,0.0,1.2732009999999718
246,12,0.5,0.0625,-35.0,-1,1.0,4.137200999999777
247,12,0.5,1.0,-35.0,-1,1.0,0.2846009999998387
248,12,0.5,0.125,35.0,-1,0.0,2.6601009999999405
249,12,0.5,0.0625,-35.0,-1,1.0,0.636100999999826
250,12,0.5,1.0,-35.0,-1,1.0,0.26700099999993654
251,12,0.5,0.0,35.0,-1,0.0,2.149901
252,12,0.5,0.0625,35.0,-1,0.0,3.133901000000151
253,12,0.5,0.25,35.0,1,1.0,0.5980010000000675
254,12,0.5,0.0625,-35.0,1,0.0,6.317401000000018
255,12,0.2,0.0625,35.0,-1,0.0,14.73430099999996
256,12,0.5,1.0,35.0,1,1.0,0.4410009999999147
257,12,0.5,0.25,-35.0,-1,1.0,0.27720099999987724
258,12,0.5,0.125,35.0,-1,0.0,1.4172010000002047
259,12,0.5,0.125,35.0,-1,0.0,5.634800999999925
260,12,0.5,0.25,35.0,-1,0.0,1.004901000000018
261,12,0.5,0.25,35.0,1,1.0,3.519401000000016
262,12,0.5,0.25,-35.0,-1,1.0,0.3417010000000573
263,12,0.5,0.0625,35.0,1,1.0,2.831900999999789
264,12,0.5,1.0,-35.0,-1,1.0,0.2896009999999478
265,12,0.5,0.0625,-35.0,-1,1.0,0.3588009999998576
266,12,0.5,0.125,-35.0,1,0.0,0.7422010000000228
267,12,0.5,0.125,-35.0,1,0.0,3.355401000000029
268,12,0.5,0.0625,35.0,1,1.0,4.869101000000001
269,12,0.5,0.25,35.0,1,1.0,0.6590009999999893
270,12,0.5,0.25,35.0,1,1.0,0.23240100000020902
271,12,0.5,0.25,35.0,1,1.0,0.31710100000009334
272,12,0.5,0.0,35.0,-1,0.0,4.2360009999999875
273,12,0.5,0.0625,-35.0,-1,1.0,1.1793010000001232
274,12,0.5,0.25,-35.0,-1,1.0,0.29929999999990287
275,12,0.5,0.0,35.0,1,1.0,12.140700999999808
276,12,0.5,0.25,-35.0,-1,1.0,3.0599010000000817
277,12,0.5,0.125,-35.0,-1,1.0,0.24660100000005514
278,12,0.5,1.0,-35.0,-1,1.0,0.2661009999999351
279,12,0.5,0.125,35.0,-1,0.0,0.33720100000005004
280,12,0.5,0.125,-35.0,-1,1.0,0.5700009999998201
281,12,0.5,0.125,35.0,1,1.0,6.586800999999923
282,12,0.5,0.0625,35.0,1,1.0,6.410301000000118
283,12,0.5,0.0625,35.0,-1,0.0,11.853301000000101
284,12,0.3,0.0625,-35.0,1,0.0,13.634100999999873
285,12,0.5,1.0,35.0,1,1.0,14.271700999999894
286,12,0.5,1.0,-35.0,-1,1.0,0.2814009999999598
287,12,0.5,0.25,-35.0,-1,1.0,7.114700999999968
288,12,0.5,0.25,-35.0,-1,1.0,5.614901000000145
289,12,0.5,0.125,-35.0,-1,1.0,0.4654010000001563
290,12,0.5,0.25,35.0,-1,0.0,5.777800999999954
291,12,0.5,0.25,-35.0,-1,1.0,1.6121009999999387
292,12,0.5,1.0,-35.0,-1,1.0,0.27830100000005586
293,12,0.5,1.0,35.0,1,1.0,0.3059010000001763
294,12,0.5,0.0625,-35.0,-1,1.0,14.462301000000025
295,12,0.5,1.0,-35.0,-1,1.0,13.14930100000015
296,12,0.5,0.25,-35.0,-1,1.0,1.4762009999999464
297,12,0.5,0.0,-35.0,-1,1.0,10.479901000000154
298,12,0.5,0.25,-35.0,-1,1.0,3.165800999999874
299,12,0.5,1.0,-35.0,-1,1.0,0.26290099999982885
300,12,0.5,0.25,35.0,-1,0.0,6.6936010000001716
301,12,0.5,0.25,-35.0,1,0.0,1.0370009999999183
302,12,0.2,0.25,35.0,-1,0.0,18.260200999999824
303,12,0.5,1.0,35.0,1,1.0,0.2711010000000442
304,12,0.5,0.125,-35.0,-1,1.0,23.957801000000018
305,12,0.5,0.125,35.0,-1,0.0,4.715401000000156
306,12,0.5,0.125,35.0,-1,0.0,20.55830100000003
307,12,0.2,0.125,35.0,-1,0.0,15.632601000000022
308,12,0.5,1.0,35.0,-1,0.0,11.762400999999954
309,12,0.2,1.0,35.0,-1,0.0,6.1359010000001035
310,12,0.2,1.0,35.0,-1,0.0,18.722900999999865
311,12,0.2,1.0,35.0,-1,0.0,15.766501000000062
312,12,0.1,1.0,35.0,-1,0.0,7.4303010000000995
313,12,0.1,1.0,-35.0,-1,1.0,0.25710099999992053
314,12,0.5,1.0,35.0,-1,0.0,11.887200999999777
315,12,0.5,0.125,35.0,-1,0.0,5.635401000000002
316,12,0.5,0.0625,-35.0,-1,1.0,14.440801000000192
317,12,0.5,0.0625,-35.0,-1,1.0,4.321299999999837
318,12,0.5,0.25,35.0,-1,0.0,6.184901000000082
319,12,0.0,0.25,35.0,-1,0.0,21.845100999999886
320,12,0.5,1.0,35.0,-1,0.0,9.765600999999833
321,12,0.5,0.125,-35.0,-1,1.0,17.0091010000001
322,12,0.5,0.0625,35.0,-1,0.0,5.2062009999999646
323,12,0.5,0.25,-35.0,-1,1.0,14.602501000000075
324,12,0.5,0.25,35.0,-1,0.0,5.714501000000155
325,12,0.5,0.25,-35.0,-1,1.0,10.37670100000014
326,12,0.5,1.0,-35.0,-1,1.0,0.8904010000001108
327,12,0.5,0.0625,35.0,-1,0.0,4.410201000000143
328,12,0.0,0.0625,35.0,-1,0.0,8.938101000000188
329,12,0.5,1.0,35.0,-1,0.0,5.554100999999946
330,12,0.5,0.25,35.0,-1,0.0,0.914400999999998
331,12,0.5,0.125,35.0,1,1.0,7.020701000000145
332,12,0.5,1.0,35.0,1,1.0,4.411301000000094
333,12,0.5,0.0625,35.0,1,1.0,0.5681010000000697
334,12,0.5,0.0625,35.0,1,1.0,14.294801000000007
335,12,0.5,0.0625,35.0,-1,0.0,21.901900999999953
336,12,0.5,0.125,35.0,-1,0.0,5.568800999999439
337,12,0.5,0.25,-35.0,-1,1.0,31.419100999999955
338,12,0.5,0.0,-35.0,-1,1.0,23.026401000000078
339,12,0.5,1.0,-35.0,-1,1.0,0.20350099999996019
340,12,0.5,0.0,35.0,-1,0.0,12.257100999999693
341,12,0.5,0.0,-35.0,-1,1.0,4.783800999999585
342,12,0.5,0.0,35.0,1,1.0,26.93070099999977
343,12,0.5,0.25,-35.0,-1,1.0,2.9747009999996408
344,12,0.5,1.0,35.0,1,1.0,4.791400999999951
345,12,0.5,0.0625,35.0,-1,0.0,13.646100999999817
346,12,0.5,0.25,-35.0,-1,1.0,14.205101000000013
347,12,0.5,1.0,-35.0,-1,1.0,3.2682009999998627
348,12,0.5,1.0,35.0,-1,0.0,1.8951009999996131
349,12,0.2,1.0,35.0,-1,0.0,29.89940099999967
350,12,0.2,1.0,-35.0,-1,1.0,11.532200999999986
351,12,0.5,1.0,35.0,-1,0.0,12.713201000000026
352,12,0.2,1.0,35.0,-1,0.0,5.497000999999727
353,12,0.1,1.0,35.0,1,1.0,5.980501000000004
354,12,0.5,1.0,35.0,-1,0.0,0.3373009999995702
355,12,0.1,1.0,-35.0,-1,1.0,0.26380099999960294
356,12,0.5,1.0,35.0,-1,0.0,3.760700999999699
357,12,0.1,1.0,35.0,-1,0.0,15.611100999999508
358,12,0.1,1.0,-35.0,-1,1.0,0.3476009999994858
359,12,0.5,1.0,-35.0,-1,1.0,0.20130100000005768
360,12,0.5,0.25,-35.0,-1,1.0,34.00480100000004
361,12,0.5,0.0625,35.0,1,1.0,6.325900999999703
362,12,0.5,0.125,35.0,-1,0.0,8.982301000000007
363,12,0.2,0.125,35.0,-1,0.0,8.79830099999981
364,12,0.5,1.0,-35.0,-1,1.0,2.8228009999993446
365,12,0.5,0.0,35.0,-1,0.0,20.75620099999969
366,12,0.5,0.125,35.0,-1,0.0,3.403200999999626
367,12,0.5,0.0625,-35.0,-1,1.0,7.3002010000000155
368,12,0.5,0.0625,-35.0,1,0.0,1.9703009999998358
369,12,0.2,0.0625,35.0,-1,0.0,3.4572009999997135
370,12,0.5,1.0,35.0,1,1.0,7.15380099999993
371,12,0.5,0.125,-35.0,-1,1.0,10.010800999999901
372,12,0.5,0.25,35.0,-1,0.0,12.857700999999906
373,12,0.2,0.25,35.0,-1,0.0,8.18440099999998
374,12,0.5,1.0,-35.0,-1,1.0,16.994800999999825
375,12,0.5,0.125,-35.0,-1,1.0,2.62190099999998
376,12,0.5,0.25,-35.0,-1,1.0,15.64850099999967
377,12,0.5,0.0625,-35.0,-1,1.0,24.998500999999578
378,12,0.5,0.125,-35.0,-1,1.0,7.80290100000002
379,12,0.5,1.0,-35.0,-1,1.0,2.5556009999995695
380,12,0.5,0.0625,35.0,-1,0.0,1.076600999999755
381,12,0.5,0.0,35.0,-1,0.0,3.196600999999646
382,12,0.5,0.0,35.0,-1,0.0,4.637001000000055
383,12,0.0,0.0,-35.0,-1,1.0,13.49020100000007
384,12,0.5,1.0,35.0,-1,0.0,0.6438009999997121
385,12,0.5,0.0625,35.0,-1,0.0,1.9939010000002781
386,12,0.0,0.0625,35.0,-1,0.0,6.194101000000046
387,12,0.5,1.0,35.0,1,1.0,6.514200999999957
388,12,0.5,1.0,35.0,-1,0.0,13.611100999999508
389,12,0.1,1.0,35.0,1,1.0,1.2742009999997208
390,12,0.5,1.0,35.0,-1,0.0,1.1782009999997172
391,12,0.5,0.125,-35.0,1,0.0,1.56800099999964
392,12,0.3,0.125,35.0,-1,0.0,7.157900999999583
393,12,0.5,1.0,35.0,-1,0.0,0.34980099999984304
394,12,0.5,0.125,-35.0,-1,1.0,2.812000999999782
395,12,0.5,1.0,35.0,-1,0.0,7.375400999999783
396,12,0.5,0.0625,35.0,-1,0.0,1.1721009999996568
397,12,0.5,0.0625,35.0,-1,0.0,40.11550099999977
398,12,0.2,0.0625,-35.0,-1,1.0,13.183200999999372
399,12,0.5,1.0,35.0,-1,0.0,8.060200999999779
400,12,0.5,0.0,-35.0,-1,1.0,15.446300999999949
401,12,0.5,1.0,35.0,-1,0.0,8.99750099999983
402,12,0.0,1.0,35.0,-1,0.0,13.143600999999762
403,12,0.0,1.0,35.0,-1,0.0,28.421300999999858
404,12,0.0,1.0,35.0,-1,0.0,31.688600999999835
405,12,0.0,1.0,35.0,1,1.0,24.93690099999958
406,12,0.5,1.0,35.0,-1,0.0,1.1356009999999515
407,12,0.5,0.125,-35.0,-1,1.0,30.837000999999873
408,12,0.5,0.25,35.0,-1,0.0,8.981100999999853
409,12,0.5,0.25,35.0,-1,0.0,11.744000999999571
410,12,0.1,0.25,35.0,-1,0.0,4.565000999999938
411,12,0.5,1.0,35.0,-1,0.0,32.55770099999927
412,12,0.1,1.0,-35.0,-1,1.0,6.502101000000039
413,12,0.5,1.0,35.0,-1,0.0,
414,12,0.1,1.0,35.0,-1,0.0,2.9790009999996983
415,12,0.1,1.0,35.0,-1,0.0,4.2124009999997725
416,12,0.0,1.0,35.0,-1,0.0,36.43960100000004
417,12,0.0,1.0,35.0,-1,0.0,5.842600999999831
418,12,0.0,1.0,35.0,-1,0.0,1.3912009999994552
419,12,0.0,1.0,35.0,-1,0.0,21.74020100000007
420,12,0.0,1.0,35.0,-1,0.0,6.182000999999673
421,12,0.0,1.0,35.0,-1,0.0,0.3709009999997761
422,12,0.0,1.0,35.0,-1,0.0,7.120801000000029
423,12,0.0,1.0,35.0,-1,0.0,17.557700999999724
424,12,0.0,1.0,35.0,-1,0.0,4.7796009999997295
425,12,0.0,1.0,-35.0,-1,1.0,0.23430099999995946
426,12,0.5,1.0,35.0,-1,0.0,6.789800999999898
427,12,0.5,0.0,-35.0,1,0.0,8.305300999999872
428,12,0.5,0.25,-35.0,-1,1.0,5.082000999999764
1,13,0.5,0.125,35.0,1,1.0,3.7459
2,13,0.5,0.0,-35.0,-1,1.0,0.9197000000000006
3,13,0.5,0.0625,-35.0,-1,1.0,3.3773999999999997
4,13,0.5,1.0,-35.0,-1,1.0,0.3258999999999972
5,13,0.5,1.0,-35.0,-1,1.0,0.30320000000000036
6,13,0.5,0.125,35.0,1,1.0,1.5583999999999953
7,13,0.5,0.25,-35.0,-1,1.0,0.2737999999999978
8,13,0.5,0.0625,35.0,-1,0.0,1.3950999999999993
9,13,0.4,0.0625,-35.0,-1,1.0,4.955200000000005
10,13,0.5,1.0,35.0,1,1.0,1.1328000000000031
11,13,0.5,0.25,-35.0,-1,1.0,0.1659000000000006
12,13,0.5,1.0,35.0,1,1.0,0.7637999999999963
13,13,0.5,0.125,-35.0,-1,1.0,0.31560000000000343
14,13,0.5,1.0,35.0,1,1.0,0.31160000000000565
15,13,0.5,0.25,35.0,1,1.0,5.791299999999993
16,13,0.5,0.125,-35.0,-1,1.0,0.5518999999999892
17,13,0.5,1.0,-35.0,-1,1.0,0.2767999999999802
18,13,0.5,1.0,-35.0,-1,1.0,0.36189999999999145
19,13,0.5,0.125,-35.0,-1,1.0,0.3608999999999867
20,13,0.5,0.0625,35.0,-1,0.0,1.9301999999999992
21,13,0.3,0.0625,35.0,1,1.0,1.2357999999999976
22,13,0.5,1.0,35.0,1,1.0,0.3879000000000019
23,13,0.5,0.125,35.0,1,1.0,1.5981000000000023
24,13,0.5,0.0,35.0,-1,0.0,0.6999999999999886
25,13,0.5,0.25,35.0,1,1.0,0.7139999999999844
26,13,0.5,0.0,35.0,1,1.0,2.518899999999988
27,13,0.5,0.25,-35.0,-1,1.0,2.3295999999999992
28,13,0.5,0.0,35.0,1,1.0,1.0407999999999902
29,13,0.5,0.25,35.0,1,1.0,0.5052999999999912
30,13,0.5,0.0625,-35.0,-1,1.0,1.7614999999999839
31,13,0.5,0.0,-35.0,-1,1.0,0.2698999999999785
32,13,0.5,0.0,-35.0,1,0.0,1.315100000000001
33,13,0.5,0.125,-35.0,-1,1.0,0.4124999999999943
34,13,0.5,0.125,-35.0,-1,1.0,0.41319999999998913
35,13,0.5,0.0625,-35.0,-1,1.0,2.7227000000000032
36,13,0.5,1.0,-35.0,-1,1.0,0.3563999999999794
37,13,0.5,0.25,35.0,1,1.0,0.6231999999999687
38,13,0.5,1.0,-35.0,-1,1.0,0.43949999999998113
39,13,0.5,0.25,35.0,1,1.0,0.45820000000000505
40,13,0.5,1.0,-35.0,-1,1.0,0.1998999999999853
41,13,0.5,0.25,35.0,1,1.0,0.6464000000000283
42,13,0.5,1.0,35.0,1,1.0,0.9329999999999927
43,13,0.5,0.0625,-35.0,-1,1.0,0.3411999999999864
44,13,0.5,1.0,-35.0,-1,1.0,0.33660000000000423
45,13,0.5,0.0,35.0,1,1.0,2.6699999999999875
46,13,0.5,1.0,-35.0,-1,1.0,0.23290000000000077
47,13,0.5,1.0,35.0,-1,0.0,0.1710000000000207
48,13,0.5,0.25,-35.0,-1,1.0,13.061099999999982
49,13,0.5,0.25,35.0,-1,0.0,0.4369000000000085
50,13,0.5,0.0,35.0,-1,0.0,1.2367000000000132
51,13,0.3,0.0,35.0,1,1.0,1.7064000000000021
52,13,0.5,1.0,35.0,1,1.0,0.34739999999999327
53,13,0.5,0.125,35.0,-1,0.0,2.3272999999999797
54,13,0.5,0.25,-35.0,-1,1.0,0.37570000000002324
55,13,0.5,0.125,35.0,-1,0.0,5.109000000000009
56,13,0.5,0.0,35.0,-1,0.0,0.3576999999999657
57,13,0.5,0.0625,35.0,1,1.0,3.2396999999999707
58,13,0.5,1.0,35.0,1,1.0,0.41699999999997317
59,13,0.5,0.0625,35.0,1,1.0,3.6099000000000387
60,13,0.5,0.125,35.0,1,1.0,1.8559999999999945
61,13,0.5,0.25,35.0,1,1.0,2.342899999999986
62,13,0.5,0.0625,-35.0,-1,1.0,1.0640000000000214
63,13,0.5,0.25,-35.0,-1,1.0,0.6593999999999482
64,13,0.5,0.25,-35.0,-1,1.0,0.439200000000028
65,13,0.5,0.25,35.0,-1,0.0,1.3686999999999898
66,13,0.5,0.25,-35.0,-1,1.0,0.6970000000000027
67,13,0.5,1.0,35.0,-1,0.0,0.6850000000000591
68,13,0.5,0.0625,35.0,-1,0.0,0.11529999999993379
69,13,0.3,0.0625,35.0,-1,0.0,1.9079999999999586
70,13,0.5,1.0,35.0,1,1.0,0.38060000000001537
71,13,0.5,0.0625,-35.0,1,0.0,1.2232999999999947
72,13,0.5,0.125,-35.0,-1,1.0,0.27240000000000464
73,13,0.5,0.25,35.0,1,1.0,1.2989000000000033
74,13,0.5,0.0625,35.0,1,1.0,2.128399999999999
75,13,0.5,1.0,-35.0,-1,1.0,0.7142000000000053
76,13,0.5,0.0625,35.0,1,1.0,3.6306999999999903
77,13,0.5,0.25,35.0,1,1.0,4.992000000000019
78,13,0.5,0.125,-35.0,-1,1.0,0.27369999999996253
79,13,0.5,1.0,35.0,1,1.0,0.5364999999999895
80,13,0.5,0.25,-35.0,-1,1.0,0.33330000000000837
81,13,0.5,1.0,35.0,-1,0.0,0.11360000000001946
82,13,0.5,0.125,-35.0,-1,1.0,2.072400000000016
83,13,0.5,0.0625,35.0,1,1.0,0.6346999999999525
84,13,0.5,0.0625,-35.0,1,0.0,1.6768000000000143
85,13,0.5,0.0625,-35.0,1,0.0,1.093999999999994
86,13,0.5,1.0,-35.0,-1,1.0,0.8095000000000141
87,13,0.5,1.0,-35.0,-1,1.0,0.3143000000000029
88,13,0.5,0.0625,-35.0,1,0.0,5.770399999999938
89,13,0.5,0.0625,35.0,1,1.0,0.400100000000009
90,13,0.5,1.0,-35.0,-1,1.0,0.2683999999999287
91,13,0.5,1.0,35.0,1,1.0,0.5130999999999517
92,13,0.5,0.125,-35.0,-1,1.0,0.25549999999998363
93,13,0.5,0.0625,-35.0,-1,1.0,1.0742999999999938
94,13,0.5,1.0,-35.0,-1,1.0,0.30520000000001346
95,13,0.5,0.25,35.0,1,1.0,0.7239000000000146
96,13,0.5,0.0,-35.0,-1,1.0,1.241299999999967
97,13,0.5,0.125,-35.0,1,0.0,0.12049999999999272
98,13,0.5,0.25,-35.0,-1,1.0,0.5421999999999798
99,13,0.5,0.0,-35.0,-1,1.0,1.209099999999978
100,13,0.5,1.0,-35.0,-1,1.0,0.6648999999999887
101,13,0.5,0.125,35.0,1,1.0,0.9533999999999878
102,13,0.5,0.125,35.0,1,1.0,0.5211999999999648
103,13,0.5,0.125,35.0,1,1.0,0.5774000000000115
104,13,0.5,0.125,-35.0,-1,1.0,0.4621000000000208
105,13,0.5,0.25,35.0,1,1.0,0.4224999999999568
106,13,0.5,0.25,35.0,-1,0.0,4.438600000000008
107,13,0.5,0.25,35.0,1,1.0,2.4045999999999594
108,13,0.5,1.0,-35.0,-1,1.0,0.30059999999997444
109,13,0.5,1.0,35.0,1,1.0,0.6525000000000318
110,13,0.5,0.125,-35.0,-1,1.0,0.21430000000003702
111,13,0.5,0.25,35.0,1,1.0,0.2545999999999822
112,13,0.5,0.25,35.0,1,1.0,0.459699999999998
113,13,0.5,0.125,-35.0,1,0.0,0.5224999999999795
114,13,0.5,0.125,-35.0,1,0.0,0.5327000000000339
115,13,0.5,0.0,-35.0,-1,1.0,0.5072999999999865
116,13,0.5,0.25,35.0,1,1.0,0.3336999999999648
117,13,0.5,1.0,-35.0,-1,1.0,0.25549999999998363
118,13,0.5,1.0,35.0,1,1.0,0.6571999999999889
119,13,0.5,0.0,-35.0,-1,1.0,0.4673000000000229
120,13,0.5,0.0,35.0,-1,0.0,0.3423999999999978
121,13,0.6,0.0,-35.0,1,0.0,3.099899999999991
122,13,0.5,1.0,-35.0,-1,1.0,0.6038999999999533
123,13,0.5,1.0,-35.0,-1,1.0,0.26670000000001437
124,13,0.5,0.0,-35.0,1,0.0,2.507400000000075
125,13,0.5,0.0625,35.0,1,1.0,6.09800000000007
126,13,0.5,0.0625,-35.0,1,0.0,0.766800000000103
127,13,0.5,0.25,-35.0,-1,1.0,0.23670000000004165
128,13,0.5,0.125,35.0,1,1.0,1.0860000000001264
129,13,0.5,1.0,35.0,1,1.0,0.28480000000013206
130,13,0.5,1.0,35.0,1,1.0,0.6627000000000862
131,13,0.5,0.0,-35.0,-1,1.0,1.3050000000000637
132,13,0.5,0.125,-35.0,1,0.0,5.863600000000133
133,13,0.5,0.25,35.0,1,1.0,0.3286000000000513
134,13,0.5,0.0,-35.0,-1,1.0,0.3161000000001195
135,13,0.5,0.0625,35.0,1,1.0,0.8936000000001059
136,13,0.5,0.0625,-35.0,1,0.0,0.38610000000005584
137,13,0.5,0.0625,-35.0,-1,1.0,6.281799999999976
138,13,0.5,0.0625,35.0,-1,0.0,1.2254000000001497
139,13,0.5,0.25,35.0,1,1.0,1.8587000000001126
140,13,0.5,0.125,35.0,1,1.0,2.1113000000000284
141,13,0.5,1.0,35.0,1,1.0,0.7522999999999911
142,13,0.5,1.0,-35.0,-1,1.0,0.2999000000000933
143,13,0.5,0.125,35.0,1,1.0,1.1262000000000398
144,13,0.5,1.0,-35.0,-1,1.0,0.5138000000000602
145,13,0.5,1.0,35.0,1,1.0,0.47040000000004056
146,13,0.5,0.0625,35.0,-1,0.0,1.2299000000000433
147,13,0.5,0.0,-35.0,1,0.0,0.8161000000000058
148,13,0.5,0.125,-35.0,-1,1.0,0.6221000000001595
149,13,0.5,0.25,35.0,1,1.0,0.4821000000000595
150,13,0.5,0.0625,-35.0,-1,1.0,1.0778000000000247
151,13,0.5,0.125,-35.0,-1,1.0,0.38980000000003656
152,13,0.5,0.25,35.0,1,1.0,0.4984000000000606
153,13,0.5,1.0,35.0,1,1.0,0.3792000000000826
154,13,0.5,0.0625,-35.0,-1,1.0,0.9160000000000537
155,13,0.5,0.125,-35.0,-1,1.0,0.7584000000001652
156,13,0.5,1.0,-35.0,-1,1.0,0.2858000000001084
157,13,0.5,1.0,35.0,1,1.0,1.9856000000000904
158,13,0.5,1.0,35.0,-1,0.0,2.762299999999982
159,13,0.4,1.0,-35.0,-1,1.0,0.3387000000000171
160,13,0.5,1.0,35.0,1,1.0,0.2644000000000233
161,13,0.5,0.25,-35.0,-1,1.0,0.4352999999999838
162,13,0.5,1.0,35.0,1,1.0,0.253400000000056
163,13,0.5,0.0625,-35.0,-1,1.0,1.0617000000000871
164,13,0.5,0.25,35.0,-1,0.0,4.472999999999956
165,13,0.5,0.0,-35.0,-1,1.0,7.546400000000062
166,13,0.5,0.25,35.0,-1,0.0,3.1200000000000045
167,13,0.3,0.25,-35.0,-1,1.0,0.4115000000000464
168,13,0.5,1.0,35.0,1,1.0,0.648900000000026
169,13,0.5,0.125,-35.0,-1,1.0,0.3102000000000089
170,13,0.5,0.25,35.0,-1,0.0,12.856499999999983
171,13,0.5,0.0625,-35.0,-1,1.0,7.137400000000071
172,13,0.5,0.25,35.0,-1,0.0,3.6287000000000944
173,13,0.5,0.25,35.0,-1,0.0,21.456600000000094
174,13,0.5,0.0625,-35.0,-1,1.0,11.893400000000042
175,13,0.5,0.25,-35.0,-1,1.0,1.6913000000000693
176,13,0.5,0.0625,35.0,-1,0.0,2.571700000000078
177,13,0.1,0.0625,-35.0,-1,1.0,4.656100000000151
178,13,0.5,1.0,35.0,-1,0.0,19.860400000000027
179,13,0.5,0.0625,35.0,1,1.0,0.274599999999964
180,13,0.5,0.0625,-35.0,-1,1.0,4.749300000000062
181,13,0.5,0.0625,-35.0,-1,1.0,2.5345000000000937
182,13,0.5,0.0,35.0,-1,0.0,0.65400000000011
183,13,0.5,0.125,35.0,-1,0.0,36.080400000000054
184,13,0.5,0.0625,35.0,1,1.0,11.86160000000018
185,13,0.5,0.0625,-35.0,-1,1.0,3.3921000000000276
186,13,0.5,0.0625,-35.0,-1,1.0,3.048400000000015
187,13,0.5,1.0,35.0,1,1.0,0.332300000000032
188,13,0.5,0.0625,-35.0,-1,1.0,29.152500000000032
189,13,0.5,0.25,-35.0,-1,1.0,2.908100000000104
190,13,0.5,0.25,35.0,-1,0.0,4.802400000000148
191,13,0.5,0.0625,35.0,-1,0.0,11.446800000000053
192,13,0.5,0.125,35.0,-1,0.0,3.901399999999967
193,13,0.5,0.0625,35.0,1,1.0,0.5258000000000038
194,13,0.5,0.125,-35.0,-1,1.0,34.09920000000011
195,13,0.5,0.125,-35.0,-1,1.0,5.56679999999983
196,13,0.5,0.0,-35.0,-1,1.0,2.7660000000000764
197,13,0.5,0.0625,35.0,1,1.0,8.636999999999944
198,13,0.5,0.0,35.0,1,1.0,5.336300000000165
199,13,0.5,0.0625,-35.0,1,0.0,9.024000000000115
200,13,0.5,0.0625,-35.0,1,0.0,10.057700000000068
201,13,0.5,0.0625,-35.0,-1,1.0,18.1545000000001
202,13,0.5,1.0,35.0,1,1.0,5.051500000000033
203,13,0.5,1.0,-35.0,-1,1.0,0.33169999999995525
204,13,0.5,0.25,35.0,-1,0.0,0.49850000000014916
205,13,0.5,0.0625,-35.0,-1,1.0,10.400899999999865
206,13,0.5,0.25,35.0,-1,0.0,3.964600000000246
207,13,0.5,0.0625,35.0,-1,0.0,8.562400000000025
208,13,0.5,0.25,35.0,-1,0.0,4.122400000000198
209,13,0.5,0.25,35.0,1,1.0,0.34920000000010987
210,13,0.5,0.125,35.0,-1,0.0,2.90319999999997
211,13,0.5,0.0625,-35.0,1,0.0,0.7785999999998694
212,13,0.5,0.25,35.0,1,1.0,1.0295000000000982
213,13,0.5,0.0,-35.0,-1,1.0,4.4695999999999
214,13,0.5,1.0,-35.0,-1,1.0,1.915899999999965
215,13,0.5,0.25,35.0,-1,0.0,7.025699999999915
216,13,0.5,0.0,-35.0,-1,1.0,25.996500000000196
217,13,0.5,0.0625,-35.0,-1,1.0,7.693199999999933
218,13,0.5,0.125,35.0,-1,0.0,21.317399999999907
219,13,0.5,0.125,35.0,-1,0.0,37.07129999999984
220,13,0.2,0.125,35.0,1,1.0,1.362400000000207
221,13,0.5,1.0,35.0,1,1.0,16.705099999999902
222,13,0.5,0.25,-35.0,1,0.0,2.1918000000000575
223,13,0.3,0.25,-35.0,-1,1.0,18.961700000000064
224,13,0.5,1.0,35.0,-1,0.0,13.339600000000019
225,13,0.5,0.25,-35.0,-1,1.0,7.633100000000013
226,13,0.5,0.0625,-35.0,-1,1.0,10.280500000000075
227,13,0.5,0.125,-35.0,-1,1.0,3.5402999999998883
228,13,0.5,0.0625,35.0,-1,0.0,17.764900000000125
229,13,0.5,0.0,-35.0,-1,1.0,20.351000000000113
230,13,0.5,0.125,35.0,-1,0.0,15.251300000000128
231,13,0.5,0.25,35.0,-1,0.0,0.44479999999998654
232,13,0.5,0.25,35.0,1,1.0,
233,13,0.5,0.0,-35.0,-1,1.0,13.195100000000139
234,13,0.5,1.0,-35.0,-1,1.0,13.218700000000126
235,13,0.5,0.0625,-35.0,-1,1.0,22.549099999999953
236,13,0.5,0.125,35.0,-1,0.0,12.973900000000185
237,13,0.5,0.125,-35.0,-1,1.0,0.7300000000000182
238,13,0.5,0.0625,35.0,-1,0.0,11.720000000000027
239,13,0.5,0.0625,35.0,-1,0.0,12.276900000000069
240,13,0.5,0.125,-35.0,-1,1.0,16.276299999999992
241,13,0.5,0.0625,35.0,-1,0.0,10.567700000000059
242,13,0.5,0.0,35.0,-1,0.0,2.774499999999989
243,13,0.5,0.0625,35.0,-1,0.0,10.791600000000017
244,13,0.5,0.125,35.0,-1,0.0,7.618200000000115
245,13,0.5,0.125,35.0,-1,0.0,4.468600000000151
246,13,0.5,0.0,35.0,-1,0.0,15.005400000000236
247,13,0.5,0.25,35.0,-1,0.0,15.172300000000178
248,13,0.5,0.0625,-35.0,-1,1.0,15.179400000000214
249,13,0.5,0.125,35.0,-1,0.0,4.106199999999944
250,13,0.0,0.125,35.0,-1,0.0,3.4832000000001244
251,13,0.5,1.0,35.0,-1,0.0,2.3501000000001113
252,13,0.0,1.0,35.0,-1,0.0,17.38610000000017
253,13,0.0,1.0,35.0,-1,0.0,1.5928000000001248
254,13,0.0,1.0,35.0,-1,0.0,14.400100000000066
255,13,0.0,1.0,35.0,-1,0.0,7.970699999999852
256,13,0.0,1.0,35.0,-1,0.0,4.221400000000131
257,13,0.0,1.0,35.0,1,1.0,3.09030000000007
258,13,0.5,1.0,35.0,-1,0.0,2.491399999999885
259,13,0.5,0.25,35.0,1,1.0,2.051400000000058
260,13,0.5,1.0,-35.0,-1,1.0,0.37810000000013133
261,13,0.5,0.0625,-35.0,-1,1.0,18.608400000000074
262,13,0.5,0.25,35.0,1,1.0,12.211999999999989
263,13,0.5,1.0,-35.0,-1,1.0,0.1756000000000313
264,13,0.5,0.0625,-35.0,-1,1.0,11.951800000000048
265,13,0.5,0.0625,-35.0,-1,1.0,9.682700000000068
266,13,0.5,0.0,-35.0,-1,1.0,11.382800000000088
267,13,0.5,1.0,35.0,-1,0.0,5.656600000000026
268,13,0.2,1.0,35.0,-1,0.0,11.65319999999997
269,13,0.2,1.0,35.0,1,1.0,20.846900000000005
270,13,0.5,1.0,35.0,-1,0.0,16.66730000000007
271,13,0.5,0.0625,-35.0,-1,1.0,3.7712000000001353
272,13,0.5,0.25,-35.0,-1,1.0,10.103900000000067
273,13,0.5,1.0,35.0,-1,0.0,14.374700000000075
274,13,0.5,0.0625,35.0,-1,0.0,6.229800000000068
275,13,0.5,0.0625,35.0,-1,0.0,10.935299999999643
276,13,0.5,0.0,35.0,-1,0.0,1.612500000000182
277,13,0.5,0.25,35.0,-1,0.0,12.261599999999817
278,13,0.5,0.25,35.0,-1,0.0,35.70539999999983
279,13,0.5,0.0625,35.0,-1,0.0,11.14009999999962
280,13,0.5,0.125,-35.0,-1,1.0,16.689499999999498
281,13,0.5,0.0,35.0,-1,0.0,13.557299999999486
282,13,0.5,0.0625,35.0,-1,0.0,13.247599999999693
283,13,0.5,0.0,35.0,-1,0.0,2.36220000000003
284,13,0.5,0.25,-35.0,-1,1.0,12.590799999999945
285,13,0.5,0.125,-35.0,-1,1.0,3.5785000000000764
286,13,0.5,0.125,-35.0,-1,1.0,21.06840000000011
287,13,0.5,0.125,-35.0,-1,1.0,14.975799999999253
288,13,0.5,0.25,-35.0,-1,1.0,1.1151999999997315
289,13,0.5,0.25,35.0,-1,0.0,14.548699999999826
290,13,0.5,0.125,35.0,-1,0.0,5.942999999999756
291,13,0.5,0.125,-35.0,-1,1.0,13.099499999999807
292,13,0.5,1.0,35.0,-1,0.0,14.877199999999903
293,13,0.0,1.0,35.0,-1,0.0,18.663899999999558
294,13,0.0,1.0,35.0,-1,0.0,11.000999999999749
295,13,0.0,1.0,35.0,-1,0.0,19.114500000000135
296,13,0.0,1.0,35.0,-1,0.0,15.8449999999998
297,13,0.0,1.0,35.0,-1,0.0,15.455299999999625
298,13,0.0,1.0,35.0,-1,0.0,16.502399999999852
299,13,0.0,1.0,-35.0,-1,1.0,0.3022999999998319
300,13,0.5,1.0,35.0,-1,0.0,3.852599999999711
301,13,0.5,0.0625,-35.0,-1,1.0,1.5796000000000276
302,13,0.5,0.0625,-35.0,-1,1.0,23.71059999999943
303,13,0.5,0.125,-35.0,-1,1.0,11.206899999999678
304,13,0.5,0.125,35.0,-1,0.0,10.632799999999861
305,13,0.5,0.0625,-35.0,-1,1.0,6.073699999999462
306,13,0.5,0.0625,-35.0,0,0.0,60.02739999999949
307,13,0.5,0.25,35.0,-1,0.0,14.881999999999607
308,13,0.5,0.25,-35.0,-1,1.0,2.628899999999703
309,13,0.5,0.0625,-35.0,-1,1.0,1.5490999999997257
310,13,0.5,0.25,35.0,-1,0.0,9.292899999999918
311,13,0.5,0.25,-35.0,-1,1.0,1.3326999999994769
312,13,0.5,0.25,35.0,0,0.0,60.029199999999946
313,13,0.5,0.0,-35.0,1,0.0,2.8499999999994543
314,13,0.3,0.0,-35.0,-1,1.0,9.834299999999985
315,13,0.5,1.0,35.0,-1,0.0,44.907700000000204
316,13,0.5,0.25,35.0,-1,0.0,4.40520000000015
317,13,0.5,0.0625,-35.0,1,0.0,7.238799999999628
318,13,0.5,0.0625,35.0,-1,0.0,6.435699999999997
319,13,0.3,0.0625,-35.0,-1,1.0,3.529099999999744
320,13,0.5,1.0,35.0,-1,0.0,5.7283000000002176
321,13,0.5,0.125,35.0,-1,0.0,3.128899999999703
322,13,0.3,0.125,35.0,-1,0.0,3.6922999999997046
323,13,0.5,1.0,35.0,-1,0.0,0.35279999999966094
324,13,0.1,1.0,35.0,-1,0.0,15.686399999999594
325,13,0.1,1.0,-35.0,-1,1.0,0.4931999999994332
326,13,0.5,1.0,35.0,-1,0.0,15.020100000000184
327,13,0.5,0.125,35.0,-1,0.0,6.1612999999997555
328,13,0.0,0.125,35.0,-1,0.0,9.155099999999948
329,13,0.5,1.0,35.0,-1,0.0,9.84559999999965
330,13,0.5,0.125,35.0,-1,0.0,7.946999999999662
331,13,0.5,0.0,35.0,-1,0.0,10.671998999999687
332,13,0.5,0.125,35.0,-1,0.0,1.6511000000000422
333,13,0.0,0.125,35.0,-1,0.0,0.5113999999998668
334,13,0.5,1.0,35.0,-1,0.0,13.865599999999631
335,13,0.5,0.125,35.0,-1,0.0,29.09790000000021
336,13,0.5,0.0,35.0,-1,0.0,6.486099999999624
337,13,0.5,0.0,35.0,-1,0.0,20.996299999999792
338,13,0.0,0.0,35.0,-1,0.0,6.39429999999993
339,13,0.5,1.0,35.0,-1,0.0,5.563599999999951
340,13,0.5,0.125,35.0,-1,0.0,13.473599999999351
341,13,0.5,0.25,-35.0,-1,1.0,6.869999999999436
342,13,0.5,0.0625,35.0,-1,0.0,7.527399999999943
343,13,0.5,0.125,35.0,-1,0.0,9.974299999999857
344,13,0.5,0.125,-35.0,-1,1.0,6.790799999999308
345,13,0.5,1.0,35.0,-1,0.0,1.8583999999996195
346,13,0.5,0.125,35.0,-1,0.0,2.0081999999997606
347,13,0.5,0.25,35.0,1,1.0,1.1574999999993452
348,13,0.5,0.25,35.0,-1,0.0,11.844899999999598
349,13,0.1,0.25,35.0,-1,0.0,2.8355000000001382
350,13,0.5,1.0,35.0,-1,0.0,21.572699999999713
351,13,0.1,1.0,35.0,-1,0.0,0.6926999999996042
352,13,0.1,1.0,35.0,-1,0.0,10.486100000000079
353,13,0.1,1.0,-35.0,-1,1.0,5.036200000000008
354,13,0.5,1.0,35.0,-1,0.0,2.9792999999999665
355,13,0.5,0.25,-35.0,-1,1.0,6.092800000000352
356,13,0.5,0.125,35.0,-1,0.0,16.047100000000228
357,13,0.5,0.125,-35.0,-1,1.0,2.0930999999995947
358,13,0.5,1.0,-35.0,-1,1.0,10.087299999999686
359,13,0.5,1.0,35.0,-1,0.0,19.02749999999969
360,13,0.5,0.125,35.0,-1,0.0,4.38379999999961
361,13,0.5,0.25,-35.0,-1,1.0,16.952499999999418
362,13,0.5,0.0,35.0,-1,0.0,18.998099999999795
363,13,0.5,0.25,-35.0,-1,1.0,6.294800000000123
364,13,0.5,1.0,-35.0,-1,1.0,1.3522000000002663
365,13,0.5,0.125,35.0,-1,0.0,12.468999999999596
