trial_num,session_num,stim_probability_left,contrast,position,response_choice,trial_correct,reaction_time
1,30,0.5,0.0,-35.0,-1,1.0,0.8877999999999999
2,30,0.5,1.0,35.0,1,1.0,0.3194999999999988
3,30,0.5,0.0625,-35.0,-1,1.0,2.4261999999999997
4,30,0.5,0.25,35.0,1,1.0,0.259999999999998
5,30,0.5,0.0,35.0,1,1.0,1.2236999999999973
6,30,0.5,0.0625,35.0,1,1.0,0.7738000000000014
7,30,0.5,0.0625,-35.0,-1,1.0,5.234699999999997
8,30,0.5,0.0625,-35.0,-1,1.0,0.3897000000000048
9,30,0.5,0.0,35.0,-1,0.0,0.7595999999999989
10,30,0.5,0.25,-35.0,-1,1.0,0.19250000000000256
11,30,0.5,0.125,-35.0,-1,1.0,0.4708000000000041
12,30,0.5,0.0625,-35.0,-1,1.0,0.6460000000000008
13,30,0.5,1.0,35.0,1,1.0,0.6188000000000073
14,30,0.5,0.25,35.0,1,1.0,0.29929999999998813
15,30,0.5,0.0625,-35.0,-1,1.0,0.30749999999999034
16,30,0.5,1.0,-35.0,-1,1.0,0.544700000000006
17,30,0.5,0.125,35.0,-1,0.0,0.3406999999999982
18,30,0.5,0.125,35.0,-1,0.0,0.06969999999999743
19,30,0.5,0.125,35.0,-1,0.0,1.3415999999999997
20,30,0.5,0.125,-35.0,-1,1.0,0.19369999999999266
21,30,0.5,0.0625,35.0,-1,0.0,1.5077989999999915
22,30,0.5,0.125,-35.0,-1,1.0,0.2968000000000046
23,30,0.5,0.125,-35.0,-1,1.0,0.5644999999999953
24,30,0.5,0.0625,35.0,1,1.0,1.9501999999999953
25,30,0.5,0.0,-35.0,-1,1.0,0.23399999999999466
26,30,0.5,0.25,-35.0,-1,1.0,0.43009999999999593
27,30,0.5,0.125,-35.0,-1,1.0,0.4864000000000033
28,30,0.5,1.0,35.0,1,1.0,0.41910000000000025
29,30,0.5,0.0,35.0,-1,0.0,1.1344999999999885
30,30,0.5,0.125,35.0,1,1.0,0.13339999999999463
31,30,0.5,0.125,35.0,1,1.0,0.4300000000000068
32,30,0.5,0.0625,35.0,1,1.0,1.2674000000000092
33,30,0.5,0.25,35.0,1,1.0,0.24260000000001014
34,30,0.5,0.0,35.0,1,1.0,1.0559999999999974
35,30,0.5,1.0,35.0,1,1.0,0.30819999999999936
36,30,0.5,0.125,35.0,1,1.0,0.39399999999997704
37,30,0.5,0.25,-35.0,-1,1.0,0.7375000000000114
38,30,0.5,0.0625,35.0,-1,0.0,0.6173000000000002
39,30,0.5,0.0,35.0,-1,0.0,0.7604999999999791
40,30,0.5,0.25,35.0,1,1.0,0.041399999999981674
41,30,0.5,0.125,-35.0,-1,1.0,0.4118000000000279
42,30,0.5,1.0,35.0,-1,0.0,0.20920000000000982
43,30,0.5,0.0,-35.0,1,0.0,0.31039999999998713
44,30,0.5,0.0625,-35.0,-1,1.0,2.141699999999986
45,30,0.5,0.0,35.0,-1,0.0,0.3740999999999701
46,30,0.5,0.0625,-35.0,1,0.0,0.3412999999999897
47,30,0.5,0.0,35.0,1,1.0,0.49780000000001223
48,30,0.5,0.125,35.0,1,1.0,0.3751999999999782
49,30,0.5,0.125,35.0,1,1.0,0.4440999999999917
50,30,0.5,1.0,35.0,1,1.0,0.46889999999996235
51,30,0.5,0.0625,35.0,1,1.0,1.6173000000000002
52,30,0.5,0.0625,35.0,1,1.0,1.7101000000000113
53,30,0.5,0.0625,35.0,1,1.0,0.4560999999999922
54,30,0.5,0.0625,-35.0,1,0.0,0.5260000000000105
55,30,0.9,0.0625,-35.0,-1,1.0,0.427599999999984
56,30,0.5,1.0,-35.0,-1,1.0,0.29920000000001323
57,30,0.5,0.25,-35.0,-1,1.0,0.3451999999999771
58,30,0.5,0.125,35.0,-1,0.0,0.38419999999999277
59,30,0.6,0.125,-35.0,-1,1.0,0.3130999999999915
60,30,0.5,1.0,35.0,1,1.0,0.5946999999999889
61,30,0.5,0.0625,-35.0,1,0.0,0.8470999999999833
62,30,0.5,0.0,-35.0,1,0.0,0.8392000000000053
63,30,0.5,0.125,35.0,-1,0.0,0.7239000000000146
64,30,0.4,0.125,35.0,-1,0.0,0.11939999999998463
65,30,0.5,1.0,-35.0,-1,1.0,0.18719999999999004
66,30,0.5,1.0,35.0,1,1.0,0.37810000000001764
67,30,0.5,0.0625,-35.0,-1,1.0,1.4291999999999803
68,30,0.5,0.25,35.0,1,1.0,0.4747000000000128
69,30,0.5,0.0,35.0,-1,0.0,1.4361999999999853
70,30,0.5,0.125,-35.0,-1,1.0,0.29160000000001673
71,30,0.5,0.125,35.0,1,1.0,0.4148999999999887
72,30,0.5,0.125,35.0,1,1.0,0.5352000000000032
73,30,0.5,0.25,-35.0,-1,1.0,0.6042999999999665
74,30,0.5,0.25,-35.0,-1,1.0,0.31670000000002574
75,30,0.5,0.25,35.0,1,1.0,0.4081989999999678
76,30,0.5,0.125,-35.0,-1,1.0,0.38280000000003156
77,30,0.5,0.25,35.0,1,1.0,0.4524989999999889
78,30,0.5,0.25,35.0,-1,0.0,0.31819999999999027
79,30,0.5,0.0625,35.0,1,1.0,0.39819999999997435
80,30,0.5,0.25,35.0,-1,0.0,0.15780000000000882
81,30,0.5,0.25,35.0,1,1.0,0.39920000000000755
82,30,0.5,1.0,-35.0,-1,1.0,0.189200000000028
83,30,0.5,0.25,35.0,1,1.0,0.9074999999999704
84,30,0.5,1.0,35.0,1,1.0,0.42120000000005575
85,30,0.5,1.0,-35.0,-1,1.0,0.45120000000002847
86,30,0.5,0.0625,35.0,1,1.0,0.5688000000000102
87,30,0.5,1.0,-35.0,-1,1.0,0.36529999999999063
88,30,0.5,0.0,-35.0,-1,1.0,0.628400000000056
89,30,0.5,0.125,-35.0,-1,1.0,0.2907999999999902
90,30,0.5,0.0625,-35.0,-1,1.0,0.8344000000000165
91,30,0.5,1.0,35.0,1,1.0,0.5591000000000008
92,30,0.5,0.125,-35.0,-1,1.0,0.6055999999999813
93,30,0.5,0.25,-35.0,-1,1.0,0.4556999999999789
94,30,0.5,0.0625,-35.0,-1,1.0,0.13630000000000564
95,30,0.5,0.0,-35.0,-1,1.0,0.25399999999996226
96,30,0.5,1.0,-35.0,-1,1.0,0.25029999999998154
97,30,0.5,0.125,-35.0,-1,1.0,0.33639999999996917
98,30,0.5,0.125,-35.0,-1,1.0,0.3906999999999812
99,30,0.5,0.0625,-35.0,-1,1.0,0.3129999999999882
100,30,0.5,0.0,-35.0,-1,1.0,0.45650000000000546
101,30,0.5,0.25,-35.0,-1,1.0,0.3102999999999838
102,30,0.5,1.0,35.0,1,1.0,0.4322999999999979
103,30,0.5,1.0,35.0,1,1.0,0.48579999999998336
104,30,0.5,0.25,35.0,1,1.0,0.45719999999994343
105,30,0.5,1.0,-35.0,-1,1.0,0.3026999999999589
106,30,0.5,0.125,-35.0,-1,1.0,0.605700000000013
107,30,0.5,0.25,35.0,-1,0.0,0.23589999999995825
108,30,0.5,0.25,-35.0,-1,1.0,0.2953000000000543
109,30,0.5,0.125,35.0,1,1.0,0.3716000000000008
110,30,0.5,0.25,-35.0,-1,1.0,0.37760000000002947
111,30,0.5,0.125,35.0,-1,0.0,0.16589999999996508
112,30,0.5,0.0,-35.0,1,0.0,0.3482999999999947
113,30,0.5,0.0,-35.0,1,0.0,0.6252999999999815
114,30,0.4,0.0,-35.0,1,0.0,3.205699999999979
115,30,0.5,1.0,35.0,1,1.0,0.2966999999999871
116,30,0.5,0.0,-35.0,-1,1.0,0.06870000000003529
117,30,0.5,0.25,35.0,1,1.0,0.3561000000000263
118,30,0.5,0.0,-35.0,-1,1.0,0.7128999999999905
119,30,0.5,0.25,-35.0,-1,1.0,0.5082999999999629
120,30,0.5,0.0,-35.0,1,0.0,0.31229999999999336
121,30,0.5,0.0,-35.0,1,0.0,0.9253999999999678
122,30,0.7,0.0,-35.0,-1,1.0,0.5174000000000092
123,30,0.5,1.0,-35.0,-1,1.0,0.07880000000000109
124,30,0.5,0.25,35.0,-1,0.0,0.2255999999999858
125,30,0.5,0.0,35.0,-1,0.0,0.37939999999997553
126,30,0.5,0.0625,-35.0,-1,1.0,0.24359999999995807
127,30,0.5,0.0,-35.0,1,0.0,4.317999999999984
128,30,0.5,0.125,35.0,-1,0.0,0.3412999999999897
129,30,0.5,0.25,-35.0,-1,1.0,0.4693999999999505
130,30,0.5,0.0625,35.0,-1,0.0,0.484800000000007
131,30,0.5,0.25,-35.0,-1,1.0,0.19880000000000564
132,30,0.5,0.0,-35.0,-1,1.0,0.2989000000000033
133,30,0.5,0.125,35.0,-1,0.0,0.6753000000000497
134,30,0.1,0.125,35.0,1,1.0,0.335899999999981
135,30,0.5,1.0,35.0,1,1.0,0.3844999999999459
136,30,0.5,1.0,35.0,1,1.0,0.42070000000001073
137,30,0.5,0.25,-35.0,-1,1.0,0.39440000000001874
138,30,0.5,0.125,-35.0,-1,1.0,0.36350000000004457
139,30,0.5,0.125,35.0,1,1.0,0.4572000000000003
140,30,0.5,1.0,-35.0,-1,1.0,0.17159999999995534
141,30,0.5,0.125,35.0,1,1.0,0.4671000000000163
142,30,0.5,0.0625,-35.0,-1,1.0,0.3032999999999788
143,30,0.5,0.0625,-35.0,-1,1.0,0.558400000000006
144,30,0.5,0.0625,-35.0,-1,1.0,0.4560999999999922
145,30,0.5,0.25,35.0,1,1.0,0.2559999999999718
146,30,0.5,0.25,35.0,1,1.0,0.3966000000000349
147,30,0.5,0.25,35.0,1,1.0,0.4449999999999932
148,30,0.5,0.0625,35.0,-1,0.0,0.6447000000000003
149,30,0.5,0.0625,-35.0,-1,1.0,0.2767000000000053
150,30,0.5,0.25,-35.0,-1,1.0,0.24539999999996098
151,30,0.5,0.25,35.0,1,1.0,0.4730000000000132
152,30,0.5,0.125,35.0,1,1.0,0.5095000000000027
153,30,0.5,0.25,35.0,1,1.0,0.9037999999999897
154,30,0.5,0.0,35.0,1,1.0,0.7135000000000105
155,30,0.5,0.125,-35.0,-1,1.0,0.608600000000024
156,30,0.5,0.0,35.0,1,1.0,0.11449900000002344
157,30,0.5,0.0,-35.0,1,0.0,0.3768999999999778
158,30,0.5,0.0625,-35.0,-1,1.0,0.05330000000003565
159,30,0.5,0.0625,-35.0,-1,1.0,0.43650000000002365
160,30,0.5,0.25,-35.0,-1,1.0,0.9968999999999824
161,30,0.5,0.25,35.0,-1,0.0,0.23739999999986594
162,30,0.5,0.0,-35.0,-1,1.0,0.3730999999999085
163,30,0.5,0.0,-35.0,-1,1.0,1.923599999999965
164,30,0.5,0.0,-35.0,-1,1.0,0.11950000000001637
165,30,0.5,0.125,35.0,1,1.0,0.49699999999995725
166,30,0.5,1.0,35.0,1,1.0,0.5348999999999933
167,30,0.5,1.0,-35.0,-1,1.0,0.22679900000002817
168,30,0.5,0.25,-35.0,-1,1.0,0.11250000000006821
169,30,0.5,1.0,35.0,-1,0.0,0.03969999999992524
170,30,0.5,0.125,35.0,-1,0.0,2.7303000000000566
171,30,0.5,0.125,35.0,1,1.0,0.36549999999999727
172,30,0.5,0.125,35.0,-1,0.0,0.219600000000014
173,30,0.5,0.0,35.0,-1,0.0,0.20590000000004238
174,30,0.5,0.125,-35.0,-1,1.0,0.24919999999997344
175,30,0.5,0.25,35.0,1,1.0,0.48689999999999145
176,30,0.5,0.125,-35.0,-1,1.0,0.4013000000001057
177,30,0.5,0.0,-35.0,-1,1.0,0.4076999999999771
178,30,0.5,0.25,35.0,-1,0.0,0.1430000000001428
179,30,0.5,0.25,-35.0,-1,1.0,0.250699999999938
180,30,0.5,0.0,-35.0,-1,1.0,0.4591000000000349
181,30,0.5,0.25,35.0,-1,0.0,0.14770000000009986
182,30,0.5,0.0,35.0,1,1.0,0.3025989999999865
183,30,0.5,1.0,-35.0,-1,1.0,0.2255999999999858
184,30,0.5,0.125,35.0,1,1.0,0.6385000000000218
185,30,0.5,0.25,-35.0,-1,1.0,0.36149999999997817
186,30,0.5,0.25,35.0,-1,0.0,-0.023499999999899046
187,30,0.5,0.125,35.0,1,1.0,0.24689999999986867
188,30,0.5,0.0,-35.0,1,0.0,0.7346000000000004
189,30,0.5,0.25,35.0,1,1.0,0.08999999999991815
190,30,0.5,0.125,35.0,1,1.0,0.6166000000000622
191,30,0.5,0.0625,-35.0,-1,1.0,0.8994999999999891
192,30,0.5,0.0,-35.0,1,0.0,1.0965999999999667
193,30,0.5,0.125,-35.0,-1,1.0,0.30340000000001055
194,30,0.5,1.0,-35.0,-1,1.0,0.34360000000003765
195,30,0.5,1.0,-35.0,-1,1.0,0.3876000000000204
196,30,0.5,0.25,35.0,1,1.0,0.7265999999999622
197,30,0.5,1.0,-35.0,-1,1.0,0.3625999999999294
198,30,0.5,0.0625,-35.0,-1,1.0,0.4395999999999276
199,30,0.5,0.0625,35.0,-1,0.0,0.356899999999996
200,30,0.5,0.0,35.0,1,1.0,0.4500000000000455
201,30,0.5,0.25,35.0,-1,0.0,1.4039999999999964
202,30,0.3,0.25,35.0,1,1.0,0.2598000000000411
203,30,0.5,1.0,35.0,1,1.0,0.42259999999998854
204,30,0.5,0.25,35.0,1,1.0,0.5398000000000138
205,30,0.5,0.0625,-35.0,-1,1.0,0.6902999999999793
206,30,0.5,0.25,35.0,-1,0.0,0.3586999999999989
207,30,0.5,0.125,35.0,1,1.0,0.1935999999999467
208,30,0.5,0.0625,35.0,-1,0.0,0.6326999999999998
209,30,0.5,0.0625,-35.0,-1,1.0,0.356899999999996
210,30,0.5,0.25,35.0,1,1.0,0.38160000000004857
211,30,0.5,0.125,-35.0,-1,1.0,0.3146999999999025
212,30,0.5,0.125,35.0,-1,0.0,0.3287000000000262
213,30,0.4,0.125,-35.0,-1,1.0,0.3549999999999045
214,30,0.5,1.0,-35.0,-1,1.0,0.23929999999995744
215,30,0.5,0.0625,35.0,1,1.0,0.23480000000006385
216,30,0.5,0.25,35.0,1,1.0,0.8437000000000126
217,30,0.5,0.25,-35.0,-1,1.0,0.4616999999999507
218,30,0.5,0.125,35.0,-1,0.0,0.29970000000002983
219,30,0.5,0.125,-35.0,-1,1.0,0.23540000000002692
220,30,0.5,0.125,35.0,1,1.0,0.7787999999999329
221,30,0.5,0.125,-35.0,-1,1.0,0.42009999999993397
222,30,0.5,1.0,35.0,1,1.0,0.37030000000004293
223,30,0.5,1.0,35.0,1,1.0,0.3789000000000442
224,30,0.5,0.0625,-35.0,-1,1.0,0.4413999999999305
225,30,0.5,0.0625,35.0,-1,0.0,0.20879999999988286
226,30,0.5,0.0625,-35.0,1,0.0,0.16269999999997253
227,30,0.5,0.125,35.0,1,1.0,0.5211000000000467
228,30,0.5,0.125,-35.0,-1,1.0,0.35769999999990887
229,30,0.5,0.125,-35.0,-1,1.0,0.5537000000000489
230,30,0.5,0.125,-35.0,-1,1.0,0.36970000000007985
231,30,0.5,0.0625,35.0,1,1.0,0.7857000000000198
232,30,0.5,0.125,35.0,1,1.0,0.45539900000005673
233,30,0.5,1.0,-35.0,-1,1.0,0.3966000000000349
234,30,0.5,0.125,-35.0,-1,1.0,0.3927999999999656
235,30,0.5,0.25,-35.0,-1,1.0,0.3187000000000353
236,30,0.5,0.0625,35.0,-1,0.0,1.8455999999999904
237,30,0.5,0.0625,35.0,1,1.0,0.29970000000002983
238,30,0.5,0.125,35.0,-1,0.0,0.06510000000002947
239,30,0.5,0.0625,-35.0,-1,1.0,0.49889999999993506
240,30,0.5,1.0,-35.0,-1,1.0,0.17370000000005348
241,30,0.5,0.125,-35.0,-1,1.0,0.37009999999997945
242,30,0.5,0.0625,35.0,-1,0.0,0.313199999999938
243,30,0.1,0.0625,-35.0,-1,1.0,0.2607999999999038
244,30,0.5,1.0,35.0,1,1.0,0.346300000000042
245,30,0.5,0.25,-35.0,-1,1.0,0.3687000000001035
246,30,0.5,1.0,-35.0,-1,1.0,0.3687999999999647
247,30,0.5,0.125,-35.0,-1,1.0,0.44079999999996744
248,30,0.5,0.125,35.0,1,1.0,0.241800000000012
249,30,0.5,1.0,35.0,1,1.0,0.37389999999993506
250,30,0.5,0.125,35.0,1,1.0,0.40019999999992706
251,30,0.5,0.0,35.0,1,1.0,0.05959999999993215
252,30,0.5,0.25,35.0,1,1.0,0.08569999999997435
253,30,0.5,1.0,-35.0,-1,1.0,0.314899999999966
254,30,0.5,0.0625,35.0,1,1.0,0.3832999999999629
255,30,0.5,0.125,-35.0,-1,1.0,0.36170000000004165
256,30,0.5,1.0,35.0,-1,0.0,0.15679999999997563
257,30,0.5,0.25,35.0,1,1.0,0.2538000000000693
258,30,0.5,0.0625,-35.0,-1,1.0,0.2380990000000338
259,30,0.5,0.25,-35.0,-1,1.0,0.19210000000009586
260,30,0.5,0.0,-35.0,-1,1.0,0.3377989999999045
261,30,0.5,1.0,-35.0,-1,1.0,0.5200999999999567
262,30,0.5,0.125,35.0,1,1.0,0.37409999999999854
263,30,0.5,0.125,-35.0,-1,1.0,0.3565000000000964
264,30,0.5,0.25,35.0,1,1.0,0.389699999999948
265,30,0.5,0.125,35.0,1,1.0,0.41600000000005366
266,30,0.5,0.25,-35.0,-1,1.0,0.8314000000000306
267,30,0.5,0.125,-35.0,1,0.0,0.2520999999999276
268,30,0.5,0.0625,-35.0,-1,1.0,0.28139999999996235
269,30,0.5,0.125,35.0,1,1.0,0.28509999999994307
270,30,0.5,0.25,35.0,1,1.0,0.48700000000008004
271,30,0.5,1.0,35.0,1,1.0,0.8179999999999836
272,30,0.5,0.0625,35.0,-1,0.0,0.28779999999994743
273,30,0.6,0.0625,-35.0,1,0.0,0.28989899999999125
274,30,0.5,1.0,-35.0,1,0.0,0.16030000000000655
275,30,0.5,0.0625,35.0,-1,0.0,0.15679999999997563
276,30,0.5,0.25,35.0,-1,0.0,0.2903999999999769
277,30,0.5,0.125,-35.0,-1,1.0,0.2034999999999627
278,30,0.5,0.25,35.0,1,1.0,0.3403010000000677
279,30,0.5,0.25,35.0,1,1.0,0.4334010000000035
280,30,0.5,0.0625,35.0,1,1.0,0.4309009999999489
281,30,0.5,1.0,35.0,1,1.0,0.3104009999999562
282,30,0.5,0.25,-35.0,-1,1.0,0.38940100000002076
283,30,0.5,0.125,35.0,1,1.0,0.35900100000003476
284,30,0.5,0.125,-35.0,1,0.0,0.23290099999996983
285,30,0.5,0.25,35.0,1,1.0,0.25050099999987196
286,30,0.5,1.0,-35.0,-1,1.0,0.3631009999999151
287,30,0.5,0.0625,-35.0,-1,1.0,0.6668010000000777
288,30,0.5,0.0,-35.0,1,0.0,0.27290100000004713
289,30,0.5,0.0,35.0,1,1.0,0.3809009999998807
290,30,0.5,0.0,35.0,-1,0.0,0.2699010000000044
291,30,0.5,0.0625,35.0,1,1.0,0.34730000000001837
292,30,0.5,0.0,35.0,1,1.0,1.0434010000000171
293,30,0.5,0.125,35.0,1,1.0,0.48690099999987524
294,30,0.5,0.25,35.0,1,1.0,0.4228010000000495
295,30,0.5,0.125,35.0,1,1.0,0.36730100000011134
296,30,0.5,0.25,-35.0,-1,1.0,0.38200099999994563
297,30,0.5,0.0625,-35.0,-1,1.0,0.25020099999994727
298,30,0.5,0.0625,35.0,1,1.0,0.4979009999999562
299,30,0.5,0.25,-35.0,-1,1.0,0.07190099999991162
300,30,0.5,0.0625,-35.0,-1,1.0,0.15690100000006169
301,30,0.5,0.25,-35.0,-1,1.0,0.23630100000002585
302,30,0.5,0.125,35.0,1,1.0,0.33690100000001166
303,30,0.5,0.0625,35.0,1,1.0,0.4052010000000337
304,30,0.5,1.0,-35.0,-1,1.0,0.39360100000010334
305,30,0.5,0.0625,-35.0,-1,1.0,0.26520099999993363
306,30,0.5,0.25,35.0,1,1.0,0.1652009999999109
307,30,0.5,0.0625,-35.0,1,0.0,0.5142009999999573
308,30,0.5,0.0625,35.0,1,1.0,0.2110010000000102
309,30,0.5,0.25,35.0,1,1.0,0.6344009999999116
310,30,0.5,0.0625,-35.0,-1,1.0,0.6179009999999607
311,30,0.5,0.25,35.0,1,1.0,0.5830009999999675
312,30,0.5,0.125,35.0,-1,0.0,0.30290100000001985
313,30,0.5,0.25,-35.0,-1,1.0,0.20400099999994836
314,30,0.5,0.25,35.0,1,1.0,0.37400099999990744
315,30,0.5,0.0625,-35.0,-1,1.0,0.5420010000000275
316,30,0.5,1.0,-35.0,-1,1.0,0.32500099999992926
317,30,0.5,0.125,35.0,-1,0.0,0.3425009999998565
318,30,0.4,0.125,-35.0,-1,1.0,0.26490100000000893
319,30,0.5,1.0,-35.0,-1,1.0,0.06530099999997674
320,30,0.5,0.25,35.0,1,1.0,0.3240010000000666
321,30,0.5,0.0625,-35.0,-1,1.0,0.2050010000000384
322,30,0.5,0.125,-35.0,-1,1.0,0.3344000000000733
323,30,0.5,0.25,-35.0,-1,1.0,0.21160099999997328
324,30,0.5,0.0,-35.0,1,0.0,1.1612010000000055
325,30,0.5,0.0625,35.0,-1,0.0,0.27500099999997474
326,30,0.5,0.0625,-35.0,-1,1.0,0.3018009999999549
327,30,0.5,0.25,35.0,-1,0.0,0.22820099999989907
328,30,0.5,0.0625,-35.0,-1,1.0,0.22490099999993163
329,30,0.5,0.0625,-35.0,-1,1.0,0.3883010000001832
330,30,0.5,0.25,-35.0,-1,1.0,0.09200099999998201
331,30,0.5,0.0625,35.0,1,1.0,0.045400000000199725
332,30,0.5,0.0625,-35.0,-1,1.0,0.992001000000073
333,30,0.5,0.125,-35.0,-1,1.0,0.2620010000000548
334,30,0.5,0.25,35.0,1,1.0,0.20220100000005914
335,30,0.5,0.125,-35.0,-1,1.0,0.3621010000001661
336,30,0.5,1.0,-35.0,-1,1.0,0.35520100000007915
337,30,0.5,0.125,-35.0,-1,1.0,0.35940099999993436
338,30,0.5,0.25,-35.0,-1,1.0,0.3520009999999729
339,30,0.5,0.0625,35.0,1,1.0,0.5021010000000388
340,30,0.5,0.125,-35.0,-1,1.0,0.2959010000001854
341,30,0.5,1.0,35.0,1,1.0,0.4188010000000304
342,30,0.5,1.0,35.0,1,1.0,0.4354009999999562
343,30,0.5,0.0,35.0,-1,0.0,0.8091010000002825
344,30,0.5,0.0625,35.0,1,1.0,0.3556010000002061
345,30,0.5,0.0625,-35.0,-1,1.0,0.2531010000000151
346,30,0.5,0.0625,-35.0,-1,1.0,0.07590000000004693
347,30,0.5,0.0625,35.0,-1,0.0,0.18610100000023522
348,30,0.4,0.0625,35.0,1,1.0,0.20240100000000893
349,30,0.5,1.0,35.0,1,1.0,0.3993009999999231
350,30,0.5,0.0625,-35.0,-1,1.0,0.7727010000000973
351,30,0.5,1.0,-35.0,-1,1.0,0.47620099999994636
352,30,0.5,0.125,35.0,1,1.0,0.22330100000021957
353,30,0.5,0.125,35.0,1,1.0,0.37710100000003877
354,30,0.5,0.0,-35.0,1,0.0,1.8463010000000395
355,30,0.5,0.25,-35.0,-1,1.0,0.16290100000014718
356,30,0.5,0.25,35.0,-1,0.0,0.293201000000181
357,30,0.5,0.125,35.0,1,1.0,0.32680100000015955
358,30,0.5,0.125,-35.0,-1,1.0,0.48640100000011444
359,30,0.5,1.0,-35.0,-1,1.0,0.20380100000011225
360,30,0.5,0.0625,35.0,1,1.0,0.46630100000015773
361,30,0.5,0.0625,-35.0,-1,1.0,0.6437010000001919
362,30,0.5,1.0,-35.0,-1,1.0,0.30660100000022794
363,30,0.5,0.0,-35.0,-1,1.0,0.4970010000001821
364,30,0.5,0.25,35.0,1,1.0,1.3534010000000762
365,30,0.5,0.0,-35.0,1,0.0,1.2033010000000104
366,30,0.5,0.125,-35.0,-1,1.0,0.233400999999958
367,30,0.5,1.0,35.0,1,1.0,0.6838010000001304
368,30,0.5,0.0,35.0,1,1.0,2.094001000000162
369,30,0.5,0.0625,35.0,1,1.0,0.7640010000002349
370,30,0.5,0.125,-35.0,-1,1.0,0.4305010000000493
371,30,0.5,1.0,35.0,1,1.0,0.3138010000002396
372,30,0.5,0.0,-35.0,-1,1.0,2.0675010000002203
373,30,0.5,0.0,35.0,-1,0.0,0.31730100000004313
374,30,0.6,0.0,35.0,-1,0.0,0.5143010000001595
375,30,0.5,1.0,35.0,1,1.0,0.6473009999999704
376,30,0.5,0.25,-35.0,-1,1.0,0.044100000000071304
377,30,0.5,0.0625,-35.0,-1,1.0,0.15770100000008824
378,30,0.5,1.0,-35.0,-1,1.0,0.5908010000000559
379,30,0.5,0.25,-35.0,-1,1.0,0.31480099999998856
380,30,0.5,0.0625,35.0,1,1.0,0.8514010000001235
381,30,0.5,0.125,-35.0,-1,1.0,0.3781010000000151
382,30,0.5,0.0,-35.0,-1,1.0,0.2113010000000486
383,30,0.5,1.0,35.0,-1,0.0,0.08120100000019193
384,30,0.2,1.0,35.0,1,1.0,0.23810100000014245
385,30,0.5,1.0,-35.0,-1,1.0,0.2579009999999471
386,30,0.5,1.0,-35.0,1,0.0,0.14130100000011225
387,30,0.5,0.25,35.0,1,1.0,0.1746010000001661
388,30,0.5,0.0,35.0,-1,0.0,1.0882010000000264
389,30,0.5,0.25,-35.0,-1,1.0,0.26810100000011516
390,30,0.5,1.0,-35.0,-1,1.0,0.281601000000137
391,30,0.5,0.125,-35.0,1,0.0,0.19170100000019374
392,30,0.4,0.125,35.0,1,1.0,0.6082010000002356
393,30,0.5,1.0,35.0,1,1.0,0.3256010000002334
394,30,0.5,1.0,35.0,1,1.0,0.38550099999997656
395,30,0.5,0.125,-35.0,-1,1.0,1.1822010000000773
396,30,0.5,0.0625,-35.0,-1,1.0,0.35520100000007915
397,30,0.5,0.25,-35.0,-1,1.0,0.3422009999999318
398,30,0.5,0.125,-35.0,-1,1.0,0.2952010000003611
399,30,0.5,0.25,35.0,-1,0.0,0.23220100000003185
400,30,0.5,0.125,35.0,1,1.0,0.34920099999999366
401,30,0.5,0.25,35.0,1,1.0,0.44530100000019956
402,30,0.5,1.0,-35.0,-1,1.0,0.3322009999999409
403,30,0.5,0.25,35.0,1,1.0,0.3154010000000653
404,30,0.5,0.0625,35.0,1,1.0,0.4289010000002236
405,30,0.5,0.0,35.0,-1,0.0,3.2061009999999897
406,30,0.5,0.25,-35.0,-1,1.0,0.2656010000000606
407,30,0.5,0.125,-35.0,-1,1.0,0.3563010000000304
408,30,0.5,0.0625,35.0,-1,0.0,0.08250100000009297
409,30,0.4,0.0625,35.0,-1,0.0,0.345801000000165
410,30,0.5,1.0,35.0,1,1.0,0.20950100000004568
411,30,0.5,0.25,-35.0,-1,1.0,0.3301010000002407
412,30,0.5,1.0,35.0,-1,0.0,0.08940099999995255
413,30,0.5,0.0625,35.0,1,1.0,0.3626010000000406
414,30,0.5,0.125,-35.0,-1,1.0,0.5363009999998667
415,30,0.5,0.0,-35.0,-1,1.0,0.3965010000001712
416,30,0.5,1.0,-35.0,-1,1.0,0.36330100000009224
417,30,0.5,1.0,-35.0,-1,1.0,0.08960100000012972
418,30,0.5,1.0,35.0,1,1.0,0.41620100000000093
419,30,0.5,0.125,35.0,-1,0.0,0.3263010000000577
420,30,0.5,0.0625,35.0,1,1.0,0.3267009999999573
421,30,0.5,0.25,-35.0,-1,1.0,0.46010100000012244
422,30,0.5,0.125,-35.0,-1,1.0,0.7597010000001774
423,30,0.5,0.0625,-35.0,-1,1.0,0.2397009999999682
424,30,0.5,0.125,-35.0,-1,1.0,0.34340099999985796
425,30,0.5,1.0,-35.0,-1,1.0,0.4365010000001348
426,30,0.5,0.0625,-35.0,-1,1.0,0.33350099999984195
427,30,0.5,0.125,35.0,1,1.0,0.3003009999999904
428,30,0.5,0.25,35.0,1,1.0,0.4003010000001268
429,30,0.5,1.0,35.0,1,1.0,0.3073010000000522
430,30,0.5,1.0,-35.0,-1,1.0,0.4268010000000686
431,30,0.5,0.0625,-35.0,-1,1.0,0.41370100000017374
432,30,0.5,0.0625,35.0,-1,0.0,0.28380100000026687
433,30,0.5,0.125,35.0,1,1.0,0.40760100000011334
434,30,0.5,0.0625,-35.0,-1,1.0,0.6240010000001348
435,30,0.5,0.0625,35.0,1,1.0,0.6404010000001108
436,30,0.5,0.125,-35.0,-1,1.0,0.42380099999991216
437,30,0.5,0.0625,35.0,-1,0.0,1.1573009999999613
438,30,0.4,0.0625,35.0,1,1.0,0.4045010000002094
439,30,0.5,1.0,-35.0,-1,1.0,0.467401000000109
440,30,0.5,0.25,35.0,1,1.0,0.6847010000001319
441,30,0.5,1.0,35.0,1,1.0,0.38750100000015664
442,30,0.5,0.125,-35.0,-1,1.0,0.3514010000003509
443,30,0.5,0.0,-35.0,-1,1.0,0.2984010000000126
444,30,0.5,0.25,-35.0,-1,1.0,0.37140100000010534
445,30,0.5,0.125,35.0,1,1.0,0.4284010000001217
446,30,0.5,0.0625,35.0,-1,0.0,0.36140100000011444
447,30,0.5,0.0,35.0,-1,0.0,0.2511010000000624
448,30,0.5,0.25,35.0,1,1.0,0.4344010000002072
449,30,0.5,0.25,-35.0,-1,1.0,0.36530100000004495
450,30,0.5,1.0,35.0,1,1.0,0.9584010000000944
451,30,0.5,0.0625,35.0,-1,0.0,0.4883010000003196
452,30,0.3,0.0625,35.0,1,1.0,0.6324010000000726
453,30,0.5,1.0,-35.0,-1,1.0,0.3684010000001763
454,30,0.5,1.0,35.0,1,1.0,0.4615009999999984
455,30,0.5,0.0625,-35.0,-1,1.0,0.5515010000001439
456,30,0.5,0.0625,-35.0,-1,1.0,0.4488010000000031
457,30,0.5,0.125,35.0,-1,0.0,0.13169999999990978
458,30,0.5,0.25,-35.0,1,0.0,0.2791010000000824
459,30,0.4,0.25,35.0,1,1.0,0.37190099999997983
460,30,0.5,1.0,35.0,1,1.0,0.3718010000002323
461,30,0.5,1.0,-35.0,-1,1.0,0.5255010000000766
462,30,0.5,0.125,35.0,-1,0.0,0.6421010000001388
463,30,0.5,0.0625,35.0,-1,0.0,1.2820010000000366
464,30,0.4,0.0625,35.0,-1,0.0,0.3256010000002334
465,30,0.5,1.0,-35.0,-1,1.0,0.2821010000000115
466,30,0.5,0.25,35.0,-1,0.0,0.16550099999994927
467,30,0.5,0.0,-35.0,-1,1.0,2.8693009999999504
468,30,0.5,0.0625,35.0,1,1.0,0.5187009999999646
469,30,0.5,1.0,-35.0,-1,1.0,0.2890010000003258
470,30,0.5,1.0,-35.0,-1,1.0,1.0724010000001272
471,30,0.5,1.0,35.0,1,1.0,0.4525010000002112
472,30,0.5,0.25,-35.0,-1,1.0,0.413101000000097
473,30,0.5,0.125,35.0,-1,0.0,0.31570099999999
474,30,0.5,0.125,35.0,1,1.0,0.3301010000002407
475,30,0.5,0.0625,35.0,-1,0.0,1.5129009999998289
476,30,0.5,0.0625,35.0,1,1.0,0.5267010000002301
477,30,0.5,0.125,-35.0,-1,1.0,0.3563010000000304
478,30,0.5,0.0625,-35.0,-1,1.0,0.4229010000001381
479,30,0.5,0.0625,35.0,1,1.0,0.376500999999962
480,30,0.5,1.0,-35.0,-1,1.0,0.6828010000001541
481,30,0.5,1.0,-35.0,-1,1.0,0.21640100000013263
482,30,0.5,0.125,-35.0,-1,1.0,0.2999010000000908
483,30,0.5,1.0,-35.0,-1,1.0,0.2928010000002814
484,30,0.5,0.125,35.0,-1,0.0,0.026501000000052954
485,30,0.5,0.0,35.0,1,1.0,1.3029010000002472
486,30,0.5,0.0,-35.0,-1,1.0,0.22670000000016444
487,30,0.5,0.125,-35.0,-1,1.0,0.3765010000001894
488,30,0.5,0.0,-35.0,1,0.0,2.9841010000000097
489,30,0.5,0.0625,35.0,1,1.0,0.5102010000000519
490,30,0.5,0.0,-35.0,-1,1.0,0.4270010000000184
491,30,0.5,1.0,35.0,1,1.0,0.39000099999998383
492,30,0.5,0.125,35.0,1,1.0,0.47060099999998783
493,30,0.5,0.0,-35.0,-1,1.0,0.5236010000000988
494,30,0.5,0.25,-35.0,-1,1.0,0.253601000000117
495,30,0.5,0.25,-35.0,-1,1.0,0.22370100000011917
496,30,0.5,0.0625,-35.0,-1,1.0,1.006901000000198
497,30,0.5,0.0625,-35.0,-1,1.0,0.4306010000000242
498,30,0.5,1.0,35.0,1,1.0,0.3806010000000697
499,30,0.5,0.25,-35.0,-1,1.0,3.4438010000001213
500,30,0.5,1.0,-35.0,-1,1.0,0.30760100000043167
501,30,0.5,0.0,35.0,-1,0.0,0.20740100000011807
502,30,0.2,0.0,35.0,1,1.0,1.6146009999999933
503,30,0.5,1.0,35.0,1,1.0,0.384101000000328
504,30,0.5,0.125,-35.0,-1,1.0,0.5612009999999827
505,30,0.5,0.125,35.0,-1,0.0,1.6477010000003247
506,30,0.3,0.125,35.0,1,1.0,0.3646009999999933
507,30,0.5,1.0,-35.0,-1,1.0,0.34090100000003076
508,30,0.5,0.125,-35.0,-1,1.0,0.7876009999999951
509,30,0.5,0.0625,35.0,1,1.0,1.4283010000001468
510,30,0.5,0.25,35.0,1,1.0,0.6846000000002732
511,30,0.5,0.0,-35.0,-1,1.0,1.3046010000000479
512,30,0.5,0.125,-35.0,-1,1.0,0.2047010000001137
513,30,0.5,0.25,-35.0,-1,1.0,0.16800100000000384
514,30,0.5,0.25,-35.0,-1,1.0,0.35470100000020466
515,30,0.5,1.0,-35.0,-1,1.0,0.32540100000005623
516,30,0.5,1.0,35.0,1,1.0,0.6148010000001705
517,30,0.5,0.125,35.0,-1,0.0,0.6951010000000224
518,30,0.3,0.125,-35.0,-1,1.0,0.2254009999999198
519,30,0.5,1.0,35.0,1,1.0,0.6422010000001137
520,30,0.5,0.25,-35.0,-1,1.0,0.38560100000017883
521,30,0.5,0.125,35.0,1,1.0,0.5250009999999747
522,30,0.5,1.0,35.0,1,1.0,0.48170100000015736
523,30,0.5,1.0,35.0,1,1.0,0.39520100000027014
524,30,0.5,0.125,-35.0,-1,1.0,0.6752010000002429
525,30,0.5,1.0,-35.0,-1,1.0,0.80270100000007
526,30,0.5,1.0,-35.0,-1,1.0,0.3418010000000322
527,30,0.5,0.0625,35.0,-1,0.0,0.06870100000014645
528,30,0.5,0.0,35.0,-1,0.0,0.6524010000000544
529,30,0.5,0.125,35.0,1,1.0,0.3059009999999489
530,30,0.5,0.125,35.0,1,1.0,0.8058010000002014
531,30,0.5,0.0625,-35.0,-1,1.0,0.2657010000000355
532,30,0.5,0.0625,35.0,-1,0.0,0.6363010000002305
533,30,0.5,0.0625,35.0,1,1.0,0.44920100000035745
534,30,0.5,0.125,-35.0,1,0.0,0.39300100000014027
535,30,0.5,0.25,-35.0,-1,1.0,0.23960100000022067
536,30,0.5,1.0,35.0,1,1.0,0.25250099999993836
537,30,0.5,0.0625,-35.0,-1,1.0,0.5457010000002356
538,30,0.5,0.125,35.0,1,1.0,0.2994010000002163
539,30,0.5,0.125,-35.0,-1,1.0,0.5931009999999333
540,30,0.5,1.0,-35.0,-1,1.0,0.3898010000002614
541,30,0.5,0.25,35.0,1,1.0,0.34670100000016646
542,30,0.5,0.25,-35.0,-1,1.0,0.3863010000002305
543,30,0.5,0.125,35.0,1,1.0,0.28610100000014427
544,30,0.5,0.25,35.0,1,1.0,0.33300100000019484
545,30,0.5,0.0625,35.0,-1,0.0,1.9126999999998588
546,30,0.5,0.0,35.0,1,1.0,3.1398010000002614
547,30,0.5,1.0,-35.0,-1,1.0,0.436701000000312
548,30,0.5,0.0,-35.0,-1,1.0,0.4797009999999773
549,30,0.5,0.0625,35.0,1,1.0,0.4832010000002356
550,30,0.5,0.125,35.0,1,1.0,0.4207010000000082
551,30,0.5,0.25,35.0,1,1.0,0.3802009999999427
552,30,0.5,0.0,-35.0,-1,1.0,0.03700100000014572
553,30,0.5,0.0625,35.0,1,1.0,0.3036010000000715
554,30,0.5,0.0625,35.0,1,1.0,0.6738010000001395
555,30,0.5,0.25,35.0,1,1.0,0.44740100000012717
556,30,0.5,0.0625,35.0,1,1.0,0.27070100000014463
557,30,0.5,0.0625,-35.0,-1,1.0,0.37710100000026614
558,30,0.5,0.25,-35.0,-1,1.0,0.2771010000001297
559,30,0.5,1.0,-35.0,-1,1.0,0.16370100000017374
560,30,0.5,0.125,35.0,1,1.0,1.1978010000000268
561,30,0.5,1.0,35.0,1,1.0,0.33070100000009006
562,30,0.5,0.25,-35.0,-1,1.0,0.3708010000000286
563,30,0.5,0.25,35.0,1,1.0,0.13740099999995437
564,30,0.5,0.0625,-35.0,-1,1.0,0.19080099999996492
565,30,0.5,0.125,-35.0,-1,1.0,0.18380100000013044
566,30,0.5,0.0625,-35.0,-1,1.0,0.44780100000025413
567,30,0.5,0.125,35.0,1,1.0,0.4084010000001399
568,30,0.5,0.0,-35.0,1,0.0,4.791001000000051
569,30,0.5,0.0625,-35.0,-1,1.0,1.4547010000001137
570,30,0.5,0.0625,35.0,1,1.0,0.34090100000003076
571,30,0.5,1.0,-35.0,-1,1.0,0.36150100000008933
572,30,0.5,1.0,-35.0,-1,1.0,0.271300999999994
573,30,0.5,1.0,-35.0,-1,1.0,0.32460100000002967
574,30,0.5,0.0625,35.0,-1,0.0,0.2878010000001723
575,30,0.5,0.25,-35.0,-1,1.0,0.3646009999999933
576,30,0.5,1.0,35.0,1,1.0,0.23860100000001694
577,30,0.5,0.0,-35.0,1,0.0,0.40120100000012826
578,30,0.5,0.125,35.0,1,1.0,1.0981010000000424
579,30,0.5,0.0625,-35.0,1,0.0,7.051601000000119
580,30,0.5,0.25,35.0,1,1.0,0.3684010000001763
581,30,0.5,0.0,-35.0,-1,1.0,1.0520010000002458
582,30,0.5,0.25,35.0,1,1.0,0.3390009999998256
583,30,0.5,1.0,-35.0,-1,1.0,2.838801000000103
584,30,0.5,0.0625,35.0,1,1.0,1.0658010000001923
585,30,0.5,1.0,35.0,1,1.0,0.6823010000000522
586,30,0.5,0.0625,-35.0,-1,1.0,0.33530100000007224
587,30,0.5,0.25,35.0,1,1.0,0.38530100000002676
588,30,0.5,0.0625,-35.0,1,0.0,0.1423010000000886
589,30,0.7,0.0625,-35.0,-1,1.0,2.0389010000001235
590,30,0.5,1.0,-35.0,-1,1.0,0.35890100000028724
591,30,0.5,0.125,-35.0,-1,1.0,0.8457010000001901
592,30,0.5,0.25,35.0,1,1.0,1.3328010000000177
593,30,0.5,0.125,35.0,1,1.0,0.8461010000000897
594,30,0.5,1.0,35.0,1,1.0,0.46590100000003076
595,30,0.5,0.0,35.0,1,1.0,0.8859010000001035
596,30,0.5,0.0,-35.0,1,0.0,3.9496010000000297
597,30,0.5,0.25,35.0,1,1.0,0.38990100000000893
598,30,0.5,0.25,35.0,1,1.0,0.326001000000133
599,30,0.5,1.0,35.0,1,1.0,0.5059000000001106
600,30,0.5,0.0625,35.0,1,1.0,0.5239010000000235
601,30,0.5,0.25,35.0,1,1.0,0.4061010000002625
602,30,0.5,0.0625,-35.0,1,0.0,3.4302010000001246
603,30,0.5,0.0625,-35.0,-1,1.0,0.6300010000002203
604,30,0.5,0.25,35.0,1,1.0,3.3829010000001745
605,30,0.5,0.0,-35.0,-1,1.0,4.010001000000102
606,30,0.5,0.125,-35.0,-1,1.0,0.5001010000000861
607,30,0.5,0.0,35.0,-1,0.0,6.100201000000197
608,30,0.5,0.125,35.0,1,1.0,0.5170009999999365
609,30,0.5,0.25,-35.0,-1,1.0,0.8607010000002902
610,30,0.5,0.25,35.0,1,1.0,0.75090100000034
611,30,0.5,1.0,-35.0,-1,1.0,0.22090099999991253
612,30,0.5,1.0,35.0,1,1.0,0.4003010000001268
613,30,0.5,0.125,35.0,-1,0.0,3.5240010000002258
614,30,0.5,0.0625,35.0,1,1.0,3.591001000000233
615,30,0.5,0.0625,-35.0,-1,1.0,1.1775010000001203
616,30,0.5,0.125,35.0,1,1.0,1.7942010000001574
617,30,0.5,0.125,35.0,1,1.0,0.18090100000017628
618,30,0.5,0.25,-35.0,-1,1.0,0.3710009999999784
619,30,0.5,0.25,-35.0,-1,1.0,0.7282009999998991
620,30,0.5,0.125,-35.0,-1,1.0,3.43420100000003
621,30,0.5,1.0,35.0,1,1.0,0.27840100000003076
622,30,0.5,0.125,35.0,1,1.0,2.525001000000202
623,30,0.5,0.25,-35.0,-1,1.0,1.8748010000001614
624,30,0.5,0.125,35.0,-1,0.0,0.7617010000001301
625,30,0.5,0.25,-35.0,-1,1.0,1.5250010000002021
626,30,0.5,0.125,-35.0,-1,1.0,0.4154000000000906
627,30,0.5,0.25,35.0,1,1.0,0.5820010000002185
628,30,0.5,0.0625,35.0,1,1.0,4.041401000000178
629,30,0.5,0.25,35.0,-1,0.0,0.11900100000025304
630,30,0.5,0.0625,35.0,-1,0.0,1.8516010000000733
631,30,0.5,0.0625,-35.0,-1,1.0,0.515201000000161
632,30,0.5,0.125,-35.0,-1,1.0,0.6284009999999398
633,30,0.5,1.0,35.0,1,1.0,1.2890010000000984
634,30,0.5,1.0,-35.0,-1,1.0,0.6621010000001206
635,30,0.5,0.125,-35.0,-1,1.0,0.30210100000022067
636,30,0.5,1.0,35.0,1,1.0,0.4987010000002101
637,30,0.5,0.0625,-35.0,-1,1.0,0.6790010000001985
638,30,0.5,0.0625,35.0,1,1.0,4.412600999999995
639,30,0.5,0.0625,-35.0,-1,1.0,0.24600099999997838
640,30,0.5,0.25,35.0,1,1.0,1.085501000000022
641,30,0.5,0.125,-35.0,-1,1.0,0.4021010000003571
642,30,0.5,0.0625,35.0,1,1.0,0.48610100000018974
643,30,0.5,0.25,35.0,1,1.0,0.5993009999999686
644,30,0.5,0.125,35.0,-1,0.0,1.1760000000001583
645,30,0.5,0.125,35.0,-1,0.0,2.3092010000002574
646,30,0.5,1.0,-35.0,-1,1.0,0.3798010000002705
647,30,0.5,0.0625,35.0,-1,0.0,6.366601000000173
648,30,0.4,0.0625,35.0,1,1.0,0.5930010000001857
649,30,0.5,1.0,35.0,1,1.0,0.4701010000003407
650,30,0.5,0.25,-35.0,-1,1.0,0.3300010000002658
651,30,0.5,0.25,35.0,1,1.0,0.4865010000003167
652,30,0.5,0.125,-35.0,-1,1.0,0.36680100000012317
653,30,0.5,0.25,35.0,1,1.0,0.5001010000000861
654,30,0.5,0.0625,-35.0,-1,1.0,0.5367009999999937
655,30,0.5,1.0,-35.0,-1,1.0,0.4006010000002789
656,30,0.5,0.0,-35.0,1,0.0,11.257101000000148
657,30,0.5,0.125,35.0,1,1.0,1.057100999999875
658,30,0.5,0.0625,-35.0,-1,1.0,1.900401000000329
659,30,0.5,0.25,35.0,-1,0.0,2.4770010000002003
660,30,0.5,0.125,-35.0,-1,1.0,0.10030100000039965
661,30,0.5,0.25,-35.0,-1,1.0,0.4771009999999478
662,30,0.5,0.0625,35.0,-1,0.0,1.524000999999771
663,30,0.5,0.0625,-35.0,-1,1.0,0.4005010000000766
664,30,0.5,1.0,35.0,1,1.0,0.42490100000031816
665,30,0.5,1.0,35.0,1,1.0,0.517301000000316
666,30,0.5,1.0,35.0,1,1.0,0.43080100000042876
667,30,0.5,1.0,35.0,1,1.0,0.2874010000000453
668,30,0.5,1.0,35.0,1,1.0,0.4050010000000839
669,30,0.5,0.0625,-35.0,-1,1.0,0.5649010000006456
670,30,0.5,1.0,35.0,1,1.0,0.170900999999958
671,30,0.5,1.0,-35.0,-1,1.0,0.4710009999998874
672,30,0.5,1.0,-35.0,-1,1.0,0.5343010000001414
673,30,0.5,0.0,-35.0,-1,1.0,3.9752010000001974
674,30,0.5,0.25,35.0,1,1.0,0.5781010000000606
675,30,0.5,1.0,-35.0,-1,1.0,0.38210099999969316
676,30,0.5,0.25,-35.0,-1,1.0,0.42180099999995946
677,30,0.5,0.0625,-35.0,-1,1.0,0.6615010000000439
678,30,0.5,0.0625,35.0,1,1.0,1.2283010000001013
679,30,0.5,1.0,-35.0,-1,1.0,0.30480100000022503
680,30,0.5,0.0625,35.0,1,1.0,1.178201000000172
681,30,0.5,0.125,35.0,1,1.0,0.8423010000001341
682,30,0.5,0.25,-35.0,-1,1.0,0.3983010000001741
683,30,0.5,0.0625,-35.0,-1,1.0,5.612300999999661
684,30,0.5,0.0625,-35.0,-1,1.0,0.4586010000002716
685,30,0.5,0.0,-35.0,-1,1.0,5.485201000000416
686,30,0.5,0.25,-35.0,-1,1.0,0.28890099999989616
687,30,0.5,0.0625,35.0,-1,0.0,3.3086010000001806
688,30,0.3,0.0625,35.0,1,1.0,0.9093010000001414
689,30,0.5,1.0,35.0,1,1.0,0.3593010000004142
690,30,0.5,0.0625,35.0,-1,0.0,4.905800999999883
691,30,0.5,0.0625,-35.0,-1,1.0,0.4531010000000606
692,30,0.5,0.125,35.0,1,1.0,0.3392010000002301
693,30,0.5,0.0625,35.0,1,1.0,1.119300999999723
694,30,0.5,0.0,-35.0,1,0.0,4.775901000000431
695,30,0.5,0.0625,-35.0,-1,1.0,0.5367009999999937
696,30,0.5,1.0,-35.0,-1,1.0,0.3896010000003116
697,30,0.5,0.0625,35.0,1,1.0,0.21950100000003658
698,30,0.5,0.125,35.0,1,1.0,0.17630100000042148
699,30,0.5,0.0625,35.0,1,1.0,2.130000999999993
700,30,0.5,0.125,35.0,1,1.0,0.5666009999999915
701,30,0.5,1.0,35.0,1,1.0,0.32330099999990125
702,30,0.5,0.25,35.0,1,1.0,0.5233010000001741
703,30,0.5,0.0625,-35.0,1,0.0,7.8499010000005
704,30,0.5,0.125,35.0,1,1.0,0.39350100000001476
705,30,0.5,0.0,-35.0,-1,1.0,1.063600999999835
706,30,0.5,0.0625,35.0,1,1.0,0.4267010000003211
707,30,0.5,1.0,-35.0,-1,1.0,2.343800999999985
708,30,0.5,1.0,35.0,1,1.0,0.8677010000001246
709,30,0.5,1.0,35.0,1,1.0,0.4403010000000904
710,30,0.5,0.25,-35.0,-1,1.0,0.4105010000002949
711,30,0.5,0.25,35.0,-1,0.0,3.613701000000219
712,30,0.5,0.0625,-35.0,-1,1.0,0.5739010000002054
713,30,0.5,0.25,35.0,1,1.0,0.6339010000001508
714,30,0.5,0.0625,35.0,-1,0.0,13.314401000000089
715,30,0.5,0.25,35.0,1,1.0,0.6211010000001806
716,30,0.5,0.25,-35.0,-1,1.0,0.45840099999986705
717,30,0.5,0.25,35.0,1,1.0,0.3478010000003451
718,30,0.5,0.0625,-35.0,-1,1.0,0.544601000000057
719,30,0.5,1.0,-35.0,-1,1.0,0.45160100000020975
720,30,0.5,0.0625,35.0,1,1.0,0.8345009999998183
721,30,0.5,1.0,-35.0,-1,1.0,0.14450100000021848
722,30,0.5,0.0,-35.0,-1,1.0,0.1584010000001399
723,30,0.5,0.25,35.0,1,1.0,0.3682010000002265
724,30,0.5,0.0625,-35.0,-1,1.0,0.4249009999998634
725,30,0.5,1.0,-35.0,-1,1.0,0.3654010000004746
726,30,0.5,0.0,-35.0,-1,1.0,8.991601000000173
727,30,0.5,1.0,35.0,1,1.0,0.37250100000028397
728,30,0.5,0.0625,35.0,1,1.0,0.595401000000038
729,30,0.5,1.0,35.0,1,1.0,0.7051010000000133
730,30,0.5,0.25,-35.0,-1,1.0,5.32850099999996
731,30,0.5,0.25,35.0,1,1.0,1.2760010000001785
732,30,0.5,1.0,-35.0,-1,1.0,0.3322010000001683
733,30,0.5,1.0,35.0,1,1.0,0.332100999999966
734,30,0.5,0.0625,-35.0,-1,1.0,9.642401000000064
735,30,0.5,1.0,35.0,1,1.0,0.37580099999968297
736,30,0.5,0.25,-35.0,-1,1.0,0.42570100000011735
737,30,0.5,0.25,-35.0,-1,1.0,0.4064010000001872
738,30,0.5,1.0,35.0,1,1.0,0.3925010000002658
739,30,0.5,0.0625,-35.0,-1,1.0,4.013601000000108
740,30,0.5,0.0625,-35.0,-1,1.0,0.23260100000015882
741,30,0.5,0.0625,35.0,-1,0.0,0.0836010000002716
742,30,0.5,0.125,-35.0,-1,1.0,1.7934009999999034
743,30,0.5,1.0,-35.0,-1,1.0,0.34970099999964077
744,30,0.5,1.0,35.0,1,1.0,0.5596010000003844
745,30,0.5,1.0,-35.0,-1,1.0,0.4798009999999522
746,30,0.5,0.0,35.0,-1,0.0,4.743300999999974
747,30,0.5,0.0,-35.0,-1,1.0,10.859900999999809
748,30,0.5,0.0,35.0,1,1.0,6.8268010000001595
749,30,0.5,1.0,-35.0,-1,1.0,0.34410100000059174
750,30,0.5,1.0,-35.0,-1,1.0,0.48360100000036255
751,30,0.5,1.0,-35.0,-1,1.0,0.12770099999988815
752,30,0.5,0.25,-35.0,-1,1.0,0.32050100000014936
753,30,0.5,0.0625,-35.0,-1,1.0,0.29420100000015736
754,30,0.5,0.0,-35.0,-1,1.0,0.4176009999996495
755,30,0.5,1.0,35.0,1,1.0,0.33400099999971644
756,30,0.5,0.25,-35.0,-1,1.0,0.3943010000002687
757,30,0.5,0.0,-35.0,1,0.0,4.247800999999981
758,30,0.3,0.0,-35.0,1,0.0,19.091401000000133
759,30,0.5,1.0,-35.0,-1,1.0,0.2716009999999187
760,30,0.5,0.25,-35.0,-1,1.0,0.12800100000004022
761,30,0.5,0.0,35.0,-1,0.0,0.23470000000043
762,30,0.3,0.0,35.0,-1,0.0,39.33480099999997
763,30,0.5,1.0,35.0,1,1.0,0.6086009999999078
764,30,0.5,0.0625,35.0,1,1.0,0.8755009999999857
765,30,0.5,0.0,-35.0,-1,1.0,0.668800999999803
766,30,0.5,0.0625,35.0,-1,0.0,4.792201000000205
767,30,0.4,0.0625,35.0,1,1.0,1.6658010000001013
768,30,0.5,1.0,-35.0,-1,1.0,0.21920099999988452
769,30,0.5,1.0,-35.0,-1,1.0,0.0757010000002083
770,30,0.5,0.125,-35.0,-1,1.0,0.12600100000008752
771,30,0.5,0.25,-35.0,-1,1.0,1.2859010000001945
772,30,0.5,0.25,-35.0,-1,1.0,2.009400999999798
773,30,0.5,0.25,35.0,1,1.0,0.5427010000003065
774,30,0.5,0.25,-35.0,-1,1.0,0.182901000000129
775,30,0.5,0.125,-35.0,-1,1.0,3.61290100000042
776,30,0.5,0.0625,35.0,1,1.0,0.523001000000022
777,30,0.5,0.125,-35.0,-1,1.0,0.21970100000044113
778,30,0.5,0.0625,35.0,-1,0.0,0.4432010000000446
779,30,0.5,0.125,35.0,-1,0.0,6.2270010000002
780,30,0.5,0.25,-35.0,-1,1.0,0.3966009999999187
781,30,0.5,0.25,-35.0,-1,1.0,6.936901000000034
782,30,0.5,1.0,-35.0,-1,1.0,1.8903009999999085
783,30,0.5,0.0625,35.0,-1,0.0,3.437100999999984
784,30,0.5,0.0,35.0,-1,0.0,21.081001000000015
785,30,0.5,0.0625,35.0,-1,0.0,21.20080100000041
786,30,0.5,0.25,-35.0,-1,1.0,2.3612010000001646
787,30,0.5,0.0625,-35.0,-1,1.0,0.4313010000000759
788,30,0.5,0.0625,-35.0,-1,1.0,2.598300999999992
789,30,0.5,0.0625,-35.0,-1,1.0,0.14820099999997183
790,30,0.5,0.25,35.0,1,1.0,1.068601000000399
791,30,0.5,0.125,35.0,1,1.0,0.9982010000003356
792,30,0.5,0.25,-35.0,-1,1.0,1.2350010000004659
793,30,0.5,0.25,-35.0,-1,1.0,0.5982010000002447
794,30,0.5,1.0,35.0,1,1.0,1.8888010000000577
795,30,0.5,0.0625,35.0,-1,0.0,24.129101000000446
796,30,0.5,0.125,35.0,1,1.0,0.8392010000002301
797,30,0.5,0.25,35.0,1,1.0,2.619101000000228
798,30,0.5,0.25,-35.0,-1,1.0,1.843101000000388
799,30,0.5,1.0,-35.0,-1,1.0,2.7192010000003393
800,30,0.5,1.0,-35.0,-1,1.0,2.6826010000004317
801,30,0.5,0.0,35.0,-1,0.0,0.8198010000000977
802,30,0.3,0.0,-35.0,-1,1.0,13.099300999999741
803,30,0.5,1.0,-35.0,-1,1.0,2.7570009999999456
804,30,0.5,0.125,-35.0,-1,1.0,1.779801000000134
805,30,0.5,0.125,35.0,-1,0.0,0.9133010000005015
806,30,0.5,0.0625,35.0,-1,0.0,7.204001000000062
807,30,0.5,0.125,35.0,-1,0.0,12.453401000000667
808,30,0.5,0.25,35.0,-1,0.0,2.9546009999999114
809,30,0.5,0.25,-35.0,-1,1.0,0.34050100000013117
810,30,0.5,0.0625,35.0,-1,0.0,5.768000999999913
811,30,0.5,0.125,35.0,-1,0.0,22.387901000000056
812,30,0.5,0.25,-35.0,-1,1.0,13.511101000000053
813,30,0.5,0.25,-35.0,-1,1.0,1.5381009999996422
814,30,0.5,0.25,-35.0,-1,1.0,0.45160100000020975
815,30,0.5,0.0625,35.0,-1,0.0,3.3885010000003604
816,30,0.5,0.25,-35.0,-1,1.0,3.1684009999999034
817,30,0.5,1.0,-35.0,-1,1.0,11.029101000000537
818,30,0.5,0.0,35.0,-1,0.0,4.532101000000239
819,30,0.5,0.0625,35.0,-1,0.0,0.9161010000002534
820,30,0.0,0.0625,35.0,-1,0.0,6.105501000000004
821,30,0.5,1.0,35.0,1,1.0,1.2593010000005052
822,30,0.5,0.0,35.0,-1,0.0,4.756101000000399
823,30,0.5,0.125,-35.0,-1,1.0,3.336101000000326
824,30,0.5,0.0,-35.0,-1,1.0,5.5895009999999274
825,30,0.5,0.0,-35.0,-1,1.0,5.30960099999993
826,30,0.5,0.125,-35.0,-1,1.0,3.4801010000001042
827,30,0.5,0.0625,35.0,-1,0.0,0.25070099999993545
828,30,0.5,0.125,35.0,1,1.0,8.287101000000348
829,30,0.5,0.25,-35.0,-1,1.0,0.5001010000005408
830,30,0.5,0.125,35.0,1,1.0,0.2702009999998154
831,30,0.5,1.0,-35.0,-1,1.0,0.43340100000023085
832,30,0.5,0.25,-35.0,-1,1.0,0.42020099999990634
833,30,0.5,0.25,-35.0,-1,1.0,0.28410100000019156
834,30,0.5,0.25,35.0,1,1.0,1.3375009999999747
835,30,0.5,0.25,-35.0,-1,1.0,5.930601000000024
836,30,0.5,1.0,-35.0,-1,1.0,0.34420100000033926
837,30,0.5,1.0,-35.0,-1,1.0,0.20430100000021412
838,30,0.5,0.125,35.0,-1,0.0,7.370701000000281
839,30,0.5,0.125,-35.0,-1,1.0,1.7674010000000635
840,30,0.5,0.25,-35.0,-1,1.0,0.2514009999999871
841,30,0.5,0.0,35.0,-1,0.0,5.0942009999998845
1,31,0.5,0.0625,35.0,1,1.0,0.4623999999999997
2,31,0.5,0.125,35.0,1,1.0,0.27370099999999997
3,31,0.5,0.0,35.0,-1,0.0,17.287401
4,31,0.5,0.125,-35.0,-1,1.0,1.3483009999999993
5,31,0.5,0.0625,-35.0,-1,1.0,1.4361010000000007
6,31,0.5,0.0625,-35.0,-1,1.0,4.190401000000001
7,31,0.5,0.25,35.0,1,1.0,0.8718010000000049
8,31,0.5,0.0625,-35.0,1,0.0,1.7695009999999982
9,31,0.5,0.125,35.0,1,1.0,0.17310100000000261
10,31,0.5,0.125,-35.0,-1,1.0,0.5006010000000032
11,31,0.5,1.0,-35.0,-1,1.0,0.4062010000000029
12,31,0.5,0.0625,-35.0,1,0.0,0.6571009999999973
13,31,0.5,0.125,-35.0,-1,1.0,0.3949009999999973
14,31,0.5,1.0,35.0,-1,0.0,0.3764009999999871
15,31,0.4,1.0,35.0,-1,0.0,-0.027899000000005003
16,31,0.4,1.0,35.0,1,1.0,0.3870009999999837
17,31,0.5,1.0,-35.0,-1,1.0,0.35140099999999563
18,31,0.5,1.0,-35.0,-1,1.0,0.3787010000000066
19,31,0.5,0.125,35.0,1,1.0,0.5437009999999987
20,31,0.5,1.0,35.0,1,1.0,0.47550099999997997
21,31,0.5,0.25,-35.0,-1,1.0,0.41760099999999056
22,31,0.5,0.125,35.0,1,1.0,0.5225009999999912
23,31,0.5,0.0625,35.0,1,1.0,0.43140099999999393
24,31,0.5,0.25,-35.0,-1,1.0,0.19440099999999916
25,31,0.5,1.0,-35.0,-1,1.0,0.3477010000000007
26,31,0.5,0.25,-35.0,-1,1.0,0.32520099999999275
27,31,0.5,0.0,35.0,-1,0.0,0.32450099999999793
28,31,0.5,0.125,35.0,1,1.0,0.24890099999998938
29,31,0.5,0.25,35.0,1,1.0,0.36260099999998374
30,31,0.5,0.25,-35.0,-1,1.0,0.3881009999999918
31,31,0.5,0.25,-35.0,-1,1.0,0.3815010000000001
32,31,0.5,1.0,-35.0,-1,1.0,0.39120099999999525
33,31,0.5,1.0,-35.0,-1,1.0,0.3102009999999922
34,31,0.5,0.0,35.0,-1,0.0,0.5984009999999955
35,31,0.5,0.25,-35.0,1,0.0,0.016500999999990995
36,31,0.3,0.25,-35.0,-1,1.0,0.18740100000002258
37,31,0.5,1.0,35.0,1,1.0,0.5442009999999868
38,31,0.5,0.0625,35.0,1,1.0,2.35140100000001
39,31,0.5,1.0,35.0,1,1.0,0.36200099999999225
40,31,0.5,0.0,-35.0,-1,1.0,1.925200999999987
41,31,0.5,0.25,35.0,1,1.0,0.37130099999998833
42,31,0.5,1.0,-35.0,-1,1.0,0.4183009999999854
43,31,0.5,0.125,-35.0,-1,1.0,0.3701009999999769
44,31,0.5,1.0,35.0,1,1.0,0.3938009999999963
45,31,0.5,0.0625,35.0,-1,0.0,0.9794009999999957
46,31,0.5,0.25,35.0,1,1.0,0.2530010000000118
47,31,0.5,0.25,35.0,1,1.0,0.7794010000000071
48,31,0.5,0.0,-35.0,-1,1.0,2.662200999999982
49,31,0.5,0.0625,-35.0,-1,1.0,1.0912009999999839
50,31,0.5,0.0625,-35.0,1,0.0,0.19770099999999502
51,31,0.5,0.25,35.0,1,1.0,0.268400999999983
52,31,0.5,1.0,35.0,1,1.0,0.3763009999999838
53,31,0.5,0.0,-35.0,-1,1.0,2.010501000000005
54,31,0.5,1.0,-35.0,-1,1.0,0.37370100000001116
55,31,0.5,0.125,-35.0,-1,1.0,0.44200099999997633
56,31,0.5,1.0,-35.0,-1,1.0,0.3543009999999924
57,31,0.5,0.125,-35.0,-1,1.0,0.3768010000000004
58,31,0.5,1.0,35.0,-1,0.0,0.1597009999999841
59,31,0.5,0.125,-35.0,-1,1.0,0.1533009999999706
60,31,0.5,0.0625,35.0,1,1.0,0.48920100000000843
61,31,0.5,0.25,35.0,1,1.0,0.40880100000001107
62,31,0.5,0.25,-35.0,-1,1.0,0.40760099999999966
63,31,0.5,1.0,-35.0,-1,1.0,0.30890099999999165
64,31,0.5,0.25,-35.0,-1,1.0,0.19050099999998338
65,31,0.5,0.125,35.0,-1,0.0,0.26730100000000334
66,31,0.5,0.0,35.0,-1,0.0,0.8829009999999755
67,31,0.5,0.25,-35.0,-1,1.0,0.17470099999999888
68,31,0.5,1.0,35.0,1,1.0,0.23930099999998333
69,31,0.5,0.0,-35.0,-1,1.0,0.6528009999999824
70,31,0.5,1.0,-35.0,-1,1.0,0.42340099999998415
71,31,0.5,1.0,-35.0,-1,1.0,0.32300099999997656
72,31,0.5,1.0,-35.0,-1,1.0,0.2924009999999839
73,31,0.5,0.125,-35.0,-1,1.0,0.393400999999983
74,31,0.5,1.0,35.0,-1,0.0,0.23840099999998188
75,31,0.5,0.125,-35.0,-1,1.0,0.31070099999999456
76,31,0.5,0.0,-35.0,-1,1.0,0.8711009999999817
77,31,0.5,0.125,-35.0,-1,1.0,0.3074009999999987
78,31,0.5,0.0,35.0,-1,0.0,0.4894010000000151
79,31,0.5,0.125,-35.0,-1,1.0,0.19040100000000848
80,31,0.5,0.0,-35.0,-1,1.0,0.8839000000000397
81,31,0.5,0.0625,35.0,-1,0.0,0.5913009999999872
82,31,0.5,0.0,35.0,-1,0.0,0.2908010000000445
83,31,0.5,0.125,-35.0,-1,1.0,0.18770100000000411
84,31,0.5,0.125,-35.0,-1,1.0,0.26040100000000166
85,31,0.5,0.125,-35.0,-1,1.0,0.17830100000003313
86,31,0.5,0.0625,-35.0,-1,1.0,0.43780100000003586
87,31,0.5,0.0,-35.0,-1,1.0,3.2915009999999825
88,31,0.5,0.0,-35.0,-1,1.0,0.7649010000000089
89,31,0.5,0.25,-35.0,-1,1.0,0.351400999999953
90,31,0.5,0.125,35.0,1,1.0,1.432501000000002
91,31,0.5,0.25,35.0,1,1.0,0.37740099999996346
92,31,0.5,0.125,-35.0,-1,1.0,0.4481010000000083
93,31,0.5,0.25,-35.0,-1,1.0,0.3045009999999593
94,31,0.5,1.0,-35.0,-1,1.0,0.16940099999999347
95,31,0.5,0.125,35.0,-1,0.0,0.09080099999999902
96,31,0.2,0.125,-35.0,-1,1.0,0.25270100000000184
97,31,0.5,1.0,35.0,1,1.0,0.07460099999997283
98,31,0.5,1.0,-35.0,-1,1.0,0.3255009999999743
99,31,0.5,1.0,35.0,1,1.0,0.3727010000000064
100,31,0.5,0.25,35.0,1,1.0,0.4394009999999753
101,31,0.5,1.0,35.0,1,1.0,0.38320099999998547
102,31,0.5,0.0625,-35.0,1,0.0,1.361900999999989
103,31,0.5,0.0625,35.0,1,1.0,0.20860099999998738
104,31,0.5,1.0,35.0,1,1.0,0.3587009999999964
105,31,0.5,0.0,35.0,1,1.0,0.6192009999999755
106,31,0.5,0.125,-35.0,-1,1.0,0.7136009999999828
107,31,0.5,0.0625,-35.0,-1,1.0,0.8555999999999813
108,31,0.5,0.25,-35.0,-1,1.0,0.3298009999999749
109,31,0.5,1.0,-35.0,-1,1.0,0.28860099999997146
110,31,0.5,0.0625,35.0,1,1.0,0.4847010000000296
111,31,0.5,0.0,-35.0,-1,1.0,0.1846010000000433
112,31,0.5,0.25,-35.0,-1,1.0,0.263101000000006
113,31,0.5,0.0625,35.0,-1,0.0,0.10960099999999784
114,31,0.3,0.0625,-35.0,1,0.0,0.28160099999996646
115,31,0.5,1.0,-35.0,-1,1.0,0.2706009999999992
116,31,0.5,0.0625,35.0,-1,0.0,0.6595009999999775
117,31,0.5,0.25,35.0,1,1.0,0.170900999999958
118,31,0.5,1.0,-35.0,-1,1.0,0.3486010000000306
119,31,0.5,0.125,35.0,1,1.0,2.2548009999999863
120,31,0.5,0.0625,-35.0,-1,1.0,0.4305009999999925
121,31,0.5,1.0,35.0,1,1.0,0.40290099999998574
122,31,0.5,0.125,35.0,1,1.0,0.4446009999999774
123,31,0.5,0.125,-35.0,1,0.0,1.4596010000000206
124,31,0.5,0.125,35.0,1,1.0,0.24160100000000284
125,31,0.5,0.0625,35.0,1,1.0,0.5812009999999646
126,31,0.5,0.125,35.0,1,1.0,0.5796010000000251
127,31,0.5,0.0625,-35.0,-1,1.0,0.408600999999976
128,31,0.5,0.25,-35.0,-1,1.0,0.32810100000000375
129,31,0.5,0.0625,35.0,-1,0.0,0.27780100000001084
130,31,0.5,0.25,35.0,1,1.0,0.24100100000003977
131,31,0.5,0.0625,-35.0,-1,1.0,0.49320099999994227
132,31,0.5,0.0625,35.0,-1,0.0,0.23920099999998
133,31,0.5,0.25,-35.0,-1,1.0,0.2591009999999869
134,31,0.5,0.125,35.0,-1,0.0,0.638800999999944
135,31,0.5,0.125,35.0,1,1.0,0.2436010000000124
136,31,0.5,0.125,-35.0,-1,1.0,0.36520099999995637
137,31,0.5,1.0,-35.0,-1,1.0,0.3348010000000272
138,31,0.5,0.25,35.0,1,1.0,0.39290099999999484
139,31,0.5,0.0625,35.0,-1,0.0,0.19369999999997844
140,31,0.5,0.0625,35.0,1,1.0,0.32070099999998547
141,31,0.5,0.25,-35.0,-1,1.0,0.48870099999999184
142,31,0.5,1.0,-35.0,-1,1.0,0.3279009999999971
143,31,0.5,0.125,35.0,-1,0.0,0.19160100000004832
144,31,0.3,0.125,-35.0,-1,1.0,0.26030100000002676
145,31,0.5,1.0,-35.0,-1,1.0,0.21370100000001457
146,31,0.5,0.125,-35.0,-1,1.0,0.4031009999999924
147,31,0.5,0.125,-35.0,1,0.0,0.4137010000000032
148,31,0.3,0.125,-35.0,-1,1.0,0.044701000000031854
149,31,0.5,1.0,35.0,-1,0.0,0.10370099999994409
150,31,0.5,0.0625,35.0,1,1.0,0.3579009999999698
151,31,0.5,0.25,35.0,1,1.0,0.49570099999999684
152,31,0.5,0.0625,35.0,1,1.0,0.5250009999999747
153,31,0.5,0.125,-35.0,-1,1.0,0.42070099999995136
154,31,0.5,0.0625,-35.0,-1,1.0,0.3699009999999703
155,31,0.5,0.125,35.0,1,1.0,0.4166010000000142
156,31,0.5,0.0,-35.0,-1,1.0,0.48690100000004577
157,31,0.5,0.125,-35.0,-1,1.0,0.41890099999994845
158,31,0.5,0.25,-35.0,-1,1.0,0.16870099999994181
159,31,0.5,0.0625,35.0,-1,0.0,0.03390099999995755
160,31,0.4,0.0625,35.0,1,1.0,0.31980100000004086
161,31,0.5,1.0,-35.0,-1,1.0,0.34800100000001066
162,31,0.5,0.0,-35.0,-1,1.0,0.6025010000000179
163,31,0.5,0.125,35.0,1,1.0,0.46380099999998947
164,31,0.5,0.25,35.0,-1,0.0,0.14560099999994236
165,31,0.5,0.0625,-35.0,-1,1.0,0.2829009999999812
166,31,0.5,0.25,35.0,1,1.0,0.4467009999999618
167,31,0.5,0.125,35.0,1,1.0,1.2179009999999266
168,31,0.5,0.125,-35.0,-1,1.0,0.6617009999999937
169,31,0.5,0.125,35.0,1,1.0,0.4028010000000677
170,31,0.5,0.0,35.0,1,1.0,0.5611010000001215
171,31,0.5,0.0625,-35.0,-1,1.0,0.472801000000004
172,31,0.5,1.0,-35.0,-1,1.0,0.24670100000003004
173,31,0.5,0.125,35.0,-1,0.0,0.17590100000006714
174,31,0.4,0.125,35.0,1,1.0,0.26450099999999566
175,31,0.5,1.0,35.0,-1,0.0,0.23010100000010425
176,31,0.5,0.125,35.0,1,1.0,0.28880100000003495
177,31,0.5,1.0,35.0,1,1.0,0.5369010000000571
178,31,0.5,0.0,35.0,1,1.0,0.594101000000137
179,31,0.5,0.125,35.0,1,1.0,0.3279010000001108
180,31,0.5,0.0625,35.0,1,1.0,1.195201000000111
181,31,0.5,0.0625,-35.0,-1,1.0,0.40800100000001294
182,31,0.5,0.0625,-35.0,1,0.0,0.2979010000000244
183,31,0.7,0.0625,-35.0,-1,1.0,0.2883009999999331
184,31,0.5,1.0,35.0,1,1.0,0.44620099999997365
185,31,0.5,0.125,35.0,-1,0.0,0.20970100000010916
186,31,0.5,0.0625,-35.0,-1,1.0,0.6087009999999964
187,31,0.5,0.0,35.0,1,1.0,0.6899010000000771
188,31,0.5,0.25,35.0,1,1.0,0.34300100000007205
189,31,0.5,0.125,-35.0,-1,1.0,0.4767010000000482
190,31,0.5,1.0,35.0,1,1.0,0.2517010000000255
191,31,0.5,0.125,-35.0,-1,1.0,0.7852010000000291
192,31,0.5,0.0625,35.0,1,1.0,0.5030009999999265
193,31,0.5,1.0,35.0,1,1.0,0.3719010000000935
194,31,0.5,0.0,35.0,-1,0.0,0.3791009999999915
195,31,0.5,0.0,35.0,-1,0.0,0.5449010000000953
196,31,0.5,0.0,35.0,-1,0.0,0.43000000000006366
197,31,0.5,1.0,35.0,1,1.0,0.2292010000001028
198,31,0.5,0.25,35.0,-1,0.0,0.08700100000010025
199,31,0.4,0.25,-35.0,-1,1.0,0.16220099999998183
200,31,0.5,1.0,-35.0,-1,1.0,0.2916010000000142
201,31,0.5,0.125,35.0,1,1.0,0.49200100000007296
202,31,0.5,0.0625,-35.0,-1,1.0,0.409001000000103
203,31,0.5,0.125,35.0,-1,0.0,0.1500010000002021
204,31,0.5,0.25,35.0,1,1.0,0.2798010000000204
205,31,0.5,0.25,-35.0,-1,1.0,0.35380099999997583
206,31,0.5,0.25,35.0,1,1.0,0.41200100000003204
207,31,0.5,0.25,-35.0,-1,1.0,0.38720100000011826
208,31,0.5,1.0,35.0,1,1.0,0.14500100000009297
209,31,0.5,0.125,35.0,1,1.0,0.33700100000010025
210,31,0.5,0.25,-35.0,-1,1.0,0.6930010000000948
211,31,0.5,1.0,-35.0,-1,1.0,0.33300100000008115
212,31,0.5,0.0625,-35.0,-1,1.0,0.3547009999999773
213,31,0.5,0.25,35.0,1,1.0,0.32929999999998927
214,31,0.5,0.25,-35.0,-1,1.0,0.374800999999934
215,31,0.5,0.0625,35.0,-1,0.0,0.2931010000000924
216,31,0.5,0.25,-35.0,-1,1.0,0.29260099999999056
217,31,0.5,0.125,-35.0,-1,1.0,0.8412010000000691
218,31,0.5,0.25,35.0,1,1.0,0.43800099999998565
219,31,0.5,0.0625,-35.0,1,0.0,0.7960010000000466
220,31,0.3,0.0625,-35.0,-1,1.0,0.2311010000000806
221,31,0.5,1.0,35.0,1,1.0,0.2921010000001161
222,31,0.5,0.0625,-35.0,1,0.0,0.08600100000001021
223,31,0.5,0.25,-35.0,-1,1.0,0.18720100000007278
224,31,0.5,0.125,-35.0,-1,1.0,0.03930100000002312
225,31,0.5,0.125,-35.0,-1,1.0,0.46810100000004695
226,31,0.5,0.125,35.0,1,1.0,0.2571010000000342
227,31,0.5,0.0625,-35.0,-1,1.0,0.13510100000007697
228,31,0.5,0.0625,-35.0,-1,1.0,0.4431010000000697
229,31,0.5,1.0,35.0,1,1.0,0.4181010000000924
230,31,0.5,0.125,-35.0,-1,1.0,0.39310100000011516
231,31,0.5,0.125,35.0,1,1.0,0.40140100000007806
232,31,0.5,0.0625,-35.0,-1,1.0,0.262100999999916
233,31,0.5,0.0625,35.0,1,1.0,0.4450010000001612
234,31,0.5,0.0,35.0,1,1.0,1.2243010000000822
235,31,0.5,0.0625,35.0,1,1.0,0.2011009999999942
236,31,0.5,0.125,-35.0,-1,1.0,0.36520100000007005
237,31,0.5,1.0,35.0,-1,0.0,0.14200100000005023
238,31,0.5,0.0,35.0,-1,0.0,0.5911010000000942
239,31,0.5,0.0625,35.0,1,1.0,0.31720099999995455
240,31,0.5,1.0,35.0,1,1.0,0.30110100000001694
241,31,0.5,0.0625,35.0,1,1.0,0.4484010000001035
242,31,0.5,0.0,35.0,-1,0.0,0.544601000000057
243,31,0.5,0.25,35.0,1,1.0,0.2755009999999629
244,31,0.5,0.125,-35.0,-1,1.0,0.28430100000002767
245,31,0.5,0.25,35.0,1,1.0,0.46420100000000275
246,31,0.5,0.25,-35.0,-1,1.0,0.3868009999999913
247,31,0.5,0.125,-35.0,-1,1.0,0.4201010000001588
248,31,0.5,1.0,-35.0,-1,1.0,0.31840100000010807
249,31,0.5,0.25,-35.0,-1,1.0,0.5492010000000391
250,31,0.5,0.125,35.0,1,1.0,0.4269009999999298
251,31,0.5,0.0625,-35.0,1,0.0,0.29720099999997274
252,31,0.5,0.125,35.0,1,1.0,0.5362010000001192
253,31,0.5,1.0,-35.0,-1,1.0,0.39520100000004277
254,31,0.5,0.0,-35.0,-1,1.0,0.7742010000000619
255,31,0.5,0.25,-35.0,-1,1.0,0.2652010000000473
256,31,0.5,1.0,35.0,1,1.0,0.5956010000001015
257,31,0.5,0.0,35.0,1,1.0,0.502501000000052
258,31,0.5,1.0,35.0,1,1.0,0.40710100000012517
259,31,0.5,0.25,-35.0,-1,1.0,0.4052010000000337
260,31,0.5,0.125,-35.0,-1,1.0,0.29110100000002603
261,31,0.5,0.0625,-35.0,-1,1.0,0.40580100000011043
262,31,0.5,0.25,35.0,-1,0.0,0.1385010000000193
263,31,0.3,0.25,35.0,1,1.0,0.28270100000008824
264,31,0.5,1.0,35.0,1,1.0,0.3925010000000384
265,31,0.5,0.0625,35.0,1,1.0,0.7595010000001139
266,31,0.5,0.125,35.0,1,1.0,0.4687010000001237
267,31,0.5,0.25,35.0,1,1.0,0.4187010000000555
268,31,0.5,0.125,35.0,1,1.0,0.5922010000000455
269,31,0.5,0.25,-35.0,-1,1.0,0.40940100000011626
270,31,0.5,1.0,-35.0,-1,1.0,0.31260100000008606
271,31,0.5,1.0,35.0,1,1.0,0.3819010000000844
272,31,0.5,0.125,35.0,1,1.0,0.4045010000000957
273,31,0.5,0.125,-35.0,-1,1.0,0.3463010000000395
274,31,0.5,1.0,-35.0,-1,1.0,0.36730099999999766
275,31,0.5,1.0,35.0,1,1.0,0.374501000000123
276,31,0.5,0.0,35.0,-1,0.0,0.5908010000000559
277,31,0.5,0.0,35.0,1,1.0,6.032000999999923
278,31,0.5,1.0,-35.0,-1,1.0,0.17130099999997128
279,31,0.5,0.25,35.0,1,1.0,0.3926010000000133
280,31,0.5,0.0,-35.0,-1,1.0,3.784400000000119
281,31,0.5,0.125,35.0,1,1.0,0.3183010000000195
282,31,0.5,1.0,35.0,1,1.0,0.504301000000055
283,31,0.5,0.0,35.0,-1,0.0,0.43540100000006987
284,31,0.5,0.125,35.0,1,1.0,0.3082000000000562
285,31,0.5,1.0,35.0,1,1.0,0.30700100000001385
286,31,0.5,0.0625,-35.0,-1,1.0,0.5727010000000519
287,31,0.5,0.0625,35.0,1,1.0,0.6456010000001697
288,31,0.5,0.0,-35.0,-1,1.0,0.1485010000001239
289,31,0.5,0.0625,35.0,-1,0.0,0.23220100000003185
290,31,0.5,0.125,35.0,1,1.0,0.47640100000000984
291,31,0.5,0.25,35.0,1,1.0,0.45030100000008133
292,31,0.5,0.0625,35.0,1,1.0,0.3858010000001286
293,31,0.5,0.125,35.0,1,1.0,0.8697010000000773
294,31,0.5,0.0,-35.0,1,0.0,0.1403010000000222
295,31,0.5,0.25,35.0,-1,0.0,1.0198010000000295
296,31,0.5,0.25,35.0,1,1.0,0.38340100000004895
297,31,0.5,1.0,35.0,1,1.0,0.3542009999999891
298,31,0.5,0.0625,-35.0,1,0.0,1.4914009999999962
299,31,0.8,0.0625,35.0,1,1.0,0.3160010000000284
300,31,0.5,1.0,-35.0,-1,1.0,0.9555010000000266
301,31,0.5,0.25,-35.0,-1,1.0,0.22740100000009988
302,31,0.5,0.25,-35.0,1,0.0,1.4904010000000198
303,31,0.7,0.25,35.0,1,1.0,0.42160100000012335
304,31,0.5,1.0,-35.0,-1,1.0,0.47610099999997146
305,31,0.5,0.0625,35.0,1,1.0,1.2742010000000619
306,31,0.5,0.25,35.0,1,1.0,0.4753010000000586
307,31,0.5,1.0,35.0,1,1.0,0.3845010000000002
308,31,0.5,0.25,35.0,1,1.0,0.36950100000001385
309,31,0.5,0.25,-35.0,-1,1.0,0.3842010000000755
310,31,0.5,0.0625,35.0,-1,0.0,5.089101000000028
311,31,0.5,0.25,-35.0,-1,1.0,0.21650100000010752
312,31,0.5,0.25,35.0,1,1.0,0.2656010000000606
313,31,0.5,1.0,35.0,1,1.0,0.38950099999999566
314,31,0.5,0.125,-35.0,-1,1.0,0.5156010000000606
315,31,0.5,0.0,-35.0,-1,1.0,0.799301000000014
316,31,0.5,0.125,35.0,1,1.0,0.8925000000000409
317,31,0.5,1.0,-35.0,-1,1.0,0.14640099999996892
318,31,0.5,0.0,35.0,-1,0.0,1.1676010000001042
319,31,0.5,0.25,-35.0,-1,1.0,0.032400999999936175
320,31,0.5,0.0625,-35.0,-1,1.0,0.3985010000000102
321,31,0.5,0.125,-35.0,-1,1.0,0.6308010000000195
322,31,0.5,0.25,-35.0,-1,1.0,0.3397010000001046
323,31,0.5,0.0625,-35.0,-1,1.0,0.39960100000007515
324,31,0.5,0.125,35.0,1,1.0,0.42160100000012335
325,31,0.5,0.125,35.0,1,1.0,0.4492010000000164
326,31,0.5,0.0,35.0,1,1.0,4.211001000000124
327,31,0.5,1.0,-35.0,-1,1.0,0.24860100000000784
328,31,0.5,1.0,-35.0,-1,1.0,0.3661010000000715
329,31,0.5,1.0,35.0,1,1.0,0.420601000000147
330,31,0.5,0.0,-35.0,1,0.0,1.0856010000001106
331,31,0.5,0.125,-35.0,-1,1.0,0.25860100000011244
332,31,0.5,0.0625,35.0,1,1.0,0.9044010000000071
333,31,0.5,0.0,35.0,-1,0.0,1.0474010000000362
334,31,0.5,0.125,-35.0,-1,1.0,0.2436010000000124
335,31,0.5,1.0,35.0,1,1.0,0.39760100000012244
336,31,0.5,1.0,35.0,1,1.0,0.38760100000001785
337,31,0.5,0.0625,-35.0,1,0.0,0.8739009999999325
338,31,0.5,0.25,-35.0,-1,1.0,0.22380100000009406
339,31,0.5,0.125,35.0,1,1.0,0.4406010000000151
340,31,0.5,0.25,35.0,1,1.0,0.437300999999934
341,31,0.5,0.125,-35.0,1,0.0,0.7241010000000188
342,31,0.5,0.125,35.0,1,1.0,0.3177009999999427
343,31,0.5,0.125,35.0,1,1.0,0.4146009999999478
344,31,0.5,0.0625,-35.0,-1,1.0,4.860801000000038
345,31,0.5,0.125,35.0,1,1.0,0.36130100000013954
346,31,0.5,0.0625,35.0,1,1.0,0.4746010000001206
347,31,0.5,0.125,-35.0,-1,1.0,0.44440099999997074
348,31,0.5,0.0625,35.0,1,1.0,0.38800099999980375
349,31,0.5,0.125,-35.0,-1,1.0,0.25820100000009916
350,31,0.5,0.0,35.0,1,1.0,1.6851010000000315
351,31,0.5,0.125,35.0,1,1.0,0.20540100000016537
352,31,0.5,0.25,-35.0,-1,1.0,0.44220100000006823
353,31,0.5,1.0,35.0,1,1.0,0.3017010000000937
354,31,0.5,0.25,35.0,1,1.0,0.22190100000011626
355,31,0.5,1.0,-35.0,-1,1.0,0.42800099999999475
356,31,0.5,1.0,35.0,1,1.0,0.18860099999983504
357,31,0.5,1.0,35.0,1,1.0,0.28870099999994636
358,31,0.5,1.0,35.0,1,1.0,2.431701000000203
359,31,0.5,0.0625,35.0,1,1.0,0.6587010000000646
360,31,0.5,1.0,-35.0,-1,1.0,0.38570099999992635
361,31,0.5,0.25,35.0,1,1.0,0.7824009999999362
362,31,0.5,0.25,-35.0,-1,1.0,0.5128000000001975
363,31,0.5,0.125,35.0,1,1.0,0.35880100000008497
364,31,0.5,0.125,-35.0,-1,1.0,0.2388010000001941
365,31,0.5,1.0,-35.0,-1,1.0,0.3225009999998747
366,31,0.5,0.0625,35.0,-1,0.0,0.14900099999999838
367,31,0.5,0.0625,35.0,1,1.0,0.40200099999992744
368,31,0.5,0.25,35.0,1,1.0,0.0027010000001155277
369,31,0.5,0.0625,35.0,1,1.0,0.498801000000185
370,31,0.5,1.0,35.0,1,1.0,0.3630009999999402
371,31,0.5,1.0,35.0,1,1.0,0.38560100000017883
372,31,0.5,1.0,-35.0,-1,1.0,0.8195009999999456
373,31,0.5,0.25,-35.0,1,0.0,0.41970100000025923
374,31,0.6,0.25,35.0,1,1.0,0.38280100000019956
375,31,0.5,1.0,-35.0,-1,1.0,0.40980100000001585
376,31,0.5,0.25,35.0,1,1.0,0.34680100000014136
377,31,0.5,0.0625,35.0,1,1.0,0.499800999999934
378,31,0.5,0.25,-35.0,1,0.0,0.569501000000173
379,31,0.5,0.0625,35.0,1,1.0,0.6795010000003003
380,31,0.5,0.125,-35.0,-1,1.0,0.8328009999997903
381,31,0.5,0.25,35.0,1,1.0,0.32280100000002676
382,31,0.5,1.0,35.0,1,1.0,0.33280100000001767
383,31,0.5,0.125,35.0,1,1.0,0.4898009999999431
384,31,0.5,0.25,-35.0,-1,1.0,0.2737010000000737
385,31,0.5,0.0625,35.0,1,1.0,0.30290100000001985
386,31,0.5,0.25,35.0,1,1.0,0.4070010000000366
387,31,0.5,0.125,35.0,1,1.0,0.44320100000027196
388,31,0.5,0.125,-35.0,1,0.0,0.19980100000020684
389,31,0.8,0.125,-35.0,-1,1.0,0.15690100000006169
390,31,0.5,1.0,-35.0,-1,1.0,0.3266009999999824
391,31,0.5,0.0625,-35.0,-1,1.0,0.5439010000000053
392,31,0.5,0.0625,-35.0,-1,1.0,0.46420100000000275
393,31,0.5,0.125,-35.0,1,0.0,0.30700100000012753
394,31,0.5,0.25,35.0,1,1.0,0.25690099999997074
395,31,0.5,0.0,-35.0,1,0.0,0.3137010000000373
396,31,0.6,0.0,35.0,-1,0.0,0.3439009999999598
397,31,0.5,1.0,35.0,1,1.0,0.23690099999998893
398,31,0.5,0.0625,-35.0,-1,1.0,0.7003010000000813
399,31,0.5,0.125,-35.0,-1,1.0,0.35370100000000093
400,31,0.5,0.0625,35.0,1,1.0,0.5039010000000417
401,31,0.5,0.0625,-35.0,-1,1.0,0.43730100000016137
402,31,0.5,0.0625,35.0,1,1.0,0.4105010000000675
403,31,0.5,0.25,-35.0,-1,1.0,0.35120100000017374
404,31,0.5,0.25,35.0,1,1.0,0.6609009999999671
405,31,0.5,0.25,-35.0,-1,1.0,0.8810009999999693
406,31,0.5,0.125,-35.0,-1,1.0,0.48070099999995364
407,31,0.5,0.25,35.0,1,1.0,0.354001000000153
408,31,0.5,1.0,-35.0,1,0.0,0.13090100000022176
409,31,0.5,0.0,35.0,-1,0.0,2.054300999999896
410,31,0.5,0.0,-35.0,-1,1.0,0.37150099999985287
411,31,0.5,0.25,-35.0,-1,1.0,0.3811009999999442
412,31,0.5,0.25,-35.0,-1,1.0,0.3143010000001141
413,31,0.5,0.25,35.0,1,1.0,0.40790100000003804
414,31,0.5,0.125,35.0,1,1.0,0.3982009999999718
415,31,0.5,1.0,-35.0,-1,1.0,0.34120099999995546
416,31,0.5,0.0,35.0,1,1.0,0.3279010000001108
417,31,0.5,0.25,-35.0,-1,1.0,0.39800100000002203
418,31,0.5,0.0625,-35.0,-1,1.0,0.3111010000002352
419,31,0.5,1.0,-35.0,-1,1.0,0.34130099999993035
420,31,0.5,0.0625,-35.0,-1,1.0,0.811301000000185
421,31,0.5,0.0,-35.0,-1,1.0,3.115301000000045
422,31,0.5,0.0625,35.0,1,1.0,0.3220010000000002
423,31,0.5,1.0,35.0,1,1.0,0.21500100000025668
424,31,0.5,0.0625,35.0,1,1.0,0.44170099999996637
425,31,0.5,0.0,-35.0,1,0.0,0.5055009999998674
426,31,0.5,0.0,35.0,-1,0.0,0.5488010000001395
427,31,0.5,0.0,-35.0,-1,1.0,0.25840100000004895
428,31,0.5,0.25,35.0,1,1.0,0.5919010000000071
429,31,0.5,0.125,-35.0,-1,1.0,0.062200999999959095
430,31,0.5,0.0625,35.0,1,1.0,0.5387009999999464
431,31,0.5,0.0625,-35.0,-1,1.0,0.46870100000001
432,31,0.5,1.0,35.0,1,1.0,0.24270099999989725
433,31,0.5,0.125,-35.0,-1,1.0,0.45220100000005914
434,31,0.5,0.25,35.0,1,1.0,0.4391010000001643
435,31,0.5,0.0625,-35.0,-1,1.0,0.14900099999999838
436,31,0.5,0.25,35.0,1,1.0,0.3094010000002072
437,31,0.5,0.0625,35.0,1,1.0,0.4460010000002512
438,31,0.5,0.0625,-35.0,-1,1.0,0.18920100000013917
439,31,0.5,0.125,35.0,1,1.0,0.9761010000001988
440,31,0.5,0.0625,-35.0,-1,1.0,0.27010100000006787
441,31,0.5,1.0,35.0,1,1.0,0.0961010000000897
442,31,0.5,1.0,-35.0,-1,1.0,0.20610100000021703
443,31,0.5,0.125,-35.0,-1,1.0,0.263101000000006
444,31,0.5,0.0625,35.0,1,1.0,0.44010099999991326
445,31,0.5,0.125,35.0,1,1.0,0.2531010000000151
446,31,0.5,0.25,-35.0,-1,1.0,0.5331009999999878
447,31,0.5,0.0625,35.0,-1,0.0,5.189701000000241
448,31,0.5,0.25,-35.0,-1,1.0,3.8532010000001264
449,31,0.5,0.125,35.0,1,1.0,0.3165010000000166
450,31,0.5,0.0625,-35.0,1,0.0,0.3236010000000533
451,31,0.5,0.125,-35.0,-1,1.0,0.29070099999989907
452,31,0.5,0.0625,35.0,1,1.0,3.8902009999999336
453,31,0.5,0.25,-35.0,-1,1.0,0.36720100000002276
454,31,0.5,0.125,-35.0,-1,1.0,2.2608010000001286
455,31,0.5,0.0,-35.0,-1,1.0,1.4272009999999682
456,31,0.5,0.125,-35.0,-1,1.0,0.4304010000003018
457,31,0.5,1.0,35.0,-1,0.0,0.11040100000013808
458,31,0.5,0.0,-35.0,-1,1.0,0.9042010000000573
459,31,0.5,1.0,-35.0,-1,1.0,0.29080099999987397
460,31,0.5,0.0625,35.0,1,1.0,0.44740100000012717
461,31,0.5,0.25,-35.0,-1,1.0,0.33060100000034254
462,31,0.5,0.0625,-35.0,-1,1.0,1.6641010000000733
463,31,0.5,0.125,35.0,1,1.0,1.0409010000000762
464,31,0.5,0.0625,-35.0,-1,1.0,4.461201000000074
465,31,0.5,0.125,35.0,1,1.0,1.2383010000000922
466,31,0.5,1.0,35.0,1,1.0,0.3516010000000733
467,31,0.5,0.125,-35.0,-1,1.0,0.2678009999999631
468,31,0.5,0.25,-35.0,-1,1.0,0.39530100000001767
469,31,0.5,1.0,35.0,1,1.0,0.31140099999993254
470,31,0.5,1.0,-35.0,-1,1.0,0.36890100000005077
471,31,0.5,0.25,-35.0,-1,1.0,0.3916010000002643
472,31,0.5,0.0625,-35.0,-1,1.0,1.3647009999999682
473,31,0.5,0.0625,-35.0,-1,1.0,1.881601000000046
474,31,0.5,1.0,-35.0,-1,1.0,0.19570100000009916
475,31,0.5,1.0,-35.0,-1,1.0,0.41230099999984304
476,31,0.5,0.0625,35.0,1,1.0,2.5184009999998125
477,31,0.5,0.0625,35.0,-1,0.0,0.3185009999999693
478,31,0.2,0.0625,35.0,-1,0.0,5.635501000000204
479,31,0.5,1.0,35.0,1,1.0,0.4788010000002032
480,31,0.5,0.0,35.0,1,1.0,4.289400999999771
481,31,0.5,0.25,35.0,1,1.0,0.25220100000001366
482,31,0.5,0.125,-35.0,-1,1.0,0.4993010000000595
483,31,0.5,0.25,35.0,1,1.0,0.30900100000008024
484,31,0.5,1.0,-35.0,-1,1.0,0.4064009999999598
485,31,0.5,1.0,-35.0,-1,1.0,0.35940100000016173
486,31,0.5,0.0,35.0,-1,0.0,3.3795000000000073
487,31,0.5,0.25,35.0,1,1.0,0.5164010000000872
488,31,0.5,0.0625,35.0,1,1.0,0.6064010000002327
489,31,0.5,1.0,-35.0,-1,1.0,0.30280100000004495
490,31,0.5,0.125,35.0,1,1.0,0.32290100000000166
491,31,0.5,0.125,35.0,-1,0.0,0.2234009999999671
492,31,0.5,0.125,-35.0,-1,1.0,2.0935010000000602
493,31,0.5,1.0,35.0,1,1.0,0.25650100000007114
494,31,0.5,0.25,35.0,1,1.0,0.370401000000129
495,31,0.5,0.25,35.0,1,1.0,1.0699010000000726
496,31,0.5,0.125,-35.0,1,0.0,0.5138010000000577
497,31,0.5,0.0625,-35.0,-1,1.0,2.9003009999998994
498,31,0.5,1.0,35.0,1,1.0,0.39350100000001476
499,31,0.5,0.125,-35.0,1,0.0,0.483400999999958
500,31,0.7,0.125,35.0,1,1.0,0.3373010000002523
501,31,0.5,1.0,-35.0,-1,1.0,0.554100999999946
502,31,0.5,0.0625,-35.0,-1,1.0,8.260401000000002
503,31,0.5,0.0625,35.0,1,1.0,2.0871009999998478
504,31,0.5,0.125,35.0,1,1.0,0.894600999999966
505,31,0.5,0.125,-35.0,-1,1.0,1.3675009999999475
506,31,0.5,0.25,-35.0,-1,1.0,0.24410100000000057
507,31,0.5,0.125,35.0,1,1.0,0.38750100000015664
508,31,0.5,1.0,-35.0,-1,1.0,0.4114009999998416
509,31,0.5,0.0625,-35.0,1,0.0,6.97110100000009
510,31,0.5,0.25,-35.0,-1,1.0,0.4310009999999238
511,31,0.5,0.25,35.0,-1,0.0,0.12160099999982776
512,31,0.5,0.0,-35.0,-1,1.0,2.4813010000000304
513,31,0.5,0.25,35.0,1,1.0,0.43810099999996055
514,31,0.5,0.0625,35.0,1,1.0,0.3017010000000937
515,31,0.5,0.0625,35.0,1,1.0,0.5113010000000031
516,31,0.5,1.0,35.0,1,1.0,0.3681010000000242
517,31,0.5,0.25,-35.0,-1,1.0,0.37530100000003586
518,31,0.5,0.0,-35.0,1,0.0,4.271601000000146
519,31,0.5,0.125,35.0,1,1.0,0.5554010000000744
520,31,0.5,0.125,35.0,1,1.0,0.8356009999999969
521,31,0.5,0.125,-35.0,-1,1.0,2.4852010000001883
522,31,0.5,0.0,-35.0,1,0.0,1.9156010000001515
523,31,0.5,0.0625,-35.0,-1,1.0,0.28880100000014863
524,31,0.5,1.0,35.0,1,1.0,0.7619010000000799
525,31,0.5,0.0,-35.0,-1,1.0,1.5020010000000639
526,31,0.5,1.0,-35.0,-1,1.0,0.3788009999998394
527,31,0.5,0.0625,-35.0,-1,1.0,0.5895010000001548
528,31,0.5,1.0,35.0,1,1.0,0.3357009999999718
529,31,0.5,0.125,-35.0,-1,1.0,0.3457010000001901
530,31,0.5,0.25,-35.0,-1,1.0,0.459201000000121
531,31,0.5,1.0,-35.0,-1,1.0,0.31890100000009625
532,31,0.5,0.25,-35.0,-1,1.0,0.42580100000009224
533,31,0.5,0.0625,35.0,1,1.0,0.4591009999999187
534,31,0.5,0.0,-35.0,1,0.0,4.542500999999902
535,31,0.5,0.0625,35.0,1,1.0,1.4127010000001974
536,31,0.5,0.125,-35.0,-1,1.0,0.4027009999999791
537,31,0.5,1.0,-35.0,-1,1.0,0.4097009999998136
538,31,0.5,1.0,-35.0,-1,1.0,0.3463010000000395
539,31,0.5,0.0,35.0,1,1.0,0.8860010000000784
540,31,0.5,0.125,35.0,-1,0.0,0.1062010000000555
541,31,0.5,0.125,35.0,1,1.0,0.8767010000001392
542,31,0.5,0.25,35.0,1,1.0,0.3800010000002203
543,31,0.5,0.25,-35.0,-1,1.0,0.7999010000000908
544,31,0.5,0.0,35.0,1,1.0,0.4568010000000413
545,31,0.5,0.25,-35.0,-1,1.0,0.39990099999999984
546,31,0.5,1.0,-35.0,-1,1.0,0.3367009999999482
547,31,0.5,0.0625,-35.0,-1,1.0,0.3604009999999107
548,31,0.5,0.25,-35.0,-1,1.0,5.353701000000001
549,31,0.5,1.0,-35.0,-1,1.0,0.25990100000012717
550,31,0.5,1.0,-35.0,-1,1.0,0.8500010000000202
551,31,0.5,0.0,35.0,-1,0.0,12.923800999999912
552,31,0.2,0.0,35.0,1,1.0,3.410800999999992
553,31,0.5,1.0,-35.0,-1,1.0,0.4808010000001559
554,31,0.5,0.125,-35.0,-1,1.0,0.4171010000000024
555,31,0.5,1.0,-35.0,-1,1.0,0.12730099999998856
556,31,0.5,1.0,35.0,1,1.0,0.3709010000000035
557,31,0.5,0.25,35.0,1,1.0,0.44780100000025413
558,31,0.5,0.0,-35.0,1,0.0,1.9242010000000391
559,31,0.4,0.0,-35.0,1,0.0,0.61090100000024
560,31,0.5,1.0,35.0,1,1.0,0.3245010000000548
561,31,0.5,0.0625,-35.0,1,0.0,0.317801000000145
562,31,0.7,0.0625,-35.0,-1,1.0,0.35120099999994636
563,31,0.5,1.0,35.0,1,1.0,0.2948010000002341
564,31,0.5,1.0,35.0,1,1.0,0.3648009999999431
565,31,0.5,0.0625,35.0,1,1.0,0.9310009999999238
566,31,0.5,0.0625,35.0,1,1.0,3.497900999999956
567,31,0.5,0.0,-35.0,1,0.0,2.5782010000000355
568,31,0.9,0.0,-35.0,-1,1.0,2.601700999999821
569,31,0.5,1.0,-35.0,-1,1.0,0.5450009999999565
570,31,0.5,1.0,35.0,1,1.0,0.24820100000033563
571,31,0.5,1.0,-35.0,-1,1.0,0.3517010000000482
572,31,0.5,0.25,35.0,1,1.0,0.37930100000016864
573,31,0.5,0.0625,35.0,1,1.0,0.41600100000005114
574,31,0.5,1.0,-35.0,-1,1.0,0.3418010000000322
575,31,0.5,0.0625,35.0,1,1.0,0.38190099999997074
576,31,0.5,0.125,35.0,1,1.0,0.40530100000023594
577,31,0.5,0.125,-35.0,-1,1.0,0.22890099999995073
578,31,0.5,0.0,35.0,1,1.0,0.23210100000005696
579,31,0.5,0.125,35.0,1,1.0,0.5220010000000457
580,31,0.5,0.25,-35.0,-1,1.0,0.25200100000006387
581,31,0.5,1.0,35.0,1,1.0,0.3927009999999882
582,31,0.5,0.125,35.0,1,1.0,0.2556010000000697
583,31,0.5,0.0625,-35.0,-1,1.0,0.6021010000001752
584,31,0.5,0.125,35.0,-1,0.0,0.22570100000007187
585,31,0.5,0.125,35.0,1,1.0,2.2022010000002865
586,31,0.5,0.0625,-35.0,-1,1.0,0.39299999999980173
587,31,0.5,1.0,-35.0,-1,1.0,0.8759009999998852
588,31,0.5,0.125,-35.0,-1,1.0,0.34300099999995837
589,31,0.5,0.0625,35.0,1,1.0,0.029001000000107524
590,31,0.5,0.25,-35.0,-1,1.0,0.38000099999999293
591,31,0.5,0.125,-35.0,-1,1.0,0.05600100000015118
592,31,0.5,0.25,35.0,1,1.0,0.47600099999999657
593,31,0.5,0.25,-35.0,-1,1.0,0.8591010000000097
594,31,0.5,0.125,-35.0,1,0.0,0.41960100000005696
595,31,0.5,0.125,-35.0,-1,1.0,0.25
596,31,0.5,0.25,35.0,1,1.0,0.3661010000000715
597,31,0.5,0.25,-35.0,-1,1.0,0.3396010000001297
598,31,0.5,0.125,35.0,1,1.0,0.889500999999882
599,31,0.5,0.125,-35.0,-1,1.0,3.316301000000067
600,31,0.5,0.0625,35.0,1,1.0,0.5365010000000439
601,31,0.5,1.0,35.0,1,1.0,0.4267010000000937
602,31,0.5,1.0,35.0,1,1.0,0.370001000000002
603,31,0.5,0.0625,-35.0,-1,1.0,0.2741009999999733
604,31,0.5,0.0625,-35.0,-1,1.0,0.5339010000000144
605,31,0.5,0.25,35.0,1,1.0,0.41330100000004677
606,31,0.5,1.0,35.0,1,1.0,0.43410100000005514
607,31,0.5,0.125,35.0,1,1.0,0.6203010000001541
608,31,0.5,0.125,-35.0,-1,1.0,0.43710100000021157
609,31,0.5,1.0,-35.0,-1,1.0,0.3803009999999176
610,31,0.5,0.25,-35.0,-1,1.0,0.4772010000001501
611,31,0.5,0.0,35.0,1,1.0,0.70370099999991
612,31,0.5,0.25,-35.0,-1,1.0,0.2541009999999915
613,31,0.5,0.125,35.0,1,1.0,0.6136010000000169
614,31,0.5,1.0,-35.0,-1,1.0,0.38110100000017155
615,31,0.5,0.0625,-35.0,-1,1.0,0.4306010000000242
616,31,0.5,0.0,35.0,-1,0.0,0.4072009999999864
617,31,0.5,0.0625,35.0,1,1.0,0.4712010000000646
618,31,0.5,0.25,-35.0,-1,1.0,0.3941010000000915
619,31,0.5,0.0,35.0,-1,0.0,4.438000999999986
620,31,0.5,0.125,-35.0,-1,1.0,0.34090100000003076
621,31,0.5,0.25,-35.0,-1,1.0,0.7811009999998078
622,31,0.5,0.125,35.0,1,1.0,0.3944010000002436
623,31,0.5,0.125,-35.0,-1,1.0,0.4812009999998281
624,31,0.5,0.25,35.0,1,1.0,0.3642010000000937
625,31,0.5,0.125,35.0,1,1.0,0.27120099999979175
626,31,0.5,0.125,35.0,1,1.0,0.4252010000000155
627,31,0.5,0.25,-35.0,-1,1.0,0.9746009999998932
628,31,0.5,0.125,-35.0,1,0.0,0.2612010000002556
629,31,0.5,0.0,35.0,1,1.0,0.5413010000002032
630,31,0.5,1.0,-35.0,-1,1.0,0.20460099999991144
631,31,0.5,1.0,35.0,1,1.0,0.29220100000020466
632,31,0.5,1.0,35.0,1,1.0,0.34530100000006314
633,31,0.5,0.0625,-35.0,-1,1.0,0.625201000000061
634,31,0.5,0.125,35.0,1,1.0,0.4750010000000202
635,31,0.5,0.0625,35.0,1,1.0,0.17180099999995946
636,31,0.5,0.25,35.0,1,1.0,0.3785010000001421
637,31,0.5,0.0625,35.0,1,1.0,0.48840100000006714
638,31,0.5,0.25,35.0,1,1.0,0.3118010000000595
639,31,0.5,0.0,-35.0,1,0.0,0.48160100000018247
640,31,0.5,0.25,35.0,1,1.0,0.4322010000003047
641,31,0.5,0.0625,-35.0,-1,1.0,3.755301000000145
642,31,0.5,0.125,-35.0,-1,1.0,0.38530100000002676
643,31,0.5,1.0,35.0,1,1.0,0.35890100000005987
644,31,0.5,1.0,-35.0,-1,1.0,0.5189009999999143
645,31,0.5,0.0625,35.0,1,1.0,0.2393010000000686
646,31,0.5,0.0,35.0,1,1.0,0.5363009999998667
647,31,0.5,0.125,35.0,1,1.0,0.23240099999998165
648,31,0.5,0.125,35.0,1,1.0,0.38930000000027576
649,31,0.5,0.0,35.0,1,1.0,1.0192010000000664
650,31,0.5,0.0625,35.0,1,1.0,5.05900100000008
651,31,0.5,0.25,35.0,1,1.0,0.31930099999999584
652,31,0.5,1.0,35.0,1,1.0,0.3393010000004324
653,31,0.5,0.125,35.0,1,1.0,3.863300999999865
654,31,0.5,0.25,-35.0,-1,1.0,0.6263010000002396
655,31,0.5,1.0,-35.0,-1,1.0,0.14630099999976665
656,31,0.5,1.0,-35.0,-1,1.0,0.2694010000000162
657,31,0.5,1.0,35.0,1,1.0,0.6863009999997303
658,31,0.5,0.25,35.0,1,1.0,0.4496009999998023
659,31,0.5,0.125,-35.0,-1,1.0,0.5699009999998452
660,31,0.5,0.25,35.0,1,1.0,0.41330100000004677
661,31,0.5,1.0,35.0,1,1.0,0.5169009999999616
662,31,0.5,0.125,-35.0,-1,1.0,1.5804010000001654
663,31,0.5,0.0625,35.0,-1,0.0,3.506601000000046
664,31,0.5,0.125,35.0,1,1.0,1.4304010000000744
665,31,0.5,0.125,-35.0,-1,1.0,1.5604010000001836
666,31,0.5,0.125,-35.0,-1,1.0,0.6004010000001472
667,31,0.5,0.0,-35.0,-1,1.0,7.173800999999912
668,31,0.5,0.0,35.0,-1,0.0,1.4073010000001887
669,31,0.3,0.0,35.0,-1,0.0,3.750800999999683
670,31,0.5,1.0,35.0,1,1.0,0.33750099999997474
671,31,0.5,0.0625,35.0,-1,0.0,4.831101000000217
672,31,0.5,0.0625,35.0,-1,0.0,12.008501000000251
673,31,0.5,0.125,35.0,-1,0.0,5.468301000000338
674,31,0.5,0.0625,35.0,-1,0.0,4.968500999999833
675,31,0.5,0.25,-35.0,-1,1.0,0.7920009999998001
676,31,0.5,0.0,-35.0,-1,1.0,0.5755009999998038
677,31,0.5,0.25,-35.0,-1,1.0,0.7055009999999129
678,31,0.5,0.0625,-35.0,-1,1.0,0.22170099999993909
679,31,0.5,0.125,-35.0,-1,1.0,0.33830100000022867
680,31,0.5,1.0,-35.0,-1,1.0,0.3186009999999442
681,31,0.5,0.25,-35.0,-1,1.0,0.052300999999715714
682,31,0.5,1.0,-35.0,-1,1.0,0.39210099999991144
683,31,0.5,0.25,-35.0,-1,1.0,0.3690009999995709
684,31,0.5,0.0,35.0,-1,0.0,6.058701000000383
685,31,0.5,0.0625,-35.0,-1,1.0,0.25260100000014063
686,31,0.5,1.0,35.0,1,1.0,0.5456009999998059
687,31,0.5,0.0,35.0,-1,0.0,0.7693010000002687
688,31,0.1,0.0,35.0,-1,0.0,0.30260100000032253
689,31,0.5,1.0,35.0,1,1.0,0.2296010000000024
690,31,0.5,0.125,35.0,1,1.0,0.2792010000002847
691,31,0.5,0.25,35.0,1,1.0,0.472501000000193
692,31,0.5,0.25,-35.0,-1,1.0,0.4062010000002374
693,31,0.5,0.125,-35.0,-1,1.0,0.40930100000014136
694,31,0.5,0.125,35.0,1,1.0,0.37630099999978484
695,31,0.5,0.0625,35.0,1,1.0,0.5526010000003225
696,31,0.5,0.0,35.0,1,1.0,0.6966010000001006
697,31,0.5,0.0625,-35.0,-1,1.0,0.34940099999994345
698,31,0.5,0.25,-35.0,-1,1.0,0.24280099999987215
699,31,0.5,0.125,-35.0,-1,1.0,0.3327009999998154
700,31,0.5,0.0,-35.0,1,0.0,0.5161010000001625
701,31,0.5,0.0,35.0,-1,0.0,1.9428009999996902
702,31,0.5,1.0,-35.0,-1,1.0,0.2266010000003007
703,31,0.5,1.0,-35.0,-1,1.0,0.3763010000002396
704,31,0.5,0.125,35.0,1,1.0,0.19640100000015082
705,31,0.5,0.125,35.0,1,1.0,0.4835009999997055
706,31,0.5,1.0,-35.0,-1,1.0,0.3799010000002454
707,31,0.5,0.25,35.0,1,1.0,0.2606010000004062
708,31,0.5,0.125,-35.0,-1,1.0,0.37370099999998274
709,31,0.5,0.125,-35.0,-1,1.0,0.3833009999998467
710,31,0.5,0.25,-35.0,-1,1.0,0.7933010000001559
711,31,0.5,1.0,-35.0,-1,1.0,0.0836010000002716
712,31,0.5,0.0,35.0,1,1.0,3.987000999999964
713,31,0.5,0.0625,35.0,1,1.0,2.8836009999999987
714,31,0.5,0.25,35.0,1,1.0,3.1137009999997645
715,31,0.5,0.25,35.0,-1,0.0,0.1470009999998183
716,31,0.5,0.0,-35.0,1,0.0,1.1677010000003065
717,31,0.5,0.0,35.0,1,1.0,0.5873010000000249
718,31,0.5,1.0,-35.0,-1,1.0,0.3710009999999784
719,31,0.5,0.0625,-35.0,-1,1.0,0.30800100000033126
720,31,0.5,1.0,35.0,1,1.0,0.4809010000003582
721,31,0.5,1.0,-35.0,-1,1.0,0.41090100000019447
722,31,0.5,1.0,35.0,1,1.0,0.27770100000043385
723,31,0.5,1.0,35.0,1,1.0,0.5014009999999871
724,31,0.5,0.25,35.0,1,1.0,0.5448010000000068
725,31,0.5,0.25,-35.0,-1,1.0,0.24120100000027378
726,31,0.5,1.0,35.0,1,1.0,0.3380010000000766
727,31,0.5,0.125,-35.0,-1,1.0,0.6811010000005808
728,31,0.5,0.0,35.0,-1,0.0,8.83500099999992
729,31,0.5,0.0,35.0,-1,0.0,8.432001000000128
730,31,0.5,0.0,-35.0,-1,1.0,6.86520100000007
731,31,0.5,0.25,-35.0,-1,1.0,2.8823010000005524
732,31,0.5,1.0,35.0,1,1.0,1.6718009999995047
733,31,0.5,0.125,35.0,1,1.0,1.0989009999998416
734,31,0.5,0.0625,-35.0,1,0.0,2.022001000000273
735,31,0.5,0.0625,35.0,-1,0.0,5.512901000000511
736,31,0.5,0.0,35.0,-1,0.0,9.049601000000166
737,31,0.5,0.25,35.0,1,1.0,0.3823010000000977
738,31,0.5,0.0625,35.0,-1,0.0,0.569101000000046
739,31,0.4,0.0625,35.0,1,1.0,0.6064010000000053
740,31,0.5,1.0,-35.0,-1,1.0,0.4029009999999289
741,31,0.5,0.25,-35.0,-1,1.0,2.9229010000003655
742,31,0.5,0.0,-35.0,-1,1.0,4.1195010000001275
743,31,0.5,0.0,35.0,-1,0.0,1.9698020000000724
744,31,0.5,0.25,-35.0,-1,1.0,0.6030020000002878
745,31,0.5,0.0625,-35.0,-1,1.0,0.8733019999999669
746,31,0.5,1.0,-35.0,-1,1.0,0.3665019999998549
747,31,0.5,0.0625,-35.0,-1,1.0,9.497002000000066
748,31,0.5,0.25,-35.0,-1,1.0,0.390002000000095
749,31,0.5,0.125,-35.0,-1,1.0,0.32330199999978504
750,31,0.5,0.25,-35.0,-1,1.0,0.04340200000024197
751,31,0.5,0.25,-35.0,-1,1.0,0.3272019999999429
752,31,0.5,0.25,-35.0,-1,1.0,4.26710200000025
753,31,0.5,0.0,-35.0,-1,1.0,0.19360199999982797
754,31,0.5,1.0,-35.0,-1,1.0,0.35380099999974846
755,31,0.5,0.0,35.0,-1,0.0,1.0670019999997749
756,31,0.5,0.25,-35.0,-1,1.0,5.237601999999697
757,31,0.5,0.0625,-35.0,-1,1.0,1.0242020000000593
758,31,0.5,0.25,35.0,1,1.0,2.164001999999982
759,31,0.5,0.125,-35.0,-1,1.0,1.0611019999996643
760,31,0.5,0.0625,35.0,1,1.0,0.34750200000053155
761,31,0.5,0.0,-35.0,-1,1.0,0.9643020000003162
762,31,0.5,0.0625,35.0,-1,0.0,4.231102000000192
763,31,0.5,0.0625,35.0,-1,0.0,11.354301999999734
764,31,0.5,0.125,-35.0,-1,1.0,0.20130199999994147
765,31,0.5,0.25,-35.0,-1,1.0,1.1951020000001336
766,31,0.5,0.0625,35.0,-1,0.0,3.852501999999731
767,31,0.5,0.25,35.0,1,1.0,4.64210200000025
768,31,0.5,0.125,35.0,1,1.0,0.5619019999999182
769,31,0.5,0.25,35.0,1,1.0,5.28850199999988
770,31,0.5,1.0,35.0,1,1.0,2.2058019999999487
771,31,0.5,1.0,-35.0,-1,1.0,2.762702000000445
772,31,0.5,0.125,35.0,-1,0.0,0.8489020000001801
773,31,0.5,0.25,-35.0,-1,1.0,9.455502000000251
774,31,0.5,1.0,-35.0,-1,1.0,1.6862019999998665
775,31,0.5,0.0625,-35.0,-1,1.0,4.882802000000538
776,31,0.5,1.0,35.0,-1,0.0,0.7532010000004448
777,31,0.5,0.0625,35.0,-1,0.0,7.139501999999993
778,31,0.5,0.25,-35.0,-1,1.0,1.8430020000000695
779,31,0.5,0.0,-35.0,-1,1.0,5.999801000000389
780,31,0.5,0.125,-35.0,-1,1.0,1.6373020000000906
781,31,0.5,0.25,-35.0,-1,1.0,2.7066020000002027
782,31,0.5,0.0,-35.0,-1,1.0,9.263601999999992
783,31,0.5,0.25,-35.0,-1,1.0,0.613702000000103
784,31,0.5,0.25,-35.0,-1,1.0,1.3537019999998847
785,31,0.5,0.125,-35.0,-1,1.0,1.3573019999998905
786,31,0.5,0.125,35.0,-1,0.0,3.1104020000002492
787,31,0.5,0.0625,-35.0,-1,1.0,8.720902000000024
788,31,0.5,1.0,35.0,1,1.0,1.080902000000151
789,31,0.5,0.25,35.0,1,1.0,1.714401999999609
790,31,0.5,0.125,35.0,1,1.0,13.208201999999801
791,31,0.5,1.0,-35.0,-1,1.0,0.4746020000002318
792,31,0.5,0.0,-35.0,-1,1.0,24.99450200000001
793,31,0.5,0.125,35.0,1,1.0,2.2523019999998724
794,31,0.5,0.125,35.0,1,1.0,0.46540200000026744
795,31,0.5,0.25,-35.0,-1,1.0,1.1562019999996664
796,31,0.5,0.25,-35.0,-1,1.0,1.7494019999999182
797,31,0.5,0.0625,35.0,1,1.0,2.705601999999999
798,31,0.5,0.25,35.0,1,1.0,0.42580199999974866
799,31,0.5,0.0,35.0,-1,0.0,1.2925020000002405
800,31,0.5,0.25,35.0,1,1.0,5.0357020000001285
801,31,0.5,1.0,35.0,1,1.0,9.179501999999957
802,31,0.5,0.125,35.0,1,1.0,1.7365020000002005
803,31,0.5,0.25,35.0,-1,0.0,9.326301999999941
804,31,0.6,0.25,-35.0,-1,1.0,4.7836019999999735
805,31,0.5,1.0,35.0,1,1.0,0.4568020000001525
806,31,0.5,0.0625,35.0,1,1.0,1.663202000000183
807,31,0.5,1.0,35.0,1,1.0,0.6302019999998265
808,31,0.5,0.25,35.0,-1,0.0,4.503601999999773
809,31,0.5,0.25,-35.0,-1,1.0,6.363601999999901
810,31,0.5,1.0,-35.0,-1,1.0,0.3706019999999626
811,31,0.5,0.25,-35.0,-1,1.0,0.4011020000002645
812,31,0.5,0.125,35.0,1,1.0,9.130601999999726
813,31,0.5,0.0625,-35.0,-1,1.0,0.9142020000003868
814,31,0.5,0.25,-35.0,-1,1.0,0.33080199999994875
815,31,0.5,0.0,35.0,-1,0.0,5.6140019999998
816,31,0.3,0.0,35.0,-1,0.0,2.0815020000000004
817,31,0.5,1.0,-35.0,-1,1.0,0.23780200000010154
818,31,0.5,0.125,35.0,-1,0.0,4.971002000000226
819,31,0.5,0.0625,-35.0,-1,1.0,1.731901999999991
820,31,0.5,0.0625,35.0,-1,0.0,0.3615010000003167
821,31,0.5,0.25,35.0,-1,0.0,1.758201999999983
822,31,0.5,0.125,35.0,-1,0.0,1.738601000000017
823,31,0.5,0.125,-35.0,-1,1.0,36.054901999999856
824,31,0.5,0.0,35.0,-1,0.0,11.455501999999797
825,31,0.5,0.0625,-35.0,-1,1.0,1.1558019999997668
826,31,0.5,0.0625,35.0,-1,0.0,4.965801999999712
827,31,0.5,0.0625,35.0,-1,0.0,3.4328019999998105
828,31,0.5,0.0625,-35.0,-1,1.0,8.38620200000014
829,31,0.5,0.25,-35.0,-1,1.0,0.28300199999966935
830,31,0.5,0.0625,-35.0,-1,1.0,0.7674019999999473
831,31,0.5,0.25,-35.0,-1,1.0,0.8068020000000615
832,31,0.5,0.0625,-35.0,-1,1.0,3.873602000000119
833,31,0.5,0.0,35.0,-1,0.0,5.106702000000041
834,31,0.5,0.125,35.0,-1,0.0,12.320901999999933
835,31,0.0,0.125,35.0,1,1.0,6.594002000000273
836,31,0.5,1.0,35.0,1,1.0,0.19100100000014208
837,31,0.5,0.0625,-35.0,-1,1.0,2.350902000000133
838,31,0.5,0.0625,-35.0,-1,1.0,20.89420199999995
839,31,0.5,0.125,-35.0,-1,1.0,0.37130200000001423
840,31,0.5,1.0,-35.0,-1,1.0,0.40100200000006225
841,31,0.5,0.125,-35.0,-1,1.0,1.7251020000003336
842,31,0.5,1.0,-35.0,-1,1.0,6.181302000000414
843,31,0.5,0.125,-35.0,-1,1.0,1.2487019999998665
844,31,0.5,0.125,-35.0,-1,1.0,2.7756020000006174
845,31,0.5,0.125,-35.0,-1,1.0,3.355101999999988
846,31,0.5,1.0,35.0,1,1.0,0.37180199999966135
847,31,0.5,0.125,-35.0,1,0.0,4.322102000000086
848,31,0.5,0.0625,-35.0,-1,1.0,0.27250199999980396
849,31,0.5,0.25,-35.0,-1,1.0,2.759102000000439
850,31,0.5,0.125,35.0,1,1.0,1.3023019999995995
851,31,0.5,1.0,35.0,1,1.0,1.1592019999998229
852,31,0.5,1.0,-35.0,-1,1.0,0.48910200000045734
853,31,0.5,0.25,35.0,1,1.0,5.122201999999561
854,31,0.5,0.25,-35.0,-1,1.0,6.649101999999857
855,31,0.5,0.125,-35.0,-1,1.0,8.616602000000512
856,31,0.5,0.125,35.0,-1,0.0,0.589401999999609
857,31,0.5,0.125,35.0,1,1.0,8.589801999999963
858,31,0.5,0.0625,35.0,-1,0.0,10.013402000000042
1,32,0.5,1.0,35.0,1,1.0,0.2298
2,32,0.5,0.125,-35.0,-1,1.0,0.22840000000000016
3,32,0.5,0.0625,35.0,-1,0.0,2.7066
4,32,0.5,0.0,-35.0,1,0.0,3.781600000000001
5,32,0.5,0.0625,35.0,1,1.0,0.26000000000000156
6,32,0.5,0.125,-35.0,-1,1.0,0.27169999999999916
7,32,0.5,0.25,35.0,1,1.0,0.45110000000000383
8,32,0.5,0.125,-35.0,-1,1.0,2.240099999999998
9,32,0.5,0.0,35.0,-1,0.0,2.3370000000000033
10,32,0.5,0.125,35.0,1,1.0,0.1957000000000022
11,32,0.5,0.0,35.0,-1,0.0,2.009600000000006
12,32,0.4,0.0,35.0,-1,0.0,1.9048999999999978
13,32,0.5,1.0,35.0,1,1.0,0.04560000000000031
14,32,0.5,0.0625,-35.0,-1,1.0,0.6865000000000023
15,32,0.5,0.0,35.0,-1,0.0,2.2038999999999973
16,32,0.5,0.0625,35.0,1,1.0,0.30299999999999727
17,32,0.5,1.0,35.0,1,1.0,0.4435000000000002
18,32,0.5,0.25,35.0,1,1.0,0.46290000000000475
19,32,0.5,1.0,35.0,1,1.0,0.38179999999998415
20,32,0.5,0.25,35.0,1,1.0,0.46469999999999345
21,32,0.5,0.0,35.0,-1,0.0,2.5642999999999745
22,32,0.5,0.125,-35.0,1,0.0,0.22040000000001214
23,32,0.5,0.0,-35.0,1,0.0,0.3323000000000036
24,32,0.5,0.125,-35.0,-1,1.0,1.41279999999999
25,32,0.5,1.0,35.0,1,1.0,0.24810000000000798
26,32,0.5,0.125,35.0,1,1.0,0.4554000000000116
27,32,0.5,1.0,35.0,1,1.0,0.43180000000000973
28,32,0.5,0.125,-35.0,1,0.0,2.268500000000003
29,32,0.5,0.25,-35.0,-1,1.0,0.8746000000000009
30,32,0.5,0.125,-35.0,-1,1.0,0.4714999999999918
31,32,0.5,0.0625,35.0,-1,0.0,2.5925999999999902
32,32,0.6,0.0625,35.0,-1,0.0,0.30700000000001637
33,32,0.5,1.0,-35.0,-1,1.0,0.5474999999999994
34,32,0.5,0.0625,-35.0,-1,1.0,3.1561000000000377
35,32,0.5,0.25,-35.0,-1,1.0,0.3797000000000139
36,32,0.5,0.0625,-35.0,-1,1.0,0.488900000000001
37,32,0.5,0.0625,35.0,-1,0.0,0.4274000000000058
38,32,0.5,0.0625,35.0,-1,0.0,0.3329999999999984
39,32,0.0,0.0625,35.0,-1,0.0,0.3225999999999942
40,32,0.5,1.0,35.0,1,1.0,0.41159999999999286
41,32,0.5,0.0625,35.0,1,1.0,0.5614000000000203
42,32,0.5,0.125,-35.0,-1,1.0,0.6085999999999956
43,32,0.5,0.0,35.0,1,1.0,0.40910000000002356
44,32,0.5,0.25,-35.0,-1,1.0,0.5619000000000085
45,32,0.5,0.25,-35.0,-1,1.0,0.22870000000000346
46,32,0.5,0.0625,35.0,1,1.0,0.5425999999999931
47,32,0.5,0.25,35.0,1,1.0,0.4626000000000374
48,32,0.5,1.0,-35.0,-1,1.0,0.10859999999999559
49,32,0.5,1.0,-35.0,-1,1.0,0.337600000000009
50,32,0.5,0.0625,35.0,-1,0.0,0.12880000000001246
51,32,0.5,0.25,35.0,1,1.0,0.2446000000000197
52,32,0.5,0.125,-35.0,-1,1.0,0.5662000000000091
53,32,0.5,0.125,-35.0,-1,1.0,1.0903000000000134
54,32,0.5,0.25,35.0,1,1.0,0.6418000000000177
55,32,0.5,0.125,-35.0,-1,1.0,0.4218000000000188
56,32,0.5,0.0625,-35.0,-1,1.0,0.27590000000000714
57,32,0.5,0.0,-35.0,1,0.0,0.22639999999998395
58,32,0.3,0.0,35.0,1,1.0,0.20760000000001355
59,32,0.5,1.0,-35.0,-1,1.0,0.4893000000000143
60,32,0.5,1.0,35.0,1,1.0,0.452699999999993
61,32,0.5,1.0,35.0,1,1.0,0.4215000000000373
62,32,0.5,1.0,-35.0,-1,1.0,0.45830000000000837
63,32,0.5,0.25,-35.0,-1,1.0,0.5937000000000126
64,32,0.5,0.25,-35.0,-1,1.0,0.6479000000000212
65,32,0.5,1.0,35.0,1,1.0,0.6577000000000055
66,32,0.5,0.0625,-35.0,-1,1.0,0.5160999999999945
67,32,0.5,1.0,35.0,1,1.0,0.3990000000000009
68,32,0.5,1.0,35.0,1,1.0,0.466700000000003
69,32,0.5,0.125,35.0,1,1.0,0.4624000000000308
70,32,0.5,0.25,35.0,1,1.0,0.41970000000000596
71,32,0.5,0.125,35.0,1,1.0,0.5069000000000017
72,32,0.5,0.125,35.0,1,1.0,0.3516999999999939
73,32,0.5,0.125,-35.0,-1,1.0,1.1947000000000116
74,32,0.5,1.0,-35.0,-1,1.0,0.6057999999999879
75,32,0.5,0.125,-35.0,-1,1.0,1.5176999999999907
76,32,0.5,0.0625,-35.0,-1,1.0,0.9198000000000093
77,32,0.5,1.0,35.0,1,1.0,0.4187000000000012
78,32,0.5,0.125,-35.0,-1,1.0,0.5476999999999919
79,32,0.5,0.0625,35.0,1,1.0,0.6349999999999909
80,32,0.5,0.125,-35.0,-1,1.0,0.49620000000001596
81,32,0.5,0.0625,35.0,1,1.0,0.3978999999999928
82,32,0.5,0.25,35.0,1,1.0,0.5351000000000568
83,32,0.5,0.125,35.0,1,1.0,1.3321000000000254
84,32,0.5,0.0,-35.0,-1,1.0,0.10430000000002337
85,32,0.5,0.25,35.0,1,1.0,0.4719000000000051
86,32,0.5,0.25,35.0,1,1.0,0.43600000000003547
87,32,0.5,1.0,35.0,1,1.0,0.5914000000000215
88,32,0.5,0.25,35.0,1,1.0,0.4397999999999911
89,32,0.5,0.0,35.0,-1,0.0,0.5674999999999955
90,32,0.5,0.125,-35.0,-1,1.0,0.6269000000000347
91,32,0.5,0.0625,-35.0,-1,1.0,2.825900000000047
92,32,0.5,0.0625,-35.0,-1,1.0,2.2538000000000125
93,32,0.5,1.0,35.0,1,1.0,0.5578000000000429
94,32,0.5,0.25,35.0,1,1.0,0.411200000000008
95,32,0.5,0.125,35.0,1,1.0,0.4188000000000329
96,32,0.5,1.0,-35.0,-1,1.0,0.5871999999999389
97,32,0.5,0.0,35.0,1,1.0,0.5189000000000306
98,32,0.5,0.0625,-35.0,1,0.0,0.40210000000001855
99,32,0.5,0.0625,-35.0,-1,1.0,0.7701000000000136
100,32,0.5,0.0,-35.0,-1,1.0,0.6192000000000348
101,32,0.5,0.0625,35.0,-1,0.0,0.24320000000005848
102,32,0.5,0.125,-35.0,-1,1.0,0.29309999999998126
103,32,0.5,0.125,-35.0,-1,1.0,0.6009000000000242
104,32,0.5,0.25,35.0,1,1.0,0.4474999999999909
105,32,0.5,0.25,-35.0,-1,1.0,0.4019000000000119
106,32,0.5,0.0,-35.0,-1,1.0,0.323599999999999
107,32,0.5,0.25,35.0,1,1.0,0.4089000000000169
108,32,0.5,1.0,-35.0,-1,1.0,0.1973000000000411
109,32,0.5,0.25,-35.0,-1,1.0,0.41409999999996217
110,32,0.5,0.0,-35.0,-1,1.0,2.6940999999999917
111,32,0.5,0.125,-35.0,-1,1.0,0.4158999999999651
112,32,0.5,0.25,-35.0,-1,1.0,0.3953000000000202
113,32,0.5,0.125,-35.0,-1,1.0,0.47529999999994743
114,32,0.5,0.0625,-35.0,-1,1.0,0.25790000000000646
115,32,0.5,0.0625,35.0,-1,0.0,0.35419999999999163
116,32,0.5,0.125,-35.0,-1,1.0,0.22279900000000907
117,32,0.5,0.0625,35.0,1,1.0,0.467899999999986
118,32,0.5,0.25,35.0,1,1.0,0.45530000000002246
119,32,0.5,1.0,-35.0,-1,1.0,0.6449999999999818
120,32,0.5,0.25,35.0,1,1.0,0.59699999999998
121,32,0.5,0.0,-35.0,-1,1.0,3.812400000000025
122,32,0.5,0.125,-35.0,-1,1.0,0.36279999999993606
123,32,0.5,0.0625,35.0,1,1.0,0.547999999999945
124,32,0.5,0.25,-35.0,-1,1.0,0.5011000000000081
125,32,0.5,0.25,-35.0,-1,1.0,0.5072999999999865
126,32,0.5,0.25,35.0,1,1.0,0.27800000000002
127,32,0.5,0.25,35.0,1,1.0,0.8083999999999492
128,32,0.5,0.25,35.0,1,1.0,0.372099999999989
129,32,0.5,1.0,-35.0,-1,1.0,0.5720999999999776
130,32,0.5,0.0625,-35.0,-1,1.0,0.9438999999999851
131,32,0.5,0.125,-35.0,-1,1.0,0.42060000000003583
132,32,0.5,0.25,-35.0,-1,1.0,0.3705999999999676
133,32,0.5,1.0,-35.0,-1,1.0,0.35410000000001673
134,32,0.5,0.0625,-35.0,-1,1.0,0.20499999999998408
135,32,0.5,0.125,35.0,-1,0.0,0.144299999999987
136,32,0.5,0.125,35.0,1,1.0,0.48140000000006467
137,32,0.5,0.125,35.0,1,1.0,0.444500000000005
138,32,0.5,1.0,-35.0,-1,1.0,0.4565000000000623
139,32,0.5,0.25,-35.0,-1,1.0,0.32040000000000646
140,32,0.5,1.0,35.0,1,1.0,0.4259999999999877
141,32,0.5,1.0,-35.0,-1,1.0,0.10700000000002774
142,32,0.5,0.0625,-35.0,-1,1.0,0.49509999999997945
143,32,0.5,0.25,-35.0,-1,1.0,0.26259999999996353
144,32,0.5,0.125,35.0,1,1.0,0.4819999999999709
145,32,0.5,0.0625,35.0,-1,0.0,1.3143000000000598
146,32,0.5,0.25,-35.0,-1,1.0,0.32430000000005066
147,32,0.5,1.0,35.0,1,1.0,0.38510000000002265
148,32,0.5,0.0625,35.0,1,1.0,0.400100000000009
149,32,0.5,0.25,-35.0,-1,1.0,0.5287999999999897
150,32,0.5,0.25,35.0,1,1.0,0.4560999999999922
151,32,0.5,0.125,35.0,1,1.0,0.5751000000000204
152,32,0.5,0.125,-35.0,-1,1.0,0.5591000000000577
153,32,0.5,1.0,-35.0,-1,1.0,0.478300000000047
154,32,0.5,0.25,-35.0,-1,1.0,0.3564000000000078
155,32,0.5,0.0,-35.0,-1,1.0,0.4578000000000202
156,32,0.5,0.125,-35.0,-1,1.0,0.2777999999999565
157,32,0.5,0.25,35.0,1,1.0,0.4574999999999818
158,32,0.5,0.0,35.0,-1,0.0,0.7676000000000158
159,32,0.5,0.125,-35.0,-1,1.0,0.2980999999999767
160,32,0.5,0.125,35.0,1,1.0,0.470799999999997
161,32,0.5,0.0625,35.0,1,1.0,0.41250000000002274
162,32,0.5,0.125,-35.0,-1,1.0,0.6621000000000095
163,32,0.5,0.125,35.0,1,1.0,0.30340000000001055
164,32,0.5,0.125,-35.0,-1,1.0,0.5263000000000488
165,32,0.5,0.125,35.0,1,1.0,0.8940999999999804
166,32,0.5,0.125,-35.0,-1,1.0,0.45390000000003283
167,32,0.5,0.125,35.0,1,1.0,0.3639999999999759
168,32,0.5,0.0625,35.0,-1,0.0,0.3062999999999647
169,32,0.5,0.0625,35.0,1,1.0,0.275100000000009
170,32,0.5,1.0,35.0,1,1.0,0.41329999999999245
171,32,0.5,0.125,35.0,1,1.0,0.42650000000003274
172,32,0.5,1.0,35.0,1,1.0,0.34509900000006155
173,32,0.5,1.0,35.0,1,1.0,0.426900000000046
174,32,0.5,0.125,35.0,1,1.0,0.44669999999996435
175,32,0.5,0.25,-35.0,-1,1.0,0.4251000000000431
176,32,0.5,0.125,35.0,1,1.0,0.40660000000002583
177,32,0.5,1.0,35.0,1,1.0,0.45029999999997017
178,32,0.5,0.0625,35.0,1,1.0,0.5421999999999798
179,32,0.5,0.25,35.0,1,1.0,1.0278000000000702
180,32,0.5,0.125,-35.0,-1,1.0,0.4551999999999907
181,32,0.5,0.0,35.0,-1,0.0,0.5321989999999914
182,32,0.5,0.25,-35.0,1,0.0,0.17019999999990887
183,32,0.5,0.25,35.0,1,1.0,0.17830000000003565
184,32,0.5,0.125,35.0,1,1.0,0.4296999999999116
185,32,0.5,0.25,35.0,1,1.0,0.4074999999999136
186,32,0.5,0.125,35.0,1,1.0,0.3977999999999611
187,32,0.5,0.0625,35.0,1,1.0,0.40429999999992106
188,32,0.5,1.0,-35.0,-1,1.0,0.497600000000034
189,32,0.5,0.125,-35.0,-1,1.0,0.49300000000005184
190,32,0.5,0.25,35.0,1,1.0,0.35820000000001073
191,32,0.5,1.0,35.0,1,1.0,0.31769999999994525
192,32,0.5,1.0,35.0,1,1.0,0.4114000000000715
193,32,0.5,1.0,35.0,1,1.0,0.30389900000000125
194,32,0.5,1.0,-35.0,1,0.0,0.14059999999994943
195,32,0.5,0.25,35.0,1,1.0,0.42629999999996926
196,32,0.5,0.125,-35.0,-1,1.0,0.26070000000004256
197,32,0.5,0.25,35.0,1,1.0,0.3813999999999851
198,32,0.5,0.0,35.0,-1,0.0,3.922300000000064
199,32,0.5,0.125,-35.0,-1,1.0,0.22529899999994996
200,32,0.5,0.0625,-35.0,-1,1.0,3.997400000000084
201,32,0.5,0.25,35.0,1,1.0,0.3783000000000811
202,32,0.5,1.0,35.0,1,1.0,0.45489999999995234
203,32,0.5,0.125,35.0,1,1.0,0.332300000000032
204,32,0.5,0.25,-35.0,-1,1.0,0.5102999999999156
205,32,0.5,1.0,-35.0,-1,1.0,0.4612000000000762
206,32,0.5,0.0625,35.0,1,1.0,1.547399999999925
207,32,0.5,0.0,-35.0,1,0.0,4.551600000000008
208,32,0.5,0.25,35.0,1,1.0,0.15899999999999181
209,32,0.5,0.0625,-35.0,1,0.0,0.25499999999999545
210,32,0.5,0.125,35.0,1,1.0,0.4007000000000289
211,32,0.5,0.0,-35.0,1,0.0,0.4313999999999396
212,32,0.5,0.25,35.0,1,1.0,0.3523999999999887
213,32,0.5,0.0625,-35.0,-1,1.0,0.6434000000000424
214,32,0.5,0.25,-35.0,-1,1.0,0.5119000000000824
215,32,0.5,0.25,-35.0,-1,1.0,0.835599000000002
216,32,0.5,0.0625,-35.0,-1,1.0,0.4536000000000513
217,32,0.5,0.125,35.0,1,1.0,0.45289900000011585
218,32,0.5,0.0625,35.0,1,1.0,0.3966000000000349
219,32,0.5,0.0625,-35.0,-1,1.0,0.4734000000000833
220,32,0.5,0.0,-35.0,1,0.0,0.3568000000000211
221,32,0.5,0.25,-35.0,-1,1.0,0.0925000000000864
222,32,0.5,0.25,35.0,1,1.0,0.36990000000002965
223,32,0.5,0.125,35.0,1,1.0,0.38440000000002783
224,32,0.5,0.25,35.0,1,1.0,0.3483999999999696
225,32,0.5,0.125,-35.0,1,0.0,2.1703999999999724
226,32,0.7,0.125,-35.0,-1,1.0,0.30740000000002965
227,32,0.5,1.0,35.0,1,1.0,0.1632999999999356
228,32,0.5,0.25,35.0,1,1.0,0.20590000000004238
229,32,0.5,1.0,-35.0,-1,1.0,0.20639999999991687
230,32,0.5,0.125,-35.0,-1,1.0,0.2579000000000633
231,32,0.5,0.125,-35.0,-1,1.0,0.24440000000004147
232,32,0.5,0.0625,-35.0,-1,1.0,0.25670000000002346
233,32,0.5,0.25,-35.0,-1,1.0,0.18809999999996307
234,32,0.5,0.0625,-35.0,-1,1.0,0.18450000000007094
235,32,0.5,0.125,-35.0,-1,1.0,0.4677999999998974
236,32,0.5,0.0625,35.0,-1,0.0,0.31550000000004275
237,32,0.5,0.0625,-35.0,1,0.0,0.4794000000000551
238,32,0.2,0.0625,35.0,1,1.0,0.3064000000000533
239,32,0.5,1.0,35.0,1,1.0,0.0543999999999869
240,32,0.5,0.25,35.0,1,1.0,0.19480000000010023
241,32,0.5,1.0,35.0,1,1.0,0.20060000000000855
242,32,0.5,1.0,35.0,1,1.0,0.20929999999998472
243,32,0.5,0.125,-35.0,-1,1.0,0.2175000000000864
244,32,0.5,1.0,-35.0,-1,1.0,0.2037000000000262
245,32,0.5,0.0,35.0,1,1.0,0.3301000000000158
246,32,0.5,0.0625,-35.0,1,0.0,0.29920000000004165
247,32,0.5,0.125,-35.0,-1,1.0,0.20289999999999964
248,32,0.5,0.0,-35.0,-1,1.0,3.064899999999966
249,32,0.5,0.125,-35.0,-1,1.0,0.5301000000000613
250,32,0.5,0.25,35.0,1,1.0,0.3836000000000013
251,32,0.5,0.25,-35.0,-1,1.0,0.4318999999999278
252,32,0.5,0.0625,-35.0,-1,1.0,0.35360000000002856
253,32,0.5,1.0,35.0,1,1.0,0.49509999999997945
254,32,0.5,0.125,35.0,1,1.0,0.3744000000000369
255,32,0.5,0.125,35.0,1,1.0,0.8849999999999909
256,32,0.5,1.0,-35.0,-1,1.0,0.5339999999999918
257,32,0.5,0.0,35.0,-1,0.0,5.161899999999946
258,32,0.5,0.125,35.0,-1,0.0,5.569599999999923
259,32,0.5,0.0625,-35.0,1,0.0,0.1932000000000471
260,32,0.5,0.0,35.0,1,1.0,0.2621000000000322
261,32,0.5,0.125,-35.0,-1,1.0,0.5511000000000195
262,32,0.5,1.0,-35.0,-1,1.0,0.1776999999999589
263,32,0.5,0.125,-35.0,-1,1.0,0.2019999999998845
264,32,0.5,0.25,35.0,1,1.0,0.2522000000000162
265,32,0.5,1.0,35.0,1,1.0,0.25670000000002346
266,32,0.5,1.0,35.0,1,1.0,0.38229999999998654
267,32,0.5,0.0,-35.0,-1,1.0,4.578099999999949
268,32,0.5,0.25,-35.0,-1,1.0,0.16659999999990305
269,32,0.5,0.25,35.0,1,1.0,0.2233000000001084
270,32,0.5,1.0,-35.0,-1,1.0,0.1876999999999498
271,32,0.5,0.0625,-35.0,-1,1.0,1.0086990000000924
272,32,0.5,0.25,-35.0,-1,1.0,0.1775999999998703
273,32,0.5,0.0625,35.0,1,1.0,0.2477000000000089
274,32,0.5,0.0,-35.0,-1,1.0,0.7397000000000844
275,32,0.5,0.0,35.0,-1,0.0,0.45470000000000255
276,32,0.5,0.0,35.0,-1,0.0,0.4009000000000924
277,32,0.5,0.125,-35.0,-1,1.0,0.19790000000000418
278,32,0.5,1.0,35.0,1,1.0,0.08420000000012351
279,32,0.5,0.125,-35.0,-1,1.0,0.1693000000000211
280,32,0.5,1.0,-35.0,-1,1.0,0.1690000000000964
281,32,0.5,0.25,-35.0,-1,1.0,0.16240000000004784
282,32,0.5,1.0,-35.0,-1,1.0,0.21720000000004802
283,32,0.5,0.25,35.0,1,1.0,0.24480000000005475
284,32,0.5,0.0625,35.0,1,1.0,0.25119999999992615
285,32,0.5,0.25,-35.0,-1,1.0,0.18100000000004002
286,32,0.5,0.25,-35.0,-1,1.0,0.21479999999996835
287,32,0.5,1.0,-35.0,-1,1.0,0.16240000000004784
288,32,0.5,0.25,-35.0,-1,1.0,0.19500000000005002
289,32,0.5,0.0,35.0,-1,0.0,0.2541999999999689
290,32,0.5,0.25,-35.0,-1,1.0,0.2358000000000402
291,32,0.5,0.25,-35.0,-1,1.0,0.15170000000011896
292,32,0.5,1.0,35.0,1,1.0,0.17780000000004748
293,32,0.5,0.25,35.0,1,1.0,0.22649999999998727
294,32,0.5,0.0625,-35.0,-1,1.0,0.22779999999988831
295,32,0.5,0.25,35.0,1,1.0,0.2647999999999229
296,32,0.5,0.125,35.0,1,1.0,0.23539999999991323
297,32,0.5,0.25,-35.0,-1,1.0,0.23900000000003274
298,32,0.5,0.25,35.0,1,1.0,0.20290000000011332
299,32,0.5,0.0625,35.0,1,1.0,0.18029999999987467
300,32,0.5,0.125,35.0,1,1.0,0.2460999999999558
301,32,0.5,0.125,35.0,1,1.0,0.1773000000000593
302,32,0.5,0.125,-35.0,-1,1.0,0.08300000000008367
303,32,0.5,0.125,-35.0,-1,1.0,0.27920000000005984
304,32,0.5,0.0625,-35.0,-1,1.0,0.20889999999997144
305,32,0.5,0.125,35.0,1,1.0,0.20679999999993015
306,32,0.5,0.25,35.0,1,1.0,0.3632000000000062
307,32,0.5,0.125,35.0,1,1.0,0.16089999999996962
308,32,0.5,0.0625,-35.0,1,0.0,2.458500000000072
309,32,0.5,0.25,-35.0,-1,1.0,0.3028000000000475
310,32,0.5,0.125,-35.0,-1,1.0,0.19519999999999982
311,32,0.5,0.25,-35.0,-1,1.0,0.15789999999992688
312,32,0.5,0.0625,-35.0,-1,1.0,0.2318999999998823
313,32,0.5,0.25,35.0,1,1.0,0.17319999999995161
314,32,0.5,0.125,-35.0,-1,1.0,0.2677999999999656
315,32,0.5,1.0,-35.0,-1,1.0,0.18580000000008567
316,32,0.5,1.0,-35.0,-1,1.0,0.17210000000000036
317,32,0.5,1.0,-35.0,-1,1.0,0.10560000000009495
318,32,0.5,0.0625,-35.0,-1,1.0,0.3290000000000646
319,32,0.5,0.125,35.0,1,1.0,0.1894999999999527
320,32,0.5,0.0625,-35.0,-1,1.0,0.2194000000000642
321,32,0.5,0.25,35.0,1,1.0,0.1791000000000622
322,32,0.5,1.0,-35.0,-1,1.0,0.20949999999970714
323,32,0.5,1.0,-35.0,-1,1.0,0.19259999999985666
324,32,0.5,0.25,35.0,1,1.0,0.22299999999995634
325,32,0.5,0.0625,35.0,1,1.0,0.3329999999998563
326,32,0.5,0.0,35.0,1,1.0,0.21299999999973807
327,32,0.5,0.125,35.0,1,1.0,0.18619999999987158
328,32,0.5,0.25,-35.0,-1,1.0,0.17629999999985557
329,32,0.5,0.25,35.0,1,1.0,0.19299999999998363
330,32,0.5,0.25,-35.0,-1,1.0,0.2462999999997919
331,32,0.5,0.0625,-35.0,1,0.0,0.1632999999999356
332,32,0.5,0.125,35.0,1,1.0,0.2666999999999007
333,32,0.5,1.0,35.0,1,1.0,0.19699999999988904
334,32,0.5,0.25,-35.0,-1,1.0,0.14999999999986358
335,32,0.5,0.125,-35.0,-1,1.0,0.29340000000001965
336,32,0.5,0.125,35.0,1,1.0,0.20679999999970278
337,32,0.5,1.0,-35.0,-1,1.0,0.1534999999998945
338,32,0.5,0.125,35.0,1,1.0,0.23359999999979664
339,32,0.5,0.0625,-35.0,1,0.0,0.23029999999994288
340,32,0.5,0.125,35.0,1,1.0,0.2502999999999247
341,32,0.5,1.0,-35.0,-1,1.0,0.17049999999971988
342,32,0.5,0.0625,-35.0,-1,1.0,0.2438999999999396
343,32,0.5,0.0625,35.0,1,1.0,0.26060000000006767
344,32,0.5,1.0,-35.0,-1,1.0,0.21719999999982065
345,32,0.5,1.0,-35.0,-1,1.0,0.18059999999968568
346,32,0.5,0.25,-35.0,-1,1.0,0.2241999999998825
347,32,0.5,1.0,35.0,1,1.0,0.15419999999994616
348,32,0.5,0.0625,35.0,1,1.0,0.2780999999999949
349,32,0.5,0.125,35.0,1,1.0,0.23420000000010077
350,32,0.5,0.0,-35.0,1,0.0,0.4311000000000149
351,32,0.5,0.125,35.0,1,1.0,0.38769999999999527
352,32,0.5,0.0625,-35.0,-1,1.0,0.274398999999903
353,32,0.5,1.0,-35.0,-1,1.0,0.14809999999988577
354,32,0.5,0.0625,35.0,-1,0.0,0.28779999999983374
355,32,0.5,0.125,-35.0,-1,1.0,0.17469999999980246
356,32,0.5,0.0625,35.0,1,1.0,0.2581000000000131
357,32,0.5,1.0,35.0,1,1.0,0.17459999999982756
358,32,0.5,0.25,-35.0,-1,1.0,0.18129999999973734
359,32,0.5,0.25,35.0,1,1.0,0.21489900000005946
360,32,0.5,0.25,35.0,1,1.0,0.23479999999972279
361,32,0.5,1.0,35.0,1,1.0,0.17139999999972133
362,32,0.5,0.25,35.0,1,1.0,0.16509999999993852
363,32,0.5,0.25,-35.0,-1,1.0,0.24839999999994689
