trial_num,session_num,stim_probability_left,contrast,position,response_choice,trial_correct,reaction_time
1,1,0.5,0.125,35.0,1,1.0,9.456800000000001
2,1,0.5,0.125,35.0,-1,0.0,2.0382999999999996
3,1,0.5,0.0,-35.0,1,0.0,0.46999999999999886
4,1,0.5,0.125,35.0,1,1.0,4.059799999999999
5,1,0.5,0.0625,35.0,1,1.0,0.4278000000000013
6,1,0.5,0.0625,35.0,1,1.0,3.663899999999998
7,1,0.5,0.125,-35.0,-1,1.0,3.220100000000002
8,1,0.5,0.0625,35.0,1,1.0,3.0260000000000034
9,1,0.5,0.0625,35.0,1,1.0,3.7834000000000074
10,1,0.5,0.125,35.0,-1,0.0,0.43310000000000315
11,1,0.5,0.0625,-35.0,-1,1.0,0.3031999999999968
12,1,0.5,1.0,-35.0,-1,1.0,0.19550000000000267
13,1,0.5,0.0625,-35.0,-1,1.0,3.245599999999982
14,1,0.5,0.25,-35.0,-1,1.0,0.22879999999999256
15,1,0.5,0.25,35.0,1,1.0,0.588799999999992
16,1,0.5,0.125,35.0,-1,0.0,0.2587000000000046
17,1,0.5,0.0625,-35.0,-1,1.0,1.8978999999999928
18,1,0.5,0.25,-35.0,-1,1.0,0.9799999999999898
19,1,0.5,0.0625,35.0,-1,0.0,1.0272000000000077
20,1,0.5,0.25,35.0,1,1.0,0.3241999999999905
21,1,0.5,0.25,-35.0,-1,1.0,0.5036999999999949
22,1,0.5,0.25,-35.0,-1,1.0,0.21469999999999345
23,1,0.5,0.125,35.0,-1,0.0,0.3242000000000047
24,1,0.5,0.25,-35.0,-1,1.0,0.2570999999999941
25,1,0.5,0.0,-35.0,-1,1.0,0.1828999999999894
26,1,0.5,1.0,35.0,1,1.0,0.6007999999999925
27,1,0.5,0.125,35.0,-1,0.0,1.2800999999999902
28,1,0.5,0.0625,-35.0,-1,1.0,0.27120000000000744
29,1,0.5,0.0,35.0,1,1.0,0.31969999999999743
30,1,0.5,0.25,-35.0,-1,1.0,0.07760000000000389
31,1,0.5,0.125,35.0,1,1.0,0.6076999999999941
32,1,0.5,1.0,35.0,-1,0.0,3.2978000000000094
33,1,0.5,0.25,-35.0,-1,1.0,0.21680000000000632
34,1,0.5,0.125,-35.0,-1,1.0,2.194999999999993
35,1,0.5,0.125,-35.0,-1,1.0,0.29000000000002046
36,1,0.5,0.125,-35.0,-1,1.0,0.27379999999999427
37,1,0.5,1.0,35.0,-1,0.0,4.366500000000002
38,1,0.5,0.25,-35.0,-1,1.0,0.19700000000000273
39,1,0.5,0.0625,-35.0,-1,1.0,0.21390000000002374
40,1,0.5,0.125,35.0,-1,0.0,1.3088000000000193
41,1,0.5,0.125,35.0,-1,0.0,1.685100000000034
42,1,0.5,0.0625,-35.0,-1,1.0,0.2635999999999967
43,1,0.5,0.25,-35.0,-1,1.0,0.17380000000002838
44,1,0.5,0.0,35.0,-1,0.0,0.27050000000002683
45,1,0.5,1.0,35.0,1,1.0,0.5574000000000012
46,1,0.5,1.0,-35.0,-1,1.0,0.21300000000002228
47,1,0.5,0.25,-35.0,-1,1.0,0.7939000000000078
48,1,0.5,0.0625,35.0,-1,0.0,3.032900000000012
49,1,0.5,0.125,-35.0,-1,1.0,0.1869000000000085
50,1,0.5,1.0,-35.0,-1,1.0,0.18080000000000496
51,1,0.5,0.0625,35.0,-1,0.0,3.471900000000005
52,1,0.5,0.25,-35.0,-1,1.0,0.25490000000002055
53,1,0.5,0.25,35.0,-1,0.0,0.2464000000000226
54,1,0.5,1.0,35.0,1,1.0,0.19080000000002428
55,1,0.5,0.25,35.0,-1,0.0,3.539900000000017
56,1,0.5,0.0625,35.0,-1,0.0,0.4037000000000148
57,1,0.5,0.0625,35.0,-1,0.0,4.318200000000019
58,1,0.5,0.25,-35.0,-1,1.0,0.24660000000000082
59,1,0.5,0.0625,35.0,-1,0.0,1.4543000000000177
60,1,0.5,0.125,-35.0,-1,1.0,0.23179999999999268
61,1,0.5,1.0,35.0,1,1.0,0.24100000000001387
62,1,0.5,0.0625,-35.0,1,0.0,2.5693999999999733
63,1,0.5,0.125,-35.0,-1,1.0,0.286200000000008
64,1,0.5,0.0625,-35.0,-1,1.0,0.20700000000002206
65,1,0.5,0.25,-35.0,-1,1.0,0.3024999999999807
66,1,0.5,1.0,35.0,1,1.0,0.4936000000000149
67,1,0.5,0.0625,-35.0,-1,1.0,0.6510000000000105
68,1,0.5,0.25,-35.0,-1,1.0,2.5834000000000117
69,1,0.5,0.125,35.0,1,1.0,0.46829999999997085
70,1,0.5,0.25,35.0,1,1.0,3.259999999999991
71,1,0.5,0.0625,-35.0,1,0.0,7.373099999999965
72,1,0.5,0.125,35.0,-1,0.0,0.4011000000000422
73,1,0.5,1.0,-35.0,-1,1.0,0.20319999999992433
74,1,0.5,0.125,-35.0,-1,1.0,3.8255999999999517
75,1,0.5,0.0625,35.0,1,1.0,0.45139999999997826
76,1,0.5,0.125,-35.0,-1,1.0,0.5716999999999643
77,1,0.5,0.25,-35.0,-1,1.0,0.5050999999999704
78,1,0.5,0.25,-35.0,-1,1.0,1.1193999999999846
79,1,0.5,0.25,35.0,1,1.0,0.17660000000000764
80,1,0.5,0.0,-35.0,-1,1.0,0.24709999999993215
81,1,0.5,1.0,35.0,1,1.0,0.2522999999999911
82,1,0.5,0.125,-35.0,-1,1.0,0.2215999999999667
83,1,0.5,1.0,35.0,1,1.0,0.21219999999999573
84,1,0.5,0.125,-35.0,-1,1.0,3.449799999999982
85,1,0.5,0.0,-35.0,-1,1.0,1.7983999999999583
86,1,0.5,0.125,35.0,1,1.0,0.83299999999997
87,1,0.5,0.0625,-35.0,1,0.0,2.9857000000000085
88,1,0.5,1.0,-35.0,-1,1.0,0.19950000000000045
89,1,0.5,0.0,35.0,-1,0.0,0.20019999999993843
90,1,0.5,0.25,35.0,1,1.0,0.36909999999994625
91,1,0.2,0.0625,-35.0,-1,1.0,0.15419999999994616
92,1,0.2,1.0,-35.0,-1,1.0,0.22149999999999181
93,1,0.2,1.0,35.0,1,1.0,0.3842000000000212
94,1,0.2,0.0625,-35.0,-1,1.0,1.8120999999999867
95,1,0.2,1.0,35.0,1,1.0,0.7807999999999993
96,1,0.2,0.0625,-35.0,-1,1.0,4.8723999999999705
97,1,0.2,1.0,35.0,1,1.0,0.2547000000000139
98,1,0.2,0.0625,35.0,-1,0.0,3.2922999999999547
99,1,0.2,0.0,35.0,-1,0.0,9.569500000000005
100,1,0.2,0.25,35.0,1,1.0,0.38359999999994443
101,1,0.2,0.25,35.0,1,1.0,0.6585000000000036
102,1,0.2,0.25,-35.0,-1,1.0,1.2004999999999768
103,1,0.2,1.0,35.0,1,1.0,0.4907999999999788
104,1,0.2,0.25,35.0,-1,0.0,4.05359999999996
105,1,0.2,0.25,35.0,1,1.0,0.2726000000000113
106,1,0.2,1.0,35.0,1,1.0,0.29199999999997317
107,1,0.2,0.25,35.0,1,1.0,4.999900000000025
108,1,0.2,0.125,35.0,-1,0.0,0.6843999999999824
109,1,0.2,1.0,35.0,1,1.0,0.28180000000003247
110,1,0.2,0.0625,35.0,-1,0.0,0.2115999999999758
111,1,0.2,0.125,35.0,1,1.0,4.13190000000003
112,1,0.2,0.0,35.0,1,1.0,0.3885999999999399
113,1,0.8,0.125,-35.0,-1,1.0,0.3265999999999849
114,1,0.8,0.25,-35.0,-1,1.0,1.7016999999999598
115,1,0.8,0.25,-35.0,-1,1.0,0.38749999999998863
116,1,0.8,0.25,35.0,1,1.0,4.505499999999984
117,1,0.8,1.0,-35.0,-1,1.0,0.2648999999999546
118,1,0.8,0.125,-35.0,1,0.0,0.6954999999999814
119,1,0.8,1.0,-35.0,-1,1.0,0.21349999999995362
120,1,0.8,0.125,-35.0,-1,1.0,0.08809999999999718
121,1,0.8,0.25,-35.0,-1,1.0,0.30169999999998254
122,1,0.8,0.125,-35.0,1,0.0,0.2259000000000242
123,1,0.8,0.125,-35.0,-1,1.0,3.0165999999999826
124,1,0.8,0.125,-35.0,1,0.0,4.1942999999999415
125,1,0.8,0.25,-35.0,-1,1.0,0.2507999999999697
126,1,0.8,1.0,-35.0,-1,1.0,0.5538999999999419
127,1,0.8,0.125,35.0,1,1.0,0.5705000000000382
128,1,0.8,0.125,-35.0,-1,1.0,4.651700000000005
129,1,0.8,0.125,35.0,1,1.0,0.40039999999999054
130,1,0.8,1.0,-35.0,-1,1.0,0.24059999999997217
131,1,0.8,0.25,-35.0,-1,1.0,3.14670000000001
132,1,0.8,0.0625,-35.0,-1,1.0,3.1517000000000053
133,1,0.8,0.25,-35.0,-1,1.0,0.5438999999998941
134,1,0.8,0.0625,35.0,-1,0.0,3.150800000000004
135,1,0.8,0.0625,-35.0,-1,1.0,0.4618000000000393
136,1,0.8,0.125,-35.0,-1,1.0,3.288699999999949
137,1,0.8,0.25,-35.0,-1,1.0,0.28089999999997417
138,1,0.8,0.0,35.0,1,1.0,0.42230000000006385
139,1,0.8,0.0,-35.0,1,0.0,0.8918999999999642
140,1,0.8,0.125,-35.0,-1,1.0,0.33349999999995816
141,1,0.8,0.25,35.0,1,1.0,3.2253999999999223
142,1,0.8,0.125,-35.0,-1,1.0,0.38430000000005293
143,1,0.8,0.25,-35.0,-1,1.0,0.29710000000000036
144,1,0.8,0.0625,-35.0,-1,1.0,0.2980000000000018
145,1,0.8,0.25,-35.0,-1,1.0,1.3403999999999314
146,1,0.8,1.0,-35.0,-1,1.0,0.2864000000000715
147,1,0.8,1.0,35.0,1,1.0,0.3596999999998616
148,1,0.8,1.0,35.0,1,1.0,4.3834000000000515
149,1,0.8,0.125,35.0,-1,0.0,0.19880000000000564
150,1,0.8,0.25,-35.0,-1,1.0,0.2538999999999305
151,1,0.8,1.0,-35.0,-1,1.0,0.2500999999999749
152,1,0.8,0.125,-35.0,-1,1.0,3.4237000000000535
153,1,0.8,1.0,-35.0,-1,1.0,0.7341999999999871
154,1,0.8,0.25,35.0,1,1.0,0.9805999999999813
155,1,0.8,0.125,-35.0,1,0.0,3.8875000000000455
156,1,0.8,0.25,35.0,1,1.0,0.39809999999999945
157,1,0.8,0.0625,-35.0,-1,1.0,0.20040000000005875
158,1,0.8,0.125,35.0,-1,0.0,0.6522999999999683
159,1,0.8,0.0,-35.0,-1,1.0,3.7288999999999533
160,1,0.8,0.0,35.0,1,1.0,0.5488000000000284
161,1,0.8,0.125,-35.0,-1,1.0,0.28989999999987504
162,1,0.8,1.0,-35.0,-1,1.0,0.5795000000000528
163,1,0.8,0.25,-35.0,-1,1.0,0.2662000000000262
164,1,0.8,0.0,-35.0,-1,1.0,4.552299999999946
165,1,0.8,0.25,-35.0,-1,1.0,0.21210000000007767
166,1,0.8,0.0625,35.0,-1,0.0,3.9659000000000333
167,1,0.8,0.0625,-35.0,-1,1.0,0.3564000000000078
168,1,0.8,0.0625,-35.0,-1,1.0,1.0022000000000162
169,1,0.8,1.0,-35.0,-1,1.0,0.22860000000002856
170,1,0.8,0.25,-35.0,-1,1.0,0.21949999999992542
171,1,0.8,0.0,-35.0,-1,1.0,0.6050000000000182
172,1,0.8,0.0,35.0,-1,0.0,4.892399999999952
173,1,0.8,0.125,-35.0,-1,1.0,0.2535000000000309
174,1,0.8,0.0625,-35.0,-1,1.0,0.3103999999999587
175,1,0.8,0.0625,35.0,1,1.0,0.8035999999998467
176,1,0.8,0.25,-35.0,-1,1.0,0.258199999999988
177,1,0.8,1.0,35.0,1,1.0,0.48910000000000764
178,1,0.8,0.0625,-35.0,-1,1.0,0.052000000000134605
179,1,0.8,0.0,-35.0,-1,1.0,3.975200000000086
180,1,0.8,0.0625,-35.0,1,0.0,8.107399999999984
181,1,0.8,1.0,-35.0,-1,1.0,0.24109999999996035
182,1,0.8,0.0,-35.0,-1,1.0,3.6173
183,1,0.8,0.0,-35.0,-1,1.0,0.5274000000000569
184,1,0.8,0.25,-35.0,-1,1.0,0.3593999999999369
185,1,0.2,0.125,35.0,-1,0.0,0.5729999999999791
186,1,0.2,0.25,35.0,1,1.0,0.6515999999999167
187,1,0.2,0.25,35.0,-1,0.0,0.33150000000000546
188,1,0.2,0.0625,35.0,-1,0.0,4.089799999999968
189,1,0.2,1.0,35.0,1,1.0,0.25929999999993925
190,1,0.2,0.125,35.0,1,1.0,1.0236999999999625
191,1,0.2,0.25,35.0,1,1.0,0.5135000000000218
192,1,0.2,1.0,35.0,1,1.0,3.248199999999997
193,1,0.2,0.0625,35.0,-1,0.0,0.4451999999999998
194,1,0.2,0.25,35.0,1,1.0,0.5647000000000162
195,1,0.2,0.0625,35.0,-1,0.0,3.6831999999999425
196,1,0.2,0.0625,35.0,-1,0.0,0.32369999999991705
197,1,0.2,0.0625,35.0,1,1.0,3.337699999999927
198,1,0.2,0.25,35.0,1,1.0,0.35550000000000637
199,1,0.2,0.25,35.0,1,1.0,3.6365999999999303
200,1,0.2,0.0625,35.0,-1,0.0,0.24530000000004293
201,1,0.2,0.125,35.0,1,1.0,0.3383999999999787
202,1,0.2,0.125,35.0,-1,0.0,1.5575000000000045
203,1,0.2,0.25,35.0,1,1.0,0.37409999999999854
204,1,0.2,0.0,35.0,1,1.0,11.64829999999995
205,1,0.2,0.0625,35.0,-1,0.0,1.0522999999999456
206,1,0.2,0.125,35.0,1,1.0,0.11379999999996926
207,1,0.2,0.25,35.0,1,1.0,0.47239999999999327
208,1,0.2,1.0,35.0,1,1.0,4.018299999999954
209,1,0.2,0.125,35.0,1,1.0,10.428800000000024
210,1,0.2,1.0,35.0,1,1.0,7.90339999999992
211,1,0.2,0.125,35.0,-1,0.0,7.4147999999999
212,1,0.2,0.0,-35.0,1,0.0,4.037899999999922
213,1,0.2,0.25,35.0,1,1.0,7.337800000000016
214,1,0.2,1.0,35.0,1,1.0,0.3789000000000442
215,1,0.2,0.0625,35.0,1,1.0,20.299699999999916
216,1,0.2,0.0625,35.0,1,1.0,7.357600000000048
217,1,0.2,0.125,-35.0,-1,1.0,7.9888999999998305
218,1,0.2,0.25,35.0,1,1.0,0.8811999999999216
219,1,0.2,0.0,35.0,-1,0.0,7.614599999999996
220,1,0.2,1.0,35.0,1,1.0,0.21280000000001564
221,1,0.2,0.25,35.0,1,1.0,4.498000000000047
222,1,0.2,0.25,35.0,1,1.0,0.39229999999986376
223,1,0.2,0.0625,35.0,1,1.0,0.24440100000003895
224,1,0.2,0.25,35.0,1,1.0,0.3849010000000135
225,1,0.2,0.125,35.0,1,1.0,6.964700999999991
226,1,0.2,0.125,35.0,-1,0.0,0.3810009999999693
227,1,0.2,1.0,35.0,1,1.0,0.41370100000006005
228,1,0.2,1.0,-35.0,-1,1.0,0.26670000000001437
229,1,0.2,0.25,35.0,1,1.0,0.3378010000000131
230,1,0.2,0.125,35.0,1,1.0,0.19800099999997656
231,1,0.2,0.0,35.0,1,1.0,7.142700999999988
232,1,0.2,0.0625,35.0,1,1.0,5.1670010000000275
233,1,0.2,0.25,35.0,1,1.0,4.320400999999947
234,1,0.2,0.125,35.0,1,1.0,4.210800999999833
235,1,0.2,0.25,-35.0,-1,1.0,1.2209009999999125
236,1,0.2,1.0,35.0,1,1.0,0.5748009999999795
237,1,0.2,0.25,35.0,1,1.0,4.254800999999816
238,1,0.2,0.0625,35.0,1,1.0,0.4250010000000657
239,1,0.2,1.0,-35.0,-1,1.0,0.35490100000015445
240,1,0.2,0.0625,35.0,1,1.0,5.628101000000015
241,1,0.2,0.25,-35.0,-1,1.0,1.5819009999997888
242,1,0.2,0.125,-35.0,-1,1.0,0.32530100000008133
243,1,0.2,1.0,35.0,1,1.0,0.42200099999990925
244,1,0.2,1.0,35.0,1,1.0,0.5690009999998438
245,1,0.2,0.125,35.0,1,1.0,5.689600999999811
246,1,0.2,1.0,35.0,1,1.0,0.449301000000105
247,1,0.2,1.0,35.0,1,1.0,0.1462010000002465
248,1,0.2,0.0,35.0,1,1.0,4.982900999999856
249,1,0.2,0.125,35.0,-1,0.0,0.8000009999998383
250,1,0.2,0.0625,-35.0,-1,1.0,4.956500999999889
251,1,0.2,1.0,35.0,1,1.0,1.5969010000001163
252,1,0.2,1.0,35.0,1,1.0,0.5736010000000533
253,1,0.2,0.125,-35.0,-1,1.0,0.3004009999999653
254,1,0.2,1.0,35.0,1,1.0,0.5142009999999573
255,1,0.2,0.0625,35.0,1,1.0,7.634001000000126
256,1,0.2,1.0,35.0,1,1.0,0.5710010000000239
257,1,0.2,0.0625,35.0,-1,0.0,2.2145009999999274
258,1,0.2,1.0,35.0,1,1.0,0.39800100000002203
259,1,0.2,0.125,35.0,1,1.0,5.608001000000058
260,1,0.2,0.125,35.0,-1,0.0,0.3483009999999922
261,1,0.2,1.0,35.0,1,1.0,0.3752009999998336
262,1,0.2,0.125,-35.0,-1,1.0,4.642200999999886
263,1,0.2,1.0,35.0,1,1.0,0.4491010000001552
264,1,0.8,0.125,35.0,1,1.0,1.3391010000000279
265,1,0.8,0.25,-35.0,-1,1.0,0.31910100000004604
266,1,0.8,0.125,-35.0,-1,1.0,0.22260099999994054
267,1,0.8,1.0,-35.0,-1,1.0,0.23610099999996237
268,1,0.8,1.0,-35.0,-1,1.0,0.2762009999999009
269,1,0.8,0.125,35.0,1,1.0,6.5532009999999445
270,1,0.8,0.0,-35.0,-1,1.0,4.8132009999999354
271,1,0.8,0.25,-35.0,-1,1.0,0.28340099999991253
272,1,0.8,0.25,-35.0,-1,1.0,0.2504009999997834
273,1,0.8,1.0,35.0,1,1.0,0.503601000000117
274,1,0.8,0.25,-35.0,-1,1.0,0.43030099999987215
275,1,0.8,0.0,-35.0,-1,1.0,4.430501000000049
276,1,0.8,0.25,35.0,1,1.0,0.7542010000001937
277,1,0.8,0.125,-35.0,1,0.0,1.4617009999997208
278,1,0.8,1.0,-35.0,-1,1.0,0.3279010000001108
279,1,0.8,0.125,-35.0,-1,1.0,0.5212010000000191
280,1,0.8,0.0,-35.0,1,0.0,0.5748010000002068
281,1,0.8,0.25,-35.0,-1,1.0,0.6983010000001286
282,1,0.8,1.0,-35.0,-1,1.0,0.19160099999999147
283,1,0.8,0.0,-35.0,-1,1.0,5.728501000000051
284,1,0.8,0.125,-35.0,-1,1.0,1.0121009999998023
285,1,0.8,1.0,35.0,1,1.0,0.5788010000001123
286,1,0.8,0.125,-35.0,-1,1.0,1.215601000000106
287,1,0.8,0.125,-35.0,1,0.0,0.7393009999998412
288,1,0.8,0.25,-35.0,-1,1.0,3.622600999999804
289,1,0.8,0.25,-35.0,-1,1.0,0.5434009999999034
290,1,0.8,0.125,35.0,1,1.0,2.3263010000000577
291,1,0.8,0.0625,-35.0,-1,1.0,5.186300999999958
292,1,0.8,0.0,-35.0,1,0.0,3.4203010000001086
293,1,0.8,0.25,-35.0,-1,1.0,0.5268009999999776
294,1,0.8,0.0625,-35.0,-1,1.0,1.3969010000000708
295,1,0.8,0.125,35.0,1,1.0,5.294100999999955
296,1,0.8,0.0,35.0,1,1.0,3.6474010000001726
297,1,0.8,0.0625,35.0,1,1.0,0.8714010000001053
298,1,0.8,0.0625,-35.0,-1,1.0,0.3747009999999591
299,1,0.8,0.125,-35.0,-1,1.0,3.728000999999722
300,1,0.8,0.25,35.0,1,1.0,4.305100999999922
301,1,0.8,0.125,-35.0,-1,1.0,0.3985009999998965
302,1,0.8,0.125,-35.0,-1,1.0,0.7618009999998776
303,1,0.8,0.125,-35.0,-1,1.0,0.42200100000013663
304,1,0.8,0.0625,35.0,-1,0.0,3.5225010000001475
305,1,0.8,0.0625,-35.0,-1,1.0,0.25240099999996346
306,1,0.8,0.125,-35.0,-1,1.0,0.31600099999968734
307,1,0.8,1.0,-35.0,-1,1.0,0.20960100000002058
308,1,0.8,1.0,-35.0,-1,1.0,0.25960099999974773
309,1,0.8,0.0,-35.0,-1,1.0,1.419601000000057
310,1,0.8,1.0,-35.0,-1,1.0,0.28650100000004386
311,1,0.8,0.0625,35.0,-1,0.0,5.316500999999789
312,1,0.8,0.125,-35.0,-1,1.0,0.34360100000003513
313,1,0.8,0.0625,-35.0,-1,1.0,3.110601000000088
314,1,0.8,0.0625,35.0,1,1.0,4.140400999999883
315,1,0.8,1.0,-35.0,-1,1.0,0.4309009999999489
316,1,0.8,1.0,35.0,1,1.0,0.3341010000001461
317,1,0.8,0.125,-35.0,-1,1.0,0.271701000000121
318,1,0.8,0.25,-35.0,-1,1.0,5.4877010000000155
319,1,0.8,0.125,35.0,1,1.0,0.5380009999998947
320,1,0.8,1.0,-35.0,-1,1.0,0.44820099999992635
321,1,0.8,0.0625,-35.0,-1,1.0,0.1582010000001901
322,1,0.8,0.125,-35.0,1,0.0,7.178700999999819
323,1,0.8,0.0,-35.0,1,0.0,7.922100999999884
324,1,0.8,1.0,-35.0,-1,1.0,0.1527009999999791
325,1,0.8,0.0,-35.0,1,0.0,0.5260009999999511
326,1,0.8,0.25,-35.0,-1,1.0,0.5194010000000162
327,1,0.8,0.25,-35.0,-1,1.0,0.5098009999999249
328,1,0.8,1.0,-35.0,-1,1.0,0.30310099999996964
329,1,0.8,1.0,35.0,1,1.0,0.15640099999995982
330,1,0.2,1.0,35.0,1,1.0,0.13310099999989689
331,1,0.2,0.25,-35.0,-1,1.0,10.626800999999887
332,1,0.2,0.0625,35.0,1,1.0,4.797501000000011
333,1,0.2,0.25,-35.0,-1,1.0,0.41090100000019447
334,1,0.2,0.0,35.0,1,1.0,8.707801000000018
335,1,0.2,0.0625,35.0,1,1.0,0.4846010000001115
336,1,0.2,0.125,-35.0,-1,1.0,0.8313010000001668
337,1,0.2,0.0625,35.0,1,1.0,0.4149010000000999
338,1,0.2,0.0625,35.0,1,1.0,6.185201000000006
339,1,0.2,0.125,35.0,1,1.0,0.9555009999999129
340,1,0.2,0.0625,-35.0,1,0.0,5.558901000000105
341,1,0.2,0.125,35.0,1,1.0,0.3490009999998165
342,1,0.2,0.0625,-35.0,1,0.0,3.6661009999997987
343,1,0.2,0.125,35.0,1,1.0,0.40010099999994964
344,1,0.2,0.25,35.0,1,1.0,0.6431010000001152
345,1,0.2,0.25,35.0,1,1.0,0.8363010000000486
346,1,0.2,0.0625,35.0,1,1.0,8.42290099999991
347,1,0.2,0.0625,35.0,-1,0.0,3.3101010000000315
348,1,0.2,0.125,35.0,1,1.0,0.32110099999999875
349,1,0.2,0.125,35.0,1,1.0,4.204000999999835
350,1,0.2,0.0625,35.0,1,1.0,2.54400099999998
351,1,0.2,0.25,35.0,1,1.0,0.5246010000000751
352,1,0.2,1.0,35.0,1,1.0,20.007600999999795
353,1,0.2,0.25,35.0,1,1.0,3.432100999999875
354,1,0.2,0.0,35.0,1,1.0,5.892101000000139
355,1,0.2,0.25,35.0,1,1.0,0.32250100000010207
356,1,0.2,1.0,35.0,1,1.0,0.4958010000000286
357,1,0.2,0.125,35.0,1,1.0,5.3360009999998965
358,1,0.2,0.125,35.0,1,1.0,0.27620100000012826
359,1,0.2,1.0,35.0,1,1.0,6.6329010000001745
360,1,0.2,0.0,-35.0,1,0.0,5.383501000000024
361,1,0.2,0.125,35.0,1,1.0,5.377201000000014
362,1,0.2,0.125,35.0,-1,0.0,0.417500999999902
363,1,0.2,0.25,35.0,1,1.0,-0.009299000000055457
364,1,0.2,0.25,35.0,1,1.0,0.3441009999999096
365,1,0.2,1.0,35.0,1,1.0,0.661000999999942
366,1,0.2,0.0625,-35.0,-1,1.0,6.521001000000069
367,1,0.2,1.0,35.0,1,1.0,0.3582010000000082
368,1,0.2,0.125,-35.0,-1,1.0,0.518301000000065
369,1,0.2,1.0,35.0,1,1.0,0.49830100000008315
370,1,0.2,1.0,-35.0,-1,1.0,0.28850099999999657
371,1,0.2,0.0,35.0,-1,0.0,11.288500999999997
372,1,0.2,0.25,35.0,1,1.0,0.5990010000000439
373,1,0.2,0.25,-35.0,-1,1.0,0.24580100000002858
374,1,0.2,0.0625,35.0,1,1.0,1.2294010000000526
375,1,0.2,0.125,35.0,1,1.0,3.8395009999999274
376,1,0.2,0.25,-35.0,-1,1.0,6.97300099999984
377,1,0.2,0.25,35.0,1,1.0,0.6068009999999049
378,1,0.2,0.0625,35.0,-1,0.0,9.220100999999886
379,1,0.2,1.0,35.0,1,1.0,0.36720100000002276
380,1,0.2,0.25,35.0,1,1.0,0.184601000000157
381,1,0.2,0.0625,35.0,1,1.0,6.354200999999875
382,1,0.2,0.0625,35.0,1,1.0,4.671200999999883
383,1,0.2,0.0625,35.0,1,1.0,16.554701000000023
384,1,0.2,1.0,35.0,1,1.0,0.4187010000000555
385,1,0.2,1.0,-35.0,-1,1.0,0.28890099999989616
386,1,0.8,0.0625,-35.0,-1,1.0,6.272400999999718
387,1,0.8,0.125,-35.0,-1,1.0,0.38940099999990707
388,1,0.8,0.0,-35.0,-1,1.0,4.096201000000065
389,1,0.8,1.0,-35.0,-1,1.0,0.3164009999998143
390,1,0.8,0.0,-35.0,1,0.0,1.7732009999997445
391,1,0.8,0.125,-35.0,-1,1.0,6.96670099999983
392,1,0.8,0.0,-35.0,1,0.0,0.5105009999999766
393,1,0.8,0.0625,-35.0,-1,1.0,0.6672009999999773
394,1,0.8,1.0,-35.0,-1,1.0,0.2840009999999893
395,1,0.8,0.0625,-35.0,-1,1.0,4.280700999999908
396,1,0.8,0.0625,-35.0,1,0.0,13.454400999999962
397,1,0.8,0.125,-35.0,-1,1.0,2.5317009999998845
398,1,0.8,0.125,35.0,-1,0.0,4.125200999999834
399,1,0.8,1.0,-35.0,-1,1.0,0.29540099999985614
400,1,0.8,0.0,-35.0,-1,1.0,0.448900999999978
401,1,0.8,1.0,-35.0,-1,1.0,0.2258009999998194
402,1,0.8,0.25,-35.0,-1,1.0,0.36590099999989434
403,1,0.8,0.125,-35.0,-1,1.0,9.672600999999986
404,1,0.8,0.25,-35.0,-1,1.0,0.24630099999990307
405,1,0.8,0.0,-35.0,-1,1.0,0.7731009999999969
406,1,0.8,0.0625,-35.0,-1,1.0,0.8099010000000817
407,1,0.8,1.0,-35.0,-1,1.0,0.2901010000000497
408,1,0.8,0.0,-35.0,-1,1.0,5.966801000000032
409,1,0.8,0.25,35.0,1,1.0,3.9872009999999136
410,1,0.8,0.0625,-35.0,-1,1.0,0.580801000000065
411,1,0.8,0.0,-35.0,-1,1.0,0.23120099999982813
412,1,0.8,0.25,35.0,1,1.0,0.6310009999999693
413,1,0.2,0.0625,-35.0,-1,1.0,5.851000999999997
414,1,0.2,0.25,35.0,1,1.0,0.8381010000000515
415,1,0.2,0.0,35.0,-1,0.0,3.478200999999899
416,1,0.2,0.125,35.0,1,1.0,0.2551009999999678
417,1,0.2,0.0,35.0,-1,0.0,9.618500999999924
418,1,0.2,0.125,35.0,-1,0.0,5.075601000000006
419,1,0.2,0.0625,35.0,1,1.0,23.59930099999997
420,1,0.2,0.25,35.0,1,1.0,4.52030099999979
421,1,0.2,0.0625,35.0,-1,0.0,4.334101000000146
422,1,0.2,1.0,35.0,1,1.0,0.45760100000006787
423,1,0.2,0.0625,35.0,1,1.0,0.670900999999958
424,1,0.2,0.0625,35.0,1,1.0,0.34110099999998056
425,1,0.2,1.0,35.0,1,1.0,20.16790100000003
426,1,0.2,1.0,35.0,1,1.0,0.19880099999977574
427,1,0.2,0.0625,35.0,1,1.0,3.2322009999998045
428,1,0.2,0.0,35.0,1,1.0,0.9723009999997885
429,1,0.2,0.125,-35.0,-1,1.0,0.40590100000008533
430,1,0.2,0.25,35.0,1,1.0,12.302601000000323
431,1,0.2,0.0,35.0,1,1.0,0.679801000000225
432,1,0.2,1.0,35.0,1,1.0,0.5233009999997194
433,1,0.2,0.125,35.0,1,1.0,29.136700999999903
434,1,0.2,1.0,35.0,1,1.0,0.3779010000002927
435,1,0.2,0.25,35.0,1,1.0,0.19800099999974918
436,1,0.2,0.25,35.0,1,1.0,0.5882010000000264
437,1,0.2,0.125,35.0,1,1.0,4.248300999999628
438,1,0.2,0.0625,35.0,1,1.0,5.331901000000016
439,1,0.2,1.0,-35.0,-1,1.0,0.46220099999982267
440,1,0.2,0.0625,35.0,1,1.0,0.43560100000013335
441,1,0.2,0.25,35.0,1,1.0,0.23910099999966405
442,1,0.2,1.0,-35.0,-1,1.0,0.5692009999997936
1,2,0.5,0.0,35.0,1,1.0,0.36349999999999993
2,2,0.5,1.0,-35.0,-1,1.0,0.2077
3,2,0.5,0.25,-35.0,-1,1.0,0.2914000000000003
4,2,0.5,0.0625,35.0,-1,0.0,1.0173999999999985
5,2,0.5,0.125,35.0,1,1.0,0.2546999999999997
6,2,0.5,0.25,-35.0,-1,1.0,0.18659999999999854
7,2,0.5,0.125,-35.0,-1,1.0,5.060599999999997
8,2,0.5,0.125,-35.0,-1,1.0,1.5456999999999965
9,2,0.5,0.25,35.0,1,1.0,0.13569999999999993
10,2,0.5,0.0,35.0,-1,0.0,0.23920000000000385
11,2,0.5,1.0,35.0,1,1.0,0.26380000000000337
12,2,0.5,0.125,-35.0,-1,1.0,0.4200000000000017
13,2,0.5,0.25,35.0,-1,0.0,0.34420000000000783
14,2,0.5,0.25,-35.0,-1,1.0,0.2850000000000108
15,2,0.5,1.0,35.0,1,1.0,0.2446999999999946
16,2,0.5,0.125,-35.0,-1,1.0,0.35310000000001196
17,2,0.5,0.25,-35.0,-1,1.0,0.3160000000000025
18,2,0.5,0.25,-35.0,-1,1.0,5.0959999999999965
19,2,0.5,1.0,-35.0,-1,1.0,0.3097000000000065
20,2,0.5,0.0625,35.0,1,1.0,2.1721000000000146
21,2,0.5,0.25,-35.0,-1,1.0,0.42149999999999466
22,2,0.5,0.25,35.0,1,1.0,0.4568999999999903
23,2,0.5,0.0625,-35.0,-1,1.0,0.22539999999999338
24,2,0.5,0.125,-35.0,-1,1.0,0.23669999999999902
25,2,0.5,1.0,-35.0,-1,1.0,0.26670000000001437
26,2,0.5,0.0625,-35.0,1,0.0,0.8451000000000164
27,2,0.5,1.0,35.0,1,1.0,0.24710000000001742
28,2,0.5,0.0,-35.0,-1,1.0,0.23270000000000834
29,2,0.5,1.0,35.0,1,1.0,0.2506000000000057
30,2,0.5,0.0,-35.0,1,0.0,1.6898000000000053
31,2,0.5,0.125,35.0,1,1.0,0.7356000000000051
32,2,0.5,1.0,35.0,1,1.0,5.650600000000011
33,2,0.5,1.0,-35.0,-1,1.0,2.0708000000000055
34,2,0.5,0.0625,35.0,1,1.0,0.23860000000000525
35,2,0.5,0.125,35.0,1,1.0,0.2826000000000022
36,2,0.5,1.0,-35.0,-1,1.0,0.35470000000000823
37,2,0.5,0.0625,35.0,1,1.0,0.2362009999999941
38,2,0.5,0.0625,-35.0,-1,1.0,0.2303009999999972
39,2,0.5,0.125,35.0,1,1.0,0.4253009999999904
40,2,0.5,1.0,35.0,1,1.0,0.21190100000001166
41,2,0.5,1.0,35.0,1,1.0,0.4627010000000098
42,2,0.5,0.25,35.0,1,1.0,0.254400999999973
43,2,0.5,0.0625,35.0,-1,0.0,4.745001000000002
44,2,0.5,0.25,-35.0,-1,1.0,0.23690100000001735
45,2,0.5,0.0625,35.0,1,1.0,0.45320099999997865
46,2,0.5,0.25,-35.0,-1,1.0,0.2414009999999962
47,2,0.5,0.0,-35.0,-1,1.0,4.579600999999997
48,2,0.5,0.0625,35.0,1,1.0,0.3987009999999884
49,2,0.5,1.0,-35.0,-1,1.0,0.010700999999983196
50,2,0.5,1.0,35.0,1,1.0,0.2151010000000042
51,2,0.5,1.0,35.0,1,1.0,3.9051009999999735
52,2,0.5,0.125,35.0,1,1.0,0.9004009999999596
53,2,0.5,0.0625,-35.0,-1,1.0,0.275700999999998
54,2,0.5,0.25,35.0,1,1.0,0.23830099999997856
55,2,0.5,0.25,-35.0,-1,1.0,1.3468009999999708
56,2,0.5,0.25,35.0,1,1.0,0.3548009999999806
57,2,0.5,0.0625,35.0,-1,0.0,4.241100999999986
58,2,0.5,1.0,-35.0,-1,1.0,0.2158009999999706
59,2,0.5,0.0625,-35.0,-1,1.0,0.35720100000000343
60,2,0.5,0.0625,35.0,1,1.0,0.3916009999999801
61,2,0.5,0.0625,-35.0,-1,1.0,0.1959009999999921
62,2,0.5,0.125,35.0,1,1.0,0.23340099999998642
63,2,0.5,0.25,-35.0,-1,1.0,0.21380099999998947
64,2,0.5,1.0,35.0,1,1.0,0.286800999999997
65,2,0.5,0.25,-35.0,-1,1.0,0.24740099999999643
66,2,0.5,0.0625,35.0,-1,0.0,0.22580099999998993
67,2,0.5,1.0,35.0,1,1.0,0.23280099999999493
68,2,0.5,0.125,35.0,1,1.0,0.29080099999998765
69,2,0.5,1.0,-35.0,-1,1.0,0.2279010000000028
70,2,0.5,0.125,35.0,1,1.0,0.358901000000003
71,2,0.5,0.25,-35.0,-1,1.0,0.23300100000000157
72,2,0.5,1.0,-35.0,-1,1.0,0.2064009999999996
73,2,0.5,0.125,35.0,1,1.0,5.041900999999967
74,2,0.5,1.0,35.0,1,1.0,0.1772009999999966
75,2,0.5,0.0625,35.0,1,1.0,5.48100100000002
76,2,0.5,0.0,35.0,1,1.0,1.097900999999979
77,2,0.5,0.0625,35.0,1,1.0,0.2109010000000353
78,2,0.5,1.0,35.0,1,1.0,0.21180099999997992
79,2,0.5,0.25,35.0,1,1.0,0.3380009999999629
80,2,0.5,0.125,-35.0,-1,1.0,0.2423010000000545
81,2,0.5,0.125,-35.0,-1,1.0,2.343800999999985
82,2,0.5,0.25,-35.0,-1,1.0,0.173800999999969
83,2,0.5,0.25,-35.0,-1,1.0,0.19800099999997656
84,2,0.5,0.0625,-35.0,-1,1.0,0.22710100000000466
85,2,0.5,0.125,-35.0,-1,1.0,0.2414009999999962
86,2,0.5,0.125,-35.0,-1,1.0,0.23750100000000884
87,2,0.5,0.125,-35.0,-1,1.0,0.18600100000003295
88,2,0.5,1.0,-35.0,-1,1.0,0.18360100000001012
89,2,0.5,0.125,-35.0,-1,1.0,4.110701000000006
90,2,0.5,0.125,35.0,1,1.0,1.1496010000000183
91,2,0.8,0.125,-35.0,-1,1.0,0.24490100000002712
92,2,0.8,0.125,-35.0,-1,1.0,0.1971009999999751
93,2,0.8,0.125,-35.0,-1,1.0,0.13930100000004586
94,2,0.8,1.0,35.0,1,1.0,0.22820000000001528
95,2,0.8,0.125,35.0,-1,0.0,0.293500999999992
96,2,0.8,0.125,35.0,1,1.0,0.3415010000000507
97,2,0.8,0.25,-35.0,-1,1.0,2.999001000000021
98,2,0.8,0.0625,-35.0,-1,1.0,5.1431010000000015
99,2,0.8,1.0,-35.0,-1,1.0,0.18210099999998874
100,2,0.8,0.0,-35.0,1,0.0,0.5308009999999967
101,2,0.8,0.125,-35.0,-1,1.0,0.16030100000000402
102,2,0.8,0.125,-35.0,-1,1.0,0.4531010000000606
103,2,0.8,0.125,-35.0,-1,1.0,0.23450100000007978
104,2,0.8,1.0,-35.0,-1,1.0,0.22860100000002603
105,2,0.8,1.0,35.0,1,1.0,0.20170100000001412
106,2,0.8,0.0,-35.0,-1,1.0,3.995601000000022
107,2,0.8,1.0,-35.0,-1,1.0,0.874100999999996
108,2,0.8,0.25,35.0,1,1.0,0.2639010000000326
109,2,0.8,0.25,35.0,1,1.0,0.2639010000000326
110,2,0.8,0.25,35.0,1,1.0,0.7471009999999865
111,2,0.8,0.0625,-35.0,1,0.0,2.5087009999999736
112,2,0.8,1.0,-35.0,-1,1.0,0.1816010000000574
113,2,0.8,1.0,35.0,1,1.0,1.7534010000000535
114,2,0.8,1.0,35.0,1,1.0,0.38680100000004813
115,2,0.8,0.125,-35.0,-1,1.0,0.3972009999999955
116,2,0.8,1.0,-35.0,-1,1.0,0.22990099999998392
117,2,0.8,1.0,-35.0,-1,1.0,0.4906010000000265
118,2,0.8,1.0,35.0,1,1.0,0.22480100000007042
119,2,0.8,0.0625,-35.0,-1,1.0,0.7271010000000047
120,2,0.8,1.0,-35.0,-1,1.0,0.053201000000001386
121,2,0.8,1.0,-35.0,-1,1.0,0.19080100000002176
122,2,0.2,0.0625,35.0,1,1.0,0.6040009999999825
123,2,0.2,0.25,35.0,1,1.0,0.5805010000000266
124,2,0.2,1.0,35.0,1,1.0,0.22620100000006005
125,2,0.2,1.0,35.0,1,1.0,0.23360100000002149
126,2,0.2,0.0,35.0,-1,0.0,1.3807010000000446
127,2,0.2,1.0,-35.0,-1,1.0,0.18230100000005223
128,2,0.2,0.25,35.0,1,1.0,0.23530099999999265
129,2,0.2,0.0,35.0,1,1.0,0.44780100000002676
130,2,0.2,0.0625,35.0,-1,0.0,0.4146010000000615
131,2,0.2,1.0,35.0,1,1.0,0.2518010000000004
132,2,0.2,0.125,35.0,-1,0.0,0.4922010000000796
133,2,0.2,1.0,35.0,1,1.0,0.22050100000001294
134,2,0.2,0.125,-35.0,-1,1.0,0.5478009999999927
135,2,0.2,0.0625,35.0,1,1.0,0.3526010000000497
136,2,0.2,0.125,35.0,1,1.0,0.3870010000000548
137,2,0.2,0.0625,35.0,1,1.0,0.5172010000000569
138,2,0.2,0.0625,35.0,-1,0.0,1.403300999999999
139,2,0.2,0.25,35.0,1,1.0,0.2221010000000092
140,2,0.2,1.0,-35.0,-1,1.0,0.17650100000003022
141,2,0.2,0.25,35.0,1,1.0,1.8394010000000094
142,2,0.2,0.125,35.0,1,1.0,0.23080100000004222
143,2,0.2,0.0625,35.0,1,1.0,2.0053009999999745
144,2,0.2,0.125,35.0,1,1.0,1.579701
145,2,0.2,0.125,35.0,1,1.0,0.6403010000000222
146,2,0.2,0.0625,35.0,-1,0.0,2.229300999999964
147,2,0.2,0.0625,-35.0,-1,1.0,0.4181010000000356
148,2,0.2,0.125,35.0,1,1.0,0.6039010000000076
149,2,0.2,1.0,35.0,1,1.0,0.26080099999990125
150,2,0.2,0.25,-35.0,-1,1.0,0.1788010000000213
151,2,0.8,0.0625,-35.0,-1,1.0,0.5916009999999687
152,2,0.8,1.0,-35.0,-1,1.0,0.22880099999997583
153,2,0.8,0.25,-35.0,-1,1.0,0.19000099999993836
154,2,0.8,0.125,-35.0,-1,1.0,0.24070100000005823
155,2,0.8,0.25,-35.0,-1,1.0,0.24310100000002421
156,2,0.8,1.0,-35.0,-1,1.0,0.20550100000002658
157,2,0.8,0.125,-35.0,-1,1.0,0.8125009999998838
158,2,0.8,1.0,35.0,1,1.0,0.27490099999988615
159,2,0.8,1.0,-35.0,-1,1.0,1.6576009999999997
160,2,0.8,0.125,-35.0,-1,1.0,1.041101000000026
161,2,0.8,0.25,35.0,1,1.0,0.24220100000002276
162,2,0.8,0.25,-35.0,-1,1.0,0.601900999999998
163,2,0.8,0.0,-35.0,-1,1.0,0.26100099999996473
164,2,0.8,0.0625,35.0,-1,0.0,0.2700009999998656
165,2,0.8,0.125,-35.0,-1,1.0,0.24590100000000348
166,2,0.8,0.0625,-35.0,-1,1.0,0.22590099999990798
167,2,0.8,0.25,-35.0,-1,1.0,0.27850100000000566
168,2,0.8,0.25,-35.0,-1,1.0,3.255100999999968
169,2,0.8,0.0,-35.0,-1,1.0,1.5358009999998785
170,2,0.8,0.0625,-35.0,-1,1.0,0.26220100000000457
171,2,0.8,0.25,35.0,1,1.0,0.26260099999990416
172,2,0.8,1.0,-35.0,-1,1.0,0.20680099999992763
173,2,0.8,0.125,-35.0,-1,1.0,0.7002009999999927
174,2,0.8,0.0625,-35.0,1,0.0,0.7377009999999018
175,2,0.8,0.0,-35.0,-1,1.0,0.23720099999991362
176,2,0.8,0.25,-35.0,-1,1.0,0.19970099999989088
177,2,0.8,1.0,-35.0,-1,1.0,0.15030100000001312
178,2,0.8,0.125,-35.0,-1,1.0,1.205400999999938
179,2,0.8,0.0625,-35.0,-1,1.0,0.5994009999999435
180,2,0.8,0.25,-35.0,-1,1.0,0.2677009999999882
181,2,0.8,0.0625,-35.0,-1,1.0,1.7635009999999056
182,2,0.8,0.0,-35.0,-1,1.0,0.10160099999984595
183,2,0.8,0.0625,-35.0,-1,1.0,0.9914009999998825
184,2,0.8,0.0625,-35.0,-1,1.0,0.1792009999999209
185,2,0.8,0.0625,-35.0,-1,1.0,2.3218009999999367
186,2,0.8,0.25,35.0,1,1.0,0.3038010000000213
187,2,0.8,0.125,-35.0,-1,1.0,0.20790099999999256
188,2,0.8,0.25,-35.0,-1,1.0,1.9158009999999877
189,2,0.8,0.25,-35.0,-1,1.0,0.21190100000001166
190,2,0.8,0.0,35.0,-1,0.0,0.18640099999993254
191,2,0.8,0.0625,-35.0,1,0.0,0.21090099999992162
192,2,0.8,1.0,-35.0,-1,1.0,0.16570100000001275
193,2,0.8,0.125,-35.0,-1,1.0,0.2254010000000335
194,2,0.8,0.25,-35.0,-1,1.0,0.22380099999998038
195,2,0.2,1.0,-35.0,-1,1.0,0.1929010000000062
196,2,0.2,0.0625,35.0,-1,0.0,0.2197009999998727
197,2,0.2,1.0,35.0,1,1.0,0.2031009999999469
198,2,0.2,1.0,-35.0,-1,1.0,1.0857009999999718
199,2,0.2,0.125,35.0,1,1.0,0.27700099999992744
200,2,0.2,0.0,35.0,-1,0.0,0.2214010000000144
201,2,0.2,0.0625,-35.0,-1,1.0,0.23300099999994472
202,2,0.2,1.0,35.0,1,1.0,0.3237010000000282
203,2,0.2,0.125,35.0,1,1.0,0.5452009999999063
204,2,0.2,0.125,35.0,1,1.0,0.2972010000000864
205,2,0.2,0.125,35.0,1,1.0,1.7898009999998976
206,2,0.2,0.0625,-35.0,-1,1.0,0.34580099999993763
207,2,0.2,0.25,35.0,1,1.0,0.7936009999999669
208,2,0.2,1.0,35.0,1,1.0,0.22240099999999074
209,2,0.2,0.0,35.0,-1,0.0,1.6963009999999485
210,2,0.2,1.0,35.0,1,1.0,0.23810099999991508
211,2,0.2,0.125,-35.0,-1,1.0,1.956100999999876
212,2,0.2,0.0625,35.0,-1,0.0,0.3104009999999562
213,2,0.2,0.0625,35.0,1,1.0,0.21780100000000857
214,2,0.2,0.0625,35.0,-1,0.0,0.23680100000001403
215,2,0.2,0.125,35.0,1,1.0,0.5048009999999294
216,2,0.2,0.0,35.0,-1,0.0,2.832600999999954
217,2,0.2,0.0,35.0,-1,0.0,0.17950099999995928
218,2,0.2,1.0,35.0,1,1.0,0.1889009999999871
219,2,0.2,0.125,35.0,1,1.0,3.0794010000000753
220,2,0.2,0.0,-35.0,1,0.0,0.40820099999996273
221,2,0.2,1.0,35.0,1,1.0,0.22420099999987997
222,2,0.2,0.25,35.0,1,1.0,0.26120099999991453
223,2,0.8,1.0,35.0,1,1.0,1.1448009999999158
224,2,0.8,0.25,-35.0,-1,1.0,0.2335010000000466
225,2,0.8,0.0625,-35.0,-1,1.0,0.23050100000000384
226,2,0.8,0.25,-35.0,-1,1.0,0.24230099999999766
227,2,0.8,0.25,-35.0,-1,1.0,0.20000099999992926
228,2,0.8,0.25,-35.0,-1,1.0,1.499900999999909
229,2,0.8,0.0625,35.0,1,1.0,0.3144009999999753
230,2,0.8,1.0,-35.0,-1,1.0,0.20150100000000748
231,2,0.8,1.0,-35.0,-1,1.0,0.20220099999994545
232,2,0.8,0.0625,35.0,1,1.0,1.0382009999999582
233,2,0.8,0.0625,35.0,1,1.0,0.3807009999999309
234,2,0.8,0.25,-35.0,-1,1.0,0.22990099999992708
235,2,0.8,0.125,-35.0,-1,1.0,0.3886009999999942
236,2,0.8,0.0625,-35.0,-1,1.0,0.3521009999999478
237,2,0.8,0.25,-35.0,-1,1.0,2.742100999999934
238,2,0.8,0.0625,-35.0,-1,1.0,0.32500099999992926
239,2,0.8,0.25,-35.0,-1,1.0,0.22640099999989616
240,2,0.8,1.0,-35.0,-1,1.0,0.2752010000000382
241,2,0.8,0.0,35.0,-1,0.0,0.1971009999999751
242,2,0.8,0.0625,-35.0,-1,1.0,0.2256009999998696
243,2,0.8,0.0625,-35.0,-1,1.0,0.17330100000003767
244,2,0.8,0.125,-35.0,-1,1.0,0.19340099999999438
245,2,0.8,1.0,-35.0,-1,1.0,1.6631009999999833
246,2,0.8,0.0625,35.0,-1,0.0,1.2133010000000013
247,2,0.8,0.125,35.0,1,1.0,0.30270099999995637
248,2,0.8,1.0,-35.0,-1,1.0,0.2172009999999318
249,2,0.8,0.0625,35.0,1,1.0,0.37560099999996055
250,2,0.8,0.125,-35.0,-1,1.0,0.27940099999989343
251,2,0.8,0.25,-35.0,-1,1.0,0.2011009999999942
252,2,0.8,0.25,35.0,1,1.0,0.2682009999999764
253,2,0.8,0.25,-35.0,-1,1.0,1.2090009999999438
254,2,0.8,1.0,-35.0,-1,1.0,0.265500999999972
255,2,0.8,0.0625,-35.0,-1,1.0,0.30550099999993563
256,2,0.8,0.25,-35.0,-1,1.0,0.4170009999999138
257,2,0.8,0.25,-35.0,-1,1.0,0.01550099999997201
258,2,0.8,0.25,-35.0,-1,1.0,1.7075009999999793
259,2,0.8,0.25,-35.0,-1,1.0,0.2251009999999951
260,2,0.8,0.125,-35.0,-1,1.0,0.2478009999999813
261,2,0.8,0.25,-35.0,-1,1.0,0.8619009999999889
262,2,0.8,0.0,-35.0,-1,1.0,0.2963009999999713
263,2,0.8,1.0,-35.0,-1,1.0,0.22450099999991835
264,2,0.8,1.0,-35.0,-1,1.0,0.18240100000002712
265,2,0.8,0.25,35.0,1,1.0,2.832100999999966
266,2,0.8,0.0625,-35.0,-1,1.0,0.38170100000002094
267,2,0.8,0.0,-35.0,-1,1.0,0.19880100000000311
268,2,0.8,0.25,-35.0,-1,1.0,0.2096009999999069
269,2,0.8,0.125,-35.0,-1,1.0,0.2501009999999724
270,2,0.8,1.0,-35.0,-1,1.0,0.14510099999995418
271,2,0.8,0.125,-35.0,-1,1.0,1.557600999999977
272,2,0.8,0.125,-35.0,-1,1.0,0.5934009999999716
273,2,0.8,0.0,-35.0,-1,1.0,0.33150099999988925
274,2,0.8,0.25,-35.0,-1,1.0,0.2173009999999067
275,2,0.8,0.25,-35.0,-1,1.0,0.2091009999999187
276,2,0.8,0.0625,35.0,1,1.0,0.22020099999997456
277,2,0.8,0.0,-35.0,-1,1.0,0.7136010000000397
278,2,0.8,0.25,35.0,1,1.0,0.9433009999999058
279,2,0.8,0.125,-35.0,-1,1.0,0.42820099999983086
280,2,0.2,0.125,35.0,1,1.0,0.4676010000000588
281,2,0.2,1.0,35.0,1,1.0,0.2152009999999791
282,2,0.2,1.0,35.0,1,1.0,0.1748010000000022
283,2,0.2,1.0,-35.0,-1,1.0,0.18790100000001075
284,2,0.2,0.25,35.0,1,1.0,0.29470100000003185
285,2,0.2,0.25,-35.0,-1,1.0,0.18930100000000039
286,2,0.2,0.25,-35.0,-1,1.0,0.8093010000000049
287,2,0.2,0.0625,-35.0,-1,1.0,1.0523009999998294
288,2,0.2,0.0,35.0,-1,0.0,3.4090009999999893
289,2,0.2,0.25,35.0,1,1.0,0.4961009999999533
290,2,0.2,0.0625,35.0,1,1.0,3.0445009999999684
291,2,0.2,1.0,35.0,1,1.0,0.20790099999987888
292,2,0.2,0.0625,-35.0,-1,1.0,0.18630100000007133
293,2,0.2,1.0,35.0,1,1.0,0.32930099999987306
294,2,0.2,0.0,35.0,-1,0.0,0.4760009999998829
295,2,0.2,0.125,35.0,-1,0.0,0.3228009999997994
296,2,0.2,0.125,35.0,1,1.0,0.4095009999998638
297,2,0.2,0.0625,35.0,1,1.0,2.3963010000001077
298,2,0.2,0.0625,35.0,-1,0.0,0.33330099999989216
299,2,0.2,0.25,35.0,1,1.0,0.1866010000001097
300,2,0.2,0.0,35.0,-1,0.0,0.34330100000011043
301,2,0.2,0.25,35.0,1,1.0,0.1973009999999249
302,2,0.2,0.0,35.0,1,1.0,2.6274009999999635
303,2,0.2,0.125,-35.0,-1,1.0,3.7273009999998976
304,2,0.2,0.125,35.0,1,1.0,0.3807010000000446
305,2,0.2,0.25,35.0,1,1.0,0.23430099999995946
306,2,0.2,0.0625,35.0,1,1.0,0.2414009999999962
307,2,0.2,0.125,35.0,1,1.0,0.33130099999993945
308,2,0.2,0.25,-35.0,-1,1.0,0.20470099999988633
309,2,0.2,0.0,35.0,1,1.0,0.4549010000000635
310,2,0.2,1.0,35.0,1,1.0,0.22490100000004531
311,2,0.2,1.0,35.0,1,1.0,0.14840099999992162
312,2,0.2,0.25,-35.0,-1,1.0,0.28870100000017374
313,2,0.2,1.0,35.0,1,1.0,0.21850100000006023
314,2,0.2,1.0,35.0,1,1.0,0.29860099999996237
315,2,0.2,1.0,35.0,1,1.0,0.205400999999938
316,2,0.2,0.25,35.0,1,1.0,0.2854010000000926
317,2,0.2,1.0,-35.0,-1,1.0,3.2295010000000275
318,2,0.2,0.0,35.0,1,1.0,1.7360009999999875
319,2,0.2,0.125,-35.0,-1,1.0,0.4330010000001039
320,2,0.2,0.0625,35.0,1,1.0,0.5803009999999631
321,2,0.2,0.0625,-35.0,-1,1.0,0.04970099999991362
322,2,0.2,0.125,35.0,1,1.0,0.2599009999998998
323,2,0.2,0.25,35.0,1,1.0,0.2898009999998976
324,2,0.2,0.125,35.0,1,1.0,2.0899010000000544
325,2,0.8,0.25,-35.0,-1,1.0,0.2900010000000748
326,2,0.8,0.0625,-35.0,1,0.0,2.57000099999982
327,2,0.8,0.25,35.0,1,1.0,0.23040100000002894
328,2,0.8,0.25,35.0,1,1.0,0.26070099999992635
329,2,0.8,0.125,35.0,1,1.0,1.4348009999998794
330,2,0.8,0.125,-35.0,-1,1.0,0.2740009999999984
331,2,0.8,0.125,-35.0,-1,1.0,0.22430099999996855
332,2,0.8,0.0625,-35.0,-1,1.0,0.39770100000009734
333,2,0.8,0.0625,35.0,1,1.0,0.9480009999997492
334,2,0.8,0.0625,-35.0,-1,1.0,0.27480099999979757
335,2,0.8,1.0,-35.0,-1,1.0,0.21860100000003513
336,2,0.8,0.0,35.0,-1,0.0,0.5286009999999806
337,2,0.8,0.0625,-35.0,1,0.0,0.3156010000000151
338,2,0.8,0.0625,-35.0,-1,1.0,0.16870099999982813
339,2,0.8,0.125,-35.0,-1,1.0,3.4461009999999987
340,2,0.8,0.25,-35.0,-1,1.0,0.18230100000005223
341,2,0.8,0.125,-35.0,-1,1.0,0.26900099999988925
342,2,0.8,0.125,-35.0,-1,1.0,0.18560099999990598
343,2,0.8,1.0,-35.0,-1,1.0,0.13960100000008424
344,2,0.8,0.25,35.0,1,1.0,0.2558009999997921
345,2,0.8,0.0,-35.0,-1,1.0,0.6627010000001974
346,2,0.8,0.0625,-35.0,-1,1.0,2.769600999999966
347,2,0.8,0.125,-35.0,-1,1.0,0.24300100000004932
348,2,0.8,0.125,-35.0,-1,1.0,0.24670100000003004
349,2,0.8,0.125,35.0,1,1.0,0.37330100000008315
350,2,0.8,0.25,35.0,1,1.0,0.3004009999999653
351,2,0.8,0.125,-35.0,1,0.0,0.4970010000001821
352,2,0.8,0.0,-35.0,-1,1.0,0.22430099999996855
353,2,0.8,0.125,-35.0,-1,1.0,0.8508009999998194
354,2,0.8,0.25,-35.0,-1,1.0,0.19400099999984377
355,2,0.8,0.25,-35.0,-1,1.0,0.20080099999972845
356,2,0.8,0.0,-35.0,-1,1.0,1.9377009999998336
357,2,0.8,0.125,-35.0,-1,1.0,0.264699999999948
358,2,0.8,0.0,-35.0,-1,1.0,0.22500099999979284
359,2,0.8,0.125,-35.0,-1,1.0,0.2013009999998303
360,2,0.8,0.125,-35.0,-1,1.0,0.27490099999999984
361,2,0.8,1.0,-35.0,-1,1.0,0.1549009999998816
362,2,0.8,0.125,-35.0,-1,1.0,1.5582009999998263
363,2,0.8,0.25,-35.0,-1,1.0,0.07170099999984814
364,2,0.8,0.25,-35.0,-1,1.0,0.3285009999999602
365,2,0.8,0.25,35.0,1,1.0,0.30530099999987215
366,2,0.8,0.25,-35.0,-1,1.0,0.9987009999999827
367,2,0.8,0.0625,-35.0,-1,1.0,0.2762009999999009
368,2,0.8,0.0625,35.0,1,1.0,0.7388009999999667
369,2,0.8,0.125,-35.0,-1,1.0,0.3629009999997379
370,2,0.8,0.0,-35.0,1,0.0,0.4292009999999209
371,2,0.8,0.25,-35.0,-1,1.0,0.2964009999998325
372,2,0.8,0.0,-35.0,-1,1.0,1.6432009999998627
373,2,0.8,0.25,-35.0,-1,1.0,0.22670099999982085
374,2,0.8,0.0625,-35.0,-1,1.0,0.22980099999995218
375,2,0.2,1.0,35.0,1,1.0,0.8902009999999336
376,2,0.2,0.25,35.0,1,1.0,0.22060099999998783
377,2,0.2,0.0625,35.0,1,1.0,0.3301010000000133
378,2,0.2,0.25,-35.0,-1,1.0,0.5936009999998078
379,2,0.2,0.0,35.0,-1,0.0,2.3708010000000286
380,2,0.2,0.25,35.0,1,1.0,0.17420100000003913
381,2,0.2,0.125,35.0,1,1.0,0.22750100000007478
382,2,0.2,0.25,35.0,1,1.0,0.5409010000000762
383,2,0.2,0.25,35.0,1,1.0,1.4078009999998358
384,2,0.2,0.125,35.0,1,1.0,0.5280009999999038
385,2,0.2,1.0,-35.0,-1,1.0,0.0279009999999289
386,2,0.2,0.0625,35.0,1,1.0,1.361900999999989
387,2,0.2,0.125,35.0,-1,0.0,0.21880099999998492
388,2,0.2,0.0625,35.0,-1,0.0,0.5182010000000901
389,2,0.2,1.0,35.0,1,1.0,0.20890099999974154
390,2,0.2,0.0625,35.0,-1,0.0,0.3119010000000344
391,2,0.2,0.25,35.0,1,1.0,0.2590010000001257
392,2,0.2,1.0,-35.0,-1,1.0,0.20250099999998383
393,2,0.2,0.25,35.0,1,1.0,0.21900099999993472
394,2,0.2,0.125,35.0,1,1.0,0.7960009999997055
395,2,0.2,0.0625,35.0,-1,0.0,0.22600100000022394
396,2,0.2,0.0625,35.0,-1,0.0,0.09620099999983722
397,2,0.2,0.0,35.0,1,1.0,0.1162010000000464
398,2,0.2,1.0,35.0,1,1.0,0.3630009999999402
399,2,0.2,1.0,35.0,1,1.0,2.3465009999999893
400,2,0.2,0.0,35.0,-1,0.0,0.15980100000001585
401,2,0.2,0.0625,35.0,1,1.0,0.5405010000001766
402,2,0.2,0.0,35.0,1,1.0,0.4669010000000071
403,2,0.2,1.0,35.0,1,1.0,0.2437009999998736
404,2,0.2,0.125,-35.0,-1,1.0,0.23040100000002894
405,2,0.2,0.0,-35.0,1,0.0,2.107101000000057
406,2,0.2,0.25,35.0,1,1.0,0.27100099999984195
407,2,0.2,0.0625,-35.0,1,0.0,1.7711010000000442
408,2,0.2,0.0625,35.0,1,1.0,0.45410100000003695
409,2,0.2,1.0,-35.0,-1,1.0,0.23810099999991508
410,2,0.2,0.0,35.0,1,1.0,4.184900999999854
411,2,0.2,0.0625,35.0,-1,0.0,0.15130100000010316
412,2,0.2,1.0,35.0,1,1.0,0.19490099999984523
413,2,0.2,0.25,35.0,1,1.0,0.5889010000000781
414,2,0.2,0.0625,35.0,1,1.0,0.5752009999998791
415,2,0.2,1.0,35.0,1,1.0,0.3286009999999351
416,2,0.2,0.25,35.0,1,1.0,0.32870099999991
417,2,0.2,0.25,35.0,1,1.0,0.33910100000002785
418,2,0.8,0.0625,-35.0,-1,1.0,1.4055009999999584
419,2,0.8,0.0625,-35.0,-1,1.0,2.0091009999998732
420,2,0.8,0.0,-35.0,-1,1.0,0.2092009999998936
421,2,0.8,0.0,-35.0,-1,1.0,0.06950100000017301
422,2,0.8,0.0625,35.0,-1,0.0,6.696200999999746
423,2,0.8,0.25,-35.0,-1,1.0,0.22640100000012353
424,2,0.8,0.125,-35.0,-1,1.0,0.2435009999999238
425,2,0.8,0.125,-35.0,-1,1.0,0.19020099999988815
426,2,0.8,0.125,-35.0,-1,1.0,0.14670100000012098
427,2,0.8,0.25,-35.0,-1,1.0,2.126801000000114
428,2,0.8,1.0,-35.0,-1,1.0,0.20040099999982885
429,2,0.8,0.125,35.0,1,1.0,0.29060099999992417
430,2,0.8,0.125,35.0,1,1.0,0.5172009999998863
431,2,0.8,0.25,-35.0,-1,1.0,0.16440099999977065
432,2,0.8,0.125,-35.0,-1,1.0,0.20780100000001767
433,2,0.8,0.125,-35.0,-1,1.0,0.20420100000001185
434,2,0.8,0.0625,-35.0,-1,1.0,0.9212009999998827
435,2,0.8,1.0,-35.0,-1,1.0,0.19470099999989543
436,2,0.8,0.125,-35.0,-1,1.0,0.24490100000002712
437,2,0.8,0.0,-35.0,-1,1.0,2.631400999999869
438,2,0.8,1.0,-35.0,-1,1.0,2.3682009999997717
439,2,0.8,0.0625,-35.0,-1,1.0,0.23190100000010716
440,2,0.8,0.25,-35.0,-1,1.0,0.24580100000002858
441,2,0.8,0.0625,-35.0,-1,1.0,0.38550099999997656
442,2,0.8,0.25,-35.0,-1,1.0,0.14880099999982122
443,2,0.8,0.0625,-35.0,-1,1.0,0.5093010000000504
444,2,0.8,0.0625,-35.0,-1,1.0,0.22230100000001585
445,2,0.8,1.0,35.0,1,1.0,0.22570100000007187
446,2,0.8,0.25,-35.0,-1,1.0,1.159300999999914
447,2,0.8,1.0,-35.0,-1,1.0,0.31280100000003586
448,2,0.8,0.0625,-35.0,-1,1.0,0.4063010000002123
449,2,0.8,1.0,-35.0,-1,1.0,0.23300099999983104
450,2,0.8,0.0625,35.0,-1,0.0,0.19970100000000457
451,2,0.8,1.0,-35.0,-1,1.0,0.17670099999986633
452,2,0.8,0.25,-35.0,-1,1.0,0.1870010000000093
453,2,0.8,0.0,-35.0,-1,1.0,1.8134009999998852
454,2,0.8,0.125,35.0,1,1.0,2.5136009999998805
455,2,0.8,0.0,-35.0,1,0.0,0.2273009999998976
456,2,0.8,0.0,-35.0,-1,1.0,4.163801000000149
457,2,0.8,1.0,-35.0,-1,1.0,0.19760100000007697
458,2,0.8,0.0,-35.0,1,0.0,0.4408009999999649
459,2,0.8,0.0625,-35.0,-1,1.0,0.22450099999991835
460,2,0.8,0.0625,-35.0,-1,1.0,0.6584009999999125
461,2,0.8,0.0625,35.0,-1,0.0,1.8350009999999202
462,2,0.8,0.25,-35.0,-1,1.0,0.2152009999999791
463,2,0.8,0.0625,-35.0,-1,1.0,1.0854009999998198
464,2,0.8,0.125,35.0,1,1.0,0.7818010000000868
465,2,0.8,1.0,-35.0,-1,1.0,0.198900999999978
466,2,0.8,0.0625,-35.0,-1,1.0,0.13530100000002676
467,2,0.8,1.0,35.0,1,1.0,0.3491009999997914
468,2,0.8,0.125,-35.0,-1,1.0,0.17560100000014245
469,2,0.8,1.0,-35.0,-1,1.0,0.23250099999995655
470,2,0.8,0.0625,35.0,-1,0.0,0.7426009999999224
471,2,0.8,0.25,35.0,1,1.0,0.19630099999972117
472,2,0.8,0.0625,35.0,1,1.0,0.22970099999997728
473,2,0.8,0.25,35.0,1,1.0,0.9365009999999074
474,2,0.8,0.25,-35.0,-1,1.0,0.23010099999987688
475,2,0.8,1.0,35.0,1,1.0,0.30670099999997547
476,2,0.8,0.0625,-35.0,1,0.0,1.7002010000001064
477,2,0.8,0.125,-35.0,-1,1.0,0.1869010000000344
478,2,0.8,0.0625,-35.0,-1,1.0,0.7070009999999911
479,2,0.8,0.0625,-35.0,-1,1.0,0.3038010000000213
480,2,0.8,1.0,-35.0,-1,1.0,0.2075009999998656
481,2,0.8,1.0,35.0,1,1.0,0.03760099999999511
482,2,0.8,0.25,-35.0,-1,1.0,0.28080099999988306
483,2,0.8,0.125,-35.0,-1,1.0,0.7145010000001548
484,2,0.8,0.125,-35.0,-1,1.0,0.3176009999999678
485,2,0.8,0.125,-35.0,-1,1.0,1.157901000000038
486,2,0.8,0.0625,-35.0,-1,1.0,0.35150099999987106
487,2,0.8,0.0625,35.0,-1,0.0,0.19470099999989543
488,2,0.8,0.25,35.0,1,1.0,0.3484009999999671
489,2,0.8,0.25,-35.0,-1,1.0,1.3319010000000162
490,2,0.8,0.0625,-35.0,-1,1.0,0.33520099999986996
491,2,0.8,0.25,35.0,1,1.0,0.2924009999999271
492,2,0.8,0.0625,-35.0,-1,1.0,0.49880099999995764
493,2,0.8,0.125,-35.0,-1,1.0,0.09920099999976628
494,2,0.8,1.0,-35.0,-1,1.0,0.3988009999998212
495,2,0.8,1.0,-35.0,-1,1.0,0.23590100000001257
496,2,0.8,0.125,-35.0,-1,1.0,0.2824009999999362
497,2,0.8,1.0,-35.0,-1,1.0,0.3559010000001308
498,2,0.8,1.0,-35.0,-1,1.0,0.3460010000001148
499,2,0.8,0.0,-35.0,-1,1.0,0.22660100000007333
500,2,0.8,0.0,-35.0,-1,1.0,2.769700999999941
501,2,0.8,0.125,-35.0,-1,1.0,0.18980099999998856
502,2,0.8,0.125,-35.0,-1,1.0,0.6699009999997543
503,2,0.8,0.0,-35.0,-1,1.0,0.24670099999980266
504,2,0.8,0.25,35.0,1,1.0,0.5437010000000555
505,2,0.8,0.0,35.0,1,1.0,0.6205009999998765
506,2,0.8,0.125,35.0,1,1.0,0.554100999999946
507,2,0.8,0.125,35.0,-1,0.0,0.3108009999998558
508,2,0.8,0.0625,-35.0,-1,1.0,0.23470100000008642
509,2,0.8,1.0,35.0,1,1.0,0.18110100000012608
510,2,0.8,1.0,-35.0,-1,1.0,0.18780100000003586
511,2,0.8,0.125,-35.0,-1,1.0,0.29480100000000675
512,2,0.2,0.0625,35.0,1,1.0,1.2317010000001574
513,2,0.2,0.125,35.0,1,1.0,0.5115009999999529
514,2,0.2,0.0,35.0,1,1.0,2.394800999999916
515,2,0.2,0.0,35.0,-1,0.0,4.498800999999958
516,2,0.2,1.0,35.0,1,1.0,0.17570099999988997
517,2,0.2,0.25,35.0,1,1.0,0.6288009999998394
518,2,0.2,0.25,35.0,1,1.0,0.22890099999995073
519,2,0.2,1.0,35.0,1,1.0,0.2194009999998343
520,2,0.2,1.0,35.0,1,1.0,0.27280100000007224
521,2,0.2,0.25,35.0,1,1.0,0.6093009999999595
522,2,0.2,0.125,35.0,1,1.0,0.23610099999996237
523,2,0.2,0.125,35.0,1,1.0,4.512900999999829
524,2,0.2,1.0,35.0,-1,0.0,0.16000100000019302
525,2,0.2,0.25,35.0,1,1.0,0.45690099999978884
526,2,0.2,0.25,35.0,1,1.0,0.21680100000003222
527,2,0.2,0.0625,35.0,1,1.0,0.6539010000001326
528,2,0.2,0.125,35.0,1,1.0,0.5874009999997725
529,2,0.2,0.0,35.0,1,1.0,0.5806010000001152
530,2,0.2,0.25,35.0,1,1.0,0.3410009999997783
531,2,0.2,1.0,35.0,1,1.0,0.26090099999987615
532,2,0.2,1.0,35.0,1,1.0,0.5243009999999231
533,2,0.2,0.25,35.0,1,1.0,0.4010009999999511
534,2,0.2,0.125,-35.0,-1,1.0,0.3179010000001199
535,2,0.2,0.0,-35.0,-1,1.0,1.5345009999998638
536,2,0.2,0.0625,35.0,1,1.0,0.6883009999999103
537,2,0.2,0.125,35.0,1,1.0,0.9617010000001756
538,2,0.2,0.25,35.0,1,1.0,0.3018009999998412
539,2,0.2,0.125,35.0,1,1.0,0.6820009999999002
540,2,0.2,0.0625,-35.0,-1,1.0,0.8919009999999616
541,2,0.2,0.125,35.0,1,1.0,0.5456009999998059
542,2,0.2,0.125,35.0,1,1.0,0.4090009999999893
543,2,0.2,0.125,-35.0,-1,1.0,2.336001000000124
544,2,0.2,0.25,-35.0,-1,1.0,0.20600100000001476
545,2,0.2,0.125,35.0,-1,0.0,0.2031010000000606
546,2,0.2,0.0,35.0,-1,0.0,0.25980100000015227
547,2,0.2,0.0625,-35.0,-1,1.0,0.18360100000018065
548,2,0.2,0.25,35.0,1,1.0,0.32700100000010934
549,2,0.2,1.0,35.0,1,1.0,0.1970010000000002
550,2,0.2,0.0,35.0,1,1.0,1.0241009999999733
551,2,0.2,1.0,35.0,1,1.0,0.3905009999998583
552,2,0.2,1.0,-35.0,-1,1.0,0.1971009999999751
553,2,0.2,0.0,35.0,-1,0.0,0.5874009999999998
554,2,0.2,0.25,35.0,1,1.0,0.7074009999998907
555,2,0.2,0.125,35.0,1,1.0,0.8344009999998434
556,2,0.2,0.25,35.0,1,1.0,1.205000999999811
557,2,0.2,0.125,35.0,1,1.0,0.28460100000006605
558,2,0.2,1.0,-35.0,-1,1.0,0.39810099999999693
559,2,0.2,0.0625,35.0,1,1.0,0.6014009999998962
560,2,0.2,0.0625,35.0,-1,0.0,0.1851010000000315
561,2,0.2,0.125,35.0,1,1.0,0.9118009999999686
562,2,0.2,0.0625,35.0,-1,0.0,0.2821010000000115
563,2,0.2,0.0625,-35.0,-1,1.0,0.46210100000007515
564,2,0.2,0.0625,35.0,-1,0.0,0.2891010000000733
565,2,0.2,0.0625,35.0,1,1.0,0.26240099999995437
566,2,0.8,0.0,-35.0,1,0.0,0.3623010000001159
567,2,0.8,0.25,35.0,1,1.0,0.705801000000065
568,2,0.8,0.0625,-35.0,-1,1.0,0.289400999999998
569,2,0.8,0.0625,-35.0,-1,1.0,0.3962010000000191
570,2,0.8,0.125,-35.0,-1,1.0,0.6028009999999995
571,2,0.8,0.25,35.0,1,1.0,0.2432009999999991
572,2,0.8,1.0,-35.0,-1,1.0,0.19330100000001949
573,2,0.8,0.25,-35.0,-1,1.0,0.243300999999974
574,2,0.8,0.0625,-35.0,1,0.0,0.5172010000001137
575,2,0.8,0.125,-35.0,-1,1.0,0.2638009999998303
576,2,0.8,1.0,35.0,-1,0.0,0.1004009999999198
577,2,0.8,0.0,35.0,-1,0.0,0.414201000000503
578,2,0.8,0.125,-35.0,-1,1.0,0.27080100000011953
579,2,0.8,0.0,-35.0,1,0.0,2.9747010000000955
580,2,0.8,0.125,-35.0,-1,1.0,0.25130099999978484
581,2,0.8,0.125,-35.0,-1,1.0,1.1081010000002607
582,2,0.8,0.25,-35.0,-1,1.0,2.504801000000498
583,2,0.8,1.0,-35.0,-1,1.0,0.20180100000015955
584,2,0.8,0.25,-35.0,-1,1.0,0.3853010000007089
585,2,0.8,0.0,35.0,-1,0.0,0.6923010000000431
586,2,0.8,0.0625,35.0,-1,0.0,0.3190010000002985
587,2,0.8,0.25,35.0,1,1.0,0.212601000000177
588,2,0.8,0.0,-35.0,1,0.0,0.5993010000001959
589,2,0.8,0.25,-35.0,-1,1.0,0.2694010000000162
590,2,0.8,0.125,35.0,1,1.0,0.3028010000002723
591,2,0.8,1.0,-35.0,-1,1.0,0.5328010000002905
592,2,0.8,1.0,-35.0,-1,1.0,0.2329010000003109
593,2,0.8,1.0,-35.0,-1,1.0,0.19630099999994854
594,2,0.8,0.25,35.0,1,1.0,0.28660100000024613
595,2,0.8,0.25,-35.0,-1,1.0,0.6767009999998663
596,2,0.8,0.0625,-35.0,1,0.0,1.0707010000000992
597,2,0.8,0.0,-35.0,-1,1.0,0.3737010000004375
598,2,0.8,0.0,-35.0,-1,1.0,0.3904010000001108
599,2,0.8,1.0,-35.0,-1,1.0,0.36060100000031525
600,2,0.8,1.0,-35.0,-1,1.0,0.19100100000014208
601,2,0.8,0.0625,-35.0,-1,1.0,0.23410100000000966
602,2,0.8,1.0,-35.0,-1,1.0,0.2544010000005983
603,2,0.8,0.25,-35.0,-1,1.0,0.18440099999997983
604,2,0.8,0.0625,-35.0,-1,1.0,0.2478009999999813
605,2,0.8,1.0,-35.0,-1,1.0,0.19140100000049642
606,2,0.8,1.0,-35.0,-1,1.0,1.1517010000002301
607,2,0.8,1.0,-35.0,-1,1.0,0.3916009999998096
608,2,0.8,0.125,-35.0,-1,1.0,1.1582010000006449
609,2,0.8,1.0,-35.0,-1,1.0,0.25180100000034145
610,2,0.8,0.0,-35.0,1,0.0,0.6655009999999493
611,2,0.8,0.125,-35.0,-1,1.0,0.3055010000002767
612,2,0.8,0.125,-35.0,-1,1.0,0.26870099999996455
613,2,0.8,1.0,-35.0,-1,1.0,0.18900100000018938
614,2,0.8,1.0,-35.0,-1,1.0,0.2325010000004113
615,2,0.8,0.25,-35.0,1,0.0,2.185801000000083
616,2,0.8,0.0625,-35.0,-1,1.0,0.35650100000020757
617,2,0.8,0.0625,-35.0,-1,1.0,0.7103010000000722
618,2,0.8,0.0625,-35.0,-1,1.0,0.2365010000003167
619,2,0.8,0.25,-35.0,-1,1.0,0.6566009999996822
620,2,0.8,0.25,35.0,1,1.0,0.2701009999996131
621,2,0.8,0.25,-35.0,-1,1.0,0.1200010000002294
622,2,0.8,0.0625,-35.0,-1,1.0,0.27680099999997765
623,2,0.8,1.0,-35.0,-1,1.0,0.5341010000001916
624,2,0.8,0.125,35.0,1,1.0,0.6104010000003655
625,2,0.8,0.0,-35.0,-1,1.0,0.22790100000020175
626,2,0.8,0.125,-35.0,-1,1.0,0.40430100000048697
627,2,0.8,0.25,-35.0,-1,1.0,0.30760100000043167
628,2,0.8,0.0,-35.0,-1,1.0,0.18500099999982922
629,2,0.8,0.25,-35.0,-1,1.0,0.2045010000001639
630,2,0.8,0.25,-35.0,-1,1.0,0.6612010000003465
631,2,0.8,0.25,-35.0,-1,1.0,0.25460100000009334
632,2,0.8,0.0625,-35.0,-1,1.0,0.4016010000004826
633,2,0.8,0.0625,-35.0,-1,1.0,0.3817010000002483
634,2,0.8,0.25,-35.0,-1,1.0,0.238901000000169
635,2,0.8,0.125,-35.0,-1,1.0,0.6692010000001574
636,2,0.8,0.0625,35.0,1,1.0,3.1690010000002076
637,2,0.2,0.0625,-35.0,-1,1.0,0.3857010000006085
638,2,0.2,0.25,35.0,-1,0.0,3.2164010000001326
639,2,0.2,0.25,35.0,1,1.0,0.5997010000000955
640,2,0.2,0.0625,35.0,1,1.0,0.3099010000000817
641,2,0.2,0.125,35.0,1,1.0,0.6373010000002068
642,2,0.2,0.125,35.0,1,1.0,0.24340099999972153
643,2,0.2,0.0625,35.0,1,1.0,0.30700100000012753
644,2,0.2,0.0625,35.0,1,1.0,0.7473009999998794
645,2,0.2,0.0625,35.0,1,1.0,0.2743009999999231
646,2,0.2,0.125,-35.0,-1,1.0,0.23480100000006132
647,2,0.2,0.0,35.0,-1,0.0,1.0709010000005037
648,2,0.2,0.125,35.0,-1,0.0,0.35480100000040693
649,2,0.2,0.125,35.0,1,1.0,0.3080009999998765
650,2,0.2,0.25,35.0,1,1.0,3.0081010000003516
651,2,0.2,0.125,35.0,1,1.0,1.0619010000004891
652,2,0.2,0.0625,-35.0,-1,1.0,0.5818010000002687
653,2,0.2,0.25,35.0,-1,0.0,0.4254009999999653
654,2,0.2,1.0,35.0,1,1.0,0.24860100000068996
655,2,0.2,0.25,35.0,1,1.0,0.33880100000033053
656,2,0.2,0.25,-35.0,-1,1.0,0.26240099999995437
657,2,0.2,0.0,35.0,-1,0.0,0.488901000000169
658,2,0.2,0.125,35.0,-1,0.0,0.3728009999999813
659,2,0.2,0.125,35.0,1,1.0,0.24980100000038874
660,2,0.2,1.0,35.0,1,1.0,1.9729010000000926
661,2,0.2,0.25,35.0,1,1.0,0.20950100000027305
662,2,0.2,1.0,-35.0,-1,1.0,0.24990100000013626
663,2,0.2,0.0,35.0,-1,0.0,0.9135009999999966
664,2,0.2,1.0,35.0,1,1.0,0.3600010000000111
665,2,0.2,0.0625,35.0,1,1.0,0.26390100000025996
666,2,0.2,1.0,35.0,1,1.0,0.5072009999998954
667,2,0.2,0.0,35.0,1,1.0,0.5139009999998052
668,2,0.2,0.0625,35.0,1,1.0,0.7539010000000417
669,2,0.2,0.125,35.0,1,1.0,1.507300999999643
670,2,0.2,0.125,35.0,1,1.0,0.5809009999998125
671,2,0.2,0.0625,35.0,1,1.0,0.8543010000003051
672,2,0.2,0.25,35.0,1,1.0,0.3010010000002694
673,2,0.8,0.0625,-35.0,-1,1.0,0.23790100000042003
674,2,0.8,0.125,-35.0,-1,1.0,0.7513010000002396
675,2,0.8,0.125,-35.0,-1,1.0,0.18500099999982922
676,2,0.8,0.25,-35.0,-1,1.0,0.28180099999963204
677,2,0.8,1.0,-35.0,-1,1.0,0.22540100000014718
678,2,0.8,0.25,35.0,1,1.0,3.5953009999998358
679,2,0.8,1.0,35.0,1,1.0,0.4894009999998161
680,2,0.8,0.125,-35.0,-1,1.0,0.5023010000004433
681,2,0.8,0.0625,-35.0,-1,1.0,0.3096010000003844
682,2,0.8,0.0625,35.0,1,1.0,0.7491009999998823
683,2,0.8,0.25,-35.0,-1,1.0,0.24650100000008024
684,2,0.8,1.0,-35.0,-1,1.0,0.23610100000041712
685,2,0.8,0.0625,35.0,1,1.0,0.6563009999999849
686,2,0.8,0.125,35.0,1,1.0,0.576701000000412
687,2,0.8,1.0,-35.0,-1,1.0,0.16640100000040547
688,2,0.8,0.125,-35.0,-1,1.0,0.20410100000026432
689,2,0.8,0.25,-35.0,-1,1.0,0.24690100000043458
690,2,0.8,0.25,-35.0,-1,1.0,1.0770010000001093
691,2,0.8,1.0,-35.0,-1,1.0,0.0711010000004535
692,2,0.8,0.125,-35.0,-1,1.0,0.19730100000015227
693,2,0.8,0.125,-35.0,-1,1.0,0.08110100000021703
694,2,0.8,1.0,-35.0,-1,1.0,1.5341010000001916
695,2,0.8,0.0625,-35.0,-1,1.0,0.32110099999999875
696,2,0.8,0.25,-35.0,-1,1.0,0.7043010000002141
697,2,0.8,0.0625,35.0,-1,0.0,0.24120100000027378
698,2,0.8,0.0625,-35.0,1,0.0,0.47150100000044404
699,2,0.8,1.0,-35.0,-1,1.0,0.21210100000007515
700,2,0.2,0.25,35.0,1,1.0,0.2251009999999951
701,2,0.2,0.0625,35.0,-1,0.0,3.321700999999848
702,2,0.2,0.25,35.0,1,1.0,0.25210100000003877
703,2,0.2,1.0,35.0,1,1.0,0.21920100000033926
704,2,0.2,0.0,-35.0,1,0.0,0.3632010000005721
705,2,0.2,1.0,35.0,1,1.0,0.21620099999972808
706,2,0.2,0.0625,35.0,1,1.0,0.5332010000001901
707,2,0.2,0.0625,35.0,1,1.0,0.40320100000008097
708,2,0.2,1.0,35.0,1,1.0,0.4503010000003087
709,2,0.2,0.125,35.0,1,1.0,0.6373010000002068
710,2,0.2,0.0,35.0,1,1.0,0.4072009999999864
711,2,0.2,0.25,-35.0,-1,1.0,0.37050100000033126
712,2,0.2,0.25,35.0,1,1.0,2.487301000000116
713,2,0.2,0.25,35.0,1,1.0,0.2310010000001057
714,2,0.2,0.0625,-35.0,-1,1.0,1.1979010000000017
715,2,0.2,1.0,35.0,1,1.0,0.27470099999982267
716,2,0.2,0.0625,35.0,-1,0.0,0.21130100000027596
717,2,0.2,1.0,35.0,1,1.0,0.48800100000016755
718,2,0.2,0.0625,35.0,1,1.0,0.48480100000051607
719,2,0.2,0.0625,35.0,1,1.0,1.7815010000003895
720,2,0.2,0.125,35.0,-1,0.0,0.294901000000209
721,2,0.2,0.125,-35.0,-1,1.0,0.27830100000028324
722,2,0.2,1.0,35.0,1,1.0,0.2356009999998605
723,2,0.2,0.0625,35.0,-1,0.0,1.818500999999742
724,2,0.2,0.25,35.0,1,1.0,0.22240099999999074
725,2,0.8,1.0,35.0,1,1.0,0.25560100000029706
726,2,0.8,0.125,-35.0,-1,1.0,1.8192010000002483
727,2,0.8,1.0,-35.0,-1,1.0,0.2664010000003145
728,2,0.8,0.125,35.0,1,1.0,0.24610100000018065
729,2,0.8,1.0,-35.0,-1,1.0,0.20340099999975791
730,2,0.8,0.0625,-35.0,-1,1.0,2.9796010000000024
731,2,0.8,0.25,35.0,1,1.0,0.2666010000002643
732,2,0.8,0.125,-35.0,-1,1.0,0.24990100000013626
733,2,0.8,0.0625,-35.0,-1,1.0,0.630301000000145
734,2,0.8,1.0,-35.0,-1,1.0,0.23700100000041857
735,2,0.8,0.125,-35.0,-1,1.0,1.6837009999999282
736,2,0.8,0.25,-35.0,-1,1.0,0.8775009999999384
737,2,0.8,1.0,-35.0,-1,1.0,0.21100100000057864
738,2,0.8,0.125,35.0,-1,0.0,2.1645010000002003
739,2,0.8,0.125,-35.0,-1,1.0,3.734501000000364
740,2,0.8,0.25,-35.0,-1,1.0,0.2215009999999893
741,2,0.8,0.25,35.0,1,1.0,0.5718010000000504
742,2,0.8,0.0625,-35.0,-1,1.0,2.3085009999999784
743,2,0.8,0.0,-35.0,-1,1.0,0.3718010000002323
744,2,0.8,0.25,-35.0,-1,1.0,0.2585010000002512
745,2,0.8,1.0,-35.0,-1,1.0,0.20550100000036764
746,2,0.8,0.25,35.0,1,1.0,0.33260100000006787
747,2,0.8,0.0625,-35.0,-1,1.0,0.6326010000002498
748,2,0.8,1.0,-35.0,-1,1.0,1.4425010000004477
749,2,0.8,0.0,-35.0,-1,1.0,0.9764010000003509
750,2,0.8,0.0,-35.0,-1,1.0,0.4828010000001086
751,2,0.2,1.0,-35.0,-1,1.0,0.17990099999997256
752,2,0.2,0.0625,35.0,-1,0.0,0.5136010000001079
753,2,0.2,1.0,35.0,1,1.0,0.22990100000015445
754,2,0.2,0.125,35.0,1,1.0,1.4967010000004848
755,2,0.2,1.0,35.0,1,1.0,0.29040100000020175
756,2,0.2,0.0,35.0,-1,0.0,0.2976010000002134
757,2,0.2,0.25,35.0,1,1.0,0.22760100000050443
758,2,0.2,0.125,35.0,1,1.0,0.6407010000002629
759,2,0.2,0.0625,35.0,1,1.0,0.4313010000000759
760,2,0.2,0.25,35.0,1,1.0,2.698000999999749
761,2,0.2,0.0,-35.0,1,0.0,0.3478010000003451
762,2,0.2,0.25,35.0,1,1.0,0.45810100000016973
763,2,0.2,0.25,35.0,1,1.0,0.2049010000000635
764,2,0.2,0.0,35.0,-1,0.0,0.11200100000041857
765,2,0.2,0.25,35.0,1,1.0,0.2421009999998205
766,2,0.2,0.125,35.0,1,1.0,0.7154009999999289
767,2,0.2,0.0625,35.0,1,1.0,2.3426009999998314
768,2,0.2,0.125,35.0,1,1.0,0.5889010000000781
769,2,0.2,0.25,35.0,1,1.0,0.6957010000000992
770,2,0.2,0.0,-35.0,-1,1.0,0.28270100000008824
771,2,0.2,1.0,35.0,1,1.0,0.3360010000001239
772,2,0.2,0.0625,35.0,1,1.0,1.1200009999997746
773,2,0.2,0.0625,-35.0,1,0.0,1.4065009999999347
774,2,0.2,0.0625,-35.0,-1,1.0,0.3097010000001319
775,2,0.2,0.0625,35.0,-1,0.0,1.0937010000002374
776,2,0.2,0.25,35.0,1,1.0,0.386801000000105
777,2,0.2,0.25,35.0,1,1.0,0.22040100000049279
778,2,0.2,0.25,35.0,1,1.0,0.547001000000364
779,2,0.2,0.0625,35.0,1,1.0,0.4507010000002083
780,2,0.2,0.0625,35.0,1,1.0,0.34080100000028324
781,2,0.2,0.0625,35.0,1,1.0,0.3278010000003633
782,2,0.2,1.0,35.0,1,1.0,0.32090000000016516
783,2,0.2,0.25,35.0,1,1.0,0.3778010000000904
784,2,0.2,1.0,35.0,1,1.0,0.20480100000031598
785,2,0.2,0.0625,-35.0,1,0.0,1.9280010000002221
786,2,0.2,0.0,35.0,-1,0.0,0.05190099999981612
787,2,0.2,0.125,35.0,1,1.0,0.2049010000000635
788,2,0.2,1.0,35.0,1,1.0,0.26550100000031307
789,2,0.2,0.125,35.0,1,1.0,0.4618009999999231
790,2,0.2,0.25,35.0,1,1.0,0.6119010000002163
791,2,0.2,1.0,35.0,1,1.0,0.312300999999934
792,2,0.2,1.0,35.0,1,1.0,0.3824010000003
793,2,0.2,0.125,35.0,1,1.0,1.9189010000000053
794,2,0.2,0.125,35.0,1,1.0,1.1559010000000853
795,2,0.2,1.0,35.0,1,1.0,0.3493009999997412
796,2,0.2,0.125,35.0,-1,0.0,0.5659009999999398
797,2,0.2,0.0625,35.0,1,1.0,0.4267009999998663
798,2,0.2,0.0,-35.0,1,0.0,0.6165010000004258
799,2,0.2,0.0,-35.0,-1,1.0,0.5835010000000693
800,2,0.2,0.125,35.0,1,1.0,0.5770010000001093
801,2,0.2,0.0625,35.0,-1,0.0,12.51350100000036
802,2,0.2,0.0,35.0,-1,0.0,2.534200999999939
803,2,0.2,0.0625,35.0,1,1.0,0.22800099999994927
804,2,0.2,0.125,-35.0,-1,1.0,0.21800100000018574
805,2,0.2,0.0,35.0,-1,0.0,4.344501000000037
806,2,0.2,0.125,-35.0,-1,1.0,0.3283010000000104
807,2,0.2,0.0625,35.0,-1,0.0,2.4452009999999973
808,2,0.2,0.125,35.0,1,1.0,0.3751010000005408
809,2,0.2,0.0,35.0,-1,0.0,0.38880100000051243
810,2,0.2,0.0,-35.0,1,0.0,0.3555010000004586
811,2,0.2,0.125,35.0,-1,0.0,14.53280100000029
812,2,0.2,1.0,-35.0,-1,1.0,0.4265010000003713
813,2,0.2,0.0625,-35.0,-1,1.0,2.617000000000189
814,2,0.2,0.0625,-35.0,-1,1.0,0.2835010000003422
815,2,0.2,0.25,35.0,-1,0.0,0.3302009999997608
816,2,0.2,0.25,35.0,1,1.0,0.4138010000006034
817,2,0.2,0.25,35.0,1,1.0,0.24070100000017192
818,2,0.2,0.0,35.0,1,1.0,6.0974010000004455
819,2,0.2,0.0625,35.0,1,1.0,1.0976010000003953
820,2,0.2,1.0,35.0,1,1.0,0.22440099999994345
821,2,0.2,1.0,-35.0,-1,1.0,0.2512010000000373
822,2,0.8,1.0,-35.0,-1,1.0,0.2649010000004637
823,2,0.8,1.0,-35.0,-1,1.0,0.4517009999999573
824,2,0.8,0.0625,-35.0,-1,1.0,0.5717010000003029
825,2,0.8,0.125,-35.0,-1,1.0,0.4082010000001901
826,2,0.8,0.125,-35.0,-1,1.0,0.6084010000004128
827,2,0.8,0.25,-35.0,-1,1.0,0.6419010000004164
828,2,0.8,0.25,-35.0,-1,1.0,0.2352009999999609
829,2,0.8,1.0,-35.0,-1,1.0,0.2492010000000846
830,2,0.8,1.0,-35.0,-1,1.0,0.33930099999997765
831,2,0.8,0.25,-35.0,-1,1.0,0.25560100000029706
832,2,0.8,0.25,35.0,-1,0.0,0.3262009999998554
833,2,0.8,0.0625,35.0,-1,0.0,0.19330100000024686
834,2,0.8,0.25,-35.0,-1,1.0,0.23260100000015882
835,2,0.8,1.0,-35.0,-1,1.0,0.186301000000185
836,2,0.8,1.0,35.0,-1,0.0,0.26290100000005623
837,2,0.8,0.25,-35.0,-1,1.0,0.2336009999999078
838,2,0.8,1.0,-35.0,-1,1.0,0.2003010000003087
839,2,0.8,1.0,-35.0,-1,1.0,0.050301000000217755
840,2,0.8,0.125,35.0,1,1.0,2.400301000000127
841,2,0.8,1.0,-35.0,-1,1.0,0.18740100000013626
842,2,0.8,0.0625,-35.0,-1,1.0,0.26380100000051243
843,2,0.8,0.125,-35.0,-1,1.0,0.2207010000001901
844,2,0.8,0.125,-35.0,-1,1.0,2.7107010000004266
845,2,0.8,1.0,-35.0,-1,1.0,0.23770100000001548
846,2,0.8,0.125,35.0,-1,0.0,0.28090100000008533
847,2,0.8,0.0,-35.0,-1,1.0,0.2112010000000737
848,2,0.8,0.25,-35.0,-1,1.0,0.394600999999966
849,2,0.8,0.25,-35.0,-1,1.0,0.23520100000041566
850,2,0.8,0.125,-35.0,-1,1.0,1.1383009999999558
851,2,0.8,1.0,35.0,1,1.0,0.27500099999997474
852,2,0.8,0.25,-35.0,-1,1.0,0.15210099999967497
853,2,0.8,0.125,-35.0,-1,1.0,0.48190100000010716
854,2,0.8,0.25,-35.0,-1,1.0,0.2124010000002272
855,2,0.8,1.0,-35.0,-1,1.0,0.6791010000001734
856,2,0.8,0.125,-35.0,-1,1.0,1.6394010000003618
857,2,0.8,1.0,-35.0,-1,1.0,0.1795010000005277
858,2,0.8,0.25,35.0,1,1.0,1.4960009999999784
859,2,0.8,0.0625,-35.0,-1,1.0,0.27640100000007806
860,2,0.8,1.0,-35.0,-1,1.0,0.22300100000029488
861,2,0.8,0.0625,35.0,-1,0.0,0.3031010000004244
862,2,0.8,0.125,-35.0,-1,1.0,0.18990100000019083
863,2,0.8,0.0,-35.0,-1,1.0,0.30680100000017774
864,2,0.2,0.25,35.0,-1,0.0,0.4568010000002687
865,2,0.2,0.25,35.0,1,1.0,0.5674010000002454
866,2,0.2,0.0625,35.0,1,1.0,1.1041010000003553
867,2,0.2,0.25,35.0,1,1.0,0.5274010000002818
868,2,0.2,0.0625,35.0,-1,0.0,0.35750099999995655
869,2,0.2,1.0,35.0,1,1.0,0.307901000000129
870,2,0.2,0.25,-35.0,-1,1.0,0.23090100000035818
871,2,0.2,0.125,35.0,1,1.0,1.2310010000005605
872,2,0.2,0.25,-35.0,-1,1.0,0.24800099999993108
873,2,0.2,0.25,35.0,1,1.0,0.6849010000005364
874,2,0.2,0.125,35.0,1,1.0,0.6450010000007751
875,2,0.2,0.25,35.0,1,1.0,0.3817010000002483
876,2,0.2,0.25,35.0,1,1.0,1.3386010000003807
877,2,0.2,0.25,-35.0,-1,1.0,0.25260100000014063
878,2,0.2,0.0625,35.0,-1,0.0,0.3488010000005488
879,2,0.2,1.0,35.0,1,1.0,0.3056010000000242
880,2,0.2,0.25,35.0,1,1.0,0.6530010000001312
881,2,0.2,0.0,-35.0,-1,1.0,4.905901000000085
882,2,0.2,0.125,35.0,1,1.0,0.4464010000001508
883,2,0.2,0.125,35.0,1,1.0,0.31960099999969316
884,2,0.2,0.125,35.0,1,1.0,3.1132010000001173
885,2,0.2,1.0,35.0,1,1.0,0.07990100000051825
886,2,0.2,1.0,35.0,1,1.0,0.29020100000025195
887,2,0.2,0.125,-35.0,-1,1.0,0.26370100000031016
888,2,0.2,0.125,35.0,-1,0.0,0.23700099999996382
889,2,0.2,0.25,35.0,1,1.0,0.48060100000066086
890,2,0.2,0.125,-35.0,-1,1.0,0.2876009999999951
891,2,0.2,0.25,35.0,1,1.0,2.0810010000000148
892,2,0.2,0.0625,35.0,1,1.0,0.37110100000018065
893,2,0.2,0.125,35.0,1,1.0,0.5280010000001312
894,2,0.2,0.25,35.0,1,1.0,0.3016010000001188
895,2,0.2,0.125,35.0,1,1.0,0.3550010000003567
896,2,0.2,0.0625,35.0,1,1.0,1.8085009999999784
897,2,0.2,0.125,-35.0,-1,1.0,2.9453010000001996
898,2,0.2,0.25,35.0,1,1.0,0.2822009999999864
899,2,0.2,0.25,-35.0,-1,1.0,0.3756010000001879
900,2,0.2,0.0625,-35.0,-1,1.0,0.2958010000002105
901,2,0.2,0.25,35.0,-1,0.0,0.21920100000033926
902,2,0.2,0.25,35.0,1,1.0,0.2828010000002905
903,2,0.2,0.0625,35.0,1,1.0,0.4895010000000184
904,2,0.2,0.125,35.0,1,1.0,0.3129010000002381
905,2,0.2,0.25,35.0,1,1.0,0.3631009999999151
906,2,0.2,0.125,-35.0,-1,1.0,0.26660000000038053
907,2,0.2,0.125,35.0,1,1.0,3.560001000000284
908,2,0.2,0.0,35.0,-1,0.0,2.6069009999996524
909,2,0.2,0.125,-35.0,-1,1.0,0.27390100000047823
910,2,0.2,0.125,35.0,1,1.0,0.34400100000038947
911,2,0.2,1.0,-35.0,-1,1.0,0.21070100000042657
912,2,0.2,0.125,-35.0,-1,1.0,0.2575010000000475
913,2,0.2,0.25,35.0,1,1.0,0.324301000000105
914,2,0.2,1.0,-35.0,-1,1.0,0.24790100000018356
915,2,0.2,1.0,35.0,1,1.0,0.2479010000006383
916,2,0.2,0.0625,35.0,-1,0.0,3.4813010000002578
917,2,0.2,0.0,35.0,-1,0.0,0.13500100000055681
918,2,0.2,0.0625,35.0,1,1.0,0.33850100000017846
919,2,0.2,0.0,-35.0,-1,1.0,0.36870100000032835
920,2,0.2,1.0,-35.0,-1,1.0,2.018801000000167
921,2,0.2,0.0625,35.0,-1,0.0,2.555601000000479
922,2,0.2,0.0625,35.0,-1,0.0,4.7125010000004295
923,2,0.2,0.25,35.0,-1,0.0,0.3195010000004004
924,2,0.2,1.0,35.0,1,1.0,0.22640099999989616
925,2,0.2,1.0,35.0,1,1.0,0.25000100000033854
926,2,0.2,1.0,-35.0,-1,1.0,0.22000100000013845
927,2,0.2,0.0625,-35.0,-1,1.0,5.123301000000083
928,2,0.2,0.125,35.0,1,1.0,0.300300999999763
929,2,0.8,1.0,-35.0,-1,1.0,0.24380100000007587
930,2,0.8,0.125,35.0,1,1.0,0.697301000000607
931,2,0.8,1.0,-35.0,-1,1.0,0.8908010000000104
932,2,0.8,0.125,-35.0,-1,1.0,0.30090100000006714
933,2,0.8,0.0625,-35.0,-1,1.0,0.4810010000001057
934,2,0.8,1.0,-35.0,-1,1.0,0.2611010000000533
935,2,0.8,0.25,-35.0,-1,1.0,0.22800100000040402
936,2,0.8,0.0625,35.0,1,1.0,1.0514009999997143
937,2,0.8,0.0625,35.0,1,1.0,0.39510100000006787
938,2,0.8,0.25,-35.0,-1,1.0,4.295101000000159
939,2,0.8,1.0,-35.0,-1,1.0,0.2387010000002192
940,2,0.8,0.0,-35.0,-1,1.0,2.4421010000000933
941,2,0.8,1.0,-35.0,-1,1.0,0.22910100000035527
942,2,0.8,0.25,-35.0,-1,1.0,0.23260100000061357
943,2,0.8,0.0625,-35.0,-1,1.0,0.6226010000000315
944,2,0.8,0.0625,-35.0,-1,1.0,0.39270100000021557
945,2,0.8,1.0,35.0,1,1.0,3.6129009999999653
946,2,0.8,1.0,-35.0,-1,1.0,0.3665009999999711
947,2,0.8,0.25,-35.0,-1,1.0,0.4966010000002825
948,2,0.8,0.0625,-35.0,-1,1.0,2.643301000000065
949,2,0.8,0.0,-35.0,1,0.0,0.4302010000001246
950,2,0.8,0.0625,-35.0,-1,1.0,0.21050100000002203
951,2,0.8,0.125,-35.0,-1,1.0,0.3405009999996764
952,2,0.8,1.0,-35.0,-1,1.0,0.4772010000001501
953,2,0.8,0.25,35.0,1,1.0,0.8708010000004833
954,2,0.8,0.25,-35.0,-1,1.0,0.3509010000007038
955,2,0.8,0.125,-35.0,-1,1.0,0.2644010000003618
956,2,0.8,1.0,35.0,1,1.0,1.0978009999998903
957,2,0.8,0.0625,-35.0,-1,1.0,0.21800100000018574
958,2,0.8,1.0,-35.0,-1,1.0,0.21820100000013554
959,2,0.8,0.0,-35.0,-1,1.0,0.4849010000002636
960,2,0.8,0.25,-35.0,-1,1.0,0.21840100000054008
961,2,0.8,0.0625,-35.0,-1,1.0,0.27860099999998056
962,2,0.8,1.0,-35.0,-1,1.0,0.24530100000038146
963,2,0.8,0.25,-35.0,-1,1.0,2.8088009999996757
964,2,0.8,0.125,35.0,1,1.0,0.5689010000000962
965,2,0.8,0.0625,-35.0,-1,1.0,0.4324010000000271
966,2,0.8,1.0,-35.0,-1,1.0,0.2426010000003771
967,2,0.8,1.0,-35.0,-1,1.0,0.272801000000527
968,2,0.8,0.125,-35.0,-1,1.0,0.35620100000051025
969,2,0.8,0.0625,-35.0,-1,1.0,0.7130009999996219
970,2,0.8,0.125,35.0,-1,0.0,0.34640100000024177
971,2,0.8,1.0,-35.0,-1,1.0,0.25330100000064704
972,2,0.8,1.0,-35.0,-1,1.0,0.2068010000002687
973,2,0.8,1.0,-35.0,-1,1.0,0.2303010000005088
974,2,0.8,0.25,-35.0,-1,1.0,0.697001000000455
975,2,0.8,0.0625,-35.0,-1,1.0,0.1274009999997361
976,2,0.8,0.125,-35.0,-1,1.0,0.20760100000006787
977,2,0.8,0.25,-35.0,-1,1.0,0.5977010000001428
978,2,0.8,0.125,-35.0,-1,1.0,4.561301000000185
979,2,0.8,0.125,35.0,1,1.0,0.31810100000029706
980,2,0.8,0.25,-35.0,-1,1.0,0.1382010000002083
981,2,0.8,0.0,-35.0,-1,1.0,2.2383010000003196
982,2,0.8,1.0,-35.0,-1,1.0,0.2218010000005961
983,2,0.8,1.0,-35.0,-1,1.0,0.21210100000007515
984,2,0.8,1.0,-35.0,-1,1.0,0.7055010000003676
985,2,0.8,0.0625,-35.0,-1,1.0,0.16220100000055027
986,2,0.8,1.0,-35.0,-1,1.0,0.2724010000006274
987,2,0.8,1.0,-35.0,-1,1.0,0.2492010000000846
988,2,0.8,0.25,-35.0,-1,1.0,0.23260100000015882
989,2,0.8,0.25,-35.0,-1,1.0,0.22300100000074963
990,2,0.8,0.0,-35.0,-1,1.0,0.29640100000005987
991,2,0.8,0.0,-35.0,-1,1.0,7.633101000000352
992,2,0.8,1.0,-35.0,-1,1.0,0.386801000000105
993,2,0.8,0.125,-35.0,-1,1.0,0.3137010000000373
994,2,0.8,0.0625,-35.0,-1,1.0,0.5738010000004579
995,2,0.8,0.0625,-35.0,-1,1.0,0.2207010000001901
996,2,0.8,0.125,-35.0,-1,1.0,0.17760100000032253
997,2,0.8,0.0625,-35.0,-1,1.0,0.28100099999983286
998,2,0.2,0.0625,35.0,-1,0.0,0.1977010000005066
999,2,0.2,0.0625,35.0,1,1.0,0.6344009999997979
1000,2,0.2,1.0,35.0,1,1.0,2.3879010000000562
1001,2,0.2,0.0,35.0,1,1.0,0.8315010000001166
1002,2,0.2,0.0625,35.0,1,1.0,0.4617010000006303
1003,2,0.2,1.0,35.0,1,1.0,0.592000999999982
1004,2,0.2,0.0625,35.0,-1,0.0,0.6353009999997994
1005,2,0.2,0.25,35.0,1,1.0,0.4822009999998045
1006,2,0.2,1.0,-35.0,-1,1.0,-0.02439899999944828
1007,2,0.2,0.0625,35.0,-1,0.0,0.28250100000013845
1008,2,0.2,0.25,35.0,1,1.0,0.24590100000023085
1009,2,0.2,1.0,35.0,1,1.0,0.3061010000001261
1010,2,0.2,0.125,35.0,-1,0.0,0.7995010000004186
1011,2,0.2,1.0,-35.0,-1,1.0,0.23300100000051316
1012,2,0.2,0.25,35.0,1,1.0,0.5165010000005168
1013,2,0.2,0.0,35.0,-1,0.0,0.4699009999999362
1014,2,0.2,0.25,-35.0,-1,1.0,0.28010100000028615
1015,2,0.2,0.125,35.0,1,1.0,3.4437010000001465
1016,2,0.2,0.0,35.0,-1,0.0,0.3706010000000788
1017,2,0.2,0.125,35.0,-1,0.0,0.2308010000001559
1018,2,0.2,0.0625,35.0,-1,0.0,0.44760100000030434
1019,2,0.2,0.125,35.0,1,1.0,1.051101000000017
1020,2,0.2,0.25,35.0,1,1.0,0.22450100000014572
1021,2,0.2,1.0,35.0,1,1.0,0.20130100000005768
1022,2,0.2,0.0625,35.0,1,1.0,4.021501000000171
1023,2,0.2,1.0,-35.0,-1,1.0,0.40840099999968515
1024,2,0.2,0.0625,35.0,1,1.0,0.29870100000016464
1025,2,0.2,0.0625,35.0,1,1.0,0.24870099999998274
1026,2,0.2,0.125,35.0,1,1.0,0.2855010000002949
1027,2,0.2,0.0625,35.0,1,1.0,0.45240100000000893
1028,2,0.8,0.125,-35.0,-1,1.0,0.31240100000013626
1029,2,0.8,0.25,35.0,1,1.0,0.22260099999994054
1030,2,0.8,0.0,-35.0,-1,1.0,0.26940100000047096
1031,2,0.8,1.0,-35.0,-1,1.0,0.2163010000003851
1032,2,0.8,0.0,-35.0,1,0.0,0.2896009999999478
1033,2,0.8,0.125,35.0,-1,0.0,0.31650100000024395
1034,2,0.8,1.0,-35.0,-1,1.0,0.2567010000002483
1035,2,0.8,0.0,-35.0,-1,1.0,0.6969010000002527
1036,2,0.8,1.0,-35.0,-1,1.0,5.226901000000453
1037,2,0.8,0.0625,-35.0,-1,1.0,0.3607010000000628
1038,2,0.8,0.25,-35.0,-1,1.0,0.8940010000005714
1039,2,0.8,0.0625,-35.0,-1,1.0,0.4108009999999922
1040,2,0.8,0.25,-35.0,-1,1.0,1.0976009999999405
1041,2,0.8,0.125,35.0,1,1.0,0.3077010000001792
1042,2,0.8,0.25,-35.0,-1,1.0,0.20120100000031016
1043,2,0.8,0.0,-35.0,-1,1.0,4.618001000000277
1044,2,0.8,1.0,-35.0,-1,1.0,0.22160100000019156
1045,2,0.8,0.0,35.0,-1,0.0,0.775101000000177
1046,2,0.8,0.25,35.0,1,1.0,0.255301000000145
1047,2,0.8,0.25,35.0,1,1.0,2.0853010000000722
1048,2,0.8,0.25,-35.0,-1,1.0,0.2723010000004251
1049,2,0.8,0.0,-35.0,1,0.0,2.562300999999934
1050,2,0.8,1.0,-35.0,-1,1.0,0.20920100000012098
1051,2,0.8,1.0,-35.0,-1,1.0,2.066001000000597
1052,2,0.8,0.125,-35.0,-1,1.0,0.26620100000036473
1053,2,0.8,0.25,-35.0,-1,1.0,1.4330010000003313
1054,2,0.8,0.125,-35.0,-1,1.0,0.23310100000026068
1055,2,0.8,1.0,-35.0,-1,1.0,0.24010100000032253
1056,2,0.8,1.0,-35.0,-1,1.0,0.22010099999988597
1057,2,0.8,0.25,-35.0,-1,1.0,0.2402009999996153
1058,2,0.8,0.0625,35.0,1,1.0,5.413701000000401
1059,2,0.8,0.0625,-35.0,-1,1.0,0.5807010000003174
1060,2,0.8,0.125,35.0,1,1.0,0.5641010000003917
1061,2,0.8,1.0,-35.0,-1,1.0,0.24430100000017774
1062,2,0.8,0.0625,-35.0,-1,1.0,0.2776010000002316
1063,2,0.8,0.125,-35.0,-1,1.0,0.3445010000000366
1064,2,0.8,1.0,-35.0,-1,1.0,0.21130100000027596
1065,2,0.8,0.0625,-35.0,-1,1.0,5.41470100000015
1066,2,0.8,0.25,-35.0,-1,1.0,0.2951010000001588
1067,2,0.8,0.25,-35.0,-1,1.0,0.24200100000007296
1068,2,0.8,0.0,35.0,-1,0.0,0.8854010000004564
1069,2,0.8,0.0,-35.0,-1,1.0,0.3222009999990405
1070,2,0.8,0.0625,35.0,-1,0.0,0.23570099999960803
1071,2,0.8,1.0,-35.0,-1,1.0,0.25910099999873637
1072,2,0.8,0.25,-35.0,-1,1.0,0.20600099999956
1073,2,0.2,0.0625,35.0,-1,0.0,0.5093009999991409
1074,2,0.2,0.0625,35.0,1,1.0,0.766301000000567
1075,2,0.2,0.125,35.0,1,1.0,0.5364010000002963
1076,2,0.2,0.25,-35.0,-1,1.0,0.2598009999992428
1077,2,0.2,0.0625,35.0,-1,0.0,0.28340099999968515
1078,2,0.2,0.0,-35.0,1,0.0,3.290200999999797
1079,2,0.2,1.0,-35.0,-1,1.0,0.2071009999990565
1080,2,0.2,0.0625,-35.0,-1,1.0,0.8904010000005655
1081,2,0.2,1.0,35.0,1,1.0,0.25740099999893573
1082,2,0.2,0.125,35.0,1,1.0,3.150800999999774
1083,2,0.2,0.0625,35.0,-1,0.0,0.3043009999992137
1084,2,0.2,0.125,35.0,-1,0.0,0.38120100000014645
1085,2,0.2,0.0625,35.0,-1,0.0,0.5781009999991511
1086,2,0.2,0.0,35.0,-1,0.0,0.14490099999966333
1087,2,0.2,1.0,35.0,1,1.0,0.22500100000070233
1088,2,0.2,0.125,35.0,1,1.0,0.2686009999997623
1089,2,0.2,0.25,35.0,1,1.0,0.2719009999991613
1090,2,0.2,0.0625,-35.0,-1,1.0,0.28860099999928934
1091,2,0.2,0.125,35.0,1,1.0,0.25540099999943777
1092,2,0.2,0.125,35.0,1,1.0,0.395701000000372
1093,2,0.2,1.0,-35.0,-1,1.0,0.25250099999902886
1094,2,0.2,1.0,35.0,1,1.0,0.4325009999993199
1095,2,0.2,1.0,35.0,1,1.0,0.22930099999939557
1096,2,0.2,1.0,35.0,1,1.0,0.40950099999918166
1097,2,0.2,0.25,35.0,1,1.0,0.2964009999996051
1098,2,0.2,1.0,35.0,1,1.0,1.5730009999997492
1099,2,0.2,0.0,-35.0,-1,1.0,0.27650099999937083
1100,2,0.2,1.0,35.0,1,1.0,0.19670099999984814
1101,2,0.2,0.0,35.0,-1,0.0,2.066700999999739
1102,2,0.2,0.25,35.0,1,1.0,0.3370009999998729
1103,2,0.2,1.0,35.0,1,1.0,0.4204009999994014
1104,2,0.2,1.0,35.0,1,1.0,0.3072009999996226
1105,2,0.2,1.0,35.0,1,1.0,0.2973009999996066
1106,2,0.2,0.125,35.0,-1,0.0,0.40400099999897066
1107,2,0.2,0.125,35.0,-1,0.0,0.37760099999923114
1108,2,0.2,0.125,35.0,1,1.0,3.6277009999994334
1109,2,0.2,0.125,35.0,1,1.0,0.4480009999997492
1110,2,0.2,0.0625,35.0,1,1.0,2.448100999999042
1111,2,0.2,0.25,35.0,1,1.0,0.32830099999955564
1112,2,0.2,0.25,35.0,1,1.0,0.45180100000015955
1113,2,0.2,0.0,35.0,-1,0.0,5.068600999999035
1114,2,0.2,0.25,-35.0,-1,1.0,0.30550099999982194
1115,2,0.2,0.125,35.0,-1,0.0,0.29230099999949744
1116,2,0.2,0.125,-35.0,-1,1.0,0.5825010000007751
1117,2,0.2,0.25,35.0,1,1.0,0.6625009999988833
1118,2,0.8,1.0,-35.0,-1,1.0,0.26280099999985396
1119,2,0.8,0.0625,-35.0,-1,1.0,0.26280099999985396
1120,2,0.8,0.25,-35.0,-1,1.0,0.13960099999985687
1121,2,0.8,0.0625,-35.0,-1,1.0,0.35990099999980885
1122,2,0.8,0.25,-35.0,-1,1.0,0.23000099999990198
1123,2,0.8,1.0,-35.0,-1,1.0,0.31680099999994127
1124,2,0.8,0.125,-35.0,-1,1.0,0.3170009999994363
1125,2,0.8,1.0,-35.0,-1,1.0,0.293800999999803
1126,2,0.8,0.25,-35.0,-1,1.0,0.28380099999958475
1127,2,0.8,0.125,-35.0,-1,1.0,0.29740099999980885
1128,2,0.8,1.0,-35.0,-1,1.0,0.2240009999995891
1129,2,0.8,0.125,35.0,1,1.0,0.35410100000081
1130,2,0.8,0.0625,-35.0,-1,1.0,0.35430100000030507
1131,2,0.8,0.0625,-35.0,1,0.0,4.017700999999761
1132,2,0.8,0.25,-35.0,-1,1.0,0.3781010000002425
1133,2,0.8,0.125,35.0,-1,0.0,0.26140099999975064
1134,2,0.8,0.25,-35.0,-1,1.0,0.2884009999988848
1135,2,0.8,0.25,-35.0,-1,1.0,0.24520099999972444
1136,2,0.8,1.0,-35.0,-1,1.0,0.24860100000023522
1137,2,0.8,1.0,35.0,1,1.0,0.26870099999905506
1138,2,0.8,1.0,-35.0,-1,1.0,0.22570100000029925
1139,2,0.8,0.25,-35.0,-1,1.0,2.2622009999986403
1140,2,0.8,0.0625,-35.0,-1,1.0,0.792500999999902
1141,2,0.8,0.25,-35.0,-1,1.0,0.22270099999968807
1142,2,0.8,0.125,-35.0,-1,1.0,0.24600099999952363
1143,2,0.8,0.0625,35.0,-1,0.0,3.2230009999993854
1144,2,0.8,0.25,-35.0,-1,1.0,0.37310100000013335
1145,2,0.8,0.0625,-35.0,-1,1.0,0.3833009999998467
1146,2,0.8,0.125,35.0,-1,0.0,0.47680099999979575
1147,2,0.8,0.0625,-35.0,-1,1.0,0.37350100000003295
1148,2,0.8,1.0,-35.0,-1,1.0,0.30040100000042
1149,2,0.8,0.25,-35.0,-1,1.0,0.3038010000000213
1150,2,0.8,0.25,-35.0,-1,1.0,0.23390199999903416
1151,2,0.8,0.0625,35.0,-1,0.0,0.5408019999995304
1152,2,0.8,0.0625,-35.0,-1,1.0,0.25410199999987526
1153,2,0.8,0.25,35.0,1,1.0,1.7943020000002434
1154,2,0.8,0.0625,-35.0,-1,1.0,0.30120199999964825
1155,2,0.8,0.0625,35.0,-1,0.0,2.051402000000053
1156,2,0.8,0.0,-35.0,-1,1.0,0.5981019999999262
1157,2,0.8,0.0,-35.0,-1,1.0,0.5216019999998025
1158,2,0.8,0.125,-35.0,-1,1.0,0.6283019999991666
1159,2,0.8,0.0625,-35.0,-1,1.0,0.2352019999989352
1160,2,0.8,0.125,-35.0,-1,1.0,0.3320019999991928
1161,2,0.8,0.0625,-35.0,-1,1.0,0.2888020000000324
1162,2,0.8,1.0,-35.0,-1,1.0,3.4089020000001256
1163,2,0.8,0.125,-35.0,-1,1.0,0.9392019999995682
1164,2,0.8,0.125,-35.0,-1,1.0,0.5695019999993747
1165,2,0.8,0.25,-35.0,-1,1.0,0.6696019999999407
1166,2,0.8,0.125,-35.0,-1,1.0,0.23650199999974575
1167,2,0.8,1.0,35.0,1,1.0,0.32650199999989127
1168,2,0.8,0.0625,-35.0,-1,1.0,0.11320199999954639
1169,2,0.8,0.0,-35.0,-1,1.0,1.3501020000003336
1170,2,0.8,0.125,-35.0,-1,1.0,0.28360200000042823
1171,2,0.2,0.0625,-35.0,-1,1.0,0.31370199999946635
1172,2,0.2,0.25,35.0,-1,0.0,0.5640020000000732
1173,2,0.2,0.125,35.0,1,1.0,0.43420200000036857
1174,2,0.2,0.25,-35.0,-1,1.0,0.35410199999932956
1175,2,0.2,1.0,35.0,1,1.0,0.2510019999990618
1176,2,0.2,0.0625,35.0,-1,0.0,0.5244020000000091
1177,2,0.2,0.125,-35.0,-1,1.0,0.8980019999999058
1178,2,0.2,0.0625,35.0,1,1.0,3.4547019999999975
1179,2,0.2,1.0,-35.0,-1,1.0,0.28170199999931356
1180,2,0.2,1.0,35.0,1,1.0,0.5851019999990967
1181,2,0.2,1.0,35.0,1,1.0,0.3952019999996992
1182,2,0.2,0.125,-35.0,-1,1.0,0.27540200000021287
1183,2,0.2,1.0,35.0,1,1.0,1.722102000000632
1184,2,0.2,0.125,35.0,-1,0.0,0.16910199999983888
1185,2,0.2,0.25,35.0,1,1.0,0.302401999999347
1186,2,0.2,0.0,35.0,-1,0.0,0.3859019999999873
1187,2,0.2,0.0,35.0,-1,0.0,7.83610200000021
1188,2,0.2,0.0625,35.0,-1,0.0,4.153101999999308
1189,2,0.2,1.0,-35.0,-1,1.0,0.30010200000015175
1190,2,0.2,0.125,35.0,1,1.0,4.570201999999881
1191,2,0.2,0.0625,-35.0,-1,1.0,0.3205019999995784
1192,2,0.2,0.0625,35.0,-1,0.0,0.8907019999996919
1193,2,0.2,0.0625,35.0,-1,0.0,3.294202000000041
1194,2,0.2,0.0625,35.0,1,1.0,0.6012019999998302
1195,2,0.2,1.0,-35.0,-1,1.0,3.938002000000779
1196,2,0.2,0.0,35.0,-1,0.0,5.381502000000182
1197,2,0.2,0.0,35.0,-1,0.0,4.631902000000082
1198,2,0.2,1.0,35.0,1,1.0,0.29560200000014447
1199,2,0.2,0.25,35.0,1,1.0,0.44900200000029145
1200,2,0.2,0.25,-35.0,-1,1.0,0.5059019999998782
1201,2,0.2,0.125,35.0,1,1.0,0.3294019999993907
1202,2,0.2,0.25,35.0,1,1.0,0.3227019999994809
1203,2,0.2,0.25,35.0,1,1.0,2.0129019999994853
1204,2,0.2,0.125,35.0,1,1.0,0.2830019999992146
1205,2,0.2,0.0625,-35.0,-1,1.0,0.19640199999957986
1206,2,0.2,1.0,35.0,1,1.0,0.2466020000001663
1207,2,0.2,0.0625,-35.0,-1,1.0,0.6201019999989512
1208,2,0.2,0.0625,-35.0,-1,1.0,3.007201999999779
1209,2,0.2,0.25,35.0,1,1.0,2.2837020000006305
1210,2,0.2,1.0,-35.0,-1,1.0,0.2507019999993645
1211,2,0.2,0.125,35.0,-1,0.0,2.2607019999995828
1212,2,0.2,1.0,35.0,1,1.0,0.08090199999969627
1213,2,0.2,0.0625,35.0,-1,0.0,0.3577019999993354
1214,2,0.2,0.0,35.0,-1,0.0,6.637901999999485
1215,2,0.2,0.25,-35.0,-1,1.0,0.35160199999972974
1216,2,0.2,1.0,35.0,1,1.0,1.5151019999993878
1217,2,0.2,1.0,35.0,1,1.0,0.2554019999988668
1218,2,0.2,0.0625,-35.0,-1,1.0,3.0555020000001605
1219,2,0.8,0.25,-35.0,-1,1.0,0.39570200000071054
1220,2,0.8,0.0625,-35.0,-1,1.0,0.27910199999860197
1221,2,0.8,0.0,-35.0,-1,1.0,2.7660020000002987
1222,2,0.8,0.125,-35.0,-1,1.0,0.5128020000001925
1223,2,0.8,0.25,-35.0,-1,1.0,0.8762020000003758
1224,2,0.8,0.125,-35.0,-1,1.0,0.24650199999996403
1225,2,0.8,1.0,-35.0,-1,1.0,0.18990200000007462
1226,2,0.8,0.25,35.0,1,1.0,0.5368020000005345
1227,2,0.8,0.25,35.0,1,1.0,0.2636019999999917
1228,2,0.8,0.0,-35.0,-1,1.0,0.21700199999941105
1229,2,0.8,0.0625,-35.0,-1,1.0,0.22720199999912438
1230,2,0.8,0.25,-35.0,-1,1.0,0.4973019999997632
1231,2,0.8,0.0625,-35.0,-1,1.0,1.1575019999991127
1232,2,0.8,0.125,35.0,-1,0.0,0.4510019999997894
1233,2,0.8,0.0,35.0,-1,0.0,6.29790199999934
1234,2,0.8,0.0625,-35.0,-1,1.0,3.6516019999999116
1235,2,0.8,0.0,-35.0,-1,1.0,0.48500199999944016
1236,2,0.8,0.0,-35.0,-1,1.0,1.9553019999993921
1237,2,0.8,0.125,-35.0,-1,1.0,0.472302000000127
1238,2,0.8,0.0,-35.0,-1,1.0,0.5856020000001081
1239,2,0.8,0.125,-35.0,-1,1.0,3.102302000000236
1240,2,0.8,0.25,-35.0,-1,1.0,0.21600199999920733
1241,2,0.8,0.0,-35.0,-1,1.0,0.7227020000000266
1242,2,0.8,0.0625,-35.0,-1,1.0,0.3228019999996832
1243,2,0.8,0.0,-35.0,1,0.0,0.9931020000003628
1244,2,0.8,1.0,35.0,1,1.0,0.22320199999921897
1245,2,0.8,0.125,-35.0,-1,1.0,0.23660199999994802
1246,2,0.8,0.0625,35.0,-1,0.0,2.753401999999369
1247,2,0.8,0.0625,-35.0,-1,1.0,1.5804019999995944
1248,2,0.8,0.0625,-35.0,-1,1.0,0.44390199999907054
1249,2,0.8,1.0,-35.0,-1,1.0,1.2474019999999655
1250,2,0.8,0.25,-35.0,-1,1.0,0.31410199999936594
1251,2,0.8,1.0,-35.0,-1,1.0,0.2444019999993543
1252,2,0.8,0.0,-35.0,-1,1.0,3.881101999999373
1253,2,0.8,0.0625,-35.0,-1,1.0,1.1781019999998534
1254,2,0.8,0.125,35.0,1,1.0,5.378102000000581
1255,2,0.8,0.125,-35.0,-1,1.0,0.32180199999947945
1256,2,0.8,0.125,-35.0,-1,1.0,0.29200200000013865
1257,2,0.8,0.25,-35.0,-1,1.0,0.22540200000003097
1258,2,0.8,0.25,-35.0,-1,1.0,0.388901999999689
1259,2,0.8,0.125,-35.0,-1,1.0,0.42580199999974866
1260,2,0.8,0.25,-35.0,-1,1.0,0.7325019999998403
1261,2,0.8,0.25,-35.0,-1,1.0,0.3360020000000077
1262,2,0.8,1.0,35.0,1,1.0,0.2594020000005912
1263,2,0.8,0.25,-35.0,-1,1.0,0.7230019999997239
1264,2,0.8,1.0,35.0,1,1.0,0.2297020000005432
1265,2,0.8,1.0,-35.0,-1,1.0,0.17980199999965407
1266,2,0.8,0.0625,-35.0,-1,1.0,13.729902000000038
1267,2,0.8,1.0,-35.0,-1,1.0,6.70060199999989
1268,2,0.8,0.25,-35.0,-1,1.0,1.137601999999788
1269,2,0.8,0.125,-35.0,-1,1.0,0.2977019999998447
1270,2,0.8,1.0,-35.0,-1,1.0,0.2712019999999029
1271,2,0.8,0.0,-35.0,-1,1.0,1.341401999999107
1272,2,0.8,0.0,-35.0,-1,1.0,0.2981019999997443
1273,2,0.8,0.25,-35.0,-1,1.0,3.508201999999983
1274,2,0.8,0.125,-35.0,-1,1.0,0.22840200000064215
1275,2,0.8,0.0625,-35.0,-1,1.0,3.5520019999994474
1276,2,0.8,0.125,35.0,-1,0.0,0.7789020000000164
1277,2,0.8,0.125,35.0,-1,0.0,0.945701999999983
1278,2,0.8,0.25,-35.0,1,0.0,1.9425019999998767
1279,2,0.8,0.0625,-35.0,-1,1.0,4.139401999998881
1280,2,0.8,0.25,35.0,1,1.0,0.5330020000001241
1281,2,0.8,0.25,35.0,1,1.0,8.889801999998781
1282,2,0.8,1.0,35.0,1,1.0,0.21690200000011828
1283,2,0.2,0.0625,35.0,0,0.0,59.953701999999794
1284,2,0.2,0.125,35.0,-1,0.0,0.41290200000003097
1285,2,0.2,0.0625,35.0,-1,0.0,11.102702000000136
1286,2,0.2,0.25,35.0,1,1.0,9.490201999999044
1287,2,0.2,0.125,35.0,1,1.0,9.090601999999308
1288,2,0.2,0.25,35.0,1,1.0,0.40750200000002224
1289,2,0.2,0.0625,35.0,1,1.0,0.2944019999995362
1290,2,0.2,0.25,-35.0,-1,1.0,0.28830199999993056
1291,2,0.2,0.25,35.0,1,1.0,3.121201999999357
1292,2,0.2,1.0,35.0,1,1.0,0.31150199999956385
1293,2,0.2,0.0625,35.0,1,1.0,0.6416020000006029
1294,2,0.2,0.0,35.0,1,1.0,1.425202000000354
1295,2,0.2,1.0,35.0,1,1.0,0.22540200000003097
1296,2,0.2,0.125,35.0,1,1.0,2.37890200000038
1297,2,0.2,0.0625,35.0,1,1.0,0.6124019999988377
1298,2,0.2,0.0625,35.0,1,1.0,2.5658019999991666
1299,2,0.2,0.0625,35.0,1,1.0,9.249401999999463
1300,2,0.2,0.0,35.0,1,1.0,1.133401999999478
1301,2,0.2,1.0,-35.0,-1,1.0,2.506501999999273
1302,2,0.2,0.125,35.0,1,1.0,0.5934019999995144
1303,2,0.2,0.25,35.0,1,1.0,0.28690199999982724
1304,2,0.2,1.0,35.0,1,1.0,0.36070199999903707
1305,2,0.2,0.125,35.0,1,1.0,0.5405019999989236
1306,2,0.2,0.25,35.0,1,1.0,2.104002000000037
1307,2,0.2,0.0625,35.0,1,1.0,0.39450200000010227
1308,2,0.2,0.25,35.0,1,1.0,0.26450199999999313
1309,2,0.2,0.25,35.0,1,1.0,0.5646019999994678
1310,2,0.2,1.0,35.0,1,1.0,0.3915019999994911
1311,2,0.2,0.0625,35.0,-1,0.0,17.9615019999992
1312,2,0.2,1.0,35.0,1,1.0,0.3657020000000557
1313,2,0.2,0.125,35.0,1,1.0,0.3025019999995493
1314,2,0.2,0.125,35.0,1,1.0,0.38250199999947654
1315,2,0.2,0.0625,35.0,1,1.0,1.1095020000002478
1316,2,0.2,0.0625,-35.0,1,0.0,0.6429019999995944
1317,2,0.2,0.125,-35.0,-1,1.0,3.2530019999994693
1318,2,0.2,1.0,-35.0,-1,1.0,0.3232019999986733
1319,2,0.2,0.0625,35.0,1,1.0,2.2067019999994955
1320,2,0.2,0.0625,35.0,1,1.0,0.6203019999993558
1321,2,0.2,0.125,35.0,1,1.0,0.8305019999997967
1322,2,0.2,0.125,35.0,1,1.0,8.007402000000184
1323,2,0.8,1.0,-35.0,-1,1.0,0.19430199999987963
1324,2,0.8,0.125,35.0,1,1.0,0.9110019999998258
1325,2,0.8,1.0,-35.0,1,0.0,9.991401999999653
1326,2,0.8,1.0,35.0,1,1.0,0.31180199999926117
1327,2,0.8,0.25,-35.0,-1,1.0,6.315202000000681
1328,2,0.8,1.0,35.0,1,1.0,0.5790020000004006
1329,2,0.8,1.0,-35.0,-1,1.0,10.379001999999673
1330,2,0.8,0.0625,35.0,1,1.0,3.0029020000001765
1331,2,0.8,0.0625,-35.0,-1,1.0,15.449901999999383
1332,2,0.8,0.0625,-35.0,-1,1.0,8.364001999999346
1333,2,0.8,0.0625,-35.0,-1,1.0,0.4011019999989003
1334,2,0.8,0.25,-35.0,-1,1.0,0.3045009999996182
1335,2,0.8,1.0,-35.0,-1,1.0,0.29120200000033947
1336,2,0.8,0.125,-35.0,-1,1.0,3.2014019999987795
1337,2,0.8,0.125,-35.0,-1,1.0,7.518402000000606
1338,2,0.8,0.0625,-35.0,-1,1.0,0.32880200000090554
1339,2,0.8,0.0625,-35.0,-1,1.0,0.6355020000000877
1340,2,0.8,0.0625,-35.0,-1,1.0,0.3624019999997472
1341,2,0.8,0.25,35.0,1,1.0,0.3158020000000761
1342,2,0.8,0.0625,-35.0,-1,1.0,0.23920199999975011
1343,2,0.8,1.0,-35.0,-1,1.0,5.19600199999968
1344,2,0.8,0.25,-35.0,-1,1.0,22.84990199999993
1345,2,0.8,0.25,-35.0,-1,1.0,0.30410200000005716
1346,2,0.8,1.0,-35.0,-1,1.0,0.2609019999990778
1347,2,0.8,0.0625,35.0,0,0.0,59.93420199999946
1348,2,0.8,0.0625,-35.0,0,0.0,54.05350199999884
1349,2,0.8,0.0,-35.0,-1,1.0,10.306101999999555
1350,2,0.8,1.0,-35.0,-1,1.0,2.3496019999993223
1351,2,0.8,0.0625,-35.0,-1,1.0,9.053202000000056
1352,2,0.8,0.0,35.0,-1,0.0,0.3704020000004675
1353,2,0.8,0.0625,-35.0,-1,1.0,0.9673020000000179
1354,2,0.8,0.25,-35.0,-1,1.0,1.2706020000005083
1355,2,0.8,0.0,35.0,-1,0.0,5.654301999999916
1356,2,0.8,0.0625,-35.0,-1,1.0,1.1944019999991724
1357,2,0.8,0.0,35.0,1,1.0,1.3846019999991768
1358,2,0.8,1.0,35.0,1,1.0,0.2882019999997283
1359,2,0.8,0.25,-35.0,-1,1.0,0.18500199999925826
1360,2,0.8,1.0,-35.0,-1,1.0,0.21850199999971665
1361,2,0.8,0.125,-35.0,-1,1.0,1.1518020000003162
1362,2,0.8,1.0,35.0,1,1.0,0.2620019999994838
1363,2,0.8,0.125,-35.0,-1,1.0,2.4255020000000513
1364,2,0.8,0.125,-35.0,-1,1.0,1.449001999999382
1365,2,0.8,0.25,35.0,1,1.0,6.8691019999987475
1366,2,0.8,0.125,35.0,-1,0.0,18.769501999999193
1367,2,0.8,0.0625,35.0,-1,0.0,5.4437019999995755
1368,2,0.8,0.0,-35.0,-1,1.0,8.700701999999183
1369,2,0.8,0.25,35.0,1,1.0,28.681201999999757
1,3,0.5,0.0625,-35.0,1,0.0,5.1685
2,3,0.5,1.0,35.0,1,1.0,0.2636000000000003
3,3,0.5,0.25,-35.0,-1,1.0,0.3434999999999988
4,3,0.5,0.25,35.0,1,1.0,0.25969999999999516
5,3,0.5,1.0,-35.0,-1,1.0,0.33690000000000353
6,3,0.5,0.0625,-35.0,-1,1.0,0.607800000000001
7,3,0.5,0.125,-35.0,-1,1.0,0.3656000000000006
8,3,0.5,0.125,-35.0,-1,1.0,0.6908999999999992
9,3,0.5,0.125,-35.0,-1,1.0,0.7422999999999966
10,3,0.5,0.25,-35.0,-1,1.0,0.2739000000000047
11,3,0.5,0.25,-35.0,-1,1.0,2.6906000000000034
12,3,0.5,0.0,35.0,-1,0.0,4.7986000000000075
13,3,0.5,1.0,35.0,1,1.0,0.2441000000000031
14,3,0.5,0.0,35.0,1,1.0,3.343200000000003
15,3,0.5,0.0625,35.0,1,1.0,0.4084000000000003
16,3,0.5,0.0,35.0,1,1.0,3.9472999999999985
17,3,0.5,0.0625,-35.0,-1,1.0,0.7763000000000062
18,3,0.5,0.125,35.0,1,1.0,0.3545999999999907
19,3,0.5,0.0,-35.0,1,0.0,4.092700000000008
20,3,0.5,0.25,35.0,1,1.0,0.23860000000000525
21,3,0.5,0.125,35.0,-1,0.0,4.9358
22,3,0.5,0.125,-35.0,-1,1.0,0.2817000000000007
23,3,0.5,0.0,-35.0,1,0.0,0.30880000000000507
24,3,0.5,0.125,-35.0,-1,1.0,0.3802999999999912
25,3,0.5,0.25,-35.0,-1,1.0,0.24660000000000082
26,3,0.5,0.125,35.0,1,1.0,4.2047000000000025
27,3,0.5,0.25,35.0,1,1.0,0.7398000000000025
28,3,0.5,0.0625,35.0,-1,0.0,0.3637999999999977
29,3,0.5,0.25,-35.0,1,0.0,2.871700000000004
30,3,0.5,0.0625,-35.0,-1,1.0,0.5019999999999953
31,3,0.5,0.125,35.0,1,1.0,1.2169000000000096
32,3,0.5,1.0,35.0,1,1.0,0.2441000000000031
33,3,0.5,1.0,-35.0,-1,1.0,0.39570000000000505
34,3,0.5,0.125,35.0,1,1.0,0.9241999999999848
35,3,0.5,1.0,-35.0,-1,1.0,0.29000000000002046
36,3,0.5,0.125,-35.0,-1,1.0,4.6942000000000235
37,3,0.5,0.0,35.0,1,1.0,1.3771000000000129
38,3,0.5,0.125,-35.0,-1,1.0,0.6368999999999971
39,3,0.5,0.125,-35.0,-1,1.0,0.7268000000000256
40,3,0.5,1.0,35.0,1,1.0,0.257000000000005
41,3,0.5,1.0,-35.0,-1,1.0,0.2785000000000082
42,3,0.5,0.25,-35.0,-1,1.0,1.4962999999999909
43,3,0.5,1.0,35.0,1,1.0,0.2560000000000002
44,3,0.5,0.0,35.0,-1,0.0,2.9589000000000283
45,3,0.5,1.0,-35.0,-1,1.0,0.20870000000002165
46,3,0.5,0.0625,-35.0,-1,1.0,3.089100000000002
47,3,0.5,0.0,-35.0,-1,1.0,3.9949000000000296
48,3,0.5,0.0625,35.0,-1,0.0,0.6297000000000139
49,3,0.5,0.0625,-35.0,-1,1.0,0.522199999999998
50,3,0.5,0.25,35.0,1,1.0,0.2740000000000009
51,3,0.5,0.0,35.0,-1,0.0,3.5529999999999973
52,3,0.5,0.125,35.0,1,1.0,0.28530000000000655
53,3,0.5,0.0,35.0,-1,0.0,3.4129000000000076
54,3,0.5,0.25,35.0,1,1.0,0.25310000000001764
55,3,0.5,0.0625,35.0,-1,0.0,4.374300000000005
56,3,0.5,0.125,35.0,1,1.0,0.3306000000000324
57,3,0.5,0.0625,35.0,1,1.0,0.8757000000000232
58,3,0.5,0.125,35.0,1,1.0,0.46000000000000796
59,3,0.5,0.0625,35.0,1,1.0,2.629300000000029
60,3,0.5,1.0,35.0,1,1.0,0.22900000000004184
61,3,0.5,0.25,-35.0,-1,1.0,0.3597000000000037
62,3,0.5,0.0,-35.0,1,0.0,0.19599999999999795
63,3,0.5,0.125,-35.0,-1,1.0,0.3429999999999893
64,3,0.5,0.0625,35.0,1,1.0,1.0991000000000213
65,3,0.5,0.25,-35.0,-1,1.0,0.06960000000000832
66,3,0.5,0.0625,35.0,1,1.0,0.8981000000000279
67,3,0.5,1.0,35.0,1,1.0,0.22610000000003083
68,3,0.5,0.125,35.0,1,1.0,0.6329999999999814
69,3,0.5,1.0,-35.0,-1,1.0,0.39879999999999427
70,3,0.5,0.0625,35.0,1,1.0,4.352800000000002
71,3,0.5,0.25,-35.0,-1,1.0,0.313000000000045
72,3,0.5,0.0,35.0,1,1.0,0.2470000000000141
73,3,0.5,0.125,-35.0,1,0.0,0.5382000000000176
74,3,0.5,0.25,35.0,1,1.0,0.26010000000002265
75,3,0.5,0.125,-35.0,-1,1.0,0.46519999999998163
76,3,0.5,0.0625,-35.0,1,0.0,0.6275999999999726
77,3,0.5,0.125,-35.0,1,0.0,2.6136000000000195
78,3,0.5,0.25,35.0,1,1.0,0.22620000000000573
79,3,0.5,0.0,35.0,-1,0.0,1.1977000000000544
80,3,0.5,0.0,35.0,-1,0.0,0.7001000000000204
81,3,0.5,0.0625,35.0,1,1.0,0.6492000000000075
82,3,0.5,0.25,-35.0,-1,1.0,4.231099999999969
83,3,0.5,0.0,35.0,-1,0.0,1.9058999999999742
84,3,0.5,0.125,35.0,1,1.0,0.23680000000001655
85,3,0.5,0.25,-35.0,-1,1.0,2.2796000000000163
86,3,0.5,1.0,-35.0,-1,1.0,0.24329999999997654
87,3,0.5,0.25,-35.0,-1,1.0,0.31680000000000064
88,3,0.5,0.0,-35.0,-1,1.0,5.411200000000065
89,3,0.5,0.0625,35.0,1,1.0,0.21609999999998308
90,3,0.5,0.0625,35.0,1,1.0,1.2123000000000275
91,3,0.2,0.125,35.0,1,1.0,0.5588000000000761
92,3,0.2,0.125,35.0,1,1.0,0.31049999999999045
93,3,0.2,0.125,35.0,1,1.0,0.422300000000007
94,3,0.2,0.125,35.0,1,1.0,0.08129999999999882
95,3,0.2,0.0625,35.0,1,1.0,2.942600000000027
96,3,0.2,0.0625,35.0,-1,0.0,3.2509000000000015
97,3,0.2,1.0,35.0,1,1.0,0.19400000000001683
98,3,0.2,0.0625,-35.0,-1,1.0,2.190400000000011
99,3,0.2,0.0,-35.0,1,0.0,0.10899999999998045
100,3,0.2,1.0,35.0,1,1.0,0.32040000000000646
101,3,0.2,1.0,-35.0,-1,1.0,0.24050000000005411
102,3,0.2,0.25,35.0,1,1.0,0.1741999999999848
103,3,0.2,0.0625,35.0,1,1.0,0.6367000000000189
104,3,0.2,0.0,35.0,-1,0.0,3.959100000000035
105,3,0.2,0.0625,35.0,1,1.0,2.1830999999999676
106,3,0.2,0.25,35.0,1,1.0,0.2932999999999879
107,3,0.2,0.0625,-35.0,-1,1.0,3.3537000000000035
108,3,0.2,0.25,35.0,1,1.0,3.799599999999998
109,3,0.2,1.0,35.0,1,1.0,0.31220000000001846
110,3,0.2,0.0,35.0,-1,0.0,2.196200000000033
111,3,0.2,0.125,35.0,1,1.0,0.2721000000000231
112,3,0.2,0.0625,-35.0,-1,1.0,0.3096999999999639
113,3,0.2,0.25,35.0,1,1.0,0.6638999999999555
114,3,0.2,0.125,-35.0,-1,1.0,0.25299999999992906
115,3,0.2,0.25,35.0,1,1.0,1.0276000000000067
116,3,0.2,0.25,35.0,1,1.0,0.34559999999999036
117,3,0.2,0.25,35.0,1,1.0,0.38040000000000873
118,3,0.2,1.0,35.0,1,1.0,0.2747999999999706
119,3,0.2,0.0,35.0,1,1.0,2.821700000000021
120,3,0.2,0.0625,35.0,1,1.0,0.22449999999997772
121,3,0.2,0.0,35.0,1,1.0,4.859800000000007
122,3,0.2,0.25,35.0,1,1.0,0.3424999999999727
123,3,0.2,0.125,-35.0,-1,1.0,0.26200000000000045
124,3,0.2,0.125,-35.0,-1,1.0,0.3552999999999429
125,3,0.2,1.0,-35.0,-1,1.0,0.44310000000001537
126,3,0.2,1.0,-35.0,-1,1.0,0.20980000000002974
127,3,0.2,1.0,35.0,1,1.0,0.3491999999999962
128,3,0.2,1.0,35.0,1,1.0,0.27389999999996917
129,3,0.2,1.0,35.0,1,1.0,0.9796999999999798
130,3,0.2,0.125,35.0,1,1.0,0.3322000000000003
131,3,0.2,1.0,35.0,1,1.0,0.24240000000003192
132,3,0.2,1.0,35.0,1,1.0,0.2832000000000221
133,3,0.2,0.0625,35.0,1,1.0,3.2491999999999734
134,3,0.2,0.125,-35.0,-1,1.0,0.27539999999999054
135,3,0.2,0.0,35.0,1,1.0,0.2166000000000281
136,3,0.2,0.0625,35.0,1,1.0,1.002300000000048
137,3,0.2,0.125,35.0,1,1.0,0.2627000000000521
138,3,0.2,0.0625,35.0,-1,0.0,1.4343000000000075
139,3,0.8,1.0,-35.0,-1,1.0,0.4659999999998945
140,3,0.8,1.0,-35.0,-1,1.0,0.3204000000000633
141,3,0.8,0.125,-35.0,-1,1.0,0.2458000000000311
142,3,0.8,1.0,35.0,1,1.0,0.30799999999987904
143,3,0.8,0.125,-35.0,-1,1.0,1.1456999999999198
144,3,0.8,0.25,-35.0,-1,1.0,0.5154999999999745
145,3,0.8,0.0,35.0,-1,0.0,0.24189999999987322
146,3,0.8,1.0,-35.0,-1,1.0,0.2477999999999838
147,3,0.8,1.0,-35.0,-1,1.0,0.33369999999990796
148,3,0.8,1.0,-35.0,-1,1.0,0.2245989999998983
149,3,0.8,0.0,-35.0,1,0.0,0.39030000000002474
150,3,0.8,1.0,-35.0,-1,1.0,0.27149999999994634
151,3,0.8,0.0625,-35.0,-1,1.0,0.44299999999998363
152,3,0.8,0.25,-35.0,-1,1.0,2.1966999999999643
153,3,0.8,0.25,-35.0,-1,1.0,0.5808000000000675
154,3,0.8,0.25,-35.0,-1,1.0,0.3687999999999647
155,3,0.8,0.25,-35.0,-1,1.0,0.4553999999999405
156,3,0.8,0.0625,-35.0,-1,1.0,2.0312999999999874
157,3,0.8,1.0,-35.0,-1,1.0,0.24439999999992779
158,3,0.8,0.0,-35.0,-1,1.0,0.6115999999998394
159,3,0.8,0.125,-35.0,-1,1.0,3.544300000000021
160,3,0.8,1.0,-35.0,-1,1.0,0.37379999999996016
161,3,0.8,0.0625,-35.0,-1,1.0,0.5776999999999362
162,3,0.8,0.25,-35.0,-1,1.0,0.2947999999998956
163,3,0.8,0.25,-35.0,-1,1.0,0.10279999999988831
164,3,0.8,0.25,-35.0,-1,1.0,0.28089999999997417
165,3,0.8,1.0,-35.0,-1,1.0,0.28569999999990614
166,3,0.8,0.125,-35.0,-1,1.0,0.3909999999999627
167,3,0.8,1.0,-35.0,-1,1.0,0.3211999999998625
168,3,0.8,0.25,-35.0,-1,1.0,0.5604999999999336
169,3,0.8,0.125,35.0,1,1.0,0.36760000000003856
170,3,0.8,0.0625,-35.0,-1,1.0,0.39439999999990505
171,3,0.8,0.125,-35.0,-1,1.0,0.5290999999999713
172,3,0.8,0.0625,-35.0,-1,1.0,0.34960000000000946
173,3,0.8,0.0625,35.0,1,1.0,0.7289999999999281
174,3,0.8,0.25,-35.0,-1,1.0,0.49349999999992633
175,3,0.8,0.0625,35.0,-1,0.0,3.248199999999997
176,3,0.8,0.0,-35.0,-1,1.0,0.24149999999997362
177,3,0.8,0.0625,-35.0,-1,1.0,3.2165999999999713
178,3,0.8,1.0,-35.0,-1,1.0,0.2135000000000673
179,3,0.8,0.0,-35.0,-1,1.0,0.6642000000000507
180,3,0.8,0.125,-35.0,-1,1.0,0.7179999999999609
181,3,0.8,1.0,-35.0,-1,1.0,0.2358999999999014
182,3,0.8,0.0625,-35.0,-1,1.0,0.2945999999999458
183,3,0.8,1.0,35.0,1,1.0,0.2737000000000762
184,3,0.8,0.125,35.0,-1,0.0,3.45679999999993
185,3,0.8,0.0625,-35.0,-1,1.0,0.3166999999999689
186,3,0.8,1.0,-35.0,-1,1.0,0.20470000000000255
187,3,0.8,0.125,-35.0,-1,1.0,2.159999999999968
188,3,0.8,0.25,-35.0,-1,1.0,0.6307000000000471
189,3,0.8,1.0,-35.0,-1,1.0,0.2097999999999729
190,3,0.8,0.125,-35.0,-1,1.0,0.28700000000003456
191,3,0.8,0.0,-35.0,-1,1.0,2.6879999999998745
192,3,0.8,0.25,-35.0,-1,1.0,0.5606999999999971
193,3,0.8,0.25,-35.0,-1,1.0,2.5031000000000176
194,3,0.8,0.25,-35.0,-1,1.0,0.4580999999999449
195,3,0.8,0.0625,35.0,1,1.0,1.0873999999998887
196,3,0.8,0.25,-35.0,-1,1.0,0.29560000000003583
197,3,0.8,0.125,-35.0,-1,1.0,0.7390000000000327
198,3,0.8,1.0,-35.0,-1,1.0,0.5364999999999327
199,3,0.8,1.0,-35.0,-1,1.0,0.22519999999997253
200,3,0.8,0.25,-35.0,-1,1.0,4.126299999999901
201,3,0.8,1.0,-35.0,-1,1.0,0.5235000000000127
202,3,0.8,1.0,-35.0,-1,1.0,0.4090999999999667
203,3,0.8,0.0625,-35.0,-1,1.0,0.5296999999999343
204,3,0.2,0.0,35.0,-1,0.0,1.827199999999948
205,3,0.2,0.25,-35.0,-1,1.0,3.7543000000000575
206,3,0.2,0.25,35.0,1,1.0,0.5104999999998654
207,3,0.2,0.0,35.0,1,1.0,0.29909999999995307
208,3,0.2,0.125,35.0,1,1.0,0.4412999999999556
209,3,0.2,0.0625,35.0,1,1.0,6.152799999999843
210,3,0.2,0.0625,-35.0,1,0.0,1.6575000000000273
211,3,0.2,0.25,-35.0,-1,1.0,0.26559999999994943
212,3,0.2,0.125,35.0,1,1.0,0.36639999999988504
213,3,0.2,1.0,35.0,1,1.0,0.2138999999999669
214,3,0.2,0.0625,-35.0,-1,1.0,3.693899999999985
215,3,0.2,1.0,35.0,1,1.0,0.22239999999999327
216,3,0.2,1.0,35.0,1,1.0,0.5212000000000216
217,3,0.2,0.125,35.0,1,1.0,0.346300000000042
218,3,0.2,0.25,-35.0,-1,1.0,0.26149999999995543
219,3,0.2,1.0,-35.0,-1,1.0,0.36429999999995744
220,3,0.2,0.125,35.0,1,1.0,2.0353000000000065
221,3,0.2,0.0625,35.0,-1,0.0,3.334199999999896
222,3,0.2,0.125,-35.0,1,0.0,0.30369999999993524
223,3,0.2,1.0,-35.0,-1,1.0,0.23649999999986449
224,3,0.2,1.0,35.0,1,1.0,0.20059999999989486
225,3,0.2,0.125,35.0,1,1.0,0.3890999999999849
226,3,0.2,0.0,35.0,-1,0.0,0.30819999999982883
227,3,0.2,0.25,35.0,1,1.0,0.2869999999999209
228,3,0.2,0.0,35.0,-1,0.0,3.1963000000000648
229,3,0.2,0.25,35.0,1,1.0,0.2944999999999709
230,3,0.2,0.0625,35.0,-1,0.0,3.715400000000045
231,3,0.2,0.125,35.0,-1,0.0,0.21339999999997872
232,3,0.2,0.125,-35.0,-1,1.0,0.25969999999983884
233,3,0.2,1.0,35.0,1,1.0,0.25649999999996
234,3,0.2,0.25,-35.0,-1,1.0,0.2503999999998996
235,3,0.2,0.125,35.0,1,1.0,1.0667999999999438
236,3,0.2,0.0,-35.0,-1,1.0,0.2727999999998474
237,3,0.2,0.125,35.0,-1,0.0,2.4518999999999096
238,3,0.2,0.125,35.0,1,1.0,0.27529999999990196
239,3,0.2,0.0625,35.0,1,1.0,0.6363999999999805
240,3,0.2,0.0625,35.0,1,1.0,1.4966999999999189
241,3,0.2,0.0625,35.0,-1,0.0,3.8200999999999112
242,3,0.2,0.0625,35.0,1,1.0,0.7204000000000406
243,3,0.2,0.0625,35.0,1,1.0,0.5541999999999234
244,3,0.2,0.125,35.0,1,1.0,0.6842999999998938
245,3,0.2,0.25,35.0,1,1.0,0.46449999999992997
246,3,0.2,0.125,35.0,1,1.0,3.206099999999992
247,3,0.2,1.0,-35.0,-1,1.0,0.4032999999999447
248,3,0.2,0.0,35.0,1,1.0,5.199699999999893
249,3,0.2,0.25,35.0,1,1.0,0.27569999999991524
250,3,0.2,0.0625,35.0,1,1.0,0.24320000000000164
251,3,0.2,0.0625,-35.0,-1,1.0,0.4438000000000102
252,3,0.2,1.0,35.0,1,1.0,0.42239999999992506
253,3,0.2,1.0,35.0,1,1.0,0.2237999999999829
254,3,0.2,0.0625,35.0,1,1.0,0.27890000000002146
255,3,0.2,0.0,35.0,1,1.0,3.8116999999999734
256,3,0.2,0.0625,-35.0,1,0.0,1.6277999999999793
257,3,0.2,0.125,35.0,1,1.0,0.24860000000001037
258,3,0.2,0.25,35.0,1,1.0,0.31790000000000873
259,3,0.2,0.0625,35.0,1,1.0,0.7149000000000569
260,3,0.2,1.0,35.0,1,1.0,0.21699999999987085
261,3,0.8,1.0,-35.0,-1,1.0,0.3987999999999374
262,3,0.8,0.125,-35.0,-1,1.0,2.84069999999997
263,3,0.8,0.0625,-35.0,-1,1.0,0.39409999999998035
264,3,0.8,0.0625,35.0,1,1.0,2.2298999999999296
265,3,0.8,0.125,-35.0,-1,1.0,0.8883999999998196
266,3,0.8,1.0,-35.0,-1,1.0,0.25130000000001473
267,3,0.8,0.0625,-35.0,1,0.0,3.4448999999998478
268,3,0.8,0.0625,-35.0,-1,1.0,2.7905999999999267
269,3,0.8,0.25,35.0,1,1.0,0.31739999999990687
270,3,0.8,0.25,35.0,1,1.0,3.2596999999999525
271,3,0.8,0.125,-35.0,-1,1.0,1.6338000000000648
272,3,0.8,0.25,-35.0,1,0.0,2.2305000000000064
273,3,0.8,0.25,35.0,1,1.0,0.24839999999994689
274,3,0.8,0.25,-35.0,-1,1.0,0.7352999999999383
275,3,0.8,0.125,35.0,1,1.0,1.882199999999898
276,3,0.8,0.0,-35.0,1,0.0,2.838899999999853
277,3,0.8,0.0,-35.0,-1,1.0,0.7091000000000349
278,3,0.8,1.0,-35.0,-1,1.0,0.23919999999998254
279,3,0.8,0.25,35.0,1,1.0,0.35609999999974207
280,3,0.8,0.0625,-35.0,-1,1.0,0.5561000000000149
281,3,0.8,0.0625,-35.0,-1,1.0,0.5762999999999465
282,3,0.8,1.0,-35.0,-1,1.0,0.27300000000013824
283,3,0.8,1.0,-35.0,-1,1.0,1.1998000000000957
284,3,0.8,0.25,35.0,1,1.0,2.6698999999998705
285,3,0.8,0.125,-35.0,-1,1.0,0.5301999999999225
286,3,0.8,1.0,-35.0,-1,1.0,5.276900000000069
287,3,0.8,0.125,35.0,1,1.0,0.2805000000000746
