trial_num,session_num,stim_probability_left,contrast,position,response_choice,trial_correct,reaction_time
1,1,0.8,0.125,-35.0,-1,1.0,0.27249999999999974
2,1,0.8,0.25,35.0,1,1.0,0.28010000000000046
3,1,0.8,0.25,-35.0,-1,1.0,0.3641999999999994
4,1,0.8,1.0,35.0,1,1.0,0.24950000000000117
5,1,0.8,0.0625,35.0,1,1.0,1.9377000000000013
6,1,0.8,0.125,-35.0,-1,1.0,1.9847000000000001
7,1,0.8,0.25,35.0,1,1.0,0.20920000000000272
8,1,0.8,0.0,-35.0,-1,1.0,1.9878
9,1,0.8,0.125,-35.0,1,0.0,0.5029000000000039
10,1,0.8,1.0,35.0,1,1.0,0.1916000000000011
11,1,0.8,0.0625,-35.0,-1,1.0,2.230900000000002
12,1,0.8,0.25,35.0,1,1.0,0.26909999999999457
13,1,0.8,0.25,-35.0,-1,1.0,0.2446999999999946
14,1,0.8,1.0,-35.0,-1,1.0,0.2072999999999965
15,1,0.8,0.25,-35.0,-1,1.0,0.14779899999999202
16,1,0.8,0.125,35.0,1,1.0,0.26129999999999853
17,1,0.8,0.25,35.0,1,1.0,1.1156000000000006
18,1,0.8,0.0625,-35.0,-1,1.0,1.0468999999999937
19,1,0.8,1.0,35.0,1,1.0,0.3031999999999968
20,1,0.8,0.25,-35.0,-1,1.0,0.4491000000000014
21,1,0.8,1.0,-35.0,-1,1.0,0.2370999999999981
22,1,0.8,0.25,-35.0,-1,1.0,0.2845999999999975
23,1,0.8,1.0,-35.0,-1,1.0,0.363900000000001
24,1,0.8,0.25,-35.0,-1,1.0,0.29420000000000357
25,1,0.2,1.0,35.0,1,1.0,0.4303999999999917
26,1,0.2,0.0,35.0,-1,0.0,0.1629999999999967
27,1,0.2,0.0625,35.0,1,1.0,0.4387000000000114
28,1,0.2,0.125,35.0,-1,0.0,0.15439999999999543
29,1,0.2,0.125,35.0,1,1.0,0.24609999999999843
30,1,0.2,0.25,35.0,1,1.0,0.5093000000000103
31,1,0.2,0.25,35.0,1,1.0,0.5003999999999991
32,1,0.2,0.0625,-35.0,-1,1.0,0.5630000000000024
33,1,0.2,1.0,35.0,1,1.0,0.23640000000000327
34,1,0.2,0.0625,35.0,1,1.0,0.6615999999999929
35,1,0.2,0.0,35.0,-1,0.0,1.3024999999999949
36,1,0.2,1.0,35.0,1,1.0,0.169399999999996
37,1,0.2,0.125,35.0,1,1.0,0.23860000000000525
38,1,0.2,0.0625,-35.0,-1,1.0,0.25850000000001216
39,1,0.2,0.125,35.0,1,1.0,0.22860000000000014
40,1,0.2,0.125,35.0,1,1.0,0.491100000000003
41,1,0.2,0.125,35.0,1,1.0,0.22589999999999577
42,1,0.2,0.0625,-35.0,-1,1.0,0.5790999999999826
43,1,0.2,0.0,-35.0,-1,1.0,0.6946000000000083
44,1,0.2,1.0,35.0,1,1.0,0.21360000000001378
45,1,0.2,0.0625,35.0,1,1.0,0.3241000000000156
46,1,0.2,0.0625,35.0,1,1.0,0.54819999999998
47,1,0.2,0.0625,35.0,1,1.0,1.2414999999999736
48,1,0.2,0.25,-35.0,-1,1.0,0.2949999999999875
49,1,0.2,0.125,35.0,1,1.0,0.5574999999999761
50,1,0.2,0.25,35.0,1,1.0,0.4946999999999946
51,1,0.2,0.25,35.0,1,1.0,1.0308999999999742
52,1,0.2,1.0,35.0,1,1.0,0.33619999999999095
53,1,0.2,0.0625,35.0,1,1.0,2.1609989999999755
54,1,0.2,0.25,35.0,1,1.0,0.06679999999997221
55,1,0.2,0.0625,-35.0,1,0.0,1.7016999999999882
56,1,0.2,0.125,35.0,1,1.0,0.3348999999999762
57,1,0.2,0.0625,35.0,1,1.0,0.7231999999999914
58,1,0.2,0.125,-35.0,-1,1.0,1.0534000000000106
59,1,0.2,1.0,35.0,1,1.0,0.17779999999999063
60,1,0.2,0.25,35.0,1,1.0,0.35550000000000637
61,1,0.2,0.25,-35.0,-1,1.0,0.41669999999999163
62,1,0.2,1.0,35.0,1,1.0,0.23169999999996094
63,1,0.2,1.0,35.0,1,1.0,0.2656999999999812
64,1,0.2,0.125,35.0,1,1.0,0.4457999999999913
65,1,0.2,0.25,35.0,1,1.0,1.1332999999999913
66,1,0.2,0.0,35.0,1,1.0,0.34409899999999993
67,1,0.2,0.25,35.0,1,1.0,0.3036999999999921
68,1,0.2,0.25,-35.0,-1,1.0,0.32650000000001
69,1,0.2,1.0,35.0,1,1.0,0.27299999999999613
70,1,0.2,0.125,35.0,1,1.0,0.8936999999999955
71,1,0.2,1.0,-35.0,-1,1.0,0.2857000000000198
72,1,0.2,0.25,-35.0,-1,1.0,0.8140999999999963
73,1,0.2,0.25,-35.0,-1,1.0,0.44939999999999714
74,1,0.2,0.125,-35.0,-1,1.0,0.8543999999999983
75,1,0.2,0.0,35.0,-1,0.0,0.3493000000000279
76,1,0.2,0.25,-35.0,-1,1.0,0.18430000000000746
77,1,0.2,1.0,-35.0,-1,1.0,0.18780000000000996
78,1,0.2,0.25,-35.0,-1,1.0,0.32329999999998904
79,1,0.2,0.0625,35.0,1,1.0,0.3217999999999961
80,1,0.2,0.0625,-35.0,-1,1.0,0.1887999999999863
81,1,0.2,1.0,35.0,1,1.0,0.297300000000007
82,1,0.2,1.0,-35.0,-1,1.0,0.1898000000000195
83,1,0.2,0.125,35.0,-1,0.0,0.2550000000000523
84,1,0.2,0.125,-35.0,-1,1.0,0.26139999999998054
85,1,0.2,0.125,35.0,1,1.0,0.30780000000004293
86,1,0.2,0.25,35.0,1,1.0,0.39580000000000837
87,1,0.2,0.0625,-35.0,-1,1.0,0.47310000000004493
88,1,0.2,0.0625,35.0,1,1.0,0.7390000000000896
89,1,0.2,1.0,35.0,1,1.0,0.8910999999999945
90,1,0.2,1.0,35.0,1,1.0,1.4762999999999806
91,1,0.2,1.0,35.0,1,1.0,0.3534000000000219
92,1,0.2,0.125,35.0,1,1.0,1.7258000000000493
93,1,0.2,1.0,35.0,1,1.0,0.41190000000005966
94,1,0.2,0.125,35.0,1,1.0,0.4185000000000514
95,1,0.2,0.125,35.0,1,1.0,0.6958000000000197
96,1,0.2,0.125,35.0,1,1.0,0.20470000000000255
97,1,0.2,1.0,-35.0,-1,1.0,0.19300000000004047
98,1,0.2,1.0,35.0,1,1.0,0.42530000000004975
99,1,0.2,0.0625,-35.0,-1,1.0,1.4612000000000194
100,1,0.2,0.0,35.0,-1,0.0,4.817000000000007
101,1,0.2,1.0,35.0,1,1.0,0.27710000000001855
102,1,0.2,1.0,35.0,1,1.0,0.052500000000009095
103,1,0.2,0.25,35.0,1,1.0,0.20900000000006003
104,1,0.2,0.25,35.0,1,1.0,0.8304000000000542
105,1,0.2,1.0,35.0,1,1.0,0.3713000000000193
106,1,0.2,0.25,35.0,1,1.0,0.40310000000005175
107,1,0.8,0.25,35.0,1,1.0,0.3965000000000032
108,1,0.8,0.125,-35.0,-1,1.0,1.7214999999999918
109,1,0.8,1.0,-35.0,-1,1.0,0.4058000000000561
110,1,0.8,0.0,-35.0,1,0.0,0.5389999999999873
111,1,0.8,0.0,35.0,1,1.0,0.162399999999991
112,1,0.8,1.0,-35.0,-1,1.0,0.15450000000004138
113,1,0.8,0.0625,-35.0,-1,1.0,1.150699999999972
114,1,0.8,0.0625,-35.0,1,0.0,0.08790000000004738
115,1,0.8,0.0,-35.0,-1,1.0,0.773900000000026
116,1,0.8,0.25,-35.0,-1,1.0,0.18999999999999773
117,1,0.8,0.125,35.0,1,1.0,1.3424999999999727
118,1,0.8,0.0,-35.0,1,0.0,2.6730000000000587
119,1,0.8,0.0625,-35.0,-1,1.0,0.34370000000001255
120,1,0.8,0.0,35.0,1,1.0,0.8231000000000108
121,1,0.8,0.125,-35.0,-1,1.0,0.2820000000000391
122,1,0.8,1.0,35.0,1,1.0,0.16999999999995907
123,1,0.8,0.125,35.0,1,1.0,2.3121000000000436
124,1,0.8,0.25,-35.0,-1,1.0,0.43100000000004
125,1,0.8,0.25,-35.0,-1,1.0,0.14200000000005275
126,1,0.8,0.25,-35.0,-1,1.0,0.4682000000000244
127,1,0.8,0.0625,-35.0,-1,1.0,1.0563000000000216
128,1,0.8,0.25,-35.0,-1,1.0,1.04910000000001
129,1,0.8,0.125,-35.0,-1,1.0,0.44710000000003447
130,1,0.8,0.25,35.0,1,1.0,0.3350000000000364
131,1,0.8,0.25,35.0,1,1.0,0.5857000000000312
132,1,0.8,0.0625,-35.0,-1,1.0,0.8273000000000366
133,1,0.2,0.25,35.0,1,1.0,0.41620000000000346
134,1,0.2,1.0,35.0,1,1.0,0.42430000000001655
135,1,0.2,0.125,35.0,1,1.0,0.16490000000004557
136,1,0.2,0.25,35.0,1,1.0,0.49130000000002383
137,1,0.2,0.125,35.0,1,1.0,0.4589000000000283
138,1,0.2,0.25,35.0,1,1.0,0.2724000000000615
139,1,0.2,1.0,35.0,1,1.0,0.36160000000006676
140,1,0.2,0.125,35.0,1,1.0,1.3280000000000882
141,1,0.2,1.0,35.0,1,1.0,4.663100000000043
142,1,0.2,0.25,35.0,1,1.0,0.393600000000049
143,1,0.2,0.0625,-35.0,-1,1.0,0.49680000000000746
144,1,0.2,0.0625,35.0,1,1.0,0.38510000000002265
145,1,0.2,0.0,35.0,-1,0.0,1.3892999999999915
146,1,0.2,0.0,35.0,1,1.0,0.16410000000007585
147,1,0.2,0.0625,35.0,1,1.0,0.7647000000000617
148,1,0.2,0.0625,-35.0,1,0.0,3.5778999999999996
149,1,0.2,0.0,35.0,1,1.0,0.3182000000000471
150,1,0.2,0.0625,35.0,1,1.0,0.568300000000022
151,1,0.2,0.25,35.0,1,1.0,0.44060000000001764
152,1,0.2,0.125,35.0,1,1.0,0.4146000000000072
153,1,0.2,0.0625,35.0,1,1.0,0.446200000000033
154,1,0.2,0.25,35.0,1,1.0,0.49550000000004957
155,1,0.2,0.0625,35.0,1,1.0,1.6627000000000294
156,1,0.2,0.0,35.0,1,1.0,0.6712000000000558
157,1,0.2,0.25,-35.0,-1,1.0,0.6705000000000041
158,1,0.2,0.125,35.0,1,1.0,1.6546990000000505
159,1,0.2,0.0625,35.0,1,1.0,0.2692000000000121
160,1,0.2,1.0,35.0,1,1.0,0.30270000000001573
161,1,0.2,1.0,35.0,1,1.0,0.25749999999993634
162,1,0.2,0.0,35.0,1,1.0,0.24189999999987322
163,1,0.2,0.25,35.0,1,1.0,1.5276000000000067
164,1,0.2,0.25,-35.0,-1,1.0,0.26400000000001
165,1,0.2,0.0,35.0,1,1.0,0.8801999999999452
166,1,0.2,1.0,35.0,1,1.0,0.16869999999983065
167,1,0.2,0.125,35.0,1,1.0,0.23559999999997672
168,1,0.2,0.0625,-35.0,1,0.0,1.5337999999999283
169,1,0.2,0.0625,35.0,1,1.0,0.3432000000000244
170,1,0.2,0.0625,35.0,1,1.0,0.37419999999997344
171,1,0.2,0.125,35.0,1,1.0,0.4694999999999254
172,1,0.2,0.0625,-35.0,-1,1.0,1.753500000000031
173,1,0.2,0.0625,-35.0,1,0.0,2.4045999999999594
174,1,0.2,0.25,35.0,1,1.0,0.16629999999986467
175,1,0.2,0.0625,-35.0,-1,1.0,0.345299999999952
176,1,0.2,1.0,35.0,1,1.0,0.2847000000000435
177,1,0.2,0.125,-35.0,-1,1.0,0.2579000000000633
178,1,0.2,1.0,35.0,1,1.0,0.23460000000011405
179,1,0.2,0.0,35.0,-1,0.0,5.223100000000045
180,1,0.2,0.125,35.0,1,1.0,0.22079999999994016
181,1,0.2,0.0,35.0,-1,0.0,6.119299999999953
182,1,0.2,0.125,-35.0,-1,1.0,0.18510000000003402
183,1,0.2,0.25,35.0,1,1.0,0.30150000000003274
184,1,0.2,0.25,-35.0,-1,1.0,0.24230000000000018
185,1,0.2,0.125,35.0,1,1.0,0.32970000000000255
186,1,0.2,0.0,35.0,-1,0.0,0.9578000000000202
187,1,0.2,1.0,35.0,1,1.0,0.28149999999993724
188,1,0.2,1.0,35.0,1,1.0,0.12199999999995725
189,1,0.2,0.25,35.0,1,1.0,0.20549999999991542
190,1,0.2,0.0625,35.0,1,1.0,1.666400000000067
191,1,0.2,0.0625,-35.0,-1,1.0,0.1994999999999436
192,1,0.2,0.0625,-35.0,-1,1.0,1.0674999999999955
193,1,0.2,0.125,35.0,1,1.0,0.3487999999998692
194,1,0.2,1.0,-35.0,-1,1.0,0.2522999999999911
195,1,0.2,0.0,-35.0,-1,1.0,0.19459999999992306
196,1,0.2,1.0,35.0,1,1.0,0.24519999999995434
197,1,0.2,0.0625,35.0,1,1.0,1.342599999999834
198,1,0.2,1.0,-35.0,-1,1.0,0.217899999999986
199,1,0.2,1.0,35.0,1,1.0,0.23449999999991178
200,1,0.2,0.0,35.0,-1,0.0,3.087199999999939
201,1,0.2,1.0,35.0,1,1.0,0.1794999999999618
202,1,0.2,0.0625,-35.0,-1,1.0,0.328499999999849
203,1,0.2,0.25,35.0,1,1.0,0.22649999999998727
204,1,0.2,0.125,35.0,1,1.0,0.28349999999988995
205,1,0.2,1.0,35.0,1,1.0,0.5749999999999318
206,1,0.2,0.125,35.0,1,1.0,0.2504999999999882
207,1,0.2,0.125,35.0,1,1.0,0.365099999999984
208,1,0.2,0.0,35.0,1,1.0,0.952199999999948
209,1,0.2,0.0625,35.0,1,1.0,0.5764000000000351
210,1,0.2,1.0,35.0,1,1.0,0.4844999999999118
211,1,0.2,1.0,-35.0,-1,1.0,3.008799999999951
212,1,0.2,0.25,35.0,1,1.0,0.6218000000000075
213,1,0.2,0.0,-35.0,1,0.0,0.6149000000000342
214,1,0.2,0.25,35.0,1,1.0,0.20629999999994197
215,1,0.2,1.0,35.0,1,1.0,0.3897999999999229
216,1,0.2,0.125,-35.0,-1,1.0,1.4324999999998909
217,1,0.2,0.0625,35.0,1,1.0,0.4415000000000191
218,1,0.2,1.0,35.0,1,1.0,0.2944999999999709
219,1,0.8,0.25,-35.0,-1,1.0,2.1937000000000353
220,1,0.8,0.0625,-35.0,-1,1.0,0.8564999999999827
221,1,0.8,0.25,-35.0,-1,1.0,0.33960000000001855
222,1,0.8,0.0625,35.0,1,1.0,0.4155999999999267
223,1,0.8,0.25,-35.0,-1,1.0,0.6862999999999602
224,1,0.8,0.125,35.0,1,1.0,0.39049999999997453
225,1,0.8,0.0,-35.0,-1,1.0,1.4974999999999454
226,1,0.8,0.125,-35.0,-1,1.0,1.4898999999999205
227,1,0.8,0.0625,-35.0,1,0.0,0.21349999999995362
228,1,0.8,1.0,-35.0,-1,1.0,0.19109999999989213
229,1,0.8,0.125,-35.0,-1,1.0,0.2908999999999651
230,1,0.8,0.125,-35.0,-1,1.0,2.8036999999999352
231,1,0.8,0.0625,-35.0,-1,1.0,1.0212999999999965
232,1,0.8,1.0,35.0,1,1.0,0.2516000000000531
233,1,0.8,0.0625,-35.0,-1,1.0,0.4701000000000022
234,1,0.8,0.25,-35.0,-1,1.0,0.3707999999999174
235,1,0.8,0.125,35.0,1,1.0,0.4319999999999027
236,1,0.8,0.125,-35.0,-1,1.0,0.21439999999995507
237,1,0.8,0.0625,-35.0,-1,1.0,0.3125999999998612
238,1,0.8,0.0625,-35.0,1,0.0,1.7831999999999653
239,1,0.8,0.25,-35.0,-1,1.0,0.1370999999999185
240,1,0.8,0.125,-35.0,-1,1.0,0.25660000000004857
241,1,0.8,0.0625,-35.0,-1,1.0,0.04369999999994434
242,1,0.8,0.125,-35.0,-1,1.0,1.2613999999999805
243,1,0.8,0.125,-35.0,-1,1.0,1.6977000000000544
244,1,0.8,0.25,-35.0,-1,1.0,0.495900000000006
245,1,0.2,0.25,35.0,1,1.0,0.5626999999999498
246,1,0.2,1.0,35.0,1,1.0,0.2581000000000131
247,1,0.2,0.125,35.0,1,1.0,0.8665000000000873
248,1,0.2,0.25,-35.0,-1,1.0,0.1856999999998834
249,1,0.2,0.125,35.0,1,1.0,0.3190999999999349
250,1,0.2,0.0625,35.0,1,1.0,0.781099999999924
251,1,0.2,0.125,35.0,1,1.0,2.222699999999918
252,1,0.2,0.25,35.0,1,1.0,0.45069999999998345
253,1,0.2,0.0625,35.0,1,1.0,3.24369999999999
254,1,0.2,1.0,35.0,1,1.0,0.6876999999998361
255,1,0.2,0.0625,35.0,1,1.0,0.37789999999995416
256,1,0.2,0.0625,35.0,-1,0.0,1.27049999999997
257,1,0.2,0.25,35.0,1,1.0,0.38389999999992597
258,1,0.2,1.0,35.0,1,1.0,0.18729899999993904
259,1,0.2,0.0,35.0,1,1.0,0.9239999999999782
260,1,0.2,0.0625,35.0,1,1.0,0.4836999999998852
261,1,0.2,1.0,35.0,1,1.0,0.2238999999999578
262,1,0.2,0.125,35.0,1,1.0,0.8718000000000075
263,1,0.2,0.25,35.0,1,1.0,0.33990000000005693
264,1,0.2,0.125,35.0,1,1.0,0.36400000000003274
265,1,0.2,1.0,35.0,1,1.0,0.4860999999999649
266,1,0.2,1.0,35.0,1,1.0,0.19900000000006912
267,1,0.2,0.0,35.0,1,1.0,2.473600000000033
268,1,0.2,0.0625,35.0,1,1.0,2.862799999999993
269,1,0.2,0.125,35.0,1,1.0,0.39030000000002474
270,1,0.2,1.0,35.0,1,1.0,0.3228999999998905
271,1,0.2,0.25,35.0,1,1.0,0.08289999999999509
272,1,0.2,0.0,35.0,1,1.0,0.6707999999999856
273,1,0.2,0.125,35.0,1,1.0,1.098799999999983
274,1,0.2,0.0625,-35.0,-1,1.0,0.6671000000000049
275,1,0.2,0.0625,35.0,1,1.0,0.25289999999995416
276,1,0.2,0.25,-35.0,-1,1.0,0.27899999999999636
277,1,0.2,0.25,-35.0,-1,1.0,0.09500000000002728
278,1,0.2,0.0625,35.0,1,1.0,0.12059999999985394
279,1,0.8,0.125,-35.0,-1,1.0,0.2699999999999818
280,1,0.8,0.0625,-35.0,-1,1.0,0.30780000000004293
281,1,0.8,0.25,-35.0,-1,1.0,1.439499999999839
282,1,0.8,0.25,-35.0,-1,1.0,0.17719999999997071
283,1,0.8,0.125,-35.0,-1,1.0,0.3977999999999611
284,1,0.8,0.25,-35.0,-1,1.0,0.25509999999997035
285,1,0.8,0.125,-35.0,-1,1.0,0.3851000000000795
286,1,0.8,0.0625,-35.0,-1,1.0,0.8588999999999487
287,1,0.8,0.25,-35.0,-1,1.0,0.14589999999998327
288,1,0.8,0.0625,-35.0,-1,1.0,1.0320999999999003
289,1,0.8,0.25,35.0,1,1.0,0.6096999999999753
290,1,0.8,0.125,-35.0,-1,1.0,0.5131999999999834
291,1,0.8,0.125,-35.0,-1,1.0,0.644399999999905
292,1,0.8,0.0,-35.0,1,0.0,1.5718999999999141
293,1,0.8,1.0,-35.0,-1,1.0,0.2463999999998805
294,1,0.8,0.125,-35.0,1,0.0,0.045999999999935426
295,1,0.8,0.125,35.0,-1,0.0,1.6908999999999423
296,1,0.8,1.0,-35.0,-1,1.0,0.20429999999998927
297,1,0.8,1.0,-35.0,-1,1.0,0.217899999999986
298,1,0.8,0.0,-35.0,-1,1.0,1.6212000000000444
299,1,0.8,0.125,-35.0,-1,1.0,0.21489999999994325
300,1,0.8,0.25,-35.0,-1,1.0,0.2848999999998796
301,1,0.8,0.0625,-35.0,-1,1.0,5.367999999999938
302,1,0.8,0.125,-35.0,-1,1.0,5.971699999999828
303,1,0.8,0.0625,35.0,-1,0.0,4.361899999999878
304,1,0.8,0.125,-35.0,-1,1.0,19.53839999999991
305,1,0.8,0.125,-35.0,-1,1.0,4.3723999999999705
306,1,0.8,0.0625,-35.0,1,0.0,0.6896999999999025
307,1,0.8,0.0625,-35.0,-1,1.0,11.916099999999915
308,1,0.8,0.125,35.0,-1,0.0,8.476499999999987
309,1,0.8,0.25,-35.0,-1,1.0,3.9163999999998396
310,1,0.8,0.25,-35.0,-1,1.0,0.45309999999994943
311,1,0.8,1.0,-35.0,-1,1.0,0.21659999999997126
312,1,0.8,0.25,-35.0,-1,1.0,0.22309999999993124
313,1,0.8,0.25,-35.0,-1,1.0,0.19659999999998945
314,1,0.8,0.0625,-35.0,-1,1.0,0.21010000000001128
315,1,0.8,1.0,-35.0,-1,1.0,0.2899999999999636
316,1,0.8,1.0,-35.0,-1,1.0,0.19029999999997926
317,1,0.8,0.25,35.0,1,1.0,1.1170999999999367
318,1,0.8,0.0,35.0,-1,0.0,9.016900000000078
319,1,0.8,0.25,-35.0,-1,1.0,0.2704999999998563
320,1,0.8,0.125,-35.0,-1,1.0,0.6372000000001208
321,1,0.8,1.0,-35.0,-1,1.0,0.1740999999997257
322,1,0.8,0.125,-35.0,-1,1.0,0.8740000000000236
323,1,0.8,0.125,-35.0,-1,1.0,0.26729999999997744
324,1,0.8,0.25,-35.0,-1,1.0,0.2440999999998894
325,1,0.8,0.125,-35.0,-1,1.0,0.22739999999998872
326,1,0.8,0.25,35.0,1,1.0,0.8805999999999585
327,1,0.8,0.25,-35.0,-1,1.0,0.17739999999980682
328,1,0.2,0.125,35.0,-1,0.0,10.1875
329,1,0.2,0.0,35.0,-1,0.0,0.9082000000000789
330,1,0.2,0.25,35.0,-1,0.0,4.164700000000039
331,1,0.2,0.0625,-35.0,-1,1.0,1.8813000000000102
332,1,0.2,0.0625,35.0,-1,0.0,3.945299999999861
333,1,0.2,0.25,35.0,1,1.0,0.4416000000001077
334,1,0.2,1.0,35.0,1,1.0,0.43219999999996617
335,1,0.2,0.0625,35.0,-1,0.0,1.955199999999877
336,1,0.2,0.0625,35.0,-1,0.0,6.42899999999986
337,1,0.2,0.0,35.0,1,1.0,3.065399999999954
338,1,0.2,0.0,35.0,1,1.0,7.405500000000075
339,1,0.2,0.0625,35.0,1,1.0,0.7823000000000775
340,1,0.2,0.25,-35.0,-1,1.0,1.1493000000000393
341,1,0.2,0.0,35.0,-1,0.0,0.9322999999999411
342,1,0.2,1.0,35.0,1,1.0,0.21929999999997563
343,1,0.2,0.0,35.0,1,1.0,0.3392999999998665
344,1,0.2,0.25,35.0,1,1.0,0.19260000000008404
345,1,0.2,1.0,35.0,1,1.0,0.14259999999990214
346,1,0.2,0.25,-35.0,-1,1.0,1.6463999999998578
347,1,0.2,0.125,35.0,-1,0.0,1.3993000000000393
348,1,0.2,0.125,35.0,1,1.0,0.25
349,1,0.2,0.0,35.0,1,1.0,0.29970000000002983
350,1,0.2,0.25,35.0,1,1.0,0.9268999999999323
351,1,0.2,0.25,35.0,1,1.0,0.1433999999999287
352,1,0.2,0.125,-35.0,-1,1.0,0.3028999999999087
353,1,0.2,0.0,35.0,-1,0.0,1.893400000000156
354,1,0.2,0.125,35.0,1,1.0,0.22689999999988686
355,1,0.2,0.0,35.0,-1,0.0,9.8904
356,1,0.2,1.0,35.0,1,1.0,0.3306000000002314
357,1,0.2,0.0625,35.0,1,1.0,2.7974000000001524
358,1,0.2,0.0625,35.0,1,1.0,0.43699999999989814
359,1,0.2,0.0625,35.0,1,1.0,3.037399999999934
360,1,0.2,1.0,35.0,1,1.0,0.21389999999973952
361,1,0.2,0.25,35.0,1,1.0,0.2903999999998632
362,1,0.2,0.125,35.0,1,1.0,0.16390000000001237
363,1,0.2,0.0625,35.0,1,1.0,0.3206000000000131
364,1,0.2,1.0,35.0,1,1.0,0.2277000000001408
365,1,0.2,0.25,35.0,1,1.0,0.16399999999998727
366,1,0.2,1.0,35.0,1,1.0,0.35419999999999163
367,1,0.2,0.0625,-35.0,-1,1.0,0.3673999999998614
368,1,0.2,1.0,35.0,1,1.0,0.16439999999988686
369,1,0.2,0.125,35.0,1,1.0,0.9445000000000618
370,1,0.2,0.25,35.0,1,1.0,0.24139999999988504
371,1,0.2,1.0,-35.0,-1,1.0,0.20450000000005275
372,1,0.2,0.25,-35.0,-1,1.0,0.44790000000011787
373,1,0.2,0.25,35.0,1,1.0,0.1977999999999156
374,1,0.2,0.0625,35.0,1,1.0,0.25499999999988177
375,1,0.8,0.0625,35.0,1,1.0,0.5714000000000397
376,1,0.8,0.0625,-35.0,-1,1.0,0.8248999999998432
377,1,0.8,0.0625,-35.0,1,0.0,0.19870000000014443
378,1,0.8,0.0625,-35.0,-1,1.0,0.7515000000000782
379,1,0.8,0.25,-35.0,-1,1.0,0.49850000000014916
380,1,0.8,0.125,-35.0,-1,1.0,0.3585000000000491
381,1,0.8,1.0,-35.0,-1,1.0,0.1451999999999316
382,1,0.8,1.0,-35.0,-1,1.0,0.22869999999988977
383,1,0.8,0.25,-35.0,-1,1.0,0.305299999999761
384,1,0.8,0.0,-35.0,-1,1.0,1.8821999999997843
385,1,0.8,0.125,-35.0,-1,1.0,0.17589999999995598
386,1,0.8,0.25,-35.0,-1,1.0,0.35229999999978645
387,1,0.8,1.0,35.0,1,1.0,0.1390000000001237
388,1,0.8,0.0,-35.0,-1,1.0,1.6588990000000194
389,1,0.8,0.125,35.0,1,1.0,0.24620000000004438
390,1,0.8,0.25,-35.0,-1,1.0,0.4393999999999778
391,1,0.8,0.0625,-35.0,-1,1.0,0.2396000000001095
392,1,0.8,1.0,-35.0,-1,1.0,0.13600000000019463
393,1,0.8,1.0,-35.0,-1,1.0,0.14959999999996398
394,1,0.8,0.0,-35.0,-1,1.0,1.149599999999964
395,1,0.8,0.25,-35.0,-1,1.0,0.1795999999999367
396,1,0.8,0.25,-35.0,-1,1.0,0.1795999999999367
397,1,0.8,0.25,-35.0,-1,1.0,0.4629000000002179
398,1,0.8,0.125,-35.0,-1,1.0,0.5929000000000997
399,1,0.8,0.0625,-35.0,-1,1.0,0.5399999999999636
400,1,0.8,0.0625,-35.0,-1,1.0,0.13969999999994798
401,1,0.8,0.25,35.0,1,1.0,1.1399000000001251
402,1,0.2,0.25,-35.0,-1,1.0,0.21719999999982065
403,1,0.2,1.0,35.0,1,1.0,0.19669999999996435
404,1,0.2,0.0625,-35.0,-1,1.0,0.48669999999992797
405,1,0.2,1.0,35.0,1,1.0,0.4735000000000582
406,1,0.2,0.125,35.0,1,1.0,4.366899999999987
407,1,0.2,0.0,35.0,-1,0.0,0.7937999999999192
408,1,0.2,1.0,-35.0,-1,1.0,0.20709999999985484
409,1,0.2,1.0,35.0,1,1.0,0.18450000000007094
410,1,0.2,0.25,35.0,1,1.0,0.38069999999970605
411,1,0.2,0.25,-35.0,-1,1.0,0.37770000000000437
412,1,0.2,0.25,35.0,1,1.0,1.0440000000000964
413,1,0.2,0.25,35.0,1,1.0,1.8940999999999804
414,1,0.2,0.0,-35.0,1,0.0,0.9812999999999192
415,1,0.2,0.0625,35.0,1,1.0,0.28769999999985885
416,1,0.2,0.125,35.0,1,1.0,0.10769999999979518
417,1,0.2,0.0625,35.0,1,1.0,0.27099999999995816
418,1,0.2,0.125,35.0,1,1.0,0.298200000000179
419,1,0.2,0.0,35.0,-1,0.0,3.614799999999832
420,1,0.2,1.0,35.0,1,1.0,0.23479999999995016
421,1,0.2,0.0,35.0,1,1.0,0.1916999999998552
422,1,0.2,0.25,35.0,1,1.0,0.27150000000006
423,1,0.2,1.0,35.0,1,1.0,0.5547999999998865
424,1,0.2,0.0,35.0,1,1.0,0.3757999999997992
425,1,0.2,1.0,35.0,1,1.0,0.15499999999997272
426,1,0.2,0.0625,-35.0,-1,1.0,0.4987999999998465
427,1,0.2,0.25,35.0,1,1.0,0.10500000000001819
428,1,0.2,0.125,35.0,1,1.0,0.5452999999999975
429,1,0.2,0.0,35.0,1,1.0,0.5251000000000658
430,1,0.2,0.25,-35.0,-1,1.0,0.16190000000005966
431,1,0.2,0.25,35.0,1,1.0,0.19880000000011933
432,1,0.2,1.0,35.0,1,1.0,0.2988000000000284
433,1,0.2,0.125,-35.0,-1,1.0,0.5220000000001619
434,1,0.2,0.25,35.0,1,1.0,0.32910000000015316
435,1,0.2,0.0625,35.0,1,1.0,0.2658999999998741
436,1,0.2,0.0625,35.0,1,1.0,0.6958999999999378
437,1,0.2,0.125,35.0,1,1.0,0.2423999999998614
438,1,0.2,0.125,-35.0,-1,1.0,0.16290000000003602
439,1,0.8,0.0625,-35.0,1,0.0,0.449100000000044
440,1,0.8,0.0625,-35.0,1,0.0,0.2157999999999447
441,1,0.8,0.125,-35.0,-1,1.0,0.2826999999999771
442,1,0.8,0.0625,-35.0,1,0.0,0.16260000000011132
443,1,0.8,0.25,-35.0,-1,1.0,0.21289999999976317
444,1,0.8,0.0625,-35.0,-1,1.0,1.6394999999997708
445,1,0.8,0.125,-35.0,-1,1.0,0.9359999999999218
446,1,0.8,0.0625,-35.0,-1,1.0,0.3329000000001088
447,1,0.8,0.125,-35.0,1,0.0,0.14619900000002417
448,1,0.8,0.25,-35.0,-1,1.0,0.2962000000002263
449,1,0.8,1.0,-35.0,-1,1.0,0.1596999999999298
450,1,0.8,0.0625,-35.0,-1,1.0,0.6897999999998774
451,1,0.8,0.0625,-35.0,1,0.0,0.35989999999992506
452,1,0.8,1.0,-35.0,-1,1.0,0.18309999999996762
453,1,0.8,0.25,35.0,1,1.0,0.29359999999996944
454,1,0.8,0.25,35.0,-1,0.0,0.17689999999993233
455,1,0.8,0.25,-35.0,-1,1.0,0.2567999999998847
456,1,0.8,1.0,-35.0,-1,1.0,-0.04310000000009495
457,1,0.8,1.0,-35.0,-1,1.0,0.20699999999987995
458,1,0.8,0.125,35.0,1,1.0,0.2637999999999465
459,1,0.8,0.0625,-35.0,-1,1.0,1.8304000000000542
460,1,0.8,0.125,-35.0,-1,1.0,0.2505999999998494
461,1,0.8,0.125,-35.0,-1,1.0,0.49709999999981846
462,1,0.8,1.0,35.0,1,1.0,0.2237999999999829
463,1,0.8,1.0,-35.0,-1,1.0,0.2039999999997235
464,1,0.8,1.0,-35.0,-1,1.0,0.23399899999981244
465,1,0.8,0.0625,-35.0,-1,1.0,0.3409999999998945
466,1,0.8,0.125,35.0,1,1.0,1.1839990000000853
467,1,0.8,1.0,-35.0,-1,1.0,0.14420000000018263
468,1,0.8,1.0,-35.0,-1,1.0,0.2313000000001466
469,1,0.8,0.25,-35.0,-1,1.0,0.25099999999997635
470,1,0.8,1.0,-35.0,-1,1.0,3.054300000000012
471,1,0.8,0.0625,-35.0,-1,1.0,0.3111999999998716
472,1,0.8,0.125,-35.0,-1,1.0,0.0910999999998694
473,1,0.8,0.125,-35.0,-1,1.0,0.52800000000002
474,1,0.8,0.25,-35.0,-1,1.0,0.33799999999973807
475,1,0.8,0.125,35.0,1,1.0,0.8247000000001208
476,1,0.8,0.0625,-35.0,-1,1.0,3.9247999999997774
477,1,0.8,1.0,-35.0,-1,1.0,0.2016000000000986
478,1,0.8,0.125,-35.0,1,0.0,0.1217999999996664
479,1,0.8,0.0625,-35.0,-1,1.0,0.471599999999853
480,1,0.8,0.25,35.0,1,1.0,0.4551000000001295
481,1,0.8,0.0625,-35.0,-1,1.0,1.2720999999999094
482,1,0.8,0.25,-35.0,-1,1.0,0.8386000000000422
483,1,0.8,1.0,-35.0,-1,1.0,0.24509999999986576
484,1,0.8,0.25,-35.0,-1,1.0,0.36220000000002983
485,1,0.8,1.0,-35.0,-1,1.0,0.19869999999991705
486,1,0.8,0.125,-35.0,-1,1.0,0.32219999999983884
487,1,0.8,1.0,-35.0,-1,1.0,0.32559999999989486
488,1,0.8,1.0,-35.0,-1,1.0,0.1856000000000222
489,1,0.8,0.0,-35.0,-1,1.0,1.3196000000000367
490,1,0.8,0.0,-35.0,1,0.0,0.7222999999999047
491,1,0.8,0.0625,35.0,-1,0.0,0.1993999999999687
492,1,0.8,0.25,-35.0,-1,1.0,0.23600000000010368
493,1,0.8,1.0,-35.0,-1,1.0,0.15259999999989304
494,1,0.8,0.0,35.0,-1,0.0,0.5461999999997715
495,1,0.8,0.0,35.0,1,1.0,0.4360999999998967
496,1,0.8,0.0625,-35.0,-1,1.0,0.21630000000004657
497,1,0.8,0.125,-35.0,-1,1.0,0.17619999999988067
498,1,0.8,0.0625,-35.0,-1,1.0,0.05629999999973734
499,1,0.8,0.0625,-35.0,-1,1.0,0.5098000000000411
500,1,0.8,0.125,35.0,1,1.0,0.3031999999998334
501,1,0.8,0.25,-35.0,-1,1.0,0.2464999999997417
502,1,0.8,0.25,-35.0,-1,1.0,0.36649999999985994
503,1,0.8,1.0,-35.0,-1,1.0,0.22029999999995198
504,1,0.8,0.125,-35.0,-1,1.0,0.10320000000001528
505,1,0.8,1.0,-35.0,-1,1.0,0.13639999999986685
506,1,0.8,0.125,35.0,1,1.0,0.836699999999837
507,1,0.8,1.0,-35.0,-1,1.0,0.16679999999996653
508,1,0.8,0.125,-35.0,-1,1.0,0.26680000000010295
509,1,0.8,0.25,-35.0,-1,1.0,0.19079999999985375
510,1,0.8,1.0,-35.0,-1,1.0,0.3170999999999822
511,1,0.8,0.25,-35.0,-1,1.0,0.1936000000000604
512,1,0.8,0.0,-35.0,-1,1.0,0.22079999999982647
513,1,0.8,0.125,-35.0,-1,1.0,0.0705000000000382
514,1,0.2,0.125,35.0,1,1.0,0.4473000000000411
515,1,0.2,0.25,35.0,1,1.0,0.17380000000002838
516,1,0.2,1.0,-35.0,-1,1.0,0.14079999999989923
517,1,0.2,1.0,35.0,1,1.0,0.2844000000000051
518,1,0.2,0.0625,35.0,1,1.0,2.5105999999998403
519,1,0.2,0.125,35.0,1,1.0,0.11070000000017899
520,1,0.2,0.25,35.0,1,1.0,0.2544000000000324
521,1,0.2,0.0,35.0,-1,0.0,0.15789999999992688
522,1,0.2,0.0625,35.0,-1,0.0,0.8543999999999414
523,1,0.2,0.125,-35.0,1,0.0,0.2544000000000324
524,1,0.2,1.0,35.0,1,1.0,0.23779999999987922
525,1,0.2,0.25,35.0,1,1.0,0.5949000000000524
526,1,0.2,1.0,35.0,1,1.0,0.3647000000000844
527,1,0.2,1.0,35.0,1,1.0,0.2018990000001395
528,1,0.2,0.0625,35.0,-1,0.0,0.7980999999997493
529,1,0.2,0.0625,35.0,-1,0.0,0.15839999999980137
530,1,0.2,0.0625,35.0,1,1.0,0.5516000000000076
531,1,0.2,0.125,35.0,1,1.0,0.3188000000000102
532,1,0.2,0.0625,35.0,-1,0.0,0.055399999999963256
533,1,0.2,0.125,35.0,1,1.0,0.24169999999980973
534,1,0.2,0.0625,35.0,-1,0.0,2.7023000000001502
535,1,0.2,1.0,35.0,1,1.0,0.17539899999997033
536,1,0.2,0.25,35.0,1,1.0,1.8118999999999232
537,1,0.2,0.25,35.0,1,1.0,0.19860000000016953
538,1,0.2,0.125,35.0,1,1.0,0.2826000000000022
539,1,0.2,0.125,35.0,1,1.0,0.3389999999999418
540,1,0.2,0.125,-35.0,1,0.0,0.189200000000028
541,1,0.2,1.0,35.0,1,1.0,0.18259999999986576
542,1,0.2,0.25,35.0,1,1.0,0.17289999999979955
543,1,0.2,1.0,35.0,1,1.0,0.23899999999980537
544,1,0.2,0.25,35.0,1,1.0,0.405699999999797
545,1,0.2,0.25,35.0,1,1.0,0.24610000000006949
546,1,0.2,0.0625,35.0,1,1.0,0.6463999999998578
547,1,0.2,0.25,35.0,1,1.0,0.4028000000000702
548,1,0.2,0.0625,35.0,-1,0.0,1.0963999999999032
549,1,0.2,0.125,35.0,1,1.0,0.1796999999999116
550,1,0.2,0.0625,35.0,1,1.0,0.13290000000029067
551,1,0.2,0.25,35.0,1,1.0,0.423200000000179
552,1,0.2,0.125,35.0,1,1.0,0.19650000000001455
553,1,0.2,0.125,35.0,1,1.0,0.24990000000025248
554,1,0.2,0.0625,35.0,1,1.0,0.9335000000000946
555,1,0.2,0.125,35.0,1,1.0,0.343199999999797
556,1,0.2,0.0,-35.0,1,0.0,0.19659999999976208
557,1,0.2,0.25,-35.0,-1,1.0,0.20060000000012224
558,1,0.2,0.125,35.0,1,1.0,0.43659999999999854
559,1,0.2,1.0,35.0,1,1.0,0.4034999999998945
560,1,0.2,1.0,35.0,1,1.0,0.317000000000462
561,1,0.2,0.25,35.0,1,1.0,0.5704999999998108
562,1,0.2,0.0,35.0,1,1.0,1.4704999999999018
563,1,0.2,1.0,35.0,1,1.0,0.2504999999996471
564,1,0.2,0.0,35.0,1,1.0,0.2739999999998872
565,1,0.2,0.0,35.0,-1,0.0,3.160699999999906
566,1,0.2,0.125,35.0,1,1.0,0.6408000000001266
567,1,0.2,0.0625,35.0,-1,0.0,0.1908000000003085
568,1,0.2,0.0,-35.0,1,0.0,3.927599999999984
569,1,0.2,0.125,35.0,1,1.0,0.260899999999765
570,1,0.2,0.25,35.0,1,1.0,0.31120000000009895
571,1,0.2,0.25,35.0,1,1.0,0.13759900000013658
572,1,0.2,0.25,-35.0,-1,1.0,0.17779999999947904
573,1,0.2,0.0,-35.0,1,0.0,0.22489999999970678
574,1,0.2,0.0625,35.0,-1,0.0,1.0884000000005472
575,1,0.2,1.0,35.0,1,1.0,0.23869999999988067
576,1,0.2,0.0625,35.0,-1,0.0,0.4882999999999811
577,1,0.2,1.0,35.0,1,1.0,0.24870000000009895
578,1,0.2,0.25,35.0,1,1.0,0.8151000000002568
579,1,0.2,0.125,35.0,1,1.0,0.3087000000000444
580,1,0.2,1.0,-35.0,-1,1.0,0.15170000000034634
581,1,0.2,0.25,35.0,1,1.0,0.2481999999999971
582,1,0.2,0.0625,35.0,1,1.0,0.1617999999998574
583,1,0.2,0.125,35.0,1,1.0,0.935099999999693
584,1,0.2,0.0625,-35.0,-1,1.0,1.9117999999998574
585,1,0.2,1.0,35.0,1,1.0,0.271900000000187
586,1,0.2,0.0,35.0,1,1.0,0.2887000000000626
587,1,0.2,0.0625,35.0,-1,0.0,2.262200000000121
588,1,0.2,0.0,35.0,1,1.0,0.4756999999999607
589,1,0.2,0.0625,-35.0,1,0.0,5.142100000000028
590,1,0.2,0.25,-35.0,1,0.0,0.33570000000008804
591,1,0.2,1.0,35.0,1,1.0,0.24569999999994252
592,1,0.2,0.0625,35.0,1,1.0,0.22910000000001673
593,1,0.2,0.0625,-35.0,1,0.0,1.2859000000003107
594,1,0.2,0.0625,35.0,1,1.0,0.5491999999994732
595,1,0.8,0.0625,35.0,1,1.0,0.5257000000001426
596,1,0.8,0.0625,-35.0,1,0.0,0.34629999999970096
597,1,0.8,0.0625,35.0,-1,0.0,5.496100000000297
598,1,0.8,0.125,-35.0,-1,1.0,0.28960000000006403
599,1,0.8,0.25,-35.0,-1,1.0,0.4130000000000109
600,1,0.8,0.25,-35.0,-1,1.0,0.25680000000011205
601,1,0.8,0.125,-35.0,-1,1.0,0.36669999999958236
602,1,0.8,0.0625,35.0,-1,0.0,4.013800000000174
603,1,0.8,0.25,35.0,-1,0.0,0.8832999999995081
604,1,0.8,0.125,-35.0,-1,1.0,0.19329999999990832
605,1,0.8,0.25,-35.0,-1,1.0,0.1835000000000946
606,1,0.8,1.0,-35.0,-1,1.0,0.3000000000001819
607,1,0.8,0.25,-35.0,-1,1.0,0.2403999999996813
608,1,0.8,1.0,-35.0,-1,1.0,0.19709999999986394
609,1,0.8,0.125,-35.0,-1,1.0,0.26359999999976935
610,1,0.8,1.0,-35.0,-1,1.0,0.1875
611,1,0.8,0.25,-35.0,-1,1.0,0.14390000000003056
612,1,0.8,1.0,-35.0,-1,1.0,0.16400000000021464
613,1,0.8,0.0625,-35.0,-1,1.0,0.3439000000003034
614,1,0.8,0.25,35.0,1,1.0,0.260899999999765
615,1,0.8,1.0,-35.0,-1,1.0,-0.016299999999773718
616,1,0.8,0.25,-35.0,-1,1.0,1.7840000000001055
617,1,0.8,0.25,-35.0,-1,1.0,0.354099999999562
618,1,0.8,0.125,-35.0,-1,1.0,0.31090000000040163
619,1,0.8,0.0625,35.0,1,1.0,1.8243000000002212
620,1,0.8,0.25,35.0,-1,0.0,0.051000000000385626
621,1,0.8,0.125,-35.0,-1,1.0,0.2549000000003616
622,1,0.8,0.25,-35.0,-1,1.0,1.5546999999996842
623,1,0.8,1.0,35.0,1,1.0,0.3011999999998807
624,1,0.8,0.25,-35.0,-1,1.0,0.884900000000016
625,1,0.8,0.125,35.0,1,1.0,1.5749000000000706
626,1,0.8,0.0,-35.0,-1,1.0,1.0518999999999323
627,1,0.8,0.25,-35.0,-1,1.0,0.6348999999995613
628,1,0.8,0.125,-35.0,-1,1.0,0.23820000000023356
629,1,0.8,0.25,35.0,1,1.0,0.07849999999962165
630,1,0.8,0.0,-35.0,-1,1.0,0.7919999999999163
631,1,0.8,0.0,-35.0,-1,1.0,3.184899999999743
632,1,0.8,1.0,-35.0,-1,1.0,0.22899999999981446
633,1,0.8,0.0625,-35.0,1,0.0,0.1954000000000633
634,1,0.8,0.0625,35.0,1,1.0,2.8588999999997213
635,1,0.8,0.25,-35.0,-1,1.0,0.4855000000002292
636,1,0.8,1.0,-35.0,-1,1.0,0.33559999999988577
637,1,0.8,0.25,-35.0,-1,1.0,0.1960999999996602
638,1,0.8,0.25,-35.0,-1,1.0,0.5554000000001906
639,1,0.8,0.125,-35.0,-1,1.0,0.1590000000001055
640,1,0.8,0.125,-35.0,-1,1.0,0.16259999999965657
641,1,0.8,1.0,-35.0,-1,1.0,0.14919999999983702
642,1,0.8,0.125,-35.0,-1,1.0,0.17929999999978463
643,1,0.8,0.25,-35.0,-1,1.0,0.2731000000003405
644,1,0.8,0.0,35.0,-1,0.0,0.9962000000000444
645,1,0.8,0.125,35.0,1,1.0,0.4596000000001368
646,1,0.8,0.0625,-35.0,1,0.0,0.25
647,1,0.8,0.0625,35.0,1,1.0,0.25620000000026266
648,1,0.8,1.0,-35.0,-1,1.0,0.16300000000001091
649,1,0.8,1.0,-35.0,-1,1.0,0.1663999999996122
650,1,0.8,1.0,-35.0,-1,1.0,0.22309999999970387
651,1,0.8,0.0625,-35.0,1,0.0,0.36649999999963256
652,1,0.8,0.125,-35.0,-1,1.0,0.23010000000022046
653,1,0.8,0.0625,-35.0,-1,1.0,3.8805999999999585
654,1,0.8,0.125,-35.0,-1,1.0,0.21709999999984575
655,1,0.8,1.0,-35.0,-1,1.0,0.10039999999980864
656,1,0.8,0.25,35.0,1,1.0,0.8805999999999585
657,1,0.8,1.0,-35.0,-1,1.0,0.18040000000019063
658,1,0.8,0.125,-35.0,-1,1.0,0.18719999999984793
659,1,0.8,0.0,-35.0,-1,1.0,0.21060000000034051
660,1,0.8,0.0625,-35.0,-1,1.0,0.514100000000326
661,1,0.8,1.0,-35.0,-1,1.0,0.1774000000000342
662,1,0.8,0.0625,-35.0,-1,1.0,0.3710999999998421
663,1,0.2,0.0,35.0,-1,0.0,2.6173000000003412
664,1,0.2,1.0,-35.0,-1,1.0,0.13120000000026266
665,1,0.2,1.0,35.0,1,1.0,0.1910000000002583
666,1,0.2,0.0625,35.0,1,1.0,0.8443999999999505
667,1,0.2,0.25,35.0,1,1.0,0.19110000000000582
668,1,0.2,1.0,35.0,1,1.0,0.4946999999997388
669,1,0.2,0.0,35.0,1,1.0,5.131199999999808
670,1,0.2,0.125,-35.0,-1,1.0,0.1281000000003587
671,1,0.2,0.0625,35.0,-1,0.0,0.09479999999985012
672,1,0.2,0.125,35.0,1,1.0,0.35150000000021464
673,1,0.2,0.0,35.0,1,1.0,3.66820000000007
674,1,0.2,0.0625,35.0,1,1.0,0.5317999999997483
675,1,0.2,1.0,-35.0,-1,1.0,0.2717999999999847
676,1,0.2,1.0,-35.0,-1,1.0,0.05519999999978609
677,1,0.2,1.0,-35.0,-1,1.0,0.12550000000010186
678,1,0.2,0.125,35.0,1,1.0,0.4717999999998028
679,1,0.2,0.0,35.0,1,1.0,0.36529999999947904
680,1,0.2,0.0,35.0,1,1.0,0.5786999999995714
681,1,0.2,0.0625,-35.0,1,0.0,0.20539999999937208
682,1,0.2,1.0,35.0,1,1.0,0.30250000000023647
683,1,0.2,1.0,35.0,1,1.0,0.3158000000003085
684,1,0.2,0.0625,-35.0,-1,1.0,0.47559999999975844
685,1,0.2,0.0,35.0,1,1.0,4.092399999999998
686,1,0.2,0.0625,35.0,1,1.0,0.3257999999996173
687,1,0.2,0.125,35.0,1,1.0,0.29930000000013024
688,1,0.2,0.25,35.0,1,1.0,0.24939999999969586
689,1,0.2,0.0625,35.0,1,1.0,0.6295000000000073
690,1,0.2,0.25,-35.0,-1,1.0,0.2397000000000844
691,1,0.2,1.0,-35.0,1,0.0,0.23289999999997235
692,1,0.2,0.0,35.0,-1,0.0,1.6195999999995365
693,1,0.2,1.0,35.0,1,1.0,0.2296000000001186
694,1,0.2,0.0,35.0,1,1.0,2.47629999999981
695,1,0.2,0.0,-35.0,1,0.0,1.7463999999999942
696,1,0.2,0.0,-35.0,1,0.0,0.3766000000000531
697,1,0.2,0.25,-35.0,-1,1.0,0.48669999999992797
698,1,0.2,0.25,35.0,1,1.0,0.3006000000000313
699,1,0.2,1.0,35.0,1,1.0,0.3769999999999527
700,1,0.2,0.0625,-35.0,1,0.0,0.14039999999977226
701,1,0.2,0.0625,35.0,1,1.0,0.35059999999975844
702,1,0.2,0.125,35.0,1,1.0,0.6304000000000087
703,1,0.2,1.0,-35.0,-1,1.0,0.31040000000029977
704,1,0.2,0.25,35.0,1,1.0,0.3505000000000109
705,1,0.2,1.0,35.0,1,1.0,0.22749999999996362
706,1,0.2,0.125,-35.0,-1,1.0,1.307299999999941
707,1,0.2,0.0,35.0,1,1.0,0.3605999999999767
708,1,0.2,0.125,35.0,1,1.0,1.8940000000002328
709,1,0.2,0.0,-35.0,1,0.0,0.24749999999994543
710,1,0.2,0.0625,35.0,-1,0.0,1.2240999999999076
711,1,0.2,0.25,35.0,1,1.0,0.3647999999998319
712,1,0.2,0.0625,35.0,1,1.0,0.6944000000003143
713,1,0.2,1.0,35.0,1,1.0,0.2076999999999316
714,1,0.2,0.125,35.0,1,1.0,1.3577989999998863
715,1,0.2,0.25,-35.0,-1,1.0,0.20820000000003347
716,1,0.2,0.0625,35.0,1,1.0,0.38779999999997017
717,1,0.8,0.0625,35.0,1,1.0,0.3649000000000342
718,1,0.8,0.125,35.0,1,1.0,0.36140000000023065
719,1,0.8,0.0,-35.0,1,0.0,0.21479900000031193
720,1,0.8,0.0,-35.0,1,0.0,0.48149999999986903
721,1,0.8,0.25,35.0,1,1.0,0.13879999999971915
722,1,0.8,1.0,-35.0,-1,1.0,0.17549999999982901
723,1,0.8,0.25,-35.0,-1,1.0,0.23539999999957217
724,1,0.8,1.0,35.0,1,1.0,0.22519999999985885
725,1,0.8,0.25,-35.0,-1,1.0,0.7019000000000233
726,1,0.8,0.0625,-35.0,-1,1.0,0.42180000000007567
727,1,0.8,0.125,-35.0,-1,1.0,0.11209999999982756
728,1,0.8,0.0625,-35.0,-1,1.0,0.5051999999996042
729,1,0.8,1.0,-35.0,-1,1.0,0.2355000000002292
730,1,0.8,0.0,-35.0,-1,1.0,1.1255999999998494
731,1,0.8,0.25,-35.0,-1,1.0,0.26569999999992433
732,1,0.8,0.125,-35.0,-1,1.0,0.24260000000003856
733,1,0.8,0.0,35.0,-1,0.0,1.7189999999995962
734,1,0.8,1.0,-35.0,-1,1.0,0.012498999999934313
735,1,0.8,1.0,-35.0,-1,1.0,0.26579999999967185
736,1,0.8,0.0625,-35.0,-1,1.0,0.18960000000015498
737,1,0.8,1.0,-35.0,-1,1.0,0.16300000000046566
738,1,0.8,1.0,-35.0,-1,1.0,0.08260000000018408
739,1,0.8,0.25,-35.0,-1,1.0,0.6995990000000347
740,1,0.8,1.0,-35.0,-1,1.0,0.18319999999994252
741,1,0.8,0.0,-35.0,-1,1.0,1.2262000000000626
742,1,0.8,1.0,-35.0,-1,1.0,0.3829999999998108
743,1,0.8,0.0625,-35.0,-1,1.0,0.3596999999995205
744,1,0.8,0.0,35.0,-1,0.0,0.13970000000017535
745,1,0.8,0.25,35.0,-1,0.0,0.029800000000250293
746,1,0.8,0.25,-35.0,-1,1.0,0.19659999999976208
747,1,0.8,0.25,-35.0,-1,1.0,0.18370000000004438
748,1,0.8,0.125,35.0,-1,0.0,0.17730000000028667
749,1,0.8,0.0625,-35.0,-1,1.0,0.2838000000001557
750,1,0.8,0.0625,-35.0,-1,1.0,0.2835000000004584
751,1,0.8,0.0,-35.0,-1,1.0,0.976799999999912
752,1,0.8,1.0,-35.0,-1,1.0,0.18679999999994834
753,1,0.8,0.0625,-35.0,-1,1.0,2.4002999999997883
754,1,0.8,0.0,-35.0,-1,1.0,2.193699999999808
755,1,0.8,0.25,-35.0,-1,1.0,0.2738000000003922
756,1,0.8,0.0,-35.0,-1,1.0,1.730699999999615
757,1,0.8,0.25,35.0,1,1.0,0.2139999999999418
758,1,0.8,0.0,-35.0,-1,1.0,0.18740000000025248
759,1,0.8,0.125,-35.0,-1,1.0,3.4074999999998
760,1,0.8,1.0,35.0,1,1.0,0.34780000000000655
761,1,0.8,0.125,-35.0,-1,1.0,0.19770000000016807
762,1,0.8,0.0,35.0,1,1.0,1.777599999999893
763,1,0.8,1.0,-35.0,-1,1.0,0.21109999999998763
764,1,0.8,0.0,-35.0,1,0.0,0.22799999999961074
765,1,0.8,1.0,-35.0,-1,1.0,0.19470000000001164
766,1,0.8,0.0625,-35.0,-1,1.0,0.2446999999997388
767,1,0.8,0.25,-35.0,-1,1.0,0.49119999999993524
768,1,0.8,0.0,-35.0,-1,1.0,0.9812999999999192
769,1,0.8,0.0,-35.0,-1,1.0,0.15490000000045256
770,1,0.8,0.25,-35.0,-1,1.0,0.22479999999995925
771,1,0.8,1.0,35.0,1,1.0,0.375
772,1,0.8,0.125,-35.0,-1,1.0,4.261799999999766
773,1,0.8,0.25,-35.0,-1,1.0,0.22879999999986467
774,1,0.8,0.25,-35.0,-1,1.0,0.18180000000029395
775,1,0.8,0.0,35.0,-1,0.0,0.7287989999999809
776,1,0.8,0.0,-35.0,1,0.0,0.23559999999997672
777,1,0.8,0.125,-35.0,-1,1.0,0.2787999999995918
778,1,0.8,0.125,-35.0,-1,1.0,1.575800000000072
779,1,0.8,0.125,-35.0,-1,1.0,0.20579999999972642
780,1,0.8,1.0,-35.0,-1,1.0,0.24579999999969004
781,1,0.8,0.0625,-35.0,-1,1.0,0.17909999999983484
782,1,0.8,0.125,-35.0,-1,1.0,-0.034200000000510045
783,1,0.8,0.125,-35.0,-1,1.0,0.19919999999956417
784,1,0.8,0.25,-35.0,-1,1.0,1.2759000000000924
785,1,0.8,0.125,-35.0,-1,1.0,0.8329000000003361
786,1,0.2,0.0625,35.0,1,1.0,0.802599999999984
787,1,0.2,1.0,35.0,1,1.0,0.6493000000000393
788,1,0.2,0.0625,35.0,-1,0.0,0.34269999999969514
789,1,0.2,0.0,35.0,-1,0.0,1.3695999999995365
790,1,0.2,0.125,35.0,1,1.0,0.2163000000005013
791,1,0.2,0.0,35.0,-1,0.0,6.6930999999999585
792,1,0.2,1.0,35.0,1,1.0,0.1932000000001608
793,1,0.2,0.0625,35.0,1,1.0,4.690200000000004
794,1,0.2,1.0,35.0,1,1.0,0.21689999999989595
795,1,0.2,0.25,35.0,1,1.0,0.1804999999994834
796,1,0.2,0.0,-35.0,-1,1.0,2.5437999999999192
797,1,0.2,1.0,35.0,1,1.0,0.37700000000040745
798,1,0.2,0.0625,35.0,-1,0.0,0.20369999999957145
799,1,0.2,0.0,35.0,1,1.0,0.390400000000227
800,1,0.2,0.0,-35.0,1,0.0,0.29379999999991924
801,1,0.2,0.0625,35.0,-1,0.0,5.70049999999992
802,1,0.2,1.0,35.0,1,1.0,0.24080000000003565
803,1,0.2,0.25,35.0,1,1.0,1.1842000000001462
804,1,0.2,0.25,-35.0,-1,1.0,1.1808000000000902
805,1,0.2,0.0625,35.0,-1,0.0,0.5542999999997846
806,1,0.2,0.0625,35.0,-1,0.0,2.5776999999998225
807,1,0.2,0.125,35.0,1,1.0,0.4379990000002181
808,1,0.2,0.0625,-35.0,-1,1.0,2.4512000000004264
809,1,0.2,0.0,-35.0,-1,1.0,0.17190000000027794
810,1,0.2,0.25,35.0,1,1.0,0.27489999999943393
811,1,0.2,0.125,-35.0,1,0.0,0.16149999999970532
812,1,0.2,0.0625,-35.0,-1,1.0,0.47499999999990905
813,1,0.2,1.0,35.0,1,1.0,0.518399999999474
814,1,0.2,1.0,35.0,1,1.0,0.20499999999992724
815,1,0.2,0.125,35.0,1,1.0,0.3916999999996733
816,1,0.2,0.0,35.0,-1,0.0,4.438600000000406
817,1,0.2,0.125,35.0,1,1.0,0.46860000000015134
818,1,0.2,1.0,35.0,1,1.0,0.8285000000000764
819,1,0.2,0.0,-35.0,1,0.0,2.208599999999933
820,1,0.2,0.25,35.0,1,1.0,0.28909899999962363
821,1,0.2,0.25,35.0,1,1.0,0.4493999999999687
822,1,0.2,0.25,35.0,1,1.0,0.27919999999994616
823,1,0.2,1.0,35.0,1,1.0,0.08930000000009386
824,1,0.2,0.0625,35.0,1,1.0,0.14580000000023574
825,1,0.2,0.25,35.0,1,1.0,0.19290000000000873
826,1,0.2,1.0,35.0,1,1.0,0.18269999999984066
827,1,0.2,1.0,35.0,1,1.0,0.42319999999972424
828,1,0.2,0.125,35.0,1,1.0,0.1960999999996602
829,1,0.2,0.0625,35.0,1,1.0,1.3661999999999352
830,1,0.2,0.0,-35.0,-1,1.0,2.7128999999999905
831,1,0.2,0.0,-35.0,-1,1.0,1.5498999999999796
832,1,0.2,0.0625,35.0,1,1.0,0.27340000000003783
833,1,0.2,1.0,35.0,1,1.0,0.21020000000044092
834,1,0.2,0.125,35.0,1,1.0,0.2432000000003427
835,1,0.2,0.25,-35.0,-1,1.0,0.19680000000016662
836,1,0.2,0.25,-35.0,-1,1.0,0.40020000000004075
837,1,0.2,1.0,35.0,1,1.0,0.26670000000012806
838,1,0.2,0.25,35.0,1,1.0,0.2935000000002219
839,1,0.2,0.125,35.0,1,1.0,0.400199999999586
840,1,0.2,0.0625,35.0,1,1.0,0.9902999999999338
841,1,0.2,0.0625,-35.0,-1,1.0,0.21359999999958745
842,1,0.2,0.0,35.0,-1,0.0,1.1304000000000087
843,1,0.2,0.0625,35.0,1,1.0,0.4773000000000138
844,1,0.2,0.0625,35.0,1,1.0,1.074200000000019
845,1,0.2,1.0,35.0,1,1.0,0.2076999999999316
846,1,0.2,1.0,35.0,1,1.0,0.25720000000001164
847,1,0.2,0.0625,35.0,1,1.0,1.3643999999999323
848,1,0.2,1.0,35.0,1,1.0,0.31080000000019936
849,1,0.2,1.0,35.0,1,1.0,0.4978000000000975
850,1,0.2,0.125,35.0,1,1.0,0.17450000000008004
851,1,0.2,1.0,35.0,1,1.0,0.20479999999997744
852,1,0.2,0.25,35.0,1,1.0,0.801300000000083
853,1,0.2,1.0,35.0,1,1.0,0.5478000000002794
854,1,0.2,0.0625,35.0,1,1.0,0.16829899999993359
855,1,0.2,0.0625,35.0,1,1.0,0.2618000000002212
856,1,0.2,0.25,35.0,1,1.0,0.24800000000050204
857,1,0.8,1.0,-35.0,-1,1.0,0.3512999999998101
858,1,0.8,1.0,-35.0,-1,1.0,0.5782000000003791
859,1,0.8,0.125,-35.0,-1,1.0,0.31159999999999854
860,1,0.8,1.0,-35.0,-1,1.0,0.19529999999986103
861,1,0.8,0.0625,-35.0,-1,1.0,0.37489999999979773
862,1,0.8,0.0,-35.0,-1,1.0,0.05169999999998254
863,1,0.8,0.125,-35.0,-1,1.0,0.2716000000000349
864,1,0.8,1.0,-35.0,-1,1.0,0.31239999999979773
865,1,0.8,1.0,-35.0,-1,1.0,0.17529999999987922
866,1,0.8,0.0625,-35.0,-1,1.0,2.058599999999842
867,1,0.8,0.125,-35.0,-1,1.0,0.19240000000036162
868,1,0.8,0.125,35.0,1,1.0,0.4819999999999709
869,1,0.8,1.0,-35.0,-1,1.0,0.1687000000001717
870,1,0.8,0.0625,-35.0,-1,1.0,0.565599999999904
871,1,0.8,0.0625,35.0,1,1.0,3.9056000000000495
872,1,0.8,0.125,-35.0,-1,1.0,0.3856999999998152
873,1,0.8,0.125,-35.0,-1,1.0,0.09900000000016007
874,1,0.8,0.0625,-35.0,-1,1.0,0.13959999999997308
875,1,0.8,1.0,-35.0,-1,1.0,0.16919999999936408
876,1,0.8,1.0,35.0,1,1.0,0.6260000000002037
877,1,0.8,0.0625,-35.0,-1,1.0,1.5295000000000982
878,1,0.8,0.125,-35.0,-1,1.0,0.18269999999984066
879,1,0.8,0.0,35.0,-1,0.0,0.6628999999998086
880,1,0.8,0.0,-35.0,-1,1.0,1.5329000000001543
881,1,0.8,1.0,-35.0,-1,1.0,0.16649999999981446
882,1,0.8,1.0,-35.0,-1,1.0,0.17650000000003274
883,1,0.8,0.0625,35.0,1,1.0,0.21980000000030486
884,1,0.8,0.125,-35.0,-1,1.0,0.75649999999996
885,1,0.8,0.25,-35.0,-1,1.0,0.21349999999983993
886,1,0.8,0.125,35.0,-1,0.0,1.2265999999999622
887,1,0.8,0.125,-35.0,-1,1.0,0.24050000000033833
888,1,0.8,0.0625,-35.0,-1,1.0,0.23349999999982174
889,1,0.8,1.0,35.0,1,1.0,0.19749999999976353
890,1,0.8,0.0625,-35.0,-1,1.0,0.21349999999983993
891,1,0.8,0.125,-35.0,-1,1.0,0.8068999999995867
892,1,0.8,1.0,-35.0,-1,1.0,0.2571000000002641
893,1,0.8,1.0,-35.0,-1,1.0,0.24710000000004584
894,1,0.8,0.125,-35.0,-1,1.0,0.2339999999999236
895,1,0.8,0.0,-35.0,-1,1.0,0.35379999999986467
896,1,0.8,0.25,-35.0,-1,1.0,1.4038000000000466
897,1,0.8,0.125,-35.0,-1,1.0,0.2842990000003738
898,1,0.8,0.0625,-35.0,-1,1.0,0.3041000000002896
899,1,0.8,1.0,-35.0,-1,1.0,0.18120000000044456
900,1,0.8,0.125,-35.0,-1,1.0,0.19410000000016225
901,1,0.8,0.0,-35.0,-1,1.0,3.644600000000082
902,1,0.2,0.0625,35.0,-1,0.0,1.5945999999999003
903,1,0.2,0.125,-35.0,-1,1.0,0.3010999999996784
904,1,0.2,0.0,35.0,-1,0.0,1.024499999999989
905,1,0.2,0.25,35.0,1,1.0,0.3148999999998523
906,1,0.2,0.0,35.0,1,1.0,1.2745999999997366
907,1,0.2,1.0,-35.0,-1,1.0,0.3081999999999425
908,1,0.2,0.25,-35.0,-1,1.0,0.5446999999999207
909,1,0.2,0.125,-35.0,-1,1.0,0.17490000000043437
910,1,0.2,0.125,-35.0,-1,1.0,0.3683000000000902
911,1,0.2,0.125,35.0,1,1.0,0.5484000000001288
912,1,0.2,0.0625,35.0,1,1.0,4.855200000000423
913,1,0.2,0.125,35.0,1,1.0,0.355199999999968
914,1,0.2,1.0,35.0,1,1.0,0.29189999999971405
915,1,0.2,0.125,35.0,1,1.0,0.3056999999994332
916,1,0.2,0.0625,35.0,1,1.0,0.7588009999999485
917,1,0.2,0.125,35.0,1,1.0,0.23570100000006278
918,1,0.2,0.125,35.0,1,1.0,0.4487010000002556
919,1,0.2,0.125,35.0,1,1.0,0.22570100000029925
920,1,0.2,0.25,35.0,1,1.0,0.22570100000029925
921,1,0.2,0.0625,35.0,1,1.0,0.1959010000005037
922,1,0.2,0.0,35.0,-1,0.0,3.9957009999998263
923,1,0.2,0.25,35.0,1,1.0,0.22250100000019302
924,1,0.2,1.0,35.0,1,1.0,0.24270100000012462
925,1,0.2,0.0625,35.0,-1,0.0,2.1125010000000657
926,1,0.2,0.0625,35.0,1,1.0,0.2259009999997943
927,1,0.2,0.25,35.0,1,1.0,0.2929010000002563
928,1,0.2,1.0,-35.0,-1,1.0,0.22610100000019884
929,1,0.2,0.0625,35.0,1,1.0,1.7962009999996553
930,1,0.2,0.125,-35.0,-1,1.0,0.359400999999707
931,1,0.2,0.125,35.0,1,1.0,0.4529010000001108
932,1,0.2,0.125,35.0,1,1.0,0.2868010000001959
933,1,0.2,0.25,35.0,1,1.0,0.41680100000030507
934,1,0.2,0.0,35.0,1,1.0,0.24020100000007005
935,1,0.2,1.0,35.0,1,1.0,0.3236010000000533
936,1,0.2,0.0,-35.0,1,0.0,2.116801000000123
937,1,0.2,1.0,35.0,1,1.0,0.18700099999978192
938,1,0.2,1.0,35.0,1,1.0,0.37380099999973027
939,1,0.2,0.0625,35.0,1,1.0,0.893301000000065
940,1,0.2,0.0,-35.0,1,0.0,0.1568010000000868
941,1,0.2,0.125,-35.0,-1,1.0,0.7138010000003305
942,1,0.8,1.0,-35.0,-1,1.0,0.2268010000002505
943,1,0.8,0.125,-35.0,-1,1.0,0.23680100000001403
944,1,0.8,1.0,-35.0,-1,1.0,0.2502009999998336
945,1,0.8,0.125,35.0,1,1.0,1.0039010000000417
946,1,0.8,0.125,-35.0,-1,1.0,0.2802010000000337
947,1,0.8,1.0,-35.0,-1,1.0,0.1604010000000926
948,1,0.8,1.0,-35.0,-1,1.0,0.2605009999997492
949,1,0.8,0.0625,-35.0,-1,1.0,0.9140009999996437
950,1,0.8,1.0,-35.0,-1,1.0,0.17380099999991216
951,1,0.8,0.125,-35.0,-1,1.0,0.22390100000029634
952,1,0.8,0.0,-35.0,1,0.0,0.4978009999999813
953,1,0.8,1.0,-35.0,-1,1.0,0.19410100000004604
954,1,0.8,0.0,-35.0,-1,1.0,0.37120099999992817
955,1,0.8,0.25,-35.0,-1,1.0,0.39130100000011225
956,1,0.8,1.0,-35.0,-1,1.0,0.12120099999992817
957,1,0.8,0.125,35.0,1,1.0,2.2379009999999653
958,1,0.8,0.0,-35.0,-1,1.0,0.5645009999998365
959,1,0.8,0.0625,35.0,1,1.0,0.4712009999998372
960,1,0.8,0.125,-35.0,-1,1.0,0.6344009999997979
961,1,0.8,0.0,-35.0,-1,1.0,0.23120100000051025
962,1,0.8,0.125,-35.0,-1,1.0,0.2112010000000737
963,1,0.8,0.0,-35.0,-1,1.0,0.9214009999996051
964,1,0.8,1.0,-35.0,-1,1.0,0.0586009999997259
965,1,0.8,0.125,-35.0,-1,1.0,0.3816010000005008
966,1,0.8,0.25,-35.0,-1,1.0,0.6114010000001144
967,1,0.8,1.0,-35.0,-1,1.0,0.18500099999982922
968,1,0.8,0.0625,35.0,-1,0.0,3.5351009999999405
969,1,0.8,0.25,-35.0,-1,1.0,0.20190099999990707
970,1,0.8,0.125,-35.0,-1,1.0,0.422001000000364
971,1,0.8,0.125,35.0,-1,0.0,1.2056010000001152
972,1,0.8,0.125,-35.0,-1,1.0,0.21510099999977683
973,1,0.8,0.125,-35.0,-1,1.0,0.19550100000014936
974,1,0.8,1.0,35.0,1,1.0,0.27510099999972226
975,1,0.8,1.0,-35.0,-1,1.0,0.12890100000004168
976,1,0.8,0.25,-35.0,-1,1.0,0.16220100000009552
977,1,0.8,0.25,-35.0,-1,1.0,0.10200099999974555
978,1,0.8,0.0,-35.0,-1,1.0,0.37550099999998565
979,1,0.8,0.0625,-35.0,-1,1.0,0.149000999999771
980,1,0.8,0.0625,-35.0,-1,1.0,0.17920100000037564
981,1,0.8,1.0,-35.0,-1,1.0,0.12910099999999147
982,1,0.8,0.0625,-35.0,-1,1.0,1.0624010000001363
983,1,0.8,0.0625,-35.0,-1,1.0,0.19580100000030143
984,1,0.8,0.125,35.0,1,1.0,0.2160009999997783
985,1,0.8,0.125,-35.0,-1,1.0,0.10910100000000966
986,1,0.8,1.0,35.0,1,1.0,0.2160009999997783
987,1,0.8,0.0625,-35.0,-1,1.0,0.3860010000003058
988,1,0.8,1.0,-35.0,-1,1.0,0.32290100000000166
989,1,0.8,0.125,-35.0,-1,1.0,0.49610100000018065
990,1,0.8,0.125,-35.0,-1,1.0,0.2294010000000526
991,1,0.8,0.125,-35.0,-1,1.0,0.24970100000018647
992,1,0.8,0.0625,-35.0,-1,1.0,0.3963010000002214
993,1,0.8,0.0625,-35.0,-1,1.0,0.13630100000000311
994,1,0.8,0.25,35.0,1,1.0,0.3631009999999151
995,1,0.8,0.0625,-35.0,-1,1.0,0.18310100000007878
996,1,0.8,0.0,-35.0,-1,1.0,1.3200010000000475
997,1,0.8,0.25,-35.0,-1,1.0,0.15650099999993472
998,1,0.8,1.0,-35.0,-1,1.0,0.12990099999979066
999,1,0.2,1.0,-35.0,-1,1.0,0.14000099999975646
1000,1,0.2,0.25,35.0,1,1.0,1.3039010000002236
1001,1,0.2,0.125,35.0,-1,0.0,0.7271009999999478
1002,1,0.2,1.0,35.0,1,1.0,0.4871010000001661
1003,1,0.2,1.0,35.0,1,1.0,0.44040099999983795
1004,1,0.2,0.125,35.0,1,1.0,5.787101000000348
1005,1,0.2,0.25,35.0,1,1.0,0.23040100000025632
1006,1,0.2,0.0,35.0,-1,0.0,0.11420099999986633
1007,1,0.2,0.125,35.0,1,1.0,1.770600999999715
1008,1,0.2,1.0,35.0,1,1.0,0.2012009999998554
1009,1,0.2,0.0625,35.0,1,1.0,0.36070099999960803
1010,1,0.2,0.125,35.0,1,1.0,0.4642010000002301
1011,1,0.2,1.0,35.0,1,1.0,0.41740100000015445
1012,1,0.2,0.25,35.0,1,1.0,0.39750099999992017
1013,1,0.2,0.25,-35.0,-1,1.0,0.5944010000002891
1014,1,0.2,0.25,35.0,1,1.0,0.3044009999998707
1015,1,0.2,0.25,35.0,1,1.0,0.404500999999982
1016,1,0.2,0.0,35.0,-1,0.0,1.3215009999998983
1017,1,0.2,0.25,35.0,1,1.0,0.3549009999996997
1018,1,0.2,0.25,-35.0,-1,1.0,0.16820099999995364
1019,1,0.2,0.25,35.0,1,1.0,0.3246009999998023
1020,1,0.2,0.0625,35.0,1,1.0,0.2182009999996808
1021,1,0.2,0.125,35.0,1,1.0,0.33450100000027305
1022,1,0.2,0.25,35.0,-1,0.0,0.14130100000011225
1023,1,0.2,0.125,35.0,1,1.0,0.46840100000008533
1024,1,0.2,0.25,35.0,1,1.0,0.39150100000006205
1025,1,0.2,0.25,35.0,1,1.0,0.22860099999979866
1026,1,0.2,0.25,35.0,1,1.0,0.3052010000001246
1027,1,0.2,1.0,-35.0,-1,1.0,0.17870099999981903
1028,1,0.2,0.0625,-35.0,-1,1.0,0.6251009999996313
1029,1,0.2,0.0625,35.0,-1,0.0,6.741201000000274
1030,1,0.2,0.125,35.0,1,1.0,0.7086010000002716
1031,1,0.2,0.25,35.0,1,1.0,0.31540099999983795
1032,1,0.2,0.0625,-35.0,-1,1.0,4.772201000000223
1033,1,0.2,0.0625,35.0,-1,0.0,4.6359010000001035
1034,1,0.2,0.25,35.0,1,1.0,0.449301000000105
1035,1,0.2,0.0625,-35.0,-1,1.0,0.25590099999953964
1036,1,0.2,0.0625,35.0,-1,0.0,5.285601000000042
1037,1,0.2,0.0625,35.0,1,1.0,0.7758009999997739
1038,1,0.2,0.125,35.0,-1,0.0,8.49630100000013
1039,1,0.2,0.25,-35.0,-1,1.0,0.2296010000000024
1040,1,0.2,0.25,35.0,1,1.0,0.5297009999999318
1041,1,0.2,0.0,-35.0,-1,1.0,2.799901000000318
1042,1,0.2,1.0,35.0,1,1.0,0.279500999999982
1043,1,0.2,0.25,35.0,1,1.0,0.3833009999998467
1044,1,0.2,0.125,35.0,1,1.0,0.4231009999998605
1045,1,0.2,0.125,-35.0,-1,1.0,0.15650099999993472
1046,1,0.2,0.25,35.0,1,1.0,0.21980100000018865
1047,1,0.2,0.125,35.0,1,1.0,0.34980099999984304
1048,1,0.2,0.125,35.0,1,1.0,0.23660100000006423
1049,1,0.2,0.125,35.0,1,1.0,0.2935010000001057
1050,1,0.2,1.0,35.0,1,1.0,0.21680100000003222
1051,1,0.2,0.0,35.0,1,1.0,1.1667010000001028
1052,1,0.2,1.0,35.0,1,1.0,0.35710100000005696
1053,1,0.2,0.25,35.0,1,1.0,0.4203010000001086
1054,1,0.2,0.0625,35.0,1,1.0,0.7868010000001959
1055,1,0.2,0.25,35.0,1,1.0,0.2838010000000395
1056,1,0.2,0.0625,35.0,1,1.0,0.34740099999999074
1057,1,0.2,0.25,35.0,1,1.0,0.45049999999991996
1058,1,0.2,0.125,-35.0,-1,1.0,0.17060100000026068
1059,1,0.2,1.0,35.0,1,1.0,0.21440099999972517
1060,1,0.2,1.0,35.0,1,1.0,0.5376009999999951
1061,1,0.2,0.125,35.0,1,1.0,3.94050100000004
1062,1,0.2,0.0625,35.0,1,1.0,2.004001000000244
1063,1,0.2,1.0,35.0,1,1.0,0.24400000000014188
1064,1,0.2,0.0,35.0,-1,0.0,1.6174009999999726
1065,1,0.2,1.0,-35.0,-1,1.0,0.19750099999964732
1066,1,0.2,0.0,-35.0,-1,1.0,17.684300999999778
1067,1,0.8,1.0,-35.0,-1,1.0,0.07480000000032305
1068,1,0.8,0.125,-35.0,-1,1.0,0.20140100000025996
1069,1,0.8,1.0,35.0,1,1.0,0.25790099999949234
1070,1,0.8,0.0625,-35.0,-1,1.0,1.2949009999997543
1071,1,0.8,0.125,-35.0,-1,1.0,0.1516009999995731
1072,1,0.8,0.0625,-35.0,-1,1.0,2.278501000000233
1073,1,0.8,0.25,-35.0,-1,1.0,0.17500099999961094
1074,1,0.8,0.0,-35.0,-1,1.0,0.20490099999960876
1075,1,0.8,0.0,35.0,-1,0.0,0.18220100000007733
1076,1,0.8,0.0625,-35.0,-1,1.0,0.3218010000000504
1077,1,0.8,0.125,-35.0,-1,1.0,0.1751009999998132
1078,1,0.8,0.25,35.0,1,1.0,0.36850099999946906
1079,1,0.8,0.0625,35.0,-1,0.0,0.16880100000025777
1080,1,0.8,0.25,-35.0,-1,1.0,0.23860100000001694
1081,1,0.8,0.0625,-35.0,-1,1.0,2.282000999999582
1082,1,0.8,0.125,-35.0,-1,1.0,0.2255009999998947
1083,1,0.8,0.125,-35.0,-1,1.0,0.24890099999993254
1084,1,0.8,1.0,-35.0,-1,1.0,0.1788010000000213
1085,1,0.8,0.0625,-35.0,-1,1.0,3.825601000000006
1086,1,0.8,0.125,-35.0,-1,1.0,0.43550100000038583
1087,1,0.8,0.25,35.0,-1,0.0,29.255800999999792
1088,1,0.8,0.0625,-35.0,-1,1.0,0.3729009999997288
1089,1,0.8,0.125,35.0,-1,0.0,11.45310100000006
1090,1,0.8,0.0625,-35.0,-1,1.0,8.043200999999499
1091,1,0.8,1.0,35.0,1,1.0,0.44010099999923114
1092,1,0.8,0.25,-35.0,-1,1.0,0.37010100000043167
1093,1,0.8,0.0,-35.0,-1,1.0,14.153701000000183
1094,1,0.8,0.25,-35.0,-1,1.0,0.2505009999995309
1095,1,0.8,0.125,-35.0,-1,1.0,8.627300999999534
1096,1,0.8,0.0625,35.0,-1,0.0,3.313901000000442
1097,1,0.8,1.0,35.0,1,1.0,1.5377009999992879
1098,1,0.8,0.125,-35.0,-1,1.0,18.804101000000628
1099,1,0.8,0.125,35.0,-1,0.0,26.40820100000019
1100,1,0.8,0.0625,-35.0,-1,1.0,1.5118010000005597
1101,1,0.8,1.0,-35.0,-1,1.0,0.20850100000006933
1102,1,0.8,1.0,35.0,1,1.0,0.39520100000027014
1103,1,0.8,0.25,35.0,1,1.0,0.505301000000145
1104,1,0.8,0.0,-35.0,1,0.0,7.345201000000088
1105,1,0.8,1.0,-35.0,-1,1.0,1.105401000000711
1106,1,0.8,0.0625,-35.0,-1,1.0,3.1424010000000635
1107,1,0.8,0.125,-35.0,-1,1.0,0.17230099999960657
1108,1,0.8,0.0625,-35.0,-1,1.0,0.465900999999576
1109,1,0.8,0.0625,-35.0,-1,1.0,0.2858009999999922
1110,1,0.8,0.25,-35.0,-1,1.0,0.16569999999956053
1111,1,0.8,0.125,35.0,-1,0.0,0.4291009999997186
1112,1,0.8,0.125,-35.0,-1,1.0,0.17910000000028958
1113,1,0.8,0.25,-35.0,-1,1.0,10.349200999999994
1114,1,0.8,0.0625,-35.0,-1,1.0,0.27610099999947124
1115,1,0.8,0.25,35.0,-1,0.0,0.1928009999992355
1116,1,0.8,0.125,35.0,1,1.0,0.9561010000006718
1117,1,0.8,1.0,-35.0,-1,1.0,0.1329009999999471
1118,1,0.8,0.25,-35.0,-1,1.0,0.17620099999930972
1119,1,0.8,0.0625,-35.0,-1,1.0,0.2664010000007693
1120,1,0.8,1.0,-35.0,-1,1.0,0.15620099999978265
1121,1,0.8,0.25,-35.0,-1,1.0,11.400000999999975
1122,1,0.8,0.25,-35.0,-1,1.0,0.25010000000020227
1123,1,0.8,0.125,-35.0,-1,1.0,0.17680099999961385
1124,1,0.8,0.125,-35.0,-1,1.0,0.49340099999972153
1125,1,0.8,0.0,-35.0,-1,1.0,19.97030100000029
1126,1,0.8,0.125,35.0,-1,0.0,3.5709009999991395
1127,1,0.2,1.0,35.0,1,1.0,0.4442010000002483
1128,1,0.2,0.0,35.0,-1,0.0,39.037200999999186
1129,1,0.2,1.0,35.0,1,1.0,0.4951009999995222
1130,1,0.2,1.0,35.0,1,1.0,0.381401000000551
1,2,0.8,0.0,-35.0,-1,1.0,1.0288
2,2,0.8,0.125,-35.0,-1,1.0,0.40470000000000006
3,2,0.8,0.0625,35.0,1,1.0,0.6462000000000003
4,2,0.8,1.0,-35.0,-1,1.0,0.164200000000001
5,2,0.8,1.0,-35.0,-1,1.0,0.19539999999999935
6,2,0.8,0.25,-35.0,-1,1.0,0.2408999999999999
7,2,0.8,0.0625,35.0,-1,0.0,0.9369000000000014
8,2,0.8,1.0,-35.0,-1,1.0,0.1626000000000012
9,2,0.8,0.125,35.0,1,1.0,0.2909000000000006
10,2,0.8,0.0625,-35.0,-1,1.0,0.5424999999999969
11,2,0.8,0.0625,-35.0,-1,1.0,0.1811000000000007
12,2,0.8,1.0,-35.0,-1,1.0,0.19539999999999935
13,2,0.8,0.25,-35.0,-1,1.0,0.5818000000000012
14,2,0.8,1.0,35.0,1,1.0,0.3009999999999948
15,2,0.8,0.125,-35.0,-1,1.0,0.3248999999999995
16,2,0.8,0.125,-35.0,-1,1.0,0.17539999999999623
17,2,0.8,0.25,-35.0,-1,1.0,0.2015000000000029
18,2,0.8,0.125,-35.0,-1,1.0,0.5974000000000075
19,2,0.8,1.0,-35.0,-1,1.0,0.23629999999999995
20,2,0.8,0.0625,-35.0,-1,1.0,0.2978000000000094
21,2,0.8,1.0,35.0,1,1.0,0.21520000000001005
22,2,0.8,1.0,-35.0,-1,1.0,0.4173990000000032
23,2,0.8,0.125,-35.0,1,0.0,2.0619999999999976
24,2,0.8,0.125,-35.0,-1,1.0,0.17420000000001323
25,2,0.8,0.125,35.0,1,1.0,0.2068000000000012
26,2,0.8,0.0,-35.0,-1,1.0,2.3438000000000017
27,2,0.8,0.0625,-35.0,-1,1.0,0.2933000000000163
28,2,0.8,1.0,-35.0,-1,1.0,0.1652000000000129
29,2,0.8,0.0625,35.0,1,1.0,0.3212000000000046
30,2,0.8,0.0625,-35.0,-1,1.0,0.3856000000000108
31,2,0.8,0.25,35.0,1,1.0,0.3073000000000121
32,2,0.8,0.125,-35.0,-1,1.0,0.27200000000000557
33,2,0.8,0.125,-35.0,-1,1.0,0.23029999999999973
34,2,0.8,1.0,-35.0,-1,1.0,0.21129999999999427
35,2,0.8,0.0625,-35.0,-1,1.0,1.7382999999999953
36,2,0.8,0.25,-35.0,-1,1.0,0.2715000000000174
37,2,0.8,0.125,-35.0,-1,1.0,0.5010000000000048
38,2,0.8,0.25,-35.0,-1,1.0,0.4803999999999746
39,2,0.8,0.0625,-35.0,-1,1.0,0.44429999999999836
40,2,0.8,0.0625,-35.0,-1,1.0,0.22239999999999327
41,2,0.8,1.0,35.0,1,1.0,0.27599999999998204
42,2,0.8,0.25,-35.0,-1,1.0,0.19769900000000007
43,2,0.8,0.25,-35.0,-1,1.0,0.2764999999999702
44,2,0.8,0.125,-35.0,-1,1.0,0.44489999999998986
45,2,0.8,0.125,-35.0,-1,1.0,0.2109000000000094
46,2,0.8,0.125,-35.0,-1,1.0,0.2265999999999906
47,2,0.8,0.125,-35.0,-1,1.0,0.3114000000000203
48,2,0.8,1.0,-35.0,-1,1.0,0.18899999999996453
49,2,0.8,1.0,-35.0,-1,1.0,0.02349999999998431
50,2,0.8,1.0,-35.0,-1,1.0,0.5114999999999839
51,2,0.8,1.0,-35.0,-1,1.0,0.1484999999999843
52,2,0.8,0.125,35.0,1,1.0,0.3748999999999967
53,2,0.8,0.0,-35.0,-1,1.0,0.4767999999999972
54,2,0.8,0.0625,35.0,1,1.0,1.2597999999999843
55,2,0.8,0.25,-35.0,-1,1.0,2.883100000000013
56,2,0.8,0.25,35.0,1,1.0,0.21009999999998286
57,2,0.8,0.125,35.0,1,1.0,0.3856999999999857
58,2,0.8,0.125,-35.0,-1,1.0,0.2570999999999799
59,2,0.8,0.0,35.0,-1,0.0,1.4938999999999965
60,2,0.8,0.0625,-35.0,-1,1.0,0.32869999999999777
61,2,0.8,1.0,35.0,1,1.0,0.6661000000000001
62,2,0.8,0.0625,-35.0,-1,1.0,0.34339999999997417
63,2,0.8,0.125,-35.0,-1,1.0,0.5261999999999887
64,2,0.8,0.125,-35.0,-1,1.0,0.41619999999997503
65,2,0.8,0.125,-35.0,-1,1.0,0.23939999999998918
66,2,0.8,0.0,35.0,-1,0.0,1.5940999999999974
67,2,0.8,1.0,35.0,1,1.0,0.3498999999999626
68,2,0.8,0.0625,-35.0,-1,1.0,0.28110000000003765
69,2,0.8,1.0,-35.0,-1,1.0,0.160000000000025
70,2,0.8,0.25,-35.0,-1,1.0,0.16199999999997772
71,2,0.8,0.125,-35.0,-1,1.0,0.19389999999992824
72,2,0.8,0.0625,35.0,1,1.0,0.24270000000001346
73,2,0.8,0.25,35.0,1,1.0,0.43369999999998754
74,2,0.8,0.0625,35.0,1,1.0,1.1905000000000427
75,2,0.8,1.0,-35.0,-1,1.0,0.29439999999993915
76,2,0.8,0.0625,-35.0,-1,1.0,0.5390999999999622
77,2,0.8,1.0,-35.0,-1,1.0,0.12860000000000582
78,2,0.8,0.125,-35.0,-1,1.0,0.2518999999999778
79,2,0.8,0.25,35.0,1,1.0,0.4726999999999748
80,2,0.8,0.0625,35.0,1,1.0,0.48450000000002547
81,2,0.8,0.25,35.0,1,1.0,0.1958999999999378
82,2,0.8,0.25,-35.0,-1,1.0,0.04629999999997381
83,2,0.8,0.0,35.0,-1,0.0,1.1673000000000116
84,2,0.8,0.25,35.0,1,1.0,0.3439000000000192
85,2,0.8,1.0,-35.0,-1,1.0,0.23949999999996407
86,2,0.8,1.0,-35.0,-1,1.0,0.19470000000001164
87,2,0.8,0.25,-35.0,-1,1.0,0.22210000000001173
88,2,0.8,0.125,-35.0,-1,1.0,0.2074000000000069
89,2,0.8,0.0625,-35.0,-1,1.0,0.5369000000000028
90,2,0.8,0.125,-35.0,-1,1.0,0.19529999999991787
91,2,0.8,0.25,-35.0,-1,1.0,0.21720000000004802
92,2,0.8,0.125,-35.0,-1,1.0,0.22299999999995634
93,2,0.8,0.25,-35.0,-1,1.0,0.17879999999996699
94,2,0.8,0.25,-35.0,-1,1.0,0.17549999999999955
95,2,0.8,0.0625,-35.0,-1,1.0,0.40449999999998454
96,2,0.2,0.0625,35.0,1,1.0,0.4412999999999556
97,2,0.2,0.0625,35.0,1,1.0,0.2826989999999796
98,2,0.2,0.25,35.0,1,1.0,0.6043000000000234
99,2,0.2,1.0,35.0,1,1.0,0.3065000000000282
100,2,0.2,0.25,35.0,1,1.0,0.4171999999999798
101,2,0.2,0.25,35.0,1,1.0,0.19900000000001228
102,2,0.2,0.0,-35.0,-1,1.0,3.7519999999999527
103,2,0.2,1.0,-35.0,-1,1.0,0.47050000000001546
104,2,0.2,0.125,-35.0,-1,1.0,0.2798999999999978
105,2,0.2,0.125,35.0,1,1.0,0.2616999999999621
106,2,0.2,0.125,35.0,1,1.0,2.84069999999997
107,2,0.2,0.0625,35.0,1,1.0,0.26940000000001874
108,2,0.2,1.0,-35.0,-1,1.0,0.25099999999997635
109,2,0.2,0.25,35.0,1,1.0,0.19409999999999172
110,2,0.2,0.125,35.0,1,1.0,0.432200000000023
111,2,0.2,0.25,35.0,1,1.0,0.287399999999991
112,2,0.2,0.125,35.0,1,1.0,0.5738000000000056
113,2,0.2,0.0625,35.0,1,1.0,0.6498000000000275
114,2,0.2,1.0,35.0,1,1.0,0.321899999999971
115,2,0.2,0.125,-35.0,-1,1.0,0.5802989999999681
116,2,0.2,0.0625,35.0,1,1.0,0.529200000000003
117,2,0.2,0.0625,35.0,1,1.0,0.29059999999998354
118,2,0.2,0.0625,35.0,1,1.0,0.3160000000000309
119,2,0.2,1.0,35.0,1,1.0,0.23130000000003292
120,2,0.2,0.25,-35.0,-1,1.0,0.21289999999999054
121,2,0.8,0.25,35.0,1,1.0,0.262299999999982
122,2,0.8,0.25,-35.0,-1,1.0,0.219600000000014
123,2,0.8,0.0,-35.0,-1,1.0,0.7853000000000065
124,2,0.8,0.25,-35.0,-1,1.0,0.23980000000000246
125,2,0.8,0.25,35.0,1,1.0,0.39339999999998554
126,2,0.8,0.125,-35.0,-1,1.0,0.21639999999996462
127,2,0.8,0.0,-35.0,-1,1.0,0.08079899999995632
128,2,0.8,0.125,-35.0,-1,1.0,0.2533000000000243
129,2,0.8,0.0,-35.0,-1,1.0,2.6643999999999437
130,2,0.8,0.125,35.0,1,1.0,0.46880000000010114
131,2,0.8,0.125,-35.0,-1,1.0,0.6064000000001215
132,2,0.8,0.0625,-35.0,-1,1.0,0.28260000000011587
133,2,0.8,0.125,-35.0,-1,1.0,0.20440000000007785
134,2,0.8,0.25,-35.0,-1,1.0,0.19040000000006785
135,2,0.8,0.0625,-35.0,-1,1.0,0.24860000000012406
136,2,0.8,0.125,-35.0,-1,1.0,0.1427000000001044
137,2,0.8,0.125,-35.0,-1,1.0,0.20249999999998636
138,2,0.8,1.0,-35.0,-1,1.0,0.15840000000014243
139,2,0.8,0.0625,-35.0,-1,1.0,0.17259999999998854
140,2,0.8,0.25,-35.0,-1,1.0,0.31560000000013133
141,2,0.8,0.0625,35.0,1,1.0,0.43499999999994543
142,2,0.8,1.0,-35.0,-1,1.0,0.1711999999999989
143,2,0.8,0.0625,-35.0,-1,1.0,0.18290000000001783
144,2,0.8,1.0,-35.0,-1,1.0,0.18220000000007985
145,2,0.8,0.0625,-35.0,-1,1.0,0.2600000000001046
146,2,0.8,1.0,-35.0,-1,1.0,0.1488000000000511
147,2,0.8,1.0,-35.0,-1,1.0,0.19360000000017408
148,2,0.8,0.0,-35.0,-1,1.0,1.2905000000000655
149,2,0.8,1.0,-35.0,-1,1.0,0.2537000000000944
150,2,0.8,0.25,-35.0,-1,1.0,0.20460000000014134
151,2,0.8,0.0,-35.0,1,0.0,0.3245000000000573
152,2,0.8,1.0,-35.0,-1,1.0,0.2316000000000713
153,2,0.2,1.0,35.0,1,1.0,0.3267000000000735
154,2,0.2,0.25,35.0,1,1.0,0.28330000000005384
155,2,0.2,0.125,35.0,1,1.0,0.25060000000019045
156,2,0.2,1.0,35.0,1,1.0,0.4216000000000122
157,2,0.2,0.25,35.0,1,1.0,0.1735999999999649
158,2,0.2,1.0,35.0,1,1.0,0.28700000000003456
159,2,0.2,0.0625,35.0,1,1.0,0.7142000000000053
160,2,0.2,0.25,35.0,1,1.0,0.24469999999996617
161,2,0.2,0.125,35.0,1,1.0,0.1570000000000391
162,2,0.2,0.0,35.0,-1,0.0,4.212700000000041
163,2,0.2,1.0,35.0,1,1.0,0.27530000000001564
164,2,0.2,1.0,35.0,1,1.0,0.22010000000000218
165,2,0.2,0.25,35.0,1,1.0,0.9026000000000067
166,2,0.2,0.125,-35.0,-1,1.0,0.42970000000013897
167,2,0.2,0.125,35.0,1,1.0,0.6957000000001017
168,2,0.2,0.125,35.0,1,1.0,0.2417000000001508
169,2,0.2,0.125,35.0,1,1.0,0.3949000000001206
170,2,0.2,0.0625,35.0,1,1.0,0.41400000000010095
171,2,0.2,1.0,35.0,1,1.0,0.2418000000001257
172,2,0.2,0.0625,35.0,1,1.0,0.46870000000001255
173,2,0.2,0.125,35.0,1,1.0,0.5151000000000749
174,2,0.2,0.0,35.0,-1,0.0,1.6707000000000107
175,2,0.2,1.0,-35.0,-1,1.0,0.20490000000006603
176,2,0.2,1.0,35.0,1,1.0,0.2603000000000293
177,2,0.2,0.125,35.0,1,1.0,0.9435990000000629
178,2,0.2,0.0625,35.0,-1,0.0,0.5794000000000779
179,2,0.2,0.125,35.0,1,1.0,0.3097000000001344
180,2,0.2,1.0,35.0,1,1.0,0.3794000000000324
181,2,0.2,0.125,35.0,1,1.0,0.7521000000000413
182,2,0.2,0.0,-35.0,-1,1.0,3.1769000000001597
183,2,0.2,0.25,35.0,1,1.0,0.6309000000001106
184,2,0.2,0.25,35.0,-1,0.0,0.01630000000000109
185,2,0.2,0.25,35.0,1,1.0,0.23620000000005348
186,2,0.2,0.125,-35.0,-1,1.0,0.6063000000000329
187,2,0.2,1.0,35.0,1,1.0,0.7219000000000051
188,2,0.2,1.0,35.0,1,1.0,1.3120000000000118
189,2,0.2,0.125,35.0,1,1.0,0.49290000000007694
190,2,0.2,0.0625,35.0,-1,0.0,1.3369000000000142
191,2,0.2,0.125,-35.0,-1,1.0,0.21690000000000964
192,2,0.2,0.0625,35.0,1,1.0,1.9030000000001337
193,2,0.2,0.0625,-35.0,-1,1.0,0.21600000000000819
194,2,0.2,0.125,35.0,-1,0.0,1.0283000000000584
195,2,0.2,0.0,35.0,-1,0.0,0.24279999999998836
196,2,0.2,1.0,35.0,1,1.0,0.3089999999999691
197,2,0.2,1.0,35.0,1,1.0,0.259900000000016
198,2,0.2,0.25,-35.0,-1,1.0,0.30700000000001637
199,2,0.2,0.25,-35.0,-1,1.0,0.14030000000002474
200,2,0.2,1.0,35.0,1,1.0,0.24099999999998545
201,2,0.2,0.125,35.0,-1,0.0,6.605099999999993
202,2,0.2,0.25,35.0,1,1.0,0.3226999999999407
203,2,0.2,0.25,35.0,1,1.0,0.829300000000103
204,2,0.2,1.0,-35.0,-1,1.0,0.44800000000009277
205,2,0.2,0.0,35.0,-1,0.0,1.4200000000001864
206,2,0.2,0.25,-35.0,-1,1.0,0.23900000000003274
207,2,0.2,0.125,-35.0,-1,1.0,0.7115000000000009
208,2,0.2,0.0,35.0,-1,0.0,0.5005000000001019
209,2,0.2,1.0,35.0,1,1.0,0.29900000000009186
210,2,0.2,1.0,-35.0,-1,1.0,0.18610000000001037
211,2,0.2,0.125,35.0,1,1.0,0.74350000000004
212,2,0.2,0.125,35.0,1,1.0,0.554300000000012
213,2,0.2,0.0625,35.0,-1,0.0,0.7175000000000864
214,2,0.2,0.125,35.0,1,1.0,0.26310000000012224
215,2,0.2,1.0,35.0,1,1.0,0.2581000000001268
216,2,0.2,0.125,35.0,1,1.0,0.5981000000000449
217,2,0.2,0.0625,35.0,-1,0.0,0.44410000000004857
218,2,0.2,0.0625,35.0,1,1.0,0.4796000000000049
219,2,0.2,0.125,35.0,1,1.0,0.36400000000003274
220,2,0.2,0.125,35.0,1,1.0,1.3220990000000938
221,2,0.2,0.125,35.0,1,1.0,0.46519999999998163
222,2,0.2,1.0,35.0,1,1.0,0.4773000000000138
223,2,0.2,1.0,-35.0,-1,1.0,0.4126000000001113
224,2,0.2,1.0,35.0,1,1.0,0.23640000000000327
225,2,0.2,0.25,35.0,1,1.0,0.3482000000000198
226,2,0.2,0.0625,35.0,1,1.0,0.2022990000000391
227,2,0.2,0.0625,-35.0,-1,1.0,0.3601000000001022
228,2,0.2,1.0,-35.0,-1,1.0,0.06260000000008858
229,2,0.2,0.0,35.0,-1,0.0,0.6253000000001521
230,2,0.2,0.125,35.0,1,1.0,0.4211999999999989
231,2,0.2,0.125,35.0,1,1.0,0.5425000000000182
232,2,0.2,1.0,35.0,1,1.0,0.3046000000001641
233,2,0.2,1.0,35.0,1,1.0,0.561200000000099
234,2,0.8,0.0625,-35.0,-1,1.0,1.6357000000000426
235,2,0.8,1.0,-35.0,-1,1.0,0.28880000000003747
236,2,0.8,1.0,-35.0,-1,1.0,-0.013799999999946522
237,2,0.8,1.0,-35.0,-1,1.0,0.19389999999998508
238,2,0.8,0.125,-35.0,-1,1.0,0.21330000000000382
239,2,0.8,0.25,35.0,1,1.0,0.358600000000024
240,2,0.8,0.0625,-35.0,-1,1.0,0.26720000000011623
241,2,0.8,0.25,-35.0,-1,1.0,0.25319999999999254
242,2,0.8,1.0,-35.0,-1,1.0,0.09949999999992087
243,2,0.8,0.0,-35.0,-1,1.0,0.02930000000014843
244,2,0.8,0.0625,-35.0,-1,1.0,0.2693000000001575
245,2,0.8,0.0625,35.0,1,1.0,0.35530000000005657
246,2,0.8,0.125,-35.0,-1,1.0,0.3532000000000153
247,2,0.8,0.125,-35.0,-1,1.0,0.2543000000000575
248,2,0.8,1.0,-35.0,-1,1.0,0.20879999999999654
249,2,0.8,0.0,-35.0,-1,1.0,0.7702999999999065
250,2,0.8,0.0625,35.0,1,1.0,0.24740000000008422
251,2,0.8,0.25,-35.0,-1,1.0,0.22540000000003602
252,2,0.8,1.0,-35.0,-1,1.0,0.12810000000001764
253,2,0.8,0.25,-35.0,-1,1.0,0.183400000000006
254,2,0.8,0.125,-35.0,-1,1.0,0.17870000000004893
255,2,0.8,0.125,-35.0,-1,1.0,0.2016999999999598
256,2,0.8,0.25,-35.0,-1,1.0,0.19850000000008095
257,2,0.8,1.0,-35.0,-1,1.0,0.17860000000018772
258,2,0.8,0.125,-35.0,-1,1.0,0.21529999999995653
259,2,0.8,0.25,-35.0,-1,1.0,0.11850000000004002
260,2,0.8,0.0625,-35.0,-1,1.0,0.598700000000008
261,2,0.8,0.0625,-35.0,-1,1.0,0.2555999999999585
262,2,0.8,0.0,35.0,-1,0.0,1.6787999999999101
263,2,0.8,0.25,-35.0,-1,1.0,0.189200000000028
264,2,0.8,0.125,-35.0,-1,1.0,0.1793999999999869
265,2,0.8,0.125,35.0,1,1.0,4.775700000000143
266,2,0.8,0.0,-35.0,-1,1.0,1.2326999999997952
267,2,0.8,0.0625,-35.0,-1,1.0,0.3525999999999385
268,2,0.8,0.0625,-35.0,-1,1.0,0.34950000000003456
269,2,0.8,0.0,35.0,-1,0.0,0.40950000000020736
270,2,0.8,0.0625,-35.0,-1,1.0,0.3162000000002081
271,2,0.8,0.125,-35.0,-1,1.0,0.32950000000005275
272,2,0.8,0.0,-35.0,-1,1.0,2.5428000000001703
273,2,0.8,0.125,-35.0,-1,1.0,0.39650000000006
274,2,0.8,0.0625,-35.0,1,0.0,3.166500000000042
275,2,0.8,0.0625,35.0,1,1.0,0.3601000000001022
276,2,0.8,0.125,-35.0,-1,1.0,0.2500999999999749
277,2,0.8,0.0,-35.0,-1,1.0,3.3968999999999596
278,2,0.8,0.0625,-35.0,-1,1.0,0.45699999999987995
279,2,0.2,0.0625,35.0,-1,0.0,0.9836999999999989
280,2,0.2,1.0,35.0,1,1.0,0.27350000000001273
281,2,0.2,0.25,35.0,1,1.0,0.2377000000001317
282,2,0.2,0.0625,35.0,1,1.0,0.26060000000006767
283,2,0.2,0.125,35.0,1,1.0,0.37760000000002947
284,2,0.2,0.25,35.0,1,1.0,0.17059999999992215
285,2,0.2,0.0,35.0,-1,0.0,0.2976000000001022
286,2,0.2,1.0,35.0,1,1.0,0.3610999999998512
287,2,0.2,0.0,35.0,-1,0.0,0.9079000000001543
288,2,0.2,0.0625,-35.0,-1,1.0,2.4575999999999567
289,2,0.2,0.125,35.0,1,1.0,0.171100000000024
290,2,0.2,0.0625,-35.0,-1,1.0,0.46459900000013477
291,2,0.2,1.0,35.0,1,1.0,0.537900000000036
292,2,0.2,0.0625,-35.0,1,0.0,4.107899000000089
293,2,0.2,0.125,35.0,1,1.0,0.371199999999817
294,2,0.2,0.0625,35.0,1,1.0,0.5213000000001102
295,2,0.2,0.0625,35.0,1,1.0,0.20800000000008367
296,2,0.2,0.25,35.0,1,1.0,0.7724000000000615
297,2,0.2,0.0625,35.0,1,1.0,0.7386999999998807
298,2,0.2,0.25,35.0,1,1.0,0.5248999999998887
299,2,0.2,1.0,35.0,1,1.0,1.1617000000001099
300,2,0.2,0.25,35.0,1,1.0,0.4257000000000062
301,2,0.2,0.125,35.0,1,1.0,0.8186000000000604
302,2,0.2,0.0625,35.0,1,1.0,0.6286000000000058
303,2,0.2,0.25,35.0,1,1.0,0.18870000000015352
304,2,0.2,0.125,35.0,1,1.0,0.23849999999993088
305,2,0.2,0.25,35.0,1,1.0,0.71550000000002
306,2,0.2,0.25,35.0,1,1.0,0.25850000000014006
307,2,0.2,0.0625,35.0,1,1.0,0.24900000000002365
308,2,0.2,0.0625,35.0,1,1.0,0.6222999999997683
309,2,0.2,0.0625,35.0,1,1.0,3.6620000000000346
310,2,0.2,0.125,35.0,1,1.0,0.4762999999998101
311,2,0.2,0.25,35.0,1,1.0,0.3125
312,2,0.2,0.0,-35.0,1,0.0,1.3828000000000884
313,2,0.2,0.125,35.0,1,1.0,2.4792999999999665
314,2,0.2,0.0625,35.0,-1,0.0,3.8958999999999833
315,2,0.2,0.0625,35.0,1,1.0,4.902699999999868
316,2,0.2,0.0625,-35.0,-1,1.0,0.32370000000014443
317,2,0.2,0.0,35.0,-1,0.0,0.9529999999999745
318,2,0.2,0.125,35.0,1,1.0,0.8898000000001502
319,2,0.2,0.25,35.0,1,1.0,0.4296999999999116
320,2,0.2,0.0,35.0,-1,0.0,0.05309999999985848
321,2,0.2,1.0,35.0,1,1.0,0.2738000000001648
322,2,0.2,0.125,-35.0,-1,1.0,0.5632000000000517
323,2,0.2,0.25,35.0,1,1.0,0.8033000000000357
324,2,0.2,0.125,35.0,1,1.0,0.3705999999999676
325,2,0.2,0.0,35.0,1,1.0,3.3199999999999363
326,2,0.2,0.25,35.0,1,1.0,1.4467999999999392
327,2,0.2,0.0,35.0,-1,0.0,0.5602000000001226
328,2,0.2,1.0,35.0,1,1.0,0.29359999999996944
329,2,0.2,0.125,-35.0,-1,1.0,0.3704999999999927
330,2,0.2,0.125,35.0,1,1.0,1.1739000000000033
331,2,0.2,0.0625,-35.0,-1,1.0,0.5407999999999902
332,2,0.2,0.0625,35.0,1,1.0,1.3608999999999014
333,2,0.2,0.0625,-35.0,-1,1.0,0.2637999999999465
334,2,0.2,1.0,35.0,1,1.0,0.31389999999987594
335,2,0.2,0.0,35.0,1,1.0,3.9140000000002146
336,2,0.2,0.0625,35.0,1,1.0,0.6648999999999887
337,2,0.2,1.0,-35.0,-1,1.0,0.1811999999999898
338,2,0.2,0.125,35.0,1,1.0,0.2908999999999651
339,2,0.2,0.125,35.0,1,1.0,0.3550999999999931
340,2,0.2,0.25,35.0,1,1.0,0.42790000000013606
341,2,0.2,0.25,35.0,1,1.0,0.42830000000003565
342,2,0.8,1.0,-35.0,-1,1.0,0.24450000000001637
343,2,0.8,0.25,-35.0,-1,1.0,0.20119999999997162
344,2,0.8,1.0,-35.0,-1,1.0,-0.055000000000063665
345,2,0.8,0.0625,35.0,1,1.0,0.9120000000002619
346,2,0.8,0.0625,-35.0,-1,1.0,0.23820000000000618
347,2,0.8,0.0625,-35.0,1,0.0,0.8849000000002434
348,2,0.8,0.0625,-35.0,-1,1.0,0.3148999999998523
349,2,0.8,0.0625,35.0,1,1.0,0.37820000000010623
350,2,0.8,0.0625,-35.0,-1,1.0,0.2518000000000029
351,2,0.8,0.125,35.0,1,1.0,0.25510000000008404
352,2,0.8,0.25,-35.0,-1,1.0,0.20190000000025066
353,2,0.8,0.0625,-35.0,-1,1.0,0.5353000000000065
354,2,0.8,1.0,-35.0,-1,1.0,0.1855000000000473
355,2,0.8,0.125,35.0,1,1.0,0.34580000000005384
356,2,0.8,1.0,-35.0,-1,1.0,0.17200000000002547
357,2,0.8,0.125,-35.0,-1,1.0,0.1490000000001146
358,2,0.8,0.25,35.0,-1,0.0,0.10320000000001528
359,2,0.8,0.0625,35.0,1,1.0,0.4892000000002099
360,2,0.8,0.25,-35.0,-1,1.0,0.15010000000006585
361,2,0.8,1.0,35.0,1,1.0,0.4593999999999596
362,2,0.8,0.25,35.0,1,1.0,0.45610000000010587
363,2,0.8,0.125,-35.0,-1,1.0,0.31910000000016225
364,2,0.8,1.0,-35.0,-1,1.0,0.2035000000000764
365,2,0.8,1.0,-35.0,-1,1.0,0.18309999999996762
366,2,0.8,0.125,-35.0,-1,1.0,0.3565000000000964
367,2,0.8,0.0625,35.0,1,1.0,0.809400000000096
368,2,0.8,0.125,-35.0,-1,1.0,0.29310000000009495
369,2,0.8,0.125,35.0,1,1.0,0.3001000000001568
370,2,0.8,0.0625,-35.0,-1,1.0,0.19309900000007474
371,2,0.8,1.0,35.0,1,1.0,0.2964000000001761
372,2,0.8,0.25,35.0,1,1.0,0.22010000000000218
373,2,0.8,0.125,-35.0,-1,1.0,0.25710000000003674
374,2,0.8,0.0625,-35.0,-1,1.0,0.5400999999999385
375,2,0.8,0.25,-35.0,-1,1.0,0.28710000000000946
376,2,0.8,0.0625,-35.0,-1,1.0,0.07700000000022555
377,2,0.8,0.25,-35.0,-1,1.0,0.2502999999999247
378,2,0.8,0.25,-35.0,-1,1.0,0.21390000000019427
379,2,0.8,0.125,-35.0,-1,1.0,0.28420000000028267
380,2,0.8,1.0,-35.0,-1,1.0,0.14409999999998035
381,2,0.8,0.25,-35.0,-1,1.0,0.24070000000006075
382,2,0.8,0.125,-35.0,-1,1.0,0.23059999999986758
383,2,0.8,1.0,35.0,1,1.0,0.31399999999985084
384,2,0.8,0.25,-35.0,-1,1.0,0.2807999999999993
385,2,0.8,0.125,-35.0,-1,1.0,0.2112000000001899
386,2,0.8,0.25,-35.0,-1,1.0,0.27490000000011605
387,2,0.8,0.125,-35.0,-1,1.0,0.20419999999990068
388,2,0.8,0.25,-35.0,-1,1.0,0.18110000000001492
389,2,0.8,1.0,-35.0,-1,1.0,0.26149999999984175
390,2,0.8,0.25,35.0,1,1.0,0.24500000000011823
391,2,0.8,0.0,-35.0,-1,1.0,2.1314000000002125
392,2,0.8,0.125,-35.0,-1,1.0,0.22440000000028704
393,2,0.8,0.125,-35.0,-1,1.0,0.2015000000001237
394,2,0.8,1.0,-35.0,-1,1.0,0.1953000000000884
395,2,0.8,1.0,-35.0,-1,1.0,0.27140000000008513
396,2,0.8,1.0,-35.0,-1,1.0,0.2415000000000873
397,2,0.8,0.25,-35.0,-1,1.0,0.23519999999984975
398,2,0.8,0.0625,-35.0,-1,1.0,0.38850000000002183
399,2,0.8,0.25,35.0,1,1.0,0.2986000000000786
400,2,0.8,0.0,-35.0,-1,1.0,0.3585000000002765
401,2,0.8,0.25,35.0,1,1.0,0.17840000000001055
402,2,0.8,0.25,-35.0,-1,1.0,0.21210000000019136
403,2,0.8,0.125,-35.0,-1,1.0,0.21220000000016626
404,2,0.8,0.125,35.0,-1,0.0,0.1695999999999458
405,2,0.8,0.0,35.0,-1,0.0,1.8957000000000335
406,2,0.8,1.0,-35.0,-1,1.0,0.17240000000015243
407,2,0.8,1.0,-35.0,-1,1.0,0.22309999999993124
408,2,0.8,0.0625,-35.0,-1,1.0,0.19250000000010914
409,2,0.8,0.0625,-35.0,-1,1.0,0.09560000000033142
410,2,0.8,0.0,-35.0,1,0.0,0.5567000000000917
411,2,0.8,0.0,-35.0,-1,1.0,1.9697999999998501
412,2,0.8,0.0625,-35.0,-1,1.0,0.4234000000001288
413,2,0.8,0.25,-35.0,-1,1.0,0.09279999999989741
414,2,0.8,0.25,-35.0,-1,1.0,0.5295000000000982
415,2,0.8,1.0,35.0,1,1.0,0.23649900000009438
416,2,0.8,0.0625,-35.0,-1,1.0,0.9169000000001688
417,2,0.8,0.125,-35.0,-1,1.0,0.22310000000015862
418,2,0.8,1.0,-35.0,-1,1.0,0.18699900000001435
419,2,0.8,0.0,-35.0,-1,1.0,3.1240999999999985
420,2,0.8,0.125,-35.0,-1,1.0,0.18669999999997344
421,2,0.8,0.125,-35.0,-1,1.0,0.2800999999999476
422,2,0.8,0.0,-35.0,-1,1.0,2.4868000000001302
423,2,0.8,0.125,-35.0,-1,1.0,0.27680000000009386
424,2,0.8,1.0,-35.0,-1,1.0,0.1533999999999196
425,2,0.8,1.0,-35.0,-1,1.0,0.13799999999991996
426,2,0.8,0.0,-35.0,1,0.0,4.220600000000104
427,2,0.8,0.25,35.0,1,1.0,0.4881000000000313
428,2,0.8,0.0,-35.0,1,0.0,1.1342999999999392
429,2,0.8,0.0625,-35.0,-1,1.0,0.28090000000020154
430,2,0.8,0.25,-35.0,-1,1.0,0.32150000000001455
431,2,0.8,0.125,35.0,-1,0.0,0.22759900000005473
432,2,0.8,1.0,35.0,1,1.0,0.36780000000021573
433,2,0.8,0.0625,-35.0,-1,1.0,0.3808999999998832
434,2,0.2,0.0625,35.0,1,1.0,0.36429999999995744
435,2,0.2,0.0625,35.0,-1,0.0,3.664500000000089
436,2,0.2,0.0625,35.0,1,1.0,0.36540000000013606
437,2,0.2,1.0,-35.0,-1,1.0,0.37160000000017135
438,2,0.2,0.125,35.0,1,1.0,0.5786000000000513
439,2,0.2,1.0,35.0,1,1.0,0.5081000000000131
440,2,0.2,0.125,35.0,1,1.0,0.6182000000001153
441,2,0.2,0.25,35.0,1,1.0,0.49559900000008383
442,2,0.2,0.125,35.0,1,1.0,0.45870000000013533
443,2,0.2,0.0,35.0,1,1.0,0.3088000000000193
444,2,0.2,0.125,35.0,1,1.0,0.3885999999999967
445,2,0.2,0.0,35.0,1,1.0,0.41180000000008476
446,2,0.2,1.0,35.0,1,1.0,0.2518000000000029
447,2,0.2,0.25,35.0,1,1.0,0.36199999999985266
448,2,0.2,0.125,35.0,1,1.0,0.30520000000001346
449,2,0.2,0.25,35.0,1,1.0,0.6522999999999683
450,2,0.2,0.25,-35.0,-1,1.0,0.4655990000001111
451,2,0.2,0.25,35.0,1,1.0,0.39560000000005857
452,2,0.2,0.125,35.0,1,1.0,0.24879999999984648
453,2,0.2,1.0,35.0,1,1.0,0.17579999999998108
454,2,0.2,0.0625,35.0,1,1.0,0.49880000000007385
455,2,0.2,0.25,35.0,1,1.0,0.5222000000001117
456,2,0.2,0.125,35.0,1,1.0,0.2689999999997781
457,2,0.2,0.125,35.0,1,1.0,0.34910000000013497
458,2,0.2,0.125,35.0,1,1.0,0.33969999999999345
459,2,0.2,0.0625,35.0,1,1.0,0.5458999999998468
460,2,0.2,1.0,35.0,1,1.0,0.42269899999996596
461,2,0.2,0.125,35.0,1,1.0,0.34600000000000364
462,2,0.2,0.0625,35.0,1,1.0,0.3329000000001088
463,2,0.2,0.25,35.0,1,1.0,0.5960999999999785
464,2,0.8,0.125,-35.0,-1,1.0,0.34969999999998436
465,2,0.8,0.0,-35.0,-1,1.0,0.5767000000000735
466,2,0.8,0.0625,35.0,1,1.0,0.8197999999999865
467,2,0.8,0.25,35.0,1,1.0,0.40019900000015696
468,2,0.8,0.0,-35.0,1,0.0,4.436699999999973
469,2,0.8,1.0,-35.0,-1,1.0,0.28670000000010987
470,2,0.8,0.25,-35.0,-1,1.0,0.6298999999999069
471,2,0.8,0.0,-35.0,-1,1.0,7.470699999999852
472,2,0.8,1.0,-35.0,-1,1.0,0.4208000000000993
473,2,0.8,0.0,-35.0,-1,1.0,0.29710000000000036
474,2,0.8,0.0,-35.0,-1,1.0,0.7841000000000804
475,2,0.8,1.0,-35.0,-1,1.0,1.464200000000119
476,2,0.8,1.0,35.0,1,1.0,0.47700000000008913
477,2,0.8,0.0,-35.0,-1,1.0,2.063998999999967
478,2,0.8,0.125,-35.0,-1,1.0,0.2278000000001157
479,2,0.8,1.0,-35.0,-1,1.0,0.5077000000001135
480,2,0.8,1.0,35.0,1,1.0,0.4976000000001477
481,2,0.8,0.25,35.0,1,1.0,0.42450000000008004
482,2,0.8,0.125,-35.0,-1,1.0,0.4875999999999294
483,2,0.8,0.0625,-35.0,-1,1.0,0.314200000000028
484,2,0.8,0.25,-35.0,-1,1.0,0.39780000000018845
485,2,0.8,0.125,35.0,-1,0.0,0.43479999999999563
486,2,0.8,0.0625,-35.0,-1,1.0,1.6811999999999898
487,2,0.8,1.0,-35.0,-1,1.0,0.5579000000000178
488,2,0.8,0.125,-35.0,-1,1.0,0.39180000000010295
489,2,0.8,0.25,35.0,1,1.0,0.6211000000000695
490,2,0.8,0.125,-35.0,-1,1.0,0.21860000000015134
491,2,0.8,0.0625,-35.0,-1,1.0,0.2783999999999196
492,2,0.8,0.125,-35.0,-1,1.0,0.22810000000004038
493,2,0.8,0.125,-35.0,-1,1.0,0.051899999999932334
494,2,0.8,0.0625,-35.0,-1,1.0,0.2621999999998934
495,2,0.8,0.125,-35.0,-1,1.0,0.2080999999998312
496,2,0.8,0.125,-35.0,-1,1.0,2.928500000000213
497,2,0.8,0.0,35.0,-1,0.0,2.895100000000184
498,2,0.8,0.0,-35.0,-1,1.0,0.6719000000000506
499,2,0.8,0.125,-35.0,-1,1.0,0.04529999999999745
500,2,0.8,0.25,35.0,1,1.0,2.4895000000001346
501,2,0.8,0.125,35.0,-1,0.0,0.43990000000007967
502,2,0.8,0.25,-35.0,-1,1.0,0.10570000000006985
503,2,0.8,0.25,-35.0,-1,1.0,0.2556999999999334
504,2,0.8,0.125,-35.0,-1,1.0,1.0260000000000673
505,2,0.8,0.0625,-35.0,-1,1.0,3.9529999999999745
506,2,0.8,1.0,-35.0,-1,1.0,0.20349999999984902
507,2,0.8,0.0625,35.0,1,1.0,0.24300000000016553
508,2,0.8,0.0625,-35.0,-1,1.0,0.24949999999989814
509,2,0.8,0.25,-35.0,-1,1.0,0.26690000000007785
510,2,0.8,1.0,-35.0,-1,1.0,0.26299999999991996
511,2,0.8,0.0625,-35.0,-1,1.0,0.26340000000004693
512,2,0.8,0.0625,35.0,-1,0.0,4.197000000000116
513,2,0.8,0.0,-35.0,-1,1.0,5.420300000000225
514,2,0.8,0.0625,-35.0,-1,1.0,0.4832000000001244
515,2,0.8,0.0,-35.0,-1,1.0,2.367000000000189
516,2,0.8,0.125,-35.0,-1,1.0,0.21109999999998763
517,2,0.8,0.0625,-35.0,-1,1.0,2.9869999999998527
518,2,0.8,1.0,-35.0,-1,1.0,0.21409999999968932
519,2,0.8,1.0,-35.0,-1,1.0,0.3204999999998108
520,2,0.8,1.0,-35.0,-1,1.0,0.3310999999998785
521,2,0.8,1.0,35.0,1,1.0,0.6039999999998145
522,2,0.8,0.0,-35.0,1,0.0,0.24400000000014188
523,2,0.8,0.0,-35.0,-1,1.0,3.9880999999995765
524,2,0.8,0.125,-35.0,-1,1.0,0.23729999999977736
525,2,0.8,0.125,-35.0,-1,1.0,0.18109999999978754
526,2,0.8,1.0,-35.0,-1,1.0,0.2341999999998734
527,2,0.8,0.125,35.0,-1,0.0,4.155098999999609
528,2,0.8,0.125,-35.0,-1,1.0,0.4551000000001295
529,2,0.8,0.0,-35.0,-1,1.0,3.285099999999602
530,2,0.8,1.0,-35.0,-1,1.0,0.8452000000002045
531,2,0.8,0.25,-35.0,-1,1.0,0.35819999999966967
532,2,0.8,1.0,-35.0,-1,1.0,0.4517000000000735
533,2,0.8,0.25,-35.0,-1,1.0,0.08559999999988577
534,2,0.8,1.0,-35.0,-1,1.0,0.22819999999956053
535,2,0.8,0.0625,-35.0,-1,1.0,3.5825999999997293
536,2,0.8,1.0,-35.0,-1,1.0,1.9620999999997366
537,2,0.8,0.0625,35.0,-1,0.0,4.7952000000000226
538,2,0.8,0.25,-35.0,-1,1.0,3.6388999999994667
539,2,0.8,1.0,-35.0,-1,1.0,0.24919999999974607
540,2,0.8,0.125,35.0,1,1.0,0.20919999999978245
541,2,0.8,0.25,-35.0,-1,1.0,0.26619999999957145
542,2,0.8,0.25,35.0,1,1.0,0.7422999999998865
543,2,0.8,0.125,-35.0,-1,1.0,0.22929999999951178
544,2,0.8,0.125,-35.0,-1,1.0,0.21619999999938955
545,2,0.8,1.0,-35.0,-1,1.0,0.27629999999953725
546,2,0.8,0.125,-35.0,-1,1.0,0.4167999999995118
547,2,0.8,1.0,-35.0,-1,1.0,0.4106000000001586
548,2,0.8,0.25,-35.0,-1,1.0,0.5197000000002845
549,2,0.8,0.0625,-35.0,-1,1.0,1.66629999999941
550,2,0.8,0.0,-35.0,-1,1.0,0.569999999999709
551,2,0.2,0.0625,35.0,1,1.0,0.5066999999999098
552,2,0.2,0.25,35.0,1,1.0,0.40059999999994034
553,2,0.2,1.0,-35.0,-1,1.0,0.2802999999998974
554,2,0.2,0.125,-35.0,-1,1.0,0.5234000000000378
555,2,0.2,0.0625,35.0,1,1.0,0.5633000000002539
556,2,0.2,1.0,35.0,1,1.0,0.28719999999930224
557,2,0.2,0.0625,-35.0,1,0.0,3.5072000000000116
558,2,0.2,1.0,-35.0,-1,1.0,0.233600000000024
559,2,0.2,1.0,35.0,1,1.0,0.264299999999821
560,2,0.2,1.0,-35.0,-1,1.0,0.12069999999948777
561,2,0.2,1.0,35.0,1,1.0,0.37729999999965
562,2,0.2,1.0,-35.0,-1,1.0,0.2505999999998494
563,2,0.2,0.0625,35.0,1,1.0,0.850699999999506
564,2,0.2,0.0,35.0,-1,0.0,4.110599999999977
565,2,0.2,1.0,35.0,1,1.0,0.18089999999983775
566,2,0.2,0.0625,35.0,1,1.0,3.5743999999999687
567,2,0.2,1.0,-35.0,-1,1.0,0.22139999999944848
568,2,0.2,0.125,35.0,1,1.0,0.27489999999943393
569,2,0.2,1.0,35.0,1,1.0,0.2948999999998705
570,2,0.2,0.125,35.0,1,1.0,0.24169999999958236
571,2,0.2,0.125,-35.0,-1,1.0,0.2516999999993459
572,2,0.2,0.25,35.0,1,1.0,0.41889999999966676
573,2,0.2,1.0,35.0,1,1.0,0.404700000000048
574,2,0.2,0.125,35.0,1,1.0,0.22819999999956053
575,2,0.2,0.0625,-35.0,-1,1.0,1.465099999999893
576,2,0.2,0.125,35.0,1,1.0,0.9789999999998145
577,2,0.2,0.0625,-35.0,-1,1.0,0.4187000000001717
578,2,0.8,0.125,-35.0,-1,1.0,0.3955999999998312
579,2,0.8,0.125,-35.0,-1,1.0,0.5317999999997483
580,2,0.8,0.0625,-35.0,-1,1.0,5.568999999999505
581,2,0.8,0.0,-35.0,-1,1.0,6.172499999999673
582,2,0.8,0.0,-35.0,-1,1.0,0.2824999999997999
583,2,0.8,1.0,-35.0,-1,1.0,0.37909999999965294
584,2,0.8,0.125,-35.0,1,0.0,0.41289999999980864
585,2,0.8,1.0,-35.0,-1,1.0,0.2625999999995656
586,2,0.8,0.0625,-35.0,-1,1.0,4.216499999999996
587,2,0.8,0.25,-35.0,-1,1.0,0.4331999999999425
588,2,0.8,0.25,35.0,1,1.0,1.4994999999998981
589,2,0.8,0.25,-35.0,-1,1.0,0.6929000000000087
590,2,0.8,0.0625,35.0,1,1.0,0.24659999999994398
591,2,0.8,0.0625,-35.0,-1,1.0,0.5661999999997533
592,2,0.8,0.25,-35.0,-1,1.0,2.3128999999998996
593,2,0.8,0.0625,-35.0,-1,1.0,0.5596000000000458
594,2,0.8,1.0,-35.0,-1,1.0,0.1865999999995438
595,2,0.8,0.0,-35.0,-1,1.0,3.3237999999996646
596,2,0.8,1.0,-35.0,-1,1.0,0.2205999999996493
597,2,0.8,1.0,-35.0,-1,1.0,0.20359999999982392
598,2,0.8,1.0,35.0,1,1.0,0.24060000000008586
599,2,0.8,0.125,-35.0,-1,1.0,0.25759999999991123
600,2,0.8,1.0,-35.0,-1,1.0,0.22069999999985157
601,2,0.8,0.0625,-35.0,-1,1.0,3.6368999999999687
602,2,0.8,0.0625,35.0,1,1.0,2.5005999999998494
603,2,0.8,1.0,-35.0,-1,1.0,0.10469999999986612
604,2,0.8,0.0625,-35.0,-1,1.0,0.2847999999999047
605,2,0.2,0.125,35.0,-1,0.0,5.450799999999617
606,2,0.2,0.125,35.0,1,1.0,0.47759999999971114
607,2,0.2,1.0,35.0,1,1.0,0.29419999999981883
608,2,0.2,1.0,35.0,1,1.0,0.2254000000002634
609,2,0.2,0.0625,35.0,1,1.0,0.9216999999994187
610,2,0.2,1.0,-35.0,-1,1.0,0.19099999999980355
611,2,0.2,0.0625,35.0,1,1.0,0.2884999999992033
612,2,0.2,0.125,35.0,1,1.0,4.505399999999554
613,2,0.2,0.125,-35.0,-1,1.0,0.3247000000001208
614,2,0.2,0.0625,35.0,1,1.0,0.39170000000012806
615,2,0.2,0.0,-35.0,1,0.0,3.2786999999998443
616,2,0.2,0.125,35.0,1,1.0,0.3651999999997315
617,2,0.2,0.25,35.0,1,1.0,0.24179999999978463
618,2,0.2,0.125,-35.0,-1,1.0,0.39580000000023574
619,2,0.2,1.0,35.0,1,1.0,0.4320999999995365
620,2,0.2,0.0625,35.0,1,1.0,1.9557999999997264
621,2,0.2,0.125,35.0,1,1.0,0.3518989999997757
622,2,0.2,0.125,35.0,1,1.0,0.32609999999976935
623,2,0.2,0.25,35.0,1,1.0,5.936099999999897
624,2,0.2,0.0625,35.0,-1,0.0,4.125799999999799
625,2,0.2,0.0,35.0,1,1.0,0.45630000000028303
626,2,0.2,0.25,35.0,1,1.0,0.3130999999998494
627,2,0.2,0.25,-35.0,-1,1.0,0.1768999999994776
628,2,0.2,0.0,35.0,-1,0.0,0.2298000000000684
629,2,0.2,0.25,35.0,1,1.0,3.830199999999877
630,2,0.2,0.0,-35.0,-1,1.0,1.9268999999999323
631,2,0.2,0.25,35.0,1,1.0,0.3832999999999629
632,2,0.8,0.25,35.0,1,1.0,5.4198999999998705
633,2,0.8,1.0,-35.0,-1,1.0,0.39019999999982247
634,2,0.8,1.0,35.0,1,1.0,0.2438999999999396
635,2,0.8,0.0625,-35.0,-1,1.0,4.303899999999885
636,2,0.8,0.0625,35.0,-1,0.0,2.636899999999514
637,2,0.8,0.0625,-35.0,-1,1.0,0.31739999999990687
638,2,0.8,0.25,-35.0,-1,1.0,0.29379999999991924
639,2,0.8,0.125,-35.0,-1,1.0,1.3708999999998923
640,2,0.8,0.0,-35.0,-1,1.0,5.144099999999526
641,2,0.8,0.25,-35.0,-1,1.0,0.28450000000020736
642,2,0.8,0.25,-35.0,-1,1.0,3.414299999999912
643,2,0.8,0.0,-35.0,-1,1.0,5.877999999999702
644,2,0.8,0.25,-35.0,-1,1.0,-0.0022999999996500264
645,2,0.8,0.125,35.0,-1,0.0,5.061699999999746
646,2,0.8,0.125,-35.0,-1,1.0,0.22129999999970096
647,2,0.8,0.125,-35.0,-1,1.0,0.11499999999978172
648,2,0.8,0.0,35.0,-1,0.0,1.7279999999996107
649,2,0.8,0.25,-35.0,-1,1.0,0.24809999999979482
650,2,0.8,0.25,-35.0,-1,1.0,0.3619999999996253
651,2,0.8,0.125,35.0,1,1.0,0.3317999999994754
652,2,0.8,0.25,-35.0,-1,1.0,0.18539999999984502
653,2,0.8,1.0,-35.0,-1,1.0,0.24199999999973443
654,2,0.8,1.0,-35.0,-1,1.0,0.24179999999932988
655,2,0.8,0.25,35.0,1,1.0,0.2750999999998385
656,2,0.8,1.0,-35.0,-1,1.0,0.40869999999995343
657,2,0.8,0.0625,-35.0,-1,1.0,4.055599999999686
658,2,0.8,0.25,35.0,1,1.0,0.4491000000002714
659,2,0.8,0.125,-35.0,-1,1.0,0.19549999999981083
660,2,0.8,0.0,-35.0,-1,1.0,3.746099999999842
661,2,0.8,0.0,-35.0,-1,1.0,7.949900000000071
662,2,0.8,0.0625,35.0,1,1.0,0.6628999999998086
663,2,0.8,1.0,-35.0,-1,1.0,0.3026999999997315
664,2,0.8,0.125,-35.0,1,0.0,1.7026999999998225
665,2,0.8,0.125,-35.0,-1,1.0,0.2030999999992673
666,2,0.8,0.125,-35.0,-1,1.0,0.4029000000000451
667,2,0.8,0.25,-35.0,-1,1.0,0.3967999999999847
668,2,0.2,0.25,35.0,1,1.0,0.3033999999997832
669,2,0.2,0.25,35.0,1,1.0,6.62310000000025
670,2,0.2,0.0625,-35.0,-1,1.0,2.2667999999998756
671,2,0.2,0.0,35.0,-1,0.0,5.590299999999388
672,2,0.2,0.125,35.0,1,1.0,0.7034999999996217
673,2,0.2,1.0,35.0,1,1.0,0.22029999999995198
674,2,0.2,0.25,35.0,1,1.0,2.597200000000157
675,2,0.2,0.0625,-35.0,-1,1.0,0.9543999999996231
676,2,0.2,0.125,35.0,1,1.0,1.0606999999995423
677,2,0.2,1.0,35.0,1,1.0,0.3071999999997388
678,2,0.2,0.25,35.0,1,1.0,0.3271999999997206
679,2,0.2,0.125,35.0,-1,0.0,12.010599999999613
680,2,0.2,0.125,35.0,1,1.0,4.304299999999785
681,2,0.2,0.0,35.0,1,1.0,0.4682999999995445
682,2,0.2,0.0625,-35.0,-1,1.0,4.945199999999659
683,2,0.2,0.125,35.0,1,1.0,0.2955999999994674
684,2,0.2,1.0,35.0,1,1.0,0.9513000000001739
685,2,0.2,1.0,35.0,1,1.0,0.4248000000002321
686,2,0.2,0.125,35.0,1,1.0,0.4482999999995627
687,2,0.2,0.0625,35.0,1,1.0,1.8955999999998312
688,2,0.2,1.0,-35.0,-1,1.0,0.2618999999999687
689,2,0.2,1.0,35.0,1,1.0,0.33159999999998035
690,2,0.2,1.0,-35.0,-1,1.0,0.24219999999968422
691,2,0.2,0.125,35.0,1,1.0,5.178899999999885
692,2,0.2,0.25,35.0,1,1.0,0.44889999999986685
693,2,0.2,0.125,35.0,1,1.0,0.4319989999999052
694,2,0.2,0.25,35.0,1,1.0,0.5223999999998341
695,2,0.2,0.25,35.0,1,1.0,6.052400000000034
696,2,0.2,0.0625,-35.0,-1,1.0,0.5355999999997039
697,2,0.2,0.25,35.0,1,1.0,0.24559999999974025
698,2,0.2,0.125,35.0,1,1.0,0.302499999999327
699,2,0.2,0.0,-35.0,1,0.0,4.149399999999787
700,2,0.2,1.0,35.0,1,1.0,4.876000000000204
701,2,0.2,0.25,35.0,1,1.0,14.569400000000314
702,2,0.2,0.0,35.0,-1,0.0,14.690500000000156
703,2,0.2,0.0625,35.0,1,1.0,0.46050000000013824
704,2,0.2,0.0,-35.0,-1,1.0,0.7300000000000182
705,2,0.8,0.125,-35.0,-1,1.0,3.766700000000128
706,2,0.8,0.25,-35.0,-1,1.0,0.29389999999966676
707,2,0.8,0.25,35.0,-1,0.0,0.6606999999999061
708,2,0.8,0.125,-35.0,-1,1.0,5.196899999999914
709,2,0.8,0.25,-35.0,-1,1.0,0.3105000000000473
710,2,0.8,0.0625,-35.0,-1,1.0,11.414499999999407
711,2,0.8,0.125,-35.0,-1,1.0,0.3141999999993459
712,2,0.8,0.0,35.0,-1,0.0,13.501000000000204
713,2,0.8,1.0,-35.0,-1,1.0,0.30130000000008295
714,2,0.8,0.25,-35.0,-1,1.0,0.2678999999993721
715,2,0.8,1.0,-35.0,-1,1.0,0.33140000000003056
716,2,0.8,1.0,-35.0,-1,1.0,0.19160000000010768
717,2,0.8,0.0625,-35.0,-1,1.0,0.1782999999995809
718,2,0.8,0.0,-35.0,-1,1.0,7.434999999999945
719,2,0.8,0.125,35.0,-1,0.0,6.205299999999625
720,2,0.8,0.0625,-35.0,-1,1.0,0.3621999999995751
721,2,0.8,0.25,-35.0,-1,1.0,0.3455999999996493
722,2,0.8,0.0625,-35.0,-1,1.0,0.245600000000195
723,2,0.8,1.0,-35.0,-1,1.0,0.2056999999999789
724,2,0.8,1.0,-35.0,-1,1.0,0.24569999999994252
725,2,0.8,0.125,-35.0,-1,1.0,0.23590000000012878
726,2,0.8,0.0625,-35.0,-1,1.0,0.22269999999980428
727,2,0.8,0.125,-35.0,-1,1.0,0.29919999999992797
728,2,0.8,0.0625,35.0,-1,0.0,0.3658999999997832
729,2,0.8,0.125,-35.0,-1,1.0,0.27019999999947686
730,2,0.8,0.0,-35.0,-1,1.0,1.979399999999714
731,2,0.8,0.25,-35.0,-1,1.0,0.362999999999829
732,2,0.8,0.25,-35.0,-1,1.0,0.5095999999994092
733,2,0.8,0.125,35.0,-1,0.0,4.5601999999994405
734,2,0.8,0.125,-35.0,-1,1.0,0.5197999999995773
735,2,0.8,0.0625,-35.0,-1,1.0,3.7298000000000684
736,2,0.8,0.0,-35.0,-1,1.0,5.429799999999432
737,2,0.8,0.0625,-35.0,-1,1.0,5.523299999999381
738,2,0.8,0.0,-35.0,-1,1.0,3.2935999999999694
739,2,0.8,1.0,-35.0,-1,1.0,0.27719999999999345
740,2,0.8,0.125,-35.0,-1,1.0,1.507199999999557
741,2,0.8,0.0625,-35.0,-1,1.0,19.427799999999934
742,2,0.8,0.0625,-35.0,-1,1.0,11.207999999999629
743,2,0.8,0.25,35.0,-1,0.0,1.7145999999997912
744,2,0.8,1.0,-35.0,-1,1.0,0.37449999999989814
745,2,0.8,1.0,-35.0,-1,1.0,0.3978999999994812
746,2,0.8,0.25,-35.0,-1,1.0,0.48139999999966676
747,2,0.8,0.0625,-35.0,-1,1.0,0.7088999999996304
748,2,0.8,0.125,-35.0,-1,1.0,16.904999999999745
749,2,0.8,0.125,-35.0,-1,1.0,5.992499999999836
750,2,0.8,1.0,-35.0,-1,1.0,1.3058000000000902
751,2,0.8,0.25,-35.0,-1,1.0,0.909099999999853
752,2,0.8,0.25,-35.0,-1,1.0,2.7929999999996653
753,2,0.8,0.125,-35.0,-1,1.0,10.515899999999874
754,2,0.8,0.125,-35.0,-1,1.0,7.426200000000335
755,2,0.8,0.125,-35.0,-1,1.0,0.29619999999977153
756,2,0.8,0.25,-35.0,-1,1.0,0.240099999999984
1,3,0.2,0.125,35.0,1,1.0,0.2380000000000002
2,3,0.2,0.125,35.0,1,1.0,0.1684000000000001
3,3,0.2,0.125,-35.0,-1,1.0,0.9729999999999999
4,3,0.2,1.0,35.0,1,1.0,0.38730000000000153
5,3,0.2,0.0,35.0,1,1.0,1.7661999999999978
6,3,0.2,0.0625,35.0,1,1.0,0.22719899999999882
7,3,0.2,0.0,35.0,1,1.0,1.0759000000000007
8,3,0.2,1.0,35.0,1,1.0,0.20390000000000086
9,3,0.2,0.125,35.0,1,1.0,0.17539999999999623
10,3,0.2,1.0,-35.0,-1,1.0,0.22530000000000427
11,3,0.2,0.0625,35.0,1,1.0,0.5630000000000024
12,3,0.2,0.0625,-35.0,-1,1.0,0.26619999999999777
13,3,0.2,0.25,-35.0,-1,1.0,0.12459999999999383
14,3,0.2,0.0625,35.0,1,1.0,0.6883989999999969
15,3,0.2,0.125,-35.0,-1,1.0,0.13880000000000337
16,3,0.2,0.0,35.0,-1,0.0,1.0411999999999892
17,3,0.2,1.0,35.0,1,1.0,0.2137000000000029
18,3,0.2,0.0625,35.0,1,1.0,0.40909999999999513
19,3,0.2,0.0,35.0,1,1.0,2.4716999999999985
20,3,0.2,0.0625,-35.0,-1,1.0,0.33629999999999427
21,3,0.2,0.0,35.0,-1,0.0,1.1738
22,3,0.2,0.0625,35.0,1,1.0,0.2738000000000085
23,3,0.2,0.25,-35.0,-1,1.0,0.33840000000000714
24,3,0.2,1.0,35.0,1,1.0,0.17370000000001085
25,3,0.2,0.25,-35.0,-1,1.0,0.16610000000000014
26,3,0.2,0.0625,35.0,1,1.0,0.3833000000000055
27,3,0.8,0.25,-35.0,-1,1.0,0.25950000000000273
28,3,0.8,1.0,-35.0,-1,1.0,0.25849999999999795
29,3,0.8,0.0625,-35.0,-1,1.0,0.27250000000000796
30,3,0.8,0.125,-35.0,-1,1.0,0.27250000000000796
31,3,0.8,1.0,35.0,1,1.0,0.9712999999999994
32,3,0.8,0.125,35.0,1,1.0,0.39050000000000296
33,3,0.8,0.25,35.0,1,1.0,0.5305000000000177
34,3,0.8,0.125,-35.0,-1,1.0,0.4391000000000105
35,3,0.8,0.0625,35.0,1,1.0,0.18149999999999977
36,3,0.8,0.25,-35.0,-1,1.0,0.2265000000000157
37,3,0.8,0.125,-35.0,-1,1.0,0.19859900000002995
38,3,0.8,1.0,-35.0,-1,1.0,0.20160000000001332
39,3,0.8,1.0,35.0,1,1.0,0.6512000000000171
40,3,0.8,0.25,-35.0,-1,1.0,0.17980000000000018
41,3,0.8,0.125,-35.0,-1,1.0,0.43660000000002697
42,3,0.8,0.25,-35.0,-1,1.0,0.4241000000000099
43,3,0.8,0.25,35.0,1,1.0,0.2634999999999934
44,3,0.8,0.0625,-35.0,-1,1.0,1.4310999999999865
45,3,0.8,0.0625,-35.0,-1,1.0,0.31790000000000873
46,3,0.8,0.25,-35.0,-1,1.0,0.223700000000008
47,3,0.8,0.125,35.0,1,1.0,0.24660000000002924
48,3,0.8,0.25,-35.0,-1,1.0,0.3258000000000152
49,3,0.8,0.0625,35.0,1,1.0,0.37760000000000105
50,3,0.8,0.125,35.0,1,1.0,0.1998000000000104
51,3,0.8,0.25,-35.0,1,0.0,0.2720999999999947
52,3,0.8,0.25,-35.0,-1,1.0,0.1945999999999799
53,3,0.8,0.25,35.0,-1,0.0,0.070699999999988
54,3,0.8,0.125,35.0,1,1.0,0.5036000000000058
55,3,0.8,1.0,-35.0,-1,1.0,0.3277000000000214
56,3,0.8,1.0,-35.0,-1,1.0,0.07079999999999131
57,3,0.8,0.0625,-35.0,-1,1.0,0.41370000000000573
58,3,0.8,0.0625,-35.0,-1,1.0,0.41850000000002296
59,3,0.8,0.125,-35.0,-1,1.0,0.4303000000000168
60,3,0.8,0.25,-35.0,-1,1.0,0.5767000000000166
61,3,0.8,0.0625,-35.0,-1,1.0,0.2926999999999964
62,3,0.8,0.0,35.0,-1,0.0,0.21039999999999281
63,3,0.8,0.25,-35.0,-1,1.0,0.216700000000003
64,3,0.8,0.0625,-35.0,-1,1.0,0.6521999999999935
65,3,0.8,0.0625,35.0,1,1.0,0.7737999999999943
66,3,0.8,1.0,35.0,1,1.0,0.23060000000000969
67,3,0.8,0.125,-35.0,-1,1.0,0.3821999999999832
68,3,0.8,1.0,-35.0,-1,1.0,0.1600999999999999
69,3,0.8,0.25,-35.0,-1,1.0,0.17490000000003647
70,3,0.8,0.125,-35.0,-1,1.0,0.18330000000000268
71,3,0.8,0.125,-35.0,-1,1.0,0.2342000000000155
72,3,0.8,1.0,-35.0,-1,1.0,0.22779900000000453
73,3,0.8,0.0625,-35.0,-1,1.0,0.6428000000000225
74,3,0.8,0.125,-35.0,-1,1.0,0.5028999999999542
75,3,0.8,0.0625,-35.0,-1,1.0,0.2656000000000063
76,3,0.8,0.25,-35.0,-1,1.0,0.19290000000000873
77,3,0.8,0.125,-35.0,-1,1.0,0.16280000000000427
78,3,0.8,0.25,-35.0,-1,1.0,0.13479999999998427
79,3,0.8,0.0625,-35.0,-1,1.0,0.49219999999996844
80,3,0.8,0.0625,-35.0,-1,1.0,0.2366000000000099
81,3,0.8,0.25,-35.0,-1,1.0,0.12020000000001119
82,3,0.8,0.0625,35.0,1,1.0,0.43220000000007985
83,3,0.8,0.0625,-35.0,-1,1.0,0.23129999999997608
84,3,0.8,0.0,-35.0,-1,1.0,0.7682000000000357
85,3,0.8,0.0,-35.0,-1,1.0,0.5982000000000767
86,3,0.8,0.125,-35.0,-1,1.0,0.13999999999998636
87,3,0.8,0.25,-35.0,-1,1.0,0.4078999999999837
88,3,0.8,0.0,-35.0,-1,1.0,0.3264000000000351
89,3,0.8,1.0,-35.0,-1,1.0,0.29290000000003147
90,3,0.8,0.125,-35.0,-1,1.0,0.12749999999999773
91,3,0.8,0.25,35.0,1,1.0,0.17889999999999873
92,3,0.8,0.25,-35.0,-1,1.0,0.2880000000000109
93,3,0.8,0.0625,35.0,1,1.0,0.2761000000000422
94,3,0.8,0.125,-35.0,-1,1.0,0.410000000000025
95,3,0.8,0.125,-35.0,-1,1.0,0.22989999999998645
96,3,0.8,0.125,-35.0,-1,1.0,0.16370000000000573
97,3,0.8,0.25,-35.0,-1,1.0,0.2857000000000198
98,3,0.8,0.0625,-35.0,-1,1.0,0.29100000000005366
99,3,0.8,0.0625,-35.0,-1,1.0,0.16300000000001091
100,3,0.8,0.125,-35.0,-1,1.0,0.25439999999997553
101,3,0.8,0.125,-35.0,-1,1.0,0.380800000000022
102,3,0.8,0.25,-35.0,-1,1.0,0.22800000000000864
103,3,0.8,0.125,-35.0,-1,1.0,0.20509999999995898
104,3,0.8,0.25,-35.0,-1,1.0,0.31399999999996453
105,3,0.8,0.25,-35.0,-1,1.0,0.3820999999999799
106,3,0.2,0.25,35.0,1,1.0,0.2851999999999748
107,3,0.2,0.125,35.0,1,1.0,0.32119900000003554
108,3,0.2,0.0,35.0,1,1.0,0.45409999999998263
109,3,0.2,0.25,35.0,1,1.0,0.37930000000000064
110,3,0.2,1.0,-35.0,-1,1.0,0.08930000000003702
111,3,0.2,0.25,35.0,1,1.0,0.21309999999999718
112,3,0.2,1.0,35.0,1,1.0,0.1864999999999668
113,3,0.2,0.125,35.0,1,1.0,0.21390000000002374
114,3,0.2,0.125,35.0,1,1.0,0.3586999999999989
115,3,0.2,0.0625,35.0,1,1.0,0.44839999999999236
116,3,0.2,0.0625,35.0,1,1.0,0.43310000000002447
117,3,0.2,1.0,35.0,1,1.0,0.22109999999997854
118,3,0.2,1.0,35.0,1,1.0,0.30709999999999127
119,3,0.2,1.0,35.0,1,1.0,0.28410000000002356
120,3,0.2,0.0625,35.0,1,1.0,0.3712000000000444
121,3,0.2,1.0,35.0,1,1.0,0.23099999999999454
122,3,0.2,1.0,-35.0,-1,1.0,0.19920000000001892
123,3,0.2,0.25,-35.0,-1,1.0,0.3131000000000199
124,3,0.2,0.25,35.0,1,1.0,0.2471999999999639
125,3,0.2,0.25,35.0,1,1.0,0.16079999999999472
126,3,0.8,0.125,35.0,1,1.0,0.3575999999999908
127,3,0.8,1.0,35.0,1,1.0,0.24210000000005039
128,3,0.8,0.25,-35.0,-1,1.0,0.22739999999998872
129,3,0.8,0.0625,-35.0,1,0.0,0.3007000000000062
130,3,0.8,0.125,35.0,1,1.0,0.23320000000001073
131,3,0.8,0.125,-35.0,-1,1.0,0.12550000000004502
132,3,0.8,0.125,-35.0,-1,1.0,0.1652000000000271
133,3,0.8,1.0,35.0,1,1.0,0.9259999999999877
134,3,0.8,0.0625,-35.0,-1,1.0,1.008800000000008
135,3,0.8,0.0,-35.0,1,0.0,5.293300000000045
136,3,0.8,1.0,-35.0,-1,1.0,0.172300000000007
137,3,0.8,0.25,-35.0,-1,1.0,0.05709999999999127
138,3,0.8,0.25,-35.0,-1,1.0,0.3543000000000234
139,3,0.8,0.125,35.0,1,1.0,0.2053000000000793
140,3,0.8,1.0,-35.0,-1,1.0,0.16700000000003
141,3,0.8,0.0,-35.0,1,0.0,0.6485999999999876
142,3,0.8,0.0625,35.0,1,1.0,0.3813000000000102
143,3,0.8,0.125,-35.0,-1,1.0,0.26749999999992724
144,3,0.8,0.0,-35.0,-1,1.0,1.3053999999999633
145,3,0.8,0.0625,-35.0,-1,1.0,0.3466999999999416
146,3,0.8,0.25,-35.0,-1,1.0,0.45230000000003656
147,3,0.8,0.125,35.0,1,1.0,0.7463999999998805
148,3,0.8,0.0625,-35.0,-1,1.0,2.383399999999938
149,3,0.8,1.0,35.0,1,1.0,0.41629999999997835
150,3,0.8,0.25,35.0,1,1.0,0.3487999999998692
151,3,0.8,0.25,-35.0,-1,1.0,0.19449999999983447
152,3,0.8,0.0625,-35.0,-1,1.0,0.4983999999999469
153,3,0.8,0.0625,-35.0,-1,1.0,0.13829999999995835
154,3,0.8,0.125,-35.0,-1,1.0,0.45659999999998035
155,3,0.8,0.0625,-35.0,-1,1.0,0.3669999999999618
156,3,0.8,0.125,-35.0,-1,1.0,0.36579999999992197
157,3,0.8,0.0,-35.0,1,0.0,0.21939999999995052
158,3,0.8,0.125,-35.0,-1,1.0,0.2359999999998763
159,3,0.8,0.25,-35.0,-1,1.0,0.4897999999998319
160,3,0.8,0.0625,35.0,1,1.0,1.308499999999981
161,3,0.8,1.0,-35.0,-1,1.0,0.41479999999990014
162,3,0.8,0.0625,-35.0,-1,1.0,0.9752999999998337
163,3,0.8,1.0,-35.0,-1,1.0,0.3623999999999796
164,3,0.8,0.0625,-35.0,-1,1.0,0.28960000000006403
165,3,0.8,0.25,-35.0,-1,1.0,0.28999999999984993
166,3,0.8,0.0,-35.0,-1,1.0,2.1293999999999187
167,3,0.8,0.0625,-35.0,-1,1.0,1.5493999999998778
168,3,0.8,1.0,-35.0,-1,1.0,0.161499999999819
169,3,0.8,1.0,-35.0,-1,1.0,0.19640000000003965
170,3,0.8,0.125,-35.0,-1,1.0,0.3725000000000591
171,3,0.8,0.25,-35.0,-1,1.0,0.38669999999990523
172,3,0.8,1.0,-35.0,-1,1.0,0.032999999999901775
173,3,0.2,0.25,35.0,1,1.0,0.2277000000000271
174,3,0.2,1.0,35.0,1,1.0,0.34050000000002
175,3,0.2,0.0625,35.0,1,1.0,0.23549999999988813
176,3,0.2,0.125,35.0,1,1.0,0.5437999999999192
177,3,0.2,0.0625,-35.0,1,0.0,0.7395000000000209
178,3,0.2,1.0,-35.0,-1,1.0,0.20959999999990941
179,3,0.2,0.0,-35.0,1,0.0,0.328200000000038
180,3,0.2,0.25,35.0,1,1.0,0.2198999999999387
181,3,0.2,0.0,-35.0,-1,1.0,8.462599999999952
182,3,0.2,0.0625,35.0,1,1.0,0.29159999999990305
183,3,0.2,0.25,35.0,1,1.0,0.21949999999992542
184,3,0.2,1.0,35.0,1,1.0,0.4293999999998732
185,3,0.2,0.125,35.0,1,1.0,0.1894999999999527
186,3,0.2,0.0625,35.0,1,1.0,0.2378999999999678
187,3,0.2,0.0625,-35.0,1,0.0,0.08249999999998181
188,3,0.2,0.0625,35.0,1,1.0,0.20889999999997144
189,3,0.2,0.0625,35.0,-1,0.0,0.10990000000003874
190,3,0.2,0.0625,35.0,1,1.0,0.4096999999999298
191,3,0.2,1.0,35.0,1,1.0,0.2116999999999507
192,3,0.2,0.25,35.0,1,1.0,0.14019999999993615
193,3,0.2,0.125,35.0,1,1.0,0.32569999999986976
194,3,0.2,0.25,35.0,1,1.0,0.21559899999988374
195,3,0.2,0.25,35.0,1,1.0,0.2847989999999072
196,3,0.2,1.0,35.0,1,1.0,0.28509999999994307
197,3,0.2,0.25,35.0,1,1.0,0.40679999999986194
198,3,0.2,0.25,35.0,1,1.0,0.13869999999985794
199,3,0.2,0.0625,35.0,1,1.0,0.4334999999999809
200,3,0.2,1.0,35.0,1,1.0,0.23269999999990887
201,3,0.2,1.0,35.0,1,1.0,0.2097999999999729
202,3,0.2,1.0,35.0,1,1.0,0.3625999999999294
203,3,0.2,0.0625,35.0,1,1.0,0.5414999999999281
204,3,0.2,0.0,35.0,1,1.0,0.2536999999999807
205,3,0.2,0.125,35.0,1,1.0,0.25709999999992306
206,3,0.2,1.0,-35.0,-1,1.0,0.18059999999991305
207,3,0.2,0.0625,35.0,1,1.0,0.26359999999988304
208,3,0.2,0.125,35.0,1,1.0,0.7076999999999316
209,3,0.2,0.125,35.0,1,1.0,0.6201999999999543
210,3,0.2,0.0,35.0,-1,0.0,1.1415999999999258
211,3,0.2,0.0625,35.0,1,1.0,0.3210999999998876
212,3,0.2,0.25,35.0,1,1.0,0.37369999999998527
213,3,0.2,0.0625,35.0,1,1.0,0.6367000000000189
214,3,0.2,1.0,35.0,1,1.0,0.61850000000004
