trial_num,session_num,stim_probability_left,contrast,position,response_choice,trial_correct,reaction_time
1,1,0.5,0.125,-35.0,-1,1.0,0.6528999999999996
2,1,0.5,0.0,-35.0,-1,1.0,0.5356000000000005
3,1,0.5,1.0,-35.0,-1,1.0,0.2798000000000016
4,1,0.5,0.0625,-35.0,-1,1.0,0.9578000000000007
5,1,0.5,0.125,-35.0,-1,1.0,0.3005000000000013
6,1,0.5,0.0,35.0,-1,0.0,1.150100000000002
7,1,0.5,0.0,35.0,-1,0.0,0.21449999999999747
8,1,0.5,0.25,35.0,1,1.0,0.26950000000000074
9,1,0.5,0.0625,-35.0,-1,1.0,0.8145999999999987
10,1,0.5,0.0625,-35.0,-1,1.0,1.532100000000007
11,1,0.5,1.0,35.0,1,1.0,0.35310000000000485
12,1,0.5,1.0,35.0,1,1.0,1.1861000000000033
13,1,0.5,0.0625,35.0,-1,0.0,0.2377000000000038
14,1,0.5,1.0,-35.0,-1,1.0,0.36360000000000525
15,1,0.5,0.25,35.0,1,1.0,0.19939999999999714
16,1,0.5,0.125,-35.0,-1,1.0,1.7057000000000002
17,1,0.5,0.125,-35.0,-1,1.0,0.4322000000000017
18,1,0.5,0.25,-35.0,-1,1.0,0.22690000000000055
19,1,0.5,1.0,-35.0,-1,1.0,0.360900000000008
20,1,0.5,0.25,-35.0,-1,1.0,0.3212000000000188
21,1,0.5,0.0625,-35.0,-1,1.0,1.714500000000001
22,1,0.5,0.125,-35.0,-1,1.0,0.22339999999999804
23,1,0.5,0.125,35.0,-1,0.0,2.1624999999999943
24,1,0.5,0.25,-35.0,-1,1.0,0.28460000000001173
25,1,0.5,0.0625,-35.0,1,0.0,0.7002000000000095
26,1,0.5,0.25,-35.0,-1,1.0,0.24729999999999563
27,1,0.5,0.0625,-35.0,1,0.0,0.3012999999999977
28,1,0.5,0.0625,-35.0,-1,1.0,0.20470000000000255
29,1,0.5,0.0,-35.0,-1,1.0,0.3745000000000118
30,1,0.5,1.0,-35.0,-1,1.0,3.5494999999999948
31,1,0.5,0.125,35.0,1,1.0,0.41150000000000375
32,1,0.5,0.125,-35.0,-1,1.0,1.3053000000000026
33,1,0.5,0.0625,-35.0,-1,1.0,0.44769999999999754
34,1,0.5,0.125,35.0,1,1.0,0.2109000000000094
35,1,0.5,0.0625,-35.0,-1,1.0,3.7609999999999957
36,1,0.5,0.125,35.0,1,1.0,0.23430000000000462
37,1,0.5,0.0625,35.0,1,1.0,0.48629999999999995
38,1,0.5,0.0625,-35.0,-1,1.0,1.4203000000000117
39,1,0.5,1.0,-35.0,-1,1.0,0.20420000000000016
40,1,0.5,0.0,35.0,-1,0.0,2.439399999999992
41,1,0.5,1.0,35.0,1,1.0,0.26039999999997576
42,1,0.5,0.125,35.0,-1,0.0,0.20149999999998158
43,1,0.5,0.0,-35.0,1,0.0,0.5176999999999907
44,1,0.5,1.0,-35.0,-1,1.0,0.19429999999996994
45,1,0.5,0.125,35.0,1,1.0,0.4650000000000034
46,1,0.5,1.0,-35.0,-1,1.0,0.18199999999998795
47,1,0.5,0.25,-35.0,-1,1.0,2.507800000000003
48,1,0.5,0.0,-35.0,-1,1.0,0.14779999999996107
49,1,0.5,1.0,35.0,1,1.0,0.19839999999999236
50,1,0.5,0.0,35.0,-1,0.0,0.20139999999997826
51,1,0.5,1.0,-35.0,-1,1.0,0.20849999999998658
52,1,0.5,0.25,-35.0,-1,1.0,0.22239999999996485
53,1,0.5,0.25,35.0,1,1.0,3.3114999999999952
54,1,0.5,0.0,-35.0,-1,1.0,0.2797999999999661
55,1,0.5,0.25,35.0,1,1.0,1.8187999999999818
56,1,0.5,1.0,35.0,1,1.0,1.4161000000000001
57,1,0.5,0.25,-35.0,-1,1.0,0.1998999999999853
58,1,0.5,1.0,35.0,1,1.0,0.37019999999998277
59,1,0.5,0.25,-35.0,-1,1.0,0.21059999999999945
60,1,0.5,0.0625,-35.0,-1,1.0,0.2705999999999733
61,1,0.5,0.125,35.0,1,1.0,2.210099999999983
62,1,0.5,1.0,-35.0,-1,1.0,0.18959999999998445
63,1,0.5,0.25,35.0,1,1.0,2.6117000000000132
64,1,0.5,0.125,35.0,-1,0.0,0.09909999999999286
65,1,0.5,0.25,35.0,1,1.0,0.448599999999999
66,1,0.5,0.25,35.0,1,1.0,0.4106999999999914
67,1,0.5,1.0,-35.0,-1,1.0,0.19880000000000564
68,1,0.5,0.125,-35.0,-1,1.0,0.9447999999999865
69,1,0.5,0.0625,35.0,1,1.0,0.511999999999972
70,1,0.5,1.0,35.0,1,1.0,0.23049999999997794
71,1,0.5,0.125,35.0,-1,0.0,1.7483000000000004
72,1,0.5,0.0625,-35.0,-1,1.0,0.18379999999999086
73,1,0.5,0.125,-35.0,-1,1.0,0.24090000000001055
74,1,0.5,0.0625,35.0,-1,0.0,0.9705999999999904
75,1,0.5,0.125,35.0,1,1.0,0.47949999999997317
76,1,0.5,0.25,35.0,1,1.0,0.2558999999999969
77,1,0.5,1.0,35.0,1,1.0,0.3529999999999802
78,1,0.5,0.0625,-35.0,-1,1.0,3.0816999999999553
79,1,0.5,0.0625,35.0,1,1.0,1.8666000000000054
80,1,0.5,1.0,-35.0,-1,1.0,0.233600000000024
81,1,0.5,0.0,-35.0,-1,1.0,0.23550000000000182
82,1,0.5,1.0,35.0,1,1.0,0.23860000000001946
83,1,0.5,0.0625,-35.0,-1,1.0,0.11360000000001946
84,1,0.5,1.0,35.0,1,1.0,2.674599999999998
85,1,0.5,0.25,35.0,1,1.0,0.6580000000000155
86,1,0.5,0.125,35.0,-1,0.0,0.4900000000000091
87,1,0.5,0.125,-35.0,-1,1.0,0.43259999999997945
88,1,0.5,1.0,35.0,1,1.0,0.20769999999998845
89,1,0.5,0.125,-35.0,-1,1.0,0.7721000000000231
90,1,0.5,0.125,35.0,1,1.0,0.28609999999997626
91,1,0.2,0.0625,35.0,-1,0.0,0.2616999999999621
92,1,0.2,0.125,35.0,1,1.0,0.23910000000000764
93,1,0.2,0.25,35.0,1,1.0,0.43319999999999936
94,1,0.2,0.0625,-35.0,-1,1.0,2.289299999999969
95,1,0.2,1.0,35.0,1,1.0,0.5509999999999877
96,1,0.2,1.0,35.0,1,1.0,0.22019999999997708
97,1,0.2,0.0625,35.0,-1,0.0,1.2230999999999312
98,1,0.2,0.125,35.0,1,1.0,0.4309000000000083
99,1,0.2,0.0625,35.0,-1,0.0,2.626100000000008
100,1,0.2,0.25,-35.0,-1,1.0,0.28419999999999845
101,1,0.2,1.0,-35.0,-1,1.0,0.6915000000000191
102,1,0.2,0.25,35.0,1,1.0,0.24869999999998527
103,1,0.2,0.25,35.0,1,1.0,0.25179999999994607
104,1,0.2,0.25,-35.0,-1,1.0,0.9315999999999462
105,1,0.2,0.0625,35.0,1,1.0,0.3269999999999982
106,1,0.2,0.125,35.0,1,1.0,1.4827999999999975
107,1,0.2,0.0625,35.0,1,1.0,0.38419999999996435
108,1,0.2,0.125,35.0,1,1.0,0.2630999999999517
109,1,0.2,1.0,35.0,1,1.0,0.25130000000001473
110,1,0.2,0.25,35.0,1,1.0,1.829999999999984
111,1,0.2,0.0,35.0,-1,0.0,2.0581999999999994
112,1,0.2,0.0625,35.0,1,1.0,0.22169999999999845
113,1,0.2,0.125,35.0,1,1.0,0.3170000000000073
114,1,0.2,1.0,35.0,1,1.0,0.2290999999999599
115,1,0.8,0.0625,-35.0,-1,1.0,0.3417999999999779
116,1,0.8,0.0625,-35.0,-1,1.0,0.8158999999999992
117,1,0.8,0.25,-35.0,-1,1.0,2.1929999999999836
118,1,0.8,0.25,-35.0,-1,1.0,0.2218000000000302
119,1,0.8,0.125,35.0,1,1.0,1.759999999999991
120,1,0.8,0.125,-35.0,-1,1.0,0.54039999999992
121,1,0.8,0.125,-35.0,-1,1.0,0.23829999999998108
122,1,0.8,1.0,35.0,1,1.0,0.41579999999993333
123,1,0.8,0.0,-35.0,1,0.0,1.294300000000021
124,1,0.8,0.0625,35.0,1,1.0,0.41039999999998145
125,1,0.8,0.0625,-35.0,1,0.0,1.9513999999999783
126,1,0.8,1.0,-35.0,-1,1.0,0.24249999999994998
127,1,0.8,0.25,-35.0,-1,1.0,0.5490999999999531
128,1,0.8,0.25,-35.0,-1,1.0,0.20889999999997144
129,1,0.8,0.125,-35.0,-1,1.0,0.15690000000000737
130,1,0.8,0.125,-35.0,-1,1.0,1.4270999999999958
131,1,0.8,0.125,-35.0,-1,1.0,0.4763999999999555
132,1,0.8,0.0,-35.0,-1,1.0,0.41559999999998354
133,1,0.8,0.125,-35.0,-1,1.0,0.2418999999999869
134,1,0.8,0.25,35.0,1,1.0,0.22539999999997917
135,1,0.8,1.0,35.0,1,1.0,0.3480999999999881
136,1,0.8,0.25,35.0,1,1.0,1.9559999999999604
137,1,0.8,0.25,-35.0,-1,1.0,0.29009999999999536
138,1,0.8,0.0625,-35.0,-1,1.0,0.20130000000000337
139,1,0.8,1.0,-35.0,-1,1.0,0.22309999999993124
140,1,0.8,1.0,-35.0,-1,1.0,1.4903999999999655
141,1,0.8,0.25,-35.0,-1,1.0,0.44429999999999836
142,1,0.8,1.0,-35.0,-1,1.0,1.0783999999999878
143,1,0.8,1.0,-35.0,-1,1.0,0.25619999999997844
144,1,0.8,0.125,-35.0,-1,1.0,0.26729999999997744
145,1,0.8,0.125,35.0,1,1.0,1.3743000000000052
146,1,0.8,0.0,35.0,-1,0.0,2.1906000000000176
147,1,0.8,1.0,35.0,1,1.0,0.19999999999998863
148,1,0.8,0.125,-35.0,-1,1.0,0.06799999999998363
149,1,0.8,0.25,-35.0,-1,1.0,4.053699999999992
150,1,0.8,0.25,-35.0,-1,1.0,0.233099999999979
151,1,0.8,1.0,-35.0,-1,1.0,0.4685000000000059
152,1,0.8,0.125,-35.0,-1,1.0,0.341199999999958
153,1,0.8,0.125,-35.0,-1,1.0,0.2839999999999918
154,1,0.8,1.0,35.0,1,1.0,0.5610999999999535
155,1,0.8,0.125,-35.0,-1,1.0,1.1710999999999672
156,1,0.8,0.125,-35.0,-1,1.0,1.2030000000000314
157,1,0.8,0.0625,-35.0,-1,1.0,0.4100999999999999
158,1,0.8,0.125,35.0,-1,0.0,0.5047999999999888
159,1,0.8,0.125,35.0,1,1.0,0.22449999999997772
160,1,0.8,1.0,-35.0,-1,1.0,0.22249999999996817
161,1,0.8,1.0,-35.0,-1,1.0,1.7842999999999734
162,1,0.8,1.0,-35.0,-1,1.0,0.48339999999996053
163,1,0.8,1.0,-35.0,-1,1.0,0.48369999999994207
164,1,0.2,0.0625,35.0,1,1.0,0.5294999999999845
165,1,0.2,1.0,35.0,-1,0.0,0.057100000000104956
166,1,0.2,0.0625,35.0,1,1.0,0.27899999999999636
167,1,0.2,0.0625,35.0,-1,0.0,1.5243000000000393
168,1,0.2,1.0,-35.0,-1,1.0,0.19249999999988177
169,1,0.2,0.0,-35.0,-1,1.0,2.019300000000044
170,1,0.2,0.0625,35.0,1,1.0,0.6953999999999496
171,1,0.2,0.0625,35.0,1,1.0,2.6994000000000824
172,1,0.2,1.0,35.0,1,1.0,1.2231999999999061
173,1,0.2,0.0625,35.0,1,1.0,0.5208999999999833
174,1,0.2,0.125,35.0,1,1.0,0.3322000000000571
175,1,0.2,0.0625,35.0,1,1.0,0.8353000000000748
176,1,0.2,0.25,35.0,1,1.0,0.3731999999999971
177,1,0.2,0.125,35.0,1,1.0,0.3714999999999691
178,1,0.2,0.25,35.0,1,1.0,0.3106000000000222
179,1,0.2,0.25,35.0,1,1.0,0.20720000000005712
180,1,0.2,0.0625,35.0,1,1.0,0.27499999999997726
181,1,0.2,0.25,35.0,1,1.0,0.22419999999999618
182,1,0.2,0.0,35.0,1,1.0,3.6263999999999896
183,1,0.2,0.0,35.0,1,1.0,0.2300000000000182
184,1,0.2,0.25,35.0,1,1.0,0.2623999999999569
185,1,0.2,0.125,-35.0,-1,1.0,0.2234000000000833
186,1,0.2,1.0,35.0,1,1.0,2.8385999999999285
187,1,0.2,0.25,35.0,1,1.0,0.37639999999998963
188,1,0.2,0.25,35.0,1,1.0,0.3021999999999707
189,1,0.2,0.0625,35.0,1,1.0,0.36549999999999727
190,1,0.2,0.125,35.0,1,1.0,0.2716000000000349
191,1,0.2,0.0625,35.0,1,1.0,0.25499999999999545
192,1,0.2,0.125,35.0,1,1.0,0.20129999999983283
193,1,0.2,0.0,35.0,1,1.0,0.20730000000003201
194,1,0.2,0.125,-35.0,-1,1.0,2.1615000000000464
195,1,0.2,0.0625,-35.0,1,0.0,0.18479999999999563
196,1,0.2,0.0625,-35.0,1,0.0,0.22239999999999327
197,1,0.2,0.25,35.0,1,1.0,0.28129999999998745
198,1,0.8,1.0,-35.0,-1,1.0,0.17429999999990287
199,1,0.8,0.0625,-35.0,-1,1.0,1.07650000000001
200,1,0.8,0.0625,-35.0,-1,1.0,0.42469999999991614
201,1,0.8,0.125,-35.0,-1,1.0,0.17629999999996926
202,1,0.8,1.0,-35.0,-1,1.0,0.26400000000001
203,1,0.8,0.25,-35.0,-1,1.0,0.22720000000003893
204,1,0.8,1.0,35.0,1,1.0,0.391399999999976
205,1,0.8,0.0,-35.0,-1,1.0,1.2426000000000386
206,1,0.8,0.25,-35.0,-1,1.0,0.08399999999994634
207,1,0.8,0.0625,-35.0,-1,1.0,0.9896999999999707
208,1,0.8,0.25,35.0,1,1.0,0.3667000000000371
209,1,0.8,0.125,35.0,1,1.0,0.28740000000004784
210,1,0.8,1.0,35.0,1,1.0,0.24739999999997053
211,1,0.8,0.0625,-35.0,-1,1.0,2.0692999999998847
212,1,0.8,0.0,35.0,-1,0.0,1.1342999999999392
213,1,0.8,0.125,-35.0,-1,1.0,0.26299999999991996
214,1,0.8,0.0625,-35.0,1,0.0,0.2595999999999776
215,1,0.8,0.0625,-35.0,-1,1.0,0.43060000000002674
216,1,0.8,0.25,-35.0,-1,1.0,0.2481999999999971
217,1,0.8,1.0,35.0,1,1.0,0.24040000000002237
218,1,0.8,0.125,-35.0,-1,1.0,0.25480000000004566
219,1,0.8,0.0,35.0,-1,0.0,1.9243999999999915
220,1,0.8,0.125,-35.0,-1,1.0,0.27700000000004366
221,1,0.8,0.125,-35.0,1,0.0,0.25919999999996435
222,1,0.8,0.125,-35.0,-1,1.0,0.23889999999994416
223,1,0.8,0.125,-35.0,-1,1.0,0.21519999999998163
224,1,0.2,0.0625,35.0,1,1.0,2.977700000000027
225,1,0.2,0.0,-35.0,1,0.0,0.7304000000000315
226,1,0.2,1.0,-35.0,-1,1.0,0.19739999999990232
227,1,0.2,1.0,35.0,1,1.0,0.21489999999994325
228,1,0.2,0.0,35.0,1,1.0,0.3088999999999942
229,1,0.2,0.0625,35.0,-1,0.0,1.981899999999996
230,1,0.2,1.0,35.0,1,1.0,0.19539999999994961
231,1,0.2,0.0625,35.0,1,1.0,2.9616999999999507
232,1,0.2,0.0625,35.0,-1,0.0,0.2420000000000755
233,1,0.2,1.0,35.0,1,1.0,0.19259999999997035
234,1,0.2,0.125,35.0,1,1.0,3.135599999999954
235,1,0.2,0.125,35.0,1,1.0,0.2358000000000402
236,1,0.2,0.0625,35.0,1,1.0,2.038400000000024
237,1,0.2,0.125,35.0,1,1.0,1.6710000000000491
238,1,0.2,0.25,35.0,1,1.0,0.2418999999999869
239,1,0.2,0.25,35.0,1,1.0,0.219600000000014
240,1,0.2,0.125,35.0,1,1.0,0.2726999999999862
241,1,0.2,0.0625,-35.0,-1,1.0,0.4136999999999489
242,1,0.2,0.0625,-35.0,-1,1.0,0.44079999999996744
243,1,0.2,0.0,35.0,1,1.0,1.593499999999949
244,1,0.2,0.125,35.0,1,1.0,0.39850000000001273
245,1,0.2,0.25,-35.0,-1,1.0,0.23689999999999145
246,1,0.2,1.0,35.0,1,1.0,0.18870000000003984
247,1,0.2,0.0625,35.0,1,1.0,0.541599999999903
248,1,0.2,0.0625,35.0,1,1.0,1.6719000000000506
249,1,0.2,0.0,35.0,1,1.0,0.2726999999999862
250,1,0.2,0.25,-35.0,-1,1.0,0.28909999999996217
251,1,0.2,0.125,35.0,1,1.0,0.2639000000000351
252,1,0.2,0.25,35.0,1,1.0,0.2637999999999465
253,1,0.2,0.25,35.0,1,1.0,2.313099999999963
254,1,0.2,0.25,-35.0,-1,1.0,0.3573000000000093
255,1,0.2,1.0,35.0,1,1.0,0.22230000000001837
256,1,0.2,0.0625,-35.0,-1,1.0,0.35360000000002856
257,1,0.2,0.25,35.0,1,1.0,0.4816000000000713
258,1,0.2,1.0,-35.0,-1,1.0,0.5389000000000124
259,1,0.2,0.25,35.0,1,1.0,0.859700000000089
260,1,0.2,1.0,-35.0,-1,1.0,0.5249000000000024
261,1,0.2,0.125,35.0,1,1.0,0.20880000000011023
262,1,0.2,0.0625,35.0,1,1.0,2.1517000000000053
263,1,0.2,0.125,-35.0,-1,1.0,0.6928000000000338
264,1,0.2,0.25,35.0,1,1.0,0.26579999999989923
265,1,0.2,0.25,35.0,1,1.0,0.13969999999994798
266,1,0.2,0.125,35.0,1,1.0,1.213100000000054
267,1,0.2,1.0,-35.0,-1,1.0,0.8452000000000908
268,1,0.2,0.125,35.0,1,1.0,0.2299000000000433
269,1,0.2,0.25,35.0,1,1.0,0.14380000000005566
270,1,0.2,0.125,35.0,1,1.0,0.3813000000000102
271,1,0.2,0.25,-35.0,-1,1.0,0.2803000000000111
272,1,0.2,0.0625,35.0,1,1.0,0.19880000000000564
273,1,0.2,0.0625,35.0,1,1.0,0.2654000000001133
274,1,0.2,0.125,-35.0,-1,1.0,0.5127999999999702
275,1,0.2,0.0625,35.0,1,1.0,2.7198999999999387
276,1,0.2,0.0625,35.0,1,1.0,0.27290000000004966
277,1,0.8,0.0,-35.0,-1,1.0,2.880999999999972
278,1,0.8,0.0625,-35.0,-1,1.0,0.34579999999994016
279,1,0.8,0.25,-35.0,-1,1.0,0.06889999999998508
280,1,0.8,0.125,35.0,1,1.0,0.44249999999999545
281,1,0.8,0.25,-35.0,-1,1.0,0.2178000000000111
282,1,0.8,0.0,-35.0,-1,1.0,2.040899999999965
283,1,0.8,0.0625,-35.0,-1,1.0,0.3248999999999569
284,1,0.8,0.25,-35.0,-1,1.0,1.6393000000000484
285,1,0.8,0.0625,35.0,1,1.0,1.9249999999999545
286,1,0.8,0.0,-35.0,-1,1.0,0.25
287,1,0.8,0.125,-35.0,-1,1.0,0.6201999999999543
288,1,0.8,0.125,-35.0,-1,1.0,0.3653000000000475
289,1,0.8,1.0,-35.0,-1,1.0,0.22899999999992815
290,1,0.8,0.25,-35.0,-1,1.0,0.522899999999936
291,1,0.8,0.25,-35.0,-1,1.0,4.002499999999941
292,1,0.8,0.125,-35.0,-1,1.0,0.2783999999999196
293,1,0.8,0.25,-35.0,-1,1.0,0.610300000000052
294,1,0.8,0.0625,-35.0,-1,1.0,0.48289999999997235
295,1,0.8,0.0625,-35.0,-1,1.0,0.44700000000000273
296,1,0.8,0.0625,-35.0,-1,1.0,0.3201000000000249
297,1,0.8,0.0625,-35.0,-1,1.0,0.4008999999999787
298,1,0.8,0.0625,-35.0,-1,1.0,0.45289999999999964
299,1,0.8,0.0625,35.0,1,1.0,1.30499999999995
300,1,0.8,1.0,-35.0,-1,1.0,0.20029999999997017
301,1,0.8,1.0,35.0,1,1.0,0.19290000000000873
302,1,0.8,0.125,-35.0,-1,1.0,0.22890000000006694
303,1,0.8,0.0625,-35.0,-1,1.0,0.1692000000000462
304,1,0.8,0.125,-35.0,-1,1.0,3.144900000000007
305,1,0.8,0.125,-35.0,-1,1.0,0.4819999999999709
306,1,0.8,0.125,-35.0,-1,1.0,0.25300000000004275
307,1,0.8,1.0,35.0,1,1.0,0.2420000000000755
308,1,0.8,0.125,-35.0,-1,1.0,0.5196999999999434
309,1,0.8,0.0,-35.0,1,0.0,1.9138000000000375
310,1,0.8,0.125,-35.0,-1,1.0,0.21550000000002
311,1,0.8,0.25,-35.0,-1,1.0,0.35989999999992506
312,1,0.8,1.0,-35.0,-1,1.0,0.21039999999993597
313,1,0.8,0.0625,-35.0,-1,1.0,0.44849999999996726
314,1,0.8,0.0625,35.0,-1,0.0,2.0507999999998674
315,1,0.8,1.0,-35.0,-1,1.0,0.19820000000004256
316,1,0.8,0.25,35.0,1,1.0,0.2779000000000451
317,1,0.8,0.125,-35.0,-1,1.0,0.22029999999995198
318,1,0.8,0.25,-35.0,-1,1.0,0.2140999999999167
319,1,0.8,1.0,-35.0,-1,1.0,0.24230000000000018
320,1,0.8,0.125,35.0,1,1.0,1.4670999999998457
321,1,0.8,0.25,-35.0,-1,1.0,0.3139000000001033
322,1,0.8,1.0,-35.0,-1,1.0,0.41229999999995925
323,1,0.8,0.0625,-35.0,-1,1.0,2.734199999999987
324,1,0.8,0.0625,-35.0,-1,1.0,0.48310000000003583
325,1,0.8,0.25,35.0,1,1.0,0.23730000000000473
326,1,0.8,0.125,-35.0,-1,1.0,0.22569999999984702
327,1,0.8,0.25,35.0,1,1.0,0.7464999999999691
328,1,0.8,0.25,-35.0,-1,1.0,0.719600000000014
329,1,0.8,0.0625,-35.0,-1,1.0,1.5834999999999582
330,1,0.8,0.25,-35.0,-1,1.0,0.66050000000007
331,1,0.8,0.25,-35.0,-1,1.0,1.6340999999999894
332,1,0.8,0.0625,-35.0,-1,1.0,0.3140000000000782
333,1,0.2,0.25,-35.0,-1,1.0,2.8940999999999804
334,1,0.2,0.25,35.0,1,1.0,0.27119999999990796
335,1,0.2,0.125,35.0,1,1.0,1.2178999999998723
336,1,0.2,0.0,35.0,-1,0.0,0.19119999999998072
337,1,0.2,0.25,35.0,-1,0.0,0.16150000000016007
338,1,0.2,1.0,35.0,1,1.0,0.28520000000003165
339,1,0.2,0.0625,35.0,1,1.0,0.22840000000019245
340,1,0.2,0.25,35.0,1,1.0,0.271900000000187
341,1,0.2,0.0,-35.0,-1,1.0,0.3885000000002492
342,1,0.2,0.0625,35.0,1,1.0,0.29920000000015534
343,1,0.2,1.0,35.0,1,1.0,0.27220000000033906
344,1,0.2,1.0,-35.0,-1,1.0,0.7655000000002019
345,1,0.2,0.125,35.0,1,1.0,0.3426999999999225
346,1,0.2,1.0,35.0,1,1.0,0.7061999999998534
347,1,0.2,0.0,35.0,1,1.0,0.24620000000004438
348,1,0.2,1.0,35.0,1,1.0,0.19620000000008986
349,1,0.2,0.25,-35.0,-1,1.0,0.28930000000013933
350,1,0.2,1.0,35.0,1,1.0,0.47649999999998727
351,1,0.2,0.25,-35.0,-1,1.0,0.6397000000001754
352,1,0.2,0.0625,35.0,1,1.0,0.08999999999991815
353,1,0.2,0.125,35.0,1,1.0,0.39980000000014115
354,1,0.2,0.0625,35.0,-1,0.0,0.26350000000002183
355,1,0.2,0.25,35.0,1,1.0,0.27670000000011896
356,1,0.2,0.0625,35.0,1,1.0,2.3768000000002303
357,1,0.2,0.25,35.0,1,1.0,1.6170000000001892
358,1,0.2,1.0,35.0,1,1.0,0.2536000000000058
359,1,0.2,1.0,35.0,1,1.0,0.21730000000002292
360,1,0.2,0.25,35.0,1,1.0,1.1473000000000866
361,1,0.2,0.0625,35.0,1,1.0,0.25080000000002656
362,1,0.2,0.125,35.0,1,1.0,0.3974000000000615
363,1,0.2,1.0,35.0,1,1.0,0.27080000000023574
364,1,0.2,0.125,-35.0,-1,1.0,0.1974999999999909
365,1,0.2,0.0625,35.0,1,1.0,0.4109000000000833
366,1,0.8,0.125,-35.0,-1,1.0,1.1815000000003693
367,1,0.8,0.0625,-35.0,-1,1.0,0.9545000000002801
368,1,0.8,0.125,35.0,1,1.0,0.22440000000005966
369,1,0.8,0.125,-35.0,-1,1.0,0.3014000000002852
370,1,0.8,1.0,-35.0,-1,1.0,2.071500000000242
371,1,0.8,0.0,35.0,-1,0.0,1.021600000000035
372,1,0.8,1.0,-35.0,-1,1.0,0.17540000000030886
373,1,0.8,0.0625,35.0,1,1.0,0.41859999999996944
374,1,0.8,0.25,-35.0,-1,1.0,0.19180000000028485
375,1,0.8,0.0625,-35.0,-1,1.0,0.5985000000002856
376,1,0.8,1.0,35.0,1,1.0,0.24200000000018917
377,1,0.8,1.0,-35.0,-1,1.0,1.082300000000032
378,1,0.8,1.0,35.0,1,1.0,0.20900000000006003
379,1,0.8,0.0625,-35.0,-1,1.0,0.7524000000000797
380,1,0.8,1.0,35.0,1,1.0,0.16570000000001528
381,1,0.8,0.125,-35.0,-1,1.0,0.2394000000001597
382,1,0.8,0.0,-35.0,-1,1.0,0.2294000000001688
383,1,0.8,0.0,-35.0,-1,1.0,2.1830999999999676
384,1,0.8,0.25,-35.0,-1,1.0,0.28340000000002874
385,1,0.8,0.0,-35.0,-1,1.0,0.3363999999999123
386,1,0.8,0.0625,-35.0,-1,1.0,1.4731000000001586
387,1,0.8,0.125,-35.0,-1,1.0,0.3035000000002128
388,1,0.8,0.125,-35.0,-1,1.0,0.18000000000006366
389,1,0.8,0.0625,35.0,1,1.0,0.2437000000002172
390,1,0.8,1.0,-35.0,-1,1.0,0.2403999999999087
391,1,0.8,0.0,35.0,1,1.0,0.08390000000008513
392,1,0.8,0.25,-35.0,1,0.0,0.08429999999998472
393,1,0.8,0.25,35.0,1,1.0,0.21749999999997272
394,1,0.8,0.25,35.0,1,1.0,0.4010000000000673
395,1,0.8,0.125,-35.0,-1,1.0,0.2175000000002001
396,1,0.8,1.0,-35.0,-1,1.0,0.34750000000008185
397,1,0.8,1.0,-35.0,-1,1.0,0.07450000000017099
398,1,0.8,0.0,-35.0,-1,1.0,1.06450000000018
399,1,0.8,0.25,-35.0,-1,1.0,0.38769999999999527
400,1,0.8,0.25,-35.0,-1,1.0,0.2615000000000691
401,1,0.8,0.0625,-35.0,1,0.0,1.2945000000001983
402,1,0.8,0.0625,-35.0,1,0.0,0.4749000000001615
403,1,0.8,0.0625,-35.0,-1,1.0,0.2986000000000786
404,1,0.8,0.25,-35.0,-1,1.0,0.5084999999999127
405,1,0.8,0.125,-35.0,-1,1.0,2.498600000000124
406,1,0.8,0.125,-35.0,-1,1.0,2.031900000000178
407,1,0.8,1.0,-35.0,-1,1.0,0.2756000000001677
408,1,0.8,0.0,35.0,-1,0.0,0.5388000000000375
409,1,0.8,0.125,35.0,1,1.0,0.2656000000001768
410,1,0.8,0.0,-35.0,1,0.0,0.20580000000018117
411,1,0.8,0.25,35.0,1,1.0,0.20590000000015607
412,1,0.8,1.0,-35.0,-1,1.0,0.37980000000015934
413,1,0.8,1.0,-35.0,-1,1.0,0.18280000000004293
414,1,0.8,0.125,-35.0,-1,1.0,0.18270000000006803
415,1,0.8,0.125,35.0,1,1.0,0.24669999999991887
416,1,0.8,0.25,-35.0,-1,1.0,0.32300000000009277
417,1,0.8,0.125,-35.0,-1,1.0,0.5064000000002125
418,1,0.8,0.125,35.0,1,1.0,0.24660000000017135
419,1,0.8,0.0625,-35.0,-1,1.0,3.356700000000046
420,1,0.8,1.0,35.0,1,1.0,0.23070000000006985
421,1,0.8,0.125,-35.0,-1,1.0,0.7137000000000171
422,1,0.8,1.0,-35.0,-1,1.0,0.23710000000005493
423,1,0.8,0.0625,-35.0,-1,1.0,0.1937000000000353
424,1,0.8,0.0625,-35.0,-1,1.0,0.6305999999999585
425,1,0.8,0.125,-35.0,-1,1.0,2.9873999999999796
426,1,0.8,1.0,35.0,1,1.0,0.20400000000017826
427,1,0.2,0.25,35.0,1,1.0,0.33750000000009095
428,1,0.2,1.0,35.0,1,1.0,0.1510000000000673
429,1,0.2,1.0,35.0,1,1.0,0.23800000000028376
430,1,0.2,0.125,35.0,1,1.0,0.3180999999999585
431,1,0.2,0.0625,35.0,1,1.0,0.6677000000001954
432,1,0.2,0.0,35.0,-1,0.0,3.518700000000308
433,1,0.2,1.0,-35.0,-1,1.0,0.2617999999999938
434,1,0.2,0.25,-35.0,-1,1.0,0.25490000000013424
435,1,0.2,0.125,35.0,1,1.0,0.22490000000016153
436,1,0.2,1.0,35.0,1,1.0,0.19820000000004256
437,1,0.2,1.0,35.0,1,1.0,0.8988000000001648
438,1,0.2,1.0,35.0,1,1.0,2.925100000000157
439,1,0.2,0.125,-35.0,-1,1.0,0.6790000000000873
440,1,0.2,0.0,35.0,-1,0.0,0.23230000000012296
441,1,0.2,0.125,35.0,1,1.0,0.21250000000009095
442,1,0.2,0.0,35.0,-1,0.0,0.6927000000000589
443,1,0.2,0.25,35.0,1,1.0,0.2661000000000513
444,1,0.2,0.0625,35.0,1,1.0,0.3762000000001535
445,1,0.2,0.0625,35.0,1,1.0,0.47650000000021464
446,1,0.2,0.0625,35.0,-1,0.0,0.4499000000000706
447,1,0.2,0.125,-35.0,-1,1.0,0.2233000000001084
448,1,0.2,1.0,35.0,1,1.0,0.2234000000000833
449,1,0.2,0.125,35.0,1,1.0,2.5902000000000953
450,1,0.2,0.0,35.0,-1,0.0,1.6003000000000611
451,1,0.2,0.0625,35.0,1,1.0,0.5072999999999865
452,1,0.2,0.0625,35.0,-1,0.0,0.2139999999999418
453,1,0.2,0.25,35.0,1,1.0,0.24739999999997053
454,1,0.2,0.0625,35.0,1,1.0,0.4475000000002183
455,1,0.2,1.0,35.0,1,1.0,0.27089999999998327
456,1,0.2,0.0625,35.0,1,1.0,1.1176000000000386
457,1,0.2,1.0,35.0,1,1.0,0.20109999999999673
458,1,0.2,0.0625,35.0,1,1.0,0.32120000000008986
459,1,0.2,0.0625,35.0,1,1.0,1.7648000000001502
460,1,0.2,0.0625,-35.0,-1,1.0,0.6815000000001419
461,1,0.2,0.25,35.0,1,1.0,0.27490000000011605
462,1,0.2,0.125,-35.0,-1,1.0,0.23500000000012733
463,1,0.2,0.25,35.0,1,1.0,0.2519000000002052
464,1,0.2,0.25,-35.0,-1,1.0,0.895200000000159
465,1,0.2,0.125,35.0,1,1.0,1.3419000000001233
466,1,0.2,0.25,-35.0,-1,1.0,0.22530000000006112
467,1,0.2,0.0625,35.0,1,1.0,0.32890000000020336
468,1,0.2,1.0,35.0,1,1.0,4.108900000000176
469,1,0.2,0.125,35.0,1,1.0,0.3690000000001419
470,1,0.2,1.0,35.0,1,1.0,0.47910000000001673
471,1,0.2,0.125,35.0,1,1.0,0.27930000000014843
472,1,0.2,0.25,35.0,1,1.0,0.2860000000000582
473,1,0.2,0.25,35.0,1,1.0,1.6894000000002052
474,1,0.2,0.125,35.0,1,1.0,0.26620000000025357
475,1,0.2,1.0,35.0,1,1.0,0.4130000000000109
476,1,0.8,0.25,-35.0,-1,1.0,0.269800000000032
477,1,0.8,0.25,-35.0,-1,1.0,0.08320000000003347
478,1,0.8,0.0,-35.0,1,0.0,0.5499999999999545
479,1,0.8,0.25,-35.0,-1,1.0,0.2035000000000764
480,1,0.8,0.25,-35.0,-1,1.0,0.23700000000008004
481,1,0.8,0.125,-35.0,-1,1.0,0.28369999999995343
482,1,0.8,0.0625,-35.0,-1,1.0,0.3572999999998956
483,1,0.8,1.0,-35.0,-1,1.0,0.45400000000017826
484,1,0.8,1.0,-35.0,-1,1.0,0.23410000000012587
485,1,0.8,0.125,35.0,1,1.0,1.61420000000021
486,1,0.8,0.0625,-35.0,-1,1.0,0.344300000000203
487,1,0.8,0.125,-35.0,-1,1.0,0.7479000000000724
488,1,0.8,0.25,-35.0,-1,1.0,0.2878000000000611
489,1,0.8,1.0,-35.0,-1,1.0,0.26119999999991705
490,1,0.8,1.0,-35.0,-1,1.0,0.29140000000006694
491,1,0.8,0.0625,-35.0,-1,1.0,0.3548000000000684
492,1,0.8,0.0625,-35.0,-1,1.0,0.3083000000001448
493,1,0.8,0.0625,-35.0,-1,1.0,0.2317000000000462
494,1,0.8,0.0,-35.0,-1,1.0,2.4218000000000757
495,1,0.8,1.0,-35.0,-1,1.0,0.22210000000018226
496,1,0.8,1.0,-35.0,-1,1.0,0.21540000000027248
497,1,0.8,1.0,-35.0,-1,1.0,0.042200000000093496
498,1,0.8,0.0625,-35.0,-1,1.0,1.8822000000000116
499,1,0.8,0.0625,-35.0,-1,1.0,0.48890000000005784
500,1,0.8,0.0,-35.0,-1,1.0,0.3725000000001728
501,1,0.8,0.25,-35.0,-1,1.0,0.21920000000000073
502,1,0.8,0.25,-35.0,-1,1.0,0.3091999999999189
503,1,0.8,0.0,-35.0,-1,1.0,0.44620000000031723
504,1,0.8,0.0625,-35.0,-1,1.0,0.572800000000143
505,1,0.8,0.0,-35.0,-1,1.0,1.6195999999999913
506,1,0.8,0.125,-35.0,-1,1.0,1.0164000000002034
507,1,0.8,0.0,35.0,-1,0.0,1.306400000000167
508,1,0.8,0.125,-35.0,-1,1.0,0.9231999999999516
509,1,0.8,0.25,-35.0,-1,1.0,0.6533000000001721
510,1,0.8,1.0,-35.0,-1,1.0,0.18020000000001346
511,1,0.2,0.0625,35.0,-1,0.0,0.4336000000000695
512,1,0.2,0.25,-35.0,-1,1.0,0.21720000000004802
513,1,0.2,0.25,35.0,1,1.0,0.7971999999999753
514,1,0.2,0.125,-35.0,-1,1.0,0.2674000000001797
515,1,0.2,0.0625,35.0,1,1.0,0.2842000000000553
516,1,0.2,0.0625,35.0,1,1.0,0.29740000000015243
517,1,0.2,0.125,35.0,1,1.0,0.347700000000259
518,1,0.2,1.0,35.0,1,1.0,0.2544000000000324
519,1,0.2,0.0,35.0,1,1.0,0.30780000000004293
520,1,0.2,0.25,35.0,1,1.0,0.5978999999999814
521,1,0.2,0.125,-35.0,-1,1.0,3.538000000000011
522,1,0.2,0.0,35.0,-1,0.0,0.34490000000027976
523,1,0.2,0.0625,35.0,1,1.0,0.30160000000000764
524,1,0.2,0.0625,35.0,1,1.0,0.7018000000000484
525,1,0.2,0.0,35.0,1,1.0,0.345299999999952
526,1,0.2,0.125,35.0,1,1.0,0.2187000000003536
527,1,0.2,0.125,35.0,1,1.0,0.7488000000003012
528,1,0.2,0.0625,35.0,1,1.0,0.5454999999999472
529,1,0.2,0.0625,35.0,1,1.0,0.2924000000000433
530,1,0.2,0.125,35.0,1,1.0,0.24240000000008877
531,1,0.2,1.0,35.0,1,1.0,0.9525000000001
532,1,0.2,0.0625,35.0,1,1.0,0.3693000000000666
533,1,0.2,0.25,35.0,1,1.0,0.6593000000002576
534,1,0.2,1.0,35.0,1,1.0,0.21280000000024302
535,1,0.2,0.125,35.0,1,1.0,1.0295000000000982
536,1,0.2,0.25,35.0,1,1.0,0.2763999999999669
537,1,0.2,0.125,-35.0,-1,1.0,0.35970000000020264
538,1,0.2,1.0,35.0,1,1.0,0.5131000000003496
539,1,0.2,0.0,35.0,-1,0.0,0.8265000000001237
540,1,0.2,0.25,35.0,1,1.0,0.20000000000004547
541,1,0.8,0.0,-35.0,1,0.0,1.8299999999999272
542,1,0.8,0.0625,-35.0,-1,1.0,0.3735999999998967
543,1,0.8,0.0,-35.0,1,0.0,0.45699999999987995
544,1,0.8,0.125,-35.0,-1,1.0,0.19050000000015643
545,1,0.8,0.125,-35.0,-1,1.0,0.8240000000000691
546,1,0.8,0.125,-35.0,-1,1.0,0.874000000000251
547,1,0.8,0.0625,-35.0,-1,1.0,0.3141000000000531
548,1,0.8,0.0625,35.0,-1,0.0,0.25090000000022883
549,1,0.8,0.125,-35.0,-1,1.0,0.16440000000011423
550,1,0.8,0.125,-35.0,-1,1.0,0.3644000000001597
551,1,0.8,0.0,-35.0,1,0.0,1.844400000000178
552,1,0.8,0.0625,-35.0,-1,1.0,0.2615000000000691
553,1,0.8,0.25,-35.0,-1,1.0,0.24490000000014334
554,1,0.8,0.0,-35.0,-1,1.0,1.611699999999928
555,1,0.8,0.0625,-35.0,-1,1.0,0.41530000000034306
556,1,0.8,0.125,-35.0,-1,1.0,0.19190000000003238
557,1,0.8,0.0,35.0,-1,0.0,2.8353000000001884
558,1,0.8,0.0625,35.0,1,1.0,0.2622000000001208
559,1,0.8,0.125,-35.0,-1,1.0,1.8056000000001404
560,1,0.8,0.0625,-35.0,-1,1.0,0.5690000000001874
561,1,0.8,0.25,-35.0,-1,1.0,0.23250000000007276
562,1,0.8,0.125,-35.0,-1,1.0,0.22250000000008185
563,1,0.8,0.25,-35.0,-1,1.0,0.2258999999999105
564,1,0.8,1.0,-35.0,-1,1.0,3.0394000000001142
565,1,0.8,0.25,-35.0,-1,1.0,0.2562000000000353
566,1,0.8,1.0,-35.0,-1,1.0,0.2697000000000571
567,1,0.8,0.0,-35.0,-1,1.0,1.6130000000000564
568,1,0.8,0.0,-35.0,-1,1.0,0.9132000000001881
569,1,0.8,0.0,-35.0,-1,1.0,0.2533000000000811
570,1,0.8,0.25,-35.0,-1,1.0,0.2235000000000582
571,1,0.8,0.0625,-35.0,-1,1.0,0.3170000000000073
572,1,0.8,1.0,-35.0,-1,1.0,0.23019999999996799
573,1,0.8,0.0625,-35.0,-1,1.0,0.4370000000001255
574,1,0.8,0.25,-35.0,-1,1.0,0.2437000000002172
575,1,0.8,0.125,-35.0,-1,1.0,2.6039000000002943
576,1,0.8,0.25,-35.0,-1,1.0,0.26060000000029504
577,1,0.8,1.0,35.0,1,1.0,0.7507000000000517
578,1,0.8,1.0,-35.0,-1,1.0,0.26089999999999236
579,1,0.8,0.0625,-35.0,-1,1.0,1.2842000000000553
580,1,0.8,1.0,-35.0,-1,1.0,0.20450000000005275
581,1,0.8,0.25,-35.0,-1,1.0,0.25470000000018445
582,1,0.8,1.0,-35.0,-1,1.0,0.2115000000001146
583,1,0.8,0.25,-35.0,-1,1.0,0.2680000000002565
584,1,0.8,0.0625,-35.0,-1,1.0,0.39160000000015316
585,1,0.8,0.125,-35.0,-1,1.0,0.6217000000001462
586,1,0.8,0.25,-35.0,-1,1.0,1.074999999999818
587,1,0.8,0.0625,35.0,1,1.0,0.6652000000001408
588,1,0.8,0.0,-35.0,-1,1.0,0.3251000000000204
589,1,0.8,1.0,-35.0,-1,1.0,0.2119000000000142
590,1,0.8,0.0625,-35.0,-1,1.0,2.3653999999999087
591,1,0.8,0.0625,-35.0,-1,1.0,1.1455000000000837
592,1,0.8,0.0625,-35.0,-1,1.0,0.24909999999999854
593,1,0.8,0.25,35.0,1,1.0,0.36599999999998545
594,1,0.8,0.25,-35.0,-1,1.0,0.2258999999999105
595,1,0.8,0.0,-35.0,-1,1.0,0.23270000000002256
596,1,0.8,0.0625,-35.0,-1,1.0,0.27280000000018845
597,1,0.8,0.0,-35.0,-1,1.0,0.3627999999998792
598,1,0.8,1.0,-35.0,-1,1.0,0.21630000000027394
599,1,0.2,0.25,35.0,1,1.0,2.7730000000001382
600,1,0.2,0.25,35.0,1,1.0,2.2265000000002146
601,1,0.2,0.0625,35.0,1,1.0,0.4568000000001575
602,1,0.2,0.0625,35.0,-1,0.0,0.13679999999999382
603,1,0.2,1.0,35.0,1,1.0,0.18020000000024083
604,1,0.2,1.0,35.0,-1,0.0,0.0804000000000542
605,1,0.2,0.0,35.0,1,1.0,0.24050000000011096
606,1,0.2,0.125,35.0,1,1.0,0.22050000000012915
607,1,0.2,1.0,35.0,1,1.0,0.23720000000002983
608,1,0.2,0.0,-35.0,1,0.0,3.9006000000001677
609,1,0.2,0.0,35.0,-1,0.0,1.3810000000000855
610,1,0.2,0.125,35.0,1,1.0,0.24780000000032487
611,1,0.2,0.125,35.0,1,1.0,0.3045000000001892
612,1,0.2,0.25,35.0,1,1.0,1.7513000000003558
613,1,0.2,0.25,35.0,1,1.0,0.21820000000025175
614,1,0.2,0.0,35.0,-1,0.0,1.288200000000188
615,1,0.2,0.0625,35.0,1,1.0,0.2752000000002681
616,1,0.2,0.125,35.0,1,1.0,0.25530000000003383
617,1,0.2,0.25,-35.0,-1,1.0,0.22540000000003602
618,1,0.2,0.25,35.0,1,1.0,0.46890000000007603
619,1,0.2,0.0625,35.0,-1,0.0,1.3022000000000844
620,1,0.2,0.125,35.0,1,1.0,0.5424000000002707
621,1,0.2,0.125,35.0,1,1.0,1.98920000000021
622,1,0.2,0.25,35.0,1,1.0,0.25260000000002947
623,1,0.2,0.0625,35.0,1,1.0,0.29939999999987776
624,1,0.2,0.0625,-35.0,-1,1.0,0.3260999999999967
625,1,0.2,0.125,35.0,1,1.0,0.31290000000035434
626,1,0.2,0.125,-35.0,-1,1.0,0.5696000000000367
627,1,0.2,0.25,-35.0,-1,1.0,0.25300000000015643
628,1,0.2,1.0,35.0,1,1.0,0.27320000000008804
629,1,0.2,0.0625,-35.0,-1,1.0,0.28310000000010405
630,1,0.2,0.0625,35.0,1,1.0,0.2898999999999887
631,1,0.2,0.125,-35.0,-1,1.0,0.32339999999999236
632,1,0.2,0.0625,35.0,1,1.0,3.116800000000012
633,1,0.2,0.125,35.0,1,1.0,0.2936000000001968
634,1,0.2,0.125,35.0,1,1.0,0.5036999999999807
635,1,0.2,0.125,35.0,1,1.0,3.287100000000237
636,1,0.2,0.0625,35.0,1,1.0,1.5507000000000062
637,1,0.2,0.0625,35.0,1,1.0,0.23090000000001965
638,1,0.2,0.0625,35.0,-1,0.0,0.21100000000001273
639,1,0.2,0.25,35.0,1,1.0,0.2744999999999891
640,1,0.2,0.0,-35.0,-1,1.0,1.3111999999998716
641,1,0.2,0.0,35.0,-1,0.0,0.28120000000012624
642,1,0.2,0.125,-35.0,-1,1.0,0.3413999999997941
643,1,0.2,0.25,35.0,1,1.0,0.268100000000004
644,1,0.2,0.25,-35.0,-1,1.0,1.5549000000000888
645,1,0.2,0.25,-35.0,-1,1.0,0.19830000000001746
646,1,0.2,0.25,35.0,1,1.0,0.43840000000000146
647,1,0.2,1.0,-35.0,-1,1.0,0.22520000000008622
648,1,0.2,1.0,35.0,1,1.0,0.3119000000001506
649,1,0.8,0.0,-35.0,1,0.0,0.3087000000000444
650,1,0.8,0.125,-35.0,-1,1.0,0.8121000000001004
651,1,0.8,0.125,-35.0,-1,1.0,0.26880099999993945
652,1,0.8,0.25,35.0,1,1.0,0.22230100000001585
653,1,0.8,1.0,-35.0,-1,1.0,0.2257009999998445
654,1,0.8,0.0625,-35.0,-1,1.0,0.5624010000001363
655,1,0.8,0.0625,35.0,1,1.0,0.47580100000004677
656,1,0.8,1.0,-35.0,-1,1.0,4.002500999999938
657,1,0.8,1.0,-35.0,-1,1.0,0.319501000000173
658,1,0.8,0.25,35.0,1,1.0,0.24290100000007442
659,1,0.8,0.25,-35.0,-1,1.0,4.44310100000007
660,1,0.8,0.0625,35.0,1,1.0,0.32660100000020975
661,1,0.8,0.0625,35.0,1,1.0,1.706601000000319
662,1,0.8,0.0625,-35.0,-1,1.0,0.7301010000003316
663,1,0.8,0.125,-35.0,-1,1.0,0.12680100000011407
664,1,0.8,0.0625,35.0,1,1.0,0.8805010000003222
665,1,0.8,1.0,-35.0,-1,1.0,0.19050100000004022
666,1,0.8,0.0,35.0,-1,0.0,2.103800999999976
667,1,0.8,0.125,-35.0,-1,1.0,0.24070099999994454
668,1,0.8,0.0625,-35.0,-1,1.0,0.2674010000002909
669,1,0.8,0.125,-35.0,-1,1.0,0.28080100000011043
670,1,0.8,1.0,-35.0,-1,1.0,0.1809009999999489
671,1,0.8,0.0625,-35.0,-1,1.0,0.7444009999999253
672,1,0.8,0.0625,-35.0,-1,1.0,0.92770100000007
673,1,0.8,0.125,-35.0,-1,1.0,0.20130100000005768
674,1,0.8,0.125,-35.0,-1,1.0,0.3345010000000457
675,1,0.8,0.0,-35.0,-1,1.0,0.36460100000022067
676,1,0.8,0.25,-35.0,-1,1.0,0.23820100000034472
677,1,0.8,0.0625,35.0,1,1.0,0.27830100000005586
678,1,0.8,1.0,-35.0,-1,1.0,0.23510099999998602
679,1,0.8,1.0,-35.0,-1,1.0,0.6719009999999344
680,1,0.8,0.0,-35.0,-1,1.0,2.2219010000001163
681,1,0.8,0.0,35.0,-1,0.0,0.4888010000004215
682,1,0.8,0.25,-35.0,-1,1.0,0.25560100000029706
683,1,0.8,0.0625,35.0,1,1.0,2.052400999999918
684,1,0.8,0.25,-35.0,-1,1.0,0.2593010000000504
685,1,0.8,1.0,-35.0,-1,1.0,0.19600100000025122
686,1,0.8,0.125,-35.0,-1,1.0,0.23600100000021484
687,1,0.8,0.125,-35.0,-1,1.0,0.5862010000000737
688,1,0.8,0.25,-35.0,-1,1.0,0.26290100000005623
689,1,0.8,0.0625,-35.0,-1,1.0,0.3763010000002396
690,1,0.8,0.0,-35.0,-1,1.0,1.2564009999996415
691,1,0.8,0.0625,-35.0,-1,1.0,0.6565010000003895
692,1,0.8,0.25,-35.0,-1,1.0,0.5334010000001399
693,1,0.8,0.125,-35.0,-1,1.0,0.22680099999979575
694,1,0.8,0.25,-35.0,-1,1.0,0.21350100000017846
695,1,0.8,1.0,35.0,1,1.0,0.2569010000001981
696,1,0.8,1.0,35.0,1,1.0,0.30370099999981903
697,1,0.8,1.0,-35.0,-1,1.0,0.36040100000036546
698,1,0.8,0.0,35.0,-1,0.0,0.7906010000001515
699,1,0.8,0.0,-35.0,-1,1.0,0.25400100000024395
700,1,0.8,0.25,-35.0,-1,1.0,0.2474010000000817
701,1,0.8,0.0625,-35.0,-1,1.0,0.17080099999975573
702,1,0.8,0.125,-35.0,-1,1.0,0.257600999999795
703,1,0.8,0.125,-35.0,-1,1.0,0.29760099999975864
704,1,0.8,0.0,35.0,-1,0.0,4.231101000000308
705,1,0.8,1.0,35.0,1,1.0,0.25800100000014936
706,1,0.8,0.125,-35.0,-1,1.0,0.2514009999999871
707,1,0.8,0.125,-35.0,-1,1.0,0.5114009999997506
708,1,0.8,0.0625,35.0,1,1.0,0.32490099999995437
709,1,0.8,0.125,-35.0,-1,1.0,0.2583009999998467
710,1,0.8,0.0625,-35.0,-1,1.0,0.2917010000001028
711,1,0.8,1.0,-35.0,-1,1.0,0.18180100000017774
712,1,0.8,0.0,35.0,-1,0.0,0.428501000000324
713,1,0.8,1.0,-35.0,-1,1.0,0.19540100000040184
714,1,0.2,0.0,35.0,-1,0.0,0.2421009999998205
715,1,0.2,0.125,35.0,1,1.0,0.28550099999984013
716,1,0.2,1.0,35.0,1,1.0,0.2156009999998787
717,1,0.2,1.0,35.0,1,1.0,3.9090009999999893
718,1,0.2,1.0,35.0,1,1.0,0.2692010000000664
719,1,0.2,1.0,-35.0,-1,1.0,0.20930100000032326
720,1,0.2,0.125,35.0,1,1.0,0.5161010000001625
721,1,0.2,1.0,35.0,1,1.0,2.2362010000001646
722,1,0.2,0.125,-35.0,-1,1.0,1.1396010000003116
723,1,0.2,1.0,-35.0,-1,1.0,0.21320100000048114
724,1,0.2,0.0,35.0,-1,0.0,1.2366010000000642
725,1,0.2,0.125,35.0,1,1.0,0.35670100000015736
726,1,0.2,1.0,35.0,1,1.0,0.550101000000268
727,1,0.2,1.0,35.0,1,1.0,2.0169010000004164
728,1,0.2,0.0,35.0,-1,0.0,1.8436009999995804
729,1,0.2,0.0625,35.0,1,1.0,0.047101000000111526
730,1,0.2,0.125,35.0,1,1.0,0.267301000000316
731,1,0.2,0.25,35.0,1,1.0,0.47410100000024613
732,1,0.2,0.125,35.0,1,1.0,2.2008010000004106
733,1,0.2,0.0625,35.0,1,1.0,0.40100100000017846
734,1,0.2,1.0,35.0,1,1.0,0.29110099999979866
735,1,0.2,0.125,35.0,1,1.0,0.2478009999999813
736,1,0.2,1.0,35.0,1,1.0,0.1979009999995469
737,1,0.2,0.0,35.0,1,1.0,0.4114009999998416
738,1,0.2,0.25,35.0,1,1.0,1.4214009999996051
739,1,0.2,0.0625,-35.0,-1,1.0,2.084900999999718
740,1,0.2,0.0625,35.0,1,1.0,0.3716010000002825
741,1,0.2,0.125,35.0,1,1.0,0.21510100000023158
742,1,0.2,0.0625,35.0,1,1.0,0.5552010000001246
743,1,0.2,1.0,35.0,1,1.0,0.2653009999999085
744,1,0.2,1.0,35.0,1,1.0,1.5954009999995833
745,1,0.2,0.25,-35.0,-1,1.0,0.40220099999987724
746,1,0.2,0.125,35.0,1,1.0,0.22890099999995073
747,1,0.2,0.0625,35.0,-1,0.0,1.3090010000000802
748,1,0.2,1.0,35.0,1,1.0,0.21920100000033926
749,1,0.2,1.0,35.0,1,1.0,2.2460009999999784
750,1,0.2,0.25,35.0,1,1.0,0.3461010000000897
751,1,0.2,0.25,35.0,1,1.0,0.3362010000000737
752,1,0.2,0.25,35.0,1,1.0,0.18970100000024104
753,1,0.2,0.125,35.0,1,1.0,0.3164010000000417
754,1,0.2,0.0,35.0,-1,0.0,0.47660099999984595
755,1,0.2,0.25,35.0,1,1.0,0.3301010000000133
756,1,0.8,0.0625,35.0,1,1.0,0.3502000000003136
757,1,0.8,0.0,-35.0,-1,1.0,0.38690100000030725
758,1,0.8,0.0,-35.0,-1,1.0,0.2669010000004164
759,1,0.8,1.0,-35.0,-1,1.0,0.4970010000001821
760,1,0.8,0.0625,-35.0,-1,1.0,1.3771010000000388
761,1,0.8,0.0,-35.0,1,0.0,0.2340009999998074
762,1,0.8,1.0,35.0,1,1.0,0.1840009999996255
763,1,0.8,0.25,35.0,1,1.0,0.28750099999979284
764,1,0.8,1.0,-35.0,-1,1.0,3.9309010000001763
765,1,0.8,0.25,-35.0,-1,1.0,0.20110100000056264
766,1,0.8,0.125,-35.0,-1,1.0,0.3645010000000184
767,1,0.8,0.125,-35.0,-1,1.0,0.23140100000046004
768,1,0.8,0.125,-35.0,-1,1.0,1.3513010000001486
769,1,0.8,0.25,-35.0,-1,1.0,0.3115010000001348
770,1,0.8,0.0625,-35.0,-1,1.0,1.4015009999998256
771,1,0.8,1.0,-35.0,-1,1.0,0.39170100000001185
772,1,0.8,0.0,-35.0,-1,1.0,0.27850100000023303
773,1,0.8,1.0,-35.0,-1,1.0,0.18850100000008752
774,1,0.8,1.0,-35.0,-1,1.0,0.22200100000009115
775,1,0.8,0.125,-35.0,-1,1.0,0.8820009999999456
776,1,0.8,0.0625,-35.0,-1,1.0,2.4289010000002236
777,1,0.8,0.0,-35.0,-1,1.0,1.325601000000006
778,1,0.8,0.25,35.0,1,1.0,0.26590100000021266
779,1,0.8,0.25,-35.0,-1,1.0,2.019300999999814
780,1,0.8,0.0,-35.0,1,0.0,0.3661010000000715
781,1,0.8,0.0625,-35.0,-1,1.0,0.2595010000000002
782,1,0.8,0.25,35.0,1,1.0,0.23630099999991216
783,1,0.8,1.0,-35.0,-1,1.0,0.20640099999991435
784,1,0.8,0.0625,-35.0,-1,1.0,0.2665009999996073
785,1,0.8,0.0,-35.0,-1,1.0,0.2132010000000264
786,1,0.8,0.0625,-35.0,-1,1.0,0.6066009999999551
787,1,0.8,1.0,-35.0,-1,1.0,0.22010099999988597
788,1,0.8,0.25,-35.0,-1,1.0,0.2169010000002345
789,1,0.8,0.0625,-35.0,-1,1.0,0.30690100000038
790,1,0.8,1.0,-35.0,-1,1.0,0.23700099999996382
791,1,0.8,1.0,-35.0,-1,1.0,0.31710100000009334
792,1,0.8,0.125,-35.0,-1,1.0,0.3240009999999529
793,1,0.2,0.125,-35.0,-1,1.0,1.1440009999996619
794,1,0.2,1.0,-35.0,-1,1.0,0.2408010000003742
795,1,0.2,0.0625,35.0,1,1.0,1.070901000000049
796,1,0.2,0.25,35.0,1,1.0,0.25430099999994127
797,1,0.2,1.0,-35.0,-1,1.0,0.2710010000000693
798,1,0.2,0.0625,-35.0,-1,1.0,0.31780099999969025
799,1,0.2,0.0625,35.0,1,1.0,0.20450099999970917
800,1,0.2,0.0625,35.0,1,1.0,0.2913010000002032
801,1,0.2,0.25,35.0,1,1.0,6.3047010000004775
802,1,0.2,1.0,35.0,1,1.0,0.3416010000000824
803,1,0.2,0.25,35.0,1,1.0,0.4450010000000475
804,1,0.2,0.25,35.0,1,1.0,0.28510099999994054
805,1,0.2,0.125,35.0,1,1.0,-0.034698999999818625
806,1,0.2,0.0625,35.0,1,1.0,0.2687010000004193
807,1,0.2,0.25,-35.0,-1,1.0,0.21210100000007515
808,1,0.2,0.25,35.0,1,1.0,0.2756010000002789
809,1,0.2,0.0625,-35.0,1,0.0,0.33900100000028033
810,1,0.2,0.0625,35.0,1,1.0,0.29240100000015445
811,1,0.2,1.0,-35.0,-1,1.0,1.2124009999997725
812,1,0.2,0.125,35.0,1,1.0,1.3659010000001217
813,1,0.2,0.125,35.0,1,1.0,0.3361009999998714
814,1,0.2,0.0625,35.0,1,1.0,0.8028009999998176
815,1,0.2,0.0,35.0,1,1.0,0.2895010000002003
816,1,0.2,0.0625,-35.0,1,0.0,4.043001000000004
817,1,0.2,0.25,-35.0,-1,1.0,0.22980099999995218
818,1,0.2,0.0625,35.0,1,1.0,0.27660100000002785
819,1,0.2,0.0,35.0,1,1.0,3.300101000000268
820,1,0.2,0.25,35.0,1,1.0,0.21370100000012826
821,1,0.2,1.0,35.0,1,1.0,1.97720100000015
822,1,0.2,1.0,35.0,1,1.0,1.0406010000001515
823,1,0.2,0.25,35.0,1,1.0,0.22070100000064485
824,1,0.2,0.0,35.0,1,1.0,2.3041010000001734
825,1,0.2,0.125,35.0,1,1.0,0.2577009999999973
826,1,0.2,0.0,35.0,1,1.0,0.901100999999926
827,1,0.2,0.25,-35.0,-1,1.0,2.7078010000000177
828,1,0.2,0.25,35.0,1,1.0,0.2714009999999689
829,1,0.2,0.0625,35.0,1,1.0,1.894701000000623
830,1,0.2,0.125,35.0,1,1.0,0.34150099999988015
831,1,0.2,0.125,35.0,1,1.0,0.3283010000000104
832,1,0.2,1.0,35.0,1,1.0,0.20850100000006933
833,1,0.2,0.0625,35.0,1,1.0,0.7853010000003451
834,1,0.2,0.0625,35.0,1,1.0,0.33870100000012826
835,1,0.2,0.0,-35.0,1,0.0,0.9788010000002032
836,1,0.2,0.25,-35.0,-1,1.0,0.22230100000024322
837,1,0.2,0.25,35.0,1,1.0,0.2556009999998423
838,1,0.2,0.25,35.0,1,1.0,0.30900100000008024
839,1,0.2,0.125,35.0,1,1.0,0.302400999999918
840,1,0.2,0.125,-35.0,-1,1.0,0.2692010000000664
841,1,0.2,1.0,35.0,1,1.0,0.286000999999942
842,1,0.2,1.0,35.0,1,1.0,1.2828009999998358
843,1,0.2,1.0,35.0,1,1.0,0.6195010000001275
844,1,0.2,0.125,35.0,1,1.0,0.4928010000003269
845,1,0.2,1.0,35.0,1,1.0,0.3762010000000373
846,1,0.2,0.25,-35.0,-1,1.0,0.523001000000022
847,1,0.2,0.25,35.0,1,1.0,0.249800999999934
848,1,0.8,0.25,-35.0,-1,1.0,0.2565010000002985
849,1,0.8,1.0,-35.0,-1,1.0,1.9866010000000642
850,1,0.8,1.0,-35.0,-1,1.0,0.223500999999942
851,1,0.8,0.0,-35.0,-1,1.0,0.3835010000002512
852,1,0.8,1.0,-35.0,-1,1.0,0.17030100000010862
853,1,0.8,0.125,35.0,1,1.0,0.23700099999996382
854,1,0.8,1.0,-35.0,-1,1.0,0.21050100000002203
855,1,0.8,0.0,-35.0,-1,1.0,6.1073010000004615
856,1,0.8,0.25,-35.0,-1,1.0,0.9175010000003567
857,1,0.8,0.0,-35.0,-1,1.0,0.3677009999996699
858,1,0.8,0.0,-35.0,1,0.0,0.9643010000004324
859,1,0.8,0.0,-35.0,-1,1.0,0.26790100000016537
860,1,0.8,0.125,-35.0,-1,1.0,0.45800099999996746
861,1,0.8,0.0625,-35.0,-1,1.0,0.30470100000002276
862,1,0.8,0.0625,35.0,1,1.0,1.7948010000000068
863,1,0.8,1.0,-35.0,-1,1.0,0.47160100000019156
864,1,0.8,0.0625,-35.0,-1,1.0,0.3418010000000322
865,1,0.8,1.0,-35.0,-1,1.0,0.2152009999999791
866,1,0.8,0.0,-35.0,-1,1.0,1.0019010000005437
867,1,0.8,1.0,-35.0,-1,1.0,0.245401000000129
868,1,0.8,0.25,-35.0,-1,1.0,0.22210100000029342
869,1,0.8,0.0,-35.0,-1,1.0,2.518901000000369
870,1,0.8,0.125,35.0,1,1.0,0.41910100000040984
871,1,0.8,0.0625,-35.0,-1,1.0,0.2557010000000446
872,1,0.8,1.0,-35.0,-1,1.0,0.642500999999811
873,1,0.8,0.25,-35.0,-1,1.0,0.8994010000001254
874,1,0.8,0.25,-35.0,-1,1.0,1.2562009999996917
875,1,0.8,0.0,35.0,-1,0.0,0.38950100000010934
876,1,0.8,0.0,35.0,-1,0.0,0.18310100000007878
877,1,0.8,0.25,35.0,1,1.0,0.22650100000055318
878,1,0.8,1.0,-35.0,-1,1.0,0.19000099999993836
879,1,0.8,0.0625,-35.0,-1,1.0,2.3200010000005022
880,1,0.8,1.0,-35.0,-1,1.0,0.23020100000030652
881,1,0.8,0.125,-35.0,-1,1.0,0.31050100000038583
882,1,0.8,0.0,-35.0,-1,1.0,0.48380100000031234
883,1,0.8,0.125,-35.0,-1,1.0,0.5071010000001479
884,1,0.8,0.25,35.0,1,1.0,0.9105010000002949
885,1,0.8,0.25,35.0,1,1.0,0.3539010000004055
886,1,0.8,0.125,-35.0,-1,1.0,0.2240010000004986
887,1,0.8,0.0,-35.0,-1,1.0,2.9140010000000984
888,1,0.8,0.0625,-35.0,-1,1.0,0.30430100000012317
889,1,0.8,1.0,-35.0,-1,1.0,0.19780100000025413
890,1,0.8,0.0625,-35.0,-1,1.0,0.2478009999999813
891,1,0.8,0.0,-35.0,-1,1.0,0.5745010000000548
892,1,0.8,0.25,-35.0,-1,1.0,0.8079010000005837
893,1,0.8,1.0,-35.0,-1,1.0,0.6947009999998954
894,1,0.8,0.25,-35.0,-1,1.0,0.30820100000028106
895,1,0.8,0.0625,35.0,1,1.0,0.2783009999998285
896,1,0.8,1.0,-35.0,-1,1.0,0.2250010000002476
897,1,0.8,0.125,-35.0,-1,1.0,0.3185009999997419
898,1,0.8,0.125,-35.0,1,0.0,0.37190099999997983
899,1,0.8,0.125,-35.0,-1,1.0,0.22880100000065795
900,1,0.8,1.0,-35.0,-1,1.0,0.4721010000002934
901,1,0.8,1.0,-35.0,-1,1.0,1.472201000000041
902,1,0.8,0.25,-35.0,-1,1.0,1.0391010000003007
903,1,0.8,0.25,35.0,1,1.0,0.39580100000011953
904,1,0.8,1.0,-35.0,-1,1.0,0.2259009999997943
905,1,0.8,0.25,-35.0,-1,1.0,0.2494010000000344
906,1,0.8,0.0625,35.0,-1,0.0,0.5761010000001079
907,1,0.8,0.0,35.0,1,1.0,0.3462009999998372
908,1,0.8,0.25,-35.0,-1,1.0,0.26630100000011225
909,1,0.8,0.25,35.0,1,1.0,0.579700999999659
910,1,0.2,1.0,-35.0,-1,1.0,0.7365010000003167
911,1,0.2,1.0,35.0,1,1.0,2.3632010000001173
912,1,0.2,1.0,35.0,1,1.0,0.4667010000002847
913,1,0.2,1.0,35.0,1,1.0,0.636801000000105
914,1,0.2,0.25,35.0,1,1.0,0.2903009999999995
915,1,0.2,0.25,35.0,1,1.0,0.5337009999998372
916,1,0.2,0.0625,35.0,1,1.0,0.28710099999989325
917,1,0.2,0.25,-35.0,-1,1.0,0.24040100000001985
918,1,0.2,0.125,35.0,1,1.0,0.4539010000003145
919,1,0.2,0.25,-35.0,-1,1.0,0.21730100000013408
920,1,0.2,0.0625,35.0,1,1.0,1.294100999999955
921,1,0.2,0.25,35.0,1,1.0,0.8141009999999369
922,1,0.2,0.125,35.0,1,1.0,0.23440100000016173
923,1,0.2,0.125,35.0,1,1.0,0.2644010000003618
924,1,0.2,0.125,35.0,1,1.0,1.5178010000004178
925,1,0.2,0.125,35.0,1,1.0,0.05460099999982049
926,1,0.2,0.125,35.0,1,1.0,0.46130100000027596
927,1,0.2,0.0625,35.0,1,1.0,0.271701000000121
928,1,0.2,1.0,35.0,1,1.0,0.28850099999999657
929,1,0.2,0.25,35.0,1,1.0,0.45860099999981685
930,1,0.2,0.25,-35.0,-1,1.0,0.21530099999972663
931,1,0.2,1.0,35.0,1,1.0,0.23860100000047169
932,1,0.2,0.25,35.0,1,1.0,0.35870100000011007
933,1,0.2,1.0,35.0,1,1.0,2.0255010000000766
934,1,0.2,0.25,35.0,1,1.0,0.44230100000004313
935,1,0.2,0.25,35.0,1,1.0,0.3490010000004986
936,1,0.2,0.0,35.0,1,1.0,0.32920100000001185
937,1,0.2,0.125,35.0,1,1.0,0.3825010000000475
938,1,0.2,0.0625,35.0,1,1.0,0.35930099999995946
939,1,0.2,1.0,35.0,1,1.0,0.3960010000000693
940,1,0.2,1.0,35.0,1,1.0,0.21610099999998056
941,1,0.2,0.25,35.0,1,1.0,1.1262010000000373
942,1,0.2,0.0625,35.0,1,1.0,0.2329010000003109
943,1,0.2,0.25,35.0,1,1.0,0.30640100000027815
944,1,0.2,0.125,35.0,1,1.0,5.183301000000029
945,1,0.2,0.125,35.0,1,1.0,0.22000100000013845
946,1,0.2,0.0625,35.0,1,1.0,0.17020099999990634
947,1,0.2,0.125,35.0,1,1.0,0.20020100000010643
948,1,0.2,0.25,35.0,1,1.0,0.23380100000031234
949,1,0.2,0.125,35.0,1,1.0,0.2572010000003502
950,1,0.2,1.0,-35.0,-1,1.0,0.43390099999987797
951,1,0.2,0.0,35.0,-1,0.0,2.920600999999806
952,1,0.2,1.0,35.0,1,1.0,0.2141009999995731
953,1,0.2,0.25,35.0,1,1.0,0.29750100000046587
954,1,0.2,1.0,-35.0,-1,1.0,0.2310010000001057
955,1,0.2,0.125,35.0,1,1.0,1.2345009999999093
956,1,0.2,0.25,35.0,1,1.0,0.8111010000002352
957,1,0.2,0.0625,-35.0,-1,1.0,0.218000999999731
958,1,0.2,0.0,35.0,-1,0.0,0.9114010000002963
959,1,0.2,1.0,35.0,1,1.0,0.21150100000022576
960,1,0.2,0.25,35.0,1,1.0,0.33500099999992017
961,1,0.2,0.125,-35.0,-1,1.0,0.3150010000003931
962,1,0.2,0.0625,35.0,1,1.0,0.39190099999996164
963,1,0.2,0.125,35.0,1,1.0,0.27520099999992453
964,1,0.2,0.125,-35.0,-1,1.0,0.26870099999996455
965,1,0.2,1.0,35.0,1,1.0,0.4887010000002192
966,1,0.2,1.0,35.0,1,1.0,0.28550099999984013
967,1,0.2,0.25,35.0,1,1.0,0.24890100000038728
968,1,0.2,0.0625,35.0,1,1.0,0.5389009999998962
969,1,0.2,1.0,35.0,1,1.0,0.5225009999999202
970,1,0.2,0.125,35.0,1,1.0,0.3892009999999573
971,1,0.2,0.125,35.0,1,1.0,0.25920099999984814
972,1,0.2,0.125,35.0,1,1.0,0.27280100000007224
973,1,0.2,1.0,-35.0,-1,1.0,0.20940100000007078
974,1,0.2,0.25,-35.0,-1,1.0,0.2329010000003109
975,1,0.2,0.25,35.0,1,1.0,0.2730009999995673
976,1,0.2,0.0625,35.0,-1,0.0,0.35650100000020757
977,1,0.2,0.25,35.0,1,1.0,0.20670100000006641
978,1,0.2,0.125,35.0,1,1.0,4.5632009999999354
979,1,0.2,1.0,35.0,1,1.0,0.5702009999999973
980,1,0.2,0.125,35.0,1,1.0,0.6904010000002927
981,1,0.2,1.0,35.0,1,1.0,0.19720099999995
982,1,0.8,0.125,-35.0,-1,1.0,0.2872010000000955
983,1,0.8,0.0,-35.0,-1,1.0,0.9340010000000802
984,1,0.8,1.0,-35.0,-1,1.0,0.2507010000003902
985,1,0.8,0.0,-35.0,-1,1.0,0.2575010000000475
986,1,0.8,0.125,35.0,1,1.0,0.5375010000002476
987,1,0.8,0.25,-35.0,-1,1.0,0.1909009999999398
988,1,0.8,0.0,-35.0,-1,1.0,1.4846010000001115
989,1,0.8,0.25,-35.0,-1,1.0,0.41460100000040256
990,1,0.8,0.25,-35.0,-1,1.0,0.23800100000016755
991,1,0.8,0.125,-35.0,-1,1.0,0.2415009999999711
992,1,0.8,1.0,35.0,1,1.0,0.27820100000008097
993,1,0.8,0.125,-35.0,-1,1.0,0.3051010000003771
994,1,0.8,1.0,35.0,1,1.0,0.26510099999995873
995,1,0.8,0.0625,-35.0,-1,1.0,0.3218010000000504
996,1,0.8,0.0625,-35.0,-1,1.0,1.101900999999998
997,1,0.8,0.0,-35.0,-1,1.0,0.2620010000000548
998,1,0.8,0.0,-35.0,-1,1.0,0.4788010000002032
999,1,0.8,0.0625,-35.0,-1,1.0,0.6355009999997492
1000,1,0.8,0.25,-35.0,-1,1.0,0.2424010000004273
1001,1,0.8,0.0,-35.0,-1,1.0,1.3892009999999573
1002,1,0.8,1.0,-35.0,-1,1.0,0.25250099999993836
1003,1,0.8,0.0,-35.0,-1,1.0,0.3092010000004848
1004,1,0.8,0.0625,-35.0,-1,1.0,2.2260009999999966
1005,1,0.8,0.125,-35.0,-1,1.0,0.7262009999999464
1006,1,0.8,0.25,-35.0,-1,1.0,0.23290099999985614
1007,1,0.8,0.25,-35.0,-1,1.0,0.26980100000037055
1008,1,0.8,0.0,-35.0,1,0.0,2.7000010000006114
1009,1,0.8,1.0,-35.0,-1,1.0,0.21350100000017846
1010,1,0.8,1.0,35.0,1,1.0,0.34720100000004095
1011,1,0.8,0.0625,35.0,-1,0.0,0.2604010000004564
1012,1,0.8,0.125,35.0,1,1.0,0.3604009999999107
1013,1,0.2,0.25,-35.0,-1,1.0,1.1738009999999122
1014,1,0.2,0.125,35.0,1,1.0,1.1273009999999886
1015,1,0.2,0.0625,35.0,1,1.0,0.5974009999999907
1016,1,0.2,0.0625,35.0,1,1.0,0.30750099999977465
1017,1,0.2,1.0,-35.0,-1,1.0,0.25090099999988524
1018,1,0.2,1.0,35.0,1,1.0,0.9576010000000679
1019,1,0.2,1.0,35.0,1,1.0,1.8910009999999602
1020,1,0.2,1.0,35.0,1,1.0,0.8445010000004913
1021,1,0.2,0.125,35.0,1,1.0,0.31470100000024104
1022,1,0.2,0.25,-35.0,-1,1.0,0.0781010000000606
1023,1,0.2,0.0625,35.0,1,1.0,0.3150010000003931
1024,1,0.2,0.0625,35.0,1,1.0,0.45160100000020975
1025,1,0.2,1.0,35.0,1,1.0,0.27170100000057573
1026,1,0.2,0.0625,-35.0,-1,1.0,0.2984010000004673
1027,1,0.2,0.125,35.0,1,1.0,0.27520000000004075
1028,1,0.2,1.0,35.0,1,1.0,4.198601000000053
1029,1,0.2,1.0,35.0,1,1.0,0.3389010000005328
1030,1,0.2,1.0,35.0,1,1.0,1.0689010000000962
1031,1,0.2,0.125,35.0,1,1.0,0.459201000000121
1032,1,0.2,0.125,35.0,1,1.0,1.2357010000000628
1033,1,0.2,1.0,35.0,1,1.0,0.22250100000019302
1034,1,0.2,0.25,35.0,1,1.0,0.2659009999997579
1035,1,0.2,0.0625,35.0,1,1.0,0.26610100000016246
1036,1,0.2,0.25,-35.0,-1,1.0,0.279500999999982
1037,1,0.2,0.25,35.0,1,1.0,0.9463010000004033
1038,1,0.2,0.0,-35.0,-1,1.0,2.5997010000000955
1039,1,0.2,0.25,35.0,1,1.0,0.27310100000067905
1040,1,0.8,0.25,-35.0,-1,1.0,0.01000099999964732
1041,1,0.8,0.125,35.0,1,1.0,0.3234010000001035
1042,1,0.8,1.0,-35.0,-1,1.0,0.2069010000000162
1043,1,0.8,0.25,-35.0,-1,1.0,0.2237009999998918
1044,1,0.8,1.0,-35.0,-1,1.0,0.23720099999991362
1045,1,0.8,0.0625,-35.0,1,0.0,1.223801000000094
1046,1,0.8,0.125,-35.0,-1,1.0,0.28730099999984304
1047,1,0.8,0.0,-35.0,-1,1.0,0.32740100000000893
1048,1,0.8,0.25,-35.0,-1,1.0,0.23090099999990343
1049,1,0.8,0.0625,-35.0,-1,1.0,0.25090100000034
1050,1,0.8,1.0,-35.0,-1,1.0,0.504301000000396
1051,1,0.8,0.0,35.0,-1,0.0,2.174500999999964
1052,1,0.8,0.0,-35.0,-1,1.0,0.31120099999998274
1053,1,0.8,0.0625,-35.0,-1,1.0,0.36130099999991216
1054,1,0.8,0.125,-35.0,-1,1.0,0.20810100000016973
1055,1,0.8,0.0,-35.0,1,0.0,2.7749009999997725
1056,1,0.8,0.125,-35.0,-1,1.0,0.26840100000026723
1057,1,0.8,0.25,35.0,1,1.0,0.3285009999999602
1058,1,0.8,0.0,-35.0,-1,1.0,1.8986009999998714
1059,1,0.8,0.125,35.0,1,1.0,0.4820009999998547
1060,1,0.8,0.25,-35.0,-1,1.0,0.2522009999997863
1061,1,0.8,1.0,-35.0,-1,1.0,0.42550100000016755
1062,1,0.8,0.0,-35.0,-1,1.0,3.372201000000132
1063,1,0.8,0.25,-35.0,-1,1.0,0.2559009999999944
1064,1,0.8,0.125,-35.0,-1,1.0,0.23920100000032107
1065,1,0.8,0.125,35.0,1,1.0,0.55270100000007
1066,1,0.8,0.125,-35.0,-1,1.0,0.3593010000004142
1067,1,0.8,0.25,-35.0,-1,1.0,0.4828010000001086
1068,1,0.8,1.0,-35.0,-1,1.0,0.22630099999969389
1069,1,0.8,0.125,-35.0,-1,1.0,3.5063010000003487
1070,1,0.8,0.0625,-35.0,-1,1.0,2.849801000000298
1071,1,0.8,0.25,-35.0,-1,1.0,0.3500010000002476
1072,1,0.8,0.125,-35.0,-1,1.0,0.22680099999979575
1073,1,0.8,0.0,-35.0,-1,1.0,0.6603010000003451
1074,1,0.8,0.25,-35.0,-1,1.0,0.2437009999998736
1075,1,0.8,1.0,-35.0,-1,1.0,0.2237009999998918
1076,1,0.8,0.0,-35.0,-1,1.0,0.6372010000004593
1077,1,0.8,0.25,-35.0,-1,1.0,0.24400100000002567
1078,1,0.8,0.125,-35.0,-1,1.0,0.27070099999991726
1079,1,0.8,0.25,35.0,1,1.0,0.427501000000575
1080,1,0.8,0.25,-35.0,-1,1.0,0.22430100000019593
1081,1,0.8,0.125,35.0,1,1.0,0.26790100000016537
1082,1,0.8,0.0,-35.0,-1,1.0,2.114600999999766
1083,1,0.8,0.125,-35.0,-1,1.0,0.2880009999998947
1084,1,0.8,1.0,-35.0,-1,1.0,0.4282010000001719
1085,1,0.8,1.0,-35.0,-1,1.0,0.28830100000004677
1086,1,0.8,0.25,-35.0,-1,1.0,0.10170100000004823
1087,1,0.8,0.0625,-35.0,-1,1.0,0.33840100000043094
1088,1,0.8,0.25,-35.0,-1,1.0,0.27870100000018283
1089,1,0.8,0.0625,35.0,1,1.0,0.6020009999997455
1090,1,0.8,0.0,-35.0,-1,1.0,1.7554010000003473
1091,1,0.8,0.25,-35.0,-1,1.0,0.3155010000000402
1092,1,0.8,0.25,-35.0,-1,1.0,0.24230100000022503
1093,1,0.8,1.0,-35.0,-1,1.0,0.2025010000002112
1094,1,0.8,0.0,-35.0,-1,1.0,0.7158010000002832
1095,1,0.2,0.0625,35.0,1,1.0,0.22980099999995218
1096,1,0.2,0.25,35.0,1,1.0,0.43300100000033126
1097,1,0.2,0.125,35.0,1,1.0,0.3265010000000075
1098,1,0.2,0.0625,35.0,-1,0.0,0.46650099999988015
1099,1,0.2,0.0625,35.0,1,1.0,0.19340099999999438
1100,1,0.2,0.125,35.0,1,1.0,0.27340100000037637
1101,1,0.2,1.0,35.0,1,1.0,0.2402010000005248
1102,1,0.2,0.125,35.0,1,1.0,0.2838010000000395
1103,1,0.2,0.125,35.0,1,1.0,0.34380100000043967
1104,1,0.2,0.0625,-35.0,-1,1.0,0.33710100000007515
1105,1,0.2,1.0,35.0,1,1.0,0.26050100000020393
1106,1,0.2,0.0625,35.0,1,1.0,0.2939010000000053
1107,1,0.2,0.125,-35.0,-1,1.0,0.3308010000005197
1108,1,0.2,0.0625,35.0,1,1.0,0.27740099999982704
1109,1,0.2,0.0625,35.0,1,1.0,0.854200999999648
1110,1,0.2,0.0625,35.0,1,1.0,0.7042010000004666
1111,1,0.2,0.125,-35.0,-1,1.0,0.741001000000324
1112,1,0.2,1.0,35.0,1,1.0,0.22780099999999948
1113,1,0.2,1.0,35.0,1,1.0,0.27790100000038365
1114,1,0.2,0.25,35.0,1,1.0,0.24490100000002712
1115,1,0.2,0.0625,35.0,1,1.0,0.2881010000005517
1116,1,0.2,0.0625,35.0,1,1.0,0.22810100000015154
1117,1,0.2,0.25,-35.0,-1,1.0,0.24830100000008315
1118,1,0.2,0.25,35.0,1,1.0,1.251901000000089
1119,1,0.2,1.0,35.0,1,1.0,0.45190099999990707
1120,1,0.2,0.125,35.0,1,1.0,1.2520009999998365
1121,1,0.2,0.125,35.0,1,1.0,0.9555010000003676
1122,1,0.2,0.25,35.0,1,1.0,1.7921010000000024
1123,1,0.2,0.0625,35.0,1,1.0,0.805800999999974
1124,1,0.2,0.0625,35.0,1,1.0,0.392301000000316
1125,1,0.2,1.0,35.0,1,1.0,0.24250000000029104
1126,1,0.2,0.0625,35.0,1,1.0,0.9293009999996684
1127,1,0.2,0.125,35.0,1,1.0,0.2360009999997601
1128,1,0.2,0.0625,35.0,1,1.0,0.30950100000063685
1129,1,0.2,0.0625,35.0,-1,0.0,0.31950099999994563
1130,1,0.2,0.125,35.0,1,1.0,0.25990100000035454
1131,1,0.2,0.0625,35.0,-1,0.0,3.6732010000000628
1132,1,0.2,0.0,35.0,1,1.0,0.30660100000022794
1133,1,0.2,0.0625,35.0,1,1.0,0.5135010000003604
1134,1,0.2,1.0,-35.0,-1,1.0,0.2437009999998736
1135,1,0.2,0.0625,35.0,1,1.0,2.140401000000111
1136,1,0.2,0.25,35.0,1,1.0,1.9572010000001683
1137,1,0.2,0.0,35.0,-1,0.0,0.2441009999997732
1138,1,0.2,1.0,35.0,1,1.0,0.19750099999964732
1139,1,0.2,0.25,35.0,1,1.0,0.2510010000000875
1140,1,0.2,1.0,35.0,1,1.0,0.26440099999990707
1141,1,0.2,0.25,35.0,1,1.0,0.34790100000054736
1142,1,0.2,0.25,-35.0,-1,1.0,0.29780099999970844
1143,1,0.2,0.0,35.0,1,1.0,0.2713010000002214
1144,1,0.2,0.25,35.0,1,1.0,1.4681009999999333
1145,1,0.2,1.0,-35.0,-1,1.0,0.2516009999999369
1146,1,0.2,0.25,35.0,1,1.0,1.501701000000594
1147,1,0.2,0.0625,35.0,1,1.0,0.4950010000002294
1148,1,0.2,1.0,35.0,1,1.0,0.2352009999999609
1149,1,0.2,0.0,35.0,1,1.0,1.4419010000001435
1150,1,0.2,0.25,35.0,1,1.0,2.378701000000092
1151,1,0.2,0.125,35.0,1,1.0,0.26550100000031307
1152,1,0.2,0.25,35.0,1,1.0,0.2656010000000606
1153,1,0.2,0.125,-35.0,-1,1.0,0.38560099999995145
1154,1,0.2,1.0,35.0,1,1.0,0.13910100000020975
1155,1,0.2,1.0,-35.0,-1,1.0,0.23580100000026505
1156,1,0.2,0.125,35.0,1,1.0,0.12260100000003149
1157,1,0.2,0.125,35.0,1,1.0,0.2194009999998343
1158,1,0.2,0.25,35.0,1,1.0,0.2528010000000904
1159,1,0.2,0.0,35.0,1,1.0,1.8129010000002381
1160,1,0.2,0.25,35.0,1,1.0,0.28630100000009406
1161,1,0.2,0.125,35.0,1,1.0,1.4231009999998605
1162,1,0.2,1.0,-35.0,-1,1.0,0.9798010000004069
1163,1,0.2,0.0625,35.0,1,1.0,0.33320099999991726
1164,1,0.2,0.0,-35.0,1,0.0,0.9633009999997739
1165,1,0.2,0.0625,-35.0,-1,1.0,0.310200999999779
1166,1,0.2,0.25,35.0,1,1.0,0.44690099999979793
1167,1,0.2,0.125,35.0,1,1.0,0.32040100000040184
1168,1,0.2,1.0,35.0,1,1.0,0.41720100000020466
1169,1,0.2,0.125,35.0,1,1.0,1.5572010000000773
1170,1,0.2,0.125,35.0,1,1.0,0.2273009999998976
1171,1,0.2,0.25,35.0,1,1.0,0.5707010000005539
1172,1,0.2,1.0,35.0,1,1.0,0.2508010000001377
1173,1,0.2,0.0625,35.0,1,1.0,0.22440099999994345
1174,1,0.2,1.0,-35.0,-1,1.0,0.25430099999994127
1175,1,0.2,0.25,35.0,1,1.0,0.2578009999997448
1176,1,0.2,1.0,35.0,1,1.0,0.22120099999983722
1177,1,0.2,0.0625,35.0,1,1.0,0.25460100000009334
1178,1,0.2,0.25,35.0,1,1.0,0.31150099999968006
1179,1,0.2,0.0625,35.0,1,1.0,0.3249010000004091
1180,1,0.2,0.25,35.0,1,1.0,0.541700999999648
1181,1,0.2,0.0,35.0,-1,0.0,2.225100999999995
1182,1,0.2,0.0,35.0,1,1.0,0.32540100000005623
1183,1,0.2,1.0,35.0,1,1.0,0.4853010000001632
1184,1,0.2,1.0,35.0,1,1.0,0.28230100000018865
1185,1,0.8,0.0625,35.0,1,1.0,4.82220099999995
1186,1,0.8,0.25,-35.0,-1,1.0,0.26920100000052116
1187,1,0.8,0.0,35.0,-1,0.0,1.2026010000004135
1188,1,0.8,0.25,-35.0,-1,1.0,0.2794010000002345
1189,1,0.8,0.0625,-35.0,-1,1.0,0.3063010000000759
1190,1,0.8,0.0625,-35.0,-1,1.0,0.3097010000001319
1191,1,0.8,0.125,-35.0,-1,1.0,0.2730010000004768
1192,1,0.8,0.125,-35.0,-1,1.0,0.26980100000037055
1193,1,0.8,1.0,-35.0,-1,1.0,0.23330100000021048
1194,1,0.8,1.0,-35.0,-1,1.0,0.5434009999999034
1195,1,0.8,0.125,-35.0,-1,1.0,1.0034010000003946
1196,1,0.8,0.0,-35.0,-1,1.0,4.220401000000493
1197,1,0.8,0.0625,-35.0,-1,1.0,0.4505010000002585
1198,1,0.8,0.125,-35.0,-1,1.0,0.2704009999997652
1199,1,0.8,0.125,-35.0,-1,1.0,0.23740099999986342
1200,1,0.8,0.125,-35.0,-1,1.0,0.5706009999998969
1201,1,0.8,1.0,-35.0,-1,1.0,0.9407009999995353
1202,1,0.8,0.0625,-35.0,-1,1.0,0.4043010000000322
1203,1,0.8,0.25,-35.0,-1,1.0,0.2975010000000111
1204,1,0.8,1.0,35.0,1,1.0,0.35100099999999657
1205,1,0.8,0.0625,-35.0,-1,1.0,0.3210009999997965
1206,1,0.8,0.25,35.0,1,1.0,0.3078009999999267
1207,1,0.8,0.125,-35.0,-1,1.0,0.26780100000041784
1208,1,0.8,0.0,-35.0,-1,1.0,0.3780010000000402
1209,1,0.2,0.125,35.0,1,1.0,0.4847010000003138
1210,1,0.2,0.25,35.0,1,1.0,0.24490100000002712
1211,1,0.2,0.25,-35.0,-1,1.0,1.4982009999998809
1212,1,0.2,1.0,35.0,1,1.0,0.42500100000052043
1213,1,0.2,0.25,-35.0,-1,1.0,0.2684009999998125
1214,1,0.2,0.0625,35.0,1,1.0,0.8185010000006514
1215,1,0.2,0.0,35.0,1,1.0,3.9653010000001814
1216,1,0.2,0.125,35.0,1,1.0,0.3156010000002425
1217,1,0.2,0.125,35.0,1,1.0,0.46570100000008097
1218,1,0.2,0.125,35.0,1,1.0,0.2791010000000824
1219,1,0.2,1.0,35.0,1,1.0,0.4525010000002112
1220,1,0.2,0.0625,35.0,1,1.0,0.8325009999998656
1221,1,0.2,1.0,35.0,1,1.0,0.38950100000010934
1222,1,0.2,1.0,35.0,1,1.0,0.24610100000018065
1223,1,0.2,1.0,35.0,1,1.0,0.18620099999998274
1224,1,0.2,0.25,35.0,1,1.0,0.7629010000000562
1225,1,0.2,0.125,35.0,1,1.0,0.5630010000004404
1226,1,0.2,0.125,35.0,1,1.0,0.27660100000002785
1227,1,0.2,0.125,35.0,1,1.0,0.19990099999995437
1228,1,0.2,0.25,35.0,1,1.0,0.27330099999971935
1229,1,0.2,0.125,35.0,1,1.0,0.3600010000000111
1230,1,0.2,0.25,35.0,1,1.0,0.393601000000217
1231,1,0.2,0.125,35.0,1,1.0,1.2436009999996713
1232,1,0.2,0.0,35.0,1,1.0,5.353601000000253
1233,1,0.2,0.0625,35.0,1,1.0,0.30720100000007733
1234,1,0.2,1.0,35.0,1,1.0,0.2775010000000293
1235,1,0.2,0.125,-35.0,-1,1.0,0.2676010000000133
1236,1,0.2,0.125,35.0,1,1.0,0.2577009999999973
1237,1,0.2,0.0625,35.0,1,1.0,0.34110099999998056
1238,1,0.2,0.125,35.0,1,1.0,0.31120099999998274
1239,1,0.2,0.125,35.0,1,1.0,2.4078009999998358
1240,1,0.2,0.125,35.0,1,1.0,0.29470100000025923
1241,1,0.2,0.0,35.0,-1,0.0,1.7948010000000068
1242,1,0.2,0.0,35.0,1,1.0,0.3050009999997201
1243,1,0.2,1.0,35.0,1,1.0,0.3786009999998896
1244,1,0.2,0.0625,35.0,1,1.0,3.268601000000217
1245,1,0.2,0.25,-35.0,-1,1.0,0.21540100000038365
1246,1,0.2,0.0,35.0,-1,0.0,4.4955009999998765
1247,1,0.2,0.0625,35.0,1,1.0,0.2325010000004113
1248,1,0.2,0.125,35.0,1,1.0,0.37590099999988524
1249,1,0.2,0.0,-35.0,1,0.0,0.549301000000014
1250,1,0.2,0.0,35.0,-1,0.0,0.25600100000019665
1251,1,0.2,0.25,35.0,1,1.0,0.2596010000002025
1252,1,0.2,0.0625,35.0,1,1.0,0.5397010000001501
1253,1,0.8,0.0,35.0,1,1.0,0.27650100000028033
1254,1,0.8,0.0625,-35.0,-1,1.0,2.486500999999862
1255,1,0.8,1.0,-35.0,-1,1.0,0.2800010000000839
1256,1,0.8,0.0,-35.0,-1,1.0,0.3400010000000293
1257,1,0.8,1.0,-35.0,-1,1.0,0.2867010000004484
1258,1,0.8,0.125,-35.0,-1,1.0,0.4669010000002345
1259,1,0.8,0.0,35.0,-1,0.0,0.6703010000001086
1260,1,0.8,1.0,-35.0,-1,1.0,0.217000999999982
1261,1,0.8,0.125,-35.0,-1,1.0,0.3204009999999471
1262,1,0.8,0.125,-35.0,-1,1.0,0.3006009999999151
1263,1,0.8,0.25,-35.0,-1,1.0,0.2873010000002978
1264,1,0.8,0.125,-35.0,-1,1.0,0.2873010000002978
1265,1,0.8,0.0625,-35.0,-1,1.0,0.33750099999997474
1266,1,0.8,0.125,-35.0,-1,1.0,0.4078010000002905
1267,1,0.8,0.25,35.0,1,1.0,0.2712010000000191
1268,1,0.8,0.0625,-35.0,-1,1.0,0.31120099999998274
1269,1,0.8,0.125,-35.0,-1,1.0,0.44130100000029415
1270,1,0.8,0.125,35.0,1,1.0,0.4913010000000213
1271,1,0.8,0.125,-35.0,-1,1.0,0.25480100000004313
1272,1,0.8,0.125,-35.0,-1,1.0,0.25830100000030143
1273,1,0.8,0.0625,35.0,1,1.0,0.8718010000002323
1274,1,0.2,0.0625,35.0,-1,0.0,0.43180100000017774
1275,1,0.2,0.0625,35.0,1,1.0,0.44190100000014354
1276,1,0.2,1.0,35.0,1,1.0,0.2387010000002192
1277,1,0.2,0.0,35.0,1,1.0,3.772201000000223
1278,1,0.2,1.0,35.0,1,1.0,0.25230099999998856
1279,1,0.2,1.0,35.0,1,1.0,0.19910100000015518
1280,1,0.2,0.0625,-35.0,1,0.0,0.6791010000001734
1281,1,0.2,0.25,35.0,1,1.0,1.299301000000014
1282,1,0.2,1.0,35.0,1,1.0,0.46940100000028906
1283,1,0.2,0.0625,-35.0,-1,1.0,0.39960100000007515
1284,1,0.2,0.0625,35.0,1,1.0,0.7698009999999158
1285,1,0.2,0.25,35.0,1,1.0,1.3365010000002258
1286,1,0.2,0.0625,-35.0,-1,1.0,0.493300999999974
1287,1,0.2,0.0625,35.0,1,1.0,0.3569009999996524
1288,1,0.2,0.125,-35.0,-1,1.0,0.26690099999996164
1289,1,0.2,0.125,35.0,1,1.0,0.30690099999992526
1290,1,0.2,0.0,35.0,1,1.0,0.5737010000002556
1291,1,0.2,0.0625,35.0,1,1.0,0.383701000000201
1292,1,0.2,0.125,-35.0,-1,1.0,0.350601000000097
1293,1,0.2,0.0625,35.0,1,1.0,0.8639010000006238
1294,1,0.2,0.0,35.0,1,1.0,3.4141010000003007
1295,1,0.2,0.25,35.0,1,1.0,0.29090099999984886
1296,1,0.2,1.0,35.0,1,1.0,0.24430100000017774
1297,1,0.2,0.25,35.0,1,1.0,0.2911010000002534
1298,1,0.2,0.125,35.0,1,1.0,0.2911010000002534
1299,1,0.2,0.0625,-35.0,-1,1.0,4.564601000000039
1300,1,0.8,0.125,-35.0,-1,1.0,0.3315010000001166
1301,1,0.8,0.0,-35.0,-1,1.0,0.3349009999997179
1302,1,0.8,0.25,-35.0,-1,1.0,0.25500099999999293
1303,1,0.8,0.125,-35.0,-1,1.0,0.28830100000004677
1304,1,0.8,0.125,-35.0,-1,1.0,0.2619009999998525
1305,1,0.8,0.0625,-35.0,-1,1.0,0.4586010000002716
1306,1,0.8,1.0,-35.0,-1,1.0,0.4487010000002556
1307,1,0.8,0.125,-35.0,-1,1.0,0.2587009999997463
1308,1,0.8,0.0,-35.0,-1,1.0,0.26890099999991435
1309,1,0.8,0.125,-35.0,-1,1.0,0.325601000000006
1310,1,0.8,0.0,35.0,1,1.0,0.37570099999993545
1311,1,0.8,0.25,-35.0,-1,1.0,0.3791009999999915
1312,1,0.8,0.0625,35.0,1,1.0,1.7792010000002847
1313,1,0.8,1.0,-35.0,-1,1.0,0.37600100000054226
1314,1,0.8,0.125,-35.0,-1,1.0,1.1061009999998532
1315,1,0.8,0.0,-35.0,1,0.0,1.5628010000000359
1316,1,0.8,0.125,-35.0,-1,1.0,0.27640100000007806
1317,1,0.8,0.0,-35.0,1,0.0,0.3164010000000417
1318,1,0.8,0.25,-35.0,-1,1.0,0.24320099999977174
1319,1,0.8,0.0625,35.0,1,1.0,0.5133009999999558
1320,1,0.8,0.25,-35.0,-1,1.0,0.2468010000002323
1321,1,0.8,0.125,-35.0,-1,1.0,0.05010100000026796
1322,1,0.8,1.0,-35.0,-1,1.0,0.8770009999998365
1323,1,0.8,1.0,-35.0,-1,1.0,0.26040100000000166
1324,1,0.8,1.0,-35.0,-1,1.0,0.2538009999998394
1325,1,0.8,0.25,-35.0,-1,1.0,0.32720100000005914
1326,1,0.8,0.25,-35.0,-1,1.0,0.2306010000002061
1327,1,0.8,0.0625,-35.0,-1,1.0,0.2607010000001537
1328,1,0.8,1.0,-35.0,-1,1.0,0.39750099999992017
1329,1,0.8,0.0,-35.0,-1,1.0,4.034401000000344
1330,1,0.8,0.25,-35.0,-1,1.0,0.2579009999999471
1331,1,0.8,1.0,-35.0,-1,1.0,0.37820099999953527
1332,1,0.8,1.0,-35.0,-1,1.0,0.5714010000001508
1333,1,0.8,0.0625,-35.0,-1,1.0,2.1481010000002243
1334,1,0.8,0.125,-35.0,-1,1.0,0.2552009999999427
1335,1,0.8,0.25,-35.0,-1,1.0,0.24510099999997692
1336,1,0.8,0.0625,-35.0,-1,1.0,0.26840100000026723
1337,1,0.8,0.125,-35.0,-1,1.0,0.05860100000018065
1338,1,0.8,1.0,-35.0,-1,1.0,0.5552010000001246
1339,1,0.8,0.0,35.0,-1,0.0,4.578701000000365
1340,1,0.8,0.25,-35.0,-1,1.0,0.23900099999991653
1341,1,0.8,1.0,-35.0,-1,1.0,0.2691010000003189
1342,1,0.8,0.25,-35.0,-1,1.0,0.2825010000005932
1343,1,0.8,0.25,-35.0,-1,1.0,0.2559009999999944
1344,1,0.8,1.0,-35.0,-1,1.0,0.27940099999977974
1345,1,0.8,0.0,-35.0,-1,1.0,0.40610100000003513
1346,1,0.8,0.125,-35.0,-1,1.0,0.3696010000003298
1347,1,0.8,0.125,-35.0,-1,1.0,0.40970100000004095
1348,1,0.8,1.0,-35.0,-1,1.0,0.7065010000001166
1349,1,0.8,0.25,35.0,1,1.0,0.3965010000001712
1350,1,0.8,1.0,-35.0,-1,1.0,0.3833009999998467
1351,1,0.8,0.0625,-35.0,-1,1.0,0.316801000000396
1352,1,0.8,1.0,-35.0,-1,1.0,0.5036010000003444
1353,1,0.8,1.0,-35.0,-1,1.0,0.2435009999999238
1354,1,0.8,0.0625,-35.0,-1,1.0,0.653501000000233
1355,1,0.8,0.25,-35.0,-1,1.0,0.27030100000001767
1356,1,0.8,0.25,-35.0,-1,1.0,0.24710100000038437
1357,1,0.8,0.0625,-35.0,-1,1.0,0.5038009999998394
1358,1,0.8,1.0,-35.0,-1,1.0,0.2606010000004062
1359,1,0.8,1.0,-35.0,-1,1.0,0.2507010000003902
1360,1,0.8,0.0625,-35.0,-1,1.0,0.4042010000002847
1361,1,0.8,0.0625,35.0,-1,0.0,3.0109010000001035
1362,1,0.8,0.0,-35.0,-1,1.0,0.32440100000030725
1363,1,0.8,0.0,-35.0,-1,1.0,1.627900999999838
1364,1,0.8,0.125,35.0,1,1.0,3.2880010000003494
1365,1,0.8,1.0,-35.0,-1,1.0,0.2615009999999529
1366,1,0.8,0.0625,-35.0,-1,1.0,1.8650010000001203
1367,1,0.8,0.125,-35.0,-1,1.0,0.6218009999997776
1368,1,0.8,0.25,-35.0,-1,1.0,0.2854010000000926
1369,1,0.8,0.25,-35.0,-1,1.0,0.6154010000004746
1370,1,0.8,0.25,-35.0,-1,1.0,0.2856010000000424
1371,1,0.8,0.0625,-35.0,-1,1.0,1.2489009999999325
1372,1,0.2,0.0625,35.0,1,1.0,0.3593010000004142
1373,1,0.2,0.125,35.0,1,1.0,0.6361010000000533
1374,1,0.2,0.25,35.0,1,1.0,0.5729010000004564
1375,1,0.2,0.0625,35.0,1,1.0,0.3995009999998729
1376,1,0.2,1.0,35.0,1,1.0,0.5864010000000235
1377,1,0.2,0.0625,35.0,1,1.0,0.30640100000027815
1378,1,0.2,0.0625,35.0,1,1.0,0.32310099999995145
1379,1,0.2,0.0625,-35.0,-1,1.0,0.24650100000008024
1380,1,0.2,0.0625,35.0,1,1.0,0.3467009999999391
1381,1,0.2,0.0625,35.0,1,1.0,3.026801000000887
1382,1,0.2,0.125,35.0,1,1.0,1.5836010000002716
1383,1,0.2,0.0625,-35.0,-1,1.0,0.3571009999996022
1384,1,0.2,0.25,35.0,1,1.0,0.31720100000075035
1385,1,0.2,0.0625,35.0,1,1.0,0.2906009999996968
1386,1,0.2,0.25,-35.0,-1,1.0,0.2906010000006063
1387,1,0.2,0.0625,35.0,1,1.0,0.3642010000003211
1388,1,0.2,0.0,-35.0,1,0.0,0.5242010000001756
1389,1,0.2,0.25,35.0,1,1.0,0.13770099999965169
1390,1,0.2,0.25,35.0,1,1.0,0.2745009999998729
1391,1,0.2,0.0625,-35.0,1,0.0,1.03150099999948
1392,1,0.2,0.0625,-35.0,-1,1.0,0.1479010000002745
1393,1,0.2,0.25,-35.0,-1,1.0,0.49150099999951635
1394,1,0.2,0.0625,35.0,1,1.0,5.06130099999973
1395,1,0.2,1.0,35.0,1,1.0,0.285001000000193
1396,1,0.2,0.0,-35.0,-1,1.0,2.2684010000002672
1397,1,0.2,0.0625,35.0,1,1.0,0.3186010000008537
1398,1,0.2,0.0,35.0,-1,0.0,5.012001000000055
1399,1,0.2,0.25,-35.0,-1,1.0,0.29580100000112
1400,1,0.2,0.0625,35.0,1,1.0,0.662201000001005
1401,1,0.2,0.125,-35.0,-1,1.0,0.26910099999986414
1402,1,0.2,0.0625,35.0,1,1.0,3.156300999999985
1403,1,0.2,0.0,35.0,1,1.0,0.3295010000001639
1404,1,0.2,1.0,35.0,1,1.0,0.24590100000114035
1405,1,0.2,1.0,-35.0,-1,1.0,0.2828010000002905
1406,1,0.2,0.125,35.0,1,1.0,0.3296010000003662
1407,1,0.2,0.0,35.0,1,1.0,3.643000999999458
1408,1,0.2,0.0625,35.0,1,1.0,0.28960100000040256
1409,1,0.2,1.0,35.0,1,1.0,0.23990100000082748
1410,1,0.2,0.25,35.0,1,1.0,0.39670100000057573
1411,1,0.2,0.125,35.0,1,1.0,2.6900009999999384
1412,1,0.2,0.0625,35.0,1,1.0,1.6707010000009177
1413,1,0.2,0.0,35.0,1,1.0,0.613800999999512
1414,1,0.2,0.0625,-35.0,-1,1.0,0.2910009999995964
1415,1,0.2,0.25,35.0,1,1.0,0.12380099999973027
1416,1,0.2,1.0,-35.0,-1,1.0,0.20070099999975355
1417,1,0.2,1.0,35.0,1,1.0,0.3473009999997885
1418,1,0.2,0.25,35.0,1,1.0,3.054301000000123
1419,1,0.2,0.25,35.0,1,1.0,0.6742009999998118
1420,1,0.2,0.125,-35.0,-1,1.0,0.541400999999496
1421,1,0.2,0.0,35.0,1,1.0,0.3310010000004695
1422,1,0.2,0.25,35.0,1,1.0,0.39120099999945523
1423,1,0.2,0.0625,35.0,1,1.0,0.36140100000102393
1424,1,0.2,0.25,35.0,1,1.0,0.22800100000040402
1425,1,0.2,0.0625,35.0,1,1.0,2.06170099999963
1426,1,0.2,1.0,35.0,1,1.0,0.2483009999996284
1427,1,0.2,0.125,-35.0,-1,1.0,0.4718010000005961
1428,1,0.2,0.0625,35.0,1,1.0,0.4151010000005044
1429,1,0.2,0.0,-35.0,1,0.0,0.41200100000060047
1430,1,0.2,0.25,35.0,1,1.0,0.2020010000005641
1431,1,0.2,0.0,35.0,-1,0.0,0.3857010000001537
1432,1,0.2,0.25,35.0,1,1.0,0.23220099999980448
1433,1,0.2,0.25,35.0,1,1.0,0.40590100000008533
1434,1,0.2,0.25,35.0,1,1.0,2.4664010000005874
1435,1,0.2,0.25,35.0,1,1.0,0.3193010000004506
1436,1,0.2,0.25,35.0,1,1.0,0.33600100000057864
1437,1,0.2,0.25,-35.0,-1,1.0,0.47310099999958766
1438,1,0.2,0.25,35.0,1,1.0,0.7565009999998438
1439,1,0.2,0.25,35.0,1,1.0,0.09280100000069069
1440,1,0.2,0.125,-35.0,-1,1.0,0.37310100000013335
1441,1,0.2,0.25,-35.0,-1,1.0,0.24990100000013626
1442,1,0.2,0.25,35.0,1,1.0,0.4332010000007358
1443,1,0.2,0.125,35.0,1,1.0,0.44010100000014063
1444,1,0.2,0.0625,35.0,1,1.0,0.45030099999985396
1445,1,0.2,0.0625,35.0,1,1.0,0.543601000000308
1446,1,0.2,1.0,-35.0,-1,1.0,0.3737010000004375
1447,1,0.8,0.125,-35.0,-1,1.0,0.28050100000018574
1448,1,0.8,0.25,-35.0,-1,1.0,0.2409010000001217
1449,1,0.8,0.0,-35.0,-1,1.0,0.2971010000001115
1450,1,0.8,0.25,-35.0,-1,1.0,0.2343009999995047
1451,1,0.8,0.0625,-35.0,-1,1.0,0.33090100000026723
1452,1,0.8,1.0,-35.0,-1,1.0,0.22100099999988743
1453,1,0.8,1.0,-35.0,-1,1.0,0.18790100000023813
1454,1,0.8,1.0,-35.0,-1,1.0,0.24160099999971862
1455,1,0.8,0.125,35.0,1,1.0,0.40100100000017846
1456,1,0.8,0.125,-35.0,-1,1.0,0.5049010000002454
1457,1,0.8,0.125,-35.0,-1,1.0,0.5981010000004972
1458,1,0.8,0.0,-35.0,-1,1.0,6.132101000001057
1459,1,0.8,0.25,-35.0,-1,1.0,0.275101000000177
1460,1,0.8,0.0625,-35.0,-1,1.0,0.3384009999999762
1461,1,0.8,0.25,-35.0,-1,1.0,1.2987010000006194
1462,1,0.8,0.0625,-35.0,-1,1.0,1.239201000000321
1463,1,0.8,0.0,-35.0,-1,1.0,3.8156010000002425
1464,1,0.8,0.0625,-35.0,-1,1.0,0.2693010000002687
1465,1,0.8,0.0,-35.0,1,0.0,1.2530010000000402
1466,1,0.8,0.0,-35.0,-1,1.0,0.3700010000002294
1467,1,0.8,0.125,-35.0,-1,1.0,0.3061010000001261
1468,1,0.8,0.125,35.0,1,1.0,0.2902010000007067
1469,1,0.8,0.0625,-35.0,-1,1.0,0.39000099999975646
1470,1,0.8,0.25,35.0,1,1.0,0.35370100000000093
1471,1,0.8,0.125,35.0,-1,0.0,0.23640099999920494
1472,1,0.8,0.0,-35.0,-1,1.0,5.610400999999001
1473,1,0.8,1.0,-35.0,-1,1.0,0.35030100000039965
1474,1,0.8,0.125,-35.0,-1,1.0,0.5971009999993839
1475,1,0.8,0.0625,-35.0,-1,1.0,0.29040100000020175
1476,1,0.2,0.0625,35.0,1,1.0,0.3810010000006514
1477,1,0.2,0.0625,35.0,1,1.0,0.31060099999922386
1478,1,0.2,0.125,35.0,1,1.0,0.28420100000039383
1479,1,0.2,0.25,35.0,1,1.0,0.274000999999771
1480,1,0.2,0.25,35.0,1,1.0,0.4711010000009992
1481,1,0.2,0.25,35.0,1,1.0,0.2876009999999951
1482,1,0.2,1.0,35.0,1,1.0,0.3111009999993257
1483,1,0.2,0.125,35.0,1,1.0,0.24810099999922386
1484,1,0.2,0.0,35.0,1,1.0,3.5947009999999864
1485,1,0.2,0.125,35.0,1,1.0,0.31830100000115635
1486,1,0.2,1.0,35.0,1,1.0,0.2317010000006121
1487,1,0.2,0.125,35.0,1,1.0,0.5218009999998685
1488,1,0.2,0.125,35.0,1,1.0,0.41210099999989325
1489,1,0.2,0.0625,35.0,1,1.0,0.43840100000034
1490,1,0.2,1.0,35.0,1,1.0,0.2321010000005117
1491,1,0.2,0.0625,35.0,1,1.0,0.2987009999997099
1492,1,0.2,1.0,35.0,1,1.0,0.2391010000001188
1493,1,0.2,0.0625,35.0,1,1.0,0.8322010000001683
1494,1,0.2,1.0,35.0,1,1.0,0.2623009999997521
1495,1,0.2,0.25,-35.0,-1,1.0,0.2358009999998103
1496,1,0.2,0.25,35.0,1,1.0,0.3425010000000839
1497,1,0.2,0.0625,35.0,1,1.0,0.2762009999996735
1498,1,0.2,0.0625,35.0,1,1.0,0.38600100000076054
1499,1,0.2,0.25,35.0,1,1.0,0.9226010000002134
1500,1,0.2,0.0625,35.0,1,1.0,0.2732009999999718
1501,1,0.2,0.25,35.0,1,1.0,0.7730010000004768
1502,1,0.2,0.0625,35.0,1,1.0,0.5203009999995629
1503,1,0.2,1.0,35.0,1,1.0,0.20350099999996019
1504,1,0.2,0.125,-35.0,-1,1.0,0.2567010000002483
1505,1,0.2,0.0625,-35.0,-1,1.0,0.7766000000001441
1506,1,0.2,0.25,-35.0,-1,1.0,0.3267009999999573
1507,1,0.2,0.0625,35.0,1,1.0,3.603400999999394
1508,1,0.2,0.125,35.0,1,1.0,0.33080100000006496
1509,1,0.2,1.0,35.0,1,1.0,0.3972009999997681
1510,1,0.2,0.125,35.0,1,1.0,2.640701000000263
1511,1,0.2,1.0,35.0,1,1.0,0.24420099999952072
1512,1,0.2,0.0,-35.0,1,0.0,0.9977010000002338
1513,1,0.2,0.0625,35.0,1,1.0,0.30440099999941594
1514,1,0.2,1.0,35.0,1,1.0,0.28780100000039965
1515,1,0.2,0.0,-35.0,1,0.0,5.7179009999999835
1516,1,0.2,1.0,35.0,1,1.0,0.26180099999965023
1517,1,0.2,0.125,35.0,1,1.0,0.3884010000001581
1518,1,0.2,1.0,35.0,1,1.0,0.31170100000053935
1519,1,0.2,0.125,-35.0,-1,1.0,0.3384009999999762
1520,1,0.2,0.125,35.0,1,1.0,2.355301000000509
1521,1,0.2,0.125,35.0,1,1.0,0.43860099999983504
1522,1,0.2,1.0,-35.0,-1,1.0,0.30540100000052917
1523,1,0.2,0.25,35.0,1,1.0,4.875400999999329
1524,1,0.2,1.0,35.0,1,1.0,0.2557010000009541
1525,1,0.8,0.125,35.0,1,1.0,0.3127010000007431
1526,1,0.8,0.25,-35.0,-1,1.0,0.4163010000002032
1527,1,0.8,0.125,-35.0,-1,1.0,0.2428010000003269
1528,1,0.8,1.0,-35.0,-1,1.0,0.2296010000000024
1529,1,0.8,0.125,35.0,1,1.0,0.7997009999999136
1530,1,0.8,0.25,-35.0,-1,1.0,0.43960100000003877
1531,1,0.8,0.0625,35.0,1,1.0,0.6298010000000431
1532,1,0.8,0.0625,-35.0,-1,1.0,0.3199010000007547
1533,1,0.8,0.25,-35.0,-1,1.0,0.2697010000010778
1534,1,0.8,0.0625,-35.0,-1,1.0,0.3403010000001814
1535,1,0.8,0.125,-35.0,-1,1.0,0.2501009999996313
1536,1,0.8,0.25,-35.0,-1,1.0,0.2868010000001959
1537,1,0.8,0.0625,-35.0,-1,1.0,0.5039010000000417
1538,1,0.8,0.25,-35.0,-1,1.0,0.05110100000001694
1539,1,0.8,0.0625,-35.0,-1,1.0,0.32380100000045786
1540,1,0.8,0.0625,-35.0,-1,1.0,0.2744010000005801
1541,1,0.8,0.0,35.0,1,1.0,1.7044010000008711
1542,1,0.8,1.0,-35.0,-1,1.0,0.33740099999977247
1543,1,0.8,0.125,-35.0,-1,1.0,0.5745010000000548
1544,1,0.8,1.0,35.0,1,1.0,0.3115010000001348
1545,1,0.8,0.0625,35.0,-1,0.0,4.017700999999761
1546,1,0.8,0.25,-35.0,-1,1.0,0.27460100000098464
1547,1,0.8,1.0,-35.0,-1,1.0,0.33490099999926315
1548,1,0.8,0.125,-35.0,-1,1.0,3.484801000000516
1549,1,0.8,0.0625,-35.0,-1,1.0,0.39550099999996746
1550,1,0.8,0.0625,-35.0,-1,1.0,3.068500999999742
1551,1,0.8,1.0,-35.0,-1,1.0,0.30550099999982194
1552,1,0.8,0.125,-35.0,-1,1.0,3.0321010000006936
1553,1,0.2,0.0625,-35.0,-1,1.0,2.8525009999993927
1554,1,0.2,0.25,35.0,1,1.0,0.562500999999429
1555,1,0.2,0.25,35.0,1,1.0,1.6727010000004157
1556,1,0.2,0.25,35.0,1,1.0,0.30260099999941303
1557,1,0.2,0.125,35.0,1,1.0,1.5866010000008828
1558,1,0.2,0.0625,35.0,1,1.0,1.142800999999963
1559,1,0.2,1.0,35.0,1,1.0,0.28970099999969534
1560,1,0.2,0.0625,35.0,1,1.0,0.6097010000003138
1561,1,0.2,0.25,35.0,1,1.0,1.8401010000006863
1562,1,0.2,0.25,35.0,1,1.0,0.3166010000004462
1563,1,0.2,0.125,-35.0,-1,1.0,1.4200009999995018
1564,1,0.2,1.0,35.0,1,1.0,0.34710099999938393
1565,1,0.2,0.25,-35.0,-1,1.0,0.27380100000027596
1566,1,0.2,0.0625,35.0,1,1.0,0.377000999998927
1567,1,0.2,1.0,35.0,1,1.0,0.32760099999995873
1568,1,0.2,0.0625,35.0,1,1.0,0.3442009999998845
1569,1,0.2,0.25,35.0,1,1.0,0.7840009999999893
1570,1,0.2,0.25,35.0,1,1.0,0.5375010000007023
1571,1,0.2,0.25,-35.0,-1,1.0,0.33090099999935774
1572,1,0.2,0.0,35.0,1,1.0,2.3348009999999704
1573,1,0.2,0.25,-35.0,-1,1.0,0.2781009999998787
1574,1,0.2,1.0,-35.0,-1,1.0,0.07510099999944941
1575,1,0.2,1.0,-35.0,-1,1.0,0.24780099999952654
1576,1,0.2,0.0625,35.0,1,1.0,0.31870100000014645
1577,1,0.2,0.0625,-35.0,-1,1.0,1.0648010000004433
1578,1,0.2,0.0625,35.0,-1,0.0,0.20170099999995728
1579,1,0.2,1.0,35.0,1,1.0,0.24840099999983067
1580,1,0.2,0.0625,35.0,-1,0.0,3.3887009999998554
1581,1,0.2,0.125,35.0,1,1.0,0.2626010000012684
1582,1,0.2,0.0,35.0,1,1.0,0.5388010000006034
1583,1,0.2,0.0625,35.0,1,1.0,1.7556010000007518
1584,1,0.2,0.0,35.0,1,1.0,0.34890099999938684
1585,1,0.2,1.0,35.0,1,1.0,0.24950100000023667
1586,1,0.2,0.25,-35.0,-1,1.0,0.2697009999992588
1587,1,0.2,0.0625,35.0,1,1.0,0.44930099999965023
1588,1,0.2,0.125,-35.0,1,0.0,1.1527009999990696
1589,1,0.2,0.125,35.0,1,1.0,0.20980099999997037
1590,1,0.2,0.25,-35.0,-1,1.0,0.35290100000020175
1591,1,0.2,0.125,35.0,1,1.0,0.2730010000004768
1592,1,0.2,0.125,-35.0,-1,1.0,4.723501000000397
1593,1,0.2,0.25,35.0,1,1.0,0.32680100000015955
1594,1,0.2,0.25,35.0,1,1.0,0.31690100000014354
1595,1,0.2,0.125,35.0,1,1.0,0.5069009999997434
1596,1,0.2,0.0625,-35.0,-1,1.0,1.427201000000423
1597,1,0.8,0.0625,35.0,1,1.0,0.38710100000025705
1598,1,0.8,1.0,-35.0,-1,1.0,0.23700100000041857
1599,1,0.8,1.0,-35.0,-1,1.0,0.22390100000029634
1600,1,0.8,0.125,-35.0,-1,1.0,0.3747010000006412
1601,1,0.8,0.125,35.0,1,1.0,0.4240010000003167
1602,1,0.8,0.125,-35.0,-1,1.0,4.460801000000174
1603,1,0.8,0.0625,35.0,1,1.0,0.37430099999983213
1604,1,0.8,0.0625,-35.0,1,0.0,0.2780010000005859
1605,1,0.8,1.0,-35.0,-1,1.0,0.2347010000003138
1606,1,0.8,0.25,-35.0,-1,1.0,0.9218010000004142
1607,1,0.8,0.125,-35.0,-1,1.0,0.42200099999990925
1608,1,0.8,0.0625,-35.0,-1,1.0,0.3850009999996473
1609,1,0.8,1.0,35.0,1,1.0,0.44190100000014354
1610,1,0.8,1.0,35.0,1,1.0,0.2321010000005117
1611,1,0.8,1.0,-35.0,-1,1.0,0.2318009999999049
1612,1,0.8,1.0,-35.0,-1,1.0,0.21220100000027742
1613,1,0.8,0.0625,35.0,1,1.0,0.31210100000043894
1614,1,0.8,0.25,-35.0,-1,1.0,3.0059009999995396
1615,1,0.8,1.0,-35.0,-1,1.0,0.34590100000059465
1616,1,0.8,0.0625,-35.0,-1,1.0,0.8657010000006267
1617,1,0.8,0.125,-35.0,-1,1.0,1.2959009999995033
1618,1,0.8,1.0,-35.0,-1,1.0,0.19600099999934173
1619,1,0.8,0.125,-35.0,-1,1.0,1.2101009999996677
1620,1,0.8,0.125,-35.0,-1,1.0,0.3594010000006165
1621,1,0.8,0.25,-35.0,-1,1.0,0.28960100000040256
1622,1,0.8,0.125,-35.0,-1,1.0,0.6230009999999311
1623,1,0.8,0.125,-35.0,-1,1.0,0.5399010000000999
1624,1,0.8,0.125,-35.0,-1,1.0,0.25990100000035454
1625,1,0.8,0.25,-35.0,-1,1.0,0.28010100000028615
1626,1,0.8,0.0625,-35.0,-1,1.0,0.5469010000006165
1627,1,0.8,0.0,-35.0,-1,1.0,1.3571010000005117
1628,1,0.8,0.0625,-35.0,-1,1.0,0.9102009999996881
1629,1,0.8,0.125,-35.0,-1,1.0,0.2704010000006747
1630,1,0.8,0.25,-35.0,-1,1.0,0.23740100000031816
1631,1,0.8,0.25,35.0,1,1.0,0.37060099999962404
1632,1,0.8,0.25,-35.0,-1,1.0,0.23440099999970698
1633,1,0.8,0.25,-35.0,-1,1.0,0.2479009999997288
1634,1,0.8,0.0,-35.0,1,0.0,1.4010010000001785
1635,1,0.8,0.125,-35.0,-1,1.0,0.25110099999983504
1636,1,0.8,0.25,-35.0,-1,1.0,0.2615009999990434
1637,1,0.8,0.25,-35.0,-1,1.0,1.2580010000001494
1638,1,0.8,0.0625,-35.0,-1,1.0,1.1515010000011898
1639,1,0.8,0.25,35.0,1,1.0,0.49150100000042585
1640,1,0.8,0.125,-35.0,-1,1.0,0.2420010000005277
1641,1,0.8,1.0,-35.0,-1,1.0,0.2321009999996022
1642,1,0.8,0.125,-35.0,-1,1.0,0.32860100000016246
1643,1,0.8,1.0,-35.0,-1,1.0,0.2986010000004171
1644,1,0.8,1.0,-35.0,-1,1.0,0.2420010000005277
1645,1,0.8,0.25,-35.0,-1,1.0,0.2587009999997463
1646,1,0.8,1.0,-35.0,-1,1.0,0.23930100000052335
1647,1,0.8,0.125,-35.0,-1,1.0,0.2925010000008115
1648,1,0.8,0.125,-35.0,-1,1.0,0.2791010000009919
1649,1,0.8,0.125,-35.0,-1,1.0,0.10300099999949452
1650,1,0.8,0.0625,-35.0,-1,1.0,0.2692010000000664
1651,1,0.8,0.125,-35.0,-1,1.0,0.372601000000941
1652,1,0.8,0.0625,35.0,1,1.0,0.356101000000308
1653,1,0.8,1.0,-35.0,-1,1.0,0.37270100000023376
1654,1,0.8,0.125,-35.0,-1,1.0,0.3896000000004278
1655,1,0.8,0.25,-35.0,-1,1.0,0.27010100000097736
1656,1,0.8,0.0625,-35.0,-1,1.0,0.3564010000000053
1657,1,0.8,0.25,35.0,1,1.0,0.3964009999999689
1658,1,0.8,0.0625,-35.0,-1,1.0,0.31650100000024395
1659,1,0.8,1.0,-35.0,-1,1.0,0.24010100000032253
1660,1,0.8,0.0625,-35.0,-1,1.0,1.9536010000001625
1661,1,0.8,1.0,-35.0,-1,1.0,0.32010100000024977
1662,1,0.8,0.25,-35.0,-1,1.0,0.2703010000004724
1663,1,0.8,0.0625,-35.0,-1,1.0,0.6839010000003327
1664,1,0.8,0.125,-35.0,-1,1.0,1.9011010000003807
1665,1,0.2,0.0625,-35.0,1,0.0,0.8774010000006456
1666,1,0.2,0.125,35.0,1,1.0,0.5013010000002396
1667,1,0.2,1.0,35.0,1,1.0,2.7877010000001974
1668,1,0.2,0.0625,-35.0,-1,1.0,0.6647009999996953
1669,1,0.2,1.0,35.0,1,1.0,0.28160099999968224
1670,1,0.2,0.125,35.0,1,1.0,3.631601000000046
1671,1,0.2,1.0,-35.0,-1,1.0,0.4884010000005219
1672,1,0.2,1.0,35.0,1,1.0,7.559301000000232
1673,1,0.2,0.0,35.0,1,1.0,5.899301000000378
1674,1,0.2,0.25,-35.0,-1,1.0,0.46940100000028906
1675,1,0.2,0.0625,35.0,-1,0.0,30.57300100000066
1676,1,0.2,0.0625,-35.0,-1,1.0,13.807701000000634
1677,1,0.2,0.125,-35.0,-1,1.0,9.055201000000125
1678,1,0.2,1.0,-35.0,-1,1.0,13.702300999999352
1679,1,0.2,0.25,35.0,-1,0.0,12.336500999999771
1680,1,0.2,1.0,35.0,-1,0.0,0.9966009999998278
1681,1,0.2,0.0,35.0,1,1.0,4.8937009999999646
1682,1,0.2,1.0,35.0,1,1.0,20.87750099999994
1,2,0.5,1.0,-35.0,-1,1.0,0.4488000000000003
2,2,0.5,0.25,-35.0,-1,1.0,4.6651
3,2,0.5,0.0625,35.0,1,1.0,4.454000000000001
4,2,0.5,0.0625,35.0,1,1.0,5.344899999999999
5,2,0.5,0.125,35.0,1,1.0,5.970100000000002
6,2,0.5,0.125,35.0,1,1.0,6.888099999999994
7,2,0.5,0.0625,35.0,-1,0.0,7.048300000000005
8,2,0.5,0.25,-35.0,-1,1.0,3.337599999999995
9,2,0.5,0.25,-35.0,-1,1.0,5.8489
10,2,0.5,0.25,35.0,1,1.0,0.3538999999999959
11,2,0.5,0.0,-35.0,-1,1.0,13.441500000000005
12,2,0.5,0.125,-35.0,-1,1.0,0.45529999999999404
13,2,0.5,0.25,-35.0,-1,1.0,2.5593999999999966
14,2,0.5,0.125,-35.0,-1,1.0,7.221800000000002
15,2,0.5,0.125,35.0,1,1.0,4.895699999999991
16,2,0.5,1.0,35.0,1,1.0,0.376899999999992
17,2,0.5,0.125,35.0,1,1.0,6.846799999999988
18,2,0.5,0.0625,-35.0,-1,1.0,10.222899999999981
19,2,0.5,0.125,-35.0,-1,1.0,4.942700000000002
20,2,0.5,1.0,35.0,1,1.0,0.5488
21,2,0.5,0.0625,-35.0,-1,1.0,5.424800000000005
22,2,0.5,0.0625,35.0,1,1.0,7.13209999999998
23,2,0.5,0.125,-35.0,-1,1.0,5.413700000000006
24,2,0.5,0.25,-35.0,-1,1.0,5.459599999999995
25,2,0.5,0.0625,35.0,-1,0.0,0.1436999999999955
26,2,0.5,0.125,-35.0,-1,1.0,0.2581000000000131
27,2,0.5,0.0625,35.0,-1,0.0,2.6369000000000256
28,2,0.5,0.0625,35.0,1,1.0,3.475200000000001
29,2,0.5,0.125,-35.0,-1,1.0,6.496200000000016
30,2,0.5,1.0,35.0,1,1.0,4.633899999999983
31,2,0.5,0.125,35.0,1,1.0,7.094200000000001
32,2,0.5,0.25,-35.0,-1,1.0,6.0837999999999965
33,2,0.5,1.0,-35.0,-1,1.0,0.49389999999999645
34,2,0.5,0.0625,-35.0,-1,1.0,5.3577999999999975
35,2,0.5,0.25,-35.0,-1,1.0,0.40989999999999327
36,2,0.5,0.125,-35.0,-1,1.0,1.1389000000000067
37,2,0.5,0.25,-35.0,1,0.0,2.3568999999999676
38,2,0.5,1.0,35.0,1,1.0,0.33590000000003783
39,2,0.5,0.0,-35.0,-1,1.0,2.8631000000000313
40,2,0.5,0.125,35.0,1,1.0,0.7278000000000588
41,2,0.5,1.0,-35.0,-1,1.0,4.006399999999985
42,2,0.5,1.0,-35.0,-1,1.0,0.3342000000000098
43,2,0.5,0.25,35.0,1,1.0,6.3378999999999905
44,2,0.5,0.125,35.0,1,1.0,5.673699999999997
45,2,0.5,0.125,-35.0,-1,1.0,6.273599999999988
46,2,0.5,0.125,35.0,1,1.0,7.079000000000008
47,2,0.5,0.0,-35.0,1,0.0,12.04789999999997
48,2,0.5,0.0625,-35.0,-1,1.0,11.412200000000041
49,2,0.5,0.25,-35.0,-1,1.0,5.884999999999991
50,2,0.5,0.125,35.0,1,1.0,6.845400000000041
51,2,0.5,0.0,35.0,-1,0.0,6.884200000000078
52,2,0.5,1.0,-35.0,-1,1.0,6.994100000000003
53,2,0.5,0.0,35.0,1,1.0,0.4086000000000922
54,2,0.5,0.0625,-35.0,1,0.0,0.7691000000000372
55,2,0.5,0.0625,35.0,1,1.0,0.5945000000000391
56,2,0.5,1.0,35.0,1,1.0,0.4304000000000201
57,2,0.5,1.0,35.0,1,1.0,0.5471000000000572
58,2,0.5,1.0,-35.0,-1,1.0,0.43940000000003465
59,2,0.5,0.25,-35.0,-1,1.0,2.9992000000000303
60,2,0.5,0.25,35.0,1,1.0,1.7012000000000285
61,2,0.5,1.0,-35.0,-1,1.0,0.2834000000000856
62,2,0.5,1.0,35.0,1,1.0,0.21810000000004948
63,2,0.5,1.0,-35.0,-1,1.0,0.21680000000009159
64,2,0.5,1.0,-35.0,-1,1.0,3.513900000000035
65,2,0.5,0.0625,-35.0,1,0.0,0.6932000000000471
66,2,0.5,1.0,-35.0,-1,1.0,0.29009999999999536
67,2,0.5,0.125,-35.0,-1,1.0,0.3412000000000148
68,2,0.5,0.0625,35.0,-1,0.0,0.4688000000000443
69,2,0.5,0.125,-35.0,-1,1.0,0.29169999999999163
70,2,0.5,0.0625,35.0,1,1.0,2.720799999999997
71,2,0.5,0.0,-35.0,-1,1.0,0.6641999999999939
72,2,0.5,0.25,35.0,1,1.0,2.3559999999999945
73,2,0.5,0.0,35.0,1,1.0,5.030200000000036
74,2,0.5,0.0,35.0,-1,0.0,1.8876999999999953
75,2,0.5,0.25,35.0,1,1.0,0.19930000000005066
76,2,0.5,0.0625,35.0,1,1.0,2.793299999999988
77,2,0.5,0.125,-35.0,-1,1.0,1.1087000000000558
78,2,0.5,0.0625,35.0,1,1.0,0.3742000000000303
79,2,0.5,0.0,35.0,1,1.0,1.1072000000000344
80,2,0.5,1.0,35.0,1,1.0,0.2633000000000152
81,2,0.5,0.125,35.0,1,1.0,0.44040000000006785
82,2,0.5,0.0625,35.0,1,1.0,1.0656000000000176
83,2,0.5,0.25,35.0,1,1.0,0.3707000000000562
84,2,0.5,0.0625,-35.0,1,0.0,0.21050000000002456
85,2,0.5,0.125,-35.0,-1,1.0,0.31080000000002883
86,2,0.5,0.25,-35.0,-1,1.0,2.383200000000045
87,2,0.5,0.25,35.0,1,1.0,0.2647000000000048
88,2,0.5,1.0,35.0,1,1.0,0.172300000000007
89,2,0.5,1.0,-35.0,-1,1.0,0.30570000000000164
90,2,0.5,0.125,35.0,1,1.0,0.2940999999999576
91,2,0.2,0.25,35.0,1,1.0,0.34429999999986194
92,2,0.2,1.0,-35.0,-1,1.0,1.8884999999999081
93,2,0.2,0.125,35.0,1,1.0,0.2966999999998734
94,2,0.2,0.0,-35.0,-1,1.0,2.0828999999998814
95,2,0.2,0.125,35.0,1,1.0,0.4537000000000262
96,2,0.2,0.125,35.0,1,1.0,0.40029999999990196
97,2,0.2,0.0625,35.0,1,1.0,0.26759999999990214
98,2,0.2,0.125,35.0,1,1.0,0.4844999999999118
99,2,0.2,0.0625,-35.0,1,0.0,0.46279999999990196
100,2,0.2,0.0625,-35.0,-1,1.0,1.6720000000000255
101,2,0.2,0.25,-35.0,-1,1.0,1.8363000000000511
102,2,0.2,0.0,35.0,-1,0.0,1.3553999999999178
103,2,0.2,1.0,-35.0,-1,1.0,0.19299999999998363
104,2,0.2,1.0,35.0,1,1.0,0.3716999999999189
105,2,0.2,0.0625,-35.0,-1,1.0,1.4173999999999296
106,2,0.2,0.25,-35.0,-1,1.0,0.21440000000006876
107,2,0.2,1.0,35.0,1,1.0,0.509499999999889
108,2,0.2,0.0625,-35.0,1,0.0,0.5755000000000337
109,2,0.2,0.0625,35.0,1,1.0,0.44060000000001764
110,2,0.2,0.25,35.0,1,1.0,2.120399999999904
111,2,0.2,1.0,-35.0,-1,1.0,0.2398000000000593
112,2,0.2,0.25,35.0,1,1.0,0.4715999999999667
113,2,0.2,1.0,-35.0,-1,1.0,0.20539999999994052
114,2,0.2,1.0,35.0,1,1.0,0.26139999999998054
115,2,0.2,0.25,35.0,1,1.0,2.2350999999999885
116,2,0.2,0.25,35.0,1,1.0,0.33140000000003056
117,2,0.2,0.0,-35.0,1,0.0,2.696899999999914
118,2,0.2,0.25,-35.0,-1,1.0,0.2339999999999236
119,2,0.2,0.0625,35.0,-1,0.0,3.1240999999999985
120,2,0.2,1.0,-35.0,-1,1.0,0.22839999999996508
121,2,0.2,0.125,-35.0,-1,1.0,0.2723999999999478
122,2,0.2,0.0625,35.0,1,1.0,0.2480000000000473
123,2,0.2,1.0,-35.0,-1,1.0,0.45269999999993615
124,2,0.2,0.125,35.0,1,1.0,3.1434999999999036
125,2,0.8,0.25,-35.0,-1,1.0,0.2545000000000073
126,2,0.8,1.0,35.0,1,1.0,0.17879999999991014
127,2,0.8,0.0625,35.0,1,1.0,2.6550999999999476
128,2,0.8,0.125,-35.0,-1,1.0,0.3634999999999309
129,2,0.8,0.0625,-35.0,-1,1.0,0.3494999999999209
130,2,0.8,0.0,-35.0,1,0.0,3.6422999999999774
131,2,0.8,0.0,-35.0,1,0.0,0.3525999999999385
132,2,0.8,0.125,-35.0,-1,1.0,0.549799999999891
133,2,0.8,0.25,35.0,1,1.0,0.26369999999985794
134,2,0.8,0.125,-35.0,1,0.0,2.5978000000000065
135,2,0.8,0.25,-35.0,-1,1.0,0.3704999999999927
136,2,0.8,0.25,-35.0,-1,1.0,0.5326000000000022
137,2,0.8,0.0,35.0,1,1.0,2.9306000000000267
138,2,0.8,0.125,-35.0,-1,1.0,0.3927999999999656
139,2,0.8,0.25,-35.0,-1,1.0,0.5897999999999683
140,2,0.8,0.0,35.0,-1,0.0,2.06880000000001
141,2,0.8,0.25,35.0,1,1.0,0.3446999999999889
142,2,0.8,0.125,35.0,1,1.0,1.466600000000085
143,2,0.8,0.0,35.0,1,1.0,0.3301000000000158
144,2,0.8,0.125,-35.0,-1,1.0,0.5701999999998861
145,2,0.8,0.0625,-35.0,1,0.0,0.7273999999999887
146,2,0.2,0.0625,35.0,1,1.0,0.21929999999997563
147,2,0.2,0.125,-35.0,-1,1.0,0.29710000000000036
148,2,0.2,0.25,35.0,1,1.0,1.1317999999999984
149,2,0.2,0.25,35.0,1,1.0,0.282100000000014
150,2,0.2,0.0625,35.0,1,1.0,3.3200999999999112
151,2,0.2,0.25,35.0,1,1.0,0.30999999999994543
152,2,0.2,0.125,35.0,1,1.0,0.10860000000002401
153,2,0.2,0.25,35.0,1,1.0,0.2440000000000282
154,2,0.2,0.0625,-35.0,-1,1.0,0.5701999999999998
155,2,0.2,0.25,35.0,1,1.0,0.23279999999988377
156,2,0.2,1.0,35.0,1,1.0,0.19020000000000437
157,2,0.2,0.0,35.0,-1,0.0,3.6510999999999285
158,2,0.2,0.0625,35.0,1,1.0,0.2617000000000189
159,2,0.2,0.0625,35.0,-1,0.0,2.71569999999997
160,2,0.2,0.25,-35.0,-1,1.0,0.26269999999999527
161,2,0.2,0.25,35.0,1,1.0,0.21669999999994616
162,2,0.2,1.0,35.0,1,1.0,0.448099999999954
163,2,0.2,1.0,35.0,1,1.0,0.25509999999997035
164,2,0.2,0.25,35.0,1,1.0,0.3119000000000369
165,2,0.2,0.125,35.0,1,1.0,0.7648999999998978
166,2,0.2,0.125,35.0,1,1.0,0.28929999999991196
167,2,0.2,1.0,35.0,1,1.0,0.2961999999999989
168,2,0.2,0.25,35.0,1,1.0,0.41210000000000946
169,2,0.2,1.0,35.0,1,1.0,1.5167000000000144
170,2,0.2,0.0625,35.0,1,1.0,0.5436999999999443
171,2,0.2,0.0625,35.0,1,1.0,0.2522999999998774
172,2,0.2,1.0,35.0,1,1.0,0.40859999999997854
173,2,0.8,0.0,-35.0,1,0.0,2.969699999999875
174,2,0.8,0.0,-35.0,1,0.0,11.339999999999918
175,2,0.8,0.125,35.0,1,1.0,0.4599999999999227
176,2,0.8,0.125,-35.0,-1,1.0,0.29979999999989104
177,2,0.8,0.25,-35.0,-1,1.0,0.311800000000062
178,2,0.8,0.0625,-35.0,-1,1.0,0.9507999999999583
179,2,0.8,0.25,-35.0,-1,1.0,0.24479999999994106
180,2,0.8,1.0,-35.0,-1,1.0,0.35580000000004475
181,2,0.8,0.125,-35.0,-1,1.0,0.28519999999991796
182,2,0.8,0.0625,35.0,-1,0.0,2.617999999999938
183,2,0.8,0.0625,35.0,1,1.0,0.4577999999999065
184,2,0.8,0.0625,-35.0,-1,1.0,0.5471000000000004
185,2,0.8,0.25,-35.0,-1,1.0,0.2658000000000129
186,2,0.8,0.125,-35.0,-1,1.0,0.5060999999999467
187,2,0.8,0.0,-35.0,-1,1.0,3.149000000000001
188,2,0.8,0.0,-35.0,-1,1.0,8.511999999999944
189,2,0.8,0.0625,35.0,1,1.0,0.5117999999999938
190,2,0.8,0.125,-35.0,-1,1.0,0.2818999999999505
191,2,0.8,0.125,35.0,1,1.0,2.2469999999999573
192,2,0.8,0.0625,-35.0,-1,1.0,1.9284999999999854
193,2,0.8,0.0625,-35.0,-1,1.0,0.4257000000000062
194,2,0.8,1.0,-35.0,-1,1.0,0.057900000000017826
195,2,0.8,1.0,35.0,1,1.0,0.24519999999995434
196,2,0.8,1.0,-35.0,-1,1.0,1.6562000000000126
197,2,0.8,0.25,-35.0,-1,1.0,0.4175999999999931
198,2,0.8,1.0,-35.0,-1,1.0,1.0192999999999302
199,2,0.8,0.125,35.0,1,1.0,0.517099999999914
200,2,0.8,0.25,-35.0,-1,1.0,0.5781000000000631
201,2,0.8,0.25,-35.0,-1,1.0,2.6351999999999407
202,2,0.8,0.125,-35.0,-1,1.0,0.2781999999999698
203,2,0.8,0.25,-35.0,-1,1.0,0.231899999999996
204,2,0.8,1.0,-35.0,-1,1.0,0.2014000000000351
205,2,0.8,0.0625,35.0,1,1.0,2.2952999999999975
206,2,0.8,0.25,-35.0,-1,1.0,0.2058999999999287
207,2,0.8,0.125,-35.0,-1,1.0,0.2259000000000242
208,2,0.8,0.0625,35.0,1,1.0,0.5466000000000122
209,2,0.8,0.25,-35.0,-1,1.0,1.3498999999999342
210,2,0.8,1.0,-35.0,-1,1.0,0.8728999999999587
211,2,0.8,0.25,-35.0,-1,1.0,0.2016999999999598
212,2,0.8,0.125,-35.0,-1,1.0,0.6539999999998827
213,2,0.8,1.0,-35.0,-1,1.0,0.23149999999998272
214,2,0.8,0.0625,-35.0,-1,1.0,0.4053000000000111
215,2,0.8,0.125,-35.0,-1,1.0,0.397199999999998
216,2,0.8,0.125,-35.0,-1,1.0,0.3669999999999618
217,2,0.8,0.0,-35.0,-1,1.0,0.19639999999992597
218,2,0.8,0.125,-35.0,-1,1.0,0.35960000000000036
219,2,0.8,0.0,35.0,1,1.0,0.5868999999999005
220,2,0.8,0.0625,-35.0,-1,1.0,5.508299999999963
221,2,0.8,0.0,35.0,-1,0.0,0.6080000000000609
222,2,0.8,0.0625,-35.0,-1,1.0,0.3046999999999116
223,2,0.8,0.25,-35.0,-1,1.0,0.2320999999998321
224,2,0.8,1.0,-35.0,-1,1.0,0.22939999999994143
225,2,0.8,0.25,-35.0,-1,1.0,0.22429999999997108
226,2,0.8,0.125,-35.0,-1,1.0,0.42830000000003565
227,2,0.8,0.125,-35.0,-1,1.0,2.0004999999998745
228,2,0.8,0.125,-35.0,-1,1.0,0.20510000000001583
229,2,0.8,0.25,-35.0,-1,1.0,0.2977000000000771
230,2,0.8,0.25,-35.0,-1,1.0,0.29759999999998854
231,2,0.8,0.0625,-35.0,-1,1.0,0.2980999999999767
232,2,0.8,1.0,-35.0,-1,1.0,0.14999999999986358
233,2,0.8,1.0,-35.0,-1,1.0,0.14909999999986212
234,2,0.8,0.0625,-35.0,-1,1.0,1.0965999999999667
235,2,0.8,0.125,-35.0,-1,1.0,0.5623999999999114
236,2,0.8,1.0,-35.0,-1,1.0,0.3442999999999756
237,2,0.8,1.0,-35.0,-1,1.0,0.21050000000002456
238,2,0.8,0.0625,-35.0,-1,1.0,2.30619999999999
239,2,0.2,0.125,35.0,1,1.0,0.28709999999989577
240,2,0.2,1.0,35.0,1,1.0,0.17700000000002092
241,2,0.2,0.125,35.0,1,1.0,0.5074999999999363
242,2,0.2,0.25,35.0,1,1.0,0.2980999999999767
243,2,0.2,0.0625,35.0,1,1.0,0.2604000000000042
244,2,0.2,0.25,35.0,1,1.0,1.163599999999974
245,2,0.2,0.0625,35.0,1,1.0,1.0068999999999733
246,2,0.2,1.0,35.0,1,1.0,0.18020000000001346
247,2,0.2,0.25,35.0,1,1.0,0.23709999999994125
248,2,0.2,1.0,-35.0,-1,1.0,0.26729999999997744
249,2,0.2,0.25,-35.0,-1,1.0,3.520399999999995
250,2,0.2,0.0,35.0,-1,0.0,2.7942999999999074
251,2,0.2,0.25,-35.0,-1,1.0,0.3512000000000626
252,2,0.2,0.125,35.0,1,1.0,1.4311999999999898
253,2,0.2,0.25,35.0,1,1.0,0.25810000000024047
254,2,0.2,1.0,35.0,1,1.0,0.21829999999999927
255,2,0.2,1.0,35.0,1,1.0,0.39479999999980464
256,2,0.2,1.0,35.0,1,1.0,0.35140000000001237
257,2,0.2,0.25,35.0,1,1.0,0.6883000000000266
258,2,0.2,0.0,35.0,1,1.0,0.27220000000033906
259,2,0.2,0.25,35.0,1,1.0,0.2552000000002863
260,2,0.2,0.25,35.0,1,1.0,0.252100000000155
261,2,0.2,0.125,35.0,1,1.0,0.27519999999981337
262,2,0.2,1.0,35.0,1,1.0,0.23220000000014807
263,2,0.2,1.0,35.0,1,1.0,0.3686000000000149
264,2,0.2,0.0625,35.0,1,1.0,0.37550000000010186
265,2,0.2,0.0,35.0,1,1.0,1.6088999999999487
266,2,0.2,0.0625,35.0,1,1.0,0.2458000000001448
267,2,0.2,0.0625,-35.0,-1,1.0,0.42620000000010805
268,2,0.2,0.0625,35.0,1,1.0,6.9831000000001495
269,2,0.2,1.0,35.0,1,1.0,0.3261999999999716
270,2,0.2,0.125,35.0,1,1.0,0.3400000000001455
271,2,0.2,0.0625,35.0,1,1.0,1.6802000000000135
272,2,0.2,0.125,35.0,1,1.0,0.22050000000012915
273,2,0.2,0.25,35.0,1,1.0,0.2037000000000262
274,2,0.2,0.125,35.0,1,1.0,0.3403000000002976
275,2,0.2,1.0,35.0,1,1.0,0.20710000000008222
276,2,0.2,0.0,-35.0,1,0.0,0.4835000000002765
277,2,0.2,1.0,35.0,1,1.0,0.21770000000014988
278,2,0.2,0.125,35.0,1,1.0,1.9507000000003245
279,2,0.2,0.0625,35.0,1,1.0,0.23099999999999454
280,2,0.2,0.125,35.0,1,1.0,0.2906000000000404
281,2,0.2,0.0,35.0,1,1.0,0.36740000000031614
282,2,0.2,0.0625,35.0,1,1.0,0.28749999999990905
283,2,0.2,1.0,35.0,1,1.0,0.3912000000000262
284,2,0.2,0.125,35.0,1,1.0,0.22440000000005966
285,2,0.2,1.0,-35.0,-1,1.0,0.4678000000001248
286,2,0.2,1.0,-35.0,-1,1.0,0.32130000000006476
287,2,0.2,0.0625,35.0,1,1.0,0.52150000000006
288,2,0.2,0.0625,35.0,1,1.0,0.48529999999982465
289,2,0.2,0.125,35.0,1,1.0,0.5416999999999916
290,2,0.2,1.0,35.0,1,1.0,0.46840000000020154
291,2,0.2,0.125,35.0,1,1.0,0.23890000000005784
292,2,0.2,1.0,35.0,1,1.0,0.20199999999999818
293,2,0.2,1.0,35.0,1,1.0,0.2885000000001128
294,2,0.2,0.0625,35.0,1,1.0,4.905300000000125
295,2,0.2,1.0,35.0,1,1.0,0.2321999999999207
296,2,0.2,0.125,35.0,1,1.0,0.22880000000009204
297,2,0.2,0.25,-35.0,-1,1.0,0.7489000000000487
298,2,0.2,0.25,35.0,1,1.0,3.1426000000001295
299,2,0.2,1.0,35.0,1,1.0,0.49939999999992324
300,2,0.2,1.0,35.0,1,1.0,0.25939999999991414
301,2,0.2,1.0,-35.0,-1,1.0,0.32600000000002183
302,2,0.2,1.0,-35.0,-1,1.0,0.886600000000044
303,2,0.2,0.125,35.0,1,1.0,0.3663000000001375
304,2,0.2,0.0,35.0,1,1.0,0.38340000000016516
305,2,0.2,1.0,35.0,1,1.0,0.5897999999999683
306,2,0.2,1.0,-35.0,-1,1.0,0.41650000000004184
307,2,0.2,0.0625,35.0,1,1.0,0.2765999999999167
308,2,0.2,0.125,-35.0,-1,1.0,1.6104000000002543
309,2,0.2,1.0,35.0,1,1.0,0.270200000000159
310,2,0.2,1.0,35.0,1,1.0,0.20699999999987995
311,2,0.2,0.125,35.0,1,1.0,1.587400000000116
312,2,0.2,0.0,35.0,-1,0.0,3.717399999999998
313,2,0.2,0.0625,35.0,1,1.0,0.2074000000000069
314,2,0.2,0.25,35.0,1,1.0,0.24450000000001637
315,2,0.2,1.0,35.0,1,1.0,0.2276000000001659
316,2,0.2,1.0,-35.0,-1,1.0,0.2576000000001386
317,2,0.2,1.0,35.0,1,1.0,0.19770000000016807
318,2,0.2,1.0,-35.0,-1,1.0,0.6245000000001255
319,2,0.2,0.0,-35.0,-1,1.0,2.7145000000000437
320,2,0.2,0.25,35.0,1,1.0,0.8746000000003278
321,2,0.2,1.0,35.0,1,1.0,0.3248999999998432
322,2,0.8,0.25,-35.0,-1,1.0,0.35140000000001237
323,2,0.8,1.0,-35.0,-1,1.0,0.21820000000002437
324,2,0.8,0.0625,35.0,1,1.0,0.8249000000000706
325,2,0.8,1.0,-35.0,-1,1.0,0.3487000000002354
326,2,0.8,0.125,-35.0,-1,1.0,0.30510000000003856
327,2,0.8,0.25,-35.0,-1,1.0,0.3286000000000513
328,2,0.8,0.0,-35.0,-1,1.0,1.5487000000000535
329,2,0.8,0.0625,-35.0,-1,1.0,0.30600000000004
330,2,0.8,0.0625,-35.0,-1,1.0,0.5189000000000306
331,2,0.8,0.0,-35.0,-1,1.0,3.4927000000000135
332,2,0.8,0.0,-35.0,1,0.0,0.4226000000001022
333,2,0.8,0.25,35.0,1,1.0,0.2925999999999931
334,2,0.8,1.0,-35.0,-1,1.0,0.2394000000001597
335,2,0.8,1.0,-35.0,-1,1.0,0.23330000000009932
336,2,0.8,0.0625,-35.0,-1,1.0,0.28320000000007894
337,2,0.8,0.125,-35.0,-1,1.0,0.3466000000000804
338,2,0.8,0.25,-35.0,-1,1.0,0.23310000000014952
339,2,0.8,0.125,-35.0,-1,1.0,2.636500000000069
340,2,0.8,0.0625,-35.0,-1,1.0,0.31700000000023465
341,2,0.8,0.25,-35.0,-1,1.0,0.25710000000003674
342,2,0.8,0.125,-35.0,-1,1.0,0.3805999999999585
343,2,0.8,1.0,-35.0,-1,1.0,2.4336000000000695
344,2,0.8,0.0,35.0,-1,0.0,0.2537000000002081
345,2,0.8,0.125,35.0,1,1.0,0.23710000000005493
346,2,0.8,0.0625,-35.0,-1,1.0,0.25119999999992615
347,2,0.8,0.25,35.0,1,1.0,1.9674999999999727
348,2,0.8,0.25,-35.0,-1,1.0,0.3946000000000822
349,2,0.8,0.25,-35.0,-1,1.0,3.661000000000058
350,2,0.8,0.25,35.0,1,1.0,0.5877990000001319
351,2,0.8,0.25,-35.0,-1,1.0,0.2878000000000611
352,2,0.8,0.25,-35.0,-1,1.0,0.23810000000025866
353,2,0.8,0.125,35.0,1,1.0,0.43470000000002074
354,2,0.2,0.25,35.0,1,1.0,0.285200000000259
355,2,0.2,0.0,35.0,1,1.0,0.29160000000001673
356,2,0.2,0.125,35.0,1,1.0,0.25840000000016516
357,2,0.2,0.125,35.0,1,1.0,0.22900000000004184
358,2,0.2,1.0,-35.0,-1,1.0,0.8221000000000913
359,2,0.2,0.0625,35.0,1,1.0,2.572200000000066
360,2,0.2,0.125,35.0,1,1.0,0.21570000000019718
361,2,0.2,0.25,35.0,1,1.0,0.27880000000027394
362,2,0.2,0.25,-35.0,-1,1.0,0.7391000000000076
363,2,0.2,0.0,35.0,-1,0.0,4.512499999999818
364,2,0.2,0.125,-35.0,1,0.0,0.14969999999993888
365,2,0.2,0.125,35.0,1,1.0,3.0597000000000207
366,2,0.2,1.0,-35.0,-1,1.0,0.6267000000002554
367,2,0.2,0.125,35.0,1,1.0,0.223700000000008
368,2,0.2,0.125,35.0,1,1.0,1.9270000000001346
369,2,0.2,1.0,-35.0,-1,1.0,0.6337000000000899
370,2,0.2,1.0,35.0,1,1.0,0.2639000000001488
371,2,0.2,1.0,35.0,1,1.0,0.26080000000001746
372,2,0.2,0.0,-35.0,-1,1.0,2.5978000000000065
373,2,0.2,0.0625,-35.0,1,0.0,0.3142000000002554
374,2,0.2,0.125,35.0,1,1.0,0.21420000000011896
375,2,0.2,0.25,35.0,1,1.0,0.5079000000000633
376,2,0.2,0.25,-35.0,-1,1.0,1.0147000000001754
377,2,0.2,1.0,35.0,1,1.0,0.4779000000000906
378,2,0.2,0.0625,35.0,1,1.0,0.4979000000000724
379,2,0.2,1.0,-35.0,-1,1.0,0.3816999999999098
380,2,0.2,0.125,35.0,1,1.0,0.4417999999998301
381,2,0.2,0.25,35.0,1,1.0,0.26480000000015025
382,2,0.2,1.0,35.0,1,1.0,0.25490000000013424
383,2,0.8,0.125,-35.0,-1,1.0,0.5788000000002285
384,2,0.8,0.25,35.0,1,1.0,0.2918000000001939
385,2,0.8,1.0,-35.0,-1,1.0,1.005500000000211
386,2,0.8,1.0,-35.0,-1,1.0,0.23880000000008295
387,2,0.8,0.125,35.0,1,1.0,0.41210000000000946
388,2,0.8,1.0,-35.0,-1,1.0,0.9788000000003194
389,2,0.8,0.0,-35.0,1,0.0,0.31900000000018736
390,2,0.8,0.0,-35.0,1,0.0,0.20910000000003492
391,2,0.8,1.0,-35.0,-1,1.0,0.14590000000021064
392,2,0.8,1.0,-35.0,-1,1.0,0.23299999999994725
393,2,0.8,0.125,-35.0,-1,1.0,0.5791999999999007
394,2,0.8,0.25,-35.0,-1,1.0,1.209400000000187
395,2,0.8,0.0625,-35.0,-1,1.0,0.35999999999989996
396,2,0.8,0.0625,-35.0,-1,1.0,3.3767999999997755
397,2,0.8,1.0,-35.0,-1,1.0,0.7998999999999796
398,2,0.8,0.0625,-35.0,-1,1.0,1.0569000000000415
399,2,0.8,0.0625,-35.0,-1,1.0,0.3005000000000564
400,2,0.8,0.0625,35.0,1,1.0,0.34699999999998
401,2,0.8,0.0,-35.0,-1,1.0,1.4002000000000407
402,2,0.8,0.125,-35.0,-1,1.0,0.23700000000008004
403,2,0.8,0.25,-35.0,-1,1.0,0.23090000000001965
404,2,0.8,1.0,-35.0,-1,1.0,0.24400000000014188
405,2,0.8,0.0625,-35.0,-1,1.0,1.713899999999967
406,2,0.8,0.125,35.0,-1,0.0,1.0980999999999312
407,2,0.8,1.0,-35.0,-1,1.0,0.2876000000001113
408,2,0.8,0.125,35.0,1,1.0,3.6609000000000833
