trial_num,session_num,stim_probability_left,contrast,position,response_choice,trial_correct,reaction_time
1,44,0.5,1.0,-35.0,-1,1.0,0.31779999999999986
2,44,0.5,0.0625,-35.0,1,0.0,0.8853999999999997
3,44,0.5,0.25,-35.0,-1,1.0,0.2646000000000015
4,44,0.5,0.0625,35.0,1,1.0,1.0686999999999998
5,44,0.5,0.25,-35.0,-1,1.0,0.18100000000000094
6,44,0.5,0.125,35.0,1,1.0,0.30760000000000076
7,44,0.5,0.125,-35.0,-1,1.0,0.232800000000001
8,44,0.5,0.125,-35.0,1,0.0,2.0165000000000006
9,44,0.5,0.0625,-35.0,-1,1.0,0.3216999999999999
10,44,0.5,0.0625,35.0,-1,0.0,0.42239999999999966
11,44,0.5,0.0,-35.0,-1,1.0,0.2219000000000051
12,44,0.5,0.25,-35.0,-1,1.0,0.18650000000000944
13,44,0.5,0.125,-35.0,-1,1.0,2.5397999999999996
14,44,0.5,0.0,35.0,-1,0.0,0.7826999999999984
15,44,0.5,0.125,-35.0,-1,1.0,0.2828000000000017
16,44,0.5,0.25,-35.0,-1,1.0,0.240000000000002
17,44,0.5,0.0625,-35.0,-1,1.0,1.2712999999999965
18,44,0.5,0.25,-35.0,-1,1.0,0.22329999999999472
19,44,0.5,0.0,-35.0,-1,1.0,0.20629999999999882
20,44,0.5,0.0625,-35.0,-1,1.0,0.05830000000000268
21,44,0.5,1.0,-35.0,-1,1.0,0.34669999999999135
22,44,0.5,0.0625,-35.0,-1,1.0,3.220100000000002
23,44,0.5,1.0,35.0,1,1.0,0.18489999999999895
24,44,0.5,0.0625,-35.0,-1,1.0,2.430499999999995
25,44,0.5,0.0625,-35.0,-1,1.0,0.06179999999999097
26,44,0.5,0.125,35.0,1,1.0,0.4420999999999964
27,44,0.5,0.25,-35.0,-1,1.0,0.22390000000000043
28,44,0.5,1.0,-35.0,-1,1.0,3.113900000000015
29,44,0.5,0.25,35.0,1,1.0,0.21389999999999532
30,44,0.5,0.25,35.0,1,1.0,0.2423999999999893
31,44,0.5,0.0625,35.0,1,1.0,0.3656999999999897
32,44,0.5,1.0,35.0,1,1.0,0.19719999999999516
33,44,0.5,0.25,-35.0,-1,1.0,5.4942999999999955
34,44,0.5,0.25,35.0,1,1.0,0.23929999999998586
35,44,0.5,0.25,35.0,1,1.0,0.1688000000000045
36,44,0.5,1.0,35.0,1,1.0,0.19770000000001176
37,44,0.5,0.25,-35.0,-1,1.0,0.2056999999999931
38,44,0.5,0.125,35.0,1,1.0,0.698599999999999
39,44,0.5,0.125,35.0,1,1.0,0.7883999999999958
40,44,0.5,0.25,-35.0,-1,1.0,0.23749999999999716
41,44,0.5,0.0625,-35.0,-1,1.0,0.11939999999998463
42,44,0.5,0.125,35.0,-1,0.0,0.12139999999999418
43,44,0.5,0.125,35.0,-1,0.0,0.6103999999999985
44,44,0.5,1.0,35.0,1,1.0,0.21539999999998827
45,44,0.5,1.0,-35.0,-1,1.0,0.6384999999999934
46,44,0.5,0.25,-35.0,-1,1.0,4.4114999999999895
47,44,0.5,0.125,35.0,1,1.0,0.2671999999999741
48,44,0.5,0.125,35.0,1,1.0,0.38779999999997017
49,44,0.5,0.0625,35.0,1,1.0,0.28299999999998704
50,44,0.5,0.0,35.0,-1,0.0,0.22980000000001155
51,44,0.5,0.25,35.0,1,1.0,0.26899999999997704
52,44,0.5,0.25,-35.0,-1,1.0,0.2009999999999934
53,44,0.5,0.125,-35.0,-1,1.0,0.2056999999999789
54,44,0.5,1.0,-35.0,-1,1.0,2.9616000000000042
55,44,0.5,0.125,-35.0,-1,1.0,0.7461999999999875
56,44,0.5,0.0,35.0,-1,0.0,0.23419999999998709
57,44,0.5,0.25,35.0,1,1.0,0.4747999999999877
58,44,0.5,0.0625,35.0,-1,0.0,4.122800000000012
59,44,0.3,0.0625,35.0,1,1.0,0.8874999999999886
60,44,0.5,1.0,35.0,1,1.0,0.24209999999996512
61,44,0.5,0.125,-35.0,-1,1.0,0.7224999999999682
62,44,0.5,1.0,35.0,1,1.0,0.24850000000000705
63,44,0.5,0.25,35.0,1,1.0,0.233099999999979
64,44,0.5,1.0,-35.0,-1,1.0,0.21299999999999386
65,44,0.5,1.0,-35.0,-1,1.0,0.23159999999998604
66,44,0.5,0.0625,-35.0,-1,1.0,0.46469999999996503
67,44,0.5,1.0,35.0,1,1.0,1.7416000000000054
68,44,0.5,0.125,-35.0,-1,1.0,0.35599999999999454
69,44,0.5,0.0625,35.0,1,1.0,0.27249999999997954
70,44,0.5,1.0,35.0,1,1.0,2.81959999999998
71,44,0.5,0.0625,-35.0,-1,1.0,2.9610000000000127
72,44,0.5,0.0625,-35.0,-1,1.0,0.028299999999973124
73,44,0.5,0.25,35.0,1,1.0,0.2173999999999694
74,44,0.5,0.0625,35.0,1,1.0,0.49260000000001014
75,44,0.5,1.0,35.0,1,1.0,0.1811999999999898
76,44,0.5,1.0,35.0,1,1.0,0.2383999999999844
77,44,0.5,0.0625,35.0,-1,0.0,0.6758000000000095
78,44,0.5,0.25,-35.0,-1,1.0,0.23140000000000782
79,44,0.5,0.25,35.0,1,1.0,0.23140000000000782
80,44,0.5,0.25,35.0,1,1.0,0.39270000000004757
81,44,0.5,0.0,-35.0,-1,1.0,1.4160999999999717
82,44,0.5,1.0,-35.0,-1,1.0,0.2624000000000706
83,44,0.5,0.25,35.0,1,1.0,0.20949999999999136
84,44,0.5,1.0,-35.0,-1,1.0,0.17029999999999745
85,44,0.5,0.125,-35.0,1,0.0,2.1914999999999623
86,44,0.5,0.25,35.0,1,1.0,0.19010000000002947
87,44,0.5,0.0625,-35.0,-1,1.0,0.41710000000006175
88,44,0.5,0.125,-35.0,-1,1.0,0.3937999999999988
89,44,0.5,0.0625,-35.0,-1,1.0,0.8654000000000224
90,44,0.5,0.25,35.0,1,1.0,0.17000000000001592
91,44,0.5,0.0,-35.0,1,0.0,0.5691000000000486
92,44,0.5,0.125,-35.0,-1,1.0,0.15809999999999036
93,44,0.5,0.0625,35.0,1,1.0,1.546100000000024
94,44,0.5,0.0,-35.0,-1,1.0,0.3258999999999901
95,44,0.5,0.25,35.0,1,1.0,0.37479999999999336
96,44,0.5,0.125,-35.0,-1,1.0,0.2498000000000502
97,44,0.5,1.0,35.0,1,1.0,0.49680000000000746
98,44,0.5,1.0,35.0,1,1.0,0.20529999999996562
99,44,0.5,0.125,35.0,1,1.0,0.296100000000024
100,44,0.5,0.125,-35.0,-1,1.0,0.2367999999999597
101,44,0.5,0.25,-35.0,1,0.0,2.0802000000000476
102,44,0.5,0.25,35.0,1,1.0,0.20290000000005648
103,44,0.5,0.25,-35.0,-1,1.0,0.21300000000002228
104,44,0.5,0.25,-35.0,-1,1.0,0.16870000000000118
105,44,0.5,1.0,-35.0,-1,1.0,0.16430000000002565
106,44,0.5,0.125,-35.0,-1,1.0,2.891900000000021
107,44,0.5,0.0,-35.0,-1,1.0,0.27410000000003265
108,44,0.5,1.0,35.0,1,1.0,0.17210000000000036
109,44,0.5,0.0625,-35.0,-1,1.0,0.25620100000003276
110,44,0.5,0.25,35.0,1,1.0,0.47310099999998556
111,44,0.5,0.0625,-35.0,-1,1.0,0.37610100000000557
112,44,0.5,0.0625,-35.0,-1,1.0,0.648001000000022
113,44,0.5,0.25,-35.0,-1,1.0,0.23900100000003022
114,44,0.5,0.0625,-35.0,-1,1.0,0.3182010000000446
115,44,0.5,0.25,35.0,1,1.0,0.5280010000000175
116,44,0.5,0.25,35.0,-1,0.0,2.597200999999984
117,44,0.5,0.25,35.0,1,1.0,0.19740100000007033
118,44,0.5,0.0,35.0,1,1.0,0.3945009999999911
119,44,0.5,0.0,35.0,1,1.0,0.4490009999999529
120,44,0.5,0.125,35.0,1,1.0,1.2429009999999607
121,44,0.5,0.125,35.0,-1,0.0,0.34850099999999884
122,44,0.5,0.125,-35.0,-1,1.0,0.34210100000001376
123,44,0.5,0.25,-35.0,-1,1.0,0.3523000000000138
124,44,0.5,0.25,-35.0,-1,1.0,0.13230100000004086
125,44,0.5,0.125,35.0,-1,0.0,3.0372010000000387
126,44,0.5,0.0625,-35.0,-1,1.0,0.4726009999999974
127,44,0.5,1.0,-35.0,-1,1.0,0.23560100000003104
128,44,0.5,0.125,-35.0,-1,1.0,0.2081009999999992
129,44,0.5,0.125,35.0,1,1.0,0.47210100000006605
130,44,0.5,0.0625,35.0,1,1.0,0.7692010000000096
131,44,0.5,0.125,-35.0,-1,1.0,0.2663010000000554
132,44,0.5,1.0,-35.0,-1,1.0,0.1911010000000033
133,44,0.5,0.0,35.0,-1,0.0,0.3035009999999829
134,44,0.5,0.25,35.0,1,1.0,0.18370100000004186
135,44,0.5,0.125,35.0,1,1.0,0.198900999999978
136,44,0.5,0.125,-35.0,-1,1.0,0.3595010000000798
137,44,0.5,0.125,35.0,1,1.0,1.4021009999999592
138,44,0.5,0.125,35.0,1,1.0,0.6091010000000097
139,44,0.5,0.25,-35.0,-1,1.0,0.1971009999999751
140,44,0.5,0.0,35.0,1,1.0,1.950601000000006
141,44,0.5,1.0,35.0,1,1.0,0.1851010000000315
142,44,0.5,0.0,35.0,1,1.0,2.38590099999999
143,44,0.5,0.125,35.0,1,1.0,0.24930100000000266
144,44,0.5,0.125,35.0,1,1.0,0.2817009999999982
145,44,0.5,0.0625,-35.0,1,0.0,0.19870100000002822
146,44,0.5,0.25,-35.0,-1,1.0,0.19500099999999065
147,44,0.5,0.0625,-35.0,1,0.0,2.19070099999999
148,44,0.5,0.25,35.0,1,1.0,0.18780100000003586
149,44,0.5,0.25,35.0,1,1.0,0.5346010000000092
150,44,0.5,0.0,35.0,1,1.0,0.281900999999948
151,44,0.5,0.25,35.0,1,1.0,0.3083010000000286
152,44,0.5,0.25,-35.0,-1,1.0,0.2367009999999823
153,44,0.5,0.0625,-35.0,1,0.0,2.1132010000000037
154,44,0.5,0.125,-35.0,1,0.0,0.34220099999998865
155,44,0.5,0.25,-35.0,-1,1.0,0.22320099999996046
156,44,0.5,0.25,35.0,1,1.0,0.21170100000000502
157,44,0.5,1.0,35.0,1,1.0,0.2587010000000305
158,44,0.5,0.25,35.0,1,1.0,0.6407009999999786
159,44,0.5,0.0625,35.0,-1,0.0,1.805900999999949
160,44,0.7,0.0625,-35.0,-1,1.0,0.2492010000000846
161,44,0.5,1.0,-35.0,-1,1.0,0.2133010000000013
162,44,0.5,0.0625,-35.0,-1,1.0,7.052401000000032
163,44,0.5,0.125,35.0,1,1.0,0.5721010000000888
164,44,0.5,1.0,35.0,1,1.0,0.3544009999999389
165,44,0.5,0.125,-35.0,-1,1.0,0.350900999999908
166,44,0.5,1.0,35.0,1,1.0,0.3925009999999247
167,44,0.5,0.0625,-35.0,-1,1.0,2.063400999999999
168,44,0.5,0.125,35.0,1,1.0,0.5243010000000368
169,44,0.5,0.25,-35.0,-1,1.0,0.20520100000010189
170,44,0.5,0.25,-35.0,-1,1.0,0.07920100000012553
171,44,0.5,0.0625,-35.0,-1,1.0,0.45990099999994527
172,44,0.5,1.0,35.0,1,1.0,0.23490100000003622
173,44,0.5,1.0,-35.0,-1,1.0,0.18360100000006696
174,44,0.5,0.0625,35.0,1,1.0,0.2857010000000173
175,44,0.5,0.0,-35.0,-1,1.0,0.3484009999999671
176,44,0.5,0.0625,-35.0,-1,1.0,0.24440100000003895
177,44,0.5,0.25,-35.0,-1,1.0,2.1776009999999815
178,44,0.5,0.125,-35.0,-1,1.0,0.2034009999999853
179,44,0.5,0.0625,35.0,1,1.0,1.3565010000000939
180,44,0.5,0.125,35.0,1,1.0,0.4734009999999671
181,44,0.5,0.125,-35.0,-1,1.0,0.20740100000011807
182,44,0.5,1.0,35.0,-1,0.0,0.06520100000000184
183,44,0.5,0.25,35.0,1,1.0,0.19450099999994563
184,44,0.5,0.25,-35.0,-1,1.0,0.21390099999996437
185,44,0.5,0.25,35.0,1,1.0,1.1348010000001523
186,44,0.5,1.0,-35.0,-1,1.0,0.08550099999990834
187,44,0.5,1.0,35.0,1,1.0,0.21410099999991417
188,44,0.5,0.125,35.0,-1,0.0,0.3015010000000302
189,44,0.5,0.125,-35.0,-1,1.0,0.2651010000000724
190,44,0.5,1.0,-35.0,-1,1.0,1.0441010000000688
191,44,0.5,0.25,35.0,1,1.0,0.36760100000003604
192,44,0.5,0.0625,35.0,-1,0.0,0.7596010000000888
193,44,0.5,0.0625,-35.0,-1,1.0,0.1786010000000715
194,44,0.5,0.0,35.0,-1,0.0,0.3586010000000215
195,44,0.5,0.125,35.0,1,1.0,0.24290099999996073
196,44,0.5,0.125,35.0,-1,0.0,0.6112009999999373
197,44,0.3,0.125,-35.0,-1,1.0,0.17760099999998147
198,44,0.5,1.0,35.0,1,1.0,1.2601009999999633
199,44,0.5,0.0625,-35.0,-1,1.0,1.910400999999979
200,44,0.5,0.25,-35.0,-1,1.0,0.29870100000005095
201,44,0.5,0.25,35.0,1,1.0,3.6722009999999727
202,44,0.5,0.125,35.0,1,1.0,0.44860099999993963
203,44,0.5,1.0,35.0,1,1.0,0.19060099999990143
204,44,0.5,1.0,35.0,1,1.0,0.7658010000000104
205,44,0.5,1.0,35.0,1,1.0,0.31490100000007715
206,44,0.5,0.125,35.0,1,1.0,0.33270100000004277
207,44,0.5,0.125,35.0,-1,0.0,1.343101000000047
208,44,0.7,0.125,-35.0,-1,1.0,0.28290100000003804
209,44,0.5,1.0,-35.0,-1,1.0,0.2172009999999318
210,44,0.5,0.0,-35.0,-1,1.0,5.48780099999999
211,44,0.5,0.0625,35.0,-1,0.0,0.17770100000007005
212,44,0.5,0.0625,35.0,-1,0.0,0.3438009999999849
213,44,0.5,0.0625,35.0,-1,0.0,0.20680099999992763
214,44,0.5,0.0625,-35.0,-1,1.0,0.2761010000000397
215,44,0.5,1.0,-35.0,-1,1.0,0.19010099999991326
216,44,0.5,0.125,-35.0,-1,1.0,0.23780099999999038
217,44,0.5,1.0,35.0,1,1.0,3.2228009999998903
218,44,0.5,1.0,35.0,1,1.0,0.23380099999997128
219,44,0.5,0.25,35.0,1,1.0,0.5619010000000344
220,44,0.5,0.25,-35.0,-1,1.0,0.22700099999997292
221,44,0.5,0.125,35.0,1,1.0,0.24100099999998292
222,44,0.5,0.25,-35.0,-1,1.0,0.6528010000000677
223,44,0.5,0.25,35.0,1,1.0,0.40410099999996874
224,44,0.5,0.0,-35.0,-1,1.0,0.2801010000000588
225,44,0.5,0.125,-35.0,-1,1.0,0.2357009999999491
226,44,0.5,0.0625,35.0,-1,0.0,0.4955009999999902
227,44,0.5,0.125,-35.0,-1,1.0,0.1789009999999962
228,44,0.5,0.0625,-35.0,-1,1.0,0.23800100000005386
229,44,0.5,0.125,35.0,1,1.0,2.744901000000027
230,44,0.5,0.25,-35.0,-1,1.0,0.9536010000000488
231,44,0.5,0.0625,-35.0,1,0.0,0.21580099999994218
232,44,0.5,0.25,35.0,1,1.0,0.19390100000009625
233,44,0.5,1.0,-35.0,-1,1.0,0.2756010000000515
234,44,0.5,0.25,35.0,-1,0.0,0.17350100000010116
235,44,0.5,0.25,-35.0,-1,1.0,0.23680100000001403
236,44,0.5,0.0625,35.0,1,1.0,0.2494010000000344
237,44,0.5,0.25,35.0,1,1.0,0.32090100000004895
238,44,0.5,0.125,35.0,1,1.0,2.392801000000077
239,44,0.5,0.125,35.0,1,1.0,0.2550010000001066
240,44,0.5,0.0,35.0,-1,0.0,3.8807010000000446
241,44,0.5,0.25,35.0,1,1.0,0.3300010000000384
242,44,0.5,0.125,-35.0,-1,1.0,0.2512010000000373
243,44,0.5,0.0625,35.0,1,1.0,0.3101010000000315
244,44,0.5,0.0625,35.0,1,1.0,0.49620099999992817
245,44,0.5,0.0,35.0,-1,0.0,0.27810100000010607
246,44,0.7,0.0,35.0,-1,0.0,0.2653010000000222
247,44,0.5,1.0,-35.0,-1,1.0,0.1926010000000815
248,44,0.5,0.0625,-35.0,-1,1.0,0.3285010000000739
249,44,0.5,1.0,-35.0,-1,1.0,0.18630100000007133
250,44,0.5,0.0625,35.0,1,1.0,0.6425010000000384
251,44,0.5,0.0,35.0,-1,0.0,0.2251009999999951
252,44,0.5,0.0625,-35.0,-1,1.0,0.23600100000010116
253,44,0.5,0.25,-35.0,-1,1.0,0.24280099999998583
254,44,0.5,0.125,35.0,1,1.0,0.2892010000000482
255,44,0.5,1.0,-35.0,-1,1.0,0.275400999999988
256,44,0.5,0.25,35.0,1,1.0,0.30260099999998147
257,44,0.5,0.125,-35.0,-1,1.0,0.9841010000000097
258,44,0.5,0.0,-35.0,-1,1.0,0.2959010000000717
259,44,0.5,1.0,-35.0,-1,1.0,0.22600099999999657
260,44,0.5,1.0,35.0,1,1.0,0.362500999999952
261,44,0.5,0.25,35.0,1,1.0,0.28920099999993454
262,44,0.5,0.25,-35.0,-1,1.0,0.5472009999999727
263,44,0.5,1.0,-35.0,-1,1.0,0.21850100000006023
264,44,0.5,1.0,35.0,1,1.0,0.2092010000000073
265,44,0.5,1.0,35.0,1,1.0,0.20760099999995418
266,44,0.5,1.0,35.0,1,1.0,0.20540100000005168
267,44,0.5,0.0625,35.0,1,1.0,0.19020100000000184
268,44,0.5,1.0,-35.0,-1,1.0,0.333800999999994
269,44,0.5,0.0,35.0,1,1.0,2.39750099999992
270,44,0.5,1.0,-35.0,-1,1.0,0.16300100000012208
271,44,0.5,0.0625,-35.0,-1,1.0,0.2856010000000424
272,44,0.5,1.0,-35.0,-1,1.0,0.23070099999995364
273,44,0.5,1.0,-35.0,-1,1.0,0.18860099999994873
274,44,0.5,0.0,-35.0,-1,1.0,0.2512010000000373
275,44,0.5,1.0,-35.0,-1,1.0,0.20030100000008133
276,44,0.5,0.0,-35.0,-1,1.0,1.6077010000001337
277,44,0.5,1.0,-35.0,-1,1.0,0.2373010000001159
278,44,0.5,0.0,35.0,1,1.0,0.6343010000000504
279,44,0.5,0.25,-35.0,-1,1.0,0.5308010000001104
280,44,0.5,0.125,35.0,1,1.0,0.2530010000000402
281,44,0.5,0.25,-35.0,-1,1.0,0.1909010000000535
282,44,0.5,0.25,35.0,1,1.0,0.7267010000000482
283,44,0.5,0.25,-35.0,-1,1.0,0.1829010000000153
284,44,0.5,0.0,-35.0,-1,1.0,0.19330100000001949
285,44,0.5,0.25,-35.0,-1,1.0,0.21960100000012517
286,44,0.5,0.125,-35.0,-1,1.0,1.4213009999999713
287,44,0.5,1.0,-35.0,-1,1.0,0.22980099999995218
288,44,0.5,0.0625,35.0,1,1.0,0.2877010000000837
289,44,0.5,1.0,35.0,1,1.0,0.2173010000000204
290,44,0.5,0.0,35.0,1,1.0,0.39760100000000875
291,44,0.5,0.0,-35.0,1,0.0,0.7253010000000586
292,44,0.5,0.0,35.0,-1,0.0,0.21970099999998638
293,44,0.5,1.0,35.0,1,1.0,0.22420099999999366
294,44,0.5,0.0625,35.0,-1,0.0,2.0514010000000553
295,44,0.5,0.125,-35.0,-1,1.0,0.1485010000000102
296,44,0.5,1.0,35.0,1,1.0,0.18640100000004622
297,44,0.5,1.0,-35.0,-1,1.0,0.10370100000000093
298,44,0.5,1.0,-35.0,-1,1.0,0.19440100000008442
299,44,0.5,1.0,35.0,1,1.0,0.4878009999999904
300,44,0.5,0.25,-35.0,1,0.0,0.15650099999993472
301,44,0.5,0.125,-35.0,-1,1.0,0.21960100000001148
302,44,0.5,1.0,-35.0,-1,1.0,0.2131010000000515
303,44,0.5,0.125,35.0,1,1.0,0.40740100000004986
304,44,0.5,0.25,35.0,1,1.0,0.2934010000000171
305,44,0.5,1.0,35.0,1,1.0,0.293500999999992
306,44,0.5,1.0,35.0,1,1.0,0.255600999999956
307,44,0.5,0.25,35.0,1,1.0,0.31300099999998565
308,44,0.5,0.125,35.0,1,1.0,1.124501000000123
309,44,0.5,0.0,35.0,-1,0.0,2.9514010000000326
310,44,0.5,0.125,-35.0,-1,1.0,0.27860099999998056
311,44,0.5,0.0,-35.0,1,0.0,0.9485010000000784
312,44,0.5,0.0,-35.0,1,0.0,0.30500100000006114
313,44,0.5,0.0,35.0,-1,0.0,5.595500999999899
314,44,0.5,0.25,-35.0,-1,1.0,0.18260099999974955
315,44,0.5,0.0625,-35.0,-1,1.0,0.5757009999999809
316,44,0.5,1.0,35.0,1,1.0,0.21250099999997474
317,44,0.5,0.0625,35.0,-1,0.0,2.522800999999845
318,44,0.4,0.0625,35.0,-1,0.0,0.21260099999994964
319,44,0.5,1.0,-35.0,-1,1.0,0.19660099999987324
320,44,0.5,1.0,35.0,1,1.0,0.2232010000000173
321,44,0.5,0.125,35.0,1,1.0,0.25320099999976264
322,44,0.5,0.25,35.0,1,1.0,4.749800999999934
323,44,0.5,0.0625,35.0,1,1.0,0.28690099999994345
324,44,0.5,0.0625,-35.0,-1,1.0,0.2677009999999882
325,44,0.5,0.125,-35.0,-1,1.0,0.5237009999998463
326,44,0.5,0.25,-35.0,-1,1.0,0.26070099999992635
327,44,0.5,1.0,-35.0,-1,1.0,0.19380099999989397
328,44,0.5,0.25,35.0,1,1.0,1.780600999999706
329,44,0.5,0.0,-35.0,-1,1.0,0.3647009999999682
330,44,0.5,0.0,35.0,-1,0.0,0.5878010000001268
331,44,0.5,0.125,-35.0,-1,1.0,0.21470099999987724
332,44,0.5,0.25,35.0,1,1.0,0.2319009999998798
333,44,0.5,1.0,35.0,1,1.0,4.474700999999641
334,44,0.5,0.0,-35.0,1,0.0,0.6383009999999558
335,44,0.5,0.0,-35.0,-1,1.0,0.3586009999999078
336,44,0.5,1.0,35.0,1,1.0,0.332100999999966
337,44,0.5,0.125,-35.0,-1,1.0,0.27890099999990525
338,44,0.5,0.25,-35.0,-1,1.0,0.20940100000007078
339,44,0.5,0.25,-35.0,-1,1.0,0.21230100000002494
340,44,0.5,0.0,-35.0,-1,1.0,1.4023009999998521
341,44,0.5,0.0625,35.0,1,1.0,0.25930099999982303
342,44,0.5,1.0,35.0,1,1.0,0.22920099999987542
343,44,0.5,0.0,35.0,-1,0.0,2.952801000000136
344,44,0.5,0.25,-35.0,-1,1.0,0.4430010000000948
345,44,0.5,0.25,35.0,1,1.0,0.36980099999982485
346,44,0.5,0.25,35.0,1,1.0,0.50320099999999
347,44,0.5,0.125,35.0,1,1.0,0.5398009999998976
348,44,0.5,1.0,35.0,1,1.0,0.2534009999999398
349,44,0.5,0.0625,35.0,-1,0.0,0.19690099999979793
350,44,0.5,0.25,-35.0,-1,1.0,0.21380099999987578
351,44,0.5,1.0,35.0,1,1.0,0.21390099999985068
352,44,0.5,0.125,35.0,1,1.0,0.27730099999985214
353,44,0.5,0.25,35.0,1,1.0,1.0407010000001264
354,44,0.5,0.0,35.0,-1,0.0,2.464101000000028
355,44,0.5,0.25,35.0,1,1.0,0.24800100000015846
356,44,0.5,1.0,-35.0,-1,1.0,0.30120099999999184
357,44,0.5,0.0625,35.0,1,1.0,0.5913009999999304
358,44,0.5,1.0,35.0,1,1.0,0.5447009999998045
359,44,0.5,0.125,-35.0,-1,1.0,0.6019009999997706
360,44,0.5,0.25,35.0,1,1.0,0.2014009999998052
361,44,0.5,0.25,35.0,1,1.0,0.27490099999999984
362,44,0.5,0.125,-35.0,-1,1.0,0.20840099999986705
363,44,0.5,0.25,35.0,1,1.0,1.4320009999999002
364,44,0.5,0.0625,35.0,-1,0.0,0.41850099999987833
365,44,0.5,0.125,-35.0,-1,1.0,0.2554009999998925
366,44,0.5,0.0625,35.0,1,1.0,0.2922009999999773
367,44,0.5,0.0625,-35.0,1,0.0,3.1824009999997998
368,44,0.5,0.125,35.0,-1,0.0,0.21910099999990962
369,44,0.5,0.125,35.0,1,1.0,0.6028009999997721
370,44,0.5,0.0,-35.0,-1,1.0,3.856200999999828
371,44,0.5,0.0,-35.0,1,0.0,0.2339009999998325
372,44,0.5,0.0625,35.0,-1,0.0,0.30340099999989434
373,44,0.5,0.0625,-35.0,-1,1.0,0.2133010000000013
374,44,0.5,1.0,35.0,1,1.0,0.27680099999997765
375,44,0.5,0.125,35.0,1,1.0,0.4071010000000115
376,44,0.5,0.125,-35.0,-1,1.0,0.23700099999996382
377,44,0.5,0.0625,-35.0,-1,1.0,0.36380099999996673
378,44,0.5,0.25,-35.0,-1,1.0,0.19710099999974773
379,44,0.5,0.25,-35.0,-1,1.0,0.2341009999997823
380,44,0.5,1.0,35.0,1,1.0,0.3144009999998616
381,44,0.5,0.0625,35.0,-1,0.0,0.284300999999914
382,44,0.5,0.0625,35.0,-1,0.0,0.41800100000000384
383,44,0.5,0.0625,35.0,1,1.0,0.27490099999977247
384,44,0.5,0.25,-35.0,-1,1.0,0.20460099999991144
385,44,0.5,1.0,35.0,1,1.0,0.3949009999998907
386,44,0.5,0.0,35.0,-1,0.0,3.4315009999997983
387,44,0.5,0.0625,-35.0,-1,1.0,0.21850099999983286
388,44,0.5,0.0625,-35.0,-1,1.0,0.20880099999999402
389,44,0.5,1.0,-35.0,-1,1.0,0.1887010000000373
390,44,0.5,0.125,-35.0,-1,1.0,0.28550099999984013
391,44,0.5,0.0,-35.0,-1,1.0,0.2957010000000082
392,44,0.5,1.0,-35.0,-1,1.0,0.07580099999995582
393,44,0.5,0.25,35.0,-1,0.0,2.4660010000000057
394,44,0.5,0.125,35.0,1,1.0,0.2462009999997008
395,44,0.5,0.125,35.0,1,1.0,0.5294009999997797
396,44,0.5,0.0625,-35.0,-1,1.0,0.33330099999989216
397,44,0.5,1.0,35.0,1,1.0,0.23970099999974082
398,44,0.5,0.0,35.0,-1,0.0,1.1332009999998718
399,44,0.5,0.0625,-35.0,-1,1.0,2.3867009999996753
400,44,0.5,0.0625,-35.0,-1,1.0,0.27050099999996746
401,44,0.5,1.0,35.0,1,1.0,0.2473010000001068
402,44,0.5,0.125,-35.0,-1,1.0,2.1207009999998263
403,44,0.5,0.0625,35.0,1,1.0,0.8606010000000879
404,44,0.5,0.125,35.0,1,1.0,0.8007009999996626
405,44,0.5,0.25,35.0,-1,0.0,0.32740099999978156
406,44,0.4,0.25,-35.0,-1,1.0,0.2578009999999722
407,44,0.5,1.0,-35.0,-1,1.0,0.18780099999980848
408,44,0.5,0.25,35.0,1,1.0,0.24140099999976883
409,44,0.5,0.0,-35.0,-1,1.0,0.318400999999767
410,44,0.5,0.125,35.0,1,1.0,0.624800999999934
411,44,0.5,0.25,-35.0,-1,1.0,0.30150099999991653
412,44,0.5,0.25,-35.0,-1,1.0,0.19840099999987615
413,44,0.5,1.0,35.0,1,1.0,0.2154009999999289
414,44,0.5,0.25,-35.0,-1,1.0,0.28880099999992126
415,44,0.5,0.0625,35.0,-1,0.0,4.409300999999914
416,44,0.5,0.0625,-35.0,-1,1.0,0.2357009999998354
417,44,0.5,0.125,-35.0,-1,1.0,0.2494010000000344
418,44,0.5,0.0625,-35.0,-1,1.0,0.29260100000010425
419,44,0.5,0.125,35.0,1,1.0,0.4795009999998001
420,44,0.5,1.0,35.0,1,1.0,0.17970100000002276
421,44,0.5,0.0625,35.0,1,1.0,0.21640099999990525
422,44,0.5,0.0625,35.0,1,1.0,0.6035009999998238
423,44,0.5,0.25,-35.0,-1,1.0,0.1734009999997852
424,44,0.5,0.0,-35.0,-1,1.0,2.683800999999903
425,44,0.5,1.0,-35.0,-1,1.0,0.1807009999999991
426,44,0.5,0.25,35.0,1,1.0,1.7141009999998005
427,44,0.5,0.0625,-35.0,-1,1.0,0.28770099999997
428,44,0.5,0.0,-35.0,1,0.0,0.6339009999999234
429,44,0.6,0.0,-35.0,-1,1.0,0.2441009999997732
430,44,0.5,1.0,35.0,1,1.0,0.2609010000001035
431,44,0.5,0.25,-35.0,-1,1.0,0.19440099999997074
432,44,0.5,0.0,-35.0,-1,1.0,0.21460099999990234
433,44,0.5,0.0625,35.0,-1,0.0,0.3914009999998598
434,44,0.3,0.0625,35.0,-1,0.0,2.864800999999943
435,44,0.5,1.0,35.0,1,1.0,0.7284009999998489
436,44,0.5,0.125,-35.0,-1,1.0,0.21860099999980775
437,44,0.5,0.25,-35.0,-1,1.0,0.22570100000007187
438,44,0.5,0.125,35.0,1,1.0,0.2556009999998423
439,44,0.5,0.0625,-35.0,-1,1.0,0.6557009999999082
440,44,0.5,0.0625,35.0,1,1.0,0.6826009999997495
441,44,0.5,0.125,-35.0,-1,1.0,5.799400999999989
442,44,0.5,0.0625,35.0,-1,0.0,2.109600999999884
443,44,0.5,0.0,-35.0,-1,1.0,0.30650100000002567
444,44,0.5,0.0,-35.0,-1,1.0,1.1499009999997725
445,44,0.5,0.125,35.0,1,1.0,0.26010100000007697
446,44,0.5,0.125,35.0,1,1.0,0.5768009999997048
447,44,0.5,0.0625,-35.0,-1,1.0,0.26700099999993654
448,44,0.5,0.0625,-35.0,-1,1.0,0.2737009999998463
449,44,0.5,0.125,35.0,1,1.0,0.3208009999998467
450,44,0.5,0.125,35.0,1,1.0,1.1007009999998445
451,44,0.5,0.0625,-35.0,-1,1.0,0.17740099999991799
452,44,0.5,0.125,35.0,-1,0.0,0.4978009999997539
453,44,0.5,0.125,35.0,1,1.0,0.28120100000001
454,44,0.5,0.125,-35.0,-1,1.0,0.21450099999992744
455,44,0.5,0.0625,-35.0,-1,1.0,2.984800999999834
456,44,0.5,0.0625,-35.0,-1,1.0,0.26820100000009006
457,44,0.5,0.125,-35.0,-1,1.0,0.17850099999986924
458,44,0.5,1.0,-35.0,-1,1.0,0.20190100000013445
459,44,0.5,0.0,35.0,-1,0.0,2.858601000000135
460,44,0.5,0.25,-35.0,-1,1.0,0.24220100000002276
461,44,0.5,0.25,35.0,1,1.0,0.5790009999998347
462,44,0.5,1.0,35.0,1,1.0,0.42590099999983977
463,44,0.5,0.125,-35.0,-1,1.0,0.2660009999997328
464,44,0.5,0.0625,-35.0,-1,1.0,1.1094009999999344
465,44,0.5,0.25,35.0,1,1.0,0.5062009999999191
466,44,0.5,0.125,-35.0,-1,1.0,0.20980099999997037
467,44,0.5,0.0,-35.0,-1,1.0,0.38000099999976555
468,44,0.5,0.0,35.0,1,1.0,0.6933009999997921
469,44,0.5,0.0,35.0,1,1.0,1.5634009999998852
470,44,0.5,0.0625,-35.0,-1,1.0,0.20370099999990998
471,44,0.5,1.0,-35.0,-1,1.0,0.19380099999989397
472,44,0.5,0.0625,-35.0,-1,1.0,0.4439009999998689
473,44,0.5,1.0,-35.0,-1,1.0,0.1672009999997499
474,44,0.5,0.0625,35.0,1,1.0,0.24740099999962695
475,44,0.5,0.125,-35.0,-1,1.0,0.6842009999998027
476,44,0.5,0.25,-35.0,-1,1.0,0.22760100000004968
477,44,0.5,0.0625,35.0,-1,0.0,0.1611009999999169
478,44,0.5,0.25,-35.0,-1,1.0,0.21120099999984632
479,44,0.5,1.0,-35.0,-1,1.0,0.19470099999989543
480,44,0.5,0.125,-35.0,-1,1.0,0.1715009999998074
481,44,0.5,0.0625,35.0,1,1.0,3.925100999999813
482,44,0.5,1.0,-35.0,-1,1.0,0.18510099999980412
483,44,0.5,0.25,-35.0,-1,1.0,0.22210099999983868
484,44,0.5,1.0,-35.0,-1,1.0,0.22210100000006605
485,44,0.5,0.25,-35.0,-1,1.0,0.8855009999999766
486,44,0.5,1.0,35.0,1,1.0,0.26240099999995437
487,44,0.5,0.125,-35.0,-1,1.0,0.23910099999989143
488,44,0.5,1.0,-35.0,-1,1.0,0.1793009999998958
489,44,0.5,0.0625,35.0,-1,0.0,0.6560009999998329
490,44,0.5,0.0625,35.0,-1,0.0,0.19960100000002967
491,44,0.5,0.125,-35.0,-1,1.0,0.2331010000000333
492,44,0.5,1.0,-35.0,-1,1.0,0.1932009999998172
493,44,0.5,1.0,-35.0,-1,1.0,0.7267010000000482
494,44,0.5,0.125,35.0,1,1.0,0.6502009999996972
495,44,0.5,1.0,-35.0,-1,1.0,0.20030099999985396
496,44,0.5,1.0,35.0,1,1.0,0.21040099999981976
497,44,0.5,1.0,35.0,1,1.0,0.570500999999922
498,44,0.5,0.0625,-35.0,-1,1.0,0.2072009999999409
499,44,0.5,1.0,35.0,1,1.0,0.21070099999974445
500,44,0.5,1.0,-35.0,-1,1.0,0.03760099999999511
501,44,0.5,0.125,-35.0,-1,1.0,0.22120099999983722
502,44,0.5,0.0625,35.0,-1,0.0,0.24460099999987506
503,44,0.5,0.125,-35.0,-1,1.0,0.20150100000000748
504,44,0.5,1.0,35.0,1,1.0,0.28490099999999074
505,44,0.5,0.25,-35.0,-1,1.0,0.22500099999979284
506,44,0.5,0.125,35.0,1,1.0,0.4518009999999322
507,44,0.5,1.0,-35.0,-1,1.0,0.18860099999983504
508,44,0.5,0.125,35.0,1,1.0,0.2787009999997281
509,44,0.5,0.25,35.0,-1,0.0,2.042300999999952
510,44,0.5,0.125,-35.0,-1,1.0,0.2156009999998787
511,44,0.5,0.25,35.0,1,1.0,0.9324009999997998
512,44,0.5,0.25,-35.0,-1,1.0,0.26250099999992926
513,44,0.5,0.125,-35.0,-1,1.0,0.2393010000000686
514,44,0.5,1.0,35.0,1,1.0,1.399400999999898
515,44,0.5,0.0,-35.0,-1,1.0,0.8995009999998729
516,44,0.5,0.25,-35.0,-1,1.0,0.2764009999998507
517,44,0.5,1.0,-35.0,-1,1.0,0.17990099999974518
518,44,0.5,0.0,-35.0,-1,1.0,0.27660100000002785
519,44,0.5,0.25,35.0,1,1.0,1.3167009999999664
520,44,0.5,0.125,35.0,1,1.0,0.26020100000005186
521,44,0.5,0.0625,35.0,-1,0.0,0.19700099999977283
522,44,0.5,0.125,-35.0,-1,1.0,0.23380100000008497
523,44,0.5,0.25,35.0,1,1.0,0.5172009999998863
524,44,0.5,0.0625,35.0,-1,0.0,0.37410099999988233
525,44,0.5,0.0625,35.0,-1,0.0,0.34090100000003076
526,44,0.3,0.0625,35.0,-1,0.0,3.061001000000033
527,44,0.5,1.0,-35.0,-1,1.0,0.19120100000009188
528,44,0.5,0.0625,35.0,1,1.0,1.1382009999997535
529,44,0.5,1.0,-35.0,-1,1.0,0.23830099999986487
530,44,0.5,0.0625,-35.0,-1,1.0,0.9917009999999209
531,44,0.5,0.125,35.0,1,1.0,0.7818009999998594
532,44,0.5,1.0,-35.0,-1,1.0,0.22190099999988888
533,44,0.5,1.0,35.0,1,1.0,2.6221009999997023
534,44,0.5,0.0,-35.0,-1,1.0,0.2056009999998878
535,44,0.5,0.25,35.0,1,1.0,0.35900100000003476
536,44,0.5,0.25,-35.0,-1,1.0,0.4657009999998536
537,44,0.5,1.0,35.0,1,1.0,1.0926010000000588
538,44,0.5,0.0625,-35.0,-1,1.0,0.21270099999992453
539,44,0.5,0.0625,35.0,1,1.0,0.7196010000000115
540,44,0.5,0.125,-35.0,-1,1.0,0.24290100000007442
541,44,0.5,0.0,35.0,-1,0.0,0.22640099999989616
542,44,0.5,0.0625,-35.0,-1,1.0,0.2599009999998998
543,44,0.5,0.25,35.0,1,1.0,0.5266009999998005
544,44,0.5,0.125,35.0,1,1.0,1.593400999999858
545,44,0.5,0.25,35.0,1,1.0,0.27690099999995255
546,44,0.5,1.0,35.0,1,1.0,0.2937010000000555
547,44,0.5,0.125,35.0,-1,0.0,0.24380100000007587
548,44,0.5,0.125,35.0,-1,0.0,0.28070099999990816
549,44,0.5,1.0,35.0,-1,0.0,0.2442009999997481
550,44,0.5,0.0,-35.0,-1,1.0,0.28090099999985796
551,44,0.5,0.0625,-35.0,-1,1.0,0.3144009999998616
552,44,0.5,1.0,35.0,1,1.0,0.3511009999997441
553,44,0.5,0.0625,35.0,-1,0.0,0.21150099999999838
554,44,0.5,0.125,-35.0,-1,1.0,0.211500999999771
555,44,0.5,0.125,-35.0,-1,1.0,0.19170099999996637
556,44,0.5,0.25,-35.0,-1,1.0,0.17870099999981903
557,44,0.5,0.0625,35.0,-1,0.0,0.3187009999999191
558,44,0.5,0.25,35.0,1,1.0,0.312300999999934
559,44,0.5,1.0,35.0,1,1.0,0.26900099999988925
560,44,0.5,0.0625,-35.0,-1,1.0,0.1992009999999027
561,44,0.5,1.0,35.0,1,1.0,0.22270099999991544
562,44,0.5,0.0625,35.0,-1,0.0,2.622900999999729
563,44,0.5,0.0,-35.0,-1,1.0,0.376500999999962
564,44,0.5,0.0625,35.0,1,1.0,0.2868009999997412
565,44,0.5,0.125,-35.0,-1,1.0,0.2234009999999671
566,44,0.5,0.25,-35.0,-1,1.0,0.5234009999999216
567,44,0.5,1.0,-35.0,-1,1.0,0.21040099999981976
568,44,0.5,1.0,35.0,1,1.0,0.7705009999997401
569,44,0.5,0.125,-35.0,-1,1.0,0.21070099999997183
570,44,0.5,0.0625,-35.0,1,0.0,0.13740099999995437
571,44,0.4,0.0625,-35.0,-1,1.0,0.27760099999977683
572,44,0.5,1.0,-35.0,-1,1.0,0.2377009999997881
573,44,0.5,0.25,-35.0,-1,1.0,0.22780099999999948
574,44,0.5,0.25,35.0,-1,0.0,0.877900999999838
575,44,0.5,0.0625,-35.0,-1,1.0,0.23470099999985905
576,44,0.5,0.0,-35.0,-1,1.0,2.0349009999997634
577,44,0.5,0.0625,35.0,-1,0.0,0.6052010000000791
578,44,0.2,0.0625,35.0,-1,0.0,0.3486009999999169
579,44,0.5,1.0,35.0,1,1.0,0.2254009999999198
580,44,0.5,0.0625,35.0,-1,0.0,2.1790009999997437
581,44,0.5,0.0,35.0,1,1.0,1.9793009999998503
582,44,0.5,1.0,35.0,1,1.0,0.38610099999982594
583,44,0.5,0.125,-35.0,-1,1.0,0.2762009999999009
584,44,0.5,0.25,-35.0,-1,1.0,0.6697009999995771
585,44,0.5,0.0625,35.0,-1,0.0,0.44970100000000457
586,44,0.3,0.0625,35.0,-1,0.0,0.336500999999771
587,44,0.5,1.0,35.0,1,1.0,0.3567009999997026
588,44,0.5,0.0625,35.0,-1,0.0,2.5101010000003043
589,44,0.5,0.125,-35.0,-1,1.0,0.22370100000034654
590,44,0.5,0.0625,-35.0,-1,1.0,0.9941010000002279
591,44,0.5,0.0625,35.0,1,1.0,0.8172009999998409
592,44,0.5,1.0,35.0,1,1.0,0.24750100000028397
593,44,0.5,0.0625,-35.0,1,0.0,4.454400999999962
594,44,0.5,0.25,35.0,1,1.0,0.3646009999997659
595,44,0.5,0.0625,-35.0,-1,1.0,0.4147010000001501
596,44,0.5,1.0,-35.0,-1,1.0,0.28150100000038947
597,44,0.5,0.0625,35.0,1,1.0,0.8348010000004251
598,44,0.5,0.25,-35.0,-1,1.0,0.6782009999997172
599,44,0.5,0.0625,-35.0,-1,1.0,0.43180100000017774
600,44,0.5,0.0625,35.0,1,1.0,0.47520100000065213
601,44,0.5,0.25,35.0,1,1.0,0.6887010000000373
602,44,0.5,0.125,35.0,1,1.0,2.5955010000002403
603,44,0.5,1.0,35.0,1,1.0,0.2490010000001348
604,44,0.5,0.125,35.0,1,1.0,3.3258010000004106
605,44,0.5,1.0,-35.0,-1,1.0,0.23270099999990634
606,44,0.5,0.0625,35.0,-1,0.0,3.0762009999998554
607,44,0.5,0.25,35.0,1,1.0,0.4664010000001326
608,44,0.5,1.0,35.0,1,1.0,0.34320100000013554
609,44,0.5,0.0625,35.0,1,1.0,0.2699010000001181
610,44,0.5,0.0625,-35.0,-1,1.0,0.2734009999999216
611,44,0.5,0.25,-35.0,-1,1.0,0.21680100000003222
612,44,0.5,0.125,35.0,-1,0.0,5.550301000000218
613,44,0.5,0.125,35.0,-1,0.0,0.45060100000046077
614,44,0.5,0.0625,35.0,1,1.0,0.7008010000004106
615,44,0.5,0.0,-35.0,-1,1.0,4.641001000000415
616,44,0.5,0.0,35.0,1,1.0,0.2512010000000373
617,44,0.5,1.0,-35.0,-1,1.0,0.4114009999998416
618,44,0.5,0.125,-35.0,-1,1.0,0.24810100000013335
619,44,0.5,0.125,35.0,1,1.0,0.7348010000000613
620,44,0.5,0.125,35.0,1,1.0,0.2584009999995942
621,44,0.5,0.0625,35.0,-1,0.0,1.1785009999998692
622,44,0.4,0.0625,35.0,-1,0.0,0.28540100000054736
623,44,0.5,1.0,35.0,1,1.0,0.6323010000000977
624,44,0.5,1.0,35.0,1,1.0,0.40590100000008533
625,44,0.5,0.0,35.0,1,1.0,0.3558010000001559
626,44,0.5,1.0,-35.0,-1,1.0,0.24620099999992817
627,44,0.5,1.0,35.0,1,1.0,0.40610100000003513
628,44,0.5,0.0,-35.0,-1,1.0,0.25620100000014645
629,44,0.5,0.0625,35.0,-1,0.0,0.3364010000000235
630,44,0.5,0.0625,35.0,1,1.0,0.3232010000001537
631,44,0.5,1.0,-35.0,-1,1.0,0.24990099999968152
632,44,0.5,0.0,-35.0,1,0.0,1.2567010000002483
633,44,0.5,0.0,35.0,-1,0.0,4.660200999999688
634,44,0.5,0.0,-35.0,-1,1.0,2.9606010000002243
635,44,0.5,0.25,-35.0,-1,1.0,0.0507009999996626
636,44,0.5,0.25,35.0,1,1.0,0.3208009999998467
637,44,0.5,1.0,-35.0,-1,1.0,0.16430099999979575
638,44,0.5,0.0625,35.0,-1,0.0,0.3480010000007496
639,44,0.5,0.0625,-35.0,-1,1.0,0.1985010000003058
640,44,0.5,1.0,35.0,1,1.0,1.5753010000003087
641,44,0.5,0.0,-35.0,-1,1.0,0.44510100000024977
642,44,0.5,0.0625,-35.0,-1,1.0,0.3186009999999442
643,44,0.5,1.0,35.0,1,1.0,0.36560099999996964
644,44,0.5,0.0625,-35.0,-1,1.0,1.1121010000006208
645,44,0.5,0.125,35.0,1,1.0,0.5689010000000962
646,44,0.5,1.0,-35.0,-1,1.0,0.19900100000040766
647,44,0.5,0.125,-35.0,-1,1.0,0.2196009999997841
648,44,0.5,0.25,-35.0,-1,1.0,0.1926010000001952
649,44,0.5,0.0625,35.0,1,1.0,1.323200999999699
650,44,0.5,0.25,-35.0,-1,1.0,0.2029010000001108
651,44,0.5,0.0625,-35.0,-1,1.0,0.5662010000000919
652,44,0.5,0.125,-35.0,-1,1.0,0.2931010000002061
653,44,0.5,0.125,35.0,-1,0.0,0.3633010000003196
654,44,0.2,0.125,-35.0,-1,1.0,0.2767009999997754
655,44,0.5,1.0,-35.0,-1,1.0,0.18370099999992817
656,44,0.5,0.0625,35.0,-1,0.0,0.3504010000001472
657,44,0.1,0.0625,35.0,-1,0.0,3.3939009999999143
658,44,0.5,1.0,35.0,1,1.0,0.7842009999999391
659,44,0.5,0.25,35.0,1,1.0,0.2878009999999449
660,44,0.5,0.0,-35.0,-1,1.0,0.21100099999966915
661,44,0.5,0.0625,-35.0,-1,1.0,0.31820100000049933
662,44,0.5,1.0,-35.0,-1,1.0,0.5850010000003749
663,44,0.5,0.0625,35.0,1,1.0,1.5383010000000468
664,44,0.5,0.125,-35.0,-1,1.0,0.2387010000002192
665,44,0.5,1.0,35.0,-1,0.0,0.018801000000166823
666,44,0.5,0.0625,-35.0,-1,1.0,0.27580100000022867
667,44,0.5,0.125,35.0,1,1.0,1.4388009999997848
668,44,0.5,0.0,-35.0,-1,1.0,3.7492010000000846
669,44,0.5,0.25,-35.0,-1,1.0,0.2161010000004353
670,44,0.5,0.0,35.0,-1,0.0,1.1261010000002898
671,44,0.2,0.0,35.0,1,1.0,0.5699010000003
672,44,0.5,1.0,-35.0,-1,1.0,0.1899009999997361
673,44,0.5,0.25,-35.0,-1,1.0,0.2636010000001079
674,44,0.5,1.0,35.0,1,1.0,0.3200010000000475
675,44,0.5,0.0,35.0,-1,0.0,0.18350099999997838
676,44,0.5,0.25,35.0,1,1.0,0.3372010000002774
677,44,0.5,0.0625,35.0,1,1.0,2.267001000000164
678,44,0.5,0.0625,35.0,-1,0.0,1.3739010000003873
679,44,0.5,0.25,-35.0,-1,1.0,0.3839010000001508
680,44,0.5,0.0,35.0,1,1.0,0.2880009999998947
681,44,0.5,0.125,-35.0,-1,1.0,0.22100100000034217
682,44,0.5,1.0,35.0,1,1.0,0.5412010000000009
683,44,0.5,0.0625,-35.0,-1,1.0,0.9113010000000941
684,44,0.5,1.0,-35.0,-1,1.0,0.1821010000003298
685,44,0.5,1.0,-35.0,-1,1.0,0.05500100000017483
686,44,0.5,0.125,-35.0,-1,1.0,0.018501000000014756
687,44,0.5,0.0,-35.0,-1,1.0,0.5885010000001785
688,44,0.5,0.25,35.0,1,1.0,0.5554010000000744
689,44,0.5,0.125,35.0,1,1.0,0.58520099999987
690,44,0.5,0.0625,-35.0,-1,1.0,0.6888010000002396
691,44,0.5,0.0625,35.0,1,1.0,0.3590009999998074
692,44,0.5,0.25,-35.0,-1,1.0,0.2422010000004775
693,44,0.5,0.125,35.0,1,1.0,0.4728010000003451
694,44,0.5,0.0625,35.0,-1,0.0,0.4025010000000293
695,44,0.4,0.0625,-35.0,-1,1.0,0.2031010000000606
696,44,0.5,1.0,-35.0,-1,1.0,0.269600999999966
697,44,0.5,0.0625,35.0,-1,0.0,0.18310100000007878
698,44,0.5,0.0625,-35.0,-1,1.0,0.23330099999975573
699,44,0.5,0.0,35.0,-1,0.0,0.29720099999985905
700,44,0.5,0.0625,35.0,1,1.0,0.20020100000010643
701,44,0.5,0.125,35.0,1,1.0,0.6642010000000482
702,44,0.5,0.0625,35.0,-1,0.0,4.117101000000275
703,44,0.5,0.125,35.0,-1,0.0,0.43740100000013626
704,44,0.5,0.125,-35.0,-1,1.0,0.31130100000063976
705,44,0.5,0.0625,35.0,-1,0.0,0.2743000000000393
706,44,0.5,0.0625,35.0,-1,0.0,0.15440099999977974
707,44,0.5,0.0,-35.0,-1,1.0,0.27810100000033344
708,44,0.5,1.0,-35.0,-1,1.0,0.2415009999999711
709,44,0.5,0.125,35.0,1,1.0,0.9422010000002956
710,44,0.5,1.0,-35.0,-1,1.0,0.1952009999999973
711,44,0.5,0.125,-35.0,-1,1.0,0.24890099999993254
712,44,0.5,0.25,-35.0,-1,1.0,0.4523010000002614
713,44,0.5,0.0625,-35.0,-1,1.0,0.29930100000001403
714,44,0.5,1.0,35.0,1,1.0,0.37270100000023376
715,44,0.5,0.25,35.0,-1,0.0,0.20600100000001476
716,44,0.5,0.125,35.0,-1,0.0,0.17630100000042148
717,44,0.5,0.0625,-35.0,-1,1.0,0.3631010000003698
718,44,0.5,0.25,-35.0,-1,1.0,0.21690099999977974
719,44,0.5,0.0625,35.0,-1,0.0,0.6867010000005394
720,44,0.1,0.0625,35.0,-1,0.0,0.31340099999988524
721,44,0.5,1.0,35.0,1,1.0,0.24690099999997983
722,44,0.5,0.0,35.0,-1,0.0,0.2574009999998452
723,44,0.5,0.0,-35.0,-1,1.0,0.2907010000003538
724,44,0.5,0.25,-35.0,-1,1.0,0.2240010000004986
725,44,0.5,0.0625,-35.0,-1,1.0,1.510801000000356
726,44,0.5,0.0,35.0,-1,0.0,0.2613010000000031
727,44,0.5,0.0625,-35.0,-1,1.0,0.30150099999991653
728,44,0.5,0.0,35.0,-1,0.0,4.7015010000000075
729,44,0.5,0.125,35.0,1,1.0,0.24500100000068414
730,44,0.5,0.0,35.0,-1,0.0,0.5016009999999369
731,44,0.5,0.0625,-35.0,-1,1.0,0.7952009999999063
732,44,0.5,0.0,-35.0,1,0.0,0.261801000000105
733,44,0.5,0.125,-35.0,-1,1.0,0.23210100000005696
734,44,0.5,0.125,-35.0,-1,1.0,0.2187010000002374
735,44,0.5,0.125,35.0,-1,0.0,0.7191009999996822
736,44,0.5,0.0625,-35.0,-1,1.0,0.2625009999997019
737,44,0.5,1.0,35.0,1,1.0,0.3061010000001261
738,44,0.5,0.25,-35.0,-1,1.0,2.069300999999996
739,44,0.5,1.0,-35.0,1,0.0,0.03300100000024031
740,44,0.5,0.0625,-35.0,-1,1.0,0.2531010000002425
741,44,0.5,1.0,35.0,1,1.0,1.593101000000388
742,44,0.5,0.25,35.0,-1,0.0,0.08670099999972081
743,44,0.5,0.125,-35.0,-1,1.0,0.2935010000001057
744,44,0.5,0.125,35.0,-1,0.0,0.8405009999996764
745,44,0.5,0.0,35.0,-1,0.0,0.18760100000008606
746,44,0.3,0.0,35.0,-1,0.0,0.29070099999989907
747,44,0.5,1.0,35.0,1,1.0,0.2376009999998132
748,44,0.5,1.0,-35.0,-1,1.0,0.17800099999976737
749,44,0.5,0.0625,35.0,-1,0.0,1.7478009999999813
750,44,0.5,0.125,35.0,-1,0.0,0.05500100000017483
751,44,0.2,0.125,-35.0,-1,1.0,0.37530100000003586
752,44,0.5,1.0,-35.0,-1,1.0,0.31500099999993836
753,44,0.5,0.25,35.0,1,1.0,0.6519010000001799
754,44,0.5,0.125,-35.0,-1,1.0,0.26570100000026287
755,44,0.5,1.0,-35.0,-1,1.0,0.2023010000002614
756,44,0.5,0.0,35.0,1,1.0,2.6622010000000955
757,44,0.5,0.125,35.0,1,1.0,0.9292009999999209
758,44,0.5,1.0,-35.0,-1,1.0,0.22280100000034508
759,44,0.5,0.25,35.0,1,1.0,0.4632010000000264
760,44,0.5,0.125,-35.0,-1,1.0,0.2868010000001959
761,44,0.5,0.25,35.0,1,1.0,0.6431010000001152
762,44,0.5,0.0,35.0,-1,0.0,1.063101000000188
763,44,0.5,0.0625,-35.0,-1,1.0,0.31680099999994127
764,44,0.5,0.0625,35.0,-1,0.0,0.6968010000000504
765,44,0.5,0.125,35.0,1,1.0,0.5838010000002214
766,44,0.5,0.125,35.0,-1,0.0,1.1104009999999107
767,44,0.5,0.25,35.0,1,1.0,0.42080099999975573
768,44,0.5,0.25,-35.0,-1,1.0,0.25090099999988524
769,44,0.5,0.0625,-35.0,-1,1.0,0.2879010000001472
770,44,0.5,1.0,-35.0,-1,1.0,0.2312010000000555
771,44,0.5,0.0625,-35.0,-1,1.0,0.15190100000017992
772,44,0.5,0.125,-35.0,-1,1.0,0.34160100000053717
773,44,0.5,1.0,35.0,1,1.0,1.084900999999718
774,44,0.5,0.25,35.0,-1,0.0,0.35490100000015445
775,44,0.5,0.0625,-35.0,-1,1.0,1.1684010000003582
776,44,0.5,0.0625,-35.0,-1,1.0,0.1821010000003298
777,44,0.5,1.0,-35.0,-1,1.0,0.22230099999978847
778,44,0.5,0.25,35.0,1,1.0,0.5462010000001101
779,44,0.5,1.0,35.0,1,1.0,0.09240100000033635
780,44,0.5,0.0625,-35.0,-1,1.0,0.5859009999999216
781,44,0.5,0.25,35.0,1,1.0,1.252701000000343
782,44,0.5,0.25,-35.0,-1,1.0,0.04300100000045859
783,44,0.5,0.0625,35.0,-1,0.0,1.3962010000004739
784,44,0.5,0.125,-35.0,-1,1.0,0.21310099999982413
785,44,0.5,0.25,35.0,1,1.0,0.3400010000000293
786,44,0.5,1.0,-35.0,-1,1.0,0.19030100000054517
787,44,0.5,0.25,-35.0,-1,1.0,1.1639009999998962
788,44,0.5,0.125,-35.0,-1,1.0,0.23390100000005987
789,44,0.5,1.0,35.0,1,1.0,0.344101000000137
790,44,0.5,1.0,-35.0,-1,1.0,0.19760100000030434
791,44,0.5,1.0,-35.0,-1,1.0,0.6749009999998634
792,44,0.5,0.125,35.0,-1,0.0,0.24440100000038
793,44,0.2,0.125,35.0,1,1.0,0.5346010000002934
794,44,0.5,1.0,35.0,1,1.0,0.31470100000024104
795,44,0.5,0.25,-35.0,-1,1.0,0.26510099999995873
796,44,0.5,1.0,-35.0,-1,1.0,0.20850099999961458
797,44,0.5,0.0,35.0,-1,0.0,0.312300999999934
798,44,0.3,0.0,-35.0,-1,1.0,0.4122010000000955
799,44,0.5,1.0,-35.0,-1,1.0,0.18280099999992672
800,44,0.5,0.0625,-35.0,-1,1.0,3.2194009999998343
801,44,0.5,0.0625,35.0,-1,0.0,0.38320100000009916
802,44,0.2,0.0625,-35.0,-1,1.0,0.27650100000028033
803,44,0.5,1.0,35.0,1,1.0,0.2567010000002483
804,44,0.5,1.0,-35.0,-1,1.0,0.22690099999999802
805,44,0.5,0.125,-35.0,-1,1.0,0.2704009999997652
806,44,0.5,0.25,-35.0,-1,1.0,0.2408010000003742
807,44,0.5,0.0625,35.0,-1,0.0,0.39050100000031307
808,44,0.5,0.0,-35.0,-1,1.0,0.5609010000002854
809,44,0.5,0.25,35.0,1,1.0,0.3775010000003931
810,44,0.5,0.0625,35.0,-1,0.0,0.2047010000001137
811,44,0.5,0.125,35.0,1,1.0,0.337601000000177
812,44,0.5,0.0625,35.0,-1,0.0,0.2879010000001472
813,44,0.5,0.0625,35.0,-1,0.0,0.23150100000020757
814,44,0.5,0.0625,-35.0,-1,1.0,0.285001000000193
815,44,0.5,1.0,35.0,1,1.0,0.26170100000035745
816,44,0.5,0.0625,35.0,1,1.0,0.24850100000003295
817,44,0.5,1.0,-35.0,-1,1.0,0.17540100000042003
818,44,0.5,0.0625,35.0,-1,0.0,0.31570099999999
819,44,0.5,0.0625,-35.0,-1,1.0,0.21940100000028906
820,44,0.5,0.0,-35.0,1,0.0,1.9861009999999624
821,44,0.5,0.0625,35.0,-1,0.0,0.41960100000005696
822,44,0.3,0.0625,35.0,-1,0.0,1.3598010000000613
823,44,0.5,1.0,-35.0,-1,1.0,0.2233009999999922
824,44,0.5,0.0625,-35.0,-1,1.0,0.2835010000003422
825,44,0.5,0.0625,-35.0,-1,1.0,0.41070099999978993
826,44,0.5,0.0625,35.0,-1,0.0,0.23350100000016027
827,44,0.1,0.0625,-35.0,-1,1.0,0.3607010000000628
828,44,0.5,1.0,35.0,1,1.0,1.0475010000000111
829,44,0.5,0.125,35.0,1,1.0,0.5475010000000111
830,44,0.5,0.125,35.0,-1,0.0,0.2541010000004462
831,44,0.5,0.0,-35.0,-1,1.0,0.2612010000002556
832,44,0.5,0.25,-35.0,-1,1.0,0.014601000000311615
833,44,0.5,0.0625,35.0,1,1.0,1.5447009999998045
834,44,0.5,0.125,-35.0,-1,1.0,0.2947009999998045
835,44,0.5,0.125,35.0,1,1.0,0.9085010000003422
836,44,0.5,0.125,35.0,1,1.0,1.9319009999999253
837,44,0.5,0.0625,35.0,-1,0.0,0.25900099999989834
838,44,0.5,0.25,35.0,1,1.0,0.26890099999991435
839,44,0.5,0.25,-35.0,-1,1.0,0.20240100000046368
840,44,0.5,0.125,35.0,1,1.0,0.32260100000030434
841,44,0.5,0.125,35.0,1,1.0,2.8226009999998496
842,44,0.5,1.0,35.0,1,1.0,0.33300099999996746
843,44,0.5,0.0,-35.0,1,0.0,1.6326010000002498
844,44,0.7,0.0,35.0,-1,0.0,0.27660100000002785
845,44,0.5,1.0,35.0,1,1.0,0.27660100000002785
846,44,0.5,0.0625,-35.0,-1,1.0,0.3366009999999733
847,44,0.5,0.0625,35.0,-1,0.0,0.1770010000000184
848,44,0.5,0.0625,35.0,-1,0.0,0.3870010000005095
849,44,0.5,0.125,-35.0,-1,1.0,0.23050100000000384
850,44,0.5,0.0625,-35.0,-1,1.0,0.2277009999997972
851,44,0.5,0.125,35.0,1,1.0,1.8108010000000831
852,44,0.5,0.25,35.0,1,1.0,1.4909010000001217
853,44,0.5,0.125,35.0,-1,0.0,0.28440100000034363
854,44,0.5,0.25,-35.0,-1,1.0,0.224601000000348
855,44,0.5,0.125,-35.0,-1,1.0,0.2648010000002614
856,44,0.5,0.125,-35.0,-1,1.0,0.31850100000019665
857,44,0.5,1.0,35.0,1,1.0,3.3818010000004506
858,44,0.5,0.25,35.0,-1,0.0,0.12530100000003586
859,44,0.5,0.25,-35.0,-1,1.0,0.22520100000019738
860,44,0.5,0.25,-35.0,-1,1.0,0.18580100000008315
861,44,0.5,1.0,-35.0,-1,1.0,0.18910100000039165
862,44,0.5,0.0,35.0,-1,0.0,7.3057010000002265
863,44,0.5,0.125,-35.0,-1,1.0,0.2727010000003247
864,44,0.5,0.0,-35.0,-1,1.0,0.182901000000129
865,44,0.5,0.25,-35.0,-1,1.0,0.29610100000036255
866,44,0.5,1.0,-35.0,-1,1.0,0.2565010000002985
867,44,0.5,0.125,-35.0,-1,1.0,1.2236010000001443
868,44,0.5,0.0,-35.0,-1,1.0,2.8372009999998227
869,44,0.5,0.0625,-35.0,-1,1.0,0.2875010000002476
870,44,0.5,1.0,35.0,1,1.0,1.8239009999997506
871,44,0.5,0.125,-35.0,-1,1.0,0.27720099999987724
872,44,0.5,1.0,35.0,1,1.0,0.2472010000001319
873,44,0.5,0.125,35.0,-1,0.0,0.19400100000029852
874,44,0.2,0.125,35.0,1,1.0,0.5810010000004695
875,44,0.5,1.0,35.0,1,1.0,0.23150099999975282
876,44,0.5,0.0,-35.0,-1,1.0,0.40120100000012826
877,44,0.5,0.25,35.0,1,1.0,0.31490100000019083
878,44,0.5,1.0,-35.0,-1,1.0,0.33140099999991435
879,44,0.5,0.0,35.0,1,1.0,0.535001000000193
880,44,0.5,0.125,35.0,1,1.0,3.725100999999995
881,44,0.5,0.0,35.0,-1,0.0,2.762101000000257
882,44,0.5,0.25,-35.0,-1,1.0,0.229001000000153
883,44,0.5,1.0,35.0,1,1.0,0.6129009999999653
884,44,0.5,1.0,-35.0,-1,1.0,0.3261010000001079
885,44,0.5,0.0,35.0,-1,0.0,7.216000999999778
886,44,0.5,0.0625,-35.0,-1,1.0,0.2865010000004986
887,44,0.5,1.0,-35.0,-1,1.0,0.25320099999999
888,44,0.5,1.0,35.0,1,1.0,0.26710099999991144
889,44,0.5,0.25,35.0,1,1.0,0.8071010000003298
890,44,0.5,0.125,-35.0,-1,1.0,0.22370100000034654
891,44,0.5,0.0625,-35.0,-1,1.0,2.204201000000012
892,44,0.5,0.25,35.0,1,1.0,0.6507010000000264
893,44,0.5,1.0,35.0,1,1.0,1.2211010000000897
894,44,0.5,1.0,-35.0,-1,1.0,0.497700999999779
895,44,0.5,0.125,35.0,1,1.0,0.2845009999996364
896,44,0.5,0.125,35.0,-1,0.0,3.1380009999998038
897,44,0.5,0.125,35.0,1,1.0,1.028400999999576
898,44,0.5,0.25,-35.0,-1,1.0,0.22170099999993909
899,44,0.5,0.0625,-35.0,-1,1.0,0.32860100000016246
900,44,0.5,0.125,35.0,1,1.0,0.6424010000000635
901,44,0.5,0.25,-35.0,-1,1.0,0.21570100000008097
902,44,0.5,0.0625,-35.0,-1,1.0,0.2723009999999704
903,44,0.5,0.25,35.0,1,1.0,0.4825010000004113
904,44,0.5,0.0625,35.0,-1,0.0,5.08920100000023
905,44,0.5,0.125,-35.0,-1,1.0,0.33630100000027596
906,44,0.5,0.25,-35.0,-1,1.0,0.5898010000000795
907,44,0.5,0.0625,-35.0,-1,1.0,0.22670100000004823
908,44,0.5,0.25,35.0,1,1.0,0.30050100000016755
909,44,0.5,0.0625,-35.0,-1,1.0,0.26040100000000166
910,44,0.5,0.0,-35.0,-1,1.0,2.7274010000001
911,44,0.5,0.125,-35.0,-1,1.0,0.5844010000005255
912,44,0.5,0.25,-35.0,-1,1.0,0.2674010000000635
913,44,0.5,0.0625,35.0,-1,0.0,0.234501000000364
914,44,0.5,0.0625,35.0,-1,0.0,0.20840099999986705
915,44,0.1,0.0625,35.0,-1,0.0,0.1584010000001399
916,44,0.5,1.0,35.0,1,1.0,0.28470100000004095
917,44,0.5,0.125,-35.0,-1,1.0,0.22480099999984304
918,44,0.5,1.0,35.0,1,1.0,0.2450010000002294
919,44,0.5,0.25,-35.0,-1,1.0,0.2255009999998947
920,44,0.5,1.0,-35.0,-1,1.0,0.28540099999963786
921,44,0.5,0.0625,-35.0,-1,1.0,0.22880099999974846
922,44,0.5,0.0625,-35.0,-1,1.0,1.1357010000001537
923,44,0.5,0.25,-35.0,-1,1.0,0.19250099999999293
924,44,0.5,1.0,35.0,1,1.0,0.8826010000002498
925,44,0.5,0.0625,-35.0,-1,1.0,1.3396010000001297
926,44,0.5,1.0,35.0,1,1.0,0.28650100000004386
927,44,0.5,0.0,35.0,-1,0.0,0.24990100000013626
928,44,0.3,0.0,35.0,-1,0.0,0.33990099999982704
929,44,0.5,1.0,-35.0,-1,1.0,0.4102010000001428
930,44,0.5,0.0,35.0,-1,0.0,0.15360099999998056
931,44,0.5,0.25,35.0,-1,0.0,0.2506010000001879
932,44,0.5,0.25,-35.0,-1,1.0,0.20080099999995582
933,44,0.5,1.0,-35.0,-1,1.0,0.19420100000024831
934,44,0.5,1.0,-35.0,-1,1.0,0.2446010000003298
935,44,0.5,0.125,-35.0,-1,1.0,0.23470099999985905
936,44,0.5,0.0625,35.0,-1,0.0,0.17160100000000966
937,44,0.0,0.0625,35.0,-1,0.0,0.5782010000002629
938,44,0.5,1.0,35.0,1,1.0,0.2150010000000293
939,44,0.5,1.0,35.0,1,1.0,1.9056009999999333
940,44,0.5,0.125,35.0,1,1.0,1.0486009999999624
941,44,0.5,0.0,35.0,-1,0.0,0.26570100000026287
942,44,0.5,0.25,35.0,1,1.0,0.4324010000000271
943,44,0.5,0.125,-35.0,-1,1.0,0.21920099999988452
944,44,0.5,0.0625,35.0,-1,0.0,0.20270099999970626
945,44,0.5,0.125,-35.0,-1,1.0,0.3159009999999398
946,44,0.5,0.25,-35.0,-1,1.0,0.26620100000036473
947,44,0.5,0.125,35.0,1,1.0,0.23310100000026068
948,44,0.5,0.125,-35.0,-1,1.0,0.3966009999999187
949,44,0.5,0.125,-35.0,-1,1.0,1.8698009999998249
950,44,0.5,1.0,35.0,1,1.0,1.0305010000001857
951,44,0.5,1.0,-35.0,-1,1.0,0.18370099999992817
952,44,0.5,0.125,-35.0,-1,1.0,0.633701000000201
953,44,0.5,0.125,35.0,-1,0.0,1.3608009999998103
954,44,0.2,0.125,35.0,-1,0.0,0.15410100000008242
955,44,0.5,1.0,35.0,1,1.0,0.031401000000187196
956,44,0.5,0.0,35.0,-1,0.0,0.4778009999999995
957,44,0.5,0.25,35.0,1,1.0,0.28180100000054153
958,44,0.5,0.25,35.0,1,1.0,0.6849010000000817
959,44,0.5,0.0,-35.0,-1,1.0,0.9449010000003
960,44,0.5,1.0,-35.0,-1,1.0,0.21540100000038365
961,44,0.5,0.0,-35.0,-1,1.0,0.33190100000047096
962,44,0.5,0.0625,-35.0,-1,1.0,0.238901000000169
963,44,0.5,0.0,-35.0,-1,1.0,0.2419009999998707
964,44,0.5,0.25,35.0,-1,0.0,1.9354010000001836
965,44,0.3,0.25,35.0,-1,0.0,0.2789010000001326
966,44,0.5,1.0,35.0,-1,0.0,0.16600100000005114
967,44,0.5,0.0,-35.0,-1,1.0,0.532901000000038
968,44,0.5,1.0,35.0,1,1.0,0.14610099999981685
969,44,0.5,0.25,-35.0,-1,1.0,0.19640100000015082
970,44,0.5,0.0625,35.0,-1,0.0,0.3370010000003276
971,44,0.5,0.0,-35.0,-1,1.0,0.3200010000000475
972,44,0.5,0.0625,-35.0,-1,1.0,0.9770010000002003
973,44,0.5,1.0,35.0,1,1.0,0.5334010000001399
974,44,0.5,1.0,35.0,1,1.0,0.2869999999998072
975,44,0.5,0.125,-35.0,-1,1.0,0.2104010000002745
976,44,0.5,1.0,-35.0,-1,1.0,0.16730099999995218
977,44,0.5,0.125,-35.0,-1,1.0,0.2077009999998154
978,44,0.5,0.0625,35.0,-1,0.0,5.70100100000036
979,44,0.5,0.0,-35.0,1,0.0,0.3981010000002243
980,44,0.5,0.0625,35.0,1,1.0,0.2817009999998845
981,44,0.5,0.25,-35.0,-1,1.0,0.608400999999958
982,44,0.5,0.125,35.0,1,1.0,0.28510099999994054
983,44,0.5,0.125,-35.0,-1,1.0,0.26850100000001476
984,44,0.5,1.0,35.0,1,1.0,0.29210100000045713
985,44,0.5,0.0625,35.0,1,1.0,0.9092010000003938
986,44,0.5,1.0,35.0,1,1.0,0.09600099999988743
987,44,0.5,0.0625,-35.0,-1,1.0,0.2725010000003749
988,44,0.5,0.0625,35.0,1,1.0,0.4058010000003378
989,44,0.5,0.25,-35.0,-1,1.0,0.25920099999984814
990,44,0.5,0.25,35.0,1,1.0,0.33620100000052844
991,44,0.5,0.125,35.0,1,1.0,25.656201000000237
992,44,0.5,0.25,35.0,1,1.0,0.20390100000031453
993,44,0.5,0.125,-35.0,-1,1.0,0.32070100000009916
994,44,0.5,0.0,-35.0,-1,1.0,0.9341010000002825
995,44,0.5,0.125,-35.0,-1,1.0,1.11750099999972
996,44,0.5,0.125,-35.0,-1,1.0,0.9444010000006529
997,44,0.5,0.0625,35.0,1,1.0,2.20120100000031
998,44,0.5,1.0,35.0,1,1.0,0.2314010000000053
999,44,0.5,0.125,-35.0,-1,1.0,0.28150100000038947
1000,44,0.5,0.125,-35.0,-1,1.0,0.3884010000001581
1001,44,0.5,0.125,-35.0,-1,1.0,0.3418010000000322
1002,44,0.5,0.0625,35.0,1,1.0,0.6220010000001821
1003,44,0.5,1.0,35.0,1,1.0,0.28880100000014863
1004,44,0.5,1.0,-35.0,-1,1.0,0.2490010000001348
1005,44,0.5,0.0625,-35.0,-1,1.0,0.29900099999986196
1006,44,0.5,0.25,35.0,1,1.0,0.3592009999997572
1007,44,0.5,1.0,35.0,1,1.0,0.2794010000002345
1008,44,0.5,0.0,35.0,-1,0.0,0.3795010000003458
1009,44,0.5,0.0625,35.0,-1,0.0,0.5997010000000955
1010,44,0.5,0.25,35.0,1,1.0,0.4766010000003007
1011,44,0.5,1.0,35.0,1,1.0,0.23010100000010425
1012,44,0.5,1.0,35.0,1,1.0,0.23030100000005405
1013,44,0.5,0.0625,-35.0,-1,1.0,0.4270010000000184
1014,44,0.5,0.25,-35.0,-1,1.0,0.25050099999998565
1015,44,0.5,0.25,-35.0,-1,1.0,0.20740100000011807
1016,44,0.5,0.0625,-35.0,-1,1.0,0.29420100000015736
1017,44,0.5,0.25,35.0,1,1.0,0.5710010000002512
1018,44,0.5,0.25,-35.0,-1,1.0,0.23770100000001548
1019,44,0.5,0.0625,35.0,1,1.0,0.794601000000057
1020,44,0.5,0.25,-35.0,-1,1.0,0.6815010000000257
1021,44,0.5,0.25,-35.0,-1,1.0,0.2515010000001894
1022,44,0.5,0.0625,-35.0,-1,1.0,0.05500100000017483
1023,44,0.5,0.25,35.0,1,1.0,0.23840100000006714
1024,44,0.5,0.0625,-35.0,-1,1.0,0.32520100000010643
1025,44,0.5,1.0,35.0,1,1.0,0.2552009999999427
1026,44,0.5,0.25,-35.0,-1,1.0,0.17210100000011153
1027,44,0.5,0.0625,35.0,-1,0.0,0.3088010000005852
1028,44,0.3,0.0625,35.0,1,1.0,0.6523010000000795
1029,44,0.5,1.0,-35.0,-1,1.0,0.219101000000137
1030,44,0.5,0.25,-35.0,-1,1.0,0.3393009999995229
1031,44,0.5,1.0,35.0,1,1.0,1.2560010000001967
1032,44,0.5,0.0625,35.0,-1,0.0,2.166301000000203
1033,44,0.5,0.125,-35.0,-1,1.0,0.23980100000017046
1034,44,0.5,0.25,35.0,1,1.0,0.34660100000019156
1035,44,0.5,1.0,-35.0,-1,1.0,0.2367010000002665
1036,44,0.5,1.0,-35.0,-1,1.0,0.2868010000001959
1037,44,0.5,1.0,-35.0,-1,1.0,0.27020100000027014
1038,44,0.5,0.125,-35.0,-1,1.0,0.2638010000000577
1039,44,0.5,0.0625,35.0,-1,0.0,4.474001000000499
1040,44,0.2,0.0625,35.0,-1,0.0,0.33080100000006496
1041,44,0.5,1.0,35.0,1,1.0,0.26110100000050807
1042,44,0.5,0.0,-35.0,-1,1.0,3.5913009999999304
1043,44,0.5,0.0,35.0,-1,0.0,0.27810100000033344
1044,44,0.5,0.25,-35.0,-1,1.0,0.18180100000017774
1045,44,0.5,0.125,-35.0,-1,1.0,0.17180099999995946
1046,44,0.5,0.125,35.0,1,1.0,0.4184010000003582
1047,44,0.5,0.25,35.0,1,1.0,0.25870100000065577
1048,44,0.5,0.25,35.0,1,1.0,0.3154010000002927
1049,44,0.5,0.25,35.0,1,1.0,3.03550099999984
1050,44,0.5,0.25,-35.0,-1,1.0,0.5560009999999238
1051,44,0.5,0.125,35.0,1,1.0,0.4695010000000366
1052,44,0.5,1.0,-35.0,-1,1.0,0.13620099999980084
1053,44,0.5,1.0,35.0,1,1.0,0.2796010000001843
1054,44,0.5,1.0,35.0,1,1.0,0.23990099999991799
1055,44,0.5,0.0625,-35.0,-1,1.0,0.2233009999999922
1056,44,0.5,0.125,35.0,1,1.0,2.6401009999999587
1057,44,0.5,1.0,35.0,1,1.0,0.20700100000021848
1058,44,0.5,1.0,-35.0,-1,1.0,0.18720100000018647
1059,44,0.5,0.0,35.0,-1,0.0,0.2607010000006085
1060,44,0.5,0.125,-35.0,-1,1.0,0.0641009999999369
1061,44,0.5,1.0,-35.0,-1,1.0,0.2275009999998474
1062,44,0.5,0.0625,35.0,1,1.0,0.40440099999977974
1063,44,0.5,1.0,35.0,1,1.0,0.1713009999998576
1064,44,0.5,0.25,35.0,1,1.0,0.33460099999956583
1065,44,0.5,0.25,35.0,1,1.0,0.5315009999999347
1066,44,0.5,0.0,35.0,-1,0.0,1.6750010000000657
1067,44,0.5,0.125,35.0,1,1.0,0.33180099999981394
1068,44,0.5,0.25,35.0,1,1.0,2.5952009999991787
1069,44,0.5,0.25,-35.0,-1,1.0,0.20870099999956437
1070,44,0.5,0.0,35.0,-1,0.0,1.9090009999999893
1071,44,0.5,0.25,35.0,1,1.0,0.5993009999992864
1072,44,0.5,0.125,-35.0,-1,1.0,0.23940099999981612
1073,44,0.5,0.25,-35.0,-1,1.0,2.492700999999215
1074,44,0.5,0.125,35.0,-1,0.0,0.15630099999907543
1075,44,0.5,0.25,35.0,-1,0.0,0.09310100000038801
1076,44,0.5,0.0625,-35.0,-1,1.0,0.34330099999988306
1077,44,0.5,0.125,35.0,1,1.0,0.28670099999908416
1078,44,0.5,0.125,35.0,1,1.0,0.31030099999952654
1079,44,0.5,0.0625,-35.0,-1,1.0,1.0571010000003298
1080,44,0.5,0.125,35.0,-1,0.0,1.3072009999996226
1081,44,0.5,0.0,-35.0,-1,1.0,2.724000999999589
1082,44,0.5,0.25,-35.0,-1,1.0,0.8675009999988106
1083,44,0.5,0.25,-35.0,-1,1.0,0.24110100000052626
1084,44,0.5,0.25,-35.0,-1,1.0,0.24120099999890954
1085,44,0.5,1.0,-35.0,-1,1.0,0.23820100000011735
1086,44,0.5,0.125,-35.0,-1,1.0,0.28150099999948
1087,44,0.5,0.25,35.0,1,1.0,4.5614009999999325
1088,44,0.5,0.25,35.0,1,1.0,0.43850100000054226
1089,44,0.5,0.25,35.0,1,1.0,0.2086010000002716
1090,44,0.5,0.25,-35.0,-1,1.0,0.5655010000000402
1091,44,0.5,1.0,-35.0,-1,1.0,0.3056010000000242
1092,44,0.5,1.0,35.0,1,1.0,0.32570099999975355
1093,44,0.5,1.0,35.0,1,1.0,0.27930099999957747
1094,44,0.5,0.0,-35.0,-1,1.0,6.376000999999633
1095,44,0.5,0.25,35.0,-1,0.0,39.469700999999986
1096,44,0.5,0.25,-35.0,-1,1.0,1.3679009999996197
1097,44,0.5,1.0,-35.0,-1,1.0,0.9115009999995891
1098,44,0.5,0.125,35.0,1,1.0,0.37490099999922677
1099,44,0.5,0.125,-35.0,-1,1.0,2.595100999999886
1100,44,0.5,0.125,35.0,-1,0.0,5.178600999999617
1101,44,0.5,0.0625,-35.0,-1,1.0,4.885701000000154
1102,44,0.5,0.0625,-35.0,-1,1.0,0.5725009999996473
1103,44,0.5,0.125,35.0,-1,0.0,7.696100999999544
1104,44,0.5,0.125,-35.0,-1,1.0,0.4965009999996255
1105,44,0.5,1.0,35.0,1,1.0,0.2666009999993548
1106,44,0.5,0.125,-35.0,-1,1.0,1.1936009999990347
1107,44,0.5,0.0625,35.0,-1,0.0,0.6836009999988164
1108,44,0.2,0.0625,-35.0,-1,1.0,11.193900999998732
1109,44,0.5,1.0,-35.0,-1,1.0,0.1711009999999078
1110,44,0.5,0.0625,-35.0,-1,1.0,0.2711010000002716
1111,44,0.5,0.125,35.0,1,1.0,0.6013009999996939
1112,44,0.5,1.0,-35.0,-1,1.0,0.2682009999998627
1113,44,0.5,0.25,-35.0,-1,1.0,0.27500099999997474
1114,44,0.5,0.0625,-35.0,-1,1.0,2.098400999999285
1115,44,0.5,0.125,35.0,1,1.0,0.42870099999981903
1116,44,0.5,1.0,-35.0,-1,1.0,0.30220099999860395
1117,44,0.5,0.25,-35.0,-1,1.0,0.2490010000001348
1118,44,0.5,1.0,-35.0,-1,1.0,0.21240099999977247
1119,44,0.5,0.125,35.0,1,1.0,6.982700999999906
1120,44,0.5,0.125,-35.0,-1,1.0,0.34290099999998347
1121,44,0.5,0.0625,-35.0,-1,1.0,1.553100999999515
1122,44,0.5,0.0,35.0,-1,0.0,0.4931010000000242
1123,44,0.5,0.0625,35.0,1,1.0,0.9800009999989925
1124,44,0.5,0.25,35.0,1,1.0,2.020101000000068
1125,44,0.5,1.0,-35.0,-1,1.0,0.24710099999902013
1126,44,0.5,0.125,-35.0,-1,1.0,0.25040099999932863
1127,44,0.5,0.125,-35.0,-1,1.0,0.5273010000000795
1128,44,0.5,1.0,-35.0,-1,1.0,0.22410099999979138
1129,44,0.5,1.0,35.0,1,1.0,0.26100099999985105
1130,44,0.5,0.0,-35.0,-1,1.0,0.321100999999544
1131,44,0.5,0.125,-35.0,-1,1.0,2.4713009999995847
1132,44,0.5,0.0625,-35.0,-1,1.0,3.7114009999995687
1133,44,0.5,0.25,35.0,1,1.0,0.7751009999992675
1134,44,0.5,1.0,-35.0,-1,1.0,0.255301000000145
1135,44,0.5,0.0,35.0,-1,0.0,0.26540099999874656
1136,44,0.5,0.125,35.0,1,1.0,0.34890099999938684
1137,44,0.5,0.0,-35.0,-1,1.0,2.995600999999624
1138,44,0.5,0.0625,35.0,1,1.0,0.34260099999937665
1139,44,0.5,0.125,-35.0,-1,1.0,0.8659009999992122
1140,44,0.5,0.0625,35.0,-1,0.0,2.3395009999994727
1141,44,0.5,0.25,35.0,1,1.0,0.2663009999996575
1142,44,0.5,0.125,35.0,1,1.0,1.9832010000000082
1143,44,0.5,1.0,-35.0,-1,1.0,0.10700100000030943
1144,44,0.5,0.25,35.0,1,1.0,1.0202009999993606
1145,44,0.5,0.0625,35.0,1,1.0,1.886900999998943
1146,44,0.5,0.0,-35.0,-1,1.0,6.9571009999990565
1147,44,0.5,1.0,-35.0,-1,1.0,0.23760099999890372
1148,44,0.5,0.0,-35.0,-1,1.0,0.19770099999914237
1149,44,0.5,0.0625,-35.0,-1,1.0,0.7711010000002716
1150,44,0.5,1.0,35.0,-1,0.0,0.0880010000000766
1151,44,0.5,0.0625,35.0,1,1.0,0.5747009999986403
1152,44,0.5,1.0,-35.0,-1,1.0,0.22490099999959057
1153,44,0.5,0.25,35.0,1,1.0,0.4917009999999209
1154,44,0.5,0.25,35.0,1,1.0,0.44520099999954255
1155,44,0.5,0.0625,35.0,1,1.0,0.3986010000007809
1156,44,0.5,1.0,-35.0,-1,1.0,0.24550100000033126
1157,44,0.5,0.25,-35.0,-1,1.0,0.2888009999996939
1158,44,0.5,0.25,35.0,1,1.0,0.47910100000081
1159,44,0.5,0.0625,-35.0,-1,1.0,1.9791009999999005
1160,44,0.5,0.125,-35.0,-1,1.0,2.932600999999522
1161,44,0.5,0.0,35.0,-1,0.0,0.4462009999997463
1162,44,0.5,0.125,-35.0,-1,1.0,0.37970099999984086
1163,44,0.5,1.0,-35.0,-1,1.0,0.4464010000001508
1164,44,0.5,0.0625,35.0,-1,0.0,37.42000100000041
1165,44,0.5,0.25,-35.0,-1,1.0,1.2115009999988615
1166,44,0.5,0.125,-35.0,1,0.0,0.8183010000002469
1167,44,0.5,0.0625,35.0,0,0.0,59.93510100000003
1168,44,0.5,0.125,-35.0,-1,1.0,49.65750199999911
1169,44,0.5,0.125,-35.0,-1,1.0,0.9028019999996104
1170,44,0.5,0.25,35.0,1,1.0,0.9931019999994533
1171,44,0.5,1.0,-35.0,-1,1.0,0.979801999999836
1172,44,0.5,0.25,35.0,1,1.0,0.3300019999996948
1173,44,0.5,0.125,35.0,-1,0.0,10.500202000000172
1174,44,0.5,0.0,35.0,-1,0.0,20.5874019999992
1175,44,0.5,0.25,-35.0,-1,1.0,22.934901999999056
1176,44,0.5,0.125,35.0,1,1.0,0.53240199999982
1177,44,0.5,0.0625,-35.0,-1,1.0,29.44930199999999
1178,44,0.5,0.125,35.0,-1,0.0,22.32390199999918
1179,44,0.5,0.0625,35.0,-1,0.0,12.218001999999615
1180,44,0.5,0.0625,35.0,-1,0.0,35.59540199999992
1181,44,0.5,0.0625,35.0,-1,0.0,9.920102000000043
1182,44,0.5,0.0,-35.0,-1,1.0,13.09070199999951
1183,44,0.5,1.0,-35.0,-1,1.0,0.5312020000001212
1184,44,0.5,1.0,35.0,1,1.0,10.994802000000163
1185,44,0.5,0.25,-35.0,-1,1.0,4.458601999999701
1186,44,0.5,0.125,-35.0,-1,1.0,24.68890199999987
1187,44,0.5,0.125,-35.0,1,0.0,5.343202000000019
1,45,0.5,0.0625,-35.0,1,0.0,0.3936999999999997
2,45,0.5,0.0625,35.0,-1,0.0,0.36710000000000065
3,45,0.5,0.125,35.0,1,1.0,0.4278999999999993
4,45,0.5,1.0,35.0,1,1.0,0.25820000000000043
5,45,0.5,0.125,-35.0,-1,1.0,0.24690000000000012
6,45,0.5,0.25,-35.0,-1,1.0,0.16199999999999903
7,45,0.5,0.0,35.0,-1,0.0,0.9505000000000017
8,45,0.6,0.0,-35.0,-1,1.0,0.18769999999999953
9,45,0.5,1.0,35.0,1,1.0,0.2745999999999995
10,45,0.5,0.0,35.0,-1,0.0,2.3828999999999994
11,45,0.4,0.0,35.0,-1,0.0,0.34559999999999746
12,45,0.5,1.0,35.0,1,1.0,0.2989000000000033
13,45,0.5,0.25,-35.0,-1,1.0,0.30169999999999675
14,45,0.5,1.0,-35.0,-1,1.0,0.3132000000000019
15,45,0.5,0.0625,35.0,-1,0.0,3.426000000000002
16,45,0.5,0.125,35.0,-1,0.0,0.39170000000000016
17,45,0.2,0.125,-35.0,-1,1.0,0.3241999999999976
18,45,0.5,1.0,35.0,1,1.0,0.2627999999999986
19,45,0.5,0.25,-35.0,-1,1.0,0.26949999999999363
20,45,0.5,0.0,-35.0,-1,1.0,3.914100000000005
21,45,0.5,1.0,-35.0,-1,1.0,0.19660000000000366
22,45,0.5,1.0,-35.0,-1,1.0,0.1852000000000089
23,45,0.5,0.125,35.0,1,1.0,1.9943999999999988
24,45,0.5,0.25,-35.0,-1,1.0,0.26730000000000587
25,45,0.5,0.25,-35.0,-1,1.0,0.27729999999999677
26,45,0.5,0.125,-35.0,-1,1.0,1.716700000000003
27,45,0.5,0.25,-35.0,-1,1.0,0.24549999999999272
28,45,0.5,0.25,35.0,1,1.0,0.3365000000000009
29,45,0.5,0.125,-35.0,-1,1.0,7.611500000000007
30,45,0.5,0.25,35.0,1,1.0,3.6906999999999925
31,45,0.5,1.0,35.0,1,1.0,0.8625999999999863
32,45,0.5,0.25,-35.0,-1,1.0,0.23260000000001924
33,45,0.5,0.25,-35.0,-1,1.0,0.5269000000000119
34,45,0.5,1.0,35.0,1,1.0,4.007500000000022
35,45,0.5,0.25,-35.0,-1,1.0,0.1980000000000075
36,45,0.5,0.0625,35.0,-1,0.0,6.191199999999981
37,45,0.5,0.125,-35.0,-1,1.0,0.3036000000000172
38,45,0.5,0.125,-35.0,-1,1.0,5.016700000000014
39,45,0.5,0.25,-35.0,-1,1.0,0.38120000000000687
40,45,0.5,0.125,35.0,-1,0.0,3.15949999999998
41,45,0.5,0.25,-35.0,-1,1.0,0.19870000000003074
42,45,0.5,0.125,-35.0,-1,1.0,0.2511000000000365
43,45,0.5,0.125,-35.0,-1,1.0,1.0340000000000202
44,45,0.5,0.25,35.0,-1,0.0,4.7047000000000025
45,45,0.5,0.125,35.0,-1,0.0,3.8011000000000195
46,45,0.5,0.125,35.0,1,1.0,0.4630000000000223
47,45,0.5,0.0,-35.0,-1,1.0,3.824200000000019
48,45,0.5,0.0625,-35.0,-1,1.0,6.7783000000000015
49,45,0.5,0.0,35.0,-1,0.0,0.9983000000000288
50,45,0.1,0.0,35.0,-1,0.0,4.45010000000002
51,45,0.5,1.0,-35.0,-1,1.0,0.1928000000000054
52,45,0.5,0.0625,-35.0,-1,1.0,0.3908000000000129
53,45,0.5,0.25,35.0,1,1.0,0.24420000000003483
54,45,0.5,0.125,-35.0,-1,1.0,0.28249999999999886
55,45,0.5,1.0,-35.0,-1,1.0,0.2509000000000299
56,45,0.5,1.0,-35.0,-1,1.0,0.2867999999999995
57,45,0.5,0.25,35.0,1,1.0,0.48610000000002174
58,45,0.5,0.25,-35.0,-1,1.0,0.2270000000000323
59,45,0.5,0.125,35.0,1,1.0,7.5487999999999715
60,45,0.5,0.0,-35.0,-1,1.0,1.6032999999999902
61,45,0.5,1.0,-35.0,-1,1.0,0.24360000000001492
62,45,0.5,0.25,35.0,-1,0.0,8.496800000000007
63,45,0.5,0.125,35.0,1,1.0,0.8918999999999642
64,45,0.5,1.0,35.0,1,1.0,5.53000000000003
65,45,0.5,0.0625,-35.0,-1,1.0,5.487900000000025
66,45,0.5,0.0,-35.0,-1,1.0,0.5578000000000429
67,45,0.5,0.25,35.0,1,1.0,0.23510000000004538
68,45,0.5,0.125,35.0,1,1.0,0.5484000000000151
69,45,0.5,0.25,-35.0,-1,1.0,0.8421999999999912
70,45,0.5,1.0,35.0,1,1.0,0.3133000000000834
71,45,0.5,0.25,35.0,1,1.0,3.2139000000000237
72,45,0.5,0.0625,35.0,1,1.0,1.0215000000000032
73,45,0.5,1.0,-35.0,-1,1.0,0.38129999999995334
74,45,0.5,1.0,35.0,1,1.0,0.2544000000000324
75,45,0.5,0.125,35.0,1,1.0,0.7479999999999905
76,45,0.5,0.125,35.0,-1,0.0,3.6129000000000815
77,45,0.5,0.25,35.0,1,1.0,0.34300000000001774
78,45,0.5,0.125,35.0,-1,0.0,0.4159000000000219
79,45,0.5,0.25,35.0,1,1.0,0.34830000000005157
80,45,0.5,0.0625,35.0,-1,0.0,14.771299999999997
81,45,0.6,0.0625,-35.0,-1,1.0,0.4171000000000049
82,45,0.5,1.0,35.0,1,1.0,0.25310000000001764
83,45,0.5,0.0625,-35.0,-1,1.0,1.016300000000001
84,45,0.5,1.0,35.0,1,1.0,0.3146000000000413
85,45,0.5,0.25,-35.0,-1,1.0,0.5906999999999698
86,45,0.5,0.125,-35.0,-1,1.0,7.182499999999948
87,45,0.5,0.25,-35.0,-1,1.0,0.2115999999999758
88,45,0.5,0.0625,35.0,1,1.0,0.48040000000003147
89,45,0.5,1.0,35.0,1,1.0,0.3048000000000002
90,45,0.5,0.25,35.0,1,1.0,5.5470000000000255
91,45,0.5,0.125,-35.0,-1,1.0,0.31409999999999627
92,45,0.5,0.125,35.0,1,1.0,0.3836000000000581
93,45,0.5,0.0,35.0,-1,0.0,5.280400000000043
94,45,0.5,0.0,35.0,-1,0.0,0.22520000000002938
95,45,0.5,0.125,-35.0,-1,1.0,0.30410000000000537
96,45,0.5,0.25,-35.0,-1,1.0,0.27019999999998845
97,45,0.5,0.125,-35.0,-1,1.0,0.42779999999999063
98,45,0.5,0.125,-35.0,-1,1.0,0.30920000000003256
99,45,0.5,0.0625,35.0,-1,0.0,0.4094000000000051
100,45,0.5,0.0,-35.0,1,0.0,4.817000000000007
101,45,0.2,0.0,35.0,1,1.0,0.7052000000000476
102,45,0.5,1.0,35.0,1,1.0,0.4171999999999798
103,45,0.5,0.0625,35.0,1,1.0,4.924199999999985
104,45,0.5,1.0,35.0,1,1.0,0.34060000000005175
105,45,0.5,0.25,35.0,1,1.0,0.5055000000000973
106,45,0.5,0.25,35.0,1,1.0,0.5632999999999129
107,45,0.5,0.125,-35.0,-1,1.0,4.608700000000113
108,45,0.5,0.0,-35.0,-1,1.0,4.402400000000057
109,45,0.5,0.25,-35.0,-1,1.0,0.22030000000006567
110,45,0.5,1.0,-35.0,-1,1.0,0.2883000000000493
111,45,0.5,0.0625,35.0,1,1.0,4.7450999999999794
112,45,0.5,1.0,35.0,1,1.0,0.24659999999994398
113,45,0.5,1.0,35.0,1,1.0,0.360300000000052
114,45,0.5,0.25,35.0,1,1.0,5.343300000000113
115,45,0.5,1.0,35.0,1,1.0,0.2257999999999356
116,45,0.5,0.0625,35.0,1,1.0,2.492700000000127
117,45,0.5,1.0,35.0,1,1.0,0.2055000000000291
118,45,0.5,1.0,35.0,1,1.0,0.5646000000000413
119,45,0.5,0.25,35.0,-1,0.0,3.9823000000000093
120,45,0.5,0.25,-35.0,-1,1.0,0.26440000000013697
121,45,0.5,0.125,-35.0,-1,1.0,0.6574000000000524
122,45,0.5,0.0625,-35.0,-1,1.0,0.31110000000001037
123,45,0.5,1.0,-35.0,-1,1.0,0.30950000000007094
124,45,0.5,0.0,-35.0,1,0.0,0.3968999999999596
125,45,0.5,0.0,-35.0,-1,1.0,5.551900000000046
126,45,0.5,1.0,35.0,1,1.0,0.26400000000001
127,45,0.5,0.25,-35.0,-1,1.0,0.5309999999999491
128,45,0.5,1.0,-35.0,-1,1.0,0.3854000000000042
129,45,0.5,0.0625,35.0,1,1.0,3.8342000000001235
130,45,0.5,1.0,-35.0,-1,1.0,0.2256999999999607
131,45,0.5,0.25,35.0,1,1.0,6.261500000000069
132,45,0.5,1.0,-35.0,-1,1.0,0.2058999999999287
133,45,0.5,0.25,35.0,1,1.0,10.260099999999966
134,45,0.5,1.0,-35.0,-1,1.0,0.27979999999990923
135,45,0.5,0.0625,35.0,-1,0.0,0.7564990000000762
136,45,0.5,0.0625,35.0,-1,0.0,3.939300000000003
137,45,0.5,0.125,35.0,1,1.0,0.34160000000008495
138,45,0.5,1.0,35.0,1,1.0,0.24450000000001637
139,45,0.5,1.0,-35.0,-1,1.0,0.21870000000001255
140,45,0.5,0.25,-35.0,-1,1.0,0.6178999999999633
141,45,0.5,1.0,35.0,1,1.0,0.3564999999999827
142,45,0.5,0.125,-35.0,-1,1.0,1.1984999999999673
143,45,0.5,0.25,-35.0,-1,1.0,6.625700000000052
144,45,0.5,0.0625,35.0,1,1.0,6.518599999999992
145,45,0.5,0.25,35.0,1,1.0,0.25060000000007676
146,45,0.5,0.25,-35.0,1,0.0,4.4225999999999885
147,45,0.5,0.25,35.0,1,1.0,0.35590000000001965
148,45,0.5,1.0,35.0,1,1.0,0.29890000000011696
149,45,0.5,0.25,-35.0,-1,1.0,6.756199999999922
150,45,0.5,0.0,-35.0,1,0.0,0.6399000000000115
151,45,0.5,0.125,35.0,1,1.0,0.5807999999999538
152,45,0.5,0.25,-35.0,-1,1.0,2.921699999999987
153,45,0.5,0.0625,-35.0,-1,1.0,3.1597000000000435
154,45,0.5,0.0625,-35.0,1,0.0,5.529099999999971
155,45,0.5,0.125,35.0,1,1.0,0.5179000000000542
156,45,0.5,0.125,35.0,1,1.0,4.418099999999981
157,45,0.5,1.0,35.0,1,1.0,0.09310000000004948
158,45,0.5,0.125,35.0,1,1.0,0.2498000000000502
159,45,0.5,0.25,35.0,1,1.0,0.32370000000003074
160,45,0.5,0.0625,35.0,1,1.0,0.3390999999999167
161,45,0.5,0.0625,-35.0,1,0.0,5.253499999999917
162,45,0.5,0.0625,35.0,-1,0.0,9.839500000000044
163,45,0.5,0.125,-35.0,-1,1.0,0.27089999999998327
164,45,0.5,1.0,35.0,1,1.0,0.18980000000010477
165,45,0.5,0.25,35.0,1,1.0,0.2960999999999103
166,45,0.5,0.0625,35.0,1,1.0,5.261600000000044
167,45,0.5,0.125,-35.0,-1,1.0,0.3747999999999365
168,45,0.5,0.125,-35.0,-1,1.0,1.2548000000000457
169,45,0.5,0.0625,35.0,1,1.0,0.21939999999995052
170,45,0.5,0.0,35.0,-1,0.0,0.801900000000046
171,45,0.5,0.0625,35.0,1,1.0,11.403900000000021
172,45,0.5,1.0,35.0,1,1.0,0.2677999999999656
173,45,0.5,0.125,35.0,1,1.0,0.33589999999992415
174,45,0.5,0.25,35.0,1,1.0,0.3170999999999822
175,45,0.5,0.125,35.0,1,1.0,0.23310000000003583
176,45,0.5,0.0625,35.0,1,1.0,0.23640000000011696
177,45,0.5,0.125,-35.0,1,0.0,11.85979999999995
178,45,0.5,0.0625,35.0,1,1.0,0.6308999999999969
179,45,0.5,0.125,-35.0,-1,1.0,0.3387000000000171
180,45,0.5,0.0625,-35.0,-1,1.0,5.210000000000036
181,45,0.5,0.125,-35.0,-1,1.0,0.3805999999999585
182,45,0.5,0.25,-35.0,-1,1.0,0.2119000000000142
183,45,0.5,0.25,-35.0,-1,1.0,0.4399999999999409
184,45,0.5,0.0625,35.0,1,1.0,0.28140000000007603
185,45,0.5,0.25,-35.0,-1,1.0,0.45499999999992724
186,45,0.5,0.25,-35.0,-1,1.0,0.6447000000000571
187,45,0.5,0.0625,-35.0,-1,1.0,19.1721
188,45,0.5,0.0625,-35.0,-1,1.0,2.052699999999959
189,45,0.5,0.25,-35.0,-1,1.0,0.3727000000000089
190,45,0.5,0.125,35.0,1,1.0,0.3088000000000193
191,45,0.5,0.0625,35.0,1,1.0,0.6231000000001359
192,45,0.5,0.25,-35.0,-1,1.0,0.22429999999997108
193,45,0.5,1.0,-35.0,-1,1.0,0.2481000000000222
194,45,0.5,0.25,35.0,1,1.0,0.2882000000000744
195,45,0.5,0.0625,-35.0,-1,1.0,1.6521000000000186
196,45,0.5,0.125,35.0,1,1.0,0.2541000000001077
197,45,0.5,0.25,35.0,1,1.0,0.29309999999998126
198,45,0.5,0.125,35.0,-1,0.0,10.21810000000005
199,45,0.5,0.0,35.0,1,1.0,6.658100000000104
200,45,0.5,0.0625,35.0,1,1.0,0.5117000000000189
201,45,0.5,1.0,35.0,1,1.0,0.24500000000000455
202,45,0.5,0.0625,-35.0,1,0.0,0.308400000000006
203,45,0.5,0.125,35.0,1,1.0,0.2787999999999329
204,45,0.5,0.0,-35.0,1,0.0,2.685399999999845
205,45,0.5,0.125,-35.0,-1,1.0,0.3891999999998461
206,45,0.5,0.0,35.0,1,1.0,0.2557999999999083
207,45,0.5,0.125,-35.0,-1,1.0,0.44249999999988177
208,45,0.5,0.0,-35.0,1,0.0,13.599199999999882
209,45,0.8,0.0,-35.0,1,0.0,5.960199999999986
210,45,0.5,1.0,-35.0,-1,1.0,0.23029999999994288
211,45,0.5,0.25,-35.0,-1,1.0,0.32029999999986103
212,45,0.5,0.125,-35.0,-1,1.0,0.30429999999978463
213,45,0.5,1.0,-35.0,-1,1.0,0.3143000000000029
214,45,0.5,0.125,-35.0,-1,1.0,3.290899999999965
215,45,0.5,0.0625,35.0,1,1.0,0.4443999999998596
216,45,0.5,0.125,-35.0,-1,1.0,0.4678999999998723
217,45,0.5,0.0625,35.0,1,1.0,0.23789999999985412
218,45,0.5,0.0625,35.0,1,1.0,8.414800000000014
219,45,0.5,0.125,-35.0,-1,1.0,0.7818999999997231
220,45,0.5,0.0625,-35.0,1,0.0,0.3085999999998421
221,45,0.5,0.125,35.0,1,1.0,0.24869999999987158
222,45,0.5,0.0,-35.0,-1,1.0,7.548899999999776
223,45,0.5,1.0,35.0,1,1.0,0.17290000000002692
224,45,0.5,0.125,-35.0,-1,1.0,0.8092999999998938
225,45,0.5,1.0,-35.0,-1,1.0,0.26339999999981956
226,45,0.5,0.25,35.0,1,1.0,0.17289999999979955
227,45,0.5,0.0,35.0,-1,0.0,4.509699999999839
228,45,0.5,0.125,35.0,1,1.0,0.4034999999998945
229,45,0.5,0.0625,35.0,1,1.0,21.49019999999996
230,45,0.5,0.125,35.0,1,1.0,0.5477000000000771
231,45,0.5,1.0,35.0,1,1.0,0.2314000000001215
232,45,0.5,0.125,-35.0,-1,1.0,0.2884999999998854
233,45,0.5,0.0625,-35.0,-1,1.0,1.1846999999997934
234,45,0.5,1.0,-35.0,-1,1.0,0.2687999999998283
235,45,0.5,0.0625,35.0,1,1.0,15.398599999999988
236,45,0.5,1.0,-35.0,-1,1.0,0.20259999999984757
237,45,0.5,0.125,-35.0,-1,1.0,4.392999999999802
238,45,0.5,0.0625,35.0,1,1.0,0.38629999999989195
239,45,0.5,0.125,-35.0,-1,1.0,0.7298999999998159
240,45,0.5,0.0625,-35.0,-1,1.0,1.1335999999998876
241,45,0.5,0.25,35.0,1,1.0,0.23999999999978172
242,45,0.5,0.25,35.0,1,1.0,0.23679999999990287
243,45,0.5,1.0,-35.0,-1,1.0,0.2504999999998745
244,45,0.5,0.0625,-35.0,-1,1.0,13.186999999999898
245,45,0.5,0.125,35.0,1,1.0,0.24759999999992033
246,45,0.5,0.0625,35.0,1,1.0,0.3246999999998934
247,45,0.5,0.0625,35.0,1,1.0,0.3215999999997621
248,45,0.5,0.0625,35.0,1,1.0,0.17139999999972133
249,45,0.5,1.0,-35.0,-1,1.0,0.18160000000011678
250,45,0.5,0.125,-35.0,-1,1.0,1.494899999999916
251,45,0.5,0.0,35.0,1,1.0,0.3489999999999327
252,45,0.5,1.0,35.0,1,1.0,0.20569999999975153
253,45,0.5,0.0625,-35.0,1,0.0,0.21539999999981774
254,45,0.5,0.0625,35.0,1,1.0,0.672800000000052
255,45,0.5,0.0625,35.0,1,1.0,5.845699999999852
256,45,0.5,1.0,-35.0,-1,1.0,0.28969899999992776
257,45,0.5,0.0625,-35.0,1,0.0,7.5896000000000186
258,45,0.5,0.125,35.0,1,1.0,0.20369999999979882
259,45,0.5,1.0,35.0,1,1.0,0.20010000000002037
260,45,0.5,0.0625,-35.0,1,0.0,0.303599999999733
261,45,0.5,0.0625,-35.0,-1,1.0,0.37709999999970023
262,45,0.5,0.0625,-35.0,1,0.0,14.670499999999947
263,45,0.8,0.0625,-35.0,-1,1.0,0.2679000000000542
264,45,0.5,1.0,-35.0,-1,1.0,0.21519999999986794
265,45,0.5,0.0625,-35.0,-1,1.0,0.8478999999999814
266,45,0.5,0.25,-35.0,-1,1.0,2.5779999999999745
267,45,0.5,0.25,-35.0,-1,1.0,0.8217999999999392
268,45,0.5,0.125,35.0,1,1.0,0.19879999999989195
269,45,0.5,0.0,35.0,1,1.0,0.6759999999997035
270,45,0.5,1.0,35.0,1,1.0,0.185799999999972
271,45,0.5,0.0,35.0,1,1.0,3.8058999999998377
272,45,0.5,1.0,35.0,1,1.0,0.26289999999994507
273,45,0.5,0.125,35.0,1,1.0,0.3532000000000153
274,45,0.5,0.25,-35.0,-1,1.0,0.45669999999995525
275,45,0.5,1.0,-35.0,-1,1.0,0.3531999999997879
276,45,0.5,0.0,-35.0,1,0.0,13.953399999999874
277,45,0.5,0.25,-35.0,-1,1.0,0.36419999999998254
278,45,0.5,1.0,-35.0,-1,1.0,0.22800000000006548
279,45,0.5,0.0,35.0,1,1.0,0.47100000000000364
280,45,0.5,0.125,35.0,1,1.0,0.30749999999989086
281,45,0.5,1.0,35.0,1,1.0,0.2178999999998723
282,45,0.5,1.0,35.0,1,1.0,0.19779999999968823
283,45,0.5,0.0625,35.0,1,1.0,0.22499999999990905
284,45,0.5,0.25,35.0,1,1.0,0.23499999999989996
285,45,0.5,0.25,35.0,1,1.0,0.2881999999999607
286,45,0.5,0.125,-35.0,-1,1.0,0.29809999999974934
287,45,0.5,0.125,35.0,1,1.0,0.31179999999972097
288,45,0.5,0.25,35.0,1,1.0,0.20219999999994798
289,45,0.5,0.0625,35.0,1,1.0,0.6220000000000709
290,45,0.5,0.0625,35.0,1,1.0,10.258999999999787
291,45,0.5,0.0625,-35.0,-1,1.0,0.45249999999987267
292,45,0.5,0.0,-35.0,-1,1.0,14.919399999999769
293,45,0.5,0.0625,35.0,1,1.0,0.33009999999990214
294,45,0.5,0.125,-35.0,-1,1.0,0.3372999999996864
295,45,0.5,0.0,-35.0,1,0.0,4.694099999999935
296,45,0.5,0.0,35.0,1,1.0,0.2639999999998963
297,45,0.5,0.125,-35.0,-1,1.0,0.23440000000005057
298,45,0.5,0.125,-35.0,-1,1.0,8.261199999999917
299,45,0.5,0.125,-35.0,-1,1.0,0.22129999999992833
300,45,0.5,1.0,-35.0,-1,1.0,0.26509999999984757
301,45,0.5,0.25,-35.0,-1,1.0,0.48559999999974934
302,45,0.5,0.25,-35.0,-1,1.0,0.5151999999998225
303,45,0.5,0.0625,-35.0,-1,1.0,1.0453999999999724
304,45,0.5,1.0,35.0,1,1.0,0.3091999999999189
305,45,0.5,0.125,35.0,1,1.0,0.7623999999998432
306,45,0.5,0.25,35.0,1,1.0,0.42620000000010805
307,45,0.5,1.0,-35.0,-1,1.0,0.21249999999986358
308,45,0.5,0.25,-35.0,-1,1.0,36.259199999999964
309,45,0.5,0.125,35.0,1,1.0,0.3342999999999847
310,45,0.5,0.25,35.0,1,1.0,0.27119999999990796
311,45,0.5,0.0625,35.0,1,1.0,0.5047999999997046
312,45,0.5,0.0625,-35.0,-1,1.0,44.30139999999983
313,45,0.5,0.25,-35.0,-1,1.0,0.4696999999998752
314,45,0.5,0.0625,-35.0,-1,1.0,0.24319999999988795
315,45,0.5,1.0,-35.0,-1,1.0,1.0398999999999887
316,45,0.5,0.0,-35.0,1,0.0,0.7101999999999862
317,45,0.5,0.125,35.0,1,1.0,0.12049999999999272
318,45,0.5,0.0,35.0,1,1.0,0.2705999999998312
319,45,0.5,0.125,35.0,1,1.0,0.23400000000015098
320,45,0.5,0.125,-35.0,-1,1.0,7.390599999999949
321,45,0.5,1.0,35.0,1,1.0,0.24119999999993524
322,45,0.5,0.0625,35.0,1,1.0,2.294499999999971
323,45,0.5,0.125,-35.0,-1,1.0,54.508099999999786
324,45,0.5,0.25,-35.0,-1,1.0,1.1768989999998212
325,45,0.5,0.0625,35.0,1,1.0,0.5106999999998152
326,45,0.5,0.0,35.0,1,1.0,5.707599999999957
327,45,0.5,0.0625,35.0,1,1.0,0.37429999999972097
328,45,0.5,0.125,-35.0,-1,1.0,20.391099999999824
329,45,0.5,1.0,-35.0,-1,1.0,0.252100000000155
330,45,0.5,0.125,-35.0,-1,1.0,50.91890000000012
331,45,0.5,0.25,35.0,1,1.0,0.2140999999999167
332,45,0.5,1.0,-35.0,0,0.0,59.9541999999999
333,45,0.5,0.0625,35.0,1,1.0,0.5199000000000069
334,45,0.5,0.0625,35.0,1,1.0,0.3133999999997741
335,45,0.5,0.25,-35.0,-1,1.0,0.26700000000005275
336,45,0.5,0.0625,-35.0,0,0.0,59.93369999999982
337,45,0.5,0.25,-35.0,-1,1.0,0.40609999999992397
338,45,0.5,0.0625,-35.0,-1,1.0,3.596100000000206
339,45,0.5,0.125,-35.0,-1,1.0,0.25309999999990396
340,45,0.5,1.0,-35.0,-1,1.0,0.2130000000001928
341,45,0.5,0.125,35.0,1,1.0,0.20000000000027285
342,45,0.5,0.25,35.0,1,1.0,0.20640000000003056
343,45,0.5,0.25,35.0,1,1.0,0.16660000000001673
344,45,0.5,0.0625,-35.0,1,0.0,0.35029999999960637
345,45,0.5,0.25,35.0,1,1.0,0.25420000000030996
346,45,0.5,1.0,35.0,1,1.0,0.7171000000003005
347,45,0.5,0.125,-35.0,-1,1.0,0.7404999999998836
348,45,0.5,1.0,35.0,1,1.0,0.16409999999996217
349,45,0.5,0.0,-35.0,-1,1.0,8.450800000000072
350,45,0.5,1.0,-35.0,-1,1.0,0.2881999999999607
351,45,0.5,0.125,-35.0,1,0.0,0.4347000000002481
352,45,0.5,0.25,-35.0,-1,1.0,17.22170000000051
353,45,0.5,0.0625,35.0,1,1.0,0.3022000000000844
354,45,0.5,0.0,-35.0,-1,1.0,7.42910000000029
355,45,0.5,0.0625,-35.0,-1,1.0,11.049700000000485
356,45,0.5,0.125,35.0,1,1.0,0.21700000000009823
357,45,0.5,1.0,35.0,1,1.0,0.24670000000014625
358,45,0.5,0.0,35.0,1,1.0,0.3336000000003878
359,45,0.5,1.0,-35.0,-1,1.0,0.2776000000003478
360,45,0.5,0.0625,-35.0,-1,1.0,15.630799999999908
361,45,0.5,0.0,-35.0,-1,1.0,4.764900000000125
362,45,0.5,1.0,35.0,1,1.0,0.27539999999999054
363,45,0.5,0.0625,35.0,1,1.0,20.668400000000474
364,45,0.5,0.0625,35.0,1,1.0,0.37270000000035
365,45,0.5,1.0,35.0,1,1.0,0.21640000000024884
366,45,0.5,0.0,-35.0,1,0.0,23.463399999999638
367,45,0.5,0.125,-35.0,-1,1.0,2.7638999999999214
368,45,0.5,0.25,-35.0,-1,1.0,0.34140000000024884
369,45,0.5,0.125,35.0,1,1.0,0.19150000000036016
370,45,0.5,0.0625,-35.0,-1,1.0,27.557900000000245
371,45,0.5,0.0625,-35.0,-1,1.0,0.7226000000000568
372,45,0.5,0.25,-35.0,-1,1.0,0.5526000000004387
373,45,0.5,0.0,35.0,1,1.0,13.852599999999711
374,45,0.5,0.25,35.0,1,1.0,0.483600000000024
375,45,0.5,0.0625,35.0,1,1.0,0.5241000000005442
376,45,0.5,0.0625,-35.0,1,0.0,26.96060000000034
377,45,0.5,0.25,35.0,1,1.0,0.36859999999978754
378,45,0.5,0.125,-35.0,-1,1.0,0.5918000000006032
379,45,0.5,1.0,35.0,1,1.0,0.18209999999999127
380,45,0.5,0.25,35.0,1,1.0,0.28179999999974825
381,45,0.5,0.25,-35.0,-1,1.0,16.98550000000023
382,45,0.5,1.0,35.0,1,1.0,0.4333000000001448
383,45,0.5,0.125,35.0,1,1.0,0.5662000000002081
384,45,0.5,0.125,-35.0,-1,1.0,5.526699999999892
385,45,0.5,1.0,35.0,1,1.0,0.2199000000000524
386,45,0.5,0.25,35.0,1,1.0,36.31009999999969
387,45,0.5,0.125,35.0,1,1.0,0.26490000000012515
388,45,0.5,1.0,-35.0,-1,1.0,0.35510000000022046
389,45,0.5,1.0,-35.0,0,0.0,59.94900000000007
390,45,0.5,0.0,-35.0,1,0.0,23.074400999999853
391,45,0.7,0.0,-0.0,0,0.0,59.93850100000054
392,45,0.5,1.0,-35.0,-1,1.0,0.26430100000015955
393,45,0.5,0.25,-35.0,-1,1.0,4.380901000000449
394,45,0.5,0.0625,-35.0,-1,1.0,0.784701000000041
395,45,0.5,0.125,35.0,1,1.0,0.5153010000003633
396,45,0.5,0.125,35.0,1,1.0,0.20160100000020975
397,45,0.5,0.0625,-35.0,1,0.0,11.821600999999646
398,45,0.5,0.0625,35.0,1,1.0,0.7890010000000984
399,45,0.5,0.125,-35.0,-1,1.0,2.8523010000003524
400,45,0.5,0.25,-35.0,-1,1.0,0.2995009999999638
401,45,0.5,0.0625,-35.0,-1,1.0,17.75630100000035
402,45,0.5,1.0,35.0,1,1.0,0.26670100000001185
403,45,0.5,0.25,35.0,1,1.0,0.4767010000000482
404,45,0.5,0.125,-35.0,-1,1.0,12.64040100000011
405,45,0.5,0.125,35.0,1,1.0,0.23440100000016173
406,45,0.5,0.0625,-35.0,1,0.0,0.4276009999998678
407,45,0.5,0.25,-35.0,-1,1.0,0.3778010000005452
408,45,0.5,0.0625,35.0,1,1.0,0.3214010000001508
409,45,0.5,0.125,-35.0,-1,1.0,8.381700999999794
410,45,0.5,1.0,-35.0,-1,1.0,8.018601000000217
411,45,0.5,0.0625,-35.0,-1,1.0,3.75300100000004
412,45,0.5,0.0625,-35.0,-1,1.0,7.74250100000063
413,45,0.5,0.0625,-35.0,-1,1.0,0.39970099999982267
414,45,0.5,0.25,-35.0,-1,1.0,1.6266010000003917
415,45,0.5,0.125,-35.0,-1,1.0,0.4267009999998663
416,45,0.5,0.25,-35.0,-1,1.0,0.5970010000000912
417,45,0.5,0.125,35.0,1,1.0,0.3305009999999129
418,45,0.5,1.0,35.0,1,1.0,0.30070100000011735
419,45,0.5,0.0,35.0,1,1.0,11.543801000000258
420,45,0.5,0.0625,35.0,1,1.0,0.507600999999795
421,45,0.5,1.0,35.0,1,1.0,0.19780100000025413
422,45,0.5,0.0625,-35.0,-1,1.0,8.77460100000053
423,45,0.5,0.25,-35.0,-1,1.0,0.7550010000004477
424,45,0.5,0.125,35.0,1,1.0,0.5518010000000686
425,45,0.5,1.0,-35.0,-1,1.0,0.2753010000001268
426,45,0.5,0.0,-35.0,1,0.0,0.28870099999994636
427,45,0.7,0.0,35.0,-1,0.0,6.582101000000421
428,45,0.5,1.0,35.0,1,1.0,0.2958010000002105
429,45,0.5,0.25,-35.0,-1,1.0,5.069200999999794
430,45,0.5,0.125,35.0,1,1.0,0.47970100000020466
431,45,0.5,1.0,-35.0,-1,1.0,0.23670099999981176
432,45,0.5,0.0,35.0,-1,0.0,22.416701000000103
433,45,0.5,0.125,-35.0,-1,1.0,0.3177009999999427
434,45,0.5,0.125,35.0,1,1.0,7.867801000000327
435,45,0.5,1.0,-35.0,-1,1.0,0.25480100000004313
436,45,0.5,0.0625,35.0,1,1.0,22.954801000000316
437,45,0.5,0.125,-35.0,-1,1.0,0.5224009999997179
438,45,0.5,0.25,35.0,1,1.0,0.29280100000005405
439,45,0.5,0.25,-35.0,-1,1.0,0.4327010000001792
440,45,0.5,0.125,-35.0,-1,1.0,0.356101000000308
441,45,0.5,0.25,-35.0,-1,1.0,0.31630100000029415
442,45,0.5,0.125,35.0,1,1.0,0.3234009999996488
443,45,0.5,1.0,35.0,1,1.0,0.22320099999978993
444,45,0.5,0.0,35.0,-1,0.0,10.329901000000064
445,45,0.5,0.25,35.0,1,1.0,0.5539010000006783
446,45,0.5,0.25,-35.0,-1,1.0,9.857200999999804
447,45,0.5,1.0,35.0,1,1.0,0.2516009999999369
448,45,0.5,1.0,-35.0,-1,1.0,0.24120100000027378
449,45,0.5,0.125,-35.0,-1,1.0,15.187901000000238
450,45,0.5,0.125,-35.0,-1,1.0,0.6191009999997732
451,45,0.5,0.0625,35.0,1,1.0,0.22210099999983868
452,45,0.5,0.0625,35.0,1,1.0,0.25210100000003877
453,45,0.5,0.25,35.0,1,1.0,0.4789010000004055
454,45,0.5,0.0,-35.0,-1,1.0,28.622701000000234
455,45,0.5,1.0,-35.0,-1,1.0,0.20350099999996019
456,45,0.5,0.0625,35.0,1,1.0,0.45030099999985396
457,45,0.5,1.0,-35.0,-1,1.0,0.1805010000002767
1,46,0.5,1.0,35.0,1,1.0,1.3864999999999994
2,46,0.5,0.5,-35.0,-1,1.0,0.4209000000000005
3,46,0.5,0.5,35.0,1,1.0,0.3205999999999998
4,46,0.5,0.5,35.0,1,1.0,6.220600000000001
5,46,0.5,1.0,-35.0,-1,1.0,0.32649999999999935
6,46,0.5,0.5,35.0,-1,0.0,1.0671999999999997
7,46,0.7,0.5,-35.0,-1,1.0,0.2721000000000018
8,46,0.5,1.0,-35.0,-1,1.0,0.3382999999999967
9,46,0.5,1.0,35.0,1,1.0,0.22579999999999956
10,46,0.5,1.0,-35.0,-1,1.0,0.22209999999999752
11,46,0.5,0.5,35.0,1,1.0,0.3259000000000043
12,46,0.5,1.0,35.0,1,1.0,0.3295999999999992
13,46,0.5,1.0,35.0,1,1.0,0.19069999999999965
14,46,0.5,1.0,-35.0,-1,1.0,0.2693999999999903
15,46,0.5,1.0,35.0,1,1.0,0.6451999999999956
16,46,0.5,1.0,-35.0,-1,1.0,0.22820000000000107
17,46,0.5,1.0,-35.0,-1,1.0,0.20259999999998968
18,46,0.5,1.0,-35.0,-1,1.0,0.26959999999999695
19,46,0.5,0.5,35.0,-1,0.0,0.5098999999999876
20,46,0.4,0.5,-35.0,-1,1.0,0.2412999999999954
21,46,0.5,0.5,-35.0,1,0.0,0.5537999999999954
22,46,0.4,0.5,-35.0,-1,1.0,0.7189999999999799
23,46,0.5,0.5,35.0,-1,0.0,0.7968999999999937
24,46,0.2,0.5,-35.0,-1,1.0,2.774899999999988
25,46,0.5,1.0,-35.0,-1,1.0,0.1564999999999941
26,46,0.5,0.5,-35.0,-1,1.0,0.13460000000000605
27,46,0.5,0.5,35.0,-1,0.0,1.0164999999999935
28,46,0.1,0.5,35.0,-1,0.0,1.3379999999999939
29,46,0.1,0.5,35.0,1,1.0,1.1118000000000023
30,46,0.5,1.0,35.0,1,1.0,0.9484999999999815
31,46,0.5,0.5,35.0,-1,0.0,1.0085000000000122
32,46,0.2,0.5,35.0,1,1.0,0.311799999999991
33,46,0.5,0.5,35.0,-1,0.0,1.068799999999996
34,46,0.3,0.5,35.0,-1,0.0,0.013799999999989154
35,46,0.3,0.5,35.0,1,1.0,0.38290000000000646
36,46,0.5,1.0,35.0,1,1.0,0.8792000000000257
37,46,0.5,1.0,35.0,-1,0.0,4.033900000000017
38,46,0.5,1.0,-35.0,-1,1.0,0.42260000000001696
39,46,0.5,0.5,35.0,-1,0.0,6.253700000000009
40,46,0.4,0.5,35.0,-1,0.0,0.9875000000000114
41,46,0.3,0.5,35.0,1,1.0,0.2966000000000122
42,46,0.5,0.5,35.0,-1,0.0,0.5871999999999957
43,46,0.3,0.5,35.0,-1,0.0,1.0962000000000103
44,46,0.3,0.5,35.0,1,1.0,0.5543999999999869
45,46,0.5,1.0,35.0,-1,0.0,0.6008999999999958
46,46,0.3,1.0,35.0,1,1.0,3.9912000000000205
47,46,0.5,1.0,35.0,-1,0.0,0.10480000000001155
48,46,0.3,1.0,35.0,1,1.0,1.0704000000000065
49,46,0.5,0.5,35.0,-1,0.0,5.0873000000000275
50,46,0.4,0.5,35.0,-1,0.0,0.07789999999999964
51,46,0.4,0.5,35.0,1,1.0,11.043900000000036
52,46,0.5,1.0,-35.0,-1,1.0,0.41329999999999245
53,46,0.5,0.5,-35.0,-1,1.0,0.26140000000000896
54,46,0.5,0.5,-35.0,-1,1.0,0.5005000000000166
55,46,0.5,1.0,-35.0,-1,1.0,0.36010000000001696
56,46,0.5,1.0,-35.0,-1,1.0,0.25190000000000623
57,46,0.5,0.5,35.0,1,1.0,0.5645000000000095
58,46,0.5,0.5,-35.0,-1,1.0,0.26020000000002597
59,46,0.5,0.5,35.0,-1,0.0,1.0570000000000164
60,46,0.2,0.5,-35.0,-1,1.0,0.09899999999998954
61,46,0.5,1.0,35.0,-1,0.0,0.07939999999996417
62,46,0.1,1.0,35.0,1,1.0,0.7375999999999863
63,46,0.5,0.5,35.0,1,1.0,0.5846000000000231
64,46,0.5,1.0,-35.0,-1,1.0,0.3067999999999529
65,46,0.5,1.0,35.0,1,1.0,0.277499999999975
66,46,0.5,0.5,-35.0,-1,1.0,2.861699999999985
67,46,0.5,1.0,-35.0,-1,1.0,0.30520000000001346
68,46,0.5,0.5,35.0,1,1.0,0.495399999999961
69,46,0.5,1.0,35.0,1,1.0,0.30579999999997654
70,46,0.5,0.5,35.0,1,1.0,0.32759999999996126
71,46,0.5,0.5,-35.0,-1,1.0,0.4187999999999761
72,46,0.5,1.0,35.0,1,1.0,0.21849999999994907
73,46,0.5,0.5,35.0,1,1.0,0.18429999999995061
74,46,0.5,0.5,-35.0,-1,1.0,0.5600999999999203
75,46,0.5,0.5,-35.0,-1,1.0,0.28870000000000573
76,46,0.5,0.5,-35.0,-1,1.0,0.7271999999999252
77,46,0.5,0.5,-35.0,1,0.0,1.0306999999999675
78,46,0.6,0.5,-35.0,1,0.0,1.2024999999999864
79,46,0.6,0.5,35.0,1,1.0,0.3059999999999832
80,46,0.5,0.5,-35.0,-1,1.0,0.28820000000001755
81,46,0.5,1.0,-35.0,-1,1.0,0.23730000000000473
82,46,0.5,0.5,-35.0,-1,1.0,0.210899999999981
83,46,0.5,1.0,35.0,-1,0.0,0.2962999999999738
84,46,0.3,1.0,-35.0,-1,1.0,0.33279999999996335
85,46,0.5,0.5,-35.0,-1,1.0,0.3413999999999646
86,46,0.5,0.5,35.0,1,1.0,4.581099999999992
87,46,0.5,0.5,-35.0,-1,1.0,0.23270000000002256
88,46,0.5,1.0,-35.0,-1,1.0,0.30279999999999063
89,46,0.5,0.5,35.0,1,1.0,0.6961999999999762
90,46,0.5,1.0,35.0,1,1.0,0.3175000000000523
91,46,0.5,0.5,-35.0,-1,1.0,3.2092999999999847
92,46,0.5,1.0,35.0,-1,0.0,1.0971000000000117
93,46,0.3,1.0,35.0,1,1.0,0.372099999999989
94,46,0.5,0.5,-35.0,-1,1.0,0.2769999999999868
95,46,0.5,1.0,-35.0,-1,1.0,0.3131999999999948
96,46,0.5,0.5,-35.0,-1,1.0,5.34069999999997
97,46,0.5,1.0,-35.0,1,0.0,1.1639000000000124
98,46,0.4,1.0,35.0,1,1.0,0.4948999999999728
99,46,0.5,1.0,35.0,1,1.0,0.30759999999997945
100,46,0.5,0.5,35.0,-1,0.0,0.9636000000000422
101,46,0.4,0.5,35.0,-1,0.0,4.16399999999993
102,46,0.4,0.5,35.0,1,1.0,0.4886999999999375
103,46,0.5,1.0,-35.0,-1,1.0,8.451599999999985
104,46,0.5,0.5,35.0,1,1.0,0.6238999999999919
105,46,0.5,1.0,-35.0,-1,1.0,1.1056999999999562
106,46,0.5,1.0,-35.0,-1,1.0,0.3446999999999889
107,46,0.5,1.0,-35.0,-1,1.0,0.48980000000000246
108,46,0.5,1.0,35.0,1,1.0,0.4674999999999727
109,46,0.5,0.5,-35.0,-1,1.0,0.2139999999999418
110,46,0.5,0.5,35.0,1,1.0,0.39639999999997144
111,46,0.5,0.5,35.0,1,1.0,10.975799999999992
112,46,0.5,1.0,-35.0,-1,1.0,0.35429999999996653
113,46,0.5,0.5,35.0,1,1.0,0.2589999999999577
114,46,0.5,0.5,-35.0,-1,1.0,0.3251000000000204
115,46,0.5,0.5,-35.0,-1,1.0,-0.014199999999846113
116,46,0.5,0.5,35.0,1,1.0,0.2459000000001197
117,46,0.5,0.5,-35.0,-1,1.0,0.2703999999999951
118,46,0.5,1.0,35.0,1,1.0,0.3263000000000602
119,46,0.5,1.0,35.0,1,1.0,0.3892000000000735
120,46,0.5,1.0,-35.0,1,0.0,0.9397999999999911
121,46,0.6,1.0,-35.0,-1,1.0,0.31950000000006185
122,46,0.5,1.0,-35.0,-1,1.0,0.36770000000012715
123,46,0.5,0.5,35.0,-1,0.0,0.1309000000001106
124,46,0.4,0.5,-35.0,-1,1.0,0.42439999999999145
125,46,0.5,0.5,35.0,1,1.0,0.22520000000008622
126,46,0.5,0.5,-35.0,1,0.0,0.028000000000133696
127,46,0.5,0.5,-35.0,-1,1.0,0.22839999999996508
128,46,0.5,1.0,35.0,1,1.0,0.33600000000001273
129,46,0.5,1.0,35.0,1,1.0,0.7360989999999674
130,46,0.5,1.0,-35.0,-1,1.0,0.2542000000000826
131,46,0.5,0.5,-35.0,-1,1.0,0.3262000000000853
132,46,0.5,1.0,35.0,1,1.0,0.4816000000000713
133,46,0.5,0.5,-35.0,-1,1.0,0.2137000000000171
134,46,0.5,1.0,-35.0,-1,1.0,-0.03290000000004056
135,46,0.5,1.0,-35.0,-1,1.0,0.2138999999999669
136,46,0.5,1.0,-35.0,-1,1.0,0.2542000000000826
137,46,0.5,0.5,35.0,1,1.0,0.22910000000001673
138,46,0.5,1.0,-35.0,-1,1.0,0.05119999999999436
139,46,0.5,1.0,35.0,-1,0.0,0.09310000000004948
140,46,0.2,1.0,-35.0,-1,1.0,0.3427000000000362
141,46,0.5,0.5,35.0,1,1.0,0.41410000000007585
142,46,0.5,0.5,-35.0,1,0.0,6.728600000000029
143,46,0.3,0.5,-35.0,-1,1.0,0.3625000000000682
144,46,0.5,1.0,35.0,1,1.0,-0.00580000000002201
145,46,0.5,0.5,-35.0,-1,1.0,0.25920000000007803
146,46,0.5,1.0,35.0,1,1.0,0.3349000000000615
147,46,0.5,1.0,35.0,1,1.0,0.24120000000016262
148,46,0.5,0.5,35.0,1,1.0,7.254400000000146
149,46,0.5,0.5,-35.0,1,0.0,1.0463000000000875
150,46,0.7,0.5,-35.0,-1,1.0,4.998000000000047
151,46,0.5,1.0,-35.0,-1,1.0,4.474299999999971
152,46,0.5,0.5,-35.0,-1,1.0,0.3734000000000606
153,46,0.5,0.5,35.0,1,1.0,1.2884000000000242
154,46,0.5,0.5,-35.0,-1,1.0,0.5684000000001106
155,46,0.5,0.5,35.0,1,1.0,1.0005000000001019
156,46,0.5,0.5,-35.0,-1,1.0,0.3632999999999811
157,46,0.5,0.5,-35.0,-1,1.0,0.683800000000133
158,46,0.5,0.5,35.0,1,1.0,0.5080000000000382
159,46,0.5,1.0,35.0,1,1.0,0.5357999999999947
160,46,0.5,1.0,-35.0,-1,1.0,0.27720000000010714
161,46,0.5,1.0,35.0,1,1.0,0.29570000000001073
162,46,0.5,0.5,-35.0,-1,1.0,0.3647000000000844
163,46,0.5,0.5,35.0,1,1.0,0.5775999999999613
164,46,0.5,0.5,-35.0,-1,1.0,0.3162999999999556
165,46,0.5,1.0,35.0,1,1.0,0.3125999999999749
166,46,0.5,1.0,35.0,1,1.0,0.40210000000001855
167,46,0.5,0.5,-35.0,-1,1.0,0.24890000000004875
168,46,0.5,0.5,35.0,1,1.0,0.30780000000004293
169,46,0.5,1.0,35.0,1,1.0,1.865500000000111
170,46,0.5,1.0,35.0,1,1.0,0.8288000000000011
171,46,0.5,1.0,35.0,1,1.0,0.30979999999999563
172,46,0.5,1.0,-35.0,-1,1.0,0.31720000000007076
173,46,0.5,1.0,35.0,1,1.0,4.591099999999983
174,46,0.5,1.0,35.0,1,1.0,4.148700000000076
175,46,0.5,1.0,-35.0,-1,1.0,0.2697000000000571
176,46,0.5,1.0,-35.0,-1,1.0,0.46270000000004075
177,46,0.5,1.0,35.0,-1,0.0,3.086900000000014
178,46,0.6,1.0,-35.0,1,0.0,13.007800000000088
179,46,0.6,1.0,-35.0,-1,1.0,0.3974000000000615
180,46,0.5,0.5,35.0,1,1.0,0.4216000000000122
181,46,0.5,1.0,35.0,-1,0.0,0.9988000000000739
182,46,0.4,1.0,-35.0,-1,1.0,6.246300000000019
183,46,0.5,1.0,-35.0,-1,1.0,0.45890000000008513
184,46,0.5,1.0,35.0,1,1.0,0.4855000000000018
185,46,0.5,1.0,-35.0,-1,1.0,0.3531000000000404
186,46,0.5,1.0,35.0,1,1.0,0.28900000000010095
187,46,0.5,1.0,35.0,1,1.0,0.22500000000002274
188,46,0.5,0.5,-35.0,-1,1.0,1.5699000000000751
189,46,0.5,1.0,35.0,1,1.0,0.2239000000000715
190,46,0.5,1.0,-35.0,-1,1.0,0.26400000000001
191,46,0.5,0.5,35.0,1,1.0,0.20840000000009695
192,46,0.5,1.0,35.0,1,1.0,0.34600000000000364
193,46,0.5,0.5,-35.0,-1,1.0,0.3025000000000091
194,46,0.5,0.5,35.0,1,1.0,0.08400000000006003
195,46,0.5,0.5,35.0,1,1.0,0.7010000000000218
196,46,0.5,0.5,-35.0,-1,1.0,0.16770000000008167
197,46,0.5,0.5,35.0,1,1.0,2.4050000000000864
198,46,0.5,0.5,35.0,1,1.0,1.5217000000000098
199,46,0.5,1.0,35.0,1,1.0,1.0850000000000364
200,46,0.5,1.0,-35.0,-1,1.0,0.26710000000002765
201,46,0.5,0.5,35.0,1,1.0,0.8151000000000295
202,46,0.5,0.5,-35.0,-1,1.0,0.29349999999999454
203,46,0.5,0.5,35.0,1,1.0,0.3102000000000089
204,46,0.5,1.0,35.0,1,1.0,0.73700000000008
205,46,0.5,0.5,35.0,1,1.0,0.21910000000002583
206,46,0.5,0.5,35.0,1,1.0,0.4915000000000873
207,46,0.5,0.5,-35.0,-1,1.0,0.23710000000005493
208,46,0.5,1.0,35.0,1,1.0,0.5492999999999029
209,46,0.5,1.0,35.0,1,1.0,0.2677999999999656
210,46,0.5,0.5,-35.0,1,0.0,19.345300000000066
211,46,0.8,0.5,35.0,-1,0.0,10.754200000000083
212,46,0.7,0.5,35.0,1,1.0,1.0528000000000475
213,46,0.5,0.5,35.0,1,1.0,10.451299999999947
214,46,0.5,1.0,-35.0,-1,1.0,0.3164000000000442
215,46,0.5,1.0,-35.0,-1,1.0,0.2133000000001175
216,46,0.5,1.0,35.0,1,1.0,1.2731999999999744
217,46,0.5,1.0,35.0,1,1.0,1.0236000000001013
218,46,0.5,0.5,-35.0,-1,1.0,0.3587999999999738
219,46,0.5,0.5,-35.0,-1,1.0,0.2665000000000646
220,46,0.5,1.0,-35.0,-1,1.0,0.21090000000003783
221,46,0.5,1.0,-35.0,-1,1.0,0.322400000000016
222,46,0.5,0.5,35.0,1,1.0,1.4367000000000871
223,46,0.5,1.0,35.0,-1,0.0,7.682700000000068
224,46,0.3,1.0,-35.0,-1,1.0,0.27700000000004366
225,46,0.5,1.0,-35.0,-1,1.0,0.27969999999993433
226,46,0.5,0.5,35.0,-1,0.0,0.11040000000002692
227,46,0.2,0.5,35.0,-1,0.0,4.419799999999896
228,46,0.1,0.5,35.0,-1,0.0,0.5205999999998312
229,46,0.1,0.5,35.0,-1,0.0,0.7398999999998068
230,46,0.1,0.5,35.0,-1,0.0,4.797600000000102
231,46,0.1,0.5,35.0,-1,0.0,6.290599999999813
232,46,0.1,0.5,35.0,1,1.0,1.6177000000000135
233,46,0.5,0.5,35.0,-1,0.0,0.10389999999983957
234,46,0.1,0.5,35.0,-1,0.0,1.4011000000000422
235,46,0.1,0.5,35.0,1,1.0,0.6506999999996879
236,46,0.5,0.5,35.0,1,1.0,0.8946999999998297
237,46,0.5,0.5,-35.0,-1,1.0,0.18089999999983775
238,46,0.5,0.5,-35.0,-1,1.0,0.354799999999841
239,46,0.5,0.5,-35.0,-1,1.0,0.12779999999997926
240,46,0.5,0.5,-35.0,-1,1.0,0.4217999999998483
241,46,0.5,1.0,35.0,1,1.0,0.9679000000000997
242,46,0.5,0.5,-35.0,-1,1.0,0.23189999999976862
243,46,0.5,0.5,35.0,1,1.0,0.45479999999997744
244,46,0.5,1.0,-35.0,-1,1.0,0.2886999999998352
245,46,0.5,1.0,35.0,1,1.0,0.5747999999998683
246,46,0.5,0.5,-35.0,-1,1.0,0.30539999999996326
247,46,0.5,1.0,35.0,1,1.0,0.2615000000000691
248,46,0.5,1.0,-35.0,-1,1.0,0.18229999999994106
249,46,0.5,1.0,35.0,-1,0.0,1.4751000000001113
250,46,0.4,1.0,-35.0,-1,1.0,0.3791000000001077
251,46,0.5,1.0,35.0,1,1.0,0.26859899999976733
252,46,0.5,0.5,35.0,1,1.0,0.19259999999985666
253,46,0.5,0.5,35.0,1,1.0,0.8788999999999305
254,46,0.5,0.5,35.0,1,1.0,0.34600000000000364
255,46,0.5,1.0,-35.0,-1,1.0,0.16229999999995925
256,46,0.5,0.5,35.0,1,1.0,0.33609999999998763
257,46,0.5,1.0,-35.0,-1,1.0,0.27899999999999636
258,46,0.5,1.0,-35.0,-1,1.0,0.2096999999998843
259,46,0.5,1.0,-35.0,-1,1.0,0.2726000000000113
260,46,0.5,1.0,-35.0,-1,1.0,0.24299999999993815
261,46,0.5,1.0,-35.0,-1,1.0,0.315900000000056
262,46,0.5,0.5,-35.0,-1,1.0,0.3263999999999214
263,46,0.5,1.0,35.0,1,1.0,0.38249999999993634
264,46,0.5,1.0,35.0,1,1.0,0.2666999999999007
265,46,0.5,1.0,35.0,1,1.0,0.9160999999999149
266,46,0.5,0.5,-35.0,-1,1.0,0.4333999999998923
267,46,0.5,1.0,35.0,1,1.0,0.27650000000016917
268,46,0.5,0.5,35.0,1,1.0,0.22019999999997708
269,46,0.5,0.5,35.0,1,1.0,0.30989999999997053
270,46,0.5,1.0,35.0,-1,0.0,0.020300000000133878
271,46,0.5,0.25,35.0,1,1.0,1.253099999999904
272,46,0.5,0.25,35.0,1,1.0,0.6238000000000739
273,46,0.5,0.25,-35.0,1,0.0,0.9933000000000902
274,46,0.8,0.25,35.0,1,1.0,0.30729999999994106
275,46,0.5,0.5,-35.0,-1,1.0,0.2567999999998847
276,46,0.5,0.5,35.0,1,1.0,1.2942000000000462
277,46,0.5,0.5,35.0,1,1.0,0.16709999999989122
278,46,0.5,0.5,-35.0,-1,1.0,0.46420000000011896
279,46,0.5,1.0,35.0,1,1.0,1.1272000000001299
280,46,0.5,0.5,35.0,1,1.0,1.5942999999999756
281,46,0.5,0.25,-35.0,-1,1.0,0.3405999999999949
282,46,0.5,0.25,-35.0,-1,1.0,12.514400000000023
283,46,0.5,0.25,35.0,1,1.0,0.264299999999821
284,46,0.5,0.25,35.0,1,1.0,0.3882999999996173
285,46,0.5,1.0,35.0,1,1.0,0.9807999999998174
286,46,0.5,0.25,-35.0,1,0.0,0.5615999999999985
287,46,0.5,0.25,-35.0,-1,1.0,3.6784000000000106
288,46,0.5,1.0,-35.0,-1,1.0,0.34189999999989595
289,46,0.5,0.25,-35.0,1,0.0,1.0047999999997046
290,46,0.5,0.25,35.0,-1,0.0,1.045399999999745
291,46,0.5,0.25,-35.0,-1,1.0,7.258399999999938
292,46,0.5,1.0,-35.0,-1,1.0,0.23569999999995161
293,46,0.5,1.0,35.0,1,1.0,0.3917999999998756
294,46,0.5,1.0,35.0,1,1.0,0.20249999999987267
295,46,0.5,1.0,-35.0,1,0.0,0.9423999999999069
296,46,0.5,1.0,-35.0,-1,1.0,1.249199999999746
297,46,0.5,0.5,35.0,1,1.0,1.0121999999998934
298,46,0.5,1.0,35.0,1,1.0,0.8125999999997475
299,46,0.5,0.5,35.0,1,1.0,0.3894999999999982
300,46,0.5,0.25,-35.0,1,0.0,9.392799999999852
301,46,0.5,0.25,-35.0,-1,1.0,0.7189999999998236
302,46,0.5,0.25,-35.0,1,0.0,0.3431000000000495
303,46,0.8,0.25,-35.0,-1,1.0,12.276099999999815
304,46,0.5,0.5,-35.0,-1,1.0,0.39029999999979736
305,46,0.5,0.25,-35.0,-1,1.0,0.29969999999980246
306,46,0.5,0.25,-35.0,-1,1.0,0.29369999999994434
307,46,0.5,0.25,35.0,1,1.0,0.22019999999997708
308,46,0.5,0.25,35.0,1,1.0,0.2604999999998654
309,46,0.5,1.0,-35.0,-1,1.0,0.28969999999981155
310,46,0.5,0.25,35.0,1,1.0,1.1838999999997668
311,46,0.5,1.0,-35.0,-1,1.0,0.33379999999988286
312,46,0.5,0.25,-35.0,-1,1.0,0.27739999999994325
313,46,0.5,0.25,-35.0,1,0.0,11.25709999999981
314,46,0.4,0.25,35.0,1,1.0,6.017799999999852
315,46,0.5,0.5,35.0,1,1.0,0.32110000000011496
316,46,0.5,1.0,35.0,1,1.0,0.531400000000076
317,46,0.5,1.0,35.0,1,1.0,0.2976000000001022
318,46,0.5,0.5,35.0,1,1.0,0.2981999999999516
319,46,0.5,0.5,35.0,1,1.0,0.2213000000001557
320,46,0.5,1.0,-35.0,-1,1.0,0.35829999999987194
321,46,0.5,0.5,-35.0,1,0.0,0.10789999999997235
322,46,0.5,0.25,-35.0,-1,1.0,0.5484999999998763
323,46,0.5,0.25,-35.0,-1,1.0,0.27109999999993306
324,46,0.5,0.5,-35.0,-1,1.0,0.23529999999982465
325,46,0.5,1.0,35.0,1,1.0,0.7746999999999389
326,46,0.5,1.0,-35.0,1,0.0,0.40869999999995343
327,46,0.6,1.0,35.0,1,1.0,0.5981999999999061
328,46,0.5,0.5,-35.0,-1,1.0,0.44899999999984175
329,46,0.5,1.0,-35.0,1,0.0,0.05509999999981119
330,46,0.5,1.0,35.0,1,1.0,0.8390999999999167
331,46,0.5,0.5,35.0,1,1.0,6.182099999999991
332,46,0.5,0.25,-35.0,-1,1.0,0.39609999999993306
333,46,0.5,1.0,-35.0,-1,1.0,0.21879999999987376
334,46,0.5,0.25,-35.0,-1,1.0,0.27939999999989595
335,46,0.5,0.25,-35.0,-1,1.0,0.3691999999998643
336,46,0.5,1.0,-35.0,-1,1.0,0.2695000000001073
337,46,0.5,0.5,35.0,1,1.0,0.3556999999998425
338,46,0.5,1.0,35.0,1,1.0,0.24299999999971078
339,46,0.5,0.25,-35.0,-1,1.0,0.24919999999997344
340,46,0.5,1.0,-35.0,-1,1.0,0.42649999999980537
341,46,0.5,0.5,-35.0,-1,1.0,0.23969999999985703
342,46,0.5,0.5,-35.0,-1,1.0,0.28330000000005384
343,46,0.5,0.25,35.0,1,1.0,0.20289999999999964
344,46,0.5,1.0,-35.0,-1,1.0,0.4068999999999505
345,46,0.5,0.25,35.0,1,1.0,0.47630000000003747
346,46,0.5,0.5,-35.0,-1,1.0,0.4169000000001688
347,46,0.5,0.5,35.0,1,1.0,0.18649999999979627
348,46,0.5,1.0,35.0,1,1.0,0.3471999999999298
349,46,0.5,0.25,35.0,-1,0.0,6.393299999999954
350,46,0.4,0.25,-35.0,-1,1.0,0.284099999999853
351,46,0.5,1.0,-35.0,-1,1.0,0.41039999999998145
352,46,0.5,0.25,35.0,1,1.0,0.43429999999989377
353,46,0.5,0.25,35.0,1,1.0,13.873699999999872
354,46,0.5,0.5,35.0,1,1.0,0.2747999999999138
355,46,0.5,0.25,-35.0,-1,1.0,0.18819999999982429
356,46,0.5,0.25,35.0,1,1.0,1.1349999999997635
357,46,0.5,0.5,-35.0,-1,1.0,0.3648000000000593
358,46,0.5,1.0,-35.0,-1,1.0,0.191899999999805
359,46,0.5,1.0,-35.0,1,0.0,0.05139999999983047
360,46,0.5,1.0,-35.0,-1,1.0,0.3053999999997359
361,46,0.5,1.0,35.0,1,1.0,0.20149999999989632
362,46,0.5,0.25,-35.0,-1,1.0,0.45889999999985776
363,46,0.5,0.25,-35.0,-1,1.0,0.34859999999980573
364,46,0.5,1.0,-35.0,-1,1.0,0.3555999999998676
365,46,0.5,1.0,-35.0,-1,1.0,0.18859999999972388
366,46,0.5,0.25,-35.0,-1,1.0,0.13909999999987122
367,46,0.5,0.5,-35.0,-1,1.0,0.278999999999769
368,46,0.5,1.0,35.0,1,1.0,0.36590000000001055
369,46,0.5,1.0,35.0,1,1.0,0.25870000000008986
370,46,0.5,0.5,-35.0,-1,1.0,0.252699999999777
371,46,0.5,1.0,35.0,1,1.0,0.3023000000000593
372,46,0.5,0.25,35.0,1,1.0,0.5329999999999018
373,46,0.5,0.5,35.0,1,1.0,0.21259999999983847
374,46,0.5,0.5,35.0,1,1.0,0.7131999999999152
375,46,0.5,0.25,-35.0,-1,1.0,0.059099999999943975
376,46,0.5,1.0,-35.0,-1,1.0,0.3231999999998152
377,46,0.5,0.25,35.0,1,1.0,4.035899999999856
378,46,0.5,0.25,-35.0,-1,1.0,0.3034999999997581
379,46,0.5,0.5,-35.0,-1,1.0,0.25979999999981374
380,46,0.5,0.5,35.0,1,1.0,0.233600000000024
381,46,0.5,0.5,35.0,1,1.0,0.19620000000008986
382,46,0.5,0.25,-35.0,-1,1.0,0.4773000000000138
383,46,0.5,0.5,35.0,1,1.0,0.3167000000000826
384,46,0.5,1.0,-35.0,-1,1.0,0.33399999999983265
385,46,0.5,0.25,35.0,1,1.0,0.240099999999984
386,46,0.5,0.5,35.0,1,1.0,0.3941999999997279
387,46,0.5,0.25,-35.0,-1,1.0,0.2769999999998163
388,46,0.5,1.0,-35.0,-1,1.0,0.12100000000009459
389,46,0.5,0.5,35.0,1,1.0,0.25739999999996144
390,46,0.5,1.0,35.0,1,1.0,0.23779999999987922
391,46,0.5,1.0,-35.0,-1,1.0,0.23399900000003981
392,46,0.5,0.25,-35.0,-1,1.0,0.28129999999987376
393,46,0.5,1.0,-35.0,-1,1.0,0.13099999999985812
394,46,0.5,0.25,-35.0,-1,1.0,0.268100000000004
395,46,0.5,0.25,-35.0,-1,1.0,0.4139989999998761
396,46,0.5,1.0,35.0,1,1.0,0.20820000000003347
397,46,0.5,0.5,35.0,1,1.0,0.19810000000006767
398,46,0.5,0.5,35.0,1,1.0,0.18830000000002656
399,46,0.5,0.5,35.0,1,1.0,0.20460000000002765
400,46,0.5,0.5,35.0,1,1.0,0.04839999999967404
401,46,0.5,1.0,35.0,1,1.0,0.22800000000006548
402,46,0.5,0.25,-35.0,-1,1.0,0.23530000000005202
403,46,0.5,0.5,-35.0,-1,1.0,0.2180999999998221
404,46,0.5,1.0,-35.0,-1,1.0,0.1721999999997479
405,46,0.5,1.0,-35.0,-1,1.0,0.21520000000009532
406,46,0.5,1.0,-35.0,-1,1.0,0.20890000000008513
407,46,0.5,0.5,35.0,1,1.0,0.12209999999981846
408,46,0.5,0.25,-35.0,-1,1.0,0.2156999999999698
409,46,0.5,0.25,-35.0,-1,1.0,0.2585999999998876
410,46,0.5,0.5,-35.0,1,0.0,0.14239999999995234
411,46,0.5,0.25,35.0,1,1.0,0.3586999999999989
412,46,0.5,0.5,-35.0,-1,1.0,0.35599999999999454
413,46,0.5,0.5,35.0,1,1.0,0.3353999999997086
414,46,0.5,0.25,35.0,1,1.0,0.24279999999998836
415,46,0.5,1.0,35.0,1,1.0,0.2722999999998592
416,46,0.5,0.5,35.0,1,1.0,0.1996999999998934
417,46,0.5,0.5,-35.0,-1,1.0,0.46299999999996544
418,46,0.5,0.5,35.0,1,1.0,0.28660000000013497
419,46,0.5,1.0,-35.0,-1,1.0,0.21659999999997126
420,46,0.5,0.5,-35.0,-1,1.0,0.2500999999999749
421,46,0.5,0.25,-35.0,-1,1.0,0.26959999999962747
422,46,0.5,0.25,-35.0,-1,1.0,0.28349999999977626
