trial_num,session_num,stim_probability_left,contrast,position,response_choice,trial_correct,reaction_time
1,25,0.5,0.0,-35.0,-1,1.0,2.1526
2,25,0.5,0.125,-35.0,-1,1.0,6.3216
3,25,0.5,0.125,35.0,1,1.0,0.699799999999998
4,25,0.5,0.0,35.0,-1,0.0,2.2196999999999996
5,25,0.5,0.0,35.0,-1,0.0,1.0920000000000059
6,25,0.5,0.0,35.0,-1,0.0,5.958300000000005
7,25,0.5,0.0,-35.0,1,0.0,2.2172999999999945
8,25,0.5,0.25,35.0,1,1.0,4.46929999999999
9,25,0.5,0.25,35.0,1,1.0,0.4356000000000009
10,25,0.5,1.0,35.0,1,1.0,0.25039999999999907
11,25,0.5,0.125,-35.0,-1,1.0,0.3802000000000021
12,25,0.5,0.125,-35.0,-1,1.0,0.24969999999999004
13,25,0.5,0.25,-35.0,-1,1.0,0.44010000000000105
14,25,0.5,0.0625,35.0,1,1.0,0.4136000000000166
15,25,0.5,0.125,-35.0,-1,1.0,0.8027000000000015
16,25,0.5,0.125,-35.0,-1,1.0,3.199600000000018
17,25,0.5,1.0,35.0,1,1.0,0.2901999999999987
18,25,0.5,0.125,35.0,1,1.0,1.3034000000000106
19,25,0.5,1.0,35.0,1,1.0,0.3679000000000059
20,25,0.5,0.125,-35.0,-1,1.0,0.3082000000000136
21,25,0.5,0.0625,-35.0,-1,1.0,0.35139999999999816
22,25,0.5,0.0625,-35.0,-1,1.0,1.1329999999999956
23,25,0.5,0.125,35.0,1,1.0,0.32280000000000086
24,25,0.5,0.0,35.0,1,1.0,0.2984000000000009
25,25,0.5,0.25,35.0,1,1.0,0.21340000000000714
26,25,0.5,0.25,-35.0,-1,1.0,0.34310000000000684
27,25,0.5,0.0625,-35.0,1,0.0,0.3422000000000054
28,25,0.5,0.0,-35.0,-1,1.0,1.6807000000000016
29,25,0.5,0.25,35.0,1,1.0,0.31090000000000373
30,25,0.5,0.125,35.0,-1,0.0,2.0057000000000045
31,25,0.5,0.0625,35.0,1,1.0,0.2027000000000072
32,25,0.5,0.125,35.0,1,1.0,0.6241999999999877
33,25,0.5,0.0625,35.0,1,1.0,0.497799999999998
34,25,0.5,0.125,35.0,1,1.0,0.4620999999999924
35,25,0.5,0.125,35.0,-1,0.0,0.12869999999998072
36,25,0.5,0.125,35.0,1,1.0,0.25190000000000623
37,25,0.5,0.0625,-35.0,-1,1.0,0.28469999999998663
38,25,0.5,0.125,35.0,-1,0.0,0.16929999999999268
39,25,0.6,0.125,-35.0,1,0.0,0.9620999999999924
40,25,0.5,1.0,35.0,1,1.0,0.3698999999999728
41,25,0.5,0.25,-35.0,-1,1.0,0.2844000000000051
42,25,0.5,1.0,35.0,1,1.0,0.27199999999999136
43,25,0.5,1.0,-35.0,-1,1.0,0.2518000000000029
44,25,0.5,0.125,-35.0,-1,1.0,0.2617999999999938
45,25,0.5,0.25,-35.0,-1,1.0,0.21279999999998722
46,25,0.5,0.125,35.0,1,1.0,0.4257999999999811
47,25,0.5,1.0,35.0,1,1.0,1.2357000000000085
48,25,0.5,0.125,35.0,-1,0.0,0.10299999999998022
49,25,0.5,0.0625,35.0,1,1.0,0.4037999999999897
50,25,0.5,0.0,-35.0,-1,1.0,1.128499999999974
51,25,0.5,0.0,-35.0,1,0.0,0.7062999999999704
52,25,0.5,0.125,35.0,1,1.0,0.2557999999999936
53,25,0.5,0.25,35.0,1,1.0,0.7178000000000111
54,25,0.5,0.25,35.0,1,1.0,0.5183999999999855
55,25,0.5,0.0625,-35.0,-1,1.0,2.316900000000004
56,25,0.5,0.25,-35.0,-1,1.0,0.2990000000000066
57,25,0.5,0.125,-35.0,-1,1.0,0.30889999999996576
58,25,0.5,0.125,-35.0,-1,1.0,0.24580000000000268
59,25,0.5,0.0,35.0,1,1.0,0.4487999999999772
60,25,0.5,0.125,-35.0,-1,1.0,0.3686000000000149
61,25,0.5,0.25,-35.0,-1,1.0,0.23359999999996717
62,25,0.5,0.0,35.0,1,1.0,0.411200000000008
63,25,0.5,0.0,-35.0,-1,1.0,2.9159999999999684
64,25,0.5,0.0625,-35.0,-1,1.0,0.335899999999981
65,25,0.5,1.0,35.0,1,1.0,0.43549999999999045
66,25,0.5,0.0625,35.0,-1,0.0,0.23749999999998295
67,25,0.5,0.0,-35.0,1,0.0,0.2452000000000112
68,25,0.4,0.0,35.0,1,1.0,0.391900000000021
69,25,0.5,1.0,-35.0,-1,1.0,0.24259999999998172
70,25,0.5,1.0,35.0,1,1.0,0.38060000000001537
71,25,0.5,0.125,35.0,-1,0.0,2.052599999999984
72,25,0.5,0.125,-35.0,-1,1.0,0.23959999999999582
73,25,0.5,1.0,35.0,1,1.0,0.2180999999999642
74,25,0.5,0.25,35.0,1,1.0,0.4376000000000033
75,25,0.5,0.0625,35.0,-1,0.0,0.39990000000000236
76,25,0.5,0.0625,35.0,1,1.0,0.2748999999999455
77,25,0.5,0.25,-35.0,-1,1.0,0.23900000000003274
78,25,0.5,0.25,35.0,1,1.0,0.39820000000008804
79,25,0.5,1.0,35.0,1,1.0,2.1603000000000065
80,25,0.5,0.0625,35.0,1,1.0,0.4406000000000745
81,25,0.5,1.0,-35.0,-1,1.0,0.222500000000025
82,25,0.5,0.0625,35.0,1,1.0,0.28719999999998436
83,25,0.5,1.0,35.0,1,1.0,0.3532000000000721
84,25,0.5,0.25,-35.0,-1,1.0,0.2788999999999646
85,25,0.5,0.25,-35.0,-1,1.0,0.30270000000001573
86,25,0.5,0.0625,-35.0,1,0.0,0.5126000000000204
87,25,0.5,0.25,-35.0,-1,1.0,0.21820000000008122
88,25,0.5,0.125,35.0,1,1.0,1.039100000000019
89,25,0.5,0.25,-35.0,-1,1.0,0.24000000000006594
90,25,0.5,0.125,-35.0,-1,1.0,0.38110000000000355
91,25,0.5,0.125,-35.0,-1,1.0,0.2539000000000442
92,25,0.5,1.0,35.0,1,1.0,1.2644000000000233
93,25,0.5,0.125,-35.0,-1,1.0,0.2515000000000214
94,25,0.5,0.0625,35.0,1,1.0,0.19540000000000646
95,25,0.5,0.125,-35.0,-1,1.0,0.2837000000000671
96,25,0.5,1.0,35.0,1,1.0,0.19220000000001392
97,25,0.5,0.0625,-35.0,-1,1.0,0.5282000000000266
98,25,0.5,0.25,-35.0,-1,1.0,0.49809999999996535
99,25,0.5,0.0625,35.0,1,1.0,0.30860000000001264
100,25,0.5,1.0,-35.0,-1,1.0,0.19470000000006848
101,25,0.5,0.125,-35.0,-1,1.0,0.41669999999999163
102,25,0.5,0.0625,-35.0,-1,1.0,0.8284000000000447
103,25,0.5,1.0,-35.0,-1,1.0,0.22030000000000882
104,25,0.5,0.25,-35.0,-1,1.0,0.2965000000000373
105,25,0.5,1.0,-35.0,-1,1.0,0.7685000000000173
106,25,0.5,1.0,-35.0,-1,1.0,0.22110000000003538
107,25,0.5,0.0625,-35.0,-1,1.0,0.2861000000000331
108,25,0.5,0.125,-35.0,-1,1.0,0.25410000000005084
109,25,0.5,1.0,35.0,1,1.0,0.21710000000001628
110,25,0.5,0.125,-35.0,-1,1.0,0.24530000000004293
111,25,0.5,1.0,35.0,1,1.0,0.29579999999998563
112,25,0.5,1.0,-35.0,-1,1.0,0.3251000000000204
113,25,0.5,1.0,-35.0,-1,1.0,0.24459999999999127
114,25,0.5,0.25,-35.0,-1,1.0,0.3756000000000199
115,25,0.5,0.125,-35.0,-1,1.0,0.4512000000000853
116,25,0.5,0.0625,-35.0,-1,1.0,1.0331000000000472
117,25,0.5,0.25,35.0,1,1.0,0.4322999999999979
118,25,0.5,0.125,35.0,1,1.0,0.3673000000000002
119,25,0.5,0.0625,35.0,-1,0.0,0.15670000000005757
120,25,0.3,0.0625,35.0,-1,0.0,0.2921999999999798
121,25,0.5,1.0,-35.0,-1,1.0,0.258199999999988
122,25,0.5,0.25,35.0,1,1.0,0.5234000000000378
123,25,0.5,0.0625,35.0,1,1.0,0.3024000000000342
124,25,0.5,0.25,-35.0,-1,1.0,0.2896000000000072
125,25,0.5,0.0,35.0,1,1.0,1.7065000000000055
126,25,0.5,1.0,-35.0,-1,1.0,0.2725000000000364
127,25,0.5,0.0625,-35.0,-1,1.0,1.051300000000026
128,25,0.5,0.0625,35.0,-1,0.0,1.720100000000059
129,25,0.5,0.125,-35.0,-1,1.0,0.23050000000000637
130,25,0.5,0.125,-35.0,-1,1.0,0.4292000000000371
131,25,0.5,1.0,35.0,1,1.0,0.3007000000000062
132,25,0.5,1.0,35.0,1,1.0,0.2446000000000481
133,25,0.5,0.0625,-35.0,-1,1.0,0.33660000000003265
134,25,0.5,0.125,-35.0,-1,1.0,0.2785999999999831
135,25,0.5,0.25,-35.0,-1,1.0,0.39170000000001437
136,25,0.5,0.0,-35.0,-1,1.0,0.25670000000002346
137,25,0.5,1.0,-35.0,-1,1.0,0.1913000000000693
138,25,0.5,1.0,-35.0,-1,1.0,0.2348999999999819
139,25,0.5,0.0,35.0,-1,0.0,0.2760000000000673
140,25,0.2,0.0,35.0,-1,0.0,3.3643000000000143
141,25,0.5,1.0,35.0,1,1.0,0.19190000000003238
142,25,0.5,0.125,35.0,1,1.0,0.321899999999971
143,25,0.5,1.0,35.0,1,1.0,1.6721000000000004
144,25,0.5,0.125,35.0,1,1.0,0.23720000000002983
145,25,0.5,0.0625,-35.0,-1,1.0,0.2873000000000161
146,25,0.5,0.25,-35.0,-1,1.0,0.18840000000000146
147,25,0.5,0.0625,35.0,1,1.0,0.3598999999999819
148,25,0.5,1.0,-35.0,-1,1.0,0.198599999999999
149,25,0.5,0.0,35.0,-1,0.0,2.6052999999999997
150,25,0.5,0.0625,35.0,1,1.0,0.2573000000000434
151,25,0.5,0.25,35.0,1,1.0,0.24649999999996908
152,25,0.5,0.125,35.0,1,1.0,0.429300000000012
153,25,0.5,0.0625,35.0,1,1.0,0.280900000000031
154,25,0.5,0.125,35.0,1,1.0,0.5944000000000074
155,25,0.5,0.25,-35.0,-1,1.0,0.28550000000007003
156,25,0.5,0.25,35.0,1,1.0,0.24350000000004002
157,25,0.5,0.25,35.0,1,1.0,0.2370000000000232
158,25,0.5,0.125,-35.0,-1,1.0,0.2914000000000101
159,25,0.5,0.0625,35.0,-1,0.0,2.07529999999997
160,25,0.5,0.0625,35.0,1,1.0,0.23640000000000327
161,25,0.5,0.0625,-35.0,-1,1.0,1.3910000000000196
162,25,0.5,0.0625,35.0,1,1.0,0.5505999999999744
163,25,0.5,0.25,-35.0,-1,1.0,0.2948999999999842
164,25,0.5,0.25,-35.0,-1,1.0,0.24340000000000828
165,25,0.5,0.0,35.0,-1,0.0,0.6957999999999629
166,25,0.4,0.0,35.0,-1,0.0,0.23450000000002547
167,25,0.5,1.0,35.0,1,1.0,0.24210000000005039
168,25,0.5,1.0,-35.0,-1,1.0,0.2555999999999585
169,25,0.5,0.0625,35.0,1,1.0,2.6101999999999634
170,25,0.5,0.25,35.0,1,1.0,0.9772000000000389
171,25,0.5,0.125,35.0,1,1.0,0.7059000000000424
172,25,0.5,0.0,-35.0,-1,1.0,2.302500000000009
173,25,0.5,0.0625,-35.0,-1,1.0,2.7717999999999847
174,25,0.5,0.25,-35.0,-1,1.0,0.22650000000010095
175,25,0.5,0.0,-35.0,1,0.0,0.4175000000000182
176,25,0.5,0.0625,-35.0,1,0.0,0.310799999999972
177,25,0.5,0.0625,35.0,1,1.0,0.2785000000000082
178,25,0.5,0.0625,-35.0,-1,1.0,1.0813000000000557
179,25,0.5,0.0625,35.0,1,1.0,0.35619999999994434
180,25,0.5,0.0625,-35.0,-1,1.0,0.31399999999996453
181,25,0.5,0.0625,35.0,1,1.0,0.31349999999997635
182,25,0.5,1.0,35.0,1,1.0,0.2480000000000473
183,25,0.5,1.0,35.0,1,1.0,0.22480000000007294
184,25,0.5,0.125,35.0,-1,0.0,1.7209000000000287
185,25,0.5,0.0625,-35.0,-1,1.0,0.3566000000000713
186,25,0.5,0.0625,35.0,-1,0.0,5.113100000000031
187,25,0.5,0.125,-35.0,-1,1.0,0.26149999999995543
188,25,0.5,0.0,-35.0,-1,1.0,2.7346000000000004
189,25,0.5,0.125,-35.0,-1,1.0,0.4175999999999931
190,25,0.5,0.25,35.0,-1,0.0,0.06139999999993506
191,25,0.5,0.125,35.0,-1,0.0,0.2437000000001035
192,25,0.5,0.125,-35.0,-1,1.0,0.19079999999996744
193,25,0.5,0.0625,35.0,1,1.0,0.31520000000000437
194,25,0.5,0.25,35.0,1,1.0,0.5117999999999938
195,25,0.5,1.0,35.0,1,1.0,0.2505999999999631
196,25,0.5,1.0,-35.0,-1,1.0,0.18860000000006494
197,25,0.5,0.25,35.0,1,1.0,0.9255000000000564
198,25,0.5,0.125,35.0,1,1.0,0.33960000000001855
199,25,0.5,0.0625,-35.0,-1,1.0,0.3486000000000331
200,25,0.5,0.125,35.0,1,1.0,0.296100000000024
201,25,0.5,0.0625,35.0,1,1.0,0.33569999999997435
202,25,0.5,0.25,-35.0,-1,1.0,0.2239999999999327
203,25,0.5,1.0,35.0,1,1.0,0.23470000000008895
204,25,0.5,0.0625,35.0,1,1.0,0.5028999999999542
205,25,0.5,0.125,-35.0,-1,1.0,0.42800000000011096
206,25,0.5,0.0625,35.0,-1,0.0,0.17980000000011387
207,25,0.5,0.25,-35.0,-1,1.0,0.1713999999999487
208,25,0.5,0.125,-35.0,-1,1.0,2.1785999999999603
209,25,0.5,1.0,35.0,1,1.0,0.1895000000000664
210,25,0.5,0.25,-35.0,-1,1.0,0.20180000000004839
211,25,0.5,0.125,-35.0,-1,1.0,0.25900000000001455
212,25,0.5,1.0,-35.0,-1,1.0,0.23469999999997526
213,25,0.5,0.0,-35.0,-1,1.0,0.2866999999999962
214,25,0.5,1.0,-35.0,-1,1.0,0.4239000000000033
215,25,0.5,0.125,-35.0,-1,1.0,1.723100000000045
216,25,0.5,1.0,-35.0,-1,1.0,0.2357000000000653
217,25,0.5,1.0,-35.0,-1,1.0,0.21879999999998745
218,25,0.5,0.125,-35.0,-1,1.0,0.20069999999998345
219,25,0.5,0.25,-35.0,-1,1.0,0.2420000000000755
220,25,0.5,0.0625,35.0,-1,0.0,3.7169000000000096
221,25,0.5,0.125,35.0,1,1.0,0.378400000000056
222,25,0.5,1.0,35.0,-1,0.0,0.07780000000002474
223,25,0.1,1.0,35.0,1,1.0,0.3570999999999458
224,25,0.5,1.0,35.0,1,1.0,0.39999999999997726
225,25,0.5,1.0,35.0,1,1.0,0.7206999999999653
226,25,0.5,0.25,-35.0,-1,1.0,0.21429999999998017
227,25,0.5,0.0,-35.0,1,0.0,0.3264000000000351
228,25,0.5,0.0,-35.0,1,0.0,0.4375
229,25,0.5,1.0,35.0,1,1.0,0.19080000000008113
230,25,0.5,1.0,35.0,1,1.0,0.3668999999999869
231,25,0.5,0.0625,35.0,-1,0.0,0.4897999999999456
232,25,0.7,0.0625,35.0,-1,0.0,0.6291000000001077
233,25,0.5,1.0,-35.0,-1,1.0,0.252399999999966
234,25,0.5,0.0625,-35.0,-1,1.0,1.4068000000000893
235,25,0.5,0.125,-35.0,-1,1.0,0.32570000000009713
236,25,0.5,0.0625,-35.0,-1,1.0,2.323099999999954
237,25,0.5,0.0625,-35.0,-1,1.0,5.901899999999955
238,25,0.5,0.125,35.0,1,1.0,0.7921999999999798
239,25,0.5,0.125,35.0,1,1.0,0.2639000000000351
240,25,0.5,0.0625,35.0,-1,0.0,0.6028999999999769
241,25,0.5,0.0625,-35.0,1,0.0,0.7486000000000104
242,25,0.5,0.0,35.0,-1,0.0,0.20980000000008658
243,25,0.5,0.125,-35.0,-1,1.0,0.28290000000004056
244,25,0.5,0.125,-35.0,-1,1.0,0.24220000000002528
245,25,0.5,0.0625,-35.0,-1,1.0,0.30709999999999127
246,25,0.5,1.0,35.0,1,1.0,0.28499999999996817
247,25,0.5,0.25,35.0,1,1.0,0.3507000000000744
248,25,0.5,0.25,-35.0,-1,1.0,0.17290000000002692
249,25,0.5,0.0625,-35.0,-1,1.0,0.7599999999999909
250,25,0.5,0.25,-35.0,-1,1.0,0.19900000000006912
251,25,0.5,0.0625,35.0,-1,0.0,2.0870000000001028
252,25,0.5,0.125,35.0,1,1.0,1.1785999999999603
253,25,0.5,1.0,-35.0,-1,1.0,0.252399999999966
254,25,0.5,0.0625,-35.0,-1,1.0,0.8020000000000209
255,25,0.5,0.0625,35.0,1,1.0,0.3764000000001033
256,25,0.5,0.0625,-35.0,-1,1.0,0.29769999999996344
257,25,0.5,0.125,-35.0,-1,1.0,0.8682000000000016
258,25,0.5,0.25,-35.0,-1,1.0,0.9980000000000473
259,25,0.5,0.0,-35.0,-1,1.0,1.2434999999999263
260,25,0.5,0.0,35.0,-1,0.0,0.22940000000005512
261,25,0.2,0.0,35.0,-1,0.0,0.5633000000000266
262,25,0.5,1.0,35.0,1,1.0,0.3220000000001164
263,25,0.5,0.125,35.0,1,1.0,0.3526000000000522
264,25,0.5,0.0625,-35.0,-1,1.0,0.7459999999999809
265,25,0.5,0.0,-35.0,-1,1.0,0.46289999999999054
266,25,0.5,0.25,-35.0,-1,1.0,0.19700000000000273
267,25,0.5,0.125,-35.0,-1,1.0,0.21870000000001255
268,25,0.5,0.0625,35.0,-1,0.0,0.44840000000010605
269,25,0.5,0.0,35.0,1,1.0,0.10390000000006694
270,25,0.5,0.0625,35.0,-1,0.0,0.2962999999999738
271,25,0.5,0.0,-35.0,-1,1.0,3.706099999999992
272,25,0.5,0.0,35.0,1,1.0,0.41630000000009204
273,25,0.5,0.0625,-35.0,-1,1.0,0.14850000000001273
274,25,0.5,0.0625,35.0,-1,0.0,0.6924000000000206
275,25,0.5,0.25,35.0,1,1.0,0.2520000000000664
276,25,0.5,0.25,35.0,1,1.0,0.30119999999999436
277,25,0.5,0.0625,35.0,-1,0.0,1.0493999999999915
278,25,0.5,0.0625,35.0,1,1.0,0.26909999999998035
279,25,0.5,1.0,35.0,1,1.0,0.2581000000000131
280,25,0.5,1.0,35.0,1,1.0,0.3004999999999427
281,25,0.5,0.0625,35.0,1,1.0,0.6602000000000317
282,25,0.5,0.125,-35.0,-1,1.0,0.30310000000008586
283,25,0.5,0.25,-35.0,-1,1.0,0.2924000000000433
284,25,0.5,1.0,-35.0,-1,1.0,0.2221999999999298
285,25,0.5,0.125,-35.0,-1,1.0,2.3835000000000264
286,25,0.5,0.125,-35.0,-1,1.0,0.34150000000011005
287,25,0.5,0.0625,35.0,1,1.0,0.6048999999999296
288,25,0.5,0.125,-35.0,-1,1.0,0.28290000000004056
289,25,0.5,1.0,-35.0,-1,1.0,0.22469999999998436
290,25,0.5,0.0625,35.0,-1,0.0,3.3962000000000216
291,25,0.5,0.0625,-35.0,-1,1.0,0.3125
292,25,0.5,1.0,-35.0,-1,1.0,0.1952000000001135
293,25,0.5,0.0625,-35.0,-1,1.0,0.2762000000000171
294,25,0.5,0.25,35.0,1,1.0,0.2272000000001526
295,25,0.5,0.125,-35.0,-1,1.0,0.9107999999999947
296,25,0.5,1.0,-35.0,-1,1.0,0.211400000000026
297,25,0.5,0.125,35.0,1,1.0,0.2641999999999598
298,25,0.5,0.25,-35.0,-1,1.0,0.2962999999999738
299,25,0.5,1.0,35.0,1,1.0,0.21739999999988413
300,25,0.5,0.0,-35.0,-1,1.0,0.8003000000001066
301,25,0.5,0.125,35.0,1,1.0,1.4961000000000695
302,25,0.5,1.0,35.0,1,1.0,0.37350000000014916
303,25,0.5,0.125,35.0,1,1.0,0.23520000000007713
304,25,0.5,1.0,-35.0,-1,1.0,0.19129999999995562
305,25,0.5,0.125,-35.0,-1,1.0,0.28139999999996235
306,25,0.5,0.125,-35.0,-1,1.0,0.5384999999999991
307,25,0.5,0.25,-35.0,-1,1.0,0.23319999999989705
308,25,0.5,0.0625,-35.0,-1,1.0,1.7690999999999804
309,25,0.5,0.125,35.0,1,1.0,0.3813999999999851
310,25,0.5,0.0,35.0,-1,0.0,0.3507000000000744
311,25,0.5,0.0625,-35.0,-1,1.0,0.29099999999994
312,25,0.5,0.0625,-35.0,1,0.0,0.3846000000000913
313,25,0.5,0.0625,-35.0,-1,1.0,0.31960000000003674
314,25,0.5,0.0,35.0,1,1.0,0.35580000000004475
315,25,0.5,0.25,35.0,1,1.0,1.7263000000000375
316,25,0.5,0.0,35.0,-1,0.0,0.29140000000006694
317,25,0.5,0.125,-35.0,-1,1.0,0.2622000000000071
318,25,0.5,0.25,-35.0,-1,1.0,0.233600000000024
319,25,0.5,1.0,-35.0,-1,1.0,0.25520000000005894
320,25,0.5,0.125,-35.0,-1,1.0,0.22749999999996362
321,25,0.5,1.0,35.0,1,1.0,0.20209999999997308
322,25,0.5,0.0625,35.0,1,1.0,2.0160000000000764
323,25,0.5,0.0,-35.0,-1,1.0,0.2722999999999729
324,25,0.5,0.0625,35.0,1,1.0,0.275600000000054
325,25,0.5,1.0,35.0,1,1.0,0.2624000000000706
326,25,0.5,0.0625,-35.0,-1,1.0,0.40249999999991815
327,25,0.5,1.0,35.0,1,1.0,0.20260000000007494
328,25,0.5,0.25,-35.0,-1,1.0,1.1625999999999976
329,25,0.5,0.25,-35.0,-1,1.0,0.22640000000001237
330,25,0.5,0.25,-35.0,-1,1.0,0.21640000000002146
331,25,0.5,0.125,35.0,1,1.0,0.23320000000001073
332,25,0.5,0.125,-35.0,-1,1.0,0.24959999999987303
333,25,0.5,1.0,-35.0,-1,1.0,1.1234999999999218
334,25,0.5,0.125,-35.0,-1,1.0,0.27319999999986067
335,25,0.5,0.25,-35.0,-1,1.0,0.2798999999999978
336,25,0.5,1.0,35.0,1,1.0,0.20000000000004547
337,25,0.5,0.0625,35.0,-1,0.0,2.730099999999993
338,25,0.5,0.0625,35.0,1,1.0,0.2739999999998872
339,25,0.5,1.0,-35.0,-1,1.0,0.17399999999997817
340,25,0.5,0.25,35.0,1,1.0,0.42049999999994725
341,25,0.5,0.0625,35.0,1,1.0,0.33389999999985776
342,25,0.5,0.25,-35.0,-1,1.0,0.24459999999999127
343,25,0.5,0.125,35.0,1,1.0,0.31090000000017426
344,25,0.5,0.125,35.0,1,1.0,0.3043999999999869
345,25,0.5,0.0,35.0,-1,0.0,0.42099999999982174
346,25,0.5,0.125,-35.0,-1,1.0,0.37449999999989814
347,25,0.5,0.125,35.0,1,1.0,2.4244999999998527
348,25,0.5,0.25,-35.0,-1,1.0,0.23849999999993088
349,25,0.5,0.25,-35.0,-1,1.0,0.2380999999998039
350,25,0.5,1.0,35.0,1,1.0,0.14850000000001273
351,25,0.5,0.25,35.0,1,1.0,0.17849999999998545
352,25,0.5,0.125,-35.0,-1,1.0,0.30160000000000764
353,25,0.5,0.125,-35.0,-1,1.0,2.211799999999812
354,25,0.5,0.125,-35.0,-1,1.0,0.32219999999983884
355,25,0.5,0.25,35.0,1,1.0,0.24540000000001783
356,25,0.5,0.125,35.0,1,1.0,0.2689999999997781
357,25,0.5,1.0,-35.0,-1,1.0,0.2056999999999789
358,25,0.5,0.125,35.0,1,1.0,1.1190999999998894
359,25,0.5,0.125,35.0,1,1.0,0.33279999999967913
360,25,0.5,1.0,35.0,1,1.0,0.17629999999985557
361,25,0.5,0.0625,35.0,1,1.0,0.5996999999999844
362,25,0.5,0.0625,-35.0,1,0.0,0.20359999999982392
363,25,0.5,0.125,-35.0,-1,1.0,0.21329999999989013
364,25,0.5,0.0625,-35.0,1,0.0,0.23359999999979664
365,25,0.5,0.0,35.0,-1,0.0,0.2501999999999498
366,25,0.5,0.125,35.0,1,1.0,0.1937999999997828
367,25,0.5,0.0625,35.0,1,1.0,2.517699999999877
368,25,0.5,0.0625,35.0,1,1.0,0.33059999999977663
369,25,0.5,0.0,-35.0,1,0.0,0.940599999999904
370,25,0.5,0.125,35.0,1,1.0,0.21459999999979118
371,25,0.5,0.25,35.0,1,1.0,0.2545999999999822
372,25,0.5,0.0625,35.0,-1,0.0,0.3546999999998661
373,25,0.5,0.125,35.0,1,1.0,0.1816999999998643
374,25,0.5,0.125,35.0,1,1.0,0.2578999999998359
375,25,0.5,0.0,-35.0,-1,1.0,0.6179999999997108
376,25,0.5,0.125,-35.0,-1,1.0,0.32169999999996435
377,25,0.5,1.0,-35.0,-1,1.0,1.6516999999998916
378,25,0.5,0.125,-35.0,-1,1.0,0.4318000000000666
379,25,0.5,1.0,35.0,1,1.0,0.2056999999999789
380,25,0.5,0.0,35.0,-1,0.0,0.33179999999993015
381,25,0.5,0.25,-35.0,-1,1.0,0.2557999999999083
382,25,0.5,0.0625,35.0,1,1.0,0.38909999999964384
383,25,0.5,0.125,35.0,1,1.0,0.445699999999988
384,25,0.5,0.125,35.0,1,1.0,0.256099999999833
385,25,0.5,0.125,-35.0,-1,1.0,0.22919999999999163
386,25,0.5,0.25,-35.0,-1,1.0,0.47319999999990614
387,25,0.5,0.125,35.0,1,1.0,0.3392999999996391
388,25,0.5,0.25,35.0,1,1.0,0.5927999999998974
389,25,0.5,1.0,35.0,1,1.0,0.2765999999999167
390,25,0.5,1.0,35.0,1,1.0,0.2161999999998443
391,25,0.5,0.0625,-35.0,-1,1.0,0.27979999999979555
392,25,0.5,0.0,35.0,-1,0.0,0.5964999999998781
393,25,0.6,0.0,35.0,1,1.0,0.2865999999996802
394,25,0.5,1.0,-35.0,-1,1.0,0.2202999999997246
395,25,0.5,1.0,35.0,1,1.0,0.34019999999986794
396,25,0.5,0.25,35.0,1,1.0,0.3602000000000771
397,25,0.5,1.0,-35.0,-1,1.0,0.7901999999999134
398,25,0.5,0.0625,35.0,1,1.0,0.3368999999997868
399,25,0.5,0.25,35.0,1,1.0,0.337099999999964
400,25,0.5,0.25,35.0,1,1.0,0.30429999999978463
401,25,0.5,1.0,-35.0,-1,1.0,0.19080000000008113
402,25,0.5,0.125,-35.0,-1,1.0,0.3875000000000455
403,25,0.5,0.125,-35.0,-1,1.0,1.1407999999998992
404,25,0.5,0.25,35.0,1,1.0,0.2341999999998734
405,25,0.5,0.125,-35.0,-1,1.0,0.2744999999997617
406,25,0.5,0.125,35.0,1,1.0,0.27500000000009095
407,25,0.5,0.0,35.0,-1,0.0,1.8180999999999585
408,25,0.5,0.125,-35.0,-1,1.0,0.37479999999982283
409,25,0.5,0.0,-35.0,1,0.0,0.5048999999999069
410,25,0.5,0.125,-35.0,-1,1.0,0.27179999999975735
411,25,0.5,0.0625,35.0,1,1.0,2.3355000000001382
412,25,0.5,1.0,35.0,1,1.0,0.20889999999985776
413,25,0.5,0.25,-35.0,-1,1.0,0.27539999999999054
414,25,0.5,0.25,-35.0,-1,1.0,0.2558999999998832
415,25,0.5,0.0625,-35.0,-1,1.0,0.28939999999988686
416,25,0.5,0.125,35.0,1,1.0,0.3188999999997577
417,25,0.5,0.125,-35.0,-1,1.0,0.3888999999999214
418,25,0.5,1.0,35.0,1,1.0,0.19960000000014588
419,25,0.5,0.0625,35.0,1,1.0,2.2127999999997883
420,25,0.5,0.25,35.0,1,1.0,0.4860000000001037
421,25,0.5,1.0,35.0,1,1.0,1.646099999999933
422,25,0.5,0.0625,-35.0,-1,1.0,0.22289999999998145
423,25,0.5,0.25,35.0,1,1.0,0.3895999999997457
424,25,0.5,0.125,-35.0,-1,1.0,0.38679999999976644
425,25,0.5,0.0625,35.0,-1,0.0,0.4330999999999676
426,25,0.6,0.0625,-35.0,-1,1.0,0.27339999999981046
427,25,0.5,1.0,35.0,1,1.0,0.3232999999997901
428,25,0.5,1.0,35.0,1,1.0,2.4436000000000604
429,25,0.5,0.0,35.0,-1,0.0,4.8569999999997435
430,25,0.5,0.125,-35.0,-1,1.0,0.2039999999999509
431,25,0.5,0.25,-35.0,-1,1.0,0.22099999999977626
432,25,0.5,0.25,-35.0,-1,1.0,0.22800000000006548
433,25,0.5,1.0,35.0,1,1.0,0.25749999999993634
434,25,0.5,0.0,-35.0,-1,1.0,0.32419999999979154
435,25,0.5,1.0,35.0,1,1.0,0.6344999999996617
436,25,0.5,0.25,35.0,1,1.0,0.26799999999980173
437,25,0.5,0.0,35.0,-1,0.0,0.354799999999841
438,25,0.5,0.125,-35.0,-1,1.0,0.30799999999976535
439,25,0.5,0.0625,35.0,1,1.0,0.32809999999972206
440,25,0.5,0.125,-35.0,-1,1.0,0.2782999999999447
441,25,0.5,0.25,35.0,1,1.0,0.39170000000012806
442,25,0.5,0.125,-35.0,-1,1.0,0.5949999999997999
443,25,0.5,0.125,35.0,-1,0.0,3.7818999999999505
444,25,0.5,0.125,35.0,1,1.0,0.2154000000000451
445,25,0.5,0.125,-35.0,-1,1.0,0.31209999999987303
446,25,0.5,0.125,35.0,1,1.0,0.3089999999997417
447,25,0.5,0.25,35.0,1,1.0,0.2323999999998705
448,25,0.5,0.0625,35.0,1,1.0,0.24579999999991742
449,25,0.5,0.0625,-35.0,1,0.0,0.3895999999999731
450,25,0.5,0.0625,35.0,1,1.0,0.38599999999996726
451,25,0.5,0.0625,35.0,1,1.0,0.3260999999999967
452,25,0.5,0.0625,-35.0,-1,1.0,0.240099999999984
453,25,0.5,0.0,35.0,1,1.0,1.8595000000000255
454,25,0.5,0.125,35.0,1,1.0,0.17639999999983047
455,25,0.5,0.125,-35.0,-1,1.0,0.26969999999982974
456,25,0.5,1.0,-35.0,-1,1.0,0.2132000000001426
457,25,0.5,0.25,35.0,1,1.0,2.220099999999775
458,25,0.5,0.0,35.0,1,1.0,0.4335999999998421
459,25,0.5,0.0625,-35.0,-1,1.0,0.29369999999994434
460,25,0.5,1.0,-35.0,-1,1.0,0.22369999999978063
461,25,0.5,0.125,-35.0,-1,1.0,0.260300000000143
462,25,0.5,0.125,35.0,1,1.0,0.3006999999997788
463,25,0.5,0.125,-35.0,-1,1.0,0.41059999999993124
464,25,0.5,0.0625,35.0,1,1.0,1.9274000000000342
465,25,0.5,0.0625,35.0,1,1.0,0.21730000000002292
466,25,0.5,0.25,-35.0,-1,1.0,0.26749999999992724
467,25,0.5,0.0625,35.0,1,1.0,0.26109999999994216
468,25,0.5,0.0,35.0,1,1.0,2.73479999999995
469,25,0.5,0.25,-35.0,-1,1.0,0.27129999999988286
470,25,0.5,0.0625,35.0,1,1.0,0.04819999999972424
471,25,0.5,0.125,35.0,1,1.0,0.264699999999948
472,25,0.5,0.0,35.0,1,1.0,0.2881999999999607
473,25,0.5,0.25,-35.0,-1,1.0,0.26520000000004984
474,25,0.5,1.0,-35.0,-1,1.0,0.23829999999998108
475,25,0.5,0.0,-35.0,-1,1.0,1.4785999999999149
476,25,0.5,1.0,-35.0,-1,1.0,0.015300000000024738
477,25,0.5,0.25,35.0,1,1.0,0.24529999999981555
478,25,0.5,0.0,-35.0,-1,1.0,0.8659999999999854
479,25,0.5,0.0625,35.0,1,1.0,0.23919999999998254
480,25,0.5,0.25,-35.0,-1,1.0,0.39629999999988286
481,25,0.5,0.25,35.0,1,1.0,1.5057999999999083
482,25,0.5,0.25,35.0,1,1.0,0.18609999999989668
483,25,0.5,0.0,35.0,1,1.0,0.3125
484,25,0.5,0.125,-35.0,-1,1.0,0.3593999999998232
485,25,0.5,0.0625,-35.0,-1,1.0,0.359599999999773
486,25,0.5,0.0,-35.0,-1,1.0,0.6829999999999927
487,25,0.5,0.125,35.0,1,1.0,0.35979999999995016
488,25,0.5,0.0625,35.0,-1,0.0,1.1364999999998417
489,25,0.5,0.0625,35.0,-1,0.0,0.3365999999998621
490,25,0.4,0.0625,35.0,1,1.0,0.23049999999989268
491,25,0.5,1.0,35.0,1,1.0,0.22049999999990177
492,25,0.5,1.0,-35.0,-1,1.0,0.2102999999997337
493,25,0.5,0.0625,35.0,1,1.0,0.20069999999986976
494,25,0.5,0.25,-35.0,-1,1.0,0.5672000000001844
495,25,0.5,0.0,35.0,-1,0.0,0.4037999999998192
496,25,0.5,0.125,35.0,1,1.0,0.3308999999999287
497,25,0.5,0.25,35.0,1,1.0,0.22079999999982647
498,25,0.5,0.0,35.0,1,1.0,0.33750000000009095
499,25,0.5,1.0,-35.0,-1,1.0,0.20439999999985048
500,25,0.5,0.25,-35.0,-1,1.0,0.2643999999997959
501,25,0.5,0.25,-35.0,-1,1.0,1.2714000000000851
502,25,0.5,1.0,-35.0,-1,1.0,0.34799999999995634
503,25,0.5,0.0625,35.0,1,1.0,0.30139999999983047
504,25,0.5,0.0625,35.0,1,1.0,0.364699999999857
505,25,0.5,0.125,35.0,1,1.0,0.22820000000001528
506,25,0.5,0.25,-35.0,-1,1.0,0.26169999999979154
507,25,0.5,1.0,35.0,1,1.0,0.471599999999853
508,25,0.5,0.125,-35.0,-1,1.0,0.26539999999977226
509,25,0.5,0.0625,-35.0,-1,1.0,0.7754999999999654
510,25,0.5,0.125,35.0,1,1.0,0.3624999999999545
511,25,0.5,0.125,-35.0,-1,1.0,0.2423999999998614
512,25,0.5,0.125,35.0,1,1.0,0.20929999999998472
513,25,0.5,1.0,35.0,1,1.0,0.20240000000012515
514,25,0.5,0.0625,-35.0,-1,1.0,1.185799999999972
515,25,0.5,0.25,-35.0,-1,1.0,0.24949999999989814
516,25,0.5,1.0,35.0,1,1.0,0.21259999999983847
517,25,0.5,1.0,-35.0,-1,1.0,0.292699999999968
518,25,0.5,0.125,35.0,1,1.0,0.3994999999999891
519,25,0.5,0.0625,-35.0,-1,1.0,0.28960000000006403
520,25,0.5,1.0,35.0,1,1.0,0.24340000000006512
521,25,0.5,0.25,-35.0,-1,1.0,0.3305000000000291
522,25,0.5,0.25,-35.0,-1,1.0,0.21349999999983993
523,25,0.5,0.125,35.0,1,1.0,0.24710000000004584
524,25,0.5,0.125,35.0,-1,0.0,0.14709999999990941
525,25,0.4,0.125,-35.0,-1,1.0,0.2437999999999647
526,25,0.5,1.0,-35.0,-1,1.0,0.43049999999993815
527,25,0.5,0.0625,-35.0,-1,1.0,0.21729999999979555
528,25,0.5,0.0625,35.0,1,1.0,2.47400000000016
529,25,0.5,0.0,35.0,-1,0.0,2.5342000000000553
530,25,0.5,0.125,-35.0,-1,1.0,0.5643999999999778
531,25,0.5,0.0625,-35.0,-1,1.0,0.35459999999966385
532,25,0.5,0.0,35.0,-1,0.0,0.3613000000000284
533,25,0.5,0.0,-35.0,-1,1.0,0.27140000000008513
534,25,0.5,0.0625,-35.0,-1,1.0,0.9182000000000698
535,25,0.5,0.125,-35.0,-1,1.0,0.25489999999990687
536,25,0.5,1.0,35.0,1,1.0,0.21179999999981192
537,25,0.5,0.0625,35.0,1,1.0,0.2885999999998603
538,25,0.5,0.25,35.0,1,1.0,0.26860000000010587
539,25,0.5,0.125,-35.0,-1,1.0,0.3187000000000353
540,25,0.5,1.0,35.0,1,1.0,0.2887000000000626
541,25,0.5,1.0,35.0,1,1.0,0.18879999999990105
542,25,0.5,0.0,35.0,-1,0.0,0.5021999999999025
543,25,0.5,0.0,-35.0,-1,1.0,0.4158999999997377
544,25,0.5,1.0,35.0,1,1.0,0.265999999999849
545,25,0.5,1.0,35.0,1,1.0,0.4158999999999651
546,25,0.5,0.0625,-35.0,-1,1.0,0.5496999999998025
547,25,0.5,0.0625,35.0,1,1.0,0.876299999999901
548,25,0.5,0.0,-35.0,-1,1.0,0.4397000000001299
549,25,0.5,0.25,35.0,1,1.0,0.32970000000000255
550,25,0.5,0.125,-35.0,-1,1.0,0.3164999999999054
551,25,0.5,0.125,-35.0,-1,1.0,0.4964999999997417
552,25,0.5,0.0625,-35.0,-1,1.0,0.5166999999999007
553,25,0.5,0.125,35.0,1,1.0,0.07369999999991705
554,25,0.5,0.0625,35.0,1,1.0,0.2802999999998974
555,25,0.5,1.0,35.0,1,1.0,0.3736999999998716
556,25,0.5,0.125,35.0,1,1.0,0.34049999999979264
557,25,0.5,0.0625,-35.0,-1,1.0,0.453899999999976
558,25,0.5,0.25,35.0,1,1.0,0.8672999999998865
559,25,0.5,0.25,35.0,1,1.0,0.3107009999996535
560,25,0.5,0.125,35.0,1,1.0,0.5742009999996753
561,25,0.5,0.125,-35.0,-1,1.0,0.38760099999990416
562,25,0.5,1.0,-35.0,-1,1.0,2.814301000000114
563,25,0.5,0.0625,35.0,1,1.0,0.23480100000006132
564,25,0.5,0.125,-35.0,-1,1.0,0.36130099999991216
565,25,0.5,0.0625,35.0,1,1.0,0.31480099999998856
566,25,0.5,0.25,-35.0,-1,1.0,0.23140099999977792
567,25,0.5,1.0,-35.0,-1,1.0,0.26830100000006496
568,25,0.5,0.0625,35.0,1,1.0,0.39170099999978447
569,25,0.5,0.125,-35.0,-1,1.0,0.27860099999998056
570,25,0.5,0.25,-35.0,-1,1.0,0.22180100000014136
571,25,0.5,0.25,35.0,1,1.0,0.27530099999989943
572,25,0.5,0.0,-35.0,1,0.0,0.44880099999977574
573,25,0.5,0.125,-35.0,-1,1.0,0.27880099999993035
574,25,0.5,1.0,35.0,1,1.0,0.34560099999998783
575,25,0.5,0.25,35.0,1,1.0,0.21240099999999984
576,25,0.5,1.0,35.0,1,1.0,0.2192010000001119
577,25,0.5,0.0625,35.0,1,1.0,0.43250099999977465
578,25,0.5,1.0,-35.0,-1,1.0,0.2294010000000526
579,25,0.5,0.125,-35.0,-1,1.0,0.279500999999982
580,25,0.5,0.0625,-35.0,-1,1.0,0.3362010000000737
581,25,0.5,0.0625,-35.0,-1,1.0,0.7562009999996917
582,25,0.5,0.0625,35.0,1,1.0,0.4064009999999598
583,25,0.5,1.0,-35.0,-1,1.0,0.33310099999994236
584,25,0.5,0.125,-35.0,-1,1.0,0.39320100000009006
585,25,0.5,0.125,-35.0,-1,1.0,0.5769009999999071
586,25,0.5,0.0625,-35.0,-1,1.0,0.2902010000000246
587,25,0.5,0.25,-35.0,-1,1.0,0.23690099999998893
588,25,0.5,1.0,35.0,1,1.0,0.1770010000000184
589,25,0.5,0.0625,-35.0,-1,1.0,0.07720100000005914
590,25,0.5,0.125,35.0,1,1.0,0.37390099999993254
591,25,0.5,0.0,-35.0,-1,1.0,2.544000999999753
592,25,0.5,0.25,-35.0,-1,1.0,2.470900999999685
593,25,0.5,0.0,35.0,-1,0.0,0.507600999999795
594,25,0.5,0.25,35.0,1,1.0,0.22440099999994345
595,25,0.5,0.125,35.0,1,1.0,0.2844009999998889
596,25,0.5,0.0625,-35.0,-1,1.0,0.8046009999998205
597,25,0.5,0.25,-35.0,-1,1.0,0.2513010000000122
598,25,0.5,1.0,35.0,1,1.0,0.2215009999999893
599,25,0.5,0.0625,-35.0,-1,1.0,0.27820100000008097
600,25,0.5,0.0,35.0,-1,0.0,2.715000999999802
601,25,0.5,0.0,-35.0,-1,1.0,0.215300999999954
602,25,0.5,1.0,-35.0,-1,1.0,0.1954009999999471
603,25,0.5,0.25,35.0,1,1.0,0.3753009999998085
604,25,0.5,0.0625,-35.0,-1,1.0,0.2655009999998583
605,25,0.5,0.0625,35.0,1,1.0,0.7555009999998674
606,25,0.5,0.125,35.0,1,1.0,0.189000999999962
607,25,0.5,0.125,35.0,1,1.0,1.7424009999999726
608,25,0.5,0.0,35.0,-1,0.0,0.25930099999982303
609,25,0.5,0.25,35.0,1,1.0,0.35600099999987833
610,25,0.5,0.25,35.0,1,1.0,0.2194009999998343
611,25,0.5,0.25,-35.0,-1,1.0,0.27290099999981976
612,25,0.5,0.125,35.0,1,1.0,0.24640099999987797
613,25,0.5,0.0625,35.0,1,1.0,0.3631009999999151
614,25,0.5,0.0625,35.0,1,1.0,1.949800999999752
615,25,0.5,0.125,-35.0,-1,1.0,0.5867009999999482
616,25,0.5,0.0625,-35.0,-1,1.0,0.3200009999998201
617,25,0.5,0.25,35.0,1,1.0,0.29340099999967606
618,25,0.5,0.125,-35.0,-1,1.0,0.5135009999999056
619,25,0.5,0.25,-35.0,-1,1.0,0.48030099999982667
620,25,0.5,0.25,-35.0,-1,1.0,1.923900999999887
621,25,0.5,0.25,35.0,1,1.0,0.06060099999990598
622,25,0.5,0.0625,-35.0,-1,1.0,0.4741009999997914
623,25,0.5,1.0,-35.0,-1,1.0,0.24400100000002567
624,25,0.5,0.25,35.0,1,1.0,0.23420099999998456
625,25,0.5,0.25,-35.0,-1,1.0,0.4577009999998154
626,25,0.5,0.0625,35.0,1,1.0,0.267900999999938
627,25,0.5,1.0,35.0,1,1.0,0.218000999999731
628,25,0.5,0.125,35.0,1,1.0,0.22500099999979284
629,25,0.5,0.0625,-35.0,-1,1.0,0.6318009999999958
630,25,0.5,1.0,35.0,1,1.0,0.21190100000012535
631,25,0.5,0.125,35.0,1,1.0,0.5219009999998434
632,25,0.5,0.0625,-35.0,-1,1.0,0.2553009999999176
633,25,0.5,1.0,-35.0,-1,1.0,0.2355009999998856
634,25,0.5,0.125,-35.0,-1,1.0,0.45220099999983177
635,25,0.5,1.0,35.0,1,1.0,0.07900099999983468
636,25,0.5,0.25,35.0,1,1.0,0.3224009999998998
637,25,0.5,0.0,-35.0,-1,1.0,0.422600999999986
638,25,0.5,0.0,35.0,1,1.0,2.98600099999976
639,25,0.5,0.25,35.0,1,1.0,0.4594010000000708
640,25,0.5,0.0625,-35.0,-1,1.0,0.32300099999997656
641,25,0.5,0.125,35.0,1,1.0,0.8297009999998863
642,25,0.5,1.0,35.0,1,1.0,0.24980100000016137
643,25,0.5,0.0625,-35.0,-1,1.0,0.2732009999999718
644,25,0.5,0.25,-35.0,-1,1.0,0.2499009999999089
645,25,0.5,0.25,35.0,1,1.0,0.2701009999998405
646,25,0.5,0.0625,-35.0,-1,1.0,0.2734009999999216
647,25,0.5,0.0625,35.0,1,1.0,0.4569010000000162
648,25,0.5,0.0,35.0,-1,0.0,0.5137009999998554
649,25,0.5,0.0625,-35.0,-1,1.0,0.27050099999996746
650,25,0.5,0.125,-35.0,-1,1.0,0.6072009999998045
651,25,0.5,1.0,35.0,1,1.0,0.274000999999771
652,25,0.5,1.0,-35.0,-1,1.0,0.33400099999971644
653,25,0.5,0.125,35.0,1,1.0,0.3609009999997852
654,25,0.5,1.0,35.0,1,1.0,0.3043009999998958
655,25,0.5,1.0,35.0,1,1.0,2.6877009999998336
656,25,0.5,0.0,-35.0,-1,1.0,1.5845009999998183
657,25,0.5,0.25,-35.0,-1,1.0,0.13130100000012135
658,25,0.5,0.125,35.0,1,1.0,0.26480099999980666
659,25,0.5,0.125,-35.0,-1,1.0,0.3149009999997361
660,25,0.5,0.25,35.0,1,1.0,0.4116009999997914
661,25,0.5,0.125,35.0,1,1.0,0.33170099999983904
662,25,0.5,0.125,-35.0,-1,1.0,0.4086010000000897
663,25,0.5,1.0,35.0,1,1.0,0.09190100000000712
664,25,0.5,0.25,35.0,1,1.0,1.8887010000000828
665,25,0.5,0.125,35.0,1,1.0,0.20880099999999402
666,25,0.5,0.125,35.0,1,1.0,0.40550099999995837
667,25,0.5,0.25,35.0,1,1.0,0.13230099999987033
668,25,0.5,0.0625,-35.0,-1,1.0,0.25250100000016573
669,25,0.5,0.0625,-35.0,-1,1.0,0.6060009999998783
670,25,0.5,0.0625,-35.0,-1,1.0,3.0126010000001315
671,25,0.5,0.25,35.0,1,1.0,0.23290099999985614
672,25,0.5,0.125,-35.0,-1,1.0,0.3063009999996211
673,25,0.5,0.125,-35.0,-1,1.0,0.3164009999998143
674,25,0.5,0.0,-35.0,-1,1.0,0.7264009999998962
675,25,0.5,1.0,-35.0,-1,1.0,0.32350099999985105
676,25,0.5,0.0625,-35.0,-1,1.0,0.6604009999998652
677,25,0.5,0.0,35.0,-1,0.0,0.5304009999999835
678,25,0.5,0.25,35.0,1,1.0,0.2007010000002083
679,25,0.5,0.0625,-35.0,-1,1.0,0.22080100000039238
680,25,0.5,0.25,-35.0,-1,1.0,0.31450100000029124
681,25,0.5,0.0625,-35.0,-1,1.0,0.16770099999985177
682,25,0.5,1.0,-35.0,-1,1.0,0.20780100000001767
683,25,0.5,0.25,35.0,1,1.0,0.2446010000003298
684,25,0.5,0.0625,-35.0,-1,1.0,0.4580010000004222
685,25,0.5,0.25,-35.0,-1,1.0,0.22800100000040402
686,25,0.5,0.25,-35.0,-1,1.0,0.2681010000005699
687,25,0.5,0.125,35.0,-1,0.0,2.501600999999937
688,25,0.5,0.125,35.0,1,1.0,0.4052010000000337
689,25,0.5,1.0,35.0,1,1.0,0.22190099999988888
690,25,0.5,0.0625,35.0,1,1.0,0.6420010000001639
691,25,0.5,1.0,-35.0,-1,1.0,0.21200099999987287
692,25,0.5,0.125,-35.0,-1,1.0,2.0622009999997317
693,25,0.5,0.25,-35.0,-1,1.0,0.2123010000004797
694,25,0.5,0.0625,35.0,-1,0.0,0.4258010000003196
695,25,0.5,0.25,35.0,1,1.0,0.2958010000002105
696,25,0.5,0.0,35.0,-1,0.0,0.2660009999999602
697,25,0.4,0.0,35.0,-1,0.0,0.18610100000023522
698,25,0.5,1.0,35.0,1,1.0,0.18620099999998274
699,25,0.5,0.125,35.0,1,1.0,0.33300099999996746
700,25,0.5,1.0,-35.0,-1,1.0,0.39640100000042366
701,25,0.5,1.0,35.0,1,1.0,0.2831010000004426
702,25,0.5,0.0625,-35.0,-1,1.0,0.48330099999975573
703,25,0.5,0.25,-35.0,-1,1.0,0.3766009999999369
704,25,0.5,0.0625,-35.0,-1,1.0,0.47010099999988597
705,25,0.5,0.125,35.0,1,1.0,0.3301010000000133
706,25,0.5,0.0625,35.0,1,1.0,3.293601000000308
707,25,0.5,0.25,-35.0,-1,1.0,0.22380100000009406
708,25,0.5,0.0625,-35.0,1,0.0,0.3739010000003873
709,25,0.5,0.125,-35.0,-1,1.0,0.35070100000029925
710,25,0.5,0.25,35.0,1,1.0,0.3542010000001028
711,25,0.5,0.0625,-35.0,-1,1.0,0.4810010000001057
712,25,0.5,0.0,35.0,1,1.0,2.7810010000002876
713,25,0.5,1.0,-35.0,-1,1.0,0.2078010000004724
714,25,0.5,0.125,-35.0,-1,1.0,0.5913010000003851
715,25,0.5,0.25,35.0,1,1.0,0.2747010000002774
716,25,0.5,0.0625,35.0,1,1.0,0.2848010000002432
717,25,0.5,0.0625,-35.0,-1,1.0,0.5883009999997739
718,25,0.5,0.0625,35.0,1,1.0,0.36500100000012026
719,25,0.5,0.0,-35.0,1,0.0,0.2218010000005961
720,25,0.5,0.25,-35.0,-1,1.0,0.17850100000032398
721,25,0.5,0.125,35.0,1,1.0,0.25190100000008897
722,25,0.5,0.0625,35.0,1,1.0,0.36870100000032835
723,25,0.5,0.25,35.0,1,1.0,0.3721009999999296
724,25,0.5,1.0,-35.0,-1,1.0,0.31890000000021246
725,25,0.5,0.0,-35.0,1,0.0,0.6657009999998991
726,25,0.5,0.125,35.0,1,1.0,0.3025009999996655
727,25,0.5,0.25,-35.0,-1,1.0,0.2292010000001028
728,25,0.5,1.0,35.0,1,1.0,0.9027009999999791
729,25,0.5,0.125,-35.0,-1,1.0,0.24620099999992817
730,25,0.5,0.0625,35.0,1,1.0,0.35290100000020175
731,25,0.5,0.25,35.0,1,1.0,0.36970100000007733
732,25,0.5,0.0,35.0,-1,0.0,2.6997010000004593
733,25,0.6,0.0,35.0,-1,0.0,0.30680100000017774
734,25,0.5,1.0,35.0,1,1.0,0.2734009999999216
735,25,0.5,1.0,-35.0,-1,1.0,0.23680100000046878
736,25,0.5,0.125,35.0,1,1.0,0.27040100000021994
737,25,0.5,0.0625,35.0,1,1.0,0.4204010000003109
738,25,0.5,0.125,35.0,1,1.0,0.3372010000002774
739,25,0.5,0.125,-35.0,-1,1.0,0.2506010000001879
740,25,0.5,0.125,35.0,1,1.0,0.2775010000000293
741,25,0.5,0.25,-35.0,-1,1.0,0.2877010000001974
742,25,0.5,0.0625,-35.0,-1,1.0,0.4642010000002301
743,25,0.5,1.0,35.0,1,1.0,0.20770100000027014
744,25,0.5,1.0,35.0,1,1.0,0.36110099999996237
745,25,0.5,1.0,35.0,1,1.0,0.2512010000000373
746,25,0.5,0.125,35.0,1,1.0,0.5079009999999471
747,25,0.5,0.0625,35.0,-1,0.0,0.3214010000001508
748,25,0.6,0.0625,-35.0,-1,1.0,0.2951010000001588
749,25,0.5,1.0,-35.0,-1,1.0,0.1617010000004484
750,25,0.5,0.125,-35.0,-1,1.0,0.1685010000001057
751,25,0.5,0.25,-35.0,-1,1.0,0.36200100000041857
752,25,0.5,1.0,35.0,1,1.0,0.18860099999983504
753,25,0.5,1.0,-35.0,-1,1.0,0.2154009999999289
754,25,0.5,0.25,35.0,1,1.0,0.23560100000031525
755,25,0.5,0.25,35.0,1,1.0,0.21550100000013117
756,25,0.5,1.0,-35.0,-1,1.0,0.19560100000035163
757,25,0.5,0.0,35.0,-1,0.0,0.2393010000000686
758,25,0.3,0.0,35.0,1,1.0,0.23260100000015882
759,25,0.5,1.0,35.0,1,1.0,0.29940099999976155
760,25,0.5,0.25,-35.0,-1,1.0,1.2527009999998882
761,25,0.5,1.0,35.0,1,1.0,0.4262010000002192
762,25,0.5,0.125,-35.0,-1,1.0,0.21630099999993035
763,25,0.5,0.125,35.0,1,1.0,0.673001000000113
764,25,0.5,0.125,35.0,1,1.0,0.3299010000000635
765,25,0.5,0.0625,35.0,1,1.0,0.9799010000001545
766,25,0.5,0.0,-35.0,1,0.0,2.9567010000000664
767,25,0.5,0.0,35.0,-1,0.0,0.34700100000009115
768,25,0.7,0.0,35.0,-1,0.0,0.3971010000000206
769,25,0.5,1.0,35.0,1,1.0,0.22400100000004386
770,25,0.5,0.0625,35.0,-1,0.0,1.4873010000005706
771,25,0.5,0.0625,-35.0,-1,1.0,0.37090100000023085
772,25,0.5,1.0,-35.0,-1,1.0,0.21430099999997765
773,25,0.5,0.25,35.0,1,1.0,0.34760099999994054
774,25,0.5,0.0,35.0,-1,0.0,0.7577009999999973
775,25,0.5,0.0625,35.0,1,1.0,0.23130100000025777
776,25,0.5,1.0,35.0,1,1.0,0.19800100000020393
777,25,0.5,1.0,-35.0,-1,1.0,0.6215010000000802
778,25,0.5,0.0625,-35.0,-1,1.0,0.4484010000001035
779,25,0.5,0.25,35.0,1,1.0,0.23840100000006714
780,25,0.5,0.25,35.0,1,1.0,0.3318010000002687
781,25,0.5,1.0,-35.0,-1,1.0,0.21860100000003513
782,25,0.5,0.0,35.0,1,1.0,0.32540100000005623
783,25,0.5,0.0625,-35.0,-1,1.0,0.26550100000031307
784,25,0.5,0.0,35.0,-1,0.0,3.0021010000000388
785,25,0.5,0.25,-35.0,-1,1.0,0.40240099999982704
786,25,0.5,0.125,35.0,1,1.0,0.3625010000000657
787,25,0.5,0.0,35.0,-1,0.0,0.2393010000000686
788,25,0.5,0.25,-35.0,-1,1.0,0.29620100000011007
789,25,0.5,0.25,35.0,1,1.0,0.4129010000001472
790,25,0.5,1.0,35.0,1,1.0,0.26300099999980375
791,25,0.5,0.0,35.0,1,1.0,0.26310100000046077
792,25,0.5,0.25,-35.0,-1,1.0,1.00320099999999
793,25,0.5,0.0625,-35.0,-1,1.0,0.3602009999999609
794,25,0.5,0.0,-35.0,-1,1.0,2.4036010000004353
795,25,0.5,0.125,35.0,1,1.0,0.4705010000002403
796,25,0.5,0.25,35.0,1,1.0,0.39720100000022285
797,25,0.5,1.0,35.0,1,1.0,0.42400099999986196
798,25,0.5,0.25,35.0,1,1.0,0.21740100000033635
799,25,0.5,0.125,35.0,1,1.0,0.2675010000002658
800,25,0.5,0.25,35.0,1,1.0,0.43420100000003004
801,25,0.5,0.0,35.0,-1,0.0,1.4411009999998896
802,25,0.6,0.0,-35.0,-1,1.0,2.7679010000001654
803,25,0.5,1.0,-35.0,-1,1.0,0.20470100000056846
804,25,0.5,1.0,-35.0,-1,1.0,0.2684009999998125
805,25,0.5,0.125,35.0,1,1.0,0.7053009999999631
806,25,0.5,1.0,35.0,-1,0.0,1.2353010000001632
807,25,0.5,0.0625,-35.0,-1,1.0,1.3023010000001705
808,25,0.5,0.0,35.0,1,1.0,2.002401000000191
809,25,0.5,0.125,35.0,1,1.0,0.36930100000017774
810,25,0.5,0.0625,-35.0,-1,1.0,1.2759009999999762
811,25,0.5,0.0,35.0,-1,0.0,1.692801000000145
812,25,0.3,0.0,35.0,-1,0.0,0.18960100000003877
813,25,0.5,1.0,-35.0,-1,1.0,0.2732010000004266
814,25,0.5,0.0625,-35.0,-1,1.0,1.589701000000332
815,25,0.5,0.0625,-35.0,-1,1.0,0.6800010000001748
816,25,0.5,0.125,35.0,1,1.0,3.5002010000002883
817,25,0.5,0.0625,35.0,-1,0.0,2.1104009999999107
818,25,0.3,0.0625,35.0,1,1.0,0.2439009999998234
819,25,0.5,1.0,-35.0,1,0.0,2.2408009999999194
820,25,0.5,0.25,-35.0,-1,1.0,1.9843010000004142
821,25,0.5,0.125,35.0,-1,0.0,2.497801000000436
822,25,0.5,0.0625,35.0,1,1.0,4.037901000000602
823,25,0.5,0.0625,35.0,-1,0.0,1.381601000000046
824,25,0.4,0.0625,35.0,1,1.0,0.5952010000000882
825,25,0.5,1.0,35.0,1,1.0,0.24180100000012317
826,25,0.5,0.125,35.0,-1,0.0,1.915400999999747
827,25,0.5,0.125,35.0,1,1.0,0.4590010000001712
828,25,0.5,0.125,-35.0,-1,1.0,0.2857010000002447
829,25,0.5,0.25,-35.0,-1,1.0,0.24250100000017483
830,25,0.5,0.0625,35.0,1,1.0,2.9560010000000148
831,25,0.5,0.0625,35.0,1,1.0,0.2929010000002563
832,25,0.5,0.125,-35.0,-1,1.0,0.18310100000007878
833,25,0.5,0.125,35.0,1,1.0,0.24320099999977174
834,25,0.5,0.0625,-35.0,-1,1.0,0.039901000000099884
835,25,0.5,0.25,-35.0,1,0.0,0.026601000000027852
836,25,0.5,0.0625,-35.0,-1,1.0,0.23010100000010425
837,25,0.5,0.125,35.0,1,1.0,0.4803010000005088
838,25,0.5,0.0625,-35.0,-1,1.0,0.19020099999988815
839,25,0.5,0.0625,35.0,1,1.0,0.33710100000007515
840,25,0.5,0.25,-35.0,-1,1.0,0.22390100000029634
841,25,0.5,1.0,-35.0,-1,1.0,0.18740099999968152
842,25,0.5,0.0625,-35.0,-1,1.0,0.5006010000001879
843,25,0.5,0.0625,35.0,1,1.0,0.6775009999996655
844,25,0.5,0.25,-35.0,-1,1.0,0.28420100000039383
845,25,0.5,0.0,35.0,-1,0.0,0.7776009999997768
846,25,0.3,0.0,35.0,-1,0.0,0.5379010000001472
847,25,0.5,1.0,35.0,1,1.0,0.35140099999989616
848,25,0.5,0.25,-35.0,-1,1.0,0.23800100000016755
849,25,0.5,0.125,35.0,1,1.0,0.24810100000013335
850,25,0.5,0.25,35.0,1,1.0,0.24150100000042585
851,25,0.5,0.25,35.0,1,1.0,0.29830100000026505
852,25,0.5,0.25,-35.0,-1,1.0,0.2817009999998845
853,25,0.5,0.125,35.0,1,1.0,0.4452009999999973
854,25,0.5,0.25,35.0,1,1.0,0.29860099999996237
855,25,0.5,0.0625,-35.0,-1,1.0,0.3554010000002563
856,25,0.5,1.0,35.0,1,1.0,0.27550100000053135
857,25,0.5,0.25,-35.0,-1,1.0,0.15890100000024177
858,25,0.5,0.0625,35.0,1,1.0,0.6090010000002621
859,25,0.5,0.25,35.0,1,1.0,0.25910100000055536
860,25,0.5,0.0,35.0,-1,0.0,0.305800999999974
861,25,0.5,0.25,35.0,1,1.0,0.3627010000000155
862,25,0.5,1.0,35.0,1,1.0,0.27610100000038074
863,25,0.5,0.0,-35.0,1,0.0,3.389701000000059
864,25,0.5,0.0625,-35.0,-1,1.0,0.3232010000001537
865,25,0.5,0.25,35.0,1,1.0,0.3633010000003196
866,25,0.5,0.25,-35.0,-1,1.0,0.24330100000042876
867,25,0.5,0.25,-35.0,-1,1.0,0.2367010000002665
868,25,0.5,1.0,35.0,1,1.0,0.8635009999998147
869,25,0.5,0.25,35.0,1,1.0,0.2504009999997834
870,25,0.5,0.125,35.0,1,1.0,0.29700099999990925
871,25,0.5,0.0625,35.0,1,1.0,0.34040100000038365
872,25,0.5,1.0,-35.0,-1,1.0,0.19720099999995
873,25,0.5,0.0625,-35.0,-1,1.0,0.4940010000004804
874,25,0.5,0.125,35.0,1,1.0,0.43080100000042876
875,25,0.5,0.125,-35.0,-1,1.0,0.3275010000002112
876,25,0.5,0.125,-35.0,-1,1.0,0.3943010000002687
877,25,0.5,0.0625,35.0,1,1.0,0.731000999999651
878,25,0.5,1.0,35.0,1,1.0,0.2611010000000533
879,25,0.5,0.0625,-35.0,-1,1.0,0.5812009999999646
880,25,0.5,0.125,-35.0,-1,1.0,0.7513010000002396
881,25,0.5,1.0,35.0,1,1.0,1.011500999999953
882,25,0.5,0.0625,-35.0,-1,1.0,0.3716010000002825
883,25,0.5,0.0625,-35.0,-1,1.0,0.36160100000006423
884,25,0.5,0.0,-35.0,1,0.0,0.4218010000004142
885,25,0.4,0.0,-35.0,1,0.0,0.1985010000003058
886,25,0.5,1.0,35.0,1,1.0,0.17870100000027378
887,25,0.5,0.125,35.0,1,1.0,0.39210099999991144
888,25,0.5,0.125,-35.0,-1,1.0,0.2856010000000424
889,25,0.5,1.0,-35.0,-1,1.0,0.4456009999998969
890,25,0.5,0.0625,35.0,1,1.0,0.21580100000028324
891,25,0.5,0.25,-35.0,-1,1.0,0.2858009999999922
892,25,0.5,0.25,35.0,1,1.0,0.40600099999983286
893,25,0.5,1.0,-35.0,-1,1.0,0.23940100000027087
894,25,0.5,0.25,-35.0,-1,1.0,0.856101000000308
895,25,0.5,0.125,35.0,1,1.0,0.7362010000001646
896,25,0.5,1.0,35.0,1,1.0,0.2397009999999682
897,25,0.5,0.25,-35.0,-1,1.0,0.48310099999980594
898,25,0.5,0.25,-35.0,-1,1.0,0.42990099999997256
899,25,0.5,0.125,-35.0,-1,1.0,0.28670099999999366
900,25,0.5,0.0,35.0,-1,0.0,1.9434010000004491
901,25,0.5,0.0625,-35.0,-1,1.0,0.37020099999972444
902,25,0.5,0.0,35.0,-1,0.0,3.467000999999982
903,25,0.5,0.0625,-35.0,-1,1.0,0.31060100000013335
904,25,0.5,0.25,-35.0,-1,1.0,0.27070099999991726
905,25,0.5,1.0,35.0,1,1.0,0.5008010000001377
906,25,0.5,0.125,35.0,1,1.0,0.43750100000033854
907,25,0.5,0.0625,35.0,1,1.0,0.8177009999999427
908,25,0.5,0.125,-35.0,-1,1.0,0.5577009999997244
909,25,0.5,0.125,35.0,1,1.0,0.25450099999989106
910,25,0.5,0.0625,-35.0,1,0.0,0.374800999999934
911,25,0.5,0.125,35.0,1,1.0,0.22490100000050006
912,25,0.5,0.25,-35.0,-1,1.0,0.49170100000037564
913,25,0.5,0.0,35.0,1,1.0,0.4019010000001799
914,25,0.5,0.0625,-35.0,-1,1.0,0.43200100000012753
915,25,0.5,0.25,35.0,1,1.0,0.1854010000006383
916,25,0.5,0.25,-35.0,-1,1.0,0.48210100000005696
917,25,0.5,0.125,35.0,1,1.0,0.26230100000020684
918,25,0.5,0.0,-35.0,-1,1.0,3.7557010000000446
919,25,0.5,0.0625,35.0,1,1.0,0.2393010000000686
920,25,0.5,0.0,35.0,-1,0.0,0.38940099999990707
921,25,0.5,0.0625,35.0,1,1.0,0.279500999999982
922,25,0.5,1.0,35.0,1,1.0,0.24960100000043894
923,25,0.5,0.0625,35.0,1,1.0,0.28300099999978556
924,25,0.5,0.125,-35.0,-1,1.0,0.5431009999997514
925,25,0.5,0.125,-35.0,-1,1.0,0.2732009999999718
926,25,0.5,0.25,-35.0,-1,1.0,0.28660100000024613
927,25,0.5,0.125,35.0,1,1.0,0.28670099999999366
928,25,0.5,0.0,-35.0,1,0.0,0.3968009999998685
929,25,0.5,0.125,-35.0,-1,1.0,0.49040000000013606
930,25,0.5,1.0,35.0,1,1.0,0.2771010000001297
931,25,0.5,0.125,-35.0,-1,1.0,0.2306010000002061
932,25,0.5,1.0,-35.0,-1,1.0,0.5473010000000613
933,25,0.5,0.125,-35.0,-1,1.0,0.4007010000000264
934,25,0.5,0.0,35.0,-1,0.0,0.6176010000003771
935,25,0.3,0.0,35.0,-1,0.0,0.3542010000001028
936,25,0.5,1.0,35.0,1,1.0,0.1911009999998896
937,25,0.5,0.125,-35.0,-1,1.0,0.3012010000002192
938,25,0.5,0.125,35.0,1,1.0,0.3546010000000024
939,25,0.5,0.0,35.0,-1,0.0,0.30140099999971426
940,25,0.5,0.0,35.0,1,1.0,0.18150100000002567
941,25,0.5,0.125,35.0,1,1.0,1.398301000000174
942,25,0.5,0.25,-35.0,-1,1.0,0.2653010000003633
943,25,0.5,0.0625,35.0,-1,0.0,1.4219010000001617
944,25,0.5,0.125,-35.0,-1,1.0,0.3522010000001501
945,25,0.5,1.0,35.0,1,1.0,0.3055010000002767
946,25,0.5,1.0,35.0,1,1.0,0.1889009999999871
947,25,0.5,0.25,-35.0,-1,1.0,0.25900099999989834
948,25,0.5,0.25,35.0,1,1.0,1.4758010000000468
949,25,0.5,0.0,35.0,-1,0.0,4.082601000000068
950,25,0.5,0.25,-35.0,-1,1.0,0.19630099999994854
951,25,0.5,0.125,-35.0,-1,1.0,0.4863010000003669
952,25,0.5,0.0625,-35.0,-1,1.0,0.909701000000041
953,25,0.5,0.25,-35.0,-1,1.0,1.5132010000002083
954,25,0.5,1.0,35.0,1,1.0,0.18660099999988233
955,25,0.5,0.0625,35.0,1,1.0,1.2567009999997936
956,25,0.5,0.125,35.0,1,1.0,0.27350099999966915
957,25,0.5,0.125,-35.0,-1,1.0,0.5069010000001981
958,25,0.5,0.25,35.0,1,1.0,0.2203999999996995
959,25,0.5,0.25,-35.0,-1,1.0,0.3073010000002796
960,25,0.5,0.125,-35.0,-1,1.0,0.4074009999999362
961,25,0.5,1.0,-35.0,-1,1.0,0.2541009999999915
962,25,0.5,0.25,-35.0,-1,1.0,0.2674010000000635
963,25,0.5,1.0,35.0,1,1.0,0.5810010000000148
964,25,0.5,0.0625,35.0,1,1.0,0.5244009999996706
965,25,0.5,0.0,-35.0,-1,1.0,1.0779010000005655
966,25,0.5,0.125,-35.0,-1,1.0,0.29800099999965823
967,25,0.5,0.0625,35.0,-1,0.0,2.7281010000001515
968,25,0.3,0.0625,-35.0,-1,1.0,0.42180099999995946
969,25,0.5,1.0,35.0,1,1.0,0.2218009999996866
970,25,0.5,0.25,35.0,-1,0.0,8.472001000000091
971,25,0.5,0.25,35.0,1,1.0,0.2124010000002272
972,25,0.5,0.25,-35.0,-1,1.0,0.4925010000001748
973,25,0.5,0.0625,-35.0,-1,1.0,0.3194010000001981
974,25,0.5,0.125,35.0,1,1.0,1.6427010000002156
975,25,0.5,0.0,-35.0,-1,1.0,0.2961009999999078
976,25,0.5,0.25,35.0,1,1.0,0.09640100000024177
977,25,0.5,0.25,35.0,1,1.0,0.5129010000000562
978,25,0.5,0.25,35.0,1,1.0,2.983201000000463
979,25,0.5,0.0625,-35.0,-1,1.0,0.4533010000000104
980,25,0.5,1.0,-35.0,-1,1.0,0.33670100000017555
981,25,0.5,0.125,35.0,1,1.0,0.986801000000014
982,25,0.5,1.0,35.0,1,1.0,0.2468010000002323
983,25,0.5,1.0,35.0,1,1.0,0.39370099999996455
984,25,0.5,1.0,-35.0,-1,1.0,0.3770009999998365
985,25,0.5,1.0,35.0,1,1.0,0.20710100000042075
986,25,0.5,0.0,35.0,-1,0.0,0.6807010000002265
987,25,0.5,0.125,-35.0,-1,1.0,0.5774010000000089
988,25,0.5,1.0,35.0,1,1.0,1.2542010000001937
989,25,0.5,0.0625,-35.0,-1,1.0,0.36100100000021484
990,25,0.5,1.0,35.0,1,1.0,0.27110100000072634
991,25,0.5,0.25,-35.0,-1,1.0,0.2745009999998729
992,25,0.5,0.25,-35.0,-1,1.0,0.31460100000003877
993,25,0.5,0.25,-35.0,-1,1.0,0.5580010000003313
994,25,0.5,0.125,-35.0,-1,1.0,0.3016010000001188
995,25,0.5,1.0,35.0,1,1.0,0.7349010000002636
996,25,0.5,0.0625,35.0,1,1.0,0.42500099999961094
997,25,0.5,0.25,-35.0,-1,1.0,0.28180099999963204
998,25,0.5,1.0,35.0,1,1.0,0.23190100000010716
999,25,0.5,0.25,-35.0,-1,1.0,0.37860100000034436
1000,25,0.5,0.0625,35.0,1,1.0,0.40530100000023594
1001,25,0.5,1.0,-35.0,-1,1.0,0.3121009999999842
1002,25,0.5,0.125,35.0,1,1.0,0.6723010000000613
1003,25,0.5,0.125,35.0,1,1.0,1.6323010000000977
1004,25,0.5,0.125,35.0,1,1.0,0.34910100000024613
1005,25,0.5,0.0625,35.0,1,1.0,0.3460009999998874
1006,25,0.5,0.0,35.0,1,1.0,0.31930099999999584
1007,25,0.5,0.25,-35.0,-1,1.0,0.44610099999999875
1008,25,0.5,0.0625,35.0,1,1.0,0.38280100000019956
1009,25,0.5,0.25,35.0,1,1.0,0.2231010000000424
1010,25,0.5,0.0625,35.0,1,1.0,0.4131010000005517
1011,25,0.5,0.0,-35.0,-1,1.0,0.6899009999997361
1012,25,0.5,1.0,35.0,1,1.0,0.24340100000017628
1013,25,0.5,0.0625,-35.0,-1,1.0,0.3501009999999951
1014,25,0.5,0.0625,-35.0,-1,1.0,0.5936010000000351
1015,25,0.5,1.0,-35.0,-1,1.0,0.24040100000001985
1016,25,0.5,0.125,-35.0,-1,1.0,0.34050100000013117
1017,25,0.5,0.125,-35.0,-1,1.0,0.4607009999999718
1018,25,0.5,1.0,35.0,1,1.0,0.25070099999993545
1019,25,0.5,0.0,35.0,-1,0.0,0.31740099999979066
1020,25,0.5,0.0625,-35.0,1,0.0,0.33760099999972226
1021,25,0.5,0.125,35.0,1,1.0,0.3744010000000344
1022,25,0.5,1.0,-35.0,-1,1.0,0.06120099999998274
1023,25,0.5,1.0,35.0,1,1.0,0.3646010000006754
1024,25,0.5,0.0625,35.0,1,1.0,0.8280010000003131
1025,25,0.5,0.25,35.0,1,1.0,0.4116009999997914
1026,25,0.5,0.25,35.0,1,1.0,0.2316009999999551
1027,25,0.5,0.25,-35.0,-1,1.0,0.2084010000003218
1028,25,0.5,1.0,35.0,1,1.0,0.22180100000014136
1029,25,0.5,0.0625,-35.0,-1,1.0,0.32860100000016246
1030,25,0.5,0.25,-35.0,-1,1.0,0.6254010000002381
1031,25,0.5,1.0,35.0,1,1.0,0.22230100000024322
1032,25,0.5,0.125,35.0,1,1.0,0.21570100000008097
1033,25,0.5,0.125,35.0,1,1.0,0.32240100000035454
1034,25,0.5,0.125,-35.0,-1,1.0,0.3459010000001399
1035,25,0.5,0.125,35.0,1,1.0,0.28930099999979575
1036,25,0.5,1.0,35.0,1,1.0,1.2328009999996539
1037,25,0.5,0.25,35.0,1,1.0,0.2329010000003109
1038,25,0.5,0.125,35.0,1,1.0,0.35300099999994927
1039,25,0.5,0.125,35.0,1,1.0,0.3698010000002796
1040,25,0.5,0.125,-35.0,-1,1.0,0.3465009999999893
1041,25,0.5,0.25,35.0,1,1.0,0.4200010000004113
1042,25,0.5,1.0,35.0,1,1.0,0.2134009999999762
1043,25,0.5,0.125,35.0,1,1.0,0.2902009999997972
1044,25,0.5,0.125,35.0,1,1.0,1.0803010000004178
1045,25,0.5,0.125,-35.0,-1,1.0,0.23040100000025632
1046,25,0.5,1.0,-35.0,-1,1.0,0.5205010000004222
1047,25,0.5,1.0,-35.0,-1,1.0,0.2273009999998976
1048,25,0.5,0.0625,35.0,1,1.0,0.7908010000001013
1049,25,0.5,1.0,35.0,1,1.0,0.36740099999997256
1050,25,0.5,1.0,-35.0,-1,1.0,0.2143010000004324
1051,25,0.5,0.25,35.0,1,1.0,0.2310010000001057
1052,25,0.5,1.0,-35.0,-1,1.0,0.2978010000001632
1053,25,0.5,1.0,-35.0,-1,1.0,2.1545010000004368
1054,25,0.5,0.0625,35.0,1,1.0,0.4314009999998234
1055,25,0.5,1.0,-35.0,-1,1.0,0.2549010000002454
1056,25,0.5,0.0625,-35.0,-1,1.0,0.3783010000001923
1057,25,0.5,0.0625,-35.0,-1,1.0,0.32170099999984814
1058,25,0.5,0.125,35.0,1,1.0,2.1351009999998496
1059,25,0.5,0.0625,-35.0,-1,1.0,0.2620010000005095
1060,25,0.5,0.0625,35.0,1,1.0,0.4021010000001297
1061,25,0.5,0.0625,-35.0,-1,1.0,0.4189010000000053
1062,25,0.5,0.25,35.0,1,1.0,1.3390010000002803
1063,25,0.5,0.0625,35.0,1,1.0,0.29910100000006423
1064,25,0.5,0.125,35.0,1,1.0,0.2560009999997419
1065,25,0.5,0.25,35.0,1,1.0,0.40610100000003513
1066,25,0.5,0.0625,35.0,1,1.0,0.4695010000000366
1067,25,0.5,0.125,-35.0,-1,1.0,0.22280100000034508
1068,25,0.5,0.125,-35.0,-1,1.0,2.036200999999892
1069,25,0.5,0.0,35.0,-1,0.0,0.7264010000003509
1070,25,0.5,0.125,35.0,1,1.0,0.23990100000037273
1071,25,0.5,0.125,-35.0,-1,1.0,0.6033010000001013
1072,25,0.5,1.0,35.0,1,1.0,1.153501000000233
1073,25,0.5,0.125,35.0,1,1.0,0.30690099999992526
1074,25,0.5,0.125,-35.0,-1,1.0,0.383701000000201
1075,25,0.5,0.0625,35.0,1,1.0,0.31040100000018356
1076,25,0.5,0.0,35.0,-1,0.0,0.5339010000002418
1077,25,0.5,0.0,35.0,-1,0.0,0.41400100000009843
1078,25,0.5,0.125,35.0,1,1.0,0.2741009999999733
1079,25,0.5,0.25,35.0,1,1.0,1.6809010000001763
1080,25,0.5,0.0625,35.0,1,1.0,0.43440099999997983
1081,25,0.5,0.0,35.0,-1,0.0,0.42120100000011007
1082,25,0.5,0.0,35.0,-1,0.0,2.4380009999999857
1083,25,0.5,0.125,35.0,1,1.0,0.37490100000013626
1084,25,0.5,0.25,-35.0,-1,1.0,0.47830100000010134
1085,25,0.5,0.125,-35.0,-1,1.0,0.25180100000034145
1086,25,0.5,0.0625,35.0,1,1.0,0.3118010000002869
1087,25,0.5,0.125,35.0,1,1.0,0.3654010000004746
1088,25,0.5,0.25,35.0,1,1.0,0.40870100000029197
1089,25,0.5,0.0625,35.0,1,1.0,0.42870099999981903
1090,25,0.5,1.0,-35.0,-1,1.0,0.2788010000003851
1091,25,0.5,0.125,35.0,1,1.0,0.9424010000002454
1092,25,0.5,0.25,35.0,1,1.0,0.3059010000001763
1093,25,0.5,0.0625,-35.0,-1,1.0,0.4960009999999784
1094,25,0.5,0.125,-35.0,-1,1.0,0.5160009999999602
1095,25,0.5,0.25,35.0,1,1.0,0.2895010000002003
1096,25,0.5,0.0625,-35.0,-1,1.0,0.5729010000004564
1097,25,0.5,0.0625,35.0,1,1.0,0.34290099999998347
1098,25,0.5,1.0,35.0,1,1.0,0.23640100000011444
1099,25,0.5,0.25,35.0,1,1.0,0.2632010000002083
1100,25,0.5,1.0,-35.0,-1,1.0,0.4399009999997361
1101,25,0.5,1.0,-35.0,-1,1.0,0.4800010000003567
1102,25,0.5,0.25,35.0,1,1.0,0.2701010000005226
1103,25,0.5,0.125,-35.0,-1,1.0,2.4903010000002723
1104,25,0.5,0.0625,35.0,1,1.0,0.4771009999999478
1105,25,0.5,1.0,-35.0,-1,1.0,0.24380100000007587
1106,25,0.5,0.25,35.0,1,1.0,0.3439010000001872
1107,25,0.5,0.25,35.0,1,1.0,0.26410100000020975
1108,25,0.5,1.0,35.0,1,1.0,0.3707009999998263
1109,25,0.5,1.0,35.0,1,1.0,0.42430100000001403
1110,25,0.5,0.125,35.0,1,1.0,0.9976010000000315
1111,25,0.5,1.0,-35.0,-1,1.0,0.27110099999981685
1112,25,0.5,0.125,35.0,1,1.0,0.2913010000002032
1113,25,0.5,1.0,35.0,1,1.0,0.3214010000001508
1114,25,0.5,0.25,35.0,1,1.0,0.20810100000016973
1115,25,0.5,0.0625,-35.0,-1,1.0,0.2914009999999507
1116,25,0.5,1.0,35.0,1,1.0,0.25480100000004313
1117,25,0.5,1.0,-35.0,-1,1.0,0.24840099999983067
1118,25,0.5,0.125,35.0,-1,0.0,2.8551010000001042
1119,25,0.5,0.0,-35.0,-1,1.0,1.058701000000383
1120,25,0.5,0.125,-35.0,-1,1.0,0.6756009999999151
1121,25,0.5,0.125,-35.0,-1,1.0,0.818901000000551
1122,25,0.5,0.125,-35.0,-1,1.0,0.302400999999918
1123,25,0.5,0.125,-35.0,-1,1.0,0.3191010000005008
1124,25,0.5,0.0625,35.0,1,1.0,0.44250099999999293
1125,25,0.5,0.25,35.0,1,1.0,0.2694010000000162
1126,25,0.5,0.0625,-35.0,1,0.0,0.40610100000003513
1127,25,0.5,0.0625,35.0,1,1.0,0.4229009999999107
1128,25,0.5,0.0625,35.0,1,1.0,0.3864010000002054
1129,25,0.5,0.0625,35.0,1,1.0,1.209700999999768
1130,25,0.5,0.0,35.0,-1,0.0,0.410001000000193
1131,25,0.5,0.0,35.0,-1,0.0,0.8836009999999987
1132,25,0.6,0.0,35.0,1,1.0,0.277201000000332
1133,25,0.5,1.0,-35.0,-1,1.0,0.2305010000004586
1134,25,0.5,0.0,-35.0,1,0.0,0.7173010000001341
1135,25,0.7,0.0,-35.0,-1,1.0,2.8608009999998103
1136,25,0.5,1.0,-35.0,-1,1.0,0.234501000000364
1137,25,0.5,0.25,-35.0,-1,1.0,0.44770100000005186
1138,25,0.5,0.25,35.0,1,1.0,0.41110100000014427
1139,25,0.5,0.25,-35.0,-1,1.0,0.47460099999989325
1140,25,0.5,0.25,-35.0,-1,1.0,0.5081009999998969
1141,25,0.5,0.0625,35.0,1,1.0,0.31480099999998856
1142,25,0.5,0.125,-35.0,-1,1.0,0.4216010000004644
1143,25,0.5,0.0,35.0,1,1.0,0.3617010000002665
1144,25,0.5,1.0,35.0,1,1.0,0.268601000000217
1145,25,0.5,0.0,-35.0,1,0.0,0.32860100000016246
1146,25,0.5,0.125,35.0,1,1.0,0.30870099999992817
1147,25,0.5,0.0625,35.0,1,1.0,0.44540100000040184
1148,25,0.5,0.125,35.0,1,1.0,0.31220100000018647
1149,25,0.5,1.0,-35.0,-1,1.0,0.39570099999991726
1150,25,0.5,0.125,35.0,1,1.0,0.25570100000049933
1151,25,0.5,0.25,35.0,1,1.0,0.3892009999999573
1152,25,0.5,0.25,-35.0,-1,1.0,0.4460010000002512
1153,25,0.5,0.0625,35.0,1,1.0,0.5727010000000519
1154,25,0.5,1.0,-35.0,-1,1.0,0.6361010000000533
1155,25,0.5,1.0,-35.0,-1,1.0,0.5796009999999114
1156,25,0.5,0.0,-35.0,1,0.0,0.35970099999985905
1157,25,0.5,0.0625,35.0,1,1.0,0.36990100000048187
1158,25,0.5,0.125,35.0,1,1.0,0.4334010000006856
1159,25,0.5,0.25,-35.0,-1,1.0,0.27010100000006787
1160,25,0.5,0.25,-35.0,-1,1.0,0.23700100000041857
1161,25,0.5,1.0,-35.0,-1,1.0,0.28030100000023594
1162,25,0.5,1.0,-35.0,-1,1.0,0.2804010000004382
1163,25,0.5,1.0,35.0,1,1.0,0.2573010000000977
1164,25,0.5,1.0,35.0,1,1.0,0.25400100000024395
1165,25,0.5,1.0,-35.0,-1,1.0,0.4541010000002643
1166,25,0.5,0.25,35.0,1,1.0,0.45420100000001185
1167,25,0.5,0.0,-35.0,-1,1.0,5.717701000000034
1168,25,0.5,0.25,-35.0,-1,1.0,0.2112010000000737
1169,25,0.5,0.25,-35.0,-1,1.0,0.6514010000000781
1170,25,0.5,0.25,35.0,1,1.0,0.2982010000005175
1171,25,0.5,0.25,35.0,1,1.0,0.5516010000001188
1172,25,0.5,0.125,-35.0,-1,1.0,0.5619010000000344
1173,25,0.5,0.0625,35.0,1,1.0,2.2085010000000693
1174,25,0.5,0.125,35.0,1,1.0,0.3153010000000904
1175,25,0.5,0.125,35.0,1,1.0,0.34880100000009406
1176,25,0.5,1.0,-35.0,-1,1.0,0.27900099999988015
1177,25,0.5,0.0625,-35.0,-1,1.0,0.302400999999918
1178,25,0.5,0.125,35.0,1,1.0,0.4258010000003196
1179,25,0.5,0.0625,-35.0,-1,1.0,0.28270100000008824
1180,25,0.5,0.0625,-35.0,-1,1.0,0.61940100000038
1181,25,0.5,0.125,-35.0,-1,1.0,0.3362010000000737
1182,25,0.5,0.125,-35.0,-1,1.0,0.5396009999999478
1183,25,0.5,0.125,35.0,1,1.0,1.4331010000000788
1184,25,0.5,0.125,35.0,1,1.0,0.5200009999998656
1185,25,0.5,0.0625,-35.0,-1,1.0,0.3034010000001217
1186,25,0.5,1.0,35.0,1,1.0,0.2369010000002163
1187,25,0.5,0.25,35.0,1,1.0,6.0369009999999435
1188,25,0.5,0.25,-35.0,-1,1.0,0.33720099999982267
1189,25,0.5,0.25,35.0,1,1.0,0.28410100000019156
1190,25,0.5,0.125,-35.0,-1,1.0,0.4842010000006667
1191,25,0.5,1.0,-35.0,-1,1.0,0.420900999999958
1192,25,0.5,0.125,-35.0,-1,1.0,2.0279010000003836
1193,25,0.5,0.0625,-35.0,-1,1.0,1.537800999999945
1194,25,0.5,0.0625,-35.0,-1,1.0,0.5447010000002592
1195,25,0.5,0.0625,35.0,1,1.0,1.0247010000002774
1196,25,0.5,0.125,-35.0,-1,1.0,0.3250010000006114
1197,25,0.5,0.25,35.0,1,1.0,0.3283010000000104
1198,25,0.5,1.0,-35.0,-1,1.0,0.2718009999998685
1199,25,0.5,0.25,35.0,1,1.0,0.22860099999979866
1200,25,0.5,0.125,-35.0,-1,1.0,0.32540100000005623
1201,25,0.5,0.25,-35.0,-1,1.0,0.4521010000003116
1202,25,0.5,0.0625,-35.0,-1,1.0,0.5555009999998219
1203,25,0.5,1.0,-35.0,-1,1.0,0.2857010000002447
1204,25,0.5,0.125,35.0,1,1.0,0.2992010000002665
1205,25,0.5,0.25,-35.0,-1,1.0,0.24600099999997838
1206,25,0.5,0.0625,35.0,1,1.0,1.5760009999999056
1207,25,0.5,1.0,35.0,1,1.0,0.2594010000002527
1208,25,0.5,0.25,-35.0,-1,1.0,0.3829009999999471
1209,25,0.5,1.0,35.0,1,1.0,0.22960100000045713
1210,25,0.5,0.0625,35.0,-1,0.0,4.206400999999914
1211,25,0.5,0.25,-35.0,-1,1.0,0.28670099999999366
1212,25,0.5,0.125,-35.0,-1,1.0,0.2503010000004906
1213,25,0.5,0.25,-35.0,-1,1.0,0.5036009999998896
1214,25,0.5,0.0,-35.0,-1,1.0,1.2973010000000613
1215,25,0.5,0.125,35.0,1,1.0,0.20410100000026432
1216,25,0.5,0.125,35.0,-1,0.0,1.2641010000002098
1217,25,0.3,0.125,35.0,1,1.0,0.7242009999999937
1218,25,0.5,1.0,35.0,1,1.0,0.2778009999997266
1219,25,0.5,0.125,35.0,1,1.0,0.21790099999998347
1220,25,0.5,0.25,-35.0,-1,1.0,0.6781009999999696
1221,25,0.5,0.0625,35.0,1,1.0,1.5848009999999704
1222,25,0.5,0.0,-35.0,1,0.0,0.3951010000005226
1223,25,0.5,0.25,35.0,1,1.0,0.45520100000021557
1224,25,0.5,0.125,35.0,1,1.0,0.3087010000003829
1225,25,0.5,0.125,-35.0,-1,1.0,0.2421009999998205
1226,25,0.5,0.0625,-35.0,-1,1.0,0.3722010000001319
1227,25,0.5,0.125,35.0,1,1.0,0.46560100000033344
1228,25,0.5,1.0,-35.0,-1,1.0,0.24910099999988233
1229,25,0.5,0.0625,35.0,1,1.0,0.555800999999974
1230,25,0.5,0.125,35.0,1,1.0,0.2694010000000162
1231,25,0.5,0.0625,35.0,1,1.0,0.48280099999965387
1232,25,0.5,1.0,35.0,1,1.0,0.23620100000016464
1233,25,0.5,0.25,35.0,1,1.0,0.3663010000000213
1234,25,0.5,0.0625,-35.0,-1,1.0,1.3065010000004804
1235,25,0.5,1.0,35.0,1,1.0,0.2266010000003007
1236,25,0.5,0.0,-35.0,-1,1.0,1.8500010000002476
1237,25,0.5,0.125,35.0,1,1.0,0.2468010000002323
1238,25,0.5,1.0,35.0,1,1.0,1.0136010000001079
1239,25,0.5,0.0625,35.0,1,1.0,1.2573010000000977
1240,25,0.5,0.0625,-35.0,-1,1.0,0.5172010000005685
1241,25,0.5,1.0,-35.0,-1,1.0,0.21070099999997183
1242,25,0.5,1.0,35.0,1,1.0,0.34740099999999074
1243,25,0.5,0.125,35.0,-1,0.0,0.09750100000019302
1244,25,0.5,0.25,-35.0,-1,1.0,0.2510010000000875
1245,25,0.5,1.0,35.0,1,1.0,0.3711010000006354
1246,25,0.5,0.0625,35.0,-1,0.0,0.40130100000033053
1247,25,0.5,0.0625,-35.0,-1,1.0,0.3048009999997703
1248,25,0.5,0.125,35.0,1,1.0,0.3681010000000242
1249,25,0.5,1.0,35.0,1,1.0,0.3983010000001741
1250,25,0.5,1.0,-35.0,-1,1.0,0.16490100000055463
1251,25,0.5,0.0,35.0,1,1.0,0.3385009999997237
1252,25,0.5,0.0,-35.0,-1,1.0,0.1119010000002163
1253,25,0.5,0.0,35.0,1,1.0,1.4586010000002716
1254,25,0.5,0.125,35.0,1,1.0,0.2755010000000766
1255,25,0.5,0.25,-35.0,-1,1.0,0.24890099999993254
1256,25,0.5,0.125,35.0,-1,0.0,0.6356009999999515
1257,25,0.5,0.25,35.0,1,1.0,0.25580100000024686
1258,25,0.5,1.0,-35.0,-1,1.0,0.20590100000026723
1259,25,0.5,1.0,35.0,1,1.0,0.6627009999997426
1260,25,0.5,0.25,-35.0,-1,1.0,0.23940099999981612
1261,25,0.5,0.25,-35.0,-1,1.0,0.3563010000002578
1262,25,0.5,0.0625,35.0,1,1.0,0.343101000000388
1263,25,0.5,0.25,35.0,1,1.0,0.2831010000004426
1264,25,0.5,0.25,-35.0,-1,1.0,0.44340100000044913
1265,25,0.5,1.0,-35.0,-1,1.0,0.23350100000016027
1266,25,0.5,0.125,35.0,1,1.0,0.30690100000038
1267,25,0.5,0.125,-35.0,-1,1.0,0.27020100000027014
1268,25,0.5,0.125,35.0,1,1.0,1.8536010000002534
1269,25,0.5,0.0625,35.0,-1,0.0,1.8106010000001334
1270,25,0.5,0.25,35.0,1,1.0,0.22410100000024613
1271,25,0.5,0.0625,-35.0,-1,1.0,0.264100999999755
1272,25,0.5,0.125,35.0,1,1.0,0.6343010000000504
1273,25,0.5,0.125,-35.0,-1,1.0,0.27440100000012535
1274,25,0.5,0.25,-35.0,-1,1.0,0.3678010000003269
1275,25,0.5,1.0,35.0,1,1.0,0.27460100000007515
1276,25,0.5,0.0625,-35.0,-1,1.0,0.6515010000002803
1277,25,0.5,1.0,-35.0,-1,1.0,0.2183010000003378
1278,25,0.5,0.0625,35.0,1,1.0,2.1950010000000475
1279,25,0.5,0.0,35.0,-1,0.0,0.3118010000002869
1280,25,0.5,0.125,35.0,1,1.0,0.27860099999998056
1281,25,0.5,0.25,-35.0,-1,1.0,0.27540099999987433
1282,25,0.5,0.0,-35.0,1,0.0,0.3888010000000577
1283,25,0.5,0.25,-35.0,-1,1.0,0.2823009999997339
1284,25,0.5,1.0,35.0,1,1.0,0.2891010000003007
1285,25,0.5,0.0625,-35.0,-1,1.0,0.46590100000003076
1286,25,0.5,0.25,-35.0,-1,1.0,0.366001000000324
1287,25,0.5,0.25,35.0,1,1.0,1.9727010000001428
1288,25,0.5,0.0,35.0,-1,0.0,1.7929009999998016
1289,25,0.5,0.0625,35.0,1,1.0,0.22980099999995218
1290,25,0.5,0.25,35.0,1,1.0,0.30650100000002567
1291,25,0.5,1.0,35.0,1,1.0,0.20670100000006641
1292,25,0.5,0.0625,35.0,1,1.0,1.0767009999999573
1293,25,0.5,0.0625,35.0,1,1.0,0.35680100000035964
1294,25,0.5,0.0625,-35.0,-1,1.0,0.32690099999990707
1295,25,0.5,1.0,35.0,1,1.0,0.2637009999998554
1296,25,0.5,1.0,35.0,1,1.0,0.8839010000001508
1297,25,0.5,0.125,35.0,1,1.0,0.27390100000047823
1298,25,0.5,0.0,-35.0,-1,1.0,1.5708009999998467
1299,25,0.5,1.0,35.0,1,1.0,0.34090100000003076
1300,25,0.5,1.0,35.0,1,1.0,0.25430099999994127
1301,25,0.5,0.125,-35.0,-1,1.0,0.2677009999997608
1302,25,0.5,0.125,-35.0,-1,1.0,0.4778009999999995
1303,25,0.5,0.125,35.0,1,1.0,0.481300999999803
1304,25,0.5,0.0625,35.0,1,1.0,0.4880010000006223
1305,25,0.5,0.0,-35.0,-1,1.0,1.3515010000000984
1306,25,0.5,0.25,-35.0,-1,1.0,0.4783009999996466
1307,25,0.5,0.0,35.0,-1,0.0,2.5752010000001064
1308,25,0.4,0.0,-35.0,1,0.0,0.6121009999997113
1309,25,0.5,1.0,35.0,1,1.0,0.23240100000066377
1310,25,0.5,1.0,-35.0,-1,1.0,0.22240099999999074
1311,25,0.5,0.0,35.0,-1,0.0,0.16240099999959057
1312,25,0.5,0.0625,-35.0,-1,1.0,0.34920099999999366
1313,25,0.5,1.0,35.0,1,1.0,0.22930100000030507
1314,25,0.5,1.0,35.0,1,1.0,2.3095009999997274
1315,25,0.5,0.0,35.0,-1,0.0,0.6629009999996924
1316,25,0.4,0.0,35.0,-1,0.0,0.40650100000038947
1317,25,0.5,1.0,35.0,1,1.0,0.2732009999999718
1318,25,0.5,0.0625,35.0,1,1.0,0.2699009999996633
1319,25,0.5,0.0,35.0,1,1.0,0.480000999999902
1320,25,0.5,0.25,35.0,1,1.0,0.40690099999937956
1321,25,0.5,0.125,-35.0,-1,1.0,0.25030100000003586
1322,25,0.5,0.125,35.0,1,1.0,0.2939010000000053
1323,25,0.5,0.0,35.0,-1,0.0,0.3105009999999311
1324,25,0.5,0.25,35.0,1,1.0,0.34400100000038947
1325,25,0.5,1.0,-35.0,-1,1.0,1.110900999999103
1326,25,0.5,0.125,35.0,1,1.0,2.0509010000014314
1327,25,0.5,0.0625,-35.0,-1,1.0,0.307901000000129
1328,25,0.5,0.25,-35.0,-1,1.0,0.3012010000002192
1329,25,0.5,0.0625,35.0,1,1.0,0.46800100000018574
1330,25,0.5,0.0,35.0,-1,0.0,0.3013010000004215
1331,25,0.5,0.25,-35.0,-1,1.0,0.2814009999992777
1332,25,0.5,0.25,35.0,1,1.0,0.27160100000037346
1333,25,0.5,1.0,-35.0,-1,1.0,0.3251010000003589
1334,25,0.5,0.125,-35.0,-1,1.0,0.30840100000023085
1335,25,0.5,0.125,35.0,1,1.0,0.4785009999995964
1336,25,0.5,0.25,-35.0,-1,1.0,0.5387010000004011
1337,25,0.5,1.0,35.0,1,1.0,0.31210100000043894
1338,25,0.5,0.125,35.0,1,1.0,0.33900099999937083
1339,25,0.5,0.0625,-35.0,-1,1.0,0.3391009999995731
1340,25,0.5,0.0625,35.0,1,1.0,0.33900100000028033
1341,25,0.5,0.0625,-35.0,-1,1.0,0.12590100000034
1342,25,0.5,0.0625,-35.0,-1,1.0,0.49930099999983213
1343,25,0.5,0.25,-35.0,-1,1.0,1.5495010000004186
1344,25,0.5,0.125,35.0,1,1.0,1.616200999999819
1345,25,0.5,0.125,35.0,1,1.0,0.4097010000004957
1346,25,0.5,0.0,-35.0,1,0.0,0.42650099999991653
1347,25,0.6,0.0,-35.0,1,0.0,0.4267009999994116
1348,25,0.5,1.0,-35.0,-1,1.0,0.3001009999998132
1349,25,0.5,0.25,-35.0,-1,1.0,0.13020099999994272
1350,25,0.5,0.25,-35.0,-1,1.0,0.3137010000000373
1351,25,0.5,1.0,-35.0,-1,1.0,0.3072009999996226
1352,25,0.5,0.25,-35.0,-1,1.0,0.21710100000018429
1353,25,0.5,0.25,35.0,1,1.0,2.367301000000225
1354,25,0.5,0.125,-35.0,-1,1.0,0.2642009999999573
1355,25,0.5,0.0625,35.0,1,1.0,0.47430099999928643
1356,25,0.5,0.125,35.0,1,1.0,0.3343009999998685
1357,25,0.5,0.0,35.0,-1,0.0,0.2578010000006543
1358,25,0.5,0.25,35.0,1,1.0,0.24120099999981903
1359,25,0.5,0.0625,-35.0,-1,1.0,0.30470100000002276
1360,25,0.5,0.0,35.0,1,1.0,4.548100999999406
1361,25,0.5,1.0,35.0,1,1.0,0.2984010000000126
1362,25,0.5,0.25,35.0,1,1.0,0.265201000000161
1363,25,0.5,0.25,-35.0,-1,1.0,0.2453010000008362
1364,25,0.5,0.125,-35.0,-1,1.0,0.26540099999965605
1365,25,0.5,0.0625,35.0,-1,0.0,2.9487010000002556
1366,25,0.5,0.0625,35.0,1,1.0,0.4692009999998845
1367,25,0.5,1.0,-35.0,-1,1.0,0.21580099999937374
1368,25,0.5,1.0,35.0,1,1.0,1.6359010000005583
1369,25,0.5,0.25,35.0,1,1.0,0.2961009999989983
1370,25,0.5,0.25,35.0,1,1.0,0.4828010000001086
1371,25,0.5,0.25,35.0,1,1.0,0.39300100000036764
1372,25,0.5,1.0,35.0,1,1.0,0.2664009999998598
1373,25,0.5,0.0625,-35.0,-1,1.0,1.1999009999999544
1374,25,0.5,1.0,-35.0,-1,1.0,0.29000100000121165
1375,25,0.5,0.25,35.0,-1,0.0,3.633401000000049
1376,25,0.5,0.125,-35.0,-1,1.0,1.6771010000002207
1377,25,0.5,0.125,35.0,1,1.0,0.27720100000078673
1378,25,0.5,0.125,-35.0,-1,1.0,0.26390100000025996
1379,25,0.5,0.125,-35.0,-1,1.0,1.487500999999611
1380,25,0.5,0.0,-35.0,-1,1.0,3.0476010000002134
1381,25,0.5,0.0625,-35.0,-1,1.0,0.7077009999993606
1382,25,0.5,0.0625,35.0,1,1.0,0.12450100000023667
1383,25,0.5,0.125,-35.0,-1,1.0,0.15800099999978556
1384,25,0.5,0.125,35.0,1,1.0,0.3414010000005874
1385,25,0.5,1.0,35.0,1,1.0,0.34480099999927916
1386,25,0.5,0.25,35.0,-1,0.0,1.6984009999996488
1387,25,0.4,0.25,35.0,1,1.0,0.33200099999976374
1388,25,0.5,1.0,35.0,-1,0.0,0.11540100000001985
1389,25,0.5,0.125,-35.0,-1,1.0,0.21550100000058592
1390,25,0.5,0.125,35.0,1,1.0,0.29560099999980594
1391,25,0.5,0.0625,-35.0,-1,1.0,1.3657009999997172
1392,25,0.5,0.25,35.0,1,1.0,0.22940100000050734
1393,25,0.5,0.125,35.0,1,1.0,0.2759009999999762
1394,25,0.5,1.0,-35.0,-1,1.0,0.22270100000059756
1395,25,0.5,1.0,35.0,1,1.0,0.7264009999998962
1396,25,0.5,0.0625,-35.0,-1,1.0,1.53320100000019
1397,25,0.5,1.0,-35.0,-1,1.0,0.23330100000111997
1398,25,0.5,0.0625,35.0,-1,0.0,2.476701000000503
1399,25,0.4,0.0625,-35.0,-1,1.0,0.12380099999973027
1400,25,0.5,1.0,-35.0,-1,1.0,0.35370100000000093
1401,25,0.5,0.125,35.0,1,1.0,0.45730100000037055
1402,25,0.5,0.125,35.0,1,1.0,0.2740010000006805
1403,25,0.5,0.0625,-35.0,-1,1.0,0.5407010000008086
1404,25,0.5,0.0625,-35.0,-1,1.0,2.2375010000005204
1405,25,0.5,0.125,-35.0,-1,1.0,0.3677010000001246
1406,25,0.5,0.25,35.0,1,1.0,0.2979009999999107
1407,25,0.5,1.0,-35.0,-1,1.0,0.298001000000113
1408,25,0.5,0.0,-35.0,-1,1.0,0.8348009999999704
1409,25,0.5,0.125,-35.0,-1,1.0,0.29810100000031525
1410,25,0.5,0.25,35.0,-1,0.0,1.2750010000008842
1411,25,0.5,0.125,-35.0,-1,1.0,0.44510100000024977
1412,25,0.5,1.0,-35.0,-1,1.0,0.38860100000056264
1413,25,0.5,0.125,35.0,1,1.0,0.2553009999992355
1414,25,0.5,0.0625,35.0,-1,0.0,1.9821009999996022
1415,25,0.5,0.0625,35.0,1,1.0,0.5057010000000446
1416,25,0.5,0.25,-35.0,-1,1.0,0.18570099999942613
1417,25,0.5,0.0625,-35.0,-1,1.0,1.6159010000010312
1418,25,0.5,0.125,35.0,1,1.0,0.3627010000000155
1419,25,0.5,0.0,35.0,-1,0.0,1.5261010000003807
1420,25,0.3,0.0,-35.0,-1,1.0,0.47970100000020466
1421,25,0.5,1.0,35.0,1,1.0,0.2664009999998598
1422,25,0.5,0.125,35.0,1,1.0,1.5931009999994785
1423,25,0.5,0.125,35.0,1,1.0,0.39990099999977247
1424,25,0.5,1.0,35.0,1,1.0,0.28340100000059465
1425,25,0.5,0.25,-35.0,-1,1.0,0.32010100000024977
1426,25,0.5,0.125,-35.0,-1,1.0,0.39370099999996455
1427,25,0.5,1.0,35.0,1,1.0,0.213701000000583
1428,25,0.5,0.0625,-35.0,-1,1.0,0.23380099999940285
1429,25,0.5,1.0,35.0,1,1.0,0.27720100000078673
1430,25,0.5,0.25,35.0,1,1.0,0.45400100000006205
1431,25,0.5,0.0625,-35.0,-1,1.0,0.347501000000193
1432,25,0.5,0.0625,35.0,1,1.0,0.2777009999999791
1433,25,0.5,1.0,35.0,1,1.0,0.22430100000019593
1434,25,0.5,1.0,35.0,1,1.0,0.25770099999954255
1435,25,0.5,0.25,-35.0,-1,1.0,0.28120100000069215
1436,25,0.5,1.0,35.0,1,1.0,0.37460099999952945
1437,25,0.5,0.0625,-35.0,-1,1.0,0.3480010000002949
1438,25,0.5,1.0,-35.0,-1,1.0,0.8281010000000606
1439,25,0.5,0.25,35.0,1,1.0,0.2982010000005175
1440,25,0.5,0.0625,35.0,-1,0.0,0.08170100000006641
1441,25,0.5,0.125,-35.0,-1,1.0,0.9251009999998132
1442,25,0.5,0.125,35.0,1,1.0,0.4487009999993461
1443,25,0.5,0.0,-35.0,-1,1.0,0.43530100000043603
1444,25,0.5,0.0625,35.0,-1,0.0,2.4421009999996386
1445,25,0.5,0.0625,-35.0,-1,1.0,0.3825010000000475
1446,25,0.5,1.0,-35.0,-1,1.0,0.2726009999996677
1447,25,0.5,0.25,-35.0,-1,1.0,0.4528009999994538
1448,25,0.5,0.0625,35.0,1,1.0,0.8427009999995789
1449,25,0.5,0.0625,35.0,1,1.0,0.5562009999994189
1450,25,0.5,1.0,-35.0,-1,1.0,0.25960099999974773
1451,25,0.5,0.25,35.0,1,1.0,0.2597010000008595
1452,25,0.5,0.25,-35.0,-1,1.0,0.25320100000044476
1453,25,0.5,1.0,-35.0,-1,1.0,0.2200009999996837
1454,25,0.5,1.0,35.0,1,1.0,0.23010100000101374
1455,25,0.5,0.125,-35.0,-1,1.0,0.2968009999995047
1456,25,0.5,0.0,-35.0,-1,1.0,0.5103010000002541
1457,25,0.5,0.25,35.0,1,1.0,2.6204009999992195
1458,25,0.5,0.125,35.0,1,1.0,0.36390100000062375
1459,25,0.5,0.125,-35.0,-1,1.0,0.25070099999993545
1460,25,0.5,1.0,35.0,1,1.0,0.264100999999755
1461,25,0.5,0.25,35.0,-1,0.0,0.1542010000002847
1462,25,0.4,0.25,35.0,1,1.0,0.22430100000019593
1463,25,0.5,1.0,35.0,1,1.0,3.3978010000009817
1464,25,0.5,1.0,-35.0,-1,1.0,0.1979010000004564
1465,25,0.5,1.0,35.0,1,1.0,0.23490100000071834
1466,25,0.5,1.0,35.0,1,1.0,0.294901000000209
1467,25,0.5,1.0,-35.0,-1,1.0,0.23500100000001112
1468,25,0.5,0.125,35.0,1,1.0,0.3152010000003429
1469,25,0.5,0.0625,-35.0,-1,1.0,1.1086009999999078
1470,25,0.5,0.125,35.0,-1,0.0,3.7088009999997666
1471,25,0.5,0.0625,35.0,-1,0.0,2.465900999999576
1472,25,0.5,0.25,-35.0,-1,1.0,0.27600100000017846
1473,25,0.5,1.0,35.0,1,1.0,0.3563010000007125
1474,25,0.5,0.0625,35.0,-1,0.0,0.4796010000000024
1475,25,0.4,0.0625,35.0,1,1.0,0.2664009999998598
1476,25,0.5,1.0,-35.0,-1,1.0,0.2799009999998816
1477,25,0.5,1.0,35.0,1,1.0,0.23000100000081147
1478,25,0.5,0.25,-35.0,-1,1.0,0.5200009999998656
1479,25,0.5,0.125,35.0,1,1.0,2.043401000000813
1480,25,0.5,1.0,-35.0,-1,1.0,0.21030100000007224
1481,25,0.5,0.0,35.0,-1,0.0,1.6771010000002207
1482,25,0.4,0.0,-35.0,-1,1.0,2.0074009999998452
1483,25,0.5,1.0,35.0,1,1.0,0.0608009999996284
1484,25,0.5,0.25,35.0,1,1.0,0.38750100000015664
1485,25,0.5,0.25,35.0,1,1.0,2.8776010000001406
1486,25,0.5,1.0,-35.0,-1,1.0,0.23790099999951053
1487,25,0.5,0.0625,35.0,1,1.0,0.2380010000006223
1488,25,0.5,0.0625,-35.0,-1,1.0,0.34810099999958766
1489,25,0.5,0.125,35.0,1,1.0,0.8117009999996299
1490,25,0.5,0.125,-35.0,-1,1.0,0.4950009999993199
1491,25,0.5,0.125,35.0,1,1.0,0.7819010000002891
1492,25,0.5,0.0625,-35.0,-1,1.0,0.43530099999952654
1493,25,0.5,1.0,-35.0,-1,1.0,0.22870100000000093
1494,25,0.5,0.125,-35.0,-1,1.0,0.4122010000000955
1495,25,0.5,0.125,-35.0,-1,1.0,0.2656010000000606
1496,25,0.5,1.0,35.0,1,1.0,0.1957009999996444
1497,25,0.5,0.25,35.0,1,1.0,0.23590100000001257
1498,25,0.5,0.125,-35.0,-1,1.0,0.33270099999936065
1499,25,0.5,1.0,-35.0,-1,1.0,0.23940099999981612
1500,25,0.5,0.0625,-35.0,-1,1.0,2.976201000000401
1501,25,0.5,1.0,-35.0,-1,1.0,0.266301000000567
1502,25,0.5,0.0625,-35.0,-1,1.0,0.4097010000004957
1503,25,0.5,0.0,-35.0,-1,1.0,1.6099009999998088
1504,25,0.5,1.0,-35.0,-1,1.0,0.29330100000061066
1505,25,0.5,1.0,-35.0,-1,1.0,0.3534010000003036
1506,25,0.5,0.25,35.0,1,1.0,0.25030100000003586
1507,25,0.5,0.25,35.0,1,1.0,0.6604010000000926
1508,25,0.5,0.0625,35.0,-1,0.0,0.597301000000698
1509,25,0.5,0.125,-35.0,-1,1.0,0.29730100000051607
1510,25,0.5,0.0,35.0,-1,0.0,2.4041010000000824
1511,25,0.5,0.0625,35.0,1,1.0,0.6609010000001945
1512,25,0.5,1.0,-35.0,-1,1.0,0.22100099999988743
1513,25,0.5,0.125,-35.0,-1,1.0,0.4778009999999995
1514,25,0.5,0.25,-35.0,-1,1.0,0.28450099999918166
1515,25,0.5,0.0625,-35.0,-1,1.0,0.3414010000005874
1516,25,0.5,1.0,35.0,1,1.0,0.24810100000013335
1517,25,0.5,1.0,35.0,1,1.0,0.2616010000001552
1518,25,0.5,1.0,-35.0,-1,1.0,0.5218009999998685
1519,25,0.5,0.0625,-35.0,-1,1.0,0.575300999999854
1520,25,0.5,0.25,-35.0,-1,1.0,0.42530100000021775
1521,25,0.5,0.125,-35.0,-1,1.0,0.47200099999918166
1522,25,0.5,0.25,35.0,1,1.0,0.30880100000013044
1523,25,0.5,0.25,35.0,1,1.0,0.8823010000005524
1524,25,0.5,0.25,-35.0,-1,1.0,0.2457009999998263
1525,25,0.5,1.0,-35.0,-1,1.0,0.20590099999935774
1526,25,0.5,0.0625,-35.0,-1,1.0,6.232700999999906
1527,25,0.5,0.125,-35.0,-1,1.0,0.3030010000002221
1528,25,0.5,0.0625,35.0,1,1.0,0.3931010000005699
1529,25,0.5,0.25,35.0,1,1.0,0.3166009999995367
1530,25,0.5,1.0,-35.0,-1,1.0,0.45000099999924714
1531,25,0.5,1.0,35.0,1,1.0,0.44010100000014063
1532,25,0.5,0.25,-35.0,-1,1.0,0.7703010000004724
1533,25,0.5,1.0,35.0,1,1.0,0.28050100000109524
1534,25,0.5,0.0625,-35.0,-1,1.0,0.36720100000093225
1535,25,0.5,0.0,-35.0,1,0.0,1.4240010000003167
1536,25,0.5,0.0,-35.0,-1,1.0,0.6376009999994494
1537,25,0.5,0.125,-35.0,-1,1.0,0.2744009999996706
1538,25,0.5,0.25,35.0,1,1.0,0.6010009999999966
1539,25,0.5,1.0,35.0,1,1.0,0.3513010000006034
1540,25,0.5,0.25,35.0,1,1.0,0.5779010000005655
1541,25,0.5,0.25,35.0,1,1.0,0.27820100000008097
1542,25,0.5,0.0625,35.0,1,1.0,0.32500100000015664
1543,25,0.5,1.0,35.0,1,1.0,0.23160099999950035
1544,25,0.5,0.0625,35.0,1,1.0,0.5919009999988702
1545,25,0.5,1.0,35.0,1,1.0,0.2752010000003793
1546,25,0.5,0.0625,-35.0,1,0.0,0.3421009999992748
1547,25,0.5,0.25,35.0,1,1.0,0.2622010000004593
1548,25,0.5,1.0,35.0,1,1.0,0.309001000000535
1549,25,0.5,1.0,35.0,1,1.0,0.3357009999999718
1550,25,0.5,0.0625,-35.0,-1,1.0,0.3126010000005408
1551,25,0.5,0.125,35.0,1,1.0,0.2759009999999762
1552,25,0.5,0.0625,35.0,1,1.0,0.516100999999253
1553,25,0.5,0.25,-35.0,-1,1.0,0.23960100000022067
1554,25,0.5,0.125,35.0,1,1.0,0.3696009999994203
1555,25,0.5,0.125,35.0,1,1.0,0.3498010000002978
1556,25,0.5,0.25,35.0,1,1.0,0.2766010000004826
1557,25,0.5,0.25,35.0,1,1.0,0.23000100000081147
1558,25,0.5,0.0625,-35.0,-1,1.0,0.9067009999998845
1559,25,0.5,0.125,35.0,1,1.0,0.31020099999932427
1560,25,0.5,1.0,-35.0,-1,1.0,0.25370100000054663
1561,25,0.5,0.25,-35.0,-1,1.0,0.28710099999989325
1562,25,0.5,1.0,35.0,1,1.0,0.2905009999994945
1563,25,0.5,0.25,35.0,1,1.0,0.45730100000037055
1564,25,0.5,0.0625,-35.0,-1,1.0,0.38740099999995437
1565,25,0.5,0.125,-35.0,-1,1.0,0.35410100000081
1566,25,0.5,0.0625,35.0,1,1.0,0.46430099999997765
1567,25,0.5,0.0625,35.0,-1,0.0,1.4412010000005466
1568,25,0.4,0.0625,35.0,1,1.0,0.301300999999512
1569,25,0.5,1.0,35.0,1,1.0,0.25810100000035163
1570,25,0.5,0.0,-35.0,-1,1.0,0.5681009999998423
1571,25,0.5,0.125,35.0,1,1.0,0.26830100000097445
1572,25,0.5,0.0,-35.0,1,0.0,1.3850010000005568
1573,25,0.5,0.0625,35.0,1,1.0,0.33190100000047096
1574,25,0.5,0.125,35.0,1,1.0,0.3821010000001479
1575,25,0.5,0.0625,35.0,1,1.0,1.9554010000001654
1576,25,0.5,0.125,-35.0,-1,1.0,0.3089009999994232
1577,25,0.5,0.25,-35.0,-1,1.0,0.26900099999966187
1578,25,0.5,0.0625,35.0,1,1.0,0.36910100000022794
1579,25,0.5,0.0625,-35.0,-1,1.0,0.2725010000003749
1580,25,0.5,0.0625,35.0,-1,0.0,1.0760009999994509
1581,25,0.6,0.0625,-35.0,-1,1.0,0.4762010000004011
1582,25,0.5,1.0,35.0,1,1.0,0.4630010000000766
1583,25,0.5,0.25,35.0,1,1.0,0.413101000000097
1584,25,0.5,0.25,-35.0,-1,1.0,0.5899010000002818
1585,25,0.5,0.25,35.0,1,1.0,0.40330100000028324
1586,25,0.5,0.25,35.0,-1,0.0,2.2900009999993927
1587,25,0.5,0.0,-35.0,-1,1.0,4.830401000000165
1588,25,0.5,0.0,35.0,1,1.0,1.4573010000003705
1589,25,0.5,0.125,35.0,1,1.0,0.27750100000048405
1590,25,0.5,0.0625,35.0,1,1.0,0.3677010000001246
1591,25,0.5,1.0,35.0,1,1.0,0.22790099999929225
1592,25,0.5,1.0,35.0,1,1.0,0.25110099999983504
1593,25,0.5,1.0,35.0,1,1.0,0.23450100000081875
1594,25,0.5,0.125,-35.0,-1,1.0,0.2545010000003458
1595,25,0.5,1.0,35.0,1,1.0,0.36140099999920494
1596,25,0.5,0.0625,-35.0,-1,1.0,0.7715010000010807
1597,25,0.5,1.0,-35.0,-1,1.0,0.23500100000001112
1598,25,0.5,0.125,35.0,1,1.0,0.33190100000047096
1599,25,0.5,1.0,-35.0,-1,1.0,0.22520100000019738
1600,25,0.5,0.0,-35.0,1,0.0,0.3887010000007649
1601,25,0.6,0.0,-35.0,-1,1.0,4.048901000000114
1602,25,0.5,1.0,35.0,1,1.0,0.3524010000000999
1603,25,0.5,1.0,-35.0,-1,1.0,0.21250099999997474
1604,25,0.5,0.25,35.0,1,1.0,0.44260100000064995
1605,25,0.5,0.0625,35.0,1,1.0,0.42270100000041566
1606,25,0.5,0.25,-35.0,-1,1.0,0.449400999998943
1607,25,0.5,0.0625,-35.0,-1,1.0,0.619501000001037
1608,25,0.5,1.0,-35.0,-1,1.0,0.24630100000013044
1609,25,0.5,0.25,35.0,1,1.0,0.26980100000037055
1610,25,0.5,1.0,35.0,1,1.0,0.09650099999998929
1611,25,0.5,1.0,-35.0,-1,1.0,1.0000010000003385
1612,25,0.5,1.0,35.0,1,1.0,0.18010099999901286
1613,25,0.5,0.0625,-35.0,-1,1.0,0.3269010000003618
1614,25,0.5,1.0,35.0,1,1.0,0.4204010000003109
1615,25,0.5,0.0625,-35.0,-1,1.0,1.7338010000003123
1616,25,0.5,0.125,-35.0,-1,1.0,0.2774010000002818
1617,25,0.5,0.25,-35.0,-1,1.0,0.4409009999999398
1618,25,0.5,0.0625,-35.0,-1,1.0,0.3042009999999209
1619,25,0.5,0.125,35.0,1,1.0,1.8445010000004913
1620,25,0.5,0.125,35.0,1,1.0,0.2781009999998787
1621,25,0.5,0.0625,-35.0,-1,1.0,0.2681009999996604
1622,25,0.5,0.0625,35.0,1,1.0,0.2814009999992777
1623,25,0.5,0.0625,-35.0,-1,1.0,0.04150099999969825
1624,25,0.5,0.125,35.0,1,1.0,0.48150100000020757
1625,25,0.5,0.25,-35.0,-1,1.0,0.26180099999965023
1626,25,0.5,0.25,35.0,1,1.0,0.3785010000001421
1627,25,0.5,0.25,35.0,1,1.0,0.3354010000002745
1628,25,0.5,0.125,-35.0,-1,1.0,0.19220099999984086
1629,25,0.5,0.25,35.0,1,1.0,0.3755009999995309
1630,25,0.5,0.25,-35.0,-1,1.0,0.42900100000042585
1631,25,0.5,0.0625,35.0,1,1.0,0.9892010000003211
1632,25,0.5,0.25,-35.0,-1,1.0,0.2560009999997419
1633,25,0.5,0.125,-35.0,-1,1.0,0.6194009999999253
1634,25,0.5,0.25,35.0,1,1.0,0.9129009999996924
1635,25,0.5,1.0,35.0,1,1.0,0.2898010000008071
1636,25,0.5,0.25,35.0,1,1.0,1.0065009999998438
1637,25,0.5,1.0,35.0,1,1.0,2.7698010000003705
1638,25,0.5,0.25,35.0,1,1.0,0.23020100000030652
1639,25,0.5,0.25,35.0,1,1.0,3.3903010000003633
1640,25,0.5,0.125,-35.0,-1,1.0,0.27710100000058446
1641,25,0.5,0.25,-35.0,-1,1.0,0.2406009999995149
1642,25,0.5,0.25,-35.0,-1,1.0,0.2806009999994785
1643,25,0.5,0.0625,35.0,-1,0.0,0.22750099999939266
1644,25,0.5,0.0625,-35.0,-1,1.0,0.6010010000009061
1645,25,0.5,1.0,35.0,1,1.0,0.3211010000004535
1646,25,0.5,1.0,-35.0,-1,1.0,0.3813010000003487
1647,25,0.5,0.0625,-35.0,-1,1.0,2.8147010000011505
1648,25,0.5,0.25,35.0,1,1.0,0.22840099999939412
1649,25,0.5,0.0,-35.0,-1,1.0,1.4284009999992122
1650,25,0.5,0.25,-35.0,-1,1.0,0.16540100000020175
1651,25,0.5,0.25,35.0,1,1.0,5.455401000000165
1652,25,0.5,0.0,-35.0,-1,1.0,3.2322009999998045
1653,25,0.5,0.0,-35.0,-1,1.0,2.7290010000006077
1654,25,0.5,1.0,35.0,1,1.0,0.28260099999988597
1655,25,0.5,0.125,-35.0,-1,1.0,1.3994009999996706
1656,25,0.5,0.25,35.0,1,1.0,0.5328010000002905
1657,25,0.5,0.125,-35.0,-1,1.0,0.6565010000003895
1658,25,0.5,0.25,-35.0,-1,1.0,0.39330100000097445
1659,25,0.5,1.0,35.0,1,1.0,0.25690100000065286
1660,25,0.5,0.25,35.0,-1,0.0,4.840200999999979
1661,25,0.5,0.0625,-35.0,1,0.0,0.7539010000000417
1662,25,0.5,0.0,-35.0,1,0.0,0.4641010000004826
1663,25,0.5,0.125,-35.0,-1,1.0,0.47420099999999366
1664,25,0.5,1.0,35.0,1,1.0,0.4145010000002003
1665,25,0.5,1.0,35.0,1,1.0,0.28120100000069215
1666,25,0.5,0.25,35.0,1,1.0,1.664600999999493
1667,25,0.5,1.0,-35.0,-1,1.0,0.211500999999771
1668,25,0.5,0.125,-35.0,-1,1.0,0.5582009999998263
1669,25,0.5,0.25,-35.0,-1,1.0,0.4350010000007387
1670,25,0.5,0.0,-35.0,-1,1.0,1.4352010000002338
1671,25,0.5,0.125,35.0,1,1.0,2.8686010000010356
1672,25,0.5,0.125,35.0,1,1.0,0.30210100000022067
1673,25,0.5,0.0625,-35.0,-1,1.0,0.4689010000001872
1674,25,0.5,0.0625,35.0,-1,0.0,2.905700999999681
1675,25,0.5,0.0,-35.0,-1,1.0,1.6960009999993417
1676,25,0.5,0.0625,-35.0,-1,1.0,0.4561010000006718
1677,25,0.5,0.0625,-35.0,-1,1.0,0.3263010000009672
1678,25,0.5,0.25,-35.0,-1,1.0,2.56300100000135
1679,25,0.5,0.25,35.0,-1,0.0,3.696700999999848
1680,25,0.5,0.25,35.0,1,1.0,0.3936010000006718
1681,25,0.5,1.0,35.0,1,1.0,0.24370099999941885
1682,25,0.5,0.0625,35.0,1,1.0,0.6271010000000388
1683,25,0.5,0.125,35.0,1,1.0,0.9107009999997899
1684,25,0.5,0.25,35.0,1,1.0,1.607401000000209
1685,25,0.5,1.0,-35.0,-1,1.0,0.2942009999997026
1686,25,0.5,1.0,35.0,1,1.0,0.2509009999994305
1687,25,0.5,0.125,35.0,1,1.0,0.37430099999983213
1688,25,0.5,0.125,35.0,1,1.0,0.3045009999996182
1689,25,0.5,0.0,35.0,-1,0.0,0.37790099999983795
1690,25,0.5,0.25,35.0,1,1.0,0.36140100000011444
1691,25,0.5,1.0,-35.0,-1,1.0,0.22160099999928207
1692,25,0.5,0.125,35.0,1,1.0,2.075000999999247
1693,25,0.5,0.125,-35.0,-1,1.0,0.3185009999997419
1694,25,0.5,0.0625,35.0,1,1.0,1.4653010000001814
1695,25,0.5,1.0,35.0,1,1.0,0.5253009999996721
1696,25,0.5,0.25,-35.0,-1,1.0,1.0589010000003327
1697,25,0.5,0.0625,35.0,-1,0.0,1.9691009999996822
1698,25,0.5,0.0625,35.0,1,1.0,0.49590099999932136
1699,25,0.5,0.25,35.0,1,1.0,1.5960009999998874
1700,25,0.5,1.0,35.0,1,1.0,1.876100999999835
1701,25,0.5,0.125,35.0,1,1.0,0.4063010000008944
1702,25,0.5,1.0,35.0,1,1.0,0.6199010000000271
1703,25,0.5,0.125,35.0,1,1.0,0.3133010000010472
1704,25,0.5,0.125,35.0,1,1.0,0.39340100000026723
1705,25,0.5,0.0,-35.0,1,0.0,4.423501000000215
1706,25,0.5,0.25,35.0,1,1.0,0.7238010000000941
1707,25,0.5,0.0625,-35.0,-1,1.0,1.8806009999998423
1708,25,0.5,1.0,35.0,-1,0.0,2.3474010000009002
1709,25,0.5,0.0,35.0,1,1.0,3.631201000001056
1710,25,0.5,0.25,-35.0,-1,1.0,1.4781009999996968
1711,25,0.5,0.0625,-35.0,-1,1.0,0.2884009999997943
1712,25,0.5,0.0625,-35.0,-1,1.0,0.3118010000007416
1713,25,0.5,0.0625,35.0,-1,0.0,1.1386010000005626
1714,25,0.4,0.0625,-35.0,-1,1.0,1.225401000000602
1715,25,0.5,1.0,35.0,1,1.0,0.2424010000004273
1716,25,0.5,0.0,-35.0,-1,1.0,0.0424010000006092
1717,25,0.5,1.0,35.0,1,1.0,0.2626010000003589
1718,25,0.5,0.0625,35.0,1,1.0,0.5793009999997594
1719,25,0.5,0.25,-35.0,-1,1.0,2.0494010000002163
1720,25,0.5,0.0,35.0,-1,0.0,0.43630099999973027
1721,25,0.5,0.125,-35.0,-1,1.0,0.3697010000005321
1722,25,0.5,0.0,-35.0,-1,1.0,2.499800999999934
1723,25,0.5,0.25,35.0,-1,0.0,0.09670100000039383
1724,25,0.3,0.25,35.0,1,1.0,0.48010100000010425
1725,25,0.5,1.0,-35.0,-1,1.0,0.30030100000021775
1726,25,0.5,0.0625,-35.0,-1,1.0,0.9370010000011462
1727,25,0.5,1.0,-35.0,-1,1.0,0.5705010000001494
1728,25,0.5,0.25,-35.0,-1,1.0,3.6140009999999165
1729,25,0.5,0.125,-35.0,-1,1.0,2.3544010000005073
1730,25,0.5,1.0,-35.0,-1,1.0,0.23120099999960075
1731,25,0.5,0.0625,35.0,-1,0.0,0.6046010000000024
1732,25,0.1,0.0625,35.0,-1,0.0,0.44810099999995145
1733,25,0.5,1.0,35.0,1,1.0,0.2516009999999369
1734,25,0.5,0.25,-35.0,-1,1.0,0.35840099999950326
1735,25,0.5,1.0,-35.0,-1,1.0,0.265201000000161
1736,25,0.5,0.25,35.0,-1,0.0,2.6919010000001435
1737,25,0.5,0.0625,35.0,1,1.0,0.2622009999995498
1738,25,0.5,0.0625,35.0,-1,0.0,1.6623010000002978
1739,25,0.2,0.0625,35.0,1,1.0,0.39260100000046805
1740,25,0.5,1.0,-35.0,-1,1.0,0.2193009999991773
1741,25,0.5,0.125,35.0,1,1.0,0.3828010000006543
1742,25,0.5,0.125,35.0,1,1.0,2.419600999999602
1743,25,0.5,0.25,35.0,1,1.0,0.5067010000002483
1744,25,0.5,0.0625,35.0,1,1.0,0.2233010000009017
1745,25,0.5,0.125,-35.0,-1,1.0,3.443401000000449
1746,25,0.5,0.25,35.0,1,1.0,0.2504010000002381
1747,25,0.5,0.25,35.0,-1,0.0,2.477201000000605
1748,25,0.5,0.0,35.0,-1,0.0,0.4774010000000999
1749,25,0.5,0.125,35.0,-1,0.0,5.237500999999611
1750,25,0.5,0.125,-35.0,-1,1.0,1.47780099999909
1751,25,0.5,1.0,35.0,1,1.0,0.3447009999999864
1752,25,0.5,0.0625,-35.0,-1,1.0,0.3247009999995498
1753,25,0.5,0.25,35.0,1,1.0,0.2248010000002978
1754,25,0.5,0.25,35.0,1,1.0,0.44510100000024977
1755,25,0.5,0.0625,35.0,-1,0.0,3.311901000000944
1756,25,0.5,0.125,35.0,1,1.0,0.44220100000075035
1757,25,0.5,0.0,-35.0,-1,1.0,0.9389010000004419
1758,25,0.5,0.125,-35.0,-1,1.0,6.1091009999991
1759,25,0.5,0.125,-35.0,-1,1.0,0.32270100000005186
1760,25,0.5,0.25,35.0,-1,0.0,4.143001000000368
1761,25,0.5,0.0625,35.0,-1,0.0,0.40990099999999074
1762,25,0.5,0.0625,35.0,-1,0.0,5.916701000000103
1763,25,0.3,0.0625,35.0,1,1.0,3.6705009999996037
1764,25,0.5,1.0,35.0,1,1.0,4.764100999999755
1765,25,0.5,0.0625,35.0,1,1.0,3.931101000000126
1766,25,0.5,0.0625,35.0,-1,0.0,6.261601000001065
1767,25,0.5,0.25,-35.0,-1,1.0,0.22860099999979866
1768,25,0.5,0.25,35.0,1,1.0,1.3087009999999282
1769,25,0.5,0.0625,35.0,-1,0.0,1.2856009999995877
1770,25,0.5,0.0625,-35.0,-1,1.0,4.855800999999701
1771,25,0.5,0.0625,-35.0,-1,1.0,3.4695010000004913
1772,25,0.5,1.0,35.0,1,1.0,0.7863010000000941
1773,25,0.5,0.0625,35.0,-1,0.0,5.529900999999882
1774,25,0.5,0.0625,-35.0,-1,1.0,0.12350100000094244
1775,25,0.5,0.125,35.0,-1,0.0,12.433700999999019
1776,25,0.2,0.125,35.0,-1,0.0,6.300900999999612
1777,25,0.5,1.0,35.0,1,1.0,7.031300999999985
1778,25,0.5,0.0,-35.0,-1,1.0,6.3750010000003385
1779,25,0.5,1.0,-35.0,-1,1.0,0.3789010000000417
1780,25,0.5,0.125,-35.0,-1,1.0,4.37550100000044
1781,25,0.5,1.0,35.0,1,1.0,6.739300999999614
1782,25,0.5,1.0,35.0,1,1.0,13.699601000000257
1783,25,0.5,0.125,-35.0,-1,1.0,1.1969010000011622
1784,25,0.5,0.0625,35.0,-1,0.0,20.513700999999855
1785,25,0.5,0.0625,-35.0,-1,1.0,10.221400999999787
1786,25,0.5,0.25,-35.0,1,0.0,13.465301000000181
1787,25,0.5,0.125,-35.0,1,0.0,3.2792020000006232
1788,25,0.4,0.125,35.0,-1,0.0,8.032702000000427
1789,25,0.5,1.0,-35.0,1,0.0,29.78320200000053
1790,25,0.5,0.25,35.0,-1,0.0,52.81120199999987
1791,25,0.5,0.0625,35.0,-1,0.0,39.7034020000001
1792,25,0.5,0.25,-35.0,-1,1.0,10.578402000001006
1793,25,0.5,0.0625,-35.0,-1,1.0,31.55890200000067
1794,25,0.5,0.0,35.0,-1,0.0,9.026901999999609
1795,25,0.3,0.0,35.0,-1,0.0,16.987301999999545
1796,25,0.5,1.0,-35.0,-1,1.0,6.004802000000382
1797,25,0.5,0.0625,35.0,-1,0.0,13.351702000000842
1798,25,0.5,0.25,-35.0,1,0.0,4.57560199999989
1799,25,0.2,0.25,35.0,-1,0.0,22.24930200000017
1800,25,0.5,1.0,-35.0,-1,1.0,22.97370200000023
1,26,0.5,0.0625,35.0,1,1.0,2.6565999999999996
2,26,0.5,0.25,35.0,1,1.0,0.19159999999999933
3,26,0.5,0.125,35.0,1,1.0,5.4717
4,26,0.5,1.0,-35.0,-1,1.0,3.7878000000000007
5,26,0.5,0.25,35.0,1,1.0,0.2586000000000013
6,26,0.5,0.25,35.0,1,1.0,4.465600000000002
7,26,0.5,0.25,35.0,1,1.0,0.5178000000000011
8,26,0.5,0.0625,35.0,1,1.0,3.6163000000000025
9,26,0.5,0.125,35.0,1,1.0,1.9775000000000063
10,26,0.5,0.125,35.0,1,1.0,2.5131999999999977
11,26,0.5,1.0,35.0,1,1.0,0.4142999999999972
12,26,0.5,0.25,-35.0,1,0.0,3.0752999999999986
13,26,0.9,0.25,-35.0,-1,1.0,0.5285000000000011
14,26,0.5,1.0,-35.0,-1,1.0,0.3766000000000034
15,26,0.5,0.25,35.0,1,1.0,2.894599999999997
16,26,0.5,0.25,-35.0,-1,1.0,0.5198000000000036
17,26,0.5,0.25,35.0,1,1.0,1.9840000000000089
18,26,0.5,0.0625,-35.0,-1,1.0,0.8629999999999995
19,26,0.5,0.0,35.0,1,1.0,2.3211000000000013
20,26,0.5,0.0,-35.0,1,0.0,2.468900000000005
21,26,0.5,0.0,35.0,1,1.0,0.6472999999999871
22,26,0.5,1.0,35.0,1,1.0,0.3387000000000029
23,26,0.5,1.0,35.0,1,1.0,0.4327999999999861
24,26,0.5,0.0625,35.0,1,1.0,6.676200000000009
25,26,0.5,0.0625,-35.0,1,0.0,3.082000000000008
26,26,0.5,0.125,35.0,1,1.0,0.3941999999999979
27,26,0.5,1.0,35.0,1,1.0,0.18269999999999698
28,26,0.5,0.0,35.0,1,1.0,0.7968999999999937
29,26,0.5,0.125,-35.0,-1,1.0,0.5678999999999945
30,26,0.5,0.0,35.0,1,1.0,2.6698999999999984
31,26,0.5,0.25,35.0,1,1.0,2.421599999999998
32,26,0.5,0.0625,-35.0,1,0.0,2.557900000000018
33,26,0.5,0.25,-35.0,-1,1.0,0.3107000000000255
34,26,0.5,0.25,35.0,1,1.0,0.49569999999997094
35,26,0.5,0.0625,-35.0,-1,1.0,3.606899999999996
36,26,0.5,1.0,35.0,1,1.0,0.09080000000000155
37,26,0.5,0.0,-35.0,-1,1.0,3.5926999999999794
38,26,0.5,0.125,35.0,1,1.0,2.534400000000005
39,26,0.5,1.0,-35.0,-1,1.0,1.1423999999999808
40,26,0.5,0.0,-35.0,1,0.0,1.5418999999999983
41,26,0.5,0.0,-35.0,-1,1.0,0.397199999999998
42,26,0.5,0.25,-35.0,1,0.0,0.1922999999999888
43,26,0.5,0.25,-35.0,-1,1.0,0.4696999999999889
44,26,0.5,0.25,35.0,1,1.0,0.2974999999999852
45,26,0.5,0.0625,-35.0,-1,1.0,1.411200000000008
46,26,0.5,0.125,-35.0,-1,1.0,0.8828000000000031
47,26,0.5,0.0,-35.0,1,0.0,3.6012999999999806
48,26,0.5,0.0,35.0,-1,0.0,2.1059000000000196
49,26,0.4,0.0,35.0,1,1.0,1.528899999999993
50,26,0.5,1.0,35.0,1,1.0,0.23120000000000118
51,26,0.5,1.0,-35.0,-1,1.0,0.27299999999999613
52,26,0.5,0.0625,35.0,1,1.0,0.555499999999995
53,26,0.5,0.0625,-35.0,1,0.0,2.9828999999999724
54,26,0.5,0.25,35.0,1,1.0,0.19089999999999918
55,26,0.5,0.125,35.0,1,1.0,0.2768999999999835
56,26,0.5,1.0,-35.0,-1,1.0,0.2219000000000051
57,26,0.5,0.0625,35.0,1,1.0,0.4210999999999956
58,26,0.5,1.0,-35.0,-1,1.0,0.6428999999999689
59,26,0.5,1.0,35.0,1,1.0,0.30279999999999063
60,26,0.5,0.25,-35.0,-1,1.0,0.252900000000011
61,26,0.5,1.0,35.0,1,1.0,0.21639999999999304
62,26,0.5,0.0625,35.0,1,1.0,0.3400999999999783
63,26,0.5,1.0,35.0,1,1.0,0.22759999999999536
64,26,0.5,0.0625,35.0,1,1.0,0.25440000000000396
65,26,0.5,0.125,35.0,1,1.0,0.31090000000000373
66,26,0.5,0.0,-35.0,1,0.0,0.35820000000001073
67,26,0.5,0.25,35.0,1,1.0,0.23609999999999332
68,26,0.5,0.0,-35.0,1,0.0,0.3727000000000089
69,26,0.5,0.125,-35.0,-1,1.0,0.32900000000000773
70,26,0.5,0.25,35.0,1,1.0,0.18600000000000705
71,26,0.5,0.0,35.0,-1,0.0,0.37630000000001473
72,26,0.8,0.0,-35.0,-1,1.0,9.85609999999997
73,26,0.5,1.0,-35.0,-1,1.0,0.06059999999996535
74,26,0.5,0.0625,-35.0,-1,1.0,0.4083999999999719
75,26,0.5,0.25,35.0,1,1.0,0.24490000000002965
76,26,0.5,0.125,-35.0,-1,1.0,0.24209999999999354
77,26,0.5,1.0,35.0,1,1.0,0.20330000000001291
78,26,0.5,0.25,-35.0,-1,1.0,0.44219999999995707
79,26,0.5,1.0,35.0,1,1.0,0.22809999999998354
80,26,0.5,0.125,-35.0,-1,1.0,0.23469999999997526
81,26,0.5,0.25,-35.0,-1,1.0,0.10230000000001382
82,26,0.5,0.0625,-35.0,-1,1.0,0.3503999999999792
83,26,0.5,0.25,-35.0,-1,1.0,0.29620000000005575
84,26,0.5,1.0,-35.0,-1,1.0,1.5184999999999604
85,26,0.5,0.25,35.0,1,1.0,0.42549999999999955
86,26,0.5,0.25,35.0,1,1.0,0.27530000000001564
87,26,0.5,0.0,-35.0,-1,1.0,0.2869000000000028
88,26,0.5,1.0,35.0,1,1.0,0.2185000000000059
89,26,0.5,0.125,35.0,1,1.0,0.2715000000000032
90,26,0.5,0.125,35.0,1,1.0,0.2729999999999677
91,26,0.5,0.25,35.0,1,1.0,0.29270000000002483
92,26,0.5,0.125,35.0,1,1.0,0.23270000000002256
93,26,0.5,1.0,35.0,1,1.0,0.18780000000003838
94,26,0.5,0.125,-35.0,-1,1.0,0.280399999999986
95,26,0.5,1.0,-35.0,-1,1.0,0.20350000000001955
96,26,0.5,0.0,-35.0,-1,1.0,2.956800000000044
97,26,0.5,0.125,-35.0,-1,1.0,0.3043999999999869
98,26,0.5,0.0,-35.0,-1,1.0,1.7965000000000373
99,26,0.5,1.0,-35.0,-1,1.0,0.226600000000019
100,26,0.5,0.0625,-35.0,-1,1.0,0.2533000000000243
101,26,0.5,0.125,-35.0,-1,1.0,0.4198000000000093
102,26,0.5,0.25,-35.0,-1,1.0,0.2547999999999888
103,26,0.5,0.125,-35.0,-1,1.0,0.23759999999998627
104,26,0.5,0.0,-35.0,-1,1.0,1.1895999999999844
105,26,0.5,1.0,35.0,1,1.0,0.27129999999999654
106,26,0.5,1.0,-35.0,-1,1.0,0.226600000000019
107,26,0.5,1.0,35.0,1,1.0,0.20629999999999882
108,26,0.5,1.0,35.0,1,1.0,0.23129999999997608
109,26,0.5,1.0,35.0,1,1.0,0.2328000000000543
110,26,0.5,0.125,35.0,-1,0.0,1.6564000000000192
111,26,0.5,0.125,35.0,1,1.0,0.3002999999999929
112,26,0.5,0.0,35.0,-1,0.0,0.7452999999999861
113,26,0.5,0.25,35.0,1,1.0,0.2533000000000243
114,26,0.5,1.0,35.0,1,1.0,0.42140000000000555
115,26,0.5,1.0,-35.0,-1,1.0,0.2925999999999931
116,26,0.5,0.25,-35.0,-1,1.0,0.21710000000001628
117,26,0.5,0.0625,35.0,1,1.0,0.4481000000000108
118,26,0.5,1.0,-35.0,-1,1.0,1.850500000000011
119,26,0.5,1.0,-35.0,-1,1.0,0.2833999999999719
120,26,0.5,0.125,-35.0,-1,1.0,0.30139999999994416
121,26,0.5,1.0,35.0,1,1.0,0.3754000000000133
122,26,0.5,0.125,-35.0,-1,1.0,0.49840000000000373
123,26,0.5,0.0625,-35.0,-1,1.0,1.666499999999985
124,26,0.5,0.0,-35.0,-1,1.0,0.3676999999999566
125,26,0.5,0.125,35.0,1,1.0,0.5253000000000156
126,26,0.5,1.0,35.0,1,1.0,0.34979999999995925
127,26,0.5,0.125,-35.0,-1,1.0,0.46889999999996235
128,26,0.5,0.25,-35.0,-1,1.0,0.34859999999997626
129,26,0.5,0.0625,35.0,1,1.0,0.28340000000002874
130,26,0.5,0.0625,35.0,1,1.0,1.8564999999999827
131,26,0.5,0.0625,35.0,1,1.0,0.4130999999999858
132,26,0.5,0.0,35.0,1,1.0,3.807199999999966
133,26,0.5,0.0,-35.0,1,0.0,0.5926000000000045
134,26,0.7,0.0,35.0,-1,0.0,4.310599999999965
135,26,0.5,1.0,-35.0,-1,1.0,0.21090000000003783
136,26,0.5,1.0,-35.0,-1,1.0,0.22649999999998727
137,26,0.5,0.0,35.0,-1,0.0,5.478499999999997
138,26,0.5,0.125,35.0,1,1.0,0.297300000000007
139,26,0.5,0.0625,-35.0,-1,1.0,0.45980000000002974
140,26,0.5,1.0,-35.0,-1,1.0,0.38479999999998427
141,26,0.5,0.25,-35.0,-1,1.0,0.29359999999996944
142,26,0.5,0.125,35.0,1,1.0,0.28139999999996235
143,26,0.5,0.0,35.0,-1,0.0,10.23090000000002
144,26,0.5,0.125,35.0,1,1.0,0.28829999999999245
145,26,0.5,0.125,-35.0,-1,1.0,0.5079999999999814
146,26,0.5,0.0,-35.0,1,0.0,0.44980000000003884
147,26,0.5,0.0625,-35.0,-1,1.0,0.35400000000004184
148,26,0.5,0.125,35.0,1,1.0,0.21479999999996835
149,26,0.5,0.0625,-35.0,1,0.0,5.093000000000075
150,26,0.5,0.0625,-35.0,-1,1.0,0.30989999999997053
151,26,0.5,1.0,35.0,1,1.0,0.2277000000000271
152,26,0.5,0.125,35.0,1,1.0,0.3925000000000409
153,26,0.5,1.0,35.0,1,1.0,0.3348000000000866
154,26,0.5,0.0625,35.0,1,1.0,0.3351000000000113
155,26,0.5,0.25,35.0,1,1.0,0.32000000000005
156,26,0.5,0.25,-35.0,-1,1.0,0.26129999999989195
157,26,0.5,0.125,-35.0,-1,1.0,0.2924999999999045
158,26,0.5,0.25,-35.0,-1,1.0,4.020600000000059
159,26,0.5,0.25,-35.0,-1,1.0,3.832899999999995
160,26,0.5,0.0625,-35.0,-1,1.0,0.8201009999999087
161,26,0.5,0.0,35.0,1,1.0,0.44430099999999584
162,26,0.5,0.25,-35.0,-1,1.0,0.7198009999999613
163,26,0.5,0.0,35.0,1,1.0,4.581301000000053
164,26,0.5,0.0625,-35.0,1,0.0,4.47110100000009
165,26,0.5,0.25,-35.0,-1,1.0,0.2251009999999951
166,26,0.5,0.125,-35.0,-1,1.0,0.0759010000000444
167,26,0.5,1.0,35.0,1,1.0,0.23390100000005987
168,26,0.5,0.25,35.0,1,1.0,0.28480100000001585
169,26,0.5,1.0,-35.0,-1,1.0,0.23090100000001712
170,26,0.5,0.125,35.0,1,1.0,0.2712010000001328
171,26,0.5,0.0625,-35.0,-1,1.0,0.6580010000000129
172,26,0.5,0.0,35.0,1,1.0,4.159900999999991
173,26,0.5,1.0,35.0,1,1.0,0.3969009999999571
174,26,0.5,0.0625,35.0,-1,0.0,1.5717009999999618
175,26,0.5,0.125,35.0,1,1.0,0.2734010000000353
176,26,0.5,0.0,-35.0,-1,1.0,0.3159009999999398
177,26,0.5,1.0,35.0,1,1.0,0.21830099999988306
178,26,0.5,1.0,35.0,1,1.0,0.3971010000000206
179,26,0.5,0.125,35.0,1,1.0,0.36490100000003167
180,26,0.5,0.0625,35.0,1,1.0,0.3502010000000837
181,26,0.5,0.25,-35.0,-1,1.0,0.6764010000000553
182,26,0.5,0.25,35.0,1,1.0,0.284001000000103
183,26,0.5,0.25,35.0,1,1.0,0.2940009999999802
184,26,0.5,0.0,-35.0,1,0.0,0.5371009999998932
185,26,0.5,0.125,-35.0,-1,1.0,0.2695009999999911
186,26,0.5,0.125,-35.0,-1,1.0,0.6730009999999993
187,26,0.5,0.0625,35.0,1,1.0,0.3125009999999975
188,26,0.5,0.25,-35.0,-1,1.0,1.6163009999999076
189,26,0.5,0.0,-35.0,1,0.0,2.0954009999999244
190,26,0.5,0.25,35.0,1,1.0,0.24900100000002112
191,26,0.5,0.125,-35.0,-1,1.0,0.3464010000000144
192,26,0.5,0.0,-35.0,1,0.0,0.38320099999998547
193,26,0.5,0.0625,35.0,1,1.0,0.4148010000000113
194,26,0.5,0.125,35.0,1,1.0,0.28730099999995673
195,26,0.5,0.125,-35.0,-1,1.0,0.2981009999999742
196,26,0.5,0.0,-35.0,1,0.0,2.248401000000058
197,26,0.7,0.0,35.0,-1,0.0,0.17250100000001112
198,26,0.5,1.0,-35.0,-1,1.0,0.21970100000010007
199,26,0.5,0.25,35.0,1,1.0,0.21120099999996
200,26,0.5,0.125,-35.0,-1,1.0,0.3022009999999682
201,26,0.5,0.25,35.0,1,1.0,0.2312010000000555
202,26,0.5,0.25,-35.0,-1,1.0,0.3802010000000564
203,26,0.5,0.25,35.0,1,1.0,0.24820099999999456
204,26,0.5,0.0625,-35.0,-1,1.0,0.5446009999999433
205,26,0.5,0.125,35.0,1,1.0,0.3457010000000764
206,26,0.5,1.0,-35.0,-1,1.0,0.24510099999997692
207,26,0.5,0.25,35.0,1,1.0,0.22680100000002312
208,26,0.5,0.0,35.0,1,1.0,1.8712010000000419
209,26,0.5,0.0625,35.0,1,1.0,0.7852010000000291
210,26,0.5,0.125,-35.0,-1,1.0,0.3144009999999753
211,26,0.5,0.125,35.0,1,1.0,1.9482009999999264
212,26,0.5,0.0625,-35.0,-1,1.0,0.7093009999999822
213,26,0.5,1.0,35.0,1,1.0,0.26630099999999857
214,26,0.5,0.0,35.0,-1,0.0,0.37120100000004186
215,26,0.5,0.0625,-35.0,-1,1.0,0.2553010000000313
216,26,0.5,0.125,35.0,1,1.0,0.2854009999999789
217,26,0.5,0.125,-35.0,-1,1.0,0.24060100000008333
218,26,0.5,1.0,35.0,1,1.0,0.23590100000012626
219,26,0.5,0.125,35.0,1,1.0,1.907301000000075
220,26,0.5,0.0625,35.0,1,1.0,0.32530100000008133
221,26,0.5,0.25,35.0,1,1.0,0.23870099999999184
222,26,0.5,1.0,-35.0,-1,1.0,0.22220100000004095
223,26,0.5,1.0,35.0,1,1.0,0.25220100000001366
224,26,0.5,1.0,35.0,1,1.0,1.554700999999909
225,26,0.5,0.0,35.0,1,1.0,2.0495010000000775
226,26,0.5,0.25,35.0,1,1.0,0.32170099999984814
227,26,0.5,1.0,35.0,1,1.0,0.3226009999999633
228,26,0.5,0.0625,35.0,-1,0.0,1.3565009999998665
229,26,0.5,0.125,-35.0,-1,1.0,0.6513010000001032
230,26,0.5,0.125,35.0,1,1.0,1.418500999999992
231,26,0.5,1.0,35.0,1,1.0,0.243300999999974
232,26,0.5,1.0,35.0,1,1.0,0.3984010000000353
233,26,0.5,0.25,35.0,1,1.0,0.4567010000000664
234,26,0.5,0.125,-35.0,-1,1.0,0.27030100000001767
235,26,0.5,0.125,35.0,1,1.0,0.45640100000002803
236,26,0.5,1.0,35.0,1,1.0,0.30280099999993126
237,26,0.5,0.0,-35.0,1,0.0,1.4865009999999756
238,26,0.5,0.125,-35.0,-1,1.0,0.23590100000001257
239,26,0.5,0.125,35.0,1,1.0,0.48060099999986505
240,26,0.5,0.25,35.0,1,1.0,0.34340100000008533
241,26,0.5,0.125,-35.0,-1,1.0,0.3883010000000695
242,26,0.5,0.125,35.0,1,1.0,0.8424009999999953
243,26,0.5,1.0,35.0,1,1.0,0.6317010000000209
244,26,0.5,1.0,35.0,1,1.0,0.26840100000003986
245,26,0.5,0.0,35.0,1,1.0,0.6410009999999602
246,26,0.5,0.125,-35.0,-1,1.0,0.24450100000001385
