trial_num,session_num,stim_probability_left,contrast,position,response_choice,trial_correct,reaction_time
1,22,0.5,1.0,35.0,1,1.0,0.6574000000000002
2,22,0.5,0.125,-35.0,-1,1.0,0.5475999999999992
3,22,0.5,1.0,-35.0,-1,1.0,2.5583
4,22,0.5,1.0,35.0,1,1.0,0.3175000000000008
5,22,0.5,0.0625,-35.0,-1,1.0,4.8248999999999995
6,22,0.5,0.25,35.0,1,1.0,6.739500000000003
7,22,0.5,1.0,-35.0,-1,1.0,0.39459999999999695
8,22,0.5,0.125,-35.0,-1,1.0,6.942599999999992
9,22,0.5,0.125,35.0,1,1.0,6.509
10,22,0.5,0.0625,35.0,-1,0.0,6.054200000000002
11,22,0.5,0.0,-35.0,1,0.0,0.46289999999999765
12,22,0.4,0.0,35.0,-1,0.0,3.4829000000000008
13,22,0.5,1.0,35.0,1,1.0,0.30409999999999116
14,22,0.5,1.0,-35.0,-1,1.0,0.36710000000000775
15,22,0.5,0.0,-35.0,-1,1.0,6.768599999999992
16,22,0.5,0.0,-35.0,-1,1.0,6.52300000000001
17,22,0.5,0.0625,35.0,-1,0.0,2.8282999999999987
18,22,0.5,0.0625,-35.0,-1,1.0,2.4451999999999856
19,22,0.5,0.25,-35.0,-1,1.0,2.6571
20,22,0.5,0.0,-35.0,-1,1.0,8.834799999999987
21,22,0.5,0.0,-35.0,-1,1.0,7.669599999999988
22,22,0.5,0.0,35.0,-1,0.0,0.39040000000002806
23,22,0.1,0.0,35.0,-1,0.0,6.537399999999991
24,22,0.5,1.0,35.0,1,1.0,0.33490000000000464
25,22,0.5,0.125,-35.0,-1,1.0,5.818900000000042
26,22,0.5,0.25,35.0,1,1.0,0.2524999999999977
27,22,0.5,0.0625,-35.0,-1,1.0,4.3145000000000095
28,22,0.5,0.0,-35.0,-1,1.0,5.372800000000012
29,22,0.5,0.0625,35.0,-1,0.0,0.4665999999999997
30,22,0.5,0.125,-35.0,-1,1.0,4.899799999999999
31,22,0.5,0.125,-35.0,-1,1.0,5.377700000000004
32,22,0.5,1.0,-35.0,-1,1.0,0.2534000000000276
33,22,0.5,0.125,-35.0,-1,1.0,0.2961999999999989
34,22,0.5,1.0,35.0,1,1.0,0.2780999999999949
35,22,0.5,0.125,35.0,1,1.0,0.6607000000000198
36,22,0.5,0.0,35.0,-1,0.0,4.747800000000012
37,22,0.5,0.0,35.0,-1,0.0,7.989000000000033
38,22,0.2,0.0,35.0,-1,0.0,5.572000000000003
39,22,0.5,1.0,35.0,1,1.0,0.5179000000000258
40,22,0.5,0.125,35.0,-1,0.0,12.669900000000013
41,22,0.5,0.25,-35.0,-1,1.0,0.282100000000014
42,22,0.5,1.0,-35.0,-1,1.0,0.2300999999999931
43,22,0.5,0.25,35.0,-1,0.0,7.542099999999948
44,22,0.3,0.25,35.0,-1,0.0,0.626199999999983
45,22,0.5,1.0,35.0,1,1.0,0.27849999999995134
46,22,0.5,0.0,35.0,-1,0.0,9.720299999999952
47,22,0.5,0.25,35.0,-1,0.0,5.031799999999976
48,22,0.5,0.25,35.0,-1,0.0,3.044999999999959
49,22,0.5,0.25,-35.0,-1,1.0,0.27609999999998536
50,22,0.5,0.125,35.0,-1,0.0,5.287399999999991
51,22,0.1,0.125,35.0,-1,0.0,0.27619999999996026
52,22,0.5,1.0,35.0,1,1.0,1.242400000000032
53,22,0.5,1.0,35.0,1,1.0,0.5570999999999913
54,22,0.5,0.0625,-35.0,-1,1.0,22.197299999999984
55,22,0.5,0.25,35.0,1,1.0,0.9508999999999901
56,22,0.5,0.0,-35.0,-1,1.0,0.2547000000000139
57,22,0.5,0.0625,-35.0,-1,1.0,8.631699999999967
58,22,0.5,0.125,35.0,-1,0.0,22.937599999999975
59,22,0.5,0.25,-35.0,-1,1.0,0.3199999999999932
60,22,0.5,0.125,35.0,1,1.0,0.34730000000001837
61,22,0.5,0.0,-35.0,1,0.0,0.2955000000000041
62,22,0.5,0.125,35.0,1,1.0,0.5744000000000256
63,22,0.5,0.0,-35.0,-1,1.0,37.20949999999999
64,22,0.5,0.0625,35.0,1,1.0,0.35079999999999245
65,22,0.5,0.0625,35.0,-1,0.0,8.904600000000016
66,22,0.5,0.125,-35.0,-1,1.0,12.115799999999979
67,22,0.5,0.125,35.0,-1,0.0,7.1445999999999685
68,22,0.5,0.0,-35.0,-1,1.0,5.259799999999984
69,22,0.5,0.125,35.0,1,1.0,0.4879000000000815
70,22,0.5,0.25,-35.0,-1,1.0,6.684999999999945
71,22,0.5,0.0625,-35.0,-1,1.0,7.14589999999987
72,22,0.5,0.125,35.0,1,1.0,0.4864000000000033
73,22,0.5,1.0,35.0,-1,0.0,6.018800000000056
74,22,0.5,0.0,35.0,-1,0.0,0.22659999999996217
75,22,0.2,0.0,-35.0,-1,1.0,9.728999999999928
76,22,0.5,1.0,-35.0,-1,1.0,0.34769999999991796
77,22,0.5,0.0625,35.0,-1,0.0,12.985900000000015
78,22,0.5,0.25,35.0,1,1.0,15.185499999999934
79,22,0.5,1.0,-35.0,-1,1.0,0.4068999999999505
80,22,0.5,1.0,35.0,1,1.0,0.3261999999999716
81,22,0.5,0.25,-35.0,-1,1.0,3.60979999999995
82,22,0.5,0.0625,-35.0,-1,1.0,6.780999999999835
83,22,0.5,0.0,35.0,-1,0.0,0.32910000000003947
84,22,0.5,0.25,-35.0,-1,1.0,12.52189999999996
85,22,0.5,0.25,-35.0,-1,1.0,10.911200000000008
86,22,0.5,0.125,35.0,-1,0.0,6.637699999999882
87,22,0.5,0.25,35.0,1,1.0,1.2591999999999643
88,22,0.5,0.0625,-35.0,-1,1.0,21.348299999999995
89,22,0.5,0.0625,35.0,-1,0.0,7.957400000000007
90,22,0.5,0.125,-35.0,-1,1.0,17.238200000000006
91,22,0.5,0.0625,35.0,-1,0.0,2.905900000000088
92,22,0.1,0.0625,35.0,-1,0.0,13.393299999999954
93,22,0.5,1.0,35.0,1,1.0,0.48669999999992797
94,22,0.5,1.0,-35.0,-1,1.0,5.77189999999996
95,22,0.5,0.0625,-35.0,-1,1.0,26.90339999999992
96,22,0.5,0.25,35.0,1,1.0,0.4694999999999254
97,22,0.5,1.0,-35.0,-1,1.0,0.2699000000000069
98,22,0.5,0.0625,-35.0,-1,1.0,0.5284000000000333
99,22,0.5,0.25,35.0,1,1.0,14.261999999999944
100,22,0.5,0.125,35.0,1,1.0,10.804399999999987
101,22,0.5,0.0625,35.0,-1,0.0,1.2397000000000844
102,22,0.5,0.25,-35.0,-1,1.0,0.6925999999999704
103,22,0.5,0.25,35.0,1,1.0,0.45699999999999363
104,22,0.5,0.25,-35.0,-1,1.0,8.906100000000038
105,22,0.5,0.125,-35.0,-1,1.0,8.688300000000027
106,22,0.5,1.0,35.0,1,1.0,0.4127000000000862
107,22,0.5,0.125,-35.0,-1,1.0,1.2567999999999984
108,22,0.5,0.125,35.0,-1,0.0,8.036899999999946
109,22,0.4,0.125,-35.0,-1,1.0,10.508200000000102
110,22,0.5,1.0,35.0,1,1.0,0.4599999999999227
111,22,0.5,0.25,35.0,1,1.0,5.65199999999993
112,22,0.5,0.25,35.0,-1,0.0,13.407899999999927
113,22,0.5,0.0,35.0,1,1.0,0.29910000000006676
114,22,0.5,0.125,35.0,-1,0.0,10.097799999999893
115,22,0.5,0.0625,35.0,-1,0.0,9.827799999999911
116,22,0.5,0.25,35.0,1,1.0,0.5844999999999345
117,22,0.5,1.0,35.0,1,1.0,35.38310000000001
118,22,0.5,1.0,35.0,1,1.0,0.610300000000052
119,22,0.5,1.0,-35.0,-1,1.0,0.43709999999987303
120,22,0.5,1.0,35.0,-1,0.0,59.72720000000004
121,22,0.5,0.0625,35.0,-1,0.0,25.37830000000008
122,22,0.5,0.25,-35.0,-1,1.0,22.878700000000208
123,22,0.5,0.125,35.0,-1,0.0,0.7056999999999789
124,22,0.5,0.0625,35.0,1,1.0,0.7524999999998272
125,22,0.5,1.0,-35.0,-1,1.0,0.2991999999997006
126,22,0.5,0.0625,35.0,-1,0.0,10.305999999999813
127,22,0.5,0.0625,35.0,-1,0.0,0.31290000000012697
128,22,0.5,0.125,-35.0,-1,1.0,6.496199999999817
129,22,0.5,0.125,35.0,-1,0.0,5.8197999999999865
130,22,0.5,0.25,35.0,1,1.0,0.4999000000000251
131,22,0.5,1.0,-35.0,-1,1.0,0.30340000000001055
132,22,0.5,0.0625,35.0,-1,0.0,7.3400000000001455
133,22,0.5,0.25,35.0,-1,0.0,11.593499999999949
134,22,0.2,0.25,35.0,1,1.0,0.4537999999997737
135,22,0.5,1.0,-35.0,-1,1.0,0.27719999999999345
136,22,0.5,0.125,-35.0,-1,1.0,4.843799999999874
137,22,0.5,0.0625,35.0,-1,0.0,9.67730000000006
138,22,0.5,0.0,-35.0,-1,1.0,10.167500000000018
139,22,0.5,1.0,-35.0,-1,1.0,0.2744000000000142
140,22,0.5,0.0625,35.0,-1,0.0,18.391099999999824
141,22,0.5,0.125,35.0,1,1.0,0.5447999999998956
142,22,0.5,0.125,35.0,-1,0.0,25.368200000000115
143,22,0.5,0.0625,35.0,-1,0.0,16.048700000000053
144,22,0.5,0.25,35.0,-1,0.0,14.285699999999906
145,22,0.5,0.0625,-35.0,-1,1.0,8.669200000000046
146,22,0.5,0.125,35.0,1,1.0,0.66599999999994
147,22,0.5,0.25,-35.0,-1,1.0,0.4229000000000269
148,22,0.5,1.0,35.0,1,1.0,22.499599999999873
149,22,0.5,0.0,35.0,-1,0.0,9.13000000000011
150,22,0.5,0.25,35.0,1,1.0,5.473500000000058
151,22,0.5,1.0,-35.0,-1,1.0,5.836999999999762
152,22,0.5,1.0,35.0,1,1.0,24.633799999999837
153,22,0.5,1.0,35.0,-1,0.0,1.5407999999999902
154,22,0.5,0.125,-35.0,-1,1.0,0.5209999999999582
155,22,0.5,1.0,35.0,1,1.0,1.15099999999984
156,22,0.5,0.0625,35.0,-1,0.0,28.871200000000044
157,22,0.5,0.125,-35.0,0,0.0,59.9516000000001
158,22,0.5,0.0,-35.0,-1,1.0,7.869300000000067
159,22,0.5,1.0,-35.0,-1,1.0,0.34940000000005966
160,22,0.5,1.0,35.0,1,1.0,0.3529999999998381
161,22,0.5,1.0,-35.0,-1,1.0,0.5394999999998618
162,22,0.5,0.0625,35.0,-1,0.0,8.516200000000026
163,22,0.5,0.125,-35.0,-1,1.0,6.849799999999959
164,22,0.5,1.0,35.0,1,1.0,0.27989999999977044
165,22,0.5,0.0625,-35.0,-1,1.0,8.486599999999953
166,22,0.5,0.25,-35.0,-1,1.0,0.14679999999975735
167,22,0.5,0.125,35.0,-1,0.0,0.6168999999999869
168,22,0.5,0.0,35.0,-1,0.0,12.606899999999996
169,22,0.5,0.25,-35.0,-1,1.0,6.807100000000219
170,22,0.5,0.0625,-35.0,-1,1.0,11.057299999999941
171,22,0.5,0.0625,35.0,-1,0.0,15.13760000000002
172,22,0.5,0.0,35.0,-1,0.0,10.294700000000148
173,22,0.5,0.125,-35.0,-1,1.0,0.5446999999999207
174,22,0.5,0.125,35.0,1,1.0,23.768200000000206
175,22,0.5,0.0625,35.0,1,1.0,1.6652999999998883
176,22,0.5,0.125,35.0,-1,0.0,8.348700000000008
177,22,0.5,0.25,-35.0,-1,1.0,31.288900000000012
178,22,0.5,0.125,-35.0,-1,1.0,0.629399999999805
179,22,0.5,0.25,35.0,1,1.0,1.8195000000000618
180,22,0.5,1.0,-35.0,-1,1.0,0.41960000000017317
181,22,0.5,1.0,35.0,-1,0.0,32.16639999999984
182,22,0.5,0.0625,35.0,-1,0.0,27.056899999999814
183,22,0.5,0.0625,35.0,-1,0.0,3.8775000000000546
184,22,0.5,0.0625,35.0,-1,0.0,42.207600000000184
185,22,0.5,0.0625,35.0,1,1.0,13.065000000000055
186,22,0.5,0.0625,35.0,-1,0.0,7.881800000000112
187,22,0.5,0.25,35.0,0,0.0,59.94869999999992
188,22,0.5,0.125,-35.0,-1,1.0,0.2830999999998767
189,22,0.5,0.25,35.0,1,1.0,0.4698000000000775
190,22,0.5,0.125,-35.0,-1,1.0,9.41989999999987
191,22,0.5,0.125,-35.0,-1,1.0,0.31340000000000146
192,22,0.5,0.0625,-35.0,-1,1.0,2.5034999999998035
193,22,0.5,1.0,35.0,-1,0.0,27.847000000000207
194,22,0.5,0.25,-35.0,-1,1.0,0.364100000000235
195,22,0.5,0.0,-0.0,0,0.0,59.950900000000274
196,22,0.5,0.125,35.0,0,0.0,31.82900000000018
197,22,0.5,0.0625,35.0,-1,0.0,0.021300000000337604
198,22,0.5,0.125,35.0,0,0.0,59.939600000000155
199,22,0.5,0.125,35.0,-1,0.0,0.23109999999996944
200,22,0.5,0.25,35.0,-1,0.0,3.229400000000169
201,22,0.3,0.25,-35.0,-1,1.0,0.41640000000006694
202,22,0.5,1.0,35.0,1,1.0,0.6094000000002779
203,22,0.5,0.0625,35.0,-1,0.0,0.2980999999999767
204,22,0.5,0.0625,35.0,-1,0.0,6.451499999999669
205,22,0.5,0.125,-35.0,-1,1.0,0.3951000000001841
206,22,0.5,0.125,35.0,-1,0.0,21.385099999999966
207,22,0.5,0.125,35.0,-1,0.0,0.5720999999998639
208,22,0.2,0.125,35.0,0,0.0,59.93550000000005
209,22,0.5,1.0,35.0,1,1.0,0.20649999999977808
210,22,0.5,0.125,35.0,1,1.0,0.594499999999698
211,22,0.5,0.25,-35.0,-1,1.0,0.47450000000026193
212,22,0.5,1.0,35.0,1,1.0,0.6145999999998821
213,22,0.5,1.0,35.0,1,1.0,0.48800000000028376
214,22,0.5,0.25,35.0,1,1.0,0.521900000000187
215,22,0.5,1.0,35.0,1,1.0,26.72470000000021
216,22,0.5,1.0,-35.0,-1,1.0,0.3186999999998079
217,22,0.5,0.125,35.0,0,0.0,59.92590000000018
218,22,0.5,0.25,35.0,1,1.0,0.7903000000001157
219,22,0.5,0.25,-35.0,-1,1.0,0.24900000000025102
220,22,0.5,0.125,-35.0,-1,1.0,0.2458000000001448
221,22,0.5,0.0,35.0,-1,0.0,6.925799999999981
222,22,0.5,0.25,-35.0,-1,1.0,10.195999999999913
223,22,0.5,0.25,-35.0,-1,1.0,0.22619999999960783
224,22,0.5,0.125,35.0,-1,0.0,9.706499999999778
225,22,0.5,0.25,35.0,-1,0.0,21.36989999999969
226,22,0.5,0.25,-35.0,-1,1.0,0.37370000000009895
227,22,0.5,0.125,35.0,1,1.0,3.1802999999999884
228,22,0.5,0.25,-35.0,-1,1.0,0.5572000000001935
229,22,0.5,0.0,-35.0,-1,1.0,14.773899999999685
230,22,0.5,0.25,-35.0,-1,1.0,0.36429999999973006
231,22,0.5,0.125,-35.0,-1,1.0,1.0510000000003856
232,22,0.5,0.125,-35.0,-1,1.0,0.7675999999996748
233,22,0.5,0.125,-35.0,1,0.0,3.8945000000003347
234,22,0.2,0.125,35.0,0,0.0,59.951200000000426
235,22,0.5,1.0,35.0,1,1.0,0.3874999999998181
236,22,0.5,0.0,-0.0,0,0.0,59.96240000000034
237,22,0.5,0.0625,-35.0,-1,1.0,0.18499999999994543
238,22,0.5,0.125,-35.0,-1,1.0,0.2438999999999396
239,22,0.5,0.125,-35.0,-1,1.0,0.293800000000374
240,22,0.5,1.0,-35.0,-1,1.0,15.777199999999993
241,22,0.5,0.0,-35.0,-1,1.0,0.3809999999998581
242,22,0.5,1.0,-35.0,-1,1.0,0.09089999999969223
243,22,0.5,0.0625,-35.0,-1,1.0,4.627599999999802
244,22,0.5,0.125,35.0,-1,0.0,11.027799999999843
245,22,0.2,0.125,-35.0,-1,1.0,17.60799999999972
246,22,0.5,1.0,35.0,1,1.0,0.4351000000001477
247,22,0.5,0.0,-35.0,-1,1.0,1.1084999999998217
248,22,0.5,0.0625,35.0,1,1.0,44.948599999999715
249,22,0.5,0.25,-35.0,-1,1.0,17.282700000000204
250,22,0.5,0.125,-35.0,-1,1.0,0.3730000000000473
251,22,0.5,0.125,35.0,0,0.0,59.94309999999996
252,22,0.5,0.0625,35.0,-1,0.0,0.1044000000001688
253,22,0.5,0.0625,-35.0,-1,1.0,0.34619999999995343
254,22,0.5,0.0625,35.0,-1,0.0,14.572599999999966
255,22,0.5,0.125,-35.0,-1,1.0,7.4396999999999025
256,22,0.5,0.0625,35.0,-1,0.0,18.22649999999976
257,22,0.2,0.0625,35.0,-1,0.0,0.19339999999965585
258,22,0.5,1.0,35.0,1,1.0,0.5237000000001899
259,22,0.5,0.125,35.0,1,1.0,18.20370000000048
260,22,0.5,0.125,-35.0,-1,1.0,0.5941000000002532
261,22,0.5,0.0,35.0,-1,0.0,6.5978000000000065
262,22,0.5,0.125,35.0,1,1.0,10.52789999999959
263,22,0.5,0.0625,-35.0,-1,1.0,0.208299999999781
264,22,0.5,1.0,35.0,-1,0.0,1.5315000000005057
265,22,0.5,0.25,-35.0,-1,1.0,0.6246999999993932
266,22,0.5,0.125,35.0,1,1.0,49.97149999999965
267,22,0.5,1.0,-35.0,-1,1.0,7.958799999999883
268,22,0.5,1.0,35.0,1,1.0,0.6064000000001215
269,22,0.5,0.0625,-35.0,-1,1.0,0.34249999999974534
270,22,0.5,1.0,-35.0,-1,1.0,0.31650000000036016
271,22,0.5,0.25,35.0,1,1.0,24.662599999999657
272,22,0.5,0.25,35.0,-1,0.0,5.79989999999998
273,22,0.3,0.25,35.0,-1,0.0,10.583700000000135
274,22,0.5,1.0,35.0,0,0.0,59.940799999999854
275,22,0.4,1.0,-35.0,-1,1.0,3.482100000000173
276,22,0.5,1.0,35.0,1,1.0,9.928199999999379
277,22,0.5,0.125,35.0,1,1.0,0.5414000000000669
278,22,0.5,0.125,35.0,1,1.0,0.7152999999998428
279,22,0.5,0.0,-0.0,0,0.0,59.94829999999956
280,22,0.5,0.0625,35.0,1,1.0,0.9283999999997832
281,22,0.5,0.125,35.0,-1,0.0,7.57320000000027
282,22,0.5,0.0,-0.0,0,0.0,59.57670000000007
283,22,0.5,0.125,35.0,-1,0.0,9.858600000000024
284,22,0.5,0.0,-35.0,-1,1.0,17.239900000000034
285,22,0.5,0.25,35.0,-1,0.0,0.22689999999965949
286,22,0.5,0.125,-35.0,-1,1.0,0.2136000000000422
287,22,0.5,0.25,35.0,-1,0.0,6.123599999999897
288,22,0.5,0.125,35.0,1,1.0,2.0570999999999913
289,22,0.5,0.25,-35.0,-1,1.0,0.43719999999984793
290,22,0.5,0.125,-35.0,-1,1.0,0.62729999999965
291,22,0.5,0.125,35.0,-1,0.0,11.403900000000249
292,22,0.5,0.25,-35.0,-1,1.0,0.274199999999837
293,22,0.5,0.0625,-35.0,-1,1.0,0.20759999999972933
294,22,0.5,0.125,-35.0,-1,1.0,0.40099999999983993
295,22,0.5,1.0,-35.0,-1,1.0,0.7276999999999134
296,22,0.5,0.25,-35.0,1,0.0,1.4810999999999694
297,22,0.5,0.0625,-35.0,0,0.0,59.95779999999968
298,22,0.5,0.25,35.0,-1,0.0,9.504100000000108
299,22,0.5,0.125,35.0,-1,0.0,23.105799999999817
300,22,0.5,0.25,-35.0,0,0.0,59.95950000000039
301,22,0.5,0.0625,-35.0,-1,1.0,16.573899999999867
302,22,0.5,0.25,-35.0,-1,1.0,0.4076000000000022
303,22,0.5,0.125,-35.0,-1,1.0,7.334299999999985
304,22,0.5,0.0,-35.0,-1,1.0,0.27440000000024156
305,22,0.5,1.0,35.0,1,1.0,0.7677999999996246
306,22,0.5,0.0625,-35.0,-1,1.0,0.31109999999944193
307,22,0.5,1.0,-35.0,-1,1.0,0.23789999999962674
308,22,0.5,1.0,-35.0,0,0.0,59.94790000000012
309,22,0.3,1.0,35.0,1,1.0,12.082400000000234
310,22,0.5,1.0,35.0,-1,0.0,0.1526000000003478
311,22,0.5,0.0625,35.0,-1,0.0,31.789400000000114
312,22,0.5,0.125,-35.0,-1,1.0,34.72320000000036
313,22,0.5,1.0,-35.0,-1,1.0,0.2904000000007727
314,22,0.5,0.125,35.0,1,1.0,0.5639000000001033
315,22,0.5,1.0,-35.0,-1,1.0,0.6908000000003085
316,22,0.5,0.0625,35.0,1,1.0,9.724099999999453
317,22,0.5,0.0625,-35.0,-1,1.0,0.32300000000032014
318,22,0.5,1.0,-35.0,-1,1.0,0.3629000000000815
319,22,0.5,1.0,35.0,1,1.0,46.63249999999971
320,22,0.5,0.125,-35.0,-1,1.0,0.24690000000009604
321,22,0.5,1.0,35.0,1,1.0,12.556700000000092
322,22,0.5,1.0,-35.0,-1,1.0,0.20040100000005623
323,22,0.5,0.25,-35.0,-1,1.0,0.26390100000025996
324,22,0.5,0.0,-35.0,-1,1.0,18.934501000001546
325,22,0.5,1.0,35.0,1,1.0,32.04110100000071
326,22,0.5,0.125,35.0,0,0.0,59.95180100000016
327,22,0.5,0.0,-0.0,0,0.0,59.94260100000065
328,22,0.5,0.125,-35.0,-1,1.0,0.30550100000073144
329,22,0.5,0.0,35.0,-1,0.0,11.107501000000411
330,22,0.5,0.0625,35.0,-1,0.0,15.877101000000948
331,22,0.5,0.25,35.0,0,0.0,59.94800100000066
332,22,0.5,0.25,-35.0,-1,1.0,0.49510100000134116
333,22,0.5,0.25,35.0,1,1.0,0.6921010000005481
334,22,0.5,0.0625,35.0,1,1.0,0.8786010000003444
335,22,0.5,0.125,-35.0,-1,1.0,0.5057010000000446
336,22,0.5,0.125,35.0,1,1.0,36.42540100000042
337,22,0.5,0.25,-35.0,-1,1.0,0.21330100000068342
338,22,0.5,0.25,35.0,1,1.0,10.299401000000216
339,22,0.5,0.0625,-35.0,-1,1.0,0.20350100000086968
340,22,0.5,1.0,35.0,1,1.0,0.48040100000071106
341,22,0.5,1.0,-35.0,-1,1.0,0.1865010000010443
342,22,0.5,0.0,-35.0,-1,1.0,0.26360100000056264
343,22,0.5,1.0,35.0,1,1.0,14.320601000000352
344,22,0.5,1.0,35.0,1,1.0,0.4075009999996837
345,22,0.5,0.0,-35.0,-1,1.0,8.106901000001017
346,22,0.5,1.0,-35.0,-1,1.0,0.25070099999993545
347,22,0.5,0.0625,35.0,1,1.0,10.297601000001123
348,22,0.5,0.25,35.0,0,0.0,59.93390100000033
349,22,0.5,0.125,35.0,0,0.0,
1,23,0.5,0.0625,35.0,1,1.0,0.19410000000000016
2,23,0.5,0.0,35.0,1,1.0,0.2876000000000003
3,23,0.5,0.0625,-35.0,1,0.0,0.3468
4,23,0.5,0.0625,35.0,1,1.0,0.2027000000000001
5,23,0.5,1.0,35.0,1,1.0,0.149300000000002
6,23,0.5,1.0,35.0,1,1.0,0.19299999999999784
7,23,0.5,0.0625,-35.0,-1,1.0,0.28219999999999956
8,23,0.5,0.0625,35.0,-1,0.0,0.148299999999999
9,23,0.5,0.25,-35.0,-1,1.0,0.17359999999999687
10,23,0.5,0.0625,35.0,1,1.0,0.37049999999999983
11,23,0.5,1.0,35.0,1,1.0,0.16540000000000177
12,23,0.5,0.25,35.0,-1,0.0,0.21020000000000394
13,23,0.5,0.125,-35.0,-1,1.0,0.1991000000000014
14,23,0.5,0.125,35.0,-1,0.0,3.240400000000001
15,23,0.5,0.125,-35.0,-1,1.0,0.20409999999999684
16,23,0.5,0.25,35.0,1,1.0,1.7423999999999964
17,23,0.5,0.0,-35.0,-1,1.0,2.4394999999999953
18,23,0.5,0.125,35.0,-1,0.0,0.17019999999999413
19,23,0.5,0.0625,35.0,-1,0.0,0.17659999999999343
20,23,0.5,0.125,35.0,1,1.0,0.4239999999999995
21,23,0.5,0.0625,-35.0,-1,1.0,0.21579999999999444
22,23,0.5,0.25,-35.0,-1,1.0,0.15340000000000487
23,23,0.5,0.25,-35.0,-1,1.0,0.1845000000000141
24,23,0.5,0.0625,35.0,-1,0.0,0.19670000000000698
25,23,0.5,0.0625,35.0,-1,0.0,0.20330000000001291
26,23,0.2,0.0625,35.0,-1,0.0,0.1891999999999996
27,23,0.5,1.0,-35.0,-1,1.0,0.1419000000000068
28,23,0.5,0.0,35.0,-1,0.0,0.20879999999999654
29,23,0.5,0.125,35.0,-1,0.0,0.15260000000002094
30,23,0.5,0.125,35.0,1,1.0,0.22850000000001103
31,23,0.5,0.0,-35.0,-1,1.0,0.20109999999999673
32,23,0.5,0.25,35.0,-1,0.0,0.1501999999999981
33,23,0.5,0.125,35.0,-1,0.0,0.16310000000001423
34,23,0.5,0.25,-35.0,-1,1.0,0.20820000000000505
35,23,0.5,0.25,-35.0,-1,1.0,1.5675999999999988
36,23,0.5,0.25,-35.0,-1,1.0,2.1278000000000077
37,23,0.5,0.25,-35.0,-1,1.0,0.3038000000000096
38,23,0.5,0.25,-35.0,-1,1.0,0.26609999999999445
39,23,0.5,0.0625,35.0,-1,0.0,0.15509999999999025
40,23,0.5,0.125,-35.0,-1,1.0,0.15059999999999718
41,23,0.5,0.125,35.0,-1,0.0,0.18970000000000198
42,23,0.0,0.125,35.0,-1,0.0,0.12169999999998993
43,23,0.5,1.0,35.0,1,1.0,0.40109999999998536
44,23,0.5,0.25,35.0,1,1.0,0.2751999999999839
45,23,0.5,0.25,-35.0,-1,1.0,0.19999999999998863
46,23,0.5,1.0,35.0,1,1.0,5.322200000000009
47,23,0.5,0.0625,-35.0,-1,1.0,3.5892000000000053
48,23,0.5,0.25,35.0,-1,0.0,1.3488999999999862
49,23,0.5,0.0625,35.0,-1,0.0,0.33389999999999986
50,23,0.5,0.0,-35.0,1,0.0,0.4720999999999833
51,23,0.4,0.0,-35.0,-1,1.0,0.32140000000001123
52,23,0.5,1.0,35.0,-1,0.0,0.169399999999996
53,23,0.5,0.25,-35.0,-1,1.0,0.15589999999997417
54,23,0.5,1.0,-35.0,-1,1.0,0.1999999999999602
55,23,0.5,0.125,-35.0,-1,1.0,0.27000000000001023
56,23,0.5,1.0,35.0,-1,0.0,0.15450000000001296
57,23,0.5,0.125,35.0,-1,0.0,0.14570000000000505
58,23,0.5,0.0,-35.0,-1,1.0,0.1740000000000066
59,23,0.5,0.25,35.0,1,1.0,0.2898999999999887
60,23,0.5,0.25,35.0,-1,0.0,0.2319999999999709
61,23,0.5,0.0,35.0,-1,0.0,0.028400000000004866
62,23,0.5,0.125,-35.0,-1,1.0,0.1810999999999865
63,23,0.5,0.125,-35.0,-1,1.0,0.2043000000000177
64,23,0.5,0.25,35.0,-1,0.0,4.466700000000003
65,23,0.5,0.125,35.0,1,1.0,0.24270000000001346
66,23,0.5,0.25,-35.0,-1,1.0,0.5256999999999721
67,23,0.5,0.0625,35.0,-1,0.0,1.027499999999975
68,23,0.2,0.0625,-35.0,-1,1.0,0.16030000000000655
69,23,0.5,1.0,35.0,1,1.0,0.914498999999978
70,23,0.5,0.0625,-35.0,-1,1.0,0.2644999999999982
71,23,0.5,0.0625,35.0,-1,0.0,0.26019999999999754
72,23,0.2,0.0625,-35.0,-1,1.0,0.1734000000000151
73,23,0.5,1.0,35.0,-1,0.0,0.14230000000000587
74,23,0.5,0.25,35.0,-1,0.0,0.14829999999997767
75,23,0.5,0.0,35.0,-1,0.0,0.12229999999999563
76,23,0.5,0.0625,-35.0,-1,1.0,0.06229999999999336
77,23,0.5,0.0,-35.0,-1,1.0,2.754700000000014
78,23,0.5,0.25,35.0,1,1.0,0.7571000000000083
79,23,0.5,1.0,-35.0,-1,1.0,0.17239999999995348
80,23,0.5,0.0625,-35.0,-1,1.0,1.047399999999982
81,23,0.5,0.0,-35.0,-1,1.0,0.2209999999999468
82,23,0.5,0.25,-35.0,-1,1.0,0.13779999999997017
83,23,0.5,1.0,-35.0,-1,1.0,0.45739999999995007
84,23,0.5,0.25,35.0,1,1.0,0.24540000000001783
85,23,0.5,0.25,35.0,1,1.0,0.375
86,23,0.5,1.0,-35.0,-1,1.0,0.2066000000000372
87,23,0.5,0.25,35.0,-1,0.0,0.17980000000000018
88,23,0.3,0.25,35.0,1,1.0,0.3047000000000253
89,23,0.5,1.0,35.0,1,1.0,0.3295999999999708
90,23,0.5,1.0,35.0,1,1.0,0.20519999999999072
91,23,0.5,0.25,35.0,1,1.0,0.427599999999984
92,23,0.5,0.25,-35.0,-1,1.0,0.17959999999999354
93,23,0.5,0.25,35.0,1,1.0,0.31389999999998963
94,23,0.5,1.0,-35.0,-1,1.0,0.1339999999999577
95,23,0.5,0.0625,-35.0,-1,1.0,0.3089999999999691
96,23,0.5,0.0625,-35.0,-1,1.0,0.18299999999993588
97,23,0.5,1.0,-35.0,-1,1.0,0.15680000000003247
98,23,0.5,1.0,-35.0,-1,1.0,0.17290000000002692
99,23,0.5,1.0,-35.0,-1,1.0,0.18219999999996617
100,23,0.5,0.25,35.0,1,1.0,0.2507999999999697
101,23,0.5,0.0,35.0,-1,0.0,0.3125999999999749
102,23,0.5,0.125,35.0,1,1.0,0.36180000000001655
103,23,0.5,0.125,-35.0,-1,1.0,0.17790000000002237
104,23,0.5,0.0625,-35.0,-1,1.0,0.17489999999997963
105,23,0.5,0.25,35.0,1,1.0,0.2633000000000152
106,23,0.5,0.0625,-35.0,-1,1.0,0.09890000000001464
107,23,0.5,0.25,-35.0,-1,1.0,0.11629999999996699
108,23,0.5,0.0625,35.0,-1,0.0,0.16499999999996362
109,23,0.5,0.25,-35.0,-1,1.0,0.16489999999998872
110,23,0.5,0.25,35.0,-1,0.0,0.155900000000031
111,23,0.5,0.0625,-35.0,-1,1.0,0.1592999999999165
112,23,0.5,0.25,35.0,-1,0.0,0.1189000000000533
113,23,0.1,0.25,35.0,-1,0.0,0.11739999999997508
114,23,0.5,1.0,35.0,1,1.0,0.24529999999998608
115,23,0.5,0.25,35.0,1,1.0,0.34000000000003183
116,23,0.5,1.0,35.0,1,1.0,0.162399999999991
117,23,0.5,0.0,-35.0,-1,1.0,0.396699999999953
118,23,0.5,0.25,-35.0,1,0.0,0.13709999999997535
119,23,0.5,0.125,-35.0,-1,1.0,0.1856999999999971
120,23,0.5,0.0,-35.0,-1,1.0,0.11709999999999354
121,23,0.5,0.25,35.0,-1,0.0,0.372099999999989
122,23,0.5,0.125,35.0,-1,0.0,0.14929999999998245
123,23,0.5,0.0,-35.0,-1,1.0,0.16809999999998126
124,23,0.5,1.0,35.0,1,1.0,2.934100000000001
125,23,0.5,1.0,35.0,1,1.0,0.275100000000009
126,23,0.5,0.125,-35.0,-1,1.0,0.14379999999999882
127,23,0.5,0.25,-35.0,-1,1.0,0.16529999999994516
128,23,0.5,0.25,-35.0,-1,1.0,0.1711999999999989
129,23,0.5,0.125,35.0,1,1.0,0.2872000000000412
130,23,0.5,0.0625,-35.0,1,0.0,1.765199999999993
131,23,0.5,0.0625,-35.0,-1,1.0,0.1735999999999649
132,23,0.5,0.0625,35.0,1,1.0,2.7263000000000375
133,23,0.5,0.25,-35.0,-1,1.0,0.07749999999998636
134,23,0.5,0.0625,35.0,-1,0.0,0.14389999999997372
135,23,0.5,0.0625,35.0,1,1.0,0.22690000000000055
136,23,0.5,0.25,-35.0,-1,1.0,0.1927000000000021
137,23,0.5,1.0,-35.0,-1,1.0,0.1765999999999508
138,23,0.5,0.0625,35.0,1,1.0,1.2216999999999985
139,23,0.5,1.0,35.0,1,1.0,0.40109999999998536
140,23,0.5,0.0625,35.0,-1,0.0,0.15949999999998
141,23,0.4,0.0625,35.0,1,1.0,0.481899999999996
142,23,0.5,1.0,35.0,1,1.0,1.8375999999999522
143,23,0.5,0.25,35.0,1,1.0,0.34169999999994616
144,23,0.5,0.0625,35.0,-1,0.0,0.18269999999995434
145,23,0.5,0.0625,-35.0,-1,1.0,0.13139999999998508
146,23,0.5,0.125,-35.0,-1,1.0,0.10849999999999227
147,23,0.5,0.125,-35.0,-1,1.0,0.24560000000002447
148,23,0.5,0.125,-35.0,-1,1.0,0.16830000000004475
149,23,0.5,1.0,-35.0,-1,1.0,0.2066000000000372
150,23,0.5,0.125,-35.0,-1,1.0,3.704399999999964
151,23,0.5,0.25,35.0,-1,0.0,0.021299999999996544
152,23,0.5,0.0625,35.0,1,1.0,1.0772000000000048
153,23,0.5,0.0,35.0,-1,0.0,0.12770000000000437
154,23,0.5,0.125,35.0,-1,0.0,0.18299999999999272
155,23,0.5,0.125,-35.0,-1,1.0,0.18200000000001637
156,23,0.5,0.125,35.0,1,1.0,0.22839999999996508
157,23,0.5,1.0,35.0,1,1.0,0.18580000000002883
158,23,0.5,0.25,-35.0,-1,1.0,2.04079999999999
159,23,0.5,1.0,-35.0,-1,1.0,0.16489999999998872
160,23,0.5,0.125,-35.0,-1,1.0,0.11959999999993443
161,23,0.5,0.0,-35.0,-1,1.0,0.1550999999999476
162,23,0.5,1.0,35.0,1,1.0,0.38780000000008386
163,23,0.5,1.0,-35.0,-1,1.0,0.18840000000011514
164,23,0.5,1.0,-35.0,-1,1.0,0.18709999999998672
165,23,0.5,0.0,-35.0,-1,1.0,0.22720000000003893
166,23,0.5,0.0625,35.0,-1,0.0,0.19249999999999545
167,23,0.5,0.0625,-35.0,-1,1.0,0.17590000000006967
168,23,0.5,0.125,-35.0,1,0.0,0.18240000000002965
169,23,0.2,0.125,35.0,-1,0.0,0.13810000000012224
170,23,0.5,1.0,35.0,1,1.0,0.20039999999994507
171,23,0.5,0.25,35.0,1,1.0,1.6295000000000073
172,23,0.5,0.0625,-35.0,-1,1.0,0.2118000000000393
173,23,0.5,0.25,35.0,1,1.0,0.38200000000006185
174,23,0.5,0.0,35.0,-1,0.0,0.1690000000000964
175,23,0.5,0.125,35.0,-1,0.0,0.16660000000001673
176,23,0.5,0.25,35.0,-1,0.0,0.12610000000006494
177,23,0.5,0.125,35.0,1,1.0,0.4337000000000444
178,23,0.5,0.0625,-35.0,1,0.0,0.32720000000006166
179,23,0.5,0.125,-35.0,-1,1.0,0.20580000000006748
180,23,0.5,0.0625,35.0,-1,0.0,0.33359999999993306
181,23,0.5,0.25,35.0,1,1.0,0.1553000000000111
182,23,0.5,0.0625,35.0,-1,0.0,0.1812000000001035
183,23,0.4,0.0625,35.0,-1,0.0,0.18840000000000146
184,23,0.5,1.0,-35.0,-1,1.0,0.22080000000005384
185,23,0.5,1.0,-35.0,-1,1.0,0.34390000000007603
186,23,0.5,0.125,35.0,-1,0.0,0.13560000000018135
187,23,0.5,0.25,35.0,1,1.0,0.22300000000007003
188,23,0.5,0.0625,-35.0,-1,1.0,0.8619000000001051
189,23,0.5,0.0625,-35.0,-1,1.0,0.0036999999999807187
190,23,0.5,0.25,35.0,1,1.0,0.2154000000000451
191,23,0.5,0.25,-35.0,1,0.0,0.03409999999996671
192,23,0.5,0.125,35.0,1,1.0,0.30730000000005475
193,23,0.5,0.25,-35.0,-1,1.0,0.18240000000002965
194,23,0.5,0.0625,-35.0,-1,1.0,0.19680000000005293
195,23,0.5,0.0,35.0,-1,0.0,0.09950000000003456
196,23,0.5,0.25,-35.0,-1,1.0,0.19299999999998363
197,23,0.5,0.0625,35.0,1,1.0,0.29890000000011696
198,23,0.5,0.0625,35.0,1,1.0,0.4841000000000122
199,23,0.5,1.0,35.0,1,1.0,0.18040000000007694
200,23,0.5,0.125,35.0,-1,0.0,0.23169999999993252
201,23,0.5,0.125,35.0,1,1.0,0.17010000000004766
202,23,0.5,0.125,35.0,1,1.0,0.15030000000012933
203,23,0.5,0.25,-35.0,-1,1.0,0.2277000000000271
204,23,0.5,0.25,35.0,1,1.0,1.147600000000125
205,23,0.5,0.25,35.0,1,1.0,0.9305000000000518
206,23,0.5,0.125,-35.0,-1,1.0,0.004600000000095861
207,23,0.5,0.0625,-35.0,1,0.0,6.24980000000005
208,23,0.5,0.125,35.0,1,1.0,0.2216000000000804
209,23,0.5,0.125,-35.0,1,0.0,4.473700000000122
210,23,0.5,0.0,35.0,-1,0.0,0.23660000000006676
211,23,0.5,0.0625,35.0,1,1.0,4.750600000000077
212,23,0.5,0.0625,-35.0,1,0.0,0.25679999999999836
213,23,0.5,0.125,-35.0,-1,1.0,0.2298000000000684
214,23,0.5,0.0625,35.0,-1,0.0,0.18180000000006658
215,23,0.6,0.0625,-35.0,-1,1.0,0.2560000000000855
216,23,0.5,1.0,-35.0,-1,1.0,0.1897999999999911
217,23,0.5,0.125,-35.0,1,0.0,0.22880000000009204
218,23,0.5,0.0625,35.0,-1,0.0,0.2378000000001066
219,23,0.5,0.25,-35.0,-1,1.0,0.03370000000006712
220,23,0.5,0.0625,-35.0,-1,1.0,0.2235000000000582
221,23,0.5,0.25,-35.0,-1,1.0,2.5711000000000013
222,23,0.5,0.0,-35.0,-1,1.0,0.15999999999996817
223,23,0.5,0.0625,35.0,-1,0.0,2.066599999999994
224,23,0.5,0.0625,-35.0,-1,1.0,0.3147000000001299
225,23,0.5,0.25,35.0,1,1.0,1.8751000000000886
226,23,0.5,0.125,-35.0,-1,1.0,0.2236000000000331
227,23,0.5,1.0,-35.0,-1,1.0,0.16079999999999472
228,23,0.5,0.0625,-35.0,-1,1.0,-0.00879999999995107
229,23,0.5,0.125,-35.0,-1,1.0,0.21120000000007622
230,23,0.5,0.25,35.0,1,1.0,0.23260000000004766
231,23,0.5,0.125,35.0,-1,0.0,0.183400000000006
232,23,0.2,0.125,35.0,-1,0.0,0.14780000000018845
233,23,0.5,1.0,-35.0,-1,1.0,0.17180000000007567
234,23,0.5,0.0625,-35.0,-1,1.0,0.20680000000004384
235,23,0.5,1.0,35.0,1,1.0,0.24880000000007385
236,23,0.5,1.0,-35.0,-1,1.0,0.25080000000002656
237,23,0.5,0.25,-35.0,-1,1.0,0.23430000000007567
238,23,0.5,0.0625,35.0,-1,0.0,0.19830000000001746
239,23,0.5,0.125,35.0,1,1.0,0.48720000000002983
240,23,0.5,0.0625,-35.0,-1,1.0,0.19309999999995853
241,23,0.5,0.0,35.0,-1,0.0,0.18420000000003256
242,23,0.5,0.0625,-35.0,-1,1.0,0.2462999999999056
243,23,0.5,0.0,-35.0,-1,1.0,3.2823000000000775
244,23,0.5,0.125,-35.0,-1,1.0,0.2096000000000231
245,23,0.5,0.0625,35.0,-1,0.0,0.18070000000011532
246,23,0.5,0.0625,35.0,-1,0.0,0.17770000000007258
247,23,0.5,0.0625,35.0,-1,0.0,0.3874000000000706
248,23,0.5,0.0,35.0,-1,0.0,0.3651999999999589
249,23,0.1,0.0,35.0,-1,0.0,0.16590000000007876
250,23,0.5,1.0,35.0,1,1.0,0.1732999999999265
251,23,0.5,0.25,35.0,-1,0.0,0.17089999999996053
252,23,0.5,0.25,-35.0,-1,1.0,0.2417000000001508
253,23,0.5,0.25,35.0,1,1.0,0.3447000000001026
254,23,0.5,1.0,-35.0,-1,1.0,0.18610000000012406
255,23,0.5,0.125,35.0,1,1.0,4.463799999999992
256,23,0.5,0.25,35.0,1,1.0,0.4111000000001468
257,23,0.5,0.0625,35.0,1,1.0,0.278699999999958
258,23,0.5,0.125,-35.0,-1,1.0,0.21270000000015443
259,23,0.5,0.0625,35.0,1,1.0,1.1181000000000267
260,23,0.5,0.0625,35.0,-1,0.0,0.18880000000012842
261,23,0.5,0.0625,35.0,1,1.0,0.7026000000000749
262,23,0.5,0.25,-35.0,-1,1.0,1.690900000000056
263,23,0.5,1.0,35.0,1,1.0,0.23030000000005657
264,23,0.5,1.0,35.0,1,1.0,0.39640000000008513
265,23,0.5,0.25,-35.0,-1,1.0,0.30979999999999563
266,23,0.5,0.0,-35.0,1,0.0,0.273900000000026
267,23,0.6,0.0,35.0,-1,0.0,0.25920000000007803
268,23,0.5,1.0,35.0,1,1.0,0.031000000000062755
269,23,0.5,1.0,-35.0,-1,1.0,0.25070000000005166
270,23,0.5,0.0625,35.0,1,1.0,0.4357000000001108
271,23,0.5,0.0625,-35.0,1,0.0,0.2784000000000333
272,23,0.5,0.0625,35.0,1,1.0,0.45449999999993906
273,23,0.5,1.0,35.0,1,1.0,0.2052000000001044
274,23,0.5,0.0,-35.0,-1,1.0,4.146100000000047
275,23,0.5,0.0625,35.0,1,1.0,0.3864000000000942
276,23,0.5,0.25,-35.0,-1,1.0,0.2900000000000773
277,23,0.5,0.125,-35.0,-1,1.0,0.21070000000008804
278,23,0.5,1.0,-35.0,-1,1.0,0.23190000000010969
279,23,0.5,0.125,-35.0,-1,1.0,0.23490000000015243
280,23,0.5,0.0625,-35.0,-1,1.0,1.0399000000001024
281,23,0.5,0.0625,35.0,-1,0.0,0.16469999999992524
282,23,0.5,0.25,35.0,1,1.0,0.2803000000000111
283,23,0.5,1.0,-35.0,-1,1.0,0.19570000000010168
284,23,0.5,0.25,-35.0,-1,1.0,0.3208000000000766
285,23,0.5,1.0,-35.0,-1,1.0,0.2702000000000453
286,23,0.5,0.0,35.0,-1,0.0,0.17179999999996198
287,23,0.5,0.25,-35.0,-1,1.0,0.1609000000000833
288,23,0.5,1.0,-35.0,-1,1.0,0.21830000000011296
289,23,0.5,0.25,35.0,1,1.0,0.2074000000001206
290,23,0.5,0.0,-35.0,1,0.0,3.109100000000012
291,23,0.5,0.0625,35.0,-1,0.0,0.4831000000001495
292,23,0.5,0.125,35.0,-1,0.0,0.171100000000024
293,23,0.5,0.25,-35.0,-1,1.0,0.22420000000010987
294,23,0.5,0.0625,35.0,-1,0.0,0.16160000000002128
295,23,0.2,0.0625,35.0,-1,0.0,0.2983000000000402
296,23,0.5,1.0,35.0,1,1.0,0.22270000000003165
297,23,0.5,0.0625,-35.0,-1,1.0,1.5930999999999358
298,23,0.5,0.25,-35.0,-1,1.0,0.18380000000001928
299,23,0.5,1.0,35.0,1,1.0,0.34330000000011296
300,23,0.5,0.25,35.0,-1,0.0,0.05330000000014934
301,23,0.2,0.25,35.0,1,1.0,0.3669999999999618
302,23,0.5,1.0,35.0,1,1.0,0.29169999999999163
303,23,0.5,0.0,-35.0,-1,1.0,0.21110000000010132
304,23,0.5,1.0,-35.0,-1,1.0,0.15010000000006585
305,23,0.5,1.0,-35.0,-1,1.0,0.24490000000014334
306,23,0.5,0.25,35.0,1,1.0,0.010200000000054388
307,23,0.5,0.125,35.0,-1,0.0,0.14859999999998763
308,23,0.5,0.0625,-35.0,-1,1.0,0.34379999999998745
309,23,0.5,0.0,35.0,-1,0.0,0.4116999999999962
310,23,0.5,0.0625,35.0,-1,0.0,0.22450000000003456
311,23,0.3,0.0625,-35.0,-1,1.0,0.22649999999998727
312,23,0.5,1.0,-35.0,-1,1.0,0.21329999999989013
313,23,0.5,0.125,-35.0,1,0.0,1.8332000000000335
314,23,0.5,0.0625,35.0,-1,0.0,1.8400000000001455
315,23,0.5,0.0,-35.0,1,0.0,0.23340000000007421
316,23,0.5,0.0625,35.0,1,1.0,0.2602000000000544
317,23,0.5,1.0,35.0,1,1.0,0.13009999999997035
318,23,0.5,0.0,-35.0,-1,1.0,0.406800000000203
319,23,0.5,0.0,35.0,-1,0.0,1.4802999999999429
320,23,0.5,0.125,35.0,1,1.0,0.2703000000001339
321,23,0.5,1.0,35.0,1,1.0,0.18029999999998836
322,23,0.5,1.0,35.0,1,1.0,0.7903999999998632
323,23,0.5,0.25,-35.0,-1,1.0,0.19719999999961146
324,23,0.5,1.0,35.0,1,1.0,0.18060000000014043
325,23,0.5,1.0,-35.0,-1,1.0,0.17049999999971988
326,23,0.5,0.0625,-35.0,-1,1.0,0.23719999999980246
327,23,0.5,0.0625,35.0,-1,0.0,0.18729999999982283
328,23,0.5,0.25,35.0,1,1.0,0.543999999999869
329,23,0.5,0.0625,35.0,-1,0.0,0.11740000000008877
330,23,0.5,0.25,-35.0,-1,1.0,0.2140999999999167
331,23,0.5,0.0625,35.0,1,1.0,1.9040999999999713
332,23,0.5,0.125,-35.0,-1,1.0,0.17760000000021137
333,23,0.5,0.125,-35.0,-1,1.0,1.4674999999999727
334,23,0.5,0.0625,35.0,-1,0.0,0.24759999999992033
335,23,0.5,0.0625,-35.0,-1,1.0,0.1476999999997588
336,23,0.5,1.0,-35.0,-1,1.0,0.18450000000007094
337,23,0.5,0.125,35.0,1,1.0,0.22790000000009059
338,23,0.5,0.0625,-35.0,-1,1.0,0.1578999999996995
339,23,0.5,0.25,35.0,1,1.0,0.4679999999998472
340,23,0.5,0.125,35.0,-1,0.0,0.15459999999984575
341,23,0.5,0.0,35.0,-1,0.0,0.31799999999998363
342,23,0.5,0.0625,35.0,1,1.0,0.3246999999998934
343,23,0.5,0.0,35.0,1,1.0,1.2813999999998487
344,23,0.5,0.125,35.0,1,1.0,0.228099999999813
345,23,0.5,0.125,-35.0,-1,1.0,0.5714999999997872
346,23,0.5,0.0625,35.0,1,1.0,0.40830000000005384
347,23,0.5,0.0625,35.0,1,1.0,0.33169999999995525
348,23,0.5,1.0,-35.0,-1,1.0,0.17509999999992942
349,23,0.5,1.0,-35.0,-1,1.0,0.30169999999975516
350,23,0.5,0.0625,-35.0,-1,1.0,1.4816999999998188
351,23,0.5,0.125,35.0,1,1.0,0.46509999999966567
352,23,0.5,0.0625,35.0,1,1.0,0.38840000000004693
353,23,0.5,1.0,35.0,1,1.0,0.16859999999974207
354,23,0.5,0.25,35.0,1,1.0,2.7853000000000065
355,23,0.5,1.0,35.0,1,1.0,0.958699999999908
356,23,0.5,1.0,-35.0,-1,1.0,0.18229999999994106
357,23,0.5,0.0625,35.0,1,1.0,0.46550000000002
358,23,0.5,0.0,35.0,-1,0.0,0.4821999999999207
359,23,0.5,0.0625,35.0,-1,0.0,0.3888999999999214
360,23,0.6,0.0625,-35.0,-1,1.0,0.19889999999986685
361,23,0.5,1.0,-35.0,-1,1.0,0.13229999999998654
362,23,0.5,1.0,35.0,1,1.0,0.1957999999999629
363,23,0.5,0.0625,35.0,-1,0.0,0.15909999999985303
364,23,0.4,0.0625,-35.0,1,0.0,0.26579999999989923
365,23,0.5,1.0,35.0,1,1.0,0.17919999999980973
366,23,0.5,0.0625,35.0,-1,0.0,0.19269999999983156
367,23,0.5,0.0625,35.0,-1,0.0,3.2294999999999163
368,23,0.5,0.125,-35.0,-1,1.0,0.30940000000009604
369,23,0.5,0.125,-35.0,-1,1.0,0.28609999999980573
370,23,0.5,0.125,-35.0,-1,1.0,0.21620000000007167
371,23,0.5,1.0,-35.0,-1,1.0,0.15289999999981774
372,23,0.5,0.125,35.0,1,1.0,0.27289999999993597
373,23,0.5,0.0625,35.0,-1,0.0,0.23299999999994725
374,23,0.5,0.25,-35.0,-1,1.0,0.23969999999985703
375,23,0.5,0.0,-35.0,-1,1.0,0.26309999999989486
376,23,0.5,0.0625,35.0,-1,0.0,0.1897999999998774
377,23,0.1,0.0625,35.0,-1,0.0,0.1797999999998865
378,23,0.5,1.0,-35.0,-1,1.0,0.21319999999991524
379,23,0.5,1.0,-35.0,-1,1.0,0.2499000000000251
380,23,0.5,0.0,-35.0,-1,1.0,0.16669999999999163
381,23,0.5,0.25,35.0,1,1.0,0.5334000000000287
382,23,0.5,0.0625,-35.0,-1,1.0,0.2999999999999545
383,23,0.5,1.0,-35.0,-1,1.0,0.2100999999997839
384,23,0.5,0.125,-35.0,-1,1.0,0.3000999999999294
385,23,0.5,0.125,35.0,1,1.0,0.3468999999997777
386,23,0.5,0.125,-35.0,-1,1.0,0.2868999999998323
387,23,0.5,0.125,35.0,1,1.0,2.323599999999942
388,23,0.5,0.125,-35.0,-1,1.0,0.2503999999998996
389,23,0.5,1.0,-35.0,-1,1.0,0.24709999999981846
390,23,0.5,1.0,-35.0,-1,1.0,0.18379899999990812
391,23,0.5,0.0,35.0,-1,0.0,0.03389999999990323
392,23,0.5,0.0625,35.0,1,1.0,0.1873000000000502
393,23,0.5,0.0,-35.0,1,0.0,0.7806000000000495
394,23,0.5,0.25,35.0,1,1.0,0.1774000000000342
395,23,0.5,0.125,-35.0,-1,1.0,0.19739999999978863
396,23,0.5,0.125,-35.0,-1,1.0,1.2941999999998188
397,23,0.5,0.0,35.0,-1,0.0,0.20419999999990068
398,23,0.3,0.0,35.0,1,1.0,0.1742999999996755
399,23,0.5,1.0,35.0,1,1.0,0.13429999999971187
400,23,0.5,0.125,-35.0,-1,1.0,0.1975999999999658
401,23,0.5,0.0,-35.0,-1,1.0,0.171100000000024
402,23,0.5,1.0,35.0,1,1.0,0.17109999999979664
403,23,0.5,0.25,-35.0,-1,1.0,0.19109999999977845
404,23,0.5,0.125,-35.0,-1,1.0,0.23109999999996944
405,23,0.5,1.0,-35.0,-1,1.0,0.07119999999986248
406,23,0.5,0.125,-35.0,-1,1.0,0.4212999999999738
407,23,0.5,0.125,35.0,1,1.0,0.35130000000003747
408,23,0.5,1.0,35.0,1,1.0,1.9712999999999283
409,23,0.5,1.0,-35.0,-1,1.0,0.20470000000000255
410,23,0.5,0.25,-35.0,-1,1.0,0.2947999999998956
411,23,0.5,0.0625,-35.0,-1,1.0,0.3349000000000615
412,23,0.5,0.125,35.0,1,1.0,0.42830000000003565
413,23,0.5,0.25,35.0,1,1.0,0.3549999999997908
414,23,0.5,0.0625,-35.0,-1,1.0,0.373299999999972
415,23,0.5,0.0625,-35.0,1,0.0,0.5084000000001652
416,23,0.5,0.0625,35.0,1,1.0,0.27530000000001564
417,23,0.5,1.0,-35.0,-1,1.0,0.22519999999985885
418,23,0.5,1.0,-35.0,-1,1.0,0.5253000000000156
419,23,0.5,0.25,35.0,1,1.0,0.22529999999983374
420,23,0.5,0.0625,-35.0,-1,1.0,0.22539999999980864
421,23,0.5,0.0625,-35.0,-1,1.0,0.015299999999797365
422,23,0.5,0.0625,35.0,-1,0.0,0.23889999999983047
423,23,0.5,0.0625,-35.0,-1,1.0,0.19219999999995707
424,23,0.5,0.125,35.0,-1,0.0,0.0988999999999578
425,23,0.5,0.25,-35.0,-1,1.0,0.1721999999997479
426,23,0.5,1.0,-35.0,-1,1.0,0.17899999999985994
427,23,0.5,1.0,35.0,1,1.0,0.18899999999985084
428,23,0.5,0.0625,-35.0,-1,1.0,0.20250000000010004
429,23,0.5,0.0625,35.0,-1,0.0,2.299099999999953
430,23,0.5,0.0625,-35.0,-1,1.0,0.3324999999999818
431,23,0.5,0.125,35.0,1,1.0,0.15260000000012042
432,23,0.5,0.25,-35.0,-1,1.0,0.21270000000004075
433,23,0.5,1.0,35.0,1,1.0,0.39599999999995816
434,23,0.5,1.0,35.0,1,1.0,0.3860999999997148
435,23,0.5,0.0625,35.0,-1,0.0,0.1795999999999367
436,23,0.5,0.125,35.0,-1,0.0,0.43289999999979045
437,23,0.5,0.25,-35.0,-1,1.0,0.2662999999997737
438,23,0.5,1.0,35.0,1,1.0,0.41629999999986467
439,23,0.5,0.125,-35.0,-1,1.0,0.6961999999998625
440,23,0.5,0.25,-35.0,-1,1.0,0.18630000000007385
441,23,0.5,0.0,35.0,-1,0.0,0.21969999999987522
442,23,0.5,0.125,35.0,1,1.0,0.2964999999999236
443,23,0.5,1.0,-35.0,-1,1.0,0.09320000000002437
444,23,0.5,0.125,-35.0,-1,1.0,0.22329999999988104
445,23,0.5,0.0625,-35.0,-1,1.0,0.5234000000000378
446,23,0.5,0.25,-35.0,-1,1.0,0.21669999999994616
447,23,0.5,0.0,35.0,-1,0.0,0.1333999999999378
448,23,0.5,0.25,-35.0,-1,1.0,0.19679999999993925
449,23,0.5,0.0625,35.0,-1,0.0,0.19689999999991414
450,23,0.5,0.125,-35.0,-1,1.0,0.23349999999982174
451,23,0.5,0.125,-35.0,-1,1.0,1.5201999999999316
452,23,0.5,0.25,35.0,-1,0.0,0.5535999999999603
453,23,0.5,0.0625,-35.0,-1,1.0,0.33359999999993306
454,23,0.5,0.0625,35.0,-1,0.0,0.18039999999973588
455,23,0.5,0.0625,35.0,1,1.0,0.48040000000014516
456,23,0.5,0.25,-35.0,-1,1.0,0.28719999999998436
457,23,0.5,0.0625,35.0,-1,0.0,1.6671999999998661
458,23,0.5,0.25,-35.0,-1,1.0,0.19729999999981374
459,23,0.5,0.25,-35.0,-1,1.0,0.23069999999984248
460,23,0.5,0.0,-35.0,-1,1.0,0.2506999999998243
461,23,0.5,1.0,35.0,1,1.0,0.18080000000009022
462,23,0.5,0.125,35.0,1,1.0,0.6274999999998272
463,23,0.5,1.0,35.0,1,1.0,0.300899999999956
464,23,0.5,1.0,-35.0,-1,1.0,0.09439999999995052
465,23,0.5,0.0,-35.0,-1,1.0,3.887599999999793
466,23,0.5,0.125,35.0,-1,0.0,2.4543999999998505
467,23,0.5,0.125,-35.0,-1,1.0,0.20780000000013388
468,23,0.5,0.25,35.0,1,1.0,0.8578999999999724
469,23,0.5,1.0,35.0,1,1.0,0.2079989999999725
470,23,0.5,0.0,-35.0,-1,1.0,0.28799999999978354
471,23,0.5,0.125,35.0,-1,0.0,0.20149999999989632
472,23,0.5,0.125,35.0,1,1.0,0.2481999999999971
473,23,0.5,0.0,-35.0,-1,1.0,0.24159999999983484
474,23,0.5,1.0,-35.0,-1,1.0,0.344899999999825
475,23,0.5,0.25,-35.0,-1,1.0,0.30829999999969004
476,23,0.5,0.125,-35.0,-1,1.0,0.19489999999996144
477,23,0.5,0.0625,35.0,-1,0.0,0.21839999999997417
478,23,0.5,0.25,35.0,1,1.0,0.198399999999765
479,23,0.5,0.25,35.0,1,1.0,0.13859999999976935
480,23,0.5,1.0,-35.0,-1,1.0,0.21860000000015134
481,23,0.5,0.25,35.0,1,1.0,0.4519999999999982
482,23,0.5,0.125,-35.0,-1,1.0,0.36550000000011096
483,23,0.5,0.25,35.0,-1,0.0,2.4588999999998578
484,23,0.3,0.25,35.0,1,1.0,0.2056999999999789
485,23,0.5,1.0,35.0,1,1.0,0.5489999999999782
486,23,0.5,0.0625,35.0,1,1.0,0.5090000000000146
487,23,0.5,0.0,35.0,-1,0.0,0.19239999999990687
488,23,0.6,0.0,-35.0,-1,1.0,0.2557999999999083
489,23,0.5,1.0,-35.0,-1,1.0,0.28579999999988104
490,23,0.5,0.25,-35.0,-1,1.0,0.21919999999977335
491,23,0.5,0.125,-35.0,-1,1.0,0.3026999999999589
492,23,0.5,0.0,-35.0,-1,1.0,0.24260000000003856
493,23,0.5,0.0625,-35.0,-1,1.0,0.1959999999999127
494,23,0.5,1.0,-35.0,-1,1.0,0.379399999999805
495,23,0.5,0.0625,35.0,-1,0.0,0.21280000000001564
496,23,0.5,0.0625,-35.0,-1,1.0,0.5760999999999967
497,23,0.5,0.125,35.0,1,1.0,0.38619999999991705
498,23,0.5,0.0625,35.0,-1,0.0,0.11979999999994106
499,23,0.5,0.25,35.0,1,1.0,0.23289999999974498
500,23,0.5,0.125,35.0,1,1.0,4.406299999999874
501,23,0.5,0.25,35.0,1,1.0,0.3365000000001146
502,23,0.5,0.125,35.0,1,1.0,0.22989999999981592
503,23,0.5,0.0625,35.0,-1,0.0,0.6933000000001357
504,23,0.5,0.0625,-35.0,-1,1.0,0.586699999999837
505,23,0.5,0.0625,35.0,1,1.0,2.660000000000082
506,23,0.5,0.125,35.0,1,1.0,0.7800999999999476
507,23,0.5,0.0,35.0,-1,0.0,0.47689999999988686
508,23,0.5,0.25,35.0,1,1.0,0.22700000000008913
509,23,0.5,0.0625,-35.0,-1,1.0,0.25700000000006185
510,23,0.5,1.0,35.0,1,1.0,0.20369999999979882
511,23,0.5,1.0,35.0,1,1.0,0.19039999999995416
512,23,0.5,0.25,35.0,1,1.0,5.917000000000144
513,23,0.5,0.25,-35.0,-1,1.0,0.2540000000001328
514,23,0.5,0.0625,35.0,1,1.0,0.5339000000001306
515,23,0.5,0.25,35.0,1,1.0,2.6605999999999312
516,23,0.5,1.0,35.0,1,1.0,0.42069999999966967
517,23,0.5,0.25,35.0,1,1.0,0.5373999999999342
518,23,0.5,0.0625,-35.0,-1,1.0,0.3207999999997355
519,23,0.5,0.0625,-35.0,-1,1.0,0.9142000000001644
520,23,0.5,0.0625,35.0,1,1.0,2.827498999999989
521,23,0.5,0.25,-35.0,-1,1.0,0.24779999999964275
522,23,0.5,0.125,-35.0,-1,1.0,0.23769999999990432
523,23,0.5,0.125,-35.0,-1,1.0,0.41439999999988686
524,23,0.5,1.0,35.0,1,1.0,0.5778000000000247
525,23,0.5,0.0,-35.0,-1,1.0,0.22119999999972606
526,23,0.5,0.0625,-35.0,-1,1.0,0.2945999999999458
527,23,0.5,0.125,35.0,1,1.0,0.4178999999999178
528,23,0.5,0.125,35.0,1,1.0,0.41800000000012005
529,23,0.5,0.125,-35.0,-1,1.0,0.2180999999998221
530,23,0.5,0.25,-35.0,-1,1.0,0.21480000000019572
531,23,0.5,0.0625,35.0,-1,0.0,0.22479999999973188
532,23,0.5,0.125,-35.0,-1,1.0,0.22489999999993415
533,23,0.5,0.25,35.0,1,1.0,0.24499999999989086
534,23,0.5,0.25,-35.0,-1,1.0,0.261600000000044
535,23,0.5,0.25,35.0,1,1.0,0.16839999999979227
536,23,0.5,0.125,35.0,-1,0.0,0.3916999999999007
537,23,0.5,0.0,35.0,1,1.0,0.5084999999999127
538,23,0.5,0.125,35.0,-1,0.0,2.6651999999999134
539,23,0.5,0.125,-35.0,-1,1.0,0.37189999999986867
540,23,0.5,1.0,-35.0,-1,1.0,0.1919999999997799
541,23,0.5,0.0,-35.0,-1,1.0,0.2586999999998625
542,23,0.5,0.125,-35.0,-1,1.0,0.22550000000001091
543,23,0.5,0.0,35.0,1,1.0,0.45889999999985776
544,23,0.5,0.25,35.0,1,1.0,1.1187999999999647
545,23,0.5,0.0625,35.0,1,1.0,4.182399999999916
546,23,0.5,0.0625,-35.0,-1,1.0,0.3489999999999327
547,23,0.5,0.0,-35.0,-1,1.0,0.27909999999997126
548,23,0.5,0.25,-35.0,-1,1.0,0.22250000000008185
549,23,0.5,1.0,35.0,1,1.0,0.08249999999975444
550,23,0.5,1.0,-35.0,-1,1.0,0.4557999999999538
551,23,0.5,0.0625,35.0,1,1.0,0.4958999999998923
552,23,0.5,0.0625,-35.0,-1,1.0,0.20939999999995962
553,23,0.5,0.0,35.0,-1,0.0,0.9659999999998945
554,23,0.5,0.0625,-35.0,-1,1.0,0.23279999999999745
555,23,0.5,1.0,-35.0,-1,1.0,0.16619999999988977
556,23,0.5,1.0,35.0,1,1.0,0.6994999999999436
557,23,0.5,0.125,35.0,1,1.0,0.21620000000007167
558,23,0.5,0.0,-35.0,-1,1.0,1.8731000000000222
559,23,0.5,0.125,-35.0,-1,1.0,0.3063000000001921
560,23,0.5,0.0625,-35.0,-1,1.0,0.21309999999994034
561,23,0.5,1.0,-35.0,-1,1.0,0.17660000000000764
562,23,0.5,1.0,35.0,1,1.0,0.1898999999998523
563,23,0.5,0.0625,-35.0,-1,1.0,0.18659999999999854
564,23,0.5,0.125,-35.0,-1,1.0,1.236599999999953
565,23,0.5,1.0,35.0,1,1.0,1.9600000000000364
566,23,0.5,0.125,-35.0,-1,1.0,0.2700999999999567
567,23,0.5,0.0625,-35.0,-1,1.0,0.32339999999999236
568,23,0.5,0.125,35.0,1,1.0,2.5267999999998665
569,23,0.5,0.25,-35.0,-1,1.0,0.22029999999995198
570,23,0.5,0.0625,35.0,-1,0.0,0.2336999999999989
571,23,0.5,0.25,-35.0,-1,1.0,0.1937000000000353
572,23,0.5,1.0,35.0,1,1.0,0.5169999999998254
573,23,0.5,0.25,35.0,-1,0.0,0.13369999999986248
574,23,0.5,0.0,35.0,-1,0.0,0.3470999999999549
575,23,0.5,0.0625,-35.0,-1,1.0,0.2904999999998381
576,23,0.5,1.0,-35.0,-1,1.0,0.3772999999998774
577,23,0.5,0.25,-35.0,-1,1.0,0.23730000000000473
578,23,0.5,0.25,-35.0,-1,1.0,0.9739999999999327
579,23,0.5,1.0,-35.0,-1,1.0,0.2106999999996333
580,23,0.5,0.125,-35.0,-1,1.0,0.2641000000000986
581,23,0.5,0.0625,-35.0,-1,1.0,0.10429999999996653
582,23,0.5,0.0,35.0,-1,0.0,0.5144000000002507
583,23,0.5,0.125,-35.0,-1,1.0,0.2708999999997559
584,23,0.5,1.0,-35.0,-1,1.0,0.21440000000006876
585,23,0.5,1.0,35.0,1,1.0,0.19100000000003092
586,23,0.5,0.25,35.0,1,1.0,0.2176999999999225
587,23,0.5,1.0,-35.0,-1,1.0,0.3144999999999527
588,23,0.5,0.0625,35.0,1,1.0,2.497899999999845
589,23,0.5,0.125,35.0,1,1.0,1.3712000000000444
590,23,0.5,0.125,35.0,-1,0.0,0.26129999999989195
591,23,0.5,0.125,35.0,-1,0.0,0.3647999999998319
592,23,0.4,0.125,35.0,1,1.0,5.1180000000001655
593,23,0.5,1.0,35.0,1,1.0,0.2282999999997628
594,23,0.5,0.125,35.0,-1,0.0,1.0282999999999447
595,23,0.5,0.0625,-35.0,-1,1.0,0.20830000000000837
596,23,0.5,0.0625,-35.0,-1,1.0,0.9317000000000917
597,23,0.5,1.0,-35.0,-1,1.0,0.18849999999974898
598,23,0.5,0.125,-35.0,-1,1.0,0.28510000000005675
599,23,0.5,0.0,35.0,1,1.0,0.4151999999999134
600,23,0.5,0.125,-35.0,-1,1.0,0.26530000000002474
601,23,0.5,0.125,35.0,-1,0.0,0.12860000000000582
602,23,0.5,0.25,35.0,1,1.0,0.25189999999975043
603,23,0.5,0.125,-35.0,-1,1.0,0.2720999999999094
604,23,0.5,0.0625,-35.0,-1,1.0,0.30199999999990723
605,23,0.5,0.0,-35.0,-1,1.0,3.97219999999993
606,23,0.5,1.0,35.0,1,1.0,0.3322000000000571
607,23,0.5,0.0,-35.0,-1,1.0,0.8523000000000138
608,23,0.5,0.25,35.0,-1,0.0,0.4156999999997879
609,23,0.5,0.0,35.0,-1,0.0,0.11569999999983338
610,23,0.5,0.25,-35.0,-1,1.0,0.2323999999998705
611,23,0.5,0.0,35.0,-1,0.0,0.29909999999995307
612,23,0.5,0.125,-35.0,-1,1.0,0.4358999999999469
613,23,0.5,0.0,35.0,-1,0.0,0.23919999999998254
614,23,0.1,0.0,35.0,-1,0.0,0.20929999999998472
615,23,0.5,1.0,35.0,1,1.0,0.16610000000014224
616,23,0.5,0.125,35.0,1,1.0,0.265999999999849
617,23,0.5,1.0,-35.0,-1,1.0,0.6962000000000899
618,23,0.5,0.125,-35.0,-1,1.0,0.24949999999989814
619,23,0.5,0.0625,35.0,1,1.0,0.5661999999999807
620,23,0.5,0.125,35.0,1,1.0,0.49299999999993815
621,23,0.5,0.0625,-35.0,-1,1.0,0.18309999999996762
622,23,0.5,0.125,-35.0,-1,1.0,0.25979999999981374
623,23,0.5,1.0,35.0,1,1.0,0.4898999999998068
624,23,0.5,0.125,35.0,1,1.0,0.5198999999997795
625,23,0.5,0.125,-35.0,-1,1.0,0.2865999999999076
626,23,0.5,0.25,35.0,1,1.0,4.186699999999973
627,23,0.5,0.25,-35.0,-1,1.0,0.2834000000002561
628,23,0.5,0.0625,35.0,-1,0.0,0.2703000000005886
629,23,0.5,0.125,35.0,1,1.0,0.4236000000005333
630,23,0.5,0.25,35.0,1,1.0,0.3735999999998967
631,23,0.5,0.125,-35.0,-1,1.0,0.4869000000003325
632,23,0.5,1.0,-35.0,-1,1.0,0.22040000000015425
633,23,0.5,1.0,-35.0,-1,1.0,0.23040000000037253
634,23,0.5,0.125,-35.0,-1,1.0,0.24700000000075306
635,23,0.5,0.0625,35.0,-1,0.0,3.993800000000647
636,23,0.5,0.0625,35.0,1,1.0,0.44390000000021246
637,23,0.5,0.125,35.0,-1,0.0,0.19399999999995998
638,23,0.3,0.125,-35.0,-1,1.0,0.21070000000008804
639,23,0.5,1.0,35.0,-1,0.0,3.5174000000001797
640,23,0.2,1.0,35.0,1,1.0,0.2240999999999076
641,23,0.5,1.0,-35.0,-1,1.0,0.27080000000023574
642,23,0.5,0.125,35.0,1,1.0,0.23750000000063665
643,23,0.5,0.0625,35.0,1,1.0,1.127599999999802
644,23,0.5,0.125,-35.0,-1,1.0,0.2110000000002401
645,23,0.5,0.0625,35.0,-1,0.0,0.23769999999967695
646,23,0.4,0.0625,-35.0,-1,1.0,0.29460000000017317
647,23,0.5,1.0,35.0,1,1.0,0.3545000000003711
648,23,0.5,0.0,35.0,-1,0.0,0.27460000000019136
649,23,0.5,0.0,-35.0,1,0.0,0.5178999999998268
650,23,0.5,0.25,35.0,1,1.0,0.561399999999594
651,23,0.5,0.125,-35.0,-1,1.0,0.7880000000004657
652,23,0.5,0.0625,-35.0,-1,1.0,0.15810000000010405
653,23,0.5,1.0,35.0,1,1.0,0.9749000000001615
654,23,0.5,0.25,-35.0,-1,1.0,0.49830000000019936
655,23,0.5,0.0625,35.0,-1,0.0,0.32169999999996435
656,23,0.5,0.0625,35.0,-1,0.0,0.09500000000025466
657,23,0.5,0.0625,35.0,1,1.0,0.36850000000004
658,23,0.5,0.25,-35.0,-1,1.0,0.20180000000027576
659,23,0.5,1.0,-35.0,-1,1.0,0.28179999999974825
660,23,0.5,0.125,35.0,-1,0.0,0.31189999999969586
661,23,0.2,0.125,35.0,1,1.0,0.36859999999978754
662,23,0.5,1.0,35.0,1,1.0,0.27860000000009677
663,23,0.5,1.0,35.0,1,1.0,2.395300000000134
664,23,0.5,0.0625,-35.0,-1,1.0,0.7355000000002292
665,23,0.5,0.25,35.0,1,1.0,2.6723000000001775
666,23,0.5,0.25,35.0,1,1.0,0.21560000000044965
667,23,0.5,0.0,35.0,1,1.0,5.722300000000359
668,23,0.5,1.0,35.0,1,1.0,0.9391000000000531
669,23,0.5,0.0625,35.0,1,1.0,0.34580000000005384
670,23,0.5,0.25,-35.0,-1,1.0,0.12249999999994543
671,23,0.5,0.0625,-35.0,1,0.0,0.22089999999980137
672,23,0.5,0.0,35.0,-1,0.0,0.5112000000003718
673,23,0.5,0.125,35.0,-1,0.0,0.228099999999813
674,23,0.6,0.125,-35.0,-1,1.0,0.5243000000000393
675,23,0.5,1.0,35.0,1,1.0,0.1781000000005406
676,23,0.5,0.125,35.0,-1,0.0,0.3643000000001848
677,23,0.5,0.125,-35.0,-1,1.0,0.1878999999998996
678,23,0.5,1.0,-35.0,-1,1.0,0.6912999999999556
679,23,0.5,1.0,35.0,1,1.0,1.8079999999999927
680,23,0.5,0.125,35.0,-1,0.0,5.844500000000153
681,23,0.5,0.0625,-35.0,-1,1.0,0.24820000000045184
682,23,0.5,0.25,-35.0,-1,1.0,0.34140000000024884
683,23,0.5,1.0,-35.0,-1,1.0,0.12220000000024811
684,23,0.5,0.25,35.0,1,1.0,0.38150000000041473
685,23,0.5,0.125,35.0,1,1.0,0.5583999999998923
686,23,0.5,1.0,35.0,1,1.0,0.34850000000051296
687,23,0.5,1.0,35.0,1,1.0,0.17550000000028376
688,23,0.5,0.125,-35.0,-1,1.0,0.37249999999994543
689,23,0.5,0.0625,-35.0,-1,1.0,0.255500000000211
690,23,0.5,0.25,-35.0,-1,1.0,0.2525000000005093
691,23,0.5,0.125,35.0,1,1.0,0.23849999999993088
692,23,0.5,0.0625,35.0,-1,0.0,1.765400000000227
693,23,0.5,0.0625,35.0,-1,0.0,0.912499999999909
694,23,0.5,0.0625,35.0,1,1.0,0.08259999999972933
695,23,0.5,1.0,-35.0,-1,1.0,0.41220000000021173
696,23,0.5,0.125,35.0,-1,0.0,0.39960000000019136
697,23,0.5,0.0625,35.0,-1,0.0,0.4226000000003296
698,23,0.5,0.125,35.0,1,1.0,0.3258000000005268
699,23,0.5,0.125,-35.0,-1,1.0,0.8325999999997293
700,23,0.5,0.125,35.0,1,1.0,0.3326999999999316
701,23,0.5,1.0,35.0,1,1.0,0.16669999999976426
702,23,0.5,0.25,35.0,1,1.0,0.20610000000033324
703,23,0.5,0.0,35.0,-1,0.0,0.42970000000013897
704,23,0.5,0.0625,35.0,1,1.0,0.40259999999989304
705,23,0.5,0.0,35.0,1,1.0,0.39360000000033324
706,23,0.5,0.0625,-35.0,-1,1.0,0.5297000000005028
707,23,0.5,0.0625,35.0,-1,0.0,0.27670000000034634
708,23,0.5,0.25,-35.0,-1,1.0,0.2430000000003929
709,23,0.5,0.25,-35.0,-1,1.0,0.36280000000033397
710,23,0.5,0.25,-35.0,-1,1.0,0.20980000000008658
711,23,0.5,0.25,-35.0,-1,1.0,0.2798000000002503
712,23,0.5,1.0,-35.0,-1,1.0,0.26980000000048676
713,23,0.5,0.0,-35.0,-1,1.0,0.43990000000030705
714,23,0.5,0.25,35.0,1,1.0,0.5338000000001557
715,23,0.5,1.0,35.0,1,1.0,0.3469999999997526
716,23,0.5,0.125,-35.0,-1,1.0,0.21649999999999636
717,23,0.5,1.0,-35.0,-1,1.0,0.5405000000000655
718,23,0.5,0.0625,35.0,1,1.0,0.21390000000064902
719,23,0.5,0.125,-35.0,-1,1.0,0.1408000000001266
720,23,0.5,0.0,35.0,1,1.0,0.3119000000001506
721,23,0.5,0.125,-35.0,-1,1.0,0.21520000000009532
722,23,0.5,0.25,35.0,1,1.0,2.2719999999999345
723,23,0.5,0.25,-35.0,-1,1.0,0.2885999999998603
724,23,0.5,1.0,35.0,1,1.0,0.22890000000006694
725,23,0.5,0.0,35.0,-1,0.0,0.24220000000013897
726,23,0.5,0.0625,35.0,1,1.0,2.1223000000004504
727,23,0.5,0.25,-35.0,-1,1.0,0.21900000000005093
728,23,0.5,1.0,-35.0,-1,1.0,0.1922999999997046
729,23,0.5,1.0,-35.0,-1,1.0,0.058999999999741704
730,23,0.5,0.0625,35.0,1,1.0,0.28909999999996217
731,23,0.5,1.0,-35.0,-1,1.0,0.21250000000009095
732,23,0.5,0.0,35.0,-1,0.0,0.27930000000014843
733,23,0.3,0.0,35.0,1,1.0,0.44929999999976644
734,23,0.5,1.0,35.0,1,1.0,0.539299999999912
735,23,0.5,0.25,-35.0,-1,1.0,0.22600000000011278
736,23,0.5,1.0,-35.0,-1,1.0,0.462800000000243
737,23,0.5,0.0,-35.0,1,0.0,0.4928000000004431
738,23,0.4,0.0,35.0,-1,0.0,0.37290000000029977
739,23,0.5,1.0,-35.0,-1,1.0,0.19970000000012078
740,23,0.5,0.25,-35.0,-1,1.0,0.23959999999988213
741,23,0.5,1.0,35.0,1,1.0,0.15960000000040964
742,23,0.5,0.25,-35.0,-1,1.0,0.33310000000028595
743,23,0.5,0.125,35.0,-1,0.0,0.19309999999995853
744,23,0.3,0.125,35.0,1,1.0,5.943100000000413
745,23,0.5,1.0,35.0,1,1.0,0.423200000000179
746,23,0.5,0.0,35.0,-1,0.0,1.3567000000002736
747,23,0.4,0.0,-35.0,1,0.0,0.44669999999996435
748,23,0.5,1.0,-35.0,-1,1.0,0.17360000000007858
749,23,0.5,0.25,35.0,1,1.0,0.2235000000000582
750,23,0.5,0.25,35.0,1,1.0,0.3769000000002052
751,23,0.5,0.125,-35.0,-1,1.0,0.7136000000000422
752,23,0.5,0.125,-35.0,1,0.0,0.39360000000033324
753,23,0.6,0.125,35.0,1,1.0,0.24370000000044456
754,23,0.5,1.0,35.0,1,1.0,0.21070000000008804
755,23,0.5,1.0,-35.0,-1,1.0,0.28389999999990323
756,23,0.5,0.25,35.0,1,1.0,0.3306000000002314
757,23,0.5,0.125,-35.0,-1,1.0,0.2405999999996311
758,23,0.5,0.25,35.0,1,1.0,0.33730000000014115
759,23,0.5,1.0,35.0,1,1.0,0.4608000000002903
760,23,0.5,0.0,35.0,1,1.0,3.104200000000219
761,23,0.5,1.0,35.0,1,1.0,0.20429999999987558
762,23,0.5,0.125,35.0,1,1.0,0.4244000000003325
763,23,0.5,0.0,-35.0,-1,1.0,0.3976999999999862
764,23,0.5,0.25,-35.0,-1,1.0,0.18440000000009604
765,23,0.5,0.25,35.0,1,1.0,0.30440000000044165
766,23,0.5,1.0,35.0,1,1.0,0.36790000000019063
767,23,0.5,0.0625,35.0,1,1.0,0.28800000000046566
768,23,0.5,0.125,-35.0,-1,1.0,0.308100000000195
769,23,0.5,1.0,-35.0,-1,1.0,0.40140000000019427
770,23,0.5,0.0625,-35.0,-1,1.0,0.1481999999996333
771,23,0.5,0.125,35.0,1,1.0,0.24160000000028958
772,23,0.5,1.0,-35.0,-1,1.0,0.18830000000025393
773,23,0.5,0.25,35.0,1,1.0,0.16499999999996362
774,23,0.5,0.0625,35.0,1,1.0,1.3251000000000204
775,23,0.5,0.0,35.0,-1,0.0,2.4751000000001113
776,23,0.5,0.25,35.0,1,1.0,0.4117999999998574
777,23,0.5,0.0625,35.0,-1,0.0,0.2284999999997126
778,23,0.4,0.0625,35.0,1,1.0,0.5285000000003492
779,23,0.5,1.0,-35.0,-1,1.0,0.42200000000002547
780,23,0.5,0.25,-35.0,-1,1.0,0.30540000000019063
781,23,0.5,0.25,-35.0,-1,1.0,0.31870000000026266
782,23,0.5,0.125,-35.0,-1,1.0,0.21549999999979264
783,23,0.5,0.125,-35.0,-1,1.0,0.27539999999999054
784,23,0.5,0.25,-35.0,-1,1.0,2.0154999999999745
785,23,0.5,0.0625,35.0,-1,0.0,0.21570000000019718
786,23,0.5,0.0625,35.0,-1,0.0,0.3623000000002321
787,23,0.5,0.0625,-35.0,-1,1.0,0.3158000000003085
788,23,0.5,1.0,-35.0,-1,1.0,0.21240000000034343
789,23,0.5,1.0,-35.0,-1,1.0,0.3793000000000575
790,23,0.5,0.25,-35.0,-1,1.0,0.22920000000067375
791,23,0.5,0.125,-35.0,-1,1.0,1.3458999999998014
792,23,0.5,0.0625,35.0,1,1.0,0.28260000000045693
793,23,0.5,0.0625,35.0,-1,0.0,0.3227999999999156
794,23,0.5,0.25,35.0,1,1.0,0.4394000000002052
795,23,0.5,1.0,-35.0,-1,1.0,0.34940000000005966
796,23,0.5,0.0,-35.0,-1,1.0,0.3427999999998974
797,23,0.5,0.25,35.0,1,1.0,0.2496000000001004
798,23,0.5,0.25,-35.0,-1,1.0,0.08629999999993743
799,23,0.5,0.25,35.0,1,1.0,2.8996000000001914
800,23,0.5,0.125,35.0,1,1.0,0.4565000000006876
801,23,0.5,0.125,35.0,1,1.0,0.3599000000003798
802,23,0.5,0.0625,35.0,1,1.0,0.5466000000001259
803,23,0.5,0.125,-35.0,-1,1.0,0.25999999999976353
804,23,0.5,0.0,35.0,1,1.0,0.29000000000041837
805,23,0.5,0.125,35.0,1,1.0,3.063299999999799
806,23,0.5,0.0,-35.0,-1,1.0,1.8401000000003478
807,23,0.5,1.0,35.0,1,1.0,0.18020000000024083
808,23,0.5,0.125,35.0,1,1.0,0.29359999999996944
809,23,0.5,0.125,-35.0,-1,1.0,0.20370000000048094
810,23,0.5,0.0,35.0,-1,0.0,0.36380000000008295
811,23,0.6,0.0,-35.0,1,0.0,0.2304999999996653
812,23,0.5,1.0,-35.0,-1,1.0,0.213799999999992
813,23,0.5,0.0625,35.0,1,1.0,0.2705000000000837
814,23,0.5,1.0,35.0,1,1.0,0.20379999999977372
815,23,0.5,0.0625,-35.0,-1,1.0,1.2339999999999236
816,23,0.5,0.25,-35.0,-1,1.0,0.06739999999990687
817,23,0.5,0.0,35.0,1,1.0,0.9308000000000902
818,23,0.5,0.0625,35.0,1,1.0,0.4242000000003827
819,23,0.5,1.0,-35.0,-1,1.0,0.23760000000038417
820,23,0.5,0.25,35.0,1,1.0,0.500999999999749
821,23,0.5,0.125,-35.0,-1,1.0,0.4210000000002765
822,23,0.5,0.0625,-35.0,-1,1.0,0.45120000000042637
823,23,0.5,0.0625,35.0,1,1.0,0.2511999999996988
824,23,0.5,0.125,-35.0,-1,1.0,0.05300000000033833
825,23,0.5,0.25,-35.0,-1,1.0,0.24119999999993524
826,23,0.5,0.25,35.0,1,1.0,0.24130000000059226
827,23,0.5,1.0,35.0,-1,0.0,1.8747000000003027
828,23,0.5,0.0625,35.0,1,1.0,0.2147000000004482
829,23,0.5,0.0625,-35.0,-1,1.0,0.3312999999998283
830,23,0.5,0.125,-35.0,1,0.0,0.298200000000179
831,23,0.5,0.25,-35.0,-1,1.0,0.5316000000002532
832,23,0.5,0.25,-35.0,-1,1.0,0.27160000000048967
833,23,0.5,0.125,35.0,1,1.0,0.21489999999994325
834,23,0.5,0.25,-35.0,-1,1.0,0.24850000000014916
835,23,0.5,0.0,-35.0,-1,1.0,0.2118000000000393
836,23,0.5,0.125,35.0,1,1.0,3.2851000000000568
837,23,0.5,0.25,-35.0,-1,1.0,0.2519000000002052
838,23,0.5,0.0625,-35.0,1,0.0,0.512000000000171
839,23,0.4,0.0625,35.0,-1,0.0,0.13540000000011787
840,23,0.5,1.0,35.0,1,1.0,0.4954999999999927
841,23,0.5,0.125,-35.0,-1,1.0,0.31550000000015643
842,23,0.5,0.25,-35.0,-1,1.0,0.2988000000000284
843,23,0.5,1.0,-35.0,-1,1.0,0.21889999999984866
844,23,0.5,1.0,-35.0,-1,1.0,0.2556000000004133
845,23,0.5,0.0625,-35.0,-1,1.0,0.38890000000037617
846,23,0.5,0.0625,-35.0,-1,1.0,0.17570000000023356
847,23,0.5,0.0625,-35.0,-1,1.0,0.39580000000023574
848,23,0.5,0.125,35.0,1,1.0,0.19259999999985666
849,23,0.5,1.0,-35.0,-1,1.0,0.38590000000021973
850,23,0.5,0.0625,35.0,-1,0.0,0.21260000000029322
851,23,0.5,0.125,35.0,1,1.0,0.32930000000033033
852,23,0.5,0.0625,-35.0,-1,1.0,0.20610000000033324
853,23,0.5,0.125,35.0,-1,0.0,0.8828000000003158
854,23,0.5,0.0625,35.0,1,1.0,0.5728999999996631
855,23,0.5,0.25,35.0,1,1.0,0.5761000000002241
856,23,0.5,0.0625,-35.0,-1,1.0,0.17630000000008295
857,23,0.5,1.0,-35.0,-1,1.0,0.2563000000000102
858,23,0.5,0.25,35.0,1,1.0,0.49650000000019645
859,23,0.5,1.0,-35.0,-1,1.0,0.4631000000003951
860,23,0.5,0.0,-35.0,-1,1.0,0.2498000000000502
861,23,0.5,0.0625,35.0,1,1.0,0.3998000000005959
862,23,0.5,1.0,35.0,1,1.0,0.5433000000002721
863,23,0.5,0.125,-35.0,-1,1.0,0.24000000000023647
864,23,0.5,0.25,-35.0,-1,1.0,0.2699999999999818
865,23,0.5,1.0,-35.0,-1,1.0,0.24350000000049477
866,23,0.5,1.0,35.0,1,1.0,2.126900000000205
867,23,0.5,0.25,-35.0,-1,1.0,0.29020000000036816
868,23,0.5,0.0625,35.0,1,1.0,0.42359999999962383
869,23,0.5,0.25,35.0,1,1.0,0.19370000000026266
870,23,0.5,0.25,-35.0,-1,1.0,0.2903000000001157
871,23,0.5,0.125,-35.0,-1,1.0,0.140400000000227
872,23,0.5,0.125,35.0,1,1.0,0.283900000000358
873,23,0.5,0.0625,35.0,-1,0.0,0.2238999999999578
874,23,0.5,0.0,35.0,1,1.0,0.5273000000001957
875,23,0.5,0.0,-35.0,1,0.0,1.0005999999998494
876,23,0.5,0.0625,35.0,-1,0.0,0.37750000000005457
877,23,0.5,0.0625,-35.0,-1,1.0,0.10070000000041546
878,23,0.5,1.0,-35.0,-1,1.0,0.9440999999997075
879,23,0.5,0.125,35.0,1,1.0,1.7242000000001099
880,23,0.5,0.125,35.0,1,1.0,1.7009000000002743
881,23,0.5,0.0625,-35.0,-1,1.0,0.21420000000034634
882,23,0.5,1.0,35.0,1,1.0,0.9276000000004387
883,23,0.5,0.0625,-35.0,-1,1.0,0.21109999999998763
884,23,0.5,0.125,-35.0,-1,1.0,0.23440000000027794
885,23,0.5,1.0,-35.0,-1,1.0,0.19450000000006185
886,23,0.5,0.0625,35.0,1,1.0,2.8880000000003747
887,23,0.5,0.125,35.0,1,1.0,3.458100000000286
888,23,0.5,0.125,-35.0,-1,1.0,0.5282999999999447
889,23,0.5,1.0,-35.0,-1,1.0,0.394800000000032
890,23,0.5,0.25,-35.0,-1,1.0,0.2517000000002554
891,23,0.5,0.0,35.0,-1,0.0,0.18500000000040018
892,23,0.5,0.0625,-35.0,-1,1.0,0.19510000000036598
893,23,0.5,0.25,-35.0,-1,1.0,0.2217000000000553
894,23,0.5,1.0,35.0,1,1.0,1.0085000000003674
895,23,0.5,0.0625,-35.0,-1,1.0,0.18859999999995125
896,23,0.5,1.0,35.0,1,1.0,1.2285000000001673
897,23,0.5,1.0,35.0,1,1.0,0.19860000000016953
898,23,0.5,0.0,35.0,-1,0.0,0.6586000000002059
899,23,0.5,0.25,35.0,1,1.0,0.2420999999999367
900,23,0.5,0.25,35.0,1,1.0,0.9787000000005719
901,23,0.5,0.0625,35.0,1,1.0,4.195600000000468
902,23,0.5,0.125,35.0,1,1.0,0.18229999999994106
903,23,0.5,1.0,-35.0,-1,1.0,0.34560000000010405
904,23,0.5,1.0,-35.0,-1,1.0,0.3823000000002139
905,23,0.5,0.125,-35.0,-1,1.0,0.7690999999999804
906,23,0.5,0.0625,-35.0,-1,1.0,0.34270000000060463
907,23,0.5,1.0,35.0,1,1.0,0.23590000000058353
908,23,0.5,0.0625,-35.0,-1,1.0,1.309400000000096
909,23,0.5,0.0625,-35.0,-1,1.0,0.36619999999993524
910,23,0.5,0.125,35.0,-1,0.0,0.36280000000033397
911,23,0.5,0.125,35.0,1,1.0,0.41950000000042564
912,23,0.5,0.0,-35.0,-1,1.0,0.17780000000038854
913,23,0.5,0.125,-35.0,-1,1.0,8.308800000000247
914,23,0.5,0.0625,-35.0,-1,1.0,0.27190000000064174
915,23,0.5,0.25,-35.0,-1,1.0,0.20820000000003347
916,23,0.5,0.25,-35.0,-1,1.0,0.19820000000026994
917,23,0.5,1.0,-35.0,-1,1.0,0.3088999999999942
918,23,0.5,1.0,-35.0,-1,1.0,0.20519999999987704
919,23,0.5,0.0625,-35.0,-1,1.0,0.29830000000038126
920,23,0.5,0.125,35.0,-1,0.0,0.35900000000037835
921,23,0.5,0.25,35.0,1,1.0,0.30900000000019645
922,23,0.5,0.0,-35.0,-1,1.0,0.191899999999805
923,23,0.5,0.0625,-35.0,-1,1.0,0.3787999999999556
924,23,0.5,1.0,-35.0,-1,1.0,0.1952000000001135
925,23,0.5,1.0,-35.0,-1,1.0,0.17619999999988067
926,23,0.5,0.0,-35.0,-1,1.0,0.008900000000267028
927,23,0.5,0.125,-35.0,-1,1.0,0.1421000000004824
928,23,0.5,1.0,35.0,1,1.0,0.25919999999996435
929,23,0.5,1.0,-35.0,-1,1.0,0.22230000000035943
930,23,0.5,0.25,-35.0,-1,1.0,0.183100000000195
931,23,0.5,0.0625,35.0,1,1.0,0.2992000000003827
932,23,0.5,1.0,35.0,1,1.0,0.18920000000025539
933,23,0.5,0.0,-35.0,-1,1.0,0.245600000000195
934,23,0.5,1.0,35.0,1,1.0,0.3425000000002001
935,23,0.5,0.0625,-35.0,-1,1.0,0.21920000000000073
936,23,0.5,1.0,-35.0,-1,1.0,0.17250000000012733
937,23,0.5,1.0,35.0,-1,0.0,0.14269999999987704
938,23,0.5,0.25,35.0,1,1.0,0.29630000000042855
939,23,0.5,0.125,35.0,-1,0.0,0.28969999999981155
940,23,0.4,0.125,35.0,1,1.0,0.9034000000006017
941,23,0.5,1.0,35.0,1,1.0,0.9597000000003391
942,23,0.5,0.25,-35.0,-1,1.0,0.28969999999981155
943,23,0.5,0.125,35.0,1,1.0,0.4665000000004511
944,23,0.5,1.0,-35.0,-1,1.0,0.1732999999999265
945,23,0.5,0.0625,35.0,1,1.0,0.25680000000011205
946,23,0.5,0.0625,-35.0,-1,1.0,0.176600000000235
947,23,0.5,0.125,35.0,1,1.0,0.573500000000422
948,23,0.5,0.0,35.0,-1,0.0,0.33670000000029177
949,23,0.5,0.25,-35.0,-1,1.0,0.257600000000366
950,23,0.5,0.25,35.0,1,1.0,0.23059999999986758
951,23,0.5,1.0,35.0,1,1.0,0.15360000000055152
952,23,0.5,0.125,-35.0,-1,1.0,0.2037000000000262
953,23,0.5,0.0625,-35.0,-1,1.0,0.22070000000030632
954,23,0.5,1.0,35.0,1,1.0,0.9742000000001099
955,23,0.5,0.25,-35.0,-1,1.0,0.22049999999990177
956,23,0.5,1.0,35.0,1,1.0,1.0207000000000335
957,23,0.5,1.0,-35.0,-1,1.0,0.4076999999997497
958,23,0.5,0.125,35.0,1,1.0,3.074000000000069
959,23,0.5,1.0,-35.0,-1,1.0,0.20080000000007203
960,23,0.5,0.0625,35.0,-1,0.0,0.2674000000001797
961,23,0.5,0.125,35.0,1,1.0,0.5613000000003012
962,23,0.5,0.125,-35.0,-1,1.0,0.23129999999991924
963,23,0.5,1.0,-35.0,-1,1.0,0.24420000000009168
964,23,0.5,1.0,35.0,1,1.0,0.15419999999994616
965,23,0.5,0.0,35.0,-1,0.0,0.3409999999998945
966,23,0.5,0.0,-35.0,1,0.0,0.3310999999998785
967,23,0.4,0.0,35.0,-1,0.0,0.32799999999997453
968,23,0.5,1.0,-35.0,-1,1.0,0.19200000000000728
969,23,0.5,0.0625,35.0,1,1.0,0.6480000000001382
970,23,0.5,0.125,-35.0,-1,1.0,0.19150000000036016
971,23,0.5,0.0625,-35.0,-1,1.0,0.36500000000023647
972,23,0.5,1.0,-35.0,-1,1.0,0.3047999999998865
973,23,0.5,0.0625,35.0,1,1.0,0.15150000000039654
974,23,0.5,0.0625,35.0,-1,0.0,0.375100000000657
975,23,0.3,0.0625,-35.0,1,0.0,0.18820000000005166
976,23,0.5,1.0,-35.0,-1,1.0,0.25840000000016516
977,23,0.5,0.125,-35.0,-1,1.0,0.3526000000001659
978,23,0.5,0.25,35.0,-1,0.0,0.14520000000038635
979,23,0.3,0.25,-35.0,-1,1.0,0.23869999999988067
980,23,0.5,1.0,35.0,1,1.0,0.45220000000017535
981,23,0.5,0.0625,35.0,-1,0.0,2.3153000000002066
982,23,0.5,0.125,35.0,1,1.0,0.22560000000066793
983,23,0.5,0.125,35.0,1,1.0,0.44230000000015934
984,23,0.5,0.125,-35.0,-1,1.0,0.4257999999999811
985,23,0.5,1.0,-35.0,-1,1.0,0.19250000000010914
986,23,0.5,0.125,35.0,1,1.0,0.13580000000001746
987,23,0.5,0.0625,-35.0,-1,1.0,0.3694000000000415
988,23,0.5,1.0,35.0,1,1.0,0.1724000000003798
989,23,0.5,0.0,-35.0,-1,1.0,0.3526000000001659
990,23,0.5,0.125,-35.0,-1,1.0,2.5625000000004547
991,23,0.5,0.0,35.0,-1,0.0,0.2265000000006694
992,23,0.5,0.25,35.0,1,1.0,0.5425999999997657
993,23,0.5,0.125,35.0,-1,0.0,0.896900000000187
994,23,0.5,0.0625,35.0,1,1.0,0.22950000000037107
995,23,0.5,0.0625,-35.0,-1,1.0,0.37290000000029977
996,23,0.5,1.0,-35.0,-1,1.0,0.29290000000037253
997,23,0.5,0.25,35.0,1,1.0,0.28660000000036234
998,23,0.5,0.25,-35.0,-1,1.0,0.2830000000003565
999,23,0.5,1.0,-35.0,-1,1.0,0.25649999999996
1000,23,0.5,0.25,35.0,1,1.0,0.1396999999997206
1001,23,0.5,0.25,35.0,1,1.0,0.2964999999999236
1002,23,0.5,0.0625,-35.0,-1,1.0,0.41970000000037544
1003,23,0.5,0.125,35.0,1,1.0,0.720600000000104
1004,23,0.5,0.125,-35.0,-1,1.0,0.20699999999987995
1005,23,0.5,0.0625,35.0,1,1.0,0.2201999999997497
1006,23,0.5,0.125,35.0,1,1.0,0.986699999999928
1007,23,0.5,1.0,-35.0,-1,1.0,0.21350000000029468
1008,23,0.5,0.0625,35.0,1,1.0,0.3706999999999425
1009,23,0.5,0.25,-35.0,-1,1.0,0.27359999999998763
1010,23,0.5,0.25,35.0,1,1.0,0.3538000000003194
1011,23,0.5,0.0625,-35.0,-1,1.0,0.20710000000008222
1012,23,0.5,0.0625,35.0,-1,0.0,0.21079999999983556
1013,23,0.5,0.0,35.0,1,1.0,0.26050000000032014
1014,23,0.5,0.0,35.0,1,1.0,2.630699999999706
1015,23,0.5,0.125,35.0,1,1.0,0.4572000000002845
1016,23,0.5,0.25,35.0,1,1.0,3.3805999999999585
1017,23,0.5,0.25,35.0,1,1.0,0.31730000000015934
1018,23,0.5,0.125,35.0,1,1.0,0.36750000000029104
1019,23,0.5,0.125,-35.0,-1,1.0,0.31440000000065993
1020,23,0.5,0.0625,-35.0,-1,1.0,0.26749999999992724
1021,23,0.5,0.0625,35.0,1,1.0,0.5145000000006803
1022,23,0.5,1.0,35.0,1,1.0,0.16760000000022046
1023,23,0.5,0.25,-35.0,-1,1.0,0.40110000000049695
1024,23,0.5,0.125,-35.0,-1,1.0,0.6750999999999294
1025,23,0.5,1.0,-35.0,-1,1.0,0.4751000000001113
1026,23,0.5,0.125,35.0,-1,0.0,0.5444999999999709
1027,23,0.5,0.125,-35.0,-1,1.0,0.2381000000000313
1028,23,0.5,1.0,35.0,1,1.0,0.1822000000006483
1029,23,0.5,1.0,35.0,1,1.0,0.19200000000000728
1030,23,0.5,1.0,35.0,1,1.0,0.2881999999999607
1031,23,0.5,0.125,-35.0,-1,1.0,0.9447000000000116
1032,23,0.5,0.25,35.0,1,1.0,0.40480000000070504
1033,23,0.5,1.0,-35.0,-1,1.0,0.24530000000004293
1034,23,0.5,0.125,35.0,1,1.0,0.23540000000002692
1035,23,0.5,1.0,-35.0,-1,1.0,0.15230000000019572
1036,23,0.5,1.0,35.0,1,1.0,0.3283000000001266
1037,23,0.5,1.0,35.0,1,1.0,0.848500000000513
1038,23,0.5,0.125,35.0,1,1.0,0.23529999999982465
1039,23,0.5,1.0,35.0,1,1.0,0.45539999999982683
1040,23,0.5,0.125,35.0,1,1.0,0.3219000000003689
1041,23,0.5,0.0,-35.0,-1,1.0,0.09040000000049986
1042,23,0.5,0.25,35.0,1,1.0,0.6795000000001892
1043,23,0.5,0.0625,-35.0,-1,1.0,0.38899999999966894
1044,23,0.5,0.25,-35.0,-1,1.0,1.179500000000644
1045,23,0.5,0.125,35.0,1,1.0,0.17250000000012733
1046,23,0.5,0.0,35.0,-1,0.0,0.4088000000001557
1047,23,0.5,0.0625,35.0,1,1.0,0.28250000000025466
1048,23,0.5,1.0,35.0,1,1.0,0.5556000000001404
1049,23,0.5,0.0625,-35.0,-1,1.0,0.20580000000063592
1050,23,0.5,0.25,-35.0,-1,1.0,0.23590000000012878
1051,23,0.5,1.0,-35.0,-1,1.0,0.2096000000001368
1052,23,0.5,1.0,35.0,1,1.0,0.24950000000035288
1053,23,0.5,0.25,-35.0,-1,1.0,0.23280000000022483
1054,23,0.5,0.0625,-35.0,-1,1.0,0.3567000000002736
1055,23,0.5,1.0,-35.0,-1,1.0,0.21970000000055734
1056,23,0.5,1.0,35.0,1,1.0,0.1494000000006963
1057,23,0.5,1.0,35.0,1,1.0,1.4197999999996682
1058,23,0.5,0.0625,35.0,1,1.0,0.6596999999997024
1059,23,0.5,1.0,35.0,1,1.0,0.19669999999996435
1060,23,0.5,0.25,-35.0,-1,1.0,0.20650000000023283
1061,23,0.5,1.0,-35.0,-1,1.0,0.22670000000016444
1062,23,0.5,0.25,35.0,1,1.0,0.246700000000601
1063,23,0.5,0.0625,-35.0,-1,1.0,0.26010000000042055
1064,23,0.5,0.25,35.0,1,1.0,1.106800000000021
1065,23,0.5,0.0,35.0,-1,0.0,0.32690000000047803
1066,23,0.6,0.0,-35.0,-1,1.0,0.396900000000187
1067,23,0.5,1.0,35.0,1,1.0,0.3670000000001892
1068,23,0.5,0.0625,35.0,1,1.0,0.1835000000000946
1069,23,0.5,0.25,35.0,1,1.0,0.18699999999989814
1070,23,0.5,0.25,-35.0,-1,1.0,0.31379999999990105
1071,23,0.5,0.125,-35.0,-1,1.0,0.21709999999984575
1072,23,0.5,0.25,-35.0,-1,1.0,0.22410000000036234
1073,23,0.5,0.125,35.0,-1,0.0,0.3538000000003194
1074,23,0.5,0.125,-35.0,-1,1.0,0.17709999999988213
1075,23,0.5,0.25,-35.0,-1,1.0,0.260899999999765
1076,23,0.5,0.0625,-35.0,-1,1.0,0.18409999999994398
1077,23,0.5,1.0,35.0,1,1.0,0.6607999999996537
1078,23,0.5,0.125,-35.0,-1,1.0,0.20109999999976935
1079,23,0.5,0.0625,-35.0,-1,1.0,0.31110000000035143
1080,23,0.5,0.0625,-35.0,-1,1.0,0.2011000000002241
1081,23,0.5,0.125,-35.0,-1,1.0,0.2681999999999789
1082,23,0.5,0.25,-35.0,-1,1.0,0.6276000000002568
1083,23,0.5,1.0,35.0,1,1.0,0.9312000000004446
1084,23,0.5,0.0625,35.0,-1,0.0,0.33820000000059736
1085,23,0.5,0.0625,-35.0,-1,1.0,0.17430000000013024
1086,23,0.5,0.125,35.0,1,1.0,0.208299999999781
1087,23,0.5,0.25,-35.0,-1,1.0,0.21440000000029613
1088,23,0.5,0.0625,-35.0,-1,1.0,0.21450000000004366
1089,23,0.5,0.0625,-35.0,-1,1.0,0.22810000000026776
1090,23,0.5,0.25,-35.0,-1,1.0,0.5815999999999804
1091,23,0.5,0.0625,-35.0,-1,1.0,0.15840000000071086
1092,23,0.5,0.125,-35.0,-1,1.0,0.3247000000001208
1093,23,0.5,1.0,-35.0,-1,1.0,0.21199999999998909
1094,23,0.5,1.0,35.0,1,1.0,0.5418000000004213
1095,23,0.5,0.25,-35.0,-1,1.0,0.394800000000032
1096,23,0.5,0.25,35.0,1,1.0,0.2523999999998523
1097,23,0.5,0.25,-35.0,-1,1.0,0.2655000000004293
1098,23,0.5,1.0,-35.0,-1,1.0,0.19860000000016953
1099,23,0.5,0.25,35.0,1,1.0,0.2953000000002248
1100,23,0.5,0.25,-35.0,-1,1.0,0.22859900000003108
1101,23,0.5,0.0625,35.0,1,1.0,0.26519999999982247
1102,23,0.5,0.25,-35.0,-1,1.0,0.1888000000003558
1103,23,0.5,0.25,-35.0,-1,1.0,0.20550000000048385
1104,23,0.5,1.0,-35.0,-1,1.0,0.2286999999996624
1105,23,0.5,0.0,-35.0,-1,1.0,0.22550000000001091
1106,23,0.5,1.0,35.0,1,1.0,0.8489000000004125
1107,23,0.5,0.125,35.0,-1,0.0,2.072700000000168
1108,23,0.3,0.125,35.0,-1,0.0,0.29240000000027067
1109,23,0.5,1.0,35.0,1,1.0,0.19569999999976062
1110,23,0.5,0.0,-35.0,-1,1.0,1.0389000000004671
1111,23,0.5,0.0625,35.0,1,1.0,0.2531000000003587
1112,23,0.5,0.0625,35.0,1,1.0,0.2256999999999607
1113,23,0.5,0.0625,-35.0,-1,1.0,0.7096000000001368
1114,23,0.5,0.125,-35.0,-1,1.0,0.3890999999998712
1115,23,0.5,0.0625,-35.0,-1,1.0,0.29280000000017026
1116,23,0.5,0.0625,35.0,1,1.0,0.24279999999998836
1117,23,0.5,0.125,-35.0,-1,1.0,0.2628000000004249
1118,23,0.5,1.0,35.0,1,1.0,0.5727000000001681
1119,23,0.5,0.0625,-35.0,1,0.0,5.249700000000303
1120,23,0.5,0.0625,35.0,1,1.0,0.279700000000048
1121,23,0.5,0.25,-35.0,-1,1.0,0.26640000000043074
1122,23,0.5,0.0625,35.0,1,1.0,4.336900000000242
1123,23,0.5,0.125,-35.0,-1,1.0,0.6770000000001346
1124,23,0.5,1.0,35.0,1,1.0,0.2768999999998414
1125,23,0.5,0.0625,-35.0,-1,1.0,0.32400000000052387
1126,23,0.5,0.0625,-35.0,-1,1.0,0.23340000000052896
1127,23,0.5,0.0625,-35.0,-1,1.0,0.2301000000006752
1128,23,0.5,0.25,35.0,1,1.0,0.18009999999958382
1129,23,0.5,0.0625,-35.0,-1,1.0,0.2371000000002823
1130,23,0.5,0.25,35.0,1,1.0,2.5440999999996166
1131,23,0.5,0.125,35.0,1,1.0,2.0336000000006607
1132,23,0.5,0.0,-35.0,1,0.0,0.7145000000004984
1133,23,0.5,0.0,35.0,-1,0.0,0.27719999999999345
1134,23,0.5,0.0625,35.0,-1,0.0,1.417399999999816
1135,23,0.5,0.0,35.0,-1,0.0,0.288300000000163
1136,23,0.4,0.0,-35.0,1,0.0,0.3407999999999447
1137,23,0.5,1.0,-35.0,-1,1.0,0.22800000000052023
1138,23,0.5,1.0,35.0,1,1.0,5.594300000000203
1139,23,0.5,0.0625,35.0,-1,0.0,0.16760000000022046
1140,23,0.5,0.0625,35.0,1,1.0,1.9644000000002961
1141,23,0.5,1.0,35.0,1,1.0,0.1613999999999578
1142,23,0.5,1.0,35.0,1,1.0,0.3380000000001928
1143,23,0.5,0.0,-35.0,-1,1.0,0.30150000000003274
1144,23,0.5,0.25,-35.0,-1,1.0,0.25460000000020955
1145,23,0.5,0.0,-35.0,1,0.0,0.5780000000004293
1146,23,0.6,0.0,-35.0,-1,1.0,0.49479999999994106
1147,23,0.5,1.0,35.0,1,1.0,0.21480000000065047
1148,23,0.5,0.125,35.0,-1,0.0,0.35859999999956926
1149,23,0.5,0.0625,-35.0,-1,1.0,0.36560000000008586
1150,23,0.5,0.125,-35.0,-1,1.0,0.3449000000000524
1151,23,0.5,0.125,-35.0,-1,1.0,0.2952000000004773
1152,23,0.5,0.25,-35.0,-1,1.0,0.2026000000005297
1153,23,0.5,1.0,35.0,1,1.0,3.2686000000003332
1154,23,0.5,0.25,-35.0,-1,1.0,0.30589999999983775
1155,23,0.5,0.125,-35.0,-1,1.0,0.188600000000406
1156,23,0.5,1.0,-35.0,-1,1.0,0.17540000000053624
1157,23,0.5,0.0625,-35.0,-1,1.0,0.235700000000179
1158,23,0.5,0.0,-35.0,1,0.0,3.628700000000208
1159,23,0.2,0.0,35.0,-1,0.0,0.7321999999999207
1160,23,0.5,1.0,35.0,1,1.0,0.26230000000032305
1161,23,0.5,1.0,35.0,1,1.0,0.30569999999988795
1162,23,0.5,0.125,-35.0,-1,1.0,0.6657000000000153
1163,23,0.5,0.25,35.0,1,1.0,0.3299000000001797
1164,23,0.5,0.125,-35.0,-1,1.0,0.20580000000018117
1165,23,0.5,0.0,35.0,-1,0.0,0.37980000000015934
1166,23,0.5,0.0625,-35.0,1,0.0,0.3990990000002057
1167,23,0.5,0.125,-35.0,-1,1.0,0.30300000000033833
1168,23,0.5,0.125,-35.0,-1,1.0,0.1993000000002212
1169,23,0.5,0.0625,35.0,-1,0.0,0.2726000000006934
1170,23,0.5,0.0625,35.0,1,1.0,0.30979999999999563
1171,23,0.5,0.0625,-35.0,-1,1.0,0.2596000000003187
1172,23,0.5,0.25,-35.0,-1,1.0,0.26289900000028865
1173,23,0.5,0.25,-35.0,-1,1.0,0.20659999999998035
1174,23,0.5,1.0,-35.0,-1,1.0,0.49670000000014625
1175,23,0.5,0.125,35.0,1,1.0,0.2931000000003223
1176,23,0.5,0.0625,-35.0,-1,1.0,0.41330000000061773
1177,23,0.5,0.25,-35.0,-1,1.0,0.22319999999990614
1178,23,0.5,1.0,35.0,1,1.0,0.20650000000023283
1179,23,0.5,0.125,-35.0,-1,1.0,0.21660000000019863
1180,23,0.5,0.125,35.0,-1,0.0,0.3602000000000771
1181,23,0.5,0.0625,35.0,1,1.0,0.5299999999997453
1182,23,0.5,0.25,35.0,1,1.0,0.27660000000014406
1183,23,0.5,0.25,-35.0,-1,1.0,0.20349999999962165
1184,23,0.5,1.0,35.0,1,1.0,0.23360000000047876
1185,23,0.5,1.0,-35.0,-1,1.0,0.22029999999995198
1186,23,0.5,0.25,-35.0,-1,1.0,0.5203000000001339
1187,23,0.5,0.25,35.0,-1,0.0,0.55370000000039
1188,23,0.5,0.25,-35.0,-1,1.0,0.35710000000017317
1189,23,0.5,1.0,-35.0,-1,1.0,0.1574000000000524
1190,23,0.5,0.0,-35.0,-1,1.0,0.2739000000001397
1191,23,0.5,0.125,35.0,1,1.0,0.2737000000001899
1192,23,0.5,1.0,35.0,1,1.0,0.16370000000006257
1193,23,0.5,0.25,35.0,1,1.0,0.13059999999995853
1194,23,0.5,0.0625,-35.0,-1,1.0,0.40399999999999636
1195,23,0.5,0.0625,-35.0,-1,1.0,0.6340000000000146
1196,23,0.5,0.0,-35.0,-1,1.0,0.6606000000001586
1197,23,0.5,0.125,-35.0,-1,1.0,0.09750000000030923
1198,23,0.5,0.125,35.0,-1,0.0,0.26450000000022555
1199,23,0.5,0.0,35.0,-1,0.0,0.22780000000057044
1200,23,0.3,0.0,35.0,1,1.0,4.141500000000178
1201,23,0.5,1.0,-35.0,-1,1.0,0.20460000000002765
1202,23,0.5,1.0,35.0,1,1.0,0.5511999999998807
1203,23,0.5,0.0625,-35.0,-1,1.0,0.7678000000000793
1204,23,0.5,0.25,35.0,1,1.0,2.1117000000003827
1205,23,0.5,0.0625,35.0,-1,0.0,0.12470000000030268
1206,23,0.5,0.25,-35.0,-1,1.0,0.3087000000000444
1207,23,0.5,1.0,35.0,1,1.0,0.3481000000001586
1208,23,0.5,0.0,-35.0,1,0.0,0.17870000000039
1209,23,0.5,0.0,-35.0,1,0.0,0.23880000000008295
1210,23,0.5,1.0,-35.0,-1,1.0,0.20820000000048822
1211,23,0.5,0.25,35.0,1,1.0,0.24180000000023938
1212,23,0.5,0.125,-35.0,-1,1.0,0.22850000000016735
1213,23,0.5,0.0625,-35.0,-1,1.0,0.3987999999999374
1214,23,0.5,1.0,35.0,1,1.0,1.4251000000003842
1215,23,0.5,0.25,-35.0,-1,1.0,0.20889999999963038
1216,23,0.5,0.0625,-35.0,-1,1.0,0.21889999999984866
1217,23,0.5,0.0625,35.0,-1,0.0,0.2058999999999287
1218,23,0.4,0.0625,-35.0,-1,1.0,0.43879999999990105
1219,23,0.5,1.0,35.0,1,1.0,0.24550000000090222
1220,23,0.5,0.0,-35.0,-1,1.0,0.33209999999962747
1221,23,0.5,0.0,35.0,-1,0.0,0.19900000000052387
1222,23,0.5,0.0625,-35.0,-1,1.0,0.3389999999999418
1223,23,0.5,0.0625,35.0,1,1.0,0.28580000000056316
1224,23,0.5,0.0,-35.0,-1,1.0,0.2558000000008178
1225,23,0.5,0.125,35.0,1,1.0,0.5524999999997817
1226,23,0.5,0.25,-35.0,-1,1.0,0.17309999999997672
1227,23,0.5,0.0625,35.0,-1,0.0,0.3661000000001877
1228,23,0.5,0.0,-35.0,-1,1.0,0.25280000000020664
1229,23,0.5,0.0,-35.0,-1,1.0,1.6625999999996566
1230,23,0.5,0.0625,35.0,1,1.0,1.0895000000009532
1231,23,0.5,0.125,-35.0,-1,1.0,0.13020000000051368
1232,23,0.5,0.125,35.0,-1,0.0,0.24949999999989814
1233,23,0.5,0.125,-35.0,-1,1.0,0.2201999999997497
1234,23,0.5,0.25,-35.0,-1,1.0,0.28650000000016007
1235,23,0.5,1.0,-35.0,-1,1.0,0.17369999999937136
1236,23,0.5,0.0625,35.0,1,1.0,0.7566999999999098
1237,23,0.5,0.0625,35.0,1,1.0,0.4032999999999447
1238,23,0.5,1.0,-35.0,-1,1.0,0.2165000000004511
1239,23,0.5,0.25,-35.0,-1,1.0,0.24329999999918073
1240,23,0.5,0.125,35.0,1,1.0,0.3166000000001077
1241,23,0.5,1.0,-35.0,-1,1.0,0.22340000000076543
1242,23,0.5,0.0625,-35.0,1,0.0,0.2965999999996711
1243,23,0.5,0.0,-35.0,-1,1.0,0.21019999999953143
1244,23,0.5,0.0625,35.0,1,1.0,0.4202000000004773
1245,23,0.5,0.0625,35.0,1,1.0,0.23040000000037253
1246,23,0.5,1.0,35.0,1,1.0,0.3339000000005399
1247,23,0.5,0.125,-35.0,-1,1.0,0.25420000000030996
1248,23,0.5,0.25,-35.0,-1,1.0,0.21699999999964348
1249,23,0.5,0.25,35.0,1,1.0,0.3176000000003114
1250,23,0.5,0.0,35.0,-1,0.0,0.31050000000050204
1251,23,0.5,0.0,-35.0,1,0.0,0.29090000000087457
1252,23,0.6,0.0,-35.0,1,0.0,0.31080000000019936
1253,23,0.5,1.0,-35.0,-1,1.0,0.35060000000066793
1254,23,0.5,0.0625,-35.0,-1,1.0,2.4950000000008004
1255,23,0.5,1.0,-35.0,-1,1.0,0.46090000000003783
1256,23,0.5,1.0,-35.0,-1,1.0,0.26090000000021973
1257,23,0.5,0.0,35.0,-1,0.0,0.4147000000002663
1258,23,0.5,0.0625,35.0,1,1.0,0.40090000000054715
1259,23,0.5,0.0625,35.0,-1,0.0,0.21169999999983702
1260,23,0.5,0.125,35.0,1,1.0,2.364700000000994
1261,23,0.5,1.0,-35.0,-1,1.0,0.19790000000102737
1262,23,0.5,0.0,-35.0,-1,1.0,0.2977999999993699
1263,23,0.5,0.125,35.0,1,1.0,0.18110000000069704
1264,23,0.5,1.0,-35.0,-1,1.0,0.1518000000005486
1265,23,0.5,0.125,35.0,-1,0.0,1.771099999999933
1266,23,0.5,0.25,-35.0,-1,1.0,0.16800100000091334
1267,23,0.5,0.25,35.0,1,1.0,0.30220100000042294
1268,23,0.5,0.25,-35.0,-1,1.0,0.25650099999984377
1269,23,0.5,1.0,-35.0,-1,1.0,0.3553010000005088
1270,23,0.5,0.0,35.0,1,1.0,0.3490009999995891
1271,23,0.5,0.125,35.0,1,1.0,0.6183010000004288
1272,23,0.5,0.0,-35.0,1,0.0,3.8619010000002163
1273,23,0.5,0.125,-35.0,-1,1.0,0.2251009999999951
1274,23,0.5,0.125,35.0,-1,0.0,0.2920009999998001
1275,23,0.5,0.125,-35.0,-1,1.0,0.2420010000005277
1276,23,0.5,0.25,35.0,1,1.0,0.47910100000081
1277,23,0.5,0.0625,35.0,-1,0.0,1.9023010000000795
1278,23,0.5,0.125,-35.0,1,0.0,0.2655009999998583
1279,23,0.5,0.0625,35.0,1,1.0,0.17240099999980885
1280,23,0.5,1.0,-35.0,-1,1.0,0.29560099999980594
1281,23,0.5,0.0625,35.0,1,1.0,0.3156010000002425
1282,23,0.5,0.0625,-35.0,-1,1.0,0.09620100000029197
1283,23,0.5,0.0625,35.0,1,1.0,0.4192009999997026
1284,23,0.5,0.0625,-35.0,-1,1.0,0.28570099999978993
1285,23,0.5,0.0625,35.0,-1,0.0,0.20260100000086823
1286,23,0.5,0.25,35.0,1,1.0,0.20620099999996455
1287,23,0.5,0.0625,35.0,-1,0.0,0.4425009999995382
1288,23,0.5,0.0625,35.0,1,1.0,0.3861009999991438
1289,23,0.5,1.0,35.0,1,1.0,0.3233009999994465
1290,23,0.5,0.125,35.0,-1,0.0,1.1398010000002614
1291,23,0.5,0.25,35.0,1,1.0,0.35320099999989907
1292,23,0.5,0.0625,-35.0,-1,1.0,0.30950100000063685
1293,23,0.5,0.25,-35.0,-1,1.0,0.29290099999980157
1294,23,0.5,0.0625,-35.0,-1,1.0,0.506401000000551
1295,23,0.5,1.0,35.0,1,1.0,0.33640100000047823
1296,23,0.5,0.25,-35.0,-1,1.0,0.20350099999996019
1297,23,0.5,0.0625,-35.0,-1,1.0,0.21650099999988015
1298,23,0.5,0.125,-35.0,-1,1.0,0.19340100000044913
1299,23,0.5,1.0,-35.0,-1,1.0,0.2170010000008915
1300,23,0.5,0.0625,-35.0,-1,1.0,0.009801000000152271
1301,23,0.5,0.125,35.0,-1,0.0,0.18420100000003004
1302,23,0.5,0.125,35.0,1,1.0,0.2968010000004142
1303,23,0.5,0.125,-35.0,-1,1.0,0.20030099999985396
1304,23,0.5,1.0,-35.0,-1,1.0,0.20690099999956146
1305,23,0.5,1.0,-35.0,-1,1.0,0.2843009999996866
1306,23,0.5,0.0625,-35.0,-1,1.0,0.35690100000010716
1307,23,0.5,0.125,35.0,1,1.0,1.3073009999998249
1308,23,0.5,0.125,-35.0,-1,1.0,0.24770099999932427
1309,23,0.5,0.25,-35.0,-1,1.0,0.2306010000002061
1310,23,0.5,0.0,-35.0,-1,1.0,0.22710100000040256
1311,23,0.5,0.25,-35.0,-1,1.0,0.23390099999960512
1312,23,0.5,0.0625,35.0,1,1.0,0.5175010000002658
1313,23,0.5,1.0,35.0,1,1.0,0.25430100000085076
1314,23,0.5,0.125,-35.0,1,0.0,0.3008010000003196
1315,23,0.4,0.125,-35.0,-1,1.0,0.20100100000036036
1316,23,0.5,1.0,35.0,1,1.0,0.23460100000011153
1317,23,0.5,0.125,-35.0,-1,1.0,0.3045009999996182
1318,23,0.5,1.0,-35.0,-1,1.0,0.4149010000010094
1319,23,0.5,0.25,35.0,1,1.0,1.0479009999999107
1320,23,0.5,0.0,-35.0,-1,1.0,0.3079009999992195
1321,23,0.5,0.0625,-35.0,-1,1.0,0.23130100000071252
1322,23,0.5,1.0,-35.0,-1,1.0,0.16800100000091334
1323,23,0.5,0.125,35.0,1,1.0,0.3387009999996735
1324,23,0.5,0.0625,-35.0,-1,1.0,0.3582010000000082
1325,23,0.5,0.125,-35.0,-1,1.0,0.1281010000002425
1326,23,0.5,0.125,35.0,1,1.0,0.93840100000034
1327,23,0.5,0.0625,35.0,-1,0.0,0.17830100000082894
1328,23,0.5,0.0,35.0,1,1.0,0.27820100000008097
1329,23,0.5,0.0625,35.0,1,1.0,0.9117010000009032
1330,23,0.5,0.25,-35.0,-1,1.0,0.19230100000004313
1331,23,0.5,0.0,-35.0,1,0.0,1.7153010000001814
1332,23,0.5,0.25,35.0,1,1.0,0.3087009999990187
1333,23,0.5,0.25,35.0,-1,0.0,0.025300999999672058
1334,23,0.5,0.125,-35.0,-1,1.0,0.47200100000100065
1335,23,0.5,0.125,35.0,1,1.0,0.338701000000583
1336,23,0.5,0.125,-35.0,-1,1.0,0.15550100000109524
1337,23,0.5,0.0,-35.0,-1,1.0,0.4023010000000795
1338,23,0.5,0.0625,-35.0,-1,1.0,0.3123010000008435
1339,23,0.5,0.125,-35.0,-1,1.0,0.2594010000002527
1340,23,0.5,0.25,35.0,1,1.0,0.3063009999996211
1341,23,0.5,0.0625,35.0,-1,0.0,0.14590099999986705
1342,23,0.5,0.0625,35.0,-1,0.0,5.329101000000264
1343,23,0.2,0.0625,35.0,-1,0.0,0.1825010000002294
1344,23,0.5,1.0,35.0,1,1.0,0.6627010000001974
1345,23,0.5,0.0625,-35.0,-1,1.0,0.29300100000000384
1346,23,0.5,0.125,35.0,1,1.0,0.25960099999974773
1347,23,0.5,0.125,-35.0,-1,1.0,0.20960100000047532
1348,23,0.5,1.0,35.0,-1,0.0,6.099601000000803
1349,23,0.5,0.0,-35.0,-1,1.0,0.21660100000008242
1350,23,0.5,0.25,-35.0,-1,1.0,0.2869010000003982
1351,23,0.5,0.125,35.0,-1,0.0,1.6097009999994043
1352,23,0.5,0.0625,-35.0,-1,1.0,0.1538009999994756
1353,23,0.5,0.25,-35.0,-1,1.0,0.30690099999992526
1354,23,0.5,0.0625,35.0,-1,0.0,0.306800999999723
1355,23,0.5,0.125,-35.0,-1,1.0,0.35690100000010716
1356,23,0.5,0.25,35.0,1,1.0,0.5137009999998554
1357,23,0.5,0.25,35.0,1,1.0,0.6408010000004651
1358,23,0.5,0.125,-35.0,-1,1.0,0.19710100000065722
1359,23,0.5,0.25,-35.0,-1,1.0,0.3008010000003196
1360,23,0.5,1.0,-35.0,-1,1.0,0.2369010000002163
1361,23,0.5,0.25,-35.0,-1,1.0,0.17090099999950326
1362,23,0.5,0.0,35.0,-1,0.0,0.3170009999994363
1363,23,0.5,0.0,35.0,-1,0.0,0.24090099999921222
1364,23,0.5,0.125,-35.0,-1,1.0,0.23090099999990343
1365,23,0.5,1.0,35.0,1,1.0,0.22390100000029634
1366,23,0.5,0.25,35.0,1,1.0,0.337601000000177
1367,23,0.5,1.0,35.0,1,1.0,0.17100099999970553
1368,23,0.5,0.25,-35.0,-1,1.0,0.2880009999989852
1369,23,0.5,0.25,35.0,1,1.0,0.3943009999993592
1370,23,0.5,0.25,-35.0,-1,1.0,0.3112010000004375
1371,23,0.5,1.0,35.0,1,1.0,0.3910010000008697
1372,23,0.5,1.0,-35.0,-1,1.0,0.22430100000019593
1373,23,0.5,1.0,-35.0,-1,1.0,0.30110100000092643
1374,23,0.5,0.0625,35.0,1,1.0,0.46830100000079256
1375,23,0.5,0.25,35.0,1,1.0,0.5514009999997143
1376,23,0.5,0.25,-35.0,-1,1.0,0.20810100000016973
1377,23,0.5,0.0,35.0,-1,0.0,0.2792010000002847
1378,23,0.5,0.0,35.0,-1,0.0,0.2982010000005175
1379,23,0.4,0.0,-35.0,-1,1.0,0.2552009999999427
1380,23,0.5,1.0,35.0,1,1.0,0.27830100000028324
1381,23,0.5,0.125,-35.0,-1,1.0,0.20840100000077655
1382,23,0.5,0.25,35.0,1,1.0,0.2233009999999922
1383,23,0.5,0.125,35.0,-1,0.0,0.3100009999998292
1384,23,0.5,0.125,35.0,1,1.0,0.5901010000006863
1385,23,0.5,0.0,35.0,1,1.0,2.3567009999997026
1386,23,0.5,0.0,-35.0,-1,1.0,0.27020100000027014
1387,23,0.5,0.0625,-35.0,-1,1.0,0.30030100000021775
1388,23,0.5,0.125,35.0,-1,0.0,0.16020099999968807
1389,23,0.5,0.125,35.0,-1,0.0,0.3436009999995804
1390,23,0.5,0.25,-35.0,-1,1.0,0.2137009999996735
1391,23,0.5,1.0,-35.0,-1,1.0,0.2571010000010574
1392,23,0.5,1.0,-35.0,-1,1.0,0.22720099999969534
1393,23,0.5,1.0,-35.0,-1,1.0,0.23050100000000384
1394,23,0.5,1.0,35.0,1,1.0,0.17720099999951344
1395,23,0.5,0.125,-35.0,-1,1.0,0.31060100000013335
1396,23,0.5,0.0625,-35.0,-1,1.0,0.42060099999980594
1397,23,0.5,0.25,-35.0,-1,1.0,0.25400100000024395
1398,23,0.5,0.0625,35.0,-1,0.0,0.22410099999979138
1399,23,0.5,0.25,35.0,1,1.0,0.08760100000017701
1400,23,0.5,0.0,-35.0,-1,1.0,3.1242010000005394
1401,23,0.5,0.125,35.0,-1,0.0,0.060900999999830674
1402,23,0.5,0.125,35.0,1,1.0,0.3611010000004171
1403,23,0.5,0.125,-35.0,-1,1.0,0.5310010000002876
1404,23,0.5,1.0,-35.0,-1,1.0,0.7845010000000912
1405,23,0.5,0.0625,35.0,-1,0.0,0.3245010000000548
1406,23,0.5,0.0625,-35.0,1,0.0,0.21470100000078673
1407,23,0.5,0.0,-35.0,-1,1.0,0.46800100000109524
1408,23,0.5,0.125,-35.0,-1,1.0,0.24480099999982485
1409,23,0.5,1.0,35.0,1,1.0,0.49810099999922386
1410,23,0.5,0.125,-35.0,-1,1.0,0.2748009999995702
1411,23,0.5,0.0625,35.0,1,1.0,0.35150100000009843
1412,23,0.5,0.0625,-35.0,-1,1.0,0.2616009999992457
1413,23,0.5,0.25,-35.0,-1,1.0,0.24850100000003295
1414,23,0.5,0.125,35.0,1,1.0,2.475100999999995
1415,23,0.5,0.25,-35.0,-1,1.0,0.3520010000002003
1416,23,0.5,0.0,-35.0,1,0.0,0.2119010000005801
1417,23,0.4,0.0,35.0,-1,0.0,0.28200099999958184
1418,23,0.5,1.0,35.0,1,1.0,0.19540100000085658
1419,23,0.5,0.125,-35.0,-1,1.0,0.17210100000011153
1420,23,0.5,0.0625,35.0,1,1.0,2.9088010000004942
1421,23,0.5,0.0625,-35.0,-1,1.0,0.405601000000388
1422,23,0.5,0.25,-35.0,-1,1.0,0.2189010000001872
1423,23,0.5,0.0,35.0,1,1.0,0.37570100000084494
1424,23,0.5,0.25,-35.0,-1,1.0,0.18570100000033563
1425,23,0.5,0.0,35.0,1,1.0,1.4158010000001013
1426,23,0.5,0.0625,-35.0,-1,1.0,0.19250100000044768
1427,23,0.5,0.25,35.0,1,1.0,1.5125010000001566
1428,23,0.5,0.125,-35.0,-1,1.0,0.5593010000011418
1429,23,0.5,0.25,35.0,1,1.0,0.4460010000002512
1430,23,0.5,0.125,35.0,1,1.0,0.6263010000002396
1431,23,0.5,0.125,35.0,1,1.0,0.2163010000003851
1432,23,0.5,0.0,-35.0,-1,1.0,0.2428010000003269
1433,23,0.5,0.0625,35.0,1,1.0,1.2062009999999646
1434,23,0.5,1.0,35.0,1,1.0,0.3030010000002221
1435,23,0.5,0.0625,-35.0,-1,1.0,0.32970100000056846
1436,23,0.5,0.25,-35.0,-1,1.0,0.21980100000018865
1437,23,0.5,0.0625,-35.0,-1,1.0,0.23640100000011444
1438,23,0.5,0.0,-35.0,-1,1.0,0.20990100000017264
1439,23,0.5,0.125,35.0,-1,0.0,0.14330100000006496
1440,23,0.5,0.0,35.0,-1,0.0,7.316601000000446
1441,23,0.5,0.25,35.0,1,1.0,0.2902009999997972
1442,23,0.5,0.0625,35.0,-1,0.0,1.4770010000002003
1443,23,0.5,0.25,-35.0,-1,1.0,0.2637009999998554
1444,23,0.5,1.0,35.0,1,1.0,0.2303010000005088
1445,23,0.5,0.0625,-35.0,-1,1.0,0.27710099999967497
1446,23,0.5,0.25,-35.0,-1,1.0,0.22380100000009406
1447,23,0.5,0.125,-35.0,1,0.0,2.3539010000004055
1448,23,0.5,0.125,-35.0,-1,1.0,0.25400100000024395
1449,23,0.5,0.125,35.0,-1,0.0,0.2641010000006645
1450,23,0.5,0.0625,35.0,-1,0.0,0.5407009999998991
1451,23,0.5,0.25,-35.0,-1,1.0,0.20410100000026432
1452,23,0.5,1.0,35.0,1,1.0,0.4942010000004302
1453,23,0.5,0.25,35.0,1,1.0,0.40100100000017846
1454,23,0.5,1.0,-35.0,-1,1.0,0.017800999999963096
1455,23,0.5,0.125,-35.0,-1,1.0,0.12780100000054517
1456,23,0.5,0.0625,-35.0,-1,1.0,0.2244010000003982
1457,23,0.5,0.25,35.0,1,1.0,0.3211010000004535
1458,23,0.5,0.0625,-35.0,-1,1.0,0.6578010000002905
1459,23,0.5,0.0625,-35.0,-1,1.0,0.32130099999994854
1460,23,0.5,1.0,35.0,1,1.0,0.25800100000014936
1461,23,0.5,1.0,-35.0,-1,1.0,0.37460100000043894
1462,23,0.5,0.0625,35.0,1,1.0,0.39150100000006205
1463,23,0.5,1.0,35.0,1,1.0,0.9481009999999515
1464,23,0.5,0.125,-35.0,-1,1.0,0.22160100000019156
1465,23,0.5,0.0,-35.0,-1,1.0,0.15840099999968515
1466,23,0.5,0.0625,-35.0,-1,1.0,2.215001000000484
1467,23,0.5,1.0,-35.0,-1,1.0,0.16510099999959493
1468,23,0.5,0.0625,-35.0,-1,1.0,0.2218010000005961
1469,23,0.5,0.125,35.0,-1,0.0,0.30860000000120635
1470,23,0.5,0.0625,-35.0,-1,1.0,0.2887010000004011
1471,23,0.5,0.25,35.0,1,1.0,3.2121009999991657
1472,23,0.5,1.0,-35.0,-1,1.0,0.31870100000105595
1473,23,0.5,0.0625,-35.0,-1,1.0,0.3122009999997317
1474,23,0.5,0.0,-35.0,-1,1.0,0.23230100000091625
1475,23,0.5,0.25,-35.0,-1,1.0,0.15240100000119128
1476,23,0.5,1.0,-35.0,-1,1.0,0.3156010000002425
1477,23,0.5,0.25,-35.0,-1,1.0,0.12230100000033417
1478,23,0.5,0.125,35.0,-1,0.0,0.05569999999988795
1479,23,0.5,0.0,35.0,-1,0.0,0.17570100000011735
1480,23,0.5,0.0625,-35.0,-1,1.0,0.2292010000010123
1481,23,0.5,0.125,35.0,1,1.0,0.7193010000000868
1482,23,0.5,1.0,-35.0,-1,1.0,0.19260099999974045
1483,23,0.5,0.0625,-35.0,-1,1.0,0.3093010000002323
1484,23,0.5,0.25,-35.0,-1,1.0,0.11600100000032398
1485,23,0.5,0.125,-35.0,-1,1.0,0.1814009999998234
1486,23,0.5,0.0625,35.0,-1,0.0,0.2314010000009148
1487,23,0.5,0.25,-35.0,-1,1.0,0.1682009999994989
1488,23,0.5,1.0,-35.0,-1,1.0,0.22120100000029197
1489,23,0.5,1.0,35.0,1,1.0,0.1479010000002745
1490,23,0.5,1.0,35.0,1,1.0,0.15800099999978556
1491,23,0.5,0.25,35.0,1,1.0,0.4119009999994887
1492,23,0.5,0.25,35.0,1,1.0,0.918601000000308
1493,23,0.5,0.125,-35.0,-1,1.0,0.21160099999997328
1494,23,0.5,0.25,-35.0,-1,1.0,0.418601000000308
1495,23,0.5,0.0625,-35.0,-1,1.0,0.12870099999963713
1496,23,0.5,0.0625,35.0,-1,0.0,0.24230100000022503
1497,23,0.4,0.0625,35.0,-1,0.0,0.26180099999965023
1498,23,0.5,1.0,35.0,1,1.0,0.30580099999951926
1499,23,0.5,0.125,35.0,-1,0.0,0.5758009999990463
1500,23,0.4,0.125,35.0,1,1.0,0.04210100000091188
1501,23,0.5,1.0,35.0,1,1.0,0.19190100000014354
1502,23,0.5,0.125,35.0,1,1.0,0.6528010000001814
1503,23,0.5,0.0,-35.0,-1,1.0,0.28590100000019447
1504,23,0.5,0.0625,35.0,1,1.0,0.23920099999941158
1505,23,0.5,0.125,35.0,-1,0.0,0.13970100000005914
1506,23,0.5,0.125,-35.0,-1,1.0,0.2792009999993752
1507,23,0.5,0.125,-35.0,-1,1.0,0.2891009999993912
1508,23,0.5,0.25,35.0,-1,0.0,-0.007499000000279921
1509,23,0.5,0.25,-35.0,-1,1.0,0.3925010000002658
1510,23,0.5,0.0625,35.0,-1,0.0,0.25260100000014063
1511,23,0.5,0.125,35.0,-1,0.0,0.24300099999982194
1512,23,0.5,0.0625,35.0,1,1.0,0.3063009999996211
1513,23,0.5,0.0625,35.0,1,1.0,0.12940099999923405
1514,23,0.5,0.25,35.0,1,1.0,0.22930100000030507
1515,23,0.5,0.125,-35.0,-1,1.0,0.22310100000049715
1516,23,0.5,0.125,-35.0,-1,1.0,0.26310100000046077
1517,23,0.5,0.0,-35.0,-1,1.0,0.2766010000004826
1518,23,0.5,0.0,35.0,-1,0.0,0.30650100000002567
1519,23,0.5,0.0625,-35.0,-1,1.0,0.21710100000018429
1520,23,0.5,0.0,-35.0,1,0.0,0.7565010000007533
1521,23,0.5,0.25,35.0,1,1.0,0.17720100000042294
1522,23,0.5,0.125,35.0,1,1.0,0.22750100000030216
1523,23,0.5,1.0,-35.0,-1,1.0,0.23020100000030652
1524,23,0.5,0.0,35.0,-1,0.0,0.27020100000027014
1525,23,0.5,0.0625,35.0,1,1.0,0.2637010000007649
1526,23,0.5,1.0,35.0,1,1.0,0.4873009999992064
1527,23,0.5,0.0625,-35.0,-1,1.0,0.3203009999997448
1528,23,0.5,1.0,35.0,1,1.0,0.2512010000000373
1529,23,0.5,1.0,35.0,1,1.0,0.17750100000012026
1530,23,0.5,0.125,35.0,-1,0.0,0.45140100000025996
1531,23,0.5,0.0625,35.0,1,1.0,0.3306010000005699
1532,23,0.5,0.25,35.0,-1,0.0,1.3274010000004637
1533,23,0.5,0.25,-35.0,-1,1.0,0.193901000000551
1534,23,0.5,1.0,-35.0,-1,1.0,0.19450099999994563
1535,23,0.5,0.125,-35.0,-1,1.0,0.2645010000005641
1536,23,0.5,0.125,35.0,1,1.0,0.25760100000024977
1537,23,0.5,0.125,-35.0,-1,1.0,0.2849000000005617
1538,23,0.5,0.25,-35.0,-1,1.0,0.22450099999969098
1539,23,0.5,0.0625,-35.0,-1,1.0,0.28750099999979284
1540,23,0.5,0.0,35.0,1,1.0,0.2244010000003982
1541,23,0.5,0.0,-35.0,-1,1.0,0.23130099999980303
1542,23,0.5,0.0625,35.0,1,1.0,0.32160100000055536
1543,23,0.5,1.0,-35.0,-1,1.0,0.16800100000091334
1544,23,0.5,1.0,35.0,-1,0.0,0.1678010000005088
1545,23,0.5,0.125,-35.0,1,0.0,0.14120100000036473
1546,23,0.5,0.0,35.0,1,1.0,0.37130100000013044
1547,23,0.5,0.0625,35.0,-1,0.0,0.20470100000056846
1548,23,0.5,0.0625,35.0,1,1.0,0.294701000000714
1549,23,0.5,0.125,-35.0,-1,1.0,0.08980100000007951
1550,23,0.5,0.125,35.0,1,1.0,0.051801000000523345
1551,23,0.5,0.0,35.0,1,1.0,1.1518009999999776
1552,23,0.5,0.0625,-35.0,-1,1.0,0.41500100000030216
1553,23,0.5,0.25,35.0,1,1.0,0.20180100000015955
1554,23,0.5,0.125,-35.0,-1,1.0,0.3024010000008275
1555,23,0.5,0.0625,35.0,-1,0.0,0.2953010000010181
1556,23,0.5,0.0625,-35.0,-1,1.0,0.3721009999999296
1557,23,0.5,0.0625,35.0,-1,0.0,0.19930100000055972
1558,23,0.5,0.0,35.0,1,1.0,0.13550099999974918
1559,23,0.5,0.25,-35.0,-1,1.0,0.2622010000004593
1560,23,0.5,0.125,-35.0,-1,1.0,0.16600100000050588
1561,23,0.5,0.0,35.0,-1,0.0,2.2291009999999005
1562,23,0.5,0.25,35.0,1,1.0,0.3556010000002061
1563,23,0.5,0.25,35.0,1,1.0,0.402301000000989
1564,23,0.5,0.125,-35.0,-1,1.0,0.3460009999998874
1565,23,0.5,1.0,-35.0,-1,1.0,0.2824010000003909
1566,23,0.5,1.0,-35.0,-1,1.0,0.3828009999997448
1567,23,0.5,0.25,-35.0,-1,1.0,0.5792009999995571
1568,23,0.5,0.125,-35.0,-1,1.0,0.449401000000762
1569,23,0.5,0.0,-35.0,1,0.0,0.6397010000000591
1570,23,0.5,0.0,35.0,-1,0.0,0.14970100000027742
1571,23,0.5,0.0,-35.0,1,0.0,3.039701000000605
1572,23,0.4,0.0,35.0,-1,0.0,0.1965010000003531
1573,23,0.5,1.0,-35.0,-1,1.0,0.20330100000046514
1574,23,0.5,0.0625,35.0,-1,0.0,0.1733010000007198
1575,23,0.2,0.0625,35.0,-1,0.0,0.14660100000037346
1576,23,0.5,1.0,35.0,-1,0.0,0.23370100000011007
1577,23,0.2,1.0,-35.0,-1,1.0,0.21770100000048842
1578,23,0.5,1.0,35.0,1,1.0,0.35040099999969243
1579,23,0.5,0.0,-35.0,-1,1.0,0.25690100000065286
1580,23,0.5,0.25,-35.0,-1,1.0,0.8305010000003676
1581,23,0.5,1.0,35.0,1,1.0,0.3175010000004477
1582,23,0.5,0.25,-35.0,-1,1.0,0.16350099999999657
1583,23,0.5,0.125,-35.0,-1,1.0,0.3236010000009628
1584,23,0.5,0.0,-35.0,-1,1.0,0.26760100000046805
1585,23,0.5,0.125,35.0,-1,0.0,0.2975010000000111
1586,23,0.5,0.0625,-35.0,-1,1.0,0.26720100000056846
1587,23,0.5,1.0,35.0,1,1.0,0.5509010000005219
1588,23,0.5,0.125,35.0,-1,0.0,0.21460099999967497
1589,23,0.2,0.125,-35.0,-1,1.0,0.23750099999961094
1590,23,0.5,1.0,35.0,1,1.0,0.3347010000006776
1591,23,0.5,0.0625,-35.0,-1,1.0,0.35770099999990634
1592,23,0.5,0.0625,35.0,-1,0.0,0.40170100000068487
1593,23,0.5,0.125,-35.0,-1,1.0,0.2480009999990216
1594,23,0.5,0.25,35.0,1,1.0,0.49450100000012753
1595,23,0.5,0.0,35.0,-1,0.0,0.2594010000002527
1,24,0.5,1.0,35.0,-1,0.0,0.14449999999999952
2,24,0.5,0.0625,-35.0,-1,1.0,0.18439999999999923
3,24,0.5,0.25,35.0,-1,0.0,0.2524000000000006
4,24,0.5,0.0625,35.0,1,1.0,7.688299999999998
5,24,0.5,1.0,35.0,1,1.0,0.47320000000000206
6,24,0.5,0.25,-35.0,-1,1.0,1.4911999999999992
7,24,0.5,1.0,35.0,1,1.0,0.3943000000000012
8,24,0.5,0.125,35.0,-1,0.0,4.902500000000003
9,24,0.5,0.0625,-35.0,-1,1.0,0.19289999999999452
10,24,0.5,0.25,-35.0,-1,1.0,0.24960000000000093
11,24,0.5,0.125,-35.0,1,0.0,0.5048999999999921
12,24,0.5,0.0625,35.0,1,1.0,0.7364000000000033
13,24,0.5,0.125,35.0,-1,0.0,5.154600000000002
14,24,0.5,0.0625,35.0,-1,0.0,0.21509999999999252
15,24,0.5,0.25,35.0,1,1.0,1.2027999999999963
16,24,0.5,0.125,35.0,-1,0.0,0.15670000000000073
17,24,0.4,0.125,35.0,-1,0.0,0.1560000000000059
18,24,0.5,1.0,35.0,1,1.0,0.25919999999999277
19,24,0.5,1.0,-35.0,-1,1.0,0.1932999999999936
20,24,0.5,1.0,35.0,1,1.0,0.38229999999998654
21,24,0.5,0.25,35.0,-1,0.0,2.8825999999999965
22,24,0.5,0.125,-35.0,-1,1.0,0.18479999999999563
23,24,0.5,0.0625,35.0,1,1.0,6.346100000000007
24,24,0.5,0.25,-35.0,-1,1.0,0.3067000000000064
25,24,0.5,0.0625,35.0,-1,0.0,7.355799999999988
26,24,0.5,0.125,35.0,1,1.0,0.5190000000000055
27,24,0.5,1.0,-35.0,-1,1.0,0.230700000000013
28,24,0.5,0.0,-35.0,-1,1.0,3.579900000000009
29,24,0.5,0.125,35.0,1,1.0,4.988900000000001
30,24,0.5,0.125,-35.0,-1,1.0,0.22989999999998645
31,24,0.5,1.0,-35.0,-1,1.0,0.3684000000000083
32,24,0.5,0.0,-35.0,-1,1.0,4.97369999999998
33,24,0.5,1.0,35.0,1,1.0,0.3780000000000143
34,24,0.5,0.25,35.0,-1,0.0,5.239299999999986
35,24,0.3,0.25,-35.0,-1,1.0,0.1956000000000131
36,24,0.5,1.0,35.0,1,1.0,0.24909999999999854
37,24,0.5,0.0,-35.0,-1,1.0,0.34309999999999263
38,24,0.5,0.25,35.0,1,1.0,0.38509899999999675
39,24,0.5,0.25,35.0,-1,0.0,5.9221
40,24,0.3,0.25,35.0,-1,0.0,3.2550999999999988
41,24,0.5,1.0,35.0,1,1.0,0.2301999999999964
42,24,0.5,0.125,-35.0,-1,1.0,0.2752000000000123
43,24,0.5,0.25,35.0,1,1.0,0.3842999999999961
44,24,0.5,0.0625,-35.0,-1,1.0,6.586699999999979
45,24,0.5,0.125,-35.0,-1,1.0,0.19540000000000646
46,24,0.5,0.125,-35.0,-1,1.0,0.31380000000001473
47,24,0.5,0.25,-35.0,-1,1.0,5.205599999999976
48,24,0.5,0.0,-35.0,-1,1.0,0.24139999999999873
49,24,0.5,1.0,-35.0,-1,1.0,0.26480000000000814
50,24,0.5,0.0,-35.0,-1,1.0,10.492700000000013
51,24,0.5,1.0,-35.0,-1,1.0,0.23329999999998563
52,24,0.5,1.0,35.0,1,1.0,0.24450000000001637
53,24,0.5,1.0,-35.0,-1,1.0,0.2353999999999985
54,24,0.5,0.25,35.0,-1,0.0,6.361500000000035
55,24,0.5,0.0,-35.0,1,0.0,12.132300000000043
56,24,0.5,0.125,-35.0,-1,1.0,0.22510000000005448
57,24,0.5,0.0,35.0,-1,0.0,3.19459999999998
58,24,0.5,0.125,-35.0,-1,1.0,0.25470000000007076
59,24,0.5,1.0,-35.0,-1,1.0,0.2067000000000121
60,24,0.5,0.125,-35.0,-1,1.0,0.18340000000006285
61,24,0.5,1.0,-35.0,-1,1.0,0.21080000000006294
62,24,0.5,1.0,35.0,1,1.0,3.502400000000023
63,24,0.5,0.0625,35.0,1,1.0,4.215800000000058
64,24,0.5,0.0,35.0,-1,0.0,0.2769999999999868
65,24,0.3,0.0,-35.0,-1,1.0,11.703800000000058
66,24,0.5,1.0,35.0,1,1.0,0.2912000000000603
67,24,0.5,0.25,35.0,1,1.0,0.3823000000000434
68,24,0.5,0.0625,-35.0,-1,1.0,7.018900000000087
69,24,0.5,1.0,-35.0,-1,1.0,0.21350000000001046
70,24,0.5,0.125,-35.0,-1,1.0,5.46750000000003
71,24,0.5,0.0625,35.0,-1,0.0,2.6363000000000056
72,24,0.4,0.0625,-35.0,-1,1.0,0.21809999999999263
73,24,0.5,1.0,35.0,1,1.0,0.3231999999999857
74,24,0.5,0.25,-35.0,-1,1.0,0.19180000000000064
75,24,0.5,0.0625,-35.0,-1,1.0,5.4649
76,24,0.5,1.0,35.0,-1,0.0,6.591600000000085
77,24,0.5,0.25,-35.0,-1,1.0,0.3963000000000534
78,24,0.5,1.0,-35.0,-1,1.0,6.222300000000018
79,24,0.5,0.25,-35.0,-1,1.0,6.066400000000044
80,24,0.5,0.0625,-35.0,-1,1.0,0.21570000000002665
81,24,0.5,0.0,35.0,-1,0.0,5.706500000000062
82,24,0.5,0.0625,35.0,-1,0.0,0.2937000000000012
83,24,0.5,0.0625,35.0,-1,0.0,4.541800000000023
84,24,0.5,0.0625,-35.0,-1,1.0,0.634900000000016
85,24,0.5,0.0625,35.0,-1,0.0,5.570600000000013
86,24,0.5,0.25,-35.0,-1,1.0,0.26770000000004757
87,24,0.5,0.0625,-35.0,-1,1.0,0.25430000000000064
88,24,0.5,0.125,35.0,-1,0.0,4.369100000000003
89,24,0.0,0.125,35.0,-1,0.0,0.45120000000002847
90,24,0.5,1.0,35.0,-1,0.0,10.142300000000034
91,24,0.5,0.25,35.0,1,1.0,0.5269000000000119
92,24,0.5,0.25,35.0,-1,0.0,4.051800000000014
93,24,0.1,0.25,-35.0,-1,1.0,0.23740000000003647
94,24,0.5,1.0,35.0,1,1.0,0.33280000000007703
95,24,0.5,0.0625,35.0,1,1.0,6.0111000000001695
96,24,0.5,0.0625,-35.0,-1,1.0,5.894499999999994
97,24,0.5,1.0,35.0,-1,0.0,15.76900000000012
98,24,0.5,0.25,35.0,-1,0.0,0.07480000000009568
99,24,0.5,0.25,35.0,1,1.0,0.1933999999999969
100,24,0.5,0.0625,-35.0,-1,1.0,0.21239999999988868
