trial_num,session_num,stim_probability_left,contrast,position,response_choice,trial_correct,reaction_time
1,6,0.5,0.0625,-35.0,1,0.0,0.5853999999999997
2,6,0.5,0.25,35.0,1,1.0,0.33230000000000004
3,6,0.5,0.5,35.0,1,1.0,0.4064999999999994
4,6,0.5,1.0,-35.0,-1,1.0,0.19329999999999714
5,6,0.5,0.0625,35.0,-1,0.0,2.5726999999999975
6,6,0.5,0.125,-35.0,-1,1.0,0.2594999999999956
7,6,0.5,0.25,-35.0,-1,1.0,0.18740000000000023
8,6,0.5,0.125,35.0,-1,0.0,0.2447000000000017
9,6,0.5,0.125,35.0,1,1.0,0.3767999999999958
10,6,0.5,0.5,35.0,-1,0.0,0.3164999999999978
11,6,0.5,0.0625,35.0,-1,0.0,0.24559999999999604
12,6,0.5,0.25,-35.0,1,0.0,0.3329999999999984
13,6,0.3,0.25,35.0,1,1.0,0.3329999999999984
14,6,0.5,1.0,35.0,1,1.0,0.34490000000000265
15,6,0.5,0.25,-35.0,-1,1.0,0.23239999999999839
16,6,0.5,0.25,-35.0,-1,1.0,0.24390000000000356
17,6,0.5,0.5,-35.0,-1,1.0,0.21690000000000964
18,6,0.5,0.25,35.0,1,1.0,3.537399999999991
19,6,0.5,0.0,35.0,-1,0.0,0.2570999999999941
20,6,0.5,0.25,35.0,-1,0.0,0.29129999999999256
21,6,0.5,0.125,-35.0,-1,1.0,0.2704000000000093
22,6,0.5,0.0,35.0,1,1.0,2.5238999999999976
23,6,0.5,0.0,-35.0,1,0.0,7.2059
24,6,0.4,0.0,35.0,-1,0.0,0.28000000000000114
25,6,0.5,1.0,35.0,1,1.0,0.2799999999999869
26,6,0.5,0.125,35.0,1,1.0,0.2867999999999995
27,6,0.5,0.125,-35.0,-1,1.0,0.32680000000000575
28,6,0.5,0.125,35.0,1,1.0,3.4309000000000083
29,6,0.5,0.125,-35.0,-1,1.0,0.23629999999999995
30,6,0.5,0.125,35.0,-1,0.0,0.2533999999999992
31,6,0.5,0.125,35.0,1,1.0,0.6888999999999896
32,6,0.5,1.0,35.0,-1,0.0,0.8319000000000187
33,6,0.5,0.0625,35.0,-1,0.0,0.7951000000000192
34,6,0.5,0.25,-35.0,-1,1.0,0.3931999999999789
35,6,0.5,1.0,35.0,1,1.0,0.2915999999999883
36,6,0.5,0.25,-35.0,-1,1.0,0.19489999999998986
37,6,0.5,0.125,35.0,1,1.0,2.4359999999999786
38,6,0.5,1.0,35.0,1,1.0,0.4889999999999759
39,6,0.5,0.0625,35.0,-1,0.0,1.1829999999999927
40,6,0.4,0.0625,35.0,1,1.0,0.4089999999999918
41,6,0.5,0.5,35.0,1,1.0,0.64579999999998
42,6,0.5,0.5,35.0,1,1.0,4.417100000000005
43,6,0.5,0.125,-35.0,-1,1.0,0.26799999999997226
44,6,0.5,0.5,35.0,1,1.0,5.260099999999994
45,6,0.5,1.0,-35.0,-1,1.0,0.266900000000021
46,6,0.5,1.0,-35.0,-1,1.0,0.23419999999998709
47,6,0.5,1.0,35.0,-1,0.0,0.2291999999999632
48,6,0.5,0.0,35.0,-1,0.0,0.30819999999997094
49,6,0.5,0.25,35.0,1,1.0,0.2827999999999804
50,6,0.5,0.125,-35.0,-1,1.0,0.26319999999998345
51,6,0.5,0.25,-35.0,-1,1.0,0.25519999999997367
52,6,0.5,1.0,35.0,1,1.0,0.2671999999999741
53,6,0.5,0.0,-35.0,-1,1.0,2.6691999999999894
54,6,0.5,0.25,35.0,-1,0.0,0.2623000000000104
55,6,0.5,0.25,35.0,1,1.0,0.3412999999999897
56,6,0.5,0.0625,35.0,1,1.0,1.4923000000000002
57,6,0.5,0.25,35.0,1,1.0,4.35329999999999
58,6,0.5,0.25,35.0,1,1.0,0.2687999999999988
59,6,0.5,0.125,35.0,1,1.0,0.5533000000000072
60,6,0.5,0.25,35.0,1,1.0,0.19129999999998404
61,6,0.5,0.25,-35.0,-1,1.0,0.25029999999998154
62,6,0.5,0.25,35.0,-1,0.0,0.23739999999997963
63,6,0.5,0.0,35.0,1,1.0,0.31340000000000146
64,6,0.5,0.0,-35.0,1,0.0,0.495900000000006
65,6,0.5,0.0,-35.0,1,0.0,2.309500000000014
66,6,0.5,0.0625,-35.0,-1,1.0,0.2836000000000354
67,6,0.5,0.0,35.0,1,1.0,2.4161000000000286
68,6,0.5,0.25,-35.0,-1,1.0,0.19600000000002638
69,6,0.5,0.0,35.0,-1,0.0,0.5834999999999582
70,6,0.5,0.125,35.0,1,1.0,0.2551000000000272
71,6,0.5,0.125,-35.0,1,0.0,0.33370000000002165
72,6,0.6,0.125,35.0,1,1.0,0.23160000000001446
73,6,0.5,1.0,35.0,1,1.0,0.24770000000006576
74,6,0.5,0.0625,-35.0,-1,1.0,0.2676000000000158
75,6,0.5,0.125,-35.0,-1,1.0,0.2635999999999967
76,6,0.5,0.0625,35.0,-1,0.0,0.2586000000000013
77,6,0.5,0.0,-35.0,1,0.0,0.2407000000000039
78,6,0.5,0.0625,35.0,-1,0.0,0.3216000000000463
79,6,0.5,0.0625,-35.0,-1,1.0,0.2255999999999858
80,6,0.5,0.125,35.0,-1,0.0,0.4887000000000512
81,6,0.5,0.0625,35.0,1,1.0,0.33770000000004075
82,6,0.5,0.25,-35.0,-1,1.0,0.23970000000002756
83,6,0.5,0.125,-35.0,-1,1.0,0.2457000000000562
84,6,0.5,0.125,-35.0,-1,1.0,0.24169999999998026
85,6,0.5,1.0,35.0,1,1.0,0.4163000000000352
86,6,0.5,0.125,35.0,1,1.0,4.241800000000012
87,6,0.5,0.0625,-35.0,-1,1.0,0.318300000000022
88,6,0.5,0.125,35.0,-1,0.0,0.3138000000000716
89,6,0.5,0.25,-35.0,-1,1.0,0.29450000000002774
90,6,0.5,0.125,35.0,-1,0.0,0.25900000000001455
91,6,0.5,0.25,35.0,-1,0.0,0.2738000000000511
92,6,0.5,0.0,35.0,1,1.0,0.5765999999999849
93,6,0.5,0.125,-35.0,-1,1.0,0.5444000000000528
94,6,0.5,0.25,35.0,-1,0.0,0.29189999999999827
95,6,0.5,0.0625,-35.0,-1,1.0,0.28649999999998954
96,6,0.5,0.0625,-35.0,-1,1.0,0.2215999999999667
97,6,0.5,0.0,-35.0,-1,1.0,0.058100000000024465
98,6,0.5,0.125,-35.0,-1,1.0,0.2535000000000309
99,6,0.5,1.0,35.0,-1,0.0,0.21900000000005093
100,6,0.5,0.0625,-35.0,-1,1.0,0.35130000000003747
101,6,0.5,1.0,35.0,1,1.0,0.26780000000002246
102,6,0.5,1.0,-35.0,-1,1.0,0.25940000000002783
103,6,0.5,0.0625,35.0,-1,0.0,0.30700000000001637
104,6,0.5,0.0625,35.0,1,1.0,0.21710000000001628
105,6,0.5,0.25,35.0,1,1.0,0.7617000000000189
106,6,0.5,0.0625,-35.0,-1,1.0,0.25020000000000664
107,6,0.5,0.25,35.0,-1,0.0,0.3034000000000674
108,6,0.5,0.0625,-35.0,1,0.0,0.20330000000001291
109,6,0.5,0.0,-35.0,-1,1.0,0.24860000000001037
110,6,0.5,0.0,35.0,-1,0.0,0.1861989999999878
111,6,0.5,0.25,35.0,1,1.0,0.4415000000000191
112,6,0.5,0.25,35.0,-1,0.0,0.30510000000003856
113,6,0.5,0.125,-35.0,-1,1.0,0.269299999999987
114,6,0.5,0.0,-35.0,-1,1.0,0.2907999999999902
115,6,0.5,1.0,-35.0,-1,1.0,0.20610000000004902
116,6,0.5,0.0625,-35.0,-1,1.0,0.24919999999997344
117,6,0.5,0.25,35.0,-1,0.0,0.29189999999999827
118,6,0.5,0.125,35.0,1,1.0,0.24469999999996617
119,6,0.5,0.25,35.0,-1,0.0,0.22720000000003893
120,6,0.5,0.0,35.0,1,1.0,0.307200000000023
121,6,0.5,1.0,35.0,1,1.0,0.29579999999998563
122,6,0.5,0.0625,35.0,1,1.0,2.3885999999999967
123,6,0.5,0.25,-35.0,-1,1.0,0.24040000000002237
124,6,0.5,1.0,35.0,1,1.0,0.415300000000002
125,6,0.5,1.0,-35.0,-1,1.0,0.2265000000000441
126,6,0.5,0.25,35.0,1,1.0,0.34850000000000136
127,6,0.5,0.0,35.0,1,1.0,0.4830000000000041
128,6,0.5,0.25,35.0,1,1.0,0.28829999999999245
129,6,0.5,0.0625,35.0,1,1.0,3.7607000000000426
130,6,0.5,0.0625,35.0,1,1.0,4.460000000000036
131,6,0.5,0.0625,35.0,-1,0.0,0.775100000000009
132,6,0.5,0.0,-35.0,1,0.0,1.6680999999999813
133,6,0.5,0.125,-35.0,-1,1.0,0.40440000000000964
134,6,0.5,0.0,35.0,1,1.0,2.9333999999998923
135,6,0.5,0.25,35.0,1,1.0,0.6707999999999856
136,6,0.5,0.0,35.0,1,1.0,2.0836000000000467
137,6,0.5,1.0,-35.0,-1,1.0,0.639699999999948
138,6,0.5,0.0625,35.0,-1,0.0,0.3654999999998836
139,6,0.6,0.0625,-35.0,-1,1.0,0.330600000000004
140,6,0.5,1.0,35.0,1,1.0,0.35579999999993106
141,6,0.5,1.0,35.0,1,1.0,0.2884000000000242
142,6,0.5,1.0,-35.0,-1,1.0,0.2259999999998854
143,6,0.5,0.0625,-35.0,-1,1.0,0.26159999999993033
144,6,0.5,0.0,35.0,-1,0.0,0.29980000000000473
145,6,0.4,0.0,-35.0,1,0.0,0.32119999999997617
146,6,0.5,1.0,-35.0,-1,1.0,0.25649999999996
147,6,0.5,0.0625,-35.0,-1,1.0,0.30989999999997053
148,6,0.5,0.0625,-35.0,-1,1.0,0.3248999999999569
149,6,0.5,0.0,35.0,1,1.0,3.6637000000000626
150,6,0.5,0.25,35.0,-1,0.0,0.03459999999995489
151,6,0.3,0.25,35.0,1,1.0,0.27499999999997726
152,6,0.5,1.0,-35.0,-1,1.0,0.20439999999996417
153,6,0.5,0.0,35.0,-1,0.0,0.2664999999999509
154,6,0.5,0.0,-35.0,-1,1.0,0.2437999999999647
155,6,0.5,0.125,-35.0,-1,1.0,0.23480000000006385
156,6,0.5,0.25,-35.0,-1,1.0,0.274599999999964
157,6,0.5,0.0625,35.0,1,1.0,0.058799999999905594
158,6,0.5,1.0,-35.0,-1,1.0,0.2767999999998665
159,6,0.5,0.25,35.0,-1,0.0,0.11929999999995289
160,6,0.5,0.0,-35.0,1,0.0,0.4119999999999209
161,6,0.5,0.0,-35.0,1,0.0,0.34609999999986485
162,6,0.3,0.0,35.0,-1,0.0,0.4289999999999736
163,6,0.5,1.0,35.0,1,1.0,0.14989999999988868
164,6,0.5,0.125,-35.0,-1,1.0,0.35619999999994434
165,6,0.5,0.25,-35.0,-1,1.0,0.21439999999995507
166,6,0.5,0.125,-35.0,-1,1.0,0.24589999999989232
167,6,0.5,0.125,-35.0,-1,1.0,0.23029999999994288
168,6,0.5,1.0,-35.0,-1,1.0,0.06100000000003547
169,6,0.5,0.0625,35.0,-1,0.0,0.1958999999999378
170,6,0.3,0.0625,35.0,1,1.0,0.33299999999997
171,6,0.5,1.0,35.0,1,1.0,0.31169999999985976
172,6,0.5,1.0,-35.0,-1,1.0,0.23600000000010368
173,6,0.5,1.0,-35.0,-1,1.0,0.21129999999993743
174,6,0.5,0.125,35.0,-1,0.0,0.23319999999989705
175,6,0.5,0.25,-35.0,1,0.0,0.06389999999987594
176,6,0.5,0.125,35.0,1,1.0,0.31169999999997344
177,6,0.5,0.125,35.0,1,1.0,0.9873999999999796
178,6,0.5,0.0625,35.0,-1,0.0,0.32579999999984466
179,6,0.5,0.0625,35.0,1,1.0,0.2802000000000362
180,6,0.5,1.0,35.0,1,1.0,0.22659999999996217
181,6,0.5,0.125,-35.0,1,0.0,0.1872000000000753
182,6,0.6,0.125,35.0,1,1.0,0.605899999999906
183,6,0.5,1.0,-35.0,1,0.0,0.21839999999997417
184,6,0.8,1.0,-35.0,-1,1.0,0.44219999999995707
185,6,0.5,1.0,-35.0,-1,1.0,0.21920000000000073
186,6,0.5,0.0625,-35.0,-1,1.0,0.2921999999999798
187,6,0.5,1.0,-35.0,-1,1.0,0.23479999999995016
188,6,0.5,1.0,35.0,1,1.0,0.21920000000000073
189,6,0.5,0.0625,35.0,-1,0.0,0.26720000000000255
190,6,0.5,0.0625,35.0,1,1.0,0.29200000000003
191,6,0.5,0.0625,-35.0,1,0.0,0.29509999999993397
192,6,0.5,0.0625,35.0,-1,0.0,0.2622999999998683
193,6,0.5,1.0,-35.0,-1,1.0,0.20299999999997453
194,6,0.5,1.0,-35.0,-1,1.0,0.393100000000004
195,6,0.5,1.0,-35.0,-1,1.0,0.21129999999993743
196,6,0.5,0.25,35.0,-1,0.0,0.40829999999994016
197,6,0.5,0.0625,-35.0,-1,1.0,0.377399999999966
198,6,0.5,0.0625,-35.0,-1,1.0,0.26719999999988886
199,6,0.5,0.25,35.0,-1,0.0,0.2744999999999891
200,6,0.5,0.0625,-35.0,-1,1.0,0.5154999999998608
201,6,0.5,1.0,35.0,-1,0.0,0.25540000000000873
202,6,0.5,0.0,-35.0,-1,1.0,0.29349999999999454
203,6,0.5,1.0,-35.0,-1,1.0,0.22119999999995343
204,6,0.5,0.0625,35.0,-1,0.0,0.2564999999998463
205,6,0.0,0.0625,35.0,1,1.0,0.33429999999987103
206,6,0.5,1.0,35.0,1,1.0,0.6574999999999136
207,6,0.5,0.0625,-35.0,-1,1.0,0.23490000000003874
208,6,0.5,0.25,-35.0,-1,1.0,0.22030000000006567
209,6,0.5,0.0625,35.0,-1,0.0,0.28129999999998745
210,6,0.5,0.25,-35.0,-1,1.0,0.39839999999992415
211,6,0.5,0.0625,-35.0,-1,1.0,0.26349999999990814
212,6,0.5,0.25,-35.0,-1,1.0,0.2259000000000242
213,6,0.5,0.0625,35.0,-1,0.0,0.2039999999998372
214,6,0.5,0.125,35.0,1,1.0,0.35419999999999163
215,6,0.5,0.125,-35.0,-1,1.0,0.3107999999998583
216,6,0.5,0.0,-35.0,-1,1.0,0.6817999999999529
217,6,0.5,0.25,35.0,-1,0.0,0.5625999999999749
218,6,0.1,0.25,35.0,1,1.0,0.24569999999994252
219,6,0.5,1.0,35.0,1,1.0,0.28969999999992524
220,6,0.5,0.25,-35.0,-1,1.0,0.21529999999995653
221,6,0.5,0.125,35.0,1,1.0,0.26679999999998927
222,6,0.5,1.0,-35.0,-1,1.0,0.0544999999999618
223,6,0.5,0.0,35.0,1,1.0,0.2546999999998434
224,6,0.5,0.25,35.0,1,1.0,0.5606999999999971
225,6,0.5,1.0,35.0,1,1.0,3.046799999999962
226,6,0.5,0.0625,35.0,-1,0.0,0.22469999999987067
227,6,0.5,0.0625,-35.0,-1,1.0,0.30570000000000164
228,6,0.5,0.125,-35.0,1,0.0,0.7627999999998565
229,6,0.5,0.125,35.0,1,1.0,0.34179999999992106
230,6,0.5,1.0,35.0,-1,0.0,0.28880000000003747
231,6,0.5,0.0625,35.0,-1,0.0,0.21879999999987376
232,6,0.5,0.0625,-35.0,1,0.0,0.23479999999995016
233,6,0.5,1.0,35.0,1,1.0,0.09439999999995052
234,6,0.5,0.0,-35.0,1,0.0,0.30589999999995143
235,6,0.5,0.125,35.0,1,1.0,0.24889999999993506
236,6,0.5,0.0625,-35.0,-1,1.0,0.2703999999999951
237,6,0.5,0.25,35.0,-1,0.0,0.34979999999984557
238,6,0.5,0.125,35.0,-1,0.0,0.26490000000001146
239,6,0.5,0.0,35.0,1,1.0,0.0425999999998794
240,6,0.5,0.0625,-35.0,1,0.0,0.44299999999986994
241,6,0.5,0.125,-35.0,1,0.0,0.2983999999999014
242,6,0.5,0.0625,-35.0,1,0.0,0.40590000000008786
243,6,0.7,0.0625,35.0,-1,0.0,0.5109999999999673
244,6,0.5,1.0,-35.0,-1,1.0,0.26369999999985794
245,6,0.5,0.25,35.0,1,1.0,0.5790999999999258
246,6,0.5,0.0,35.0,1,1.0,2.891499999999951
247,6,0.5,0.0625,35.0,1,1.0,0.4417999999999438
248,6,0.5,0.0625,-35.0,-1,1.0,0.2843000000000302
249,6,0.5,0.0625,35.0,-1,0.0,0.29719999999997526
250,6,0.5,0.0625,-35.0,-1,1.0,0.2583999999999378
251,6,0.5,1.0,-35.0,-1,1.0,0.23419999999998709
252,6,0.5,0.25,35.0,1,1.0,0.3550999999999931
253,6,0.5,0.125,35.0,1,1.0,1.1971999999999525
254,6,0.5,0.125,-35.0,-1,1.0,0.5763999999999214
255,6,0.5,0.25,-35.0,-1,1.0,0.2581999999998743
256,6,0.5,0.0625,35.0,-1,0.0,0.2524999999999409
257,6,0.5,0.0625,-35.0,-1,1.0,0.3488999999999578
258,6,0.5,0.0,-35.0,1,0.0,0.44429999999999836
259,6,0.5,0.125,-35.0,1,0.0,0.28139999999996235
260,6,0.5,0.0,-35.0,1,0.0,0.27969999999993433
261,6,0.5,0.0625,35.0,1,1.0,0.3326999999999316
262,6,0.5,0.25,35.0,-1,0.0,0.3690999999998894
263,6,0.5,0.125,-35.0,-1,1.0,0.2723999999999478
264,6,0.5,0.125,-35.0,-1,1.0,0.29139999999995325
265,6,0.5,0.0625,-35.0,-1,1.0,0.2884999999998854
266,6,0.5,0.0625,35.0,-1,0.0,0.6870000000000118
267,6,0.5,0.125,-35.0,-1,1.0,0.4733999999999696
268,6,0.5,0.0625,-35.0,-1,1.0,0.4133999999999105
269,6,0.5,0.0,-35.0,-1,1.0,0.42699999999990723
270,6,0.5,0.25,-35.0,1,0.0,0.0425999999998794
271,6,0.5,0.125,-35.0,-1,1.0,0.5634999999999764
272,6,0.5,0.0625,-35.0,-1,1.0,0.36859999999978754
273,6,0.5,0.25,35.0,1,1.0,0.38049999999998363
274,6,0.5,0.25,35.0,1,1.0,0.28350000000000364
275,6,0.5,0.125,35.0,1,1.0,0.33730000000014115
276,6,0.5,0.25,35.0,1,1.0,0.3305000000000291
277,6,0.5,0.0625,-35.0,1,0.0,0.6735000000001037
278,6,0.5,0.0,35.0,1,1.0,0.3665000000000873
279,6,0.5,0.0625,35.0,1,1.0,0.37459999999987303
280,6,0.5,0.25,-35.0,-1,1.0,0.5235999999999876
281,6,0.5,0.25,35.0,1,1.0,0.2626000000000204
282,6,0.5,1.0,-35.0,-1,1.0,0.1915999999998803
283,6,0.5,0.125,-35.0,-1,1.0,0.31179999999994834
284,6,0.5,0.25,-35.0,-1,1.0,0.223700000000008
285,6,0.5,0.0625,-35.0,1,0.0,0.3188999999999851
286,6,0.5,0.125,35.0,1,1.0,0.43669999999997344
287,6,0.5,0.25,35.0,1,1.0,0.4036999999998443
288,6,0.5,0.25,35.0,1,1.0,0.6446999999998297
289,6,0.5,1.0,-35.0,-1,1.0,0.35029999999983374
290,6,0.5,0.0625,35.0,1,1.0,0.29619999999977153
291,6,0.5,1.0,35.0,1,1.0,0.5207000000000335
292,6,0.5,1.0,35.0,1,1.0,0.2542999999998301
293,6,0.5,1.0,35.0,1,1.0,0.3268000000000484
294,6,0.5,0.0625,-35.0,-1,1.0,0.3046999999999116
295,6,0.5,0.25,35.0,-1,0.0,0.25219999999967513
296,6,0.5,0.25,35.0,1,1.0,0.21959999999990032
297,6,0.5,0.0625,-35.0,-1,1.0,0.5088000000000648
298,6,0.5,0.0,35.0,-1,0.0,0.6799000000000888
299,6,0.5,0.125,35.0,1,1.0,0.2638999999999214
300,6,0.5,0.125,-35.0,-1,1.0,0.279700000000048
301,6,0.5,0.0,35.0,-1,0.0,0.2516000000000531
302,6,0.5,0.25,-35.0,-1,1.0,0.3065990000000056
303,6,0.5,0.25,35.0,1,1.0,0.33390000000008513
304,6,0.5,0.0625,-35.0,-1,1.0,0.19559999999978572
305,6,0.5,0.25,35.0,-1,0.0,0.26539900000011585
306,6,0.5,0.25,35.0,1,1.0,0.2999999999999545
307,6,0.5,0.25,35.0,1,1.0,2.780699999999797
308,6,0.5,0.25,35.0,-1,0.0,0.5572999999999411
309,6,0.5,0.125,35.0,1,1.0,0.4358999999997195
310,6,0.5,0.0,-35.0,1,0.0,0.5123999999998432
311,6,0.5,0.25,35.0,1,1.0,0.35809999999992215
312,6,0.5,0.0,-35.0,1,0.0,0.3624999999999545
313,6,0.5,0.125,35.0,1,1.0,0.2876000000001113
314,6,0.5,0.125,35.0,1,1.0,1.6231000000000222
315,6,0.5,0.125,-35.0,-1,1.0,0.24909999999977117
316,6,0.5,0.125,35.0,1,1.0,0.3165999999998803
317,6,0.5,0.0,-35.0,1,0.0,0.21519999999986794
318,6,0.5,0.25,35.0,1,1.0,0.26739999999972497
319,6,0.5,0.0625,35.0,1,1.0,0.33780000000001564
320,6,0.5,1.0,-35.0,-1,1.0,0.38419900000008056
321,6,0.5,0.0625,35.0,1,1.0,0.2661999999997988
322,6,0.5,0.0625,35.0,1,1.0,0.3186000000000604
323,6,0.5,0.25,35.0,1,1.0,0.2518000000000029
324,6,0.5,0.125,-35.0,-1,1.0,0.401299999999992
325,6,0.5,0.125,35.0,1,1.0,0.25929999999993925
326,6,0.5,0.125,35.0,1,1.0,0.26330000000007203
327,6,0.5,0.0625,-35.0,-1,1.0,0.30130000000008295
328,6,0.5,0.25,-35.0,-1,1.0,0.24689999999986867
329,6,0.5,0.125,-35.0,-1,1.0,0.26330000000007203
330,6,0.5,1.0,35.0,1,1.0,0.2762999999997646
331,6,0.5,0.25,-35.0,-1,1.0,0.2723999999998341
332,6,0.5,0.0625,35.0,1,1.0,0.27739999999994325
333,6,0.5,0.25,-35.0,-1,1.0,0.29389999999989413
334,6,0.5,1.0,-35.0,-1,1.0,0.27929999999992106
335,6,0.5,0.25,-35.0,1,0.0,0.051400000000057844
336,6,0.5,0.25,35.0,1,1.0,0.1113999999997759
337,6,0.5,1.0,-35.0,-1,1.0,0.1894999999999527
338,6,0.5,1.0,35.0,1,1.0,0.1874000000000251
339,6,0.5,1.0,35.0,-1,0.0,0.20259999999984757
340,6,0.5,1.0,-35.0,-1,1.0,0.37449999999967076
341,6,0.5,1.0,35.0,1,1.0,0.32349999999996726
342,6,0.5,1.0,35.0,1,1.0,0.26549999999997453
343,6,0.5,0.25,35.0,1,1.0,1.218499999999949
344,6,0.5,0.0625,-35.0,-1,1.0,0.22080000000005384
345,6,0.5,0.0625,-35.0,1,0.0,0.30949999999984357
346,6,0.6,0.0625,35.0,1,1.0,0.23860000000013315
347,6,0.5,1.0,-35.0,-1,1.0,0.2075999999999567
348,6,0.5,1.0,35.0,-1,0.0,0.2216000000000804
349,6,0.5,0.0625,-35.0,1,0.0,0.28959999999983665
350,6,0.5,0.25,35.0,1,1.0,0.35960000000000036
351,6,0.5,0.25,35.0,-1,0.0,0.4335999999998421
352,6,0.5,0.25,35.0,1,1.0,0.2536000000000058
353,6,0.5,0.125,-35.0,-1,1.0,0.3727000000001226
354,6,0.5,0.125,35.0,1,1.0,0.3756999999998243
355,6,0.5,1.0,35.0,1,1.0,0.16769999999996799
356,6,0.5,0.25,35.0,1,1.0,0.5356999999999061
357,6,0.5,1.0,35.0,1,1.0,0.1778999999999087
358,6,0.5,0.0625,-35.0,-1,1.0,0.23979999999983193
359,6,0.5,0.125,35.0,1,1.0,0.31490000000007967
360,6,0.5,0.0,35.0,-1,0.0,0.39079999999989923
361,6,0.5,0.25,-35.0,-1,1.0,0.22530000000006112
362,6,0.5,0.0625,35.0,1,1.0,0.3188000000000102
363,6,0.5,0.25,-35.0,-1,1.0,0.14689999999995962
364,6,0.5,1.0,35.0,1,1.0,0.2518999999999778
365,6,0.5,1.0,-35.0,-1,1.0,0.37489999999979773
366,6,0.5,0.0625,-35.0,-1,1.0,0.26089999999999236
367,6,0.5,0.25,35.0,-1,0.0,0.22509999999988395
368,6,0.5,0.0,-35.0,-1,1.0,0.28890000000023974
369,6,0.5,0.0625,-35.0,1,0.0,0.36839999999983775
370,6,0.5,0.25,-35.0,1,0.0,0.3751999999999498
371,6,0.5,0.0625,-35.0,-1,1.0,1.7490000000000236
372,6,0.5,0.0,-35.0,1,0.0,0.2999999999999545
373,6,0.5,0.0625,-35.0,-1,1.0,0.5623000000000502
374,6,0.5,0.125,-35.0,-1,1.0,0.37979999999993197
375,6,0.5,0.125,-35.0,-1,1.0,0.3421000000000731
376,6,0.5,0.0,35.0,1,1.0,0.36019999999984975
377,6,0.5,0.125,35.0,1,1.0,0.41010000000005675
378,6,0.5,0.25,35.0,1,1.0,0.3161999999999807
379,6,0.5,0.125,-35.0,-1,1.0,0.23129999999991924
380,6,0.5,0.0,35.0,1,1.0,2.107099999999946
381,6,0.5,0.0625,35.0,1,1.0,0.3341000000000349
382,6,0.5,0.25,35.0,1,1.0,0.2138999999999669
383,6,0.5,1.0,35.0,1,1.0,0.26919999999995525
384,6,0.5,0.25,35.0,1,1.0,0.2545999999997548
385,6,0.5,0.25,35.0,1,1.0,0.3082999999999174
386,6,0.5,0.0625,35.0,-1,0.0,0.2962999999999738
387,6,0.8,0.0625,-35.0,1,0.0,0.34140000000002146
388,6,0.5,1.0,-35.0,-1,1.0,0.21720000000004802
389,6,0.5,1.0,-35.0,-1,1.0,0.34330000000022665
390,6,0.5,0.25,35.0,1,1.0,0.36419999999998254
391,6,0.5,0.0625,-35.0,-1,1.0,0.4963000000000193
392,6,0.5,0.25,-35.0,-1,1.0,0.3286999999997988
393,6,0.5,0.0,-35.0,-1,1.0,0.3114999999997963
394,6,0.5,1.0,-35.0,-1,1.0,0.33039999999982683
395,6,0.5,1.0,-35.0,1,0.0,0.16699999999991633
396,6,0.5,0.0625,35.0,1,1.0,0.28340000000002874
397,6,0.5,1.0,-35.0,-1,1.0,0.04860000000007858
398,6,0.5,0.0625,35.0,1,1.0,0.244499999999789
399,6,0.5,0.0625,-35.0,-1,1.0,0.7783999999999196
400,6,0.5,0.0625,35.0,-1,0.0,0.3313999999998032
401,6,0.5,0.125,-35.0,-1,1.0,0.23049999999989268
402,6,0.5,0.0625,35.0,1,1.0,0.2805000000000746
403,6,0.5,0.25,35.0,1,1.0,0.24959999999987303
404,6,0.5,0.125,35.0,1,1.0,0.2885999999998603
405,6,0.5,0.0625,-35.0,-1,1.0,0.35209999999983665
406,6,0.5,0.0,35.0,-1,0.0,0.5946000000001277
407,6,0.5,0.0625,-35.0,-1,1.0,0.5785999999998239
408,6,0.5,0.25,35.0,1,1.0,0.2765999999999167
409,6,0.5,0.0,-35.0,1,0.0,0.2945999999999458
410,6,0.5,0.0625,-35.0,1,0.0,0.30929999999989377
411,6,0.5,0.0625,-35.0,-1,1.0,0.44269999999983156
412,6,0.5,0.25,35.0,1,1.0,0.33369999999990796
413,6,0.5,0.0,-35.0,1,0.0,0.3449999999997999
414,6,0.5,0.125,-35.0,-1,1.0,0.4656999999999698
415,6,0.5,0.0625,-35.0,1,0.0,0.18299999999999272
416,6,0.6,0.0625,35.0,1,1.0,0.33209999999985484
417,6,0.5,1.0,35.0,1,1.0,0.3327999999999065
418,6,0.5,0.25,-35.0,-1,1.0,0.38279999999986103
419,6,0.5,1.0,35.0,1,1.0,0.3158000000000811
420,6,0.5,1.0,-35.0,-1,1.0,0.3707999999999174
421,6,0.5,0.0625,35.0,1,1.0,0.3398000000001957
422,6,0.5,0.125,35.0,1,1.0,0.29529999999999745
423,6,0.5,0.25,35.0,1,1.0,0.304300000000012
424,6,0.5,0.125,-35.0,-1,1.0,0.300899999999956
425,6,0.5,0.25,-35.0,-1,1.0,0.3708999999998923
426,6,0.5,0.25,35.0,1,1.0,0.27589999999986503
427,6,0.5,1.0,35.0,1,1.0,0.3968999999999596
428,6,0.5,1.0,-35.0,-1,1.0,0.3945000000001073
429,6,0.5,0.125,35.0,1,1.0,0.04589999999984684
430,6,0.5,1.0,35.0,1,1.0,0.23109999999974207
431,6,0.5,0.25,-35.0,1,0.0,0.19299999999998363
432,6,0.5,0.25,-35.0,-1,1.0,0.34920000000010987
433,6,0.5,0.0,35.0,1,1.0,0.2740000000001146
434,6,0.5,0.0625,-35.0,-1,1.0,0.4536999999997988
435,6,0.5,0.25,35.0,1,1.0,0.26510000000007494
436,6,0.5,1.0,35.0,1,1.0,0.2503999999998996
437,6,0.5,1.0,35.0,1,1.0,0.33379999999988286
438,6,0.5,0.0625,35.0,1,1.0,0.26300000000014734
439,6,0.5,1.0,35.0,1,1.0,0.2054000000000542
440,6,0.5,0.0625,35.0,1,1.0,0.25070000000005166
441,6,0.5,0.25,35.0,1,1.0,0.30709999999999127
442,6,0.5,0.125,35.0,1,1.0,0.24710000000004584
443,6,0.5,0.0,-35.0,1,0.0,0.20319999999992433
444,6,0.5,0.0625,-35.0,-1,1.0,0.45839999999998327
445,6,0.5,0.125,-35.0,1,0.0,0.2810999999996966
446,6,0.5,0.0625,-35.0,1,0.0,0.3555999999998676
447,6,0.9,0.0625,-35.0,-1,1.0,0.4197999999998956
448,6,0.5,1.0,-35.0,-1,1.0,0.2317000000000462
449,6,0.5,1.0,35.0,1,1.0,0.3192999999998847
450,6,0.5,1.0,35.0,1,1.0,0.31130000000007385
451,6,0.5,0.125,35.0,1,1.0,0.23339999999984684
452,6,0.5,0.25,35.0,-1,0.0,0.2924000000000433
453,6,0.6,0.25,-35.0,-1,1.0,0.27299999999991087
454,6,0.5,1.0,35.0,1,1.0,0.417699999999968
455,6,0.5,0.125,-35.0,-1,1.0,0.3694000000000415
456,6,0.5,0.125,-35.0,-1,1.0,0.20639999999980319
457,6,0.5,0.0,-35.0,1,0.0,0.2863999999997304
458,6,0.5,0.0625,-35.0,-1,1.0,0.45030000000019754
459,6,0.5,0.0625,35.0,1,1.0,0.29450000000019827
460,6,0.5,0.0625,35.0,-1,0.0,0.5054999999999836
461,6,0.5,0.125,-35.0,-1,1.0,0.24050000000011096
462,6,0.5,1.0,35.0,1,1.0,0.1974999999999909
463,6,0.5,0.125,35.0,1,1.0,0.1695999999999458
464,6,0.5,0.125,35.0,1,1.0,0.2798000000000229
465,6,0.5,0.25,35.0,1,1.0,0.26959999999985484
466,6,0.5,0.25,-35.0,-1,1.0,0.2165999999997439
467,6,0.5,0.25,-35.0,-1,1.0,0.21959999999990032
468,6,0.5,1.0,-35.0,-1,1.0,0.29349999999999454
469,6,0.5,0.0,35.0,1,1.0,0.22159999999985303
470,6,0.5,0.0625,-35.0,-1,1.0,0.34979999999995925
471,6,0.5,0.0625,35.0,1,1.0,0.4175999999997657
472,6,0.5,0.25,35.0,1,1.0,0.43669999999997344
473,6,0.5,0.0,35.0,-1,0.0,0.2556999999999334
474,6,0.5,0.0,-35.0,-1,1.0,0.29159999999978936
475,6,0.5,0.125,35.0,-1,0.0,0.2977000000000771
476,6,0.5,0.125,35.0,1,1.0,0.33720000000016626
477,6,0.5,0.0625,-35.0,-1,1.0,0.08479999999985921
478,6,0.5,1.0,35.0,1,1.0,0.5162000000000262
479,6,0.5,0.25,35.0,1,1.0,0.2618999999999687
480,6,0.5,0.125,35.0,1,1.0,0.42180000000007567
481,6,0.5,0.125,-35.0,-1,1.0,0.23050000000012005
482,6,0.5,1.0,-35.0,-1,1.0,0.48519999999984975
483,6,0.5,0.125,35.0,1,1.0,0.19879999999989195
484,6,0.5,1.0,-35.0,-1,1.0,0.04149999999981446
485,6,0.5,0.0625,-35.0,-1,1.0,0.3199000000001888
486,6,0.5,1.0,-35.0,-1,1.0,0.32960000000002765
487,6,0.5,0.125,-35.0,-1,1.0,0.3628999999998541
488,6,0.5,0.0,-35.0,1,0.0,0.30349999999998545
489,6,0.4,0.0,35.0,-1,0.0,0.44290000000000873
490,6,0.5,1.0,35.0,1,1.0,0.21039999999993597
491,6,0.5,0.125,-35.0,-1,1.0,0.34389999999984866
492,6,0.5,1.0,35.0,1,1.0,0.28500000000008185
493,6,0.5,0.25,35.0,1,1.0,0.06120000000009895
494,6,0.5,1.0,35.0,1,1.0,0.08600000000001273
495,6,0.5,0.0625,-35.0,-1,1.0,0.4637999999997646
496,6,0.5,0.25,-35.0,-1,1.0,0.41380000000003747
497,6,0.5,0.0625,-35.0,-1,1.0,0.401299999999992
498,6,0.5,0.0625,-35.0,1,0.0,0.24379999999973734
499,6,0.5,0.0625,35.0,1,1.0,0.421100000000024
500,6,0.5,1.0,35.0,1,1.0,0.25109999999995125
501,6,0.5,0.125,-35.0,-1,1.0,0.3681000000001404
502,6,0.5,0.125,-35.0,-1,1.0,0.6046999999998661
503,6,0.5,0.0625,35.0,1,1.0,0.23420000000010077
504,6,0.5,1.0,35.0,1,1.0,0.2541999999998552
505,6,0.5,0.0,35.0,1,1.0,0.16120000000023538
506,6,0.5,0.125,35.0,1,1.0,0.2561999999998079
507,6,0.5,0.0625,35.0,1,1.0,0.4552000000001044
508,6,0.5,0.125,35.0,1,1.0,0.46839999999997417
509,6,0.5,0.125,-35.0,-1,1.0,0.30719999999996617
510,6,0.5,0.25,35.0,1,1.0,0.2158999999999196
511,6,0.5,0.0625,35.0,1,1.0,0.46860000000015134
512,6,0.5,0.25,-35.0,-1,1.0,0.22880000000009204
513,6,0.5,0.0625,-35.0,1,0.0,0.40449999999987085
514,6,0.8,0.0625,-35.0,-1,1.0,0.2623000000000957
515,6,0.5,1.0,-35.0,-1,1.0,0.32529999999997017
516,6,0.5,0.0625,-35.0,-1,1.0,0.5504000000000815
517,6,0.5,1.0,35.0,-1,0.0,0.16020000000003165
518,6,0.5,0.0625,-35.0,-1,1.0,0.42480000000000473
519,6,0.5,0.25,-35.0,-1,1.0,0.31159999999999854
520,6,0.5,0.0625,-35.0,-1,1.0,0.3024000000000342
521,6,0.5,0.0625,-35.0,-1,1.0,0.39239999999995234
522,6,0.5,0.25,35.0,-1,0.0,0.42640000000005784
523,6,0.5,0.0625,35.0,1,1.0,0.3914999999999509
524,6,0.5,1.0,35.0,1,1.0,0.5126000000000204
525,6,0.5,1.0,35.0,1,1.0,0.27150000000006
526,6,0.5,1.0,-35.0,-1,1.0,0.29520000000002256
527,6,0.5,0.25,-35.0,1,0.0,0.1814999999999145
528,6,0.5,0.0625,-35.0,1,0.0,0.2747999999999138
529,6,0.5,0.125,-35.0,-1,1.0,0.4375999999999749
530,6,0.5,1.0,35.0,1,1.0,0.2703000000001339
531,6,0.5,0.0625,35.0,1,1.0,0.302599999999984
532,6,0.5,0.25,35.0,1,1.0,0.2802999999998974
533,6,0.5,0.0625,35.0,-1,0.0,0.5554999999999382
534,6,0.7,0.0625,-35.0,-1,1.0,0.4276999999999589
535,6,0.5,1.0,-35.0,-1,1.0,0.3309999999999036
536,6,0.5,1.0,-35.0,-1,1.0,0.28369999999995343
537,6,0.5,0.0625,-35.0,1,0.0,0.16770000000042273
538,6,0.5,0.25,35.0,1,1.0,0.46370000000024447
539,6,0.5,0.0625,-35.0,-1,1.0,0.2907000000000153
540,6,0.5,0.0,-35.0,1,0.0,0.31179999999994834
541,6,0.5,0.125,35.0,1,1.0,0.327900000000227
542,6,0.5,0.0625,35.0,1,1.0,0.33070000000043365
543,6,0.5,0.125,-35.0,-1,1.0,0.37080000000059954
544,6,0.5,0.0625,-35.0,1,0.0,0.24579999999969004
545,6,0.5,0.0625,35.0,1,1.0,0.45990000000028886
546,6,0.5,0.0625,35.0,1,1.0,0.3310999999998785
547,6,0.5,0.0625,-35.0,1,0.0,0.690900000000056
548,6,0.8,0.0625,35.0,1,1.0,0.3359000000004926
549,6,0.5,1.0,-35.0,-1,1.0,0.276299999999992
550,6,0.5,1.0,35.0,1,1.0,0.2189000000003034
551,6,0.5,1.0,-35.0,-1,1.0,0.3560000000002219
552,6,0.5,1.0,35.0,1,1.0,0.21090000000049258
553,6,0.5,0.125,35.0,1,1.0,0.30640000000039436
554,6,0.5,0.0625,-35.0,1,0.0,0.277400000000398
555,6,0.5,0.0,35.0,1,1.0,0.3969999999999345
556,6,0.5,0.125,35.0,1,1.0,0.315900000000056
557,6,0.5,1.0,-35.0,1,0.0,0.1548000000002503
558,6,0.8,1.0,-35.0,-1,1.0,0.2351000000003296
559,6,0.5,1.0,-35.0,-1,1.0,0.22240000000010696
560,6,0.5,0.25,35.0,1,1.0,0.24630000000024665
561,6,0.5,1.0,-35.0,-1,1.0,0.44010000000025684
562,6,0.5,0.0,-35.0,1,0.0,0.18610000000035143
563,6,0.5,0.0625,35.0,1,1.0,0.21920000000045547
564,6,0.5,0.25,-35.0,-1,1.0,0.27220000000033906
565,6,0.5,1.0,35.0,1,1.0,0.29830000000038126
566,6,0.5,0.0,35.0,1,1.0,0.05819999999994252
567,6,0.5,1.0,35.0,1,1.0,0.3162000000002081
568,6,0.5,0.25,35.0,-1,0.0,0.2842000000000553
569,6,0.6,0.25,35.0,1,1.0,0.3083000000001448
570,6,0.5,1.0,35.0,1,1.0,0.28830000000061773
571,6,0.5,0.0625,-35.0,-1,1.0,0.22020000000020445
572,6,0.5,0.25,35.0,1,1.0,0.46230000000014115
573,6,0.5,0.125,35.0,1,1.0,0.32740000000012515
574,6,0.5,1.0,35.0,1,1.0,0.2624000000005253
575,6,0.5,0.0625,-35.0,1,0.0,0.17390000000023065
576,6,0.5,0.125,-35.0,-1,1.0,1.2763999999997395
577,6,0.5,0.125,-35.0,-1,1.0,0.22980000000052314
578,6,0.5,0.25,-35.0,-1,1.0,0.3397000000004482
579,6,0.5,0.125,-35.0,-1,1.0,0.33840000000054715
580,6,0.5,0.25,35.0,1,1.0,0.35019999999985885
581,6,0.5,0.125,35.0,1,1.0,0.40150000000039654
582,6,0.5,0.125,35.0,1,1.0,0.49949999999989814
583,6,0.5,0.125,-35.0,-1,1.0,0.3075000000003456
584,6,0.5,0.125,-35.0,-1,1.0,0.06350000000020373
585,6,0.5,0.125,-35.0,-1,1.0,0.2653000000004795
586,6,0.5,0.0625,35.0,-1,0.0,0.5739000000007763
587,6,0.5,0.25,35.0,-1,0.0,0.19550000000026557
588,6,0.5,0.125,-35.0,-1,1.0,0.39980000000014115
589,6,0.5,0.125,-35.0,-1,1.0,0.4636000000000422
590,6,0.5,0.25,-35.0,-1,1.0,0.4993000000004031
591,6,0.5,0.125,-35.0,-1,1.0,0.6119000000003325
592,6,0.5,1.0,-35.0,-1,1.0,0.2026000000005297
593,6,0.5,0.0625,35.0,1,1.0,0.3765000000003056
594,6,0.5,0.125,-35.0,-1,1.0,0.3111999999996442
595,6,0.5,0.125,35.0,1,1.0,0.3140000000003056
596,6,0.5,1.0,-35.0,-1,1.0,0.3506999999999607
597,6,0.5,0.25,-35.0,-1,1.0,0.3556000000003223
598,6,0.5,0.25,35.0,1,1.0,0.4007000000001426
599,6,0.5,1.0,35.0,1,1.0,0.42570000000023356
600,6,0.5,0.0625,-35.0,-1,1.0,0.20369999999957145
601,6,0.5,0.0,-35.0,-1,1.0,0.5872000000003936
602,6,0.5,0.125,-35.0,-1,1.0,0.3601000000003296
603,6,0.5,1.0,35.0,1,1.0,0.281800000000203
604,6,0.5,1.0,35.0,1,1.0,0.236800000000585
605,6,0.5,0.0625,-35.0,-1,1.0,0.4549000000001797
606,6,0.5,0.25,-35.0,-1,1.0,0.5239000000001397
607,6,0.5,0.0,35.0,1,1.0,0.26090000000021973
608,6,0.5,1.0,35.0,1,1.0,0.26490000000012515
609,6,0.5,0.125,35.0,1,1.0,0.2798999999999978
610,6,0.5,0.25,35.0,-1,0.0,0.16520000000036816
611,6,0.5,0.25,35.0,1,1.0,0.23489999999992506
612,6,0.5,1.0,-35.0,-1,1.0,0.2541999999998552
613,6,0.5,0.0625,35.0,1,1.0,0.25139999999964857
614,6,0.5,0.125,-35.0,-1,1.0,0.23100000000022192
615,6,0.5,1.0,35.0,1,1.0,0.2905000000000655
616,6,0.5,0.25,-35.0,-1,1.0,0.3401000000003478
617,6,0.5,1.0,-35.0,-1,1.0,0.14409999999998035
618,6,0.5,1.0,35.0,1,1.0,0.24310000000059517
619,6,0.5,0.125,35.0,1,1.0,0.8085000000000946
620,6,0.5,0.0,-35.0,-1,1.0,0.5015000000003056
621,6,0.5,0.0625,-35.0,-1,1.0,0.2141999999998916
622,6,0.5,0.25,35.0,1,1.0,0.2533000000003085
623,6,0.5,0.125,-35.0,-1,1.0,0.14810000000034051
624,6,0.5,0.125,35.0,1,1.0,0.25320000000010623
625,6,0.5,1.0,35.0,1,1.0,0.2782000000001972
626,6,0.5,1.0,35.0,1,1.0,0.3243000000002212
627,6,0.5,0.25,-35.0,1,0.0,0.10230000000001382
628,6,0.5,0.0625,-35.0,-1,1.0,0.4197999999996682
629,6,0.5,0.125,35.0,1,1.0,0.5561999999999898
630,6,0.5,0.0,-35.0,1,0.0,0.30369999999993524
631,6,0.5,0.0,35.0,1,1.0,0.26430000000027576
632,6,0.5,0.125,35.0,1,1.0,0.3967000000002372
633,6,0.5,0.25,35.0,1,1.0,0.2514000000001033
634,6,0.5,0.125,-35.0,-1,1.0,0.5219999999999345
635,6,0.5,0.0625,35.0,1,1.0,3.298400000000129
636,6,0.5,0.125,35.0,1,1.0,0.3373999999998887
637,6,0.5,0.25,-35.0,-1,1.0,0.4578999999998814
638,6,0.5,0.0625,35.0,1,1.0,0.4705000000003565
639,6,0.5,0.125,35.0,1,1.0,0.3621000000002823
640,6,0.5,1.0,-35.0,-1,1.0,0.2436000000002423
641,6,0.5,1.0,35.0,1,1.0,0.25900000000001455
642,6,0.5,0.0625,-35.0,-1,1.0,0.24370000000044456
643,6,0.5,0.25,-35.0,-1,1.0,0.26940000000058717
644,6,0.5,0.25,-35.0,-1,1.0,0.21720000000004802
645,6,0.5,1.0,-35.0,-1,1.0,0.20060000000012224
646,6,0.5,0.25,-35.0,-1,1.0,0.3366000000000895
647,6,0.5,1.0,-35.0,-1,1.0,0.3496000000004642
648,6,0.5,0.25,-35.0,1,0.0,0.1896999999999025
649,6,0.5,0.0,-35.0,1,0.0,0.417699999999968
650,6,0.3,0.0,35.0,1,1.0,12.65270000000055
651,6,0.5,1.0,35.0,1,1.0,0.6028000000005704
652,6,0.5,1.0,35.0,1,1.0,0.2988000000004831
653,6,0.5,0.0,35.0,1,1.0,0.33080000000018117
654,6,0.5,0.125,35.0,-1,0.0,0.22850000000016735
655,6,0.5,0.25,35.0,1,1.0,0.27559999999994034
656,6,0.5,0.25,35.0,1,1.0,3.769800000000032
657,6,0.5,1.0,35.0,1,1.0,0.33490000000028886
658,6,0.5,0.0625,-35.0,1,0.0,0.5724000000004708
659,6,0.5,0.0625,35.0,1,1.0,0.3242000000000189
660,6,0.5,0.0,35.0,-1,0.0,11.878300000000309
661,6,0.8,0.0,-35.0,1,0.0,0.41530000000057044
662,6,0.5,1.0,-35.0,-1,1.0,0.2220999999999549
663,6,0.5,0.0625,35.0,-1,0.0,0.6991000000002714
664,6,0.5,0.0625,-35.0,-1,1.0,0.675600000000486
665,6,0.5,0.0625,35.0,1,1.0,0.26250000000027285
666,6,0.5,0.0,35.0,1,1.0,0.7458000000005995
667,6,0.5,0.0,-35.0,1,0.0,0.5326000000000022
668,6,0.5,0.0625,35.0,1,1.0,0.33290000000033615
669,6,0.5,0.0,35.0,1,1.0,1.2361000000000786
670,6,0.5,0.125,35.0,1,1.0,0.3095000000002983
671,6,0.5,1.0,35.0,1,1.0,0.5398000000000138
672,6,0.5,0.25,35.0,1,1.0,0.42630000000008295
673,6,0.5,0.25,-35.0,-1,1.0,0.5098000000002685
674,6,0.5,0.0625,35.0,-1,0.0,0.5498000000002321
675,6,0.5,0.125,35.0,1,1.0,0.4066000000002532
676,6,0.5,0.0625,-35.0,-1,1.0,0.38340000000016516
677,6,0.5,0.0625,35.0,-1,0.0,0.6368999999999687
678,6,0.5,0.0,-35.0,1,0.0,0.41030000000000655
679,6,0.5,0.25,35.0,1,1.0,0.24380000000019209
680,6,0.5,0.125,-35.0,1,0.0,0.2905000000000655
681,6,0.6,0.125,35.0,-1,0.0,0.9674000000004526
682,6,0.5,1.0,35.0,1,1.0,0.21410000000014406
683,6,0.5,0.25,-35.0,-1,1.0,0.36750000000029104
684,6,0.5,0.0625,35.0,1,1.0,0.2875000000003638
685,6,0.5,0.125,35.0,1,1.0,0.5878999999999905
686,6,0.5,0.25,35.0,1,1.0,0.4143000000003667
687,6,0.5,0.125,-35.0,1,0.0,0.26110000000016953
688,6,0.5,0.0,35.0,1,1.0,0.3178000000002612
689,6,0.5,0.125,-35.0,1,0.0,0.568000000000211
690,6,0.5,0.125,35.0,1,1.0,0.2681000000002314
691,6,0.5,1.0,35.0,1,1.0,0.28160000000070795
692,6,0.5,0.125,35.0,1,1.0,0.271900000000187
693,6,0.5,0.125,-35.0,-1,1.0,0.5251000000002932
694,6,0.5,1.0,-35.0,-1,1.0,0.39180000000033033
695,6,0.5,0.125,35.0,1,1.0,0.2820999999999003
696,6,0.5,0.0625,35.0,1,1.0,0.28210000000035507
697,6,0.5,1.0,-35.0,-1,1.0,0.27880000000004657
698,6,0.5,1.0,35.0,1,1.0,0.502400000000307
699,6,0.5,0.0,-35.0,1,0.0,0.3624000000004344
700,6,0.5,0.25,-35.0,-1,1.0,0.31570000000010623
701,6,0.5,0.125,35.0,1,1.0,0.5126000000000204
702,6,0.5,0.125,35.0,1,1.0,0.5792000000005828
703,6,0.5,1.0,35.0,1,1.0,0.45929999999953
704,6,0.5,0.25,35.0,1,1.0,0.3894000000000233
705,6,0.5,0.25,35.0,1,1.0,0.5195000000003347
706,6,0.5,0.0,35.0,1,1.0,0.35290000000031796
707,6,0.5,0.0625,-35.0,1,0.0,0.6698000000005777
708,6,0.5,0.25,-35.0,1,0.0,0.29980000000068685
709,6,0.9,0.25,-35.0,-1,1.0,0.41330000000061773
710,6,0.5,1.0,35.0,1,1.0,0.34999999999990905
711,6,0.5,0.125,-35.0,-1,1.0,0.6102000000000771
712,6,0.5,1.0,35.0,1,1.0,0.27359999999998763
713,6,0.5,1.0,35.0,1,1.0,0.4535999999998239
714,6,0.5,0.0,35.0,-1,0.0,2.320499999999811
715,6,0.5,0.0625,-35.0,1,0.0,0.4940999999998894
716,6,0.5,0.25,-35.0,-1,1.0,0.41740000000027067
717,6,0.5,0.125,-35.0,-1,1.0,0.35749900000018897
718,6,0.5,0.0,35.0,-1,0.0,0.49410000000034415
719,6,0.4,0.0,35.0,1,1.0,0.33770000000004075
720,6,0.5,1.0,-35.0,-1,1.0,0.38110000000051514
721,6,0.5,0.25,35.0,1,1.0,0.2677000000003318
722,6,0.5,0.25,-35.0,-1,1.0,0.4681000000000495
723,6,0.5,0.125,-35.0,-1,1.0,0.4681000000000495
724,6,0.5,0.0625,-35.0,-1,1.0,0.5952000000006592
725,6,0.5,0.0625,35.0,1,1.0,0.3582000000001244
726,6,0.5,1.0,35.0,1,1.0,0.3449999999997999
727,6,0.5,0.125,35.0,1,1.0,0.39840000000003783
728,6,0.5,0.125,-35.0,-1,1.0,0.39170000000012806
729,6,0.5,0.125,35.0,1,1.0,0.25520000000005894
730,6,0.5,0.0625,-35.0,-1,1.0,0.6154000000001361
731,6,0.5,0.25,-35.0,-1,1.0,0.40219999999999345
732,6,0.5,0.25,35.0,-1,0.0,0.3624000000004344
733,6,0.5,0.25,-35.0,-1,1.0,0.34890000000041255
734,6,0.5,1.0,-35.0,-1,1.0,0.2923000000000684
735,6,0.5,0.25,35.0,1,1.0,3.039100000000417
736,6,0.5,1.0,35.0,1,1.0,0.49929999999994834
737,6,0.5,0.0625,-35.0,1,0.0,0.3361000000004424
738,6,0.4,0.0625,35.0,1,1.0,3.202700000000277
739,6,0.5,1.0,-35.0,-1,1.0,0.23970000000053915
740,6,0.5,0.0625,35.0,1,1.0,0.37300000000050204
741,6,0.5,0.0,-35.0,1,0.0,0.3398000000001957
742,6,0.5,0.125,35.0,1,1.0,2.6798000000003412
743,6,0.5,0.0,-35.0,-1,1.0,7.159900000000107
744,6,0.5,0.125,-35.0,-1,1.0,0.480199999999968
745,6,0.5,1.0,35.0,1,1.0,0.3237000000003718
746,6,0.5,0.0,35.0,-1,0.0,1.3339000000000851
747,6,0.5,0.25,-35.0,1,0.0,3.683799999999792
748,6,0.5,0.0625,-35.0,-1,1.0,0.4773000000000138
749,6,0.5,0.0,-35.0,-1,1.0,3.3575000000005275
750,6,0.5,0.25,35.0,1,1.0,0.3409999999998945
751,6,0.5,0.0,-35.0,-1,1.0,29.264700000000175
752,6,0.5,0.0,35.0,1,1.0,9.891900000000078
753,6,0.5,0.25,-35.0,-1,1.0,0.32880000000022847
754,6,0.5,0.25,35.0,1,1.0,0.3021000000003369
755,6,0.5,0.25,-35.0,-1,1.0,0.3623000000002321
756,6,0.5,1.0,35.0,1,1.0,0.328899999999976
757,6,0.5,0.125,35.0,1,1.0,0.405800000000454
758,6,0.5,1.0,-35.0,-1,1.0,0.23250000000007276
759,6,0.5,0.125,-35.0,-1,1.0,0.5093000000001666
760,6,0.5,0.0,-35.0,-1,1.0,0.5761000000002241
761,6,0.5,0.25,-35.0,-1,1.0,0.3161000000000058
762,6,0.5,1.0,35.0,1,1.0,0.3095000000002983
763,6,0.5,0.25,35.0,-1,0.0,3.923000000000684
764,6,0.5,0.0625,-35.0,1,0.0,1.963100000000395
765,6,0.5,0.0625,-35.0,-1,1.0,0.42659999999978027
766,6,0.5,1.0,-35.0,-1,1.0,0.18009999999958382
767,6,0.5,0.0625,35.0,-1,0.0,0.36340000000018335
768,6,0.5,0.125,35.0,1,1.0,0.5035000000002583
769,6,0.5,0.0625,-35.0,-1,1.0,0.40710000000035507
770,6,0.5,0.25,35.0,-1,0.0,0.12380000000030122
771,6,0.3,0.25,35.0,1,1.0,0.32720000000017535
772,6,0.5,1.0,35.0,1,1.0,0.3240000000000691
773,6,0.5,0.125,35.0,1,1.0,0.3872000000001208
774,6,0.5,1.0,35.0,1,1.0,0.5508999999997286
775,6,0.5,0.0625,-35.0,-1,1.0,0.340900000000147
776,6,0.5,1.0,35.0,1,1.0,0.27759999999989304
777,6,0.5,0.25,35.0,1,1.0,0.31450000000040745
778,6,0.5,0.0625,35.0,1,1.0,11.251099999999951
779,6,0.5,1.0,-35.0,1,0.0,0.6448000000004868
780,6,0.5,0.0,35.0,-1,0.0,21.581500000000233
781,6,0.8,0.0,-35.0,1,0.0,11.128899999999703
782,6,0.5,1.0,-35.0,-1,1.0,0.37940000000025975
783,6,0.5,1.0,-35.0,-1,1.0,0.36959999999999127
784,6,0.5,0.25,35.0,1,1.0,2.5229989999997997
785,6,0.5,0.0625,-35.0,-1,1.0,17.332900000000336
786,6,0.5,0.125,35.0,1,1.0,28.090099999999893
787,6,0.5,0.125,-35.0,-1,1.0,0.41090000000076543
788,6,0.5,0.125,35.0,-1,0.0,3.437800000000152
789,6,0.5,0.25,35.0,1,1.0,7.657900000000154
790,6,0.5,0.0625,35.0,-1,0.0,6.568100000000413
791,6,0.5,0.0,35.0,-1,0.0,10.675000000000182
792,6,0.3,0.0,-35.0,1,0.0,5.1185999999997875
793,6,0.5,1.0,-35.0,-1,1.0,0.3991000000000895
794,6,0.5,0.0625,-35.0,1,0.0,0.6723000000001775
795,6,0.5,0.125,-35.0,-1,1.0,0.5192000000001826
796,6,0.5,0.125,35.0,-1,0.0,0.5559000000002925
797,6,0.5,0.125,-35.0,-1,1.0,0.4394000000002052
798,6,0.5,0.125,35.0,1,1.0,0.3728000000000975
799,6,0.5,1.0,-35.0,-1,1.0,0.29280000000017026
800,6,0.5,0.125,35.0,1,1.0,0.37960000000020955
801,6,0.5,1.0,-35.0,-1,1.0,0.35640000000057626
802,6,0.5,0.125,35.0,1,1.0,0.22990000000027067
803,6,0.5,0.125,35.0,1,1.0,0.29000000000041837
804,6,0.5,0.0625,35.0,1,1.0,0.4000000000005457
805,6,0.5,0.125,-35.0,1,0.0,0.2634000000002743
806,6,0.6,0.125,35.0,1,1.0,0.30030000000033397
807,6,0.5,1.0,-35.0,-1,1.0,0.2669000000005326
808,6,0.5,1.0,-35.0,-1,1.0,0.25040000000035434
809,6,0.5,1.0,-35.0,-1,1.0,0.31040000000029977
810,6,0.5,0.125,-35.0,-1,1.0,0.6506000000003951
811,6,0.5,0.125,35.0,1,1.0,0.45719999999982974
812,6,0.5,0.25,35.0,1,1.0,0.29050000000052023
813,6,0.5,1.0,-35.0,-1,1.0,0.36080000000038126
814,6,0.5,0.0625,-35.0,1,0.0,21.57420000000002
815,6,0.5,0.0625,35.0,1,1.0,28.708000000000084
816,6,0.5,1.0,35.0,1,1.0,0.3523000000000138
817,6,0.5,0.0625,35.0,1,1.0,0.502400000000307
818,6,0.5,0.0625,-35.0,1,0.0,0.6123000000006869
819,6,0.5,0.25,-35.0,-1,1.0,0.48570000000063374
820,6,0.5,0.125,35.0,1,1.0,0.3659000000002379
821,6,0.5,0.25,35.0,1,1.0,0.29930000000013024
822,6,0.5,1.0,-35.0,-1,1.0,0.3225999999999658
823,6,0.5,0.0625,35.0,1,1.0,0.3427000000001499
824,6,0.5,0.25,35.0,1,1.0,0.5029000000004089
825,6,0.5,0.0,-35.0,1,0.0,1.4797000000003209
826,6,0.5,0.125,35.0,1,1.0,0.3065000000001419
827,6,0.5,0.25,-35.0,-1,1.0,0.24650000000019645
828,6,0.5,0.125,35.0,1,1.0,0.27660000000014406
829,6,0.5,0.125,-35.0,1,0.0,0.8733000000001994
830,6,0.5,0.25,-35.0,-1,1.0,0.3601000000003296
831,6,0.5,0.25,35.0,1,1.0,0.32670000000052823
832,6,0.5,0.125,35.0,1,1.0,0.7803000000003522
833,6,0.5,0.125,-35.0,1,0.0,12.107100000000173
834,6,0.5,0.25,35.0,1,1.0,1.3141000000000531
835,6,0.5,0.25,35.0,1,1.0,0.4976000000001477
836,6,0.5,0.25,35.0,1,1.0,0.32120000000031723
837,6,0.5,0.0,35.0,-1,0.0,38.184499999999844
838,6,0.8,0.0,-35.0,1,0.0,0.24549999999999272
839,6,0.5,1.0,-35.0,-1,1.0,0.3125
840,6,0.5,1.0,35.0,1,1.0,0.29910000000018044
841,6,0.5,1.0,-35.0,-1,1.0,0.23930000000063956
842,6,0.5,0.125,35.0,1,1.0,3.9758999999999105
843,6,0.5,1.0,-35.0,-1,1.0,0.27620000000024447
844,6,0.5,0.0625,35.0,0,0.0,60.003000000000156
845,6,0.5,0.0,-35.0,1,0.0,32.64820000000009
846,6,0.5,0.25,-35.0,-1,1.0,24.335199999999986
847,6,0.5,1.0,35.0,1,1.0,0.30929999999989377
848,6,0.5,1.0,35.0,1,1.0,0.3360000000002401
849,6,0.5,0.0,-35.0,1,0.0,7.552700000000186
850,6,0.7,0.0,35.0,-1,0.0,14.396300000000338
851,6,0.5,1.0,-35.0,-1,1.0,0.27670000000034634
852,6,0.5,1.0,-35.0,-1,1.0,0.5335999999997512
853,6,0.5,0.25,35.0,-1,0.0,5.166900000000169
854,6,0.5,0.25,-35.0,-1,1.0,9.313900000000558
855,6,0.5,0.125,35.0,1,1.0,19.41090000000031
856,6,0.5,0.25,35.0,1,1.0,1.1484000000000378
857,6,0.5,0.25,35.0,1,1.0,0.7154000000004999
858,6,0.5,0.125,35.0,1,1.0,18.384900000000016
859,6,0.5,0.25,-35.0,-1,1.0,3.4756999999999607
860,6,0.5,1.0,35.0,1,1.0,0.5457999999998719
861,6,0.5,0.0,-35.0,1,0.0,33.74590000000035
862,6,0.6,0.0,35.0,1,1.0,3.6968000000001666
863,6,0.5,1.0,-35.0,-1,1.0,56.97680000000037
864,6,0.5,1.0,-35.0,-1,1.0,4.951900999999907
865,6,0.5,0.25,35.0,-1,0.0,28.0686010000004
866,6,0.5,0.25,-35.0,-1,1.0,13.165901000000304
867,6,0.5,0.0625,35.0,-1,0.0,6.233101000000261
1,7,0.5,0.125,35.0,1,1.0,0.3795999999999997
2,7,0.5,0.0625,35.0,-1,0.0,1.9136999999999986
3,7,0.9,0.0625,35.0,1,1.0,0.9512000000000018
4,7,0.5,1.0,-35.0,-1,1.0,0.21219999999999928
5,7,0.5,1.0,-35.0,-1,1.0,0.2015999999999991
6,7,0.5,1.0,-35.0,-1,1.0,0.17529999999999646
7,7,0.5,1.0,-35.0,-1,1.0,0.17249999999999943
8,7,0.5,1.0,-35.0,-1,1.0,0.17919999999999447
9,7,0.5,0.125,-35.0,-1,1.0,0.33210000000000406
10,7,0.5,0.25,35.0,-1,0.0,0.289200000000001
11,7,0.5,0.0625,35.0,-1,0.0,0.24679999999999325
12,7,0.5,0.0625,-35.0,-1,1.0,0.2769999999999939
13,7,0.5,0.0625,-35.0,-1,1.0,0.21480000000000388
14,7,0.5,0.125,35.0,-1,0.0,0.40160000000000906
15,7,0.5,0.0625,35.0,-1,0.0,0.9277000000000015
16,7,0.5,0.25,35.0,-1,0.0,0.14560000000000173
17,7,0.5,0.0,35.0,-1,0.0,0.22590000000000998
18,7,0.0,0.0,35.0,-1,0.0,4.0149000000000115
19,7,0.5,1.0,35.0,-1,0.0,0.2791999999999888
20,7,0.5,0.125,-35.0,-1,1.0,0.2353000000000094
21,7,0.5,0.0625,-35.0,-1,1.0,0.2764000000000095
22,7,0.5,0.0,-35.0,-1,1.0,3.590500000000006
23,7,0.5,0.0,35.0,-1,0.0,0.3079999999999927
24,7,0.5,0.125,-35.0,-1,1.0,0.31340000000000146
25,7,0.5,0.0625,-35.0,-1,1.0,0.2640999999999991
26,7,0.5,0.125,-35.0,-1,1.0,0.2711000000000041
27,7,0.5,0.0625,-35.0,-1,1.0,0.3201999999999998
28,7,0.5,0.25,-35.0,-1,1.0,0.2143999999999977
29,7,0.5,0.125,35.0,-1,0.0,0.2546999999999997
30,7,0.5,0.0,-35.0,-1,1.0,0.2365000000000208
31,7,0.5,1.0,-35.0,-1,1.0,0.1571999999999889
32,7,0.5,0.25,35.0,1,1.0,0.6282999999999959
33,7,0.5,1.0,-35.0,-1,1.0,0.21019999999998618
34,7,0.5,0.125,35.0,-1,0.0,0.27840000000000487
35,7,0.5,0.125,35.0,1,1.0,0.5763000000000318
36,7,0.5,1.0,-35.0,-1,1.0,0.2803000000000111
37,7,0.5,0.25,-35.0,-1,1.0,0.7852999999999781
38,7,0.5,0.0,35.0,-1,0.0,0.3118000000000052
39,7,0.5,0.0625,-35.0,-1,1.0,0.2836000000000354
40,7,0.5,0.0625,35.0,1,1.0,0.49150000000000205
41,7,0.5,0.25,-35.0,-1,1.0,0.23430000000001883
42,7,0.5,0.25,35.0,1,1.0,0.4753999999999792
43,7,0.5,1.0,35.0,1,1.0,0.38340000000002306
44,7,0.5,0.0625,-35.0,-1,1.0,0.3797000000000139
45,7,0.5,0.0,-35.0,-1,1.0,0.29069999999998686
46,7,0.5,0.125,-35.0,-1,1.0,0.30629999999999313
47,7,0.5,0.125,-35.0,-1,1.0,0.32030000000000314
48,7,0.5,0.125,-35.0,-1,1.0,0.2550000000000239
49,7,0.5,0.0,-35.0,1,0.0,0.4679999999999893
50,7,0.5,0.0625,-35.0,-1,1.0,0.27779999999998495
51,7,0.5,0.125,35.0,1,1.0,0.8012999999999977
52,7,0.5,1.0,-35.0,-1,1.0,0.1910000000000025
53,7,0.5,0.0,35.0,-1,0.0,0.44360000000003197
54,7,0.5,0.0,-35.0,-1,1.0,0.21959999999998558
55,7,0.5,0.0625,-35.0,-1,1.0,0.2944999999999993
56,7,0.5,0.0,35.0,-1,0.0,0.06700000000000728
57,7,0.5,0.25,35.0,1,1.0,0.054600000000021964
58,7,0.5,0.25,-35.0,-1,1.0,0.28110000000000923
59,7,0.5,0.25,35.0,1,1.0,0.35960000000000036
60,7,0.5,0.0625,35.0,-1,0.0,0.27190000000001646
61,7,0.5,0.125,-35.0,-1,1.0,0.265199999999993
62,7,0.5,0.25,-35.0,-1,1.0,0.2757000000000005
63,7,0.5,0.0625,-35.0,-1,1.0,0.27070000000000505
64,7,0.5,0.25,35.0,1,1.0,0.44760000000002265
65,7,0.5,1.0,-35.0,-1,1.0,0.06370000000001141
66,7,0.5,1.0,35.0,1,1.0,0.31720000000004234
67,7,0.5,1.0,-35.0,-1,1.0,0.218400000000031
68,7,0.5,0.0,35.0,1,1.0,0.42490000000003647
69,7,0.5,0.0,35.0,-1,0.0,1.6836999999999875
70,7,0.5,0.125,35.0,1,1.0,0.5450999999999908
71,7,0.5,0.0,35.0,-1,0.0,0.14379999999999882
72,7,0.5,0.25,35.0,1,1.0,0.36590000000001055
73,7,0.5,1.0,-35.0,-1,1.0,0.20830000000000837
74,7,0.5,1.0,-35.0,-1,1.0,0.2388000000000261
75,7,0.5,0.0625,-35.0,-1,1.0,0.2921000000000049
76,7,0.5,0.0,-35.0,1,0.0,0.47500000000002274
77,7,0.5,0.125,-35.0,-1,1.0,0.22259999999994307
78,7,0.5,0.0625,-35.0,-1,1.0,0.25579999999996517
79,7,0.5,1.0,35.0,-1,0.0,0.34590000000002874
80,7,0.5,0.0625,35.0,-1,0.0,0.2718999999999596
81,7,0.5,0.25,-35.0,-1,1.0,0.21500000000003183
82,7,0.5,0.0,-35.0,-1,1.0,0.2399000000000342
83,7,0.5,0.125,-35.0,-1,1.0,
84,7,0.5,0.125,35.0,-1,0.0,0.2411000000000172
85,7,0.1,0.125,-35.0,-1,1.0,0.2674999999999841
86,7,0.5,1.0,35.0,1,1.0,0.7493999999999801
87,7,0.5,0.125,35.0,1,1.0,0.5830000000000268
88,7,0.5,0.0,35.0,-1,0.0,0.2595999999999776
89,7,0.2,0.0,-35.0,-1,1.0,0.25090000000000146
90,7,0.5,1.0,35.0,1,1.0,0.32679999999999154
91,7,0.5,1.0,-35.0,-1,1.0,0.20419999999995753
92,7,0.5,1.0,-35.0,-1,1.0,0.20629999999999882
93,7,0.5,0.0625,-35.0,-1,1.0,0.262800000000027
94,7,0.5,0.125,35.0,-1,0.0,0.18819999999999482
95,7,0.5,0.0625,35.0,1,1.0,0.6948000000000434
96,7,0.5,0.125,35.0,-1,0.0,0.23310000000003583
97,7,0.3,0.125,35.0,1,1.0,0.7160000000000082
98,7,0.5,1.0,35.0,-1,0.0,0.28870000000000573
99,7,0.5,0.125,35.0,1,1.0,0.47440000000005966
100,7,0.5,0.0625,-35.0,1,0.0,2.9651999999999816
101,7,0.5,0.0625,-35.0,-1,1.0,0.23599999999999
102,7,0.5,0.0625,-35.0,-1,1.0,0.2341000000000122
103,7,0.5,1.0,-35.0,-1,1.0,0.19329999999996517
104,7,0.5,0.125,35.0,-1,0.0,0.37060000000002447
105,7,0.5,0.125,-35.0,-1,1.0,0.25329999999996744
106,7,0.5,0.0625,-35.0,-1,1.0,0.24139999999999873
107,7,0.5,0.0,-35.0,-1,1.0,0.6673999999999864
108,7,0.5,0.0625,-35.0,-1,1.0,0.06459999999998445
109,7,0.5,0.25,35.0,-1,0.0,0.2884000000000242
110,7,0.1,0.25,35.0,-1,0.0,0.18810000000001992
111,7,0.5,1.0,35.0,1,1.0,0.5184000000000424
112,7,0.5,0.25,35.0,-1,0.0,0.22139999999996007
113,7,0.5,0.125,-35.0,-1,1.0,0.282100000000014
114,7,0.5,0.0625,-35.0,1,0.0,0.4054999999999609
115,7,0.5,0.0,35.0,-1,0.0,0.3002999999999929
116,7,0.5,0.0625,35.0,-1,0.0,0.2907999999999902
117,7,0.5,0.25,-35.0,-1,1.0,0.267599999999959
118,7,0.5,0.125,35.0,1,1.0,0.3532000000000153
119,7,0.5,0.25,-35.0,-1,1.0,0.27340000000003783
120,7,0.5,0.125,35.0,1,1.0,0.5464000000000055
121,7,0.5,0.125,-35.0,-1,1.0,0.22950000000003
122,7,0.5,1.0,-35.0,-1,1.0,0.224899999999991
123,7,0.5,0.0625,-35.0,-1,1.0,0.26609999999999445
124,7,0.5,0.0625,35.0,-1,0.0,0.2296999999999798
125,7,0.5,0.0625,-35.0,-1,1.0,0.37860000000006266
126,7,0.5,0.125,-35.0,-1,1.0,0.2665000000000646
127,7,0.5,1.0,35.0,1,1.0,0.31289999999995644
128,7,0.5,1.0,-35.0,-1,1.0,0.224899999999991
129,7,0.5,1.0,-35.0,-1,1.0,0.22530000000000427
130,7,0.5,0.0,35.0,-1,0.0,0.31850000000002865
131,7,0.5,0.0,35.0,1,1.0,0.5312000000000126
132,7,0.5,0.125,35.0,1,1.0,0.5906999999999698
133,7,0.5,0.0,35.0,-1,0.0,0.27350000000001273
134,7,0.5,0.0625,35.0,1,1.0,0.5113000000000056
135,7,0.5,0.125,35.0,1,1.0,0.3926999999999907
136,7,0.5,0.0,-35.0,-1,1.0,0.20429999999998927
137,7,0.5,0.25,35.0,1,1.0,0.49479999999994106
138,7,0.5,0.25,35.0,-1,0.0,0.2544999999998936
139,7,0.5,0.125,-35.0,-1,1.0,0.3025000000000091
140,7,0.5,0.0625,-35.0,1,0.0,0.664299999999912
141,7,0.5,0.25,35.0,1,1.0,0.49240000000008877
142,7,0.5,0.125,35.0,-1,0.0,0.2839000000000169
143,7,0.5,0.125,35.0,1,1.0,0.6248999999999114
144,7,0.5,1.0,-35.0,-1,1.0,0.2438999999999396
145,7,0.5,0.0625,-35.0,-1,1.0,0.25559999999984484
146,7,0.5,0.0625,-35.0,-1,1.0,0.2518999999999778
147,7,0.5,0.0625,-35.0,-1,1.0,0.2259000000000242
148,7,0.5,0.0,-35.0,1,0.0,0.7032999999998992
149,7,0.5,0.0625,-35.0,-1,1.0,0.24699999999995725
150,7,0.5,0.125,-35.0,-1,1.0,0.22959999999989122
151,7,0.5,0.125,35.0,-1,0.0,0.25719999999989795
152,7,0.5,0.125,-35.0,-1,1.0,0.25369999999986703
153,7,0.5,0.125,35.0,1,1.0,0.6508000000000038
154,7,0.5,0.0625,35.0,-1,0.0,0.1611000000000331
155,7,0.5,0.125,35.0,1,1.0,0.2136999999999034
156,7,0.5,0.0625,35.0,-1,0.0,0.27760000000000673
157,7,0.5,0.0625,-35.0,-1,1.0,0.2699999999998681
158,7,0.5,1.0,35.0,-1,0.0,0.3061999999999898
159,7,0.5,0.25,35.0,1,1.0,0.7538999999999305
160,7,0.5,0.125,-35.0,-1,1.0,0.2949999999998454
161,7,0.5,0.125,35.0,-1,0.0,2.934099999999944
162,7,0.5,0.25,35.0,1,1.0,0.3915999999999258
163,7,0.5,0.0625,35.0,1,1.0,0.5684999999999718
164,7,0.5,0.25,-35.0,-1,1.0,0.3185999999999467
165,7,0.5,0.125,35.0,-1,0.0,0.2219999999998663
166,7,0.5,0.0,-35.0,-1,1.0,0.23039999999991778
167,7,0.5,1.0,-35.0,-1,1.0,0.1814999999999145
168,7,0.5,0.0625,-35.0,-1,1.0,0.23439999999993688
169,7,0.5,0.125,-35.0,-1,1.0,0.22109999999997854
170,7,0.5,0.125,35.0,-1,0.0,0.22029999999995198
171,7,0.5,0.25,35.0,1,1.0,
172,7,0.5,1.0,-35.0,-1,1.0,0.18589999999994689
173,7,0.5,0.25,-35.0,-1,1.0,0.22899999999992815
174,7,0.5,0.0,35.0,1,1.0,0.6292999999999438
175,7,0.5,0.25,-35.0,-1,1.0,0.28329999999994016
176,7,0.5,1.0,-35.0,-1,1.0,0.21069999999997435
177,7,0.5,1.0,-35.0,-1,1.0,0.2033999999999878
178,7,0.5,0.0625,35.0,1,1.0,0.8882999999999583
179,7,0.5,0.25,-35.0,-1,1.0,0.2522999999999911
180,7,0.5,0.0625,-35.0,-1,1.0,0.2579999999999245
181,7,0.5,0.0,35.0,-1,0.0,0.22040000000004056
182,7,0.5,0.0625,35.0,-1,0.0,0.3795999999998685
183,7,0.5,0.0625,35.0,1,1.0,0.3269999999998845
184,7,0.5,1.0,35.0,1,1.0,0.25689999999997326
185,7,0.5,0.125,35.0,1,1.0,0.5443999999998823
186,7,0.5,0.125,-35.0,1,0.0,0.3188000000000102
187,7,0.5,0.0625,-35.0,-1,1.0,0.2944999999999709
188,7,0.5,0.0,35.0,1,1.0,0.6143999999999323
189,7,0.5,0.25,35.0,1,1.0,0.36619999999993524
190,7,0.5,1.0,35.0,1,1.0,0.5898999999999432
191,7,0.5,1.0,35.0,1,1.0,0.3188999999999851
192,7,0.5,0.25,35.0,1,1.0,0.6759999999999309
193,7,0.5,0.0,35.0,1,1.0,0.48059999999998126
194,7,0.5,0.0625,35.0,1,1.0,0.697400000000016
195,7,0.5,0.25,-35.0,-1,1.0,0.2424999999998363
196,7,0.5,0.25,35.0,1,1.0,0.40089999999986503
197,7,0.5,0.25,35.0,1,1.0,0.43639999999993506
198,7,0.5,0.0,35.0,1,1.0,1.3098999999999705
199,7,0.5,0.0625,35.0,-1,0.0,0.5516999999999825
200,7,0.8,0.0625,35.0,1,1.0,0.34029999999984284
201,7,0.5,1.0,-35.0,-1,1.0,0.24289999999996326
202,7,0.5,0.125,-35.0,-1,1.0,0.2561999999999216
203,7,0.5,1.0,35.0,1,1.0,0.5268999999999551
204,7,0.5,0.25,-35.0,-1,1.0,0.27309999999999945
205,7,0.5,0.25,35.0,1,1.0,0.5277999999999565
206,7,0.5,0.0625,35.0,-1,0.0,0.08579999999994925
207,7,0.5,0.125,-35.0,-1,1.0,0.4397000000000162
208,7,0.5,0.0,35.0,-1,0.0,0.3079999999999927
209,7,0.5,0.0,35.0,1,1.0,0.060899999999946886
210,7,0.5,0.0625,-35.0,-1,1.0,0.31780000000003383
211,7,0.5,0.125,-35.0,-1,1.0,0.22529999999994743
212,7,0.5,0.0625,35.0,-1,0.0,0.29389999999989413
213,7,0.5,0.0625,35.0,1,1.0,0.9433999999998832
214,7,0.5,0.0,-35.0,1,0.0,0.5210999999999331
215,7,0.4,0.0,-35.0,1,0.0,0.39429999999993015
216,7,0.5,1.0,-35.0,-1,1.0,0.2539999999999054
217,7,0.5,0.25,-35.0,-1,1.0,0.2644000000000233
218,7,0.5,0.125,35.0,1,1.0,0.7334999999999354
219,7,0.5,0.125,-35.0,-1,1.0,0.2540000000000191
220,7,0.5,0.125,-35.0,-1,1.0,0.2758000000000038
221,7,0.5,0.0625,-35.0,-1,1.0,0.3243999999999687
222,7,0.5,0.25,35.0,-1,0.0,0.23079999999993106
223,7,0.5,0.125,-35.0,-1,1.0,0.2520999999999276
224,7,0.5,0.25,-35.0,-1,1.0,0.2198999999999387
225,7,0.5,0.0,35.0,-1,0.0,0.33609999999998763
226,7,0.1,0.0,35.0,-1,0.0,3.4864000000000033
227,7,0.5,1.0,35.0,-1,0.0,0.06509999999991578
228,7,0.5,0.25,-35.0,-1,1.0,0.29169999999999163
229,7,0.5,0.125,35.0,1,1.0,0.2421999999999116
230,7,0.5,0.0,35.0,-1,0.0,0.21269999999992706
231,7,0.5,0.0,-35.0,1,0.0,3.5188000000000557
232,7,0.5,0.125,35.0,1,1.0,0.622199999999907
233,7,0.5,0.125,-35.0,-1,1.0,0.3182999999999083
234,7,0.5,0.125,35.0,-1,0.0,0.24989999999991142
235,7,0.5,0.0625,35.0,1,1.0,0.3971999999998843
236,7,0.5,0.125,35.0,1,1.0,0.3754000000000133
237,7,0.5,0.0625,35.0,1,1.0,3.113299999999981
238,7,0.5,0.0,35.0,1,1.0,0.4277999999999338
239,7,0.5,0.0625,-35.0,-1,1.0,0.23540000000002692
240,7,0.5,0.0625,-35.0,-1,1.0,0.32139999999992597
241,7,0.5,0.25,-35.0,-1,1.0,0.4855999999999767
242,7,0.5,0.0625,-35.0,-1,1.0,0.26130000000000564
243,7,0.5,0.0625,35.0,-1,0.0,0.459699999999998
244,7,0.5,0.0625,-35.0,-1,1.0,0.2982000000000653
245,7,0.5,0.0625,35.0,-1,0.0,0.28329999999994016
246,7,0.5,0.0625,-35.0,-1,1.0,0.29739999999992506
247,7,0.5,0.125,-35.0,-1,1.0,0.23950000000002092
248,7,0.5,1.0,35.0,1,1.0,0.3374999999998636
249,7,0.5,0.25,35.0,1,1.0,0.37000000000000455
250,7,0.5,0.25,-35.0,-1,1.0,0.23500000000001364
251,7,0.5,0.25,35.0,1,1.0,0.5049999999999955
252,7,0.5,1.0,-35.0,-1,1.0,0.27750000000003183
253,7,0.5,1.0,35.0,1,1.0,0.7399999999998954
254,7,0.5,0.0625,-35.0,-1,1.0,0.19049999999992906
255,7,0.5,1.0,35.0,1,1.0,0.4199999999998454
256,7,0.5,1.0,35.0,1,1.0,0.42829999999992197
257,7,0.5,1.0,-35.0,-1,1.0,0.1738999999998896
258,7,0.5,0.0625,-35.0,-1,1.0,0.2585999999998876
259,7,0.5,1.0,35.0,1,1.0,0.5174999999999272
260,7,0.5,0.0,-35.0,-1,1.0,3.8035999999999603
261,7,0.5,0.125,-35.0,-1,1.0,0.06519999999989068
262,7,0.5,0.125,-35.0,-1,1.0,0.2766999999998916
263,7,0.5,0.25,-35.0,-1,1.0,0.21690000000000964
264,7,0.5,0.125,35.0,1,1.0,0.8186999999999216
265,7,0.5,1.0,-35.0,-1,1.0,0.37800000000004275
266,7,0.5,0.125,-35.0,-1,1.0,0.23539999999979955
267,7,0.5,0.0,-35.0,-1,1.0,0.44279999999992015
268,7,0.5,0.0625,35.0,-1,0.0,0.07600000000002183
269,7,0.5,0.125,35.0,1,1.0,3.0697999999999865
270,7,0.5,1.0,35.0,1,1.0,0.37449999999989814
271,7,0.5,0.0625,-35.0,-1,1.0,0.28579999999988104
272,7,0.5,0.125,-35.0,-1,1.0,0.25130000000001473
273,7,0.5,0.25,-35.0,-1,1.0,0.14789999999982228
274,7,0.5,0.125,-35.0,-1,1.0,0.3080999999999676
275,7,0.5,0.125,-35.0,-1,1.0,0.2614000000000942
276,7,0.5,0.125,35.0,-1,0.0,0.27150000000006
277,7,0.5,0.125,35.0,-1,0.0,0.3322000000000571
278,7,0.5,0.0625,35.0,1,1.0,0.3283999999998741
279,7,0.5,1.0,35.0,1,1.0,0.48090000000001965
280,7,0.5,0.25,35.0,-1,0.0,0.3289999999999509
281,7,0.2,0.25,-35.0,-1,1.0,0.2419999999999618
282,7,0.5,1.0,-35.0,-1,1.0,0.1389000000001488
283,7,0.5,1.0,35.0,1,1.0,0.32950000000005275
284,7,0.5,1.0,35.0,1,1.0,0.4455000000000382
285,7,0.5,0.0,35.0,-1,0.0,0.26339999999981956
286,7,0.5,0.0625,35.0,-1,0.0,2.8224000000002434
287,7,0.4,0.0625,35.0,1,1.0,0.530100000000175
288,7,0.5,1.0,-35.0,-1,1.0,0.10940000000027794
289,7,0.5,0.0625,35.0,-1,0.0,0.20929999999998472
290,7,0.5,0.25,35.0,1,1.0,0.5130000000001473
291,7,0.5,0.25,35.0,-1,0.0,
292,7,0.4,0.25,35.0,1,1.0,0.6098000000001775
293,7,0.5,1.0,35.0,1,1.0,0.3381000000001677
294,7,0.5,0.125,35.0,1,1.0,0.4366000000002259
295,7,0.5,0.25,-35.0,-1,1.0,0.24720000000002074
296,7,0.5,0.125,-35.0,-1,1.0,0.34349999999994907
297,7,0.5,0.25,-35.0,-1,1.0,0.247300000000223
298,7,0.5,0.25,35.0,1,1.0,0.49690000000009604
299,7,0.5,0.0,35.0,-1,0.0,0.2502999999999247
300,7,0.5,0.0,35.0,1,1.0,0.4271000000001095
301,7,0.5,0.0625,-35.0,-1,1.0,0.23270000000002256
302,7,0.5,0.25,35.0,1,1.0,0.6273000000001048
303,7,0.5,0.125,35.0,1,1.0,0.5570000000000164
304,7,0.5,0.0625,35.0,-1,0.0,0.25109999999995125
305,7,0.4,0.0625,35.0,-1,0.0,0.33809999999994034
306,7,0.5,1.0,-35.0,-1,1.0,0.2277000000001408
307,7,0.5,0.125,35.0,1,1.0,0.41639999999983957
308,7,0.5,0.125,-35.0,-1,1.0,0.22770000000036816
309,7,0.5,0.125,-35.0,-1,1.0,0.3086000000000695
310,7,0.5,0.0625,-35.0,-1,1.0,0.27119999999990796
311,7,0.5,0.25,35.0,-1,0.0,0.19470000000023902
312,7,0.5,0.125,-35.0,-1,1.0,0.25480000000015934
313,7,0.5,1.0,35.0,1,1.0,0.4025000000001455
314,7,0.5,0.125,-35.0,-1,1.0,0.2582999999999629
315,7,0.5,0.25,35.0,1,1.0,0.650300000000243
316,7,0.5,0.25,-35.0,-1,1.0,0.3451000000000022
317,7,0.5,0.0625,-35.0,-1,1.0,0.3125999999999749
318,7,0.5,0.0625,35.0,1,1.0,0.5785999999998239
319,7,0.5,0.125,-35.0,-1,1.0,0.233600000000024
320,7,0.5,0.25,-35.0,-1,1.0,0.2520999999999276
321,7,0.5,0.125,-35.0,-1,1.0,0.23660000000018044
322,7,0.5,0.0625,35.0,-1,0.0,0.2957000000001244
323,7,0.5,0.0625,-35.0,1,0.0,0.3985000000002401
324,7,0.3,0.0625,35.0,-1,0.0,0.7590999999999894
325,7,0.5,1.0,35.0,1,1.0,0.32970000000000255
326,7,0.5,0.0,35.0,-1,0.0,0.25260000000002947
327,7,0.5,0.25,35.0,1,1.0,0.6311000000000604
328,7,0.5,1.0,-35.0,-1,1.0,0.529700000000048
329,7,0.5,0.25,35.0,1,1.0,0.5287000000000717
330,7,0.5,0.25,35.0,-1,0.0,0.22300000000018372
331,7,0.5,0.0625,-35.0,-1,1.0,0.2578000000000884
332,7,0.5,0.125,-35.0,-1,1.0,0.22680000000013933
333,7,0.5,0.125,-35.0,-1,1.0,0.5957999999998265
334,7,0.5,0.125,-35.0,-1,1.0,0.4234000000001288
335,7,0.5,0.125,35.0,1,1.0,0.6039000000000669
336,7,0.5,0.0625,-35.0,-1,1.0,0.2802000000001499
337,7,0.5,0.0625,35.0,1,1.0,0.36720000000013897
338,7,0.5,0.0625,-35.0,-1,1.0,0.2803000000001248
339,7,0.5,0.25,-35.0,-1,1.0,0.2799999999999727
340,7,0.5,0.0625,-35.0,-1,1.0,0.4739000000001852
341,7,0.5,0.0625,-35.0,-1,1.0,0.34189999999989595
342,7,0.5,0.0,35.0,-1,0.0,0.40740000000027976
343,7,0.5,0.25,35.0,1,1.0,3.6124999999999545
344,7,0.5,0.0,35.0,-1,0.0,0.2679000000000542
345,7,0.5,0.125,-35.0,-1,1.0,0.3158000000000811
346,7,0.5,0.125,-35.0,-1,1.0,0.3844000000001415
347,7,0.5,1.0,35.0,1,1.0,0.2522999999998774
348,7,0.5,1.0,35.0,-1,0.0,0.30130000000008295
349,7,0.2,1.0,35.0,1,1.0,0.34400000000005093
350,7,0.5,1.0,35.0,1,1.0,0.3749999999997726
351,7,0.5,0.25,35.0,-1,0.0,0.3325999999999567
352,7,0.4,0.25,35.0,1,1.0,0.36149999999997817
353,7,0.5,1.0,-35.0,-1,1.0,0.27230000000031396
354,7,0.5,0.125,35.0,1,1.0,0.4451000000001386
355,7,0.5,0.125,-35.0,-1,1.0,0.2785000000001219
356,7,0.5,1.0,-35.0,-1,1.0,0.23510000000010223
357,7,0.5,0.125,-35.0,1,0.0,2.220100000000002
358,7,0.5,0.0625,-35.0,-1,1.0,0.8487999999999829
359,7,0.5,0.25,-35.0,-1,1.0,0.3222000000000662
360,7,0.5,1.0,35.0,1,1.0,0.35560000000009495
361,7,0.5,0.125,35.0,-1,0.0,0.4306000000001404
362,7,0.5,0.0625,-35.0,-1,1.0,0.3524999999999636
363,7,0.5,1.0,35.0,1,1.0,0.4436000000000604
364,7,0.5,0.125,35.0,1,1.0,0.45260000000007494
365,7,0.5,0.25,35.0,1,1.0,0.620200000000068
366,7,0.5,0.0,35.0,-1,0.0,0.46280000000001564
367,7,0.5,0.125,-35.0,-1,1.0,0.22820000000024265
368,7,0.5,0.0,-35.0,1,0.0,0.45319999999992433
369,7,0.5,0.0,35.0,1,1.0,1.612400000000207
370,7,0.5,0.125,-35.0,-1,1.0,0.24650000000019645
371,7,0.5,0.0,-35.0,-1,1.0,0.2960000000000491
372,7,0.5,0.25,-35.0,-1,1.0,0.886600000000044
373,7,0.5,1.0,35.0,1,1.0,0.49939999999992324
374,7,0.5,1.0,35.0,1,1.0,0.5569000000000415
375,7,0.5,1.0,35.0,-1,0.0,0.34050000000002
376,7,0.5,0.25,35.0,-1,0.0,7.050500000000056
377,7,0.5,0.125,-35.0,-1,1.0,0.4135000000001128
378,7,0.5,0.0625,-35.0,-1,1.0,0.44069999999987886
379,7,0.5,0.25,35.0,1,1.0,7.208100000000059
380,7,0.5,0.0625,-35.0,-1,1.0,0.31759999999985666
381,7,0.5,0.125,-35.0,-1,1.0,0.29510000000004766
382,7,0.5,0.25,-35.0,-1,1.0,0.2512000000001535
383,7,0.5,0.0,-35.0,1,0.0,0.7508000000002539
384,7,0.5,0.125,35.0,1,1.0,1.111599999999953
385,7,0.5,1.0,35.0,1,1.0,0.48460000000000036
386,7,0.5,0.0625,35.0,-1,0.0,0.798200000000179
387,7,0.5,0.0,-35.0,1,0.0,15.696700000000192
388,7,0.5,0.0625,-35.0,-1,1.0,1.4657000000001972
389,7,0.5,0.0625,-35.0,-1,1.0,0.8924000000001797
390,7,0.5,1.0,-35.0,-1,1.0,0.21230000000014115
391,7,0.5,0.25,-35.0,-1,1.0,0.45249999999987267
392,7,0.5,0.125,35.0,1,1.0,1.075900000000047
393,7,0.5,0.25,-35.0,-1,1.0,0.2578000000000884
394,7,0.5,0.125,-35.0,-1,1.0,0.22270000000025902
395,7,0.5,0.0625,-35.0,-1,1.0,0.5239000000001397
396,7,0.5,0.0625,35.0,1,1.0,9.362899999999854
397,7,0.5,0.25,35.0,1,1.0,0.36190000000010514
398,7,0.5,0.0,-35.0,-1,1.0,2.2130999999999403
399,7,0.5,1.0,35.0,1,1.0,0.4033000000001721
400,7,0.5,0.0625,-35.0,-1,1.0,0.373299999999972
401,7,0.5,0.25,35.0,1,1.0,0.3769999999999527
402,7,0.5,0.0,-35.0,-1,1.0,0.3103000000000975
403,7,0.5,0.25,35.0,1,1.0,0.3529999999998381
404,7,0.5,0.0625,-35.0,-1,1.0,0.6770000000001346
405,7,0.5,0.0,-35.0,-1,1.0,6.4271000000001095
406,7,0.5,0.0625,35.0,-1,0.0,0.41059999999993124
407,7,0.4,0.0625,35.0,1,1.0,0.4781000000000404
408,7,0.5,1.0,35.0,1,1.0,0.340900000000147
409,7,0.5,0.125,35.0,1,1.0,0.4150999999999385
410,7,0.5,1.0,-35.0,-1,1.0,0.24420000000009168
411,7,0.5,0.125,-35.0,-1,1.0,0.30320000000006075
412,7,0.5,1.0,-35.0,1,0.0,0.21460000000001855
413,7,0.5,0.125,-35.0,-1,1.0,0.31280000000015207
414,7,0.5,0.125,-35.0,-1,1.0,0.2981999999999516
415,7,0.5,1.0,35.0,1,1.0,0.23220000000014807
416,7,0.5,0.25,35.0,1,1.0,0.738399999999956
417,7,0.5,0.0,-35.0,-1,1.0,0.2703000000001339
418,7,0.5,1.0,-35.0,-1,1.0,0.23840000000018335
419,7,0.5,1.0,-35.0,-1,1.0,0.23590000000012878
420,7,0.5,0.0625,-35.0,-1,1.0,13.961800000000267
421,7,0.5,0.25,-35.0,-1,1.0,0.46660000000019863
422,7,0.5,0.0,-35.0,-1,1.0,3.7523999999998523
423,7,0.5,0.25,35.0,1,1.0,5.323399999999992
424,7,0.5,0.0625,35.0,1,1.0,28.622699999999895
425,7,0.5,1.0,35.0,1,1.0,0.40049999999996544
426,7,0.5,0.25,35.0,1,1.0,0.38360000000011496
427,7,0.5,0.125,35.0,1,1.0,15.036600000000135
428,7,0.5,0.0,-35.0,1,0.0,0.6907000000001062
429,7,0.5,0.0,-35.0,1,0.0,6.16780000000017
430,7,0.7,0.0,-35.0,1,0.0,26.897699999999986
431,7,0.5,1.0,-35.0,-1,1.0,0.24390000000016698
432,7,0.5,0.0,-35.0,1,0.0,14.485200000000077
433,7,0.5,0.25,35.0,1,1.0,7.068499999999858
434,7,0.5,0.25,35.0,1,1.0,0.4332000000001699
435,7,0.5,1.0,-35.0,-1,1.0,0.22270000000003165
436,7,0.5,0.25,35.0,1,1.0,0.5799999999999272
437,7,0.5,1.0,-35.0,-1,1.0,0.419399999999996
438,7,0.5,0.125,35.0,1,1.0,17.897100000000137
439,7,0.5,0.125,-35.0,-1,1.0,0.5201000000001841
440,7,0.5,1.0,35.0,1,1.0,0.31320000000005166
441,7,0.5,1.0,35.0,1,1.0,0.3403000000002976
442,7,0.5,1.0,-35.0,-1,1.0,0.24620000000004438
443,7,0.5,1.0,-35.0,-1,1.0,0.260300000000143
444,7,0.5,1.0,-35.0,-1,1.0,0.3082000000001699
445,7,0.5,0.0625,35.0,1,1.0,23.904199999999946
446,7,0.5,0.0625,-35.0,1,0.0,23.63260000000014
447,7,0.5,0.0,-35.0,1,0.0,10.425199999999904
448,7,0.5,0.125,35.0,1,1.0,0.5691000000001623
449,7,0.5,1.0,-35.0,-1,1.0,0.32559999999989486
450,7,0.5,1.0,-35.0,-1,1.0,0.4796999999998661
451,7,0.5,1.0,-35.0,-1,1.0,0.4290000000000873
452,7,0.5,0.125,-35.0,-1,1.0,0.5905999999999949
453,7,0.5,0.0625,35.0,1,1.0,0.9359000000001743
454,7,0.5,0.125,-35.0,-1,1.0,0.46059999999988577
455,7,0.5,1.0,35.0,1,1.0,0.41620000000011714
456,7,0.5,1.0,35.0,1,1.0,0.354200000000219
457,7,0.5,1.0,-35.0,-1,1.0,0.22640000000001237
458,7,0.5,0.0,-35.0,-1,1.0,4.625800000000027
459,7,0.5,0.25,-35.0,-1,1.0,0.29670000000010077
460,7,0.5,1.0,35.0,1,1.0,0.5015000000000782
461,7,0.5,0.125,35.0,1,1.0,1.516800000000103
462,7,0.5,1.0,-35.0,-1,1.0,0.21490000000017062
463,7,0.5,0.125,-35.0,-1,1.0,0.35700000000019827
464,7,0.5,0.125,35.0,1,1.0,0.6798000000001139
465,7,0.5,1.0,-35.0,-1,1.0,0.2771000000002459
466,7,0.5,0.25,35.0,1,1.0,0.59050000000002
467,7,0.5,0.25,-35.0,-1,1.0,0.3007999999999811
468,7,0.5,0.0625,35.0,1,1.0,0.5516000000000076
469,7,0.5,1.0,35.0,1,1.0,0.4408000000000811
470,7,0.5,1.0,35.0,1,1.0,0.21689999999989595
471,7,0.5,1.0,35.0,1,1.0,0.42759899999987283
472,7,0.5,0.125,35.0,1,1.0,0.5416000000000167
473,7,0.5,0.25,-35.0,-1,1.0,0.35789999999997235
474,7,0.5,0.25,35.0,1,1.0,0.49430000000029395
475,7,0.5,1.0,35.0,1,1.0,0.3646000000001095
476,7,0.5,0.125,-35.0,-1,1.0,0.36959999999999127
477,7,0.5,1.0,-35.0,-1,1.0,0.4480999999998403
478,7,0.5,0.125,35.0,1,1.0,24.934000000000196
479,7,0.5,0.125,-35.0,1,0.0,0.6956000000000131
480,7,0.5,0.25,-35.0,-1,1.0,0.3282000000003791
481,7,0.5,0.25,-35.0,-1,1.0,0.42920000000049185
482,7,0.5,0.0625,-35.0,-1,1.0,0.6660999999999149
483,7,0.5,0.0,-35.0,-1,1.0,0.9092000000000553
484,7,0.5,0.0625,35.0,1,1.0,2.2714999999998327
485,7,0.5,0.25,-35.0,-1,1.0,0.24619999999958964
486,7,0.5,0.125,35.0,1,1.0,3.9646999999999935
487,7,0.5,0.125,35.0,-1,0.0,0.27630000000044674
488,7,0.5,0.0625,35.0,1,1.0,2.195499999999811
489,7,0.5,1.0,35.0,1,1.0,0.4766000000004169
490,7,0.5,0.25,-35.0,-1,1.0,0.2812999999996464
491,7,0.5,0.0625,35.0,-1,0.0,0.4634000000000924
492,7,0.5,0.0625,35.0,1,1.0,0.6197999999999411
493,7,0.5,1.0,35.0,1,1.0,0.3538000000003194
494,7,0.5,0.125,35.0,1,1.0,0.5644000000002052
495,7,0.5,0.0625,35.0,1,1.0,0.48709999999982756
496,7,0.5,0.125,-35.0,-1,1.0,0.36550000000033833
497,7,0.5,0.0,-35.0,-1,1.0,0.3038000000001375
498,7,0.5,0.125,-35.0,-1,1.0,0.31750000000010914
499,7,0.5,1.0,35.0,1,1.0,0.3340000000002874
500,7,0.5,0.25,-35.0,-1,1.0,9.37480000000005
501,7,0.5,0.25,35.0,-1,0.0,0.46139999999968495
502,7,0.5,0.125,35.0,1,1.0,0.3878999999997177
503,7,0.5,1.0,35.0,1,1.0,0.3946000000000822
504,7,0.5,1.0,35.0,1,1.0,0.31950000000006185
505,7,0.5,1.0,-35.0,-1,1.0,0.2782000000001972
506,7,0.5,1.0,35.0,1,1.0,0.3611000000000786
507,7,0.5,0.25,-35.0,-1,1.0,0.29490000000032524
508,7,0.5,1.0,-35.0,-1,1.0,
509,7,0.5,0.0625,35.0,0,0.0,60.00520000000006
510,7,0.5,0.0,35.0,1,1.0,48.677900000000136
511,7,0.5,0.125,-35.0,1,0.0,5.341800000000148
512,7,0.5,0.0625,35.0,1,1.0,4.444799999999759
513,7,0.5,0.25,35.0,1,1.0,1.1275000000000546
514,7,0.5,0.0625,35.0,1,1.0,4.494999999999891
515,7,0.5,0.0625,35.0,1,1.0,15.912899999999809
516,7,0.5,0.25,-35.0,1,0.0,3.669000000000324
517,7,0.5,0.0,-35.0,1,0.0,7.355399999999918
518,7,0.9,0.0,-35.0,-1,1.0,5.992600000000039
519,7,0.5,1.0,-35.0,-1,1.0,19.116399999999885
520,7,0.5,1.0,35.0,1,1.0,9.163500000000113
521,7,0.5,0.25,35.0,1,1.0,13.947599999999966
522,7,0.5,0.25,35.0,1,1.0,15.557600000000093
523,7,0.5,0.125,35.0,1,1.0,22.28809999999976
524,7,0.5,0.125,35.0,0,0.0,59.99850000000015
525,7,0.5,0.25,35.0,-1,0.0,32.36689999999999
526,7,0.5,0.0625,35.0,-1,0.0,2.561200000000099
527,7,0.5,0.125,-35.0,-1,1.0,6.738299999999981
528,7,0.5,1.0,35.0,1,1.0,0.471400000000358
529,7,0.5,0.125,35.0,1,1.0,8.94340000000011
530,7,0.5,0.0625,-35.0,-1,1.0,14.621799999999894
531,7,0.5,0.125,-35.0,1,0.0,16.471900000000005
532,7,0.5,0.0625,-35.0,0,0.0,60.00600000000031
533,7,0.6,0.0625,-35.0,0,0.0,59.99709999999959
534,7,0.5,1.0,35.0,1,1.0,0.4360999999998967
535,7,0.5,0.0625,-35.0,1,0.0,0.4269000000003871
536,7,0.5,0.125,35.0,1,1.0,0.5862000000001899
537,7,0.5,0.0625,35.0,1,1.0,0.5222000000003391
538,7,0.5,0.125,35.0,1,1.0,0.3796999999995023
539,7,0.5,0.0,35.0,1,1.0,18.388900000000376
540,7,0.5,0.0625,-35.0,-1,1.0,0.4335000000000946
541,7,0.5,1.0,35.0,1,1.0,0.3319000000001324
1,8,0.5,0.0625,35.0,1,1.0,0.3456000000000006
2,8,0.5,0.0625,-35.0,-1,1.0,0.25820000000000043
3,8,0.5,0.0625,35.0,-1,0.0,0.2483000000000004
4,8,0.5,0.0625,-35.0,-1,1.0,0.2110000000000003
5,8,0.5,0.25,35.0,-1,0.0,0.2254999999999967
6,8,0.5,0.125,35.0,-1,0.0,0.24340000000000117
7,8,0.5,0.25,-35.0,-1,1.0,0.1713999999999949
8,8,0.5,0.25,-35.0,-1,1.0,0.19050000000000722
9,8,0.5,0.0625,-35.0,-1,1.0,0.18990000000000862
10,8,0.5,0.0625,-35.0,-1,1.0,0.21210000000000662
11,8,0.5,0.0625,35.0,-1,0.0,0.19589900000000426
12,8,0.5,0.0,-35.0,-1,1.0,0.2371000000000052
13,8,0.5,1.0,-35.0,-1,1.0,0.1739999999999995
14,8,0.5,0.125,-35.0,-1,1.0,0.2802000000000078
15,8,0.5,0.25,35.0,-1,0.0,0.29639999999999844
16,8,0.5,0.0625,35.0,-1,0.0,5.330900000000014
17,8,0.5,0.125,35.0,-1,0.0,1.82289999999999
18,8,0.0,0.125,-35.0,-1,1.0,0.2353999999999985
19,8,0.5,1.0,35.0,1,1.0,0.3499000000000052
20,8,0.5,1.0,35.0,1,1.0,0.3269999999999982
21,8,0.5,0.125,-35.0,-1,1.0,0.25549999999998363
22,8,0.5,1.0,35.0,1,1.0,0.37280000000001223
23,8,0.5,0.125,-35.0,-1,1.0,0.4275999999999982
24,8,0.5,0.25,35.0,1,1.0,0.428299999999993
25,8,0.5,1.0,-35.0,-1,1.0,0.20920000000000982
26,8,0.5,0.0,35.0,-1,0.0,0.23230000000000928
27,8,0.5,0.125,-35.0,-1,1.0,0.23810000000000286
28,8,0.5,0.125,-35.0,1,0.0,0.08429999999999893
29,8,0.5,0.0625,-35.0,-1,1.0,0.2805000000000035
30,8,0.5,0.0625,35.0,-1,0.0,1.6222999999999956
31,8,0.3,0.0625,35.0,-1,0.0,0.30009999999998627
32,8,0.5,1.0,35.0,-1,0.0,0.11439999999998918
33,8,0.5,0.125,-35.0,-1,1.0,0.21629999999998972
34,8,0.5,0.25,-35.0,-1,1.0,0.2184000000000026
35,8,0.5,1.0,-35.0,-1,1.0,0.18240000000002965
36,8,0.5,0.25,-35.0,-1,1.0,0.4222000000000037
37,8,0.5,1.0,-35.0,-1,1.0,0.23140000000000782
38,8,0.5,0.125,-35.0,-1,1.0,0.19650000000001455
39,8,0.5,0.125,35.0,-1,0.0,2.6330999999999847
40,8,0.0,0.125,35.0,1,1.0,0.34650000000002024
41,8,0.5,1.0,35.0,1,1.0,0.316599999999994
42,8,0.5,0.0625,-35.0,-1,1.0,0.29359999999999786
43,8,0.5,0.0,35.0,-1,0.0,0.245900000000006
44,8,0.5,0.0625,35.0,-1,0.0,0.2839000000000169
45,8,0.2,0.0625,35.0,1,1.0,0.391900000000021
46,8,0.5,1.0,35.0,1,1.0,0.23469999999997526
47,8,0.5,1.0,35.0,1,1.0,1.756699999999995
48,8,0.5,1.0,-35.0,-1,1.0,0.21119999999999095
49,8,0.5,0.0625,35.0,1,1.0,0.4842999999999904
50,8,0.5,1.0,35.0,-1,0.0,0.15269999999998163
51,8,0.5,1.0,35.0,1,1.0,0.49869999999998527
52,8,0.5,1.0,-35.0,-1,1.0,0.24569999999999936
53,8,0.5,0.125,35.0,1,1.0,0.9292000000000087
54,8,0.5,0.0,35.0,1,1.0,0.968199999999996
55,8,0.5,0.0625,-35.0,1,0.0,0.40100000000001046
56,8,0.5,0.125,35.0,1,1.0,0.2515000000000214
57,8,0.5,0.0625,-35.0,-1,1.0,2.19489999999999
58,8,0.5,0.125,-35.0,-1,1.0,0.22980000000001155
59,8,0.5,1.0,35.0,1,1.0,1.7690000000000055
60,8,0.5,0.0625,-35.0,-1,1.0,0.43120000000004666
61,8,0.5,0.25,35.0,-1,0.0,0.2477999999999838
62,8,0.5,0.25,-35.0,-1,1.0,0.19089999999999918
63,8,0.5,0.125,35.0,-1,0.0,0.2407000000000039
64,8,0.4,0.125,35.0,1,1.0,0.48390000000000555
65,8,0.5,1.0,35.0,1,1.0,0.25360000000006266
66,8,0.5,1.0,35.0,1,1.0,0.19200000000000728
67,8,0.5,0.125,35.0,-1,0.0,0.288599999999974
68,8,0.4,0.125,-35.0,-1,1.0,0.3043999999999869
69,8,0.5,1.0,35.0,1,1.0,0.3509999999999991
70,8,0.5,0.25,35.0,1,1.0,0.883199999999988
71,8,0.5,1.0,-35.0,-1,1.0,0.24740000000002738
72,8,0.5,1.0,35.0,1,1.0,0.4420000000000073
73,8,0.5,0.0625,-35.0,-1,1.0,0.19439999999997326
74,8,0.5,0.25,-35.0,-1,1.0,0.18219999999996617
75,8,0.5,1.0,35.0,1,1.0,0.4744000000000028
76,8,0.5,1.0,-35.0,-1,1.0,0.2521000000000413
77,8,0.5,0.125,-35.0,-1,1.0,0.31960000000003674
78,8,0.5,0.0,35.0,-1,0.0,0.5120999999999754
79,8,0.5,0.125,-35.0,-1,1.0,0.25420000000002574
80,8,0.5,0.0625,-35.0,-1,1.0,0.26420000000001664
81,8,0.5,0.0625,-35.0,-1,1.0,0.13999999999998636
82,8,0.5,0.0,-35.0,-1,1.0,0.462600000000009
83,8,0.5,0.125,35.0,-1,0.0,0.09449999999998226
84,8,0.1,0.125,35.0,1,1.0,0.3991999999999507
85,8,0.5,1.0,-35.0,-1,1.0,0.1494000000000142
86,8,0.5,1.0,35.0,-1,0.0,0.33919999999994843
87,8,0.1,1.0,-35.0,-1,1.0,0.23599999999999
88,8,0.5,1.0,35.0,-1,0.0,0.08729999999997062
89,8,0.1,1.0,35.0,1,1.0,0.5002999999999815
90,8,0.5,1.0,35.0,-1,0.0,0.16179999999997108
91,8,0.5,0.25,-35.0,-1,1.0,0.2574999999999932
92,8,0.5,0.25,35.0,1,1.0,0.4761999999999489
93,8,0.5,0.0625,35.0,-1,0.0,0.10939999999999372
94,8,0.5,0.0625,35.0,1,1.0,0.9223999999999819
95,8,0.5,0.0,-35.0,1,0.0,2.88779999999997
96,8,0.5,0.0625,35.0,1,1.0,0.11140000000000327
97,8,0.5,0.125,-35.0,1,0.0,0.16470000000003893
98,8,0.5,0.25,35.0,1,1.0,0.31150000000002365
99,8,0.5,0.25,-35.0,-1,1.0,0.20849999999995816
100,8,0.5,0.0,35.0,1,1.0,0.17549899999994523
101,8,0.5,0.125,-35.0,1,0.0,0.4802999999999429
102,8,0.5,0.0625,-35.0,1,0.0,0.5485999999999649
103,8,0.5,0.0,35.0,1,1.0,0.3937999999999988
104,8,0.5,1.0,-35.0,1,0.0,0.12020000000001119
105,8,0.9,1.0,-35.0,-1,1.0,0.2727999999999611
106,8,0.5,1.0,-35.0,-1,1.0,0.20139999999997826
107,8,0.5,0.0625,35.0,1,1.0,0.8229000000000042
108,8,0.5,0.25,35.0,-1,0.0,0.19499999999999318
109,8,0.6,0.25,35.0,1,1.0,0.39349999999996044
110,8,0.5,1.0,-35.0,-1,1.0,0.2366999999999848
111,8,0.5,1.0,35.0,1,1.0,0.4463999999999828
112,8,0.5,0.25,35.0,-1,0.0,0.25070000000005166
113,8,0.5,0.25,-35.0,-1,1.0,0.2563000000000102
114,8,0.5,1.0,-35.0,-1,1.0,0.18279999999998608
115,8,0.5,0.0625,-35.0,1,0.0,0.1604000000000383
116,8,0.5,0.0625,-35.0,-1,1.0,0.23579999999998336
117,8,0.5,0.125,-35.0,-1,1.0,0.17430000000001655
118,8,0.5,0.0625,35.0,1,1.0,0.49099999999998545
119,8,0.5,0.25,35.0,1,1.0,0.19739999999995916
120,8,0.5,0.0625,35.0,-1,0.0,0.15589999999997417
121,8,0.5,0.25,-35.0,-1,1.0,0.1895999999999276
122,8,0.5,0.125,35.0,1,1.0,0.48889999999994416
123,8,0.5,0.0625,35.0,1,1.0,1.1404999999999745
124,8,0.5,0.125,-35.0,-1,1.0,0.2258999999999105
125,8,0.5,0.125,-35.0,1,0.0,0.4073999999999387
126,8,0.5,0.25,-35.0,-1,1.0,0.2480000000000473
127,8,0.5,0.0,-35.0,-1,1.0,0.6949999999999363
128,8,0.5,1.0,35.0,1,1.0,0.3120999999999867
129,8,0.5,0.25,-35.0,-1,1.0,0.2319999999999709
130,8,0.5,0.0,-35.0,-1,1.0,0.24610000000006949
131,8,0.5,1.0,-35.0,-1,1.0,0.2140999999999167
132,8,0.5,1.0,-35.0,-1,1.0,0.19519999999999982
133,8,0.5,0.125,35.0,-1,0.0,0.23460000000000036
134,8,0.5,0.0625,35.0,1,1.0,0.31970000000001164
135,8,0.5,0.125,-35.0,-1,1.0,0.19719999999995252
136,8,0.5,0.125,35.0,1,1.0,0.35810000000003583
137,8,0.5,0.125,35.0,1,1.0,0.3565999999999576
138,8,0.5,0.0625,-35.0,-1,1.0,0.25720000000001164
139,8,0.5,1.0,35.0,1,1.0,0.2545999999999822
140,8,0.5,0.0,35.0,-1,0.0,0.3042000000000371
141,8,0.4,0.0,35.0,1,1.0,0.44669999999996435
142,8,0.5,1.0,-35.0,-1,1.0,0.26099999999996726
143,8,0.5,1.0,35.0,1,1.0,0.2604999999999791
144,8,0.5,0.125,35.0,1,1.0,0.37429999999994834
145,8,0.5,1.0,-35.0,1,0.0,0.10130000000003747
146,8,0.5,0.0625,35.0,1,1.0,0.24729999999999563
147,8,0.5,0.125,35.0,1,1.0,0.38800000000003365
148,8,0.5,1.0,-35.0,-1,1.0,0.22739999999998872
149,8,0.5,0.0,-35.0,1,0.0,0.23599999999999
150,8,0.5,0.0625,-35.0,1,0.0,0.6111000000000786
151,8,0.5,0.125,-35.0,-1,1.0,0.9504000000000588
152,8,0.5,0.0,35.0,-1,0.0,0.497600000000034
153,8,0.7,0.0,35.0,1,1.0,3.130999999999972
154,8,0.5,1.0,-35.0,-1,1.0,0.20150000000001
155,8,0.5,0.25,-35.0,1,0.0,0.1065000000000964
156,8,0.5,0.0625,-35.0,1,0.0,0.43650000000002365
157,8,0.5,0.0625,35.0,1,1.0,0.36959999999999127
158,8,0.5,0.125,35.0,1,1.0,0.5015999999999394
159,8,0.5,0.0625,-35.0,1,0.0,0.5662999999999556
160,8,0.7,0.0625,35.0,1,1.0,0.40210000000001855
161,8,0.5,1.0,-35.0,-1,1.0,0.1755000000000564
162,8,0.5,1.0,-35.0,-1,1.0,0.19460000000003674
163,8,0.5,0.125,35.0,1,1.0,0.14639999999997144
164,8,0.5,1.0,35.0,1,1.0,0.28560000000004493
165,8,0.5,0.0625,35.0,1,1.0,0.3745999999999867
166,8,0.5,1.0,35.0,1,1.0,0.31169999999997344
167,8,0.5,0.0,-35.0,1,0.0,0.45299999999997453
168,8,0.5,0.125,35.0,1,1.0,0.28759999999999764
169,8,0.5,0.25,-35.0,-1,1.0,0.3207999999999629
170,8,0.5,0.125,-35.0,-1,1.0,0.2337999999999738
171,8,0.5,0.25,35.0,1,1.0,0.3651999999999589
172,8,0.5,0.0625,-35.0,-1,1.0,0.1008000000000493
173,8,0.5,0.0625,35.0,1,1.0,0.3651000000000977
174,8,0.5,0.25,-35.0,-1,1.0,0.16480000000001382
175,8,0.5,0.25,35.0,1,1.0,0.18799999999998818
176,8,0.5,0.0,-35.0,1,0.0,0.44420000000002346
177,8,0.5,0.0625,-35.0,-1,1.0,0.3306999999999789
178,8,0.5,1.0,-35.0,-1,1.0,0.3914000000000897
179,8,0.5,0.0,-35.0,-1,1.0,0.16589999999996508
180,8,0.5,0.125,-35.0,-1,1.0,0.3239000000000942
181,8,0.5,0.0625,35.0,-1,0.0,0.47240000000010696
182,8,0.3,0.0625,35.0,1,1.0,0.1189000000000533
183,8,0.5,1.0,35.0,1,1.0,0.34590000000002874
184,8,0.5,0.125,-35.0,-1,1.0,0.22000000000002728
185,8,0.5,1.0,35.0,1,1.0,0.3650000000000091
186,8,0.5,0.25,35.0,1,1.0,0.33400000000006
187,8,0.5,0.125,-35.0,1,0.0,0.3450000000000273
188,8,0.5,0.0625,-35.0,-1,1.0,0.2720000000000482
189,8,0.5,0.0625,35.0,-1,0.0,0.26309999999989486
190,8,0.5,0.0625,-35.0,-1,1.0,0.2441000000000031
191,8,0.5,0.0625,-35.0,-1,1.0,0.20119999999997162
192,8,0.5,0.25,35.0,-1,0.0,0.2942000000000462
193,8,0.5,0.125,35.0,-1,0.0,0.30189999999993233
194,8,0.5,0.0,35.0,-1,0.0,0.28530000000000655
195,8,0.5,0.0625,35.0,1,1.0,0.5537000000000489
196,8,0.5,0.0625,-35.0,-1,1.0,0.2092000000001235
197,8,0.5,0.125,-35.0,-1,1.0,0.16229999999995925
198,8,0.5,0.125,-35.0,-1,1.0,0.20719999999994343
199,8,0.5,0.0,35.0,-1,0.0,1.7820999999999003
200,8,0.5,0.25,35.0,1,1.0,0.2643000000000484
201,8,0.5,0.125,35.0,1,1.0,0.40199999999992997
202,8,0.5,1.0,35.0,1,1.0,0.44830000000013115
203,8,0.5,0.0625,35.0,-1,0.0,0.1812999999999647
204,8,0.5,0.125,35.0,-1,0.0,0.16300000000001091
205,8,0.5,0.0625,-35.0,-1,1.0,0.5319999999999254
206,8,0.5,0.0625,-35.0,-1,1.0,0.6524000000000569
207,8,0.5,1.0,35.0,1,1.0,0.34149999999999636
208,8,0.5,0.0625,-35.0,1,0.0,0.4734000000000833
209,8,0.5,0.0625,-35.0,1,0.0,0.09949999999992087
210,8,0.5,1.0,-35.0,-1,1.0,0.18640000000004875
211,8,0.5,0.125,35.0,1,1.0,0.12579999999991287
212,8,0.5,0.0,-35.0,1,0.0,0.11219999999991614
213,8,0.5,0.125,35.0,1,1.0,0.30090000000006967
214,8,0.5,1.0,35.0,1,1.0,0.25260000000002947
215,8,0.5,1.0,-35.0,-1,1.0,0.23720000000002983
216,8,0.5,0.0,-35.0,1,0.0,0.30989999999997053
217,8,0.5,0.0625,-35.0,-1,1.0,0.24969999999996162
218,8,0.5,1.0,35.0,1,1.0,0.5830999999999449
219,8,0.5,0.125,35.0,1,1.0,0.6942999999999984
220,8,0.5,0.0,35.0,1,1.0,0.42860000000007403
221,8,0.5,1.0,-35.0,-1,1.0,0.22659999999996217
222,8,0.5,1.0,35.0,1,1.0,0.4067999999999756
223,8,0.5,0.0625,-35.0,-1,1.0,0.24610000000006949
224,8,0.5,0.0625,-35.0,-1,1.0,0.24720000000002074
225,8,0.5,0.25,-35.0,-1,1.0,0.25530000000003383
226,8,0.5,0.125,-35.0,-1,1.0,0.2057000000000926
227,8,0.5,0.25,-35.0,-1,1.0,0.2807999999999993
228,8,0.5,0.0,35.0,-1,0.0,2.7262000000000626
229,8,0.5,0.0625,-35.0,1,0.0,0.4230000000001155
230,8,0.3,0.0625,35.0,-1,0.0,0.26890000000003056
231,8,0.5,1.0,35.0,1,1.0,0.376700000000028
232,8,0.5,0.25,35.0,1,1.0,0.31490000000007967
233,8,0.5,0.125,-35.0,-1,1.0,0.22680000000013933
234,8,0.5,0.125,-35.0,-1,1.0,0.2544999999998936
235,8,0.5,0.0625,35.0,-1,0.0,0.1636999999999489
236,8,0.5,0.25,35.0,1,1.0,0.37560000000007676
237,8,0.5,0.125,-35.0,-1,1.0,0.3038000000001375
238,8,0.5,0.0625,-35.0,-1,1.0,0.2829999999999018
239,8,0.5,0.125,-35.0,-1,1.0,0.20060000000012224
240,8,0.5,1.0,-35.0,-1,1.0,0.2137000000000171
241,8,0.5,0.25,-35.0,-1,1.0,0.18100000000004002
242,8,0.5,0.125,35.0,-1,0.0,0.29539999999997235
243,8,0.5,0.125,-35.0,-1,1.0,0.26109999999994216
244,8,0.5,0.0625,-35.0,1,0.0,0.33209999999985484
245,8,0.5,0.0625,-35.0,-1,1.0,0.2513000000001284
246,8,0.5,1.0,35.0,1,1.0,0.2565999999999349
247,8,0.5,0.25,-35.0,-1,1.0,0.2980999999999767
248,8,0.5,0.0625,35.0,1,1.0,0.3125999999999749
249,8,0.5,0.0625,-35.0,-1,1.0,3.1451999999999316
250,8,0.5,0.25,-35.0,-1,1.0,0.38970000000017535
251,8,0.5,1.0,-35.0,-1,1.0,0.22550000000001091
252,8,0.5,0.25,35.0,1,1.0,0.20830000000000837
253,8,0.5,0.0625,35.0,1,1.0,0.21550000000002
254,8,0.5,0.25,-35.0,-1,1.0,0.3713000000000193
255,8,0.5,1.0,-35.0,-1,1.0,0.13239999999996144
256,8,0.5,1.0,-35.0,-1,1.0,0.23400000000015098
257,8,0.5,0.0,35.0,1,1.0,0.669399999999996
258,8,0.5,1.0,-35.0,-1,1.0,0.17429999999990287
259,8,0.5,1.0,-35.0,-1,1.0,0.15300000000002
260,8,0.5,0.0625,35.0,1,1.0,0.500400000000127
261,8,0.5,1.0,35.0,1,1.0,0.21649999999999636
262,8,0.5,0.125,-35.0,-1,1.0,0.25749999999993634
263,8,0.5,0.0,-35.0,1,0.0,0.10010000000011132
264,8,0.4,0.0,-35.0,1,0.0,0.18849999999997635
265,8,0.5,1.0,35.0,1,1.0,0.3903000000002521
266,8,0.5,0.125,35.0,1,1.0,0.35019999999985885
267,8,0.5,0.125,35.0,1,1.0,0.10720000000014807
268,8,0.5,0.125,35.0,1,1.0,0.47880000000009204
269,8,0.5,0.0,35.0,-1,0.0,0.07729999999992287
270,8,0.5,0.0625,-35.0,-1,1.0,0.34819999999990614
271,8,0.5,0.0,35.0,1,1.0,0.41440000000011423
272,8,0.5,0.125,35.0,1,1.0,0.36230000000000473
273,8,0.5,0.0625,-35.0,-1,1.0,0.21780000000012478
274,8,0.5,0.25,-35.0,-1,1.0,1.429300000000012
275,8,0.5,0.0625,-35.0,-1,1.0,0.4418000000000575
276,8,0.5,0.125,35.0,1,1.0,0.8379000000002179
277,8,0.5,0.0,-35.0,-1,1.0,0.5018999999999778
278,8,0.5,0.25,-35.0,-1,1.0,0.24720000000002074
279,8,0.5,0.0625,-35.0,-1,1.0,0.2258999999999105
280,8,0.5,0.0625,35.0,1,1.0,1.2478000000000975
281,8,0.5,0.25,-35.0,-1,1.0,0.21889999999984866
282,8,0.5,0.25,35.0,1,1.0,0.43729999999982283
283,8,0.5,1.0,35.0,1,1.0,0.24589999999989232
284,8,0.5,0.0625,-35.0,-1,1.0,0.5588999999999942
285,8,0.5,0.25,35.0,1,1.0,3.1294000000000324
286,8,0.5,1.0,-35.0,-1,1.0,0.21500000000014552
287,8,0.5,0.25,-35.0,-1,1.0,0.24640000000022155
288,8,0.5,0.125,-35.0,-1,1.0,0.21949999999992542
289,8,0.5,1.0,35.0,1,1.0,0.12650000000007822
290,8,0.5,1.0,35.0,1,1.0,0.2809999999997217
291,8,0.5,0.0625,-35.0,1,0.0,0.316899999999805
292,8,0.5,0.0625,35.0,-1,0.0,0.2640999999998712
293,8,0.5,0.0625,-35.0,1,0.0,0.4637000000000171
294,8,0.5,0.25,-35.0,-1,1.0,0.19270000000005894
295,8,0.5,1.0,-35.0,-1,1.0,0.20039999999994507
296,8,0.5,0.25,35.0,1,1.0,0.327199999999948
297,8,0.5,0.25,-35.0,-1,1.0,0.23420000000010077
298,8,0.5,0.0,-35.0,1,0.0,0.2542000000000826
299,8,0.5,0.0625,-35.0,-1,1.0,0.29740000000015243
300,8,0.5,0.125,-35.0,-1,1.0,0.25880000000006476
301,8,0.5,1.0,-35.0,-1,1.0,0.21430000000009386
302,8,0.5,0.0625,35.0,-1,0.0,0.5298000000000229
303,8,0.5,0.25,-35.0,-1,1.0,0.23799999999982901
304,8,0.5,0.0625,35.0,-1,0.0,0.6824999999998909
305,8,0.5,0.125,-35.0,1,0.0,0.1349999999999909
306,8,0.5,0.0625,35.0,1,1.0,0.6603000000000065
307,8,0.5,0.125,-35.0,-1,1.0,0.19519999999988613
308,8,0.5,0.125,-35.0,-1,1.0,0.2234000000000833
309,8,0.5,0.25,35.0,1,1.0,0.26860000000010587
310,8,0.5,0.0625,-35.0,-1,1.0,0.23649999999997817
311,8,0.5,0.0,35.0,-1,0.0,0.15579999999999927
312,8,0.5,0.25,-35.0,-1,1.0,0.2135000000000673
313,8,0.5,0.125,-35.0,-1,1.0,0.20250000000010004
314,8,0.5,0.125,35.0,1,1.0,0.36220000000002983
315,8,0.5,0.25,35.0,1,1.0,0.2760000000000673
316,8,0.5,0.0625,-35.0,-1,1.0,1.2596000000000913
317,8,0.5,0.125,-35.0,-1,1.0,0.9096000000001823
318,8,0.5,0.0625,35.0,1,1.0,0.25260000000025684
319,8,0.5,0.0625,-35.0,1,0.0,0.16320000000018808
320,8,0.5,0.0,-35.0,1,0.0,0.5416000000002441
321,8,0.5,0.125,-35.0,-1,1.0,0.19689999999991414
322,8,0.5,0.0625,-35.0,-1,1.0,0.6597000000001572
323,8,0.5,0.125,35.0,1,1.0,0.37380000000007385
324,8,0.5,0.125,35.0,1,1.0,0.22769999999991342
325,8,0.5,0.25,35.0,1,1.0,0.28379999999992833
326,8,0.5,0.0625,35.0,1,1.0,0.3168000000000575
327,8,0.5,1.0,35.0,1,1.0,0.26080000000001746
328,8,0.5,0.125,35.0,1,1.0,0.6688000000001466
329,8,0.5,0.25,35.0,1,1.0,0.12789999999995416
330,8,0.5,0.125,35.0,1,1.0,0.33189999999990505
331,8,0.5,0.125,35.0,1,1.0,0.3846000000000913
332,8,0.5,0.0625,-35.0,1,0.0,0.2979000000000269
333,8,0.5,0.25,-35.0,1,0.0,0.10810000000014952
334,8,0.5,0.25,35.0,1,1.0,0.25290000000018154
335,8,0.5,0.0625,35.0,1,1.0,0.4151000000001659
336,8,0.5,0.0625,35.0,-1,0.0,0.15370000000007167
337,8,0.5,0.0,35.0,-1,0.0,1.628400000000056
338,8,0.5,0.0625,-35.0,-1,1.0,1.0170000000000528
339,8,0.5,1.0,-35.0,-1,1.0,0.2419999999999618
340,8,0.5,1.0,35.0,1,1.0,0.19600000000014006
341,8,0.5,1.0,35.0,1,1.0,0.3788999999999305
342,8,0.5,0.125,-35.0,-1,1.0,0.16079999999988104
343,8,0.5,0.0625,35.0,1,1.0,1.3060999999997875
344,8,0.5,0.0625,-35.0,1,0.0,0.4875999999999294
345,8,0.5,0.25,-35.0,-1,1.0,0.5726999999999407
346,8,0.5,0.25,-35.0,-1,1.0,0.19600000000014006
347,8,0.5,0.0,35.0,-1,0.0,4.822900000000118
348,8,0.5,0.0625,-35.0,-1,1.0,0.2622000000001208
349,8,0.5,0.125,-35.0,-1,1.0,0.4798000000000684
350,8,0.5,0.125,-35.0,-1,1.0,0.24880000000007385
351,8,0.5,0.125,35.0,-1,0.0,0.2800999999999476
352,8,0.5,0.0,35.0,1,1.0,0.4455000000000382
353,8,0.5,1.0,35.0,1,1.0,0.3969999999999345
354,8,0.5,0.25,-35.0,-1,1.0,0.21610000000009677
355,8,0.5,0.25,-35.0,-1,1.0,0.2038000000000011
356,8,0.5,0.25,-35.0,-1,1.0,0.2017000000000735
357,8,0.5,0.125,35.0,-1,0.0,1.2939000000001215
358,8,0.5,0.125,-35.0,-1,1.0,0.5543999999999869
359,8,0.5,0.0625,-35.0,1,0.0,2.164299999999912
360,8,0.3,0.0625,35.0,1,1.0,0.7304999999998927
361,8,0.5,1.0,35.0,1,1.0,0.40459999999984575
362,8,0.5,1.0,-35.0,-1,1.0,0.22949999999991633
363,8,0.5,0.125,-35.0,-1,1.0,0.21449999999981628
364,8,0.5,0.0625,-35.0,1,0.0,0.6014000000000124
365,8,0.5,0.25,35.0,1,1.0,0.37820000000010623
366,8,0.5,0.0625,-35.0,-1,1.0,0.14249999999992724
367,8,0.5,0.0625,-35.0,-1,1.0,0.2583999999999378
368,8,0.5,0.0625,-35.0,-1,1.0,0.2772000000002208
369,8,0.5,0.125,-35.0,-1,1.0,0.18190000000004147
370,8,0.5,0.125,35.0,1,1.0,0.5261000000000422
371,8,0.5,1.0,-35.0,-1,1.0,0.19870100000002822
372,8,0.5,0.0625,35.0,-1,0.0,0.1267009999999118
373,8,0.3,0.0625,-35.0,1,0.0,0.4859009999997852
374,8,0.5,1.0,-35.0,-1,1.0,0.18570099999988088
375,8,0.5,0.25,35.0,-1,0.0,0.33920100000000275
376,8,0.5,0.125,35.0,1,1.0,0.6827009999999518
377,8,0.5,1.0,35.0,1,1.0,0.3562009999998281
378,8,0.5,0.125,35.0,1,1.0,0.35580099999992854
379,8,0.5,0.25,35.0,1,1.0,0.3164010000000417
380,8,0.5,1.0,-35.0,-1,1.0,0.1973009999999249
381,8,0.5,0.25,-35.0,-1,1.0,0.2432009999999991
382,8,0.5,0.125,35.0,1,1.0,0.6749009999998634
383,8,0.5,0.125,35.0,1,1.0,0.223500999999942
384,8,0.5,1.0,35.0,1,1.0,0.3309009999998125
385,8,0.5,0.25,-35.0,-1,1.0,0.22370100000011917
386,8,0.5,0.0625,35.0,1,1.0,0.4040010000001075
387,8,0.5,1.0,35.0,1,1.0,0.21730100000013408
388,8,0.5,0.0625,-35.0,1,0.0,0.2680009999999129
389,8,0.5,0.25,35.0,-1,0.0,0.15740100000016355
390,8,0.5,0.125,-35.0,-1,1.0,0.26210100000002967
391,8,0.5,1.0,35.0,1,1.0,0.36110099999996237
392,8,0.5,0.125,-35.0,1,0.0,0.4391009999999369
393,8,0.5,0.125,35.0,1,1.0,0.17460099999993872
394,8,0.5,1.0,-35.0,-1,1.0,0.18780100000003586
395,8,0.5,0.0,35.0,1,1.0,0.8883009999999558
396,8,0.5,0.25,35.0,1,1.0,0.33540100000004713
397,8,0.5,0.0625,-35.0,1,0.0,0.348500999999942
398,8,0.5,0.0,35.0,1,1.0,0.3586010000001352
399,8,0.5,0.25,-35.0,-1,1.0,0.21530099999972663
400,8,0.5,0.125,-35.0,-1,1.0,0.21330099999977392
401,8,0.5,0.0625,35.0,1,1.0,0.3323009999999158
402,8,0.5,1.0,-35.0,-1,1.0,0.16220099999986815
403,8,0.5,0.0625,35.0,1,1.0,0.4457009999998718
404,8,0.5,1.0,35.0,1,1.0,0.37540100000001075
405,8,0.5,0.25,35.0,1,1.0,0.326001000000133
406,8,0.5,0.125,-35.0,1,0.0,0.33330099999989216
407,8,0.5,0.125,35.0,1,1.0,0.18620099999998274
408,8,0.5,0.125,35.0,1,1.0,0.3344010000000708
409,8,0.5,0.125,35.0,1,1.0,0.40960100000006605
410,8,0.5,0.125,-35.0,1,0.0,0.16550099999994927
411,8,0.5,0.0625,-35.0,-1,1.0,0.49660100000005514
412,8,0.5,0.125,-35.0,-1,1.0,0.2535010000001421
413,8,0.5,0.25,35.0,1,1.0,0.23050099999977647
414,8,0.5,0.25,35.0,1,1.0,0.3165010000000166
415,8,0.5,0.125,35.0,-1,0.0,0.2069010000000162
416,8,0.5,0.125,35.0,1,1.0,0.3686010000001261
417,8,0.5,0.0,-35.0,1,0.0,0.24040100000001985
418,8,0.5,0.25,35.0,1,1.0,0.5758010000001832
419,8,0.5,0.0,35.0,1,1.0,0.12400099999990744
420,8,0.5,0.25,-35.0,-1,1.0,0.1828010000001541
421,8,0.5,1.0,-35.0,-1,1.0,0.22410100000001876
422,8,0.5,0.0625,35.0,1,1.0,0.3606010000000879
423,8,0.5,0.125,35.0,1,1.0,0.3012010000002192
424,8,0.5,0.125,-35.0,-1,1.0,0.25260100000014063
425,8,0.5,0.0625,35.0,1,1.0,0.6146009999997659
426,8,0.5,0.125,35.0,1,1.0,0.2497009999999591
427,8,0.5,0.25,-35.0,-1,1.0,0.4414010000000417
428,8,0.5,0.25,35.0,1,1.0,0.5268009999999776
429,8,0.5,0.25,-35.0,-1,1.0,0.735100999999986
430,8,0.5,1.0,35.0,1,1.0,0.3107009999998809
431,8,0.5,0.0625,35.0,1,1.0,0.25200100000006387
432,8,0.5,0.0625,-35.0,-1,1.0,1.4299009999999726
433,8,0.5,0.0625,-35.0,1,0.0,0.6856010000001334
434,8,0.5,0.125,-35.0,-1,1.0,0.26290100000005623
435,8,0.5,0.0625,35.0,1,1.0,0.3625009999998383
436,8,0.5,0.0,35.0,1,1.0,0.2971010000001115
437,8,0.5,0.125,-35.0,-1,1.0,0.2861009999999169
438,8,0.5,1.0,35.0,1,1.0,0.25850100000002385
439,8,0.5,1.0,35.0,1,1.0,0.3763010000002396
440,8,0.5,1.0,35.0,1,1.0,0.23299999999994725
441,8,0.5,1.0,35.0,1,1.0,0.26630100000011225
442,8,0.5,0.0625,35.0,1,1.0,0.18200100000012753
443,8,0.5,0.125,35.0,1,1.0,0.2701009999998405
444,8,0.5,0.125,-35.0,-1,1.0,0.6790010000001985
445,8,0.5,0.25,-35.0,-1,1.0,0.22340099999973972
446,8,0.5,0.0625,-35.0,1,0.0,0.33710100000007515
447,8,0.5,0.25,35.0,1,1.0,0.2937010000000555
448,8,0.5,0.125,-35.0,-1,1.0,0.11020100000018829
449,8,0.5,0.125,-35.0,-1,1.0,0.5939009999999598
450,8,0.5,0.25,35.0,1,1.0,0.5652009999998882
451,8,0.5,1.0,-35.0,-1,1.0,0.2974000000003798
452,8,0.5,0.0,-35.0,1,0.0,1.5061009999999442
453,8,0.5,0.0,35.0,1,1.0,0.8311009999997623
454,8,0.5,0.0625,35.0,1,1.0,0.48420100000021193
455,8,0.5,0.0625,-35.0,1,0.0,0.11470099999996819
456,8,0.5,0.25,-35.0,-1,1.0,0.2583009999998467
457,8,0.5,0.0,35.0,1,1.0,0.3234010000001035
458,8,0.5,0.0,-35.0,1,0.0,0.38160100000004604
459,8,0.7,0.0,-35.0,-1,1.0,0.12120099999992817
460,8,0.5,1.0,-35.0,-1,1.0,0.2086010000002716
461,8,0.5,0.125,35.0,1,1.0,0.44340100000044913
462,8,0.5,0.125,35.0,1,1.0,0.3521009999999478
463,8,0.5,0.25,35.0,1,1.0,0.3507009999998445
464,8,0.5,0.25,35.0,1,1.0,0.2925010000003567
465,8,0.5,0.25,-35.0,-1,1.0,0.254399999999805
466,8,0.5,0.25,35.0,1,1.0,0.33910100000002785
467,8,0.5,0.25,35.0,1,1.0,0.4476009999998496
468,8,0.5,1.0,-35.0,-1,1.0,0.24600099999952363
469,8,0.5,0.125,35.0,1,1.0,0.27360100000032617
470,8,0.5,0.125,35.0,1,1.0,0.46300099999962185
471,8,0.5,0.25,-35.0,-1,1.0,0.20400100000006205
472,8,0.5,0.125,-35.0,-1,1.0,0.22980099999995218
473,8,0.5,1.0,-35.0,-1,1.0,0.22140099999978702
474,8,0.5,0.0,35.0,1,1.0,0.48340099999950326
475,8,0.5,0.0,35.0,-1,0.0,3.8541000000000167
476,8,0.5,0.25,-35.0,-1,1.0,0.09380099999998492
477,8,0.5,1.0,-35.0,-1,1.0,0.19770099999959712
478,8,0.5,1.0,-35.0,-1,1.0,0.25390099999958693
479,8,0.5,1.0,35.0,1,1.0,0.31680099999994127
480,8,0.5,1.0,-35.0,-1,1.0,0.20080100000041057
481,8,0.5,0.0,-35.0,1,0.0,0.664400999999998
482,8,0.5,0.25,35.0,-1,0.0,0.23440100000016173
483,8,0.3,0.25,35.0,1,1.0,0.6653009999999995
484,8,0.5,1.0,-35.0,-1,1.0,0.24490100000002712
485,8,0.5,1.0,35.0,1,1.0,0.31890100000009625
486,8,0.5,0.25,-35.0,-1,1.0,0.2450010000002294
487,8,0.5,0.125,-35.0,-1,1.0,0.24690099999952508
488,8,0.5,0.125,-35.0,-1,1.0,0.29150099999969825
489,8,0.5,0.25,-35.0,-1,1.0,0.25500099999999293
490,8,0.5,0.0625,35.0,-1,0.0,0.8621009999997113
491,8,0.5,0.125,35.0,1,1.0,0.46210100000007515
492,8,0.5,0.125,35.0,1,1.0,6.019101000000319
493,8,0.5,0.25,35.0,1,1.0,0.44100100000059683
494,8,0.5,0.0,-35.0,1,0.0,0.32940099999996164
495,8,0.5,0.125,35.0,1,1.0,0.25820100000009916
496,8,0.5,0.25,-35.0,-1,1.0,0.23960100000022067
497,8,0.5,0.125,35.0,1,1.0,0.5522009999999682
498,8,0.5,0.0,35.0,1,1.0,0.44330100000024686
499,8,0.5,1.0,35.0,1,1.0,0.3463010000000395
500,8,0.5,1.0,35.0,1,1.0,2.426601000000119
501,8,0.5,0.125,35.0,1,1.0,0.3143009999998867
502,8,0.5,1.0,35.0,1,1.0,0.19690100000025268
503,8,0.5,0.125,35.0,1,1.0,0.324301000000105
504,8,0.5,0.0,35.0,1,1.0,0.543601000000308
505,8,0.5,0.25,35.0,1,1.0,0.33630100000027596
506,8,0.5,0.25,-35.0,-1,1.0,0.2174009999998816
507,8,0.5,0.25,35.0,1,1.0,0.2714009999999689
508,8,0.5,1.0,-35.0,-1,1.0,0.3974009999997179
509,8,0.5,1.0,-35.0,-1,1.0,0.18500100000028397
510,8,0.5,1.0,35.0,1,1.0,0.2777009999999791
511,8,0.5,0.0625,35.0,1,1.0,0.3245009999996
512,8,0.5,0.25,35.0,1,1.0,0.7245010000001457
513,8,0.5,0.0625,-35.0,-1,1.0,0.2075009999998656
514,8,0.5,1.0,35.0,1,1.0,0.32470100000000457
515,8,0.5,1.0,35.0,1,1.0,0.3396010000001297
516,8,0.5,0.0625,-35.0,-1,1.0,0.17170100000021193
517,8,0.5,0.125,35.0,1,1.0,0.3148999999998523
518,8,0.5,0.125,-35.0,-1,1.0,0.20850100000006933
519,8,0.5,0.0625,35.0,1,1.0,0.8715010000000802
520,8,0.5,0.125,35.0,1,1.0,3.2588009999999485
521,8,0.5,1.0,-35.0,-1,1.0,0.24670100000003004
522,8,0.5,0.25,-35.0,-1,1.0,0.2523010000004433
523,8,0.5,0.125,35.0,-1,0.0,0.2877010000001974
524,8,0.5,0.25,35.0,1,1.0,0.5228010000000722
525,8,0.5,0.125,-35.0,-1,1.0,0.249800999999934
526,8,0.5,1.0,-35.0,-1,1.0,0.25610099999948943
527,8,0.5,0.0,-35.0,-1,1.0,0.10890100000005987
528,8,0.5,0.125,35.0,-1,0.0,0.40300100000013117
529,8,0.5,0.125,35.0,1,1.0,0.35090100000024904
530,8,0.5,1.0,-35.0,-1,1.0,0.1669010000000526
531,8,0.5,0.125,35.0,1,1.0,0.351900999999998
532,8,0.5,0.0625,35.0,-1,0.0,0.35000099999979284
533,8,0.5,0.125,35.0,1,1.0,0.4699009999999362
534,8,0.5,1.0,-35.0,-1,1.0,0.23370100000011007
535,8,0.5,0.0625,-35.0,-1,1.0,1.1237010000004375
536,8,0.5,0.125,-35.0,-1,1.0,0.1408010000000104
537,8,0.5,0.0,35.0,1,1.0,0.6540009999998802
538,8,0.5,1.0,35.0,1,1.0,0.32740100000000893
539,8,0.5,0.125,-35.0,-1,1.0,0.2891010000003007
540,8,0.5,0.125,35.0,1,1.0,0.3609010000000126
541,8,0.5,0.125,-35.0,-1,1.0,0.3958009999996648
542,8,0.5,0.25,35.0,1,1.0,0.7311009999998532
543,8,0.5,0.125,-35.0,-1,1.0,0.24700099999972736
544,8,0.5,0.0625,-35.0,-1,1.0,0.288101000000097
545,8,0.5,0.25,-35.0,-1,1.0,0.8901009999999587
546,8,0.5,0.0625,35.0,1,1.0,0.5249009999997725
547,8,0.5,0.125,-35.0,-1,1.0,0.4708010000003924
548,8,0.5,0.125,35.0,1,1.0,0.5153009999999085
549,8,0.5,0.0625,35.0,1,1.0,0.2723009999999704
550,8,0.5,0.0625,35.0,1,1.0,0.43890099999953236
551,8,0.5,0.0625,35.0,1,1.0,0.4343010000002323
552,8,0.5,0.0625,35.0,1,1.0,0.32880100000011225
553,8,0.5,0.125,35.0,1,1.0,0.5503010000002178
554,8,0.5,0.125,-35.0,-1,1.0,0.25620100000014645
555,8,0.5,1.0,-35.0,-1,1.0,0.18240100000002712
556,8,0.5,0.125,-35.0,-1,1.0,0.2292010000001028
557,8,0.5,0.25,35.0,1,1.0,0.32220100000040475
558,8,0.5,0.0625,35.0,1,1.0,0.8164010000000417
559,8,0.5,0.0,-35.0,1,0.0,0.38440099999979793
560,8,0.5,0.125,-35.0,1,0.0,0.1329009999999471
561,8,0.5,0.125,-35.0,-1,1.0,0.30670099999997547
562,8,0.5,1.0,-35.0,-1,1.0,0.23320099999955346
563,8,0.5,0.25,35.0,1,1.0,0.3479010000000926
564,8,0.5,1.0,-35.0,-1,1.0,0.22680099999979575
565,8,0.5,1.0,35.0,1,1.0,0.30050100000016755
566,8,0.5,0.125,35.0,1,1.0,0.4836009999999078
567,8,0.5,0.125,-35.0,-1,1.0,0.7559009999999944
568,8,0.5,0.0625,35.0,1,1.0,0.3305009999999129
569,8,0.5,0.0625,-35.0,-1,1.0,0.2736009999998714
570,8,0.5,1.0,-35.0,-1,1.0,0.23070099999995364
571,8,0.5,0.25,-35.0,-1,1.0,0.2336009999999078
572,8,0.5,1.0,-35.0,-1,1.0,0.3841010000001006
573,8,0.5,0.0,-35.0,-1,1.0,0.622700999999779
574,8,0.5,0.0,-35.0,1,0.0,0.27440100000012535
575,8,0.5,0.125,35.0,1,1.0,0.511801000000105
576,8,0.5,0.0625,35.0,1,1.0,0.30800100000033126
577,8,0.5,0.0625,35.0,-1,0.0,2.055800999999974
578,8,0.5,0.25,35.0,1,1.0,0.4050010000000839
579,8,0.5,0.125,-35.0,-1,1.0,0.2248010000002978
580,8,0.5,0.25,35.0,1,1.0,0.351900999999998
581,8,0.5,1.0,-35.0,-1,1.0,0.22000100000013845
582,8,0.5,1.0,-35.0,-1,1.0,0.24550100000033126
583,8,0.5,0.0,-35.0,1,0.0,0.2991009999996095
584,8,0.5,0.25,35.0,1,1.0,0.41590099999984886
585,8,0.5,0.0625,35.0,-1,0.0,0.3789010000000417
586,8,0.5,0.0,-35.0,1,0.0,0.4693010000000868
587,8,0.5,0.25,35.0,1,1.0,0.39690099999961603
588,8,0.5,0.0,35.0,1,1.0,0.7462010000003829
589,8,0.5,0.25,-35.0,-1,1.0,0.30940099999997983
590,8,0.5,0.125,-35.0,-1,1.0,0.3931009999996604
591,8,0.5,0.125,-35.0,-1,1.0,0.4380010000004404
592,8,0.5,0.25,-35.0,-1,1.0,0.17010100000015882
593,8,0.5,1.0,35.0,1,1.0,0.400101000000177
594,8,0.5,0.25,-35.0,-1,1.0,0.20670100000006641
595,8,0.5,0.25,35.0,1,1.0,0.596100999999635
596,8,0.5,0.25,35.0,1,1.0,0.46670099999982995
597,8,0.5,0.125,35.0,1,1.0,0.3352010000003247
598,8,0.5,1.0,35.0,1,1.0,0.2872010000000955
599,8,0.5,0.25,-35.0,-1,1.0,0.20540100000016537
600,8,0.5,0.25,-35.0,-1,1.0,0.25720099999989543
601,8,0.5,0.125,-35.0,1,0.0,0.4677010000000337
602,8,0.5,0.0,35.0,-1,0.0,0.2975010000000111
603,8,0.5,0.25,-35.0,-1,1.0,0.19820100000015373
604,8,0.5,0.25,35.0,1,1.0,0.34100100000023303
605,8,0.5,0.25,-35.0,-1,1.0,0.2490010000001348
606,8,0.5,0.125,35.0,1,1.0,0.3314010000003691
607,8,0.5,1.0,35.0,-1,0.0,0.2007010000002083
608,8,0.5,0.25,35.0,-1,0.0,0.35140099999989616
609,8,0.3,0.25,35.0,1,1.0,0.3224009999998998
610,8,0.5,1.0,-35.0,-1,1.0,0.21810099999993326
611,8,0.5,0.0,35.0,1,1.0,0.34620100000029197
612,8,0.5,0.125,-35.0,-1,1.0,0.3819010000001981
613,8,0.5,1.0,-35.0,-1,1.0,0.43450099999972736
614,8,0.5,0.0,-35.0,-1,1.0,0.4919009999998707
615,8,0.5,0.0625,35.0,1,1.0,1.576701000000412
616,8,0.5,1.0,-35.0,-1,1.0,0.1422010000001137
617,8,0.5,0.0,35.0,1,1.0,0.33550000000013824
618,8,0.5,0.0,-35.0,1,0.0,0.5857009999999718
619,8,0.5,0.25,-35.0,1,0.0,0.8746010000004389
620,8,0.5,0.25,-35.0,-1,1.0,0.07930099999975937
621,8,0.5,1.0,-35.0,-1,1.0,0.1956000000000131
622,8,0.5,0.0,35.0,1,1.0,0.7695010000002185
623,8,0.5,0.0625,-35.0,1,0.0,0.5166009999998096
624,8,0.5,0.25,35.0,1,1.0,0.32310099999995145
625,8,0.5,0.25,-35.0,-1,1.0,0.2517010000001392
626,8,0.5,0.25,35.0,1,1.0,0.5767009999999573
627,8,0.5,0.125,-35.0,-1,1.0,0.4547010000001137
628,8,0.5,0.0625,-35.0,-1,1.0,0.23350100000016027
629,8,0.5,0.125,-35.0,-1,1.0,0.49830100000008315
630,8,0.5,1.0,-35.0,-1,1.0,0.2205010000002403
631,8,0.5,0.125,-35.0,-1,1.0,0.2958010000002105
632,8,0.5,1.0,-35.0,-1,1.0,0.34070100000008097
633,8,0.5,0.0,-35.0,1,0.0,8.097901000000093
634,8,0.5,0.0,-35.0,1,0.0,0.40440099999977974
635,8,0.3,0.0,35.0,1,1.0,2.0039010000000417
636,8,0.5,1.0,-35.0,-1,1.0,0.2745009999998729
637,8,0.5,0.0625,-35.0,-1,1.0,0.31950099999994563
638,8,0.5,0.25,-35.0,-1,1.0,0.3650009999996655
639,8,0.5,0.25,-35.0,-1,1.0,0.40500099999962913
640,8,0.5,0.0,35.0,1,1.0,0.6416009999998096
641,8,0.5,0.0625,35.0,1,1.0,0.6453009999995629
642,8,0.5,0.0625,-35.0,-1,1.0,0.31210100000043894
643,8,0.5,1.0,-35.0,-1,1.0,0.23010100000010425
644,8,0.5,1.0,-35.0,-1,1.0,0.3021009999997659
645,8,0.5,0.25,-35.0,-1,1.0,0.24910099999988233
646,8,0.5,1.0,-35.0,-1,1.0,0.3855009999997492
647,8,0.5,0.0625,35.0,-1,0.0,0.7996009999997113
648,8,0.5,0.0625,-35.0,-1,1.0,9.895900999999867
649,8,0.5,0.25,35.0,1,1.0,0.6073010000000068
650,8,0.5,0.125,-35.0,-1,1.0,0.09290099999952872
651,8,0.5,1.0,35.0,1,1.0,0.42170100000021193
652,8,0.5,0.25,35.0,1,1.0,0.49320099999977174
653,8,0.5,0.0625,-35.0,-1,1.0,0.4123010000002978
654,8,0.5,0.0,-35.0,1,0.0,0.5201009999996131
655,8,0.5,0.0625,-35.0,-1,1.0,2.907300999999734
656,8,0.5,0.25,-35.0,-1,1.0,0.2568010000004506
657,8,0.5,0.125,35.0,1,1.0,0.9464009999996961
658,8,0.5,0.0,-35.0,1,0.0,0.5970009999996364
659,8,0.5,0.125,-35.0,-1,1.0,8.919901000000209
660,8,0.5,0.125,-35.0,-1,1.0,0.1274009999997361
661,8,0.5,0.125,-35.0,-1,1.0,0.7135010000001785
662,8,0.5,0.125,-35.0,-1,1.0,0.9610009999996691
663,8,0.5,0.125,35.0,1,1.0,0.6196010000003298
664,8,0.5,0.125,-35.0,-1,1.0,0.2979009999999107
665,8,0.5,0.0,35.0,1,1.0,0.4646010000001297
666,8,0.5,0.125,35.0,1,1.0,0.35810099999980594
667,8,0.5,0.25,35.0,1,1.0,0.3286009999997077
668,8,0.5,0.25,35.0,1,1.0,0.39180099999975937
669,8,0.5,0.0,35.0,1,1.0,0.5436009999998532
670,8,0.5,0.125,35.0,1,1.0,0.761801000000105
671,8,0.5,0.125,35.0,1,1.0,0.3597010000003138
672,8,0.5,1.0,35.0,1,1.0,0.32870099999991
673,8,0.5,0.25,35.0,1,1.0,0.2657009999998081
674,8,0.5,0.0625,-35.0,-1,1.0,0.4289010000002236
675,8,0.5,0.0,-35.0,-1,1.0,5.330801000000065
676,8,0.5,0.25,-35.0,-1,1.0,0.5025009999999384
677,8,0.5,0.125,-35.0,-1,1.0,0.3988009999998212
678,8,0.5,0.125,35.0,1,1.0,0.4693010000000868
679,8,0.5,0.25,-35.0,-1,1.0,0.2798010000001341
680,8,0.5,1.0,35.0,1,1.0,0.3095010000001821
681,8,0.5,0.125,-35.0,-1,1.0,0.5416009999999005
682,8,0.5,0.0625,-35.0,-1,1.0,0.5133009999999558
683,8,0.5,0.125,-35.0,-1,1.0,3.8939009999999143
684,8,0.5,0.0625,35.0,1,1.0,4.790000999999847
685,8,0.5,0.0625,35.0,1,1.0,2.2635009999999056
686,8,0.5,1.0,35.0,1,1.0,0.36690100000032544
687,8,0.5,0.25,-35.0,-1,1.0,0.8438009999999849
688,8,0.5,0.0625,-35.0,-1,1.0,0.33710100000007515
689,8,0.5,0.0,-35.0,-1,1.0,0.8620009999999638
690,8,0.5,0.125,35.0,-1,0.0,0.3541009999999005
691,8,0.5,0.25,35.0,1,1.0,0.4047009999999318
692,8,0.5,0.25,35.0,1,1.0,0.5675009999999929
693,8,0.5,1.0,-35.0,-1,1.0,0.2483010000005379
694,8,0.5,0.0625,35.0,1,1.0,2.804301000000578
695,8,0.5,0.125,35.0,1,1.0,8.979901000000154
696,8,0.5,0.0,-35.0,1,0.0,8.581400999999914
