trial_num,session_num,stim_probability_left,contrast,position,response_choice,trial_correct,reaction_time
1,1,0.5,1.0,-35.0,-1,1.0,
2,1,0.5,0.125,35.0,1,1.0,
3,1,0.5,0.25,35.0,1,1.0,
4,1,0.5,0.25,-35.0,-1,1.0,
5,1,0.5,0.25,-35.0,-1,1.0,
6,1,0.5,0.25,-35.0,-1,1.0,
7,1,0.5,1.0,35.0,1,1.0,
8,1,0.5,0.0,-35.0,-1,1.0,
9,1,0.5,0.0625,35.0,-1,0.0,
10,1,0.5,0.0625,-35.0,-1,1.0,
11,1,0.5,0.0625,-35.0,-1,1.0,
12,1,0.5,1.0,-35.0,-1,1.0,
13,1,0.5,0.0625,-35.0,-1,1.0,
14,1,0.5,0.0625,35.0,-1,0.0,
15,1,0.5,1.0,35.0,1,1.0,
16,1,0.5,0.0,35.0,-1,0.0,
17,1,0.5,0.0625,-35.0,1,0.0,
18,1,0.5,0.0625,35.0,-1,0.0,
19,1,0.5,1.0,-35.0,-1,1.0,
20,1,0.5,0.0,35.0,1,1.0,
21,1,0.5,0.25,35.0,1,1.0,
22,1,0.5,1.0,35.0,1,1.0,
23,1,0.5,0.0,35.0,-1,0.0,
24,1,0.5,0.0625,-35.0,-1,1.0,
25,1,0.5,1.0,-35.0,-1,1.0,
26,1,0.5,0.25,35.0,1,1.0,
27,1,0.5,1.0,35.0,1,1.0,
28,1,0.5,0.25,-35.0,-1,1.0,
29,1,0.5,0.0625,-35.0,-1,1.0,
30,1,0.5,0.0625,35.0,1,1.0,
31,1,0.5,0.125,-35.0,-1,1.0,
32,1,0.5,1.0,-35.0,-1,1.0,
33,1,0.5,0.0625,35.0,1,1.0,
34,1,0.5,0.125,35.0,1,1.0,
35,1,0.5,0.0,-35.0,-1,1.0,
36,1,0.5,0.125,-35.0,-1,1.0,
37,1,0.5,0.0625,35.0,-1,0.0,
38,1,0.5,1.0,-35.0,-1,1.0,
39,1,0.5,1.0,-35.0,-1,1.0,
40,1,0.5,0.25,35.0,1,1.0,
41,1,0.5,0.125,35.0,1,1.0,
42,1,0.5,0.0625,35.0,1,1.0,
43,1,0.5,0.125,-35.0,-1,1.0,
44,1,0.5,0.125,35.0,1,1.0,
45,1,0.5,0.25,35.0,1,1.0,
46,1,0.5,0.0625,35.0,-1,0.0,
47,1,0.5,1.0,35.0,1,1.0,
48,1,0.5,0.0625,-35.0,-1,1.0,
49,1,0.5,0.25,-35.0,-1,1.0,
50,1,0.5,1.0,-35.0,-1,1.0,
51,1,0.5,0.0,35.0,-1,0.0,
52,1,0.5,0.0,-35.0,1,0.0,
53,1,0.5,0.0,-35.0,1,0.0,
54,1,0.5,0.25,-35.0,-1,1.0,
55,1,0.5,0.0625,35.0,-1,0.0,
56,1,0.5,0.0625,35.0,-1,0.0,
57,1,0.5,0.25,-35.0,-1,1.0,
58,1,0.5,1.0,35.0,1,1.0,
59,1,0.5,0.125,35.0,-1,0.0,
60,1,0.5,0.0,-35.0,1,0.0,
61,1,0.5,1.0,35.0,1,1.0,
62,1,0.5,0.125,35.0,1,1.0,
63,1,0.5,0.0625,35.0,1,1.0,
64,1,0.5,0.25,-35.0,-1,1.0,
65,1,0.5,0.125,-35.0,-1,1.0,
66,1,0.5,0.25,35.0,1,1.0,
67,1,0.5,0.25,35.0,1,1.0,
68,1,0.5,0.0625,35.0,-1,0.0,
69,1,0.5,0.125,-35.0,-1,1.0,
70,1,0.5,0.25,35.0,-1,0.0,
71,1,0.5,0.125,35.0,-1,0.0,
72,1,0.5,0.0625,35.0,-1,0.0,
73,1,0.5,1.0,-35.0,-1,1.0,
74,1,0.5,0.125,-35.0,-1,1.0,
75,1,0.5,0.0625,-35.0,-1,1.0,
76,1,0.5,0.0,35.0,-1,0.0,
77,1,0.5,1.0,35.0,1,1.0,
78,1,0.5,0.0625,35.0,-1,0.0,
79,1,0.5,0.0,-35.0,1,0.0,
80,1,0.5,0.0,35.0,-1,0.0,
81,1,0.5,1.0,-35.0,-1,1.0,
82,1,0.5,0.125,35.0,1,1.0,
83,1,0.5,0.25,35.0,1,1.0,
84,1,0.5,0.25,35.0,1,1.0,
85,1,0.5,0.125,-35.0,-1,1.0,
86,1,0.5,0.0625,35.0,1,1.0,
87,1,0.5,1.0,35.0,1,1.0,
88,1,0.5,0.25,35.0,1,1.0,
89,1,0.5,0.0625,-35.0,1,0.0,
90,1,0.5,0.25,35.0,1,1.0,
91,1,0.2,0.0625,35.0,1,1.0,
92,1,0.2,1.0,35.0,1,1.0,
93,1,0.2,1.0,35.0,1,1.0,
94,1,0.2,0.25,35.0,1,1.0,
95,1,0.2,0.125,35.0,1,1.0,
96,1,0.2,0.125,35.0,1,1.0,
97,1,0.2,0.0,35.0,-1,0.0,
98,1,0.2,1.0,35.0,1,1.0,
99,1,0.2,1.0,35.0,1,1.0,
100,1,0.2,0.25,35.0,1,1.0,
101,1,0.2,0.125,35.0,1,1.0,
102,1,0.2,0.25,35.0,1,1.0,
103,1,0.2,1.0,35.0,1,1.0,
104,1,0.2,0.25,35.0,1,1.0,
105,1,0.2,0.125,35.0,1,1.0,
106,1,0.2,0.0625,-35.0,-1,1.0,
107,1,0.2,1.0,35.0,1,1.0,
108,1,0.2,0.0625,35.0,1,1.0,
109,1,0.2,0.125,35.0,1,1.0,
110,1,0.2,0.0,35.0,1,1.0,
111,1,0.2,0.25,35.0,1,1.0,
112,1,0.2,0.25,35.0,1,1.0,
113,1,0.2,0.25,35.0,1,1.0,
114,1,0.2,0.0625,35.0,1,1.0,
115,1,0.2,1.0,35.0,1,1.0,
116,1,0.2,1.0,35.0,1,1.0,
117,1,0.2,0.125,35.0,1,1.0,
118,1,0.2,0.0625,35.0,1,1.0,
119,1,0.2,0.25,35.0,1,1.0,
120,1,0.2,0.125,35.0,1,1.0,
121,1,0.2,0.0,35.0,1,1.0,
122,1,0.2,0.25,35.0,1,1.0,
123,1,0.2,0.0625,35.0,1,1.0,
124,1,0.2,0.25,-35.0,1,0.0,
125,1,0.2,0.125,35.0,1,1.0,
126,1,0.2,0.25,35.0,1,1.0,
127,1,0.2,0.125,35.0,1,1.0,
128,1,0.2,0.0625,35.0,1,1.0,
129,1,0.2,0.25,35.0,1,1.0,
130,1,0.2,0.0625,35.0,1,1.0,
131,1,0.2,0.0625,-35.0,1,0.0,
132,1,0.2,0.25,-35.0,-1,1.0,
133,1,0.2,1.0,35.0,1,1.0,
134,1,0.2,0.0625,35.0,1,1.0,
135,1,0.8,0.0625,-35.0,-1,1.0,
136,1,0.8,0.125,-35.0,-1,1.0,
137,1,0.8,1.0,35.0,1,1.0,
138,1,0.8,1.0,35.0,1,1.0,
139,1,0.8,0.125,-35.0,-1,1.0,
140,1,0.8,0.25,35.0,1,1.0,
141,1,0.8,0.0625,35.0,-1,0.0,
142,1,0.8,1.0,-35.0,-1,1.0,
143,1,0.8,0.25,-35.0,-1,1.0,
144,1,0.8,0.125,35.0,-1,0.0,
145,1,0.8,0.25,-35.0,-1,1.0,
146,1,0.8,0.25,-35.0,-1,1.0,
147,1,0.8,0.0625,-35.0,-1,1.0,
148,1,0.8,0.0625,-35.0,-1,1.0,
149,1,0.8,0.25,-35.0,-1,1.0,
150,1,0.8,0.0625,35.0,-1,0.0,
151,1,0.8,0.0625,-35.0,-1,1.0,
152,1,0.8,0.125,-35.0,-1,1.0,
153,1,0.8,0.25,-35.0,-1,1.0,
154,1,0.8,0.0625,35.0,-1,0.0,
155,1,0.8,0.25,-35.0,-1,1.0,
156,1,0.8,0.0625,-35.0,-1,1.0,
157,1,0.8,1.0,35.0,1,1.0,
158,1,0.8,1.0,-35.0,-1,1.0,
159,1,0.8,1.0,-35.0,-1,1.0,
160,1,0.8,1.0,-35.0,-1,1.0,
161,1,0.2,1.0,35.0,1,1.0,
162,1,0.2,1.0,35.0,-1,0.0,
163,1,0.2,0.25,-35.0,-1,1.0,
164,1,0.2,1.0,35.0,1,1.0,
165,1,0.2,0.25,35.0,1,1.0,
166,1,0.2,0.0625,-35.0,-1,1.0,
167,1,0.2,0.25,35.0,-1,0.0,
168,1,0.2,0.0625,35.0,-1,0.0,
169,1,0.2,0.125,35.0,1,1.0,
170,1,0.2,0.0625,-35.0,1,0.0,
171,1,0.2,0.0625,35.0,1,1.0,
172,1,0.2,0.25,35.0,1,1.0,
173,1,0.2,0.25,-35.0,-1,1.0,
174,1,0.2,0.125,-35.0,1,0.0,
175,1,0.2,0.125,-35.0,-1,1.0,
176,1,0.2,0.0625,-35.0,-1,1.0,
177,1,0.2,0.0625,35.0,-1,0.0,
178,1,0.2,0.125,35.0,1,1.0,
179,1,0.2,0.125,-35.0,-1,1.0,
180,1,0.2,0.25,35.0,1,1.0,
181,1,0.8,0.0625,-35.0,1,0.0,
182,1,0.8,0.125,-35.0,-1,1.0,
183,1,0.8,0.0625,-35.0,-1,1.0,
184,1,0.8,0.0625,-35.0,-1,1.0,
185,1,0.8,1.0,-35.0,-1,1.0,
186,1,0.8,0.0,-35.0,-1,1.0,
187,1,0.8,0.0,-35.0,-1,1.0,
188,1,0.8,0.25,-35.0,-1,1.0,
189,1,0.8,1.0,-35.0,-1,1.0,
190,1,0.8,0.25,35.0,-1,0.0,
191,1,0.8,0.0625,-35.0,-1,1.0,
192,1,0.8,0.0,-35.0,-1,1.0,
193,1,0.8,0.0625,-35.0,-1,1.0,
194,1,0.8,0.0625,-35.0,-1,1.0,
195,1,0.8,1.0,-35.0,-1,1.0,
196,1,0.8,0.125,-35.0,-1,1.0,
197,1,0.8,0.0,-35.0,-1,1.0,
198,1,0.8,1.0,-35.0,-1,1.0,
199,1,0.8,0.25,-35.0,-1,1.0,
200,1,0.8,0.125,-35.0,-1,1.0,
201,1,0.8,0.0,-35.0,-1,1.0,
202,1,0.8,1.0,35.0,1,1.0,
203,1,0.8,0.125,-35.0,-1,1.0,
204,1,0.2,0.25,35.0,-1,0.0,
205,1,0.2,0.0625,35.0,-1,0.0,
206,1,0.2,0.125,-35.0,-1,1.0,
207,1,0.2,0.25,-35.0,-1,1.0,
208,1,0.2,0.125,35.0,-1,0.0,
209,1,0.2,0.0625,35.0,1,1.0,
210,1,0.2,0.0625,35.0,-1,0.0,
211,1,0.2,1.0,35.0,1,1.0,
212,1,0.2,0.25,35.0,1,1.0,
213,1,0.2,1.0,35.0,1,1.0,
214,1,0.2,1.0,35.0,1,1.0,
215,1,0.2,0.25,35.0,1,1.0,
216,1,0.2,0.125,35.0,1,1.0,
217,1,0.2,0.0625,35.0,1,1.0,
218,1,0.2,0.0,35.0,1,1.0,
219,1,0.2,0.0625,35.0,1,1.0,
220,1,0.2,0.125,35.0,1,1.0,
221,1,0.2,0.25,35.0,1,1.0,
222,1,0.2,0.125,35.0,1,1.0,
223,1,0.2,0.25,-35.0,-1,1.0,
224,1,0.8,1.0,-35.0,-1,1.0,
225,1,0.8,0.125,-35.0,-1,1.0,
226,1,0.8,1.0,35.0,1,1.0,
227,1,0.8,0.0,35.0,1,1.0,
228,1,0.8,0.25,-35.0,-1,1.0,
229,1,0.8,0.125,35.0,1,1.0,
230,1,0.8,0.25,-35.0,-1,1.0,
231,1,0.8,0.25,-35.0,-1,1.0,
232,1,0.8,0.125,-35.0,-1,1.0,
233,1,0.8,0.125,35.0,-1,0.0,
234,1,0.8,0.25,-35.0,-1,1.0,
235,1,0.8,1.0,-35.0,-1,1.0,
236,1,0.8,1.0,35.0,1,1.0,
237,1,0.8,0.25,35.0,-1,0.0,
238,1,0.8,0.125,-35.0,-1,1.0,
239,1,0.8,0.125,-35.0,-1,1.0,
240,1,0.8,1.0,-35.0,-1,1.0,
241,1,0.8,0.25,-35.0,-1,1.0,
242,1,0.8,0.125,-35.0,-1,1.0,
243,1,0.8,0.125,35.0,1,1.0,
244,1,0.8,1.0,35.0,1,1.0,
245,1,0.8,0.125,-35.0,1,0.0,
246,1,0.8,1.0,-35.0,-1,1.0,
247,1,0.8,0.125,35.0,1,1.0,
248,1,0.8,0.25,-35.0,-1,1.0,
249,1,0.8,0.0,-35.0,1,0.0,
250,1,0.8,0.125,-35.0,1,0.0,
251,1,0.8,0.25,-35.0,-1,1.0,
252,1,0.8,0.125,-35.0,-1,1.0,
253,1,0.8,0.25,-35.0,-1,1.0,
254,1,0.8,0.125,-35.0,-1,1.0,
255,1,0.8,0.25,-35.0,-1,1.0,
256,1,0.8,1.0,-35.0,-1,1.0,
257,1,0.8,0.0,35.0,1,1.0,
258,1,0.8,1.0,-35.0,-1,1.0,
259,1,0.8,0.0,35.0,1,1.0,
260,1,0.8,0.0,-35.0,1,0.0,
261,1,0.8,0.0,-35.0,1,0.0,
262,1,0.2,0.0625,35.0,1,1.0,
263,1,0.2,0.125,35.0,1,1.0,
264,1,0.2,1.0,35.0,1,1.0,
265,1,0.2,0.125,35.0,1,1.0,
266,1,0.2,0.0625,-35.0,-1,1.0,
267,1,0.2,0.25,35.0,1,1.0,
268,1,0.2,0.0,35.0,-1,0.0,
269,1,0.2,0.125,35.0,1,1.0,
270,1,0.2,1.0,35.0,1,1.0,
271,1,0.2,1.0,35.0,1,1.0,
272,1,0.2,0.25,35.0,1,1.0,
273,1,0.2,0.25,35.0,1,1.0,
274,1,0.2,0.25,-35.0,1,0.0,
275,1,0.2,1.0,35.0,1,1.0,
276,1,0.2,0.125,-35.0,1,0.0,
277,1,0.2,0.25,-35.0,-1,1.0,
278,1,0.2,0.25,35.0,-1,0.0,
279,1,0.2,0.0625,35.0,1,1.0,
280,1,0.2,1.0,-35.0,-1,1.0,
281,1,0.2,0.0625,35.0,1,1.0,
282,1,0.2,1.0,35.0,1,1.0,
283,1,0.2,0.125,35.0,1,1.0,
284,1,0.2,0.125,35.0,1,1.0,
285,1,0.2,0.0625,35.0,1,1.0,
286,1,0.2,0.125,35.0,1,1.0,
287,1,0.2,0.0625,35.0,1,1.0,
288,1,0.2,0.125,35.0,1,1.0,
289,1,0.2,0.125,-35.0,1,0.0,
290,1,0.2,0.25,35.0,1,1.0,
291,1,0.2,0.25,35.0,1,1.0,
292,1,0.2,1.0,35.0,1,1.0,
293,1,0.2,1.0,-35.0,-1,1.0,
294,1,0.2,0.125,-35.0,-1,1.0,
295,1,0.2,0.25,35.0,1,1.0,
296,1,0.2,0.125,35.0,1,1.0,
297,1,0.2,0.0,35.0,1,1.0,
298,1,0.2,0.125,35.0,1,1.0,
299,1,0.2,0.25,35.0,1,1.0,
300,1,0.2,1.0,-35.0,-1,1.0,
301,1,0.2,1.0,35.0,1,1.0,
302,1,0.2,0.125,-35.0,1,0.0,
303,1,0.2,0.125,35.0,1,1.0,
304,1,0.2,0.125,35.0,1,1.0,
305,1,0.2,0.25,35.0,1,1.0,
306,1,0.2,0.25,-35.0,1,0.0,
307,1,0.2,0.0625,35.0,1,1.0,
308,1,0.2,0.125,35.0,1,1.0,
309,1,0.2,1.0,35.0,1,1.0,
310,1,0.2,0.25,35.0,1,1.0,
311,1,0.2,0.0625,-35.0,1,0.0,
312,1,0.2,0.0625,35.0,1,1.0,
313,1,0.2,1.0,35.0,1,1.0,
314,1,0.8,0.125,35.0,1,1.0,
315,1,0.8,0.0625,35.0,1,1.0,
316,1,0.8,0.0625,-35.0,1,0.0,
317,1,0.8,0.125,35.0,1,1.0,
318,1,0.8,0.25,-35.0,1,0.0,
319,1,0.8,0.125,35.0,1,1.0,
320,1,0.8,0.125,-35.0,-1,1.0,
321,1,0.8,0.0625,-35.0,-1,1.0,
322,1,0.8,0.125,35.0,-1,0.0,
323,1,0.8,0.125,35.0,1,1.0,
324,1,0.8,0.0,-35.0,1,0.0,
325,1,0.8,0.0625,35.0,1,1.0,
326,1,0.8,0.0625,-35.0,1,0.0,
327,1,0.8,0.0625,-35.0,-1,1.0,
328,1,0.8,0.0,-35.0,-1,1.0,
329,1,0.8,0.25,-35.0,-1,1.0,
330,1,0.8,1.0,-35.0,-1,1.0,
331,1,0.8,0.25,-35.0,-1,1.0,
332,1,0.8,0.0625,-35.0,-1,1.0,
333,1,0.8,1.0,-35.0,-1,1.0,
334,1,0.8,0.0625,35.0,-1,0.0,
335,1,0.8,0.0625,-35.0,-1,1.0,
336,1,0.8,0.125,35.0,1,1.0,
337,1,0.8,1.0,-35.0,-1,1.0,
338,1,0.8,0.125,-35.0,-1,1.0,
339,1,0.8,0.0,35.0,1,1.0,
340,1,0.8,0.125,35.0,1,1.0,
341,1,0.8,0.0625,-35.0,1,0.0,
342,1,0.8,0.0625,-35.0,-1,1.0,
343,1,0.8,0.125,-35.0,1,0.0,
344,1,0.8,1.0,-35.0,-1,1.0,
345,1,0.8,0.25,-35.0,-1,1.0,
346,1,0.8,1.0,-35.0,-1,1.0,
347,1,0.8,0.125,35.0,-1,0.0,
348,1,0.8,0.125,-35.0,-1,1.0,
349,1,0.8,0.125,35.0,-1,0.0,
350,1,0.8,1.0,-35.0,-1,1.0,
351,1,0.8,0.0625,35.0,1,1.0,
352,1,0.8,0.0,35.0,1,1.0,
353,1,0.8,0.125,-35.0,-1,1.0,
354,1,0.8,0.25,-35.0,-1,1.0,
355,1,0.8,0.25,-35.0,-1,1.0,
356,1,0.8,1.0,-35.0,-1,1.0,
357,1,0.8,0.0,-35.0,-1,1.0,
358,1,0.8,0.0,-35.0,-1,1.0,
359,1,0.8,0.0625,-35.0,-1,1.0,
360,1,0.8,0.125,-35.0,-1,1.0,
361,1,0.8,0.25,-35.0,-1,1.0,
362,1,0.8,0.125,-35.0,-1,1.0,
363,1,0.8,1.0,35.0,1,1.0,
364,1,0.8,0.125,-35.0,-1,1.0,
365,1,0.8,0.125,-35.0,-1,1.0,
366,1,0.8,0.25,35.0,1,1.0,
367,1,0.8,0.0625,-35.0,-1,1.0,
368,1,0.8,0.25,-35.0,-1,1.0,
369,1,0.2,0.125,35.0,-1,0.0,
370,1,0.2,0.125,35.0,1,1.0,
371,1,0.2,0.25,35.0,1,1.0,
372,1,0.2,0.25,35.0,1,1.0,
373,1,0.2,0.0,35.0,-1,0.0,
374,1,0.2,1.0,35.0,1,1.0,
375,1,0.2,0.125,35.0,1,1.0,
376,1,0.2,0.125,35.0,1,1.0,
377,1,0.2,0.125,-35.0,-1,1.0,
378,1,0.2,0.0625,35.0,1,1.0,
379,1,0.2,0.125,-35.0,-1,1.0,
380,1,0.2,0.0,35.0,-1,0.0,
381,1,0.2,0.0625,35.0,-1,0.0,
382,1,0.2,0.0,35.0,1,1.0,
383,1,0.2,0.0625,-35.0,1,0.0,
384,1,0.2,0.25,35.0,1,1.0,
385,1,0.2,0.25,35.0,1,1.0,
386,1,0.2,0.125,35.0,1,1.0,
387,1,0.2,0.25,-35.0,1,0.0,
388,1,0.2,0.125,35.0,1,1.0,
389,1,0.2,0.125,35.0,1,1.0,
390,1,0.2,0.25,35.0,1,1.0,
391,1,0.2,1.0,35.0,1,1.0,
392,1,0.2,0.0625,35.0,1,1.0,
393,1,0.2,0.0625,35.0,1,1.0,
394,1,0.2,0.125,35.0,1,1.0,
395,1,0.2,0.25,35.0,1,1.0,
396,1,0.2,0.25,35.0,1,1.0,
397,1,0.2,0.125,35.0,1,1.0,
398,1,0.2,0.0,35.0,1,1.0,
399,1,0.2,0.0625,-35.0,1,0.0,
400,1,0.2,0.25,35.0,1,1.0,
401,1,0.2,0.0625,35.0,1,1.0,
402,1,0.2,0.0625,35.0,1,1.0,
403,1,0.2,0.0625,35.0,1,1.0,
404,1,0.2,0.25,35.0,1,1.0,
405,1,0.2,0.0,35.0,1,1.0,
406,1,0.2,0.125,35.0,1,1.0,
407,1,0.2,0.0,35.0,1,1.0,
408,1,0.2,0.25,35.0,1,1.0,
409,1,0.2,0.0625,-35.0,1,0.0,
410,1,0.2,0.25,35.0,1,1.0,
411,1,0.2,0.0,-35.0,1,0.0,
412,1,0.2,1.0,35.0,1,1.0,
413,1,0.2,0.25,35.0,1,1.0,
414,1,0.2,1.0,35.0,1,1.0,
415,1,0.2,0.0,-35.0,-1,1.0,
416,1,0.2,1.0,-35.0,-1,1.0,
417,1,0.2,1.0,35.0,1,1.0,
418,1,0.2,0.0625,35.0,1,1.0,
419,1,0.2,0.125,35.0,-1,0.0,
420,1,0.2,0.125,35.0,1,1.0,
421,1,0.2,0.25,-35.0,-1,1.0,
422,1,0.2,0.0,35.0,1,1.0,
423,1,0.2,0.0625,35.0,1,1.0,
424,1,0.2,0.0625,35.0,1,1.0,
425,1,0.2,0.25,35.0,1,1.0,
426,1,0.2,1.0,-35.0,-1,1.0,
427,1,0.2,1.0,35.0,1,1.0,
428,1,0.8,0.125,-35.0,-1,1.0,
429,1,0.8,0.25,-35.0,-1,1.0,
430,1,0.8,1.0,-35.0,-1,1.0,
431,1,0.8,1.0,-35.0,-1,1.0,
432,1,0.8,0.0625,-35.0,-1,1.0,
433,1,0.8,0.0,-35.0,-1,1.0,
434,1,0.8,0.0625,-35.0,-1,1.0,
435,1,0.8,0.0,-35.0,-1,1.0,
436,1,0.8,0.125,-35.0,-1,1.0,
437,1,0.8,0.25,-35.0,-1,1.0,
438,1,0.8,0.25,-35.0,-1,1.0,
439,1,0.8,0.0,-35.0,-1,1.0,
440,1,0.8,0.0625,35.0,-1,0.0,
441,1,0.8,0.0625,-35.0,-1,1.0,
442,1,0.8,0.25,35.0,1,1.0,
443,1,0.8,0.25,-35.0,-1,1.0,
444,1,0.8,0.0625,-35.0,1,0.0,
445,1,0.8,0.25,-35.0,-1,1.0,
446,1,0.8,0.0625,-35.0,-1,1.0,
447,1,0.8,1.0,-35.0,-1,1.0,
448,1,0.8,0.0,-35.0,-1,1.0,
449,1,0.8,0.125,-35.0,-1,1.0,
450,1,0.8,0.0625,-35.0,-1,1.0,
451,1,0.8,0.125,35.0,-1,0.0,
452,1,0.8,0.125,-35.0,-1,1.0,
453,1,0.8,0.0625,-35.0,-1,1.0,
454,1,0.8,0.0625,-35.0,-1,1.0,
455,1,0.8,0.25,-35.0,-1,1.0,
456,1,0.8,0.0625,-35.0,-1,1.0,
457,1,0.2,1.0,-35.0,-1,1.0,
458,1,0.2,0.125,35.0,-1,0.0,
459,1,0.2,0.25,-35.0,-1,1.0,
460,1,0.2,0.125,35.0,1,1.0,
461,1,0.2,0.125,35.0,-1,0.0,
462,1,0.2,1.0,35.0,1,1.0,
463,1,0.2,1.0,35.0,1,1.0,
464,1,0.2,1.0,35.0,1,1.0,
465,1,0.2,0.25,35.0,1,1.0,
466,1,0.2,0.0,35.0,1,1.0,
467,1,0.2,1.0,35.0,1,1.0,
468,1,0.2,1.0,35.0,1,1.0,
469,1,0.2,1.0,35.0,1,1.0,
470,1,0.2,0.0,35.0,1,1.0,
471,1,0.2,0.25,35.0,1,1.0,
472,1,0.2,0.0625,35.0,1,1.0,
473,1,0.2,0.0,35.0,1,1.0,
474,1,0.2,0.0625,35.0,1,1.0,
475,1,0.2,1.0,35.0,1,1.0,
476,1,0.2,0.25,35.0,1,1.0,
477,1,0.2,0.0,35.0,-1,0.0,
478,1,0.2,0.0625,35.0,1,1.0,
479,1,0.2,0.125,35.0,1,1.0,
480,1,0.2,0.0625,35.0,1,1.0,
481,1,0.2,0.125,35.0,1,1.0,
482,1,0.2,1.0,35.0,1,1.0,
483,1,0.2,1.0,-35.0,-1,1.0,
484,1,0.2,0.125,35.0,-1,0.0,
485,1,0.8,1.0,-35.0,-1,1.0,
486,1,0.8,0.25,-35.0,1,0.0,
487,1,0.8,0.0625,-35.0,-1,1.0,
488,1,0.8,0.25,-35.0,-1,1.0,
489,1,0.8,0.125,-35.0,-1,1.0,
490,1,0.8,0.0625,-35.0,1,0.0,
491,1,0.8,1.0,-35.0,-1,1.0,
492,1,0.8,1.0,35.0,1,1.0,
493,1,0.8,0.0625,-35.0,-1,1.0,
494,1,0.8,1.0,35.0,1,1.0,
495,1,0.8,0.0,-35.0,-1,1.0,
496,1,0.8,0.125,-35.0,-1,1.0,
497,1,0.8,0.125,-35.0,-1,1.0,
498,1,0.8,0.0,-35.0,-1,1.0,
499,1,0.8,0.125,-35.0,-1,1.0,
500,1,0.8,1.0,-35.0,-1,1.0,
501,1,0.8,0.25,-35.0,-1,1.0,
502,1,0.8,0.0625,-35.0,-1,1.0,
503,1,0.8,0.25,-35.0,-1,1.0,
504,1,0.8,0.0625,-35.0,-1,1.0,
505,1,0.8,0.125,-35.0,-1,1.0,
506,1,0.8,0.25,35.0,-1,0.0,
507,1,0.8,0.0625,-35.0,-1,1.0,
508,1,0.8,0.0625,-35.0,-1,1.0,
509,1,0.8,1.0,35.0,1,1.0,0.39210099999991144
510,1,0.8,0.0625,-35.0,-1,1.0,0.5683010000000195
511,1,0.8,0.0625,-35.0,-1,1.0,
512,1,0.8,0.25,-35.0,-1,1.0,
513,1,0.8,1.0,-35.0,-1,1.0,
514,1,0.8,1.0,-35.0,-1,1.0,
515,1,0.8,0.25,-35.0,-1,1.0,
516,1,0.8,0.125,35.0,-1,0.0,
517,1,0.8,1.0,-35.0,-1,1.0,
518,1,0.8,0.0625,-35.0,-1,1.0,
519,1,0.8,1.0,-35.0,-1,1.0,
520,1,0.8,0.25,35.0,1,1.0,
521,1,0.8,0.0,35.0,-1,0.0,
522,1,0.8,0.125,-35.0,-1,1.0,
523,1,0.2,0.0625,35.0,1,1.0,
524,1,0.2,0.125,-35.0,-1,1.0,
525,1,0.2,0.125,35.0,-1,0.0,
526,1,0.2,0.0,35.0,-1,0.0,
527,1,0.2,0.25,35.0,1,1.0,
528,1,0.2,0.0625,35.0,1,1.0,
529,1,0.2,0.0,35.0,1,1.0,
530,1,0.2,1.0,35.0,1,1.0,
531,1,0.2,0.0625,35.0,1,1.0,
532,1,0.2,0.25,-35.0,1,0.0,
533,1,0.2,0.25,35.0,1,1.0,
534,1,0.2,1.0,35.0,1,1.0,
535,1,0.2,0.0625,35.0,1,1.0,
536,1,0.2,1.0,-35.0,-1,1.0,
537,1,0.2,1.0,35.0,1,1.0,0.2872010000000955
538,1,0.2,0.0625,-35.0,-1,1.0,0.45400100000006205
539,1,0.2,1.0,35.0,1,1.0,
540,1,0.2,0.125,35.0,-1,0.0,
541,1,0.2,0.0625,35.0,1,1.0,
542,1,0.2,0.0625,35.0,1,1.0,
543,1,0.2,0.0625,35.0,1,1.0,0.2836009999998623
544,1,0.8,0.0,-35.0,1,0.0,0.15090100000020357
545,1,0.8,1.0,-35.0,-1,1.0,0.15990099999999074
546,1,0.8,0.0625,-35.0,1,0.0,0.43140100000005077
547,1,0.8,0.125,35.0,1,1.0,0.28840100000024904
548,1,0.8,0.125,-35.0,-1,1.0,0.42590100000006714
549,1,0.8,0.25,-35.0,-1,1.0,0.2694010000000162
550,1,0.8,0.25,-35.0,-1,1.0,0.31290100000001075
551,1,0.8,0.0625,-35.0,-1,1.0,
552,1,0.8,0.0625,-35.0,-1,1.0,
553,1,0.8,0.0625,35.0,-1,0.0,
554,1,0.8,0.25,-35.0,-1,1.0,
555,1,0.8,0.0625,-35.0,-1,1.0,
556,1,0.8,0.125,35.0,-1,0.0,
557,1,0.8,0.125,-35.0,-1,1.0,
558,1,0.8,1.0,-35.0,-1,1.0,
559,1,0.8,0.125,-35.0,-1,1.0,
560,1,0.8,0.125,35.0,1,1.0,
561,1,0.8,0.25,-35.0,-1,1.0,
562,1,0.8,0.25,-35.0,-1,1.0,
563,1,0.8,1.0,35.0,1,1.0,
564,1,0.8,0.125,35.0,1,1.0,
565,1,0.8,0.0625,-35.0,1,0.0,
566,1,0.8,0.0625,-35.0,-1,1.0,
567,1,0.8,0.25,-35.0,-1,1.0,
568,1,0.8,1.0,-35.0,-1,1.0,
569,1,0.8,0.0,-35.0,-1,1.0,
570,1,0.8,1.0,-35.0,-1,1.0,
571,1,0.8,0.0625,-35.0,-1,1.0,
572,1,0.8,0.25,-35.0,-1,1.0,
573,1,0.8,0.125,-35.0,-1,1.0,
574,1,0.8,0.25,35.0,-1,0.0,0.29630100000008497
575,1,0.8,0.125,-35.0,-1,1.0,
576,1,0.8,0.125,-35.0,-1,1.0,-0.1855990000001384
577,1,0.8,0.125,35.0,1,1.0,
578,1,0.8,1.0,-35.0,-1,1.0,-0.8057989999999791
579,1,0.8,0.0,-35.0,1,0.0,-0.26579999999989923
580,1,0.2,1.0,-35.0,-1,1.0,-0.12159900000006019
581,1,0.2,0.125,35.0,-1,0.0,0.1874009999999089
582,1,0.2,1.0,35.0,1,1.0,-0.05319899999994959
583,1,0.2,0.25,35.0,1,1.0,
584,1,0.2,1.0,35.0,1,1.0,
585,1,0.2,0.0625,35.0,1,1.0,
586,1,0.2,0.0625,35.0,1,1.0,
587,1,0.2,0.125,35.0,1,1.0,
588,1,0.2,0.0625,35.0,1,1.0,
589,1,0.2,0.25,35.0,1,1.0,
590,1,0.2,0.0625,35.0,1,1.0,
591,1,0.2,0.0625,35.0,1,1.0,
592,1,0.2,1.0,35.0,1,1.0,
593,1,0.2,0.125,35.0,1,1.0,
594,1,0.2,0.125,35.0,1,1.0,
595,1,0.2,0.0,35.0,1,1.0,
596,1,0.2,0.0625,35.0,1,1.0,
597,1,0.2,0.25,35.0,1,1.0,-0.192098999999871
598,1,0.2,0.0625,35.0,1,1.0,0.31980099999987033
599,1,0.2,0.0,35.0,1,1.0,
600,1,0.2,0.125,-35.0,1,0.0,0.11160100000006423
601,1,0.2,0.25,35.0,1,1.0,
602,1,0.2,1.0,35.0,1,1.0,
603,1,0.2,1.0,-35.0,-1,1.0,
604,1,0.2,1.0,35.0,1,1.0,
605,1,0.2,0.25,-35.0,-1,1.0,
606,1,0.2,1.0,35.0,1,1.0,
607,1,0.2,0.0625,35.0,1,1.0,
608,1,0.2,0.125,35.0,1,1.0,
609,1,0.2,0.125,35.0,1,1.0,
610,1,0.2,1.0,-35.0,-1,1.0,
611,1,0.2,0.25,35.0,1,1.0,
612,1,0.2,0.0,-35.0,1,0.0,
613,1,0.2,0.0625,-35.0,1,0.0,
614,1,0.2,0.0,35.0,1,1.0,
615,1,0.8,1.0,-35.0,-1,1.0,
616,1,0.8,0.125,-35.0,1,0.0,
617,1,0.8,0.125,-35.0,-1,1.0,
618,1,0.8,0.125,-35.0,1,0.0,
619,1,0.8,0.125,-35.0,-1,1.0,
620,1,0.8,0.0625,-35.0,-1,1.0,
621,1,0.8,0.0625,35.0,1,1.0,
622,1,0.8,1.0,-35.0,-1,1.0,
623,1,0.8,1.0,-35.0,-1,1.0,
624,1,0.8,1.0,-35.0,-1,1.0,
625,1,0.8,0.125,-35.0,-1,1.0,
626,1,0.8,0.0625,-35.0,-1,1.0,
627,1,0.8,1.0,35.0,1,1.0,
628,1,0.8,0.0625,-35.0,-1,1.0,
629,1,0.8,0.0,-35.0,-1,1.0,
630,1,0.8,0.25,-35.0,-1,1.0,
631,1,0.8,0.0625,-35.0,-1,1.0,
632,1,0.8,0.25,-35.0,-1,1.0,
633,1,0.8,1.0,-35.0,-1,1.0,
634,1,0.8,0.125,-35.0,-1,1.0,
635,1,0.8,0.25,35.0,1,1.0,
636,1,0.8,0.0625,-35.0,-1,1.0,
637,1,0.8,0.125,-35.0,-1,1.0,
638,1,0.8,0.0625,-35.0,-1,1.0,
639,1,0.8,1.0,-35.0,-1,1.0,
640,1,0.8,0.0625,-35.0,-1,1.0,
641,1,0.2,0.0625,35.0,-1,0.0,
642,1,0.2,0.0,35.0,-1,0.0,
643,1,0.2,1.0,35.0,1,1.0,
644,1,0.2,0.25,35.0,1,1.0,
645,1,0.2,0.0625,35.0,1,1.0,
646,1,0.2,0.0,35.0,1,1.0,
647,1,0.2,1.0,35.0,1,1.0,
648,1,0.2,0.0625,-35.0,1,0.0,
649,1,0.2,0.0625,35.0,-1,0.0,
650,1,0.2,0.0,-35.0,1,0.0,
651,1,0.2,0.125,35.0,1,1.0,
652,1,0.2,0.25,35.0,1,1.0,
653,1,0.2,0.0625,35.0,1,1.0,
654,1,0.2,0.0,-35.0,1,0.0,
655,1,0.2,1.0,35.0,1,1.0,
656,1,0.2,1.0,-35.0,-1,1.0,
657,1,0.2,0.25,35.0,1,1.0,
658,1,0.2,0.125,35.0,1,1.0,
659,1,0.2,1.0,35.0,1,1.0,
660,1,0.2,0.125,35.0,1,1.0,
661,1,0.2,0.0625,35.0,1,1.0,
662,1,0.2,0.125,35.0,1,1.0,
663,1,0.2,0.0625,-35.0,1,0.0,
664,1,0.2,0.0,35.0,1,1.0,
665,1,0.2,1.0,35.0,1,1.0,
666,1,0.2,0.0625,35.0,1,1.0,
667,1,0.2,1.0,35.0,1,1.0,
668,1,0.2,0.0,-35.0,1,0.0,
669,1,0.2,0.125,35.0,1,1.0,
670,1,0.2,0.125,-35.0,1,0.0,
671,1,0.2,0.125,35.0,-1,0.0,
672,1,0.2,0.0,35.0,1,1.0,
673,1,0.2,1.0,35.0,1,1.0,
674,1,0.2,0.0625,35.0,-1,0.0,
675,1,0.2,0.125,-35.0,-1,1.0,
676,1,0.2,0.125,35.0,-1,0.0,
677,1,0.2,0.125,35.0,1,1.0,
678,1,0.2,0.125,-35.0,-1,1.0,
679,1,0.2,0.25,35.0,1,1.0,
680,1,0.2,0.25,35.0,1,1.0,
681,1,0.8,0.25,35.0,1,1.0,
682,1,0.8,0.0625,35.0,1,1.0,
683,1,0.8,0.0,-35.0,1,0.0,
684,1,0.8,0.125,35.0,1,1.0,
685,1,0.8,1.0,-35.0,-1,1.0,
686,1,0.8,0.0,35.0,-1,0.0,
687,1,0.8,0.0,-35.0,1,0.0,
688,1,0.8,1.0,-35.0,-1,1.0,
689,1,0.8,0.0,-35.0,-1,1.0,
690,1,0.8,1.0,-35.0,-1,1.0,
691,1,0.8,0.125,35.0,1,1.0,
692,1,0.8,0.125,-35.0,-1,1.0,
693,1,0.8,1.0,-35.0,-1,1.0,
694,1,0.8,0.25,35.0,1,1.0,
695,1,0.8,1.0,-35.0,-1,1.0,
696,1,0.8,0.0625,-35.0,1,0.0,
697,1,0.8,1.0,-35.0,-1,1.0,
698,1,0.8,0.0625,-35.0,-1,1.0,
699,1,0.8,1.0,-35.0,-1,1.0,
700,1,0.8,0.25,-35.0,-1,1.0,
701,1,0.8,0.25,-35.0,-1,1.0,
702,1,0.8,0.125,-35.0,-1,1.0,
703,1,0.8,0.0625,-35.0,-1,1.0,
704,1,0.8,0.0,35.0,-1,0.0,
705,1,0.8,0.0625,-35.0,-1,1.0,
706,1,0.8,1.0,35.0,1,1.0,
707,1,0.8,0.0625,35.0,1,1.0,
708,1,0.8,0.0625,35.0,1,1.0,
709,1,0.8,0.0,-35.0,-1,1.0,
710,1,0.8,0.125,-35.0,1,0.0,
711,1,0.8,1.0,35.0,1,1.0,
712,1,0.8,0.125,35.0,1,1.0,
713,1,0.8,0.0625,-35.0,1,0.0,
714,1,0.8,0.125,-35.0,-1,1.0,
715,1,0.8,0.0625,35.0,1,1.0,
716,1,0.8,0.25,-35.0,-1,1.0,
717,1,0.2,0.25,35.0,1,1.0,
718,1,0.2,0.0625,35.0,1,1.0,
719,1,0.2,1.0,35.0,1,1.0,
720,1,0.2,0.25,35.0,1,1.0,
721,1,0.2,1.0,-35.0,-1,1.0,
722,1,0.2,0.25,35.0,1,1.0,
723,1,0.2,0.125,35.0,1,1.0,
724,1,0.2,0.125,35.0,1,1.0,
725,1,0.2,0.125,35.0,1,1.0,
726,1,0.2,0.125,35.0,1,1.0,
727,1,0.2,1.0,35.0,1,1.0,
728,1,0.2,0.125,35.0,1,1.0,
729,1,0.2,0.125,35.0,1,1.0,
730,1,0.2,0.0625,35.0,1,1.0,
731,1,0.2,0.125,35.0,1,1.0,
732,1,0.2,0.0625,35.0,1,1.0,
733,1,0.2,0.0625,35.0,1,1.0,
734,1,0.2,1.0,35.0,1,1.0,
735,1,0.2,0.25,35.0,1,1.0,
736,1,0.2,1.0,35.0,1,1.0,
737,1,0.2,0.25,-35.0,1,0.0,
738,1,0.2,1.0,35.0,1,1.0,
739,1,0.2,0.0,35.0,1,1.0,
740,1,0.2,0.25,35.0,1,1.0,
741,1,0.2,0.25,35.0,1,1.0,
742,1,0.2,0.125,35.0,1,1.0,
743,1,0.2,0.0,-35.0,1,0.0,
744,1,0.2,1.0,35.0,1,1.0,
745,1,0.2,0.0,35.0,1,1.0,
746,1,0.2,0.125,35.0,1,1.0,
747,1,0.2,0.0625,35.0,1,1.0,
748,1,0.2,0.25,-35.0,-1,1.0,
749,1,0.2,0.125,35.0,1,1.0,
750,1,0.2,0.0625,35.0,1,1.0,
751,1,0.2,0.25,35.0,1,1.0,
752,1,0.2,1.0,35.0,1,1.0,
753,1,0.2,0.0625,35.0,-1,0.0,
754,1,0.2,0.125,35.0,1,1.0,
755,1,0.2,0.0625,35.0,1,1.0,
756,1,0.2,0.25,35.0,1,1.0,
757,1,0.2,0.25,35.0,1,1.0,
758,1,0.2,0.125,35.0,1,1.0,
759,1,0.2,0.25,35.0,1,1.0,
760,1,0.2,0.125,35.0,1,1.0,
761,1,0.2,0.125,35.0,1,1.0,
762,1,0.2,1.0,35.0,1,1.0,
763,1,0.2,0.125,-35.0,1,0.0,
764,1,0.2,0.125,35.0,1,1.0,
765,1,0.2,0.125,-35.0,-1,1.0,
766,1,0.2,0.125,-35.0,-1,1.0,
767,1,0.2,0.125,-35.0,-1,1.0,
768,1,0.2,0.125,35.0,-1,0.0,
769,1,0.2,0.25,-35.0,-1,1.0,
770,1,0.2,1.0,35.0,-1,0.0,
771,1,0.2,1.0,35.0,1,1.0,
772,1,0.2,0.25,-35.0,1,0.0,
773,1,0.2,0.0625,35.0,1,1.0,
774,1,0.2,0.25,-35.0,-1,1.0,
775,1,0.2,0.0,-35.0,1,0.0,
776,1,0.2,0.0625,35.0,1,1.0,
777,1,0.2,0.25,35.0,1,1.0,
778,1,0.2,1.0,35.0,1,1.0,
779,1,0.2,0.25,35.0,1,1.0,
780,1,0.2,0.125,35.0,1,1.0,
781,1,0.2,0.125,35.0,1,1.0,
782,1,0.2,1.0,35.0,1,1.0,
783,1,0.2,0.0625,35.0,1,1.0,
784,1,0.2,0.0625,35.0,-1,0.0,
785,1,0.2,0.25,35.0,1,1.0,
786,1,0.2,0.125,35.0,1,1.0,
787,1,0.2,1.0,35.0,1,1.0,
788,1,0.2,0.125,35.0,1,1.0,
789,1,0.2,0.0625,35.0,1,1.0,-0.7404990000004545
790,1,0.2,0.0625,35.0,1,1.0,-0.2498990000003687
791,1,0.2,0.125,35.0,1,1.0,
792,1,0.8,1.0,-35.0,-1,1.0,
793,1,0.8,0.125,-35.0,-1,1.0,
794,1,0.8,0.25,-35.0,-1,1.0,
795,1,0.8,0.25,-35.0,-1,1.0,
796,1,0.8,0.0625,-35.0,-1,1.0,
797,1,0.8,0.25,-35.0,-1,1.0,
798,1,0.8,0.0,-35.0,-1,1.0,
799,1,0.8,0.0,35.0,-1,0.0,
800,1,0.8,0.125,-35.0,-1,1.0,
801,1,0.8,1.0,-35.0,-1,1.0,
802,1,0.8,1.0,35.0,1,1.0,
803,1,0.8,0.25,-35.0,-1,1.0,
804,1,0.8,0.0,-35.0,1,0.0,
805,1,0.8,0.125,35.0,1,1.0,
806,1,0.8,0.25,35.0,1,1.0,
807,1,0.8,0.125,35.0,1,1.0,
808,1,0.8,0.25,-35.0,-1,1.0,
809,1,0.8,0.125,35.0,1,1.0,
810,1,0.8,0.0625,-35.0,-1,1.0,
811,1,0.8,0.0625,35.0,-1,0.0,
812,1,0.8,0.25,-35.0,-1,1.0,
813,1,0.8,0.25,-35.0,-1,1.0,
814,1,0.8,0.25,-35.0,-1,1.0,
815,1,0.8,0.125,-35.0,-1,1.0,
816,1,0.8,0.0625,-35.0,-1,1.0,
817,1,0.8,0.125,-35.0,-1,1.0,
818,1,0.8,0.25,-35.0,-1,1.0,
819,1,0.8,0.0625,-35.0,-1,1.0,
820,1,0.8,0.25,-35.0,-1,1.0,
821,1,0.8,0.0625,-35.0,-1,1.0,
822,1,0.8,0.0,-35.0,-1,1.0,
823,1,0.8,1.0,-35.0,-1,1.0,
824,1,0.8,0.125,35.0,-1,0.0,
825,1,0.8,0.25,-35.0,-1,1.0,
826,1,0.8,0.0625,-35.0,-1,1.0,
827,1,0.8,1.0,-35.0,-1,1.0,
828,1,0.8,1.0,-35.0,-1,1.0,
829,1,0.8,0.25,-35.0,-1,1.0,
830,1,0.8,0.0,-35.0,-1,1.0,
831,1,0.8,0.0,-35.0,-1,1.0,0.3246009999998023
832,1,0.8,0.0,-35.0,-1,1.0,0.5380009999998947
833,1,0.8,0.0,35.0,1,1.0,0.4614010000000235
834,1,0.8,1.0,-35.0,-1,1.0,0.18820099999993545
835,1,0.8,0.25,-35.0,1,0.0,0.7716009999999187
836,1,0.8,1.0,-35.0,-1,1.0,0.181800999999723
837,1,0.8,0.125,-35.0,-1,1.0,0.3185009999997419
838,1,0.8,0.0625,-35.0,-1,1.0,0.21190099999921586
839,1,0.8,0.125,-35.0,-1,1.0,0.2421009999998205
840,1,0.8,0.0625,-35.0,-1,1.0,0.2522009999997863
841,1,0.8,1.0,-35.0,-1,1.0,0.18220099999962258
842,1,0.8,0.25,-35.0,-1,1.0,0.43880099999978484
843,1,0.8,0.0625,35.0,-1,0.0,0.43890099999953236
844,1,0.8,0.0625,-35.0,1,0.0,
845,1,0.8,0.0625,-35.0,-1,1.0,0.3224009999998998
846,1,0.8,0.0,-35.0,-1,1.0,0.21920099999988452
847,1,0.8,0.0,-35.0,1,0.0,0.2659009999997579
848,1,0.8,0.125,-35.0,-1,1.0,0.16270099999974263
849,1,0.8,0.0625,-35.0,-1,1.0,0.32940099999996164
850,1,0.8,0.125,-35.0,-1,1.0,0.23610099999996237
851,1,0.8,0.25,-35.0,-1,1.0,0.26280099999985396
852,1,0.8,0.0625,-35.0,-1,1.0,0.256300999999894
853,1,0.8,0.25,-35.0,-1,1.0,0.39310100000011516
854,1,0.8,0.0625,-35.0,-1,1.0,0.4797009999997499
855,1,0.8,0.0625,-35.0,-1,1.0,
856,1,0.8,1.0,-35.0,-1,1.0,
857,1,0.8,0.0625,-35.0,-1,1.0,0.43010099999992235
858,1,0.8,0.25,35.0,1,1.0,0.2767010000002301
859,1,0.8,0.0625,-35.0,1,0.0,0.3969010000000708
860,1,0.8,0.0625,-35.0,-1,1.0,0.6769009999998161
861,1,0.8,0.0625,-35.0,-1,1.0,
862,1,0.8,0.25,-35.0,-1,1.0,
863,1,0.8,0.125,35.0,1,1.0,
864,1,0.8,0.0,-35.0,-1,1.0,
865,1,0.8,0.0625,-35.0,-1,1.0,0.3173009999995884
866,1,0.8,0.0,-35.0,-1,1.0,0.4840009999998074
867,1,0.8,0.125,-35.0,-1,1.0,0.46410100000002785
868,1,0.8,0.125,-35.0,-1,1.0,0.2075009999998656
869,1,0.8,1.0,-35.0,-1,1.0,0.004700999999386113
870,1,0.8,0.0625,-35.0,-1,1.0,0.5876009999997223
871,1,0.2,0.125,35.0,-1,0.0,0.5977009999996881
872,1,0.2,0.0625,35.0,1,1.0,0.3677009999996699
873,1,0.2,0.0625,35.0,1,1.0,0.2880009999998947
874,1,0.2,0.25,35.0,1,1.0,0.2213010000000395
875,1,0.2,0.125,35.0,1,1.0,0.19800100000020393
876,1,0.2,0.0625,35.0,1,1.0,0.2114010000000235
877,1,0.2,0.0,35.0,1,1.0,0.2014009999998052
878,1,0.2,0.0625,35.0,1,1.0,0.31160099999988233
879,1,0.2,0.125,-35.0,1,0.0,0.2382009999996626
880,1,0.2,1.0,-35.0,-1,1.0,0.28180099999963204
881,1,0.2,0.0625,-35.0,-1,1.0,0.39180099999975937
882,1,0.2,1.0,-35.0,-1,1.0,0.37280099999952654
883,1,0.2,0.25,35.0,1,1.0,0.32860100000016246
884,1,0.2,0.0,35.0,1,1.0,0.6655009999994945
885,1,0.2,0.0625,35.0,-1,0.0,0.35540099999980157
886,1,0.2,0.0625,35.0,1,1.0,0.35890100000005987
887,1,0.2,0.25,35.0,1,1.0,0.3457010000001901
888,1,0.2,0.25,35.0,1,1.0,0.2823009999997339
889,1,0.2,1.0,35.0,1,1.0,
890,1,0.2,0.0,-35.0,1,0.0,
891,1,0.2,0.125,35.0,1,1.0,
892,1,0.2,0.0625,35.0,1,1.0,
893,1,0.2,0.125,35.0,1,1.0,
894,1,0.2,1.0,35.0,1,1.0,
895,1,0.2,0.25,35.0,1,1.0,
896,1,0.2,0.25,35.0,1,1.0,
897,1,0.2,0.125,-35.0,-1,1.0,
898,1,0.2,0.125,35.0,1,1.0,
899,1,0.2,0.125,-35.0,1,0.0,
900,1,0.2,1.0,35.0,1,1.0,
901,1,0.2,0.125,35.0,1,1.0,
902,1,0.2,0.0625,35.0,1,1.0,
903,1,0.2,0.125,35.0,1,1.0,
904,1,0.2,0.25,35.0,1,1.0,
905,1,0.2,0.0625,35.0,1,1.0,
906,1,0.2,0.0625,35.0,1,1.0,
907,1,0.2,0.0,35.0,1,1.0,0.2472010000001319
908,1,0.2,1.0,-35.0,-1,1.0,0.3038010000000213
909,1,0.2,0.25,35.0,1,1.0,0.2439009999998234
910,1,0.2,0.25,35.0,1,1.0,0.24730099999987942
911,1,0.2,0.25,35.0,1,1.0,0.24750099999982922
912,1,0.2,0.0625,35.0,1,1.0,0.3676009999994676
913,1,0.2,0.25,-35.0,-1,1.0,0.33770099999992453
914,1,0.2,0.0625,35.0,1,1.0,0.36450099999956365
915,1,0.2,0.0625,-35.0,1,0.0,0.2645009999996546
916,1,0.2,0.25,35.0,1,1.0,0.4379009999997834
917,1,0.2,0.0625,35.0,1,1.0,0.2281009999996968
918,1,0.2,0.125,35.0,1,1.0,0.22150099999953454
919,1,0.2,0.0625,35.0,1,1.0,0.27490099999977247
920,1,0.2,0.125,35.0,1,1.0,0.364900999999918
921,1,0.2,0.125,-35.0,-1,1.0,0.6984009999996488
922,1,0.2,0.25,35.0,1,1.0,0.2985009999997601
923,1,0.2,0.125,-35.0,-1,1.0,0.7452009999992697
924,1,0.2,1.0,35.0,1,1.0,0.21860099999958038
925,1,0.2,0.125,35.0,1,1.0,0.605301000000054
926,1,0.2,0.0,35.0,-1,0.0,0.5155009999998583
927,1,0.2,1.0,35.0,1,1.0,0.20210100000031161
928,1,0.2,0.125,-35.0,1,0.0,0.21240099999977247
929,1,0.2,0.25,-35.0,-1,1.0,0.23570100000006278
930,1,0.2,0.25,35.0,1,1.0,0.29920099999981176
931,1,0.2,1.0,35.0,1,1.0,0.2058009999996102
932,1,0.2,1.0,35.0,1,1.0,0.17260099999975864
933,1,0.2,1.0,35.0,1,1.0,0.21620100000018283
934,1,0.2,0.25,35.0,1,1.0,0.3927009999997608
935,1,0.2,0.25,35.0,1,1.0,0.24620099999947342
936,1,0.2,0.0625,35.0,1,1.0,0.44280099999969025
937,1,0.2,0.0,35.0,1,1.0,0.6163010000000213
938,1,0.2,0.125,35.0,1,1.0,0.21630099999993035
939,1,0.2,0.125,-35.0,1,0.0,0.3732010000003356
940,1,0.2,0.25,-35.0,-1,1.0,0.3166009999999915
941,1,0.2,0.25,35.0,-1,0.0,0.3701009999999769
942,1,0.2,0.0625,35.0,1,1.0,0.403400999999576
943,1,0.2,0.25,-35.0,-1,1.0,0.2737010000000737
944,1,0.2,0.0625,-35.0,1,0.0,0.2603009999997994
945,1,0.2,0.0625,35.0,1,1.0,0.2637009999998554
946,1,0.2,0.0625,35.0,1,1.0,0.4138009999996939
947,1,0.2,0.125,35.0,1,1.0,0.2338009999998576
948,1,0.2,0.125,35.0,1,1.0,0.5806009999996604
949,1,0.2,0.0625,35.0,-1,0.0,0.48400099999935264
950,1,0.2,0.25,35.0,1,1.0,0.34740099999999074
951,1,0.2,0.25,35.0,1,1.0,0.21750100000008388
952,1,0.2,0.25,35.0,1,1.0,0.24760099999957674
953,1,0.2,1.0,-35.0,-1,1.0,0.2744009999996706
954,1,0.2,1.0,-35.0,-1,1.0,0.3344010000000708
955,1,0.2,0.125,35.0,1,1.0,0.3745009999997819
956,1,0.2,0.25,35.0,1,1.0,0.4013009999998758
957,1,0.2,1.0,35.0,1,1.0,0.22800099999994927
958,1,0.2,0.125,35.0,1,1.0,0.2781009999998787
959,1,0.2,1.0,35.0,1,1.0,0.21810099999993326
960,1,0.2,0.0625,35.0,1,1.0,
961,1,0.2,0.125,35.0,1,1.0,
962,1,0.2,0.0625,35.0,1,1.0,
963,1,0.2,0.0625,35.0,1,1.0,
964,1,0.2,0.125,35.0,1,1.0,
965,1,0.2,0.0,35.0,1,1.0,
966,1,0.2,0.25,35.0,1,1.0,
967,1,0.8,1.0,-35.0,-1,1.0,
968,1,0.8,1.0,-35.0,-1,1.0,
969,1,0.8,0.0625,-35.0,-1,1.0,
970,1,0.8,1.0,35.0,1,1.0,
971,1,0.8,1.0,-35.0,-1,1.0,
972,1,0.8,0.25,-35.0,-1,1.0,
973,1,0.8,0.25,-35.0,-1,1.0,
974,1,0.8,1.0,-35.0,-1,1.0,
975,1,0.8,0.0625,-35.0,1,0.0,
976,1,0.8,1.0,-35.0,-1,1.0,
977,1,0.8,0.25,-35.0,-1,1.0,
978,1,0.8,0.0625,35.0,1,1.0,
979,1,0.8,0.0625,35.0,-1,0.0,
980,1,0.8,0.125,-35.0,1,0.0,
981,1,0.8,0.25,-35.0,-1,1.0,
982,1,0.8,0.0625,-35.0,1,0.0,
983,1,0.8,1.0,-35.0,-1,1.0,
984,1,0.8,0.0625,35.0,1,1.0,
985,1,0.8,0.0,-35.0,-1,1.0,
986,1,0.8,0.125,35.0,1,1.0,
987,1,0.8,1.0,35.0,1,1.0,
988,1,0.8,1.0,-35.0,-1,1.0,
989,1,0.8,1.0,-35.0,-1,1.0,
990,1,0.8,0.0625,-35.0,-1,1.0,
991,1,0.8,0.125,-35.0,-1,1.0,
992,1,0.8,0.0,35.0,-1,0.0,
993,1,0.8,1.0,-35.0,-1,1.0,
994,1,0.8,0.0,-35.0,1,0.0,
995,1,0.8,0.0,-35.0,1,0.0,
996,1,0.8,0.125,-35.0,-1,1.0,
997,1,0.8,1.0,-35.0,-1,1.0,
998,1,0.8,1.0,-35.0,-1,1.0,
999,1,0.8,0.125,-35.0,-1,1.0,
1000,1,0.8,0.125,-35.0,-1,1.0,
1001,1,0.8,0.0625,-35.0,-1,1.0,
1002,1,0.8,1.0,-35.0,-1,1.0,
1003,1,0.8,0.0625,-35.0,-1,1.0,
1004,1,0.8,0.25,-35.0,-1,1.0,
1005,1,0.8,0.25,35.0,1,1.0,
1006,1,0.8,0.0625,-35.0,1,0.0,
1007,1,0.8,0.125,-35.0,-1,1.0,
1008,1,0.8,0.0625,-35.0,-1,1.0,
1009,1,0.8,0.0625,-35.0,-1,1.0,
1010,1,0.8,0.25,35.0,-1,0.0,
1011,1,0.8,0.125,-35.0,-1,1.0,
1012,1,0.8,1.0,-35.0,-1,1.0,
1013,1,0.8,1.0,-35.0,-1,1.0,
1014,1,0.8,0.0,-35.0,-1,1.0,
1015,1,0.8,0.25,-35.0,-1,1.0,
1016,1,0.8,0.0625,-35.0,-1,1.0,
1017,1,0.8,0.125,-35.0,-1,1.0,
1018,1,0.8,1.0,-35.0,-1,1.0,
1019,1,0.8,0.25,-35.0,-1,1.0,
1020,1,0.8,1.0,-35.0,-1,1.0,
1021,1,0.8,0.25,35.0,1,1.0,
1022,1,0.8,0.0625,-35.0,-1,1.0,
1023,1,0.8,1.0,-35.0,-1,1.0,
1024,1,0.8,1.0,-35.0,-1,1.0,
1025,1,0.8,1.0,-35.0,-1,1.0,
1026,1,0.8,0.125,-35.0,-1,1.0,
1027,1,0.8,0.125,-35.0,-1,1.0,
1028,1,0.8,0.0625,35.0,-1,0.0,
1029,1,0.8,0.0,-35.0,-1,1.0,
1030,1,0.8,1.0,35.0,1,1.0,
1031,1,0.8,0.25,-35.0,-1,1.0,
1032,1,0.8,0.0625,-35.0,-1,1.0,
1033,1,0.8,0.0625,-35.0,1,0.0,
1034,1,0.8,1.0,35.0,1,1.0,
1035,1,0.8,0.25,-35.0,-1,1.0,
1036,1,0.8,0.25,-35.0,-1,1.0,
1037,1,0.8,0.25,-35.0,-1,1.0,
1038,1,0.2,0.0625,35.0,-1,0.0,
1039,1,0.2,1.0,-35.0,-1,1.0,
1040,1,0.2,0.125,-35.0,-1,1.0,
1041,1,0.2,0.125,35.0,1,1.0,
1042,1,0.2,0.25,35.0,1,1.0,
1043,1,0.2,0.125,35.0,1,1.0,
1044,1,0.2,0.0625,35.0,1,1.0,
1045,1,0.2,1.0,35.0,1,1.0,
1046,1,0.2,1.0,35.0,1,1.0,
1047,1,0.2,1.0,-35.0,-1,1.0,
1048,1,0.2,0.25,35.0,1,1.0,
1049,1,0.2,0.0625,35.0,1,1.0,
1050,1,0.2,0.125,35.0,1,1.0,
1051,1,0.2,0.25,35.0,1,1.0,
1052,1,0.2,0.25,35.0,1,1.0,
1053,1,0.2,0.25,35.0,1,1.0,
1054,1,0.2,0.0625,35.0,1,1.0,
1055,1,0.2,1.0,35.0,1,1.0,
1056,1,0.2,0.0625,35.0,1,1.0,
1057,1,0.2,1.0,35.0,1,1.0,
1058,1,0.2,0.125,35.0,1,1.0,
1059,1,0.2,0.125,35.0,1,1.0,
1060,1,0.2,1.0,35.0,1,1.0,
1061,1,0.2,0.125,35.0,1,1.0,
1062,1,0.2,0.0625,35.0,1,1.0,
1063,1,0.2,1.0,35.0,1,1.0,
1064,1,0.2,0.25,35.0,1,1.0,
1065,1,0.2,0.0625,35.0,1,1.0,
1066,1,0.2,1.0,35.0,1,1.0,
1067,1,0.2,0.0625,35.0,1,1.0,
1068,1,0.2,1.0,35.0,1,1.0,
1069,1,0.2,1.0,35.0,1,1.0,
1070,1,0.2,0.25,35.0,1,1.0,
1071,1,0.2,0.0625,35.0,1,1.0,
1072,1,0.8,0.0625,-35.0,1,0.0,
1073,1,0.8,0.125,-35.0,-1,1.0,
1074,1,0.8,0.25,-35.0,-1,1.0,
1075,1,0.8,1.0,35.0,1,1.0,
1076,1,0.8,0.125,-35.0,-1,1.0,
1077,1,0.8,0.25,-35.0,-1,1.0,
1078,1,0.8,0.25,-35.0,-1,1.0,
1079,1,0.8,0.0,-35.0,-1,1.0,
1080,1,0.8,0.125,-35.0,-1,1.0,
1081,1,0.8,0.125,-35.0,-1,1.0,
1082,1,0.8,1.0,-35.0,-1,1.0,
1083,1,0.8,0.25,-35.0,-1,1.0,
1084,1,0.8,0.25,-35.0,-1,1.0,
1085,1,0.8,1.0,35.0,1,1.0,
1086,1,0.8,0.25,35.0,-1,0.0,
1087,1,0.8,0.0625,35.0,1,1.0,
1088,1,0.8,0.25,-35.0,-1,1.0,
1089,1,0.8,1.0,-35.0,-1,1.0,
1090,1,0.8,0.25,-35.0,-1,1.0,
1091,1,0.8,0.125,-35.0,1,0.0,
1092,1,0.8,0.0,-35.0,-1,1.0,
1093,1,0.8,0.0625,-35.0,-1,1.0,
1094,1,0.8,0.25,35.0,-1,0.0,
1095,1,0.8,1.0,-35.0,-1,1.0,
1096,1,0.8,0.0,-35.0,1,0.0,
1097,1,0.8,0.25,35.0,-1,0.0,
1098,1,0.8,0.0625,35.0,1,1.0,
1099,1,0.8,0.25,-35.0,-1,1.0,
1100,1,0.8,0.0625,-35.0,-1,1.0,
1101,1,0.8,0.25,-35.0,-1,1.0,
1102,1,0.8,0.125,35.0,-1,0.0,
1103,1,0.8,0.0625,-35.0,-1,1.0,
1104,1,0.8,0.0625,35.0,-1,0.0,
1105,1,0.8,0.0625,35.0,-1,0.0,
1106,1,0.8,0.125,-35.0,-1,1.0,
1107,1,0.8,0.25,-35.0,-1,1.0,
1108,1,0.8,0.125,-35.0,-1,1.0,
1109,1,0.8,0.25,35.0,1,1.0,
1110,1,0.8,0.25,-35.0,-1,1.0,
1111,1,0.8,0.125,-35.0,1,0.0,
1112,1,0.8,1.0,-35.0,-1,1.0,
1113,1,0.8,0.0625,-35.0,-1,1.0,
1114,1,0.8,0.0625,35.0,-1,0.0,
1115,1,0.8,0.0625,-35.0,-1,1.0,
1116,1,0.8,0.0625,-35.0,-1,1.0,
1117,1,0.8,0.25,-35.0,-1,1.0,
1118,1,0.8,0.125,-35.0,-1,1.0,
1119,1,0.8,0.125,35.0,-1,0.0,
1120,1,0.8,1.0,35.0,1,1.0,
1121,1,0.8,1.0,35.0,1,1.0,
1122,1,0.8,0.125,-35.0,-1,1.0,
1123,1,0.8,1.0,-35.0,-1,1.0,
1124,1,0.8,1.0,35.0,1,1.0,
1125,1,0.8,0.0625,-35.0,-1,1.0,
1126,1,0.8,0.125,35.0,1,1.0,
1127,1,0.8,1.0,-35.0,-1,1.0,
1128,1,0.8,0.125,-35.0,-1,1.0,
1129,1,0.8,0.25,-35.0,-1,1.0,
1130,1,0.8,0.0,-35.0,-1,1.0,
1131,1,0.8,0.0625,-35.0,-1,1.0,
1132,1,0.8,0.0625,35.0,1,1.0,
1133,1,0.8,1.0,-35.0,-1,1.0,
1134,1,0.8,0.0625,-35.0,-1,1.0,
1135,1,0.8,0.125,-35.0,-1,1.0,
1136,1,0.8,0.0625,-35.0,-1,1.0,
1137,1,0.8,0.0,-35.0,-1,1.0,
1138,1,0.8,0.25,35.0,-1,0.0,
1139,1,0.8,0.25,35.0,1,1.0,
1140,1,0.8,1.0,35.0,1,1.0,
1141,1,0.8,1.0,-35.0,-1,1.0,
1142,1,0.8,1.0,-35.0,-1,1.0,
1143,1,0.8,1.0,35.0,1,1.0,
1144,1,0.8,0.0625,-35.0,-1,1.0,
1145,1,0.8,0.0625,35.0,-1,0.0,
1146,1,0.8,0.125,-35.0,-1,1.0,
1147,1,0.8,0.0,-35.0,1,0.0,
1148,1,0.8,0.125,-35.0,-1,1.0,
1149,1,0.8,0.25,-35.0,-1,1.0,
1150,1,0.8,0.125,35.0,-1,0.0,
1151,1,0.8,0.0625,35.0,-1,0.0,
1152,1,0.8,1.0,-35.0,-1,1.0,
1153,1,0.8,0.125,-35.0,-1,1.0,
1154,1,0.8,0.0625,35.0,-1,0.0,
1155,1,0.8,1.0,35.0,1,1.0,
1156,1,0.8,1.0,-35.0,-1,1.0,
1157,1,0.8,0.0625,-35.0,-1,1.0,
1158,1,0.8,0.25,35.0,1,1.0,
1159,1,0.2,0.25,35.0,1,1.0,
1160,1,0.2,1.0,-35.0,-1,1.0,
1161,1,0.2,0.125,35.0,-1,0.0,
1162,1,0.2,0.25,35.0,1,1.0,
1163,1,0.2,0.0625,35.0,1,1.0,
1164,1,0.2,0.25,35.0,1,1.0,
1165,1,0.2,0.125,35.0,1,1.0,
1166,1,0.2,0.125,35.0,1,1.0,
1167,1,0.2,1.0,35.0,1,1.0,
1168,1,0.2,0.0625,35.0,1,1.0,
1169,1,0.2,0.25,35.0,1,1.0,
1170,1,0.2,0.125,35.0,1,1.0,
1171,1,0.2,0.125,35.0,1,1.0,
1172,1,0.2,0.0625,35.0,1,1.0,
1173,1,0.2,1.0,35.0,1,1.0,
1174,1,0.2,0.0625,35.0,1,1.0,
1175,1,0.2,0.25,35.0,1,1.0,
1176,1,0.2,1.0,35.0,1,1.0,
1177,1,0.2,0.0,35.0,1,1.0,
1178,1,0.2,0.0625,-35.0,1,0.0,
1179,1,0.2,0.0,35.0,-1,0.0,
1180,1,0.2,0.125,35.0,1,1.0,
1181,1,0.2,0.0625,35.0,1,1.0,
1182,1,0.2,0.125,-35.0,-1,1.0,
1183,1,0.2,0.0625,35.0,1,1.0,
1184,1,0.2,0.0625,35.0,1,1.0,
1185,1,0.2,0.25,-35.0,1,0.0,
1186,1,0.2,0.125,35.0,1,1.0,
1187,1,0.2,1.0,35.0,1,1.0,
1188,1,0.2,0.125,35.0,1,1.0,
1189,1,0.2,0.0,35.0,1,1.0,
1190,1,0.2,0.25,35.0,1,1.0,
1191,1,0.2,0.0625,35.0,1,1.0,
1192,1,0.2,1.0,35.0,1,1.0,
1193,1,0.2,0.0625,-35.0,1,0.0,
1194,1,0.2,0.25,35.0,1,1.0,
1195,1,0.2,1.0,35.0,1,1.0,
1196,1,0.2,1.0,35.0,1,1.0,
1197,1,0.2,0.125,35.0,1,1.0,
1198,1,0.2,0.125,35.0,1,1.0,
1199,1,0.2,0.25,-35.0,1,0.0,
1200,1,0.2,0.25,-35.0,-1,1.0,
1201,1,0.2,0.125,35.0,-1,0.0,
1202,1,0.2,1.0,-35.0,-1,1.0,
1203,1,0.2,0.0625,35.0,-1,0.0,
1204,1,0.2,0.125,35.0,1,1.0,
1205,1,0.8,1.0,-35.0,-1,1.0,
1206,1,0.8,0.125,-35.0,-1,1.0,
1207,1,0.8,0.125,-35.0,-1,1.0,
1208,1,0.8,0.25,35.0,-1,0.0,
1209,1,0.8,0.0625,-35.0,-1,1.0,
1210,1,0.8,0.0,-35.0,-1,1.0,
1211,1,0.8,1.0,-35.0,-1,1.0,
1212,1,0.8,1.0,35.0,-1,0.0,
1213,1,0.8,1.0,35.0,-1,0.0,
1214,1,0.8,0.25,-35.0,-1,1.0,
1215,1,0.8,0.0,-35.0,1,0.0,
1216,1,0.8,0.0,-35.0,-1,1.0,
1217,1,0.8,0.0,-35.0,-1,1.0,
1218,1,0.8,0.125,-35.0,-1,1.0,
1219,1,0.8,0.125,-35.0,-1,1.0,
1220,1,0.8,0.25,-35.0,-1,1.0,
1221,1,0.8,1.0,-35.0,-1,1.0,
1222,1,0.8,1.0,-35.0,-1,1.0,
1223,1,0.8,0.25,-35.0,-1,1.0,
1224,1,0.8,1.0,-35.0,-1,1.0,
1225,1,0.8,0.125,35.0,-1,0.0,
1226,1,0.8,0.0625,-35.0,-1,1.0,
1227,1,0.8,0.0625,-35.0,-1,1.0,
1228,1,0.8,1.0,-35.0,-1,1.0,
1229,1,0.8,1.0,-35.0,-1,1.0,
1230,1,0.8,0.125,35.0,-1,0.0,
1231,1,0.8,0.0625,35.0,-1,0.0,
1232,1,0.8,0.25,35.0,1,1.0,
1233,1,0.8,0.125,-35.0,-1,1.0,
1234,1,0.8,0.125,-35.0,-1,1.0,
1235,1,0.8,0.25,-35.0,-1,1.0,
1236,1,0.8,0.25,-35.0,-1,1.0,
1237,1,0.8,0.0625,-35.0,-1,1.0,
1238,1,0.8,0.0,-35.0,-1,1.0,
1239,1,0.8,0.0625,-35.0,-1,1.0,
1240,1,0.8,0.25,-35.0,-1,1.0,
1241,1,0.8,0.125,-35.0,-1,1.0,
1242,1,0.8,0.0625,-35.0,-1,1.0,
1243,1,0.8,0.25,-35.0,-1,1.0,
1244,1,0.8,0.0625,-35.0,-1,1.0,
1245,1,0.8,1.0,-35.0,-1,1.0,
1246,1,0.8,0.125,-35.0,-1,1.0,
1247,1,0.8,0.125,35.0,-1,0.0,
1248,1,0.8,0.0625,-35.0,-1,1.0,
1249,1,0.8,0.125,-35.0,-1,1.0,
1250,1,0.8,0.0625,-35.0,-1,1.0,
1251,1,0.8,1.0,-35.0,-1,1.0,
1252,1,0.8,0.0625,35.0,-1,0.0,
1253,1,0.8,0.25,-35.0,-1,1.0,
1254,1,0.8,1.0,-35.0,-1,1.0,
1255,1,0.8,1.0,-35.0,-1,1.0,
1256,1,0.8,1.0,35.0,-1,0.0,
1257,1,0.8,0.0,-35.0,1,0.0,
1258,1,0.8,1.0,-35.0,-1,1.0,
1259,1,0.8,0.25,35.0,-1,0.0,
1260,1,0.8,0.125,-35.0,-1,1.0,
1261,1,0.8,0.25,-35.0,-1,1.0,
1262,1,0.8,0.25,-35.0,-1,1.0,
1263,1,0.8,0.125,-35.0,-1,1.0,
1264,1,0.8,1.0,-35.0,-1,1.0,
1265,1,0.8,0.0,-35.0,-1,1.0,
1266,1,0.8,1.0,-35.0,-1,1.0,
1267,1,0.8,0.25,35.0,-1,0.0,
1268,1,0.8,1.0,35.0,1,1.0,
1269,1,0.2,1.0,35.0,1,1.0,
1270,1,0.2,0.0625,35.0,-1,0.0,
1271,1,0.2,0.0625,-35.0,-1,1.0,
1272,1,0.2,0.0,35.0,-1,0.0,
1273,1,0.2,0.25,35.0,1,1.0,
1274,1,0.2,0.0,35.0,1,1.0,
1275,1,0.2,1.0,35.0,1,1.0,
1276,1,0.2,0.25,-35.0,1,0.0,
1277,1,0.2,1.0,35.0,1,1.0,
1278,1,0.2,0.25,35.0,1,1.0,
1279,1,0.2,0.0625,35.0,1,1.0,
1280,1,0.2,0.25,35.0,1,1.0,
1281,1,0.2,0.0625,35.0,1,1.0,
1282,1,0.2,0.125,35.0,1,1.0,
1283,1,0.2,0.0625,35.0,1,1.0,
1284,1,0.2,0.125,35.0,1,1.0,
1285,1,0.2,0.0,-35.0,1,0.0,
1286,1,0.2,0.125,35.0,1,1.0,
1287,1,0.2,1.0,35.0,1,1.0,
1288,1,0.2,1.0,35.0,1,1.0,
1289,1,0.2,0.125,-35.0,1,0.0,
1290,1,0.2,0.0625,35.0,1,1.0,
1291,1,0.2,0.25,-35.0,1,0.0,
1292,1,0.2,0.0,35.0,-1,0.0,
1293,1,0.2,1.0,35.0,1,1.0,
1294,1,0.2,0.25,-35.0,-1,1.0,
1295,1,0.2,1.0,35.0,-1,0.0,
1296,1,0.2,1.0,35.0,1,1.0,
1297,1,0.2,0.125,-35.0,-1,1.0,
1298,1,0.2,0.125,35.0,-1,0.0,
1299,1,0.2,0.125,35.0,-1,0.0,
1300,1,0.2,0.25,35.0,1,1.0,
1301,1,0.2,1.0,35.0,1,1.0,
1302,1,0.2,0.25,35.0,1,1.0,
1303,1,0.2,1.0,35.0,1,1.0,
1304,1,0.2,0.25,35.0,1,1.0,
1305,1,0.2,1.0,35.0,1,1.0,
1306,1,0.2,0.125,35.0,1,1.0,
1307,1,0.2,1.0,35.0,1,1.0,
1308,1,0.2,0.0625,35.0,1,1.0,
1309,1,0.2,0.125,35.0,1,1.0,
1310,1,0.2,0.25,35.0,1,1.0,
1311,1,0.2,1.0,35.0,1,1.0,
1312,1,0.2,0.0625,-35.0,1,0.0,
1313,1,0.2,1.0,-35.0,-1,1.0,
1314,1,0.2,0.0625,35.0,1,1.0,
1315,1,0.2,1.0,35.0,1,1.0,
1316,1,0.2,1.0,-35.0,-1,1.0,
1317,1,0.2,0.0625,-35.0,-1,1.0,
1318,1,0.2,1.0,35.0,1,1.0,
1319,1,0.2,0.125,35.0,1,1.0,
1320,1,0.2,0.125,35.0,1,1.0,
1321,1,0.2,0.25,35.0,1,1.0,
1322,1,0.2,0.0625,35.0,1,1.0,
1323,1,0.2,0.125,-35.0,-1,1.0,
1324,1,0.2,0.125,35.0,-1,0.0,
1325,1,0.2,0.25,35.0,1,1.0,
1326,1,0.2,1.0,35.0,1,1.0,
1327,1,0.2,0.125,-35.0,-1,1.0,
1328,1,0.2,0.25,35.0,1,1.0,
1329,1,0.2,1.0,35.0,1,1.0,
1330,1,0.2,0.25,35.0,1,1.0,
1331,1,0.2,0.125,35.0,1,1.0,
1332,1,0.2,0.125,35.0,1,1.0,
1333,1,0.2,1.0,-35.0,-1,1.0,
1334,1,0.2,0.25,35.0,1,1.0,
1335,1,0.2,0.0,35.0,1,1.0,
1336,1,0.2,1.0,35.0,1,1.0,
1337,1,0.2,0.25,-35.0,-1,1.0,
1338,1,0.2,0.0625,35.0,1,1.0,
1339,1,0.2,0.0,35.0,-1,0.0,
1340,1,0.2,0.0625,35.0,-1,0.0,
1341,1,0.2,0.125,35.0,1,1.0,
1342,1,0.2,0.125,35.0,1,1.0,
1343,1,0.2,0.125,35.0,1,1.0,
1344,1,0.2,0.0625,35.0,1,1.0,
1345,1,0.2,1.0,35.0,1,1.0,
1346,1,0.2,0.25,35.0,1,1.0,
1347,1,0.2,0.0625,35.0,1,1.0,
1348,1,0.8,1.0,-35.0,-1,1.0,
1349,1,0.8,0.25,-35.0,-1,1.0,
1350,1,0.8,0.0625,35.0,-1,0.0,
1351,1,0.8,0.0625,-35.0,-1,1.0,
1352,1,0.8,0.125,35.0,-1,0.0,
1353,1,0.8,0.0625,35.0,1,1.0,
1354,1,0.8,0.125,-35.0,1,0.0,
1355,1,0.8,0.0625,-35.0,-1,1.0,
1356,1,0.8,0.0625,-35.0,-1,1.0,
1357,1,0.8,0.25,-35.0,-1,1.0,
1358,1,0.8,1.0,-35.0,-1,1.0,
1359,1,0.8,1.0,-35.0,-1,1.0,
1360,1,0.8,0.25,-35.0,-1,1.0,
1361,1,0.8,0.25,-35.0,-1,1.0,
1362,1,0.8,1.0,-35.0,-1,1.0,
1363,1,0.8,0.25,-35.0,-1,1.0,
1364,1,0.8,0.125,-35.0,-1,1.0,
1365,1,0.8,0.0625,-35.0,-1,1.0,
1366,1,0.8,1.0,-35.0,-1,1.0,
1367,1,0.8,0.0625,-35.0,-1,1.0,
1368,1,0.8,1.0,35.0,-1,0.0,
1369,1,0.8,0.25,35.0,-1,0.0,
1370,1,0.2,0.25,35.0,1,1.0,
1371,1,0.2,0.0,35.0,1,1.0,
1372,1,0.2,0.25,35.0,1,1.0,
1373,1,0.2,1.0,-35.0,-1,1.0,
1374,1,0.2,1.0,35.0,1,1.0,
1375,1,0.2,0.125,35.0,1,1.0,
1376,1,0.2,0.125,35.0,1,1.0,
1377,1,0.2,0.25,-35.0,-1,1.0,
1378,1,0.2,0.125,35.0,1,1.0,
1379,1,0.2,0.0625,35.0,1,1.0,
1380,1,0.2,0.25,35.0,1,1.0,
1381,1,0.2,1.0,-35.0,-1,1.0,
1382,1,0.2,0.25,35.0,1,1.0,
1383,1,0.2,1.0,35.0,1,1.0,
1384,1,0.2,0.0625,35.0,1,1.0,
1385,1,0.2,0.0,35.0,1,1.0,
1386,1,0.2,0.0,35.0,1,1.0,
1387,1,0.2,0.25,35.0,1,1.0,
1388,1,0.2,1.0,35.0,1,1.0,
1389,1,0.2,0.25,35.0,1,1.0,
1390,1,0.2,0.25,35.0,1,1.0,
1391,1,0.2,0.0625,-35.0,-1,1.0,
1392,1,0.2,0.125,35.0,1,1.0,
1393,1,0.2,0.25,35.0,1,1.0,
1394,1,0.2,0.125,35.0,-1,0.0,
1395,1,0.2,1.0,35.0,1,1.0,
1396,1,0.2,0.125,35.0,-1,0.0,
1397,1,0.2,1.0,35.0,1,1.0,
1398,1,0.2,0.125,35.0,1,1.0,
1399,1,0.2,0.0,35.0,1,1.0,
1400,1,0.2,1.0,35.0,1,1.0,
1401,1,0.2,0.0625,35.0,1,1.0,
1402,1,0.2,1.0,35.0,1,1.0,
1403,1,0.2,0.0625,35.0,1,1.0,
1404,1,0.2,1.0,35.0,1,1.0,
1405,1,0.2,0.0,35.0,-1,0.0,
1406,1,0.2,0.0625,-35.0,1,0.0,
1407,1,0.2,0.0625,35.0,-1,0.0,
1408,1,0.2,0.25,-35.0,-1,1.0,
1409,1,0.2,0.0,35.0,-1,0.0,
1410,1,0.2,0.0625,35.0,-1,0.0,
1411,1,0.2,0.25,35.0,1,1.0,
1412,1,0.2,0.25,35.0,1,1.0,
1413,1,0.2,0.25,-35.0,-1,1.0,
1414,1,0.2,0.125,-35.0,-1,1.0,
1415,1,0.2,1.0,35.0,1,1.0,
1416,1,0.2,1.0,35.0,1,1.0,
1417,1,0.2,1.0,35.0,1,1.0,
1418,1,0.2,0.25,35.0,1,1.0,
1419,1,0.2,0.25,35.0,1,1.0,
1420,1,0.2,1.0,-35.0,-1,1.0,
1421,1,0.2,0.0625,35.0,1,1.0,
1422,1,0.2,1.0,35.0,1,1.0,
1423,1,0.2,0.125,-35.0,-1,1.0,
1424,1,0.2,0.25,35.0,1,1.0,
1425,1,0.2,0.125,35.0,-1,0.0,
1426,1,0.2,0.0625,35.0,1,1.0,
1427,1,0.2,1.0,35.0,1,1.0,
1428,1,0.2,0.25,-35.0,-1,1.0,
1429,1,0.2,0.0625,35.0,1,1.0,
1430,1,0.2,0.125,35.0,-1,0.0,
1431,1,0.2,0.25,35.0,1,1.0,
1432,1,0.2,1.0,35.0,1,1.0,
1433,1,0.2,0.0625,35.0,1,1.0,
1434,1,0.2,0.25,35.0,1,1.0,
1435,1,0.2,0.25,35.0,1,1.0,
1436,1,0.2,0.125,35.0,-1,0.0,
1437,1,0.2,0.125,35.0,1,1.0,
1438,1,0.2,1.0,35.0,1,1.0,
1439,1,0.2,0.25,35.0,1,1.0,
1440,1,0.2,0.0625,35.0,1,1.0,
1441,1,0.2,0.125,-35.0,-1,1.0,
1442,1,0.2,1.0,35.0,1,1.0,
1443,1,0.2,0.0,35.0,1,1.0,
1444,1,0.2,0.0,35.0,1,1.0,
1445,1,0.2,0.25,35.0,1,1.0,
1446,1,0.2,1.0,35.0,1,1.0,
1447,1,0.2,0.25,-35.0,-1,1.0,
1448,1,0.2,1.0,35.0,1,1.0,
1449,1,0.8,0.0,-35.0,1,0.0,
1450,1,0.8,0.125,-35.0,-1,1.0,
1451,1,0.8,0.25,-35.0,-1,1.0,
1452,1,0.8,0.125,-35.0,-1,1.0,
1453,1,0.8,0.125,-35.0,-1,1.0,
1454,1,0.8,1.0,35.0,1,1.0,
1455,1,0.8,0.125,35.0,1,1.0,
1456,1,0.8,0.0625,-35.0,1,0.0,
1457,1,0.8,0.0625,35.0,-1,0.0,
1458,1,0.8,1.0,-35.0,-1,1.0,
1459,1,0.8,0.0625,-35.0,-1,1.0,
1460,1,0.8,0.0625,-35.0,-1,1.0,
1461,1,0.8,1.0,35.0,1,1.0,
1462,1,0.8,1.0,-35.0,-1,1.0,
1463,1,0.8,0.0,-35.0,1,0.0,
1464,1,0.8,1.0,-35.0,-1,1.0,
1465,1,0.8,1.0,-35.0,-1,1.0,
1466,1,0.8,0.0625,-35.0,-1,1.0,
1467,1,0.8,0.125,35.0,-1,0.0,
1468,1,0.8,0.25,-35.0,-1,1.0,
1469,1,0.2,0.25,35.0,-1,0.0,
1470,1,0.2,0.125,35.0,-1,0.0,
1471,1,0.2,0.125,-35.0,-1,1.0,
1472,1,0.2,1.0,35.0,-1,0.0,
1473,1,0.2,0.25,35.0,-1,0.0,
1474,1,0.2,0.25,-35.0,-1,1.0,
1475,1,0.2,1.0,35.0,1,1.0,
1476,1,0.2,1.0,35.0,1,1.0,
1477,1,0.2,0.25,-35.0,-1,1.0,
1478,1,0.2,0.0,35.0,-1,0.0,
1479,1,0.2,0.0625,35.0,-1,0.0,
1480,1,0.2,0.0,35.0,-1,0.0,
1481,1,0.2,1.0,35.0,-1,0.0,
1482,1,0.2,0.0625,35.0,1,1.0,
1,2,0.5,0.125,-35.0,-1,1.0,
2,2,0.5,0.25,35.0,1,1.0,
3,2,0.5,0.125,35.0,1,1.0,
4,2,0.5,1.0,35.0,1,1.0,
5,2,0.5,0.25,-35.0,-1,1.0,
6,2,0.5,0.0625,-35.0,-1,1.0,
7,2,0.5,0.0,-35.0,-1,1.0,
8,2,0.5,1.0,-35.0,-1,1.0,
9,2,0.5,0.25,-35.0,-1,1.0,
10,2,0.5,1.0,35.0,1,1.0,
11,2,0.5,0.125,35.0,1,1.0,
12,2,0.5,1.0,35.0,-1,0.0,
13,2,0.5,0.125,35.0,-1,0.0,
14,2,0.5,0.125,35.0,1,1.0,
15,2,0.5,0.0,35.0,1,1.0,
16,2,0.5,0.0,-35.0,-1,1.0,
17,2,0.5,0.0625,35.0,-1,0.0,
18,2,0.5,0.0625,-35.0,-1,1.0,
19,2,0.5,0.0625,-35.0,-1,1.0,
20,2,0.5,0.0625,-35.0,-1,1.0,
21,2,0.5,0.125,35.0,-1,0.0,
22,2,0.5,0.25,-35.0,-1,1.0,
23,2,0.5,0.25,35.0,-1,0.0,
24,2,0.5,0.0,35.0,-1,0.0,
25,2,0.5,0.0625,35.0,-1,0.0,
26,2,0.5,0.125,35.0,-1,0.0,
27,2,0.5,0.25,35.0,1,1.0,
28,2,0.5,0.125,35.0,1,1.0,
29,2,0.5,0.25,35.0,-1,0.0,
30,2,0.5,0.0,-35.0,-1,1.0,
31,2,0.5,0.0,35.0,-1,0.0,
32,2,0.5,0.0625,35.0,-1,0.0,
33,2,0.5,1.0,35.0,1,1.0,
34,2,0.5,1.0,-35.0,-1,1.0,
35,2,0.5,0.125,-35.0,-1,1.0,
36,2,0.5,0.25,-35.0,-1,1.0,
37,2,0.5,0.125,-35.0,-1,1.0,
38,2,0.5,1.0,-35.0,-1,1.0,
39,2,0.5,0.0625,35.0,-1,0.0,
40,2,0.5,1.0,-35.0,-1,1.0,
41,2,0.5,0.0625,-35.0,-1,1.0,
42,2,0.5,0.125,-35.0,-1,1.0,
43,2,0.5,0.0625,-35.0,-1,1.0,
44,2,0.5,0.0625,35.0,-1,0.0,
45,2,0.5,1.0,-35.0,-1,1.0,
46,2,0.5,1.0,35.0,1,1.0,
47,2,0.5,0.25,35.0,-1,0.0,
48,2,0.5,0.125,-35.0,-1,1.0,
49,2,0.5,1.0,-35.0,-1,1.0,
50,2,0.5,0.125,-35.0,-1,1.0,
51,2,0.5,0.125,35.0,-1,0.0,
52,2,0.5,1.0,-35.0,-1,1.0,
53,2,0.5,1.0,-35.0,-1,1.0,
54,2,0.5,0.0,35.0,-1,0.0,
55,2,0.5,0.25,35.0,-1,0.0,
56,2,0.5,0.125,-35.0,-1,1.0,
57,2,0.5,0.0,-35.0,-1,1.0,
58,2,0.5,1.0,-35.0,-1,1.0,
59,2,0.5,0.125,-35.0,-1,1.0,
60,2,0.5,0.125,35.0,-1,0.0,
61,2,0.5,0.0625,-35.0,-1,1.0,
62,2,0.5,0.25,-35.0,-1,1.0,
63,2,0.5,0.125,35.0,-1,0.0,
64,2,0.5,0.0,35.0,-1,0.0,
65,2,0.5,0.25,-35.0,-1,1.0,
66,2,0.5,0.125,-35.0,-1,1.0,
67,2,0.5,0.125,35.0,-1,0.0,
68,2,0.5,1.0,-35.0,-1,1.0,
69,2,0.5,1.0,35.0,1,1.0,
70,2,0.5,0.0625,-35.0,-1,1.0,
71,2,0.5,0.0,35.0,-1,0.0,
72,2,0.5,0.25,35.0,1,1.0,
73,2,0.5,0.0625,-35.0,-1,1.0,
74,2,0.5,1.0,-35.0,-1,1.0,
75,2,0.5,0.0,-35.0,-1,1.0,
76,2,0.5,1.0,35.0,1,1.0,
77,2,0.5,0.25,-35.0,-1,1.0,
78,2,0.5,1.0,35.0,-1,0.0,
79,2,0.5,0.125,-35.0,-1,1.0,
80,2,0.5,0.25,35.0,-1,0.0,
81,2,0.5,0.0625,-35.0,-1,1.0,
82,2,0.5,0.0,35.0,1,1.0,
83,2,0.5,1.0,35.0,1,1.0,
84,2,0.5,0.125,-35.0,-1,1.0,
85,2,0.5,0.25,35.0,-1,0.0,
86,2,0.5,0.25,35.0,-1,0.0,
87,2,0.5,0.125,35.0,-1,0.0,
88,2,0.5,0.125,-35.0,-1,1.0,
89,2,0.5,0.0625,35.0,-1,0.0,
90,2,0.5,0.25,35.0,-1,0.0,
91,2,0.2,0.25,35.0,1,1.0,
92,2,0.2,0.125,-35.0,-1,1.0,
93,2,0.2,0.0625,35.0,-1,0.0,
94,2,0.2,0.0,-35.0,-1,1.0,
95,2,0.2,0.125,35.0,-1,0.0,
96,2,0.2,0.0,35.0,-1,0.0,
97,2,0.2,0.0625,-35.0,-1,1.0,
98,2,0.2,1.0,35.0,1,1.0,
99,2,0.2,1.0,35.0,1,1.0,
100,2,0.2,0.25,35.0,-1,0.0,
101,2,0.2,0.125,35.0,-1,0.0,
102,2,0.2,1.0,35.0,1,1.0,
103,2,0.2,1.0,35.0,1,1.0,
104,2,0.2,0.0625,35.0,1,1.0,
105,2,0.2,1.0,35.0,1,1.0,
106,2,0.2,0.125,-35.0,-1,1.0,
107,2,0.2,1.0,35.0,1,1.0,
108,2,0.2,0.0,35.0,-1,0.0,
109,2,0.2,1.0,35.0,-1,0.0,
110,2,0.2,0.25,35.0,-1,0.0,
111,2,0.2,1.0,35.0,1,1.0,
112,2,0.2,0.0625,35.0,1,1.0,
113,2,0.2,0.0625,-35.0,-1,1.0,
114,2,0.2,0.0625,35.0,-1,0.0,
115,2,0.2,0.0625,-35.0,-1,1.0,
116,2,0.2,0.125,-35.0,-1,1.0,
117,2,0.2,0.125,35.0,-1,0.0,
118,2,0.2,0.0,-35.0,-1,1.0,
119,2,0.2,0.125,35.0,-1,0.0,
120,2,0.2,0.125,35.0,-1,0.0,
121,2,0.2,1.0,35.0,1,1.0,
122,2,0.2,0.25,35.0,-1,0.0,
123,2,0.2,0.25,35.0,-1,0.0,
124,2,0.2,1.0,35.0,-1,0.0,
125,2,0.2,1.0,35.0,1,1.0,
126,2,0.2,0.25,35.0,-1,0.0,
127,2,0.2,1.0,35.0,1,1.0,
128,2,0.2,0.0625,-35.0,-1,1.0,
129,2,0.2,0.0,35.0,-1,0.0,
130,2,0.2,0.0,-35.0,1,0.0,
131,2,0.2,0.0625,35.0,1,1.0,
132,2,0.2,1.0,35.0,-1,0.0,
133,2,0.2,0.25,35.0,-1,0.0,
134,2,0.2,0.25,35.0,1,1.0,
135,2,0.2,1.0,-35.0,-1,1.0,
136,2,0.2,1.0,-35.0,-1,1.0,
137,2,0.2,0.0,-35.0,-1,1.0,
138,2,0.2,0.25,35.0,-1,0.0,
139,2,0.2,1.0,35.0,-1,0.0,
140,2,0.2,1.0,35.0,1,1.0,
141,2,0.2,1.0,-35.0,-1,1.0,
142,2,0.2,0.25,35.0,-1,0.0,
143,2,0.2,0.0625,35.0,-1,0.0,
144,2,0.2,0.25,35.0,-1,0.0,
145,2,0.2,0.25,35.0,-1,0.0,
146,2,0.2,1.0,35.0,1,1.0,
147,2,0.2,0.0,35.0,-1,0.0,
148,2,0.2,0.125,-35.0,-1,1.0,
149,2,0.2,1.0,35.0,1,1.0,
150,2,0.2,0.25,-35.0,-1,1.0,
151,2,0.2,1.0,35.0,1,1.0,
152,2,0.2,0.125,35.0,-1,0.0,
153,2,0.2,0.0625,35.0,-1,0.0,
154,2,0.2,0.0625,35.0,-1,0.0,
155,2,0.2,0.25,35.0,1,1.0,
156,2,0.2,0.0,35.0,1,1.0,
157,2,0.2,0.125,35.0,-1,0.0,
158,2,0.2,0.125,35.0,-1,0.0,
159,2,0.2,0.25,35.0,1,1.0,
160,2,0.2,0.125,35.0,1,1.0,
161,2,0.2,0.25,35.0,1,1.0,
162,2,0.2,0.25,35.0,1,1.0,
163,2,0.2,0.125,35.0,-1,0.0,
164,2,0.2,1.0,35.0,-1,0.0,
165,2,0.2,1.0,35.0,-1,0.0,
166,2,0.2,0.25,35.0,-1,0.0,
167,2,0.2,0.125,35.0,-1,0.0,
168,2,0.2,0.0625,-35.0,-1,1.0,
169,2,0.2,1.0,35.0,1,1.0,
170,2,0.2,0.125,35.0,-1,0.0,
171,2,0.2,1.0,-35.0,-1,1.0,
172,2,0.2,0.0,35.0,-1,0.0,
173,2,0.2,0.0625,35.0,1,1.0,
174,2,0.2,0.25,35.0,1,1.0,
175,2,0.2,0.0625,35.0,-1,0.0,
176,2,0.2,0.0625,35.0,-1,0.0,
177,2,0.2,0.125,35.0,1,1.0,
178,2,0.2,0.25,35.0,1,1.0,
179,2,0.2,1.0,35.0,1,1.0,
180,2,0.2,0.125,35.0,-1,0.0,
181,2,0.2,0.125,35.0,-1,0.0,
182,2,0.2,1.0,35.0,-1,0.0,
183,2,0.8,0.0625,-35.0,-1,1.0,
184,2,0.8,0.0625,-35.0,-1,1.0,
185,2,0.8,1.0,-35.0,-1,1.0,
186,2,0.8,0.0625,-35.0,-1,1.0,
187,2,0.8,1.0,-35.0,-1,1.0,
188,2,0.8,0.0625,35.0,-1,0.0,
189,2,0.8,1.0,-35.0,-1,1.0,
190,2,0.8,0.25,-35.0,-1,1.0,
191,2,0.8,1.0,-35.0,-1,1.0,
192,2,0.8,0.25,-35.0,-1,1.0,
193,2,0.8,1.0,-35.0,-1,1.0,
194,2,0.8,0.0,-35.0,-1,1.0,
195,2,0.8,0.25,35.0,-1,0.0,
196,2,0.8,1.0,-35.0,-1,1.0,
197,2,0.8,1.0,-35.0,-1,1.0,
198,2,0.8,0.0,-35.0,-1,1.0,
199,2,0.8,0.25,-35.0,-1,1.0,
200,2,0.8,1.0,-35.0,-1,1.0,
201,2,0.8,0.125,-35.0,-1,1.0,
202,2,0.8,0.0625,-35.0,-1,1.0,
203,2,0.8,0.25,-35.0,-1,1.0,
204,2,0.8,0.0,-35.0,-1,1.0,
205,2,0.8,0.0625,-35.0,-1,1.0,
206,2,0.8,0.25,35.0,-1,0.0,
207,2,0.8,0.0625,35.0,-1,0.0,
208,2,0.8,0.0625,-35.0,-1,1.0,
209,2,0.8,1.0,35.0,1,1.0,
210,2,0.8,0.25,-35.0,-1,1.0,
211,2,0.2,0.0625,35.0,-1,0.0,
212,2,0.2,1.0,35.0,-1,0.0,
213,2,0.2,0.0625,-35.0,-1,1.0,
214,2,0.2,0.0625,35.0,-1,0.0,
215,2,0.2,0.125,35.0,-1,0.0,
216,2,0.2,0.0625,35.0,-1,0.0,
217,2,0.2,0.25,35.0,-1,0.0,
218,2,0.2,0.25,35.0,1,1.0,
219,2,0.2,0.0625,35.0,-1,0.0,
220,2,0.2,0.0625,35.0,-1,0.0,
221,2,0.2,1.0,35.0,1,1.0,
222,2,0.2,0.25,-35.0,-1,1.0,
223,2,0.2,0.125,35.0,-1,0.0,
224,2,0.2,0.0,35.0,-1,0.0,
225,2,0.2,1.0,35.0,1,1.0,
226,2,0.2,1.0,35.0,1,1.0,
227,2,0.2,1.0,35.0,1,1.0,
228,2,0.2,0.0625,35.0,-1,0.0,
229,2,0.2,0.0625,35.0,-1,0.0,
230,2,0.2,1.0,35.0,1,1.0,
231,2,0.2,1.0,35.0,1,1.0,
232,2,0.2,0.0,35.0,1,1.0,
233,2,0.2,1.0,35.0,1,1.0,
234,2,0.2,0.25,35.0,-1,0.0,
235,2,0.2,0.125,35.0,1,1.0,
236,2,0.2,0.25,35.0,1,1.0,
237,2,0.2,1.0,-35.0,-1,1.0,
238,2,0.8,0.25,-35.0,-1,1.0,
239,2,0.8,1.0,-35.0,-1,1.0,
240,2,0.8,0.25,35.0,-1,0.0,
241,2,0.8,0.25,-35.0,-1,1.0,
242,2,0.8,0.125,-35.0,-1,1.0,
243,2,0.8,0.0,-35.0,-1,1.0,
244,2,0.8,0.0625,-35.0,-1,1.0,
245,2,0.8,0.25,35.0,-1,0.0,
246,2,0.8,0.25,35.0,-1,0.0,
247,2,0.8,1.0,35.0,1,1.0,
248,2,0.8,0.125,-35.0,-1,1.0,
249,2,0.8,0.0,-35.0,-1,1.0,
250,2,0.8,1.0,-35.0,-1,1.0,
251,2,0.8,0.125,-35.0,-1,1.0,
252,2,0.8,1.0,-35.0,-1,1.0,
253,2,0.8,0.0,-35.0,-1,1.0,
254,2,0.8,0.0625,35.0,-1,0.0,
255,2,0.8,1.0,-35.0,-1,1.0,
256,2,0.8,0.0625,-35.0,-1,1.0,
257,2,0.8,0.0625,-35.0,-1,1.0,
258,2,0.8,0.0625,35.0,-1,0.0,
259,2,0.8,0.0,-35.0,-1,1.0,
260,2,0.8,0.0625,-35.0,-1,1.0,
261,2,0.8,0.25,-35.0,-1,1.0,
262,2,0.8,1.0,-35.0,-1,1.0,
263,2,0.8,0.0625,-35.0,-1,1.0,
264,2,0.8,0.125,-35.0,-1,1.0,
265,2,0.8,0.125,-35.0,-1,1.0,
266,2,0.8,0.25,-35.0,-1,1.0,
267,2,0.8,0.125,-35.0,-1,1.0,
268,2,0.8,0.0625,-35.0,-1,1.0,
269,2,0.8,1.0,35.0,-1,0.0,
270,2,0.8,0.0625,-35.0,-1,1.0,
271,2,0.8,0.125,-35.0,-1,1.0,
272,2,0.8,0.0625,-35.0,-1,1.0,
273,2,0.8,1.0,-35.0,-1,1.0,
274,2,0.8,0.125,-35.0,-1,1.0,
275,2,0.8,0.125,-35.0,-1,1.0,
276,2,0.8,0.0625,-35.0,-1,1.0,
277,2,0.8,1.0,35.0,-1,0.0,
278,2,0.8,0.0625,35.0,-1,0.0,
279,2,0.2,0.25,35.0,-1,0.0,
280,2,0.2,1.0,35.0,1,1.0,
281,2,0.2,0.25,35.0,-1,0.0,
282,2,0.2,1.0,-35.0,-1,1.0,
283,2,0.2,0.0625,35.0,-1,0.0,
284,2,0.2,0.125,35.0,1,1.0,
285,2,0.2,0.25,35.0,1,1.0,
286,2,0.2,1.0,35.0,-1,0.0,
287,2,0.2,0.125,35.0,-1,0.0,
288,2,0.2,1.0,35.0,1,1.0,
289,2,0.2,1.0,35.0,1,1.0,
290,2,0.2,0.125,35.0,-1,0.0,
291,2,0.2,0.125,35.0,-1,0.0,
292,2,0.2,0.125,35.0,1,1.0,
293,2,0.2,1.0,-35.0,-1,1.0,
294,2,0.2,1.0,35.0,1,1.0,
295,2,0.2,0.125,35.0,-1,0.0,
296,2,0.2,1.0,35.0,1,1.0,
297,2,0.2,0.0,35.0,1,1.0,
298,2,0.2,1.0,35.0,1,1.0,
299,2,0.2,0.0,35.0,1,1.0,
300,2,0.2,0.0625,35.0,1,1.0,
301,2,0.2,0.25,35.0,1,1.0,
302,2,0.2,0.125,-35.0,-1,1.0,
303,2,0.2,0.0625,-35.0,-1,1.0,
304,2,0.2,0.0,35.0,-1,0.0,
305,2,0.2,0.25,35.0,1,1.0,
306,2,0.2,0.0625,35.0,1,1.0,
307,2,0.2,0.25,35.0,-1,0.0,
308,2,0.2,0.0625,35.0,-1,0.0,
309,2,0.2,0.0,35.0,1,1.0,
310,2,0.2,0.125,-35.0,-1,1.0,
311,2,0.2,0.0,35.0,1,1.0,
312,2,0.2,0.125,35.0,1,1.0,
313,2,0.2,0.0,35.0,1,1.0,
314,2,0.2,0.25,-35.0,-1,1.0,
315,2,0.2,1.0,35.0,1,1.0,
316,2,0.2,0.0625,-35.0,-1,1.0,
317,2,0.2,0.125,35.0,-1,0.0,
318,2,0.2,0.25,35.0,-1,0.0,
319,2,0.2,0.0625,35.0,-1,0.0,
320,2,0.2,0.25,35.0,-1,0.0,
321,2,0.2,0.25,35.0,-1,0.0,
322,2,0.2,0.125,35.0,1,1.0,
323,2,0.2,0.25,35.0,1,1.0,
324,2,0.2,1.0,35.0,1,1.0,
325,2,0.2,0.0625,-35.0,-1,1.0,
326,2,0.2,1.0,35.0,1,1.0,
327,2,0.2,0.25,35.0,1,1.0,
328,2,0.8,0.0625,-35.0,-1,1.0,
329,2,0.8,0.0625,-35.0,-1,1.0,
330,2,0.8,0.0625,-35.0,-1,1.0,
331,2,0.8,0.0625,-35.0,-1,1.0,
332,2,0.8,0.0,-35.0,-1,1.0,
333,2,0.8,1.0,-35.0,-1,1.0,
334,2,0.8,0.125,-35.0,-1,1.0,
335,2,0.8,0.0,35.0,-1,0.0,
336,2,0.8,0.0625,-35.0,-1,1.0,
337,2,0.8,0.25,-35.0,-1,1.0,
338,2,0.8,0.125,-35.0,-1,1.0,
339,2,0.8,0.0,-35.0,-1,1.0,
340,2,0.8,0.0625,-35.0,-1,1.0,
341,2,0.8,0.125,-35.0,-1,1.0,
342,2,0.8,0.25,-35.0,-1,1.0,
343,2,0.8,0.25,-35.0,-1,1.0,
344,2,0.8,1.0,-35.0,-1,1.0,
345,2,0.8,0.125,35.0,-1,0.0,
346,2,0.8,0.0,35.0,-1,0.0,
347,2,0.8,0.0625,-35.0,-1,1.0,
348,2,0.8,0.0625,-35.0,-1,1.0,
349,2,0.8,0.125,-35.0,-1,1.0,
350,2,0.8,1.0,-35.0,-1,1.0,
351,2,0.8,0.25,-35.0,-1,1.0,
352,2,0.8,1.0,-35.0,-1,1.0,
353,2,0.8,1.0,-35.0,-1,1.0,
354,2,0.8,0.0625,-35.0,-1,1.0,
355,2,0.8,0.0625,-35.0,-1,1.0,
356,2,0.8,0.25,-35.0,-1,1.0,
357,2,0.8,0.25,-35.0,-1,1.0,
358,2,0.8,0.0625,-35.0,-1,1.0,
359,2,0.8,0.125,35.0,-1,0.0,
360,2,0.8,1.0,-35.0,-1,1.0,
361,2,0.8,0.25,-35.0,-1,1.0,
362,2,0.8,0.125,-35.0,-1,1.0,
363,2,0.8,0.125,-35.0,-1,1.0,
364,2,0.8,0.125,35.0,-1,0.0,
365,2,0.8,0.0625,-35.0,-1,1.0,
366,2,0.8,0.125,-35.0,-1,1.0,
367,2,0.8,0.125,-35.0,-1,1.0,
368,2,0.8,0.25,-35.0,-1,1.0,
369,2,0.8,0.0625,35.0,-1,0.0,
370,2,0.8,1.0,-35.0,-1,1.0,
371,2,0.8,0.125,35.0,-1,0.0,
372,2,0.8,0.0625,-35.0,-1,1.0,
373,2,0.8,1.0,-35.0,-1,1.0,
374,2,0.8,0.25,-35.0,-1,1.0,
375,2,0.8,0.0625,-35.0,-1,1.0,
376,2,0.2,0.0625,35.0,-1,0.0,
377,2,0.2,0.125,35.0,-1,0.0,
378,2,0.2,0.25,35.0,1,1.0,
379,2,0.2,0.125,-35.0,-1,1.0,
380,2,0.2,0.25,35.0,1,1.0,
381,2,0.2,0.125,35.0,1,1.0,
382,2,0.2,1.0,35.0,1,1.0,
383,2,0.2,0.25,-35.0,-1,1.0,
384,2,0.2,0.25,35.0,-1,0.0,
385,2,0.2,1.0,35.0,1,1.0,
386,2,0.2,0.25,35.0,1,1.0,
387,2,0.2,0.25,-35.0,-1,1.0,
388,2,0.2,0.25,35.0,1,1.0,
389,2,0.2,0.0625,35.0,1,1.0,
390,2,0.2,0.125,35.0,1,1.0,
391,2,0.2,0.0,35.0,1,1.0,
392,2,0.2,1.0,35.0,1,1.0,
393,2,0.2,0.125,35.0,1,1.0,
394,2,0.2,0.25,35.0,1,1.0,
395,2,0.2,0.25,35.0,1,1.0,
396,2,0.2,0.25,35.0,1,1.0,
397,2,0.2,1.0,35.0,1,1.0,
398,2,0.2,0.0,35.0,-1,0.0,
399,2,0.2,1.0,35.0,1,1.0,
400,2,0.2,0.125,35.0,1,1.0,
401,2,0.2,0.125,35.0,1,1.0,
402,2,0.2,0.125,35.0,1,1.0,
403,2,0.2,0.25,35.0,1,1.0,
404,2,0.2,0.0,-35.0,1,0.0,
405,2,0.2,1.0,35.0,1,1.0,
406,2,0.2,0.25,35.0,1,1.0,
407,2,0.2,0.25,35.0,1,1.0,
408,2,0.2,0.125,35.0,1,1.0,
409,2,0.2,0.25,-35.0,1,0.0,
410,2,0.2,0.25,-35.0,-1,1.0,
411,2,0.2,1.0,35.0,1,1.0,
412,2,0.2,0.25,35.0,1,1.0,
413,2,0.2,0.25,35.0,1,1.0,
414,2,0.2,0.0,35.0,1,1.0,
415,2,0.2,1.0,35.0,1,1.0,
416,2,0.2,1.0,35.0,1,1.0,
417,2,0.2,1.0,35.0,1,1.0,
418,2,0.2,1.0,35.0,1,1.0,
419,2,0.2,1.0,35.0,1,1.0,
420,2,0.2,1.0,35.0,1,1.0,
421,2,0.2,0.0625,-35.0,1,0.0,
422,2,0.2,0.0625,-35.0,1,0.0,
423,2,0.2,1.0,35.0,1,1.0,
424,2,0.2,0.25,35.0,1,1.0,
425,2,0.2,1.0,35.0,1,1.0,
426,2,0.2,1.0,35.0,1,1.0,
427,2,0.2,0.0625,35.0,1,1.0,
428,2,0.2,1.0,35.0,1,1.0,
429,2,0.2,0.25,35.0,1,1.0,
430,2,0.2,0.125,35.0,1,1.0,
431,2,0.2,0.125,35.0,1,1.0,
432,2,0.2,1.0,35.0,1,1.0,
433,2,0.2,1.0,35.0,1,1.0,
434,2,0.2,1.0,35.0,1,1.0,
435,2,0.2,0.125,35.0,1,1.0,
436,2,0.2,0.0,35.0,1,1.0,
437,2,0.2,0.25,35.0,1,1.0,
438,2,0.2,0.0625,35.0,1,1.0,
439,2,0.2,0.25,-35.0,-1,1.0,
440,2,0.2,0.125,-35.0,-1,1.0,
441,2,0.8,0.25,-35.0,-1,1.0,
442,2,0.8,0.25,-35.0,-1,1.0,
443,2,0.8,0.25,-35.0,-1,1.0,
444,2,0.8,1.0,-35.0,-1,1.0,
445,2,0.8,0.25,35.0,1,1.0,
446,2,0.8,1.0,-35.0,-1,1.0,
447,2,0.8,1.0,-35.0,-1,1.0,
448,2,0.8,0.0625,-35.0,-1,1.0,
449,2,0.8,0.0625,-35.0,-1,1.0,
450,2,0.8,1.0,-35.0,-1,1.0,
451,2,0.8,0.125,-35.0,-1,1.0,
452,2,0.8,0.25,-35.0,-1,1.0,
453,2,0.8,0.25,-35.0,-1,1.0,
454,2,0.8,0.125,-35.0,-1,1.0,
455,2,0.8,0.125,-35.0,-1,1.0,
456,2,0.8,0.25,-35.0,-1,1.0,
457,2,0.8,0.125,-35.0,-1,1.0,
458,2,0.8,1.0,35.0,1,1.0,
459,2,0.8,1.0,-35.0,-1,1.0,
460,2,0.8,0.125,-35.0,-1,1.0,
461,2,0.8,0.25,-35.0,-1,1.0,
462,2,0.8,0.125,35.0,-1,0.0,
463,2,0.8,1.0,-35.0,-1,1.0,
464,2,0.2,0.0625,35.0,-1,0.0,
465,2,0.2,0.0625,35.0,-1,0.0,
466,2,0.2,1.0,35.0,1,1.0,
467,2,0.2,0.0,35.0,-1,0.0,
468,2,0.2,0.125,35.0,-1,0.0,
469,2,0.2,1.0,35.0,1,1.0,
470,2,0.2,0.125,-35.0,-1,1.0,
471,2,0.2,1.0,35.0,1,1.0,
472,2,0.2,0.0625,35.0,-1,0.0,
473,2,0.2,0.125,35.0,1,1.0,
474,2,0.2,0.0625,35.0,1,1.0,
475,2,0.2,0.0625,35.0,1,1.0,
476,2,0.2,0.125,35.0,1,1.0,
477,2,0.2,0.125,35.0,1,1.0,
478,2,0.2,0.0625,35.0,1,1.0,
479,2,0.2,0.25,35.0,-1,0.0,
480,2,0.2,1.0,35.0,1,1.0,
481,2,0.2,0.125,35.0,1,1.0,
482,2,0.2,0.25,35.0,-1,0.0,
483,2,0.2,1.0,35.0,1,1.0,
484,2,0.2,1.0,35.0,1,1.0,
485,2,0.2,0.25,-35.0,-1,1.0,
486,2,0.2,0.125,35.0,-1,0.0,
487,2,0.2,0.25,35.0,-1,0.0,
488,2,0.2,0.25,35.0,1,1.0,
489,2,0.2,1.0,35.0,1,1.0,
490,2,0.2,0.125,-35.0,-1,1.0,
491,2,0.2,0.25,35.0,1,1.0,
492,2,0.2,0.0,35.0,-1,0.0,
493,2,0.2,1.0,35.0,1,1.0,
494,2,0.2,0.0625,35.0,1,1.0,
495,2,0.2,0.0625,35.0,-1,0.0,
496,2,0.2,0.25,-35.0,-1,1.0,
497,2,0.2,0.25,35.0,-1,0.0,
498,2,0.2,1.0,35.0,1,1.0,
499,2,0.2,0.25,35.0,1,1.0,
500,2,0.2,0.25,35.0,1,1.0,
501,2,0.2,0.0625,-35.0,-1,1.0,
502,2,0.2,0.125,35.0,-1,0.0,
503,2,0.2,0.25,35.0,1,1.0,
504,2,0.2,0.125,-35.0,-1,1.0,
505,2,0.2,0.125,35.0,1,1.0,
506,2,0.2,0.125,35.0,1,1.0,
507,2,0.2,0.25,35.0,-1,0.0,
508,2,0.2,0.0625,35.0,-1,0.0,
509,2,0.2,0.25,35.0,1,1.0,
510,2,0.2,0.0625,35.0,-1,0.0,
511,2,0.2,0.25,35.0,-1,0.0,
512,2,0.2,0.25,35.0,-1,0.0,
513,2,0.2,0.125,35.0,-1,0.0,
514,2,0.2,0.0625,35.0,-1,0.0,
515,2,0.2,0.125,35.0,-1,0.0,
516,2,0.2,1.0,-35.0,-1,1.0,
517,2,0.2,1.0,-35.0,-1,1.0,
518,2,0.2,0.125,35.0,-1,0.0,
519,2,0.2,0.25,35.0,-1,0.0,
520,2,0.2,0.25,35.0,1,1.0,
521,2,0.2,0.125,35.0,-1,0.0,
522,2,0.2,0.0625,35.0,-1,0.0,
523,2,0.2,0.0625,-35.0,-1,1.0,
524,2,0.2,1.0,35.0,-1,0.0,
525,2,0.2,0.125,35.0,-1,0.0,
526,2,0.2,1.0,35.0,-1,0.0,
527,2,0.2,0.0625,-35.0,-1,1.0,
528,2,0.2,1.0,35.0,-1,0.0,
529,2,0.2,0.0625,35.0,-1,0.0,
530,2,0.2,0.0,35.0,-1,0.0,
531,2,0.2,0.0,35.0,-1,0.0,
532,2,0.2,1.0,35.0,-1,0.0,
533,2,0.2,0.0625,35.0,-1,0.0,
534,2,0.2,0.25,35.0,-1,0.0,
535,2,0.2,0.125,35.0,-1,0.0,
536,2,0.8,0.25,-35.0,-1,1.0,
537,2,0.8,0.25,-35.0,-1,1.0,
538,2,0.8,0.0625,-35.0,-1,1.0,
539,2,0.8,0.0625,-35.0,-1,1.0,
540,2,0.8,0.0625,-35.0,-1,1.0,
541,2,0.8,0.125,-35.0,-1,1.0,
542,2,0.8,0.25,-35.0,-1,1.0,
543,2,0.8,0.25,-35.0,-1,1.0,
544,2,0.8,0.125,-35.0,-1,1.0,
545,2,0.8,0.0,-35.0,-1,1.0,
546,2,0.8,0.25,-35.0,-1,1.0,
547,2,0.8,0.25,-35.0,-1,1.0,
548,2,0.8,0.125,35.0,-1,0.0,
549,2,0.8,0.125,-35.0,-1,1.0,
550,2,0.8,0.25,-35.0,-1,1.0,
551,2,0.8,0.25,-35.0,-1,1.0,
552,2,0.8,0.0,-35.0,-1,1.0,
553,2,0.8,0.125,-35.0,-1,1.0,
554,2,0.8,0.0625,-35.0,-1,1.0,
555,2,0.8,0.0625,35.0,-1,0.0,
556,2,0.8,0.125,35.0,-1,0.0,
557,2,0.8,0.25,-35.0,-1,1.0,
558,2,0.8,0.125,35.0,-1,0.0,
559,2,0.8,0.0,-35.0,-1,1.0,
560,2,0.8,0.25,-35.0,-1,1.0,
561,2,0.8,0.125,-35.0,-1,1.0,
562,2,0.8,1.0,-35.0,-1,1.0,
563,2,0.8,0.125,-35.0,-1,1.0,
564,2,0.8,0.0625,35.0,-1,0.0,
565,2,0.8,0.0625,-35.0,-1,1.0,
566,2,0.8,0.0625,-35.0,-1,1.0,
567,2,0.8,0.25,35.0,-1,0.0,
568,2,0.8,1.0,-35.0,-1,1.0,
569,2,0.8,0.25,-35.0,-1,1.0,
570,2,0.8,0.25,-35.0,-1,1.0,
571,2,0.8,0.0625,-35.0,-1,1.0,
572,2,0.8,0.0625,-35.0,-1,1.0,
573,2,0.8,0.0,-35.0,-1,1.0,
574,2,0.8,0.125,-35.0,-1,1.0,
575,2,0.8,0.0,-35.0,-1,1.0,
576,2,0.8,0.125,-35.0,-1,1.0,
577,2,0.8,0.25,-35.0,-1,1.0,
578,2,0.8,1.0,-35.0,-1,1.0,
579,2,0.8,0.0625,-35.0,-1,1.0,
580,2,0.8,0.0625,-35.0,-1,1.0,
581,2,0.8,0.25,-35.0,-1,1.0,
582,2,0.8,0.0625,-35.0,-1,1.0,
583,2,0.8,0.0625,-35.0,-1,1.0,
584,2,0.8,0.125,-35.0,-1,1.0,
585,2,0.8,0.25,-35.0,-1,1.0,
586,2,0.8,0.125,-35.0,-1,1.0,
587,2,0.8,0.0625,-35.0,-1,1.0,
588,2,0.8,1.0,-35.0,-1,1.0,
589,2,0.8,1.0,35.0,-1,0.0,
590,2,0.8,0.0625,-35.0,-1,1.0,
591,2,0.8,0.0,35.0,-1,0.0,
592,2,0.8,0.0625,-35.0,-1,1.0,
593,2,0.8,0.0625,-35.0,-1,1.0,
594,2,0.8,0.25,-35.0,-1,1.0,
595,2,0.8,0.0625,-35.0,1,0.0,
596,2,0.8,0.0,-35.0,-1,1.0,
597,2,0.8,1.0,-35.0,-1,1.0,
598,2,0.8,0.0625,-35.0,-1,1.0,
599,2,0.8,1.0,-35.0,-1,1.0,
600,2,0.8,0.0625,35.0,-1,0.0,
601,2,0.8,1.0,-35.0,-1,1.0,
602,2,0.8,0.125,-35.0,-1,1.0,
603,2,0.8,0.0625,-35.0,-1,1.0,
604,2,0.8,0.25,-35.0,-1,1.0,
605,2,0.8,0.25,35.0,-1,0.0,
606,2,0.8,0.0,-35.0,-1,1.0,
607,2,0.8,1.0,-35.0,-1,1.0,
608,2,0.8,0.0625,-35.0,-1,1.0,
609,2,0.8,0.25,-35.0,-1,1.0,
610,2,0.8,0.0,-35.0,-1,1.0,
611,2,0.8,0.125,-35.0,-1,1.0,
612,2,0.8,0.0625,-35.0,-1,1.0,
613,2,0.8,0.25,-35.0,-1,1.0,
614,2,0.8,1.0,35.0,-1,0.0,
615,2,0.8,0.0,35.0,-1,0.0,
616,2,0.8,0.25,-35.0,-1,1.0,
617,2,0.8,0.0625,-35.0,-1,1.0,
618,2,0.8,0.0,35.0,-1,0.0,
619,2,0.8,0.0625,-35.0,-1,1.0,
620,2,0.8,0.0,-35.0,-1,1.0,
621,2,0.8,0.0625,-35.0,-1,1.0,
622,2,0.2,1.0,35.0,-1,0.0,
623,2,0.2,0.25,35.0,-1,0.0,
624,2,0.2,1.0,35.0,-1,0.0,
625,2,0.2,0.125,35.0,-1,0.0,
626,2,0.2,1.0,35.0,-1,0.0,
627,2,0.2,0.125,35.0,-1,0.0,
628,2,0.2,0.0625,35.0,-1,0.0,
629,2,0.2,0.25,35.0,-1,0.0,
630,2,0.2,0.25,35.0,-1,0.0,
631,2,0.2,1.0,35.0,1,1.0,
632,2,0.2,0.25,35.0,1,1.0,
633,2,0.2,0.25,35.0,-1,0.0,
634,2,0.2,0.125,-35.0,-1,1.0,
635,2,0.2,1.0,35.0,1,1.0,
636,2,0.2,1.0,35.0,1,1.0,
637,2,0.2,1.0,35.0,1,1.0,
638,2,0.2,0.125,35.0,-1,0.0,
639,2,0.2,1.0,35.0,1,1.0,
640,2,0.2,0.125,35.0,-1,0.0,
641,2,0.2,1.0,35.0,-1,0.0,
642,2,0.8,0.0625,35.0,-1,0.0,
643,2,0.8,0.25,-35.0,-1,1.0,
644,2,0.8,1.0,-35.0,-1,1.0,
645,2,0.8,1.0,-35.0,-1,1.0,
646,2,0.8,1.0,-35.0,-1,1.0,
647,2,0.8,1.0,35.0,-1,0.0,
648,2,0.8,0.125,-35.0,-1,1.0,
649,2,0.8,0.125,-35.0,-1,1.0,
650,2,0.8,0.0625,-35.0,-1,1.0,
651,2,0.8,0.125,-35.0,-1,1.0,
652,2,0.8,0.25,35.0,-1,0.0,
653,2,0.8,0.125,35.0,-1,0.0,
654,2,0.8,0.0625,35.0,-1,0.0,
655,2,0.8,1.0,-35.0,-1,1.0,
656,2,0.8,0.0,-35.0,-1,1.0,
657,2,0.8,0.0,-35.0,-1,1.0,
658,2,0.8,0.125,-35.0,-1,1.0,
659,2,0.8,0.125,-35.0,-1,1.0,
660,2,0.8,0.0625,-35.0,-1,1.0,
661,2,0.8,1.0,-35.0,-1,1.0,
662,2,0.8,0.0625,35.0,-1,0.0,
663,2,0.8,0.125,-35.0,0,0.0,
664,2,0.8,0.0625,-35.0,1,0.0,
665,2,0.8,0.25,-35.0,-1,1.0,
666,2,0.8,0.0625,-35.0,-1,1.0,
667,2,0.8,0.0,-35.0,1,0.0,
668,2,0.8,0.0625,-35.0,-1,1.0,
669,2,0.8,1.0,-35.0,-1,1.0,
670,2,0.8,0.25,35.0,-1,0.0,
671,2,0.8,1.0,-35.0,-1,1.0,
672,2,0.8,0.0625,35.0,-1,0.0,
673,2,0.8,1.0,-35.0,-1,1.0,
674,2,0.8,0.25,-35.0,-1,1.0,
675,2,0.8,0.125,-35.0,-1,1.0,
676,2,0.8,1.0,-35.0,-1,1.0,
677,2,0.8,0.0625,-35.0,1,0.0,
678,2,0.8,0.0625,-35.0,-1,1.0,
679,2,0.8,0.125,35.0,-1,0.0,
680,2,0.8,0.0625,-35.0,-1,1.0,
681,2,0.8,0.125,-35.0,-1,1.0,
682,2,0.8,0.125,-35.0,1,0.0,
683,2,0.8,0.0625,-35.0,1,0.0,
684,2,0.8,1.0,-35.0,-1,1.0,
685,2,0.8,0.25,35.0,1,1.0,
686,2,0.8,0.0,-35.0,1,0.0,
687,2,0.8,0.0,-35.0,-1,1.0,
688,2,0.8,0.25,-35.0,-1,1.0,
689,2,0.2,1.0,35.0,-1,0.0,
690,2,0.2,0.125,-35.0,-1,1.0,
691,2,0.2,1.0,35.0,-1,0.0,
692,2,0.2,0.25,35.0,-1,0.0,
693,2,0.2,0.125,35.0,1,1.0,
694,2,0.2,1.0,35.0,1,1.0,
695,2,0.2,1.0,35.0,-1,0.0,
696,2,0.2,0.0,35.0,1,1.0,
697,2,0.2,0.0625,35.0,1,1.0,
698,2,0.2,0.0625,35.0,-1,0.0,
699,2,0.2,1.0,35.0,1,1.0,
700,2,0.2,0.0625,35.0,-1,0.0,
701,2,0.2,0.25,35.0,-1,0.0,
702,2,0.2,1.0,35.0,-1,0.0,
703,2,0.2,0.0,35.0,-1,0.0,
704,2,0.2,0.125,-35.0,-1,1.0,
705,2,0.2,1.0,35.0,-1,0.0,
706,2,0.2,0.25,-35.0,-1,1.0,
707,2,0.2,0.25,35.0,-1,0.0,
1,3,0.5,0.0625,-35.0,-1,1.0,0.2838999999999998
2,3,0.5,0.125,35.0,1,1.0,1.1945010000000007
3,3,0.5,0.125,-35.0,-1,1.0,0.43120099999999884
4,3,0.5,0.125,-35.0,-1,1.0,0.2575999999999983
5,3,0.5,1.0,35.0,1,1.0,0.6593
6,3,0.5,0.25,-35.0,-1,1.0,0.36180099999999804
7,3,0.5,0.25,35.0,1,1.0,0.7424999999999997
8,3,0.5,0.125,-35.0,-1,1.0,0.1924009999999967
9,3,0.5,0.25,-35.0,-1,1.0,0.3045999999999971
10,3,0.5,1.0,35.0,1,1.0,0.25829999999999487
11,3,0.5,0.125,35.0,1,1.0,0.3535999999999966
12,3,0.5,0.125,-35.0,-1,1.0,0.2762009999999968
13,3,0.5,1.0,35.0,1,1.0,0.4219010000000054
14,3,0.5,1.0,35.0,1,1.0,0.43440100000000825
15,3,0.5,0.125,-35.0,-1,1.0,0.4633010000000084
16,3,0.5,0.125,35.0,1,1.0,0.6094010000000054
17,3,0.5,0.25,35.0,1,1.0,0.5593010000000049
18,3,0.5,0.25,35.0,1,1.0,0.2536010000000104
19,3,0.5,0.0625,35.0,1,1.0,0.33090000000000686
20,3,0.5,0.0,35.0,1,1.0,0.5332010000000054
21,3,0.5,0.0,-35.0,1,0.0,0.5564000000000036
22,3,0.5,0.0,-35.0,-1,1.0,4.307300999999995
23,3,0.5,0.25,35.0,1,1.0,0.55560100000001
24,3,0.5,1.0,-35.0,-1,1.0,0.03839999999999577
25,3,0.5,0.0,-35.0,1,0.0,0.5246010000000041
26,3,0.5,0.125,35.0,1,1.0,0.797101000000012
27,3,0.5,1.0,-35.0,-1,1.0,0.18999999999999773
28,3,0.5,0.0,-35.0,1,0.0,0.7926000000000073
29,3,0.5,1.0,35.0,1,1.0,0.2600010000000026
30,3,0.5,1.0,-35.0,-1,1.0,0.1730009999999993
31,3,0.5,1.0,35.0,1,1.0,0.38130099999999345
32,3,0.5,0.125,-35.0,-1,1.0,0.4722009999999983
33,3,0.5,0.0,-35.0,1,0.0,1.8619999999999948
34,3,0.5,0.0625,-35.0,-1,1.0,0.20490099999999245
35,3,0.5,0.25,-35.0,-1,1.0,0.03790100000000507
36,3,0.5,0.125,-35.0,-1,1.0,0.036200000000008004
37,3,0.5,0.0625,35.0,-1,0.0,0.33290099999999256
38,3,0.5,0.125,35.0,1,1.0,0.5079010000000039
39,3,0.5,0.0,-35.0,1,0.0,0.4920010000000019
40,3,0.5,0.25,35.0,1,1.0,0.28009999999999025
41,3,0.5,0.25,35.0,-1,0.0,0.2187009999999816
42,3,0.5,1.0,35.0,1,1.0,0.25099999999997635
43,3,0.5,0.25,35.0,1,1.0,1.5013009999999838
44,3,0.5,0.25,-35.0,-1,1.0,0.24300099999999247
45,3,0.5,0.125,35.0,1,1.0,0.9330000000000211
46,3,0.5,0.25,-35.0,-1,1.0,0.2612009999999714
47,3,0.5,0.25,35.0,1,1.0,0.33810099999999466
48,3,0.5,1.0,-35.0,-1,1.0,0.1846999999999639
49,3,0.5,0.125,-35.0,-1,1.0,0.18250100000000202
50,3,0.5,1.0,35.0,1,1.0,0.2961999999999989
51,3,0.5,1.0,-35.0,-1,1.0,0.16980099999997833
52,3,0.5,0.25,-35.0,-1,1.0,0.1657009999999559
53,3,0.5,0.0,35.0,-1,0.0,0.21769999999997935
54,3,0.5,0.25,35.0,-1,0.0,0.29250099999998724
55,3,0.5,0.0625,-35.0,-1,1.0,0.3162009999999782
56,3,0.5,0.125,-35.0,-1,1.0,0.21540099999998574
57,3,0.5,0.25,-35.0,-1,1.0,0.17230100000000448
58,3,0.5,0.25,-35.0,-1,1.0,0.17019999999999413
59,3,0.5,0.25,-35.0,-1,1.0,0.1640999999999906
60,3,0.5,0.25,35.0,-1,0.0,0.21219999999999573
61,3,0.5,0.0625,35.0,-1,0.0,0.19879999999997722
62,3,0.5,0.25,35.0,-1,0.0,0.18730099999999084
63,3,0.5,0.125,35.0,-1,0.0,0.027300999999994247
64,3,0.5,0.0625,-35.0,-1,1.0,0.22049999999998704
65,3,0.5,0.25,-35.0,-1,1.0,0.1642999999999688
66,3,0.5,0.0625,35.0,1,1.0,5.473299999999995
67,3,0.5,0.0,35.0,-1,0.0,0.19030000000000769
68,3,0.5,0.125,-35.0,-1,1.0,0.2002999999999986
69,3,0.5,0.125,-35.0,-1,1.0,0.38140099999998256
70,3,0.5,0.0625,35.0,-1,0.0,0.19010000000000105
71,3,0.5,0.25,-35.0,-1,1.0,0.16340100000002167
72,3,0.5,0.0625,35.0,-1,0.0,1.0003999999999849
73,3,0.5,0.25,35.0,1,1.0,0.7444009999999537
74,3,0.5,1.0,35.0,1,1.0,0.42700099999998997
75,3,0.5,0.0625,-35.0,-1,1.0,0.25850099999999543
76,3,0.5,0.0625,-35.0,-1,1.0,0.22350000000000136
77,3,0.5,1.0,-35.0,-1,1.0,0.18040099999998915
78,3,0.5,0.25,35.0,1,1.0,0.3255010000000027
79,3,0.5,0.0,35.0,-1,0.0,0.39299999999997226
80,3,0.5,0.25,-35.0,-1,1.0,0.16350099999996814
81,3,0.5,0.0625,35.0,-1,0.0,0.21350100000000793
82,3,0.5,0.25,35.0,1,1.0,0.34210100000001376
83,3,0.5,0.0625,-35.0,-1,1.0,0.47350000000000136
84,3,0.5,1.0,35.0,1,1.0,0.44980000000003884
85,3,0.5,0.0625,35.0,-1,0.0,0.21960100000001148
86,3,0.5,1.0,-35.0,-1,1.0,0.18240100000002712
87,3,0.5,0.125,35.0,1,1.0,0.2995999999999981
88,3,0.5,0.0625,-35.0,-1,1.0,0.26130000000000564
89,3,0.5,0.0,35.0,-1,0.0,0.26230099999997947
90,3,0.5,1.0,-35.0,-1,1.0,0.16560000000004038
91,3,0.8,1.0,-35.0,-1,1.0,0.16530099999999948
92,3,0.8,0.25,-35.0,-1,1.0,0.17930100000000948
93,3,0.8,0.125,-35.0,-1,1.0,0.021001000000012482
94,3,0.8,0.125,-35.0,-1,1.0,0.24070100000000139
95,3,0.8,1.0,-35.0,-1,1.0,0.14969999999999573
96,3,0.8,0.0625,-35.0,-1,1.0,0.20590099999998301
97,3,0.8,0.125,-35.0,-1,1.0,0.1986999999999739
98,3,0.8,0.125,35.0,-1,0.0,0.24979999999999336
99,3,0.8,0.25,-35.0,-1,1.0,0.05750100000000202
100,3,0.8,0.25,-35.0,-1,1.0,0.20580100000000812
101,3,0.8,0.0625,-35.0,-1,1.0,0.20270100000004732
102,3,0.8,0.25,-35.0,-1,1.0,0.17950000000001864
103,3,0.8,0.125,-35.0,-1,1.0,0.18149999999997135
104,3,0.8,0.0,35.0,-1,0.0,0.21740000000005466
105,3,0.8,0.0,-35.0,-1,1.0,0.1642999999999688
106,3,0.8,0.0625,-35.0,-1,1.0,0.16840100000007396
107,3,0.8,1.0,-35.0,-1,1.0,0.15380100000004404
108,3,0.8,0.25,-35.0,-1,1.0,0.16960000000000264
109,3,0.8,1.0,-35.0,-1,1.0,0.15489999999999782
110,3,0.8,1.0,-35.0,-1,1.0,0.20090099999998756
111,3,0.8,0.0,-35.0,-1,1.0,0.2528010000000904
112,3,0.8,0.0625,-35.0,-1,1.0,0.21690000000000964
113,3,0.8,0.25,-35.0,-1,1.0,0.16270000000002938
114,3,0.8,0.25,-35.0,-1,1.0,0.17799999999999727
115,3,0.8,0.25,-35.0,-1,1.0,0.1900009999999952
116,3,0.8,0.0,35.0,-1,0.0,0.4211010000000215
117,3,0.8,0.0625,-35.0,-1,1.0,0.1870010000000093
118,3,0.8,1.0,-35.0,-1,1.0,0.15500000000002956
119,3,0.8,1.0,-35.0,-1,1.0,0.17100099999998974
120,3,0.8,1.0,35.0,1,1.0,0.6443009999999845
121,3,0.8,0.0,-35.0,-1,1.0,0.22400099999998702
122,3,0.8,0.0625,-35.0,-1,1.0,0.17210099999999784
123,3,0.8,0.125,-35.0,-1,1.0,0.02700100000004113
124,3,0.8,0.0625,35.0,-1,0.0,0.22800000000000864
125,3,0.8,0.125,-35.0,-1,1.0,0.24810100000001967
126,3,0.8,0.25,-35.0,-1,1.0,0.18410000000005766
127,3,0.8,1.0,-35.0,-1,1.0,-0.061199999999985266
128,3,0.8,1.0,-35.0,-1,1.0,-0.011899999999968713
129,3,0.8,1.0,-35.0,-1,1.0,0.19369999999997844
130,3,0.8,0.125,35.0,1,1.0,3.717601000000002
131,3,0.8,1.0,-35.0,-1,1.0,0.15970100000004095
132,3,0.8,1.0,35.0,1,1.0,0.8781010000000151
133,3,0.8,0.0,-35.0,1,0.0,3.7221999999999866
134,3,0.8,0.0625,-35.0,-1,1.0,0.2373010000000022
135,3,0.8,1.0,-35.0,-1,1.0,0.15950000000003683
136,3,0.8,0.25,-35.0,-1,1.0,0.18840000000000146
137,3,0.8,1.0,-35.0,-1,1.0,0.1715000000000373
138,3,0.8,0.0,-35.0,-1,1.0,0.5293009999999754
139,3,0.8,0.0,-35.0,-1,1.0,0.224899999999991
140,3,0.8,0.0625,35.0,-1,0.0,0.20040100000005623
141,3,0.8,0.0,-35.0,-1,1.0,0.35150099999998474
142,3,0.8,1.0,35.0,1,1.0,0.5739010000000349
143,3,0.8,0.0625,-35.0,-1,1.0,0.18360000000001264
144,3,0.8,0.125,-35.0,-1,1.0,0.19730100000003858
145,3,0.8,0.0625,-35.0,-1,1.0,0.334699999999998
146,3,0.8,1.0,-35.0,-1,1.0,0.27940000000000964
147,3,0.8,0.0625,-35.0,-1,1.0,0.43280000000004293
148,3,0.8,0.0625,35.0,-1,0.0,0.22540000000003602
149,3,0.8,0.25,-35.0,-1,1.0,0.18940100000003213
150,3,0.8,1.0,-35.0,-1,1.0,0.17420000000004165
151,3,0.8,0.0625,-35.0,-1,1.0,6.3282010000000355
152,3,0.8,0.25,-35.0,-1,1.0,0.1816000000000031
153,3,0.8,1.0,35.0,1,1.0,0.9149000000000456
154,3,0.8,1.0,-35.0,-1,1.0,0.1571999999999889
155,3,0.8,0.25,-35.0,-1,1.0,0.19790100000000166
156,3,0.8,0.0625,-35.0,-1,1.0,0.21660100000002558
157,3,0.8,0.0625,-35.0,-1,1.0,0.9936000000000149
158,3,0.8,0.125,-35.0,-1,1.0,0.13350000000002638
159,3,0.8,0.25,-35.0,-1,1.0,0.180499999999995
160,3,0.8,0.125,-35.0,-1,1.0,0.17830000000003565
161,3,0.8,0.0625,-35.0,-1,1.0,0.2271010000000615
162,3,0.8,1.0,35.0,1,1.0,0.6578000000000088
163,3,0.8,1.0,-35.0,-1,1.0,0.19190100000002985
164,3,0.8,0.0,35.0,-1,0.0,0.2586000000000013
165,3,0.8,1.0,35.0,1,1.0,0.48860099999990325
166,3,0.8,1.0,-35.0,-1,1.0,0.16389999999989868
167,3,0.8,0.0625,-35.0,-1,1.0,0.44170099999996637
168,3,0.8,0.25,-35.0,-1,1.0,0.2361999999999398
169,3,0.8,0.25,-35.0,-1,1.0,0.20450000000005275
170,3,0.8,0.25,-35.0,-1,1.0,0.18930100000000039
171,3,0.8,0.125,-35.0,-1,1.0,0.6469009999999571
172,3,0.8,1.0,-35.0,-1,1.0,0.1856999999998834
173,3,0.8,0.25,35.0,-1,0.0,0.23880099999996673
174,3,0.8,1.0,35.0,1,1.0,0.22630100000003495
175,3,0.8,0.25,35.0,1,1.0,0.7528999999999542
176,3,0.8,0.0625,35.0,1,1.0,0.7827009999998609
177,3,0.8,0.0625,-35.0,-1,1.0,0.3945009999999911
178,3,0.8,1.0,35.0,1,1.0,0.4292010000000346
179,3,0.8,1.0,-35.0,-1,1.0,0.19889999999986685
180,3,0.8,0.125,35.0,-1,0.0,0.382300999999984
181,3,0.8,0.125,-35.0,-1,1.0,0.2739999999998872
182,3,0.2,0.0625,35.0,-1,0.0,0.3120010000000093
183,3,0.2,0.0625,-35.0,-1,1.0,0.3220009999998865
184,3,0.2,0.125,35.0,1,1.0,0.6148999999999205
185,3,0.2,1.0,-35.0,-1,1.0,0.1954999999999245
186,3,0.2,0.25,35.0,1,1.0,0.962900999999988
187,3,0.2,0.0625,35.0,-1,0.0,0.34130100000004404
188,3,0.2,0.25,35.0,1,1.0,0.5027009999998882
189,3,0.2,0.0,35.0,1,1.0,1.398800999999935
190,3,0.2,0.0625,-35.0,1,0.0,0.4210010000000466
191,3,0.2,0.125,-35.0,-1,1.0,0.3223009999999249
192,3,0.2,0.0625,35.0,-1,0.0,0.28040099999998347
193,3,0.2,0.0625,35.0,-1,0.0,0.20350100000007387
194,3,0.2,0.25,35.0,1,1.0,0.22749999999996362
195,3,0.2,1.0,35.0,1,1.0,0.13170099999990725
196,3,0.2,0.0,35.0,-1,0.0,0.5159999999999627
197,3,0.2,0.0625,-35.0,1,0.0,0.4088010000000395
198,3,0.2,0.125,35.0,-1,0.0,0.3241009999999278
199,3,0.2,0.25,35.0,1,1.0,0.3249999999999318
200,3,0.2,1.0,35.0,1,1.0,0.4171010000000024
201,3,0.2,0.0,35.0,1,1.0,0.5361010000000306
202,3,0.2,0.125,35.0,1,1.0,0.5101999999999407
203,3,0.2,0.0625,-35.0,-1,1.0,0.36350099999992835
204,3,0.2,0.0625,35.0,1,1.0,0.8776009999999133
205,3,0.2,0.0,35.0,1,1.0,0.8200999999999112
206,3,0.2,1.0,-35.0,-1,1.0,0.21070000000008804
207,3,0.2,0.25,-35.0,-1,1.0,0.18810099999996055
208,3,0.2,0.0625,35.0,-1,0.0,0.06920099999990725
209,3,0.2,0.25,35.0,1,1.0,0.12570099999993545
210,3,0.2,0.125,35.0,1,1.0,0.5295999999999594
211,3,0.2,0.25,35.0,1,1.0,0.4317000000000917
212,3,0.2,0.0,-35.0,1,0.0,0.3892009999999573
213,3,0.2,1.0,35.0,1,1.0,0.26930000000004384
214,3,0.2,0.0,-35.0,1,0.0,0.4957010000000537
215,3,0.2,1.0,-35.0,-1,1.0,0.19580099999996037
216,3,0.2,0.25,35.0,1,1.0,0.27710000000001855
217,3,0.2,0.0625,35.0,1,1.0,0.7801999999999225
218,3,0.2,0.125,35.0,1,1.0,0.50970099999995
219,3,0.8,1.0,35.0,1,1.0,0.5937999999999874
220,3,0.8,0.25,35.0,1,1.0,0.4116999999998825
221,3,0.8,0.0625,35.0,1,1.0,0.4255000000000564
222,3,0.8,0.0625,-35.0,1,0.0,0.5079009999999471
223,3,0.8,0.25,35.0,1,1.0,0.503900999999928
224,3,0.8,0.25,-35.0,-1,1.0,0.21100099999989652
225,3,0.8,1.0,-35.0,-1,1.0,0.2039999999999509
226,3,0.8,0.25,-35.0,-1,1.0,0.24839999999994689
227,3,0.8,1.0,-35.0,-1,1.0,0.21120099999996
228,3,0.8,0.0625,-35.0,-1,1.0,0.2031010000000606
229,3,0.8,0.0,-35.0,-1,1.0,0.19980099999986578
230,3,0.8,0.0,-35.0,-1,1.0,0.3270999999998594
231,3,0.8,0.125,-35.0,-1,1.0,0.21380099999998947
232,3,0.8,0.25,35.0,1,1.0,0.8265009999998938
233,3,0.8,0.0625,-35.0,-1,1.0,0.18770100000006096
234,3,0.8,0.25,-35.0,-1,1.0,0.23800099999994018
235,3,0.8,1.0,-35.0,-1,1.0,0.15200100000004113
236,3,0.8,0.0,-35.0,-1,1.0,0.1876999999999498
237,3,0.8,1.0,-35.0,-1,1.0,0.1630999999999858
238,3,0.8,0.0625,-35.0,-1,1.0,0.17610099999990325
239,3,0.8,0.125,-35.0,-1,1.0,0.20260099999995873
240,3,0.8,1.0,-35.0,-1,1.0,0.15200100000004113
241,3,0.8,0.0625,-35.0,-1,1.0,0.09309999999993579
242,3,0.8,0.125,-35.0,-1,1.0,0.21180099999992308
243,3,0.8,0.25,-35.0,-1,1.0,0.16320099999995819
244,3,0.8,0.125,35.0,-1,0.0,0.19150100000001657
245,3,0.8,1.0,35.0,-1,0.0,0.16700000000003
246,3,0.2,0.0,35.0,-1,0.0,0.17360000000007858
247,3,0.2,0.125,35.0,1,1.0,0.6834999999999809
248,3,0.2,0.125,35.0,1,1.0,0.2376009999999269
249,3,0.2,0.0625,35.0,1,1.0,0.4186009999999669
250,3,0.2,0.0625,35.0,1,1.0,1.00870099999986
251,3,0.2,1.0,35.0,1,1.0,0.36930099999995036
252,3,0.2,0.0,-35.0,1,0.0,0.5135009999999056
253,3,0.2,0.0625,-35.0,-1,1.0,0.22470099999998183
254,3,0.2,0.0625,-35.0,-1,1.0,0.05259999999998399
255,3,0.2,1.0,-35.0,-1,1.0,0.14660000000003492
256,3,0.2,0.125,-35.0,-1,1.0,0.2016999999999598
257,3,0.2,0.25,-35.0,-1,1.0,0.15670099999988452
258,3,0.2,0.0,-35.0,-1,1.0,0.16570099999989907
259,3,0.2,0.0625,35.0,-1,0.0,0.3727000000000089
260,3,0.2,1.0,35.0,1,1.0,0.30370000000004893
261,3,0.2,0.25,35.0,-1,0.0,0.18270099999995182
262,3,0.2,0.0,-35.0,-1,1.0,0.3489009999999553
263,3,0.2,0.25,35.0,1,1.0,0.34979999999995925
264,3,0.2,0.25,-35.0,-1,1.0,0.1870009999998956
265,3,0.2,0.125,-35.0,-1,1.0,0.1797999999998865
266,3,0.2,1.0,35.0,-1,0.0,-0.04880000000014206
267,3,0.2,0.0625,35.0,-1,0.0,0.27890100000001894
268,3,0.2,0.0625,-35.0,-1,1.0,0.14590099999998074
269,3,0.2,0.25,35.0,-1,0.0,0.3179010000000062
270,3,0.2,0.125,35.0,1,1.0,0.5978999999999814
271,3,0.2,0.25,35.0,1,1.0,0.33090099999992617
272,3,0.2,1.0,35.0,1,1.0,0.30640100000005077
273,3,0.2,1.0,35.0,1,1.0,0.2432009999999991
274,3,0.2,0.0625,35.0,-1,0.0,0.3989010000000235
275,3,0.2,0.25,35.0,1,1.0,0.3548999999998159
276,3,0.2,1.0,35.0,1,1.0,0.3869009999999662
277,3,0.2,0.25,35.0,1,1.0,0.4290009999998574
278,3,0.2,1.0,35.0,1,1.0,0.6310009999999693
279,3,0.2,0.0625,35.0,1,1.0,0.5066999999999098
280,3,0.2,0.25,35.0,1,1.0,0.2360999999999649
281,3,0.2,0.25,35.0,1,1.0,0.24460099999998874
282,3,0.2,0.0,35.0,1,1.0,0.785199999999918
283,3,0.2,0.0625,35.0,1,1.0,0.5819999999999936
284,3,0.2,0.0625,35.0,1,1.0,0.3581009999999196
285,3,0.2,0.125,35.0,1,1.0,0.36000000000001364
286,3,0.8,0.125,-35.0,1,0.0,0.6961009999999987
287,3,0.8,0.25,-35.0,-1,1.0,0.1950010000000475
288,3,0.8,0.125,-35.0,-1,1.0,0.19709999999986394
289,3,0.8,1.0,-35.0,-1,1.0,0.14809999999999945
290,3,0.8,1.0,-35.0,-1,1.0,0.1590999999999667
291,3,0.8,0.0625,-35.0,-1,1.0,0.21109999999998763
292,3,0.8,1.0,-35.0,-1,1.0,0.16970099999991817
293,3,0.8,0.0,-35.0,-1,1.0,0.41420099999993454
294,3,0.8,0.0625,35.0,-1,0.0,2.1542009999999436
295,3,0.8,0.25,-35.0,-1,1.0,0.16040099999997892
296,3,0.8,0.0625,-35.0,-1,1.0,0.41429999999991196
297,3,0.8,1.0,-35.0,-1,1.0,0.1550009999999702
298,3,0.8,0.25,35.0,-1,0.0,0.32529999999997017
299,3,0.8,1.0,-35.0,-1,1.0,0.1343010000000504
300,3,0.8,0.0,-35.0,-1,1.0,0.14530100000001767
301,3,0.8,0.0625,-35.0,-1,1.0,0.1649009999999862
302,3,0.8,1.0,-35.0,-1,1.0,0.3317010000000664
303,3,0.8,0.125,-35.0,-1,1.0,0.5973000000000184
304,3,0.8,0.25,-35.0,-1,1.0,0.16230099999995673
305,3,0.8,0.0625,-35.0,-1,1.0,-0.014699000000064188
306,3,0.8,1.0,-35.0,-1,1.0,0.1553000000000111
307,3,0.8,0.0625,-35.0,-1,1.0,0.03679999999997108
308,3,0.8,1.0,-35.0,-1,1.0,0.15239999999994325
309,3,0.8,0.125,35.0,-1,0.0,0.04130099999986214
310,3,0.8,0.0,-35.0,-1,1.0,0.15610100000003513
311,3,0.8,0.0625,-35.0,-1,1.0,0.2213009999999258
312,3,0.8,0.125,-35.0,-1,1.0,0.16030000000000655
313,3,0.8,1.0,-35.0,-1,1.0,0.1290009999999029
314,3,0.8,1.0,35.0,-1,0.0,0.16030000000000655
315,3,0.8,0.25,-35.0,-1,1.0,0.13440099999991162
316,3,0.8,1.0,-35.0,-1,1.0,0.1393999999999096
317,3,0.8,0.0625,-35.0,-1,1.0,0.16840000000001965
318,3,0.8,0.25,35.0,-1,0.0,0.18859999999995125
319,3,0.8,0.125,-35.0,-1,1.0,0.2094000000000733
320,3,0.8,1.0,-35.0,-1,1.0,0.10739999999998417
321,3,0.8,0.125,-35.0,-1,1.0,0.18059999999991305
322,3,0.8,0.125,-35.0,-1,1.0,0.16049999999995634
323,3,0.8,0.125,-35.0,-1,1.0,0.1610000000000582
324,3,0.8,0.0625,-35.0,-1,1.0,0.05750000000000455
325,3,0.8,0.0,-35.0,-1,1.0,0.19550100000003567
326,3,0.8,1.0,-35.0,-1,1.0,0.15790000000015425
327,3,0.8,0.125,-35.0,-1,1.0,0.18059999999968568
328,3,0.8,0.0,-35.0,-1,1.0,0.3496010000001206
329,3,0.8,0.0,-35.0,-1,1.0,0.1875009999998838
330,3,0.8,0.125,-35.0,-1,1.0,0.16350099999999657
331,3,0.8,1.0,-35.0,-1,1.0,0.1593000000000302
332,3,0.8,1.0,-35.0,-1,1.0,0.17360099999996237
333,3,0.8,0.125,35.0,-1,0.0,0.18460099999992963
334,3,0.8,0.0625,-35.0,-1,1.0,0.17360100000018974
335,3,0.8,0.0625,-35.0,-1,1.0,0.17830099999991944
336,3,0.8,0.25,-35.0,-1,1.0,0.16999999999984539
337,3,0.8,0.0625,-35.0,-1,1.0,0.1868010000000595
338,3,0.8,0.25,-35.0,-1,1.0,0.030700999999908163
339,3,0.8,0.25,-35.0,-1,1.0,0.27070099999991726
340,3,0.8,0.25,-35.0,-1,1.0,0.16059999999993124
341,3,0.8,0.0625,-35.0,-1,1.0,0.1687010000000555
342,3,0.8,0.125,-35.0,-1,1.0,0.2032010000000355
343,3,0.8,1.0,-35.0,-1,1.0,0.15409999999997126
344,3,0.8,0.25,-35.0,-1,1.0,0.18299999999999272
345,3,0.8,1.0,-35.0,-1,1.0,0.18689999999992324
346,3,0.8,0.0625,-35.0,-1,1.0,0.15670099999988452
347,3,0.8,0.0625,-35.0,-1,1.0,0.15839999999980137
348,3,0.8,1.0,35.0,1,1.0,0.09179999999992106
349,3,0.8,0.0,-35.0,-1,1.0,0.06550100000004022
350,3,0.8,0.25,-35.0,-1,1.0,0.20580099999983759
351,3,0.8,0.0625,-35.0,-1,1.0,0.1232009999996535
352,3,0.8,0.125,-35.0,-1,1.0,0.13679999999999382
353,3,0.8,0.0,-35.0,-1,1.0,0.5329009999998107
354,3,0.8,0.0625,35.0,-1,0.0,0.26460099999985687
355,3,0.8,1.0,35.0,1,1.0,0.2813009999999849
356,3,0.8,0.25,-35.0,-1,1.0,0.049900999999863416
357,3,0.8,0.0,35.0,-1,0.0,0.3082000000001699
358,3,0.8,0.25,-35.0,-1,1.0,0.26890000000003056
359,3,0.8,0.25,-35.0,-1,1.0,0.18589999999994689
360,3,0.8,0.0625,35.0,-1,0.0,0.14490100000011807
361,3,0.8,1.0,35.0,1,1.0,0.6169009999998707
362,3,0.8,1.0,35.0,1,1.0,0.34900100000004386
363,3,0.8,0.125,-35.0,-1,1.0,1.3692000000000917
364,3,0.8,0.25,-35.0,-1,1.0,0.18069999999988795
365,3,0.8,0.25,35.0,1,1.0,0.8805999999999585
366,3,0.8,0.125,35.0,1,1.0,0.314000999999962
367,3,0.2,0.25,35.0,1,1.0,0.7091010000001461
368,3,0.2,0.0,35.0,1,1.0,0.4269000000001597
369,3,0.2,0.0625,35.0,-1,0.0,0.34280100000000857
370,3,0.2,0.125,35.0,1,1.0,0.5088009999999485
371,3,0.2,0.25,-35.0,-1,1.0,0.2681009999998878
372,3,0.2,0.25,35.0,1,1.0,0.2980009999998856
373,3,0.2,0.25,35.0,1,1.0,0.26310099999977865
374,3,0.2,0.25,-35.0,-1,1.0,0.2642000000000735
375,3,0.2,0.25,-35.0,-1,1.0,0.2073009999999158
376,3,0.2,0.0625,35.0,-1,0.0,0.1971000000000913
377,3,0.2,0.0,-35.0,-1,1.0,0.30720100000007733
378,3,0.2,0.125,35.0,1,1.0,0.302599999999984
379,3,0.2,0.25,35.0,1,1.0,0.31660100000021885
380,3,0.2,0.25,35.0,1,1.0,1.0486000000000786
381,3,0.2,0.125,-35.0,-1,1.0,0.35520100000007915
382,3,0.2,0.25,35.0,-1,0.0,0.5142000000000735
383,3,0.2,0.25,35.0,-1,0.0,0.6091999999998734
384,3,0.2,0.25,-35.0,-1,1.0,0.1529000000000451
385,3,0.2,0.25,35.0,1,1.0,0.24589999999989232
386,3,0.2,0.25,35.0,1,1.0,0.32229999999981374
387,3,0.2,1.0,35.0,1,1.0,0.32429999999976644
388,3,0.2,0.0,35.0,-1,0.0,0.183699999999817
389,3,0.2,0.25,35.0,1,1.0,0.2906999999997879
390,3,0.2,0.25,35.0,1,1.0,0.7252999999998337
391,3,0.2,0.0,35.0,1,1.0,0.5935009999998329
392,3,0.2,0.25,35.0,1,1.0,0.3572999999998956
393,3,0.2,1.0,35.0,1,1.0,0.31740000000013424
394,3,0.2,0.0,-35.0,1,0.0,1.035399999999754
395,3,0.2,0.0625,-35.0,-1,1.0,0.4374000000000251
396,3,0.2,0.25,35.0,1,1.0,0.41940100000010716
397,3,0.2,0.25,35.0,1,1.0,0.37340100000005805
398,3,0.2,1.0,35.0,1,1.0,0.7914000000000669
399,3,0.2,1.0,-35.0,-1,1.0,0.18050000000016553
400,3,0.2,0.25,35.0,1,1.0,0.27729999999996835
401,3,0.2,0.125,35.0,1,1.0,0.4663999999997941
402,3,0.2,0.0625,35.0,1,1.0,0.6104000000000269
403,3,0.2,1.0,35.0,1,1.0,0.4585010000000693
404,3,0.2,1.0,-35.0,-1,1.0,0.20650099999966187
405,3,0.2,0.0625,-35.0,-1,1.0,0.14340100000003986
406,3,0.2,0.125,35.0,1,1.0,0.28110099999980775
407,3,0.2,0.125,35.0,1,1.0,0.5174999999999272
408,3,0.2,0.125,35.0,-1,0.0,0.3204999999998108
409,3,0.2,0.25,35.0,1,1.0,0.5847000000001117
410,3,0.2,0.0625,35.0,1,1.0,0.5165009999998347
411,3,0.2,0.25,35.0,1,1.0,0.5815999999999804
412,3,0.2,0.0625,-35.0,-1,1.0,0.4005010000000766
413,3,0.2,0.25,35.0,1,1.0,0.18840099999988524
414,3,0.2,0.0,35.0,1,1.0,0.7373009999998885
415,3,0.2,0.0625,35.0,-1,0.0,0.28500099999973827
416,3,0.2,0.125,35.0,-1,0.0,0.19269999999983156
417,3,0.2,0.0,-35.0,-1,1.0,0.30199999999990723
418,3,0.2,0.125,-35.0,-1,1.0,-0.03529900000012276
419,3,0.2,0.125,35.0,-1,0.0,0.2114010000000235
420,3,0.2,0.0,-35.0,1,0.0,0.7507010000001628
421,3,0.2,1.0,-35.0,-1,1.0,0.15160100000002785
422,3,0.2,0.25,35.0,-1,0.0,0.14669999999978245
423,3,0.2,0.125,35.0,1,1.0,0.5470000000000255
424,3,0.2,0.0625,35.0,-1,0.0,0.3638010000001941
425,3,0.2,0.0625,-35.0,1,0.0,0.2987000000000535
426,3,0.2,0.0625,35.0,1,1.0,0.28680099999996855
427,3,0.2,0.0,35.0,1,1.0,0.22880099999997583
428,3,0.2,0.25,35.0,1,1.0,0.2578009999999722
429,3,0.2,0.0625,35.0,-1,0.0,0.22780099999999948
430,3,0.2,0.125,-35.0,-1,1.0,0.2667999999998756
431,3,0.8,0.25,-35.0,-1,1.0,0.3487999999999829
432,3,0.8,0.125,-35.0,-1,1.0,0.17780100000004495
433,3,0.8,1.0,-35.0,-1,1.0,0.13880100000005768
434,3,0.8,0.25,-35.0,-1,1.0,0.16590100000007624
435,3,0.8,0.25,35.0,-1,0.0,0.1349009999998998
436,3,0.8,1.0,35.0,1,1.0,0.4209010000001854
437,3,0.8,1.0,-35.0,-1,1.0,0.14590100000009443
438,3,0.8,0.25,35.0,1,1.0,0.5239010000000235
439,3,0.8,0.0625,-35.0,-1,1.0,0.31290100000001075
440,3,0.8,0.125,-35.0,-1,1.0,0.16499999999996362
441,3,0.8,0.125,35.0,1,1.0,0.4720009999998638
442,3,0.8,0.0625,35.0,-1,0.0,0.32300099999997656
443,3,0.8,0.125,-35.0,-1,1.0,0.21830099999988306
444,3,0.8,0.25,-35.0,-1,1.0,0.20289999999999964
445,3,0.8,0.0625,35.0,-1,0.0,0.13110100000017155
446,3,0.8,1.0,-35.0,-1,1.0,0.13180000000011205
447,3,0.8,1.0,-35.0,-1,1.0,0.15160099999980048
448,3,0.8,0.0625,-35.0,-1,1.0,0.42800000000011096
449,3,0.8,0.0625,-35.0,-1,1.0,0.14710100000002058
450,3,0.8,0.0625,35.0,-1,0.0,0.17009999999982028
451,3,0.8,1.0,-35.0,-1,1.0,0.17709999999988213
452,3,0.8,0.0625,-35.0,-1,1.0,0.16499999999996362
453,3,0.8,0.0625,-35.0,-1,1.0,0.18310100000007878
454,3,0.8,0.0625,35.0,-1,0.0,0.24319999999988795
455,3,0.8,1.0,-35.0,-1,1.0,0.16050000000018372
456,3,0.8,0.125,-35.0,-1,1.0,0.14200000000005275
457,3,0.8,0.25,-35.0,-1,1.0,0.16150099999981649
458,3,0.8,0.125,-35.0,-1,1.0,0.33120099999996455
459,3,0.8,0.125,-35.0,-1,1.0,0.15880099999981212
460,3,0.8,0.125,35.0,-1,0.0,0.17459999999982756
461,3,0.8,0.0625,-35.0,-1,1.0,0.11819999999988795
462,3,0.2,0.125,35.0,-1,0.0,0.3022009999997408
463,3,0.2,0.125,35.0,-1,0.0,0.2434009999999489
464,3,0.2,1.0,35.0,1,1.0,0.39819999999986067
465,3,0.2,1.0,-35.0,-1,1.0,0.16299999999978354
466,3,0.2,0.0625,35.0,-1,0.0,0.20650099999988925
467,3,0.2,0.125,35.0,1,1.0,0.5591999999999189
468,3,0.2,1.0,35.0,1,1.0,0.30929999999989377
469,3,0.2,1.0,35.0,1,1.0,0.35429999999996653
470,3,0.2,0.125,35.0,1,1.0,0.31330000000002656
471,3,0.2,1.0,-35.0,-1,1.0,0.218199999999797
472,3,0.2,0.0625,35.0,1,1.0,0.3767010000001392
473,3,0.2,0.0625,35.0,1,1.0,0.47810100000015154
474,3,0.2,0.125,35.0,1,1.0,0.40229999999996835
475,3,0.2,0.25,35.0,1,1.0,0.3034010000001217
476,3,0.2,0.25,-35.0,-1,1.0,0.33839999999986503
477,3,0.2,1.0,35.0,1,1.0,0.2874010000000453
478,3,0.2,1.0,35.0,1,1.0,0.7576010000000224
479,3,0.2,0.25,35.0,1,1.0,0.5238999999999123
480,3,0.2,0.0625,-35.0,-1,1.0,0.28840100000002167
481,3,0.2,1.0,35.0,1,1.0,0.21539999999981774
482,3,0.2,0.125,-35.0,1,0.0,0.1994009999998525
483,3,0.2,1.0,35.0,1,1.0,0.4254009999997379
484,3,0.2,1.0,35.0,1,1.0,-0.0164990000000671
485,3,0.2,0.0,35.0,1,1.0,0.4154009999999744
486,3,0.2,0.0625,-35.0,1,0.0,0.4149999999999636
487,3,0.2,1.0,-35.0,-1,1.0,0.18640000000004875
488,3,0.2,0.25,35.0,1,1.0,0.36350099999981467
489,3,0.2,1.0,35.0,1,1.0,0.28560099999981503
490,3,0.2,0.25,35.0,1,1.0,0.35920099999998456
491,3,0.2,0.125,35.0,-1,0.0,0.22270099999991544
492,3,0.2,1.0,35.0,1,1.0,0.27800000000002
493,3,0.2,0.0,35.0,1,1.0,0.48260000000004766
494,3,0.2,0.0625,35.0,1,1.0,0.2985999999998512
495,3,0.2,0.0625,35.0,1,1.0,0.3346000000001368
496,3,0.2,1.0,35.0,1,1.0,0.36159999999995307
497,3,0.2,0.0625,35.0,1,1.0,0.4446010000001479
498,3,0.2,1.0,35.0,1,1.0,0.5856009999999969
499,3,0.2,0.25,-35.0,-1,1.0,0.32170099999984814
500,3,0.2,1.0,35.0,1,1.0,0.3921010000001388
501,3,0.2,0.125,35.0,-1,0.0,0.3907010000000355
502,3,0.2,0.25,35.0,-1,0.0,0.30500000000006366
503,3,0.2,1.0,35.0,1,1.0,0.4937009999998736
504,3,0.2,0.25,35.0,1,1.0,0.7706999999998061
505,3,0.2,0.25,-35.0,1,0.0,0.3867009999999027
506,3,0.2,0.125,35.0,1,1.0,0.40079999999989013
507,3,0.2,0.0,35.0,1,1.0,-0.007099000000152955
508,3,0.2,0.0,35.0,1,1.0,0.3995009999998729
509,3,0.2,0.25,35.0,1,1.0,0.4108009999999922
510,3,0.2,0.125,35.0,1,1.0,0.26050099999997656
511,3,0.2,0.0625,35.0,1,1.0,0.4371009999997568
512,3,0.2,0.25,-35.0,-1,1.0,0.2236000000000331
513,3,0.2,0.25,35.0,1,1.0,0.40010099999994964
514,3,0.2,0.25,35.0,1,1.0,0.43990099999996346
515,3,0.2,0.25,35.0,1,1.0,0.4449010000000726
516,3,0.2,0.25,35.0,1,1.0,0.3307999999999538
517,3,0.2,1.0,-35.0,-1,1.0,0.20090000000004693
518,3,0.2,0.0,35.0,-1,0.0,0.37590000000022883
519,3,0.2,0.25,35.0,1,1.0,0.6719000000000506
520,3,0.2,0.0625,-35.0,-1,1.0,0.4098999999998796
521,3,0.8,0.0,-35.0,1,0.0,3.047599999999875
522,3,0.8,0.0,35.0,-1,0.0,0.3321000000000822
523,3,0.8,0.25,-35.0,-1,1.0,0.2322999999998956
524,3,0.8,1.0,-35.0,-1,1.0,0.2256999999999607
525,3,0.8,0.0,35.0,1,1.0,0.3369999999997617
526,3,0.8,1.0,35.0,1,1.0,0.19010099999991326
527,3,0.8,0.25,-35.0,-1,1.0,0.17250099999978374
528,3,0.8,0.125,-35.0,-1,1.0,0.10170100000004823
529,3,0.8,0.0625,-35.0,-1,1.0,0.256099999999833
530,3,0.8,0.0625,-35.0,-1,1.0,0.16230100000007042
531,3,0.8,0.25,-35.0,-1,1.0,0.18170099999997547
532,3,0.8,1.0,-35.0,-1,1.0,0.14560099999994236
533,3,0.8,1.0,-35.0,-1,1.0,0.15860099999986232
534,3,0.8,0.125,-35.0,-1,1.0,0.2181009999997059
535,3,0.8,0.0625,-35.0,-1,1.0,0.19800099999997656
536,3,0.8,0.125,-35.0,-1,1.0,0.15210099999990234
537,3,0.8,0.0625,-35.0,-1,1.0,0.18859999999995125
538,3,0.8,0.125,-35.0,-1,1.0,0.15920099999993909
539,3,0.8,0.125,-35.0,-1,1.0,0.1550999999999476
540,3,0.8,0.125,-35.0,-1,1.0,0.1792009999999209
541,3,0.8,1.0,-35.0,-1,1.0,0.16519999999991342
542,3,0.8,0.0625,-35.0,-1,1.0,0.16020000000003165
543,3,0.8,0.125,-35.0,-1,1.0,0.17020000000002256
544,3,0.8,1.0,35.0,1,1.0,0.34389999999984866
545,3,0.8,0.0,-35.0,-1,1.0,0.23630100000013954
546,3,0.8,0.125,-35.0,-1,1.0,0.14030000000002474
547,3,0.8,0.0625,-35.0,-1,1.0,0.19229999999993197
548,3,0.8,0.25,-35.0,-1,1.0,0.17429999999990287
549,3,0.8,1.0,35.0,1,1.0,0.7253009999999449
550,3,0.8,0.25,-35.0,-1,1.0,0.19830100000012862
551,3,0.8,1.0,-35.0,-1,1.0,0.1633009999998194
552,3,0.8,0.125,-35.0,-1,1.0,0.19830099999990125
553,3,0.8,0.0,-35.0,-1,1.0,0.1603010000001177
554,3,0.8,0.125,-35.0,-1,1.0,0.16240000000016153
555,3,0.8,0.0625,-35.0,-1,1.0,0.1773009999999431
556,3,0.8,1.0,-35.0,-1,1.0,0.14350100000001476
557,3,0.8,0.125,-35.0,-1,1.0,0.19139999999993051
558,3,0.8,0.25,35.0,-1,0.0,0.33300100000019484
559,3,0.8,0.25,35.0,1,1.0,0.2523000000001048
560,3,0.8,1.0,35.0,1,1.0,0.25080000000002656
561,3,0.8,0.0625,-35.0,-1,1.0,0.2574010000000726
562,3,0.8,0.25,-35.0,-1,1.0,0.25469999999995707
563,3,0.8,1.0,-35.0,-1,1.0,0.1675000000000182
564,3,0.8,0.0625,35.0,1,1.0,0.31449999999972533
565,3,0.8,1.0,35.0,1,1.0,0.3660010000000966
566,3,0.8,0.125,-35.0,-1,1.0,0.26240099999995437
567,3,0.8,0.0625,35.0,1,1.0,0.6583000000000538
568,3,0.8,0.25,-35.0,-1,1.0,0.19170000000008258
569,3,0.8,0.0,-35.0,-1,1.0,0.2033010000000104
570,3,0.8,0.25,-35.0,-1,1.0,0.18150100000002567
571,3,0.8,1.0,-35.0,-1,1.0,0.19120100000009188
572,3,0.8,0.0,-35.0,-1,1.0,0.09359999999992397
573,3,0.8,0.25,-35.0,-1,1.0,0.20660099999986414
574,3,0.8,0.0625,35.0,-1,0.0,0.19410099999981867
575,3,0.8,0.125,35.0,1,1.0,0.29900099999986196
576,3,0.8,1.0,-35.0,-1,1.0,0.18859999999995125
577,3,0.8,0.0,-35.0,-1,1.0,0.2396009999999933
578,3,0.8,0.25,-35.0,-1,1.0,0.1426010000000133
579,3,0.8,0.25,-35.0,-1,1.0,0.1671010000000024
580,3,0.8,0.25,-35.0,-1,1.0,0.20869999999990796
581,3,0.8,0.125,-35.0,-1,1.0,0.20580099999983759
582,3,0.8,0.25,-35.0,-1,1.0,0.14370099999973718
583,3,0.8,0.0625,-35.0,-1,1.0,0.15270000000009532
584,3,0.8,0.0625,-35.0,-1,1.0,0.17970100000002276
585,3,0.8,0.25,-35.0,-1,1.0,0.1596999999999298
586,3,0.8,1.0,-35.0,-1,1.0,-0.0029990000002726447
587,3,0.8,0.25,35.0,-1,0.0,0.15670000000000073
588,3,0.8,1.0,-35.0,-1,1.0,0.1547009999999318
589,3,0.8,1.0,-35.0,-1,1.0,0.15790099999981067
590,3,0.2,0.125,-35.0,-1,1.0,0.17679999999995744
591,3,0.2,0.125,-35.0,-1,1.0,0.16279999999983374
592,3,0.2,0.125,35.0,-1,0.0,0.1568010000000868
593,3,0.2,1.0,-35.0,-1,1.0,-0.035800000000335785
594,3,0.2,0.25,-35.0,-1,1.0,0.1688010000000304
595,3,0.2,0.25,35.0,1,1.0,0.5544009999998707
596,3,0.2,0.125,-35.0,-1,1.0,0.22890099999995073
597,3,0.2,0.0625,35.0,-1,0.0,0.4938009999998485
598,3,0.2,0.0625,35.0,-1,0.0,0.03489999999987958
599,3,0.2,1.0,35.0,-1,0.0,0.16390100000012353
600,3,0.2,0.25,35.0,1,1.0,0.8833999999997104
601,3,0.2,0.0,35.0,-1,0.0,2.2794009999997797
602,3,0.2,0.25,35.0,1,1.0,0.6170999999997093
603,3,0.2,1.0,-35.0,-1,1.0,0.23300099999983104
604,3,0.2,0.0625,-35.0,-1,1.0,0.4149999999999636
605,3,0.2,0.25,-35.0,-1,1.0,0.16220099999986815
606,3,0.2,0.25,35.0,-1,0.0,0.624800999999934
607,3,0.2,0.125,35.0,-1,0.0,0.22900099999992563
608,3,0.2,0.0625,35.0,1,1.0,0.47600099999999657
609,3,0.2,1.0,35.0,1,1.0,0.0721009999999751
610,3,0.2,1.0,35.0,1,1.0,0.288101000000097
611,3,0.2,0.125,-35.0,-1,1.0,0.21710200000006807
612,3,0.2,0.125,35.0,1,1.0,0.3400019999999131
613,3,0.2,0.25,35.0,1,1.0,0.3475020000000768
614,3,0.2,1.0,35.0,1,1.0,0.6541019999999662
615,3,0.2,1.0,-35.0,-1,1.0,0.32110099999999875
616,3,0.2,0.0,35.0,-1,0.0,0.4302020000000084
617,3,0.2,1.0,-35.0,-1,1.0,0.1701020000000426
618,3,0.2,0.0625,-35.0,-1,1.0,0.27760099999977683
619,3,0.2,0.0625,35.0,1,1.0,0.36320100000011735
620,3,0.2,0.25,-35.0,-1,1.0,0.19720099999995
621,3,0.2,1.0,35.0,1,1.0,0.38310200000000805
622,3,0.2,0.0,35.0,1,1.0,0.6582009999999627
623,3,0.2,0.125,35.0,1,1.0,0.2752020000000357
624,3,0.2,0.0625,-35.0,-1,1.0,0.4814019999998891
625,3,0.2,0.125,35.0,1,1.0,0.4282020000000557
626,3,0.2,0.25,35.0,1,1.0,0.6729019999997945
627,3,0.2,0.0625,35.0,1,1.0,0.26070099999992635
628,3,0.2,0.0625,35.0,1,1.0,0.43830199999979413
629,3,0.2,0.25,35.0,1,1.0,0.5263010000001032
630,3,0.2,0.0,35.0,1,1.0,0.945500999999922
631,3,0.2,0.25,35.0,1,1.0,0.47840199999996
632,3,0.2,0.125,35.0,1,1.0,0.23160100000018247
633,3,0.2,1.0,35.0,1,1.0,0.28040099999998347
634,3,0.2,1.0,35.0,1,1.0,0.4474009999998998
635,3,0.2,0.25,35.0,1,1.0,0.3706009999998514
636,3,0.2,0.0625,35.0,1,1.0,0.37740099999996346
637,3,0.2,0.0,35.0,1,1.0,0.2654009999998834
638,3,0.2,0.125,35.0,1,1.0,0.37340199999994184
639,3,0.2,0.0625,35.0,1,1.0,0.13990100000000893
640,3,0.2,0.125,35.0,1,1.0,0.468501999999944
641,3,0.2,0.25,35.0,1,1.0,0.27030199999990145
642,3,0.2,1.0,35.0,1,1.0,0.3087020000002667
643,3,0.2,0.125,35.0,1,1.0,0.5083009999998467
644,3,0.2,0.0625,-35.0,-1,1.0,0.32290199999988545
645,3,0.2,0.25,35.0,-1,0.0,0.16750199999978577
646,3,0.2,0.0625,-35.0,1,0.0,0.6965019999997821
647,3,0.2,0.25,-35.0,-1,1.0,0.20910200000025725
648,3,0.2,0.125,35.0,-1,0.0,0.32270199999993565
649,3,0.2,0.0,35.0,-1,0.0,0.2783009999998285
650,3,0.2,0.25,-35.0,-1,1.0,0.29300199999988763
651,3,0.2,0.25,35.0,1,1.0,0.3818019999998796
652,3,0.2,0.25,-35.0,-1,1.0,0.25580200000013065
653,3,0.2,1.0,35.0,1,1.0,0.21860199999991892
654,3,0.2,1.0,-35.0,-1,1.0,0.20170099999995728
655,3,0.2,0.25,35.0,1,1.0,0.4856009999998605
656,3,0.2,0.125,35.0,1,1.0,0.4457009999996444
657,3,0.2,0.125,35.0,-1,0.0,0.2767020000001139
658,3,0.2,1.0,35.0,1,1.0,0.4031009999998787
659,3,0.2,0.0,35.0,1,1.0,0.555800999999974
660,3,0.2,0.25,35.0,1,1.0,0.48150100000020757
661,3,0.2,0.25,35.0,1,1.0,0.4453009999997448
662,3,0.2,1.0,35.0,1,1.0,0.4041019999999662
663,3,0.2,0.125,35.0,1,1.0,0.37080199999991237
664,3,0.2,0.0,35.0,1,1.0,0.38580099999990125
665,3,0.2,0.25,35.0,-1,0.0,0.3382019999999102
666,3,0.2,1.0,-35.0,-1,1.0,0.18480100000033417
667,3,0.2,0.25,35.0,1,1.0,0.25880199999983233
668,3,0.2,0.0625,-35.0,-1,1.0,0.39280200000030163
669,3,0.2,0.0625,35.0,-1,0.0,0.5529019999999036
670,3,0.2,0.0625,35.0,-1,0.0,0.21190100000012535
671,3,0.2,0.125,35.0,1,1.0,0.4639009999996233
672,3,0.2,0.0625,35.0,1,1.0,1.2258019999999306
673,3,0.2,0.25,35.0,1,1.0,0.4949010000000271
674,3,0.2,0.125,35.0,1,1.0,0.5369009999999435
675,3,0.8,0.125,35.0,1,1.0,0.6562019999996664
676,3,0.8,0.125,-35.0,-1,1.0,0.31090199999971446
677,3,0.8,1.0,-35.0,-1,1.0,0.20550199999979668
678,3,0.8,0.0625,35.0,1,1.0,0.4469010000002527
679,3,0.8,1.0,-35.0,-1,1.0,0.2529020000001765
680,3,0.8,0.125,35.0,-1,0.0,0.19290200000023106
681,3,0.8,0.0,35.0,1,1.0,0.4640020000001641
682,3,0.8,0.0625,-35.0,-1,1.0,0.24120199999970282
683,3,0.8,0.125,-35.0,-1,1.0,0.17780199999970137
684,3,0.8,0.25,-35.0,-1,1.0,0.1620020000000295
685,3,0.8,0.125,-35.0,-1,1.0,0.24620199999981196
686,3,0.8,0.25,-35.0,-1,1.0,0.319901999999729
687,3,0.8,0.0,-35.0,-1,1.0,0.056000999999923806
688,3,0.8,0.25,-35.0,-1,1.0,-0.05189800000016476
689,3,0.8,0.0,-35.0,1,0.0,0.4816019999998389
