trial_num,session_num,stim_probability_left,contrast,position,response_choice,trial_correct,reaction_time
1,13,0.5,0.25,35.0,-1,0.0,0.42869999999999986
2,13,0.9,0.25,35.0,1,1.0,8.0246
3,13,0.5,0.5,35.0,1,1.0,0.7675999999999981
4,13,0.5,1.0,35.0,1,1.0,0.7628999999999948
5,13,0.5,0.5,-35.0,1,0.0,14.370099999999997
6,13,0.9,0.5,-35.0,-1,1.0,0.427500000000002
7,13,0.5,1.0,-35.0,-1,1.0,0.43769999999999953
8,13,0.5,0.5,35.0,1,1.0,5.627900000000004
9,13,0.5,0.25,35.0,1,1.0,4.058599999999998
10,13,0.5,0.25,-35.0,1,0.0,4.831399999999988
11,13,0.7,0.25,35.0,-1,0.0,0.3277999999999963
12,13,0.5,1.0,35.0,1,1.0,0.29460000000000264
13,13,0.5,0.25,-35.0,-1,1.0,0.5952999999999946
14,13,0.5,1.0,-35.0,-1,1.0,0.7483000000000004
15,13,0.5,0.5,-35.0,-1,1.0,0.2867999999999853
16,13,0.5,0.5,-35.0,-1,1.0,0.26209999999998956
17,13,0.5,0.25,-35.0,1,0.0,11.787199999999999
18,13,0.5,0.25,35.0,1,1.0,1.1522999999999826
19,13,0.5,0.25,-35.0,1,0.0,1.9010999999999996
20,13,0.5,0.25,35.0,1,1.0,0.8443989999999957
21,13,0.5,1.0,35.0,1,1.0,1.81219999999999
22,13,0.5,0.25,-35.0,-1,1.0,0.35310000000001196
23,13,0.5,0.5,-35.0,-1,1.0,0.4993000000000052
24,13,0.5,1.0,-35.0,-1,1.0,4.416999000000004
25,13,0.5,0.25,35.0,1,1.0,0.8115999999999985
26,13,0.5,1.0,-35.0,-1,1.0,0.26699899999999843
27,13,0.5,0.5,35.0,1,1.0,1.8418000000000063
28,13,0.5,0.5,35.0,1,1.0,2.0563999999999965
29,13,0.5,0.25,-35.0,1,0.0,3.0687999999999818
30,13,0.5,0.25,-35.0,1,0.0,4.337800000000016
31,13,0.5,0.25,35.0,1,1.0,0.5081000000000131
32,13,0.5,0.5,-35.0,-1,1.0,0.2372000000000014
33,13,0.5,0.25,-35.0,-1,1.0,0.3435000000000059
34,13,0.5,0.5,-35.0,-1,1.0,0.2581000000000131
35,13,0.5,0.5,-35.0,-1,1.0,0.27319999999997435
36,13,0.5,1.0,-35.0,-1,1.0,2.502098999999987
37,13,0.5,0.5,-35.0,-1,1.0,15.489100000000008
38,13,0.5,1.0,35.0,1,1.0,4.793899999999979
39,13,0.5,0.25,-35.0,1,0.0,2.000499999999988
40,13,0.4,0.25,35.0,1,1.0,3.2931999999999846
41,13,0.5,1.0,-35.0,-1,1.0,0.264899000000014
42,13,0.5,0.25,-35.0,-1,1.0,0.5688000000000102
43,13,0.5,1.0,35.0,1,1.0,0.4100999999999715
44,13,0.5,0.25,35.0,1,1.0,5.962199999999996
45,13,0.5,0.5,35.0,1,1.0,2.541199000000006
46,13,0.5,0.25,-35.0,-1,1.0,0.5215000000000032
47,13,0.5,1.0,-35.0,-1,1.0,1.2135999999999854
48,13,0.5,0.5,-35.0,-1,1.0,1.6949000000000183
49,13,0.5,0.25,-35.0,1,0.0,0.5653000000000361
50,13,0.5,0.25,35.0,-1,0.0,0.3034000000000674
51,13,0.5,0.5,35.0,1,1.0,0.5926000000000613
52,13,0.5,1.0,-35.0,-1,1.0,0.25540000000000873
53,13,0.5,0.5,35.0,1,1.0,0.8089989999999716
54,13,0.5,0.25,-35.0,-1,1.0,4.153500000000065
55,13,0.5,1.0,-35.0,-1,1.0,4.873898999999994
56,13,0.5,0.25,-35.0,-1,1.0,4.071300000000008
57,13,0.5,0.5,-35.0,-1,1.0,0.2962999999999738
58,13,0.5,0.5,35.0,1,1.0,2.9401000000000295
59,13,0.5,1.0,-35.0,-1,1.0,0.7612000000000307
60,13,0.5,0.5,-35.0,-1,1.0,0.6425000000000409
61,13,0.5,1.0,35.0,1,1.0,0.9607000000000312
62,13,0.5,0.25,35.0,1,1.0,3.8343000000000416
63,13,0.5,0.25,-35.0,-1,1.0,0.3368000000000393
64,13,0.5,0.25,-35.0,-1,1.0,0.2650990000000206
65,13,0.5,1.0,-35.0,-1,1.0,0.3371000000000208
66,13,0.5,1.0,-35.0,-1,1.0,0.4829000000000292
67,13,0.5,1.0,35.0,-1,0.0,0.3756000000000199
68,13,0.5,0.25,-35.0,-1,1.0,3.5766000000000417
69,13,0.5,1.0,-35.0,-1,1.0,0.9297000000000253
70,13,0.5,1.0,-35.0,-1,1.0,0.26000000000004775
71,13,0.5,0.5,-35.0,-1,1.0,0.4168000000000234
72,13,0.5,0.5,35.0,1,1.0,4.650000000000034
73,13,0.5,0.5,35.0,1,1.0,0.857799
74,13,0.5,0.5,35.0,1,1.0,2.8386999999999603
75,13,0.5,1.0,-35.0,-1,1.0,0.9598000000000297
76,13,0.5,0.25,-35.0,-1,1.0,2.931500000000028
77,13,0.5,1.0,35.0,1,1.0,1.5600000000000023
78,13,0.5,1.0,35.0,1,1.0,1.252800000000036
79,13,0.5,0.25,-35.0,-1,1.0,0.5837999999999965
80,13,0.5,1.0,35.0,1,1.0,4.455100000000073
81,13,0.5,1.0,-35.0,-1,1.0,0.3537000000000603
82,13,0.5,0.25,35.0,1,1.0,1.3654999999999973
83,13,0.5,0.5,35.0,1,1.0,0.810999000000038
84,13,0.5,1.0,-35.0,-1,1.0,0.2993000000000734
85,13,0.5,1.0,35.0,1,1.0,2.912900000000036
86,13,0.5,0.25,-35.0,-1,1.0,0.34500000000008413
87,13,0.5,1.0,35.0,1,1.0,2.4651000000000067
88,13,0.5,0.25,35.0,1,1.0,2.239399999999989
89,13,0.5,1.0,35.0,1,1.0,6.252900000000011
90,13,0.5,1.0,-35.0,-1,1.0,0.5012000000000398
91,13,0.5,0.25,-35.0,-1,1.0,0.3280000000000314
92,13,0.5,1.0,-35.0,-1,1.0,0.27230000000002974
93,13,0.5,0.25,-35.0,-1,1.0,1.02109999999999
94,13,0.5,1.0,-35.0,-1,1.0,1.7444999999999595
95,13,0.5,0.5,35.0,1,1.0,3.305199000000016
96,13,0.5,0.5,-35.0,-1,1.0,0.23539900000002945
97,13,0.5,0.5,35.0,1,1.0,0.6001990000000319
98,13,0.5,0.5,-35.0,-1,1.0,2.875499999999988
99,13,0.5,0.25,-35.0,1,0.0,0.29719999999997526
100,13,0.3,0.25,-35.0,-1,1.0,0.241800000000012
101,13,0.5,1.0,35.0,-1,0.0,0.3231000000000108
102,13,0.5,0.25,35.0,1,1.0,2.9593999999999596
103,13,0.5,1.0,35.0,1,1.0,2.719100000000026
104,13,0.5,0.5,-35.0,1,0.0,5.2538999999999305
105,13,0.6,0.5,-35.0,-1,1.0,0.2807999999999993
106,13,0.5,0.5,35.0,1,1.0,0.27949899999998706
107,13,0.5,0.5,-35.0,-1,1.0,0.2063989999999194
108,13,0.5,0.25,-35.0,-1,1.0,2.015899999999988
109,13,0.5,1.0,35.0,1,1.0,2.1556000000000495
110,13,0.5,0.5,35.0,1,1.0,1.5735989999999447
111,13,0.5,0.25,35.0,1,1.0,1.7124999999999773
112,13,0.5,0.25,35.0,1,1.0,0.8580999999999221
113,13,0.5,1.0,-35.0,-1,1.0,0.5393999999998869
114,13,0.5,0.5,35.0,1,1.0,1.9015999999999167
115,13,0.5,0.25,-35.0,-1,1.0,0.5104000000000042
116,13,0.5,0.5,-35.0,-1,1.0,0.2478999999999587
117,13,0.5,0.5,35.0,1,1.0,0.21839999999997417
118,13,0.5,1.0,-35.0,-1,1.0,0.2402999999999338
119,13,0.5,0.5,35.0,1,1.0,0.48939900000004855
120,13,0.5,0.25,35.0,1,1.0,1.380899999999997
121,13,0.5,0.25,35.0,1,1.0,2.2854999999999563
122,13,0.5,1.0,-35.0,-1,1.0,0.499300000000062
123,13,0.5,1.0,35.0,1,1.0,0.851799999999912
124,13,0.5,0.5,35.0,1,1.0,0.3870000000000573
125,13,0.5,0.5,35.0,1,1.0,1.6273999999998523
126,13,0.5,0.5,35.0,1,1.0,0.7005999999998949
127,13,0.5,0.25,-35.0,-1,1.0,0.27159999999992124
128,13,0.5,0.5,-35.0,-1,1.0,0.2763999999998532
129,13,0.5,0.5,35.0,-1,0.0,0.20879999999999654
130,13,0.6,0.5,35.0,-1,0.0,0.42649999999991905
131,13,0.5,0.5,35.0,1,1.0,0.6286999999999807
132,13,0.5,0.5,-35.0,-1,1.0,0.6040000000000418
133,13,0.5,0.5,35.0,1,1.0,0.6706990000000133
134,13,0.5,0.25,35.0,1,1.0,0.5448000000000093
135,13,0.5,0.25,35.0,1,1.0,0.46859999999992397
136,13,0.5,1.0,35.0,1,1.0,0.394800000000032
137,13,0.5,1.0,-35.0,-1,1.0,0.2576000000000249
138,13,0.5,1.0,-35.0,-1,1.0,0.3871000000000322
139,13,0.5,1.0,-35.0,-1,1.0,0.24879999999996016
140,13,0.5,0.25,-35.0,-1,1.0,0.5933999999999742
141,13,0.5,0.5,-35.0,-1,1.0,0.24869999999987158
142,13,0.5,0.25,-35.0,1,0.0,0.18529899999998634
143,13,0.5,0.25,-35.0,1,0.0,0.6057000000000698
144,13,0.5,1.0,35.0,1,1.0,0.3750999999999749
145,13,0.5,0.25,-35.0,-1,1.0,0.2608999999998787
146,13,0.5,1.0,35.0,1,1.0,0.39419999999995525
147,13,0.5,0.25,35.0,-1,0.0,0.6268999999999778
148,13,0.4,0.25,35.0,1,1.0,4.293699999999944
149,13,0.5,0.5,-35.0,-1,1.0,0.24490000000002965
150,13,0.5,1.0,35.0,1,1.0,0.7444999999999027
151,13,0.5,1.0,-35.0,-1,1.0,0.2519000000000915
152,13,0.5,1.0,35.0,1,1.0,2.6581999999999653
153,13,0.5,0.25,-35.0,-1,1.0,0.42829999999992197
154,13,0.5,1.0,-35.0,-1,1.0,0.8330999999999449
155,13,0.5,1.0,-35.0,-1,1.0,0.3240000000000691
156,13,0.5,0.5,35.0,1,1.0,1.0891000000000304
157,13,0.5,0.25,35.0,1,1.0,0.537900000000036
158,13,0.5,0.25,35.0,1,1.0,0.4600000000000364
159,13,0.5,0.5,35.0,-1,0.0,0.7712999999998829
160,13,0.5,0.5,-35.0,-1,1.0,0.33009900000001835
161,13,0.5,1.0,35.0,1,1.0,0.5960999999999785
162,13,0.5,1.0,35.0,1,1.0,0.5903999999999314
163,13,0.5,0.5,-35.0,-1,1.0,0.5304999999999609
164,13,0.5,0.25,-35.0,-1,1.0,0.3796999999998434
165,13,0.5,0.5,-35.0,-1,1.0,2.077099999999973
166,13,0.5,0.5,-35.0,-1,1.0,1.019399999999905
167,13,0.5,1.0,35.0,-1,0.0,0.27909999999997126
168,13,0.5,0.25,35.0,1,1.0,4.263400000000047
169,13,0.5,1.0,-35.0,-1,1.0,0.583699999999908
170,13,0.5,1.0,35.0,1,1.0,0.8713999999999942
171,13,0.5,0.5,35.0,1,1.0,1.3170999999998685
172,13,0.5,0.25,-35.0,-1,1.0,0.7319999999999709
173,13,0.5,0.5,35.0,1,1.0,0.5665000000000191
174,13,0.5,0.5,-35.0,-1,1.0,0.39419999999995525
175,13,0.5,0.25,35.0,1,1.0,1.1275999999999158
176,13,0.5,1.0,35.0,1,1.0,0.9525999999999613
177,13,0.5,0.25,35.0,1,1.0,0.40830000000005384
178,13,0.5,0.5,35.0,1,1.0,2.02819999999997
179,13,0.5,1.0,-35.0,-1,1.0,0.42029999999999745
180,13,0.5,1.0,35.0,1,1.0,0.2720999999999094
181,13,0.5,1.0,35.0,1,1.0,1.5002999999999247
182,13,0.5,0.5,35.0,1,1.0,0.5290999999999713
183,13,0.5,0.5,-35.0,-1,1.0,0.5054000000000087
184,13,0.5,0.5,-35.0,-1,1.0,0.26339999999993324
185,13,0.5,0.5,35.0,1,1.0,0.27359999999987394
186,13,0.5,0.5,-35.0,-1,1.0,0.531400000000076
187,13,0.5,1.0,35.0,1,1.0,1.8822999999999865
188,13,0.5,0.25,35.0,1,1.0,1.1213000000000193
189,13,0.5,0.5,-35.0,1,0.0,0.16829999999993106
190,13,0.7,0.5,-35.0,-1,1.0,0.2703989999999976
191,13,0.5,1.0,-35.0,-1,1.0,0.2857999999999947
192,13,0.5,0.25,-35.0,-1,1.0,0.762299999999982
193,13,0.5,0.25,-35.0,1,0.0,1.7443999999999278
194,13,0.5,0.25,-35.0,-1,1.0,0.26120000000003074
195,13,0.5,0.5,35.0,1,1.0,0.14449999999999363
196,13,0.5,0.25,-35.0,1,0.0,6.507099999999923
197,13,0.6,0.25,-35.0,-1,1.0,0.37810000000001764
198,13,0.5,0.5,35.0,1,1.0,0.9338000000000193
199,13,0.5,0.25,35.0,1,1.0,2.7585999999998876
200,13,0.5,1.0,-35.0,-1,1.0,0.32979999999997744
201,13,0.5,0.25,35.0,-1,0.0,0.29579999999998563
202,13,0.5,0.25,35.0,1,1.0,0.5249999999999773
203,13,0.5,0.5,35.0,1,1.0,0.5826999999999316
204,13,0.5,1.0,-35.0,-1,1.0,0.3005000000000564
205,13,0.5,0.25,-35.0,1,0.0,5.690600000000018
206,13,0.6,0.25,-35.0,-1,1.0,0.4703999999999269
207,13,0.5,0.5,-35.0,-1,1.0,0.6837989999999081
208,13,0.5,0.5,35.0,1,1.0,1.0006999999998243
209,13,0.5,1.0,35.0,1,1.0,1.9488000000000056
210,13,0.5,0.25,35.0,1,1.0,0.3977999999998474
211,13,0.5,1.0,-35.0,-1,1.0,0.3206989999999905
212,13,0.5,0.5,35.0,1,1.0,2.621399999999994
213,13,0.5,0.5,35.0,1,1.0,1.1578000000000657
214,13,0.5,0.5,-35.0,-1,1.0,0.2908999999999651
215,13,0.5,0.25,-35.0,-1,1.0,0.23030000000005657
216,13,0.5,0.5,35.0,1,1.0,0.45799999999997
217,13,0.5,0.5,-35.0,-1,1.0,0.3604000000000269
218,13,0.5,0.25,-35.0,1,0.0,2.0680999999999585
219,13,0.6,0.25,-35.0,-1,1.0,0.2671999999997752
220,13,0.5,0.5,-35.0,-1,1.0,0.3451000000000022
221,13,0.5,0.5,35.0,1,1.0,1.904399999999896
222,13,0.5,0.25,-35.0,-1,1.0,1.2885989999999765
223,13,0.5,0.25,-35.0,1,0.0,0.5446999999999207
224,13,0.5,0.25,-35.0,-1,1.0,0.30189999999993233
225,13,0.5,0.5,-35.0,-1,1.0,0.5477989999999409
226,13,0.5,0.5,35.0,1,1.0,0.8421000000000731
227,13,0.5,1.0,-35.0,-1,1.0,0.4959989999999834
228,13,0.5,0.5,35.0,1,1.0,1.5922989999999118
229,13,0.5,0.5,-35.0,-1,1.0,0.38200000000006185
230,13,0.5,0.5,35.0,1,1.0,0.9691000000000258
231,13,0.5,0.5,-35.0,-1,1.0,0.25909999999998945
232,13,0.5,0.25,-35.0,-1,1.0,0.3727000000001226
233,13,0.5,1.0,35.0,1,1.0,1.0361989999998968
234,13,0.5,0.5,35.0,1,1.0,3.1963999999998123
235,13,0.5,0.25,-35.0,-1,1.0,0.21640000000002146
236,13,0.5,0.5,35.0,1,1.0,0.6596999999999298
237,13,0.5,1.0,35.0,1,1.0,0.27289999999993597
238,13,0.5,0.5,35.0,-1,0.0,0.17000000000007276
239,13,0.5,0.5,35.0,1,1.0,0.8664999999998599
240,13,0.5,0.5,35.0,1,1.0,0.27690000000006876
241,13,0.5,0.5,35.0,1,1.0,0.32619900000008784
242,13,0.5,1.0,-35.0,-1,1.0,0.2704000000001088
243,13,0.5,1.0,-35.0,-1,1.0,2.259999999999991
244,13,0.5,1.0,-35.0,-1,1.0,0.6107999999999265
245,13,0.5,1.0,35.0,1,1.0,0.5242000000000644
246,13,0.5,0.25,-35.0,-1,1.0,0.6142000000002099
247,13,0.5,1.0,-35.0,-1,1.0,0.26350000000002183
248,13,0.5,0.5,-35.0,-1,1.0,0.24769999999989523
249,13,0.5,0.25,-35.0,-1,1.0,0.3272999999999229
250,13,0.5,0.25,35.0,1,1.0,0.11440000000015971
251,13,0.5,1.0,-35.0,-1,1.0,0.29099999999994
252,13,0.5,1.0,-35.0,-1,1.0,0.24139999999988504
253,13,0.5,0.5,-35.0,1,0.0,1.057399999999916
254,13,0.3,0.5,35.0,-1,0.0,0.218199999999797
255,13,0.3,0.5,-35.0,-1,1.0,0.5253000000000156
256,13,0.5,1.0,35.0,1,1.0,0.4452990000002046
257,13,0.5,1.0,-35.0,-1,1.0,5.351400000000012
258,13,0.5,0.5,-35.0,-1,1.0,0.5519999999999072
259,13,0.5,1.0,35.0,1,1.0,0.20869999999990796
260,13,0.5,0.5,35.0,-1,0.0,0.5223999999998341
261,13,0.3,0.5,35.0,1,1.0,6.021499999999833
262,13,0.5,1.0,35.0,1,1.0,5.382599999999911
263,13,0.5,0.5,35.0,1,1.0,0.7654999999999745
264,13,0.5,0.25,35.0,1,1.0,2.5995989999998983
265,13,0.5,1.0,35.0,1,1.0,0.812298999999939
266,13,0.5,1.0,-35.0,-1,1.0,0.21649999999999636
267,13,0.5,0.5,-35.0,-1,1.0,1.0366999999998825
268,13,0.5,1.0,-35.0,-1,1.0,0.3699989999997797
269,13,0.5,0.25,-35.0,-1,1.0,0.27359900000010384
270,13,0.5,1.0,35.0,1,1.0,0.19679899999982808
271,13,0.5,0.25,35.0,1,1.0,2.8036999999999352
272,13,0.5,1.0,35.0,1,1.0,1.4570000000001073
273,13,0.5,0.25,35.0,1,1.0,1.2964999999999236
274,13,0.5,1.0,35.0,-1,0.0,0.2706989999999223
275,13,0.5,0.25,-35.0,-1,1.0,0.22679999999991196
276,13,0.5,1.0,35.0,1,1.0,0.8508990000000267
277,13,0.5,0.5,-35.0,-1,1.0,0.3367000000000644
278,13,0.5,0.25,-35.0,1,0.0,0.23440000000005057
279,13,0.6,0.25,35.0,1,1.0,5.690598999999793
280,13,0.5,0.5,-35.0,-1,1.0,2.021199999999908
281,13,0.5,1.0,-35.0,-1,1.0,2.094100000000026
282,13,0.5,0.25,35.0,1,1.0,0.38150000000018736
283,13,0.5,1.0,-35.0,-1,1.0,0.2177999999998974
284,13,0.5,0.25,35.0,1,1.0,0.26510000000007494
285,13,0.5,1.0,-35.0,-1,1.0,0.35779999999999745
286,13,0.5,1.0,-35.0,-1,1.0,0.2583999999999378
287,13,0.5,0.5,35.0,1,1.0,1.4909000000000106
288,13,0.5,1.0,-35.0,-1,1.0,0.4919000000002143
289,13,0.5,0.25,-35.0,-1,1.0,0.3549000000000433
290,13,0.5,0.25,35.0,1,1.0,0.24549999999999272
291,13,0.5,1.0,35.0,1,1.0,0.5285989999997582
292,13,0.5,0.25,-35.0,-1,1.0,0.3158000000000811
293,13,0.5,1.0,35.0,1,1.0,0.22199999999998
294,13,0.5,1.0,-35.0,-1,1.0,0.2424999999998363
295,13,0.5,1.0,35.0,1,1.0,0.2989000000000033
296,13,0.5,1.0,-35.0,-1,1.0,0.45949899999982335
297,13,0.5,0.5,-35.0,-1,1.0,0.9852999999998246
298,13,0.5,1.0,-35.0,-1,1.0,0.22299999999995634
299,13,0.5,0.25,-35.0,1,0.0,0.9657999999999447
300,13,0.5,0.25,35.0,-1,0.0,0.35659899999996014
301,13,0.5,0.5,-35.0,-1,1.0,0.23919999999998254
302,13,0.5,0.5,35.0,1,1.0,0.29690000000005057
303,13,0.5,0.25,35.0,1,1.0,0.1192999999998392
304,13,0.5,1.0,-35.0,-1,1.0,0.39020000000004984
305,13,0.5,1.0,35.0,1,1.0,0.6871999999998479
306,13,0.5,0.5,-35.0,-1,1.0,0.70049999999992
307,13,0.5,0.25,35.0,1,1.0,2.89429999999993
308,13,0.5,1.0,35.0,-1,0.0,0.304300000000012
309,13,0.5,1.0,35.0,1,1.0,1.1205999999999676
310,13,0.5,0.5,-35.0,-1,1.0,0.24440000000004147
311,13,0.5,0.5,35.0,1,1.0,0.12739899999974114
312,13,0.5,1.0,-35.0,-1,1.0,0.13799999999991996
313,13,0.5,1.0,-35.0,-1,1.0,0.31419999999980064
314,13,0.5,0.5,-35.0,-1,1.0,0.23119999999994434
315,13,0.5,0.25,35.0,1,1.0,0.3384000000000924
316,13,0.5,0.5,-35.0,-1,1.0,0.26139900000021044
317,13,0.5,0.25,-35.0,-1,1.0,0.5843999999999596
318,13,0.5,0.25,-35.0,-1,1.0,0.6516999999998916
319,13,0.5,0.5,35.0,1,1.0,1.5711999999998625
320,13,0.5,0.5,-35.0,-1,1.0,0.6984999999999673
321,13,0.5,0.25,-35.0,-1,1.0,0.23749999999995453
322,13,0.5,0.25,-35.0,-1,1.0,0.3219000000001415
323,13,0.5,1.0,-35.0,-1,1.0,0.33839999999986503
324,13,0.5,1.0,-35.0,-1,1.0,0.2923000000000684
325,13,0.5,0.25,35.0,1,1.0,0.9049999999999727
326,13,0.5,0.25,35.0,-1,0.0,0.3688999999999396
327,13,0.2,0.25,35.0,-1,0.0,0.25519999999983156
328,13,0.5,0.5,35.0,1,1.0,3.325700000000097
329,13,0.5,0.25,35.0,1,1.0,6.286599999999908
330,13,0.5,0.25,-35.0,-1,1.0,0.3828000000000884
331,13,0.5,0.5,-35.0,-1,1.0,0.21359899999993104
332,13,0.5,1.0,35.0,-1,0.0,0.5398000000000138
333,13,0.5,0.25,-35.0,-1,1.0,0.30290000000013606
334,13,0.5,0.5,35.0,1,1.0,1.6636990000001788
335,13,0.5,1.0,-35.0,-1,1.0,0.2662000000000262
336,13,0.5,0.25,35.0,1,1.0,6.777000000000044
337,13,0.5,0.25,35.0,-1,0.0,1.9394999999999527
338,13,0.4,0.25,-35.0,-1,1.0,0.31729999999993197
339,13,0.5,1.0,35.0,1,1.0,1.873199999999997
340,13,0.5,1.0,-35.0,-1,1.0,0.28749999999990905
341,13,0.5,1.0,-35.0,-1,1.0,0.21379999999976462
342,13,0.5,0.25,-35.0,1,0.0,3.2543000000000575
343,13,0.4,0.25,35.0,-1,0.0,0.6239000000000487
344,13,0.5,1.0,35.0,1,1.0,6.31490000000008
345,13,0.5,0.5,35.0,1,1.0,0.9710999999997512
346,13,0.5,0.5,-35.0,-1,1.0,0.4615999999998621
347,13,0.5,0.5,35.0,1,1.0,1.2917999999999665
348,13,0.5,1.0,35.0,-1,0.0,0.13839999999981956
349,13,0.5,0.25,35.0,-1,0.0,4.778899999999794
350,13,0.4,0.25,-35.0,-1,1.0,0.2822999999998501
351,13,0.5,0.5,-35.0,-1,1.0,0.2681990000000951
352,13,0.5,0.25,35.0,1,1.0,6.7489989999999125
353,13,0.5,0.5,-35.0,-1,1.0,0.2386989999997695
354,13,0.5,0.5,35.0,1,1.0,2.369498999999905
355,13,0.5,0.5,35.0,-1,0.0,2.0231999999998607
356,13,0.3,0.5,35.0,1,1.0,1.2462000000000444
357,13,0.5,1.0,35.0,1,1.0,2.6455000000000837
358,13,0.5,0.25,-35.0,-1,1.0,0.44299900000009984
359,13,0.5,0.5,-35.0,-1,1.0,0.5955990000002203
360,13,0.5,0.25,35.0,-1,0.0,0.3931999999999789
361,13,0.4,0.25,35.0,-1,0.0,0.3570999999999458
362,13,0.5,0.5,-35.0,-1,1.0,0.27369900000007874
363,13,0.5,0.5,35.0,1,1.0,0.37419999999997344
364,13,0.5,0.25,35.0,1,1.0,0.3635999999999058
365,13,0.5,0.25,-35.0,-1,1.0,0.31009999999992033
366,13,0.5,1.0,35.0,1,1.0,0.6305999999999585
367,13,0.5,0.25,-35.0,-1,1.0,0.46719999999982065
368,13,0.5,0.25,-35.0,-1,1.0,0.24749900000006164
369,13,0.5,1.0,-35.0,-1,1.0,0.2198000000000775
370,13,0.5,0.5,-35.0,-1,1.0,0.2276000000001659
371,13,0.5,0.5,35.0,1,1.0,1.2551989999999478
372,13,0.5,0.5,-35.0,-1,1.0,0.30429899999990084
373,13,0.5,1.0,35.0,1,1.0,0.4213999999999487
374,13,0.5,0.5,-35.0,-1,1.0,0.43469999999979336
375,13,0.5,0.5,-35.0,-1,1.0,0.29369999999994434
376,13,0.5,1.0,35.0,1,1.0,0.14169999999990068
377,13,0.5,0.25,35.0,1,1.0,0.46839999999997417
378,13,0.5,1.0,-35.0,-1,1.0,0.29179999999996653
379,13,0.5,0.5,35.0,1,1.0,0.3483000000001084
380,13,0.5,0.5,35.0,1,1.0,0.48509999999987485
381,13,0.5,1.0,35.0,1,1.0,0.47109999999975116
382,13,0.5,0.25,-35.0,-1,1.0,0.4252999999998792
383,13,0.5,0.5,35.0,1,1.0,1.9414999999999054
384,13,0.5,0.25,-35.0,-1,1.0,0.23899999999980537
385,13,0.5,1.0,35.0,1,1.0,0.8247999999998683
386,13,0.5,1.0,35.0,1,1.0,0.33950000000004366
387,13,0.5,0.25,-35.0,1,0.0,1.0615999999999985
388,13,0.7,0.25,35.0,1,1.0,3.6196000000002186
389,13,0.5,0.5,-35.0,-1,1.0,0.3494999999998072
390,13,0.5,0.5,35.0,1,1.0,0.20959999999990941
391,13,0.5,0.25,-35.0,-1,1.0,0.8659999999999854
392,13,0.5,1.0,35.0,1,1.0,0.7931999999998425
393,13,0.5,0.5,35.0,-1,0.0,0.30559999999991305
394,13,0.5,0.25,35.0,1,1.0,1.3433999999997468
395,13,0.5,0.25,35.0,1,1.0,2.589599999999791
396,13,0.5,0.5,35.0,1,1.0,0.7538990000000467
397,13,0.5,0.5,-35.0,-1,1.0,0.31399999999985084
398,13,0.5,0.5,-35.0,-1,1.0,0.8071990000000824
399,13,0.5,0.5,35.0,1,1.0,0.8297000000000025
400,13,0.5,0.25,-35.0,-1,1.0,0.3007999999999811
401,13,0.5,1.0,-35.0,-1,1.0,0.24999999999977263
402,13,0.5,0.5,35.0,1,1.0,0.9875000000001819
403,13,0.5,0.25,-35.0,-1,1.0,0.35689899999988484
404,13,0.5,0.25,35.0,1,1.0,0.8345009999998183
405,13,0.5,0.25,-35.0,-1,1.0,1.6878010000000359
406,13,0.5,0.25,35.0,1,1.0,0.48460099999988415
407,13,0.5,0.5,-35.0,-1,1.0,0.6908009999999649
408,13,0.5,0.25,35.0,1,1.0,2.125000999999884
409,13,0.5,1.0,35.0,1,1.0,0.1848010000001068
410,13,0.5,1.0,-35.0,-1,1.0,0.21160099999997328
411,13,0.5,1.0,-35.0,-1,1.0,1.0910010000000057
412,13,0.5,1.0,35.0,1,1.0,0.9178009999998267
413,13,0.5,0.25,-35.0,-1,1.0,1.721800999999914
414,13,0.5,1.0,35.0,-1,0.0,0.16550000000006548
415,13,0.4,1.0,-35.0,-1,1.0,0.2552009999999427
416,13,0.5,1.0,-35.0,-1,1.0,0.2856010000000424
417,13,0.5,0.25,-35.0,-1,1.0,0.40820099999973536
418,13,0.5,1.0,35.0,-1,0.0,0.1691009999999551
419,13,0.5,0.25,35.0,-1,0.0,0.3217010000000755
420,13,0.1,0.25,-35.0,-1,1.0,0.34940099999994345
421,13,0.5,0.5,35.0,-1,0.0,0.31870100000014645
422,13,0.1,0.5,-35.0,-1,1.0,0.22970099999997728
423,13,0.5,0.5,35.0,-1,0.0,0.3721009999999296
424,13,0.0,0.5,35.0,1,1.0,0.639699999999948
425,13,0.5,1.0,35.0,1,1.0,2.692301000000043
426,13,0.5,1.0,-35.0,-1,1.0,0.15680099999985941
427,13,0.5,0.5,-35.0,-1,1.0,4.560100999999804
428,13,0.5,1.0,-35.0,-1,1.0,0.45380100000011225
429,13,0.5,0.25,-35.0,-1,1.0,0.7131010000000515
430,13,0.5,0.5,-35.0,-1,1.0,0.5704000000000633
431,13,0.5,1.0,35.0,-1,0.0,0.32010100000024977
432,13,0.5,0.25,-35.0,-1,1.0,0.33720100000005004
433,13,0.5,0.25,-35.0,1,0.0,3.9065999999997985
434,13,0.3,0.25,35.0,-1,0.0,0.2743009999999231
435,13,0.5,0.5,35.0,1,1.0,0.2772010000001046
436,13,0.5,1.0,35.0,-1,0.0,0.2147010000001046
437,13,0.2,1.0,35.0,1,1.0,1.3983009999999467
438,13,0.5,0.5,-35.0,-1,1.0,0.4115009999998165
439,13,0.5,0.25,35.0,1,1.0,5.954400999999962
440,13,0.5,0.25,35.0,1,1.0,0.5484000000001288
441,13,0.5,0.5,35.0,-1,0.0,0.19080099999996492
442,13,0.5,0.5,-35.0,-1,1.0,0.24510099999997692
443,13,0.5,0.5,35.0,1,1.0,2.2044009999999616
444,13,0.5,1.0,35.0,-1,0.0,0.2823009999999613
445,13,0.5,1.0,-35.0,-1,1.0,0.24539999999979045
446,13,0.5,0.5,-35.0,-1,1.0,0.42230100000051607
447,13,0.5,0.5,35.0,1,1.0,0.24120099999981903
448,13,0.5,0.25,-35.0,-1,1.0,1.2523009999999886
449,13,0.5,0.5,35.0,1,1.0,1.879500999999891
450,13,0.5,0.5,-35.0,-1,1.0,0.34940099999994345
451,13,0.5,1.0,35.0,1,1.0,4.101900999999998
452,13,0.5,0.5,-35.0,-1,1.0,1.7530010000000402
453,13,0.5,1.0,-35.0,-1,1.0,0.26870099999996455
454,13,0.5,1.0,35.0,1,1.0,0.4699009999999362
455,13,0.5,0.25,35.0,1,1.0,2.240100999999868
456,13,0.5,1.0,-35.0,-1,1.0,0.23670099999981176
457,13,0.5,0.5,35.0,1,1.0,3.095900999999685
458,13,0.5,0.5,-35.0,-1,1.0,0.300300999999763
459,13,0.5,1.0,35.0,1,1.0,0.45660099999986414
460,13,0.5,1.0,-35.0,-1,1.0,0.5105010000002039
461,13,0.5,0.5,-35.0,-1,1.0,0.45340100000021266
462,13,0.5,0.25,-35.0,-1,1.0,0.6339010000001508
463,13,0.5,1.0,-35.0,-1,1.0,0.4507010000002083
464,13,0.5,0.5,35.0,1,1.0,0.8611009999999624
465,13,0.5,0.5,35.0,1,1.0,1.1177009999996699
466,13,0.5,1.0,35.0,1,1.0,1.3038010000000213
467,13,0.5,1.0,-35.0,-1,1.0,0.7469009999995251
468,13,0.5,0.5,-35.0,-1,1.0,0.2681000000002314
469,13,0.5,0.5,-35.0,-1,1.0,1.1408010000000104
470,13,0.5,1.0,35.0,1,1.0,0.9017010000002301
471,13,0.5,0.5,35.0,1,1.0,0.8719009999999798
472,13,0.5,0.5,-35.0,-1,1.0,0.5620010000002367
473,13,0.5,1.0,-35.0,-1,1.0,0.2409010000001217
474,13,0.5,0.25,35.0,-1,0.0,0.16530099999999948
475,13,0.4,0.25,-35.0,-1,1.0,0.4187010000000555
476,13,0.5,1.0,35.0,1,1.0,0.7721999999998843
477,13,0.5,0.25,35.0,1,1.0,4.9149010000001
478,13,0.5,1.0,-35.0,-1,1.0,0.2391010000001188
479,13,0.5,0.5,35.0,1,1.0,3.27900099999988
480,13,0.5,0.25,35.0,1,1.0,0.2963009999998576
481,13,0.5,1.0,-35.0,-1,1.0,0.5321010000002389
482,13,0.5,0.25,35.0,1,1.0,2.956301000000167
483,13,0.5,0.25,35.0,1,1.0,0.3721009999999296
484,13,0.5,1.0,35.0,1,1.0,0.6698010000000068
485,13,0.5,0.25,-35.0,-1,1.0,0.25250099999993836
486,13,0.5,0.25,35.0,1,1.0,1.1666009999999005
487,13,0.5,0.5,-35.0,-1,1.0,3.9200009999999565
488,13,0.5,1.0,-35.0,-1,1.0,0.2835010000003422
489,13,0.5,0.25,35.0,1,1.0,0.46290099999987433
490,13,0.5,1.0,35.0,1,1.0,0.5402009999997972
491,13,0.5,0.5,-35.0,-1,1.0,0.5632009999999354
492,13,0.5,1.0,35.0,1,1.0,0.43400100000008024
493,13,0.5,0.5,35.0,1,1.0,0.4631009999998241
494,13,0.5,1.0,35.0,1,1.0,0.8039010000002236
495,13,0.5,1.0,-35.0,-1,1.0,0.25420100000019374
496,13,0.5,0.5,-35.0,-1,1.0,0.15770100000008824
497,13,0.5,1.0,-35.0,-1,1.0,0.6442010000000664
498,13,0.5,1.0,35.0,1,1.0,0.2813009999995302
499,13,0.5,0.25,35.0,-1,0.0,0.14130100000011225
500,13,0.5,0.25,-35.0,-1,1.0,0.2579009999999471
501,13,0.5,1.0,35.0,1,1.0,0.44689999999991414
502,13,0.5,0.5,-35.0,-1,1.0,0.40800099999978556
503,13,0.5,1.0,35.0,-1,0.0,0.2474010000000817
504,13,0.3,1.0,35.0,1,1.0,0.2819009999998343
505,13,0.5,0.5,-35.0,-1,1.0,0.2413010000000213
506,13,0.5,0.25,35.0,1,1.0,0.40880099999958475
507,13,0.5,0.5,35.0,1,1.0,0.7145010000003822
508,13,0.5,1.0,35.0,-1,0.0,0.3122009999997317
509,13,0.4,1.0,35.0,-1,0.0,0.6882009999999354
510,13,0.4,1.0,-35.0,-1,1.0,0.47550100000034945
511,13,0.5,1.0,35.0,1,1.0,1.2452010000001792
512,13,0.5,1.0,-35.0,-1,1.0,0.2426009999994676
513,13,0.5,0.25,35.0,1,1.0,2.3757009999999354
514,13,0.5,0.25,-35.0,-1,1.0,0.28620100000034654
515,13,0.5,0.25,35.0,1,1.0,1.5653010000000904
516,13,0.5,0.5,35.0,1,1.0,6.54640100000006
517,13,0.5,1.0,-35.0,1,0.0,1.896701000000121
518,13,0.5,1.0,35.0,1,1.0,1.660001000000193
519,13,0.5,0.5,35.0,1,1.0,0.8824009999998452
520,13,0.5,0.25,35.0,1,1.0,2.3703009999999267
521,13,0.5,0.5,-35.0,-1,1.0,0.5106009999999515
522,13,0.5,1.0,-35.0,-1,1.0,0.34390099999973245
523,13,0.5,0.25,-35.0,-1,1.0,0.6397010000000591
524,13,0.5,0.25,-35.0,-1,1.0,0.2874010000000453
525,13,0.5,0.5,35.0,1,1.0,0.7807010000001355
526,13,0.5,0.5,-35.0,-1,1.0,0.7244009999999435
527,13,0.5,0.5,-35.0,-1,1.0,
528,13,0.5,0.25,35.0,1,1.0,1.1611009999996895
529,13,0.5,1.0,35.0,1,1.0,0.5271010000001297
530,13,0.5,0.25,35.0,1,1.0,0.6544009999997797
531,13,0.5,0.5,-35.0,-1,1.0,0.3268009999997048
532,13,0.5,1.0,-35.0,1,0.0,0.16800100000000384
533,13,0.5,0.25,35.0,-1,0.0,0.24730099999987942
534,13,0.5,0.25,-35.0,-1,1.0,0.25490099999979066
535,13,0.5,0.5,-35.0,-1,1.0,0.6077009999999063
536,13,0.5,0.25,35.0,1,1.0,7.218499999999949
537,13,0.5,0.5,35.0,1,1.0,5.124399999999696
538,13,0.5,1.0,35.0,-1,0.0,0.3756009999997332
539,13,0.5,1.0,-35.0,-1,1.0,0.4791009999999005
540,13,0.5,1.0,35.0,1,1.0,2.422399999999925
541,13,0.5,0.25,35.0,1,1.0,0.6150010000001203
542,13,0.5,0.25,-35.0,-1,1.0,0.22600000000011278
543,13,0.5,0.5,-35.0,1,0.0,0.19600100000025122
544,13,0.5,0.5,35.0,-1,0.0,0.20960100000002058
545,13,0.5,0.5,-35.0,-1,1.0,0.25860099999999875
546,13,0.5,0.5,35.0,1,1.0,0.36950100000012753
547,13,0.5,0.25,35.0,1,1.0,2.2653009999999085
548,13,0.5,0.5,-35.0,1,0.0,0.14330100000006496
549,13,0.6,0.5,-35.0,-1,1.0,0.2530010000000402
550,13,0.5,1.0,35.0,-1,0.0,0.11010100000021339
551,13,0.5,0.25,35.0,1,1.0,4.659300999999687
552,13,0.5,1.0,-35.0,-1,1.0,0.8307010000003174
553,13,0.5,0.5,-35.0,-1,1.0,0.20680099999981394
554,13,0.5,0.5,35.0,1,1.0,0.34720100000004095
555,13,0.5,0.25,-35.0,-1,1.0,0.2272010000001501
556,13,0.5,0.25,35.0,1,1.0,0.7510010000000875
557,13,0.5,0.5,-35.0,-1,1.0,0.3432999999999993
558,13,0.5,0.5,35.0,1,1.0,0.3144009999996342
559,13,0.5,0.25,35.0,-1,0.0,1.7233009999999922
560,13,0.4,0.25,-35.0,-1,1.0,0.24800099999993108
561,13,0.5,1.0,35.0,1,1.0,1.0645009999998365
562,13,0.5,1.0,-35.0,-1,1.0,0.3547009999997499
563,13,0.5,0.5,35.0,1,1.0,0.18070099999977174
564,13,0.5,0.5,35.0,1,1.0,0.4185010000001057
565,13,0.5,0.5,35.0,1,1.0,0.9444009999997434
566,13,0.5,0.25,35.0,1,1.0,0.39530100000001767
567,13,0.5,0.5,-35.0,-1,1.0,0.23450099999990925
568,13,0.5,1.0,-35.0,-1,1.0,0.6718999999998232
569,13,0.5,0.25,35.0,1,1.0,4.124700999999732
570,13,0.5,0.5,35.0,1,1.0,2.0425010000003567
571,13,0.5,0.25,-35.0,-1,1.0,0.4119009999994887
572,13,0.5,0.25,35.0,1,1.0,2.0791009999998096
573,13,0.5,1.0,-35.0,-1,1.0,1.3249010000004091
574,13,0.5,0.25,-35.0,1,0.0,0.22930099999985032
575,13,0.5,0.25,35.0,1,1.0,0.7187009999997827
576,13,0.5,0.5,35.0,1,1.0,2.05619999999999
577,13,0.5,0.25,-35.0,-1,1.0,2.082601000000068
578,13,0.5,0.25,-35.0,-1,1.0,0.16660099999990052
579,13,0.5,0.25,-35.0,-1,1.0,1.073500999999851
580,13,0.5,0.5,-35.0,-1,1.0,0.3099000000001979
581,13,0.5,0.125,-35.0,-1,1.0,0.19250100000044768
582,13,0.5,0.5,35.0,1,1.0,4.103500999999596
583,13,0.5,0.5,35.0,1,1.0,0.5866009999999733
584,13,0.5,0.5,35.0,1,1.0,1.4007010000000264
585,13,0.5,0.25,35.0,1,1.0,0.9637009999996735
586,13,0.5,1.0,-35.0,-1,1.0,0.43410099999982776
587,13,0.5,1.0,35.0,1,1.0,0.6598010000002432
588,13,0.5,0.25,35.0,1,1.0,1.4741010000002461
589,13,0.5,0.5,-35.0,-1,1.0,1.0068009999999958
590,13,0.5,1.0,35.0,1,1.0,2.3510009999999966
591,13,0.5,0.25,-35.0,-1,1.0,0.4270010000000184
592,13,0.5,1.0,-35.0,-1,1.0,0.6414009999998598
593,13,0.5,0.125,35.0,1,1.0,3.3707009999998263
594,13,0.5,0.5,35.0,1,1.0,0.3684010000001763
595,13,0.5,0.25,-35.0,-1,1.0,0.3108009999996284
596,13,0.5,0.125,-35.0,-1,1.0,0.2316009999999551
597,13,0.5,1.0,-35.0,-1,1.0,0.2342009999997572
598,13,0.5,1.0,35.0,1,1.0,1.3387010000001283
599,13,0.5,1.0,35.0,1,1.0,1.9948009999998249
600,13,0.5,1.0,35.0,-1,0.0,0.33220099999971353
601,13,0.5,0.25,-35.0,-1,1.0,0.2455009999998765
602,13,0.5,1.0,35.0,1,1.0,4.202301000000261
603,13,0.5,1.0,-35.0,-1,1.0,0.9420010000003458
604,13,0.5,1.0,35.0,1,1.0,3.942700999999488
605,13,0.5,0.5,35.0,-1,0.0,0.3153010000000904
606,13,0.4,0.5,35.0,1,1.0,47.58630099999982
607,13,0.5,0.5,-35.0,-1,1.0,0.4067009999998845
608,13,0.5,0.125,-35.0,-1,1.0,7.291001000000051
609,13,0.5,0.5,35.0,1,1.0,0.5273009999996248
610,13,0.5,1.0,-35.0,-1,1.0,7.371401000000333
611,13,0.5,0.5,-35.0,-1,1.0,0.16440099999999802
612,13,0.5,0.125,-35.0,-1,1.0,3.6218999999996413
613,13,0.5,0.5,35.0,1,1.0,2.3114009999999325
614,13,0.5,0.25,-35.0,1,0.0,5.062100999999984
615,13,0.4,0.25,35.0,1,1.0,4.39790099999982
616,13,0.5,0.5,35.0,1,1.0,7.775699999999688
617,13,0.5,0.5,-35.0,-1,1.0,7.548600999999962
618,13,0.5,0.125,-35.0,-1,1.0,4.669901000000209
619,13,0.5,1.0,35.0,1,1.0,4.122200000000248
620,13,0.5,0.125,-35.0,-1,1.0,4.250200999999834
621,13,0.5,0.5,35.0,1,1.0,4.492600000000039
622,13,0.5,0.125,-35.0,-1,1.0,0.7338999999997213
623,13,0.5,0.125,35.0,1,1.0,0.4207010000000082
624,13,0.5,0.25,-35.0,-1,1.0,0.47060099999998783
625,13,0.5,0.5,35.0,1,1.0,0.6398010000002614
626,13,0.5,0.5,35.0,1,1.0,7.467400999999882
627,13,0.5,0.5,35.0,1,1.0,3.5700010000000475
628,13,0.5,0.5,-35.0,-1,1.0,0.24790100000018356
629,13,0.5,0.125,35.0,1,1.0,2.8338010000002214
630,13,0.5,1.0,-35.0,-1,1.0,0.24490099999957238
631,13,0.5,0.5,-35.0,-1,1.0,0.30890099999987797
632,13,0.5,1.0,-35.0,-1,1.0,0.6617009999999937
633,13,0.5,0.25,35.0,1,1.0,1.1249009999996815
634,13,0.5,1.0,-35.0,-1,1.0,0.19180099999994127
1,14,0.5,0.5,35.0,1,1.0,3.9475
2,14,0.5,0.125,-35.0,1,0.0,17.5409
3,14,1.0,0.125,-35.0,-1,1.0,0.3094999999999999
4,14,0.5,0.5,-35.0,-1,1.0,0.4585010000000054
5,14,0.5,0.125,-35.0,-1,1.0,0.33270100000000014
6,14,0.5,0.5,-35.0,-1,1.0,0.3363999999999976
7,14,0.5,0.125,-35.0,-1,1.0,2.0441000000000003
8,14,0.5,0.25,35.0,-1,0.0,0.28410000000000224
9,14,0.5,0.25,35.0,1,1.0,0.23250099999999918
10,14,0.5,0.125,-35.0,-1,1.0,1.8532999999999973
11,14,0.5,0.5,35.0,1,1.0,0.18329999999999558
12,14,0.5,1.0,35.0,-1,0.0,0.9730009999999965
13,14,0.2,1.0,-35.0,-1,1.0,0.29589999999998895
14,14,0.5,1.0,-35.0,-1,1.0,0.21970000000000312
15,14,0.5,1.0,35.0,-1,0.0,0.2904009999999886
16,14,0.5,0.125,-35.0,1,0.0,1.9713009999999969
17,14,0.3,0.125,35.0,-1,0.0,0.2775000000000034
18,14,0.5,1.0,35.0,1,1.0,0.48520000000000607
19,14,0.5,0.125,-35.0,1,0.0,14.31880000000001
20,14,0.5,0.25,35.0,1,1.0,0.39289999999999736
21,14,0.5,0.25,35.0,1,1.0,1.3448000000000064
22,14,0.5,0.125,-35.0,1,0.0,4.193201000000002
23,14,0.5,0.125,-35.0,-1,1.0,0.34959999999998104
24,14,0.5,0.125,35.0,1,1.0,2.9175000000000466
25,14,0.5,0.25,35.0,1,1.0,0.9779000000000053
26,14,0.5,0.125,-35.0,-1,1.0,0.27650100000002453
27,14,0.5,0.125,-35.0,1,0.0,2.227800000000002
28,14,0.8,0.125,35.0,1,1.0,2.788499999999999
29,14,0.5,1.0,-35.0,-1,1.0,0.42220100000000116
30,14,0.5,1.0,35.0,1,1.0,0.3765000000000214
31,14,0.5,1.0,-35.0,-1,1.0,4.216799999999978
32,14,0.5,0.5,-35.0,-1,1.0,0.4417010000000232
33,14,0.5,1.0,-35.0,-1,1.0,0.5879999999999939
34,14,0.5,0.5,35.0,1,1.0,5.778901000000019
35,14,0.5,1.0,-35.0,-1,1.0,1.5112000000000023
36,14,0.5,1.0,-35.0,-1,1.0,0.48500000000001364
37,14,0.5,0.25,-35.0,-1,1.0,0.2639000000000067
38,14,0.5,0.25,-35.0,-1,1.0,0.49270100000001094
39,14,0.5,0.125,35.0,1,1.0,0.16570000000001528
40,14,0.5,1.0,35.0,1,1.0,2.334801000000027
41,14,0.5,0.5,35.0,-1,0.0,0.27090100000000916
42,14,0.3,0.5,35.0,1,1.0,0.3937999999999988
43,14,0.5,1.0,35.0,1,1.0,2.581700000000012
44,14,0.5,0.125,-35.0,1,0.0,1.1788999999999987
45,14,0.5,0.125,-35.0,1,0.0,0.26120000000003074
46,14,0.5,1.0,35.0,1,1.0,0.23159999999998604
47,14,0.5,1.0,35.0,1,1.0,2.010500000000036
48,14,0.5,0.25,-35.0,-1,1.0,0.2558010000000195
49,14,0.5,0.25,-35.0,-1,1.0,0.5983010000000206
50,14,0.5,0.5,-35.0,-1,1.0,0.542601000000019
51,14,0.5,0.125,35.0,-1,0.0,0.18200000000001637
52,14,0.6,0.125,35.0,1,1.0,0.24890000000002033
53,14,0.5,0.5,35.0,1,1.0,2.857500000000016
54,14,0.5,0.5,35.0,1,1.0,0.40039999999999054
55,14,0.5,0.125,-35.0,-1,1.0,0.7213999999999601
56,14,0.5,1.0,35.0,1,1.0,0.11520100000001321
57,14,0.5,0.25,35.0,1,1.0,0.11169999999998481
58,14,0.5,0.25,35.0,1,1.0,0.41599999999994
59,14,0.5,0.5,35.0,1,1.0,0.3302999999999656
60,14,0.5,0.25,-35.0,1,0.0,0.38810000000000855
61,14,0.5,0.125,-35.0,1,0.0,0.25820099999998547
62,14,0.5,0.25,-35.0,-1,1.0,0.245900000000006
63,14,0.5,0.5,35.0,1,1.0,0.4568999999999619
64,14,0.5,0.125,35.0,1,1.0,0.25440100000002985
65,14,0.5,0.125,-35.0,-1,1.0,0.31350099999997383
66,14,0.5,0.25,35.0,1,1.0,0.11800099999999247
67,14,0.5,0.5,35.0,1,1.0,0.7478000000000407
68,14,0.5,1.0,35.0,1,1.0,0.3167999999999438
69,14,0.5,0.25,35.0,-1,0.0,0.1390999999999849
70,14,0.7,0.25,-35.0,-1,1.0,0.6090999999999553
71,14,0.5,1.0,-35.0,1,0.0,0.25039999999995644
72,14,0.5,0.125,35.0,-1,0.0,0.34910100000001876
73,14,0.5,0.125,-35.0,-1,1.0,0.26659999999998263
74,14,0.5,1.0,-35.0,-1,1.0,0.24689999999998236
75,14,0.5,0.125,35.0,1,1.0,0.3524009999999862
76,14,0.5,0.5,35.0,1,1.0,0.28669999999993934
77,14,0.5,0.5,-35.0,1,0.0,0.1625999999999408
78,14,0.5,0.5,-35.0,-1,1.0,0.8888000000000034
79,14,0.5,0.5,35.0,1,1.0,0.6083999999999605
80,14,0.5,0.5,-35.0,1,0.0,0.10630000000003292
81,14,0.5,0.125,-35.0,1,0.0,0.13140099999998256
82,14,0.6,0.125,-35.0,-1,1.0,7.732699999999966
83,14,0.5,0.5,35.0,1,1.0,5.719999999999914
84,14,0.5,0.125,-35.0,-1,1.0,0.43770099999994727
85,14,0.5,0.125,-35.0,-1,1.0,0.2733000000000061
86,14,0.5,0.125,-35.0,1,0.0,0.6096000000000004
87,14,0.6,0.125,-35.0,-1,1.0,2.7506009999999605
88,14,0.5,0.5,35.0,1,1.0,0.35960099999999784
89,14,0.5,1.0,35.0,1,1.0,5.477700000000027
90,14,0.5,1.0,-35.0,-1,1.0,0.27949999999998454
91,14,0.5,0.5,-35.0,-1,1.0,0.7244999999999777
92,14,0.5,0.5,35.0,1,1.0,0.24639999999999418
93,14,0.5,0.25,-35.0,-1,1.0,0.22749999999996362
94,14,0.5,0.25,35.0,-1,0.0,0.3673009999999408
95,14,0.5,0.125,35.0,-1,0.0,0.212600000000009
96,14,0.4,0.125,35.0,-1,0.0,0.3319010000000162
97,14,0.5,0.5,35.0,1,1.0,0.33960000000001855
98,14,0.5,0.125,-35.0,-1,1.0,0.23190099999999347
99,14,0.5,1.0,-35.0,-1,1.0,0.3738999999999919
100,14,0.5,0.25,-35.0,-1,1.0,0.2567009999999641
101,14,0.5,0.5,-35.0,-1,1.0,0.11660000000000537
102,14,0.5,0.25,-35.0,-1,1.0,0.21610000000003993
103,14,0.5,0.125,-35.0,-1,1.0,0.25130000000001473
104,14,0.5,0.5,-35.0,-1,1.0,0.7677999999999656
105,14,0.5,0.25,35.0,1,1.0,0.13670099999995955
106,14,0.5,0.5,-35.0,1,0.0,0.08840000000003556
107,14,0.5,0.25,35.0,1,1.0,1.0124999999999886
108,14,0.5,0.5,35.0,1,1.0,0.40210000000001855
109,14,0.5,0.125,35.0,1,1.0,0.3204999999999245
110,14,0.5,0.125,-35.0,1,0.0,0.244199999999978
111,14,0.6,0.125,-35.0,-1,1.0,0.46940000000000737
112,14,0.5,0.5,-35.0,-1,1.0,0.5979009999999789
113,14,0.5,1.0,-35.0,1,0.0,1.696899999999971
114,14,0.5,0.25,-35.0,-1,1.0,0.2514000000001033
115,14,0.5,0.125,35.0,1,1.0,0.39980100000002494
116,14,0.5,0.25,-35.0,-1,1.0,1.00750000000005
117,14,0.5,1.0,-35.0,-1,1.0,0.2352009999999609
118,14,0.5,0.25,-35.0,1,0.0,0.20350099999996019
119,14,0.5,0.25,35.0,1,1.0,0.22110000000009222
120,14,0.5,0.5,35.0,1,1.0,0.8675010000000611
121,14,0.5,0.25,-35.0,-1,1.0,0.5358000000001084
122,14,0.5,0.125,-35.0,1,0.0,0.4668010000000322
123,14,0.6,0.125,-35.0,1,0.0,0.6033009999999877
124,14,0.5,0.5,-35.0,-1,1.0,0.2420000000000755
125,14,0.5,0.25,-35.0,1,0.0,2.500201000000061
126,14,0.5,0.125,35.0,1,1.0,0.24930000000006203
127,14,0.5,1.0,-35.0,1,0.0,0.1107000000000653
128,14,0.8,1.0,-35.0,-1,1.0,0.2924009999999271
129,14,0.5,0.5,-35.0,1,0.0,2.098901000000069
130,14,0.7,0.5,-35.0,-1,1.0,0.22020000000009077
131,14,0.5,0.5,-35.0,-1,1.0,0.38550000000009277
132,14,0.5,0.25,35.0,-1,0.0,0.2941010000000688
133,14,0.5,0.25,35.0,1,1.0,0.4153999999999769
134,14,0.5,0.5,35.0,1,1.0,0.1869010000000344
135,14,0.5,1.0,35.0,1,1.0,2.321899999999914
136,14,0.5,0.5,-35.0,-1,1.0,1.4733999999999696
137,14,0.5,1.0,-35.0,-1,1.0,0.31520000000000437
138,14,0.5,0.25,35.0,1,1.0,0.3802010000000564
139,14,0.5,0.125,-35.0,-1,1.0,0.4046000000000731
140,14,0.5,0.5,35.0,1,1.0,2.248600000000124
141,14,0.5,1.0,-35.0,-1,1.0,0.7161000000000968
142,14,0.5,1.0,35.0,1,1.0,0.1668010000000777
143,14,0.5,0.125,-35.0,-1,1.0,0.2152010000000928
144,14,0.5,0.25,-35.0,-1,1.0,4.767400000000066
145,14,0.5,0.125,-35.0,-1,1.0,0.34350000000006276
146,14,0.5,0.5,35.0,1,1.0,0.4855999999999767
147,14,0.5,1.0,-35.0,-1,1.0,0.7022010000000591
148,14,0.5,0.125,35.0,1,1.0,0.19810000000006767
149,14,0.5,0.125,35.0,-1,0.0,0.32530000000008386
150,14,0.4,0.125,35.0,1,1.0,0.25840099999993527
151,14,0.5,1.0,-35.0,-1,1.0,0.39340100000003986
152,14,0.5,0.125,-35.0,1,0.0,0.1162010000000464
153,14,0.5,0.125,-35.0,-1,1.0,0.24640000000010787
154,14,0.5,0.25,-35.0,1,0.0,0.16360100000008515
155,14,0.5,0.25,35.0,1,1.0,0.21280100000001312
156,14,0.5,1.0,-35.0,-1,1.0,3.97930000000008
157,14,0.5,0.125,35.0,1,1.0,0.38010000000008404
158,14,0.5,0.25,-35.0,-1,1.0,0.2216000000000804
159,14,0.5,0.25,35.0,1,1.0,0.38590099999998984
160,14,0.5,1.0,-35.0,-1,1.0,0.7291999999999916
161,14,0.5,1.0,-35.0,-1,1.0,0.2194000000000642
162,14,0.5,1.0,35.0,1,1.0,0.9470000000001164
163,14,0.5,0.125,35.0,-1,0.0,0.4736999999998943
164,14,0.5,0.125,35.0,1,1.0,0.1871000000001004
165,14,0.5,0.5,-35.0,-1,1.0,0.2584000000000515
166,14,0.5,1.0,35.0,1,1.0,0.9813010000000304
167,14,0.5,0.125,35.0,1,1.0,2.5375000000000227
168,14,0.5,0.5,35.0,1,1.0,2.3264010000000326
169,14,0.5,0.25,-35.0,-1,1.0,0.25290000000006785
170,14,0.5,0.5,-35.0,-1,1.0,0.21860000000003765
171,14,0.5,0.0625,-35.0,1,0.0,0.5599000000000842
172,14,0.6,0.0625,35.0,1,1.0,0.5095000000001164
173,14,0.5,0.5,-35.0,-1,1.0,0.5205999999999449
174,14,0.5,0.5,35.0,1,1.0,2.7898999999999887
175,14,0.5,0.25,35.0,1,1.0,0.15269999999998163
176,14,0.5,0.125,-35.0,1,0.0,0.3706000000000813
177,14,0.5,0.25,35.0,1,1.0,0.26250100000004295
178,14,0.5,1.0,-35.0,-1,1.0,0.3278010000000222
179,14,0.5,0.125,-35.0,1,0.0,1.9598009999999704
180,14,0.7,0.125,-35.0,-1,1.0,0.4124000000001615
181,14,0.5,1.0,-35.0,-1,1.0,0.32130099999994854
182,14,0.5,0.0625,35.0,1,1.0,2.6638000000000375
183,14,0.5,0.5,35.0,1,1.0,0.45090000000004693
184,14,0.5,0.5,-35.0,1,0.0,0.10710000000005948
185,14,0.5,0.25,-35.0,-1,1.0,0.25090099999999893
186,14,0.5,0.125,35.0,1,1.0,0.2834010000000262
187,14,0.5,1.0,35.0,1,1.0,0.45030099999996764
188,14,0.5,0.5,-35.0,-1,1.0,0.6250000000001137
189,14,0.5,0.5,35.0,1,1.0,3.508901000000151
190,14,0.5,0.25,-35.0,1,0.0,0.29300000000000637
191,14,0.5,0.0625,35.0,-1,0.0,0.28320000000007894
192,14,0.5,0.125,-35.0,1,0.0,0.1309000000001106
193,14,0.7,0.125,35.0,1,1.0,0.47090000000002874
194,14,0.5,1.0,-35.0,-1,1.0,0.25879999999995107
195,14,0.5,0.125,-35.0,-1,1.0,4.943900999999983
196,14,0.5,0.125,35.0,1,1.0,1.035301000000004
197,14,0.5,0.125,35.0,1,1.0,1.809900999999968
198,14,0.5,0.5,-35.0,-1,1.0,0.3688000000000784
199,14,0.5,0.5,-35.0,-1,1.0,0.5193010000000413
200,14,0.5,0.25,-35.0,-1,1.0,1.2179000000000997
201,14,0.5,0.125,-35.0,-1,1.0,0.28710000000000946
202,14,0.5,0.125,35.0,1,1.0,6.597401000000104
203,14,0.5,0.25,35.0,1,1.0,0.37400000000002365
204,14,0.5,0.25,35.0,1,1.0,1.1277999999999793
205,14,0.5,1.0,-35.0,-1,1.0,0.23240000000009786
206,14,0.5,0.125,-35.0,-1,1.0,6.174701000000027
207,14,0.5,1.0,-35.0,-1,1.0,0.5441010000000688
208,14,0.5,0.125,-35.0,-1,1.0,0.11550099999999475
209,14,0.5,0.125,35.0,-1,0.0,0.37320100000010825
210,14,0.5,0.25,35.0,1,1.0,0.7751010000000633
211,14,0.5,0.125,35.0,-1,0.0,1.1943009999999958
212,14,0.4,0.125,-35.0,-1,1.0,0.6783000000000357
213,14,0.5,1.0,35.0,1,1.0,1.0116010000000415
214,14,0.5,0.5,-35.0,-1,1.0,0.5767000000000735
215,14,0.5,1.0,-35.0,-1,1.0,0.42809999999997217
216,14,0.5,0.25,35.0,1,1.0,0.42279999999993834
217,14,0.5,0.5,35.0,1,1.0,2.020801000000006
218,14,0.5,0.5,-35.0,1,0.0,0.11530000000004748
219,14,0.5,0.125,35.0,1,1.0,0.7697010000000546
220,14,0.5,1.0,-35.0,-1,1.0,2.2279000000000906
221,14,0.5,0.0625,35.0,1,1.0,0.38360000000011496
222,14,0.5,0.5,35.0,1,1.0,2.7862010000000055
223,14,0.5,0.125,35.0,1,1.0,0.4714010000001281
224,14,0.5,0.0625,35.0,1,1.0,1.7096000000001368
225,14,0.5,0.25,-35.0,-1,1.0,0.6812000000001035
226,14,0.5,0.125,-35.0,1,0.0,1.7164999999999964
227,14,0.8,0.125,-35.0,1,0.0,1.1547000000001617
228,14,0.5,1.0,35.0,1,1.0,0.4105010000000675
229,14,0.5,0.125,-35.0,-1,1.0,2.3853000000000293
230,14,0.5,0.25,-35.0,1,0.0,1.6539000000000215
231,14,0.5,0.25,-35.0,1,0.0,0.25869999999997617
232,14,0.5,0.125,-35.0,-1,1.0,0.6515009999998256
233,14,0.5,0.125,-35.0,1,0.0,1.4622999999999138
234,14,0.7,0.125,-35.0,-1,1.0,0.2575000000001637
235,14,0.5,1.0,-35.0,-1,1.0,0.47910000000001673
236,14,0.5,0.125,-35.0,-1,1.0,0.5976000000000568
237,14,0.5,0.25,35.0,1,1.0,0.5459000000000742
238,14,0.5,0.0625,35.0,1,1.0,0.17110000000025138
239,14,0.5,0.0625,35.0,1,1.0,2.806201000000101
240,14,0.5,1.0,35.0,1,1.0,0.3781010000000151
241,14,0.5,0.125,35.0,-1,0.0,0.1062010000000555
242,14,0.5,0.25,-35.0,-1,1.0,0.2517009999999118
243,14,0.5,0.0625,35.0,1,1.0,5.173000000000002
244,14,0.5,0.125,-35.0,1,0.0,0.4957999999999174
245,14,0.6,0.125,-35.0,-1,1.0,1.240301000000045
246,14,0.5,1.0,35.0,-1,0.0,0.26279999999997017
247,14,0.5,0.0625,-35.0,-1,1.0,0.4071000000001277
248,14,0.5,0.125,35.0,1,1.0,0.8327999999999065
249,14,0.5,0.125,35.0,1,1.0,0.35730000000012296
250,14,0.5,0.0625,35.0,1,1.0,0.3591000000001259
251,14,0.5,0.25,35.0,1,1.0,1.54420099999993
252,14,0.5,0.25,-35.0,-1,1.0,0.5429000000001452
253,14,0.5,1.0,35.0,1,1.0,0.1744010000002163
254,14,0.5,0.25,-35.0,-1,1.0,0.576001000000133
255,14,0.5,0.125,-35.0,-1,1.0,0.6179999999999382
256,14,0.5,0.5,-35.0,-1,1.0,0.2494010000000344
257,14,0.5,0.5,-35.0,-1,1.0,0.561200000000099
258,14,0.5,0.5,-35.0,-1,1.0,0.43990000000007967
259,14,0.5,0.25,35.0,1,1.0,0.3248000000000957
260,14,0.5,1.0,35.0,1,1.0,0.863399999999956
261,14,0.5,0.5,-35.0,-1,1.0,0.4513999999999214
262,14,0.5,0.125,-35.0,-1,1.0,0.203899999999976
263,14,0.5,1.0,-35.0,-1,1.0,0.33520100000009734
264,14,0.5,1.0,35.0,1,1.0,0.3670000000001892
265,14,0.5,0.25,35.0,1,1.0,1.2952000000000226
266,14,0.5,0.5,35.0,-1,0.0,0.28449999999998
267,14,0.4,0.5,35.0,1,1.0,1.7954999999999472
268,14,0.5,1.0,35.0,1,1.0,4.200900000000047
269,14,0.5,1.0,35.0,1,1.0,0.7991000000001804
270,14,0.5,0.0625,-35.0,1,0.0,0.3610000000001037
271,14,0.5,0.125,35.0,1,1.0,0.5262000000000171
272,14,0.5,1.0,-35.0,-1,1.0,0.38220000000001164
273,14,0.5,1.0,35.0,1,1.0,1.3396010000001297
274,14,0.5,0.5,35.0,1,1.0,0.9952010000001792
275,14,0.5,0.25,35.0,1,1.0,0.32989999999995234
276,14,0.5,0.125,-35.0,1,0.0,1.2883009999998194
277,14,0.9,0.125,-35.0,-1,1.0,0.2398009999999431
278,14,0.5,0.5,-35.0,-1,1.0,0.20520100000021557
279,14,0.5,1.0,35.0,1,1.0,0.1835000000000946
280,14,0.5,1.0,35.0,1,1.0,0.2453010000001541
281,14,0.5,0.25,-35.0,1,0.0,0.11720000000013897
282,14,0.7,0.25,-35.0,-1,1.0,0.38229999999998654
283,14,0.5,1.0,-35.0,-1,1.0,0.20070099999998092
284,14,0.5,0.5,35.0,1,1.0,0.7794000000001233
285,14,0.5,0.0625,35.0,1,1.0,0.7507000000000517
286,14,0.5,0.5,-35.0,-1,1.0,0.8396000000000186
287,14,0.5,1.0,-35.0,-1,1.0,0.2610010000000784
288,14,0.5,0.5,35.0,1,1.0,0.32290000000011787
289,14,0.5,0.5,-35.0,1,0.0,0.09459999999990032
290,14,0.6,0.5,-35.0,-1,1.0,0.3334010000000944
291,14,0.5,0.5,35.0,1,1.0,0.17480000000000473
292,14,0.5,0.125,-35.0,-1,1.0,0.21040000000016335
293,14,0.5,0.0625,-35.0,1,0.0,0.16840000000001965
294,14,0.5,0.25,35.0,1,1.0,0.6005999999999858
295,14,0.5,0.5,-35.0,-1,1.0,0.3485000000000582
296,14,0.5,0.125,-35.0,-1,1.0,0.2705999999998312
297,14,0.5,0.125,35.0,1,1.0,0.6188010000003032
298,14,0.5,0.5,35.0,1,1.0,1.0710010000000239
299,14,0.5,0.25,-35.0,-1,1.0,0.10529999999994288
300,14,0.5,0.0625,-35.0,-1,1.0,0.4005010000000766
301,14,0.5,0.5,35.0,1,1.0,1.9891000000000076
302,14,0.5,0.0625,35.0,1,1.0,1.6876999999999498
303,14,0.5,0.25,-35.0,-1,1.0,0.6791000000002896
304,14,0.5,1.0,-35.0,1,0.0,0.184601000000157
305,14,0.5,1.0,-35.0,-1,1.0,0.4895000000001346
306,14,0.5,1.0,-35.0,-1,1.0,0.27120000000013533
307,14,0.5,0.0625,35.0,-1,0.0,0.12640000000010332
308,14,0.5,0.0625,-35.0,-1,1.0,0.2216000000000804
309,14,0.5,0.25,-35.0,1,0.0,0.10969999999997526
310,14,0.4,0.25,35.0,-1,0.0,0.20259999999984757
311,14,0.5,1.0,35.0,1,1.0,0.5966000000000804
312,14,0.5,0.25,35.0,1,1.0,0.18870000000015352
313,14,0.5,0.125,35.0,1,1.0,0.4470000000001164
314,14,0.5,0.5,35.0,1,1.0,0.7327009999999063
315,14,0.5,0.125,-35.0,-1,1.0,0.11370099999999184
316,14,0.5,0.0625,-35.0,-1,1.0,0.28290000000015425
317,14,0.5,0.125,35.0,1,1.0,0.21050000000013824
318,14,0.5,0.0625,35.0,1,1.0,1.3959000000002106
319,14,0.5,0.125,35.0,1,1.0,1.087601000000177
320,14,0.5,1.0,-35.0,-1,1.0,0.3400000000001455
321,14,0.5,0.5,-35.0,1,0.0,0.12450000000012551
322,14,0.5,0.0625,35.0,1,1.0,0.9229000000000269
323,14,0.5,0.0625,35.0,1,1.0,3.1748000000000047
324,14,0.5,0.125,35.0,1,1.0,1.2269000000001142
325,14,0.5,0.5,35.0,1,1.0,0.4748010000000704
326,14,0.5,0.5,-35.0,1,0.0,5.606899999999996
327,14,0.5,0.0625,35.0,1,1.0,1.1152999999999338
328,14,0.5,0.0625,-35.0,-1,1.0,0.3210999999998876
329,14,0.5,0.25,-35.0,-1,1.0,0.38540100000000166
330,14,0.5,0.25,-35.0,-1,1.0,0.35389999999983957
331,14,0.5,0.125,35.0,1,1.0,2.6425000000001546
332,14,0.5,0.125,-35.0,-1,1.0,0.8041010000001734
333,14,0.5,0.0625,35.0,1,1.0,1.2958999999998468
334,14,0.5,1.0,35.0,1,1.0,0.45830100000011953
335,14,0.5,0.0625,35.0,1,1.0,2.7157999999999447
336,14,0.5,0.0625,-35.0,-1,1.0,0.43810000000007676
337,14,0.5,0.5,35.0,-1,0.0,0.286200000000008
338,14,0.5,0.25,-35.0,-1,1.0,0.2880999999999858
339,14,0.5,0.125,35.0,1,1.0,2.099899999999934
340,14,0.5,1.0,-35.0,-1,1.0,0.3323010000001432
341,14,0.5,0.125,35.0,1,1.0,0.1602010000001428
342,14,0.5,1.0,-35.0,-1,1.0,0.3484000000000833
343,14,0.5,0.125,-35.0,1,0.0,0.3199000000001888
344,14,0.5,0.0625,-35.0,-1,1.0,0.7652000000000498
345,14,0.5,1.0,-35.0,-1,1.0,0.2737010000000737
346,14,0.5,0.25,35.0,1,1.0,0.7893000000001393
347,14,0.5,1.0,-35.0,-1,1.0,0.5338000000001557
348,14,0.5,0.5,35.0,1,1.0,0.31930099999999584
349,14,0.5,1.0,-35.0,-1,1.0,0.9075000000000273
350,14,0.5,0.125,-35.0,-1,1.0,0.2898000000000138
351,14,0.5,0.25,-35.0,1,0.0,0.7742010000001756
352,14,0.5,0.0625,35.0,1,1.0,0.4896009999999933
353,14,0.5,0.25,35.0,1,1.0,3.931101000000126
354,14,0.5,0.5,35.0,1,1.0,0.6169000000002143
355,14,0.5,0.0625,-35.0,-1,1.0,0.8645999999998821
356,14,0.5,0.5,35.0,1,1.0,3.1135000000001583
357,14,0.5,0.0625,35.0,-1,0.0,0.1249000000000251
358,14,0.6,0.0625,35.0,-1,0.0,0.473500999999942
359,14,0.5,1.0,-35.0,-1,1.0,0.42170100000021193
360,14,0.5,0.25,35.0,1,1.0,1.6706000000001495
361,14,0.5,0.5,35.0,1,1.0,1.068699999999808
362,14,0.5,1.0,35.0,1,1.0,2.450801000000183
363,14,0.5,0.0625,35.0,1,1.0,1.2955010000002858
364,14,0.5,0.125,35.0,-1,0.0,0.23400100000026214
365,14,0.5,0.125,35.0,1,1.0,0.4657000000001972
366,14,0.5,0.5,-35.0,1,0.0,1.4815000000000964
367,14,0.5,0.125,35.0,-1,0.0,0.09270000000014988
368,14,0.5,0.25,-35.0,-1,1.0,0.23460000000000036
369,14,0.5,0.0625,35.0,1,1.0,0.46620099999995546
370,14,0.5,0.5,35.0,1,1.0,1.0946000000001277
371,14,0.5,1.0,-35.0,-1,1.0,0.6432000000002063
372,14,0.5,0.0625,35.0,1,1.0,1.2458010000000286
373,14,0.5,1.0,35.0,1,1.0,0.40000099999974736
374,14,0.5,0.125,-35.0,1,0.0,2.9188000000001466
375,14,0.7,0.125,35.0,1,1.0,0.790000000000191
376,14,0.5,1.0,35.0,1,1.0,0.4153009999999995
377,14,0.5,1.0,35.0,1,1.0,0.47689999999988686
378,14,0.5,0.25,35.0,1,1.0,0.15970100000026832
379,14,0.5,0.25,35.0,1,1.0,0.4337000000000444
380,14,0.5,0.5,35.0,1,1.0,0.48250000000007276
381,14,0.5,0.125,-35.0,-1,1.0,0.11050100000011298
382,14,0.5,0.25,35.0,1,1.0,0.3791000000001077
383,14,0.5,0.0625,-35.0,-1,1.0,1.0076000000001386
384,14,0.5,1.0,-35.0,-1,1.0,0.1993999999999687
385,14,0.5,0.0625,35.0,1,1.0,1.0111000000001695
386,14,0.5,0.125,35.0,-1,0.0,0.15300000000024738
387,14,0.5,0.25,35.0,1,1.0,3.6778999999999087
388,14,0.5,0.5,35.0,1,1.0,1.5798999999999523
389,14,0.5,0.0,-35.0,1,0.0,0.19479999999998654
390,14,0.5,0.0,35.0,1,1.0,1.146600000000035
391,14,0.5,0.5,-35.0,-1,1.0,0.2881999999999607
392,14,0.5,0.125,35.0,1,1.0,0.16010100000016791
393,14,0.5,1.0,-35.0,-1,1.0,0.5016000000000531
394,14,0.5,1.0,-35.0,-1,1.0,0.32100000000014006
395,14,0.5,0.125,35.0,1,1.0,1.2721000000001368
396,14,0.5,0.0625,-35.0,-1,1.0,0.14400099999988925
397,14,0.5,0.25,-35.0,-1,1.0,0.23220000000014807
398,14,0.5,0.5,-35.0,1,0.0,0.1872000000000753
399,14,0.5,0.5,-35.0,-1,1.0,0.2155999999999949
400,14,0.5,1.0,35.0,1,1.0,0.21739999999999782
401,14,0.5,0.125,35.0,1,1.0,1.9190000000000964
402,14,0.5,1.0,-35.0,-1,1.0,0.11200099999996382
403,14,0.5,0.0625,35.0,1,1.0,0.7160000000001219
404,14,0.5,0.0625,-35.0,-1,1.0,0.36520000000018626
405,14,0.5,1.0,-35.0,-1,1.0,0.3327999999999065
406,14,0.5,0.5,-35.0,1,0.0,0.13809999999989486
407,14,0.5,0.0,-35.0,-1,1.0,0.22319999999990614
408,14,0.5,0.125,35.0,1,1.0,0.9915000000000873
409,14,0.5,1.0,35.0,1,1.0,0.4900000000000091
410,14,0.5,0.125,35.0,-1,0.0,0.2918010000000777
411,14,0.5,0.25,-35.0,-1,1.0,0.2903009999999995
412,14,0.5,0.25,35.0,1,1.0,1.8752999999999247
413,14,0.5,0.5,-35.0,-1,1.0,0.4871009999999387
414,14,0.5,1.0,-35.0,-1,1.0,0.24930000000017571
415,14,0.5,0.0,-35.0,1,0.0,1.967301000000134
416,14,0.5,0.0625,35.0,1,1.0,0.39269999999987704
417,14,0.5,0.0625,35.0,1,1.0,3.23720000000003
418,14,0.5,0.125,-35.0,-1,1.0,0.44640000000003965
419,14,0.5,0.0625,35.0,1,1.0,0.3944000000001324
420,14,0.5,1.0,35.0,1,1.0,3.602700999999797
421,14,0.5,0.25,35.0,1,1.0,0.7446009999998751
422,14,0.5,0.0625,35.0,1,1.0,0.6301999999998316
423,14,0.5,0.0625,35.0,1,1.0,1.4748010000000704
424,14,0.5,1.0,-35.0,-1,1.0,0.21669999999994616
425,14,0.5,0.125,-35.0,-1,1.0,1.3616010000000642
426,14,0.5,0.5,-35.0,-1,1.0,0.263501000000133
427,14,0.5,0.0,-35.0,1,0.0,5.195400999999947
428,14,0.6,0.0,-35.0,1,0.0,0.1275999999998021
429,14,0.5,0.5,-35.0,-1,1.0,0.2455010000001039
430,14,0.5,0.125,-35.0,1,0.0,4.9874999999999545
431,14,0.6,0.125,-35.0,-1,1.0,0.21590000000014697
432,14,0.5,0.5,35.0,1,1.0,0.6876010000000861
433,14,0.5,0.25,-35.0,-1,1.0,0.9763010000001486
434,14,0.5,0.125,-35.0,-1,1.0,0.35560000000009495
435,14,0.5,1.0,-35.0,-1,1.0,0.6297010000000682
436,14,0.5,0.5,35.0,-1,0.0,0.3581010000000333
437,14,0.5,0.125,35.0,1,1.0,0.5832000000000335
438,14,0.5,1.0,35.0,1,1.0,0.11520000000018626
439,14,0.5,0.25,35.0,1,1.0,1.0634009999998852
440,14,0.5,0.25,35.0,1,1.0,1.0918000000001484
441,14,0.5,0.0625,-35.0,1,0.0,0.5867999999998119
442,14,0.5,0.125,35.0,1,1.0,1.0388010000001486
443,14,0.5,0.5,-35.0,-1,1.0,0.3170999999999822
444,14,0.5,0.125,35.0,1,1.0,0.13570000000004256
445,14,0.5,0.5,35.0,1,1.0,0.26040000000011787
446,14,0.5,0.5,35.0,1,1.0,1.0028010000000904
447,14,0.5,0.25,35.0,1,1.0,2.0276000000001204
448,14,0.5,0.25,-35.0,-1,1.0,0.4668010000000322
449,14,0.5,0.25,-35.0,-1,1.0,0.7578000000000884
450,14,0.5,0.0,35.0,1,1.0,0.3929000000000542
451,14,0.5,0.125,35.0,1,1.0,0.9914009999999962
452,14,0.5,1.0,-35.0,1,0.0,0.16089999999985594
453,14,0.5,0.25,35.0,-1,0.0,0.4814009999997779
454,14,0.5,0.0,35.0,-1,0.0,0.37360100000000784
455,14,0.6,0.0,35.0,1,1.0,0.6250010000001112
456,14,0.5,0.5,35.0,1,1.0,0.3868999999999687
457,14,0.5,0.0,-35.0,1,0.0,0.40850000000000364
458,14,0.5,0.125,-35.0,-1,1.0,0.2537999999999556
459,14,0.5,0.5,35.0,1,1.0,0.745600000000195
460,14,0.5,0.125,-35.0,-1,1.0,0.28099999999994907
461,14,0.5,0.25,35.0,-1,0.0,0.20239999999989777
462,14,0.5,0.25,-35.0,-1,1.0,0.32110000000011496
463,14,0.5,1.0,35.0,1,1.0,0.44260000000008404
464,14,0.5,0.125,35.0,-1,0.0,0.3111010000002352
465,14,0.5,0.0,-35.0,1,0.0,0.6057999999998174
466,14,0.5,0.125,-35.0,-1,1.0,0.2911999999996624
467,14,0.5,0.0625,35.0,1,1.0,2.6430999999997766
468,14,0.5,0.125,35.0,1,1.0,0.5680999999995038
469,14,0.5,0.0,35.0,1,1.0,0.5497009999999136
470,14,0.5,0.0,-35.0,-1,1.0,0.31169999999974607
471,14,0.5,0.125,-35.0,-1,1.0,0.4032000000001972
472,14,0.5,0.0,-35.0,1,0.0,1.492001000000073
473,14,0.5,0.0,35.0,1,1.0,0.7568009999999958
474,14,0.5,0.25,-35.0,-1,1.0,0.2853999999997541
475,14,0.5,0.0625,35.0,-1,0.0,0.2538009999998394
476,14,0.5,0.0625,35.0,-1,0.0,0.33619999999973516
477,14,0.5,1.0,-35.0,-1,1.0,0.27070099999991726
478,14,0.5,0.5,-35.0,-1,1.0,0.48629999999957363
479,14,0.5,0.25,35.0,1,1.0,1.0741010000001552
480,14,0.5,0.0,-35.0,1,0.0,1.7925999999997657
481,14,0.5,0.25,35.0,-1,0.0,0.26099999999996726
482,14,0.5,0.0,35.0,-1,0.0,0.4126000000001113
483,14,0.5,0.125,35.0,1,1.0,2.9410000000002583
484,14,0.5,0.125,35.0,1,1.0,0.3396000000002459
485,14,0.5,0.125,-35.0,-1,1.0,0.23849999999993088
486,14,0.5,0.25,-35.0,-1,1.0,0.38679999999976644
487,14,0.5,0.0,-35.0,-1,1.0,0.29500000000007276
488,14,0.5,0.5,-35.0,-1,1.0,5.167399999999816
489,14,0.5,0.25,-35.0,-1,1.0,1.8785009999996873
490,14,0.5,0.0625,35.0,1,1.0,0.9375999999997475
491,14,0.5,1.0,35.0,1,1.0,2.695600000000013
492,14,0.5,0.25,35.0,-1,0.0,0.2244999999998072
493,14,0.5,0.0,-35.0,1,0.0,2.509099999999762
494,14,0.5,0.0625,-35.0,-1,1.0,0.2844999999997526
495,14,0.5,1.0,-35.0,-1,1.0,0.6459999999997308
496,14,0.5,0.0,-35.0,1,0.0,0.971599999999853
497,14,0.5,0.0625,-35.0,-1,1.0,0.3428009999997812
498,14,0.5,0.0625,-35.0,1,0.0,3.934700999999677
499,14,0.5,0.0625,-35.0,-1,1.0,0.2965999999996711
500,14,0.5,0.125,-35.0,1,0.0,0.17170100000021193
501,14,0.5,0.25,35.0,1,1.0,4.696699999999964
502,14,0.5,0.5,35.0,1,1.0,1.4687010000002374
503,14,0.5,1.0,35.0,1,1.0,1.7002999999995154
504,14,0.5,0.5,35.0,1,1.0,0.5486009999999624
505,14,0.5,0.5,-35.0,-1,1.0,0.44370000000026266
506,14,0.5,0.5,35.0,1,1.0,1.672399999999925
507,14,0.5,0.0625,35.0,1,1.0,0.3107999999997446
508,14,0.5,0.0625,35.0,1,1.0,0.12279999999964275
509,14,0.5,0.25,35.0,1,1.0,0.38429999999971187
510,14,0.5,0.25,-35.0,-1,1.0,0.6133009999998649
511,14,0.5,0.125,35.0,1,1.0,0.3910000000000764
512,14,0.5,0.0625,-35.0,1,0.0,0.1366000000002714
513,14,0.5,0.125,-35.0,-1,1.0,0.2379000000000815
514,14,0.5,0.25,-35.0,-1,1.0,0.256300999999894
515,14,0.5,0.125,35.0,1,1.0,2.3844999999996617
516,14,0.5,0.25,35.0,1,1.0,0.39980100000002494
517,14,0.5,1.0,35.0,1,1.0,2.724899999999707
518,14,0.5,0.125,35.0,-1,0.0,0.39359999999942374
519,14,0.6,0.125,-35.0,1,0.0,0.6318009999999958
520,14,0.5,0.5,35.0,-1,0.0,0.21720000000004802
521,14,0.5,0.0625,35.0,1,1.0,1.2355009999996582
522,14,0.5,1.0,-35.0,-1,1.0,0.48799999999937427
523,14,0.5,1.0,35.0,1,1.0,1.7025010000002112
524,14,0.5,0.5,35.0,1,1.0,1.1082010000000082
525,14,0.5,0.0625,35.0,1,1.0,1.6524999999996908
526,14,0.5,0.0,35.0,1,1.0,0.8921009999994567
527,14,0.5,0.0625,-35.0,-1,1.0,0.2961999999993168
528,14,0.5,0.125,35.0,1,1.0,0.7282009999998991
529,14,0.5,0.125,-35.0,-1,1.0,0.2998010000001159
530,14,0.5,0.0,35.0,1,1.0,0.5522009999995134
531,14,0.5,0.0625,35.0,1,1.0,1.8967999999999847
532,14,0.5,0.25,35.0,1,1.0,1.049199999999928
533,14,0.5,0.125,-35.0,1,0.0,0.4436999999998079
534,14,0.8,0.125,35.0,1,1.0,0.4690009999999347
535,14,0.5,0.5,35.0,1,1.0,0.20709999999962747
536,14,0.5,0.125,-35.0,-1,1.0,0.5992000000001099
537,14,0.5,0.5,35.0,1,1.0,1.3971999999998843
538,14,0.5,0.25,-35.0,-1,1.0,0.23940099999981612
539,14,0.5,0.125,35.0,-1,0.0,0.19739999999956126
540,14,0.5,0.125,-35.0,-1,1.0,0.2490999999995438
541,14,0.5,0.0625,-35.0,1,0.0,1.9342000000001462
542,14,0.6,0.0625,35.0,-1,0.0,0.28609999999980573
543,14,0.5,0.5,35.0,-1,0.0,0.1977999999999156
544,14,0.5,0.125,35.0,-1,0.0,0.09620100000029197
545,14,0.5,0.125,35.0,1,1.0,1.0846999999998843
546,14,0.5,1.0,-35.0,1,0.0,5.083100000000286
547,14,0.5,0.125,-35.0,-1,1.0,0.27170099999966624
548,14,0.5,0.0625,35.0,1,1.0,0.5203000000001339
549,14,0.5,0.25,35.0,1,1.0,0.4053009999997812
550,14,0.5,0.5,-35.0,-1,1.0,0.2938009999993483
551,14,0.5,0.125,-35.0,1,0.0,4.425399999999627
552,14,0.5,0.0625,-35.0,-1,1.0,0.10429999999996653
553,14,0.5,0.5,35.0,1,1.0,0.6823999999996886
554,14,0.5,0.5,-35.0,-1,1.0,0.5179000000002816
555,14,0.5,0.125,35.0,1,1.0,0.9625999999998385
556,14,0.5,1.0,35.0,1,1.0,0.45440099999996164
557,14,0.5,0.25,35.0,1,1.0,1.2727999999997337
558,14,0.5,1.0,35.0,1,1.0,0.47480099999984304
559,14,0.5,0.125,-35.0,1,0.0,1.3327999999996791
560,14,0.5,0.125,35.0,1,1.0,1.06150099999968
561,14,0.5,0.0625,-35.0,-1,1.0,0.41629999999986467
562,14,0.5,0.125,35.0,1,1.0,5.505600999999842
563,14,0.5,0.125,35.0,1,1.0,0.4135999999998603
564,14,0.5,1.0,-35.0,-1,1.0,0.245600000000195
565,14,0.5,1.0,-35.0,1,0.0,0.6071999999999207
566,14,0.5,0.125,35.0,1,1.0,0.33230099999946106
567,14,0.5,0.125,35.0,1,1.0,0.41729999999961365
568,14,0.5,0.125,-35.0,1,0.0,0.44909999999981665
569,14,0.5,0.25,35.0,-1,0.0,0.270799999999781
570,14,0.5,0.0625,35.0,-1,0.0,8.736601000000064
571,14,0.6,0.0625,-35.0,-1,1.0,0.6311009999999442
572,14,0.5,0.5,-35.0,-1,1.0,0.852900999999747
573,14,0.5,0.0,35.0,1,1.0,0.5014009999999871
574,14,0.5,0.25,-35.0,1,0.0,1.196599999999762
575,14,0.6,0.25,35.0,1,1.0,0.4915999999993801
576,14,0.5,1.0,-35.0,-1,1.0,0.2238999999999578
577,14,0.5,1.0,-35.0,-1,1.0,0.44159999999965294
578,14,0.5,0.5,-35.0,-1,1.0,0.2669999999998254
579,14,0.5,0.25,35.0,1,1.0,0.19899999999961437
580,14,0.5,0.25,35.0,1,1.0,0.5310010000002876
581,14,0.5,0.5,-35.0,1,0.0,0.16880099999980303
582,14,0.5,0.0625,35.0,1,1.0,0.35190000000011423
583,14,0.5,0.5,35.0,1,1.0,0.5889999999999418
584,14,0.5,0.25,35.0,1,1.0,0.5341999999996005
585,14,0.5,0.5,35.0,1,1.0,0.8825999999999112
586,14,0.5,1.0,35.0,1,1.0,0.14770099999986996
587,14,0.5,1.0,-35.0,-1,1.0,0.31599999999980355
588,14,0.5,0.125,-35.0,1,0.0,0.9180999999998676
589,14,0.9,0.125,35.0,-1,0.0,0.24310000000014043
590,14,0.5,0.5,-35.0,-1,1.0,0.24899999999979627
591,14,0.5,0.0625,-35.0,1,0.0,0.436500000000251
592,14,0.5,0.25,35.0,1,1.0,0.3919999999998254
593,14,0.5,0.25,-35.0,-1,1.0,0.38689999999951397
594,14,0.5,0.25,35.0,1,1.0,0.7489009999999325
595,14,0.5,0.0625,35.0,1,1.0,1.4070009999995818
596,14,0.5,0.125,-35.0,-1,1.0,0.6393009999997048
597,14,0.5,0.0,-35.0,1,0.0,0.40059999999994034
598,14,0.5,0.0625,-35.0,-1,1.0,0.3192999999996573
599,14,0.5,1.0,-35.0,-1,1.0,0.32110000000011496
600,14,0.5,0.0625,35.0,-1,0.0,0.19920000000001892
601,14,0.5,0.125,35.0,1,1.0,0.4845009999994545
602,14,0.5,0.0625,-35.0,1,0.0,1.282799999999952
603,14,0.5,0.0625,35.0,1,1.0,1.6014000000000124
604,14,0.5,1.0,-35.0,-1,1.0,0.25640000000021246
605,14,0.5,0.0625,35.0,1,1.0,0.36799999999993815
606,14,0.5,0.125,35.0,-1,0.0,0.13999999999987267
607,14,0.5,0.125,35.0,1,1.0,0.4150009999998474
608,14,0.5,1.0,35.0,1,1.0,0.290400999999747
609,14,0.5,0.25,35.0,1,1.0,0.3451999999997497
610,14,0.5,0.0625,-35.0,-1,1.0,0.28099999999994907
611,14,0.5,0.25,-35.0,-1,1.0,0.35530100000005405
612,14,0.5,0.125,-35.0,-1,1.0,0.24749999999949068
613,14,0.5,0.25,35.0,1,1.0,0.768699999999626
614,14,0.5,0.25,35.0,1,1.0,0.10440100000005259
615,14,0.5,0.0,-35.0,1,0.0,0.832199999999375
616,14,0.5,0.25,35.0,1,1.0,0.48419999999941865
617,14,0.5,0.25,-35.0,-1,1.0,0.4589999999993779
618,14,0.5,0.0625,35.0,-1,0.0,0.2743009999999231
619,14,0.5,0.0625,-35.0,-1,1.0,0.3027999999999338
620,14,0.5,1.0,-35.0,-1,1.0,0.25150099999973463
621,14,0.5,0.125,35.0,-1,0.0,0.16949999999951615
622,14,0.4,0.125,35.0,1,1.0,0.77829999999949
623,14,0.5,1.0,-35.0,-1,1.0,0.3963999999996304
624,14,0.5,0.0625,35.0,1,1.0,0.13849999999956708
625,14,0.5,0.0,-35.0,1,0.0,0.11340100000006714
626,14,0.5,0.25,-35.0,-1,1.0,0.26180099999965023
627,14,0.5,1.0,35.0,-1,0.0,0.2604999999998654
628,14,0.5,0.0,-35.0,1,0.0,0.7121009999996204
629,14,0.4,0.0,35.0,1,1.0,0.5138000000001739
630,14,0.5,1.0,-35.0,-1,1.0,0.7823999999995976
631,14,0.5,1.0,-35.0,-1,1.0,0.354099999999562
632,14,0.5,0.25,35.0,1,1.0,0.3026999999997315
633,14,0.5,0.25,35.0,1,1.0,0.33080100000006496
634,14,0.5,0.125,-35.0,-1,1.0,0.35610099999985323
635,14,0.5,1.0,-35.0,-1,1.0,1.89449999999988
636,14,0.5,0.0625,35.0,1,1.0,1.9365999999999985
637,14,0.5,0.125,-35.0,1,0.0,0.6481010000002243
638,14,0.5,0.125,35.0,1,1.0,0.6268999999997504
639,14,0.5,0.25,35.0,1,1.0,4.094800999999734
640,14,0.5,1.0,35.0,1,1.0,0.34009999999989304
641,14,0.5,1.0,-35.0,-1,1.0,0.3052009999996699
642,14,0.5,0.25,35.0,1,1.0,0.44350000000031287
643,14,0.5,0.0625,35.0,1,1.0,0.44199999999955253
644,14,0.5,0.25,-35.0,-1,1.0,0.29700000000002547
645,14,0.5,0.0625,-35.0,-1,1.0,0.4254000000000815
646,14,0.5,0.0,-35.0,1,0.0,1.9406009999997877
647,14,0.5,0.25,35.0,1,1.0,3.822400000000016
648,14,0.5,0.0625,35.0,1,1.0,3.960899999999583
649,14,0.5,0.0,-35.0,1,0.0,0.5394999999998618
650,14,0.7,0.0,-35.0,1,0.0,0.5846000000001368
651,14,0.5,1.0,35.0,1,1.0,0.5164999999992688
652,14,0.5,1.0,35.0,1,1.0,1.3850999999999658
653,14,0.5,0.0625,-35.0,1,0.0,1.9497999999998683
654,14,0.5,0.0,-35.0,1,0.0,6.398600999999871
655,14,0.5,0.125,35.0,1,1.0,0.6000999999996566
656,14,0.5,0.25,35.0,1,1.0,1.189100999999937
657,14,0.5,0.0625,-35.0,1,0.0,1.5771009999998569
658,14,0.5,0.25,-35.0,-1,1.0,0.4795009999998001
659,14,0.5,0.25,35.0,1,1.0,1.6807010000002265
660,14,0.5,1.0,35.0,1,1.0,0.5431019999996352
661,14,0.5,0.25,35.0,1,1.0,6.127501000000393
662,14,0.5,0.25,-35.0,-1,1.0,0.4063009999999849
663,14,0.5,0.125,35.0,1,1.0,2.234400999999707
664,14,0.5,0.0,35.0,-1,0.0,0.26320099999975355
665,14,0.5,0.25,35.0,1,1.0,1.9148009999998976
666,14,0.5,0.25,-35.0,1,0.0,4.42330099999981
667,14,0.5,0.25,35.0,1,1.0,1.0484010000000126
668,14,0.5,0.125,-35.0,-1,1.0,0.49020100000007005
669,14,0.5,0.0625,-35.0,-1,1.0,0.658701999999721
670,14,0.5,1.0,35.0,1,1.0,0.404400999999325
671,14,0.5,0.0,-35.0,1,0.0,2.5388010000001486
672,14,0.5,0.125,35.0,1,1.0,4.314401999999518
673,14,0.5,0.125,-35.0,1,0.0,0.4858019999996941
674,14,0.5,0.125,35.0,1,1.0,0.9285009999998692
675,14,0.5,0.125,-35.0,1,0.0,1.7895019999996293
676,14,0.5,0.0625,35.0,1,1.0,1.4145009999997455
677,14,0.5,1.0,35.0,1,1.0,0.8396010000001297
678,14,0.5,0.25,-35.0,-1,1.0,0.4084020000000237
679,14,0.5,0.0,35.0,1,1.0,0.4663009999994756
680,14,0.5,0.0625,35.0,1,1.0,1.5316009999996822
681,14,0.5,0.0625,35.0,1,1.0,0.43010199999980614
682,14,0.5,0.25,35.0,-1,0.0,0.46250099999997474
683,14,0.5,0.0,-35.0,1,0.0,2.7769020000000637
684,14,0.5,0.125,-35.0,-1,1.0,13.742201000000023
685,14,0.5,1.0,-35.0,-1,1.0,0.6773009999997157
686,14,0.5,0.125,-35.0,1,0.0,6.135701999999583
687,14,0.5,0.0625,-35.0,-1,1.0,9.224400999999943
688,14,0.5,0.25,-35.0,-1,1.0,0.29980099999966114
689,14,0.5,0.25,-35.0,-1,1.0,0.8716009999998278
690,14,0.5,0.0625,-35.0,1,0.0,5.393901999999798
691,14,0.5,0.25,-35.0,-1,1.0,0.775101000000177
692,14,0.5,0.0625,-35.0,-1,1.0,0.26690099999996164
693,14,0.5,1.0,-35.0,-1,1.0,0.8650019999995493
694,14,0.5,1.0,35.0,1,1.0,0.367200999999568
695,14,0.5,0.125,-35.0,-1,1.0,0.28870099999994636
696,14,0.5,1.0,35.0,1,1.0,1.0272009999998772
697,14,0.5,0.125,35.0,1,1.0,2.279001999999764
698,14,0.5,1.0,-35.0,-1,1.0,0.28180199999951583
699,14,0.5,0.125,-35.0,-1,1.0,0.30910099999982776
700,14,0.5,0.25,-35.0,-1,1.0,0.6514010000000781
701,14,0.5,0.0625,-35.0,1,0.0,4.885901999999987
702,14,0.4,0.0625,35.0,1,1.0,0.5846009999995658
703,14,0.5,1.0,35.0,1,1.0,0.9598009999999704
704,14,0.5,0.125,-35.0,-1,1.0,0.41160199999967517
705,14,0.5,0.125,-35.0,-1,1.0,0.8233009999994465
706,14,0.5,1.0,35.0,1,1.0,0.6021009999999478
707,14,0.5,0.0625,-35.0,-1,1.0,0.35340099999984886
708,14,0.5,0.0625,35.0,1,1.0,1.2890019999999822
709,14,0.5,0.125,-35.0,-1,1.0,0.33010099999955855
710,14,0.5,0.0625,-35.0,-1,1.0,0.19200099999989106
711,14,0.5,0.0,-35.0,1,0.0,1.333900999999969
712,14,0.5,0.0,-35.0,1,0.0,2.323101000000406
713,14,0.5,0.25,-35.0,-1,1.0,0.30440099999941594
714,14,0.5,1.0,35.0,-1,0.0,0.3601010000002134
715,14,0.5,0.125,-35.0,-1,1.0,0.2145009999994727
716,14,0.5,1.0,-35.0,-1,1.0,0.4095009999996364
717,14,0.5,1.0,-35.0,-1,1.0,0.3411009999995258
718,14,0.5,0.125,35.0,1,1.0,0.22000100000013845
719,14,0.5,1.0,-35.0,-1,1.0,0.4815009999997528
720,14,0.5,0.125,35.0,1,1.0,0.5200009999994109
721,14,0.5,0.25,-35.0,-1,1.0,0.3050020000000586
722,14,0.5,1.0,-35.0,-1,1.0,0.3933009999996102
723,14,0.5,0.0625,35.0,1,1.0,0.3349009999997179
724,14,0.5,0.125,35.0,1,1.0,0.5134009999997033
725,14,0.5,1.0,-35.0,-1,1.0,0.2819009999998343
726,14,0.5,0.0625,-35.0,-1,1.0,1.8108019999995122
727,14,0.5,0.25,35.0,-1,0.0,0.2387010000002192
728,14,0.5,0.0,-35.0,-1,1.0,0.16030099999989034
729,14,0.5,1.0,-35.0,-1,1.0,0.2325019999993856
730,14,0.5,0.25,35.0,1,1.0,0.38430199999947945
731,14,0.5,0.125,-35.0,1,0.0,0.19580200000018522
732,14,0.4,0.125,-35.0,1,0.0,0.1545019999998658
733,14,0.5,1.0,35.0,1,1.0,1.5562019999997574
734,14,0.5,0.0625,-35.0,1,0.0,1.0449009999997543
735,14,0.5,0.125,35.0,1,1.0,0.14630199999965043
736,14,0.5,0.125,-35.0,1,0.0,5.238500999999815
737,14,0.5,0.0625,35.0,1,1.0,4.080000999999811
738,14,0.5,0.25,35.0,-1,0.0,0.13660099999970043
739,14,0.5,0.25,35.0,1,1.0,1.7937019999999393
740,14,0.5,1.0,35.0,1,1.0,5.659501000000091
741,14,0.5,0.0625,35.0,1,1.0,3.734100999999555
742,14,0.5,0.0625,35.0,1,1.0,6.232601999999588
743,14,0.5,0.0625,-35.0,-1,1.0,0.7513009999997848
744,14,0.5,0.125,-35.0,-1,1.0,0.3097020000000157
745,14,0.5,0.0,35.0,1,1.0,4.544600999999602
746,14,0.5,1.0,-35.0,-1,1.0,0.3266019999996388
747,14,0.5,0.25,-35.0,-1,1.0,0.16170099999999366
748,14,0.5,1.0,-35.0,-1,1.0,2.7234019999996235
749,14,0.5,0.0625,-35.0,-1,1.0,1.9785010000000511
750,14,0.5,1.0,35.0,1,1.0,3.9838009999998576
751,14,0.5,0.0,-35.0,1,0.0,7.31530100000009
752,14,0.5,0.0625,-35.0,1,0.0,5.83790099999942
753,14,0.5,0.25,-35.0,-1,1.0,0.7592009999998481
754,14,0.5,1.0,35.0,1,1.0,4.601102000000083
755,14,0.5,0.0625,-35.0,-1,1.0,1.4763009999996939
756,14,0.5,0.125,35.0,1,1.0,1.9749010000000453
757,14,0.5,0.25,35.0,1,1.0,1.8230009999997492
758,14,0.5,1.0,-35.0,-1,1.0,0.5290019999997639
759,14,0.5,0.25,-35.0,-1,1.0,0.3767010000001392
760,14,0.5,0.25,35.0,1,1.0,6.502600999999686
761,14,0.5,1.0,-35.0,-1,1.0,0.3369019999995544
762,14,0.5,0.0,-35.0,1,0.0,0.3491009999997914
763,14,0.5,0.25,35.0,1,1.0,4.850402000000031
764,14,0.5,0.25,35.0,1,1.0,0.46000099999992017
765,14,0.5,0.25,35.0,1,1.0,3.0607019999997647
766,14,0.5,0.25,-35.0,-1,1.0,0.9995019999996657
767,14,0.5,0.0625,-35.0,-1,1.0,1.1476009999996677
768,14,0.5,0.0,-35.0,1,0.0,0.52270099999987
769,14,0.6,0.0,35.0,1,1.0,10.72800099999995
770,14,0.5,1.0,-35.0,-1,1.0,0.34330099999988306
771,14,0.5,0.125,35.0,1,1.0,0.7552019999998265
772,14,0.5,0.125,-35.0,-1,1.0,0.4236019999993914
773,14,0.5,0.125,35.0,1,1.0,0.3184009999999944
774,14,0.5,0.25,-35.0,-1,1.0,0.4740009999995891
775,14,0.5,0.25,-35.0,-1,1.0,0.408701999999721
776,14,0.5,1.0,-35.0,1,0.0,0.1538020000002689
777,14,0.5,1.0,35.0,1,1.0,9.538900999999896
778,14,0.5,1.0,35.0,1,1.0,9.087600999999722
779,14,0.5,1.0,35.0,1,1.0,1.8526010000000497
780,14,0.5,0.0,35.0,1,1.0,15.571600999999646
781,14,0.5,1.0,35.0,1,1.0,5.696701000000303
782,14,0.5,0.0,-35.0,1,0.0,14.422600999999759
783,14,0.5,0.0625,-35.0,1,0.0,5.913900999999896
784,14,0.5,0.25,-35.0,-1,1.0,0.30960200000026816
785,14,0.5,0.0,-35.0,1,0.0,2.7875010000002476
786,14,0.5,0.0625,35.0,-1,0.0,9.296700999999757
787,14,0.8,0.0625,-35.0,-1,1.0,0.3018010000000686
788,14,0.5,1.0,-35.0,-1,1.0,0.316700999999739
789,14,0.5,0.0625,-35.0,-1,1.0,0.34520100000008824
790,14,0.5,1.0,35.0,1,1.0,0.40680199999951583
791,14,0.5,0.0625,-35.0,1,0.0,1.7054010000001654
792,14,0.5,0.0625,35.0,1,1.0,0.42380099999991216
793,14,0.5,0.0,35.0,1,1.0,0.4787009999995462
794,14,0.5,0.0625,35.0,1,1.0,0.46400199999970937
795,14,0.5,0.25,-35.0,-1,1.0,0.3359009999999216
796,14,0.5,0.0625,-35.0,1,0.0,0.9208009999997557
797,14,0.5,0.25,35.0,1,1.0,1.2225020000000768
798,14,0.5,0.0625,35.0,-1,0.0,1.3050010000001748
799,14,0.5,0.25,35.0,1,1.0,0.17950100000007296
800,14,0.5,0.0,-35.0,1,0.0,1.1362009999998008
801,14,0.5,0.25,35.0,-1,0.0,0.17900099999951635
802,14,0.5,0.25,35.0,1,1.0,0.7330009999996037
803,14,0.5,0.125,35.0,1,1.0,0.33200099999976374
804,14,0.5,1.0,35.0,1,1.0,0.34340100000008533
805,14,0.5,0.25,35.0,1,1.0,0.8784019999993689
806,14,0.5,0.125,35.0,-1,0.0,0.2535010000001421
807,14,0.7,0.125,-35.0,-1,1.0,0.27530099999967206
808,14,0.5,1.0,35.0,1,1.0,0.10720099999934973
809,14,0.5,0.0,35.0,1,1.0,0.9458009999998467
810,14,0.5,0.0625,35.0,1,1.0,0.7972019999997428
811,14,0.5,0.125,35.0,1,1.0,0.7360019999996439
812,14,0.5,0.0625,35.0,1,1.0,0.16100199999982578
813,14,0.5,0.25,35.0,1,1.0,0.26710099999991144
814,14,0.5,0.125,35.0,1,1.0,0.40770100000008824
815,14,0.5,0.125,-35.0,-1,1.0,0.5499009999998634
816,14,0.5,1.0,-35.0,-1,1.0,0.22120099999983722
817,14,0.5,0.0625,-35.0,-1,1.0,0.27960099999972954
818,14,0.5,0.125,35.0,1,1.0,1.0679019999997763
819,14,0.5,0.0625,35.0,1,1.0,0.6431009999996604
820,14,0.5,0.0625,35.0,1,1.0,0.29480199999989054
821,14,0.5,0.0625,-35.0,-1,1.0,0.306601999999657
822,14,0.5,1.0,-35.0,-1,1.0,0.25830100000030143
823,14,0.5,1.0,35.0,1,1.0,1.0072009999998954
824,14,0.5,0.25,35.0,1,1.0,0.5086020000003373
825,14,0.5,0.0,-35.0,-1,1.0,0.5603009999999813
826,14,0.5,1.0,35.0,1,1.0,0.3487009999998918
827,14,0.5,0.0625,35.0,-1,0.0,0.26420099999950253
828,14,0.5,0.0625,35.0,-1,0.0,1.5054009999994378
829,14,0.5,0.0625,-35.0,-1,1.0,0.39760100000012244
830,14,0.5,1.0,35.0,1,1.0,0.3426009999998314
831,14,0.5,0.25,-35.0,-1,1.0,0.9513009999996029
832,14,0.5,0.125,35.0,1,1.0,0.545901999999387
833,14,0.5,0.25,35.0,1,1.0,0.4312019999997574
834,14,0.5,0.125,35.0,1,1.0,1.0662009999996371
835,14,0.5,0.25,-35.0,-1,1.0,0.4848009999996066
836,14,0.5,1.0,-35.0,-1,1.0,0.34960099999989325
837,14,0.5,0.125,35.0,1,1.0,3.7314010000000053
838,14,0.5,0.125,35.0,1,1.0,0.46010200000000623
839,14,0.5,0.0625,-35.0,1,0.0,5.2452009999997244
840,14,0.7,0.0625,-35.0,-1,1.0,0.7436010000001261
841,14,0.5,1.0,-35.0,-1,1.0,0.31550199999946926
842,14,0.5,1.0,35.0,1,1.0,24.30710199999976
843,14,0.5,0.125,-35.0,-1,1.0,0.452701000000161
844,14,0.5,0.125,35.0,1,1.0,0.9411009999998896
845,14,0.5,0.125,-35.0,-1,1.0,0.75970099999995
846,14,0.5,0.25,35.0,1,1.0,1.6581009999999878
847,14,0.5,0.0,35.0,1,1.0,41.72070100000019
848,14,0.5,0.0625,-35.0,1,0.0,1.8827009999999973
849,14,0.5,0.25,35.0,1,1.0,0.9318010000001777
850,14,0.5,1.0,35.0,1,1.0,7.322800999999799
851,14,0.5,0.0,35.0,1,1.0,2.811901999999918
852,14,0.5,0.25,-35.0,1,0.0,6.466600999999628
853,14,0.5,0.0625,35.0,1,1.0,14.539001000000098
854,14,0.5,0.125,-35.0,-1,1.0,0.9138020000000324
855,14,0.5,0.0,-35.0,1,0.0,1.929400999999416
856,14,0.9,0.0,-35.0,-1,1.0,0.9277009999996153
857,14,0.5,1.0,-35.0,-1,1.0,0.3300019999987853
858,14,0.5,1.0,-35.0,-1,1.0,0.25810100000035163
859,14,0.5,0.125,35.0,1,1.0,1.1531009999989692
860,14,0.5,0.0,-35.0,1,0.0,6.331200999999055
861,14,0.5,0.0625,35.0,1,1.0,0.694101000000046
862,14,0.5,0.0625,35.0,-1,0.0,2.578300999998646
863,14,0.5,0.125,-35.0,1,0.0,30.357100999999602
864,14,0.5,0.125,-35.0,-1,1.0,8.285901999998714
865,14,0.5,1.0,-35.0,-1,1.0,0.3916009999993548
866,14,0.5,0.0625,-35.0,1,0.0,5.323001000000659
867,14,0.5,0.0625,-35.0,-1,1.0,0.6591019999996206
868,14,0.5,1.0,-35.0,-1,1.0,0.49660099999891827
869,14,0.5,0.25,35.0,1,1.0,4.658500999999887
870,14,0.5,0.0,-35.0,1,0.0,2.556800999999723
871,14,0.5,0.25,35.0,1,1.0,5.162501999999222
872,14,0.5,0.25,-35.0,-1,1.0,0.2939010000000053
873,14,0.5,0.25,-35.0,1,0.0,4.739800999999716
874,14,0.5,0.25,-35.0,-1,1.0,13.574101000000155
875,14,0.5,1.0,-35.0,-1,1.0,1.1035009999995964
876,14,0.5,0.25,35.0,1,1.0,8.488201999999546
877,14,0.5,0.25,-35.0,-1,1.0,0.5135009999994509
878,14,0.5,0.125,-35.0,-1,1.0,0.38500199999998586
879,14,0.5,1.0,-35.0,-1,1.0,0.29370099999960075
880,14,0.5,0.125,-35.0,-1,1.0,0.3153009999996357
881,14,0.5,0.25,-35.0,1,0.0,5.0304019999994125
882,14,0.5,0.0625,-35.0,-1,1.0,0.4490009999999529
883,14,0.5,0.25,-35.0,-1,1.0,0.417500999999902
884,14,0.5,0.0625,35.0,1,1.0,1.355902000000242
885,14,0.5,1.0,35.0,1,1.0,3.011501999999382
886,14,0.5,0.125,35.0,-1,0.0,0.4895009999991089
887,14,0.5,0.25,35.0,1,1.0,15.231800999999905
888,14,0.5,1.0,35.0,1,1.0,6.400000999999975
889,14,0.5,1.0,-35.0,-1,1.0,0.2861009999996895
1,15,0.5,1.0,35.0,1,1.0,0.48119999999999963
2,15,0.5,1.0,35.0,1,1.0,3.054500000000001
3,15,0.5,0.25,-35.0,-1,1.0,0.27420000000000044
4,15,0.5,0.125,-35.0,-1,1.0,2.960900999999998
5,15,0.5,0.125,-35.0,1,0.0,6.315799999999999
6,15,0.8,0.125,-35.0,-1,1.0,0.30489999999999995
7,15,0.5,1.0,35.0,1,1.0,0.42960000000000065
8,15,0.5,0.125,-35.0,-1,1.0,1.6019999999999968
9,15,0.5,0.125,-35.0,-1,1.0,0.3231000000000037
10,15,0.5,0.0625,35.0,-1,0.0,1.6311999999999927
11,15,0.4,0.0625,-35.0,1,0.0,0.14120100000000235
12,15,0.5,1.0,35.0,1,1.0,0.4424010000000038
13,15,0.5,0.125,35.0,-1,0.0,0.33220099999999775
14,15,0.5,0.125,-35.0,-1,1.0,2.9971009999999936
15,15,0.5,0.25,-35.0,-1,1.0,0.3259000000000185
16,15,0.5,0.25,-35.0,-1,1.0,0.8516999999999939
17,15,0.5,0.125,35.0,1,1.0,0.4369000000000085
18,15,0.5,0.25,-35.0,-1,1.0,0.3632999999999953
19,15,0.5,0.0,-35.0,1,0.0,1.978301000000016
20,15,0.5,0.25,35.0,1,1.0,0.4526000000000039
21,15,0.5,0.125,-35.0,1,0.0,1.862099999999998
22,15,0.5,0.0625,-35.0,1,0.0,3.0597999999999956
23,15,0.5,0.25,-35.0,-1,1.0,0.30420100000000616
24,15,0.5,0.0625,-35.0,1,0.0,8.2988
25,15,0.5,0.25,-35.0,-1,1.0,0.2565000000000026
26,15,0.5,0.125,-35.0,-1,1.0,0.39970000000000994
27,15,0.5,0.0,-35.0,1,0.0,5.3200999999999965
28,15,0.5,0.25,35.0,1,1.0,0.6925999999999704
29,15,0.5,0.25,35.0,1,1.0,1.7357999999999834
30,15,0.5,0.0625,35.0,1,1.0,2.4002000000000123
31,15,0.5,0.0625,-35.0,1,0.0,3.330300999999963
32,15,0.7,0.0625,-35.0,1,0.0,2.7665999999999826
33,15,0.5,1.0,-35.0,-1,1.0,0.2654009999999971
34,15,0.5,0.125,35.0,1,1.0,1.0871999999999673
35,15,0.5,0.0625,-35.0,-1,1.0,0.5323009999999897
36,15,0.5,0.25,35.0,1,1.0,3.4287999999999954
37,15,0.5,0.0625,35.0,1,1.0,2.000101000000001
38,15,0.5,0.0625,-35.0,1,0.0,1.0617999999999768
39,15,0.5,0.125,-35.0,-1,1.0,0.2605999999999824
40,15,0.5,0.125,35.0,1,1.0,0.4988999999999635
41,15,0.5,1.0,35.0,1,1.0,0.48819999999997776
42,15,0.5,1.0,35.0,1,1.0,0.8318999999999903
43,15,0.5,1.0,35.0,1,1.0,1.4317009999999755
44,15,0.5,0.0625,-35.0,1,0.0,4.701300000000003
45,15,0.8,0.0625,-35.0,-1,1.0,0.349000999999987
46,15,0.5,1.0,-35.0,-1,1.0,0.3499999999999943
47,15,0.5,1.0,35.0,1,1.0,0.4309999999999832
48,15,0.5,1.0,35.0,1,1.0,0.9199009999999817
49,15,0.5,0.0,35.0,1,1.0,0.29539999999997235
50,15,0.5,1.0,35.0,1,1.0,0.6200999999999794
51,15,0.5,0.125,35.0,1,1.0,1.3997009999999648
52,15,0.5,1.0,35.0,1,1.0,2.15979999999999
53,15,0.5,1.0,35.0,1,1.0,0.7472999999999956
54,15,0.5,0.125,35.0,1,1.0,1.2113999999999692
55,15,0.5,1.0,-35.0,-1,1.0,0.2720009999999604
56,15,0.5,0.0625,-35.0,1,0.0,0.13320099999998547
57,15,0.5,0.125,35.0,1,1.0,0.3819999999999766
58,15,0.5,0.25,-35.0,-1,1.0,0.6032009999999559
59,15,0.5,1.0,35.0,1,1.0,3.5811009999999897
60,15,0.5,0.125,-35.0,-1,1.0,0.7637009999999691
61,15,0.5,0.0,35.0,1,1.0,3.4875999999999294
62,15,0.5,0.0,35.0,1,1.0,0.3802009999999427
63,15,0.5,0.125,35.0,1,1.0,1.6829009999999585
64,15,0.5,0.25,35.0,1,1.0,1.1465010000000007
65,15,0.5,0.25,35.0,1,1.0,1.120900000000006
66,15,0.5,0.0,-35.0,1,0.0,0.6803009999999858
67,15,0.8,0.0,-35.0,1,0.0,0.38110199999994165
68,15,0.5,1.0,35.0,1,1.0,0.3210019999999645
69,15,0.5,0.0625,35.0,1,1.0,1.3720009999999547
70,15,0.5,0.125,-35.0,-1,1.0,0.6625010000000202
71,15,0.5,1.0,35.0,1,1.0,0.1727009999999609
72,15,0.5,1.0,-35.0,-1,1.0,0.40930200000002515
73,15,0.5,0.0625,-35.0,1,0.0,0.2451019999999744
74,15,0.5,0.125,35.0,1,1.0,3.665902000000017
75,15,0.5,0.25,-35.0,1,0.0,0.6362020000000257
76,15,0.5,0.25,35.0,1,1.0,0.3114009999999894
77,15,0.5,1.0,-35.0,-1,1.0,0.4850020000000086
78,15,0.5,0.25,-35.0,-1,1.0,0.6173009999999977
79,15,0.5,0.25,35.0,1,1.0,1.2460019999999759
80,15,0.5,0.125,-35.0,-1,1.0,0.36450200000001587
81,15,0.5,1.0,35.0,1,1.0,1.144600999999966
82,15,0.5,0.125,-35.0,-1,1.0,0.22930100000002085
83,15,0.5,0.125,-35.0,-1,1.0,0.5031009999999583
84,15,0.5,0.0,-35.0,1,0.0,0.36750099999994745
85,15,0.5,0.0,-35.0,1,0.0,0.37750099999993836
86,15,0.5,1.0,35.0,1,1.0,0.6604009999999789
87,15,0.5,1.0,-35.0,-1,1.0,0.4610010000000102
88,15,0.5,0.125,-35.0,1,0.0,2.113500999999985
89,15,0.5,0.0625,-35.0,-1,1.0,0.251500999999962
90,15,0.5,1.0,-35.0,-1,1.0,0.3573009999999499
91,15,0.5,0.0625,35.0,1,1.0,0.3870009999999411
92,15,0.5,0.0,35.0,1,1.0,2.4363009999999576
93,15,0.5,0.0,-35.0,-1,1.0,0.30130099999996673
94,15,0.5,0.0,35.0,1,1.0,1.7546009999999796
95,15,0.5,0.0625,35.0,1,1.0,0.3361009999999851
96,15,0.5,0.25,35.0,1,1.0,0.512600999999961
97,15,0.5,0.125,-35.0,-1,1.0,0.6105019999999968
98,15,0.5,1.0,-35.0,-1,1.0,0.2846010000000092
99,15,0.5,1.0,35.0,1,1.0,0.42100099999998974
100,15,0.5,0.0,-35.0,1,0.0,0.21960100000001148
101,15,0.5,0.25,-35.0,-1,1.0,1.0880010000000198
102,15,0.5,1.0,35.0,1,1.0,2.1827010000000087
103,15,0.5,0.125,-35.0,-1,1.0,0.28390099999995755
104,15,0.5,0.25,35.0,1,1.0,0.20380099999999857
105,15,0.5,0.0625,35.0,1,1.0,0.5402009999999677
106,15,0.5,0.0,35.0,1,1.0,3.5848009999999704
107,15,0.5,0.25,35.0,1,1.0,0.5198010000000295
108,15,0.5,0.0625,35.0,1,1.0,0.5787010000000237
109,15,0.5,0.25,-35.0,1,0.0,3.5214010000000258
110,15,0.5,0.25,-35.0,-1,1.0,0.45450099999993654
111,15,0.5,0.25,-35.0,-1,1.0,0.2595010000000002
112,15,0.5,0.125,35.0,1,1.0,0.28790200000003097
113,15,0.5,0.25,35.0,1,1.0,0.1415010000000052
114,15,0.5,0.0,35.0,1,1.0,1.2508020000000215
115,15,0.5,0.0625,-35.0,1,0.0,1.6119019999999296
116,15,0.5,0.0625,35.0,1,1.0,0.20350199999995766
117,15,0.5,0.0625,-35.0,1,0.0,1.1626019999999926
118,15,0.5,0.0,-35.0,1,0.0,0.3738010000000145
119,15,0.5,0.0625,-35.0,-1,1.0,0.3524009999999862
120,15,0.5,1.0,-35.0,-1,1.0,0.2768010000000345
121,15,0.5,1.0,35.0,1,1.0,0.3520010000000866
122,15,0.5,1.0,35.0,1,1.0,0.22890099999995073
123,15,0.5,0.125,35.0,1,1.0,0.1690009999999802
124,15,0.5,0.125,-35.0,1,0.0,0.8149009999999635
125,15,0.5,0.0625,35.0,1,1.0,0.14230099999986123
126,15,0.5,0.0625,35.0,1,1.0,0.17950099999995928
127,15,0.5,0.0625,35.0,1,1.0,0.1806020000000217
128,15,0.5,0.25,-35.0,-1,1.0,0.28060099999993326
129,15,0.5,0.125,35.0,1,1.0,0.3384009999999762
130,15,0.5,0.0,35.0,1,1.0,2.2257019999999557
131,15,0.5,0.0625,-35.0,1,0.0,1.3016009999998914
132,15,0.5,0.0625,35.0,1,1.0,0.28700100000003204
133,15,0.5,0.0625,35.0,1,1.0,2.054600999999934
134,15,0.5,0.125,35.0,1,1.0,0.3261019999999917
135,15,0.5,1.0,-35.0,-1,1.0,0.2640010000000075
136,15,0.5,1.0,-35.0,1,0.0,0.36520200000006753
137,15,0.5,0.0625,35.0,1,1.0,0.19080099999996492
138,15,0.5,0.125,-35.0,1,0.0,0.4071010000000115
139,15,0.5,0.125,-35.0,1,0.0,0.6382009999999809
140,15,0.9,0.125,-35.0,1,0.0,0.46400099999993927
141,15,0.5,1.0,-35.0,-1,1.0,0.22980099999995218
142,15,0.5,0.0625,35.0,1,1.0,5.9991019999999935
143,15,0.5,0.0,35.0,1,1.0,4.343801999999982
144,15,0.5,0.0625,35.0,1,1.0,0.37800099999992653
145,15,0.5,1.0,35.0,1,1.0,0.4402019999999993
146,15,0.5,0.125,35.0,1,1.0,0.2473019999998769
147,15,0.5,0.0625,-35.0,1,0.0,0.22850099999993745
148,15,0.5,0.125,-35.0,-1,1.0,0.31490099999996346
149,15,0.5,1.0,35.0,1,1.0,0.14530200000001514
150,15,0.5,0.25,-35.0,-1,1.0,0.29260199999998804
151,15,0.5,0.125,-35.0,1,0.0,0.3503010000000586
152,15,0.8,0.125,-35.0,1,0.0,2.33290199999999
153,15,0.5,1.0,-35.0,-1,1.0,0.7203020000000606
154,15,0.5,1.0,-35.0,-1,1.0,0.24700100000006842
155,15,0.5,0.0625,35.0,1,1.0,0.36950099999990016
156,15,0.5,0.0,35.0,1,1.0,3.0943019999999706
157,15,0.5,0.25,-35.0,-1,1.0,0.6084020000000692
158,15,0.5,0.0625,-35.0,1,0.0,0.4879009999999653
159,15,0.5,0.25,-35.0,-1,1.0,0.24050099999999475
160,15,0.5,0.25,-35.0,1,0.0,0.38510199999996075
161,15,0.5,0.125,-35.0,1,0.0,1.0656010000000151
162,15,0.5,0.25,35.0,1,1.0,0.39370100000007824
163,15,0.5,0.0,-35.0,1,0.0,1.9865009999999756
164,15,0.5,0.25,35.0,1,1.0,0.4145009999999729
165,15,0.5,0.0,35.0,1,1.0,0.30260199999997894
166,15,0.5,1.0,-35.0,1,0.0,0.10760200000004261
167,15,0.8,1.0,-35.0,-1,1.0,0.29050199999994675
168,15,0.5,1.0,-35.0,-1,1.0,0.3158009999999649
169,15,0.5,0.125,-35.0,1,0.0,2.1567009999998845
170,15,0.5,0.0625,-35.0,-1,1.0,0.2494010000000344
171,15,0.5,0.25,-35.0,1,0.0,2.539900999999986
172,15,0.5,0.0625,35.0,1,1.0,0.42210099999988415
173,15,0.5,1.0,35.0,1,1.0,0.30090199999995093
174,15,0.5,1.0,-35.0,-1,1.0,0.2777019999999766
175,15,0.5,1.0,35.0,1,1.0,0.31280100000003586
176,15,0.5,0.0625,-35.0,1,0.0,1.6139020000000528
177,15,0.5,0.125,-35.0,1,0.0,0.8448019999999588
178,15,0.7,0.125,35.0,1,1.0,0.4557009999999764
179,15,0.5,1.0,35.0,1,1.0,0.33470199999999295
180,15,0.5,0.25,35.0,1,1.0,0.10480199999994966
181,15,0.5,1.0,-35.0,-1,1.0,0.5456019999999171
182,15,0.5,0.125,-35.0,1,0.0,5.225500999999895
183,15,0.5,0.0,35.0,1,1.0,0.3013020000000779
184,15,0.5,1.0,35.0,1,1.0,0.3469009999998889
185,15,0.5,0.125,-35.0,1,0.0,1.5036009999998896
186,15,0.5,0.25,35.0,1,1.0,0.7205020000000104
187,15,0.5,0.0625,-35.0,1,0.0,1.0814020000000255
188,15,0.5,0.0625,-35.0,1,0.0,0.6457020000000284
189,15,0.9,0.0625,-35.0,1,0.0,3.6468009999998685
190,15,0.5,1.0,-35.0,-1,1.0,0.26650099999994836
191,15,0.5,0.0,-35.0,1,0.0,0.43770100000006096
192,15,0.5,0.0,-35.0,1,0.0,0.3903010000000222
193,15,0.5,0.0625,-35.0,1,0.0,2.1022010000000364
194,15,0.9,0.0625,-35.0,1,0.0,2.4609009999999216
195,15,0.5,1.0,-35.0,-1,1.0,0.32710099999997055
196,15,0.5,0.0625,-35.0,1,0.0,0.597101000000066
197,15,0.5,0.0,35.0,1,1.0,2.86210200000005
198,15,0.5,0.25,35.0,1,1.0,1.6287020000000894
199,15,0.5,0.125,-35.0,1,0.0,1.8474009999999907
200,15,0.8,0.125,-35.0,-1,1.0,0.2849019999999882
201,15,0.5,1.0,-35.0,-1,1.0,0.333800999999994
202,15,0.5,0.125,35.0,1,1.0,0.26850199999989854
203,15,0.5,0.0625,35.0,1,1.0,0.21400099999993927
204,15,0.5,1.0,-35.0,-1,1.0,0.2497009999999591
205,15,0.5,0.0625,-35.0,1,0.0,3.5292009999999436
206,15,0.5,0.0625,35.0,1,1.0,0.35530100000005405
207,15,0.5,0.25,-35.0,-1,1.0,0.5875009999999747
208,15,0.5,0.125,-35.0,1,0.0,0.5427009999999655
209,15,0.5,0.0625,35.0,1,1.0,0.5409009999999626
210,15,0.5,0.0625,35.0,1,1.0,0.9488009999998894
211,15,0.5,0.125,35.0,1,1.0,4.369402000000036
212,15,0.5,1.0,35.0,1,1.0,0.39340199999992365
213,15,0.5,0.0625,35.0,1,1.0,0.4281019999999671
214,15,0.5,0.125,35.0,1,1.0,1.9420010000000048
215,15,0.5,1.0,35.0,1,1.0,0.615301000000045
216,15,0.5,1.0,35.0,1,1.0,0.3516019999999571
217,15,0.5,1.0,35.0,1,1.0,1.3863020000000006
218,15,0.5,0.125,35.0,1,1.0,4.157200999999986
219,15,0.5,0.125,-35.0,-1,1.0,1.299400999999989
220,15,0.5,0.0625,-35.0,1,0.0,4.82460100000003
221,15,0.5,0.125,35.0,1,1.0,0.48260099999993145
222,15,0.5,0.125,-35.0,1,0.0,3.1440020000000004
223,15,0.5,0.0625,-35.0,1,0.0,0.5625009999999975
224,15,0.9,0.0625,-35.0,1,0.0,1.6400009999999838
225,15,0.5,1.0,-35.0,-1,1.0,0.22250099999996564
226,15,0.5,0.25,35.0,1,1.0,0.12210100000004331
227,15,0.5,0.0625,-35.0,1,0.0,3.074702000000002
228,15,0.5,0.125,-35.0,1,0.0,2.4723020000000133
229,15,0.5,0.125,-35.0,-1,1.0,0.30850199999997585
230,15,0.5,0.0625,-35.0,1,0.0,2.3621009999999387
231,15,0.5,0.125,35.0,1,1.0,2.9175010000000157
232,15,0.5,0.125,-35.0,1,0.0,0.8293019999999842
233,15,0.5,0.125,35.0,1,1.0,0.4614010000000235
234,15,0.5,0.0625,35.0,1,1.0,1.342901999999981
235,15,0.5,0.0625,-35.0,1,0.0,2.8987010000000737
236,15,0.9,0.0625,35.0,1,1.0,0.6900010000001657
237,15,0.5,1.0,-35.0,-1,1.0,1.4382009999999354
238,15,0.5,0.0625,-35.0,1,0.0,0.2800009999998565
239,15,0.5,0.0,-35.0,1,0.0,1.8884009999999307
240,15,0.9,0.0,-35.0,1,0.0,2.710300999999845
241,15,0.5,1.0,-35.0,-1,1.0,1.4591019999998025
242,15,0.5,0.25,35.0,1,1.0,0.34730100000001585
243,15,0.5,0.125,35.0,1,1.0,0.34880100000009406
244,15,0.5,0.25,-35.0,-1,1.0,0.8206010000001243
245,15,0.5,0.0625,-35.0,1,0.0,0.4225010000000111
246,15,0.7,0.0625,-35.0,1,0.0,1.1243010000000595
247,15,0.5,1.0,-35.0,-1,1.0,12.889901000000009
248,15,0.5,1.0,-35.0,-1,1.0,0.36820099999977174
249,15,0.5,0.125,35.0,1,1.0,4.276401000000078
250,15,0.5,0.0625,-35.0,1,0.0,2.2083010000001195
251,15,0.6,0.0625,35.0,1,1.0,0.5469010000001617
252,15,0.5,1.0,35.0,1,1.0,0.3486009999999169
253,15,0.5,0.25,-35.0,1,0.0,2.784300999999914
254,15,0.5,0.25,35.0,1,1.0,0.5422019999998611
255,15,0.5,0.0625,-35.0,1,0.0,1.824000999999953
256,15,0.5,0.125,35.0,1,1.0,0.3522010000001501
257,15,0.5,0.125,-35.0,1,0.0,0.15400100000010752
258,15,0.5,0.0625,35.0,1,1.0,1.7559009999999944
259,15,0.5,0.125,35.0,1,1.0,0.1108009999998103
260,15,0.5,0.25,35.0,1,1.0,0.2560009999999693
261,15,0.5,0.125,35.0,1,1.0,0.33110099999998965
262,15,0.5,0.125,-35.0,1,0.0,1.9831010000000333
263,15,0.5,0.0625,-35.0,1,0.0,1.2047019999999975
264,15,0.5,0.125,35.0,1,1.0,0.5164009999998598
265,15,0.5,0.0,35.0,1,1.0,0.2652019999998174
266,15,0.5,0.25,35.0,1,1.0,2.0601010000000315
267,15,0.5,0.0,35.0,1,1.0,0.4252010000000155
268,15,0.5,0.0,35.0,1,1.0,0.09370100000001003
269,15,0.5,0.25,-35.0,1,0.0,0.23030099999982667
270,15,0.5,0.125,-35.0,1,0.0,0.3283010000000104
271,15,0.5,0.0625,35.0,1,1.0,5.723801000000094
272,15,0.5,0.0625,35.0,1,1.0,0.3258009999999558
273,15,0.5,1.0,35.0,1,1.0,0.4142010000000482
274,15,0.5,1.0,-35.0,1,0.0,0.11620099999981903
275,15,0.5,0.125,-35.0,1,0.0,1.8977020000002085
276,15,0.5,0.125,35.0,1,1.0,1.2664010000000872
277,15,0.5,0.25,-35.0,1,0.0,0.12120200000003933
278,15,0.5,0.25,35.0,1,1.0,0.47980200000006334
279,15,0.5,0.0625,-35.0,1,0.0,0.19790099999977429
280,15,0.5,0.0625,35.0,1,1.0,0.2234009999999671
281,15,0.5,0.0,-35.0,1,0.0,1.0983009999999922
282,15,0.5,0.25,35.0,1,1.0,0.28040099999998347
283,15,0.5,0.0625,35.0,1,1.0,0.3484019999998509
284,15,0.5,0.125,-35.0,1,0.0,0.0905009999999038
285,15,0.5,0.25,35.0,1,1.0,0.21540100000015627
286,15,0.5,0.125,35.0,1,1.0,0.5671010000000933
287,15,0.5,1.0,-35.0,-1,1.0,0.7653009999999085
288,15,0.5,0.0625,-35.0,1,0.0,0.26740099999983613
289,15,0.5,0.0,-35.0,1,0.0,0.13570099999992635
290,15,0.5,0.125,35.0,1,1.0,0.46410100000002785
291,15,0.5,0.125,-35.0,-1,1.0,0.4323010000000522
292,15,0.5,0.125,-35.0,1,0.0,0.4915009999997437
293,15,0.5,0.0625,35.0,1,1.0,0.7028010000001359
294,15,0.5,0.0625,-35.0,1,0.0,0.1241019999999935
295,15,0.5,0.125,-35.0,-1,1.0,0.25270099999988815
296,15,0.5,1.0,35.0,1,1.0,0.48170099999993
297,15,0.5,0.125,35.0,1,1.0,1.4196019999999407
298,15,0.5,0.0,-35.0,1,0.0,0.31860200000005534
299,15,0.5,0.0625,35.0,1,1.0,0.35670099999993
300,15,0.5,0.25,35.0,1,1.0,0.3257009999999809
301,15,0.5,1.0,35.0,1,1.0,0.21000100000014754
302,15,0.5,0.0625,-35.0,1,0.0,0.2390010000001439
303,15,0.5,0.0625,-35.0,1,0.0,0.10690100000010716
304,15,0.9,0.0625,-35.0,-1,1.0,0.29560200000014447
305,15,0.5,1.0,-35.0,-1,1.0,0.457100999999966
306,15,0.5,0.0,-35.0,1,0.0,0.30870199999981196
307,15,0.5,0.125,35.0,1,1.0,0.29080199999998513
308,15,0.5,0.25,-35.0,-1,1.0,0.5289020000000164
309,15,0.5,0.0625,-35.0,1,0.0,1.4909010000001217
310,15,0.5,0.0625,-35.0,-1,1.0,0.9358019999999669
311,15,0.5,0.0625,-35.0,1,0.0,0.16770100000007915
312,15,0.5,0.125,35.0,1,1.0,2.4966020000001663
313,15,0.5,1.0,35.0,1,1.0,0.31150099999990744
314,15,0.5,0.0625,-35.0,1,0.0,2.1600009999999656
315,15,0.5,0.125,-35.0,-1,1.0,0.6382019999998647
316,15,0.5,0.25,-35.0,-1,1.0,0.7198009999997339
317,15,0.5,1.0,-35.0,-1,1.0,0.35890100000005987
318,15,0.5,0.125,-35.0,1,0.0,5.290301000000227
319,15,0.5,0.125,-35.0,1,0.0,3.8788019999999506
320,15,0.6,0.125,35.0,1,1.0,0.3749019999997927
321,15,0.5,1.0,-35.0,-1,1.0,0.40570099999990816
322,15,0.5,0.0625,-35.0,1,0.0,0.3141009999999369
323,15,0.6,0.0625,35.0,1,1.0,0.5160009999999602
324,15,0.5,1.0,35.0,1,1.0,2.074000999999953
325,15,0.5,0.0,-35.0,1,0.0,0.41270099999997
326,15,0.5,0.0625,35.0,1,1.0,1.5012010000000373
327,15,0.5,0.125,-35.0,1,0.0,0.6931010000000697
328,15,0.5,0.125,35.0,1,1.0,0.32470199999988836
329,15,0.5,1.0,-35.0,-1,1.0,0.2333009999999831
330,15,0.5,0.0625,35.0,1,1.0,0.42530200000010154
331,15,0.5,0.0625,-35.0,1,0.0,0.33660199999985707
332,15,0.5,0.125,-35.0,-1,1.0,0.32870099999991
333,15,0.5,0.0625,-35.0,1,0.0,0.40710100000023886
334,15,0.5,0.0625,-35.0,1,0.0,2.468800999999985
335,15,0.5,0.0625,35.0,1,1.0,4.370402000000013
336,15,0.5,0.0,35.0,1,1.0,5.386301000000003
337,15,0.5,0.0,-35.0,1,0.0,1.7341010000000097
338,15,0.8,0.0,-35.0,1,0.0,0.6592020000000502
339,15,0.5,1.0,-35.0,-1,1.0,0.5877009999999245
340,15,0.5,0.0,-35.0,-1,1.0,1.4234010000000126
341,15,0.5,0.25,-35.0,1,0.0,0.42810099999996964
342,15,0.5,0.25,35.0,1,1.0,0.6199010000000271
343,15,0.5,0.25,35.0,1,1.0,1.7684010000000399
344,15,0.5,0.25,35.0,1,1.0,0.7432020000001103
345,15,0.5,1.0,35.0,1,1.0,0.6286009999998896
346,15,0.5,0.25,-35.0,1,0.0,1.5105009999999766
347,15,0.5,0.125,35.0,1,1.0,0.4286019999999553
348,15,0.5,0.25,35.0,1,1.0,0.34030200000006516
349,15,0.5,0.125,35.0,1,1.0,4.288800999999921
350,15,0.5,1.0,35.0,1,1.0,0.7970020000000204
351,15,0.5,1.0,-35.0,-1,1.0,0.3959010000000944
352,15,0.5,0.25,35.0,1,1.0,0.8716009999998278
353,15,0.5,0.0625,35.0,1,1.0,0.6744009999999889
354,15,0.5,1.0,35.0,1,1.0,0.35140100000012353
355,15,0.5,0.125,-35.0,1,0.0,0.39600099999984195
356,15,0.9,0.125,-35.0,1,0.0,1.412501999999904
357,15,0.5,1.0,35.0,1,1.0,0.5231009999999969
358,15,0.5,0.125,35.0,1,1.0,3.435500999999931
359,15,0.5,1.0,-35.0,1,0.0,3.6899009999999635
360,15,0.5,0.0625,-35.0,1,0.0,3.1484009999999216
361,15,0.5,0.0,-35.0,1,0.0,1.7335010000001603
362,15,0.5,0.0625,-35.0,1,0.0,0.73170099999993
363,15,1.0,0.0625,-35.0,1,0.0,2.9970009999999547
364,15,0.5,1.0,-35.0,-1,1.0,0.41210099999989325
365,15,0.5,0.0,-35.0,1,0.0,0.45710200000007717
366,15,0.5,0.25,35.0,1,1.0,0.36570099999994454
367,15,0.5,1.0,-35.0,-1,1.0,0.6010020000001077
368,15,0.5,0.125,-35.0,1,0.0,2.3259019999998145
369,15,0.8,0.125,-35.0,1,0.0,6.087602000000061
370,15,0.5,1.0,-35.0,-1,1.0,0.33300199999985125
371,15,0.5,0.125,35.0,1,1.0,0.298001000000113
372,15,0.5,0.125,-35.0,1,0.0,1.4439009999998689
373,15,0.5,0.25,-35.0,-1,1.0,0.26160200000003897
374,15,0.5,1.0,35.0,1,1.0,0.3539010000001781
375,15,0.5,0.0625,-35.0,-1,1.0,1.3582010000000082
376,15,0.5,0.0625,-35.0,1,0.0,5.746902000000091
377,15,0.5,0.25,35.0,1,1.0,0.3454020000001492
378,15,0.5,0.25,35.0,1,1.0,2.5209010000000944
379,15,0.5,0.125,35.0,1,1.0,1.9656019999999899
380,15,0.5,0.25,-35.0,-1,1.0,0.7849010000002181
381,15,0.5,0.0625,35.0,1,1.0,0.42590199999995093
382,15,0.5,1.0,-35.0,-1,1.0,0.4815009999999802
383,15,0.5,0.125,35.0,1,1.0,0.4027009999999791
384,15,0.5,0.0625,-35.0,1,0.0,0.6012020000000575
385,15,0.5,0.0,-35.0,1,0.0,0.47310099999981503
386,15,0.5,0.125,-35.0,-1,1.0,0.31500100000016573
387,15,0.5,0.0625,-35.0,1,0.0,0.4997009999997317
388,15,0.5,0.25,-35.0,-1,1.0,0.5382019999999557
389,15,0.5,1.0,35.0,1,1.0,0.3665009999999711
390,15,0.5,1.0,35.0,1,1.0,0.3114020000000437
391,15,0.5,0.125,-35.0,1,0.0,0.2234009999999671
392,15,0.7,0.125,35.0,1,1.0,0.32220200000006116
393,15,0.5,1.0,-35.0,-1,1.0,0.4470010000000002
394,15,0.5,0.125,35.0,1,1.0,1.7216009999999642
395,15,0.5,0.25,-35.0,-1,1.0,0.5303010000000086
396,15,0.5,0.0625,-35.0,1,0.0,1.4691009999999096
397,15,0.7,0.0625,35.0,1,1.0,0.17050099999983104
398,15,0.5,1.0,-35.0,-1,1.0,1.0357010000000173
399,15,0.5,0.125,35.0,1,1.0,0.2674010000000635
400,15,0.5,0.25,-35.0,-1,1.0,0.5059009999999944
401,15,0.5,1.0,-35.0,1,0.0,0.11770099999989725
402,15,0.5,0.125,-35.0,-1,1.0,0.5593010000000049
403,15,0.5,0.25,-35.0,1,0.0,0.267701999999872
404,15,0.5,0.25,-35.0,-1,1.0,0.31950099999994563
405,15,0.5,0.0625,-35.0,1,0.0,0.13790199999994002
406,15,0.6,0.0625,-35.0,1,0.0,2.2248010000000704
407,15,0.5,1.0,-35.0,-1,1.0,0.2533009999999649
408,15,0.5,0.0625,35.0,1,1.0,0.31480099999998856
409,15,0.5,0.125,-35.0,1,0.0,0.3733009999998558
410,15,0.5,0.0625,-35.0,-1,1.0,1.1685019999999895
411,15,0.5,0.125,35.0,1,1.0,0.29450100000008206
412,15,0.5,0.25,35.0,1,1.0,0.20200099999988197
413,15,0.5,0.0,35.0,1,1.0,1.6104020000000219
414,15,0.5,0.125,35.0,1,1.0,0.34870200000000295
415,15,0.5,0.0,35.0,1,1.0,2.574000999999953
416,15,0.5,1.0,-35.0,-1,1.0,0.5023009999999886
417,15,0.5,0.0625,35.0,1,1.0,0.7004010000002836
418,15,0.5,0.25,-35.0,-1,1.0,0.27260100000012244
419,15,0.5,0.25,-35.0,-1,1.0,0.2610020000001896
420,15,0.5,1.0,35.0,1,1.0,0.216202000000294
421,15,0.5,0.0625,-35.0,1,0.0,0.9344009999999798
422,15,0.7,0.0625,-35.0,1,0.0,3.0531009999999696
423,15,0.5,1.0,-35.0,-1,1.0,0.36140199999977085
424,15,0.5,0.25,-35.0,-1,1.0,0.32670200000006844
425,15,0.5,0.0625,-35.0,-1,1.0,0.6948019999999815
426,15,0.5,0.0,-35.0,1,0.0,0.2570020000000568
427,15,0.5,0.0,35.0,1,1.0,0.3057019999998829
428,15,0.5,1.0,35.0,1,1.0,6.673700999999937
429,15,0.5,0.0625,35.0,1,1.0,1.3426009999998314
430,15,0.5,0.25,-35.0,1,0.0,1.0973010000000158
431,15,0.5,0.0,35.0,1,1.0,2.5028010000000904
432,15,0.5,1.0,35.0,1,1.0,0.34080100000005586
433,15,0.5,0.0625,-35.0,1,0.0,0.40950100000009115
434,15,0.5,0.25,35.0,1,1.0,1.014500999999882
435,15,0.5,0.0,35.0,-1,0.0,0.2892010000000482
436,15,0.5,0.0,35.0,-1,0.0,7.888001000000031
437,15,0.5,0.0,35.0,1,1.0,1.0496009999999387
438,15,0.5,0.125,-35.0,-1,1.0,0.4152010000000246
439,15,0.5,0.25,35.0,1,1.0,2.3373019999999087
440,15,0.5,0.25,-35.0,1,0.0,4.272001000000046
441,15,0.5,0.125,-35.0,1,0.0,0.7905009999997219
442,15,0.5,0.125,35.0,1,1.0,0.5554010000000744
443,15,0.5,0.0625,35.0,1,1.0,0.4510009999999056
444,15,0.5,0.125,35.0,1,1.0,0.31240100000013626
445,15,0.5,1.0,-35.0,-1,1.0,2.1850010000000566
446,15,0.5,1.0,-35.0,-1,1.0,0.47270099999991544
447,15,0.5,0.25,-35.0,1,0.0,1.9284020000000055
448,15,0.5,0.125,35.0,1,1.0,0.2894010000002254
449,15,0.5,0.0,35.0,1,1.0,1.141100999999935
450,15,0.5,0.0625,-35.0,1,0.0,0.2129010000001017
451,15,0.5,0.0,-35.0,1,0.0,0.5051009999999678
452,15,0.5,0.0625,35.0,-1,0.0,0.3201010000000224
453,15,0.5,0.0625,35.0,1,1.0,0.3885020000000168
454,15,0.5,0.125,-35.0,1,0.0,0.3869009999998525
455,15,0.5,0.25,35.0,1,1.0,0.35850200000004406
456,15,0.5,1.0,-35.0,-1,1.0,0.49030100000004495
457,15,0.5,1.0,35.0,1,1.0,0.3353020000001834
458,15,0.5,0.0625,35.0,1,1.0,0.1172020000003613
459,15,0.5,0.25,-35.0,-1,1.0,0.6055019999998876
460,15,0.5,0.0625,35.0,1,1.0,0.19400100000029852
461,15,0.5,1.0,35.0,1,1.0,0.39550199999985125
462,15,0.5,0.25,-35.0,-1,1.0,0.3642010000003211
463,15,0.5,1.0,-35.0,1,0.0,0.07260100000030434
464,15,0.5,0.25,-35.0,-1,1.0,0.6141010000001188
465,15,0.5,0.125,-35.0,1,0.0,2.725901000000249
466,15,0.5,0.0625,-35.0,1,0.0,0.23800100000016755
467,15,0.5,0.0625,35.0,1,1.0,0.2702009999998154
468,15,0.5,1.0,35.0,1,1.0,0.31810100000029706
469,15,0.5,1.0,-35.0,-1,1.0,0.35330100000010134
470,15,0.5,1.0,-35.0,-1,1.0,0.4184010000003582
471,15,0.5,0.0,-35.0,1,0.0,0.2701020000004064
472,15,0.5,0.125,-35.0,-1,1.0,0.3619010000002163
473,15,0.5,0.0,35.0,1,1.0,0.2774010000002818
474,15,0.5,0.125,35.0,1,1.0,0.3154020000001765
475,15,0.5,1.0,35.0,1,1.0,0.447102000000541
476,15,0.5,0.25,35.0,1,1.0,0.30880200000001423
477,15,0.5,0.0,-35.0,1,0.0,1.6344010000007074
478,15,0.5,0.0625,35.0,1,1.0,2.8425020000004224
479,15,0.5,0.25,35.0,1,1.0,0.7284010000003036
480,15,0.5,0.125,-35.0,1,0.0,0.1224010000000817
481,15,0.5,0.25,-35.0,1,0.0,0.21110100000078091
482,15,0.5,0.25,35.0,1,1.0,0.4365010000001348
483,15,0.5,0.0625,35.0,1,1.0,0.46100200000046243
484,15,0.5,1.0,35.0,1,1.0,0.5366010000007009
485,15,0.5,0.125,-35.0,1,0.0,4.995501000000331
486,15,0.5,0.0,-35.0,1,0.0,0.2833010000003924
487,15,0.5,0.125,-35.0,-1,1.0,0.7196010000002389
488,15,0.5,1.0,35.0,1,1.0,0.5970010000005459
489,15,0.5,0.125,-35.0,1,0.0,0.4884010000005219
490,15,0.5,0.0625,-35.0,-1,1.0,0.3970009999998183
491,15,0.5,1.0,-35.0,-1,1.0,0.411902000000282
492,15,0.5,0.0,-35.0,1,0.0,3.0908010000002832
493,15,0.7,0.0,-35.0,1,0.0,0.6962020000005396
494,15,0.5,1.0,-35.0,-1,1.0,0.32750099999975646
495,15,0.5,0.0,-35.0,1,0.0,0.5328010000002905
496,15,0.5,0.0625,35.0,1,1.0,0.4776010000000497
497,15,0.5,1.0,35.0,1,1.0,0.3127019999997174
498,15,0.5,1.0,35.0,1,1.0,3.5811020000005556
499,15,0.5,0.25,35.0,1,1.0,1.6062019999999393
500,15,0.5,0.25,35.0,1,1.0,0.4814010000000053
501,15,0.5,0.125,-35.0,-1,1.0,3.5099020000002383
502,15,0.5,1.0,-35.0,-1,1.0,0.36510100000032253
503,15,0.5,0.25,35.0,1,1.0,0.48780100000021775
504,15,0.5,1.0,35.0,1,1.0,0.3919010000004164
505,15,0.5,0.25,35.0,1,1.0,3.6468010000003233
506,15,0.5,0.125,35.0,1,1.0,0.9353009999999813
507,15,0.5,0.25,-35.0,-1,1.0,0.5509010000000671
508,15,0.5,0.125,-35.0,1,0.0,3.1356019999998352
509,15,0.5,0.0625,-35.0,-1,1.0,0.5573020000001634
510,15,0.5,0.0625,35.0,1,1.0,4.255701000000045
511,15,0.5,1.0,-35.0,-1,1.0,1.050901000000522
512,15,0.5,0.0625,35.0,1,1.0,3.2661020000000462
513,15,0.5,0.125,35.0,1,1.0,0.11190200000010009
514,15,0.5,0.25,35.0,1,1.0,0.939701000000241
515,15,0.5,1.0,35.0,1,1.0,1.3751019999999698
516,15,0.5,1.0,-35.0,-1,1.0,0.4766010000003007
517,15,0.5,0.125,-35.0,1,0.0,0.38200200000028417
518,15,0.5,0.0,-35.0,1,0.0,3.5669010000001435
519,15,0.5,0.0625,-35.0,1,0.0,0.5852019999997538
520,15,0.5,0.125,-35.0,-1,1.0,0.34030200000006516
521,15,0.5,0.25,35.0,1,1.0,5.188900999999987
522,15,0.5,0.0625,35.0,1,1.0,2.687201000000641
523,15,0.5,1.0,35.0,1,1.0,0.502201000000241
524,15,0.5,1.0,-35.0,-1,1.0,0.4675010000000839
525,15,0.5,1.0,-35.0,-1,1.0,0.3472010000004957
526,15,0.5,1.0,-35.0,-1,1.0,0.32440100000030725
527,15,0.5,1.0,-35.0,-1,1.0,0.30260100000032253
528,15,0.5,0.0625,35.0,1,1.0,0.6914019999999255
529,15,0.5,0.125,-35.0,1,0.0,5.042901000000256
530,15,0.5,0.0625,-35.0,-1,1.0,4.70160100000021
531,15,0.5,0.125,35.0,1,1.0,1.6633010000000468
532,15,0.5,0.125,-35.0,-1,1.0,0.9220020000002478
533,15,0.5,0.0625,35.0,1,1.0,5.333601000000272
534,15,0.5,0.125,-35.0,1,0.0,2.2887009999999464
535,15,0.5,0.25,35.0,-1,0.0,0.961402000000362
536,15,0.5,0.125,-35.0,-1,1.0,0.3324010000005728
537,15,0.5,0.25,-35.0,1,0.0,7.067301999999927
538,15,0.5,0.0625,35.0,1,1.0,0.4261020000003555
539,15,0.5,0.25,-35.0,-1,1.0,0.5175010000002658
540,15,0.5,1.0,35.0,1,1.0,0.46630099999993035
541,15,0.5,1.0,35.0,1,1.0,0.5181010000001152
542,15,0.5,0.0625,35.0,1,1.0,0.46630099999993035
543,15,0.5,1.0,35.0,1,1.0,0.38550200000054247
544,15,0.5,0.125,35.0,1,1.0,0.49000200000000405
545,15,0.5,0.25,-35.0,-1,1.0,0.8455010000002403
546,15,0.5,0.25,-35.0,-1,1.0,0.3233020000002398
547,15,0.5,0.0625,35.0,1,1.0,5.902501000000484
548,15,0.5,0.0625,35.0,1,1.0,3.2337009999996553
549,15,0.5,0.125,-35.0,1,0.0,0.4226010000002134
550,15,0.8,0.125,35.0,1,1.0,9.177202000000307
551,15,0.5,1.0,-35.0,-1,1.0,0.419701000000714
552,15,0.5,0.25,-35.0,-1,1.0,9.894402000000355
553,15,0.5,0.25,-35.0,-1,1.0,0.3997010000002774
554,15,0.5,0.125,-35.0,1,0.0,3.1116020000004028
555,15,0.5,0.25,35.0,1,1.0,0.45380100000011225
556,15,0.5,1.0,35.0,1,1.0,1.0616020000002209
557,15,0.5,0.25,35.0,1,1.0,0.44680100000050516
558,15,0.5,1.0,-35.0,-1,1.0,0.7254020000004857
559,15,0.5,0.0,35.0,1,1.0,0.5902020000003176
560,15,0.5,1.0,35.0,1,1.0,0.895502000000306
561,15,0.5,0.25,35.0,1,1.0,0.5169010000004164
562,15,0.5,0.125,35.0,1,1.0,6.159000999999989
563,15,0.5,0.25,-35.0,-1,1.0,0.617301000000225
564,15,0.5,0.0625,-35.0,1,0.0,6.915801999999985
565,15,0.5,0.125,-35.0,-1,1.0,0.6242019999999684
566,15,0.5,0.25,-35.0,1,0.0,3.278001000000586
