trial_num,session_num,stim_probability_left,contrast,position,response_choice,trial_correct,reaction_time
1,1,0.5,0.25,35.0,1,1.0,1.1155
2,1,0.5,0.25,35.0,1,1.0,0.29329999999999945
3,1,0.5,0.125,35.0,1,1.0,0.3515000000000015
4,1,0.5,0.0,-35.0,1,0.0,0.32120000000000104
5,1,0.5,0.125,35.0,1,1.0,0.3288000000000011
6,1,0.5,0.25,35.0,1,1.0,0.28969999999999985
7,1,0.5,1.0,-35.0,1,0.0,0.04739999999999611
8,1,0.5,1.0,-35.0,1,0.0,0.08129999999999882
9,1,0.5,0.0,35.0,1,1.0,1.2822999999999993
10,1,0.5,1.0,-35.0,1,0.0,0.10539999999999594
11,1,0.5,1.0,-35.0,-1,1.0,0.227800000000002
12,1,0.5,0.0,-35.0,1,0.0,1.1184999999999974
13,1,0.5,0.0,-35.0,-1,1.0,0.28300000000000125
14,1,0.5,0.0625,35.0,-1,0.0,0.09369999999999834
15,1,0.5,1.0,-35.0,1,0.0,0.1477000000000075
16,1,0.5,0.0,-35.0,1,0.0,1.0978999999999957
17,1,0.5,0.0625,35.0,1,1.0,0.47350099999999884
18,1,0.5,0.0625,-35.0,1,0.0,1.3306010000000015
19,1,0.5,0.125,35.0,1,1.0,0.2900009999999895
20,1,0.5,0.0625,35.0,1,1.0,0.8933009999999939
21,1,0.5,1.0,35.0,1,1.0,0.2221010000000092
22,1,0.5,0.125,-35.0,1,0.0,0.2711010000000016
23,1,0.5,0.0625,35.0,-1,0.0,0.7555009999999953
24,1,0.5,0.0625,-35.0,-1,1.0,0.1310009999999977
25,1,0.5,0.0625,35.0,1,1.0,0.34110099999999477
26,1,0.5,0.25,-35.0,-1,1.0,0.25980100000001016
27,1,0.5,0.25,35.0,1,1.0,0.33270100000000014
28,1,0.5,0.0625,-35.0,-1,1.0,0.36780100000001426
29,1,0.5,0.25,35.0,1,1.0,0.6064010000000053
30,1,0.5,0.25,35.0,1,1.0,0.30290100000000564
31,1,0.5,0.0625,-35.0,1,0.0,0.26390100000000416
32,1,0.5,0.125,35.0,1,1.0,0.3093009999999907
33,1,0.5,1.0,35.0,1,1.0,0.28250099999999634
34,1,0.5,1.0,35.0,1,1.0,0.28190100000000484
35,1,0.5,0.25,-35.0,1,0.0,0.09980099999999936
36,1,0.5,0.25,-35.0,-1,1.0,0.3554010000000005
37,1,0.5,0.0625,35.0,1,1.0,0.40500100000002703
38,1,0.5,0.0,-35.0,-1,1.0,0.30940100000000825
39,1,0.5,0.125,-35.0,-1,1.0,0.10000099999999179
40,1,0.5,0.25,-35.0,-1,1.0,0.27390099999999507
41,1,0.5,0.0625,35.0,-1,0.0,0.31410100000002217
42,1,0.5,1.0,35.0,1,1.0,0.2782009999999957
43,1,0.5,1.0,35.0,1,1.0,0.28970099999997956
44,1,0.5,0.0625,-35.0,1,0.0,0.5041010000000199
45,1,0.5,0.25,-35.0,1,0.0,0.17740100000000325
46,1,0.5,0.125,-35.0,-1,1.0,0.7243009999999686
47,1,0.5,0.0,35.0,1,1.0,0.6104010000000244
48,1,0.5,0.0625,-35.0,-1,1.0,0.30590100000000575
49,1,0.5,0.125,-35.0,-1,1.0,0.06810100000001285
50,1,0.5,1.0,-35.0,-1,1.0,0.2734010000000069
51,1,0.5,1.0,-35.0,-1,1.0,0.15330099999999902
52,1,0.5,0.25,-35.0,-1,1.0,0.11090100000001257
53,1,0.5,1.0,-35.0,-1,1.0,0.12640100000001553
54,1,0.5,0.25,35.0,-1,0.0,0.14940100000001166
55,1,0.5,0.0,-35.0,-1,1.0,0.8889010000000042
56,1,0.5,0.25,35.0,-1,0.0,0.12370100000001116
57,1,0.5,1.0,-35.0,-1,1.0,0.27390099999999507
58,1,0.5,0.0625,35.0,1,1.0,0.5709010000000205
59,1,0.5,0.0,35.0,-1,0.0,0.10960099999999784
60,1,0.5,0.25,35.0,-1,0.0,0.20160099999998238
61,1,0.5,0.0625,35.0,-1,0.0,0.048101000000002614
62,1,0.5,0.125,-35.0,-1,1.0,0.28420100000002435
63,1,0.5,1.0,35.0,1,1.0,0.3306010000000015
64,1,0.5,1.0,-35.0,-1,1.0,0.23880099999999516
65,1,0.5,1.0,-35.0,-1,1.0,0.2530009999999834
66,1,0.5,0.125,35.0,-1,0.0,0.08490100000000211
67,1,0.5,0.25,35.0,1,1.0,0.4819009999999935
68,1,0.5,0.0,35.0,-1,0.0,0.1630010000000084
69,1,0.5,0.0625,35.0,-1,0.0,0.8119009999999776
70,1,0.5,0.25,35.0,-1,0.0,0.14980099999999652
71,1,0.5,0.25,-35.0,-1,1.0,0.3039009999999962
72,1,0.5,0.25,35.0,-1,0.0,0.404800999999992
73,1,0.5,1.0,-35.0,-1,1.0,0.22990100000001235
74,1,0.5,1.0,35.0,1,1.0,2.340101000000004
75,1,0.5,0.0625,35.0,1,1.0,0.5284009999999739
76,1,0.5,0.0625,35.0,1,1.0,0.3706009999999651
77,1,0.5,1.0,-35.0,-1,1.0,0.23000099999995882
78,1,0.5,0.0625,-35.0,-1,1.0,1.1651009999999928
79,1,0.5,0.0625,35.0,-1,0.0,0.14510100000001103
80,1,0.5,0.125,35.0,1,1.0,0.2163009999999872
81,1,0.5,0.0625,-35.0,-1,1.0,0.09250100000002703
82,1,0.5,0.0625,-35.0,-1,1.0,0.31910099999993236
83,1,0.5,0.125,35.0,-1,0.0,0.0841010000000324
84,1,0.5,0.25,-35.0,-1,1.0,0.23620099999993727
85,1,0.5,0.0625,-35.0,-1,1.0,0.26860099999998965
86,1,0.5,1.0,35.0,1,1.0,0.29130099999997583
87,1,0.5,1.0,35.0,-1,0.0,0.06050099999993108
88,1,0.5,1.0,35.0,1,1.0,0.27560099999999466
89,1,0.5,0.0625,35.0,1,1.0,1.0093009999999936
90,1,0.5,0.0,35.0,-1,0.0,0.1772009999999682
91,1,0.2,0.125,35.0,1,1.0,0.3909009999999853
92,1,0.2,0.125,35.0,1,1.0,0.3799009999999612
93,1,0.2,0.0625,35.0,-1,0.0,0.1813009999999622
94,1,0.2,0.125,35.0,1,1.0,0.26440100000002076
95,1,0.2,0.125,35.0,1,1.0,0.6380009999999743
96,1,0.2,1.0,35.0,1,1.0,0.15770099999997456
97,1,0.2,0.25,35.0,1,1.0,0.3306010000000015
98,1,0.2,0.125,35.0,1,1.0,0.5290009999999938
99,1,0.2,1.0,-35.0,-1,1.0,0.031001000000003387
100,1,0.2,0.0625,35.0,1,1.0,0.950601000000006
101,1,0.2,0.0625,35.0,1,1.0,0.027400999999997566
102,1,0.2,0.0,35.0,1,1.0,0.5790010000000052
103,1,0.2,0.25,35.0,1,1.0,0.19000099999993836
104,1,0.2,0.25,35.0,1,1.0,0.23240099999998165
105,1,0.2,0.25,35.0,1,1.0,0.1991009999999278
106,1,0.2,0.125,35.0,1,1.0,0.26580099999995355
107,1,0.2,0.0625,35.0,1,1.0,0.2648009999999772
108,1,0.2,1.0,-35.0,1,0.0,0.11519999999995889
109,1,0.2,0.25,35.0,1,1.0,0.3508009999999331
110,1,0.2,0.0625,35.0,-1,0.0,0.23500100000001112
111,1,0.2,0.125,-35.0,-1,1.0,0.130600999999956
112,1,0.2,0.125,35.0,1,1.0,0.32490099999995437
113,1,0.2,0.0,35.0,-1,0.0,0.8339009999999689
114,1,0.2,0.125,35.0,1,1.0,0.3612009999999941
115,1,0.2,1.0,-35.0,-1,1.0,0.22120100000000775
116,1,0.2,0.25,35.0,1,1.0,0.2294009999999389
117,1,0.2,1.0,35.0,1,1.0,0.4821010000000001
118,1,0.2,1.0,35.0,1,1.0,0.29710099999999784
119,1,0.2,0.125,-35.0,-1,1.0,0.15310099999993554
120,1,0.2,0.25,35.0,-1,0.0,0.20730099999997265
121,1,0.2,1.0,35.0,1,1.0,0.283600999999976
122,1,0.2,0.125,35.0,1,1.0,0.2864009999999553
123,1,0.2,0.0,-35.0,-1,1.0,-0.014599000000032447
124,1,0.2,0.125,-35.0,-1,1.0,0.244500999999957
125,1,0.2,0.25,-35.0,-1,1.0,0.10030100000000175
126,1,0.2,0.125,35.0,-1,0.0,0.12330099999996946
127,1,0.2,0.25,35.0,1,1.0,0.45000099999992926
128,1,0.2,0.0625,-35.0,-1,1.0,0.7585009999999102
129,1,0.2,0.25,35.0,1,1.0,0.35550100000000384
130,1,0.2,0.25,-35.0,-1,1.0,0.276600999999971
131,1,0.2,0.0625,35.0,-1,0.0,0.2688009999999963
132,1,0.2,1.0,-35.0,-1,1.0,0.27050099999996746
133,1,0.2,0.0,35.0,-1,0.0,0.39250099999998156
134,1,0.2,1.0,-35.0,-1,1.0,0.5111009999999965
135,1,0.2,0.0625,-35.0,-1,1.0,0.5236009999999851
136,1,0.2,0.125,35.0,1,1.0,1.463000999999963
137,1,0.2,0.125,35.0,1,1.0,0.3398009999999658
138,1,0.2,1.0,35.0,-1,0.0,0.12790100000000848
139,1,0.2,0.125,35.0,1,1.0,0.4223010000000613
140,1,0.2,0.25,35.0,1,1.0,0.16200100000003204
141,1,0.2,0.125,35.0,-1,0.0,0.15580099999999675
142,1,0.2,1.0,35.0,1,1.0,0.20620100000007824
143,1,0.2,0.25,35.0,1,1.0,0.2818010000000868
144,1,0.2,0.0,-35.0,1,0.0,0.23600100000010116
145,1,0.2,0.25,35.0,1,1.0,0.3689009999999371
146,1,0.2,0.0625,35.0,1,1.0,0.37580100000002403
147,1,0.2,0.125,35.0,1,1.0,0.26480100000003404
148,1,0.2,1.0,35.0,1,1.0,0.13770100000010643
149,1,0.2,0.25,35.0,-1,0.0,0.13740100000006805
150,1,0.2,0.0,35.0,-1,0.0,1.9163009999999758
151,1,0.2,0.25,35.0,1,1.0,0.6012009999999464
152,1,0.2,1.0,35.0,1,1.0,0.25850100000002385
153,1,0.2,0.25,-35.0,-1,1.0,0.2697010000000546
154,1,0.2,0.125,35.0,1,1.0,0.25290099999995164
155,1,0.2,0.125,35.0,1,1.0,0.23220100000003185
156,1,0.2,1.0,-35.0,-1,1.0,0.4692009999999982
157,1,0.2,0.0,35.0,1,1.0,0.23920099999998
158,1,0.2,0.25,35.0,1,1.0,0.4172009999999773
159,1,0.2,0.125,35.0,1,1.0,0.4133009999999331
160,1,0.2,1.0,-35.0,-1,1.0,0.04450099999996837
161,1,0.2,0.0,35.0,-1,0.0,1.409300999999914
162,1,0.2,0.0625,-35.0,-1,1.0,1.0408009999999877
163,1,0.2,0.125,35.0,1,1.0,0.3224010000000135
164,1,0.2,1.0,35.0,1,1.0,0.23860100000001694
165,1,0.2,0.0,35.0,-1,0.0,0.0984009999999671
166,1,0.2,1.0,-35.0,-1,1.0,0.24190099999998438
167,1,0.2,0.125,-35.0,1,0.0,0.23050099999989015
168,1,0.2,1.0,35.0,1,1.0,0.25870100000008733
169,1,0.2,0.0625,35.0,-1,0.0,0.2369010000001026
170,1,0.8,0.125,-35.0,-1,1.0,0.3497010000000955
171,1,0.8,1.0,-35.0,-1,1.0,0.2329010000000835
172,1,0.8,0.0625,-35.0,-1,1.0,0.27050099999996746
173,1,0.8,0.0625,-35.0,-1,1.0,0.3619009999999889
174,1,0.8,0.0625,-35.0,-1,1.0,0.12600099999997383
175,1,0.8,0.25,35.0,-1,0.0,0.2050010000000384
176,1,0.8,0.0625,-35.0,-1,1.0,0.20570100000009006
177,1,0.8,0.25,-35.0,-1,1.0,0.12690099999997528
178,1,0.8,0.125,-35.0,-1,1.0,0.43170100000008915
179,1,0.8,0.0625,-35.0,-1,1.0,0.5305009999999584
180,1,0.8,0.0625,-35.0,-1,1.0,0.41810099999997874
181,1,0.8,0.0625,-35.0,-1,1.0,0.13720100000000457
182,1,0.8,0.0625,35.0,-1,0.0,0.37170100000003004
183,1,0.8,0.0,-35.0,1,0.0,0.3578010000001086
184,1,0.8,0.25,-35.0,-1,1.0,0.3521010000000615
185,1,0.8,0.125,35.0,1,1.0,0.3556010000000924
186,1,0.8,1.0,-35.0,-1,1.0,0.42940100000009807
187,1,0.8,0.125,-35.0,-1,1.0,0.2679010000000517
188,1,0.8,1.0,-35.0,-1,1.0,0.3284009999999853
189,1,0.8,0.25,-35.0,-1,1.0,0.16720099999997728
190,1,0.8,1.0,-35.0,-1,1.0,0.44810100000006514
191,1,0.8,0.0625,-35.0,-1,1.0,0.31730100000004313
192,1,0.8,0.0,-35.0,-1,1.0,0.24210100000004786
193,1,0.8,0.25,-35.0,-1,1.0,0.1724010000001499
194,1,0.8,0.0625,-35.0,-1,1.0,0.2612010000000282
195,1,0.8,1.0,-35.0,-1,1.0,0.23510099999998602
196,1,0.8,0.125,-35.0,1,0.0,0.15110100000003968
197,1,0.8,0.25,-35.0,-1,1.0,0.09420100000011189
198,1,0.8,0.0625,-35.0,1,0.0,0.03650100000004386
199,1,0.8,0.25,-35.0,-1,1.0,0.06230100000004768
200,1,0.8,0.0625,35.0,1,1.0,0.4386010000000624
201,1,0.8,0.25,-35.0,1,0.0,0.08430100000009588
202,1,0.8,0.0,-35.0,-1,1.0,0.1748010000000022
203,1,0.8,1.0,-35.0,-1,1.0,0.05690100000003895
204,1,0.8,0.25,-35.0,-1,1.0,0.6048010000000659
205,1,0.8,0.0625,-35.0,-1,1.0,0.21770100000003367
206,1,0.8,0.0625,-35.0,-1,1.0,0.14600100000006933
207,1,0.8,0.125,-35.0,-1,1.0,0.347801000000004
208,1,0.8,0.0,-35.0,1,0.0,0.33290099999999256
209,1,0.8,0.25,-35.0,-1,1.0,0.3097010000000182
210,1,0.8,0.0625,-35.0,-1,1.0,0.33290099999999256
211,1,0.8,0.125,35.0,1,1.0,0.3406009999999924
212,1,0.8,0.0625,-35.0,-1,1.0,0.34070100000008097
213,1,0.8,0.0625,35.0,-1,0.0,0.08870100000012826
214,1,0.8,0.0625,-35.0,1,0.0,0.5389010000000098
215,1,0.8,1.0,-35.0,-1,1.0,0.2839010000001281
216,1,0.8,0.125,-35.0,-1,1.0,0.30680100000006405
217,1,0.8,0.0,-35.0,1,0.0,0.48200100000008206
218,1,0.2,0.25,35.0,1,1.0,0.030201000000033673
219,1,0.2,0.25,35.0,1,1.0,0.33280100000013135
220,1,0.2,0.25,-35.0,-1,1.0,0.2614010000000917
221,1,0.2,1.0,-35.0,-1,1.0,0.3079010000000153
222,1,0.2,0.125,35.0,1,1.0,0.4109010000000808
223,1,0.2,0.0625,35.0,1,1.0,0.0336010000000897
224,1,0.2,1.0,35.0,-1,0.0,0.08790099999998802
225,1,0.2,0.25,35.0,1,1.0,0.27440100000001166
226,1,0.2,0.25,-35.0,1,0.0,0.16700100000014118
227,1,0.2,0.25,35.0,-1,0.0,0.16500100000007478
228,1,0.2,0.125,-35.0,-1,1.0,0.2835010000000011
229,1,0.2,0.125,35.0,1,1.0,0.2791010000000824
230,1,0.2,0.0,35.0,1,1.0,0.41400100000009843
231,1,0.2,0.125,-35.0,-1,1.0,0.2512010000000373
232,1,0.2,0.25,35.0,-1,0.0,0.18020100000001094
233,1,0.2,0.125,35.0,1,1.0,0.36420099999998
234,1,0.2,0.25,35.0,1,1.0,0.27900099999999384
235,1,0.2,0.125,35.0,1,1.0,0.3334010000000944
236,1,0.2,0.0625,35.0,1,1.0,0.09980100000007042
237,1,0.2,0.25,35.0,1,1.0,0.037001000000032036
238,1,0.2,0.0625,35.0,1,1.0,0.1668010000000777
239,1,0.2,0.0625,-35.0,-1,1.0,1.573301000000015
240,1,0.2,1.0,35.0,1,1.0,0.2511010000000624
241,1,0.2,0.125,35.0,1,1.0,0.35940100000004804
242,1,0.2,0.0625,-35.0,-1,1.0,0.36340099999995346
243,1,0.2,0.125,-35.0,-1,1.0,0.6475010000000339
244,1,0.2,0.0,35.0,1,1.0,0.632701000000111
245,1,0.8,0.0625,-35.0,-1,1.0,0.32360099999993963
246,1,0.8,0.25,35.0,1,1.0,0.3522009999999227
247,1,0.8,1.0,-35.0,1,0.0,0.04660100000000966
248,1,0.8,0.125,-35.0,-1,1.0,0.25060099999996055
249,1,0.8,0.25,-35.0,-1,1.0,0.42570100000000366
250,1,0.8,0.25,35.0,1,1.0,0.31690100000002985
251,1,0.8,0.125,-35.0,-1,1.0,0.25470100000006823
252,1,0.8,0.0,35.0,-1,0.0,0.30870100000015555
253,1,0.8,0.0625,35.0,1,1.0,1.280100999999945
254,1,0.8,0.0,35.0,1,1.0,0.2798010000000204
255,1,0.8,0.0625,-35.0,-1,1.0,0.11300100000005386
256,1,0.8,0.0625,-35.0,-1,1.0,2.0599010000000817
257,1,0.8,0.0625,-35.0,1,0.0,0.772401000000059
258,1,0.8,1.0,35.0,1,1.0,0.2650010000000975
259,1,0.8,0.125,35.0,1,1.0,0.30890099999999165
260,1,0.8,0.0,-35.0,1,0.0,0.28230100000007496
261,1,0.8,1.0,-35.0,-1,1.0,0.5858009999999467
262,1,0.8,1.0,-35.0,-1,1.0,0.2660009999999602
263,1,0.8,0.0625,35.0,1,1.0,0.6460010000000693
264,1,0.8,1.0,-35.0,-1,1.0,0.27240099999994527
265,1,0.8,0.25,-35.0,-1,1.0,0.3360010000000102
266,1,0.8,0.0,-35.0,1,0.0,0.2531010000000151
267,1,0.8,0.25,-35.0,-1,1.0,0.35300099999994927
268,1,0.8,0.0625,-35.0,1,0.0,0.07700099999988197
269,1,0.8,0.125,-35.0,-1,1.0,0.32960099999991144
270,1,0.8,1.0,35.0,1,1.0,0.23650099999986196
271,1,0.8,0.125,-35.0,1,0.0,0.10670099999992999
272,1,0.8,0.25,-35.0,-1,1.0,0.24690099999975246
273,1,0.8,0.0625,-35.0,-1,1.0,0.5302010000000337
274,1,0.8,1.0,35.0,1,1.0,0.4666010000000824
275,1,0.8,0.0,35.0,-1,0.0,0.2967009999997572
276,1,0.8,0.0,-35.0,-1,1.0,0.32340099999987615
277,1,0.8,0.125,-35.0,-1,1.0,0.29680099999995946
278,1,0.8,0.125,-35.0,-1,1.0,0.2903009999999995
279,1,0.8,0.125,-35.0,-1,1.0,0.30730099999982485
280,1,0.8,0.125,35.0,1,1.0,0.2973010000000613
281,1,0.8,1.0,-35.0,-1,1.0,0.3337010000000191
282,1,0.8,0.125,-35.0,-1,1.0,0.28040099999998347
283,1,0.8,0.125,-35.0,-1,1.0,-0.012899000000061278
284,1,0.8,0.0625,-35.0,-1,1.0,0.3804009999998925
285,1,0.8,1.0,-35.0,-1,1.0,0.07400099999995291
286,1,0.8,0.25,-35.0,-1,1.0,0.38750099999992926
287,1,0.8,0.125,35.0,1,1.0,0.3077009999999518
288,1,0.8,0.125,-35.0,-1,1.0,0.017501000000038403
289,1,0.8,1.0,-35.0,-1,1.0,0.2576010000000224
290,1,0.8,0.125,-35.0,-1,1.0,0.19760100000007697
291,1,0.8,0.125,-35.0,-1,1.0,0.21440099999995255
292,1,0.8,1.0,35.0,-1,0.0,0.11470099999996819
293,1,0.8,0.125,-35.0,-1,1.0,0.3746009999999842
294,1,0.8,0.0625,-35.0,1,0.0,0.2379009999997379
295,1,0.8,0.0625,-35.0,1,0.0,0.28480100000001585
296,1,0.8,0.25,35.0,1,1.0,0.27480099999979757
297,1,0.8,0.125,-35.0,-1,1.0,0.09510099999988597
298,1,0.8,0.125,35.0,1,1.0,0.4750010000000202
299,1,0.8,0.25,-35.0,-1,1.0,0.3050010000001748
300,1,0.8,0.0,-35.0,1,0.0,1.478601000000026
301,1,0.8,0.0625,35.0,1,1.0,0.4354009999999562
302,1,0.8,0.125,-35.0,-1,1.0,0.04900099999986196
303,1,0.8,0.25,-35.0,-1,1.0,0.15600100000006023
304,1,0.8,0.0625,-35.0,-1,1.0,0.04910100000006423
305,1,0.8,0.125,-35.0,-1,1.0,0.2590010000001257
306,1,0.8,0.25,-35.0,-1,1.0,0.25910099999987324
307,1,0.8,0.0625,-35.0,-1,1.0,0.14920099999994818
308,1,0.8,0.0625,-35.0,-1,1.0,0.18590100000005805
309,1,0.8,0.0625,-35.0,1,0.0,0.23270099999967897
310,1,0.8,0.125,-35.0,-1,1.0,0.35950099999990925
311,1,0.8,0.0625,-35.0,-1,1.0,0.47610099999997146
312,1,0.8,0.125,-35.0,-1,1.0,0.29280100000005405
313,1,0.8,1.0,-35.0,-1,1.0,0.213600999999926
314,1,0.8,0.0625,-35.0,-1,1.0,0.40330100000005586
315,1,0.8,0.25,-35.0,-1,1.0,0.30640100000005077
316,1,0.8,0.0,-35.0,1,0.0,0.3165009999997892
317,1,0.2,0.25,35.0,-1,0.0,0.17000099999995655
318,1,0.2,1.0,35.0,1,1.0,0.27700099999992744
319,1,0.2,0.25,35.0,1,1.0,0.3004009999997379
320,1,0.2,0.0,-35.0,-1,1.0,0.4835009999997055
321,1,0.2,0.25,35.0,-1,0.0,0.18350099999997838
322,1,0.2,0.25,35.0,1,1.0,0.31700099999989106
323,1,0.2,0.0,35.0,-1,0.0,2.0237009999998463
324,1,0.2,0.125,35.0,-1,0.0,0.521000999999842
325,1,0.2,0.25,-35.0,-1,1.0,0.3306009999998878
326,1,0.2,0.125,35.0,-1,0.0,1.174000999999862
327,1,0.2,1.0,35.0,1,1.0,0.2474010000000817
328,1,0.2,0.0625,-35.0,1,0.0,0.37770099999988815
329,1,0.2,0.125,35.0,-1,0.0,0.034200999999939086
330,1,0.2,1.0,35.0,1,1.0,1.5577009999999518
331,1,0.2,0.25,35.0,-1,0.0,0.6144009999998161
332,1,0.2,0.25,35.0,1,1.0,0.334800999999743
333,1,0.2,0.25,35.0,1,1.0,0.38790099999982885
334,1,0.2,0.25,35.0,1,1.0,0.5918009999998048
335,1,0.2,0.25,35.0,1,1.0,0.4517009999999573
336,1,0.2,0.125,35.0,1,1.0,0.6449009999998907
337,1,0.2,0.125,35.0,-1,0.0,0.31189999999992324
338,1,0.2,0.0625,35.0,1,1.0,2.145101000000068
339,1,0.2,0.25,35.0,1,1.0,0.315199999999777
340,1,0.2,0.25,35.0,1,1.0,0.26860099999998965
341,1,0.2,1.0,35.0,1,1.0,0.12520099999983358
342,1,0.2,0.125,35.0,1,1.0,0.29520099999990634
343,1,0.2,0.0625,35.0,1,1.0,0.8458009999997103
344,1,0.2,1.0,35.0,1,1.0,0.35920099999998456
345,1,0.2,1.0,35.0,1,1.0,0.16240100000004531
346,1,0.2,0.0625,35.0,1,1.0,0.4024010000000544
347,1,0.2,0.125,35.0,1,1.0,0.672600999999986
348,1,0.2,0.25,35.0,1,1.0,0.32260100000007697
349,1,0.2,0.0625,35.0,1,1.0,0.24930099999983213
350,1,0.2,0.125,35.0,1,1.0,0.08590099999992162
351,1,0.2,1.0,35.0,1,1.0,0.23280099999965387
352,1,0.2,0.25,35.0,1,1.0,0.2363009999996848
353,1,0.2,0.25,-35.0,-1,1.0,0.4330009999998765
354,1,0.2,0.25,35.0,1,1.0,0.3364009999997961
355,1,0.2,1.0,35.0,1,1.0,0.19650099999989834
356,1,0.2,0.0625,35.0,1,1.0,1.6632010000000719
357,1,0.2,0.0,35.0,-1,0.0,0.3200009999998201
358,1,0.2,0.0,35.0,-1,0.0,1.7868009999999686
359,1,0.2,1.0,35.0,1,1.0,0.36360099999978956
360,1,0.2,0.25,35.0,1,1.0,0.3506009999998696
361,1,0.2,0.0625,35.0,1,1.0,0.45030100000008133
362,1,0.2,1.0,35.0,1,1.0,0.2637010000000828
363,1,0.2,1.0,35.0,1,1.0,0.1807009999999991
364,1,0.2,0.125,35.0,1,1.0,0.07390099999997801
365,1,0.2,0.125,-35.0,1,0.0,0.10380099999997583
366,1,0.2,1.0,35.0,1,1.0,0.31740099999979066
367,1,0.2,0.125,35.0,1,1.0,0.3407009999998536
368,1,0.2,0.125,35.0,1,1.0,0.37740099999996346
369,1,0.2,0.125,35.0,1,1.0,0.1508010000000013
370,1,0.2,0.25,35.0,1,1.0,0.42430100000001403
371,1,0.2,0.25,-35.0,-1,1.0,0.267900999999938
372,1,0.2,0.125,35.0,-1,0.0,0.3046009999998205
373,1,0.2,0.0625,35.0,1,1.0,0.7311009999998532
374,1,0.2,0.25,-35.0,-1,1.0,0.3847009999997226
375,1,0.2,1.0,-35.0,-1,1.0,0.4150010000000748
376,1,0.2,0.25,35.0,1,1.0,0.28500099999973827
377,1,0.2,0.0625,35.0,1,1.0,0.23490099999980885
378,1,0.2,0.125,35.0,-1,0.0,0.1750010000000657
379,1,0.2,0.125,35.0,-1,0.0,0.04540100000008351
380,1,0.2,0.25,35.0,1,1.0,0.34520099999986087
381,1,0.2,0.0625,35.0,1,1.0,2.3758009999999103
382,1,0.2,0.25,35.0,1,1.0,0.17560099999991508
383,1,0.2,0.0625,35.0,-1,0.0,0.48230100000000675
384,1,0.2,0.0625,-35.0,-1,1.0,0.8560009999998783
385,1,0.2,0.0625,-35.0,1,0.0,0.20280099999990853
386,1,0.2,0.0625,35.0,-1,0.0,1.905800999999883
387,1,0.2,0.25,35.0,1,1.0,0.2994009999999889
388,1,0.2,1.0,35.0,1,1.0,0.2195009999998092
389,1,0.2,0.25,35.0,1,1.0,0.3928009999999631
390,1,0.2,1.0,35.0,1,1.0,0.2735009999998965
391,1,0.2,0.125,35.0,1,1.0,0.5097009999997226
392,1,0.2,0.0,35.0,1,1.0,0.42980099999999766
393,1,0.2,0.125,35.0,-1,0.0,0.15680099999985941
394,1,0.2,0.25,35.0,1,1.0,0.3301009999997859
395,1,0.2,0.0,35.0,1,1.0,0.7870009999999183
396,1,0.2,1.0,-35.0,-1,1.0,0.15360099999998056
397,1,0.2,1.0,35.0,-1,0.0,-0.002999000000045271
398,1,0.2,1.0,35.0,1,1.0,0.20080099999972845
399,1,0.2,1.0,35.0,1,1.0,0.30090100000006714
400,1,0.2,0.25,35.0,1,1.0,0.2472010000001319
401,1,0.2,0.0625,35.0,1,1.0,0.5141009999999824
402,1,0.2,0.125,35.0,1,1.0,0.07740100000000893
403,1,0.2,1.0,35.0,1,1.0,0.22090099999991253
404,1,0.2,0.25,35.0,1,1.0,0.32090100000004895
405,1,0.2,0.125,35.0,1,1.0,0.26110099999982594
406,1,0.2,0.125,35.0,1,1.0,0.30450100000007296
407,1,0.8,0.0,35.0,-1,0.0,0.07130099999994854
408,1,0.8,0.25,-35.0,-1,1.0,0.3281009999998332
409,1,0.8,0.125,-35.0,1,0.0,0.09460100000001148
410,1,0.8,0.125,-35.0,-1,1.0,0.32510099999990416
411,1,0.8,1.0,-35.0,1,0.0,0.14810099999999693
412,1,0.8,1.0,-35.0,-1,1.0,0.27820100000008097
413,1,0.8,0.125,-35.0,-1,1.0,0.27830100000005586
414,1,0.8,0.0,35.0,-1,0.0,0.3752009999998336
415,1,0.8,0.125,-35.0,-1,1.0,0.29520099999990634
416,1,0.8,1.0,-35.0,-1,1.0,0.37190099999997983
417,1,0.8,0.0625,-35.0,-1,1.0,0.38220099999989543
418,1,0.8,1.0,-35.0,-1,1.0,0.15240099999982704
419,1,0.8,0.125,-35.0,-1,1.0,0.2924009999999271
420,1,0.8,0.25,-35.0,-1,1.0,0.16620100000000093
421,1,0.8,0.0,-35.0,-1,1.0,0.4456009999996695
422,1,0.8,1.0,-35.0,-1,1.0,0.31570099999999
423,1,0.8,0.0625,-35.0,-1,1.0,0.36560099999996964
424,1,0.8,0.25,35.0,-1,0.0,0.29290099999980157
425,1,0.8,0.0,-35.0,-1,1.0,0.36960099999987506
426,1,0.8,0.25,35.0,-1,0.0,0.11610100000007151
427,1,0.8,0.25,35.0,1,1.0,0.5996009999998932
428,1,0.8,0.25,-35.0,-1,1.0,0.23610099999996237
429,1,0.8,0.25,-35.0,-1,1.0,0.26290099999982885
430,1,0.8,0.0625,-35.0,-1,1.0,0.4430009999998674
431,1,0.8,1.0,-35.0,-1,1.0,0.21990099999993618
432,1,0.8,0.25,-35.0,-1,1.0,0.27310099999976956
433,1,0.8,0.25,35.0,-1,0.0,0.0002009999998335843
434,1,0.8,1.0,-35.0,-1,1.0,0.2937010000000555
435,1,0.8,0.25,-35.0,-1,1.0,0.3604009999999107
436,1,0.8,0.125,-35.0,-1,1.0,0.44010099999991326
437,1,0.8,0.0,-35.0,-1,1.0,0.46030099999984486
438,1,0.8,0.125,35.0,1,1.0,0.3968009999998685
439,1,0.8,0.25,-35.0,-1,1.0,0.20390100000008715
440,1,0.8,0.125,-35.0,-1,1.0,0.037200999999868145
441,1,0.8,0.25,35.0,-1,0.0,0.4405010000000402
442,1,0.8,0.125,-35.0,-1,1.0,0.3708010000000286
443,1,0.8,0.0625,-35.0,1,0.0,0.32100100000002385
444,1,0.8,0.0625,-35.0,-1,1.0,0.6407009999998081
445,1,0.2,0.125,35.0,1,1.0,0.5174010000000635
446,1,0.2,0.25,35.0,1,1.0,0.37770099999988815
447,1,0.2,0.0625,35.0,1,1.0,0.3811009999999442
448,1,0.2,0.0,35.0,-1,0.0,0.2643009999999322
449,1,0.2,0.0625,35.0,1,1.0,1.3083010000000286
450,1,0.2,0.0,-35.0,1,0.0,1.7612010000000282
451,1,0.2,1.0,35.0,1,1.0,0.3814009999996415
452,1,0.2,0.0625,35.0,1,1.0,0.3948009999999158
453,1,0.2,0.25,35.0,1,1.0,0.26530099999968115
454,1,0.2,0.125,35.0,1,1.0,0.17160100000000966
455,1,0.2,0.0625,-35.0,1,0.0,0.08860099999992599
456,1,0.2,0.125,35.0,-1,0.0,1.3724009999998543
457,1,0.2,0.125,-35.0,-1,1.0,0.32540099999982885
458,1,0.2,1.0,35.0,1,1.0,0.29550099999983104
459,1,0.2,1.0,-35.0,-1,1.0,0.24910099999988233
460,1,0.2,0.125,-35.0,-1,1.0,0.21250099999974736
461,1,0.2,1.0,35.0,1,1.0,0.29930100000001403
462,1,0.2,0.0,35.0,1,1.0,0.45260099999995873
463,1,0.2,0.125,35.0,1,1.0,0.05570099999999911
464,1,0.2,0.25,35.0,1,1.0,0.3126009999998587
465,1,0.2,0.25,-35.0,-1,1.0,0.2858009999999922
466,1,0.2,0.0,35.0,-1,0.0,1.5497009999999136
467,1,0.2,0.0625,35.0,1,1.0,0.9594010000000708
468,1,0.8,0.125,35.0,1,1.0,0.36980099999982485
469,1,0.8,0.125,-35.0,-1,1.0,0.4829010000000835
470,1,0.8,1.0,-35.0,-1,1.0,0.1630009999998947
471,1,0.8,0.25,35.0,1,1.0,0.3769009999998616
472,1,0.8,1.0,-35.0,-1,1.0,0.2398009999999431
473,1,0.8,0.25,35.0,1,1.0,0.2865009999998165
474,1,0.8,0.125,-35.0,-1,1.0,0.37990099999979066
475,1,0.8,1.0,-35.0,-1,1.0,0.27690099999995255
476,1,0.8,0.25,-35.0,-1,1.0,0.6068009999999049
477,1,0.8,0.25,-35.0,1,0.0,-0.032999000000017986
478,1,0.8,0.125,35.0,1,1.0,0.4640009999998256
479,1,0.8,0.0,-35.0,-1,1.0,1.6002009999997426
480,1,0.8,0.0,-35.0,-1,1.0,0.3004009999999653
481,1,0.8,0.0,35.0,-1,0.0,0.5340009999999893
482,1,0.8,0.25,35.0,1,1.0,0.3544009999998252
483,1,0.8,1.0,35.0,1,1.0,0.3142009999999118
484,1,0.8,0.25,-35.0,-1,1.0,0.26740099999983613
485,1,0.8,0.25,-35.0,-1,1.0,0.23740099999963604
486,1,0.8,0.0,-35.0,-1,1.0,0.30430100000012317
487,1,0.8,0.25,-35.0,-1,1.0,0.23430099999995946
488,1,0.8,0.25,-35.0,-1,1.0,0.32760099999973136
489,1,0.8,0.0,-35.0,-1,1.0,0.14430099999981394
490,1,0.8,0.125,-35.0,-1,1.0,0.31160099999988233
491,1,0.8,1.0,-35.0,-1,1.0,0.2580009999996946
492,1,0.8,0.125,-35.0,-1,1.0,0.34810099999981503
493,1,0.8,0.0625,-35.0,-1,1.0,0.31130099999973027
494,1,0.8,1.0,-35.0,-1,1.0,0.27150099999971644
495,1,0.8,0.0,-35.0,1,0.0,1.205000999999811
496,1,0.8,0.125,35.0,1,1.0,0.5785009999999602
497,1,0.8,0.125,-35.0,-1,1.0,0.31500099999993836
498,1,0.8,1.0,-35.0,-1,1.0,0.2818010000000868
499,1,0.8,0.25,-35.0,-1,1.0,0.17860099999984413
500,1,0.8,0.0,-35.0,-1,1.0,0.23560100000008788
501,1,0.8,0.0625,-35.0,-1,1.0,1.001901000000089
502,1,0.8,0.0625,35.0,-1,0.0,0.6489010000002509
503,1,0.8,0.125,-35.0,-1,1.0,0.4290009999999711
504,1,0.8,0.0625,-35.0,-1,1.0,0.4123010000002978
505,1,0.8,0.25,-35.0,-1,1.0,0.30570099999977174
506,1,0.2,1.0,35.0,1,1.0,0.2923009999999522
507,1,0.2,1.0,-35.0,-1,1.0,0.2557010000000446
508,1,0.2,0.25,35.0,1,1.0,0.27260100000012244
509,1,0.2,0.0,35.0,-1,0.0,1.6797010000000228
510,1,0.2,0.25,35.0,1,1.0,0.23940100000027087
511,1,0.2,0.0625,35.0,1,1.0,0.6196009999998751
512,1,0.2,0.125,35.0,1,1.0,0.019600999999966007
513,1,0.2,0.25,-35.0,-1,1.0,0.2929010000002563
514,1,0.2,0.25,35.0,-1,0.0,0.08640100000002349
515,1,0.2,0.0625,35.0,1,1.0,0.29320099999995364
516,1,0.2,1.0,35.0,1,1.0,0.27680099999997765
517,1,0.2,1.0,35.0,1,1.0,0.2933010000001559
518,1,0.2,0.125,35.0,1,1.0,0.3036010000000715
519,1,0.2,0.0625,-35.0,1,0.0,0.4600010000003749
520,1,0.2,0.125,35.0,1,1.0,0.3073010000002796
521,1,0.2,0.0625,35.0,1,1.0,0.29060100000015154
522,1,0.2,1.0,-35.0,-1,1.0,0.27360100000032617
523,1,0.2,1.0,35.0,1,1.0,0.23710100000062084
524,1,0.2,0.0625,35.0,1,1.0,0.30720100000007733
525,1,0.2,0.25,35.0,-1,0.0,1.6772009999999682
526,1,0.2,0.25,-35.0,-1,1.0,0.28070100000013554
527,1,0.2,0.0,35.0,1,1.0,0.09430100000008679
528,1,0.2,1.0,35.0,-1,0.0,0.09750100000019302
529,1,0.2,0.25,35.0,1,1.0,0.3675010000001748
530,1,0.2,1.0,35.0,1,1.0,0.26130100000045786
531,1,0.2,0.125,-35.0,-1,1.0,0.28090100000008533
532,1,0.2,0.25,35.0,1,1.0,0.3044009999998707
533,1,0.2,1.0,35.0,1,1.0,0.45460099999991144
534,1,0.2,1.0,35.0,1,1.0,0.2746010000005299
535,1,0.2,0.0625,-35.0,-1,1.0,0.6646010000004026
536,1,0.2,0.0625,35.0,1,1.0,0.22850100000005114
537,1,0.2,0.125,35.0,1,1.0,0.08490100000017264
538,1,0.2,0.25,35.0,1,1.0,0.13200099999994563
539,1,0.2,1.0,35.0,1,1.0,0.3250010000006114
540,1,0.2,0.125,35.0,1,1.0,0.3486009999996895
541,1,0.2,1.0,35.0,1,1.0,0.28210100000023886
542,1,0.2,1.0,-35.0,-1,1.0,0.2587009999997463
543,1,0.2,0.125,35.0,1,1.0,0.27530100000058155
544,1,0.2,0.25,-35.0,-1,1.0,0.29200100000025486
545,1,0.2,1.0,35.0,1,1.0,0.25540100000034727
546,1,0.2,0.25,35.0,1,1.0,0.32200100000045495
547,1,0.2,0.0625,35.0,1,1.0,0.3323009999999158
548,1,0.2,1.0,35.0,1,1.0,0.3257010000002083
549,1,0.2,0.0,35.0,1,1.0,0.08900100000028033
550,1,0.2,0.0625,35.0,1,1.0,0.2590010000003531
551,1,0.2,0.25,35.0,1,1.0,0.1792009999999209
552,1,0.2,0.125,35.0,1,1.0,0.09910099999979138
553,1,0.2,0.25,35.0,1,1.0,0.42930100000012317
554,1,0.2,1.0,35.0,1,1.0,0.28930099999979575
555,1,0.2,0.125,35.0,1,1.0,0.786000999999942
556,1,0.2,0.0,35.0,1,1.0,2.712901000000329
557,1,0.2,1.0,35.0,1,1.0,0.343000999999731
558,1,0.2,0.0625,35.0,1,1.0,0.3597010000003138
559,1,0.8,1.0,-35.0,-1,1.0,0.426401000000169
560,1,0.8,0.125,35.0,-1,0.0,0.12320100000033563
561,1,0.8,0.125,-35.0,-1,1.0,0.523801000000276
562,1,0.8,0.0,35.0,1,1.0,1.940201000000343
563,1,0.8,0.125,-35.0,-1,1.0,0.46670099999982995
564,1,0.8,0.0625,-35.0,1,0.0,0.38690100000030725
565,1,0.8,0.0625,-35.0,-1,1.0,0.8138010000002396
566,1,0.8,0.125,-35.0,-1,1.0,0.34060100000033344
567,1,0.8,0.125,35.0,-1,0.0,0.10040100000014718
568,1,0.8,0.0625,-35.0,-1,1.0,1.0770010000001093
569,1,0.8,0.25,-35.0,1,0.0,1.130601000000297
570,1,0.8,0.25,-35.0,-1,1.0,0.267301000000316
571,1,0.8,0.0625,-35.0,1,0.0,1.330500000000029
572,1,0.8,0.0,-35.0,1,0.0,5.930601000000479
573,1,0.8,1.0,-35.0,-1,1.0,0.29080100000010134
574,1,0.8,0.0625,-35.0,-1,1.0,2.5080010000001494
575,1,0.8,0.125,-35.0,-1,1.0,0.38760099999990416
576,1,0.8,0.0625,35.0,-1,0.0,2.007600999999795
577,1,0.8,0.0625,-35.0,-1,1.0,0.10780099999965387
578,1,0.8,0.0,35.0,-1,0.0,0.9879009999999653
579,1,0.8,0.0625,35.0,1,1.0,1.1216010000002825
580,1,0.8,0.125,-35.0,-1,1.0,0.2882009999998445
581,1,0.8,0.25,-35.0,-1,1.0,0.3381009999998241
582,1,0.8,1.0,-35.0,-1,1.0,0.2716009999999187
583,1,0.8,0.125,-35.0,-1,1.0,0.16510100000050443
584,1,0.8,0.0,-35.0,-1,1.0,0.19490099999984523
585,1,0.8,0.125,-35.0,-1,1.0,0.2917010000001028
586,1,0.8,0.125,-35.0,1,0.0,0.6117010000002665
587,1,0.8,0.0,-35.0,-1,1.0,2.2518009999998867
588,1,0.8,0.0625,35.0,1,1.0,0.31240100000013626
589,1,0.8,0.0625,-35.0,1,0.0,0.7619010000003072
590,1,0.8,0.0625,-35.0,1,0.0,8.202300999999807
591,1,0.8,0.0625,35.0,-1,0.0,0.3425010000000839
592,1,0.8,0.0625,35.0,-1,0.0,4.069101000000046
593,1,0.8,1.0,-35.0,-1,1.0,0.3325009999998656
594,1,0.8,0.0,-35.0,-1,1.0,6.886500999999953
595,1,0.8,0.0625,35.0,1,1.0,0.32290100000000166
596,1,0.8,0.25,35.0,1,1.0,0.32300100000020393
597,1,0.8,0.0625,-35.0,-1,1.0,1.8896010000003116
598,1,0.2,1.0,35.0,1,1.0,0.0663009999998394
599,1,0.2,1.0,35.0,1,1.0,0.08010100000046805
600,1,0.2,0.0,35.0,-1,0.0,0.8266010000006645
601,1,0.2,0.125,35.0,1,1.0,0.7033010000000104
602,1,0.2,0.25,-35.0,-1,1.0,0.2633009999999558
603,1,0.2,0.125,35.0,1,1.0,0.32680100000015955
604,1,0.2,1.0,-35.0,-1,1.0,0.2369010000002163
605,1,0.2,1.0,35.0,1,1.0,0.1707010000000082
606,1,0.2,0.25,35.0,1,1.0,0.36030099999970844
607,1,0.2,1.0,35.0,1,1.0,0.2503010000004906
608,1,0.2,0.25,35.0,1,1.0,2.3140010000001894
609,1,0.2,0.125,35.0,1,1.0,3.9807009999999536
610,1,0.2,0.25,35.0,1,1.0,0.8541010000003553
611,1,0.2,0.25,35.0,1,1.0,1.6975009999996473
612,1,0.2,0.25,35.0,1,1.0,0.2215009999999893
613,1,0.2,0.25,35.0,1,1.0,3.237601000000268
614,1,0.2,0.25,35.0,1,1.0,0.40460100000063903
615,1,0.2,0.25,35.0,1,1.0,5.007700999999997
616,1,0.2,0.25,35.0,1,1.0,0.7016010000002098
617,1,0.2,0.0625,-35.0,-1,1.0,0.9247010000003684
618,1,0.2,0.125,35.0,1,1.0,0.48800100000016755
619,1,0.2,0.125,35.0,1,1.0,0.7114010000000235
620,1,0.2,0.125,35.0,1,1.0,0.4315010000004804
621,1,0.2,1.0,35.0,1,1.0,0.2886009999997441
622,1,0.2,0.0,35.0,1,1.0,2.0183010000005197
623,1,0.2,0.0625,-35.0,-1,1.0,0.3750009999998838
624,1,0.2,0.0625,35.0,1,1.0,0.4523010000002614
625,1,0.2,1.0,35.0,1,1.0,0.3052010000001246
626,1,0.2,0.0,-35.0,1,0.0,1.0690010000002985
627,1,0.2,0.0625,35.0,1,1.0,3.4495010000005095
628,1,0.2,0.125,35.0,1,1.0,0.3055010000002767
629,1,0.2,0.0625,35.0,1,1.0,0.3221010000002025
630,1,0.2,1.0,-35.0,-1,1.0,0.286000999999942
631,1,0.2,0.0625,-35.0,-1,1.0,0.4695010000000366
632,1,0.2,0.25,35.0,1,1.0,0.6057009999999536
633,1,0.2,0.25,35.0,1,1.0,0.7425010000001748
634,1,0.2,0.0,35.0,-1,0.0,0.13610100000005332
635,1,0.2,0.25,35.0,1,1.0,0.43930100000034145
636,1,0.2,0.0625,35.0,1,1.0,2.2328010000001086
637,1,0.2,0.0625,35.0,1,1.0,2.529700999999477
638,1,0.2,0.0625,35.0,1,1.0,0.24950100000023667
639,1,0.2,0.25,35.0,1,1.0,0.23630099999991216
640,1,0.2,0.0625,35.0,1,1.0,1.1299010000002454
641,1,0.2,0.25,-35.0,-1,1.0,0.15340100000003076
642,1,0.2,0.0625,35.0,1,1.0,0.8264010000007147
643,1,0.2,0.125,35.0,1,1.0,0.40330100000028324
644,1,0.2,1.0,-35.0,-1,1.0,0.249800999999934
645,1,0.2,0.125,35.0,1,1.0,0.3202009999999973
646,1,0.2,0.125,35.0,1,1.0,0.5905010000001312
647,1,0.2,1.0,-35.0,-1,1.0,0.24010099999986778
648,1,0.2,1.0,35.0,1,1.0,0.2635009999999056
649,1,0.2,0.0,35.0,1,1.0,1.6239009999999325
650,1,0.2,1.0,35.0,1,1.0,0.3170010000003458
651,1,0.2,0.0625,35.0,1,1.0,1.9770010000002003
652,1,0.2,0.125,35.0,1,1.0,0.3607010000000628
653,1,0.2,0.25,35.0,1,1.0,0.4575009999998656
654,1,0.2,0.0625,35.0,-1,0.0,0.5139009999998052
655,1,0.2,0.125,35.0,1,1.0,1.520701000000372
656,1,0.8,0.0625,-35.0,-1,1.0,0.4877010000000155
657,1,0.8,0.0625,-35.0,-1,1.0,0.36080100000026505
658,1,0.8,1.0,-35.0,-1,1.0,0.40760099999988597
659,1,0.8,0.125,-35.0,-1,1.0,1.474301000000196
660,1,0.8,0.25,-35.0,-1,1.0,1.3311009999997623
661,1,0.8,0.0625,-35.0,1,0.0,0.6179010000005292
662,1,0.8,0.0625,35.0,1,1.0,2.8649010000003727
663,1,0.8,0.125,-35.0,-1,1.0,0.285001000000193
664,1,0.8,0.125,-35.0,-1,1.0,4.608001000000058
665,1,0.8,0.25,-35.0,-1,1.0,0.33150100000057137
666,1,0.8,0.125,-35.0,-1,1.0,0.3750009999998838
667,1,0.8,0.0625,-35.0,-1,1.0,2.0817010000000664
668,1,0.8,0.25,-35.0,-1,1.0,0.8320010000002185
669,1,0.8,0.0,-35.0,-1,1.0,1.522001000000273
670,1,0.8,1.0,-35.0,-1,1.0,0.3086010000006354
671,1,0.8,1.0,-35.0,-1,1.0,0.3085010000004331
672,1,0.8,1.0,35.0,1,1.0,0.48530100000061793
673,1,0.8,1.0,-35.0,-1,1.0,0.30530099999987215
674,1,0.8,0.25,35.0,1,1.0,0.5222010000006776
675,1,0.8,0.25,-35.0,-1,1.0,0.3822010000003502
676,1,0.8,0.125,-35.0,1,0.0,3.6991009999997004
677,1,0.8,1.0,35.0,1,1.0,2.152501000000484
678,1,0.8,0.125,35.0,1,1.0,9.785701000000245
679,1,0.8,0.0,-35.0,-1,1.0,6.713101000000279
680,1,0.8,0.0625,-35.0,-1,1.0,2.616400999999769
681,1,0.8,0.25,-35.0,1,0.0,6.443501000000197
682,1,0.8,1.0,-35.0,-1,1.0,0.3966009999999187
683,1,0.8,0.0,-35.0,1,0.0,0.7100009999999202
684,1,0.8,0.125,-35.0,-1,1.0,5.2435010000003786
685,1,0.8,0.25,-35.0,-1,1.0,0.3836010000004535
686,1,0.8,1.0,-35.0,-1,1.0,0.3870010000005095
687,1,0.8,0.0625,-35.0,1,0.0,3.0270009999999274
688,1,0.8,0.25,-35.0,-1,1.0,9.277001000000382
689,1,0.8,0.25,35.0,-1,0.0,11.470801000000392
690,1,0.8,1.0,-35.0,-1,1.0,0.3249010000004091
691,1,0.8,1.0,-35.0,-1,1.0,0.29790100000036546
692,1,0.8,0.125,-35.0,-1,1.0,14.094401000000289
693,1,0.8,0.0625,35.0,1,1.0,8.271301000000221
694,1,0.8,0.25,-35.0,-1,1.0,10.3216010000001
695,1,0.8,1.0,-35.0,-1,1.0,0.20540099999971062
696,1,0.8,0.0625,-35.0,-1,1.0,3.288601000000199
697,1,0.8,1.0,-35.0,-1,1.0,0.28230100000018865
1,2,0.5,0.125,-35.0,-1,1.0,0.3737999999999997
2,2,0.5,0.125,35.0,1,1.0,0.3544999999999998
3,2,0.5,0.25,-35.0,-1,1.0,0.2754000000000012
4,2,0.5,0.0625,-35.0,1,0.0,0.19620000000000104
5,2,0.5,0.0,-35.0,1,0.0,0.18249999999999922
6,2,0.5,0.25,35.0,1,1.0,0.38950000000000173
7,2,0.5,0.125,-35.0,-1,1.0,0.39119999999999777
8,2,0.5,0.25,-35.0,-1,1.0,0.2515999999999998
9,2,0.5,0.25,-35.0,-1,1.0,0.2375000000000007
10,2,0.5,0.25,-35.0,-1,1.0,0.29490000000000194
11,2,0.5,1.0,-35.0,-1,1.0,0.25389999999999446
12,2,0.5,1.0,-35.0,-1,1.0,0.07809999999999917
13,2,0.5,0.0625,-35.0,-1,1.0,3.1481000000000066
14,2,0.5,1.0,-35.0,-1,1.0,0.33030000000000115
15,2,0.5,0.25,-35.0,-1,1.0,0.12239999999999895
16,2,0.5,0.0,35.0,1,1.0,2.2865000000000038
17,2,0.5,0.0625,-35.0,-1,1.0,2.0186999999999955
18,2,0.5,1.0,-35.0,-1,1.0,0.21760000000000446
19,2,0.5,1.0,35.0,1,1.0,0.2942999999999998
20,2,0.5,1.0,-35.0,-1,1.0,0.2960999999999814
21,2,0.5,0.0625,35.0,1,1.0,0.4111999999999938
22,2,0.5,0.0625,-35.0,-1,1.0,2.0016999999999996
23,2,0.5,0.0,35.0,-1,0.0,5.3134000000000015
24,2,0.5,1.0,-35.0,-1,1.0,0.2781999999999982
25,2,0.5,0.0625,-35.0,-1,1.0,0.6878999999999849
26,2,0.5,0.125,35.0,-1,0.0,1.706000000000003
27,2,0.5,0.125,-35.0,-1,1.0,0.04779999999999518
28,2,0.5,0.25,35.0,1,1.0,0.3558000000000021
29,2,0.5,0.0625,35.0,1,1.0,0.5775000000000006
30,2,0.5,0.25,-35.0,-1,1.0,0.2021000000000015
31,2,0.5,0.25,-35.0,-1,1.0,0.45059999999999434
32,2,0.5,0.125,-35.0,-1,1.0,0.7846999999999866
33,2,0.5,0.0,-35.0,-1,1.0,0.9899999999999949
34,2,0.5,0.125,35.0,1,1.0,0.4357999999999862
35,2,0.5,0.25,35.0,1,1.0,0.4538000000000011
36,2,0.5,0.125,-35.0,-1,1.0,0.3427999999999969
37,2,0.5,0.125,35.0,1,1.0,0.30689999999998463
38,2,0.5,0.0625,35.0,1,1.0,2.1518999999999835
39,2,0.5,0.25,35.0,1,1.0,0.34739999999999327
40,2,0.5,1.0,-35.0,-1,1.0,0.08910000000000196
41,2,0.5,0.25,-35.0,-1,1.0,2.8047000000000253
42,2,0.5,1.0,-35.0,-1,1.0,0.35129999999998063
43,2,0.5,0.0625,-35.0,-1,1.0,0.36889999999999645
44,2,0.5,0.0625,35.0,-1,0.0,2.740899999999982
45,2,0.5,0.0625,-35.0,-1,1.0,4.637499999999989
46,2,0.5,0.0625,35.0,1,1.0,0.5671999999999855
47,2,0.5,0.0,35.0,-1,0.0,0.37409999999999854
48,2,0.5,0.0,35.0,1,1.0,0.487199999999973
49,2,0.5,0.25,-35.0,-1,1.0,0.49559999999999604
50,2,0.5,1.0,-35.0,-1,1.0,3.686300000000017
51,2,0.5,0.25,-35.0,-1,1.0,0.1373999999999853
52,2,0.5,0.0,-35.0,-1,1.0,0.8523000000000138
53,2,0.5,0.125,-35.0,-1,1.0,0.2483999999999753
54,2,0.5,0.125,35.0,-1,0.0,3.053600000000017
55,2,0.5,1.0,-35.0,-1,1.0,0.26779999999999404
56,2,0.5,1.0,-35.0,-1,1.0,0.2033999999999594
57,2,0.5,1.0,35.0,1,1.0,0.5314999999999941
58,2,0.5,1.0,35.0,1,1.0,0.3427999999999827
59,2,0.5,0.25,-35.0,-1,1.0,0.53419999999997
60,2,0.5,1.0,35.0,1,1.0,0.6869000000000085
61,2,0.5,1.0,35.0,1,1.0,1.134900000000016
62,2,0.5,1.0,35.0,1,1.0,0.3745000000000118
63,2,0.5,0.125,-35.0,-1,1.0,0.39459999999999695
64,2,0.5,0.25,-35.0,-1,1.0,4.709299999999985
65,2,0.5,0.25,-35.0,-1,1.0,0.22159999999999513
66,2,0.5,1.0,35.0,1,1.0,0.2657999999999845
67,2,0.5,0.125,-35.0,-1,1.0,0.6821000000000197
68,2,0.5,0.125,35.0,1,1.0,1.6295000000000073
69,2,0.5,0.0625,35.0,1,1.0,0.27130000000002497
70,2,0.5,0.25,35.0,1,1.0,0.2927999999999713
71,2,0.5,0.25,-35.0,-1,1.0,0.29290000000000305
72,2,0.5,0.25,-35.0,-1,1.0,0.2989000000000033
73,2,0.5,0.25,35.0,1,1.0,0.31730000000004566
74,2,0.5,0.0625,35.0,-1,0.0,0.4379000000000133
75,2,0.5,0.0,-35.0,1,0.0,1.8836000000000013
76,2,0.5,1.0,35.0,1,1.0,0.24330000000003338
77,2,0.5,0.0,-35.0,1,0.0,0.27410000000003265
78,2,0.5,0.25,35.0,1,1.0,0.3118000000000052
79,2,0.5,0.25,-35.0,-1,1.0,0.45750000000003865
80,2,0.5,1.0,35.0,1,1.0,0.26350000000002183
81,2,0.5,0.25,35.0,1,1.0,0.6283000000000243
82,2,0.5,1.0,35.0,1,1.0,0.31569999999999254
83,2,0.5,1.0,35.0,1,1.0,1.5822000000000003
84,2,0.5,0.0,-35.0,1,0.0,0.38299999999998136
85,2,0.5,0.25,35.0,1,1.0,0.3057000000000585
86,2,0.5,1.0,35.0,-1,0.0,0.15409999999997126
87,2,0.5,0.0,-35.0,1,0.0,0.5114000000000942
88,2,0.5,0.25,35.0,1,1.0,0.3638000000000261
89,2,0.5,1.0,-35.0,-1,1.0,0.26420000000001664
90,2,0.5,0.0625,-35.0,-1,1.0,3.911299999999983
91,2,0.2,0.125,-35.0,-1,1.0,0.34339999999997417
92,2,0.2,0.0625,35.0,-1,0.0,1.0232000000000312
93,2,0.2,0.0625,35.0,1,1.0,1.87560000000002
94,2,0.2,0.125,35.0,1,1.0,0.5602000000000089
95,2,0.2,0.0625,35.0,1,1.0,0.2480000000000473
96,2,0.2,0.125,35.0,1,1.0,0.41259999999999764
97,2,0.2,0.25,35.0,1,1.0,0.38390000000003965
98,2,0.2,0.0625,35.0,1,1.0,0.49130000000002383
99,2,0.2,0.25,35.0,1,1.0,0.306699999999978
100,2,0.2,1.0,-35.0,-1,1.0,0.3351000000000113
101,2,0.2,0.125,35.0,1,1.0,0.30620000000004666
102,2,0.2,0.0625,35.0,1,1.0,0.14580000000000837
103,2,0.2,0.0625,35.0,-1,0.0,0.19490000000001828
104,2,0.2,0.0625,35.0,1,1.0,0.11240000000003647
105,2,0.2,0.125,-35.0,-1,1.0,0.5027999999999793
106,2,0.2,0.125,35.0,-1,0.0,0.17170000000004393
107,2,0.2,0.125,35.0,-1,0.0,0.2007000000000403
108,2,0.2,0.125,35.0,-1,0.0,0.10430000000008022
109,2,0.2,0.25,-35.0,-1,1.0,0.6684000000000765
110,2,0.2,0.0,35.0,-1,0.0,1.1990000000000123
111,2,0.2,0.0,35.0,-1,0.0,0.23050000000000637
112,2,0.2,0.0,35.0,-1,0.0,0.6790000000000305
113,2,0.2,0.125,35.0,-1,0.0,0.19820000000004256
114,2,0.2,0.0625,35.0,1,1.0,0.47649999999998727
115,2,0.2,0.0625,35.0,1,1.0,0.5308999999999742
116,2,0.2,0.0,35.0,-1,0.0,0.14850000000001273
117,2,0.2,0.25,35.0,1,1.0,0.335200000000043
118,2,0.2,0.0625,35.0,-1,0.0,1.0772000000000048
119,2,0.2,0.0625,-35.0,1,0.0,0.34130000000004657
120,2,0.2,1.0,-35.0,-1,1.0,0.4122000000000412
121,2,0.2,0.0625,35.0,1,1.0,1.7133000000000038
122,2,0.2,0.125,35.0,1,1.0,0.33150000000000546
123,2,0.2,0.0625,-35.0,-1,1.0,0.6835000000000377
124,2,0.2,1.0,-35.0,-1,1.0,0.3552000000000817
125,2,0.2,0.0625,35.0,-1,0.0,0.1773000000000593
126,2,0.2,1.0,-35.0,-1,1.0,0.28120000000001255
127,2,0.2,0.25,35.0,1,1.0,0.25839999999999463
128,2,0.2,0.125,35.0,1,1.0,0.3013000000000261
129,2,0.2,0.125,35.0,1,1.0,0.3047000000000253
130,2,0.2,0.125,-35.0,1,0.0,0.14950000000004593
131,2,0.2,1.0,35.0,1,1.0,0.12860000000000582
132,2,0.2,0.0625,-35.0,-1,1.0,0.7325999999999908
133,2,0.2,0.0,35.0,1,1.0,0.44999999999998863
134,2,0.2,1.0,35.0,1,1.0,0.2674000000000092
135,2,0.2,1.0,35.0,1,1.0,0.16080000000005157
136,2,0.2,0.0,35.0,1,1.0,0.3492999999999711
137,2,0.2,0.125,-35.0,-1,1.0,0.31090000000000373
138,2,0.2,1.0,35.0,1,1.0,0.36079999999998336
139,2,0.2,0.125,35.0,-1,0.0,0.1710000000000491
140,2,0.2,0.0625,35.0,1,1.0,1.7797999999999092
141,2,0.2,0.125,-35.0,1,0.0,0.5898999999999432
142,2,0.2,0.125,35.0,1,1.0,0.3509999999999991
143,2,0.2,0.125,-35.0,-1,1.0,0.3007000000000062
144,2,0.8,1.0,-35.0,-1,1.0,0.2577999999999747
145,2,0.8,0.25,35.0,1,1.0,0.3043999999999869
146,2,0.8,0.0625,-35.0,-1,1.0,0.15089999999997872
147,2,0.8,1.0,-35.0,-1,1.0,0.3110999999998967
148,2,0.8,1.0,-35.0,-1,1.0,0.24500000000000455
149,2,0.8,0.125,-35.0,-1,1.0,0.2197999999999638
150,2,0.8,1.0,-35.0,-1,1.0,0.2504999999999882
151,2,0.8,0.125,-35.0,-1,1.0,0.2819999999999254
152,2,0.8,0.125,-35.0,-1,1.0,0.08699999999998909
153,2,0.8,0.0,35.0,-1,0.0,0.48489999999992506
154,2,0.8,0.0,-35.0,-1,1.0,2.040200000000027
155,2,0.8,0.125,-35.0,-1,1.0,0.34780000000000655
156,2,0.8,0.0625,-35.0,-1,1.0,0.24030000000004748
157,2,0.8,1.0,-35.0,-1,1.0,0.7462999999999056
158,2,0.8,0.0625,-35.0,-1,1.0,0.40019999999992706
159,2,0.8,0.125,-35.0,-1,1.0,0.3774999999999409
160,2,0.8,0.0625,-35.0,-1,1.0,0.2219000000000051
161,2,0.8,0.125,-35.0,-1,1.0,0.2940999999999576
162,2,0.8,0.25,35.0,1,1.0,0.34809999999993124
163,2,0.8,0.0625,35.0,-1,0.0,0.08140000000003056
164,2,0.8,0.0625,-35.0,-1,1.0,0.529100000000085
165,2,0.8,0.125,-35.0,-1,1.0,0.35450000000003
166,2,0.8,0.25,35.0,-1,0.0,0.19269999999994525
167,2,0.8,0.25,-35.0,-1,1.0,0.4034999999998945
168,2,0.8,1.0,-35.0,-1,1.0,0.3529999999999518
169,2,0.8,0.0,-35.0,1,0.0,1.8751000000000886
170,2,0.8,0.125,-35.0,-1,1.0,0.5241999999999507
171,2,0.8,0.125,-35.0,1,0.0,0.33999999999991815
172,2,0.8,0.0,-35.0,-1,1.0,2.3274999999999864
173,2,0.8,1.0,-35.0,-1,1.0,0.38149999999996
174,2,0.8,0.25,-35.0,-1,1.0,0.14079999999989923
175,2,0.8,0.125,-35.0,-1,1.0,0.35609999999996944
176,2,0.8,1.0,-35.0,-1,1.0,0.2702999999999065
177,2,0.8,0.0,-35.0,-1,1.0,0.1413000000000011
178,2,0.8,0.125,-35.0,-1,1.0,0.286200000000008
179,2,0.8,0.0,-35.0,-1,1.0,0.20279999999991105
180,2,0.8,0.25,35.0,-1,0.0,0.5120999999999185
181,2,0.8,0.25,-35.0,-1,1.0,0.2879999999998972
182,2,0.8,0.0625,-35.0,-1,1.0,0.24030000000004748
183,2,0.8,1.0,-35.0,-1,1.0,0.5733999999998787
184,2,0.8,0.125,-35.0,-1,1.0,0.28339999999991505
185,2,0.8,0.25,-35.0,-1,1.0,0.377399999999966
186,2,0.8,0.0625,-35.0,-1,1.0,0.22140000000001692
187,2,0.8,1.0,-35.0,-1,1.0,0.1291999999999689
188,2,0.8,0.25,-35.0,-1,1.0,0.17399999999997817
189,2,0.8,0.125,-35.0,-1,1.0,0.26569999999992433
190,2,0.8,0.25,-35.0,-1,1.0,0.07719999999994798
191,2,0.8,1.0,-35.0,-1,1.0,0.5730990000000702
192,2,0.2,0.125,35.0,1,1.0,0.2601999999999407
193,2,0.2,1.0,35.0,1,1.0,0.32650000000001
194,2,0.2,0.0625,-35.0,-1,1.0,0.2536999999999807
195,2,0.2,1.0,35.0,1,1.0,0.3632999999999811
196,2,0.2,1.0,35.0,1,1.0,0.2361999999999398
197,2,0.2,0.25,-35.0,-1,1.0,0.33769999999992706
198,2,0.2,0.0,35.0,1,1.0,0.23529999999993834
199,2,0.2,0.125,35.0,1,1.0,0.39869999999996253
200,2,0.2,0.125,35.0,1,1.0,0.3040999999999485
201,2,0.2,0.125,-35.0,-1,1.0,0.39829999999994925
202,2,0.2,0.25,35.0,-1,0.0,0.34629999999992833
203,2,0.2,1.0,35.0,1,1.0,0.22440000000005966
204,2,0.2,0.0,35.0,-1,0.0,0.36369999999999436
205,2,0.2,0.0625,35.0,1,1.0,1.4063999999999623
206,2,0.2,0.0625,35.0,1,1.0,0.310799999999972
207,2,0.2,0.125,-35.0,-1,1.0,0.3442000000000007
208,2,0.2,0.0625,35.0,1,1.0,0.2155999999999949
209,2,0.2,1.0,35.0,1,1.0,0.31799999999998363
210,2,0.2,0.125,35.0,1,1.0,0.86850000000004
211,2,0.2,1.0,-35.0,-1,1.0,0.302599999999984
212,2,0.2,0.125,35.0,1,1.0,0.2684999999999036
213,2,0.2,1.0,35.0,1,1.0,0.24860000000001037
214,2,0.2,0.25,-35.0,1,0.0,0.1634000000000242
215,2,0.2,1.0,-35.0,-1,1.0,0.3080999999999676
216,2,0.2,0.125,-35.0,-1,1.0,0.5049999999999955
217,2,0.2,0.25,35.0,1,1.0,0.9166999999999916
218,2,0.2,0.125,35.0,1,1.0,0.37189999999998236
219,2,0.2,0.25,35.0,1,1.0,0.2980000000000018
220,2,0.2,0.0625,35.0,1,1.0,0.25900000000001455
221,2,0.2,1.0,35.0,1,1.0,0.3954999999998563
222,2,0.2,0.0625,35.0,1,1.0,0.505800000000022
223,2,0.2,0.25,35.0,1,1.0,0.21280000000001564
224,2,0.2,1.0,35.0,1,1.0,0.20400000000006457
225,2,0.2,0.0625,35.0,1,1.0,0.3828999999999496
226,2,0.2,1.0,35.0,1,1.0,0.29710000000000036
227,2,0.2,0.0,35.0,1,1.0,0.07089999999993779
228,2,0.2,1.0,35.0,1,1.0,0.8532000000000153
229,2,0.2,0.0625,35.0,1,1.0,0.22720000000003893
230,2,0.2,0.0625,35.0,-1,0.0,0.8301999999999907
231,2,0.2,1.0,35.0,1,1.0,0.3350000000000364
232,2,0.2,0.25,35.0,1,1.0,0.22109999999997854
233,2,0.2,0.0,35.0,1,1.0,0.39209999999991396
234,2,0.2,0.0625,35.0,1,1.0,0.280399999999986
235,2,0.2,0.25,35.0,1,1.0,0.08799999999996544
236,2,0.2,0.125,-35.0,-1,1.0,0.19610000000000127
237,2,0.2,0.125,35.0,1,1.0,0.34229999999990923
238,2,0.2,0.0625,-35.0,-1,1.0,0.39269999999987704
239,2,0.2,1.0,-35.0,-1,1.0,0.2744999999999891
240,2,0.2,0.25,35.0,1,1.0,0.4824999999999591
241,2,0.2,0.0625,35.0,1,1.0,0.36549999999999727
242,2,0.2,0.0625,35.0,1,1.0,1.2975000000000136
243,2,0.2,0.0625,35.0,1,1.0,1.1983999999999924
244,2,0.2,0.0625,35.0,-1,0.0,0.24540000000001783
245,2,0.2,0.0625,-35.0,-1,1.0,0.33559999999999945
246,2,0.2,0.125,-35.0,-1,1.0,0.5255999999999403
247,2,0.2,0.125,35.0,1,1.0,0.28369999999983975
248,2,0.2,0.0625,35.0,1,1.0,0.44469999999989795
249,2,0.2,0.25,35.0,1,1.0,0.18049999999993815
250,2,0.2,0.0625,-35.0,1,0.0,0.7044999999999391
251,2,0.2,0.125,35.0,1,1.0,0.9894999999999072
252,2,0.2,0.125,35.0,1,1.0,0.7286999999998898
253,2,0.2,0.125,-35.0,-1,1.0,0.3405999999999949
254,2,0.2,0.25,-35.0,-1,1.0,0.32559999999989486
255,2,0.2,0.0625,-35.0,-1,1.0,1.1073999999998705
256,2,0.2,0.0,-35.0,-1,1.0,0.1476999999998725
257,2,0.2,0.25,35.0,1,1.0,0.3047000000000253
258,2,0.2,0.0625,35.0,1,1.0,0.3857999999999038
259,2,0.2,0.125,35.0,1,1.0,0.4513999999999214
260,2,0.2,1.0,35.0,1,1.0,0.2746999999999389
261,2,0.2,0.0625,-35.0,-1,1.0,0.503699999999867
262,2,0.2,1.0,-35.0,-1,1.0,0.2639000000000351
263,2,0.2,1.0,35.0,1,1.0,0.3127999999999247
264,2,0.2,0.25,-35.0,-1,1.0,0.27289999999993597
265,2,0.2,0.25,35.0,1,1.0,0.338799999999992
266,2,0.2,0.25,35.0,1,1.0,0.3048999999999751
267,2,0.2,0.25,35.0,1,1.0,0.296100000000024
268,2,0.2,0.0625,35.0,1,1.0,0.4937999999999647
269,2,0.2,0.125,35.0,1,1.0,0.4560000000000173
270,2,0.2,0.0,35.0,1,1.0,0.4091999999999416
271,2,0.2,0.0,35.0,1,1.0,0.6234999999999218
272,2,0.2,0.0625,35.0,1,1.0,0.2741000000000895
273,2,0.2,1.0,35.0,1,1.0,0.29909999999995307
274,2,0.2,1.0,35.0,1,1.0,0.25879999999995107
275,2,0.2,0.125,-35.0,-1,1.0,0.2747999999999138
276,2,0.2,1.0,35.0,1,1.0,0.059399999999982356
277,2,0.2,0.125,35.0,-1,0.0,0.42409999999995307
278,2,0.2,0.25,35.0,-1,0.0,0.13430000000005293
279,2,0.2,0.125,35.0,1,1.0,0.39849999999989905
280,2,0.2,0.25,35.0,1,1.0,0.250699999999938
281,2,0.2,1.0,35.0,1,1.0,0.351099999999974
282,2,0.2,0.0,35.0,-1,0.0,0.40259999999989304
283,2,0.2,0.0625,35.0,-1,0.0,0.3027999999999338
284,2,0.2,0.125,35.0,1,1.0,0.31949999999994816
285,2,0.2,0.25,35.0,1,1.0,0.48959999999988213
286,2,0.2,1.0,35.0,1,1.0,0.12979999999993197
287,2,0.2,0.0625,35.0,1,1.0,0.3928999999999405
288,2,0.2,1.0,35.0,1,1.0,0.17349999999999
289,2,0.2,0.0625,35.0,-1,0.0,0.06970000000001164
290,2,0.8,1.0,-35.0,-1,1.0,0.4634000000000924
291,2,0.8,0.25,-35.0,-1,1.0,0.3265999999998712
292,2,0.8,1.0,-35.0,-1,1.0,0.24350000000004002
293,2,0.8,0.125,-35.0,-1,1.0,0.3505000000000109
294,2,0.8,0.25,-35.0,-1,1.0,0.3466999999998279
295,2,0.8,0.0,-35.0,-1,1.0,0.32009999999991123
296,2,0.8,0.125,35.0,1,1.0,0.20679999999993015
297,2,0.8,0.25,-35.0,-1,1.0,-0.05320000000028813
298,2,0.8,1.0,-35.0,-1,1.0,0.31369999999992615
299,2,0.8,0.0625,-35.0,-1,1.0,2.2536999999999807
300,2,0.8,0.25,35.0,-1,0.0,0.17069999999989705
301,2,0.8,0.0,-35.0,1,0.0,0.30730000000016844
302,2,0.8,1.0,-35.0,-1,1.0,0.3007000000000062
303,2,0.8,1.0,-35.0,-1,1.0,0.2242999999998574
304,2,0.8,0.25,35.0,1,1.0,0.3508999999999105
305,2,0.8,0.25,-35.0,-1,1.0,0.5441999999998188
306,2,0.8,0.25,-35.0,-1,1.0,0.25759999999991123
307,2,0.8,0.0625,-35.0,-1,1.0,0.35149999999998727
308,2,0.8,0.125,-35.0,-1,1.0,0.29779999999982465
309,2,0.8,0.125,-35.0,-1,1.0,0.11789999999996326
310,2,0.8,0.25,-35.0,1,0.0,0.16789999999991778
311,2,0.8,1.0,-35.0,-1,1.0,0.3079999999999927
312,2,0.8,0.0625,-35.0,-1,1.0,1.1412000000000262
313,2,0.8,1.0,-35.0,-1,1.0,0.09140000000002146
314,2,0.8,0.125,-35.0,-1,1.0,1.8550000000000182
315,2,0.8,0.0625,-35.0,1,0.0,0.3149999999998272
316,2,0.8,0.25,-35.0,-1,1.0,0.345299999999952
317,2,0.8,0.0,35.0,-1,0.0,0.4783999999999651
318,2,0.8,0.0,-35.0,-1,1.0,0.3351000000000113
319,2,0.8,0.0625,35.0,-1,0.0,0.3351999999997588
320,2,0.8,0.125,-35.0,-1,1.0,0.44560000000024047
321,2,0.8,0.0,35.0,-1,0.0,0.1351999999999407
322,2,0.8,0.25,35.0,1,1.0,0.5319999999999254
323,2,0.8,0.125,-35.0,-1,1.0,0.27860000000009677
324,2,0.8,0.0625,-35.0,-1,1.0,2.6321000000000367
325,2,0.8,0.0625,-35.0,-1,1.0,0.1856000000000222
326,2,0.8,0.0625,35.0,1,1.0,0.41229999999995925
327,2,0.8,0.25,-35.0,-1,1.0,0.3223000000000411
328,2,0.8,0.25,-35.0,-1,1.0,0.8557000000000698
329,2,0.8,0.125,-35.0,-1,1.0,0.542699999999968
330,2,0.8,1.0,-35.0,-1,1.0,1.0923999999997704
331,2,0.8,0.125,35.0,1,1.0,0.9424999999998818
332,2,0.8,0.0625,-35.0,-1,1.0,0.35639999999989413
333,2,0.8,0.25,-35.0,1,0.0,0.5460000000000491
334,2,0.8,0.0625,-35.0,-1,1.0,0.1227000000001226
335,2,0.8,0.0625,-35.0,-1,1.0,0.5994999999998072
336,2,0.8,1.0,-35.0,-1,1.0,0.3130999999998494
337,2,0.8,1.0,35.0,1,1.0,0.32359999999994216
338,2,0.8,1.0,-35.0,-1,1.0,0.36969999999996617
339,2,0.8,0.25,-35.0,-1,1.0,0.33979999999996835
340,2,0.8,0.125,35.0,1,1.0,0.26350000000002183
341,2,0.8,0.25,-35.0,-1,1.0,0.4235999999998512
342,2,0.8,0.25,-35.0,-1,1.0,0.31979999999998654
343,2,0.8,0.0,-35.0,-1,1.0,1.4399000000000797
344,2,0.8,0.25,-35.0,-1,1.0,1.5299999999999727
345,2,0.8,0.25,-35.0,-1,1.0,0.6236999999998716
346,2,0.8,0.25,-35.0,-1,1.0,0.4603999999997086
347,2,0.2,0.0625,35.0,-1,0.0,0.5436999999999443
348,2,0.2,0.0,35.0,-1,0.0,1.0971000000001823
349,2,0.2,0.0625,-35.0,-1,1.0,2.5237999999999374
350,2,0.2,0.0,35.0,-1,0.0,0.6838999999999942
351,2,0.2,0.25,35.0,1,1.0,0.3474999999998545
352,2,0.2,0.125,35.0,1,1.0,0.44739999999978863
353,2,0.2,0.25,35.0,1,1.0,0.34419999999977335
354,2,0.2,0.125,-35.0,-1,1.0,0.36410000000000764
355,2,0.2,0.125,35.0,-1,0.0,0.4410000000000309
356,2,0.2,0.25,35.0,1,1.0,0.24099999999998545
357,2,0.2,1.0,35.0,1,1.0,0.2545999999999822
358,2,0.2,0.0625,35.0,1,1.0,1.4641999999998916
359,2,0.2,0.125,35.0,1,1.0,6.234299999999848
360,2,0.2,1.0,35.0,1,1.0,0.2580000000002656
361,2,0.2,0.0,35.0,1,1.0,1.2680999999997766
362,2,0.2,0.125,-35.0,-1,1.0,4.901200000000017
363,2,0.2,0.25,35.0,1,1.0,0.40819999999985157
364,2,0.2,0.125,35.0,1,1.0,0.32150000000001455
365,2,0.2,0.125,-35.0,-1,1.0,0.12820000000010623
366,2,0.2,1.0,35.0,1,1.0,0.34169999999994616
367,2,0.2,0.125,35.0,-1,0.0,1.2451000000000931
368,2,0.2,0.25,35.0,1,1.0,0.3083999999998923
369,2,0.2,0.0625,35.0,1,1.0,0.5384000000001379
370,2,0.2,0.25,35.0,1,1.0,0.34569999999985157
371,2,0.2,0.25,35.0,1,1.0,0.4118999999998323
372,2,0.2,0.25,35.0,1,1.0,0.1853000000000975
373,2,0.2,0.0625,-35.0,1,0.0,0.5988999999999578
374,2,0.2,0.0,35.0,1,1.0,1.4523000000001502
375,2,0.2,1.0,35.0,1,1.0,1.5090000000000146
376,2,0.2,1.0,35.0,1,1.0,0.25949999999988904
377,2,0.2,1.0,35.0,1,1.0,0.21580000000017208
378,2,0.2,0.25,-35.0,1,0.0,3.0894999999998163
379,2,0.2,0.0625,35.0,1,1.0,2.2326000000000477
380,2,0.2,0.25,35.0,1,1.0,0.5227999999999611
381,2,0.2,0.0,35.0,1,1.0,0.6395999999999731
382,2,0.2,0.0,35.0,1,1.0,0.7799999999997453
383,2,0.2,0.0625,35.0,1,1.0,0.6929000000000087
384,2,0.2,0.125,35.0,1,1.0,0.3166999999998552
385,2,0.2,0.0625,35.0,-1,0.0,1.6498000000001412
386,2,0.2,0.125,35.0,1,1.0,0.22680000000013933
387,2,0.2,1.0,35.0,1,1.0,0.3568000000000211
388,2,0.2,1.0,35.0,1,1.0,0.21319999999991524
389,2,0.2,0.25,-35.0,-1,1.0,0.24689999999986867
390,2,0.2,0.0,35.0,1,1.0,1.0002999999999247
391,2,0.2,0.25,-35.0,-1,1.0,0.043899999999894135
392,2,0.2,0.25,35.0,1,1.0,0.3704000000000178
393,2,0.2,1.0,35.0,1,1.0,0.3207999999999629
394,2,0.2,0.25,-35.0,-1,1.0,0.2837000000001808
395,2,0.2,0.25,35.0,1,1.0,0.560399999999845
396,2,0.2,0.0,35.0,-1,0.0,0.600400000000036
397,2,0.2,0.25,35.0,1,1.0,0.4070999999999003
398,2,0.2,0.125,35.0,1,1.0,0.6109999999998763
399,2,0.2,0.0625,35.0,1,1.0,0.41049999999995634
400,2,0.2,0.25,35.0,1,1.0,0.5541000000000622
401,2,0.2,1.0,35.0,1,1.0,0.2941000000000713
402,2,0.2,0.25,35.0,1,1.0,-0.008900000000039654
403,2,0.2,0.0625,-35.0,1,0.0,0.5842000000000098
404,2,0.2,0.125,35.0,1,1.0,0.557700000000068
405,2,0.2,1.0,35.0,1,1.0,0.4175999999999931
406,2,0.2,0.125,35.0,1,1.0,1.1077999999999975
407,2,0.2,0.125,-35.0,1,0.0,0.1313999999997577
408,2,0.2,0.0625,35.0,1,1.0,0.5644999999997253
409,2,0.2,0.0625,35.0,1,1.0,1.8052999999999884
410,2,0.2,0.0625,35.0,1,1.0,0.4113999999999578
411,2,0.2,0.0625,35.0,1,1.0,0.5413999999998396
412,2,0.2,1.0,-35.0,-1,1.0,0.23159999999984393
413,2,0.2,0.25,35.0,1,1.0,0.31179999999994834
414,2,0.2,0.125,35.0,1,1.0,1.2549000000001342
415,2,0.2,1.0,35.0,1,1.0,0.31169999999997344
416,2,0.2,0.125,35.0,1,1.0,0.3419000000001233
417,2,0.2,0.0,35.0,-1,0.0,1.3353000000001884
418,2,0.2,0.25,-35.0,-1,1.0,0.09199999999987085
419,2,0.2,0.0,35.0,1,1.0,0.2320999999999458
420,2,0.2,0.25,35.0,1,1.0,2.1920000000002346
421,2,0.2,0.0625,35.0,1,1.0,0.8756000000000768
422,2,0.2,1.0,35.0,1,1.0,0.7221999999999298
423,2,0.2,1.0,-35.0,-1,1.0,0.27969999999982065
424,2,0.2,0.125,35.0,1,1.0,1.4090000000001055
425,2,0.2,0.25,-35.0,-1,1.0,0.2989999999997508
426,2,0.2,1.0,35.0,1,1.0,0.3026999999997315
427,2,0.2,1.0,35.0,1,1.0,2.499099999999771
428,2,0.2,0.0,35.0,1,1.0,0.4158999999997377
429,2,0.2,0.25,-35.0,-1,1.0,0.3928000000000793
430,2,0.2,0.25,35.0,1,1.0,0.11280000000010659
431,2,0.2,1.0,35.0,1,1.0,0.36609999999996035
432,2,0.2,0.125,35.0,1,1.0,0.6964000000000397
433,2,0.2,0.0,35.0,1,1.0,3.019900000000007
434,2,0.2,0.25,35.0,1,1.0,0.33310000000005857
435,2,0.2,0.0625,-35.0,-1,1.0,3.3365000000001146
436,2,0.2,0.125,35.0,1,1.0,0.1269999999999527
437,2,0.2,1.0,35.0,1,1.0,0.30999999999994543
438,2,0.8,0.0625,-35.0,-1,1.0,2.013500000000022
439,2,0.8,0.125,-35.0,-1,1.0,0.40019999999981337
440,2,0.8,1.0,-35.0,-1,1.0,0.2500999999997475
441,2,0.8,0.25,35.0,1,1.0,0.4270000000001346
442,2,0.8,0.25,35.0,1,1.0,0.5003000000001521
443,2,0.8,0.25,-35.0,-1,1.0,0.4071000000001277
444,2,0.8,0.0,-35.0,-1,1.0,0.6971009999999751
445,2,0.8,0.25,-35.0,-1,1.0,0.2540010000000166
446,2,0.8,0.0625,-35.0,1,0.0,1.894200999999839
447,2,0.8,0.125,-35.0,-1,1.0,0.6941009999998187
448,2,0.8,1.0,-35.0,-1,1.0,0.29070100000012644
449,2,0.8,0.0625,-35.0,-1,1.0,2.480701000000181
450,2,0.8,0.0,-35.0,1,0.0,0.5476009999997586
451,2,0.8,0.25,-35.0,-1,1.0,0.30130099999996673
452,2,0.8,1.0,-35.0,-1,1.0,0.4410010000001421
453,2,0.8,0.25,35.0,1,1.0,0.381300999999894
454,2,0.8,1.0,-35.0,-1,1.0,0.3044009999998707
455,2,0.8,0.25,35.0,1,1.0,1.1946009999996932
456,2,0.8,1.0,-35.0,-1,1.0,0.22800099999994927
457,2,0.8,0.25,-35.0,-1,1.0,0.27150099999971644
458,2,0.8,1.0,-35.0,-1,1.0,0.2881009999998696
459,2,0.8,1.0,-35.0,-1,1.0,0.37850099999968734
460,2,0.8,1.0,35.0,1,1.0,0.5049009999997907
461,2,0.8,1.0,35.0,1,1.0,0.414801000000125
462,2,0.8,0.0625,-35.0,-1,1.0,0.39500100000009297
463,2,0.8,1.0,-35.0,-1,1.0,0.445100999999795
464,2,0.8,0.125,-35.0,1,0.0,0.2950009999997292
465,2,0.8,0.125,-35.0,-1,1.0,0.34860100000014427
466,2,0.8,0.25,-35.0,-1,1.0,0.29860099999996237
467,2,0.8,1.0,-35.0,-1,1.0,0.32870099999991
468,2,0.8,0.0625,35.0,1,1.0,14.71870100000001
469,2,0.8,0.0625,-35.0,-1,1.0,2.552799999999934
470,2,0.8,0.0,-35.0,-1,1.0,1.5191009999998641
471,2,0.8,0.0,-35.0,1,0.0,1.055900999999949
472,2,0.8,0.0625,35.0,1,1.0,1.429200999999921
473,2,0.8,1.0,-35.0,-1,1.0,0.23600099999998747
474,2,0.8,0.0625,-35.0,1,0.0,5.5895009999999274
475,2,0.8,0.125,-35.0,-1,1.0,2.906501000000162
476,2,0.8,0.0,-35.0,1,0.0,0.2397009999999682
477,2,0.8,1.0,35.0,1,1.0,0.28670099999999366
478,2,0.8,0.0625,35.0,1,1.0,0.38320100000009916
479,2,0.8,1.0,-35.0,-1,1.0,0.20640100000014172
480,2,0.2,0.0625,35.0,-1,0.0,0.4000010000002021
481,2,0.2,0.0,35.0,-1,0.0,0.5836010000000442
482,2,0.2,0.125,35.0,1,1.0,1.4734010000001945
483,2,0.2,0.0625,35.0,1,1.0,0.7802009999998063
484,2,0.2,0.25,35.0,1,1.0,0.2738010000000486
485,2,0.2,1.0,35.0,1,1.0,0.2069010000000162
486,2,0.2,0.0625,35.0,1,1.0,0.38370099999997365
487,2,0.2,0.25,35.0,1,1.0,0.32720100000005914
488,2,0.2,0.0,35.0,1,1.0,0.5243009999999231
489,2,0.2,0.25,35.0,1,1.0,0.26720099999988633
490,2,0.2,0.25,35.0,1,1.0,0.5877010000001519
491,2,0.2,0.125,35.0,1,1.0,0.5875009999997474
492,2,0.2,0.125,35.0,1,1.0,0.3343010000000959
493,2,0.2,0.0,35.0,1,1.0,1.5475009999997837
494,2,0.2,0.25,35.0,1,1.0,0.3908010000000104
495,2,0.2,0.0625,35.0,1,1.0,0.5144009999999071
496,2,0.2,1.0,35.0,1,1.0,0.3144009999998616
497,2,0.2,0.0625,35.0,-1,0.0,1.2711010000000442
498,2,0.2,0.0,35.0,1,1.0,3.661100999999917
499,2,0.2,0.25,35.0,1,1.0,0.4880009999999402
500,2,0.2,0.25,35.0,1,1.0,1.4081009999999878
501,2,0.2,0.25,35.0,1,1.0,3.2015010000000075
502,2,0.2,0.0,35.0,1,1.0,3.945700999999872
503,2,0.2,1.0,35.0,1,1.0,0.3217010000000755
504,2,0.2,0.0625,35.0,1,1.0,1.958800999999994
505,2,0.2,0.0625,35.0,-1,0.0,1.1387009999998554
506,2,0.2,0.125,-35.0,-1,1.0,0.8758010000001377
507,2,0.2,0.0625,35.0,1,1.0,1.022200999999768
508,2,0.2,0.125,35.0,-1,0.0,0.5258010000000013
509,2,0.2,0.0,-35.0,1,0.0,2.5189009999999143
510,2,0.2,0.125,35.0,1,1.0,0.5223009999999704
511,2,0.2,0.125,35.0,1,1.0,1.44290100000012
512,2,0.2,1.0,35.0,1,1.0,0.2923009999999522
513,2,0.2,0.0625,-35.0,-1,1.0,1.0424010000001545
514,2,0.2,0.125,35.0,1,1.0,0.29910099999983686
515,2,0.2,0.25,35.0,1,1.0,0.4164009999999507
516,2,0.2,1.0,35.0,1,1.0,1.1194009999999253
517,2,0.2,0.0625,-35.0,-1,1.0,0.2796009999999569
518,2,0.2,0.125,35.0,1,1.0,0.5962009999998372
519,2,0.2,1.0,35.0,1,1.0,0.2897009999999227
520,2,0.2,0.25,35.0,-1,0.0,0.8063009999998485
521,2,0.2,0.0625,35.0,1,1.0,3.0732009999999264
522,2,0.2,1.0,35.0,1,1.0,0.26660100000003695
523,2,0.2,0.0625,35.0,-1,0.0,0.22990100000015445
524,2,0.2,1.0,35.0,1,1.0,0.09320099999990816
525,2,0.8,0.0,-35.0,1,0.0,0.14020099999993363
526,2,0.8,1.0,-35.0,-1,1.0,0.42020099999990634
527,2,0.8,1.0,-35.0,-1,1.0,0.2936010000000806
528,2,0.8,0.0625,-35.0,-1,1.0,0.40350100000023303
529,2,0.8,0.0625,-35.0,-1,1.0,0.3634999999999309
530,2,0.8,0.125,-35.0,-1,1.0,0.467401000000109
531,2,0.8,0.25,-35.0,-1,1.0,0.30700099999990016
532,2,0.8,0.0625,-35.0,1,0.0,1.0137010000000828
533,2,0.8,0.125,35.0,1,1.0,2.437400999999909
534,2,0.8,0.125,-35.0,-1,1.0,0.8939009999999143
535,2,0.8,0.25,-35.0,1,0.0,0.13750099999992926
536,2,0.8,0.0625,-35.0,1,0.0,2.2507009999999354
537,2,0.8,1.0,-35.0,-1,1.0,0.3745010000000093
538,2,0.8,0.125,-35.0,-1,1.0,0.7811009999998078
539,2,0.8,0.0625,35.0,1,1.0,0.4309009999999489
540,2,0.8,0.0625,-35.0,1,0.0,2.3446010000000115
541,2,0.8,0.25,-35.0,-1,1.0,0.508000999999922
542,2,0.8,0.0625,-35.0,1,0.0,19.90840100000014
543,2,0.8,0.25,-35.0,-1,1.0,0.3218010000000504
544,2,0.8,0.0625,-35.0,-1,1.0,12.871800999999778
545,2,0.8,0.25,-35.0,-1,1.0,2.665900999999849
546,2,0.8,0.0625,-35.0,-1,1.0,0.9125010000000202
547,2,0.8,0.125,-35.0,-1,1.0,8.519001000000117
548,2,0.8,0.125,-35.0,-1,1.0,0.5625009999998838
549,2,0.8,1.0,-35.0,-1,1.0,0.3627010000000155
550,2,0.8,0.0625,-35.0,-1,1.0,0.27650100000028033
551,2,0.8,1.0,-35.0,-1,1.0,0.34610099999963495
552,2,0.8,0.25,-35.0,-1,1.0,0.4031009999998787
553,2,0.8,0.125,-35.0,-1,1.0,0.8731010000001334
554,2,0.8,1.0,-35.0,-1,1.0,0.32290100000000166
555,2,0.8,0.0625,-35.0,1,0.0,1.1162010000002738
556,2,0.8,0.0,35.0,-1,0.0,0.356300999999803
557,2,0.8,0.125,35.0,1,1.0,3.9633010000002287
558,2,0.8,0.0625,-35.0,-1,1.0,0.4033009999998285
559,2,0.8,0.125,-35.0,-1,1.0,0.8405009999996764
560,2,0.8,0.125,-35.0,-1,1.0,4.7500010000003385
561,2,0.8,1.0,-35.0,-1,1.0,0.3434009999996306
562,2,0.8,0.25,35.0,1,1.0,0.47050099999978556
563,2,0.8,0.0625,-35.0,-1,1.0,4.140500999999858
564,2,0.8,0.25,-35.0,-1,1.0,0.43370099999992817
565,2,0.8,0.125,-35.0,-1,1.0,0.5971009999998387
566,2,0.8,1.0,-35.0,-1,1.0,0.7906009999996968
567,2,0.8,0.0625,-35.0,-1,1.0,3.133901000000151
568,2,0.8,0.0625,35.0,-1,0.0,0.4709010000001399
569,2,0.8,0.25,-35.0,-1,1.0,0.5242009999997208
570,2,0.8,0.0,-35.0,-1,1.0,0.27460100000007515
571,2,0.8,0.0625,-35.0,-1,1.0,1.8208009999998467
572,2,0.8,1.0,-35.0,-1,1.0,0.5010010000000875
573,2,0.8,0.125,-35.0,-1,1.0,0.2944009999996524
574,2,0.8,0.0625,-35.0,-1,1.0,4.104601000000002
575,2,0.8,0.125,-35.0,1,0.0,6.7047010000005685
576,2,0.8,0.0625,-35.0,0,0.0,59.94180000000006
577,2,0.8,1.0,-35.0,-1,1.0,3.656300999999985
578,2,0.8,1.0,35.0,1,1.0,0.6196009999998751
579,2,0.8,0.0,35.0,1,1.0,11.736300999999912
580,2,0.8,0.0625,-35.0,1,0.0,1.1099010000002636
581,2,0.8,0.25,35.0,1,1.0,0.4065009999999347
582,2,0.8,0.125,-35.0,-1,1.0,4.860001000000011
583,2,0.8,0.0625,-35.0,-1,1.0,0.8168009999999413
584,2,0.8,0.0625,-35.0,1,0.0,0.6404010000001108
585,2,0.8,0.25,35.0,1,1.0,0.3968009999998685
586,2,0.8,0.0625,-35.0,-1,1.0,0.467000999999982
587,2,0.8,0.25,-35.0,-1,1.0,0.4905009999997674
588,2,0.8,1.0,-35.0,-1,1.0,0.2837009999998372
589,2,0.8,1.0,-35.0,-1,1.0,0.8806009999998423
590,2,0.8,0.0,35.0,-1,0.0,0.9276010000003225
591,2,0.8,1.0,-35.0,-1,1.0,0.3477010000001428
592,2,0.8,0.0,35.0,1,1.0,1.3674009999999726
593,2,0.8,0.0,-35.0,1,0.0,1.510700999999699
594,2,0.8,0.125,-35.0,1,0.0,4.6677010000003065
595,2,0.8,0.125,-35.0,1,0.0,24.291101000000253
596,2,0.8,0.0,35.0,1,1.0,9.062000999999782
597,2,0.8,0.0625,-35.0,-1,1.0,43.03510099999994
598,2,0.8,1.0,35.0,1,1.0,0.602701000000252
599,2,0.8,0.0625,-35.0,-1,1.0,4.169400999999652
600,2,0.8,0.25,-35.0,-1,1.0,0.33280100000001767
601,2,0.8,1.0,-35.0,-1,1.0,0.3363009999998212
602,2,0.8,0.125,-35.0,-1,1.0,0.3234009999996488
603,2,0.8,1.0,-35.0,-1,1.0,-0.00029899999981353176
604,2,0.8,0.125,-35.0,1,0.0,2.3396010000001297
605,2,0.8,1.0,-35.0,-1,1.0,0.2965009999998074
606,2,0.8,1.0,-35.0,-1,1.0,0.2768009999995229
607,2,0.2,0.25,35.0,0,0.0,59.953501000000415
608,2,0.2,0.0,-0.0,0,0.0,41.92810099999997
609,2,0.2,0.0625,35.0,1,1.0,49.069300999999996
610,2,0.2,0.125,35.0,-1,0.0,10.183700999999928
611,2,0.2,0.25,35.0,-1,0.0,40.78370099999984
612,2,0.2,0.0,35.0,-1,0.0,8.697900999999547
613,2,0.2,0.0,35.0,-1,0.0,11.84130099999993
614,2,0.2,0.125,-35.0,-1,1.0,12.498300999999628
615,2,0.2,0.125,35.0,1,1.0,0.7653009999999085
616,2,0.2,0.0625,35.0,-1,0.0,0.2753010000001268
617,2,0.2,0.0625,35.0,1,1.0,2.692200999999841
618,2,0.2,1.0,-35.0,-1,1.0,0.42260099999975864
619,2,0.2,1.0,-35.0,-1,1.0,0.3558010000001559
620,2,0.2,0.25,-35.0,1,0.0,0.2724009999997179
621,2,0.2,0.0,-0.0,0,0.0,59.93620099999998
622,2,0.2,0.0625,35.0,-1,0.0,0.49060099999996964
623,2,0.2,0.0,-35.0,-1,1.0,1.5538010000000213
624,2,0.2,0.0625,35.0,-1,0.0,0.75090100000034
625,2,0.2,0.0625,35.0,1,1.0,14.96400100000028
626,2,0.2,0.0,35.0,-1,0.0,21.91420100000005
627,2,0.2,0.125,35.0,-1,0.0,3.2215009999999893
628,2,0.2,1.0,35.0,1,1.0,0.6853009999999813
629,2,0.2,0.0625,35.0,1,1.0,1.8217010000003029
630,2,0.2,0.0625,35.0,-1,0.0,2.5052010000003975
631,2,0.2,0.25,35.0,1,1.0,3.245401000000129
632,2,0.2,1.0,35.0,1,1.0,1.5154010000001108
633,2,0.2,0.25,35.0,1,1.0,2.722501000000193
634,2,0.2,0.0625,35.0,1,1.0,5.85220100000015
635,2,0.2,0.0625,35.0,1,1.0,7.486300999999912
636,2,0.2,0.0625,35.0,1,1.0,5.239101000000119
637,2,0.2,0.25,-35.0,1,0.0,33.362701000000015
638,2,0.2,0.0625,35.0,-1,0.0,4.863401000000067
639,2,0.2,1.0,35.0,1,1.0,0.5402009999997972
640,2,0.2,0.0625,35.0,-1,0.0,11.89060100000006
641,2,0.2,1.0,35.0,1,1.0,4.710501000000477
642,2,0.2,1.0,35.0,1,1.0,1.7277009999997972
643,2,0.2,0.125,35.0,1,1.0,4.047400999999809
644,2,0.2,1.0,35.0,1,1.0,6.114200999999866
645,2,0.2,0.25,35.0,1,1.0,1.2846010000002934
1,3,0.5,1.0,35.0,1,1.0,0.3461000000000001
2,3,0.5,0.0,-35.0,1,0.0,0.3165999999999993
3,3,0.5,0.125,-35.0,-1,1.0,0.38090000000000135
4,3,0.5,1.0,-35.0,-1,1.0,0.2366000000000028
5,3,0.5,1.0,35.0,1,1.0,0.15800000000000125
6,3,0.5,0.0,-35.0,-1,1.0,0.42590000000000217
7,3,0.5,1.0,35.0,1,1.0,0.3409000000000013
8,3,0.5,0.0625,35.0,1,1.0,0.5196999999999967
9,3,0.5,0.0,-35.0,1,0.0,0.7675999999999981
10,3,0.5,1.0,35.0,1,1.0,0.23639900000000225
11,3,0.5,0.25,-35.0,-1,1.0,0.3948999999999998
12,3,0.5,0.125,35.0,1,1.0,0.16619999999999635
13,3,0.5,0.125,35.0,1,1.0,0.3125999999999962
14,3,0.5,0.125,-35.0,-1,1.0,0.3364000000000047
15,3,0.5,1.0,-35.0,-1,1.0,0.20949999999999847
16,3,0.5,0.25,-35.0,-1,1.0,0.29480000000000217
17,3,0.5,1.0,35.0,-1,0.0,0.10880000000000223
18,3,0.5,1.0,35.0,1,1.0,0.25310000000000343
19,3,0.5,0.25,35.0,1,1.0,0.2682000000000002
20,3,0.5,0.125,-35.0,-1,1.0,0.5938999999999979
21,3,0.5,0.125,35.0,1,1.0,0.34499999999999886
22,3,0.5,0.125,35.0,-1,0.0,0.21189999999999998
23,3,0.5,0.25,35.0,1,1.0,0.20820000000000505
24,3,0.5,0.125,-35.0,-1,1.0,0.2318000000000069
25,3,0.5,0.25,35.0,1,1.0,0.3014999999999901
26,3,0.5,1.0,35.0,1,1.0,0.24740000000001316
27,3,0.5,0.125,-35.0,-1,1.0,0.2401999999999873
28,3,0.5,0.125,-35.0,-1,1.0,0.3322999999999894
29,3,0.5,0.25,-35.0,-1,1.0,0.30330000000000723
30,3,0.5,0.25,-35.0,-1,1.0,0.2796999999999912
31,3,0.5,0.0625,-35.0,-1,1.0,0.11299900000000207
32,3,0.5,0.0625,-35.0,-1,1.0,0.13649999999999807
33,3,0.5,0.25,35.0,1,1.0,0.3773000000000053
34,3,0.5,0.0625,35.0,1,1.0,1.6232999999999862
35,3,0.5,1.0,35.0,1,1.0,0.21779999999999688
36,3,0.5,0.0625,-35.0,1,0.0,1.83659999999999
37,3,0.5,1.0,35.0,1,1.0,0.26300000000000523
38,3,0.5,0.25,35.0,1,1.0,0.738199999999992
39,3,0.5,1.0,35.0,1,1.0,0.2172999999999945
40,3,0.5,0.25,-35.0,-1,1.0,0.28719999999999857
41,3,0.5,1.0,35.0,1,1.0,0.24749999999998806
42,3,0.5,1.0,-35.0,-1,1.0,0.22499999999999432
43,3,0.5,1.0,35.0,1,1.0,0.24200000000001864
44,3,0.5,1.0,-35.0,-1,1.0,0.32329999999998904
45,3,0.5,1.0,35.0,1,1.0,0.23629999999999995
46,3,0.5,1.0,-35.0,-1,1.0,0.25549999999998363
47,3,0.5,0.0625,-35.0,-1,1.0,0.4303999999999917
48,3,0.5,0.125,-35.0,-1,1.0,0.34609999999997854
49,3,0.5,0.0,-35.0,-1,1.0,0.6084000000000174
50,3,0.5,0.0,35.0,-1,0.0,1.3367999999999824
51,3,0.5,0.0625,-35.0,-1,1.0,0.9497000000000071
52,3,0.5,0.0625,35.0,-1,0.0,0.3539000000000101
53,3,0.5,0.0625,-35.0,-1,1.0,0.39459999999999695
54,3,0.5,0.125,35.0,1,1.0,0.37460000000001514
55,3,0.5,0.25,35.0,-1,0.0,1.6406000000000063
56,3,0.5,1.0,-35.0,-1,1.0,0.4327000000000112
57,3,0.5,0.0625,35.0,-1,0.0,0.7272999999999854
58,3,0.5,1.0,-35.0,-1,1.0,0.262299999999982
59,3,0.5,0.0625,-35.0,-1,1.0,3.1088000000000022
60,3,0.5,0.125,35.0,-1,0.0,4.038700000000006
61,3,0.5,1.0,35.0,1,1.0,0.4510999999999967
62,3,0.5,0.25,35.0,1,1.0,0.8194000000000017
63,3,0.5,0.25,-35.0,-1,1.0,0.22289999999998145
64,3,0.5,1.0,35.0,1,1.0,0.23279999999999745
65,3,0.5,0.125,-35.0,-1,1.0,0.28889999999998395
66,3,0.5,1.0,35.0,-1,0.0,0.0776989999999671
67,3,0.5,0.125,35.0,1,1.0,0.4379000000000133
68,3,0.5,0.0625,35.0,1,1.0,3.096599999999995
69,3,0.5,0.25,35.0,1,1.0,0.2831999999999937
70,3,0.5,0.125,35.0,1,1.0,0.2799999999999727
71,3,0.5,0.0625,-35.0,1,0.0,2.380800000000022
72,3,0.5,0.0,35.0,1,1.0,1.5923999999999978
73,3,0.5,0.125,-35.0,-1,1.0,1.809299999999979
74,3,0.5,0.0625,35.0,1,1.0,0.06290000000001328
75,3,0.5,0.25,-35.0,-1,1.0,0.2845999999999833
76,3,0.5,0.0625,35.0,1,1.0,0.36539999999996553
77,3,0.5,0.0,-35.0,-1,1.0,0.09430000000000405
78,3,0.5,0.0625,35.0,1,1.0,2.025599999999997
79,3,0.5,0.0,35.0,1,1.0,1.7532999999999674
80,3,0.5,0.0625,35.0,1,1.0,0.4078000000000088
81,3,0.5,0.125,-35.0,-1,1.0,0.29960000000005493
82,3,0.5,0.0,-35.0,-1,1.0,0.1248000000000502
83,3,0.5,0.125,35.0,-1,0.0,1.1394000000000233
84,3,0.5,0.125,35.0,1,1.0,0.33050000000008595
85,3,0.5,0.125,-35.0,-1,1.0,0.2855999999999881
86,3,0.5,0.0,-35.0,1,0.0,0.18890000000004648
87,3,0.5,0.125,-35.0,-1,1.0,0.3727999999999838
88,3,0.5,1.0,-35.0,-1,1.0,0.22550000000001091
89,3,0.5,1.0,35.0,1,1.0,0.2300000000000182
90,3,0.5,0.125,35.0,1,1.0,0.45370000000008304
91,3,0.8,0.0,-35.0,-1,1.0,0.7946000000000595
92,3,0.8,0.25,35.0,-1,0.0,0.07569999999998345
93,3,0.8,0.125,-35.0,-1,1.0,0.35520000000002483
94,3,0.8,0.25,-35.0,-1,1.0,0.321200000000033
95,3,0.8,0.0625,-35.0,-1,1.0,0.3901000000000181
96,3,0.8,0.125,-35.0,-1,1.0,0.31380000000001473
97,3,0.8,0.25,-35.0,-1,1.0,0.285000000000025
98,3,0.8,0.125,35.0,-1,0.0,2.810800000000029
99,3,0.8,1.0,-35.0,-1,1.0,0.515199999999993
100,3,0.8,0.0625,-35.0,-1,1.0,0.8541000000000167
101,3,0.8,0.0625,-35.0,-1,1.0,0.20629999999999882
102,3,0.8,1.0,-35.0,-1,1.0,0.18090000000006512
103,3,0.8,1.0,35.0,1,1.0,0.28700000000003456
104,3,0.8,0.125,-35.0,-1,1.0,0.3030000000000541
105,3,0.8,0.25,-35.0,-1,1.0,0.4239000000000033
106,3,0.8,1.0,-35.0,-1,1.0,0.3050000000000068
107,3,0.8,0.0625,-35.0,-1,1.0,0.4491999999999621
108,3,0.8,0.125,-35.0,-1,1.0,0.5521000000000527
109,3,0.8,0.0,-35.0,-1,1.0,2.393599999999992
110,3,0.8,0.25,-35.0,-1,1.0,0.34590000000002874
111,3,0.8,1.0,35.0,1,1.0,0.26019999999999754
112,3,0.8,0.0625,-35.0,-1,1.0,0.3334000000000401
113,3,0.8,0.0625,-35.0,1,0.0,0.1383000000000152
114,3,0.8,0.25,-35.0,-1,1.0,0.3032999999999788
115,3,0.8,0.0,-35.0,1,0.0,0.3761000000000081
116,3,0.8,0.125,-35.0,-1,1.0,0.3953000000000202
117,3,0.8,0.125,-35.0,-1,1.0,0.3063000000000784
118,3,0.2,0.25,35.0,1,1.0,0.6560999999999808
119,3,0.2,0.25,-35.0,-1,1.0,0.3374000000000592
120,3,0.2,0.125,-35.0,-1,1.0,0.42840000000001055
121,3,0.2,0.125,-35.0,-1,1.0,0.4994000000000369
122,3,0.2,0.0,35.0,-1,0.0,0.27340000000003783
123,3,0.2,1.0,35.0,1,1.0,0.29200000000003
124,3,0.2,0.125,35.0,1,1.0,0.5105000000000359
125,3,0.2,1.0,35.0,1,1.0,0.2026000000000181
126,3,0.2,0.25,35.0,1,1.0,0.24459999999999127
127,3,0.2,0.25,35.0,1,1.0,0.3057000000000585
128,3,0.2,0.125,35.0,1,1.0,0.212600000000009
129,3,0.2,0.0625,35.0,1,1.0,1.1906000000000176
130,3,0.2,1.0,35.0,1,1.0,0.21170000000000755
131,3,0.2,0.125,35.0,1,1.0,2.0827000000000453
132,3,0.2,0.125,35.0,-1,0.0,1.054800000000057
133,3,0.2,0.0,35.0,1,1.0,0.9732999999999947
134,3,0.2,0.125,35.0,1,1.0,0.348700000000008
135,3,0.2,0.0,35.0,1,1.0,0.7601000000000226
136,3,0.2,0.125,-35.0,1,0.0,0.13949999999999818
137,3,0.2,0.0625,35.0,1,1.0,0.2925999999999931
138,3,0.2,0.25,35.0,1,1.0,0.29680000000007567
139,3,0.2,0.25,35.0,1,1.0,0.349200000000053
140,3,0.2,0.25,35.0,1,1.0,0.20010000000007722
141,3,0.2,0.25,35.0,1,1.0,0.27609999999998536
142,3,0.2,0.25,-35.0,-1,1.0,0.9521000000000299
143,3,0.2,0.125,35.0,1,1.0,0.35389999999995325
144,3,0.2,0.0,35.0,1,1.0,0.4542000000000712
145,3,0.2,1.0,35.0,1,1.0,0.18800000000004502
146,3,0.2,0.125,35.0,1,1.0,0.2907000000000153
147,3,0.2,0.125,35.0,1,1.0,0.23619999999999663
148,3,0.2,0.25,35.0,1,1.0,0.33660000000003265
149,3,0.2,1.0,35.0,1,1.0,0.2842000000000553
150,3,0.2,1.0,35.0,1,1.0,0.2598000000000411
151,3,0.2,1.0,35.0,1,1.0,0.27330000000006294
152,3,0.2,0.25,-35.0,-1,1.0,0.3961999999999648
153,3,0.2,0.125,35.0,1,1.0,3.5622000000000753
154,3,0.2,0.125,35.0,1,1.0,0.2436999999999898
155,3,0.2,0.0,35.0,1,1.0,0.3482999999999947
156,3,0.2,0.0,35.0,1,1.0,0.46240000000000236
157,3,0.2,0.0625,35.0,1,1.0,0.7207999999999402
158,3,0.2,1.0,35.0,1,1.0,0.21030000000007476
159,3,0.2,0.125,35.0,1,1.0,0.668700000000058
160,3,0.2,1.0,35.0,1,1.0,0.2676999999999907
161,3,0.2,0.125,35.0,1,1.0,0.3665999999999485
162,3,0.2,0.25,35.0,1,1.0,0.34930000000008476
163,3,0.2,0.25,35.0,1,1.0,0.4732000000000198
164,3,0.2,0.0,-35.0,1,0.0,0.27740000000005693
165,3,0.2,1.0,35.0,1,1.0,0.34980000000007294
166,3,0.2,0.25,35.0,1,1.0,0.29150000000004184
167,3,0.2,1.0,-35.0,1,0.0,0.11940000000004147
168,3,0.2,0.125,-35.0,-1,1.0,0.5945000000000391
169,3,0.2,0.25,35.0,1,1.0,0.28280000000006567
170,3,0.2,0.25,35.0,1,1.0,0.27769999999998163
171,3,0.2,0.125,35.0,1,1.0,0.4560000000000173
172,3,0.2,0.0,35.0,-1,0.0,0.8555999999999813
173,3,0.2,0.25,35.0,1,1.0,0.3976000000000113
174,3,0.2,0.125,35.0,-1,0.0,0.704599999999914
175,3,0.2,0.125,35.0,1,1.0,2.7235999999999194
176,3,0.2,1.0,35.0,1,1.0,0.23820000000000618
177,3,0.2,0.25,35.0,1,1.0,0.8462000000000671
178,3,0.2,0.125,35.0,1,1.0,0.36130000000014206
179,3,0.2,1.0,35.0,1,1.0,1.9923000000000002
180,3,0.2,1.0,35.0,1,1.0,2.283700000000067
181,3,0.2,0.0,35.0,1,1.0,1.7613000000001193
182,3,0.2,0.25,35.0,1,1.0,0.7744000000000142
183,3,0.2,0.0,35.0,1,1.0,0.4820000000000846
184,3,0.2,0.25,35.0,1,1.0,0.2945999999999458
185,3,0.2,0.0625,35.0,1,1.0,0.9133000000000493
186,3,0.2,0.0,35.0,1,1.0,0.7484000000000606
187,3,0.2,0.25,35.0,1,1.0,0.40380000000004657
188,3,0.2,0.25,35.0,1,1.0,0.32019999999988613
189,3,0.2,1.0,35.0,1,1.0,0.2795000000000982
190,3,0.2,0.125,35.0,-1,0.0,2.1872000000000753
191,3,0.2,0.0625,35.0,-1,0.0,2.22420000000011
192,3,0.2,0.125,-35.0,-1,1.0,0.4984000000000606
193,3,0.2,0.0625,35.0,-1,0.0,0.8138999999999896
194,3,0.2,0.25,-35.0,-1,1.0,0.5122000000000071
195,3,0.2,0.25,35.0,1,1.0,0.8601999999999634
196,3,0.2,1.0,35.0,1,1.0,0.23940000000004602
197,3,0.2,0.0,-35.0,1,0.0,2.8595000000000255
198,3,0.2,1.0,-35.0,-1,1.0,0.2799999999999727
199,3,0.2,1.0,-35.0,-1,1.0,0.20190000000002328
200,3,0.2,0.125,35.0,1,1.0,0.26080000000001746
201,3,0.2,1.0,35.0,1,1.0,0.26720000000000255
202,3,0.8,0.0625,-35.0,-1,1.0,0.8884000000000469
203,3,0.8,1.0,-35.0,-1,1.0,0.34540000000004056
204,3,0.8,0.125,35.0,1,1.0,0.36360000000001946
205,3,0.8,0.25,-35.0,-1,1.0,0.2685000000000173
206,3,0.8,0.25,-35.0,-1,1.0,0.2837000000000671
207,3,0.8,0.0625,-35.0,-1,1.0,1.2231999999999061
208,3,0.8,0.25,-35.0,-1,1.0,0.2942000000000462
209,3,0.8,0.0625,35.0,-1,0.0,0.7429000000000769
210,3,0.8,0.125,-35.0,-1,1.0,0.4316000000001168
211,3,0.8,1.0,-35.0,-1,1.0,0.2154000000000451
212,3,0.8,0.125,-35.0,-1,1.0,0.5203989999999976
213,3,0.8,0.125,35.0,-1,0.0,0.7906000000000404
214,3,0.8,1.0,35.0,1,1.0,0.2676000000000158
215,3,0.8,1.0,-35.0,-1,1.0,0.09170000000005984
216,3,0.8,0.0,35.0,-1,0.0,1.2957000000000107
217,3,0.8,0.125,35.0,-1,0.0,0.75
218,3,0.8,0.0625,35.0,-1,0.0,1.1532000000000835
219,3,0.8,0.0625,35.0,-1,0.0,1.5985999999999194
220,3,0.8,1.0,-35.0,-1,1.0,0.27539999999999054
221,3,0.8,0.25,-35.0,-1,1.0,0.28890000000001237
222,3,0.8,0.125,-35.0,-1,1.0,0.27680000000009386
223,3,0.8,0.25,-35.0,-1,1.0,0.296799999999962
224,3,0.8,0.125,-35.0,-1,1.0,0.26690000000007785
225,3,0.8,1.0,-35.0,-1,1.0,0.35950000000002547
226,3,0.8,0.0,-35.0,-1,1.0,0.3563000000000329
227,3,0.8,0.0625,-35.0,-1,1.0,0.34800000000007003
228,3,0.8,1.0,-35.0,-1,1.0,0.2660000000000764
229,3,0.8,0.0625,-35.0,-1,1.0,0.5079000000000633
230,3,0.8,1.0,-35.0,-1,1.0,0.21509999999989304
231,3,0.8,0.0625,35.0,1,1.0,0.3347000000001117
232,3,0.8,0.125,35.0,-1,0.0,0.08100000000013097
233,3,0.8,0.125,-35.0,-1,1.0,2.549400000000105
234,3,0.8,0.125,-35.0,-1,1.0,0.5593999999999824
235,3,0.8,0.0625,-35.0,-1,1.0,0.37009999999997945
236,3,0.8,0.25,-35.0,-1,1.0,0.5715999999999894
237,3,0.8,0.125,35.0,-1,0.0,0.8488000000000966
238,3,0.8,0.25,-35.0,-1,1.0,1.3894999999999982
239,3,0.8,0.125,-35.0,-1,1.0,0.3309000000000424
240,3,0.8,0.125,35.0,-1,0.0,0.2905000000000655
241,3,0.8,0.125,-35.0,-1,1.0,2.3266000000000986
242,3,0.2,0.0,-35.0,-1,1.0,4.072400000000016
243,3,0.2,1.0,35.0,1,1.0,0.0584999999999809
244,3,0.2,0.0625,35.0,-1,0.0,5.683800000000133
245,3,0.2,0.25,35.0,1,1.0,0.6639000000001261
246,3,0.2,0.125,35.0,1,1.0,0.3632000000000062
247,3,0.2,1.0,35.0,1,1.0,0.22400000000004638
248,3,0.2,1.0,-35.0,-1,1.0,0.31910000000004857
249,3,0.2,1.0,35.0,1,1.0,0.3824000000000751
250,3,0.2,1.0,35.0,1,1.0,0.258199999999988
251,3,0.2,0.0,35.0,1,1.0,0.23670000000015534
252,3,0.2,0.125,35.0,1,1.0,0.3245000000000573
253,3,0.2,0.125,35.0,1,1.0,0.6300000000001091
254,3,0.2,0.125,35.0,1,1.0,0.38850000000002183
255,3,0.2,1.0,35.0,1,1.0,0.24299999999993815
256,3,0.2,0.0625,35.0,1,1.0,2.16070000000002
257,3,0.2,0.25,35.0,1,1.0,0.26969999999994343
258,3,0.2,1.0,-35.0,-1,1.0,0.6866000000001122
259,3,0.2,0.125,35.0,1,1.0,0.27480000000002747
260,3,0.2,1.0,35.0,1,1.0,0.2680000000000291
261,3,0.2,0.125,35.0,1,1.0,0.2948000000000093
262,3,0.2,0.0625,-35.0,-1,1.0,0.4316000000001168
263,3,0.2,0.125,35.0,1,1.0,0.23689999999999145
264,3,0.8,0.25,-35.0,-1,1.0,0.4470999999999776
265,3,0.8,0.125,35.0,1,1.0,0.5480999999999767
266,3,0.8,0.25,-35.0,-1,1.0,0.6554000000000997
267,3,0.8,0.0625,-35.0,1,0.0,3.3164999999999054
268,3,0.8,0.0,35.0,1,1.0,7.437900000000013
269,3,0.8,1.0,-35.0,-1,1.0,0.27309999999999945
270,3,0.8,0.25,-35.0,-1,1.0,0.3105000000000473
271,3,0.8,1.0,-35.0,-1,1.0,0.3161000000000058
272,3,0.8,0.125,-35.0,1,0.0,3.38130000000001
273,3,0.8,0.125,-35.0,-1,1.0,0.592200000000048
274,3,0.8,1.0,-35.0,-1,1.0,0.2805000000000746
275,3,0.8,0.0625,-35.0,-1,1.0,0.7152000000000953
276,3,0.8,0.125,-35.0,-1,1.0,0.40819999999996526
277,3,0.8,0.0625,35.0,-1,0.0,2.2853999999999814
278,3,0.8,0.25,-35.0,-1,1.0,0.46079999999994925
279,3,0.8,0.0625,-35.0,-1,1.0,0.429300000000012
280,3,0.8,0.0625,-35.0,-1,1.0,0.8296000000000276
281,3,0.8,0.125,-35.0,-1,1.0,0.38429900000005546
282,3,0.8,0.25,-35.0,-1,1.0,0.5487000000000535
283,3,0.8,0.125,-35.0,-1,1.0,0.4134000000000242
284,3,0.8,1.0,35.0,1,1.0,0.3147000000000162
285,3,0.8,0.0625,-35.0,-1,1.0,0.4577000000000453
286,3,0.8,1.0,35.0,1,1.0,0.24840000000006057
287,3,0.8,1.0,-35.0,-1,1.0,0.3985000000001264
288,3,0.8,0.0625,-35.0,1,0.0,0.35160000000007585
289,3,0.8,0.125,-35.0,1,0.0,4.258500000000026
290,3,0.8,0.125,-35.0,-1,1.0,0.3420000000000982
291,3,0.8,0.125,-35.0,-1,1.0,0.38190000000008695
292,3,0.8,1.0,35.0,1,1.0,0.8887999999999465
293,3,0.8,0.25,-35.0,-1,1.0,2.095500000000129
294,3,0.8,0.0,-35.0,-1,1.0,2.3989000000001397
295,3,0.8,0.0625,-35.0,-1,1.0,2.3721999999997934
296,3,0.8,0.0625,35.0,1,1.0,1.0323000000000775
297,3,0.8,1.0,35.0,1,1.0,0.3424999999999727
298,3,0.8,0.125,35.0,1,1.0,0.4027000000000953
299,3,0.8,1.0,-35.0,-1,1.0,0.2925999999999931
300,3,0.8,0.0625,-35.0,1,0.0,1.335800000000063
301,3,0.8,1.0,-35.0,-1,1.0,0.2727999999999611
302,3,0.8,0.25,35.0,-1,0.0,3.87929999999983
303,3,0.8,1.0,-35.0,-1,1.0,0.2663000000000011
304,3,0.8,0.125,-35.0,-1,1.0,0.29960000000005493
305,3,0.8,0.25,-35.0,-1,1.0,0.32989999999995234
306,3,0.8,0.25,-35.0,-1,1.0,0.6999000000000706
307,3,0.8,0.0625,-35.0,-1,1.0,4.336900000000014
308,3,0.8,0.0625,35.0,-1,0.0,0.41000000000008185
309,3,0.8,0.25,-35.0,-1,1.0,0.4602999999999611
310,3,0.8,1.0,-35.0,-1,1.0,0.27650000000016917
311,3,0.8,1.0,-35.0,-1,1.0,0.2666999999999007
312,3,0.8,0.0,-35.0,-1,1.0,1.696999999999889
313,3,0.8,0.125,-35.0,-1,1.0,0.44020000000000437
314,3,0.8,1.0,-35.0,-1,1.0,0.3038000000001375
315,3,0.8,0.0625,-35.0,-1,1.0,0.6704999999999472
316,3,0.8,0.0625,-35.0,1,0.0,0.4172000000000935
317,3,0.8,0.125,35.0,1,1.0,4.4771999999998116
318,3,0.8,0.0625,-35.0,-1,1.0,0.3605999999999767
319,3,0.8,1.0,-35.0,-1,1.0,0.29739999999992506
320,3,0.8,0.0625,-35.0,1,0.0,3.40729999999985
321,3,0.8,0.25,-35.0,-1,1.0,0.9275000000000091
322,3,0.8,0.125,-35.0,-1,1.0,0.45440000000007785
323,3,0.8,1.0,-35.0,-1,1.0,0.244499999999789
324,3,0.8,0.0625,-35.0,-1,1.0,2.5848000000000866
325,3,0.8,0.25,-35.0,-1,1.0,0.2777000000000953
326,3,0.8,0.0625,-35.0,1,0.0,1.5843999999999596
327,3,0.8,0.25,-35.0,-1,1.0,0.5377999999998337
328,3,0.8,0.125,-35.0,1,0.0,2.451400000000149
329,3,0.8,0.25,-35.0,-1,1.0,0.7047000000000025
330,3,0.8,0.25,-35.0,1,0.0,0.4981999999997697
331,3,0.8,0.125,35.0,1,1.0,0.8115999999999985
332,3,0.8,0.0625,-35.0,1,0.0,3.3416000000001986
333,3,0.8,0.125,-35.0,-1,1.0,0.34859999999980573
334,3,0.8,0.0625,-35.0,1,0.0,0.3684000000000651
335,3,0.8,1.0,-35.0,-1,1.0,0.24520000000006803
336,3,0.8,0.125,-35.0,-1,1.0,0.5717999999999392
337,3,0.8,0.125,35.0,1,1.0,2.845700000000079
338,3,0.8,0.0625,35.0,1,1.0,2.9754000000002634
339,3,0.8,0.25,-35.0,-1,1.0,1.0453999999999724
340,3,0.8,0.125,-35.0,-1,1.0,0.7589999999997872
341,3,0.8,0.25,-35.0,1,0.0,2.7558000000001357
342,3,0.8,0.125,-35.0,-1,1.0,0.5757000000000971
343,3,0.8,0.0625,-35.0,-1,1.0,0.28909999999996217
344,3,0.8,0.0625,-35.0,-1,1.0,0.9391999999998006
345,3,0.8,0.25,-35.0,-1,1.0,0.5726999999999407
346,3,0.8,0.0625,-35.0,-1,1.0,0.2559000000001106
347,3,0.8,0.125,-35.0,-1,1.0,0.28909999999996217
348,3,0.8,0.0625,-35.0,-1,1.0,0.4329999999999927
349,3,0.8,0.0,-35.0,-1,1.0,1.02599999999984
350,3,0.8,0.125,35.0,-1,0.0,1.6561000000001513
351,3,0.8,1.0,-35.0,-1,1.0,0.446400000000267
352,3,0.8,1.0,-35.0,-1,1.0,0.3263000000001739
353,3,0.8,1.0,-35.0,-1,1.0,0.41650000000004184
354,3,0.8,0.125,-35.0,-1,1.0,0.5932000000000244
355,3,0.8,0.125,-35.0,-1,1.0,0.5170999999998003
356,3,0.8,1.0,-35.0,-1,1.0,0.3000999999999294
357,3,0.8,0.125,-35.0,-1,1.0,2.6603000000000065
358,3,0.8,0.0625,-35.0,-1,1.0,0.2867999999998574
359,3,0.8,0.0625,-35.0,-1,1.0,2.747100000000273
360,3,0.2,1.0,35.0,1,1.0,0.35730000000012296
361,3,0.2,0.25,35.0,-1,0.0,2.0172999999999774
362,3,0.2,0.0625,35.0,1,1.0,5.260299999999916
363,3,0.2,0.25,35.0,-1,0.0,2.0006000000000768
364,3,0.2,0.25,35.0,1,1.0,0.23430000000007567
365,3,0.2,0.125,-35.0,-1,1.0,0.9507000000000971
366,3,0.2,0.125,35.0,1,1.0,0.33740000000011605
367,3,0.2,0.25,35.0,1,1.0,0.45069999999986976
368,3,0.2,1.0,35.0,1,1.0,0.29749999999989996
369,3,0.2,0.0,35.0,1,1.0,2.6745999999998276
370,3,0.2,0.125,35.0,1,1.0,0.3244999999999436
371,3,0.2,0.125,35.0,1,1.0,0.5045000000000073
372,3,0.2,0.125,35.0,1,1.0,0.3045000000001892
373,3,0.2,0.0625,35.0,1,1.0,2.4881000000000313
374,3,0.2,0.25,35.0,1,1.0,1.1550999999999476
375,3,0.2,0.125,35.0,1,1.0,0.35169999999993706
376,3,0.2,0.0625,35.0,-1,0.0,0.9049000000002252
377,3,0.2,1.0,-35.0,-1,1.0,0.3949000000000069
378,3,0.2,1.0,-35.0,-1,1.0,0.31179999999994834
379,3,0.2,1.0,35.0,1,1.0,3.275100000000066
380,3,0.2,0.0625,35.0,1,1.0,1.345600000000104
381,3,0.2,0.125,-35.0,1,0.0,0.3288000000000011
382,3,0.2,0.25,35.0,1,1.0,0.49189999999975953
383,3,0.2,0.125,35.0,1,1.0,0.8150990000001457
384,3,0.2,1.0,-35.0,-1,1.0,0.3421000000000731
385,3,0.2,1.0,35.0,1,1.0,0.36199999999985266
386,3,0.2,0.25,35.0,1,1.0,1.9154000000000906
387,3,0.2,0.125,35.0,1,1.0,0.15550000000007458
388,3,0.2,0.25,35.0,1,1.0,2.2655999999999494
389,3,0.2,0.0625,35.0,1,1.0,5.485899999999901
390,3,0.2,1.0,-35.0,-1,1.0,0.5490999999999531
391,3,0.2,0.125,35.0,1,1.0,2.705900000000156
392,3,0.2,0.125,35.0,1,1.0,1.5890999999999167
393,3,0.2,0.0625,35.0,1,1.0,0.3894000000000233
394,3,0.2,0.125,35.0,1,1.0,1.432800000000043
395,3,0.2,0.0625,35.0,1,1.0,1.3865999999998166
396,3,0.2,0.25,35.0,1,1.0,5.9461999999998625
397,3,0.2,0.25,35.0,1,1.0,0.3365000000001146
398,3,0.8,0.25,35.0,1,1.0,4.759700000000066
399,3,0.8,0.0,-35.0,1,0.0,2.00019999999995
400,3,0.8,1.0,35.0,1,1.0,0.2133000000001175
401,3,0.8,1.0,35.0,1,1.0,3.973500000000058
402,3,0.8,0.0,-35.0,1,0.0,1.5103999999998905
403,3,0.8,0.125,35.0,1,1.0,3.733800000000201
404,3,0.8,0.125,-35.0,1,0.0,2.700399999999945
405,3,0.8,0.0,-35.0,1,0.0,0.7408000000000357
406,3,0.8,0.0625,35.0,1,1.0,0.4675000000002001
407,3,0.8,1.0,-35.0,-1,1.0,0.4075000000000273
408,3,0.8,0.0625,-35.0,1,0.0,1.9375
409,3,0.8,1.0,-35.0,-1,1.0,0.4579000000001088
410,3,0.8,0.25,35.0,1,1.0,7.181200000000217
411,3,0.8,0.25,-35.0,1,0.0,1.07100000000014
412,3,0.8,0.0625,-35.0,1,0.0,0.18460000000004584
413,3,0.8,1.0,-35.0,-1,1.0,0.3716999999999189
414,3,0.8,0.0,-35.0,1,0.0,19.754699999999957
415,3,0.8,0.25,-35.0,1,0.0,7.331900000000132
416,3,0.8,1.0,-35.0,1,0.0,4.665299999999888
417,3,0.8,0.25,-35.0,1,0.0,5.175500000000056
418,3,0.8,0.125,35.0,1,1.0,8.889300000000048
419,3,0.8,0.0625,-35.0,1,0.0,2.6726999999998498
420,3,0.8,0.125,-35.0,1,0.0,2.049199999999928
421,3,0.8,1.0,-35.0,-1,1.0,0.8261999999999716
422,3,0.8,0.25,-35.0,1,0.0,5.626199999999926
423,3,0.8,0.125,-35.0,1,0.0,8.693099999999959
424,3,0.8,0.0625,-35.0,1,0.0,20.52980000000025
425,3,0.8,0.125,-35.0,1,0.0,45.2175000000002
426,3,0.8,1.0,35.0,1,1.0,0.8113000000003012
427,3,0.8,0.125,-35.0,1,0.0,2.5048000000001593
428,3,0.8,0.125,35.0,1,1.0,0.6947999999999865
429,3,0.8,1.0,-35.0,-1,1.0,0.5817999999999302
430,3,0.8,0.0625,35.0,1,1.0,1.6281999999998789
431,3,0.8,0.0,35.0,1,1.0,2.0153000000000247
432,3,0.8,0.25,35.0,1,1.0,1.7719999999999345
433,3,0.8,1.0,-35.0,-1,1.0,0.42849999999998545
434,3,0.8,0.125,-35.0,1,0.0,0.5720000000001164
435,3,0.8,1.0,-35.0,1,0.0,2.1686999999999443
436,3,0.8,0.125,35.0,1,1.0,0.949100000000044
437,3,0.8,0.25,35.0,1,1.0,0.3854999999998654
438,3,0.8,1.0,35.0,1,1.0,0.7721000000001368
439,3,0.8,0.0625,-35.0,1,0.0,0.09590000000002874
440,3,0.8,1.0,-35.0,-1,1.0,0.5257000000001426
441,3,0.8,0.0,-35.0,1,0.0,4.156200000000126
442,3,0.8,0.125,-35.0,1,0.0,3.386199999999917
443,3,0.8,0.0,35.0,1,1.0,0.316300000000183
444,3,0.8,1.0,-35.0,1,0.0,2.35329999999999
445,3,0.8,1.0,-35.0,-1,1.0,0.3228999999998905
446,3,0.8,0.125,-35.0,1,0.0,0.5595000000000709
447,3,0.8,0.25,-35.0,1,0.0,3.5097999999998137
448,3,0.8,0.25,-35.0,1,0.0,8.43340000000012
449,3,0.8,0.25,-35.0,-1,1.0,1.8102000000001226
450,3,0.8,1.0,-35.0,-1,1.0,0.6667999999999665
451,3,0.8,0.25,-35.0,1,0.0,3.5271000000000186
452,3,0.8,0.125,35.0,1,1.0,1.1403999999997723
453,3,0.8,0.0625,-35.0,1,0.0,3.59050000000002
454,3,0.8,0.0625,-35.0,1,0.0,4.434200000000146
455,3,0.8,0.25,35.0,1,1.0,0.9707000000000789
456,3,0.8,1.0,-35.0,-1,1.0,0.6742000000001553
457,3,0.8,0.125,35.0,1,1.0,3.674099999999953
458,3,0.8,0.25,-35.0,1,0.0,1.931100000000015
459,3,0.8,1.0,-35.0,1,0.0,1.4878000000001066
460,3,0.8,0.125,35.0,1,1.0,3.6379000000001724
461,3,0.2,0.125,35.0,1,1.0,0.4980000000000473
462,3,0.2,0.125,35.0,1,1.0,2.398200000000088
463,3,0.2,0.25,35.0,1,1.0,0.6380999999998949
464,3,0.2,1.0,-35.0,-1,1.0,0.5382000000001881
465,3,0.2,0.25,-35.0,1,0.0,2.5983000000001084
466,3,0.2,1.0,35.0,1,1.0,0.9190000000000964
467,3,0.2,0.0,35.0,1,1.0,0.7951000000000477
468,3,0.2,0.125,35.0,1,1.0,0.8559999999999945
469,3,0.2,1.0,-35.0,-1,1.0,0.3652999999999338
470,3,0.2,0.125,35.0,1,1.0,2.232100000000173
471,3,0.2,1.0,35.0,1,1.0,0.229200000000219
472,3,0.2,0.125,35.0,1,1.0,1.1755000000000564
473,3,0.2,0.0625,35.0,1,1.0,1.92899999999986
474,3,0.2,0.0,35.0,1,1.0,1.8690999999998894
475,3,0.2,0.25,35.0,1,1.0,1.9725000000000819
476,3,0.2,0.0625,35.0,1,1.0,2.835700000000088
477,3,0.2,0.0,-35.0,1,0.0,4.282699999999977
478,3,0.2,0.0,35.0,1,1.0,7.266000000000304
479,3,0.2,1.0,35.0,1,1.0,2.8163999999999305
480,3,0.2,0.0625,35.0,1,1.0,6.799600000000055
481,3,0.2,0.25,35.0,1,1.0,2.39020000000005
482,3,0.2,1.0,35.0,1,1.0,4.476599999999962
483,3,0.2,0.0625,35.0,1,1.0,3.073599999999942
484,3,0.2,0.25,35.0,1,1.0,2.326699999999846
485,3,0.2,0.0625,35.0,1,1.0,3.506900000000087
486,3,0.2,0.0625,35.0,1,1.0,2.20049999999992
487,3,0.2,0.125,35.0,1,1.0,1.3870999999999185
488,3,0.2,0.125,-35.0,1,0.0,2.0906000000002223
489,3,0.2,0.0625,35.0,1,1.0,2.054100000000062
490,3,0.2,0.0625,35.0,1,1.0,2.0773000000001502
491,3,0.2,0.0,-35.0,1,0.0,6.510899999999992
492,3,0.2,0.25,35.0,1,1.0,0.17499999999995453
493,3,0.2,0.125,35.0,1,1.0,0.8244000000001961
494,3,0.2,0.0625,35.0,1,1.0,2.7411000000001877
495,3,0.2,0.25,35.0,1,1.0,0.858600000000024
496,3,0.2,0.125,-35.0,1,0.0,1.618000000000393
497,3,0.2,0.125,35.0,1,1.0,2.66800000000012
498,3,0.2,0.25,35.0,1,1.0,2.364900000000034
499,3,0.2,0.125,35.0,1,1.0,2.912100000000464
500,3,0.2,0.25,35.0,1,1.0,1.318699999999808
501,3,0.2,1.0,-35.0,1,0.0,2.608600000000024
502,3,0.2,0.25,35.0,1,1.0,4.995499999999993
503,3,0.2,0.25,35.0,1,1.0,0.5187000000000808
504,3,0.2,0.25,35.0,1,1.0,1.1455999999998312
505,3,0.2,1.0,35.0,1,1.0,1.6463999999996304
506,3,0.2,0.25,35.0,1,1.0,0.6355999999996129
507,3,0.2,0.125,35.0,1,1.0,1.8624999999997272
508,3,0.2,0.25,35.0,1,1.0,5.705899999999474
509,3,0.2,0.25,35.0,1,1.0,1.5660000000002583
510,3,0.2,0.0625,35.0,1,1.0,5.435999999999694
511,3,0.2,0.0,-35.0,1,0.0,1.2429000000001906
512,3,0.2,0.0,35.0,1,1.0,5.359799999999723
513,3,0.2,0.0,35.0,1,1.0,0.1696999999999207
514,3,0.2,0.125,35.0,1,1.0,4.576699999999619
515,3,0.2,0.0,-35.0,1,0.0,4.106700000000274
516,3,0.2,0.0625,35.0,-1,0.0,1.1066999999998188
517,3,0.2,0.125,-35.0,-1,1.0,1.4238000000000284
518,3,0.2,0.25,-35.0,1,0.0,3.403599999999642
519,3,0.2,1.0,35.0,1,1.0,0.6638000000002648
520,3,0.2,0.0625,-35.0,1,0.0,2.2038000000002285
521,3,0.2,0.25,35.0,1,1.0,3.287199999999757
522,3,0.2,0.125,-35.0,1,0.0,1.703899999999976
523,3,0.2,0.0,35.0,1,1.0,5.587500000000091
524,3,0.2,0.25,35.0,1,1.0,4.554099999999835
525,3,0.2,0.25,35.0,1,1.0,0.4780000000000655
526,3,0.2,0.125,35.0,1,1.0,1.3710999999998421
527,3,0.2,0.0,-35.0,1,0.0,0.6244000000001506
528,3,0.2,1.0,35.0,1,1.0,4.581200000000081
529,3,0.2,0.125,35.0,1,1.0,0.9881000000000313
530,3,0.2,0.125,-35.0,1,0.0,7.401400000000194
531,3,0.2,0.0625,35.0,1,1.0,8.541600000000017
532,3,0.2,0.0625,35.0,1,1.0,0.4884999999999309
533,3,0.2,0.125,35.0,1,1.0,2.8352999999997337
534,3,0.2,0.25,35.0,1,1.0,0.838799999999992
535,3,0.2,0.25,-35.0,1,0.0,4.285699999999906
536,3,0.2,0.125,35.0,1,1.0,6.022399999999834
537,3,0.2,0.125,35.0,1,1.0,2.915899999999965
538,3,0.2,0.125,35.0,1,1.0,1.8858000000000175
539,3,0.2,0.125,35.0,1,1.0,3.956000000000131
540,3,0.2,0.125,-35.0,1,0.0,0.5527000000001863
541,3,0.2,0.25,35.0,1,1.0,0.5366000000003623
542,3,0.2,0.0625,35.0,1,1.0,9.002800000000207
543,3,0.2,0.125,35.0,1,1.0,2.1698999999998705
544,3,0.2,0.125,35.0,1,1.0,1.7238000000002103
545,3,0.8,1.0,-35.0,-1,1.0,0.2667999999998756
546,3,0.8,0.0,-35.0,1,0.0,5.233299999999872
547,3,0.8,1.0,-35.0,1,0.0,4.070300000000316
548,3,0.8,0.125,-35.0,1,0.0,1.153899999999794
549,3,0.8,0.0625,-35.0,1,0.0,2.677400000000034
550,3,0.8,0.25,-35.0,1,0.0,3.6006999999999607
551,3,0.8,0.0,-35.0,1,0.0,2.467399999999998
552,3,0.8,0.0625,-35.0,1,0.0,3.7575999999999112
553,3,0.8,1.0,-35.0,-1,1.0,1.024499999999989
554,3,0.8,0.125,-35.0,1,0.0,4.794300000000021
555,3,0.8,0.0625,-35.0,1,0.0,6.291400000000067
556,3,0.8,1.0,-35.0,1,0.0,2.9714999999996508
557,3,0.8,0.125,-35.0,-1,1.0,7.195600000000013
558,3,0.8,0.125,-35.0,1,0.0,4.4453999999996086
559,3,0.8,0.0625,-35.0,1,0.0,3.7655000000004293
560,3,0.8,0.25,-35.0,1,0.0,0.11920000000009168
561,3,0.8,0.125,-35.0,1,0.0,26.808899999999994
562,3,0.8,1.0,-35.0,-1,1.0,1.409599999999955
563,3,0.8,1.0,-35.0,-1,1.0,0.3196000000002641
564,3,0.8,1.0,-35.0,1,0.0,2.169800000000123
565,3,0.8,1.0,-35.0,-1,1.0,0.3831000000000131
566,3,0.8,1.0,35.0,1,1.0,3.6069000000002234
567,3,0.8,0.0625,35.0,1,1.0,1.6399999999998727
568,3,0.8,0.125,-35.0,1,0.0,2.4899999999997817
569,3,0.8,0.0,-35.0,1,0.0,11.656800000000203
570,3,0.8,0.125,35.0,1,1.0,4.3870999999999185
571,3,0.8,0.125,-35.0,1,0.0,19.817200000000412
572,3,0.8,0.125,35.0,1,1.0,6.701000000000022
573,3,0.8,0.25,-35.0,1,0.0,3.024399999999787
574,3,0.8,0.0625,-35.0,1,0.0,0.6745999999998276
575,3,0.8,0.25,-35.0,-1,1.0,0.3184000000001106
576,3,0.8,0.125,-35.0,1,0.0,1.2649000000001251
577,3,0.8,0.25,-35.0,1,0.0,3.6616000000003623
578,3,0.8,0.125,-35.0,1,0.0,1.005500000000211
579,3,0.8,0.125,35.0,1,1.0,3.8621000000002823
580,3,0.8,1.0,35.0,1,1.0,0.29559999999992215
581,3,0.8,1.0,-35.0,1,0.0,4.638799999999719
582,3,0.8,1.0,-35.0,1,0.0,17.862699999999677
583,3,0.8,0.25,-35.0,1,0.0,23.596200000000408
584,3,0.8,1.0,-35.0,-1,1.0,0.33330000000023574
585,3,0.8,0.125,-35.0,1,0.0,8.320000000000164
586,3,0.8,0.125,-35.0,1,0.0,0.7471000000000458
587,3,0.8,0.0625,-35.0,1,0.0,2.9903999999996813
588,3,0.8,0.0,-35.0,1,0.0,4.284200000000055
589,3,0.8,1.0,-35.0,1,0.0,4.277300000000196
590,3,0.8,0.25,-35.0,-1,1.0,0.7876999999998588
591,3,0.8,0.125,-35.0,1,0.0,5.607699999999568
592,3,0.8,1.0,35.0,1,1.0,0.2276000000001659
593,3,0.8,0.0,-35.0,-1,1.0,0.7714000000000851
594,3,0.8,0.25,35.0,1,1.0,4.554599999999937
595,3,0.8,0.125,-35.0,-1,1.0,2.9079000000001543
596,3,0.8,0.125,-35.0,1,0.0,47.67200000000048
597,3,0.8,0.0,-35.0,1,0.0,39.37890000000016
598,3,0.8,0.125,35.0,1,1.0,2.380000000000109
599,3,0.8,0.125,-35.0,-1,1.0,0.44709999999986394
600,3,0.8,0.125,-35.0,1,0.0,2.6300999999998567
601,3,0.8,0.0625,35.0,1,1.0,4.5835000000001855
602,3,0.8,0.0625,35.0,1,1.0,3.47420000000011
603,3,0.8,0.25,35.0,1,1.0,1.3703999999997905
604,3,0.8,1.0,-35.0,-1,1.0,0.29730000000017753
605,3,0.8,0.25,-35.0,1,0.0,10.250500000000102
606,3,0.8,1.0,-35.0,-1,1.0,0.26080000000001746
607,3,0.8,1.0,-35.0,-1,1.0,0.5507999999999811
608,3,0.8,0.25,35.0,1,1.0,9.384399999999914
609,3,0.8,0.125,35.0,1,1.0,1.0849000000002889
610,3,0.8,0.25,-35.0,1,0.0,1.8314000000000306
611,3,0.8,1.0,-35.0,1,0.0,3.0615999999999985
612,3,0.8,0.0,-35.0,1,0.0,2.8489000000004125
613,3,0.8,0.0625,-35.0,1,0.0,3.7118000000000393
614,3,0.8,0.0625,-35.0,1,0.0,2.8588000000004286
615,3,0.8,1.0,-35.0,1,0.0,18.348799999999756
616,3,0.8,0.25,-35.0,1,0.0,18.10590000000002
617,3,0.8,0.25,-35.0,1,0.0,6.0161999999995714
618,3,0.8,0.25,-35.0,1,0.0,23.28670000000011
619,3,0.8,0.0625,-35.0,1,0.0,8.920399999999972
620,3,0.8,1.0,-35.0,1,0.0,3.823899999999867
621,3,0.8,1.0,-35.0,1,0.0,9.877500000000055
622,3,0.8,0.125,-35.0,1,0.0,13.214600000000246
623,3,0.8,1.0,-35.0,1,0.0,0.4115999999999076
624,3,0.8,0.25,-35.0,1,0.0,0.5246999999999389
625,3,0.8,0.0,35.0,1,1.0,0.40830000000005384
626,3,0.8,0.125,-35.0,1,0.0,1.1282000000001062
627,3,0.8,0.25,35.0,1,1.0,6.315100000000257
628,3,0.8,0.0625,-35.0,1,0.0,0.8552999999997155
629,3,0.2,0.0625,35.0,1,1.0,2.108799999999974
630,3,0.2,0.125,35.0,1,1.0,2.0489000000002306
631,3,0.2,0.25,-35.0,1,0.0,2.375500000000102
632,3,0.2,0.25,35.0,1,1.0,4.42240000000038
633,3,0.2,0.125,35.0,1,1.0,6.106000000000222
634,3,0.2,0.25,35.0,1,1.0,1.1059999999997672
635,3,0.2,0.125,-35.0,1,0.0,5.166200000000117
636,3,0.2,0.25,-35.0,1,0.0,2.063000000000102
637,3,0.2,1.0,35.0,-1,0.0,1.929700000000139
638,3,0.2,0.0625,35.0,-1,0.0,8.68979999999965
639,3,0.2,0.125,35.0,1,1.0,12.250300000000152
640,3,0.2,0.0,35.0,1,1.0,4.090400000000045
641,3,0.2,0.25,35.0,1,1.0,7.623700000000099
642,3,0.2,0.0625,35.0,1,1.0,39.7507999999998
643,3,0.2,0.0,-35.0,1,0.0,10.091800000000148
644,3,0.2,0.25,35.0,-1,0.0,0.41500000000041837
645,3,0.2,0.125,35.0,1,1.0,2.382000000000062
646,3,0.2,0.25,35.0,1,1.0,8.315300000000207
647,3,0.2,0.25,35.0,1,1.0,4.4090000000001055
648,3,0.2,0.0625,-35.0,-1,1.0,0.23929999999973006
649,3,0.2,1.0,35.0,1,1.0,6.922599999999875
650,3,0.2,1.0,35.0,1,1.0,8.259400000000369
651,3,0.2,0.0625,35.0,1,1.0,14.509500000000116
652,3,0.2,0.125,35.0,-1,0.0,6.089799999999741
653,3,0.2,0.25,35.0,0,0.0,59.953500000000076
654,3,0.2,0.125,35.0,-1,0.0,30.90169999999989
655,3,0.2,0.25,35.0,-1,0.0,2.859099999999671
656,3,0.2,0.125,35.0,1,1.0,4.80619999999999
657,3,0.2,0.25,-35.0,-1,1.0,1.882300000000214
1,4,0.5,0.0625,-35.0,-1,1.0,1.8556
2,4,0.5,0.125,35.0,1,1.0,0.9977
3,4,0.5,0.25,-35.0,-1,1.0,0.41529999999999845
4,4,0.5,0.125,35.0,1,1.0,0.34779999999999944
5,4,0.5,0.125,-35.0,-1,1.0,0.32179999999999964
6,4,0.5,1.0,-35.0,-1,1.0,0.23799999999999955
7,4,0.5,0.25,-35.0,-1,1.0,0.22070099999999826
8,4,0.5,0.0625,-35.0,-1,1.0,3.2158999999999978
9,4,0.5,0.125,-35.0,-1,1.0,0.14349999999999596
10,4,0.5,0.0,-35.0,-1,1.0,2.164899999999996
11,4,0.5,0.0,-35.0,-1,1.0,0.6064000000000007
12,4,0.5,0.125,35.0,1,1.0,0.3218999999999923
13,4,0.5,1.0,35.0,1,1.0,0.231899999999996
14,4,0.5,0.25,-35.0,-1,1.0,0.293299999999995
15,4,0.5,0.125,35.0,1,1.0,0.22749999999999915
16,4,0.5,1.0,-35.0,-1,1.0,0.20769999999999555
17,4,0.5,1.0,35.0,1,1.0,0.2972000000000037
18,4,0.5,0.125,-35.0,-1,1.0,0.3136000000000081
19,4,0.5,0.0625,-35.0,-1,1.0,1.264400000000009
20,4,0.5,0.0625,35.0,1,1.0,0.48210000000001685
21,4,0.5,0.125,35.0,1,1.0,0.3534000000000077
22,4,0.5,0.25,-35.0,-1,1.0,0.2412000000000063
23,4,0.5,0.25,35.0,1,1.0,0.3019999999999925
24,4,0.5,1.0,35.0,1,1.0,0.26610000000000866
25,4,0.5,1.0,35.0,1,1.0,1.276600000000002
26,4,0.5,0.0,-35.0,-1,1.0,2.0897999999999968
27,4,0.5,0.0625,-35.0,-1,1.0,0.8854000000000042
28,4,0.5,0.25,-35.0,-1,1.0,0.27840000000000487
29,4,0.5,1.0,35.0,1,1.0,0.20690000000000452
30,4,0.5,0.25,-35.0,-1,1.0,0.26950000000002206
31,4,0.5,0.0,35.0,1,1.0,1.0034000000000134
32,4,0.5,1.0,-35.0,-1,1.0,0.12919999999999732
33,4,0.5,0.125,-35.0,-1,1.0,0.11289999999999623
34,4,0.5,0.125,35.0,1,1.0,0.8698000000000121
35,4,0.5,1.0,35.0,1,1.0,0.32869999999999777
36,4,0.5,1.0,-35.0,-1,1.0,0.1255999999999915
37,4,0.5,0.0,35.0,-1,0.0,1.514999999999958
38,4,0.5,0.125,-35.0,-1,1.0,0.2907000000000153
39,4,0.5,0.125,-35.0,-1,1.0,0.34389999999999077
40,4,0.5,0.25,35.0,1,1.0,0.3879000000000019
41,4,0.5,0.0625,-35.0,-1,1.0,2.1207999999999743
42,4,0.5,0.0,-35.0,-1,1.0,0.37989999999999213
43,4,0.5,0.0,-35.0,1,0.0,0.4620999999999924
44,4,0.5,0.0,-35.0,-1,1.0,0.0053999999999803094
45,4,0.5,0.0625,35.0,1,1.0,0.9769000000000005
46,4,0.5,0.25,-35.0,-1,1.0,0.2598999999999876
47,4,0.5,0.0625,35.0,-1,0.0,0.4032999999999731
48,4,0.5,0.25,-35.0,-1,1.0,0.25210000000001287
49,4,0.5,1.0,-35.0,-1,1.0,0.247099999999989
50,4,0.5,1.0,-35.0,-1,1.0,0.30410000000000537
51,4,0.5,0.0625,35.0,-1,0.0,0.8071999999999946
52,4,0.5,0.0625,35.0,1,1.0,0.8914000000000044
53,4,0.5,0.25,35.0,1,1.0,0.31329999999999814
54,4,0.5,1.0,35.0,1,1.0,0.39749999999997954
55,4,0.5,0.0625,-35.0,-1,1.0,0.26720000000000255
56,4,0.5,0.0625,35.0,1,1.0,1.1604000000000099
57,4,0.5,1.0,-35.0,-1,1.0,0.1484999999999843
58,4,0.5,0.0625,35.0,1,1.0,0.6820999999999913
59,4,0.5,1.0,35.0,-1,0.0,0.11879999999999313
60,4,0.5,0.0,-35.0,-1,1.0,0.11480000000000246
61,4,0.5,0.0625,-35.0,-1,1.0,0.3423999999999978
62,4,0.5,0.25,35.0,-1,0.0,1.1543999999999812
63,4,0.5,0.125,35.0,1,1.0,0.5757999999999868
64,4,0.5,0.0,-35.0,-1,1.0,0.6388999999999783
65,4,0.5,1.0,-35.0,-1,1.0,0.08899999999999864
66,4,0.5,0.0625,-35.0,-1,1.0,0.3018999999999892
67,4,0.5,0.0625,-35.0,-1,1.0,0.09100000000000819
68,4,0.5,1.0,35.0,-1,0.0,0.08559999999999945
69,4,0.5,0.0625,-35.0,-1,1.0,0.3522000000000105
70,4,0.5,0.0625,-35.0,-1,1.0,0.012600000000020373
71,4,0.5,1.0,35.0,-1,0.0,0.0070999999999799
72,4,0.5,0.25,35.0,-1,0.0,0.4825999999999908
73,4,0.5,0.25,-35.0,-1,1.0,0.2636999999999716
74,4,0.5,0.0,35.0,-1,0.0,0.5124999999999886
75,4,0.5,0.125,-35.0,-1,1.0,0.1601999999999748
76,4,0.5,0.0625,-35.0,-1,1.0,0.30819999999999936
77,4,0.5,1.0,35.0,1,1.0,0.3978000000000179
78,4,0.5,0.0625,-35.0,-1,1.0,0.3048999999999751
79,4,0.5,0.25,35.0,-1,0.0,0.09510000000000218
80,4,0.5,0.0,35.0,-1,0.0,0.9893999999999892
81,4,0.5,0.25,-35.0,-1,1.0,0.2288000000000352
82,4,0.5,1.0,-35.0,-1,1.0,0.21839999999997417
83,4,0.5,0.0,35.0,-1,0.0,1.1608999999999696
84,4,0.5,0.25,35.0,1,1.0,0.9777999999999452
85,4,0.5,0.25,-35.0,-1,1.0,0.23939999999998918
86,4,0.5,0.0625,35.0,1,1.0,0.43200000000001637
87,4,0.5,0.0625,35.0,-1,0.0,1.4110000000000014
88,4,0.5,0.125,-35.0,-1,1.0,0.24139999999999873
89,4,0.5,1.0,35.0,-1,0.0,0.10239999999998872
90,4,0.5,0.0625,-35.0,-1,1.0,0.275100000000009
91,4,0.2,0.25,-35.0,-1,1.0,0.2125000000000341
92,4,0.2,0.25,35.0,-1,0.0,0.3579000000000292
93,4,0.2,0.25,35.0,1,1.0,0.4619999999999891
94,4,0.2,1.0,-35.0,-1,1.0,0.24340000000000828
95,4,0.2,0.125,35.0,1,1.0,0.324799999999982
96,4,0.2,0.0625,35.0,-1,0.0,0.18020000000001346
97,4,0.2,1.0,35.0,-1,0.0,0.13579999999996062
98,4,0.2,0.0625,35.0,1,1.0,0.3997999999999706
99,4,0.2,0.25,35.0,-1,0.0,0.08230000000003201
100,4,0.2,1.0,35.0,1,1.0,0.3183999999999969
101,4,0.2,0.0,35.0,-1,0.0,2.247099999999989
102,4,0.2,0.0625,35.0,-1,0.0,0.6265000000000214
103,4,0.2,0.25,35.0,1,1.0,0.45150000000001
104,4,0.2,0.25,35.0,1,1.0,0.5756999999999834
105,4,0.2,0.0625,35.0,1,1.0,1.4435000000000286
106,4,0.2,1.0,35.0,-1,0.0,0.14749999999997954
107,4,0.2,0.0625,35.0,1,1.0,0.5685000000000286
108,4,0.2,0.25,35.0,-1,0.0,0.033599999999978536
109,4,0.2,0.25,35.0,1,1.0,0.47249999999996817
110,4,0.2,0.0,35.0,-1,0.0,4.1317000000000235
111,4,0.2,0.25,35.0,1,1.0,0.45329999999995607
112,4,0.2,0.0,35.0,-1,0.0,5.271199999999965
113,4,0.2,1.0,35.0,1,1.0,0.3677999999999315
114,4,0.2,0.0625,35.0,-1,0.0,0.21589999999997644
115,4,0.2,0.25,35.0,1,1.0,0.48629999999997153
116,4,0.2,0.25,35.0,1,1.0,0.34480000000002065
