trial_num,session_num,stim_probability_left,contrast,position,response_choice,trial_correct,reaction_time
1,1,0.5,1.0,-35.0,-1,1.0,0.2385000000000006
2,1,0.5,0.25,-35.0,1,0.0,0.5162999999999984
3,1,0.5,0.0625,-35.0,1,0.0,0.7426999999999992
4,1,0.5,0.0625,-35.0,-1,1.0,2.6463000000000036
5,1,0.5,0.25,-35.0,-1,1.0,0.5231010000000005
6,1,0.5,1.0,-35.0,-1,1.0,0.18510099999999952
7,1,0.5,1.0,35.0,1,1.0,0.6854020000000034
8,1,0.5,0.0,35.0,1,1.0,2.1095010000000016
9,1,0.5,0.25,-35.0,1,0.0,1.7468009999999978
10,1,0.5,0.25,-35.0,1,0.0,1.5186009999999968
11,1,0.5,0.125,-35.0,1,0.0,2.195701999999997
12,1,0.5,0.125,35.0,1,1.0,0.5156019999999941
13,1,0.5,0.125,35.0,1,1.0,0.4261010000000027
14,1,0.5,0.25,35.0,1,1.0,3.835601000000004
15,1,0.5,0.0,35.0,1,1.0,1.7889009999999956
16,1,0.5,0.125,35.0,-1,0.0,6.851101999999997
17,1,0.5,0.0,-35.0,1,0.0,7.392701000000002
18,1,0.5,1.0,-35.0,-1,1.0,0.23180100000000436
19,1,0.5,0.25,-35.0,-1,1.0,0.41890200000000277
20,1,0.5,1.0,35.0,1,1.0,0.33100099999998633
21,1,0.5,0.25,35.0,1,1.0,0.39710199999998963
22,1,0.5,0.25,-35.0,-1,1.0,0.27760099999999
23,1,0.5,0.0625,-35.0,-1,1.0,0.306800999999993
24,1,0.5,0.125,-35.0,-1,1.0,0.30460100000000523
25,1,0.5,0.125,35.0,1,1.0,9.53660099999999
26,1,0.5,0.25,35.0,1,1.0,1.0987009999999913
27,1,0.5,0.25,35.0,1,1.0,0.39940099999998324
28,1,0.5,1.0,-35.0,-1,1.0,0.24370200000001319
29,1,0.5,0.0,-35.0,-1,1.0,2.1800010000000043
30,1,0.5,0.0625,35.0,-1,0.0,9.252500999999995
31,1,0.5,0.125,-35.0,-1,1.0,1.7610010000000216
32,1,0.5,1.0,35.0,1,1.0,0.3791010000000199
33,1,0.5,0.0,35.0,1,1.0,9.137401000000011
34,1,0.5,0.0625,35.0,1,1.0,8.642202000000026
35,1,0.5,0.25,35.0,1,1.0,0.4320020000000113
36,1,0.5,0.0625,-35.0,1,0.0,13.408001000000013
37,1,0.5,0.25,-35.0,1,0.0,4.664801000000011
38,1,0.5,0.125,-35.0,-1,1.0,0.9663009999999872
39,1,0.5,0.25,35.0,1,1.0,0.4122010000000387
40,1,0.5,0.0,35.0,1,1.0,10.938402000000025
41,1,0.5,0.0625,-35.0,-1,1.0,1.9367010000000278
42,1,0.5,1.0,-35.0,-1,1.0,0.28710100000000693
43,1,0.5,0.0,35.0,1,1.0,8.960802000000001
44,1,0.5,0.125,35.0,1,1.0,6.32320100000004
45,1,0.5,0.25,-35.0,-1,1.0,6.714801000000023
46,1,0.5,0.25,-35.0,-1,1.0,6.369201000000032
47,1,0.5,0.25,-35.0,-1,1.0,4.955401000000052
48,1,0.5,0.125,-35.0,-1,1.0,5.972702000000027
49,1,0.5,0.0625,-35.0,-1,1.0,9.794900999999982
50,1,0.5,0.0,-35.0,-1,1.0,11.923100999999974
51,1,0.5,0.0625,-35.0,-1,1.0,5.275301000000013
52,1,0.5,1.0,35.0,-1,0.0,11.568202000000042
53,1,0.5,0.0625,-35.0,-1,1.0,8.474301000000025
54,1,0.5,0.25,-35.0,-1,1.0,5.647000999999989
55,1,0.5,0.25,35.0,-1,0.0,10.16630200000003
56,1,0.5,0.125,35.0,-1,0.0,9.365500999999995
57,1,0.5,1.0,35.0,-1,0.0,3.9039020000000164
58,1,0.5,0.25,-35.0,-1,1.0,5.630301000000031
59,1,0.5,0.25,-35.0,-1,1.0,7.249801000000048
60,1,0.5,0.0625,35.0,-1,0.0,8.964901999999995
61,1,0.5,1.0,-35.0,-1,1.0,0.4224010000000362
62,1,0.5,0.125,-35.0,-1,1.0,9.549802
63,1,0.5,0.25,-35.0,-1,1.0,15.972501000000022
64,1,0.5,0.0625,-35.0,-1,1.0,3.0941009999999665
65,1,0.5,0.0,35.0,-1,0.0,11.737901000000022
66,1,0.5,1.0,-35.0,-1,1.0,2.3086020000000644
67,1,0.5,0.125,35.0,1,1.0,31.90520200000003
68,1,0.5,0.25,35.0,1,1.0,14.852301999999895
69,1,0.5,0.25,-35.0,-1,1.0,10.382302000000095
70,1,0.5,0.0625,35.0,-1,0.0,3.807501000000002
71,1,0.5,0.25,35.0,-1,0.0,0.52470100000005
72,1,0.5,0.125,35.0,-1,0.0,4.068302000000017
73,1,0.5,0.125,35.0,1,1.0,0.981000999999992
74,1,0.5,0.0625,-35.0,-1,1.0,2.0665010000000166
75,1,0.5,0.125,35.0,1,1.0,0.3180019999999786
76,1,0.5,0.25,35.0,1,1.0,0.6945009999999456
77,1,0.5,0.0,35.0,1,1.0,7.838400999999976
78,1,0.5,1.0,-35.0,-1,1.0,0.26030100000002676
79,1,0.5,0.25,35.0,1,1.0,0.2978010000000495
80,1,0.5,1.0,35.0,1,1.0,2.366600999999946
81,1,0.5,0.25,35.0,1,1.0,0.4012010000000146
82,1,0.5,1.0,-35.0,-1,1.0,0.32200200000011137
83,1,0.5,0.0625,35.0,1,1.0,0.7513020000000097
84,1,0.5,0.25,35.0,1,1.0,0.5070009999999456
85,1,0.5,1.0,35.0,1,1.0,0.3762010000000373
86,1,0.5,0.25,35.0,1,1.0,5.014902000000006
87,1,0.5,1.0,-35.0,-1,1.0,0.3672009999999091
88,1,0.5,0.125,35.0,1,1.0,0.46580200000005334
89,1,0.5,0.0625,-35.0,1,0.0,2.1272010000000137
90,1,0.5,0.0,35.0,1,1.0,1.860200999999961
91,1,0.2,0.0,35.0,1,1.0,11.558301999999912
92,1,0.2,0.0,35.0,1,1.0,4.617702000000008
93,1,0.2,1.0,35.0,1,1.0,0.3903010000000222
94,1,0.2,0.0625,35.0,1,1.0,1.6049010000000408
95,1,0.2,0.125,35.0,1,1.0,2.2463010000001304
96,1,0.2,1.0,35.0,1,1.0,0.4655010000000175
97,1,0.2,0.125,35.0,1,1.0,0.5258009999998876
98,1,0.2,1.0,35.0,1,1.0,0.6936009999999442
99,1,0.2,1.0,35.0,1,1.0,0.38530100000002676
100,1,0.2,1.0,-35.0,-1,1.0,0.6777009999999564
101,1,0.2,0.0625,35.0,1,1.0,6.870302000000038
102,1,0.2,0.0625,35.0,1,1.0,1.743900999999937
103,1,0.2,0.0625,35.0,1,1.0,2.386400999999978
104,1,0.2,0.0625,35.0,1,1.0,3.5580020000001014
105,1,0.2,0.0,35.0,1,1.0,0.655501000000072
106,1,0.2,0.0,35.0,1,1.0,3.312601000000086
107,1,0.2,0.0,35.0,1,1.0,7.707200999999941
108,1,0.2,0.0625,35.0,1,1.0,0.865002000000004
109,1,0.2,0.25,35.0,1,1.0,0.28860100000008515
110,1,0.2,1.0,35.0,1,1.0,0.7522020000000111
111,1,0.2,0.25,-35.0,-1,1.0,0.43560199999990346
112,1,0.2,0.0,35.0,1,1.0,7.29660100000001
113,1,0.2,0.25,35.0,1,1.0,3.674801000000002
114,1,0.2,0.0625,35.0,1,1.0,0.830801000000065
115,1,0.2,0.25,35.0,1,1.0,0.35720200000002933
116,1,0.2,0.125,-35.0,1,0.0,3.5152010000000473
117,1,0.2,0.125,-35.0,-1,1.0,0.23760200000003806
118,1,0.2,0.125,35.0,1,1.0,0.33720099999993636
119,1,0.2,0.0,35.0,1,1.0,0.44980099999997947
120,1,0.2,0.25,35.0,1,1.0,0.42210099999999784
121,1,0.2,0.25,35.0,1,1.0,0.37050200000010136
122,1,0.2,0.0625,35.0,1,1.0,0.5310010000000602
123,1,0.8,0.0,-35.0,1,0.0,2.2445020000000113
124,1,0.8,1.0,-35.0,-1,1.0,1.3393009999999776
125,1,0.8,1.0,-35.0,-1,1.0,0.25890100000003713
126,1,0.8,0.0,-35.0,1,0.0,0.40000099999997474
127,1,0.8,0.125,-35.0,-1,1.0,0.32140099999992344
128,1,0.8,0.125,-35.0,1,0.0,19.590500999999904
129,1,0.8,0.0625,-35.0,-1,1.0,0.8060010000000375
130,1,0.8,0.0625,-35.0,1,0.0,9.165701000000013
131,1,0.8,0.125,35.0,-1,0.0,4.748102000000017
132,1,0.8,1.0,-35.0,-1,1.0,0.4254009999999653
133,1,0.8,1.0,-35.0,-1,1.0,7.659400999999889
134,1,0.8,0.25,-35.0,-1,1.0,3.585202000000095
135,1,0.8,1.0,-35.0,-1,1.0,0.7523009999999886
136,1,0.8,0.0,-35.0,1,0.0,22.77870100000007
137,1,0.8,0.25,-35.0,-1,1.0,0.21520200000009027
138,1,0.8,0.0625,-35.0,-1,1.0,10.454001000000062
139,1,0.8,0.0,-35.0,1,0.0,0.41150200000004133
140,1,0.8,0.25,-35.0,-1,1.0,0.32300099999997656
141,1,0.8,1.0,-35.0,-1,1.0,0.2614020000000892
142,1,0.8,0.25,35.0,1,1.0,0.37300100000004477
143,1,0.8,0.0625,-35.0,-1,1.0,0.2272010000000364
144,1,0.8,1.0,-35.0,-1,1.0,0.2700009999999793
145,1,0.8,1.0,-35.0,-1,1.0,0.2545020000001159
146,1,0.8,0.125,-35.0,-1,1.0,0.3365009999998847
147,1,0.8,0.0625,-35.0,-1,1.0,0.2714010000001963
148,1,0.8,0.25,-35.0,-1,1.0,5.480102000000215
149,1,0.8,0.25,-35.0,-1,1.0,0.4085009999998874
150,1,0.8,0.25,35.0,1,1.0,8.560201000000234
151,1,0.8,0.0,-35.0,1,0.0,4.7115020000001095
152,1,0.8,1.0,-35.0,-1,1.0,0.30080199999974866
153,1,0.8,0.0625,-35.0,1,0.0,17.511302000000114
154,1,0.8,0.125,-35.0,-1,1.0,0.2648010000002614
155,1,0.8,0.0,-35.0,1,0.0,15.105100999999877
156,1,0.8,1.0,-35.0,-1,1.0,0.27880099999993035
157,1,0.8,0.0625,-35.0,1,0.0,3.659701000000041
158,1,0.8,0.25,-35.0,-1,1.0,0.27880100000015773
159,1,0.8,0.0,-35.0,1,0.0,5.612501000000066
160,1,0.2,0.25,35.0,1,1.0,0.43570199999999204
161,1,0.2,1.0,35.0,1,1.0,5.819702000000007
162,1,0.2,0.125,35.0,1,1.0,0.48620099999993727
163,1,0.2,1.0,35.0,1,1.0,0.7101009999998951
164,1,0.2,0.0625,35.0,1,1.0,8.226301000000149
165,1,0.2,0.0,35.0,1,1.0,0.3236019999999371
166,1,0.2,0.0625,35.0,1,1.0,1.9265009999999165
167,1,0.2,0.0,35.0,1,1.0,2.4311009999998987
168,1,0.2,1.0,35.0,1,1.0,0.4205019999999422
169,1,0.2,0.125,35.0,1,1.0,2.834001000000171
170,1,0.2,0.25,-35.0,-1,1.0,11.61430200000018
171,1,0.2,0.0,35.0,1,1.0,0.4880009999999402
172,1,0.2,0.125,35.0,1,1.0,0.49430099999995036
173,1,0.2,0.125,35.0,1,1.0,2.3951019999999517
174,1,0.2,0.0,35.0,1,1.0,0.36100199999987126
175,1,0.2,0.0,-35.0,1,0.0,2.975100999999995
176,1,0.2,0.0,35.0,-1,0.0,7.491200999999819
177,1,0.2,0.0,35.0,1,1.0,12.646200999999792
178,1,0.2,0.25,35.0,1,1.0,2.385302000000138
179,1,0.2,1.0,35.0,1,1.0,0.8558009999999285
180,1,0.2,0.0,35.0,-1,0.0,3.6521009999999023
181,1,0.2,0.25,35.0,1,1.0,4.753801000000294
182,1,0.2,0.0625,35.0,1,1.0,9.925901999999951
183,1,0.2,0.25,35.0,1,1.0,0.5169009999999616
184,1,0.2,0.25,35.0,1,1.0,0.8296010000001388
185,1,0.2,0.0,35.0,1,1.0,9.493500999999924
186,1,0.2,0.0,35.0,1,1.0,6.3600010000002385
187,1,0.2,0.0625,-35.0,-1,1.0,0.524400999999898
188,1,0.2,0.125,35.0,1,1.0,0.8138020000001234
189,1,0.2,0.0,35.0,1,1.0,5.020402000000104
190,1,0.2,0.0625,35.0,1,1.0,0.5274019999999382
191,1,0.2,0.125,35.0,1,1.0,0.6356009999999515
192,1,0.2,0.25,35.0,1,1.0,0.714001000000053
193,1,0.2,0.0,35.0,1,1.0,1.8848019999998087
194,1,0.2,1.0,35.0,1,1.0,0.6910009999999147
195,1,0.2,0.125,35.0,1,1.0,4.1849019999999655
196,1,0.2,1.0,35.0,1,1.0,0.6278019999999742
197,1,0.2,0.0,35.0,1,1.0,4.958602000000155
198,1,0.2,0.0,35.0,1,1.0,4.798302000000149
199,1,0.2,0.25,35.0,1,1.0,1.2191009999999096
200,1,0.2,0.125,35.0,1,1.0,0.45170199999984106
201,1,0.2,0.0,-35.0,1,0.0,0.4858010000000377
202,1,0.2,0.0625,-35.0,1,0.0,0.5586020000000644
203,1,0.2,0.0,35.0,1,1.0,1.5428019999999378
204,1,0.2,1.0,35.0,1,1.0,0.6554009999999835
205,1,0.2,0.125,35.0,1,1.0,0.8065010000000257
206,1,0.2,1.0,35.0,1,1.0,1.725501000000122
207,1,0.2,0.0625,-35.0,-1,1.0,0.3028009999998176
208,1,0.2,0.25,-35.0,-1,1.0,0.2923009999999522
209,1,0.2,0.125,35.0,1,1.0,0.520001000000093
210,1,0.2,0.0625,-35.0,1,0.0,17.26920199999995
211,1,0.2,0.0,35.0,1,1.0,0.4569010000002436
212,1,0.2,0.0625,35.0,1,1.0,0.509902000000011
213,1,0.2,0.25,35.0,1,1.0,0.583800999999994
214,1,0.8,0.25,-35.0,-1,1.0,0.5867020000000593
215,1,0.8,0.0,-35.0,1,0.0,6.877001000000064
216,1,0.8,0.25,-35.0,-1,1.0,0.27030100000024504
217,1,0.8,0.0625,35.0,1,1.0,5.211101999999983
218,1,0.8,0.25,35.0,1,1.0,0.497101000000157
219,1,0.8,0.25,-35.0,-1,1.0,0.3080010000001039
220,1,0.8,0.0625,-35.0,1,0.0,6.0240020000001095
221,1,0.8,0.125,-35.0,1,0.0,3.1091010000000097
222,1,0.8,0.25,-35.0,-1,1.0,0.26770200000009936
223,1,0.8,0.0,-35.0,1,0.0,5.454800999999861
224,1,0.8,0.125,-35.0,-1,1.0,0.2781009999998787
225,1,0.8,0.0625,-35.0,-1,1.0,3.3862020000001394
226,1,0.8,0.0,35.0,-1,0.0,0.37490100000013626
227,1,0.8,1.0,-35.0,-1,1.0,0.2689020000000255
228,1,0.8,0.125,-35.0,-1,1.0,0.5317010000001119
229,1,0.8,0.0625,-35.0,-1,1.0,0.533301000000165
230,1,0.8,0.125,35.0,1,1.0,0.42190099999993436
231,1,0.8,0.125,-35.0,-1,1.0,4.073200999999926
232,1,0.8,0.125,-35.0,-1,1.0,0.35890100000028724
233,1,0.8,0.0625,35.0,1,1.0,0.8002010000002429
234,1,0.8,1.0,-35.0,-1,1.0,0.289201999999932
235,1,0.8,0.0,-35.0,1,0.0,3.9795010000000275
236,1,0.8,0.0,-35.0,1,0.0,2.4593009999998685
237,1,0.8,0.125,-35.0,-1,1.0,0.39380099999993945
238,1,0.8,0.0625,-35.0,-1,1.0,0.7861020000000281
239,1,0.8,0.0,-35.0,-1,1.0,6.463400999999976
240,1,0.8,0.0625,-35.0,1,0.0,4.759901000000127
241,1,0.8,1.0,-35.0,-1,1.0,0.22720099999992271
242,1,0.8,0.0,35.0,-1,0.0,1.5032020000001012
243,1,0.8,0.0,35.0,1,1.0,0.3344009999998434
244,1,0.8,1.0,35.0,1,1.0,0.577000999999882
245,1,0.8,1.0,35.0,-1,0.0,0.3447009999999864
246,1,0.8,0.0625,35.0,-1,0.0,0.28030199999989236
247,1,0.8,0.0,-35.0,-1,1.0,2.564801000000216
248,1,0.8,0.0625,-35.0,-1,1.0,6.190802000000076
249,1,0.8,0.25,-35.0,-1,1.0,0.25810100000012426
250,1,0.8,1.0,-35.0,-1,1.0,0.33090199999992365
251,1,0.8,0.0,35.0,1,1.0,7.431400999999823
252,1,0.8,0.0625,-35.0,1,0.0,7.394701000000168
253,1,0.8,1.0,-35.0,-1,1.0,0.3720020000000659
254,1,0.8,0.125,-35.0,-1,1.0,0.3582010000000082
255,1,0.8,1.0,-35.0,-1,1.0,0.24860100000000784
256,1,0.8,0.0,-35.0,1,0.0,10.98850100000027
257,1,0.2,0.125,35.0,1,1.0,0.3857010000001537
258,1,0.2,0.125,35.0,1,1.0,0.36580099999991944
259,1,0.2,0.0625,35.0,1,1.0,0.4766010000000733
260,1,0.2,0.125,35.0,1,1.0,2.5023009999999886
261,1,0.2,0.0625,35.0,1,1.0,1.1728009999999358
262,1,0.2,0.0625,35.0,1,1.0,2.802702000000181
263,1,0.2,0.0625,35.0,-1,0.0,0.3078020000000379
264,1,0.2,0.0625,35.0,1,1.0,0.552801000000045
265,1,0.2,0.0,-35.0,1,0.0,0.476900999999998
266,1,0.2,0.25,-35.0,-1,1.0,0.2796020000000681
267,1,0.2,0.25,35.0,1,1.0,1.074000999999953
268,1,0.2,0.25,35.0,1,1.0,6.320001999999931
269,1,0.2,0.125,-35.0,-1,1.0,4.287200999999868
270,1,0.2,0.25,-35.0,1,0.0,6.287101000000121
271,1,0.2,0.25,35.0,1,1.0,0.8779020000001765
272,1,0.2,0.125,35.0,1,1.0,2.687400999999909
273,1,0.2,0.125,-35.0,-1,1.0,12.164701999999807
274,1,0.2,0.125,35.0,1,1.0,0.39460200000007717
275,1,0.2,0.0625,35.0,1,1.0,4.023001000000022
276,1,0.2,1.0,35.0,1,1.0,0.5949010000001635
277,1,0.2,0.25,35.0,1,1.0,0.40620100000001
278,1,0.2,1.0,35.0,1,1.0,0.5516020000000026
279,1,0.2,0.0,35.0,-1,0.0,3.2953010000001086
280,1,0.2,0.125,35.0,-1,0.0,4.858600999999908
281,1,0.2,0.125,35.0,1,1.0,0.396701000000121
282,1,0.2,0.0625,35.0,1,1.0,2.0922019999998156
283,1,0.2,1.0,35.0,1,1.0,0.36930099999995036
284,1,0.2,0.125,35.0,1,1.0,3.942600999999968
285,1,0.8,0.25,-35.0,-1,1.0,0.37340100000005805
286,1,0.8,0.125,-35.0,-1,1.0,0.49920200000019577
287,1,0.8,0.125,-35.0,-1,1.0,0.3442009999998845
288,1,0.8,0.125,-35.0,-1,1.0,0.3161009999998896
289,1,0.8,0.0,-35.0,-1,1.0,2.4434009999999944
290,1,0.8,0.125,-35.0,-1,1.0,0.30320099999994454
291,1,0.8,0.0625,-35.0,-1,1.0,0.23840100000006714
292,1,0.8,0.25,35.0,1,1.0,0.7230019999999513
293,1,0.8,0.0625,-35.0,-1,1.0,0.32710100000008424
294,1,0.8,0.0625,-35.0,-1,1.0,0.2670020000000477
295,1,0.8,0.25,35.0,1,1.0,0.33840200000008736
296,1,0.8,0.0,-35.0,1,0.0,0.5002009999998336
297,1,0.8,1.0,35.0,1,1.0,0.41240099999981794
298,1,0.8,0.0625,-35.0,-1,1.0,0.2938019999999142
299,1,0.8,1.0,-35.0,-1,1.0,0.18450099999995473
300,1,0.8,0.125,-35.0,-1,1.0,0.4574010000001181
301,1,0.8,0.0625,-35.0,-1,1.0,0.45160100000020975
302,1,0.8,0.0,-35.0,1,0.0,0.21750199999996767
303,1,0.8,0.0625,-35.0,-1,1.0,0.26150200000006407
304,1,0.8,0.0625,-35.0,-1,1.0,0.4743020000000797
305,1,0.8,0.25,35.0,1,1.0,0.40560099999993326
306,1,0.8,0.125,-35.0,-1,1.0,0.1845020000000659
307,1,0.8,0.125,-35.0,-1,1.0,0.29500099999995655
308,1,0.8,1.0,-35.0,1,0.0,0.2047010000001137
309,1,0.8,1.0,-35.0,-1,1.0,0.4286010000000715
310,1,0.8,0.25,35.0,1,1.0,0.4616009999999733
311,1,0.8,0.25,35.0,1,1.0,0.5587010000001555
312,1,0.8,0.0625,-35.0,-1,1.0,0.2582020000002103
313,1,0.8,0.25,-35.0,-1,1.0,0.2660009999999602
314,1,0.8,0.125,-35.0,-1,1.0,0.3186009999999442
315,1,0.8,0.25,35.0,1,1.0,0.36920100000020284
316,1,0.8,0.0625,35.0,1,1.0,0.3953009999997903
317,1,0.8,0.0,35.0,-1,0.0,0.34940199999982724
318,1,0.8,0.0625,35.0,1,1.0,0.40560099999993326
319,1,0.8,0.0,-35.0,-1,1.0,0.31290100000001075
320,1,0.8,0.0625,-35.0,-1,1.0,0.3790010000000166
321,1,0.8,1.0,-35.0,-1,1.0,0.31290199999989454
322,1,0.8,0.125,-35.0,-1,1.0,0.3195020000000568
323,1,0.8,1.0,-35.0,-1,1.0,0.2537010000000919
324,1,0.8,0.0,-35.0,1,0.0,0.356300999999803
325,1,0.8,0.0625,35.0,-1,0.0,0.28700099999991835
326,1,0.8,0.25,35.0,1,1.0,0.3829009999999471
327,1,0.8,0.0,-35.0,1,0.0,0.7841009999999642
328,1,0.2,0.25,35.0,1,1.0,0.6432010000000901
329,1,0.2,0.125,35.0,1,1.0,0.3474020000001019
330,1,0.2,1.0,35.0,1,1.0,0.3134010000001126
331,1,0.2,1.0,35.0,1,1.0,0.2848009999997885
332,1,0.2,0.125,-35.0,-1,1.0,0.3234019999999873
333,1,0.2,0.0625,-35.0,-1,1.0,0.334201000000121
334,1,0.2,1.0,35.0,1,1.0,0.34710100000006605
335,1,0.2,0.25,35.0,1,1.0,2.064000999999962
336,1,0.2,0.125,35.0,1,1.0,0.4072009999999864
337,1,0.2,0.0,35.0,1,1.0,6.904601999999613
338,1,0.2,0.25,35.0,1,1.0,0.36080200000014884
339,1,0.2,0.125,35.0,1,1.0,0.47850200000038967
340,1,0.2,0.0625,35.0,1,1.0,0.6410020000002987
341,1,0.2,0.125,35.0,1,1.0,0.4316009999997732
342,1,0.2,0.125,35.0,1,1.0,0.38440099999979793
343,1,0.2,0.25,35.0,1,1.0,0.3125019999997676
344,1,0.2,0.0,35.0,1,1.0,0.6079019999997399
345,1,0.2,0.0,-35.0,1,0.0,0.2630010000002585
346,1,0.2,0.0625,35.0,1,1.0,0.551600999999664
347,1,0.2,0.25,35.0,1,1.0,0.3730009999999311
348,1,0.2,1.0,35.0,1,1.0,1.62820099999999
349,1,0.2,0.0,35.0,1,1.0,11.882301999999981
350,1,0.2,0.0625,35.0,1,1.0,0.5489010000001144
351,1,0.2,0.25,35.0,1,1.0,2.6531009999998787
352,1,0.2,0.125,35.0,1,1.0,3.142301000000316
353,1,0.2,0.0,35.0,1,1.0,3.166302000000087
354,1,0.2,0.0,35.0,1,1.0,2.5898019999999633
355,1,0.2,0.125,-35.0,-1,1.0,0.7832020000000739
356,1,0.2,0.0625,35.0,1,1.0,2.852900999999747
357,1,0.2,1.0,35.0,1,1.0,1.6172010000000228
358,1,0.2,0.25,35.0,1,1.0,0.48980200000005425
359,1,0.2,0.0,35.0,1,1.0,3.1138009999999667
360,1,0.2,0.0625,35.0,1,1.0,2.7899020000004384
361,1,0.2,0.0,-35.0,1,0.0,0.5439010000000053
362,1,0.2,1.0,35.0,1,1.0,0.4035009999997783
363,1,0.2,1.0,35.0,1,1.0,0.6614009999998416
364,1,0.2,0.0625,35.0,1,1.0,2.76370100000031
365,1,0.2,1.0,-35.0,-1,1.0,0.3176010000001952
366,1,0.2,0.0625,-35.0,-1,1.0,0.3139009999999871
367,1,0.2,0.25,35.0,1,1.0,0.5914020000000164
368,1,0.2,1.0,-35.0,-1,1.0,0.25070099999993545
369,1,0.2,0.125,35.0,-1,0.0,3.815200999999888
370,1,0.2,0.0,35.0,-1,0.0,6.771001000000069
371,1,0.2,0.25,35.0,1,1.0,2.7255009999998947
372,1,0.2,0.0,35.0,-1,0.0,0.6715010000002621
373,1,0.2,0.125,35.0,1,1.0,4.50930100000005
374,1,0.2,0.25,35.0,1,1.0,1.3416010000000824
375,1,0.2,0.25,35.0,1,1.0,1.029001999999764
376,1,0.2,1.0,35.0,1,1.0,0.4351010000000315
377,1,0.2,0.0625,35.0,1,1.0,0.462601000000177
378,1,0.2,0.0,35.0,1,1.0,4.952001000000109
379,1,0.2,1.0,35.0,1,1.0,0.3797020000001794
380,1,0.2,0.125,-35.0,-1,1.0,0.9356009999996786
381,1,0.2,0.0,35.0,1,1.0,2.6437009999999646
382,1,0.2,0.125,35.0,1,1.0,0.47580100000004677
383,1,0.2,0.0625,35.0,1,1.0,0.7067019999999502
384,1,0.2,0.25,35.0,1,1.0,0.3495020000000295
385,1,0.2,1.0,35.0,1,1.0,0.5467010000002119
386,1,0.2,0.25,35.0,1,1.0,2.2330019999994875
387,1,0.2,0.25,35.0,1,1.0,0.39680200000020704
388,1,0.2,1.0,-35.0,-1,1.0,0.24640099999987797
389,1,0.2,0.25,35.0,1,1.0,0.561001000000033
390,1,0.2,0.125,35.0,1,1.0,0.49990200000002005
391,1,0.2,0.125,35.0,1,1.0,0.2914019999998345
392,1,0.2,1.0,35.0,1,1.0,0.6468009999998685
393,1,0.2,0.25,35.0,1,1.0,0.33080100000006496
394,1,0.2,0.0,35.0,1,1.0,2.226900999999998
395,1,0.2,0.0,35.0,1,1.0,0.39490200000000186
396,1,0.2,0.125,35.0,1,1.0,0.3206009999998969
397,1,0.2,1.0,35.0,1,1.0,0.2878009999999449
398,1,0.2,0.0625,35.0,1,1.0,3.300901999999951
399,1,0.2,0.0,-35.0,1,0.0,0.3924010000000635
400,1,0.2,0.125,35.0,1,1.0,0.5742009999999027
401,1,0.2,0.125,35.0,1,1.0,0.6159010000001217
402,1,0.2,0.25,35.0,1,1.0,0.3710020000003169
403,1,0.2,1.0,35.0,1,1.0,0.28300099999978556
404,1,0.2,0.0625,35.0,1,1.0,0.374800999999934
405,1,0.2,0.0625,35.0,1,1.0,0.47600099999999657
406,1,0.2,0.0,35.0,1,1.0,0.39150100000006205
407,1,0.2,0.0,35.0,1,1.0,2.386000999999851
408,1,0.2,0.0,35.0,1,1.0,0.4019020000000637
409,1,0.8,0.25,-35.0,-1,1.0,0.17910099999971862
410,1,0.8,1.0,-35.0,-1,1.0,0.2585009999997965
411,1,0.8,0.125,-35.0,-1,1.0,0.24620100000038292
412,1,0.8,0.25,-35.0,-1,1.0,0.2888009999996939
413,1,0.8,1.0,-35.0,-1,1.0,0.22320199999967372
414,1,0.8,0.0625,-35.0,-1,1.0,0.5455019999999422
415,1,0.8,1.0,-35.0,-1,1.0,0.3363009999998212
416,1,0.8,0.125,-35.0,-1,1.0,0.289201999999932
417,1,0.8,0.125,35.0,1,1.0,2.190001000000393
418,1,0.8,0.25,-35.0,1,0.0,0.459201000000121
419,1,0.8,1.0,-35.0,-1,1.0,0.4772020000000339
420,1,0.8,1.0,35.0,1,1.0,0.6460009999996146
421,1,0.8,0.125,-35.0,-1,1.0,1.0672020000001794
422,1,0.8,1.0,-35.0,-1,1.0,0.25970099999995
423,1,0.8,0.0625,-35.0,1,0.0,0.5367020000003322
424,1,0.8,0.0,-35.0,-1,1.0,0.3198010000000977
425,1,0.8,0.125,-35.0,-1,1.0,0.3206009999998969
426,1,0.8,0.125,-35.0,-1,1.0,0.480000999999902
427,1,0.8,0.25,-35.0,-1,1.0,0.26060199999983524
428,1,0.8,1.0,-35.0,-1,1.0,0.28690099999994345
429,1,0.8,0.125,-35.0,1,0.0,1.9174010000001545
430,1,0.8,0.0625,-35.0,1,0.0,0.5603020000003198
431,1,0.8,0.125,-35.0,-1,1.0,0.37120099999992817
432,1,0.8,0.0625,-35.0,-1,1.0,0.6906009999997877
433,1,0.8,0.125,-35.0,-1,1.0,2.9984009999998307
434,1,0.8,1.0,-35.0,-1,1.0,0.260700999999699
435,1,0.8,0.125,35.0,1,1.0,1.0983009999999922
436,1,0.8,0.125,-35.0,-1,1.0,0.3044020000002092
437,1,0.8,1.0,-35.0,-1,1.0,0.36640099999976883
438,1,0.8,0.0625,-35.0,-1,1.0,4.021201000000019
439,1,0.8,0.125,-35.0,-1,1.0,0.30870099999992817
440,1,0.8,0.0,-35.0,1,0.0,1.4948009999998249
441,1,0.8,0.0,-35.0,-1,1.0,2.4550020000001496
442,1,0.8,0.125,-35.0,1,0.0,6.385201000000507
443,1,0.8,0.0,-35.0,1,0.0,7.919501000000309
444,1,0.8,0.25,-35.0,-1,1.0,0.31210099999952945
445,1,0.8,0.0625,35.0,1,1.0,9.136101000000053
446,1,0.8,0.0,35.0,1,1.0,0.6225009999998292
447,1,0.8,0.0625,-35.0,1,0.0,0.7575019999999313
448,1,0.8,0.125,35.0,1,1.0,11.369302000000062
449,1,0.8,1.0,35.0,1,1.0,4.580601999999999
450,1,0.8,0.125,-35.0,-1,1.0,3.4400009999999384
451,1,0.8,0.125,35.0,1,1.0,4.587500999999975
452,1,0.8,1.0,-35.0,-1,1.0,0.2737019999999575
453,1,0.8,1.0,-35.0,-1,1.0,0.22090099999968515
454,1,0.8,0.0,-35.0,1,0.0,21.72720200000049
455,1,0.8,0.0625,35.0,1,1.0,1.7182009999996808
456,1,0.8,0.125,-35.0,-1,1.0,0.481300999999803
457,1,0.8,0.25,-35.0,-1,1.0,0.35890100000005987
458,1,0.8,0.0625,35.0,1,1.0,0.49490200000036566
459,1,0.8,0.25,-35.0,-1,1.0,0.44900200000029145
460,1,0.8,0.0625,-35.0,-1,1.0,0.39850099999966915
461,1,0.8,0.0625,-35.0,-1,1.0,0.4529019999999946
462,1,0.8,0.25,35.0,1,1.0,3.288601000000199
463,1,0.8,0.25,-35.0,-1,1.0,0.42300099999965823
464,1,0.8,0.0,35.0,1,1.0,7.2189009999997324
465,1,0.8,0.125,-35.0,-1,1.0,0.37600099999963277
466,1,0.8,0.0625,-35.0,1,0.0,6.256001000000197
467,1,0.8,0.0,-35.0,1,0.0,0.5567009999999755
468,1,0.8,0.0625,-35.0,-1,1.0,0.3160010000001421
469,1,0.2,0.0,-35.0,-1,1.0,0.4935019999998076
470,1,0.2,0.125,35.0,1,1.0,4.023002000000361
471,1,0.2,1.0,35.0,1,1.0,1.5937010000002374
472,1,0.2,0.0,35.0,1,1.0,0.4666010000000824
473,1,0.2,0.0625,35.0,1,1.0,0.51390100000026
474,1,0.2,0.0,35.0,-1,0.0,42.02340099999992
475,1,0.2,0.25,-35.0,-1,1.0,0.5583010000004833
476,1,0.2,0.0,35.0,1,1.0,6.514702000000398
477,1,0.2,1.0,35.0,1,1.0,5.609002000000146
478,1,0.2,0.0,35.0,1,1.0,0.7483010000000831
479,1,0.2,0.125,35.0,1,1.0,2.189502000000175
480,1,0.2,0.25,-35.0,-1,1.0,0.5086009999999987
481,1,0.2,0.125,35.0,1,1.0,0.7394009999998161
482,1,0.2,0.125,35.0,1,1.0,0.3619020000001001
483,1,0.2,0.25,35.0,1,1.0,0.41660200000023906
484,1,0.2,0.125,35.0,1,1.0,0.44250099999999293
485,1,0.2,0.0,-35.0,1,0.0,1.019600999999966
486,1,0.2,0.25,35.0,1,1.0,0.6625009999997928
487,1,0.2,0.0,35.0,1,1.0,3.096600999999737
488,1,0.2,1.0,-35.0,-1,1.0,0.35260199999993347
489,1,0.2,1.0,35.0,1,1.0,0.6531019999997625
490,1,0.2,0.0,35.0,1,1.0,22.722901000000093
491,1,0.2,1.0,35.0,1,1.0,16.83080199999995
492,1,0.2,0.0,35.0,-1,0.0,12.003801000000294
493,1,0.2,0.25,-35.0,-1,1.0,0.32870199999979377
494,1,0.2,0.0,35.0,1,1.0,14.537701000000197
495,1,0.2,1.0,35.0,1,1.0,0.4819009999996524
496,1,0.2,0.0625,35.0,1,1.0,0.4182020000002922
497,1,0.2,0.125,35.0,1,1.0,0.852900999999747
498,1,0.2,0.0625,-35.0,-1,1.0,0.348500999999942
499,1,0.2,0.0,-35.0,1,0.0,4.2059009999998125
500,1,0.2,0.125,35.0,1,1.0,0.601900999999998
501,1,0.2,0.0625,-35.0,1,0.0,0.4829010000003109
502,1,0.2,0.125,35.0,1,1.0,0.30880100000013044
503,1,0.8,0.125,35.0,-1,0.0,0.27690199999960896
504,1,0.8,0.0,-35.0,-1,1.0,0.2790020000002187
505,1,0.8,1.0,-35.0,-1,1.0,0.27010100000006787
506,1,0.8,0.0,-35.0,-1,1.0,0.26240099999995437
507,1,0.8,1.0,-35.0,-1,1.0,0.3401019999996606
508,1,0.8,0.0625,-35.0,-1,1.0,0.352900999999747
509,1,0.8,1.0,-35.0,-1,1.0,0.31340100000034
510,1,0.8,0.25,-35.0,-1,1.0,0.3730009999999311
511,1,0.8,0.125,35.0,1,1.0,0.6411009999997077
512,1,0.8,0.0,-35.0,1,0.0,1.9163009999997485
513,1,0.8,0.0625,-35.0,-1,1.0,3.7404020000003584
514,1,0.8,0.0,-35.0,-1,1.0,6.663301000000047
515,1,0.8,1.0,-35.0,-1,1.0,0.2779009999999289
516,1,0.8,0.25,-35.0,1,0.0,1.9204020000001947
517,1,0.8,0.25,-35.0,-1,1.0,0.26450100000010934
518,1,0.8,1.0,35.0,-1,0.0,0.33070100000031744
519,1,0.8,0.0,35.0,-1,0.0,0.5882010000000264
520,1,0.8,0.0625,-35.0,-1,1.0,0.3042009999999209
521,1,0.8,0.0625,35.0,-1,0.0,0.3652009999996153
522,1,0.8,0.0,-35.0,-1,1.0,15.657600999999886
523,1,0.8,1.0,-35.0,-1,1.0,7.1718009999999595
524,1,0.8,0.25,-35.0,-1,1.0,2.338400999999976
525,1,0.8,0.0,35.0,-1,0.0,4.889501999999538
526,1,0.8,0.0,-35.0,1,0.0,6.712000999999873
527,1,0.8,0.0,-35.0,1,0.0,13.939500999999836
528,1,0.8,0.0,-35.0,-1,1.0,14.759500999999545
529,1,0.8,0.125,-35.0,-1,1.0,0.7997019999997974
530,1,0.8,1.0,35.0,1,1.0,0.44150100000024395
531,1,0.8,1.0,35.0,1,1.0,0.37000099999977465
532,1,0.8,1.0,-35.0,-1,1.0,0.2775010000000293
533,1,0.8,1.0,-35.0,-1,1.0,0.4934010000001763
534,1,0.8,0.0625,-35.0,-1,1.0,0.7046009999999114
535,1,0.8,0.25,-35.0,-1,1.0,0.4802010000003065
536,1,0.8,0.0625,-35.0,1,0.0,4.265601000000061
537,1,0.8,0.125,35.0,1,1.0,0.5274020000001656
538,1,0.8,0.0,35.0,-1,0.0,0.3777010000003429
539,1,0.8,0.0,-35.0,-1,1.0,0.2909010000003036
540,1,0.8,1.0,-35.0,-1,1.0,0.22850100000005114
541,1,0.8,0.0,-35.0,-1,1.0,0.2608009999994465
542,1,0.8,0.0,-35.0,-1,1.0,21.169702000000143
543,1,0.8,0.0625,-35.0,-1,1.0,3.0550020000000586
544,1,0.8,0.0625,-35.0,-1,1.0,0.42920200000025943
545,1,0.8,0.0625,35.0,1,1.0,1.7351020000000972
546,1,0.8,0.125,-35.0,-1,1.0,0.2727020000002085
547,1,0.8,0.25,-35.0,-1,1.0,0.26870199999984834
548,1,0.8,1.0,-35.0,-1,1.0,0.2694010000000162
549,1,0.8,0.125,-35.0,-1,1.0,0.5022020000005796
550,1,0.2,0.0625,35.0,1,1.0,0.580000999999811
551,1,0.2,0.125,35.0,1,1.0,0.41920100000015736
552,1,0.2,1.0,35.0,1,1.0,0.3932009999998627
553,1,0.2,0.0,35.0,-1,0.0,0.2358019999996941
554,1,0.2,0.25,35.0,1,1.0,0.3799010000002454
555,1,0.2,0.125,35.0,1,1.0,0.5062009999996917
556,1,0.2,0.125,35.0,1,1.0,0.45700099999976374
557,1,0.2,0.0625,35.0,1,1.0,0.37630099999978484
558,1,0.2,1.0,35.0,1,1.0,0.3770009999998365
559,1,0.2,0.25,35.0,1,1.0,1.193101999999726
560,1,0.2,0.0625,35.0,1,1.0,0.3443020000004253
561,1,0.2,1.0,35.0,1,1.0,0.4067009999998845
562,1,0.2,0.25,35.0,1,1.0,0.41800199999988763
563,1,0.2,0.25,35.0,1,1.0,0.3968009999998685
564,1,0.2,0.25,35.0,1,1.0,2.6677020000001903
565,1,0.2,0.125,35.0,1,1.0,0.4404010000002927
566,1,0.2,0.25,35.0,1,1.0,0.401100999999926
567,1,0.2,0.125,-35.0,-1,1.0,0.3338010000002214
568,1,0.2,0.125,35.0,1,1.0,0.544901000000209
569,1,0.2,0.25,35.0,1,1.0,0.7207020000000739
570,1,0.2,0.125,35.0,1,1.0,0.5621009999995294
571,1,0.2,1.0,35.0,1,1.0,0.3477020000000266
572,1,0.2,1.0,-35.0,-1,1.0,0.35470100000020466
573,1,0.2,0.125,35.0,1,1.0,2.4176009999996495
574,1,0.2,1.0,35.0,1,1.0,4.548502000000099
575,1,0.2,0.0,-35.0,-1,1.0,0.36820099999977174
576,1,0.2,0.0,35.0,1,1.0,0.4563020000000506
577,1,0.2,0.0625,35.0,1,1.0,3.4349010000000817
578,1,0.2,0.125,35.0,1,1.0,2.826100999999653
579,1,0.2,1.0,35.0,1,1.0,0.4185010000001057
580,1,0.2,0.125,35.0,1,1.0,0.452600999999504
581,1,0.2,0.0625,35.0,-1,0.0,0.6920020000002296
582,1,0.2,1.0,35.0,1,1.0,0.36640200000010736
583,1,0.2,0.25,35.0,-1,0.0,3.829301000000214
584,1,0.2,0.0,35.0,-1,0.0,11.293301000000156
585,1,0.2,0.0625,35.0,1,1.0,4.313000999999986
586,1,0.2,0.0,-35.0,-1,1.0,1.0239010000000235
587,1,0.2,0.125,35.0,1,1.0,0.42000199999984034
588,1,0.2,0.125,-35.0,-1,1.0,0.5386010000001988
589,1,0.2,0.25,-35.0,-1,1.0,0.3265010000000075
590,1,0.2,1.0,35.0,1,1.0,3.774500999999873
591,1,0.2,0.0,35.0,-1,0.0,0.623501000000033
592,1,0.2,1.0,-35.0,-1,1.0,0.26450100000010934
593,1,0.2,0.0625,35.0,1,1.0,0.3805019999999786
594,1,0.2,0.125,35.0,1,1.0,0.3646009999997659
595,1,0.2,0.125,35.0,1,1.0,0.5573020000001634
596,1,0.2,0.0625,35.0,1,1.0,0.6416009999998096
597,1,0.2,1.0,35.0,1,1.0,1.4377020000001721
598,1,0.2,1.0,35.0,1,1.0,2.6247019999996155
599,1,0.2,0.0625,35.0,1,1.0,0.48790199999984907
600,1,0.2,0.25,35.0,1,1.0,0.40500199999996767
601,1,0.2,0.0,35.0,1,1.0,0.6047020000000884
602,1,0.2,1.0,35.0,1,1.0,1.9026020000001154
603,1,0.2,0.0625,35.0,1,1.0,0.4584020000002056
604,1,0.2,0.25,35.0,1,1.0,0.2494019999999182
605,1,0.2,0.0,35.0,1,1.0,0.5551009999999224
606,1,0.2,0.0625,35.0,1,1.0,1.1361020000003919
607,1,0.2,0.125,35.0,1,1.0,10.025501000000077
608,1,0.2,0.25,35.0,-1,0.0,1.0628010000000359
609,1,0.2,0.25,35.0,1,1.0,21.425700999999663
610,1,0.2,0.125,35.0,1,1.0,2.3169020000000273
611,1,0.2,0.125,-35.0,-1,1.0,0.33000099999981103
612,1,0.2,0.0,35.0,-1,0.0,6.277001000000382
613,1,0.2,0.25,35.0,1,1.0,3.6335010000002512
614,1,0.2,0.0,35.0,-1,0.0,2.068101000000297
615,1,0.2,0.125,35.0,1,1.0,0.48050199999988763
616,1,0.2,0.125,35.0,1,1.0,0.47790200000008554
617,1,0.2,0.0,35.0,-1,0.0,6.2573019999999815
618,1,0.2,0.0,35.0,1,1.0,4.409101000000192
619,1,0.2,0.0625,35.0,1,1.0,5.597601000000395
620,1,0.2,0.25,35.0,1,1.0,0.3651009999998678
621,1,0.2,0.0625,35.0,1,1.0,0.36150099999986196
622,1,0.2,0.0625,35.0,1,1.0,0.31930099999999584
623,1,0.2,0.0,35.0,1,1.0,0.4751019999998789
624,1,0.2,0.125,35.0,1,1.0,0.5062010000001465
625,1,0.2,1.0,35.0,1,1.0,0.3151020000000244
626,1,0.2,0.25,35.0,-1,0.0,0.3592020000000957
627,1,0.2,0.0625,-35.0,-1,1.0,0.2687020000003031
628,1,0.2,0.0,-35.0,1,0.0,1.7963010000003123
629,1,0.2,0.25,35.0,1,1.0,4.045600999999806
630,1,0.2,1.0,35.0,1,1.0,0.44340100000044913
631,1,0.2,0.25,-35.0,-1,1.0,0.26250100000015664
632,1,0.2,1.0,35.0,1,1.0,0.33650100000022576
633,1,0.2,0.0,-35.0,1,0.0,3.4427009999999427
634,1,0.2,0.0,35.0,-1,0.0,0.35330100000010134
635,1,0.2,0.25,35.0,1,1.0,0.44980100000020684
636,1,0.2,0.0625,35.0,1,1.0,2.293702000000394
637,1,0.2,0.125,35.0,1,1.0,0.4233009999998103
638,1,0.2,0.0,35.0,1,1.0,0.36740099999997256
639,1,0.2,0.0,35.0,1,1.0,0.5400019999997312
640,1,0.2,0.25,-35.0,-1,1.0,0.2945009999998547
641,1,0.8,0.25,-35.0,-1,1.0,0.2602009999995971
642,1,0.8,0.0625,-35.0,1,0.0,3.3642009999998663
643,1,0.8,0.125,-35.0,-1,1.0,0.2638010000000577
644,1,0.8,0.125,-35.0,-1,1.0,0.3176010000001952
645,1,0.8,0.0,-35.0,-1,1.0,22.43060099999957
646,1,0.8,0.0625,-35.0,1,0.0,0.14870099999961894
647,1,0.8,0.0625,35.0,-1,0.0,0.5747010000000046
648,1,0.8,1.0,-35.0,-1,1.0,0.294901000000209
649,1,0.8,0.25,-35.0,-1,1.0,0.3949010000001181
650,1,0.8,0.25,-35.0,-1,1.0,0.4955009999998765
651,1,0.8,0.0,35.0,1,1.0,1.3718010000002323
652,1,0.8,0.25,-35.0,-1,1.0,0.3358010000001741
653,1,0.8,0.0625,-35.0,-1,1.0,0.47200199999997494
654,1,0.8,0.125,-35.0,-1,1.0,0.46280099999967206
655,1,0.8,0.0,-35.0,1,0.0,0.29880099999991216
656,1,0.8,0.25,35.0,1,1.0,0.3096009999999296
657,1,0.8,0.125,-35.0,-1,1.0,0.9323010000002796
658,1,0.8,0.0625,-35.0,-1,1.0,0.2830020000001241
659,1,0.8,0.125,35.0,1,1.0,4.062601000000086
660,1,0.8,0.0,-35.0,1,0.0,4.42670199999975
661,1,0.8,0.0625,-35.0,-1,1.0,0.339502000000266
662,1,0.8,1.0,35.0,1,1.0,0.420900999999958
663,1,0.8,0.0625,-35.0,-1,1.0,0.5330010000002403
664,1,0.8,1.0,-35.0,-1,1.0,0.27690199999960896
665,1,0.8,1.0,35.0,1,1.0,0.3601020000000972
666,1,0.8,0.0625,-35.0,-1,1.0,0.27040100000021994
667,1,0.8,1.0,-35.0,-1,1.0,0.2635009999999056
668,1,0.8,0.0,35.0,1,1.0,5.998001999999815
669,1,0.8,0.25,-35.0,-1,1.0,0.3337010000000191
670,1,0.8,0.25,-35.0,-1,1.0,0.23110099999985323
671,1,0.8,0.25,-35.0,-1,1.0,0.33060199999999895
672,1,0.8,0.125,-35.0,-1,1.0,0.3178020000000288
673,1,0.8,1.0,-35.0,-1,1.0,3.634002000000237
674,1,0.8,0.0625,-35.0,-1,1.0,7.102100999999948
675,1,0.8,0.0,35.0,1,1.0,0.6946010000001479
676,1,0.8,1.0,-35.0,-1,1.0,0.23530199999959223
677,1,0.8,0.125,-35.0,-1,1.0,0.2614019999996344
678,1,0.8,0.25,35.0,1,1.0,0.3261019999999917
679,1,0.8,0.0625,-35.0,-1,1.0,0.37480200000027253
680,1,0.8,0.25,-35.0,-1,1.0,0.5491010000000642
681,1,0.8,1.0,-35.0,-1,1.0,0.24520200000006298
682,1,0.8,0.0,-35.0,1,0.0,0.4857010000000628
683,1,0.8,1.0,35.0,1,1.0,0.4586010000002716
684,1,0.8,0.25,35.0,1,1.0,0.39260100000046805
685,1,0.2,0.125,35.0,1,1.0,0.39900100000022576
686,1,0.2,1.0,35.0,1,1.0,0.3730009999999311
687,1,0.2,0.25,35.0,1,1.0,0.5291010000000824
688,1,0.2,0.125,35.0,1,1.0,1.813101000000188
689,1,0.2,0.25,35.0,1,1.0,3.8461010000000897
690,1,0.2,1.0,35.0,1,1.0,0.3767009999996844
691,1,0.2,0.0625,35.0,-1,0.0,2.756100999999944
692,1,0.2,0.0625,35.0,1,1.0,0.4237009999997099
693,1,0.2,1.0,35.0,-1,0.0,0.3999010000002272
694,1,0.2,0.0625,35.0,-1,0.0,14.097401999999875
695,1,0.2,0.25,-35.0,-1,1.0,0.283701999999721
696,1,0.2,0.25,35.0,1,1.0,0.45840099999986705
697,1,0.2,0.0,35.0,-1,0.0,2.9638010000003305
698,1,0.2,0.25,35.0,1,1.0,0.9484010000001035
699,1,0.2,0.125,35.0,1,1.0,4.1674010000001545
700,1,0.2,0.25,35.0,1,1.0,2.5396019999998316
701,1,0.2,1.0,35.0,1,1.0,0.5278010000001814
702,1,0.2,1.0,35.0,1,1.0,2.6187009999998736
703,1,0.2,0.125,35.0,1,1.0,4.858101000000261
704,1,0.2,0.0625,35.0,1,1.0,29.642402000000402
705,1,0.2,0.0625,35.0,1,1.0,18.44890099999975
706,1,0.2,0.0625,35.0,0,0.0,60.036700999999994
707,1,0.2,1.0,-35.0,-1,1.0,1.8251009999994494
708,1,0.2,0.25,35.0,-1,0.0,32.357700999999
709,1,0.2,0.0625,35.0,-1,0.0,6.936100999999326
710,1,0.2,0.25,35.0,-1,0.0,5.862400999999409
711,1,0.2,0.25,-35.0,-1,1.0,7.407300999999279
712,1,0.2,0.0,35.0,-1,0.0,7.742800999999417
713,1,0.2,0.25,35.0,1,1.0,15.361300999999912
1,2,0.5,0.25,-35.0,-1,1.0,3.8458999999999994
2,2,0.5,1.0,35.0,1,1.0,3.7353009999999998
3,2,0.5,0.0,-35.0,1,0.0,2.015000999999998
4,2,0.5,1.0,-35.0,-1,1.0,0.37519999999999953
5,2,0.5,0.25,35.0,1,1.0,0.546600999999999
6,2,0.5,0.0625,35.0,1,1.0,2.442601
7,2,0.5,0.125,-35.0,-1,1.0,3.024901
8,2,0.5,0.25,35.0,1,1.0,4.8104999999999976
9,2,0.5,0.0625,35.0,1,1.0,2.0107009999999974
10,2,0.5,0.0625,35.0,1,1.0,0.22869999999999635
11,2,0.5,0.0,35.0,1,1.0,10.900100999999992
12,2,0.5,0.0,-35.0,1,0.0,6.295999999999992
13,2,0.5,0.0,-35.0,1,0.0,0.5067999999999984
14,2,0.5,0.25,-35.0,1,0.0,0.18420000000001835
15,2,0.5,0.0,35.0,1,1.0,5.05619999999999
16,2,0.5,0.25,35.0,1,1.0,0.6140999999999934
17,2,0.5,0.125,35.0,1,1.0,4.8352999999999895
18,2,0.5,0.125,-35.0,-1,1.0,1.497901000000013
19,2,0.5,0.0,-35.0,1,0.0,9.867001000000002
20,2,0.5,0.0,35.0,-1,0.0,0.39339999999999975
21,2,0.5,1.0,35.0,-1,0.0,8.995199999999983
22,2,0.5,1.0,35.0,-1,0.0,0.21170100000000502
23,2,0.5,0.0625,-35.0,-1,1.0,0.4467009999999618
24,2,0.5,0.0625,-35.0,-1,1.0,0.29310099999997874
25,2,0.5,0.25,35.0,1,1.0,0.5362999999999829
26,2,0.5,0.125,-35.0,-1,1.0,0.28649999999998954
27,2,0.5,0.25,35.0,1,1.0,0.8754999999999882
28,2,0.5,0.0,-35.0,-1,1.0,1.0660009999999716
29,2,0.5,0.25,-35.0,-1,1.0,7.128399999999971
30,2,0.5,0.0,-35.0,-1,1.0,5.268900999999971
31,2,0.5,0.0625,35.0,-1,0.0,0.35220099999997956
32,2,0.5,0.0,-35.0,-1,1.0,3.6551000000000045
33,2,0.5,0.0625,-35.0,-1,1.0,0.7832009999999912
34,2,0.5,1.0,-35.0,-1,1.0,0.3777009999999734
35,2,0.5,0.0625,35.0,-1,0.0,3.8465009999999893
36,2,0.5,0.25,35.0,1,1.0,0.5056999999999903
37,2,0.5,0.25,35.0,1,1.0,1.976099999999974
38,2,0.5,1.0,35.0,1,1.0,0.49180099999998106
39,2,0.5,0.25,35.0,1,1.0,0.8839999999999861
40,2,0.5,0.0,35.0,1,1.0,5.913999999999987
41,2,0.5,0.125,35.0,1,1.0,0.4825999999999908
42,2,0.5,1.0,-35.0,-1,1.0,0.22280000000000655
43,2,0.5,1.0,-35.0,-1,1.0,0.24340000000000828
44,2,0.5,1.0,-35.0,-1,1.0,0.47979999999998313
45,2,0.5,0.0,-35.0,1,0.0,6.450500000000005
46,2,0.5,0.25,-35.0,-1,1.0,0.24580000000000268
47,2,0.5,0.0625,-35.0,-1,1.0,3.737500999999952
48,2,0.5,0.125,-35.0,-1,1.0,0.2315009999999802
49,2,0.5,0.125,35.0,1,1.0,0.7576999999999998
50,2,0.5,0.125,35.0,1,1.0,2.1083999999999605
51,2,0.5,0.25,35.0,1,1.0,2.36809999999997
52,2,0.5,1.0,35.0,1,1.0,3.352100000000007
53,2,0.5,0.0,-35.0,1,0.0,7.182501000000002
54,2,0.5,0.0625,-35.0,1,0.0,0.43189999999998463
55,2,0.5,0.125,-35.0,-1,1.0,0.23649999999997817
56,2,0.5,0.0,35.0,1,1.0,1.9230009999999993
57,2,0.5,0.0,-35.0,-1,1.0,0.228999999999985
58,2,0.5,0.0625,-35.0,-1,1.0,0.3280000000000314
59,2,0.5,0.25,35.0,1,1.0,0.5906999999999698
60,2,0.5,0.0,-35.0,1,0.0,2.4791009999999574
61,2,0.5,0.125,-35.0,-1,1.0,0.3003999999999678
62,2,0.5,1.0,-35.0,-1,1.0,0.24250099999994745
63,2,0.5,0.25,-35.0,-1,1.0,0.26019999999999754
64,2,0.5,1.0,35.0,1,1.0,0.4112999999999829
65,2,0.5,1.0,-35.0,-1,1.0,0.2175009999999702
66,2,0.5,0.0625,35.0,1,1.0,0.4457999999999629
67,2,0.5,0.0625,-35.0,-1,1.0,0.25839999999999463
68,2,0.5,0.25,35.0,1,1.0,3.6650999999999954
69,2,0.5,0.25,35.0,1,1.0,0.273900000000026
70,2,0.5,0.25,35.0,1,1.0,0.3553009999999972
71,2,0.5,0.125,-35.0,-1,1.0,0.2501009999999724
72,2,0.5,0.125,35.0,1,1.0,2.409101000000021
73,2,0.5,0.25,-35.0,-1,1.0,0.8383000000000038
74,2,0.5,1.0,35.0,1,1.0,0.4480000000000359
75,2,0.5,0.0,-35.0,1,0.0,0.48509999999998854
76,2,0.5,0.25,35.0,-1,0.0,0.25830000000001974
77,2,0.5,0.0,35.0,1,1.0,7.054699999999968
78,2,0.5,0.0,35.0,1,1.0,0.4944009999999821
79,2,0.5,0.125,35.0,1,1.0,0.8967000000000098
80,2,0.5,0.125,-35.0,-1,1.0,0.47340100000002394
81,2,0.5,0.0,35.0,-1,0.0,5.6317999999999415
82,2,0.5,0.125,35.0,-1,0.0,0.958800999999994
83,2,0.5,0.0625,35.0,-1,0.0,10.415400000000034
84,2,0.5,0.125,-35.0,-1,1.0,0.38250099999999065
85,2,0.5,1.0,35.0,1,1.0,0.49680000000000746
86,2,0.5,0.25,-35.0,-1,1.0,0.3059000000000083
87,2,0.5,0.25,35.0,1,1.0,1.690499999999986
88,2,0.5,0.125,35.0,1,1.0,0.18369999999998754
89,2,0.5,0.125,35.0,1,1.0,0.46110100000004195
90,2,0.5,0.125,-35.0,-1,1.0,0.5425010000000157
91,2,0.8,1.0,-35.0,-1,1.0,0.3515000000000441
92,2,0.8,0.0,-35.0,1,0.0,1.754799999999932
93,2,0.8,0.25,-35.0,-1,1.0,0.27380099999999175
94,2,0.8,0.0625,-35.0,-1,1.0,0.32460100000002967
95,2,0.8,0.0,-35.0,1,0.0,2.9174999999999613
96,2,0.8,0.125,-35.0,-1,1.0,0.27060000000000173
97,2,0.8,0.125,-35.0,-1,1.0,0.4941000000000031
98,2,0.8,0.25,-35.0,-1,1.0,0.5896999999999935
99,2,0.8,0.0,-35.0,1,0.0,0.6283999999999992
100,2,0.8,0.25,-35.0,-1,1.0,0.38079999999996517
101,2,0.8,0.0,-35.0,1,0.0,0.83949999999993
102,2,0.8,0.25,-35.0,-1,1.0,0.6096000000000004
103,2,0.8,1.0,-35.0,-1,1.0,0.24240000000008877
104,2,0.8,0.125,-35.0,-1,1.0,0.5141999999999598
105,2,0.8,0.25,-35.0,-1,1.0,0.28630100000009406
106,2,0.8,0.25,-35.0,-1,1.0,0.2216999999999416
107,2,0.8,0.25,-35.0,-1,1.0,0.25660099999993236
108,2,0.8,0.0625,-35.0,-1,1.0,0.30860100000006696
109,2,0.8,0.0,-35.0,1,0.0,0.4116999999999962
110,2,0.8,0.125,-35.0,-1,1.0,0.28769999999997253
111,2,0.8,1.0,-35.0,-1,1.0,0.24850100000003295
112,2,0.8,0.125,-35.0,-1,1.0,0.267900999999938
113,2,0.8,0.25,-35.0,-1,1.0,0.6645010000000866
114,2,0.8,0.0625,-35.0,-1,1.0,1.5117999999999938
115,2,0.8,0.0625,-35.0,-1,1.0,0.2434009999999489
116,2,0.8,0.0,-35.0,-1,1.0,0.2578009999999722
117,2,0.8,0.0,-35.0,-1,1.0,4.72849999999994
118,2,0.8,0.25,-35.0,-1,1.0,0.25079999999991287
119,2,0.8,1.0,35.0,-1,0.0,0.3380009999998492
120,2,0.8,0.0,-35.0,-1,1.0,0.4370000000000118
121,2,0.8,0.125,-35.0,-1,1.0,0.28959999999995034
122,2,0.8,0.0,-35.0,-1,1.0,0.6177010000000109
123,2,0.8,0.0,-35.0,-1,1.0,0.30379999999991014
124,2,0.8,0.125,-35.0,-1,1.0,0.21139999999991232
125,2,0.8,1.0,-35.0,-1,1.0,0.2552010000000564
126,2,0.8,0.125,-35.0,-1,1.0,0.20619999999996708
127,2,0.8,0.25,-35.0,-1,1.0,0.2534009999999398
128,2,0.8,0.125,-35.0,-1,1.0,0.4590010000000575
129,2,0.8,0.125,-35.0,-1,1.0,0.13360000000000127
130,2,0.8,0.125,35.0,1,1.0,0.8220000000001164
131,2,0.8,0.125,-35.0,-1,1.0,0.26949999999999363
132,2,0.8,1.0,-35.0,-1,1.0,0.21299999999996544
133,2,0.8,1.0,-35.0,-1,1.0,0.2563999999999851
134,2,0.8,1.0,-35.0,-1,1.0,0.2377000000001317
135,2,0.8,0.0625,-35.0,-1,1.0,0.29539999999997235
136,2,0.8,0.125,-35.0,-1,1.0,0.22680099999990944
137,2,0.8,1.0,-35.0,-1,1.0,0.1997000000000071
138,2,0.8,0.0625,-35.0,-1,1.0,0.9911009999999578
139,2,0.8,0.0,-35.0,-1,1.0,0.9831010000000333
140,2,0.2,0.0,35.0,1,1.0,0.34969999999987067
141,2,0.2,0.125,35.0,1,1.0,1.5970000000000937
142,2,0.2,0.0625,35.0,1,1.0,0.2833010000000513
143,2,0.2,0.0625,35.0,1,1.0,0.316599999999994
144,2,0.2,0.25,-35.0,-1,1.0,0.25719999999989795
145,2,0.2,0.125,35.0,1,1.0,0.4453999999999496
146,2,0.2,0.0625,35.0,1,1.0,0.38540100000000166
147,2,0.2,0.125,35.0,1,1.0,2.449799999999982
148,2,0.2,0.0,35.0,-1,0.0,3.9379000000000133
149,2,0.2,0.125,-35.0,1,0.0,3.2915010000000393
150,2,0.2,0.25,35.0,1,1.0,2.724299999999971
151,2,0.2,1.0,35.0,1,1.0,2.5074999999999363
152,2,0.2,0.0,35.0,1,1.0,1.3127999999999247
153,2,0.2,0.0625,35.0,1,1.0,0.5489999999999782
154,2,0.2,1.0,35.0,1,1.0,0.3358009999999467
155,2,0.2,0.125,35.0,1,1.0,0.3521010000000615
156,2,0.2,0.125,35.0,1,1.0,0.4064010000000735
157,2,0.2,0.125,35.0,1,1.0,2.3486999999998943
158,2,0.2,0.25,35.0,1,1.0,0.3667999999998983
159,2,0.2,1.0,35.0,1,1.0,0.5036010000000033
160,2,0.2,0.25,35.0,1,1.0,0.3110999999998967
161,2,0.2,0.0,35.0,1,1.0,0.41069999999990614
162,2,0.2,0.125,35.0,1,1.0,3.035400000000095
163,2,0.2,0.0,35.0,1,1.0,0.8582000000000107
164,2,0.2,0.125,-35.0,-1,1.0,0.509499999999889
165,2,0.2,0.0625,-35.0,1,0.0,0.11390099999994163
166,2,0.2,0.25,35.0,-1,0.0,9.935499999999934
167,2,0.2,0.25,35.0,1,1.0,0.8001010000000406
168,2,0.2,1.0,35.0,1,1.0,0.5633000000000266
169,2,0.2,0.25,35.0,1,1.0,0.7810000000000628
170,2,0.2,0.25,35.0,1,1.0,0.630800000000022
171,2,0.2,0.125,35.0,1,1.0,0.26670100000001185
172,2,0.2,1.0,-35.0,-1,1.0,0.2256999999999607
173,2,0.2,0.125,-35.0,-1,1.0,0.438199999999938
174,2,0.2,0.0,35.0,-1,0.0,0.29270099999996546
175,2,0.2,0.0,35.0,1,1.0,5.8098999999999705
176,2,0.2,0.0625,35.0,1,1.0,0.35780099999999493
177,2,0.2,0.25,35.0,1,1.0,0.33740000000000236
178,2,0.2,0.25,35.0,1,1.0,0.306699999999978
179,2,0.2,0.0,35.0,1,1.0,0.3928999999999405
180,2,0.2,0.25,35.0,1,1.0,0.3827999999999747
181,2,0.2,0.0,-35.0,1,0.0,0.34379999999987376
182,2,0.2,0.125,-35.0,-1,1.0,0.5361999999998943
183,2,0.2,0.0625,-35.0,-1,1.0,0.4714999999999918
184,2,0.2,0.125,35.0,1,1.0,0.3471000000000686
185,2,0.2,0.0,35.0,-1,0.0,0.31100000000003547
186,2,0.2,1.0,35.0,1,1.0,0.300899999999956
187,2,0.2,0.0,35.0,1,1.0,0.2859000000000833
188,2,0.2,0.25,35.0,1,1.0,0.45890000000008513
189,2,0.2,0.0625,35.0,1,1.0,0.3301000000000158
190,2,0.2,1.0,35.0,1,1.0,0.35389999999995325
191,2,0.2,0.25,35.0,-1,0.0,0.15430099999991853
192,2,0.2,0.25,35.0,1,1.0,0.6820010000000138
193,2,0.2,0.25,35.0,1,1.0,0.30329999999992197
194,2,0.2,0.0625,35.0,1,1.0,0.35189999999988686
195,2,0.2,0.25,-35.0,-1,1.0,0.4802999999999429
196,2,0.2,0.0,35.0,1,1.0,0.3630009999999402
197,2,0.2,0.125,35.0,1,1.0,0.16660000000001673
198,2,0.2,0.0625,35.0,1,1.0,0.17029999999999745
199,2,0.2,1.0,35.0,1,1.0,0.2680000000000291
200,2,0.2,0.0625,35.0,1,1.0,0.3438009999999849
201,2,0.2,0.25,-35.0,1,0.0,0.1955000000000382
202,2,0.2,1.0,35.0,1,1.0,0.2418999999999869
203,2,0.2,0.0,-35.0,1,0.0,0.2563999999999851
204,2,0.2,1.0,35.0,1,1.0,0.34399999999993724
205,2,0.2,1.0,35.0,1,1.0,0.3308000000000675
206,2,0.2,0.125,35.0,1,1.0,0.34400000000005093
207,2,0.2,0.125,35.0,1,1.0,0.31910000000004857
208,2,0.2,0.0,35.0,1,1.0,0.13850000000002183
209,2,0.2,0.0,35.0,1,1.0,0.15459999999995944
210,2,0.2,1.0,35.0,1,1.0,0.13819999999998345
211,2,0.2,1.0,35.0,1,1.0,0.23339999999996053
212,2,0.2,0.0,35.0,1,1.0,0.3451999999999771
213,2,0.2,0.0625,35.0,1,1.0,0.3363000000000511
214,2,0.2,1.0,35.0,1,1.0,0.35930100000007315
215,2,0.2,0.25,35.0,1,1.0,1.3666000000000622
216,2,0.2,0.0,35.0,1,1.0,2.498200999999881
217,2,0.2,1.0,35.0,1,1.0,0.3846009999999751
218,2,0.2,0.0625,35.0,1,1.0,0.1472999999999729
219,2,0.2,0.125,35.0,1,1.0,0.4838999999999487
220,2,0.2,0.125,35.0,1,1.0,0.7823009999999613
221,2,0.2,0.0,-35.0,1,0.0,1.8537000000001171
222,2,0.2,0.25,35.0,1,1.0,0.6082999999999856
223,2,0.2,0.0,35.0,1,1.0,0.30989999999997053
224,2,0.8,0.0625,-35.0,1,0.0,0.41840000000001965
225,2,0.8,0.0625,35.0,1,1.0,0.3935000000000173
226,2,0.8,1.0,-35.0,-1,1.0,0.26939999999990505
227,2,0.8,1.0,35.0,1,1.0,0.41020000000003165
228,2,0.8,0.25,-35.0,1,0.0,1.2834000000000287
229,2,0.8,0.125,-35.0,1,0.0,0.2472010000001319
230,2,0.8,0.0625,-35.0,1,0.0,0.8032009999999445
231,2,0.8,0.125,-35.0,1,0.0,0.36740000000008877
232,2,0.8,0.25,-35.0,-1,1.0,0.4229010000001381
233,2,0.8,0.125,-35.0,-1,1.0,0.28089999999997417
234,2,0.8,0.25,-35.0,-1,1.0,0.29739999999992506
235,2,0.8,0.0,-35.0,-1,1.0,0.46780100000000857
236,2,0.8,1.0,-35.0,-1,1.0,0.21289999999999054
237,2,0.8,0.125,-35.0,-1,1.0,0.6211000000000695
238,2,0.8,1.0,-35.0,-1,1.0,0.26350000000002183
239,2,0.8,0.125,35.0,1,1.0,0.8479999999999563
240,2,0.8,0.0625,35.0,1,1.0,0.6204000000000178
241,2,0.8,0.25,-35.0,-1,1.0,0.268100000000004
242,2,0.8,0.25,-35.0,-1,1.0,0.26350000000002183
243,2,0.8,1.0,-35.0,-1,1.0,0.23830000000020846
244,2,0.8,0.0,-35.0,-1,1.0,0.34080100000005586
245,2,0.8,0.25,-35.0,-1,1.0,0.2219000000000051
246,2,0.8,0.125,-35.0,-1,1.0,0.2316000000000713
247,2,0.2,0.25,35.0,1,1.0,0.32860000000027867
248,2,0.2,1.0,35.0,1,1.0,0.6209010000000035
249,2,0.2,1.0,35.0,1,1.0,0.19220000000018445
250,2,0.2,0.0625,35.0,1,1.0,0.35160000000018954
251,2,0.2,0.125,-35.0,-1,1.0,0.2690010000001166
252,2,0.2,0.0625,35.0,-1,0.0,0.2387010000002192
253,2,0.2,0.125,35.0,1,1.0,0.2960000000002765
254,2,0.2,0.125,35.0,1,1.0,0.3414010000001326
255,2,0.2,0.0625,35.0,-1,0.0,0.39620000000013533
256,2,0.2,1.0,35.0,1,1.0,0.3315010000001166
257,2,0.2,0.0,-35.0,1,0.0,0.3530000000000655
258,2,0.2,0.0625,35.0,1,1.0,0.34180000000014843
259,2,0.2,0.0625,35.0,1,1.0,0.3465009999999893
260,2,0.2,0.0,35.0,1,1.0,0.4314999999999145
261,2,0.2,1.0,-35.0,-1,1.0,0.25690000000008695
262,2,0.2,0.0625,-35.0,1,0.0,0.11870000000021719
263,2,0.2,0.0,35.0,-1,0.0,0.42680100000029597
264,2,0.2,0.0,35.0,-1,0.0,10.525800000000118
265,2,0.2,1.0,35.0,1,1.0,2.897300000000314
266,2,0.2,0.25,35.0,1,1.0,0.29280100000005405
267,2,0.2,1.0,35.0,1,1.0,0.3242000000002463
268,2,0.2,0.125,-35.0,-1,1.0,1.0130010000002585
269,2,0.2,0.0,35.0,1,1.0,0.47109999999997854
270,2,0.2,0.25,35.0,1,1.0,0.38790000000017244
271,2,0.2,0.0,35.0,1,1.0,0.5044010000001435
272,2,0.2,0.0625,-35.0,-1,1.0,0.34400000000005093
273,2,0.2,0.0625,35.0,1,1.0,0.3380010000000766
274,2,0.2,0.125,35.0,1,1.0,0.3701010000002043
275,2,0.2,0.125,35.0,1,1.0,0.388101000000006
276,2,0.2,0.0625,35.0,1,1.0,0.28100100000006023
277,2,0.2,1.0,35.0,1,1.0,1.7117000000000644
278,2,0.2,0.0,35.0,1,1.0,0.39039999999999964
279,2,0.2,0.0625,35.0,1,1.0,0.3351999999999862
280,2,0.2,0.25,-35.0,-1,1.0,0.46050100000002203
281,2,0.2,0.0,-35.0,-1,1.0,0.23190000000022337
282,2,0.2,0.125,-35.0,-1,1.0,0.7079000000001088
283,2,0.2,0.0,-35.0,-1,1.0,0.5823000000002594
284,2,0.2,1.0,35.0,1,1.0,0.38770100000010643
285,2,0.2,0.25,35.0,1,1.0,0.5958000000000538
286,2,0.2,1.0,-35.0,-1,1.0,0.23440000000027794
287,2,0.2,1.0,35.0,1,1.0,0.3059009999999489
288,2,0.2,0.125,35.0,1,1.0,0.2445010000003549
289,2,0.2,0.0625,35.0,1,1.0,1.3527010000000246
290,2,0.2,0.0625,-35.0,1,0.0,0.15210000000001855
291,2,0.2,0.125,35.0,1,1.0,0.5794000000003052
292,2,0.2,1.0,35.0,1,1.0,0.27440100000012535
293,2,0.2,0.0625,35.0,1,1.0,0.23649999999997817
294,2,0.2,0.125,35.0,1,1.0,0.3953000000001339
295,2,0.2,1.0,35.0,1,1.0,0.22340100000042185
296,2,0.8,0.125,-35.0,1,0.0,0.37229999999999563
297,2,0.8,0.0625,-35.0,1,0.0,0.503400000000056
298,2,0.8,0.125,-35.0,-1,1.0,0.5003009999998085
299,2,0.8,0.25,-35.0,-1,1.0,0.28030100000000857
300,2,0.8,0.25,-35.0,-1,1.0,0.21550000000002
301,2,0.8,0.0,-35.0,1,0.0,0.09380099999998492
302,2,0.8,1.0,35.0,1,1.0,0.12590100000011262
303,2,0.8,1.0,35.0,1,1.0,0.32730000000015025
304,2,0.8,0.0,-35.0,-1,1.0,0.3629000000000815
305,2,0.8,1.0,-35.0,-1,1.0,0.23420000000010077
306,2,0.8,0.0625,-35.0,-1,1.0,1.1605000000001837
307,2,0.8,0.0625,-35.0,1,0.0,0.31450100000006387
308,2,0.8,0.0,35.0,1,1.0,0.4133999999999105
309,2,0.8,0.0625,-35.0,-1,1.0,0.26470100000005914
310,2,0.8,0.25,-35.0,-1,1.0,0.25440100000014354
311,2,0.8,0.0625,35.0,1,1.0,0.33130000000005566
312,2,0.8,1.0,-35.0,-1,1.0,0.2775010000002567
313,2,0.8,0.25,-35.0,-1,1.0,0.42180100000018683
314,2,0.8,1.0,-35.0,-1,1.0,0.23050000000012005
315,2,0.8,0.0,-35.0,1,0.0,3.4486010000000533
316,2,0.8,0.125,-35.0,-1,1.0,0.24430000000006658
317,2,0.8,0.125,35.0,1,1.0,0.39550000000031105
318,2,0.8,0.0625,-35.0,-1,1.0,0.24410000000011678
319,2,0.8,1.0,-35.0,-1,1.0,0.22220000000015716
320,2,0.8,0.125,-35.0,-1,1.0,0.467600000000175
321,2,0.8,0.0625,-35.0,-1,1.0,0.24559999999996762
322,2,0.8,0.125,-35.0,-1,1.0,0.2577000000003409
323,2,0.8,0.25,-35.0,-1,1.0,0.20580100000029233
324,2,0.8,0.0625,-35.0,-1,1.0,0.2479000000000724
325,2,0.8,0.125,-35.0,-1,1.0,0.2459000000001197
326,2,0.8,0.0625,-35.0,-1,1.0,0.4016010000002552
327,2,0.8,0.0625,-35.0,-1,1.0,0.5228000000001884
328,2,0.8,0.125,-35.0,-1,1.0,0.31159999999999854
329,2,0.8,0.0,-35.0,-1,1.0,0.2298000000000684
330,2,0.8,0.0625,-35.0,-1,1.0,0.4657000000001972
331,2,0.8,0.0,-35.0,-1,1.0,0.2899000000002161
332,2,0.8,0.0,-35.0,-1,1.0,0.48240000000009786
333,2,0.8,0.25,-35.0,-1,1.0,0.2236009999999169
334,2,0.8,1.0,-35.0,-1,1.0,0.1588000000001557
335,2,0.8,0.0,35.0,-1,0.0,0.20020100000010643
336,2,0.8,0.0,-35.0,-1,1.0,0.3568000000000211
337,2,0.8,0.25,-35.0,-1,1.0,0.2571000000002641
338,2,0.8,0.0,-35.0,1,0.0,0.34280100000023594
339,2,0.8,0.125,35.0,1,1.0,1.4105000000001837
340,2,0.8,0.0625,35.0,1,1.0,0.4226000000001022
341,2,0.8,0.125,-35.0,-1,1.0,0.6942000000001372
342,2,0.8,0.25,35.0,1,1.0,0.4833010000002105
343,2,0.8,0.0625,-35.0,-1,1.0,0.2610010000000784
344,2,0.8,1.0,-35.0,-1,1.0,0.2598000000000411
345,2,0.8,0.125,-35.0,-1,1.0,0.13790100000005623
346,2,0.8,0.0,-35.0,1,0.0,0.12690000000020518
347,2,0.8,0.25,-35.0,-1,1.0,0.2714000000003125
348,2,0.8,0.0625,-35.0,-1,1.0,0.7809000000002015
349,2,0.8,0.125,-35.0,-1,1.0,0.24490000000014334
350,2,0.8,0.25,-35.0,-1,1.0,0.22690099999999802
351,2,0.8,0.125,-35.0,-1,1.0,0.4882000000000062
352,2,0.8,1.0,-35.0,-1,1.0,0.26700000000005275
353,2,0.2,0.25,35.0,1,1.0,0.6320010000004004
354,2,0.2,0.0625,35.0,-1,0.0,0.7947000000001481
355,2,0.2,1.0,35.0,1,1.0,0.36550000000011096
356,2,0.2,0.0,35.0,-1,0.0,0.4511999999999716
357,2,0.2,0.0625,-35.0,-1,1.0,0.26890000000003056
358,2,0.2,0.0,35.0,-1,0.0,0.18509999999992033
359,2,0.2,1.0,35.0,1,1.0,0.16910100000018247
360,2,0.2,0.25,35.0,1,1.0,0.25820100000009916
361,2,0.2,0.0625,-35.0,1,0.0,0.1693009999999049
362,2,0.2,0.125,35.0,1,1.0,0.3731010000003607
363,2,0.2,0.25,35.0,1,1.0,0.5060000000000855
364,2,0.2,1.0,-35.0,-1,1.0,0.275101000000177
365,2,0.2,0.0625,-35.0,-1,1.0,0.30650100000025304
366,2,0.2,1.0,-35.0,-1,1.0,0.2782000000001972
367,2,0.2,0.0,35.0,1,1.0,0.35989999999992506
368,2,0.2,0.125,35.0,1,1.0,0.40630000000010114
369,2,0.2,0.0,-35.0,-1,1.0,0.39030000000002474
370,2,0.2,1.0,-35.0,-1,1.0,0.23540100000013808
371,2,0.2,0.0,35.0,1,1.0,0.360100999999986
372,2,0.2,0.0,35.0,1,1.0,2.889001000000235
373,2,0.2,0.0625,35.0,1,1.0,0.6338010000001759
374,2,0.2,0.25,35.0,1,1.0,0.34930000000008476
375,2,0.2,0.0,35.0,1,1.0,5.597301000000243
376,2,0.2,0.0625,35.0,1,1.0,2.3630000000000564
377,2,0.2,0.0625,35.0,1,1.0,1.9075000000002547
378,2,0.2,1.0,35.0,1,1.0,0.2696000000003096
379,2,0.2,1.0,35.0,1,1.0,0.34110100000020793
380,2,0.2,0.0,-35.0,1,0.0,0.2442999999998392
381,2,0.2,1.0,-35.0,-1,1.0,0.7047000000000025
382,2,0.2,0.25,35.0,1,1.0,0.3144999999999527
383,2,0.2,0.0625,35.0,-1,0.0,0.30480000000011387
384,2,0.2,0.0625,35.0,1,1.0,0.3337010000000191
385,2,0.2,1.0,35.0,1,1.0,0.30490000000031614
386,2,0.2,0.25,35.0,1,1.0,0.4706010000002152
387,2,0.2,0.25,35.0,1,1.0,0.3351000000000113
388,2,0.2,0.125,-35.0,1,0.0,1.2586010000002261
389,2,0.2,1.0,-35.0,-1,1.0,0.33219999999982974
390,2,0.2,1.0,35.0,1,1.0,0.29750000000012733
391,2,0.2,0.0625,35.0,1,1.0,0.3088999999999942
392,2,0.2,0.0,35.0,1,1.0,0.25749999999993634
393,2,0.2,0.0,35.0,1,1.0,0.3857010000001537
394,2,0.2,0.125,35.0,1,1.0,0.3909000000003289
395,2,0.2,1.0,-35.0,-1,1.0,0.9524000000001251
396,2,0.2,0.25,-35.0,-1,1.0,0.8449010000001635
397,2,0.2,0.0,35.0,1,1.0,3.3861000000001695
398,2,0.2,0.25,35.0,1,1.0,0.352301000000125
399,2,0.2,0.25,-35.0,-1,1.0,2.889599999999973
400,2,0.2,0.125,35.0,1,1.0,0.24250099999994745
401,2,0.2,0.0625,35.0,1,1.0,1.1432010000003174
402,2,0.2,0.0625,35.0,1,1.0,0.1687010000000555
403,2,0.2,0.0625,-35.0,1,0.0,1.2264010000001235
404,2,0.2,0.25,-35.0,-1,1.0,0.42980100000022503
405,2,0.2,0.25,35.0,1,1.0,0.3671000000001641
406,2,0.2,0.25,35.0,1,1.0,0.38580000000001746
407,2,0.2,1.0,35.0,1,1.0,0.17380099999991216
408,2,0.2,0.125,-35.0,-1,1.0,0.4568000000001575
409,2,0.2,1.0,35.0,1,1.0,0.4972000000002481
410,2,0.2,0.0,35.0,1,1.0,1.6998000000000957
411,2,0.2,0.25,35.0,1,1.0,0.8975000000000364
412,2,0.2,0.0625,35.0,1,1.0,0.31989999999996144
413,2,0.2,0.25,35.0,1,1.0,0.35760000000004766
414,2,0.2,0.0625,35.0,1,1.0,0.30680000000029395
415,2,0.2,0.0625,35.0,-1,0.0,0.5111000000001695
416,2,0.2,0.0625,-35.0,1,0.0,0.41400099999987106
417,2,0.2,0.0,35.0,1,1.0,2.361401000000342
418,2,0.2,0.125,35.0,1,1.0,0.863501000000042
419,2,0.8,0.0,-35.0,1,0.0,0.34170000000017353
420,2,0.8,0.0,-35.0,-1,1.0,7.331300000000283
421,2,0.8,0.25,35.0,1,1.0,0.5586009999999533
422,2,0.8,0.0,-35.0,1,0.0,0.39800000000013824
423,2,0.8,0.0,-35.0,1,0.0,0.41230000000018663
424,2,0.8,0.25,-35.0,-1,1.0,0.24510000000009313
425,2,0.8,0.0,-35.0,-1,1.0,0.6324010000000726
426,2,0.8,0.0,-35.0,-1,1.0,0.34080100000028324
427,2,0.8,1.0,-35.0,-1,1.0,0.2149010000000544
428,2,0.8,0.0,-35.0,-1,1.0,0.4894000000001597
429,2,0.8,0.0625,-35.0,-1,1.0,0.28820100000007187
430,2,0.8,0.0,-35.0,1,0.0,2.039600000000064
431,2,0.8,0.125,-35.0,-1,1.0,0.3992000000000644
432,2,0.8,1.0,-35.0,-1,1.0,0.193000000000211
433,2,0.8,0.0625,35.0,1,1.0,0.3562000000001717
434,2,0.8,0.0,-35.0,-1,1.0,0.259900000000016
435,2,0.8,0.25,35.0,-1,0.0,0.5622010000001865
436,2,0.8,0.0,-35.0,1,0.0,0.3768000000000029
437,2,0.8,0.25,-35.0,-1,1.0,0.44230000000015934
438,2,0.8,0.125,-35.0,-1,1.0,0.41010099999994054
439,2,0.8,0.25,35.0,-1,0.0,0.2558000000001357
440,2,0.8,1.0,-35.0,-1,1.0,0.267100000000255
441,2,0.8,0.0,-35.0,1,0.0,0.439200000000028
442,2,0.8,0.125,35.0,1,1.0,0.42049999999994725
443,2,0.8,0.25,-35.0,-1,1.0,0.3059000000000651
444,2,0.8,1.0,-35.0,-1,1.0,0.2876000000001113
445,2,0.8,0.25,-35.0,-1,1.0,9.107301000000234
446,2,0.8,0.125,-35.0,-1,1.0,0.311301000000185
447,2,0.8,0.25,-35.0,-1,1.0,0.5603000000003249
448,2,0.8,0.0,-35.0,-1,1.0,1.1081000000001495
449,2,0.8,0.0,-35.0,1,0.0,7.8233000000000175
450,2,0.8,0.0625,35.0,-1,0.0,0.528400000000147
451,2,0.8,0.0625,-35.0,-1,1.0,3.457400000000007
452,2,0.8,0.0625,35.0,1,1.0,3.101900999999998
453,2,0.8,0.125,-35.0,1,0.0,4.384600000000091
454,2,0.8,0.25,35.0,1,1.0,0.5722000000000662
455,2,0.8,1.0,-35.0,-1,1.0,0.5180010000001403
456,2,0.8,0.125,-35.0,-1,1.0,1.449000999999953
457,2,0.8,0.0,-35.0,1,0.0,10.20450000000028
458,2,0.8,0.125,-35.0,1,0.0,6.016601000000037
459,2,0.8,0.0625,35.0,1,1.0,0.615301000000045
460,2,0.8,0.0625,35.0,1,1.0,0.33320099999991726
461,2,0.2,0.0625,35.0,1,1.0,0.5452999999999975
462,2,0.2,1.0,35.0,1,1.0,0.16669999999999163
463,2,0.2,0.25,35.0,1,1.0,0.1587010000000646
464,2,0.2,0.25,35.0,1,1.0,0.37340100000005805
465,2,0.2,1.0,35.0,1,1.0,0.2924000000000433
466,2,0.2,0.125,-35.0,1,0.0,3.2040000000001783
467,2,0.2,1.0,35.0,1,1.0,0.36379999999985557
468,2,0.2,0.125,35.0,1,1.0,1.294300000000021
469,2,0.2,0.125,35.0,1,1.0,0.18010000000026594
470,2,0.2,1.0,35.0,1,1.0,0.3244000000001961
471,2,0.2,0.0,35.0,1,1.0,0.3528999999998632
472,2,0.2,0.0,-35.0,1,0.0,0.41429999999991196
473,2,0.2,1.0,-35.0,-1,1.0,0.2438999999999396
474,2,0.2,0.125,35.0,1,1.0,0.3447000000001026
475,2,0.2,0.0,35.0,1,1.0,0.41030000000000655
476,2,0.2,0.125,35.0,1,1.0,0.37469999999984793
477,2,0.2,0.25,-35.0,-1,1.0,0.49069999999937863
478,2,0.2,0.25,-35.0,1,0.0,0.11510099999986778
479,2,0.2,0.25,-35.0,1,0.0,0.3670999999999367
480,2,0.2,1.0,35.0,1,1.0,0.2152009999999791
481,2,0.2,0.25,-35.0,-1,1.0,0.48389999999972133
482,2,0.2,0.125,35.0,1,1.0,0.3152999999997519
483,2,0.2,0.0625,35.0,1,1.0,4.932099999999991
484,2,0.2,0.125,35.0,1,1.0,0.17570100000011735
485,2,0.2,0.0625,-35.0,1,0.0,1.2010000000000218
486,2,0.2,1.0,-35.0,-1,1.0,0.24600099999952363
487,2,0.2,0.25,35.0,1,1.0,0.4750999999996566
488,2,0.2,0.25,35.0,1,1.0,0.30290000000013606
489,2,0.2,0.25,35.0,1,1.0,0.29149999999981446
490,2,0.2,0.0,35.0,1,1.0,0.1896999999999025
491,2,0.2,0.25,35.0,1,1.0,0.2919999999994616
492,2,0.2,0.0,-35.0,1,0.0,0.3199009999993905
493,2,0.2,0.25,35.0,1,1.0,0.773200000000088
494,2,0.2,1.0,35.0,1,1.0,0.27999999999974534
495,2,0.2,0.125,-35.0,1,0.0,0.2791999999994914
496,2,0.2,0.25,35.0,1,1.0,3.7136999999997897
497,2,0.2,0.25,35.0,1,1.0,0.3289999999997235
498,2,0.2,0.0,35.0,1,1.0,0.5439009999995505
499,2,0.2,0.25,35.0,1,1.0,0.375999999999749
500,2,0.2,0.25,35.0,1,1.0,0.11730099999977028
501,2,0.2,0.0625,35.0,1,1.0,1.003099999999904
502,2,0.2,0.25,35.0,1,1.0,0.520799999999781
503,2,0.2,0.125,35.0,1,1.0,0.8801999999996042
504,2,0.2,1.0,35.0,1,1.0,0.4276999999997315
505,2,0.2,1.0,35.0,1,1.0,0.28940000000011423
506,2,0.2,0.0625,35.0,1,1.0,0.394600999999966
507,2,0.2,0.0625,-35.0,1,0.0,0.4570000000003347
508,2,0.2,0.0625,-35.0,1,0.0,0.8182010000000446
509,2,0.2,0.125,35.0,1,1.0,0.36000099999955637
510,2,0.2,0.125,35.0,1,1.0,0.3649999999997817
511,2,0.2,0.0,35.0,-1,0.0,0.4436000000000604
512,2,0.2,0.0,35.0,-1,0.0,2.848399999999856
513,2,0.2,1.0,35.0,1,1.0,7.023799999999937
514,2,0.2,0.0,-35.0,-1,1.0,2.712301000000025
515,2,0.2,0.0,35.0,1,1.0,0.4440999999997075
516,2,0.2,0.0,35.0,1,1.0,8.399100999999973
517,2,0.2,0.25,35.0,1,1.0,0.33570000000008804
518,2,0.2,0.0625,-35.0,-1,1.0,0.44630000000006476
519,2,0.2,1.0,35.0,1,1.0,0.2858009999999922
520,2,0.2,0.25,35.0,1,1.0,0.3364000000001397
521,2,0.2,1.0,-35.0,-1,1.0,0.3484009999997397
522,2,0.2,0.0625,35.0,1,1.0,0.353099999999813
523,2,0.2,1.0,-35.0,-1,1.0,0.2327010000003611
524,2,0.2,0.0,35.0,-1,0.0,0.29340000000001965
525,2,0.2,0.0625,-35.0,-1,1.0,0.5817999999999302
526,2,0.2,0.125,35.0,-1,0.0,1.1267010000001392
527,2,0.2,0.25,-35.0,-1,1.0,0.31900099999984377
528,2,0.2,0.125,35.0,1,1.0,0.3303000000000793
529,2,0.8,0.0,-35.0,1,0.0,0.3125999999997475
530,2,0.8,0.0,-35.0,1,0.0,1.8804000000000087
531,2,0.8,1.0,-35.0,-1,1.0,0.27309999999988577
532,2,0.8,0.0,-35.0,1,0.0,3.3176009999997405
533,2,0.8,0.125,-35.0,-1,1.0,0.4398999999998523
534,2,0.8,1.0,-35.0,-1,1.0,0.674399999999423
535,2,0.8,1.0,-35.0,-1,1.0,0.4566999999997279
536,2,0.8,1.0,-35.0,-1,1.0,0.3580010000000584
537,2,0.8,0.125,-35.0,-1,1.0,0.2464999999997417
538,2,0.8,1.0,-35.0,-1,1.0,0.2647009999996044
539,2,0.8,0.0,-35.0,1,0.0,2.876799999999548
540,2,0.8,0.0,-35.0,-1,1.0,3.1249000000002525
541,2,0.8,0.0,-35.0,-1,1.0,0.6609999999996035
542,2,0.8,0.0,-35.0,-1,1.0,1.29870099999971
543,2,0.8,0.125,-35.0,-1,1.0,0.28389999999990323
544,2,0.8,0.0625,-35.0,-1,1.0,0.5954009999995833
545,2,0.8,0.25,-35.0,-1,1.0,0.5140010000000075
546,2,0.8,0.0625,-35.0,-1,1.0,0.2155999999999949
547,2,0.8,0.125,-35.0,-1,1.0,0.30110100000001694
548,2,0.8,0.125,-35.0,-1,1.0,0.2494000000001506
549,2,0.8,0.0,-35.0,-1,1.0,1.011199999999917
550,2,0.8,1.0,-35.0,-1,1.0,0.29930000000013024
551,2,0.8,1.0,-35.0,-1,1.0,0.36140100000011444
552,2,0.8,1.0,-35.0,-1,1.0,0.21939999999995052
553,2,0.8,0.125,-35.0,-1,1.0,0.6622999999995045
554,2,0.8,0.125,-35.0,1,0.0,0.35619999999971697
555,2,0.8,0.0,-35.0,1,0.0,5.692099999999755
556,2,0.8,1.0,-35.0,-1,1.0,0.2701009999996131
557,2,0.8,0.25,-35.0,-1,1.0,0.2954999999997199
558,2,0.8,0.0,35.0,-1,0.0,0.8372009999998227
559,2,0.8,0.25,-35.0,-1,1.0,0.2460000000000946
560,2,0.8,0.125,-35.0,-1,1.0,0.5070999999998094
561,2,0.8,0.125,-35.0,-1,1.0,0.25900000000001455
562,2,0.8,0.0625,-35.0,-1,1.0,0.840701000000081
563,2,0.8,0.0,35.0,-1,0.0,0.46289999999999054
564,2,0.8,0.0,-35.0,1,0.0,0.5376000000001113
565,2,0.8,0.25,-35.0,-1,1.0,0.4398999999998523
566,2,0.8,0.0625,35.0,1,1.0,0.5946009999997841
567,2,0.8,0.0,35.0,1,1.0,6.093499999999949
568,2,0.8,0.25,-35.0,-1,1.0,1.5015010000001894
569,2,0.8,1.0,-35.0,-1,1.0,1.7971010000001115
570,2,0.8,0.125,-35.0,1,0.0,0.40160000000014406
571,2,0.8,0.125,-35.0,-1,1.0,0.6344999999996617
572,2,0.8,0.125,-35.0,-1,1.0,0.4256000000000313
573,2,0.8,0.0625,-35.0,1,0.0,0.41380000000026484
574,2,0.8,0.125,-35.0,-1,1.0,0.3453999999996995
575,2,0.8,0.0625,-35.0,-1,1.0,0.4655999999999949
576,2,0.8,0.0,-35.0,1,0.0,0.338799999999992
577,2,0.8,0.0,35.0,-1,0.0,0.4345999999995911
578,2,0.2,0.0,35.0,1,1.0,7.682600000000093
579,2,0.2,1.0,35.0,1,1.0,0.9887999999996282
580,2,0.2,0.125,35.0,1,1.0,0.3795000000000073
581,2,0.2,0.25,35.0,1,1.0,0.3885009999999056
582,2,0.2,0.0,-35.0,-1,1.0,0.3531009999996968
583,2,0.2,0.25,35.0,1,1.0,0.3186999999998079
584,2,0.2,0.0625,35.0,1,1.0,0.336699999999837
585,2,0.2,0.0625,35.0,1,1.0,0.34540000000015425
586,2,0.2,0.25,35.0,1,1.0,0.37350000000014916
587,2,0.2,0.0,-35.0,1,0.0,0.34580000000005384
588,2,0.2,1.0,35.0,1,1.0,0.5968999999995503
589,2,0.2,0.125,35.0,1,1.0,0.3623000000002321
590,2,0.2,0.0,35.0,1,1.0,0.37030000000004293
591,2,0.2,0.125,35.0,1,1.0,0.4898009999997157
592,2,0.2,0.0625,35.0,1,1.0,0.4072000000001026
593,2,0.2,1.0,35.0,1,1.0,0.40930000000025757
594,2,0.2,1.0,35.0,1,1.0,0.9041000000001986
595,2,0.2,1.0,35.0,1,1.0,0.35399999999981446
596,2,0.2,1.0,35.0,1,1.0,0.3041009999997186
597,2,0.2,0.25,35.0,1,1.0,0.6529999999997926
598,2,0.2,0.125,35.0,1,1.0,0.16760100000010425
599,2,0.2,0.25,35.0,1,1.0,0.40099999999983993
600,2,0.2,0.0,35.0,1,1.0,0.651499999999487
601,2,0.2,1.0,35.0,1,1.0,0.42399999999997817
602,2,0.2,0.125,35.0,1,1.0,0.3648009999997157
603,2,0.2,0.125,35.0,1,1.0,0.5009000000000015
604,2,0.2,1.0,-35.0,-1,1.0,4.421600000000126
605,2,0.2,0.0625,35.0,1,1.0,0.33110000000033324
606,2,0.2,0.0625,35.0,1,1.0,1.0853010000000722
607,2,0.2,0.0625,35.0,1,1.0,2.4849999999996726
608,2,0.2,0.0625,-35.0,1,0.0,1.175499999999829
609,2,0.8,0.0625,-35.0,-1,1.0,0.7217000000000553
610,2,0.8,0.25,-35.0,-1,1.0,0.25250000000005457
611,2,0.8,0.125,35.0,1,1.0,0.5722000000000662
612,2,0.8,0.0625,-35.0,-1,1.0,0.22930099999985032
613,2,0.8,0.125,-35.0,-1,1.0,0.7651000000000749
614,2,0.8,1.0,-35.0,-1,1.0,0.2962009999996553
615,2,0.8,0.125,35.0,1,1.0,0.14830099999971935
616,2,0.8,0.0,-35.0,1,0.0,1.582999999999629
617,2,0.8,0.25,-35.0,-1,1.0,0.7318999999997686
618,2,0.8,1.0,-35.0,-1,1.0,0.30660000000034415
619,2,0.8,0.0625,-35.0,-1,1.0,0.2600999999999658
620,2,0.8,0.25,35.0,1,1.0,0.49539999999979045
621,2,0.8,0.25,-35.0,-1,1.0,0.4571000000000822
622,2,0.8,0.0625,-35.0,-1,1.0,1.2423000000003412
623,2,0.8,1.0,-35.0,-1,1.0,0.5304999999998472
624,2,0.8,1.0,35.0,1,1.0,0.1934000000001106
625,2,0.8,0.0,35.0,1,1.0,0.430800999999974
626,2,0.8,0.125,-35.0,-1,1.0,0.37940100000014354
627,2,0.8,0.25,-35.0,-1,1.0,0.34750099999973827
628,2,0.8,1.0,-35.0,-1,1.0,0.276299999999992
629,2,0.8,0.25,-35.0,-1,1.0,0.4911000000001877
630,2,0.8,0.25,35.0,1,1.0,0.2970009999994545
631,2,0.8,0.125,-35.0,-1,1.0,1.1113009999999122
632,2,0.8,0.0,-35.0,1,0.0,0.46329999999989013
633,2,0.8,0.0625,-35.0,-1,1.0,0.4117999999998574
634,2,0.8,0.0,-35.0,1,0.0,8.090101000000232
635,2,0.8,0.25,-35.0,-1,1.0,0.39529999999967913
636,2,0.8,0.125,-35.0,-1,1.0,0.5146009999998569
637,2,0.8,0.25,-35.0,1,0.0,0.1853000000000975
638,2,0.8,0.125,-35.0,-1,1.0,1.5508009999998649
639,2,0.8,0.0,-35.0,1,0.0,0.7390000000000327
640,2,0.8,0.0625,-35.0,-1,1.0,0.6812010000003283
641,2,0.8,1.0,-35.0,-1,1.0,0.6024999999999636
642,2,0.8,1.0,-35.0,-1,1.0,0.45460000000002765
643,2,0.8,0.125,35.0,1,1.0,0.4560999999998785
644,2,0.8,1.0,35.0,1,1.0,0.4713999999994485
645,2,0.8,0.0,35.0,1,1.0,0.31280100000003586
646,2,0.8,1.0,-35.0,-1,1.0,0.5168009999993046
647,2,0.8,0.125,-35.0,-1,1.0,0.5628999999998996
648,2,0.8,0.25,-35.0,-1,1.0,0.3528009999999995
649,2,0.8,0.25,35.0,1,1.0,0.33270100000027014
650,2,0.8,0.25,-35.0,-1,1.0,0.40479999999979555
651,2,0.8,0.0625,-35.0,1,0.0,0.36349999999947613
652,2,0.8,0.0625,-35.0,1,0.0,5.902099999999791
653,2,0.8,0.0,-35.0,1,0.0,0.5372000000002117
654,2,0.8,0.0625,35.0,1,1.0,2.849999999999909
655,2,0.8,0.125,35.0,1,1.0,0.4909999999995307
656,2,0.8,0.0,-35.0,1,0.0,2.7641999999996187
657,2,0.8,0.0,-35.0,-1,1.0,1.7833000000000538
658,2,0.8,0.125,-35.0,-1,1.0,0.517699999999877
659,2,0.8,0.125,35.0,1,1.0,1.3098999999997432
660,2,0.8,0.125,-35.0,1,0.0,0.4481009999994967
661,2,0.8,0.0,35.0,1,1.0,0.8533999999995103
662,2,0.8,1.0,-35.0,-1,1.0,1.2680010000003676
663,2,0.8,1.0,-35.0,-1,1.0,0.4411000000000058
664,2,0.8,0.25,-35.0,-1,1.0,0.5881999999996879
665,2,0.8,0.0,-35.0,1,0.0,5.017800000000079
666,2,0.8,1.0,35.0,1,1.0,4.922300999999607
667,2,0.8,0.0625,35.0,1,1.0,1.0489010000001144
668,2,0.8,0.125,-35.0,1,0.0,0.332100999999966
669,2,0.8,0.25,-35.0,1,0.0,4.475699999999961
670,2,0.8,0.0625,35.0,1,1.0,0.44470000000001164
671,2,0.8,0.125,35.0,1,1.0,0.5026000000002568
672,2,0.8,0.0625,-35.0,-1,1.0,0.5845009999998183
673,2,0.8,0.0,-35.0,1,0.0,3.989599999999882
674,2,0.8,1.0,-35.0,-1,1.0,4.922299999999723
675,2,0.8,1.0,-35.0,-1,1.0,5.543300000000272
676,2,0.8,0.125,-35.0,-1,1.0,1.002400999999736
677,2,0.8,0.25,-35.0,-1,1.0,0.46379999999953725
678,2,0.8,0.0625,-35.0,-1,1.0,0.31330099999968297
679,2,0.8,0.0625,-35.0,-1,1.0,3.8139009999995324
680,2,0.8,0.25,-35.0,-1,1.0,0.3863010000000031
681,2,0.8,0.25,-35.0,-1,1.0,0.4773000000000138
682,2,0.8,0.0,-35.0,-1,1.0,0.7705009999999675
683,2,0.8,0.125,-35.0,1,0.0,3.1475000000000364
684,2,0.2,0.25,-35.0,-1,1.0,0.39650099999971644
685,2,0.2,0.0,35.0,-1,0.0,0.307999999999538
686,2,0.2,0.125,35.0,1,1.0,0.38659999999981665
687,2,0.2,0.25,35.0,1,1.0,0.36149999999997817
688,2,0.2,0.0625,-35.0,-1,1.0,0.25050000000010186
689,2,0.2,0.0,-35.0,1,0.0,0.12489999999979773
690,2,0.2,0.0625,35.0,-1,0.0,0.32359999999926004
691,2,0.2,1.0,35.0,1,1.0,0.4818000000000211
692,2,0.2,1.0,35.0,1,1.0,0.5976999999998043
693,2,0.2,1.0,35.0,1,1.0,0.5619999999994434
694,2,0.2,0.125,35.0,1,1.0,0.6706999999996697
695,2,0.2,1.0,35.0,1,1.0,0.238901000000169
696,2,0.2,0.0,35.0,1,1.0,0.30409999999983484
697,2,0.2,0.0,35.0,1,1.0,0.1089999999999236
698,2,0.2,0.25,35.0,1,1.0,0.3273999999996704
699,2,0.2,1.0,35.0,1,1.0,0.5057999999999083
700,2,0.2,0.25,35.0,1,1.0,0.3055999999996857
701,2,0.2,0.125,35.0,1,1.0,0.35590000000001965
702,2,0.2,0.25,-35.0,1,0.0,0.20820000000003347
703,2,0.2,1.0,35.0,1,1.0,0.6364009999997506
704,2,0.2,0.125,-35.0,-1,1.0,0.2847999999999047
705,2,0.2,0.125,35.0,1,1.0,0.23960100000022067
706,2,0.2,0.25,35.0,1,1.0,0.41190099999994345
707,2,0.2,0.0,35.0,1,1.0,0.3402000000000953
708,2,0.2,0.0625,35.0,1,1.0,0.2561009999999442
709,2,0.2,0.25,35.0,1,1.0,0.24040000000013606
710,2,0.2,0.25,35.0,1,1.0,0.40279999999984284
711,2,0.2,0.0625,35.0,1,1.0,0.5939010000001872
712,2,0.2,0.125,-35.0,1,0.0,0.45260000000007494
713,2,0.2,0.25,-35.0,-1,1.0,0.283900999999787
714,2,0.2,1.0,35.0,1,1.0,0.34400000000005093
715,2,0.2,0.25,35.0,1,1.0,1.4774999999999636
716,2,0.2,0.25,-35.0,-1,1.0,0.4170009999998001
717,2,0.2,0.125,-35.0,-1,1.0,0.26419999999961874
718,2,0.2,0.125,35.0,1,1.0,0.32989999999972497
719,2,0.2,0.25,35.0,1,1.0,0.11439999999993233
720,2,0.2,0.125,35.0,1,1.0,1.1145009999995636
721,2,0.2,0.25,-35.0,-1,1.0,0.813600999999835
722,2,0.2,1.0,35.0,1,1.0,0.2980999999999767
723,2,0.2,1.0,35.0,1,1.0,0.4435009999997419
724,2,0.2,0.25,35.0,1,1.0,0.375
725,2,0.2,0.0,35.0,1,1.0,2.4781010000001515
726,2,0.2,0.0625,-35.0,1,0.0,4.408499999999549
727,2,0.8,1.0,-35.0,-1,1.0,0.2547999999997046
728,2,0.8,1.0,-35.0,-1,1.0,0.38209999999980937
729,2,0.8,0.0,35.0,-1,0.0,2.6279010000002927
730,2,0.8,0.25,-35.0,1,0.0,5.942500000000109
731,2,0.8,1.0,-35.0,-1,1.0,0.30179999999973006
732,2,0.8,0.125,35.0,1,1.0,2.772699999999986
733,2,0.8,1.0,-35.0,-1,1.0,0.3047999999998865
734,2,0.8,1.0,-35.0,-1,1.0,0.37980000000015934
735,2,0.8,0.0,-35.0,-1,1.0,0.3215999999997621
736,2,0.8,0.125,-35.0,-1,1.0,0.3831999999997606
737,2,0.8,0.0,-35.0,1,0.0,0.4820999999992637
738,2,0.8,0.125,35.0,1,1.0,0.4667000000004009
739,2,0.8,0.0,-35.0,-1,1.0,7.172400999999809
740,2,0.8,0.125,-35.0,-1,1.0,0.3837009999997463
741,2,0.8,0.25,-35.0,-1,1.0,2.508701000000201
742,2,0.8,0.0,35.0,-1,0.0,13.730500999999549
743,2,0.8,0.0,-35.0,1,0.0,9.159400000000005
744,2,0.8,0.0,-35.0,-1,1.0,1.681300000000192
745,2,0.8,1.0,-35.0,-1,1.0,3.071599999999762
746,2,0.8,1.0,-35.0,-1,1.0,0.35140000000001237
747,2,0.8,1.0,-35.0,-1,1.0,0.3114999999997963
748,2,0.8,0.125,-35.0,-1,1.0,0.42519999999967695
749,2,0.8,0.125,35.0,1,1.0,0.38369999999940774
750,2,0.8,0.25,-35.0,-1,1.0,1.3153999999994994
751,2,0.8,0.25,-35.0,-1,1.0,0.4545999999995729
752,2,0.8,0.0625,-35.0,1,0.0,4.295400999999856
753,2,0.8,0.25,-35.0,-1,1.0,0.4205999999994674
754,2,0.8,1.0,-35.0,-1,1.0,0.2823009999997339
755,2,0.8,0.125,-35.0,-1,1.0,0.2541999999998552
756,2,0.8,0.0,-35.0,-1,1.0,0.29250000000047294
757,2,0.8,1.0,-35.0,-1,1.0,0.4849999999996726
758,2,0.8,0.25,35.0,1,1.0,0.45600000000013097
759,2,0.8,0.0625,-35.0,-1,1.0,0.4987999999998465
760,2,0.8,0.0,-35.0,1,0.0,9.339599999999791
761,2,0.8,0.25,-35.0,-1,1.0,0.1889009999999871
762,2,0.8,0.25,-35.0,-1,1.0,0.2466999999996915
763,2,0.8,0.0,-35.0,-1,1.0,24.748599999999897
764,2,0.8,1.0,-35.0,-1,1.0,0.2506999999995969
765,2,0.8,0.125,35.0,1,1.0,0.4238999999997759
766,2,0.8,0.0,35.0,1,1.0,0.4177009999998518
767,2,0.8,0.0625,35.0,1,1.0,0.7770009999994727
768,2,0.8,1.0,-35.0,1,0.0,0.21439999999984138
769,2,0.8,0.25,-35.0,-1,1.0,4.0931000000000495
770,2,0.8,0.125,35.0,1,1.0,0.4214999999999236
771,2,0.8,0.0,-35.0,1,0.0,0.6804999999999382
772,2,0.8,0.25,-35.0,-1,1.0,0.6216999999996915
773,2,0.8,0.0,-35.0,1,0.0,19.03729999999996
774,2,0.8,0.125,35.0,1,1.0,0.7456999999999425
775,2,0.8,0.125,-35.0,-1,1.0,0.5778000000000247
776,2,0.8,0.0625,-35.0,1,0.0,1.049301000000014
777,2,0.8,0.25,-35.0,-1,1.0,0.5812999999998283
778,2,0.8,0.25,-35.0,-1,1.0,0.41940000000022337
779,2,0.8,0.125,35.0,1,1.0,0.6013009999996939
780,2,0.8,0.0625,-35.0,-1,1.0,0.4762999999998101
781,2,0.8,0.125,35.0,1,1.0,4.451300999999603
782,2,0.8,1.0,-35.0,-1,1.0,0.4499000000000706
783,2,0.8,0.0,-35.0,-1,1.0,32.148499999999785
784,2,0.8,0.125,-35.0,-1,1.0,0.5007999999997992
785,2,0.8,0.25,35.0,1,1.0,1.2459010000002309
786,2,0.8,1.0,35.0,1,1.0,0.4375
787,2,0.8,0.0625,35.0,1,1.0,3.487500999999611
788,2,0.8,0.0625,-35.0,-1,1.0,21.007800000000316
789,2,0.8,0.125,-35.0,-1,1.0,0.47060099999998783
790,2,0.8,0.25,-35.0,-1,1.0,0.4852000000000771
791,2,0.8,1.0,-35.0,-1,1.0,0.4108009999999922
792,2,0.8,0.0625,-35.0,-1,1.0,0.4620999999997366
793,2,0.8,1.0,-35.0,-1,1.0,0.5271999999999935
794,2,0.8,0.0625,35.0,1,1.0,0.8287999999997737
795,2,0.2,1.0,-35.0,-1,1.0,0.227900999999747
796,2,0.2,0.0625,35.0,1,1.0,2.382499999999709
797,2,0.2,0.0,35.0,-1,0.0,22.68459999999959
798,2,0.2,0.0625,-35.0,1,0.0,4.236499999999978
799,2,0.2,0.125,35.0,1,1.0,4.81590099999994
800,2,0.2,0.125,35.0,-1,0.0,3.543399999999565
801,2,0.2,0.0625,35.0,1,1.0,12.111899999999878
802,2,0.2,1.0,35.0,1,1.0,0.4238999999997759
803,2,0.2,1.0,35.0,1,1.0,0.35259999999971114
804,2,0.2,0.25,35.0,1,1.0,0.4242999999996755
805,2,0.2,0.25,35.0,1,1.0,0.656999999999698
806,2,0.2,1.0,35.0,1,1.0,0.34449999999969805
807,2,0.2,1.0,35.0,1,1.0,0.32110099999999875
808,2,0.2,0.125,35.0,1,1.0,0.46769999999969514
809,2,0.2,1.0,-35.0,-1,1.0,6.90979999999945
810,2,0.2,0.125,35.0,1,1.0,0.4016999999998916
811,2,0.2,0.0625,35.0,1,1.0,7.4812010000000555
812,2,0.2,0.125,35.0,1,1.0,0.3886000000002241
813,2,0.2,0.25,35.0,1,1.0,0.5778000000000247
814,2,0.2,1.0,35.0,1,1.0,0.3121000000001004
815,2,0.2,0.125,35.0,1,1.0,0.3207999999999629
816,2,0.2,0.0,35.0,1,1.0,0.3655009999997674
817,2,0.2,0.0,35.0,1,1.0,0.5372999999999593
818,2,0.8,0.25,-35.0,-1,1.0,0.38239999999996144
819,2,0.8,0.25,35.0,1,1.0,3.4982999999997446
820,2,0.8,0.125,-35.0,-1,1.0,0.6762999999996282
821,2,0.8,0.125,-35.0,-1,1.0,0.3749009999996815
822,2,0.8,0.0625,-35.0,-1,1.0,0.5728000000003703
823,2,0.8,0.25,-35.0,-1,1.0,0.3553999999999178
824,2,0.8,0.125,-35.0,-1,1.0,0.249800999999934
825,2,0.8,0.0,-35.0,1,0.0,2.3863009999995484
826,2,0.8,0.125,35.0,1,1.0,0.3768000000000029
827,2,0.8,0.0,-35.0,1,0.0,0.30549999999993815
828,2,0.8,0.0625,-35.0,-1,1.0,10.463599999999587
829,2,0.8,0.25,-35.0,-1,1.0,0.3855999999996129
830,2,0.8,0.125,35.0,1,1.0,0.664100999999846
831,2,0.8,0.0625,-35.0,-1,1.0,0.39350000000013097
832,2,0.8,0.125,-35.0,-1,1.0,0.34409999999979846
833,2,0.8,0.25,-35.0,-1,1.0,0.8436010000000351
834,2,0.8,0.0625,-35.0,-1,1.0,0.38089999999965585
835,2,0.8,1.0,-35.0,-1,1.0,0.2466999999996915
836,2,0.8,0.125,-35.0,-1,1.0,2.86120099999971
837,2,0.8,0.0,-35.0,-1,1.0,9.674099999999726
838,2,0.8,0.0625,-35.0,-1,1.0,0.37829999999985375
839,2,0.8,0.125,35.0,1,1.0,5.0065999999997075
840,2,0.8,0.125,-35.0,-1,1.0,1.1819000000000415
841,2,0.8,0.25,-35.0,-1,1.0,0.267301000000316
842,2,0.8,0.25,-35.0,-1,1.0,0.44869999999991705
843,2,0.8,0.125,35.0,-1,0.0,0.41390000000001237
844,2,0.8,0.0625,-35.0,-1,1.0,0.3789000000001579
845,2,0.8,0.125,-35.0,-1,1.0,0.24080000000003565
846,2,0.8,0.125,-35.0,-1,1.0,0.3993000000000393
847,2,0.8,0.25,-35.0,-1,1.0,0.25490099999979066
848,2,0.8,0.0625,-35.0,-1,1.0,0.49270199999955366
849,2,0.8,0.125,-35.0,-1,1.0,0.2611010000000533
850,2,0.8,0.125,-35.0,-1,1.0,0.24950099999978192
851,2,0.8,1.0,-35.0,-1,1.0,0.30530099999987215
852,2,0.8,0.125,-35.0,-1,1.0,0.502900999999838
853,2,0.8,1.0,-35.0,-1,1.0,0.30800200000021505
854,2,0.8,0.125,35.0,1,1.0,0.3864010000002054
855,2,0.8,0.0,-35.0,1,0.0,5.244901000000027
856,2,0.8,0.125,-35.0,-1,1.0,0.37000099999977465
857,2,0.8,0.0625,-35.0,-1,1.0,5.399901999999656
858,2,0.8,1.0,-35.0,-1,1.0,0.4736009999996895
859,2,0.8,0.25,35.0,1,1.0,0.38610199999948236
860,2,0.8,0.0625,-35.0,-1,1.0,0.27740099999982704
861,2,0.8,0.0625,-35.0,-1,1.0,0.9361009999993257
862,2,0.8,0.125,-35.0,-1,1.0,0.2910009999995964
863,2,0.8,1.0,-35.0,-1,1.0,0.3036019999999553
864,2,0.8,0.125,-35.0,-1,1.0,0.8343010000003233
865,2,0.8,0.25,-35.0,-1,1.0,1.2200009999996837
866,2,0.8,1.0,-35.0,-1,1.0,0.23440200000004552
867,2,0.8,1.0,-35.0,-1,1.0,0.4300010000001748
868,2,0.8,0.0,-35.0,1,0.0,7.074802000000091
869,2,0.8,0.0625,-35.0,-1,1.0,39.33710099999962
870,2,0.8,0.25,-35.0,-1,1.0,0.5226010000005772
871,2,0.8,0.0,35.0,1,1.0,1.8384009999999762
872,2,0.8,0.25,-35.0,-1,1.0,2.9893019999999524
873,2,0.8,0.25,-35.0,-1,1.0,0.36800100000073144
874,2,0.8,0.0625,-35.0,-1,1.0,0.5196010000008755
875,2,0.8,0.0625,-35.0,-1,1.0,0.47550200000023324
876,2,0.8,1.0,-35.0,-1,1.0,0.40980100000069797
877,2,0.8,0.0,-35.0,-1,1.0,7.169502000000648
878,2,0.8,0.125,-35.0,-1,1.0,0.5136010000005626
879,2,0.8,1.0,-35.0,-1,1.0,2.15280200000052
880,2,0.8,0.0625,-35.0,-1,1.0,2.6604010000000926
881,2,0.8,0.0625,-35.0,-1,1.0,0.42310100000031525
882,2,0.8,0.0,35.0,-1,0.0,3.7742019999996046
883,2,0.8,0.0,-35.0,1,0.0,21.179402000000664
884,2,0.8,1.0,35.0,-1,0.0,6.408402000000024
885,2,0.8,1.0,-35.0,-1,1.0,1.5502010000000155
886,2,0.2,0.25,35.0,1,1.0,8.855102000000443
887,2,0.2,0.0,35.0,-1,0.0,13.495700999999826
888,2,0.2,0.0,35.0,-1,0.0,42.24920200000088
889,2,0.2,0.25,35.0,-1,0.0,14.56000099999983
890,2,0.2,0.0625,-35.0,1,0.0,11.130600999999842
891,2,0.2,0.0625,-35.0,-1,1.0,10.52650100000028
892,2,0.2,0.125,35.0,1,1.0,3.9717009999994843
893,2,0.2,0.125,35.0,1,1.0,8.554302000000462
894,2,0.2,0.25,35.0,1,1.0,0.38200100000085513
895,2,0.2,1.0,35.0,1,1.0,0.3208010000007562
896,2,0.2,0.125,35.0,1,1.0,0.47900099999969825
897,2,0.2,0.25,-35.0,-1,1.0,0.24120200000015757
898,2,0.2,0.125,-35.0,-1,1.0,12.899201000000176
899,2,0.2,0.0625,-35.0,-1,1.0,2.7344010000006165
900,2,0.2,0.0625,35.0,1,1.0,25.696201000000656
901,2,0.2,0.125,-35.0,-1,1.0,0.44590100000004895
902,2,0.2,0.125,35.0,-1,0.0,13.217001999999411
903,2,0.2,0.0,35.0,1,1.0,30.31960099999924
904,2,0.2,0.25,35.0,1,1.0,1.574902000000293
905,2,0.2,0.125,35.0,1,1.0,5.687502000000677
906,2,0.2,0.0,35.0,1,1.0,1.7417010000008304
907,2,0.2,0.125,35.0,1,1.0,16.180801999999858
908,2,0.2,0.25,35.0,-1,0.0,11.86920100000134
909,2,0.2,0.0625,35.0,1,1.0,11.094600999999784
910,2,0.2,1.0,35.0,1,1.0,9.503201000001354
911,2,0.2,0.125,35.0,1,1.0,12.592100999999275
1,3,0.5,1.0,-35.0,-1,1.0,0.3354999999999999
2,3,0.5,0.0625,-35.0,1,0.0,1.5282999999999998
3,3,0.5,0.0625,35.0,-1,0.0,0.5383999999999993
4,3,0.5,0.125,35.0,1,1.0,12.470600999999998
5,3,0.5,0.0,35.0,-1,0.0,0.8991999999999969
6,3,0.5,0.0625,35.0,1,1.0,3.1158009999999976
7,3,0.5,0.0625,-35.0,-1,1.0,0.5169010000000043
8,3,0.5,0.25,35.0,1,1.0,4.125100000000003
9,3,0.5,1.0,-35.0,-1,1.0,0.3336000000000041
10,3,0.5,0.25,-35.0,1,0.0,3.7297999999999902
11,3,0.5,0.0625,-35.0,1,0.0,0.910899999999998
12,3,0.5,0.25,-35.0,-1,1.0,0.24219999999998265
13,3,0.5,0.0625,35.0,-1,0.0,0.5022009999999995
14,3,0.5,0.125,-35.0,1,0.0,4.127899999999997
15,3,0.5,0.0,35.0,-1,0.0,0.2790000000000106
16,3,0.5,0.125,35.0,1,1.0,0.3509999999999991
17,3,0.5,0.0625,-35.0,-1,1.0,0.3034009999999938
18,3,0.5,0.0625,35.0,1,1.0,1.9136000000000024
19,3,0.5,0.0,-35.0,1,0.0,2.0966999999999985
20,3,0.5,0.0625,-35.0,-1,1.0,0.41620000000000346
21,3,0.5,0.0625,-35.0,1,0.0,0.8242000000000047
22,3,0.5,0.125,35.0,1,1.0,0.3632000000000062
23,3,0.5,0.0,-35.0,1,0.0,1.6402999999999963
24,3,0.5,0.0625,35.0,1,1.0,0.30859999999999843
25,3,0.5,0.125,35.0,-1,0.0,3.6791999999999945
26,3,0.5,0.25,35.0,1,1.0,0.6943009999999958
27,3,0.5,0.0,35.0,1,1.0,3.027799999999985
28,3,0.5,1.0,35.0,1,1.0,2.212299999999999
29,3,0.5,0.25,-35.0,-1,1.0,1.0345999999999833
30,3,0.5,0.0625,-35.0,-1,1.0,7.621399999999994
31,3,0.5,0.25,-35.0,-1,1.0,0.5209010000000092
32,3,0.5,1.0,-35.0,-1,1.0,0.36839999999997985
33,3,0.5,0.25,35.0,1,1.0,3.618100999999996
34,3,0.5,1.0,-35.0,-1,1.0,0.3442009999999982
35,3,0.5,0.0625,35.0,1,1.0,0.40799999999998704
36,3,0.5,0.25,35.0,1,1.0,0.4294000000000153
37,3,0.5,0.125,-35.0,1,0.0,2.129700000000014
38,3,0.5,0.0625,35.0,1,1.0,0.3540010000000109
39,3,0.5,0.125,35.0,1,1.0,0.37480100000001926
40,3,0.5,0.125,35.0,1,1.0,2.404200000000003
41,3,0.5,1.0,35.0,1,1.0,0.3938010000000247
42,3,0.5,1.0,35.0,1,1.0,0.39940099999998324
43,3,0.5,0.125,-35.0,1,0.0,2.384999999999991
44,3,0.5,1.0,-35.0,-1,1.0,0.24139999999999873
45,3,0.5,0.125,-35.0,-1,1.0,1.0108999999999924
46,3,0.5,0.0,-35.0,1,0.0,4.143601000000018
47,3,0.5,0.25,-35.0,-1,1.0,0.2172000000000196
48,3,0.5,1.0,-35.0,-1,1.0,0.24720000000002074
49,3,0.5,0.125,-35.0,1,0.0,2.943700000000007
50,3,0.5,0.0625,35.0,1,1.0,0.3257009999999809
51,3,0.5,1.0,35.0,1,1.0,0.4043010000000038
52,3,0.5,1.0,35.0,1,1.0,0.35340000000005034
53,3,0.5,0.25,35.0,1,1.0,3.685600999999963
54,3,0.5,1.0,-35.0,-1,1.0,0.5491999999999848
55,3,0.5,1.0,35.0,1,1.0,3.324199999999962
56,3,0.5,0.0,35.0,1,1.0,1.4569000000000187
57,3,0.5,0.0,35.0,1,1.0,1.7911999999999466
58,3,0.5,0.25,35.0,1,1.0,1.956100000000049
59,3,0.5,1.0,-35.0,-1,1.0,0.2615000000000123
60,3,0.5,1.0,-35.0,-1,1.0,0.2789009999999621
61,3,0.5,0.0625,35.0,1,1.0,1.0160999999999945
62,3,0.5,0.0,-35.0,1,0.0,8.631599999999992
63,3,0.5,0.0625,35.0,1,1.0,0.7527999999999793
64,3,0.5,0.25,35.0,1,1.0,1.6212999999999624
65,3,0.5,0.0625,-35.0,-1,1.0,0.5504000000000246
66,3,0.5,0.125,-35.0,-1,1.0,2.622199999999964
67,3,0.5,0.0,-35.0,1,0.0,4.099499999999978
68,3,0.5,1.0,-35.0,-1,1.0,0.2837999999999852
69,3,0.5,0.0,35.0,1,1.0,4.829299999999989
70,3,0.5,0.125,35.0,-1,0.0,0.2048000000000343
71,3,0.5,1.0,35.0,1,1.0,2.331099999999992
72,3,0.5,1.0,-35.0,1,0.0,0.6251000000000317
73,3,0.5,0.125,-35.0,-1,1.0,0.5124999999999886
74,3,0.5,0.0625,35.0,1,1.0,2.882499999999993
75,3,0.5,1.0,-35.0,-1,1.0,0.30129999999996926
76,3,0.5,0.25,35.0,1,1.0,0.5042010000000232
77,3,0.5,0.25,-35.0,-1,1.0,0.3725000000000023
78,3,0.5,0.25,35.0,1,1.0,2.9030010000000175
79,3,0.5,0.0,-35.0,1,0.0,0.40550000000001774
80,3,0.5,0.125,-35.0,-1,1.0,0.3311999999999671
81,3,0.5,1.0,-35.0,-1,1.0,0.5190999999999804
82,3,0.5,1.0,-35.0,-1,1.0,0.2535000000000309
83,3,0.5,0.0,-35.0,1,0.0,10.524401000000012
84,3,0.5,0.125,-35.0,-1,1.0,0.22970100000003413
85,3,0.5,0.0625,-35.0,-1,1.0,3.765199999999993
86,3,0.5,0.0625,-35.0,1,0.0,8.580699999999979
87,3,0.5,0.125,-35.0,-1,1.0,0.26909999999998035
88,3,0.5,0.0625,35.0,1,1.0,4.426400000000001
89,3,0.5,1.0,-35.0,-1,1.0,0.45010100000001785
90,3,0.5,0.25,-35.0,-1,1.0,0.5094009999999685
91,3,0.2,0.0,35.0,-1,0.0,3.6341000000000463
92,3,0.2,0.25,35.0,1,1.0,0.3632999999999811
93,3,0.2,0.0,35.0,1,1.0,1.7011009999999942
94,3,0.2,0.25,35.0,1,1.0,2.225599999999986
95,3,0.2,1.0,-35.0,-1,1.0,0.6972999999999843
96,3,0.2,0.25,35.0,1,1.0,0.5518009999999549
97,3,0.2,0.0,-35.0,1,0.0,4.399900000000002
98,3,0.2,1.0,35.0,1,1.0,0.31550000000004275
99,3,0.2,0.0625,35.0,1,1.0,0.4053000000000111
100,3,0.2,0.0,-35.0,1,0.0,0.3534000000000219
101,3,0.2,0.0,35.0,1,1.0,0.24349999999998317
102,3,0.2,0.25,35.0,1,1.0,0.34260100000000193
103,3,0.2,0.25,35.0,1,1.0,2.2426000000000954
104,3,0.2,0.0,35.0,1,1.0,0.4192000000000462
105,3,0.2,1.0,35.0,1,1.0,0.3746999999999616
106,3,0.2,1.0,35.0,1,1.0,0.3185000000000855
107,3,0.2,0.0625,35.0,1,1.0,0.3915000000000646
108,3,0.2,1.0,-35.0,-1,1.0,0.8432010000000218
109,3,0.2,0.0625,35.0,1,1.0,2.2602000000000544
110,3,0.2,0.0625,35.0,1,1.0,0.5617000000000871
111,3,0.2,0.0,35.0,1,1.0,1.7489010000000462
112,3,0.2,1.0,35.0,1,1.0,0.4778000000001157
113,3,0.2,0.125,35.0,1,1.0,2.289700000000039
114,3,0.2,0.0625,-35.0,1,0.0,2.273900000000026
115,3,0.2,1.0,35.0,1,1.0,0.46990100000004986
116,3,0.2,1.0,35.0,1,1.0,0.35780000000011114
117,3,0.2,0.125,35.0,1,1.0,0.3398009999999658
118,3,0.2,0.25,35.0,1,1.0,0.32590000000004693
119,3,0.2,0.125,35.0,1,1.0,1.473799999999983
120,3,0.2,0.125,35.0,1,1.0,1.928700000000049
121,3,0.2,0.0,35.0,1,1.0,0.34550000000012915
122,3,0.2,0.0625,35.0,1,1.0,0.3869010000000799
123,3,0.2,1.0,35.0,1,1.0,0.43880000000001473
124,3,0.2,0.125,35.0,1,1.0,0.3261010000001079
125,3,0.2,0.125,35.0,1,1.0,0.3467000000000553
126,3,0.2,0.0625,35.0,1,1.0,0.39570100000003094
127,3,0.2,0.0625,35.0,1,1.0,0.7375000000000682
128,3,0.2,1.0,35.0,1,1.0,4.836700000000064
129,3,0.2,1.0,35.0,1,1.0,0.3278010000001359
130,3,0.2,0.0625,-35.0,1,0.0,3.3653999999999087
131,3,0.2,0.125,35.0,1,1.0,0.6691000000000713
132,3,0.2,0.125,35.0,1,1.0,0.44839999999999236
133,3,0.2,1.0,35.0,1,1.0,0.3278010000000222
134,3,0.2,0.0,-35.0,1,0.0,5.718300000000113
135,3,0.2,0.25,35.0,1,1.0,0.4431000000000722
136,3,0.2,0.125,35.0,1,1.0,3.116200000000049
137,3,0.2,0.0,-35.0,1,0.0,2.471100999999976
138,3,0.2,0.25,-35.0,-1,1.0,0.2744000000000142
139,3,0.2,0.0,35.0,1,1.0,0.4732999999999947
140,3,0.2,0.25,35.0,1,1.0,0.3781010000001288
141,3,0.2,0.0625,35.0,1,1.0,0.3481010000000424
142,3,0.2,0.0625,35.0,1,1.0,0.3871000000000322
143,3,0.2,0.25,-35.0,-1,1.0,0.283600999999976
144,3,0.2,1.0,35.0,1,1.0,1.7102010000000973
145,3,0.2,0.0625,35.0,1,1.0,0.5
146,3,0.2,0.0,35.0,1,1.0,5.010001000000102
147,3,0.2,0.125,35.0,1,1.0,0.3709999999999809
148,3,0.2,0.0,35.0,1,1.0,2.62620000000004
149,3,0.2,0.0,-35.0,1,0.0,0.47450100000003204
150,3,0.2,0.25,35.0,1,1.0,2.3022999999999456
151,3,0.2,0.0,-35.0,1,0.0,3.4436000000000604
152,3,0.2,0.0625,35.0,-1,0.0,0.5534000000001242
153,3,0.2,1.0,35.0,1,1.0,0.39789999999993597
154,3,0.2,0.0625,-35.0,-1,1.0,2.5513009999999667
155,3,0.2,0.0625,35.0,1,1.0,0.4389009999999871
156,3,0.2,0.0625,-35.0,-1,1.0,0.5025000000001683
157,3,0.2,0.25,35.0,1,1.0,0.9039010000000189
158,3,0.2,0.25,35.0,1,1.0,0.3142010000000255
159,3,0.2,0.0625,35.0,1,1.0,4.229200999999989
160,3,0.2,1.0,35.0,1,1.0,0.6854999999999336
161,3,0.2,1.0,35.0,1,1.0,0.48030100000005405
162,3,0.2,0.0,35.0,1,1.0,4.905700999999908
163,3,0.2,1.0,-35.0,-1,1.0,0.3604010000000244
164,3,0.2,0.25,35.0,1,1.0,0.6206000000000813
165,3,0.2,1.0,35.0,1,1.0,2.849501000000032
166,3,0.2,0.0625,35.0,-1,0.0,0.5521000000001095
167,3,0.2,1.0,35.0,1,1.0,0.3300010000000384
168,3,0.2,0.125,35.0,1,1.0,0.8053999999999633
169,3,0.2,0.25,35.0,1,1.0,3.34800000000007
170,3,0.2,0.125,35.0,-1,0.0,3.2839000000001306
171,3,0.2,0.25,-35.0,-1,1.0,0.2675000000000409
172,3,0.2,0.0625,-35.0,1,0.0,2.4703009999999495
173,3,0.8,0.125,35.0,-1,0.0,0.24830100000008315
174,3,0.8,1.0,-35.0,-1,1.0,0.2178000000000111
175,3,0.8,0.0,35.0,1,1.0,6.145301000000018
176,3,0.8,0.25,-35.0,-1,1.0,0.5303010000000086
177,3,0.8,0.125,-35.0,-1,1.0,1.9979000000000724
178,3,0.8,0.0,-35.0,1,0.0,3.0831000000000586
179,3,0.8,1.0,-35.0,-1,1.0,0.2925000000001319
180,3,0.8,0.125,35.0,1,1.0,1.003500000000031
181,3,0.8,0.0,-35.0,1,0.0,5.421000000000049
182,3,0.8,0.0625,-35.0,-1,1.0,0.2682000000000926
183,3,0.8,0.125,-35.0,-1,1.0,1.528201000000081
184,3,0.8,1.0,-35.0,-1,1.0,0.843001000000072
185,3,0.8,0.0625,-35.0,-1,1.0,7.617501000000061
186,3,0.8,1.0,-35.0,-1,1.0,0.2772009999999909
187,3,0.8,0.125,35.0,1,1.0,4.36420099999998
188,3,0.8,1.0,-35.0,-1,1.0,0.5942000000001144
189,3,0.8,0.0,-35.0,-1,1.0,3.2696010000000797
190,3,0.8,0.0625,-35.0,-1,1.0,0.47040100000003804
191,3,0.8,0.0,-35.0,1,0.0,10.230200000000082
192,3,0.8,1.0,-35.0,-1,1.0,0.2452010000000655
193,3,0.8,0.0,-35.0,-1,1.0,0.7412000000000489
194,3,0.8,1.0,35.0,1,1.0,3.7963000000000875
195,3,0.8,0.0625,-35.0,-1,1.0,0.5195000000001073
196,3,0.8,0.0625,-35.0,-1,1.0,2.5471999999999753
197,3,0.8,0.0625,-35.0,-1,1.0,0.29680100000007315
198,3,0.8,0.0625,-35.0,1,0.0,2.4804000000000315
199,3,0.8,1.0,-35.0,-1,1.0,0.32370000000003074
200,3,0.8,0.0,-35.0,-1,1.0,0.49729999999999563
201,3,0.8,0.25,35.0,1,1.0,1.1018000000001393
202,3,0.8,0.25,-35.0,-1,1.0,0.3043999999999869
203,3,0.8,0.0625,-35.0,-1,1.0,0.44070000000010623
204,3,0.8,1.0,35.0,1,1.0,4.502799999999979
205,3,0.8,0.25,-35.0,1,0.0,0.2825000000000273
206,3,0.8,0.25,-35.0,-1,1.0,0.2700000000002092
207,3,0.8,0.25,-35.0,-1,1.0,0.2638010000000577
208,3,0.2,0.125,-35.0,-1,1.0,0.3322999999999183
209,3,0.2,0.125,35.0,1,1.0,4.5125000000000455
210,3,0.2,1.0,35.0,1,1.0,0.29140000000006694
211,3,0.2,0.0,35.0,-1,0.0,0.2802010000000337
212,3,0.2,1.0,35.0,1,1.0,0.3365000000000009
213,3,0.2,0.125,-35.0,1,0.0,0.18709999999998672
214,3,0.2,0.25,35.0,1,1.0,0.7429000000000769
215,3,0.2,0.0,35.0,1,1.0,0.25060000000007676
216,3,0.2,1.0,35.0,1,1.0,0.3057009999999991
217,3,0.2,1.0,-35.0,-1,1.0,0.24080000000003565
218,3,0.2,0.0625,35.0,1,1.0,0.3760010000000875
219,3,0.2,1.0,35.0,1,1.0,0.34740000000010696
220,3,0.2,0.125,-35.0,1,0.0,0.3097009999999045
221,3,0.2,0.125,35.0,1,1.0,0.31780000000003383
222,3,0.2,0.0625,35.0,1,1.0,0.34050000000002
223,3,0.2,0.25,35.0,1,1.0,0.22120099999983722
224,3,0.2,0.125,35.0,1,1.0,0.5962999999999283
225,3,0.2,0.0,35.0,1,1.0,0.4515000000001237
226,3,0.2,1.0,35.0,1,1.0,0.3180010000000948
227,3,0.2,0.0625,35.0,1,1.0,0.27359999999998763
228,3,0.8,0.0625,-35.0,-1,1.0,0.7984000000001288
229,3,0.8,0.0,35.0,1,1.0,0.6369000000001961
230,3,0.8,0.0,35.0,1,1.0,1.1550999999999476
231,3,0.8,0.0625,-35.0,1,0.0,0.35070100000007187
232,3,0.8,1.0,-35.0,-1,1.0,0.6119000000001051
233,3,0.8,0.0625,35.0,1,1.0,2.1276000000000295
234,3,0.8,0.0625,-35.0,1,0.0,0.24240099999997256
235,3,0.8,0.0,-35.0,1,0.0,0.48170100000015736
236,3,0.8,0.0625,35.0,1,1.0,0.2726000000000113
237,3,0.8,0.25,35.0,1,1.0,0.4508000000002994
238,3,0.8,0.25,-35.0,-1,1.0,0.3426999999999225
239,3,0.8,0.0,-35.0,1,0.0,0.39780000000018845
240,3,0.8,0.125,-35.0,1,0.0,2.19620000000009
241,3,0.8,0.0625,-35.0,-1,1.0,0.8414000000000215
242,3,0.8,0.0,-35.0,1,0.0,3.3365009999999984
243,3,0.8,1.0,-35.0,-1,1.0,0.38980099999980666
244,3,0.8,0.0,-35.0,-1,1.0,3.933500000000322
245,3,0.8,0.125,35.0,1,1.0,0.3994000000000142
246,3,0.8,0.0,35.0,-1,0.0,1.9069999999999254
247,3,0.8,1.0,-35.0,-1,1.0,0.2654009999998834
248,3,0.8,0.125,35.0,1,1.0,7.337399999999889
249,3,0.8,1.0,-35.0,-1,1.0,0.33960000000001855
250,3,0.8,0.0,-35.0,-1,1.0,2.991000000000213
251,3,0.8,0.0,-35.0,-1,1.0,2.6769999999999072
252,3,0.8,0.0,-35.0,1,0.0,2.768101000000115
253,3,0.8,0.0,35.0,-1,0.0,0.3265000000001237
254,3,0.8,1.0,-35.0,-1,1.0,0.24480000000016844
255,3,0.8,1.0,-35.0,-1,1.0,0.30409999999983484
256,3,0.8,0.125,-35.0,-1,1.0,0.3383010000000013
257,3,0.8,0.0625,-35.0,-1,1.0,3.4832000000001244
258,3,0.8,0.0625,35.0,-1,0.0,0.3118010000000595
259,3,0.8,0.0,-35.0,1,0.0,0.3469009999998889
260,3,0.8,0.25,-35.0,-1,1.0,0.5620000000001255
261,3,0.8,0.0,-35.0,1,0.0,3.6342000000001917
262,3,0.2,0.25,35.0,1,1.0,0.545699999999897
263,3,0.2,0.125,-35.0,-1,1.0,0.4912010000000464
264,3,0.2,0.0,35.0,1,1.0,9.43570099999988
265,3,0.2,0.125,-35.0,-1,1.0,0.21129999999993743
266,3,0.2,0.25,35.0,1,1.0,0.7626999999999953
267,3,0.2,0.0,35.0,-1,0.0,0.5414009999999507
268,3,0.2,0.125,35.0,1,1.0,0.32960000000002765
269,3,0.2,0.25,35.0,1,1.0,0.5353000000000065
270,3,0.2,0.25,35.0,1,1.0,0.35330100000010134
271,3,0.2,1.0,-35.0,1,0.0,0.3623009999998885
272,3,0.2,0.0,-35.0,1,0.0,0.33330000000000837
273,3,0.2,0.25,35.0,1,1.0,0.3364010000000235
274,3,0.2,0.0,-35.0,-1,1.0,0.870200000000068
275,3,0.2,0.0625,35.0,-1,0.0,0.4719000000000051
276,3,0.2,0.0625,35.0,-1,0.0,0.3135010000000875
277,3,0.2,1.0,35.0,1,1.0,0.2824000000000524
278,3,0.2,1.0,35.0,1,1.0,0.3671999999999116
279,3,0.2,0.0625,35.0,1,1.0,0.4125000000001364
280,3,0.2,1.0,35.0,1,1.0,0.6342010000000755
281,3,0.2,1.0,35.0,1,1.0,3.9766000000001895
282,3,0.2,1.0,35.0,1,1.0,0.7943009999999049
283,3,0.2,0.125,35.0,1,1.0,6.932600000000093
284,3,0.2,0.0,35.0,1,1.0,1.3679000000001906
285,3,0.2,0.25,35.0,1,1.0,0.6096000000002277
286,3,0.2,0.125,35.0,1,1.0,6.398100000000113
287,3,0.2,0.0625,35.0,1,1.0,4.45659999999998
288,3,0.2,1.0,35.0,1,1.0,0.3785000000000309
289,3,0.2,0.25,-35.0,-1,1.0,0.2477010000000064
290,3,0.2,0.25,35.0,1,1.0,0.6552000000001499
291,3,0.2,1.0,-35.0,-1,1.0,0.377100000000155
292,3,0.2,1.0,35.0,1,1.0,0.515400000000227
293,3,0.2,1.0,35.0,1,1.0,0.44070099999976264
294,3,0.2,0.125,-35.0,-1,1.0,0.2454000000002452
295,3,0.2,0.0625,35.0,1,1.0,3.904801000000134
296,3,0.2,0.0,35.0,1,1.0,1.4591999999997824
297,3,0.2,0.0625,35.0,1,1.0,0.3711000000000695
298,3,0.2,1.0,35.0,1,1.0,1.2159999999998945
299,3,0.2,0.0,35.0,1,1.0,4.817900000000009
300,3,0.2,1.0,-35.0,-1,1.0,0.6361010000000533
301,3,0.2,0.25,35.0,1,1.0,0.9549010000000635
302,3,0.2,0.0625,35.0,1,1.0,3.4832000000001244
303,3,0.2,1.0,35.0,1,1.0,0.6019000000001142
304,3,0.2,1.0,35.0,1,1.0,0.30650100000002567
305,3,0.2,0.0625,35.0,1,1.0,0.34149999999999636
306,3,0.2,1.0,35.0,1,1.0,0.24350100000015118
307,3,0.2,0.125,35.0,1,1.0,0.32590000000004693
308,3,0.2,0.25,35.0,1,1.0,0.3302009999999882
309,3,0.2,0.0,35.0,1,1.0,0.3923000000002048
310,3,0.2,0.125,35.0,1,1.0,0.9536000000000513
311,3,0.2,0.25,35.0,1,1.0,0.4252010000000155
312,3,0.2,0.125,35.0,1,1.0,0.31090000000017426
313,3,0.2,0.125,35.0,1,1.0,0.36390000000005784
314,3,0.2,0.25,35.0,1,1.0,0.8473000000001321
315,3,0.2,0.0625,35.0,1,1.0,2.715900000000147
316,3,0.2,0.0,35.0,-1,0.0,3.4541999999999007
317,3,0.2,0.0625,35.0,1,1.0,0.6930010000000948
318,3,0.2,0.125,35.0,1,1.0,3.7378000000001066
319,3,0.2,1.0,35.0,1,1.0,0.6063999999998941
320,3,0.2,0.25,35.0,1,1.0,0.7880000000000109
321,3,0.2,0.0,35.0,-1,0.0,9.48310000000015
322,3,0.2,0.0,35.0,-1,0.0,12.831801000000041
323,3,0.2,0.25,35.0,1,1.0,0.5805999999997766
324,3,0.2,0.25,35.0,1,1.0,0.4124010000000453
325,3,0.2,0.25,35.0,1,1.0,0.3643000000001848
326,3,0.2,0.0,35.0,1,1.0,3.5158000000001266
327,3,0.2,0.125,35.0,1,1.0,2.8483000000001084
328,3,0.2,0.0,35.0,1,1.0,0.30270100000007005
329,3,0.2,1.0,35.0,1,1.0,0.29140000000006694
330,3,0.2,1.0,35.0,1,1.0,0.7562000000000353
331,3,0.2,1.0,35.0,1,1.0,0.35480000000029577
332,3,0.2,0.0,35.0,1,1.0,0.3465000000001055
333,3,0.2,1.0,35.0,1,1.0,0.7620010000000548
334,3,0.2,0.0625,35.0,-1,0.0,0.27350000000001273
335,3,0.2,1.0,35.0,1,1.0,0.4387000000001535
336,3,0.8,0.0,-35.0,1,0.0,2.166900000000169
337,3,0.8,0.0,-35.0,-1,1.0,0.3124000000000251
338,3,0.8,1.0,35.0,1,1.0,0.5837000000001353
339,3,0.8,0.125,35.0,1,1.0,2.320500999999922
340,3,0.8,0.0625,-35.0,1,0.0,3.993701000000101
341,3,0.8,0.0,35.0,1,1.0,1.3525010000000748
342,3,0.8,1.0,-35.0,-1,1.0,0.37409999999999854
343,3,0.8,0.125,35.0,1,1.0,0.3665000000000873
344,3,0.8,1.0,-35.0,-1,1.0,0.3276010000001861
345,3,0.8,0.0,-35.0,1,0.0,3.2264000000000124
346,3,0.8,0.0625,-35.0,-1,1.0,0.26460100000008424
347,3,0.8,1.0,-35.0,-1,1.0,0.20659999999998035
348,3,0.8,0.25,-35.0,-1,1.0,0.45790099999999256
349,3,0.8,0.25,-35.0,-1,1.0,0.5733999999999924
350,3,0.8,0.25,-35.0,-1,1.0,4.054900000000089
351,3,0.8,0.125,-35.0,1,0.0,0.4067999999999756
352,3,0.8,0.0,-35.0,-1,1.0,0.22860100000002603
353,3,0.8,0.0,35.0,1,1.0,0.42780100000004495
354,3,0.8,0.0625,-35.0,-1,1.0,0.40530100000000857
355,3,0.8,0.0,-35.0,1,0.0,1.4676010000000588
356,3,0.8,0.25,35.0,1,1.0,0.9621010000000751
357,3,0.8,0.25,-35.0,-1,1.0,0.470801000000165
358,3,0.8,0.125,-35.0,-1,1.0,0.35560099999997874
359,3,0.8,0.125,-35.0,1,0.0,1.330801000000065
360,3,0.8,0.25,35.0,1,1.0,0.5957010000001901
361,3,0.8,0.0,-35.0,1,0.0,3.1418009999999867
362,3,0.8,0.25,-35.0,1,0.0,1.893000999999913
363,3,0.8,1.0,-35.0,-1,1.0,0.3149009999997361
364,3,0.8,0.125,35.0,1,1.0,0.7265010000000984
365,3,0.8,0.0625,-35.0,1,0.0,0.23290099999985614
366,3,0.8,0.25,-35.0,-1,1.0,0.34650100000021666
367,3,0.8,0.125,35.0,1,1.0,0.3584019999998418
368,3,0.8,0.0,35.0,1,1.0,16.370002000000113
369,3,0.8,0.0625,-35.0,1,0.0,0.40300200000001496
370,3,0.8,0.25,-35.0,1,0.0,7.584100999999919
371,3,0.8,0.0,-35.0,-1,1.0,0.7161009999999806
372,3,0.8,1.0,-35.0,-1,1.0,7.6879019999998945
373,3,0.8,0.25,-35.0,-1,1.0,0.46630099999993035
374,3,0.8,1.0,35.0,1,1.0,0.9380009999999857
375,3,0.8,1.0,-35.0,-1,1.0,0.7306020000000899
376,3,0.8,1.0,35.0,1,1.0,0.6684010000001308
377,3,0.8,1.0,-35.0,-1,1.0,0.6181010000000242
378,3,0.8,1.0,-35.0,-1,1.0,5.548401999999896
379,3,0.8,0.0,-35.0,-1,1.0,0.7474010000000817
380,3,0.8,0.125,-35.0,-1,1.0,0.49210100000004786
381,3,0.8,1.0,35.0,1,1.0,3.7306009999999787
382,3,0.8,0.125,-35.0,-1,1.0,0.3557020000000648
383,3,0.8,1.0,-35.0,-1,1.0,0.28520099999991544
384,3,0.8,0.0,-35.0,-1,1.0,0.41920100000015736
385,3,0.8,0.25,35.0,1,1.0,3.0652020000002267
386,3,0.8,0.125,35.0,1,1.0,1.0991010000000188
387,3,0.8,0.0,-35.0,1,0.0,6.28100100000006
388,3,0.8,1.0,-35.0,-1,1.0,0.5463019999997414
389,3,0.8,0.0,-35.0,1,0.0,0.32240100000012717
390,3,0.8,0.0625,35.0,1,1.0,0.31970099999989543
391,3,0.8,0.0,-35.0,1,0.0,1.96540200000004
392,3,0.8,0.0625,-35.0,-1,1.0,0.246902000000091
393,3,0.8,0.125,-35.0,-1,1.0,0.24220200000013392
394,3,0.8,0.25,-35.0,-1,1.0,0.25370199999997567
395,3,0.8,0.125,-35.0,-1,1.0,0.945602000000008
396,3,0.8,0.25,-35.0,-1,1.0,0.36380099999996673
397,3,0.8,0.0625,-35.0,-1,1.0,0.31900100000007114
398,3,0.8,0.0625,35.0,1,1.0,4.563902000000098
399,3,0.8,0.25,-35.0,-1,1.0,0.23960199999987708
400,3,0.8,0.0625,-35.0,-1,1.0,0.3074010000002545
401,3,0.8,0.25,-35.0,-1,1.0,0.3726010000000315
402,3,0.8,1.0,-35.0,-1,1.0,0.3575020000000677
403,3,0.8,0.0625,-35.0,-1,1.0,0.36260100000026796
404,3,0.8,0.0,-35.0,-1,1.0,0.25440099999991617
405,3,0.8,0.25,-35.0,-1,1.0,0.34290200000009463
406,3,0.8,1.0,-35.0,-1,1.0,0.25790100000017446
407,3,0.8,0.25,-35.0,-1,1.0,0.5531009999999696
408,3,0.8,0.0625,35.0,1,1.0,4.374801000000161
409,3,0.8,1.0,-35.0,-1,1.0,0.24340100000017628
410,3,0.8,1.0,-35.0,-1,1.0,0.24170100000014827
411,3,0.8,0.25,35.0,1,1.0,3.613700999999992
412,3,0.8,1.0,35.0,1,1.0,0.35870200000022123
413,3,0.8,0.0,35.0,1,1.0,8.746801000000232
414,3,0.8,0.125,-35.0,-1,1.0,0.14900100000022576
415,3,0.8,1.0,-35.0,-1,1.0,0.20160099999998238
416,3,0.8,0.125,35.0,1,1.0,1.1123019999999997
417,3,0.8,0.0625,-35.0,-1,1.0,0.5807010000000901
418,3,0.8,1.0,-35.0,-1,1.0,0.24900099999990744
419,3,0.8,0.0625,-35.0,-1,1.0,3.9718010000001414
420,3,0.8,0.0,35.0,-1,0.0,0.2961010000001352
421,3,0.8,0.125,-35.0,-1,1.0,0.4149010000000999
422,3,0.8,0.25,-35.0,-1,1.0,0.6664009999999507
423,3,0.8,0.0,-35.0,1,0.0,21.064900999999963
424,3,0.8,0.0625,-35.0,-1,1.0,0.29700099999990925
425,3,0.8,0.0,-35.0,1,0.0,2.756701000000021
426,3,0.8,1.0,-35.0,-1,1.0,0.2171009999999569
427,3,0.8,0.0,-35.0,-1,1.0,0.2391010000001188
428,3,0.8,0.0,-35.0,-1,1.0,9.834002000000055
429,3,0.8,0.0,-35.0,1,0.0,0.50320099999999
430,3,0.8,0.25,35.0,-1,0.0,0.45110099999965314
431,3,0.8,0.0625,-35.0,-1,1.0,0.20780100000001767
432,3,0.2,1.0,35.0,1,1.0,0.9645019999998112
433,3,0.2,0.0,35.0,1,1.0,0.5265019999997094
434,3,0.2,0.125,35.0,1,1.0,0.5279009999999289
435,3,0.2,0.0625,35.0,1,1.0,0.6502009999999245
436,3,0.2,1.0,35.0,1,1.0,0.8283010000000104
437,3,0.2,0.125,-35.0,1,0.0,0.6746010000001661
438,3,0.2,0.0,35.0,1,1.0,1.7451019999998607
439,3,0.2,0.0,35.0,1,1.0,0.5471019999995406
440,3,0.2,0.125,35.0,1,1.0,0.30210200000010445
441,3,0.2,0.0,35.0,1,1.0,0.5970010000000912
442,3,0.2,0.125,35.0,1,1.0,1.058900999999878
443,3,0.2,0.0,35.0,1,1.0,2.2043009999997594
444,3,0.2,0.0,35.0,1,1.0,2.492301000000225
445,3,0.2,0.125,35.0,1,1.0,0.8479009999996379
446,3,0.2,0.25,35.0,1,1.0,0.5560009999999238
447,3,0.2,0.0625,35.0,1,1.0,0.8183020000001306
448,3,0.2,0.0625,-35.0,-1,1.0,0.3729009999997288
449,3,0.2,0.25,35.0,1,1.0,0.3695019999995566
450,3,0.2,0.125,35.0,1,1.0,0.6799009999999726
451,3,0.2,0.25,35.0,1,1.0,0.5057009999995898
452,3,0.2,0.25,35.0,1,1.0,0.6833009999995738
453,3,0.2,0.0,35.0,1,1.0,1.3391010000000279
454,3,0.2,0.0,35.0,1,1.0,1.4737009999998918
455,3,0.2,0.25,35.0,1,1.0,0.576600999999755
456,3,0.2,1.0,35.0,1,1.0,0.2439009999998234
457,3,0.2,0.0625,35.0,1,1.0,0.6325019999999313
458,3,0.2,1.0,35.0,1,1.0,0.774000999999771
459,3,0.2,0.0625,35.0,1,1.0,0.6630019999997785
460,3,0.2,0.0625,35.0,1,1.0,0.5145009999996546
461,3,0.2,0.0,35.0,1,1.0,0.5868009999999231
462,3,0.2,0.0625,35.0,1,1.0,1.0210010000000693
463,3,0.2,0.0625,35.0,1,1.0,0.8097009999996772
464,3,0.2,0.0,35.0,1,1.0,0.2047010000001137
465,3,0.2,0.125,-35.0,1,0.0,0.4336009999997259
466,3,0.2,1.0,35.0,1,1.0,0.6349009999998998
467,3,0.2,1.0,35.0,1,1.0,0.336500999999771
468,3,0.8,0.25,-35.0,-1,1.0,0.8450009999996837
469,3,0.8,0.0625,-35.0,1,0.0,1.7602010000000519
470,3,0.8,1.0,35.0,1,1.0,0.41210199999977704
471,3,0.8,0.25,-35.0,-1,1.0,0.27750099999957456
472,3,0.8,0.0,-35.0,1,0.0,0.5054009999994378
473,3,0.8,0.0,-35.0,1,0.0,2.6378019999997377
474,3,0.8,0.0625,35.0,-1,0.0,0.35230200000023615
475,3,0.8,0.0,-35.0,1,0.0,0.30570099999977174
476,3,0.8,0.0,-35.0,-1,1.0,4.861801000000014
477,3,0.8,0.0,-35.0,-1,1.0,0.8663010000000213
478,3,0.8,1.0,-35.0,-1,1.0,0.29880199999979595
479,3,0.8,0.0625,35.0,1,1.0,7.330000999999811
480,3,0.8,0.0625,35.0,-1,0.0,0.16490100000009988
481,3,0.8,0.25,35.0,1,1.0,0.6034009999993941
482,3,0.8,0.125,-35.0,-1,1.0,0.35200099999974555
483,3,0.8,1.0,-35.0,-1,1.0,0.3535019999999349
484,3,0.8,0.125,-35.0,-1,1.0,0.3891019999996388
485,3,0.8,0.25,-35.0,-1,1.0,0.24360099999967133
486,3,0.8,0.125,-35.0,-1,1.0,0.40610100000003513
487,3,0.8,0.25,-35.0,-1,1.0,0.7072020000000521
488,3,0.8,0.0625,-35.0,1,0.0,10.636000999999851
489,3,0.8,0.25,35.0,1,1.0,0.5111009999995986
490,3,0.8,0.25,-35.0,-1,1.0,0.39400099999966187
491,3,0.8,0.0,-35.0,1,0.0,3.134501999999884
492,3,0.8,0.0,-35.0,-1,1.0,0.2971010000001115
493,3,0.8,0.0,-35.0,1,0.0,1.5015019999996184
494,3,0.8,0.0,-35.0,1,0.0,0.5001009999996313
495,3,0.8,0.0,-35.0,1,0.0,2.075300999999854
496,3,0.8,0.0625,-35.0,-1,1.0,0.2612010000002556
497,3,0.8,0.0,-35.0,1,0.0,22.412001999999575
498,3,0.8,0.25,35.0,1,1.0,1.5122019999998884
499,3,0.8,0.25,-35.0,-1,1.0,0.2627009999996517
500,3,0.8,1.0,-35.0,-1,1.0,0.2923020000002907
501,3,0.8,0.25,-35.0,-1,1.0,0.4029009999999289
502,3,0.8,0.0,-35.0,-1,1.0,0.34940199999982724
503,3,0.8,1.0,-35.0,-1,1.0,0.3098009999994247
504,3,0.8,0.0625,-35.0,1,0.0,3.411501000000044
