trial_num,session_num,stim_probability_left,contrast,position,response_choice,trial_correct,reaction_time
1,5,0.5,0.5,-35.0,-1,1.0,1.5231000000000003
2,5,0.5,1.0,35.0,-1,0.0,5.4825
3,5,0.8,1.0,35.0,1,1.0,0.37480000000000047
4,5,0.5,1.0,-35.0,-1,1.0,1.3430999999999997
5,5,0.5,0.5,-35.0,-1,1.0,2.016099999999998
6,5,0.5,1.0,-35.0,-1,1.0,0.7941000000000003
7,5,0.5,1.0,-35.0,-1,1.0,5.2378
8,5,0.5,1.0,35.0,1,1.0,0.4457999999999984
9,5,0.5,1.0,35.0,1,1.0,0.5914000000000001
10,5,0.5,1.0,-35.0,-1,1.0,3.744500000000002
11,5,0.5,1.0,35.0,1,1.0,0.5457999999999998
12,5,0.5,1.0,-35.0,-1,1.0,1.7231999999999985
13,5,0.5,0.5,-35.0,-1,1.0,0.8307000000000002
14,5,0.5,0.5,35.0,-1,0.0,0.2061999999999955
15,5,0.3,0.5,-35.0,-1,1.0,1.808700000000016
16,5,0.5,1.0,35.0,1,1.0,0.265199999999993
17,5,0.5,0.5,-35.0,1,0.0,0.3674000000000035
18,5,0.5,0.5,-35.0,-1,1.0,2.4351000000000056
19,5,0.5,1.0,-35.0,1,0.0,0.2715000000000032
20,5,0.4,1.0,-35.0,1,0.0,0.5060000000000002
21,5,0.5,1.0,-35.0,-1,1.0,0.8402999999999992
22,5,0.5,1.0,35.0,-1,0.0,0.8496999999999986
23,5,0.4,1.0,35.0,1,1.0,0.7949999999999875
24,5,0.5,0.5,35.0,-1,0.0,2.5131000000000085
25,5,0.5,0.5,35.0,1,1.0,0.7532000000000068
26,5,0.5,0.5,-35.0,-1,1.0,0.9728999999999957
27,5,0.5,0.5,35.0,1,1.0,0.20669999999999789
28,5,0.5,1.0,-35.0,-1,1.0,0.8188999999999993
29,5,0.5,0.5,35.0,1,1.0,0.32049999999999557
30,5,0.5,1.0,35.0,1,1.0,0.22380000000003974
31,5,0.5,0.5,-35.0,-1,1.0,1.0944000000000074
32,5,0.5,0.5,-35.0,-1,1.0,0.31630000000001246
33,5,0.5,1.0,35.0,1,1.0,0.3522000000000105
34,5,0.5,1.0,35.0,1,1.0,0.3558999999999912
35,5,0.5,0.5,35.0,1,1.0,0.4335000000000093
36,5,0.5,0.5,-35.0,-1,1.0,4.9401000000000295
37,5,0.5,0.5,35.0,1,1.0,0.26389999999997826
38,5,0.5,0.5,35.0,1,1.0,0.39519999999998845
39,5,0.5,1.0,35.0,1,1.0,0.31159999999999854
40,5,0.5,1.0,35.0,1,1.0,0.3762000000000114
41,5,0.5,0.5,-35.0,-1,1.0,0.713799999999992
42,5,0.5,0.5,35.0,1,1.0,0.3006000000000313
43,5,0.5,0.5,-35.0,1,0.0,1.450300000000027
44,5,0.8,0.5,-35.0,1,0.0,0.18830000000002656
45,5,0.8,0.5,-35.0,1,0.0,0.22570000000001755
46,5,0.8,0.5,-35.0,-1,1.0,1.6629000000000076
47,5,0.5,1.0,-35.0,-1,1.0,0.8326000000000136
48,5,0.5,0.5,-35.0,-1,1.0,0.49739999999999895
49,5,0.5,1.0,35.0,1,1.0,0.27789999999998827
50,5,0.5,0.5,-35.0,-1,1.0,0.5818000000000154
51,5,0.5,1.0,35.0,1,1.0,0.35130000000000905
52,5,0.5,1.0,-35.0,-1,1.0,0.5208000000000368
53,5,0.5,0.5,35.0,1,1.0,0.3435000000000059
54,5,0.5,1.0,35.0,1,1.0,0.2762000000000171
55,5,0.5,1.0,35.0,1,1.0,0.24250000000000682
56,5,0.5,0.5,-35.0,1,0.0,0.2698000000000036
57,5,0.6,0.5,35.0,1,1.0,0.17180000000001883
58,5,0.5,0.5,-35.0,1,0.0,0.26940000000001874
59,5,0.8,0.5,-35.0,-1,1.0,0.3943000000000154
60,5,0.5,0.5,35.0,1,1.0,0.3294999999999959
61,5,0.5,1.0,35.0,1,1.0,0.27370000000001937
62,5,0.5,0.5,35.0,1,1.0,0.2738000000000227
63,5,0.5,1.0,35.0,1,1.0,0.26729999999997744
64,5,0.5,1.0,-35.0,-1,1.0,1.1397999999999797
65,5,0.5,1.0,-35.0,-1,1.0,0.6429999999999723
66,5,0.5,0.5,-35.0,-1,1.0,0.3458999999999719
67,5,0.5,1.0,35.0,1,1.0,0.2637999999999465
68,5,0.5,1.0,-35.0,1,0.0,0.24559999999996762
69,5,0.6,1.0,-35.0,-1,1.0,0.268100000000004
70,5,0.5,0.5,35.0,1,1.0,0.3970000000000482
71,5,0.5,1.0,35.0,1,1.0,0.17899999999991678
72,5,0.5,0.5,35.0,1,1.0,0.282100000000014
73,5,0.5,0.5,35.0,1,1.0,0.31169999999997344
74,5,0.5,1.0,35.0,-1,0.0,2.2992999999999597
75,5,0.6,1.0,-35.0,-1,1.0,0.5685000000000286
76,5,0.5,1.0,-35.0,-1,1.0,0.7567999999999415
77,5,0.5,0.5,35.0,1,1.0,0.21910000000002583
78,5,0.5,1.0,35.0,1,1.0,0.18779999999998154
79,5,0.5,1.0,-35.0,-1,1.0,1.1709000000000174
80,5,0.5,1.0,35.0,1,1.0,0.22599999999994225
81,5,0.5,0.5,35.0,1,1.0,0.1127999999999929
82,5,0.5,0.5,-35.0,-1,1.0,0.5672999999999888
83,5,0.5,1.0,35.0,1,1.0,0.34669999999999845
84,5,0.5,1.0,35.0,1,1.0,0.28879999999998063
85,5,0.5,1.0,-35.0,-1,1.0,0.41669999999999163
86,5,0.5,1.0,35.0,1,1.0,0.29129999999997835
87,5,0.5,1.0,35.0,1,1.0,0.36650000000003047
88,5,0.5,0.5,35.0,1,1.0,0.3484999999999445
89,5,0.5,0.5,-35.0,-1,1.0,0.8853000000000293
90,5,0.5,1.0,35.0,1,1.0,0.20620000000002392
91,5,0.5,1.0,-35.0,1,0.0,0.11360000000001946
92,5,0.7,1.0,-35.0,1,0.0,0.6266999999999712
93,5,0.8,1.0,-35.0,-1,1.0,0.35259999999999536
94,5,0.5,1.0,-35.0,-1,1.0,0.4467999999999961
95,5,0.5,0.5,35.0,1,1.0,0.3328000000000202
96,5,0.5,0.5,35.0,1,1.0,0.2636999999999716
97,5,0.5,0.5,35.0,1,1.0,0.4712999999999852
98,5,0.5,0.5,-35.0,-1,1.0,0.2706999999999766
99,5,0.5,0.5,35.0,1,1.0,0.36009999999998854
100,5,0.5,1.0,35.0,1,1.0,0.24750000000000227
101,5,0.5,1.0,35.0,1,1.0,0.29209999999994807
102,5,0.5,1.0,35.0,1,1.0,0.2514000000000465
103,5,0.5,0.5,35.0,-1,0.0,0.1604000000000383
104,5,0.7,0.5,35.0,1,1.0,0.25029999999998154
105,5,0.5,0.5,-35.0,-1,1.0,0.5074999999999932
106,5,0.5,1.0,-35.0,-1,1.0,0.4630000000000223
107,5,0.5,1.0,35.0,1,1.0,0.29129999999997835
108,5,0.5,0.5,-35.0,-1,1.0,0.6480000000000246
109,5,0.5,1.0,-35.0,-1,1.0,0.9110000000000014
110,5,0.5,0.5,-35.0,1,0.0,0.47690000000000055
111,5,0.5,0.5,-35.0,-1,1.0,0.8322999999999752
112,5,0.5,0.5,35.0,1,1.0,0.29949999999996635
113,5,0.5,0.5,35.0,1,1.0,0.373299999999972
114,5,0.5,0.5,35.0,1,1.0,0.10809999999997899
115,5,0.5,0.5,-35.0,-1,1.0,0.43870000000003984
116,5,0.5,1.0,-35.0,-1,1.0,2.6999000000000137
117,5,0.5,0.5,35.0,1,1.0,0.4408000000000243
118,5,0.5,0.5,35.0,-1,0.0,0.11719999999996844
119,5,0.5,0.5,-35.0,-1,1.0,0.7457999999999743
120,5,0.5,0.5,35.0,1,1.0,0.2590999999999326
121,5,0.5,1.0,-35.0,-1,1.0,0.23409999999995534
122,5,0.5,1.0,-35.0,-1,1.0,0.7382999999999242
123,5,0.5,0.5,35.0,1,1.0,0.23480000000006385
124,5,0.5,0.5,35.0,1,1.0,0.13239999999996144
125,5,0.5,1.0,35.0,1,1.0,0.24280000000010205
126,5,0.5,0.5,-35.0,1,0.0,0.3410999999999831
127,5,0.6,0.5,35.0,1,1.0,0.26130000000000564
128,5,0.5,1.0,35.0,-1,0.0,2.727600000000166
129,5,0.6,1.0,-35.0,-1,1.0,0.7906000000000404
130,5,0.5,1.0,-35.0,-1,1.0,0.24610000000006949
131,5,0.5,0.5,-35.0,1,0.0,0.1594000000000051
132,5,0.6,0.5,-35.0,-1,1.0,0.7975999999999885
133,5,0.5,0.5,35.0,1,1.0,0.17430000000001655
134,5,0.5,0.5,-35.0,-1,1.0,3.947900000000004
135,5,0.5,1.0,35.0,1,1.0,0.23249999999995907
136,5,0.5,0.5,35.0,1,1.0,0.34979999999995925
137,5,0.5,0.5,35.0,1,1.0,0.268100000000004
138,5,0.5,0.5,35.0,1,1.0,0.53449999999998
139,5,0.5,1.0,-35.0,1,0.0,0.1512000000000171
140,5,0.7,1.0,-35.0,1,0.0,0.0845000000000482
141,5,0.8,1.0,35.0,1,1.0,0.32360000000005584
142,5,0.5,0.5,-35.0,-1,1.0,0.8145000000000664
143,5,0.5,0.5,-35.0,1,0.0,0.3506000000000995
144,5,0.8,0.5,-35.0,1,0.0,0.3322999999999183
145,5,0.9,0.5,-35.0,-1,1.0,0.3041000000000622
146,5,0.5,1.0,-35.0,-1,1.0,0.148900000000026
147,5,0.5,0.5,35.0,1,1.0,0.18460000000004584
148,5,0.5,0.5,35.0,1,1.0,0.2676000000000158
149,5,0.5,1.0,35.0,1,1.0,0.31179999999994834
150,5,0.5,0.5,35.0,-1,0.0,0.1087000000001126
151,5,0.6,0.5,-35.0,-1,1.0,2.887100000000146
152,5,0.5,0.5,-35.0,-1,1.0,0.8021000000001095
153,5,0.5,0.5,-35.0,-1,1.0,0.9157000000000153
154,5,0.5,0.5,-35.0,-1,1.0,0.5866000000000895
155,5,0.5,1.0,-35.0,-1,1.0,0.5652000000000044
156,5,0.5,1.0,35.0,1,1.0,0.26880000000005566
157,5,0.5,1.0,35.0,1,1.0,0.3826999999999998
158,5,0.5,1.0,-35.0,-1,1.0,1.4127000000000862
159,5,0.5,0.5,35.0,1,1.0,0.42020000000013624
160,5,0.5,0.5,-35.0,-1,1.0,0.3966000000001486
161,5,0.5,0.5,35.0,1,1.0,0.3530000000000655
162,5,0.5,0.5,35.0,1,1.0,0.4913999999999987
163,5,0.5,0.5,35.0,1,1.0,0.22050000000001546
164,5,0.5,0.5,35.0,1,1.0,0.31340000000000146
165,5,0.5,0.5,-35.0,-1,1.0,0.6503000000000156
166,5,0.5,1.0,-35.0,-1,1.0,0.37740000000007967
167,5,0.5,1.0,35.0,1,1.0,0.3564999999999827
168,5,0.5,1.0,-35.0,-1,1.0,0.4197000000000344
169,5,0.5,0.5,-35.0,-1,1.0,0.9182000000001835
170,5,0.5,0.5,35.0,1,1.0,0.4113999999999578
171,5,0.5,1.0,35.0,1,1.0,0.2600999999999658
172,5,0.5,1.0,-35.0,-1,1.0,1.1177000000001271
173,5,0.5,0.5,35.0,1,1.0,0.30719999999996617
174,5,0.5,1.0,-35.0,-1,1.0,0.7583000000000766
175,5,0.5,1.0,35.0,1,1.0,0.39230000000009113
176,5,0.5,1.0,-35.0,-1,1.0,1.1270000000000664
177,5,0.5,1.0,-35.0,-1,1.0,0.5800000000001546
178,5,0.5,0.5,-35.0,-1,1.0,0.7848999999999933
179,5,0.5,1.0,35.0,1,1.0,0.1331000000000131
180,5,0.5,0.5,-35.0,-1,1.0,0.15800000000001546
181,5,0.5,0.5,35.0,1,1.0,0.09900000000016007
182,5,0.5,0.5,35.0,1,1.0,0.18620000000009895
183,5,0.5,1.0,35.0,1,1.0,0.3768999999999778
184,5,0.5,1.0,35.0,1,1.0,0.21849999999994907
185,5,0.5,1.0,-35.0,-1,1.0,0.8007999999999811
186,5,0.5,1.0,35.0,1,1.0,0.5737000000000307
187,5,0.5,0.5,35.0,1,1.0,0.4068999999999505
188,5,0.5,1.0,35.0,1,1.0,0.10360000000002856
189,5,0.5,0.5,35.0,1,1.0,0.494199999999978
190,5,0.5,0.5,-35.0,-1,1.0,1.2329999999999472
191,5,0.5,0.5,35.0,1,1.0,0.21439999999995507
192,5,0.5,1.0,35.0,-1,0.0,1.0820000000001073
193,5,0.7,1.0,-35.0,-1,1.0,0.22050000000012915
194,5,0.5,1.0,-35.0,-1,1.0,0.20150000000001
195,5,0.5,0.5,-35.0,-1,1.0,2.5463000000000875
196,5,0.5,0.5,35.0,1,1.0,0.24720000000002074
197,5,0.5,1.0,-35.0,1,0.0,0.47069999999996526
198,5,0.5,1.0,35.0,1,1.0,0.29310000000009495
199,5,0.5,0.5,35.0,1,1.0,0.21810000000004948
200,5,0.5,0.5,-35.0,-1,1.0,0.3201000000000249
201,5,0.5,0.5,35.0,1,1.0,0.26900000000000546
202,5,0.5,0.5,-35.0,-1,1.0,0.12310000000002219
203,5,0.5,1.0,35.0,1,1.0,0.20210000000008677
204,5,0.5,1.0,35.0,1,1.0,0.23640000000011696
205,5,0.5,0.5,35.0,1,1.0,0.2113000000000511
206,5,0.5,0.5,-35.0,1,0.0,0.25519999999994525
207,5,0.8,0.5,-35.0,1,0.0,0.3929000000001679
208,5,0.8,0.5,-35.0,-1,1.0,0.6052000000000817
209,5,0.5,1.0,-35.0,-1,1.0,0.2380000000000564
210,5,0.5,0.5,35.0,1,1.0,0.19570000000010168
211,5,0.5,0.5,35.0,1,1.0,0.330600000000004
212,5,0.5,0.5,-35.0,1,0.0,0.08389999999997144
213,5,0.8,0.5,-35.0,-1,1.0,0.8069000000000415
214,5,0.5,0.5,-35.0,1,0.0,0.23120000000005803
215,5,0.7,0.5,35.0,1,1.0,0.36799999999993815
216,5,0.5,1.0,35.0,1,1.0,0.2807999999999993
217,5,0.5,1.0,35.0,1,1.0,0.22720000000003893
218,5,0.5,0.5,35.0,1,1.0,0.20529999999996562
219,5,0.5,1.0,35.0,1,1.0,0.6384000000000469
220,5,0.5,1.0,-35.0,-1,1.0,0.2765000000000555
221,5,0.5,1.0,-35.0,-1,1.0,0.6240000000000236
222,5,0.5,1.0,-35.0,1,0.0,0.2539990000001353
223,5,0.7,1.0,35.0,1,1.0,0.3525000000000773
224,5,0.5,0.5,35.0,1,1.0,0.2903999999999769
225,5,0.5,0.5,-35.0,-1,1.0,0.6376000000000204
226,5,0.5,0.5,35.0,1,1.0,0.20720000000005712
227,5,0.5,1.0,35.0,1,1.0,0.21820000000002437
228,5,0.5,0.5,-35.0,-1,1.0,0.5772000000000617
229,5,0.5,1.0,-35.0,1,0.0,0.2717000000000098
230,5,0.6,1.0,35.0,1,1.0,0.26740000000006603
231,5,0.5,0.5,-35.0,-1,1.0,0.65199999999993
232,5,0.5,0.5,-35.0,-1,1.0,0.8177000000000589
233,5,0.5,1.0,-35.0,1,0.0,0.38200000000006185
234,5,0.6,1.0,-35.0,-1,1.0,0.16430000000013933
235,5,0.5,1.0,35.0,1,1.0,0.3488999999999578
236,5,0.5,1.0,-35.0,-1,1.0,0.4080999999998767
237,5,0.5,0.5,-35.0,1,0.0,0.17249999999989996
238,5,0.5,0.5,-35.0,-1,1.0,0.16489999999976135
239,5,0.5,1.0,35.0,1,1.0,0.30930000000012114
240,5,0.5,1.0,-35.0,1,0.0,0.3119000000001506
241,5,0.5,1.0,35.0,1,1.0,0.3528999999998632
242,5,0.5,0.5,-35.0,-1,1.0,0.8483999999998559
243,5,0.5,0.5,35.0,1,1.0,0.36639999999988504
244,5,0.5,1.0,-35.0,-1,1.0,0.7788000000000466
245,5,0.5,1.0,-35.0,-1,1.0,0.523200000000088
246,5,0.5,1.0,35.0,1,1.0,0.38209999999980937
247,5,0.5,1.0,-35.0,-1,1.0,0.6634000000001379
248,5,0.5,1.0,-35.0,-1,1.0,0.18329999999969004
249,5,0.5,0.5,35.0,1,1.0,0.23900000000003274
250,5,0.5,0.5,-35.0,-1,1.0,0.5936999999998989
251,5,0.5,1.0,-35.0,1,0.0,0.1494999999997617
252,5,0.4,1.0,35.0,1,1.0,0.18709999999987303
253,5,0.5,0.5,-35.0,-1,1.0,0.8402000000000953
254,5,0.5,0.5,-35.0,-1,1.0,0.7373000000000047
255,5,0.5,0.5,-35.0,-1,1.0,1.720199999999977
256,5,0.5,0.5,35.0,1,1.0,0.14089999999987413
257,5,0.5,1.0,35.0,1,1.0,0.36039999999979955
258,5,0.5,1.0,-35.0,-1,1.0,1.124599999999873
259,5,0.5,0.5,35.0,1,1.0,0.3145999999999276
260,5,0.5,1.0,35.0,1,1.0,0.23359999999979664
261,5,0.5,1.0,35.0,1,1.0,0.24469999999996617
262,5,0.5,0.5,-35.0,-1,1.0,0.6837000000000444
263,5,0.5,1.0,-35.0,-1,1.0,0.1516999999998916
264,5,0.5,1.0,35.0,1,1.0,0.280699999999797
265,5,0.5,0.5,-35.0,-1,1.0,0.6651999999999134
266,5,0.5,1.0,-35.0,1,0.0,0.23759999999992942
267,5,0.6,1.0,-35.0,-1,1.0,0.7576999999998861
268,5,0.5,0.5,-35.0,-1,1.0,0.522099999999682
269,5,0.5,1.0,35.0,1,1.0,0.3009999999999309
270,5,0.5,0.5,35.0,1,1.0,0.5021999999999025
271,5,0.5,0.5,-35.0,-1,1.0,0.3511999999998352
272,5,0.5,0.5,35.0,1,1.0,0.44249999999988177
273,5,0.5,0.5,35.0,1,1.0,0.3449000000000524
274,5,0.5,0.5,-35.0,-1,1.0,0.44269999999983156
275,5,0.5,0.5,-35.0,-1,1.0,1.1990000000000691
276,5,0.5,1.0,35.0,1,1.0,0.23309999999969477
277,5,0.5,0.5,35.0,1,1.0,0.17859999999996035
278,5,0.5,1.0,35.0,1,1.0,0.3331999999998061
279,5,0.5,1.0,35.0,1,1.0,0.1960999999998876
280,5,0.5,0.5,-35.0,-1,1.0,0.2966999999998734
281,5,0.5,1.0,35.0,-1,0.0,1.1956999999997606
282,5,0.6,1.0,-35.0,-1,1.0,0.4337000000000444
283,5,0.5,1.0,-35.0,1,0.0,0.1329000000000633
284,5,0.5,1.0,-35.0,-1,1.0,0.2770999999997912
285,5,0.5,0.5,-35.0,1,0.0,0.2762999999997646
286,5,0.6,0.5,35.0,-1,0.0,3.0540000000000873
287,5,0.5,0.5,-35.0,-1,1.0,4.840099999999666
288,5,0.5,1.0,-35.0,1,0.0,0.41109999999980573
289,5,0.4,1.0,-35.0,-1,1.0,0.6603999999997541
290,5,0.5,0.5,-35.0,1,0.0,0.1812999999999647
291,5,0.4,0.5,-35.0,-1,1.0,0.2903999999998632
292,5,0.5,1.0,-35.0,-1,1.0,0.5213999999998578
293,5,0.5,0.5,-35.0,-1,1.0,1.490199999999959
294,5,0.5,0.5,35.0,1,1.0,0.9350999999999203
295,5,0.5,0.5,-35.0,-1,1.0,0.7605000000000928
296,5,0.5,1.0,35.0,1,1.0,0.2984999999998763
297,5,0.5,1.0,35.0,1,1.0,0.27140000000008513
298,5,0.5,0.5,-35.0,-1,1.0,0.42869999999993524
299,5,0.5,0.5,35.0,1,1.0,0.20109999999999673
300,5,0.5,1.0,-35.0,-1,1.0,0.8057000000001153
301,5,0.5,1.0,-35.0,1,0.0,0.2781999999999698
302,5,0.5,1.0,-35.0,-1,1.0,0.5957999999998265
303,5,0.5,1.0,35.0,1,1.0,0.1982999999997901
304,5,0.5,0.5,35.0,1,1.0,0.3260999999999967
305,5,0.5,1.0,35.0,1,1.0,0.1352999999999156
306,5,0.5,1.0,-35.0,1,0.0,0.339799999999741
307,5,0.7,1.0,-35.0,1,0.0,0.22539999999980864
308,5,0.7,1.0,-35.0,1,0.0,0.10659999999984393
309,5,0.8,1.0,-35.0,-1,1.0,0.8498999999999342
310,5,0.5,1.0,-35.0,1,0.0,0.21920000000000073
311,5,0.8,1.0,-35.0,-1,1.0,0.29359999999974207
312,5,0.5,0.5,-35.0,-1,1.0,0.23289999999997235
313,5,0.5,0.5,-35.0,-1,1.0,0.7871000000000095
314,5,0.5,0.5,35.0,1,1.0,0.21630000000004657
315,5,0.5,1.0,35.0,1,1.0,0.29399999999986903
316,5,0.5,0.5,35.0,1,1.0,0.24299999999993815
317,5,0.5,1.0,-35.0,1,0.0,0.27749999999991815
318,5,0.6,1.0,35.0,1,1.0,0.44010000000002947
319,5,0.5,0.5,-35.0,-1,1.0,0.64449999999988
320,5,0.5,1.0,35.0,1,1.0,0.26340000000004693
321,5,0.5,1.0,-35.0,-1,1.0,0.5343999999997777
322,5,0.5,1.0,35.0,1,1.0,0.23379999999974643
323,5,0.5,0.5,35.0,1,1.0,0.29460000000017317
324,5,0.5,0.5,-35.0,-1,1.0,2.1338999999998123
325,5,0.5,0.5,-35.0,-1,1.0,0.3183999999998832
326,5,0.5,1.0,35.0,1,1.0,0.2474000000001979
327,5,0.5,0.5,35.0,1,1.0,0.31199999999989814
328,5,0.5,0.5,-35.0,-1,1.0,0.7610999999999422
329,5,0.5,0.5,35.0,1,1.0,0.24559999999996762
330,5,0.5,0.5,-35.0,-1,1.0,0.19769999999971333
331,5,0.5,0.5,35.0,1,1.0,0.5122999999998683
332,5,0.5,0.5,35.0,1,1.0,0.23510000000010223
333,5,0.5,1.0,-35.0,1,0.0,0.18249999999989086
334,5,0.6,1.0,-35.0,1,0.0,0.31510000000002947
335,5,0.7,1.0,-35.0,-1,1.0,1.5693999999998596
336,5,0.5,1.0,-35.0,-1,1.0,0.4986999999998716
337,5,0.5,0.5,-35.0,1,0.0,0.11630000000013752
338,5,0.6,0.5,-35.0,-1,1.0,0.5251999999998134
339,5,0.5,0.5,-35.0,-1,1.0,0.6832999999999174
340,5,0.5,1.0,35.0,1,1.0,0.2694000000001324
341,5,0.5,0.5,35.0,1,1.0,0.7001999999999953
342,5,0.5,0.5,-35.0,-1,1.0,0.6726999999998498
343,5,0.5,0.5,35.0,1,1.0,0.2669999999998254
344,5,0.5,0.5,-35.0,1,0.0,0.34960000000000946
345,5,0.5,0.5,-35.0,-1,1.0,0.9505999999998949
346,5,0.5,1.0,35.0,1,1.0,0.3632999999997537
347,5,0.5,0.5,35.0,1,1.0,0.25060000000007676
348,5,0.5,1.0,-35.0,-1,1.0,0.33349999999995816
349,5,0.5,0.5,-35.0,-1,1.0,0.6308999999998832
350,5,0.5,1.0,35.0,1,1.0,0.3566000000000713
351,5,0.5,0.5,35.0,1,1.0,0.35779999999999745
352,5,0.5,0.5,35.0,1,1.0,0.2337999999999738
353,5,0.5,1.0,-35.0,-1,1.0,0.5148999999998978
354,5,0.5,0.5,-35.0,-1,1.0,0.8637999999998556
355,5,0.5,1.0,-35.0,-1,1.0,0.18829999999979918
356,5,0.5,0.5,35.0,1,1.0,0.5775999999998476
357,5,0.5,0.5,-35.0,-1,1.0,0.6485999999999876
358,5,0.5,1.0,-35.0,-1,1.0,0.4919999999999618
359,5,0.5,0.5,-35.0,-1,1.0,1.8454999999999018
360,5,0.5,1.0,-35.0,1,0.0,0.2518000000000029
361,5,0.4,1.0,-35.0,-1,1.0,0.57549999999992
362,5,0.5,0.5,-35.0,-1,1.0,1.9613999999999123
363,5,0.5,0.5,-35.0,-1,1.0,1.5893999999998414
364,5,0.5,0.5,-35.0,1,0.0,0.37190099999997983
365,5,0.3,0.5,-35.0,-1,1.0,2.856200999999828
366,5,0.5,0.5,35.0,1,1.0,0.4090009999999893
367,5,0.5,1.0,-35.0,-1,1.0,0.5231009999997696
368,5,0.5,1.0,35.0,1,1.0,0.40220099999987724
369,5,0.5,0.5,35.0,1,1.0,0.18990099999996346
370,5,0.5,0.5,-35.0,-1,1.0,0.6190010000000257
371,5,0.5,1.0,-35.0,-1,1.0,0.550300999999763
372,5,0.5,0.5,-35.0,-1,1.0,0.5562009999998736
373,5,0.5,0.5,-35.0,-1,1.0,0.9804009999998016
374,5,0.5,0.5,-35.0,-1,1.0,1.1997009999997772
375,5,0.5,1.0,35.0,1,1.0,0.283900999999787
376,5,0.5,1.0,35.0,1,1.0,0.21990099999993618
377,5,0.5,0.5,35.0,1,1.0,0.24070099999971717
378,5,0.5,0.5,-35.0,-1,1.0,0.30320099999994454
379,5,0.5,1.0,35.0,1,1.0,0.2876009999999951
380,5,0.5,0.5,-35.0,-1,1.0,0.7236009999999169
381,5,0.5,1.0,35.0,1,1.0,0.31450100000006387
382,5,0.5,0.5,-35.0,-1,1.0,0.35730100000000675
383,5,0.5,0.5,-35.0,-1,1.0,0.5547009999997954
384,5,0.5,1.0,35.0,1,1.0,0.5206010000001697
385,5,0.5,1.0,35.0,1,1.0,0.21160099999997328
386,5,0.5,1.0,-35.0,-1,1.0,0.6639009999998962
387,5,0.5,0.5,-35.0,-1,1.0,0.33530100000007224
388,5,0.5,1.0,35.0,1,1.0,0.20090099999993072
389,5,0.5,1.0,35.0,1,1.0,0.11870100000010098
390,5,0.5,1.0,-35.0,-1,1.0,0.9111009999999169
391,5,0.5,0.5,35.0,1,1.0,0.22230100000001585
392,5,0.5,1.0,-35.0,-1,1.0,0.8080009999998765
393,5,0.5,1.0,-35.0,-1,1.0,1.7124009999999998
394,5,0.5,1.0,35.0,1,1.0,0.23190100000010716
395,5,0.5,1.0,35.0,1,1.0,0.30930100000000493
396,5,0.5,1.0,35.0,1,1.0,0.10200099999974555
397,5,0.5,0.5,-35.0,1,0.0,0.40620100000001
398,5,0.7,0.5,-35.0,-1,1.0,0.6556010000001606
399,5,0.5,0.5,35.0,1,1.0,0.2763009999998758
400,5,0.5,0.5,35.0,1,1.0,0.3258009999999558
401,5,0.5,0.5,35.0,1,1.0,0.3266009999999824
402,5,0.5,1.0,-35.0,-1,1.0,0.5259009999999762
403,5,0.5,1.0,-35.0,-1,1.0,0.6901009999999133
404,5,0.5,1.0,35.0,1,1.0,0.31570099999999
405,5,0.5,1.0,-35.0,-1,1.0,0.8137010000000373
406,5,0.5,1.0,-35.0,-1,1.0,0.6829009999999016
407,5,0.5,1.0,35.0,1,1.0,0.310600999999906
408,5,0.5,1.0,-35.0,-1,1.0,0.6499009999999998
409,5,0.5,0.5,-35.0,-1,1.0,0.8309010000000399
410,5,0.5,0.5,35.0,1,1.0,0.36360099999978956
411,5,0.5,0.5,-35.0,-1,1.0,0.7902009999997972
412,5,0.5,1.0,-35.0,-1,1.0,0.5811009999999897
413,5,0.5,1.0,-35.0,1,0.0,0.1534009999998034
414,5,0.4,1.0,-35.0,-1,1.0,0.7480009999997037
415,5,0.5,1.0,-35.0,-1,1.0,0.3906009999998332
416,5,0.5,0.5,35.0,1,1.0,0.2215009999999893
417,5,0.5,1.0,35.0,1,1.0,0.13750099999992926
418,5,0.5,1.0,-35.0,1,0.0,0.10500099999990198
419,5,0.5,1.0,-35.0,-1,1.0,0.4977010000000064
420,5,0.5,1.0,-35.0,-1,1.0,1.00520100000017
421,5,0.5,0.5,-35.0,1,0.0,0.3312010000001919
422,5,0.5,0.5,-35.0,1,0.0,0.5220009999998183
423,5,0.6,0.5,-35.0,-1,1.0,8.044801000000007
424,5,0.5,0.5,-35.0,-1,1.0,2.152600999999777
425,5,0.5,1.0,-35.0,-1,1.0,2.4150009999998474
426,5,0.5,1.0,-35.0,-1,1.0,0.6628009999997175
427,5,0.5,0.5,35.0,1,1.0,0.2686009999997623
428,5,0.5,0.5,-35.0,1,0.0,0.13970100000005914
429,5,0.4,0.5,35.0,1,1.0,0.2822009999999864
430,5,0.5,1.0,35.0,1,1.0,0.3199009999998452
431,5,0.5,0.5,35.0,1,1.0,0.2824009999999362
432,5,0.5,1.0,-35.0,-1,1.0,3.2468009999997776
433,5,0.5,1.0,35.0,1,1.0,0.31560099999978775
434,5,0.5,1.0,35.0,1,1.0,0.27380100000027596
435,5,0.5,0.5,35.0,1,1.0,0.2762009999996735
436,5,0.5,1.0,-35.0,-1,1.0,0.33060100000011516
437,5,0.5,1.0,-35.0,-1,1.0,0.6497009999998227
438,5,0.5,0.5,-35.0,-1,1.0,1.0807009999998627
439,5,0.5,0.5,-35.0,-1,1.0,0.5566009999997732
440,5,0.5,1.0,35.0,1,1.0,0.28420100000039383
441,5,0.5,0.5,35.0,1,1.0,0.2835009999998874
442,5,0.5,0.5,-35.0,-1,1.0,0.6010009999999966
443,5,0.5,0.5,-35.0,-1,1.0,0.8906010000000606
444,5,0.5,1.0,35.0,1,1.0,0.3347009999997681
445,5,0.5,0.5,-35.0,-1,1.0,5.847000999999636
446,5,0.5,1.0,-35.0,-1,1.0,0.12830099999973754
447,5,0.5,1.0,-35.0,-1,1.0,5.074801000000207
448,5,0.5,0.5,35.0,1,1.0,0.5621009999995294
449,5,0.5,0.5,-35.0,-1,1.0,1.737800999999763
450,5,0.5,1.0,35.0,1,1.0,0.23570100000006278
451,5,0.5,0.5,35.0,1,1.0,0.15160100000002785
452,5,0.5,1.0,35.0,1,1.0,0.26910099999986414
453,5,0.5,1.0,35.0,1,1.0,0.12170100000003004
454,5,0.5,0.5,35.0,1,1.0,0.09600099999988743
455,5,0.5,0.5,-35.0,1,0.0,0.33520099999986996
456,5,0.7,0.5,-35.0,-1,1.0,0.9995009999997819
457,5,0.5,1.0,-35.0,-1,1.0,0.8718009999997776
458,5,0.5,0.5,-35.0,-1,1.0,0.676401000000169
459,5,0.5,1.0,-35.0,1,0.0,0.35910100000000966
460,5,0.7,1.0,35.0,1,1.0,0.38000099999999293
461,5,0.5,1.0,35.0,1,1.0,0.1525010000000293
462,5,0.5,1.0,35.0,1,1.0,0.11690099999987069
463,5,0.5,0.5,-35.0,-1,1.0,1.06570099999999
464,5,0.5,1.0,35.0,1,1.0,0.32690099999990707
465,5,0.5,0.5,-35.0,-1,1.0,0.3962010000000191
466,5,0.5,0.5,35.0,1,1.0,0.26710099999991144
467,5,0.5,1.0,-35.0,1,0.0,0.3764009999999871
468,5,0.7,1.0,35.0,1,1.0,0.4408010000001923
469,5,0.5,1.0,-35.0,1,0.0,0.36980099999982485
470,5,0.8,1.0,35.0,1,1.0,0.46430099999997765
471,5,0.5,0.5,-35.0,-1,1.0,1.2301010000001042
472,5,0.5,0.5,35.0,1,1.0,0.557901000000129
473,5,0.5,1.0,35.0,1,1.0,0.30700100000012753
474,5,0.5,1.0,35.0,1,1.0,0.2947009999998045
475,5,0.5,1.0,35.0,1,1.0,0.38380099999994854
476,5,0.5,0.5,-35.0,1,0.0,1.3717009999995753
477,5,0.9,0.5,-35.0,-1,1.0,0.3644009999998161
478,5,0.5,1.0,-35.0,-1,1.0,1.0619010000000344
479,5,0.5,0.5,-35.0,-1,1.0,0.4743010000001959
480,5,0.5,1.0,-35.0,-1,1.0,0.6920009999998911
481,5,0.5,1.0,-35.0,-1,1.0,1.4449009999998452
482,5,0.5,1.0,-35.0,-1,1.0,0.405500999999731
483,5,0.5,0.5,35.0,-1,0.0,1.6314010000000962
484,5,0.3,0.5,35.0,-1,0.0,6.442400999999791
485,5,0.2,0.5,-35.0,-1,1.0,0.38190099999974336
486,5,0.5,1.0,-35.0,-1,1.0,0.4927009999996699
487,5,0.5,0.5,-35.0,-1,1.0,0.4085009999998874
488,5,0.5,1.0,35.0,1,1.0,0.4961009999997259
489,5,0.5,1.0,35.0,1,1.0,0.24520099999972444
490,5,0.5,0.5,35.0,1,1.0,0.32960099999991144
491,5,0.5,1.0,-35.0,-1,1.0,0.6356009999999515
492,5,0.5,0.5,-35.0,-1,1.0,0.7231010000000424
493,5,0.5,0.5,-35.0,-1,1.0,0.9223010000000613
494,5,0.5,1.0,35.0,1,1.0,0.2766009999995731
495,5,0.5,0.5,-35.0,1,0.0,0.2194009999998343
496,5,0.5,0.5,-35.0,-1,1.0,0.3536010000002534
497,5,0.5,1.0,35.0,1,1.0,0.33620100000052844
498,5,0.5,1.0,35.0,1,1.0,0.28050100000018574
499,5,0.5,1.0,-35.0,-1,1.0,1.9734009999997397
500,5,0.5,0.5,35.0,1,1.0,0.30390099999976883
501,5,0.5,0.5,-35.0,-1,1.0,0.6134010000000671
502,5,0.5,1.0,35.0,1,1.0,0.21070099999997183
503,5,0.5,0.5,-35.0,1,0.0,0.18660100000033708
504,5,0.7,0.5,-35.0,-1,1.0,0.49100099999986924
505,5,0.5,1.0,-35.0,-1,1.0,0.6171009999998205
506,5,0.5,0.5,-35.0,-1,1.0,0.5579009999996742
507,5,0.5,1.0,-35.0,-1,1.0,0.4739009999998416
508,5,0.5,0.5,35.0,1,1.0,0.4613009999998212
509,5,0.5,0.5,-35.0,-1,1.0,0.24050099999976737
510,5,0.5,0.5,35.0,1,1.0,0.11130099999991216
511,5,0.5,0.5,35.0,1,1.0,0.19830099999990125
512,5,0.5,1.0,-35.0,-1,1.0,3.164400999999998
513,5,0.5,0.5,35.0,1,1.0,0.24530099999992672
514,5,0.5,1.0,35.0,1,1.0,0.484400999999707
515,5,0.5,0.5,-35.0,-1,1.0,0.1720009999994545
516,5,0.5,1.0,35.0,1,1.0,0.3210009999997965
517,5,0.5,1.0,-35.0,-1,1.0,0.28550099999984013
518,5,0.5,0.5,-35.0,-1,1.0,0.46780100000023594
519,5,0.5,0.5,-35.0,-1,1.0,2.205601000000115
520,5,0.5,0.5,35.0,1,1.0,0.3081010000000788
521,5,0.5,1.0,35.0,1,1.0,0.23930099999961385
522,5,0.5,1.0,35.0,1,1.0,0.3381009999998241
523,5,0.5,0.5,-35.0,1,0.0,0.286000999999942
524,5,0.6,0.5,-35.0,-1,1.0,1.925300999999763
525,5,0.5,1.0,-35.0,-1,1.0,0.6463009999997666
526,5,0.5,0.5,35.0,1,1.0,0.29220100000020466
527,5,0.5,1.0,-35.0,-1,1.0,0.8632010000001173
528,5,0.5,0.5,-35.0,-1,1.0,2.0957009999997354
529,5,0.5,0.5,35.0,-1,0.0,0.5234009999999216
530,5,0.5,0.5,35.0,-1,0.0,0.5528009999998176
531,5,0.4,0.5,35.0,1,1.0,0.39690099999961603
532,5,0.5,1.0,35.0,1,1.0,0.43580100000008315
533,5,0.5,0.5,35.0,1,1.0,0.6637010000004011
534,5,0.5,0.5,-35.0,-1,1.0,3.0028009999996357
535,5,0.5,0.5,35.0,1,1.0,0.42380099999991216
536,5,0.5,1.0,-35.0,-1,1.0,0.3596009999996568
537,5,0.5,1.0,35.0,1,1.0,0.4174009999996997
538,5,0.5,0.5,35.0,1,1.0,0.4832010000000082
539,5,0.5,0.5,-35.0,-1,1.0,0.5676010000001952
540,5,0.5,0.25,35.0,1,1.0,0.44320099999958984
541,5,0.5,0.25,35.0,-1,0.0,0.7244009999999435
542,5,0.5,0.25,-35.0,-1,1.0,16.543701000000056
543,5,0.5,0.25,-35.0,-1,1.0,2.318300999999792
544,5,0.5,1.0,35.0,1,1.0,0.34500100000013845
545,5,0.5,1.0,-35.0,-1,1.0,0.45840099999986705
546,5,0.5,0.5,-35.0,-1,1.0,0.2878009999999449
547,5,0.5,1.0,-35.0,-1,1.0,0.46860100000003513
548,5,0.5,0.5,35.0,1,1.0,0.3547009999997499
549,5,0.5,0.25,35.0,1,1.0,0.5254010000003291
550,5,0.5,0.25,35.0,-1,0.0,6.767800999999963
551,5,0.3,0.25,-35.0,-1,1.0,24.0724009999999
552,5,0.5,1.0,35.0,-1,0.0,3.635301000000254
553,5,0.5,0.25,-35.0,1,0.0,47.23330100000021
554,5,0.4,0.25,-35.0,0,0.0,60.033600999999635
555,5,0.5,0.5,-35.0,-1,1.0,59.494800999999825
556,5,0.5,0.5,-35.0,-1,1.0,1.6896010000000388
557,5,0.5,0.25,-35.0,1,0.0,16.207300999999916
558,5,0.5,0.25,35.0,1,1.0,28.546501000000262
559,5,0.5,1.0,-35.0,-1,1.0,23.525100999999722
560,5,0.5,0.25,-35.0,1,0.0,20.174801000000116
561,5,0.5,0.25,-35.0,-1,1.0,5.486300999999912
562,5,0.5,1.0,35.0,1,1.0,0.39210099999991144
563,5,0.5,0.25,35.0,-1,0.0,15.6366009999997
564,5,0.5,0.25,35.0,1,1.0,11.349300999999741
565,5,0.5,1.0,-35.0,1,0.0,6.9942009999999755
566,5,0.5,0.25,35.0,1,1.0,20.473500999999942
567,5,0.5,0.5,-35.0,1,0.0,13.318201000000045
568,5,0.7,0.5,-35.0,-1,1.0,1.8444009999998343
569,5,0.5,0.5,-35.0,-1,1.0,12.508701000000201
570,5,0.5,0.5,35.0,1,1.0,13.898200999999972
571,5,0.5,1.0,-35.0,-1,1.0,21.24290099999962
1,6,0.5,0.25,35.0,1,1.0,0.5219
2,6,0.5,0.5,35.0,1,1.0,0.6441999999999997
3,6,0.5,0.25,35.0,-1,0.0,0.7944010000000006
4,6,0.5,0.25,-35.0,-1,1.0,1.0543000000000013
5,6,0.5,1.0,-35.0,-1,1.0,0.7166999999999994
6,6,0.5,0.25,-35.0,-1,1.0,0.9686999999999983
7,6,0.5,1.0,-35.0,-1,1.0,0.5791999999999966
8,6,0.5,0.5,35.0,1,1.0,0.7653999999999961
9,6,0.5,0.25,-35.0,-1,1.0,0.3100000000000023
10,6,0.5,1.0,35.0,1,1.0,0.3329000000000022
11,6,0.5,0.5,35.0,1,1.0,0.47289999999999566
12,6,0.5,1.0,35.0,1,1.0,0.21649999999999636
13,6,0.5,0.5,35.0,1,1.0,0.4481009999999941
14,6,0.5,0.5,35.0,1,1.0,1.7272999999999996
15,6,0.5,0.25,35.0,1,1.0,0.4975999999999985
16,6,0.5,0.25,35.0,-1,0.0,1.372700000000009
17,6,0.7,0.25,-35.0,-1,1.0,1.3576010000000025
18,6,0.5,1.0,35.0,1,1.0,0.4336010000000101
19,6,0.5,0.5,35.0,1,1.0,0.33079999999999643
20,6,0.5,0.25,35.0,-1,0.0,1.502200000000002
21,6,0.7,0.25,-35.0,-1,1.0,0.5775000000000148
22,6,0.5,1.0,35.0,1,1.0,0.4912999999999954
23,6,0.5,0.5,35.0,1,1.0,0.5004999999999882
24,6,0.5,0.25,-35.0,-1,1.0,0.6846000000000032
25,6,0.5,0.25,-35.0,-1,1.0,1.1889000000000038
26,6,0.5,1.0,35.0,1,1.0,0.38410000000000366
27,6,0.5,0.25,-35.0,-1,1.0,0.22750000000000625
28,6,0.5,1.0,-35.0,-1,1.0,2.0799999999999983
29,6,0.5,1.0,-35.0,-1,1.0,0.750700000000009
30,6,0.5,1.0,35.0,1,1.0,0.31799999999999784
31,6,0.5,1.0,35.0,1,1.0,0.3270000000000124
32,6,0.5,1.0,35.0,1,1.0,0.6803000000000026
33,6,0.5,0.5,35.0,1,1.0,0.6927009999999996
34,6,0.5,1.0,-35.0,-1,1.0,0.36060000000000514
35,6,0.5,0.5,-35.0,-1,1.0,0.3182000000000187
36,6,0.5,0.25,35.0,1,1.0,0.43159999999997467
37,6,0.5,1.0,35.0,1,1.0,0.3727000000000089
38,6,0.5,0.25,35.0,-1,0.0,1.254999999999967
39,6,0.5,0.25,-35.0,-1,1.0,1.1070009999999968
40,6,0.5,1.0,-35.0,-1,1.0,0.5923999999999978
41,6,0.5,0.25,-35.0,-1,1.0,1.0228010000000154
42,6,0.5,0.25,35.0,1,1.0,0.3628999999999962
43,6,0.5,1.0,35.0,1,1.0,0.25380000000001246
44,6,0.5,0.25,-35.0,-1,1.0,0.18660000000002697
45,6,0.5,0.25,35.0,-1,0.0,1.7849999999999966
46,6,0.5,0.25,-35.0,-1,1.0,0.39220000000000255
47,6,0.5,0.25,-35.0,-1,1.0,0.8709010000000035
48,6,0.5,1.0,-35.0,-1,1.0,0.5301000000000045
49,6,0.5,1.0,35.0,-1,0.0,3.2961010000000215
50,6,0.2,1.0,35.0,-1,0.0,0.19900000000001228
51,6,0.2,1.0,35.0,1,1.0,0.26370000000000005
52,6,0.5,1.0,35.0,1,1.0,0.31220000000001846
53,6,0.5,0.25,35.0,-1,0.0,2.717000000000013
54,6,0.2,0.25,35.0,-1,0.0,0.20580100000000812
55,6,0.5,0.5,35.0,-1,0.0,0.12500099999999748
56,6,0.2,0.5,35.0,-1,0.0,2.829400000000021
57,6,0.2,0.5,35.0,1,1.0,0.318300000000022
58,6,0.5,0.5,35.0,-1,0.0,1.1449000000000353
59,6,0.3,0.5,-35.0,-1,1.0,0.36480000000000246
60,6,0.5,1.0,-35.0,-1,1.0,0.3866999999999905
61,6,0.5,0.25,-35.0,-1,1.0,0.4182999999999879
62,6,0.5,0.5,-35.0,-1,1.0,1.3049000000000035
63,6,0.5,1.0,-35.0,-1,1.0,0.37229999999999563
64,6,0.5,0.25,35.0,1,1.0,0.30819999999999936
65,6,0.5,0.5,35.0,-1,0.0,5.503799999999956
66,6,0.5,0.25,-35.0,-1,1.0,0.2866999999999962
67,6,0.5,0.5,-35.0,-1,1.0,0.20829999999995152
68,6,0.5,0.25,35.0,-1,0.0,0.46199999999993224
69,6,0.5,0.25,-35.0,-1,1.0,0.14159999999998263
70,6,0.5,1.0,-35.0,-1,1.0,0.3129000000000133
71,6,0.5,1.0,-35.0,-1,1.0,0.6433000000000106
72,6,0.5,0.25,35.0,-1,0.0,0.17589999999995598
73,6,0.1,0.25,35.0,-1,0.0,4.740600000000029
74,6,0.5,1.0,35.0,1,1.0,0.6760009999999852
75,6,0.5,1.0,-35.0,-1,1.0,0.38349999999996953
76,6,0.5,0.25,35.0,-1,0.0,2.8068999999999846
77,6,0.1,0.25,35.0,-1,0.0,0.2144010000000094
78,6,0.5,1.0,35.0,1,1.0,0.5867000000000075
79,6,0.5,1.0,35.0,1,1.0,0.37309999999996535
80,6,0.5,0.25,-35.0,-1,1.0,0.9816999999999894
81,6,0.5,0.25,-35.0,-1,1.0,1.335800000000006
82,6,0.5,1.0,35.0,1,1.0,0.4807999999999879
83,6,0.5,0.25,35.0,-1,0.0,0.6528999999999883
84,6,0.4,0.25,35.0,1,1.0,0.3340000000000032
85,6,0.5,0.5,-35.0,-1,1.0,0.13709999999997535
86,6,0.5,1.0,35.0,1,1.0,0.3863999999999237
87,6,0.5,0.25,35.0,1,1.0,0.6080000000000041
88,6,0.5,0.25,-35.0,-1,1.0,1.5594999999999573
89,6,0.5,0.5,35.0,1,1.0,0.3319999999999368
90,6,0.5,1.0,35.0,-1,0.0,1.9144999999999186
91,6,0.5,1.0,35.0,1,1.0,0.3242999999999938
92,6,0.5,1.0,-35.0,-1,1.0,0.28609999999997626
93,6,0.5,0.5,-35.0,-1,1.0,0.5243009999999799
94,6,0.5,0.5,35.0,-1,0.0,0.16779999999999973
95,6,0.4,0.5,-35.0,-1,1.0,0.3000999999999294
96,6,0.5,1.0,35.0,1,1.0,0.3532999999999902
97,6,0.5,1.0,-35.0,-1,1.0,0.3851010000000201
98,6,0.5,0.5,35.0,1,1.0,0.2670999999999708
99,6,0.5,1.0,35.0,1,1.0,0.2430999999999699
100,6,0.5,1.0,-35.0,-1,1.0,0.352800000000002
101,6,0.5,1.0,35.0,1,1.0,0.37189999999998236
102,6,0.5,0.5,-35.0,-1,1.0,0.3584999999999354
103,6,0.5,0.25,35.0,1,1.0,0.34089999999997644
104,6,0.5,0.25,35.0,1,1.0,0.2689999999999486
105,6,0.5,1.0,-35.0,-1,1.0,0.412399999999991
106,6,0.5,1.0,35.0,1,1.0,0.2992999999999597
107,6,0.5,0.25,-35.0,-1,1.0,0.7752999999999588
108,6,0.5,0.25,35.0,1,1.0,0.12129999999996244
109,6,0.5,1.0,35.0,1,1.0,0.4615000000000009
110,6,0.5,0.5,-35.0,-1,1.0,0.33350099999995564
111,6,0.5,1.0,35.0,1,1.0,2.832200999999941
112,6,0.5,0.25,-35.0,-1,1.0,0.2330000000000041
113,6,0.5,0.25,35.0,-1,0.0,0.11359999999996262
114,6,0.5,0.25,35.0,1,1.0,0.3174999999999386
115,6,0.5,0.5,-35.0,1,0.0,0.399599999999964
116,6,0.5,0.25,35.0,1,1.0,0.30589999999995143
117,6,0.5,1.0,35.0,1,1.0,0.35719999999997754
118,6,0.5,1.0,35.0,1,1.0,0.3167999999999438
119,6,0.5,0.5,35.0,1,1.0,0.2864999999999327
120,6,0.5,1.0,35.0,1,1.0,0.31539999999995416
121,6,0.5,0.25,35.0,1,1.0,0.3772999999999911
122,6,0.5,1.0,-35.0,-1,1.0,0.3503999999999792
123,6,0.5,0.5,-35.0,-1,1.0,0.37219999999990705
124,6,0.5,0.5,35.0,1,1.0,0.6312999999998965
125,6,0.5,0.5,35.0,-1,0.0,2.3258999999999332
126,6,0.7,0.5,-35.0,-1,1.0,0.32920000000001437
127,6,0.5,0.5,-35.0,1,0.0,0.3423999999999978
128,6,0.6,0.5,-35.0,-1,1.0,0.5113010000000031
129,6,0.5,0.5,-35.0,-1,1.0,0.5405000000000655
130,6,0.5,0.25,35.0,1,1.0,0.4902000000000726
131,6,0.5,0.5,-35.0,-1,1.0,0.2539000000000442
132,6,0.5,1.0,-35.0,1,0.0,0.3346010000000206
133,6,0.4,1.0,-35.0,-1,1.0,0.7008999999999332
134,6,0.5,0.5,35.0,1,1.0,0.3465999999999667
135,6,0.5,0.5,35.0,-1,0.0,4.752500000000055
136,6,0.4,0.5,-35.0,-1,1.0,0.44290000000000873
137,6,0.5,1.0,-35.0,-1,1.0,0.3261999999999716
138,6,0.5,0.25,35.0,1,1.0,0.43829999999991287
139,6,0.5,0.5,-35.0,-1,1.0,0.1212999999999056
140,6,0.5,1.0,-35.0,-1,1.0,0.2076999999999316
141,6,0.5,0.25,-35.0,-1,1.0,2.919499999999857
142,6,0.5,1.0,-35.0,-1,1.0,0.38210000000003674
143,6,0.5,0.5,35.0,1,1.0,0.4069999999999254
144,6,0.5,0.5,35.0,-1,0.0,0.11579999999992197
145,6,0.2,0.5,35.0,1,1.0,0.23889999999994416
146,6,0.5,1.0,35.0,1,1.0,0.27509999999995216
147,6,0.5,1.0,35.0,1,1.0,0.23729999999989104
148,6,0.5,0.5,35.0,1,1.0,0.23719999999991614
149,6,0.5,0.5,-35.0,-1,1.0,0.28109999999992397
150,6,0.5,0.25,35.0,1,1.0,0.5394000000000005
151,6,0.5,0.25,35.0,1,1.0,0.2557000000000471
152,6,0.5,0.5,-35.0,-1,1.0,0.48689999999999145
153,6,0.5,0.25,-35.0,-1,1.0,0.2966000000000122
154,6,0.5,0.5,-35.0,-1,1.0,0.5673000000000457
155,6,0.5,0.5,35.0,-1,0.0,0.19019999999989068
156,6,0.5,0.5,-35.0,-1,1.0,0.1373999999999569
157,6,0.5,1.0,35.0,1,1.0,0.4733999999999696
158,6,0.5,1.0,35.0,1,1.0,0.36839999999995143
159,6,0.5,0.5,35.0,1,1.0,0.34950000000003456
160,6,0.5,1.0,35.0,1,1.0,0.226099999999974
161,6,0.5,1.0,-35.0,-1,1.0,0.33600000000001273
162,6,0.5,1.0,35.0,1,1.0,0.18280000000004293
163,6,0.5,0.5,-35.0,-1,1.0,0.720299999999952
164,6,0.5,0.25,35.0,1,1.0,0.42630099999985305
165,6,0.5,1.0,35.0,1,1.0,0.3105000000000473
166,6,0.5,0.5,-35.0,1,0.0,0.2661999999999125
167,6,0.8,0.5,35.0,-1,0.0,0.18499999999994543
168,6,0.7,0.5,-35.0,-1,1.0,0.33969999999999345
169,6,0.5,1.0,-35.0,-1,1.0,0.4377999999999247
170,6,0.5,0.5,-35.0,-1,1.0,0.27650100000005295
171,6,0.5,0.25,-35.0,-1,1.0,0.4317000000000917
172,6,0.5,1.0,35.0,1,1.0,0.35209999999995034
173,6,0.5,0.25,-35.0,-1,1.0,0.187300999999934
174,6,0.5,0.25,35.0,1,1.0,0.1435999999998785
175,6,0.5,0.25,-35.0,-1,1.0,0.37809999999990396
176,6,0.5,0.5,35.0,-1,0.0,0.12950000000000728
177,6,0.2,0.5,35.0,-1,0.0,4.356000999999992
178,6,0.2,0.5,-35.0,-1,1.0,0.3507999999999356
179,6,0.5,1.0,-35.0,-1,1.0,0.3631999999998925
180,6,0.5,1.0,35.0,1,1.0,0.14130000000011478
181,6,0.5,1.0,-35.0,-1,1.0,0.14769999999998618
182,6,0.5,1.0,35.0,1,1.0,0.310799999999972
183,6,0.5,0.25,35.0,1,1.0,0.23429999999996198
184,6,0.5,1.0,35.0,1,1.0,0.2294009999999389
185,6,0.5,0.25,35.0,1,1.0,0.17469999999991614
186,6,0.5,0.5,35.0,1,1.0,0.1811999999999898
187,6,0.5,0.25,35.0,1,1.0,0.3062999999999647
188,6,0.5,0.5,-35.0,-1,1.0,0.7960999999999103
189,6,0.5,0.5,-35.0,-1,1.0,3.836999999999989
190,6,0.5,1.0,35.0,1,1.0,0.37419999999997344
191,6,0.5,0.5,35.0,1,1.0,0.2923999999999296
192,6,0.5,0.25,-35.0,-1,1.0,0.323099999999954
193,6,0.5,0.25,-35.0,-1,1.0,0.1732999999999265
194,6,0.5,0.25,-35.0,-1,1.0,0.4233000000000402
195,6,0.5,0.5,-35.0,-1,1.0,0.5466999999999871
196,6,0.5,0.5,35.0,-1,0.0,0.09399999999993724
197,6,0.5,0.25,35.0,1,1.0,0.6839999999998554
198,6,0.5,1.0,35.0,1,1.0,0.22050000000001546
199,6,0.5,0.25,35.0,1,1.0,0.33599999999989905
200,6,0.5,0.25,-35.0,-1,1.0,0.43229999999994106
201,6,0.5,0.25,35.0,1,1.0,0.26529999999991105
202,6,0.5,0.25,-35.0,-1,1.0,0.40649999999993724
203,6,0.5,0.25,35.0,-1,0.0,1.3655009999999947
204,6,0.4,0.25,-35.0,-1,1.0,0.709699999999998
205,6,0.5,0.5,-35.0,-1,1.0,0.19749999999987722
206,6,0.5,1.0,-35.0,-1,1.0,1.9856999999999516
207,6,0.5,0.25,-35.0,-1,1.0,0.26640099999997346
208,6,0.5,0.5,35.0,1,1.0,0.30380000000002383
209,6,0.5,0.5,-35.0,-1,1.0,0.4165010000000393
210,6,0.5,0.5,-35.0,-1,1.0,0.4841000000000122
211,6,0.5,0.5,-35.0,-1,1.0,0.42639999999994416
212,6,0.5,1.0,-35.0,-1,1.0,0.2799999999999727
213,6,0.5,0.25,-35.0,-1,1.0,0.9448999999999614
214,6,0.5,1.0,-35.0,-1,1.0,0.30199999999990723
215,6,0.5,1.0,35.0,1,1.0,0.12140099999999165
216,6,0.5,0.5,35.0,1,1.0,0.3001999999999043
217,6,0.5,1.0,-35.0,-1,1.0,0.375
218,6,0.5,1.0,35.0,-1,0.0,0.13949999999999818
219,6,0.2,1.0,35.0,1,1.0,0.12269999999989523
220,6,0.5,0.5,35.0,1,1.0,0.11199999999996635
221,6,0.5,1.0,35.0,1,1.0,0.1696999999999207
222,6,0.5,1.0,35.0,1,1.0,0.31920000000002346
223,6,0.5,0.25,35.0,1,1.0,0.3427999999998974
224,6,0.5,1.0,-35.0,-1,1.0,0.7220000000000937
225,6,0.5,1.0,-35.0,1,0.0,0.49310000000002674
226,6,0.5,0.25,35.0,1,1.0,0.5722000000000662
227,6,0.5,1.0,-35.0,-1,1.0,0.4700000000000273
228,6,0.5,1.0,35.0,1,1.0,0.37249999999994543
229,6,0.5,0.5,35.0,1,1.0,0.23679999999990287
230,6,0.5,0.5,35.0,1,1.0,0.37969999999995707
231,6,0.5,0.25,35.0,1,1.0,0.22710099999994782
232,6,0.5,0.5,-35.0,-1,1.0,1.7795999999998457
233,6,0.5,0.5,35.0,1,1.0,0.3239000000000942
234,6,0.5,0.5,35.0,1,1.0,0.22969999999986612
235,6,0.5,0.25,-35.0,1,0.0,0.10760000000004766
236,6,0.5,0.25,-35.0,-1,1.0,0.38040000000000873
237,6,0.5,1.0,-35.0,1,0.0,0.09789999999998145
238,6,0.5,0.25,-35.0,-1,1.0,0.7572000000000116
239,6,0.5,1.0,35.0,1,1.0,0.3080999999999676
240,6,0.5,0.5,-35.0,-1,1.0,0.3406999999999698
241,6,0.5,0.25,-35.0,1,0.0,0.17489999999997963
242,6,0.5,0.25,35.0,1,1.0,0.3573999999998705
243,6,0.5,0.5,-35.0,1,0.0,0.2718009999998685
244,6,0.7,0.5,-35.0,-1,1.0,0.9211010000001352
245,6,0.5,1.0,-35.0,-1,1.0,0.16860099999985323
246,6,0.5,0.5,35.0,1,1.0,0.29799999999977445
247,6,0.5,0.5,35.0,1,1.0,0.24220000000013897
248,6,0.5,0.5,35.0,1,1.0,0.1351009999998496
249,6,0.5,0.5,35.0,1,1.0,0.21889999999984866
250,6,0.5,0.5,-35.0,-1,1.0,0.891399999999976
251,6,0.5,0.25,35.0,1,1.0,0.2392010000000937
252,6,0.5,0.25,35.0,1,1.0,0.2317000000000462
253,6,0.5,1.0,35.0,1,1.0,0.20929999999998472
254,6,0.5,0.25,35.0,1,1.0,0.3887999999999465
255,6,0.5,1.0,35.0,1,1.0,0.3263999999999214
256,6,0.5,0.25,-35.0,-1,1.0,1.106099999999742
257,6,0.5,0.5,35.0,1,1.0,0.22660099999984595
258,6,0.5,0.25,-35.0,-1,1.0,0.20959999999990941
259,6,0.5,1.0,-35.0,1,0.0,0.2635999999999967
260,6,0.7,1.0,-35.0,-1,1.0,0.5593999999998687
261,6,0.5,0.5,-35.0,-1,1.0,0.2239009999998416
262,6,0.5,0.25,35.0,1,1.0,0.19289999999978136
263,6,0.5,0.25,-35.0,-1,1.0,0.5906999999999698
264,6,0.5,0.5,-35.0,-1,1.0,0.3897999999999229
265,6,0.5,0.25,-35.0,-1,1.0,0.6173000000001139
266,6,0.5,1.0,-35.0,-1,1.0,0.42689999999993233
267,6,0.5,1.0,35.0,1,1.0,0.8875000000000455
268,6,0.5,1.0,-35.0,-1,1.0,0.6299999999998818
269,6,0.5,0.5,-35.0,-1,1.0,0.3611999999998261
270,6,0.5,0.5,-35.0,-1,1.0,0.22720000000003893
271,6,0.5,1.0,35.0,1,1.0,0.2879010000001472
272,6,0.5,1.0,35.0,1,1.0,0.203899999999976
273,6,0.5,1.0,35.0,1,1.0,0.2947999999998956
274,6,0.5,1.0,35.0,1,1.0,0.2778000000000702
275,6,0.5,0.25,-35.0,-1,1.0,0.5951010000001133
276,6,0.5,1.0,-35.0,-1,1.0,0.4209000000000742
277,6,0.5,0.5,-35.0,-1,1.0,0.6651999999999134
278,6,0.5,0.5,35.0,1,1.0,0.37770000000000437
279,6,0.5,0.25,35.0,1,1.0,0.2621999999998934
280,6,0.5,1.0,35.0,1,1.0,0.2585999999998876
281,6,0.5,0.5,35.0,1,1.0,0.27270100000009734
282,6,0.5,0.25,35.0,1,1.0,0.33920000000011896
283,6,0.5,0.25,-35.0,-1,1.0,0.33619999999996253
284,6,0.5,0.5,-35.0,-1,1.0,0.9585999999999331
285,6,0.5,0.5,35.0,1,1.0,0.35989999999992506
286,6,0.5,0.5,35.0,1,1.0,0.3192999999998847
287,6,0.5,0.5,35.0,1,1.0,0.2035000000000764
288,6,0.5,1.0,-35.0,-1,1.0,0.569999999999709
289,6,0.5,1.0,-35.0,-1,1.0,0.3706999999999425
290,6,0.5,0.5,35.0,1,1.0,0.30999999999971806
291,6,0.5,1.0,35.0,1,1.0,0.2575010000000475
292,6,0.5,1.0,35.0,1,1.0,0.3003000000001066
293,6,0.5,1.0,35.0,1,1.0,0.4642999999998665
294,6,0.5,0.5,-35.0,-1,1.0,0.42039999999997235
295,6,0.5,1.0,-35.0,-1,1.0,1.0610999999998967
296,6,0.5,0.5,-35.0,1,0.0,0.2602999999999156
297,6,0.5,0.25,-35.0,-1,1.0,0.5148000000001502
298,6,0.5,1.0,35.0,1,1.0,0.4044000000001233
299,6,0.5,1.0,35.0,1,1.0,0.3583000000000993
300,6,0.5,1.0,35.0,1,1.0,0.22800000000006548
301,6,0.5,0.25,-35.0,-1,1.0,0.6953000000000884
302,6,0.5,0.5,35.0,1,1.0,0.3311999999998534
303,6,0.5,0.5,35.0,-1,0.0,0.17539999999985412
304,6,0.5,0.5,35.0,1,1.0,0.3351000000000113
305,6,0.5,1.0,-35.0,-1,1.0,0.22220100000004095
306,6,0.5,0.25,-35.0,-1,1.0,2.491700000000037
307,6,0.5,0.5,35.0,1,1.0,0.7091999999997824
308,6,0.5,0.5,35.0,1,1.0,0.5752000000002226
309,6,0.5,0.5,35.0,1,1.0,0.44260000000008404
310,6,0.5,1.0,-35.0,-1,1.0,4.071999999999889
311,6,0.5,0.5,-35.0,-1,1.0,0.6660999999999149
312,6,0.5,0.5,-35.0,-1,1.0,0.8196000000000367
313,6,0.5,0.5,35.0,1,1.0,0.3023000000000593
314,6,0.5,0.25,35.0,1,1.0,0.2862999999999829
315,6,0.5,0.25,-35.0,-1,1.0,0.15589999999997417
316,6,0.5,1.0,-35.0,-1,1.0,0.2899999999999636
317,6,0.5,1.0,-35.0,-1,1.0,0.29639999999972133
318,6,0.5,0.5,35.0,1,1.0,0.3904009999998834
319,6,0.5,1.0,-35.0,-1,1.0,0.28320000000007894
320,6,0.5,0.5,-35.0,-1,1.0,0.17049999999994725
321,6,0.5,1.0,35.0,1,1.0,0.2866999999998825
322,6,0.5,0.5,-35.0,-1,1.0,0.8775000000000546
323,6,0.5,0.5,35.0,1,1.0,0.253800000000183
324,6,0.5,0.25,35.0,1,1.0,0.287900000000036
325,6,0.5,0.5,35.0,1,1.0,0.5670010000001184
326,6,0.5,1.0,-35.0,-1,1.0,0.40150000000016917
327,6,0.5,1.0,35.0,1,1.0,0.33730000000014115
328,6,0.5,1.0,35.0,1,1.0,0.1980999999998403
329,6,0.5,1.0,35.0,1,1.0,0.2777009999999791
330,6,0.5,1.0,35.0,1,1.0,0.25759999999991123
331,6,0.5,0.5,-35.0,1,0.0,0.3950999999999567
332,6,0.5,0.25,-35.0,1,0.0,4.007900000000063
333,6,0.9,0.25,-35.0,-1,1.0,0.3589000000001761
334,6,0.5,1.0,-35.0,-1,1.0,0.5246999999999389
335,6,0.5,0.25,-35.0,-1,1.0,0.4390000000000782
336,6,0.5,0.25,35.0,1,1.0,0.2116000000000895
337,6,0.5,0.5,35.0,1,1.0,0.26250099999992926
338,6,0.5,1.0,-35.0,-1,1.0,0.8387000000000171
339,6,0.5,0.5,-35.0,-1,1.0,0.4193000000000211
340,6,0.5,1.0,-35.0,-1,1.0,1.3786000000000058
341,6,0.5,1.0,-35.0,1,0.0,0.37629999999990105
342,6,0.4,1.0,-35.0,-1,1.0,0.5558000000000902
343,6,0.5,1.0,35.0,1,1.0,0.2763999999999669
344,6,0.5,0.25,35.0,1,1.0,0.3792000000000826
345,6,0.5,0.5,-35.0,-1,1.0,0.37989999999990687
346,6,0.5,0.5,35.0,1,1.0,0.3424999999999727
347,6,0.5,0.5,-35.0,-1,1.0,0.8468000000000302
348,6,0.5,0.25,35.0,1,1.0,0.4624999999998636
349,6,0.5,0.25,35.0,1,1.0,0.2767999999998665
350,6,0.5,0.5,35.0,1,1.0,0.3629000000000815
351,6,0.5,0.5,-35.0,-1,1.0,0.550499999999829
352,6,0.5,1.0,-35.0,1,0.0,0.4632000000001426
353,6,0.5,0.25,35.0,1,1.0,0.21729999999979555
354,6,0.5,0.5,35.0,1,1.0,0.2897000000000389
355,6,0.5,1.0,-35.0,-1,1.0,0.8274999999998727
356,6,0.5,1.0,-35.0,-1,1.0,0.3143999999999778
357,6,0.5,0.5,35.0,1,1.0,0.26720000000000255
358,6,0.5,0.25,-35.0,-1,1.0,0.48460000000022774
359,6,0.5,1.0,35.0,1,1.0,0.26089999999999236
360,6,0.5,1.0,35.0,1,1.0,0.4314999999999145
361,6,0.5,1.0,35.0,1,1.0,0.3106999999999971
362,6,0.5,0.5,35.0,1,1.0,0.2281999999997879
363,6,0.5,1.0,35.0,1,1.0,0.34780000000000655
364,6,0.5,0.25,35.0,1,1.0,0.32189999999991414
365,6,0.5,0.5,35.0,1,1.0,0.13449999999988904
366,6,0.5,0.25,-35.0,-1,1.0,0.4255000000000564
367,6,0.5,0.25,35.0,1,1.0,0.501399999999876
368,6,0.5,0.5,-35.0,-1,1.0,0.37560000000007676
369,6,0.5,1.0,-35.0,-1,1.0,0.5416000000000167
370,6,0.5,1.0,35.0,1,1.0,0.2959000000000742
371,6,0.5,1.0,35.0,1,1.0,0.3260009999999056
372,6,0.5,1.0,35.0,1,1.0,0.3423999999999978
373,6,0.5,0.25,-35.0,-1,1.0,0.2663000000000011
374,6,0.5,0.25,35.0,1,1.0,0.24899999999979627
375,6,0.5,0.25,35.0,1,1.0,1.1763999999998305
376,6,0.5,0.5,-35.0,-1,1.0,0.31890000000021246
377,6,0.5,0.125,35.0,1,1.0,0.4333999999998923
378,6,0.5,0.125,35.0,1,1.0,0.5062000000000353
379,6,0.5,0.5,-35.0,-1,1.0,0.32359999999994216
380,6,0.5,0.5,-35.0,-1,1.0,0.13970100000005914
381,6,0.5,1.0,-35.0,-1,1.0,0.21710000000007312
382,6,0.5,0.5,-35.0,-1,1.0,0.4028000000000702
383,6,0.5,0.25,35.0,1,1.0,0.3206999999997606
384,6,0.5,0.5,-35.0,-1,1.0,0.5202999999999065
385,6,0.5,1.0,35.0,1,1.0,0.5276000000001204
386,6,0.5,1.0,-35.0,-1,1.0,0.560399999999845
387,6,0.5,0.5,35.0,1,1.0,0.3912000000000262
388,6,0.5,0.25,35.0,1,1.0,0.23420099999998456
389,6,0.5,1.0,35.0,1,1.0,0.504799999999932
390,6,0.5,1.0,35.0,1,1.0,0.2981999999999516
391,6,0.5,0.25,-35.0,-1,1.0,0.2683999999999287
392,6,0.5,1.0,35.0,1,1.0,0.32379999999989195
393,6,0.5,0.5,35.0,1,1.0,0.5351000000000568
394,6,0.5,0.25,35.0,1,1.0,0.36439999999993233
395,6,0.5,1.0,-35.0,-1,1.0,0.38200000000006185
396,6,0.5,0.25,-35.0,-1,1.0,0.5946999999998752
397,6,0.5,0.5,-35.0,-1,1.0,0.29909999999995307
398,6,0.5,0.25,35.0,-1,0.0,0.12840000000005602
399,6,0.5,0.25,35.0,1,1.0,0.2958000000000993
400,6,0.5,1.0,-35.0,-1,1.0,0.735300000000052
401,6,0.5,0.5,35.0,1,1.0,0.1893999999999778
402,6,0.5,0.125,-35.0,-1,1.0,1.9718000000000302
403,6,0.5,0.25,-35.0,-1,1.0,0.28969999999981155
404,6,0.5,0.5,-35.0,-1,1.0,1.1459999999999582
405,6,0.5,0.125,35.0,1,1.0,0.26999999999975444
406,6,0.5,1.0,-35.0,-1,1.0,0.37619999999992615
407,6,0.5,0.125,35.0,-1,0.0,0.9400999999998021
408,6,0.3,0.125,35.0,1,1.0,0.5230000000001382
409,6,0.5,1.0,-35.0,-1,1.0,0.3569999999997435
410,6,0.5,0.5,-35.0,-1,1.0,2.2264999999999873
411,6,0.5,0.5,35.0,1,1.0,0.2739999999998872
412,6,0.5,0.25,35.0,1,1.0,1.520200000000159
413,6,0.5,1.0,-35.0,-1,1.0,0.32770000000004984
414,6,0.5,0.5,-35.0,-1,1.0,0.5138999999999214
415,6,0.5,0.125,35.0,1,1.0,0.42689999999993233
416,6,0.5,0.25,35.0,1,1.0,0.22479999999995925
417,6,0.5,0.5,-35.0,1,0.0,0.11410000000023501
418,6,0.5,0.125,-35.0,-1,1.0,0.5449999999998454
419,6,0.5,0.5,-35.0,-1,1.0,0.4175000000000182
420,6,0.5,0.25,35.0,1,1.0,0.3651999999999589
421,6,0.5,0.25,35.0,1,1.0,0.22749999999996362
422,6,0.5,0.25,35.0,1,1.0,0.33179999999993015
423,6,0.5,0.25,35.0,1,1.0,0.36130099999991216
424,6,0.5,0.125,-35.0,-1,1.0,0.2486999999996442
425,6,0.5,1.0,35.0,1,1.0,0.30139999999983047
426,6,0.5,0.5,-35.0,-1,1.0,0.18229999999994106
427,6,0.5,0.125,35.0,1,1.0,0.28490000000010696
428,6,0.5,0.25,-35.0,-1,1.0,0.198399999999765
429,6,0.5,0.125,-35.0,-1,1.0,0.7192000000000007
430,6,0.5,0.25,-35.0,-1,1.0,0.47870000000011714
431,6,0.5,0.25,-35.0,-1,1.0,0.3427000000001499
432,6,0.5,0.125,-35.0,-1,1.0,0.6091000000001259
433,6,0.5,0.125,35.0,1,1.0,0.47319999999990614
434,6,0.5,0.25,35.0,1,1.0,0.3560000000002219
435,6,0.5,0.25,35.0,1,1.0,0.2932999999998174
436,6,0.5,0.25,-35.0,-1,1.0,0.2898000000000138
437,6,0.5,0.125,35.0,-1,0.0,0.43020000000024083
438,6,0.5,0.25,-35.0,-1,1.0,0.446400000000267
439,6,0.5,0.5,35.0,1,1.0,0.3105009999999311
440,6,0.5,0.5,35.0,1,1.0,0.6465000000002874
441,6,0.5,0.5,35.0,1,1.0,0.36400000000003274
442,6,0.5,1.0,-35.0,1,0.0,0.35690100000010716
443,6,0.7,1.0,-35.0,-1,1.0,0.4175999999997657
444,6,0.5,0.5,-35.0,-1,1.0,0.4832000000001244
445,6,0.5,0.25,35.0,-1,0.0,0.48440000000027794
446,6,0.5,0.125,-35.0,-1,1.0,1.203599999999824
447,6,0.5,0.5,-35.0,-1,1.0,0.30130000000008295
448,6,0.5,0.125,-35.0,-1,1.0,0.8141000000000531
449,6,0.5,0.5,-35.0,-1,1.0,1.674800000000232
450,6,0.5,0.25,35.0,1,1.0,0.29409999999961656
451,6,0.5,1.0,35.0,1,1.0,0.3483000000001084
452,6,0.5,1.0,-35.0,-1,1.0,0.3942000000001826
453,6,0.5,0.25,35.0,-1,0.0,1.4184999999997672
454,6,0.2,0.25,35.0,-1,0.0,3.2212009999998372
455,6,0.5,1.0,35.0,1,1.0,0.33199999999987995
456,6,0.5,0.5,-35.0,-1,1.0,0.5081000000000131
457,6,0.5,0.125,-35.0,-1,1.0,0.35900000000037835
458,6,0.5,0.25,-35.0,-1,1.0,0.6149999999997817
459,6,0.5,0.5,35.0,-1,0.0,1.395900999999867
460,6,0.3,0.5,35.0,-1,0.0,0.2316000000000713
461,6,0.2,0.5,35.0,-1,0.0,2.9893999999999323
462,6,0.1,0.5,35.0,-1,0.0,0.7786000000000968
463,6,0.1,0.5,35.0,1,1.0,0.276299999999992
464,6,0.5,1.0,35.0,1,1.0,0.3088999999999942
465,6,0.5,0.5,35.0,1,1.0,0.27660000000014406
466,6,0.5,0.5,35.0,1,1.0,0.11260000000038417
467,6,0.5,0.125,-35.0,-1,1.0,0.26009999999951106
468,6,0.5,0.5,-35.0,-1,1.0,0.44239999999990687
469,6,0.5,0.125,35.0,1,1.0,0.7902999999996609
470,6,0.5,0.25,35.0,1,1.0,0.3894999999997708
471,6,0.5,0.5,35.0,1,1.0,0.3505000000000109
472,6,0.5,1.0,-35.0,-1,1.0,0.5063999999997577
473,6,0.5,0.125,-35.0,-1,1.0,0.7606999999998152
474,6,0.5,1.0,-35.0,-1,1.0,0.38990000000012515
475,6,0.5,0.5,35.0,1,1.0,0.45430000000033033
476,6,0.5,0.5,-35.0,-1,1.0,0.43719999999984793
477,6,0.5,0.5,35.0,1,1.0,2.5677999999998065
478,6,0.5,0.25,-35.0,-1,1.0,0.48129999999991924
479,6,0.5,1.0,-35.0,-1,1.0,0.4003010000001268
480,6,0.5,0.125,-35.0,-1,1.0,0.35809999999992215
481,6,0.5,1.0,35.0,1,1.0,0.7638010000000577
482,6,0.5,0.25,-35.0,-1,1.0,0.44830000000001746
483,6,0.5,1.0,-35.0,-1,1.0,0.5073000000002139
484,6,0.5,0.25,-35.0,-1,1.0,0.43499999999994543
485,6,0.5,0.5,35.0,1,1.0,0.31120000000009895
486,6,0.5,0.5,-35.0,-1,1.0,0.3119000000001506
487,6,0.5,0.125,35.0,-1,0.0,1.5644999999999527
488,6,0.2,0.125,-35.0,-1,1.0,0.2154000000000451
489,6,0.5,0.5,35.0,1,1.0,0.4782999999997628
490,6,0.5,0.25,-35.0,-1,1.0,0.7221999999997024
491,6,0.5,1.0,-35.0,-1,1.0,0.1914999999999054
492,6,0.5,0.25,-35.0,-1,1.0,0.5324999999997999
493,6,0.5,0.5,-35.0,-1,1.0,0.45189999999956854
494,6,0.5,0.5,-35.0,-1,1.0,0.6826000000000931
495,6,0.5,0.5,-35.0,-1,1.0,0.9720000000002074
496,6,0.5,0.5,35.0,1,1.0,0.1550999999999476
497,6,0.5,0.25,-35.0,-1,1.0,0.692899999999554
498,6,0.5,0.125,35.0,-1,0.0,2.155499999999847
499,6,0.2,0.125,35.0,1,1.0,2.0196999999998297
500,6,0.5,1.0,35.0,1,1.0,0.3022999999998319
501,6,0.5,1.0,-35.0,-1,1.0,0.25999999999976353
502,6,0.5,0.5,-35.0,1,0.0,0.1528000000002976
503,6,0.4,0.5,-35.0,-1,1.0,0.47690100000045277
504,6,0.5,1.0,35.0,1,1.0,0.3295000000002801
505,6,0.5,0.125,35.0,1,1.0,0.47710000000006403
506,6,0.5,0.5,35.0,1,1.0,0.40650000000005093
507,6,0.5,0.125,-35.0,-1,1.0,0.26729999999997744
508,6,0.5,0.125,35.0,1,1.0,0.3269999999997708
509,6,0.5,0.125,35.0,1,1.0,0.3042000000000371
510,6,0.5,0.25,-35.0,-1,1.0,0.32369999999991705
511,6,0.5,0.5,-35.0,-1,1.0,0.9177000000004227
512,6,0.5,0.5,35.0,1,1.0,0.3472009999995862
513,6,0.5,0.25,-35.0,-1,1.0,0.487999999999829
514,6,0.5,0.5,35.0,1,1.0,0.31699999999955253
515,6,0.5,0.25,-35.0,-1,1.0,0.7913010000002032
516,6,0.5,0.125,-35.0,-1,1.0,1.4239000000002306
517,6,0.5,1.0,-35.0,-1,1.0,0.9149999999999636
518,6,0.5,0.125,-35.0,-1,1.0,0.6251000000002023
519,6,0.5,0.25,-35.0,1,0.0,0.33770099999992453
520,6,0.5,0.125,35.0,1,1.0,0.6854009999997288
521,6,0.5,1.0,-35.0,-1,1.0,0.41460000000006403
522,6,0.5,0.25,-35.0,-1,1.0,0.31550000000015643
523,6,0.5,1.0,-35.0,-1,1.0,0.4416000000001077
524,6,0.5,0.25,35.0,1,1.0,0.3423999999999978
525,6,0.5,0.25,35.0,1,1.0,0.33150000000023283
526,6,0.5,0.125,-35.0,-1,1.0,1.59590100000014
527,6,0.5,1.0,-35.0,1,0.0,0.23149999999986903
528,6,0.5,0.25,35.0,1,1.0,0.696100000000115
529,6,0.5,0.125,-35.0,-1,1.0,0.4386999999996988
530,6,0.5,0.125,35.0,1,1.0,0.3127999999996973
531,6,0.5,0.5,-35.0,-1,1.0,0.6426000000001295
532,6,0.5,0.5,35.0,1,1.0,0.46309999999994034
533,6,0.5,0.5,-35.0,-1,1.0,0.27850000000034925
534,6,0.5,1.0,-35.0,1,0.0,0.25020000000040454
535,6,0.5,0.125,35.0,1,1.0,0.35290000000031796
536,6,0.5,0.5,-35.0,-1,1.0,0.3570999999997184
537,6,0.5,1.0,-35.0,-1,1.0,0.513300000000072
538,6,0.5,0.125,35.0,1,1.0,2.487300000000232
539,6,0.5,1.0,-35.0,-1,1.0,0.1868000000004031
540,6,0.5,0.25,-35.0,-1,1.0,0.46090000000003783
541,6,0.5,0.5,-35.0,-1,1.0,0.39350000000013097
542,6,0.5,0.5,-35.0,-1,1.0,0.3943999999996777
543,6,0.5,0.125,-35.0,-1,1.0,0.6736999999998261
544,6,0.5,0.5,35.0,1,1.0,0.481300000000374
545,6,0.5,0.5,35.0,1,1.0,0.23420000000032815
546,6,0.5,0.125,35.0,1,1.0,0.25369999999975335
547,6,0.5,0.25,-35.0,-1,1.0,0.6014999999997599
548,6,0.5,0.125,35.0,-1,0.0,0.16060099999958766
549,6,0.5,0.25,35.0,1,1.0,0.27500000000009095
550,6,0.5,0.25,-35.0,-1,1.0,0.2979000000000269
551,6,0.5,1.0,35.0,1,1.0,0.5050999999998567
552,6,0.5,0.125,-35.0,-1,1.0,0.42119999999977153
553,6,0.5,0.125,35.0,1,1.0,0.3453999999996995
554,6,0.5,0.125,-35.0,-1,1.0,0.5150000000003274
555,6,0.5,0.125,35.0,1,1.0,0.26239999999961583
556,6,0.5,1.0,-35.0,1,0.0,2.088600000000497
557,6,0.5,0.25,-35.0,-1,1.0,0.5725999999999658
558,6,0.5,0.25,-35.0,-1,1.0,0.46869999999989886
559,6,0.5,1.0,35.0,1,1.0,1.3895000000002256
560,6,0.5,1.0,-35.0,-1,1.0,0.29539999999997235
561,6,0.5,0.5,-35.0,-1,1.0,0.6820999999999913
562,6,0.5,0.5,35.0,-1,0.0,4.289899999999761
563,6,0.5,0.25,35.0,-1,0.0,1.3358000000002903
564,6,0.5,0.125,-35.0,-1,1.0,0.41010000000005675
565,6,0.5,0.5,35.0,1,1.0,0.3394999999995889
566,6,0.5,0.25,35.0,-1,0.0,2.4602999999997337
567,6,0.2,0.25,-35.0,-1,1.0,0.5066000000001623
568,6,0.5,1.0,35.0,1,1.0,0.3671999999996842
569,6,0.5,1.0,35.0,1,1.0,0.3063010000000759
570,6,0.5,0.5,35.0,1,1.0,0.2773000000001957
571,6,0.5,0.5,35.0,1,1.0,0.25680000000011205
572,6,0.5,1.0,35.0,1,1.0,0.30760000000009313
573,6,0.5,1.0,-35.0,-1,1.0,0.22989999999981592
574,6,0.5,0.25,35.0,1,1.0,0.2911999999996624
575,6,0.5,1.0,35.0,1,1.0,0.4768999999996595
576,6,0.5,0.25,-35.0,-1,1.0,0.4013009999998758
577,6,0.5,0.25,-35.0,-1,1.0,0.6541999999999462
578,6,0.5,1.0,35.0,1,1.0,0.3647000000000844
579,6,0.5,1.0,-35.0,-1,1.0,1.7074000000002343
580,6,0.5,0.125,35.0,1,1.0,0.35849999999982174
581,6,0.5,1.0,35.0,1,1.0,0.2943999999997686
582,6,0.5,0.25,35.0,1,1.0,0.3085000000000946
583,6,0.5,0.25,-35.0,-1,1.0,0.3713999999999942
584,6,0.5,0.125,-35.0,-1,1.0,0.4120999999995547
585,6,0.5,0.25,-35.0,-1,1.0,0.5947000000001026
586,6,0.5,1.0,35.0,1,1.0,0.6256000000003041
587,6,0.5,0.125,-35.0,-1,1.0,0.4216000000001259
588,6,0.5,0.25,35.0,1,1.0,0.2523999999998523
589,6,0.5,0.0625,-35.0,-1,1.0,0.4182999999998174
590,6,0.5,0.25,35.0,1,1.0,0.3659000000002379
591,6,0.5,1.0,-35.0,-1,1.0,0.3385009999997237
592,6,0.5,1.0,35.0,1,1.0,0.4228999999995722
593,6,0.5,0.25,35.0,1,1.0,0.5890999999996893
594,6,0.5,0.0625,35.0,-1,0.0,5.086399999999685
595,6,0.5,0.0625,35.0,-1,0.0,6.525900000000092
596,6,0.5,1.0,-35.0,-1,1.0,0.4901999999997315
597,6,0.5,0.125,-35.0,-1,1.0,0.7426000000000386
598,6,0.5,0.0625,35.0,-1,0.0,0.4271000000003369
599,6,0.5,0.125,-35.0,-1,1.0,0.433100000000195
600,6,0.5,0.0625,35.0,-1,0.0,0.5372000000002117
601,6,0.5,0.25,-35.0,-1,1.0,0.5000999999997475
602,6,0.5,0.0625,-35.0,-1,1.0,0.45069999999986976
603,6,0.5,0.125,-35.0,-1,1.0,3.8269000000000233
604,6,0.5,0.5,-35.0,-1,1.0,0.6742999999996755
605,6,0.5,0.125,35.0,-1,0.0,2.0000999999997475
606,6,0.5,0.125,-35.0,-1,1.0,0.32789999999977226
607,6,0.5,0.25,35.0,1,1.0,0.3499999999994543
608,6,0.5,1.0,35.0,1,1.0,0.30809999999974025
609,6,0.5,0.25,35.0,1,1.0,0.31760099999974045
610,6,0.5,0.0625,35.0,-1,0.0,0.30160099999966405
611,6,0.3,0.0625,35.0,-1,0.0,6.370899999999892
612,6,0.5,0.5,35.0,1,1.0,0.30860000000029686
613,6,0.5,1.0,-35.0,-1,1.0,0.43760000000020227
614,6,0.5,0.5,35.0,1,1.0,0.2721010000000206
615,6,0.5,1.0,-35.0,-1,1.0,0.4645999999997912
616,6,0.5,0.125,35.0,-1,0.0,0.1756000000000313
617,6,0.5,0.125,-35.0,-1,1.0,0.5913000000000466
618,6,0.5,1.0,-35.0,-1,1.0,0.3724000000001979
619,6,0.5,0.5,35.0,1,1.0,0.36500000000023647
620,6,0.5,0.25,35.0,1,1.0,0.28929999999991196
621,6,0.5,0.0625,35.0,-1,0.0,5.128600000000006
622,6,0.5,0.0625,35.0,-1,0.0,2.2030009999998583
623,6,0.5,0.0625,35.0,-1,0.0,4.602400000000216
624,6,0.5,0.25,35.0,1,1.0,0.4299999999998363
625,6,0.5,0.0625,35.0,-1,0.0,6.882500000000164
626,6,0.3,0.0625,35.0,-1,0.0,0.40380099999993035
627,6,0.5,0.5,35.0,1,1.0,0.5259999999998399
628,6,0.5,0.0625,-35.0,-1,1.0,0.7071999999998297
629,6,0.5,0.0625,35.0,1,1.0,2.9733000000001084
630,6,0.5,0.5,-35.0,-1,1.0,0.4940999999998894
631,6,0.5,0.0625,35.0,1,1.0,0.46040099999981976
632,6,0.5,0.125,-35.0,-1,1.0,0.5244999999995343
633,6,0.5,0.125,35.0,1,1.0,0.2602999999999156
634,6,0.5,0.0625,-35.0,-1,1.0,0.7314000000001215
635,6,0.5,1.0,-35.0,-1,1.0,0.4806000000003223
636,6,0.5,0.5,-35.0,-1,1.0,0.5914999999999964
637,6,0.5,0.0625,-35.0,-1,1.0,0.6672999999996136
638,6,0.5,0.5,-35.0,-1,1.0,0.5549000000000888
639,6,0.5,0.25,-35.0,-1,1.0,0.29149999999981446
640,6,0.5,0.0625,-35.0,-1,1.0,0.39170100000001185
641,6,0.5,0.5,35.0,1,1.0,0.2545000000000073
642,6,0.5,0.125,-35.0,-1,1.0,0.871900000000096
643,6,0.5,0.5,-35.0,-1,1.0,0.6378999999997177
644,6,0.5,0.125,35.0,1,1.0,2.512200000000121
645,6,0.5,1.0,35.0,1,1.0,0.4115999999999076
646,6,0.5,1.0,-35.0,-1,1.0,0.5790999999999258
647,6,0.5,1.0,35.0,1,1.0,0.4918999999999869
648,6,0.5,0.25,35.0,1,1.0,0.2959000000000742
649,6,0.5,1.0,35.0,1,1.0,0.33890100000007806
650,6,0.5,0.0625,-35.0,-1,1.0,0.4862009999997099
651,6,0.5,0.0625,-35.0,-1,1.0,0.25880099999994854
652,6,0.5,0.125,35.0,-1,0.0,1.3798020000003817
653,6,0.5,0.125,35.0,-1,0.0,2.6124009999998634
654,6,0.5,0.25,-35.0,-1,1.0,0.6900019999998221
655,6,0.5,0.25,35.0,1,1.0,0.3427010000000337
656,6,0.5,0.25,35.0,1,1.0,0.6102009999999609
657,6,0.5,0.25,-35.0,-1,1.0,0.35300099999994927
658,6,0.5,0.0625,35.0,1,1.0,0.27040100000021994
659,6,0.5,0.25,-35.0,-1,1.0,0.346400999999787
660,6,0.5,0.5,-35.0,-1,1.0,0.5873010000000249
661,6,0.5,0.0625,-35.0,-1,1.0,0.21630199999981414
662,6,0.5,0.125,35.0,-1,0.0,1.804200999999921
663,6,0.5,0.125,-35.0,-1,1.0,0.33660099999951854
664,6,0.5,0.5,35.0,1,1.0,0.31760099999974045
665,6,0.5,0.5,-35.0,1,0.0,0.25320200000032855
666,6,0.5,0.0625,35.0,-1,0.0,0.3811009999999442
667,6,0.3,0.0625,35.0,-1,0.0,3.517301000000316
668,6,0.5,0.5,35.0,1,1.0,0.7380010000001676
669,6,0.5,0.25,35.0,-1,0.0,0.5411010000002534
670,6,0.5,0.25,35.0,-1,0.0,3.831600999999864
671,6,0.3,0.25,-35.0,-1,1.0,0.45440099999996164
672,6,0.5,1.0,35.0,1,1.0,0.3886010000001079
673,6,0.5,0.5,35.0,1,1.0,0.4211009999999078
674,6,0.5,0.25,-35.0,1,0.0,0.12200099999972736
675,6,0.5,0.0625,35.0,-1,0.0,6.038800999999694
676,6,0.4,0.0625,-35.0,-1,1.0,5.688500999999633
677,6,0.5,0.5,35.0,1,1.0,0.3026009999998678
678,6,0.5,0.25,35.0,1,1.0,0.3719019999998636
679,6,0.5,0.0625,35.0,-1,0.0,1.336001000000124
680,6,0.5,0.0625,-35.0,-1,1.0,0.6550010000000839
681,6,0.5,1.0,35.0,1,1.0,0.3530009999994945
682,6,0.5,1.0,-35.0,-1,1.0,0.3488009999996393
683,6,0.5,0.5,35.0,1,1.0,0.4598009999999704
684,6,0.5,0.5,35.0,1,1.0,0.3459010000001399
685,6,0.5,0.5,35.0,1,1.0,0.3933009999996102
686,6,0.5,0.0625,-35.0,-1,1.0,0.47600099999999657
687,6,0.5,0.125,-35.0,-1,1.0,0.7001009999999042
688,6,0.5,0.0625,35.0,-1,0.0,4.342600999999831
689,6,0.5,0.25,-35.0,-1,1.0,0.5137010000003102
690,6,0.5,1.0,35.0,1,1.0,0.2997009999999136
691,6,0.5,0.25,35.0,1,1.0,0.36720100000002276
692,6,0.5,1.0,-35.0,-1,1.0,0.42970100000002276
693,6,0.5,1.0,35.0,1,1.0,0.5775010000002112
694,6,0.5,0.125,-35.0,-1,1.0,0.33670100000017555
695,6,0.5,0.5,35.0,1,1.0,0.34760099999994054
696,6,0.5,0.5,35.0,1,1.0,0.27730099999962476
697,6,0.5,1.0,35.0,1,1.0,0.3077010000001792
698,6,0.5,0.25,35.0,-1,0.0,5.213701000000128
699,6,0.6,0.25,35.0,-1,0.0,7.508100999999897
700,6,0.5,1.0,35.0,1,1.0,0.3645010000000184
701,6,0.5,0.5,-35.0,-1,1.0,0.5550010000001748
702,6,0.5,0.25,-35.0,-1,1.0,0.45460099999991144
703,6,0.5,0.25,35.0,1,1.0,0.3387009999996735
704,6,0.5,1.0,-35.0,-1,1.0,2.431202000000212
705,6,0.5,0.0625,-35.0,-1,1.0,0.475601000000097
706,6,0.5,0.125,-35.0,-1,1.0,0.548001000000113
707,6,0.5,0.25,35.0,1,1.0,0.372501999999713
708,6,0.5,0.25,35.0,1,1.0,0.4449009999998452
709,6,0.5,1.0,-35.0,-1,1.0,0.1625010000002476
710,6,0.5,0.125,-35.0,-1,1.0,0.848301000000447
711,6,0.5,1.0,35.0,1,1.0,0.34600200000022596
712,6,0.5,0.0625,-35.0,-1,1.0,0.5188010000001668
713,6,0.5,0.25,-35.0,-1,1.0,0.5262010000001283
714,6,0.5,0.0625,35.0,1,1.0,8.348601000000144
715,6,0.5,0.25,-35.0,-1,1.0,0.5600009999998292
716,6,0.5,0.125,-35.0,-1,1.0,0.5225009999999202
717,6,0.5,0.25,35.0,1,1.0,2.6533019999997123
718,6,0.5,1.0,-35.0,-1,1.0,0.46280099999967206
719,6,0.5,0.25,35.0,-1,0.0,4.150400999999874
720,6,0.3,0.25,35.0,-1,0.0,10.762901000000056
721,6,0.5,1.0,35.0,1,1.0,0.5108009999999013
722,6,0.5,0.5,-35.0,-1,1.0,0.5103020000001379
723,6,0.5,0.125,35.0,-1,0.0,8.374201000000085
724,6,0.3,0.125,-35.0,-1,1.0,0.3839010000001508
725,6,0.5,0.5,35.0,1,1.0,0.30130099999996673
726,6,0.5,0.0625,-35.0,-1,1.0,1.0706009999998969
727,6,0.5,0.125,-35.0,-1,1.0,0.4915019999998549
728,6,0.5,0.0625,35.0,-1,0.0,12.64730099999997
729,6,0.5,0.25,35.0,-1,0.0,20.2886010000002
730,6,0.5,0.25,35.0,1,1.0,38.625101000000086
731,6,0.5,1.0,35.0,1,1.0,0.9592009999996662
732,6,0.5,0.125,-35.0,1,0.0,17.89620100000002
733,6,0.5,0.25,-35.0,1,0.0,8.67310099999986
734,6,0.5,0.25,-35.0,-1,1.0,8.643301000000065
735,6,0.5,0.5,-35.0,-1,1.0,4.567801000000145
1,7,0.5,0.25,35.0,1,1.0,0.34119999999999995
2,7,0.5,1.0,35.0,1,1.0,0.46090000000000053
3,7,0.5,0.0625,35.0,1,1.0,0.27229999999999954
4,7,0.5,0.25,35.0,-1,0.0,4.161999999999999
5,7,0.5,0.0625,35.0,-1,0.0,2.2627000000000024
6,7,0.5,0.25,35.0,-1,0.0,0.6999000000000031
7,7,0.7,0.25,-35.0,-1,1.0,0.24799999999999756
8,7,0.5,0.5,-35.0,-1,1.0,0.32090000000000174
9,7,0.5,1.0,35.0,1,1.0,0.33440000000000225
10,7,0.5,0.5,-35.0,-1,1.0,0.48389999999999844
11,7,0.5,0.0625,-35.0,-1,1.0,0.1554000000000002
12,7,0.5,0.25,-35.0,-1,1.0,0.7899000000000029
13,7,0.5,0.0625,35.0,-1,0.0,0.10350000000000392
14,7,0.5,0.0625,-35.0,-1,1.0,0.28349999999999653
15,7,0.5,1.0,35.0,-1,0.0,0.1045999999999907
16,7,0.5,0.25,-35.0,-1,1.0,0.22990000000000066
17,7,0.5,0.0625,-35.0,-1,1.0,4.910999999999987
18,7,0.5,0.0625,35.0,-1,0.0,0.3041999999999945
19,7,0.1,0.0625,-35.0,-1,1.0,0.4696999999999889
20,7,0.5,1.0,35.0,-1,0.0,0.11409999999999343
21,7,0.0,1.0,35.0,1,1.0,0.34030000000001337
22,7,0.5,1.0,35.0,1,1.0,0.2563000000000102
23,7,0.5,1.0,35.0,-1,0.0,0.07939999999999259
24,7,0.5,0.25,35.0,1,1.0,0.28660000000000707
25,7,0.5,0.125,35.0,-1,0.0,0.1313999999999993
26,7,0.5,0.125,-35.0,-1,1.0,0.47820000000000107
27,7,0.5,0.25,35.0,1,1.0,0.2681000000000182
28,7,0.5,0.5,-35.0,-1,1.0,0.20179999999999154
29,7,0.5,0.0625,-35.0,-1,1.0,0.2621999999999787
30,7,0.5,0.125,-35.0,-1,1.0,0.09499999999999886
31,7,0.5,0.25,35.0,-1,0.0,1.356299999999976
32,7,0.5,0.125,-35.0,-1,1.0,0.34609999999997854
33,7,0.5,1.0,35.0,-1,0.0,0.10779999999996903
34,7,0.5,0.125,35.0,-1,0.0,0.10469999999997981
35,7,0.5,0.125,35.0,-1,0.0,0.9130000000000109
36,7,0.5,0.25,-35.0,-1,1.0,0.30169999999998254
37,7,0.5,0.5,-35.0,-1,1.0,0.09719999999995821
38,7,0.5,0.0625,35.0,-1,0.0,0.8699000000000012
39,7,0.0,0.0625,35.0,1,1.0,0.3067999999999813
40,7,0.5,0.5,35.0,1,1.0,0.10369999999997503
41,7,0.5,0.125,35.0,-1,0.0,0.25749999999996476
42,7,0.5,0.0625,-35.0,-1,1.0,0.3177000000000021
43,7,0.5,0.25,-35.0,-1,1.0,0.2893999999999721
44,7,0.5,1.0,-35.0,-1,1.0,0.34439999999997895
45,7,0.5,0.5,35.0,-1,0.0,0.5093999999999994
46,7,0.5,0.0625,-35.0,-1,1.0,0.1875999999999749
47,7,0.5,1.0,35.0,1,1.0,0.31979999999998654
48,7,0.5,0.25,-35.0,-1,1.0,0.2974999999999568
49,7,0.5,1.0,-35.0,-1,1.0,0.19350000000000023
50,7,0.5,0.0625,35.0,1,1.0,0.2893999999999721
51,7,0.5,0.125,35.0,1,1.0,0.2691000000000088
52,7,0.5,0.0625,35.0,-1,0.0,1.3656000000000006
53,7,0.5,0.125,35.0,-1,0.0,0.676099999999991
54,7,0.3,0.125,35.0,-1,0.0,0.40449999999998454
55,7,0.5,1.0,35.0,1,1.0,0.1998999999999853
56,7,0.5,0.125,35.0,-1,0.0,1.139099999999985
57,7,0.5,0.125,35.0,1,1.0,0.2793999999999528
58,7,0.5,0.5,35.0,1,1.0,0.24950000000001182
59,7,0.5,1.0,35.0,1,1.0,0.15760000000000218
60,7,0.5,1.0,35.0,1,1.0,0.257699999999943
61,7,0.5,0.125,35.0,-1,0.0,0.18640000000004875
62,7,0.5,0.125,35.0,1,1.0,0.26820000000003574
63,7,0.5,0.5,35.0,1,1.0,0.219600000000014
64,7,0.5,0.5,35.0,1,1.0,0.07920000000001437
65,7,0.5,0.0625,-35.0,-1,1.0,0.22930000000002337
66,7,0.5,0.5,-35.0,-1,1.0,0.21820000000002437
67,7,0.5,0.5,35.0,1,1.0,0.3137999999999579
68,7,0.5,1.0,35.0,1,1.0,0.07620000000002847
69,7,0.5,1.0,-35.0,-1,1.0,0.098700000000008
70,7,0.5,1.0,35.0,1,1.0,0.22180000000008704
71,7,0.5,0.25,-35.0,-1,1.0,0.23230000000000928
72,7,0.5,0.0625,-35.0,-1,1.0,0.25310000000001764
73,7,0.5,0.0625,35.0,-1,0.0,0.453200000000038
74,7,0.5,0.25,-35.0,-1,1.0,0.5866000000000327
75,7,0.5,0.5,-35.0,-1,1.0,0.4954000000000178
76,7,0.5,1.0,-35.0,-1,1.0,0.77049999999997
77,7,0.5,0.0625,-35.0,-1,1.0,0.09329999999999927
78,7,0.5,0.5,35.0,-1,0.0,0.44139999999998736
79,7,0.5,0.125,-35.0,-1,1.0,0.5662989999999581
80,7,0.5,0.5,35.0,1,1.0,0.2606999999999857
81,7,0.5,0.25,35.0,1,1.0,0.296100000000024
82,7,0.5,1.0,-35.0,-1,1.0,0.09530000000000882
83,7,0.5,0.25,35.0,1,1.0,0.2199000000000524
84,7,0.5,0.0,-35.0,-1,1.0,0.2506000000000199
85,7,0.5,0.5,35.0,-1,0.0,0.10829999999998563
86,7,0.5,0.125,-35.0,-1,1.0,0.15709999999995716
87,7,0.5,1.0,-35.0,-1,1.0,0.1685000000000514
88,7,0.5,0.0625,-35.0,-1,1.0,0.3521000000000072
89,7,0.5,0.0625,35.0,1,1.0,0.2896999999999821
90,7,0.5,0.125,-35.0,-1,1.0,0.33330000000000837
91,7,0.5,0.5,35.0,1,1.0,0.28899999999998727
92,7,0.5,0.25,-35.0,-1,1.0,0.17029999999999745
93,7,0.5,0.5,-35.0,-1,1.0,0.1522000000000503
94,7,0.5,0.0625,35.0,-1,0.0,0.4023000000000252
95,7,0.5,0.125,35.0,-1,0.0,0.1423000000000343
96,7,0.2,0.125,35.0,1,1.0,0.30920000000003256
97,7,0.5,0.5,35.0,1,1.0,0.2906000000000404
98,7,0.5,0.5,35.0,-1,0.0,0.11299999999999955
99,7,0.5,0.0625,-35.0,-1,1.0,0.33020000000004757
100,7,0.5,0.25,-35.0,-1,1.0,0.4825000000000159
101,7,0.5,0.5,35.0,-1,0.0,0.10320000000001528
102,7,0.2,0.5,-35.0,-1,1.0,0.3515989999999647
103,7,0.5,0.5,35.0,1,1.0,0.218400000000031
104,7,0.5,0.5,-35.0,-1,1.0,0.30860000000001264
105,7,0.5,0.0625,-35.0,-1,1.0,0.18990000000002283
106,7,0.5,0.25,-35.0,-1,1.0,0.3701000000000363
107,7,0.5,0.25,35.0,1,1.0,0.4773999999999887
108,7,0.5,0.5,-35.0,-1,1.0,0.16859999999996944
109,7,0.5,1.0,35.0,1,1.0,0.2598999999999023
110,7,0.5,0.0625,-35.0,-1,1.0,0.25540000000000873
111,7,0.5,0.0625,-35.0,1,0.0,0.08789999999999054
112,7,0.5,0.125,-35.0,1,0.0,0.10469999999997981
113,7,0.5,0.0625,35.0,1,1.0,0.6567000000000007
114,7,0.5,0.0625,35.0,1,1.0,0.2901999999999134
115,7,0.5,0.125,-35.0,-1,1.0,0.5675989999998592
116,7,0.5,0.0625,-35.0,-1,1.0,0.10530000000005657
117,7,0.5,0.0,-35.0,-1,1.0,0.21079999999994925
118,7,0.5,1.0,35.0,1,1.0,0.24899999999990996
119,7,0.5,0.25,35.0,1,1.0,0.23469999999997526
120,7,0.5,1.0,35.0,-1,0.0,0.6544999999999845
121,7,0.5,0.25,-35.0,-1,1.0,0.2576000000000249
122,7,0.5,0.0,35.0,-1,0.0,2.500199999999836
123,7,0.4,0.0,-35.0,-1,1.0,1.1575000000000273
124,7,0.5,1.0,35.0,1,1.0,0.23269999999990887
125,7,0.5,1.0,-35.0,-1,1.0,0.555699999999888
126,7,0.5,0.125,35.0,-1,0.0,1.3908999999999878
127,7,0.5,0.0625,-35.0,-1,1.0,0.35829999999987194
128,7,0.5,0.0625,-35.0,-1,1.0,0.33809999999994034
129,7,0.5,1.0,-35.0,-1,1.0,1.206199999999967
130,7,0.5,1.0,35.0,1,1.0,0.22489999999993415
131,7,0.5,0.125,35.0,-1,0.0,0.23509999999998854
132,7,0.5,0.25,-35.0,-1,1.0,0.518799999999942
133,7,0.5,0.0625,-35.0,1,0.0,0.18299999999987904
134,7,0.5,0.0,35.0,-1,0.0,0.21699999999998454
135,7,0.2,0.0,-35.0,1,0.0,0.33999999999991815
136,7,0.5,1.0,35.0,1,1.0,0.449799999999982
137,7,0.5,1.0,35.0,-1,0.0,0.09959999999989577
138,7,0.5,0.0,35.0,-1,0.0,0.4533000000000129
139,7,0.5,0.125,-35.0,-1,1.0,0.24049999999988358
140,7,0.5,0.125,-35.0,-1,1.0,0.42429999999990287
141,7,0.5,0.125,35.0,1,1.0,0.6920000000000073
142,7,0.5,1.0,35.0,1,1.0,0.3727000000000089
143,7,0.5,0.0625,-35.0,-1,1.0,0.14649999999994634
144,7,0.5,0.25,35.0,1,1.0,0.2661000000000513
145,7,0.5,0.25,-35.0,-1,1.0,0.6279000000000678
146,7,0.5,0.25,-35.0,-1,1.0,0.37239999999997053
147,7,0.5,0.0625,35.0,-1,0.0,2.7136999999999034
148,7,0.5,0.125,-35.0,1,0.0,0.17060000000003583
149,7,0.5,0.0625,35.0,1,1.0,0.28739999999993415
150,7,0.5,1.0,35.0,-1,0.0,3.0299999999999727
151,7,0.5,1.0,-35.0,-1,1.0,0.29939999999999145
152,7,0.5,0.5,35.0,1,1.0,0.3606999999999516
153,7,0.5,0.125,35.0,-1,0.0,0.24719999999990705
154,7,0.4,0.125,-35.0,-1,1.0,0.10879999999986012
155,7,0.5,0.5,35.0,1,1.0,0.22429999999997108
156,7,0.5,0.0,-35.0,1,0.0,0.32349999999996726
157,7,0.5,0.0,35.0,1,1.0,0.35369999999988977
158,7,0.5,1.0,-35.0,-1,1.0,0.3109999999999218
159,7,0.5,0.0625,-35.0,-1,1.0,0.19429999999988468
160,7,0.5,0.125,35.0,1,1.0,0.3067999999999529
161,7,0.5,1.0,-35.0,-1,1.0,0.22929999999985284
162,7,0.5,0.0625,-35.0,-1,1.0,0.7727999999999611
163,7,0.5,0.125,-35.0,-1,1.0,0.45929999999987103
164,7,0.5,0.5,-35.0,1,0.0,0.24469999999996617
165,7,0.5,0.25,-35.0,-1,1.0,0.22089999999991505
166,7,0.5,0.125,35.0,-1,0.0,0.09750000000008185
167,7,0.5,0.0,-35.0,-1,1.0,0.31969999999989795
168,7,0.5,0.25,-35.0,-1,1.0,0.08529999999984739
169,7,0.5,0.5,35.0,1,1.0,0.27349999999989905
170,7,0.5,0.5,-35.0,-1,1.0,0.2219000000000051
171,7,0.5,0.0,-35.0,-1,1.0,0.3544999999999163
172,7,0.5,1.0,35.0,1,1.0,0.23339999999996053
173,7,0.5,1.0,-35.0,-1,1.0,0.09229899999991176
174,7,0.5,0.25,35.0,-1,0.0,0.12329999999997199
175,7,0.2,0.25,35.0,1,1.0,0.17079999999998563
176,7,0.5,0.5,35.0,-1,0.0,0.11869999999998981
177,7,0.3,0.5,-35.0,-1,1.0,0.25120000000003984
178,7,0.5,0.5,35.0,1,1.0,0.5048999999999069
179,7,0.5,0.25,35.0,-1,0.0,0.4261999999998807
180,7,0.3,0.25,35.0,1,1.0,0.2418999999999869
181,7,0.5,0.5,-35.0,-1,1.0,0.28769999999997253
182,7,0.5,0.5,-35.0,-1,1.0,0.1719989999999143
183,7,0.5,1.0,-35.0,-1,1.0,0.3808999999999969
184,7,0.5,0.125,35.0,1,1.0,0.22089999999991505
185,7,0.5,0.25,-35.0,1,0.0,0.06569999999987886
186,7,0.4,0.25,35.0,1,1.0,0.2380999999999176
187,7,0.5,1.0,35.0,1,1.0,0.3352999999999611
188,7,0.5,0.25,-35.0,-1,1.0,0.11540000000002237
189,7,0.5,1.0,35.0,1,1.0,0.3272999999999229
190,7,0.5,0.125,35.0,1,1.0,0.2867999999999711
191,7,0.5,1.0,-35.0,-1,1.0,0.11400000000003274
192,7,0.5,0.0625,-35.0,1,0.0,0.11749999999994998
193,7,0.7,0.0625,-35.0,-1,1.0,0.33169999999995525
194,7,0.5,1.0,-35.0,-1,1.0,0.4252999999999929
195,7,0.5,1.0,35.0,-1,0.0,0.11439999999993233
196,7,0.5,0.0625,35.0,-1,0.0,0.38639999999986685
197,7,0.5,0.125,35.0,1,1.0,0.28300000000001546
198,7,0.5,0.5,-35.0,-1,1.0,0.13239999999996144
199,7,0.5,0.0625,-35.0,-1,1.0,0.27289999999993597
200,7,0.5,0.0,-35.0,-1,1.0,0.1088999999999487
201,7,0.5,0.25,-35.0,-1,1.0,0.1307000000000471
202,7,0.5,0.0,-35.0,-1,1.0,0.10799999999994725
203,7,0.5,1.0,-35.0,-1,1.0,0.27769999999986794
204,7,0.5,0.0625,-35.0,-1,1.0,0.33839999999986503
205,7,0.5,0.125,35.0,1,1.0,0.2417000000000371
206,7,0.5,0.5,-35.0,-1,1.0,0.12839999999982865
207,7,0.5,0.5,-35.0,-1,1.0,0.07880000000000109
208,7,0.5,0.125,35.0,1,1.0,0.26880000000005566
209,7,0.5,0.125,35.0,1,1.0,0.4592000000000098
210,7,0.5,0.5,-35.0,1,0.0,0.10259999999993852
211,7,0.4,0.5,35.0,1,1.0,0.20240000000012515
212,7,0.5,0.5,35.0,1,1.0,0.24929999999972097
213,7,0.5,0.5,-35.0,-1,1.0,0.1894999999999527
214,7,0.5,0.25,-35.0,-1,1.0,0.09979999999973188
215,7,0.5,0.25,35.0,1,1.0,0.25969999999983884
216,7,0.5,0.0625,-35.0,-1,1.0,0.2598000000000411
217,7,0.5,0.125,-35.0,-1,1.0,0.11940000000004147
218,7,0.5,0.125,-35.0,1,0.0,0.2198000000000775
219,7,0.6,0.125,-35.0,-1,1.0,0.4798999999998159
220,7,0.5,1.0,-35.0,-1,1.0,0.0806999999999789
221,7,0.5,1.0,35.0,1,1.0,0.22679999999991196
222,7,0.5,0.125,35.0,1,1.0,0.3399000000001706
223,7,0.5,0.125,-35.0,-1,1.0,0.30729999999994106
224,7,0.5,1.0,-35.0,-1,1.0,0.1774000000000342
225,7,0.5,1.0,35.0,1,1.0,0.39069999999992433
226,7,0.5,0.25,-35.0,-1,1.0,0.20409999999992579
227,7,0.5,0.125,-35.0,-1,1.0,0.29480000000012296
228,7,0.5,1.0,35.0,1,1.0,0.22129999999992833
229,7,0.5,0.0625,35.0,1,1.0,0.1378999999997177
230,7,0.5,0.5,35.0,-1,0.0,0.09470000000010259
231,7,0.5,0.5,35.0,1,1.0,0.2481000000000222
232,7,0.5,1.0,35.0,1,1.0,0.30150000000003274
233,7,0.5,0.0625,35.0,-1,0.0,2.7951000000000477
234,7,0.5,0.0625,-35.0,-1,1.0,0.2987000000000535
235,7,0.5,0.5,35.0,1,1.0,0.25890000000003965
236,7,0.5,0.0625,-35.0,-1,1.0,0.4355000000000473
237,7,0.5,0.5,35.0,1,1.0,0.3158000000000811
238,7,0.5,0.25,-35.0,1,0.0,0.2986999999998261
239,7,0.5,0.25,35.0,1,1.0,0.45289999999999964
240,7,0.5,1.0,35.0,1,1.0,0.2495000000001255
241,7,0.5,0.0625,-35.0,-1,1.0,0.3492999999998574
242,7,0.5,0.0625,35.0,1,1.0,0.6797999999998865
243,7,0.5,0.125,-35.0,-1,1.0,0.35609999999996944
244,7,0.5,1.0,-35.0,-1,1.0,0.5031000000001313
245,7,0.5,1.0,35.0,-1,0.0,0.12310000000002219
246,7,0.5,1.0,35.0,1,1.0,0.33999999999991815
247,7,0.5,0.5,35.0,-1,0.0,0.1633999999999105
248,7,0.5,0.5,-35.0,-1,1.0,0.41650000000004184
249,7,0.5,1.0,-35.0,-1,1.0,0.25329999999985375
250,7,0.5,0.0625,-35.0,-1,1.0,1.1934999999998581
251,7,0.5,1.0,-35.0,-1,1.0,0.6270999999999276
252,7,0.5,0.0625,-35.0,-1,1.0,0.08730000000014115
253,7,0.5,0.125,-35.0,-1,1.0,0.2605999999998403
254,7,0.5,1.0,-35.0,-1,1.0,0.3838999999998123
255,7,0.5,0.125,-35.0,-1,1.0,0.2875000000001364
256,7,0.5,1.0,35.0,1,1.0,0.31110000000012406
257,7,0.5,0.0625,35.0,-1,0.0,1.0911999999998443
258,7,0.5,0.0625,-35.0,1,0.0,0.30480000000011387
259,7,0.5,0.0625,-35.0,-1,1.0,0.758199999999988
260,7,0.5,0.5,35.0,-1,0.0,0.08179999999970278
261,7,0.5,0.125,35.0,1,1.0,0.2958000000000993
262,7,0.5,0.125,35.0,-1,0.0,0.24270000000001346
263,7,0.3,0.125,-35.0,-1,1.0,0.40279999999984284
264,7,0.5,0.5,35.0,1,1.0,0.24279999999976098
265,7,0.5,0.25,-35.0,-1,1.0,0.16280000000006112
266,7,0.5,1.0,-35.0,-1,1.0,0.3062999999999647
267,7,0.5,0.0,35.0,-1,0.0,0.11639999999988504
268,7,0.5,0.0625,-35.0,1,0.0,0.27330000000006294
269,7,0.3,0.0625,35.0,1,1.0,0.34989999999993415
270,7,0.5,0.5,35.0,1,1.0,0.29670000000010077
271,7,0.5,0.125,-35.0,-1,1.0,0.2699999999999818
272,7,0.5,0.0,35.0,-1,0.0,0.8968999999997322
273,7,0.5,0.25,35.0,1,1.0,0.27700000000004366
274,7,0.5,0.125,35.0,-1,0.0,0.1169999999999618
275,7,0.5,0.0,-35.0,1,0.0,0.25729999999998654
276,7,0.5,0.125,-35.0,-1,1.0,0.38390000000003965
277,7,0.5,0.25,-35.0,-1,1.0,0.20409999999992579
278,7,0.5,0.25,-35.0,-1,1.0,0.38429999999993925
279,7,0.5,1.0,-35.0,-1,1.0,0.26759999999990214
280,7,0.5,0.125,35.0,-1,0.0,0.13439999999991414
281,7,0.5,0.125,35.0,-1,0.0,0.08789999999976317
282,7,0.5,0.0625,-35.0,-1,1.0,0.484599999999773
283,7,0.5,1.0,35.0,1,1.0,0.15129999999976462
284,7,0.5,0.125,-35.0,-1,1.0,0.20149999999989632
285,7,0.5,1.0,-35.0,-1,1.0,0.4515999999998712
286,7,0.5,0.0625,-35.0,-1,1.0,0.13840000000004693
287,7,0.5,0.25,35.0,-1,0.0,0.10169999999993706
288,7,0.1,0.25,35.0,-1,0.0,1.4350999999999203
289,7,0.5,1.0,35.0,1,1.0,0.26520000000004984
290,7,0.5,0.25,35.0,1,1.0,0.3186999999998079
291,7,0.5,0.0625,35.0,-1,0.0,0.1087999999999738
292,7,0.5,0.125,35.0,-1,0.0,1.1622999999999593
293,7,0.5,0.125,-35.0,-1,1.0,0.4657999999999447
294,7,0.5,0.25,-35.0,-1,1.0,0.5191000000002077
295,7,0.5,0.25,-35.0,-1,1.0,0.6325999999999112
296,7,0.5,0.25,35.0,1,1.0,0.2727999999999611
297,7,0.5,0.0625,-35.0,-1,1.0,0.17609999999990578
298,7,0.5,0.0625,35.0,-1,0.0,1.6063000000001466
299,7,0.5,0.25,-35.0,-1,1.0,0.6630999999999858
300,7,0.5,0.25,-35.0,-1,1.0,2.8231000000000677
301,7,0.5,1.0,35.0,1,1.0,0.25319999999987886
302,7,0.5,0.25,35.0,1,1.0,0.2765999999999167
303,7,0.5,0.125,35.0,-1,0.0,0.4233000000001539
304,7,0.5,0.0625,-35.0,-1,1.0,0.2901000000001659
305,7,0.5,0.125,35.0,-1,0.0,0.3068999999998141
306,7,0.5,0.0625,35.0,-1,0.0,3.080400000000054
307,7,0.2,0.0625,35.0,-1,0.0,0.4803999999999178
308,7,0.5,1.0,35.0,1,1.0,0.2906999999997879
309,7,0.5,0.25,-35.0,-1,1.0,0.2672000000002299
310,7,0.5,0.25,35.0,1,1.0,0.2842000000000553
311,7,0.5,0.125,35.0,-1,0.0,1.3009999999999309
312,7,0.3,0.125,35.0,-1,0.0,2.5376000000001113
313,7,0.5,1.0,35.0,1,1.0,0.2545999999999822
314,7,0.5,1.0,35.0,1,1.0,0.2613000000001193
315,7,0.5,1.0,-35.0,-1,1.0,0.33140000000003056
316,7,0.5,0.25,-35.0,-1,1.0,1.0815000000000055
317,7,0.5,1.0,-35.0,-1,1.0,0.30149999999980537
318,7,0.5,0.25,35.0,1,1.0,0.2983000000001539
319,7,0.5,1.0,35.0,1,1.0,0.2583999999999378
320,7,0.5,0.125,-35.0,-1,1.0,0.3649999999997817
321,7,0.5,0.125,-35.0,-1,1.0,0.3485000000000582
322,7,0.5,1.0,-35.0,-1,1.0,0.22529899999994996
323,7,0.5,1.0,-35.0,-1,1.0,0.5419999999999163
324,7,0.5,0.25,-35.0,-1,1.0,0.2623000000000957
325,7,0.5,0.125,-35.0,-1,1.0,0.39560000000005857
326,7,0.5,1.0,35.0,1,1.0,0.33560000000011314
327,7,0.5,0.0625,35.0,-1,0.0,1.7658000000001266
328,7,0.5,0.0625,35.0,1,1.0,0.24589999999989232
329,7,0.5,1.0,-35.0,-1,1.0,0.17259999999987485
330,7,0.5,0.0,35.0,-1,0.0,0.42259999999987485
331,7,0.2,0.0,35.0,-1,0.0,0.3894999999999982
332,7,0.5,1.0,35.0,1,1.0,0.26289999999994507
333,7,0.5,0.125,-35.0,-1,1.0,0.12969999999995707
334,7,0.5,1.0,-35.0,1,0.0,0.2830999999998767
335,7,0.5,0.25,-35.0,-1,1.0,0.2864999999999327
336,7,0.5,0.125,-35.0,-1,1.0,0.4133999999999105
337,7,0.5,1.0,-35.0,-1,1.0,0.3169000000000324
338,7,0.5,0.125,35.0,-1,0.0,1.0335000000000036
339,7,0.5,0.125,-35.0,-1,1.0,0.583699999999908
340,7,0.5,1.0,-35.0,-1,1.0,0.2637999999999465
341,7,0.5,0.125,35.0,1,1.0,0.30389999999988504
342,7,0.5,0.125,-35.0,-1,1.0,0.2707989999998972
343,7,0.5,0.25,35.0,1,1.0,0.6609000000000833
344,7,0.5,0.125,35.0,1,1.0,0.3242999999999938
345,7,0.5,0.0,35.0,-1,0.0,0.21109999999976026
346,7,0.5,0.125,-35.0,-1,1.0,0.44460000000003674
347,7,0.5,0.25,35.0,1,1.0,0.3147000000001299
348,7,0.5,0.25,35.0,1,1.0,0.33140000000003056
349,7,0.5,0.25,35.0,1,1.0,0.4380999999998494
350,7,0.5,0.0,-35.0,-1,1.0,0.12139999999999418
351,7,0.5,0.125,-35.0,-1,1.0,0.3082999999999174
352,7,0.5,0.0625,35.0,-1,0.0,0.1716999999998734
353,7,0.5,0.25,-35.0,-1,1.0,0.2784999999998945
354,7,0.5,0.0,35.0,-1,0.0,0.23850000000015825
355,7,0.3,0.0,35.0,-1,0.0,0.6651999999999134
356,7,0.5,1.0,-35.0,-1,1.0,0.37469999999984793
357,7,0.5,0.125,35.0,1,1.0,0.2786999999998443
358,7,0.5,1.0,-35.0,-1,1.0,2.1122999999997774
359,7,0.5,0.0625,35.0,1,1.0,0.322400000000016
360,7,0.5,0.25,-35.0,-1,1.0,0.3991000000000895
361,7,0.5,0.25,35.0,1,1.0,0.28919999999993706
362,7,0.5,0.0625,35.0,1,1.0,0.30589999999983775
363,7,0.5,0.0,35.0,-1,0.0,0.31930000000011205
364,7,0.5,0.0625,-35.0,-1,1.0,0.28949999999986176
365,7,0.5,0.0,35.0,-1,0.0,0.5762999999997191
366,7,0.5,0.125,35.0,1,1.0,0.23969999999985703
367,7,0.5,0.0625,35.0,-1,0.0,0.36979999999994106
368,7,0.5,0.25,35.0,1,1.0,0.2465999999997166
369,7,0.5,0.25,-35.0,-1,1.0,0.2132000000001426
370,7,0.5,0.25,35.0,1,1.0,0.3366000000000895
371,7,0.5,1.0,35.0,-1,0.0,0.1268000000000029
372,7,0.5,0.25,35.0,1,1.0,0.3602000000000771
373,7,0.5,0.25,35.0,1,1.0,0.2402999999999338
374,7,0.5,0.125,35.0,1,1.0,0.2868999999998323
375,7,0.5,0.0625,-35.0,-1,1.0,0.19369999999980791
376,7,0.5,0.125,-35.0,-1,1.0,0.18719999999984793
377,7,0.5,0.0625,35.0,-1,0.0,1.453800000000001
378,7,0.5,0.0625,-35.0,-1,1.0,0.2540999999998803
379,7,0.5,0.0,-35.0,-1,1.0,0.3408999999999196
380,7,0.5,0.25,-35.0,-1,1.0,0.34439999999972315
381,7,0.5,0.0625,35.0,1,1.0,0.23090000000001965
382,7,0.5,0.25,-35.0,-1,1.0,0.21119999999996253
383,7,0.5,0.125,-35.0,-1,1.0,0.5311999999998989
384,7,0.5,1.0,35.0,1,1.0,0.1047000000000935
385,7,0.5,0.125,-35.0,-1,1.0,0.18479999999999563
386,7,0.5,0.125,-35.0,-1,1.0,0.18479999999999563
387,7,0.5,0.25,-35.0,-1,1.0,0.24490000000014334
388,7,0.5,0.0625,35.0,-1,0.0,0.11169999999992797
389,7,0.2,0.0625,35.0,-1,0.0,0.578499999999849
390,7,0.5,1.0,35.0,1,1.0,0.3251000000000204
391,7,0.5,0.25,-35.0,-1,1.0,0.2585999999998876
392,7,0.5,0.125,-35.0,-1,1.0,0.3220000000001164
393,7,0.5,0.125,35.0,1,1.0,0.28209899999978916
394,7,0.5,0.25,35.0,-1,0.0,1.965400000000045
395,7,0.5,0.0,-35.0,-1,1.0,0.2522999999998774
396,7,0.5,1.0,-35.0,-1,1.0,0.689200000000028
397,7,0.5,1.0,-35.0,-1,1.0,0.6159000000000106
398,7,0.5,0.0625,-35.0,-1,1.0,0.7427000000000135
399,7,0.5,0.0625,-35.0,-1,1.0,0.6759999999999309
400,7,0.5,0.125,-35.0,1,0.0,0.3330000000000837
401,7,0.5,0.0625,35.0,-1,0.0,1.0597000000000207
402,7,0.5,0.0,-35.0,-1,1.0,1.4231999999997242
403,7,0.5,0.125,35.0,-1,0.0,3.1897999999998774
404,7,0.5,0.125,-35.0,-1,1.0,0.3532999999999902
405,7,0.5,1.0,35.0,1,1.0,0.28350000000000364
406,7,0.5,0.25,-35.0,-1,1.0,0.29349999999976717
407,7,0.5,0.0,-35.0,-1,1.0,0.31349999999997635
408,7,0.5,0.125,35.0,1,1.0,0.21699999999987085
409,7,0.5,1.0,35.0,1,1.0,0.20040000000017244
410,7,0.5,0.0625,-35.0,-1,1.0,0.23729999999977736
411,7,0.5,0.25,-35.0,-1,1.0,1.48050000000012
412,7,0.5,0.0,-35.0,-1,1.0,0.3472999999999047
413,7,0.5,0.25,-35.0,-1,1.0,0.5307999999999993
414,7,0.5,0.125,-35.0,-1,1.0,0.3108999999999469
415,7,0.5,0.25,35.0,-1,0.0,0.6110000000001037
416,7,0.5,0.0,35.0,-1,0.0,1.1512000000002445
417,7,0.5,0.0625,35.0,1,1.0,3.874600000000555
418,7,0.5,0.25,35.0,1,1.0,0.24479999999994106
419,7,0.5,0.125,35.0,-1,0.0,1.5982000000003609
420,7,0.5,0.25,35.0,1,1.0,0.26499999999987267
421,7,0.5,0.0625,35.0,-1,0.0,0.18180000000029395
422,7,0.5,0.0,35.0,-1,0.0,0.3218000000001666
423,7,0.3,0.0,35.0,-1,0.0,0.5453000000002248
424,7,0.5,1.0,-35.0,-1,1.0,0.6353000000003703
425,7,0.5,0.0625,35.0,1,1.0,0.2454000000002452
426,7,0.5,0.25,35.0,1,1.0,0.24549999999999272
427,7,0.5,0.0625,35.0,1,1.0,0.27890000000024884
428,7,0.5,0.0625,-35.0,-1,1.0,0.42580000000043583
429,7,0.5,0.125,-35.0,-1,1.0,0.32580000000007203
430,7,0.5,0.0625,-35.0,-1,1.0,0.4291000000002896
431,7,0.5,1.0,-35.0,-1,1.0,0.43600000000014916
432,7,0.5,0.25,35.0,1,1.0,0.29260000000022046
433,7,0.5,0.0,-35.0,-1,1.0,0.5794000000005326
434,7,0.5,0.25,-35.0,-1,1.0,0.5760999999997694
435,7,0.5,0.0,-35.0,-1,1.0,0.5131000000001222
436,7,0.5,0.0,-35.0,-1,1.0,3.162499999999909
437,7,0.5,0.125,35.0,1,1.0,0.29670000000032815
438,7,0.5,0.0625,35.0,1,1.0,0.2659000000003289
439,7,0.5,1.0,-35.0,-1,1.0,0.4262000000003354
440,7,0.5,1.0,35.0,1,1.0,0.2062000000005355
441,7,0.5,0.125,35.0,1,1.0,0.2895000000003165
442,7,0.5,0.0625,35.0,1,1.0,0.30629999999973734
443,7,0.5,1.0,-35.0,-1,1.0,0.44630000000006476
444,7,0.5,0.25,-35.0,-1,1.0,0.3666000000002896
445,7,0.5,0.25,-35.0,1,0.0,0.1465000000002874
446,7,0.5,0.0625,-35.0,-1,1.0,1.6600000000003092
447,7,0.5,0.125,-35.0,1,0.0,0.18679999999994834
448,7,0.5,0.25,35.0,1,1.0,0.2504999999996471
449,7,0.5,0.0625,35.0,1,1.0,0.30369999999993524
450,7,0.5,0.125,35.0,1,1.0,0.18020000000024083
451,7,0.5,0.0625,35.0,-1,0.0,0.43760000000020227
452,7,0.6,0.0625,35.0,1,1.0,0.3573999999998705
453,7,0.5,1.0,-35.0,-1,1.0,0.26080000000001746
454,7,0.5,0.25,35.0,-1,0.0,0.4308000000000902
455,7,0.5,0.0625,35.0,-1,0.0,0.7108000000002903
456,7,0.5,0.25,35.0,1,1.0,0.3010000000003856
457,7,0.5,0.25,-35.0,-1,1.0,0.4145000000003165
458,7,0.5,0.25,-35.0,-1,1.0,0.6447000000002845
459,7,0.5,0.25,35.0,1,1.0,0.29460000000017317
460,7,0.5,0.25,-35.0,-1,1.0,0.26470000000017535
461,7,0.5,0.0625,35.0,-1,0.0,4.2348000000001775
462,7,0.3,0.0625,35.0,-1,0.0,0.8949000000002343
463,7,0.5,1.0,35.0,1,1.0,0.258900000000267
464,7,0.5,0.0625,35.0,-1,0.0,0.5820000000003347
465,7,0.5,0.25,-35.0,-1,1.0,0.7984000000001288
466,7,0.5,0.25,35.0,1,1.0,0.2986999999998261
467,7,0.5,0.0625,-35.0,-1,1.0,1.355300000000625
468,7,0.5,0.125,35.0,-1,0.0,3.002100000000155
469,7,0.5,0.0,35.0,-1,0.0,9.402300000000196
470,7,0.5,0.25,35.0,1,1.0,0.32930000000033033
471,7,0.5,0.25,-35.0,-1,1.0,3.809700000000703
472,7,0.5,0.125,-35.0,-1,1.0,0.7428999999997359
473,7,0.5,0.125,35.0,-1,0.0,0.9537000000004809
474,7,0.5,0.125,35.0,1,1.0,0.26390000000037617
475,7,0.5,0.25,-35.0,-1,1.0,0.26399999999966894
476,7,0.5,0.0625,35.0,-1,0.0,0.1774000000000342
477,7,0.5,0.0625,-35.0,-1,1.0,2.427400000000034
478,7,0.5,1.0,-35.0,-1,1.0,0.33080000000018117
479,7,0.5,0.25,-35.0,-1,1.0,0.4877000000001317
480,7,0.5,1.0,-35.0,-1,1.0,0.511199999999917
481,7,0.5,0.0625,35.0,-1,0.0,0.3613000000004831
482,7,0.5,0.125,-35.0,-1,1.0,0.6346000000003187
483,7,0.5,1.0,-35.0,-1,1.0,0.4247000000004846
484,7,0.5,0.125,-35.0,-1,1.0,0.6848000000004504
485,7,0.5,1.0,35.0,1,1.0,0.23820000000023356
486,7,0.5,0.25,-35.0,-1,1.0,0.27160000000048967
487,7,0.5,0.25,35.0,1,1.0,0.3251000000004751
488,7,0.5,0.0,35.0,-1,0.0,0.38839999999981956
489,7,0.5,0.0625,-35.0,-1,1.0,0.7885000000001128
490,7,0.5,0.0625,35.0,1,1.0,0.4519000000000233
491,7,0.5,0.125,-35.0,-1,1.0,0.6387000000004264
492,7,0.5,0.0,35.0,-1,0.0,1.5455999999999221
493,7,0.3,0.0,-35.0,-1,1.0,8.97900000000027
494,7,0.5,1.0,35.0,1,1.0,0.23930000000063956
495,7,0.5,1.0,35.0,1,1.0,0.4859010000000126
496,7,0.5,1.0,-35.0,-1,1.0,0.3795010000003458
497,7,0.5,1.0,-35.0,-1,1.0,0.48610099999996237
498,7,0.5,0.0625,-35.0,-1,1.0,0.5829010000006747
499,7,0.5,0.25,35.0,1,1.0,0.3363009999998212
500,7,0.5,0.0,35.0,-1,0.0,0.37630099999978484
501,7,0.5,0.25,-35.0,-1,1.0,0.5098010000001523
502,7,0.5,0.0625,-35.0,-1,1.0,0.34660100000019156
503,7,0.5,0.0625,-35.0,-1,1.0,0.49000100000012026
504,7,0.5,1.0,-35.0,-1,1.0,0.3502010000001974
505,7,0.5,0.125,35.0,1,1.0,0.29670100000021193
506,7,0.5,1.0,-35.0,-1,1.0,0.3869009999998525
507,7,0.5,0.25,-35.0,-1,1.0,0.3904010000001108
508,7,0.5,0.125,35.0,1,1.0,0.39370099999996455
509,7,0.5,0.125,35.0,-1,0.0,0.4539010000003145
510,7,0.5,0.125,35.0,1,1.0,0.2739010000000235
511,7,0.5,0.125,35.0,-1,0.0,3.1974009999999
512,7,0.5,0.0625,35.0,1,1.0,0.2708010000005743
513,7,0.5,0.125,-35.0,-1,1.0,0.4610000000002401
514,7,0.5,1.0,-35.0,-1,1.0,0.42430100000001403
515,7,0.5,0.0625,-35.0,-1,1.0,0.6111010000004171
516,7,0.5,0.125,35.0,1,1.0,0.3811010000003989
517,7,0.5,0.25,-35.0,-1,1.0,0.3745009999997819
518,7,0.5,0.25,-35.0,-1,1.0,0.44130100000029415
519,7,0.5,1.0,35.0,1,1.0,0.26800100000036764
520,7,0.5,0.125,-35.0,-1,1.0,0.37140099999987797
521,7,0.5,0.0625,-35.0,-1,1.0,0.614900999999918
522,7,0.5,0.25,-35.0,-1,1.0,0.5149010000000089
523,7,0.5,0.0625,35.0,1,1.0,0.3718010000002323
524,7,0.5,0.125,35.0,-1,0.0,6.721801000000141
525,7,0.3,0.125,-35.0,-1,1.0,0.2854010000000926
526,7,0.5,1.0,35.0,1,1.0,0.2955010000000584
527,7,0.5,1.0,-35.0,-1,1.0,0.5089009999996961
528,7,0.5,0.0625,35.0,1,1.0,0.402201000000332
529,7,0.5,1.0,-35.0,-1,1.0,0.40560099999993326
530,7,0.5,0.0625,35.0,-1,0.0,0.9490010000004077
531,7,0.5,0.0,-35.0,-1,1.0,5.372601000000486
532,7,0.5,0.0625,-35.0,-1,1.0,0.338600999999926
533,7,0.5,1.0,35.0,1,1.0,0.3261010000001079
534,7,0.5,1.0,35.0,1,1.0,0.38630100000045786
535,7,0.5,1.0,35.0,1,1.0,0.23289999999997235
536,7,0.5,0.125,-35.0,-1,1.0,0.6264009999999871
537,7,0.5,0.25,-35.0,-1,1.0,0.4931010000000242
538,7,0.5,0.0625,35.0,-1,0.0,0.2666010000002643
539,7,0.5,0.25,35.0,1,1.0,0.3799010000002454
540,7,0.5,0.0625,-35.0,-1,1.0,0.4567010000000664
541,7,0.5,0.0625,35.0,-1,0.0,3.3568010000003596
542,7,0.4,0.0625,35.0,-1,0.0,0.4369010000000344
543,7,0.5,1.0,35.0,1,1.0,0.37700100000029124
544,7,0.5,0.25,35.0,1,1.0,13.160501000000295
545,7,0.5,0.0625,-35.0,-1,1.0,5.347501000000193
546,7,0.5,0.0,-35.0,1,0.0,0.5643010000003414
547,7,0.4,0.0,-35.0,-1,1.0,0.2978010000001632
548,7,0.5,1.0,35.0,1,1.0,0.544601000000057
549,7,0.5,0.125,-35.0,-1,1.0,0.49460099999987506
550,7,0.5,0.0625,35.0,-1,0.0,9.731301000000258
551,7,0.5,0.25,35.0,1,1.0,5.925001000000066
552,7,0.5,0.25,35.0,1,1.0,12.808500999999978
553,7,0.5,0.0625,35.0,1,1.0,4.065701000000445
554,7,0.5,0.25,-35.0,-1,1.0,9.055801000000429
555,7,0.5,0.0625,-35.0,-1,1.0,10.829501000000164
556,7,0.5,0.125,35.0,1,1.0,7.668601000000308
557,7,0.5,0.25,35.0,1,1.0,1.749901000000591
558,7,0.5,0.0625,-35.0,1,0.0,2.4500010000001566
559,7,0.5,0.0625,-35.0,1,0.0,4.556801000000178
