trial_num,session_num,stim_probability_left,contrast,position,response_choice,trial_correct,reaction_time
1,1,0.5,0.0,35.0,-1,0.0,0.6885999999999997
2,1,0.5,0.0,-35.0,-1,1.0,0.2939000000000007
3,1,0.5,0.0,-35.0,-1,1.0,1.0318000000000005
4,1,0.5,0.0,-35.0,-1,1.0,0.2635000000000005
5,1,0.5,0.125,-35.0,-1,1.0,0.22270000000000323
6,1,0.5,1.0,35.0,-1,0.0,0.21350000000000335
7,1,0.5,0.25,-35.0,-1,1.0,0.2129999999999974
8,1,0.5,1.0,35.0,1,1.0,0.4169999999999945
9,1,0.5,1.0,35.0,1,1.0,0.10249999999999915
10,1,0.5,0.0,-35.0,1,0.0,0.2694000000000045
11,1,0.5,0.25,-35.0,-1,1.0,0.20949999999999847
12,1,0.5,0.0625,-35.0,-1,1.0,0.20369999999999777
13,1,0.5,0.125,-35.0,-1,1.0,0.17790000000000106
14,1,0.5,1.0,-35.0,-1,1.0,0.18119999999999692
15,1,0.5,0.125,-35.0,-1,1.0,0.22929999999998074
16,1,0.5,0.125,-35.0,-1,1.0,0.19639999999999702
17,1,0.5,0.0,35.0,-1,0.0,0.295100000000005
18,1,0.5,0.25,35.0,-1,0.0,0.2335999999999956
19,1,0.5,0.0,35.0,-1,0.0,0.3318999999999903
20,1,0.5,0.125,35.0,1,1.0,0.2950999999999908
21,1,0.5,1.0,-35.0,-1,1.0,0.1857999999999862
22,1,0.5,0.25,35.0,1,1.0,0.33429999999999893
23,1,0.5,0.0625,35.0,1,1.0,0.23219999999999175
24,1,0.5,0.0,35.0,1,1.0,0.4830999999999932
25,1,0.5,0.125,35.0,1,1.0,0.2961999999999989
26,1,0.5,0.125,-35.0,1,0.0,0.18009999999999593
27,1,0.5,0.0625,-35.0,-1,1.0,0.2436999999999898
28,1,0.5,0.25,35.0,1,1.0,0.32280000000000086
29,1,0.5,1.0,35.0,1,1.0,0.25679999999999836
30,1,0.5,0.25,-35.0,-1,1.0,0.23379999999998802
31,1,0.5,0.0625,35.0,1,1.0,0.23879999999999768
32,1,0.5,0.0625,35.0,1,1.0,0.3032000000000039
33,1,0.5,0.0625,-35.0,1,0.0,0.2939999999999827
34,1,0.5,0.125,-35.0,-1,1.0,0.21999999999997044
35,1,0.5,0.125,35.0,1,1.0,0.45889999999997144
36,1,0.5,0.25,35.0,1,1.0,0.444500000000005
37,1,0.5,0.0,35.0,1,1.0,0.4189000000000078
38,1,0.5,1.0,-35.0,-1,1.0,0.18019999999998504
39,1,0.5,0.0625,-35.0,-1,1.0,0.20989999999997622
40,1,0.5,0.125,-35.0,-1,1.0,0.21409999999997353
41,1,0.5,0.125,35.0,1,1.0,0.6700999999999624
42,1,0.5,0.0625,-35.0,-1,1.0,0.0724999999999909
43,1,0.5,0.25,35.0,1,1.0,0.2826000000000022
44,1,0.5,0.25,-35.0,-1,1.0,0.14399999999997704
45,1,0.5,0.0,-35.0,-1,1.0,0.2483999999999753
46,1,0.5,0.0,35.0,-1,0.0,0.25079999999999814
47,1,0.5,0.25,35.0,1,1.0,0.5531000000000006
48,1,0.5,0.0,35.0,1,1.0,2.771899999999988
49,1,0.5,0.0,35.0,1,1.0,0.16159999999999286
50,1,0.5,0.0,-35.0,1,0.0,1.0379999999999825
51,1,0.5,0.125,35.0,1,1.0,0.5199000000000069
52,1,0.5,1.0,35.0,-1,0.0,0.16979999999998086
53,1,0.5,0.0625,-35.0,-1,1.0,0.16919999999998936
54,1,0.5,0.25,-35.0,-1,1.0,0.2383999999999844
55,1,0.5,0.0,-35.0,1,0.0,0.7342000000000155
56,1,0.5,0.125,-35.0,-1,1.0,0.2110009999999818
57,1,0.5,1.0,35.0,-1,0.0,0.08010099999998488
58,1,0.5,0.0,35.0,-1,0.0,3.5693009999999674
59,1,0.5,1.0,35.0,1,1.0,0.49330100000000243
60,1,0.5,0.25,35.0,1,1.0,0.6425010000000384
61,1,0.5,0.0625,-35.0,-1,1.0,0.23260100000004513
62,1,0.5,0.0,35.0,-1,0.0,0.20060100000000602
63,1,0.5,0.25,35.0,1,1.0,0.28440100000000257
64,1,0.5,0.125,-35.0,-1,1.0,0.24530099999998356
65,1,0.5,0.125,35.0,-1,0.0,2.1935009999999693
66,1,0.5,0.25,35.0,1,1.0,0.3506009999999833
67,1,0.5,0.0,35.0,1,1.0,0.11950100000001385
68,1,0.5,0.0625,-35.0,-1,1.0,0.5046010000000365
69,1,0.5,0.125,35.0,1,1.0,0.28750100000007706
70,1,0.5,0.25,35.0,1,1.0,0.3016010000000051
71,1,0.5,0.125,35.0,1,1.0,0.37250099999999975
72,1,0.5,0.125,-35.0,1,0.0,0.11050000000005866
73,1,0.5,0.125,35.0,1,1.0,0.29210100000005923
74,1,0.5,0.25,-35.0,-1,1.0,0.09280100000006541
75,1,0.5,1.0,-35.0,-1,1.0,0.1706010000000333
76,1,0.5,0.125,-35.0,-1,1.0,0.27650100000005295
77,1,0.5,0.0,-35.0,1,0.0,0.7797010000000455
78,1,0.5,1.0,-35.0,-1,1.0,0.20260100000001557
79,1,0.5,0.125,35.0,1,1.0,0.42070100000006505
80,1,0.5,1.0,35.0,1,1.0,0.308700999999985
81,1,0.5,0.125,-35.0,-1,1.0,0.23650099999997565
82,1,0.5,0.25,35.0,1,1.0,0.3347010000000523
83,1,0.5,0.0625,-35.0,-1,1.0,0.24570100000005368
84,1,0.5,0.0625,-35.0,-1,1.0,0.2512010000000373
85,1,0.5,0.0625,35.0,-1,0.0,0.2828010000000063
86,1,0.5,0.0,35.0,-1,0.0,0.08220099999999775
87,1,0.5,0.0625,-35.0,-1,1.0,0.25080100000002403
88,1,0.5,0.25,35.0,1,1.0,0.29880100000002585
89,1,0.5,0.25,-35.0,-1,1.0,0.2099010000000021
90,1,0.5,1.0,35.0,1,1.0,0.41320100000001503
91,1,0.2,0.125,35.0,1,1.0,0.6119010000000458
92,1,0.2,0.0,35.0,1,1.0,0.36610100000001466
93,1,0.2,0.0,35.0,1,1.0,0.32580100000001266
94,1,0.2,0.0625,35.0,1,1.0,0.2800009999999702
95,1,0.2,1.0,35.0,1,1.0,0.21200099999998656
96,1,0.2,0.0625,35.0,1,1.0,0.3452010000000314
97,1,0.2,1.0,35.0,1,1.0,0.24220100000002276
98,1,0.2,1.0,35.0,1,1.0,0.26600100000001703
99,1,0.2,0.125,-35.0,-1,1.0,0.210000999999977
100,1,0.2,0.0625,-35.0,-1,1.0,0.2716010000000324
101,1,0.2,0.0,-35.0,1,0.0,0.7091010000000324
102,1,0.2,0.0625,35.0,-1,0.0,0.2641010000000392
103,1,0.2,0.0,35.0,1,1.0,
104,1,0.2,0.125,35.0,1,1.0,0.4212010000000532
105,1,0.2,0.0,35.0,-1,0.0,0.30310100000008333
106,1,0.2,0.125,35.0,1,1.0,0.2642010000000141
107,1,0.2,0.25,35.0,1,1.0,0.36720100000002276
108,1,0.2,0.0,35.0,1,1.0,0.6364010000000349
109,1,0.2,0.125,35.0,1,1.0,0.3336010000000442
110,1,0.2,1.0,35.0,1,1.0,0.26560100000000375
111,1,0.2,0.0625,35.0,1,1.0,0.3212010000000305
112,1,0.2,0.0625,-35.0,-1,1.0,0.28410100000002103
113,1,0.2,0.0625,35.0,1,1.0,0.2774010000000544
114,1,0.2,0.125,35.0,1,1.0,1.053901000000053
115,1,0.2,0.25,35.0,1,1.0,0.31620100000003504
116,1,0.2,0.0625,-35.0,-1,1.0,0.27480100000002494
117,1,0.2,0.0625,35.0,1,1.0,0.3074010000000271
118,1,0.2,0.25,35.0,1,1.0,0.20470100000005687
119,1,0.2,0.25,35.0,1,1.0,0.743300999999974
120,1,0.2,0.0,35.0,-1,0.0,0.08340099999998074
121,1,0.2,0.0625,-35.0,-1,1.0,0.40410099999996874
122,1,0.2,0.0,35.0,1,1.0,0.5929010000000972
123,1,0.2,1.0,35.0,1,1.0,0.4772009999999227
124,1,0.2,0.125,35.0,-1,0.0,0.2395009999999047
125,1,0.2,0.25,35.0,1,1.0,0.4655010000000175
126,1,0.2,0.0625,35.0,1,1.0,0.33720099999982267
127,1,0.2,0.0,-35.0,1,0.0,0.47050099999989925
128,1,0.2,1.0,35.0,1,1.0,0.40990099999999074
129,1,0.2,1.0,35.0,1,1.0,0.318800999999894
130,1,0.2,0.25,35.0,1,1.0,0.27860099999998056
131,1,0.2,0.25,-35.0,-1,1.0,0.3207009999998718
132,1,0.2,0.0,35.0,-1,0.0,0.21160099999997328
133,1,0.2,0.0625,-35.0,-1,1.0,0.2881009999999833
134,1,0.2,1.0,-35.0,-1,1.0,0.15980099999990216
135,1,0.2,0.25,35.0,1,1.0,0.586900999999898
136,1,0.2,1.0,35.0,1,1.0,0.3789010000000417
137,1,0.2,0.125,35.0,1,1.0,0.46180100000003677
138,1,0.2,0.25,35.0,1,1.0,0.31900099999995746
139,1,0.2,0.125,35.0,1,1.0,0.3117009999999709
140,1,0.2,0.125,35.0,1,1.0,0.31290100000001075
141,1,0.2,0.25,35.0,1,1.0,0.3177009999999427
142,1,0.2,0.125,35.0,1,1.0,0.4247010000000273
143,1,0.2,0.125,35.0,1,1.0,0.17660100000000511
144,1,0.2,0.25,35.0,1,1.0,0.33090100000003986
145,1,0.2,0.125,35.0,1,1.0,0.4130010000000084
146,1,0.2,0.125,35.0,1,1.0,0.6061999999999443
147,1,0.2,0.0625,35.0,-1,0.0,4.183900999999992
148,1,0.2,0.0,35.0,1,1.0,0.3804010000000062
149,1,0.2,0.0,35.0,-1,0.0,2.5231009999998832
150,1,0.2,0.0,-35.0,-1,1.0,1.8500010000000202
151,1,0.2,1.0,35.0,1,1.0,0.3200010000000475
152,1,0.2,0.125,35.0,1,1.0,0.6498010000000249
153,1,0.2,1.0,-35.0,-1,1.0,0.2053009999999631
154,1,0.2,0.125,35.0,1,1.0,0.34160099999996874
155,1,0.2,0.0,35.0,1,1.0,0.4374009999999089
156,1,0.2,0.125,35.0,1,1.0,0.3461009999998623
157,1,0.2,0.25,35.0,1,1.0,0.38340099999993527
158,1,0.2,1.0,-35.0,-1,1.0,0.19860099999993963
159,1,0.2,1.0,35.0,1,1.0,0.2815009999999347
160,1,0.2,0.25,-35.0,-1,1.0,0.1853009999999813
161,1,0.2,0.0625,35.0,1,1.0,0.4193009999999049
162,1,0.2,0.125,35.0,1,1.0,0.3418010000000322
163,1,0.2,0.25,35.0,1,1.0,0.20260099999995873
164,1,0.2,0.0,35.0,1,1.0,0.29120100000000093
165,1,0.2,0.0,-35.0,1,0.0,0.26050099999986287
166,1,0.2,0.0625,35.0,1,1.0,0.13530100000002676
167,1,0.2,0.125,35.0,1,1.0,0.2396009999998796
168,1,0.2,0.0,35.0,1,1.0,0.741600999999946
169,1,0.2,0.0625,35.0,1,1.0,0.3483009999999922
170,1,0.2,0.0625,35.0,1,1.0,0.15020099999992453
171,1,0.2,1.0,35.0,1,1.0,0.38730100000009315
172,1,0.2,0.125,35.0,1,1.0,0.46870100000001
173,1,0.2,0.25,35.0,1,1.0,0.17380099999991216
174,1,0.2,0.125,35.0,1,1.0,0.36560099999996964
175,1,0.2,0.125,35.0,1,1.0,0.29490099999998165
176,1,0.2,0.0,35.0,1,1.0,0.39190099999996164
177,1,0.2,0.0625,35.0,1,1.0,0.26040099999988797
178,1,0.2,1.0,35.0,1,1.0,0.25030099999992217
179,1,0.2,1.0,35.0,1,1.0,0.23480099999994763
180,1,0.2,0.0,35.0,1,1.0,0.3305009999999129
181,1,0.2,0.125,35.0,1,1.0,0.15360099999998056
182,1,0.2,0.25,35.0,1,1.0,0.13120099999991908
183,1,0.8,0.125,-35.0,-1,1.0,0.39760099999989507
184,1,0.8,0.125,-35.0,-1,1.0,0.31900099999995746
185,1,0.8,1.0,-35.0,-1,1.0,0.20360099999993508
186,1,0.8,0.0,35.0,-1,0.0,0.34700099999997747
187,1,0.8,1.0,-35.0,-1,1.0,0.20460100000002512
188,1,0.8,0.0625,-35.0,-1,1.0,1.1277010000000018
189,1,0.8,0.25,-35.0,-1,1.0,0.18370100000004186
190,1,0.8,0.125,-35.0,-1,1.0,0.08770100000003822
191,1,0.8,1.0,-35.0,-1,1.0,0.19570099999998547
192,1,0.8,0.125,-35.0,1,0.0,0.40130100000010316
193,1,0.8,1.0,-35.0,-1,1.0,0.19780100000002676
194,1,0.8,0.0625,-35.0,-1,1.0,0.263800999999944
195,1,0.8,0.0625,-35.0,-1,1.0,0.2395009999999047
196,1,0.8,0.125,-35.0,-1,1.0,0.22170099999993909
197,1,0.8,1.0,-35.0,-1,1.0,0.18960099999992508
198,1,0.8,0.0625,-35.0,-1,1.0,0.5809010000000399
199,1,0.8,0.125,-35.0,-1,1.0,0.24050099999999475
200,1,0.8,0.125,-35.0,-1,1.0,0.10890099999994618
201,1,0.8,0.125,-35.0,-1,1.0,0.20390099999997346
202,1,0.8,0.125,35.0,1,1.0,0.7753010000000131
203,1,0.8,0.0,-35.0,-1,1.0,0.24700100000006842
204,1,0.8,0.25,-35.0,-1,1.0,0.1772009999998545
205,1,0.8,0.25,-35.0,-1,1.0,0.20100099999990562
206,1,0.8,0.0625,-35.0,-1,1.0,0.1650009999999611
207,1,0.8,0.0625,-35.0,-1,1.0,0.12400100000002112
208,1,0.8,0.0625,35.0,-1,0.0,0.1352009999998245
209,1,0.8,1.0,-35.0,-1,1.0,0.19580099999996037
210,1,0.8,0.0625,-35.0,-1,1.0,0.19170099999996637
211,1,0.8,0.0,-35.0,1,0.0,0.7738009999999349
212,1,0.8,0.125,-35.0,-1,1.0,0.23500099999989743
213,1,0.8,0.0,35.0,1,1.0,0.31940099999997074
214,1,0.8,0.0625,-35.0,-1,1.0,0.2534009999999398
215,1,0.8,0.125,35.0,1,1.0,0.6628010000000586
216,1,0.8,0.25,-35.0,-1,1.0,0.1809010000000626
217,1,0.8,0.25,-35.0,-1,1.0,0.22420099999999366
218,1,0.8,1.0,-35.0,-1,1.0,0.16810099999997874
219,1,0.8,0.0,-35.0,-1,1.0,0.15750099999991107
220,1,0.8,0.25,-35.0,-1,1.0,0.19410100000004604
221,1,0.8,0.0,-35.0,-1,1.0,12.141400999999973
222,1,0.2,0.125,35.0,1,1.0,0.34130099999981667
223,1,0.2,0.125,35.0,1,1.0,0.4230009999998856
224,1,0.2,0.25,35.0,1,1.0,0.4115009999999302
225,1,0.2,0.125,35.0,-1,0.0,0.0826009999998405
226,1,0.2,0.125,35.0,1,1.0,0.4204009999999698
227,1,0.2,0.125,-35.0,-1,1.0,0.27240099999994527
228,1,0.2,0.0,35.0,-1,0.0,0.1064010000000053
229,1,0.2,0.25,-35.0,-1,1.0,0.22180100000002767
230,1,0.2,1.0,35.0,1,1.0,0.3965010000000575
231,1,0.2,0.25,35.0,1,1.0,0.6587010000000646
232,1,0.2,0.125,35.0,1,1.0,0.4205010000000584
233,1,0.2,0.125,35.0,1,1.0,0.35900100000003476
234,1,0.2,0.0,35.0,-1,0.0,0.7290999999997894
235,1,0.2,0.125,-35.0,-1,1.0,0.25250100000016573
236,1,0.2,0.25,35.0,1,1.0,0.3988010000000486
237,1,0.2,0.0625,35.0,-1,0.0,0.24280100000009952
238,1,0.2,0.0,35.0,1,1.0,0.4204010000000835
239,1,0.2,0.0,-35.0,-1,1.0,0.17290100000013808
240,1,0.2,1.0,35.0,1,1.0,0.33370099999979175
241,1,0.2,0.25,-35.0,-1,1.0,0.15970100000004095
242,1,0.2,0.0625,35.0,1,1.0,0.37460100000021157
243,1,0.2,1.0,35.0,1,1.0,0.30670099999997547
244,1,0.2,0.0,35.0,1,1.0,0.6057009999999536
245,1,0.2,0.125,35.0,1,1.0,0.5968010000001414
246,1,0.2,0.25,35.0,1,1.0,0.49080099999991944
247,1,0.2,0.0625,-35.0,-1,1.0,3.860301000000163
248,1,0.2,0.0625,35.0,-1,0.0,0.21560100000010607
249,1,0.2,0.0,35.0,1,1.0,0.6478010000000722
250,1,0.2,0.0625,35.0,1,1.0,0.32480099999997947
251,1,0.2,0.0,35.0,1,1.0,0.4244009999999889
252,1,0.2,1.0,35.0,1,1.0,0.27390100000025086
253,1,0.2,0.25,35.0,1,1.0,0.2311010000000806
254,1,0.2,0.25,35.0,1,1.0,0.20570100000009006
255,1,0.2,0.0625,35.0,1,1.0,0.2678009999999631
256,1,0.2,0.25,35.0,1,1.0,0.21180099999992308
257,1,0.2,0.0,35.0,-1,0.0,0.27810100000033344
258,1,0.2,0.25,-35.0,1,0.0,0.1280010000002676
259,1,0.2,0.0625,-35.0,-1,1.0,0.3283010000000104
260,1,0.2,0.125,35.0,1,1.0,0.336900999999898
261,1,0.2,0.0625,35.0,1,1.0,0.3621009999999387
262,1,0.2,0.125,-35.0,-1,1.0,0.21160099999997328
263,1,0.2,1.0,-35.0,-1,1.0,0.16560099999992417
264,1,0.2,0.125,-35.0,-1,1.0,0.3305009999999129
265,1,0.2,1.0,35.0,1,1.0,0.35560099999997874
266,1,0.2,0.125,35.0,1,1.0,0.2271010000001752
267,1,0.2,0.0,35.0,-1,0.0,0.21580100000005586
268,1,0.2,0.125,-35.0,-1,1.0,0.24370100000010098
269,1,0.2,0.0,35.0,1,1.0,0.3560010000001057
270,1,0.2,1.0,35.0,1,1.0,0.2798010000001341
271,1,0.2,0.125,35.0,1,1.0,0.19950100000005477
272,1,0.2,1.0,35.0,1,1.0,0.1907010000002174
273,1,0.2,0.0,35.0,1,1.0,0.40320100000030834
274,1,0.2,0.0,35.0,1,1.0,0.30230100000017046
275,1,0.8,1.0,-35.0,-1,1.0,0.2033010000000104
276,1,0.8,0.125,-35.0,-1,1.0,0.15200100000015482
277,1,0.8,0.125,-35.0,-1,1.0,0.27010100000006787
278,1,0.8,0.0625,-35.0,1,0.0,0.16730100000017956
279,1,0.8,0.25,-35.0,-1,1.0,0.2269010000002254
280,1,0.8,1.0,35.0,1,1.0,0.37930099999994127
281,1,0.8,0.125,-35.0,-1,1.0,0.20370100000036473
282,1,0.8,0.0,35.0,-1,0.0,1.3697010000000773
283,1,0.8,1.0,-35.0,-1,1.0,0.2007010000002083
284,1,0.8,1.0,-35.0,-1,1.0,0.20950100000004568
285,1,0.8,1.0,-35.0,-1,1.0,0.1243010000000595
286,1,0.8,1.0,-35.0,-1,1.0,0.0758010000001832
287,1,0.8,0.0625,-35.0,-1,1.0,0.24120099999981903
288,1,0.8,1.0,-35.0,-1,1.0,0.18420100000003004
289,1,0.8,0.0625,35.0,-1,0.0,0.2112010000000737
290,1,0.8,1.0,-35.0,-1,1.0,0.16790100000002894
291,1,0.8,1.0,-35.0,-1,1.0,0.21160100000020066
292,1,0.8,0.0,-35.0,-1,1.0,0.3234010000001035
293,1,0.8,0.0625,-35.0,-1,1.0,0.2250010000000202
294,1,0.8,1.0,-35.0,-1,1.0,0.1645010000002003
295,1,0.8,1.0,-35.0,-1,1.0,0.1886010000000624
296,1,0.8,0.0,-35.0,1,0.0,0.4371009999999842
297,1,0.8,0.25,-35.0,-1,1.0,0.30230100000017046
298,1,0.8,0.125,35.0,1,1.0,0.4977010000000064
299,1,0.8,0.0625,35.0,-1,0.0,0.3057009999999991
300,1,0.8,0.0625,35.0,1,1.0,0.3078009999999267
301,1,0.8,0.0,35.0,1,1.0,0.8592009999999846
302,1,0.8,1.0,-35.0,-1,1.0,0.15150100000005295
303,1,0.8,0.0625,-35.0,-1,1.0,0.2393010000000686
304,1,0.2,0.125,35.0,1,1.0,0.4367010000000846
305,1,0.2,0.0,-35.0,-1,1.0,0.20980099999997037
306,1,0.2,1.0,35.0,1,1.0,0.3861010000000533
307,1,0.2,0.0625,-35.0,-1,1.0,0.22970099999997728
308,1,0.2,1.0,-35.0,-1,1.0,0.158301000000165
309,1,0.2,1.0,-35.0,-1,1.0,0.17330100000003767
310,1,0.2,0.0,35.0,-1,0.0,0.11740099999997256
311,1,0.2,1.0,35.0,1,1.0,0.37700100000006387
312,1,0.2,0.25,35.0,1,1.0,0.33530100000007224
313,1,0.2,0.0625,35.0,1,1.0,0.32020100000022467
314,1,0.2,0.0625,35.0,1,1.0,0.3991009999999733
315,1,0.2,0.125,35.0,-1,0.0,0.2373010000001159
316,1,0.2,1.0,-35.0,-1,1.0,0.19500099999982012
317,1,0.2,0.0625,35.0,-1,0.0,0.21070099999997183
318,1,0.2,0.25,35.0,1,1.0,0.5009010000001126
319,1,0.2,0.125,-35.0,-1,1.0,0.29110100000002603
320,1,0.2,1.0,-35.0,-1,1.0,0.19720099999995
321,1,0.2,0.0,35.0,-1,0.0,0.28820100000007187
322,1,0.2,0.0,35.0,-1,0.0,0.2557010000000446
323,1,0.2,0.125,35.0,1,1.0,0.16830099999992854
324,1,0.2,0.0,35.0,1,1.0,0.213600999999926
325,1,0.2,0.125,35.0,1,1.0,0.3484009999999671
326,1,0.2,0.125,35.0,1,1.0,0.2271010000001752
327,1,0.2,1.0,-35.0,-1,1.0,0.215300999999954
328,1,0.2,0.0625,35.0,1,1.0,0.33530100000007224
329,1,0.2,0.125,35.0,1,1.0,0.4888010000001941
330,1,0.2,0.125,35.0,1,1.0,0.31480099999998856
331,1,0.2,0.0625,35.0,1,1.0,0.29550099999983104
332,1,0.2,0.25,-35.0,-1,1.0,0.1083009999999831
333,1,0.2,0.0,35.0,1,1.0,0.459201000000121
334,1,0.2,0.25,35.0,1,1.0,0.347501000000193
335,1,0.2,0.25,35.0,1,1.0,0.32260100000007697
336,1,0.2,0.0,-35.0,1,0.0,0.35140100000012353
337,1,0.2,0.0625,-35.0,-1,1.0,0.4330010000001039
338,1,0.8,0.25,35.0,1,1.0,0.32520100000010643
339,1,0.8,0.0625,35.0,1,1.0,0.3930009999999129
340,1,0.8,0.125,-35.0,-1,1.0,0.13210099999992053
341,1,0.8,0.125,-35.0,-1,1.0,0.27650100000005295
342,1,0.8,0.0625,-35.0,-1,1.0,0.3931999999999789
343,1,0.8,0.25,-35.0,-1,1.0,0.16680099999985032
344,1,0.8,0.125,-35.0,-1,1.0,0.24840100000005805
345,1,0.8,0.125,-35.0,-1,1.0,0.18360100000018065
346,1,0.8,0.0,-35.0,-1,1.0,0.2296010000000024
347,1,0.8,0.0625,35.0,-1,0.0,0.4040010000001075
348,1,0.8,0.0625,35.0,1,1.0,0.5607010000001083
349,1,0.8,0.0,35.0,1,1.0,0.44760100000007697
350,1,0.8,0.0625,-35.0,-1,1.0,0.23370100000011007
351,1,0.8,0.0,35.0,1,1.0,0.8577009999999063
352,1,0.8,1.0,-35.0,-1,1.0,0.1973009999999249
353,1,0.8,0.0,-35.0,1,0.0,0.8379010000001017
354,1,0.8,0.0625,35.0,1,1.0,0.562701000000061
355,1,0.8,0.125,-35.0,-1,1.0,0.22820100000012644
356,1,0.8,0.125,-35.0,-1,1.0,0.24580100000002858
357,1,0.8,0.0,-35.0,1,0.0,0.4250010000000657
358,1,0.8,0.0,-35.0,-1,1.0,3.6719010000001617
359,1,0.8,0.0625,35.0,-1,0.0,0.20190100000013445
360,1,0.8,0.125,35.0,1,1.0,0.5189010000003691
361,1,0.8,0.25,-35.0,-1,1.0,0.21880099999998492
362,1,0.8,0.0625,-35.0,-1,1.0,0.19840100000010352
363,1,0.8,0.125,-35.0,-1,1.0,0.19220100000006823
364,1,0.8,0.0625,35.0,1,1.0,0.4528010000001359
365,1,0.8,1.0,-35.0,-1,1.0,0.1625010000000202
366,1,0.8,0.0625,-35.0,1,0.0,0.6198010000000522
367,1,0.8,0.0,-35.0,1,0.0,6.269401000000244
368,1,0.8,0.0625,-35.0,-1,1.0,0.179100999999946
369,1,0.8,0.0,35.0,-1,0.0,4.796501000000262
370,1,0.8,0.25,-35.0,-1,1.0,0.4735000000000582
371,1,0.8,0.125,-35.0,-1,1.0,0.33680100000015045
372,1,0.8,0.0625,-35.0,1,0.0,2.18850099999986
373,1,0.8,1.0,-35.0,-1,1.0,0.21370100000012826
374,1,0.8,0.125,-35.0,-1,1.0,0.2536009999998896
375,1,0.8,0.125,-35.0,-1,1.0,0.19390100000009625
376,1,0.8,0.0625,35.0,-1,0.0,0.15230099999985214
377,1,0.8,0.0,35.0,-1,0.0,0.344101000000137
378,1,0.8,0.0,-35.0,-1,1.0,0.2233009999999922
379,1,0.8,0.125,35.0,1,1.0,0.4876010000000406
380,1,0.8,0.0625,-35.0,-1,1.0,0.24460100000010243
381,1,0.8,0.0,-35.0,-1,1.0,0.838001000000304
382,1,0.8,1.0,-35.0,-1,1.0,0.08840100000020357
383,1,0.8,0.25,-35.0,-1,1.0,0.2048010000000886
384,1,0.8,0.0625,-35.0,-1,1.0,0.23440100000016173
385,1,0.8,0.0,-35.0,-1,1.0,0.21810099999993326
386,1,0.8,0.125,35.0,1,1.0,0.8493009999999686
387,1,0.2,0.25,-35.0,-1,1.0,0.21500099999980193
388,1,0.2,1.0,35.0,1,1.0,0.4045010000002094
389,1,0.2,0.125,35.0,1,1.0,0.3152010000001155
390,1,0.2,0.125,35.0,1,1.0,0.3795010000003458
391,1,0.2,0.125,35.0,1,1.0,0.5121010000000297
392,1,0.2,1.0,35.0,1,1.0,0.2715010000001712
393,1,0.2,0.0,35.0,-1,0.0,0.2490010000001348
394,1,0.2,0.0,35.0,-1,0.0,0.08100100000001476
395,1,0.2,0.125,35.0,1,1.0,0.4488010000002305
396,1,0.2,0.0,35.0,1,1.0,0.16600100000005114
397,1,0.2,0.125,35.0,-1,0.0,0.22370100000034654
398,1,0.2,0.125,35.0,1,1.0,0.1728009999999358
399,1,0.2,0.125,-35.0,-1,1.0,0.21960100000001148
400,1,0.2,0.0625,35.0,-1,0.0,0.2431010000002516
401,1,0.2,0.0,35.0,1,1.0,0.18370099999992817
402,1,0.2,0.125,35.0,-1,0.0,0.1399010000002363
403,1,0.2,1.0,35.0,1,1.0,0.21020100000009734
404,1,0.2,0.25,35.0,1,1.0,0.3037010000000464
405,1,0.2,0.0625,35.0,1,1.0,0.4713010000000395
406,1,0.2,0.0625,35.0,1,1.0,0.5071010000001479
407,1,0.2,0.25,35.0,1,1.0,0.46610100000020793
408,1,0.2,0.25,35.0,1,1.0,0.3708010000000286
409,1,0.2,0.0625,35.0,-1,0.0,3.075300999999854
410,1,0.2,0.0625,35.0,1,1.0,0.4209010000001854
411,1,0.2,0.25,35.0,1,1.0,0.2917010000001028
412,1,0.2,0.0,35.0,1,1.0,0.30440100000009807
413,1,0.2,0.25,35.0,1,1.0,0.3379010000001017
414,1,0.2,1.0,35.0,1,1.0,0.3580010000000584
415,1,0.2,0.0,-35.0,1,0.0,0.42160100000000966
416,1,0.2,0.125,35.0,-1,0.0,0.0981010000000424
417,1,0.2,0.0625,-35.0,-1,1.0,0.26000100000010207
418,1,0.2,0.125,35.0,1,1.0,0.3220010000002276
419,1,0.2,1.0,35.0,1,1.0,0.30710100000010243
420,1,0.2,0.0625,35.0,1,1.0,0.30840100000023085
421,1,0.2,0.0625,35.0,-1,0.0,0.0823009999999158
422,1,0.2,1.0,35.0,1,1.0,0.31870100000014645
423,1,0.2,0.125,-35.0,-1,1.0,0.21750100000008388
424,1,0.2,0.25,35.0,1,1.0,0.2921010000000024
425,1,0.2,1.0,35.0,1,1.0,0.30270100000007005
426,1,0.2,0.0625,-35.0,-1,1.0,0.23560100000008788
427,1,0.2,0.0625,35.0,1,1.0,0.3112010000002101
428,1,0.2,0.0,35.0,1,1.0,0.37920100000019374
429,1,0.2,0.125,35.0,1,1.0,0.32520100000010643
430,1,0.2,0.125,35.0,1,1.0,0.2794010000000071
431,1,0.2,0.0625,35.0,1,1.0,0.31030100000020866
432,1,0.2,0.0625,-35.0,-1,1.0,0.32290100000022903
433,1,0.2,0.0625,35.0,1,1.0,0.41970100000003185
434,1,0.2,0.125,35.0,1,1.0,0.31500100000016573
435,1,0.2,1.0,35.0,1,1.0,0.2533010000001923
436,1,0.2,0.0,35.0,-1,0.0,0.15100100000017846
437,1,0.2,0.0,35.0,1,1.0,4.990101000000095
438,1,0.2,0.25,35.0,1,1.0,0.2554010000001199
439,1,0.2,0.125,35.0,1,1.0,0.5037010000000919
440,1,0.2,1.0,-35.0,-1,1.0,0.2011010000001079
441,1,0.2,0.0,35.0,-1,0.0,4.003901000000042
442,1,0.2,0.0625,35.0,1,1.0,0.3865010000001803
443,1,0.2,0.125,35.0,1,1.0,0.4145009999999729
444,1,0.2,1.0,35.0,1,1.0,0.21650100000010752
445,1,0.2,0.0625,35.0,1,1.0,0.45770100000004277
446,1,0.2,0.0625,35.0,1,1.0,0.48660100000006423
447,1,0.2,0.0625,35.0,1,1.0,0.42130100000008497
448,1,0.2,1.0,-35.0,-1,1.0,0.2028010000001359
449,1,0.2,0.0625,35.0,-1,0.0,3.018301000000065
450,1,0.2,0.125,35.0,1,1.0,0.3698010000000522
451,1,0.2,0.125,35.0,1,1.0,0.34510099999988597
452,1,0.2,0.125,-35.0,-1,1.0,0.20190100000013445
453,1,0.2,0.25,35.0,-1,0.0,0.1488010000000486
454,1,0.2,0.125,35.0,1,1.0,0.3358009999999467
455,1,0.2,0.0,35.0,1,1.0,1.2121010000000751
456,1,0.2,0.0625,35.0,1,1.0,0.33480100000019775
457,1,0.2,0.0,35.0,1,1.0,0.4858010000000377
458,1,0.8,0.125,-35.0,-1,1.0,0.2508010000001377
459,1,0.8,1.0,-35.0,-1,1.0,0.20580100000029233
460,1,0.8,0.0,-35.0,1,0.0,0.3357010000001992
461,1,0.8,1.0,35.0,1,1.0,0.31270100000028833
462,1,0.8,0.0,-35.0,1,0.0,0.3886010000001079
463,1,0.8,0.0625,-35.0,-1,1.0,0.28960100000040256
464,1,0.8,0.125,-35.0,1,0.0,0.36130099999991216
465,1,0.8,0.25,-35.0,-1,1.0,0.23660100000006423
466,1,0.8,0.125,-35.0,-1,1.0,0.22390100000029634
467,1,0.8,1.0,-35.0,-1,1.0,0.19330100000024686
468,1,0.8,0.25,35.0,1,1.0,0.321201000000201
469,1,0.8,1.0,-35.0,-1,1.0,0.2069010000000162
470,1,0.8,0.0625,-35.0,-1,1.0,0.21750100000008388
471,1,0.8,0.125,-35.0,-1,1.0,0.12700100000029124
472,1,0.8,1.0,-35.0,-1,1.0,0.19010099999968588
473,1,0.8,0.0,-35.0,1,0.0,0.4640009999998256
474,1,0.8,0.0,-35.0,1,0.0,0.43230099999982485
475,1,0.8,0.0625,35.0,1,1.0,0.5043009999999413
476,1,0.8,0.0,-35.0,1,0.0,2.9531010000000606
477,1,0.8,0.125,-35.0,-1,1.0,0.49450100000012753
478,1,0.8,0.25,-35.0,-1,1.0,0.4311010000001261
479,1,0.8,0.25,-35.0,-1,1.0,0.08800100000053135
480,1,0.8,1.0,-35.0,-1,1.0,0.1968010000000504
481,1,0.8,0.0625,35.0,1,1.0,1.8914009999998598
482,1,0.8,0.25,-35.0,-1,1.0,0.24730099999987942
483,1,0.8,0.25,35.0,1,1.0,0.48840100000006714
484,1,0.8,0.125,-35.0,-1,1.0,0.2110010000001239
485,1,0.8,0.25,-35.0,-1,1.0,0.15540099999998347
486,1,0.8,0.0625,-35.0,-1,1.0,0.2430010000002767
487,1,0.8,0.25,-35.0,-1,1.0,0.11220100000036837
488,1,0.8,0.0625,-35.0,-1,1.0,0.22140100000024177
489,1,0.8,0.0625,-35.0,-1,1.0,0.22250100000019302
490,1,0.8,0.125,-35.0,-1,1.0,0.182901000000129
491,1,0.8,0.0,35.0,-1,0.0,0.2159010000004855
492,1,0.8,0.25,-35.0,-1,1.0,0.21120100000052844
493,1,0.8,0.125,-35.0,-1,1.0,0.22280099999989034
494,1,0.8,0.0625,-35.0,-1,1.0,0.2421009999998205
495,1,0.8,0.125,-35.0,-1,1.0,0.15670100000033926
496,1,0.8,0.0625,-35.0,-1,1.0,0.2325010000004113
497,1,0.8,0.0625,-35.0,-1,1.0,0.22990100000015445
498,1,0.2,0.125,35.0,1,1.0,0.5993010000001959
499,1,0.2,0.0625,35.0,-1,0.0,0.21360100000038074
500,1,0.2,1.0,35.0,1,1.0,0.3906010000000606
501,1,0.2,0.125,35.0,1,1.0,0.5337009999998372
502,1,0.2,0.0,35.0,-1,0.0,0.35890100000005987
503,1,0.2,1.0,35.0,1,1.0,0.34070100000008097
504,1,0.2,0.25,-35.0,-1,1.0,0.20470099999965896
505,1,0.2,1.0,35.0,1,1.0,0.33770099999992453
506,1,0.2,0.125,35.0,1,1.0,0.3221010000002025
507,1,0.2,0.0,35.0,-1,0.0,4.004301000000396
508,1,0.2,0.0625,35.0,1,1.0,0.38930100000015955
509,1,0.2,0.125,-35.0,-1,1.0,0.21130099999982122
510,1,0.2,0.25,35.0,1,1.0,0.31220100000018647
511,1,0.2,0.125,-35.0,-1,1.0,0.27150099999971644
512,1,0.2,0.125,35.0,1,1.0,0.13790100000005623
513,1,0.2,0.25,35.0,1,1.0,0.3317010000000664
514,1,0.2,1.0,-35.0,-1,1.0,0.1738010000003669
515,1,0.2,0.25,-35.0,-1,1.0,0.23530100000016319
516,1,0.2,0.0,35.0,1,1.0,0.43760100000008606
517,1,0.2,1.0,35.0,1,1.0,0.28530099999989034
518,1,0.2,0.25,35.0,1,1.0,0.3544010000000526
519,1,0.2,0.0625,35.0,1,1.0,0.3556010000002061
520,1,0.2,0.125,35.0,1,1.0,0.32600100000036036
521,1,0.2,1.0,35.0,1,1.0,0.3592009999997572
522,1,0.2,0.125,-35.0,-1,1.0,0.2229010000000926
523,1,0.2,1.0,35.0,1,1.0,0.27920099999982995
524,1,0.8,0.25,-35.0,-1,1.0,0.22100100000034217
525,1,0.8,0.125,35.0,1,1.0,0.3896010000003116
526,1,0.8,0.0,-35.0,1,0.0,0.7026009999999587
527,1,0.8,0.25,-35.0,-1,1.0,0.20650100000011662
528,1,0.8,0.125,-35.0,-1,1.0,0.2114010000000235
529,1,0.8,0.0625,35.0,1,1.0,0.4501010000003589
530,1,0.8,1.0,-35.0,-1,1.0,0.2960010000001603
531,1,0.8,1.0,-35.0,-1,1.0,0.27460100000007515
532,1,0.8,0.25,-35.0,-1,1.0,0.443800999999894
533,1,0.8,0.0,-35.0,-1,1.0,0.32030100000019956
534,1,0.8,1.0,35.0,1,1.0,0.37050100000033126
535,1,0.8,1.0,-35.0,-1,1.0,0.20140100000025996
536,1,0.8,0.0,-35.0,1,0.0,0.5208010000005743
537,1,0.8,0.25,-35.0,-1,1.0,0.1869010000000344
538,1,0.8,1.0,-35.0,-1,1.0,0.09750100000019302
539,1,0.8,0.0625,-35.0,-1,1.0,0.2104010000002745
540,1,0.8,0.0625,-35.0,-1,1.0,0.4410010000001421
541,1,0.8,1.0,-35.0,-1,1.0,0.22360100000014427
542,1,0.8,0.0,-35.0,-1,1.0,5.071401000000606
543,1,0.8,0.125,-35.0,-1,1.0,0.1985010000003058
544,1,0.8,0.125,35.0,1,1.0,0.8050009999997201
545,1,0.8,0.25,-35.0,-1,1.0,0.19840100000010352
546,1,0.8,0.125,-35.0,-1,1.0,0.2951009999997041
547,1,0.8,0.25,-35.0,-1,1.0,0.33100100000001476
548,1,0.8,0.25,-35.0,-1,1.0,0.20880099999976665
549,1,0.8,0.0,-35.0,-1,1.0,0.31100100000003295
550,1,0.8,1.0,-35.0,-1,1.0,0.0856010000002243
551,1,0.8,1.0,-35.0,-1,1.0,0.1189009999998234
552,1,0.8,0.0625,35.0,1,1.0,0.6793009999996684
553,1,0.8,0.0625,-35.0,-1,1.0,0.23270099999990634
554,1,0.8,0.0,-35.0,-1,1.0,0.20930100000032326
555,1,0.2,0.0,35.0,-1,0.0,0.2658010000000104
556,1,0.2,0.125,35.0,1,1.0,0.33970099999987724
557,1,0.2,0.0625,35.0,-1,0.0,0.2697010000001683
558,1,0.2,0.25,-35.0,-1,1.0,0.20670100000006641
559,1,0.2,0.125,35.0,1,1.0,0.4578010000004724
560,1,0.2,0.0625,35.0,1,1.0,0.15670100000033926
561,1,0.2,0.0625,-35.0,1,0.0,0.47080099999993763
562,1,0.2,0.0,35.0,-1,0.0,3.7570009999999456
563,1,0.2,0.0625,35.0,1,1.0,0.3653010000002723
564,1,0.2,0.25,-35.0,-1,1.0,0.2605009999997492
565,1,0.2,0.125,35.0,-1,0.0,0.40570100000013554
566,1,0.2,1.0,35.0,1,1.0,0.36740099999997256
567,1,0.2,1.0,35.0,1,1.0,0.35770099999990634
568,1,0.2,0.125,35.0,1,1.0,0.2643010000006143
569,1,0.2,0.0625,-35.0,-1,1.0,0.2375010000000657
570,1,0.2,0.0,35.0,1,1.0,0.6711009999999078
571,1,0.2,0.25,35.0,1,1.0,0.229001000000153
572,1,0.2,0.0625,-35.0,-1,1.0,0.734700999999859
573,1,0.2,0.25,35.0,1,1.0,0.40010099999972226
574,1,0.2,1.0,35.0,1,1.0,0.528201000000081
575,1,0.2,1.0,35.0,1,1.0,0.33830100000022867
576,1,0.2,0.0,35.0,1,1.0,0.4651010000002316
577,1,0.2,1.0,35.0,1,1.0,0.2770010000003822
578,1,0.2,0.125,35.0,1,1.0,0.38540100000000166
579,1,0.2,0.25,-35.0,-1,1.0,0.19940100000030725
580,1,0.2,0.25,35.0,1,1.0,0.5523010000001705
581,1,0.2,1.0,35.0,1,1.0,0.29520099999990634
582,1,0.2,0.125,35.0,1,1.0,0.5224010000001726
583,1,0.2,0.0625,-35.0,1,0.0,0.2705010000004222
584,1,0.2,0.0,35.0,-1,0.0,3.6927010000003975
585,1,0.2,0.0625,35.0,1,1.0,0.35530100000005405
586,1,0.2,0.125,-35.0,-1,1.0,0.28980100000035236
587,1,0.2,0.125,35.0,1,1.0,0.332100999999966
588,1,0.2,0.0625,35.0,1,1.0,0.3433010000003378
589,1,0.2,0.0625,-35.0,-1,1.0,0.27440100000012535
590,1,0.2,0.25,35.0,-1,0.0,0.18680100000028688
591,1,0.2,0.25,-35.0,-1,1.0,0.2883010000005015
592,1,0.2,1.0,35.0,1,1.0,0.2769009999997252
593,1,0.2,0.0,35.0,1,1.0,0.36220100000036837
594,1,0.2,0.125,35.0,1,1.0,0.41050099999984013
595,1,0.2,0.25,35.0,1,1.0,0.16300100000034945
596,1,0.2,0.0625,-35.0,-1,1.0,0.4007010000000264
597,1,0.2,0.125,-35.0,-1,1.0,0.08650100000022576
598,1,0.2,1.0,35.0,1,1.0,0.25430099999994127
599,1,0.2,0.25,35.0,1,1.0,0.3265010000004622
600,1,0.2,0.0625,35.0,1,1.0,0.4444010000001981
601,1,0.2,1.0,35.0,1,1.0,0.337601000000177
602,1,0.2,0.25,35.0,1,1.0,0.3179009999998925
603,1,0.2,0.25,35.0,1,1.0,0.33830100000022867
604,1,0.2,0.0625,-35.0,-1,1.0,0.9648010000000795
605,1,0.2,0.0625,35.0,1,1.0,0.4381010000001879
606,1,0.2,0.0,35.0,-1,0.0,0.21180099999992308
607,1,0.2,1.0,35.0,1,1.0,0.37710100000003877
608,1,0.2,0.0625,35.0,-1,0.0,0.4218010000004142
609,1,0.2,0.25,35.0,1,1.0,0.3757010000003902
610,1,0.2,0.0,35.0,1,1.0,0.6120010000004186
611,1,0.2,0.125,35.0,-1,0.0,0.9008010000002287
612,1,0.2,0.25,35.0,1,1.0,0.3591010000004644
613,1,0.2,0.25,35.0,1,1.0,0.34080100000028324
614,1,0.2,0.0625,35.0,1,1.0,0.45580100000006496
615,1,0.2,0.0625,35.0,1,1.0,1.611301000000367
616,1,0.2,0.0,-35.0,1,0.0,0.6229010000001836
617,1,0.2,0.0625,-35.0,-1,1.0,0.3041009999997186
618,1,0.2,0.125,-35.0,-1,1.0,0.23630099999991216
619,1,0.2,0.0625,35.0,-1,0.0,0.0983009999999922
620,1,0.2,0.125,35.0,-1,0.0,0.27310099999976956
621,1,0.2,0.25,35.0,1,1.0,0.3815010000002985
622,1,0.2,1.0,35.0,1,1.0,0.3499010000000453
623,1,0.2,0.0625,35.0,1,1.0,0.36600099999986924
624,1,0.2,0.0625,35.0,1,1.0,0.5135009999999056
625,1,0.8,0.125,-35.0,-1,1.0,0.2511010000002898
626,1,0.8,0.0,-35.0,-1,1.0,0.22710099999994782
627,1,0.8,0.125,35.0,1,1.0,0.3921010000003662
628,1,0.8,0.25,-35.0,-1,1.0,0.24080099999991944
629,1,0.8,0.0625,-35.0,-1,1.0,0.2802010000000337
630,1,0.8,0.0,-35.0,-1,1.0,2.774200999999721
631,1,0.8,0.0625,-35.0,-1,1.0,0.26620099999991
632,1,0.8,0.0625,-35.0,-1,1.0,0.24120100000027378
633,1,0.8,0.0,-35.0,-1,1.0,0.24510099999997692
634,1,0.8,1.0,-35.0,-1,1.0,0.11790100000007442
635,1,0.8,0.0625,-35.0,-1,1.0,0.2513010000002396
636,1,0.8,1.0,-35.0,-1,1.0,0.1915009999997892
637,1,0.8,0.0,-35.0,-1,1.0,0.26330100000041057
638,1,0.8,0.25,-35.0,-1,1.0,0.11840100000017628
639,1,0.8,1.0,35.0,-1,0.0,0.11730099999977028
640,1,0.8,0.125,-35.0,-1,1.0,0.18860099999983504
641,1,0.8,0.0,-35.0,-1,1.0,0.25230099999998856
642,1,0.8,0.0625,35.0,1,1.0,0.45560100000011516
643,1,0.8,1.0,-35.0,-1,1.0,0.31040100000018356
644,1,0.8,0.125,-35.0,-1,1.0,0.26909999999998035
645,1,0.8,0.0,-35.0,-1,1.0,0.5457010000000082
646,1,0.8,1.0,-35.0,-1,1.0,0.19610099999999875
647,1,0.8,0.0625,-35.0,-1,1.0,0.21630099999993035
648,1,0.8,0.0,-35.0,1,0.0,0.35970099999985905
649,1,0.8,1.0,-35.0,-1,1.0,0.24060099999996964
650,1,0.8,0.25,-35.0,-1,1.0,0.2830010000002403
651,1,0.8,0.25,-35.0,-1,1.0,0.27880099999993035
652,1,0.8,0.0,-35.0,1,0.0,0.6932009999995898
653,1,0.8,0.0625,-35.0,-1,1.0,0.27000100000032035
654,1,0.8,0.0,-35.0,-1,1.0,0.467000999999982
655,1,0.8,0.25,35.0,1,1.0,0.4610010000001239
656,1,0.8,1.0,-35.0,-1,1.0,0.1737009999997099
657,1,0.8,0.125,-35.0,-1,1.0,0.11060100000031525
658,1,0.8,0.25,-35.0,-1,1.0,0.19720100000040475
659,1,0.8,0.0,-35.0,-1,1.0,0.13150099999984377
660,1,0.8,0.0625,-35.0,-1,1.0,0.2508010000001377
661,1,0.8,0.25,-35.0,-1,1.0,0.293601000000308
662,1,0.2,0.25,35.0,1,1.0,0.42790100000001985
663,1,0.2,1.0,35.0,1,1.0,0.30080099999986487
664,1,0.2,0.25,-35.0,-1,1.0,0.20780100000001767
665,1,0.2,0.125,35.0,-1,0.0,0.14680100000032326
666,1,0.2,0.125,35.0,1,1.0,0.7149010000002818
667,1,0.2,0.0625,35.0,-1,0.0,0.20390100000031453
668,1,0.2,0.0625,35.0,-1,0.0,0.16830100000061066
669,1,0.2,0.125,35.0,1,1.0,0.6320009999999456
670,1,0.2,0.0625,-35.0,-1,1.0,0.22180100000014136
671,1,0.2,0.0625,35.0,1,1.0,0.691801000000396
672,1,0.2,0.0,35.0,-1,0.0,0.4153009999999995
673,1,0.2,1.0,35.0,1,1.0,0.3557010000004084
674,1,0.2,0.0,35.0,1,1.0,1.572501000000102
675,1,0.2,1.0,35.0,1,1.0,0.31710100000009334
676,1,0.2,1.0,35.0,1,1.0,0.3460009999998874
677,1,0.2,0.0625,35.0,1,1.0,0.3817010000002483
678,1,0.2,0.125,35.0,1,1.0,0.5195010000002185
679,1,0.2,0.125,35.0,-1,0.0,0.18010099999992235
680,1,0.2,0.25,35.0,1,1.0,0.30980100000033417
681,1,0.2,1.0,-35.0,-1,1.0,0.22360099999968952
682,1,0.2,0.125,35.0,1,1.0,0.3002010000000155
683,1,0.2,0.0625,35.0,1,1.0,0.8321010000004208
684,1,0.2,0.0625,35.0,1,1.0,0.9202009999999063
685,1,0.2,0.0,35.0,1,1.0,0.12530100000003586
686,1,0.2,0.0,35.0,1,1.0,0.223500999999942
687,1,0.2,1.0,-35.0,-1,1.0,0.19120100000009188
688,1,0.2,0.0,35.0,1,1.0,2.920400999999856
689,1,0.2,0.25,-35.0,-1,1.0,0.2813009999999849
690,1,0.2,0.0625,35.0,1,1.0,0.3673009999997703
691,1,0.2,1.0,35.0,1,1.0,0.28420100000039383
692,1,0.2,0.0,35.0,-1,0.0,0.8976009999996677
693,1,0.2,0.0625,35.0,1,1.0,0.3624009999998634
694,1,0.2,0.0625,35.0,1,1.0,0.32460100000025705
695,1,0.2,0.25,-35.0,-1,1.0,0.27240100000017264
696,1,0.2,1.0,35.0,1,1.0,0.5616009999998823
697,1,0.2,0.125,35.0,1,1.0,5.503501000000142
698,1,0.2,1.0,-35.0,-1,1.0,0.2518009999998867
699,1,0.2,0.25,-35.0,-1,1.0,0.2476010000000315
700,1,0.2,0.125,35.0,1,1.0,0.30870099999992817
701,1,0.2,0.25,35.0,1,1.0,0.3501009999999951
702,1,0.2,0.125,35.0,1,1.0,0.325601000000006
703,1,0.2,0.0,35.0,1,1.0,0.396701000000121
704,1,0.2,0.125,35.0,1,1.0,0.382600999999795
705,1,0.2,1.0,35.0,1,1.0,0.2877010000001974
706,1,0.2,0.125,-35.0,-1,1.0,0.23910099999966405
707,1,0.2,0.25,35.0,1,1.0,0.3398010000000795
708,1,0.2,0.125,-35.0,-1,1.0,0.2561009999999442
709,1,0.2,0.0625,35.0,1,1.0,0.3425010000000839
710,1,0.2,1.0,35.0,1,1.0,0.2963009999998576
711,1,0.2,0.0,35.0,1,1.0,3.614400999999816
712,1,0.2,1.0,-35.0,-1,1.0,0.3368010000003778
713,1,0.2,0.0,35.0,-1,0.0,0.17780099999981758
714,1,0.2,0.25,35.0,1,1.0,0.3500010000002476
715,1,0.2,0.125,35.0,1,1.0,0.7159010000004855
716,1,0.2,0.125,-35.0,-1,1.0,0.2737010000000737
717,1,0.2,0.0625,35.0,1,1.0,0.41370099999994636
718,1,0.2,0.0,-35.0,1,0.0,0.35040099999969243
719,1,0.2,1.0,35.0,1,1.0,0.3730009999999311
720,1,0.2,0.25,35.0,1,1.0,0.34750099999973827
721,1,0.2,0.25,35.0,1,1.0,0.3000010000000657
722,1,0.2,0.25,35.0,1,1.0,0.3242009999999027
723,1,0.2,0.0,35.0,1,1.0,0.3135010000000875
724,1,0.2,0.0,35.0,1,1.0,4.104501000000255
725,1,0.2,1.0,35.0,1,1.0,0.252100999999584
726,1,0.2,0.125,35.0,1,1.0,0.28510099999994054
727,1,0.2,0.0,35.0,1,1.0,0.6651010000005044
728,1,0.2,0.0625,35.0,1,1.0,0.3017010000003211
729,1,0.2,0.125,35.0,1,1.0,0.33450100000027305
730,1,0.2,0.25,35.0,1,1.0,0.2852010000001428
731,1,0.2,0.125,35.0,1,1.0,0.30020099999956074
732,1,0.2,0.0625,35.0,1,1.0,0.3520010000002003
733,1,0.2,0.25,35.0,1,1.0,0.1542010000002847
734,1,0.2,0.125,35.0,1,1.0,0.27220100000022285
735,1,0.2,0.25,35.0,1,1.0,0.31080100000008315
736,1,0.2,0.0625,-35.0,-1,1.0,0.3191009999995913
737,1,0.2,0.125,-35.0,-1,1.0,0.21580100000028324
738,1,0.2,0.125,-35.0,-1,1.0,0.2793010000000322
739,1,0.2,0.25,35.0,1,1.0,0.3261010000001079
740,1,0.2,0.0,35.0,1,1.0,0.31940099999974336
741,1,0.2,0.0625,35.0,1,1.0,0.426401000000169
742,1,0.2,1.0,35.0,1,1.0,0.33230100000037055
743,1,0.2,0.25,-35.0,-1,1.0,0.23980100000017046
744,1,0.8,0.125,-35.0,-1,1.0,0.3060009999999238
745,1,0.8,0.125,35.0,1,1.0,0.590001000000484
746,1,0.8,0.0,-35.0,1,0.0,0.38290100000040184
747,1,0.8,1.0,35.0,1,1.0,0.35720100000025923
748,1,0.8,0.0625,-35.0,-1,1.0,0.5378010000003997
749,1,0.8,0.0625,35.0,1,1.0,0.3904010000001108
750,1,0.8,0.0,-35.0,-1,1.0,0.5846010000000206
751,1,0.8,0.125,-35.0,-1,1.0,0.28390100000024177
752,1,0.8,0.0625,35.0,1,1.0,0.19920100000035745
753,1,0.8,0.25,35.0,1,1.0,0.49860099999978047
754,1,0.8,0.125,-35.0,-1,1.0,0.24100100000032398
755,1,0.8,0.125,-35.0,-1,1.0,0.19570100000009916
756,1,0.8,0.25,-35.0,1,0.0,0.19450099999994563
757,1,0.8,0.0,-35.0,1,0.0,0.16560100000015154
758,1,0.8,0.25,35.0,1,1.0,0.39130100000011225
759,1,0.8,0.125,35.0,1,1.0,0.3368009999999231
760,1,0.8,0.0625,-35.0,-1,1.0,0.30820100000028106
761,1,0.8,0.0,-35.0,-1,1.0,0.479001000000153
762,1,0.8,1.0,-35.0,-1,1.0,0.44540100000040184
763,1,0.8,1.0,-35.0,-1,1.0,0.20460099999991144
764,1,0.8,0.0,35.0,-1,0.0,0.23860100000001694
765,1,0.8,0.125,-35.0,-1,1.0,0.36020100000041566
766,1,0.8,0.0625,-35.0,-1,1.0,0.3721009999999296
767,1,0.8,0.0,-35.0,1,0.0,1.0525009999996655
768,1,0.8,0.0,-35.0,-1,1.0,0.28910099999984595
769,1,0.8,0.0625,-35.0,-1,1.0,0.2209010000001399
770,1,0.8,0.125,-35.0,-1,1.0,0.22930099999985032
771,1,0.8,0.125,-35.0,-1,1.0,0.19820100000015373
772,1,0.8,0.0625,-35.0,-1,1.0,0.12610099999983504
773,1,0.8,1.0,-35.0,-1,1.0,0.20630100000016682
774,1,0.8,0.0,-35.0,-1,1.0,0.2664009999998598
775,1,0.8,0.125,-35.0,-1,1.0,0.20500099999981103
776,1,0.8,0.125,-35.0,-1,1.0,0.22320100000024468
777,1,0.8,0.0625,-35.0,-1,1.0,0.18310100000007878
778,1,0.8,0.125,-35.0,-1,1.0,0.23350100000016027
779,1,0.8,0.25,35.0,1,1.0,0.36950100000012753
780,1,0.8,0.125,-35.0,-1,1.0,0.2172009999999318
781,1,0.8,0.125,-35.0,-1,1.0,0.21310100000027887
782,1,0.8,0.125,-35.0,-1,1.0,0.22380100000009406
783,1,0.8,0.0,-35.0,-1,1.0,0.4982009999998809
784,1,0.8,1.0,-35.0,-1,1.0,0.2207010000001901
785,1,0.8,0.25,35.0,1,1.0,0.34500100000013845
786,1,0.8,0.0625,-35.0,-1,1.0,0.2310010000001057
787,1,0.8,0.0625,-35.0,-1,1.0,0.25640100000009625
788,1,0.8,0.0625,-35.0,-1,1.0,0.36800099999982194
789,1,0.8,0.0625,35.0,1,1.0,0.7638010000000577
790,1,0.8,0.0625,-35.0,-1,1.0,0.271701000000121
791,1,0.8,0.0,35.0,-1,0.0,0.32130099999994854
792,1,0.8,0.25,-35.0,-1,1.0,0.2349010000002636
793,1,0.8,1.0,35.0,1,1.0,0.34940099999994345
794,1,0.8,0.125,35.0,1,1.0,0.6384010000001581
795,1,0.8,0.0,-35.0,-1,1.0,0.22540100000014718
796,1,0.8,0.25,-35.0,-1,1.0,0.2286010000002534
797,1,0.8,0.0,-35.0,1,0.0,4.905500999999731
798,1,0.8,0.0625,-35.0,-1,1.0,0.2756010000002789
799,1,0.8,0.0,-35.0,1,0.0,0.566501000000244
800,1,0.8,0.0625,-35.0,-1,1.0,0.5225009999999202
801,1,0.8,1.0,35.0,-1,0.0,0.1145010000000184
802,1,0.2,0.0625,35.0,-1,0.0,0.1295010000003458
803,1,0.2,0.0,35.0,1,1.0,0.5005010000004404
804,1,0.2,1.0,35.0,1,1.0,0.32310099999995145
805,1,0.2,0.0,35.0,1,1.0,0.6965009999998983
806,1,0.2,0.125,35.0,1,1.0,0.29990100000031816
807,1,0.2,0.0625,35.0,1,1.0,
808,1,0.2,0.25,35.0,1,1.0,0.3337010000000191
809,1,0.2,0.0,35.0,1,1.0,0.7517010000001392
810,1,0.2,0.25,35.0,1,1.0,0.3037010000002738
811,1,0.2,0.0,35.0,1,1.0,0.11440100000027087
812,1,0.2,0.25,35.0,1,1.0,0.3239010000002054
813,1,0.2,0.0,35.0,1,1.0,0.6493010000003778
814,1,0.2,0.0,35.0,-1,0.0,0.24070100000017192
815,1,0.2,1.0,-35.0,-1,1.0,0.22280100000034508
816,1,0.2,0.25,35.0,1,1.0,0.44760100000030434
817,1,0.2,0.25,35.0,1,1.0,0.3576010000001588
818,1,0.2,0.0625,35.0,1,1.0,0.42440099999976155
819,1,0.2,0.0625,35.0,1,1.0,0.5421010000004571
820,1,0.2,0.125,35.0,1,1.0,0.44790100000000166
821,1,0.2,0.0,-35.0,1,0.0,0.47280099999989034
822,1,0.2,0.125,-35.0,-1,1.0,0.2682009999998627
823,1,0.2,0.0625,35.0,1,1.0,0.7663010000001123
824,1,0.2,0.0625,35.0,1,1.0,0.5520010000000184
825,1,0.2,1.0,35.0,1,1.0,0.3633010000003196
826,1,0.2,0.25,35.0,1,1.0,0.32900100000006205
827,1,0.2,0.25,-35.0,-1,1.0,0.297001000000364
828,1,0.2,1.0,35.0,1,1.0,0.3521009999999478
829,1,0.2,0.125,35.0,1,1.0,0.3220010000000002
830,1,0.2,0.125,-35.0,-1,1.0,2.285800999999992
831,1,0.2,0.0625,35.0,1,1.0,0.4452009999999973
832,1,0.2,0.25,35.0,1,1.0,0.3427010000000337
833,1,0.2,1.0,35.0,1,1.0,0.3275010000002112
834,1,0.2,0.125,35.0,-1,0.0,0.17610100000001694
835,1,0.2,0.0625,35.0,1,1.0,0.4672009999999318
836,1,0.2,0.125,35.0,1,1.0,0.34970100000055027
837,1,0.2,0.0,35.0,1,1.0,
838,1,0.2,0.0,35.0,1,1.0,0.8300010000002658
839,1,0.2,0.25,35.0,1,1.0,1.0074009999998452
840,1,0.2,0.125,35.0,1,1.0,0.4067009999998845
841,1,0.2,0.25,35.0,1,1.0,0.29770100000041566
842,1,0.2,0.0,35.0,1,1.0,2.006901000000198
843,1,0.2,1.0,35.0,1,1.0,0.33250100000032035
844,1,0.2,0.0625,35.0,1,1.0,0.7473010000003342
845,1,0.8,1.0,35.0,1,1.0,0.3154010000002927
846,1,0.8,0.0,-35.0,1,0.0,6.14080100000001
847,1,0.8,0.125,35.0,1,1.0,0.4114009999998416
848,1,0.8,0.25,-35.0,-1,1.0,2.5077009999999973
849,1,0.8,0.25,35.0,1,1.0,0.3846010000002025
850,1,0.8,0.125,-35.0,-1,1.0,0.24460099999987506
851,1,0.8,1.0,-35.0,-1,1.0,0.2571010000001479
852,1,0.8,1.0,-35.0,-1,1.0,0.29480100000000675
853,1,0.8,1.0,-35.0,-1,1.0,0.1926010000001952
854,1,0.8,0.0625,-35.0,-1,1.0,0.271701000000121
855,1,0.8,1.0,-35.0,-1,1.0,0.1946010000001479
856,1,0.8,0.25,-35.0,-1,1.0,0.1852010000006885
857,1,0.8,0.0,-35.0,1,0.0,0.7999010000003182
858,1,0.8,0.125,-35.0,-1,1.0,0.8788009999998394
859,1,0.8,0.125,35.0,1,1.0,0.5736010000005081
860,1,0.8,1.0,-35.0,-1,1.0,0.23230100000000675
861,1,0.8,0.25,-35.0,-1,1.0,0.5528009999998176
862,1,0.8,0.0625,-35.0,-1,1.0,0.48600100000021484
863,1,0.8,0.25,-35.0,-1,1.0,0.720100999999886
864,1,0.8,0.25,-35.0,-1,1.0,0.4295009999996182
865,1,0.8,0.125,-35.0,1,0.0,6.149501000000328
866,1,0.2,0.125,35.0,1,1.0,1.8632010000001173
867,1,0.2,1.0,35.0,1,1.0,0.47090099999968515
868,1,0.2,0.0625,35.0,-1,0.0,0.9968010000002323
869,1,0.2,0.0625,35.0,1,1.0,0.6989010000002054
870,1,0.2,0.25,-35.0,-1,1.0,0.47390100000029634
871,1,0.2,0.0625,35.0,1,1.0,10.465400999999929
872,1,0.2,1.0,35.0,1,1.0,2.4774010000001
873,1,0.2,0.25,35.0,1,1.0,0.37410099999988233
874,1,0.2,0.25,-35.0,-1,1.0,0.6011010000001988
875,1,0.2,0.0,35.0,1,1.0,17.6632010000003
876,1,0.2,0.125,35.0,1,1.0,9.86480100000017
877,1,0.2,0.0625,35.0,1,1.0,0.5763010000000577
878,1,0.2,0.0625,35.0,1,1.0,9.002201000000241
879,1,0.2,1.0,-35.0,-1,1.0,0.39530100000001767
880,1,0.2,0.0,35.0,1,1.0,4.645800999999665
881,1,0.2,1.0,35.0,1,1.0,0.6000009999997928
882,1,0.2,0.0625,35.0,1,1.0,2.1494010000001254
883,1,0.2,0.0625,-35.0,-1,1.0,2.4244010000002163
884,1,0.2,0.0625,35.0,1,1.0,1.4796010000000024
885,1,0.2,1.0,35.0,1,1.0,0.34670100000039383
886,1,0.2,0.0625,35.0,1,1.0,0.6297009999998409
887,1,0.2,0.25,35.0,1,1.0,3.8393009999999776
888,1,0.2,0.25,-35.0,-1,1.0,2.88050099999964
889,1,0.2,0.125,35.0,1,1.0,0.462601000000177
890,1,0.2,1.0,35.0,1,1.0,0.33040100000107486
891,1,0.2,0.125,35.0,1,1.0,0.4556010000005699
892,1,0.2,1.0,35.0,1,1.0,0.3472009999995862
893,1,0.2,0.0,35.0,-1,0.0,0.9223010000005161
894,1,0.2,0.0,35.0,1,1.0,0.7007009999997535
895,1,0.2,0.0625,35.0,1,1.0,2.989400999999816
1,2,0.5,0.0,35.0,1,1.0,1.9342
2,2,0.5,0.25,35.0,1,1.0,0.4972000000000003
3,2,0.5,0.125,-35.0,-1,1.0,0.24029900000000026
4,2,0.5,0.25,35.0,1,1.0,0.28219999999999956
5,2,0.5,0.0625,35.0,1,1.0,0.6372
6,2,0.5,0.25,35.0,1,1.0,0.16359899999999783
7,2,0.5,0.0625,35.0,1,1.0,2.25
8,2,0.5,0.0625,-35.0,1,0.0,2.836899999999993
9,2,0.5,0.25,35.0,1,1.0,0.2938000000000045
10,2,0.5,0.0,35.0,-1,0.0,0.18459900000000573
11,2,0.5,0.0625,35.0,1,1.0,0.33019900000000035
12,2,0.5,1.0,35.0,1,1.0,0.31679900000000316
13,2,0.5,0.25,35.0,1,1.0,0.27639899999999784
14,2,0.5,0.0,-35.0,1,0.0,0.32920000000000016
15,2,0.5,0.125,35.0,1,1.0,0.4910990000000055
16,2,0.5,0.25,-35.0,-1,1.0,0.23090000000000543
17,2,0.5,1.0,-35.0,-1,1.0,0.32390000000000896
18,2,0.5,0.25,35.0,1,1.0,0.31859900000000607
19,2,0.5,0.25,-35.0,-1,1.0,0.19049900000000264
20,2,0.5,0.0625,35.0,1,1.0,0.3346990000000005
21,2,0.5,0.0,-35.0,1,0.0,0.5054000000000087
22,2,0.5,0.25,35.0,1,1.0,2.679299999999998
23,2,0.5,0.25,35.0,1,1.0,0.2383000000000095
24,2,0.5,0.0,-35.0,1,0.0,0.7261990000000083
25,2,0.5,0.0,-35.0,-1,1.0,0.24449900000000468
26,2,0.5,0.0,35.0,1,1.0,1.1001000000000118
27,2,0.5,0.25,35.0,1,1.0,0.31719900000001644
28,2,0.5,1.0,35.0,1,1.0,0.28419899999997256
29,2,0.5,1.0,35.0,1,1.0,0.2851999999999748
30,2,0.5,0.125,-35.0,-1,1.0,0.2342999999999904
31,2,0.5,0.0,-35.0,1,0.0,0.3582990000000166
32,2,0.5,0.0,-35.0,1,0.0,0.5675999999999704
33,2,0.5,0.0,-35.0,-1,1.0,0.21419999999997685
34,2,0.5,0.125,-35.0,-1,1.0,0.27169900000001235
35,2,0.5,0.0,-35.0,-1,1.0,0.3170989999999847
36,2,0.5,0.0625,35.0,1,1.0,0.4585999999999899
37,2,0.5,0.25,-35.0,-1,1.0,0.2243999999999744
38,2,0.5,0.25,-35.0,-1,1.0,0.2220999999999833
39,2,0.5,0.25,-35.0,-1,1.0,0.11679999999998358
40,2,0.5,0.125,-35.0,-1,1.0,0.21109899999999016
41,2,0.5,0.25,-35.0,-1,1.0,0.2043999999999926
42,2,0.5,0.25,35.0,1,1.0,0.8948000000000036
43,2,0.5,0.125,-35.0,-1,1.0,0.20230000000000814
44,2,0.5,0.25,35.0,1,1.0,0.3164989999999932
45,2,0.5,0.0625,-35.0,-1,1.0,0.1651990000000012
46,2,0.5,0.125,-35.0,-1,1.0,0.2077989999999943
47,2,0.5,0.25,35.0,1,1.0,0.33649900000000343
48,2,0.5,0.0,35.0,1,1.0,3.5764990000000125
49,2,0.5,0.0,-35.0,1,0.0,2.6694999999999993
50,2,0.5,1.0,-35.0,-1,1.0,0.215598999999969
51,2,0.5,0.25,-35.0,-1,1.0,0.2085999999999899
52,2,0.5,0.125,35.0,1,1.0,0.33660000000000423
53,2,0.5,1.0,35.0,-1,0.0,0.09459999999998558
54,2,0.5,0.125,35.0,1,1.0,0.34399900000002503
55,2,0.5,0.25,-35.0,-1,1.0,0.2082990000000109
56,2,0.5,0.25,-35.0,-1,1.0,0.19119900000001167
57,2,0.5,0.0,35.0,-1,0.0,0.2505999999999915
58,2,0.5,0.125,35.0,1,1.0,0.30169899999998506
59,2,0.5,0.125,35.0,1,1.0,0.48919899999998506
60,2,0.5,0.0625,35.0,1,1.0,0.4806999999999846
61,2,0.5,0.125,-35.0,-1,1.0,0.24769900000001144
62,2,0.5,0.0,35.0,-1,0.0,0.2545000000000073
63,2,0.5,0.0,-35.0,1,0.0,0.7017989999999941
64,2,0.5,0.0625,35.0,1,1.0,0.5686000000000604
65,2,0.5,0.0,35.0,1,1.0,5.436800000000005
66,2,0.5,0.0,35.0,1,1.0,0.19119999999998072
67,2,0.5,0.25,-35.0,-1,1.0,0.2411999999999921
68,2,0.5,1.0,-35.0,-1,1.0,3.373899999999992
69,2,0.5,0.0625,-35.0,-1,1.0,0.5489000000000601
70,2,0.5,0.25,35.0,1,1.0,0.2639000000000351
71,2,0.5,0.25,35.0,1,1.0,0.48089900000002217
72,2,0.5,0.125,-35.0,-1,1.0,0.27050000000002683
73,2,0.5,0.0,35.0,-1,0.0,0.27499999999997726
74,2,0.5,0.125,35.0,1,1.0,0.5358999999999696
75,2,0.5,0.0625,-35.0,-1,1.0,0.8199989999999957
76,2,0.5,0.0625,35.0,1,1.0,0.886498999999958
77,2,0.5,0.25,35.0,-1,0.0,0.25499999999999545
78,2,0.5,1.0,-35.0,-1,1.0,0.17799999999999727
79,2,0.5,0.0,35.0,-1,0.0,1.0597999999999956
80,2,0.5,0.125,-35.0,-1,1.0,0.2871989999999869
81,2,0.5,0.25,35.0,1,1.0,0.34909999999996444
82,2,0.5,0.0,-35.0,1,0.0,0.6044989999999757
83,2,0.5,0.125,35.0,1,1.0,0.4028989999999908
84,2,0.5,0.125,35.0,1,1.0,0.2850989999999456
85,2,0.5,0.0,-35.0,1,0.0,0.3341000000000349
86,2,0.5,0.0,35.0,-1,0.0,0.27989900000000034
87,2,0.5,0.0,35.0,1,1.0,0.33600000000001273
88,2,0.5,0.0625,35.0,1,1.0,0.2904989999999543
89,2,0.5,1.0,-35.0,-1,1.0,0.23210000000000264
90,2,0.5,0.25,35.0,1,1.0,0.30029999999993606
91,2,0.2,0.0625,35.0,1,1.0,0.36719999999996844
92,2,0.2,0.25,35.0,1,1.0,0.26949999999999363
93,2,0.2,0.0,35.0,-1,0.0,1.7993000000000166
94,2,0.2,0.0,35.0,1,1.0,0.43929999999994607
95,2,0.2,1.0,35.0,1,1.0,0.24630000000001928
96,2,0.2,0.0625,35.0,1,1.0,0.5487990000000309
97,2,0.2,0.25,35.0,1,1.0,0.36129999999997153
98,2,0.2,0.25,35.0,1,1.0,0.41130000000003974
99,2,0.2,0.0,35.0,1,1.0,0.3833989999999403
100,2,0.2,0.0,35.0,1,1.0,0.31529999999997926
101,2,0.2,0.125,35.0,1,1.0,0.315400000000011
102,2,0.2,0.25,35.0,1,1.0,0.2973989999999844
103,2,0.2,0.25,35.0,1,1.0,0.2913990000000126
104,2,0.2,0.0625,35.0,1,1.0,0.29239999999998645
105,2,0.2,0.0625,35.0,1,1.0,0.33489900000000716
106,2,0.2,0.0,-35.0,1,0.0,0.5579989999999952
107,2,0.2,0.0,35.0,1,1.0,0.6634990000000016
108,2,0.2,0.25,35.0,1,1.0,0.3704999999999927
109,2,0.2,0.0,35.0,1,1.0,2.6405999999999494
110,2,0.2,0.125,35.0,1,1.0,0.3072999999999979
111,2,0.2,0.125,35.0,1,1.0,0.305499999999995
112,2,0.2,0.0625,-35.0,-1,1.0,2.058798999999965
113,2,0.2,0.0,35.0,1,1.0,8.62360000000001
114,2,0.2,0.0,35.0,-1,0.0,0.3088999999999942
115,2,0.2,0.125,-35.0,-1,1.0,0.2298999999999296
116,2,0.2,0.0,-35.0,-1,1.0,1.7461999999999875
117,2,0.2,1.0,-35.0,-1,1.0,0.18070000000000164
118,2,0.2,0.0,35.0,-1,0.0,2.060498999999993
119,2,0.2,0.25,35.0,1,1.0,0.5601990000000114
120,2,0.2,1.0,35.0,1,1.0,0.28690000000005966
121,2,0.2,0.125,35.0,1,1.0,0.29980000000000473
122,2,0.2,1.0,35.0,1,1.0,0.2587990000000673
123,2,0.2,0.0625,35.0,1,1.0,0.5487990000000309
124,2,0.2,0.25,-35.0,-1,1.0,0.2400000000000091
125,2,0.2,0.25,35.0,1,1.0,0.40829999999994016
126,2,0.2,1.0,-35.0,-1,1.0,0.2447989999999436
127,2,0.2,0.125,-35.0,-1,1.0,0.23339999999996053
128,2,0.2,0.25,35.0,1,1.0,0.40399999999999636
129,2,0.2,0.25,35.0,1,1.0,0.44459900000003927
130,2,0.2,0.25,35.0,1,1.0,0.25359999999989213
131,2,0.2,1.0,35.0,1,1.0,0.2847990000000209
132,2,0.2,0.25,35.0,1,1.0,0.2683999999999287
133,2,0.2,0.25,-35.0,-1,1.0,0.22430000000008476
134,2,0.2,0.0625,35.0,1,1.0,0.40089899999998124
135,2,0.2,0.0,35.0,1,1.0,4.582599999999957
136,2,0.2,0.0,35.0,1,1.0,0.33609999999998763
137,2,0.2,0.25,-35.0,-1,1.0,0.49509999999997945
138,2,0.2,1.0,35.0,1,1.0,0.25900000000001455
139,2,0.2,0.25,35.0,1,1.0,0.3509000000000242
140,2,0.2,0.125,35.0,1,1.0,0.2970999999998867
141,2,0.2,0.0625,35.0,1,1.0,0.22640000000001237
142,2,0.2,0.0625,35.0,1,1.0,0.309099999999944
143,2,0.2,0.125,-35.0,-1,1.0,0.19859899999994468
144,2,0.2,0.0,-35.0,1,0.0,0.24539999999990414
145,2,0.2,0.125,35.0,1,1.0,0.3132989999999154
146,2,0.2,0.0625,35.0,1,1.0,0.3490999999999076
147,2,0.2,0.125,-35.0,1,0.0,0.5416999999999916
148,2,0.2,0.25,35.0,1,1.0,0.5612989999999627
149,2,0.2,0.0,35.0,-1,0.0,5.134300000000053
150,2,0.2,0.125,35.0,1,1.0,0.9836999999999989
151,2,0.2,0.25,35.0,1,1.0,0.34759999999994307
152,2,0.2,0.0,35.0,1,1.0,0.34629899999993086
153,2,0.2,1.0,35.0,1,1.0,0.4360990000000129
154,2,0.2,1.0,-35.0,-1,1.0,0.17539899999997033
155,2,0.2,0.25,35.0,-1,0.0,0.22339899999997215
156,2,0.2,1.0,35.0,1,1.0,0.2784000000000333
157,2,0.2,0.0,35.0,1,1.0,0.3564000000000078
158,2,0.2,0.0625,35.0,1,1.0,1.5052990000000364
159,2,0.2,1.0,35.0,1,1.0,0.24109999999996035
160,2,0.2,0.0625,35.0,1,1.0,0.29940000000010514
161,2,0.2,0.125,35.0,1,1.0,0.3104000000000724
162,2,0.2,1.0,35.0,1,1.0,0.22660000000007585
163,2,0.2,0.0625,-35.0,-1,1.0,0.2341000000000122
164,2,0.2,1.0,35.0,-1,0.0,0.19049900000004527
165,2,0.8,0.0,-35.0,-1,1.0,0.5171990000000051
166,2,0.8,0.0625,35.0,1,1.0,0.3465999999999667
167,2,0.8,0.0625,-35.0,-1,1.0,0.22509900000000016
168,2,0.8,0.0625,-35.0,-1,1.0,0.4995000000000118
169,2,0.8,0.0625,35.0,1,1.0,0.3249000000000706
170,2,0.8,1.0,-35.0,-1,1.0,0.18849999999997635
171,2,0.8,0.125,-35.0,-1,1.0,0.3347989999999754
172,2,0.8,0.0,-35.0,1,0.0,0.3876000000000204
173,2,0.8,0.25,-35.0,-1,1.0,0.4998990000000276
174,2,0.8,0.125,-35.0,-1,1.0,0.23959999999999582
175,2,0.8,0.25,-35.0,-1,1.0,0.45779899999990903
176,2,0.8,0.0625,-35.0,-1,1.0,0.24689999999998236
177,2,0.8,0.25,-35.0,-1,1.0,0.22629999999992378
178,2,0.8,0.0,-35.0,-1,1.0,3.238200000000006
179,2,0.8,0.0625,-35.0,-1,1.0,0.27979900000002544
180,2,0.8,1.0,-35.0,-1,1.0,0.19269999999994525
181,2,0.8,0.125,35.0,1,1.0,0.3287000000000262
182,2,0.8,0.125,-35.0,-1,1.0,0.0928000000000111
183,2,0.8,1.0,-35.0,-1,1.0,0.20100000000002183
184,2,0.8,0.0625,-35.0,-1,1.0,0.2638000000000602
185,2,0.8,0.0,-35.0,1,0.0,2.084799999999973
186,2,0.8,0.125,-35.0,-1,1.0,0.24279900000010457
187,2,0.8,0.125,-35.0,-1,1.0,0.22179900000003272
188,2,0.8,0.0625,35.0,-1,0.0,0.28779899999994996
189,2,0.8,1.0,-35.0,-1,1.0,0.20119999999997162
190,2,0.8,0.0,-35.0,-1,1.0,2.1797999999998865
191,2,0.8,1.0,-35.0,-1,1.0,0.211400000000026
192,2,0.8,0.0625,35.0,1,1.0,0.49309900000002926
193,2,0.8,1.0,35.0,1,1.0,0.22949899999991885
194,2,0.8,0.0625,35.0,1,1.0,0.31789900000001126
195,2,0.8,0.25,-35.0,-1,1.0,0.29700000000002547
196,2,0.8,0.0625,-35.0,-1,1.0,0.29200000000003
197,2,0.8,0.0,-35.0,-1,1.0,2.869399999999928
198,2,0.2,0.0625,35.0,-1,0.0,0.09620000000006712
199,2,0.2,0.0,35.0,-1,0.0,1.7563000000000102
200,2,0.2,0.25,-35.0,-1,1.0,0.20699999999999363
201,2,0.2,0.0625,-35.0,-1,1.0,0.24919999999997344
202,2,0.2,0.0,35.0,-1,0.0,0.5232990000000655
203,2,0.2,0.25,35.0,1,1.0,0.3190999999999349
204,2,0.2,0.125,35.0,1,1.0,0.33740000000000236
205,2,0.2,0.0,35.0,-1,0.0,0.2899000000001024
206,2,0.2,1.0,-35.0,-1,1.0,0.18439999999998236
207,2,0.2,0.125,35.0,1,1.0,0.31740000000002055
208,2,0.2,1.0,-35.0,-1,1.0,0.20619999999996708
209,2,0.2,1.0,35.0,1,1.0,0.16800000000000637
210,2,0.2,0.25,35.0,1,1.0,0.389498999999887
211,2,0.2,0.0,35.0,-1,0.0,0.2500989999999774
212,2,0.2,0.25,35.0,1,1.0,0.2541989999999714
213,2,0.2,1.0,35.0,1,1.0,0.42639900000006037
214,2,0.2,1.0,35.0,1,1.0,0.2282989999999927
215,2,0.2,0.0,35.0,1,1.0,1.2463989999999967
216,2,0.2,0.0625,-35.0,1,0.0,0.29929999999990287
217,2,0.2,0.0,35.0,1,1.0,0.3247000000000071
218,2,0.2,0.0,35.0,1,1.0,0.42429900000013276
219,2,0.2,1.0,-35.0,1,0.0,0.13829999999995835
220,2,0.2,0.0,35.0,1,1.0,1.1463999999999714
221,2,0.2,0.0625,35.0,1,1.0,0.2989000000000033
222,2,0.2,0.125,35.0,1,1.0,0.3210990000000038
223,2,0.2,0.25,35.0,1,1.0,0.3032990000000382
224,2,0.2,0.125,-35.0,-1,1.0,0.23540000000002692
225,2,0.2,1.0,35.0,1,1.0,0.3450990000000047
226,2,0.2,0.125,35.0,1,1.0,0.405599000000052
227,2,0.2,0.0,35.0,1,1.0,0.4295999999999367
228,2,0.2,1.0,35.0,1,1.0,0.3244990000000598
229,2,0.2,0.25,35.0,1,1.0,0.428498999999988
230,2,0.2,0.125,35.0,1,1.0,1.6425989999999047
231,2,0.2,1.0,35.0,1,1.0,0.3224999999999909
232,2,0.2,0.25,35.0,1,1.0,0.2924990000000207
233,2,0.2,0.0,35.0,1,1.0,0.6688000000000329
234,2,0.2,1.0,-35.0,-1,1.0,0.2236000000000331
235,2,0.2,0.25,35.0,1,1.0,0.3780989999999065
236,2,0.2,0.125,35.0,1,1.0,0.2504999999998745
237,2,0.2,0.0,35.0,1,1.0,0.8211000000000013
238,2,0.2,0.0625,35.0,1,1.0,0.419599000000062
239,2,0.8,0.125,35.0,-1,0.0,0.15170000000000528
240,2,0.8,1.0,35.0,1,1.0,0.2817000000000007
241,2,0.8,0.0625,35.0,1,1.0,0.885599999999954
242,2,0.8,0.0,-35.0,-1,1.0,4.304699000000028
243,2,0.8,1.0,-35.0,-1,1.0,0.17919899999992595
244,2,0.8,0.25,-35.0,-1,1.0,0.20519899999999325
245,2,0.8,0.125,-35.0,-1,1.0,0.2726989999999887
246,2,0.8,0.0625,-35.0,-1,1.0,0.22850000000016735
247,2,0.8,0.25,35.0,1,1.0,0.37289899999996123
248,2,0.8,0.0,-35.0,1,0.0,2.8648000000000593
249,2,0.8,1.0,-35.0,-1,1.0,0.18650000000002365
250,2,0.8,0.0,-35.0,-1,1.0,0.11999999999989086
251,2,0.8,0.125,-35.0,-1,1.0,0.22339999999985594
252,2,0.8,1.0,-35.0,-1,1.0,0.19529999999986103
253,2,0.8,0.0,-35.0,-1,1.0,3.4469990000000053
254,2,0.8,0.125,35.0,1,1.0,0.5648989999999685
255,2,0.8,0.125,-35.0,-1,1.0,0.39069999999992433
256,2,0.8,0.125,-35.0,-1,1.0,0.5608999999999469
257,2,0.8,0.0625,-35.0,-1,1.0,0.26089900000010857
258,2,0.8,0.25,-35.0,-1,1.0,0.1779989999999998
259,2,0.8,0.0625,-35.0,-1,1.0,0.2841990000001715
260,2,0.8,0.0625,-35.0,-1,1.0,0.22299999999995634
261,2,0.8,0.0,35.0,-1,0.0,0.19439899999997579
262,2,0.8,0.0,-35.0,-1,1.0,0.3163990000000467
263,2,0.8,0.25,35.0,-1,0.0,0.2014000000001488
264,2,0.8,0.125,-35.0,-1,1.0,0.19910000000004402
265,2,0.8,0.0625,-35.0,-1,1.0,0.25510000000008404
266,2,0.8,0.25,-35.0,-1,1.0,0.1981989999999314
267,2,0.8,0.25,-35.0,-1,1.0,0.2583999999999378
268,2,0.8,0.0,-35.0,-1,1.0,0.26330000000007203
269,2,0.8,0.0,-35.0,-1,1.0,1.578599999999824
270,2,0.8,0.0625,-35.0,-1,1.0,0.5381990000000769
271,2,0.8,0.125,-35.0,-1,1.0,0.3122000000000753
272,2,0.8,0.125,-35.0,-1,1.0,0.2061999999998534
273,2,0.8,1.0,35.0,1,1.0,0.37259900000003654
274,2,0.8,0.0625,-35.0,-1,1.0,0.27330000000006294
275,2,0.8,0.0,-35.0,-1,1.0,1.7293999999999414
276,2,0.8,0.0,-35.0,1,0.0,0.3112999999998465
277,2,0.8,0.0,35.0,1,1.0,0.7996000000000549
278,2,0.8,0.0625,-35.0,-1,1.0,0.9526989999999387
279,2,0.8,1.0,35.0,1,1.0,0.29980000000000473
280,2,0.8,0.125,-35.0,-1,1.0,0.23030000000017026
281,2,0.8,0.0625,-35.0,-1,1.0,0.25039899999978843
282,2,0.8,0.0,-35.0,-1,1.0,4.323399999999992
283,2,0.8,0.125,-35.0,-1,1.0,0.21379999999976462
284,2,0.8,0.0,-35.0,-1,1.0,3.5185010000000148
285,2,0.8,0.0,-35.0,-1,1.0,2.3541000000000167
286,2,0.8,0.125,-35.0,-1,1.0,0.1973000000000411
287,2,0.8,0.125,-35.0,-1,1.0,0.2075009999998656
288,2,0.8,0.25,35.0,1,1.0,0.4904999999998836
289,2,0.8,0.0625,-35.0,-1,1.0,0.3177010000001701
290,2,0.8,0.125,-35.0,-1,1.0,0.1435999999998785
291,2,0.8,0.0625,-35.0,-1,1.0,0.21460000000001855
292,2,0.8,0.0625,-35.0,-1,1.0,0.268601000000217
293,2,0.8,0.0,-35.0,-1,1.0,0.6148009999999431
294,2,0.8,0.125,35.0,1,1.0,0.5526999999999589
295,2,0.8,0.25,-35.0,-1,1.0,0.21510000000012042
296,2,0.8,0.125,-35.0,-1,1.0,0.21270099999992453
297,2,0.8,0.125,-35.0,-1,1.0,0.1356999999998152
298,2,0.8,0.0625,35.0,1,1.0,0.5127999999997428
299,2,0.8,0.0625,35.0,1,1.0,0.5356010000000424
300,2,0.8,1.0,-35.0,-1,1.0,0.17000100000018392
301,2,0.8,1.0,35.0,1,1.0,0.30900100000008024
302,2,0.8,0.0625,-35.0,-1,1.0,0.2588010000001759
303,2,0.2,0.125,-35.0,1,0.0,0.6192009999999755
304,2,0.2,1.0,35.0,1,1.0,0.31989999999996144
305,2,0.2,0.25,-35.0,-1,1.0,0.17610000000013315
306,2,0.2,0.25,-35.0,-1,1.0,0.17210000000000036
307,2,0.2,1.0,35.0,1,1.0,0.25979999999981374
308,2,0.2,1.0,-35.0,-1,1.0,0.2056009999998878
309,2,0.2,0.0625,-35.0,-1,1.0,0.23660099999983686
310,2,0.2,1.0,35.0,1,1.0,0.3294999999998254
311,2,0.2,0.0,35.0,-1,0.0,0.320100999999795
312,2,0.2,1.0,-35.0,-1,1.0,0.21580100000005586
313,2,0.2,0.125,35.0,1,1.0,0.6040000000000418
314,2,0.2,1.0,35.0,1,1.0,0.34730000000013206
315,2,0.2,0.0625,35.0,1,1.0,0.3039000000001124
316,2,0.2,0.25,35.0,1,1.0,0.10500000000001819
317,2,0.2,0.0625,35.0,1,1.0,0.31730100000004313
318,2,0.2,0.125,35.0,1,1.0,0.2591010000001006
319,2,0.2,0.0625,-35.0,-1,1.0,0.2676000000001295
320,2,0.2,0.0625,35.0,1,1.0,0.8056000000001404
321,2,0.2,0.0,-35.0,1,0.0,6.907999999999902
322,2,0.2,1.0,35.0,1,1.0,0.2762000000000171
323,2,0.8,1.0,-35.0,-1,1.0,0.1852010000000064
324,2,0.8,0.125,-35.0,-1,1.0,0.1853000000000975
325,2,0.8,0.25,-35.0,-1,1.0,0.14169999999990068
326,2,0.8,0.125,-35.0,-1,1.0,0.2133010000000013
327,2,0.8,0.25,35.0,1,1.0,0.44530100000019956
328,2,0.8,0.0625,-35.0,-1,1.0,0.47830099999987397
329,2,0.8,0.0625,35.0,1,1.0,0.5387009999999464
330,2,0.8,0.0,-35.0,-1,1.0,2.5586009999999533
331,2,0.8,0.25,35.0,1,1.0,0.4723999999998796
332,2,0.8,1.0,35.0,1,1.0,0.2902999999998883
333,2,0.8,1.0,35.0,1,1.0,0.2625000000000455
334,2,0.8,0.0,-35.0,-1,1.0,1.1904010000000653
335,2,0.8,1.0,-35.0,-1,1.0,0.11599999999975807
336,2,0.8,0.0,-35.0,1,0.0,0.3685009999999238
337,2,0.8,0.25,-35.0,-1,1.0,0.20970099999999547
338,2,0.8,0.25,35.0,1,1.0,0.5144009999999071
339,2,0.8,1.0,-35.0,-1,1.0,0.22350100000016937
340,2,0.8,0.0,-35.0,-1,1.0,3.4985009999998056
341,2,0.8,0.0,-35.0,1,0.0,0.33350099999984195
342,2,0.8,0.125,-35.0,-1,1.0,0.223500999999942
343,2,0.8,0.0625,35.0,1,1.0,0.483600000000024
344,2,0.8,0.25,-35.0,-1,1.0,0.16730099999995218
345,2,0.8,0.0,-35.0,-1,1.0,2.8671009999998205
346,2,0.8,1.0,-35.0,-1,1.0,0.18180099999995036
347,2,0.8,1.0,35.0,1,1.0,0.334201000000121
348,2,0.8,0.25,35.0,1,1.0,0.33340099999986705
349,2,0.8,1.0,-35.0,-1,1.0,0.18780000000015207
350,2,0.8,0.0,35.0,1,1.0,0.6498009999997976
351,2,0.8,1.0,35.0,1,1.0,0.2746999999999389
352,2,0.8,0.0,-35.0,1,0.0,3.822701000000052
353,2,0.8,0.125,-35.0,-1,1.0,0.21830099999988306
354,2,0.8,0.25,-35.0,-1,1.0,0.2438009999998485
355,2,0.8,0.25,-35.0,-1,1.0,0.16840000000024702
356,2,0.8,0.25,35.0,1,1.0,0.3099010000000817
357,2,0.8,0.0625,-35.0,-1,1.0,0.26509999999984757
358,2,0.8,1.0,-35.0,-1,1.0,0.16480000000001382
359,2,0.8,1.0,-35.0,-1,1.0,0.25210100000003877
360,2,0.8,0.0,35.0,-1,0.0,0.907901000000038
361,2,0.8,0.0625,-35.0,-1,1.0,0.4757000000001881
362,2,0.8,0.0625,-35.0,-1,1.0,0.5949009999999362
363,2,0.8,0.0,35.0,-1,0.0,3.0858009999999467
364,2,0.8,0.25,35.0,1,1.0,0.29919999999992797
365,2,0.8,0.25,-35.0,-1,1.0,0.24289999999996326
366,2,0.8,0.125,-35.0,-1,1.0,0.22040100000003804
367,2,0.8,0.0625,35.0,1,1.0,0.3964009999999689
368,2,0.8,0.125,-35.0,-1,1.0,0.4811010000000806
369,2,0.8,0.0625,-35.0,-1,1.0,0.3001010000000406
370,2,0.8,0.0,-35.0,-1,1.0,0.33100100000024213
371,2,0.8,0.0,-35.0,-1,1.0,0.6301009999999678
372,2,0.8,0.25,-35.0,-1,1.0,0.21210099999984777
373,2,0.8,0.25,-35.0,-1,1.0,0.22710099999994782
374,2,0.8,0.0,-35.0,-1,1.0,0.6651009999998223
375,2,0.8,0.25,-35.0,-1,1.0,0.19390100000009625
376,2,0.8,0.0625,35.0,1,1.0,1.330199999999877
377,2,0.8,0.0,-35.0,-1,1.0,0.42420000000015534
378,2,0.8,1.0,35.0,1,1.0,0.5412010000000009
379,2,0.8,0.0,35.0,-1,0.0,3.4209999999998217
380,2,0.8,1.0,-35.0,-1,1.0,0.20030000000019754
381,2,0.8,0.25,35.0,1,1.0,0.38780100000008133
382,2,0.2,1.0,35.0,1,1.0,0.3062999999999647
383,2,0.2,0.25,-35.0,-1,1.0,0.21460099999990234
384,2,0.2,1.0,35.0,1,1.0,0.3091999999999189
385,2,0.2,1.0,35.0,1,1.0,0.33169999999995525
386,2,0.2,0.25,35.0,1,1.0,0.3804009999998925
387,2,0.2,1.0,-35.0,-1,1.0,0.19539999999983593
388,2,0.2,0.0625,35.0,1,1.0,0.3904010000001108
389,2,0.2,0.125,35.0,1,1.0,0.3120010000000093
390,2,0.2,0.0,35.0,1,1.0,2.5435010000001057
391,2,0.2,1.0,-35.0,-1,1.0,0.20550099999968552
392,2,0.2,0.0,35.0,-1,0.0,2.9539009999998598
393,2,0.2,0.25,35.0,1,1.0,0.2695009999999911
394,2,0.2,0.125,35.0,1,1.0,0.3264010000000326
395,2,0.2,0.0625,35.0,1,1.0,0.3960010000000693
396,2,0.2,0.125,35.0,1,1.0,0.3075010000002294
397,2,0.2,0.25,35.0,1,1.0,0.23620000000005348
398,2,0.2,0.125,-35.0,-1,1.0,0.5786009999997077
399,2,0.2,1.0,35.0,-1,0.0,0.10980099999983395
400,2,0.2,0.0,35.0,-1,0.0,0.19659999999998945
401,2,0.2,0.0,35.0,-1,0.0,0.2766009999998005
402,2,0.2,0.25,35.0,1,1.0,0.297800000000052
403,2,0.2,0.0625,35.0,1,1.0,0.2536000000000058
404,2,0.2,0.0625,35.0,1,1.0,0.5919009999997797
405,2,0.2,1.0,35.0,1,1.0,0.24380100000007587
406,2,0.2,1.0,-35.0,-1,1.0,0.20770100000004277
407,2,0.2,1.0,35.0,1,1.0,0.28369999999995343
408,2,0.2,0.125,35.0,1,1.0,0.9150010000000748
409,2,0.2,0.0,35.0,1,1.0,0.4839009999998325
410,2,0.2,0.0625,-35.0,1,0.0,0.30880000000024665
411,2,0.2,1.0,-35.0,-1,1.0,0.21089999999981046
412,2,0.2,0.0625,-35.0,-1,1.0,0.6083999999998468
413,2,0.2,0.25,35.0,1,1.0,0.26110099999982594
414,2,0.2,0.0625,-35.0,-1,1.0,0.27070099999991726
415,2,0.2,0.0,35.0,1,1.0,1.584500000000162
416,2,0.2,0.0,-35.0,-1,1.0,4.721900999999889
417,2,0.2,0.125,-35.0,-1,1.0,3.4118999999998323
418,2,0.2,0.0,35.0,-1,0.0,0.8450009999999111
419,2,0.2,0.0,35.0,1,1.0,0.3220010000000002
420,2,0.2,0.0625,-35.0,-1,1.0,0.34789999999998145
421,2,0.2,0.125,35.0,1,1.0,0.37220000000002074
422,2,0.2,0.25,35.0,1,1.0,0.2310010000001057
423,2,0.2,0.0,-35.0,-1,1.0,1.8558009999999285
424,2,0.2,0.25,35.0,1,1.0,0.28130099999975755
425,2,0.2,0.0,35.0,1,1.0,0.6325009999998201
426,2,0.2,1.0,35.0,1,1.0,0.22910099999990052
427,2,0.2,0.0,35.0,-1,0.0,0.27270100000009734
428,2,0.2,0.25,35.0,1,1.0,0.258199999999988
429,2,0.2,0.125,35.0,1,1.0,0.27630100000010316
430,2,0.2,0.125,35.0,1,1.0,0.265201000000161
431,2,0.2,0.0625,35.0,1,1.0,0.41650000000004184
432,2,0.2,0.0625,35.0,1,1.0,0.5792010000000118
433,2,0.2,0.25,35.0,1,1.0,0.3365999999998621
434,2,0.8,1.0,-35.0,-1,1.0,0.19420100000002094
435,2,0.8,0.25,-35.0,-1,1.0,0.2236009999999169
436,2,0.8,0.125,-35.0,-1,1.0,0.2953010000001086
437,2,0.8,1.0,-35.0,-1,1.0,0.24040100000001985
438,2,0.8,0.25,-35.0,-1,1.0,0.33130000000005566
439,2,0.8,0.125,-35.0,-1,1.0,0.25070000000005166
440,2,0.8,0.25,-35.0,-1,1.0,0.2923009999999522
441,2,0.8,1.0,-35.0,-1,1.0,0.1974009999998998
442,2,0.8,0.125,35.0,1,1.0,0.33330099999989216
443,2,0.8,0.0625,-35.0,-1,1.0,0.3043999999999869
444,2,0.8,0.0625,-35.0,-1,1.0,0.22460100000012062
445,2,0.8,1.0,-35.0,-1,1.0,0.20440000000007785
446,2,0.8,1.0,-35.0,-1,1.0,0.17039999999997235
447,2,0.8,0.125,-35.0,-1,1.0,0.22460000000000946
448,2,0.8,1.0,35.0,1,1.0,0.2674000000001797
449,2,0.8,0.0,35.0,-1,0.0,0.4915009999997437
450,2,0.8,0.25,35.0,1,1.0,0.30150099999991653
451,2,0.8,0.0625,-35.0,-1,1.0,0.24509999999986576
452,2,0.8,1.0,-35.0,-1,1.0,0.17350099999998747
453,2,0.8,1.0,-35.0,-1,1.0,0.215300999999954
454,2,0.8,0.0625,-35.0,-1,1.0,0.8026010000000952
455,2,0.8,0.25,-35.0,-1,1.0,0.30870100000015555
456,2,0.8,0.125,-35.0,-1,1.0,0.21280099999989943
457,2,0.8,0.125,-35.0,-1,1.0,0.23559999999997672
458,2,0.8,0.0625,35.0,1,1.0,0.37459999999987303
459,2,0.8,0.25,35.0,1,1.0,0.29579999999987194
460,2,0.8,0.0,-35.0,-1,1.0,3.873601000000008
461,2,0.8,0.25,-35.0,-1,1.0,0.1091999999998734
462,2,0.8,1.0,-35.0,-1,1.0,0.20650000000000546
463,2,0.8,0.0,-35.0,1,0.0,0.5663009999998394
464,2,0.8,0.125,-35.0,-1,1.0,0.21270099999992453
465,2,0.8,0.125,-35.0,-1,1.0,0.5031010000000151
466,2,0.8,0.125,35.0,1,1.0,0.4364010000001599
467,2,0.8,0.25,-35.0,-1,1.0,0.30660100000000057
468,2,0.8,0.25,-35.0,-1,1.0,0.18080100000020138
469,2,0.8,0.0625,35.0,1,1.0,0.3300010000000384
470,2,0.8,0.25,-35.0,-1,1.0,0.38400000000001455
471,2,0.8,0.0625,-35.0,-1,1.0,0.31700099999989106
472,2,0.8,1.0,-35.0,-1,1.0,0.20250099999975646
473,2,0.8,0.0,-35.0,-1,1.0,4.143901000000142
474,2,0.8,0.25,-35.0,-1,1.0,0.19590100000004895
475,2,0.8,0.0,-35.0,-1,1.0,0.22410100000001876
476,2,0.8,0.0,35.0,1,1.0,0.37100100000020575
477,2,0.8,1.0,-35.0,-1,1.0,0.19100000000003092
478,2,0.8,1.0,-35.0,-1,1.0,0.20870000000059008
479,2,0.2,0.0,35.0,-1,0.0,0.2612010000002556
480,2,0.2,0.25,35.0,1,1.0,0.29240100000015445
481,2,0.2,0.125,35.0,1,1.0,0.2781010000007882
482,2,0.2,0.0625,35.0,1,1.0,0.35210100000040256
483,2,0.2,1.0,35.0,1,1.0,0.27160000000048967
484,2,0.2,0.0,-35.0,1,0.0,3.499101000000337
485,2,0.2,0.0,35.0,-1,0.0,0.4885010000002694
486,2,0.2,0.25,35.0,1,1.0,0.2543000000000575
487,2,0.2,0.25,35.0,1,1.0,0.5421000000001186
488,2,0.2,0.0625,35.0,1,1.0,0.31310000000030414
489,2,0.2,0.25,35.0,1,1.0,0.31890100000009625
490,2,0.2,0.0625,-35.0,-1,1.0,0.25420000000030996
491,2,0.2,0.125,35.0,1,1.0,0.21920100000033926
492,2,0.2,0.25,35.0,1,1.0,0.2832010000001901
493,2,0.2,0.125,35.0,1,1.0,0.3093000000003485
494,2,0.2,0.25,-35.0,-1,1.0,0.2173000000002503
495,2,0.2,0.125,35.0,1,1.0,0.3061999999999898
496,2,0.2,0.25,-35.0,-1,1.0,0.44210100000009334
497,2,0.2,0.25,35.0,1,1.0,0.2763009999998758
498,2,0.2,0.0,35.0,1,1.0,0.2903010000004542
499,2,0.2,1.0,35.0,1,1.0,0.20320100000026287
500,2,0.2,1.0,-35.0,-1,1.0,0.20920100000012098
501,2,0.2,0.125,35.0,1,1.0,1.6403000000004795
502,2,0.2,0.125,35.0,1,1.0,0.3414010000001326
503,2,0.2,0.0625,-35.0,-1,1.0,0.457201000000623
504,2,0.2,0.0,35.0,-1,0.0,4.051501000000371
505,2,0.2,1.0,35.0,1,1.0,0.2840009999999893
506,2,0.2,0.0,-35.0,1,0.0,0.36300100000016755
507,2,0.2,1.0,35.0,1,1.0,0.27759999999989304
508,2,0.2,1.0,-35.0,-1,1.0,0.2240010000004986
509,2,0.2,1.0,35.0,1,1.0,5.304601000000275
510,2,0.2,1.0,35.0,1,1.0,0.4815009999997528
511,2,0.2,0.0625,35.0,1,1.0,6.964800000000196
512,2,0.2,0.0,-35.0,-1,1.0,1.4956000000006497
513,2,0.2,0.0625,-35.0,-1,1.0,0.5385009999999966
514,2,0.2,0.0625,35.0,1,1.0,2.7018010000001595
515,2,0.2,1.0,35.0,1,1.0,14.868700000000445
516,2,0.2,0.0625,35.0,1,1.0,40.89040000000023
517,2,0.2,1.0,35.0,1,1.0,26.95360000000028
518,2,0.2,0.125,35.0,-1,0.0,13.799101000000064
519,2,0.2,1.0,35.0,1,1.0,0.41460100000040256
520,2,0.2,0.25,35.0,1,1.0,0.5322009999999864
521,2,0.2,0.25,35.0,1,1.0,0.3983000000002903
522,2,0.2,0.25,35.0,1,1.0,0.49520100000063394
523,2,0.2,0.125,35.0,1,1.0,0.7752009999999245
524,2,0.2,0.0625,35.0,1,1.0,0.47180100000014136
525,2,0.2,0.125,35.0,1,1.0,0.38220099999989543
526,2,0.2,0.125,35.0,1,1.0,0.37530000000015207
527,2,0.2,0.0625,35.0,1,1.0,0.5056000000004133
528,2,0.2,0.0,35.0,-1,0.0,5.147300000000087
529,2,0.2,0.0625,-35.0,-1,1.0,0.5825010000003203
530,2,0.2,0.125,35.0,1,1.0,0.3544010000000526
531,2,0.2,0.0,35.0,-1,0.0,0.6626999999998588
532,2,0.2,0.25,35.0,1,1.0,0.34020100000043385
533,2,0.2,0.125,35.0,1,1.0,1.826100000000224
534,2,0.2,0.25,35.0,1,1.0,0.34340100000008533
535,2,0.2,0.125,35.0,1,1.0,0.3229010000004564
536,2,0.2,0.125,35.0,1,1.0,0.2935010000001057
537,2,0.2,1.0,35.0,1,1.0,0.25980100000015227
538,2,0.2,1.0,35.0,1,1.0,0.2895010000002003
539,2,0.2,0.25,-35.0,-1,1.0,0.23680000000013024
540,2,0.2,1.0,35.0,1,1.0,0.255500000000211
541,2,0.2,0.0625,35.0,1,1.0,3.5502000000001317
542,2,0.2,0.0,35.0,-1,0.0,0.5010000000002037
543,2,0.2,0.25,35.0,1,1.0,0.3073010000002796
544,2,0.2,0.0,35.0,1,1.0,2.754501000000346
545,2,0.8,0.125,35.0,1,1.0,0.32080000000041764
546,2,0.8,0.0,35.0,1,1.0,0.33170100000052116
547,2,0.8,0.125,-35.0,-1,1.0,0.34770100000059756
548,2,0.8,0.0,35.0,1,1.0,3.8797010000002956
549,2,0.8,0.0,-35.0,1,0.0,0.4277999999999338
550,2,0.8,0.0,-35.0,1,0.0,0.4105000000004111
551,2,0.8,1.0,-35.0,-1,1.0,0.20800000000008367
552,2,0.8,1.0,-35.0,-1,1.0,0.13700100000005477
553,2,0.8,1.0,-35.0,-1,1.0,0.2049010000000635
554,2,0.8,0.25,-35.0,-1,1.0,0.27280100000007224
555,2,0.8,0.125,-35.0,-1,1.0,0.2051010000000133
556,2,0.8,0.0,-35.0,-1,1.0,4.542801000000509
557,2,0.8,0.0,35.0,1,1.0,1.902201000000332
558,2,0.8,0.0,35.0,-1,0.0,0.26190100000030725
559,2,0.8,0.0625,-35.0,-1,1.0,0.2759000000000924
560,2,0.8,0.125,-35.0,-1,1.0,0.2563010000003487
561,2,0.8,1.0,35.0,1,1.0,0.27580100000022867
562,2,0.8,1.0,-35.0,-1,1.0,0.21320100000048114
563,2,0.8,0.125,-35.0,1,0.0,0.24600099999997838
564,2,0.8,1.0,-35.0,-1,1.0,0.18320100000028106
565,2,0.8,0.25,-35.0,-1,1.0,0.2129000000004453
566,2,0.8,0.0,-35.0,1,0.0,0.3341000000000349
567,2,0.8,0.0625,-35.0,-1,1.0,0.2632010000002083
568,2,0.8,1.0,35.0,1,1.0,0.205000000000382
569,2,0.8,0.0625,35.0,1,1.0,0.3267009999999573
570,2,0.8,0.0,-35.0,1,0.0,0.2795000000000982
571,2,0.8,0.125,-35.0,1,0.0,0.38340000000016516
572,2,0.8,1.0,-35.0,-1,1.0,0.25210100000003877
573,2,0.8,0.25,-35.0,-1,1.0,0.21710100000018429
574,2,0.8,1.0,35.0,1,1.0,0.23520100000041566
575,2,0.8,1.0,-35.0,-1,1.0,0.19410000000016225
576,2,0.8,0.125,35.0,1,1.0,0.3192010000002483
577,2,0.8,1.0,-35.0,-1,1.0,0.21090100000037637
578,2,0.8,0.125,-35.0,-1,1.0,0.3142010000001392
579,2,0.8,1.0,-35.0,-1,1.0,0.2112000000001899
580,2,0.8,0.125,-35.0,-1,1.0,0.22300100000029488
581,2,0.8,0.0625,-35.0,-1,1.0,0.2613010000000031
582,2,0.8,0.0,35.0,-1,0.0,0.2832010000001901
583,2,0.8,0.0,-35.0,1,0.0,2.4380009999999857
584,2,0.8,0.25,-35.0,-1,1.0,0.23930100000052335
585,2,0.8,0.25,35.0,1,1.0,0.3315010000001166
586,2,0.8,0.0625,-35.0,-1,1.0,0.9445010000004004
587,2,0.8,1.0,-35.0,-1,1.0,0.12840100000039456
588,2,0.8,0.125,35.0,1,1.0,0.5353010000003451
589,2,0.8,0.25,-35.0,-1,1.0,0.2754000000004453
590,2,0.8,1.0,-35.0,-1,1.0,0.20280100000036327
591,2,0.8,0.125,-35.0,-1,1.0,2.302400999999918
592,2,0.8,0.125,-35.0,-1,1.0,0.22550000000046566
593,2,0.8,0.25,-35.0,-1,1.0,0.2124010000002272
594,2,0.8,0.125,-35.0,-1,1.0,0.2310010000001057
595,2,0.8,1.0,-35.0,-1,1.0,0.21590000000060172
596,2,0.8,0.0625,-35.0,-1,1.0,0.2878000000000611
597,2,0.8,0.25,-35.0,-1,1.0,0.22950100000025486
598,2,0.8,0.125,-35.0,-1,1.0,0.5725000000002183
599,2,0.8,0.0,35.0,-1,0.0,2.7096010000004753
600,2,0.8,0.0,-35.0,1,0.0,3.3236010000000533
601,2,0.8,1.0,-35.0,-1,1.0,0.2001010000003589
602,2,0.8,1.0,-35.0,-1,1.0,0.22570000000041546
603,2,0.8,0.125,-35.0,-1,1.0,0.4368010000002869
604,2,0.8,0.125,-35.0,-1,1.0,0.2496000000001004
605,2,0.8,0.125,-35.0,-1,1.0,0.2504010000006929
606,2,0.8,0.25,-35.0,-1,1.0,0.20610100000067177
607,2,0.8,0.125,-35.0,-1,1.0,0.21730100000013408
608,2,0.8,0.125,-35.0,-1,1.0,0.5173000000004322
609,2,0.8,0.0,-35.0,-1,1.0,0.14080000000058135
610,2,0.8,0.125,35.0,1,1.0,0.4418000000005122
611,2,0.8,0.0,-35.0,-1,1.0,1.7842010000003938
612,2,0.8,0.0,-35.0,1,0.0,2.366801000000123
613,2,0.8,0.0625,35.0,1,1.0,0.2778000000002976
614,2,0.8,0.25,35.0,1,1.0,0.17290100000036546
615,2,0.8,0.25,-35.0,-1,1.0,0.49800100000038583
616,2,0.8,0.0,-35.0,1,0.0,0.5689000000002125
617,2,0.8,0.0,35.0,1,1.0,0.46820000000025175
618,2,0.8,0.125,-35.0,-1,1.0,0.2569000000003143
619,2,0.8,0.125,35.0,1,1.0,0.3449010000003909
620,2,0.8,0.0625,-35.0,-1,1.0,0.5628999999998996
621,2,0.8,0.125,35.0,1,1.0,0.2885000000001128
622,2,0.8,1.0,-35.0,-1,1.0,0.2031000000001768
623,2,0.8,0.125,35.0,1,1.0,0.36200100000041857
624,2,0.2,0.25,35.0,1,1.0,0.29200100000025486
625,2,0.2,0.125,35.0,1,1.0,0.2656010000000606
626,2,0.2,0.0625,-35.0,-1,1.0,3.361001000000215
627,2,0.2,0.0,35.0,1,1.0,0.47590100000024904
628,2,0.2,0.25,-35.0,-1,1.0,0.2215000000001055
629,2,0.2,0.0,-35.0,-1,1.0,4.902601000000232
630,2,0.2,0.0,35.0,1,1.0,0.37690100000008897
631,2,0.2,0.125,-35.0,-1,1.0,0.19290100000034727
632,2,0.2,1.0,35.0,1,1.0,0.388101000000006
633,2,0.2,0.125,35.0,1,1.0,0.30650100000002567
634,2,0.2,0.125,-35.0,-1,1.0,0.21810099999993326
635,2,0.2,0.25,-35.0,-1,1.0,0.24000100000012026
636,2,0.2,0.0625,35.0,1,1.0,1.4812010000000555
637,2,0.2,0.0,-35.0,1,0.0,5.113401000000067
638,2,0.2,0.125,35.0,1,1.0,0.3502010000001974
639,2,0.2,0.125,-35.0,-1,1.0,0.24430100000017774
640,2,0.2,1.0,-35.0,-1,1.0,0.21030000000018845
641,2,0.2,0.125,-35.0,-1,1.0,0.6873999999997977
642,2,0.2,0.0625,-35.0,-1,1.0,0.2780000000002474
643,2,0.2,0.0,35.0,1,1.0,0.5176010000000133
644,2,0.2,1.0,35.0,1,1.0,0.37440100000048915
645,2,0.2,0.0,35.0,1,1.0,0.3579000000004271
646,2,0.2,0.0625,-35.0,1,0.0,0.34840100000019447
647,2,0.2,0.25,35.0,-1,0.0,0.1046000000001186
648,2,0.2,0.0625,35.0,1,1.0,0.34639999999990323
649,2,0.2,0.0625,-35.0,-1,1.0,0.2948010000004615
650,2,0.2,1.0,35.0,1,1.0,0.6565009999999347
651,2,0.2,1.0,35.0,1,1.0,0.6283000000003085
652,2,0.8,0.0625,-35.0,-1,1.0,3.3499010000000453
653,2,0.8,0.25,-35.0,-1,1.0,0.2854010000000926
654,2,0.8,0.0,-35.0,-1,1.0,8.025500000000648
655,2,0.8,0.0625,-35.0,1,0.0,0.19570100000009916
656,2,0.8,0.125,-35.0,-1,1.0,0.375
657,2,0.8,1.0,-35.0,-1,1.0,0.22580100000004677
658,2,0.8,0.25,-35.0,-1,1.0,0.145701000000372
659,2,0.8,0.0,-35.0,-1,1.0,5.399700000000394
660,2,0.8,0.0,-35.0,-1,1.0,1.3277000000002772
661,2,0.8,0.0625,-35.0,-1,1.0,0.28650100000004386
662,2,0.8,0.25,35.0,1,1.0,0.2612000000003718
663,2,0.8,0.0625,35.0,1,1.0,0.3433010000003378
664,2,0.8,0.0625,-35.0,-1,1.0,0.6177999999999884
665,2,0.8,0.125,35.0,1,1.0,0.4101000000005115
666,2,0.8,1.0,-35.0,-1,1.0,0.33170100000052116
667,2,0.8,1.0,-35.0,-1,1.0,0.20390100000031453
668,2,0.8,0.0,35.0,1,1.0,0.40590000000020154
669,2,0.8,0.0625,35.0,-1,0.0,5.227400000000216
670,2,0.8,0.0625,-35.0,-1,1.0,0.2794010000002345
671,2,0.8,0.0625,35.0,1,1.0,0.30440100000032544
672,2,0.8,1.0,35.0,1,1.0,0.3460000000004584
673,2,0.8,0.0,-35.0,1,0.0,0.35130100000014863
674,2,0.8,0.0,35.0,1,1.0,5.843900000000303
675,2,0.8,0.25,-35.0,-1,1.0,0.27830100000028324
676,2,0.8,0.0,-35.0,1,0.0,2.676101000000017
677,2,0.8,0.0625,-35.0,1,0.0,0.4021010000001297
678,2,0.8,1.0,35.0,1,1.0,0.2450000000003456
679,2,0.8,0.125,35.0,-1,0.0,0.13880100000005768
680,2,0.8,0.125,35.0,1,1.0,0.31590000000051077
681,2,0.8,0.25,-35.0,-1,1.0,0.2624010000004091
682,2,0.8,0.0625,35.0,1,1.0,0.4422010000002956
683,2,0.8,0.0,-35.0,1,0.0,10.945800999999847
684,2,0.8,0.25,-35.0,-1,1.0,0.27830100000028324
685,2,0.8,0.0,-35.0,1,0.0,5.433101000000079
686,2,0.8,1.0,-35.0,-1,1.0,0.23240100000020902
687,2,0.8,0.125,35.0,1,1.0,0.43670100000053935
688,2,0.8,0.25,-35.0,-1,1.0,2.0914010000001326
689,2,0.8,0.0625,-35.0,-1,1.0,0.27680099999997765
690,2,0.8,0.0,35.0,1,1.0,0.445100999999795
691,2,0.8,0.0,-35.0,1,0.0,2.2468999999996413
692,2,0.8,0.25,-35.0,-1,1.0,0.20449999999982538
693,2,0.8,1.0,-35.0,-1,1.0,0.2506010000001879
694,2,0.8,0.0,35.0,1,1.0,15.651601000000483
695,2,0.8,0.125,35.0,1,1.0,0.6012010000004011
696,2,0.8,1.0,-35.0,-1,1.0,0.28860100000019884
697,2,0.8,1.0,35.0,1,1.0,0.2780000000002474
698,2,0.8,0.125,-35.0,-1,1.0,0.3919010000004164
699,2,0.8,0.125,-35.0,-1,1.0,0.2886010000006536
700,2,0.8,0.0,-35.0,-1,1.0,0.532600999999886
701,2,0.8,1.0,-35.0,-1,1.0,0.24170000000049185
702,2,0.8,0.0,-35.0,-1,1.0,5.409701000000496
703,2,0.8,0.125,35.0,1,1.0,0.255301000000145
704,2,0.8,1.0,35.0,1,1.0,0.23770100000001548
705,2,0.8,1.0,-35.0,-1,1.0,0.22880000000077416
706,2,0.8,0.25,-35.0,-1,1.0,0.25580100000024686
707,2,0.2,0.25,35.0,1,1.0,0.2590010000003531
708,2,0.2,0.0,35.0,1,1.0,0.8777000000000044
709,2,0.2,0.125,35.0,1,1.0,0.2694000000001324
710,2,0.2,1.0,35.0,1,1.0,0.2668010000002141
711,2,0.2,0.0,-35.0,1,0.0,2.8893010000001595
712,2,0.2,0.125,35.0,1,1.0,0.2859009999997397
713,2,0.2,0.25,35.0,1,1.0,0.23990100000082748
714,2,0.2,0.25,35.0,1,1.0,0.26270100000010643
715,2,0.2,0.0,35.0,1,1.0,0.4898000000002867
716,2,0.2,0.0625,35.0,1,1.0,0.11460100000022067
717,2,0.2,0.0625,35.0,1,1.0,0.2567010000002483
718,2,0.2,0.125,35.0,1,1.0,0.35900100000026214
719,2,0.2,0.0,35.0,1,1.0,0.2735000000002401
720,2,0.2,0.0625,-35.0,-1,1.0,0.45870000000013533
721,2,0.2,1.0,35.0,1,1.0,0.29040000000031796
722,2,0.2,0.0,35.0,-1,0.0,0.4530000000004293
723,2,0.2,0.0625,35.0,1,1.0,1.247400000000198
724,2,0.2,0.25,35.0,1,1.0,0.2530010000000402
725,2,0.2,0.125,-35.0,-1,1.0,0.29410100000040984
726,2,0.2,0.0,-35.0,1,0.0,3.479000000000269
727,2,0.2,1.0,35.0,1,1.0,0.2643009999997048
728,2,0.2,0.125,35.0,1,1.0,0.26769999999987704
729,2,0.2,0.0625,35.0,1,1.0,0.29460000000017317
730,2,0.2,0.125,35.0,1,1.0,0.5136010000005626
731,2,0.2,0.0625,35.0,1,1.0,0.298200000000179
732,2,0.2,0.0625,-35.0,-1,1.0,0.5882000000001426
733,2,0.2,0.0,35.0,1,1.0,7.308301000000029
734,2,0.2,0.0,35.0,1,1.0,0.2546000000006643
735,2,0.2,0.125,35.0,1,1.0,0.3087000000000444
736,2,0.2,0.125,-35.0,-1,1.0,0.8234010000001035
737,2,0.2,0.125,-35.0,-1,1.0,1.5890010000002803
738,2,0.2,0.125,35.0,1,1.0,0.6475000000000364
739,2,0.2,0.125,35.0,1,1.0,0.40910100000019156
740,2,0.2,0.25,-35.0,-1,1.0,0.2314010000000053
741,2,0.2,0.25,35.0,1,1.0,0.4664010000001326
742,2,0.2,0.0,35.0,1,1.0,0.3635010000002694
743,2,0.2,0.25,35.0,1,1.0,0.452900000000227
744,2,0.2,0.0,35.0,-1,0.0,7.303601000000526
745,2,0.2,0.25,35.0,1,1.0,0.34650100000044404
746,2,0.2,0.125,-35.0,-1,1.0,1.0366010000002461
747,2,0.2,0.125,35.0,1,1.0,0.34590100000059465
748,2,0.2,0.125,35.0,1,1.0,0.4835000000002765
749,2,0.2,0.25,-35.0,-1,1.0,0.3545000000003711
750,2,0.2,1.0,35.0,1,1.0,0.3571010000005117
751,2,0.2,0.0625,-35.0,-1,1.0,0.519600999999966
752,2,0.2,1.0,-35.0,-1,1.0,0.2607010000006085
753,2,0.2,0.25,35.0,1,1.0,0.2276000000001659
754,2,0.2,0.25,35.0,1,1.0,0.3074010000000271
755,2,0.2,0.0625,35.0,1,1.0,0.4019009999997252
756,2,0.2,0.0625,35.0,1,1.0,0.3674999999998363
757,2,0.2,0.0625,35.0,1,1.0,0.33120099999996455
758,2,0.2,0.125,35.0,1,1.0,0.31110000000035143
759,2,0.2,0.125,-35.0,1,0.0,0.3914010000003145
760,2,0.2,0.125,35.0,1,1.0,0.3712000000000444
761,2,0.2,1.0,35.0,1,1.0,0.2648010000002614
762,2,0.2,0.0625,35.0,1,1.0,0.42150000000037835
763,2,0.2,0.0,35.0,1,1.0,3.6018010000002505
764,2,0.2,0.0625,35.0,1,1.0,0.26179999999976644
765,2,0.2,0.125,35.0,1,1.0,0.2874010000000453
766,2,0.2,0.0,35.0,1,1.0,7.562000000000353
767,2,0.2,0.0,35.0,1,1.0,3.5572010000000773
768,2,0.2,0.125,35.0,1,1.0,1.7658010000004651
769,2,0.2,0.25,35.0,1,1.0,0.5309999999999491
770,2,0.2,0.0625,35.0,1,1.0,0.2925000000000182
771,2,0.2,0.0,35.0,1,1.0,4.132100000000264
772,2,0.2,0.25,35.0,1,1.0,0.5297000000005028
773,2,0.2,0.125,35.0,1,1.0,0.48200100000030943
774,2,0.2,0.125,35.0,1,1.0,0.5164000000004307
775,2,0.2,0.25,35.0,1,1.0,1.974800000000414
776,2,0.2,0.0,35.0,1,1.0,0.5467000000003281
777,2,0.2,0.125,35.0,1,1.0,0.48580100000026505
778,2,0.2,0.25,35.0,1,1.0,0.2634010000001581
779,2,0.2,0.0,35.0,1,1.0,5.1702000000000226
780,2,0.2,0.125,35.0,1,1.0,0.3337010000000191
781,2,0.2,0.0,35.0,1,1.0,3.6132000000002336
782,2,0.2,0.25,35.0,1,1.0,4.26070000000027
783,2,0.2,0.25,35.0,1,1.0,0.46030000000018845
784,2,0.2,0.125,-35.0,-1,1.0,0.34440000000040527
785,2,0.2,0.0,-35.0,1,0.0,0.4823010000004615
786,2,0.2,0.0625,35.0,1,1.0,0.38120000000026266
787,2,0.2,0.0625,35.0,1,1.0,2.071400000000267
788,2,0.2,0.0,35.0,1,1.0,0.3116000000004533
789,2,0.2,0.0625,35.0,1,1.0,3.470201000000543
790,2,0.2,0.125,35.0,1,1.0,0.3684010000001763
791,2,0.2,0.25,35.0,1,1.0,0.24240000000008877
792,2,0.2,1.0,35.0,1,1.0,0.28210000000035507
793,2,0.2,0.25,35.0,1,1.0,0.36750000000029104
794,2,0.2,0.125,35.0,1,1.0,0.4025010000000293
795,2,0.2,0.25,35.0,1,1.0,2.2385010000002694
796,2,0.2,0.0,35.0,1,1.0,4.95910000000049
797,2,0.2,0.25,35.0,1,1.0,4.801601000000119
798,2,0.2,0.0,35.0,1,1.0,3.956301000000167
799,2,0.2,0.125,35.0,1,1.0,0.3866010000001552
800,2,0.2,0.0625,35.0,1,1.0,1.023200000000088
801,2,0.8,0.0,-35.0,1,0.0,3.488701000000219
802,2,0.8,0.0,-35.0,1,0.0,0.25010000000020227
803,2,0.8,0.25,-35.0,-1,1.0,0.23480000000017753
804,2,0.8,0.0625,35.0,1,1.0,1.600300999999945
805,2,0.8,1.0,-35.0,-1,1.0,0.21680100000003222
806,2,0.8,0.0625,-35.0,-1,1.0,0.51390100000026
807,2,0.8,0.0625,35.0,1,1.0,0.4988000000003012
808,2,0.8,0.125,-35.0,-1,1.0,0.3173010000004979
809,2,0.8,0.125,-35.0,-1,1.0,0.5108000000000175
810,2,0.8,0.0625,-35.0,-1,1.0,0.2711000000003878
811,2,0.8,0.25,-35.0,-1,1.0,0.2901000000001659
812,2,0.8,0.0,-35.0,-1,1.0,0.8943010000002687
813,2,0.8,0.125,35.0,1,1.0,1.0929009999999835
814,2,0.8,0.125,-35.0,-1,1.0,0.29470100000025923
815,2,0.8,0.0625,-35.0,-1,1.0,0.30690100000038
816,2,0.8,1.0,-35.0,-1,1.0,0.44150000000036016
817,2,0.8,0.25,35.0,1,1.0,0.37700100000029124
818,2,0.8,0.125,-35.0,-1,1.0,0.4650010000000293
819,2,0.8,0.25,-35.0,-1,1.0,0.2490010000001348
820,2,0.8,0.0,35.0,1,1.0,0.4952010000001792
821,2,0.8,1.0,-35.0,-1,1.0,0.3504010000001472
822,2,0.8,0.0,35.0,1,1.0,0.36910000000034415
823,2,0.8,0.0,-35.0,-1,1.0,0.28110100000003513
824,2,0.8,1.0,-35.0,-1,1.0,0.21900000000005093
825,2,0.8,0.0625,-35.0,-1,1.0,0.3481010000000424
826,2,0.8,0.0625,-35.0,-1,1.0,0.4657010000005357
827,2,0.8,0.0,-35.0,1,0.0,0.8022010000004229
828,2,0.8,1.0,-35.0,-1,1.0,0.2294010000000526
829,2,0.8,0.0625,35.0,1,1.0,1.2397000000005391
830,2,0.8,0.0,35.0,1,1.0,0.3063010000000759
831,2,0.8,0.125,-35.0,-1,1.0,0.41640000000006694
832,2,0.8,0.0625,35.0,1,1.0,0.30629999999973734
833,2,0.8,0.25,-35.0,-1,1.0,1.2993000000001302
834,2,0.8,0.0625,-35.0,-1,1.0,0.41330000000061773
835,2,0.8,1.0,-35.0,-1,1.0,0.24530000000049768
836,2,0.8,0.0,-35.0,1,0.0,7.846801000000141
837,2,0.8,0.0625,-35.0,-1,1.0,0.27940100000068924
838,2,0.8,0.0625,-35.0,-1,1.0,0.33730100000002494
839,2,0.8,1.0,35.0,1,1.0,6.528400000000147
840,2,0.8,0.0,-35.0,1,0.0,1.8374010000002272
841,2,0.8,1.0,-35.0,-1,1.0,0.24750000000040018
842,2,0.8,0.0,-35.0,1,0.0,0.7377010000004702
843,2,0.2,0.25,35.0,1,1.0,0.36450000000058935
844,2,0.2,0.25,35.0,1,1.0,0.43150000000059663
845,2,0.2,1.0,35.0,1,1.0,0.2668010000002141
846,2,0.2,0.25,35.0,1,1.0,0.3079999999999927
847,2,0.2,1.0,35.0,1,1.0,0.33460000000059154
848,2,0.2,0.125,35.0,1,1.0,0.4183010000001559
849,2,0.2,0.0,-35.0,-1,1.0,3.1096000000002277
850,2,0.2,0.125,35.0,1,1.0,4.725100999999995
851,2,0.2,0.125,35.0,1,1.0,3.2976010000002134
852,2,0.2,0.0625,35.0,1,1.0,1.0989010000002963
853,2,0.2,1.0,35.0,1,1.0,0.2657000000003791
854,2,0.2,0.0,35.0,1,1.0,3.3627000000001317
855,2,0.2,1.0,-35.0,-1,1.0,0.4558010000005197
856,2,0.2,0.125,35.0,1,1.0,1.7493010000002869
857,2,0.2,0.125,35.0,1,1.0,2.336999999999989
858,2,0.2,0.0,35.0,1,1.0,6.226401000000351
859,2,0.2,0.25,35.0,1,1.0,0.4679010000004382
860,2,0.2,0.25,35.0,1,1.0,0.3998999999998887
861,2,0.2,0.0625,35.0,1,1.0,2.4559000000003834
862,2,0.2,0.0625,35.0,1,1.0,0.2369010000002163
863,2,0.2,1.0,35.0,1,1.0,0.7813010000004397
864,2,0.2,0.0625,35.0,1,1.0,2.863900000000285
865,2,0.8,0.25,-35.0,-1,1.0,0.3603000000002794
866,2,0.8,0.0,-35.0,1,0.0,1.241001000000324
867,2,0.8,0.0625,-35.0,-1,1.0,0.6551000000004024
868,2,0.8,1.0,-35.0,-1,1.0,0.2309000000004744
869,2,0.8,0.125,-35.0,-1,1.0,0.47060099999998783
870,2,0.8,0.0,-35.0,1,0.0,7.551000999999815
871,2,0.8,0.0,-35.0,1,0.0,11.745300000000043
872,2,0.8,0.125,-35.0,-1,1.0,0.5584009999997761
873,2,0.8,1.0,-35.0,-1,1.0,0.3354000000003907
874,2,0.8,0.0625,35.0,1,1.0,5.405201000000488
875,2,0.8,0.125,-35.0,-1,1.0,7.369100999999773
876,2,0.8,0.125,-35.0,-1,1.0,0.7824009999999362
877,2,0.8,0.0,-35.0,1,0.0,6.650300000000243
878,2,0.8,0.0625,-35.0,1,0.0,43.092700000000605
879,2,0.8,0.0625,-35.0,-1,1.0,0.43949999999949796
880,2,0.8,0.0625,35.0,1,1.0,11.58730100000048
881,2,0.8,0.125,-35.0,-1,1.0,7.1197000000001935
882,2,0.8,0.25,-35.0,-1,1.0,0.40470099999947706
883,2,0.8,0.125,-35.0,-1,1.0,0.3300009999993563
884,2,0.8,0.0,-35.0,1,0.0,7.17160100000001
885,2,0.8,0.25,-35.0,-1,1.0,0.4947999999994863
886,2,0.8,1.0,-35.0,-1,1.0,0.3718009999993228
887,2,0.8,0.0625,-35.0,-1,1.0,7.2608000000000175
888,2,0.8,1.0,-35.0,-1,1.0,0.15240100000028178
889,2,0.8,0.25,-35.0,-1,1.0,0.7984009999991031
890,2,0.8,0.25,35.0,1,1.0,0.6390010000004622
891,2,0.8,1.0,-35.0,1,0.0,1.8945009999997637
892,2,0.8,0.0625,-35.0,1,0.0,1.2059999999992215
893,2,0.8,0.0,-35.0,1,0.0,23.689900999998827
894,2,0.8,0.25,-35.0,-1,1.0,15.503501000000142
895,2,0.8,1.0,35.0,1,1.0,0.3674009999995178
896,2,0.8,0.0625,-35.0,0,0.0,60.02419999999984
897,2,0.8,1.0,-35.0,0,0.0,60.04239999999936
898,2,0.8,0.0,-35.0,1,0.0,5.17370099999971
899,2,0.8,0.0625,35.0,1,1.0,0.3987009999991642
900,2,0.8,0.25,-35.0,-1,1.0,0.5641999999998006
901,2,0.8,0.0,35.0,1,1.0,6.483800999999403
902,2,0.8,0.0625,-35.0,-1,1.0,0.5479999999997744
903,2,0.8,1.0,-35.0,-1,1.0,0.3729009999997288
904,2,0.8,0.25,-35.0,-1,1.0,14.301400999999714
905,2,0.8,0.0625,-35.0,0,0.0,60.02720099999988
906,2,0.8,1.0,-35.0,0,0.0,60.03010099999938
907,2,0.8,0.25,35.0,1,1.0,24.80840100000023
908,2,0.8,0.125,35.0,1,1.0,0.39259999999922
909,2,0.8,0.25,-35.0,-1,1.0,4.173600000000079
910,2,0.8,1.0,-35.0,-1,1.0,0.2960009999997055
911,2,0.8,0.0,-35.0,1,0.0,40.570700000000215
912,2,0.8,0.125,-35.0,-1,1.0,0.46390100000007806
913,2,0.8,0.125,-35.0,-1,1.0,6.2005010000002585
914,2,0.8,0.0625,-35.0,0,0.0,60.02739999999994
915,2,0.8,1.0,-35.0,-1,1.0,0.3890000000001237
916,2,0.8,1.0,-35.0,-1,1.0,0.4258009999994101
917,2,0.8,0.0,-35.0,1,0.0,54.04440100000011
918,2,0.8,1.0,-35.0,-1,1.0,0.29729999999926804
919,2,0.8,0.0,-35.0,1,0.0,7.211199999998826
920,2,0.8,0.25,-35.0,-1,1.0,0.3046009999998205
921,2,0.8,1.0,-35.0,-1,1.0,0.39989999999943393
922,2,0.8,1.0,-35.0,-1,1.0,0.471400999999787
923,2,0.8,1.0,-35.0,-1,1.0,0.22080100000039238
924,2,0.8,0.125,-35.0,0,0.0,60.02490099999886
1,3,0.5,0.0625,-35.0,1,0.0,1.2668
2,3,0.5,1.0,35.0,1,1.0,0.2137009999999986
3,3,0.5,0.0625,35.0,1,1.0,0.38399999999999856
4,3,0.5,0.25,-35.0,-1,1.0,0.2024000000000008
5,3,0.5,1.0,-35.0,-1,1.0,0.1713999999999949
6,3,0.5,0.125,35.0,1,1.0,0.41669999999999874
7,3,0.5,0.0625,-35.0,-1,1.0,0.20520000000000493
8,3,0.5,0.0,-35.0,-1,1.0,0.11650099999999952
9,3,0.5,0.0,-35.0,-1,1.0,0.24930000000000518
10,3,0.5,0.125,35.0,1,1.0,0.38180100000000294
11,3,0.5,1.0,-35.0,-1,1.0,0.20960099999999926
12,3,0.5,0.0,-35.0,-1,1.0,0.1998000000000033
13,3,0.5,1.0,-35.0,-1,1.0,0.07739999999999725
14,3,0.5,0.0625,35.0,1,1.0,0.4201009999999954
15,3,0.5,0.125,35.0,-1,0.0,0.18380100000000255
16,3,0.5,0.0625,-35.0,-1,1.0,1.242001000000002
17,3,0.5,0.0,35.0,-1,0.0,0.19709999999999184
18,3,0.5,0.25,-35.0,-1,1.0,0.43970099999999945
19,3,0.5,1.0,-35.0,-1,1.0,0.20279999999999632
20,3,0.5,0.0625,-35.0,1,0.0,0.10840000000000316
21,3,0.5,0.0,-35.0,-1,1.0,0.23370099999999638
22,3,0.5,0.0,-35.0,-1,1.0,0.26200000000000045
23,3,0.5,1.0,35.0,1,1.0,0.28040099999998347
24,3,0.5,0.0,-35.0,-1,1.0,0.22169999999999845
25,3,0.5,0.0625,-35.0,1,0.0,0.48269999999999413
26,3,0.5,0.0,-35.0,-1,1.0,0.2717999999999847
27,3,0.5,0.0,35.0,1,1.0,0.4143009999999947
28,3,0.5,0.25,-35.0,-1,1.0,0.21010100000000875
29,3,0.5,0.0625,35.0,-1,0.0,0.17480000000000473
30,3,0.5,0.0625,35.0,1,1.0,0.3583009999999831
31,3,0.5,0.125,35.0,1,1.0,0.35840100000001485
32,3,0.5,0.25,35.0,1,1.0,0.23150100000000862
33,3,0.5,0.125,35.0,1,1.0,0.2636009999999942
34,3,0.5,0.125,35.0,-1,0.0,0.10589999999999122
35,3,0.5,0.0,35.0,1,1.0,0.40270000000001005
36,3,0.5,0.25,35.0,1,1.0,0.36080100000000925
37,3,0.5,0.0,-35.0,-1,1.0,0.22900099999998247
38,3,0.5,0.125,-35.0,-1,1.0,0.2805010000000152
39,3,0.5,0.0625,35.0,1,1.0,0.4405999999999892
40,3,0.5,0.0625,-35.0,-1,1.0,0.3432000000000244
41,3,0.5,0.0625,-35.0,-1,1.0,0.1747000000000014
42,3,0.5,0.25,35.0,1,1.0,0.29500099999998497
43,3,0.5,1.0,35.0,1,1.0,0.24910099999999602
44,3,0.5,0.125,35.0,-1,0.0,0.2622000000000071
45,3,0.5,1.0,-35.0,-1,1.0,0.17619999999999436
46,3,0.5,0.0625,-35.0,-1,1.0,0.2991999999999848
47,3,0.5,1.0,35.0,1,1.0,0.2761999999999887
48,3,0.5,1.0,35.0,1,1.0,0.2435000000000116
49,3,0.5,0.25,-35.0,-1,1.0,0.2222009999999841
50,3,0.5,0.0,-35.0,-1,1.0,0.2238010000000088
51,3,0.5,0.125,-35.0,-1,1.0,0.20190099999999234
52,3,0.5,1.0,35.0,1,1.0,0.2889009999999814
53,3,0.5,1.0,-35.0,-1,1.0,0.7976010000000144
54,3,0.5,0.25,-35.0,-1,1.0,0.31519999999997594
55,3,0.5,0.0625,35.0,-1,0.0,1.0466000000000122
56,3,0.5,0.0625,-35.0,-1,1.0,0.2933000000000163
57,3,0.5,1.0,35.0,1,1.0,0.3038999999999987
58,3,0.5,0.0625,-35.0,-1,1.0,0.2239009999999837
59,3,0.5,0.0625,35.0,-1,0.0,0.4836999999999989
60,3,0.5,0.0625,-35.0,-1,1.0,0.23349999999999227
61,3,0.5,0.0,35.0,-1,0.0,0.23220000000003438
62,3,0.5,0.125,-35.0,-1,1.0,0.21010100000000875
63,3,0.5,0.25,-35.0,-1,1.0,0.1920010000000616
64,3,0.5,0.25,35.0,1,1.0,0.3138010000000122
65,3,0.5,0.125,-35.0,-1,1.0,0.21410100000002785
66,3,0.5,0.0,35.0,-1,0.0,0.2048000000000343
67,3,0.5,0.0625,-35.0,-1,1.0,0.2620000000000573
68,3,0.5,0.25,-35.0,-1,1.0,0.2150010000000293
69,3,0.5,1.0,35.0,1,1.0,0.26580100000006723
70,3,0.5,1.0,-35.0,-1,1.0,0.16879999999997608
71,3,0.5,0.25,35.0,1,1.0,0.3007000000000062
72,3,0.5,0.25,35.0,1,1.0,0.20170000000001664
73,3,0.5,0.0625,-35.0,-1,1.0,0.5878999999999905
74,3,0.5,0.0,35.0,-1,0.0,0.2540000000000191
75,3,0.5,1.0,-35.0,-1,1.0,0.20470100000005687
76,3,0.5,0.0,-35.0,1,0.0,2.1723010000000045
77,3,0.5,0.0,35.0,-1,0.0,0.18880000000001473
78,3,0.5,0.125,-35.0,-1,1.0,0.226099999999974
79,3,0.5,0.0,-35.0,-1,1.0,0.19090099999999666
80,3,0.5,0.125,-35.0,-1,1.0,0.17950000000001864
81,3,0.5,1.0,-35.0,-1,1.0,0.08560099999999693
82,3,0.5,0.125,-35.0,-1,1.0,0.1938010000000645
83,3,0.5,0.125,-35.0,-1,1.0,0.1636999999999489
84,3,0.5,0.0625,35.0,1,1.0,0.476600000000019
85,3,0.5,0.25,35.0,1,1.0,0.3158999999999992
86,3,0.5,1.0,35.0,1,1.0,0.276800000000037
87,3,0.5,0.0,35.0,-1,0.0,0.22340000000002647
88,3,0.5,0.25,35.0,1,1.0,0.13299999999998136
89,3,0.5,1.0,35.0,1,1.0,0.24330000000003338
90,3,0.5,1.0,-35.0,-1,1.0,0.16850099999999202
91,3,0.2,0.125,35.0,-1,0.0,0.24029999999999063
92,3,0.2,0.0625,35.0,1,1.0,0.3185009999999693
93,3,0.2,1.0,35.0,1,1.0,0.23970100000002503
94,3,0.2,0.0625,35.0,1,1.0,0.3101010000000315
95,3,0.2,0.0,35.0,1,1.0,0.2661000000000513
96,3,0.2,0.0625,35.0,1,1.0,0.26539999999999964
97,3,0.2,0.0,-35.0,1,0.0,0.36870100000004413
98,3,0.2,0.125,35.0,1,1.0,0.3706010000000788
99,3,0.2,0.125,35.0,1,1.0,0.3001010000000406
100,3,0.2,0.0,35.0,1,1.0,0.6151010000000383
101,3,0.2,1.0,35.0,1,1.0,0.2679010000000517
102,3,0.2,0.25,35.0,1,1.0,0.3079010000000153
103,3,0.2,0.125,35.0,1,1.0,0.29829999999998336
104,3,0.2,0.0625,35.0,1,1.0,0.30620000000004666
105,3,0.2,0.125,35.0,1,1.0,0.2569000000000301
106,3,0.2,0.25,35.0,1,1.0,0.24450100000001385
107,3,0.2,1.0,35.0,1,1.0,0.2916010000000142
108,3,0.2,0.125,-35.0,-1,1.0,0.21649999999999636
109,3,0.2,0.25,35.0,1,1.0,0.14640000000002829
110,3,0.2,0.25,-35.0,1,0.0,0.3305010000000266
111,3,0.2,0.0,-35.0,1,0.0,0.10939999999999372
112,3,0.2,0.0625,35.0,1,1.0,0.32519999999999527
113,3,0.2,0.25,-35.0,-1,1.0,3.3437000000000126
114,3,0.2,0.25,35.0,1,1.0,0.4499000000000706
115,3,0.2,0.125,35.0,1,1.0,0.324799999999982
116,3,0.2,0.125,35.0,1,1.0,0.2907999999999902
117,3,0.2,1.0,35.0,1,1.0,0.26070099999992635
118,3,0.2,0.125,35.0,1,1.0,0.32330000000001746
119,3,0.2,0.0,-35.0,1,0.0,0.1792000000000371
120,3,0.2,0.25,35.0,1,1.0,0.2702000000000453
121,3,0.2,0.0625,35.0,1,1.0,0.26340000000004693
122,3,0.2,0.25,35.0,1,1.0,0.2475010000000566
123,3,0.2,1.0,-35.0,-1,1.0,0.3069000000000415
124,3,0.2,1.0,35.0,1,1.0,1.83400000000006
125,3,0.2,0.25,-35.0,-1,1.0,0.1792000000000371
126,3,0.2,0.25,35.0,1,1.0,0.31670100000008006
127,3,0.2,0.0,35.0,-1,0.0,0.22220099999992726
128,3,0.2,1.0,-35.0,-1,1.0,0.17600100000004204
129,3,0.2,0.0625,-35.0,-1,1.0,0.2537010000000919
130,3,0.2,0.0,35.0,-1,0.0,0.23920099999998
131,3,0.2,0.0625,-35.0,-1,1.0,0.2767999999999802
132,3,0.2,0.0625,35.0,-1,0.0,0.20040000000005875
133,3,0.2,0.0625,-35.0,-1,1.0,0.4414010000000417
134,3,0.2,0.125,35.0,1,1.0,0.5830010000000811
135,3,0.2,0.125,35.0,1,1.0,0.1566010000000233
136,3,0.2,1.0,35.0,1,1.0,0.2801000000000613
137,3,0.2,0.0625,35.0,-1,0.0,0.7185010000000602
138,3,0.2,0.0625,35.0,1,1.0,0.32270100000005186
139,3,0.2,0.125,35.0,1,1.0,0.31750099999999293
140,3,0.2,0.25,35.0,1,1.0,0.29060099999992417
141,3,0.2,0.0625,-35.0,-1,1.0,0.27070000000003347
142,3,0.2,0.25,35.0,1,1.0,0.2378999999999678
143,3,0.2,0.25,35.0,1,1.0,0.3177010000000564
144,3,0.2,0.125,35.0,1,1.0,0.29560000000003583
145,3,0.2,0.0625,-35.0,-1,1.0,0.19640100000003713
146,3,0.2,0.125,35.0,1,1.0,0.1955000000000382
147,3,0.2,0.25,35.0,1,1.0,0.279700000000048
148,3,0.2,0.0625,35.0,-1,0.0,0.22200099999997747
149,3,0.2,0.125,35.0,-1,0.0,0.2073000000001457
150,3,0.2,0.25,35.0,1,1.0,0.2919000000000551
151,3,0.2,0.25,35.0,1,1.0,0.21710000000007312
152,3,0.2,0.0625,35.0,1,1.0,0.23099999999999454
153,3,0.2,0.0625,35.0,1,1.0,0.16380099999992126
154,3,0.2,0.25,-35.0,-1,1.0,0.21550100000001748
155,3,0.2,0.125,-35.0,-1,1.0,0.22630000000003747
156,3,0.2,0.25,35.0,1,1.0,0.26520000000004984
157,3,0.2,0.125,-35.0,-1,1.0,0.22870000000000346
158,3,0.8,0.25,35.0,1,1.0,0.31570099999999
159,3,0.8,0.25,-35.0,-1,1.0,0.19680099999993672
160,3,0.8,0.0,-35.0,1,0.0,0.656900999999948
161,3,0.8,0.25,-35.0,-1,1.0,0.22070099999996273
162,3,0.8,0.25,35.0,1,1.0,0.2537999999999556
163,3,0.8,0.125,-35.0,-1,1.0,0.22460100000000693
164,3,0.8,0.125,-35.0,-1,1.0,0.17960100000004786
165,3,0.8,0.25,35.0,1,1.0,0.2699999999999818
166,3,0.8,0.25,-35.0,-1,1.0,0.21800100000007205
167,3,0.8,0.0,-35.0,-1,1.0,0.25260100000002694
168,3,0.8,0.25,35.0,1,1.0,0.2916010000000142
169,3,0.8,0.0625,35.0,1,1.0,0.16690000000005512
170,3,0.8,0.25,-35.0,-1,1.0,0.23030000000005657
171,3,0.8,0.0,-35.0,-1,1.0,0.21500099999991562
172,3,0.8,1.0,-35.0,-1,1.0,0.20140100000003258
173,3,0.8,0.125,-35.0,-1,1.0,0.16620100000000093
174,3,0.8,1.0,-35.0,-1,1.0,0.1889009999999871
175,3,0.8,0.25,-35.0,1,0.0,0.12930000000005748
176,3,0.8,0.125,-35.0,-1,1.0,0.22360100000003058
177,3,0.8,0.125,-35.0,-1,1.0,0.21670000000005984
178,3,0.8,0.25,-35.0,-1,1.0,0.22570100000007187
179,3,0.8,0.0625,-35.0,-1,1.0,0.20740100000011807
180,3,0.8,0.0,-35.0,-1,1.0,0.20300000000008822
181,3,0.8,1.0,-35.0,-1,1.0,0.18220000000007985
182,3,0.8,0.0625,-35.0,-1,1.0,0.33730000000014115
183,3,0.8,0.125,-35.0,-1,1.0,0.14610000000004675
184,3,0.8,1.0,-35.0,-1,1.0,0.1446010000000797
185,3,0.8,0.0,-35.0,-1,1.0,0.17170099999998456
186,3,0.8,0.25,35.0,1,1.0,0.41679999999996653
187,3,0.8,0.0625,-35.0,-1,1.0,0.25060100000007424
188,3,0.8,0.25,-35.0,-1,1.0,0.21830099999999675
189,3,0.8,0.125,-35.0,-1,1.0,0.23600100000010116
190,3,0.8,0.0625,35.0,1,1.0,0.39810099999999693
191,3,0.8,1.0,35.0,-1,0.0,0.11730000000011387
192,3,0.8,0.0625,-35.0,-1,1.0,0.18709999999998672
193,3,0.8,0.0625,-35.0,-1,1.0,0.31050100000004477
194,3,0.8,0.0625,-35.0,-1,1.0,0.27060000000005857
195,3,0.8,0.125,-35.0,-1,1.0,0.21880099999998492
196,3,0.8,1.0,-35.0,-1,1.0,0.15579999999999927
197,3,0.8,0.0,-35.0,-1,1.0,0.16350099999999657
198,3,0.8,0.25,-35.0,-1,1.0,0.20840099999998074
199,3,0.8,0.125,-35.0,-1,1.0,0.21670099999994363
200,3,0.8,0.0625,-35.0,-1,1.0,0.20810100000005605
201,3,0.8,0.25,-35.0,-1,1.0,0.21390100000007806
202,3,0.8,0.25,-35.0,-1,1.0,0.20820099999991726
203,3,0.8,1.0,35.0,1,1.0,0.3767010000000255
204,3,0.8,0.125,-35.0,-1,1.0,0.2113010000000486
205,3,0.8,0.0,-35.0,-1,1.0,0.22890000000006694
206,3,0.8,1.0,-35.0,-1,1.0,0.19730100000003858
207,3,0.8,0.25,-35.0,-1,1.0,0.16190100000005714
208,3,0.8,0.0625,-35.0,-1,1.0,0.10219999999992524
209,3,0.8,0.0,-35.0,-1,1.0,0.21210000000007767
210,3,0.8,0.125,-35.0,-1,1.0,0.21230000000014115
211,3,0.8,0.0,35.0,-1,0.0,0.2070009999999911
212,3,0.8,1.0,-35.0,-1,1.0,0.09329999999999927
213,3,0.8,0.125,-35.0,-1,1.0,0.19520100000011098
214,3,0.8,1.0,35.0,1,1.0,0.24109999999996035
215,3,0.8,0.25,35.0,-1,0.0,0.1774999999998954
216,3,0.8,1.0,-35.0,-1,1.0,0.13510100000007697
217,3,0.8,0.0625,-35.0,-1,1.0,0.23810100000002876
218,3,0.8,0.125,35.0,1,1.0,0.12580000000002656
219,3,0.8,0.25,35.0,1,1.0,7.1209010000000035
220,3,0.8,0.125,-35.0,-1,1.0,0.11639999999999873
221,3,0.8,0.0,-35.0,1,0.0,0.7227010000000291
222,3,0.8,0.25,-35.0,-1,1.0,0.19430000000011205
223,3,0.8,1.0,-35.0,-1,1.0,0.17470000000014352
224,3,0.8,0.0625,-35.0,-1,1.0,0.17670099999998
225,3,0.8,0.0,-35.0,-1,1.0,0.2259999999999991
226,3,0.8,0.0,-35.0,-1,1.0,0.20330100000012408
227,3,0.8,0.125,-35.0,-1,1.0,0.23610100000007606
228,3,0.8,0.0,-35.0,-1,1.0,0.2803000000000111
229,3,0.8,0.25,-35.0,-1,1.0,0.13650099999972554
230,3,0.8,0.125,35.0,1,1.0,0.3338999999996304
231,3,0.8,0.25,35.0,1,1.0,0.2966009999997823
232,3,0.8,0.0625,-35.0,-1,1.0,0.2340009999998074
233,3,0.8,0.0,-35.0,-1,1.0,0.1068000000000211
234,3,0.8,1.0,-35.0,-1,1.0,0.1708009999999831
235,3,0.8,1.0,-35.0,-1,1.0,0.18029999999998836
236,3,0.8,1.0,35.0,1,1.0,0.31759999999985666
237,3,0.8,0.125,-35.0,-1,1.0,0.17380099999991216
238,3,0.8,0.0625,-35.0,-1,1.0,0.38780100000008133
239,3,0.8,0.25,-35.0,-1,1.0,0.24080099999991944
240,3,0.8,0.0625,-35.0,-1,1.0,0.10479999999984102
241,3,0.8,0.25,-35.0,-1,1.0,0.19810099999972408
242,3,0.2,0.25,35.0,1,1.0,0.44839999999999236
243,3,0.2,0.125,35.0,1,1.0,0.4379009999997834
244,3,0.2,0.125,35.0,1,1.0,0.21190099999989798
245,3,0.2,0.25,35.0,1,1.0,0.2981009999998605
246,3,0.2,0.25,35.0,1,1.0,0.3121000000001004
247,3,0.2,0.0625,35.0,1,1.0,0.2684999999999036
248,3,0.2,1.0,35.0,1,1.0,0.3059009999999489
249,3,0.2,1.0,35.0,1,1.0,0.24190100000009807
250,3,0.2,0.0,35.0,1,1.0,0.41630099999997583
251,3,0.2,0.25,35.0,1,1.0,0.3787999999999556
252,3,0.2,1.0,35.0,1,1.0,0.24279999999976098
253,3,0.2,0.0625,35.0,1,1.0,0.3523000000000138
254,3,0.2,0.0,35.0,1,1.0,0.28300099999978556
255,3,0.2,0.0,35.0,1,1.0,0.34579999999982647
256,3,0.2,0.0625,35.0,1,1.0,0.2931010000002061
257,3,0.2,0.125,35.0,1,1.0,0.2661009999997077
258,3,0.2,0.0,35.0,1,1.0,0.33320000000003347
259,3,0.2,0.125,35.0,1,1.0,0.27300100000002203
260,3,0.2,1.0,35.0,1,1.0,0.2802009999998063
261,3,0.2,0.0625,35.0,-1,0.0,0.2062999999998283
262,3,0.2,1.0,-35.0,-1,1.0,0.19380099999989397
263,3,0.2,0.0625,35.0,1,1.0,0.3000010000000657
264,3,0.2,0.0,-35.0,1,0.0,0.22750099999962003
265,3,0.2,0.125,35.0,1,1.0,0.300300999999763
266,3,0.2,0.25,35.0,1,1.0,0.30749999999989086
267,3,0.2,0.125,35.0,-1,0.0,0.33370000000013533
268,3,0.2,1.0,35.0,1,1.0,0.34120099999995546
269,3,0.2,0.25,35.0,1,1.0,0.37409999999999854
270,3,0.2,0.0,35.0,1,1.0,0.21450099999992744
271,3,0.2,1.0,35.0,1,1.0,0.32070100000009916
272,3,0.2,0.125,35.0,1,1.0,0.23800099999994018
273,3,0.2,0.0625,35.0,1,1.0,0.2943009999999049
274,3,0.2,0.125,-35.0,1,0.0,0.09500099999991107
275,3,0.2,0.0,-35.0,1,0.0,0.4313009999998485
276,3,0.2,0.0625,35.0,1,1.0,0.3451999999999771
277,3,0.2,0.0,35.0,-1,0.0,0.424701000000141
278,3,0.2,0.0,35.0,-1,0.0,0.415599999999813
279,3,0.2,0.0,35.0,-1,0.0,4.791699999999764
280,3,0.2,0.25,35.0,1,1.0,0.2825999999997748
281,3,0.2,0.25,35.0,1,1.0,0.26549999999997453
282,3,0.2,0.25,35.0,1,1.0,0.33600000000001273
283,3,0.2,0.0,35.0,1,1.0,0.3689009999998234
284,3,0.2,0.25,35.0,1,1.0,0.28270099999986087
285,3,0.2,0.125,-35.0,-1,1.0,0.2157999999999447
286,3,0.2,0.125,35.0,1,1.0,0.2964009999998325
287,3,0.2,0.0625,35.0,1,1.0,0.30579999999986285
288,3,0.2,0.25,35.0,1,1.0,0.24340099999972153
289,3,0.2,0.125,-35.0,-1,1.0,0.24279999999998836
290,3,0.2,0.125,35.0,1,1.0,0.2699000000000069
291,3,0.2,0.125,35.0,1,1.0,0.3163009999998394
292,3,0.2,0.0625,35.0,1,1.0,0.49680099999977756
