trial_num,session_num,stim_probability_left,contrast,position,response_choice,trial_correct,reaction_time
1,27,0.5,0.5,-35.0,-1,1.0,0.17319999999999958
2,27,0.5,0.5,-35.0,-1,1.0,0.16639999999999944
3,27,0.5,1.0,35.0,1,1.0,0.24130000000000074
4,27,0.5,0.5,-35.0,-1,1.0,0.2303999999999995
5,27,0.5,1.0,-35.0,-1,1.0,0.18900000000000006
6,27,0.5,0.5,-35.0,-1,1.0,0.1819999999999986
7,27,0.5,1.0,35.0,-1,0.0,0.3008999999999986
8,27,0.4,1.0,35.0,-1,0.0,0.19469999999999743
9,27,0.3,1.0,-35.0,-1,1.0,0.17539999999999623
10,27,0.5,1.0,35.0,1,1.0,0.3271999999999977
11,27,0.5,0.5,35.0,1,1.0,0.3383000000000038
12,27,0.5,1.0,-35.0,-1,1.0,0.18309999999999604
13,27,0.5,0.5,-35.0,-1,1.0,0.17489999999999384
14,27,0.5,1.0,-35.0,-1,1.0,0.1705000000000041
15,27,0.5,1.0,-35.0,-1,1.0,0.1880000000000024
16,27,0.5,1.0,-35.0,-1,1.0,0.16489999999999583
17,27,0.5,0.5,-35.0,-1,1.0,0.18199999999999505
18,27,0.5,0.5,35.0,1,1.0,0.5507999999999953
19,27,0.5,0.5,-35.0,-1,1.0,0.1817000000000064
20,27,0.5,1.0,35.0,1,1.0,0.3135999999999939
21,27,0.5,1.0,35.0,1,1.0,0.410199999999989
22,27,0.5,0.5,-35.0,-1,1.0,0.18890000000000384
23,27,0.5,0.5,35.0,1,1.0,0.4988999999999919
24,27,0.5,0.5,35.0,-1,0.0,0.212600000000009
25,27,0.4,0.5,35.0,-1,0.0,5.250499999999988
26,27,0.4,0.5,35.0,1,1.0,0.24899999999999523
27,27,0.5,0.5,35.0,-1,0.0,0.7760000000000105
28,27,0.5,0.5,35.0,1,1.0,0.3084999999999951
29,27,0.5,0.5,-35.0,-1,1.0,0.2143999999999977
30,27,0.5,1.0,35.0,1,1.0,0.3117000000000161
31,27,0.5,0.5,35.0,1,1.0,0.4030999999999949
32,27,0.5,1.0,35.0,1,1.0,0.29350000000000875
33,27,0.5,0.5,35.0,1,1.0,0.2616999999999905
34,27,0.5,0.5,35.0,1,1.0,3.0257000000000005
35,27,0.5,0.5,-35.0,-1,1.0,0.2295000000000016
36,27,0.5,1.0,35.0,1,1.0,0.3172999999999888
37,27,0.5,0.5,35.0,1,1.0,0.46819999999999595
38,27,0.5,0.5,35.0,-1,0.0,0.3351999999999862
39,27,0.7,0.5,35.0,1,1.0,0.25969999999998095
40,27,0.5,1.0,-35.0,-1,1.0,0.21450000000001523
41,27,0.5,0.5,-35.0,-1,1.0,0.2120000000000175
42,27,0.5,0.5,-35.0,-1,1.0,0.21579999999997312
43,27,0.5,0.5,35.0,1,1.0,0.3516999999999939
44,27,0.5,0.5,-35.0,-1,1.0,0.21639999999999304
45,27,0.5,1.0,35.0,1,1.0,0.40790000000001214
46,27,0.5,0.5,35.0,-1,0.0,0.9481000000000108
47,27,0.4,0.5,-35.0,-1,1.0,0.20810000000000173
48,27,0.5,1.0,35.0,1,1.0,0.38519999999999754
49,27,0.5,0.5,-35.0,-1,1.0,0.216700000000003
50,27,0.5,1.0,35.0,1,1.0,0.45170000000001664
51,27,0.5,1.0,-35.0,-1,1.0,0.1886000000000081
52,27,0.5,0.5,-35.0,-1,1.0,0.21520000000001005
53,27,0.5,1.0,-35.0,-1,1.0,0.1938000000000102
54,27,0.5,0.5,-35.0,-1,1.0,0.1962000000000046
55,27,0.5,1.0,-35.0,-1,1.0,0.20199999999999818
56,27,0.5,0.5,-35.0,-1,1.0,0.1781000000000006
57,27,0.5,1.0,35.0,1,1.0,0.3269000000000233
58,27,0.5,0.5,35.0,1,1.0,0.4666000000000281
59,27,0.5,1.0,-35.0,-1,1.0,0.20350000000001955
60,27,0.5,0.5,35.0,1,1.0,0.45599999999998886
61,27,0.5,1.0,35.0,1,1.0,0.49900000000002365
62,27,0.5,1.0,35.0,1,1.0,0.4227000000000203
63,27,0.5,0.5,35.0,-1,0.0,0.2671999999999741
64,27,0.5,0.5,-35.0,-1,1.0,0.19830000000001746
65,27,0.5,1.0,-35.0,-1,1.0,0.18500000000000227
66,27,0.5,0.5,-35.0,-1,1.0,0.22980000000001155
67,27,0.5,0.5,-35.0,-1,1.0,0.25139999999998963
68,27,0.5,1.0,-35.0,-1,1.0,0.21219999999999573
69,27,0.5,0.5,35.0,-1,0.0,0.5068000000000268
70,27,0.3,0.5,35.0,-1,0.0,0.49370000000001824
71,27,0.2,0.5,35.0,-1,0.0,0.22109999999997854
72,27,0.1,0.5,35.0,1,1.0,0.35410000000001673
73,27,0.5,1.0,35.0,1,1.0,0.2307999999999879
74,27,0.5,0.5,35.0,-1,0.0,0.7287000000000035
75,27,0.2,0.5,-35.0,-1,1.0,0.18580000000002883
76,27,0.5,1.0,35.0,-1,0.0,0.6633000000000493
77,27,0.2,1.0,-35.0,-1,1.0,0.1923999999999637
78,27,0.5,1.0,35.0,-1,0.0,0.5932999999999424
79,27,0.2,1.0,-35.0,-1,1.0,0.179300000000012
80,27,0.5,0.5,35.0,-1,0.0,0.23099999999999454
81,27,0.2,0.5,35.0,1,1.0,0.23900000000003274
82,27,0.5,0.5,35.0,-1,0.0,2.3769000000000347
83,27,0.2,0.5,35.0,1,1.0,0.23020099999996546
84,27,0.5,0.5,35.0,1,1.0,0.2991010000000074
85,27,0.5,0.5,-35.0,-1,1.0,0.19210099999997965
86,27,0.5,1.0,-35.0,-1,1.0,0.18680100000000266
87,27,0.5,0.5,35.0,-1,0.0,3.8453010000000063
88,27,0.3,0.5,-35.0,-1,1.0,0.19480099999998401
89,27,0.5,1.0,35.0,1,1.0,0.2951009999999883
90,27,0.5,1.0,-35.0,-1,1.0,0.22690099999999802
91,27,0.5,1.0,35.0,1,1.0,0.42560100000002876
92,27,0.5,1.0,35.0,-1,0.0,2.541601000000014
93,27,0.4,1.0,35.0,-1,0.0,0.09630099999998265
94,27,0.3,1.0,-35.0,-1,1.0,0.1846010000000433
95,27,0.5,1.0,-35.0,-1,1.0,0.18420100000003004
96,27,0.5,0.5,-35.0,-1,1.0,0.18340100000000348
97,27,0.5,0.5,-35.0,-1,1.0,0.22650099999998474
98,27,0.5,1.0,-35.0,-1,1.0,0.21080100000000357
99,27,0.5,1.0,35.0,-1,0.0,0.6192010000000323
100,27,0.1,1.0,35.0,-1,0.0,0.22120100000000775
101,27,0.1,1.0,35.0,1,1.0,0.33120099999996455
102,27,0.5,0.5,35.0,-1,0.0,0.5988010000000372
103,27,0.1,0.5,-35.0,-1,1.0,0.18560099999996282
104,27,0.5,1.0,35.0,-1,0.0,0.5420009999999706
105,27,0.1,1.0,35.0,1,1.0,0.2624010000000112
106,27,0.5,0.5,35.0,-1,0.0,3.302701000000013
107,27,0.2,0.5,35.0,-1,0.0,0.662001000000032
108,27,0.2,0.5,-35.0,-1,1.0,0.22820100000001275
109,27,0.5,0.5,35.0,1,1.0,0.2384010000000103
110,27,0.5,0.5,-35.0,-1,1.0,0.20200099999999566
111,27,0.5,1.0,-35.0,-1,1.0,0.20470100000000002
112,27,0.5,1.0,-35.0,-1,1.0,0.1981010000000083
113,27,0.5,1.0,35.0,-1,0.0,0.6727010000000178
114,27,0.2,1.0,35.0,-1,0.0,2.579001000000005
115,27,0.2,1.0,35.0,1,1.0,0.2743009999999799
116,27,0.5,0.5,-35.0,-1,1.0,0.2052009999999882
117,27,0.5,0.5,-35.0,-1,1.0,0.25160099999999375
118,27,0.5,1.0,-35.0,-1,1.0,0.3588009999999713
119,27,0.5,1.0,-35.0,-1,1.0,0.3901010000000156
120,27,0.5,0.5,-35.0,-1,1.0,0.2314010000000053
121,27,0.5,1.0,35.0,1,1.0,0.29650100000003476
122,27,0.5,0.5,35.0,-1,0.0,0.6723010000000045
123,27,0.2,0.5,-35.0,-1,1.0,0.1746010000000524
124,27,0.5,1.0,35.0,-1,0.0,2.276501000000053
125,27,0.2,1.0,35.0,1,1.0,0.23400100000003476
126,27,0.5,0.5,35.0,-1,0.0,0.7484010000000012
127,27,0.2,0.5,35.0,1,1.0,0.18950100000000702
128,27,0.5,0.5,35.0,1,1.0,0.24860100000000784
129,27,0.5,1.0,35.0,1,1.0,0.2355009999999993
130,27,0.5,1.0,-35.0,-1,1.0,0.2751010000000633
131,27,0.5,1.0,35.0,1,1.0,0.20200099999999566
132,27,0.5,0.5,35.0,-1,0.0,0.45020099999999275
133,27,0.5,0.5,-35.0,-1,1.0,0.20130100000005768
134,27,0.5,1.0,35.0,-1,0.0,0.3907010000000355
135,27,0.5,1.0,35.0,1,1.0,0.24460099999998874
136,27,0.5,1.0,-35.0,-1,1.0,0.18220100000007733
137,27,0.5,0.5,-35.0,-1,1.0,0.431500999999912
138,27,0.5,0.5,35.0,1,1.0,0.2637010000000828
139,27,0.5,1.0,35.0,1,1.0,0.2598009999999249
140,27,0.5,0.5,-35.0,-1,1.0,0.3927009999999882
141,27,0.5,1.0,35.0,1,1.0,0.45020100000010643
142,27,0.5,1.0,-35.0,-1,1.0,0.20780100000001767
143,27,0.5,0.5,35.0,1,1.0,0.2569010000000844
144,27,0.5,0.5,35.0,1,1.0,0.504301000000055
145,27,0.5,1.0,35.0,1,1.0,6.378501000000028
146,27,0.5,1.0,-35.0,-1,1.0,0.38310100000001057
147,27,0.5,0.5,-35.0,-1,1.0,0.20840100000009443
148,27,0.5,0.5,-35.0,-1,1.0,0.42410100000006423
149,27,0.5,0.5,35.0,-1,0.0,0.3841010000001006
150,27,0.4,0.5,35.0,1,1.0,0.6123010000000022
151,27,0.5,1.0,35.0,-1,0.0,1.0595010000000684
152,27,0.4,1.0,35.0,1,1.0,0.22190100000000257
153,27,0.5,0.5,-35.0,-1,1.0,0.3483009999999922
154,27,0.5,0.5,35.0,-1,0.0,0.4385010000000875
155,27,0.3,0.5,35.0,1,1.0,0.34370100000001
156,27,0.5,0.5,35.0,-1,0.0,1.0501010000000406
157,27,0.3,0.5,-35.0,-1,1.0,0.39140099999997346
158,27,0.5,0.5,35.0,1,1.0,0.24220100000002276
159,27,0.5,0.5,-35.0,-1,1.0,0.3506009999999833
160,27,0.5,1.0,-35.0,-1,1.0,0.2151010000000042
161,27,0.5,0.5,-35.0,-1,1.0,0.22820099999989907
162,27,0.5,1.0,35.0,-1,0.0,0.6356010000000651
163,27,0.2,1.0,-35.0,-1,1.0,0.1852010000000064
164,27,0.5,0.5,35.0,-1,0.0,1.3115010000000211
165,27,0.2,0.5,35.0,1,1.0,0.24390099999993708
166,27,0.5,0.5,35.0,-1,0.0,0.7152009999999791
167,27,0.2,0.5,-35.0,-1,1.0,0.32500100000004295
168,27,0.5,1.0,35.0,-1,0.0,6.3534009999999626
169,27,0.1,1.0,-35.0,-1,1.0,0.17950099999995928
170,27,0.5,1.0,-35.0,-1,1.0,0.20460100000002512
171,27,0.5,0.5,35.0,-1,0.0,0.4931010000000242
172,27,0.1,0.5,35.0,1,1.0,0.23890100000005532
173,27,0.5,1.0,35.0,1,1.0,0.40610100000003513
174,27,0.5,0.5,35.0,1,1.0,0.22970100000009097
175,27,0.5,1.0,-35.0,-1,1.0,0.22890100000006441
176,27,0.5,0.5,-35.0,-1,1.0,0.35670099999993
177,27,0.5,1.0,35.0,1,1.0,0.2633009999999558
178,27,0.5,0.5,-35.0,-1,1.0,0.3929010000000517
179,27,0.5,1.0,35.0,1,1.0,0.40140099999996437
180,27,0.5,1.0,35.0,-1,0.0,0.8753000000000384
181,27,0.5,1.0,35.0,1,1.0,0.2331010000000333
182,27,0.5,0.5,35.0,-1,0.0,0.592401000000109
183,27,0.5,0.5,35.0,1,1.0,0.39210099999991144
184,27,0.5,1.0,35.0,1,1.0,0.22520099999997
185,27,0.5,1.0,-35.0,-1,1.0,0.3768009999998867
186,27,0.5,0.5,35.0,-1,0.0,0.7695009999999911
187,27,0.5,0.5,35.0,1,1.0,0.4409009999999398
188,27,0.5,0.5,35.0,-1,0.0,0.5671009999999796
189,27,0.5,0.5,35.0,-1,0.0,0.4869009999999889
190,27,0.4,0.5,35.0,-1,0.0,0.29500099999995655
191,27,0.4,0.5,35.0,-1,0.0,0.2210010000000011
192,27,0.3,0.5,-35.0,-1,1.0,0.22430099999996855
193,27,0.5,1.0,35.0,1,1.0,0.2557010000000446
194,27,0.5,0.5,35.0,-1,0.0,5.482200999999918
195,27,0.2,0.5,35.0,1,1.0,0.1952009999999973
196,27,0.5,1.0,-35.0,-1,1.0,0.23150100000009388
197,27,0.5,1.0,35.0,1,1.0,0.2513010000000122
198,27,0.5,1.0,35.0,1,1.0,6.905601000000047
199,27,0.5,0.5,35.0,1,1.0,0.5444009999999935
200,27,0.5,1.0,35.0,1,1.0,2.5603009999999813
201,27,0.5,0.5,-35.0,-1,1.0,0.20940100000007078
202,27,0.5,0.5,35.0,-1,0.0,0.3663010000000213
203,27,0.6,0.5,35.0,1,1.0,0.3761009999999487
204,27,0.5,0.5,35.0,-1,0.0,1.006701000000021
205,27,0.6,0.5,35.0,-1,0.0,0.3299010000000635
206,27,0.5,0.5,-35.0,-1,1.0,0.2475009999999429
207,27,0.5,0.5,35.0,1,1.0,0.2573010000000977
208,27,0.5,1.0,-35.0,-1,1.0,0.23270100000002003
209,27,0.5,0.5,-35.0,-1,1.0,0.3802009999999427
210,27,0.5,0.5,35.0,-1,0.0,0.525400999999988
211,27,0.2,0.5,35.0,-1,0.0,0.9765009999999847
212,27,0.2,0.5,35.0,1,1.0,0.3640010000000302
213,27,0.5,1.0,35.0,1,1.0,2.1245010000000093
214,27,0.5,1.0,35.0,-1,0.0,3.3428010000000086
215,27,0.3,1.0,35.0,1,1.0,0.2736010000000988
216,27,0.5,1.0,35.0,-1,0.0,0.4731010000000424
217,27,0.4,1.0,-35.0,-1,1.0,0.21180100000003677
218,27,0.5,0.5,35.0,-1,0.0,0.6227010000000064
219,27,0.3,0.5,35.0,-1,0.0,0.33340099999998074
220,27,0.3,0.5,-35.0,-1,1.0,0.205400999999938
221,27,0.5,1.0,35.0,-1,0.0,0.3743009999999458
222,27,0.3,1.0,-35.0,-1,1.0,0.19040099999995164
223,27,0.5,1.0,35.0,-1,0.0,0.6666010000000142
224,27,0.1,1.0,35.0,1,1.0,0.22770100000002458
225,27,0.5,1.0,35.0,-1,0.0,0.7543009999999413
226,27,0.1,1.0,35.0,-1,0.0,5.815700999999876
227,27,0.1,1.0,35.0,1,1.0,0.2252010000000837
228,27,0.5,1.0,35.0,-1,0.0,0.7957010000000082
229,27,0.2,1.0,-35.0,-1,1.0,0.2230010000000675
230,27,0.5,0.5,35.0,-1,0.0,2.6592010000000528
231,27,0.2,0.5,-35.0,-1,1.0,0.21120099999996
232,27,0.5,0.5,35.0,-1,0.0,9.19980099999998
233,27,0.2,0.5,35.0,1,1.0,0.3299010000000635
234,27,0.5,1.0,35.0,-1,0.0,0.462900999999988
235,27,0.2,1.0,-35.0,-1,1.0,0.1875009999998838
236,27,0.5,1.0,35.0,-1,0.0,0.39500100000009297
237,27,0.2,1.0,35.0,1,1.0,0.23270100000002003
238,27,0.5,1.0,35.0,1,1.0,0.2514009999999871
239,27,0.5,1.0,35.0,1,1.0,0.43790099999989707
240,27,0.5,1.0,-35.0,-1,1.0,0.4114009999999553
241,27,0.5,0.5,35.0,1,1.0,5.090600999999992
242,27,0.5,0.5,-35.0,-1,1.0,0.21880099999998492
243,27,0.5,1.0,35.0,-1,0.0,0.3520009999999729
244,27,0.4,1.0,35.0,1,1.0,0.4125010000000202
245,27,0.5,1.0,35.0,-1,0.0,5.652401000000054
246,27,0.5,1.0,-35.0,-1,1.0,0.20280099999990853
247,27,0.5,1.0,35.0,1,1.0,0.4593009999998685
248,27,0.5,0.5,35.0,1,1.0,0.4094009999998889
249,27,0.5,0.5,35.0,-1,0.0,0.5094010000000253
250,27,0.4,0.5,35.0,1,1.0,0.38990099999978156
251,27,0.5,0.5,35.0,1,1.0,0.22420099999999366
252,27,0.5,1.0,-35.0,-1,1.0,0.411000999999942
253,27,0.5,1.0,-35.0,-1,1.0,0.34100100000000566
254,27,0.5,1.0,-35.0,-1,1.0,0.24120099999981903
255,27,0.5,1.0,-35.0,-1,1.0,0.43790100000001075
256,27,0.5,0.5,-35.0,-1,1.0,0.4046009999999569
257,27,0.5,0.5,-35.0,-1,1.0,0.36800099999959457
258,27,0.5,1.0,35.0,-1,0.0,1.218000999999731
259,27,0.2,1.0,35.0,1,1.0,0.41470099999969534
260,27,0.5,1.0,35.0,-1,0.0,0.651501000000053
261,27,0.2,1.0,35.0,1,1.0,0.4550010000000384
262,27,0.5,0.5,35.0,-1,0.0,3.6083009999997557
263,27,0.2,0.5,35.0,1,1.0,0.2020009999996546
264,27,0.5,0.5,35.0,-1,0.0,0.34190099999977974
265,27,0.3,0.5,-35.0,-1,1.0,0.2321009999996022
266,27,0.5,1.0,35.0,1,1.0,0.23220099999980448
267,27,0.5,0.5,35.0,1,1.0,0.33890100000007806
268,27,0.5,0.5,35.0,1,1.0,0.41230099999984304
269,27,0.5,0.5,35.0,-1,0.0,0.4357009999998809
270,27,0.5,0.5,35.0,1,1.0,0.20240099999978156
271,27,0.5,1.0,35.0,1,1.0,0.4792009999998754
272,27,0.5,1.0,-35.0,-1,1.0,0.3724010000000817
273,27,0.5,1.0,-35.0,-1,1.0,0.2659009999999853
274,27,0.5,0.5,-35.0,-1,1.0,0.34930099999996855
275,27,0.5,1.0,-35.0,-1,1.0,0.4194009999998798
276,27,0.5,0.5,-35.0,-1,1.0,0.3895009999996546
277,27,0.5,0.5,-35.0,-1,1.0,0.29620100000011007
278,27,0.5,0.5,35.0,-1,0.0,1.6629009999999198
279,27,0.2,0.5,35.0,1,1.0,0.4231009999998605
280,27,0.5,0.5,35.0,1,1.0,0.24640099999987797
281,27,0.5,1.0,35.0,1,1.0,0.3866009999999278
282,27,0.5,0.5,-35.0,-1,1.0,0.3832009999998718
283,27,0.5,0.5,-35.0,-1,1.0,0.4233010000000377
284,27,0.5,0.5,-35.0,-1,1.0,0.23330099999975573
285,27,0.5,0.5,-35.0,-1,1.0,0.36340100000006714
286,27,0.5,1.0,35.0,1,1.0,0.46670099999982995
287,27,0.5,1.0,-35.0,-1,1.0,0.42030099999988124
288,27,0.5,0.5,35.0,1,1.0,0.5335009999998874
289,27,0.5,1.0,35.0,1,1.0,0.3903009999999085
290,27,0.5,1.0,-35.0,-1,1.0,0.2505009999997583
291,27,0.5,0.5,-35.0,-1,1.0,0.4972010000001319
292,27,0.5,0.5,-35.0,-1,1.0,0.42060099999980594
293,27,0.5,0.5,-35.0,-1,1.0,0.4107010000000173
294,27,0.5,1.0,35.0,1,1.0,0.2441009999997732
295,27,0.5,0.5,-35.0,-1,1.0,0.38750099999992926
296,27,0.5,0.5,-35.0,-1,1.0,0.3509009999997943
297,27,0.5,0.5,-35.0,-1,1.0,0.48420099999998456
298,27,0.5,1.0,35.0,1,1.0,0.244300999999723
299,27,0.5,1.0,35.0,1,1.0,0.524400999999898
300,27,0.5,1.0,-35.0,-1,1.0,0.36120099999993727
301,27,0.5,0.5,-35.0,-1,1.0,0.4379009999997834
302,27,0.5,1.0,35.0,1,1.0,0.2380009999997128
303,27,0.5,0.5,35.0,1,1.0,0.4347009999999045
304,27,0.5,1.0,35.0,1,1.0,0.25130099999978484
305,27,0.5,0.5,35.0,1,1.0,0.3947009999999409
306,27,0.5,0.5,-35.0,-1,1.0,0.41830099999992854
307,27,0.5,1.0,-35.0,-1,1.0,0.318400999999767
308,27,0.5,0.5,35.0,1,1.0,0.3785009999999147
309,27,0.5,0.5,35.0,1,1.0,0.3750009999998838
310,27,0.5,0.5,-35.0,-1,1.0,0.2518010000001141
311,27,0.5,0.5,-35.0,-1,1.0,0.33520099999986996
312,27,0.5,1.0,-35.0,-1,1.0,0.33540099999981976
313,27,0.5,1.0,35.0,-1,0.0,0.6855009999997037
314,27,0.4,1.0,35.0,-1,0.0,0.8456009999999878
315,27,0.3,1.0,35.0,1,1.0,0.23230099999977938
316,27,0.5,1.0,35.0,1,1.0,0.22230099999978847
317,27,0.5,1.0,35.0,1,1.0,0.3924010000000635
318,27,0.5,1.0,-35.0,-1,1.0,0.2657009999998081
319,27,0.5,0.5,-35.0,-1,1.0,0.252500999999711
320,27,0.5,1.0,-35.0,-1,1.0,0.27930099999980484
321,27,0.5,0.5,35.0,1,1.0,0.4961009999997259
322,27,0.5,1.0,-35.0,-1,1.0,0.3995009999996455
323,27,0.5,0.5,-35.0,-1,1.0,0.1894009999998616
324,27,0.5,1.0,-35.0,-1,1.0,0.23950099999979102
325,27,0.5,1.0,35.0,1,1.0,0.4030009999999038
326,27,0.5,0.5,-35.0,-1,1.0,0.2664009999998598
327,27,0.5,1.0,35.0,1,1.0,0.49310099999979684
328,27,0.5,1.0,-35.0,-1,1.0,0.23310099999980594
329,27,0.5,0.5,35.0,1,1.0,0.35980099999983395
330,27,0.5,1.0,35.0,1,1.0,0.42660099999989143
331,27,0.5,0.5,35.0,-1,0.0,0.4734009999997397
332,27,0.4,0.5,35.0,1,1.0,0.3301010000000133
333,27,0.5,1.0,35.0,1,1.0,0.20360099999993508
334,27,0.5,0.5,35.0,1,1.0,3.903600999999753
335,27,0.5,1.0,35.0,1,1.0,0.413700999999719
336,27,0.5,0.5,35.0,1,1.0,0.41040099999986523
337,27,0.5,1.0,-35.0,-1,1.0,0.25720099999989543
338,27,0.5,1.0,35.0,1,1.0,0.3807009999998172
339,27,0.5,0.5,35.0,1,1.0,0.3606010000000879
340,27,0.5,0.5,35.0,1,1.0,0.5773009999998067
341,27,0.5,0.5,-35.0,-1,1.0,0.24760099999980412
342,27,0.5,0.5,35.0,-1,0.0,0.19740099999967242
343,27,0.7,0.5,-35.0,-1,1.0,0.2577009999997699
344,27,0.5,0.5,35.0,1,1.0,0.5443009999999049
345,27,0.5,1.0,35.0,1,1.0,0.35770099999967897
346,27,0.5,1.0,35.0,1,1.0,0.4378009999998085
347,27,0.5,0.5,35.0,1,1.0,0.4212009999998827
348,27,0.5,1.0,-35.0,-1,1.0,0.2779009999999289
349,27,0.5,1.0,-35.0,-1,1.0,0.25480099999981576
350,27,0.5,0.5,-35.0,-1,1.0,0.2415009999999711
351,27,0.5,1.0,-35.0,-1,1.0,0.21810099999993326
352,27,0.5,0.5,-35.0,-1,1.0,0.24170099999969352
353,27,0.5,0.5,-35.0,-1,1.0,0.24840100000005805
354,27,0.5,0.5,-35.0,-1,1.0,0.28500099999996564
355,27,0.5,1.0,35.0,1,1.0,0.39180099999998674
356,27,0.5,1.0,35.0,-1,0.0,1.1386010000001079
357,27,0.2,1.0,35.0,1,1.0,0.6986009999995986
358,27,0.5,1.0,35.0,-1,0.0,1.3586009999999078
359,27,0.2,1.0,35.0,1,1.0,0.3988009999998212
360,27,0.5,1.0,35.0,1,1.0,4.525600999999824
361,27,0.5,1.0,35.0,1,1.0,0.40570099999990816
362,27,0.5,1.0,35.0,1,1.0,0.26920099999983904
363,27,0.5,1.0,35.0,1,1.0,0.24260099999992235
364,27,0.5,1.0,-35.0,-1,1.0,0.24600099999997838
365,27,0.5,1.0,35.0,1,1.0,0.3428009999997812
366,27,0.5,1.0,-35.0,-1,1.0,0.2495010000000093
367,27,0.5,0.5,-35.0,-1,1.0,0.3627010000000155
368,27,0.5,1.0,-35.0,-1,1.0,0.2095009999998183
369,27,0.5,0.5,-35.0,-1,1.0,0.21620099999995546
370,27,0.5,0.5,-35.0,-1,1.0,0.2396009999999933
371,27,0.5,1.0,35.0,1,1.0,6.273100999999997
372,27,0.5,1.0,-35.0,-1,1.0,0.22000099999991107
373,27,0.5,0.5,35.0,1,1.0,0.4633009999997739
374,27,0.5,0.5,-35.0,-1,1.0,0.2601009999998496
375,27,0.5,0.5,-35.0,-1,1.0,0.26340099999970334
376,27,0.5,1.0,-35.0,-1,1.0,0.3102010000000064
377,27,0.5,1.0,-35.0,-1,1.0,0.21010099999989507
378,27,0.5,0.5,35.0,1,1.0,0.3936009999997623
379,27,0.5,1.0,-35.0,-1,1.0,0.2238009999998667
380,27,0.5,1.0,35.0,1,1.0,0.28050099999995837
381,27,0.5,0.5,35.0,1,1.0,0.6039009999997234
382,27,0.5,1.0,35.0,1,1.0,0.2339009999998325
383,27,0.5,1.0,35.0,1,1.0,0.3674009999997452
384,27,0.5,1.0,-35.0,-1,1.0,0.3608009999998103
385,27,0.5,0.5,35.0,1,1.0,0.32070100000009916
386,27,0.5,0.5,-35.0,-1,1.0,0.30080099999986487
387,27,0.5,1.0,-35.0,-1,1.0,0.22750099999962003
388,27,0.5,1.0,35.0,1,1.0,0.22090099999991253
389,27,0.5,0.5,-35.0,-1,1.0,0.26100099999985105
390,27,0.5,0.5,-35.0,-1,1.0,0.2577009999999973
391,27,0.5,1.0,35.0,1,1.0,0.3346010000000206
392,27,0.5,1.0,-35.0,-1,1.0,0.30120099999976446
393,27,0.5,0.5,-35.0,-1,1.0,0.3679010000000744
394,27,0.5,0.5,-35.0,-1,1.0,0.3547009999997499
395,27,0.5,0.5,-35.0,-1,1.0,0.374800999999934
396,27,0.5,0.5,35.0,1,1.0,0.23820099999988997
397,27,0.5,0.5,-35.0,-1,1.0,0.30150099999968916
398,27,0.5,1.0,-35.0,-1,1.0,0.23500099999978374
399,27,0.5,1.0,35.0,1,1.0,0.26500099999998383
400,27,0.5,0.5,-35.0,-1,1.0,0.2418009999998958
401,27,0.5,1.0,-35.0,-1,1.0,0.28520099999991544
402,27,0.5,0.5,-35.0,-1,1.0,0.3885009999999056
403,27,0.5,0.5,35.0,1,1.0,0.2520009999998365
404,27,0.5,0.5,-35.0,-1,1.0,0.5653010000000904
405,27,0.5,0.5,-35.0,-1,1.0,0.27870099999995546
406,27,0.5,0.5,35.0,1,1.0,0.2688009999997121
407,27,0.5,1.0,35.0,1,1.0,0.45230099999980666
408,27,0.5,0.5,35.0,1,1.0,0.4656999999999698
409,27,0.5,1.0,35.0,1,1.0,0.17590099999983977
410,27,0.5,1.0,-35.0,-1,1.0,0.4858009999998103
411,27,0.5,0.5,35.0,1,1.0,0.27920099999982995
412,27,0.5,0.5,35.0,1,1.0,0.32270100000005186
413,27,0.5,0.5,-35.0,-1,1.0,0.236100999999735
414,27,0.5,0.5,-35.0,-1,1.0,0.2362009999997099
415,27,0.5,1.0,35.0,-1,0.0,0.3662010000000464
416,27,0.6,1.0,-35.0,-1,1.0,0.21620099999995546
417,27,0.5,0.5,35.0,1,1.0,0.24630099999990307
418,27,0.5,1.0,35.0,1,1.0,0.21980099999996128
419,27,0.5,0.5,35.0,1,1.0,0.2232010000000173
420,27,0.5,1.0,35.0,1,1.0,0.3600010000000111
421,27,0.5,0.5,-35.0,-1,1.0,0.2900009999998474
422,27,0.5,1.0,35.0,1,1.0,0.22670099999982085
423,27,0.5,1.0,-35.0,-1,1.0,0.2735009999998965
424,27,0.5,1.0,-35.0,-1,1.0,0.21680099999980484
425,27,0.5,1.0,-35.0,-1,1.0,0.24700099999995473
426,27,0.5,1.0,35.0,1,1.0,0.24700099999995473
427,27,0.5,1.0,-35.0,-1,1.0,0.23700099999973645
428,27,0.5,0.5,-35.0,-1,1.0,0.20050099999980375
429,27,0.5,1.0,-35.0,-1,1.0,0.2339009999998325
430,27,0.5,0.5,35.0,1,1.0,0.45060099999977865
431,27,0.5,0.5,35.0,1,1.0,0.29070100000012644
432,27,0.5,0.5,-35.0,-1,1.0,0.24410100000000057
433,27,0.5,1.0,-35.0,-1,1.0,0.24740099999985432
434,27,0.5,1.0,35.0,1,1.0,0.3642009999998663
435,27,0.5,0.5,-35.0,-1,1.0,0.28100100000006023
436,27,0.5,0.5,-35.0,-1,1.0,0.23100099999965096
437,27,0.5,1.0,35.0,1,1.0,0.2778009999997266
438,27,0.5,1.0,-35.0,-1,1.0,0.23450099999990925
439,27,0.5,0.5,-35.0,-1,1.0,0.4613009999998212
440,27,0.5,1.0,35.0,1,1.0,0.41140100000006896
441,27,0.5,0.5,35.0,1,1.0,0.3947009999999409
442,27,0.5,1.0,35.0,1,1.0,0.26820100000009006
443,27,0.5,0.5,-35.0,-1,1.0,0.23820099999988997
444,27,0.5,0.5,-35.0,-1,1.0,0.31150099999990744
445,27,0.5,0.5,-35.0,-1,1.0,0.22830099999987397
446,27,0.5,1.0,-35.0,-1,1.0,0.241600999999946
447,27,0.5,1.0,-35.0,-1,1.0,0.24500100000000202
448,27,0.5,1.0,35.0,1,1.0,0.39860099999964405
449,27,0.5,0.5,35.0,1,1.0,0.3018010000000686
450,27,0.5,1.0,35.0,1,1.0,0.2554009999998925
451,27,0.5,1.0,35.0,1,1.0,0.38540100000000166
452,27,0.5,0.5,-35.0,-1,1.0,0.25880099999994854
453,27,0.5,1.0,35.0,1,1.0,0.2755009999998492
454,27,0.5,0.5,35.0,1,1.0,0.22240099999976337
455,27,0.5,1.0,35.0,1,1.0,0.23230100000000675
456,27,0.5,0.5,-35.0,-1,1.0,0.22240099999976337
457,27,0.5,1.0,-35.0,-1,1.0,0.25250099999993836
458,27,0.5,1.0,35.0,1,1.0,0.3126009999998587
459,27,0.5,1.0,-35.0,-1,1.0,0.2559009999999944
460,27,0.5,0.5,-35.0,-1,1.0,0.24600099999997838
461,27,0.5,0.5,-35.0,-1,1.0,0.23600099999998747
462,27,0.5,1.0,-35.0,-1,1.0,0.25280099999986305
463,27,0.5,0.5,-35.0,-1,1.0,0.2995009999999638
464,27,0.5,1.0,-35.0,-1,1.0,0.24630099999990307
465,27,0.5,0.5,35.0,1,1.0,0.386400999999978
466,27,0.5,0.5,35.0,1,1.0,0.3831009999998969
467,27,0.5,1.0,35.0,1,1.0,0.23650099999986196
468,27,0.5,0.5,35.0,1,1.0,0.38990100000000893
469,27,0.5,1.0,35.0,1,1.0,0.30660100000000057
470,27,0.5,1.0,35.0,1,1.0,0.3367009999999482
471,27,0.5,0.5,35.0,1,1.0,0.3568009999999049
472,27,0.5,1.0,35.0,1,1.0,0.3868009999998776
473,27,0.5,0.5,35.0,1,1.0,0.3603009999999358
474,27,0.5,0.25,35.0,1,1.0,0.3769999999999527
475,27,0.5,0.5,-35.0,-1,1.0,0.26700099999993654
476,27,0.5,1.0,35.0,1,1.0,0.3672009999997954
477,27,0.5,0.25,35.0,1,1.0,0.48060099999975137
478,27,0.5,0.5,35.0,1,1.0,0.2639009999998052
479,27,0.5,0.25,-35.0,-1,1.0,0.27740099999982704
480,27,0.5,1.0,35.0,1,1.0,0.26070099999992635
481,27,0.5,1.0,-35.0,-1,1.0,0.26080099999990125
482,27,0.5,0.25,-35.0,-1,1.0,0.2642009999999573
483,27,0.5,0.5,-35.0,-1,1.0,0.2376009999998132
484,27,0.5,0.25,-35.0,-1,1.0,0.22780099999999948
485,27,0.5,0.25,35.0,1,1.0,0.37780099999986305
486,27,0.5,1.0,-35.0,-1,1.0,0.21780100000000857
487,27,0.5,0.25,-35.0,-1,1.0,0.2313010000000304
488,27,0.5,1.0,-35.0,-1,1.0,0.21800099999995837
489,27,0.5,1.0,-35.0,-1,1.0,0.21130099999982122
490,27,0.5,1.0,-35.0,-1,1.0,0.26470099999983177
491,27,0.5,1.0,35.0,1,1.0,0.364900999999918
492,27,0.5,0.25,-35.0,-1,1.0,0.21170099999994818
493,27,0.5,0.5,35.0,1,1.0,0.37170099999980266
494,27,0.5,0.5,-35.0,-1,1.0,0.21170099999994818
495,27,0.5,0.5,35.0,1,1.0,0.25850100000002385
496,27,0.5,0.25,-35.0,-1,1.0,0.6752009999997881
497,27,0.5,1.0,-35.0,-1,1.0,0.21860099999980775
498,27,0.5,0.5,35.0,1,1.0,0.30530099999987215
499,27,0.5,1.0,-35.0,-1,1.0,0.24540099999990161
500,27,0.5,0.5,-35.0,-1,1.0,0.21220100000005004
501,27,0.5,0.25,-35.0,-1,1.0,0.26900099999966187
502,27,0.5,0.5,35.0,1,1.0,0.38570099999992635
503,27,0.5,1.0,-35.0,-1,1.0,0.2357009999998354
504,27,0.5,1.0,-35.0,-1,1.0,0.22230099999978847
505,27,0.5,0.25,-35.0,-1,1.0,0.24250099999972008
506,27,0.5,0.5,-35.0,-1,1.0,0.21250099999997474
507,27,0.5,1.0,-35.0,-1,1.0,0.21260099999994964
508,27,0.5,0.25,-35.0,-1,1.0,0.4294009999996433
509,27,0.5,0.25,-35.0,-1,1.0,0.2794010000000071
510,27,0.5,1.0,-35.0,-1,1.0,0.24270099999989725
511,27,0.5,0.5,-35.0,-1,1.0,0.29290099999980157
512,27,0.5,0.5,35.0,1,1.0,0.46290099999987433
513,27,0.5,0.5,35.0,1,1.0,0.26310099999977865
514,27,0.5,0.5,35.0,1,1.0,0.26640100000008715
515,27,0.5,0.5,35.0,1,1.0,0.3566009999999551
516,27,0.5,0.25,35.0,1,1.0,0.4633010000000013
517,27,0.5,1.0,35.0,1,1.0,0.2767999999998665
518,27,0.5,0.5,35.0,1,1.0,0.33000099999981103
519,27,0.5,1.0,-35.0,-1,1.0,0.24360100000012608
520,27,0.5,0.25,35.0,1,1.0,0.287000999999691
521,27,0.5,0.5,35.0,1,1.0,0.2503009999998085
522,27,0.5,1.0,35.0,1,1.0,0.25700099999994563
523,27,0.5,1.0,-35.0,-1,1.0,0.24720099999990452
524,27,0.5,1.0,-35.0,-1,1.0,0.22710099999994782
525,27,0.5,0.25,35.0,1,1.0,0.36710100000004786
526,27,0.5,0.25,35.0,1,1.0,0.26070099999992635
527,27,0.5,0.5,35.0,1,1.0,0.2340009999998074
528,27,0.5,0.5,35.0,1,1.0,0.2375009999998383
529,27,0.5,0.25,-35.0,-1,1.0,0.27100099999984195
530,27,0.5,0.25,-35.0,-1,1.0,0.2377009999997881
531,27,0.5,1.0,35.0,1,1.0,0.31110100000000784
532,27,0.5,0.5,35.0,1,1.0,0.25120099999980994
533,27,0.5,0.25,35.0,1,1.0,0.4111009999999169
534,27,0.5,0.5,35.0,1,1.0,0.364500999999791
535,27,0.5,0.5,35.0,1,1.0,0.22790099999997437
536,27,0.5,0.25,-35.0,-1,1.0,0.31150099999968006
537,27,0.5,0.5,-35.0,-1,1.0,0.23820099999988997
538,27,0.5,1.0,-35.0,-1,1.0,0.211500999999771
539,27,0.5,1.0,35.0,1,1.0,0.5415009999999256
540,27,0.5,0.25,35.0,-1,0.0,0.685001000000284
541,27,0.6,0.25,35.0,1,1.0,0.2585010000002512
542,27,0.5,0.5,35.0,1,1.0,0.25860099999999875
543,27,0.5,0.25,-35.0,-1,1.0,0.24860100000023522
544,27,0.5,1.0,35.0,1,1.0,0.2288010000002032
545,27,0.5,0.25,-35.0,-1,1.0,0.248801000000185
546,27,0.5,0.25,35.0,1,1.0,0.27550100000053135
547,27,0.5,0.5,-35.0,-1,1.0,0.2724009999997179
548,27,0.5,0.5,35.0,1,1.0,0.2690010000001166
549,27,0.5,0.25,35.0,1,1.0,0.38910100000020975
550,27,0.5,0.5,35.0,1,1.0,0.31920099999979357
551,27,0.5,0.25,35.0,1,1.0,0.2528010000000904
552,27,0.5,0.25,35.0,1,1.0,0.23620100000016464
553,27,0.5,0.5,35.0,1,1.0,0.25950100000045495
554,27,0.5,0.5,-35.0,-1,1.0,0.2330010000000584
555,27,0.5,0.25,-35.0,-1,1.0,0.4464010000001508
556,27,0.5,1.0,35.0,1,1.0,0.249800999999934
557,27,0.5,0.25,-35.0,-1,1.0,0.2865010000004986
558,27,0.5,0.25,-35.0,-1,1.0,0.37990099999979066
559,27,0.5,0.25,-35.0,-1,1.0,0.2259009999997943
560,27,0.5,0.25,35.0,1,1.0,0.2791010000000824
561,27,0.5,1.0,35.0,1,1.0,0.22570100000029925
562,27,0.5,0.5,35.0,1,1.0,0.2294010000000526
563,27,0.5,0.25,35.0,1,1.0,0.23550099999965823
564,27,0.5,1.0,35.0,1,1.0,0.2528010000000904
565,27,0.5,0.5,35.0,1,1.0,0.23940100000027087
566,27,0.5,1.0,-35.0,-1,1.0,0.3297010000001137
567,27,0.5,1.0,35.0,1,1.0,0.24970100000018647
568,27,0.5,1.0,-35.0,-1,1.0,0.22280099999989034
569,27,0.5,1.0,-35.0,-1,1.0,0.22660099999984595
570,27,0.5,0.5,-35.0,-1,1.0,0.23980100000017046
571,27,0.5,0.5,35.0,1,1.0,0.24320100000022649
572,27,0.5,1.0,35.0,1,1.0,0.24330100000042876
573,27,0.5,1.0,-35.0,-1,1.0,0.21990100000039092
574,27,0.5,0.25,35.0,-1,0.0,0.31380099999978484
575,27,0.4,0.25,35.0,1,1.0,0.2270010000002003
576,27,0.5,0.5,35.0,1,1.0,0.22030099999983577
577,27,0.5,0.5,-35.0,-1,1.0,0.22020100000008824
578,27,0.5,0.25,35.0,1,1.0,0.23700099999996382
579,27,0.5,1.0,-35.0,-1,1.0,0.290501000000404
580,27,0.5,0.25,-35.0,-1,1.0,0.4005010000000766
581,27,0.5,1.0,35.0,1,1.0,0.24730099999987942
582,27,0.5,0.5,35.0,1,1.0,0.22450100000014572
583,27,0.5,1.0,-35.0,-1,1.0,0.23090099999990343
584,27,0.5,0.25,-35.0,-1,1.0,0.2376009999998132
585,27,0.5,0.5,35.0,1,1.0,0.3677010000001246
586,27,0.5,0.5,-35.0,-1,1.0,0.35110100000019884
587,27,0.5,0.25,35.0,1,1.0,0.3645010000000184
588,27,0.5,0.25,-35.0,-1,1.0,0.25430099999994127
589,27,0.5,0.25,-35.0,-1,1.0,0.4444010000001981
590,27,0.5,0.25,35.0,1,1.0,0.23830099999986487
591,27,0.5,0.25,35.0,1,1.0,0.2481010000005881
592,27,0.5,1.0,35.0,1,1.0,0.23480100000006132
593,27,0.5,1.0,-35.0,-1,1.0,0.26850100000001476
594,27,0.5,1.0,35.0,1,1.0,0.25470099999984086
595,27,0.5,0.25,35.0,1,1.0,0.36180100000001403
596,27,0.5,1.0,-35.0,-1,1.0,0.20830100000011953
597,27,0.5,1.0,35.0,1,1.0,0.1917010000006485
598,27,0.5,0.25,35.0,1,1.0,0.21490099999982704
599,27,0.5,1.0,-35.0,-1,1.0,0.21170100000017555
600,27,0.5,1.0,35.0,1,1.0,0.2620010000000548
601,27,0.5,0.5,-35.0,-1,1.0,0.24530100000038146
602,27,0.5,1.0,35.0,1,1.0,0.20580100000006496
603,27,0.5,0.25,35.0,-1,0.0,0.8253010000003087
604,27,0.6,0.25,35.0,1,1.0,0.34540100000003804
605,27,0.5,1.0,-35.0,-1,1.0,0.24250100000017483
606,27,0.5,0.25,-35.0,-1,1.0,0.4024010000002818
607,27,0.5,0.25,35.0,1,1.0,0.32250100000010207
608,27,0.5,0.25,-35.0,-1,1.0,0.33580099999971935
609,27,0.5,0.5,35.0,1,1.0,0.21920099999988452
610,27,0.5,0.5,-35.0,-1,1.0,0.38960099999985687
611,27,0.5,1.0,-35.0,-1,1.0,0.26280099999985396
612,27,0.5,0.5,-35.0,-1,1.0,0.36610100000052626
613,27,0.5,1.0,-35.0,-1,1.0,0.2595010000000002
614,27,0.5,1.0,-35.0,-1,1.0,0.23610100000041712
615,27,0.5,0.5,35.0,1,1.0,0.3297010000001137
616,27,0.5,0.5,-35.0,-1,1.0,0.2733010000001741
617,27,0.5,0.25,35.0,1,1.0,0.2600009999996473
618,27,0.5,0.5,35.0,1,1.0,0.32310099999995145
619,27,0.5,1.0,35.0,1,1.0,0.2738009999998212
620,27,0.5,0.25,-35.0,-1,1.0,0.6969009999997979
621,27,0.5,1.0,35.0,1,1.0,0.27350100000057864
622,27,0.5,1.0,35.0,1,1.0,0.31020100000023376
623,27,0.5,0.25,35.0,1,1.0,0.23390100000005987
624,27,0.5,1.0,-35.0,-1,1.0,0.33050100000036764
625,27,0.5,0.5,35.0,-1,0.0,20.19350100000065
626,27,0.6,0.5,35.0,-1,0.0,17.43770100000029
627,27,0.6,0.5,35.0,-1,0.0,12.605201000000307
628,27,0.5,0.5,35.0,-1,0.0,4.875101000000086
629,27,0.4,0.5,35.0,-1,0.0,3.688800999999785
630,27,0.3,0.5,35.0,1,1.0,0.39220099999965896
631,27,0.5,1.0,35.0,-1,0.0,14.625301000000036
632,27,0.5,0.25,35.0,-1,0.0,3.255800999999792
633,27,0.2,0.25,35.0,-1,0.0,30.39610100000027
634,27,0.5,1.0,-35.0,-1,1.0,0.223500999999942
635,27,0.5,0.5,35.0,-1,0.0,0.9103009999998903
636,27,0.1,0.5,35.0,1,1.0,0.44370100000014645
637,27,0.5,1.0,35.0,1,1.0,0.2514009999999871
638,27,0.5,0.25,35.0,1,1.0,0.40710100000023886
639,27,0.5,0.5,-35.0,-1,1.0,0.25030100000003586
640,27,0.5,0.5,-35.0,-1,1.0,0.30700100000012753
641,27,0.5,1.0,35.0,1,1.0,0.21800100000018574
642,27,0.5,0.5,-35.0,-1,1.0,0.2110010000001239
643,27,0.5,0.5,-35.0,-1,1.0,0.23110100000030798
644,27,0.5,1.0,35.0,1,1.0,0.23770100000047023
645,27,0.5,0.25,-35.0,-1,1.0,0.40770000000020445
646,27,0.5,0.5,-35.0,-1,1.0,0.25810100000035163
647,27,0.5,0.5,-35.0,-1,1.0,0.214701000000332
648,27,0.5,0.5,-35.0,-1,1.0,0.19810099999995145
649,27,0.5,1.0,35.0,1,1.0,0.44440099999974336
650,27,0.5,0.5,-35.0,-1,1.0,0.2049010000000635
651,27,0.5,0.25,-35.0,-1,1.0,0.23830100000031962
652,27,0.5,0.25,35.0,1,1.0,0.26820100000031744
653,27,0.5,0.5,-35.0,-1,1.0,0.23820100000011735
654,27,0.5,1.0,35.0,1,1.0,0.31500099999993836
655,27,0.5,0.5,-35.0,-1,1.0,0.261801000000105
656,27,0.5,0.25,35.0,-1,0.0,12.901800999999978
657,27,0.3,0.25,35.0,-1,0.0,37.20530099999996
658,27,0.5,0.5,35.0,1,1.0,3.999800999999934
659,27,0.5,1.0,35.0,-1,0.0,23.509801000000152
660,27,0.5,0.25,35.0,-1,0.0,8.100300999999945
661,27,0.5,0.25,-35.0,-1,1.0,0.3240009999999529
662,27,0.5,0.5,-35.0,-1,1.0,0.296900999999707
663,27,0.5,1.0,-35.0,-1,1.0,0.2239009999998416
664,27,0.5,1.0,-35.0,-1,1.0,0.20740100000011807
665,27,0.5,0.5,35.0,-1,0.0,0.26390100000025996
666,27,0.5,0.25,-35.0,-1,1.0,0.25090099999988524
667,27,0.5,0.25,-35.0,-1,1.0,0.3211010000004535
668,27,0.5,1.0,-35.0,-1,1.0,0.27140100000042366
669,27,0.5,0.25,35.0,-1,0.0,2.9981010000001334
670,27,0.0,0.25,35.0,-1,0.0,8.95160100000021
671,27,0.5,1.0,35.0,1,1.0,0.30530099999987215
672,27,0.5,1.0,35.0,-1,0.0,12.151900999999725
673,27,0.5,0.25,-35.0,1,0.0,4.76580100000001
674,27,0.2,0.25,35.0,-1,0.0,6.252300999999989
675,27,0.5,0.5,35.0,-1,0.0,5.459601000000021
676,27,0.2,0.5,35.0,1,1.0,3.329801000000316
677,27,0.5,0.5,35.0,-1,0.0,22.359800999999607
678,27,0.3,0.5,35.0,-1,0.0,22.846901000000344
679,27,0.3,0.5,35.0,-1,0.0,11.317601000000195
680,27,0.3,0.5,-35.0,-1,1.0,0.21770100000003367
681,27,0.5,0.5,35.0,1,1.0,0.34820099999978993
682,27,0.5,1.0,35.0,1,1.0,0.3281010000000606
683,27,0.5,1.0,-35.0,-1,1.0,0.2215009999999893
684,27,0.5,0.5,35.0,-1,0.0,13.711601000000428
685,27,0.5,0.25,35.0,-1,0.0,5.3955009999999675
686,27,0.5,0.25,-35.0,-1,1.0,0.22550100000034945
687,27,0.5,1.0,35.0,-1,0.0,11.842301000000134
688,27,0.5,0.25,-35.0,-1,1.0,0.29910100000006423
689,27,0.5,0.5,-35.0,-1,1.0,0.2626010000003589
690,27,0.5,1.0,35.0,-1,0.0,31.88260100000025
691,27,0.5,0.25,35.0,-1,0.0,31.947801000000254
692,27,0.1,0.25,35.0,-1,0.0,0.3844010000002527
693,27,0.5,1.0,-35.0,-1,1.0,0.4141010000003007
694,27,0.5,0.25,35.0,-1,0.0,37.90100100000018
695,27,0.0,0.25,35.0,1,1.0,0.2986010000004171
696,27,0.5,0.5,35.0,1,1.0,4.085001000000375
697,27,0.5,0.25,-35.0,-1,1.0,0.2452010000001792
698,27,0.5,0.5,-35.0,-1,1.0,0.2255009999998947
699,27,0.5,1.0,35.0,1,1.0,0.21570100000008097
700,27,0.5,0.5,35.0,1,1.0,0.3224009999998998
701,27,0.5,0.5,-35.0,-1,1.0,0.2159010000004855
702,27,0.5,1.0,35.0,1,1.0,0.305800999999974
703,27,0.5,1.0,35.0,1,1.0,0.2620010000000548
704,27,0.5,0.25,-35.0,-1,1.0,0.26550100000031307
705,27,0.5,0.5,-35.0,-1,1.0,0.24650100000008024
706,27,0.5,0.5,-35.0,-1,1.0,0.2929010000002563
707,27,0.5,0.5,-35.0,-1,1.0,0.27280100000007224
708,27,0.5,0.5,-35.0,-1,1.0,0.2530010000000402
709,27,0.5,1.0,35.0,1,1.0,0.3227010000005066
710,27,0.5,1.0,-35.0,-1,1.0,0.249800999999934
711,27,0.5,1.0,35.0,1,1.0,4.369901000000027
712,27,0.5,0.5,-35.0,-1,1.0,28.63980100000026
713,27,0.5,0.25,-35.0,-1,1.0,52.91060100000004
714,27,0.5,0.25,35.0,-1,0.0,9.705201000000216
715,27,0.2,0.25,35.0,1,1.0,1.3385010000001785
1,28,0.5,0.25,-35.0,-1,1.0,0.2233999999999996
2,28,0.5,1.0,-35.0,-1,1.0,0.2676999999999996
3,28,0.5,1.0,-35.0,-1,1.0,0.42820000000000036
4,28,0.5,0.5,35.0,-1,0.0,3.6836
5,28,0.6,0.5,-35.0,-1,1.0,0.20609999999999928
6,28,0.5,0.5,-35.0,-1,1.0,0.25439999999999685
7,28,0.5,1.0,-35.0,-1,1.0,0.24610000000000198
8,28,0.5,0.5,-35.0,-1,1.0,0.3313999999999986
9,28,0.5,0.25,-35.0,-1,1.0,0.2591000000000001
10,28,0.5,0.25,35.0,-1,0.0,0.44490000000000407
11,28,0.0,0.25,35.0,-1,0.0,1.4281000000000006
12,28,0.5,1.0,35.0,-1,0.0,0.4305000000000021
13,28,0.5,0.25,35.0,-1,0.0,0.24230000000000018
14,28,0.5,0.25,-35.0,-1,1.0,0.23169999999999646
15,28,0.5,1.0,-35.0,-1,1.0,0.4017999999999944
16,28,0.5,0.25,-35.0,-1,1.0,0.5731000000000037
17,28,0.5,0.5,-35.0,-1,1.0,0.27420000000000044
18,28,0.5,0.25,35.0,-1,0.0,3.48810000000001
19,28,0.0,0.25,35.0,-1,0.0,2.6898000000000053
20,28,0.5,1.0,35.0,-1,0.0,0.8239999999999981
21,28,0.5,0.25,-35.0,-1,1.0,0.20959999999999468
22,28,0.5,0.25,35.0,-1,0.0,1.306200000000004
23,28,0.0,0.25,35.0,-1,0.0,0.8788999999999874
24,28,0.5,0.5,35.0,-1,0.0,2.589499999999987
25,28,0.5,0.25,-35.0,-1,1.0,0.23319999999999652
26,28,0.5,0.25,35.0,-1,0.0,0.2657999999999987
27,28,0.5,0.25,-35.0,-1,1.0,0.34369999999998413
28,28,0.5,0.5,35.0,-1,0.0,1.5592999999999932
29,28,0.0,0.5,35.0,-1,0.0,6.472899999999996
30,28,0.0,0.5,35.0,-1,0.0,3.0170999999999992
31,28,0.0,0.5,35.0,-1,0.0,0.9185999999999979
32,28,0.0,0.5,-35.0,-1,1.0,0.24879999999996016
33,28,0.5,0.5,35.0,-1,0.0,4.569400000000002
34,28,0.5,0.25,-35.0,-1,1.0,0.34890000000001464
35,28,0.5,1.0,-35.0,-1,1.0,0.37280000000001223
36,28,0.5,0.25,35.0,-1,0.0,3.5449999999999875
37,28,0.0,0.25,-35.0,-1,1.0,0.2501000000000033
38,28,0.5,1.0,35.0,-1,0.0,1.5936000000000092
39,28,0.5,0.25,35.0,-1,0.0,0.122099999999989
40,28,0.0,0.25,35.0,-1,0.0,0.6011000000000024
41,28,0.5,0.5,35.0,-1,0.0,0.848399999999998
42,28,0.0,0.5,35.0,1,1.0,0.32730000000000814
43,28,0.5,1.0,35.0,-1,0.0,5.847699999999975
44,28,0.5,0.25,-35.0,-1,1.0,0.24589999999997758
45,28,0.5,1.0,35.0,-1,0.0,1.2753999999999905
46,28,0.5,0.25,-35.0,-1,1.0,0.2545999999999822
47,28,0.5,0.5,35.0,-1,0.0,0.6059999999999945
48,28,0.5,0.25,35.0,-1,0.0,2.9196000000000026
49,28,0.1,0.25,-35.0,-1,1.0,0.2565999999999917
50,28,0.5,0.5,35.0,-1,0.0,2.8178000000000054
51,28,0.1,0.5,35.0,-1,0.0,0.8519999999999754
52,28,0.1,0.5,35.0,-1,0.0,0.7090000000000032
53,28,0.0,0.5,-35.0,-1,1.0,0.22419999999999618
54,28,0.5,1.0,35.0,-1,0.0,2.562999999999988
55,28,0.0,1.0,35.0,-1,0.0,10.972699999999946
56,28,0.0,1.0,-35.0,-1,1.0,0.22950000000003
57,28,0.5,0.5,35.0,-1,0.0,1.2735999999999876
58,28,0.5,0.25,35.0,-1,0.0,0.48670000000004165
59,28,0.0,0.25,35.0,-1,0.0,1.0622999999999934
60,28,0.5,1.0,35.0,-1,0.0,0.7501000000000886
61,28,0.0,1.0,35.0,-1,0.0,0.7886000000000308
62,28,0.0,1.0,35.0,-1,0.0,5.659100000000024
63,28,0.0,1.0,35.0,-1,0.0,0.4171000000000049
64,28,0.0,1.0,35.0,-1,0.0,0.7430999999999699
65,28,0.0,1.0,35.0,-1,0.0,0.7700000000000387
66,28,0.0,1.0,35.0,-1,0.0,0.3462000000000103
67,28,0.0,1.0,35.0,-1,0.0,0.3699000000000865
68,28,0.0,1.0,-35.0,-1,1.0,0.3480000000000132
69,28,0.5,1.0,35.0,-1,0.0,4.777000000000044
70,28,0.0,1.0,-35.0,-1,1.0,0.23730000000006157
71,28,0.5,0.5,35.0,-1,0.0,2.5048000000000457
72,28,0.5,0.25,-35.0,-1,1.0,0.19060000000001764
73,28,0.5,1.0,-35.0,-1,1.0,0.2388000000000261
74,28,0.5,1.0,35.0,-1,0.0,6.6153999999999655
75,28,0.0,1.0,35.0,-1,0.0,0.6753999999999678
76,28,0.0,1.0,35.0,-1,0.0,1.7312000000000012
77,28,0.0,1.0,-35.0,-1,1.0,0.32799999999997453
78,28,0.5,1.0,35.0,-1,0.0,1.3494000000000597
79,28,0.5,0.25,35.0,-1,0.0,0.3834000000000515
80,28,0.5,0.25,-35.0,-1,1.0,0.26340000000004693
81,28,0.5,0.5,35.0,-1,0.0,0.43050000000005184
82,28,0.5,0.25,-35.0,-1,1.0,0.2417000000000371
83,28,0.5,0.5,35.0,-1,0.0,5.5061000000000035
84,28,0.0,0.5,35.0,-1,0.0,0.27930000000003474
85,28,0.0,0.5,35.0,-1,0.0,0.6850000000000591
86,28,0.0,0.5,35.0,-1,0.0,3.4168000000000234
87,28,0.0,0.5,35.0,-1,0.0,0.5118000000000507
88,28,0.0,0.5,35.0,-1,0.0,3.18119999999999
89,28,0.0,0.5,35.0,-1,0.0,0.7584000000000515
90,28,0.0,0.5,35.0,-1,0.0,0.8509999999999991
91,28,0.0,0.5,35.0,-1,0.0,3.1847000000000207
92,28,0.0,0.5,-35.0,-1,1.0,0.26659999999998263
93,28,0.5,1.0,35.0,-1,0.0,0.47560000000004266
94,28,0.5,0.25,-35.0,-1,1.0,0.2358000000000402
95,28,0.5,0.5,-35.0,-1,1.0,0.2697000000000003
96,28,0.5,0.5,35.0,-1,0.0,0.41890000000006467
97,28,0.0,0.5,35.0,-1,0.0,5.215000000000032
98,28,0.0,0.5,35.0,-1,0.0,6.336200000000076
99,28,0.0,0.5,35.0,-1,0.0,0.1874000000000251
100,28,0.0,0.5,35.0,-1,0.0,4.107500000000016
101,28,0.0,0.5,35.0,-1,0.0,4.9452
102,28,0.0,0.5,35.0,-1,0.0,0.2991999999999848
103,28,0.0,0.5,35.0,-1,0.0,6.303100000000029
104,28,0.0,0.5,35.0,-1,0.0,0.3319000000000756
105,28,0.0,0.5,35.0,-1,0.0,1.3068999999999278
106,28,0.0,0.5,35.0,-1,0.0,3.1037000000000035
107,28,0.0,0.5,-35.0,-1,1.0,0.23879999999996926
108,28,0.5,1.0,35.0,-1,0.0,0.2261999999998352
109,28,0.5,0.25,35.0,-1,0.0,0.5613000000000739
110,28,0.5,0.25,35.0,-1,0.0,0.2623999999999569
111,28,0.0,0.25,35.0,-1,0.0,1.1767999999999574
112,28,0.5,0.5,35.0,-1,0.0,0.7939999999999827
113,28,0.0,0.5,35.0,-1,0.0,0.5955999999998767
114,28,0.0,0.5,35.0,-1,0.0,2.1135000000000446
115,28,0.0,0.5,35.0,-1,0.0,0.3451999999999771
116,28,0.0,0.5,35.0,-1,0.0,1.7437999999999647
117,28,0.0,0.5,35.0,1,1.0,0.39829999999994925
118,28,0.5,0.5,35.0,-1,0.0,5.282999999999902
119,28,0.1,0.5,35.0,-1,0.0,1.884999999999991
120,28,0.1,0.5,35.0,-1,0.0,0.41390000000001237
121,28,0.1,0.5,35.0,-1,0.0,0.7173999999999978
122,28,0.1,0.5,35.0,-1,0.0,0.4034000000000333
123,28,0.1,0.5,-35.0,-1,1.0,0.25689999999997326
124,28,0.5,0.5,35.0,-1,0.0,4.760999999999967
125,28,0.5,0.25,-35.0,-1,1.0,0.2565999999998212
126,28,0.5,0.5,-35.0,-1,1.0,0.5434999999999945
127,28,0.5,0.25,-35.0,-1,1.0,0.32989999999995234
128,28,0.5,0.5,-35.0,-1,1.0,0.3430000000000746
129,28,0.5,0.25,-35.0,-1,1.0,0.4391000000000531
130,28,0.5,1.0,-35.0,-1,1.0,0.3224999999999909
131,28,0.5,1.0,35.0,-1,0.0,4.224299999999971
132,28,0.5,0.25,35.0,-1,0.0,0.3250000000000455
133,28,0.0,0.25,35.0,-1,0.0,0.47689999999988686
134,28,0.5,1.0,35.0,-1,0.0,0.33019999999987704
135,28,0.0,1.0,35.0,-1,0.0,5.329699999999889
136,28,0.0,1.0,-35.0,-1,1.0,0.24110000000007403
137,28,0.5,0.5,35.0,-1,0.0,10.456700000000069
138,28,0.0,0.5,35.0,-1,0.0,0.2944999999999709
139,28,0.0,0.5,-35.0,-1,1.0,0.2400000000000091
140,28,0.5,1.0,35.0,-1,0.0,1.6263000000000147
141,28,0.5,0.25,35.0,-1,0.0,6.0405000000000655
142,28,0.0,0.25,35.0,-1,0.0,3.2782999999999447
143,28,0.5,1.0,35.0,-1,0.0,2.727100000000064
144,28,0.0,1.0,35.0,-1,0.0,0.3929000000000542
145,28,0.0,1.0,35.0,-1,0.0,7.63919999999996
146,28,0.0,1.0,35.0,-1,0.0,0.4046000000000731
147,28,0.0,1.0,-35.0,-1,1.0,0.23749999999984084
148,28,0.5,0.5,35.0,-1,0.0,38.23099999999988
149,28,0.0,0.5,35.0,-1,0.0,6.466099999999983
150,28,0.0,0.5,35.0,-1,0.0,0.5674999999999955
151,28,0.0,0.5,-35.0,-1,1.0,0.3366999999999507
152,28,0.5,0.5,35.0,-1,0.0,2.1407999999998992
153,28,0.0,0.5,35.0,-1,0.0,0.2880999999999858
154,28,0.0,0.5,35.0,-1,0.0,0.32759999999996126
155,28,0.0,0.5,35.0,-1,0.0,3.411299999999869
156,28,0.0,0.5,35.0,-1,0.0,0.3045000000000755
157,28,0.0,0.5,35.0,-1,0.0,0.44679999999993925
158,28,0.0,0.5,35.0,1,1.0,0.3368999999999005
159,28,0.5,0.5,35.0,-1,0.0,4.129598999999871
160,28,0.1,0.5,35.0,-1,0.0,0.37630000000001473
161,28,0.1,0.5,-35.0,-1,1.0,0.2821999999999889
162,28,0.5,0.5,35.0,-1,0.0,0.5947000000001026
163,28,0.5,0.25,35.0,-1,0.0,0.5154999999999745
164,28,0.1,0.25,35.0,-1,0.0,0.4500000000000455
165,28,0.5,0.5,35.0,-1,0.0,3.5703999999999496
166,28,0.1,0.5,35.0,-1,0.0,0.7188999999999623
167,28,0.1,0.5,35.0,-1,0.0,4.45679999999993
168,28,0.1,0.5,35.0,-1,0.0,0.2603999999998905
169,28,0.0,0.5,-35.0,-1,1.0,0.24500000000000455
170,28,0.5,0.5,35.0,-1,0.0,0.2603000000000293
171,28,0.0,0.5,35.0,-1,0.0,0.31589999999994234
172,28,0.0,0.5,35.0,-1,0.0,0.26929999999993015
173,28,0.0,0.5,35.0,-1,0.0,1.8092000000000326
174,28,0.0,0.5,35.0,-1,0.0,0.8823999999999614
175,28,0.0,0.5,35.0,-1,0.0,0.7118999999999005
176,28,0.0,0.5,35.0,-1,0.0,3.585199999999986
177,28,0.0,0.5,35.0,-1,0.0,0.5141999999999598
178,28,0.0,0.5,35.0,-1,0.0,4.0575000000000045
179,28,0.0,0.5,35.0,-1,0.0,2.7169000000000096
180,28,0.0,0.5,35.0,-1,0.0,2.323099999999954
181,28,0.0,0.5,35.0,-1,0.0,0.6277000000000044
182,28,0.0,0.5,35.0,-1,0.0,0.9759999999999991
183,28,0.0,0.5,35.0,-1,0.0,2.168700000000058
184,28,0.0,0.5,-35.0,-1,1.0,0.2884999999998854
185,28,0.5,0.5,35.0,-1,0.0,0.8720999999999322
186,28,0.0,0.5,35.0,-1,0.0,0.42669999999998254
187,28,0.0,0.5,35.0,-1,0.0,0.2442999999999529
188,28,0.0,0.5,35.0,-1,0.0,5.190299999999866
189,28,0.0,0.5,35.0,-1,0.0,0.34619999999995343
190,28,0.0,0.5,35.0,-1,0.0,3.727300000000014
191,28,0.0,0.5,35.0,-1,0.0,0.3465999999999667
192,28,0.0,0.5,35.0,-1,0.0,3.2906999999999016
193,28,0.0,0.5,35.0,-1,0.0,5.9266999999999825
194,28,0.0,0.5,-35.0,-1,1.0,0.2645999999999731
195,28,0.5,0.5,35.0,-1,0.0,1.2872999999999593
196,28,0.5,0.25,35.0,-1,0.0,9.501299999999901
197,28,0.5,0.25,35.0,-1,0.0,4.934400000000096
198,28,0.0,0.25,35.0,-1,0.0,4.7021000000002005
199,28,0.5,1.0,35.0,-1,0.0,1.1481999999998607
200,28,0.0,1.0,-35.0,-1,1.0,0.26890000000003056
201,28,0.5,1.0,35.0,-1,0.0,0.6385999999999967
202,28,0.0,1.0,35.0,-1,0.0,1.722400000000107
203,28,0.0,1.0,35.0,-1,0.0,0.378400000000056
204,28,0.0,1.0,35.0,-1,0.0,7.50610000000006
205,28,0.0,1.0,35.0,-1,0.0,0.47199999999998
206,28,0.0,1.0,35.0,-1,0.0,0.40300000000002
207,28,0.0,1.0,35.0,-1,0.0,0.7322000000001481
208,28,0.0,1.0,35.0,-1,0.0,0.2232000000001335
209,28,0.0,1.0,35.0,-1,0.0,0.2922000000000935
210,28,0.0,1.0,35.0,-1,0.0,6.013500000000022
211,28,0.0,1.0,35.0,-1,0.0,0.6692000000000462
212,28,0.0,1.0,35.0,-1,0.0,0.3037000000001626
213,28,0.0,1.0,35.0,-1,0.0,0.6334000000001652
214,28,0.0,1.0,35.0,-1,0.0,0.6440000000000055
215,28,0.0,1.0,35.0,-1,0.0,0.6067000000000462
216,28,0.0,1.0,-35.0,-1,1.0,0.2474000000001979
217,28,0.5,1.0,35.0,-1,0.0,0.3664000000001124
218,28,0.0,1.0,35.0,-1,0.0,0.4642999999998665
219,28,0.0,1.0,35.0,-1,0.0,0.3670000000001892
220,28,0.0,1.0,35.0,-1,0.0,0.2878000000002885
221,28,0.0,1.0,-35.0,-1,1.0,0.29700000000002547
222,28,0.5,1.0,35.0,-1,0.0,4.57120000000009
223,28,0.5,0.25,35.0,-1,0.0,0.3371999999999389
224,28,0.0,0.25,35.0,-1,0.0,7.364800000000059
225,28,0.5,0.5,35.0,-1,0.0,0.34730000000013206
226,28,0.0,0.5,35.0,-1,0.0,3.4353000000000975
227,28,0.0,0.5,35.0,-1,0.0,0.47109999999997854
228,28,0.0,0.5,35.0,-1,0.0,4.495599999999968
229,28,0.0,0.5,35.0,-1,0.0,0.33150000000000546
230,28,0.0,0.5,35.0,-1,0.0,0.2692000000001826
231,28,0.0,0.5,35.0,-1,0.0,1.7083000000002357
232,28,0.0,0.5,35.0,-1,0.0,2.4360999999998967
233,28,0.0,0.5,35.0,-1,0.0,0.46860000000015134
234,28,0.0,0.5,35.0,-1,0.0,2.286400000000185
235,28,0.0,0.5,35.0,-1,0.0,0.8388999999999669
236,28,0.0,0.5,35.0,1,1.0,0.3632000000000062
237,28,0.5,1.0,35.0,-1,0.0,4.689099999999826
238,28,0.1,1.0,35.0,-1,0.0,6.723399999999856
239,28,0.1,1.0,35.0,-1,0.0,0.646199999999908
240,28,0.1,1.0,35.0,-1,0.0,0.7771000000002459
241,28,0.1,1.0,35.0,-1,0.0,0.8229000000001179
242,28,0.1,1.0,35.0,-1,0.0,2.4007000000001426
243,28,0.1,1.0,35.0,-1,0.0,7.900100000000066
244,28,0.1,1.0,35.0,-1,0.0,8.387699999999995
245,28,0.1,1.0,35.0,-1,0.0,6.850500000000011
246,28,0.1,1.0,35.0,-1,0.0,0.6614999999999327
247,28,0.0,1.0,35.0,-1,0.0,0.32080000000019027
248,28,0.0,1.0,35.0,-1,0.0,3.568500000000313
249,28,0.0,1.0,35.0,-1,0.0,0.5674999999998818
250,28,0.0,1.0,-35.0,-1,1.0,0.2584999999999127
251,28,0.5,1.0,35.0,-1,0.0,1.217600000000175
252,28,0.0,1.0,35.0,-1,0.0,0.3322000000000571
253,28,0.0,1.0,35.0,-1,0.0,2.7614000000003216
254,28,0.0,1.0,35.0,-1,0.0,11.992300000000114
255,28,0.0,1.0,35.0,-1,0.0,9.881900000000087
256,28,0.0,1.0,35.0,-1,0.0,6.483000000000175
257,28,0.0,1.0,35.0,-1,0.0,0.31900000000018736
258,28,0.0,1.0,-35.0,-1,1.0,0.2300000000000182
259,28,0.5,0.5,35.0,-1,0.0,9.205799999999954
260,28,0.0,0.5,35.0,-1,0.0,6.6871000000001
261,28,0.0,0.5,35.0,-1,0.0,5.116999999999962
262,28,0.0,0.5,35.0,-1,0.0,3.9541999999999007
263,28,0.0,0.5,35.0,-1,0.0,21.09310000000005
264,28,0.0,0.5,35.0,-1,0.0,7.128199999999879
265,28,0.0,0.5,35.0,-1,0.0,0.8706999999999425
266,28,0.0,0.5,35.0,-1,0.0,2.9885000000001583
267,28,0.0,0.5,-35.0,-1,1.0,0.25090000000000146
268,28,0.5,1.0,35.0,-1,0.0,8.502199999999903
269,28,0.0,1.0,35.0,-1,0.0,8.438599999999951
270,28,0.0,1.0,35.0,-1,0.0,0.3660000000002128
271,28,0.0,1.0,35.0,-1,0.0,2.8319000000001324
272,28,0.0,1.0,35.0,-1,0.0,0.7996000000000549
273,28,0.0,1.0,35.0,-1,0.0,0.3787999999999556
274,28,0.0,1.0,35.0,-1,0.0,4.593000000000075
275,28,0.0,1.0,35.0,-1,0.0,0.445699999999988
276,28,0.0,1.0,35.0,-1,0.0,1.8200000000001637
277,28,0.0,1.0,35.0,-1,0.0,1.9992000000002008
278,28,0.0,1.0,35.0,-1,0.0,5.793700000000172
279,28,0.0,1.0,35.0,-1,0.0,0.4897999999998319
280,28,0.0,1.0,35.0,-1,0.0,0.3705999999999676
281,28,0.0,1.0,35.0,-1,0.0,0.3895999999999731
282,28,0.0,1.0,35.0,-1,0.0,5.48739999999998
283,28,0.0,1.0,-35.0,-1,1.0,0.23700000000008004
284,28,0.5,0.5,35.0,-1,0.0,4.831000000000131
285,28,0.0,0.5,35.0,-1,0.0,4.1935000000000855
286,28,0.0,0.5,35.0,-1,0.0,3.1214000000002216
287,28,0.0,0.5,35.0,-1,0.0,7.417400000000271
288,28,0.0,0.5,35.0,-1,0.0,0.488399999999956
289,28,0.0,0.5,35.0,-1,0.0,0.4111000000000331
290,28,0.0,0.5,-35.0,-1,1.0,0.31529999999997926
291,28,0.5,1.0,35.0,-1,0.0,7.8539999999998145
292,28,0.0,1.0,35.0,-1,0.0,16.975600000000213
293,28,0.0,1.0,35.0,-1,0.0,9.338400000000092
294,28,0.0,1.0,35.0,-1,0.0,6.273100000000113
295,28,0.0,1.0,35.0,-1,0.0,0.27890000000002146
296,28,0.0,1.0,35.0,-1,0.0,0.1934000000001106
297,28,0.0,1.0,35.0,-1,0.0,0.24260000000003856
298,28,0.0,1.0,35.0,-1,0.0,1.4802000000001954
299,28,0.0,1.0,35.0,-1,0.0,4.426100000000133
300,28,0.0,1.0,35.0,-1,0.0,7.823899999999867
301,28,0.0,1.0,35.0,-1,0.0,4.533200000000079
302,28,0.0,1.0,35.0,-1,0.0,15.657799999999952
303,28,0.0,1.0,35.0,-1,0.0,4.82080000000019
304,28,0.0,1.0,35.0,-1,0.0,1.0650000000000546
305,28,0.0,1.0,35.0,-1,0.0,0.2908999999999651
306,28,0.0,1.0,35.0,-1,0.0,0.7151000000001204
307,28,0.0,1.0,35.0,-1,0.0,5.594500000000153
308,28,0.0,1.0,35.0,-1,0.0,11.615400000000136
309,28,0.0,1.0,35.0,-1,0.0,0.39830000000006294
310,28,0.0,1.0,35.0,-1,0.0,3.826000000000022
311,28,0.0,1.0,35.0,-1,0.0,2.615099999999984
312,28,0.0,1.0,-35.0,-1,1.0,0.2795000000000982
313,28,0.5,1.0,35.0,-1,0.0,0.46890000000007603
314,28,0.5,0.25,35.0,-1,0.0,0.36300000000028376
315,28,0.0,0.25,35.0,-1,0.0,0.7920999999998912
316,28,0.5,1.0,35.0,-1,0.0,7.906600000000026
317,28,0.0,1.0,35.0,-1,0.0,0.24290000000019063
318,28,0.0,1.0,35.0,-1,0.0,5.083599999999933
319,28,0.0,1.0,35.0,-1,0.0,6.119799999999941
320,28,0.0,1.0,35.0,-1,0.0,1.9406999999998789
321,28,0.0,1.0,35.0,-1,0.0,0.37990000000013424
322,28,0.0,1.0,35.0,-1,0.0,11.257599999999911
323,28,0.0,1.0,35.0,-1,0.0,3.0769000000000233
324,28,0.0,1.0,35.0,-1,0.0,5.338100000000168
325,28,0.0,1.0,35.0,-1,0.0,13.030698999999913
326,28,0.0,1.0,35.0,-1,0.0,0.3586999999999989
327,28,0.0,1.0,35.0,-1,0.0,0.4712000000001808
328,28,0.0,1.0,35.0,-1,0.0,0.32880000000022847
329,28,0.0,1.0,35.0,-1,0.0,1.5777000000000498
330,28,0.0,1.0,35.0,-1,0.0,0.5024000000000797
331,28,0.0,1.0,35.0,-1,0.0,0.5784000000001015
332,28,0.0,1.0,35.0,-1,0.0,21.642599999999902
333,28,0.0,1.0,-35.0,-1,1.0,0.2618999999999687
334,28,0.5,0.5,35.0,-1,0.0,8.543099999999868
335,28,0.0,0.5,35.0,-1,0.0,8.852499999999964
336,28,0.0,0.5,35.0,-1,0.0,0.2738000000003922
337,28,0.0,0.5,35.0,-1,0.0,4.482899999999972
338,28,0.0,0.5,35.0,-1,0.0,4.157400000000052
339,28,0.0,0.5,35.0,-1,0.0,0.3065000000001419
340,28,0.0,0.5,35.0,-1,0.0,0.3376000000002932
341,28,0.0,0.5,35.0,-1,0.0,0.33019999999987704
342,28,0.0,0.5,35.0,-1,0.0,0.26440000000047803
343,28,0.0,0.5,35.0,-1,0.0,7.480000000000018
344,28,0.0,0.5,35.0,-1,0.0,7.704699999999775
345,28,0.0,0.5,35.0,-1,0.0,0.26729999999997744
346,28,0.0,0.5,35.0,-1,0.0,0.26510000000007494
347,28,0.0,0.5,35.0,-1,0.0,0.29759999999987485
348,28,0.0,0.5,35.0,-1,0.0,0.2586999999998625
349,28,0.0,0.5,35.0,-1,0.0,0.43120000000044456
350,28,0.0,0.5,35.0,-1,0.0,6.7521999999999025
351,28,0.0,0.5,35.0,-1,0.0,9.291400000000067
352,28,0.0,0.5,35.0,-1,0.0,2.6992999999997664
353,28,0.0,0.5,35.0,-1,0.0,9.81500000000051
354,28,0.0,0.5,-35.0,-1,1.0,0.2563000000000102
355,28,0.5,0.5,35.0,-1,0.0,0.21549999999979264
356,28,0.0,0.5,-35.0,-1,1.0,0.3631000000000313
357,28,0.5,0.5,35.0,-1,0.0,3.10550000000012
358,28,0.0,0.5,35.0,-1,0.0,0.3432999999999993
359,28,0.0,0.5,35.0,-1,0.0,1.8427999999998974
360,28,0.0,0.5,35.0,-1,0.0,1.4603000000006432
361,28,0.0,0.5,-35.0,-1,1.0,0.24270000000024083
362,28,0.5,1.0,35.0,-1,0.0,3.193699999999808
363,28,0.0,1.0,35.0,-1,0.0,0.3431000000000495
364,28,0.0,1.0,35.0,-1,0.0,0.9008000000003449
365,28,0.0,1.0,35.0,-1,0.0,3.9398999999998523
366,28,0.0,1.0,35.0,-1,0.0,0.2577000000001135
367,28,0.0,1.0,35.0,-1,0.0,2.054099999999835
368,28,0.0,1.0,35.0,-1,0.0,1.8079000000002452
369,28,0.0,1.0,35.0,-1,0.0,0.39049999999997453
370,28,0.0,1.0,35.0,-1,0.0,0.40140000000019427
371,28,0.0,1.0,35.0,-1,0.0,6.800600000000031
372,28,0.0,1.0,-35.0,-1,1.0,0.27520000000004075
373,28,0.5,1.0,35.0,-1,0.0,3.9544000000005326
374,28,0.5,0.25,35.0,-1,0.0,0.30540000000019063
375,28,0.5,0.25,35.0,-1,0.0,4.56439999999975
376,28,0.0,0.25,35.0,-1,0.0,6.882400000000416
377,28,0.5,1.0,35.0,-1,0.0,4.23510000000033
378,28,0.0,1.0,-35.0,-1,1.0,0.3196000000002641
379,28,0.5,0.5,35.0,-1,0.0,3.808600000000297
380,28,0.5,0.25,-35.0,-1,1.0,0.27640000000019427
381,28,0.5,0.5,-35.0,-1,1.0,0.2757000000001426
382,28,0.5,1.0,-35.0,-1,1.0,0.2331000000003769
383,28,0.5,1.0,35.0,-1,0.0,2.638800000000174
384,28,0.5,0.25,-35.0,-1,1.0,0.2701000000001841
385,28,0.5,0.25,-35.0,-1,1.0,0.28969999999981155
386,28,0.5,0.25,-35.0,-1,1.0,0.48030000000017026
387,28,0.5,0.25,-35.0,-1,1.0,0.4960000000000946
388,28,0.5,0.5,35.0,-1,0.0,4.356999999999971
389,28,0.0,0.5,35.0,-1,0.0,0.4895000000001346
390,28,0.0,0.5,35.0,-1,0.0,0.2806000000000495
391,28,0.0,0.5,35.0,-1,0.0,0.3031000000005406
392,28,0.0,0.5,35.0,-1,0.0,0.2674000000001797
393,28,0.0,0.5,-35.0,-1,1.0,0.2232000000003609
394,28,0.5,0.5,35.0,-1,0.0,2.6709999999998217
395,28,0.5,0.25,-35.0,-1,1.0,0.25680000000011205
396,28,0.5,1.0,-35.0,-1,1.0,0.28110000000015134
397,28,0.5,0.5,-35.0,-1,1.0,0.34400000000005093
398,28,0.5,1.0,35.0,-1,0.0,3.6579999999999018
399,28,0.5,0.25,35.0,-1,0.0,0.3073999999996886
400,28,0.5,0.25,35.0,-1,0.0,0.5281999999997424
401,28,0.0,0.25,35.0,-1,0.0,0.28110000000015134
402,28,0.5,1.0,35.0,-1,0.0,4.768499999999676
403,28,0.0,1.0,35.0,-1,0.0,0.23109999999996944
404,28,0.0,1.0,35.0,-1,0.0,0.521900000000187
405,28,0.0,1.0,35.0,-1,0.0,2.0783000000001266
406,28,0.0,1.0,35.0,-1,0.0,0.5421999999998661
407,28,0.0,1.0,35.0,-1,0.0,2.1183999999998377
408,28,0.0,1.0,35.0,-1,0.0,2.712499999999636
409,28,0.0,1.0,35.0,-1,0.0,0.3985000000002401
410,28,0.0,1.0,35.0,-1,0.0,1.606000000000222
411,28,0.0,1.0,-35.0,-1,1.0,0.258900000000267
412,28,0.5,1.0,35.0,-1,0.0,2.722900000000209
413,28,0.5,0.25,35.0,-1,0.0,7.5021999999999025
414,28,0.0,0.25,-35.0,-1,1.0,0.4067000000000007
415,28,0.5,1.0,35.0,-1,0.0,4.4891999999999825
416,28,0.5,0.25,-35.0,-1,1.0,0.23030000000017026
417,28,0.5,0.25,35.0,-1,0.0,5.199200000000019
418,28,0.0,0.25,35.0,-1,0.0,0.28710000000000946
419,28,0.5,0.5,35.0,-1,0.0,0.40980000000035943
420,28,0.0,0.5,35.0,-1,0.0,0.2739000000001397
421,28,0.0,0.5,35.0,-1,0.0,0.6700000000000728
422,28,0.0,0.5,-35.0,-1,1.0,0.30090000000018335
423,28,0.5,0.5,35.0,-1,0.0,4.370199999999841
424,28,0.0,0.5,35.0,-1,0.0,0.31770000000005894
425,28,0.0,0.5,35.0,-1,0.0,0.40039999999999054
426,28,0.0,0.5,35.0,-1,0.0,6.34479999999985
427,28,0.0,0.5,35.0,-1,0.0,17.180500000000393
428,28,0.0,0.5,35.0,-1,0.0,0.7420999999999367
429,28,0.0,0.5,-35.0,-1,1.0,0.23500000000012733
430,28,0.5,1.0,35.0,-1,0.0,7.612300000000232
431,28,0.5,0.25,-35.0,-1,1.0,0.24479999999994106
432,28,0.5,0.5,35.0,-1,0.0,0.28929999999991196
433,28,0.0,0.5,35.0,-1,0.0,0.48210000000017317
434,28,0.0,0.5,35.0,-1,0.0,4.412900000000263
435,28,0.0,0.5,35.0,-1,0.0,0.3121000000001004
436,28,0.0,0.5,35.0,-1,0.0,5.209800000000087
437,28,0.0,0.5,35.0,-1,0.0,0.6857000000004518
438,28,0.0,0.5,35.0,-1,0.0,0.5534000000002379
439,28,0.0,0.5,-35.0,-1,1.0,0.24949999999989814
440,28,0.5,1.0,35.0,-1,0.0,5.396799999999985
441,28,0.5,0.25,-35.0,-1,1.0,0.4531000000001768
442,28,0.5,0.5,35.0,-1,0.0,0.6970999999998639
443,28,0.5,0.25,35.0,-1,0.0,1.6201000000000931
444,28,0.5,0.25,35.0,-1,0.0,1.7507000000000517
445,28,0.0,0.25,35.0,-1,0.0,2.230000000000018
446,28,0.5,1.0,35.0,-1,0.0,0.3176000000003114
447,28,0.0,1.0,35.0,-1,0.0,10.149899999999889
448,28,0.0,1.0,35.0,-1,0.0,0.8247000000001208
449,28,0.0,1.0,-35.0,-1,1.0,0.2440999999998894
450,28,0.5,0.5,35.0,-1,0.0,3.084900000000289
451,28,0.5,0.25,-35.0,-1,1.0,0.25109999999995125
452,28,0.5,0.5,35.0,-1,0.0,5.041800000000421
453,28,0.0,0.5,35.0,-1,0.0,2.6343000000001666
454,28,0.0,0.5,35.0,-1,0.0,0.34540000000015425
455,28,0.0,0.5,-35.0,-1,1.0,0.24120000000039
456,28,0.5,1.0,35.0,-1,0.0,4.02559999999994
457,28,0.5,0.25,35.0,-1,0.0,2.8784000000005108
458,28,0.0,0.25,-35.0,-1,1.0,0.3091999999996915
459,28,0.5,1.0,35.0,-1,0.0,1.008299999999963
460,28,0.0,1.0,35.0,-1,0.0,3.386199999999917
461,28,0.0,1.0,35.0,-1,0.0,0.8587999999999738
462,28,0.0,1.0,35.0,-1,0.0,0.286200000000008
463,28,0.0,1.0,35.0,-1,0.0,0.7590999999997621
464,28,0.0,1.0,35.0,-1,0.0,0.6200000000003456
465,28,0.0,1.0,35.0,-1,0.0,4.175699999999779
466,28,0.0,1.0,35.0,-1,0.0,0.6434999999996762
467,28,0.0,1.0,35.0,-1,0.0,0.44630000000006476
468,28,0.0,1.0,35.0,-1,0.0,0.38380000000006476
469,28,0.0,1.0,35.0,-1,0.0,0.4432999999999083
470,28,0.0,1.0,35.0,-1,0.0,3.0106000000000677
471,28,0.0,1.0,35.0,-1,0.0,0.2863999999999578
472,28,0.0,1.0,-35.0,-1,1.0,0.26410000000032596
473,28,0.5,0.5,35.0,-1,0.0,11.400200000000495
474,28,0.0,0.5,35.0,-1,0.0,0.561200000000099
475,28,0.0,0.5,-35.0,-1,1.0,0.22739999999976135
476,28,0.5,1.0,35.0,-1,0.0,4.998199999999997
477,28,0.0,1.0,-35.0,-1,1.0,0.34760000000005675
478,28,0.5,0.5,35.0,-1,0.0,6.7116000000000895
479,28,0.0,0.5,35.0,-1,0.0,5.021300000000338
480,28,0.0,0.5,35.0,-1,0.0,8.252100000000155
481,28,0.0,0.5,-35.0,-1,1.0,0.2646999999997206
482,28,0.5,0.5,35.0,-1,0.0,4.195799999999963
483,28,0.0,0.5,-35.0,-1,1.0,0.2586999999998625
484,28,0.5,0.5,35.0,-1,0.0,0.4859999999998763
485,28,0.5,0.25,-35.0,-1,1.0,0.2620999999999185
486,28,0.5,0.25,-35.0,-1,1.0,0.27959999999984575
487,28,0.5,0.25,35.0,-1,0.0,5.355599999999868
488,28,0.5,0.25,-35.0,-1,1.0,0.28650000000016007
489,28,0.5,0.25,35.0,-1,0.0,13.42950000000019
490,28,0.0,0.25,35.0,-1,0.0,0.2768999999998414
491,28,0.5,0.5,35.0,-1,0.0,0.3259000000002743
492,28,0.5,0.25,35.0,-1,0.0,2.703700000000481
493,28,0.5,0.25,35.0,-1,0.0,0.4066000000002532
494,28,0.0,0.25,35.0,-1,0.0,0.4839000000001761
495,28,0.5,0.5,35.0,-1,0.0,0.3564000000001215
496,28,0.0,0.5,35.0,-1,0.0,0.9708000000000538
497,28,0.0,0.5,35.0,-1,0.0,1.5369000000000597
498,28,0.0,0.5,35.0,-1,0.0,0.8278000000000247
499,28,0.0,0.5,35.0,-1,0.0,2.3771999999999025
500,28,0.0,0.5,35.0,-1,0.0,0.26789999999982683
501,28,0.0,0.5,35.0,-1,0.0,4.377200000000357
502,28,0.0,0.5,-35.0,-1,1.0,0.25820000000021537
503,28,0.5,0.5,35.0,-1,0.0,5.744200000000092
504,28,0.0,0.5,-35.0,-1,1.0,0.275300000000243
505,28,0.5,1.0,35.0,-1,0.0,9.454200000000128
506,28,0.0,1.0,35.0,-1,0.0,0.31570000000010623
507,28,0.0,1.0,35.0,-1,0.0,10.851799999999912
508,28,0.0,1.0,35.0,-1,0.0,9.46939999999995
509,28,0.0,1.0,35.0,-1,0.0,9.98219999999992
510,28,0.0,1.0,35.0,-1,0.0,8.046700000000328
511,28,0.0,1.0,35.0,-1,0.0,0.16300000000001091
512,28,0.0,1.0,35.0,-1,0.0,0.1770000000001346
513,28,0.0,1.0,35.0,-1,0.0,0.3827000000001135
514,28,0.0,1.0,-35.0,-1,1.0,0.21720000000004802
515,28,0.5,0.5,35.0,-1,0.0,5.769800000000487
516,28,0.0,0.5,35.0,-1,0.0,0.2974000000003798
517,28,0.0,0.5,35.0,-1,0.0,2.393000000000029
518,28,0.0,0.5,35.0,-1,0.0,0.68100000000004
519,28,0.0,0.5,35.0,-1,0.0,3.376900000000205
520,28,0.0,0.5,35.0,-1,0.0,15.651200000000244
521,28,0.0,0.5,35.0,-1,0.0,0.8507000000004155
522,28,0.0,0.5,-35.0,-1,1.0,0.35170000000016444
523,28,0.5,0.5,35.0,-1,0.0,1.9710000000000036
524,28,0.0,0.5,-35.0,-1,1.0,0.25520000000005894
525,28,0.5,1.0,35.0,-1,0.0,4.741299999999683
526,28,0.0,1.0,35.0,-1,0.0,5.318899999999758
527,28,0.0,1.0,35.0,-1,0.0,5.9054000000001
528,28,0.0,1.0,35.0,-1,0.0,0.31260000000020227
529,28,0.0,1.0,35.0,-1,0.0,0.2848999999996522
530,28,0.0,1.0,35.0,-1,0.0,9.92280000000028
531,28,0.0,1.0,35.0,-1,0.0,0.35530000000017026
532,28,0.0,1.0,35.0,-1,0.0,19.11310000000003
533,28,0.0,1.0,35.0,-1,0.0,1.289600000000064
534,28,0.0,1.0,35.0,-1,0.0,1.5171000000000276
535,28,0.0,1.0,35.0,-1,0.0,2.082900000000336
536,28,0.0,1.0,35.0,-1,0.0,0.43730000000050495
537,28,0.0,1.0,35.0,-1,0.0,1.1165999999998348
538,28,0.0,1.0,35.0,-1,0.0,1.384200000000419
539,28,0.0,1.0,35.0,-1,0.0,0.41000000000030923
540,28,0.0,1.0,35.0,-1,0.0,2.5742999999997664
541,28,0.0,1.0,35.0,-1,0.0,1.0270000000004984
542,28,0.0,1.0,35.0,-1,0.0,0.28809999999975844
543,28,0.0,1.0,35.0,-1,0.0,4.27390000000014
544,28,0.0,1.0,35.0,-1,0.0,0.3350000000000364
545,28,0.0,1.0,35.0,-1,0.0,1.2876000000001113
546,28,0.0,1.0,35.0,-1,0.0,0.29840000000058353
547,28,0.0,1.0,35.0,-1,0.0,6.72440000000006
548,28,0.0,1.0,-35.0,-1,1.0,0.25549999999975626
549,28,0.5,0.5,35.0,-1,0.0,1.4046000000003005
550,28,0.5,0.25,35.0,-1,0.0,0.3123000000000502
551,28,0.0,0.25,35.0,-1,0.0,0.3649000000000342
552,28,0.5,0.5,35.0,-1,0.0,2.332600000000184
553,28,0.0,0.5,35.0,-1,0.0,0.2784999999998945
554,28,0.0,0.5,35.0,-1,0.0,0.34600000000000364
555,28,0.0,0.5,35.0,-1,0.0,0.6056000000003223
556,28,0.0,0.5,35.0,-1,0.0,8.562900000000354
557,28,0.0,0.5,35.0,-1,0.0,3.582499999999982
558,28,0.0,0.5,35.0,-1,0.0,0.31660000000056243
559,28,0.0,0.5,35.0,-1,0.0,4.692400000000362
560,28,0.0,0.5,35.0,-1,0.0,2.6170999999999367
561,28,0.0,0.5,35.0,-1,0.0,4.636500000000069
562,28,0.0,0.5,35.0,-1,0.0,0.35730000000012296
563,28,0.0,0.5,35.0,-1,0.0,0.3101000000001477
564,28,0.0,0.5,35.0,-1,0.0,0.41420000000016444
565,28,0.0,0.5,35.0,-1,0.0,0.3669999999997344
566,28,0.0,0.5,35.0,-1,0.0,8.427700000000186
567,28,0.0,0.5,35.0,-1,0.0,0.3202000000001135
568,28,0.0,0.5,35.0,-1,0.0,5.591500000000451
569,28,0.0,0.5,35.0,-1,0.0,4.4442000000003645
570,28,0.0,0.5,35.0,-1,0.0,3.6885000000002037
571,28,0.0,0.5,35.0,-1,0.0,0.29799999999977445
572,28,0.0,0.5,35.0,-1,0.0,9.988599999999678
573,28,0.0,0.5,-35.0,-1,1.0,0.321400000000267
574,28,0.5,1.0,35.0,-1,0.0,2.35570000000007
575,28,0.0,1.0,35.0,-1,0.0,0.2685999999998785
576,28,0.0,1.0,35.0,-1,0.0,0.2626999999997679
577,28,0.0,1.0,-35.0,-1,1.0,0.2355000000002292
578,28,0.5,1.0,35.0,-1,0.0,5.319500000000062
579,28,0.0,1.0,35.0,-1,0.0,0.3222000000000662
580,28,0.0,1.0,-35.0,-1,1.0,0.24640000000044893
581,28,0.5,0.5,35.0,-1,0.0,8.999100000000453
582,28,0.5,0.25,-35.0,-1,1.0,0.21019999999998618
583,28,0.5,0.5,-35.0,-1,1.0,0.2199000000000524
584,28,0.5,0.25,-35.0,-1,1.0,0.2636000000002241
585,28,0.5,0.25,-35.0,-1,1.0,0.44679999999971187
586,28,0.5,0.25,35.0,-1,0.0,4.423800000000028
587,28,0.5,0.25,35.0,-1,0.0,0.6026999999999134
588,28,0.0,0.25,35.0,-1,0.0,0.26060000000006767
589,28,0.5,0.5,35.0,-1,0.0,6.883400000000165
590,28,0.0,0.5,-35.0,-1,1.0,0.19440000000031432
591,28,0.5,1.0,35.0,-1,0.0,4.3836999999998625
592,28,0.5,0.25,-35.0,-1,1.0,0.24470000000019354
593,28,0.5,0.25,-35.0,-1,1.0,0.3105000000000473
594,28,0.5,0.5,-35.0,-1,1.0,0.24159999999983484
595,28,0.5,0.25,-35.0,-1,1.0,0.5741000000002714
596,28,0.5,0.25,35.0,-1,0.0,0.49830000000019936
597,28,0.5,0.25,-35.0,-1,1.0,0.277400000000398
598,28,0.5,0.5,-35.0,-1,1.0,0.23519900000019334
599,28,0.5,1.0,-35.0,-1,1.0,0.32090000000016516
600,28,0.5,0.25,35.0,-1,0.0,0.3220000000001164
601,28,0.0,0.25,35.0,-1,0.0,0.28470000000015716
602,28,0.5,1.0,35.0,-1,0.0,0.2721000000001368
603,28,0.0,1.0,35.0,-1,0.0,2.717800000000352
604,28,0.0,1.0,35.0,-1,0.0,2.372399999999743
605,28,0.0,1.0,35.0,-1,0.0,0.355199999999968
606,28,0.0,1.0,-35.0,-1,1.0,0.2893000000003667
607,28,0.5,1.0,35.0,-1,0.0,2.005000000000109
608,28,0.0,1.0,35.0,-1,0.0,2.002899999999954
609,28,0.0,1.0,35.0,-1,0.0,7.045700000000124
610,28,0.0,1.0,35.0,-1,0.0,2.5098000000002685
611,28,0.0,1.0,35.0,-1,0.0,0.31890000000021246
612,28,0.0,1.0,-35.0,-1,1.0,0.25
613,28,0.5,0.5,35.0,-1,0.0,7.589200000000346
614,28,0.5,0.25,35.0,-1,0.0,5.927099999999882
615,28,0.0,0.25,35.0,-1,0.0,0.2699000000002343
616,28,0.5,1.0,35.0,-1,0.0,8.714200000000346
617,28,0.5,0.25,-35.0,-1,1.0,0.28690000000005966
618,28,0.5,0.5,35.0,-1,0.0,10.994400000000041
619,28,0.5,0.25,35.0,-1,0.0,3.673801000000367
620,28,0.0,0.25,35.0,-1,0.0,7.631601000000046
621,28,0.5,0.5,35.0,-1,0.0,0.3010010000002694
622,28,0.0,0.5,35.0,-1,0.0,1.131901000000198
623,28,0.0,0.5,35.0,-1,0.0,2.7177010000000337
624,28,0.0,0.5,35.0,-1,0.0,0.38890100000025996
625,28,0.0,0.5,-35.0,-1,1.0,0.22160000000030777
626,28,0.5,0.5,35.0,-1,0.0,0.26580100000046514
627,28,0.5,0.25,35.0,-1,0.0,0.3150010000003931
628,28,0.0,0.25,35.0,-1,0.0,0.4225010000000111
629,28,0.5,0.5,35.0,-1,0.0,0.6385010000003604
630,28,0.0,0.5,35.0,-1,0.0,3.396100999999817
631,28,0.0,0.5,-35.0,-1,1.0,0.255301000000145
632,28,0.5,1.0,35.0,-1,0.0,0.37310100000013335
633,28,0.0,1.0,35.0,-1,0.0,0.2790010000003349
634,28,0.0,1.0,35.0,-1,0.0,3.5632009999999354
635,28,0.0,1.0,35.0,-1,0.0,8.066001000000142
636,28,0.0,1.0,35.0,-1,0.0,0.34700100000009115
637,28,0.0,1.0,35.0,-1,0.0,4.062801000000036
638,28,0.0,1.0,35.0,-1,0.0,0.21060099999976956
639,28,0.0,1.0,35.0,1,1.0,1.1834010000002309
640,28,0.5,0.5,35.0,-1,0.0,3.8642009999998663
641,28,0.1,0.5,-35.0,-1,1.0,0.2735010000001239
642,28,0.5,0.5,35.0,-1,0.0,10.931201000000328
643,28,0.1,0.5,-35.0,-1,1.0,0.27740099999982704
644,28,0.5,1.0,35.0,-1,0.0,5.5348009999997885
645,28,0.5,0.25,-35.0,-1,1.0,0.29740099999980885
646,28,0.5,0.25,-35.0,-1,1.0,0.36520100000007005
647,28,0.5,1.0,35.0,-1,0.0,7.114701000000423
648,28,0.5,0.25,-35.0,-1,1.0,0.2688010000001668
649,28,0.5,0.25,35.0,-1,0.0,11.62090100000023
650,28,0.0,0.25,35.0,-1,0.0,7.255901000000449
651,28,0.5,1.0,35.0,-1,0.0,0.2820010000000366
652,28,0.0,1.0,35.0,-1,0.0,8.522901000000275
653,28,0.0,1.0,35.0,-1,0.0,19.802700999999615
654,28,0.0,1.0,35.0,-1,0.0,0.3170010000003458
655,28,0.0,1.0,35.0,-1,0.0,2.1696009999986927
656,28,0.0,1.0,-35.0,-1,1.0,0.28710099999989325
657,28,0.5,0.5,35.0,-1,0.0,8.226400999998987
658,28,0.0,0.5,35.0,-1,0.0,0.3109009999989212
659,28,0.0,0.5,35.0,-1,0.0,3.7738009999993665
660,28,0.0,0.5,35.0,-1,0.0,0.2145009999994727
661,28,0.0,0.5,35.0,-1,0.0,7.93380100000013
662,28,0.0,0.5,35.0,-1,0.0,1.3549009999996997
663,28,0.0,0.5,35.0,-1,0.0,11.954400999999962
664,28,0.0,0.5,35.0,-1,0.0,3.782100999999784
665,28,0.0,0.5,35.0,-1,0.0,4.878000999999131
666,28,0.0,0.5,35.0,-1,0.0,1.6323009999987335
667,28,0.0,0.5,35.0,-1,0.0,0.2850009999992835
668,28,0.0,0.5,35.0,-1,0.0,0.526000999999269
669,28,0.0,0.5,35.0,-1,0.0,12.808800999999221
670,28,0.0,0.5,-35.0,-1,1.0,0.24310099999911472
671,28,0.5,1.0,35.0,-1,0.0,1.542500999999902
672,28,0.0,1.0,35.0,-1,0.0,0.25660099999913655
673,28,0.0,1.0,35.0,-1,0.0,0.1560009999993781
674,28,0.0,1.0,35.0,-1,0.0,0.28010099999937665
675,28,0.0,1.0,-35.0,-1,1.0,0.2292010000001028
676,28,0.5,1.0,35.0,-1,0.0,9.253600999999435
677,28,0.5,0.25,35.0,-1,0.0,0.20320099999935337
678,28,0.5,0.25,35.0,-1,0.0,0.36730099999931554
679,28,0.5,0.25,-35.0,-1,1.0,0.2534009999999398
680,28,0.5,1.0,-35.0,-1,1.0,0.26760099999955855
681,28,0.5,1.0,-35.0,-1,1.0,0.23380099999940285
682,28,0.5,1.0,35.0,-1,0.0,5.547700999999506
683,28,0.0,1.0,-35.0,-1,1.0,0.23060099999929662
684,28,0.5,0.5,35.0,-1,0.0,0.8680009999989124
685,28,0.0,0.5,35.0,-1,0.0,0.2572009999994407
686,28,0.0,0.5,35.0,-1,0.0,0.35150099999918893
687,28,0.0,0.5,-35.0,-1,1.0,0.27100099999915983
688,28,0.5,1.0,35.0,-1,0.0,5.921800999999505
689,28,0.0,1.0,35.0,-1,0.0,2.3172009999989314
690,28,0.0,1.0,35.0,-1,0.0,0.26210100000025705
691,28,0.0,1.0,35.0,-1,0.0,0.12780099999963568
692,28,0.0,1.0,35.0,-1,0.0,3.348900999999387
693,28,0.0,1.0,35.0,-1,0.0,0.27490099999977247
694,28,0.0,1.0,-35.0,-1,1.0,0.2524009999997361
695,28,0.5,1.0,35.0,-1,0.0,4.195400999999947
696,28,0.0,1.0,35.0,-1,0.0,0.3060009999990143
697,28,0.0,1.0,35.0,-1,0.0,7.448700999999346
698,28,0.0,1.0,35.0,-1,0.0,4.5097009999990405
699,28,0.0,1.0,35.0,-1,0.0,0.27870099999927334
700,28,0.0,1.0,35.0,-1,0.0,6.97320099999979
701,28,0.0,1.0,35.0,-1,0.0,0.3530009999994945
702,28,0.0,1.0,-35.0,-1,1.0,0.3170009999994363
703,28,0.5,1.0,35.0,-1,0.0,4.343000999999276
704,28,0.0,1.0,35.0,-1,0.0,8.830700999999863
705,28,0.0,1.0,-35.0,-1,1.0,0.20020100000056118
706,28,0.5,0.5,35.0,-1,0.0,0.35100099999999657
707,28,0.0,0.5,35.0,-1,0.0,0.31360099999983504
708,28,0.0,0.5,35.0,-1,0.0,0.32460100000025705
709,28,0.0,0.5,35.0,-1,0.0,0.33050100000036764
710,28,0.0,0.5,35.0,-1,0.0,1.9946009999994203
711,28,0.0,0.5,35.0,-1,0.0,1.2535009999992326
712,28,0.0,0.5,35.0,-1,0.0,0.26500100000066595
713,28,0.0,0.5,35.0,-1,0.0,2.304000999998607
714,28,0.0,0.5,35.0,-1,0.0,0.28850099999908707
715,28,0.0,0.5,-35.0,-1,1.0,0.31760099999883096
716,28,0.5,1.0,35.0,-1,0.0,0.3553009999995993
717,28,0.5,0.25,-35.0,-1,1.0,0.22800099999949452
718,28,0.5,0.25,-35.0,-1,1.0,0.2788009999994756
719,28,0.5,0.25,35.0,-1,0.0,5.284700999998677
720,28,0.5,0.25,-35.0,-1,1.0,0.24250099999972008
721,28,0.5,0.25,35.0,-1,0.0,6.38510099999985
722,28,0.0,0.25,35.0,-1,0.0,6.246200999999019
723,28,0.5,1.0,35.0,-1,0.0,3.575500999999349
724,28,0.0,1.0,35.0,-1,0.0,0.3465009999990798
725,28,0.0,1.0,35.0,-1,0.0,1.0125009999992471
726,28,0.0,1.0,35.0,-1,0.0,2.463400999999976
727,28,0.0,1.0,35.0,-1,0.0,9.466200999999273
728,28,0.0,1.0,35.0,-1,0.0,0.4306010000000242
729,28,0.0,1.0,35.0,-1,0.0,0.3166009999995367
730,28,0.0,1.0,35.0,-1,0.0,2.410800999999992
731,28,0.0,1.0,35.0,-1,0.0,0.9069010000002891
732,28,0.0,1.0,35.0,-1,0.0,3.0776009999999587
733,28,0.0,1.0,35.0,-1,0.0,0.2670009999992544
734,28,0.0,1.0,35.0,-1,0.0,0.3013010000004215
735,28,0.0,1.0,35.0,-1,0.0,0.3736009999993257
736,28,0.0,1.0,-35.0,-1,1.0,0.2582009999996444
737,28,0.5,0.5,35.0,-1,0.0,13.724100999999791
738,28,0.0,0.5,35.0,-1,0.0,0.2752009999994698
739,28,0.0,0.5,35.0,-1,0.0,16.22450099999969
740,28,0.0,0.5,35.0,-1,0.0,5.282401000000391
741,28,0.0,0.5,35.0,-1,0.0,0.28530099999989034
742,28,0.0,0.5,35.0,-1,0.0,2.046000999998796
743,28,0.0,0.5,-35.0,-1,1.0,0.23890100000062375
744,28,0.5,0.5,35.0,-1,0.0,3.0129010000000562
745,28,0.5,0.25,-35.0,-1,1.0,0.22890099999949598
746,28,0.5,0.5,35.0,-1,0.0,0.3832010000005539
747,28,0.5,0.25,-35.0,-1,1.0,0.22600099999908707
748,28,0.5,0.25,35.0,-1,0.0,6.380000999999538
749,28,0.0,0.25,35.0,-1,0.0,0.1626009999999951
750,28,0.5,1.0,35.0,-1,0.0,0.373700999999528
751,28,0.5,0.25,35.0,-1,0.0,3.859400999999707
752,28,0.0,0.25,-35.0,-1,1.0,0.24400100000002567
753,28,0.5,0.5,35.0,-1,0.0,16.003200999998626
754,28,0.0,0.5,35.0,-1,0.0,0.7178009999988717
755,28,0.0,0.5,35.0,-1,0.0,0.4869010000002163
756,28,0.0,0.5,35.0,-1,0.0,0.2880009999998947
757,28,0.0,0.5,35.0,-1,0.0,1.810500999999931
758,28,0.0,0.5,35.0,-1,0.0,7.6382009999997535
759,28,0.0,0.5,35.0,-1,0.0,4.520900999999867
760,28,0.0,0.5,35.0,-1,0.0,0.2954010000003109
761,28,0.0,0.5,-35.0,-1,1.0,0.24140100000022358
762,28,0.5,0.5,35.0,-1,0.0,1.8821009999992384
763,28,0.5,0.25,35.0,-1,0.0,0.30840100000023085
764,28,0.0,0.25,35.0,-1,0.0,1.4491010000001552
765,28,0.5,0.5,35.0,-1,0.0,0.2483009999996284
766,28,0.5,0.25,35.0,-1,0.0,4.566000999999233
767,28,0.0,0.25,35.0,-1,0.0,9.095000999999684
768,28,0.5,0.5,35.0,-1,0.0,0.26320099999975355
769,28,0.0,0.5,-35.0,-1,1.0,0.2524009999988266
770,28,0.5,0.5,35.0,-1,0.0,6.273301000000174
771,28,0.0,0.5,35.0,-1,0.0,0.23280099999919912
772,28,0.0,0.5,35.0,-1,0.0,2.777001000000382
773,28,0.0,0.5,35.0,-1,0.0,0.24970099999973172
774,28,0.0,0.5,-35.0,-1,1.0,0.24380099999962113
775,28,0.5,1.0,35.0,-1,0.0,10.77980099999968
776,28,0.5,0.25,-35.0,-1,1.0,0.23420100000021193
777,28,0.5,1.0,35.0,-1,0.0,0.25330099999973754
1,29,0.5,1.0,35.0,-1,0.0,0.25959999999999983
2,29,0.9,1.0,-35.0,-1,1.0,0.22479999999999922
3,29,0.5,0.5,35.0,-1,0.0,4.502200000000002
4,29,0.7,0.5,-35.0,-1,1.0,0.24129999999999896
5,29,0.5,1.0,-35.0,-1,1.0,0.2169999999999952
6,29,0.5,0.5,35.0,1,1.0,0.5691009999999999
7,29,0.5,0.25,35.0,-1,0.0,5.232600999999999
8,29,0.5,0.25,35.0,-1,0.0,4.0425010000000015
9,29,0.3,0.25,-35.0,-1,1.0,1.220600999999995
10,29,0.5,0.5,-35.0,-1,1.0,0.2099010000000021
11,29,0.5,0.5,-35.0,-1,1.0,0.39170099999999763
12,29,0.5,1.0,35.0,1,1.0,0.45790099999999967
13,29,0.5,0.5,35.0,1,1.0,0.40360099999999477
14,29,0.5,0.25,35.0,1,1.0,0.41740099999999813
15,29,0.5,0.5,35.0,1,1.0,0.48940100000000086
16,29,0.5,1.0,-35.0,-1,1.0,0.25930099999999356
17,29,0.5,1.0,35.0,1,1.0,0.5084010000000063
18,29,0.5,0.5,-35.0,-1,1.0,0.39080099999998197
19,29,0.5,0.25,-35.0,-1,1.0,0.32240099999998506
20,29,0.5,0.5,-35.0,-1,1.0,0.6211009999999959
21,29,0.5,1.0,-35.0,-1,1.0,0.27370100000000264
22,29,0.5,0.5,-35.0,-1,1.0,0.8746009999999984
23,29,0.5,0.5,-35.0,-1,1.0,0.4568009999999987
24,29,0.5,0.25,35.0,1,1.0,0.4417009999999948
25,29,0.5,0.25,-35.0,-1,1.0,0.2818009999999873
26,29,0.5,1.0,-35.0,-1,1.0,0.3931010000000015
27,29,0.5,0.5,35.0,-1,0.0,2.1790009999999995
28,29,0.5,0.25,-35.0,-1,1.0,0.25100100000000225
29,29,0.5,0.5,35.0,1,1.0,0.5163009999999986
30,29,0.5,0.25,-35.0,-1,1.0,0.39950100000000077
31,29,0.5,1.0,-35.0,-1,1.0,0.2892010000000056
32,29,0.5,0.25,-35.0,-1,1.0,1.2179009999999977
33,29,0.5,0.25,-35.0,-1,1.0,0.4253010000000046
34,29,0.5,0.5,35.0,-1,0.0,1.7500009999999975
35,29,0.5,0.25,35.0,-1,0.0,0.24410100000000057
36,29,0.5,0.25,-35.0,-1,1.0,0.9916010000000028
37,29,0.5,0.25,-35.0,-1,1.0,0.3208009999999888
38,29,0.5,1.0,35.0,1,1.0,0.46000100000000543
39,29,0.5,1.0,35.0,-1,0.0,2.8622010000000273
40,29,0.5,0.25,35.0,-1,0.0,0.2402010000000132
41,29,0.5,0.25,35.0,-1,0.0,0.23130100000000198
42,29,0.1,0.25,35.0,-1,0.0,0.5485010000000159
43,29,0.5,1.0,35.0,1,1.0,11.386201
44,29,0.5,1.0,35.0,1,1.0,1.2218009999999992
45,29,0.5,1.0,-35.0,-1,1.0,0.2951010000000167
46,29,0.5,0.5,-35.0,-1,1.0,0.2326010000000167
47,29,0.5,1.0,35.0,1,1.0,0.4375009999999975
48,29,0.5,0.5,35.0,1,1.0,0.44720100000003526
49,29,0.5,0.25,35.0,-1,0.0,0.6446010000000229
50,29,0.5,0.25,-35.0,-1,1.0,0.3313010000000247
51,29,0.5,0.25,35.0,1,1.0,0.3294010000000185
52,29,0.5,1.0,35.0,1,1.0,0.43730100000001926
53,29,0.5,1.0,-35.0,-1,1.0,0.39710099999999215
54,29,0.5,0.25,-35.0,-1,1.0,0.393700999999993
55,29,0.5,0.5,-35.0,-1,1.0,0.2209009999999978
56,29,0.5,0.25,-35.0,-1,1.0,0.7573010000000124
57,29,0.5,1.0,-35.0,-1,1.0,0.36660100000003126
58,29,0.5,1.0,35.0,1,1.0,0.35380100000000425
59,29,0.5,1.0,35.0,1,1.0,0.446801000000022
60,29,0.5,0.25,-35.0,-1,1.0,0.34900100000001544
61,29,0.5,1.0,-35.0,-1,1.0,0.26980100000000107
62,29,0.5,1.0,35.0,1,1.0,0.971601000000021
63,29,0.5,1.0,-35.0,-1,1.0,0.40330100000002744
64,29,0.5,0.25,-35.0,-1,1.0,0.3931010000000299
65,29,0.5,1.0,35.0,1,1.0,0.388101000000006
66,29,0.5,0.5,-35.0,-1,1.0,0.2495010000000093
67,29,0.5,1.0,35.0,1,1.0,0.445100999999994
68,29,0.5,1.0,-35.0,-1,1.0,0.2721010000000206
69,29,0.5,1.0,35.0,1,1.0,0.5564009999999939
70,29,0.5,0.5,-35.0,-1,1.0,0.4145009999999729
71,29,0.5,0.5,-35.0,-1,1.0,0.3709010000000035
72,29,0.5,0.25,35.0,1,1.0,0.42030099999999493
73,29,0.5,1.0,35.0,1,1.0,0.4669009999999503
74,29,0.5,1.0,35.0,1,1.0,0.5237010000000168
75,29,0.5,0.25,-35.0,-1,1.0,0.4244009999999889
76,29,0.5,0.5,-35.0,-1,1.0,0.2745010000000434
77,29,0.5,0.5,35.0,1,1.0,0.37240100000002485
78,29,0.5,0.25,35.0,1,1.0,0.4218010000000163
79,29,0.5,0.25,35.0,-1,0.0,0.5233010000000036
80,29,0.5,0.25,-35.0,-1,1.0,0.3783009999999649
81,29,0.5,1.0,-35.0,-1,1.0,0.23480100000000448
82,29,0.5,0.5,-35.0,-1,1.0,0.2313010000000304
83,29,0.5,0.5,35.0,1,1.0,0.4573010000000295
84,29,0.5,0.5,-35.0,-1,1.0,0.27270099999998365
85,29,0.5,1.0,-35.0,-1,1.0,0.2393010000000686
86,29,0.5,0.5,-35.0,-1,1.0,0.25230099999998856
87,29,0.5,0.25,-35.0,-1,1.0,0.27950100000003886
88,29,0.5,0.25,35.0,1,1.0,0.44970100000000457
89,29,0.5,1.0,35.0,-1,0.0,0.9764010000000098
90,29,0.5,0.25,-35.0,-1,1.0,0.39810099999999693
91,29,0.5,1.0,-35.0,-1,1.0,0.2366010000000074
92,29,0.5,0.5,-35.0,-1,1.0,0.2506010000000174
93,29,0.5,0.5,-35.0,-1,1.0,0.26540099999994027
94,29,0.5,0.5,-35.0,-1,1.0,0.329701
95,29,0.5,0.5,-35.0,-1,1.0,0.2395010000000184
96,29,0.5,0.25,35.0,-1,0.0,0.39980100000002494
97,29,0.5,0.25,35.0,1,1.0,0.27310099999999693
98,29,0.5,1.0,-35.0,-1,1.0,0.23890099999999848
99,29,0.5,1.0,-35.0,-1,1.0,0.22000100000002476
100,29,0.5,1.0,-35.0,-1,1.0,0.34210100000001376
101,29,0.5,1.0,35.0,1,1.0,0.4236010000000192
102,29,0.5,0.5,35.0,-1,0.0,1.7116010000000301
103,29,0.2,0.5,35.0,1,1.0,0.4560009999999579
104,29,0.5,0.5,35.0,-1,0.0,0.6030010000000061
105,29,0.3,0.5,-35.0,-1,1.0,0.241600999999946
106,29,0.5,1.0,35.0,1,1.0,0.4446009999999774
107,29,0.5,0.25,35.0,1,1.0,0.3569010000000503
108,29,0.5,0.5,35.0,-1,0.0,0.4827009999999632
109,29,0.5,0.25,-35.0,-1,1.0,0.2682010000000332
110,29,0.5,0.5,-35.0,-1,1.0,0.23390100000000302
111,29,0.5,0.25,35.0,-1,0.0,0.37940100000002985
112,29,0.5,0.25,-35.0,-1,1.0,0.2712010000000191
113,29,0.5,0.25,-35.0,-1,1.0,0.2342010000000414
114,29,0.5,0.25,35.0,-1,0.0,0.4374010000000794
115,29,0.2,0.25,35.0,-1,0.0,0.26090099999998984
116,29,0.5,1.0,35.0,-1,0.0,4.002001000000064
117,29,0.5,0.25,35.0,1,1.0,0.339100999999971
118,29,0.5,0.25,35.0,-1,0.0,2.1886010000000056
119,29,0.5,0.25,35.0,1,1.0,0.41590100000007624
120,29,0.5,1.0,-35.0,-1,1.0,0.22380100000003722
121,29,0.5,0.5,-35.0,-1,1.0,0.22690099999999802
122,29,0.5,0.5,35.0,1,1.0,0.48720099999997046
123,29,0.5,0.25,-35.0,-1,1.0,0.2219010000000594
124,29,0.5,0.5,35.0,1,1.0,0.4369010000000344
125,29,0.5,1.0,-35.0,-1,1.0,0.42420100000003913
126,29,0.5,1.0,35.0,1,1.0,0.6785010000000398
127,29,0.5,0.25,-35.0,-1,1.0,0.21310099999999466
128,29,0.5,0.5,35.0,1,1.0,0.3172010000000114
129,29,0.5,0.25,35.0,1,1.0,0.4355009999999879
130,29,0.5,1.0,-35.0,-1,1.0,0.2321010000000001
131,29,0.5,1.0,-35.0,-1,1.0,0.37320099999999456
132,29,0.5,0.25,35.0,1,1.0,0.4348009999999931
133,29,0.5,0.5,35.0,1,1.0,0.36310100000002876
134,29,0.5,0.5,-35.0,-1,1.0,0.24410100000000057
135,29,0.5,1.0,-35.0,-1,1.0,0.22590099999996482
136,29,0.5,0.5,-35.0,-1,1.0,0.42020000000002256
137,29,0.5,0.5,-35.0,-1,1.0,0.3504010000000335
138,29,0.5,0.5,-35.0,-1,1.0,0.40660099999996646
139,29,0.5,0.5,-35.0,-1,1.0,0.34310100000004695
140,29,0.5,1.0,-35.0,-1,1.0,0.37140099999999165
141,29,0.5,0.5,35.0,-1,0.0,0.5847009999999955
142,29,0.2,0.5,35.0,1,1.0,0.4703010000000063
143,29,0.5,1.0,35.0,-1,0.0,1.7352010000000178
144,29,0.5,0.25,35.0,-1,0.0,0.2561009999999442
145,29,0.1,0.25,35.0,1,1.0,0.33910099999991417
146,29,0.5,0.5,-35.0,-1,1.0,0.2216009999999642
147,29,0.5,0.25,-35.0,-1,1.0,0.23020099999996546
148,29,0.5,1.0,35.0,-1,0.0,0.34780099999989034
149,29,0.5,0.25,35.0,1,1.0,0.2674009999999498
150,29,0.5,0.25,35.0,-1,0.0,1.3145009999999502
151,29,0.3,0.25,35.0,1,1.0,0.3221010000000888
152,29,0.5,1.0,35.0,1,1.0,0.3773009999998749
153,29,0.5,0.5,-35.0,-1,1.0,0.31740099999990434
154,29,0.5,1.0,35.0,1,1.0,1.1239009999999325
155,29,0.5,0.5,-35.0,-1,1.0,0.19200100000000475
156,29,0.5,1.0,35.0,1,1.0,0.37740099999996346
157,29,0.5,0.25,-35.0,-1,1.0,0.37520099999994727
158,29,0.5,1.0,35.0,1,1.0,0.3078010000000404
159,29,0.5,1.0,-35.0,-1,1.0,0.45260099999995873
160,29,0.5,0.25,35.0,1,1.0,0.4190009999999802
161,29,0.5,0.5,-35.0,-1,1.0,0.2619010000000799
162,29,0.5,1.0,35.0,1,1.0,1.225500000000011
163,29,0.5,1.0,35.0,1,1.0,0.46030099999995855
164,29,0.5,1.0,35.0,1,1.0,0.30930100000000493
165,29,0.5,1.0,-35.0,-1,1.0,0.3752009999998336
166,29,0.5,1.0,35.0,1,1.0,0.31940099999997074
167,29,0.5,0.25,-35.0,-1,1.0,0.318800999999894
168,29,0.5,0.5,35.0,1,1.0,0.3805009999999811
169,29,0.5,0.5,-35.0,-1,1.0,0.38550099999997656
170,29,0.5,0.5,-35.0,-1,1.0,0.37360100000000784
171,29,0.5,1.0,35.0,1,1.0,0.35530099999994036
172,29,0.5,1.0,-35.0,-1,1.0,0.2660999999999376
173,29,0.5,1.0,35.0,1,1.0,0.3322009999999409
174,29,0.5,0.5,-35.0,-1,1.0,0.29420099999993
175,29,0.5,1.0,-35.0,-1,1.0,0.2718009999999822
176,29,0.5,0.5,35.0,1,1.0,0.28510099999994054
177,29,0.5,1.0,35.0,1,1.0,0.3808009999999058
178,29,0.5,0.25,-35.0,-1,1.0,0.47290099999986523
179,29,0.5,0.5,-35.0,-1,1.0,0.45770100000004277
180,29,0.5,1.0,-35.0,-1,1.0,0.296600999999896
181,29,0.5,1.0,35.0,1,1.0,0.2784009999999171
182,29,0.5,0.25,35.0,1,1.0,0.3047009999999091
183,29,0.5,0.25,-35.0,-1,1.0,0.3924009999999498
184,29,0.5,0.25,-35.0,1,0.0,0.34560099999987415
185,29,0.5,0.25,35.0,1,1.0,0.23060099999997874
186,29,0.5,1.0,35.0,1,1.0,0.34110099999998056
187,29,0.5,0.25,35.0,1,1.0,0.2852010000000291
188,29,0.5,0.25,35.0,1,1.0,0.4132009999999582
189,29,0.5,0.25,35.0,1,1.0,0.30150099999991653
190,29,0.5,1.0,35.0,1,1.0,0.26890099999991435
191,29,0.5,0.5,-35.0,-1,1.0,0.43960100000003877
192,29,0.5,0.5,35.0,1,1.0,0.29130099999997583
193,29,0.5,1.0,35.0,1,1.0,0.29080099999998765
194,29,0.5,1.0,35.0,1,1.0,0.23790099999996528
195,29,0.5,0.25,35.0,1,1.0,0.28440100000000257
196,29,0.5,1.0,-35.0,-1,1.0,0.32330099999990125
197,29,0.5,0.25,-35.0,-1,1.0,0.3145009999999502
198,29,0.5,1.0,35.0,1,1.0,0.25970099999995
199,29,0.5,1.0,-35.0,-1,1.0,0.3301010000000133
200,29,0.5,0.5,-35.0,-1,1.0,0.27290099999993345
201,29,0.5,0.5,-35.0,-1,1.0,0.3628009999999904
202,29,0.5,1.0,-35.0,-1,1.0,0.24470099999996364
203,29,0.5,0.25,-35.0,-1,1.0,0.4068009999999731
204,29,0.5,0.25,-35.0,-1,1.0,0.3262009999999691
205,29,0.5,0.5,35.0,1,1.0,0.3448009999999613
206,29,0.5,0.5,35.0,1,1.0,0.2655009999998583
207,29,0.5,0.25,35.0,1,1.0,0.41340100000002167
208,29,0.5,0.25,35.0,1,1.0,0.2497009999999591
209,29,0.5,0.25,35.0,1,1.0,0.348500999999942
210,29,0.5,0.25,35.0,1,1.0,0.30310099999996964
211,29,0.5,0.25,-35.0,-1,1.0,0.3343009999999822
212,29,0.5,0.25,-35.0,-1,1.0,0.4957010000000537
213,29,0.5,0.25,-35.0,-1,1.0,0.5699009999999589
214,29,0.5,0.5,35.0,1,1.0,0.2874010000000453
215,29,0.5,0.25,-35.0,-1,1.0,0.35310099999992417
216,29,0.5,0.25,-35.0,-1,1.0,0.2702009999999291
217,29,0.5,0.5,-35.0,-1,1.0,0.4255009999999402
218,29,0.5,0.5,35.0,-1,0.0,0.38170099999990725
219,29,0.3,0.5,35.0,1,1.0,0.24430100000006405
220,29,0.5,0.5,-35.0,-1,1.0,0.26650099999994836
221,29,0.5,0.5,-35.0,-1,1.0,0.3728009999999813
222,29,0.5,1.0,-35.0,-1,1.0,0.2735009999998965
223,29,0.5,0.25,35.0,1,1.0,0.293500999999992
224,29,0.5,0.5,-35.0,-1,1.0,0.30710099999987506
225,29,0.5,0.25,-35.0,-1,1.0,0.3810009999999693
226,29,0.5,1.0,-35.0,-1,1.0,0.2806009999998196
227,29,0.5,1.0,-35.0,-1,1.0,0.33730100000002494
228,29,0.5,0.25,-35.0,-1,1.0,0.5067009999999073
229,29,0.5,0.25,35.0,1,1.0,0.40000099999997474
230,29,0.5,0.25,-35.0,-1,1.0,0.4558009999999513
231,29,0.5,1.0,-35.0,-1,1.0,0.3363009999999349
232,29,0.5,1.0,-35.0,-1,1.0,0.3097010000000182
233,29,0.5,1.0,-35.0,-1,1.0,0.2979010000000244
234,29,0.5,1.0,35.0,1,1.0,0.32570099999986724
235,29,0.5,0.5,35.0,1,1.0,0.25030099999992217
236,29,0.5,1.0,-35.0,-1,1.0,0.2881009999999833
237,29,0.5,1.0,-35.0,-1,1.0,0.4107009999999036
238,29,0.5,1.0,35.0,1,1.0,0.26900100000000293
239,29,0.5,1.0,35.0,1,1.0,0.26610100000004877
240,29,0.5,0.25,-35.0,-1,1.0,0.27720099999987724
241,29,0.5,0.5,-35.0,-1,1.0,0.2575009999999338
242,29,0.5,1.0,-35.0,-1,1.0,0.2516009999999369
243,29,0.5,0.25,35.0,1,1.0,0.27060100000005605
244,29,0.5,0.5,-35.0,-1,1.0,0.4128009999999449
245,29,0.5,1.0,35.0,1,1.0,0.24050099999999475
246,29,0.5,0.5,35.0,1,1.0,0.29250100000001567
247,29,0.5,0.5,-35.0,-1,1.0,0.2840009999999893
248,29,0.5,0.5,35.0,1,1.0,0.26890099999991435
249,29,0.5,0.25,35.0,1,1.0,0.25470099999984086
250,29,0.5,0.5,-35.0,-1,1.0,0.2954009999999698
251,29,0.5,1.0,35.0,1,1.0,0.29120100000000093
252,29,0.5,0.5,-35.0,-1,1.0,0.4598009999999704
253,29,0.5,1.0,-35.0,-1,1.0,0.25970099999995
254,29,0.5,0.5,35.0,1,1.0,0.3742009999999709
255,29,0.5,0.5,35.0,1,1.0,0.24119999999993524
256,29,0.5,1.0,35.0,1,1.0,0.2641009999999824
257,29,0.5,1.0,35.0,1,1.0,0.25440099999991617
258,29,0.5,0.25,35.0,1,1.0,0.27890100000001894
259,29,0.5,1.0,-35.0,-1,1.0,0.26070100000004004
260,29,0.5,1.0,-35.0,-1,1.0,0.23290099999996983
261,29,0.5,0.5,-35.0,-1,1.0,0.3308009999998376
262,29,0.5,1.0,35.0,1,1.0,0.26250099999992926
263,29,0.5,1.0,35.0,1,1.0,0.2477010000000064
264,29,0.5,0.25,-35.0,-1,1.0,0.3302009999998745
265,29,0.5,0.25,35.0,1,1.0,0.29870100000005095
266,29,0.5,0.5,-35.0,-1,1.0,0.30880100000001676
267,29,0.5,1.0,-35.0,-1,1.0,0.2640010000000075
268,29,0.5,0.25,35.0,1,1.0,0.27910099999996874
269,29,0.5,0.5,35.0,1,1.0,0.2694010000000162
270,29,0.5,0.5,35.0,1,1.0,0.2656009999999469
271,29,0.5,1.0,-35.0,-1,1.0,0.2734010000000353
272,29,0.5,1.0,35.0,1,1.0,0.2862009999998918
273,29,0.5,1.0,35.0,1,1.0,0.2800009999999702
274,29,0.5,0.5,-35.0,-1,1.0,0.46790099999998347
275,29,0.5,0.5,-35.0,-1,1.0,0.3203009999999722
276,29,0.5,0.5,-35.0,1,0.0,0.4131009999999833
277,29,0.5,0.25,35.0,1,1.0,0.2356009999999742
278,29,0.5,0.25,-35.0,1,0.0,0.41010099999994054
279,29,0.7,0.25,-35.0,-1,1.0,0.2555009999999811
280,29,0.5,1.0,35.0,1,1.0,0.22470099999998183
281,29,0.5,0.5,-35.0,-1,1.0,0.30250100000000657
282,29,0.5,0.25,35.0,1,1.0,0.29490099999998165
283,29,0.5,0.25,-35.0,1,0.0,0.2773010000000795
284,29,0.6,0.25,-35.0,1,0.0,0.2923009999999522
285,29,0.5,1.0,35.0,1,1.0,0.2597010000000637
286,29,0.5,0.5,-35.0,-1,1.0,0.3162009999999782
287,29,0.5,0.5,35.0,1,1.0,0.289400999999998
288,29,0.5,0.25,-35.0,-1,1.0,0.31960099999992053
289,29,0.5,0.25,35.0,1,1.0,0.3622010000000273
290,29,0.5,1.0,35.0,1,1.0,0.2371010000000524
291,29,0.5,0.5,-35.0,-1,1.0,0.2736009999999851
292,29,0.5,0.5,35.0,1,1.0,0.2418009999998958
293,29,0.5,0.25,-35.0,-1,1.0,0.2815009999999347
294,29,0.5,0.25,-35.0,-1,1.0,0.29950099999985014
295,29,0.5,0.5,35.0,1,1.0,0.25330099999985123
296,29,0.5,0.5,35.0,1,1.0,0.27680099999997765
297,29,0.5,0.25,-35.0,-1,1.0,0.3406009999998787
298,29,0.5,1.0,35.0,1,1.0,0.2577009999998836
299,29,0.5,0.5,35.0,1,1.0,0.3097010000000182
300,29,0.5,0.25,35.0,1,1.0,0.26110099999993963
301,29,0.5,1.0,35.0,1,1.0,0.24310099999991053
302,29,0.5,0.5,-35.0,-1,1.0,0.3279009999999971
303,29,0.5,0.5,35.0,1,1.0,0.22380099999998038
304,29,0.5,0.25,35.0,1,1.0,0.28480100000001585
305,29,0.5,0.25,-35.0,-1,1.0,0.33330099999989216
306,29,0.5,1.0,-35.0,-1,1.0,0.294901000000209
307,29,0.5,0.25,35.0,1,1.0,0.44400099999984377
308,29,0.5,0.25,-35.0,-1,1.0,0.36160100000006423
309,29,0.5,1.0,-35.0,-1,1.0,0.2639010000000326
310,29,0.5,1.0,35.0,1,1.0,0.26850100000024213
311,29,0.5,1.0,35.0,1,1.0,0.2373010000001159
312,29,0.5,0.5,35.0,1,1.0,0.2617009999999027
313,29,0.5,1.0,-35.0,-1,1.0,0.45790100000021994
314,29,0.5,1.0,-35.0,-1,1.0,0.22860100000002603
315,29,0.5,1.0,35.0,1,1.0,0.26460100000008424
316,29,0.5,1.0,35.0,1,1.0,0.26210100000002967
317,29,0.5,1.0,-35.0,-1,1.0,0.28470100000004095
318,29,0.5,0.5,35.0,1,1.0,0.24230100000022503
319,29,0.5,1.0,-35.0,-1,1.0,0.29460100000005696
320,29,0.5,0.5,35.0,1,1.0,0.2957010000000082
321,29,0.5,1.0,35.0,1,1.0,0.2414009999999962
322,29,0.5,1.0,-35.0,-1,1.0,0.3258009999999558
323,29,0.5,0.25,35.0,1,1.0,0.28840100000024904
324,29,0.5,0.25,-35.0,1,0.0,0.3059010000001763
325,29,0.7,0.25,35.0,1,1.0,0.2250010000000202
326,29,0.5,1.0,-35.0,-1,1.0,0.556201000000101
327,29,0.5,0.5,35.0,1,1.0,0.2818010000000868
328,29,0.5,0.25,35.0,1,1.0,0.2697009999999409
329,29,0.5,0.5,-35.0,-1,1.0,0.40530100000000857
330,29,0.5,1.0,-35.0,-1,1.0,0.32300100000020393
331,29,0.5,1.0,-35.0,-1,1.0,0.2823009999999613
332,29,0.5,0.5,35.0,1,1.0,0.23330100000021048
333,29,0.5,0.5,35.0,-1,0.0,2.5420010000000275
334,29,0.5,0.25,-35.0,-1,1.0,0.2733010000001741
335,29,0.5,0.25,-35.0,-1,1.0,0.289400999999998
336,29,0.5,0.25,35.0,1,1.0,0.266901000000189
337,29,0.5,0.5,35.0,1,1.0,0.26600100000018756
338,29,0.5,0.5,35.0,1,1.0,0.24030100000004495
339,29,0.5,0.5,-35.0,-1,1.0,0.2960009999999329
340,29,0.5,0.5,35.0,-1,0.0,1.6872010000001865
341,29,0.4,0.5,-35.0,-1,1.0,0.2127010000001519
342,29,0.5,0.5,-35.0,-1,1.0,0.2540010000000166
343,29,0.5,0.25,-35.0,-1,1.0,0.2896009999999478
344,29,0.5,0.5,35.0,1,1.0,0.2375009999998383
345,29,0.5,1.0,35.0,1,1.0,0.23970100000019556
346,29,0.5,0.5,-35.0,-1,1.0,0.30430100000012317
347,29,0.5,1.0,-35.0,-1,1.0,0.29670099999998456
348,29,0.5,1.0,35.0,1,1.0,0.2877010000001974
349,29,0.5,0.25,35.0,1,1.0,0.2434009999999489
350,29,0.5,0.25,-35.0,-1,1.0,0.28450100000009115
351,29,0.5,1.0,-35.0,-1,1.0,0.4507010000002083
352,29,0.5,1.0,35.0,1,1.0,0.2813009999999849
353,29,0.5,1.0,-35.0,-1,1.0,0.28050100000018574
354,29,0.5,0.25,-35.0,-1,1.0,0.5448009999997794
355,29,0.5,0.5,-35.0,-1,1.0,0.3104009999999562
356,29,0.5,0.5,-35.0,-1,1.0,0.3083010000000286
357,29,0.5,0.5,35.0,1,1.0,0.25730099999987033
358,29,0.5,1.0,35.0,1,1.0,0.9350009999998292
359,29,0.5,0.5,35.0,1,1.0,0.25430100000016864
360,29,0.5,1.0,-35.0,-1,1.0,0.24850099999980557
361,29,0.5,1.0,35.0,1,1.0,0.36100099999998747
362,29,0.5,0.25,-35.0,-1,1.0,0.28870099999994636
363,29,0.5,0.25,-35.0,-1,1.0,0.2777010000002065
364,29,0.5,1.0,-35.0,-1,1.0,0.26210100000002967
365,29,0.5,0.25,-35.0,-1,1.0,0.4310010000001512
366,29,0.5,0.5,-35.0,-1,1.0,0.24230099999999766
367,29,0.5,0.25,-35.0,-1,1.0,0.35150100000009843
368,29,0.5,0.25,-35.0,-1,1.0,0.29240100000015445
369,29,0.5,0.25,-35.0,1,0.0,1.9715009999999893
370,29,0.5,0.25,-35.0,-1,1.0,0.25250100000016573
371,29,0.5,0.5,35.0,1,1.0,0.25840100000004895
372,29,0.5,0.5,35.0,1,1.0,0.29930100000001403
373,29,0.5,0.25,35.0,1,1.0,0.2552010000001701
374,29,0.5,0.25,-35.0,-1,1.0,0.31280100000003586
375,29,0.5,0.5,35.0,1,1.0,0.25860099999999875
376,29,0.5,0.25,-35.0,-1,1.0,0.38300100000014936
377,29,0.5,1.0,35.0,1,1.0,0.2723009999999704
378,29,0.5,1.0,35.0,1,1.0,0.27310099999999693
379,29,0.5,0.25,-35.0,-1,1.0,0.3324009999998907
380,29,0.5,0.25,35.0,1,1.0,0.2332010000000082
381,29,0.5,0.5,35.0,-1,0.0,0.30890100000010534
382,29,0.6,0.5,35.0,1,1.0,0.33670100000017555
383,29,0.5,1.0,35.0,1,1.0,0.2695009999999911
384,29,0.5,0.25,-35.0,1,0.0,0.30680099999995036
385,29,0.7,0.25,-35.0,1,0.0,0.3361010000000988
386,29,0.5,1.0,-35.0,-1,1.0,0.2571010000001479
387,29,0.5,1.0,-35.0,-1,1.0,0.2395010000000184
388,29,0.5,0.5,-35.0,-1,1.0,0.2673010000000886
389,29,0.5,0.5,35.0,1,1.0,0.3061009999998987
390,29,0.5,0.25,35.0,1,1.0,0.2641009999999824
391,29,0.5,0.5,-35.0,-1,1.0,0.3401010000000042
392,29,0.5,0.125,-35.0,-1,1.0,0.36090100000023995
393,29,0.5,0.125,-35.0,-1,1.0,0.2664009999998598
394,29,0.5,0.5,35.0,1,1.0,0.2576010000000224
395,29,0.5,0.5,-35.0,-1,1.0,0.43340100000023085
396,29,0.5,0.25,35.0,1,1.0,0.2310010000001057
397,29,0.5,0.25,35.0,1,1.0,0.25380100000029415
398,29,0.5,0.25,35.0,1,1.0,0.271300999999994
399,29,0.5,0.25,-35.0,-1,1.0,0.28030100000000857
400,29,0.5,0.5,35.0,1,1.0,0.23480099999983395
401,29,0.5,0.5,-35.0,-1,1.0,0.31720099999984086
402,29,0.5,0.125,35.0,1,1.0,0.2748010000002523
403,29,0.5,0.125,35.0,1,1.0,0.27700099999992744
404,29,0.5,0.5,35.0,1,1.0,0.2917010000001028
405,29,0.5,1.0,35.0,1,1.0,0.26050100000020393
406,29,0.5,0.5,35.0,1,1.0,0.25840100000004895
407,29,0.5,1.0,-35.0,-1,1.0,0.2872010000000955
408,29,0.5,0.5,-35.0,-1,1.0,0.28200100000026396
409,29,0.5,1.0,35.0,1,1.0,0.3143010000001141
410,29,0.5,0.25,35.0,1,1.0,0.2720009999998183
411,29,0.5,1.0,35.0,-1,0.0,0.39810099999999693
412,29,0.7,1.0,35.0,1,1.0,0.2922009999999773
413,29,0.5,0.5,35.0,1,1.0,0.3182010000000446
414,29,0.5,0.125,-35.0,1,0.0,0.39910100000020066
415,29,0.5,0.25,35.0,1,1.0,0.3183010000000195
416,29,0.5,0.5,35.0,1,1.0,0.3926010000002407
417,29,0.5,0.25,-35.0,-1,1.0,0.26840100000026723
418,29,0.5,0.5,-35.0,-1,1.0,0.5594010000002072
419,29,0.5,0.25,35.0,1,1.0,0.3586010000001352
420,29,0.5,0.125,-35.0,1,0.0,0.2561009999999442
421,29,0.7,0.125,-35.0,1,0.0,0.4119010000001708
422,29,0.5,1.0,-35.0,-1,1.0,0.373100999999906
423,29,0.5,1.0,-35.0,-1,1.0,0.2719010000000708
424,29,0.5,0.25,35.0,1,1.0,0.27310099999999693
425,29,0.5,0.25,35.0,1,1.0,0.28240100000016355
426,29,0.5,0.25,-35.0,-1,1.0,0.29320099999995364
427,29,0.5,0.125,-35.0,-1,1.0,0.36560099999996964
428,29,0.5,0.125,-35.0,-1,1.0,0.2901010000000497
429,29,0.5,1.0,-35.0,-1,1.0,0.295900999999958
430,29,0.5,0.125,35.0,1,1.0,0.29020100000025195
431,29,0.5,0.125,-35.0,-1,1.0,0.3658010000001468
432,29,0.5,1.0,35.0,1,1.0,0.2837010000000646
433,29,0.5,0.125,-35.0,-1,1.0,0.5426009999998769
434,29,0.5,0.25,-35.0,-1,1.0,0.3204009999999471
435,29,0.5,0.25,35.0,1,1.0,0.3359009999999216
436,29,0.5,1.0,-35.0,-1,1.0,0.3073010000002796
437,29,0.5,0.125,-35.0,-1,1.0,0.36280100000021775
438,29,0.5,0.5,35.0,1,1.0,0.30410100000017337
439,29,0.5,0.125,-35.0,-1,1.0,0.5366010000000188
440,29,0.5,0.25,-35.0,-1,1.0,0.2876010000002225
441,29,0.5,1.0,35.0,1,1.0,0.2934010000001308
442,29,0.5,1.0,-35.0,-1,1.0,0.3244009999998525
443,29,0.5,0.125,-35.0,-1,1.0,0.48370100000011007
444,29,0.5,0.25,35.0,1,1.0,0.2912010000002283
445,29,0.5,1.0,-35.0,-1,1.0,0.33700100000010025
446,29,0.5,0.125,-35.0,1,0.0,0.30790100000035636
447,29,0.5,0.25,35.0,1,1.0,0.24040100000024722
448,29,0.5,0.5,35.0,1,1.0,0.26480100000003404
449,29,0.5,0.5,35.0,1,1.0,0.27090099999986705
450,29,0.5,0.125,-35.0,-1,1.0,0.36170100000003913
451,29,0.5,0.5,35.0,1,1.0,0.3207009999998718
452,29,0.5,1.0,-35.0,-1,1.0,0.3317010000000664
453,29,0.5,0.125,-35.0,-1,1.0,0.36710100000027523
454,29,0.5,0.5,-35.0,-1,1.0,0.2686009999997623
455,29,0.5,1.0,-35.0,-1,1.0,0.2777009999999791
456,29,0.5,0.5,-35.0,-1,1.0,0.4553009999999631
457,29,0.5,1.0,-35.0,-1,1.0,0.7881009999998696
458,29,0.5,0.25,35.0,1,1.0,0.2820010000000366
459,29,0.5,1.0,35.0,1,1.0,0.24430100000017774
460,29,0.5,1.0,-35.0,-1,1.0,0.29230100000017956
461,29,0.5,1.0,35.0,1,1.0,0.37470100000018647
462,29,0.5,0.25,35.0,1,1.0,0.31240100000013626
463,29,0.5,1.0,35.0,1,1.0,0.294901000000209
464,29,0.5,0.125,-35.0,-1,1.0,0.27260100000012244
465,29,0.5,0.125,35.0,1,1.0,0.23180100000013226
466,29,0.5,0.125,35.0,1,1.0,0.2927009999998518
467,29,0.5,0.5,-35.0,-1,1.0,0.2983010000000377
468,29,0.5,1.0,-35.0,-1,1.0,0.3162010000000919
469,29,0.5,0.125,-35.0,1,0.0,0.3219010000000253
470,29,0.6,0.125,35.0,1,1.0,0.23630100000013954
471,29,0.5,1.0,35.0,1,1.0,0.2551009999999678
472,29,0.5,0.5,35.0,1,1.0,0.2931010000002061
473,29,0.5,0.5,-35.0,-1,1.0,0.35530100000005405
474,29,0.5,0.125,-35.0,-1,1.0,0.8899010000002363
475,29,0.5,0.5,35.0,1,1.0,0.219101000000137
476,29,0.5,0.5,-35.0,-1,1.0,0.28680099999996855
477,29,0.5,0.25,-35.0,-1,1.0,0.29900100000008933
478,29,0.5,0.5,-35.0,-1,1.0,0.36340100000006714
479,29,0.5,0.5,35.0,1,1.0,0.2661009999999351
480,29,0.5,0.125,-35.0,-1,1.0,0.39700100000027305
481,29,0.5,1.0,35.0,1,1.0,0.2595010000000002
482,29,0.5,1.0,35.0,1,1.0,0.2538009999998394
483,29,0.5,0.5,-35.0,-1,1.0,0.289801000000125
484,29,0.5,0.25,-35.0,-1,1.0,0.38730099999997947
485,29,0.5,1.0,-35.0,-1,1.0,0.2666010000002643
486,29,0.5,1.0,-35.0,-1,1.0,0.30070099999989
487,29,0.5,0.25,-35.0,-1,1.0,0.30660100000000057
488,29,0.5,1.0,-35.0,-1,1.0,0.29090100000007624
489,29,0.5,0.5,-35.0,-1,1.0,0.44030099999986305
490,29,0.5,0.125,35.0,1,1.0,0.3709010000000035
491,29,0.5,0.5,35.0,1,1.0,0.26010100000007697
492,29,0.5,1.0,35.0,1,1.0,0.2711010000000442
493,29,0.5,0.125,-35.0,-1,1.0,0.3601010000002134
494,29,0.5,0.125,-35.0,-1,1.0,0.28470100000004095
495,29,0.5,1.0,-35.0,-1,1.0,0.2771010000001297
496,29,0.5,1.0,-35.0,-1,1.0,0.2915009999999256
497,29,0.5,0.125,35.0,1,1.0,0.30420100000014827
498,29,0.5,0.25,35.0,1,1.0,0.26830100000006496
499,29,0.5,1.0,35.0,1,1.0,0.2738010000000486
500,29,0.5,0.5,-35.0,-1,1.0,0.47490099999981794
501,29,0.5,1.0,-35.0,-1,1.0,0.2643009999999322
502,29,0.5,0.25,-35.0,-1,1.0,0.31850100000019665
503,29,0.5,0.5,35.0,1,1.0,0.26810100000011516
504,29,0.5,1.0,35.0,1,1.0,0.27860099999998056
505,29,0.5,0.25,35.0,1,1.0,0.26810100000011516
506,29,0.5,1.0,35.0,1,1.0,0.2922009999999773
507,29,0.5,0.25,-35.0,-1,1.0,0.34510100000011334
508,29,0.5,0.125,-35.0,-1,1.0,0.43550100000015846
509,29,0.5,1.0,-35.0,-1,1.0,0.29810100000031525
510,29,0.5,0.5,35.0,1,1.0,0.3791009999999915
511,29,0.5,0.25,-35.0,-1,1.0,0.3082010000000537
512,29,0.5,1.0,-35.0,-1,1.0,0.2792010000000573
513,29,0.5,0.5,-35.0,-1,1.0,0.3682009999999991
514,29,0.5,1.0,35.0,1,1.0,0.25260099999991326
515,29,0.5,1.0,-35.0,-1,1.0,0.27520099999992453
516,29,0.5,0.125,-35.0,-1,1.0,0.28270100000008824
517,29,0.5,0.25,35.0,1,1.0,0.35520100000007915
518,29,0.5,0.25,35.0,-1,0.0,1.2097010000002228
519,29,0.5,0.25,-35.0,-1,1.0,0.33880100000010316
520,29,0.5,1.0,-35.0,-1,1.0,0.2664009999998598
521,29,0.5,0.125,35.0,1,1.0,0.3220010000000002
522,29,0.5,1.0,35.0,1,1.0,0.25320099999999
523,29,0.5,1.0,35.0,1,1.0,0.2688010000001668
524,29,0.5,0.125,35.0,1,1.0,0.23670100000003913
525,29,0.5,0.25,-35.0,-1,1.0,0.30270100000007005
526,29,0.5,0.25,35.0,1,1.0,0.253601000000117
527,29,0.5,0.25,-35.0,-1,1.0,0.31910100000004604
528,29,0.5,0.25,-35.0,-1,1.0,0.3337010000000191
529,29,0.5,1.0,-35.0,-1,1.0,0.2798010000001341
530,29,0.5,1.0,35.0,1,1.0,0.2673010000000886
531,29,0.5,0.125,35.0,1,1.0,0.26640100000008715
532,29,0.5,0.25,-35.0,-1,1.0,0.33070100000009006
533,29,0.5,0.5,35.0,1,1.0,0.30660100000000057
534,29,0.5,1.0,35.0,1,1.0,0.21760100000005878
535,29,0.5,0.25,35.0,1,1.0,0.35300100000017665
536,29,0.5,0.25,-35.0,1,0.0,0.2610010000000784
537,29,0.5,0.125,35.0,1,1.0,0.233400999999958
538,29,0.5,0.125,35.0,1,1.0,0.24450100000012753
539,29,0.5,1.0,35.0,1,1.0,0.23390100000028724
540,29,0.5,0.25,-35.0,1,0.0,0.30460100000004786
541,29,0.5,0.25,-35.0,-1,1.0,0.4073009999999613
542,29,0.5,1.0,-35.0,-1,1.0,0.27800100000013117
543,29,0.5,0.125,35.0,-1,0.0,0.5039010000000417
544,29,0.5,0.25,35.0,1,1.0,0.2982010000000628
545,29,0.5,0.25,-35.0,-1,1.0,0.2940009999999802
546,29,0.5,0.125,-35.0,-1,1.0,0.5550009999999475
547,29,0.5,0.125,35.0,1,1.0,0.2876010000002225
548,29,0.5,0.5,-35.0,-1,1.0,0.2586010000002261
549,29,0.5,1.0,35.0,1,1.0,0.2610010000000784
550,29,0.5,0.25,-35.0,-1,1.0,0.46190100000012535
551,29,0.5,0.125,-35.0,-1,1.0,0.30140099999994163
552,29,0.5,0.5,-35.0,-1,1.0,0.2754010000001017
553,29,0.5,1.0,35.0,1,1.0,0.26440099999990707
554,29,0.5,0.25,35.0,1,1.0,0.3255010000000311
555,29,0.5,1.0,-35.0,-1,1.0,0.30470100000002276
556,29,0.5,0.5,35.0,1,1.0,0.2591010000001006
557,29,0.5,0.5,-35.0,-1,1.0,0.2951010000001588
558,29,0.5,0.125,-35.0,-1,1.0,0.3525010000000748
559,29,0.5,0.25,35.0,1,1.0,0.39530100000024504
560,29,0.5,0.5,35.0,1,1.0,0.2593010000000504
561,29,0.5,0.5,35.0,1,1.0,0.29500099999995655
562,29,0.5,1.0,-35.0,-1,1.0,0.2994009999999889
563,29,0.5,0.5,35.0,1,1.0,0.2954010000000835
564,29,0.5,1.0,-35.0,-1,1.0,0.38300100000014936
565,29,0.5,0.125,35.0,1,1.0,0.27860099999998056
566,29,0.5,1.0,35.0,1,1.0,0.25650099999984377
567,29,0.5,1.0,35.0,1,1.0,0.22570100000007187
568,29,0.5,0.5,35.0,1,1.0,0.2633009999999558
569,29,0.5,0.5,-35.0,-1,1.0,0.5090009999998983
570,29,0.5,0.5,-35.0,-1,1.0,0.396701000000121
571,29,0.5,0.25,35.0,1,1.0,0.24950100000023667
572,29,0.5,1.0,-35.0,-1,1.0,0.500201000000061
573,29,0.5,0.25,-35.0,-1,1.0,0.27590100000020357
574,29,0.5,0.125,-35.0,-1,1.0,0.41050099999984013
575,29,0.5,0.25,35.0,1,1.0,0.2893010000000231
576,29,0.5,1.0,35.0,-1,0.0,0.4440010000002985
577,29,0.5,0.125,-35.0,-1,1.0,0.2762009999999009
578,29,0.5,0.125,-35.0,1,0.0,0.27410100000020066
579,29,0.3,0.125,35.0,-1,0.0,0.4637009999999009
580,29,0.5,1.0,35.0,1,1.0,0.25420100000019374
581,29,0.5,0.25,35.0,1,1.0,0.2569010000001981
582,29,0.5,1.0,-35.0,-1,1.0,0.30440100000009807
583,29,0.5,0.125,35.0,1,1.0,0.266901000000189
584,29,0.5,1.0,-35.0,-1,1.0,0.32460100000002967
585,29,0.5,0.5,-35.0,-1,1.0,0.25680099999999584
586,29,0.5,0.25,-35.0,-1,1.0,0.2914010000001781
587,29,0.5,1.0,-35.0,-1,1.0,0.24050099999999475
588,29,0.5,0.25,35.0,-1,0.0,0.7316010000001825
589,29,0.3,0.25,-35.0,-1,1.0,0.491001000000324
590,29,0.5,1.0,35.0,1,1.0,0.29500099999995655
591,29,0.5,1.0,35.0,-1,0.0,0.3074010000000271
592,29,0.2,1.0,35.0,1,1.0,0.2718010000000959
593,29,0.5,0.5,-35.0,-1,1.0,0.46430099999997765
594,29,0.5,0.5,35.0,1,1.0,0.2621009999998023
595,29,0.5,0.25,-35.0,-1,1.0,0.3743010000000595
596,29,0.5,0.25,35.0,1,1.0,0.2855010000000675
597,29,0.5,0.5,35.0,1,1.0,0.3581010000000333
598,29,0.5,0.25,-35.0,-1,1.0,0.3222010000001774
599,29,0.5,0.5,-35.0,-1,1.0,0.288101000000097
600,29,0.5,0.125,35.0,1,1.0,0.2791010000000824
601,29,0.5,1.0,35.0,1,1.0,0.2914010000001781
602,29,0.5,1.0,35.0,1,1.0,0.2393010000000686
603,29,0.5,0.5,-35.0,-1,1.0,0.3080010000001039
604,29,0.5,0.5,-35.0,-1,1.0,0.29270100000007915
605,29,0.5,0.5,35.0,1,1.0,0.2450010000002294
606,29,0.5,0.25,35.0,1,1.0,0.3162010000000919
607,29,0.5,0.0625,-35.0,1,0.0,0.27870100000018283
608,29,0.5,0.0625,-35.0,-1,1.0,0.33290100000021994
609,29,0.5,0.0625,-35.0,1,0.0,0.2785009999997783
610,29,0.5,0.0625,-35.0,1,0.0,0.2531010000002425
611,29,0.7,0.0625,35.0,1,1.0,0.25880099999994854
612,29,0.5,1.0,-35.0,-1,1.0,0.40330100000028324
613,29,0.5,0.0625,-35.0,1,0.0,0.2923009999999522
614,29,0.7,0.0625,-35.0,-1,1.0,0.7768009999999776
615,29,0.5,1.0,-35.0,-1,1.0,0.26600100000041493
616,29,0.5,1.0,35.0,1,1.0,0.2903009999999995
617,29,0.5,1.0,-35.0,-1,1.0,0.29280100000005405
