trial_num,session_num,stim_probability_left,contrast,position,response_choice,trial_correct,reaction_time
1,49,0.5,0.25,35.0,1,1.0,0.40170000000000006
2,49,0.5,1.0,-35.0,1,0.0,0.06399999999999917
3,49,0.5,0.0625,-35.0,-1,1.0,0.3674999999999988
4,49,0.5,0.0,35.0,1,1.0,0.3102999999999998
5,49,0.5,0.0625,35.0,1,1.0,0.5731999999999999
6,49,0.5,0.25,35.0,1,1.0,1.2120999999999995
7,49,0.5,0.25,-35.0,-1,1.0,0.14500000000000313
8,49,0.5,1.0,35.0,-1,0.0,1.1221999999999994
9,49,0.5,0.125,-35.0,-1,1.0,0.4650999999999996
10,49,0.5,0.25,35.0,1,1.0,0.8362999999999943
11,49,0.5,0.0625,-35.0,-1,1.0,0.16619999999999635
12,49,0.5,0.0,35.0,1,1.0,1.7537999999999982
13,49,0.5,0.0625,35.0,1,1.0,2.326500000000003
14,49,0.5,0.0,35.0,-1,0.0,2.0370999999999952
15,49,0.5,0.0,35.0,1,1.0,0.3241999999999976
16,49,0.5,1.0,-35.0,-1,1.0,0.4603000000000037
17,49,0.5,0.125,35.0,1,1.0,0.4228000000000023
18,49,0.5,1.0,35.0,1,1.0,0.4106000000000023
19,49,0.5,1.0,-35.0,-1,1.0,0.4906999999999897
20,49,0.5,0.25,-35.0,-1,1.0,0.5194000000000045
21,49,0.5,0.25,35.0,1,1.0,0.45009999999999195
22,49,0.5,0.25,-35.0,-1,1.0,0.3434000000000026
23,49,0.5,0.125,-35.0,-1,1.0,0.36959999999999127
24,49,0.5,0.0625,-35.0,-1,1.0,0.369899999999987
25,49,0.5,0.0625,35.0,1,1.0,0.46289999999999054
26,49,0.5,1.0,-35.0,-1,1.0,0.44199999999999307
27,49,0.5,1.0,35.0,1,1.0,0.33780000000000143
28,49,0.5,0.125,-35.0,1,0.0,2.0630000000000024
29,49,0.5,0.125,35.0,1,1.0,2.644599999999997
30,49,0.5,0.25,35.0,1,1.0,2.2264999999999873
31,49,0.5,0.125,35.0,1,1.0,0.6366000000000014
32,49,0.5,1.0,35.0,1,1.0,0.31340000000000146
33,49,0.5,1.0,35.0,1,1.0,0.2078999999999951
34,49,0.5,1.0,-35.0,1,0.0,0.09619999999999607
35,49,0.5,0.25,-35.0,-1,1.0,0.41859999999999786
36,49,0.5,0.25,35.0,1,1.0,0.2372000000000014
37,49,0.5,1.0,-35.0,-1,1.0,0.3602999999999952
38,49,0.5,0.25,35.0,1,1.0,0.37539999999998486
39,49,0.5,0.0625,35.0,1,1.0,0.31149899999999775
40,49,0.5,0.25,35.0,1,1.0,0.35360000000000014
41,49,0.5,0.0,-35.0,1,0.0,0.35940000000002215
42,49,0.5,0.0625,35.0,1,1.0,5.480099999999993
43,49,0.5,1.0,-35.0,-1,1.0,0.455600000000004
44,49,0.5,1.0,35.0,1,1.0,1.1435999999999922
45,49,0.5,0.25,-35.0,1,0.0,1.9119000000000028
46,49,0.5,0.125,-35.0,1,0.0,1.490000000000009
47,49,0.5,0.125,35.0,1,1.0,3.9047999999999945
48,49,0.5,0.0625,-35.0,-1,1.0,0.47690000000000055
49,49,0.5,0.25,35.0,1,1.0,0.5838999999999999
50,49,0.5,1.0,35.0,1,1.0,0.2627999999999986
51,49,0.5,0.125,-35.0,1,0.0,1.380500000000012
52,49,0.8,0.125,-35.0,1,0.0,0.05300000000002569
53,49,0.5,1.0,35.0,1,1.0,0.711199999999991
54,49,0.5,0.0,-35.0,1,0.0,2.172399000000013
55,49,0.5,0.0625,35.0,-1,0.0,3.5615000000000236
56,49,0.5,0.0,-35.0,1,0.0,3.1945000000000334
57,49,0.5,0.125,35.0,1,1.0,0.7184000000000026
58,49,0.5,1.0,35.0,1,1.0,0.24500000000000455
59,49,0.5,1.0,-35.0,-1,1.0,0.33740000000000236
60,49,0.5,0.25,-35.0,-1,1.0,0.42449999999999477
61,49,0.5,0.125,-35.0,-1,1.0,0.4314999999999998
62,49,0.5,1.0,-35.0,-1,1.0,0.2915000000000134
63,49,0.5,0.25,35.0,-1,0.0,1.492699999999985
64,49,0.5,0.0,35.0,1,1.0,0.5957000000000221
65,49,0.5,1.0,-35.0,-1,1.0,0.597200000000015
66,49,0.5,0.125,-35.0,1,0.0,5.507799999999975
67,49,0.5,0.0625,-35.0,-1,1.0,0.5184000000000424
68,49,0.5,0.125,35.0,1,1.0,0.39879999999999427
69,49,0.5,0.125,35.0,1,1.0,0.3172000000000139
70,49,0.5,0.0625,-35.0,1,0.0,1.2047999999999774
71,49,0.5,0.0625,-35.0,1,0.0,4.208300000000065
72,49,0.5,1.0,-35.0,-1,1.0,0.3356000000000563
73,49,0.5,0.125,35.0,1,1.0,0.6014000000000124
74,49,0.5,0.0,-35.0,1,0.0,2.7690000000000055
75,49,0.7,0.0,35.0,1,1.0,0.3200999999999681
76,49,0.5,1.0,-35.0,1,0.0,0.14770000000004302
77,49,0.8,1.0,35.0,1,1.0,0.44820000000004256
78,49,0.5,1.0,-35.0,-1,1.0,0.5898999999999432
79,49,0.5,0.0625,-35.0,1,0.0,0.8903000000000247
80,49,0.5,0.0,35.0,1,1.0,0.26350000000002183
81,49,0.5,0.0625,35.0,1,1.0,0.04529999999999745
82,49,0.5,0.0625,-35.0,1,0.0,2.6084000000000174
83,49,0.9,0.0625,-35.0,1,0.0,3.629600000000039
84,49,0.5,1.0,-35.0,-1,1.0,0.23120000000000118
85,49,0.5,0.0,-35.0,-1,1.0,0.3768000000000029
86,49,0.5,0.0625,-35.0,-1,1.0,0.32960000000002765
87,49,0.5,0.125,35.0,1,1.0,0.35290000000003374
88,49,0.5,0.0625,35.0,1,1.0,0.23840000000006967
89,49,0.5,0.125,35.0,1,1.0,14.235900000000015
90,49,0.5,0.0,-35.0,1,0.0,0.21750000000002956
91,49,0.7,0.0,-35.0,1,0.0,2.0399000000000456
92,49,0.5,1.0,35.0,1,1.0,0.3069000000000415
93,49,0.5,0.125,-35.0,1,0.0,0.24629999999996244
94,49,0.5,0.0625,-35.0,-1,1.0,0.7810000000000059
95,49,0.5,0.25,35.0,1,1.0,0.43600000000003547
96,49,0.5,0.125,-35.0,-1,1.0,0.7995000000000232
97,49,0.5,1.0,-35.0,-1,1.0,0.39910000000003265
98,49,0.5,1.0,-35.0,-1,1.0,0.30819999999999936
99,49,0.5,1.0,35.0,1,1.0,0.12520000000006348
100,49,0.5,0.0,35.0,1,1.0,0.06150000000002365
101,49,0.5,0.0,35.0,1,1.0,0.9267000000000394
102,49,0.5,0.0625,-35.0,-1,1.0,0.4352999999999838
103,49,0.5,1.0,-35.0,-1,1.0,0.29630000000003065
104,49,0.5,0.0,-35.0,1,0.0,2.529899999999998
105,49,0.5,0.0,-35.0,-1,1.0,0.4935999999999581
106,49,0.5,1.0,-35.0,-1,1.0,0.3286000000000513
107,49,0.5,0.125,35.0,1,1.0,0.3632999999999811
108,49,0.5,0.125,-35.0,1,0.0,0.24780000000004065
109,49,0.5,0.125,35.0,1,1.0,0.393100000000004
110,49,0.5,0.0625,-35.0,1,0.0,0.26729999999997744
111,49,0.5,0.25,-35.0,-1,1.0,0.5249000000000024
112,49,0.5,0.125,35.0,1,1.0,3.4589000000000283
113,49,0.5,0.0625,-35.0,1,0.0,0.22270000000003165
114,49,0.5,0.125,35.0,1,1.0,0.2337999999999738
115,49,0.5,0.125,-35.0,-1,1.0,0.5081000000000131
116,49,0.5,0.0,35.0,1,1.0,0.05040000000002465
117,49,0.5,0.0625,-35.0,-1,1.0,0.36539999999996553
118,49,0.5,0.25,-35.0,-1,1.0,0.6836999999999875
119,49,0.5,1.0,-35.0,-1,1.0,0.36850000000004
120,49,0.5,0.25,35.0,1,1.0,0.052199999999970714
121,49,0.5,0.25,-35.0,-1,1.0,0.45409999999998263
122,49,0.5,0.125,35.0,1,1.0,0.4632000000000289
123,49,0.5,1.0,35.0,1,1.0,0.26839999999998554
124,49,0.5,0.0,35.0,1,1.0,0.5189000000000306
125,49,0.5,0.125,35.0,1,1.0,0.23620000000005348
126,49,0.5,0.0625,-35.0,-1,1.0,0.4718000000000302
127,49,0.5,0.0,-35.0,1,0.0,0.44859999999994216
128,49,0.5,0.25,35.0,-1,0.0,0.4701999999999771
129,49,0.6,0.25,-35.0,1,0.0,1.9806999999999562
130,49,0.5,1.0,-35.0,-1,1.0,0.3129000000000133
131,49,0.5,1.0,35.0,1,1.0,0.26340000000004693
132,49,0.5,0.25,-35.0,-1,1.0,0.3180000000000973
133,49,0.5,0.125,35.0,1,1.0,0.37400000000002365
134,49,0.5,0.125,-35.0,-1,1.0,0.27760000000000673
135,49,0.5,0.125,-35.0,1,0.0,1.6739000000000033
136,49,0.5,0.25,-35.0,-1,1.0,0.6007000000000744
137,49,0.5,0.0625,-35.0,1,0.0,1.1025999999999385
138,49,0.5,0.0625,-35.0,1,0.0,0.22519999999997253
139,49,0.5,1.0,35.0,1,1.0,0.738800000000083
140,49,0.5,0.25,-35.0,1,0.0,0.07380000000011933
141,49,0.5,0.125,35.0,1,1.0,0.3367999999999256
142,49,0.5,0.25,-35.0,-1,1.0,0.33619999999996253
143,49,0.5,0.125,-35.0,-1,1.0,0.4068999999999505
144,49,0.5,0.0625,35.0,1,1.0,0.06389999999998963
145,49,0.5,0.0625,35.0,-1,0.0,0.5919999999999845
146,49,0.6,0.0625,35.0,1,1.0,0.31300000000010186
147,49,0.5,1.0,-35.0,-1,1.0,0.19430000000011205
148,49,0.5,0.0,-35.0,1,0.0,0.4510999999999967
149,49,0.6,0.0,-35.0,1,0.0,1.141300000000001
150,49,0.5,1.0,-35.0,-1,1.0,0.4601999999999862
151,49,0.5,0.0,35.0,1,1.0,0.3753989999999021
152,49,0.5,0.0625,35.0,1,1.0,1.5312000000000126
153,49,0.5,1.0,35.0,1,1.0,0.19629999999995107
154,49,0.5,0.125,-35.0,-1,1.0,1.0543000000001257
155,49,0.5,1.0,-35.0,-1,1.0,0.30529999999998836
156,49,0.5,0.25,35.0,1,1.0,0.4814000000001215
157,49,0.5,0.25,35.0,1,1.0,0.6223999999999705
158,49,0.5,0.0,-35.0,-1,1.0,0.49749999999994543
159,49,0.5,0.0,-35.0,-1,1.0,1.5784000000001015
160,49,0.5,0.0,-35.0,1,0.0,0.422800000000052
161,49,0.5,0.125,-35.0,-1,1.0,0.17660000000000764
162,49,0.5,0.25,35.0,1,1.0,0.5544999999999618
163,49,0.5,0.125,-35.0,-1,1.0,1.047900000000027
164,49,0.5,0.125,35.0,1,1.0,0.2988000000000284
165,49,0.5,0.25,-35.0,-1,1.0,0.9356000000000222
166,49,0.5,0.25,-35.0,-1,1.0,0.5902000000000953
167,49,0.5,0.0625,-35.0,-1,1.0,0.6521000000000186
168,49,0.5,0.125,35.0,1,1.0,0.3548000000000684
169,49,0.5,1.0,35.0,1,1.0,3.6782000000000608
170,49,0.5,0.0,-35.0,1,0.0,0.4897999999999456
171,49,0.5,0.0,35.0,-1,0.0,1.8653000000000475
172,49,0.5,1.0,35.0,1,1.0,2.2753000000001293
173,49,0.5,0.25,35.0,1,1.0,0.49240000000008877
174,49,0.5,0.25,35.0,1,1.0,0.3290000000000646
175,49,0.5,1.0,35.0,1,1.0,0.27330000000006294
176,49,0.5,0.125,35.0,1,1.0,0.7101999999999862
177,49,0.5,0.0625,-35.0,-1,1.0,0.4732000000000198
178,49,0.5,0.0,-35.0,1,0.0,0.5693999999999733
179,49,0.5,0.0625,35.0,1,1.0,0.28710000000000946
180,49,0.5,1.0,35.0,1,1.0,0.20219999999994798
181,49,0.5,0.125,-35.0,-1,1.0,0.41440000000000055
182,49,0.5,0.0,35.0,1,1.0,0.3732000000001108
183,49,0.5,1.0,-35.0,-1,1.0,0.49329999999997654
184,49,0.5,0.125,-35.0,1,0.0,0.15170000000000528
185,49,0.5,0.125,-35.0,-1,1.0,0.37369999999998527
186,49,0.5,0.125,35.0,1,1.0,0.2963999999999487
187,49,0.5,0.25,35.0,1,1.0,0.30550000000005184
188,49,0.5,0.0,35.0,-1,0.0,0.4074000000000524
189,49,0.5,0.25,35.0,1,1.0,9.473700000000008
190,49,0.5,1.0,-35.0,-1,1.0,0.3807000000000471
191,49,0.5,0.0625,-35.0,-1,1.0,0.2847999999999047
192,49,0.5,0.0625,35.0,1,1.0,0.37639999999998963
193,49,0.5,1.0,-35.0,1,0.0,0.14970000000005257
194,49,0.5,0.125,-35.0,-1,1.0,0.35369999999988977
195,49,0.5,0.25,35.0,1,1.0,0.5891000000000304
196,49,0.5,0.25,-35.0,-1,1.0,0.300899999999956
197,49,0.5,0.0625,-35.0,-1,1.0,0.4515999999999849
198,49,0.5,0.0,35.0,1,1.0,2.0754000000000588
199,49,0.5,0.0625,35.0,1,1.0,0.2557999999999083
200,49,0.5,0.125,35.0,1,1.0,0.32769999999993615
201,49,0.5,0.25,-35.0,-1,1.0,0.31110000000001037
202,49,0.5,1.0,35.0,1,1.0,0.6170000000000755
203,49,0.5,1.0,35.0,1,1.0,0.22050000000001546
204,49,0.5,0.25,35.0,-1,0.0,0.5989999999999327
205,49,0.5,0.0625,-35.0,1,0.0,2.23599999999999
206,49,0.6,0.0625,-35.0,1,0.0,1.5284999999998945
207,49,0.5,1.0,35.0,1,1.0,0.7912000000000035
208,49,0.5,0.25,-35.0,-1,1.0,0.7482999999998583
209,49,0.5,1.0,35.0,1,1.0,0.15679999999997563
210,49,0.5,0.25,-35.0,-1,1.0,0.31330000000002656
211,49,0.5,0.25,35.0,1,1.0,0.4922000000000253
212,49,0.5,0.0625,35.0,1,1.0,0.7273999999999887
213,49,0.5,0.25,35.0,1,1.0,0.6326999999999998
214,49,0.5,0.25,35.0,1,1.0,0.209699999999998
215,49,0.5,0.25,35.0,-1,0.0,0.8152999999999793
216,49,0.7,0.25,-35.0,-1,1.0,0.7124000000000024
217,49,0.5,1.0,-35.0,-1,1.0,0.3754999999999882
218,49,0.5,0.125,-35.0,-1,1.0,0.4214000000000624
219,49,0.5,0.125,35.0,1,1.0,0.9851999999999634
220,49,0.5,1.0,-35.0,-1,1.0,0.27350000000001273
221,49,0.5,1.0,-35.0,-1,1.0,0.3526000000000522
222,49,0.5,1.0,35.0,1,1.0,0.06100000000003547
223,49,0.5,0.0625,-35.0,-1,1.0,0.3745999999999867
224,49,0.5,0.0625,35.0,-1,0.0,0.6695999999999458
225,49,0.5,0.0625,35.0,1,1.0,0.30960000000004584
226,49,0.5,0.25,-35.0,1,0.0,0.06169999999997344
227,49,0.5,0.25,-35.0,-1,1.0,0.28890000000001237
228,49,0.5,0.0,35.0,1,1.0,0.19529999999997472
229,49,0.5,0.0625,-35.0,1,0.0,0.23670000000004165
230,49,0.5,0.125,35.0,-1,0.0,0.793700000000058
231,49,0.5,0.0625,35.0,-1,0.0,4.939799999999991
232,49,0.5,0.0625,35.0,1,1.0,0.801900000000046
233,49,0.5,0.0625,-35.0,-1,1.0,0.6945999999999231
234,49,0.5,0.125,-35.0,-1,1.0,0.33939999999995507
235,49,0.5,0.0625,35.0,1,1.0,0.34000000000003183
236,49,0.5,0.0625,35.0,1,1.0,0.35760000000004766
237,49,0.5,1.0,35.0,1,1.0,0.34140000000002146
238,49,0.5,0.0,35.0,1,1.0,0.1752999999999929
239,49,0.5,0.25,35.0,1,1.0,0.22910000000001673
240,49,0.5,0.0625,-35.0,-1,1.0,0.4010999999999285
241,49,0.5,0.25,35.0,1,1.0,0.2940999999999576
242,49,0.5,0.125,35.0,1,1.0,0.43070000000000164
243,49,0.5,0.125,-35.0,-1,1.0,0.5600000000000591
244,49,0.5,0.25,-35.0,-1,1.0,0.6162990000000264
245,49,0.5,0.125,35.0,1,1.0,0.2966999999999871
246,49,0.5,0.25,35.0,1,1.0,0.1893000000000029
247,49,0.5,0.0625,35.0,1,1.0,0.29129999999997835
248,49,0.5,0.0625,-35.0,-1,1.0,0.5955999999999904
249,49,0.5,1.0,-35.0,-1,1.0,0.25139999999998963
250,49,0.5,0.0,-35.0,1,0.0,0.3348999999999478
251,49,0.5,0.0,35.0,1,1.0,0.2925000000000182
252,49,0.5,0.125,-35.0,-1,1.0,0.36549999999999727
253,49,0.5,0.0625,-35.0,-1,1.0,0.3626000000000431
254,49,0.5,0.125,35.0,1,1.0,0.2495000000001255
255,49,0.5,0.25,-35.0,-1,1.0,0.3325000000000955
256,49,0.5,0.125,35.0,1,1.0,0.3426999999999225
257,49,0.5,0.125,35.0,1,1.0,0.4633000000001175
258,49,0.5,1.0,-35.0,-1,1.0,0.35969999999997526
259,49,0.5,0.0625,35.0,1,1.0,0.6328999999998359
260,49,0.5,1.0,35.0,-1,0.0,0.13000000000010914
261,49,0.5,1.0,35.0,1,1.0,0.2867999999998574
262,49,0.5,1.0,-35.0,-1,1.0,1.320699999999988
263,49,0.5,1.0,35.0,1,1.0,0.1437999999998283
264,49,0.5,1.0,35.0,1,1.0,0.19680000000016662
265,49,0.5,0.25,35.0,-1,0.0,0.4071000000001277
266,49,0.5,0.0625,35.0,1,1.0,0.21090000000003783
267,49,0.5,0.25,-35.0,-1,1.0,0.32399999999984175
268,49,0.5,0.25,-35.0,-1,1.0,0.6040000000000418
269,49,0.5,0.25,-35.0,-1,1.0,0.1548000000002503
270,49,0.5,0.125,-35.0,-1,1.0,0.24119999999993524
271,49,0.5,0.25,-35.0,-1,1.0,0.3350000000000364
272,49,0.5,0.25,35.0,1,1.0,0.4114999999999327
273,49,0.5,0.125,-35.0,-1,1.0,0.4492000000000189
274,49,0.5,0.25,-35.0,-1,1.0,0.2951999999997952
275,49,0.5,0.125,-35.0,-1,1.0,0.43219999999996617
276,49,0.5,0.0625,35.0,1,1.0,0.3652999999999338
277,49,0.5,0.25,-35.0,-1,1.0,0.6129000000000815
278,49,0.5,0.125,35.0,1,1.0,0.25240000000007967
279,49,0.5,0.0625,35.0,1,1.0,0.0523000000000593
280,49,0.5,0.0625,-35.0,-1,1.0,0.41599999999994
281,49,0.5,0.0625,-35.0,-1,1.0,0.37979999999993197
282,49,0.5,0.125,-35.0,-1,1.0,0.3625999999999294
283,49,0.5,1.0,-35.0,-1,1.0,0.5328999999999269
284,49,0.5,0.0625,35.0,1,1.0,0.8496000000000095
285,49,0.5,1.0,35.0,1,1.0,0.5405000000000655
286,49,0.5,1.0,-35.0,-1,1.0,0.29349999999999454
287,49,0.5,0.125,-35.0,1,0.0,0.09050000000002001
288,49,0.5,0.25,-35.0,-1,1.0,0.34699999999998
289,49,0.5,1.0,35.0,-1,0.0,0.4636999999997897
290,49,0.5,0.25,35.0,1,1.0,0.34379999999987376
291,49,0.5,1.0,35.0,1,1.0,0.2737999999999374
292,49,0.5,0.0625,35.0,1,1.0,0.3208999999999378
293,49,0.5,1.0,-35.0,-1,1.0,0.30770000000006803
294,49,0.5,0.125,35.0,1,1.0,0.6247000000000753
295,49,0.5,0.0625,35.0,-1,0.0,0.35799999999994725
296,49,0.5,0.0625,-35.0,1,0.0,0.2278999999998632
297,49,0.5,1.0,-35.0,-1,1.0,0.32519999999999527
298,49,0.5,1.0,-35.0,-1,1.0,0.2516000000000531
299,49,0.5,0.125,35.0,1,1.0,0.21489999999994325
300,49,0.5,1.0,35.0,1,1.0,0.2619999999999436
301,49,0.5,0.0,-35.0,-1,1.0,0.37570000000005166
302,49,0.5,1.0,35.0,1,1.0,0.2323999999998705
303,49,0.5,0.0625,-35.0,-1,1.0,0.34609999999997854
304,49,0.5,0.125,-35.0,-1,1.0,0.35960000000000036
305,49,0.5,0.0625,-35.0,-1,1.0,0.32930000000010295
306,49,0.5,1.0,-35.0,-1,1.0,0.5760000000000218
307,49,0.5,0.0,35.0,1,1.0,0.3432000000000244
308,49,0.5,0.25,35.0,1,1.0,0.23289999999997235
309,49,0.5,0.125,-35.0,-1,1.0,0.48329999999987194
310,49,0.5,1.0,-35.0,-1,1.0,0.5002999999999247
311,49,0.5,0.25,-35.0,-1,1.0,0.5045000000002346
312,49,0.5,1.0,-35.0,-1,1.0,0.3203999999998359
313,49,0.5,0.0625,35.0,-1,0.0,1.5104000000001179
314,49,0.2,0.0625,35.0,-1,0.0,0.35419999999999163
315,49,0.5,1.0,-35.0,-1,1.0,0.30100000000015825
316,49,0.5,0.125,-35.0,-1,1.0,0.21450000000004366
317,49,0.5,1.0,35.0,1,1.0,0.17150000000015098
318,49,0.5,0.0,-35.0,1,0.0,0.24149999999985994
319,49,0.5,0.25,-35.0,1,0.0,2.5955999999998767
320,49,0.5,0.0,35.0,1,1.0,0.20249999999987267
321,49,0.5,0.0,35.0,1,1.0,0.43210000000021864
322,49,0.5,0.125,-35.0,-1,1.0,0.30870000000027176
323,49,0.5,1.0,35.0,1,1.0,0.14610000000016043
324,49,0.5,1.0,35.0,1,1.0,0.22900000000004184
325,49,0.5,0.0,35.0,1,1.0,1.1258000000000266
326,49,0.5,0.25,-35.0,-1,1.0,0.2357999999999265
327,49,0.5,0.0625,35.0,1,1.0,0.24270000000001346
328,49,0.5,0.125,-35.0,-1,1.0,0.5061000000000604
329,49,0.5,1.0,-35.0,-1,1.0,0.27300000000013824
330,49,0.5,0.125,35.0,1,1.0,0.4798999999998159
331,49,0.5,0.25,35.0,1,1.0,0.30989999999997053
332,49,0.5,1.0,35.0,1,1.0,0.25319999999987886
333,49,0.5,1.0,-35.0,-1,1.0,0.35999999999989996
334,49,0.5,0.0625,-35.0,1,0.0,0.4170000000001437
335,49,0.5,0.125,35.0,1,1.0,4.223500000000058
336,49,0.5,0.25,35.0,1,1.0,0.2741000000000895
337,49,0.5,0.125,-35.0,-1,1.0,0.36409999999978027
338,49,0.5,0.125,35.0,1,1.0,0.23080000000004475
339,49,0.5,0.0,-35.0,1,0.0,0.28769999999985885
340,49,0.5,0.0625,-35.0,1,0.0,0.29529999999999745
341,49,0.8,0.0625,35.0,1,1.0,0.42820000000006075
342,49,0.5,1.0,-35.0,1,0.0,0.09239999999999782
343,49,0.8,1.0,-35.0,1,0.0,0.038600000000087675
344,49,0.9,1.0,35.0,1,1.0,0.0886000000000422
345,49,0.5,1.0,35.0,1,1.0,0.2119000000000142
346,49,0.5,0.0625,35.0,-1,0.0,1.3197999999999865
347,49,0.8,0.0625,-35.0,-1,1.0,0.33570000000008804
348,49,0.5,1.0,-35.0,-1,1.0,0.28290000000015425
349,49,0.5,0.125,-35.0,1,0.0,0.2395000000001346
350,49,0.5,0.0625,-35.0,1,0.0,2.959600000000137
351,49,0.5,0.0625,-35.0,1,0.0,0.43990000000007967
352,49,0.5,0.0625,35.0,1,1.0,0.6066999999998188
353,49,0.5,0.0,35.0,1,1.0,1.713799999999992
354,49,0.5,0.25,35.0,1,1.0,0.3239000000000942
355,49,0.5,0.0625,35.0,1,1.0,0.4577999999999065
356,49,0.5,0.0625,-35.0,-1,1.0,0.5004999999998745
357,49,0.5,0.125,-35.0,-1,1.0,0.3011999999998807
358,49,0.5,1.0,35.0,1,1.0,0.310799999999972
359,49,0.5,1.0,-35.0,-1,1.0,0.2942000000002736
360,49,0.5,0.25,-35.0,-1,1.0,0.3544999999999163
361,49,0.5,0.0,-35.0,-1,1.0,1.67450000000008
362,49,0.5,0.0625,-35.0,-1,1.0,0.32209999999986394
363,49,0.5,1.0,35.0,-1,0.0,0.2820000000001528
364,49,0.5,0.25,-35.0,1,0.0,0.9150999999999385
365,49,0.3,0.25,-35.0,-1,1.0,0.5050999999998567
366,49,0.5,1.0,35.0,1,1.0,0.3451999999999771
367,49,0.5,0.25,-35.0,-1,1.0,0.32920000000012806
368,49,0.5,0.25,35.0,1,1.0,0.3191999999999098
369,49,0.5,0.125,35.0,1,1.0,0.25549999999998363
370,49,0.5,0.0,-35.0,-1,1.0,0.3526999999999134
371,49,0.5,0.0,35.0,1,1.0,0.49969999999984793
372,49,0.5,0.125,-35.0,-1,1.0,0.5833000000000084
373,49,0.5,0.0625,35.0,1,1.0,0.2638999999999214
374,49,0.5,0.125,-35.0,-1,1.0,0.34339999999997417
375,49,0.5,0.125,-35.0,-1,1.0,0.4834000000000742
376,49,0.5,0.125,-35.0,-1,1.0,0.8532999999999902
377,49,0.5,0.25,-35.0,-1,1.0,0.4834000000000742
378,49,0.5,0.0,35.0,1,1.0,2.920699999999897
379,49,0.5,0.0,35.0,1,1.0,0.5105000000000928
380,49,0.5,0.25,-35.0,-1,1.0,0.9307000000001153
381,49,0.5,0.0,35.0,1,1.0,0.4207000000001244
382,49,0.5,1.0,-35.0,-1,1.0,0.4276999999999589
383,49,0.5,1.0,35.0,1,1.0,0.41460000000006403
384,49,0.5,0.125,-35.0,-1,1.0,0.3484000000000833
385,49,0.5,1.0,35.0,1,1.0,0.23869999999988067
386,49,0.5,0.25,35.0,1,1.0,0.27870000000007167
387,49,0.5,0.0625,-35.0,1,0.0,0.13809999999989486
388,49,0.7,0.0625,-35.0,1,0.0,0.22810000000004038
389,49,0.5,1.0,-35.0,-1,1.0,0.42190000000005057
390,49,0.5,1.0,-35.0,-1,1.0,0.3287000000000262
391,49,0.5,1.0,-35.0,-1,1.0,0.2861000000000331
392,49,0.5,0.25,-35.0,-1,1.0,0.328899999999976
393,49,0.5,0.0625,-35.0,-1,1.0,0.2221999999999298
394,49,0.5,1.0,35.0,1,1.0,0.06589900000017224
395,49,0.5,1.0,-35.0,-1,1.0,0.41239999999993415
396,49,0.5,1.0,35.0,1,1.0,0.19920000000001892
397,49,0.5,0.25,35.0,1,1.0,0.2400000000000091
398,49,0.5,0.125,-35.0,-1,1.0,0.5694999999998345
399,49,0.5,0.0,-35.0,-1,1.0,0.31009999999992033
400,49,0.5,0.0625,-35.0,-1,1.0,0.5431999999998425
401,49,0.5,0.125,-35.0,1,0.0,0.16750000000024556
402,49,0.5,0.125,-35.0,-1,1.0,0.31419999999980064
403,49,0.5,0.0625,-35.0,-1,1.0,0.2642000000000735
404,49,0.5,0.125,-35.0,-1,1.0,0.44370000000026266
405,49,0.5,0.25,35.0,1,1.0,0.29730000000017753
406,49,0.5,0.0625,35.0,1,1.0,0.09090000000014697
407,49,0.5,0.0625,35.0,1,1.0,0.29759999999987485
408,49,0.5,0.25,35.0,1,1.0,0.304300000000012
409,49,0.5,0.125,-35.0,-1,1.0,0.7083999999999833
410,49,0.5,1.0,-35.0,-1,1.0,0.29109999999991487
411,49,0.5,1.0,35.0,1,1.0,0.20479999999997744
412,49,0.5,0.0,35.0,-1,0.0,0.7714000000000851
413,49,0.5,0.0625,35.0,-1,0.0,0.5457000000001244
414,49,0.5,0.25,-35.0,1,0.0,0.07169999999996435
415,49,0.5,0.25,-35.0,-1,1.0,0.33940000000006876
416,49,0.5,0.25,35.0,1,1.0,0.22199999999998
417,49,0.5,0.0,35.0,1,1.0,0.35960000000022774
418,49,0.5,0.0,35.0,1,1.0,0.3230999999998403
419,49,0.5,0.25,-35.0,-1,1.0,0.5895000000000437
420,49,0.5,0.0625,35.0,1,1.0,0.21620000000007167
421,49,0.5,0.0625,35.0,1,1.0,0.44610000000011496
422,49,0.5,1.0,35.0,1,1.0,0.28060000000027685
423,49,0.5,0.0625,35.0,1,1.0,0.9438000000000102
424,49,0.5,0.25,-35.0,-1,1.0,0.3768999999999778
425,49,0.5,1.0,-35.0,-1,1.0,0.38380000000006476
426,49,0.5,0.0,35.0,1,1.0,1.1768999999999323
427,49,0.5,0.25,35.0,1,1.0,0.3208999999999378
428,49,0.5,0.0,-35.0,-1,1.0,0.43100000000004
429,49,0.5,0.25,-35.0,-1,1.0,0.3974000000000615
430,49,0.5,0.0625,35.0,1,1.0,0.7110000000000127
431,49,0.5,1.0,-35.0,-1,1.0,0.3350999999997839
432,49,0.5,0.0,35.0,1,1.0,0.31110000000012406
433,49,0.5,0.0625,35.0,1,1.0,1.1112000000000535
434,49,0.5,0.0,-35.0,1,0.0,0.29460000000017317
435,49,0.5,0.125,35.0,1,1.0,0.6385999999999967
436,49,0.5,0.0625,35.0,1,1.0,0.34209999999984575
437,49,0.5,0.0,-35.0,-1,1.0,0.46220000000016626
438,49,0.5,0.0625,35.0,1,1.0,0.5323000000000775
439,49,0.5,0.0625,35.0,1,1.0,0.2722000000001117
440,49,0.5,0.0,-35.0,-1,1.0,0.2988000000000284
441,49,0.5,0.125,35.0,1,1.0,0.27949999999987085
442,49,0.5,0.25,-35.0,-1,1.0,0.4523999999998978
443,49,0.5,0.25,-35.0,-1,1.0,0.0727999999999156
444,49,0.5,0.125,-35.0,-1,1.0,0.32940000000007785
445,49,0.5,0.25,35.0,1,1.0,0.2697000000000571
446,49,0.5,1.0,35.0,1,1.0,0.23630000000002838
447,49,0.5,0.25,-35.0,-1,1.0,0.29980000000000473
448,49,0.5,1.0,-35.0,-1,1.0,0.30349999999998545
449,49,0.5,0.25,-35.0,-1,1.0,0.34019999999986794
450,49,0.5,0.0625,-35.0,-1,1.0,0.3466000000000804
451,49,0.5,0.25,35.0,1,1.0,0.34050000000002
452,49,0.5,1.0,-35.0,-1,1.0,0.43699999999989814
453,49,0.5,1.0,35.0,1,1.0,0.33370000000013533
454,49,0.5,1.0,35.0,1,1.0,1.0977000000000317
455,49,0.5,0.25,-35.0,-1,1.0,0.3907000000001517
456,49,0.5,0.125,35.0,1,1.0,0.264699999999948
457,49,0.5,1.0,35.0,1,1.0,0.31179999999994834
458,49,0.5,0.125,-35.0,-1,1.0,0.6380000000001473
459,49,0.5,0.125,-35.0,-1,1.0,0.462099999999964
460,49,0.5,0.0625,35.0,1,1.0,3.821899999999914
461,49,0.5,0.0,35.0,-1,0.0,0.39589999999998327
462,49,0.5,0.0,-35.0,1,0.0,0.33600000000001273
463,49,0.5,1.0,-35.0,-1,1.0,0.359000000000151
464,49,0.5,0.25,35.0,1,1.0,0.3025000000000091
465,49,0.5,0.0625,-35.0,1,0.0,0.39309999999977663
466,49,0.5,0.25,-35.0,-1,1.0,0.5530999999998585
467,49,0.5,0.25,35.0,1,1.0,0.5703000000000884
468,49,0.5,0.25,-35.0,-1,1.0,0.3532000000000153
469,49,0.5,0.25,35.0,1,1.0,0.2830999999998767
470,49,0.5,0.0625,35.0,-1,0.0,0.8068000000000666
471,49,0.5,0.0625,35.0,1,1.0,0.8703000000000429
472,49,0.5,0.25,-35.0,-1,1.0,0.2966999999998734
473,49,0.5,1.0,35.0,1,1.0,0.23440000000005057
474,49,0.5,0.0625,35.0,1,1.0,0.3608999999999014
475,49,0.5,0.125,-35.0,-1,1.0,0.26470000000017535
476,49,0.5,0.25,35.0,1,1.0,0.3044000000002143
477,49,0.5,0.0,-35.0,1,0.0,0.17450000000008004
478,49,0.6,0.0,-35.0,-1,1.0,0.547800000000052
479,49,0.5,1.0,-35.0,-1,1.0,0.28260000000022956
480,49,0.5,0.25,35.0,1,1.0,0.2981999999999516
481,49,0.5,1.0,35.0,1,1.0,0.29160000000001673
482,49,0.5,0.0,35.0,1,1.0,0.7017000000000735
483,49,0.5,1.0,35.0,1,1.0,0.6384000000002743
484,49,0.5,0.25,-35.0,-1,1.0,1.4016999999998916
485,49,0.5,0.25,35.0,1,1.0,2.622100000000273
486,49,0.5,0.25,35.0,1,1.0,1.2327000000000226
487,49,0.5,1.0,-35.0,-1,1.0,0.2699000000000069
488,49,0.5,1.0,35.0,1,1.0,1.019800000000032
489,49,0.5,0.25,35.0,1,1.0,0.5828000000001339
490,49,0.5,0.0625,-35.0,-1,1.0,0.4832000000001244
491,49,0.5,0.0,35.0,1,1.0,1.612999999999829
492,49,0.5,0.0625,35.0,-1,0.0,0.2299000000000433
493,49,0.5,0.25,-35.0,-1,1.0,0.5670999999997548
494,49,0.5,1.0,-35.0,-1,1.0,0.5300999999999476
495,49,0.5,1.0,35.0,1,1.0,0.24340000000006512
496,49,0.5,0.125,35.0,1,1.0,0.27099999999995816
497,49,0.5,0.125,-35.0,-1,1.0,0.3949000000000069
498,49,0.5,0.25,-35.0,-1,1.0,0.2140999999999167
499,49,0.5,0.25,35.0,-1,0.0,0.27109999999993306
500,49,0.5,0.0625,35.0,1,1.0,1.044399999999996
501,49,0.5,0.25,35.0,1,1.0,0.25769999999988613
502,49,0.5,0.0625,-35.0,-1,1.0,0.38819999999986976
503,49,0.5,1.0,35.0,1,1.0,0.1249000000000251
504,49,0.5,0.0,35.0,1,1.0,0.6385000000000218
505,49,0.5,0.0,-35.0,1,0.0,1.412099999999782
506,49,0.5,0.0625,-35.0,-1,1.0,0.5117000000000189
507,49,0.5,0.0,35.0,1,1.0,0.2721000000001368
508,49,0.5,1.0,-35.0,-1,1.0,0.2694000000001324
509,49,0.5,0.0625,-35.0,-1,1.0,0.37649999999985084
510,49,0.5,0.0,-35.0,-1,1.0,0.5226000000000113
511,49,0.5,0.25,35.0,1,1.0,0.8864000000000942
512,49,0.5,0.0625,-35.0,-1,1.0,0.5227999999999611
513,49,0.5,0.25,35.0,1,1.0,0.27290000000016335
514,49,0.5,0.0,35.0,1,1.0,1.3096000000000458
515,49,0.5,0.125,35.0,1,1.0,0.3165999999998803
516,49,0.5,1.0,-35.0,-1,1.0,0.3503000000000611
517,49,0.5,0.125,35.0,1,1.0,0.2537999999999556
518,49,0.5,0.0625,35.0,1,1.0,0.5276999999998679
519,49,0.5,0.25,35.0,1,1.0,0.2872999999997319
520,49,0.5,0.0625,35.0,1,1.0,0.3407999999999447
521,49,0.5,0.0625,-35.0,1,0.0,0.2478000000000975
522,49,0.8,0.0625,-35.0,-1,1.0,4.48479999999995
523,49,0.5,1.0,-35.0,-1,1.0,0.3248999999998432
524,49,0.5,0.0,-35.0,1,0.0,0.3548000000000684
525,49,0.5,0.25,35.0,1,1.0,0.5919999999998709
526,49,0.5,0.25,-35.0,-1,1.0,0.2587999999998374
527,49,0.5,0.0625,35.0,-1,0.0,0.5187999999998283
528,49,0.5,0.0625,35.0,-1,0.0,0.37909999999965294
529,49,0.5,0.125,35.0,1,1.0,0.26319999999986976
530,49,0.5,1.0,-35.0,-1,1.0,0.39299999999957436
531,49,0.5,0.125,35.0,1,1.0,2.486199999999826
532,49,0.5,0.25,-35.0,-1,1.0,0.29979999999977736
533,49,0.5,0.125,35.0,1,1.0,0.25629999999955544
534,49,0.5,0.25,-35.0,-1,1.0,1.1732999999999265
535,49,0.5,0.0625,-35.0,-1,1.0,0.6666000000000167
536,49,0.5,1.0,35.0,1,1.0,0.4175999999997657
537,49,0.5,1.0,-35.0,-1,1.0,0.37439999999969586
538,49,0.5,0.0625,-35.0,-1,1.0,3.0672999999997046
539,49,0.5,1.0,35.0,1,1.0,0.4337000000000444
540,49,0.5,0.25,-35.0,-1,1.0,0.36059999999952197
541,49,0.5,1.0,-35.0,-1,1.0,0.47460000000000946
542,49,0.5,0.0625,35.0,-1,0.0,0.30079999999952634
543,49,0.3,0.0625,35.0,1,1.0,2.1310999999996056
544,49,0.5,1.0,35.0,1,1.0,0.22839999999996508
545,49,0.5,0.0,-35.0,-1,1.0,0.42470000000002983
546,49,0.5,0.125,-35.0,-1,1.0,0.44570000000021537
547,49,0.5,0.125,-35.0,-1,1.0,0.31489999999939755
548,49,0.5,0.125,-35.0,-1,1.0,0.6449999999995271
549,49,0.5,0.125,-35.0,-1,1.0,0.32569999999986976
550,49,0.5,0.25,-35.0,-1,1.0,1.0287999999995918
551,49,0.5,0.25,35.0,1,1.0,0.23639999999932115
552,49,0.5,0.0,-35.0,1,0.0,0.572400000000016
553,49,0.5,0.0625,35.0,1,1.0,0.3658999999997832
554,49,0.5,0.0,35.0,1,1.0,1.4758999999994558
555,49,0.5,0.0625,-35.0,-1,1.0,0.38309999999955835
556,49,0.5,1.0,35.0,1,1.0,0.21609999999964202
557,49,0.5,0.0625,-35.0,-1,1.0,0.35299999999961074
558,49,0.5,0.0625,-35.0,-1,1.0,0.9631989999993493
559,49,0.5,0.0625,35.0,1,1.0,0.43709999999964566
560,49,0.5,0.125,35.0,-1,0.0,2.269999999999982
561,49,0.6,0.125,-35.0,-1,1.0,0.5670999999997548
562,49,0.5,1.0,35.0,1,1.0,0.6837000000000444
563,49,0.5,1.0,35.0,1,1.0,0.2505999999998494
564,49,0.5,1.0,-35.0,-1,1.0,0.8241999999995642
565,49,0.5,1.0,-35.0,-1,1.0,0.31419999999980064
566,49,0.5,1.0,35.0,1,1.0,0.14119999999957145
567,49,0.5,0.125,-35.0,1,0.0,1.1412999999997737
568,49,0.5,0.25,35.0,1,1.0,0.6612999999997555
569,49,0.5,0.25,35.0,-1,0.0,0.2448999999996886
570,49,0.5,0.25,35.0,1,1.0,0.3915999999999258
571,49,0.5,0.0625,35.0,1,1.0,0.05489999999963402
572,49,0.5,0.25,-35.0,1,0.0,0.22489999999970678
573,49,0.5,0.25,-35.0,-1,1.0,0.3188999999997577
574,49,0.5,0.125,-35.0,-1,1.0,0.38919999999961874
575,49,0.5,0.25,-35.0,-1,1.0,0.342200000000048
576,49,0.5,0.25,-35.0,-1,1.0,0.3089999999997417
577,49,0.5,1.0,-35.0,-1,1.0,0.3058000000000902
578,49,0.5,0.0,-35.0,1,0.0,3.966599999999744
579,49,0.5,0.125,35.0,1,1.0,3.882999999999811
580,49,0.5,0.25,35.0,1,1.0,0.9730999999997039
581,49,0.5,0.25,35.0,1,1.0,0.43329999999969004
582,49,0.5,1.0,35.0,1,1.0,0.18359999999938736
583,49,0.5,0.0625,-35.0,-1,1.0,0.07089999999971042
584,49,0.5,0.0625,-35.0,1,0.0,0.2807999999995445
585,49,0.6,0.0625,-35.0,-1,1.0,7.123799999999392
586,49,0.5,1.0,-35.0,-1,1.0,0.33499999999958163
587,49,0.5,1.0,35.0,1,1.0,0.2943999999997686
588,49,0.5,0.125,35.0,1,1.0,0.38459999999986394
589,49,0.5,1.0,35.0,1,1.0,0.40479999999979555
590,49,0.5,0.125,35.0,-1,0.0,0.4215999999996711
591,49,0.5,0.0,-35.0,-1,1.0,0.518399999999474
592,49,0.5,1.0,-35.0,-1,1.0,0.2883999999999105
593,49,0.5,0.0625,-35.0,-1,1.0,4.35590000000002
594,49,0.5,1.0,35.0,1,1.0,0.6860999999994419
595,49,0.5,0.25,35.0,1,1.0,0.3123000000000502
596,49,0.5,0.125,35.0,1,1.0,0.755699999999706
597,49,0.5,0.125,-35.0,1,0.0,0.16929999999956635
598,49,0.6,0.125,35.0,1,1.0,0.6498000000001412
599,49,0.5,1.0,35.0,1,1.0,0.25640000000021246
600,49,0.5,1.0,35.0,1,1.0,0.25649999999996
601,49,0.5,0.25,-35.0,-1,1.0,0.47659999999996217
602,49,0.5,1.0,-35.0,-1,1.0,0.5097999999998137
603,49,0.5,0.125,35.0,1,1.0,0.19749999999976353
604,49,0.5,0.0625,35.0,1,1.0,1.0267999999996391
605,49,0.5,0.125,35.0,-1,0.0,0.5404999999996107
606,49,0.5,0.125,35.0,1,1.0,0.34059999999954016
607,49,0.5,0.25,35.0,1,1.0,0.5206999999995787
608,49,0.5,0.0625,-35.0,-1,1.0,0.6441999999997279
609,49,0.5,0.0,-35.0,-1,1.0,0.9546999999993204
610,49,0.5,0.25,-35.0,-1,1.0,0.3651999999997315
611,49,0.5,0.0,35.0,-1,0.0,0.20469999999932043
612,49,0.5,0.25,-35.0,1,0.0,2.7815999999997985
613,49,0.5,0.125,35.0,1,1.0,0.2887999999998101
614,49,0.5,0.125,35.0,1,1.0,0.0988999999999578
615,49,0.5,0.125,-35.0,-1,1.0,0.35519999999951324
616,49,0.5,0.25,-35.0,-1,1.0,0.39649999999983265
617,49,0.5,0.0625,-35.0,1,0.0,0.36599999999998545
618,49,0.5,0.125,35.0,1,1.0,0.6065999999996166
619,49,0.5,1.0,35.0,1,1.0,0.25929999999971187
620,49,0.5,0.0,-35.0,1,0.0,0.3192999999996573
621,49,0.7,0.0,-35.0,-1,1.0,1.026299999999992
622,49,0.5,1.0,-35.0,-1,1.0,0.4101999999998043
623,49,0.5,0.125,35.0,1,1.0,0.28330000000005384
624,49,0.5,0.25,-35.0,-1,1.0,0.8166999999998552
625,49,0.5,0.25,35.0,1,1.0,0.3807000000001608
626,49,0.5,0.0625,-35.0,-1,1.0,0.5834999999997308
627,49,0.5,0.125,35.0,1,1.0,0.4571000000000822
628,49,0.5,0.25,-35.0,-1,1.0,0.30439999999953216
629,49,0.5,0.125,35.0,1,1.0,0.6942999999996573
630,49,0.5,0.25,-35.0,-1,1.0,0.2809999999994943
631,49,0.5,0.125,35.0,1,1.0,0.1977999999999156
632,49,0.5,1.0,-35.0,-1,1.0,0.3914999999997235
633,49,0.5,1.0,-35.0,-1,1.0,0.2913999999996122
634,49,0.5,0.0625,35.0,1,1.0,0.5581999999994878
635,49,0.5,0.0625,35.0,-1,0.0,0.32179999999971187
636,49,0.5,0.125,35.0,1,1.0,0.20879999999988286
637,49,0.5,1.0,35.0,1,1.0,0.3787000000002081
638,49,0.5,0.25,35.0,1,1.0,0.45939999999973224
639,49,0.5,0.0,-35.0,1,0.0,0.3358000000002903
640,49,0.5,0.25,35.0,1,1.0,2.9827000000000226
641,49,0.5,0.0625,35.0,1,1.0,0.5261999999997897
642,49,0.5,1.0,35.0,1,1.0,0.4062999999996464
643,49,0.5,1.0,35.0,1,1.0,0.25979999999981374
644,49,0.5,1.0,-35.0,-1,1.0,0.4033999999996922
645,49,0.5,0.125,35.0,1,1.0,0.46019999999953143
646,49,0.5,0.0,-35.0,1,0.0,0.3605999999999767
647,49,0.9,0.0,-35.0,1,0.0,0.3206000000000131
648,49,0.5,1.0,35.0,1,1.0,0.2773999999994885
649,49,0.5,0.0625,35.0,1,1.0,0.6880999999998494
650,49,0.5,1.0,35.0,1,1.0,0.491099999999733
651,49,0.5,0.125,35.0,1,1.0,0.8613000000000284
652,49,0.5,0.0625,-35.0,-1,1.0,0.4513999999999214
653,49,0.5,0.25,35.0,-1,0.0,1.7414999999996326
654,49,0.5,0.25,35.0,1,1.0,0.2953000000002248
655,49,0.5,1.0,35.0,1,1.0,0.75229999999965
656,49,0.5,0.125,35.0,1,1.0,0.4652999999993881
657,49,0.5,0.25,-35.0,-1,1.0,0.5054999999997563
658,49,0.5,0.0,-35.0,-1,1.0,3.7323999999998705
659,49,0.5,0.0625,35.0,-1,0.0,0.9059000000002015
660,49,0.5,0.0625,35.0,-1,0.0,0.4327999999995882
661,49,0.5,1.0,-35.0,-1,1.0,0.5728999999996631
662,49,0.5,0.125,-35.0,-1,1.0,0.20319999999992433
663,49,0.5,0.125,-35.0,-1,1.0,0.3735999999998967
664,49,0.5,0.25,35.0,1,1.0,0.49350000000004
665,49,0.5,1.0,-35.0,-1,1.0,0.280699999999797
666,49,0.5,0.0625,35.0,1,1.0,0.40069999999968786
667,49,0.5,0.25,-35.0,-1,1.0,0.5537999999996828
668,49,0.5,0.0,-35.0,1,0.0,1.7938999999996668
669,49,0.3,0.0,35.0,1,1.0,2.643999999999778
670,49,0.5,1.0,35.0,1,1.0,0.2674999999994725
671,49,0.5,0.125,35.0,1,1.0,0.28789999999980864
672,49,0.5,0.25,35.0,1,1.0,0.2579999999998108
673,49,0.5,0.125,35.0,1,1.0,0.31489999999939755
674,49,0.5,0.125,-35.0,-1,1.0,0.4018999999998414
675,49,0.5,0.0,-35.0,1,0.0,2.3188999999997577
676,49,0.5,0.0625,35.0,1,1.0,1.0050999999998567
677,49,0.5,0.0625,-35.0,-1,1.0,0.41889999999966676
678,49,0.5,0.25,35.0,1,1.0,0.332199999999375
679,49,0.5,0.0,35.0,1,1.0,2.112399999999525
680,49,0.5,0.25,-35.0,-1,1.0,0.5091999999999643
681,49,0.5,0.25,35.0,1,1.0,0.24319999999988795
682,49,0.5,1.0,-35.0,-1,1.0,0.32649999999966894
683,49,0.5,1.0,-35.0,-1,1.0,0.4695999999999003
684,49,0.5,0.125,35.0,1,1.0,1.1963999999998123
685,49,0.5,0.0,-35.0,-1,1.0,0.3166999999998552
686,49,0.5,0.0625,35.0,-1,0.0,0.45029999999997017
687,49,0.5,0.125,-35.0,-1,1.0,1.7302999999997155
688,49,0.5,1.0,35.0,1,1.0,0.24369999999953507
689,49,0.5,1.0,35.0,1,1.0,0.5606999999995423
690,49,0.5,0.125,35.0,1,1.0,0.6745999999998276
691,49,0.5,0.25,-35.0,-1,1.0,0.4208000000003267
692,49,0.5,0.125,-35.0,-1,1.0,0.32809999999972206
693,49,0.5,1.0,-35.0,-1,1.0,0.2779000000000451
694,49,0.5,1.0,-35.0,-1,1.0,0.28459999999950014
695,49,0.5,0.25,-35.0,-1,1.0,0.31140000000004875
696,49,0.5,0.25,35.0,1,1.0,3.318399999999656
697,49,0.5,0.0,35.0,-1,0.0,0.3087000000000444
698,49,0.5,0.25,35.0,1,1.0,3.05199999999968
699,49,0.5,1.0,-35.0,-1,1.0,0.36220000000002983
700,49,0.5,0.125,35.0,1,1.0,0.48579999999947177
701,49,0.5,0.125,35.0,1,1.0,0.24919999999974607
702,49,0.5,0.125,-35.0,-1,1.0,0.35599999999976717
703,49,0.5,0.25,-35.0,-1,1.0,0.26299999999991996
704,49,0.5,0.125,-35.0,-1,1.0,2.960099999999784
705,49,0.5,0.0625,35.0,1,1.0,0.43329999999969004
706,49,0.5,0.0625,35.0,1,1.0,0.3669999999997344
707,49,0.5,0.125,-35.0,-1,1.0,0.3370999999997366
708,49,0.5,1.0,35.0,1,1.0,0.3506000000002132
709,49,0.5,1.0,35.0,1,1.0,0.6176999999997861
710,49,0.5,0.25,35.0,1,1.0,0.25509999999985666
711,49,0.5,0.0625,-35.0,-1,1.0,0.8874999999998181
712,49,0.5,0.125,-35.0,-1,1.0,0.3512999999998101
713,49,0.5,0.25,-35.0,-1,1.0,0.624899999999343
714,49,0.5,1.0,-35.0,-1,1.0,0.43820000000005166
715,49,0.5,1.0,35.0,1,1.0,0.2782999999999447
716,49,0.5,0.0625,35.0,-1,0.0,1.4253999999996267
717,49,0.4,0.0625,35.0,1,1.0,0.2159999999998945
718,49,0.5,1.0,35.0,1,1.0,0.9586999999996806
719,49,0.5,0.125,-35.0,-1,1.0,0.7655999999997221
720,49,0.5,0.25,35.0,1,1.0,0.40590000000020154
721,49,0.5,0.25,35.0,1,1.0,0.9292999999997846
722,49,0.5,0.0625,-35.0,-1,1.0,0.4295999999999367
723,49,0.5,0.0,-35.0,1,0.0,0.6194999999993342
724,49,0.6,0.0,-35.0,1,0.0,0.5666999999998552
725,49,0.5,1.0,-35.0,-1,1.0,0.3436999999994441
726,49,0.5,0.0625,-35.0,1,0.0,2.7136999999997897
727,49,0.5,0.0,-35.0,1,0.0,3.7039999999997235
728,49,0.5,0.25,-35.0,-1,1.0,0.4738000000002103
729,49,0.5,0.125,35.0,1,1.0,3.2450999999996384
730,49,0.5,0.25,-35.0,-1,1.0,0.2980999999999767
731,49,0.5,0.0,35.0,1,1.0,0.37779999999929714
732,49,0.5,0.0625,-35.0,-1,1.0,1.6279999999997017
733,49,0.5,0.0625,35.0,1,1.0,1.3349999999995816
734,49,0.5,0.0,-35.0,-1,1.0,0.6020999999996093
735,49,0.5,1.0,-35.0,-1,1.0,0.30209999999988213
736,49,0.5,0.25,-35.0,-1,1.0,0.31209999999964566
737,49,0.5,1.0,35.0,1,1.0,0.11209999999937281
738,49,0.5,0.125,35.0,1,1.0,0.2721999999998843
739,49,0.5,0.25,-35.0,-1,1.0,0.4861999999998261
740,49,0.5,0.0625,-35.0,1,0.0,0.39259999999967476
741,49,0.5,0.0625,35.0,1,1.0,7.313299999999799
742,49,0.5,0.25,35.0,1,1.0,0.6066999999998188
743,49,0.5,0.25,-35.0,-1,1.0,0.7404000000001361
744,49,0.5,0.0625,35.0,1,1.0,0.323399999999765
745,49,0.5,0.0625,35.0,-1,0.0,0.07089999999971042
746,49,0.5,0.25,35.0,1,1.0,0.30349999999998545
747,49,0.5,0.0625,35.0,1,1.0,0.4311989999996513
748,49,0.5,0.125,-35.0,-1,1.0,0.5938999999993939
749,49,0.5,1.0,35.0,-1,0.0,0.07740000000012515
750,49,0.6,1.0,35.0,1,1.0,0.17489999999952488
751,49,0.5,1.0,35.0,1,1.0,0.2546999999995023
752,49,0.5,0.125,35.0,1,1.0,0.2879000000002634
753,49,0.5,0.0625,-35.0,-1,1.0,0.4180999999998676
754,49,0.5,1.0,35.0,1,1.0,0.5256999999996879
755,49,0.5,0.25,-35.0,-1,1.0,2.9382000000000517
756,49,0.5,0.125,-35.0,-1,1.0,0.31189999999969586
757,49,0.5,1.0,35.0,1,1.0,0.24189999999953216
758,49,0.5,0.125,-35.0,-1,1.0,0.7622000000001208
759,49,0.5,0.125,35.0,-1,0.0,0.7929999999996653
760,49,0.5,0.125,-35.0,-1,1.0,0.3598999999994703
761,49,0.5,1.0,35.0,1,1.0,0.44610000000011496
762,49,0.5,0.25,-35.0,-1,1.0,0.37699999999949796
763,49,0.5,0.25,-35.0,-1,1.0,0.349699999999757
764,49,0.5,0.125,35.0,1,1.0,0.28369999999995343
765,49,0.5,0.25,35.0,1,1.0,0.41669999999976426
766,49,0.5,0.25,35.0,1,1.0,0.38009999999985666
767,49,0.5,0.0625,35.0,1,1.0,0.3303000000000793
768,49,0.5,0.25,35.0,1,1.0,0.5577999999995882
769,49,0.5,0.25,-35.0,-1,1.0,0.34039999999959036
770,49,0.5,0.0,35.0,1,1.0,0.27739999999994325
771,49,0.5,0.0625,35.0,1,1.0,0.45129999999971915
772,49,0.5,0.125,35.0,1,1.0,2.1143999999999323
773,49,0.5,0.0,-35.0,1,0.0,0.36839999999983775
774,49,0.5,0.0625,35.0,1,1.0,0.7419999999997344
775,49,0.5,0.125,35.0,1,1.0,0.2418999999999869
776,49,0.5,0.0,35.0,-1,0.0,1.0619999999998981
777,49,0.8,0.0,-35.0,1,0.0,0.23869999999942593
778,49,0.5,1.0,35.0,1,1.0,0.5388999999995576
779,49,0.5,0.125,-35.0,-1,1.0,0.2726999999999862
780,49,0.5,0.25,-35.0,-1,1.0,0.30369999999993524
781,49,0.5,0.25,-35.0,-1,1.0,0.3396999999995387
782,49,0.5,0.125,-35.0,-1,1.0,0.3267000000000735
783,49,0.5,0.25,35.0,1,1.0,0.4032999999999447
784,49,0.5,0.25,35.0,1,1.0,0.44679999999971187
785,49,0.5,0.0625,-35.0,-1,1.0,0.3700999999996384
786,49,0.5,0.0625,35.0,1,1.0,0.5368999999996049
787,49,0.5,0.25,-35.0,-1,1.0,0.4003999999995358
788,49,0.5,0.25,-35.0,-1,1.0,0.2508999999995467
789,49,0.5,0.0625,-35.0,-1,1.0,0.30760000000009313
790,49,0.5,0.25,35.0,1,1.0,0.45739999999977954
791,49,0.5,0.125,-35.0,-1,1.0,0.2784999999998945
792,49,0.5,0.25,35.0,1,1.0,0.22440000000005966
793,49,0.5,0.0625,35.0,-1,0.0,1.258100000000013
794,49,0.4,0.0625,35.0,1,1.0,0.10529999999971551
795,49,0.5,1.0,-35.0,-1,1.0,0.3850999999999658
796,49,0.5,1.0,-35.0,-1,1.0,0.32169999999996435
797,49,0.5,1.0,35.0,1,1.0,0.2291999999993095
798,49,0.5,0.0,35.0,1,1.0,0.3523000000000138
799,49,0.5,0.0625,35.0,1,1.0,0.08219999999982974
800,49,0.5,1.0,-35.0,-1,1.0,0.39889999999968495
801,49,0.5,0.125,35.0,-1,0.0,1.2393999999999323
802,49,0.5,0.0625,35.0,1,1.0,0.35639999999966676
803,49,0.5,0.0625,-35.0,-1,1.0,0.5060999999996056
804,49,0.5,1.0,35.0,1,1.0,0.2595000000001164
805,49,0.5,0.0625,35.0,1,1.0,0.27349999999978536
806,49,0.5,1.0,-35.0,-1,1.0,0.2735000000002401
807,49,0.5,0.0625,-35.0,-1,1.0,0.4800999999997657
808,49,0.5,0.0,-35.0,-1,1.0,0.5767000000000735
809,49,0.5,0.125,-35.0,-1,1.0,0.4136999999996078
810,49,0.5,0.0625,35.0,1,1.0,0.8370999999997366
811,49,0.5,0.0,35.0,-1,0.0,0.39059999999972206
812,49,0.5,0.25,35.0,1,1.0,1.2044999999998254
813,49,0.5,0.25,35.0,1,1.0,0.3087999999997919
814,49,0.5,0.0,-35.0,1,0.0,1.0978000000000065
815,49,0.5,0.0625,35.0,1,1.0,0.7813999999998487
816,49,0.5,0.25,-35.0,-1,1.0,0.33490100000017264
817,49,0.5,1.0,35.0,1,1.0,0.46190100000012535
818,49,0.5,0.0,-35.0,1,0.0,2.3489009999998416
819,49,0.5,0.25,35.0,1,1.0,0.24600099999997838
820,49,0.5,0.125,35.0,1,1.0,1.7923009999994974
821,49,0.5,1.0,-35.0,-1,1.0,0.4361009999993257
822,49,0.5,0.0,-35.0,1,0.0,0.13930100000015955
823,49,0.5,0.25,-35.0,-1,1.0,0.49680099999977756
824,49,0.5,1.0,-35.0,-1,1.0,0.3496009999994385
825,49,0.5,0.125,-35.0,-1,1.0,0.8900010000002112
826,49,0.5,0.125,-35.0,-1,1.0,0.3202009999999973
827,49,0.5,0.125,-35.0,-1,1.0,0.8604009999999107
828,49,0.5,1.0,35.0,1,1.0,0.5269009999997252
829,49,0.5,0.0,35.0,1,1.0,1.2273009999998976
830,49,0.5,0.125,35.0,1,1.0,0.2472010000001319
831,49,0.5,0.25,35.0,1,1.0,0.3278009999999085
832,49,0.5,0.0625,35.0,1,1.0,0.48140099999955055
833,49,0.5,0.0,35.0,-1,0.0,1.4614010000000235
834,49,0.5,0.0,35.0,1,1.0,0.27800100000013117
835,49,0.5,1.0,35.0,1,1.0,0.36170099999981176
836,49,0.5,0.0,-35.0,1,0.0,2.958300999999665
837,49,0.5,0.25,35.0,1,1.0,0.2218009999996866
838,49,0.5,1.0,-35.0,-1,1.0,0.34570099999973536
839,49,0.5,1.0,35.0,1,1.0,0.2957010000000082
840,49,0.5,0.0625,35.0,1,1.0,0.4156009999996968
841,49,0.5,0.125,35.0,1,1.0,0.39230099999986123
842,49,0.5,0.0625,-35.0,-1,1.0,0.5068009999999958
843,49,0.5,1.0,-35.0,-1,1.0,0.32280099999934464
844,49,0.5,1.0,35.0,1,1.0,1.0759009999997033
845,49,0.5,1.0,35.0,1,1.0,0.2962009999996553
846,49,0.5,0.0625,-35.0,-1,1.0,0.676401000000169
847,49,0.5,0.125,35.0,-1,0.0,0.4199009999997543
848,49,0.5,0.0625,35.0,1,1.0,1.5666009999999915
849,49,0.5,0.0,35.0,1,1.0,1.390100999999504
850,49,0.5,1.0,-35.0,-1,1.0,0.4372009999997317
851,49,0.5,0.0,35.0,1,1.0,4.551000999999815
852,49,0.5,1.0,-35.0,-1,1.0,0.5346010000002934
853,49,0.5,0.125,35.0,1,1.0,0.3752009999998336
854,49,0.5,0.0625,-35.0,-1,1.0,0.3344010000000708
855,49,0.5,0.25,35.0,1,1.0,0.5813009999997121
856,49,0.5,0.25,35.0,1,1.0,0.2653009999999085
857,49,0.5,1.0,-35.0,-1,1.0,0.3449009999999362
858,49,0.5,0.0625,-35.0,-1,1.0,0.421900999999707
859,49,0.5,0.0625,35.0,1,1.0,2.1720009999999093
860,49,0.5,0.0625,-35.0,-1,1.0,0.6522009999998772
861,49,0.5,0.25,35.0,1,1.0,0.2757010000000264
862,49,0.5,0.0625,35.0,1,1.0,0.35910100000000966
863,49,0.5,0.0625,-35.0,-1,1.0,0.573200999999699
864,49,0.5,0.25,-35.0,-1,1.0,0.36600099999986924
865,49,0.5,0.125,35.0,1,1.0,0.32970099999965896
866,49,0.5,1.0,35.0,1,1.0,0.37360099999978047
867,49,0.5,1.0,35.0,1,1.0,0.2237009999998918
868,49,0.5,0.125,-35.0,-1,1.0,0.3471009999998387
869,49,0.5,0.0625,35.0,1,1.0,0.11370100000021921
870,49,0.5,0.0625,-35.0,-1,1.0,0.5669009999996888
871,49,0.5,0.25,35.0,1,1.0,0.41380099999923914
872,49,0.5,0.0625,35.0,1,1.0,0.7341009999995549
873,49,0.5,0.0,-35.0,-1,1.0,0.6174009999995178
874,49,0.5,0.0,-35.0,-1,1.0,0.6314009999996415
875,49,0.5,0.0,-35.0,1,0.0,0.36430099999961385
876,49,0.5,0.25,-35.0,-1,1.0,0.6788010000000213
877,49,0.5,1.0,-35.0,-1,1.0,0.7320009999993999
878,49,0.5,0.25,-35.0,-1,1.0,0.5421010000000024
879,49,0.5,0.0625,35.0,1,1.0,0.5121009999998023
880,49,0.5,0.0,35.0,1,1.0,1.1421009999994567
881,49,0.5,0.125,-35.0,-1,1.0,0.9092009999999391
882,49,0.5,0.125,-35.0,-1,1.0,0.5762009999994007
883,49,0.5,0.25,35.0,1,1.0,0.3027009999996153
884,49,0.5,0.125,-35.0,-1,1.0,0.6233010000000831
885,49,0.5,1.0,-35.0,-1,1.0,0.4033009999998285
886,49,0.5,0.125,-35.0,-1,1.0,0.7166010000000824
887,49,0.5,0.25,35.0,1,1.0,0.23710099999971135
888,49,0.5,1.0,-35.0,-1,1.0,0.3870010000000548
889,49,0.5,0.25,35.0,1,1.0,0.530500999999731
890,49,0.5,0.125,35.0,1,1.0,0.2707009999994625
891,49,0.5,0.0625,-35.0,-1,1.0,0.4245009999999638
892,49,0.5,0.0,35.0,-1,0.0,0.5607009999998809
893,49,0.5,0.25,-35.0,-1,1.0,0.56800099999964
894,49,0.5,0.0,35.0,1,1.0,0.23460099999965678
895,49,0.5,0.25,-35.0,-1,1.0,0.26460099999985687
896,49,0.5,1.0,-35.0,-1,1.0,0.34830099999953745
897,49,0.5,0.0625,-35.0,1,0.0,1.5081009999998969
898,49,0.5,0.0625,35.0,1,1.0,0.36540100000001985
899,49,0.5,0.0625,35.0,1,1.0,0.2755010000000766
900,49,0.5,0.0,-35.0,1,0.0,0.8355009999995673
901,49,0.5,0.0,-35.0,1,0.0,0.4458009999998467
902,49,0.5,1.0,35.0,1,1.0,0.27580100000022867
903,49,0.5,0.0625,-35.0,-1,1.0,0.41290099999969243
904,49,0.5,1.0,-35.0,-1,1.0,0.4993009999993774
905,49,0.5,0.125,35.0,1,1.0,0.2530009999995855
906,49,0.5,0.0625,35.0,1,1.0,0.3936009999997623
907,49,0.5,0.125,-35.0,1,0.0,2.1965009999998983
908,49,0.8,0.125,35.0,1,1.0,0.3468009999996866
909,49,0.5,1.0,-35.0,-1,1.0,0.3675009999997201
910,49,0.5,0.25,-35.0,-1,1.0,0.5039009999995869
911,49,0.5,1.0,-35.0,-1,1.0,0.25060099999927843
912,49,0.5,0.25,-35.0,-1,1.0,0.42420099999981176
913,49,0.5,0.0,35.0,1,1.0,0.28820099999938975
914,49,0.5,1.0,35.0,1,1.0,0.24130099999956656
915,49,0.5,0.25,-35.0,-1,1.0,0.3243000000002212
916,49,0.5,0.0,-35.0,1,0.0,0.26480099999980666
917,49,0.5,0.0625,-35.0,1,0.0,0.39180099999975937
918,49,0.5,0.0625,-35.0,-1,1.0,0.4118009999997412
919,49,0.5,0.0625,35.0,1,1.0,0.5254009999998743
920,49,0.5,0.25,35.0,1,1.0,0.4255009999997128
921,49,0.5,0.25,35.0,1,1.0,0.28850099999999657
922,49,0.5,0.25,-35.0,-1,1.0,0.41580100000010134
923,49,0.5,0.25,-35.0,-1,1.0,0.36580099999991944
924,49,0.5,1.0,35.0,1,1.0,0.25960099999974773
925,49,0.5,0.0625,-35.0,1,0.0,0.7062009999995098
926,49,0.5,0.125,35.0,-1,0.0,4.559700999999677
927,49,0.5,0.125,35.0,1,1.0,0.22650099999964368
928,49,0.5,1.0,-35.0,-1,1.0,0.4168009999998503
929,49,0.5,0.25,35.0,1,1.0,0.2741009999999733
930,49,0.5,0.125,-35.0,-1,1.0,0.43050099999982194
931,49,0.5,0.0625,-35.0,-1,1.0,0.4370009999997819
932,49,0.5,0.0625,-35.0,-1,1.0,0.5438999999996668
933,49,0.5,0.0625,35.0,1,1.0,0.35820099999955346
934,49,0.5,0.25,35.0,1,1.0,0.7850009999997383
935,49,0.5,1.0,-35.0,-1,1.0,0.4046009999992748
936,49,0.5,0.0625,-35.0,-1,1.0,0.36500100000012026
937,49,0.5,0.0,35.0,1,1.0,1.362000999999509
938,49,0.5,0.0625,-35.0,1,0.0,0.2117009999997208
939,49,0.5,0.0625,35.0,1,1.0,0.4284009999992122
940,49,0.5,1.0,-35.0,-1,1.0,0.4019009999997252
941,49,0.5,0.0625,-35.0,-1,1.0,0.7252009999997426
942,49,0.5,0.125,-35.0,-1,1.0,0.9392009999996844
943,49,0.5,0.25,-35.0,-1,1.0,0.29230099999949744
944,49,0.5,0.25,35.0,-1,0.0,0.24930099999983213
945,49,0.3,0.25,35.0,1,1.0,0.4660009999997783
946,49,0.5,1.0,-35.0,-1,1.0,0.22690099999954327
947,49,0.5,0.125,-35.0,-1,1.0,2.500301000000036
948,49,0.5,0.0625,35.0,-1,0.0,2.086500999999771
949,49,0.5,0.0625,-35.0,-1,1.0,1.0669009999996888
950,49,0.5,0.0625,35.0,-1,0.0,2.08750099999952
951,49,0.5,0.25,-35.0,-1,1.0,1.023700999999619
952,49,0.5,0.125,35.0,-1,0.0,0.7076010000000679
953,49,0.5,0.0625,-35.0,-1,1.0,2.500800999999683
954,49,0.5,0.25,-35.0,-1,1.0,0.38100099999928716
955,49,0.5,0.0,35.0,1,1.0,0.7647009999996044
956,49,0.5,0.25,-35.0,-1,1.0,0.04030099999954473
957,49,0.5,0.0625,35.0,1,1.0,0.25480100000004313
958,49,0.5,0.0,-35.0,-1,1.0,1.4381009999997332
959,49,0.5,1.0,35.0,1,1.0,0.6484009999999216
960,49,0.5,1.0,35.0,1,1.0,1.145900999999867
961,49,0.5,0.125,35.0,-1,0.0,0.6221009999994749
962,49,0.5,0.25,35.0,1,1.0,0.376000999999178
963,49,0.5,0.125,35.0,-1,0.0,4.1492010000001756
964,49,0.5,0.0625,-35.0,-1,1.0,0.44310099999938757
965,49,0.5,1.0,35.0,1,1.0,0.5596009999999296
966,49,0.5,1.0,-35.0,-1,1.0,0.7098009999999704
967,49,0.5,0.0,-35.0,-1,1.0,2.083401000000322
968,49,0.5,0.125,-35.0,-1,1.0,0.46720099999947706
969,49,0.5,0.25,-35.0,1,0.0,0.9037009999997281
970,49,0.5,0.0625,35.0,-1,0.0,3.950700999999299
971,49,0.5,0.0,-35.0,1,0.0,0.2411010000000715
972,49,0.5,0.25,-35.0,-1,1.0,0.41100099999948725
973,49,0.5,1.0,35.0,1,1.0,0.5177009999997608
974,49,0.5,0.0,35.0,1,1.0,2.331500999999662
975,49,0.5,1.0,-35.0,-1,1.0,0.7791009999996277
976,49,0.5,0.25,35.0,1,1.0,0.4716009999997368
977,49,0.5,0.25,35.0,1,1.0,1.0386010000001988
978,49,0.5,0.125,-35.0,-1,1.0,5.045600999999806
979,49,0.5,0.125,-35.0,-1,1.0,0.40560099999993326
980,49,0.5,0.125,35.0,1,1.0,0.032700999999633495
981,49,0.5,0.25,-35.0,-1,1.0,0.5715009999998983
982,49,0.5,1.0,35.0,1,1.0,0.34180099999957747
983,49,0.5,0.125,35.0,1,1.0,5.888500999999451
984,49,0.5,0.0625,-35.0,-1,1.0,2.7088010000002214
985,49,0.5,0.125,35.0,1,1.0,0.4224009999993541
1,50,0.5,0.25,35.0,1,1.0,0.3850999999999999
2,50,0.5,0.25,35.0,1,1.0,0.24709999999999965
3,50,0.5,0.25,35.0,1,1.0,0.26260000000000083
4,50,0.5,0.0,-35.0,1,0.0,0.852800000000002
5,50,1.0,0.0,-35.0,1,0.0,1.0351999999999997
6,50,0.5,1.0,-35.0,-1,1.0,0.2919000000000018
7,50,0.5,0.0625,35.0,1,1.0,0.5992999999999995
8,50,0.5,0.125,-35.0,-1,1.0,0.3384999999999998
9,50,0.5,0.0,35.0,-1,0.0,1.273300000000006
10,50,0.5,0.0,-35.0,-1,1.0,2.6998999999999995
11,50,0.5,1.0,-35.0,-1,1.0,0.27649999999999864
12,50,0.5,1.0,-35.0,-1,1.0,0.3167000000000044
13,50,0.5,1.0,-35.0,-1,1.0,2.442600000000006
14,50,0.5,1.0,-35.0,-1,1.0,0.27839999999999776
15,50,0.5,0.25,35.0,1,1.0,0.4147999999999996
16,50,0.5,0.25,-35.0,-1,1.0,0.6430000000000007
17,50,0.5,0.0625,-35.0,-1,1.0,3.2175999999999974
18,50,0.5,0.0,35.0,1,1.0,1.5164000000000044
19,50,0.5,1.0,35.0,1,1.0,0.40610000000000923
20,50,0.5,0.125,-35.0,-1,1.0,4.696600000000004
21,50,0.5,0.25,35.0,1,1.0,0.3458000000000112
22,50,0.5,0.125,35.0,1,1.0,0.43309999999999604
23,50,0.5,0.25,35.0,1,1.0,0.2874000000000052
24,50,0.5,1.0,-35.0,-1,1.0,0.2972999999999928
25,50,0.5,0.25,-35.0,-1,1.0,0.7144000000000119
26,50,0.5,0.125,35.0,1,1.0,0.34070000000001244
27,50,0.5,0.25,35.0,-1,0.0,0.06829999999999359
28,50,0.5,0.0625,35.0,1,1.0,0.33259999999999934
29,50,0.5,0.0625,35.0,1,1.0,0.3002000000000038
30,50,0.5,0.25,35.0,1,1.0,0.3809000000000111
31,50,0.5,1.0,-35.0,-1,1.0,0.30879999999999086
32,50,0.5,0.25,35.0,1,1.0,0.35899999999998045
33,50,0.5,0.0625,35.0,1,1.0,0.3275999999999897
34,50,0.5,0.25,35.0,1,1.0,0.2966000000000122
35,50,0.5,0.0625,35.0,1,1.0,0.6846999999999923
36,50,0.5,0.125,-35.0,-1,1.0,3.149700000000024
37,50,0.5,0.0625,35.0,-1,0.0,0.3697999999999979
38,50,0.7,0.0625,-35.0,1,0.0,3.182799999999986
39,50,0.5,1.0,35.0,1,1.0,0.3188000000000102
40,50,0.5,0.125,-35.0,-1,1.0,0.37639999999998963
41,50,0.5,0.0625,35.0,1,1.0,0.3453000000000088
42,50,0.5,0.25,35.0,1,1.0,0.36429999999998586
43,50,0.5,0.0625,35.0,-1,0.0,2.259100000000018
44,50,0.5,0.25,35.0,1,1.0,0.29069999999998686
45,50,0.5,0.0625,-35.0,-1,1.0,1.77109999999999
46,50,0.5,0.0,35.0,1,1.0,0.40910000000002356
47,50,0.5,0.0625,35.0,1,1.0,0.49920000000000186
48,50,0.5,0.125,35.0,1,1.0,0.29009999999999536
49,50,0.5,0.25,35.0,1,1.0,0.2623999999999853
50,50,0.5,0.25,-35.0,-1,1.0,0.37280000000001223
51,50,0.5,1.0,35.0,1,1.0,0.19530000000000314
52,50,0.5,0.25,35.0,1,1.0,0.23619999999999663
53,50,0.5,0.0625,-35.0,1,0.0,4.582300000000004
54,50,0.5,0.25,35.0,1,1.0,0.2826000000000022
55,50,0.5,0.125,35.0,1,1.0,0.2703999999999951
56,50,0.5,0.0,-35.0,1,0.0,0.3217999999999961
57,50,0.9,0.0,-35.0,1,0.0,0.447400000000016
58,50,0.5,1.0,-35.0,-1,1.0,0.2775999999999783
59,50,0.5,0.25,35.0,1,1.0,0.2980000000000018
60,50,0.5,0.125,-35.0,-1,1.0,0.5293000000000063
61,50,0.5,0.0,35.0,1,1.0,0.33209999999999695
62,50,0.5,0.0625,-35.0,1,0.0,0.18889999999998963
63,50,0.5,0.25,35.0,1,1.0,0.5555999999999699
64,50,0.5,0.125,35.0,1,1.0,2.725900000000024
65,50,0.5,1.0,-35.0,-1,1.0,0.34370000000001255
66,50,0.5,0.0,35.0,1,1.0,0.622099999999989
67,50,0.5,0.25,-35.0,-1,1.0,0.47599999999994225
68,50,0.5,0.0625,35.0,1,1.0,0.43789999999995644
69,50,0.5,0.0625,35.0,1,1.0,0.36259999999998627
70,50,0.5,1.0,35.0,1,1.0,0.33799999999996544
71,50,0.5,0.125,35.0,1,1.0,0.3454999999999586
72,50,0.5,0.25,35.0,1,1.0,4.568799999999953
73,50,0.5,0.125,35.0,1,1.0,0.3281999999999812
74,50,0.5,0.25,35.0,1,1.0,0.37089999999994916
75,50,0.5,0.0625,35.0,1,1.0,0.5643000000000029
76,50,0.5,0.0625,-35.0,-1,1.0,1.051400000000001
77,50,0.5,1.0,35.0,1,1.0,0.33609999999998763
78,50,0.5,0.0625,35.0,1,1.0,2.9862999999999715
79,50,0.5,1.0,35.0,1,1.0,0.476099999999974
80,50,0.5,0.0,35.0,1,1.0,3.3000999999999863
81,50,0.5,0.125,35.0,1,1.0,0.4440999999999917
82,50,0.5,0.25,-35.0,-1,1.0,0.6300999999999704
83,50,0.5,0.0,-35.0,1,0.0,2.3180999999999585
84,50,0.5,0.25,-35.0,-1,1.0,0.4134999999999991
85,50,0.5,0.25,35.0,1,1.0,0.28230000000002065
86,50,0.5,1.0,35.0,1,1.0,0.26889999999991687
87,50,0.5,0.0625,-35.0,1,0.0,3.7992999999999597
88,50,0.5,0.0,35.0,1,1.0,0.6882999999999697
89,50,0.5,0.25,35.0,1,1.0,0.37389999999993506
90,50,0.5,0.25,35.0,1,1.0,0.5683999999999401
91,50,0.5,0.0,35.0,1,1.0,2.137899999999945
92,50,0.5,0.125,35.0,1,1.0,0.27549999999996544
93,50,0.5,0.0,35.0,1,1.0,5.731799999999964
94,50,0.5,1.0,-35.0,1,0.0,0.14699999999999136
95,50,1.0,1.0,-35.0,-1,1.0,0.4605999999999426
96,50,0.5,1.0,-35.0,-1,1.0,0.43559999999996535
97,50,0.5,0.125,35.0,1,1.0,0.49069999999994707
98,50,0.5,0.0,-35.0,1,0.0,2.9156999999999584
99,50,0.5,0.0,-35.0,-1,1.0,3.004699999999957
100,50,0.5,1.0,-35.0,-1,1.0,0.38789999999994507
101,50,0.5,0.0625,35.0,1,1.0,0.30979899999999816
102,50,0.5,0.25,35.0,1,1.0,0.37379999999996016
103,50,0.5,1.0,35.0,1,1.0,0.3984999999999559
104,50,0.5,0.0625,35.0,1,1.0,3.0061999999999216
105,50,0.5,1.0,35.0,1,1.0,0.6172999999999433
106,50,0.5,1.0,-35.0,-1,1.0,0.3158999999999992
107,50,0.5,0.125,-35.0,-1,1.0,3.515199999999993
108,50,0.5,1.0,35.0,1,1.0,0.38019999999994525
109,50,0.5,1.0,-35.0,-1,1.0,0.13989999999995462
110,50,0.5,0.125,-35.0,-1,1.0,0.25509999999997035
111,50,0.5,0.0,35.0,1,1.0,0.2752999999999588
112,50,0.5,0.125,35.0,1,1.0,0.6111999999999966
113,50,0.5,0.0625,35.0,-1,0.0,2.2912000000000035
114,50,0.5,0.0625,-35.0,1,0.0,0.7873999999999342
115,50,0.5,1.0,35.0,1,1.0,0.2566999999999666
116,50,0.5,0.0625,35.0,1,1.0,0.39529999999996335
117,50,0.5,0.25,35.0,1,1.0,0.4265999999999508
118,50,0.5,0.25,35.0,1,1.0,0.34889999999990096
119,50,0.5,1.0,-35.0,-1,1.0,0.4168000000000234
120,50,0.5,1.0,-35.0,-1,1.0,0.32440000000002556
121,50,0.5,0.25,35.0,1,1.0,0.24739999999997053
122,50,0.5,1.0,35.0,1,1.0,0.25549999999998363
123,50,0.5,1.0,-35.0,-1,1.0,0.36379999999996926
124,50,0.5,0.25,35.0,1,1.0,3.631399999999985
125,50,0.5,1.0,35.0,1,1.0,0.3825999999999681
126,50,0.5,0.25,-35.0,-1,1.0,0.4277000000000726
127,50,0.5,0.125,35.0,1,1.0,0.375699999999938
128,50,0.5,0.25,-35.0,-1,1.0,0.33579999999994925
129,50,0.5,0.0625,-35.0,1,0.0,2.654700000000048
130,50,0.6,0.0625,-35.0,1,0.0,1.7336999999998852
131,50,0.5,1.0,35.0,1,1.0,0.3447999999999638
132,50,0.5,0.0625,35.0,1,1.0,0.2939000000000078
133,50,0.5,1.0,-35.0,-1,1.0,0.3486000000000331
134,50,0.5,0.25,-35.0,-1,1.0,0.29690000000005057
135,50,0.5,1.0,35.0,1,1.0,0.23759999999992942
136,50,0.5,1.0,-35.0,-1,1.0,0.32759999999996126
137,50,0.5,1.0,-35.0,-1,1.0,0.27689999999995507
138,50,0.5,0.25,35.0,1,1.0,0.3671000000000504
139,50,0.5,0.25,-35.0,-1,1.0,0.5270000000000437
140,50,0.5,1.0,-35.0,-1,1.0,0.31999999999993634
141,50,0.5,0.125,-35.0,1,0.0,2.4479999999998654
142,50,0.5,0.0625,-35.0,-1,1.0,3.975099999999884
143,50,0.5,0.0,35.0,-1,0.0,0.20910000000003492
144,50,0.5,0.125,-35.0,-1,1.0,0.3734999999999218
145,50,0.5,0.25,35.0,1,1.0,0.3221999999999525
146,50,0.5,0.0,35.0,1,1.0,0.38619999999991705
147,50,0.5,0.0,35.0,-1,0.0,1.0102999999999156
148,50,0.5,0.25,35.0,1,1.0,1.348700000000008
149,50,0.5,0.0625,35.0,1,1.0,0.21330000000000382
150,50,0.5,0.125,-35.0,-1,1.0,0.3573999999998705
151,50,0.5,1.0,-35.0,-1,1.0,0.32169999999985066
152,50,0.5,0.0625,35.0,1,1.0,0.6725000000000136
153,50,0.5,0.125,-35.0,-1,1.0,0.5895999999999049
154,50,0.5,0.25,-35.0,-1,1.0,0.41279999999994743
155,50,0.5,1.0,35.0,1,1.0,0.42859999999996035
156,50,0.5,1.0,-35.0,-1,1.0,0.5506000000000313
157,50,0.5,0.125,35.0,1,1.0,2.9348999999999705
158,50,0.5,0.125,35.0,1,1.0,0.3185999999999467
159,50,0.5,0.125,-35.0,-1,1.0,0.48659999999995307
160,50,0.5,0.25,-35.0,-1,1.0,0.3405999999999949
161,50,0.5,0.25,-35.0,-1,1.0,0.37369999999998527
162,50,0.5,0.0,-35.0,-1,1.0,1.178000000000111
163,50,0.5,0.125,-35.0,1,0.0,0.9366999999999734
164,50,0.5,0.0625,-35.0,-1,1.0,0.4977999999999838
165,50,0.5,0.125,35.0,1,1.0,0.2178000000000111
166,50,0.5,0.125,-35.0,-1,1.0,0.8388999999999669
167,50,0.5,0.0,-35.0,1,0.0,2.225300000000061
168,50,0.5,0.0625,35.0,1,1.0,0.4859000000000151
169,50,0.5,0.125,-35.0,-1,1.0,0.2759999999999536
170,50,0.5,0.125,-35.0,-1,1.0,0.38200000000006185
171,50,0.5,0.0625,35.0,1,1.0,0.6399999999999864
172,50,0.5,0.125,35.0,1,1.0,0.19509999999991123
173,50,0.5,1.0,-35.0,-1,1.0,0.34340000000008786
174,50,0.5,0.0625,35.0,1,1.0,0.059799999999995634
175,50,0.5,1.0,35.0,1,1.0,0.3050999999999249
176,50,0.5,1.0,35.0,1,1.0,0.38219999999989795
177,50,0.5,0.25,-35.0,-1,1.0,0.369199999999978
178,50,0.5,0.125,35.0,1,1.0,1.160099999999943
179,50,0.5,0.125,-35.0,-1,1.0,0.7511999999999261
180,50,0.5,1.0,-35.0,-1,1.0,0.4431999999999334
181,50,0.5,0.25,35.0,1,1.0,0.22439999999994598
182,50,0.5,0.25,35.0,1,1.0,0.3232999999999038
183,50,0.5,0.125,35.0,1,1.0,0.5652999999999793
184,50,0.5,0.0625,35.0,1,1.0,0.38769999999999527
185,50,0.5,0.125,-35.0,-1,1.0,0.40440000000000964
186,50,0.5,1.0,-35.0,-1,1.0,0.33940000000006876
187,50,0.5,0.125,35.0,1,1.0,1.641399999999976
188,50,0.5,0.25,-35.0,-1,1.0,0.34580000000005384
189,50,0.5,0.0625,-35.0,1,0.0,4.03430000000003
190,50,0.5,0.125,-35.0,-1,1.0,0.35160000000007585
191,50,0.5,0.25,-35.0,-1,1.0,0.46449999999992997
192,50,0.5,0.0625,35.0,1,1.0,0.7339999999999236
193,50,0.5,0.0625,-35.0,-1,1.0,0.3406999999999698
194,50,0.5,1.0,35.0,1,1.0,0.22499999999990905
195,50,0.5,0.125,-35.0,-1,1.0,0.6333999999999378
196,50,0.5,0.0625,35.0,1,1.0,0.2897000000000389
197,50,0.5,0.25,-35.0,1,0.0,0.10869999999999891
198,50,0.5,0.25,-35.0,-1,1.0,0.5372999999999593
199,50,0.5,0.25,35.0,1,1.0,0.24089999999989686
200,50,0.5,1.0,35.0,1,1.0,0.23480000000006385
201,50,0.5,1.0,35.0,1,1.0,0.2685999999998785
202,50,0.5,0.25,-35.0,-1,1.0,0.4119989999999234
203,50,0.5,0.125,-35.0,1,0.0,1.319699999999898
204,50,0.7,0.125,-35.0,-1,1.0,0.3389999999999418
205,50,0.5,1.0,-35.0,-1,1.0,0.3249999999999318
206,50,0.5,1.0,35.0,1,1.0,0.2440999999998894
207,50,0.5,0.0625,35.0,-1,0.0,1.0390999999999622
208,50,0.5,0.25,-35.0,-1,1.0,0.30129999999996926
209,50,0.5,1.0,-35.0,-1,1.0,0.2761990000000196
210,50,0.5,0.25,-35.0,-1,1.0,0.37009999999997945
211,50,0.5,0.0625,-35.0,-1,1.0,0.59800000000007
212,50,0.5,0.25,-35.0,-1,1.0,0.35349999999994
213,50,0.5,0.25,35.0,1,1.0,0.26920000000006894
214,50,0.5,0.125,-35.0,-1,1.0,0.26969999999994343
215,50,0.5,0.0625,35.0,1,1.0,3.5703999999999496
216,50,0.5,0.125,-35.0,1,0.0,0.8233000000000175
217,50,0.5,0.25,35.0,1,1.0,0.3000999999999294
218,50,0.5,0.125,-35.0,-1,1.0,2.3903999999999996
219,50,0.5,0.0625,-35.0,1,0.0,0.2137999999998783
220,50,0.5,0.0,-35.0,1,0.0,0.1593999999998914
221,50,0.5,0.0625,35.0,1,1.0,0.2664999999999509
222,50,0.5,1.0,35.0,1,1.0,0.28449999999998
223,50,0.5,0.0,-35.0,1,0.0,0.8847000000000662
224,50,0.5,0.125,-35.0,-1,1.0,0.4515999999999849
225,50,0.5,0.0625,-35.0,-1,1.0,0.46230000000002747
226,50,0.5,0.0625,-35.0,1,0.0,0.31959999999992306
227,50,0.5,0.25,-35.0,-1,1.0,0.31959999999992306
228,50,0.5,0.0625,-35.0,1,0.0,0.11879999999996471
229,50,0.5,0.0,35.0,1,1.0,1.3359000000000378
230,50,0.5,0.125,35.0,1,1.0,0.5187000000000808
231,50,0.5,0.25,35.0,1,1.0,0.26530000000002474
232,50,0.5,0.25,35.0,1,1.0,0.2458000000000311
233,50,0.5,0.125,-35.0,-1,1.0,0.42480000000000473
234,50,0.5,0.125,35.0,1,1.0,0.26080000000001746
235,50,0.5,0.125,-35.0,-1,1.0,0.36990000000002965
236,50,0.5,0.25,-35.0,-1,1.0,0.4476999999999407
237,50,0.5,1.0,-35.0,-1,1.0,0.2578999999999496
238,50,0.5,0.125,-35.0,-1,1.0,0.33530000000007476
239,50,0.5,0.0625,35.0,1,1.0,0.2136999999999034
240,50,0.5,0.25,35.0,-1,0.0,0.26109999999994216
241,50,0.5,0.0625,35.0,1,1.0,0.24130000000002383
242,50,0.5,1.0,-35.0,-1,1.0,0.4411000000000058
243,50,0.5,0.25,-35.0,-1,1.0,0.2884999999999991
244,50,0.5,0.25,35.0,1,1.0,0.36950000000001637
245,50,0.5,0.125,-35.0,-1,1.0,0.3311999999999671
246,50,0.5,0.25,-35.0,-1,1.0,0.2920999999998912
247,50,0.5,0.125,-35.0,1,0.0,0.1674000000000433
248,50,0.4,0.125,35.0,1,1.0,0.2503000000000384
249,50,0.5,1.0,35.0,1,1.0,0.22529999999994743
250,50,0.5,0.25,35.0,1,1.0,1.9628000000000156
251,50,0.5,0.0625,35.0,1,1.0,0.3061999999999898
252,50,0.5,0.25,35.0,1,1.0,0.27139999999997144
253,50,0.5,0.25,35.0,1,1.0,0.2643000000000484
254,50,0.5,0.125,35.0,1,1.0,0.8686000000000149
255,50,0.5,0.25,35.0,1,1.0,0.5363999999999578
256,50,0.5,1.0,35.0,1,1.0,0.46630000000004657
257,50,0.5,0.0625,35.0,1,1.0,1.094600000000014
258,50,0.5,0.0625,35.0,1,1.0,0.2785000000000082
259,50,0.5,0.25,35.0,1,1.0,0.40850000000000364
260,50,0.5,0.125,35.0,1,1.0,2.335900000000038
261,50,0.5,0.0,-35.0,1,0.0,0.26499999999998636
262,50,0.5,0.25,-35.0,-1,1.0,0.445699999999988
263,50,0.5,0.25,35.0,1,1.0,0.23539999999991323
264,50,0.5,0.0625,-35.0,1,0.0,0.43869999999992615
265,50,0.5,0.25,-35.0,-1,1.0,0.31569999999999254
266,50,0.5,0.0625,35.0,1,1.0,0.13330000000019027
267,50,0.5,1.0,35.0,1,1.0,0.2592000000001917
268,50,0.5,0.0625,35.0,-1,0.0,0.6461000000001604
269,50,0.5,0.0625,35.0,1,1.0,0.2995000000003074
270,50,0.5,0.0625,35.0,1,1.0,0.2599000000002434
271,50,0.5,0.125,-35.0,1,0.0,2.54300000000012
272,50,0.5,0.25,-35.0,-1,1.0,0.6279999999999291
273,50,0.5,0.25,-35.0,1,0.0,0.13040000000000873
274,50,0.7,0.25,-35.0,-1,1.0,0.32730000000015025
275,50,0.5,1.0,-35.0,-1,1.0,0.28060000000027685
276,50,0.5,0.25,-35.0,1,0.0,0.06090000000017426
277,50,0.5,0.125,-35.0,1,0.0,0.2212000000001808
278,50,0.5,0.25,-35.0,-1,1.0,0.28470000000015716
279,50,0.5,0.0625,-35.0,-1,1.0,0.34789999999998145
280,50,0.5,1.0,35.0,1,1.0,0.25520000000005894
281,50,0.5,0.125,35.0,1,1.0,0.409099999999853
282,50,0.5,0.25,-35.0,-1,1.0,0.32530000000019754
283,50,0.5,0.0625,35.0,1,1.0,0.35819999999989705
284,50,0.5,0.125,-35.0,-1,1.0,0.5186000000001059
285,50,0.5,1.0,35.0,1,1.0,0.8953000000001339
286,50,0.5,0.125,35.0,1,1.0,0.5293000000001484
287,50,0.5,0.25,-35.0,-1,1.0,0.3226999999999407
288,50,0.5,1.0,-35.0,-1,1.0,0.3188000000000102
289,50,0.5,0.0,35.0,-1,0.0,1.6463999999998578
290,50,0.5,0.0625,35.0,1,1.0,0.3894999999999982
291,50,0.5,1.0,-35.0,-1,1.0,0.41960000000017317
292,50,0.5,0.0,35.0,1,1.0,0.19700000000011642
293,50,0.5,0.0,35.0,1,1.0,0.6665000000000418
294,50,0.5,1.0,35.0,1,1.0,0.26660000000015316
295,50,0.5,0.0625,35.0,1,1.0,0.2834000000002561
296,50,0.5,0.125,35.0,1,1.0,0.36340000000018335
297,50,0.5,0.25,35.0,1,1.0,0.2802000000001499
298,50,0.5,1.0,-35.0,-1,1.0,1.227100000000064
299,50,0.5,0.125,-35.0,-1,1.0,0.3569999999999709
300,50,0.5,0.125,-35.0,-1,1.0,0.3613000000000284
301,50,0.5,0.0625,35.0,1,1.0,0.9708000000002812
302,50,0.5,0.25,35.0,1,1.0,0.23080000000004475
303,50,0.5,1.0,35.0,1,1.0,0.35779999999999745
304,50,0.5,0.25,35.0,1,1.0,0.304300000000012
305,50,0.5,0.0625,35.0,1,1.0,0.32140000000003965
306,50,0.5,0.0,-35.0,1,0.0,3.068899999999985
307,50,0.5,0.0625,-35.0,1,0.0,0.3181000000001859
308,50,0.7,0.0625,-35.0,1,0.0,0.29900000000020555
309,50,0.5,1.0,-35.0,-1,1.0,0.34960000000023683
310,50,0.5,0.25,-35.0,-1,1.0,0.30550000000016553
311,50,0.5,0.25,35.0,1,1.0,0.21909900000014204
312,50,0.5,0.125,35.0,-1,0.0,0.07619999999997162
313,50,0.5,0.0,35.0,1,1.0,1.8926000000001295
314,50,0.5,0.25,35.0,1,1.0,0.2602000000001681
315,50,0.5,0.25,35.0,1,1.0,0.26320000000009713
316,50,0.5,0.25,-35.0,1,0.0,0.28670000000010987
317,50,0.7,0.25,-35.0,-1,1.0,0.6333000000001903
318,50,0.5,1.0,-35.0,-1,1.0,0.247300000000223
319,50,0.5,0.125,-35.0,-1,1.0,0.3204000000000633
320,50,0.5,1.0,35.0,1,1.0,0.21400000000016917
321,50,0.5,0.25,35.0,1,1.0,0.28449999999998
322,50,0.5,0.25,35.0,1,1.0,0.42039999999997235
323,50,0.5,0.25,35.0,1,1.0,0.24459999999999127
324,50,0.5,1.0,35.0,1,1.0,0.2376000000001568
325,50,0.5,0.0,-35.0,1,0.0,1.508600000000115
326,50,0.7,0.0,35.0,1,1.0,1.744799999999941
327,50,0.5,1.0,-35.0,-1,1.0,0.5090000000000146
328,50,0.5,0.125,-35.0,-1,1.0,0.2156999999999698
329,50,0.5,1.0,-35.0,-1,1.0,0.28220000000032996
330,50,0.5,0.0625,35.0,1,1.0,0.3352999999999611
331,50,0.5,1.0,-35.0,-1,1.0,0.29280000000017026
332,50,0.5,0.25,-35.0,-1,1.0,0.3188000000000102
333,50,0.5,0.0625,-35.0,-1,1.0,0.5088999999998123
334,50,0.5,0.125,35.0,1,1.0,0.25240000000007967
335,50,0.5,0.125,35.0,1,1.0,0.25610000000028776
336,50,0.5,0.0625,35.0,1,1.0,0.26269999999999527
337,50,0.5,0.25,-35.0,-1,1.0,0.5128999999999451
338,50,0.5,0.0,35.0,1,1.0,0.8098999999999705
339,50,0.5,0.0625,35.0,1,1.0,0.27640000000019427
340,50,0.5,0.125,-35.0,1,0.0,0.08350000000018554
341,50,0.5,0.125,-35.0,-1,1.0,0.3270999999999731
342,50,0.5,0.0,-35.0,1,0.0,0.3401000000001204
343,50,0.5,0.25,35.0,1,1.0,0.2842000000000553
344,50,0.5,0.0,35.0,1,1.0,0.06729999999993197
345,50,0.5,0.25,-35.0,-1,1.0,0.49420000000031905
346,50,0.5,1.0,-35.0,-1,1.0,0.2576000000001386
347,50,0.5,0.125,-35.0,-1,1.0,0.3113000000003012
348,50,0.5,1.0,35.0,1,1.0,0.23520000000007713
349,50,0.5,0.25,-35.0,-1,1.0,0.24480000000016844
350,50,0.5,0.0625,35.0,1,1.0,0.3483000000001084
351,50,0.5,0.25,35.0,1,1.0,0.3249000000000706
352,50,0.5,0.25,-35.0,-1,1.0,0.31189999999992324
353,50,0.5,1.0,-35.0,-1,1.0,0.30530000000021573
354,50,0.5,1.0,35.0,1,1.0,0.24549999999999272
355,50,0.5,1.0,35.0,1,1.0,0.22860000000014224
356,50,0.5,0.125,35.0,1,1.0,0.27880000000004657
357,50,0.5,0.0625,35.0,1,1.0,0.42620000000010805
358,50,0.5,0.125,35.0,-1,0.0,0.3693000000000666
359,50,0.5,0.25,35.0,1,1.0,0.25919999999996435
360,50,0.5,0.125,-35.0,-1,1.0,0.686200000000099
361,50,0.5,1.0,-35.0,-1,1.0,0.41950000000019827
362,50,0.5,1.0,35.0,1,1.0,0.22630000000026484
363,50,0.5,1.0,35.0,1,1.0,0.23300000000017462
364,50,0.5,0.0,-35.0,1,0.0,0.14330000000018117
365,50,0.5,0.125,-35.0,1,0.0,0.1304000000002361
366,50,0.5,0.25,-35.0,-1,1.0,0.3007999999999811
367,50,0.5,0.125,35.0,1,1.0,0.2947999999998956
368,50,0.5,0.25,-35.0,-1,1.0,0.13780000000019754
369,50,0.5,0.125,-35.0,-1,1.0,0.45090000000004693
370,50,0.5,0.125,35.0,1,1.0,0.4979000000000724
371,50,0.5,1.0,-35.0,-1,1.0,0.3041000000000622
372,50,0.5,1.0,35.0,1,1.0,0.24450000000024374
373,50,0.5,0.25,35.0,1,1.0,0.3020000000001346
374,50,0.5,0.125,35.0,1,1.0,0.18910000000005311
375,50,0.5,1.0,35.0,1,1.0,0.3285999999998239
376,50,0.5,0.25,-35.0,-1,1.0,0.40210000000001855
377,50,0.5,0.125,-35.0,-1,1.0,0.33920000000011896
378,50,0.5,1.0,-35.0,-1,1.0,0.5192000000001826
379,50,0.5,1.0,-35.0,-1,1.0,0.2962999999999738
380,50,0.5,0.125,35.0,1,1.0,0.2393000000001848
381,50,0.5,1.0,-35.0,1,0.0,0.06970000000001164
382,50,0.5,0.0625,-35.0,1,0.0,0.20299999999997453
383,50,0.5,0.0625,35.0,1,1.0,0.25040000000012697
384,50,0.5,1.0,-35.0,-1,1.0,0.36920000000031905
385,50,0.5,0.125,-35.0,-1,1.0,0.29310000000009495
386,50,0.5,0.125,-35.0,-1,1.0,0.5832000000002608
387,50,0.5,0.25,-35.0,-1,1.0,0.31670000000030996
388,50,0.5,0.0,-35.0,1,0.0,0.2737000000001899
389,50,0.5,0.25,-35.0,-1,1.0,0.33710000000019136
390,50,0.5,0.125,35.0,1,1.0,0.30730000000016844
391,50,0.5,0.0,35.0,1,1.0,0.3707000000001699
392,50,0.5,1.0,-35.0,-1,1.0,0.3141000000002805
393,50,0.5,0.25,-35.0,-1,1.0,0.3743000000001757
394,50,0.5,0.0625,35.0,-1,0.0,0.1812000000002172
395,50,0.5,0.125,-35.0,-1,1.0,0.30130000000008295
396,50,0.5,0.25,-35.0,-1,1.0,0.5749000000000706
397,50,0.5,0.0625,35.0,1,1.0,0.3249000000000706
398,50,0.5,1.0,35.0,1,1.0,0.2717000000000098
399,50,0.5,0.25,35.0,1,1.0,0.3251000000000204
400,50,0.5,1.0,-35.0,-1,1.0,0.3485000000000582
401,50,0.5,1.0,-35.0,-1,1.0,0.49520000000006803
402,50,0.5,1.0,-35.0,-1,1.0,0.31539999999995416
403,50,0.5,0.0,35.0,1,1.0,2.0621000000001004
404,50,0.5,0.25,-35.0,-1,1.0,0.3057000000001153
405,50,0.5,0.25,-35.0,-1,1.0,0.33910000000014406
406,50,0.5,0.0,35.0,1,1.0,0.9426000000003114
407,50,0.5,0.125,35.0,1,1.0,0.2259999999998854
408,50,0.5,1.0,-35.0,-1,1.0,0.3161999999999807
409,50,0.5,1.0,-35.0,-1,1.0,0.5096000000000913
410,50,0.5,0.125,-35.0,-1,1.0,0.5797000000000025
411,50,0.5,0.0625,-35.0,-1,1.0,0.376700000000028
412,50,0.5,0.0,-35.0,1,0.0,0.4634000000003198
413,50,0.5,0.25,35.0,1,1.0,0.2601999999999407
414,50,0.5,0.0,-35.0,1,0.0,2.157000000000153
415,50,0.5,0.0,-35.0,-1,1.0,2.583900000000085
416,50,0.5,1.0,-35.0,-1,1.0,0.32080000000019027
417,50,0.5,1.0,35.0,1,1.0,0.33750000000009095
418,50,0.5,0.125,-35.0,-1,1.0,0.3077000000002954
419,50,0.5,0.0625,-35.0,-1,1.0,0.451200000000199
420,50,0.5,1.0,35.0,1,1.0,0.22800000000006548
421,50,0.5,0.0625,-35.0,-1,1.0,0.581300000000283
422,50,0.5,0.25,-35.0,-1,1.0,1.1548000000002503
423,50,0.5,0.25,-35.0,-1,1.0,0.36500000000023647
424,50,0.5,0.125,-35.0,1,0.0,1.915100000000166
425,50,0.5,0.0625,-35.0,-1,1.0,0.3785000000000309
426,50,0.5,0.25,35.0,1,1.0,0.2820000000001528
427,50,0.5,0.0625,-35.0,-1,1.0,0.332300000000032
428,50,0.5,0.0625,35.0,1,1.0,0.23250000000007276
429,50,0.5,0.0,-35.0,1,0.0,2.9727000000000317
430,50,0.5,0.0,35.0,1,1.0,0.28290000000015425
431,50,0.5,1.0,35.0,1,1.0,0.22300000000018372
432,50,0.5,0.0625,35.0,1,1.0,0.1366000000002714
433,50,0.5,0.125,-35.0,-1,1.0,0.6266000000000531
434,50,0.5,0.25,35.0,1,1.0,0.23670000000015534
435,50,0.5,1.0,35.0,1,1.0,0.20370000000025357
436,50,0.5,0.25,35.0,1,1.0,0.25040000000012697
437,50,0.5,0.0625,-35.0,-1,1.0,0.7038000000000011
438,50,0.5,1.0,-35.0,-1,1.0,0.5075000000001637
439,50,0.5,0.125,35.0,1,1.0,0.2943000000000211
440,50,0.5,0.125,35.0,1,1.0,0.2613000000001193
441,50,0.5,0.0625,35.0,1,1.0,0.26470000000017535
442,50,0.5,1.0,-35.0,-1,1.0,0.31150000000002365
443,50,0.5,1.0,35.0,1,1.0,0.19839999999999236
444,50,0.5,0.125,35.0,1,1.0,0.2051000000001295
445,50,0.5,0.0625,35.0,-1,0.0,0.41210000000023683
446,50,0.5,0.0625,-35.0,1,0.0,0.03230000000007749
447,50,0.5,0.0625,-35.0,-1,1.0,1.8925000000001546
448,50,0.5,1.0,-35.0,-1,1.0,0.2158999999999196
449,50,0.5,0.0,-35.0,1,0.0,0.7460000000000946
450,50,0.5,0.0625,35.0,1,1.0,0.2296000000001186
451,50,0.5,0.25,-35.0,-1,1.0,0.2696000000000822
452,50,0.5,1.0,35.0,1,1.0,0.23979999999983193
453,50,0.5,1.0,-35.0,-1,1.0,0.2567000000003645
454,50,0.5,1.0,-35.0,-1,1.0,0.30680000000029395
455,50,0.5,0.125,35.0,1,1.0,0.22360000000026048
456,50,0.5,0.125,35.0,1,1.0,0.3404000000000451
457,50,0.5,0.125,35.0,1,1.0,0.2571000000002641
458,50,0.5,0.0625,-35.0,-1,1.0,0.5739000000000942
459,50,0.5,0.125,-35.0,-1,1.0,0.607300000000123
460,50,0.5,0.125,35.0,1,1.0,0.2541000000001077
461,50,0.5,0.125,-35.0,-1,1.0,0.26100000000019463
462,50,0.5,0.25,-35.0,-1,1.0,0.36779999999998836
463,50,0.5,0.0625,35.0,1,1.0,0.3145999999999276
464,50,0.5,0.0,35.0,-1,0.0,0.4515000000001237
465,50,0.5,0.0625,-35.0,-1,1.0,0.3483000000003358
466,50,0.5,0.125,-35.0,-1,1.0,0.28510000000005675
467,50,0.5,1.0,-35.0,-1,1.0,0.22180000000025757
468,50,0.5,0.25,35.0,1,1.0,0.24850000000014916
469,50,0.5,0.125,-35.0,-1,1.0,0.30209999999988213
470,50,0.5,0.25,-35.0,-1,1.0,0.29890000000023065
471,50,0.5,0.25,35.0,1,1.0,0.31559999999990396
472,50,0.5,1.0,35.0,1,1.0,0.21580000000017208
473,50,0.5,0.25,-35.0,-1,1.0,0.3663000000001375
474,50,0.5,0.0625,-35.0,-1,1.0,0.3829000000000633
475,50,0.5,0.0,-35.0,1,0.0,0.3263000000001739
476,50,0.5,0.125,35.0,1,1.0,2.39650000000006
477,50,0.5,0.125,-35.0,-1,1.0,0.31009999999992033
478,50,0.5,0.25,-35.0,-1,1.0,0.3502000000000862
479,50,0.5,0.25,35.0,1,1.0,0.9305000000001655
480,50,0.5,1.0,35.0,1,1.0,0.2804990000001908
481,50,0.5,0.25,-35.0,-1,1.0,0.3206000000000131
482,50,0.5,1.0,35.0,1,1.0,0.2376000000001568
483,50,0.5,0.0,35.0,-1,0.0,1.9575000000002092
484,50,0.5,0.0,35.0,-1,0.0,1.1544000000001233
485,50,0.5,1.0,-35.0,-1,1.0,0.26120000000014443
486,50,0.5,0.125,35.0,1,1.0,-0.011899999999968713
487,50,0.5,1.0,-35.0,-1,1.0,0.22829999999999018
488,50,0.5,0.0,-35.0,-1,1.0,0.22180000000025757
489,50,0.5,0.25,-35.0,-1,1.0,0.22850000000016735
490,50,0.5,0.0625,-35.0,-1,1.0,0.28880000000003747
491,50,0.5,0.0,-35.0,1,0.0,3.628900000000158
492,50,0.5,0.125,-35.0,-1,1.0,0.2825000000000273
493,50,0.5,0.25,-35.0,-1,1.0,0.2594000000001415
494,50,0.5,0.0625,-35.0,-1,1.0,0.2227989999998954
495,50,0.5,0.0625,35.0,1,1.0,0.25300000000015643
496,50,0.5,0.25,-35.0,-1,1.0,0.30320000000006075
497,50,0.5,0.125,-35.0,-1,1.0,0.2733000000002903
498,50,0.5,1.0,35.0,1,1.0,0.20000000000004547
499,50,0.5,1.0,-35.0,-1,1.0,0.8803000000002612
500,50,0.5,0.25,35.0,1,1.0,0.3139000000001033
501,50,0.5,1.0,35.0,1,1.0,0.20059999999989486
502,50,0.5,0.0,35.0,-1,0.0,0.2673000000002048
503,50,0.5,0.125,35.0,-1,0.0,0.2376000000001568
504,50,0.4,0.125,-35.0,-1,1.0,0.4110000000000582
505,50,0.5,1.0,-35.0,-1,1.0,0.2778000000000702
506,50,0.5,0.125,-35.0,-1,1.0,0.2880000000000109
507,50,0.5,0.0625,35.0,1,1.0,0.19160000000010768
508,50,0.5,0.0,-35.0,1,0.0,0.28520000000003165
509,50,0.5,0.0,35.0,1,1.0,0.32199999999988904
510,50,0.5,1.0,-35.0,1,0.0,0.11560000000008586
511,50,0.5,0.125,-35.0,-1,1.0,0.30240000000026157
512,50,0.5,0.0,-35.0,1,0.0,0.2859000000000833
513,50,0.5,0.0,-35.0,1,0.0,0.296100000000024
514,50,0.5,1.0,-35.0,-1,1.0,0.2496000000001004
515,50,0.5,1.0,-35.0,-1,1.0,0.2598000000002685
516,50,0.5,0.25,-35.0,-1,1.0,0.3431000000000495
517,50,0.5,1.0,-35.0,-1,1.0,0.40000000000009095
518,50,0.5,0.25,-35.0,-1,1.0,1.4302000000000135
519,50,0.5,0.125,35.0,1,1.0,0.2904000000000906
520,50,0.5,0.25,-35.0,-1,1.0,0.32720000000017535
521,50,0.5,0.0625,-35.0,-1,1.0,0.3705000000002201
522,50,0.5,0.0625,35.0,1,1.0,0.3140000000000782
523,50,0.5,0.25,35.0,1,1.0,0.10410000000001673
524,50,0.5,0.0,35.0,1,1.0,1.1341999999999643
525,50,0.5,0.125,-35.0,-1,1.0,0.6512000000002445
526,50,0.5,0.125,-35.0,-1,1.0,0.32129999999961
527,50,0.5,0.25,35.0,1,1.0,0.2947999999996682
528,50,0.5,0.125,35.0,1,1.0,0.25159999999959837
529,50,0.5,0.125,35.0,1,1.0,0.25829999999950815
530,50,0.5,0.25,35.0,1,1.0,0.2451999999993859
531,50,0.5,0.25,-35.0,-1,1.0,0.2786999999998443
532,50,0.5,0.125,-35.0,-1,1.0,0.46869999999989886
533,50,0.5,0.25,-35.0,-1,1.0,1.0020999999997002
534,50,0.5,0.0625,35.0,1,1.0,2.8256000000001222
535,50,0.5,0.25,-35.0,-1,1.0,1.1924999999996544
536,50,0.5,0.0,-35.0,-1,1.0,0.24279999999998836
537,50,0.5,1.0,-35.0,-1,1.0,0.2598000000002685
538,50,0.5,0.25,-35.0,-1,1.0,0.4532000000003791
539,50,0.5,0.25,35.0,-1,0.0,0.0567999999998392
540,50,0.5,0.0625,-35.0,1,0.0,0.23019999999996799
541,50,0.5,0.25,35.0,1,1.0,0.26710000000002765
542,50,0.5,0.25,-35.0,-1,1.0,0.3505000000000109
543,50,0.5,1.0,35.0,1,1.0,0.2873999999997068
544,50,0.5,1.0,-35.0,-1,1.0,0.23749999999972715
545,50,0.5,0.0,-35.0,-1,1.0,1.2843000000002576
546,50,0.5,0.25,-35.0,-1,1.0,0.38129999999955544
547,50,0.5,0.0625,-35.0,-1,1.0,0.5079999999998108
548,50,0.5,0.0,35.0,1,1.0,0.2516000000000531
549,50,0.5,0.0625,-35.0,1,0.0,0.21849999999994907
550,50,0.5,0.0625,-35.0,-1,1.0,0.34859999999980573
551,50,0.5,1.0,35.0,1,1.0,0.23539999999957217
552,50,0.5,0.125,-35.0,-1,1.0,0.39909999999963475
553,50,0.5,0.0625,-35.0,-1,1.0,0.44610000000011496
554,50,0.5,0.0625,35.0,1,1.0,0.2927999999997155
555,50,0.5,0.25,-35.0,-1,1.0,0.29629999999951906
556,50,0.5,0.25,-35.0,1,0.0,0.06309999999984939
557,50,0.5,0.25,-35.0,-1,1.0,0.3566000000000713
558,50,0.5,0.25,-35.0,-1,1.0,0.27340000000003783
559,50,0.5,0.125,35.0,1,1.0,0.3568999999997686
560,50,0.5,0.125,35.0,1,1.0,0.29700000000002547
561,50,0.5,0.0625,35.0,1,1.0,0.29389999999966676
562,50,0.5,0.125,-35.0,-1,1.0,0.3973000000000866
563,50,0.5,0.125,-35.0,-1,1.0,0.4841999999998734
564,50,0.5,1.0,35.0,-1,0.0,0.07430000000022119
565,50,0.5,0.25,-35.0,-1,1.0,0.6111999999998261
566,50,0.5,0.0625,-35.0,-1,1.0,0.31129999999939173
567,50,0.5,0.0625,35.0,1,1.0,0.3780999999994492
568,50,0.5,0.25,35.0,1,1.0,0.23500000000012733
569,50,0.5,0.125,-35.0,-1,1.0,0.31500000000005457
570,50,0.5,0.125,-35.0,-1,1.0,0.3184999999998581
571,50,0.5,1.0,35.0,1,1.0,0.2885999999998603
572,50,0.5,1.0,35.0,1,1.0,0.2021999999997206
573,50,0.5,0.0,35.0,1,1.0,0.31899999999950523
574,50,0.5,0.25,35.0,1,1.0,0.2790999999997439
575,50,0.5,0.25,-35.0,-1,1.0,0.2658999999998741
576,50,0.5,0.0,-35.0,-1,1.0,0.6727999999998246
577,50,0.5,0.0,-35.0,-1,1.0,0.3194999999996071
578,50,0.5,0.0625,-35.0,-1,1.0,0.43989999999939755
579,50,0.5,0.0625,35.0,1,1.0,0.353099999999813
580,50,0.5,0.25,-35.0,-1,1.0,0.2199999999997999
581,50,0.5,0.25,35.0,1,1.0,0.2966999999998734
582,50,0.5,1.0,35.0,1,1.0,0.20359999999982392
583,50,0.5,1.0,35.0,1,1.0,0.2003999999997177
584,50,0.5,0.125,35.0,1,1.0,0.30409999999983484
585,50,0.5,1.0,35.0,1,1.0,0.3973999999998341
586,50,0.5,1.0,-35.0,-1,1.0,0.6374999999998181
587,50,0.5,0.0,-35.0,1,0.0,0.11429999999973006
588,50,0.5,0.125,35.0,1,1.0,0.014500000000225555
589,50,0.5,0.0625,-35.0,-1,1.0,0.4448000000002139
590,50,0.5,0.0625,35.0,1,1.0,0.4115999999999076
591,50,0.5,0.0625,-35.0,-1,1.0,0.34169999999994616
592,50,0.5,0.125,-35.0,-1,1.0,0.28530000000000655
593,50,0.5,0.125,35.0,1,1.0,0.30199999999967986
594,50,0.5,0.25,35.0,1,1.0,0.2554999999993015
595,50,0.5,0.0625,-35.0,-1,1.0,0.6355999999996129
596,50,0.5,0.125,-35.0,-1,1.0,1.1057999999993626
597,50,0.5,0.25,-35.0,-1,1.0,0.4827999999997701
598,50,0.5,0.0625,-35.0,-1,1.0,0.6162999999996828
599,50,0.5,0.0625,-35.0,-1,1.0,0.4096999999997024
600,50,0.5,0.25,35.0,1,1.0,0.2365999999997257
601,50,0.5,0.0,35.0,1,1.0,1.4769999999998618
602,50,0.5,0.125,35.0,1,1.0,0.28389999999990323
603,50,0.5,0.25,-35.0,-1,1.0,0.29399999999986903
604,50,0.5,0.125,35.0,1,1.0,0.09420000000000073
605,50,0.5,1.0,-35.0,-1,1.0,0.3109999999996944
606,50,0.5,0.0625,-35.0,-1,1.0,0.3144000000002052
607,50,0.5,0.0,35.0,1,1.0,0.33459999999968204
608,50,0.5,0.25,-35.0,-1,1.0,0.3346999999998843
609,50,0.5,0.0,35.0,1,1.0,0.5515000000000327
610,50,0.5,0.0,-35.0,1,0.0,0.2782999999999447
611,50,0.5,0.25,-35.0,-1,1.0,0.438499999999749
612,50,0.5,1.0,-35.0,-1,1.0,0.26530000000002474
613,50,0.5,0.0625,35.0,1,1.0,0.17879999999968277
614,50,0.5,0.0,35.0,1,1.0,0.29559999999992215
615,50,0.5,0.25,-35.0,1,0.0,0.1157999999995809
616,50,0.5,0.125,35.0,1,1.0,0.2994999999996253
617,50,0.5,0.0,-35.0,1,0.0,0.23629999999957363
618,50,0.5,0.25,35.0,1,1.0,0.2531999999996515
619,50,0.5,0.125,-35.0,-1,1.0,0.31320000000005166
620,50,0.5,0.125,35.0,1,1.0,0.2566999999999098
621,50,0.5,0.0625,35.0,1,1.0,0.2967999999996209
622,50,0.5,0.25,35.0,1,1.0,0.2568999999998596
623,50,0.5,0.0625,35.0,1,1.0,0.16049999999995634
624,50,0.5,0.125,-35.0,-1,1.0,0.32720000000017535
625,50,0.5,0.0625,-35.0,1,0.0,0.1940999999997075
626,50,0.5,0.125,35.0,1,1.0,1.3974999999995816
627,50,0.5,0.125,35.0,1,1.0,0.30769999999984066
628,50,0.5,0.25,35.0,1,1.0,0.34449999999969805
629,50,0.5,0.125,-35.0,-1,1.0,0.2749999999996362
630,50,0.5,1.0,-35.0,-1,1.0,0.29480000000012296
631,50,0.5,0.25,-35.0,-1,1.0,0.37820000000010623
632,50,0.5,0.125,-35.0,-1,1.0,0.5652000000000044
633,50,0.5,1.0,-35.0,-1,1.0,0.26860000000033324
634,50,0.5,0.25,35.0,1,1.0,0.3686000000002423
635,50,0.5,0.125,35.0,1,1.0,0.22879999999986467
636,50,0.5,0.0625,35.0,1,1.0,0.2888999999995576
637,50,0.5,0.0,35.0,1,1.0,0.7193999999999505
638,50,0.5,0.25,35.0,1,1.0,0.276299999999992
639,50,0.5,1.0,35.0,1,1.0,0.21969999999964784
640,50,0.5,0.25,-35.0,-1,1.0,0.28989999999976135
641,50,0.5,0.0625,35.0,1,1.0,0.2832999999995991
642,50,0.5,0.0,-35.0,1,0.0,0.060200000000349974
643,50,0.5,0.0,35.0,1,1.0,1.903599999999642
644,50,0.5,0.0625,35.0,1,1.0,0.3305000000000291
645,50,0.5,1.0,-35.0,-1,1.0,0.21729999999979555
646,50,0.5,0.125,-35.0,-1,1.0,0.3007999999999811
647,50,0.5,0.25,35.0,1,1.0,0.22749999999996362
648,50,0.5,0.25,-35.0,-1,1.0,0.33109999999942374
649,50,0.5,0.0625,35.0,1,1.0,0.29449999999951615
650,50,0.5,0.125,35.0,1,1.0,0.23479999999926804
651,50,0.5,0.0625,35.0,1,1.0,0.35819999999966967
652,50,0.5,0.25,-35.0,-1,1.0,0.28829999999970823
653,50,0.5,0.0,-35.0,1,0.0,1.5718000000001666
654,50,0.5,0.125,-35.0,-1,1.0,0.2818999999994958
655,50,0.5,0.125,35.0,1,1.0,0.26199999999971624
656,50,0.5,0.0625,35.0,1,1.0,0.31209999999964566
657,50,0.5,1.0,35.0,1,1.0,0.1956000000000131
658,50,0.5,1.0,35.0,1,1.0,0.22260000000005675
659,50,0.5,0.25,35.0,1,1.0,0.212699999999586
660,50,0.5,0.0625,35.0,1,1.0,0.2563000000000102
661,50,0.5,0.0625,35.0,1,1.0,0.2763999999997395
662,50,0.5,1.0,35.0,1,1.0,0.20319999999992433
663,50,0.5,0.25,35.0,1,1.0,0.3867000000000189
664,50,0.5,0.0625,35.0,1,1.0,0.2868999999996049
665,50,0.5,1.0,-35.0,-1,1.0,0.35019999999985885
666,50,0.5,0.125,35.0,1,1.0,0.28039999999964493
667,50,0.5,1.0,35.0,1,1.0,0.3206000000000131
668,50,0.5,0.0625,-35.0,1,0.0,0.1172999999998865
669,50,0.5,0.0,35.0,-1,0.0,1.124199999999746
670,50,0.5,0.0625,-35.0,-1,1.0,0.2943999999997686
671,50,0.5,0.0,35.0,1,1.0,0.45129999999971915
672,50,0.5,0.25,-35.0,-1,1.0,0.27819999999974243
673,50,0.5,0.0625,35.0,1,1.0,0.2717999999999847
674,50,0.5,0.0,-35.0,1,0.0,0.10869999999977153
675,50,0.5,0.125,35.0,1,1.0,0.238999999999578
676,50,0.5,1.0,-35.0,-1,1.0,0.2624999999998181
677,50,0.5,0.0625,-35.0,-1,1.0,0.49929999999994834
678,50,0.5,0.25,-35.0,-1,1.0,0.2595000000001164
679,50,0.5,1.0,-35.0,-1,1.0,0.34960000000000946
680,50,0.5,0.25,35.0,1,1.0,0.22979999999961365
681,50,0.5,0.125,-35.0,-1,1.0,0.34009999999989304
682,50,0.5,1.0,-35.0,-1,1.0,0.23369999999977153
683,50,0.5,0.25,35.0,1,1.0,0.3071999999997388
684,50,0.5,0.0625,35.0,-1,0.0,1.3541000000000167
685,50,0.5,0.125,-35.0,1,0.0,0.6641999999997097
686,50,0.3,0.125,-35.0,-1,1.0,0.6210999999998421
687,50,0.5,1.0,35.0,1,1.0,0.21790000000009968
688,50,0.5,0.0625,35.0,1,1.0,0.2647999999999229
689,50,0.5,0.25,35.0,1,1.0,0.2615000000000691
690,50,0.5,0.125,35.0,1,1.0,0.30829999999969004
691,50,0.5,1.0,-35.0,-1,1.0,0.3350999999997839
692,50,0.5,0.125,35.0,1,1.0,0.19529999999986103
693,50,0.5,1.0,-35.0,-1,1.0,0.09879999999975553
694,50,0.5,1.0,35.0,1,1.0,0.16229999999995925
695,50,0.5,0.0625,35.0,1,1.0,0.3125
696,50,0.5,0.125,35.0,1,1.0,0.25929999999971187
697,50,0.5,1.0,-35.0,-1,1.0,0.7128999999995358
698,50,0.5,0.0625,35.0,1,1.0,0.3164000000001579
699,50,0.5,0.0625,-35.0,-1,1.0,0.10989999999992506
700,50,0.5,0.125,-35.0,-1,1.0,0.3698999999996886
701,50,0.5,0.25,-35.0,-1,1.0,0.2933999999995649
702,50,0.5,0.25,35.0,1,1.0,0.30349999999998545
703,50,0.5,0.25,35.0,1,1.0,0.26690000000007785
704,50,0.5,0.125,35.0,1,1.0,0.203899999999976
705,50,0.5,1.0,35.0,1,1.0,0.05749999999989086
706,50,0.5,0.25,-35.0,1,0.0,0.14089999999987413
707,50,0.6,0.25,-35.0,-1,1.0,0.3110999999998967
708,50,0.5,1.0,-35.0,-1,1.0,0.29799999999977445
709,50,0.5,1.0,35.0,1,1.0,0.25480000000015934
710,50,0.5,0.125,35.0,1,1.0,0.33159999999998035
711,50,0.5,0.0625,-35.0,-1,1.0,0.18850000000020373
712,50,0.5,0.25,-35.0,-1,1.0,0.31849999999940337
713,50,0.5,0.0625,-35.0,-1,1.0,0.5387999999998101
714,50,0.5,0.125,35.0,1,1.0,0.3455000000003565
715,50,0.5,0.125,-35.0,-1,1.0,0.27899999999999636
716,50,0.5,0.0625,35.0,1,1.0,0.26909999999998035
717,50,0.5,1.0,-35.0,-1,1.0,0.372899999999845
718,50,0.5,0.125,35.0,1,1.0,0.23959999999942738
719,50,0.5,0.0,-35.0,1,0.0,0.20980000000008658
720,50,0.5,0.0,-35.0,1,0.0,0.5899999999996908
721,50,0.5,0.0625,35.0,1,1.0,0.0035000000002582965
722,50,0.5,0.125,35.0,1,1.0,0.2638999999994667
723,50,0.5,0.25,35.0,1,1.0,0.5307999999995445
724,50,0.5,0.125,35.0,1,1.0,0.7008999999998196
725,50,0.5,1.0,35.0,1,1.0,0.6010999999998603
726,50,0.5,1.0,-35.0,-1,1.0,0.08449999999993452
727,50,0.5,0.25,35.0,1,1.0,0.2314000000001215
728,50,0.5,0.25,-35.0,-1,1.0,0.23149999999941429
729,50,0.5,1.0,35.0,1,1.0,0.201799999999821
730,50,0.5,0.125,-35.0,-1,1.0,0.4985999999998967
731,50,0.5,0.0,-35.0,1,0.0,0.098700000000008
732,50,0.5,0.25,-35.0,-1,1.0,0.4487999999996646
733,50,0.5,0.25,35.0,1,1.0,0.2889999999997599
734,50,0.5,0.25,-35.0,-1,1.0,0.2725999999997839
735,50,0.5,0.25,35.0,1,1.0,0.17259999999987485
736,50,0.5,0.25,35.0,-1,0.0,1.0093999999999141
737,50,0.5,0.25,35.0,1,1.0,0.349699999999757
738,50,0.5,0.25,-35.0,-1,1.0,0.31970000000001164
739,50,0.5,0.0,-35.0,1,0.0,0.49999999999954525
740,50,0.5,0.0625,-35.0,-1,1.0,0.3101999999998952
741,50,0.5,1.0,35.0,1,1.0,0.1503999999995358
742,50,0.5,0.0625,35.0,1,1.0,0.28050000000030195
743,50,0.5,0.0625,35.0,1,1.0,0.2139999999999418
744,50,0.5,0.0625,35.0,1,1.0,0.26749999999992724
745,50,0.5,0.125,-35.0,-1,1.0,0.33089999999947395
746,50,0.5,0.125,-35.0,-1,1.0,0.3411999999998443
747,50,0.5,0.125,-35.0,-1,1.0,0.2746999999999389
748,50,0.5,1.0,-35.0,-1,1.0,0.26809999999977663
749,50,0.5,0.0,-35.0,1,0.0,0.32829999999967185
750,50,0.5,0.25,35.0,1,1.0,0.17519999999967695
751,50,0.5,0.0625,-35.0,-1,1.0,0.30529999999998836
752,50,0.5,0.0625,35.0,1,1.0,0.22880000000031941
753,50,0.5,0.0,35.0,1,1.0,0.5090000000000146
754,50,0.5,0.0,35.0,1,1.0,0.3257999999996173
755,50,0.5,0.25,35.0,1,1.0,0.07249999999976353
756,50,0.5,0.0,-35.0,1,0.0,0.706199999999626
757,50,0.5,0.0625,35.0,1,1.0,0.32629999999971915
758,50,0.5,1.0,35.0,1,1.0,0.28319999999985157
759,50,0.5,0.125,35.0,1,1.0,0.36990000000014334
760,50,0.5,1.0,35.0,-1,0.0,0.11670000000003711
761,50,0.5,0.125,35.0,1,1.0,0.23349999999982174
762,50,0.5,0.25,35.0,1,1.0,0.21039999999993597
763,50,0.5,0.125,-35.0,-1,1.0,0.3538999999996122
764,50,0.5,0.25,-35.0,-1,1.0,0.4541999999996733
765,50,0.5,1.0,35.0,1,1.0,0.3008999999997286
766,50,0.5,0.125,35.0,1,1.0,0.5676999999996042
767,50,0.5,0.0,35.0,1,1.0,1.1377999999999702
768,50,0.5,0.0625,-35.0,-1,1.0,0.3312999999998283
769,50,0.5,1.0,35.0,1,1.0,0.2080999999998312
770,50,0.5,1.0,-35.0,-1,1.0,0.3283999999998741
771,50,0.5,0.125,35.0,1,1.0,0.26190000000042346
772,50,0.5,1.0,-35.0,-1,1.0,0.33530000000018845
773,50,0.5,0.25,35.0,1,1.0,0.24890000000004875
774,50,0.5,0.0625,-35.0,-1,1.0,0.9021999999999935
775,50,0.5,0.125,-35.0,-1,1.0,0.2624000000000706
776,50,0.5,0.0625,-35.0,-1,1.0,0.5025000000000546
777,50,0.5,1.0,35.0,1,1.0,0.20599999999967622
778,50,0.5,0.25,-35.0,-1,1.0,0.8429000000000997
779,50,0.5,0.0,-35.0,1,0.0,0.8863999999998668
780,50,0.4,0.0,-35.0,1,0.0,1.983299999999872
781,50,0.5,1.0,-35.0,-1,1.0,0.2768999999998414
782,50,0.5,0.125,35.0,1,1.0,0.25369999999975335
783,50,0.5,0.125,-35.0,-1,1.0,1.0005999999998494
784,50,0.5,0.0,-35.0,-1,1.0,0.3872999999998683
785,50,0.5,0.25,35.0,1,1.0,0.2442999999998392
786,50,0.5,0.125,-35.0,-1,1.0,0.32769999999982247
787,50,0.5,1.0,35.0,1,1.0,0.2278999999998632
788,50,0.5,1.0,35.0,1,1.0,0.24459999999953652
789,50,0.5,1.0,-35.0,-1,1.0,0.2880000000000109
790,50,0.5,0.125,-35.0,-1,1.0,0.37159999999948923
791,50,0.5,0.0625,35.0,1,1.0,0.26169999999956417
792,50,0.5,1.0,35.0,1,1.0,0.2118000000000393
793,50,0.5,1.0,35.0,1,1.0,0.26199999999971624
794,50,0.5,0.25,35.0,1,1.0,0.2622000000001208
795,50,0.5,0.25,35.0,1,1.0,0.29229999999961365
796,50,0.5,0.0625,-35.0,1,0.0,0.2523999999998523
797,50,0.5,0.0625,35.0,1,1.0,0.34589999999980137
798,50,0.5,1.0,35.0,1,1.0,0.2359999999998763
799,50,0.5,0.25,35.0,1,1.0,0.2460999999998421
800,50,0.5,0.125,35.0,1,1.0,0.24299999999993815
801,50,0.5,1.0,-35.0,-1,1.0,0.2529999999997017
802,50,0.5,1.0,-35.0,1,0.0,0.10320000000001528
803,50,0.5,0.125,35.0,1,1.0,0.09000000000014552
804,50,0.5,0.0625,-35.0,1,0.0,0.12349999999969441
805,50,0.5,0.0,-35.0,1,0.0,1.0570999999999913
806,50,0.5,0.125,35.0,1,1.0,0.28720000000021173
807,50,0.5,0.0625,-35.0,-1,1.0,0.43760000000020227
808,50,0.5,1.0,35.0,1,1.0,0.3077999999995882
809,50,0.5,1.0,-35.0,-1,1.0,0.4444999999996071
810,50,0.5,0.0625,-35.0,-1,1.0,2.2049000000001797
811,50,0.5,1.0,35.0,-1,0.0,0.5486000000000786
812,50,0.5,0.0625,35.0,-1,0.0,0.9854000000004817
813,50,0.5,0.0625,35.0,1,1.0,0.41219999999930224
814,50,0.5,0.0,-35.0,1,0.0,0.6922999999997046
815,50,0.5,0.0,-35.0,-1,1.0,5.52599999999984
816,50,0.5,1.0,-35.0,-1,1.0,0.34649999999965075
817,50,0.5,0.125,-35.0,-1,1.0,0.2498000000000502
818,50,0.5,0.25,-35.0,-1,1.0,0.3265999999998712
819,50,0.5,0.25,35.0,1,1.0,0.4566999999997279
820,50,0.5,1.0,35.0,1,1.0,0.21349999999983993
821,50,0.5,0.25,-35.0,-1,1.0,0.2636000000002241
822,50,0.5,0.0625,35.0,1,1.0,0.3071999999997388
823,50,0.5,0.0625,35.0,1,1.0,0.27070000000003347
824,50,0.5,0.125,35.0,1,1.0,0.5907999999999447
825,50,0.5,0.25,35.0,1,1.0,0.27779999999984284
826,50,0.5,0.25,-35.0,-1,1.0,0.3481000000001586
827,50,0.5,0.0625,-35.0,-1,1.0,0.39159999999947104
828,50,0.5,0.0,-35.0,1,0.0,0.021999999999934516
829,50,0.5,0.0,35.0,1,1.0,0.3419999999996435
830,50,0.5,0.125,-35.0,-1,1.0,0.2955000000001746
831,50,0.5,1.0,35.0,1,1.0,0.2288999999996122
832,50,0.5,1.0,35.0,1,1.0,0.20899999999983265
833,50,0.5,1.0,35.0,1,1.0,0.23919999999998254
834,50,0.5,0.0625,35.0,1,1.0,0.5092999999997119
835,50,0.5,0.0625,35.0,1,1.0,3.692800000000261
836,50,0.5,0.25,-35.0,-1,1.0,0.3364000000001397
837,50,0.5,0.25,-35.0,-1,1.0,0.2864999999997053
838,50,0.5,0.0625,-35.0,-1,1.0,0.38329999999950815
839,50,0.5,1.0,-35.0,-1,1.0,0.24679999999989377
840,50,0.5,0.25,35.0,1,1.0,0.2937000000001717
841,50,0.5,1.0,-35.0,-1,1.0,0.4238000000000284
842,50,0.5,1.0,35.0,1,1.0,0.24399999999968713
843,50,0.5,0.0,-35.0,1,0.0,1.4206999999996697
844,50,0.5,0.125,35.0,1,1.0,0.264299999999821
845,50,0.5,1.0,35.0,1,1.0,0.324500000000171
846,50,0.5,0.125,35.0,1,1.0,0.234599999999773
847,50,0.5,0.125,-35.0,-1,1.0,0.33479999999963184
848,50,0.5,0.125,-35.0,-1,1.0,0.31159999999999854
849,50,0.5,0.125,35.0,1,1.0,0.3750999999997475
850,50,0.5,0.0625,35.0,1,1.0,0.3285009999999602
851,50,0.5,0.25,35.0,1,1.0,0.27870100000018283
852,50,0.5,0.25,-35.0,-1,1.0,0.3521009999999478
853,50,0.5,0.125,-35.0,-1,1.0,0.3689009999998234
854,50,0.5,0.0625,-35.0,-1,1.0,0.41250099999979284
855,50,0.5,0.125,35.0,1,1.0,0.8958009999996648
856,50,0.5,1.0,35.0,1,1.0,0.25930099999959566
857,50,0.5,0.0625,-35.0,-1,1.0,0.4028009999997266
858,50,0.5,0.0625,35.0,1,1.0,0.2796010000001843
859,50,0.5,1.0,35.0,1,1.0,0.3296999999997752
860,50,0.5,0.0,-35.0,1,0.0,0.059901000000081694
861,50,0.6,0.0,35.0,1,1.0,0.6833010000000286
862,50,0.5,1.0,35.0,1,1.0,0.24690099999997983
863,50,0.5,0.125,35.0,1,1.0,0.2435009999999238
864,50,0.5,0.0625,35.0,1,1.0,0.3736010000002352
865,50,0.5,0.125,35.0,1,1.0,0.30720100000007733
866,50,0.5,0.25,-35.0,-1,1.0,1.110700999999608
867,50,0.5,0.25,-35.0,-1,1.0,0.5242010000001756
868,50,0.5,1.0,35.0,1,1.0,0.37420099999962986
869,50,0.5,0.0625,-35.0,-1,1.0,0.43440099999997983
870,50,0.5,0.0,35.0,-1,0.0,0.7812010000002374
871,50,0.5,0.0625,35.0,1,1.0,0.31800099999964004
872,50,0.5,0.125,-35.0,-1,1.0,0.47150099999953454
873,50,0.5,0.0,35.0,-1,0.0,0.5450009999999565
874,50,0.5,0.125,35.0,1,1.0,0.28850099999999657
875,50,0.5,0.25,35.0,1,1.0,0.21860100000003513
876,50,0.5,0.25,35.0,1,1.0,0.2620010000000548
877,50,0.5,0.0625,-35.0,-1,1.0,0.40220099999987724
878,50,0.5,1.0,-35.0,-1,1.0,0.292500999999902
879,50,0.5,0.0625,-35.0,-1,1.0,0.5659009999999398
880,50,0.5,0.125,35.0,1,1.0,0.24610100000018065
881,50,0.5,0.0,-35.0,-1,1.0,1.3862009999998008
882,50,0.5,0.25,-35.0,-1,1.0,0.3097010000001319
883,50,0.5,0.25,-35.0,-1,1.0,0.4635009999997237
884,50,0.5,0.0625,35.0,1,1.0,0.27680099999997765
885,50,0.5,0.25,-35.0,-1,1.0,0.34370099999978265
886,50,0.5,0.25,-35.0,-1,1.0,0.31380099999978484
887,50,0.5,0.25,35.0,1,1.0,0.3306009999996604
888,50,0.5,1.0,35.0,1,1.0,0.2842009999999391
889,50,0.5,0.0625,35.0,1,1.0,0.3077010000001792
890,50,0.5,0.25,35.0,1,1.0,0.2579009999999471
891,50,0.5,0.0625,-35.0,-1,1.0,0.5947009999999864
892,50,0.5,0.0625,35.0,1,1.0,0.41810099999975137
893,50,0.5,0.0625,35.0,1,1.0,0.7016010000002098
894,50,0.5,0.125,35.0,1,1.0,0.2619009999998525
895,50,0.5,0.25,-35.0,-1,1.0,0.332100999999966
896,50,0.5,0.0,-35.0,-1,1.0,1.1955010000001494
897,50,0.5,0.25,-35.0,-1,1.0,0.3357009999999718
898,50,0.5,1.0,35.0,1,1.0,0.21250099999997474
899,50,0.5,0.25,-35.0,-1,1.0,0.3960010000000693
900,50,0.5,1.0,-35.0,-1,1.0,0.3694009999994705
901,50,0.5,1.0,35.0,1,1.0,0.23660099999960948
902,50,0.5,0.125,35.0,1,1.0,0.30320099999971717
903,50,0.5,0.0625,-35.0,-1,1.0,0.6834009999997761
904,50,0.5,0.25,-35.0,-1,1.0,0.3067009999995207
905,50,0.5,0.0625,-35.0,-1,1.0,0.5168009999997594
906,50,0.5,0.0625,-35.0,-1,1.0,0.32360099999959857
907,50,0.5,0.25,35.0,1,1.0,0.22380099999963932
908,50,0.5,0.125,-35.0,-1,1.0,0.3139009999999871
909,50,0.5,1.0,35.0,1,1.0,0.22410099999979138
910,50,0.5,0.125,-35.0,-1,1.0,0.9310009999994691
911,50,0.5,0.25,35.0,1,1.0,0.22780099999999948
912,50,0.5,0.0,35.0,1,1.0,1.2113009999998212
913,50,0.5,0.0,-35.0,1,0.0,0.961500999999771
914,50,0.5,0.0625,35.0,1,1.0,0.2951009999997041
915,50,0.5,0.25,35.0,1,1.0,0.2951010000001588
916,50,0.5,0.0,-35.0,1,0.0,0.6119010000002163
917,50,0.5,0.125,-35.0,-1,1.0,0.5188009999997121
918,50,0.5,0.25,-35.0,-1,1.0,0.42550100000016755
919,50,0.5,0.125,-35.0,-1,1.0,0.47900099999969825
920,50,0.5,0.0,-35.0,-1,1.0,0.26910099999986414
921,50,0.5,0.25,35.0,1,1.0,0.07260099999984959
922,50,0.5,0.0625,-35.0,-1,1.0,0.5127010000001064
923,50,0.5,0.0,35.0,1,1.0,0.7098009999999704
924,50,0.5,0.125,-35.0,-1,1.0,0.3299010000000635
925,50,0.5,0.25,-35.0,-1,1.0,0.3402009999999791
926,50,0.5,0.0625,-35.0,-1,1.0,0.4069009999998343
927,50,0.5,0.25,35.0,1,1.0,0.1937009999996917
928,50,0.5,0.25,35.0,1,1.0,0.3072009999996226
929,50,0.5,1.0,35.0,1,1.0,0.26730099999986123
930,50,0.5,0.125,35.0,1,1.0,0.2975010000000111
931,50,0.5,0.25,-35.0,-1,1.0,0.24440099999992526
932,50,0.5,0.125,-35.0,-1,1.0,0.25450099999989106
933,50,0.5,1.0,-35.0,-1,1.0,0.30140099999971426
934,50,0.5,0.0625,-35.0,-1,1.0,0.39810099999976956
935,50,0.5,0.125,35.0,1,1.0,0.5617010000000846
936,50,0.5,0.125,-35.0,-1,1.0,0.37520100000028833
937,50,0.5,1.0,-35.0,-1,1.0,0.29520099999990634
938,50,0.5,0.0625,-35.0,1,0.0,3.4154009999992923
939,50,0.5,0.125,35.0,1,1.0,0.2623009999997521
940,50,0.5,0.25,-35.0,-1,1.0,0.27240100000017264
941,50,0.5,0.0,-35.0,1,0.0,2.202701000000161
942,50,0.4,0.0,35.0,1,1.0,1.3229010000000017
943,50,0.5,1.0,-35.0,-1,1.0,0.4131009999996422
944,50,0.5,0.125,35.0,1,1.0,0.30660100000022794
945,50,0.5,0.0,-35.0,-1,1.0,1.7402009999996153
946,50,0.5,0.0,35.0,-1,0.0,0.6802010000001246
947,50,0.5,0.0625,35.0,-1,0.0,1.6171010000002752
948,50,0.5,0.0625,35.0,1,1.0,2.274101000000428
949,50,0.5,1.0,-35.0,-1,1.0,0.6711009999999078
950,50,0.5,0.0,-35.0,-1,1.0,1.0644009999996342
951,50,0.5,1.0,35.0,1,1.0,0.19820099999969898
952,50,0.5,0.25,35.0,1,1.0,0.27490099999977247
953,50,0.5,0.0625,-35.0,1,0.0,0.5252009999999245
954,50,0.5,0.25,-35.0,-1,1.0,0.4052010000004884
955,50,0.5,0.25,35.0,1,1.0,0.5088009999999485
956,50,0.5,0.0625,35.0,1,1.0,0.46890099999973245
957,50,0.5,1.0,35.0,1,1.0,0.26240099999995437
958,50,0.5,0.125,-35.0,-1,1.0,0.15250099999957456
959,50,0.5,1.0,35.0,1,1.0,0.21280099999967206
960,50,0.5,0.125,35.0,1,1.0,0.26300099999980375
961,50,0.5,0.125,-35.0,-1,1.0,0.20650100000011662
962,50,0.5,0.25,35.0,-1,0.0,0.28990099999964514
963,50,0.6,0.25,35.0,1,1.0,0.25680099999999584
964,50,0.5,1.0,-35.0,-1,1.0,0.6069009999996524
965,50,0.5,0.0,-35.0,1,0.0,1.1604010000000926
966,50,0.5,0.25,-35.0,-1,1.0,0.3706010000000788
967,50,0.5,0.125,-35.0,1,0.0,0.16410099999984595
968,50,0.5,0.25,-35.0,-1,1.0,0.5311010000000351
969,50,0.5,0.25,35.0,1,1.0,0.2512010000000373
970,50,0.5,0.125,-35.0,-1,1.0,0.41470099999969534
971,50,0.5,0.0,-35.0,-1,1.0,1.7114010000000235
972,50,0.5,0.125,35.0,1,1.0,0.29170099999964805
973,50,0.5,0.0625,-35.0,-1,1.0,0.5219010000000708
974,50,0.5,0.25,-35.0,-1,1.0,0.35540099999980157
975,50,0.5,0.125,-35.0,-1,1.0,0.26900099999966187
976,50,0.5,1.0,-35.0,-1,1.0,0.389100999999755
977,50,0.5,0.0625,35.0,1,1.0,0.2660009999999602
978,50,0.5,1.0,-35.0,-1,1.0,0.446201000000201
979,50,0.5,0.25,35.0,1,1.0,0.34290099999998347
980,50,0.5,0.0,-35.0,1,0.0,0.6897009999997863
981,50,0.4,0.0,35.0,1,1.0,0.7132010000000264
982,50,0.5,1.0,35.0,1,1.0,0.2500009999998838
983,50,0.5,0.25,-35.0,-1,1.0,0.4135009999995418
984,50,0.5,1.0,35.0,1,1.0,0.22370099999943704
985,50,0.5,0.0625,-35.0,1,0.0,0.4806010000002061
986,50,0.5,0.125,-35.0,-1,1.0,0.5709009999995942
987,50,0.5,0.125,-35.0,-1,1.0,0.3309009999998125
988,50,0.5,0.125,35.0,1,1.0,0.20800099999951271
989,50,0.5,0.125,-35.0,-1,1.0,0.3414010000001326
990,50,0.5,1.0,35.0,1,1.0,0.19490100000029997
991,50,0.5,1.0,-35.0,-1,1.0,0.3383009999997739
992,50,0.5,1.0,-35.0,-1,1.0,0.3387009999996735
993,50,0.5,1.0,-35.0,-1,1.0,0.22880099999974846
994,50,0.5,1.0,35.0,1,1.0,0.23890099999971426
995,50,0.5,1.0,35.0,1,1.0,0.2558009999997921
996,50,0.5,1.0,35.0,1,1.0,0.1992009999999027
997,50,0.5,0.25,35.0,1,1.0,0.25940099999979793
998,50,0.5,0.0625,-35.0,-1,1.0,0.17630099999996673
999,50,0.5,0.0,35.0,-1,0.0,0.5296009999997295
1000,50,0.5,0.0625,35.0,1,1.0,0.576600999999755
1001,50,0.5,0.125,35.0,1,1.0,0.36340100000006714
1002,50,0.5,0.0,35.0,-1,0.0,0.4203010000001086
1003,50,0.5,0.0,-35.0,1,0.0,2.8239009999997506
1004,50,0.5,0.125,-35.0,-1,1.0,0.28080099999988306
1005,50,0.5,0.25,-35.0,-1,1.0,0.2476010000000315
1006,50,0.5,0.125,35.0,1,1.0,0.5378009999994902
1007,50,0.5,0.0,35.0,1,1.0,0.10460100000000239
1008,50,0.5,0.0625,-35.0,-1,1.0,0.38470099999995
1009,50,0.5,1.0,-35.0,-1,1.0,0.2715009999992617
1010,50,0.5,0.0625,35.0,1,1.0,0.2752009999994698
1011,50,0.5,1.0,-35.0,-1,1.0,0.32530099999985396
1012,50,0.5,1.0,35.0,1,1.0,0.24550100000033126
1013,50,0.5,0.0,35.0,-1,0.0,0.5923010000005888
1014,50,0.5,0.0625,35.0,1,1.0,0.3225009999996473
1015,50,0.5,0.0625,35.0,-1,0.0,0.9992010000005394
1016,50,0.5,0.0625,35.0,1,1.0,1.1294010000001435
1017,50,0.5,0.25,35.0,-1,0.0,0.5729010000004564
1018,50,0.5,0.25,-35.0,-1,1.0,0.31320099999902595
1019,50,0.5,0.0,-35.0,1,0.0,0.8599010000007183
1020,50,0.5,0.0,35.0,1,1.0,3.123501000000033
1021,50,0.5,1.0,35.0,1,1.0,0.25690099999974336
1022,50,0.5,0.125,35.0,1,1.0,0.293800999999803
1023,50,0.5,0.0,35.0,1,1.0,1.0973009999997885
1024,50,0.5,0.125,-35.0,-1,1.0,0.41070099999978993
1025,50,0.5,0.25,35.0,1,1.0,0.26090100000055827
1026,50,0.5,0.25,-35.0,-1,1.0,0.46100099999966915
1027,50,0.5,0.0625,35.0,1,1.0,0.48780099999930826
1028,50,0.5,0.125,35.0,1,1.0,2.558100999999624
1029,50,0.5,0.0625,35.0,-1,0.0,0.4515010000004622
1030,50,0.5,0.0625,-35.0,1,0.0,1.5017000000007101
1031,50,0.5,0.125,35.0,1,1.0,0.26870099999905506
1032,50,0.5,0.25,-35.0,-1,1.0,0.515400999999656
1033,50,0.5,0.0,35.0,-1,0.0,1.4922010000000228
1034,50,0.5,0.0625,35.0,-1,0.0,1.8959009999989576
1035,50,0.5,0.0,35.0,1,1.0,4.169401000000107
1036,50,0.5,0.125,35.0,1,1.0,2.2564009999996415
1037,50,0.5,0.25,35.0,1,1.0,0.4866009999996095
1038,50,0.5,0.25,35.0,-1,0.0,2.593500999999378
1039,50,0.5,0.25,-35.0,-1,1.0,0.2869009999994887
1040,50,0.5,1.0,35.0,1,1.0,0.2505009999995309
1041,50,0.5,0.25,35.0,1,1.0,2.307300999999825
1042,50,0.5,1.0,35.0,1,1.0,0.49080099999900995
1043,50,0.5,0.125,35.0,1,1.0,0.6209010000002309
1044,50,0.5,0.125,-35.0,-1,1.0,0.7277009999997972
1045,50,0.5,0.25,35.0,1,1.0,0.5279009999994742
1046,50,0.5,0.25,-35.0,-1,1.0,0.30480100000022503
1047,50,0.5,0.0625,-35.0,-1,1.0,4.03820099999939
1048,50,0.5,0.0625,-35.0,-1,1.0,4.415200999999797
1049,50,0.5,0.25,35.0,-1,0.0,1.7589010000001508
1050,50,0.5,0.0625,-35.0,-1,1.0,0.7890009999991889
1051,50,0.5,0.125,-35.0,-1,1.0,0.8325009999998656
1052,50,0.5,0.0625,35.0,1,1.0,0.3259009999992486
1053,50,0.5,0.25,35.0,1,1.0,0.2994010000002163
1054,50,0.5,0.125,35.0,-1,0.0,0.42610100000001694
1055,50,0.5,0.25,35.0,-1,0.0,1.0496009999997113
1056,50,0.5,0.0625,-35.0,-1,1.0,0.509900999999445
1057,50,0.5,1.0,-35.0,-1,1.0,0.3233009999994465
1058,50,0.5,0.0,-35.0,-1,1.0,1.3034009999992122
1059,50,0.5,0.25,35.0,1,1.0,0.5969009999998889
1060,50,0.5,0.25,-35.0,-1,1.0,0.35370100000000093
1061,50,0.5,0.125,35.0,1,1.0,0.2939009999990958
1062,50,0.5,0.0625,35.0,1,1.0,0.3274010000004637
1063,50,0.5,0.25,35.0,1,1.0,0.24410100000022794
1064,50,0.5,1.0,35.0,1,1.0,0.2777009999999791
1065,50,0.5,0.0625,-35.0,-1,1.0,0.33780100000058155
1066,50,0.5,0.125,-35.0,-1,1.0,1.0679010000003473
1067,50,0.5,0.0625,35.0,1,1.0,0.2714009999999689
1068,50,0.5,0.125,35.0,1,1.0,0.2848009999997885
1069,50,0.5,0.25,35.0,1,1.0,0.21180099999946833
1070,50,0.5,0.125,35.0,1,1.0,0.345300999999381
1071,50,0.5,0.25,35.0,1,1.0,0.33860099999947124
1072,50,0.5,0.25,-35.0,-1,1.0,1.08560099999886
1073,50,0.5,1.0,35.0,1,1.0,0.22230099999887898
1074,50,0.5,0.125,-35.0,-1,1.0,0.3557010000004084
1075,50,0.5,0.0625,-35.0,-1,1.0,0.7693009999993592
1076,50,0.5,0.25,35.0,1,1.0,1.1560010000002876
1077,50,0.5,0.25,-35.0,-1,1.0,0.3295009999992544
