trial_num,session_num,stim_probability_left,contrast,position,response_choice,trial_correct,reaction_time
1,24,0.5,0.0,-35.0,1,0.0,0.2016
2,24,0.5,0.0625,-35.0,-1,1.0,6.149900000000001
3,24,0.5,1.0,35.0,1,1.0,0.25290000000000035
4,24,0.5,0.125,-35.0,-1,1.0,0.20870000000000033
5,24,0.5,0.0625,35.0,1,1.0,0.21769999999999712
6,24,0.5,0.125,35.0,-1,0.0,4.214099999999998
7,24,0.5,0.0625,-35.0,-1,1.0,0.9089999999999954
8,24,0.5,0.0625,-35.0,-1,1.0,5.794200000000004
9,24,0.5,0.125,35.0,1,1.0,0.23760000000000048
10,24,0.5,1.0,-35.0,-1,1.0,0.24329999999999785
11,24,0.5,1.0,-35.0,-1,1.0,10.231899999999996
12,24,0.5,0.125,35.0,1,1.0,0.1769999999999925
13,24,0.5,0.25,35.0,1,1.0,0.16850000000000165
14,24,0.5,0.0625,35.0,1,1.0,0.35369999999998925
15,24,0.5,1.0,-35.0,-1,1.0,0.22419999999999618
16,24,0.5,0.125,-35.0,-1,1.0,4.47699999999999
17,24,0.5,0.25,35.0,-1,0.0,13.888199999999998
18,24,0.5,0.0625,35.0,1,1.0,9.046099999999996
19,24,0.5,0.25,-35.0,-1,1.0,0.48810000000000286
20,24,0.5,0.0,35.0,-1,0.0,6.460699999999989
21,24,0.5,0.125,-35.0,-1,1.0,0.25619999999999266
22,24,0.5,1.0,35.0,1,1.0,0.23439999999999372
23,24,0.5,0.0,35.0,1,1.0,8.057600000000008
24,24,0.5,0.0625,35.0,1,1.0,0.2143000000000086
25,24,0.5,0.0,35.0,-1,0.0,4.491099999999989
26,24,0.5,0.125,-35.0,-1,1.0,2.3385999999999854
27,24,0.5,0.125,35.0,1,1.0,5.389399999999995
28,24,0.5,1.0,-35.0,-1,1.0,0.2664000000000044
29,24,0.5,0.25,35.0,1,1.0,9.516400000000004
30,24,0.5,0.125,-35.0,1,0.0,6.5120000000000005
31,24,0.5,0.0625,-35.0,-1,1.0,7.71459999999999
32,24,0.5,0.125,35.0,1,1.0,0.5775999999999897
33,24,0.5,0.25,-35.0,-1,1.0,0.3247000000000071
34,24,0.5,0.0,-35.0,-1,1.0,6.365700000000004
35,24,0.5,1.0,35.0,1,1.0,0.1676999999999964
36,24,0.5,0.125,-35.0,-1,1.0,8.651700000000005
37,24,0.5,1.0,35.0,1,1.0,0.19360000000000355
38,24,0.5,0.125,-35.0,-1,1.0,0.23680000000001655
39,24,0.5,0.25,35.0,1,1.0,0.18380000000001928
40,24,0.5,0.0,-35.0,-1,1.0,5.870599999999996
41,24,0.5,0.25,35.0,1,1.0,0.23290000000000077
42,24,0.5,0.125,-35.0,-1,1.0,1.808099999999996
43,24,0.5,1.0,35.0,1,1.0,0.1927000000000021
44,24,0.5,0.125,-35.0,-1,1.0,0.7088999999999999
45,24,0.5,0.25,35.0,1,1.0,0.20689999999999031
46,24,0.5,0.125,-35.0,-1,1.0,8.591599999999971
47,24,0.5,0.0625,35.0,1,1.0,0.17819999999994707
48,24,0.5,0.0625,35.0,1,1.0,0.23459999999994352
49,24,0.5,0.25,-35.0,-1,1.0,0.2370000000000232
50,24,0.5,0.0625,35.0,1,1.0,0.1713999999999487
51,24,0.5,0.0625,-35.0,-1,1.0,3.6800999999999817
52,24,0.5,0.0625,35.0,1,1.0,0.17629999999996926
53,24,0.5,0.25,35.0,1,1.0,0.24720000000002074
54,24,0.5,0.25,35.0,1,1.0,0.1994999999999436
55,24,0.5,0.125,35.0,1,1.0,0.3170999999999822
56,24,0.5,0.125,-35.0,-1,1.0,3.6392000000000166
57,24,0.5,0.25,35.0,1,1.0,0.08819999999997208
58,24,0.5,0.0625,-35.0,-1,1.0,0.4512999999999465
59,24,0.5,0.25,-35.0,-1,1.0,2.43119999999999
60,24,0.5,0.125,-35.0,-1,1.0,5.877700000000004
61,24,0.5,0.25,-35.0,-1,1.0,0.23930000000001428
62,24,0.5,0.0,35.0,1,1.0,0.28530000000000655
63,24,0.5,0.0,35.0,-1,0.0,3.260099999999966
64,24,0.5,0.25,35.0,1,1.0,0.17629999999996926
65,24,0.5,0.0,-35.0,-1,1.0,1.9594000000000165
66,24,0.5,0.25,35.0,1,1.0,0.2185999999999808
67,24,0.5,1.0,-35.0,-1,1.0,8.617500000000007
68,24,0.5,0.0,-35.0,1,0.0,0.15559999999999263
69,24,0.4,0.0,35.0,-1,0.0,0.3125
70,24,0.5,1.0,35.0,1,1.0,0.16200000000003456
71,24,0.5,0.125,35.0,1,1.0,0.20130000000000337
72,24,0.5,0.125,35.0,1,1.0,0.3085999999999558
73,24,0.5,1.0,-35.0,-1,1.0,0.2796000000000163
74,24,0.5,0.125,-35.0,-1,1.0,5.1585999999999785
75,24,0.5,0.25,35.0,1,1.0,0.28860000000003083
76,24,0.5,0.0625,35.0,1,1.0,0.36189999999999145
77,24,0.5,0.0,-35.0,1,0.0,0.20189999999996644
78,24,0.7,0.0,35.0,1,1.0,0.2980000000000018
79,24,0.5,1.0,35.0,1,1.0,0.23349999999999227
80,24,0.5,0.25,35.0,1,1.0,0.20699999999999363
81,24,0.5,0.25,-35.0,1,0.0,5.035600000000045
82,24,0.8,0.25,35.0,1,1.0,0.13540000000000418
83,24,0.5,1.0,-35.0,-1,1.0,7.866799999999955
84,24,0.5,0.25,-35.0,1,0.0,0.17899999999997362
85,24,0.5,0.25,35.0,1,1.0,0.16980000000000928
86,24,0.5,1.0,35.0,1,1.0,0.23129999999997608
87,24,0.5,0.125,-35.0,-1,1.0,3.6539000000000215
88,24,0.5,1.0,35.0,1,1.0,0.16939999999993915
89,24,0.5,0.125,35.0,1,1.0,12.525999999999954
90,24,0.5,0.125,-35.0,-1,1.0,0.6938999999999851
91,24,0.5,0.125,-35.0,-1,1.0,5.9021999999999935
92,24,0.5,0.0,-35.0,1,0.0,0.20310000000000628
93,24,0.5,0.0625,35.0,1,1.0,0.26710000000002765
94,24,0.5,0.0625,35.0,1,1.0,0.21219999999999573
95,24,0.5,0.125,35.0,1,1.0,0.21320000000002892
96,24,0.5,0.0625,-35.0,1,0.0,0.3751999999999498
97,24,0.7,0.0625,-35.0,-1,1.0,13.506000000000029
98,24,0.5,1.0,-35.0,-1,1.0,0.2604000000000042
99,24,0.5,1.0,35.0,1,1.0,0.23640000000006012
100,24,0.5,1.0,35.0,1,1.0,0.21280000000001564
101,24,0.5,1.0,-35.0,-1,1.0,29.349299999999914
102,24,0.5,0.25,-35.0,-1,1.0,0.1974999999999909
103,24,0.5,0.125,-35.0,-1,1.0,2.6895000000000664
104,24,0.5,0.0,35.0,1,1.0,0.2276000000000522
105,24,0.5,0.125,-35.0,1,0.0,0.2556000000000722
106,24,0.5,0.0625,-35.0,-1,1.0,15.992700000000013
107,24,0.5,0.25,35.0,1,1.0,0.20470000000000255
108,24,0.5,0.125,-35.0,-1,1.0,6.905800000000113
109,24,0.5,0.25,-35.0,-1,1.0,0.2988000000000284
110,24,0.5,1.0,-35.0,-1,1.0,1.7859000000000833
111,24,0.5,1.0,35.0,1,1.0,0.2119000000000142
112,24,0.5,0.0,35.0,1,1.0,9.851900000000114
113,24,0.5,1.0,35.0,1,1.0,0.18029999999998836
114,24,0.5,0.0625,35.0,-1,0.0,10.998000000000047
115,24,0.5,0.0625,-35.0,-1,1.0,1.9347000000001344
116,24,0.5,0.125,-35.0,-1,1.0,3.737100000000055
117,24,0.5,0.125,-35.0,-1,1.0,2.161100000000033
118,24,0.5,0.125,-35.0,1,0.0,1.8017999999999574
119,24,0.5,0.0625,35.0,-1,0.0,4.8256999999999834
120,24,0.5,0.25,-35.0,-1,1.0,0.20259999999996126
121,24,0.5,0.125,-35.0,-1,1.0,0.2542000000000826
122,24,0.5,0.25,-35.0,-1,1.0,9.099600000000123
123,24,0.5,0.125,-35.0,-1,1.0,0.23670000000004165
124,24,0.5,0.125,35.0,1,1.0,0.15089999999997872
125,24,0.5,0.125,35.0,1,1.0,6.830900000000156
126,24,0.5,1.0,-35.0,-1,1.0,20.328399999999988
127,24,0.5,0.0625,35.0,-1,0.0,18.57860000000005
128,24,0.5,0.0,35.0,1,1.0,0.2986999999999398
129,24,0.5,1.0,35.0,1,1.0,7.843900000000076
130,24,0.5,0.125,-35.0,-1,1.0,7.734800000000064
131,24,0.5,0.25,-35.0,-1,1.0,0.338799999999992
132,24,0.5,0.25,-35.0,-1,1.0,7.852800000000116
133,24,0.5,0.25,-35.0,-1,1.0,0.32799999999997453
134,24,0.5,0.25,-35.0,1,0.0,0.16589999999996508
135,24,0.5,0.25,-35.0,-1,1.0,4.13370000000009
136,24,0.5,1.0,-35.0,-1,1.0,4.654400000000123
137,24,0.5,0.0625,35.0,1,1.0,0.20300000000008822
138,24,0.5,0.0625,35.0,1,1.0,0.16230000000007294
139,24,0.5,0.0,-35.0,1,0.0,0.17700000000002092
140,24,0.5,0.25,35.0,1,1.0,0.17020000000002256
141,24,0.5,1.0,-35.0,-1,1.0,7.002300000000105
142,24,0.5,0.0,-35.0,-1,1.0,1.8141000000000531
143,24,0.5,0.0,35.0,1,1.0,0.31720000000007076
144,24,0.5,0.0,35.0,-1,0.0,5.717600000000061
145,24,0.5,0.25,-35.0,-1,1.0,0.19610000000000127
146,24,0.5,0.25,35.0,1,1.0,0.037599999999997635
147,24,0.5,0.125,35.0,1,1.0,0.2376000000000431
148,24,0.5,0.0625,-35.0,-1,1.0,0.38769999999999527
149,24,0.5,0.0625,-35.0,-1,1.0,10.158300000000054
150,24,0.5,0.125,-35.0,1,0.0,0.28330000000005384
151,24,0.5,0.125,35.0,1,1.0,0.1897000000000162
152,24,0.5,0.25,35.0,1,1.0,0.22040000000004056
153,24,0.5,0.25,-35.0,-1,1.0,5.2613999999999805
154,24,0.5,0.125,35.0,1,1.0,0.19100000000003092
155,24,0.5,0.25,35.0,1,1.0,0.43810000000007676
156,24,0.5,0.25,-35.0,-1,1.0,0.8365000000001146
157,24,0.5,0.0625,35.0,-1,0.0,21.67349999999999
158,24,0.5,0.125,35.0,1,1.0,0.17570000000011987
159,24,0.5,0.25,35.0,1,1.0,0.20510000000001583
160,24,0.5,0.0625,35.0,1,1.0,0.23440000000005057
161,24,0.5,0.0625,-35.0,-1,1.0,2.0867000000000644
162,24,0.5,1.0,35.0,1,1.0,0.23469999999997526
163,24,0.5,0.0,35.0,1,1.0,26.672000000000025
164,24,0.5,1.0,-35.0,-1,1.0,0.1893999999999778
165,24,0.5,1.0,35.0,1,1.0,0.10160000000007585
166,24,0.5,1.0,-35.0,-1,1.0,1.1853999999999587
167,24,0.5,0.0,35.0,-1,0.0,5.12639999999999
168,24,0.5,0.25,35.0,1,1.0,0.20000000000004547
169,24,0.5,0.0625,35.0,-1,0.0,1.20900000000006
170,24,0.5,0.0,35.0,-1,0.0,13.261300000000006
171,24,0.5,0.25,-35.0,-1,1.0,0.272199999999998
172,24,0.5,1.0,35.0,1,1.0,0.21510000000000673
173,24,0.5,1.0,35.0,1,1.0,0.38220000000001164
174,24,0.5,0.0625,35.0,-1,0.0,5.021200000000135
175,24,0.5,0.0625,-35.0,-1,1.0,3.5533000000000357
176,24,0.5,0.0625,-35.0,-1,1.0,12.445400000000063
177,24,0.5,0.25,-35.0,-1,1.0,0.34339999999997417
178,24,0.5,0.25,35.0,1,1.0,0.23899999999991905
179,24,0.5,0.125,-35.0,-1,1.0,24.59890000000007
180,24,0.5,1.0,-35.0,-1,1.0,0.24460000000021864
181,24,0.5,0.0625,-35.0,-1,1.0,10.151600000000144
182,24,0.5,0.0625,35.0,1,1.0,0.2277000000001408
183,24,0.5,0.0,-35.0,-1,1.0,4.885700000000043
184,24,0.5,1.0,-35.0,-1,1.0,0.2378000000001066
185,24,0.5,0.25,-35.0,-1,1.0,12.663099999999986
186,24,0.5,0.0625,-35.0,-1,1.0,2.226300000000265
187,24,0.5,0.0625,35.0,1,1.0,0.2559999999998581
188,24,0.5,0.125,-35.0,-1,1.0,0.8341000000002623
189,24,0.5,0.25,35.0,1,1.0,0.22790000000009059
190,24,0.5,0.0625,35.0,-1,0.0,6.673900000000003
191,24,0.5,0.0625,-35.0,1,0.0,3.453899999999976
192,24,0.5,0.0625,35.0,1,1.0,0.2500000000002274
193,24,0.5,1.0,-35.0,-1,1.0,2.252100000000155
194,24,0.5,0.125,-35.0,1,0.0,11.659000000000106
195,24,0.5,0.125,-35.0,-1,1.0,0.34839999999985594
196,24,0.5,0.0,35.0,-1,0.0,50.870200000000295
197,24,0.5,0.0,-35.0,-1,1.0,4.430299999999988
198,24,0.5,0.0,35.0,-1,0.0,3.630600000000186
199,24,0.4,0.0,35.0,-1,0.0,38.465599999999995
200,24,0.5,1.0,-35.0,-1,1.0,0.4393010000001141
201,24,0.5,1.0,-35.0,-1,1.0,1.8710009999999784
202,24,0.5,0.0,-35.0,1,0.0,0.20790099999999256
203,24,0.5,0.125,35.0,1,1.0,0.44190099999991617
204,24,0.5,0.25,-35.0,-1,1.0,0.31890100000009625
205,24,0.5,0.125,35.0,1,1.0,0.22550100000012208
206,24,0.5,0.125,35.0,1,1.0,0.2815009999999347
207,24,0.5,1.0,-35.0,-1,1.0,0.9529010000001108
208,24,0.5,0.125,35.0,1,1.0,0.1420010000001639
209,24,0.5,0.125,35.0,1,1.0,15.687601000000086
210,24,0.5,1.0,35.0,1,1.0,0.3321010000001934
211,24,0.5,0.125,-35.0,-1,1.0,0.4202010000001337
212,24,0.5,0.0,35.0,1,1.0,0.30440100000009807
213,24,0.5,0.25,35.0,1,1.0,0.1687010000000555
214,24,0.5,1.0,35.0,1,1.0,0.19370099999991908
215,24,0.5,0.0625,35.0,1,1.0,0.17520100000001548
216,24,0.5,0.0625,35.0,1,1.0,0.25220100000024104
217,24,0.5,0.125,-35.0,-1,1.0,2.830200999999988
218,24,0.5,0.0,35.0,-1,0.0,7.132301000000098
219,24,0.7,0.0,-35.0,1,0.0,0.2033010000000104
220,24,0.5,1.0,-35.0,-1,1.0,0.23570100000006278
221,24,0.5,0.0,35.0,1,1.0,7.809500999999955
222,24,0.5,1.0,35.0,1,1.0,0.16550099999994927
223,24,0.5,0.0,-35.0,1,0.0,0.22650100000009843
224,24,0.5,0.125,35.0,1,1.0,0.19860100000005332
225,24,0.5,0.125,35.0,1,1.0,0.20250099999998383
226,24,0.5,0.25,35.0,1,1.0,0.24850100000026032
227,24,0.5,0.0625,35.0,1,1.0,5.482900999999856
228,24,0.5,0.125,-35.0,1,0.0,6.069500999999946
229,24,0.5,0.25,-35.0,-1,1.0,0.2216009999999642
230,24,0.5,0.25,35.0,1,1.0,0.21760100000028615
231,24,0.5,1.0,-35.0,-1,1.0,0.2836010000000897
232,24,0.5,0.0625,-35.0,1,0.0,12.643700999999965
233,24,0.5,0.0625,35.0,-1,0.0,2.0927010000000337
234,24,0.5,0.125,-35.0,-1,1.0,0.19280099999991762
235,24,0.5,1.0,-35.0,-1,1.0,0.2008010000001832
236,24,0.5,0.0625,-35.0,1,0.0,0.9923009999999977
237,24,0.5,0.0625,35.0,1,1.0,0.21180100000015045
238,24,0.5,0.0625,35.0,1,1.0,0.2231010000000424
239,24,0.5,1.0,-35.0,-1,1.0,0.28480100000001585
240,24,0.5,0.0625,-35.0,-1,1.0,2.9929010000000744
241,24,0.5,0.125,-35.0,-1,1.0,21.57090100000005
242,24,0.5,1.0,35.0,1,1.0,0.1786010000000715
243,24,0.5,0.0,-35.0,-1,1.0,19.710001000000148
244,24,0.5,0.0625,35.0,-1,0.0,4.2592010000000755
245,24,0.4,0.0625,35.0,-1,0.0,0.22520100000019738
246,24,0.5,1.0,35.0,1,1.0,0.1852010000000064
247,24,0.5,0.0625,-35.0,-1,1.0,0.24520099999995182
248,24,0.5,1.0,35.0,1,1.0,0.2333009999999831
249,24,0.5,0.25,-35.0,-1,1.0,2.678301000000147
250,24,0.5,0.125,-35.0,1,0.0,7.4290010000001985
251,24,0.5,0.0625,35.0,-1,0.0,0.1063010000000304
252,24,0.5,0.0625,-35.0,1,0.0,0.24650100000008024
253,24,0.4,0.0625,-35.0,-1,1.0,6.480601000000206
254,24,0.5,1.0,-35.0,-1,1.0,0.34850100000016937
255,24,0.5,0.0,35.0,1,1.0,13.410501000000068
256,24,0.5,0.25,35.0,1,1.0,35.53130100000021
257,24,0.5,0.25,35.0,1,1.0,0.4327010000001792
258,24,0.5,0.0625,-35.0,-1,1.0,1.2249010000000453
259,24,0.5,0.25,-35.0,-1,1.0,0.43600100000003295
260,24,0.5,0.25,35.0,1,1.0,0.2657010000000355
261,24,0.5,0.25,-35.0,-1,1.0,0.3739010000001599
262,24,0.5,0.125,-35.0,-1,1.0,0.2660009999999602
263,24,0.5,1.0,35.0,1,1.0,0.1930010000000948
264,24,0.5,1.0,35.0,1,1.0,0.21000099999992017
265,24,0.5,0.25,35.0,-1,0.0,25.24970099999996
266,24,0.5,0.125,35.0,1,1.0,0.2551009999999678
267,24,0.5,0.125,35.0,1,1.0,0.18920100000013917
268,24,0.5,0.0625,35.0,1,1.0,0.5045009999998911
269,24,0.5,0.25,-35.0,-1,1.0,4.567201000000068
270,24,0.5,0.0625,35.0,1,1.0,0.1850010000000566
271,24,0.5,0.25,-35.0,-1,1.0,4.787401000000045
272,24,0.5,0.0625,-35.0,-1,1.0,19.606800999999905
273,24,0.5,0.0625,35.0,-1,0.0,3.3824010000000726
274,24,0.5,0.25,35.0,1,1.0,0.21940100000006169
275,24,0.5,1.0,-35.0,-1,1.0,4.3665010000001985
276,24,0.5,0.125,-35.0,-1,1.0,18.99540100000013
277,24,0.5,0.0625,35.0,1,1.0,0.23770100000024286
278,24,0.5,0.125,35.0,1,1.0,0.20100099999990562
279,24,0.5,0.0625,35.0,1,1.0,0.25670100000002094
280,24,0.5,1.0,35.0,1,1.0,0.40870100000029197
281,24,0.5,0.25,35.0,1,1.0,0.3778010000000904
282,24,0.5,0.125,-35.0,1,0.0,6.828801000000112
283,24,0.5,0.0625,35.0,-1,0.0,36.7138010000001
284,24,0.5,0.0625,-35.0,-1,1.0,0.29540099999985614
285,24,0.5,0.125,-35.0,-1,1.0,0.28910099999984595
286,24,0.5,0.0625,35.0,-1,0.0,0.16640099999995073
287,24,0.5,0.25,35.0,1,1.0,0.3498010000000704
288,24,0.5,0.25,35.0,1,1.0,0.24160100000017337
289,24,0.5,0.125,-35.0,-1,1.0,0.24810099999990598
290,24,0.5,0.0625,-35.0,1,0.0,0.31490099999996346
291,24,0.5,0.0625,35.0,1,1.0,0.2921010000000024
292,24,0.5,1.0,35.0,1,1.0,0.19160099999999147
293,24,0.5,0.0625,-35.0,-1,1.0,3.342201000000159
294,24,0.5,0.0625,35.0,-1,0.0,1.2652009999999336
295,24,0.5,0.0625,-35.0,-1,1.0,4.051001000000269
296,24,0.5,0.0,35.0,1,1.0,0.12030100000015409
297,24,0.5,0.25,-35.0,-1,1.0,6.775900999999976
298,24,0.5,0.0625,-35.0,1,0.0,0.6934009999999944
299,24,0.5,0.0,-0.0,0,0.0,59.94230100000004
300,24,0.5,0.125,35.0,1,1.0,0.12680100000011407
301,24,0.5,1.0,35.0,1,1.0,0.2478009999999813
302,24,0.5,1.0,-35.0,-1,1.0,16.478300999999874
303,24,0.5,1.0,35.0,1,1.0,0.17160100000000966
304,24,0.5,1.0,-35.0,-1,1.0,0.25800100000014936
305,24,0.5,0.25,-35.0,-1,1.0,0.201001000000133
306,24,0.5,0.0625,-35.0,-1,1.0,4.240000999999893
307,24,0.5,0.0625,-35.0,-1,1.0,1.1340009999998983
308,24,0.5,0.125,-35.0,-1,1.0,47.21400100000005
309,24,0.5,0.25,35.0,1,1.0,0.17530099999999038
310,24,0.5,0.0,-35.0,1,0.0,0.3105009999999311
311,24,0.5,0.0625,-35.0,-1,1.0,3.834401000000071
312,24,0.5,0.125,-35.0,-1,1.0,6.527401000000054
313,24,0.5,0.0625,35.0,-1,0.0,8.59150099999988
314,24,0.2,0.0625,35.0,-1,0.0,0.2176009999998314
315,24,0.5,1.0,35.0,1,1.0,0.247101000000157
316,24,0.5,0.0625,35.0,-1,0.0,51.94960100000003
317,24,0.5,0.125,-35.0,-1,1.0,51.13310100000035
318,24,0.5,0.0,35.0,-1,0.0,0.3233009999994465
319,24,0.5,0.0625,35.0,-1,0.0,0.8563009999993483
320,24,0.5,0.25,-35.0,-1,1.0,0.244300999999723
321,24,0.5,0.125,35.0,1,1.0,0.2244009999994887
322,24,0.5,0.0,-0.0,0,0.0,59.93940100000009
323,24,0.5,0.125,-35.0,-1,1.0,0.2472010000001319
324,24,0.5,0.25,-35.0,-1,1.0,0.25860099999999875
325,24,0.5,1.0,-35.0,-1,1.0,0.20340099999975791
326,24,0.5,0.125,-35.0,1,0.0,2.4819009999996524
327,24,0.5,0.125,-35.0,-1,1.0,0.25600100000019665
328,24,0.5,0.125,35.0,1,1.0,0.23700099999996382
329,24,0.5,1.0,35.0,1,1.0,0.21090099999946688
330,24,0.5,0.0625,35.0,-1,0.0,7.963001000000077
331,24,0.5,0.0625,35.0,1,1.0,0.23950099999956365
332,24,0.5,0.25,-35.0,-1,1.0,0.23480100000006132
333,24,0.5,1.0,-35.0,-1,1.0,0.20720099999925878
334,24,0.5,0.125,35.0,1,1.0,0.23410099999955492
335,24,0.5,0.125,-35.0,-1,1.0,16.593900999999732
336,24,0.5,0.25,-35.0,-1,1.0,0.7243009999997412
337,24,0.5,0.25,-35.0,-1,1.0,35.16140099999984
338,24,0.5,1.0,-35.0,-1,1.0,0.23940099999981612
339,24,0.5,0.125,35.0,-1,0.0,7.620800999999574
340,24,0.5,0.0,-35.0,1,0.0,0.25930099999959566
341,24,0.5,0.125,-35.0,-1,1.0,0.32160099999964586
342,24,0.5,1.0,35.0,1,1.0,0.44370100000014645
343,24,0.5,0.125,-35.0,1,0.0,16.038800999999694
344,24,0.4,0.125,35.0,-1,0.0,3.8368009999994683
345,24,0.5,1.0,-35.0,0,0.0,59.946600999999646
346,24,0.5,0.0625,35.0,-1,0.0,1.2150010000000293
347,24,0.5,0.125,35.0,1,1.0,9.512901000000056
348,24,0.5,1.0,35.0,1,1.0,1.4666010000000824
349,24,0.5,0.25,35.0,1,1.0,0.2698009999999158
350,24,0.5,0.0625,35.0,-1,0.0,3.4866009999996095
351,24,0.6,0.0625,35.0,-1,0.0,0.9701010000003407
352,24,0.5,1.0,35.0,1,1.0,0.29010099999959493
353,24,0.5,0.0625,-35.0,-1,1.0,6.103700999999546
354,24,0.5,0.0625,35.0,1,1.0,0.3171009999996386
355,24,0.5,0.125,-35.0,1,0.0,1.3572009999998045
356,24,0.5,0.25,35.0,1,1.0,0.19070099999953527
357,24,0.5,0.0625,-35.0,-1,1.0,21.064000999999735
358,24,0.5,0.0625,35.0,1,1.0,0.26100099999985105
359,24,0.5,0.0625,35.0,-1,0.0,6.841200999999728
360,24,0.5,0.0625,35.0,1,1.0,0.29130099999974846
361,24,0.5,1.0,35.0,1,1.0,0.2215009999999893
362,24,0.5,0.25,35.0,1,1.0,9.241500999999971
363,24,0.5,0.125,35.0,1,1.0,3.228400999999394
364,24,0.5,0.0,-35.0,-1,1.0,0.4252010000000155
365,24,0.5,0.0625,-35.0,-1,1.0,15.245200999999724
366,24,0.5,0.25,35.0,1,1.0,0.14890099999956874
367,24,0.5,0.125,-35.0,-1,1.0,0.399000999999771
368,24,0.5,0.125,35.0,1,1.0,0.2058009999996102
369,24,0.5,1.0,-35.0,1,0.0,9.459100999999919
370,24,0.7,1.0,-35.0,-1,1.0,0.33270100000027014
371,24,0.5,1.0,35.0,1,1.0,0.21950100000003658
372,24,0.5,0.0625,-35.0,0,0.0,59.95650099999966
373,24,0.5,0.25,35.0,1,1.0,1.0648009999999886
374,24,0.5,0.125,35.0,1,1.0,0.23900099999991653
375,24,0.5,0.125,-35.0,-1,1.0,2.8632010000001173
376,24,0.5,0.25,35.0,1,1.0,6.21020099999987
377,24,0.5,0.25,35.0,1,1.0,0.20320100000026287
378,24,0.5,0.0625,-35.0,-1,1.0,0.3532010000003538
379,24,0.5,0.25,35.0,0,0.0,59.94080099999974
380,24,0.7,0.25,-35.0,0,0.0,55.09920099999954
381,24,0.5,1.0,-35.0,-1,1.0,23.364600999999766
382,24,0.5,1.0,-35.0,-1,1.0,0.09120100000018283
383,24,0.5,0.0,-35.0,-1,1.0,2.2892009999995935
384,24,0.5,0.0625,35.0,-1,0.0,2.4592009999996662
385,24,0.5,0.125,-35.0,1,0.0,0.28110100000003513
386,24,0.5,0.125,-35.0,-1,1.0,7.834300999999414
387,24,0.5,1.0,35.0,1,1.0,0.21330099999977392
388,24,0.5,0.125,-35.0,-1,1.0,8.526400999999623
389,24,0.5,0.0625,35.0,1,1.0,2.1314009999996415
390,24,0.5,0.0625,-35.0,1,0.0,20.170200999999906
391,24,0.4,0.0625,35.0,1,1.0,48.61860099999967
392,24,0.5,1.0,-35.0,-1,1.0,0.30090100000006714
393,24,0.5,1.0,35.0,1,1.0,0.22690099999954327
394,24,0.5,0.0625,-35.0,1,0.0,0.12890100000004168
395,24,0.7,0.0625,-35.0,-1,1.0,0.2715010000001712
396,24,0.5,1.0,35.0,1,1.0,0.07360100000005332
397,24,0.5,0.0625,35.0,1,1.0,0.4150009999998474
398,24,0.5,1.0,35.0,1,1.0,0.17290099999945596
399,24,0.5,0.25,35.0,1,1.0,0.15430100000003222
400,24,0.5,0.0625,-35.0,-1,1.0,22.6353009999998
401,24,0.5,0.25,-35.0,1,0.0,24.90820100000019
402,24,0.7,0.25,-35.0,-1,1.0,33.84130099999993
403,24,0.5,1.0,-35.0,-1,1.0,0.22450099999969098
404,24,0.5,0.0625,35.0,1,1.0,0.5495009999999638
405,24,0.5,0.25,35.0,1,1.0,0.2536009999998896
406,24,0.5,0.125,35.0,-1,0.0,6.026600999999573
407,24,0.5,0.0,-35.0,1,0.0,23.55800100000033
408,24,0.5,0.0625,-35.0,-1,1.0,4.706600999999864
409,24,0.5,1.0,-35.0,-1,1.0,0.21790099999952872
410,24,0.5,0.25,-35.0,-1,1.0,2.900900999999976
411,24,0.5,1.0,35.0,1,1.0,0.26490100000000893
412,24,0.5,0.25,35.0,1,1.0,24.32300099999975
413,24,0.5,1.0,-35.0,-1,1.0,25.02100100000007
414,24,0.5,0.25,-35.0,-1,1.0,7.367200999999568
415,24,0.5,0.125,-35.0,-1,1.0,0.9304010000000744
416,24,0.5,0.125,35.0,1,1.0,-0.008599000000231172
417,24,0.5,0.0625,35.0,1,1.0,0.9694009999998343
418,24,0.5,0.125,35.0,1,1.0,0.7273009999998976
419,24,0.5,0.25,-35.0,-1,1.0,9.07660100000021
420,24,0.5,0.125,35.0,1,1.0,0.23850099999981467
421,24,0.5,1.0,-35.0,-1,1.0,13.29850099999976
422,24,0.5,0.0625,35.0,-1,0.0,13.785200999999688
423,24,0.5,0.25,35.0,1,1.0,21.80370099999982
424,24,0.5,0.25,35.0,1,1.0,0.2964009999996051
425,24,0.5,0.125,35.0,1,1.0,13.876201000000037
426,24,0.5,0.0625,-35.0,-1,1.0,18.01920099999961
427,24,0.5,1.0,-35.0,-1,1.0,1.437300999999934
428,24,0.5,0.0625,35.0,-1,0.0,7.450201000000106
429,24,0.5,0.25,-35.0,1,0.0,9.29220099999975
430,24,0.5,0.25,35.0,1,1.0,1.939300999999432
431,24,0.5,1.0,35.0,1,1.0,0.23329999999987194
432,24,0.5,0.0625,35.0,-1,0.0,42.11730099999977
433,24,0.5,0.125,-35.0,0,0.0,59.93560099999968
434,24,0.6,0.125,-35.0,-1,1.0,14.841600999999628
435,24,0.5,1.0,35.0,1,1.0,0.19290099999989252
436,24,0.5,0.25,35.0,-1,0.0,7.291100999999799
437,24,0.5,0.0625,-35.0,1,0.0,0.9094009999998889
438,24,0.6,0.0625,35.0,1,1.0,0.23920099999986633
439,24,0.5,1.0,35.0,1,1.0,0.1729009999999107
440,24,0.5,0.125,-35.0,-1,1.0,4.874300999999832
441,24,0.5,1.0,-35.0,-1,1.0,2.511500999999498
442,24,0.5,0.125,35.0,-1,0.0,7.443300999999792
443,24,0.5,0.125,35.0,1,1.0,0.2137009999996735
444,24,0.5,1.0,-35.0,-1,1.0,0.37640100000044185
445,24,0.5,1.0,35.0,1,1.0,0.24140099999976883
446,24,0.5,0.25,35.0,1,1.0,5.958600999999362
447,24,0.5,1.0,-35.0,-1,1.0,0.19950099999960003
448,24,0.5,0.125,35.0,1,1.0,5.3465009999995345
449,24,0.5,0.0625,-35.0,-1,1.0,32.101500999999644
450,24,0.5,0.125,-35.0,-1,1.0,9.10010099999954
451,24,0.5,0.25,-35.0,1,0.0,20.697001
452,24,0.5,0.125,35.0,1,1.0,2.9584009999994123
453,24,0.5,0.25,35.0,1,1.0,6.487000999999964
454,24,0.5,0.25,-35.0,-1,1.0,16.879100999999537
455,24,0.5,1.0,-35.0,-1,1.0,14.900101000000177
456,24,0.5,0.0625,-35.0,-1,1.0,8.483600999999908
457,24,0.5,0.25,-35.0,-1,1.0,4.762301000000207
458,24,0.5,0.25,-35.0,-1,1.0,16.965900999999576
459,24,0.5,0.125,35.0,1,1.0,18.828801000000112
460,24,0.5,0.125,-35.0,-1,1.0,3.0791009999998096
461,24,0.5,0.125,35.0,1,1.0,0.5411009999997987
462,24,0.5,0.0,-35.0,1,0.0,4.7827009999996335
463,24,0.5,0.0625,35.0,1,1.0,0.2147009999994225
464,24,0.5,1.0,-35.0,-1,1.0,4.720100999999431
465,24,0.5,0.0625,-35.0,0,0.0,59.950201000000106
466,24,0.5,0.125,-35.0,1,0.0,5.6882009999999354
467,24,0.5,0.0625,35.0,1,1.0,0.52920099999983
468,24,0.5,1.0,35.0,1,1.0,0.2172009999999318
469,24,0.5,0.0,35.0,1,1.0,2.730301000000054
470,24,0.5,0.125,-35.0,1,0.0,4.325300999999854
471,24,0.5,0.0625,-35.0,1,0.0,0.3004009999999653
472,24,0.5,0.0,35.0,1,1.0,0.23240099999975428
473,24,0.5,0.25,-35.0,-1,1.0,6.207300999999916
474,24,0.5,0.25,35.0,1,1.0,0.1994009999998525
475,24,0.5,0.25,-35.0,-1,1.0,2.254400999999689
476,24,0.5,0.125,-35.0,-1,1.0,3.683400999999776
477,24,0.5,0.0625,35.0,1,1.0,0.18580100000008315
478,24,0.5,1.0,35.0,1,1.0,0.25550099999964004
479,24,0.5,0.125,35.0,1,1.0,0.2391010000001188
480,24,0.5,0.0625,-35.0,1,0.0,0.17460099999971135
481,24,0.5,0.0,-35.0,1,0.0,0.21930099999963204
482,24,0.5,0.0,35.0,-1,0.0,13.798600999999962
483,24,0.5,0.0,35.0,1,1.0,13.395700999999917
484,24,0.5,0.125,35.0,1,1.0,53.01860099999976
485,24,0.5,1.0,35.0,1,1.0,0.17610100000092643
486,24,0.5,0.25,-35.0,1,0.0,9.64730099999997
487,24,0.5,0.0625,35.0,1,1.0,0.17320099999960803
488,24,0.5,0.0,35.0,1,1.0,0.18130099999962113
489,24,0.5,0.125,35.0,1,1.0,8.278201000000081
490,24,0.5,0.0,-35.0,1,0.0,0.20110099999965314
491,24,0.5,0.125,35.0,1,1.0,0.06140099999902304
492,24,0.5,0.25,-35.0,-1,1.0,2.7583009999998467
493,24,0.5,0.25,-35.0,1,0.0,36.05340099999921
494,24,0.5,0.25,35.0,1,1.0,0.19030099999963568
495,24,0.5,0.25,-35.0,-1,1.0,0.33560100000067905
496,24,0.5,0.0625,35.0,-1,0.0,4.10910100000001
497,24,0.5,0.125,35.0,1,1.0,0.22120100000029197
498,24,0.5,0.0625,-35.0,1,0.0,0.19600100000025122
499,24,0.5,0.125,-35.0,-1,1.0,0.23070100000040838
500,24,0.5,0.125,-35.0,1,0.0,3.8781010000002425
501,24,0.5,0.0625,35.0,1,1.0,0.22240099999908125
502,24,0.5,0.125,35.0,1,1.0,0.3822009999994407
503,24,0.5,0.25,-35.0,-1,1.0,2.3868009999996502
504,24,0.5,1.0,35.0,1,1.0,0.2248010000002978
505,24,0.5,0.0,35.0,-1,0.0,7.501100999999835
506,24,0.5,0.0,-35.0,1,0.0,0.3589009999996051
507,24,0.5,0.25,35.0,1,1.0,0.243200999999317
508,24,0.5,0.125,35.0,1,1.0,0.2310010000001057
509,24,0.5,0.0625,35.0,1,1.0,3.6440010000005714
510,24,0.5,0.25,35.0,1,1.0,0.33100099999956
511,24,0.5,0.125,35.0,1,1.0,0.4590010000001712
512,24,0.5,0.0625,-35.0,1,0.0,11.838300999999774
513,24,0.5,0.125,35.0,1,1.0,0.29370099999960075
514,24,0.5,0.125,-35.0,1,0.0,1.2476010000000315
515,24,0.5,0.0,35.0,1,1.0,4.154201000000285
516,24,0.5,0.25,-35.0,-1,1.0,4.095300999999381
517,24,0.5,0.0625,35.0,1,1.0,6.993300999999519
518,24,0.5,1.0,35.0,1,1.0,0.1913009999998394
519,24,0.5,0.25,35.0,1,1.0,7.095400999999583
520,24,0.5,0.125,-35.0,-1,1.0,1.7044009999990521
521,24,0.5,0.125,-35.0,1,0.0,6.037400999999591
522,24,0.5,0.25,35.0,1,1.0,0.2553009999992355
523,24,0.5,0.25,-35.0,-1,1.0,0.2655010000007678
524,24,0.5,0.0625,35.0,1,1.0,5.988601000000017
525,24,0.5,0.125,35.0,1,1.0,0.23220099999980448
526,24,0.5,0.125,35.0,1,1.0,0.11240100000031816
527,24,0.5,0.125,35.0,1,1.0,0.8603009999997084
528,24,0.5,0.125,-35.0,1,0.0,10.207601000000068
529,24,0.5,0.25,-35.0,-1,1.0,18.274700999999368
530,24,0.5,1.0,35.0,1,1.0,0.27790100000038365
531,24,0.5,0.0625,-35.0,0,0.0,59.91280099999949
532,24,0.5,0.125,-35.0,-1,1.0,0.08970099999987724
533,24,0.5,1.0,35.0,1,1.0,0.24520099999972444
534,24,0.5,1.0,35.0,1,1.0,0.21430099999997765
535,24,0.5,1.0,35.0,1,1.0,0.19630100000085804
536,24,0.5,0.0625,35.0,1,1.0,20.36830099999952
537,24,0.5,0.25,35.0,1,1.0,9.964500999999473
538,24,0.5,0.25,35.0,1,1.0,35.99510099999952
539,24,0.5,0.0625,35.0,0,0.0,59.92380099999991
540,24,0.5,0.25,35.0,1,1.0,0.0527010000005248
541,24,0.5,1.0,-35.0,-1,1.0,4.4232010000005175
542,24,0.5,0.0625,35.0,1,1.0,9.333201000000372
543,24,0.5,0.125,-35.0,-1,1.0,3.5013010000002396
544,24,0.5,0.0625,35.0,-1,0.0,17.609300999999505
545,24,0.5,0.0625,35.0,-1,0.0,2.96650099999988
546,24,0.5,0.25,-35.0,1,0.0,16.316600999999537
547,24,0.5,0.0625,35.0,-1,0.0,29.61960100000033
548,24,0.5,0.0625,35.0,-1,0.0,3.0773010000002614
549,24,0.5,1.0,35.0,-1,0.0,0.42790100000001985
550,24,0.5,0.125,-35.0,-1,1.0,36.29790099999991
551,24,0.5,1.0,35.0,1,1.0,0.299101000000519
552,24,0.5,0.125,35.0,-1,0.0,14.663101000000097
553,24,0.5,0.25,-35.0,-1,1.0,10.106901000000107
554,24,0.5,0.0625,35.0,1,1.0,0.1943009999986316
555,24,0.5,0.0625,-35.0,1,0.0,4.712201000000277
556,24,0.5,0.125,35.0,1,1.0,0.47750100000030216
557,24,0.5,0.0,35.0,1,1.0,13.411800999999286
558,24,0.5,0.0,35.0,-1,0.0,11.351800999999796
559,24,0.5,0.25,-35.0,1,0.0,12.401601000000483
560,24,0.5,0.0,35.0,-1,0.0,0.905601000000388
1,25,0.5,0.0625,-35.0,-1,1.0,16.008
2,25,0.5,0.0625,35.0,1,1.0,7.7607000000000035
3,25,0.5,1.0,-35.0,-1,1.0,0.23700000000000188
4,25,0.5,0.25,-35.0,-1,1.0,0.2528999999999968
5,25,0.5,1.0,-35.0,-1,1.0,0.3763000000000005
6,25,0.5,0.25,-35.0,-1,1.0,1.3896000000000015
7,25,0.5,0.125,-35.0,-1,1.0,2.5456999999999965
8,25,0.5,0.0,35.0,1,1.0,2.182000000000002
9,25,0.5,0.125,-35.0,-1,1.0,0.21860000000000213
10,25,0.5,1.0,-35.0,-1,1.0,0.2610000000000028
11,25,0.5,0.125,35.0,-1,0.0,2.445599999999999
12,25,0.2,0.125,35.0,1,1.0,0.2524999999999977
13,25,0.5,1.0,35.0,1,1.0,0.20349999999999113
14,25,0.5,0.0625,35.0,-1,0.0,10.65549999999999
15,25,0.5,0.0625,35.0,1,1.0,0.21929999999998984
16,25,0.5,0.0625,-35.0,-1,1.0,6.058599999999998
17,25,0.5,0.25,-35.0,-1,1.0,3.282199999999989
18,25,0.5,0.25,-35.0,-1,1.0,0.2038999999999902
19,25,0.5,1.0,-35.0,-1,1.0,0.5379999999999967
20,25,0.5,0.0625,35.0,-1,0.0,4.169300000000007
21,25,0.5,0.125,35.0,1,1.0,1.9979999999999905
22,25,0.5,0.0625,-35.0,-1,1.0,0.9093000000000018
23,25,0.5,1.0,35.0,1,1.0,0.20309999999999206
24,25,0.5,0.0,35.0,-1,0.0,4.520099999999971
25,25,0.5,0.25,35.0,1,1.0,0.1863999999999919
26,25,0.5,0.25,35.0,1,1.0,0.21240000000000236
27,25,0.5,1.0,35.0,1,1.0,0.19719999999998095
28,25,0.5,0.25,-35.0,-1,1.0,4.141600000000011
29,25,0.5,0.25,-35.0,-1,1.0,3.799900000000008
30,25,0.5,0.0625,35.0,1,1.0,0.20539999999996894
31,25,0.5,0.0625,-35.0,-1,1.0,1.783600000000007
32,25,0.5,0.0625,35.0,-1,0.0,0.8204999999999814
33,25,0.5,0.125,-35.0,-1,1.0,4.7577
34,25,0.5,0.0625,35.0,1,1.0,1.694199999999995
35,25,0.5,0.0,-35.0,-1,1.0,3.474500000000006
36,25,0.5,0.25,35.0,-1,0.0,1.5705000000000098
37,25,0.3,0.25,35.0,1,1.0,0.2536000000000058
38,25,0.5,1.0,35.0,1,1.0,0.22280000000000655
39,25,0.5,1.0,35.0,1,1.0,0.16570000000001528
40,25,0.5,0.125,35.0,1,1.0,0.2400000000000091
41,25,0.5,0.0625,35.0,1,1.0,0.19769999999999754
42,25,0.5,0.0625,-35.0,-1,1.0,2.4577000000000453
43,25,0.5,0.25,35.0,1,1.0,0.22640000000001237
44,25,0.5,0.0625,-35.0,-1,1.0,1.9705000000000155
45,25,0.5,0.0625,35.0,-1,0.0,1.8968000000000131
46,25,0.6,0.0625,-35.0,-1,1.0,0.4977000000000089
47,25,0.5,1.0,35.0,1,1.0,0.15579999999999927
48,25,0.5,0.25,-35.0,-1,1.0,0.21479999999999677
49,25,0.5,0.0625,35.0,1,1.0,0.12310000000002219
50,25,0.5,0.25,-35.0,1,0.0,0.939500000000038
51,25,0.5,0.0625,35.0,-1,0.0,0.4958999999999776
52,25,0.5,0.0625,-35.0,1,0.0,0.15760000000000218
53,25,0.5,0.25,35.0,1,1.0,0.21590000000000487
54,25,0.5,0.25,-35.0,-1,1.0,0.25320000000002096
55,25,0.5,0.25,-35.0,-1,1.0,2.576999999999998
56,25,0.5,1.0,-35.0,-1,1.0,0.20330000000001291
57,25,0.5,0.25,-35.0,-1,1.0,2.000099999999975
58,25,0.5,0.25,-35.0,-1,1.0,0.2020000000000266
59,25,0.5,0.125,35.0,1,1.0,0.6361000000000274
60,25,0.5,0.25,-35.0,-1,1.0,0.2220999999999549
61,25,0.5,0.25,-35.0,-1,1.0,0.2560999999999467
62,25,0.5,1.0,35.0,1,1.0,0.13859999999999673
63,25,0.5,0.0,-35.0,-1,1.0,0.2452000000000112
64,25,0.5,1.0,-35.0,-1,1.0,0.24329999999997654
65,25,0.5,0.0625,-35.0,-1,1.0,1.917100000000005
66,25,0.5,0.0625,-35.0,1,0.0,0.19779999999997244
67,25,0.5,0.125,35.0,1,1.0,0.2055000000000291
68,25,0.5,1.0,35.0,1,1.0,0.17979999999994334
69,25,0.5,0.125,35.0,-1,0.0,0.6461999999999648
70,25,0.5,0.25,-35.0,-1,1.0,0.18729999999993652
71,25,0.5,1.0,-35.0,-1,1.0,0.19429999999999836
72,25,0.5,0.25,-35.0,-1,1.0,0.4420000000000073
73,25,0.5,0.125,-35.0,-1,1.0,2.787399999999991
74,25,0.5,1.0,-35.0,-1,1.0,0.3093999999999255
75,25,0.5,0.0625,35.0,-1,0.0,1.3013999999999442
76,25,0.5,0.0625,35.0,1,1.0,0.29239999999998645
77,25,0.5,0.125,-35.0,-1,1.0,0.301400000000001
78,25,0.5,1.0,-35.0,-1,1.0,0.2500999999999749
79,25,0.5,0.0625,35.0,1,1.0,0.19909999999998718
80,25,0.5,1.0,35.0,1,1.0,0.13519999999999754
81,25,0.5,1.0,-35.0,-1,1.0,0.20249999999998636
82,25,0.5,0.0,35.0,1,1.0,1.4274999999999523
83,25,0.5,0.25,35.0,1,1.0,0.12349999999997863
84,25,0.5,0.0625,35.0,1,1.0,0.28959999999995034
85,25,0.5,1.0,35.0,1,1.0,0.16749999999996135
86,25,0.5,0.25,35.0,1,1.0,0.10160000000001901
87,25,0.5,1.0,-35.0,-1,1.0,0.23959999999993897
88,25,0.5,0.125,-35.0,-1,1.0,1.8155999999999608
89,25,0.5,0.125,35.0,1,1.0,0.14869999999996253
90,25,0.5,1.0,-35.0,-1,1.0,0.24669999999997572
91,25,0.5,0.125,35.0,1,1.0,0.13669999999996207
92,25,0.5,0.125,-35.0,-1,1.0,0.2407000000000039
93,25,0.5,1.0,-35.0,-1,1.0,0.3317000000000121
94,25,0.5,0.0625,35.0,1,1.0,0.15979999999996153
95,25,0.5,0.125,-35.0,1,0.0,0.23930000000001428
96,25,0.5,0.0625,-35.0,-1,1.0,5.466000000000008
97,25,0.5,0.0625,-35.0,1,0.0,0.11889999999993961
98,25,0.5,0.25,35.0,1,1.0,0.15020000000004075
99,25,0.5,1.0,35.0,1,1.0,0.16189999999994598
100,25,0.5,0.125,-35.0,-1,1.0,0.7008000000000152
101,25,0.5,0.25,-35.0,-1,1.0,0.20519999999999072
102,25,0.5,0.25,-35.0,1,0.0,0.14159999999998263
103,25,0.5,0.25,-35.0,-1,1.0,0.22409999999996444
104,25,0.5,0.25,-35.0,1,0.0,1.1169999999999618
105,25,0.5,0.0625,35.0,-1,0.0,0.2880000000000109
106,25,0.5,0.0,35.0,-1,0.0,0.20479999999997744
107,25,0.5,0.0625,35.0,-1,0.0,0.2610000000000241
108,25,0.5,0.25,35.0,1,1.0,0.21710000000001628
109,25,0.5,0.125,-35.0,-1,1.0,2.003399999999999
110,25,0.5,0.0625,-35.0,1,0.0,1.8760999999999513
111,25,0.5,0.125,35.0,-1,0.0,0.24909999999999854
112,25,0.5,0.25,-35.0,-1,1.0,0.19529999999997472
113,25,0.5,0.0,35.0,-1,0.0,1.9718999999999482
114,25,0.3,0.0,35.0,-1,0.0,0.18919999999991433
115,25,0.5,1.0,35.0,1,1.0,0.14519999999998845
116,25,0.5,0.25,-35.0,-1,1.0,0.19819999999998572
117,25,0.5,0.0625,-35.0,-1,1.0,1.4594999999999914
118,25,0.5,0.25,-35.0,1,0.0,0.12239999999997053
119,25,0.3,0.25,35.0,1,1.0,0.13929999999999154
120,25,0.5,1.0,35.0,1,1.0,0.15939999999994825
121,25,0.5,0.0,-35.0,-1,1.0,0.3521999999999821
122,25,0.5,0.0625,-35.0,-1,1.0,1.8973000000000297
123,25,0.5,1.0,-35.0,-1,1.0,0.20329999999995607
124,25,0.5,1.0,35.0,1,1.0,0.14569999999997663
125,25,0.5,0.25,-35.0,-1,1.0,0.2526999999999475
126,25,0.5,0.0,35.0,1,1.0,0.13880000000000337
127,25,0.5,0.0625,35.0,1,1.0,0.19449999999994816
128,25,0.5,0.125,35.0,1,1.0,0.22249999999996817
129,25,0.5,1.0,-35.0,-1,1.0,0.18339999999994916
130,25,0.5,1.0,-35.0,-1,1.0,0.1853999999999587
131,25,0.5,0.0625,35.0,1,1.0,0.1845000000000141
132,25,0.5,0.25,-35.0,-1,1.0,0.43489999999997053
133,25,0.5,0.0,35.0,1,1.0,0.1875
134,25,0.5,0.25,-35.0,-1,1.0,0.6461000000000467
135,25,0.5,1.0,-35.0,-1,1.0,0.24649999999996908
136,25,0.5,0.25,35.0,1,1.0,0.16049999999995634
137,25,0.5,1.0,35.0,1,1.0,0.16059999999998809
138,25,0.5,1.0,-35.0,-1,1.0,0.23259999999999081
139,25,0.5,0.0625,35.0,1,1.0,0.11650000000003047
140,25,0.5,1.0,35.0,1,1.0,0.1319000000000301
141,25,0.5,0.25,35.0,1,1.0,0.17879999999996699
142,25,0.5,0.0,-35.0,1,0.0,0.14939999999995734
143,25,0.7,0.0,35.0,1,1.0,0.15859999999997854
144,25,0.5,1.0,35.0,1,1.0,0.14819999999997435
145,25,0.5,1.0,35.0,1,1.0,0.15960000000001173
146,25,0.5,0.0625,-35.0,-1,1.0,0.9177000000000248
147,25,0.5,0.0625,-35.0,-1,1.0,1.443899999999985
148,25,0.5,0.125,-35.0,-1,1.0,1.015299999999968
149,25,0.5,0.125,35.0,1,1.0,0.2864999999999327
150,25,0.5,0.0625,35.0,-1,0.0,2.5814000000000306
151,25,0.6,0.0625,-35.0,1,0.0,0.15559999999999263
152,25,0.5,1.0,-35.0,-1,1.0,0.27979999999990923
153,25,0.5,0.0,-35.0,-1,1.0,2.314200000000028
154,25,0.5,0.125,35.0,-1,0.0,0.16589999999996508
155,25,0.5,0.125,-35.0,-1,1.0,0.20929999999987103
156,25,0.5,0.25,-35.0,-1,1.0,0.21719999999993433
157,25,0.5,0.0625,35.0,1,1.0,1.1050000000000182
158,25,0.5,1.0,35.0,1,1.0,0.13779999999997017
159,25,0.5,0.0,35.0,1,1.0,0.3485999999999194
160,25,0.5,0.25,35.0,1,1.0,0.18200000000013006
161,25,0.5,0.25,35.0,1,1.0,0.12049999999999272
162,25,0.5,0.0,-35.0,1,0.0,0.27700000000004366
163,25,0.5,0.0,-35.0,-1,1.0,0.2820000000000391
164,25,0.5,0.25,-35.0,-1,1.0,0.26509999999996126
165,25,0.5,0.0,-35.0,-1,1.0,1.0416999999999916
166,25,0.5,0.125,35.0,-1,0.0,0.2970999999998867
167,25,0.5,0.125,-35.0,-1,1.0,0.18269999999995434
168,25,0.5,0.0625,-35.0,-1,1.0,0.11009999999998854
169,25,0.5,0.25,-35.0,-1,1.0,0.20209999999997308
170,25,0.5,0.0,35.0,-1,0.0,0.2012000000000853
171,25,0.5,0.25,35.0,1,1.0,0.2869999999999209
172,25,0.5,0.0625,-35.0,1,0.0,0.17619999999999436
173,25,0.5,0.25,35.0,1,1.0,0.16219999999998436
174,25,0.5,0.125,-35.0,-1,1.0,0.22329999999999472
175,25,0.5,1.0,-35.0,-1,1.0,0.20820000000003347
176,25,0.5,0.0625,35.0,1,1.0,0.1814999999999145
177,25,0.5,0.0625,35.0,1,1.0,0.19649999999990087
178,25,0.5,0.25,35.0,1,1.0,0.130800000000022
179,25,0.5,0.125,-35.0,-1,1.0,0.23339999999996053
180,25,0.5,0.0,35.0,1,1.0,0.24440000000004147
181,25,0.5,0.0,-35.0,-1,1.0,0.6214999999999691
182,25,0.5,0.25,35.0,1,1.0,0.1995999999999185
183,25,0.5,0.0625,35.0,1,1.0,0.11580000000003565
184,25,0.5,1.0,-35.0,-1,1.0,0.20699999999999363
185,25,0.5,0.25,35.0,1,1.0,0.13139999999998508
186,25,0.5,0.125,35.0,1,1.0,0.1411999999999125
187,25,0.5,0.25,35.0,1,1.0,0.1935000000000855
188,25,0.5,0.0625,-35.0,1,0.0,0.13840000000004693
189,25,0.5,0.25,35.0,1,1.0,0.20489999999995234
190,25,0.5,0.125,35.0,1,1.0,0.13859999999988304
191,25,0.5,0.125,35.0,1,1.0,0.25469999999995707
192,25,0.5,0.0625,-35.0,1,0.0,0.31769999999994525
193,25,0.5,0.25,35.0,1,1.0,0.16589999999996508
194,25,0.5,0.125,-35.0,1,0.0,0.1671000000000049
195,25,1.0,0.125,-35.0,-1,1.0,0.17690000000004602
196,25,0.5,1.0,-35.0,-1,1.0,0.18459999999993215
197,25,0.5,1.0,35.0,1,1.0,0.18360000000006949
198,25,0.5,1.0,35.0,1,1.0,0.1713999999999487
199,25,0.5,0.0625,35.0,1,1.0,0.18409999999994398
200,25,0.5,1.0,-35.0,-1,1.0,0.21119999999996253
201,25,0.5,0.0625,-35.0,-1,1.0,0.2579000000000633
202,25,0.5,0.0625,35.0,1,1.0,0.20699999999987995
203,25,0.5,0.125,35.0,1,1.0,0.36230000000000473
204,25,0.5,0.0,-35.0,1,0.0,0.806699999999978
205,25,0.6,0.0,-35.0,-1,1.0,0.05379999999991014
206,25,0.5,1.0,-35.0,-1,1.0,0.17049999999994725
207,25,0.5,0.125,-35.0,-1,1.0,0.2558999999999969
208,25,0.5,0.0,-35.0,1,0.0,0.13449999999988904
209,25,0.5,0.25,35.0,1,1.0,0.24959999999998672
210,25,0.5,0.0,35.0,-1,0.0,1.6056999999999562
211,25,0.5,0.0,-35.0,1,0.0,0.15679999999997563
212,25,0.5,1.0,-35.0,-1,1.0,0.23860000000001946
213,25,0.5,0.125,35.0,1,1.0,0.1757999999998674
214,25,0.5,0.0625,-35.0,-1,1.0,2.5734999999999673
215,25,0.5,0.25,35.0,1,1.0,0.15989999999999327
216,25,0.5,0.125,35.0,1,1.0,0.1596999999999298
217,25,0.5,0.0,-35.0,1,0.0,0.17020000000002256
218,25,0.5,0.25,-35.0,1,0.0,0.10689999999988231
219,25,0.7,0.25,-35.0,-1,1.0,0.20890000000008513
220,25,0.5,1.0,-35.0,-1,1.0,0.1959999999999127
221,25,0.5,0.0,35.0,1,1.0,0.2403999999999087
222,25,0.5,0.0625,-35.0,-1,1.0,2.072400000000016
223,25,0.5,0.25,35.0,1,1.0,0.1753999999999678
224,25,0.5,1.0,35.0,1,1.0,0.16779999999994288
225,25,0.5,0.125,-35.0,-1,1.0,0.20719999999994343
226,25,0.5,0.0625,-35.0,1,0.0,0.18259999999997945
227,25,0.5,0.125,-35.0,-1,1.0,0.25309999999990396
228,25,0.5,0.25,35.0,1,1.0,0.21129999999993743
229,25,0.5,1.0,-35.0,-1,1.0,0.2240999999999076
230,25,0.5,0.25,-35.0,-1,1.0,0.2966999999998734
231,25,0.5,1.0,-35.0,-1,1.0,0.24940000000003693
232,25,0.5,0.0,35.0,1,1.0,1.1979000000000042
233,25,0.5,1.0,-35.0,-1,1.0,0.4714000000000169
234,25,0.5,0.25,35.0,1,1.0,0.2318000000000211
235,25,0.5,1.0,-35.0,-1,1.0,0.21909999999991214
236,25,0.5,0.0625,-35.0,-1,1.0,0.2277000000000271
237,25,0.5,0.0,35.0,1,1.0,0.22349999999994452
238,25,0.5,0.0,-35.0,1,0.0,0.12239999999997053
239,25,0.5,0.125,-35.0,-1,1.0,0.2759999999999536
240,25,0.5,0.0,35.0,-1,0.0,2.657299999999964
241,25,0.5,0.125,35.0,1,1.0,0.29740000000003874
242,25,0.5,0.125,-35.0,-1,1.0,0.23829999999998108
243,25,0.5,0.0,35.0,-1,0.0,2.259800000000041
244,25,0.4,0.0,35.0,1,1.0,0.24149999999997362
245,25,0.5,1.0,-35.0,-1,1.0,0.21109999999998763
246,25,0.5,0.25,-35.0,-1,1.0,0.20440000000007785
247,25,0.5,0.125,35.0,1,1.0,0.2140999999999167
248,25,0.5,0.25,-35.0,-1,1.0,0.2864000000000715
249,25,0.5,0.0625,35.0,1,1.0,0.16849999999988086
250,25,0.5,0.0625,-35.0,1,0.0,0.18600000000003547
251,25,0.5,0.125,35.0,1,1.0,0.17309999999997672
252,25,0.5,0.125,-35.0,-1,1.0,0.5180000000000291
253,25,0.5,0.25,-35.0,-1,1.0,0.25679999999999836
254,25,0.5,1.0,-35.0,-1,1.0,0.18819999999993797
255,25,0.5,0.0625,-35.0,1,0.0,0.21629999999993288
256,25,0.5,0.125,-35.0,-1,1.0,0.21690000000000964
257,25,0.5,0.25,35.0,1,1.0,0.19099999999991724
258,25,0.5,0.0,-35.0,-1,1.0,0.21310000000005402
259,25,0.5,0.0625,-35.0,-1,1.0,0.14639999999997144
260,25,0.5,1.0,-35.0,-1,1.0,0.2477999999999838
261,25,0.5,1.0,35.0,-1,0.0,-0.005100000000084037
262,25,0.5,0.125,-35.0,-1,1.0,0.18400000000008276
263,25,0.5,0.125,-35.0,-1,1.0,0.2199999999999136
264,25,0.5,0.25,35.0,1,1.0,0.25710000000003674
265,25,0.5,0.0625,35.0,-1,0.0,0.2682999999999538
266,25,0.5,0.25,35.0,1,1.0,0.13350000000002638
267,25,0.5,0.0625,35.0,1,1.0,0.16049999999995634
268,25,0.5,0.25,35.0,1,1.0,0.16909999999995762
269,25,0.5,0.125,35.0,1,1.0,1.2819000000000642
270,25,0.5,0.125,35.0,1,1.0,0.48929999999995744
271,25,0.5,1.0,-35.0,-1,1.0,0.18199999999990268
272,25,0.5,1.0,35.0,1,1.0,0.18279999999992924
273,25,0.5,0.0625,35.0,1,1.0,0.20320000000003802
274,25,0.5,0.125,35.0,1,1.0,0.14789999999993597
275,25,0.5,0.125,-35.0,-1,1.0,0.5767999999999347
276,25,0.5,0.25,-35.0,-1,1.0,0.19440000000008695
277,25,0.5,0.25,35.0,1,1.0,0.20150000000001
278,25,0.5,0.125,35.0,1,1.0,0.19299999999998363
279,25,0.5,0.0,35.0,-1,0.0,0.44439999999997326
280,25,0.5,0.25,35.0,1,1.0,0.1812000000001035
281,25,0.5,0.25,35.0,1,1.0,0.1633000000000493
282,25,0.5,0.125,-35.0,-1,1.0,0.28110000000003765
283,25,0.5,1.0,-35.0,-1,1.0,0.18860000000006494
284,25,0.5,0.0625,-35.0,1,0.0,0.15530000000012478
285,25,0.5,0.0625,-35.0,-1,1.0,0.564200000000028
286,25,0.5,1.0,35.0,1,1.0,0.15819999999996526
287,25,0.5,1.0,35.0,1,1.0,0.16649999999992815
288,25,0.5,1.0,-35.0,-1,1.0,0.24899999999990996
289,25,0.5,0.125,35.0,-1,0.0,0.22630000000003747
290,25,0.5,0.25,-35.0,-1,1.0,0.18309999999996762
291,25,0.5,0.0625,-35.0,-1,1.0,0.28139999999984866
292,25,0.5,1.0,-35.0,-1,1.0,0.2480999999999085
293,25,0.5,0.125,35.0,1,1.0,0.14949999999998909
294,25,0.5,0.125,35.0,1,1.0,0.18370000000004438
295,25,0.5,0.25,-35.0,-1,1.0,0.45489999999995234
296,25,0.5,1.0,35.0,1,1.0,0.13620000000003074
297,25,0.5,1.0,-35.0,-1,1.0,0.2582999999999629
298,25,0.5,0.25,-35.0,-1,1.0,0.27329999999994925
299,25,0.5,0.25,35.0,1,1.0,0.15620000000001255
300,25,0.5,0.125,-35.0,-1,1.0,0.4438000000000102
301,25,0.5,0.0625,35.0,1,1.0,0.19090000000005602
302,25,0.5,0.25,-35.0,1,0.0,0.33159999999998035
303,25,0.5,0.0,-35.0,1,0.0,0.10199999999986176
304,25,0.5,0.25,35.0,1,1.0,0.2584000000000515
305,25,0.5,0.125,-35.0,-1,1.0,0.25939999999991414
306,25,0.5,0.0,-35.0,-1,1.0,0.19859999999994216
307,25,0.5,0.125,-35.0,-1,1.0,0.26690000000007785
308,25,0.5,0.125,-35.0,-1,1.0,0.26340000000004693
309,25,0.5,1.0,-35.0,-1,1.0,0.26530000000002474
310,25,0.5,0.125,-35.0,1,0.0,0.14839999999992415
311,25,0.5,0.125,35.0,1,1.0,0.1533999999999196
312,25,0.5,0.25,35.0,1,1.0,0.17060000000003583
313,25,0.5,0.0625,-35.0,-1,1.0,0.33169999999995525
314,25,0.5,0.0,-35.0,-1,1.0,0.5895999999999049
315,25,0.5,0.125,35.0,1,1.0,0.1999999999999318
316,25,0.5,1.0,-35.0,-1,1.0,0.2096000000000231
317,25,0.5,0.25,-35.0,-1,1.0,0.2898000000000138
318,25,0.5,0.0625,-35.0,1,0.0,0.12549999999998818
319,25,0.5,0.125,-35.0,-1,1.0,0.18400000000008276
320,25,0.5,0.25,-35.0,-1,1.0,0.21670000000005984
321,25,0.5,0.125,35.0,1,1.0,0.2887999999999238
322,25,0.5,0.125,-35.0,-1,1.0,0.2661000000000513
323,25,0.5,1.0,35.0,1,1.0,0.1942990000000009
324,25,0.5,1.0,-35.0,-1,1.0,0.2538999999999305
325,25,0.5,0.0625,35.0,-1,0.0,0.23500000000001364
326,25,0.5,0.125,-35.0,1,0.0,0.13589999999999236
327,25,0.5,0.0625,-35.0,-1,1.0,0.4739999999999327
328,25,0.5,0.125,35.0,1,1.0,0.16699999999991633
329,25,0.5,0.25,-35.0,-1,1.0,0.35569999999995616
330,25,0.5,1.0,-35.0,-1,1.0,0.23829999999998108
331,25,0.5,0.0,35.0,-1,0.0,3.3852000000000544
332,25,0.5,0.25,35.0,1,1.0,0.1957999999999629
333,25,0.5,0.125,35.0,-1,0.0,2.598600000000033
334,25,0.5,0.125,-35.0,-1,1.0,0.20859999999993306
335,25,0.5,0.0,35.0,1,1.0,0.1752999999999929
336,25,0.5,0.25,35.0,1,1.0,0.21869999999989886
337,25,0.5,1.0,-35.0,-1,1.0,0.23869999999999436
338,25,0.5,0.125,35.0,1,1.0,0.2154000000000451
339,25,0.5,0.0,-35.0,1,0.0,0.2455000000001064
340,25,0.5,0.25,-35.0,-1,1.0,0.1756000000000313
341,25,0.5,1.0,35.0,1,1.0,0.18229999999994106
342,25,0.5,0.0625,-35.0,-1,1.0,2.535699999999906
343,25,0.5,0.25,-35.0,-1,1.0,0.21909999999979846
344,25,0.5,0.125,-35.0,1,0.0,0.1491000000000895
345,25,0.5,0.0625,-35.0,-1,1.0,0.7826000000000022
346,25,0.5,0.0625,35.0,1,1.0,0.29930000000013024
347,25,0.5,0.125,35.0,1,1.0,0.20939999999995962
348,25,0.5,0.125,-35.0,-1,1.0,0.18609999999989668
349,25,0.5,1.0,35.0,1,1.0,0.1993999999999687
350,25,0.5,0.0,-35.0,1,0.0,0.17629999999985557
351,25,0.6,0.0,-35.0,-1,1.0,0.24639999999999418
352,25,0.5,1.0,-35.0,-1,1.0,0.20640000000003056
353,25,0.5,1.0,-35.0,-1,1.0,0.16629999999986467
354,25,0.5,0.0625,-35.0,-1,1.0,0.23310000000014952
355,25,0.5,0.0625,35.0,-1,0.0,0.039800000000013824
356,25,0.5,0.25,35.0,1,1.0,0.19669999999996435
357,25,0.5,0.0625,35.0,1,1.0,0.23330000000009932
358,25,0.5,0.125,35.0,1,1.0,0.2199999999997999
359,25,0.5,0.25,-35.0,1,0.0,0.13689999999974134
360,25,0.5,0.25,35.0,1,1.0,0.1633999999999105
361,25,0.5,1.0,35.0,1,1.0,0.16689999999994143
362,25,0.5,0.125,-35.0,1,0.0,0.20029999999997017
363,25,0.7,0.125,35.0,1,1.0,0.1436999999998534
364,25,0.5,1.0,-35.0,-1,1.0,0.2537009999998645
365,25,0.5,1.0,-35.0,-1,1.0,0.217000999999982
366,25,0.5,0.0,-35.0,1,0.0,0.11390099999971426
367,25,0.5,0.125,35.0,1,1.0,0.20720100000016828
368,25,0.5,1.0,-35.0,-1,1.0,0.16060099999981503
369,25,0.5,0.25,35.0,1,1.0,0.18390100000010534
370,25,0.5,0.0625,-35.0,1,0.0,0.11060100000008788
371,25,0.7,0.0625,35.0,1,1.0,0.17400100000008933
372,25,0.5,1.0,35.0,1,1.0,0.17750100000012026
373,25,0.5,0.0625,-35.0,-1,1.0,1.9909009999998943
374,25,0.5,0.25,35.0,1,1.0,0.15420099999982995
375,25,0.5,0.0625,-35.0,-1,1.0,0.2077009999998154
376,25,0.5,1.0,35.0,1,1.0,0.1611009999999169
377,25,0.5,1.0,-35.0,-1,1.0,0.4745010000001457
378,25,0.5,0.125,35.0,1,1.0,0.20450099999993654
379,25,0.5,0.25,35.0,1,1.0,0.1546009999999569
380,25,0.5,0.25,-35.0,-1,1.0,0.534601000000066
381,25,0.5,0.0,35.0,-1,0.0,0.26140099999975064
382,25,0.5,0.0625,35.0,-1,0.0,0.2947009999998045
383,25,0.5,0.125,35.0,1,1.0,0.1547009999999318
384,25,0.5,1.0,35.0,1,1.0,0.13820099999998092
385,25,0.5,0.125,-35.0,-1,1.0,0.2716010000001461
386,25,0.5,1.0,-35.0,-1,1.0,0.23830100000009224
387,25,0.5,1.0,35.0,1,1.0,0.15490100000010898
388,25,0.5,0.125,-35.0,-1,1.0,0.3017010000000937
389,25,0.5,0.25,35.0,1,1.0,0.14180100000021412
390,25,0.5,0.125,-35.0,1,0.0,0.16180099999996855
391,25,0.5,0.125,-35.0,-1,1.0,0.21190099999989798
392,25,0.5,0.0,-35.0,1,0.0,0.14190099999996164
393,25,0.5,0.0625,-35.0,-1,1.0,0.2421009999998205
394,25,0.5,0.125,-35.0,-1,1.0,0.20890099999974154
395,25,0.5,0.25,-35.0,-1,1.0,0.44210100000009334
396,25,0.5,0.0,35.0,1,1.0,0.19210099999986596
397,25,0.5,0.0625,35.0,1,1.0,0.29900099999986196
398,25,0.5,1.0,35.0,1,1.0,0.17570099999988997
399,25,0.5,0.125,-35.0,1,0.0,0.14560100000016973
400,25,0.6,0.125,35.0,1,1.0,0.15570100000013554
401,25,0.5,1.0,-35.0,-1,1.0,0.2490010000001348
402,25,0.5,1.0,35.0,1,1.0,0.1924010000002454
403,25,0.5,0.25,-35.0,-1,1.0,0.5691009999998187
404,25,0.5,0.125,35.0,1,1.0,0.13600100000007842
405,25,0.5,0.25,-35.0,-1,1.0,0.24600099999997838
406,25,0.5,0.125,35.0,1,1.0,0.1525010000000293
407,25,0.5,0.0625,35.0,1,1.0,0.20940100000007078
408,25,0.5,0.25,-35.0,1,0.0,0.13610099999982594
409,25,0.5,0.0625,35.0,1,1.0,0.2128010000001268
410,25,0.5,0.25,35.0,1,1.0,0.18640099999993254
411,25,0.5,0.25,35.0,1,1.0,0.20630099999993945
412,25,0.5,1.0,35.0,1,1.0,0.17970100000002276
413,25,0.5,0.0625,-35.0,1,0.0,0.18640099999993254
414,25,0.5,0.25,-35.0,-1,1.0,0.4533010000000104
415,25,0.5,0.125,-35.0,1,0.0,0.21660100000008242
416,25,0.5,0.125,-35.0,-1,1.0,0.30320099999994454
417,25,0.5,1.0,35.0,1,1.0,0.16660099999990052
418,25,0.5,1.0,35.0,1,1.0,0.1967010000000755
419,25,0.5,1.0,35.0,1,1.0,0.15340100000003076
420,25,0.5,1.0,-35.0,-1,1.0,0.18020099999989725
421,25,0.5,0.25,-35.0,1,0.0,0.0802009999999882
422,25,0.5,0.125,-35.0,-1,1.0,0.47020099999986087
423,25,0.5,0.125,35.0,1,1.0,0.2637010000000828
424,25,0.5,0.125,35.0,1,1.0,0.23690099999998893
425,25,0.5,0.0625,-35.0,1,0.0,0.09360100000003513
426,25,0.5,0.0,35.0,1,1.0,0.15700100000003658
427,25,0.5,0.25,35.0,1,1.0,0.15720099999998638
428,25,0.5,1.0,-35.0,-1,1.0,0.23050100000000384
429,25,0.5,0.0,-35.0,-1,1.0,0.6172010000000228
430,25,0.5,0.25,-35.0,-1,1.0,0.2740009999999984
431,25,0.5,0.0,35.0,1,1.0,0.15730099999996128
432,25,0.5,0.125,35.0,1,1.0,0.19400099999984377
433,25,0.5,0.25,35.0,1,1.0,0.13740099999995437
434,25,0.5,0.0625,-35.0,-1,1.0,0.4642010000002301
435,25,0.5,0.125,35.0,1,1.0,0.1342010000000755
436,25,0.5,1.0,-35.0,-1,1.0,0.21450099999992744
437,25,0.5,0.0625,-35.0,-1,1.0,1.3645010000000184
438,25,0.5,1.0,35.0,1,1.0,0.17460099999993872
439,25,0.5,0.125,-35.0,-1,1.0,0.5644009999998616
440,25,0.5,0.125,35.0,1,1.0,0.25110099999983504
441,25,0.5,0.0,-35.0,-1,1.0,-0.03889899999990121
442,25,0.5,0.25,35.0,1,1.0,0.13160099999981867
443,25,0.5,0.0,35.0,1,1.0,0.13130099999989397
444,25,0.5,1.0,-35.0,-1,1.0,0.11470100000019556
445,25,0.5,1.0,35.0,1,1.0,0.19140100000004168
446,25,0.5,1.0,35.0,1,1.0,0.1548009999999067
447,25,0.5,0.125,35.0,1,1.0,0.18830099999991035
448,25,0.5,1.0,-35.0,-1,1.0,0.23490100000003622
449,25,0.5,0.25,35.0,1,1.0,0.07170099999984814
450,25,0.5,0.25,-35.0,-1,1.0,0.5684009999999944
451,25,0.5,0.25,-35.0,-1,1.0,0.26830100000006496
452,25,0.5,0.125,35.0,1,1.0,0.17180099999995946
453,25,0.5,1.0,35.0,1,1.0,0.1185009999999238
454,25,0.5,0.125,-35.0,1,0.0,0.11530100000004495
455,25,0.5,0.0625,35.0,1,1.0,0.26530099999968115
456,25,0.5,1.0,35.0,1,1.0,0.1687010000000555
457,25,0.5,0.0625,-35.0,1,0.0,0.15210099999990234
458,25,0.7,0.0625,35.0,-1,0.0,1.5554010000000744
459,25,0.5,1.0,35.0,1,1.0,0.2089010000001963
460,25,0.5,1.0,35.0,1,1.0,0.10220100000015009
461,25,0.5,0.25,35.0,1,1.0,0.1223010000001068
462,25,0.5,1.0,35.0,1,1.0,0.10570099999995364
463,25,0.5,0.25,35.0,1,1.0,0.17900100000019847
464,25,0.5,0.125,-35.0,1,0.0,0.17580100000009224
465,25,0.5,0.125,35.0,1,1.0,0.07920100000001185
466,25,0.5,0.0625,-35.0,1,0.0,0.26260099999990416
467,25,0.5,0.25,35.0,1,1.0,0.16930100000013226
468,25,0.5,0.0625,-35.0,-1,1.0,0.4994010000000344
469,25,0.5,0.25,35.0,1,1.0,0.21950100000003658
470,25,0.5,0.0,35.0,1,1.0,0.1728009999999358
471,25,0.5,0.0625,35.0,1,1.0,0.13630100000000311
472,25,0.5,0.25,35.0,1,1.0,0.15640099999973245
473,25,0.5,1.0,-35.0,-1,1.0,0.22650099999987106
474,25,0.5,0.125,-35.0,-1,1.0,0.2697010000001683
475,25,0.5,0.125,35.0,1,1.0,0.16980100000023413
476,25,0.5,0.0625,-35.0,1,0.0,0.14310100000011516
477,25,0.5,0.25,-35.0,-1,1.0,0.2798010000001341
478,25,0.5,0.0625,-35.0,-1,1.0,2.2333009999997557
479,25,0.5,1.0,-35.0,-1,1.0,0.13330099999984668
480,25,0.5,1.0,-35.0,-1,1.0,0.19340099999999438
481,25,0.5,0.0625,35.0,1,1.0,0.1834009999997761
482,25,0.5,0.0625,35.0,1,1.0,0.17030099999988124
483,25,0.5,0.0,-35.0,1,0.0,0.22350100000016937
484,25,0.5,0.25,-35.0,-1,1.0,0.18030100000009952
485,25,0.5,1.0,-35.0,-1,1.0,0.19030099999986305
486,25,0.5,0.125,35.0,1,1.0,0.15740099999993618
487,25,0.5,0.125,-35.0,1,0.0,0.11380100000019411
488,25,0.5,0.125,35.0,1,1.0,0.27720099999987724
489,25,0.5,1.0,-35.0,-1,1.0,0.2374010000000908
490,25,0.5,0.0625,35.0,-1,0.0,0.27070099999991726
491,25,0.5,0.125,-35.0,1,0.0,0.12410099999988233
492,25,0.5,0.25,-35.0,-1,1.0,0.2775010000000293
493,25,0.5,0.125,-35.0,-1,1.0,2.170900999999958
494,25,0.5,1.0,35.0,-1,0.0,0.6043010000000777
495,25,0.5,0.0625,-35.0,-1,1.0,0.864500999999791
496,25,0.5,1.0,-35.0,-1,1.0,2.757900999999947
497,25,0.5,0.125,35.0,-1,0.0,2.4613010000000486
498,25,0.2,0.125,35.0,1,1.0,0.20810100000016973
499,25,0.5,1.0,35.0,1,1.0,0.20820100000014463
500,25,0.5,0.0625,-35.0,-1,1.0,0.3684009999999489
501,25,0.5,0.125,-35.0,-1,1.0,3.598300999999992
502,25,0.5,0.0,35.0,-1,0.0,2.208400999999867
503,25,0.5,0.125,35.0,-1,0.0,3.441900999999916
504,25,0.5,0.0625,35.0,-1,0.0,0.6853009999999813
505,25,0.5,0.125,-35.0,1,0.0,0.122101000000157
506,25,0.5,0.125,35.0,1,1.0,0.21900099999993472
507,25,0.5,1.0,-35.0,-1,1.0,0.19590100000004895
508,25,0.5,0.125,-35.0,-1,1.0,4.165600999999924
509,25,0.5,0.0,35.0,-1,0.0,0.33910100000002785
510,25,0.5,0.125,35.0,-1,0.0,0.31920100000002094
511,25,0.5,0.125,-35.0,1,0.0,0.10280099999999948
512,25,0.3,0.125,35.0,1,1.0,0.22620100000017374
513,25,0.5,1.0,35.0,1,1.0,0.16610100000002603
514,25,0.5,1.0,-35.0,-1,1.0,3.899500999999873
515,25,0.5,0.0625,35.0,-1,0.0,5.129501000000118
516,25,0.5,0.0625,35.0,1,1.0,0.19310099999984232
517,25,0.5,1.0,-35.0,-1,1.0,0.23010100000010425
518,25,0.5,0.25,-35.0,-1,1.0,0.2732009999999718
519,25,0.5,0.25,35.0,1,1.0,0.1832009999998263
520,25,0.5,0.25,-35.0,-1,1.0,0.21010099999989507
521,25,0.5,0.25,35.0,1,1.0,0.21670100000005732
522,25,0.5,0.0625,-35.0,-1,1.0,0.4367010000000846
523,25,0.5,0.0625,-35.0,1,0.0,0.1968010000000504
524,25,0.5,0.125,-35.0,-1,1.0,0.22020099999986087
525,25,0.5,0.0625,-35.0,-1,1.0,0.15020099999992453
526,25,0.5,0.0625,-35.0,-1,1.0,0.18030099999987215
527,25,0.5,0.0,35.0,-1,0.0,0.17380100000013954
528,25,0.5,0.0625,35.0,1,1.0,0.24040100000024722
529,25,0.5,0.25,-35.0,-1,1.0,0.19380099999989397
530,25,0.5,0.25,-35.0,-1,1.0,0.28050099999995837
531,25,0.5,1.0,-35.0,-1,1.0,0.23730099999988852
532,25,0.5,0.125,35.0,1,1.0,0.13390099999992344
533,25,0.5,1.0,35.0,1,1.0,0.18410100000005514
534,25,0.5,0.0625,35.0,1,1.0,0.43410100000005514
535,25,0.5,1.0,-35.0,-1,1.0,0.19410099999981867
536,25,0.5,1.0,-35.0,-1,1.0,0.21750100000008388
537,25,0.5,1.0,35.0,1,1.0,0.17420099999981176
538,25,0.5,0.125,-35.0,-1,1.0,0.35770099999990634
539,25,0.5,1.0,-35.0,-1,1.0,0.1609009999999671
540,25,0.5,1.0,-35.0,-1,1.0,0.18780099999980848
541,25,0.5,0.0625,35.0,1,1.0,0.39120100000013736
542,25,0.5,0.25,35.0,1,1.0,0.24450099999990016
543,25,0.5,0.0625,-35.0,-1,1.0,-0.0687990000001264
544,25,0.5,0.0625,35.0,-1,0.0,0.20790099999999256
545,25,0.5,0.125,35.0,1,1.0,0.1946010000001479
546,25,0.5,1.0,-35.0,-1,1.0,0.44470099999989543
547,25,0.5,1.0,35.0,1,1.0,0.17470099999991362
548,25,0.5,0.125,-35.0,1,0.0,0.13470099999995
549,25,0.5,0.125,35.0,1,1.0,0.15820099999996273
550,25,0.5,0.0625,-35.0,1,0.0,0.20160100000020975
551,25,0.5,0.125,-35.0,1,0.0,0.15830099999993763
552,25,0.5,0.25,35.0,1,1.0,0.18180099999995036
553,25,0.5,0.25,-35.0,-1,1.0,0.24870099999998274
554,25,0.5,1.0,-35.0,-1,1.0,0.17180099999995946
555,25,0.5,0.0625,35.0,-1,0.0,1.1052010000000791
556,25,0.6,0.0625,35.0,1,1.0,0.16210100000012062
557,25,0.5,1.0,35.0,1,1.0,0.16540100000020175
558,25,0.5,1.0,35.0,1,1.0,0.1589010000000144
559,25,0.5,0.0,35.0,1,1.0,0.16240099999981794
560,25,0.5,0.0,-35.0,1,0.0,0.10220100000015009
561,25,0.5,0.0625,35.0,1,1.0,0.1422010000001137
562,25,0.5,1.0,-35.0,-1,1.0,0.21220100000005004
563,25,0.5,0.25,35.0,1,1.0,0.20570100000009006
564,25,0.5,0.25,-35.0,-1,1.0,0.3258009999999558
565,25,0.5,0.125,35.0,1,1.0,0.1425010000000384
566,25,0.5,0.0625,35.0,1,1.0,0.12250100000005659
567,25,0.5,0.25,-35.0,-1,1.0,0.3892009999999573
568,25,0.5,1.0,-35.0,-1,1.0,0.21590100000003076
569,25,0.5,0.125,-35.0,1,0.0,0.12260100000003149
570,25,0.5,0.0625,35.0,1,1.0,0.14940099999989798
571,25,0.5,0.0625,-35.0,1,0.0,0.152800999999954
572,25,0.5,0.0625,-35.0,1,0.0,0.142900999999938
573,25,0.5,0.25,35.0,1,1.0,0.14630099999999402
574,25,0.5,0.0,35.0,1,1.0,0.1329009999999471
575,25,0.5,0.125,35.0,1,1.0,-0.06369899999981499
576,25,0.5,0.0,-35.0,1,0.0,0.15010099999994964
577,25,0.5,0.0,-35.0,1,0.0,0.1565010000001621
578,25,0.5,0.0,35.0,1,1.0,0.17660099999989143
579,25,0.5,1.0,35.0,1,1.0,0.11320099999988997
580,25,0.5,0.0625,35.0,1,1.0,0.19010100000014063
581,25,0.5,1.0,35.0,1,1.0,0.116600999999946
582,25,0.5,1.0,35.0,1,1.0,0.14350100000001476
583,25,0.5,0.0,-35.0,1,0.0,0.11020100000018829
584,25,0.5,0.0625,-35.0,1,0.0,0.12030100000015409
585,25,0.5,0.0625,-35.0,1,0.0,0.14370099999996455
586,25,0.5,0.125,35.0,1,1.0,0.16720099999997728
587,25,0.5,1.0,35.0,1,1.0,0.12370099999998274
588,25,0.5,0.125,35.0,1,1.0,2.063900999999987
589,25,0.5,0.25,-35.0,1,0.0,0.16380099999992126
590,25,0.5,0.0,35.0,1,1.0,0.147300999999743
591,25,0.5,0.0625,-35.0,1,0.0,0.08730100000002494
592,25,1.0,0.0625,-35.0,1,0.0,0.14400100000011662
593,25,0.5,1.0,-35.0,1,0.0,0.1407010000000355
594,25,1.0,1.0,-35.0,-1,1.0,0.24440099999992526
595,25,0.5,1.0,-35.0,-1,1.0,0.20090099999993072
596,25,0.5,0.0,-35.0,1,0.0,0.17440099999998893
597,25,0.8,0.0,-35.0,1,0.0,0.15440100000000712
598,25,0.5,1.0,-35.0,-1,1.0,0.20780100000001767
599,25,0.5,0.25,35.0,1,1.0,0.18780100000003586
600,25,0.5,0.125,35.0,1,1.0,0.16450099999997292
601,25,0.5,0.0625,35.0,1,1.0,0.6147009999999682
602,25,0.5,1.0,-35.0,-1,1.0,0.3080009999998765
603,25,0.5,0.125,35.0,1,1.0,0.15810099999976046
604,25,0.5,0.0625,-35.0,1,0.0,0.22820099999989907
605,25,0.5,0.125,-35.0,1,0.0,0.10500099999990198
606,25,0.5,0.0,35.0,1,1.0,0.20510099999978593
607,25,0.5,0.0625,35.0,1,1.0,0.18160100000000057
608,25,0.5,0.0625,-35.0,1,0.0,0.12180100000000493
609,25,0.9,0.0625,-35.0,1,0.0,0.1751009999998132
610,25,0.5,1.0,-35.0,-1,1.0,0.18870099999980994
611,25,0.5,0.0625,-35.0,-1,1.0,0.22190100000011626
612,25,0.5,0.25,35.0,1,1.0,0.2052009999999882
613,25,0.5,1.0,35.0,1,1.0,0.12200099999995473
614,25,0.5,0.0625,35.0,-1,0.0,0.15540099999998347
615,25,0.5,0.25,35.0,1,1.0,0.13880100000028506
616,25,0.5,0.0625,-35.0,1,0.0,0.14580099999989216
617,25,0.5,0.0625,35.0,1,1.0,0.12910100000021885
618,25,0.5,0.0625,35.0,-1,0.0,0.0823009999999158
619,25,0.5,0.125,-35.0,1,0.0,0.1323010000000977
620,25,0.6,0.125,35.0,1,1.0,0.12590099999988524
621,25,0.5,1.0,-35.0,-1,1.0,0.19250099999999293
622,25,0.5,1.0,35.0,1,1.0,0.18930100000011407
623,25,0.5,0.0,-35.0,1,0.0,0.15930100000014136
624,25,0.5,0.25,35.0,1,1.0,0.1894009999998616
625,25,0.5,0.125,-35.0,1,0.0,0.1628009999999449
626,25,0.5,0.25,35.0,1,1.0,0.10290099999997437
627,25,0.5,0.0625,-35.0,-1,1.0,0.21960100000001148
628,25,0.5,1.0,-35.0,-1,1.0,0.17640099999994163
629,25,0.5,0.25,-35.0,-1,1.0,0.21640099999990525
630,25,0.5,1.0,-35.0,-1,1.0,0.249800999999934
631,25,0.5,0.0625,35.0,1,1.0,0.04010099999982231
632,25,0.5,1.0,-35.0,-1,1.0,0.21650099999988015
633,25,0.5,0.25,35.0,1,1.0,0.13330100000007405
634,25,0.5,0.125,35.0,1,1.0,0.14330100000006496
635,25,0.5,0.125,-35.0,-1,1.0,0.24010100000009515
636,25,0.5,0.0625,-35.0,1,0.0,0.14670100000012098
637,25,0.5,0.0,35.0,1,1.0,0.21670100000005732
638,25,0.5,0.0625,-35.0,1,0.0,0.11010099999998602
639,25,0.5,0.25,-35.0,-1,1.0,0.213600999999926
640,25,0.5,0.0625,35.0,1,1.0,0.11030099999993581
641,25,0.5,0.0,-35.0,1,0.0,0.23380100000008497
642,25,0.5,0.0625,-35.0,1,0.0,0.21380100000010316
643,25,0.8,0.0625,-35.0,1,0.0,3.0439010000000053
644,25,0.5,1.0,-35.0,-1,1.0,0.18730099999970662
645,25,0.5,1.0,35.0,1,1.0,0.17410099999983686
646,25,0.5,0.0,35.0,-1,0.0,0.37090100000023085
647,25,0.5,0.25,-35.0,-1,1.0,0.5577010000001792
648,25,0.5,1.0,-35.0,-1,1.0,0.16770100000007915
649,25,0.5,0.0,35.0,1,1.0,0.18450099999995473
650,25,0.5,0.25,35.0,1,1.0,0.16450099999997292
651,25,0.5,0.0625,35.0,1,1.0,0.15790099999981067
652,25,0.5,0.25,35.0,1,1.0,0.17450099999996382
653,25,0.5,1.0,35.0,1,1.0,0.20460099999991144
654,25,0.5,0.0625,-35.0,1,0.0,0.13470100000017737
655,25,0.7,0.0625,-35.0,1,0.0,0.1547009999999318
656,25,0.5,1.0,-35.0,-1,1.0,0.20470099999988633
657,25,0.5,0.0625,35.0,1,1.0,0.2515010000001894
658,25,0.5,0.125,35.0,-1,0.0,4.041500999999926
659,25,0.5,0.125,35.0,1,1.0,0.15170100000000275
660,25,0.5,0.25,35.0,1,1.0,0.13170100000002094
661,25,0.5,0.0625,35.0,1,1.0,0.1952009999999973
662,25,0.5,0.25,-35.0,-1,1.0,0.2354009999999107
663,25,0.5,1.0,-35.0,-1,1.0,0.3953009999997903
664,25,0.5,1.0,35.0,1,1.0,0.19880100000000311
665,25,0.5,1.0,-35.0,-1,1.0,0.3888010000000577
666,25,0.5,0.125,35.0,1,1.0,0.2155009999999038
667,25,0.5,0.0,35.0,1,1.0,0.2357009999998354
668,25,0.5,1.0,35.0,1,1.0,0.1422010000001137
669,25,0.5,0.125,-35.0,-1,1.0,3.6057009999999536
670,25,0.5,0.0625,35.0,1,1.0,0.11910100000000057
671,25,0.5,0.125,35.0,1,1.0,0.2092009999998936
672,25,0.5,0.125,-35.0,1,0.0,0.152800999999954
673,25,0.5,0.0,-35.0,1,0.0,0.23590100000023995
674,25,0.5,0.125,-35.0,-1,1.0,0.4728010000001177
675,25,0.5,0.125,35.0,1,1.0,0.23270099999990634
676,25,0.5,0.0625,35.0,1,1.0,0.13960099999985687
677,25,0.5,1.0,-35.0,-1,1.0,0.3195010000004004
678,25,0.5,0.0625,-35.0,1,0.0,0.24300099999982194
679,25,0.5,0.25,35.0,1,1.0,0.176401000000169
680,25,0.5,1.0,-35.0,-1,1.0,0.15970100000004095
681,25,0.5,0.125,-35.0,1,0.0,0.17320100000051752
682,25,0.5,0.0,-35.0,-1,1.0,0.3300010000002658
683,25,0.5,0.0,-35.0,-1,1.0,0.26000100000010207
684,25,0.5,0.0625,35.0,1,1.0,0.27010100000006787
685,25,0.5,0.25,35.0,1,1.0,0.16690100000050734
686,25,0.5,0.125,35.0,1,1.0,0.20700100000021848
687,25,0.5,1.0,-35.0,-1,1.0,0.23020100000030652
688,25,0.5,0.0,-35.0,1,0.0,0.19710100000020248
689,25,0.5,0.125,35.0,1,1.0,0.12720100000024104
690,25,0.5,1.0,35.0,1,1.0,0.15390100000013263
691,25,0.5,0.125,35.0,1,1.0,0.2139010000005328
692,25,0.5,1.0,-35.0,-1,1.0,0.2174009999998816
693,25,0.5,0.0625,35.0,1,1.0,0.18420100000048478
694,25,0.5,0.0625,35.0,1,1.0,0.24430100000017774
695,25,0.5,0.25,-35.0,-1,1.0,0.19420100000024831
696,25,0.5,0.125,35.0,1,1.0,0.20080099999995582
697,25,0.5,1.0,35.0,1,1.0,0.1343010000000504
698,25,0.5,0.125,-35.0,-1,1.0,0.5044010000001435
699,25,0.5,0.125,-35.0,1,0.0,0.16120100000034654
700,25,0.5,0.0625,-35.0,1,0.0,0.17780100000027232
701,25,0.5,0.0625,-35.0,1,0.0,0.14120100000036473
702,25,0.7,0.0625,35.0,-1,0.0,0.30460100000027523
703,25,0.5,1.0,-35.0,-1,1.0,0.2847010000004957
704,25,0.5,0.125,35.0,1,1.0,0.18150100000002567
705,25,0.5,1.0,35.0,1,1.0,0.17160100000000966
706,25,0.5,0.0625,-35.0,1,0.0,0.14160100000026432
707,25,0.7,0.0625,35.0,1,1.0,0.4584010000003218
708,25,0.5,1.0,35.0,1,1.0,0.16510100000004968
709,25,0.5,0.25,-35.0,-1,1.0,2.3184009999999944
710,25,0.5,0.25,-35.0,-1,1.0,0.23850100000026941
711,25,0.5,1.0,-35.0,-1,1.0,0.23860100000001694
712,25,0.5,0.25,35.0,1,1.0,0.17870100000027378
713,25,0.5,0.125,35.0,1,1.0,0.1687010000000555
714,25,0.5,0.0,-35.0,-1,1.0,2.37570100000039
715,25,0.5,0.0625,35.0,1,1.0,0.2657010000007176
716,25,0.5,1.0,35.0,1,1.0,0.17230100000006132
717,25,0.5,1.0,35.0,1,1.0,0.12890100000049642
718,25,0.5,0.125,35.0,-1,0.0,0.10270100000025195
719,25,0.5,0.0625,35.0,1,1.0,0.1590009999999893
720,25,0.5,0.125,-35.0,1,0.0,0.14250100000026578
721,25,0.7,0.125,-35.0,-1,1.0,0.33250100000032035
722,25,0.5,1.0,-35.0,-1,1.0,0.1626009999999951
723,25,0.5,0.125,35.0,1,1.0,0.16600100000005114
724,25,0.5,0.25,35.0,1,1.0,0.15940100000034363
725,25,0.5,0.0,-35.0,1,0.0,0.13610100000005332
726,25,0.7,0.0,35.0,1,1.0,0.2528010000005452
727,25,0.5,1.0,-35.0,-1,1.0,0.26630100000011225
728,25,0.5,1.0,35.0,1,1.0,0.15960099999983868
729,25,0.5,0.125,35.0,-1,0.0,0.3364010000000235
730,25,0.6,0.125,-35.0,1,0.0,0.24970100000064122
731,25,0.5,1.0,35.0,1,1.0,0.1365009999999529
732,25,0.5,0.125,35.0,1,1.0,0.22000100000013845
733,25,0.5,1.0,-35.0,-1,1.0,0.3066009999997732
734,25,0.5,1.0,35.0,1,1.0,0.12010100000043167
735,25,0.5,0.0,35.0,1,1.0,0.16700099999980011
736,25,0.5,0.25,-35.0,1,0.0,0.13700100000005477
737,25,0.7,0.25,35.0,1,1.0,0.16010099999994054
738,25,0.5,1.0,35.0,1,1.0,0.11690100000032544
739,25,0.5,1.0,35.0,1,1.0,0.1737009999997099
740,25,0.5,0.25,35.0,1,1.0,0.12700100000029124
741,25,0.5,0.0,35.0,1,1.0,0.10040100000014718
742,25,0.5,0.25,35.0,1,1.0,0.1538010000003851
743,25,0.5,0.125,35.0,1,1.0,0.1172010000004775
744,25,0.5,1.0,35.0,1,1.0,0.12060100000007878
745,25,0.5,0.25,-35.0,-1,1.0,0.27720099999987724
746,25,0.5,0.0625,-35.0,1,0.0,0.21060100000067905
747,25,0.5,0.0625,35.0,1,1.0,0.1608009999999922
748,25,0.5,0.125,-35.0,1,0.0,0.13750100000015664
749,25,0.9,0.125,-35.0,-1,1.0,0.23750100000052043
750,25,0.5,1.0,-35.0,-1,1.0,0.18770100000028833
751,25,0.5,0.125,-35.0,-1,1.0,1.43420100000003
752,25,0.5,1.0,35.0,1,1.0,0.2044010000004164
753,25,0.5,0.0625,-35.0,1,0.0,0.22450100000014572
754,25,0.5,0.125,35.0,1,1.0,0.25800100000014936
755,25,0.5,0.25,35.0,1,1.0,0.3580010000000584
756,25,0.5,0.0625,35.0,-1,0.0,1.241500999999971
757,25,0.6,0.0625,35.0,1,1.0,0.20160100000020975
758,25,0.5,1.0,35.0,1,1.0,0.13500100000010207
759,25,0.5,1.0,-35.0,-1,1.0,0.24510100000043167
760,25,0.5,0.0625,35.0,1,1.0,0.1117010000002665
761,25,0.5,0.0,35.0,1,1.0,0.2018010000006143
762,25,0.5,0.25,-35.0,-1,1.0,0.35520100000076127
763,25,0.5,0.125,-35.0,-1,1.0,0.431800999999723
764,25,0.5,1.0,35.0,1,1.0,0.18850100000054226
765,25,0.5,1.0,-35.0,-1,1.0,0.13530100000025413
766,25,0.5,0.0,35.0,-1,0.0,0.2521010000004935
767,25,0.5,0.125,-35.0,-1,1.0,0.21550100000013117
768,25,0.5,0.0,35.0,-1,0.0,0.24220100000002276
769,25,0.5,0.0625,-35.0,1,0.0,0.18550099999993108
770,25,0.5,0.125,35.0,1,1.0,0.1790009999999711
771,25,0.5,0.125,-35.0,1,0.0,0.14570099999991726
772,25,0.5,0.125,35.0,1,1.0,0.14230100000031598
773,25,0.5,1.0,-35.0,-1,1.0,0.11570100000017192
774,25,0.5,0.125,35.0,1,1.0,0.1792009999999209
775,25,0.5,0.25,-35.0,-1,1.0,0.19910099999970043
776,25,0.5,0.25,-35.0,-1,1.0,0.2628010000003087
777,25,0.5,0.125,-35.0,1,0.0,0.14260100000046805
778,25,0.6,0.125,-35.0,-1,1.0,0.20940100000052553
779,25,0.5,1.0,35.0,-1,0.0,0.1262010000000373
780,25,0.5,0.0625,-35.0,-1,1.0,0.506300999999894
781,25,0.5,0.25,35.0,1,1.0,0.18610100000068996
782,25,0.5,0.125,-35.0,-1,1.0,0.24620099999992817
783,25,0.5,0.0625,-35.0,1,0.0,0.15630099999998492
784,25,0.4,0.0625,-35.0,-1,1.0,0.3098009999998794
785,25,0.5,1.0,35.0,1,1.0,0.1899009999997361
786,25,0.5,0.0625,35.0,-1,0.0,0.6199010000004819
787,25,0.5,0.0625,-35.0,1,0.0,0.2167010000002847
788,25,0.5,0.0625,35.0,1,1.0,0.22350100000039674
789,25,0.5,0.125,-35.0,-1,1.0,0.1968010000000504
790,25,0.5,0.125,35.0,1,1.0,0.16700100000025486
791,25,0.5,1.0,-35.0,-1,1.0,0.24020100000007005
792,25,0.5,1.0,-35.0,-1,1.0,0.21710100000018429
793,25,0.5,0.0625,-35.0,-1,1.0,0.41360100000019884
794,25,0.5,0.25,35.0,1,1.0,0.16030100000034508
795,25,0.5,0.0625,35.0,-1,0.0,0.4671010000001843
796,25,0.5,0.0,-35.0,1,0.0,0.16730100000040693
797,25,0.5,0.25,35.0,1,1.0,0.1941010000005008
798,25,0.5,0.25,35.0,1,1.0,0.19730099999969752
799,25,0.5,0.125,35.0,1,1.0,0.18420100000048478
800,25,0.5,1.0,35.0,1,1.0,0.14740100000017264
801,25,0.5,0.0625,35.0,1,1.0,0.04750100000001112
802,25,0.5,0.0,35.0,1,1.0,0.14100099999996019
803,25,0.5,1.0,-35.0,-1,1.0,0.24120099999981903
804,25,0.5,1.0,-35.0,-1,1.0,0.19430100000045059
805,25,0.5,1.0,-35.0,-1,1.0,0.2211010000000897
806,25,0.5,0.0625,-35.0,-1,1.0,0.7278010000004542
807,25,0.5,0.0625,35.0,1,1.0,0.14450100000021848
808,25,0.5,1.0,35.0,1,1.0,0.1479010000002745
809,25,0.5,0.0625,-35.0,1,0.0,0.16790099999980157
810,25,0.6,0.0625,35.0,1,1.0,0.22820100000035382
811,25,0.5,1.0,-35.0,-1,1.0,0.16490100000009988
812,25,0.5,0.125,-35.0,-1,1.0,0.5682010000000446
813,25,0.5,0.0625,-35.0,1,0.0,0.23480100000006132
814,25,0.5,0.0625,-35.0,1,0.0,0.14490100000011807
815,25,0.5,1.0,-35.0,-1,1.0,0.22170100000039383
816,25,0.5,0.125,-35.0,-1,1.0,0.21510100000068633
817,25,0.5,0.125,-35.0,-1,1.0,0.19180100000039602
818,25,0.5,0.25,35.0,1,1.0,0.19200099999989106
819,25,0.5,0.125,-35.0,1,0.0,0.1685010000001057
820,25,0.5,0.25,35.0,1,1.0,0.2288010000002032
821,25,0.5,0.0625,35.0,1,1.0,0.17560100000036982
822,25,0.5,0.25,-35.0,-1,1.0,0.23210100000005696
823,25,0.5,0.125,35.0,1,1.0,0.17560100000036982
824,25,0.5,0.125,35.0,1,1.0,0.16560100000015154
825,25,0.5,0.0625,-35.0,-1,1.0,0.32570100000066304
826,25,0.5,0.0625,35.0,1,1.0,0.12920100000019374
827,25,0.5,0.125,35.0,1,1.0,0.1426010000000133
828,25,0.5,0.0625,-35.0,1,0.0,0.15910100000019156
829,25,0.5,0.0625,35.0,1,1.0,0.2260010000004513
830,25,0.5,0.0625,35.0,-1,0.0,-0.013899000000037631
831,25,0.5,0.125,-35.0,-1,1.0,0.3128010000004906
832,25,0.5,1.0,-35.0,-1,1.0,0.25600100000019665
833,25,0.5,1.0,35.0,-1,0.0,0.07280100000070888
834,25,0.5,0.0,-35.0,-1,1.0,0.2461009999997259
835,25,0.5,0.25,35.0,1,1.0,0.1663010000002032
836,25,0.5,0.0625,35.0,1,1.0,0.2097010000006776
837,25,0.5,0.0625,35.0,1,1.0,0.21310100000027887
838,25,0.5,0.0,35.0,1,1.0,0.15980100000024322
839,25,0.5,1.0,-35.0,-1,1.0,0.2031010000000606
840,25,0.5,0.0625,35.0,1,1.0,0.08650100000022576
841,25,0.5,1.0,-35.0,-1,1.0,0.43660099999988233
842,25,0.5,0.25,35.0,1,1.0,0.21000100000037492
843,25,0.5,0.125,-35.0,1,0.0,0.15000100000042949
844,25,0.5,0.0625,35.0,1,1.0,0.1468009999998685
845,25,0.5,1.0,-35.0,-1,1.0,0.26010100000030434
846,25,0.5,0.0625,-35.0,1,0.0,0.15350100000023303
847,25,0.5,0.0625,-35.0,1,0.0,0.18020100000012462
848,25,0.5,0.125,-35.0,-1,1.0,0.20700100000021848
849,25,0.5,0.125,-35.0,1,0.0,0.13700100000050952
850,25,0.5,0.0625,35.0,1,1.0,0.23380100000031234
851,25,0.5,0.125,35.0,1,1.0,0.1738010000003669
852,25,0.5,1.0,-35.0,-1,1.0,0.21730100000013408
853,25,0.5,0.0,-35.0,1,0.0,0.2308010000001559
854,25,0.5,0.0625,-35.0,1,0.0,0.17080100000021048
855,25,0.7,0.0625,35.0,1,1.0,0.14080100000046514
856,25,0.5,1.0,35.0,1,1.0,0.13090099999999438
857,25,0.5,1.0,35.0,1,1.0,0.1042010000001028
858,25,0.5,0.125,-35.0,-1,1.0,0.24440000000004147
859,25,0.5,1.0,-35.0,-1,1.0,0.2411010000000715
860,25,0.5,0.0,35.0,-1,0.0,2.217801000000236
861,25,0.5,0.0625,-35.0,-1,1.0,0.39450100000067323
862,25,0.5,0.0625,35.0,1,1.0,0.18460099999992963
863,25,0.5,0.125,35.0,1,1.0,0.19130100000029415
864,25,0.5,1.0,-35.0,-1,1.0,0.23830100000031962
865,25,0.5,0.0625,35.0,1,1.0,0.2548010000004979
866,25,0.5,0.125,35.0,1,1.0,0.1648009999998976
867,25,0.5,0.0,35.0,1,1.0,0.5684009999999944
868,25,0.5,1.0,35.0,1,1.0,0.15830100000039238
869,25,0.5,0.0625,-35.0,1,0.0,0.21490099999982704
870,25,0.5,0.0625,-35.0,1,0.0,0.14170100000001185
871,25,0.8,0.0625,-35.0,-1,1.0,0.24550100000033126
872,25,0.5,1.0,-35.0,-1,1.0,0.17520100000001548
873,25,0.5,1.0,35.0,1,1.0,0.16200100000014572
874,25,0.5,0.0625,-35.0,-1,1.0,0.3120010000006914
875,25,0.5,0.0625,35.0,1,1.0,0.11540100000001985
876,25,0.5,0.0,35.0,-1,0.0,3.2054010000001654
877,25,0.6,0.0,-35.0,1,0.0,0.14560100000016973
878,25,0.5,1.0,-35.0,-1,1.0,0.22230100000069797
879,25,0.5,0.0625,35.0,1,1.0,0.19900100000040766
880,25,0.5,0.125,-35.0,-1,1.0,0.18260099999997692
881,25,0.5,1.0,35.0,1,1.0,0.1290009999997892
882,25,0.5,0.125,-35.0,1,0.0,0.1759010000005219
883,25,0.5,0.125,-35.0,-1,1.0,0.27250099999992017
884,25,0.5,0.25,-35.0,-1,1.0,0.2293010000007598
885,25,0.5,0.25,35.0,1,1.0,0.24970100000064122
886,25,0.5,1.0,-35.0,-1,1.0,0.18610100000023522
887,25,0.5,0.125,35.0,1,1.0,0.20940100000052553
888,25,0.5,0.25,-35.0,-1,1.0,0.24980100000038874
889,25,0.5,1.0,35.0,1,1.0,0.16290100000060193
890,25,0.5,0.125,35.0,1,1.0,0.1362010000002556
891,25,0.5,0.25,-35.0,-1,1.0,0.18980099999998856
892,25,0.5,0.0625,35.0,1,1.0,0.19310100000029706
893,25,0.5,0.0,-35.0,1,0.0,0.13640100000020539
894,25,0.6,0.0,35.0,-1,0.0,0.29650100000026214
895,25,0.5,1.0,-35.0,-1,1.0,0.2233009999999922
896,25,0.5,0.25,35.0,1,1.0,0.21000100000037492
897,25,0.5,1.0,35.0,1,1.0,0.16000100000019302
898,25,0.5,0.0,-35.0,1,0.0,0.18010099999992235
899,25,0.5,0.25,-35.0,1,0.0,0.09700100000009115
900,25,0.5,0.125,-35.0,1,0.0,0.18680100000028688
901,25,0.5,0.125,35.0,1,1.0,0.2104010000002745
902,25,0.5,0.0625,-35.0,1,0.0,0.13700100000005477
903,25,0.5,0.0,-35.0,1,0.0,0.13390100000015082
904,25,0.5,0.25,-35.0,1,0.0,0.20050099999980375
905,25,0.5,0.0625,-35.0,-1,1.0,0.2841009999997368
906,25,0.5,0.125,-35.0,-1,1.0,0.5273010000005343
907,25,0.5,0.25,-35.0,-1,1.0,0.20410100000026432
908,25,0.5,1.0,-35.0,-1,1.0,0.20410100000026432
909,25,0.5,0.125,-35.0,1,0.0,0.16120100000034654
910,25,0.5,0.125,35.0,1,1.0,0.28750099999979284
911,25,0.5,0.125,35.0,1,1.0,0.1643010000002505
912,25,0.5,0.125,35.0,1,1.0,0.14760100000012244
913,25,0.5,0.125,-35.0,1,0.0,0.6210010000004331
914,25,0.5,0.0,-35.0,1,0.0,0.16120100000034654
915,25,0.5,0.125,-35.0,-1,1.0,0.33450100000027305
916,25,0.5,0.125,-35.0,-1,1.0,0.20450099999970917
917,25,0.5,0.0,-35.0,-1,1.0,0.24800099999993108
918,25,0.5,1.0,-35.0,-1,1.0,0.22160100000019156
919,25,0.5,1.0,-35.0,-1,1.0,0.3116010000003371
920,25,0.5,0.25,-35.0,-1,1.0,0.2284010000003036
921,25,0.5,0.25,-35.0,-1,1.0,0.2349010000002636
922,25,0.5,0.0625,35.0,-1,0.0,0.5783010000000104
923,25,0.5,0.0,35.0,1,1.0,0.2251009999999951
924,25,0.5,1.0,-35.0,-1,1.0,0.28170100000033926
925,25,0.5,0.125,35.0,1,1.0,0.16840099999990343
926,25,0.5,0.25,35.0,1,1.0,0.19190100000014354
927,25,0.5,0.0,-35.0,1,0.0,0.1919009999996888
928,25,0.5,0.0625,35.0,1,1.0,0.1922010000002956
929,25,0.5,0.0625,35.0,1,1.0,0.1922010000002956
930,25,0.5,0.125,35.0,1,1.0,0.5455010000005132
931,25,0.5,0.0,-35.0,-1,1.0,0.485501000000113
932,25,0.5,0.25,35.0,1,1.0,0.11560100000042439
933,25,0.5,1.0,35.0,1,1.0,0.1691009999999551
934,25,0.5,0.0,35.0,1,1.0,0.12900100000024395
935,25,0.5,0.0625,-35.0,1,0.0,0.1525010000000293
936,25,0.9,0.0625,-35.0,1,0.0,0.45590100000026723
937,25,0.5,1.0,-35.0,-1,1.0,0.21270100000037928
938,25,0.5,0.0,-35.0,-1,1.0,0.3627010000000155
939,25,0.5,0.0625,-35.0,-1,1.0,0.3494010000003982
940,25,0.5,0.0625,-35.0,-1,1.0,0.2528010000000904
941,25,0.5,1.0,35.0,1,1.0,0.1362010000002556
942,25,0.5,0.0,35.0,-1,0.0,0.28620100000034654
943,25,0.5,0.125,-35.0,-1,1.0,0.42980100000022503
944,25,0.5,1.0,35.0,1,1.0,0.1797010000004775
945,25,0.5,0.0625,35.0,1,1.0,0.1564010000001872
946,25,0.5,0.25,35.0,1,1.0,0.2799009999998816
947,25,0.5,0.125,35.0,1,1.0,0.12320100000033563
948,25,0.5,0.25,-35.0,-1,1.0,0.4333010000000286
949,25,0.5,1.0,-35.0,-1,1.0,0.243300999999974
950,25,0.5,1.0,35.0,1,1.0,0.26670100000001185
951,25,0.5,0.0625,35.0,1,1.0,0.24010100000032253
952,25,0.5,0.125,35.0,1,1.0,10.403500999999778
953,25,0.5,1.0,35.0,1,1.0,0.1503010000001268
954,25,0.5,0.125,-35.0,1,0.0,0.3104009999997288
955,25,0.5,0.0625,-35.0,1,0.0,0.1406010000000606
956,25,0.5,0.25,-35.0,-1,1.0,0.22060099999998783
957,25,0.5,1.0,-35.0,-1,1.0,0.1906010000002425
958,25,0.5,0.0,35.0,-1,0.0,0.48410100000000966
959,25,0.5,0.125,-35.0,1,0.0,0.11080100000026505
960,25,0.5,0.25,-35.0,-1,1.0,0.16420100000050297
961,25,0.5,0.125,35.0,1,1.0,0.24760100000048624
962,25,0.5,1.0,-35.0,-1,1.0,0.17430100000001403
963,25,0.5,0.25,35.0,1,1.0,0.13440100000070743
964,25,0.5,0.0625,35.0,1,1.0,0.14450100000021848
965,25,0.5,0.0625,35.0,1,1.0,0.14450100000021848
966,25,0.5,0.25,35.0,1,1.0,0.14470100000016828
967,25,0.5,0.125,35.0,1,1.0,0.1512009999996735
968,25,0.5,0.0625,-35.0,-1,1.0,1.1682009999999536
969,25,0.5,0.25,-35.0,1,0.0,0.15150100000028033
970,25,0.7,0.25,-35.0,-1,1.0,0.3348009999999704
971,25,0.5,1.0,-35.0,-1,1.0,0.18150100000048042
972,25,0.5,0.0,-35.0,1,0.0,0.15830099999993763
973,25,0.5,0.0,-35.0,1,0.0,0.15180099999997765
974,25,0.5,0.25,35.0,1,1.0,0.12500100000033854
975,25,0.5,0.0625,35.0,1,1.0,0.1419010000004164
976,25,0.5,0.125,-35.0,-1,1.0,0.23190100000010716
977,25,0.5,0.0,35.0,1,1.0,0.1920010000003458
978,25,0.5,0.125,-35.0,1,0.0,0.1386010000001079
979,25,0.5,0.25,35.0,1,1.0,0.1520010000003822
980,25,0.5,0.0625,-35.0,1,0.0,0.21250099999997474
981,25,0.5,0.0,-35.0,1,0.0,0.15550100000018574
982,25,0.9,0.0,-35.0,1,0.0,0.15220099999987724
983,25,0.5,1.0,-35.0,-1,1.0,0.229001000000153
984,25,0.5,0.25,35.0,1,1.0,0.2325010000004113
985,25,0.5,0.25,-35.0,-1,1.0,0.2626010000003589
986,25,0.5,0.0625,35.0,1,1.0,0.4758010000005015
987,25,0.5,0.125,-35.0,1,0.0,0.12600100000008752
988,25,0.8,0.125,-35.0,-1,1.0,0.07610100000010789
989,25,0.5,1.0,-35.0,-1,1.0,0.19270099999994272
990,25,0.5,0.125,35.0,1,1.0,0.1727009999999609
991,25,0.5,0.125,-35.0,-1,1.0,0.26620099999991
992,25,0.5,0.0625,-35.0,-1,1.0,4.229601000000457
993,25,0.5,0.0,35.0,1,1.0,0.18640100000038728
994,25,0.5,0.0625,-35.0,1,0.0,0.11640100000022358
995,25,0.5,0.125,-35.0,-1,1.0,0.2765010000007351
996,25,0.5,0.0,35.0,-1,0.0,0.2798010000001341
997,25,0.4,0.0,35.0,1,1.0,0.1900010000003931
998,25,0.5,1.0,35.0,1,1.0,0.17340100000001257
999,25,0.5,0.0625,-35.0,1,0.0,0.4800010000003567
1000,25,0.5,0.0625,35.0,1,1.0,0.23350100000061502
1001,25,0.5,0.125,-35.0,-1,1.0,0.27040100000021994
1002,25,0.5,0.0,35.0,1,1.0,0.14710100000047532
1003,25,0.5,0.0625,35.0,1,1.0,0.1904010000002927
1004,25,0.5,0.25,35.0,1,1.0,0.17710099999976592
1005,25,0.5,0.0625,35.0,1,1.0,0.18060100000002421
1006,25,0.5,0.0625,35.0,1,1.0,0.22060100000044258
1007,25,0.5,0.0625,35.0,1,1.0,0.17070100000046295
1008,25,0.5,0.125,35.0,1,1.0,0.16400100000009843
1009,25,0.5,0.125,35.0,1,1.0,0.13410100000055536
1010,25,0.5,1.0,35.0,1,1.0,0.17740100000037273
1011,25,0.5,0.0625,35.0,-1,0.0,3.431101000000126
1012,25,0.5,0.125,-35.0,1,0.0,0.3111010000002352
1013,25,0.5,0.25,35.0,1,1.0,0.14440100000047096
1014,25,0.5,0.0,-35.0,1,0.0,0.1678010000005088
1015,25,0.5,0.0,-35.0,1,0.0,0.11120100000016464
1016,25,0.5,0.125,-35.0,-1,1.0,0.46820100000013554
1017,25,0.5,1.0,-35.0,-1,1.0,0.20460100000036618
1018,25,0.5,1.0,-35.0,-1,1.0,0.2549010000002454
1019,25,0.5,1.0,-35.0,-1,1.0,0.21480100000053426
1020,25,0.5,1.0,-35.0,-1,1.0,0.26490100000000893
1021,25,0.5,0.0625,-35.0,-1,1.0,0.4549010000000635
1022,25,0.5,0.125,35.0,1,1.0,0.16170099999999366
1023,25,0.5,1.0,35.0,1,1.0,0.16500000000041837
1024,25,0.5,0.0625,-35.0,-1,1.0,3.0917010000007394
1025,25,0.5,0.25,35.0,1,1.0,0.18180100000017774
1026,25,0.5,0.125,-35.0,-1,1.0,0.45210099999985687
1027,25,0.5,0.25,35.0,1,1.0,0.16540100000020175
1028,25,0.5,0.125,-35.0,1,0.0,0.2187010000002374
1029,25,0.5,0.125,35.0,1,1.0,0.11550100000022212
1030,25,0.5,0.125,-35.0,1,0.0,0.2088010000002214
1031,25,0.5,0.125,-35.0,-1,1.0,0.29550100000051316
1032,25,0.5,0.0625,35.0,-1,0.0,4.9955009999998765
1033,25,0.6,0.0625,-35.0,1,0.0,0.18590099999983067
1034,25,0.5,1.0,-35.0,-1,1.0,0.20260100000041348
1035,25,0.5,0.125,35.0,1,1.0,0.17940100000032544
1036,25,0.5,0.125,35.0,1,1.0,0.1626009999999951
1037,25,0.5,1.0,-35.0,-1,1.0,0.23260099999970407
1038,25,0.5,0.0,35.0,1,1.0,0.21960100000023886
1039,25,0.5,1.0,-35.0,-1,1.0,0.02610099999992599
1040,25,0.5,0.0,-35.0,-1,1.0,0.43300100000033126
1041,25,0.5,0.0625,-35.0,1,0.0,0.18970100000024104
1042,25,0.5,0.0,35.0,-1,0.0,0.22970100000020466
1043,25,0.5,0.25,-35.0,-1,1.0,0.2897010000001501
1044,25,0.5,0.125,35.0,-1,0.0,0.18310100000007878
1045,25,0.5,0.0625,-35.0,1,0.0,0.18660099999988233
1046,25,0.5,0.0625,-35.0,-1,1.0,0.8434010000005401
1047,25,0.5,0.125,-35.0,-1,1.0,0.4935009999999238
1048,25,0.5,0.25,-35.0,-1,1.0,0.2535010000001421
1049,25,0.5,0.0,35.0,1,1.0,0.19390100000009625
1050,25,0.5,1.0,-35.0,-1,1.0,0.22370100000034654
1051,25,0.5,1.0,35.0,1,1.0,0.2404010000004746
1052,25,0.5,0.0625,-35.0,-1,1.0,3.6239010000003873
1053,25,0.5,0.0625,35.0,1,1.0,0.29400100000020757
1054,25,0.5,0.125,-35.0,-1,1.0,0.3340010000001712
1055,25,0.5,0.0625,-35.0,-1,1.0,0.39410099999986414
1056,25,0.5,1.0,-35.0,-1,1.0,0.20750100000032035
1057,25,0.5,1.0,-35.0,-1,1.0,0.21410100000002785
1058,25,0.5,0.125,-35.0,-1,1.0,0.29750099999955637
1059,25,0.5,0.0625,-35.0,-1,1.0,0.21770100000003367
1060,25,0.5,1.0,-35.0,-1,1.0,0.19110100000034436
1061,25,0.5,0.125,-35.0,-1,1.0,0.26450100000010934
1062,25,0.5,1.0,35.0,1,1.0,0.1544010000002345
1063,25,0.5,0.25,35.0,1,1.0,0.19110100000034436
1064,25,0.5,0.125,35.0,1,1.0,0.1981010000004062
1065,25,0.5,0.125,35.0,1,1.0,0.14460100000042075
1066,25,0.5,0.0625,-35.0,-1,1.0,0.30460100000027523
1067,25,0.5,1.0,35.0,1,1.0,0.16460099999994782
1068,25,0.5,1.0,35.0,1,1.0,0.1681010000002061
1069,25,0.5,0.0625,-35.0,-1,1.0,0.32150099999989834
1070,25,0.5,0.125,35.0,1,1.0,0.17140100000005987
1071,25,0.5,0.25,-35.0,-1,1.0,0.46490099999982704
1072,25,0.5,0.0625,35.0,1,1.0,0.11490100000037273
1073,25,0.5,0.25,-35.0,-1,1.0,0.2618010000005597
1074,25,0.5,1.0,-35.0,1,0.0,0.11840100000017628
1075,25,0.6,1.0,-35.0,-1,1.0,0.21840100000054008
1076,25,0.5,1.0,-35.0,-1,1.0,0.19850099999985105
1077,25,0.5,0.0625,35.0,1,1.0,0.2786010000004353
1078,25,0.5,0.125,35.0,1,1.0,0.10530100000005405
1079,25,0.5,1.0,-35.0,-1,1.0,0.38540100000000166
1080,25,0.5,0.25,35.0,1,1.0,0.1121010000001661
1081,25,0.5,0.0625,-35.0,1,0.0,0.1420010000001639
1082,25,0.5,0.0625,35.0,1,1.0,0.18880100000023958
1083,25,0.5,0.25,-35.0,-1,1.0,0.17890100000022358
1084,25,0.5,0.125,35.0,1,1.0,0.16230099999984304
1085,25,0.5,0.25,35.0,1,1.0,0.16230099999984304
1086,25,0.5,1.0,-35.0,-1,1.0,0.2690010000001166
1087,25,0.5,0.0,-35.0,1,0.0,0.1659010000003036
1088,25,0.7,0.0,-35.0,1,0.0,0.1325010000000475
1089,25,0.5,1.0,-35.0,1,0.0,0.1496010000005299
1090,25,0.5,0.125,35.0,1,1.0,0.25260100000014063
1091,25,0.5,0.0625,-35.0,1,0.0,0.4227009999999609
1092,25,0.5,0.125,35.0,1,1.0,0.15960100000029342
1093,25,0.5,0.0,35.0,1,1.0,0.15280100000018138
1094,25,0.5,1.0,-35.0,-1,1.0,0.19960100000025705
1095,25,0.5,0.125,35.0,1,1.0,0.16310100000009697
1096,25,0.5,1.0,-35.0,-1,1.0,0.21290100000032908
1097,25,0.5,0.125,35.0,1,1.0,0.12970099999984086
1098,25,0.5,1.0,-35.0,-1,1.0,0.2165010000003349
1099,25,0.5,0.125,-35.0,-1,1.0,0.23310100000026068
1100,25,0.5,0.25,-35.0,-1,1.0,0.23010100000010425
1101,25,0.5,0.0625,-35.0,1,0.0,0.2599009999998998
1102,25,0.5,0.25,-35.0,-1,1.0,0.3735010000004877
1103,25,0.5,0.0625,-35.0,-1,1.0,0.5934010000000853
1104,25,0.5,0.0625,-35.0,-1,1.0,0.2069010000000162
1105,25,0.5,0.0625,-35.0,-1,1.0,0.20360100000016246
1106,25,0.5,0.0625,35.0,1,1.0,0.23040100000025632
1107,25,0.5,0.25,35.0,1,1.0,0.16050100000074963
1108,25,0.5,0.0625,35.0,1,1.0,0.14700100000027305
1109,25,0.5,0.25,-35.0,1,0.0,0.17720100000042294
1110,25,0.5,0.125,35.0,1,1.0,0.14390099999991435
1111,25,0.5,1.0,-35.0,-1,1.0,0.19060099999978775
1112,25,0.5,0.125,35.0,1,1.0,0.2409010000001217
1113,25,0.5,1.0,35.0,1,1.0,0.18740100000013626
1114,25,0.5,1.0,35.0,1,1.0,0.09100100000023303
1115,25,0.5,1.0,-35.0,-1,1.0,0.2143010000004324
1116,25,0.5,1.0,-35.0,-1,1.0,0.20760100000006787
1117,25,0.5,0.25,35.0,1,1.0,0.1843010000002323
1118,25,0.5,0.0625,-35.0,1,0.0,1.9944009999999253
1119,25,0.5,0.0625,-35.0,-1,1.0,0.26440099999990707
1120,25,0.5,0.0625,-35.0,1,0.0,0.23440100000016173
1121,25,0.6,0.0625,-35.0,1,0.0,0.15120100000012826
1122,25,0.5,1.0,35.0,1,1.0,0.218101000000388
1123,25,0.5,0.25,35.0,1,1.0,0.1814010000007329
1124,25,0.5,1.0,35.0,1,1.0,0.15810100000044258
1125,25,0.5,0.0625,-35.0,1,0.0,0.1582010000001901
1126,25,0.5,0.125,-35.0,-1,1.0,0.20160100000020975
1127,25,0.5,1.0,35.0,1,1.0,0.16500100000030216
1128,25,0.5,0.25,-35.0,-1,1.0,0.1750010000000657
1129,25,0.5,1.0,-35.0,-1,1.0,0.2216010000006463
1130,25,0.5,1.0,35.0,1,1.0,0.18530100000043603
1131,25,0.5,1.0,-35.0,-1,1.0,0.19840100000010352
1132,25,0.5,1.0,35.0,1,1.0,0.22530100000039965
1133,25,0.5,1.0,35.0,1,1.0,0.1353009999997994
1134,25,0.5,0.0,35.0,-1,0.0,0.08190100000047096
1135,25,0.5,0.25,-35.0,-1,1.0,0.23540100000036546
1136,25,0.5,0.0625,35.0,-1,0.0,0.34200100000043676
1137,25,0.5,0.0625,-35.0,-1,1.0,0.5154010000001108
1138,25,0.5,0.0625,35.0,-1,0.0,0.1088009999998576
1139,25,0.5,0.0625,35.0,1,1.0,0.1889009999999871
1140,25,0.5,0.25,35.0,1,1.0,0.17890100000022358
1141,25,0.5,0.25,-35.0,-1,1.0,0.17590100000006714
1142,25,0.5,0.25,-35.0,-1,1.0,0.21570100000008097
1143,25,0.5,0.25,-35.0,-1,1.0,0.1959010000005037
1144,25,0.5,0.0625,-35.0,-1,1.0,0.2658010000000104
1145,25,0.5,0.125,-35.0,-1,1.0,0.1860010000004877
1146,25,0.5,0.125,-35.0,-1,1.0,0.4659010000004855
1147,25,0.5,0.0625,-35.0,-1,1.0,0.202701000000161
1148,25,0.5,1.0,35.0,1,1.0,0.1661010000002534
1149,25,0.5,0.0,-35.0,1,0.0,0.2128010000001268
1150,25,0.5,0.125,-35.0,-1,1.0,0.3162010000000919
1151,25,0.5,0.125,35.0,1,1.0,0.26960100000042075
1152,25,0.5,0.25,35.0,1,1.0,0.182901000000129
1153,25,0.5,1.0,35.0,1,1.0,0.186301000000185
1154,25,0.5,0.0625,35.0,1,1.0,0.13960099999985687
1155,25,0.5,0.25,35.0,1,1.0,0.15650099999993472
1156,25,0.5,0.125,-35.0,-1,1.0,0.2798010000001341
1157,25,0.5,1.0,35.0,1,1.0,0.1899009999997361
1158,25,0.5,0.125,35.0,1,1.0,0.12660100000039165
1159,25,0.5,0.125,-35.0,-1,1.0,0.2367010000002665
1160,25,0.5,1.0,35.0,1,1.0,0.1533009999998285
1161,25,0.5,0.125,-35.0,-1,1.0,0.673301000000265
1162,25,0.5,0.125,35.0,1,1.0,0.18020100000057937
1163,25,0.5,0.25,35.0,1,1.0,0.18350100000043312
1164,25,0.5,0.0625,-35.0,-1,1.0,0.38690100000030725
1165,25,0.5,0.25,35.0,1,1.0,0.1738010000003669
1166,25,0.5,0.125,35.0,1,1.0,0.18360100000018065
1167,25,0.5,0.0625,-35.0,-1,1.0,0.48720100000036837
1168,25,0.5,1.0,35.0,1,1.0,0.1805010000002767
1169,25,0.5,0.0625,-35.0,1,0.0,0.3238010000000031
1170,25,0.5,0.25,-35.0,-1,1.0,0.2909010000003036
1171,25,0.5,1.0,35.0,1,1.0,0.2306010000002061
1172,25,0.5,0.25,35.0,1,1.0,0.2541010000004462
1173,25,0.5,0.125,-35.0,-1,1.0,0.4673010000001341
1174,25,0.5,0.125,35.0,1,1.0,0.08410100000037346
1175,25,0.5,0.0625,35.0,1,1.0,0.25760100000024977
1176,25,0.5,0.0625,35.0,-1,0.0,0.5210010000000693
1177,25,0.5,0.25,-35.0,-1,1.0,0.33760099999972226
1178,25,0.5,1.0,35.0,1,1.0,0.19780100000025413
1179,25,0.5,0.125,-35.0,-1,1.0,0.28770099999974263
1180,25,0.5,1.0,35.0,1,1.0,0.18780100000003586
1181,25,0.5,1.0,35.0,1,1.0,0.15780100000029051
1182,25,0.5,1.0,-35.0,-1,1.0,0.2612010000002556
1183,25,0.5,0.125,35.0,1,1.0,0.1681010000002061
1184,25,0.5,0.0625,-35.0,1,0.0,0.15140100000007806
1185,25,0.5,0.25,35.0,1,1.0,0.19470100000035018
1186,25,0.5,0.25,-35.0,-1,1.0,0.27480100000002494
1187,25,0.5,1.0,35.0,1,1.0,0.1615010000004986
1188,25,0.5,0.25,-35.0,-1,1.0,0.3583010000006652
1189,25,0.5,0.0,-35.0,-1,1.0,3.7583009999998467
1190,25,0.5,0.0625,35.0,1,1.0,0.13510100000030434
1191,25,0.5,0.0625,-35.0,-1,1.0,3.0685010000001967
1192,25,0.5,0.125,35.0,1,1.0,0.12850100000014208
1193,25,0.5,1.0,35.0,1,1.0,0.14540100000021994
1194,25,0.5,0.125,35.0,1,1.0,0.482401000000209
1195,25,0.5,0.0625,35.0,1,1.0,0.30880100000013044
1196,25,0.5,0.0625,35.0,1,1.0,6.138801000000512
1197,25,0.5,0.0625,-35.0,-1,1.0,0.5192010000000664
1198,25,0.5,1.0,-35.0,-1,1.0,0.2124010000002272
1199,25,0.5,1.0,-35.0,-1,1.0,0.34920099999999366
1200,25,0.5,0.0625,-35.0,1,0.0,1.4228010000001632
1201,25,0.5,0.125,-35.0,-1,1.0,0.0595010000001821
1202,25,0.5,1.0,-35.0,-1,1.0,0.20610100000021703
1203,25,0.5,0.0625,-35.0,-1,1.0,1.912901000000602
1204,25,0.5,0.25,-35.0,-1,1.0,7.529601000000184
1205,25,0.5,0.0,35.0,-1,0.0,0.20980099999997037
1206,25,0.5,0.0625,35.0,1,1.0,0.19310100000029706
1207,25,0.5,1.0,-35.0,-1,1.0,1.6899010000001908
1208,25,0.5,1.0,35.0,1,1.0,0.1768010000000686
1209,25,0.5,1.0,-35.0,-1,1.0,0.20670100000006641
1210,25,0.5,1.0,-35.0,-1,1.0,0.24350100000037855
1211,25,0.5,1.0,35.0,1,1.0,0.19690099999979793
1212,25,0.5,0.0,35.0,-1,0.0,5.103701000000456
1213,25,0.5,0.25,35.0,1,1.0,0.19700100000045495
1214,25,0.5,0.125,-35.0,-1,1.0,0.2839010000006965
1215,25,0.5,0.0625,35.0,-1,0.0,3.7640010000000075
1216,25,0.5,0.0,-35.0,1,0.0,0.1507010000000264
1217,25,0.5,0.125,35.0,-1,0.0,0.05410100000017337
1218,25,0.4,0.125,35.0,1,1.0,0.16420100000004823
1219,25,0.5,1.0,-35.0,-1,1.0,0.22100099999988743
1220,25,0.5,0.25,35.0,1,1.0,0.25110099999983504
1221,25,0.5,0.25,35.0,1,1.0,0.16800100000000384
1222,25,0.5,0.25,-35.0,-1,1.0,0.29450100000030943
1223,25,0.5,0.25,-35.0,1,0.0,0.16130100000009406
1224,25,0.5,0.125,35.0,1,1.0,0.20810100000016973
1225,25,0.5,0.125,35.0,1,1.0,0.25790100000040184
1226,25,0.5,0.0,-35.0,1,0.0,0.1847010000001319
1227,25,0.5,0.0625,-35.0,1,0.0,0.37820100000044476
1228,25,0.5,0.125,-35.0,-1,1.0,0.21820100000059028
1229,25,0.5,0.0,-35.0,-1,1.0,0.1950010000000475
1230,25,0.5,0.0,35.0,1,1.0,0.5552010000005794
1231,25,0.5,0.25,35.0,1,1.0,0.20840099999986705
1232,25,0.5,0.25,-35.0,-1,1.0,0.268401000000722
1233,25,0.5,0.0625,-35.0,-1,1.0,0.3018010000000686
1234,25,0.5,0.25,-35.0,-1,1.0,0.22540100000060193
1235,25,0.5,0.0625,-35.0,-1,1.0,0.2986010000004171
1236,25,0.5,0.25,-35.0,-1,1.0,0.5986010000001443
1237,25,0.5,0.0625,35.0,1,1.0,0.248801000000185
1238,25,0.5,0.25,-35.0,-1,1.0,0.2189010000001872
1239,25,0.5,0.25,-35.0,-1,1.0,0.36870100000032835
1240,25,0.5,0.125,-35.0,-1,1.0,0.395701000000372
1241,25,0.5,0.25,-35.0,-1,1.0,0.17890099999976883
1242,25,0.5,0.0,-35.0,-1,1.0,4.459001000000171
1243,25,0.5,0.0625,-35.0,-1,1.0,0.3094010000004346
1244,25,0.5,1.0,-35.0,-1,1.0,0.21250100000042949
1245,25,0.5,0.0,-35.0,-1,1.0,0.3094010000004346
1246,25,0.5,1.0,35.0,1,1.0,0.20600100000001476
1247,25,0.5,0.25,-35.0,-1,1.0,0.22950100000025486
1248,25,0.5,0.25,35.0,1,1.0,0.2529010000002927
1249,25,0.5,0.125,-35.0,-1,1.0,0.3028010000002723
1250,25,0.5,0.0625,-35.0,-1,1.0,0.442801000000145
1251,25,0.5,1.0,35.0,1,1.0,0.166501000000153
1252,25,0.5,0.0,35.0,-1,0.0,0.4697009999999864
1253,25,0.3,0.0,35.0,-1,0.0,3.1466009999999187
1254,25,0.5,1.0,-35.0,-1,1.0,0.20990100000017264
1255,25,0.5,0.0625,35.0,1,1.0,0.24000100000012026
1256,25,0.5,0.125,35.0,1,1.0,0.2768010000004324
1257,25,0.5,0.125,-35.0,-1,1.0,0.22010099999988597
1258,25,0.5,0.125,35.0,1,1.0,0.19010100000014063
1259,25,0.5,0.125,-35.0,-1,1.0,0.26350100000036036
1260,25,0.5,0.125,-35.0,-1,1.0,0.24030100000072707
1261,25,0.5,0.125,35.0,1,1.0,0.1770010000000184
1262,25,0.5,0.0,35.0,1,1.0,0.19380100000034872
1263,25,0.5,0.25,35.0,1,1.0,0.19050100000004022
1264,25,0.5,0.0625,-35.0,-1,1.0,0.2971010000001115
1265,25,0.5,0.0625,-35.0,1,0.0,0.12380100000018501
1266,25,0.6,0.0625,35.0,1,1.0,0.3006010000003698
1267,25,0.5,1.0,-35.0,-1,1.0,0.2239009999998416
1268,25,0.5,0.25,35.0,1,1.0,0.187300999999934
1269,25,0.5,0.125,35.0,1,1.0,0.1909009999999398
1270,25,0.5,0.25,35.0,1,1.0,0.184001000000535
1271,25,0.5,0.0625,35.0,1,1.0,0.17100099999970553
1272,25,0.5,0.0,35.0,1,1.0,0.1279010000002927
1273,25,0.5,0.0625,35.0,1,1.0,0.18420100000048478
1274,25,0.5,0.25,35.0,1,1.0,0.19430099999999584
1275,25,0.5,0.25,35.0,1,1.0,0.14100099999996019
1276,25,0.5,0.0625,35.0,1,1.0,0.09110099999998056
1277,25,0.5,0.25,-35.0,1,0.0,0.09110099999998056
1278,25,0.5,0.25,35.0,1,1.0,0.2112010000000737
1279,25,0.5,0.25,35.0,1,1.0,0.1281010000002425
1280,25,0.5,0.125,35.0,1,1.0,0.15470100000038656
1281,25,0.5,0.25,35.0,1,1.0,0.1246009999999842
1282,25,0.5,0.25,35.0,1,1.0,0.12470100000018647
1283,25,0.5,1.0,-35.0,-1,1.0,0.22490100000004531
1284,25,0.5,0.125,35.0,1,1.0,0.13480100000060702
1285,25,0.5,0.0,-35.0,1,0.0,0.10490100000015445
1286,25,0.9,0.0,-35.0,-1,1.0,0.2617009999999027
1287,25,0.5,1.0,-35.0,-1,1.0,0.19170100000019374
1288,25,0.5,0.0625,-35.0,1,0.0,0.18840100000034
1289,25,0.5,0.125,35.0,1,1.0,0.19530100000019956
1290,25,0.5,0.0625,35.0,1,1.0,0.22870100000000093
1291,25,0.5,0.125,-35.0,-1,1.0,0.4688009999999849
1292,25,0.5,0.0625,35.0,1,1.0,0.23200100000030943
1293,25,0.5,0.0,-35.0,1,0.0,0.15870099999983722
1294,25,0.7,0.0,35.0,-1,0.0,0.3055010000002767
1295,25,0.5,1.0,-35.0,-1,1.0,0.2056010000005699
1296,25,0.5,1.0,35.0,1,1.0,0.19560100000035163
1297,25,0.5,0.0625,35.0,1,1.0,0.19570100000009916
1298,25,0.5,0.25,35.0,1,1.0,0.15940100000034363
1299,25,0.5,0.125,35.0,1,1.0,0.21250100000042949
1300,25,0.5,0.125,35.0,1,1.0,0.17250100000001112
1301,25,0.5,1.0,35.0,1,1.0,0.1527009999999791
1302,25,0.5,0.0625,-35.0,-1,1.0,0.31590100000039456
1303,25,0.5,0.125,-35.0,-1,1.0,0.4360010000004877
1304,25,0.5,1.0,-35.0,-1,1.0,0.2395010000000184
1305,25,0.5,0.0625,-35.0,-1,1.0,0.4828010000001086
1306,25,0.5,0.25,-35.0,-1,1.0,0.24960100000043894
1307,25,0.5,0.25,-35.0,-1,1.0,0.22960100000045713
1308,25,0.5,0.0,35.0,-1,0.0,2.959701000000223
1309,25,0.3,0.0,35.0,-1,0.0,3.936601000000337
1310,25,0.5,1.0,35.0,1,1.0,0.1132010000005721
1311,25,0.5,0.125,35.0,1,1.0,0.15000100000042949
1312,25,0.5,0.0625,35.0,1,1.0,0.30670099999997547
1313,25,0.5,1.0,35.0,1,1.0,0.07010100000024977
1314,25,0.5,0.25,-35.0,-1,1.0,0.43360100000018065
1315,25,0.5,0.125,-35.0,-1,1.0,0.2937010000000555
1316,25,0.5,0.0,35.0,1,1.0,0.19070100000044476
1317,25,0.5,0.125,-35.0,1,0.0,0.17370100000016464
1318,25,0.5,0.125,35.0,1,1.0,0.20050099999980375
1319,25,0.5,1.0,-35.0,-1,1.0,0.2439010000007329
1320,25,0.5,0.125,35.0,1,1.0,0.18390100000033271
1321,25,0.5,0.25,35.0,1,1.0,0.1606010000000424
1322,25,0.5,0.125,35.0,1,1.0,0.14400100000057137
1323,25,0.5,0.25,-35.0,-1,1.0,0.24400100000002567
1324,25,0.5,0.25,-35.0,1,0.0,0.18080100000042876
1325,25,0.5,0.125,-35.0,1,0.0,0.4141010000003007
1326,25,0.5,0.125,-35.0,-1,1.0,0.7375010000005204
1327,25,0.5,0.125,35.0,1,1.0,1.2809009999991758
1328,25,0.5,0.0625,-35.0,-1,1.0,0.397900999999365
1329,25,0.5,1.0,35.0,1,1.0,0.15110100000038074
1330,25,0.5,0.0625,35.0,1,1.0,0.19120099999963713
1331,25,0.5,0.0625,35.0,1,1.0,0.01120100000025559
1332,25,0.5,0.0625,35.0,1,1.0,0.18460099999902013
1333,25,0.5,0.0625,-35.0,-1,1.0,0.3346010000004753
1334,25,0.5,0.25,35.0,1,1.0,0.17140100000051461
1335,25,0.5,0.0,35.0,1,1.0,0.288101000000097
1336,25,0.5,0.25,35.0,1,1.0,0.15810099999907834
1337,25,0.5,1.0,-35.0,-1,1.0,0.291400999999496
1338,25,0.5,0.0,35.0,1,1.0,0.16820100000040838
1339,25,0.5,0.0,35.0,1,1.0,0.4182010000004084
1340,25,0.5,0.0625,-35.0,-1,1.0,0.39180099999975937
1341,25,0.5,0.125,35.0,1,1.0,0.1652009999997972
1342,25,0.5,0.25,-35.0,-1,1.0,0.2851009999994858
1343,25,0.5,0.125,35.0,1,1.0,0.27530099999967206
1344,25,0.5,0.0,35.0,1,1.0,0.22520100000019738
1345,25,0.5,0.0625,-35.0,-1,1.0,0.41200100000060047
1346,25,0.5,0.125,-35.0,-1,1.0,0.028800999999475607
1347,25,0.5,0.125,35.0,1,1.0,0.28560099999958766
1348,25,0.5,1.0,-35.0,-1,1.0,0.2321009999996022
1349,25,0.5,1.0,-35.0,-1,1.0,0.2454009999992195
1350,25,0.5,0.0625,-35.0,-1,1.0,0.2222009999995862
1351,25,0.5,0.125,35.0,1,1.0,0.14560099999926024
1352,25,0.5,1.0,-35.0,-1,1.0,0.23230100000000675
1353,25,0.5,0.125,-35.0,1,0.0,0.28570099999978993
1354,25,0.5,0.0,35.0,-1,0.0,0.35910099999910017
1355,25,0.5,0.0,35.0,1,1.0,0.17940100000032544
1356,25,0.5,1.0,-35.0,-1,1.0,0.2193010000000868
1357,25,0.5,0.0625,35.0,1,1.0,0.3759009999994305
1358,25,0.5,0.25,35.0,1,1.0,0.17270000000007713
1359,25,0.5,0.125,35.0,1,1.0,0.18960100000003877
1360,25,0.5,1.0,-35.0,-1,1.0,0.2795009999990725
1361,25,0.5,0.25,-35.0,-1,1.0,0.35950100000081875
1362,25,0.5,0.0625,35.0,1,1.0,0.2563009999994392
1363,25,0.5,0.25,35.0,1,1.0,0.23310099999980594
1364,25,0.5,0.0625,35.0,1,1.0,0.20300099999894883
1365,25,0.5,0.125,-35.0,-1,1.0,0.23630099999900267
1366,25,0.5,1.0,35.0,1,1.0,0.20660099999986414
1367,25,0.5,0.125,35.0,1,1.0,0.18310099999962404
1368,25,0.5,0.125,-35.0,-1,1.0,0.6265010000006441
1369,25,0.5,0.25,35.0,1,1.0,0.2299009999996997
1370,25,0.5,0.0,-35.0,1,0.0,0.1766009999992093
1371,25,0.7,0.0,35.0,-1,0.0,3.2033009999995556
1372,25,0.5,1.0,-35.0,-1,1.0,0.2270009999992908
1373,25,0.5,0.125,-35.0,-1,1.0,0.17690099999890663
1374,25,0.5,0.125,35.0,1,1.0,0.25700099999994563
1375,25,0.5,0.125,-35.0,1,0.0,0.3471010000002934
1376,25,0.5,0.0625,-35.0,1,0.0,0.26070099999924423
1377,25,0.5,0.0625,35.0,1,1.0,0.16380099999969389
1378,25,0.5,1.0,35.0,1,1.0,0.16060099999958766
1379,25,0.5,0.25,-35.0,-1,1.0,2.6240009999992253
1380,25,0.5,0.125,35.0,1,1.0,0.4042010000002847
1381,25,0.5,0.0,-35.0,1,0.0,17.944100999999137
1382,25,0.5,0.25,-35.0,-1,1.0,13.691401000000042
1383,25,0.5,0.25,-35.0,-1,1.0,4.375101000000541
1384,25,0.5,0.25,-35.0,-1,1.0,0.24510100000043167
1385,25,0.5,0.125,35.0,1,1.0,0.30210099999931117
1386,25,0.5,1.0,-35.0,-1,1.0,0.24220100000002276
1387,25,0.5,0.25,35.0,1,1.0,0.27200099999936356
1388,25,0.5,0.0625,35.0,1,1.0,0.15550100000018574
1389,25,0.5,1.0,-35.0,-1,1.0,0.24560100000053353
1390,25,0.5,1.0,35.0,1,1.0,0.18560100000013335
1391,25,0.5,0.0625,-35.0,-1,1.0,13.895500999999967
1392,25,0.5,0.0,35.0,1,1.0,0.38930099999925005
1393,25,0.5,0.0625,35.0,1,1.0,0.1994009999998525
1394,25,0.5,0.125,-35.0,-1,1.0,0.22610100000019884
1395,25,0.5,0.25,35.0,1,1.0,0.24270099999921513
1396,25,0.5,0.125,35.0,1,1.0,0.2594009999993432
1397,25,0.5,0.25,35.0,1,1.0,0.19950100000005477
1398,25,0.5,0.0,35.0,1,1.0,0.4995010000002367
1399,25,0.5,0.25,-35.0,-1,1.0,0.2697010000001683
1400,25,0.5,0.0,35.0,-1,0.0,2.976300999999694
1401,25,0.6,0.0,-35.0,1,0.0,5.90650099999948
1402,25,0.5,1.0,35.0,1,1.0,0.3001009999998132
1403,25,0.5,1.0,35.0,1,1.0,0.18330099999911909
1404,25,0.5,0.125,35.0,1,1.0,0.22350100000039674
1405,25,0.5,1.0,35.0,1,1.0,0.17020099999899685
1406,25,0.5,1.0,-35.0,-1,1.0,0.4303009999994174
1407,25,0.5,0.25,-35.0,-1,1.0,0.1968010000000504
1408,25,0.5,0.25,-35.0,-1,1.0,0.546900999999707
1409,25,0.5,0.0,-35.0,-1,1.0,0.24370099999941885
1410,25,0.5,0.0,-35.0,1,0.0,0.6339010000001508
1411,25,0.6,0.0,-35.0,-1,1.0,0.5671009999996386
1412,25,0.5,1.0,35.0,1,1.0,0.23380100000031234
1413,25,0.5,0.0,-35.0,-1,1.0,0.21400099999937083
1414,25,0.5,0.0625,-35.0,1,0.0,8.690600999999333
1415,25,0.5,0.125,-35.0,-1,1.0,3.464200999998866
1416,25,0.5,0.125,35.0,1,1.0,0.6340009999994436
1417,25,0.5,0.0625,-35.0,-1,1.0,0.7606009999999515
1418,25,0.5,0.25,-35.0,-1,1.0,10.923900999999205
1419,25,0.5,0.125,35.0,1,1.0,0.28740100000050006
1420,25,0.5,0.0,35.0,-1,0.0,3.1078010000001086
1421,25,0.5,0.0625,-35.0,1,0.0,0.2314010000000053
1422,25,0.5,0.25,35.0,1,1.0,0.24420099999952072
1423,25,0.5,1.0,35.0,1,1.0,0.1715009999998074
1424,25,0.5,0.0625,35.0,1,1.0,0.31130099999973027
1425,25,0.5,1.0,35.0,1,1.0,0.1211010000006354
1426,25,0.5,1.0,-35.0,-1,1.0,0.48860100000001694
1427,25,0.5,0.0625,-35.0,1,0.0,0.2483010000005379
1428,25,0.5,0.25,35.0,1,1.0,8.634800999999243
1429,25,0.5,0.125,-35.0,-1,1.0,6.0614009999999325
1430,25,0.5,0.25,35.0,1,1.0,0.265201000000161
1431,25,0.5,0.25,35.0,1,1.0,0.22170099999948434
1432,25,0.5,1.0,-35.0,-1,1.0,0.2961009999999078
1433,25,0.5,0.0,-35.0,-1,1.0,4.292601000000104
1434,25,0.5,1.0,35.0,1,1.0,0.22570100000029925
1435,25,0.5,0.0625,35.0,-1,0.0,11.52560099999937
1436,25,0.5,0.25,-35.0,-1,1.0,0.3858009999994465
1437,25,0.5,0.0,35.0,-1,0.0,0.2858009999999922
1438,25,0.5,0.0,-35.0,-1,1.0,26.94930099999965
1439,25,0.5,1.0,35.0,1,1.0,0.20700099999976374
1440,25,0.5,1.0,-35.0,-1,1.0,0.22090099999968515
1441,25,0.5,0.125,35.0,1,1.0,0.13020099999994272
1442,25,0.5,0.0625,35.0,1,1.0,0.2700009999998656
1443,25,0.5,0.25,-35.0,-1,1.0,0.24010099999941303
1444,25,0.5,0.0625,-35.0,-1,1.0,0.49010100000032253
1445,25,0.5,0.125,35.0,1,1.0,0.19770100000005186
1446,25,0.5,0.0625,35.0,1,1.0,0.2770009999994727
1447,25,0.5,1.0,-35.0,-1,1.0,0.2508010000001377
1448,25,0.5,0.0,-35.0,1,0.0,0.20400100000006205
1449,25,0.5,0.0625,35.0,1,1.0,0.41390099999898666
1450,25,0.5,0.0,35.0,-1,0.0,0.47790099999929225
1451,25,0.5,0.25,35.0,1,1.0,0.14410099999986414
1452,25,0.5,0.25,-35.0,-1,1.0,0.4611009999998714
1453,25,0.5,0.125,35.0,1,1.0,0.19410100000004604
1454,25,0.5,0.25,35.0,1,1.0,0.283900999999787
1455,25,0.5,0.0625,35.0,1,1.0,0.16070099999978993
1456,25,0.5,1.0,-35.0,-1,1.0,0.3175010000004477
1457,25,0.5,0.125,-35.0,-1,1.0,7.931201000000328
1458,25,0.5,0.25,35.0,1,1.0,0.24120099999981903
1459,25,0.5,1.0,35.0,1,1.0,0.15100100000017846
1460,25,0.5,1.0,35.0,1,1.0,0.16430099999979575
1461,25,0.5,0.0,-35.0,1,0.0,0.3517009999995935
1462,25,0.7,0.0,-35.0,1,0.0,0.20810100000016973
1463,25,0.5,1.0,-35.0,-1,1.0,0.2413010000000213
1464,25,0.5,1.0,35.0,1,1.0,0.24220100000002276
1465,25,0.5,0.125,-35.0,-1,1.0,0.16810099999929662
1466,25,0.5,0.125,35.0,1,1.0,0.18940099999963422
1467,25,0.5,0.0625,35.0,1,1.0,0.29150099999969825
1468,25,0.5,0.125,-35.0,-1,1.0,0.31620100000054663
1469,25,0.5,1.0,-35.0,-1,1.0,0.2689009999994596
1470,25,0.5,0.125,35.0,1,1.0,0.22170099999948434
1471,25,0.5,0.25,-35.0,-1,1.0,0.24230099999931554
1472,25,0.5,0.125,35.0,1,1.0,0.2123009999986607
1473,25,0.5,0.25,-35.0,-1,1.0,0.24530099999992672
1474,25,0.5,0.0625,-35.0,-1,1.0,0.38230099999964295
1475,25,0.5,0.125,35.0,1,1.0,0.21940099999937956
1476,25,0.5,0.25,35.0,1,1.0,0.20560099999966042
1477,25,0.5,0.125,-35.0,-1,1.0,0.22240099999999074
1478,25,0.5,1.0,35.0,1,1.0,0.15580100000079256
1479,25,0.5,1.0,-35.0,-1,1.0,0.2824010000003909
1480,25,0.5,0.0,35.0,-1,0.0,0.6662010000000009
1481,25,0.5,0.0625,-35.0,-1,1.0,2.502400999999736
1482,25,0.5,0.25,-35.0,-1,1.0,0.22250099999928352
1483,25,0.5,1.0,35.0,1,1.0,0.21950099999958184
1484,25,0.5,0.125,-35.0,-1,1.0,0.26980099999946106
1485,25,0.5,1.0,35.0,1,1.0,0.1696009999996022
1486,25,0.5,0.0625,35.0,1,1.0,0.213701000000583
1487,25,0.5,0.25,-35.0,-1,1.0,0.2266009999993912
