trial_num,session_num,stim_probability_left,contrast,position,response_choice,trial_correct,reaction_time
1,1,0.5,1.0,-35.0,-1,1.0,0.24689999999999968
2,1,0.5,0.0,35.0,-1,0.0,0.3745000000000003
3,1,0.5,0.0625,35.0,-1,0.0,0.6631
4,1,0.5,0.0,-35.0,-1,1.0,2.2676999999999996
5,1,0.5,0.0,-35.0,-1,1.0,0.21170000000000044
6,1,0.5,0.25,-35.0,-1,1.0,2.9278000000000013
7,1,0.5,0.125,-35.0,-1,1.0,0.3003
8,1,0.5,0.25,35.0,-1,0.0,1.1002999999999972
9,1,0.5,1.0,35.0,1,1.0,0.25610000000000355
10,1,0.5,0.125,-35.0,-1,1.0,0.27430000000000376
11,1,0.5,0.0,-35.0,-1,1.0,1.9333000000000027
12,1,0.5,1.0,35.0,1,1.0,0.30280000000000484
13,1,0.5,0.0,35.0,-1,0.0,0.955600000000004
14,1,0.5,0.0,35.0,-1,0.0,0.2954000000000079
15,1,0.5,1.0,35.0,1,1.0,0.17320000000000135
16,1,0.5,0.25,-35.0,-1,1.0,0.1811000000000007
17,1,0.5,0.0625,-35.0,-1,1.0,3.4050999999999902
18,1,0.5,0.0625,35.0,-1,0.0,0.2913000000000068
19,1,0.5,0.0,35.0,-1,0.0,0.17150000000000887
20,1,0.5,1.0,35.0,1,1.0,0.2657999999999987
21,1,0.5,0.0625,-35.0,-1,1.0,0.4824000000000126
22,1,0.5,1.0,35.0,1,1.0,0.245900000000006
23,1,0.5,0.0625,35.0,1,1.0,0.3410999999999973
24,1,0.5,0.125,-35.0,-1,1.0,0.2956999999999965
25,1,0.5,0.125,-35.0,-1,1.0,0.5150000000000006
26,1,0.5,0.125,35.0,-1,0.0,3.6851999999999947
27,1,0.5,0.125,-35.0,-1,1.0,0.26309999999999434
28,1,0.5,0.0625,-35.0,-1,1.0,0.4802999999999997
29,1,0.5,0.125,-35.0,-1,1.0,0.3603999999999985
30,1,0.5,1.0,-35.0,-1,1.0,0.22920000000000584
31,1,0.5,1.0,35.0,1,1.0,0.2073000000000036
32,1,0.5,0.0,-35.0,-1,1.0,4.6297
33,1,0.5,0.125,-35.0,-1,1.0,0.33430000000001314
34,1,0.5,0.25,-35.0,-1,1.0,3.538800000000009
35,1,0.5,0.125,35.0,1,1.0,0.30279999999999063
36,1,0.5,0.0,-35.0,-1,1.0,0.2817000000000007
37,1,0.5,0.25,35.0,-1,0.0,0.35550000000000637
38,1,0.5,0.25,-35.0,-1,1.0,0.2640999999999849
39,1,0.5,0.125,-35.0,-1,1.0,0.4218999999999937
40,1,0.5,0.125,35.0,1,1.0,1.3173999999999921
41,1,0.5,0.0,35.0,-1,0.0,7.77170000000001
42,1,0.5,0.25,35.0,1,1.0,0.3316999999999837
43,1,0.5,0.0,-35.0,-1,1.0,0.32569999999998345
44,1,0.5,1.0,35.0,1,1.0,0.3126000000000033
45,1,0.5,0.0625,-35.0,-1,1.0,0.6306999999999903
46,1,0.5,0.25,-35.0,-1,1.0,0.35490000000001487
47,1,0.5,0.25,35.0,1,1.0,0.24799999999999045
48,1,0.5,0.125,-35.0,-1,1.0,0.2855999999999881
49,1,0.5,0.125,35.0,1,1.0,0.29889999999997485
50,1,0.5,0.125,35.0,-1,0.0,0.23390000000003397
51,1,0.5,1.0,35.0,1,1.0,0.35660000000001446
52,1,0.5,0.0625,-35.0,-1,1.0,0.3089999999999975
53,1,0.5,0.0,-35.0,1,0.0,5.314400000000006
54,1,0.5,0.0,-35.0,1,0.0,2.18810000000002
55,1,0.5,0.25,35.0,1,1.0,0.2826000000000022
56,1,0.5,0.25,35.0,1,1.0,0.2787999999999897
57,1,0.5,0.25,-35.0,-1,1.0,0.4099999999999966
58,1,0.5,0.0625,35.0,-1,0.0,1.704499999999996
59,1,0.5,0.125,-35.0,-1,1.0,0.26730000000000587
60,1,0.5,0.25,-35.0,-1,1.0,0.2790999999999997
61,1,0.5,0.125,-35.0,-1,1.0,0.2656000000000063
62,1,0.5,0.0,-35.0,-1,1.0,0.26830000000001064
63,1,0.5,0.0,35.0,-1,0.0,2.2801000000000045
64,1,0.5,0.0,-35.0,-1,1.0,1.7762999999999636
65,1,0.5,1.0,35.0,1,1.0,0.23129999999997608
66,1,0.5,0.125,-35.0,-1,1.0,0.3007999999999811
67,1,0.5,1.0,35.0,1,1.0,0.24129999999996699
68,1,0.5,1.0,35.0,1,1.0,0.25970000000000937
69,1,0.5,0.0,35.0,-1,0.0,0.9011999999999603
70,1,0.5,1.0,35.0,1,1.0,0.2592999999999961
71,1,0.5,1.0,-35.0,-1,1.0,0.27409999999991896
72,1,0.5,0.0,-35.0,1,0.0,2.6849999999999454
73,1,0.5,0.25,-35.0,-1,1.0,0.5715999999999894
74,1,0.5,0.25,-35.0,-1,1.0,0.35389999999995325
75,1,0.5,1.0,35.0,1,1.0,0.24329999999997654
76,1,0.5,1.0,-35.0,-1,1.0,0.3036000000000172
77,1,0.5,0.0625,-35.0,-1,1.0,0.4585999999999899
78,1,0.5,0.25,-35.0,-1,1.0,0.29529999999999745
79,1,0.5,0.125,35.0,1,1.0,0.2886999999999489
80,1,0.5,0.125,35.0,1,1.0,0.3466999999999416
81,1,0.5,0.0625,-35.0,-1,1.0,0.29509999999993397
82,1,0.5,0.0625,35.0,1,1.0,0.29879999999997153
83,1,0.5,1.0,35.0,1,1.0,0.5542999999999552
84,1,0.5,0.125,-35.0,1,0.0,2.7572999999999865
85,1,0.5,0.0625,-35.0,1,0.0,4.728899999999953
86,1,0.5,0.0,35.0,1,1.0,7.316199999999981
87,1,0.5,0.0625,-35.0,-1,1.0,0.38379999999995107
88,1,0.5,0.25,35.0,1,1.0,1.7194999999999823
89,1,0.5,1.0,-35.0,-1,1.0,0.33299999999991314
90,1,0.5,0.25,35.0,1,1.0,0.2571999999999548
91,1,0.8,0.0625,-35.0,-1,1.0,0.29909999999995307
92,1,0.8,0.125,-35.0,-1,1.0,0.3540999999999599
93,1,0.8,0.0625,-35.0,-1,1.0,0.4032999999999447
94,1,0.8,0.0,-35.0,-1,1.0,7.166100000000029
95,1,0.8,0.125,-35.0,-1,1.0,0.228999999999985
96,1,0.8,0.25,35.0,1,1.0,0.244199999999978
97,1,0.8,0.0625,-35.0,-1,1.0,0.3312999999999988
98,1,0.8,0.0625,-35.0,-1,1.0,0.32829999999995607
99,1,0.8,0.0,-35.0,1,0.0,2.744399999999928
100,1,0.8,0.0625,-35.0,-1,1.0,0.20909999999997808
101,1,0.8,0.125,-35.0,-1,1.0,1.2432999999999765
102,1,0.8,0.125,-35.0,-1,1.0,0.2576999999999998
103,1,0.8,0.0,-35.0,-1,1.0,7.003899999999987
104,1,0.8,0.0625,-35.0,-1,1.0,3.7035999999999945
105,1,0.8,0.0,-35.0,-1,1.0,0.3137999999999579
106,1,0.8,0.0,-35.0,1,0.0,2.5504999999999995
107,1,0.8,0.25,-35.0,-1,1.0,0.29749999999989996
108,1,0.8,1.0,-35.0,-1,1.0,0.945699999999988
109,1,0.8,0.0625,-35.0,-1,1.0,0.26639999999991915
110,1,0.8,1.0,35.0,1,1.0,0.289799999999957
111,1,0.8,0.0625,-35.0,-1,1.0,0.33780000000001564
112,1,0.8,0.0,-35.0,-1,1.0,5.455199999999991
113,1,0.8,1.0,-35.0,-1,1.0,0.2665999999999258
114,1,0.8,0.125,-35.0,-1,1.0,0.3029000000000224
115,1,0.8,1.0,-35.0,-1,1.0,0.24579999999997426
116,1,0.8,0.25,-35.0,-1,1.0,0.3710999999999558
117,1,0.8,0.0625,-35.0,-1,1.0,0.3351000000000113
118,1,0.2,1.0,-35.0,-1,1.0,0.627399999999966
119,1,0.2,0.125,35.0,-1,0.0,1.9011999999999603
120,1,0.2,0.25,35.0,1,1.0,0.25739999999996144
121,1,0.2,0.0,35.0,-1,0.0,0.2747999999999706
122,1,0.2,0.0625,-35.0,-1,1.0,0.11169999999998481
123,1,0.2,0.125,35.0,1,1.0,0.5194000000000187
124,1,0.2,0.0,35.0,1,1.0,8.557299999999941
125,1,0.2,0.0,35.0,1,1.0,5.619200000000092
126,1,0.2,0.0,35.0,-1,0.0,0.2857000000000198
127,1,0.2,0.0625,-35.0,-1,1.0,0.31490000000007967
128,1,0.2,0.0,-35.0,1,0.0,0.5258000000001175
129,1,0.2,1.0,35.0,1,1.0,0.2599999999999909
130,1,0.2,0.0,35.0,1,1.0,2.591299999999933
131,1,0.2,0.0,35.0,1,1.0,1.540399999999977
132,1,0.2,0.25,35.0,1,1.0,0.23019999999996799
133,1,0.2,0.125,35.0,1,1.0,1.9405000000000427
134,1,0.2,0.0,35.0,1,1.0,0.24100000000009913
135,1,0.2,0.0625,35.0,1,1.0,0.5682000000000471
136,1,0.2,0.25,35.0,1,1.0,0.384900000000016
137,1,0.2,0.25,-35.0,-1,1.0,0.46410000000014406
138,1,0.2,1.0,-35.0,-1,1.0,0.20669999999995525
139,1,0.2,0.25,35.0,1,1.0,0.25530000000003383
140,1,0.2,1.0,35.0,1,1.0,0.2581000000000131
141,1,0.8,0.0625,-35.0,-1,1.0,0.40580000000011296
142,1,0.8,0.125,-35.0,-1,1.0,0.3102000000000089
143,1,0.8,0.0,-35.0,-1,1.0,0.36160000000006676
144,1,0.8,0.25,-35.0,-1,1.0,0.2280999999999267
145,1,0.8,0.0625,-35.0,-1,1.0,0.3382000000000289
146,1,0.8,0.25,35.0,1,1.0,0.2965000000000373
147,1,0.8,1.0,-35.0,-1,1.0,0.2623999999999569
148,1,0.8,0.25,-35.0,-1,1.0,0.44640000000003965
149,1,0.8,0.125,35.0,1,1.0,3.6825000000000045
150,1,0.8,1.0,-35.0,-1,1.0,0.2866999999998825
151,1,0.8,0.0,35.0,1,1.0,2.170400000000086
152,1,0.8,0.25,-35.0,-1,1.0,0.23110000000008313
153,1,0.8,0.25,-35.0,-1,1.0,0.2825000000000273
154,1,0.8,0.125,-35.0,-1,1.0,0.28489999999999327
155,1,0.8,0.0,-35.0,1,0.0,1.884900000000016
156,1,0.8,0.25,-35.0,-1,1.0,0.3247000000001208
157,1,0.8,0.0,35.0,-1,0.0,3.757400000000075
158,1,0.8,1.0,-35.0,1,0.0,0.09800000000007003
159,1,0.8,0.0625,-35.0,-1,1.0,0.250699999999938
160,1,0.8,0.0625,-35.0,-1,1.0,0.23710000000005493
161,1,0.8,0.25,-35.0,-1,1.0,0.629500000000121
162,1,0.8,0.0,-35.0,-1,1.0,3.179899999999975
163,1,0.8,0.25,-35.0,-1,1.0,0.38599999999996726
164,1,0.8,0.125,-35.0,1,0.0,0.3569000000001097
165,1,0.8,1.0,35.0,1,1.0,0.34550000000001546
166,1,0.8,0.125,35.0,1,1.0,0.27899999999999636
167,1,0.8,1.0,35.0,1,1.0,0.32540000000005875
168,1,0.8,0.0625,-35.0,-1,1.0,0.3986000000001013
169,1,0.8,0.25,35.0,1,1.0,0.34340000000008786
170,1,0.8,0.0625,-35.0,-1,1.0,0.536200000000008
171,1,0.8,0.25,-35.0,-1,1.0,0.28159999999991214
172,1,0.8,0.25,35.0,1,1.0,0.5885000000000673
173,1,0.8,0.0625,-35.0,-1,1.0,0.6387000000000853
174,1,0.8,0.125,-35.0,-1,1.0,0.32159999999998945
175,1,0.8,1.0,-35.0,-1,1.0,0.3109000000000606
176,1,0.8,0.0625,35.0,1,1.0,2.024099999999976
177,1,0.8,1.0,-35.0,-1,1.0,0.24129900000002635
178,1,0.2,0.0,35.0,-1,0.0,2.0792000000000144
179,1,0.2,0.0,35.0,-1,0.0,0.27549999999996544
180,1,0.2,0.0,35.0,-1,0.0,0.23260000000004766
181,1,0.2,0.0,35.0,1,1.0,1.4040999999999713
182,1,0.2,0.0625,35.0,1,1.0,0.2601000000000795
183,1,0.2,0.0625,35.0,1,1.0,0.3705999999999676
184,1,0.2,0.25,35.0,1,1.0,0.662900000000036
185,1,0.2,0.125,-35.0,-1,1.0,4.864000000000033
186,1,0.2,1.0,-35.0,1,0.0,0.09380000000010114
187,1,0.2,0.25,35.0,1,1.0,0.31960000000003674
188,1,0.2,0.0625,-35.0,-1,1.0,0.3427000000000362
189,1,0.2,1.0,35.0,1,1.0,0.23699999999996635
190,1,0.2,0.0625,35.0,1,1.0,0.2979000000000269
191,1,0.2,0.0,35.0,1,1.0,3.0469000000000506
192,1,0.2,0.0625,35.0,1,1.0,0.34569999999996526
193,1,0.2,0.125,35.0,1,1.0,0.37940000000014606
194,1,0.2,0.0,-35.0,1,0.0,7.414000000000101
195,1,0.2,0.25,35.0,1,1.0,0.376700000000028
196,1,0.2,0.125,35.0,1,1.0,0.33720000000005257
197,1,0.2,0.0,35.0,-1,0.0,6.198300000000131
198,1,0.2,0.125,35.0,1,1.0,2.184600000000046
199,1,0.2,0.125,-35.0,-1,1.0,0.26730000000009113
200,1,0.2,0.25,35.0,1,1.0,2.370800000000031
201,1,0.2,0.0,35.0,1,1.0,0.16150000000004638
202,1,0.2,0.0625,35.0,-1,0.0,0.3664999999999736
203,1,0.2,0.125,35.0,1,1.0,0.38630000000000564
204,1,0.2,1.0,-35.0,-1,1.0,0.2767000000000053
205,1,0.2,0.0,35.0,1,1.0,8.910300000000007
206,1,0.2,0.0,35.0,-1,0.0,0.5332999999999402
207,1,0.2,0.0625,35.0,1,1.0,0.32000000000005
208,1,0.2,1.0,-35.0,-1,1.0,0.3352999999999611
209,1,0.2,0.0,35.0,1,1.0,2.6615000000000464
210,1,0.2,0.0,35.0,-1,0.0,0.3793000000000575
211,1,0.2,0.125,35.0,1,1.0,0.3421000000000731
212,1,0.2,1.0,35.0,1,1.0,0.3048999999999751
213,1,0.2,0.125,35.0,1,1.0,0.4359000000000606
214,1,0.2,0.125,35.0,1,1.0,0.273900000000026
215,1,0.2,0.125,35.0,1,1.0,0.2640999999999849
216,1,0.2,0.25,35.0,1,1.0,0.3022000000000844
217,1,0.2,1.0,35.0,1,1.0,0.2644000000000233
218,1,0.2,0.0,35.0,1,1.0,4.626100000000065
219,1,0.2,1.0,-35.0,-1,1.0,0.28530000000000655
220,1,0.2,0.0625,-35.0,-1,1.0,2.96670000000006
221,1,0.2,0.0,-35.0,-1,1.0,0.29150000000004184
222,1,0.2,1.0,35.0,1,1.0,0.2481000000000222
223,1,0.2,0.0,35.0,-1,0.0,0.31959999999992306
224,1,0.2,0.125,35.0,1,1.0,0.248299999999972
225,1,0.2,0.0,35.0,-1,0.0,0.2339000000000624
226,1,0.2,1.0,35.0,1,1.0,0.26700000000005275
227,1,0.2,0.0625,35.0,1,1.0,1.0143000000000484
228,1,0.2,1.0,35.0,1,1.0,0.29690000000005057
229,1,0.2,0.0,35.0,-1,0.0,0.7664000000000897
230,1,0.2,0.25,35.0,1,1.0,0.08300000000008367
231,1,0.2,1.0,35.0,1,1.0,0.24040000000002237
232,1,0.2,0.25,35.0,1,1.0,0.37239999999997053
233,1,0.2,0.0,35.0,-1,0.0,5.187800000000038
234,1,0.2,1.0,35.0,1,1.0,0.3967000000001235
235,1,0.2,0.0625,35.0,1,1.0,0.3327000000000453
236,1,0.2,0.25,35.0,1,1.0,0.27910000000008495
237,1,0.2,1.0,35.0,1,1.0,0.23500000000001364
238,1,0.2,0.0,35.0,1,1.0,2.550700000000006
239,1,0.2,0.0,35.0,1,1.0,0.29309999999998126
240,1,0.2,0.125,35.0,1,1.0,0.787900000000036
241,1,0.2,0.125,35.0,1,1.0,0.24610000000006949
242,1,0.2,0.0625,35.0,1,1.0,3.9388999999999896
243,1,0.2,0.25,-35.0,-1,1.0,0.2869999999999209
244,1,0.2,0.25,35.0,1,1.0,0.36999999999989086
245,1,0.2,0.25,-35.0,-1,1.0,0.2498000000000502
246,1,0.2,1.0,35.0,1,1.0,0.2056990000000951
247,1,0.2,1.0,35.0,1,1.0,0.33330000000000837
248,1,0.2,0.125,35.0,1,1.0,0.7423999999999751
249,1,0.2,0.0625,-35.0,-1,1.0,0.3668999999999869
250,1,0.2,1.0,35.0,1,1.0,0.20929999999998472
251,1,0.2,0.0,35.0,1,1.0,5.370299999999929
252,1,0.2,0.0,-35.0,-1,1.0,0.389299999999821
253,1,0.2,0.125,35.0,1,1.0,0.23720000000002983
254,1,0.2,0.0625,35.0,1,1.0,0.26309999999989486
255,1,0.2,1.0,35.0,1,1.0,0.290599999999813
256,1,0.2,1.0,35.0,1,1.0,0.21309999999994034
257,1,0.2,0.0625,35.0,1,1.0,0.38419999999996435
258,1,0.2,0.0,35.0,1,1.0,2.259699999999839
259,1,0.2,0.25,-35.0,-1,1.0,0.30770000000006803
260,1,0.2,0.25,35.0,1,1.0,0.3109999999999218
261,1,0.2,0.125,-35.0,-1,1.0,0.28339999999980137
262,1,0.2,0.125,35.0,1,1.0,0.3244999999999436
263,1,0.2,1.0,35.0,1,1.0,0.4338000000000193
264,1,0.2,0.125,35.0,1,1.0,0.5011999999999261
265,1,0.2,0.0625,35.0,1,1.0,1.0102999999999156
266,1,0.2,1.0,35.0,1,1.0,0.24149999999985994
267,1,0.2,1.0,35.0,1,1.0,0.2704999999998563
268,1,0.2,0.125,35.0,1,1.0,0.9115999999999076
269,1,0.2,1.0,35.0,1,1.0,0.310799999999972
270,1,0.2,0.25,-35.0,-1,1.0,0.29829999999969914
271,1,0.8,0.25,-35.0,-1,1.0,0.34419999999977335
272,1,0.8,0.125,-35.0,-1,1.0,0.2985999999998512
273,1,0.8,0.0625,-35.0,-1,1.0,0.32759999999984757
274,1,0.8,0.125,-35.0,-1,1.0,0.1920999999997548
275,1,0.8,0.0625,-35.0,-1,1.0,0.4374999999997726
276,1,0.8,0.25,-35.0,-1,1.0,0.3954000000001088
277,1,0.8,0.25,35.0,1,1.0,0.2682999999999538
278,1,0.8,0.0625,-35.0,-1,1.0,0.4956999999999425
279,1,0.8,0.25,-35.0,-1,1.0,0.29140000000006694
280,1,0.8,1.0,-35.0,-1,1.0,0.3190999999999349
281,1,0.8,0.25,-35.0,-1,1.0,0.27800000000002
282,1,0.8,0.0,-35.0,-1,1.0,0.4092999999998028
283,1,0.8,1.0,-35.0,-1,1.0,0.11850000000004002
284,1,0.8,1.0,-35.0,-1,1.0,0.21949999999992542
285,1,0.8,1.0,-35.0,-1,1.0,0.2119999999997617
286,1,0.8,0.25,-35.0,-1,1.0,0.28619999999978063
287,1,0.8,0.0,-35.0,1,0.0,2.8621999999998025
288,1,0.8,0.0,-35.0,-1,1.0,0.31979999999998654
289,1,0.8,0.25,-35.0,-1,1.0,0.29529999999999745
290,1,0.8,0.25,-35.0,-1,1.0,0.2565999999997075
291,1,0.8,0.0,-35.0,-1,1.0,0.4556999999997515
292,1,0.8,0.0625,-35.0,-1,1.0,0.2866999999998825
293,1,0.8,0.0625,-35.0,-1,1.0,0.41249999999990905
294,1,0.8,0.0625,-35.0,-1,1.0,0.22929999999996653
295,1,0.8,0.0,-35.0,-1,1.0,0.3005000000000564
296,1,0.8,0.125,-35.0,-1,1.0,0.18929999999977554
297,1,0.8,1.0,-35.0,-1,1.0,0.29729999999995016
298,1,0.2,1.0,35.0,1,1.0,0.27329999999983556
299,1,0.2,0.125,35.0,1,1.0,0.280699999999797
300,1,0.2,1.0,35.0,1,1.0,0.21669999999994616
301,1,0.2,0.0625,-35.0,-1,1.0,0.30739999999991596
302,1,0.2,0.125,35.0,1,1.0,0.7134000000000924
303,1,0.2,0.0625,-35.0,-1,1.0,0.387599999999793
304,1,0.2,0.0625,-35.0,1,0.0,0.20029999999997017
305,1,0.2,0.125,35.0,1,1.0,0.3044999999997344
306,1,0.2,0.0,35.0,-1,0.0,0.360300000000052
307,1,0.2,1.0,35.0,1,1.0,0.39459999999985484
308,1,0.2,0.25,35.0,1,1.0,0.3470999999997275
309,1,0.2,0.0625,-35.0,-1,1.0,0.6614999999999327
310,1,0.2,0.0625,-35.0,-1,1.0,0.33059999999977663
311,1,0.2,1.0,35.0,1,1.0,0.5182999999999538
312,1,0.2,1.0,-35.0,-1,1.0,0.20100000000002183
313,1,0.2,0.125,-35.0,-1,1.0,0.25530000000003383
314,1,0.2,1.0,35.0,1,1.0,0.31770000000005894
315,1,0.2,0.0625,35.0,-1,0.0,0.26880000000005566
316,1,0.2,0.0,-35.0,-1,1.0,0.2646989999998368
317,1,0.2,0.0625,35.0,-1,0.0,0.2322999999998956
318,1,0.2,1.0,35.0,1,1.0,0.26169999999979154
319,1,0.2,1.0,35.0,1,1.0,0.23569999999995161
320,1,0.2,0.25,35.0,1,1.0,0.2579999999998108
321,1,0.2,1.0,-35.0,-1,1.0,0.23250000000007276
322,1,0.2,0.0625,35.0,1,1.0,0.48469999999997526
323,1,0.2,1.0,35.0,1,1.0,0.32590000000004693
324,1,0.2,0.0625,35.0,-1,0.0,0.9248999999999796
325,1,0.8,0.25,-35.0,-1,1.0,0.19280000000003383
326,1,0.8,0.0625,35.0,1,1.0,0.2621999999998934
327,1,0.8,0.125,-35.0,-1,1.0,0.3263999999999214
328,1,0.8,0.125,-35.0,-1,1.0,0.5088999999998123
329,1,0.8,0.0625,-35.0,-1,1.0,0.45319999999992433
330,1,0.8,0.0,-35.0,-1,1.0,0.3854999999998654
331,1,0.8,0.0,-35.0,-1,1.0,0.24999999999977263
332,1,0.8,0.0,35.0,-1,0.0,2.9725999999998294
333,1,0.8,0.125,35.0,1,1.0,0.2802000000001499
334,1,0.8,0.25,-35.0,-1,1.0,0.22640000000001237
335,1,0.8,0.0,-35.0,-1,1.0,0.48369999999977153
336,1,0.8,1.0,-35.0,-1,1.0,0.22270000000003165
337,1,0.8,0.0625,35.0,1,1.0,0.27710000000001855
338,1,0.8,0.0625,-35.0,-1,1.0,0.4464999999997872
339,1,0.8,0.25,35.0,1,1.0,0.37409999999999854
340,1,0.8,1.0,35.0,1,1.0,0.6565999999997985
341,1,0.8,0.125,-35.0,-1,1.0,0.5040999999998803
342,1,0.8,0.0625,-35.0,-1,1.0,0.8733999999999469
343,1,0.8,0.25,-35.0,-1,1.0,0.22759999999993852
344,1,0.8,0.125,35.0,1,1.0,0.3569999999999709
345,1,0.8,0.0,-35.0,1,0.0,4.934500000000071
346,1,0.8,0.0625,-35.0,-1,1.0,0.22739999999976135
347,1,0.8,0.0625,35.0,1,1.0,0.38799999999991996
348,1,0.8,0.125,-35.0,-1,1.0,0.30709999999999127
349,1,0.8,0.25,-35.0,-1,1.0,0.30819999999971515
350,1,0.8,0.125,-35.0,-1,1.0,0.41409999999996217
351,1,0.8,0.0,-35.0,-1,1.0,0.36179999999990287
352,1,0.8,0.0,-35.0,-1,1.0,0.2613000000001193
353,1,0.8,1.0,-35.0,-1,1.0,0.30520000000001346
354,1,0.8,1.0,-35.0,-1,1.0,0.21459999999979118
355,1,0.8,0.25,-35.0,-1,1.0,0.2719999999999345
356,1,0.8,0.0625,-35.0,-1,1.0,0.3007999999999811
357,1,0.8,0.0,-35.0,1,0.0,2.0920999999998457
358,1,0.8,1.0,-35.0,-1,1.0,0.1979999999998654
359,1,0.8,0.125,-35.0,-1,1.0,0.29569999999989705
360,1,0.8,0.25,-35.0,-1,1.0,0.1249000000000251
361,1,0.8,0.125,-35.0,-1,1.0,0.2217000000000553
362,1,0.8,0.0,-35.0,-1,1.0,0.2559999999998581
363,1,0.8,1.0,-35.0,-1,1.0,0.578899999999976
364,1,0.8,0.25,-35.0,-1,1.0,0.2727999999999611
365,1,0.8,0.25,-35.0,-1,1.0,0.2320999999999458
366,1,0.8,0.125,35.0,-1,0.0,0.2262999999998101
367,1,0.8,1.0,35.0,1,1.0,0.21899999999982356
368,1,0.8,0.25,-35.0,-1,1.0,0.2863999999999578
369,1,0.8,0.25,-35.0,-1,1.0,0.241800000000012
370,1,0.8,0.125,-35.0,-1,1.0,0.24649999999996908
371,1,0.8,0.25,35.0,1,1.0,0.29929999999990287
372,1,0.8,1.0,-35.0,-1,1.0,0.2500999999997475
373,1,0.8,0.0,-35.0,-1,1.0,0.26919999999995525
374,1,0.8,0.0625,35.0,-1,0.0,0.2037000000000262
375,1,0.8,0.25,-35.0,-1,1.0,0.28599999999983083
376,1,0.8,0.0,-35.0,1,0.0,3.7472999999999956
377,1,0.8,1.0,35.0,1,1.0,0.35940000000005057
378,1,0.8,0.0625,-35.0,-1,1.0,0.3839999999997872
379,1,0.8,0.0,-35.0,-1,1.0,0.34029999999984284
380,1,0.8,0.0625,-35.0,-1,1.0,0.36419999999998254
381,1,0.8,0.25,-35.0,-1,1.0,0.3369000000000142
382,1,0.8,0.125,35.0,1,1.0,0.3044999999999618
383,1,0.8,0.0,-35.0,-1,1.0,0.3103000000000975
384,1,0.8,0.125,35.0,1,1.0,0.9512999999999465
385,1,0.8,0.0,-35.0,-1,1.0,0.2675000000001546
386,1,0.8,0.125,-35.0,-1,1.0,0.3446999999998752
387,1,0.2,0.0,35.0,-1,0.0,0.2703999999998814
388,1,0.2,0.25,35.0,1,1.0,0.2580999999997857
389,1,0.2,1.0,35.0,1,1.0,0.24729999999999563
390,1,0.2,0.25,35.0,1,1.0,0.36169999999992797
391,1,0.2,0.0625,35.0,1,1.0,0.3209999999999127
392,1,0.2,0.25,-35.0,-1,1.0,0.31189999999969586
393,1,0.2,0.0,35.0,-1,0.0,6.014699999999721
394,1,0.2,1.0,-35.0,-1,1.0,0.19879999999989195
395,1,0.2,0.0625,35.0,-1,0.0,0.3046999999999116
396,1,0.2,0.125,35.0,1,1.0,0.3389999999999418
397,1,0.2,1.0,-35.0,-1,1.0,0.2845999999999549
398,1,0.2,0.0,-35.0,-1,1.0,0.28919999999993706
399,1,0.2,0.0625,35.0,1,1.0,2.5218999999999596
400,1,0.2,0.0625,35.0,1,1.0,0.30599999999981264
401,1,0.2,0.0,35.0,-1,0.0,0.25510000000008404
402,1,0.2,0.25,35.0,1,1.0,0.2460999999998421
403,1,0.2,0.0625,35.0,1,1.0,3.688699999999926
404,1,0.2,0.25,35.0,1,1.0,0.33629900000005364
405,1,0.2,0.0,35.0,-1,0.0,2.731999999999971
406,1,0.2,1.0,35.0,1,1.0,0.2598000000000411
407,1,0.2,0.0,35.0,-1,0.0,6.279199999999946
408,1,0.2,1.0,35.0,1,1.0,0.2801999999999225
409,1,0.2,0.0,35.0,1,1.0,1.229399999999714
410,1,0.2,1.0,35.0,1,1.0,0.28369999999995343
411,1,0.2,0.25,-35.0,-1,1.0,0.23949999999990723
412,1,0.2,0.125,35.0,-1,0.0,2.6237999999998465
413,1,0.2,0.25,35.0,1,1.0,0.3062999999999647
414,1,0.2,1.0,35.0,1,1.0,0.34410000000002583
415,1,0.2,0.0625,35.0,1,1.0,2.986499999999978
416,1,0.2,0.25,-35.0,-1,1.0,0.2842000000000553
417,1,0.2,0.125,35.0,1,1.0,0.25349999999980355
418,1,0.2,1.0,35.0,1,1.0,0.381099999999833
419,1,0.2,0.0625,35.0,1,1.0,6.693199999999933
420,1,0.2,0.0625,35.0,1,1.0,2.0378999999998086
421,1,0.2,0.0,35.0,-1,0.0,2.683799999999792
422,1,0.2,1.0,35.0,1,1.0,0.2281999999997879
423,1,0.2,1.0,35.0,1,1.0,0.22749999999996362
424,1,0.2,0.0,-35.0,1,0.0,2.1784999999999854
425,1,0.2,1.0,35.0,1,1.0,0.2743000000000393
426,1,0.2,0.0,-35.0,1,0.0,6.6285999999997784
427,1,0.2,0.0625,35.0,1,1.0,0.248299999999972
428,1,0.2,0.25,35.0,1,1.0,0.4089999999998781
429,1,0.2,0.125,35.0,1,1.0,1.4278999999999087
430,1,0.2,0.0,-35.0,1,0.0,0.5324000000000524
431,1,0.2,0.125,35.0,1,1.0,0.8717999999998938
432,1,0.2,1.0,35.0,1,1.0,0.3290999999999258
433,1,0.8,0.0625,35.0,1,1.0,4.445199999999886
434,1,0.8,0.25,-35.0,-1,1.0,0.569400000000087
435,1,0.8,0.25,35.0,1,1.0,0.23199999999974352
436,1,0.8,0.25,35.0,1,1.0,0.2828999999999269
437,1,0.8,0.0625,35.0,-1,0.0,0.6319999999998345
438,1,0.8,0.0625,35.0,1,1.0,1.8062999999999647
439,1,0.8,0.25,35.0,1,1.0,0.3789999999999054
440,1,0.8,0.0,-35.0,-1,1.0,0.30989999999997053
441,1,0.8,0.125,-35.0,-1,1.0,0.4260999999999058
442,1,0.8,0.0625,-35.0,-1,1.0,0.33009999999990214
443,1,0.8,0.0625,-35.0,-1,1.0,0.4694999999999254
444,1,0.8,1.0,-35.0,-1,1.0,0.360300000000052
445,1,0.8,0.0,35.0,-1,0.0,0.26279999999997017
446,1,0.8,1.0,-35.0,-1,1.0,0.2102999999997337
447,1,0.8,0.0,-35.0,-1,1.0,0.28949999999986176
448,1,0.8,0.0625,-35.0,-1,1.0,1.8904999999999745
449,1,0.8,0.25,-35.0,-1,1.0,0.18309999999996762
450,1,0.8,1.0,-35.0,-1,1.0,0.2440999999998894
451,1,0.8,0.0,-35.0,-1,1.0,0.28999999999973625
452,1,0.8,0.0,-35.0,-1,1.0,1.5942999999999756
453,1,0.8,0.25,-35.0,-1,1.0,0.21679999999969368
454,1,0.8,0.25,35.0,1,1.0,0.9610999999999876
455,1,0.8,0.0,-35.0,-1,1.0,0.20720000000005712
456,1,0.8,1.0,-35.0,-1,1.0,0.24129999999991014
457,1,0.8,0.125,-35.0,-1,1.0,0.29719999999997526
458,1,0.8,1.0,-35.0,-1,1.0,0.22469999999998436
459,1,0.8,0.0,35.0,-1,0.0,0.3305000000000291
460,1,0.8,0.0625,-35.0,-1,1.0,0.251700000000028
461,1,0.8,0.25,-35.0,-1,1.0,0.3606999999999516
462,1,0.8,1.0,-35.0,-1,1.0,0.3872999999998683
463,1,0.8,0.0625,-35.0,-1,1.0,0.4984999999999218
464,1,0.8,1.0,-35.0,-1,1.0,0.23119999999994434
465,1,0.8,0.25,-35.0,-1,1.0,0.26870000000008076
466,1,0.8,0.25,-35.0,-1,1.0,0.11789999999996326
467,1,0.8,0.0,-35.0,-1,1.0,1.0712000000000899
468,1,0.8,1.0,35.0,1,1.0,0.25900000000001455
469,1,0.8,0.0,-35.0,-1,1.0,0.5180000000000291
470,1,0.8,0.125,-35.0,-1,1.0,0.4758999999999105
471,1,0.8,0.125,35.0,1,1.0,0.24519999999984066
472,1,0.8,0.0,-35.0,-1,1.0,0.2925999999997657
473,1,0.8,0.0,-35.0,-1,1.0,0.34809999999993124
474,1,0.8,0.0625,35.0,-1,0.0,0.246199999999817
475,1,0.8,1.0,-35.0,-1,1.0,0.28899999999998727
476,1,0.8,0.125,35.0,1,1.0,0.29959999999982756
477,1,0.8,0.125,-35.0,-1,1.0,0.3088000000000193
478,1,0.8,0.125,-35.0,-1,1.0,0.3430999999998221
479,1,0.8,0.125,-35.0,-1,1.0,0.24569999999994252
480,1,0.8,1.0,-35.0,-1,1.0,0.2364999999997508
481,1,0.8,0.0625,-35.0,-1,1.0,0.5427999999999429
482,1,0.8,0.125,-35.0,-1,1.0,0.21329999999989013
483,1,0.8,1.0,35.0,1,1.0,0.2625000000000455
484,1,0.8,0.25,-35.0,-1,1.0,0.28019999999969514
485,1,0.8,1.0,35.0,1,1.0,0.2494000000001506
486,1,0.8,0.25,35.0,1,1.0,0.34039999999981774
487,1,0.8,0.0625,-35.0,-1,1.0,0.7932000000000698
488,1,0.8,0.125,-35.0,-1,1.0,0.28379999999992833
489,1,0.8,0.0,-35.0,-1,1.0,0.6666000000000167
490,1,0.8,1.0,-35.0,-1,1.0,0.1273999999998523
491,1,0.2,0.125,35.0,1,1.0,0.26670000000012806
492,1,0.2,1.0,35.0,1,1.0,0.24759999999992033
493,1,0.2,1.0,-35.0,-1,1.0,0.310399999999845
494,1,0.2,1.0,35.0,1,1.0,0.24099999999998545
495,1,0.2,0.25,35.0,1,1.0,0.6571999999998752
496,1,0.2,0.0625,35.0,-1,0.0,0.1346000000000913
497,1,0.2,0.125,-35.0,-1,1.0,0.2480000000000473
498,1,0.2,0.25,35.0,1,1.0,0.27100000000018554
499,1,0.2,0.0625,35.0,1,1.0,2.728199999999788
500,1,0.2,0.25,35.0,1,1.0,0.3908999999998741
501,1,0.2,0.0625,35.0,-1,0.0,0.3049999999998363
502,1,0.2,1.0,35.0,1,1.0,0.3908999999998741
503,1,0.2,0.125,35.0,1,1.0,0.2718999999999596
504,1,0.2,0.0,35.0,1,1.0,7.141000000000076
505,1,0.2,0.125,-35.0,-1,1.0,0.27210000000059154
506,1,0.2,0.125,35.0,1,1.0,0.19889999999986685
507,1,0.2,0.0625,35.0,-1,0.0,0.30490000000008877
508,1,0.2,0.0,35.0,-1,0.0,0.30900000000019645
509,1,0.2,0.125,35.0,1,1.0,0.24830000000019936
510,1,0.2,0.0625,35.0,1,1.0,0.30600000000004
511,1,0.2,0.0625,-35.0,-1,1.0,2.1819000000000415
512,1,0.2,0.0,35.0,1,1.0,0.29270000000042273
513,1,0.2,0.25,-35.0,-1,1.0,0.6421000000000276
514,1,0.2,0.0,35.0,-1,0.0,0.25309999999990396
515,1,0.2,0.0,35.0,-1,0.0,0.2590999999997621
516,1,0.2,1.0,35.0,1,1.0,0.2567000000003645
517,1,0.2,1.0,-35.0,-1,1.0,0.3726000000001477
518,1,0.2,0.25,35.0,1,1.0,0.26350000000002183
519,1,0.2,1.0,35.0,1,1.0,0.23919999999998254
520,1,0.2,0.25,35.0,1,1.0,0.3836999999998625
521,1,0.2,0.0625,35.0,-1,0.0,0.18300000000044747
522,1,0.2,0.0625,-35.0,-1,1.0,0.13379900000063571
523,1,0.2,0.0,-35.0,-1,1.0,0.41970000000037544
524,1,0.2,1.0,35.0,1,1.0,0.27739999999994325
525,1,0.2,0.125,35.0,1,1.0,0.40650000000005093
526,1,0.2,0.25,35.0,1,1.0,0.3242000000000189
527,1,0.2,1.0,35.0,1,1.0,1.2570000000000618
528,1,0.2,0.125,-35.0,-1,1.0,0.34780000000000655
529,1,0.2,1.0,-35.0,-1,1.0,0.18389999999999418
530,1,0.2,0.25,-35.0,-1,1.0,0.2579999999998108
531,1,0.8,1.0,-35.0,-1,1.0,0.280699999999797
532,1,0.8,0.0625,-35.0,-1,1.0,0.2782000000001972
533,1,0.8,0.0,-35.0,-1,1.0,0.30720000000019354
534,1,0.8,1.0,-35.0,-1,1.0,0.22490000000016153
535,1,0.8,0.125,-35.0,-1,1.0,0.3540000000002692
536,1,0.8,0.125,-35.0,-1,1.0,0.6552000000001499
537,1,0.8,0.0625,-35.0,1,0.0,1.8373000000001412
538,1,0.8,0.125,-35.0,-1,1.0,0.22530000000006112
539,1,0.8,0.25,-35.0,-1,1.0,0.23810000000048603
540,1,0.8,0.0625,-35.0,-1,1.0,0.22880000000031941
541,1,0.8,0.0,-35.0,-1,1.0,0.2845999999999549
542,1,0.8,0.0,-35.0,1,0.0,1.712300000000596
543,1,0.8,1.0,-35.0,1,0.0,0.40510000000040236
544,1,0.8,0.0,-35.0,-1,1.0,1.4793000000004213
545,1,0.8,0.0625,-35.0,-1,1.0,0.6026999999999134
546,1,0.8,0.0,-35.0,-1,1.0,0.262000000000171
547,1,0.8,0.125,35.0,1,1.0,0.25620000000026266
548,1,0.8,0.125,35.0,-1,0.0,0.23900000000003274
549,1,0.8,0.0,-35.0,-1,1.0,0.3197000000004664
550,1,0.8,0.0,-35.0,-1,1.0,0.36560000000008586
551,1,0.8,0.0,35.0,-1,0.0,0.32320000000026994
552,1,0.8,1.0,-35.0,-1,1.0,0.38239999999996144
553,1,0.8,0.25,-35.0,-1,1.0,0.256600000000617
554,1,0.8,0.125,35.0,1,1.0,0.35920000000032815
555,1,0.8,0.0625,-35.0,-1,1.0,0.47020000000020445
556,1,0.8,1.0,-35.0,-1,1.0,0.32280000000037035
557,1,0.8,0.125,-35.0,-1,1.0,0.4236000000005333
558,1,0.8,0.0625,-35.0,-1,1.0,0.27280000000018845
559,1,0.8,0.0625,-35.0,-1,1.0,0.28389999999990323
560,1,0.8,1.0,35.0,1,1.0,0.29650000000037835
561,1,0.8,0.125,-35.0,-1,1.0,0.39730000000054133
562,1,0.8,1.0,35.0,1,1.0,0.2833000000005086
563,1,0.8,0.25,-35.0,-1,1.0,0.2575000000001637
564,1,0.8,0.0,-35.0,-1,1.0,0.2865999999999076
565,1,0.8,1.0,-35.0,-1,1.0,0.24790000000029977
566,1,0.8,0.25,-35.0,-1,1.0,0.30349999999998545
567,1,0.8,1.0,-35.0,-1,1.0,0.3577999999997701
568,1,0.8,0.0625,35.0,-1,0.0,0.33390000000008513
569,1,0.2,0.25,35.0,1,1.0,0.47810000000026776
570,1,0.2,0.25,35.0,1,1.0,0.22770000000036816
571,1,0.2,0.0,35.0,-1,0.0,0.21480000000019572
572,1,0.2,1.0,-35.0,-1,1.0,0.21109999999998763
573,1,0.2,0.125,35.0,-1,0.0,0.5050000000001091
574,1,0.2,0.125,35.0,1,1.0,0.26099999999996726
575,1,0.2,0.125,-35.0,-1,1.0,0.4719000000000051
576,1,0.2,0.25,35.0,1,1.0,0.2711999999996806
577,1,0.2,0.125,35.0,1,1.0,0.3021000000003369
578,1,0.2,0.25,35.0,1,1.0,0.2647999999999229
579,1,0.2,0.125,35.0,1,1.0,0.44219999999995707
580,1,0.2,0.0625,35.0,-1,0.0,1.0614000000000487
581,1,0.2,0.0,-35.0,1,0.0,0.2557000000001608
582,1,0.2,0.0625,35.0,1,1.0,0.15850000000000364
583,1,0.2,0.0,35.0,-1,0.0,0.24260000000003856
584,1,0.2,0.0,35.0,-1,0.0,0.2656000000001768
585,1,0.2,0.0,-35.0,-1,1.0,8.452699999999822
586,1,0.2,0.125,-35.0,-1,1.0,0.37540000000035434
587,1,0.2,1.0,-35.0,-1,1.0,0.45309999999972206
588,1,0.2,0.0625,35.0,1,1.0,0.33270000000038635
589,1,0.2,0.125,35.0,-1,0.0,0.3267000000000735
590,1,0.2,1.0,35.0,1,1.0,0.309099999999944
591,1,0.2,0.0,35.0,1,1.0,2.6335000000003674
592,1,0.2,1.0,-35.0,-1,1.0,0.6528999999995904
593,1,0.2,1.0,35.0,1,1.0,0.2603999999996631
594,1,0.2,0.0625,35.0,1,1.0,0.2962999999999738
595,1,0.2,1.0,35.0,1,1.0,0.2472000000002481
596,1,0.2,1.0,35.0,1,1.0,0.19320000000061555
597,1,0.2,1.0,35.0,1,1.0,0.2474000000001979
598,1,0.2,1.0,35.0,1,1.0,0.29290000000037253
599,1,0.2,0.0625,-35.0,-1,1.0,0.22089999999980137
600,1,0.2,0.125,-35.0,-1,1.0,0.4067000000000007
601,1,0.2,0.0625,35.0,-1,0.0,1.4909999999999854
602,1,0.2,0.25,-35.0,-1,1.0,0.32040000000051805
603,1,0.2,0.0,-35.0,1,0.0,0.7879000000002634
604,1,0.2,0.25,35.0,1,1.0,0.20060000000012224
605,1,0.2,0.25,-35.0,-1,1.0,0.33480000000054133
606,1,0.2,0.25,35.0,1,1.0,0.28070000000025175
607,1,0.2,0.0,-35.0,1,0.0,0.3182999999999083
608,1,0.2,1.0,35.0,1,1.0,0.22420000000010987
609,1,0.2,0.25,-35.0,-1,1.0,0.3117000000002008
610,1,0.2,0.25,35.0,1,1.0,0.35740000000032524
611,1,0.2,0.125,-35.0,-1,1.0,0.4286000000001877
612,1,0.2,1.0,35.0,1,1.0,0.3011999999998807
613,1,0.2,0.0625,35.0,-1,0.0,1.5621000000001004
614,1,0.2,0.0,35.0,1,1.0,2.484599999999773
615,1,0.2,0.0625,35.0,-1,0.0,0.5189000000000306
616,1,0.2,0.25,35.0,1,1.0,0.23489999999992506
617,1,0.2,0.0625,-35.0,-1,1.0,0.37249999999994543
618,1,0.2,0.125,-35.0,-1,1.0,0.3550000000000182
619,1,0.2,0.0625,-35.0,-1,1.0,0.28940000000011423
620,1,0.2,0.0625,35.0,1,1.0,0.33870000000024447
621,1,0.2,0.0625,35.0,1,1.0,3.7262000000000626
622,1,0.2,0.0,35.0,-1,0.0,0.4189000000001215
623,1,0.2,0.125,-35.0,-1,1.0,0.20650000000023283
624,1,0.2,0.0625,35.0,1,1.0,2.6556000000000495
625,1,0.2,1.0,-35.0,-1,1.0,0.2666999999996733
626,1,0.2,0.0,-35.0,-1,1.0,0.3034000000002379
627,1,0.2,0.0,35.0,-1,0.0,0.25250000000005457
628,1,0.2,0.0625,35.0,1,1.0,0.28680000000031214
629,1,0.2,1.0,-35.0,-1,1.0,0.2826000000000022
630,1,0.2,0.0,35.0,-1,0.0,0.4337999999997919
631,1,0.2,0.125,35.0,1,1.0,0.7098999999998341
632,1,0.2,1.0,35.0,1,1.0,0.2905000000000655
633,1,0.2,0.125,35.0,1,1.0,0.3063999999999396
634,1,0.2,0.0,35.0,-1,0.0,5.947400000000471
635,1,0.2,0.125,35.0,1,1.0,0.7200000000002547
636,1,0.2,0.0625,35.0,-1,0.0,1.597700000000259
637,1,0.2,0.0,-35.0,-1,1.0,0.2670000000002801
638,1,0.2,0.0625,35.0,-1,0.0,0.30789999999979045
639,1,0.2,1.0,-35.0,-1,1.0,0.2173000000002503
640,1,0.2,0.0625,35.0,-1,0.0,5.321399999999812
641,1,0.2,0.0,35.0,-1,0.0,0.4677999999998974
642,1,0.2,0.25,35.0,1,1.0,0.4618000000000393
643,1,0.8,0.125,35.0,1,1.0,0.31430000000045766
644,1,0.8,0.0625,-35.0,-1,1.0,0.7219000000000051
645,1,0.8,0.0625,-35.0,-1,1.0,0.6418000000003303
646,1,0.8,0.25,-35.0,-1,1.0,0.2653000000004795
647,1,0.8,0.125,35.0,1,1.0,0.2880000000000109
648,1,0.8,0.125,35.0,1,1.0,0.8355000000001382
649,1,0.8,1.0,-35.0,-1,1.0,0.23489999999992506
650,1,0.8,0.0625,35.0,1,1.0,0.5488999999997759
651,1,0.8,0.0625,-35.0,-1,1.0,0.39820000000008804
652,1,0.8,0.25,-35.0,-1,1.0,0.25580000000036307
653,1,0.8,0.25,35.0,1,1.0,0.3181000000004133
654,1,0.8,0.0,35.0,1,1.0,3.8160000000002583
655,1,0.8,1.0,-35.0,-1,1.0,0.34839999999985594
656,1,0.8,0.125,35.0,1,1.0,0.2861000000002605
657,1,0.8,0.0,-35.0,-1,1.0,1.0422000000003209
658,1,0.8,0.0625,-35.0,-1,1.0,0.3128999999998996
659,1,0.8,0.0625,35.0,1,1.0,0.37900000000036016
660,1,0.8,0.0,-35.0,-1,1.0,4.6930999999999585
661,1,0.8,1.0,-35.0,-1,1.0,0.27230000000054133
662,1,0.8,0.25,-35.0,-1,1.0,0.2566999999999098
663,1,0.8,1.0,-35.0,-1,1.0,0.21260000000029322
664,1,0.8,0.0,-35.0,-1,1.0,0.3068999999995867
665,1,0.8,0.0625,-35.0,-1,1.0,0.34940000000005966
666,1,0.8,0.0625,-35.0,-1,1.0,0.2438999999999396
667,1,0.2,0.25,35.0,-1,0.0,0.44630000000006476
668,1,0.2,0.125,35.0,1,1.0,0.6672999999996136
669,1,0.2,0.125,35.0,1,1.0,0.23309999999992215
670,1,0.2,0.0,35.0,-1,0.0,0.2841000000003078
671,1,0.2,0.0,35.0,1,1.0,5.636899000000085
672,1,0.2,0.0625,35.0,-1,0.0,0.3178000000002612
673,1,0.2,0.125,35.0,1,1.0,0.33350000000018554
674,1,0.2,1.0,35.0,1,1.0,0.24110000000018772
675,1,0.2,0.25,35.0,1,1.0,0.6604000000002088
676,1,0.2,1.0,35.0,1,1.0,0.2980999999999767
677,1,0.2,0.0,35.0,1,1.0,8.723899999999958
678,1,0.2,0.0625,-35.0,-1,1.0,0.5484000000001288
679,1,0.2,0.25,35.0,-1,0.0,0.17130000000042855
680,1,0.2,1.0,35.0,1,1.0,0.43180000000029395
681,1,0.2,0.25,-35.0,-1,1.0,0.29460000000017317
682,1,0.2,0.0,35.0,-1,0.0,0.24880000000030122
683,1,0.2,0.25,35.0,1,1.0,0.3713999999999942
684,1,0.2,0.25,35.0,1,1.0,0.5457000000005792
685,1,0.2,0.25,35.0,1,1.0,0.27480000000014115
686,1,0.2,1.0,-35.0,-1,1.0,0.2658000000001266
687,1,0.2,0.0625,35.0,-1,0.0,2.4619000000002416
688,1,0.2,0.25,35.0,1,1.0,0.2992999999996755
689,1,0.2,0.0,35.0,-1,0.0,0.9021000000002459
690,1,0.2,0.0625,35.0,1,1.0,0.6295000000000073
691,1,0.2,0.0,35.0,-1,0.0,0.3484000000003107
692,1,0.2,1.0,35.0,1,1.0,0.2430000000003929
693,1,0.2,0.0,35.0,1,1.0,3.9858000000003813
694,1,0.2,0.25,35.0,1,1.0,0.3567000000002736
695,1,0.2,0.0625,-35.0,1,0.0,0.6357000000002699
696,1,0.2,0.0625,35.0,1,1.0,0.3900000000003274
697,1,0.2,1.0,-35.0,-1,1.0,0.4625000000005457
698,1,0.2,0.125,35.0,-1,0.0,0.2536000000000058
699,1,0.2,0.125,35.0,-1,0.0,0.3194000000003143
700,1,0.2,1.0,35.0,1,1.0,0.30379999999968277
701,1,0.2,0.0,35.0,1,1.0,0.6799000000000888
702,1,0.2,0.0,35.0,-1,0.0,0.41400000000021464
703,1,0.2,0.0625,35.0,-1,0.0,0.5664999999999054
704,1,0.2,0.125,35.0,1,1.0,0.44410000000016225
705,1,0.2,0.25,35.0,1,1.0,0.2899000000002161
706,1,0.2,0.25,35.0,1,1.0,0.36090000000058353
707,1,0.2,0.125,35.0,1,1.0,0.460500000000593
708,1,0.2,0.125,35.0,1,1.0,3.7011999999999716
709,1,0.2,1.0,35.0,1,1.0,0.14699999999993452
710,1,0.2,1.0,35.0,1,1.0,0.20479999999997744
711,1,0.2,0.0625,35.0,1,1.0,0.39380000000028303
712,1,0.2,0.25,35.0,1,1.0,0.3281000000001768
713,1,0.2,0.25,35.0,1,1.0,0.2209999999995489
714,1,0.2,0.0,35.0,1,1.0,3.2050999999996748
715,1,0.2,1.0,35.0,1,1.0,0.24090000000023792
716,1,0.2,0.25,35.0,1,1.0,0.7453000000000429
717,1,0.2,0.0625,35.0,-1,0.0,1.2979010000003655
718,1,0.2,0.25,35.0,1,1.0,0.2789009999996779
719,1,0.2,1.0,35.0,1,1.0,0.3013010000004215
720,1,0.2,0.0,35.0,1,1.0,0.3791009999999915
721,1,0.2,0.125,-35.0,-1,1.0,0.3080009999998765
722,1,0.2,0.0625,35.0,1,1.0,0.3192010000002483
723,1,0.2,0.25,-35.0,1,0.0,3.3781010000002425
724,1,0.2,0.25,35.0,1,1.0,0.41610099999979866
725,1,0.2,0.0,35.0,-1,0.0,7.268801000000622
726,1,0.2,0.25,35.0,1,1.0,0.38960099999985687
727,1,0.2,0.0,35.0,1,1.0,0.39890100000047823
728,1,0.2,0.0,35.0,1,1.0,0.419901000000209
729,1,0.2,0.125,35.0,1,1.0,0.3528010000004542
730,1,0.2,0.125,-35.0,-1,1.0,0.3133010000001377
731,1,0.2,0.125,35.0,1,1.0,0.30940099999997983
732,1,0.2,0.0625,35.0,1,1.0,0.4169010000000526
733,1,0.2,0.0625,-35.0,-1,1.0,0.41270099999974263
734,1,0.2,1.0,35.0,1,1.0,0.3138010000002396
735,1,0.2,1.0,-35.0,-1,1.0,0.2563010000003487
736,1,0.2,0.25,35.0,1,1.0,0.4205010000000584
737,1,0.2,0.0625,35.0,1,1.0,0.36350099999981467
738,1,0.2,1.0,35.0,1,1.0,0.3040009999999711
739,1,0.2,0.125,35.0,1,1.0,0.33030100000041784
740,1,0.2,0.125,35.0,1,1.0,0.32090100000004895
741,1,0.2,0.25,-35.0,-1,1.0,0.35670100000015736
742,1,0.2,0.0,-35.0,-1,1.0,5.6510010000001785
743,1,0.2,0.0,-35.0,-1,1.0,0.5069010000006529
744,1,0.2,1.0,35.0,1,1.0,0.3146010000004935
745,1,0.2,0.125,-35.0,-1,1.0,0.3439010000001872
746,1,0.2,1.0,35.0,1,1.0,0.3047010000004775
747,1,0.2,1.0,35.0,1,1.0,0.32060100000035163
748,1,0.2,0.0,35.0,-1,0.0,0.3449009999999362
749,1,0.2,0.125,-35.0,-1,1.0,0.5608010000005379
750,1,0.2,0.0,-0.0,0,0.0,60.03510099999994
751,1,0.2,0.25,35.0,1,1.0,4.429301000000123
752,1,0.2,1.0,35.0,0,0.0,60.02640100000008
753,1,0.2,0.0,-0.0,0,0.0,60.030701000000136
754,1,0.2,1.0,35.0,1,1.0,20.956301000000167
755,1,0.2,0.0625,35.0,1,1.0,25.443300999999792
756,1,0.2,0.0625,35.0,1,1.0,0.7031010000000606
757,1,0.8,0.25,35.0,1,1.0,10.590801000000738
758,1,0.8,0.0,-35.0,-1,1.0,1.510001000000102
759,1,0.8,1.0,-35.0,-1,1.0,0.554501000000073
760,1,0.8,0.0625,-35.0,-1,1.0,0.4705010000002403
761,1,0.8,0.125,35.0,1,1.0,1.1448009999999158
762,1,0.8,0.0,-35.0,1,0.0,14.987201000000368
763,1,0.8,0.25,-35.0,1,0.0,27.2587010000002
764,1,0.8,1.0,-35.0,1,0.0,3.8052010000001246
765,1,0.8,0.25,-35.0,-1,1.0,6.479601000000002
766,1,0.8,0.125,35.0,-1,0.0,20.771901000000526
767,1,0.8,0.25,35.0,0,0.0,60.030201000000034
768,1,0.8,0.25,35.0,0,0.0,60.031700999999885
769,1,0.8,0.0,-35.0,-1,1.0,40.69650100000035
770,1,0.8,1.0,-35.0,-1,1.0,4.347400999999991
771,1,0.8,0.25,-35.0,1,0.0,0.6902010000003429
772,1,0.8,0.25,-35.0,-1,1.0,17.58770100000038
773,1,0.8,0.0625,-35.0,1,0.0,39.970701000000645
774,1,0.8,0.25,-35.0,-1,1.0,7.825701000000208
775,1,0.8,0.125,-35.0,1,0.0,22.6987009999998
776,1,0.8,0.0,-35.0,-1,1.0,38.286501000000044
777,1,0.8,0.0,-35.0,1,0.0,24.800100999999813
778,1,0.8,0.125,35.0,1,1.0,15.61500100000012
779,1,0.8,0.125,-35.0,-1,1.0,36.20460099999991
780,1,0.8,0.25,35.0,-1,0.0,0.8930009999999129
781,1,0.8,0.0,-35.0,1,0.0,16.545701000000463
782,1,0.8,1.0,35.0,1,1.0,0.4359010000002854
783,1,0.8,0.0625,-35.0,1,0.0,33.92960099999982
1,2,0.5,1.0,35.0,1,1.0,0.2048000000000001
2,2,0.5,0.0,-35.0,1,0.0,1.4408999999999992
3,2,0.5,1.0,35.0,1,1.0,0.24059999999999881
4,2,0.5,0.0625,-35.0,1,0.0,5.265500000000001
5,2,0.5,0.125,35.0,-1,0.0,0.41589999999999705
6,2,0.5,0.25,-35.0,-1,1.0,0.33789999999999765
7,2,0.5,0.0,35.0,1,1.0,0.2342999999999975
8,2,0.5,0.0625,35.0,1,1.0,0.9163999999999888
9,2,0.5,0.125,35.0,1,1.0,2.1936999999999927
10,2,0.5,0.125,-35.0,-1,1.0,0.37709999999999866
11,2,0.5,0.0625,35.0,-1,0.0,1.2094000000000023
12,2,0.5,0.0,35.0,-1,0.0,0.271099999999997
13,2,0.5,1.0,-35.0,-1,1.0,0.24159999999999826
14,2,0.5,0.25,-35.0,1,0.0,3.2909000000000006
15,2,0.5,1.0,-35.0,-1,1.0,0.3488999999999862
16,2,0.5,1.0,-35.0,-1,1.0,0.30050000000001376
17,2,0.5,0.0625,-35.0,1,0.0,4.121400000000008
18,2,0.5,1.0,35.0,1,1.0,0.8896000000000015
19,2,0.5,0.25,35.0,1,1.0,3.0013000000000147
20,2,0.5,0.0,-35.0,1,0.0,2.727400000000003
21,2,0.5,1.0,-35.0,-1,1.0,0.2283999999999935
22,2,0.5,0.125,35.0,1,1.0,0.42730000000000246
23,2,0.5,0.25,-35.0,-1,1.0,0.472699999999989
24,2,0.5,0.25,-35.0,-1,1.0,2.4413999999999874
25,2,0.5,1.0,-35.0,-1,1.0,2.9668999999999954
26,2,0.5,1.0,-35.0,-1,1.0,0.28600000000000136
27,2,0.5,0.125,35.0,-1,0.0,0.29640000000000555
28,2,0.5,0.0,-35.0,-1,1.0,0.6587999999999852
29,2,0.5,0.125,35.0,1,1.0,0.3363000000000085
30,2,0.5,1.0,-35.0,-1,1.0,0.2679000000000258
31,2,0.5,0.0,-35.0,-1,1.0,2.1706000000000074
32,2,0.5,0.25,-35.0,-1,1.0,0.2769000000000119
33,2,0.5,0.0,35.0,-1,0.0,0.7368999999999915
34,2,0.5,0.0,-35.0,1,0.0,1.7678999999999974
35,2,0.5,0.125,-35.0,-1,1.0,0.2861000000000047
36,2,0.5,0.0625,-35.0,-1,1.0,7.686299999999989
37,2,0.5,0.0625,-35.0,-1,1.0,3.2750999999999806
38,2,0.5,0.0,-35.0,-1,1.0,13.760100000000023
39,2,0.5,0.0,-35.0,-1,1.0,0.31159999999999854
40,2,0.5,1.0,35.0,1,1.0,0.39119999999999777
41,2,0.5,1.0,-35.0,-1,1.0,0.48670000000001323
42,2,0.5,0.0625,-35.0,1,0.0,2.833200000000005
43,2,0.5,0.0,35.0,-1,0.0,0.30620000000001824
44,2,0.5,0.125,35.0,1,1.0,0.4468999999999994
45,2,0.5,0.125,-35.0,-1,1.0,2.4770999999999788
46,2,0.5,1.0,-35.0,-1,1.0,0.3019000000000176
47,2,0.5,0.0,35.0,-1,0.0,4.641400000000004
48,2,0.5,0.25,35.0,1,1.0,0.6555000000000177
49,2,0.5,0.0625,35.0,1,1.0,1.7195999999999856
50,2,0.5,0.125,35.0,1,1.0,0.46510000000003515
51,2,0.5,0.25,35.0,1,1.0,0.3906999999999812
52,2,0.5,0.0625,-35.0,1,0.0,5.7128999999999905
53,2,0.5,0.0,-35.0,1,0.0,0.2786000000000115
54,2,0.5,0.0,-35.0,1,0.0,0.5041000000000224
55,2,0.5,1.0,35.0,1,1.0,0.691599999999994
56,2,0.5,0.0,35.0,1,1.0,0.37309999999996535
57,2,0.5,0.0625,35.0,1,1.0,0.532100000000014
58,2,0.5,0.0625,35.0,1,1.0,4.050399999999968
59,2,0.5,0.0625,35.0,1,1.0,0.344099999999969
60,2,0.5,0.0,-35.0,-1,1.0,0.33679999999998245
61,2,0.5,0.0625,35.0,-1,0.0,2.318899999999985
62,2,0.5,1.0,35.0,1,1.0,1.3374999999999773
63,2,0.5,0.25,-35.0,-1,1.0,0.5697999999999865
64,2,0.5,0.0,-35.0,1,0.0,4.470100000000002
65,2,0.5,0.25,-35.0,-1,1.0,0.24500000000000455
66,2,0.5,0.25,35.0,1,1.0,1.238900000000001
67,2,0.5,0.125,-35.0,-1,1.0,0.24320000000000164
68,2,0.5,0.0,35.0,-1,0.0,0.16879999999997608
69,2,0.5,0.25,35.0,1,1.0,1.6510999999999854
70,2,0.5,0.25,-35.0,-1,1.0,0.4227000000000203
71,2,0.5,0.25,-35.0,-1,1.0,0.3038999999999987
72,2,0.5,1.0,-35.0,-1,1.0,0.2954000000000292
73,2,0.5,0.25,35.0,1,1.0,0.3901000000000181
74,2,0.5,1.0,-35.0,-1,1.0,0.23989999999997735
75,2,0.5,1.0,-35.0,-1,1.0,0.32330000000001746
76,2,0.5,0.25,35.0,1,1.0,0.40730000000002065
77,2,0.5,1.0,-35.0,-1,1.0,0.26360000000005357
78,2,0.5,1.0,35.0,1,1.0,0.27499999999997726
79,2,0.5,1.0,-35.0,-1,1.0,0.44089999999994234
80,2,0.5,0.0,35.0,-1,0.0,0.28050000000001774
81,2,0.5,1.0,-35.0,-1,1.0,0.5312999999999306
82,2,0.5,0.125,-35.0,1,0.0,0.3094000000000392
83,2,0.5,0.0625,35.0,1,1.0,11.2149
84,2,0.5,0.125,35.0,1,1.0,2.0866000000000327
85,2,0.5,0.0,35.0,1,1.0,3.428100000000029
86,2,0.5,0.25,35.0,1,1.0,0.2740000000000009
87,2,0.5,1.0,35.0,1,1.0,0.39549999999997
88,2,0.5,0.0,-35.0,1,0.0,2.2198999999999955
89,2,0.5,0.125,-35.0,-1,1.0,0.2118000000000393
90,2,0.5,1.0,-35.0,-1,1.0,0.2616999999999621
91,2,0.2,0.0625,35.0,1,1.0,0.29649999999998045
92,2,0.2,0.125,35.0,1,1.0,1.8842000000000212
93,2,0.2,0.0,35.0,1,1.0,4.102700000000027
94,2,0.2,0.125,-35.0,-1,1.0,0.822400000000016
95,2,0.2,0.25,-35.0,-1,1.0,0.2506999999999948
96,2,0.2,0.0625,35.0,1,1.0,7.861699999999928
97,2,0.2,0.0,35.0,1,1.0,0.6992000000000189
98,2,0.2,0.25,35.0,1,1.0,1.543799999999976
99,2,0.2,0.125,-35.0,-1,1.0,0.4067999999999756
100,2,0.2,0.125,35.0,1,1.0,0.24699999999995725
101,2,0.2,1.0,35.0,1,1.0,0.4239000000000601
102,2,0.2,0.125,35.0,1,1.0,0.37779999999997926
103,2,0.2,0.0625,-35.0,-1,1.0,0.2784000000000333
104,2,0.2,0.0625,35.0,1,1.0,0.5930000000000177
105,2,0.2,0.25,35.0,1,1.0,0.3217000000000212
106,2,0.2,0.25,35.0,1,1.0,0.46270000000004075
107,2,0.2,0.0625,-35.0,-1,1.0,0.5773000000000366
108,2,0.2,1.0,35.0,1,1.0,0.28129999999998745
109,2,0.2,0.125,35.0,-1,0.0,1.824700000000007
110,2,0.2,0.125,35.0,-1,0.0,1.97890000000001
111,2,0.2,0.0,35.0,-1,0.0,0.28309999999999036
112,2,0.2,0.0625,35.0,1,1.0,0.30810000000002447
113,2,0.2,0.125,35.0,1,1.0,0.223700000000008
114,2,0.2,0.125,35.0,1,1.0,0.3918000000000461
115,2,0.2,0.0625,35.0,1,1.0,0.5234000000000378
116,2,0.2,0.125,35.0,1,1.0,0.9221000000000004
117,2,0.2,0.25,35.0,1,1.0,0.30529999999998836
118,2,0.2,0.0625,35.0,-1,0.0,0.3309000000000424
119,2,0.2,0.25,35.0,1,1.0,0.8268000000000484
120,2,0.2,0.25,35.0,1,1.0,0.3083000000000311
121,2,0.2,0.0,35.0,1,1.0,1.588200000000029
122,2,0.2,0.25,35.0,1,1.0,0.46020000000009986
123,2,0.2,0.125,35.0,1,1.0,0.7310000000001082
124,2,0.2,0.125,35.0,1,1.0,1.5750000000000455
125,2,0.2,0.125,35.0,1,1.0,0.3243000000001075
126,2,0.2,0.25,35.0,1,1.0,0.3144000000000915
127,2,0.2,1.0,-35.0,-1,1.0,0.45060000000000855
128,2,0.2,1.0,35.0,1,1.0,0.22540000000003602
129,2,0.2,1.0,35.0,1,1.0,0.6401000000000749
130,2,0.2,0.125,35.0,1,1.0,0.5375000000000227
131,2,0.2,0.0,35.0,-1,0.0,1.7514000000001033
132,2,0.2,0.0625,35.0,-1,0.0,0.2965000000000373
133,2,0.2,0.0625,35.0,1,1.0,0.27690000000006876
134,2,0.2,0.125,35.0,1,1.0,0.233600000000024
135,2,0.2,1.0,35.0,1,1.0,0.2179999999999609
136,2,0.2,1.0,35.0,1,1.0,0.2440000000000282
137,2,0.2,0.0,-35.0,1,0.0,0.4838000000000875
138,2,0.2,0.125,35.0,1,1.0,0.378400000000056
139,2,0.2,0.25,35.0,1,1.0,0.2440000000000282
140,2,0.2,0.25,35.0,1,1.0,0.22080000000005384
141,2,0.2,0.25,-35.0,-1,1.0,0.2721000000000231
142,2,0.2,0.25,35.0,1,1.0,0.2157000000000835
143,2,0.2,1.0,35.0,1,1.0,0.2197000000001026
144,2,0.2,0.0625,35.0,1,1.0,1.5238000000000511
145,2,0.2,0.0,-35.0,1,0.0,2.074000000000069
146,2,0.2,1.0,35.0,1,1.0,0.4213999999999487
147,2,0.2,0.0,35.0,1,1.0,2.06370000000004
148,2,0.2,0.0625,-35.0,1,0.0,1.864500000000021
149,2,0.8,0.125,-35.0,-1,1.0,0.21410000000014406
150,2,0.8,1.0,-35.0,-1,1.0,0.19110000000000582
151,2,0.8,0.0625,-35.0,-1,1.0,1.9225000000001273
152,2,0.8,1.0,-35.0,-1,1.0,0.3523999999999887
153,2,0.8,0.25,-35.0,-1,1.0,0.2685000000000173
154,2,0.8,0.0625,-35.0,-1,1.0,0.2560000000000855
155,2,0.8,0.0625,-35.0,-1,1.0,2.2302000000000817
156,2,0.8,0.125,-35.0,-1,1.0,0.2477999999999838
157,2,0.8,0.0,35.0,-1,0.0,6.425000000000068
158,2,0.8,0.125,35.0,1,1.0,0.2512000000001535
159,2,0.8,0.25,35.0,1,1.0,0.3228000000000293
160,2,0.8,0.125,-35.0,-1,1.0,0.3991000000000895
161,2,0.8,0.25,-35.0,-1,1.0,0.25240000000007967
162,2,0.8,0.25,-35.0,-1,1.0,0.23630000000002838
163,2,0.8,0.0,35.0,-1,0.0,5.862799999999993
164,2,0.8,0.25,-35.0,-1,1.0,0.18020000000001346
165,2,0.8,1.0,35.0,1,1.0,0.22840000000019245
166,2,0.8,0.0,-35.0,1,0.0,1.1562999999999874
167,2,0.8,0.125,-35.0,-1,1.0,0.21620000000007167
168,2,0.8,0.0625,-35.0,-1,1.0,2.1673000000000684
169,2,0.8,0.25,-35.0,1,0.0,0.14650000000006003
170,2,0.8,0.125,-35.0,1,0.0,0.32750000000010004
171,2,0.8,1.0,-35.0,-1,1.0,1.1279000000000678
172,2,0.8,0.0625,-35.0,-1,1.0,3.32870000000014
173,2,0.8,0.125,-35.0,-1,1.0,0.20090000000004693
174,2,0.8,0.0625,-35.0,1,0.0,1.9826000000000477
175,2,0.8,0.0625,35.0,1,1.0,1.790700000000129
176,2,0.8,0.0,-35.0,-1,1.0,0.2554000000001224
177,2,0.8,0.125,-35.0,1,0.0,1.9458000000000766
178,2,0.8,0.25,-35.0,-1,1.0,0.2376000000000431
179,2,0.8,0.0,-35.0,1,0.0,1.5076999999999998
180,2,0.8,0.0,35.0,1,1.0,0.40650000000005093
181,2,0.8,0.0625,-35.0,-1,1.0,0.9917000000000371
182,2,0.8,1.0,-35.0,-1,1.0,0.3506999999999607
183,2,0.8,0.125,-35.0,-1,1.0,4.10329999999999
184,2,0.8,0.25,-35.0,-1,1.0,0.35390000000006694
185,2,0.8,0.0625,-35.0,-1,1.0,0.26319999999998345
186,2,0.8,1.0,-35.0,-1,1.0,0.24720000000002074
187,2,0.8,0.125,-35.0,-1,1.0,2.530399999999986
188,2,0.8,0.25,-35.0,-1,1.0,0.4254000000000815
189,2,0.8,0.125,-35.0,-1,1.0,0.22090000000002874
190,2,0.8,1.0,-35.0,-1,1.0,0.30320000000006075
191,2,0.8,1.0,-35.0,-1,1.0,0.36360000000013315
192,2,0.8,0.125,35.0,1,1.0,0.6182000000000016
193,2,0.8,0.125,-35.0,-1,1.0,0.2598000000000411
194,2,0.8,0.0,-35.0,-1,1.0,0.3390000000000555
195,2,0.8,1.0,-35.0,-1,1.0,0.2256999999999607
196,2,0.8,0.25,-35.0,1,0.0,3.0397000000001526
197,2,0.8,1.0,-35.0,-1,1.0,0.25120000000003984
198,2,0.8,0.125,-35.0,-1,1.0,0.27920000000005984
199,2,0.8,0.0,-35.0,1,0.0,0.45230000000003656
200,2,0.8,0.125,-35.0,-1,1.0,0.16199999999992087
201,2,0.8,0.0625,-35.0,-1,1.0,0.2594000000001415
202,2,0.8,0.0625,35.0,-1,0.0,0.815300000000093
203,2,0.8,0.0625,-35.0,1,0.0,0.2857000000000198
204,2,0.8,0.0,-35.0,-1,1.0,0.32780000000002474
205,2,0.8,0.125,-35.0,-1,1.0,1.8914999999999509
206,2,0.8,0.125,-35.0,-1,1.0,0.22140000000001692
207,2,0.8,0.25,35.0,1,1.0,0.3207000000001017
208,2,0.8,0.0,-35.0,-1,1.0,0.3042000000000371
209,2,0.8,0.0,-35.0,-1,1.0,0.2757000000001426
210,2,0.8,1.0,-35.0,-1,1.0,0.3391000000000304
211,2,0.2,0.125,35.0,1,1.0,0.2943000000000211
212,2,0.2,0.0625,35.0,1,1.0,0.6196999999999662
213,2,0.2,0.0,-35.0,-1,1.0,0.2677000000001044
214,2,0.2,0.125,35.0,1,1.0,2.0406000000000404
215,2,0.2,0.25,-35.0,-1,1.0,0.29280000000005657
216,2,0.2,0.25,35.0,1,1.0,0.3670000000000755
217,2,0.2,0.0,35.0,-1,0.0,2.7647000000000617
218,2,0.2,0.25,-35.0,-1,1.0,0.25240000000007967
219,2,0.2,0.0625,35.0,1,1.0,0.29360000000008313
220,2,0.2,0.0625,35.0,1,1.0,1.8262999999999465
221,2,0.2,0.0625,35.0,1,1.0,0.2818000000000893
222,2,0.2,0.125,-35.0,-1,1.0,0.36000000000001364
223,2,0.2,1.0,-35.0,-1,1.0,0.25450000000012096
224,2,0.2,1.0,-35.0,-1,1.0,0.21810000000004948
225,2,0.2,0.25,-35.0,1,0.0,0.43430000000012114
226,2,0.2,0.0625,35.0,1,1.0,0.28550000000007003
227,2,0.2,0.25,35.0,1,1.0,0.21320000000002892
228,2,0.2,0.0625,-35.0,-1,1.0,0.25520000000005894
229,2,0.2,0.0,-35.0,1,0.0,3.1519000000001824
230,2,0.2,0.25,35.0,1,1.0,0.4901000000000977
231,2,0.2,0.125,35.0,1,1.0,0.2784000000000333
232,2,0.2,1.0,35.0,1,1.0,0.24130000000002383
233,2,0.2,1.0,35.0,1,1.0,0.21500000000003183
234,2,0.2,0.0,35.0,1,1.0,0.4472000000000662
235,2,0.2,0.25,35.0,1,1.0,0.30529999999998836
236,2,0.2,0.0,-35.0,1,0.0,5.054200000000037
237,2,0.2,0.125,35.0,1,1.0,0.22050000000001546
238,2,0.2,1.0,35.0,1,1.0,0.25650000000018736
239,2,0.2,0.0,35.0,1,1.0,1.0777000000000498
240,2,0.2,0.0,35.0,-1,0.0,0.1832000000001699
241,2,0.2,0.25,35.0,1,1.0,0.3425000000000864
242,2,0.2,0.0625,35.0,1,1.0,3.1271000000000413
243,2,0.2,0.0,35.0,1,1.0,0.39639999999997144
244,2,0.2,0.25,-35.0,1,0.0,0.37740000000007967
245,2,0.2,1.0,35.0,1,1.0,0.40970000000015716
246,2,0.2,0.0,-35.0,1,0.0,1.3908000000001266
247,2,0.2,0.0,35.0,-1,0.0,0.3399000000001706
248,2,0.2,1.0,35.0,1,1.0,0.3410000000001219
249,2,0.2,0.0,35.0,1,1.0,1.123299999999972
250,2,0.2,1.0,35.0,1,1.0,0.2278000000001157
251,2,0.2,0.0,35.0,1,1.0,0.9901999999999589
252,2,0.2,1.0,35.0,1,1.0,0.3847000000002936
253,2,0.2,0.25,35.0,1,1.0,0.427599999999984
254,2,0.2,0.125,35.0,1,1.0,2.284900000000107
255,2,0.2,0.25,35.0,1,1.0,0.32750000000010004
256,2,0.2,1.0,35.0,1,1.0,0.38840000000004693
257,2,0.2,0.125,35.0,1,1.0,0.20060000000012224
258,2,0.2,0.25,35.0,1,1.0,0.39839999999981046
259,2,0.2,1.0,35.0,1,1.0,0.45460000000002765
260,2,0.8,0.0625,35.0,1,1.0,0.2641999999998461
261,2,0.8,0.125,-35.0,-1,1.0,0.654399999999896
262,2,0.8,1.0,-35.0,-1,1.0,0.5253000000000156
263,2,0.8,1.0,-35.0,-1,1.0,0.34770000000003165
264,2,0.8,0.0,-35.0,1,0.0,2.322200000000066
265,2,0.8,0.0625,-35.0,-1,1.0,0.36779999999998836
266,2,0.8,0.25,-35.0,-1,1.0,0.2957000000001244
267,2,0.8,0.0625,-35.0,-1,1.0,0.6816999999998643
268,2,0.8,0.25,-35.0,-1,1.0,0.45590000000015607
269,2,0.8,0.0625,-35.0,-1,1.0,0.4316000000001168
270,2,0.8,0.0625,35.0,1,1.0,0.1328000000000884
271,2,0.8,0.0,35.0,-1,0.0,0.22159999999985303
272,2,0.8,0.25,-35.0,-1,1.0,0.23279999999999745
273,2,0.8,0.0,-35.0,1,0.0,0.9052999999998974
274,2,0.8,1.0,-35.0,-1,1.0,0.27310000000011314
275,2,0.8,0.125,-35.0,-1,1.0,0.7020999999999731
276,2,0.8,1.0,-35.0,-1,1.0,0.24000000000023647
277,2,0.8,0.0,-35.0,-1,1.0,0.45900000000006
278,2,0.8,1.0,-35.0,-1,1.0,0.26330000000007203
279,2,0.8,0.0,-35.0,1,0.0,2.306100000000015
280,2,0.8,0.25,-35.0,-1,1.0,0.5102000000001681
281,2,0.8,0.125,-35.0,-1,1.0,0.38600000000019463
282,2,0.8,1.0,-35.0,-1,1.0,0.4105000000001837
283,2,0.8,0.125,-35.0,-1,1.0,0.24610000000006949
284,2,0.8,1.0,-35.0,-1,1.0,0.21730000000002292
285,2,0.8,1.0,-35.0,-1,1.0,0.23300000000017462
286,2,0.8,0.25,-35.0,-1,1.0,0.3707999999999174
287,2,0.8,0.0,35.0,-1,0.0,2.3499000000001615
288,2,0.8,1.0,-35.0,-1,1.0,0.3709000000001197
289,2,0.8,0.25,-35.0,-1,1.0,0.403400000000147
290,2,0.8,0.125,-35.0,-1,1.0,0.2477000000001226
291,2,0.8,0.0625,-35.0,-1,1.0,0.29349999999999454
292,2,0.8,0.125,-35.0,-1,1.0,0.32120000000008986
293,2,0.8,1.0,-35.0,-1,1.0,0.2666999999999007
294,2,0.8,1.0,-35.0,-1,1.0,0.18790000000012697
295,2,0.8,1.0,35.0,1,1.0,0.29719999999997526
296,2,0.2,1.0,35.0,1,1.0,0.21820000000002437
297,2,0.2,1.0,35.0,1,1.0,0.24049999999988358
298,2,0.2,1.0,35.0,1,1.0,0.4650000000001455
299,2,0.2,0.0,35.0,1,1.0,0.5442000000002736
300,2,0.2,0.0625,35.0,-1,0.0,0.43840000000000146
301,2,0.2,0.0625,35.0,1,1.0,0.3510000000001128
302,2,0.2,0.25,35.0,1,1.0,0.21870000000012624
303,2,0.2,0.25,35.0,1,1.0,0.42429999999990287
304,2,0.2,0.0,35.0,-1,0.0,0.2419999999999618
305,2,0.2,0.0625,35.0,1,1.0,0.4515000000001237
306,2,0.2,0.0625,-35.0,1,0.0,0.28880000000003747
307,2,0.2,0.0625,35.0,1,1.0,0.3012989999999718
308,2,0.2,0.25,35.0,1,1.0,0.32229999999981374
309,2,0.2,0.0,35.0,1,1.0,0.35180000000013933
310,2,0.2,1.0,35.0,1,1.0,0.2658000000001266
311,2,0.2,1.0,-35.0,-1,1.0,0.4116999999998825
312,2,0.2,0.0625,-35.0,1,0.0,0.8794000000002598
313,2,0.2,0.125,-35.0,-1,1.0,0.39180000000010295
314,2,0.2,0.125,-35.0,-1,1.0,0.28290000000015425
315,2,0.2,1.0,35.0,1,1.0,0.23530000000005202
316,2,0.2,0.25,35.0,1,1.0,0.24630000000001928
317,2,0.2,0.0625,-35.0,-1,1.0,0.2155999999999949
318,2,0.2,0.125,-35.0,-1,1.0,0.34979999999995925
319,2,0.2,0.125,35.0,1,1.0,2.30580000000009
320,2,0.2,0.125,35.0,1,1.0,0.2600000000002183
321,2,0.2,0.0,35.0,1,1.0,0.36590000000001055
322,2,0.2,0.25,35.0,1,1.0,0.24020000000018626
323,2,0.2,1.0,35.0,1,1.0,0.23929999999995744
324,2,0.2,0.125,-35.0,1,0.0,0.3103000000000975
325,2,0.2,0.125,35.0,-1,0.0,0.17639999999983047
326,2,0.2,1.0,35.0,1,1.0,0.20710000000008222
327,2,0.2,0.25,35.0,1,1.0,0.2463999999997668
328,2,0.2,0.0,35.0,-1,0.0,0.39390000000003056
329,2,0.2,0.0,35.0,-1,0.0,0.17970000000013897
330,2,0.2,0.25,35.0,1,1.0,0.2807000000000244
331,2,0.2,0.125,35.0,1,1.0,0.22659999999996217
332,2,0.2,0.0625,-35.0,1,0.0,1.6601000000002841
333,2,0.2,0.25,35.0,1,1.0,0.2477000000001226
334,2,0.2,0.0625,35.0,1,1.0,0.3204000000000633
335,2,0.2,0.25,-35.0,-1,1.0,0.21790000000009968
336,2,0.2,0.25,35.0,1,1.0,0.233600000000024
337,2,0.2,1.0,-35.0,-1,1.0,0.27470000000016626
338,2,0.2,0.25,35.0,1,1.0,0.2376000000001568
339,2,0.2,0.125,35.0,1,1.0,0.08170000000018263
340,2,0.2,0.0625,35.0,1,1.0,1.9417000000000826
341,2,0.2,0.0,-35.0,1,0.0,1.4544000000000779
342,2,0.2,0.0,35.0,1,1.0,0.29529999999999745
343,2,0.2,0.0625,35.0,1,1.0,0.29460000000017317
344,2,0.2,0.0,35.0,1,1.0,0.5219999999999345
345,2,0.2,0.0625,-35.0,-1,1.0,0.30490000000008877
346,2,0.2,0.0,35.0,1,1.0,2.6988000000001193
347,2,0.2,0.25,35.0,1,1.0,0.25460000000020955
348,2,0.2,0.0625,35.0,1,1.0,0.2557000000001608
349,2,0.2,0.0,35.0,1,1.0,0.5149000000001251
350,2,0.2,0.0,35.0,1,1.0,0.9892000000002099
351,2,0.2,0.25,35.0,1,1.0,0.8686000000002423
352,2,0.2,0.0,35.0,1,1.0,0.28260000000022956
353,2,0.2,0.125,35.0,1,1.0,0.4417999999998301
354,2,0.2,0.0625,-35.0,-1,1.0,0.65949999999998
355,2,0.2,0.125,35.0,1,1.0,0.2621999999998934
356,2,0.2,0.125,35.0,1,1.0,0.41960000000017317
357,2,0.2,1.0,35.0,1,1.0,0.2957000000001244
358,2,0.2,1.0,-35.0,-1,1.0,0.20630000000005566
359,2,0.2,0.0,35.0,-1,0.0,0.5560999999997875
360,2,0.2,0.0625,35.0,1,1.0,0.24980000000027758
361,2,0.2,0.0625,35.0,-1,0.0,0.8763000000001284
362,2,0.2,0.25,35.0,1,1.0,0.2235000000000582
363,2,0.2,1.0,35.0,1,1.0,0.229200000000219
364,2,0.8,0.0,-35.0,1,0.0,0.6135000000001583
365,2,0.8,0.0625,-35.0,1,0.0,0.5093999999999141
366,2,0.8,1.0,-35.0,-1,1.0,0.23039999999991778
367,2,0.8,0.25,-35.0,-1,1.0,0.3064999999999145
368,2,0.8,1.0,-35.0,-1,1.0,0.2173000000002503
369,2,0.8,1.0,-35.0,-1,1.0,0.47630000000003747
370,2,0.8,0.125,-35.0,-1,1.0,0.26739999999995234
371,2,0.8,0.0,35.0,-1,0.0,0.6367000000002463
372,2,0.8,1.0,-35.0,1,0.0,0.5376000000001113
373,2,0.8,1.0,-35.0,-1,1.0,0.1999999999998181
374,2,0.8,0.125,-35.0,-1,1.0,0.21440000000006876
375,2,0.8,0.0,-35.0,1,0.0,0.27350000000001273
376,2,0.8,1.0,-35.0,-1,1.0,0.1811999999999898
377,2,0.8,0.25,-35.0,-1,1.0,0.24040000000013606
378,2,0.8,0.0,-35.0,-1,1.0,3.201400000000149
379,2,0.8,0.0625,-35.0,-1,1.0,0.6404999999999745
380,2,0.8,0.25,-35.0,-1,1.0,0.3647999999998319
381,2,0.8,0.0,-35.0,1,0.0,2.78449999999998
382,2,0.8,0.0625,-35.0,-1,1.0,0.531800000000203
383,2,0.8,1.0,35.0,1,1.0,0.22080000000028122
384,2,0.8,0.0625,-35.0,-1,1.0,0.18849999999997635
385,2,0.8,0.0625,-35.0,-1,1.0,0.940900000000056
386,2,0.8,0.0,-35.0,1,0.0,0.4388000000001284
387,2,0.8,0.125,-35.0,-1,1.0,0.7247999999999593
388,2,0.8,0.25,-35.0,-1,1.0,0.25230000000033215
389,2,0.8,0.25,35.0,1,1.0,0.278400000000147
390,2,0.8,1.0,-35.0,-1,1.0,0.28579999999988104
391,2,0.8,0.0,-35.0,-1,1.0,0.7182999999999993
392,2,0.8,0.125,-35.0,-1,1.0,0.2692000000001826
393,2,0.8,0.0,-35.0,-1,1.0,0.23499999999989996
394,2,0.8,1.0,-35.0,-1,1.0,0.2159999999998945
395,2,0.8,0.25,-35.0,-1,1.0,0.24540000000001783
396,2,0.8,1.0,-35.0,-1,1.0,0.24289999999996326
397,2,0.8,1.0,35.0,1,1.0,0.25549999999998363
398,2,0.8,1.0,-35.0,-1,1.0,0.22300000000018372
399,2,0.8,0.0625,-35.0,-1,1.0,0.2824000000000524
400,2,0.8,0.0625,-35.0,-1,1.0,0.35989999999992506
401,2,0.8,0.0625,-35.0,-1,1.0,0.3088000000000193
402,2,0.2,0.0625,35.0,-1,0.0,0.35669999999981883
403,2,0.2,1.0,35.0,1,1.0,0.282799999999952
404,2,0.2,0.0,35.0,-1,0.0,0.2500999999999749
405,2,0.2,1.0,35.0,1,1.0,0.20610000000010587
406,2,0.2,1.0,35.0,1,1.0,0.24700000000007094
407,2,0.2,0.0,35.0,1,1.0,5.833099999999831
408,2,0.2,0.0,-35.0,1,0.0,0.3470999999999549
409,2,0.2,0.0,35.0,1,1.0,0.3431000000000495
410,2,0.2,0.0625,-35.0,1,0.0,0.23060000000009495
411,2,0.2,0.25,35.0,1,1.0,0.20010000000002037
412,2,0.2,1.0,35.0,1,1.0,0.25099999999997635
413,2,0.2,0.0625,35.0,1,1.0,1.9268000000001848
414,2,0.2,0.0625,35.0,1,1.0,0.3945000000001073
415,2,0.2,1.0,35.0,1,1.0,0.24340000000006512
416,2,0.2,0.125,35.0,1,1.0,0.39459999999985484
417,2,0.2,0.125,35.0,1,1.0,0.383900000000267
418,2,0.2,1.0,35.0,1,1.0,0.3947000000000571
419,2,0.2,1.0,35.0,1,1.0,0.23720000000002983
420,2,0.2,0.0625,-35.0,-1,1.0,0.2315000000000964
421,2,0.2,0.25,-35.0,-1,1.0,0.7912000000001171
422,2,0.2,0.0,35.0,-1,0.0,0.4817000000002736
423,2,0.2,0.125,35.0,1,1.0,0.37770000000000437
424,2,0.2,0.25,35.0,1,1.0,0.25840000000016516
425,2,0.2,0.0,35.0,1,1.0,0.8642999999999574
426,2,0.2,0.0625,35.0,1,1.0,0.6686999999999443
427,2,0.2,0.125,35.0,1,1.0,0.31790000000000873
428,2,0.2,0.125,-35.0,1,0.0,0.30880000000024665
429,2,0.2,0.0,35.0,1,1.0,0.3314999999997781
430,2,0.2,0.125,35.0,1,1.0,0.2623999999998432
431,2,0.2,1.0,35.0,1,1.0,0.2414000000001124
432,2,0.2,0.125,35.0,1,1.0,0.3590999999998985
433,2,0.2,1.0,35.0,1,1.0,0.23500000000012733
434,2,0.2,0.25,35.0,1,1.0,0.3059000000000651
435,2,0.2,0.25,35.0,1,1.0,0.3020000000001346
436,2,0.2,1.0,35.0,1,1.0,0.2760000000002947
437,2,0.2,0.125,35.0,1,1.0,0.5987999999999829
438,2,0.2,0.0,35.0,-1,0.0,0.7530000000001564
439,2,0.2,0.125,35.0,1,1.0,0.21219999999993888
440,2,0.2,0.125,-35.0,-1,1.0,0.26299999999991996
441,2,0.2,0.0,35.0,1,1.0,2.358800000000201
442,2,0.2,1.0,-35.0,-1,1.0,0.23979999999983193
443,2,0.2,1.0,-35.0,-1,1.0,0.2826000000000022
444,2,0.2,0.0625,35.0,1,1.0,0.1733999999999014
445,2,0.2,0.0625,35.0,1,1.0,0.29909999999995307
446,2,0.2,0.0,35.0,1,1.0,0.3667000000002645
447,2,0.8,0.0625,-35.0,-1,1.0,0.3425999999999476
448,2,0.8,0.125,-35.0,-1,1.0,0.5302999999998974
449,2,0.8,1.0,-35.0,-1,1.0,0.2662000000000262
450,2,0.8,0.25,-35.0,-1,1.0,0.28700000000003456
451,2,0.8,1.0,-35.0,-1,1.0,0.2796000000000731
452,2,0.8,0.125,-35.0,-1,1.0,0.39390000000003056
453,2,0.8,0.0625,-35.0,-1,1.0,0.29970000000002983
454,2,0.8,1.0,-35.0,-1,1.0,0.41409999999996217
455,2,0.8,0.125,-35.0,-1,1.0,0.309800000000223
456,2,0.8,1.0,-35.0,-1,1.0,0.24080000000003565
457,2,0.8,0.25,-35.0,1,0.0,0.3367000000000644
458,2,0.8,0.0625,-35.0,1,0.0,0.3043999999999869
459,2,0.8,1.0,-35.0,-1,1.0,0.17390000000000327
460,2,0.8,0.125,-35.0,-1,1.0,0.6078999999999724
461,2,0.8,0.25,-35.0,-1,1.0,0.28720099999986815
462,2,0.8,0.0625,-35.0,-1,1.0,0.6114010000003418
463,2,0.8,0.0625,-35.0,-1,1.0,0.2738010000000486
464,2,0.8,0.25,-35.0,-1,1.0,0.2048010000000886
465,2,0.8,0.0,-35.0,-1,1.0,0.23720099999991362
466,2,0.8,0.0,-35.0,-1,1.0,4.788501000000224
467,2,0.8,0.0,-35.0,1,0.0,0.7505009999999857
468,2,0.8,0.25,35.0,1,1.0,0.25880099999994854
469,2,0.8,0.0,-35.0,1,0.0,0.30470100000002276
470,2,0.8,1.0,-35.0,-1,1.0,0.22220099999981358
471,2,0.8,0.0625,-35.0,-1,1.0,0.8147010000000137
472,2,0.8,0.125,35.0,1,1.0,0.38560100000017883
473,2,0.8,0.0,35.0,1,1.0,0.38140100000009625
474,2,0.8,0.25,-35.0,-1,1.0,0.2592010000000755
475,2,0.8,0.0,-35.0,-1,1.0,1.2018009999999322
476,2,0.8,0.25,35.0,1,1.0,0.2793010000000322
477,2,0.8,0.25,35.0,1,1.0,0.26830100000006496
478,2,0.8,0.0,-35.0,-1,1.0,0.9852009999999609
479,2,0.8,0.0,-35.0,-1,1.0,1.5154010000001108
480,2,0.8,1.0,-35.0,-1,1.0,0.40960100000006605
481,2,0.8,0.125,35.0,1,1.0,0.3257009999999809
482,2,0.8,0.0625,35.0,-1,0.0,0.5030010000000402
483,2,0.8,0.25,-35.0,-1,1.0,0.25220100000024104
484,2,0.8,0.0,35.0,1,1.0,0.1567010000001119
485,2,0.8,0.125,-35.0,-1,1.0,0.2757010000000264
486,2,0.8,0.0,-35.0,-1,1.0,0.4101010000001679
487,2,0.8,0.0,-35.0,-1,1.0,0.3462010000000646
488,2,0.8,0.25,-35.0,-1,1.0,0.26690099999996164
489,2,0.8,1.0,-35.0,-1,1.0,0.26270099999987906
490,2,0.8,1.0,-35.0,-1,1.0,0.24710099999992963
491,2,0.8,0.125,35.0,1,1.0,0.2497009999999591
492,2,0.8,1.0,-35.0,-1,1.0,0.30060100000014245
493,2,0.8,0.125,-35.0,-1,1.0,0.39300100000014027
494,2,0.8,1.0,-35.0,-1,1.0,0.30740099999979975
495,2,0.8,0.0,-35.0,-1,1.0,0.20330100000023776
496,2,0.8,0.0,-35.0,-1,1.0,0.26420100000018465
497,2,0.8,0.0,35.0,-1,0.0,0.7135010000001785
498,2,0.8,1.0,-35.0,-1,1.0,0.19420100000024831
499,2,0.8,1.0,-35.0,-1,1.0,0.3266009999999824
500,2,0.8,1.0,35.0,1,1.0,0.24460100000010243
501,2,0.8,0.125,-35.0,-1,1.0,0.24350100000015118
502,2,0.8,0.125,-35.0,-1,1.0,0.3279009999998834
503,2,0.8,0.0,-35.0,-1,1.0,2.1404009999998834
504,2,0.8,0.25,-35.0,-1,1.0,0.8381010000000515
505,2,0.8,1.0,35.0,1,1.0,0.20090099999993072
506,2,0.8,0.125,35.0,1,1.0,0.3082010000000537
507,2,0.8,0.125,-35.0,-1,1.0,0.4306010000000242
508,2,0.8,1.0,-35.0,-1,1.0,0.24850100000003295
509,2,0.8,0.25,-35.0,1,0.0,0.22460099999989325
510,2,0.8,0.0625,-35.0,-1,1.0,0.6587010000000646
511,2,0.8,0.0,-35.0,-1,1.0,3.1914010000000417
512,2,0.8,0.0625,-35.0,-1,1.0,0.4088010000000395
513,2,0.8,0.0625,-35.0,-1,1.0,0.23480100000006132
514,2,0.8,1.0,-35.0,-1,1.0,0.24580100000002858
515,2,0.8,1.0,-35.0,-1,1.0,0.20830100000011953
516,2,0.8,0.25,-35.0,-1,1.0,0.2492010000000846
517,2,0.2,0.0625,35.0,-1,0.0,0.1282010000002174
518,2,0.2,0.0,35.0,-1,0.0,2.81590099999994
519,2,0.2,0.125,35.0,1,1.0,0.16210099999989325
520,2,0.2,1.0,-35.0,-1,1.0,0.2229010000000926
521,2,0.2,1.0,35.0,1,1.0,0.33890100000007806
522,2,0.2,0.125,35.0,1,1.0,0.249800999999934
523,2,0.2,0.25,35.0,1,1.0,0.29920099999981176
524,2,0.2,0.125,35.0,1,1.0,0.2634010000001581
525,2,0.2,0.0625,35.0,-1,0.0,0.6625009999997928
526,2,0.2,0.25,35.0,1,1.0,0.35010100000044986
527,2,0.2,0.0,-35.0,1,0.0,0.4992010000000846
528,2,0.2,0.125,35.0,1,1.0,0.33690100000012535
529,2,0.2,0.125,35.0,1,1.0,0.3761010000002898
530,2,0.2,0.25,-35.0,-1,1.0,0.2705010000004222
531,2,0.2,0.125,35.0,1,1.0,0.24970099999973172
532,2,0.2,0.125,35.0,1,1.0,0.2674010000000635
533,2,0.2,1.0,35.0,1,1.0,0.2533010000001923
534,2,0.2,0.125,-35.0,-1,1.0,0.21750100000008388
535,2,0.2,0.0625,35.0,1,1.0,0.24650100000008024
536,2,0.2,0.25,-35.0,-1,1.0,0.21430099999997765
537,2,0.2,0.0,35.0,-1,0.0,0.2835009999998874
538,2,0.2,0.25,-35.0,-1,1.0,0.42120100000011007
539,2,0.2,1.0,35.0,1,1.0,0.19040099999983795
540,2,0.2,0.0625,35.0,1,1.0,0.27460100000007515
541,2,0.2,0.125,35.0,1,1.0,0.3604009999999107
542,2,0.2,1.0,35.0,1,1.0,0.26810100000011516
543,2,0.2,1.0,35.0,1,1.0,0.2506010000001879
544,2,0.2,1.0,35.0,1,1.0,0.23820100000011735
545,2,0.2,0.0625,35.0,1,1.0,0.23070099999995364
546,2,0.2,0.25,35.0,1,1.0,0.41850100000056045
547,2,0.2,1.0,-35.0,-1,1.0,0.7676010000000133
548,2,0.2,0.0625,35.0,1,1.0,0.8386010000003807
549,2,0.2,0.125,35.0,1,1.0,0.30800100000033126
550,2,0.2,0.0,35.0,-1,0.0,0.4853010000001632
551,2,0.2,0.25,35.0,1,1.0,0.26120099999980084
552,2,0.2,1.0,35.0,1,1.0,0.2589010000001508
553,2,0.2,0.125,35.0,1,1.0,0.43180100000017774
554,2,0.2,1.0,35.0,1,1.0,0.24580100000002858
555,2,0.2,0.0625,35.0,1,1.0,0.30840100000023085
556,2,0.2,0.0,35.0,-1,0.0,2.6758010000003196
557,2,0.2,0.0625,35.0,-1,0.0,2.12170100000003
558,2,0.2,1.0,-35.0,-1,1.0,0.18620099999998274
559,2,0.2,1.0,35.0,1,1.0,0.23210100000005696
560,2,0.2,0.0625,35.0,1,1.0,0.4430010000000948
561,2,0.2,1.0,35.0,1,1.0,0.22890099999949598
562,2,0.2,0.125,35.0,1,1.0,0.24980100000038874
563,2,0.2,0.125,35.0,1,1.0,0.27600100000017846
564,2,0.2,0.0,35.0,-1,0.0,6.083300999999665
565,2,0.2,0.0625,35.0,1,1.0,0.2960009999997055
566,2,0.2,0.0,35.0,1,1.0,0.26350100000036036
567,2,0.2,0.0625,-35.0,-1,1.0,0.28270100000008824
568,2,0.2,0.0,35.0,-1,0.0,0.6803009999998721
569,2,0.2,1.0,35.0,1,1.0,0.19950100000005477
570,2,0.2,1.0,35.0,1,1.0,0.20720100000016828
571,2,0.2,1.0,35.0,1,1.0,0.21960100000023886
572,2,0.2,0.0,35.0,1,1.0,0.5374010000000453
573,2,0.2,1.0,35.0,1,1.0,0.9968009999997776
574,2,0.8,0.125,-35.0,-1,1.0,0.5276009999997768
575,2,0.8,1.0,-35.0,-1,1.0,0.2336009999999078
576,2,0.8,0.0625,-35.0,-1,1.0,0.4077009999996335
577,2,0.8,1.0,-35.0,-1,1.0,0.21040099999981976
578,2,0.8,0.125,-35.0,-1,1.0,0.3679010000000744
579,2,0.8,0.25,-35.0,-1,1.0,0.2504010000002381
580,2,0.8,1.0,-35.0,-1,1.0,0.2712010000000191
581,2,0.8,1.0,-35.0,-1,1.0,0.42400099999986196
582,2,0.8,1.0,-35.0,-1,1.0,0.25470099999984086
583,2,0.8,0.0625,35.0,-1,0.0,0.32760099999995873
584,2,0.8,0.125,-35.0,-1,1.0,0.47840099999984886
585,2,0.8,0.125,-35.0,-1,1.0,0.2777009999999791
586,2,0.8,1.0,-35.0,-1,1.0,0.5484010000000126
587,2,0.8,0.0625,35.0,1,1.0,0.35450100000025486
588,2,0.8,0.0,-35.0,-1,1.0,0.49870099999998274
589,2,0.8,0.125,-35.0,-1,1.0,0.8346010000000206
590,2,0.8,0.0,-35.0,1,0.0,0.40550100000018574
591,2,0.8,0.25,-35.0,-1,1.0,0.49120099999981903
592,2,0.8,0.25,-35.0,-1,1.0,0.30230100000017046
593,2,0.8,1.0,35.0,1,1.0,0.25810100000035163
594,2,0.8,0.0,-35.0,-1,1.0,0.2924009999996997
595,2,0.8,0.0625,-35.0,-1,1.0,1.5517009999998663
596,2,0.8,0.25,-35.0,-1,1.0,0.3558010000001559
597,2,0.8,0.25,-35.0,-1,1.0,0.38180099999999584
598,2,0.8,1.0,-35.0,-1,1.0,0.2695010000002185
599,2,0.8,0.25,-35.0,-1,1.0,0.6120009999999638
600,2,0.8,0.125,-35.0,-1,1.0,0.4996009999999842
601,2,0.8,0.0,-35.0,1,0.0,6.162001000000146
602,2,0.8,0.0,35.0,-1,0.0,0.993300999999974
603,2,0.8,0.0,-35.0,1,0.0,0.33580099999971935
604,2,0.8,1.0,35.0,1,1.0,0.3300010000002658
605,2,0.8,0.0,35.0,1,1.0,1.2924009999996997
606,2,0.8,0.25,35.0,1,1.0,0.4559009999998125
607,2,0.8,1.0,-35.0,-1,1.0,0.3862010000002556
608,2,0.8,0.0,-35.0,1,0.0,0.2938010000002578
609,2,0.8,0.0625,-35.0,-1,1.0,0.756300999999894
610,2,0.8,1.0,-35.0,-1,1.0,0.49400100000002567
611,2,0.8,0.0,-35.0,1,0.0,2.6534010000000308
612,2,0.8,0.0,-35.0,1,0.0,0.48760100000026796
613,2,0.8,0.0,-35.0,1,0.0,4.673901000000114
614,2,0.8,0.0,-35.0,1,0.0,25.097901000000093
615,2,0.8,0.25,-35.0,-1,1.0,0.5708010000003014
616,2,0.8,0.0625,-35.0,-1,1.0,0.27860099999998056
617,2,0.8,1.0,-35.0,-1,1.0,0.3645010000000184
618,2,0.8,0.125,-35.0,-1,1.0,0.5420010000002549
619,2,0.8,0.0,-35.0,-1,1.0,7.6981009999999515
620,2,0.8,0.25,-35.0,-1,1.0,0.41560100000015154
621,2,0.8,1.0,-35.0,-1,1.0,0.38500100000010207
622,2,0.8,0.25,-35.0,-1,1.0,0.22580100000004677
623,2,0.8,0.0,-35.0,-1,1.0,1.0583010000000286
624,2,0.8,0.0625,35.0,-1,0.0,0.44930099999965023
625,2,0.8,0.25,-35.0,-1,1.0,0.5586010000001806
626,2,0.8,0.0625,-35.0,-1,1.0,4.4262009999997645
627,2,0.8,1.0,-35.0,-1,1.0,0.29560099999980594
628,2,0.8,0.25,-35.0,-1,1.0,6.513101000000461
629,2,0.8,1.0,35.0,1,1.0,6.815801000000192
630,2,0.8,0.25,-35.0,-1,1.0,0.303501000000324
631,2,0.8,0.125,-35.0,-1,1.0,0.6463010000002214
632,2,0.8,0.0625,-35.0,-1,1.0,0.5703010000001996
633,2,0.8,0.0,35.0,-1,0.0,0.6197010000000773
634,2,0.8,1.0,-35.0,-1,1.0,0.3271010000003116
635,2,0.8,0.0,35.0,-1,0.0,5.249801000000389
636,2,0.8,0.25,-35.0,-1,1.0,0.43070099999977174
637,2,0.8,1.0,-35.0,-1,1.0,0.3934009999998125
638,2,0.8,0.25,-35.0,-1,1.0,0.2675010000002658
639,2,0.8,0.0,35.0,-1,0.0,0.5334010000001399
640,2,0.8,0.0,-35.0,-1,1.0,6.017801000000418
641,2,0.8,0.0,-35.0,1,0.0,1.5305010000001857
642,2,0.8,0.0625,35.0,1,1.0,0.454801000000316
643,2,0.8,0.0625,35.0,1,1.0,0.4138009999996939
644,2,0.8,0.0,-35.0,1,0.0,4.918200999999954
645,2,0.8,1.0,-35.0,-1,1.0,0.24080099999991944
646,2,0.2,0.25,35.0,1,1.0,0.3617010000002665
647,2,0.2,0.25,35.0,1,1.0,0.5444010000005619
648,2,0.2,0.0,35.0,1,1.0,8.161900999999943
649,2,0.2,0.25,35.0,1,1.0,0.37130100000013044
650,2,0.2,0.0625,35.0,1,1.0,0.30890099999987797
651,2,0.2,0.125,-35.0,1,0.0,0.448301000000356
652,2,0.2,0.25,-35.0,-1,1.0,0.23580100000026505
653,2,0.2,0.125,35.0,1,1.0,0.2616010000001552
654,2,0.2,0.25,35.0,1,1.0,0.28260099999988597
655,2,0.2,1.0,35.0,1,1.0,0.20520100000021557
656,2,0.2,0.25,35.0,1,1.0,0.3862010000002556
657,2,0.2,0.25,35.0,1,1.0,0.42850099999986924
658,2,0.2,0.0625,35.0,1,1.0,0.3730009999999311
659,2,0.2,1.0,35.0,1,1.0,0.23860100000047169
660,2,0.2,0.0625,-35.0,-1,1.0,1.966301000000385
661,2,0.2,0.0,35.0,1,1.0,1.5454009999998561
662,2,0.2,0.0,35.0,-1,0.0,1.8833009999998467
663,2,0.2,0.0625,35.0,1,1.0,0.5393010000002505
664,2,0.2,1.0,-35.0,-1,1.0,0.23680100000001403
665,2,0.2,0.125,-35.0,-1,1.0,0.4062010000002374
666,2,0.2,0.0625,35.0,1,1.0,0.980301000000054
667,2,0.2,0.0,35.0,1,1.0,1.4362009999999827
668,2,0.2,0.25,35.0,1,1.0,0.3938010000001668
669,2,0.2,0.0,35.0,1,1.0,0.39970099999982267
670,2,0.2,0.0625,-35.0,-1,1.0,0.5174010000000635
671,2,0.2,0.0625,35.0,1,1.0,0.3366009999999733
672,2,0.2,0.25,35.0,1,1.0,0.23090099999990343
673,2,0.2,0.25,35.0,1,1.0,0.3369009999996706
674,2,0.2,0.125,35.0,1,1.0,0.22760100000004968
675,2,0.2,0.25,-35.0,-1,1.0,0.27680099999997765
676,2,0.2,0.125,35.0,1,1.0,0.25780100000019956
677,2,0.2,0.0,35.0,-1,0.0,0.3370010000003276
678,2,0.2,0.25,-35.0,-1,1.0,0.26820100000031744
679,2,0.2,0.125,-35.0,-1,1.0,0.5006010000001879
680,2,0.2,0.25,-35.0,-1,1.0,0.3116010000003371
681,2,0.2,0.0,35.0,-1,0.0,0.1439010000003691
682,2,0.2,0.25,35.0,1,1.0,0.6351009999998496
683,2,0.2,0.125,-35.0,-1,1.0,0.2375010000000657
684,2,0.2,1.0,-35.0,-1,1.0,0.24860099999978047
685,2,0.2,0.0,35.0,-1,0.0,0.29430100000035964
686,2,0.2,1.0,35.0,1,1.0,0.25530099999969025
687,2,0.2,0.25,35.0,1,1.0,0.20460099999991144
688,2,0.2,0.25,35.0,1,1.0,0.26550100000031307
689,2,0.2,0.25,35.0,1,1.0,0.22180100000014136
690,2,0.2,0.125,35.0,1,1.0,0.21560100000033344
691,2,0.2,0.0625,35.0,1,1.0,0.5950010000001384
692,2,0.2,0.0625,35.0,1,1.0,6.975901000000249
693,2,0.2,0.25,35.0,1,1.0,0.3418010000000322
694,2,0.2,0.0625,35.0,1,1.0,0.3161009999998896
695,2,0.2,1.0,35.0,1,1.0,0.22200100000009115
696,2,0.2,1.0,35.0,1,1.0,0.29620100000011007
697,2,0.2,0.0,35.0,1,1.0,0.5821009999995113
698,2,0.2,0.0625,35.0,1,1.0,3.196401000000151
699,2,0.2,1.0,35.0,1,1.0,0.2591010000001006
700,2,0.2,0.0625,35.0,-1,0.0,6.680001000000175
701,2,0.2,0.0625,35.0,1,1.0,7.136101000000053
702,2,0.2,0.0625,-35.0,-1,1.0,0.2738009999998212
703,2,0.2,0.25,35.0,1,1.0,0.41980100000000675
704,2,0.2,0.125,35.0,1,1.0,0.5606010000001334
705,2,0.2,1.0,35.0,1,1.0,0.32660100000020975
706,2,0.2,1.0,35.0,1,1.0,0.29080100000010134
707,2,0.2,0.125,35.0,1,1.0,0.5301009999998314
708,2,0.2,0.0,-35.0,1,0.0,0.4575009999998656
709,2,0.2,0.25,-35.0,-1,1.0,0.3238010000000031
710,2,0.8,0.0625,-35.0,-1,1.0,0.2710010000000693
711,2,0.8,0.125,-35.0,-1,1.0,0.4469010000002527
712,2,0.8,0.125,-35.0,-1,1.0,0.24450100000058228
713,2,0.8,0.125,35.0,1,1.0,1.9737010000003465
714,2,0.8,0.25,-35.0,-1,1.0,0.30140099999971426
715,2,0.8,0.125,-35.0,-1,1.0,0.30380100000047605
716,2,0.8,0.125,35.0,1,1.0,0.27480100000002494
717,2,0.8,0.0625,-35.0,-1,1.0,0.2209010000001399
718,2,0.8,1.0,-35.0,-1,1.0,0.3116010000003371
719,2,0.8,0.25,-35.0,-1,1.0,0.2978010000001632
720,2,0.8,0.0,-35.0,-1,1.0,0.32520100000010643
721,2,0.8,0.25,-35.0,-1,1.0,0.2610010000003058
722,2,0.8,0.125,-35.0,-1,1.0,0.26870099999996455
723,2,0.8,1.0,-35.0,-1,1.0,0.27830100000028324
724,2,0.8,0.0625,-35.0,-1,1.0,0.5721010000002025
725,2,0.8,0.0,-35.0,1,0.0,6.934800999999879
726,2,0.8,0.0,-35.0,-1,1.0,0.2257009999998445
727,2,0.8,0.125,35.0,1,1.0,0.5082010000000992
728,2,0.8,0.0,-35.0,-1,1.0,0.2426009999994676
729,2,0.8,0.0,-35.0,1,0.0,6.1020010000002
730,2,0.8,0.0,-35.0,-1,1.0,0.3795010000003458
731,2,0.8,0.0625,-35.0,-1,1.0,0.5589010000003327
732,2,0.8,1.0,-35.0,-1,1.0,0.4490009999999529
733,2,0.8,0.125,-35.0,-1,1.0,0.4757009999998445
734,2,0.8,0.0,35.0,-1,0.0,0.34650100000044404
735,2,0.8,0.25,-35.0,-1,1.0,0.6289010000000417
736,2,0.8,0.0625,-35.0,0,0.0,60.030001000000084
737,2,0.8,0.125,35.0,-1,0.0,8.807201000000077
738,2,0.8,0.25,35.0,1,1.0,7.034101000000192
739,2,0.8,0.125,-35.0,0,0.0,60.02850100000023
740,2,0.8,0.25,-35.0,1,0.0,9.275800999999774
741,2,0.8,0.125,-35.0,0,0.0,60.02280099999962
742,2,0.8,0.0625,-35.0,0,0.0,60.02770099999998
743,2,0.8,1.0,-35.0,-1,1.0,13.186400999999933
744,2,0.8,0.0,-0.0,0,0.0,60.03010099999983
745,2,0.8,0.125,-35.0,0,0.0,60.03060099999993
746,2,0.8,1.0,-35.0,-1,1.0,25.09290099999953
747,2,0.8,1.0,-35.0,0,0.0,60.029601000000184
748,2,0.8,0.125,-35.0,-1,1.0,20.65150100000028
749,2,0.8,0.25,-35.0,-1,1.0,1.5685010000001967
750,2,0.8,0.0,-35.0,1,0.0,0.6411010000006172
751,2,0.8,0.125,-35.0,1,0.0,15.685600999999679
752,2,0.8,0.25,-35.0,-1,1.0,17.058800999999676
753,2,0.8,0.0,35.0,1,1.0,18.483201000000463
754,2,0.8,0.0,-0.0,0,0.0,60.03930100000025
755,2,0.8,0.25,-35.0,1,0.0,26.277700999999524
756,2,0.8,1.0,-35.0,0,0.0,60.03140100000019
757,2,0.8,0.0625,-35.0,0,0.0,60.036101000000144
758,2,0.8,0.25,-35.0,-1,1.0,
759,2,0.8,1.0,-35.0,-1,1.0,16.418801000000258
760,2,0.8,0.0,-35.0,1,0.0,12.815200999999888
1,3,0.5,0.125,35.0,-1,0.0,1.0274
2,3,0.5,1.0,-35.0,-1,1.0,0.3818999999999999
3,3,0.5,0.25,-35.0,-1,1.0,1.7322999999999986
4,3,0.5,0.0,35.0,-1,0.0,1.9737999999999971
5,3,0.5,0.0625,35.0,1,1.0,0.285300000000003
6,3,0.5,0.0625,35.0,1,1.0,4.3215
7,3,0.5,0.0,-35.0,1,0.0,1.513300000000001
8,3,0.5,0.25,35.0,1,1.0,0.23389999999999844
9,3,0.5,0.0625,35.0,1,1.0,0.2856999999999985
10,3,0.5,0.0625,35.0,1,1.0,5.0394000000000005
11,3,0.5,0.0625,35.0,1,1.0,1.691200000000002
12,3,0.5,0.25,-35.0,-1,1.0,0.5075999999999965
13,3,0.5,0.0625,-35.0,1,0.0,2.989600000000003
14,3,0.5,0.125,35.0,1,1.0,0.2931999999999846
15,3,0.5,0.25,-35.0,-1,1.0,0.48040000000000305
16,3,0.5,0.125,35.0,1,1.0,0.34439999999999316
17,3,0.5,0.25,-35.0,-1,1.0,0.26539999999999964
18,3,0.5,0.125,-35.0,1,0.0,0.5377999999999901
19,3,0.5,1.0,35.0,1,1.0,0.5441000000000003
20,3,0.5,0.125,35.0,1,1.0,2.305800000000005
21,3,0.5,0.0,-35.0,1,0.0,0.4912999999999954
22,3,0.5,0.0,-35.0,1,0.0,0.3564000000000078
23,3,0.5,0.0625,35.0,-1,0.0,1.427999999999983
24,3,0.5,1.0,-35.0,-1,1.0,1.5725000000000051
25,3,0.5,0.0625,35.0,-1,0.0,7.03670000000001
26,3,0.5,0.25,-35.0,1,0.0,0.18149999999999977
27,3,0.5,0.25,-35.0,-1,1.0,0.4350999999999914
28,3,0.5,1.0,-35.0,-1,1.0,0.2868999999999744
29,3,0.5,0.0,-35.0,-1,1.0,0.4341000000000008
30,3,0.5,0.125,-35.0,-1,1.0,0.3316999999999837
31,3,0.5,0.125,35.0,1,1.0,1.8930000000000007
32,3,0.5,0.125,-35.0,-1,1.0,0.4286999999999921
33,3,0.5,0.0625,35.0,1,1.0,0.6876000000000033
34,3,0.5,1.0,-35.0,-1,1.0,0.3459999999999752
35,3,0.5,0.125,-35.0,-1,1.0,1.8911999999999694
36,3,0.5,0.0625,35.0,-1,0.0,0.28409999999999513
37,3,0.5,0.0,35.0,-1,0.0,0.5446999999999775
38,3,0.5,0.25,35.0,1,1.0,0.21809999999999263
39,3,0.5,1.0,-35.0,-1,1.0,0.29810000000000514
40,3,0.5,1.0,35.0,1,1.0,0.28069999999996753
41,3,0.5,0.25,35.0,1,1.0,0.573299999999989
42,3,0.5,0.0,-35.0,1,0.0,1.9628999999999905
43,3,0.5,0.25,-35.0,1,0.0,2.258999999999986
44,3,0.5,0.25,35.0,1,1.0,0.36089999999995825
45,3,0.5,0.25,-35.0,-1,1.0,2.004099999999994
46,3,0.5,0.0,35.0,1,1.0,1.9209999999999923
47,3,0.5,0.0,35.0,1,1.0,2.2085999999999615
48,3,0.5,0.0,-35.0,-1,1.0,2.1651999999999987
49,3,0.5,1.0,35.0,1,1.0,0.47759999999999536
50,3,0.5,0.25,35.0,1,1.0,0.21429999999998017
51,3,0.5,0.125,-35.0,1,0.0,1.897199999999998
52,3,0.5,0.25,-35.0,-1,1.0,0.6918000000000006
53,3,0.5,1.0,35.0,1,1.0,0.2295999999999765
54,3,0.5,0.125,35.0,1,1.0,1.6389999999999816
55,3,0.5,1.0,-35.0,-1,1.0,0.2552000000000021
56,3,0.5,0.125,35.0,1,1.0,0.3281999999999812
57,3,0.5,0.0625,35.0,1,1.0,4.190799999999996
58,3,0.5,1.0,-35.0,-1,1.0,0.3803999999999803
59,3,0.5,0.0,-35.0,1,0.0,1.6242999999999768
60,3,0.5,0.25,-35.0,-1,1.0,0.2291999999999348
61,3,0.5,0.0625,35.0,1,1.0,0.25720000000001164
62,3,0.5,1.0,-35.0,-1,1.0,0.2578999999999496
63,3,0.5,0.0625,35.0,1,1.0,2.7770000000000437
64,3,0.5,0.0,35.0,1,1.0,1.8941999999999553
65,3,0.5,0.25,35.0,1,1.0,0.5258999999999787
66,3,0.5,0.25,35.0,1,1.0,0.31019999999995207
67,3,0.5,0.0625,-35.0,1,0.0,2.483000000000004
68,3,0.5,0.125,35.0,1,1.0,0.34019999999998163
69,3,0.5,0.0625,-35.0,-1,1.0,0.28449999999998
70,3,0.5,0.25,35.0,1,1.0,0.2589999999999577
71,3,0.5,1.0,-35.0,-1,1.0,0.31419999999997117
72,3,0.5,1.0,35.0,1,1.0,0.37050000000004957
73,3,0.5,0.0625,-35.0,-1,1.0,0.49579999999997426
74,3,0.5,0.125,35.0,1,1.0,0.2643000000000484
75,3,0.5,0.0,35.0,-1,0.0,6.521500000000003
76,3,0.5,0.0,35.0,1,1.0,0.07179999999993925
77,3,0.5,0.25,35.0,1,1.0,0.7093999999999596
78,3,0.5,1.0,35.0,1,1.0,
79,3,0.5,1.0,-35.0,-1,1.0,0.22329999999999472
80,3,0.5,0.125,-35.0,1,0.0,1.4560000000000173
81,3,0.5,0.125,35.0,1,1.0,0.38489999999995916
82,3,0.5,0.125,35.0,1,1.0,0.3525999999999385
83,3,0.5,0.0,-35.0,1,0.0,1.897299999999973
84,3,0.5,0.125,-35.0,1,0.0,1.2875999999999976
85,3,0.5,1.0,-35.0,-1,1.0,0.5574999999999477
86,3,0.5,1.0,-35.0,-1,1.0,0.267599999999959
87,3,0.5,1.0,35.0,1,1.0,0.22610000000003083
88,3,0.5,0.25,35.0,1,1.0,0.3451999999999771
89,3,0.5,0.0625,35.0,1,1.0,0.3278999999999428
90,3,0.5,0.0,-35.0,1,0.0,0.3716999999999757
91,3,0.2,0.125,35.0,1,1.0,0.23399999999998045
92,3,0.2,0.125,35.0,1,1.0,0.6955999999999563
93,3,0.2,0.125,35.0,1,1.0,3.543700000000001
94,3,0.2,1.0,35.0,1,1.0,0.5124999999999886
95,3,0.2,1.0,35.0,1,1.0,0.22989999999998645
96,3,0.2,1.0,35.0,1,1.0,0.3661999999999921
97,3,0.2,0.0,35.0,1,1.0,2.938199999999938
98,3,0.2,0.0625,35.0,1,1.0,0.34679999999997335
99,3,0.2,0.125,35.0,-1,0.0,0.327699999999993
100,3,0.2,0.0,35.0,1,1.0,0.4741000000000213
101,3,0.2,0.25,35.0,1,1.0,0.20810000000000173
102,3,0.2,0.0,-35.0,1,0.0,0.28870000000000573
103,3,0.2,0.0,35.0,1,1.0,0.27830000000000155
104,3,0.2,0.25,35.0,1,1.0,0.26609999999999445
105,3,0.2,1.0,35.0,1,1.0,0.2148000000000252
106,3,0.2,0.125,35.0,1,1.0,0.2336999999999989
107,3,0.2,0.125,35.0,1,1.0,0.2647000000000048
108,3,0.2,0.25,35.0,1,1.0,0.21369999999996026
109,3,0.2,0.0,35.0,1,1.0,4.02049999999997
110,3,0.2,0.0,35.0,1,1.0,0.4130000000000109
111,3,0.2,0.0,-35.0,-1,1.0,1.541499999999985
112,3,0.2,0.0625,-35.0,-1,1.0,0.6160999999999603
113,3,0.2,0.0,35.0,1,1.0,0.28010000000000446
114,3,0.2,0.0,35.0,-1,0.0,0.47549999999995407
115,3,0.2,0.0,35.0,-1,0.0,0.3210000000000264
116,3,0.2,0.0625,-35.0,1,0.0,0.4267000000000394
117,3,0.2,0.25,35.0,1,1.0,0.33639999999996917
118,3,0.2,0.0625,35.0,1,1.0,1.8538000000000352
119,3,0.2,0.0625,35.0,1,1.0,0.22350000000000136
120,3,0.2,0.0,35.0,1,1.0,0.4087000000000103
121,3,0.2,1.0,-35.0,-1,1.0,0.28019999999997935
122,3,0.2,0.0,-35.0,1,0.0,0.3599999999999568
123,3,0.2,0.25,35.0,1,1.0,0.3453999999999837
124,3,0.2,0.0625,35.0,1,1.0,1.8800999999999704
125,3,0.2,0.25,35.0,1,1.0,0.19629999999995107
126,3,0.2,0.0,-35.0,1,0.0,1.8024999999998954
127,3,0.2,0.0625,35.0,1,1.0,0.2360999999999649
128,3,0.2,0.25,35.0,1,1.0,0.20299999999997453
129,3,0.2,0.0,35.0,1,1.0,1.0557999999999765
130,3,0.2,0.25,35.0,1,1.0,0.22000000000002728
131,3,0.2,0.0625,35.0,1,1.0,0.08230000000003201
132,3,0.2,0.125,35.0,1,1.0,0.21609999999998308
133,3,0.2,0.125,-35.0,1,0.0,0.2758000000000038
134,3,0.2,0.125,35.0,1,1.0,0.6067000000000462
135,3,0.2,0.0625,35.0,1,1.0,0.16430000000002565
136,3,0.2,1.0,-35.0,-1,1.0,0.28749999999990905
137,3,0.2,0.25,35.0,1,1.0,0.14999999999997726
138,3,0.2,0.0625,35.0,1,1.0,0.35800000000006094
139,3,0.2,0.0625,35.0,1,1.0,0.6475999999998976
140,3,0.2,0.25,35.0,1,1.0,0.26890000000003056
141,3,0.2,0.0625,35.0,1,1.0,1.2193999999999505
142,3,0.2,0.0,-35.0,1,0.0,0.43250000000000455
143,3,0.2,1.0,35.0,1,1.0,0.19460000000003674
144,3,0.2,0.25,35.0,1,1.0,0.2602999999999156
145,3,0.2,0.0625,35.0,1,1.0,0.25540000000000873
146,3,0.2,0.25,-35.0,1,0.0,0.5860000000000127
147,3,0.2,0.125,-35.0,-1,1.0,0.3589000000000624
148,3,0.2,0.0625,35.0,1,1.0,0.2464999999998554
149,3,0.2,0.0,-35.0,1,0.0,0.3147999999999911
150,3,0.2,0.0625,35.0,1,1.0,0.16889900000012403
151,3,0.2,1.0,35.0,1,1.0,0.12449999999989814
152,3,0.2,0.125,35.0,1,1.0,0.29739999999992506
153,3,0.2,0.0625,35.0,1,1.0,0.5897999999999683
154,3,0.2,1.0,35.0,1,1.0,0.1913000000000693
155,3,0.2,0.0625,35.0,1,1.0,0.2197999999999638
156,3,0.2,0.25,35.0,1,1.0,0.34829999999988104
157,3,0.2,0.0625,-35.0,-1,1.0,0.2900999999999385
158,3,0.2,0.0625,35.0,1,1.0,0.27119999999990796
159,3,0.2,0.125,35.0,1,1.0,0.6495000000001028
160,3,0.2,0.0,35.0,-1,0.0,0.6438999999999169
161,3,0.2,0.0625,35.0,1,1.0,0.3366999999999507
162,3,0.8,0.25,-35.0,-1,1.0,0.3025000000001228
163,3,0.8,1.0,-35.0,-1,1.0,0.20209999999997308
164,3,0.8,0.0,-35.0,1,0.0,0.6281000000000176
165,3,0.8,0.25,-35.0,-1,1.0,0.7645999999999731
166,3,0.8,0.125,-35.0,1,0.0,0.10819999999989705
167,3,0.8,0.125,-35.0,-1,1.0,0.3995999999998503
168,3,0.8,0.25,35.0,1,1.0,0.20509900000013204
169,3,0.8,0.125,-35.0,-1,1.0,0.6401999999999362
170,3,0.8,0.25,-35.0,-1,1.0,0.2598000000000411
171,3,0.8,1.0,35.0,1,1.0,0.20839999999998327
172,3,0.8,0.0625,-35.0,-1,1.0,0.27710000000001855
173,3,0.8,1.0,-35.0,-1,1.0,0.23080000000004475
174,3,0.8,1.0,35.0,1,1.0,0.2236000000000331
175,3,0.8,0.25,-35.0,-1,1.0,0.3352999999999611
176,3,0.8,0.0625,-35.0,-1,1.0,0.24470000000007985
177,3,0.8,0.0,35.0,1,1.0,0.20680000000004384
178,3,0.8,0.25,35.0,1,1.0,0.2502999999999247
179,3,0.8,0.0625,-35.0,-1,1.0,1.4478000000000293
180,3,0.8,0.0,-35.0,1,0.0,2.0878000000000156
181,3,0.8,1.0,35.0,1,1.0,0.1993999999999687
182,3,0.8,0.0625,-35.0,-1,1.0,0.33310000000005857
183,3,0.8,0.125,-35.0,-1,1.0,0.4579000000001088
184,3,0.8,1.0,-35.0,-1,1.0,0.41629999999997835
185,3,0.8,1.0,-35.0,-1,1.0,0.41980000000012296
186,3,0.8,0.25,-35.0,1,0.0,0.16070000000001983
187,3,0.8,0.25,-35.0,-1,1.0,0.2782000000000835
188,3,0.8,0.0625,-35.0,1,0.0,0.1414999999999509
189,3,0.8,0.0,-35.0,-1,1.0,0.2533000000000811
190,3,0.8,0.25,-35.0,-1,1.0,0.4353999999999587
191,3,0.8,1.0,-35.0,-1,1.0,0.37819999999999254
192,3,0.8,0.0,-35.0,-1,1.0,0.2700999999999567
193,3,0.8,0.125,-35.0,-1,1.0,0.2719000000000733
194,3,0.8,0.0,-35.0,-1,1.0,0.3150999999999158
195,3,0.8,0.0,-35.0,1,0.0,0.2821999999999889
196,3,0.8,0.125,-35.0,-1,1.0,0.4742999999999711
197,3,0.8,0.125,35.0,1,1.0,0.21139999999991232
198,3,0.8,0.125,-35.0,-1,1.0,0.2118000000000393
199,3,0.8,0.25,-35.0,-1,1.0,0.2723999999999478
200,3,0.8,0.0625,-35.0,-1,1.0,0.3950999999999567
201,3,0.8,0.125,-35.0,-1,1.0,0.2416000000000622
202,3,0.8,1.0,35.0,1,1.0,0.21490000000005693
203,3,0.8,0.0,35.0,1,1.0,0.20299999999997453
204,3,0.8,0.0625,-35.0,-1,1.0,0.2782999999999447
205,3,0.8,0.0625,-35.0,-1,1.0,0.5104999999999791
206,3,0.8,0.25,-35.0,-1,1.0,0.4154999999999518
207,3,0.8,1.0,-35.0,-1,1.0,0.45259999999996126
208,3,0.8,0.0625,-35.0,-1,1.0,0.28309999999999036
209,3,0.8,0.0,35.0,1,1.0,1.9979999999999336
210,3,0.8,0.125,-35.0,-1,1.0,0.4234000000000151
211,3,0.8,0.25,-35.0,-1,1.0,0.2282999999998765
212,3,0.8,0.0625,-35.0,1,0.0,0.20499999999992724
213,3,0.8,1.0,-35.0,-1,1.0,0.4896999999999707
214,3,0.8,0.0625,-35.0,-1,1.0,0.3266000000000986
215,3,0.8,0.0,-35.0,1,0.0,0.3066000000000031
216,3,0.8,0.125,-35.0,-1,1.0,0.1268999999999778
217,3,0.8,1.0,-35.0,-1,1.0,0.30939999999998236
218,3,0.8,0.0,-35.0,-1,1.0,1.5546999999999116
219,3,0.2,0.125,35.0,1,1.0,0.4214999999999236
220,3,0.2,1.0,35.0,1,1.0,0.2239999999999327
221,3,0.2,0.0625,35.0,1,1.0,0.21749999999997272
222,3,0.2,1.0,-35.0,-1,1.0,0.33299999999997
223,3,0.2,0.125,35.0,1,1.0,0.2664999999999509
224,3,0.2,0.0,35.0,-1,0.0,0.314200000000028
225,3,0.2,0.0625,35.0,1,1.0,0.3362999999999374
226,3,0.2,0.25,35.0,1,1.0,0.2536000000000058
227,3,0.2,0.25,35.0,1,1.0,0.2828999999999269
228,3,0.2,0.0625,35.0,1,1.0,0.27140000000008513
229,3,0.2,1.0,35.0,1,1.0,0.19319999999993342
230,3,0.2,0.0625,-35.0,1,0.0,0.9800000000000182
231,3,0.2,0.125,35.0,1,1.0,0.21649999999999636
232,3,0.2,0.125,-35.0,-1,1.0,0.3563000000000329
233,3,0.2,0.0,35.0,1,1.0,1.4557000000000926
234,3,0.2,1.0,35.0,1,1.0,0.26070000000004256
235,3,0.2,0.0,35.0,-1,0.0,0.5511000000000195
236,3,0.2,0.0625,35.0,1,1.0,0.3170999999999822
237,3,0.2,0.125,35.0,1,1.0,0.22359999999991942
238,3,0.2,0.125,35.0,1,1.0,0.20139999999992142
239,3,0.2,0.25,35.0,1,1.0,0.26549999999997453
240,3,0.2,0.25,35.0,1,1.0,0.20829999999989468
241,3,0.2,0.0625,35.0,1,1.0,0.45719999999994343
242,3,0.2,0.125,35.0,1,1.0,0.24049999999988358
243,3,0.2,1.0,35.0,1,1.0,0.2559999999999718
244,3,0.2,1.0,35.0,1,1.0,0.2074999999999818
245,3,0.2,0.0,35.0,1,1.0,0.22329999999999472
246,3,0.2,0.125,-35.0,-1,1.0,0.31330000000002656
247,3,0.2,1.0,35.0,1,1.0,0.223700000000008
248,3,0.2,0.0,35.0,1,1.0,1.67999999999995
249,3,0.2,0.125,-35.0,-1,1.0,0.6748000000000047
250,3,0.2,0.125,35.0,1,1.0,0.2238999999999578
251,3,0.2,0.25,-35.0,-1,1.0,0.426900000000046
252,3,0.2,0.25,35.0,1,1.0,0.405599000000052
253,3,0.2,0.125,35.0,1,1.0,0.2737000000000762
254,3,0.2,1.0,35.0,1,1.0,0.1974999999999909
255,3,0.2,0.125,-35.0,1,0.0,0.33809999999994034
256,3,0.2,0.25,35.0,1,1.0,0.3667000000000371
257,3,0.2,0.125,35.0,1,1.0,0.4676000000000613
258,3,0.2,1.0,-35.0,-1,1.0,0.27880000000004657
259,3,0.2,0.25,-35.0,-1,1.0,0.47469999999998436
260,3,0.2,0.0625,35.0,1,1.0,0.2479000000000724
261,3,0.2,0.0,-35.0,1,0.0,2.7323000000000093
262,3,0.2,0.125,35.0,1,1.0,0.3364999999998872
263,3,0.2,0.125,35.0,1,1.0,0.18280000000004293
264,3,0.2,0.0,35.0,-1,0.0,0.20669999999995525
265,3,0.2,0.25,35.0,1,1.0,0.2923999999999296
266,3,0.2,0.0,35.0,1,1.0,8.626699999999914
267,3,0.2,0.0,35.0,1,1.0,0.22600000000011278
268,3,0.2,0.125,35.0,1,1.0,0.2403999999999087
269,3,0.2,0.25,35.0,1,1.0,0.24299999999993815
270,3,0.2,1.0,35.0,1,1.0,0.2506010000001879
271,3,0.2,0.0,35.0,1,1.0,0.3463010000000395
272,3,0.2,0.125,35.0,1,1.0,0.29740099999980885
273,3,0.2,0.25,-35.0,-1,1.0,0.22000100000013845
274,3,0.2,0.0,35.0,-1,0.0,1.0476010000002134
275,3,0.2,1.0,35.0,1,1.0,0.20360099999993508
276,3,0.2,0.125,35.0,1,1.0,0.0878010000001268
277,3,0.2,0.125,35.0,1,1.0,0.2736010000000988
278,3,0.2,0.125,35.0,1,1.0,0.5046010000000933
279,3,0.2,0.125,35.0,1,1.0,0.48040100000002894
280,3,0.2,0.25,35.0,1,1.0,0.2547010000002956
281,3,0.2,0.125,35.0,1,1.0,0.44730100000015227
282,3,0.2,0.0,-35.0,1,0.0,0.27820100000008097
283,3,0.2,0.0,35.0,1,1.0,0.23050100000023122
284,3,0.2,0.125,35.0,1,1.0,0.5383010000002741
285,3,0.2,0.0,35.0,-1,0.0,3.2242009999999937
286,3,0.2,0.25,35.0,1,1.0,0.26850100000024213
287,3,0.2,0.125,35.0,1,1.0,0.2247010000003229
288,3,0.2,0.125,35.0,1,1.0,0.25860099999999875
289,3,0.2,0.0625,35.0,1,1.0,0.6348009999999249
290,3,0.2,0.25,35.0,1,1.0,0.38540100000000166
291,3,0.2,1.0,35.0,1,1.0,0.3415010000001075
292,3,0.2,1.0,-35.0,-1,1.0,0.25230100000021594
293,3,0.2,0.0,35.0,1,1.0,0.2581009999998969
294,3,0.2,0.0625,35.0,-1,0.0,0.26250100000015664
295,3,0.2,0.25,35.0,1,1.0,0.1685010000001057
296,3,0.2,1.0,35.0,1,1.0,0.18920100000013917
297,3,0.2,0.0625,35.0,1,1.0,0.20180100000015955
298,3,0.2,0.0625,35.0,-1,0.0,4.489600999999993
299,3,0.2,0.25,-35.0,-1,1.0,0.2557010000000446
300,3,0.2,0.0,35.0,-1,0.0,0.29310099999997874
301,3,0.2,0.0,35.0,1,1.0,0.27580100000022867
302,3,0.2,1.0,35.0,1,1.0,0.09990100000004531
303,3,0.8,0.0625,-35.0,-1,1.0,0.26000100000010207
304,3,0.8,1.0,35.0,1,1.0,0.23600100000021484
305,3,0.8,0.0625,-35.0,1,0.0,1.626901000000089
306,3,0.8,0.25,-35.0,-1,1.0,0.30260100000032253
307,3,0.8,1.0,-35.0,-1,1.0,0.2670010000001639
308,3,0.8,0.25,-35.0,-1,1.0,0.42970100000025013
309,3,0.8,1.0,-35.0,-1,1.0,0.32710100000008424
310,3,0.8,0.25,-35.0,-1,1.0,0.23660100000006423
311,3,0.8,0.25,35.0,1,1.0,0.26060100000017883
312,3,0.8,1.0,-35.0,-1,1.0,0.4069010000000617
313,3,0.8,0.25,35.0,1,1.0,0.3741010000003371
314,3,0.8,0.25,-35.0,-1,1.0,0.35300100000017665
315,3,0.8,0.125,-35.0,-1,1.0,0.30430100000035054
316,3,0.8,0.0,35.0,-1,0.0,0.26660100000003695
317,3,0.8,0.0,35.0,1,1.0,0.15440100000000712
318,3,0.8,0.0625,-35.0,1,0.0,0.11370099999999184
319,3,0.8,0.25,-35.0,-1,1.0,0.3979010000002745
320,3,0.8,0.25,-35.0,-1,1.0,0.1842010000002574
321,3,0.8,0.125,-35.0,-1,1.0,0.5714010000001508
322,3,0.8,0.125,35.0,-1,0.0,0.2436009999998987
323,3,0.8,0.125,35.0,1,1.0,0.19160099999999147
324,3,0.8,0.0,-35.0,1,0.0,0.1909010000001672
325,3,0.8,0.0,-35.0,-1,1.0,0.24180100000012317
326,3,0.8,0.0625,-35.0,-1,1.0,0.26410100000020975
327,3,0.8,0.0625,-35.0,-1,1.0,0.878601000000117
328,3,0.8,0.0,35.0,1,1.0,3.9943010000001777
329,3,0.8,1.0,35.0,1,1.0,0.30880100000013044
330,3,0.8,0.125,-35.0,-1,1.0,0.46790100000021084
331,3,0.8,0.0,-35.0,1,0.0,0.7023010000002614
332,3,0.8,0.125,-35.0,-1,1.0,0.22800100000017665
333,3,0.8,0.25,-35.0,-1,1.0,0.22230100000001585
334,3,0.8,0.125,-35.0,-1,1.0,0.24490100000002712
335,3,0.8,1.0,-35.0,-1,1.0,0.22590100000024904
336,3,0.8,0.0,-35.0,-1,1.0,0.9282009999999445
337,3,0.8,1.0,-35.0,-1,1.0,0.21940100000006169
338,3,0.8,0.0,-35.0,-1,1.0,1.4682010000001355
339,3,0.8,0.0625,-35.0,-1,1.0,1.0963010000002669
340,3,0.8,0.125,-35.0,-1,1.0,0.2689010000001417
341,3,0.8,0.0,-35.0,-1,1.0,1.449701000000232
342,3,0.8,0.0,-35.0,-1,1.0,0.3221009999999751
343,3,0.8,0.0,-35.0,-1,1.0,0.5298010000001341
344,3,0.8,0.125,35.0,1,1.0,0.2591010000001006
345,3,0.8,0.25,-35.0,-1,1.0,0.22000100000013845
346,3,0.8,0.0,-35.0,-1,1.0,2.6525010000000293
347,3,0.8,0.25,35.0,1,1.0,0.34690100000011626
348,3,0.8,0.0625,-35.0,-1,1.0,0.2958009999999831
349,3,0.8,0.0,-35.0,-1,1.0,0.28040100000021084
350,3,0.8,1.0,-35.0,-1,1.0,0.28650100000027123
351,3,0.8,0.0625,35.0,1,1.0,1.9805010000002312
352,3,0.8,0.125,35.0,1,1.0,0.2432009999999991
353,3,0.8,0.0,-35.0,1,0.0,0.573900999999978
354,3,0.8,0.125,-35.0,-1,1.0,0.6771009999999933
355,3,0.8,0.25,-35.0,-1,1.0,0.24750100000028397
356,3,0.8,0.125,-35.0,-1,1.0,0.46000099999992017
357,3,0.8,0.0625,35.0,-1,0.0,0.4810010000001057
358,3,0.8,0.125,-35.0,-1,1.0,0.28030100000000857
359,3,0.8,0.25,-35.0,-1,1.0,0.4646010000001297
360,3,0.8,1.0,-35.0,-1,1.0,0.22030100000006314
361,3,0.8,0.0625,-35.0,-1,1.0,0.2313010000000304
362,3,0.8,0.125,-35.0,-1,1.0,0.3766009999999369
363,3,0.8,0.25,-35.0,-1,1.0,0.25820100000009916
364,3,0.8,0.25,-35.0,-1,1.0,0.2508010000001377
365,3,0.8,0.0,-35.0,-1,1.0,0.2817010000001119
366,3,0.8,0.125,-35.0,-1,1.0,0.2840009999999893
367,3,0.8,0.25,-35.0,-1,1.0,0.6519010000001799
368,3,0.8,1.0,-35.0,-1,1.0,0.23450100000013663
369,3,0.8,0.125,-35.0,-1,1.0,0.588600999999926
370,3,0.8,1.0,-35.0,-1,1.0,0.25750100000027487
371,3,0.2,0.0625,-35.0,-1,1.0,0.2788010000003851
372,3,0.2,0.0,35.0,-1,0.0,0.4347010000001319
373,3,0.2,0.0,35.0,-1,0.0,0.2089010000001963
374,3,0.2,0.0625,35.0,1,1.0,0.2716010000001461
375,3,0.2,0.25,-35.0,-1,1.0,0.3923010000000886
376,3,0.2,1.0,35.0,1,1.0,0.23170100000015736
377,3,0.2,0.125,35.0,1,1.0,0.2558010000000195
378,3,0.2,0.25,35.0,1,1.0,0.23850100000004204
379,3,0.2,1.0,35.0,1,1.0,0.3526010000000497
380,3,0.2,0.125,35.0,1,1.0,0.23850100000004204
381,3,0.2,0.0,35.0,-1,0.0,1.5327010000003156
382,3,0.2,0.25,35.0,1,1.0,0.26200100000028215
383,3,0.2,0.0,-35.0,1,0.0,0.27630100000010316
384,3,0.2,0.25,35.0,1,1.0,0.24200100000007296
385,3,0.2,1.0,35.0,1,1.0,0.2031010000000606
386,3,0.2,0.25,35.0,1,1.0,0.20580100000006496
387,3,0.2,0.0625,35.0,1,1.0,0.7967009999999846
388,3,0.2,0.0,-35.0,-1,1.0,5.83920100000023
389,3,0.2,1.0,-35.0,-1,1.0,0.18600100000026032
390,3,0.2,0.25,35.0,1,1.0,0.2700009999998656
391,3,0.2,1.0,-35.0,-1,1.0,0.2272010000001501
392,3,0.2,0.125,35.0,1,1.0,0.299701000000141
393,3,0.2,1.0,-35.0,-1,1.0,0.34050100000013117
394,3,0.2,1.0,35.0,1,1.0,0.21270099999992453
395,3,0.8,0.25,-35.0,-1,1.0,0.24080100000014681
396,3,0.8,0.0625,35.0,1,1.0,0.21670099999982995
397,3,0.8,0.0625,-35.0,-1,1.0,0.2575010000000475
398,3,0.8,1.0,-35.0,-1,1.0,0.34680100000014136
399,3,0.8,0.125,-35.0,-1,1.0,0.2776010000000042
400,3,0.8,0.0625,-35.0,-1,1.0,0.2569010000001981
401,3,0.8,0.0625,-35.0,-1,1.0,0.5611010000000078
402,3,0.8,0.125,-35.0,-1,1.0,0.26030100000002676
403,3,0.8,0.0,-35.0,-1,1.0,0.52470100000005
404,3,0.8,0.25,-35.0,-1,1.0,0.27070100000014463
405,3,0.8,1.0,-35.0,-1,1.0,0.2815010000001621
406,3,0.8,0.0625,-35.0,-1,1.0,0.6543010000000322
407,3,0.8,1.0,35.0,1,1.0,0.21830099999988306
408,3,0.8,0.125,-35.0,-1,1.0,0.24070100000017192
409,3,0.8,0.0,-35.0,-1,1.0,0.3918010000002141
410,3,0.8,1.0,-35.0,-1,1.0,0.4874010000000908
411,3,0.8,0.25,-35.0,-1,1.0,0.24870099999998274
412,3,0.8,0.0,-35.0,-1,1.0,0.24440099999992526
413,3,0.8,0.0625,-35.0,-1,1.0,0.3054010000000744
414,3,0.8,0.125,-35.0,-1,1.0,0.30820100000028106
415,3,0.8,0.25,35.0,1,1.0,0.2548010000002705
416,3,0.8,0.25,-35.0,-1,1.0,0.3357010000001992
417,3,0.8,0.0,-35.0,-1,1.0,0.2752010000001519
418,3,0.8,0.0,-35.0,-1,1.0,6.655800999999883
419,3,0.8,1.0,-35.0,-1,1.0,0.4187010000000555
420,3,0.8,0.25,-35.0,-1,1.0,0.30280100000004495
421,3,0.8,0.0625,-35.0,-1,1.0,0.5854010000002745
422,3,0.8,1.0,-35.0,-1,1.0,0.16960100000005696
423,3,0.8,0.125,-35.0,-1,1.0,0.4689010000001872
424,3,0.8,0.0625,-35.0,-1,1.0,0.3963010000002214
425,3,0.8,1.0,-35.0,-1,1.0,0.26240099999995437
426,3,0.8,0.0625,-35.0,-1,1.0,0.2698010000001432
427,3,0.8,0.125,-35.0,-1,1.0,0.35920100000021193
428,3,0.8,0.0,-35.0,-1,1.0,0.6765010000001439
429,3,0.8,0.0625,-35.0,-1,1.0,0.4028010000001814
430,3,0.8,1.0,35.0,1,1.0,0.2834010000001399
431,3,0.8,0.0,35.0,-1,0.0,3.2891010000000733
432,3,0.8,0.125,-35.0,-1,1.0,0.42360100000018974
433,3,0.8,0.0,-35.0,1,0.0,2.6163010000000213
434,3,0.8,0.125,-35.0,-1,1.0,0.25060099999996055
435,3,0.8,0.25,-35.0,-1,1.0,0.24640100000010534
436,3,0.8,0.25,35.0,1,1.0,0.20410100000026432
437,3,0.8,0.25,-35.0,-1,1.0,0.26010100000007697
438,3,0.8,1.0,-35.0,-1,1.0,0.377601000000368
439,3,0.8,0.0625,-35.0,-1,1.0,0.29670099999998456
440,3,0.8,0.25,-35.0,-1,1.0,0.2776010000002316
441,3,0.8,1.0,35.0,1,1.0,0.25020100000006096
442,3,0.8,0.25,35.0,1,1.0,0.42790100000001985
443,3,0.8,0.25,-35.0,-1,1.0,0.2737010000000737
444,3,0.8,0.125,-35.0,-1,1.0,0.2548010000002705
445,3,0.8,1.0,-35.0,-1,1.0,0.4007010000000264
446,3,0.8,0.125,-35.0,-1,1.0,0.3583010000002105
447,3,0.8,1.0,-35.0,-1,1.0,0.6841010000000551
448,3,0.8,0.0625,-35.0,-1,1.0,2.3217010000000755
449,3,0.8,1.0,35.0,1,1.0,0.23140100000023267
450,3,0.8,0.0625,-35.0,1,0.0,0.32860100000016246
451,3,0.8,0.0625,-35.0,-1,1.0,0.41110100000014427
452,3,0.8,1.0,-35.0,1,0.0,0.18220100000007733
453,3,0.8,0.25,-35.0,-1,1.0,0.5879010000001017
454,3,0.8,0.0625,-35.0,-1,1.0,0.2956010000002607
455,3,0.8,0.25,-35.0,-1,1.0,0.1886010000000624
456,3,0.8,1.0,-35.0,-1,1.0,0.30240100000014536
457,3,0.8,1.0,-35.0,-1,1.0,0.19170100000019374
458,3,0.8,0.25,-35.0,-1,1.0,0.27590100000020357
459,3,0.8,0.0625,-35.0,-1,1.0,0.3619010000002163
460,3,0.8,0.0,-35.0,-1,1.0,0.3495010000001457
461,3,0.8,0.25,-35.0,-1,1.0,0.33540100000004713
462,3,0.8,1.0,35.0,1,1.0,0.2796009999999569
463,3,0.8,1.0,35.0,1,1.0,0.32280100000002676
464,3,0.8,0.0,-35.0,1,0.0,1.9298009999999977
465,3,0.8,0.125,-35.0,-1,1.0,0.36920100000020284
466,3,0.8,0.25,35.0,1,1.0,0.20330100000023776
467,3,0.8,0.25,-35.0,-1,1.0,0.4993010000000595
468,3,0.8,1.0,-35.0,-1,1.0,0.2668010000002141
469,3,0.8,0.0625,-35.0,-1,1.0,0.15940099999988888
470,3,0.8,0.0,-35.0,-1,1.0,0.38360099999999875
471,3,0.8,0.125,-35.0,-1,1.0,0.24600099999997838
472,3,0.8,0.25,35.0,1,1.0,0.2904009999999744
473,3,0.8,0.0,-35.0,-1,1.0,0.24300100000004932
474,3,0.8,1.0,-35.0,-1,1.0,0.5973010000000158
475,3,0.8,0.125,35.0,1,1.0,0.41010099999994054
476,3,0.8,0.0,-35.0,-1,1.0,0.32740100000000893
477,3,0.8,0.0,-35.0,-1,1.0,4.396501000000171
478,3,0.8,0.125,-35.0,-1,1.0,0.3743010000000595
479,3,0.8,0.125,-35.0,-1,1.0,0.46340100000020357
480,3,0.8,0.25,-35.0,-1,1.0,0.2511010000000624
481,3,0.2,0.0625,35.0,-1,0.0,0.7771010000001297
482,3,0.2,0.0625,-35.0,-1,1.0,0.3347009999999955
483,3,0.2,0.25,-35.0,-1,1.0,0.5474010000000362
484,3,0.2,0.25,35.0,1,1.0,0.3548009999999522
485,3,0.2,0.25,35.0,1,1.0,0.3044009999998707
486,3,0.2,0.25,35.0,1,1.0,0.3083010000000286
487,3,0.2,0.0,35.0,-1,0.0,0.37730099999998856
488,3,0.2,0.0625,35.0,1,1.0,0.2750010000002021
489,3,0.2,0.25,35.0,1,1.0,0.2210010000001148
490,3,0.2,1.0,-35.0,-1,1.0,0.27850100000000566
491,3,0.2,0.25,-35.0,-1,1.0,0.3344009999998434
492,3,0.2,0.25,35.0,1,1.0,0.2654010000001108
493,3,0.2,1.0,35.0,1,1.0,0.2410010000000966
494,3,0.2,0.25,35.0,1,1.0,0.28220100000021375
495,3,0.2,0.125,35.0,1,1.0,0.40130100000010316
496,3,0.2,0.125,35.0,-1,0.0,3.5257010000000264
497,3,0.2,0.0625,35.0,1,1.0,0.32490100000018174
498,3,0.2,0.25,-35.0,-1,1.0,0.24260099999992235
499,3,0.2,0.0625,-35.0,-1,1.0,0.2918010000000777
500,3,0.2,0.0625,35.0,-1,0.0,4.50930100000005
501,3,0.2,0.25,-35.0,-1,1.0,0.43870099999980994
502,3,0.2,0.0625,35.0,-1,0.0,0.4530010000000857
503,3,0.2,1.0,35.0,1,1.0,0.23230100000023413
504,3,0.2,1.0,-35.0,-1,1.0,0.5665010000000166
505,3,0.2,0.0,35.0,-1,0.0,0.45570100000009006
506,3,0.2,0.0625,35.0,-1,0.0,0.3100010000000566
507,3,0.2,1.0,35.0,1,1.0,0.238901000000169
508,3,0.2,0.25,-35.0,-1,1.0,0.276801000000205
509,3,0.2,1.0,35.0,1,1.0,0.23260100000015882
510,3,0.2,1.0,35.0,1,1.0,0.257001000000173
511,3,0.2,0.25,-35.0,-1,1.0,0.2830010000002403
512,3,0.2,0.125,35.0,1,1.0,4.63710100000003
513,3,0.2,0.25,35.0,1,1.0,0.28300100000001294
514,3,0.2,0.125,35.0,1,1.0,0.24070099999994454
515,3,0.2,0.25,35.0,1,1.0,0.25980100000015227
516,3,0.2,0.25,-35.0,-1,1.0,0.24420099999997547
517,3,0.2,0.0625,35.0,1,1.0,0.3499010000000453
518,3,0.2,0.25,-35.0,-1,1.0,0.2711010000000442
519,3,0.2,0.0,35.0,-1,0.0,0.5803009999999631
520,3,0.2,0.0625,35.0,1,1.0,0.25450100000011844
521,3,0.2,0.0,35.0,1,1.0,2.5936010000002625
522,3,0.2,0.125,35.0,1,1.0,0.41130100000009406
523,3,0.2,1.0,35.0,1,1.0,0.23060099999997874
524,3,0.2,0.0625,35.0,1,1.0,0.39150100000006205
525,3,0.2,0.25,35.0,1,1.0,0.37760100000014063
526,3,0.2,0.0625,35.0,-1,0.0,0.3717009999995753
527,3,0.2,1.0,35.0,1,1.0,0.20780100000001767
528,3,0.2,0.0,35.0,1,1.0,1.2386009999995622
529,3,0.2,0.0625,35.0,1,1.0,0.517500999999811
530,3,0.2,0.0625,35.0,1,1.0,0.2554009999998925
531,3,0.2,1.0,-35.0,-1,1.0,0.26120099999980084
532,3,0.2,1.0,35.0,1,1.0,0.17890099999976883
533,3,0.2,0.0625,35.0,1,1.0,0.2112010000000737
534,3,0.2,1.0,-35.0,-1,1.0,0.24560100000007878
535,3,0.2,0.0,35.0,-1,0.0,0.281601000000137
536,3,0.2,0.125,35.0,1,1.0,0.27600100000017846
537,3,0.2,0.25,35.0,1,1.0,0.2949009999997543
538,3,0.2,0.0625,35.0,1,1.0,9.136000999999851
539,3,0.2,0.125,35.0,1,1.0,0.26910099999986414
540,3,0.2,0.0625,-35.0,-1,1.0,0.30290100000001985
541,3,0.2,0.0625,35.0,1,1.0,0.24880099999973027
542,3,0.2,0.0625,35.0,1,1.0,0.3731009999996786
543,3,0.2,0.0625,35.0,1,1.0,0.2690010000001166
544,3,0.2,0.25,35.0,1,1.0,0.3901010000004135
545,3,0.2,0.25,35.0,1,1.0,0.23890099999971426
546,3,0.2,1.0,-35.0,-1,1.0,0.48680100000001403
547,3,0.2,0.0,35.0,-1,0.0,2.1992009999999027
548,3,0.2,1.0,-35.0,-1,1.0,0.19030099999963568
549,3,0.2,0.0625,35.0,-1,0.0,0.45600100000001476
550,3,0.8,0.0,35.0,-1,0.0,0.31060100000013335
551,3,0.8,1.0,-35.0,1,0.0,0.1198010000002796
552,3,0.8,0.0,-35.0,1,0.0,0.4774010000000999
553,3,0.8,0.25,35.0,1,1.0,0.2831009999995331
554,3,0.8,0.125,-35.0,-1,1.0,0.161000999999942
555,3,0.8,0.0,-35.0,-1,1.0,6.250300999999581
556,3,0.8,1.0,-35.0,-1,1.0,0.23460099999965678
557,3,0.8,1.0,-35.0,-1,1.0,0.23040099999980157
558,3,0.8,1.0,-35.0,-1,1.0,0.2913010000002032
559,3,0.8,0.25,-35.0,-1,1.0,0.21730099999967933
560,3,0.8,0.125,-35.0,-1,1.0,0.37470100000018647
561,3,0.8,0.125,-35.0,-1,1.0,0.23730099999966114
562,3,0.8,0.0,-35.0,-1,1.0,0.27820100000008097
563,3,0.8,0.0625,-35.0,1,0.0,0.2075009999998656
564,3,0.8,0.0,-35.0,-1,1.0,0.30510099999992235
565,3,0.8,0.25,-35.0,-1,1.0,0.3246009999998023
566,3,0.8,0.25,-35.0,-1,1.0,1.1252009999998336
567,3,0.8,0.0625,35.0,1,1.0,0.654500999999982
568,3,0.8,0.125,-35.0,-1,1.0,0.4422010000002956
569,3,0.8,0.0625,-35.0,-1,1.0,0.45800099999996746
570,3,0.8,1.0,-35.0,-1,1.0,0.2891010000003007
571,3,0.8,0.0,-35.0,-1,1.0,0.46500099999957456
572,3,0.8,0.125,-35.0,-1,1.0,0.2459009999997761
573,3,0.8,0.25,-35.0,-1,1.0,0.30490099999997256
