trial_num,session_num,stim_probability_left,contrast,position,response_choice,trial_correct,reaction_time
1,1,0.5,1.0,35.0,1,1.0,0.3917999999999995
2,1,0.5,0.125,35.0,1,1.0,0.2508999999999997
3,1,0.5,0.125,-35.0,1,0.0,2.8328000000000007
4,1,0.5,0.0625,-35.0,1,0.0,0.2551009999999998
5,1,0.5,1.0,35.0,1,1.0,0.47509999999999764
6,1,0.5,0.125,35.0,1,1.0,0.3661009999999969
7,1,0.5,0.25,-35.0,-1,1.0,0.2251000000000012
8,1,0.5,0.125,-35.0,1,0.0,0.45670000000000144
9,1,0.5,0.0,35.0,-1,0.0,0.20440100000001138
10,1,0.5,0.125,35.0,1,1.0,0.2027000000000001
11,1,0.5,0.25,-35.0,-1,1.0,0.21920000000000073
12,1,0.5,0.25,-35.0,-1,1.0,0.2732999999999919
13,1,0.5,1.0,-35.0,-1,1.0,0.22010000000000218
14,1,0.5,0.25,35.0,1,1.0,0.31450000000000955
15,1,0.5,1.0,-35.0,-1,1.0,0.20079999999999387
16,1,0.5,1.0,-35.0,-1,1.0,0.6640000000000015
17,1,0.5,0.125,35.0,1,1.0,0.3399000000000001
18,1,0.5,0.125,-35.0,-1,1.0,0.45300000000000296
19,1,0.5,0.125,-35.0,-1,1.0,0.23710099999999557
20,1,0.5,0.0625,-35.0,1,0.0,1.805301
21,1,0.5,0.25,35.0,1,1.0,0.470201000000003
22,1,0.5,0.0,-35.0,-1,1.0,0.340800999999999
23,1,0.5,0.25,-35.0,-1,1.0,0.2512009999999947
24,1,0.5,1.0,-35.0,-1,1.0,0.5450009999999992
25,1,0.5,0.0,-35.0,-1,1.0,0.4522009999999881
26,1,0.5,1.0,-35.0,-1,1.0,0.24969999999999004
27,1,0.5,0.0625,35.0,1,1.0,0.6924999999999955
28,1,0.5,0.25,35.0,1,1.0,0.3205999999999989
29,1,0.5,0.125,-35.0,1,0.0,4.0083000000000055
30,1,0.5,1.0,-35.0,-1,1.0,0.21930100000000152
31,1,0.5,0.0,-35.0,-1,1.0,0.26450099999999566
32,1,0.5,0.0,-35.0,-1,1.0,0.24150100000001373
33,1,0.5,0.25,-35.0,-1,1.0,0.24449999999998795
34,1,0.5,0.125,-35.0,1,0.0,2.9488000000000056
35,1,0.5,1.0,-35.0,-1,1.0,0.24450000000001637
36,1,0.5,0.125,-35.0,-1,1.0,0.27949999999998454
37,1,0.5,0.0,-35.0,-1,1.0,0.5027000000000044
38,1,0.5,0.0625,-35.0,1,0.0,3.4385010000000023
39,1,0.5,0.25,-35.0,-1,1.0,0.20660100000000625
40,1,0.5,0.25,-35.0,-1,1.0,0.4998999999999967
41,1,0.5,0.125,35.0,1,1.0,0.33440100000001394
42,1,0.5,0.25,35.0,1,1.0,0.35499999999998977
43,1,0.5,0.25,-35.0,-1,1.0,0.23439999999999372
44,1,0.5,0.125,35.0,-1,0.0,0.271300999999994
45,1,0.5,0.0,35.0,-1,0.0,0.2256009999999833
46,1,0.5,1.0,-35.0,-1,1.0,0.22859999999997171
47,1,0.5,1.0,35.0,1,1.0,0.2654009999999971
48,1,0.5,1.0,35.0,1,1.0,0.2356009999999742
49,1,0.5,1.0,-35.0,-1,1.0,0.21059999999997103
50,1,0.5,0.25,35.0,1,1.0,0.296701000000013
51,1,0.5,0.25,35.0,1,1.0,0.2657999999999845
52,1,0.5,0.125,35.0,1,1.0,0.8703009999999836
53,1,0.5,0.125,-35.0,-1,1.0,0.2878000000000043
54,1,0.5,0.0625,35.0,1,1.0,0.464100999999971
55,1,0.5,0.25,-35.0,-1,1.0,0.23279999999999745
56,1,0.5,1.0,-35.0,-1,1.0,0.3840009999999836
57,1,0.5,0.0625,-35.0,1,0.0,0.4522000000000048
58,1,0.5,0.25,35.0,-1,0.0,0.1897999999999911
59,1,0.5,0.25,-35.0,-1,1.0,0.9478010000000268
60,1,0.5,1.0,-35.0,-1,1.0,0.23240100000001007
61,1,0.5,0.0625,35.0,-1,0.0,0.24679999999997904
62,1,0.5,0.25,35.0,1,1.0,0.516600000000011
63,1,0.5,0.0,35.0,-1,0.0,0.24809999999996535
64,1,0.5,0.0,-35.0,-1,1.0,1.7516009999999937
65,1,0.5,0.125,35.0,1,1.0,0.23490099999997938
66,1,0.5,0.0,35.0,-1,0.0,0.25670000000002346
67,1,0.5,0.0625,-35.0,-1,1.0,0.3089010000000485
68,1,0.5,0.25,-35.0,-1,1.0,0.28489999999999327
69,1,0.5,1.0,35.0,1,1.0,0.4297000000000253
70,1,0.5,0.0,35.0,-1,0.0,0.2716000000000349
71,1,0.5,0.125,35.0,-1,0.0,0.22390100000001212
72,1,0.5,1.0,35.0,1,1.0,0.5960999999999785
73,1,0.5,0.0625,-35.0,-1,1.0,0.26940100000007305
74,1,0.5,0.0,-35.0,-1,1.0,0.28150000000005093
75,1,0.5,0.0625,-35.0,-1,1.0,0.24290100000001758
76,1,0.5,0.125,35.0,-1,0.0,0.23300100000000157
77,1,0.5,0.0625,-35.0,-1,1.0,0.23500100000006796
78,1,0.5,0.125,-35.0,-1,1.0,0.251700000000028
79,1,0.5,0.25,-35.0,-1,1.0,0.24610000000001264
80,1,0.5,1.0,35.0,1,1.0,0.48940099999998665
81,1,0.5,1.0,35.0,1,1.0,0.24909999999999854
82,1,0.5,0.0,35.0,-1,0.0,0.2615000000000691
83,1,0.5,0.25,-35.0,-1,1.0,
84,1,0.5,0.0,-35.0,-1,1.0,0.2807000000000244
85,1,0.5,0.0625,-35.0,1,0.0,0.9186000000000263
86,1,0.5,0.125,35.0,1,1.0,0.2858999999999696
87,1,0.5,0.0625,-35.0,-1,1.0,2.178200000000004
88,1,0.5,0.25,-35.0,-1,1.0,0.7492000000000303
89,1,0.5,1.0,35.0,1,1.0,0.24110000000007403
90,1,0.5,0.25,35.0,-1,0.0,0.47690100000005486
91,1,0.8,0.25,-35.0,-1,1.0,0.2675000000000409
92,1,0.8,0.0625,-35.0,-1,1.0,0.2622000000000071
93,1,0.8,0.0625,-35.0,-1,1.0,0.267201
94,1,0.8,0.125,-35.0,-1,1.0,0.2300000000000182
95,1,0.8,1.0,35.0,-1,0.0,0.25850100000002385
96,1,0.8,0.125,-35.0,1,0.0,0.504099999999994
97,1,0.8,0.0,-35.0,1,0.0,0.3021009999999933
98,1,0.8,0.125,-35.0,-1,1.0,0.24190000000004375
99,1,0.8,0.25,-35.0,-1,1.0,0.24440000000004147
100,1,0.8,0.125,-35.0,-1,1.0,0.24660000000005766
101,1,0.8,0.125,35.0,1,1.0,0.46800000000001774
102,1,0.8,0.125,-35.0,-1,1.0,0.6347999999999843
103,1,0.8,0.25,-35.0,-1,1.0,0.22780000000005884
104,1,0.8,0.25,-35.0,-1,1.0,3.583301000000006
105,1,0.8,0.125,-35.0,1,0.0,1.0581000000000245
106,1,0.8,0.25,-35.0,-1,1.0,0.26250100000004295
107,1,0.8,0.0,35.0,-1,0.0,2.582400000000007
108,1,0.8,0.125,-35.0,-1,1.0,1.7228999999999814
109,1,0.8,0.0625,-35.0,-1,1.0,0.4654010000000426
110,1,0.8,0.125,-35.0,-1,1.0,0.24000100000000657
111,1,0.8,0.25,-35.0,-1,1.0,0.2436010000000124
112,1,0.8,0.125,-35.0,-1,1.0,0.2409000000000674
113,1,0.8,0.0625,35.0,-1,0.0,0.9516010000000961
114,1,0.8,1.0,-35.0,-1,1.0,0.20670100000006641
115,1,0.2,0.125,-35.0,-1,1.0,0.2852010000000291
116,1,0.2,0.25,35.0,-1,0.0,0.26310000000000855
117,1,0.2,0.0,35.0,1,1.0,0.5914999999999964
118,1,0.2,0.0,35.0,1,1.0,0.5950009999999679
119,1,0.2,0.0,-35.0,-1,1.0,0.23610000000007858
120,1,0.2,0.25,35.0,1,1.0,0.33470000000005484
121,1,0.2,0.25,35.0,1,1.0,0.5557000000000016
122,1,0.2,0.0625,35.0,-1,0.0,0.43520000000006576
123,1,0.2,0.0625,35.0,1,1.0,0.6317010000000209
124,1,0.2,0.125,35.0,1,1.0,0.6057010000000105
125,1,0.2,0.25,-35.0,-1,1.0,0.2591000000000463
126,1,0.2,0.25,-35.0,-1,1.0,0.2728010000000154
127,1,0.2,0.0625,35.0,1,1.0,0.6017999999999688
128,1,0.2,1.0,35.0,1,1.0,0.48790000000002465
129,1,0.2,0.0,35.0,1,1.0,0.6006009999999833
130,1,0.2,0.0625,35.0,-1,0.0,0.3223010000000386
131,1,0.2,1.0,35.0,1,1.0,0.2617000000000189
132,1,0.2,0.125,35.0,1,1.0,0.2972010000000296
133,1,0.2,0.25,35.0,1,1.0,0.3365000000000009
134,1,0.2,0.0625,35.0,1,1.0,0.43430000000000746
135,1,0.2,1.0,35.0,1,1.0,0.34410000000002583
136,1,0.2,1.0,35.0,1,1.0,0.48910000000000764
137,1,0.2,0.125,35.0,1,1.0,0.45499999999992724
138,1,0.2,0.0,35.0,1,1.0,3.37720000000013
139,1,0.2,0.0625,35.0,1,1.0,0.3040999999999485
140,1,0.2,1.0,-35.0,1,0.0,0.39039999999999964
141,1,0.2,1.0,35.0,1,1.0,0.26290000000005875
142,1,0.2,1.0,35.0,1,1.0,0.8511000000000877
143,1,0.2,0.0,35.0,1,1.0,5.517700999999988
144,1,0.2,0.0,35.0,1,1.0,0.24990100000002258
145,1,0.2,0.0,35.0,1,1.0,0.259900000000016
146,1,0.2,0.25,35.0,1,1.0,0.2985000000001037
147,1,0.2,1.0,35.0,1,1.0,0.2857010000000173
148,1,0.2,0.0,35.0,1,1.0,0.5077999999999747
149,1,0.2,0.0625,35.0,1,1.0,0.42370100000005095
150,1,0.2,0.125,-35.0,-1,1.0,0.31750000000010914
151,1,0.2,0.25,-35.0,-1,1.0,0.25680099999999584
152,1,0.2,0.125,35.0,1,1.0,0.5426000000001068
153,1,0.2,0.125,35.0,1,1.0,0.5221000000000231
154,1,0.2,0.0,-35.0,1,0.0,1.1510999999999285
155,1,0.2,1.0,35.0,1,1.0,0.2497000000000753
156,1,0.2,1.0,35.0,1,1.0,0.23019999999996799
157,1,0.2,1.0,35.0,1,1.0,0.25610100000005787
158,1,0.2,1.0,35.0,1,1.0,0.4963999999999942
159,1,0.2,0.0625,-35.0,-1,1.0,0.28720000000009804
160,1,0.2,0.25,-35.0,-1,1.0,0.2029009999999971
161,1,0.2,0.25,-35.0,-1,1.0,0.24109999999996035
162,1,0.2,0.0,35.0,-1,0.0,0.2640999999999849
163,1,0.2,0.25,35.0,1,1.0,0.38310100000001057
164,1,0.2,1.0,35.0,1,1.0,0.4152000000000271
165,1,0.2,0.25,-35.0,-1,1.0,0.2622000000000071
166,1,0.2,0.125,-35.0,-1,1.0,0.2441000000000031
167,1,0.2,0.125,-35.0,-1,1.0,0.3443000000000893
168,1,0.2,1.0,-35.0,-1,1.0,0.23429999999996198
169,1,0.2,0.0,-35.0,1,0.0,0.5611999999999853
170,1,0.2,0.25,35.0,1,1.0,0.564200000000028
171,1,0.2,0.125,35.0,-1,0.0,0.24470000000007985
172,1,0.2,0.25,-35.0,-1,1.0,0.48010099999999056
173,1,0.2,0.25,35.0,-1,0.0,0.2574000000000751
174,1,0.2,1.0,35.0,1,1.0,0.37449999999989814
175,1,0.2,1.0,35.0,1,1.0,0.2379000000000815
176,1,0.2,0.25,35.0,1,1.0,0.360300000000052
177,1,0.2,0.125,35.0,1,1.0,0.5454009999999698
178,1,0.2,1.0,35.0,1,1.0,0.38580099999990125
179,1,0.2,0.0625,-35.0,-1,1.0,0.7944999999999709
180,1,0.8,0.125,-35.0,-1,1.0,0.28260099999999966
181,1,0.8,0.125,-35.0,-1,1.0,0.2908999999999651
182,1,0.8,1.0,-35.0,-1,1.0,0.25060000000007676
183,1,0.8,1.0,-35.0,-1,1.0,0.22640000000001237
184,1,0.8,0.25,-35.0,-1,1.0,0.3299010000000635
185,1,0.8,1.0,-35.0,-1,1.0,0.24040100000001985
186,1,0.8,0.125,-35.0,-1,1.0,0.263800999999944
187,1,0.8,0.0625,-35.0,-1,1.0,0.3305000000000291
188,1,0.8,1.0,-35.0,-1,1.0,0.24149999999997362
189,1,0.8,0.0625,-35.0,-1,1.0,0.2375000000000682
190,1,0.8,0.0,35.0,-1,0.0,0.2581000000000131
191,1,0.8,1.0,35.0,1,1.0,0.32960000000002765
192,1,0.8,1.0,-35.0,-1,1.0,0.33750099999997474
193,1,0.8,1.0,-35.0,-1,1.0,0.25470100000006823
194,1,0.8,0.0,-35.0,1,0.0,0.49060099999996964
195,1,0.8,0.25,-35.0,-1,1.0,0.2556000000000722
196,1,0.8,0.25,-35.0,-1,1.0,0.2499000000000251
197,1,0.8,0.25,-35.0,-1,1.0,0.23460100000011153
198,1,0.8,0.0625,35.0,1,1.0,0.5504009999999653
199,1,0.8,0.0625,-35.0,-1,1.0,0.23270000000002256
200,1,0.8,0.0,-35.0,1,0.0,0.5959010000000262
201,1,0.8,0.0625,35.0,-1,0.0,0.2534010000000535
202,1,0.8,0.0,-35.0,1,0.0,0.9371999999999616
203,1,0.8,0.125,-35.0,-1,1.0,0.21690100000000712
204,1,0.8,0.125,35.0,-1,0.0,0.23910000000000764
205,1,0.8,0.25,35.0,1,1.0,0.30710000000010496
206,1,0.8,0.125,-35.0,-1,1.0,0.22260100000005423
207,1,0.8,0.25,-35.0,-1,1.0,0.24090100000000803
208,1,0.8,1.0,-35.0,-1,1.0,0.24510099999997692
209,1,0.8,0.125,-35.0,-1,1.0,0.6750000000000682
210,1,0.8,0.0,35.0,-1,0.0,0.2449010000001408
211,1,0.8,0.0,-35.0,-1,1.0,2.216801000000032
212,1,0.8,1.0,35.0,1,1.0,0.6394999999999982
213,1,0.8,0.25,35.0,-1,0.0,0.2458000000000311
214,1,0.8,0.125,35.0,-1,0.0,0.1977000000000544
215,1,0.8,1.0,-35.0,-1,1.0,0.22400100000004386
216,1,0.8,1.0,-35.0,-1,1.0,0.25060000000007676
217,1,0.8,1.0,-35.0,-1,1.0,0.22690000000000055
218,1,0.8,0.0,-35.0,-1,1.0,0.5242000000000644
219,1,0.8,0.0625,35.0,-1,0.0,0.20299999999997453
220,1,0.8,0.0625,-35.0,-1,1.0,0.3129999999999882
221,1,0.8,0.125,-35.0,-1,1.0,0.227800000000002
222,1,0.8,0.25,-35.0,-1,1.0,0.24270100000001094
223,1,0.8,0.25,-35.0,-1,1.0,0.25120000000003984
224,1,0.8,0.0625,-35.0,-1,1.0,0.24869999999998527
225,1,0.8,0.25,-35.0,-1,1.0,0.22699999999997544
226,1,0.2,0.0,35.0,-1,0.0,0.2340000000000373
227,1,0.2,0.0625,35.0,1,1.0,0.3698010000000522
228,1,0.2,0.0625,35.0,1,1.0,0.4468009999999367
229,1,0.2,1.0,-35.0,-1,1.0,0.26400000000001
230,1,0.2,0.0625,35.0,1,1.0,0.3137010000000373
231,1,0.2,0.25,35.0,1,1.0,0.5550009999999475
232,1,0.2,0.25,35.0,-1,0.0,0.21860000000003765
233,1,0.2,0.25,35.0,1,1.0,0.3461000000000922
234,1,0.2,0.0,35.0,1,1.0,0.659601000000066
235,1,0.2,0.125,35.0,-1,0.0,0.760900000000106
236,1,0.2,1.0,35.0,1,1.0,0.5616000000001122
237,1,0.2,0.0,35.0,-1,0.0,0.3612000000000535
238,1,0.2,0.0,-35.0,1,0.0,0.2623000000000957
239,1,0.2,0.125,35.0,1,1.0,0.3362999999999374
240,1,0.2,0.25,-35.0,-1,1.0,0.24230099999999766
241,1,0.2,0.25,35.0,1,1.0,0.36740099999997256
242,1,0.2,0.125,35.0,1,1.0,0.8368000000000393
243,1,0.2,0.0,35.0,-1,0.0,0.6843000000000075
244,1,0.2,0.0,35.0,-1,0.0,0.22899999999992815
245,1,0.2,0.0,35.0,-1,0.0,0.31880100000000766
246,1,0.2,0.25,35.0,1,1.0,0.3169000000000324
247,1,0.2,0.0625,35.0,-1,0.0,0.2133000000001175
248,1,0.2,0.0,35.0,1,1.0,0.24980100000016137
249,1,0.8,0.125,-35.0,1,0.0,0.5133999999999332
250,1,0.8,0.25,-35.0,-1,1.0,0.24620100000004186
251,1,0.8,1.0,-35.0,-1,1.0,0.21050000000002456
252,1,0.8,0.0,-35.0,-1,1.0,0.26000100000010207
253,1,0.8,0.25,-35.0,-1,1.0,0.22850100000005114
254,1,0.8,0.0,-35.0,-1,1.0,0.19510000000002492
255,1,0.8,0.0625,-35.0,-1,1.0,0.2353010000000495
256,1,0.8,0.0,-35.0,1,0.0,0.8333999999999833
257,1,0.8,0.25,35.0,1,1.0,0.3914999999999509
258,1,0.8,0.25,-35.0,1,0.0,0.4917000000000371
259,1,0.8,0.25,35.0,1,1.0,0.4475000000001046
260,1,0.8,0.125,-35.0,-1,1.0,5.015400000000113
261,1,0.8,1.0,-35.0,-1,1.0,0.26050000000009277
262,1,0.8,1.0,-35.0,-1,1.0,0.27120000000002165
263,1,0.8,1.0,35.0,1,1.0,0.4835000000000491
264,1,0.8,0.25,-35.0,-1,1.0,0.23140000000000782
265,1,0.8,1.0,-35.0,-1,1.0,0.24270100000001094
266,1,0.8,1.0,35.0,1,1.0,0.6917009999999664
267,1,0.8,0.0625,35.0,-1,0.0,0.5465000000000373
268,1,0.8,0.25,-35.0,-1,1.0,0.36849999999981264
269,1,0.8,1.0,-35.0,-1,1.0,0.4267009999998663
270,1,0.8,0.0,-35.0,-1,1.0,0.5683999999998832
271,1,0.8,0.25,-35.0,-1,1.0,0.5606999999999971
272,1,0.8,0.25,-35.0,1,0.0,0.5452999999999975
273,1,0.8,0.0,-35.0,-1,1.0,0.2800999999999476
274,1,0.8,1.0,-35.0,-1,1.0,0.23560100000008788
275,1,0.8,0.0625,-35.0,-1,1.0,0.300899999999956
276,1,0.8,0.125,-35.0,-1,1.0,0.5690010000000711
277,1,0.8,0.125,35.0,1,1.0,0.42380099999991216
278,1,0.8,1.0,-35.0,-1,1.0,0.24610099999995327
279,1,0.8,0.25,-35.0,-1,1.0,0.33780000000001564
280,1,0.8,1.0,-35.0,-1,1.0,0.1994999999999436
281,1,0.8,0.0625,-35.0,-1,1.0,0.41439999999988686
282,1,0.8,0.125,-35.0,-1,1.0,0.23279999999999745
283,1,0.8,0.125,-35.0,-1,1.0,0.3748000000000502
284,1,0.8,0.125,-35.0,-1,1.0,0.24630000000001928
285,1,0.8,0.0,-35.0,-1,1.0,0.3686999999999898
286,1,0.8,1.0,-35.0,-1,1.0,0.7299000000000433
287,1,0.8,0.0625,-35.0,-1,1.0,0.2518999999999778
288,1,0.8,0.0625,35.0,-1,0.0,0.23000099999990198
289,1,0.8,0.25,35.0,1,1.0,0.30490099999997256
290,1,0.8,0.125,-35.0,-1,1.0,0.25020000000017717
291,1,0.8,0.125,-35.0,-1,1.0,0.26919999999995525
292,1,0.8,0.0625,-35.0,-1,1.0,0.40039999999999054
293,1,0.8,1.0,-35.0,-1,1.0,0.24190100000009807
294,1,0.8,0.125,-35.0,-1,1.0,0.3973000000000866
295,1,0.8,0.0625,-35.0,-1,1.0,0.18630000000007385
296,1,0.8,0.125,-35.0,-1,1.0,0.24420000000009168
297,1,0.2,1.0,35.0,1,1.0,0.6691009999999551
298,1,0.2,0.25,-35.0,-1,1.0,0.2343999999998232
299,1,0.2,0.0625,35.0,1,1.0,0.43280000000004293
300,1,0.2,1.0,-35.0,-1,1.0,0.21460000000001855
301,1,0.2,1.0,35.0,1,1.0,0.2801009999998314
302,1,0.2,0.0,35.0,-1,0.0,0.25479999999993197
303,1,0.2,0.125,35.0,1,1.0,0.3099010000000817
304,1,0.2,1.0,-35.0,-1,1.0,0.2417000000000371
305,1,0.2,0.0625,35.0,1,1.0,0.3502000000000862
306,1,0.2,0.25,-35.0,-1,1.0,0.2052009999999882
307,1,0.2,1.0,35.0,-1,0.0,0.2501999999999498
308,1,0.2,0.0,35.0,1,1.0,5.2684009999998125
309,1,0.2,0.0625,35.0,-1,0.0,0.807399999999916
310,1,0.2,0.25,35.0,1,1.0,0.32540100000005623
311,1,0.2,0.125,35.0,1,1.0,0.3743000000001757
312,1,0.2,0.0625,-35.0,-1,1.0,0.45919999999978245
313,1,0.2,0.0,35.0,-1,0.0,0.4639999999999418
314,1,0.2,0.25,35.0,1,1.0,0.31930099999976846
315,1,0.2,1.0,35.0,1,1.0,0.3182000000001608
316,1,0.2,0.25,-35.0,-1,1.0,0.2494010000000344
317,1,0.2,0.25,35.0,1,1.0,0.5777009999999336
318,1,0.2,0.0,35.0,-1,0.0,0.2395000000001346
319,1,0.2,0.0625,35.0,1,1.0,0.5823009999999158
320,1,0.2,0.0625,35.0,1,1.0,0.39649999999983265
321,1,0.2,1.0,35.0,1,1.0,0.3948010000001432
322,1,0.2,0.125,35.0,1,1.0,0.35670100000015736
323,1,0.8,0.25,35.0,1,1.0,0.29179999999996653
324,1,0.8,0.0,35.0,1,1.0,0.7468000000001211
325,1,0.8,0.0625,-35.0,-1,1.0,0.2554000000002361
326,1,0.8,0.0625,-35.0,-1,1.0,0.29720099999985905
327,1,0.8,0.0,35.0,-1,0.0,0.2785000000001219
328,1,0.8,0.0,35.0,1,1.0,0.44390100000009625
329,1,0.8,0.0,-35.0,1,0.0,0.4266010000001188
330,1,0.8,0.0,35.0,1,1.0,0.2807999999997719
331,1,0.8,0.0,35.0,-1,0.0,1.205600000000004
332,1,0.8,1.0,-35.0,1,0.0,0.3343999999999596
333,1,0.8,1.0,-35.0,-1,1.0,0.2376000000001568
334,1,0.8,1.0,-35.0,-1,1.0,0.258000999999922
335,1,0.8,0.0,-35.0,1,0.0,0.3325999999999567
336,1,0.8,0.0,-35.0,1,0.0,0.3080000000002201
337,1,0.8,0.0625,-35.0,1,0.0,0.5630000000001019
338,1,0.8,0.25,-35.0,-1,1.0,0.2517009999999118
339,1,0.8,0.0,35.0,1,1.0,0.5036999999999807
340,1,0.8,0.25,-35.0,1,0.0,0.35179999999991196
341,1,0.8,0.0,-35.0,1,0.0,0.3606999999999516
342,1,0.8,0.125,-35.0,1,0.0,0.8619009999999889
343,1,0.8,0.0,-35.0,-1,1.0,0.27369999999996253
344,1,0.8,0.0,-35.0,-1,1.0,0.24870000000009895
345,1,0.8,0.25,-35.0,-1,1.0,0.22690099999999802
346,1,0.8,1.0,-35.0,-1,1.0,0.47910000000001673
347,1,0.8,0.0625,35.0,-1,0.0,0.24489999999991596
348,1,0.8,0.125,-35.0,-1,1.0,0.17240100000003622
349,1,0.8,0.0,-35.0,1,0.0,1.377999999999929
350,1,0.8,0.0625,-35.0,-1,1.0,0.169399999999996
351,1,0.8,0.0625,-35.0,-1,1.0,0.21080000000006294
352,1,0.8,0.0,35.0,-1,0.0,0.21620099999995546
353,1,0.8,0.125,-35.0,-1,1.0,0.5646999999999025
354,1,0.8,1.0,-35.0,-1,1.0,0.23299999999994725
355,1,0.8,0.0625,-35.0,-1,1.0,0.2511010000000624
356,1,0.8,0.125,-35.0,-1,1.0,0.25980100000015227
357,1,0.2,1.0,35.0,-1,0.0,0.26500099999998383
358,1,0.2,0.25,35.0,1,1.0,0.31330099999991035
359,1,0.2,0.25,35.0,-1,0.0,0.25830000000019027
360,1,0.2,1.0,-35.0,-1,1.0,0.3186000000000604
361,1,0.2,0.0625,35.0,1,1.0,0.8270999999999731
362,1,0.2,0.0625,35.0,1,1.0,0.3789000000001579
363,1,0.2,0.25,35.0,1,1.0,0.45060000000012224
364,1,0.2,0.25,35.0,1,1.0,0.26559999999994943
365,1,0.2,0.25,35.0,1,1.0,0.28070099999990816
366,1,0.2,1.0,35.0,1,1.0,1.5023000000001048
367,1,0.2,0.25,35.0,1,1.0,0.3110999999998967
368,1,0.2,0.0,35.0,-1,0.0,0.29250100000012935
369,1,0.2,0.25,-35.0,1,0.0,0.4778000000001157
370,1,0.2,1.0,-35.0,-1,1.0,0.27650000000016917
371,1,0.2,0.0,35.0,-1,0.0,0.2513000000001284
372,1,0.2,0.125,35.0,1,1.0,0.32310100000017883
373,1,0.2,0.0625,35.0,1,1.0,0.2980999999999767
374,1,0.2,0.0625,35.0,1,1.0,0.49309999999991305
375,1,0.2,0.0,35.0,1,1.0,0.4650010000000293
376,1,0.2,0.25,-35.0,-1,1.0,0.25320000000010623
377,1,0.8,0.0,-35.0,-1,1.0,0.24190100000009807
378,1,0.8,1.0,-35.0,-1,1.0,0.2467010000002574
379,1,0.8,0.25,35.0,-1,0.0,0.2253009999999449
380,1,0.8,1.0,-35.0,-1,1.0,0.23380000000020118
381,1,0.8,1.0,35.0,1,1.0,0.5787000000002536
382,1,0.8,0.25,-35.0,-1,1.0,0.2672010000001137
383,1,0.8,1.0,35.0,1,1.0,0.37229999999999563
384,1,0.8,0.0,35.0,1,1.0,0.5623000000000502
385,1,0.8,0.125,-35.0,-1,1.0,0.2473010000001068
386,1,0.8,0.125,-35.0,-1,1.0,0.3394999999998163
387,1,0.8,0.125,-35.0,-1,1.0,0.19840099999987615
388,1,0.8,0.25,-35.0,-1,1.0,0.24950100000023667
389,1,0.8,0.0625,-35.0,-1,1.0,0.5283999999999196
390,1,0.8,0.0,-35.0,1,0.0,0.4230999999999767
391,1,0.8,1.0,-35.0,-1,1.0,0.2414000000001124
392,1,0.8,0.0625,-35.0,-1,1.0,0.27319999999986067
393,1,0.8,0.25,-35.0,-1,1.0,0.2514009999999871
394,1,0.8,0.125,-35.0,-1,1.0,0.22999999999979082
395,1,0.8,0.125,-35.0,-1,1.0,0.3255010000000311
396,1,0.8,0.25,35.0,1,1.0,0.4772000000000389
397,1,0.2,0.0,35.0,-1,0.0,0.4818000000002485
398,1,0.2,1.0,35.0,1,1.0,0.4171000000001186
399,1,0.2,0.125,35.0,1,1.0,0.29349999999999454
400,1,0.2,0.25,35.0,1,1.0,0.5641000000002805
401,1,0.2,1.0,-35.0,-1,1.0,0.2595000000001164
402,1,0.2,1.0,-35.0,-1,1.0,0.2476010000000315
403,1,0.2,0.25,-35.0,1,0.0,0.7025009999999838
404,1,0.2,0.25,-35.0,-1,1.0,0.2543000000000575
405,1,0.2,0.125,-35.0,-1,1.0,0.2726000000000113
406,1,0.2,0.0,35.0,-1,0.0,0.40150000000016917
407,1,0.2,0.125,35.0,1,1.0,0.2476000000001477
408,1,0.2,0.0625,35.0,-1,0.0,0.3281010000000606
409,1,0.2,1.0,-35.0,-1,1.0,0.2929999999998927
410,1,0.2,0.25,35.0,1,1.0,0.4115009999998165
411,1,0.2,0.0,35.0,-1,0.0,0.23070000000006985
412,1,0.2,0.125,-35.0,-1,1.0,0.22880000000009204
413,1,0.2,0.0625,35.0,1,1.0,0.3507009999998445
414,1,0.2,0.0,35.0,1,1.0,0.4252000000001317
415,1,0.2,1.0,35.0,1,1.0,0.33130099999993945
416,1,0.2,0.0625,35.0,1,1.0,0.6288009999998394
417,1,0.2,1.0,35.0,1,1.0,0.35370000000011714
418,1,0.2,0.125,35.0,1,1.0,0.5424000000000433
419,1,0.2,1.0,35.0,1,1.0,0.5474000000001524
420,1,0.2,1.0,35.0,1,1.0,0.7558999999998832
421,1,0.8,0.0625,-35.0,1,0.0,0.8117999999999483
422,1,0.8,0.25,-35.0,-1,1.0,0.45260099999995873
423,1,0.8,0.125,35.0,1,1.0,0.3674999999998363
424,1,0.8,1.0,35.0,1,1.0,0.5197010000001683
425,1,0.8,1.0,35.0,1,1.0,0.3347000000001117
426,1,0.8,1.0,-35.0,-1,1.0,0.22299999999995634
427,1,0.8,1.0,35.0,1,1.0,0.4919999999999618
428,1,0.8,0.0,-35.0,-1,1.0,0.3366009999999733
429,1,0.8,1.0,-35.0,-1,1.0,0.22480100000007042
430,1,0.8,0.0,35.0,1,1.0,0.6901000000000295
431,1,0.8,0.125,-35.0,1,0.0,0.4249009999998634
432,1,0.8,0.25,-35.0,-1,1.0,0.23709999999982756
433,1,0.8,0.0,-35.0,-1,1.0,1.211799999999812
434,1,0.8,0.25,-35.0,-1,1.0,0.24050099999999475
435,1,0.8,0.0,35.0,-1,0.0,0.2418999999999869
436,1,0.8,1.0,-35.0,-1,1.0,0.2339009999998325
437,1,0.8,0.0625,-35.0,-1,1.0,0.3041000000000622
438,1,0.8,0.0625,-35.0,-1,1.0,0.5326000000000022
439,1,0.8,0.0,-35.0,-1,1.0,0.32760000000007494
440,1,0.8,0.0625,-35.0,-1,1.0,0.28100099999983286
441,1,0.8,0.0625,-35.0,-1,1.0,0.294399999999996
442,1,0.8,0.0,-35.0,-1,1.0,0.2391010000001188
443,1,0.8,0.25,-35.0,-1,1.0,0.19470000000023902
444,1,0.8,0.125,-35.0,-1,1.0,0.2695010000002185
445,1,0.8,0.25,-35.0,-1,1.0,0.6382000000000971
446,1,0.8,0.0,-35.0,-1,1.0,0.2331010000000333
447,1,0.2,0.125,-35.0,-1,1.0,0.28500000000008185
448,1,0.2,1.0,35.0,1,1.0,0.5549010000001999
449,1,0.2,1.0,35.0,1,1.0,0.5583999999998923
450,1,0.2,0.25,35.0,1,1.0,0.48670000000015534
451,1,0.2,1.0,35.0,1,1.0,0.4553000000000793
452,1,0.2,0.0,-35.0,-1,1.0,0.2537999999999556
453,1,0.2,1.0,35.0,1,1.0,0.3988999999999123
454,1,0.2,0.25,35.0,1,1.0,0.7112000000001899
455,1,0.2,0.125,35.0,1,1.0,0.6057009999999536
456,1,0.2,0.0625,35.0,-1,0.0,0.2502999999999247
457,1,0.2,0.0625,35.0,1,1.0,0.4558999999999287
458,1,0.2,0.0,-35.0,1,0.0,4.100601000000097
459,1,0.2,0.125,35.0,1,1.0,0.5194000000001324
460,1,0.2,0.125,35.0,1,1.0,0.5083000000001903
461,1,0.2,0.0625,35.0,1,1.0,0.41950000000019827
462,1,0.2,0.0,35.0,1,1.0,2.7113999999999123
463,1,0.2,1.0,35.0,1,1.0,0.3300010000002658
464,1,0.2,1.0,35.0,1,1.0,0.3155010000000402
465,1,0.2,0.25,35.0,1,1.0,0.4333999999998923
466,1,0.2,0.25,35.0,1,1.0,0.4615000000001146
467,1,0.2,0.0625,35.0,1,1.0,0.3035010000000966
468,1,0.2,0.125,35.0,1,1.0,0.6855000000000473
469,1,0.2,0.25,35.0,1,1.0,0.4836999999999989
470,1,0.2,1.0,35.0,1,1.0,0.4393999999999778
471,1,0.2,0.0,35.0,1,1.0,0.467200000000048
472,1,0.2,0.25,35.0,1,1.0,0.33560099999999693
473,1,0.2,0.125,35.0,1,1.0,0.5905009999999038
474,1,0.2,1.0,35.0,1,1.0,0.49870000000009895
475,1,0.2,1.0,35.0,1,1.0,0.4910010000000966
476,1,0.2,0.25,35.0,1,1.0,0.4294999999999618
477,1,0.2,0.125,35.0,1,1.0,0.5478009999999358
478,1,0.2,0.0625,35.0,1,1.0,0.6259000000000015
479,1,0.2,0.125,35.0,1,1.0,2.491399999999885
480,1,0.2,1.0,35.0,1,1.0,0.47050000000012915
481,1,0.2,0.25,35.0,1,1.0,0.2415000000000873
482,1,0.2,1.0,35.0,1,1.0,0.4248010000001159
483,1,0.2,0.25,35.0,1,1.0,0.3985009999998965
484,1,0.2,0.25,35.0,1,1.0,1.0137009999998554
485,1,0.2,1.0,-35.0,-1,1.0,0.3487009999998918
486,1,0.2,0.125,-35.0,-1,1.0,0.44780100000002676
487,1,0.2,0.25,35.0,1,1.0,0.7122019999999338
488,1,0.2,1.0,35.0,-1,0.0,0.24490100000002712
489,1,0.2,0.0,35.0,1,1.0,0.33240200000000186
490,1,0.2,1.0,35.0,1,1.0,0.6409009999999853
491,1,0.2,1.0,35.0,1,1.0,0.326001000000133
492,1,0.2,0.125,35.0,1,1.0,0.4909010000001217
493,1,0.2,1.0,35.0,1,1.0,0.4928020000002107
494,1,0.2,0.125,35.0,1,1.0,0.6420010000001639
495,1,0.2,1.0,35.0,1,1.0,0.5296009999999569
496,1,0.2,0.25,35.0,1,1.0,0.4149009999998725
497,1,0.2,1.0,35.0,1,1.0,0.42650099999991653
498,1,0.2,0.0,-35.0,1,0.0,0.4552009999999882
499,1,0.2,1.0,-35.0,-1,1.0,0.35980099999983395
500,1,0.2,0.25,35.0,1,1.0,0.688600999999835
501,1,0.2,0.125,35.0,1,1.0,0.35660200000006625
502,1,0.2,0.25,35.0,1,1.0,0.5582020000001648
503,1,0.2,0.25,35.0,1,1.0,0.4104010000000926
504,1,0.2,1.0,35.0,1,1.0,0.41310199999998076
505,1,0.2,0.25,-35.0,-1,1.0,0.4205010000000584
506,1,0.2,1.0,-35.0,-1,1.0,0.2753010000001268
507,1,0.2,1.0,35.0,1,1.0,0.5072010000001228
508,1,0.2,1.0,35.0,1,1.0,0.28210200000012264
509,1,0.2,0.0625,35.0,1,1.0,0.600601000000097
510,1,0.2,0.0,35.0,-1,0.0,0.3557019999998374
511,1,0.2,0.25,35.0,1,1.0,0.3643009999998412
512,1,0.2,0.25,35.0,1,1.0,0.26970200000005207
513,1,0.2,0.25,-35.0,-1,1.0,0.38780100000008133
514,1,0.2,0.0625,-35.0,1,0.0,0.6261010000000624
515,1,0.2,1.0,35.0,1,1.0,0.6149010000001454
516,1,0.2,0.125,35.0,1,1.0,0.5367009999999937
517,1,0.2,1.0,-35.0,-1,1.0,0.34160099999985505
518,1,0.2,0.0625,35.0,1,1.0,0.37650200000007317
519,1,0.2,1.0,35.0,1,1.0,0.3484009999999671
520,1,0.2,1.0,35.0,1,1.0,0.28320099999996273
521,1,0.2,0.125,35.0,1,1.0,0.30850200000008954
522,1,0.2,0.25,35.0,1,1.0,0.547200999999859
523,1,0.2,0.0,35.0,1,1.0,0.312300999999934
524,1,0.2,0.25,35.0,1,1.0,0.4353009999999813
525,1,0.2,0.125,-35.0,-1,1.0,0.3122009999997317
526,1,0.2,1.0,-35.0,-1,1.0,0.25140100000044185
527,1,0.2,0.125,35.0,1,1.0,0.2891010000003007
528,1,0.2,0.125,35.0,1,1.0,0.4807019999998374
529,1,0.2,0.125,-35.0,1,0.0,0.6594020000002274
530,1,0.2,0.0625,35.0,1,1.0,0.24110099999961676
531,1,0.2,0.25,35.0,1,1.0,0.352900999999747
532,1,0.2,1.0,35.0,1,1.0,0.5454010000003109
533,1,0.2,1.0,-35.0,-1,1.0,0.23990099999991799
534,1,0.2,0.0625,35.0,1,1.0,0.5780009999998583
535,1,0.2,0.0,-35.0,1,0.0,0.5566010000002279
536,1,0.2,1.0,35.0,1,1.0,0.2955010000000584
537,1,0.2,0.25,35.0,1,1.0,0.35690100000010716
538,1,0.2,0.125,35.0,1,1.0,0.4185010000001057
539,1,0.2,0.125,35.0,1,1.0,0.46380100000033053
540,1,0.2,1.0,-35.0,-1,1.0,0.3119010000000344
541,1,0.2,0.0625,35.0,1,1.0,0.49720099999967715
542,1,0.2,0.25,35.0,1,1.0,0.3586009999999078
543,1,0.8,1.0,-35.0,-1,1.0,0.2672010000001137
544,1,0.8,0.0625,-35.0,1,0.0,0.39930199999980687
545,1,0.8,1.0,-35.0,-1,1.0,0.34420200000022305
546,1,0.8,0.0,-35.0,-1,1.0,0.35220099999969534
547,1,0.8,0.25,-35.0,-1,1.0,0.2910019999999349
548,1,0.8,0.25,-35.0,-1,1.0,0.2826010000003407
549,1,0.8,1.0,-35.0,-1,1.0,0.2413010000000213
550,1,0.8,0.0625,-35.0,-1,1.0,0.27930100000048697
551,1,0.8,0.0,-35.0,-1,1.0,0.29470100000025923
552,1,0.8,0.25,-35.0,-1,1.0,0.22980099999949744
553,1,0.8,0.125,-35.0,-1,1.0,0.29180100000030507
554,1,0.8,0.0,-35.0,1,0.0,0.5367009999999937
555,1,0.8,1.0,-35.0,-1,1.0,0.1986019999999371
556,1,0.8,0.0,-35.0,-1,1.0,0.17340100000001257
557,1,0.8,0.0625,35.0,1,1.0,0.5886019999998098
558,1,0.8,0.0,-35.0,-1,1.0,0.2508010000001377
559,1,0.8,0.0,-35.0,-1,1.0,0.2890009999996437
560,1,0.8,0.25,-35.0,-1,1.0,0.26790100000016537
561,1,0.8,0.125,-35.0,-1,1.0,0.2791010000000824
562,1,0.8,0.125,35.0,1,1.0,0.6575010000001384
563,1,0.8,0.0625,-35.0,-1,1.0,0.41950100000030943
564,1,0.8,0.25,-35.0,-1,1.0,0.25080099999968297
565,1,0.8,0.125,-35.0,-1,1.0,0.23950199999990218
566,1,0.8,0.0625,-35.0,-1,1.0,0.27770099999952436
567,1,0.8,0.0625,35.0,1,1.0,0.6696019999999407
568,1,0.8,1.0,-35.0,-1,1.0,0.6380019999996875
569,1,0.8,1.0,-35.0,-1,1.0,0.2996020000000499
570,1,0.8,0.25,-35.0,-1,1.0,0.40480200000001787
571,1,0.8,1.0,-35.0,-1,1.0,0.23660199999994802
572,1,0.8,0.125,-35.0,-1,1.0,0.28810199999998076
573,1,0.8,0.0625,35.0,1,1.0,0.2835019999997712
574,1,0.8,0.25,-35.0,1,0.0,0.6291009999999915
575,1,0.8,0.0,-35.0,-1,1.0,0.31670100000019374
576,1,0.8,0.25,35.0,1,1.0,0.2951009999997041
577,1,0.2,1.0,35.0,1,1.0,0.3638019999998505
578,1,0.2,0.25,-35.0,-1,1.0,0.2692010000000664
579,1,0.2,0.25,35.0,1,1.0,0.49400100000002567
580,1,0.2,0.125,-35.0,-1,1.0,0.24210100000027523
581,1,0.2,0.0,35.0,-1,0.0,0.2975010000000111
582,1,0.2,1.0,35.0,1,1.0,0.3331010000006245
583,1,0.2,0.0625,35.0,1,1.0,0.3209010000005037
584,1,0.2,1.0,35.0,1,1.0,0.27030100000001767
585,1,0.2,0.0625,35.0,1,1.0,0.42120100000011007
586,1,0.2,1.0,-35.0,1,0.0,0.8208020000001852
587,1,0.2,0.25,35.0,1,1.0,0.2616010000001552
588,1,0.2,1.0,35.0,1,1.0,0.30430100000012317
589,1,0.2,0.0625,-35.0,1,0.0,0.6084020000002965
590,1,0.2,1.0,35.0,1,1.0,0.28310099999998783
591,1,0.2,0.0,35.0,1,1.0,0.6250010000003385
592,1,0.2,0.0,35.0,1,1.0,0.44330100000024686
593,1,0.2,1.0,35.0,1,1.0,0.4122019999999793
594,1,0.2,0.0625,-35.0,1,0.0,0.5074020000001838
595,1,0.2,1.0,35.0,1,1.0,0.45230199999969045
596,1,0.2,0.0,35.0,1,1.0,4.687502000000222
597,1,0.2,0.0,35.0,1,1.0,0.6559010000000853
598,1,0.2,0.0,35.0,1,1.0,0.1648009999998976
599,1,0.2,0.0625,-35.0,1,0.0,0.7593010000000504
600,1,0.2,1.0,35.0,1,1.0,0.47170100000039383
601,1,0.2,0.25,-35.0,1,0.0,0.8097010000001319
602,1,0.2,1.0,35.0,1,1.0,0.38150099999984377
603,1,0.2,0.0625,35.0,1,1.0,0.5197010000001683
604,1,0.2,0.125,35.0,1,1.0,0.4785019999999349
605,1,0.2,0.0625,-35.0,1,0.0,0.6066009999999551
606,1,0.2,0.0625,35.0,1,1.0,0.43500200000016775
607,1,0.2,1.0,-35.0,-1,1.0,0.2768020000003162
608,1,0.2,0.0,35.0,1,1.0,0.5287009999997281
609,1,0.2,1.0,35.0,1,1.0,0.5004020000001219
610,1,0.2,0.0625,35.0,1,1.0,0.4695010000000366
611,1,0.2,0.0,35.0,1,1.0,0.35710199999994074
612,1,0.2,1.0,35.0,1,1.0,0.48260200000049736
613,1,0.2,0.125,35.0,1,1.0,0.5641019999998207
614,1,0.2,1.0,35.0,1,1.0,0.4426010000001952
615,1,0.2,1.0,35.0,1,1.0,0.3876010000003589
616,1,0.2,0.125,35.0,1,1.0,0.3767010000001392
617,1,0.2,0.0625,-35.0,1,0.0,0.46760200000016994
618,1,0.2,0.0,35.0,1,1.0,0.3767010000001392
619,1,0.2,1.0,35.0,1,1.0,0.284802000000127
620,1,0.2,0.0,35.0,-1,0.0,0.3267020000002958
621,1,0.2,0.0,35.0,1,1.0,0.46830099999988306
622,1,0.2,1.0,35.0,1,1.0,0.44640099999969607
623,1,0.2,0.0625,35.0,1,1.0,0.49180100000012317
624,1,0.2,1.0,35.0,1,1.0,0.36680200000000696
625,1,0.2,0.125,-35.0,-1,1.0,0.601900999999998
626,1,0.2,0.25,35.0,1,1.0,0.5607010000003356
627,1,0.2,0.0625,35.0,1,1.0,0.5121009999998023
628,1,0.2,0.0625,-35.0,-1,1.0,0.6770010000000184
629,1,0.2,0.0625,35.0,-1,0.0,0.20880200000055993
630,1,0.2,0.125,-35.0,-1,1.0,0.2315019999996366
631,1,0.2,0.125,35.0,-1,0.0,0.3758010000001377
632,1,0.2,0.0,-35.0,1,0.0,0.4884020000004057
633,1,0.2,0.0,35.0,1,1.0,0.48270099999990634
634,1,0.2,0.0625,35.0,1,1.0,0.537202000000434
635,1,0.2,0.25,35.0,1,1.0,0.6028009999999995
636,1,0.2,1.0,35.0,1,1.0,0.35440099999959784
637,1,0.2,0.125,35.0,1,1.0,0.5562010000003283
638,1,0.2,0.0,35.0,1,1.0,0.45460099999991144
639,1,0.2,0.0,35.0,1,1.0,0.5431019999996352
640,1,0.2,0.125,-35.0,1,0.0,0.5380009999998947
641,1,0.2,0.25,-35.0,-1,1.0,0.44660199999952965
642,1,0.2,0.0625,35.0,1,1.0,0.44220199999972465
643,1,0.8,0.125,-35.0,-1,1.0,0.35690100000010716
644,1,0.8,0.0,35.0,-1,0.0,0.7150010000000293
645,1,0.8,0.0,-35.0,1,0.0,0.623801000000185
646,1,0.8,1.0,-35.0,-1,1.0,0.24620099999992817
647,1,0.8,0.25,-35.0,-1,1.0,0.3036010000000715
648,1,0.8,1.0,35.0,1,1.0,0.37920100000019374
649,1,0.8,0.25,-35.0,1,0.0,1.2706020000000535
650,1,0.8,1.0,35.0,1,1.0,0.9062009999997827
651,1,0.8,0.125,-35.0,-1,1.0,0.8174010000002454
652,1,0.8,0.25,-35.0,1,0.0,0.17280100000016319
653,1,0.8,0.0,-35.0,1,0.0,0.34440200000017285
654,1,0.8,0.25,-35.0,-1,1.0,0.2464020000002165
655,1,0.8,1.0,-35.0,-1,1.0,0.2681009999996604
656,1,0.8,0.0625,-35.0,-1,1.0,0.35310200000003533
657,1,0.8,0.0,-35.0,-1,1.0,0.27840100000003076
658,1,0.8,0.0,-35.0,-1,1.0,0.26030100000025413
659,1,0.8,0.125,-35.0,-1,1.0,0.6919020000000273
660,1,0.8,0.0,-35.0,-1,1.0,0.2669010000004164
661,1,0.8,0.0625,-35.0,1,0.0,0.43840100000034
662,1,0.8,1.0,-35.0,-1,1.0,0.22430100000019593
663,1,0.8,0.0625,-35.0,-1,1.0,0.6222010000001319
664,1,0.8,1.0,-35.0,-1,1.0,0.6305010000000948
665,1,0.8,0.0625,35.0,1,1.0,0.45580100000006496
666,1,0.8,1.0,35.0,1,1.0,0.291501000000153
667,1,0.8,0.25,-35.0,-1,1.0,0.2427020000000084
668,1,0.8,0.25,35.0,1,1.0,0.40150100000028033
669,1,0.8,0.0,-35.0,1,0.0,0.6461019999997006
670,1,0.8,1.0,-35.0,-1,1.0,0.2716009999999187
671,1,0.8,0.25,-35.0,-1,1.0,0.4765009999996437
672,1,0.8,0.0625,-35.0,-1,1.0,0.33260199999995166
673,1,0.8,0.0625,-35.0,-1,1.0,0.28980200000023615
674,1,0.8,0.125,-35.0,-1,1.0,0.32850100000041493
675,1,0.8,0.0,-35.0,1,0.0,1.0400009999998474
676,1,0.8,1.0,-35.0,-1,1.0,0.2882009999998445
677,1,0.8,0.0625,-35.0,-1,1.0,0.37350100000003295
678,1,0.8,0.0,-35.0,1,0.0,0.5216009999999187
679,1,0.8,1.0,-35.0,-1,1.0,0.22360200000002806
680,1,0.8,1.0,-35.0,-1,1.0,0.3821010000001479
681,1,0.8,0.25,35.0,1,1.0,0.4404010000002927
682,1,0.2,0.0,35.0,-1,0.0,0.29360099999985323
683,1,0.2,0.0625,35.0,1,1.0,0.5541010000001734
684,1,0.2,0.125,35.0,1,1.0,0.29660100000000966
685,1,0.2,0.0,-35.0,1,0.0,0.4175010000003567
686,1,0.2,1.0,-35.0,-1,1.0,0.24970099999973172
687,1,0.2,0.125,-35.0,-1,1.0,0.25800100000014936
688,1,0.2,0.125,-35.0,-1,1.0,0.24620100000038292
689,1,0.2,1.0,35.0,1,1.0,0.43810200000052646
690,1,0.2,0.25,-35.0,-1,1.0,0.22970200000008845
691,1,0.2,1.0,35.0,1,1.0,0.5182020000002012
692,1,0.2,0.25,35.0,1,1.0,0.47340100000019447
693,1,0.2,0.25,-35.0,-1,1.0,0.2815009999999347
694,1,0.2,0.0625,-35.0,1,0.0,0.839900999999827
695,1,0.2,0.25,-35.0,-1,1.0,0.5052019999998265
696,1,0.2,0.0625,35.0,1,1.0,2.8070010000005823
697,1,0.2,0.0625,35.0,1,1.0,0.32540199999994
698,1,0.2,0.0625,35.0,1,1.0,0.3199010000003
699,1,0.2,0.125,35.0,1,1.0,0.31900099999984377
700,1,0.2,1.0,35.0,1,1.0,0.4406020000001263
701,1,0.2,0.125,35.0,1,1.0,0.30940099999997983
702,1,0.2,0.0,35.0,-1,0.0,0.4249009999998634
703,1,0.2,0.0625,35.0,1,1.0,0.4392010000001392
704,1,0.2,0.125,-35.0,-1,1.0,0.7819009999998343
705,1,0.2,0.0625,35.0,-1,0.0,0.5759009999997033
706,1,0.2,0.125,35.0,1,1.0,0.3610019999996439
707,1,0.2,0.0625,35.0,1,1.0,0.3564010000000053
708,1,0.2,0.0625,35.0,1,1.0,0.4830019999999422
709,1,0.2,0.0625,-35.0,1,0.0,0.4691020000000208
710,1,0.2,0.0625,35.0,1,1.0,0.3834009999995942
711,1,0.2,0.25,35.0,1,1.0,0.25210199999992255
712,1,0.2,0.125,35.0,1,1.0,0.4669010000002345
713,1,0.2,0.25,35.0,1,1.0,0.4091009999997368
714,1,0.2,0.0625,35.0,1,1.0,0.5169010000004164
715,1,0.2,1.0,-35.0,-1,1.0,0.2687020000003031
716,1,0.2,0.25,35.0,1,1.0,0.31060100000013335
717,1,0.2,0.125,35.0,1,1.0,0.5522010000004229
718,1,0.2,0.0,35.0,1,1.0,0.14400100000011662
719,1,0.2,0.125,35.0,1,1.0,0.3086009999997259
720,1,0.2,0.25,-35.0,1,0.0,0.39750099999992017
721,1,0.2,0.25,35.0,1,1.0,0.47930100000030507
722,1,0.2,0.125,35.0,1,1.0,0.4678009999997812
723,1,0.2,0.125,-35.0,1,0.0,0.4364019999998163
724,1,0.2,0.125,35.0,1,1.0,0.4648010000000795
725,1,0.2,0.25,35.0,1,1.0,0.3597020000001976
726,1,0.2,0.0625,35.0,1,1.0,0.5149019999998927
727,1,0.2,1.0,35.0,1,1.0,0.7395010000000184
728,1,0.2,0.25,35.0,1,1.0,0.23170100000015736
729,1,0.2,0.0625,35.0,1,1.0,0.5164009999998598
730,1,0.2,0.25,35.0,1,1.0,0.28190100000028906
731,1,0.2,0.25,35.0,1,1.0,0.4169019999999364
732,1,0.2,0.125,35.0,1,1.0,0.3185019999996257
733,1,0.2,0.125,35.0,1,1.0,0.3114020000002711
734,1,0.2,0.0,35.0,1,1.0,0.41550099999994927
735,1,0.2,0.25,35.0,1,1.0,0.28050100000018574
736,1,0.8,0.0625,-35.0,1,0.0,0.3023009999997157
737,1,0.8,1.0,-35.0,-1,1.0,0.36050099999965823
738,1,0.8,0.25,-35.0,-1,1.0,0.40620099999978265
739,1,0.8,1.0,-35.0,-1,1.0,0.27540099999987433
740,1,0.8,0.25,-35.0,-1,1.0,0.3228019999996832
741,1,0.8,0.0625,-35.0,-1,1.0,0.2676010000000133
742,1,0.8,0.0625,-35.0,1,0.0,0.46630099999993035
743,1,0.8,0.0,-35.0,-1,1.0,0.4345010000001821
744,1,0.8,0.25,-35.0,-1,1.0,0.3364019999999073
745,1,0.8,0.0625,-35.0,-1,1.0,0.24840099999983067
746,1,0.8,0.0,-35.0,1,0.0,0.49000100000012026
747,1,0.8,1.0,-35.0,-1,1.0,0.21570100000008097
748,1,0.8,0.125,35.0,1,1.0,0.39350100000001476
749,1,0.8,0.125,35.0,1,1.0,0.43580100000008315
750,1,0.8,1.0,35.0,1,1.0,0.44720200000028854
751,1,0.8,0.0625,-35.0,-1,1.0,0.429700999999568
752,1,0.8,0.0625,-35.0,-1,1.0,0.2308010000001559
753,1,0.8,0.0,35.0,-1,0.0,0.20280100000036327
754,1,0.8,0.0,-35.0,1,0.0,0.2874019999999291
755,1,0.8,0.25,-35.0,-1,1.0,0.13570100000060847
756,1,0.8,0.25,-35.0,-1,1.0,0.834501000000273
757,1,0.8,0.125,-35.0,-1,1.0,0.41610099999979866
758,1,0.8,0.125,35.0,1,1.0,0.3179019999997763
759,1,0.8,0.0625,-35.0,-1,1.0,0.9959020000001146
760,1,0.8,0.25,-35.0,-1,1.0,0.13820099999975355
761,1,0.8,0.0,-35.0,-1,1.0,0.2967009999997572
762,1,0.8,1.0,-35.0,-1,1.0,0.25520100000039747
763,1,0.8,0.125,-35.0,-1,1.0,0.30330099999991944
764,1,0.8,0.25,-35.0,-1,1.0,0.30530199999975594
765,1,0.8,0.0,-35.0,-1,1.0,0.32310200000029
766,1,0.8,0.0,-35.0,-1,1.0,0.45200199999999313
767,1,0.8,0.0,-35.0,-1,1.0,0.3409020000003693
768,1,0.8,0.0,-35.0,-1,1.0,0.3756020000000717
769,1,0.8,0.0,-35.0,1,0.0,0.28790200000003097
770,1,0.8,0.0625,-35.0,-1,1.0,0.16250200000013137
771,1,0.8,0.25,-35.0,-1,1.0,0.38730100000020684
772,1,0.8,1.0,-35.0,-1,1.0,0.289400999999998
773,1,0.2,1.0,-35.0,-1,1.0,0.39110200000004625
774,1,0.2,0.25,-35.0,-1,1.0,0.276100999999926
775,1,0.2,0.25,35.0,1,1.0,0.2741009999999733
776,1,0.2,1.0,35.0,-1,0.0,0.22620199999983015
777,1,0.2,1.0,-35.0,-1,1.0,0.25800100000014936
778,1,0.2,1.0,35.0,1,1.0,0.406402000000071
779,1,0.2,0.0625,-35.0,-1,1.0,0.2915020000000368
780,1,0.2,0.0625,35.0,1,1.0,0.3367009999997208
781,1,0.2,0.0,-35.0,-1,1.0,0.5951020000002245
782,1,0.2,1.0,-35.0,-1,1.0,0.2801019999997152
783,1,0.2,0.0,35.0,1,1.0,0.39530100000001767
784,1,0.2,0.0,35.0,-1,0.0,0.4003010000001268
785,1,0.2,0.0625,35.0,1,1.0,0.2818019999999706
786,1,0.2,0.125,-35.0,-1,1.0,0.46060199999965334
787,1,0.2,0.25,-35.0,-1,1.0,0.3056010000000242
788,1,0.2,0.0,35.0,1,1.0,0.6574009999999362
789,1,0.2,0.125,35.0,1,1.0,0.29220100000020466
790,1,0.2,0.0625,35.0,1,1.0,0.3944019999999
791,1,0.2,1.0,35.0,1,1.0,0.2522020000001248
792,1,0.2,0.25,-35.0,1,0.0,0.544401999999991
793,1,0.2,0.0,35.0,1,1.0,0.37030200000026525
794,1,0.2,0.125,35.0,1,1.0,0.2881009999996422
795,1,0.8,0.25,-35.0,-1,1.0,0.34960099999989325
796,1,0.8,0.25,35.0,1,1.0,0.3381010000002789
797,1,0.8,0.0,-35.0,-1,1.0,0.22650100000009843
798,1,0.8,0.125,-35.0,-1,1.0,0.29530099999965387
799,1,0.8,1.0,-35.0,-1,1.0,0.31040100000018356
800,1,0.8,0.125,35.0,1,1.0,0.3819010000001981
801,1,0.8,0.125,-35.0,1,0.0,0.6085010000001603
802,1,0.8,0.0,-35.0,-1,1.0,8.132202000000234
803,1,0.8,1.0,-35.0,-1,1.0,0.31440100000008897
804,1,0.8,0.0625,35.0,1,1.0,0.4492009999999027
805,1,0.8,0.125,35.0,1,1.0,0.26450199999999313
806,1,0.8,0.0,-35.0,1,0.0,0.529500999999982
807,1,0.8,0.0,-35.0,-1,1.0,0.5316009999996822
808,1,0.8,0.0625,-35.0,-1,1.0,0.26620100000036473
809,1,0.8,0.25,-35.0,-1,1.0,0.22850100000005114
810,1,0.8,0.0625,-35.0,-1,1.0,0.2795019999998658
811,1,0.8,0.0625,-35.0,1,0.0,0.4386010000002898
812,1,0.8,1.0,-35.0,-1,1.0,0.25660100000004604
813,1,0.8,1.0,-35.0,-1,1.0,0.31900099999984377
814,1,0.8,0.0,-35.0,1,0.0,0.44330200000013065
815,1,0.8,0.0,35.0,-1,0.0,0.22840099999984886
816,1,0.8,0.0,35.0,-1,0.0,0.23380100000031234
817,1,0.8,0.125,-35.0,-1,1.0,0.24170100000037564
818,1,0.8,1.0,-35.0,-1,1.0,0.20720099999971353
819,1,0.8,0.25,-35.0,-1,1.0,0.23530100000016319
820,1,0.8,0.125,-35.0,-1,1.0,0.23060099999975137
821,1,0.8,0.125,-35.0,-1,1.0,0.6865020000000186
822,1,0.8,0.0625,-35.0,1,0.0,0.7743009999999231
823,1,0.8,0.0625,-35.0,-1,1.0,0.2658010000000104
824,1,0.8,0.25,35.0,1,1.0,0.4045019999998658
825,1,0.8,0.0,-35.0,-1,1.0,0.47330100000044695
826,1,0.8,0.125,-35.0,-1,1.0,0.2979019999997945
827,1,0.2,0.0625,35.0,1,1.0,0.30940099999997983
828,1,0.2,0.125,35.0,1,1.0,0.35820200000034674
829,1,0.2,0.0,35.0,-1,0.0,0.25660100000004604
830,1,0.2,0.0,35.0,1,1.0,0.4450010000000475
831,1,0.2,0.0625,35.0,-1,0.0,0.4099010000004455
832,1,0.2,1.0,35.0,-1,0.0,0.24170200000025943
833,1,0.2,0.0625,-35.0,-1,1.0,0.47810100000015154
834,1,0.2,0.25,35.0,1,1.0,0.3787010000000919
835,1,0.2,0.25,35.0,1,1.0,0.9335009999999784
836,1,0.2,0.25,35.0,1,1.0,0.6791019999996024
837,1,0.2,0.0625,35.0,1,1.0,0.35100199999988035
838,1,0.2,0.25,35.0,1,1.0,0.35930099999995946
839,1,0.2,0.0625,35.0,1,1.0,0.4480020000000877
840,1,0.2,0.125,35.0,1,1.0,0.45910100000037346
841,1,0.2,0.25,-35.0,1,0.0,0.4212009999996553
842,1,0.2,0.125,35.0,1,1.0,0.33970099999987724
843,1,0.2,0.0625,35.0,-1,0.0,0.4092019999998229
844,1,0.2,0.125,35.0,-1,0.0,0.28300099999978556
845,1,0.2,0.25,-35.0,-1,1.0,0.34170099999982995
846,1,0.2,0.0,35.0,1,1.0,6.350102000000334
847,1,0.2,0.0,35.0,-1,0.0,0.2852010000001428
848,1,0.2,0.0625,35.0,1,1.0,0.3837020000000848
849,1,0.2,0.25,-35.0,-1,1.0,0.4462009999997463
850,1,0.2,0.0,35.0,1,1.0,0.5538019999999051
851,1,0.2,1.0,-35.0,-1,1.0,0.2586010000004535
852,1,0.2,0.25,35.0,1,1.0,0.4675010000000839
853,1,0.2,0.0625,35.0,1,1.0,0.39520200000015393
854,1,0.2,0.25,35.0,1,1.0,0.401100999999926
855,1,0.2,0.0,35.0,-1,0.0,0.5333009999999376
856,1,0.2,0.0,35.0,-1,0.0,0.4913010000000213
857,1,0.2,0.125,35.0,1,1.0,0.40640099999973245
858,1,0.2,0.0625,35.0,-1,0.0,0.3382019999999102
859,1,0.2,0.0625,35.0,1,1.0,3.646400999999969
860,1,0.2,0.125,35.0,1,1.0,0.27160100000037346
861,1,0.2,0.0,35.0,1,1.0,0.7714020000003075
862,1,0.2,0.125,-35.0,1,0.0,5.698700999999801
863,1,0.2,0.0625,35.0,1,1.0,10.820600999999897
864,1,0.2,0.125,35.0,1,1.0,0.40600099999983286
865,1,0.2,0.125,35.0,1,1.0,0.4677020000003722
866,1,0.2,0.25,35.0,1,1.0,0.542801000000054
867,1,0.2,0.125,35.0,1,1.0,0.4376009999996313
868,1,0.2,0.125,35.0,1,1.0,1.656300999999985
869,1,0.2,1.0,35.0,1,1.0,0.33530100000007224
870,1,0.2,0.0625,-35.0,1,0.0,0.4298009999997703
871,1,0.2,0.25,35.0,1,1.0,0.29120100000000093
872,1,0.2,0.0625,35.0,1,1.0,5.286801000000196
873,1,0.2,0.125,35.0,1,1.0,0.33500199999980396
874,1,0.2,1.0,35.0,1,1.0,0.3136020000001736
875,1,0.2,0.25,35.0,1,1.0,0.478802000000087
876,1,0.2,0.25,-35.0,-1,1.0,0.25070099999993545
877,1,0.2,0.0625,35.0,1,1.0,0.3528009999999995
878,1,0.2,0.0,35.0,1,1.0,0.3909009999997579
879,1,0.2,0.25,35.0,1,1.0,0.4057009999996808
880,1,0.2,0.125,35.0,1,1.0,0.327701000000161
881,1,0.2,1.0,35.0,1,1.0,0.3499010000000453
882,1,0.2,0.0625,35.0,-1,0.0,0.7146010000001297
883,1,0.2,1.0,-35.0,-1,1.0,0.25980100000015227
884,1,0.2,1.0,35.0,1,1.0,0.46470199999976103
885,1,0.2,0.0625,-35.0,1,0.0,0.4796010000000024
886,1,0.2,0.0,35.0,1,1.0,0.48490099999980885
887,1,0.2,0.25,35.0,1,1.0,0.4267009999998663
888,1,0.2,0.0,35.0,1,1.0,0.4719020000002274
889,1,0.2,0.25,35.0,1,1.0,0.38730100000020684
890,1,0.2,1.0,35.0,1,1.0,0.3821010000001479
891,1,0.2,1.0,35.0,1,1.0,0.42010200000049736
892,1,0.2,0.0,35.0,-1,0.0,2.2688020000000506
893,1,0.2,1.0,35.0,1,1.0,0.3010010000002694
894,1,0.2,0.0625,35.0,1,1.0,0.4122010000000955
895,1,0.2,0.0,35.0,1,1.0,0.5081009999998969
896,1,0.2,0.25,35.0,1,1.0,0.3093010000002323
897,1,0.2,0.0625,35.0,1,1.0,0.3041009999997186
898,1,0.2,0.0625,35.0,1,1.0,0.46590100000003076
899,1,0.2,0.0,35.0,-1,0.0,0.4462009999997463
900,1,0.2,0.0625,35.0,1,1.0,0.3263010000000577
901,1,0.2,0.125,35.0,1,1.0,0.3011019999999007
902,1,0.2,0.0,35.0,1,1.0,0.42650099999991653
903,1,0.2,0.25,35.0,1,1.0,0.42520099999956074
904,1,0.2,0.25,35.0,1,1.0,0.2935010000001057
905,1,0.2,1.0,-35.0,-1,1.0,0.3981010000002243
906,1,0.2,0.125,35.0,1,1.0,0.3335010000000693
907,1,0.2,1.0,35.0,1,1.0,0.4252010000000155
908,1,0.2,0.25,-35.0,-1,1.0,0.33030200000030163
909,1,0.2,0.0625,-35.0,-1,1.0,0.3724019999999655
910,1,0.2,0.0,35.0,-1,0.0,0.48060099999975137
911,1,0.2,1.0,-35.0,-1,1.0,0.3193010000004506
912,1,0.2,0.0,-35.0,-1,1.0,0.5907019999999648
913,1,0.2,1.0,35.0,1,1.0,0.2764009999996233
914,1,0.2,0.0,35.0,-1,0.0,0.5144020000002456
915,1,0.8,0.125,35.0,1,1.0,0.33580099999971935
916,1,0.8,0.125,-35.0,-1,1.0,0.28780100000039965
917,1,0.8,0.125,-35.0,-1,1.0,0.2862020000002303
918,1,0.8,0.125,-35.0,-1,1.0,0.2747010000002774
919,1,0.8,0.0,35.0,-1,0.0,0.29640100000005987
920,1,0.8,0.0,-35.0,-1,1.0,0.3881009999995513
921,1,0.8,0.25,-35.0,-1,1.0,0.2735020000000077
922,1,0.8,1.0,-35.0,-1,1.0,0.25160100000039165
923,1,0.8,0.125,35.0,1,1.0,0.4430020000004333
924,1,0.8,0.125,-35.0,-1,1.0,0.25840199999993274
925,1,0.8,0.25,-35.0,-1,1.0,0.3373020000003635
926,1,0.8,0.25,-35.0,-1,1.0,0.3021009999997659
927,1,0.8,0.0,-35.0,1,0.0,0.3076009999999769
928,1,0.8,1.0,-35.0,-1,1.0,0.25880099999994854
929,1,0.8,0.125,-35.0,-1,1.0,0.3745010000002367
930,1,0.8,1.0,-35.0,-1,1.0,0.23240100000020902
931,1,0.8,0.0,-35.0,-1,1.0,0.22410100000024613
932,1,0.8,1.0,-35.0,-1,1.0,0.2592010000003029
933,1,0.8,0.0,-35.0,1,0.0,0.4207010000000082
934,1,0.8,1.0,-35.0,-1,1.0,0.30280200000061086
935,1,0.8,1.0,35.0,1,1.0,0.2676010000000133
936,1,0.8,0.0625,-35.0,-1,1.0,0.28620100000034654
937,1,0.8,0.25,-35.0,-1,1.0,0.28180099999963204
938,1,0.8,0.25,-35.0,-1,1.0,0.25660100000004604
939,1,0.8,0.0,-35.0,-1,1.0,0.32140099999969607
940,1,0.8,0.25,35.0,1,1.0,0.3498010000002978
941,1,0.8,1.0,-35.0,-1,1.0,0.2548019999999269
942,1,0.8,0.25,35.0,1,1.0,0.3301010000000133
943,1,0.8,1.0,-35.0,-1,1.0,0.30880200000001423
944,1,0.8,0.0,35.0,-1,0.0,0.2670010000001639
945,1,0.8,0.25,-35.0,-1,1.0,0.2526009999996859
946,1,0.8,0.25,-35.0,-1,1.0,0.7073009999999158
947,1,0.8,0.125,-35.0,1,0.0,0.34580099999993763
948,1,0.8,1.0,-35.0,-1,1.0,0.25090100000034
949,1,0.8,0.125,-35.0,-1,1.0,0.2328019999999924
950,1,0.8,1.0,-35.0,-1,1.0,0.24420099999997547
951,1,0.8,1.0,-35.0,-1,1.0,0.35690100000010716
952,1,0.8,0.0625,35.0,1,1.0,0.29770200000029945
953,1,0.8,0.0,-35.0,1,0.0,0.3491020000001299
954,1,0.8,1.0,-35.0,-1,1.0,0.24800099999993108
955,1,0.8,0.125,35.0,1,1.0,0.42690100000027087
956,1,0.8,1.0,35.0,1,1.0,0.31160099999988233
957,1,0.8,0.0,35.0,1,1.0,0.44400099999984377
958,1,0.8,0.0625,-35.0,-1,1.0,0.7351010000002134
959,1,0.8,0.25,-35.0,-1,1.0,0.2511020000001736
960,1,0.8,0.25,-35.0,-1,1.0,0.2818010000000868
961,1,0.8,0.125,-35.0,-1,1.0,0.26710099999991144
962,1,0.8,0.0625,-35.0,1,0.0,0.3718010000002323
963,1,0.8,0.25,-35.0,-1,1.0,0.2504009999997834
964,1,0.8,0.25,-35.0,-1,1.0,0.28880100000014863
965,1,0.8,0.0,35.0,-1,0.0,0.2871020000002318
966,1,0.8,1.0,-35.0,-1,1.0,0.6224010000000817
967,1,0.8,0.0625,-35.0,-1,1.0,15.070800999999847
968,1,0.8,0.125,-35.0,-1,1.0,0.2830020000001241
969,1,0.8,0.25,-35.0,-1,1.0,0.21880099999998492
970,1,0.8,0.0625,-35.0,-1,1.0,0.2632010000002083
971,1,0.8,1.0,-35.0,-1,1.0,0.2452010000001792
972,1,0.8,0.0625,-35.0,-1,1.0,0.27030100000001767
973,1,0.8,0.25,-35.0,-1,1.0,0.2535020000000259
974,1,0.8,1.0,-35.0,-1,1.0,0.22930200000018885
975,1,0.8,0.25,-35.0,-1,1.0,0.24370100000032835
976,1,0.8,1.0,-35.0,-1,1.0,0.22930099999985032
977,1,0.8,0.0,-35.0,-1,1.0,8.42060100000026
978,1,0.8,0.25,-35.0,-1,1.0,0.26040100000000166
979,1,0.8,0.0625,-35.0,-1,1.0,0.4642010000002301
980,1,0.8,1.0,-35.0,-1,1.0,0.2592010000003029
981,1,0.8,1.0,-35.0,-1,1.0,0.22450100000014572
982,1,0.8,0.25,-35.0,-1,1.0,0.2375010000000657
983,1,0.8,0.125,-35.0,-1,1.0,0.2481009999996786
984,1,0.8,0.25,-35.0,-1,1.0,0.25660100000004604
985,1,0.8,1.0,-35.0,-1,1.0,0.24470200000041586
986,1,0.8,1.0,-35.0,-1,1.0,0.24970200000007026
987,1,0.8,0.25,-35.0,-1,1.0,0.2818010000000868
988,1,0.8,0.25,-35.0,-1,1.0,0.30330099999991944
989,1,0.8,0.25,35.0,1,1.0,0.3251010000003589
990,1,0.8,0.25,-35.0,-1,1.0,0.23460100000011153
991,1,0.8,0.0,-35.0,-1,1.0,0.3986009999998714
992,1,0.2,1.0,35.0,1,1.0,0.29080100000010134
993,1,0.2,0.25,35.0,1,1.0,0.36220100000036837
994,1,0.2,0.0625,35.0,1,1.0,0.41470099999969534
995,1,0.2,1.0,-35.0,-1,1.0,0.2624010000004091
996,1,0.2,0.125,35.0,-1,0.0,0.24360099999967133
997,1,0.2,0.0625,-35.0,-1,1.0,0.2292010000001028
998,1,0.2,0.125,35.0,-1,0.0,0.26470100000005914
999,1,0.2,0.25,35.0,-1,0.0,0.25290099999892846
1000,1,0.2,0.0625,35.0,1,1.0,1.7446009999994203
1001,1,0.2,0.125,-35.0,-1,1.0,0.28970100000060484
1002,1,0.2,0.25,35.0,1,1.0,0.3527009999997972
1003,1,0.2,0.0,35.0,-1,0.0,0.2933020000000397
1004,1,0.2,0.25,-35.0,-1,1.0,0.5747010000004593
1005,1,0.2,0.0625,35.0,-1,0.0,0.2534009999999398
1006,1,0.2,0.0,35.0,-1,0.0,0.32150199999978213
1007,1,0.2,0.25,35.0,1,1.0,13.820300999999745
1008,1,0.2,0.0625,35.0,-1,0.0,0.3430020000005243
1009,1,0.2,0.25,35.0,1,1.0,3.707601999999497
1010,1,0.2,0.25,35.0,1,1.0,17.91910100000041
1011,1,0.2,0.125,35.0,1,1.0,1.2680009999994581
1012,1,0.2,0.0,-35.0,-1,1.0,2.7198010000001887
1013,1,0.2,0.0625,35.0,1,1.0,26.855101000000104
1014,1,0.2,0.25,35.0,0,0.0,60.03820199999973
1015,1,0.2,0.0,-35.0,1,0.0,20.445400999999947
1016,1,0.2,0.25,35.0,1,1.0,0.6705009999996037
1017,1,0.8,0.0,-35.0,1,0.0,7.008001000000149
1018,1,0.8,0.0625,-35.0,1,0.0,1.2065009999996619
1019,1,0.8,0.0625,-35.0,-1,1.0,6.65190100000018
1020,1,0.8,0.0,-0.0,0,0.0,60.03710199999932
1021,1,0.8,1.0,-35.0,1,0.0,11.947000999999545
1022,1,0.8,0.0625,35.0,1,1.0,9.590602000000217
1023,1,0.8,1.0,-35.0,-1,1.0,0.299101999999948
1024,1,0.8,1.0,-35.0,1,0.0,17.011201000000256
1025,1,0.8,0.25,-35.0,1,0.0,28.071101000000453
1026,1,0.8,0.125,35.0,1,1.0,23.785901999999624
1,2,0.5,0.125,35.0,1,1.0,0.6032000000000002
2,2,0.5,0.0,35.0,-1,0.0,0.3132999999999999
3,2,0.5,1.0,35.0,1,1.0,0.2735000000000021
4,2,0.5,0.0,-35.0,1,0.0,0.46549899999999944
5,2,0.5,0.125,-35.0,1,0.0,0.5856989999999982
6,2,0.5,0.25,-35.0,-1,1.0,0.24329900000000038
7,2,0.5,0.0,-35.0,-1,1.0,0.248899999999999
8,2,0.5,0.0625,35.0,-1,0.0,0.27239900000000006
9,2,0.5,0.0625,35.0,-1,0.0,1.7953990000000033
10,2,0.5,0.0625,35.0,-1,0.0,0.3808989999999923
11,2,0.5,0.0,-35.0,-1,1.0,0.2581989999999905
12,2,0.5,0.0625,35.0,1,1.0,4.040099999999995
13,2,0.5,0.0625,35.0,-1,0.0,0.5697989999999891
14,2,0.5,0.0625,-35.0,-1,1.0,0.227599000000005
15,2,0.5,0.25,35.0,1,1.0,0.6490990000000068
16,2,0.5,0.125,-35.0,-1,1.0,0.21289900000000728
17,2,0.5,0.0,-35.0,-1,1.0,0.2252989999999926
18,2,0.5,1.0,35.0,1,1.0,0.396599000000009
19,2,0.5,0.0,-35.0,1,0.0,0.9746999999999986
20,2,0.5,0.0625,-35.0,-1,1.0,0.3906000000000063
21,2,0.5,0.0625,-35.0,-1,1.0,0.275999000000013
22,2,0.5,0.125,-35.0,-1,1.0,0.2913990000000126
23,2,0.5,1.0,-35.0,-1,1.0,0.23659900000001244
24,2,0.5,0.125,-35.0,-1,1.0,0.4574000000000211
25,2,0.5,0.125,35.0,-1,0.0,0.21519900000001257
26,2,0.5,0.25,-35.0,-1,1.0,0.27720000000000766
27,2,0.5,0.0625,-35.0,-1,1.0,0.25440000000001817
28,2,0.5,1.0,35.0,1,1.0,0.5792990000000202
29,2,0.5,0.0,35.0,-1,0.0,0.263300000000001
30,2,0.5,0.125,35.0,-1,0.0,0.3543990000000008
31,2,0.5,0.0625,35.0,-1,0.0,0.21109900000000437
32,2,0.5,1.0,35.0,1,1.0,0.9700990000000047
33,2,0.5,0.25,-35.0,1,0.0,1.4077990000000113
34,2,0.5,0.125,35.0,-1,0.0,1.4753000000000043
35,2,0.5,0.25,-35.0,-1,1.0,0.3018989999999917
36,2,0.5,0.0,35.0,-1,0.0,0.23740000000000805
37,2,0.5,0.0625,35.0,-1,0.0,0.275100000000009
38,2,0.5,0.0625,35.0,1,1.0,0.336400000000026
39,2,0.5,0.0625,-35.0,1,0.0,6.264799000000011
40,2,0.5,0.0625,-35.0,1,0.0,0.3748989999999992
41,2,0.5,0.25,-35.0,-1,1.0,0.25149999999999295
42,2,0.5,0.0,35.0,-1,0.0,0.24759900000000812
43,2,0.5,0.25,-35.0,-1,1.0,0.24209899999999607
44,2,0.5,0.0,35.0,-1,0.0,0.5795999999999992
45,2,0.5,0.0,-35.0,-1,1.0,0.5262989999999945
46,2,0.5,1.0,-35.0,-1,1.0,0.24759900000000812
47,2,0.5,1.0,-35.0,-1,1.0,0.28289900000001467
48,2,0.5,0.0625,35.0,1,1.0,0.45349999999999113
49,2,0.5,0.0625,-35.0,-1,1.0,0.5859989999999868
50,2,0.5,0.0625,35.0,1,1.0,0.3657000000000039
51,2,0.5,0.0,35.0,-1,0.0,0.6805990000000008
52,2,0.5,0.0,35.0,-1,0.0,0.3488999999999862
53,2,0.5,0.0,35.0,-1,0.0,0.24799899999999298
54,2,0.5,0.25,35.0,-1,0.0,0.2777990000000159
55,2,0.5,0.0625,35.0,-1,0.0,0.23079900000001885
56,2,0.5,0.0,35.0,-1,0.0,0.20109899999999925
57,2,0.5,1.0,35.0,1,1.0,0.30289999999999395
58,2,0.5,0.0625,35.0,1,1.0,3.891399000000007
59,2,0.5,0.125,-35.0,1,0.0,0.31739999999999213
60,2,0.5,0.25,35.0,1,1.0,1.3692000000000064
61,2,0.5,0.25,-35.0,1,0.0,0.46349999999998204
62,2,0.5,0.125,-35.0,1,0.0,0.2827989999999545
63,2,0.5,0.125,-35.0,-1,1.0,0.3423989999999435
64,2,0.5,1.0,-35.0,-1,1.0,0.2667989999999918
65,2,0.5,1.0,-35.0,-1,1.0,0.27089899999992895
66,2,0.5,0.0,-35.0,-1,1.0,0.55119899999994
67,2,0.5,0.0625,-35.0,1,0.0,0.4257989999999836
68,2,0.5,0.25,-35.0,-1,1.0,0.23809999999997444
69,2,0.5,1.0,-35.0,-1,1.0,0.21119999999996253
70,2,0.5,1.0,-35.0,-1,1.0,0.2342989999999645
71,2,0.5,0.25,35.0,-1,0.0,0.4957989999999768
72,2,0.5,0.25,35.0,1,1.0,0.3176989999999478
73,2,0.5,1.0,-35.0,-1,1.0,0.3999989999999798
74,2,0.5,0.125,35.0,1,1.0,0.4205989999999815
75,2,0.5,0.0,-35.0,1,0.0,0.34509899999994786
76,2,0.5,1.0,-35.0,-1,1.0,0.2554989999999293
77,2,0.5,0.0,35.0,-1,0.0,0.484299999999962
78,2,0.5,0.0,-35.0,-1,1.0,0.29000000000002046
79,2,0.5,1.0,-35.0,-1,1.0,0.2433990000000108
80,2,0.5,0.0,35.0,-1,0.0,0.5997989999999618
81,2,0.5,0.0625,-35.0,-1,1.0,0.3000989999999888
82,2,0.5,0.0625,-35.0,-1,1.0,0.23279999999999745
83,2,0.5,0.0625,-35.0,-1,1.0,0.23739999999997963
84,2,0.5,0.25,35.0,1,1.0,0.33359899999999243
85,2,0.5,1.0,35.0,1,1.0,0.4970989999999915
86,2,0.5,0.125,-35.0,1,0.0,0.3394000000000119
87,2,0.5,0.0625,35.0,1,1.0,0.371400000000051
88,2,0.5,0.0625,-35.0,-1,1.0,0.4133989999999699
89,2,0.5,0.125,35.0,-1,0.0,0.219099999999969
90,2,0.5,0.25,-35.0,-1,1.0,0.23659900000001244
91,2,0.2,0.25,-35.0,-1,1.0,0.23719899999991867
92,2,0.2,1.0,-35.0,-1,1.0,0.5558990000000108
93,2,0.2,0.125,35.0,-1,0.0,0.9033990000000358
94,2,0.2,0.0,-35.0,-1,1.0,0.47680000000002565
95,2,0.2,0.25,35.0,-1,0.0,0.23919899999998506
96,2,0.2,0.0625,35.0,-1,0.0,0.43089999999995143
97,2,0.2,1.0,35.0,1,1.0,0.28839999999996735
98,2,0.2,0.0625,35.0,-1,0.0,0.6059989999999402
99,2,0.2,1.0,35.0,1,1.0,0.2751989999999864
100,2,0.2,0.25,35.0,1,1.0,0.3373990000000049
101,2,0.2,0.0,35.0,1,1.0,0.36029999999993834
102,2,0.2,0.125,35.0,1,1.0,0.331799999999987
103,2,0.2,0.125,-35.0,-1,1.0,0.50649999999996
104,2,0.2,0.0625,35.0,1,1.0,0.3638989999999467
105,2,0.2,0.0,35.0,1,1.0,0.3639989999999216
106,2,0.2,0.25,35.0,1,1.0,0.4574000000000069
107,2,0.2,0.0625,35.0,1,1.0,0.3322989999999777
108,2,0.2,0.0,35.0,-1,0.0,0.6117990000000191
109,2,0.2,1.0,35.0,1,1.0,0.2334989999999948
110,2,0.2,0.0,35.0,1,1.0,0.37869899999998324
111,2,0.2,0.25,35.0,1,1.0,0.3014999999999759
112,2,0.2,0.0625,35.0,1,1.0,0.4860989999999674
113,2,0.2,1.0,35.0,1,1.0,0.29349899999999707
114,2,0.2,0.25,35.0,1,1.0,0.31929899999994404
115,2,0.2,0.25,35.0,1,1.0,0.2884999999999991
116,2,0.2,0.0,-35.0,1,0.0,0.2609989999999698
117,2,0.2,0.25,35.0,1,1.0,0.2999999999999545
118,2,0.2,1.0,35.0,1,1.0,0.309599999999989
119,2,0.2,0.125,35.0,1,1.0,0.4582999999999515
120,2,0.2,0.0625,35.0,1,1.0,0.3920990000000302
121,2,0.2,0.0625,-35.0,1,0.0,1.0655989999999633
122,2,0.2,0.25,35.0,1,1.0,0.2585990000000038
123,2,0.2,0.0,35.0,1,1.0,0.3195989999999824
124,2,0.2,0.25,35.0,1,1.0,0.3901989999999387
125,2,0.2,0.25,35.0,1,1.0,0.29959899999994377
126,2,0.2,0.0,-35.0,1,0.0,0.39989899999994805
127,2,0.2,0.125,35.0,1,1.0,0.23709900000000061
128,2,0.2,0.25,35.0,1,1.0,0.2914989999999307
129,2,0.2,0.25,35.0,1,1.0,0.4001989999999296
130,2,0.2,0.0625,-35.0,1,0.0,0.35389999999995325
131,2,0.2,0.0,35.0,1,1.0,0.2946000000000595
132,2,0.2,1.0,35.0,1,1.0,0.28149899999993977
133,2,0.2,1.0,35.0,1,1.0,0.26789899999994304
134,2,0.2,0.25,35.0,1,1.0,0.2871989999999869
135,2,0.2,0.0,35.0,1,1.0,0.39679899999998725
136,2,0.2,0.0,-35.0,1,0.0,1.9300989999999274
137,2,0.2,0.0,35.0,-1,0.0,0.43279899999993177
138,2,0.2,0.0,35.0,1,1.0,0.27339999999992415
139,2,0.2,0.125,35.0,1,1.0,0.3464999999998781
140,2,0.2,1.0,35.0,1,1.0,0.2623999999999569
141,2,0.2,0.25,35.0,1,1.0,0.4528989999998885
142,2,0.2,0.125,35.0,1,1.0,0.45759899999995923
143,2,0.2,0.0,35.0,1,1.0,0.28359899999998106
144,2,0.2,0.0625,35.0,1,1.0,0.3937989999999445
145,2,0.2,0.0625,-35.0,1,0.0,0.4421990000000733
146,2,0.2,0.125,35.0,1,1.0,0.43279999999992924
147,2,0.2,0.125,35.0,1,1.0,0.33579900000006546
148,2,0.2,0.25,35.0,1,1.0,0.4502989999999727
149,2,0.2,0.125,-35.0,1,0.0,0.4359989999999243
150,2,0.2,1.0,35.0,1,1.0,0.6537990000000491
151,2,0.2,1.0,35.0,1,1.0,0.3936989999999696
152,2,0.2,0.0625,-35.0,1,0.0,0.453899999999976
153,2,0.2,0.125,35.0,1,1.0,0.282100000000014
154,2,0.2,0.0,35.0,1,1.0,0.4022989999999709
155,2,0.2,0.0,35.0,1,1.0,0.39429999999993015
156,2,0.2,0.25,-35.0,-1,1.0,0.39210000000002765
157,2,0.2,1.0,-35.0,-1,1.0,0.25129900000001726
158,2,0.2,0.125,35.0,1,1.0,0.4757999999999356
159,2,0.2,0.0,35.0,1,1.0,0.3690990000000056
160,2,0.2,0.0,35.0,1,1.0,1.0209999999999582
161,2,0.2,0.0,35.0,1,1.0,0.39229999999986376
162,2,0.2,0.125,35.0,1,1.0,0.3425990000000638
163,2,0.2,0.25,35.0,1,1.0,0.3052989999999909
164,2,0.2,1.0,35.0,1,1.0,0.24149899999997615
165,2,0.2,0.0625,35.0,1,1.0,0.2701999999999316
166,2,0.2,0.25,35.0,1,1.0,0.3771990000000187
167,2,0.2,0.25,35.0,1,1.0,0.40229999999996835
168,2,0.2,0.125,35.0,1,1.0,0.3678989999998521
169,2,0.2,0.25,35.0,1,1.0,0.3753989999999021
170,2,0.2,0.0,-35.0,1,0.0,0.46309899999994286
171,2,0.8,0.125,-35.0,-1,1.0,0.2689989999998943
172,2,0.8,1.0,-35.0,1,0.0,0.2241989999999987
173,2,0.8,1.0,-35.0,-1,1.0,0.2524989999999434
174,2,0.8,0.0,-35.0,-1,1.0,0.2277000000000271
175,2,0.8,1.0,-35.0,-1,1.0,0.2123990000000049
176,2,0.8,0.0,-35.0,1,0.0,0.45299999999997453
177,2,0.8,0.25,-35.0,-1,1.0,0.2160989999999856
178,2,0.8,0.0,-35.0,-1,1.0,0.31829900000002453
179,2,0.8,0.125,-35.0,-1,1.0,0.2685999999999922
180,2,0.8,0.25,35.0,-1,0.0,0.40719899999987774
181,2,0.8,0.125,-35.0,-1,1.0,0.2894989999998643
182,2,0.8,1.0,-35.0,-1,1.0,0.22559899999998834
183,2,0.8,0.0625,-35.0,-1,1.0,0.33049900000003163
184,2,0.8,0.25,-35.0,-1,1.0,0.2106989999998632
185,2,0.8,0.25,-35.0,-1,1.0,0.2403990000000249
186,2,0.8,0.0,-35.0,-1,1.0,0.14899900000011712
187,2,0.8,0.0,35.0,-1,0.0,0.2420990000000529
188,2,0.8,0.0625,-35.0,-1,1.0,0.34369999999989886
189,2,0.8,0.0,-35.0,-1,1.0,0.3006990000000087
190,2,0.8,0.125,-35.0,-1,1.0,0.22179899999991903
191,2,0.8,0.0625,-35.0,-1,1.0,0.3267999999999347
192,2,0.8,0.0625,-35.0,-1,1.0,0.49109999999984666
193,2,0.8,0.0625,35.0,1,1.0,0.300698999999895
194,2,0.8,0.0,-35.0,-1,1.0,0.23679900000001908
195,2,0.8,0.125,-35.0,-1,1.0,0.22889899999995578
196,2,0.8,0.125,-35.0,-1,1.0,0.22139899999990575
197,2,0.8,0.125,-35.0,-1,1.0,0.6049990000000207
198,2,0.8,1.0,-35.0,-1,1.0,0.33209900000008474
199,2,0.8,1.0,35.0,1,1.0,0.35039999999992233
200,2,0.8,0.0,-35.0,-1,1.0,0.5343990000000076
201,2,0.8,1.0,-35.0,-1,1.0,0.2538990000000467
202,2,0.8,0.125,35.0,-1,0.0,0.43499899999994796
203,2,0.8,0.125,35.0,1,1.0,0.42880000000002383
204,2,0.8,0.0625,-35.0,-1,1.0,0.7115000000000009
205,2,0.8,0.0625,-35.0,-1,1.0,0.22779900000000453
206,2,0.8,0.125,-35.0,-1,1.0,0.2863989999999603
207,2,0.8,0.0625,-35.0,-1,1.0,0.26379899999994905
208,2,0.8,0.0,-35.0,-1,1.0,0.34039899999993395
209,2,0.8,0.25,-35.0,-1,1.0,0.2245989999998983
210,2,0.8,0.125,-35.0,-1,1.0,0.2727990000000773
211,2,0.8,0.125,35.0,-1,0.0,0.42200000000002547
212,2,0.8,0.0,35.0,1,1.0,0.2971989999999778
213,2,0.8,0.125,-35.0,-1,1.0,0.3837989999999536
214,2,0.8,0.0,-35.0,-1,1.0,0.27149999999994634
215,2,0.8,0.0,-35.0,-1,1.0,0.33999900000003436
216,2,0.8,1.0,-35.0,-1,1.0,0.24519899999995687
217,2,0.8,1.0,-35.0,-1,1.0,0.21969899999999143
218,2,0.8,0.125,-35.0,-1,1.0,0.25549999999986994
219,2,0.8,1.0,-35.0,-1,1.0,0.24499900000000707
220,2,0.8,0.0,-35.0,-1,1.0,0.3267999999999347
221,2,0.8,0.0,-35.0,-1,1.0,0.2686989999998559
222,2,0.8,0.0,-35.0,-1,1.0,0.22139899999990575
223,2,0.8,0.0625,-35.0,-1,1.0,0.34809900000004745
224,2,0.8,0.0,-35.0,1,0.0,0.3757989999999154
225,2,0.8,1.0,-35.0,-1,1.0,0.37609900000006746
226,2,0.8,0.0,-35.0,-1,1.0,0.25709999999992306
227,2,0.8,0.125,35.0,-1,0.0,0.2846999999999298
228,2,0.8,0.25,-35.0,-1,1.0,0.29319999999995616
229,2,0.8,0.0625,-35.0,-1,1.0,0.2823999999999387
230,2,0.8,0.25,35.0,1,1.0,0.3751989999999523
231,2,0.8,0.125,-35.0,-1,1.0,0.29579899999998815
232,2,0.8,0.25,-35.0,-1,1.0,0.2281999999999016
233,2,0.8,0.25,-35.0,-1,1.0,0.2401999999999589
234,2,0.8,0.125,35.0,1,1.0,0.34819900000002235
235,2,0.8,1.0,-35.0,-1,1.0,0.2284989999999425
236,2,0.8,0.125,-35.0,-1,1.0,0.33839899999998124
237,2,0.8,1.0,-35.0,-1,1.0,0.25159899999994195
238,2,0.8,0.125,-35.0,-1,1.0,0.39439900000002126
239,2,0.8,1.0,-35.0,-1,1.0,0.2647989999999254
240,2,0.8,1.0,-35.0,-1,1.0,0.26340000000004693
241,2,0.8,0.0625,-35.0,-1,1.0,0.27129999999988286
242,2,0.8,0.0,-35.0,-1,1.0,0.4074990000000298
243,2,0.8,0.25,-35.0,-1,1.0,0.22529899999994996
244,2,0.8,0.0625,-35.0,-1,1.0,0.3183999999998832
245,2,0.8,0.125,-35.0,-1,1.0,0.27209899999991194
246,2,0.8,0.0,-35.0,1,0.0,0.3934989999999061
247,2,0.8,0.0625,35.0,-1,0.0,0.2505989999999656
248,2,0.8,0.0,-35.0,-1,1.0,0.42339899999990394
249,2,0.8,1.0,35.0,1,1.0,0.31679900000006
250,2,0.8,0.125,35.0,1,1.0,0.6746999999999161
251,2,0.8,0.25,-35.0,-1,1.0,0.2300989999999956
252,2,0.8,1.0,-35.0,-1,1.0,0.18549899999993613
253,2,0.8,1.0,-35.0,-1,1.0,0.2102989999999636
254,2,0.2,0.0625,35.0,1,1.0,0.7253990000000385
255,2,0.2,0.0625,-35.0,-1,1.0,0.42719899999997324
256,2,0.2,0.0625,35.0,-1,0.0,0.2685999999998785
257,2,0.2,0.0625,-35.0,1,0.0,0.27709900000013477
258,2,0.2,0.125,35.0,1,1.0,0.2622000000001208
259,2,0.2,0.0,-35.0,-1,1.0,0.26080000000024484
260,2,0.2,0.25,-35.0,-1,1.0,0.23879900000019916
261,2,0.2,0.25,35.0,1,1.0,0.7409999999999854
262,2,0.2,0.125,35.0,1,1.0,0.3097000000002481
263,2,0.2,0.0,35.0,1,1.0,0.35760000000027503
264,2,0.2,0.0,35.0,1,1.0,0.326799999999821
265,2,0.2,0.25,35.0,1,1.0,0.34140000000024884
266,2,0.2,0.0625,35.0,1,1.0,0.292699999999968
267,2,0.2,0.125,35.0,1,1.0,0.311701000000312
268,2,0.2,0.25,-35.0,-1,1.0,0.2908999999999651
269,2,0.2,0.0,35.0,1,1.0,0.5751000000000204
270,2,0.2,0.0625,35.0,1,1.0,0.3408000000001721
271,2,0.2,0.25,-35.0,1,0.0,0.29189999999994143
272,2,0.2,0.0,35.0,1,1.0,0.2938000000001466
273,2,0.2,0.125,-35.0,-1,1.0,0.3120010000000093
274,2,0.2,0.0,35.0,-1,0.0,0.38009999999985666
275,2,0.2,0.25,35.0,1,1.0,0.4156000000000404
276,2,0.2,0.125,35.0,1,1.0,0.2904000000000906
277,2,0.2,0.25,35.0,-1,0.0,0.7556010000000697
278,2,0.2,0.125,35.0,1,1.0,0.22289999999998145
279,2,0.2,0.0625,-35.0,1,0.0,0.35950000000025284
280,2,0.2,0.25,35.0,1,1.0,0.30100100000004204
281,2,0.2,0.25,35.0,1,1.0,0.2698010000001432
282,2,0.8,1.0,-35.0,-1,1.0,0.1879999999998745
283,2,0.8,0.0625,-35.0,-1,1.0,0.22649999999998727
284,2,0.8,1.0,-35.0,-1,1.0,0.22490000000016153
285,2,0.8,0.25,-35.0,-1,1.0,0.27680099999997765
286,2,0.8,0.25,-35.0,-1,1.0,0.1850010000000566
287,2,0.8,0.0,35.0,-1,0.0,0.19690000000014152
288,2,0.8,1.0,-35.0,-1,1.0,0.18840100000011262
289,2,0.8,0.0,-35.0,1,0.0,1.2735999999999876
290,2,0.8,0.25,-35.0,-1,1.0,0.22560000000021319
291,2,0.8,0.0,-35.0,-1,1.0,0.28080100000011043
292,2,0.8,0.0,35.0,-1,0.0,0.34570000000007894
293,2,0.8,0.0625,35.0,-1,0.0,0.26410000000032596
294,2,0.8,1.0,35.0,1,1.0,0.5125009999999293
295,2,0.8,0.0,-35.0,1,0.0,0.2844000000000051
296,2,0.8,0.0625,-35.0,1,0.0,0.277201000000332
297,2,0.8,0.25,-35.0,-1,1.0,0.28110000000015134
298,2,0.8,0.25,-35.0,-1,1.0,0.27020100000027014
299,2,0.8,0.0,-35.0,-1,1.0,0.248299999999972
300,2,0.8,0.125,-35.0,-1,1.0,0.28040100000021084
301,2,0.8,0.125,-35.0,-1,1.0,0.3218010000000504
302,2,0.8,0.0625,-35.0,1,0.0,0.5201010000000679
303,2,0.8,1.0,-35.0,-1,1.0,0.23230000000012296
304,2,0.8,0.0,-35.0,1,0.0,0.853800000000092
305,2,0.8,0.25,35.0,1,1.0,0.23880000000008295
306,2,0.8,0.125,-35.0,-1,1.0,0.2714010000001963
307,2,0.8,0.0,-35.0,-1,1.0,0.6322010000001228
308,2,0.8,0.0,-35.0,-1,1.0,0.41440000000011423
309,2,0.8,0.0625,-35.0,-1,1.0,0.22270000000025902
310,2,0.8,0.25,35.0,1,1.0,0.36150100000008933
311,2,0.8,0.125,-35.0,1,0.0,0.42280100000039056
312,2,0.8,0.0,-35.0,-1,1.0,0.38100000000031287
313,2,0.8,0.0,-35.0,-1,1.0,0.40960100000006605
314,2,0.8,1.0,35.0,1,1.0,0.23460100000011153
315,2,0.8,0.25,-35.0,-1,1.0,0.26660000000015316
316,2,0.8,0.25,-35.0,-1,1.0,0.21560000000022228
317,2,0.8,0.125,-35.0,-1,1.0,0.3435010000002876
318,2,0.8,0.125,-35.0,-1,1.0,0.33570000000008804
319,2,0.8,0.0625,-35.0,-1,1.0,0.2803000000001248
320,2,0.8,0.125,-35.0,-1,1.0,0.4697009999999864
321,2,0.8,1.0,-35.0,-1,1.0,0.2640000000001237
322,2,0.8,0.0625,-35.0,-1,1.0,0.2556010000000697
323,2,0.8,1.0,-35.0,-1,1.0,0.3607010000000628
324,2,0.8,1.0,35.0,1,1.0,0.28260000000022956
325,2,0.8,1.0,-35.0,-1,1.0,0.28090100000008533
326,2,0.8,0.125,-35.0,-1,1.0,0.42980100000022503
327,2,0.8,0.0,-35.0,-1,1.0,0.49450000000024374
328,2,0.8,0.0,35.0,-1,0.0,0.48990000000026157
329,2,0.8,0.0,-35.0,-1,1.0,0.27440100000012535
330,2,0.8,0.0625,-35.0,-1,1.0,0.37380099999995764
331,2,0.8,1.0,-35.0,-1,1.0,0.4716009999999642
332,2,0.8,0.25,-35.0,-1,1.0,0.4837999999999738
333,2,0.8,0.0625,-35.0,-1,1.0,0.25820000000021537
334,2,0.8,0.0,-35.0,-1,1.0,0.36390000000005784
335,2,0.8,0.0,-35.0,-1,1.0,0.3817010000002483
336,2,0.8,0.0,-35.0,-1,1.0,0.25380100000029415
337,2,0.8,0.125,35.0,-1,0.0,0.31530000000020664
338,2,0.8,0.0625,35.0,-1,0.0,0.23460000000000036
339,2,0.8,1.0,-35.0,-1,1.0,0.46879999999987376
340,2,0.8,0.0625,-35.0,1,0.0,0.8950000000002092
341,2,0.8,1.0,35.0,1,1.0,0.6457000000000335
342,2,0.8,0.0625,-35.0,1,0.0,0.330600000000004
343,2,0.8,0.125,-35.0,-1,1.0,0.25600100000019665
344,2,0.8,0.0,-35.0,1,0.0,0.3474010000002181
345,2,0.8,0.0,-35.0,-1,1.0,0.31270100000006096
346,2,0.8,1.0,-35.0,-1,1.0,0.211100000000215
347,2,0.8,0.25,35.0,1,1.0,0.3565000000000964
348,2,0.8,0.0625,-35.0,-1,1.0,6.291300000000092
349,2,0.8,0.0,-35.0,1,0.0,0.3931999999999789
350,2,0.8,0.0625,35.0,-1,0.0,0.4026010000000042
351,2,0.8,0.0,35.0,1,1.0,0.7536000000000058
352,2,0.8,0.25,-35.0,-1,1.0,0.22520000000008622
353,2,0.8,1.0,-35.0,-1,1.0,0.22700000000008913
354,2,0.8,1.0,-35.0,-1,1.0,0.23250100000018392
355,2,0.8,1.0,-35.0,-1,1.0,0.3240000000000691
356,2,0.8,1.0,-35.0,-1,1.0,0.22290100000031998
357,2,0.8,0.125,-35.0,-1,1.0,0.3108999999999469
358,2,0.8,0.25,-35.0,-1,1.0,0.22930100000030507
359,2,0.8,0.25,35.0,1,1.0,0.34090100000003076
360,2,0.8,0.0,-35.0,-1,1.0,0.4430999999999585
361,2,0.8,0.25,-35.0,-1,1.0,0.16780000000017026
362,2,0.8,0.25,-35.0,-1,1.0,0.2529010000000653
363,2,0.8,1.0,-35.0,-1,1.0,0.21640100000013263
364,2,0.8,0.0625,-35.0,-1,1.0,0.21120100000030106
365,2,0.8,1.0,-35.0,-1,1.0,0.2534000000002834
366,2,0.8,0.125,-35.0,-1,1.0,0.21830000000022665
367,2,0.8,0.125,-35.0,-1,1.0,0.2028000000002521
368,2,0.8,0.0625,-35.0,-1,1.0,0.22840000000019245
369,2,0.8,0.25,-35.0,-1,1.0,0.6864000000000487
370,2,0.2,0.25,35.0,1,1.0,0.6717000000003281
371,2,0.2,0.125,35.0,-1,0.0,0.3034010000001217
372,2,0.2,1.0,-35.0,-1,1.0,0.268601000000217
373,2,0.2,0.0625,35.0,-1,0.0,0.2074999999999818
374,2,0.2,0.0,35.0,-1,0.0,0.38220099999989543
375,2,0.2,0.0,35.0,-1,0.0,0.23080000000004475
376,2,0.2,0.25,35.0,-1,0.0,0.21580100000005586
377,2,0.2,0.125,35.0,1,1.0,0.34580000000005384
378,2,0.2,0.25,-35.0,-1,1.0,0.34940000000005966
379,2,0.2,0.125,35.0,1,1.0,0.38130000000023756
380,2,0.2,1.0,35.0,1,1.0,0.2928999999999178
381,2,0.2,0.0,35.0,-1,0.0,3.651600000000144
382,2,0.2,0.125,-35.0,1,0.0,0.779901000000109
383,2,0.2,1.0,35.0,1,1.0,0.21860000000015134
384,2,0.2,1.0,35.0,1,1.0,0.32020100000022467
385,2,0.2,1.0,35.0,1,1.0,0.3546000000001186
386,2,0.2,0.125,35.0,1,1.0,0.39020000000004984
387,2,0.2,0.0625,35.0,1,1.0,0.3523000000002412
388,2,0.2,1.0,35.0,1,1.0,0.29720000000020264
389,2,0.2,0.0,35.0,1,1.0,1.995300000000043
390,2,0.2,0.25,35.0,1,1.0,0.43710100000021157
391,2,0.2,0.25,35.0,1,1.0,0.5256010000000515
392,2,0.2,1.0,35.0,1,1.0,0.34060100000010607
393,2,0.2,0.0625,35.0,1,1.0,0.3989000000001397
394,2,0.2,1.0,35.0,1,1.0,0.2775000000001455
395,2,0.2,1.0,35.0,1,1.0,0.27610100000015336
396,2,0.2,1.0,35.0,1,1.0,0.3277000000002772
397,2,0.2,0.125,35.0,1,1.0,0.3039000000001124
398,2,0.2,0.125,-35.0,1,0.0,0.4415000000001328
399,2,0.2,0.25,35.0,1,1.0,0.2730010000002494
400,2,0.2,0.25,35.0,1,1.0,0.3648000000000593
401,2,0.2,0.25,35.0,1,1.0,0.42310100000031525
402,2,0.2,0.0,35.0,1,1.0,1.5883010000000013
403,2,0.2,1.0,35.0,1,1.0,0.340900000000147
404,2,0.2,0.25,35.0,1,1.0,0.4685010000002876
405,2,0.2,0.125,35.0,1,1.0,0.3141010000001643
406,2,0.2,0.125,35.0,-1,0.0,0.3687999999999647
407,2,0.2,0.0625,35.0,1,1.0,0.28100100000006023
408,2,0.2,0.0625,-35.0,1,0.0,0.2858000000001084
409,2,0.2,0.0625,35.0,1,1.0,0.2672010000001137
410,2,0.2,0.0,35.0,1,1.0,0.6392009999999573
411,2,0.2,0.0,35.0,1,1.0,1.1175000000000637
412,2,0.2,0.0,35.0,-1,0.0,0.3060010000001512
413,2,0.2,0.125,-35.0,1,0.0,0.3390999999999167
414,2,0.2,0.25,35.0,1,1.0,0.2662000000000262
415,2,0.8,0.0,-35.0,-1,1.0,0.35799999999994725
416,2,0.8,0.25,-35.0,-1,1.0,0.299900000000207
417,2,0.8,1.0,35.0,1,1.0,0.3222000000000662
418,2,0.8,0.0,35.0,-1,0.0,0.29330099999992854
419,2,0.8,0.125,-35.0,-1,1.0,0.3562000000001717
420,2,0.8,0.25,-35.0,1,0.0,0.3035010000000966
421,2,0.8,0.125,-35.0,-1,1.0,0.29230000000029577
422,2,0.8,0.0625,-35.0,-1,1.0,0.3170000000000073
423,2,0.8,0.125,-35.0,-1,1.0,0.2693010000000413
424,2,0.8,1.0,-35.0,-1,1.0,0.1938000000000102
425,2,0.8,1.0,35.0,-1,0.0,0.2357009999998354
426,2,0.8,1.0,-35.0,-1,1.0,0.2542000000000826
427,2,0.8,1.0,35.0,1,1.0,0.3398000000001957
428,2,0.8,0.0,35.0,-1,0.0,0.3744010000000344
429,2,0.8,0.125,-35.0,-1,1.0,0.3403000000000702
430,2,0.8,0.125,-35.0,-1,1.0,0.2744000000000142
431,2,0.8,0.0,-35.0,-1,1.0,0.6023999999999887
432,2,0.8,0.125,35.0,-1,0.0,0.2680000000002565
433,2,0.8,0.25,-35.0,-1,1.0,0.24340000000006512
434,2,0.8,0.0,-35.0,-1,1.0,0.2215000000001055
435,2,0.8,0.0,-35.0,-1,1.0,0.2604999999998654
436,2,0.8,0.0625,-35.0,-1,1.0,0.2717000000000098
437,2,0.8,0.0,35.0,1,1.0,0.33320000000026084
438,2,0.8,0.125,35.0,1,1.0,1.04520000000025
439,2,0.8,0.125,-35.0,-1,1.0,0.3105000000000473
440,2,0.8,0.125,-35.0,-1,1.0,0.3620010000001912
441,2,0.8,1.0,35.0,1,1.0,0.561500000000251
442,2,0.8,1.0,-35.0,-1,1.0,0.2622000000001208
443,2,0.8,0.0,-35.0,1,0.0,0.36710100000004786
444,2,0.8,0.25,-35.0,-1,1.0,0.3225000000002183
445,2,0.8,0.125,-35.0,-1,1.0,0.2474000000001979
446,2,0.8,0.25,-35.0,-1,1.0,0.2593000000001666
447,2,0.8,0.0625,-35.0,-1,1.0,0.23739999999997963
448,2,0.8,0.125,-35.0,-1,1.0,0.2527010000001155
449,2,0.8,0.0625,35.0,-1,0.0,0.27119999999990796
450,2,0.8,0.25,-35.0,-1,1.0,0.22309999999993124
451,2,0.8,1.0,-35.0,-1,1.0,0.264699999999948
452,2,0.2,0.25,35.0,-1,0.0,0.24660000000017135
453,2,0.2,0.25,35.0,1,1.0,0.3088000000000193
454,2,0.2,0.0,35.0,1,1.0,0.3035000000002128
455,2,0.2,0.125,35.0,1,1.0,0.724999999999909
456,2,0.2,0.0625,35.0,1,1.0,0.593900000000076
457,2,0.2,0.125,35.0,1,1.0,0.8189009999998689
458,2,0.2,0.25,35.0,1,1.0,0.3809000000001106
459,2,0.2,0.0625,-35.0,-1,1.0,0.7754010000001017
460,2,0.2,1.0,35.0,1,1.0,0.4808010000001559
461,2,0.2,0.0,35.0,1,1.0,0.36680100000012317
462,2,0.2,1.0,35.0,1,1.0,0.41750000000024556
463,2,0.2,1.0,35.0,1,1.0,0.3058000000000902
464,2,0.2,1.0,35.0,1,1.0,0.42780000000016116
465,2,0.2,0.0625,35.0,1,1.0,0.45270000000004984
466,2,0.2,0.25,35.0,1,1.0,0.4514010000000326
467,2,0.2,0.125,-35.0,-1,1.0,0.4961000000000695
468,2,0.2,0.125,-35.0,-1,1.0,0.3281000000001768
469,2,0.2,0.25,-35.0,-1,1.0,0.27300000000013824
470,2,0.2,0.125,35.0,1,1.0,0.3182000000001608
471,2,0.2,0.125,35.0,1,1.0,0.34980000000018663
472,2,0.2,0.125,35.0,1,1.0,0.36190000000010514
473,2,0.2,0.125,35.0,1,1.0,0.4000010000002021
474,2,0.2,0.0625,-35.0,1,0.0,1.39870000000019
475,2,0.2,0.0625,35.0,1,1.0,0.3235010000000784
476,2,0.2,0.125,35.0,-1,0.0,0.4755009999998947
477,2,0.2,1.0,35.0,1,1.0,0.29710000000000036
478,2,0.2,0.25,-35.0,-1,1.0,0.3060000000002674
479,2,0.2,1.0,-35.0,-1,1.0,0.26810100000011516
480,2,0.2,0.0,-35.0,1,0.0,0.7994000000001051
481,2,0.2,0.0,35.0,-1,0.0,0.588001000000304
482,2,0.2,0.125,-35.0,-1,1.0,0.29300000000012005
483,2,0.2,0.125,35.0,-1,0.0,0.28120100000001
484,2,0.2,0.0,35.0,1,1.0,0.5866010000002007
485,2,0.2,0.25,35.0,1,1.0,0.26220100000023194
486,2,0.2,0.0,35.0,1,1.0,0.290000000000191
487,2,0.2,0.25,-35.0,1,0.0,0.1847000000002481
488,2,0.2,1.0,35.0,1,1.0,0.26340000000004693
489,2,0.2,1.0,35.0,1,1.0,0.31169999999997344
490,2,0.2,0.0625,35.0,1,1.0,0.3438010000002123
491,2,0.2,1.0,35.0,1,1.0,0.27860100000020793
492,2,0.2,1.0,35.0,1,1.0,0.2937000000001717
493,2,0.2,0.0625,35.0,1,1.0,0.6022000000000389
494,2,0.2,0.0625,-35.0,1,0.0,0.6074000000000979
495,2,0.2,0.25,35.0,1,1.0,0.4461010000002261
496,2,0.2,1.0,-35.0,-1,1.0,0.2976000000003296
497,2,0.2,1.0,35.0,-1,0.0,0.21250099999997474
498,2,0.2,0.0625,35.0,-1,0.0,0.2478000000000975
499,2,0.2,0.0625,35.0,1,1.0,0.5275000000001455
500,2,0.8,0.25,-35.0,-1,1.0,0.24459999999999127
501,2,0.8,0.25,-35.0,-1,1.0,0.5363999999999578
502,2,0.8,0.25,35.0,1,1.0,0.4050000000002001
503,2,0.8,0.0625,-35.0,-1,1.0,0.3506009999996422
504,2,0.8,0.25,-35.0,-1,1.0,0.4917009999999209
505,2,0.8,0.0,-35.0,1,0.0,0.9769999999998618
506,2,0.8,0.0,-35.0,-1,1.0,0.47529999999960637
507,2,0.8,0.25,35.0,1,1.0,0.48709999999982756
508,2,0.8,0.125,-35.0,-1,1.0,0.2855000000004111
509,2,0.8,0.0,35.0,1,1.0,2.043800000000374
510,2,0.8,0.125,-35.0,-1,1.0,0.4090000000001055
511,2,0.8,0.0625,-35.0,-1,1.0,0.27060000000028595
512,2,0.8,0.125,35.0,1,1.0,0.48260000000027503
513,2,0.8,0.25,-35.0,-1,1.0,0.2577000000001135
514,2,0.8,0.0625,35.0,1,1.0,0.5463009999998576
515,2,0.8,0.25,-35.0,-1,1.0,0.2617000000000189
516,2,0.8,0.125,-35.0,-1,1.0,0.2863000000002103
517,2,0.8,0.0,-35.0,-1,1.0,0.29480100000000675
518,2,0.8,1.0,-35.0,-1,1.0,0.22640099999989616
519,2,0.8,0.25,-35.0,-1,1.0,0.3778010000000904
520,2,0.8,0.125,-35.0,-1,1.0,0.3599999999996726
521,2,0.8,0.0,35.0,1,1.0,0.918800000000374
522,2,0.8,0.0,-35.0,1,0.0,0.5466000000001259
523,2,0.8,0.125,-35.0,-1,1.0,0.6448999999997795
524,2,0.8,0.0625,-35.0,-1,1.0,0.31020100000023376
525,2,0.8,0.125,-35.0,-1,1.0,0.4292000000000371
526,2,0.8,0.125,-35.0,-1,1.0,0.783900000000358
527,2,0.8,1.0,35.0,1,1.0,0.9058999999997468
528,2,0.8,0.125,-35.0,1,0.0,6.684100000000399
529,2,0.8,1.0,35.0,1,1.0,0.27990100000033635
530,2,0.8,0.0625,-35.0,1,0.0,0.3278010000003633
531,2,0.8,1.0,-35.0,-1,1.0,0.38990100000000893
532,2,0.8,0.125,-35.0,-1,1.0,0.2814000000003034
533,2,0.8,0.125,35.0,-1,0.0,0.5003000000001521
534,2,0.8,0.25,35.0,1,1.0,0.44479999999975917
535,2,0.8,0.25,35.0,1,1.0,0.31719999999995707
536,2,0.8,0.125,-35.0,-1,1.0,0.2683999999999287
537,2,0.8,0.0,-35.0,-1,1.0,0.2901000000001659
538,2,0.8,1.0,-35.0,-1,1.0,0.2820000000001528
539,2,0.8,0.0625,-35.0,1,0.0,2.046900000000278
540,2,0.8,1.0,-35.0,-1,1.0,0.27229999999963184
541,2,0.8,0.0,-35.0,1,0.0,0.36340000000018335
542,2,0.8,0.125,-35.0,-1,1.0,0.6659009999998489
543,2,0.8,0.0,35.0,-1,0.0,0.4008009999997739
544,2,0.8,0.0,-35.0,-1,1.0,0.3791999999998552
545,2,0.8,0.0625,-35.0,-1,1.0,0.26070000000026994
546,2,0.8,0.0,-35.0,-1,1.0,0.24949999999989814
547,2,0.8,0.0,-35.0,-1,1.0,0.25080000000025393
548,2,0.8,0.125,-35.0,-1,1.0,0.3962010000000191
549,2,0.8,0.0,-35.0,-1,1.0,0.33840000000054715
550,2,0.8,1.0,-35.0,-1,1.0,0.22979999999961365
551,2,0.8,0.0,-35.0,1,0.0,11.811400000000049
552,2,0.8,0.25,35.0,-1,0.0,0.2736000000004424
553,2,0.8,0.0,-35.0,-1,1.0,0.48550099999965823
554,2,0.8,1.0,-35.0,-1,1.0,0.2436000000002423
555,2,0.8,0.0625,-35.0,-1,1.0,0.26909999999998035
556,2,0.8,1.0,-35.0,-1,1.0,0.40380000000004657
557,2,0.8,0.125,-35.0,-1,1.0,0.5055010000000948
558,2,0.8,0.125,-35.0,-1,1.0,0.36740099999997256
559,2,0.8,1.0,-35.0,-1,1.0,0.24359999999978754
560,2,0.8,0.0625,35.0,-1,0.0,0.27080000000023574
561,2,0.8,0.25,-35.0,-1,1.0,0.2736000000004424
562,2,0.8,1.0,-35.0,-1,1.0,0.2478009999999813
563,2,0.8,0.0,-35.0,1,0.0,1.867500000000291
564,2,0.8,0.0,35.0,-1,0.0,0.31130099999973027
565,2,0.8,1.0,-35.0,-1,1.0,0.2963009999998576
566,2,0.8,1.0,-35.0,-1,1.0,0.278400000000147
567,2,0.8,0.0625,-35.0,-1,1.0,0.2496000000001004
568,2,0.8,0.25,35.0,1,1.0,0.6485000000002401
569,2,0.8,1.0,-35.0,-1,1.0,0.27759999999989304
570,2,0.8,0.25,-35.0,-1,1.0,0.7054000000002816
571,2,0.8,0.125,-35.0,-1,1.0,0.39689999999973224
572,2,0.8,0.0625,-35.0,-1,1.0,0.2521999999999025
573,2,0.8,0.25,-35.0,-1,1.0,0.3038000000001375
574,2,0.8,0.25,-35.0,-1,1.0,0.22910000000001673
575,2,0.8,0.25,35.0,-1,0.0,0.5437000000001717
576,2,0.8,1.0,35.0,1,1.0,0.2691999999997279
577,2,0.8,1.0,-35.0,-1,1.0,0.2808999999997468
578,2,0.8,1.0,-35.0,-1,1.0,0.24279999999998836
579,2,0.8,0.0,-35.0,1,0.0,1.1179000000001906
580,2,0.2,0.0,35.0,-1,0.0,0.31970000000001164
581,2,0.2,0.25,35.0,1,1.0,0.2912000000005719
582,2,0.2,0.25,35.0,1,1.0,0.5432000000005246
583,2,0.2,0.0,35.0,1,1.0,6.748901000000387
584,2,0.2,0.0625,-35.0,-1,1.0,0.48349999999982174
585,2,0.2,0.0625,35.0,1,1.0,0.45850000000018554
586,2,0.2,0.0,35.0,-1,0.0,7.190399999999954
587,2,0.2,0.0,35.0,-1,0.0,1.1731009999998605
588,2,0.2,0.25,35.0,1,1.0,0.5440000000003238
589,2,0.2,0.0625,35.0,1,1.0,0.3330000000000837
590,2,0.2,0.0625,35.0,1,1.0,0.4610010000001239
591,2,0.2,0.0625,35.0,1,1.0,0.522899999999936
592,2,0.2,0.125,35.0,1,1.0,0.3747000000003027
593,2,0.2,0.25,35.0,1,1.0,0.3472010000004957
594,2,0.2,0.25,35.0,1,1.0,0.4250000000001819
595,2,0.2,0.125,35.0,1,1.0,0.3402000000000953
596,2,0.2,0.0,35.0,1,1.0,0.6348999999995613
597,2,0.2,1.0,35.0,1,1.0,0.3600000000005821
598,2,0.2,0.0625,-35.0,1,0.0,3.7717999999999847
599,2,0.2,0.25,35.0,1,1.0,0.3312999999998283
600,2,0.2,0.0625,-35.0,-1,1.0,0.3222000000000662
601,2,0.2,0.0625,35.0,1,1.0,0.617200999999568
602,2,0.2,0.125,35.0,1,1.0,0.39580100000011953
603,2,0.2,0.0625,35.0,-1,0.0,0.3613000000004831
604,2,0.2,0.125,35.0,1,1.0,0.5893000000000939
605,2,0.2,0.0625,35.0,1,1.0,0.6409009999997579
606,2,0.2,0.0,-35.0,1,0.0,0.33930099999997765
607,2,0.2,0.25,-35.0,-1,1.0,0.3508999999999105
608,2,0.2,0.0625,35.0,-1,0.0,0.28280099999983577
609,2,0.2,0.125,-35.0,1,0.0,0.7448999999996886
610,2,0.2,1.0,35.0,1,1.0,0.5199000000002343
611,2,0.2,0.125,35.0,1,1.0,0.31500000000005457
612,2,0.2,0.25,-35.0,1,0.0,0.4034999999998945
613,2,0.2,0.0625,35.0,1,1.0,0.32490099999995437
614,2,0.2,1.0,35.0,1,1.0,0.3135000000002037
615,2,0.2,0.0625,35.0,1,1.0,0.3056010000000242
616,2,0.2,1.0,35.0,1,1.0,0.3103009999999813
617,2,0.2,0.0625,35.0,1,1.0,0.2925999999997657
618,2,0.2,0.0,-35.0,1,0.0,0.36060000000043146
619,2,0.8,0.0,-35.0,1,0.0,0.45280000000002474
620,2,0.8,0.0,-35.0,1,0.0,1.950901000000158
621,2,0.8,0.125,-35.0,-1,1.0,2.2127000000000407
622,2,0.8,0.0625,-35.0,-1,1.0,0.3445010000000366
623,2,0.8,0.0625,-35.0,-1,1.0,0.27280000000018845
624,2,0.8,1.0,35.0,-1,0.0,0.26130100000045786
625,2,0.8,0.0625,-35.0,-1,1.0,0.3061999999999898
626,2,0.8,0.0,-35.0,-1,1.0,0.5582010000002811
627,2,0.8,0.0,-35.0,-1,1.0,0.2664999999997235
628,2,0.8,0.25,-35.0,-1,1.0,0.26510000000007494
629,2,0.8,0.0625,35.0,-1,0.0,0.26670100000001185
630,2,0.8,0.0625,-35.0,-1,1.0,0.3085000000000946
631,2,0.8,0.0,-35.0,-1,1.0,0.23400100000026214
632,2,0.8,1.0,-35.0,-1,1.0,0.22860000000036962
633,2,0.8,0.0625,-35.0,-1,1.0,0.24080000000003565
634,2,0.8,0.125,-35.0,-1,1.0,0.27240100000017264
635,2,0.8,0.25,-35.0,-1,1.0,0.23689999999987776
636,2,0.8,0.125,-35.0,-1,1.0,0.23580000000038126
637,2,0.8,0.0,-35.0,1,0.0,3.621900000000096
638,2,0.8,1.0,-35.0,-1,1.0,0.27620000000024447
639,2,0.8,1.0,-35.0,-1,1.0,0.23510099999975864
640,2,0.2,1.0,35.0,1,1.0,0.6429000000002816
641,2,0.2,0.25,35.0,-1,0.0,0.2644000000000233
642,2,0.2,0.0,-35.0,-1,1.0,0.33969999999999345
643,2,0.2,0.25,35.0,1,1.0,0.4319000000000415
644,2,0.2,0.0,35.0,-1,0.0,0.30330099999991944
645,2,0.2,0.25,35.0,1,1.0,0.2982999999999265
646,2,0.2,0.25,35.0,1,1.0,0.29680000000007567
647,2,0.2,0.25,35.0,1,1.0,0.32900000000017826
648,2,0.2,0.125,35.0,1,1.0,0.3769000000002052
649,2,0.2,1.0,-35.0,-1,1.0,0.32540000000017244
650,2,0.2,0.0625,35.0,-1,0.0,0.5139009999998052
651,2,0.2,0.0625,35.0,1,1.0,0.31900000000041473
652,2,0.2,1.0,35.0,1,1.0,0.3176010000001952
653,2,0.2,0.0,35.0,1,1.0,0.5131000000001222
654,2,0.2,1.0,-35.0,-1,1.0,0.39110100000016246
655,2,0.2,0.125,-35.0,-1,1.0,0.41680100000030507
656,2,0.2,0.0625,35.0,1,1.0,0.3178000000002612
657,2,0.2,0.25,35.0,1,1.0,0.3290999999999258
658,2,0.2,0.25,35.0,1,1.0,0.5948000000003049
659,2,0.2,0.0,35.0,1,1.0,0.7632000000003245
660,2,0.2,0.25,-35.0,-1,1.0,0.26830100000006496
661,2,0.2,1.0,35.0,1,1.0,0.39290100000016537
662,2,0.2,0.0625,35.0,1,1.0,0.3916009999998096
663,2,0.2,0.125,35.0,1,1.0,0.3101999999998952
664,2,0.2,0.25,35.0,1,1.0,0.2820000000001528
665,2,0.2,0.0,35.0,1,1.0,3.518199999999979
666,2,0.2,0.25,-35.0,-1,1.0,0.28210100000023886
667,2,0.8,0.0,-35.0,1,0.0,0.3283000000001266
668,2,0.8,0.0,-35.0,1,0.0,0.7755999999999403
669,2,0.8,1.0,-35.0,-1,1.0,0.344300000000203
670,2,0.8,0.125,-35.0,-1,1.0,0.2593000000001666
671,2,0.8,0.0625,35.0,1,1.0,0.3645010000000184
672,2,0.8,0.0625,35.0,-1,0.0,0.3027999999999338
673,2,0.8,0.25,-35.0,1,0.0,0.3176999999996042
674,2,0.8,0.125,-35.0,-1,1.0,0.30290000000013606
675,2,0.8,0.0,35.0,-1,0.0,0.2754000000004453
676,2,0.8,1.0,35.0,-1,0.0,0.3433010000003378
677,2,0.8,0.0625,-35.0,-1,1.0,0.24549999999999272
678,2,0.8,0.25,-35.0,-1,1.0,0.27020000000038635
679,2,0.8,0.0,-35.0,1,0.0,0.33849999999983993
680,2,0.8,0.25,35.0,1,1.0,0.3170000000000073
681,2,0.8,0.125,35.0,1,1.0,0.365099999999984
682,2,0.8,0.25,35.0,1,1.0,1.5939000000003034
683,2,0.8,0.0,-35.0,1,0.0,0.325600000000577
684,2,0.8,1.0,35.0,1,1.0,0.25420100000019374
685,2,0.8,0.25,-35.0,-1,1.0,0.2426999999997861
686,2,0.8,1.0,-35.0,-1,1.0,0.2777000000000953
687,2,0.8,0.125,-35.0,-1,1.0,0.3558010000001559
688,2,0.8,0.0625,-35.0,-1,1.0,0.47440000000005966
689,2,0.8,1.0,-35.0,-1,1.0,0.3460000000004584
690,2,0.8,1.0,-35.0,-1,1.0,0.2613000000001193
691,2,0.8,0.125,-35.0,-1,1.0,0.4296999999996842
692,2,0.8,0.125,-35.0,-1,1.0,0.28480000000035943
693,2,0.8,0.125,-35.0,-1,1.0,0.23960100000022067
694,2,0.8,0.25,35.0,-1,0.0,0.45830100000011953
695,2,0.8,0.0625,-35.0,-1,1.0,0.2837009999998372
696,2,0.8,0.0625,-35.0,-1,1.0,0.5785009999999602
697,2,0.8,1.0,-35.0,-1,1.0,0.6768000000001848
698,2,0.8,0.25,-35.0,1,0.0,4.878700000000208
699,2,0.8,1.0,-35.0,-1,1.0,0.2272010000001501
700,2,0.8,0.0625,-35.0,-1,1.0,0.912300999999843
701,2,0.8,0.0,-35.0,-1,1.0,0.3906000000001768
702,2,0.8,0.125,35.0,1,1.0,0.2593000000001666
703,2,0.8,0.0,-35.0,-1,1.0,0.407799999999952
704,2,0.8,0.25,35.0,1,1.0,0.44290000000000873
705,2,0.8,0.0625,-35.0,-1,1.0,0.508900000000267
706,2,0.8,0.0,-35.0,1,0.0,1.1530000000002474
707,2,0.8,0.0625,-35.0,-1,1.0,0.5610999999998967
708,2,0.8,0.25,-35.0,-1,1.0,0.27320000000008804
709,2,0.8,0.125,-35.0,-1,1.0,0.2448000000003958
710,2,0.8,0.25,-35.0,-1,1.0,0.3401000000003478
711,2,0.8,1.0,-35.0,-1,1.0,0.3390009999998256
712,2,0.8,0.0,-35.0,-1,1.0,0.2802000000001499
713,2,0.8,0.25,-35.0,-1,1.0,0.255500000000211
714,2,0.8,0.0,-35.0,-1,1.0,0.3871009999998023
715,2,0.8,0.0,-35.0,-1,1.0,0.27910000000019863
716,2,0.8,1.0,35.0,1,1.0,0.6606000000001586
717,2,0.8,0.0,-35.0,1,0.0,1.4324000000001433
718,2,0.8,0.0625,-35.0,-1,1.0,0.7308999999995649
719,2,0.8,0.125,-35.0,-1,1.0,0.32600000000002183
720,2,0.8,0.25,-35.0,-1,1.0,0.23440000000027794
721,2,0.8,0.25,-35.0,-1,1.0,0.25920099999984814
722,2,0.8,0.25,-35.0,-1,1.0,0.16790100000025632
723,2,0.8,0.125,-35.0,1,0.0,7.060199999999895
724,2,0.8,0.25,-35.0,-1,1.0,0.47820099999989907
725,2,0.8,0.0625,35.0,1,1.0,0.2496009999999842
726,2,0.8,0.0,-35.0,-1,1.0,0.3184000000001106
727,2,0.8,0.0,-35.0,-1,1.0,0.46039999999993597
728,2,0.8,0.125,-35.0,-1,1.0,0.262000000000171
729,2,0.8,0.0,-35.0,-1,1.0,0.3973009999999704
730,2,0.8,0.25,-35.0,-1,1.0,0.2823009999997339
731,2,0.8,0.25,35.0,-1,0.0,0.4204010000003109
732,2,0.8,1.0,35.0,1,1.0,0.31580099999973754
733,2,0.8,0.125,35.0,-1,0.0,0.4250999999999294
734,2,0.8,0.25,35.0,-1,0.0,0.3093010000002323
735,2,0.8,1.0,35.0,1,1.0,0.20750000000043656
736,2,0.8,1.0,-35.0,-1,1.0,0.24610000000029686
737,2,0.8,0.25,-35.0,-1,1.0,0.24860100000023522
738,2,0.8,0.25,-35.0,-1,1.0,0.32310000000006767
739,2,0.8,1.0,-35.0,-1,1.0,0.31559999999990396
740,2,0.8,0.25,-35.0,-1,1.0,0.26670000000012806
741,2,0.8,0.0,35.0,-1,0.0,0.23139999999966676
742,2,0.8,0.0,-35.0,-1,1.0,0.4901009999998678
743,2,0.8,0.0,35.0,-1,0.0,0.6156000000000859
744,2,0.8,0.0,-35.0,-1,1.0,0.24029999999947904
745,2,0.8,0.0,-35.0,-1,1.0,0.3767000000002554
746,2,0.8,1.0,-35.0,-1,1.0,0.35400099999969825
747,2,0.8,0.0,35.0,-1,0.0,0.4197009999998045
748,2,0.8,0.0,-35.0,-1,1.0,0.270799999999781
749,2,0.8,0.0625,35.0,1,1.0,1.229801000000407
750,2,0.8,0.0,-35.0,1,0.0,0.4976999999998952
751,2,0.8,0.125,35.0,1,1.0,0.5791009999998096
752,2,0.8,0.0,-35.0,1,0.0,0.4513999999999214
753,2,0.8,0.25,35.0,1,1.0,0.4994000000001506
754,2,0.8,0.25,-35.0,-1,1.0,0.288101000000097
755,2,0.8,0.125,-35.0,-1,1.0,0.2638010000000577
756,2,0.8,0.125,-35.0,-1,1.0,0.39170100000001185
757,2,0.8,1.0,-35.0,-1,1.0,0.23009999999976571
758,2,0.8,1.0,-35.0,-1,1.0,0.23519999999962238
759,2,0.8,0.125,-35.0,-1,1.0,0.3209999999999127
760,2,0.8,0.0625,-35.0,-1,1.0,0.3186000000000604
761,2,0.8,0.0,-35.0,-1,1.0,0.2268000000003667
762,2,0.8,0.0,-35.0,-1,1.0,0.3786000000000058
763,2,0.2,0.25,35.0,-1,0.0,0.19100100000059683
764,2,0.2,0.0,35.0,-1,0.0,0.26219999999966603
765,2,0.2,0.0625,35.0,1,1.0,0.5682000000001608
766,2,0.2,1.0,-35.0,-1,1.0,0.24940000000060536
767,2,0.2,0.125,-35.0,-1,1.0,0.4053009999997812
768,2,0.2,0.125,35.0,1,1.0,0.47590100000024904
769,2,0.2,0.25,35.0,1,1.0,0.4710000000004584
770,2,0.2,1.0,35.0,1,1.0,0.6928000000002612
771,2,0.2,0.125,35.0,-1,0.0,0.2220999999999549
772,2,0.2,1.0,35.0,1,1.0,0.3132010000003902
773,2,0.2,0.25,35.0,1,1.0,0.4151000000001659
774,2,0.2,0.0625,35.0,1,1.0,0.4634000000000924
775,2,0.2,0.125,-35.0,-1,1.0,0.31510000000025684
776,2,0.2,0.125,-35.0,-1,1.0,0.27700000000004366
777,2,0.2,0.0,35.0,-1,0.0,0.29160000000001673
778,2,0.2,0.0625,35.0,-1,0.0,0.5372000000002117
779,2,0.2,1.0,35.0,1,1.0,0.3325009999998656
780,2,0.2,0.125,-35.0,-1,1.0,0.43709999999964566
781,2,0.2,0.0625,-35.0,-1,1.0,0.2354009999999107
782,2,0.2,1.0,35.0,-1,0.0,0.3273010000002614
783,2,0.2,0.25,-35.0,-1,1.0,0.5573000000003958
784,2,0.2,0.0625,35.0,1,1.0,0.7076010000000679
785,2,0.2,0.0625,35.0,-1,0.0,0.26620000000048094
786,2,0.2,0.25,35.0,1,1.0,0.47119999999995343
787,2,0.2,0.0,35.0,1,1.0,2.1999000000000706
788,2,0.2,0.25,35.0,1,1.0,0.3449010000003909
789,2,0.2,0.0625,-35.0,-1,1.0,0.32030100000019956
790,2,0.2,0.0,-35.0,1,0.0,3.5151000000005297
791,2,0.2,1.0,35.0,1,1.0,0.5432000000000698
792,2,0.2,0.25,35.0,-1,0.0,0.3854999999998654
793,2,0.2,0.0625,35.0,-1,0.0,0.8366009999999733
794,2,0.2,1.0,35.0,1,1.0,0.3488000000002103
795,2,0.2,0.25,35.0,1,1.0,1.4637000000002445
796,2,0.2,1.0,-35.0,-1,1.0,0.3890010000004622
797,2,0.2,1.0,35.0,-1,0.0,0.24049999999988358
798,2,0.2,0.25,-35.0,-1,1.0,0.3259010000001581
799,2,0.2,0.125,35.0,1,1.0,0.6285000000002583
800,2,0.2,0.25,-35.0,-1,1.0,0.22630100000014863
801,2,0.2,0.0,35.0,-1,0.0,0.24159999999983484
802,2,0.2,0.25,35.0,-1,0.0,0.34960000000000946
803,2,0.2,0.0,35.0,1,1.0,2.2216999999996005
804,2,0.2,1.0,35.0,1,1.0,0.3632999999999811
805,2,0.2,0.0625,-35.0,-1,1.0,0.44170100000019374
806,2,0.2,0.25,-35.0,-1,1.0,0.2600999999999658
807,2,0.2,0.125,-35.0,-1,1.0,0.30540000000019063
808,2,0.2,0.0,35.0,1,1.0,7.740400000000136
809,2,0.2,0.125,35.0,1,1.0,0.3922010000001137
810,2,0.2,0.125,35.0,1,1.0,0.5073000000002139
811,2,0.2,0.0625,35.0,1,1.0,2.4655000000002474
812,2,0.2,1.0,-35.0,-1,1.0,0.28430100000014136
813,2,0.2,0.25,35.0,1,1.0,0.7658000000001266
814,2,0.2,0.0625,-35.0,1,0.0,11.90440000000035
815,2,0.2,0.0625,35.0,1,1.0,6.733400000000074
816,2,0.2,0.125,35.0,1,1.0,32.41869999999972
817,2,0.2,0.0625,-35.0,-1,1.0,5.17450000000008
818,2,0.2,1.0,35.0,1,1.0,5.986500000000433
819,2,0.2,0.125,35.0,1,1.0,8.355101000000104
820,2,0.2,0.25,35.0,1,1.0,7.433500000000095
821,2,0.2,1.0,35.0,1,1.0,3.3952000000003864
822,2,0.2,0.0625,35.0,1,1.0,11.553800000000138
823,2,0.2,0.25,35.0,1,1.0,7.978900999999951
824,2,0.2,0.25,35.0,1,1.0,11.654500999999982
825,2,0.2,0.0,35.0,1,1.0,9.35609999999997
826,2,0.2,0.0625,35.0,1,1.0,8.62170100000003
827,2,0.2,0.0,35.0,1,1.0,2.061501000000135
828,2,0.2,0.0,35.0,1,1.0,15.335500000000138
829,2,0.2,0.125,-35.0,1,0.0,4.140699999999924
830,2,0.2,0.0,35.0,1,1.0,0.4761999999996078
831,2,0.2,0.0625,35.0,1,1.0,4.251400000000103
832,2,0.2,0.0,-35.0,-1,1.0,7.876800000000003
833,2,0.2,0.25,35.0,-1,0.0,0.8858000000000175
834,2,0.2,0.0,35.0,-1,0.0,1.5239010000000235
835,2,0.2,0.25,35.0,-1,0.0,10.438900000000558
836,2,0.2,0.125,35.0,1,1.0,2.200800000000072
837,2,0.2,1.0,35.0,1,1.0,7.439300000000458
838,2,0.2,1.0,35.0,1,1.0,11.071300000000065
839,2,0.2,0.25,35.0,1,1.0,8.113001000000168
840,2,0.2,0.125,35.0,1,1.0,9.365199999999732
841,2,0.2,1.0,-35.0,1,0.0,16.718099999999595
842,2,0.2,0.0625,-35.0,1,0.0,5.719499999999698
843,2,0.8,0.25,-35.0,1,0.0,6.508300000000418
844,2,0.8,0.125,-35.0,1,0.0,10.933300000000145
845,2,0.8,0.0,-35.0,1,0.0,23.27330099999972
1,3,0.5,0.25,35.0,1,1.0,0.32220000000000026
2,3,0.5,0.125,-35.0,-1,1.0,0.19799899999999937
3,3,0.5,0.0625,-35.0,1,0.0,2.8545990000000003
4,3,0.5,0.125,35.0,1,1.0,0.4606989999999982
5,3,0.5,0.0,35.0,1,1.0,0.39559899999999715
6,3,0.5,0.0625,35.0,1,1.0,0.3836999999999975
7,3,0.5,1.0,-35.0,-1,1.0,0.48119999999999763
8,3,0.5,0.125,35.0,1,1.0,2.8089989999999965
9,3,0.5,0.0625,-35.0,-1,1.0,0.4426990000000046
10,3,0.5,1.0,-35.0,-1,1.0,0.2616990000000001
11,3,0.5,1.0,-35.0,-1,1.0,0.4041989999999984
12,3,0.5,0.25,35.0,1,1.0,0.2909999999999968
13,3,0.5,1.0,-35.0,-1,1.0,0.24979999999999336
14,3,0.5,0.25,-35.0,-1,1.0,0.27139999999999986
15,3,0.5,0.0,-35.0,-1,1.0,0.26359899999999925
16,3,0.5,0.125,-35.0,-1,1.0,0.24719900000000194
17,3,0.5,0.0,-35.0,-1,1.0,1.0566990000000018
18,3,0.5,0.25,-35.0,-1,1.0,0.42490000000000805
19,3,0.5,0.25,-35.0,-1,1.0,0.32249899999999343
20,3,0.5,0.0625,-35.0,-1,1.0,0.2802990000000136
21,3,0.5,0.0625,35.0,1,1.0,0.438399000000004
22,3,0.5,1.0,-35.0,-1,1.0,0.2726000000000113
23,3,0.5,1.0,35.0,1,1.0,0.33910099999999943
24,3,0.5,0.25,-35.0,-1,1.0,0.23680099999999982
25,3,0.5,0.0625,-35.0,-1,1.0,0.25430000000000064
26,3,0.5,1.0,35.0,1,1.0,0.35490000000000066
27,3,0.5,0.0625,-35.0,-1,1.0,0.4212000000000131
28,3,0.5,0.125,35.0,-1,0.0,0.2559009999999944
29,3,0.5,0.125,35.0,1,1.0,0.3579000000000008
30,3,0.5,0.25,35.0,1,1.0,0.4289010000000104
31,3,0.5,0.0625,35.0,-1,0.0,0.28900100000001316
32,3,0.5,0.0625,35.0,1,1.0,0.3793009999999981
33,3,0.5,0.125,35.0,1,1.0,0.31459999999999866
34,3,0.5,0.25,-35.0,-1,1.0,0.3429009999999977
35,3,0.5,0.125,-35.0,-1,1.0,0.2930999999999955
36,3,0.5,1.0,-35.0,-1,1.0,0.25510099999999625
37,3,0.5,0.125,35.0,-1,0.0,0.5019999999999811
38,3,0.5,0.0,-35.0,1,0.0,0.3059999999999832
39,3,0.5,0.0,35.0,-1,0.0,0.266399999999976
40,3,0.5,0.25,35.0,1,1.0,0.2922009999999773
41,3,0.5,0.0,-35.0,-1,1.0,0.4198000000000093
42,3,0.5,0.0625,35.0,-1,0.0,0.27950000000001296
43,3,0.5,1.0,35.0,1,1.0,0.309599999999989
44,3,0.5,1.0,-35.0,-1,1.0,0.24809999999999377
45,3,0.5,0.0625,-35.0,-1,1.0,0.5938999999999623
46,3,0.5,0.0,-35.0,-1,1.0,0.279200000000003
47,3,0.5,1.0,35.0,-1,0.0,0.5257999999999754
48,3,0.5,0.0625,35.0,-1,0.0,0.7504009999999823
49,3,0.5,0.125,35.0,-1,0.0,0.2530009999999834
50,3,0.5,0.0,35.0,-1,0.0,0.29420099999998683
51,3,0.5,0.0,-35.0,1,0.0,0.30960099999998647
52,3,0.5,0.25,-35.0,-1,1.0,0.23420099999998456
53,3,0.5,0.0625,35.0,-1,0.0,0.28820100000001503
54,3,0.5,0.25,35.0,-1,0.0,0.2904999999999802
55,3,0.5,0.0,35.0,-1,0.0,0.35100099999999657
56,3,0.5,0.125,-35.0,-1,1.0,0.28960099999997624
57,3,0.5,0.125,35.0,1,1.0,0.791799999999995
58,3,0.5,0.0625,35.0,1,1.0,0.564300999999972
59,3,0.5,0.0625,-35.0,-1,1.0,1.6822999999999695
60,3,0.5,0.0,-35.0,-1,1.0,0.3038999999999987
61,3,0.5,0.0,-35.0,-1,1.0,0.517799999999994
62,3,0.5,0.0,-35.0,-1,1.0,0.31080099999996946
63,3,0.5,0.0,-35.0,-1,1.0,0.33630099999999175
64,3,0.5,1.0,-35.0,-1,1.0,0.22140099999998597
65,3,0.5,0.0,35.0,-1,0.0,0.2665010000000052
66,3,0.5,1.0,35.0,1,1.0,0.2914000000000101
67,3,0.5,0.25,35.0,-1,0.0,0.2709999999999866
68,3,0.5,0.25,-35.0,-1,1.0,0.25849999999996953
69,3,0.5,1.0,35.0,1,1.0,0.3855000000000359
70,3,0.5,0.125,-35.0,1,0.0,0.3355999999999426
71,3,0.5,0.25,35.0,-1,0.0,0.24239999999997508
72,3,0.5,0.0,-35.0,-1,1.0,0.3084999999999809
73,3,0.5,1.0,35.0,1,1.0,0.5625999999999749
74,3,0.5,0.125,-35.0,-1,1.0,0.2641009999999824
75,3,0.5,1.0,-35.0,-1,1.0,0.2785999999999831
76,3,0.5,1.0,35.0,1,1.0,0.3154999999999859
77,3,0.5,0.125,-35.0,-1,1.0,0.26900000000000546
78,3,0.5,1.0,-35.0,-1,1.0,0.24359999999995807
79,3,0.5,1.0,-35.0,-1,1.0,0.2711009999999874
80,3,0.5,0.125,-35.0,-1,1.0,0.27750000000003183
81,3,0.5,0.0,35.0,-1,0.0,
82,3,0.5,0.0625,-35.0,-1,1.0,0.3965000000000032
83,3,0.5,1.0,35.0,1,1.0,0.3566009999999551
84,3,0.5,1.0,35.0,1,1.0,0.32920100000001185
85,3,0.5,0.0625,35.0,1,1.0,0.26920100000000957
86,3,0.5,0.25,-35.0,-1,1.0,0.25950100000005705
87,3,0.5,1.0,35.0,1,1.0,0.2501009999999724
88,3,0.5,1.0,-35.0,-1,1.0,0.23919999999998254
89,3,0.5,1.0,-35.0,-1,1.0,0.22870000000000346
90,3,0.5,0.0625,-35.0,-1,1.0,0.44399999999996
91,3,0.2,0.0625,35.0,-1,0.0,0.362500999999952
92,3,0.2,0.0,-35.0,-1,1.0,0.2744999999999891
93,3,0.2,0.0625,35.0,-1,0.0,0.22100000000000364
94,3,0.2,1.0,35.0,1,1.0,0.2664999999999509
95,3,0.2,1.0,35.0,1,1.0,0.2817999999999756
96,3,0.2,0.25,35.0,1,1.0,0.43519999999995207
97,3,0.2,0.25,35.0,1,1.0,0.23900099999991653
98,3,0.2,0.25,35.0,1,1.0,0.33140000000003056
99,3,0.2,0.25,35.0,1,1.0,0.5188999999999737
100,3,0.2,1.0,35.0,1,1.0,0.5181010000000015
101,3,0.2,0.0,35.0,-1,0.0,0.6762999999999693
102,3,0.2,0.125,35.0,1,1.0,0.3682009999999991
103,3,0.2,0.125,-35.0,-1,1.0,0.24689999999998236
104,3,0.2,0.0625,35.0,1,1.0,0.33490099999994527
105,3,0.2,0.0625,35.0,1,1.0,0.5469009999999912
106,3,0.2,0.125,35.0,1,1.0,0.5604009999999562
107,3,0.2,1.0,35.0,1,1.0,0.2189999999999941
108,3,0.2,0.0625,35.0,1,1.0,0.5316000000000258
109,3,0.2,0.125,-35.0,-1,1.0,0.27909999999997126
110,3,0.2,1.0,35.0,-1,0.0,0.29359999999996944
111,3,0.2,0.0,35.0,1,1.0,0.3180999999999585
112,3,0.2,0.0,-35.0,-1,1.0,0.2898999999999887
113,3,0.8,0.0625,-35.0,-1,1.0,0.349000999999987
114,3,0.8,0.125,-35.0,-1,1.0,0.24150100000002794
115,3,0.8,0.125,-35.0,-1,1.0,0.31530099999997674
116,3,0.8,0.25,-35.0,-1,1.0,0.27190000000001646
117,3,0.8,0.125,-35.0,-1,1.0,0.23900099999997337
118,3,0.8,0.0,-35.0,-1,1.0,0.2215999999999667
119,3,0.8,0.25,-35.0,-1,1.0,0.21110099999992826
120,3,0.8,1.0,35.0,-1,0.0,0.23989999999997735
121,3,0.8,0.0,-35.0,-1,1.0,0.37909999999993715
122,3,0.8,1.0,-35.0,-1,1.0,0.22599999999994225
123,3,0.8,1.0,35.0,1,1.0,0.4152000000000271
124,3,0.8,1.0,-35.0,-1,1.0,0.2185000000000059
125,3,0.8,0.0,-35.0,-1,1.0,0.35689999999993915
126,3,0.8,0.25,-35.0,-1,1.0,0.2405009999999379
127,3,0.8,0.125,-35.0,-1,1.0,0.2505009999999288
128,3,0.8,0.0625,35.0,-1,0.0,0.2312010000000555
129,3,0.8,0.125,-35.0,-1,1.0,0.28029999999995425
130,3,0.8,0.125,-35.0,-1,1.0,0.444800999999984
131,3,0.8,0.25,-35.0,-1,1.0,0.3061000000000149
132,3,0.8,0.25,-35.0,-1,1.0,0.26860099999998965
133,3,0.8,1.0,-35.0,-1,1.0,0.21199999999998909
134,3,0.8,0.0,-35.0,-1,1.0,0.37129999999996244
135,3,0.8,0.0,35.0,-1,0.0,0.2764999999999418
136,3,0.8,0.125,-35.0,-1,1.0,0.2726000000000113
137,3,0.8,0.0,-35.0,1,0.0,0.4449999999999932
138,3,0.8,1.0,-35.0,-1,1.0,0.22910099999995737
139,3,0.8,0.25,-35.0,-1,1.0,0.7093009999999822
140,3,0.8,0.25,-35.0,-1,1.0,0.26720000000000255
141,3,0.8,0.0625,-35.0,-1,1.0,0.24020000000007258
142,3,0.8,0.0625,-35.0,-1,1.0,0.2658010000000104
143,3,0.8,0.125,-35.0,-1,1.0,0.2504000000000133
144,3,0.8,0.0,-35.0,-1,1.0,0.2155999999999949
145,3,0.8,0.0625,35.0,-1,0.0,0.2335000000000491
146,3,0.8,0.25,-35.0,-1,1.0,0.3645000000000209
147,3,0.8,1.0,-35.0,-1,1.0,0.24900000000002365
148,3,0.8,1.0,-35.0,-1,1.0,0.23170100000004368
149,3,0.2,0.125,35.0,-1,0.0,0.3745010000000093
150,3,0.2,0.0,35.0,-1,0.0,0.4682000000000244
151,3,0.2,0.25,35.0,1,1.0,1.4985000000000355
152,3,0.2,0.0625,35.0,1,1.0,0.384001000000012
153,3,0.2,0.0625,35.0,1,1.0,0.48050100000011753
154,3,0.2,0.0,35.0,1,1.0,0.35320100000012644
155,3,0.2,0.0,35.0,1,1.0,0.32150000000012824
156,3,0.2,0.25,35.0,1,1.0,0.6744000000001051
157,3,0.2,0.25,35.0,1,1.0,0.5106010000000651
158,3,0.2,0.0,-35.0,1,0.0,0.5813999999999169
159,3,0.2,0.0625,-35.0,-1,1.0,0.2818000000000893
160,3,0.2,0.0625,-35.0,-1,1.0,0.25880000000006476
161,3,0.2,0.125,-35.0,-1,1.0,0.2621999999998934
162,3,0.2,0.25,35.0,-1,0.0,0.800200000000018
163,3,0.2,0.0625,35.0,-1,0.0,0.17570000000000618
164,3,0.2,0.125,35.0,1,1.0,0.3874000000000706
165,3,0.2,0.25,35.0,1,1.0,0.5227000000000999
166,3,0.2,0.0,35.0,-1,0.0,0.2481000000000222
167,3,0.2,0.0,-35.0,-1,1.0,0.2597000000000662
168,3,0.2,0.0,35.0,-1,0.0,0.24620000000004438
169,3,0.2,0.0625,35.0,-1,0.0,0.24410000000011678
170,3,0.2,1.0,-35.0,-1,1.0,0.25469999999995707
171,3,0.2,0.0,35.0,-1,0.0,0.38730099999997947
172,3,0.2,0.25,35.0,-1,0.0,0.23830000000009477
173,3,0.2,1.0,35.0,1,1.0,0.44280000000003383
174,3,0.2,0.0,35.0,-1,0.0,0.29670100000009825
175,3,0.2,1.0,35.0,1,1.0,0.5357999999999947
176,3,0.2,0.25,-35.0,-1,1.0,0.25549999999998363
177,3,0.2,0.0625,-35.0,-1,1.0,0.2880010000000084
178,3,0.2,0.25,35.0,-1,0.0,0.2137000000000171
179,3,0.2,0.0,35.0,-1,0.0,0.21070000000008804
180,3,0.2,0.0,35.0,-1,0.0,0.1932000000001608
181,3,0.2,0.25,-35.0,-1,1.0,0.2190010000000484
182,3,0.2,0.125,35.0,-1,0.0,0.23069999999995616
183,3,0.2,0.25,35.0,-1,0.0,0.3906000000000631
184,3,0.2,0.125,35.0,-1,0.0,0.23710000000005493
185,3,0.2,0.25,35.0,-1,0.0,0.28930000000002565
186,3,0.2,0.0625,-35.0,1,0.0,0.3953000000000202
187,3,0.2,0.25,35.0,-1,0.0,0.3140000000000782
188,3,0.2,1.0,35.0,1,1.0,0.241800000000012
189,3,0.2,1.0,-35.0,-1,1.0,0.25050100000009934
190,3,0.2,0.125,35.0,-1,0.0,0.3022009999999682
191,3,0.2,0.0625,35.0,1,1.0,0.2778000000000702
192,3,0.2,0.125,35.0,1,1.0,0.4875010000000657
193,3,0.2,0.0625,35.0,1,1.0,0.35540000000003147
194,3,0.2,0.25,35.0,1,1.0,0.4231999999999516
195,3,0.2,0.25,35.0,1,1.0,0.28910099999995964
196,3,0.2,0.0625,35.0,1,1.0,0.3624000000000933
197,3,0.2,0.0,35.0,1,1.0,0.32510000000013406
198,3,0.2,0.25,35.0,1,1.0,0.25930000000005293
199,3,0.2,0.125,35.0,1,1.0,0.5242009999999482
200,3,0.2,0.0625,35.0,1,1.0,0.3742009999999709
201,3,0.2,0.0625,35.0,1,1.0,0.300200000000018
202,3,0.2,0.0,-35.0,1,0.0,0.25880000000006476
203,3,0.2,0.25,35.0,1,1.0,0.324100000000044
204,3,0.2,1.0,-35.0,-1,1.0,0.34739999999999327
205,3,0.2,0.0625,35.0,1,1.0,0.662001000000032
206,3,0.2,0.25,35.0,1,1.0,0.29349999999999454
207,3,0.2,0.0,35.0,-1,0.0,0.6532000000000835
208,3,0.2,0.0625,35.0,1,1.0,0.25870000000008986
209,3,0.2,0.125,-35.0,1,0.0,0.2793010000000322
210,3,0.2,0.125,35.0,1,1.0,0.26520000000004984
211,3,0.2,0.125,35.0,1,1.0,0.3154010000000653
212,3,0.2,0.0625,-35.0,1,0.0,0.30709999999999127
213,3,0.2,0.25,35.0,1,1.0,0.27300000000002456
214,3,0.2,0.0625,35.0,-1,0.0,0.3949999999999818
215,3,0.2,0.125,35.0,1,1.0,0.2644999999999982
216,3,0.2,0.125,35.0,1,1.0,0.2832010000000764
217,3,0.2,1.0,35.0,1,1.0,0.2763999999999669
218,3,0.2,0.0625,35.0,1,1.0,0.2767000000000053
219,3,0.2,1.0,-35.0,1,0.0,0.42860000000007403
220,3,0.2,0.125,35.0,1,1.0,0.27710100000001603
221,3,0.2,0.0625,35.0,1,1.0,0.3704000000000178
222,3,0.2,1.0,35.0,1,1.0,0.268799999999942
223,3,0.2,0.25,-35.0,-1,1.0,0.30559999999991305
224,3,0.2,0.25,-35.0,-1,1.0,0.29480100000012044
225,3,0.2,0.0,-35.0,-1,1.0,0.4841000000000122
226,3,0.2,1.0,35.0,1,1.0,0.342200000000048
227,3,0.2,0.0,-35.0,-1,1.0,0.26159999999993033
228,3,0.2,1.0,35.0,1,1.0,0.2883999999999105
229,3,0.2,0.0625,35.0,1,1.0,0.3926000000001295
230,3,0.2,0.0,35.0,-1,0.0,0.3789000000000442
231,3,0.2,0.125,35.0,-1,0.0,0.40200000000015734
232,3,0.2,0.25,35.0,1,1.0,0.28730000000007294
233,3,0.2,0.125,35.0,1,1.0,0.1667009999999891
234,3,0.2,0.125,35.0,1,1.0,0.2818999999999505
235,3,0.2,1.0,35.0,1,1.0,0.24090000000001055
236,3,0.2,1.0,35.0,1,1.0,0.24840000000017426
237,3,0.8,1.0,-35.0,1,0.0,0.3306999999999789
238,3,0.8,0.25,-35.0,-1,1.0,0.36520100000007005
239,3,0.8,1.0,-35.0,-1,1.0,0.2709010000000944
240,3,0.8,1.0,-35.0,-1,1.0,0.2219000000000051
