trial_num,session_num,stim_probability_left,contrast,position,response_choice,trial_correct,reaction_time
1,1,0.8,1.0,-35.0,-1,1.0,6.5114
2,1,0.8,0.0625,-35.0,-1,1.0,5.974999999999998
3,1,0.8,1.0,-35.0,-1,1.0,0.19489999999999696
4,1,0.8,0.25,35.0,-1,0.0,2.0848000000000013
5,1,0.8,0.125,35.0,-1,0.0,0.2751000000000019
6,1,0.8,0.125,35.0,-1,0.0,0.22119999999999607
7,1,0.8,1.0,-35.0,-1,1.0,0.13580000000000325
8,1,0.8,0.0625,35.0,-1,0.0,0.10450000000000159
9,1,0.8,0.25,35.0,-1,0.0,0.14119999999999777
10,1,0.8,0.125,35.0,-1,0.0,0.16929999999999978
11,1,0.8,1.0,-35.0,-1,1.0,0.19380000000000308
12,1,0.8,0.0625,-35.0,-1,1.0,0.1893000000000029
13,1,0.8,1.0,-35.0,-1,1.0,0.02499999999999858
14,1,0.8,0.0,-35.0,-1,1.0,1.2164000000000144
15,1,0.8,1.0,-35.0,-1,1.0,0.1967999999999961
16,1,0.8,0.125,-35.0,-1,1.0,0.284000000000006
17,1,0.8,0.25,-35.0,-1,1.0,0.22739999999998872
18,1,0.8,1.0,-35.0,-1,1.0,0.1431999999999931
19,1,0.8,0.125,-35.0,-1,1.0,0.13989999999999725
20,1,0.8,1.0,-35.0,-1,1.0,0.17029999999999745
21,1,0.8,1.0,-35.0,-1,1.0,0.11300000000001376
22,1,0.8,0.125,-35.0,-1,1.0,0.21169999999999334
23,1,0.8,0.125,-35.0,-1,1.0,0.14869999999999095
24,1,0.8,0.25,35.0,-1,0.0,0.10159999999999059
25,1,0.8,1.0,35.0,1,1.0,0.40629999999998745
26,1,0.8,0.125,-35.0,-1,1.0,0.6239999999999952
27,1,0.8,0.0625,-35.0,-1,1.0,0.12939999999998975
28,1,0.8,0.125,-35.0,-1,1.0,0.20379999999998688
29,1,0.8,0.0625,-35.0,-1,1.0,0.16380000000000905
30,1,0.8,0.25,-35.0,-1,1.0,0.3031000000000006
31,1,0.8,0.0,-35.0,-1,1.0,0.17979999999998597
32,1,0.8,0.125,-35.0,-1,1.0,0.16919999999998936
33,1,0.8,0.25,-35.0,-1,1.0,0.21529999999999916
34,1,0.8,0.25,-35.0,-1,1.0,0.1408999999999878
35,1,0.8,1.0,35.0,1,1.0,0.8466999999999985
36,1,0.8,0.0625,-35.0,-1,1.0,0.1688999999999936
37,1,0.8,0.0625,-35.0,-1,1.0,0.15289999999998827
38,1,0.8,1.0,-35.0,-1,1.0,0.043300000000016325
39,1,0.8,0.25,35.0,1,1.0,0.8120999999999867
40,1,0.8,0.0625,-35.0,-1,1.0,0.1366000000000156
41,1,0.8,0.25,-35.0,-1,1.0,0.140199999999993
42,1,0.2,0.0625,35.0,-1,0.0,0.24139999999999873
43,1,0.2,0.125,35.0,-1,0.0,0.21350000000001046
44,1,0.2,1.0,35.0,1,1.0,0.20109999999999673
45,1,0.2,1.0,35.0,1,1.0,0.36009999999998854
46,1,0.2,0.25,35.0,-1,0.0,0.18859999999997967
47,1,0.2,0.0,35.0,1,1.0,2.187000000000012
48,1,0.2,0.25,35.0,1,1.0,0.5352000000000032
49,1,0.2,0.125,-35.0,-1,1.0,0.22629999999998063
50,1,0.2,1.0,35.0,1,1.0,0.6014999999999873
51,1,0.2,1.0,35.0,1,1.0,0.5232000000000028
52,1,0.2,0.125,35.0,-1,0.0,2.043900000000008
53,1,0.2,0.125,35.0,1,1.0,0.2898999999999887
54,1,0.2,0.0625,35.0,1,1.0,0.3243999999999687
55,1,0.2,0.25,35.0,-1,0.0,1.359599999999972
56,1,0.2,0.0625,35.0,1,1.0,0.4533999999999878
57,1,0.2,1.0,-35.0,-1,1.0,0.18420000000000414
58,1,0.2,0.25,35.0,1,1.0,0.5213999999999999
59,1,0.2,1.0,35.0,1,1.0,0.4188000000000045
60,1,0.2,1.0,35.0,1,1.0,0.304300000000012
61,1,0.2,0.125,35.0,1,1.0,0.5081000000000131
62,1,0.2,0.25,-35.0,-1,1.0,0.2629000000000019
63,1,0.2,1.0,35.0,1,1.0,0.2453999999999894
64,1,0.2,1.0,35.0,1,1.0,0.3686999999999898
65,1,0.2,0.125,35.0,1,1.0,2.86869999999999
66,1,0.2,0.0,-35.0,1,0.0,1.3803999999999803
67,1,0.2,1.0,-35.0,-1,1.0,0.17549999999999955
68,1,0.2,0.125,35.0,1,1.0,0.33550000000002456
69,1,0.2,0.0625,35.0,1,1.0,0.26439999999999486
70,1,0.2,1.0,35.0,1,1.0,1.3884999999999934
71,1,0.2,0.125,35.0,1,1.0,0.822199999999981
72,1,0.2,0.125,-35.0,-1,1.0,1.1526000000000067
73,1,0.2,0.0625,-35.0,-1,1.0,0.24960000000001514
74,1,0.2,1.0,35.0,1,1.0,0.35720000000000596
75,1,0.2,0.25,35.0,1,1.0,1.216600000000028
76,1,0.2,0.25,-35.0,-1,1.0,0.22829999999999018
77,1,0.2,1.0,35.0,1,1.0,0.25739999999998986
78,1,0.2,1.0,35.0,1,1.0,0.3376999999999839
79,1,0.2,0.0625,35.0,-1,0.0,1.0837999999999965
80,1,0.2,0.0625,-35.0,1,0.0,3.4086999999999534
81,1,0.2,1.0,35.0,1,1.0,0.2511000000000081
82,1,0.2,0.0625,35.0,1,1.0,0.41210000000000946
83,1,0.2,0.125,35.0,1,1.0,2.6340000000000146
84,1,0.2,0.125,35.0,1,1.0,0.3657999999999788
85,1,0.2,0.0625,35.0,-1,0.0,0.8858999999999924
86,1,0.2,0.0625,35.0,1,1.0,0.34199999999998454
87,1,0.2,1.0,35.0,1,1.0,0.28290000000004056
88,1,0.2,0.25,35.0,1,1.0,1.4768000000000256
89,1,0.2,0.125,35.0,1,1.0,3.209000000000003
90,1,0.2,0.125,35.0,1,1.0,0.26659999999998263
91,1,0.2,0.0,35.0,1,1.0,1.5915999999999713
92,1,0.2,0.25,35.0,1,1.0,0.9237999999999715
93,1,0.2,0.0,35.0,1,1.0,0.35839999999996053
94,1,0.2,0.25,35.0,1,1.0,0.19409999999999172
95,1,0.2,0.0625,-35.0,-1,1.0,0.261099999999999
96,1,0.2,0.0625,35.0,-1,0.0,0.2165000000000532
97,1,0.2,0.125,35.0,1,1.0,0.7054999999999723
98,1,0.2,0.25,-35.0,-1,1.0,0.15670000000000073
99,1,0.2,0.25,-35.0,-1,1.0,0.16419999999993706
100,1,0.2,0.25,35.0,1,1.0,0.2511000000000081
101,1,0.2,0.0625,35.0,1,1.0,0.5826999999999884
102,1,0.2,1.0,35.0,1,1.0,0.6354999999999791
103,1,0.2,0.0625,35.0,1,1.0,0.5394000000000005
104,1,0.2,0.25,35.0,1,1.0,0.2676000000000158
105,1,0.2,0.0625,35.0,-1,0.0,0.19350000000002865
106,1,0.2,0.25,35.0,1,1.0,0.33219999999994343
107,1,0.2,0.125,-35.0,-1,1.0,0.2604999999999791
108,1,0.2,0.0625,35.0,1,1.0,0.3932999999999538
109,1,0.2,1.0,35.0,1,1.0,0.29169999999999163
110,1,0.2,0.125,35.0,1,1.0,1.4168999999999414
111,1,0.2,0.0625,-35.0,1,0.0,1.774000000000001
112,1,0.2,0.0625,35.0,-1,0.0,0.5631000000000199
113,1,0.2,0.0625,35.0,1,1.0,0.25540000000000873
114,1,0.2,0.125,35.0,1,1.0,0.4041000000000281
115,1,0.2,0.25,35.0,1,1.0,2.329900000000009
116,1,0.2,0.0,35.0,1,1.0,2.0663000000000125
117,1,0.2,0.125,35.0,1,1.0,0.31389999999998963
118,1,0.2,0.25,35.0,1,1.0,1.9744000000000028
119,1,0.2,1.0,35.0,1,1.0,0.2125000000000341
120,1,0.2,0.125,35.0,-1,0.0,0.20479999999997744
121,1,0.2,0.0,35.0,-1,0.0,4.661600000000021
122,1,0.2,0.0625,35.0,-1,0.0,0.21170000000000755
123,1,0.2,0.125,35.0,-1,0.0,3.029699999999991
124,1,0.2,0.25,35.0,-1,0.0,0.4622999999999706
125,1,0.2,1.0,35.0,1,1.0,0.27170000000006667
126,1,0.2,0.0,35.0,-1,0.0,2.485500000000002
127,1,0.2,0.0625,35.0,1,1.0,0.6600999999999999
128,1,0.2,1.0,35.0,1,1.0,0.2851999999999748
129,1,0.2,0.0625,-35.0,-1,1.0,0.3150999999999726
130,1,0.2,0.0625,35.0,1,1.0,6.036199999999951
131,1,0.2,0.25,-35.0,-1,1.0,0.2389999999999759
132,1,0.2,1.0,35.0,1,1.0,0.23550000000000182
133,1,0.2,1.0,-35.0,-1,1.0,1.906499999999994
134,1,0.2,0.25,35.0,1,1.0,0.6636000000000308
135,1,0.2,0.125,35.0,1,1.0,0.7290000000000418
136,1,0.2,0.125,-35.0,-1,1.0,0.23520000000002028
137,1,0.2,0.0625,35.0,-1,0.0,0.21820000000002437
138,1,0.8,0.25,-35.0,-1,1.0,0.20909999999997808
139,1,0.8,1.0,-35.0,-1,1.0,0.22919999999999163
140,1,0.8,0.125,35.0,-1,0.0,0.18940000000003465
141,1,0.8,0.0625,-35.0,-1,1.0,0.2150999999999499
142,1,0.8,0.0625,-35.0,-1,1.0,0.1916999999999689
143,1,0.8,1.0,-35.0,-1,1.0,0.15780000000000882
144,1,0.8,0.25,-35.0,-1,1.0,0.194500000000005
145,1,0.8,0.0625,-35.0,1,0.0,0.5331999999999653
146,1,0.8,0.125,-35.0,-1,1.0,0.17089999999996053
147,1,0.8,0.25,-35.0,-1,1.0,0.23419999999998709
148,1,0.8,0.0625,-35.0,-1,1.0,0.22040000000015425
149,1,0.8,0.125,35.0,1,1.0,0.31749999999999545
150,1,0.8,1.0,-35.0,-1,1.0,0.18650000000013733
151,1,0.8,0.0625,-35.0,-1,1.0,0.19060000000001764
152,1,0.8,0.125,-35.0,-1,1.0,0.5383000000000493
153,1,0.8,0.25,-35.0,-1,1.0,0.2217000000000553
154,1,0.8,0.0625,-35.0,-1,1.0,0.24110000000007403
155,1,0.8,0.125,-35.0,-1,1.0,0.26710000000002765
156,1,0.8,0.25,-35.0,-1,1.0,0.2159000000000333
157,1,0.8,0.125,-35.0,-1,1.0,0.20459900000003017
158,1,0.8,0.0625,-35.0,-1,1.0,3.2950000000000728
159,1,0.8,0.0625,-35.0,-1,1.0,0.18800000000010186
160,1,0.8,0.125,35.0,-1,0.0,0.2132000000001426
161,1,0.8,0.0625,-35.0,1,0.0,3.6778000000000475
162,1,0.8,0.125,-35.0,-1,1.0,0.18499999999994543
163,1,0.8,0.125,-35.0,-1,1.0,0.19500000000005002
164,1,0.8,0.0625,-35.0,-1,1.0,0.20670000000006894
165,1,0.8,0.25,-35.0,-1,1.0,0.22940000000005512
166,1,0.8,0.0625,-35.0,-1,1.0,0.27309999999999945
167,1,0.8,0.0625,35.0,-1,0.0,0.2619000000000824
168,1,0.8,0.125,-35.0,-1,1.0,0.21090000000003783
169,1,0.8,1.0,-35.0,-1,1.0,0.19190000000003238
170,1,0.8,0.125,-35.0,-1,1.0,0.2437000000001035
171,1,0.8,0.0,-35.0,-1,1.0,0.2097990000000891
172,1,0.8,0.125,-35.0,-1,1.0,0.2240999999999076
173,1,0.8,1.0,-35.0,-1,1.0,0.20219999999994798
174,1,0.8,0.0,-35.0,-1,1.0,0.2075000000000955
175,1,0.8,0.125,35.0,-1,0.0,0.25700000000006185
176,1,0.8,0.125,-35.0,-1,1.0,0.20500000000004093
177,1,0.8,0.25,-35.0,-1,1.0,0.17870000000004893
178,1,0.8,0.125,-35.0,-1,1.0,0.23610000000007858
179,1,0.8,0.25,-35.0,-1,1.0,0.2074999999999818
180,1,0.8,0.0625,-35.0,-1,1.0,0.1935000000000855
181,1,0.8,0.0,-35.0,-1,1.0,0.23490000000003874
182,1,0.8,0.0,-35.0,-1,1.0,0.24920000000008713
183,1,0.8,0.0625,-35.0,-1,1.0,0.19040000000006785
184,1,0.8,0.125,35.0,1,1.0,0.8727999999999838
185,1,0.8,1.0,-35.0,-1,1.0,0.19790000000000418
186,1,0.8,0.0625,-35.0,-1,1.0,0.22870000000000346
187,1,0.8,0.0625,-35.0,-1,1.0,0.21500000000003183
188,1,0.8,0.25,35.0,1,1.0,0.3684000000000651
189,1,0.8,0.0625,-35.0,-1,1.0,0.24840000000006057
190,1,0.8,0.0625,-35.0,-1,1.0,0.2441000000000031
191,1,0.8,0.0625,-35.0,-1,1.0,0.23520000000007713
192,1,0.8,0.0625,-35.0,-1,1.0,0.2073000000001457
193,1,0.8,0.125,-35.0,-1,1.0,0.2653000000001384
194,1,0.8,1.0,-35.0,-1,1.0,0.1753000000001066
195,1,0.8,0.25,-35.0,-1,1.0,0.22410000000002128
196,1,0.8,0.0625,-35.0,-1,1.0,0.19219999999995707
197,1,0.8,0.0625,-35.0,-1,1.0,0.2238000000000966
198,1,0.8,0.125,-35.0,-1,1.0,0.14279999999996562
199,1,0.8,0.125,-35.0,-1,1.0,0.23420000000010077
200,1,0.8,1.0,-35.0,-1,1.0,0.2233000000001084
201,1,0.8,0.25,35.0,-1,0.0,0.18700000000001182
202,1,0.8,0.0,-35.0,-1,1.0,0.1954000000000633
203,1,0.8,0.25,-35.0,-1,1.0,0.1792000000000371
204,1,0.8,0.125,35.0,1,1.0,0.38840000000004693
205,1,0.8,1.0,-35.0,-1,1.0,0.1998999999999569
206,1,0.8,1.0,-35.0,-1,1.0,0.17040000000008604
207,1,0.8,1.0,-35.0,-1,1.0,0.20000000000004547
208,1,0.8,0.125,-35.0,-1,1.0,0.1997000000000071
209,1,0.8,0.125,-35.0,-1,1.0,0.19670000000007803
210,1,0.8,1.0,-35.0,-1,1.0,0.20990000000006148
211,1,0.8,0.0625,35.0,1,1.0,2.537200000000098
212,1,0.8,0.0,-35.0,-1,1.0,0.2035000000000764
213,1,0.8,0.125,-35.0,-1,1.0,0.1613000000000966
214,1,0.8,0.25,-35.0,-1,1.0,0.19839999999999236
215,1,0.8,1.0,-35.0,-1,1.0,0.1750000000000682
216,1,0.8,0.25,-35.0,-1,1.0,0.19479999999998654
217,1,0.8,0.0625,35.0,-1,0.0,0.1875
218,1,0.8,0.0625,35.0,-1,0.0,0.16970000000014807
219,1,0.8,0.0625,-35.0,-1,1.0,0.21030000000018845
220,1,0.8,1.0,-35.0,-1,1.0,0.20830000000012205
221,1,0.8,0.0,-35.0,-1,1.0,0.17570000000011987
222,1,0.8,0.25,-35.0,-1,1.0,0.14980000000014115
223,1,0.8,1.0,35.0,1,1.0,0.23630000000002838
224,1,0.8,1.0,35.0,1,1.0,1.5459000000000742
225,1,0.8,0.125,35.0,1,1.0,2.241899999999987
226,1,0.8,0.25,-35.0,-1,1.0,0.1573000000000775
227,1,0.8,0.25,35.0,-1,0.0,0.12740000000007967
228,1,0.8,0.125,-35.0,-1,1.0,0.23050000000000637
229,1,0.8,0.125,-35.0,-1,1.0,0.16089999999996962
230,1,0.8,0.125,-35.0,-1,1.0,0.1713000000000875
231,1,0.8,0.25,-35.0,-1,1.0,0.19100000000003092
232,1,0.8,0.0625,-35.0,-1,1.0,0.1836999999999307
233,1,0.8,1.0,-35.0,-1,1.0,0.16210000000000946
234,1,0.8,0.25,35.0,-1,0.0,0.17319999999995161
235,1,0.8,0.0,-35.0,-1,1.0,0.17960000000005039
236,1,0.2,0.0,35.0,-1,0.0,0.16600000000005366
237,1,0.2,0.0625,35.0,-1,0.0,0.22000000000014097
238,1,0.2,1.0,35.0,1,1.0,0.2637000000000853
239,1,0.2,0.0,-35.0,-1,1.0,0.19570000000010168
240,1,0.2,0.125,35.0,-1,0.0,0.16890000000000782
241,1,0.2,0.25,35.0,1,1.0,0.5849000000000615
242,1,0.2,0.25,35.0,-1,0.0,0.14260000000001583
243,1,0.2,1.0,35.0,1,1.0,0.20799999999997
244,1,0.2,1.0,35.0,1,1.0,0.38770000000010896
245,1,0.2,0.125,-35.0,-1,1.0,0.19980000000009568
246,1,0.2,1.0,35.0,1,1.0,0.2662000000000262
247,1,0.2,1.0,-35.0,-1,1.0,0.148900000000026
248,1,0.2,0.0,35.0,-1,0.0,0.16020000000003165
249,1,0.2,0.0625,35.0,-1,0.0,0.17669999999998254
250,1,0.2,1.0,35.0,1,1.0,0.20199999999999818
251,1,0.2,0.125,35.0,-1,0.0,0.16750000000013188
252,1,0.2,0.125,35.0,1,1.0,0.4938000000001921
253,1,0.2,0.0625,35.0,-1,0.0,0.21849999999994907
254,1,0.2,1.0,35.0,1,1.0,0.3246000000001459
255,1,0.2,0.0625,35.0,-1,0.0,0.21410000000003038
256,1,0.2,1.0,-35.0,-1,1.0,0.20870000000002165
257,1,0.2,0.0625,35.0,-1,0.0,0.18380000000001928
258,1,0.2,0.25,35.0,1,1.0,0.4345000000001846
259,1,0.2,0.125,35.0,1,1.0,0.36620000000004893
260,1,0.2,0.25,35.0,-1,0.0,0.3833000000000766
261,1,0.2,0.25,35.0,1,1.0,0.33740000000000236
262,1,0.2,1.0,35.0,1,1.0,0.5421000000000049
263,1,0.2,0.0625,35.0,-1,0.0,1.202199999999948
264,1,0.2,0.125,-35.0,-1,1.0,0.23680000000013024
265,1,0.2,0.25,35.0,1,1.0,0.4755000000001246
266,1,0.2,0.125,-35.0,-1,1.0,0.1856000000000222
267,1,0.8,0.125,-35.0,-1,1.0,0.27120000000002165
268,1,0.8,0.0625,-35.0,-1,1.0,0.2557000000000471
269,1,0.8,1.0,-35.0,-1,1.0,0.17039999999997235
270,1,0.8,0.125,-35.0,-1,1.0,0.18180000000006658
271,1,0.8,0.0,-35.0,-1,1.0,0.2541999999999689
272,1,0.8,0.25,-35.0,-1,1.0,0.19519999999999982
273,1,0.8,0.25,-35.0,-1,1.0,0.1893000000000029
274,1,0.8,0.125,-35.0,-1,1.0,0.20440000000019154
275,1,0.8,0.25,-35.0,-1,1.0,0.22100000000011732
276,1,0.8,0.0,-35.0,-1,1.0,0.20010000000002037
277,1,0.8,0.125,-35.0,-1,1.0,0.1993999999999687
278,1,0.8,0.125,-35.0,-1,1.0,0.18610000000001037
279,1,0.8,0.25,-35.0,-1,1.0,0.21860000000015134
280,1,0.8,0.25,-35.0,-1,1.0,0.1756000000000313
281,1,0.8,0.0625,-35.0,-1,1.0,0.25499999999999545
282,1,0.8,0.25,-35.0,-1,1.0,0.2198000000000775
283,1,0.8,0.0625,-35.0,-1,1.0,0.12340000000006057
284,1,0.8,0.0625,-35.0,-1,1.0,0.3061000000001286
285,1,0.8,0.25,-35.0,-1,1.0,0.1853999999999587
286,1,0.8,0.125,-35.0,-1,1.0,0.1511000000000422
287,1,0.8,0.0625,-35.0,-1,1.0,0.17560000000014497
288,1,0.8,1.0,-35.0,-1,1.0,0.1673000000000684
289,1,0.8,0.25,35.0,-1,0.0,0.13340000000005148
290,1,0.8,1.0,-35.0,-1,1.0,0.16640000000006694
291,1,0.8,1.0,35.0,1,1.0,0.282100000000014
292,1,0.8,1.0,-35.0,-1,1.0,0.18970000000012988
293,1,0.8,0.125,-35.0,-1,1.0,0.2937000000001717
294,1,0.8,1.0,35.0,1,1.0,0.3061000000000149
295,1,0.8,0.25,-35.0,-1,1.0,0.18280000000004293
296,1,0.8,0.0625,-35.0,-1,1.0,0.23279999999999745
297,1,0.8,1.0,-35.0,-1,1.0,0.1831000000000813
298,1,0.8,1.0,-35.0,-1,1.0,0.1830000000001064
299,1,0.8,0.125,-35.0,-1,1.0,0.17960000000005039
300,1,0.8,0.125,-35.0,-1,1.0,0.1632000000000744
301,1,0.8,0.0625,-35.0,-1,1.0,0.14319999999975153
302,1,0.8,0.125,-35.0,-1,1.0,0.20319999999992433
303,1,0.8,0.125,35.0,-1,0.0,0.14999999999986358
304,1,0.8,0.25,-35.0,-1,1.0,0.1899999999998272
305,1,0.8,1.0,-35.0,-1,1.0,0.17000000000007276
306,1,0.8,0.0625,35.0,-1,0.0,0.2034000000001015
307,1,0.8,0.0625,-35.0,-1,1.0,0.23339999999984684
308,1,0.8,0.0625,-35.0,-1,1.0,0.17350000000010368
309,1,0.8,0.25,35.0,-1,0.0,0.17360000000007858
310,1,0.2,1.0,35.0,1,1.0,0.183699999999817
311,1,0.2,1.0,-35.0,-1,1.0,0.1369999999999436
312,1,0.2,0.125,35.0,-1,0.0,0.16039999999998145
313,1,0.2,0.125,35.0,1,1.0,0.3970999999999094
314,1,0.2,0.0625,35.0,1,1.0,0.5438999999998941
315,1,0.2,0.25,35.0,1,1.0,0.2504999999998745
316,1,0.2,1.0,35.0,1,1.0,0.6305999999997312
317,1,0.2,0.0625,35.0,-1,0.0,0.12409999999999854
318,1,0.2,0.0625,35.0,1,1.0,0.30749999999989086
319,1,0.2,0.0625,35.0,-1,0.0,0.177599999999984
320,1,0.2,0.25,35.0,1,1.0,0.2609999999997399
321,1,0.2,0.125,35.0,-1,0.0,2.194400000000087
322,1,0.2,0.125,-35.0,-1,1.0,0.1776999999999589
323,1,0.2,1.0,35.0,1,1.0,0.4411999999999807
324,1,0.2,0.0625,-35.0,-1,1.0,0.20460000000002765
325,1,0.2,0.0625,-35.0,-1,1.0,0.2746999999999389
326,1,0.2,0.125,35.0,-1,0.0,0.16140000000018517
327,1,0.2,0.125,35.0,1,1.0,0.2947999999998956
328,1,0.2,1.0,35.0,1,1.0,0.3548999999998159
329,1,0.2,1.0,-35.0,-1,1.0,0.18479999999999563
330,1,0.2,0.0625,35.0,1,1.0,0.48149999999986903
331,1,0.2,0.25,35.0,-1,0.0,0.125
332,1,0.2,0.25,35.0,1,1.0,0.12169999999991887
333,1,0.2,0.0625,35.0,-1,0.0,0.271900000000187
334,1,0.2,0.25,35.0,1,1.0,0.23849999999993088
335,1,0.2,1.0,35.0,1,1.0,0.24529999999981555
336,1,0.2,0.0,35.0,-1,0.0,0.21199999999998909
337,1,0.2,0.0,35.0,-1,0.0,0.24530000000004293
338,1,0.2,0.0625,-35.0,-1,1.0,0.24869999999987158
339,1,0.2,0.125,35.0,-1,0.0,0.21889999999984866
340,1,0.2,0.125,35.0,1,1.0,0.32559999999989486
341,1,0.2,0.0,-35.0,-1,1.0,0.17889999999988504
342,1,0.2,0.25,-35.0,-1,1.0,0.23910000000000764
343,1,0.2,1.0,35.0,1,1.0,0.2257999999999356
344,1,0.2,1.0,-35.0,-1,1.0,0.17579999999998108
345,1,0.2,1.0,35.0,1,1.0,0.3191999999999098
346,1,0.2,0.25,35.0,-1,0.0,1.665899999999965
347,1,0.2,0.0625,35.0,-1,0.0,2.7126999999998134
348,1,0.2,0.0625,35.0,1,1.0,0.5895000000000437
349,1,0.2,1.0,35.0,1,1.0,2.8428999999998723
350,1,0.2,0.25,35.0,-1,0.0,0.19649999999978718
351,1,0.2,0.125,-35.0,-1,1.0,0.2398000000000593
352,1,0.2,0.0625,35.0,-1,0.0,0.22640000000001237
353,1,0.2,0.25,35.0,-1,0.0,0.18649999999979627
354,1,0.2,0.0625,35.0,-1,0.0,0.20990000000006148
355,1,0.2,0.25,-35.0,-1,1.0,0.23659999999995307
356,1,0.2,1.0,35.0,1,1.0,0.023400000000037835
357,1,0.2,1.0,35.0,1,1.0,0.2700999999999567
358,1,0.2,0.0,-35.0,-1,1.0,0.29349999999999454
359,1,0.2,1.0,35.0,1,1.0,0.3935999999998785
360,1,0.2,1.0,35.0,1,1.0,0.33019999999987704
361,1,0.2,0.25,35.0,-1,0.0,0.14709999999990941
362,1,0.2,0.25,35.0,1,1.0,0.3404000000000451
363,1,0.2,0.0625,35.0,-1,0.0,0.24709999999981846
364,1,0.2,0.25,-35.0,-1,1.0,0.18049999999993815
365,1,0.2,0.0625,35.0,1,1.0,0.3238000000001193
366,1,0.2,0.0625,35.0,1,1.0,0.33400000000006
367,1,0.2,0.25,35.0,1,1.0,0.49070000000006075
368,1,0.2,0.125,35.0,1,1.0,0.7040999999996984
369,1,0.2,0.0625,35.0,-1,0.0,0.17410000000018044
370,1,0.2,0.25,35.0,1,1.0,0.37079999999969004
371,1,0.2,0.0625,35.0,-1,0.0,0.18090000000006512
372,1,0.2,1.0,35.0,1,1.0,0.2077999999999065
373,1,0.2,1.0,35.0,1,1.0,0.25769999999988613
374,1,0.2,0.0,35.0,-1,0.0,0.254399999999805
375,1,0.2,0.0625,35.0,1,1.0,0.39449999999987995
376,1,0.2,0.0625,-35.0,-1,1.0,0.19450000000006185
377,1,0.2,1.0,35.0,1,1.0,1.0246010000000751
378,1,0.2,0.25,35.0,-1,0.0,0.1614009999998416
379,1,0.2,0.0625,35.0,-1,0.0,0.2414009999999962
380,1,0.2,0.0625,35.0,1,1.0,0.4650010000000293
381,1,0.2,0.125,35.0,1,1.0,0.3182010000000446
382,1,0.2,0.125,35.0,-1,0.0,0.1716009999997823
383,1,0.2,1.0,35.0,1,1.0,0.18830099999991035
384,1,0.2,0.0625,35.0,1,1.0,6.715000999999802
385,1,0.2,0.0625,35.0,-1,0.0,0.15860099999986232
386,1,0.2,0.0625,35.0,1,1.0,0.39200099999993654
387,1,0.2,1.0,35.0,1,1.0,0.2654009999998834
388,1,0.2,0.25,-35.0,-1,1.0,0.19210099999986596
389,1,0.2,1.0,-35.0,-1,1.0,0.17550100000016755
390,1,0.2,0.0625,35.0,-1,0.0,0.13560099999995145
391,1,0.2,0.0625,35.0,-1,0.0,0.189000999999962
392,1,0.2,1.0,35.0,1,1.0,0.25910099999987324
393,1,0.8,0.125,-35.0,-1,1.0,0.1790009999999711
394,1,0.8,1.0,-35.0,-1,1.0,0.22250099999996564
395,1,0.8,0.0625,-35.0,-1,1.0,0.1625010000000202
396,1,0.8,0.0,-35.0,-1,1.0,0.17600099999981467
397,1,0.8,0.0,-35.0,-1,1.0,0.1526010000000042
398,1,0.8,0.125,-35.0,-1,1.0,0.13600100000007842
399,1,0.8,0.25,-35.0,-1,1.0,0.1628009999999449
400,1,0.8,1.0,35.0,1,1.0,0.32950099999993654
401,1,0.8,1.0,35.0,1,1.0,0.6695009999998547
402,1,0.8,1.0,-35.0,-1,1.0,0.15960100000006605
403,1,0.8,0.0625,35.0,-1,0.0,0.1430009999999129
404,1,0.8,0.25,-35.0,-1,1.0,0.22310099999981503
405,1,0.8,0.0625,-35.0,-1,1.0,0.4331009999998514
406,1,0.8,0.0625,-35.0,-1,1.0,0.17320100000006278
407,1,0.8,0.125,-35.0,-1,1.0,0.1899009999997361
408,1,0.8,1.0,-35.0,-1,1.0,0.14000099999998383
409,1,0.8,1.0,35.0,-1,0.0,0.1766010000001188
410,1,0.8,0.25,-35.0,-1,1.0,0.17670099999986633
411,1,0.8,0.0625,-35.0,-1,1.0,0.1768010000000686
412,1,0.8,0.0,-35.0,-1,1.0,0.14370099999996455
413,1,0.8,0.125,-35.0,-1,1.0,0.1369009999998525
414,1,0.8,0.0625,35.0,-1,0.0,0.16370099999994636
415,1,0.8,0.0,-35.0,-1,1.0,0.15700100000003658
416,1,0.8,0.125,-35.0,-1,1.0,0.1771009999999933
417,1,0.8,0.25,-35.0,-1,1.0,0.2238009999998667
418,1,0.8,0.125,-35.0,-1,1.0,0.1671010000000024
419,1,0.8,0.0625,35.0,-1,0.0,0.14720099999999547
420,1,0.2,0.25,35.0,-1,0.0,0.1472009999997681
421,1,0.2,0.0625,-35.0,-1,1.0,0.1807009999999991
422,1,0.2,0.0,35.0,-1,0.0,0.14060099999983322
423,1,0.2,0.125,-35.0,-1,1.0,0.2740009999999984
424,1,0.2,0.25,35.0,1,1.0,0.5475010000000111
425,1,0.2,1.0,35.0,-1,0.0,0.13420099999984814
426,1,0.2,0.0625,35.0,-1,0.0,0.20090099999993072
427,1,0.2,0.0,35.0,1,1.0,3.7410010000000966
428,1,0.2,0.25,35.0,1,1.0,0.5277009999999791
429,1,0.2,0.125,35.0,-1,0.0,0.14790100000004713
430,1,0.2,0.125,35.0,1,1.0,0.39120100000013736
431,1,0.2,0.25,35.0,-1,0.0,0.14460099999973863
432,1,0.2,0.25,35.0,1,1.0,0.30130099999973936
433,1,0.2,0.25,35.0,-1,0.0,0.16140100000006896
434,1,0.2,0.125,35.0,1,1.0,0.2715009999999438
435,1,0.2,0.0625,-35.0,-1,1.0,0.18820099999993545
436,1,0.2,0.25,35.0,-1,0.0,0.10500099999990198
437,1,0.2,0.0,35.0,-1,0.0,0.15160099999980048
438,1,0.2,0.0625,35.0,1,1.0,0.4452009999999973
439,1,0.2,1.0,35.0,1,1.0,0.9217009999999846
440,1,0.2,0.125,-35.0,-1,1.0,0.20850099999984195
441,1,0.2,0.125,-35.0,-1,1.0,0.16530099999999948
442,1,0.2,0.25,35.0,1,1.0,0.29540099999985614
443,1,0.2,0.125,35.0,-1,0.0,0.17200099999968188
444,1,0.2,0.125,35.0,1,1.0,0.20210099999985687
445,1,0.2,0.0,-35.0,-1,1.0,0.14220099999965896
446,1,0.2,1.0,35.0,-1,0.0,0.16550100000017665
447,1,0.2,0.0625,-35.0,-1,1.0,0.1489010000000235
448,1,0.2,0.125,35.0,-1,0.0,0.179100999999946
449,1,0.2,1.0,-35.0,-1,1.0,0.18570099999988088
450,1,0.2,0.125,35.0,-1,0.0,0.1325010000000475
451,1,0.2,0.25,35.0,-1,0.0,0.13930099999993217
452,1,0.2,0.0,35.0,1,1.0,0.5660009999999147
453,1,0.2,0.0,35.0,-1,0.0,0.1693009999999049
454,1,0.2,0.125,35.0,-1,0.0,0.19260099999996783
455,1,0.2,1.0,35.0,1,1.0,0.2228010000001177
456,1,0.2,0.25,35.0,1,1.0,0.2795010000002094
457,1,0.2,1.0,35.0,1,1.0,0.236100999999735
458,1,0.2,0.25,-35.0,-1,1.0,0.1529009999999289
459,1,0.2,0.125,35.0,-1,0.0,0.133000999999922
460,1,0.2,1.0,35.0,1,1.0,0.22970099999997728
461,1,0.2,0.125,35.0,1,1.0,0.22980099999995218
462,1,0.2,0.0,35.0,1,1.0,1.013200999999981
463,1,0.2,0.125,35.0,-1,0.0,0.1466009999999187
464,1,0.2,0.25,35.0,1,1.0,0.8266009999999824
465,1,0.2,0.0,35.0,-1,0.0,0.15350100000000566
466,1,0.2,0.0625,-35.0,-1,1.0,0.24010099999986778
467,1,0.2,1.0,35.0,-1,0.0,2.0036009999998896
468,1,0.2,0.0625,35.0,-1,0.0,0.15690100000006169
469,1,0.2,0.125,35.0,-1,0.0,0.12710100000003877
470,1,0.2,0.0625,35.0,1,1.0,0.3539009999999507
471,1,0.2,0.125,-35.0,-1,1.0,0.25040100000001075
472,1,0.2,0.125,35.0,-1,0.0,0.26710099999968406
473,1,0.2,1.0,35.0,1,1.0,0.19720099999995
474,1,0.2,0.0625,35.0,-1,0.0,0.1973009999999249
475,1,0.2,0.125,35.0,1,1.0,0.0907009999998536
476,1,0.2,0.0625,35.0,-1,0.0,0.24090099999989434
477,1,0.2,0.125,35.0,1,1.0,0.307501000000002
478,1,0.2,1.0,-35.0,-1,1.0,0.20090099999993072
479,1,0.2,0.0,35.0,-1,0.0,0.2442009999997481
480,1,0.2,0.0625,-35.0,-1,1.0,0.161000999999942
481,1,0.2,0.0625,35.0,-1,0.0,0.10430099999985032
482,1,0.2,0.0,35.0,1,1.0,0.06780099999991762
483,1,0.2,0.0625,35.0,-1,0.0,0.6712010000001101
484,1,0.2,1.0,-35.0,-1,1.0,0.22460099999989325
485,1,0.2,0.125,35.0,-1,0.0,0.14790100000004713
486,1,0.2,0.0625,35.0,-1,0.0,0.2580009999996946
487,1,0.2,0.25,35.0,1,1.0,0.15810099999976046
488,1,0.2,0.0,35.0,1,1.0,0.344700999999759
489,1,0.2,1.0,35.0,1,1.0,0.20810099999994236
490,1,0.2,0.25,35.0,1,1.0,0.22830100000010134
491,1,0.2,0.0625,35.0,1,1.0,0.42170099999998456
492,1,0.2,0.25,-35.0,-1,1.0,0.11500099999989288
493,1,0.2,0.25,35.0,-1,0.0,0.21850100000006023
494,1,0.2,0.0,-35.0,1,0.0,0.33180099999981394
495,1,0.2,0.125,35.0,1,1.0,0.6653009999999995
496,1,0.2,0.25,35.0,1,1.0,0.7086010000000442
497,1,0.2,0.125,35.0,1,1.0,0.7520010000000639
498,1,0.2,0.25,35.0,1,1.0,1.728701000000001
499,1,0.2,0.125,35.0,-1,0.0,0.1687010000000555
500,1,0.8,1.0,-35.0,-1,1.0,0.17220100000008642
501,1,0.8,0.0625,35.0,1,1.0,0.47549999999978354
502,1,0.8,0.125,-35.0,1,0.0,0.18230100000005223
503,1,0.8,0.0,-35.0,-1,1.0,0.21230100000002494
504,1,0.8,1.0,-35.0,-1,1.0,0.16240100000004531
505,1,0.8,0.0,-35.0,1,0.0,0.3990009999999984
506,1,0.8,0.0625,-35.0,-1,1.0,0.24920099999985723
507,1,0.8,1.0,-35.0,-1,1.0,0.16580100000010134
508,1,0.8,0.25,-35.0,-1,1.0,0.20590099999981248
509,1,0.8,0.25,-35.0,-1,1.0,0.1392009999997299
510,1,0.8,0.125,-35.0,-1,1.0,0.056100999999898704
511,1,0.8,0.125,35.0,-1,0.0,0.18939999999975043
512,1,0.8,1.0,35.0,1,1.0,0.3095010000001821
513,1,0.8,0.25,-35.0,-1,1.0,0.182901000000129
514,1,0.8,0.25,-35.0,-1,1.0,0.13620100000002822
515,1,0.8,1.0,-35.0,-1,1.0,0.12290099999995618
516,1,0.8,0.25,-35.0,-1,1.0,0.11649999999985994
517,1,0.8,1.0,-35.0,-1,1.0,0.15300100000013117
518,1,0.8,0.125,-35.0,-1,1.0,0.12310100000013335
519,1,0.8,0.25,-35.0,-1,1.0,0.1632009999998445
520,1,0.8,0.25,35.0,-1,0.0,0.20660099999986414
521,1,0.8,0.125,35.0,-1,0.0,0.1966010000001006
522,1,0.8,0.0625,-35.0,-1,1.0,0.19000099999993836
523,1,0.8,0.0625,35.0,-1,0.0,0.1267009999999118
524,1,0.8,1.0,-35.0,-1,1.0,0.13020099999971535
525,1,0.8,0.25,-35.0,-1,1.0,0.15350100000000566
526,1,0.8,1.0,-35.0,-1,1.0,0.16020099999968807
527,1,0.8,1.0,35.0,1,1.0,0.47030100000006314
528,1,0.8,0.25,-35.0,-1,1.0,0.12710100000003877
529,1,0.8,0.25,-35.0,-1,1.0,0.13380099999994854
530,1,0.8,1.0,-35.0,-1,1.0,0.1672009999997499
531,1,0.8,0.125,-35.0,-1,1.0,0.18380100000013044
532,1,0.8,0.25,-35.0,-1,1.0,0.147300999999743
533,1,0.8,0.25,-35.0,-1,1.0,0.13400099999989834
534,1,0.8,0.25,-35.0,-1,1.0,0.18420099999980266
535,1,0.8,0.125,-35.0,-1,1.0,0.18410100000005514
536,1,0.8,0.25,-35.0,-1,1.0,0.13750099999992926
537,1,0.8,0.125,-35.0,-1,1.0,0.03760099999999511
538,1,0.8,1.0,-35.0,-1,1.0,0.12100099999997838
539,1,0.8,1.0,-35.0,-1,1.0,0.14100099999996019
540,1,0.8,0.125,35.0,-1,0.0,0.1444010000000162
541,1,0.8,0.0625,-35.0,-1,1.0,0.1611009999999169
542,1,0.8,0.125,-35.0,-1,1.0,0.15780099999983577
543,1,0.8,0.0,-35.0,-1,1.0,0.10790099999985614
544,1,0.8,1.0,-35.0,-1,1.0,0.1512009999999009
545,1,0.8,1.0,-35.0,-1,1.0,0.1546009999999569
546,1,0.8,0.0625,35.0,-1,0.0,0.2080009999997401
547,1,0.8,0.25,35.0,1,1.0,0.301401000000169
548,1,0.8,0.125,-35.0,-1,1.0,0.20810099999994236
549,1,0.8,0.125,-35.0,-1,1.0,0.11830099999974664
550,1,0.8,0.125,-35.0,-1,1.0,0.11160100000006423
551,1,0.8,0.0625,35.0,-1,0.0,0.1450009999998656
552,1,0.8,0.0625,-35.0,-1,1.0,0.1717009999997572
553,1,0.8,1.0,35.0,-1,0.0,0.14850099999989652
554,1,0.8,0.0,-35.0,-1,1.0,0.5352010000001428
555,1,0.8,0.125,-35.0,-1,1.0,0.10520099999985177
556,1,0.8,0.0,-35.0,-1,1.0,0.12190099999975246
557,1,0.8,1.0,-35.0,-1,1.0,0.1387009999998554
558,1,0.8,0.0625,-35.0,-1,1.0,0.1389009999998052
559,1,0.8,1.0,-35.0,-1,1.0,0.10880100000008497
560,1,0.8,0.25,-35.0,-1,1.0,0.13220099999989543
561,1,0.2,0.0625,35.0,-1,0.0,0.1189009999998234
562,1,0.2,1.0,35.0,1,1.0,0.2757010000000264
563,1,0.2,1.0,35.0,-1,0.0,0.15570099999990816
564,1,0.2,0.0,35.0,-1,0.0,0.18910100000016428
565,1,0.2,0.125,35.0,1,1.0,0.22910099999990052
566,1,0.2,1.0,35.0,1,1.0,0.39580099999989216
567,1,0.2,0.25,-35.0,-1,1.0,0.19260099999974045
568,1,0.2,0.125,-35.0,-1,1.0,0.1629009999999198
569,1,0.2,1.0,35.0,-1,0.0,0.13940099999990707
570,1,0.2,0.25,35.0,1,1.0,0.3461009999998623
571,1,0.2,0.25,-35.0,-1,1.0,0.1530009999999038
572,1,0.2,0.125,35.0,-1,0.0,0.13950099999988197
573,1,0.2,0.0625,35.0,-1,0.0,0.14630099999976665
574,1,0.2,0.0625,-35.0,-1,1.0,0.21630099999993035
575,1,0.2,0.0625,35.0,-1,0.0,0.14000099999998383
576,1,0.2,1.0,35.0,1,1.0,0.4097009999998136
577,1,0.2,0.25,35.0,-1,0.0,0.1466009999999187
578,1,0.2,0.25,35.0,1,1.0,0.31010099999957674
579,1,0.2,1.0,35.0,1,1.0,0.24340099999972153
580,1,0.2,0.125,-35.0,-1,1.0,0.2033010000000104
581,1,0.2,1.0,35.0,1,1.0,0.2001010000003589
582,1,0.2,0.25,-35.0,-1,1.0,0.13020099999994272
583,1,0.2,0.25,35.0,-1,0.0,0.13020099999994272
584,1,0.2,0.25,35.0,1,1.0,0.5236009999998714
585,1,0.2,0.0625,-35.0,-1,1.0,0.1472009999997681
586,1,0.8,0.0625,-35.0,-1,1.0,0.13040099999989252
587,1,0.8,0.0625,-35.0,-1,1.0,0.1472009999997681
588,1,0.8,0.25,-35.0,-1,1.0,0.14710100000002058
589,1,0.8,0.125,-35.0,-1,1.0,0.1805010000002767
590,1,0.8,0.25,-35.0,-1,1.0,0.13060100000029706
591,1,0.8,0.25,-35.0,-1,1.0,0.17060100000026068
592,1,0.8,0.25,-35.0,-1,1.0,0.17060099999980594
593,1,0.8,1.0,-35.0,-1,1.0,0.11740099999951781
594,1,0.8,1.0,-35.0,-1,1.0,0.16400099999964368
595,1,0.8,1.0,-35.0,-1,1.0,0.14740100000017264
596,1,0.8,1.0,-35.0,-1,1.0,0.04080099999964659
597,1,0.8,1.0,-35.0,-1,1.0,0.14750000000003638
598,1,0.8,0.25,-35.0,-1,1.0,0.21100099999966915
599,1,0.8,0.125,-35.0,-1,1.0,0.20770100000027014
600,1,0.8,1.0,-35.0,-1,1.0,0.14110100000016246
601,1,0.8,0.0625,35.0,-1,0.0,0.144500999999309
602,1,0.8,0.25,-35.0,-1,1.0,0.13110100000039893
603,1,0.8,0.0,-35.0,-1,1.0,0.1579009999995833
604,1,0.8,0.25,-35.0,-1,1.0,0.16130099999963932
605,1,0.8,0.25,-35.0,-1,1.0,0.15800099999978556
606,1,0.8,0.125,35.0,-1,0.0,0.11480099999971571
607,1,0.8,1.0,-35.0,-1,1.0,0.15480100000013408
608,1,0.8,0.0,-35.0,-1,1.0,0.12820099999999002
609,1,0.8,0.25,35.0,-1,0.0,0.2148010000000795
610,1,0.8,1.0,-35.0,-1,1.0,0.16490100000009988
611,1,0.8,0.125,-35.0,-1,1.0,0.18170099999997547
612,1,0.8,1.0,-35.0,-1,1.0,0.11490099999991799
613,1,0.8,0.25,-35.0,-1,1.0,0.16840099999990343
614,1,0.8,0.25,35.0,-1,0.0,0.191700999999739
615,1,0.8,1.0,-35.0,-1,1.0,0.18850100000008752
616,1,0.8,0.25,35.0,-1,0.0,0.14530100000001767
617,1,0.8,0.125,-35.0,-1,1.0,0.19530100000019956
618,1,0.8,1.0,-35.0,-1,1.0,0.1954009999999471
619,1,0.8,0.0,-35.0,-1,1.0,0.15210099999967497
620,1,0.8,0.0625,35.0,-1,0.0,0.1489010000000235
621,1,0.8,0.0625,-35.0,-1,1.0,0.17560099999991508
622,1,0.8,0.0625,-35.0,-1,1.0,0.20890099999996892
623,1,0.8,0.0625,-35.0,-1,1.0,0.17900100000042585
624,1,0.8,0.0625,-35.0,-1,1.0,0.08240100000011807
625,1,0.8,1.0,-35.0,-1,1.0,0.1693009999999049
626,1,0.8,0.25,-35.0,-1,1.0,0.04930100000001403
627,1,0.8,0.125,-35.0,-1,1.0,0.16600100000005114
628,1,0.8,0.0,-35.0,-1,1.0,0.08930099999997765
629,1,0.8,0.25,35.0,-1,0.0,0.1095009999994545
630,1,0.8,0.25,-35.0,-1,1.0,0.21620099999972808
631,1,0.8,1.0,-35.0,-1,1.0,0.11960099999987506
632,1,0.8,0.25,-35.0,-1,1.0,0.14950099999987287
633,1,0.8,0.0625,-35.0,-1,1.0,0.1329009999999471
634,1,0.8,0.0625,-35.0,-1,1.0,0.15970100000004095
635,1,0.8,1.0,-35.0,-1,1.0,0.1465010000001712
636,1,0.8,1.0,35.0,-1,0.0,0.13320100000009916
637,1,0.8,0.125,-35.0,-1,1.0,0.1233010000005379
638,1,0.8,0.25,-35.0,-1,1.0,0.1599010000004455
639,1,0.8,0.0625,-35.0,-1,1.0,0.14330100000006496
640,1,0.8,0.25,35.0,-1,0.0,0.1301010000001952
641,1,0.8,0.25,-35.0,-1,1.0,0.19680099999959566
642,1,0.8,1.0,-35.0,-1,1.0,0.17030100000010862
643,1,0.8,1.0,-35.0,-1,1.0,0.1569009999998343
644,1,0.8,0.25,-35.0,-1,1.0,0.15040099999987433
645,1,0.8,0.25,-35.0,-1,1.0,0.09380099999998492
646,1,0.8,0.0625,-35.0,-1,1.0,0.16370099999994636
647,1,0.8,0.125,-35.0,-1,1.0,0.12720100000024104
648,1,0.8,0.0,-35.0,-1,1.0,0.1272009999997863
649,1,0.8,1.0,-35.0,-1,1.0,0.15750100000013845
650,1,0.8,0.25,-35.0,-1,1.0,0.1540010000003349
651,1,0.8,0.0,-35.0,-1,1.0,0.16410099999984595
652,1,0.8,0.25,35.0,1,1.0,0.5709010000005037
653,1,0.8,0.0625,35.0,-1,0.0,0.1143010000000686
654,1,0.8,0.125,-35.0,-1,1.0,0.20110099999965314
655,1,0.8,0.25,-35.0,-1,1.0,0.1812009999998736
656,1,0.8,0.125,35.0,-1,0.0,0.21110099999987142
657,1,0.8,0.0,-35.0,-1,1.0,0.21780100000023594
658,1,0.8,0.0625,-35.0,-1,1.0,0.16800100000000384
659,1,0.8,0.0,-35.0,-1,1.0,0.1413009999996575
660,1,0.8,0.125,35.0,-1,0.0,0.08810100000027887
661,1,0.8,0.125,-35.0,-1,1.0,0.18480099999942468
662,1,0.8,0.0625,-35.0,-1,1.0,0.19830099999990125
663,1,0.8,1.0,-35.0,-1,1.0,0.12490100000013626
664,1,0.8,0.0625,-35.0,-1,1.0,0.15160100000002785
665,1,0.8,0.0625,-35.0,-1,1.0,0.1250009999998838
666,1,0.8,1.0,-35.0,-1,1.0,0.13500099999964732
667,1,0.8,0.0,35.0,-1,0.0,0.181800999999723
668,1,0.8,0.25,-35.0,-1,1.0,0.24850100000003295
669,1,0.8,1.0,-35.0,-1,1.0,0.17850100000032398
670,1,0.8,1.0,-35.0,-1,1.0,0.1286009999998896
671,1,0.8,0.0625,-35.0,-1,1.0,0.14530100000001767
672,1,0.8,0.0625,-35.0,-1,1.0,0.17550100000016755
673,1,0.8,0.25,35.0,1,1.0,0.2854010000000926
674,1,0.8,0.125,-35.0,-1,1.0,0.1788010000000213
675,1,0.8,0.25,-35.0,-1,1.0,0.17220099999985905
676,1,0.8,0.0625,-35.0,-1,1.0,0.17580099999986487
677,1,0.8,0.25,-35.0,-1,1.0,0.12910099999999147
678,1,0.8,0.0,-35.0,1,0.0,0.6291009999999915
679,1,0.8,0.125,-35.0,-1,1.0,0.14250100000026578
680,1,0.8,0.125,-35.0,-1,1.0,0.12930099999994127
681,1,0.8,0.125,-35.0,-1,1.0,0.14600099999961458
682,1,0.8,0.25,35.0,-1,0.0,0.16610099999979866
683,1,0.8,1.0,-35.0,-1,1.0,0.15620099999978265
684,1,0.8,0.0,-35.0,-1,1.0,0.09620099999983722
685,1,0.2,0.125,35.0,-1,0.0,0.13300100000014936
686,1,0.2,0.25,35.0,-1,0.0,0.14290100000016537
687,1,0.2,0.125,35.0,1,1.0,0.4463009999994938
688,1,0.2,0.0625,35.0,-1,0.0,0.24300099999982194
689,1,0.2,0.0625,35.0,1,1.0,0.5932010000001355
690,1,0.2,1.0,35.0,1,1.0,0.8365010000002258
691,1,0.2,0.25,35.0,1,1.0,0.24990099999968152
692,1,0.2,1.0,35.0,1,1.0,0.6067010000001574
693,1,0.2,0.0625,-35.0,-1,1.0,0.18010099999992235
694,1,0.2,0.125,35.0,-1,0.0,0.1735009999997601
695,1,0.2,0.0625,35.0,-1,0.0,0.19360100000039893
696,1,0.2,0.0625,35.0,1,1.0,0.3870010000000548
697,1,0.2,0.25,35.0,1,1.0,0.36030099999970844
698,1,0.2,0.0,35.0,-1,0.0,0.287000999999691
699,1,0.2,1.0,35.0,1,1.0,0.9771009999999478
700,1,0.2,0.0625,-35.0,1,0.0,0.3406009999998787
701,1,0.2,0.125,-35.0,-1,1.0,0.2207010000001901
702,1,0.2,0.25,35.0,1,1.0,0.24730099999987942
703,1,0.2,1.0,35.0,1,1.0,0.28070100000013554
704,1,0.2,0.25,-35.0,-1,1.0,0.1340010000003531
705,1,0.2,1.0,35.0,1,1.0,0.9643009999999776
706,1,0.2,0.0625,35.0,1,1.0,1.11750099999972
707,1,0.2,0.125,-35.0,-1,1.0,0.21760100000028615
708,1,0.2,0.125,35.0,-1,0.0,0.13770099999965169
709,1,0.2,1.0,35.0,1,1.0,0.411000999999942
710,1,0.2,1.0,35.0,1,1.0,0.28780100000039965
711,1,0.2,0.25,35.0,1,1.0,0.6845009999997274
712,1,0.2,0.25,-35.0,-1,1.0,0.16790099999980157
713,1,0.2,0.25,35.0,-1,0.0,0.16130100000009406
714,1,0.2,1.0,35.0,1,1.0,0.49800099999947633
715,1,0.2,0.0625,35.0,-1,0.0,0.1948010000000977
716,1,0.2,0.0,35.0,-1,0.0,2.9781010000001515
717,1,0.2,1.0,35.0,1,1.0,0.28160099999968224
718,1,0.2,0.125,35.0,-1,0.0,0.1816009999997732
719,1,0.2,0.125,35.0,1,1.0,0.25500099999999293
720,1,0.2,0.0625,-35.0,-1,1.0,0.24840100000028542
721,1,0.2,0.125,35.0,1,1.0,0.35180099999979575
722,1,0.2,0.0625,-35.0,-1,1.0,0.22180100000014136
723,1,0.2,0.125,35.0,-1,0.0,0.07530099999985396
724,1,0.2,0.125,35.0,1,1.0,0.3886010000001079
725,1,0.2,0.25,-35.0,-1,1.0,0.17540099999996528
726,1,0.2,0.25,35.0,1,1.0,0.22870100000000093
727,1,0.2,0.125,35.0,-1,0.0,0.17560099999946033
728,1,0.2,1.0,35.0,1,1.0,0.24890099999993254
729,1,0.2,0.0625,35.0,1,1.0,0.6289010000000417
730,1,0.2,0.0,35.0,-1,0.0,0.23900099999991653
731,1,0.2,1.0,35.0,1,1.0,0.49910099999988233
732,1,0.2,0.125,35.0,1,1.0,0.49570100000028106
733,1,0.2,0.0625,35.0,-1,0.0,0.2058009999996102
734,1,0.2,0.25,35.0,1,1.0,0.2526009999996859
735,1,0.2,0.0625,35.0,-1,0.0,0.11250099999961094
736,1,0.2,0.0625,35.0,1,1.0,0.25270099999988815
737,1,0.2,0.0625,-35.0,-1,1.0,0.1860009999995782
738,1,0.2,0.125,35.0,1,1.0,0.2995009999999638
739,1,0.2,0.125,35.0,-1,0.0,0.2629009999996015
740,1,0.2,0.125,35.0,1,1.0,0.862800999999763
741,1,0.2,0.125,35.0,1,1.0,0.22290099999963786
742,1,0.2,0.0625,35.0,1,1.0,0.26650100000006205
743,1,0.2,0.25,35.0,1,1.0,0.5497009999999136
744,1,0.8,0.125,-35.0,-1,1.0,0.20980099999997037
745,1,0.8,0.0625,35.0,-1,0.0,0.16660099999944578
746,1,0.8,0.0625,-35.0,-1,1.0,0.17990099999997256
747,1,0.8,0.25,-35.0,-1,1.0,0.18330100000002858
748,1,0.8,1.0,-35.0,-1,1.0,0.1433009999996102
749,1,0.8,0.0625,-35.0,-1,1.0,0.18350099999997838
750,1,0.8,0.25,-35.0,-1,1.0,0.15680099999963204
751,1,0.8,1.0,-35.0,-1,1.0,0.11690100000032544
752,1,0.8,0.25,35.0,1,1.0,1.0002010000002883
753,1,0.8,0.125,-35.0,-1,1.0,0.19030100000009043
754,1,0.8,0.0625,-35.0,-1,1.0,0.14710100000002058
755,1,0.8,0.0625,35.0,-1,0.0,0.14700100000027305
756,1,0.8,0.25,-35.0,-1,1.0,0.20380100000011225
757,1,0.8,1.0,-35.0,-1,1.0,0.18720100000018647
758,1,0.8,1.0,-35.0,-1,1.0,0.15390100000013263
759,1,0.8,0.125,-35.0,-1,1.0,0.14390099999991435
760,1,0.8,0.0625,-35.0,-1,1.0,0.1606010000000424
761,1,0.8,1.0,-35.0,-1,1.0,0.16090099999973972
762,1,0.8,1.0,-35.0,-1,1.0,0.15080100000022867
763,1,0.8,1.0,-35.0,-1,1.0,0.1509009999999762
764,1,0.2,0.0625,35.0,-1,0.0,0.17760100000032253
765,1,0.2,0.0625,35.0,-1,0.0,0.1310009999997419
766,1,0.2,0.125,35.0,-1,0.0,0.17440099999976155
767,1,0.2,1.0,35.0,1,1.0,0.21110099999987142
768,1,0.2,0.0,35.0,1,1.0,0.5278010000001814
769,1,0.2,0.25,-35.0,-1,1.0,0.36780099999987215
770,1,0.2,0.25,-35.0,-1,1.0,0.1612009999998918
771,1,0.2,0.0625,-35.0,-1,1.0,0.18130100000053062
772,1,0.2,1.0,35.0,1,1.0,0.8181009999998423
773,1,0.2,0.0,35.0,-1,0.0,0.14150100000006205
774,1,0.2,0.125,35.0,1,1.0,0.48160099999950035
775,1,0.2,0.0625,35.0,-1,0.0,0.17150100000026214
776,1,0.2,0.0625,35.0,1,1.0,0.42160100000000966
777,1,0.2,0.0625,-35.0,-1,1.0,0.18520099999977901
778,1,0.2,1.0,-35.0,-1,1.0,0.181800999999723
779,1,0.2,0.25,35.0,-1,0.0,0.16870099999960075
780,1,0.2,0.125,-35.0,-1,1.0,0.2319999999999709
781,1,0.2,0.125,35.0,-1,0.0,0.1687010000000555
782,1,0.2,0.0625,-35.0,-1,1.0,0.03870100000040111
783,1,0.2,1.0,35.0,1,1.0,0.152201000000332
784,1,0.2,0.0625,35.0,-1,0.0,0.12560099999973318
785,1,0.2,1.0,35.0,1,1.0,0.37890099999958693
786,1,0.2,1.0,35.0,1,1.0,0.26240099999995437
787,1,0.2,0.125,35.0,1,1.0,0.3491009999997914
788,1,0.2,1.0,-35.0,-1,1.0,0.15580099999988306
789,1,0.2,0.25,35.0,1,1.0,0.55920100000003
790,1,0.2,0.125,-35.0,-1,1.0,0.14270100000021557
791,1,0.2,0.0625,-35.0,-1,1.0,0.17270099999950617
792,1,0.2,0.25,35.0,-1,0.0,0.11600100000032398
793,1,0.2,1.0,35.0,1,1.0,0.5162000000000262
794,1,0.2,0.25,35.0,-1,0.0,0.1463010000002214
795,1,0.2,0.0625,35.0,-1,0.0,0.17290100000036546
796,1,0.2,0.0,-35.0,1,0.0,0.4697009999999864
797,1,0.2,1.0,35.0,1,1.0,0.2198009999997339
798,1,0.2,0.0625,35.0,-1,0.0,0.13990100000000893
799,1,0.2,0.0,35.0,-1,0.0,0.28670099999999366
800,1,0.2,1.0,35.0,1,1.0,0.3299010000000635
801,1,0.2,0.25,35.0,1,1.0,0.14340100000026723
802,1,0.2,0.0,-35.0,-1,1.0,0.1768010000000686
803,1,0.2,0.0,35.0,-1,0.0,0.1768010000000686
804,1,0.2,0.25,35.0,1,1.0,0.4436009999999442
805,1,0.2,1.0,-35.0,-1,1.0,0.16360100000019884
806,1,0.2,1.0,35.0,1,1.0,1.3070009999996728
807,1,0.2,0.0625,35.0,-1,0.0,0.02030099999956292
808,1,0.2,0.0625,35.0,-1,0.0,0.18390099999987797
809,1,0.2,0.0625,-35.0,-1,1.0,0.18720099999973172
810,1,0.2,0.125,-35.0,-1,1.0,0.17060099999980594
811,1,0.2,0.0625,35.0,1,1.0,0.31400099999973463
812,1,0.2,0.125,35.0,-1,0.0,0.32410099999970043
813,1,0.2,0.125,35.0,1,1.0,0.9541009999998096
814,1,0.2,0.125,35.0,1,1.0,1.9476009999998496
815,1,0.2,0.0,35.0,-1,0.0,0.29110099999979866
816,1,0.2,0.125,35.0,1,1.0,0.21770100000003367
817,1,0.2,0.0625,-35.0,-1,1.0,0.19120099999963713
818,1,0.8,0.25,-35.0,-1,1.0,0.20120100000031016
819,1,0.8,0.125,-35.0,-1,1.0,0.1678009999995993
820,1,0.8,0.25,-35.0,-1,1.0,0.17130100000031234
821,1,0.8,0.25,-35.0,-1,1.0,0.14130100000011225
822,1,0.8,0.25,-35.0,-1,1.0,0.14470100000016828
823,1,0.8,0.125,-35.0,-1,1.0,0.17150100000026214
824,1,0.8,0.0,-35.0,-1,1.0,0.15810099999998783
825,1,0.8,1.0,35.0,-1,0.0,0.15830099999993763
826,1,0.8,0.25,-35.0,-1,1.0,0.18830099999968297
827,1,0.8,0.25,35.0,1,1.0,0.4316009999997732
828,1,0.8,0.25,35.0,1,1.0,0.4951009999999769
829,1,0.8,1.0,-35.0,-1,1.0,0.18180100000017774
830,1,0.8,0.25,-35.0,-1,1.0,0.13190099999974336
831,1,0.8,1.0,-35.0,-1,1.0,0.13550099999974918
832,1,0.8,0.125,35.0,-1,0.0,0.13190099999974336
833,1,0.8,1.0,-35.0,-1,1.0,0.15870099999983722
834,1,0.8,0.125,-35.0,-1,1.0,0.16200100000014572
835,1,0.8,0.25,-35.0,-1,1.0,0.12540099999978338
836,1,0.8,0.0,-35.0,-1,1.0,0.18220100000007733
837,1,0.8,0.0,35.0,-1,0.0,0.15550100000018574
838,1,0.8,0.125,-35.0,-1,1.0,0.15560099999993326
839,1,0.8,0.25,35.0,1,1.0,0.2956009999993512
840,1,0.8,1.0,-35.0,-1,1.0,0.15910099999973681
841,1,0.8,0.0,-35.0,-1,1.0,0.03240100000039092
842,1,0.8,0.25,-35.0,-1,1.0,0.1626009999999951
843,1,0.8,0.125,-35.0,-1,1.0,0.15930100000014136
844,1,0.8,0.0625,-35.0,-1,1.0,0.1827010000001792
845,1,0.8,0.25,-35.0,-1,1.0,0.15620099999978265
846,1,0.8,0.0625,-35.0,-1,1.0,0.3361009999998714
847,1,0.8,0.0625,-35.0,-1,1.0,0.14960100000007515
848,1,0.8,0.25,-35.0,-1,1.0,0.2130010000000766
849,1,0.8,0.0625,-35.0,1,0.0,0.06290099999978338
850,1,0.2,0.25,-35.0,-1,1.0,0.17630100000042148
851,1,0.2,1.0,35.0,1,1.0,0.27300100000002203
852,1,0.2,0.25,35.0,-1,0.0,0.036600999999791384
853,1,0.2,0.25,35.0,1,1.0,0.34330099999988306
854,1,0.2,0.0,35.0,-1,0.0,0.17320100000006278
855,1,0.2,0.25,-35.0,-1,1.0,0.16000100000019302
856,1,0.2,0.25,35.0,-1,0.0,0.4968010000002323
857,1,0.2,0.25,35.0,1,1.0,0.9534009999997579
858,1,0.2,0.25,35.0,-1,0.0,0.013500999999905616
859,1,0.2,0.125,35.0,1,1.0,0.35710100000005696
860,1,0.2,0.0625,-35.0,-1,1.0,0.20710100000042075
861,1,0.2,1.0,35.0,1,1.0,0.23050100000000384
862,1,0.2,0.0625,35.0,-1,0.0,0.1538010000003851
863,1,0.2,0.0625,35.0,1,1.0,0.6639009999998962
864,1,0.2,0.0625,35.0,-1,0.0,0.13720100000045932
865,1,0.2,0.0625,35.0,1,1.0,0.2773010000000795
866,1,0.2,0.0625,35.0,-1,0.0,0.19070100000044476
867,1,0.2,0.0625,35.0,-1,0.0,0.20410100000026432
868,1,0.2,0.25,35.0,1,1.0,0.44430099999999584
869,1,0.2,0.0625,35.0,-1,0.0,0.25430099999994127
870,1,0.2,0.0625,35.0,1,1.0,0.3176010000001952
871,1,0.2,0.125,35.0,1,1.0,0.3343009999998685
872,1,0.2,0.125,35.0,-1,0.0,0.39100100000041493
873,1,0.2,1.0,35.0,1,1.0,0.18440099999997983
874,1,0.2,0.125,-35.0,-1,1.0,0.2778009999997266
875,1,0.2,0.0625,35.0,-1,0.0,0.1579009999995833
876,1,0.2,0.125,35.0,1,1.0,0.534701000000041
877,1,0.2,0.0,35.0,-1,0.0,0.218000999999731
878,1,0.2,0.0625,35.0,1,1.0,0.4014009999996233
879,1,0.2,0.125,35.0,1,1.0,0.5816009999998641
880,1,0.2,0.0625,35.0,1,1.0,0.2949009999997543
881,1,0.2,0.25,35.0,1,1.0,0.3182010000000446
882,1,0.2,0.0,35.0,-1,0.0,0.19490099999984523
883,1,0.2,0.0,-35.0,1,0.0,0.6551009999998314
884,1,0.2,0.125,35.0,1,1.0,0.36840099999972153
885,1,0.2,0.0625,35.0,1,1.0,0.47510099999954036
886,1,0.2,0.0625,35.0,1,1.0,0.43860099999983504
887,1,0.2,0.25,35.0,1,1.0,0.29200100000025486
888,1,0.2,1.0,35.0,1,1.0,0.29870100000016464
889,1,0.2,0.0,35.0,-1,0.0,0.13540100000000166
890,1,0.2,1.0,35.0,1,1.0,0.23880099999996673
891,1,0.2,0.125,-35.0,-1,1.0,0.1588010000000395
892,1,0.2,0.0,-35.0,-1,1.0,0.1557009999996808
893,1,0.2,0.125,35.0,-1,0.0,0.23900099999991653
894,1,0.2,0.25,35.0,1,1.0,0.312300999999934
895,1,0.2,0.0625,35.0,-1,0.0,0.27240100000017264
896,1,0.2,0.125,35.0,1,1.0,0.29240100000015445
897,1,0.2,0.0625,35.0,1,1.0,0.6558009999998831
898,1,0.2,0.125,35.0,-1,0.0,0.08590099999992162
899,1,0.2,1.0,35.0,1,1.0,0.45590100000026723
900,1,0.2,1.0,35.0,1,1.0,0.27940099999977974
901,1,0.2,1.0,35.0,-1,0.0,-0.010599000000183878
902,1,0.2,0.125,35.0,1,1.0,0.6461009999993621
903,1,0.2,0.0,35.0,-1,0.0,0.21940100000028906
904,1,0.2,1.0,35.0,1,1.0,0.6795009999996182
905,1,0.2,0.25,-35.0,-1,1.0,0.20300099999985832
906,1,0.2,0.0625,35.0,-1,0.0,0.21970100000044113
907,1,0.2,0.0625,35.0,1,1.0,0.27980099999967933
908,1,0.2,1.0,35.0,1,1.0,0.3364010000000235
909,1,0.2,0.125,35.0,1,1.0,0.38650100000040766
910,1,0.2,0.25,35.0,1,1.0,0.25990100000035454
911,1,0.2,0.0625,35.0,1,1.0,0.29990099999940867
912,1,0.2,0.0625,35.0,-1,0.0,0.16350099999999657
913,1,0.2,1.0,35.0,-1,0.0,0.493300999999974
914,1,0.2,0.0,35.0,1,1.0,1.8702009999997244
915,1,0.2,1.0,35.0,1,1.0,0.22690099999999802
916,1,0.2,0.25,35.0,1,1.0,0.4836009999999078
917,1,0.2,1.0,35.0,1,1.0,0.27030100000001767
918,1,0.2,1.0,35.0,1,1.0,0.24380100000007587
919,1,0.2,1.0,35.0,1,1.0,0.22050099999978556
920,1,0.2,0.125,35.0,-1,0.0,0.21730099999967933
921,1,0.2,0.125,35.0,1,1.0,0.5473009999996066
922,1,0.2,0.125,35.0,1,1.0,0.4074009999999362
923,1,0.2,0.0625,35.0,1,1.0,0.4974010000000817
924,1,0.2,0.0625,35.0,-1,0.0,0.1641010000003007
925,1,0.2,1.0,35.0,-1,0.0,0.17080099999975573
926,1,0.2,0.0625,-35.0,-1,1.0,0.22760100000004968
927,1,0.2,0.25,35.0,-1,0.0,0.14430099999981394
928,1,0.2,1.0,-35.0,-1,1.0,0.17770100000007005
929,1,0.8,1.0,-35.0,-1,1.0,0.16770100000030652
930,1,0.8,0.25,-35.0,-1,1.0,0.17790100000001985
931,1,0.8,0.25,-35.0,-1,1.0,0.16130100000009406
932,1,0.8,0.25,-35.0,-1,1.0,0.16460099999949307
933,1,0.8,0.125,35.0,-1,0.0,0.0981010000000424
934,1,0.8,0.25,-35.0,-1,1.0,0.18480099999987942
935,1,0.8,0.0,-35.0,1,0.0,4.894901000000118
936,1,0.8,1.0,-35.0,-1,1.0,0.18830100000013772
937,1,0.8,0.125,-35.0,-1,1.0,0.1717009999997572
938,1,0.8,1.0,-35.0,-1,1.0,0.18520099999977901
939,1,0.8,0.25,-35.0,-1,1.0,0.13180099999999584
940,1,0.8,1.0,35.0,-1,0.0,0.3752009999998336
941,1,0.8,0.25,-35.0,-1,1.0,0.16200100000014572
942,1,0.8,0.125,-35.0,-1,1.0,0.17540099999996528
943,1,0.8,0.125,-35.0,-1,1.0,0.162101000000348
944,1,0.8,0.0,-35.0,-1,1.0,0.17890099999976883
945,1,0.8,0.25,35.0,1,1.0,0.8488010000000941
946,1,0.8,0.25,-35.0,-1,1.0,0.155500999999731
947,1,0.8,0.125,-35.0,-1,1.0,0.2124010000002272
948,1,0.8,0.125,-35.0,-1,1.0,0.10910100000000966
949,1,0.8,1.0,-35.0,-1,1.0,0.14240099999960876
950,1,0.8,0.125,-35.0,-1,1.0,0.23240099999975428
951,1,0.8,0.0625,-35.0,-1,1.0,0.15250099999957456
952,1,0.8,0.25,-35.0,-1,1.0,0.15930100000014136
953,1,0.8,0.0625,35.0,-1,0.0,0.21930099999963204
954,1,0.8,0.25,35.0,1,1.0,0.44610099999999875
955,1,0.8,0.25,-35.0,-1,1.0,0.20280099999990853
956,1,0.8,0.125,-35.0,-1,1.0,0.05290100000001985
957,1,0.8,0.0,-35.0,-1,1.0,0.14300100000036764
958,1,0.8,0.25,-35.0,-1,1.0,0.1264009999999871
959,1,0.8,0.25,-35.0,-1,1.0,0.15310100000033344
960,1,0.8,0.125,35.0,-1,0.0,0.10320100000035382
961,1,0.8,0.125,-35.0,-1,1.0,0.1700010000004113
962,1,0.8,0.25,35.0,1,1.0,0.506601000000046
963,1,0.8,0.25,-35.0,-1,1.0,0.18000099999972008
964,1,0.8,0.0625,-35.0,-1,1.0,0.2501009999996313
965,1,0.8,0.125,-35.0,-1,1.0,0.16680099999985032
966,1,0.8,0.125,-35.0,-1,1.0,0.18680099999983213
967,1,0.8,0.0,-35.0,-1,1.0,0.07360099999959857
968,1,0.8,0.0625,-35.0,-1,1.0,0.16360100000019884
969,1,0.8,1.0,-35.0,-1,1.0,0.20370099999990998
970,1,0.8,1.0,-35.0,-1,1.0,0.14710100000002058
971,1,0.8,0.25,35.0,-1,0.0,0.15060100000027887
972,1,0.8,1.0,-35.0,-1,1.0,0.17740099999991799
973,1,0.8,1.0,35.0,-1,0.0,0.1106009999998605
974,1,0.8,0.25,-35.0,-1,1.0,0.187300999999934
975,1,0.8,0.0625,-35.0,-1,1.0,0.28070100000013554
976,1,0.8,0.125,-35.0,-1,1.0,0.1275009999994836
977,1,0.8,0.0,35.0,-1,0.0,0.14420100000006641
978,1,0.8,0.0625,-35.0,-1,1.0,0.18090099999972153
979,1,0.2,0.0625,35.0,-1,0.0,0.14100099999996019
980,1,0.2,0.0625,35.0,-1,0.0,0.15100099999972372
981,1,0.2,0.0625,35.0,1,1.0,0.5245009999998729
982,1,0.2,1.0,-35.0,-1,1.0,0.17120100000011007
983,1,0.2,0.0,35.0,-1,0.0,0.20790100000021994
984,1,0.2,0.125,35.0,1,1.0,0.7380009999997128
985,1,0.2,0.125,35.0,-1,0.0,0.1281010000002425
986,1,0.2,0.125,-35.0,-1,1.0,0.22140099999978702
987,1,0.2,0.0625,-35.0,-1,1.0,0.1915009999997892
988,1,0.2,0.125,35.0,-1,0.0,0.1549009999998816
989,1,0.2,0.125,-35.0,-1,1.0,0.1849010000000817
990,1,0.2,0.25,35.0,-1,0.0,0.5984010000001945
991,1,0.2,0.25,35.0,1,1.0,0.5817010000000664
992,1,0.2,0.25,35.0,1,1.0,0.2384009999996124
993,1,0.2,0.0625,35.0,1,1.0,1.461800999999923
994,1,0.2,0.25,35.0,1,1.0,0.2020009999996546
995,1,0.2,0.125,35.0,1,1.0,0.2719010000000708
996,1,0.2,0.125,35.0,-1,0.0,0.20200100000010934
997,1,0.2,0.0,35.0,-1,0.0,0.21200099999987287
998,1,0.2,0.125,35.0,1,1.0,0.582100999999966
999,1,0.2,0.25,35.0,1,1.0,0.26220100000000457
1000,1,0.2,0.0625,35.0,1,1.0,0.5923010000001341
1001,1,0.2,0.0625,35.0,1,1.0,0.2589010000001508
1002,1,0.2,0.0625,35.0,1,1.0,0.3592009999997572
1003,1,0.2,0.0625,35.0,1,1.0,1.4791009999999005
1004,1,0.2,0.25,35.0,-1,0.0,2.4125010000002476
1005,1,0.2,1.0,35.0,1,1.0,0.5259009999999762
1006,1,0.2,0.0625,35.0,-1,0.0,0.21930099999963204
1007,1,0.2,1.0,35.0,1,1.0,0.3694009999994705
1008,1,0.2,0.0,35.0,-1,0.0,0.17940100000032544
1009,1,0.2,0.0625,-35.0,-1,1.0,0.1727009999999609
1010,1,0.2,0.25,35.0,1,1.0,0.4395009999998365
1011,1,0.2,0.125,-35.0,-1,1.0,0.17950100000007296
1012,1,0.2,0.0,35.0,-1,0.0,0.013000999999803753
1013,1,0.2,1.0,35.0,1,1.0,0.9263009999999667
1014,1,0.2,0.25,-35.0,-1,1.0,0.20970100000022285
1015,1,0.2,0.125,35.0,1,1.0,0.2965009999998074
1016,1,0.2,0.0,-35.0,1,0.0,0.5697009999998954
1017,1,0.2,1.0,35.0,1,1.0,0.3565009999997528
1018,1,0.2,0.0,35.0,-1,0.0,0.31320099999993545
1019,1,0.2,1.0,35.0,1,1.0,0.2599009999998998
1020,1,0.2,0.25,35.0,1,1.0,0.39000099999975646
1021,1,0.2,1.0,-35.0,-1,1.0,0.18350099999997838
1022,1,0.2,1.0,35.0,1,1.0,0.3869009999998525
1023,1,0.2,0.0625,35.0,-1,0.0,0.2336009999999078
1024,1,0.2,0.25,35.0,1,1.0,0.45690099999956146
1025,1,0.2,0.125,-35.0,-1,1.0,0.2402999999999338
1026,1,0.2,0.0625,-35.0,-1,1.0,0.19040099999983795
1027,1,0.2,0.25,35.0,1,1.0,0.6805009999998219
1028,1,0.2,0.125,35.0,-1,0.0,0.15390099999967788
1029,1,0.2,0.0625,35.0,1,1.0,0.5807009999998627
1030,1,0.2,0.0625,35.0,-1,0.0,0.21070100000042657
1031,1,0.2,0.125,35.0,1,1.0,0.43060099999956947
1032,1,0.2,1.0,35.0,1,1.0,0.1875009999998838
1033,1,0.2,0.25,-35.0,-1,1.0,0.17080100000021048
1034,1,0.2,0.0,35.0,-1,0.0,0.22080099999948288
1035,1,0.2,1.0,35.0,1,1.0,0.20760100000006787
1036,1,0.2,0.125,35.0,-1,0.0,0.2743009999999231
1037,1,0.2,0.25,35.0,1,1.0,0.37430099999983213
1038,1,0.2,0.0625,-35.0,-1,1.0,0.15120100000012826
1039,1,0.2,0.125,35.0,-1,0.0,0.12110100000018065
1040,1,0.2,0.125,35.0,1,1.0,0.43120099999941885
1041,1,0.2,0.0625,35.0,-1,0.0,0.15460100000018429
1042,1,0.2,1.0,35.0,1,1.0,0.3246009999998023
1043,1,0.2,0.125,35.0,1,1.0,0.27480100000002494
1044,1,0.2,0.0625,-35.0,-1,1.0,0.15140100000007806
1045,1,0.2,0.0625,35.0,1,1.0,0.34820099999978993
1046,1,0.2,1.0,-35.0,-1,1.0,0.17150100000026214
1047,1,0.2,1.0,35.0,1,1.0,0.9549010000000635
1048,1,0.2,0.25,35.0,1,1.0,0.21510100000023158
1049,1,0.2,1.0,35.0,1,1.0,0.7151010000002316
1050,1,0.2,0.125,-35.0,-1,1.0,0.1751009999998132
1051,1,0.2,0.25,35.0,1,1.0,0.33170099999961167
1052,1,0.2,1.0,35.0,1,1.0,0.23850099999981467
1053,1,0.2,1.0,35.0,1,1.0,0.6119010000002163
1054,1,0.2,0.0625,35.0,-1,0.0,0.1853009999999813
1055,1,0.2,1.0,35.0,1,1.0,0.2020009999996546
1056,1,0.2,0.0625,35.0,-1,0.0,0.1887010000000373
1057,1,0.2,0.25,35.0,1,1.0,0.28870099999994636
1058,1,0.8,1.0,-35.0,-1,1.0,0.1389009999998052
1059,1,0.8,1.0,-35.0,-1,1.0,0.14560100000016973
1060,1,0.8,0.25,-35.0,-1,1.0,0.1523010000000795
1061,1,0.8,0.0625,-35.0,-1,1.0,0.18570099999942613
1062,1,0.8,0.25,35.0,1,1.0,0.539100999999846
1063,1,0.8,0.125,35.0,-1,0.0,0.1459010000003218
1064,1,0.8,1.0,-35.0,-1,1.0,0.17590100000006714
1065,1,0.8,0.125,-35.0,-1,1.0,0.212601000000177
1066,1,0.8,1.0,-35.0,-1,1.0,0.16610099999979866
1067,1,0.8,0.0625,-35.0,-1,1.0,0.192801000000145
1068,1,0.8,0.0625,-35.0,-1,1.0,0.21270099999992453
1069,1,0.8,0.0625,-35.0,-1,1.0,0.13950100000010934
1070,1,0.8,0.0625,35.0,-1,0.0,0.1562010000002374
1071,1,0.8,0.0625,-35.0,1,0.0,0.5264010000000781
1072,1,0.8,1.0,-35.0,-1,1.0,0.18960100000003877
1073,1,0.8,0.0,-35.0,-1,1.0,0.18640100000038728
1074,1,0.8,1.0,-35.0,-1,1.0,0.12970099999984086
1075,1,0.8,0.25,-35.0,-1,1.0,0.14990099999977247
1076,1,0.8,1.0,-35.0,-1,1.0,0.13330099999984668
1077,1,0.8,0.0,-35.0,-1,1.0,0.15660099999968224
1078,1,0.8,0.0625,35.0,1,1.0,0.5133009999999558
1079,1,0.8,1.0,-35.0,-1,1.0,0.1433009999996102
1080,1,0.8,0.0,-35.0,-1,1.0,0.12010099999952217
1081,1,0.8,0.0625,-35.0,-1,1.0,0.15030099999967206
1082,1,0.8,0.125,35.0,-1,0.0,0.1437009999995098
1083,1,0.8,0.0625,-35.0,-1,1.0,0.27040100000021994
1084,1,0.8,0.25,-35.0,-1,1.0,0.14380099999971208
1085,1,0.8,0.25,-35.0,-1,1.0,0.10030100000039965
1086,1,0.8,1.0,-35.0,-1,1.0,0.15390100000013263
1087,1,0.8,1.0,-35.0,-1,1.0,0.16720100000020466
1088,1,0.8,0.0625,-35.0,-1,1.0,0.15390099999967788
1089,1,0.8,0.0,-35.0,-1,1.0,0.13390100000015082
1090,1,0.8,1.0,-35.0,-1,1.0,0.14070099999980812
1091,1,0.8,0.0,-35.0,-1,1.0,0.2009010000001581
1092,1,0.8,0.25,-35.0,-1,1.0,0.1474009999997179
1093,1,0.8,0.25,35.0,-1,0.0,0.20420100000001185
1094,1,0.2,0.25,35.0,1,1.0,0.32770099999970626
1095,1,0.2,0.125,35.0,1,1.0,0.5076010000002498
1096,1,0.2,1.0,35.0,1,1.0,0.20430100000021412
1097,1,0.2,0.0,35.0,-1,0.0,0.18430099999977756
1098,1,0.2,0.25,35.0,1,1.0,0.4978009999999813
1099,1,0.2,0.0625,35.0,-1,0.0,0.2411010000000715
1100,1,0.2,0.125,35.0,1,1.0,0.2178009999997812
1101,1,0.2,0.125,35.0,-1,0.0,0.14810099999976956
1102,1,0.2,1.0,-35.0,-1,1.0,0.1647010000001501
1103,1,0.2,0.0625,35.0,1,1.0,0.5013010000002396
1104,1,0.2,0.0625,35.0,-1,0.0,0.1614009999998416
1105,1,0.2,0.0,35.0,-1,0.0,0.518301000000065
1106,1,0.2,0.0625,35.0,-1,0.0,0.17830099999991944
1107,1,0.2,0.125,35.0,1,1.0,0.4650010000000293
1108,1,0.2,1.0,35.0,1,1.0,0.4917009999999209
1109,1,0.2,1.0,35.0,1,1.0,0.22840099999984886
1110,1,0.2,1.0,35.0,1,1.0,0.18200099999967279
1111,1,0.2,0.125,35.0,-1,0.0,0.15540099999998347
1112,1,0.2,0.25,35.0,1,1.0,0.3521009999999478
1113,1,0.2,1.0,35.0,1,1.0,0.3021009999997659
1114,1,0.2,0.0625,35.0,1,1.0,0.37880100000029415
1115,1,0.2,0.0625,35.0,1,1.0,0.6888009999997848
1116,1,0.2,0.0,35.0,1,1.0,0.5489010000001144
1117,1,0.2,0.0625,-35.0,1,0.0,0.04230099999995218
1118,1,0.2,0.25,-35.0,-1,1.0,0.2124010000002272
1119,1,0.2,0.125,35.0,1,1.0,1.1192009999999755
1120,1,0.2,0.0625,35.0,1,1.0,1.1392009999999573
1121,1,0.2,1.0,-35.0,-1,1.0,0.24260099999992235
1122,1,0.2,0.0,-35.0,-1,1.0,0.24260099999992235
1123,1,0.2,1.0,35.0,1,1.0,0.38930100000015955
1124,1,0.2,0.0625,-35.0,-1,1.0,0.1893009999998867
1125,1,0.2,0.25,35.0,-1,0.0,0.1494009999996706
1126,1,0.2,1.0,-35.0,-1,1.0,0.1461010000002716
1127,1,0.2,0.0625,35.0,-1,0.0,0.16280099999949016
1128,1,0.2,0.0625,35.0,1,1.0,0.3962010000000191
1129,1,0.2,0.0625,35.0,1,1.0,4.292901000000256
1130,1,0.2,0.25,35.0,1,1.0,1.1031009999996968
1131,1,0.2,0.25,35.0,1,1.0,0.7965009999998074
1132,1,0.2,1.0,-35.0,-1,1.0,0.18000100000017483
1133,1,0.2,1.0,35.0,1,1.0,0.22650100000009843
1134,1,0.2,0.25,35.0,1,1.0,1.1165010000004258
1135,1,0.2,0.25,35.0,1,1.0,0.6833010000000286
1136,1,0.2,0.125,35.0,1,1.0,0.24020100000007005
1137,1,0.2,1.0,35.0,1,1.0,0.7934009999999034
1138,1,0.2,1.0,35.0,1,1.0,0.36360100000001694
1139,1,0.2,0.0625,-35.0,-1,1.0,0.4370009999993272
1140,1,0.2,0.25,35.0,-1,0.0,0.1737009999997099
1141,1,0.2,0.125,35.0,1,1.0,0.47710099999949307
1142,1,0.2,1.0,35.0,1,1.0,0.32390099999975064
1143,1,0.2,0.125,35.0,1,1.0,0.6539009999996779
1144,1,0.2,0.125,35.0,1,1.0,0.35400099999969825
1145,1,0.2,1.0,35.0,1,1.0,0.4339010000003327
1146,1,0.2,0.125,35.0,-1,0.0,0.16070099999978993
1147,1,0.2,0.125,35.0,1,1.0,0.3641010000001188
1148,1,0.2,0.25,35.0,-1,0.0,0.2042010000004666
1149,1,0.2,0.0,35.0,-1,0.0,0.2409010000001217
1150,1,0.2,0.125,35.0,-1,0.0,0.20420000000012806
1151,1,0.2,1.0,35.0,1,1.0,0.21760100000028615
1152,1,0.2,0.125,-35.0,-1,1.0,0.21100100000057864
1153,1,0.2,1.0,35.0,1,1.0,0.4712009999993825
1154,1,0.2,0.25,35.0,1,1.0,0.4579009999997652
1155,1,0.2,1.0,35.0,1,1.0,0.9213010000003123
1156,1,0.2,0.125,35.0,-1,0.0,0.1979009999995469
1157,1,0.2,1.0,-35.0,-1,1.0,0.14800100000047678
1158,1,0.2,0.125,35.0,-1,0.0,0.14140099999985978
1159,1,0.2,0.125,35.0,1,1.0,0.8782009999995353
1160,1,0.2,1.0,35.0,1,1.0,0.5782000000008338
1161,1,0.2,0.125,35.0,1,1.0,0.27160099999946397
1162,1,0.2,0.25,35.0,1,1.0,0.6050010000008115
1163,1,0.2,0.0625,35.0,1,1.0,0.6185009999999238
1164,1,0.8,0.125,-35.0,-1,1.0,0.18850099999963277
1165,1,0.8,0.25,-35.0,-1,1.0,0.14520099999936065
1166,1,0.8,0.125,-35.0,-1,1.0,0.1619010000003982
1167,1,0.8,0.25,-35.0,-1,1.0,0.14530099999956292
1168,1,0.8,0.25,-35.0,-1,1.0,0.1987010000002556
1169,1,0.8,0.25,-35.0,-1,1.0,0.1921009999996386
1170,1,0.8,0.0,-35.0,-1,1.0,0.14890099999956874
1171,1,0.8,0.125,-35.0,-1,1.0,0.25220099999933154
1172,1,0.8,0.25,35.0,-1,0.0,0.09230100000058883
1173,1,0.8,0.125,-35.0,-1,1.0,0.16570099999989907
1174,1,0.8,0.0625,-35.0,-1,1.0,0.1858009999996284
1175,1,0.8,0.25,-35.0,-1,1.0,0.1524009999993723
1176,1,0.8,0.125,-35.0,-1,1.0,0.13590100000055827
1177,1,0.8,0.125,-35.0,-1,1.0,0.1093010000004142
1178,1,0.8,0.25,-35.0,-1,1.0,0.13600099999985105
1179,1,0.8,0.125,-35.0,-1,1.0,0.16280100000039965
1180,1,0.8,0.0625,-35.0,-1,1.0,0.17610100000001694
1181,1,0.8,1.0,-35.0,-1,1.0,0.15290100000038365
1182,1,0.8,0.0625,-35.0,-1,1.0,0.1762010000002192
1183,1,0.8,0.125,-35.0,-1,1.0,0.12300099999993108
1184,1,0.8,0.125,-35.0,-1,1.0,0.039700999998785846
1185,1,0.8,0.125,-35.0,-1,1.0,0.2398010000006252
1186,1,0.8,0.0625,-35.0,-1,1.0,0.2700010000007751
1187,1,0.8,0.25,35.0,1,1.0,1.3065010000000257
1188,1,0.8,0.0625,-35.0,-1,1.0,0.19330100000024686
1189,1,0.8,0.125,-35.0,-1,1.0,0.18330099999911909
1190,1,0.8,0.25,-35.0,-1,1.0,0.2200009999996837
1191,1,0.8,0.25,-35.0,-1,1.0,0.21000100000037492
1192,1,0.8,0.25,35.0,-1,0.0,0.16690099999959784
1193,1,0.8,0.0625,35.0,-1,0.0,0.18680100000074162
1194,1,0.8,0.25,-35.0,-1,1.0,0.21020099999986996
1195,1,0.8,1.0,-35.0,-1,1.0,0.14360099999976228
1196,1,0.8,0.0625,35.0,-1,0.0,0.16030100000079983
1197,1,0.8,1.0,-35.0,-1,1.0,0.18040099999961967
1198,1,0.8,0.0,-35.0,-1,1.0,0.19720099999995
1199,1,0.8,1.0,-35.0,-1,1.0,0.12720100000024104
1200,1,0.8,0.0625,-35.0,-1,1.0,0.1773009999997157
1201,1,0.8,0.125,35.0,1,1.0,0.6208010000000286
1202,1,0.8,0.0,-35.0,-1,1.0,0.1840009999996255
1203,1,0.8,0.25,-35.0,-1,1.0,0.1575009999996837
1204,1,0.8,0.0,-35.0,1,0.0,4.804300999999214
1205,1,0.8,1.0,-35.0,-1,1.0,0.17760099999941303
1206,1,0.8,0.0625,-35.0,1,0.0,0.2810010000002876
1207,1,0.8,0.125,-35.0,-1,1.0,0.2211009999991802
1208,1,0.8,0.25,35.0,-1,0.0,0.18780099999912636
1209,1,0.8,1.0,-35.0,-1,1.0,0.17120100000011007
1210,1,0.8,0.0625,-35.0,-1,1.0,0.22470099999918602
1211,1,0.8,0.125,-35.0,-1,1.0,0.5615010000001348
1212,1,0.8,0.25,-35.0,-1,1.0,0.27130099999976665
1213,1,0.8,1.0,-35.0,-1,1.0,0.14480099999946106
1214,1,0.8,1.0,-35.0,-1,1.0,0.13820099999975355
1215,1,0.8,0.0,-35.0,-1,1.0,0.16160099999979138
1216,1,0.8,0.25,-35.0,-1,1.0,0.17500099999961094
1217,1,0.8,0.0625,-35.0,-1,1.0,0.15830100000039238
1218,1,0.8,0.125,-35.0,-1,1.0,0.16170099999908416
1219,1,0.8,0.25,-35.0,-1,1.0,0.15830099999948288
1220,1,0.8,0.0625,-35.0,-1,1.0,0.14840100000037637
1221,1,0.8,1.0,-35.0,-1,1.0,0.20850099999915983
1222,1,0.8,0.0625,-35.0,1,0.0,0.44180099999994127
1223,1,0.8,0.25,-35.0,-1,1.0,0.22870100000000093
1224,1,0.8,0.25,-35.0,-1,1.0,0.14530099999956292
1225,1,0.8,0.0625,-35.0,-1,1.0,0.1288009999989299
1226,1,0.8,1.0,-35.0,-1,1.0,0.1689010000000053
1227,1,0.8,0.0,-35.0,-1,1.0,0.49890099999993254
1228,1,0.8,0.125,-35.0,-1,1.0,0.07900100000006205
1229,1,0.8,0.125,-35.0,-1,1.0,0.1457009999994625
1230,1,0.8,1.0,-35.0,-1,1.0,0.005701000000044587
1231,1,0.8,0.125,35.0,1,1.0,0.5659009999999398
1232,1,0.8,0.125,-35.0,-1,1.0,0.14920100000017555
1233,1,0.8,1.0,35.0,-1,0.0,0.14930100000037783
1234,1,0.8,0.125,-35.0,-1,1.0,0.17600099999981467
1235,1,0.8,1.0,35.0,-1,0.0,0.12610100000074453
1236,1,0.8,0.25,-35.0,-1,1.0,0.19600100000025122
1237,1,0.8,1.0,-35.0,-1,1.0,0.17270099999950617
1238,1,0.8,0.125,-35.0,-1,1.0,0.14950100000078237
1239,1,0.8,0.0,-35.0,-1,1.0,0.15630100000089442
1240,1,0.8,0.125,-35.0,-1,1.0,0.14300099999945814
1241,1,0.8,0.0625,-35.0,-1,1.0,0.1630010000008042
1242,1,0.8,0.0625,-35.0,-1,1.0,0.13970100000005914
1243,1,0.8,0.25,-35.0,-1,1.0,0.1465010000001712
1244,1,0.8,0.0,35.0,-1,0.0,0.11320100000011735
1245,1,0.8,0.0625,35.0,1,1.0,0.506601000000046
1246,1,0.8,1.0,-35.0,-1,1.0,0.14660100000037346
1247,1,0.8,1.0,-35.0,-1,1.0,0.15330100000028324
1248,1,0.2,1.0,35.0,-1,0.0,0.15690100000028906
1249,1,0.2,0.125,35.0,1,1.0,0.7402009999996153
1250,1,0.2,0.0,35.0,1,1.0,0.6702009999999063
1251,1,0.2,0.0,35.0,1,1.0,0.31030100000043603
1252,1,0.2,0.25,-35.0,-1,1.0,0.2303009999995993
1253,1,0.2,1.0,35.0,1,1.0,0.21690099999977974
1254,1,0.2,1.0,35.0,-1,0.0,0.1270009999998365
1255,1,0.2,0.0625,35.0,-1,0.0,0.25040099999932863
1256,1,0.2,0.125,35.0,1,1.0,0.2806009999994785
1257,1,0.2,0.25,35.0,1,1.0,0.22390100000120583
1258,1,0.2,0.25,35.0,1,1.0,0.2939009999990958
1259,1,0.2,0.0,35.0,-1,0.0,0.25730099999964295
1260,1,0.2,0.0,35.0,-1,0.0,0.29740099999980885
1261,1,0.2,1.0,35.0,1,1.0,0.33750099999997474
1262,1,0.2,0.0625,35.0,1,1.0,0.7041009999993548
1263,1,0.2,0.125,35.0,-1,0.0,0.15760099999988597
1264,1,0.2,0.0,35.0,1,1.0,0.6177010000001246
1265,1,0.2,1.0,35.0,1,1.0,0.36460100000022067
1266,1,0.2,0.0,-35.0,-1,1.0,0.19430100000045059
1267,1,0.2,0.0,35.0,-1,0.0,4.921001000000615
1268,1,0.2,1.0,35.0,1,1.0,0.24780099999952654
1269,1,0.2,0.25,-35.0,-1,1.0,0.17790100000001985
1270,1,0.8,1.0,-35.0,-1,1.0,0.19470100000035018
1271,1,0.8,0.0625,-35.0,-1,1.0,0.12130099999922095
1272,1,0.8,0.0,-35.0,-1,1.0,0.18810099999973318
1273,1,0.8,0.125,-35.0,-1,1.0,0.15810099999998783
1274,1,0.8,1.0,-35.0,-1,1.0,0.18490099999962695
1275,1,0.8,0.0,-35.0,-1,1.0,0.2248009999993883
1276,1,0.8,1.0,-35.0,-1,1.0,0.198301000000356
1277,1,0.8,1.0,-35.0,-1,1.0,0.15180099999906815
1278,1,0.8,0.25,-35.0,-1,1.0,0.18500099999982922
1279,1,0.8,1.0,-35.0,-1,1.0,0.10840099999950326
1280,1,0.8,1.0,-35.0,-1,1.0,0.13520100000005186
1281,1,0.8,1.0,-35.0,-1,1.0,0.15520099999957893
1282,1,0.8,0.0625,-35.0,-1,1.0,0.14860100000078091
1283,1,0.8,0.25,-35.0,-1,1.0,0.2053009999999631
1284,1,0.8,0.0625,-35.0,-1,1.0,0.15210099999967497
1285,1,0.8,0.125,-35.0,-1,1.0,0.15550099999927625
1286,1,0.8,0.0625,-35.0,-1,1.0,0.1821009999994203
1287,1,0.8,1.0,-35.0,-1,1.0,0.11550100000022212
1288,1,0.8,0.0625,-35.0,-1,1.0,0.18220099999962258
1289,1,0.8,0.0625,35.0,-1,0.0,0.1589010000006965
1290,1,0.8,0.125,-35.0,-1,1.0,0.15560099999947852
1291,1,0.8,0.25,-35.0,-1,1.0,0.09240099999897211
1292,1,0.2,0.125,35.0,-1,0.0,0.139100999999755
1293,1,0.2,1.0,-35.0,-1,1.0,0.129200999999739
1294,1,0.2,0.0625,35.0,-1,0.0,0.12250100000073871
1295,1,0.2,1.0,-35.0,-1,1.0,0.1692010000006121
1296,1,0.2,0.125,-35.0,-1,1.0,0.14920099999926606
1297,1,0.2,0.25,35.0,-1,0.0,0.1494010000005801
1298,1,0.2,0.0,35.0,-1,0.0,0.21940100000028906
1299,1,0.2,0.125,35.0,1,1.0,0.5061010000008537
1300,1,0.2,0.125,-35.0,-1,1.0,0.21280099999967206
1301,1,0.2,0.25,35.0,1,1.0,0.4129010000006019
1302,1,0.2,0.0625,35.0,-1,0.0,0.1729009999999107
1303,1,0.2,0.125,-35.0,-1,1.0,0.16310100000009697
1304,1,0.2,1.0,35.0,1,1.0,0.24300100000073144
1305,1,0.2,1.0,35.0,1,1.0,0.012201000000459317
1306,1,0.2,0.0625,35.0,-1,0.0,0.4964009999994232
1307,1,0.2,0.0625,35.0,1,1.0,0.6066009999995003
1308,1,0.2,1.0,-35.0,-1,1.0,0.1865010000001348
1309,1,0.2,0.0625,35.0,-1,0.0,0.21000099999946542
1310,1,0.2,0.0625,35.0,1,1.0,0.2734009999994669
1311,1,0.2,1.0,35.0,1,1.0,0.2134009999999762
1312,1,0.2,0.0,35.0,-1,0.0,0.12350100000003295
1313,1,0.2,0.125,35.0,1,1.0,0.6302009999999427
1314,1,0.2,0.0625,35.0,1,1.0,0.37350100000003295
1315,1,0.2,1.0,35.0,1,1.0,1.3371010000000751
1316,1,0.2,0.125,35.0,1,1.0,0.6604009999991831
1317,1,0.2,0.125,35.0,-1,0.0,0.18370099999992817
1318,1,0.2,0.125,35.0,1,1.0,0.4438010000003487
1319,1,0.2,0.0,35.0,-1,0.0,1.8073010000007343
1320,1,0.2,1.0,35.0,1,1.0,0.30730099999982485
1321,1,0.2,1.0,35.0,1,1.0,0.29410099999950035
1322,1,0.2,0.125,35.0,-1,0.0,0.047400999999808846
1323,1,0.2,1.0,35.0,1,1.0,0.3509009999988848
1324,1,0.2,1.0,35.0,1,1.0,0.22420099999999366
1325,1,0.2,0.25,35.0,1,1.0,0.48090099999990343
1326,1,0.2,0.25,35.0,1,1.0,0.3843009999991409
1327,1,0.2,0.125,35.0,1,1.0,2.784400999999889
1328,1,0.2,0.125,35.0,1,1.0,0.5545009999996182
1329,1,0.2,0.125,-35.0,-1,1.0,0.22450100000060047
1330,1,0.2,1.0,35.0,1,1.0,0.46790099999998347
1331,1,0.2,0.0625,-35.0,-1,1.0,0.16790100000071106
1332,1,0.2,1.0,35.0,1,1.0,0.11790100000052917
1333,1,0.2,0.0,35.0,1,1.0,0.13460099999974773
1334,1,0.2,0.25,35.0,1,1.0,0.7649010000004637
1335,1,0.2,0.0625,35.0,1,1.0,0.5316009999996822
1336,1,0.2,0.125,-35.0,-1,1.0,0.25480100000004313
1337,1,0.2,0.25,-35.0,-1,1.0,0.28150099999948
1338,1,0.2,0.25,35.0,1,1.0,8.641700999999557
1339,1,0.2,0.0625,35.0,1,1.0,7.061801000000742
1340,1,0.2,1.0,35.0,1,1.0,0.5787009999994552
1341,1,0.2,0.0,35.0,1,1.0,0.1420010000001639
1342,1,0.2,0.25,35.0,1,1.0,0.23200099999939994
1343,1,0.2,0.0,-35.0,1,0.0,0.67540100000042
1344,1,0.2,0.125,35.0,1,1.0,0.6322010000003502
1345,1,0.2,0.125,35.0,1,1.0,0.37219999999979336
1346,1,0.2,0.0625,35.0,1,1.0,3.5956009999990783
1347,1,0.2,0.125,35.0,1,1.0,0.7193010000000868
1348,1,0.2,0.25,35.0,1,1.0,1.0391010000003007
1349,1,0.2,0.25,35.0,-1,0.0,12.859500999999
1350,1,0.2,0.25,-35.0,1,0.0,25.83650099999977
1351,1,0.8,0.25,-35.0,-1,1.0,3.0336010000000897
1352,1,0.8,1.0,-35.0,-1,1.0,0.2505010000004404
1353,1,0.8,0.125,-35.0,1,0.0,39.28710099999989
1354,1,0.8,0.125,-35.0,-1,1.0,3.504400999999234
1355,1,0.8,0.125,-35.0,1,0.0,14.984601000000112
1356,1,0.8,0.0625,-35.0,1,0.0,2.9549010000000635
1357,1,0.8,0.25,-35.0,1,0.0,11.78490099999999
1358,1,0.8,0.125,-35.0,-1,1.0,0.3053009999994174
1359,1,0.8,0.125,-35.0,-1,1.0,0.3653009999998176
1360,1,0.8,0.25,-35.0,-1,1.0,0.46870100000069215
1361,1,0.8,0.125,-35.0,-1,1.0,0.5087009999997463
1362,1,0.8,0.125,-35.0,-1,1.0,0.485501000000113
1363,1,0.8,1.0,-35.0,-1,1.0,0.23220099999980448
1364,1,0.8,0.0,35.0,-1,0.0,17.432301000000734
1365,1,0.8,0.125,-35.0,-1,1.0,0.296001000000615
1366,1,0.8,0.25,-35.0,-1,1.0,0.23260100000061357
1367,1,0.8,0.125,-35.0,-1,1.0,0.212601000000177
1368,1,0.8,1.0,35.0,-1,0.0,0.15950100000009115
1369,1,0.8,0.125,-35.0,-1,1.0,0.32610100000056264
1370,1,0.8,0.0,35.0,-1,0.0,0.16280099999949016
1371,1,0.8,0.125,-35.0,-1,1.0,0.17970100000002276
1372,1,0.8,0.125,-35.0,-1,1.0,0.2762009999996735
1373,1,0.8,0.0625,35.0,-1,0.0,0.15290099999947415
1374,1,0.8,0.125,-35.0,-1,1.0,0.17630100000042148
1375,1,0.8,0.0625,-35.0,-1,1.0,0.21650099999988015
1376,1,0.8,0.25,-35.0,-1,1.0,0.16650100000060775
1377,1,0.8,0.0,-35.0,-1,1.0,0.16310100000009697
1378,1,0.8,1.0,-35.0,-1,1.0,0.17980099999931554
1379,1,0.8,1.0,-35.0,-1,1.0,0.17320099999960803
1380,1,0.8,0.25,35.0,-1,0.0,0.25330099999973754
1381,1,0.8,1.0,-35.0,-1,1.0,0.1534010000004855
1382,1,0.8,0.25,-35.0,-1,1.0,0.17340099999910308
1383,1,0.2,0.25,35.0,-1,0.0,0.20690099999956146
1384,1,0.2,0.0,35.0,-1,0.0,0.1869010000000344
1385,1,0.2,1.0,35.0,1,1.0,0.38350099999934173
1386,1,0.2,0.0625,35.0,-1,0.0,0.15030099999967206
1387,1,0.2,0.0625,-35.0,-1,1.0,0.19400099999984377
1388,1,0.2,0.25,35.0,1,1.0,0.7440010000000257
1389,1,0.2,0.0,35.0,-1,0.0,0.19710099999974773
1390,1,0.2,0.0625,-35.0,-1,1.0,0.18060100000002421
1391,1,0.2,0.25,-35.0,-1,1.0,0.19730099999924278
1392,1,0.2,0.125,35.0,-1,0.0,0.14400100000057137
1393,1,0.2,0.125,35.0,1,1.0,0.6407009999993534
1394,1,0.2,0.125,35.0,1,1.0,0.3008009999994101
1395,1,0.2,0.25,35.0,-1,0.0,0.12420000000020082
1396,1,0.2,1.0,35.0,1,1.0,0.23090099999899394
1397,1,0.2,0.0,35.0,1,1.0,0.42090100000041275
1398,1,0.2,0.0625,35.0,-1,0.0,0.19780100000025413
1399,1,0.2,0.125,-35.0,-1,1.0,0.20440099999996164
1400,1,0.2,0.25,35.0,1,1.0,0.39450099999976374
1401,1,0.2,1.0,35.0,-1,0.0,0.027900999999474152
1402,1,0.2,0.125,35.0,1,1.0,0.31130099999973027
1403,1,0.2,0.0625,-35.0,-1,1.0,0.25470100000075035
1404,1,0.2,0.125,35.0,1,1.0,0.4814010000000053
1405,1,0.2,1.0,35.0,1,1.0,0.31140099999902304
1406,1,0.2,0.0,35.0,-1,0.0,0.2715010000001712
1407,1,0.2,1.0,35.0,1,1.0,0.1748010000001159
1408,1,0.2,0.25,35.0,1,1.0,0.3449010000003909
1409,1,0.2,0.25,35.0,1,1.0,3.0949009999994814
1410,1,0.2,0.0,35.0,-1,0.0,10.61500100000012
1411,1,0.2,1.0,35.0,1,1.0,0.421900999999707
1412,1,0.2,0.0625,35.0,-1,0.0,2.3386009999994712
1413,1,0.2,0.0,35.0,-1,0.0,3.468701000000692
1414,1,0.2,0.0,35.0,-1,0.0,0.22230099999978847
1415,1,0.2,0.0625,35.0,1,1.0,5.289001000000098
1416,1,0.2,0.125,-35.0,-1,1.0,0.23230099999909726
1417,1,0.2,1.0,35.0,1,1.0,0.9156009999996968
1418,1,0.2,0.0625,-35.0,-1,1.0,0.36910100000022794
1419,1,0.2,0.125,35.0,1,1.0,0.6092009999993024
1420,1,0.2,1.0,35.0,1,1.0,1.3593010000004142
1421,1,0.2,0.0,35.0,1,1.0,0.41940100000010716
1422,1,0.2,0.125,35.0,-1,0.0,3.8894009999994523
1423,1,0.2,0.125,35.0,1,1.0,0.449401000000762
1424,1,0.2,0.0,-35.0,1,0.0,12.732801000000109
1425,1,0.2,0.0625,-35.0,-1,1.0,0.42310100000031525
1426,1,0.2,1.0,35.0,1,1.0,0.33640099999956874
1427,1,0.2,0.0,35.0,1,1.0,0.4398009999995338
1428,1,0.2,0.25,35.0,-1,0.0,3.593200999999681
1429,1,0.2,1.0,35.0,1,1.0,0.2766009999995731
1430,1,0.2,0.125,35.0,1,1.0,0.5767009999990478
1431,1,0.2,0.25,35.0,1,1.0,4.680201000000125
1432,1,0.2,0.25,35.0,1,1.0,0.41360099999928934
1433,1,0.2,1.0,35.0,1,1.0,0.8337009999995644
1434,1,0.2,0.25,35.0,-1,0.0,12.403801000000385
1435,1,0.8,0.125,-35.0,-1,1.0,0.30730099999982485
1436,1,0.8,0.25,-35.0,-1,1.0,0.1707010000000082
1437,1,0.8,1.0,-35.0,-1,1.0,0.12400100000013481
1438,1,0.8,0.125,-35.0,-1,1.0,0.22410099999979138
1439,1,0.8,0.25,35.0,1,1.0,0.47750100000030216
1440,1,0.8,0.25,35.0,1,1.0,0.5375009999997928
1441,1,0.8,0.125,-35.0,-1,1.0,0.27090099999986705
1442,1,0.8,0.125,-35.0,-1,1.0,0.15760099999988597
1443,1,0.8,1.0,-35.0,-1,1.0,0.20110099999965314
1444,1,0.8,0.0625,-35.0,-1,1.0,0.2711010000002716
1445,1,0.8,0.25,-35.0,-1,1.0,0.3012009999993097
1446,1,0.8,0.125,-35.0,-1,1.0,0.2545009999994363
1447,1,0.8,0.0625,-35.0,-1,1.0,0.16790099999980157
1448,1,0.8,1.0,-35.0,-1,1.0,0.1880009999995309
1449,1,0.8,0.125,-35.0,-1,1.0,0.14140099999895028
1450,1,0.8,1.0,35.0,-1,0.0,0.1681010000002061
1451,1,0.8,0.0,-35.0,-1,1.0,0.2281009999996968
1452,1,0.8,1.0,-35.0,-1,1.0,0.14810099999976956
1453,1,0.8,0.0,-35.0,-1,1.0,0.27490100000068196
1454,1,0.8,0.25,-35.0,-1,1.0,0.1516009999995731
1455,1,0.8,1.0,35.0,-1,0.0,0.11840099999972153
1456,1,0.8,0.25,-35.0,-1,1.0,0.1950010000000475
1457,1,0.8,1.0,-35.0,-1,1.0,0.1718009999995047
1458,1,0.8,0.125,35.0,-1,0.0,0.17520100000001548
1459,1,0.2,1.0,-35.0,-1,1.0,0.14520099999936065
1460,1,0.2,0.25,35.0,1,1.0,0.7453010000008362
1461,1,0.2,0.0625,35.0,1,1.0,1.0054010000003473
1462,1,0.2,0.0625,35.0,-1,0.0,0.17200099999990925
1463,1,0.2,0.0625,35.0,-1,0.0,0.25210100000003877
1464,1,0.2,1.0,-35.0,-1,1.0,0.20550100000036764
1465,1,0.2,0.125,35.0,1,1.0,0.8390009999993708
1466,1,0.2,0.0625,-35.0,1,0.0,2.2557010000000446
1467,1,0.2,0.0625,-35.0,-1,1.0,0.21910099999968224
1468,1,0.2,0.25,-35.0,-1,1.0,0.18240100000002712
1469,1,0.2,0.0625,35.0,-1,0.0,0.16250099999979284
1470,1,0.2,0.125,35.0,-1,0.0,0.15250099999957456
1471,1,0.2,0.0625,-35.0,-1,1.0,0.1726009999993039
1472,1,0.2,0.0625,-35.0,-1,1.0,0.28270100000099774
1473,1,0.2,1.0,35.0,1,1.0,0.8560009999991962
1474,1,0.2,1.0,35.0,1,1.0,0.3494010000003982
1475,1,0.2,0.25,-35.0,-1,1.0,3.282901000000493
1,2,0.5,0.125,35.0,1,1.0,1.0832
2,2,0.5,0.0625,-35.0,1,0.0,9.2084
3,2,0.5,0.0,-35.0,1,0.0,1.6028999999999982
4,2,0.5,0.0625,-35.0,1,0.0,1.0080000000000027
5,2,0.5,0.125,-35.0,1,0.0,14.532700000000006
6,2,0.5,0.0625,-35.0,1,0.0,6.381799999999998
7,2,0.5,0.25,35.0,-1,0.0,9.971400000000003
8,2,0.5,0.25,35.0,1,1.0,0.6787000000000063
9,2,0.5,1.0,-35.0,0,0.0,59.95270000000001
10,2,0.5,0.125,35.0,1,1.0,53.30109999999999
11,2,0.5,0.125,-35.0,1,0.0,11.340900000000005
12,2,0.5,0.25,35.0,1,1.0,1.175299999999993
13,2,0.5,1.0,35.0,1,1.0,0.4773000000000138
14,2,0.5,0.0625,-35.0,1,0.0,4.637199999999979
15,2,0.5,0.125,35.0,1,1.0,1.0733000000000175
16,2,0.5,1.0,35.0,1,1.0,0.6055000000000064
17,2,0.5,1.0,-35.0,-1,1.0,1.66670000000002
18,2,0.5,0.25,-35.0,1,0.0,1.1887999999999863
19,2,0.5,0.25,-35.0,1,0.0,4.902500000000003
20,2,0.5,0.0625,35.0,1,1.0,6.069099999999992
21,2,0.5,0.0,-35.0,1,0.0,9.2971
22,2,0.5,0.0625,35.0,1,1.0,5.599199999999996
23,2,0.5,0.125,35.0,1,1.0,1.3675999999999817
24,2,0.5,0.0625,-35.0,1,0.0,7.7851
25,2,0.5,0.125,-35.0,1,0.0,0.5742000000000189
26,2,0.5,0.125,-35.0,1,0.0,15.32430000000005
27,2,0.5,0.0625,35.0,1,1.0,1.031499999999994
28,2,0.5,0.25,35.0,1,1.0,8.125299999999982
29,2,0.5,0.0,35.0,1,1.0,4.752400000000023
30,2,0.5,0.0,-35.0,1,0.0,8.799600000000055
31,2,0.5,0.25,-35.0,1,0.0,18.863399999999956
32,2,0.5,0.0625,35.0,1,1.0,0.4648000000000252
33,2,0.5,0.0625,-35.0,1,0.0,1.2495000000000118
34,2,0.5,1.0,35.0,1,1.0,0.49350000000004
35,2,0.5,0.0625,-35.0,1,0.0,17.213899999999967
36,2,0.5,0.125,-35.0,1,0.0,15.947999999999979
37,2,0.5,0.25,35.0,1,1.0,1.099899999999991
38,2,0.5,0.25,35.0,1,1.0,8.809199999999976
39,2,0.5,0.25,-35.0,1,0.0,9.330500000000029
40,2,0.5,0.0,35.0,1,1.0,7.1469000000000165
41,2,0.5,1.0,35.0,1,1.0,0.37360000000001037
42,2,0.5,0.0625,35.0,1,1.0,5.04910000000001
43,2,0.5,0.125,-35.0,1,0.0,0.9353000000000407
44,2,0.5,0.0625,35.0,1,1.0,31.80899999999997
45,2,0.5,1.0,-35.0,1,0.0,49.246200000000044
46,2,0.5,0.25,35.0,1,1.0,0.5493999999999915
47,2,0.5,0.0,35.0,1,1.0,4.495800000000031
48,2,0.5,0.0,-35.0,1,0.0,11.072900000000004
49,2,0.5,0.0,-35.0,1,0.0,1.0516000000000076
50,2,0.5,0.25,-35.0,1,0.0,13.910799999999995
51,2,0.5,1.0,-35.0,-1,1.0,0.5358999999999696
52,2,0.5,0.25,35.0,1,1.0,1.286200000000008
53,2,0.5,0.25,35.0,1,1.0,0.5854999999999109
54,2,0.5,1.0,35.0,1,1.0,0.45799999999997
55,2,0.5,0.125,-35.0,-1,1.0,0.5699999999999363
56,2,0.5,0.0625,-35.0,1,0.0,0.7446999999999662
57,2,0.5,0.125,-35.0,1,0.0,7.239200000000096
58,2,0.5,0.125,35.0,1,1.0,4.329600000000028
59,2,0.5,0.125,35.0,1,1.0,0.49509999999997945
60,2,0.5,1.0,-35.0,-1,1.0,2.294999999999959
61,2,0.5,0.25,35.0,1,1.0,0.7910999999999149
62,2,0.5,0.0625,35.0,1,1.0,0.6128999999999678
63,2,0.5,0.0625,-35.0,1,0.0,0.8424999999999727
64,2,0.5,1.0,-35.0,-1,1.0,7.090000000000032
65,2,0.5,0.125,-35.0,1,0.0,1.2983999999999014
66,2,0.5,0.0,35.0,1,1.0,2.7060999999998785
67,2,0.5,0.0625,-35.0,1,0.0,9.43279999999993
68,2,0.5,1.0,35.0,1,1.0,0.36009999999998854
69,2,0.5,0.0,35.0,1,1.0,8.499500000000012
70,2,0.5,1.0,35.0,1,1.0,0.4248999999999796
71,2,0.5,0.125,35.0,1,1.0,0.7795999999999594
72,2,0.5,0.125,35.0,1,1.0,0.6962999999999511
73,2,0.5,0.0,35.0,1,1.0,11.688999999999965
74,2,0.5,1.0,35.0,1,1.0,0.24630000000001928
75,2,0.5,0.0625,35.0,1,1.0,0.23900000000003274
76,2,0.5,0.25,35.0,1,1.0,0.6480999999999995
77,2,0.5,0.25,35.0,1,1.0,7.053700000000049
78,2,0.5,0.0,-35.0,1,0.0,4.0797000000000025
79,2,0.5,0.25,35.0,1,1.0,0.31599999999991724
80,2,0.5,1.0,35.0,1,1.0,0.3284999999999627
81,2,0.5,0.25,-35.0,-1,1.0,2.304100000000062
82,2,0.5,1.0,-35.0,-1,1.0,0.37630000000001473
83,2,0.5,0.0625,-35.0,1,0.0,8.412599999999884
84,2,0.5,0.0625,35.0,1,1.0,13.663900000000126
85,2,0.5,0.0625,-35.0,1,0.0,8.516399999999976
86,2,0.5,0.0,35.0,1,1.0,6.45920000000001
87,2,0.5,0.0,-35.0,1,0.0,9.67070000000001
88,2,0.5,1.0,35.0,1,1.0,0.3686999999999898
89,2,0.5,1.0,35.0,1,1.0,0.5629999999998745
90,2,0.5,0.125,-35.0,-1,1.0,25.141700000000014
91,2,0.8,1.0,-35.0,1,0.0,0.6991999999999052
92,2,0.8,0.25,-35.0,-1,1.0,0.5265000000000555
93,2,0.8,0.0625,35.0,1,1.0,0.47109999999986485
94,2,0.8,0.0625,-35.0,1,0.0,5.920299999999884
95,2,0.8,0.25,-35.0,1,0.0,16.657699999999977
96,2,0.8,0.25,35.0,1,1.0,0.5002999999999247
97,2,0.8,0.125,-35.0,1,0.0,9.716499999999996
98,2,0.8,0.0625,-35.0,1,0.0,0.5834999999999582
99,2,0.8,0.125,-35.0,1,0.0,0.6710000000000491
100,2,0.8,0.25,-35.0,1,0.0,0.5914000000000215
101,2,0.8,0.25,-35.0,-1,1.0,0.4954999999999927
102,2,0.8,0.25,-35.0,-1,1.0,0.5694999999999482
103,2,0.8,0.25,-35.0,1,0.0,4.999999999999886
104,2,0.8,0.125,-35.0,-1,1.0,0.5037999999998419
105,2,0.8,1.0,-35.0,-1,1.0,0.9180999999999813
106,2,0.8,0.0,-35.0,1,0.0,0.378400000000056
107,2,0.8,0.25,35.0,1,1.0,22.09979999999996
108,2,0.8,0.0625,-35.0,1,0.0,0.6608999999999696
109,2,0.8,0.0,-35.0,1,0.0,10.413299999999936
110,2,0.8,0.25,-35.0,-1,1.0,0.6867999999999483
111,2,0.8,0.25,-35.0,-1,1.0,1.8371999999999389
112,2,0.8,0.25,-35.0,1,0.0,12.583999999999946
113,2,0.8,0.125,35.0,1,1.0,37.94659999999999
114,2,0.8,0.25,-35.0,1,0.0,28.059200000000033
115,2,0.8,0.0625,35.0,1,1.0,0.3230999999998403
116,2,0.8,0.25,-35.0,1,0.0,0.8063999999999396
117,2,0.8,0.25,-35.0,-1,1.0,0.516399999999976
118,2,0.8,0.25,35.0,1,1.0,1.9265000000000327
119,2,0.8,1.0,-35.0,-1,1.0,0.7031999999999243
120,2,0.8,0.125,-35.0,1,0.0,0.41660000000001673
121,2,0.8,0.0625,-35.0,1,0.0,48.48329999999987
122,2,0.8,1.0,-35.0,1,0.0,26.269900000000007
123,2,0.8,0.25,-35.0,1,0.0,0.4979999999998199
124,2,0.8,1.0,-35.0,-1,1.0,24.821299999999837
125,2,0.8,0.0,-35.0,1,0.0,28.061899999999923
126,2,0.8,0.25,35.0,1,1.0,0.3790000000001328
127,2,0.8,0.125,-35.0,1,0.0,0.5458000000000993
128,2,0.8,1.0,-35.0,-1,1.0,0.5024000000000797
129,2,0.8,0.125,-35.0,1,0.0,1.6123999999999796
130,2,0.8,0.25,-35.0,1,0.0,16.202599999999848
131,2,0.8,1.0,35.0,1,1.0,0.3929000000000542
132,2,0.8,0.0625,35.0,1,1.0,1.3729000000000724
133,2,0.8,1.0,-35.0,-1,1.0,0.4795999999998912
134,2,0.8,0.0,-35.0,1,0.0,20.965299999999843
135,2,0.8,0.25,35.0,1,1.0,7.395500000000084
136,2,0.8,1.0,-35.0,-1,1.0,0.7154999999997926
137,2,0.8,0.125,-35.0,1,0.0,0.9156999999997879
138,2,0.8,1.0,35.0,1,1.0,9.648899999999912
139,2,0.8,0.0625,-35.0,1,0.0,0.19889999999986685
140,2,0.8,0.25,35.0,1,1.0,0.32960000000002765
141,2,0.8,1.0,35.0,1,1.0,0.4723999999998796
142,2,0.8,0.25,-35.0,-1,1.0,0.3658999999997832
143,2,0.8,1.0,-35.0,-1,1.0,0.4257999999999811
144,2,0.8,1.0,-35.0,-1,1.0,0.4157000000000153
145,2,0.8,0.0625,-35.0,-1,1.0,6.576099999999769
146,2,0.8,0.0625,-35.0,-1,1.0,0.29969999999980246
147,2,0.8,0.0625,-35.0,-1,1.0,0.9397000000001299
148,2,0.8,0.25,35.0,1,1.0,0.6497999999999138
149,2,0.8,0.0625,-35.0,1,0.0,7.066100000000006
150,2,0.2,0.0,35.0,1,1.0,0.3897999999999229
151,2,0.2,0.25,35.0,1,1.0,0.2839000000001306
152,2,0.2,1.0,35.0,1,1.0,0.3269000000000233
153,2,0.2,0.25,35.0,1,1.0,6.536799999999857
154,2,0.2,0.25,-35.0,1,0.0,0.5833999999997559
155,2,0.2,0.125,35.0,1,1.0,0.5800999999999021
156,2,0.2,0.0625,35.0,1,1.0,0.6001000000001113
157,2,0.2,1.0,35.0,1,1.0,0.4569000000001324
158,2,0.2,1.0,35.0,1,1.0,0.13010000000008404
159,2,0.2,0.25,35.0,1,1.0,0.16689999999994143
160,2,0.2,0.125,35.0,1,1.0,0.2702999999999065
161,2,0.2,0.0625,35.0,1,1.0,0.28369999999995343
162,2,0.2,0.125,35.0,1,1.0,15.234500000000025
163,2,0.2,0.0,35.0,1,1.0,0.5611999999998716
164,2,0.2,0.125,35.0,1,1.0,0.21129999999993743
165,2,0.2,0.25,35.0,1,1.0,0.47430000000008476
166,2,0.2,0.0,35.0,1,1.0,0.48440000000005057
167,2,0.2,0.0625,35.0,1,1.0,8.204299999999876
168,2,0.2,1.0,35.0,1,1.0,0.6382999999998447
169,2,0.2,0.125,35.0,1,1.0,0.3683000000000902
170,2,0.2,0.125,35.0,1,1.0,5.791500000000042
171,2,0.2,0.125,35.0,1,1.0,0.8945999999998548
172,2,0.2,0.0,-35.0,1,0.0,0.3653999999999087
173,2,0.2,1.0,35.0,1,1.0,0.5650000000000546
174,2,0.2,0.25,-35.0,1,0.0,0.5153999999999996
175,2,0.2,0.125,35.0,1,1.0,0.43489999999997053
176,2,0.2,0.125,35.0,1,1.0,17.471699999999828
177,2,0.2,0.0,35.0,1,1.0,2.9026000000001204
178,2,0.2,0.125,35.0,1,1.0,1.1920000000000073
179,2,0.2,0.0625,35.0,1,1.0,0.7755999999999403
180,2,0.2,1.0,-35.0,-1,1.0,0.8520000000000891
181,2,0.2,0.25,35.0,1,1.0,0.30920000000014625
182,2,0.2,0.0625,35.0,1,1.0,7.742100000000164
183,2,0.2,0.0625,-35.0,1,0.0,0.27959999999984575
184,2,0.2,0.0,35.0,1,1.0,4.825799999999845
185,2,0.2,0.25,35.0,1,1.0,0.22929999999973916
186,2,0.2,1.0,-35.0,1,0.0,4.779198999999835
187,2,0.2,0.125,35.0,1,1.0,0.4534000000001015
188,2,0.2,0.125,35.0,1,1.0,5.362699999999904
189,2,0.2,0.0625,35.0,1,1.0,0.26289999999994507
190,2,0.2,0.0625,35.0,1,1.0,3.0760999999999967
191,2,0.2,0.0625,35.0,1,1.0,0.5899000000001706
192,2,0.2,0.0625,35.0,1,1.0,6.323100000000068
193,2,0.2,0.0625,35.0,1,1.0,3.8432000000000244
194,2,0.2,1.0,35.0,1,1.0,0.23320000000012442
195,2,0.2,0.25,35.0,1,1.0,0.15709999999990032
196,2,0.2,1.0,35.0,1,1.0,0.8001999999999043
197,2,0.2,0.0,35.0,1,1.0,0.5937000000001262
198,2,0.2,1.0,35.0,1,1.0,0.28700000000026193
199,2,0.2,1.0,35.0,1,1.0,0.7401999999999589
200,2,0.2,0.0625,35.0,1,1.0,0.5736000000001695
201,2,0.2,0.25,-35.0,-1,1.0,0.7404999999998836
202,2,0.2,0.125,35.0,1,1.0,0.9071999999998752
203,2,0.8,0.125,-35.0,1,0.0,16.87110000000007
204,2,0.8,0.0,-35.0,1,0.0,0.5972999999999047
205,2,0.8,0.25,35.0,1,1.0,10.877399999999852
206,2,0.8,1.0,-35.0,-1,1.0,0.5483999999999014
207,2,0.8,0.125,-35.0,-1,1.0,1.5710999999998876
208,2,0.8,0.125,-35.0,1,0.0,1.0878000000000156
209,2,0.8,0.0625,-35.0,1,0.0,32.27449999999999
210,2,0.8,0.0625,-35.0,1,0.0,25.155099999999948
211,2,0.8,1.0,-35.0,-1,1.0,0.5222999999998592
212,2,0.8,0.0,-35.0,1,0.0,0.5658999999998287
213,2,0.8,0.25,-35.0,1,0.0,22.249000000000024
214,2,0.8,1.0,-35.0,-1,1.0,0.4130999999999858
215,2,0.8,0.0625,35.0,1,1.0,0.9660000000001219
216,2,0.8,0.0625,-35.0,-1,1.0,1.1461000000001604
217,2,0.8,0.0625,-35.0,-1,1.0,0.6096000000000004
218,2,0.8,0.0625,-35.0,1,0.0,3.8197999999999865
219,2,0.8,0.125,-35.0,1,0.0,0.6378999999999451
220,2,0.8,0.25,35.0,1,1.0,0.5380000000000109
221,2,0.8,1.0,-35.0,-1,1.0,0.48480000000017753
222,2,0.8,0.25,-35.0,-1,1.0,0.8014999999998054
223,2,0.8,0.25,35.0,1,1.0,0.4515999999998712
224,2,0.8,1.0,-35.0,-1,1.0,0.6716000000001259
225,2,0.8,0.125,-35.0,1,0.0,1.0248999999998887
226,2,0.8,1.0,-35.0,-1,1.0,0.5048999999999069
227,2,0.8,0.125,-35.0,1,0.0,19.571699999999964
228,2,0.8,0.0,35.0,1,1.0,0.8586999999997715
229,2,0.8,0.0625,35.0,1,1.0,0.3886999999999716
230,2,0.8,0.0,-35.0,1,0.0,0.46879999999987376
231,2,0.8,0.125,-35.0,1,0.0,13.375500000000102
232,2,0.8,0.0625,-35.0,1,0.0,0.9624999999998636
233,2,0.8,0.0625,35.0,1,1.0,15.995899999999892
234,2,0.8,0.125,-35.0,-1,1.0,9.812799999999925
235,2,0.8,1.0,-35.0,-1,1.0,0.5862999999999374
236,2,0.8,0.125,35.0,1,1.0,0.5263999999999669
237,2,0.8,0.125,-35.0,1,0.0,0.6397999999999229
238,2,0.8,1.0,-35.0,-1,1.0,0.9030999999997675
239,2,0.8,1.0,-35.0,-1,1.0,0.6564999999998236
240,2,0.8,0.125,-35.0,1,0.0,13.789899999999989
241,2,0.8,1.0,-35.0,-1,1.0,0.6701000000000477
242,2,0.8,0.0625,-35.0,1,0.0,0.6234999999999218
243,2,0.8,0.0625,-35.0,1,0.0,3.6736000000000786
244,2,0.8,0.25,-35.0,1,0.0,22.99030000000016
245,2,0.8,0.0625,35.0,1,1.0,0.644099999999753
246,2,0.8,0.25,-35.0,1,0.0,2.5174999999999272
247,2,0.8,0.25,-35.0,0,0.0,59.93089999999984
248,2,0.8,0.0,-35.0,1,0.0,0.18519999999989523
249,2,0.8,1.0,-35.0,0,0.0,59.92119999999977
250,2,0.8,0.125,-35.0,1,0.0,0.6320000000000618
251,2,0.8,1.0,-35.0,1,0.0,1.3151999999995496
252,2,0.8,0.25,-35.0,0,0.0,59.92500000000018
253,2,0.8,1.0,-35.0,-1,1.0,10.310800999999628
254,2,0.8,0.25,-35.0,-1,1.0,0.8865010000004077
255,2,0.8,0.125,-35.0,1,0.0,0.5996009999998932
256,2,0.8,1.0,-35.0,-1,1.0,0.7365010000003167
257,2,0.8,1.0,-35.0,-1,1.0,0.4964010000003327
258,2,0.8,0.25,35.0,1,1.0,0.3797010000002956
259,2,0.8,0.125,35.0,1,1.0,0.6935009999997419
260,2,0.8,0.25,-35.0,1,0.0,1.023301000000174
261,2,0.8,0.125,-35.0,1,0.0,0.8198010000000977
262,2,0.8,1.0,35.0,1,1.0,0.396701000000121
263,2,0.8,0.125,-35.0,1,0.0,1.3468010000001414
264,2,0.2,0.25,35.0,1,1.0,0.6469010000000708
265,2,0.2,0.125,35.0,1,1.0,0.45010099999990416
266,2,0.2,0.125,-35.0,1,0.0,11.67370099999971
267,2,0.2,0.125,35.0,1,1.0,0.5203010000000177
268,2,0.2,0.25,35.0,1,1.0,0.37070100000028106
269,2,0.2,1.0,35.0,1,1.0,0.3406009999998787
270,2,0.2,0.25,35.0,1,1.0,1.4878010000002178
271,2,0.2,0.125,35.0,1,1.0,9.203800999999658
272,2,0.2,0.25,35.0,1,1.0,0.4379010000002381
273,2,0.2,1.0,35.0,1,1.0,0.20430099999975937
274,2,0.2,0.25,35.0,1,1.0,0.25120099999958256
275,2,0.2,0.25,35.0,1,1.0,0.6942009999997936
276,2,0.2,1.0,-35.0,1,0.0,21.368000999999822
277,2,0.2,0.0,-35.0,1,0.0,0.5351010000003953
278,2,0.2,0.125,35.0,1,1.0,0.4181010000002061
279,2,0.2,0.0625,35.0,1,1.0,0.5651009999996859
280,2,0.2,0.125,35.0,1,1.0,5.962200999999823
281,2,0.2,0.125,35.0,1,1.0,0.6919010000001435
282,2,0.2,0.0,-35.0,1,0.0,7.222301000000243
283,2,0.2,1.0,35.0,1,1.0,0.5187009999999646
284,2,0.2,0.125,35.0,1,1.0,0.3754010000002381
285,2,0.2,0.0625,35.0,1,1.0,1.2787010000001828
286,2,0.2,0.125,35.0,1,1.0,1.1887009999995826
287,2,0.2,0.0,35.0,1,1.0,3.1523009999996248
288,2,0.2,0.0,35.0,1,1.0,0.5694010000001981
289,2,0.2,0.0625,35.0,1,1.0,0.5525010000001203
290,2,0.2,0.0,35.0,1,1.0,6.508900999999696
291,2,0.2,0.125,35.0,1,1.0,0.5758009999999558
292,2,0.2,0.125,35.0,1,1.0,0.5465010000002621
293,2,0.2,0.0625,35.0,1,1.0,0.4595009999998183
294,2,0.2,0.25,35.0,1,1.0,0.542500999999902
295,2,0.2,0.0,35.0,1,1.0,5.085900999999922
296,2,0.2,1.0,35.0,1,1.0,0.19660099999964586
297,2,0.2,0.125,35.0,1,1.0,9.939601000000039
298,2,0.2,1.0,35.0,1,1.0,0.4530009999998583
299,2,0.2,0.0,35.0,1,1.0,5.299700999999914
300,2,0.2,0.25,35.0,1,1.0,0.35970099999985905
301,2,0.2,0.0,-35.0,1,0.0,6.573800999999548
302,2,0.2,0.25,35.0,1,1.0,0.6899010000001908
303,2,0.2,0.0625,35.0,1,1.0,0.42680100000052335
304,2,0.2,0.25,35.0,1,1.0,0.07380100000000311
305,2,0.2,0.125,35.0,1,1.0,0.5502010000000155
306,2,0.8,0.0625,-35.0,1,0.0,6.083501000000069
307,2,0.8,0.0625,-35.0,1,0.0,0.4371009999999842
308,2,0.8,0.25,-35.0,0,0.0,59.94720099999995
309,2,0.8,0.125,-35.0,1,0.0,0.33140099999991435
310,2,0.8,0.0625,-35.0,1,0.0,38.35640099999955
311,2,0.8,0.125,-35.0,-1,1.0,0.6570009999995818
312,2,0.8,0.125,-35.0,-1,1.0,0.5470009999999093
313,2,0.8,0.25,-35.0,-1,1.0,0.5304009999999835
314,2,0.8,0.0625,-35.0,-1,1.0,0.6538010000003851
315,2,0.8,1.0,-35.0,-1,1.0,0.4073009999997339
316,2,0.8,0.0625,35.0,1,1.0,6.663900999999896
317,2,0.8,1.0,-35.0,1,0.0,3.1307010000000446
318,2,0.8,0.0,35.0,1,1.0,0.65420099999983
319,2,0.8,1.0,-35.0,1,0.0,0.2875010000002476
320,2,0.8,1.0,-35.0,-1,1.0,0.7509009999998852
321,2,0.8,0.0625,-35.0,1,0.0,0.22440099999994345
322,2,0.8,0.125,35.0,1,1.0,0.6012010000004011
323,2,0.8,0.125,35.0,1,1.0,0.7045009999997092
324,2,0.8,0.25,-35.0,1,0.0,0.9413009999998394
325,2,0.8,0.25,-35.0,1,0.0,0.9013009999998758
326,2,0.8,1.0,-35.0,-1,1.0,0.4047009999999318
327,2,0.8,1.0,-35.0,1,0.0,0.7282010000003538
328,2,0.8,0.25,-35.0,1,0.0,0.698200999999699
329,2,0.8,1.0,-35.0,1,0.0,8.854901000000154
330,2,0.8,1.0,-35.0,1,0.0,0.518301000000065
331,2,0.8,0.125,35.0,1,1.0,0.38170099999979357
332,2,0.8,0.25,-35.0,1,0.0,0.6917010000001937
333,2,0.8,0.25,-35.0,1,0.0,0.7118009999999231
334,2,0.8,0.0625,-35.0,1,0.0,0.6385009999999056
335,2,0.8,0.0625,35.0,1,1.0,0.4820009999998547
336,2,0.8,0.0625,-35.0,1,0.0,0.48860100000001694
337,2,0.8,0.0625,-35.0,0,0.0,59.942001000000346
338,2,0.8,0.0625,35.0,1,1.0,0.24300099999982194
339,2,0.8,0.25,-35.0,-1,1.0,0.6651009999995949
340,2,0.2,0.0625,35.0,1,1.0,0.42170100000021193
341,2,0.2,0.125,35.0,1,1.0,1.148501000000124
342,2,0.2,0.25,35.0,1,1.0,0.2823009999997339
343,2,0.2,0.125,35.0,1,1.0,0.5058009999997921
344,2,0.2,0.125,35.0,1,1.0,0.6401010000004135
345,2,0.2,1.0,-35.0,1,0.0,0.45340100000021266
346,2,0.2,1.0,35.0,1,1.0,0.4434009999999944
347,2,0.2,0.0625,35.0,1,1.0,7.366800999999668
348,2,0.2,0.25,35.0,1,1.0,0.5070009999999456
349,2,0.2,0.125,-35.0,1,0.0,0.5703010000001996
350,2,0.2,0.0625,35.0,1,1.0,0.47040100000003804
351,2,0.2,0.25,35.0,1,1.0,0.4238010000003669
352,2,0.2,0.125,35.0,1,1.0,3.577201000000059
353,2,0.2,1.0,-35.0,1,0.0,0.6540010000003349
354,2,0.2,0.0,-35.0,1,0.0,0.3074010000000271
355,2,0.2,1.0,35.0,1,1.0,0.344101000000137
356,2,0.2,0.0625,35.0,1,1.0,6.150900999999976
357,2,0.2,0.125,35.0,1,1.0,0.4409009999999398
358,2,0.2,0.125,35.0,1,1.0,0.7677010000002156
359,2,0.2,1.0,35.0,1,1.0,0.7943009999999049
360,2,0.2,0.0,35.0,1,1.0,0.4777009999997972
361,2,0.2,0.0,35.0,1,1.0,0.40780099999983577
362,2,0.2,0.0,35.0,1,1.0,4.0611009999997805
363,2,0.2,0.25,-35.0,-1,1.0,0.7979010000003655
364,2,0.2,0.125,35.0,1,1.0,0.8512010000004011
365,2,0.2,0.25,35.0,1,1.0,3.491400999999769
366,2,0.2,1.0,35.0,1,1.0,0.35150100000009843
367,2,0.2,0.125,35.0,1,1.0,0.4415009999997892
368,2,0.2,0.0,35.0,1,1.0,5.560201000000234
369,2,0.2,0.125,35.0,1,1.0,16.124201000000085
370,2,0.2,0.25,35.0,1,1.0,3.287300999999843
371,2,0.2,0.25,35.0,1,1.0,0.7139010000000781
372,2,0.2,0.0625,35.0,1,1.0,5.324100000000271
373,2,0.2,0.25,-35.0,1,0.0,0.5742009999999027
374,2,0.8,0.0625,-35.0,1,0.0,1.1424010000000635
375,2,0.8,1.0,-35.0,1,0.0,32.65900099999999
376,2,0.8,0.0625,-35.0,1,0.0,0.5864010000000235
377,2,0.8,0.125,-35.0,-1,1.0,20.296301000000312
378,2,0.8,1.0,-35.0,-1,1.0,0.3968009999998685
379,2,0.8,0.0625,-35.0,-1,1.0,1.1301010000001952
380,2,0.8,1.0,-35.0,-1,1.0,0.5235010000001239
381,2,0.8,1.0,-35.0,-1,1.0,0.5137010000003102
382,2,0.8,0.25,-35.0,1,0.0,1.5169009999999616
383,2,0.8,0.0625,-35.0,1,0.0,3.930300999999872
384,2,0.8,0.125,-35.0,-1,1.0,0.5305010000001857
385,2,0.8,0.0,-35.0,1,0.0,1.2005009999998038
386,2,0.8,1.0,-35.0,-1,1.0,0.6973009999996975
387,2,0.8,0.25,35.0,1,1.0,25.780701000000136
388,2,0.8,0.0625,35.0,1,1.0,0.5479010000003655
389,2,0.8,0.0,-35.0,1,0.0,2.1778009999998176
390,2,0.8,0.0625,-35.0,-1,1.0,0.5814009999999143
391,2,0.8,0.125,-35.0,1,0.0,5.328000999999858
392,2,0.8,0.0625,35.0,1,1.0,0.5414009999999507
393,2,0.8,1.0,-35.0,-1,1.0,0.5215010000001712
394,2,0.8,0.0,-35.0,1,0.0,0.7484010000002854
395,2,0.8,0.25,-35.0,0,0.0,59.944900999999845
396,2,0.8,0.125,-35.0,1,0.0,7.205201000000216
397,2,0.8,1.0,-35.0,1,0.0,10.27000100000032
398,2,0.8,0.25,-35.0,-1,1.0,0.6669009999995978
1,3,0.5,0.0,35.0,-1,0.0,0.10829999999999973
2,3,0.5,0.25,35.0,1,1.0,0.2292999999999994
3,3,0.5,1.0,35.0,1,1.0,0.21530000000000094
4,3,0.5,0.0625,35.0,1,1.0,0.16690000000000182
5,3,0.5,0.125,-35.0,-1,1.0,2.1301000000000023
6,3,0.5,0.0625,-35.0,1,0.0,0.11289999999999978
7,3,0.5,0.125,35.0,1,1.0,0.2774000000000001
8,3,0.5,0.0625,35.0,1,1.0,0.23939999999999984
9,3,0.5,0.25,-35.0,-1,1.0,1.6891990000000021
10,3,0.5,0.25,-35.0,-1,1.0,0.19380000000000308
11,3,0.5,1.0,35.0,1,1.0,0.24810000000000088
12,3,0.5,0.0625,-35.0,-1,1.0,0.16630000000000678
13,3,0.5,0.0625,35.0,1,1.0,0.3762000000000043
14,3,0.5,0.25,35.0,1,1.0,0.28229999999999933
15,3,0.5,0.125,-35.0,-1,1.0,0.07059999999999889
16,3,0.5,1.0,-35.0,-1,1.0,0.19659999999999656
17,3,0.5,0.25,35.0,-1,0.0,1.1863000000000028
18,3,0.5,0.0625,-35.0,-1,1.0,0.1588999999999956
19,3,0.5,0.125,-35.0,-1,1.0,0.24139999999999873
20,3,0.5,1.0,35.0,1,1.0,0.3716999999999757
21,3,0.5,1.0,-35.0,-1,1.0,0.3470999999999975
22,3,0.5,0.0,-35.0,-1,1.0,3.0675999999999988
23,3,0.5,0.25,-35.0,-1,1.0,2.3536999999999892
24,3,0.5,1.0,-35.0,-1,1.0,1.6289000000000016
25,3,0.5,0.0,35.0,-1,0.0,3.0283000000000015
26,3,0.5,0.25,35.0,1,1.0,0.28069999999999595
27,3,0.5,0.125,-35.0,-1,1.0,7.2714
28,3,0.5,1.0,-35.0,-1,1.0,0.22419999999998197
29,3,0.5,0.0625,-35.0,-1,1.0,3.4139999999999873
30,3,0.5,0.25,35.0,1,1.0,0.1922999999999888
31,3,0.5,0.25,-35.0,-1,1.0,0.2494000000000085
32,3,0.5,1.0,-35.0,-1,1.0,0.1582000000000221
33,3,0.5,1.0,-35.0,-1,1.0,1.9957000000000278
34,3,0.5,0.125,-35.0,-1,1.0,5.161800000000028
35,3,0.5,0.0625,35.0,-1,0.0,0.20410000000001105
36,3,0.5,1.0,35.0,1,1.0,0.25669999999999504
37,3,0.5,0.25,-35.0,-1,1.0,0.5464000000000055
38,3,0.5,0.0625,-35.0,-1,1.0,3.865000000000009
39,3,0.5,1.0,-35.0,-1,1.0,0.169399999999996
40,3,0.5,0.125,-35.0,-1,1.0,2.159400000000005
41,3,0.5,1.0,-35.0,-1,1.0,0.2009000000000185
42,3,0.5,1.0,35.0,-1,0.0,1.9085000000000036
43,3,0.5,1.0,35.0,1,1.0,0.23450000000002547
44,3,0.5,0.125,35.0,1,1.0,0.3428000000000395
45,3,0.5,0.25,35.0,1,1.0,0.35489999999998645
46,3,0.5,1.0,35.0,1,1.0,0.38060000000001537
47,3,0.5,0.125,35.0,1,1.0,3.92349999999999
48,3,0.5,0.25,-35.0,-1,1.0,0.2372000000000014
49,3,0.5,0.0,-35.0,-1,1.0,2.302099999999996
50,3,0.5,1.0,35.0,1,1.0,0.317799999999977
51,3,0.5,0.125,-35.0,1,0.0,1.5490000000000066
52,3,0.5,0.0625,-35.0,1,0.0,0.4270999999999958
53,3,0.5,0.125,35.0,1,1.0,0.29580000000001405
54,3,0.5,0.25,35.0,1,1.0,0.24869999999998527
55,3,0.5,1.0,-35.0,-1,1.0,0.20830000000000837
56,3,0.5,1.0,35.0,-1,0.0,3.1851000000000056
57,3,0.5,1.0,-35.0,-1,1.0,0.18469999999999231
58,3,0.5,0.25,-35.0,1,0.0,0.7630000000000052
59,3,0.5,0.25,-35.0,-1,1.0,0.23680000000001655
60,3,0.5,0.125,35.0,-1,0.0,1.9467000000000212
61,3,0.5,0.125,35.0,-1,0.0,0.15579999999999927
62,3,0.5,0.0,-35.0,1,0.0,0.9629000000000474
63,3,0.5,0.125,35.0,1,1.0,0.254600000000039
64,3,0.5,0.0,-35.0,-1,1.0,0.24689999999998236
65,3,0.5,0.0,-35.0,1,0.0,2.6643000000000256
66,3,0.5,0.25,-35.0,-1,1.0,0.13889999999997826
67,3,0.5,1.0,-35.0,-1,1.0,0.26200000000000045
68,3,0.5,0.0625,-35.0,-1,1.0,0.8489000000000146
69,3,0.5,1.0,-35.0,-1,1.0,0.21289999999999054
70,3,0.5,0.0625,35.0,-1,0.0,3.206899999999962
71,3,0.5,0.25,35.0,1,1.0,0.28230000000002065
72,3,0.5,1.0,-35.0,-1,1.0,0.190099000000032
73,3,0.5,0.125,-35.0,-1,1.0,1.6842000000000326
74,3,0.5,1.0,35.0,1,1.0,-0.03100000000000591
75,3,0.5,1.0,35.0,1,1.0,0.2669999999999959
76,3,0.5,0.125,-35.0,-1,1.0,0.28350000000000364
77,3,0.5,0.0,35.0,1,1.0,0.5260000000000105
78,3,0.5,0.0625,35.0,1,1.0,0.029300000000034743
79,3,0.5,0.0625,-35.0,1,0.0,0.14730000000002974
80,3,0.5,0.0625,35.0,1,1.0,1.9721000000000117
81,3,0.5,0.125,-35.0,-1,1.0,0.2561000000000604
82,3,0.5,1.0,-35.0,-1,1.0,0.13749999999998863
83,3,0.5,0.125,-35.0,1,0.0,0.6792999999999552
84,3,0.5,0.125,-35.0,-1,1.0,0.11610000000001719
85,3,0.5,0.25,-35.0,-1,1.0,0.18240000000002965
86,3,0.5,0.25,-35.0,-1,1.0,0.2644000000000233
87,3,0.5,0.125,35.0,-1,0.0,2.4411999999999807
88,3,0.5,0.25,-35.0,-1,1.0,0.14979999999997062
89,3,0.5,1.0,-35.0,-1,1.0,0.17610000000001946
90,3,0.5,1.0,35.0,1,1.0,0.3532999999999902
91,3,0.2,1.0,35.0,1,1.0,0.24660000000005766
92,3,0.2,0.25,35.0,1,1.0,0.26689999999996417
93,3,0.2,1.0,35.0,1,1.0,0.3756999999999948
94,3,0.2,1.0,35.0,1,1.0,0.3346000000000231
95,3,0.2,1.0,35.0,1,1.0,0.31939900000003263
96,3,0.2,0.25,35.0,1,1.0,0.5384000000000242
97,3,0.2,0.0,-35.0,1,0.0,2.4784989999999993
98,3,0.2,0.25,35.0,1,1.0,0.18399999999996908
99,3,0.2,1.0,35.0,1,1.0,0.25849999999996953
100,3,0.2,0.0625,35.0,1,1.0,0.7394989999999666
101,3,0.2,0.25,35.0,1,1.0,0.7183999999999742
102,3,0.2,1.0,35.0,1,1.0,0.2196999999999889
103,3,0.2,1.0,35.0,1,1.0,0.23270000000002256
104,3,0.2,0.0625,35.0,1,1.0,3.8164990000000216
105,3,0.2,0.25,35.0,1,1.0,0.4935999999999581
106,3,0.2,1.0,-35.0,-1,1.0,0.18980000000004793
107,3,0.2,1.0,35.0,1,1.0,0.2096000000000231
108,3,0.2,1.0,35.0,1,1.0,0.5635000000000332
109,3,0.2,0.25,35.0,1,1.0,0.47260000000005675
110,3,0.2,0.0625,35.0,1,1.0,4.48580000000004
111,3,0.2,0.25,-35.0,-1,1.0,0.21760000000000446
112,3,0.2,1.0,35.0,1,1.0,0.23330000000004247
113,3,0.2,0.125,35.0,1,1.0,1.0050000000000523
114,3,0.2,0.125,-35.0,-1,1.0,0.22280000000000655
115,3,0.2,0.125,35.0,1,1.0,0.4697999999999638
116,3,0.2,0.0,35.0,1,1.0,5.348699999999951
117,3,0.2,0.0625,35.0,1,1.0,0.9728000000000065
118,3,0.2,0.25,35.0,1,1.0,0.48379899999997633
119,3,0.2,0.0625,-35.0,1,0.0,0.698599999999999
120,3,0.8,0.0625,-35.0,1,0.0,4.600900000000024
121,3,0.8,0.0,35.0,-1,0.0,0.2880000000000109
122,3,0.8,0.125,-35.0,-1,1.0,0.2119000000000142
123,3,0.8,1.0,-35.0,-1,1.0,0.20089999999993324
124,3,0.8,0.25,35.0,1,1.0,0.32120000000008986
125,3,0.8,0.0,35.0,1,1.0,4.889600000000087
126,3,0.8,0.0,-35.0,1,0.0,0.5059989999999743
127,3,0.8,0.125,35.0,1,1.0,0.7047000000000025
128,3,0.8,1.0,-35.0,-1,1.0,0.23260000000004766
129,3,0.8,0.0625,-35.0,1,0.0,4.042600000000107
130,3,0.8,0.25,35.0,1,1.0,0.24220000000002528
131,3,0.8,1.0,-35.0,-1,1.0,0.1935000000000855
132,3,0.8,1.0,-35.0,-1,1.0,0.16560000000004038
133,3,0.8,0.0625,-35.0,-1,1.0,0.1070999999999458
134,3,0.8,0.0625,-35.0,-1,1.0,0.19910000000004402
135,3,0.8,0.0625,-35.0,-1,1.0,0.165300000000002
136,3,0.8,0.125,-35.0,-1,1.0,0.19909999999993033
137,3,0.8,0.125,-35.0,-1,1.0,0.2239000000000715
138,3,0.8,0.25,-35.0,-1,1.0,0.22830000000010386
139,3,0.8,0.0625,-35.0,-1,1.0,0.19239999999990687
140,3,0.8,0.25,-35.0,-1,1.0,0.41649900000004436
141,3,0.8,0.0625,-35.0,-1,1.0,0.1372000000000071
142,3,0.8,0.0625,-35.0,-1,1.0,0.19420000000013715
143,3,0.8,0.0,-35.0,-1,1.0,0.13019999999994525
144,3,0.8,0.25,35.0,1,1.0,0.6693000000000211
145,3,0.8,0.0,-35.0,1,0.0,2.8243000000001075
146,3,0.8,0.0,-35.0,-1,1.0,0.15440000000000964
147,3,0.8,0.0625,-35.0,-1,1.0,0.1856000000000222
148,3,0.8,0.0,-35.0,-1,1.0,0.17029999999999745
149,3,0.8,0.125,-35.0,-1,1.0,0.1854999999999336
150,3,0.8,0.0625,35.0,1,1.0,0.4251000000000431
151,3,0.8,0.0,-35.0,1,0.0,0.5559000000000651
152,3,0.8,0.0,-35.0,1,0.0,3.1276000000000295
153,3,0.8,0.25,35.0,-1,0.0,0.169399999999996
154,3,0.8,0.0,-35.0,1,0.0,2.752499999999941
155,3,0.8,0.25,-35.0,-1,1.0,0.18040000000007694
156,3,0.8,0.25,-35.0,-1,1.0,0.1934999999999718
157,3,0.8,0.0625,-35.0,-1,1.0,0.2115000000000009
158,3,0.8,1.0,-35.0,-1,1.0,0.17449999999996635
159,3,0.8,0.0,-35.0,-1,1.0,0.14150000000006457
160,3,0.8,0.0625,-35.0,-1,1.0,18.74350000000004
161,3,0.8,0.0,-35.0,-1,1.0,0.19490000000007512
162,3,0.8,1.0,-35.0,-1,1.0,0.16570000000001528
163,3,0.8,1.0,35.0,1,1.0,0.42679899999995996
164,3,0.8,0.0625,-35.0,-1,1.0,0.15570000000002437
165,3,0.8,0.25,-35.0,-1,1.0,0.13809999999989486
166,3,0.8,0.0625,-35.0,-1,1.0,0.04320000000006985
167,3,0.8,0.0625,-35.0,-1,1.0,0.19429999999999836
168,3,0.8,0.25,-35.0,-1,1.0,0.21800000000007458
169,3,0.8,0.125,-35.0,-1,1.0,0.26040000000011787
170,3,0.8,0.25,-35.0,-1,1.0,0.17870000000004893
171,3,0.8,1.0,-35.0,-1,1.0,0.16069999999990614
172,3,0.8,0.25,35.0,1,1.0,0.4276999999999589
173,3,0.8,0.0,35.0,-1,0.0,0.22680000000002565
174,3,0.8,1.0,-35.0,-1,1.0,0.16879999999991924
175,3,0.8,0.125,35.0,-1,0.0,0.20269999999993615
176,3,0.8,0.0,35.0,1,1.0,0.27299999999991087
177,3,0.8,1.0,-35.0,-1,1.0,0.1753999999999678
178,3,0.8,1.0,-35.0,-1,1.0,0.177599999999984
179,3,0.8,0.125,-35.0,-1,1.0,0.2399000000000342
180,3,0.8,0.25,35.0,1,1.0,0.5930000000000746
181,3,0.8,0.25,-35.0,-1,1.0,0.06399999999996453
182,3,0.8,0.25,-35.0,-1,1.0,0.18880000000001473
183,3,0.8,0.0,35.0,1,1.0,1.7468000000000075
184,3,0.8,1.0,35.0,1,1.0,0.16430000000002565
185,3,0.8,0.0,-35.0,-1,1.0,0.21739999999988413
186,3,0.8,0.125,35.0,1,1.0,3.3733000000000857
187,3,0.8,0.0625,35.0,-1,0.0,0.18439900000009857
188,3,0.8,0.0,-35.0,1,0.0,0.28110000000003765
189,3,0.8,0.0625,-35.0,-1,1.0,0.2340000000000373
190,3,0.8,1.0,-35.0,-1,1.0,0.17860000000007403
191,3,0.8,0.0625,-35.0,-1,1.0,0.23950000000002092
192,3,0.8,0.25,-35.0,-1,1.0,0.17010000000004766
193,3,0.8,0.25,35.0,1,1.0,0.41419999999993706
194,3,0.8,1.0,-35.0,-1,1.0,0.18660000000011223
195,3,0.8,0.0625,-35.0,-1,1.0,0.21410000000003038
196,3,0.8,0.25,-35.0,-1,1.0,0.17980000000000018
197,3,0.8,0.125,35.0,1,1.0,0.669399999999996
198,3,0.8,0.25,-35.0,-1,1.0,0.2821999999999889
199,3,0.8,0.0,-35.0,1,0.0,4.360699999999952
200,3,0.8,0.0,-35.0,-1,1.0,0.13739899999995941
201,3,0.8,0.25,-35.0,-1,1.0,0.19539899999995214
202,3,0.8,0.25,-35.0,-1,1.0,0.19040000000006785
203,3,0.8,0.0625,-35.0,-1,1.0,2.0027000000000044
204,3,0.8,1.0,-35.0,-1,1.0,0.16360000000008768
205,3,0.8,1.0,-35.0,-1,1.0,0.14629999999999654
206,3,0.8,1.0,-35.0,-1,1.0,0.17849999999998545
207,3,0.8,0.0625,-35.0,-1,1.0,0.15869900000006965
208,3,0.8,0.25,-35.0,-1,1.0,0.17079999999998563
209,3,0.8,0.0,-35.0,-1,1.0,0.1710000000000491
210,3,0.8,1.0,-35.0,-1,1.0,0.1896000000000413
211,3,0.8,0.0625,-35.0,-1,1.0,0.18010000000003856
212,3,0.2,0.0625,35.0,-1,0.0,0.16049899999995887
213,3,0.2,0.25,35.0,-1,0.0,0.12850000000003092
214,3,0.2,0.0625,35.0,1,1.0,0.28490000000010696
215,3,0.2,1.0,35.0,1,1.0,0.20109999999999673
216,3,0.2,0.0625,35.0,1,1.0,0.38960000000008677
217,3,0.2,0.0,35.0,1,1.0,0.36169999999992797
