trial_num,session_num,stim_probability_left,contrast,position,response_choice,trial_correct,reaction_time
1,23,0.5,0.125,35.0,-1,0.0,1.3789
2,23,0.5,0.25,-35.0,-1,1.0,0.3336009999999989
3,23,0.5,0.0,35.0,-1,0.0,0.8669000000000011
4,23,0.5,0.0625,35.0,-1,0.0,0.483901000000003
5,23,0.6,0.0625,35.0,-1,0.0,0.25049999999999883
6,23,0.5,1.0,35.0,1,1.0,0.3606010000000026
7,23,0.5,0.25,35.0,1,1.0,0.48629999999999995
8,23,0.5,0.0625,-35.0,1,0.0,1.6227009999999922
9,23,0.5,0.0,35.0,1,1.0,7.369399999999992
10,23,0.5,0.0,-35.0,1,0.0,2.3887999999999963
11,23,0.5,0.0,-35.0,-1,1.0,0.37540099999999654
12,23,0.5,1.0,-35.0,-1,1.0,0.3683009999999953
13,23,0.5,0.25,-35.0,-1,1.0,0.3696999999999946
14,23,0.5,0.0625,35.0,1,1.0,3.1489010000000093
15,23,0.5,0.125,35.0,1,1.0,0.8517000000000081
16,23,0.5,0.125,35.0,1,1.0,0.5143999999999949
17,23,0.5,1.0,-35.0,-1,1.0,0.29840099999999836
18,23,0.5,1.0,35.0,1,1.0,0.3825999999999965
19,23,0.5,0.0625,-35.0,1,0.0,3.128900999999999
20,23,0.5,0.0625,35.0,-1,0.0,0.2685999999999922
21,23,0.5,0.25,35.0,1,1.0,0.36150099999998986
22,23,0.5,0.25,-35.0,-1,1.0,0.3706009999999935
23,23,0.5,1.0,35.0,1,1.0,0.5567999999999955
24,23,0.5,0.25,-35.0,-1,1.0,0.6871000000000151
25,23,0.5,0.25,-35.0,-1,1.0,0.48559999999999093
26,23,0.5,0.0625,35.0,1,1.0,2.927199999999999
27,23,0.5,0.0625,35.0,1,1.0,0.4472999999999985
28,23,0.5,0.0625,35.0,1,1.0,0.3622009999999847
29,23,0.5,0.0625,35.0,1,1.0,0.42450100000000646
30,23,0.5,0.0,35.0,1,1.0,0.28770099999999843
31,23,0.5,0.25,35.0,1,1.0,0.31630000000001246
32,23,0.5,0.0,35.0,1,1.0,0.4591000000000065
33,23,0.5,0.125,35.0,1,1.0,0.4289010000000246
34,23,0.5,0.125,35.0,1,1.0,0.2682010000000048
35,23,0.5,0.125,-35.0,1,0.0,0.34600000000003206
36,23,0.5,0.0625,-35.0,-1,1.0,0.26539999999999964
37,23,0.5,0.0625,35.0,1,1.0,0.253501
38,23,0.5,0.125,35.0,1,1.0,0.502301000000017
39,23,0.5,0.25,35.0,1,1.0,0.3898010000000056
40,23,0.5,0.0625,-35.0,1,0.0,0.3721999999999923
41,23,0.5,0.25,35.0,-1,0.0,1.2088010000000224
42,23,0.5,0.0,-35.0,-1,1.0,3.0183000000000106
43,23,0.5,1.0,35.0,1,1.0,0.26019999999999754
44,23,0.5,0.0625,35.0,1,1.0,0.6794000000000437
45,23,0.5,0.125,-35.0,1,0.0,3.270099999999985
46,23,0.7,0.125,-35.0,1,0.0,0.20410000000003947
47,23,0.5,1.0,-35.0,-1,1.0,0.30300100000002317
48,23,0.5,1.0,35.0,1,1.0,0.6126010000000122
49,23,0.5,0.125,-35.0,-1,1.0,0.5716010000000153
50,23,0.5,0.0,-35.0,1,0.0,10.995400000000018
51,23,0.5,0.25,35.0,1,1.0,0.5334009999999978
52,23,0.5,0.125,-35.0,-1,1.0,0.49160100000000284
53,23,0.5,0.0,-35.0,1,0.0,0.34080000000000155
54,23,0.7,0.0,-35.0,-1,1.0,0.24260000000001014
55,23,0.5,1.0,-35.0,-1,1.0,0.8204000000000349
56,23,0.5,0.25,35.0,1,1.0,3.1169999999999902
57,23,0.5,0.0,-35.0,1,0.0,1.581200000000024
58,23,0.5,0.125,35.0,-1,0.0,0.2644999999999982
59,23,0.5,0.0,35.0,1,1.0,0.4333010000000286
60,23,0.5,1.0,-35.0,-1,1.0,0.4241010000000074
61,23,0.5,0.0625,-35.0,1,0.0,2.647699999999986
62,23,0.5,0.0625,-35.0,-1,1.0,0.22060100000004468
63,23,0.5,0.0625,35.0,1,1.0,0.8004999999999995
64,23,0.5,0.0625,-35.0,1,0.0,0.22970099999997728
65,23,0.5,0.25,-35.0,-1,1.0,0.21880100000004177
66,23,0.5,0.125,-35.0,-1,1.0,0.26780100000001994
67,23,0.5,0.125,-35.0,-1,1.0,0.2624010000000112
68,23,0.5,0.0,-35.0,-1,1.0,4.080101000000013
69,23,0.5,0.0,35.0,-1,0.0,0.585200000000043
70,23,0.5,0.25,35.0,1,1.0,0.1679009999999721
71,23,0.5,1.0,35.0,1,1.0,2.1562999999999874
72,23,0.5,0.125,35.0,1,1.0,0.47090000000002874
73,23,0.5,0.25,-35.0,-1,1.0,0.21250100000003158
74,23,0.5,0.0625,35.0,1,1.0,0.4536000000000513
75,23,0.5,0.0625,35.0,1,1.0,4.173000000000002
76,23,0.5,0.25,-35.0,-1,1.0,0.43360000000001264
77,23,0.5,1.0,35.0,1,1.0,0.2974009999999794
78,23,0.5,0.25,-35.0,-1,1.0,0.28469999999998663
79,23,0.5,0.25,-35.0,-1,1.0,0.417301000000009
80,23,0.5,0.25,-35.0,1,0.0,0.15050099999996291
81,23,0.5,0.0,35.0,-1,0.0,1.131400000000042
82,23,0.5,0.0,-35.0,-1,1.0,0.37290000000001555
83,23,0.5,1.0,35.0,1,1.0,0.2558999999999969
84,23,0.5,1.0,35.0,1,1.0,1.4206010000000333
85,23,0.5,0.125,35.0,1,1.0,0.5955999999999904
86,23,0.5,0.25,-35.0,-1,1.0,0.29810000000003356
87,23,0.5,0.0,-35.0,-1,1.0,5.743200000000002
88,23,0.5,0.125,35.0,1,1.0,0.31520000000000437
89,23,0.5,0.25,35.0,1,1.0,0.2990010000000325
90,23,0.5,0.0,35.0,1,1.0,5.7003010000000245
91,23,0.5,0.25,35.0,1,1.0,0.32660000000004175
92,23,0.5,0.0625,35.0,1,1.0,0.6711999999999989
93,23,0.5,0.125,35.0,1,1.0,4.823100000000011
94,23,0.5,0.0625,35.0,1,1.0,1.0232000000000312
95,23,0.5,0.0,-35.0,1,0.0,2.346299999999985
96,23,0.5,0.125,-35.0,1,0.0,0.17950099999995928
97,23,0.5,0.125,-35.0,-1,1.0,0.25729999999998654
98,23,0.5,0.0625,35.0,1,1.0,1.280300000000011
99,23,0.5,0.0,35.0,-1,0.0,0.5738000000000056
100,23,0.5,0.0625,-35.0,1,0.0,0.575001000000043
101,23,0.5,0.125,-35.0,-1,1.0,0.26149999999995543
102,23,0.5,0.0625,35.0,-1,0.0,0.2744010000000685
103,23,0.5,0.25,-35.0,-1,1.0,0.2569000000000301
104,23,0.5,0.125,-35.0,-1,1.0,0.28010000000000446
105,23,0.5,0.0,-35.0,1,0.0,0.42549999999999955
106,23,0.5,0.0625,35.0,-1,0.0,0.4373000000000502
107,23,0.3,0.0625,35.0,1,1.0,3.3582999999999856
108,23,0.5,1.0,35.0,1,1.0,0.5344010000000594
109,23,0.5,0.25,-35.0,-1,1.0,0.3768000000000029
110,23,0.5,0.25,35.0,1,1.0,0.32720100000005914
111,23,0.5,0.25,-35.0,-1,1.0,0.5889000000000237
112,23,0.5,0.125,-35.0,-1,1.0,0.4195010000000252
113,23,0.5,0.0,35.0,1,1.0,0.5165000000000077
114,23,0.5,1.0,35.0,1,1.0,0.3192000000000803
115,23,0.5,1.0,-35.0,-1,1.0,1.3246000000000322
116,23,0.5,1.0,-35.0,-1,1.0,0.2894000000000574
117,23,0.5,0.0,35.0,1,1.0,0.37140099999999165
118,23,0.5,0.0625,35.0,1,1.0,0.33560099999999693
119,23,0.5,1.0,35.0,1,1.0,0.2968000000000188
120,23,0.5,1.0,35.0,1,1.0,0.3405010000000175
121,23,0.5,0.0625,35.0,-1,0.0,1.1406000000000631
122,23,0.5,0.0,35.0,1,1.0,0.25559999999984484
123,23,0.5,0.0625,35.0,1,1.0,0.31359999999995125
124,23,0.5,0.125,-35.0,1,0.0,0.2815009999999347
125,23,0.5,0.25,35.0,1,1.0,0.2841999999999416
126,23,0.5,0.0,-35.0,1,0.0,0.3211999999998625
127,23,0.9,0.0,-35.0,1,0.0,0.2599999999998772
128,23,0.5,1.0,-35.0,-1,1.0,0.255600999999956
129,23,0.5,0.125,35.0,1,1.0,0.4195999999999458
130,23,0.5,1.0,35.0,1,1.0,0.3693009999998367
131,23,0.5,0.25,-35.0,-1,1.0,0.5652999999999793
132,23,0.5,1.0,-35.0,-1,1.0,0.2945009999998547
133,23,0.5,0.0625,-35.0,1,0.0,0.359299999999962
134,23,0.5,0.0,-35.0,-1,1.0,0.2578999999998359
135,23,0.5,1.0,-35.0,-1,1.0,0.28579999999988104
136,23,0.5,0.0625,35.0,1,1.0,0.4130010000000084
137,23,0.5,1.0,35.0,1,1.0,0.23929999999995744
138,23,0.5,1.0,35.0,1,1.0,0.2500009999999975
139,23,0.5,0.0625,35.0,1,1.0,0.37979999999993197
140,23,0.5,0.0,-35.0,1,0.0,0.3524009999998725
141,23,0.6,0.0,-35.0,-1,1.0,0.30080099999997856
142,23,0.5,1.0,35.0,1,1.0,0.25929999999993925
143,23,0.5,0.125,-35.0,-1,1.0,0.2957009999998945
144,23,0.5,0.125,-35.0,-1,1.0,0.48490000000003874
145,23,0.5,0.0,35.0,1,1.0,0.4246009999999387
146,23,0.5,0.125,35.0,1,1.0,0.380800000000022
147,23,0.5,0.25,-35.0,-1,1.0,0.29179999999996653
148,23,0.5,0.125,35.0,1,1.0,0.5280999999999949
149,23,0.5,0.0625,-35.0,1,0.0,0.4188009999999167
150,23,0.6,0.0625,35.0,1,1.0,0.3074010000000271
151,23,0.5,1.0,-35.0,-1,1.0,0.2618999999999687
152,23,0.5,0.125,-35.0,-1,1.0,0.48319999999989705
153,23,0.5,0.0625,35.0,1,1.0,0.3488999999999578
154,23,0.5,0.25,-35.0,-1,1.0,0.4962999999999056
155,23,0.5,1.0,-35.0,-1,1.0,0.35190000000000055
156,23,0.5,0.0625,35.0,1,1.0,0.33989999999982956
157,23,0.5,0.125,35.0,1,1.0,0.36500100000000657
158,23,0.5,0.0,-35.0,1,0.0,0.12980099999992945
159,23,0.5,0.25,-35.0,-1,1.0,0.27119999999990796
160,23,0.5,0.0,35.0,1,1.0,0.7332009999998945
161,23,0.5,1.0,35.0,1,1.0,0.3826009999999087
162,23,0.5,0.25,35.0,1,1.0,0.33740099999999984
163,23,0.5,1.0,-35.0,-1,1.0,0.3529999999999518
164,23,0.5,0.0,-35.0,-1,1.0,0.358400999999958
165,23,0.5,0.125,35.0,1,1.0,0.24930000000006203
166,23,0.5,0.125,35.0,1,1.0,0.33500099999992017
167,23,0.5,1.0,-35.0,-1,1.0,0.25530000000003383
168,23,0.5,0.125,-35.0,-1,1.0,0.35960099999999784
169,23,0.5,0.0625,35.0,1,1.0,0.259001000000012
170,23,0.5,0.125,35.0,1,1.0,0.5488009999999122
171,23,0.5,0.0,-35.0,-1,1.0,0.28720099999998183
172,23,0.5,0.25,35.0,1,1.0,0.32389999999998054
173,23,0.5,0.125,35.0,1,1.0,0.28919999999993706
174,23,0.5,0.25,35.0,1,1.0,0.3611009999998487
175,23,0.5,0.125,35.0,1,1.0,0.2922999999999547
176,23,0.5,1.0,-35.0,-1,1.0,0.2537009999998645
177,23,0.5,0.0625,35.0,1,1.0,0.2823009999999613
178,23,0.5,1.0,35.0,1,1.0,0.4053999999998723
179,23,0.5,0.0625,35.0,1,1.0,0.4253009999998767
180,23,0.5,1.0,35.0,1,1.0,0.4636009999998123
181,23,0.5,0.0625,-35.0,1,0.0,4.715500999999904
182,23,0.5,0.25,35.0,1,1.0,0.28660099999990507
183,23,0.5,1.0,-35.0,1,0.0,0.26279999999997017
184,23,0.5,0.125,-35.0,-1,1.0,0.2741000000000895
185,23,0.5,0.0625,-35.0,-1,1.0,0.41840000000001965
186,23,0.5,0.0,35.0,1,1.0,0.33009999999990214
187,23,0.5,0.0625,35.0,1,1.0,0.300000999999952
188,23,0.5,1.0,35.0,1,1.0,0.32189999999991414
189,23,0.5,0.125,35.0,1,1.0,0.5674999999999955
190,23,0.5,0.125,-35.0,-1,1.0,0.2612010000000282
191,23,0.5,0.0625,-35.0,1,0.0,0.6884000000000015
192,23,0.5,0.125,35.0,1,1.0,0.24129999999991014
193,23,0.5,0.25,-35.0,-1,1.0,0.42439999999987776
194,23,0.5,0.0,35.0,1,1.0,0.24280099999998583
195,23,0.5,0.25,35.0,1,1.0,0.22839999999996508
196,23,0.5,0.0625,35.0,1,1.0,0.31009999999992033
197,23,0.5,0.25,35.0,1,1.0,0.2934010000000171
198,23,0.5,0.25,35.0,1,1.0,0.2944009999999935
199,23,0.5,0.125,35.0,1,1.0,0.6107999999999265
200,23,0.5,0.25,-35.0,1,0.0,0.25759999999991123
201,23,0.9,0.25,35.0,-1,0.0,0.2581999999998743
202,23,0.5,1.0,-35.0,-1,1.0,0.2621000000000322
203,23,0.5,1.0,35.0,1,1.0,0.31730099999992945
204,23,0.5,0.125,35.0,1,1.0,0.38659999999993033
205,23,0.5,0.125,35.0,1,1.0,0.2745009999998729
206,23,0.5,0.125,-35.0,1,0.0,0.2764999999998281
207,23,0.8,0.125,-35.0,-1,1.0,0.3705999999999676
208,23,0.5,1.0,-35.0,-1,1.0,0.42049999999994725
209,23,0.5,0.0625,35.0,1,1.0,0.30939999999986867
210,23,0.5,0.25,35.0,1,1.0,0.2561999999999216
211,23,0.5,1.0,35.0,1,1.0,0.294399999999996
212,23,0.5,0.125,-35.0,-1,1.0,0.38369999999997617
213,23,0.5,0.0,35.0,1,1.0,0.22629999999992378
214,23,0.5,0.0625,-35.0,-1,1.0,0.33590000000003783
215,23,0.5,0.125,-35.0,1,0.0,0.17650099999991653
216,23,0.5,0.125,-35.0,-1,1.0,0.22739999999998872
217,23,0.5,1.0,-35.0,-1,1.0,0.21079999999994925
218,23,0.5,0.0625,35.0,-1,0.0,0.42990099999997256
219,23,0.5,0.125,-35.0,-1,1.0,3.1084999999998217
220,23,0.5,0.25,-35.0,-1,1.0,0.3203999999999496
221,23,0.5,0.25,-35.0,-1,1.0,0.5428999999999178
222,23,0.5,0.0,35.0,1,1.0,0.2940999999999576
223,23,0.5,0.125,-35.0,-1,1.0,0.24940000000003693
224,23,0.5,0.125,35.0,1,1.0,0.41419999999993706
225,23,0.5,1.0,35.0,1,1.0,0.28609999999980573
226,23,0.5,0.125,-35.0,-1,1.0,0.30160000000000764
227,23,0.5,0.0625,35.0,1,1.0,0.22650099999987106
228,23,0.5,0.25,-35.0,1,0.0,0.9728999999999814
229,23,0.5,0.25,-35.0,-1,1.0,0.3614000000000033
230,23,0.5,0.125,-35.0,1,0.0,0.31480099999998856
231,23,0.5,0.0625,35.0,-1,0.0,0.40940100000000257
232,23,0.5,0.0,-35.0,1,0.0,0.6390999999998712
233,23,0.6,0.0,35.0,-1,0.0,0.3693999999999278
234,23,0.5,1.0,35.0,1,1.0,0.2660009999999602
235,23,0.5,0.25,-35.0,1,0.0,9.23150099999998
236,23,0.5,0.0,35.0,1,1.0,0.4914999999999736
237,23,0.5,0.0625,35.0,1,1.0,0.5134009999999307
238,23,0.5,1.0,35.0,1,1.0,0.24299999999993815
239,23,0.5,0.0625,35.0,1,1.0,0.33160099999997783
240,23,0.5,0.125,35.0,1,1.0,0.2539999999999054
241,23,0.5,0.25,-35.0,-1,1.0,0.324799999999982
242,23,0.5,1.0,-35.0,-1,1.0,0.4257999999999811
243,23,0.5,0.0625,-35.0,1,0.0,0.30530099999998583
244,23,0.5,0.125,-35.0,-1,1.0,0.6352999999999156
245,23,0.5,0.125,-35.0,1,0.0,0.12260000000003402
246,23,0.7,0.125,-35.0,-1,1.0,0.28770099999997
247,23,0.5,1.0,-35.0,-1,1.0,0.24839999999994689
248,23,0.5,0.125,-35.0,-1,1.0,0.32769999999993615
249,23,0.5,0.25,-35.0,-1,1.0,0.4009009999999762
250,23,0.5,0.125,35.0,-1,0.0,0.3603009999999358
251,23,0.5,0.25,35.0,-1,0.0,0.16469999999992524
252,23,0.5,0.125,-35.0,-1,1.0,0.2460999999998421
253,23,0.5,0.125,-35.0,-1,1.0,0.3705999999999676
254,23,0.5,0.25,35.0,1,1.0,0.41269999999997253
255,23,0.5,0.0625,-35.0,1,0.0,0.3208999999999378
256,23,0.5,0.0625,-35.0,-1,1.0,0.23310000000003583
257,23,0.5,0.25,-35.0,-1,1.0,0.24759999999992033
258,23,0.5,1.0,35.0,1,1.0,0.2563999999999851
259,23,0.5,1.0,-35.0,-1,1.0,0.43780100000003586
260,23,0.5,1.0,-35.0,-1,1.0,0.4394009999998616
261,23,0.5,0.125,-35.0,-1,1.0,0.2879010000001472
262,23,0.5,0.125,35.0,1,1.0,0.41660000000001673
263,23,0.5,0.125,-35.0,-1,1.0,0.25510000000008404
264,23,0.5,0.0625,35.0,1,1.0,0.4368010000000595
265,23,0.5,0.125,-35.0,-1,1.0,0.4185010000001057
266,23,0.5,0.125,-35.0,-1,1.0,0.4002000000002681
267,23,0.5,0.0625,35.0,1,1.0,0.5452010000001337
268,23,0.5,0.125,35.0,1,1.0,0.28450000000020736
269,23,0.5,1.0,-35.0,-1,1.0,0.3321000000000822
270,23,0.5,0.125,35.0,1,1.0,0.2573000000002139
271,23,0.5,0.125,-35.0,-1,1.0,0.2556999999999334
272,23,0.5,0.125,35.0,1,1.0,0.28449999999998
273,23,0.5,0.25,35.0,-1,0.0,0.1790000000000873
274,23,0.5,0.25,-35.0,-1,1.0,0.3145000000001801
275,23,0.5,0.0625,35.0,1,1.0,0.27250000000026375
276,23,0.5,0.125,35.0,1,1.0,0.22830000000021755
277,23,0.5,0.25,-35.0,-1,1.0,0.2596010000002025
278,23,0.5,0.25,-35.0,-1,1.0,0.22520000000008622
279,23,0.5,0.0625,35.0,1,1.0,0.25630100000012135
280,23,0.5,0.25,35.0,1,1.0,0.2580000000000382
281,23,0.5,0.0625,35.0,1,1.0,0.3064999999999145
282,23,0.5,0.125,35.0,1,1.0,0.34159999999997126
283,23,0.5,0.125,-35.0,-1,1.0,0.26330000000007203
284,23,0.5,0.125,35.0,1,1.0,0.5716010000001006
285,23,0.5,1.0,-35.0,-1,1.0,0.2436000000002423
286,23,0.5,0.125,35.0,1,1.0,0.23849999999993088
287,23,0.5,0.125,35.0,1,1.0,0.27359999999998763
288,23,0.5,0.25,-35.0,-1,1.0,0.24869999999987158
289,23,0.5,0.125,-35.0,-1,1.0,0.39390000000003056
290,23,0.5,0.0,-35.0,-1,1.0,0.28280100000006314
291,23,0.5,0.0625,35.0,-1,0.0,0.2438999999999396
292,23,0.5,0.125,35.0,1,1.0,0.3670999999999367
293,23,0.5,0.125,35.0,1,1.0,0.3442000000000007
294,23,0.5,0.0625,-35.0,-1,1.0,0.44380000000023756
295,23,0.5,0.125,-35.0,-1,1.0,0.2474000000001979
296,23,0.5,1.0,35.0,1,1.0,0.34969999999998436
297,23,0.5,0.0,-35.0,-1,1.0,0.4012000000000171
298,23,0.5,0.125,-35.0,-1,1.0,0.25700000000006185
299,23,0.5,0.125,35.0,1,1.0,0.287900000000036
300,23,0.5,0.125,35.0,1,1.0,0.41780100000005405
301,23,0.5,0.125,35.0,1,1.0,0.33330000000023574
302,23,0.5,0.125,35.0,-1,0.0,0.268100000000004
303,23,0.5,0.125,35.0,1,1.0,0.404901000000109
304,23,0.5,1.0,35.0,1,1.0,0.2818010000000868
305,23,0.5,0.125,-35.0,-1,1.0,0.46339999999986503
306,23,0.5,0.0,35.0,-1,0.0,0.30199999999990723
307,23,0.5,0.0625,35.0,1,1.0,0.34720100000004095
308,23,0.5,1.0,35.0,1,1.0,0.32900100000006205
309,23,0.5,0.0625,-35.0,-1,1.0,0.23099999999999454
310,23,0.5,0.0625,35.0,1,1.0,0.30540000000019063
311,23,0.5,0.25,-35.0,-1,1.0,0.29120100000000093
312,23,0.5,0.125,-35.0,-1,1.0,0.2591010000001006
313,23,0.5,0.0625,35.0,1,1.0,0.3208999999999378
314,23,0.5,0.125,-35.0,-1,1.0,0.596000000000231
315,23,0.5,0.0,-35.0,1,0.0,0.531099999999924
316,23,0.5,0.0,35.0,1,1.0,0.33619999999996253
317,23,0.5,0.125,-35.0,-1,1.0,0.39810099999999693
318,23,0.5,0.25,35.0,-1,0.0,0.2797010000001592
319,23,0.5,0.25,35.0,1,1.0,0.2616000000002714
320,23,0.5,0.125,-35.0,-1,1.0,0.4198999999998705
321,23,0.5,1.0,35.0,-1,0.0,0.9518010000001595
322,23,0.5,0.0625,35.0,-1,0.0,0.5534000000000106
323,23,0.5,0.0625,-35.0,1,0.0,0.6189010000002781
324,23,0.5,0.125,-35.0,-1,1.0,0.2767999999998665
325,23,0.5,0.0625,35.0,1,1.0,0.47870000000011714
326,23,0.5,0.0,35.0,1,1.0,0.637000000000171
327,23,0.5,0.0,35.0,-1,0.0,0.2794000000001233
328,23,0.5,0.0625,-35.0,1,0.0,0.39370000000008076
329,23,0.5,0.125,35.0,1,1.0,0.3824000000001888
330,23,0.5,1.0,-35.0,-1,1.0,0.27050099999996746
331,23,0.5,0.0,-35.0,1,0.0,1.633401000000049
332,23,0.6,0.0,-35.0,-1,1.0,0.21740100000010898
333,23,0.5,1.0,-35.0,-1,1.0,0.6405000000002019
334,23,0.5,0.25,-35.0,1,0.0,1.780999999999949
335,23,0.6,0.25,35.0,1,1.0,0.30750000000011823
336,23,0.5,1.0,35.0,1,1.0,0.4348010000001068
337,23,0.5,0.25,-35.0,-1,1.0,2.003400000000056
338,23,0.5,0.125,35.0,1,1.0,0.2716000000000349
339,23,0.5,0.0,-35.0,1,0.0,0.34340000000020154
340,23,0.5,0.125,35.0,1,1.0,0.29179999999996653
341,23,0.5,0.0625,35.0,1,1.0,0.4067999999999756
342,23,0.5,0.0,-35.0,1,0.0,3.461800999999923
343,23,0.5,0.0,-35.0,1,0.0,0.5975000000000819
344,23,0.9,0.0,-35.0,1,0.0,0.35219999999981155
345,23,0.5,1.0,-35.0,-1,1.0,0.324100000000044
346,23,0.5,0.0625,35.0,1,1.0,0.34900000000016007
347,23,0.5,0.0,35.0,1,1.0,7.457501000000093
348,23,0.5,0.25,-35.0,-1,1.0,0.3392999999998665
349,23,0.5,1.0,35.0,1,1.0,0.3911000000000513
350,23,0.5,0.125,35.0,1,1.0,0.34969999999998436
351,23,0.5,1.0,-35.0,-1,1.0,1.8848000000002685
352,23,0.5,0.25,35.0,1,1.0,0.2300000000000182
353,23,0.5,0.0,35.0,1,1.0,10.25240000000008
354,23,0.5,0.0625,35.0,1,1.0,0.3237010000002556
355,23,0.5,0.125,35.0,1,1.0,0.29680000000030304
356,23,0.5,1.0,-35.0,-1,1.0,0.9501999999999953
357,23,0.5,0.25,-35.0,1,0.0,0.25890000000003965
358,23,0.5,0.125,35.0,1,1.0,0.3506999999999607
359,23,0.5,1.0,35.0,1,1.0,0.40990000000010696
360,23,0.5,0.25,-35.0,-1,1.0,1.200700999999981
361,23,0.5,0.0,-35.0,1,0.0,10.879801000000043
362,23,0.8,0.0,-35.0,1,0.0,0.4378999999998996
363,23,0.5,1.0,-35.0,-1,1.0,0.43990000000007967
364,23,0.5,0.0,35.0,1,1.0,0.37800099999981285
365,23,0.5,1.0,-35.0,-1,1.0,0.3763010000000122
366,23,0.5,1.0,-35.0,-1,1.0,0.508199999999988
367,23,0.5,0.125,-35.0,-1,1.0,1.1902999999999793
368,23,0.5,0.0625,-35.0,1,0.0,8.175001000000066
369,23,0.5,0.25,-35.0,-1,1.0,0.33809999999994034
370,23,0.5,0.0625,-35.0,-1,1.0,0.372101000000157
371,23,0.5,0.0625,-35.0,1,0.0,0.3741010000001097
372,23,0.5,0.25,35.0,1,1.0,0.3123000000000502
373,23,0.5,1.0,35.0,1,1.0,0.30510000000026594
374,23,0.5,0.125,35.0,-1,0.0,0.5325000000002547
375,23,0.5,0.0625,35.0,1,1.0,0.25520000000005894
376,23,0.5,0.25,-35.0,1,0.0,0.23929999999995744
377,23,0.5,0.25,-35.0,-1,1.0,0.39820000000008804
378,23,0.5,0.25,-35.0,-1,1.0,0.6494999999999891
379,23,0.5,0.125,-35.0,-1,1.0,1.0980999999999312
380,23,0.5,0.25,35.0,1,1.0,0.36629999999991014
381,23,0.5,0.125,35.0,1,1.0,0.30910000000017135
382,23,0.5,0.0,35.0,1,1.0,0.400101000000177
383,23,0.5,0.25,35.0,1,1.0,0.3018000000001848
384,23,0.5,0.125,-35.0,-1,1.0,0.7600009999998747
385,23,0.5,1.0,35.0,1,1.0,0.24900000000002365
386,23,0.5,0.125,-35.0,-1,1.0,0.3104000000000724
387,23,0.5,0.0625,35.0,-1,0.0,0.5561999999999898
388,23,0.5,0.0625,35.0,-1,0.0,0.45050000000014734
389,23,0.5,1.0,35.0,1,1.0,1.760300000000143
390,23,0.5,1.0,35.0,1,1.0,0.320699999999988
391,23,0.5,0.125,-35.0,-1,1.0,0.8964009999999689
392,23,0.5,0.25,-35.0,-1,1.0,0.6841000000001713
393,23,0.5,0.25,-35.0,-1,1.0,0.9196999999999207
394,23,0.5,1.0,35.0,1,1.0,0.24450000000024374
395,23,0.5,0.25,-35.0,-1,1.0,0.5703009999999722
396,23,0.5,1.0,-35.0,-1,1.0,0.4680000000000746
397,23,0.5,0.0625,-35.0,1,0.0,0.5334009999999125
398,23,0.5,0.0625,-35.0,1,0.0,0.4782000000000153
399,23,0.5,0.25,35.0,1,1.0,0.5165000000001783
400,23,0.5,0.125,-35.0,-1,1.0,3.5317010000003393
401,23,0.5,0.0625,-35.0,-1,1.0,0.26700099999993654
402,23,0.5,0.0,35.0,-1,0.0,0.39200000000005275
403,23,0.5,0.125,35.0,1,1.0,0.9075000000000273
404,23,0.5,0.125,-35.0,1,0.0,4.332200000000057
405,23,0.5,0.0625,-35.0,1,0.0,0.6671999999998661
406,23,0.5,0.0625,-35.0,1,0.0,3.8190000000001874
407,23,0.5,0.125,35.0,1,1.0,0.3585000000000491
408,23,0.5,0.125,-35.0,-1,1.0,0.2794000000001233
409,23,0.5,0.25,-35.0,-1,1.0,0.8846999999998388
410,23,0.5,0.0,35.0,-1,0.0,0.3029010000002472
411,23,0.5,0.0,-35.0,1,0.0,0.45790000000033615
412,23,0.5,1.0,35.0,1,1.0,0.3299010000000635
413,23,0.5,0.25,35.0,1,1.0,0.2917010000001028
414,23,0.5,0.125,35.0,1,1.0,0.2430019999999331
415,23,0.5,0.25,-35.0,-1,1.0,0.29490099999998165
416,23,0.5,0.125,-35.0,-1,1.0,0.22680100000002312
417,23,0.5,0.0625,35.0,1,1.0,3.795701000000008
418,23,0.5,0.125,35.0,1,1.0,0.2970020000000204
419,23,0.5,0.0625,35.0,1,1.0,0.34280100000000857
420,23,0.5,0.25,-35.0,-1,1.0,0.5405020000000604
421,23,0.5,0.0625,35.0,1,1.0,0.7127010000001519
422,23,0.5,1.0,35.0,1,1.0,0.30400200000008226
423,23,0.5,0.125,35.0,1,1.0,0.38680199999998877
424,23,0.5,1.0,-35.0,1,0.0,4.0077020000001085
425,23,0.5,0.25,35.0,1,1.0,0.32640200000014374
426,23,0.5,0.0625,-35.0,1,0.0,1.1011020000000826
427,23,0.5,0.125,35.0,1,1.0,0.23400100000003476
428,23,0.5,0.25,-35.0,-1,1.0,0.6711010000001352
429,23,0.5,0.0,-35.0,1,0.0,0.6931010000000697
430,23,0.5,0.125,35.0,1,1.0,0.7383010000000922
431,23,0.5,1.0,35.0,1,1.0,0.3569020000002183
432,23,0.5,0.125,35.0,1,1.0,0.4549010000000635
433,23,0.5,0.25,-35.0,-1,1.0,0.5432009999999536
434,23,0.5,0.25,35.0,1,1.0,0.2886020000000826
435,23,0.5,0.125,35.0,1,1.0,0.3449009999999362
436,23,0.5,1.0,35.0,1,1.0,0.3151020000000244
437,23,0.5,0.125,-35.0,-1,1.0,0.6040020000000368
438,23,0.5,0.0,-35.0,1,0.0,0.352102000000059
439,23,0.8,0.0,35.0,-1,0.0,0.1872009999999591
440,23,0.5,1.0,-35.0,-1,1.0,0.2856019999999262
441,23,0.5,1.0,-35.0,-1,1.0,0.30100100000004204
442,23,0.5,0.125,-35.0,-1,1.0,0.4124010000000453
443,23,0.5,0.0625,35.0,1,1.0,0.3345009999998183
444,23,0.5,0.25,-35.0,1,0.0,0.19940100000007988
445,23,0.5,0.25,35.0,1,1.0,0.24450099999990016
446,23,0.5,1.0,-35.0,1,0.0,0.25610200000005534
447,23,0.5,1.0,35.0,1,1.0,0.3683010000002014
448,23,0.5,1.0,35.0,1,1.0,0.2830020000001241
449,23,0.5,0.125,-35.0,-1,1.0,0.3422009999999318
450,23,0.5,0.125,35.0,1,1.0,0.37330199999996694
451,23,0.5,0.0625,-35.0,1,0.0,0.18920200000002296
452,23,0.5,0.125,35.0,1,1.0,0.3701020000000881
453,23,0.5,0.125,-35.0,-1,1.0,0.7333020000000943
454,23,0.5,1.0,35.0,1,1.0,0.3072019999999611
455,23,0.5,0.25,35.0,1,1.0,0.3624019999999746
456,23,0.5,0.0625,-35.0,1,0.0,2.4004009999998743
457,23,0.5,0.0625,-35.0,1,0.0,0.8492019999998774
458,23,0.8,0.0625,-35.0,-1,1.0,0.25400100000024395
459,23,0.5,1.0,-35.0,-1,1.0,0.289400999999998
460,23,0.5,0.0625,35.0,1,1.0,0.25440100000014354
461,23,0.5,0.25,-35.0,-1,1.0,0.29630100000008497
462,23,0.5,1.0,35.0,1,1.0,0.28440100000011626
463,23,0.5,1.0,-35.0,-1,1.0,0.6665020000000368
464,23,0.5,0.25,-35.0,-1,1.0,0.43140100000005077
465,23,0.5,0.0625,-35.0,1,0.0,0.7233009999999922
466,23,0.5,0.125,-35.0,-1,1.0,0.38480200000026343
467,23,0.5,0.25,-35.0,-1,1.0,0.24350200000026234
468,23,0.5,1.0,35.0,1,1.0,0.4383020000002489
469,23,0.5,0.25,-35.0,-1,1.0,0.23350100000016027
470,23,0.5,1.0,-35.0,-1,1.0,0.3718010000002323
471,23,0.5,1.0,-35.0,-1,1.0,0.2375010000000657
472,23,0.5,0.0,-35.0,-1,1.0,7.561902000000146
473,23,0.5,1.0,-35.0,-1,1.0,0.3946010000001934
474,23,0.5,0.125,35.0,1,1.0,0.5688020000000051
475,23,0.5,0.0,-35.0,1,0.0,6.900801000000001
476,23,0.5,0.0625,-35.0,-1,1.0,0.41270200000008117
477,23,0.5,0.0625,-35.0,-1,1.0,0.23770200000012665
478,23,0.5,0.0,-35.0,-1,1.0,2.5863019999999324
479,23,0.5,1.0,-35.0,-1,1.0,0.3887010000000828
480,23,0.5,0.0625,-35.0,-1,1.0,0.263101000000006
481,23,0.5,0.125,35.0,1,1.0,0.3814009999998689
482,23,0.5,0.25,-35.0,-1,1.0,0.45000100000015664
483,23,0.5,0.0625,-35.0,-1,1.0,0.26180199999998877
484,23,0.5,0.0625,-35.0,-1,1.0,0.29990200000020195
485,23,0.5,0.0,-35.0,-1,1.0,0.26880099999993945
486,23,0.5,1.0,-35.0,-1,1.0,0.2536009999998896
487,23,0.5,0.125,35.0,1,1.0,0.28550200000017867
488,23,0.5,1.0,35.0,1,1.0,0.3337010000002465
489,23,0.5,0.125,35.0,1,1.0,0.33880100000033053
490,23,0.5,0.0625,-35.0,1,0.0,0.2837010000000646
491,23,0.5,0.0625,35.0,1,1.0,0.26230099999997947
492,23,0.5,0.125,35.0,1,1.0,0.3576010000001588
493,23,0.5,0.0,35.0,1,1.0,0.2894019999998818
494,23,0.5,0.0,-35.0,1,0.0,3.307701000000179
495,23,0.5,0.0625,-35.0,1,0.0,0.3927009999999882
496,23,0.5,0.0,-35.0,-1,1.0,0.5511020000001281
497,23,0.5,1.0,35.0,-1,0.0,0.2899010000000999
498,23,0.5,0.0625,-35.0,-1,1.0,0.6581010000002152
499,23,0.5,0.125,-35.0,1,0.0,0.3141010000001643
500,23,0.5,0.125,-35.0,-1,1.0,0.3316010000003189
501,23,0.5,0.25,-35.0,-1,1.0,0.22360100000014427
502,23,0.5,0.125,-35.0,-1,1.0,0.608201999999892
503,23,0.5,0.0625,35.0,-1,0.0,0.19500099999959275
504,23,0.5,0.0,35.0,-1,0.0,0.3120009999997819
505,23,0.5,0.0625,35.0,-1,0.0,0.6045009999998001
506,23,0.5,0.0625,-35.0,1,0.0,4.785401999999976
507,23,0.5,0.25,-35.0,1,0.0,0.5242009999997208
508,23,0.5,0.0625,-35.0,1,0.0,0.6325010000000475
509,23,0.5,0.25,35.0,1,1.0,0.25410199999987526
510,23,0.5,0.125,35.0,1,1.0,0.2827009999996335
511,23,0.5,0.0625,35.0,1,1.0,0.2984009999995578
512,23,0.5,0.0625,-35.0,-1,1.0,0.5029019999997217
513,23,0.5,0.25,35.0,1,1.0,0.7892020000003868
514,23,0.5,1.0,35.0,1,1.0,0.3232020000000375
515,23,0.5,0.125,35.0,1,1.0,0.3149009999997361
516,23,0.5,0.0625,-35.0,1,0.0,2.7665009999996073
517,23,0.5,0.25,-35.0,-1,1.0,0.28540099999963786
518,23,0.5,0.25,35.0,1,1.0,0.4869010000002163
519,23,0.5,0.0625,-35.0,-1,1.0,0.4553019999998469
520,23,0.5,0.25,-35.0,-1,1.0,0.440501999999924
521,23,0.5,0.25,-35.0,-1,1.0,0.22230099999978847
522,23,0.5,0.25,35.0,1,1.0,0.27720099999987724
523,23,0.5,0.25,35.0,1,1.0,0.2799009999998816
524,23,0.5,1.0,-35.0,-1,1.0,0.2508010000001377
525,23,0.5,0.25,-35.0,-1,1.0,0.233400999999958
526,23,0.5,0.125,35.0,1,1.0,0.4544019999993907
527,23,0.5,1.0,35.0,1,1.0,0.34300200000006953
528,23,0.5,1.0,-35.0,-1,1.0,0.27460199999995893
529,23,0.5,1.0,35.0,1,1.0,0.256500999999389
530,23,0.5,0.0625,35.0,1,1.0,0.2847009999995862
531,23,0.5,0.0625,35.0,1,1.0,1.43650099999968
532,23,0.5,0.125,-35.0,-1,1.0,0.24160099999926388
533,23,0.5,0.125,35.0,1,1.0,0.5236009999994167
534,23,0.5,0.0625,-35.0,1,0.0,1.4720010000000912
535,23,0.5,0.0,35.0,-1,0.0,0.2672010000001137
536,23,0.5,0.0,35.0,-1,0.0,0.2653009999994538
537,23,0.5,0.0625,-35.0,1,0.0,0.3209009999995942
538,23,0.5,0.0625,35.0,1,1.0,0.35910100000000966
539,23,0.5,0.125,35.0,1,1.0,0.29400200000009136
540,23,0.5,1.0,-35.0,-1,1.0,0.2325010000004113
541,23,0.5,0.25,-35.0,-1,1.0,0.25440099999923405
542,23,0.5,1.0,-35.0,-1,1.0,0.5294019999996635
543,23,0.5,0.0,-35.0,-1,1.0,0.23270099999990634
544,23,0.5,1.0,35.0,1,1.0,0.33620099999961894
545,23,0.5,0.25,35.0,1,1.0,0.3414009999996779
546,23,0.5,1.0,-35.0,-1,1.0,0.38980099999980666
547,23,0.5,0.25,35.0,1,1.0,0.3390020000001641
548,23,0.5,0.0,-35.0,1,0.0,0.5466009999995549
549,23,0.5,0.0625,-35.0,-1,1.0,0.6851010000000315
550,23,0.5,0.0,-35.0,-1,1.0,0.4500020000000404
551,23,0.5,1.0,35.0,1,1.0,0.34190099999977974
552,23,0.5,0.0,35.0,1,1.0,0.28360099999963495
553,23,0.5,1.0,35.0,1,1.0,0.23590100000001257
554,23,0.5,1.0,-35.0,-1,1.0,0.21710099999972954
555,23,0.5,0.125,35.0,1,1.0,0.37290100000018356
556,23,0.5,1.0,35.0,1,1.0,0.24080200000025798
557,23,0.5,1.0,-35.0,-1,1.0,0.3700010000002294
558,23,0.5,0.0,-35.0,1,0.0,0.33420099999966624
559,23,0.5,0.0,-35.0,-1,1.0,0.33610199999930046
560,23,0.5,1.0,-35.0,-1,1.0,0.24110099999961676
561,23,0.5,0.125,-35.0,-1,1.0,0.27990099999942686
562,23,0.5,0.0,35.0,1,1.0,0.27470099999982267
563,23,0.5,0.125,35.0,1,1.0,0.2631009999995513
564,23,0.5,1.0,35.0,1,1.0,0.24840199999971446
565,23,0.5,0.25,-35.0,1,0.0,0.34990099999959057
566,23,0.6,0.25,-35.0,-1,1.0,0.18500099999982922
567,23,0.5,1.0,-35.0,-1,1.0,0.33360099999981685
568,23,0.5,0.0625,35.0,-1,0.0,0.3585009999997055
569,23,0.5,0.0625,35.0,1,1.0,0.3570020000001932
570,23,0.5,0.0625,35.0,1,1.0,0.34880100000009406
571,23,0.5,1.0,35.0,1,1.0,0.24420099999952072
572,23,0.5,1.0,-35.0,-1,1.0,0.4658009999998285
573,23,0.5,1.0,35.0,1,1.0,0.30110100000001694
574,23,0.5,0.0625,-35.0,-1,1.0,0.2924009999996997
575,23,0.5,0.0625,35.0,1,1.0,0.33420099999966624
576,23,0.5,0.25,-35.0,-1,1.0,0.2861019999995733
577,23,0.5,0.0,-35.0,-1,1.0,0.19520099999954255
578,23,0.5,0.0,35.0,1,1.0,0.3495020000000295
579,23,0.5,1.0,-35.0,-1,1.0,0.26930099999981394
580,23,0.5,0.25,35.0,1,1.0,0.34960099999989325
581,23,0.5,0.0625,35.0,1,1.0,0.30140199999959805
582,23,0.5,0.0625,-35.0,1,0.0,0.3099010000000817
583,23,0.5,0.125,35.0,1,1.0,0.6664019999998345
584,23,0.5,0.0625,35.0,1,1.0,0.28030200000011973
585,23,0.5,0.0,-35.0,-1,1.0,0.2524009999997361
586,23,0.5,0.25,35.0,1,1.0,0.2739010000000235
587,23,0.5,0.0625,35.0,-1,0.0,0.3334020000002056
588,23,0.7,0.0625,-35.0,-1,1.0,0.29050199999983306
589,23,0.5,1.0,35.0,-1,0.0,0.2827009999996335
590,23,0.5,0.125,35.0,-1,0.0,0.2441009999997732
591,23,0.5,0.0625,-35.0,1,0.0,0.39950199999975666
592,23,0.5,0.25,-35.0,-1,1.0,0.2676019999998971
593,23,0.5,0.0625,35.0,-1,0.0,0.45260099999995873
594,23,0.5,0.0625,35.0,1,1.0,0.19140099999958693
595,23,0.5,0.25,-35.0,-1,1.0,0.3436019999999189
596,23,0.5,0.125,-35.0,-1,1.0,0.38150099999984377
597,23,0.5,0.0,-35.0,1,0.0,1.330300999999963
598,23,0.5,0.0,-35.0,1,0.0,1.6650009999998474
599,23,0.4,0.0,-35.0,1,0.0,0.510700999999699
600,23,0.5,1.0,35.0,1,1.0,0.61520100000007
601,23,0.5,0.0625,-35.0,1,0.0,0.34170099999982995
602,23,0.5,0.0625,35.0,1,1.0,0.30220099999951344
603,23,0.5,0.125,35.0,1,1.0,0.3107009999998809
604,23,0.5,0.0625,35.0,1,1.0,0.32570099999975355
605,23,0.5,0.0,-35.0,1,0.0,0.19480199999952674
606,23,0.5,0.0625,-35.0,1,0.0,0.29590099999950326
607,23,0.5,0.25,35.0,1,1.0,0.2477019999996628
608,23,0.5,0.125,35.0,1,1.0,0.3260009999999056
609,23,0.5,0.0625,-35.0,-1,1.0,0.24440099999992526
610,23,0.5,0.0625,-35.0,-1,1.0,0.26620199999979377
611,23,0.5,0.0625,35.0,1,1.0,0.3347009999997681
612,23,0.5,1.0,-35.0,1,0.0,0.3262019999997392
613,23,0.5,0.0,35.0,1,1.0,0.4848019999999451
614,23,0.5,0.0625,35.0,1,1.0,0.4168009999998503
615,23,0.5,1.0,35.0,1,1.0,0.34290099999998347
616,23,0.5,0.0625,35.0,1,1.0,0.3400019999999131
617,23,0.5,0.125,-35.0,1,0.0,0.27250199999980396
618,23,0.5,0.0625,-35.0,1,0.0,0.5302009999995789
619,23,0.8,0.0625,35.0,1,1.0,0.3620019999998476
620,23,0.5,1.0,35.0,-1,0.0,0.4537020000002485
621,23,0.5,0.0625,35.0,1,1.0,0.23650099999986196
622,23,0.5,0.0,35.0,1,1.0,1.1707010000000082
623,23,0.5,0.25,35.0,1,1.0,0.4828010000001086
624,23,0.5,0.0625,35.0,1,1.0,0.3674009999995178
625,23,0.5,0.0625,-35.0,-1,1.0,0.35590099999990343
626,23,0.5,0.0,-35.0,1,0.0,4.121100999999726
627,23,0.8,0.0,-35.0,1,0.0,1.6041009999994458
628,23,0.5,1.0,-35.0,-1,1.0,0.6014009999998962
629,23,0.5,1.0,-35.0,-1,1.0,0.4199020000000928
630,23,0.5,0.25,35.0,1,1.0,0.6881009999997332
631,23,0.5,0.25,-35.0,-1,1.0,0.35710100000005696
632,23,0.5,1.0,35.0,1,1.0,0.2620010000000548
633,23,0.5,0.0625,-35.0,1,0.0,0.27370099999961894
634,23,0.5,0.0,35.0,1,1.0,0.24870199999986653
635,23,0.5,0.25,-35.0,1,0.0,0.3339009999999689
636,23,0.5,0.125,-35.0,1,0.0,0.5292019999997137
637,23,0.5,0.0625,-35.0,1,0.0,0.7175010000000839
638,23,0.5,0.125,-35.0,1,0.0,0.4759019999996781
639,23,0.5,0.25,-35.0,1,0.0,0.49830100000008315
640,23,0.5,0.125,-35.0,1,0.0,0.25940099999979793
641,23,0.9,0.125,-35.0,-1,1.0,3.2843009999996866
642,23,0.5,1.0,-35.0,-1,1.0,0.6484020000002602
643,23,0.5,0.0,35.0,1,1.0,2.284602000000177
644,23,0.5,0.0625,35.0,1,1.0,1.8565019999996366
645,23,0.5,0.125,35.0,1,1.0,0.31840199999987817
646,23,0.5,0.125,-35.0,-1,1.0,0.6332019999995282
647,23,0.5,0.25,35.0,1,1.0,0.3395009999994727
648,23,0.5,0.0625,35.0,1,1.0,0.2968019999993885
649,23,0.5,0.0,35.0,1,1.0,1.7918009999998503
650,23,0.5,0.0625,-35.0,1,0.0,0.5672019999997246
651,23,0.5,0.0625,-35.0,-1,1.0,18.926400999999714
652,23,0.5,0.25,35.0,1,1.0,0.28770200000008117
653,23,0.5,0.25,-35.0,1,0.0,0.3606009999998605
654,23,0.8,0.25,-35.0,1,0.0,0.27140099999951417
655,23,0.5,1.0,-35.0,-1,1.0,0.2797009999999318
656,23,0.5,0.0625,-35.0,1,0.0,2.1614009999998416
657,23,0.5,0.0625,35.0,1,1.0,0.32990099999960876
658,23,0.5,0.25,-35.0,-1,1.0,0.4416009999995367
659,23,0.5,0.0625,-35.0,1,0.0,16.87060100000008
660,23,0.5,0.0,35.0,-1,0.0,0.5391019999997297
661,23,0.5,0.25,35.0,1,1.0,0.4607009999999718
662,23,0.5,1.0,35.0,1,1.0,0.32920100000001185
663,23,0.5,0.0625,-35.0,1,0.0,0.5008010000001377
664,23,0.5,0.0625,35.0,1,1.0,0.2862019999997756
665,23,0.5,0.0625,-35.0,-1,1.0,0.705801999999494
666,23,0.5,0.0625,-35.0,1,0.0,4.361201000000165
667,23,0.7,0.0625,-35.0,-1,1.0,0.4698009999997339
668,23,0.5,1.0,-35.0,-1,1.0,0.34200099999952727
669,23,0.5,0.125,35.0,1,1.0,0.2833009999994829
670,23,0.5,0.25,35.0,1,1.0,0.2049019999999473
671,23,0.5,0.125,-35.0,-1,1.0,3.1902020000002267
672,23,0.5,0.125,35.0,1,1.0,0.48210100000005696
673,23,0.5,0.0625,-35.0,-1,1.0,0.5304009999995287
674,23,0.5,0.0,-35.0,-1,1.0,7.146201000000019
675,23,0.5,0.0625,-35.0,-1,1.0,1.1210009999995236
676,23,0.5,0.125,-35.0,-1,1.0,2.5457009999995535
677,23,0.5,0.0625,-35.0,1,0.0,0.33120099999996455
678,23,0.5,0.0625,35.0,1,1.0,0.5311019999999189
679,23,0.5,0.25,-35.0,-1,1.0,0.4979009999997288
680,23,0.5,0.125,35.0,1,1.0,0.333100999999715
681,23,0.5,0.0625,-35.0,-1,1.0,0.5414019999998345
682,23,0.5,0.0,-35.0,1,0.0,0.23330100000021048
683,23,0.5,0.25,-35.0,-1,1.0,0.5015019999996184
684,23,0.5,1.0,35.0,1,1.0,0.22680099999979575
685,23,0.5,1.0,-35.0,-1,1.0,2.821700999999848
686,23,0.5,0.25,35.0,1,1.0,0.5635010000000875
687,23,0.5,0.0625,35.0,1,1.0,0.2818010000000868
688,23,0.5,0.0625,-35.0,-1,1.0,0.4002019999998083
689,23,0.5,0.0625,35.0,1,1.0,0.8822010000003502
690,23,0.5,1.0,35.0,1,1.0,0.301101999999446
691,23,0.5,1.0,35.0,1,1.0,0.2921019999998862
692,23,0.5,1.0,-35.0,-1,1.0,0.34060099999942395
693,23,0.5,0.25,-35.0,-1,1.0,0.27240099999926315
694,23,0.5,1.0,35.0,-1,0.0,0.2714009999999689
695,23,0.5,1.0,35.0,1,1.0,0.3160010000001421
696,23,0.5,1.0,-35.0,-1,1.0,0.5177019999996446
697,23,0.5,0.0,-35.0,1,0.0,0.6794009999998707
698,23,0.5,0.25,35.0,1,1.0,0.30460100000027523
699,23,0.5,0.125,-35.0,-1,1.0,0.32980099999986123
700,23,0.5,1.0,-35.0,-1,1.0,0.8823010000000977
701,23,0.5,0.0625,35.0,1,1.0,0.326600999999755
702,23,0.5,0.25,35.0,1,1.0,0.30140099999971426
703,23,0.5,1.0,-35.0,1,0.0,0.41000099999973827
704,23,0.5,0.25,-35.0,1,0.0,0.30650100000002567
705,23,0.5,0.25,35.0,1,1.0,0.3236010000000533
706,23,0.5,0.0,35.0,-1,0.0,0.34940099999994345
707,23,0.5,0.125,-35.0,-1,1.0,0.41050099999984013
708,23,0.5,0.125,-35.0,-1,1.0,0.4221010000001115
709,23,0.5,0.125,35.0,1,1.0,0.33090100000026723
710,23,0.5,0.0,35.0,1,1.0,1.7994009999997616
711,23,0.5,0.125,35.0,1,1.0,0.37100199999986216
712,23,0.5,0.125,35.0,1,1.0,0.28570099999978993
713,23,0.5,0.0625,-35.0,1,0.0,0.33780099999967206
714,23,0.7,0.0625,-35.0,-1,1.0,0.3936009999997623
715,23,0.5,1.0,-35.0,-1,1.0,0.38460099999974773
716,23,0.5,1.0,35.0,1,1.0,0.2766019999994569
717,23,0.5,1.0,-35.0,-1,1.0,0.2615009999999529
718,23,0.5,0.0,35.0,1,1.0,1.21020099999987
719,23,0.5,0.125,35.0,1,1.0,0.2683009999996102
720,23,0.5,0.0625,35.0,1,1.0,0.330801999999494
721,23,0.5,0.0,-35.0,-1,1.0,0.4686009999995804
722,23,0.5,0.0625,-35.0,-1,1.0,0.3478009999994356
723,23,0.5,0.0625,35.0,1,1.0,1.0888019999993048
724,23,0.5,0.125,35.0,1,1.0,0.33380099999976665
725,23,0.5,0.0625,35.0,1,1.0,0.3523019999997814
726,23,0.5,0.0,35.0,1,1.0,2.431801999999607
727,23,0.5,0.25,35.0,1,1.0,0.2393010000000686
728,23,0.5,0.25,35.0,1,1.0,0.26450199999999313
729,23,0.5,0.125,-35.0,1,0.0,1.4661019999998643
730,23,0.5,0.125,35.0,1,1.0,0.32430099999965023
731,23,0.5,1.0,35.0,1,1.0,0.29950100000041857
732,23,0.5,0.25,-35.0,-1,1.0,0.29480199999989054
733,23,0.5,1.0,-35.0,-1,1.0,0.4397009999997863
734,23,0.5,0.125,35.0,1,1.0,0.3184009999999944
735,23,0.5,0.0625,-35.0,-1,1.0,0.33990099999982704
736,23,0.5,0.125,35.0,1,1.0,0.7650010000002112
737,23,0.5,0.0625,-35.0,1,0.0,0.36680200000000696
738,23,0.5,0.25,-35.0,-1,1.0,0.34190099999977974
739,23,0.5,0.0625,-35.0,1,0.0,0.33380099999976665
740,23,0.5,0.125,35.0,1,1.0,0.7594009999997979
741,23,0.5,1.0,35.0,1,1.0,0.33730100000002494
742,23,0.5,1.0,-35.0,-1,1.0,0.306601999999657
743,23,0.5,0.25,35.0,1,1.0,0.29070099999989907
744,23,0.5,0.0625,-35.0,-1,1.0,0.27230199999985416
745,23,0.5,0.125,-35.0,-1,1.0,0.22760100000004968
746,23,0.5,0.125,35.0,1,1.0,0.5861009999994167
747,23,0.5,0.0625,35.0,1,1.0,0.27460100000007515
748,23,0.5,0.125,35.0,-1,0.0,0.31230199999936303
749,23,0.5,0.125,-35.0,1,0.0,0.37120099999992817
750,23,0.5,0.0625,-35.0,-1,1.0,0.3171009999996386
751,23,0.5,1.0,-35.0,-1,1.0,0.2283009999996466
752,23,0.5,0.125,-35.0,-1,1.0,0.6872010000001865
753,23,0.5,0.0,-35.0,-1,1.0,8.36750099999972
754,23,0.5,0.0625,-35.0,1,0.0,0.2919010000000526
755,23,0.5,0.125,35.0,1,1.0,0.3104019999996126
756,23,0.5,0.25,35.0,1,1.0,0.2986009999995076
757,23,0.5,1.0,-35.0,1,0.0,0.2174019999997654
758,23,0.5,0.25,35.0,1,1.0,0.15580199999976685
759,23,0.5,0.0,35.0,1,1.0,0.32080199999973047
760,23,0.5,0.25,-35.0,-1,1.0,0.4891020000000026
761,23,0.5,0.0,-35.0,-1,1.0,0.31780099999969025
762,23,0.5,0.125,-35.0,-1,1.0,0.3893019999995886
763,23,0.5,0.25,-35.0,-1,1.0,0.27780200000006516
764,23,0.5,0.125,35.0,1,1.0,0.6496019999999589
765,23,0.5,1.0,-35.0,-1,1.0,0.41510199999993347
766,23,0.5,0.125,35.0,1,1.0,0.42650099999991653
767,23,0.5,1.0,-35.0,-1,1.0,0.6286009999998896
768,23,0.5,0.0,-35.0,-1,1.0,0.29010099999959493
769,23,0.5,1.0,35.0,1,1.0,0.24850100000003295
770,23,0.5,0.125,35.0,1,1.0,0.27010199999995166
771,23,0.5,0.125,35.0,1,1.0,1.6758009999998649
772,23,0.5,1.0,-35.0,1,0.0,0.9972019999995609
773,23,0.5,0.0,-35.0,1,0.0,0.3588009999998576
774,23,0.5,0.0625,35.0,1,1.0,0.334002000000055
775,23,0.5,0.25,-35.0,1,0.0,0.2591010000001006
776,23,0.5,0.125,-35.0,-1,1.0,0.2976010000002134
777,23,0.5,0.125,35.0,1,1.0,0.352701999999681
778,23,0.5,0.0625,-35.0,-1,1.0,0.5044009999996888
779,23,0.5,1.0,35.0,1,1.0,0.2427020000000084
780,23,0.5,0.125,35.0,1,1.0,0.31460100000003877
781,23,0.5,0.125,35.0,1,1.0,0.9147009999996953
782,23,0.5,1.0,35.0,1,1.0,0.48490099999980885
783,23,0.5,0.0,35.0,1,1.0,0.4767009999995935
784,23,0.5,0.25,-35.0,-1,1.0,0.31830200000013065
785,23,0.5,1.0,35.0,1,1.0,0.3335010000000693
786,23,0.5,0.0625,-35.0,1,0.0,0.30160099999966405
787,23,0.5,0.125,35.0,1,1.0,0.2978010000001632
788,23,0.5,1.0,-35.0,-1,1.0,0.3855009999997492
789,23,0.5,0.0625,35.0,1,1.0,0.8769019999999728
790,23,0.5,0.25,-35.0,-1,1.0,0.4056019999993623
791,23,0.5,0.125,35.0,1,1.0,0.4676019999997152
792,23,0.5,0.0,35.0,-1,0.0,0.34900199999992765
793,23,0.6,0.0,-35.0,1,0.0,0.34190099999977974
794,23,0.5,1.0,-35.0,-1,1.0,0.22580100000004677
795,23,0.5,0.0,35.0,1,1.0,0.6419009999999616
796,23,0.5,0.25,-35.0,-1,1.0,0.33600099999966915
797,23,0.5,1.0,35.0,1,1.0,0.26210100000025705
798,23,0.5,1.0,35.0,1,1.0,0.279500999999982
799,23,0.5,0.25,-35.0,-1,1.0,0.4200009999995018
800,23,0.5,0.25,-35.0,-1,1.0,0.31320199999981924
801,23,0.5,0.25,-35.0,-1,1.0,0.2982010000000628
802,23,0.5,0.0,35.0,1,1.0,0.32980099999986123
803,23,0.5,1.0,-35.0,-1,1.0,0.25340099999948507
804,23,0.5,0.0625,-35.0,1,0.0,0.2984009999995578
805,23,0.5,0.125,-35.0,-1,1.0,0.29040200000008554
806,23,0.5,0.0,35.0,-1,0.0,0.37860100000034436
807,23,0.4,0.0,-35.0,-1,1.0,0.28730099999984304
808,23,0.5,1.0,35.0,1,1.0,0.35610099999985323
809,23,0.5,0.125,-35.0,-1,1.0,0.28400199999941833
810,23,0.5,0.25,35.0,1,1.0,0.29620100000011007
811,23,0.5,1.0,-35.0,-1,1.0,0.4873010000001159
812,23,0.5,0.25,35.0,1,1.0,0.2862009999998918
813,23,0.5,1.0,35.0,1,1.0,0.2376009999998132
814,23,0.5,0.125,35.0,1,1.0,0.35010099999954036
815,23,0.5,0.0,-35.0,1,0.0,0.43780199999991964
816,23,0.5,0.125,-35.0,-1,1.0,0.2734009999999216
817,23,0.5,1.0,35.0,1,1.0,0.31460199999992255
818,23,0.5,1.0,-35.0,-1,1.0,0.28020199999991746
819,23,0.5,1.0,-35.0,-1,1.0,0.27150099999971644
820,23,0.5,0.0625,35.0,1,1.0,0.3000010000000657
821,23,0.5,0.0625,35.0,1,1.0,0.32850099999950544
822,23,0.5,0.25,35.0,1,1.0,0.21340200000031473
823,23,0.5,0.0,-35.0,-1,1.0,0.3686019999995551
824,23,0.5,0.0,-35.0,1,0.0,1.1537020000000666
825,23,0.5,0.0625,35.0,1,1.0,0.425300999999763
826,23,0.5,0.25,-35.0,1,0.0,0.4184019999997872
827,23,0.7,0.25,-35.0,-1,1.0,0.26240099999995437
828,23,0.5,1.0,-35.0,-1,1.0,0.31840199999987817
829,23,0.5,0.125,35.0,1,1.0,0.286000999999942
830,23,0.5,0.125,35.0,1,1.0,0.41130199999997785
831,23,0.5,0.25,-35.0,-1,1.0,0.2961009999999078
832,23,0.5,0.125,35.0,1,1.0,0.32140099999969607
833,23,0.5,0.25,-35.0,-1,1.0,0.51620099999991
834,23,0.5,0.25,-35.0,1,0.0,0.2978019999995922
835,23,0.5,0.0625,35.0,1,1.0,0.2597019999998338
836,23,0.5,1.0,35.0,1,1.0,0.2826009999994312
837,23,0.5,0.25,35.0,1,1.0,6.590100999999777
838,23,0.5,0.0,-35.0,1,0.0,0.3360020000000077
839,23,0.5,0.25,-35.0,-1,1.0,0.3436009999995804
840,23,0.5,0.25,35.0,1,1.0,0.2807009999996808
841,23,0.5,0.0,-35.0,1,0.0,0.30710099999987506
842,23,0.5,0.0625,-35.0,-1,1.0,0.5289010000001326
843,23,0.5,0.125,-35.0,-1,1.0,0.4441009999995913
844,23,0.5,1.0,-35.0,-1,1.0,0.24660199999971155
845,23,0.5,0.25,35.0,1,1.0,0.2643009999997048
846,23,0.5,1.0,35.0,1,1.0,6.083701000000019
847,23,0.5,0.0,35.0,1,1.0,0.37450200000012046
848,23,0.5,1.0,35.0,1,1.0,0.26650100000006205
849,23,0.5,0.125,-35.0,1,0.0,0.9382009999994807
850,23,0.5,0.0625,-35.0,-1,1.0,0.4177009999998518
851,23,0.5,0.125,35.0,1,1.0,0.3251009999994494
852,23,0.5,0.0625,-35.0,1,0.0,0.9138010000001486
853,23,0.5,0.0625,-35.0,1,0.0,12.732002000000193
854,23,0.5,0.125,35.0,1,1.0,0.2839019999996708
855,23,0.5,0.0625,-35.0,-1,1.0,4.4823019999998905
856,23,0.5,0.25,-35.0,-1,1.0,0.32090100000004895
857,23,0.5,0.125,-35.0,-1,1.0,0.5426010000001042
858,23,0.5,1.0,35.0,1,1.0,0.2749009999993177
859,23,0.5,0.125,-35.0,-1,1.0,0.342801999999665
860,23,0.5,0.125,35.0,1,1.0,0.3045009999996182
861,23,0.5,0.0625,35.0,1,1.0,0.34320100000013554
862,23,0.5,0.25,-35.0,-1,1.0,0.4351019999999153
863,23,0.5,0.0625,35.0,1,1.0,0.8901019999998425
864,23,0.5,0.125,-35.0,-1,1.0,3.9582009999999173
865,23,0.5,0.125,35.0,1,1.0,0.3101010000000315
866,23,0.5,1.0,35.0,1,1.0,0.3220010000000002
867,23,0.5,1.0,35.0,1,1.0,0.24690099999952508
868,23,0.5,0.25,35.0,1,1.0,0.5254009999998743
869,23,0.5,0.25,35.0,1,1.0,0.34380200000032346
870,23,0.5,0.25,35.0,1,1.0,0.35550199999988763
871,23,0.5,0.0,35.0,-1,0.0,0.4340009999996255
872,23,0.5,0.0625,35.0,1,1.0,0.7466010000002825
873,23,0.5,0.0,-35.0,1,0.0,0.5975019999996221
874,23,0.5,0.0625,35.0,1,1.0,0.30260199999975157
875,23,0.5,0.125,-35.0,1,0.0,0.3312009999995098
876,23,0.9,0.125,-35.0,1,0.0,0.3596010000001115
877,23,0.5,1.0,-35.0,-1,1.0,0.311301000000185
878,23,0.5,1.0,35.0,1,1.0,0.2902009999997972
879,23,0.5,0.25,-35.0,-1,1.0,0.28490099999999074
880,23,0.5,0.0625,35.0,1,1.0,0.38640099999975064
881,23,0.5,0.0,-35.0,-1,1.0,0.2651019999998425
882,23,0.5,0.0,-35.0,-1,1.0,0.3766009999999369
883,23,0.5,1.0,35.0,1,1.0,0.3017009999998663
884,23,0.5,0.0625,-35.0,-1,1.0,0.49360099999967133
885,23,0.5,0.25,-35.0,-1,1.0,0.5587009999999282
886,23,0.5,0.0625,35.0,1,1.0,0.4284010000001217
887,23,0.5,1.0,35.0,1,1.0,0.39550099999996746
888,23,0.5,1.0,-35.0,-1,1.0,0.29050099999994927
889,23,0.5,0.0,-35.0,-1,1.0,0.4025019999999131
890,23,0.5,0.25,35.0,1,1.0,0.3443010000000868
891,23,0.5,0.0,-35.0,-1,1.0,0.3623010000001159
892,23,0.5,0.125,35.0,1,1.0,0.3513020000000324
893,23,0.5,0.0,-35.0,1,0.0,0.7294010000000526
894,23,0.5,0.0,-35.0,1,0.0,0.2815019999998185
895,23,0.5,1.0,35.0,-1,0.0,0.336301999999705
896,23,0.5,0.0625,35.0,-1,0.0,0.34510099999988597
897,23,0.5,0.125,-35.0,-1,1.0,0.44310099999938757
898,23,0.5,0.0,-35.0,-1,1.0,0.3396020000000135
899,23,0.5,0.25,-35.0,-1,1.0,0.28990099999964514
900,23,0.5,1.0,35.0,1,1.0,0.28850099999999657
901,23,0.5,1.0,-35.0,-1,1.0,0.3103019999994103
902,23,0.5,0.0,35.0,1,1.0,0.5620009999997819
903,23,0.5,0.0,35.0,1,1.0,0.7038009999996575
904,23,0.5,0.0625,-35.0,1,0.0,0.6321009999992384
905,23,0.5,0.0625,35.0,1,1.0,0.33380099999976665
906,23,0.5,0.0625,-35.0,1,0.0,0.43900099999973463
907,23,0.5,0.0625,-35.0,1,0.0,11.630701000000045
908,23,0.7,0.0625,-35.0,1,0.0,3.8666010000001734
909,23,0.5,1.0,-35.0,-1,1.0,0.5613009999997303
910,23,0.5,0.0625,-35.0,1,0.0,17.879801000000043
911,23,0.5,0.25,-35.0,1,0.0,1.222001999999975
912,23,0.5,0.0,35.0,1,1.0,15.270400999999765
913,23,0.5,0.0,35.0,1,1.0,16.702500999999756
914,23,0.5,0.0625,-35.0,-1,1.0,0.34530099999983577
915,23,0.5,0.25,35.0,1,1.0,9.719600999999784
916,23,0.5,1.0,35.0,1,1.0,9.032400999999936
917,23,0.5,0.0625,-35.0,1,0.0,8.147200999999768
918,23,0.5,0.125,-35.0,1,0.0,10.168901000000005
919,23,0.5,0.0625,-35.0,1,0.0,10.077401000000009
920,23,0.9,0.0625,-35.0,1,0.0,6.976400999999896
921,23,0.5,1.0,-35.0,-1,1.0,0.39170100000001185
922,23,0.5,0.0625,35.0,1,1.0,0.5833009999996648
923,23,0.5,0.25,35.0,1,1.0,0.3118019999997159
924,23,0.5,0.25,-35.0,1,0.0,2.457401000000118
925,23,0.5,0.25,35.0,1,1.0,12.6987009999998
926,23,0.5,1.0,35.0,1,1.0,4.998400999999831
927,23,0.5,1.0,-35.0,-1,1.0,0.9293009999996684
928,23,0.5,0.0625,-35.0,1,0.0,7.482500999999502
929,23,0.5,0.0,35.0,1,1.0,9.606300999999803
930,23,0.5,1.0,35.0,1,1.0,52.85860099999991
931,23,0.5,1.0,35.0,1,1.0,3.774702000000616
932,23,0.5,0.25,35.0,1,1.0,4.609902000000147
933,23,0.5,1.0,35.0,1,1.0,2.538502000000335
934,23,0.5,0.125,-35.0,1,0.0,6.403402000000824
935,23,0.5,0.0625,-35.0,1,0.0,33.458701000000474
936,23,0.5,0.25,35.0,1,1.0,0.3881020000007993
937,23,0.5,0.0625,35.0,1,1.0,14.513001000000259
938,23,0.5,0.0625,-35.0,1,0.0,23.902101000000584
939,23,0.5,0.25,-35.0,1,0.0,20.224200999999994
940,23,1.0,0.25,35.0,1,1.0,11.11330100000032
941,23,0.5,1.0,-35.0,1,0.0,11.685201000000234
942,23,0.5,0.0,-35.0,1,0.0,0.42050099999960366
943,23,0.5,0.125,-35.0,1,0.0,11.732301000000007
944,23,0.5,0.0625,35.0,1,1.0,9.594602000000123
945,23,0.5,0.25,35.0,1,1.0,5.849500999999691
946,23,0.5,1.0,-35.0,-1,1.0,0.35560200000054465
947,23,0.5,1.0,-35.0,-1,1.0,0.5000010000003385
948,23,0.5,1.0,-35.0,-1,1.0,0.34660100000019156
949,23,0.5,0.0625,-35.0,-1,1.0,0.5002010000007431
950,23,0.5,0.25,35.0,-1,0.0,0.41500100000030216
951,23,0.5,0.0625,-35.0,-1,1.0,0.61710100000073
952,23,0.5,0.125,35.0,-1,0.0,0.33190100000047096
953,23,0.5,0.0625,-35.0,-1,1.0,0.3838020000002871
954,23,0.5,0.125,35.0,1,1.0,1.2087009999995644
955,23,0.5,0.25,35.0,1,1.0,0.5008020000004763
956,23,0.5,0.25,-35.0,-1,1.0,0.9797010000002047
957,23,0.5,0.125,35.0,1,1.0,0.4410010000001421
958,23,0.5,0.0625,35.0,-1,0.0,0.4299010000004273
959,23,0.3,0.0625,-35.0,-1,1.0,0.4610020000009172
960,23,0.5,1.0,-35.0,-1,1.0,0.3469010000007984
961,23,0.5,0.0,35.0,-1,0.0,0.5880010000000766
962,23,0.3,0.0,35.0,1,1.0,9.636801999999989
963,23,0.5,1.0,35.0,1,1.0,0.5216019999998025
964,23,0.5,1.0,35.0,1,1.0,0.41400200000043696
965,23,0.5,1.0,35.0,1,1.0,0.32860100000016246
966,23,0.5,1.0,35.0,1,1.0,0.36690099999941594
967,23,0.5,0.25,-35.0,-1,1.0,0.4253019999996468
968,23,0.5,1.0,-35.0,-1,1.0,0.3719010000004346
969,23,0.5,0.0,-35.0,-1,1.0,0.4123010000002978
970,23,0.5,0.0625,35.0,-1,0.0,0.674101000000519
971,23,0.5,0.0,35.0,1,1.0,2.49920099999963
972,23,0.5,0.25,-35.0,-1,1.0,0.4681010000012975
973,23,0.5,1.0,-35.0,-1,1.0,0.3457010000001901
974,23,0.5,0.25,35.0,1,1.0,3.561001000000033
975,23,0.5,0.125,35.0,1,1.0,0.7330010000005132
976,23,0.5,0.0625,-35.0,1,0.0,1.551101000000017
977,23,0.4,0.0625,35.0,1,1.0,7.880000999999538
978,23,0.5,1.0,35.0,1,1.0,0.4432010000000446
979,23,0.5,0.125,35.0,1,1.0,3.030001000000084
980,23,0.5,1.0,35.0,-1,0.0,0.3962009999995644
981,23,0.5,0.25,-35.0,1,0.0,14.643901000001279
982,23,0.5,0.125,35.0,1,1.0,7.74630100000013
983,23,0.5,0.125,-35.0,-1,1.0,27.361101000000417
984,23,0.5,0.25,-35.0,1,0.0,12.658502000000226
985,23,0.8,0.25,35.0,1,1.0,8.779002000001128
986,23,0.5,1.0,35.0,1,1.0,10.487801000000218
987,23,0.5,0.125,-35.0,1,0.0,0.47310100000049715
988,23,0.8,0.125,-35.0,1,0.0,16.078301999999894
989,23,0.5,1.0,-35.0,-1,1.0,0.36370200000055775
990,23,0.5,0.25,-35.0,-1,1.0,0.6119010000002163
991,23,0.5,0.25,-35.0,1,0.0,11.870500999999422
1,24,0.5,0.25,35.0,1,1.0,0.35530000000000017
2,24,0.5,0.0625,-35.0,1,0.0,0.26949999999999985
3,24,0.5,0.0625,35.0,-1,0.0,0.2201000000000004
4,24,0.5,0.0625,35.0,1,1.0,0.9773999999999976
5,24,0.5,0.0625,-35.0,1,0.0,1.6000999999999976
6,24,0.5,0.125,35.0,1,1.0,0.2654010000000042
7,24,0.5,0.25,-35.0,1,0.0,0.1721010000000014
8,24,0.5,0.25,35.0,1,1.0,0.21360099999999704
9,24,0.5,0.0,35.0,1,1.0,3.369399999999999
10,24,0.5,0.0625,-35.0,1,0.0,0.1822000000000017
11,24,0.5,0.125,35.0,1,1.0,0.2684009999999972
12,24,0.5,1.0,35.0,1,1.0,0.24909999999999854
13,24,0.5,1.0,-35.0,-1,1.0,0.38470000000000226
14,24,0.5,0.25,-35.0,1,0.0,1.1379999999999981
15,24,0.9,0.25,-35.0,-1,1.0,0.5093999999999994
16,24,0.5,1.0,-35.0,-1,1.0,0.3988999999999976
17,24,0.5,1.0,35.0,1,1.0,0.1893000000000029
18,24,0.5,1.0,-35.0,-1,1.0,0.26200000000000045
19,24,0.5,0.0625,-35.0,-1,1.0,0.8475999999999999
20,24,0.5,0.0625,-35.0,1,0.0,0.19320000000000448
21,24,0.5,0.0,-35.0,-1,1.0,0.34390100000001667
22,24,0.5,0.0625,-35.0,1,0.0,3.541000000000011
23,24,0.5,0.125,-35.0,-1,1.0,0.5262000000000029
24,24,0.5,0.25,35.0,1,1.0,0.25790000000000646
25,24,0.5,0.125,35.0,1,1.0,0.25790000000000646
26,24,0.5,0.0,-35.0,1,0.0,1.0339999999999918
27,24,0.6,0.0,35.0,1,1.0,0.2524000000000086
28,24,0.5,1.0,-35.0,-1,1.0,0.21599999999999397
29,24,0.5,0.0,35.0,-1,0.0,3.2852000000000032
30,24,0.6,0.0,-35.0,-1,1.0,0.5780999999999921
31,24,0.5,1.0,-35.0,-1,1.0,0.479801000000009
32,24,0.5,0.125,35.0,1,1.0,0.8363009999999633
33,24,0.5,1.0,35.0,1,1.0,2.3030009999999663
34,24,0.5,0.125,-35.0,1,0.0,3.0400999999999954
35,24,0.5,0.25,-35.0,-1,1.0,0.3260009999999909
36,24,0.5,0.0625,-35.0,-1,1.0,0.29419999999996094
37,24,0.5,0.0625,-35.0,1,0.0,3.151299999999992
38,24,0.5,0.0625,35.0,1,1.0,0.30119999999999436
39,24,0.5,0.25,35.0,1,1.0,0.21879999999998745
40,24,0.5,1.0,35.0,1,1.0,0.23420099999998456
41,24,0.5,0.0625,-35.0,-1,1.0,0.26210099999997283
42,24,0.5,0.125,-35.0,-1,1.0,3.8922999999999774
43,24,0.5,0.0625,-35.0,-1,1.0,0.4487009999999998
44,24,0.5,1.0,35.0,1,1.0,0.3472009999999841
45,24,0.5,0.0,-35.0,1,0.0,0.28440099999997415
46,24,0.5,0.125,35.0,1,1.0,0.24160099999997442
47,24,0.5,1.0,-35.0,-1,1.0,0.40130099999998947
48,24,0.5,0.125,35.0,1,1.0,2.393799999999999
49,24,0.5,1.0,-35.0,-1,1.0,0.24819999999996867
50,24,0.5,0.0625,35.0,1,1.0,0.2910999999999717
51,24,0.5,0.125,-35.0,1,0.0,0.1555009999999868
52,24,0.5,0.0625,-35.0,-1,1.0,0.2719009999999855
53,24,0.5,0.0625,-35.0,1,0.0,0.7093009999999538
54,24,0.7,0.0625,-35.0,-1,1.0,0.39879999999996585
55,24,0.5,1.0,-35.0,-1,1.0,0.25440000000000396
56,24,0.5,0.0625,35.0,1,1.0,0.7664000000000044
57,24,0.5,0.125,-35.0,-1,1.0,2.583500999999984
58,24,0.5,0.25,35.0,1,1.0,0.2368009999999856
59,24,0.5,0.25,35.0,1,1.0,0.24849999999997863
60,24,0.5,0.25,35.0,1,1.0,0.28720100000001025
61,24,0.5,0.125,-35.0,-1,1.0,0.448599999999999
62,24,0.5,0.0625,-35.0,1,0.0,4.530400000000043
63,24,0.5,0.25,35.0,-1,0.0,0.37060000000002447
64,24,0.5,0.25,-35.0,-1,1.0,0.26530099999996537
65,24,0.5,0.0625,-35.0,-1,1.0,0.7142010000000596
66,24,0.5,0.125,-35.0,-1,1.0,0.40850000000000364
67,24,0.5,0.125,35.0,1,1.0,7.043200000000013
68,24,0.5,0.0625,35.0,-1,0.0,1.2758000000000038
69,24,0.5,0.0625,35.0,1,1.0,0.2780999999999949
70,24,0.5,0.0625,35.0,1,1.0,0.7538999999999874
71,24,0.5,0.0625,35.0,1,1.0,0.2286000000000854
72,24,0.5,1.0,-35.0,-1,1.0,0.4176010000000474
73,24,0.5,0.0625,-35.0,-1,1.0,0.2836000000000354
74,24,0.5,0.0625,35.0,1,1.0,0.29730000000006385
75,24,0.5,0.125,35.0,1,1.0,0.2942000000000462
76,24,0.5,0.125,-35.0,-1,1.0,0.35510099999999056
77,24,0.5,0.125,35.0,1,1.0,0.4194999999999709
78,24,0.5,0.0625,35.0,1,1.0,0.233600000000024
79,24,0.5,0.25,-35.0,-1,1.0,1.8117000000000871
80,24,0.5,0.25,35.0,1,1.0,0.23689999999999145
81,24,0.5,0.0625,35.0,1,1.0,0.9038009999999872
82,24,0.5,1.0,-35.0,-1,1.0,0.3205000000000382
83,24,0.5,0.25,-35.0,-1,1.0,0.6182999999999765
84,24,0.5,0.125,35.0,1,1.0,0.34320100000002185
85,24,0.5,0.125,35.0,1,1.0,0.3277999999999679
86,24,0.5,0.0,-35.0,1,0.0,1.412900000000036
87,24,0.5,0.25,-35.0,-1,1.0,0.35590000000001965
88,24,0.5,0.0625,35.0,1,1.0,0.37470000000001846
89,24,0.5,0.25,35.0,1,1.0,0.6790000000000305
90,24,0.5,0.25,35.0,1,1.0,0.24979999999999336
91,24,0.5,0.0,35.0,-1,0.0,0.8819000000000301
92,24,0.6,0.0,35.0,1,1.0,0.2674010000000635
93,24,0.5,1.0,35.0,1,1.0,0.18680000000000518
94,24,0.5,0.125,35.0,1,1.0,0.22640000000001237
95,24,0.5,0.0625,35.0,1,1.0,0.26789999999999736
96,24,0.5,0.0625,35.0,-1,0.0,2.207300000000032
97,24,0.5,0.0625,-35.0,-1,1.0,0.360300000000052
98,24,0.5,0.25,-35.0,1,0.0,0.2791010000000256
99,24,0.5,0.0625,35.0,1,1.0,0.25029999999998154
100,24,0.5,0.125,-35.0,-1,1.0,0.45760000000001355
101,24,0.5,1.0,-35.0,-1,1.0,0.40300000000002
102,24,0.5,0.0625,-35.0,-1,1.0,0.4112999999999829
103,24,0.5,0.25,35.0,-1,0.0,0.6951010000000224
104,24,0.5,0.25,35.0,1,1.0,0.27990100000005214
105,24,0.5,0.125,-35.0,1,0.0,0.6315000000000168
106,24,0.5,0.0625,35.0,1,1.0,0.30819999999999936
107,24,0.5,0.125,35.0,1,1.0,0.24350000000004002
108,24,0.5,0.25,-35.0,-1,1.0,0.3369000000000142
109,24,0.5,0.25,-35.0,1,0.0,0.12819999999999254
110,24,0.5,0.25,-35.0,-1,1.0,0.2486000000000672
111,24,0.5,0.25,35.0,1,1.0,0.2644999999999982
112,24,0.5,1.0,-35.0,-1,1.0,0.29830099999998083
113,24,0.5,0.125,-35.0,-1,1.0,0.40219999999999345
114,24,0.5,1.0,-35.0,-1,1.0,0.4068999999999505
115,24,0.5,1.0,-35.0,-1,1.0,0.400100000000009
116,24,0.5,0.0625,-35.0,-1,1.0,5.295099999999991
117,24,0.5,1.0,-35.0,-1,1.0,0.2808000000000561
118,24,0.5,1.0,35.0,1,1.0,0.2400000000000091
119,24,0.5,0.0625,-35.0,1,0.0,0.24330000000009022
120,24,0.5,0.0625,35.0,1,1.0,2.578399999999988
121,24,0.5,0.125,-35.0,1,0.0,0.492300000000057
122,24,0.4,0.125,-35.0,-1,1.0,0.6352999999999724
123,24,0.5,1.0,-35.0,-1,1.0,0.3047000000000253
124,24,0.5,0.0625,35.0,1,1.0,0.24830000000002883
125,24,0.5,0.25,-35.0,-1,1.0,0.31260100000008606
126,24,0.5,0.0625,-35.0,1,0.0,0.30330000000003565
127,24,0.6,0.0625,35.0,-1,0.0,0.29930000000001655
128,24,0.5,1.0,35.0,1,1.0,0.2491010000001097
129,24,0.5,1.0,-35.0,-1,1.0,0.26949999999999363
130,24,0.5,1.0,35.0,1,1.0,0.23429999999996198
131,24,0.5,0.25,-35.0,-1,1.0,0.5583010000000286
132,24,0.5,0.0625,35.0,1,1.0,0.2544999999998936
133,24,0.5,0.25,-35.0,1,0.0,0.3225999999999658
134,24,0.5,0.0625,-35.0,1,0.0,0.25450100000011844
135,24,0.5,0.0625,-35.0,1,0.0,2.548999999999978
136,24,0.5,0.0,35.0,-1,0.0,0.23390100000005987
137,24,0.5,0.0625,-35.0,-1,1.0,0.4174009999999271
138,24,0.5,0.0,-35.0,1,0.0,0.2882009999999582
139,24,0.6,0.0,35.0,-1,0.0,0.2535000000000309
140,24,0.5,1.0,-35.0,-1,1.0,0.23480099999994763
141,24,0.5,0.25,-35.0,-1,1.0,0.2939010000000053
142,24,0.5,0.0,-35.0,1,0.0,0.43229999999994106
143,24,0.5,0.0625,-35.0,-1,1.0,0.4194999999999709
144,24,0.5,1.0,-35.0,-1,1.0,0.23810100000002876
145,24,0.5,0.0625,-35.0,-1,1.0,0.2481000000000222
146,24,0.5,0.0,-35.0,-1,1.0,0.7766000000000304
147,24,0.5,0.0625,35.0,-1,0.0,0.3295010000000502
148,24,0.5,0.25,-35.0,-1,1.0,0.22469999999998436
149,24,0.5,0.25,35.0,-1,0.0,0.6029000000000906
150,24,0.5,0.0625,-35.0,-1,1.0,0.25870000000008986
151,24,0.5,0.25,-35.0,-1,1.0,0.2133010000000013
152,24,0.5,1.0,-35.0,-1,1.0,0.22460000000000946
153,24,0.5,0.125,35.0,1,1.0,0.3432999999999993
154,24,0.5,0.0625,-35.0,-1,1.0,0.30770000000006803
155,24,0.5,0.25,-35.0,-1,1.0,0.6091999999999871
156,24,0.5,0.125,35.0,1,1.0,0.3367000000000644
157,24,0.5,0.0625,35.0,1,1.0,0.6938000000000102
158,24,0.5,0.25,-35.0,1,0.0,0.3108999999999469
159,24,0.5,0.0625,-35.0,1,0.0,3.560100000000034
160,24,0.5,0.0625,-35.0,-1,1.0,0.4189999999999827
161,24,0.5,0.0625,-35.0,-1,1.0,0.23260100000004513
162,24,0.5,0.0625,35.0,1,1.0,0.477800000000002
163,24,0.5,0.0625,-35.0,-1,1.0,0.304100999999946
164,24,0.5,0.0625,35.0,1,1.0,0.2920010000001412
165,24,0.5,0.0625,-35.0,-1,1.0,0.26340000000004693
166,24,0.5,0.25,-35.0,-1,1.0,0.22450000000003456
167,24,0.5,1.0,-35.0,-1,1.0,0.20289999999999964
168,24,0.5,0.125,-35.0,-1,1.0,0.4190009999999802
169,24,0.5,0.25,35.0,1,1.0,0.20529999999996562
170,24,0.5,0.125,35.0,1,1.0,0.22910000000001673
171,24,0.5,0.25,-35.0,-1,1.0,0.34750100000007933
172,24,0.5,0.125,-35.0,-1,1.0,0.32300099999997656
173,24,0.5,0.125,-35.0,-1,1.0,0.2565999999999349
174,24,0.5,0.25,35.0,1,1.0,0.2440000000000282
175,24,0.5,0.125,35.0,1,1.0,0.29070099999989907
176,24,0.5,0.0,-35.0,1,0.0,0.3547999999999547
177,24,0.5,0.0,-35.0,1,0.0,0.4306010000000242
178,24,0.5,1.0,-35.0,-1,1.0,0.38250000000005
179,24,0.5,0.25,-35.0,-1,1.0,0.35310000000015407
180,24,0.5,1.0,-35.0,-1,1.0,0.25880000000006476
181,24,0.5,1.0,35.0,1,1.0,0.35140000000001237
182,24,0.5,0.0,-35.0,1,0.0,0.309099999999944
183,24,0.5,0.25,-35.0,-1,1.0,0.24660000000005766
184,24,0.5,0.0625,-35.0,-1,1.0,0.3720010000000684
185,24,0.5,1.0,35.0,1,1.0,0.31389999999998963
186,24,0.5,0.25,-35.0,-1,1.0,0.26539999999999964
187,24,0.5,0.0625,-35.0,1,0.0,0.2984000000000151
188,24,0.5,0.0625,-35.0,1,0.0,0.22430099999996855
189,24,0.5,0.125,-35.0,-1,1.0,0.2864999999999327
190,24,0.5,1.0,35.0,1,1.0,0.27720000000010714
191,24,0.5,0.0625,35.0,-1,0.0,0.2481999999999971
192,24,0.5,0.125,35.0,-1,0.0,0.2572010000000091
193,24,0.4,0.125,-35.0,-1,1.0,0.26490100000000893
194,24,0.5,1.0,35.0,1,1.0,0.6513000000001057
195,24,0.5,0.0625,-35.0,1,0.0,0.26260100000001785
196,24,0.5,0.25,35.0,-1,0.0,0.23140000000000782
197,24,0.5,0.0625,-35.0,-1,1.0,0.28309999999999036
198,24,0.5,0.125,35.0,1,1.0,
199,24,0.5,0.25,35.0,1,1.0,0.22090000000002874
200,24,0.5,0.0,-35.0,1,0.0,0.3128000000000384
201,24,0.5,0.125,35.0,1,1.0,0.26949999999999363
202,24,0.5,1.0,-35.0,-1,1.0,0.302101000000107
203,24,0.5,0.0,-35.0,-1,1.0,0.356200000000058
204,24,0.5,0.125,35.0,-1,0.0,0.21249999999997726
205,24,0.5,0.0625,-35.0,-1,1.0,0.2823999999999387
206,24,0.5,0.125,-35.0,-1,1.0,0.23040100000014263
207,24,0.5,0.125,35.0,1,1.0,0.2921999999999798
208,24,0.5,0.125,35.0,1,1.0,0.3208000000000766
209,24,0.5,1.0,35.0,1,1.0,0.23339999999996053
210,24,0.5,0.125,-35.0,-1,1.0,0.2915010000000393
211,24,0.5,0.0,35.0,-1,0.0,0.43849999999997635
212,24,0.5,0.25,-35.0,-1,1.0,0.44280000000003383
213,24,0.5,0.125,35.0,1,1.0,0.274599999999964
214,24,0.5,0.25,35.0,1,1.0,0.2881009999999833
215,24,0.5,0.0,35.0,-1,0.0,0.4855000000000018
216,24,0.5,0.0,-35.0,-1,1.0,0.2033999999999878
217,24,0.5,1.0,-35.0,-1,1.0,0.2580010000000357
218,24,0.5,0.0625,35.0,1,1.0,0.20780099999990398
219,24,0.5,0.25,35.0,1,1.0,0.33169999999995525
220,24,0.5,0.25,35.0,1,1.0,0.28950000000008913
221,24,0.5,0.125,-35.0,-1,1.0,0.9460010000000239
222,24,0.5,0.25,-35.0,-1,1.0,0.38409999999998945
223,24,0.5,0.0625,35.0,1,1.0,0.26120000000003074
224,24,0.5,0.125,35.0,1,1.0,0.30139999999994416
225,24,0.5,0.0625,35.0,1,1.0,0.30270100000007005
226,24,0.5,1.0,-35.0,-1,1.0,0.2481999999999971
227,24,0.5,1.0,35.0,1,1.0,0.24070100000005823
228,24,0.5,0.125,35.0,1,1.0,0.4124010000000453
229,24,0.5,0.125,-35.0,-1,1.0,0.3668000000001257
230,24,0.5,0.25,-35.0,1,0.0,0.8868000000001075
231,24,0.5,0.125,35.0,1,1.0,0.19990000000007058
232,24,0.5,0.25,-35.0,1,0.0,0.27089999999998327
233,24,0.8,0.25,-35.0,1,0.0,0.41210000000012315
234,24,0.5,1.0,-35.0,-1,1.0,0.41639999999995325
235,24,0.5,0.0,35.0,1,1.0,0.4997999999999365
236,24,0.5,0.0625,-35.0,1,0.0,0.2578000000000884
237,24,0.8,0.0625,-35.0,1,0.0,0.3908010000000104
238,24,0.5,1.0,-35.0,-1,1.0,0.36930100000006405
239,24,0.5,1.0,-35.0,-1,1.0,0.2340000000000373
240,24,0.5,0.25,-35.0,-1,1.0,0.23880100000008042
241,24,0.5,0.125,-35.0,1,0.0,0.11480100000005677
242,24,0.5,0.125,-35.0,1,0.0,0.3789000000000442
243,24,0.5,0.0625,35.0,1,1.0,0.5131000000000085
244,24,0.5,1.0,35.0,1,1.0,0.3413999999999078
245,24,0.5,0.125,35.0,1,1.0,5.925500000000056
246,24,0.5,0.25,35.0,1,1.0,0.151299999999992
247,24,0.5,0.0625,-35.0,1,0.0,0.23250000000007276
248,24,0.5,0.25,-35.0,-1,1.0,0.2996009999999387
249,24,0.5,0.125,-35.0,-1,1.0,0.4470010000000002
250,24,0.5,0.125,-35.0,-1,1.0,0.4391009999999369
251,24,0.5,0.125,35.0,1,1.0,0.23610000000007858
252,24,0.5,0.125,35.0,1,1.0,0.23870099999999184
253,24,0.5,0.25,-35.0,-1,1.0,0.6501000000000658
254,24,0.5,0.125,-35.0,-1,1.0,0.6520999999999049
255,24,0.5,0.25,-35.0,-1,1.0,0.9471009999999751
256,24,0.5,0.0,-35.0,1,0.0,1.228900000000067
257,24,0.5,0.125,-35.0,-1,1.0,0.2642000000000735
258,24,0.5,1.0,-35.0,1,0.0,0.24900000000002365
259,24,0.5,0.25,-35.0,-1,1.0,0.28109999999992397
260,24,0.5,0.25,35.0,1,1.0,0.28599999999983083
261,24,0.5,0.0625,35.0,1,1.0,0.7871000000002368
262,24,0.5,0.125,-35.0,-1,1.0,0.2896009999999478
263,24,0.5,1.0,-35.0,-1,1.0,0.9551010000000133
264,24,0.5,0.125,35.0,1,1.0,0.7695000000001073
265,24,0.5,1.0,-35.0,-1,1.0,0.258000999999922
266,24,0.5,0.0625,-35.0,1,0.0,1.6131000000000313
267,24,0.5,0.0625,-35.0,1,0.0,0.23489999999992506
268,24,0.5,0.25,-35.0,-1,1.0,0.27339999999981046
269,24,0.5,0.0625,-35.0,-1,1.0,0.4114000000001852
270,24,0.5,0.0625,35.0,1,1.0,0.35370000000011714
271,24,0.5,0.25,-35.0,-1,1.0,0.5523000000000593
272,24,0.5,0.25,-35.0,-1,1.0,0.5670999999999822
273,24,0.5,1.0,-35.0,-1,1.0,0.34530100000006314
274,24,0.5,0.25,-35.0,-1,1.0,0.3806999999999334
275,24,0.5,0.25,35.0,1,1.0,0.4975000000001728
276,24,0.5,0.25,35.0,-1,0.0,0.7262999999998101
277,24,0.5,0.25,35.0,1,1.0,0.24100000000021282
278,24,0.5,0.125,35.0,-1,0.0,0.179300000000012
279,24,0.5,0.125,35.0,1,1.0,0.33779999999978827
280,24,0.5,0.0625,35.0,1,1.0,3.0487010000001646
281,24,0.5,0.0625,35.0,1,1.0,0.3347000000001117
282,24,0.5,0.0,35.0,1,1.0,0.5224000000002889
283,24,0.5,0.25,35.0,1,1.0,0.2579999999998108
284,24,0.5,0.125,35.0,1,1.0,0.3993009999999231
285,24,0.5,1.0,-35.0,-1,1.0,2.9517000000000735
286,24,0.5,0.0,-35.0,1,0.0,0.30760000000009313
287,24,0.5,0.25,-35.0,-1,1.0,0.27200100000027305
288,24,0.5,0.0625,35.0,1,1.0,0.3937010000001919
289,24,0.5,1.0,-35.0,-1,1.0,0.48220000000014807
290,24,0.5,0.125,35.0,1,1.0,0.2806000000000495
291,24,0.5,0.25,35.0,1,1.0,0.28910000000018954
292,24,0.5,0.0,-35.0,1,0.0,0.3138010000000122
293,24,0.7,0.0,-35.0,-1,1.0,0.6392000000000735
294,24,0.5,1.0,-35.0,-1,1.0,0.40760100000011334
295,24,0.5,0.0625,35.0,1,1.0,0.706000000000131
296,24,0.5,0.25,35.0,1,1.0,1.2677000000001044
297,24,0.5,1.0,35.0,1,1.0,0.24300099999982194
298,24,0.5,0.0,35.0,1,1.0,0.49470000000019354
299,24,0.5,1.0,35.0,1,1.0,0.27310000000011314
300,24,0.5,0.25,35.0,1,1.0,0.27779999999984284
301,24,0.5,0.25,35.0,1,1.0,3.3432000000000244
302,24,0.5,0.25,35.0,1,1.0,0.30140000000005784
303,24,0.5,1.0,-35.0,-1,1.0,0.40020000000004075
304,24,0.5,0.25,-35.0,-1,1.0,0.6037000000001171
305,24,0.5,0.25,-35.0,-1,1.0,0.4835000000000491
306,24,0.5,0.0625,35.0,-1,0.0,0.2717999999999847
307,24,0.5,0.125,-35.0,-1,1.0,0.2937000000001717
308,24,0.5,0.0,-35.0,-1,1.0,0.241600999999946
309,24,0.5,0.125,35.0,1,1.0,0.2840000000001055
310,24,0.5,1.0,35.0,1,1.0,0.29880000000025575
311,24,0.5,0.0625,-35.0,-1,1.0,0.3642010000000937
312,24,0.5,1.0,-35.0,-1,1.0,0.2255999999999858
313,24,0.5,0.0625,-35.0,-1,1.0,0.3579010000000835
314,24,0.5,0.125,-35.0,-1,1.0,0.49240000000008877
315,24,0.5,0.125,-35.0,-1,1.0,0.291501000000153
316,24,0.5,0.0625,-35.0,1,0.0,0.4530010000000857
317,24,0.5,0.25,35.0,1,1.0,0.3213999999998123
318,24,0.5,0.0625,-35.0,-1,1.0,0.49699999999984357
319,24,0.5,0.0,35.0,-1,0.0,0.2920000000001437
320,24,0.5,0.125,-35.0,-1,1.0,0.5103009999997994
321,24,0.5,0.25,35.0,1,1.0,0.5584000000001197
322,24,0.5,1.0,-35.0,-1,1.0,0.2798999999999978
323,24,0.5,1.0,-35.0,-1,1.0,0.24880000000007385
324,24,0.5,0.25,35.0,1,1.0,0.29110100000002603
325,24,0.5,1.0,-35.0,-1,1.0,0.3156010000000151
326,24,0.5,0.125,35.0,1,1.0,0.1871009999999842
327,24,0.5,0.25,35.0,1,1.0,0.3324000000002343
328,24,0.5,0.25,35.0,1,1.0,0.2640010000000075
329,24,0.5,0.125,35.0,1,1.0,0.32580000000007203
330,24,0.5,0.125,-35.0,-1,1.0,0.518100000000004
331,24,0.5,0.0625,35.0,1,1.0,0.33960099999990234
332,24,0.5,1.0,-35.0,-1,1.0,0.21820100000013554
333,24,0.5,0.25,35.0,1,1.0,0.30960000000004584
334,24,0.5,0.25,-35.0,-1,1.0,0.6242999999999483
335,24,0.5,1.0,-35.0,-1,1.0,0.2864000000001852
336,24,0.5,0.125,-35.0,1,0.0,0.6382999999998447
337,24,0.5,0.0,35.0,-1,0.0,0.37000000000011823
338,24,0.5,0.25,-35.0,-1,1.0,0.2782009999998536
339,24,0.5,1.0,-35.0,-1,1.0,0.3267009999999573
340,24,0.5,1.0,-35.0,-1,1.0,0.2016999999998461
341,24,0.5,0.0,35.0,1,1.0,1.73700000000008
342,24,0.5,0.125,35.0,1,1.0,0.3684009999999489
343,24,0.5,0.125,-35.0,-1,1.0,0.5105999999998403
344,24,0.5,0.125,35.0,-1,0.0,0.21209999999996398
345,24,0.3,0.125,35.0,1,1.0,0.38720100000000457
346,24,0.5,1.0,-35.0,-1,1.0,0.2863009999998667
347,24,0.5,0.0625,-35.0,1,0.0,0.440900000000056
348,24,0.5,0.0,35.0,-1,0.0,0.39930100000015045
349,24,0.5,0.125,35.0,1,1.0,0.3843000000001666
350,24,0.5,0.25,35.0,1,1.0,0.3025000000000091
351,24,0.5,0.25,-35.0,-1,1.0,0.32799999999997453
352,24,0.5,0.25,35.0,1,1.0,0.3856999999998152
353,24,0.5,1.0,-35.0,-1,1.0,0.40820099999996273
354,24,0.5,0.125,-35.0,-1,1.0,0.2804999999998472
355,24,0.5,0.125,35.0,1,1.0,0.3449000000000524
356,24,0.5,0.25,35.0,1,1.0,0.22649999999998727
357,24,0.5,0.125,-35.0,1,0.0,0.4150010000000748
358,24,0.5,0.125,-35.0,-1,1.0,0.3365999999998621
359,24,0.5,0.25,-35.0,-1,1.0,0.25870099999997365
360,24,0.5,1.0,-35.0,-1,1.0,0.23959999999988213
361,24,0.5,0.125,35.0,-1,0.0,0.2821010000000115
362,24,0.5,0.0,35.0,-1,0.0,0.3205000000000382
363,24,0.5,0.0625,-35.0,-1,1.0,0.28569999999990614
364,24,0.5,1.0,35.0,1,1.0,1.4301000000000386
365,24,0.5,0.25,35.0,-1,0.0,0.9894010000000435
366,24,0.5,0.25,35.0,1,1.0,0.2880009999998947
367,24,0.5,0.25,-35.0,-1,1.0,0.2394010000000435
368,24,0.5,0.0,35.0,-1,0.0,0.25070000000027903
369,24,0.2,0.0,35.0,1,1.0,0.5495999999998276
370,24,0.5,1.0,35.0,1,1.0,0.25099999999997635
371,24,0.5,0.0625,35.0,1,1.0,0.3363000000001648
372,24,0.5,0.25,35.0,1,1.0,0.27769999999986794
373,24,0.5,0.125,-35.0,1,0.0,0.30989999999997053
374,24,0.5,0.0625,-35.0,1,0.0,0.25470100000006823
375,24,0.5,0.0625,35.0,1,1.0,0.4735000000000582
376,24,0.5,1.0,35.0,1,1.0,0.5548009999999977
377,24,0.5,1.0,35.0,1,1.0,0.30359999999996035
378,24,0.5,0.25,-35.0,-1,1.0,0.45810000000005857
379,24,0.5,1.0,35.0,1,1.0,0.2674010000000635
380,24,0.5,0.0,-35.0,-1,1.0,0.2716000000000349
381,24,0.5,1.0,-35.0,-1,1.0,0.3508999999999105
382,24,0.5,1.0,-35.0,-1,1.0,0.38190000000008695
383,24,0.5,0.0625,35.0,1,1.0,0.6276000000002568
384,24,0.5,0.0625,-35.0,1,0.0,0.28890000000023974
385,24,0.5,0.125,35.0,-1,0.0,0.23430000000007567
386,24,0.5,0.125,35.0,-1,0.0,0.20880000000011023
387,24,0.5,1.0,-35.0,-1,1.0,0.22790100000020175
388,24,0.5,0.0625,35.0,-1,0.0,0.2594010000000253
389,24,0.5,0.25,35.0,1,1.0,0.3045999999999367
390,24,0.5,0.125,35.0,1,1.0,0.30310000000008586
391,24,0.5,0.0,-35.0,1,0.0,0.42830000000003565
392,24,0.5,0.125,35.0,-1,0.0,0.20000000000004547
393,24,0.5,0.125,-35.0,1,0.0,0.27520000000004075
394,24,0.5,1.0,35.0,1,1.0,0.26999999999975444
395,24,0.5,0.25,35.0,1,1.0,0.2919999999999163
396,24,0.5,0.0,35.0,1,1.0,0.1436999999998534
397,24,0.5,0.0625,-35.0,-1,1.0,1.8457009999999627
398,24,0.5,0.125,35.0,1,1.0,0.32320000000026994
399,24,0.5,0.125,35.0,1,1.0,0.2788999999997941
400,24,0.5,0.0,35.0,1,1.0,0.31009999999992033
401,24,0.5,0.0625,35.0,1,1.0,0.2925999999999931
402,24,0.5,0.125,35.0,1,1.0,0.2771010000001297
403,24,0.5,0.25,-35.0,-1,1.0,0.4128009999999449
404,24,0.5,0.0625,35.0,-1,0.0,0.8106000000000222
405,24,0.7,0.0625,-35.0,1,0.0,0.3362999999999374
406,24,0.5,1.0,35.0,1,1.0,0.27830100000005586
407,24,0.5,0.0625,35.0,1,1.0,0.3064999999999145
408,24,0.5,0.0,-35.0,1,0.0,0.3313010000001668
409,24,0.5,0.25,35.0,1,1.0,0.24649999999996908
410,24,0.5,0.125,35.0,1,1.0,0.29930100000001403
411,24,0.5,1.0,35.0,1,1.0,2.3968999999999596
412,24,0.5,0.125,35.0,1,1.0,0.2294000000001688
413,24,0.5,0.125,35.0,1,1.0,0.26710000000002765
414,24,0.5,0.125,-35.0,1,0.0,0.43630099999995764
415,24,1.0,0.125,35.0,1,1.0,0.2438999999999396
416,24,0.5,1.0,-35.0,1,0.0,0.2720010000000457
417,24,0.5,0.25,-35.0,-1,1.0,0.25080000000002656
418,24,0.5,0.25,-35.0,-1,1.0,0.3120000000001255
419,24,0.5,0.0,-35.0,1,0.0,0.2676010000000133
420,24,0.5,0.0,35.0,1,1.0,0.4923999999998614
421,24,0.5,0.0,-35.0,1,0.0,2.1976999999999407
422,24,0.8,0.0,-35.0,1,0.0,0.539100999999846
423,24,0.5,1.0,-35.0,-1,1.0,0.49450000000001637
424,24,0.5,0.25,-35.0,1,0.0,0.2965009999998074
425,24,0.7,0.25,35.0,1,1.0,0.4514999999998963
426,24,0.5,1.0,-35.0,-1,1.0,0.2826999999999771
427,24,0.5,0.0,35.0,-1,0.0,0.6917000000000826
428,24,0.5,0.0625,35.0,1,1.0,0.2535000000000309
429,24,0.5,0.0625,-35.0,-1,1.0,0.2219000000000051
430,24,0.5,0.0625,35.0,1,1.0,0.45669999999995525
431,24,0.5,0.0625,-35.0,1,0.0,1.1052009999998518
432,24,0.5,0.0625,-35.0,-1,1.0,0.3997999999999138
433,24,0.5,0.0,-35.0,-1,1.0,0.27559999999994034
434,24,0.5,0.0625,35.0,1,1.0,0.32690099999990707
435,24,0.5,1.0,-35.0,-1,1.0,0.4959000000001197
436,24,0.5,1.0,35.0,1,1.0,0.213600999999926
437,24,0.5,0.0625,-35.0,1,0.0,2.259300999999823
438,24,0.6,0.0625,-35.0,1,0.0,1.3603999999997995
439,24,0.5,1.0,-35.0,-1,1.0,0.25610100000017155
440,24,0.5,0.25,-35.0,-1,1.0,0.34870100000011917
441,24,0.5,0.25,-35.0,1,0.0,1.40300000000002
442,24,0.5,0.25,35.0,1,1.0,0.24230099999999766
443,24,0.5,1.0,-35.0,-1,1.0,0.30300099999999475
444,24,0.5,0.0,35.0,1,1.0,0.1876999999999498
445,24,0.5,1.0,-35.0,-1,1.0,0.2701999999999316
446,24,0.5,1.0,-35.0,-1,1.0,0.2878000000000611
447,24,0.5,0.125,-35.0,1,0.0,1.2304000000001452
448,24,0.5,0.125,35.0,1,1.0,0.3082000000001699
449,24,0.5,1.0,35.0,1,1.0,0.28720000000021173
450,24,0.5,1.0,-35.0,-1,1.0,0.44889999999986685
451,24,0.5,0.125,35.0,1,1.0,2.7571009999999205
452,24,0.5,0.125,35.0,1,1.0,0.33570000000008804
453,24,0.5,0.25,-35.0,1,0.0,0.2375010000000657
454,24,0.5,0.0,35.0,1,1.0,0.5458999999998468
455,24,0.5,0.125,35.0,1,1.0,0.7009000000002743
456,24,0.5,1.0,35.0,1,1.0,0.2754000000002179
457,24,0.5,0.25,-35.0,1,0.0,2.537900000000036
458,24,0.5,0.25,-35.0,1,0.0,0.29899999999997817
459,24,0.9,0.25,-35.0,-1,1.0,0.48139999999989413
460,24,0.5,1.0,-35.0,-1,1.0,1.2197999999998501
461,24,0.5,0.125,-35.0,-1,1.0,1.751500999999962
462,24,0.5,0.25,-35.0,-1,1.0,0.44699999999988904
463,24,0.5,0.25,-35.0,-1,1.0,0.27850100000000566
464,24,0.5,0.125,35.0,1,1.0,0.37310100000013335
465,24,0.5,0.0625,-35.0,1,0.0,0.3119000000001506
466,24,0.5,0.0625,-35.0,1,0.0,0.6137999999998556
467,24,0.5,0.0625,-35.0,1,0.0,0.5588000000000193
468,24,0.5,0.25,35.0,-1,0.0,0.2676009999997859
469,24,0.5,0.0,35.0,-1,0.0,0.2458000000001448
470,24,0.5,0.25,35.0,1,1.0,0.31720099999984086
471,24,0.5,1.0,-35.0,-1,1.0,0.3324999999999818
472,24,0.5,0.125,-35.0,-1,1.0,0.34170000000017353
473,24,0.5,0.25,35.0,1,1.0,0.3395010000001548
474,24,0.5,0.0625,35.0,1,1.0,2.37519999999995
475,24,0.5,0.125,35.0,1,1.0,0.2563999999999851
476,24,0.5,0.125,35.0,1,1.0,0.29430100000013226
477,24,0.5,0.0,-35.0,1,0.0,0.26650000000017826
478,24,0.5,0.0625,35.0,1,1.0,0.33780000000001564
479,24,0.5,0.125,-35.0,-1,1.0,0.6866999999999734
480,24,0.5,0.0,35.0,1,1.0,0.13839999999981956
481,24,0.5,0.0625,35.0,1,1.0,0.5402000000001408
482,24,0.5,0.25,-35.0,-1,1.0,0.2522999999998774
483,24,0.5,0.125,-35.0,1,0.0,0.3304000000000542
484,24,0.5,0.0,-35.0,-1,1.0,0.40850000000000364
485,24,0.5,1.0,-35.0,-1,1.0,0.35750099999995655
486,24,0.5,0.125,-35.0,-1,1.0,0.3407000000001972
487,24,0.5,0.0,35.0,1,1.0,0.5923000000000229
488,24,0.5,1.0,-35.0,-1,1.0,0.3408000000001721
489,24,0.5,1.0,-35.0,1,0.0,0.28949999999986176
490,24,0.5,0.125,-35.0,1,0.0,0.29440000000022337
491,24,0.5,0.0625,35.0,1,1.0,0.36950000000001637
492,24,0.5,0.25,-35.0,-1,1.0,0.8379010000001017
493,24,0.5,0.25,35.0,1,1.0,0.2694000000001324
494,24,0.5,1.0,-35.0,-1,1.0,0.3046999999999116
495,24,0.5,0.0625,35.0,1,1.0,0.3160000000000309
496,24,0.5,0.25,35.0,1,1.0,0.36150000000020555
497,24,0.5,1.0,35.0,1,1.0,0.2761000000000422
498,24,0.5,1.0,-35.0,-1,1.0,1.2116010000002007
499,24,0.5,0.0625,35.0,1,1.0,0.30349999999998545
500,24,0.5,0.25,35.0,1,1.0,0.33209999999985484
501,24,0.5,1.0,35.0,1,1.0,0.2828999999999269
502,24,0.5,0.125,35.0,1,1.0,0.352301000000125
503,24,0.5,0.0,35.0,-1,0.0,0.40010099999994964
504,24,0.7,0.0,-35.0,1,0.0,0.42259999999987485
505,24,0.5,1.0,-35.0,1,0.0,0.4936010000001261
506,24,0.5,0.25,35.0,1,1.0,0.3325009999998656
507,24,0.5,0.25,35.0,1,1.0,0.45040000000017244
508,24,0.5,1.0,35.0,1,1.0,0.32610099999965314
509,24,0.5,0.125,35.0,1,1.0,0.18390099999942322
510,24,0.5,1.0,35.0,1,1.0,0.5428999999999178
511,24,0.5,1.0,35.0,1,1.0,0.19079999999985375
512,24,0.5,0.0625,-35.0,1,0.0,0.5065009999998438
513,24,0.5,0.0625,-35.0,-1,1.0,0.2617999999993117
514,24,0.5,0.125,-35.0,1,0.0,4.5132009999997535
515,24,0.5,0.25,-35.0,1,0.0,0.6148009999997157
516,24,0.5,0.25,35.0,1,1.0,0.30369999999993524
517,24,0.5,1.0,35.0,1,1.0,0.328899999999976
518,24,0.5,1.0,-35.0,-1,1.0,0.2672999999995227
519,24,0.5,1.0,-35.0,-1,1.0,0.25879999999915526
520,24,0.5,0.25,35.0,1,1.0,0.30720000000019354
521,24,0.5,0.125,-35.0,1,0.0,1.0684000000001106
522,24,0.7,0.125,-35.0,-1,1.0,0.3507999999992535
523,24,0.5,1.0,-35.0,-1,1.0,0.40570100000013554
524,24,0.5,1.0,-35.0,-1,1.0,0.2943999999997686
525,24,0.5,0.25,35.0,1,1.0,0.6590009999995345
526,24,0.5,0.125,35.0,1,1.0,0.6145000000001346
527,24,0.5,0.0625,35.0,1,1.0,0.3724010000000817
528,24,0.5,0.125,35.0,1,1.0,0.32129999999961
529,24,0.5,0.0625,35.0,1,1.0,0.39249999999992724
530,24,0.5,0.0,35.0,1,1.0,0.3514999999997599
531,24,0.5,0.25,35.0,1,1.0,0.36400099999991653
532,24,0.5,0.125,35.0,1,1.0,0.43190099999992526
533,24,0.5,0.0625,35.0,1,1.0,0.6406999999999243
534,24,0.5,1.0,-35.0,-1,1.0,0.2585999999996602
535,24,0.5,0.125,35.0,1,1.0,0.3939999999997781
536,24,0.5,1.0,-35.0,-1,1.0,0.14889999999968495
537,24,0.5,0.25,35.0,1,1.0,0.3166000000001077
538,24,0.5,0.125,35.0,1,1.0,0.3654999999998836
539,24,0.5,1.0,-35.0,-1,1.0,0.24409999999943466
540,24,0.5,0.125,-35.0,1,0.0,0.8389009999996233
541,24,0.5,0.0625,35.0,1,1.0,0.3601999999996224
542,24,0.5,1.0,35.0,1,1.0,0.36940099999992526
543,24,0.5,0.125,-35.0,-1,1.0,0.2972010000003138
544,24,0.5,0.125,35.0,1,1.0,0.3293999999996231
545,24,0.5,0.0625,-35.0,1,0.0,0.4511999999999716
546,24,0.7,0.0625,-35.0,-1,1.0,0.42970100000002276
547,24,0.5,1.0,35.0,-1,0.0,0.311301000000185
548,24,0.5,0.125,-35.0,-1,1.0,0.24299999999993815
549,24,0.5,0.25,35.0,1,1.0,0.41800100000000384
550,24,0.5,1.0,35.0,1,1.0,0.3768009999998867
551,24,0.5,1.0,35.0,1,1.0,0.3011999999994259
552,24,0.5,1.0,35.0,1,1.0,0.3000999999999294
553,24,0.5,1.0,35.0,1,1.0,0.3022999999998319
554,24,0.5,0.25,35.0,1,1.0,0.36029999999982465
555,24,0.5,0.25,-35.0,-1,1.0,0.26530000000002474
556,24,0.5,0.125,35.0,1,1.0,0.30379999999968277
557,24,0.5,1.0,-35.0,-1,1.0,0.23829999999998108
558,24,0.5,0.125,35.0,1,1.0,0.33080000000018117
559,24,0.5,0.25,-35.0,-1,1.0,0.4595009999998183
560,24,0.5,0.0,-35.0,1,0.0,0.4076000000000022
561,24,0.5,0.25,35.0,1,1.0,0.39110100000016246
562,24,0.5,0.25,35.0,1,1.0,0.39239999999972497
563,24,0.5,0.0625,35.0,-1,0.0,0.3077999999995882
564,24,0.6,0.0625,35.0,1,1.0,0.46569999999974243
565,24,0.5,1.0,-35.0,-1,1.0,0.39789999999993597
566,24,0.5,0.0,35.0,-1,0.0,0.44590100000004895
567,24,0.5,0.0,-35.0,1,0.0,0.3184999999998581
568,24,0.5,0.0625,35.0,-1,0.0,0.24619999999958964
569,24,0.5,0.0625,35.0,-1,0.0,0.26499999999987267
570,24,0.5,1.0,35.0,1,1.0,0.5344000000000051
571,24,0.5,1.0,35.0,1,1.0,0.6017000000001644
572,24,0.5,0.0625,-35.0,-1,1.0,2.1865999999999985
573,24,0.5,1.0,35.0,1,1.0,0.34210099999972954
574,24,0.5,0.125,35.0,-1,0.0,0.6610000000000582
575,24,0.4,0.125,-35.0,-1,1.0,0.29890100000011444
576,24,0.5,1.0,35.0,-1,0.0,0.48019999999951324
577,24,0.5,0.0625,-35.0,-1,1.0,0.32590099999970334
578,24,0.5,1.0,35.0,1,1.0,0.601799999999912
579,24,0.5,0.0625,35.0,-1,0.0,1.3926999999994223
580,24,0.4,0.0625,35.0,1,1.0,0.5539999999996326
581,24,0.5,1.0,35.0,1,1.0,0.3966000000000349
582,24,0.5,0.0625,35.0,1,1.0,0.4478009999997994
583,24,0.5,0.0,-35.0,1,0.0,0.4465999999997621
584,24,0.5,0.125,35.0,1,1.0,0.39440099999956146
585,24,0.5,0.125,-35.0,-1,1.0,0.6703999999999724
586,24,0.5,0.0625,35.0,1,1.0,0.2717999999999847
587,24,0.5,0.25,-35.0,-1,1.0,0.8073009999993701
588,24,0.5,0.25,35.0,1,1.0,0.33359999999993306
589,24,0.5,0.125,35.0,1,1.0,0.3136999999996988
590,24,0.5,0.0625,35.0,1,1.0,0.33530100000007224
591,24,0.5,0.125,-35.0,-1,1.0,5.114200999999412
592,24,0.5,0.125,35.0,1,1.0,0.6395009999996546
593,24,0.5,0.0,35.0,1,1.0,5.280799999999999
594,24,0.5,0.0,35.0,1,1.0,0.42390000000023065
595,24,0.5,0.0625,-35.0,-1,1.0,1.018000999999913
596,24,0.5,1.0,35.0,1,1.0,0.3362000000001899
597,24,0.5,0.25,-35.0,-1,1.0,0.2682009999998627
598,24,0.5,0.25,35.0,1,1.0,4.246200999999473
599,24,0.5,0.125,-35.0,-1,1.0,0.3151999999995496
600,24,0.5,1.0,35.0,1,1.0,0.29630099999940285
601,24,0.5,0.0,-35.0,1,0.0,2.562000999999327
602,24,0.5,0.125,35.0,1,1.0,0.32010100000024977
603,24,0.5,0.0,-35.0,1,0.0,0.48889999999983047
604,24,0.5,0.0625,35.0,1,1.0,0.28700000000026193
605,24,0.5,1.0,-35.0,-1,1.0,0.46900000000005093
606,24,0.5,0.25,35.0,1,1.0,0.4782000000000153
607,24,0.5,0.0625,35.0,1,1.0,0.2691999999997279
608,24,0.5,0.0,-35.0,1,0.0,0.7239009999998416
609,24,0.5,0.25,-35.0,-1,1.0,0.5727999999999156
610,24,0.5,0.0625,-35.0,1,0.0,3.357600999999704
611,24,0.5,0.0625,35.0,1,1.0,0.4729000000002088
612,24,0.5,0.125,-35.0,-1,1.0,0.6512999999995372
613,24,0.5,1.0,35.0,1,1.0,0.7635010000003604
614,24,0.5,0.25,35.0,1,1.0,1.011700000000019
615,24,0.5,0.125,35.0,1,1.0,0.33659999999963475
616,24,0.5,0.125,-35.0,-1,1.0,2.432299999999941
617,24,0.5,0.125,-35.0,-1,1.0,1.2347999999997228
618,24,0.5,0.25,-35.0,-1,1.0,0.3505000000000109
619,24,0.5,1.0,-35.0,-1,1.0,0.253299999999399
620,24,0.5,1.0,-35.0,-1,1.0,0.287199999999757
621,24,0.5,0.25,35.0,1,1.0,0.368300999999974
622,24,0.5,0.0625,35.0,1,1.0,0.4074999999997999
623,24,0.5,0.125,35.0,1,1.0,0.2925000000000182
624,24,0.5,0.125,35.0,1,1.0,0.30080099999986487
625,24,0.5,0.0625,-35.0,1,0.0,0.47929999999996653
626,24,0.5,0.0625,-35.0,1,0.0,0.38449999999966167
627,24,0.5,0.0625,35.0,1,1.0,0.45640000000003056
628,24,0.5,1.0,-35.0,-1,1.0,0.3077999999995882
629,24,0.5,0.125,35.0,1,1.0,0.3033999999997832
630,24,0.5,0.0625,35.0,1,1.0,0.5181999999999789
631,24,0.5,1.0,35.0,1,1.0,0.2994999999996253
632,24,0.5,0.125,-35.0,1,0.0,1.4583009999996648
633,24,0.5,0.0,-35.0,1,0.0,0.4796999999994114
634,24,0.9,0.0,-35.0,1,0.0,0.6019000000001142
635,24,0.5,1.0,-35.0,-1,1.0,0.29050099999994927
636,24,0.5,0.25,35.0,1,1.0,0.5421999999994114
637,24,0.5,1.0,-35.0,-1,1.0,0.24770099999977901
638,24,0.5,0.0625,-35.0,1,0.0,0.5253999999995358
639,24,0.5,0.125,35.0,1,1.0,0.6946010000001479
640,24,0.5,0.0,-35.0,1,0.0,0.5991999999996551
641,24,0.5,0.25,-35.0,-1,1.0,0.25070000000005166
642,24,0.5,0.25,-35.0,-1,1.0,0.4593009999998685
643,24,0.5,0.125,-35.0,1,0.0,1.9377020000001721
644,24,0.5,0.0625,-35.0,1,0.0,3.1195010000001275
645,24,0.5,0.0,35.0,1,1.0,5.34490199999982
646,24,0.5,0.25,-35.0,-1,1.0,0.300101999999697
647,24,0.5,0.125,-35.0,-1,1.0,0.32490199999983815
648,24,0.5,0.0625,35.0,1,1.0,0.33360199999970064
649,24,0.5,0.125,35.0,1,1.0,0.26480099999980666
650,24,0.5,0.125,-35.0,1,0.0,0.5772019999994882
651,24,0.6,0.125,35.0,1,1.0,0.6368009999996502
652,24,0.5,1.0,-35.0,-1,1.0,0.4906019999993987
653,24,0.5,0.125,35.0,1,1.0,0.36190099999976155
654,24,0.5,0.25,-35.0,-1,1.0,0.27760099999977683
655,24,0.5,0.125,-35.0,-1,1.0,0.3021009999997659
656,24,0.5,0.125,-35.0,-1,1.0,0.3577009999994516
657,24,0.5,0.25,-35.0,-1,1.0,0.28290100000003804
658,24,0.5,1.0,-35.0,-1,1.0,0.3278009999999085
659,24,0.5,0.125,-35.0,1,0.0,0.3495020000000295
660,24,0.5,0.25,35.0,1,1.0,0.4581019999995988
661,24,0.5,1.0,-35.0,-1,1.0,0.4210019999995893
662,24,0.5,1.0,35.0,1,1.0,0.32810099999960585
663,24,0.5,1.0,-35.0,-1,1.0,0.44810099999995145
664,24,0.5,0.0625,-35.0,-1,1.0,0.5151009999999587
665,24,0.5,0.0,35.0,-1,0.0,0.37000099999977465
666,24,0.5,0.0625,35.0,1,1.0,0.4990009999992253
667,24,0.5,0.125,35.0,1,1.0,0.5067019999996774
668,24,0.5,0.125,-35.0,-1,1.0,0.2556019999997261
669,24,0.5,1.0,35.0,1,1.0,0.3377009999994698
670,24,0.5,1.0,35.0,1,1.0,0.30580099999951926
671,24,0.5,0.0,-35.0,-1,1.0,0.2941009999999551
672,24,0.5,0.0,35.0,1,1.0,2.1493009999994683
673,24,0.5,0.0625,-35.0,-1,1.0,0.31110099999978047
674,24,0.5,0.125,-35.0,-1,1.0,1.1829009999992195
675,24,0.5,0.25,-35.0,1,0.0,1.3074010000000271
676,24,0.5,0.25,35.0,1,1.0,0.4795009999998001
677,24,0.5,1.0,-35.0,-1,1.0,0.22820100000035382
678,24,0.5,1.0,35.0,1,1.0,0.28650199999992765
679,24,0.5,0.0,35.0,1,1.0,0.5612019999994118
680,24,0.5,0.25,35.0,1,1.0,0.29670100000021193
681,24,0.5,1.0,-35.0,-1,1.0,0.37930199999982506
682,24,0.5,0.25,35.0,1,1.0,0.31690100000014354
683,24,0.5,0.25,-35.0,-1,1.0,0.3115020000000186
684,24,0.5,0.125,-35.0,-1,1.0,0.8606019999997443
685,24,0.5,0.125,35.0,1,1.0,0.4323009999993701
686,24,0.5,0.125,-35.0,1,0.0,0.5441019999998389
687,24,0.5,0.125,-35.0,-1,1.0,0.319000999999389
688,24,0.5,1.0,-35.0,-1,1.0,0.39750099999992017
689,24,0.5,1.0,35.0,1,1.0,0.2823019999996177
690,24,0.5,1.0,-35.0,-1,1.0,0.2710009999996146
691,24,0.5,1.0,35.0,1,1.0,0.23740099999986342
692,24,0.5,0.0625,-35.0,-1,1.0,0.24780199999941033
693,24,0.5,0.125,35.0,1,1.0,0.5824009999996633
694,24,0.5,1.0,35.0,1,1.0,0.29800099999965823
695,24,0.5,0.125,35.0,1,1.0,0.30590099999972153
696,24,0.5,1.0,35.0,1,1.0,0.37140199999976176
697,24,0.5,0.125,-35.0,-1,1.0,0.24640199999976176
698,24,0.5,1.0,35.0,-1,0.0,0.3951009999996131
699,24,0.5,0.0625,-35.0,-1,1.0,0.23040199999968536
700,24,0.5,1.0,-35.0,-1,1.0,0.4052009999995789
701,24,0.5,0.25,35.0,1,1.0,0.3545009999998001
702,24,0.5,0.125,-35.0,1,0.0,2.3453009999998358
703,24,0.6,0.125,-35.0,-1,1.0,0.25030100000003586
704,24,0.5,1.0,-35.0,-1,1.0,0.21550200000001496
705,24,0.5,0.125,35.0,-1,0.0,0.28170200000022305
706,24,0.5,0.0625,-35.0,-1,1.0,0.2492010000000846
707,24,0.5,0.25,35.0,1,1.0,0.4436009999999442
708,24,0.5,1.0,35.0,1,1.0,0.5192019999999502
709,24,0.5,0.0625,-35.0,1,0.0,1.2207009999997354
710,24,0.5,0.25,-35.0,-1,1.0,0.4063009999999849
711,24,0.5,1.0,35.0,1,1.0,0.2476010000000315
712,24,0.5,0.125,-35.0,-1,1.0,0.23620199999959368
713,24,0.5,0.0,35.0,-1,0.0,0.23790199999984907
714,24,0.5,0.25,-35.0,-1,1.0,0.2800010000000839
715,24,0.5,1.0,35.0,1,1.0,0.6287009999996371
716,24,0.5,0.0625,35.0,1,1.0,1.0734009999996488
717,24,0.5,0.0625,35.0,1,1.0,0.365802000000258
718,24,0.5,0.25,-35.0,-1,1.0,0.4771019999998316
719,24,0.5,1.0,-35.0,-1,1.0,0.408900999999787
720,24,0.5,0.0625,35.0,1,1.0,0.5638020000001234
721,24,0.5,0.0625,-35.0,-1,1.0,0.5622009999997317
722,24,0.5,1.0,-35.0,-1,1.0,0.2541009999999915
723,24,0.5,0.125,35.0,1,1.0,0.2686009999997623
724,24,0.5,0.125,-35.0,-1,1.0,0.33780199999955585
725,24,0.5,1.0,35.0,1,1.0,0.23990199999980177
726,24,0.5,0.0625,-35.0,1,0.0,1.5045019999997749
727,24,0.5,0.0625,-35.0,-1,1.0,0.2740019999996548
728,24,0.5,1.0,-35.0,-1,1.0,0.2615019999998367
729,24,0.5,1.0,35.0,1,1.0,0.2239009999998416
730,24,0.5,0.0,35.0,1,1.0,0.35820099999955346
731,24,0.5,0.0625,35.0,1,1.0,0.8630009999997128
732,24,0.5,1.0,35.0,1,1.0,0.23840199999995093
733,24,0.5,0.0,-35.0,1,0.0,0.3398019999999633
734,24,0.5,0.25,-35.0,-1,1.0,0.2653019999997923
735,24,0.5,0.125,35.0,-1,0.0,0.29810099999940576
736,24,0.5,0.25,-35.0,-1,1.0,0.27550099999962185
737,24,0.5,0.25,-35.0,-1,1.0,0.24340099999972153
738,24,0.5,1.0,35.0,1,1.0,0.2890019999999822
739,24,0.5,1.0,-35.0,-1,1.0,0.4310009999999238
740,24,0.5,0.0625,35.0,1,1.0,0.3325009999998656
741,24,0.5,1.0,35.0,1,1.0,0.20390099999985978
742,24,0.5,0.125,-35.0,1,0.0,0.4996009999999842
743,24,0.5,0.125,35.0,1,1.0,0.2511009999993803
744,24,0.5,0.125,35.0,1,1.0,0.28300099999978556
745,24,0.5,0.125,35.0,1,1.0,1.8412019999996119
746,24,0.5,0.25,-35.0,-1,1.0,0.740002000000004
747,24,0.5,0.0,-35.0,1,0.0,0.39780099999916274
748,24,0.5,0.125,35.0,1,1.0,0.26340099999970334
749,24,0.5,0.25,35.0,1,1.0,0.24520099999972444
750,24,0.5,0.125,35.0,1,1.0,0.2838010000000395
751,24,0.5,0.0625,35.0,-1,0.0,0.4283009999994647
752,24,0.5,0.0,-35.0,1,0.0,0.4538009999996575
753,24,0.5,0.0625,35.0,1,1.0,0.29530099999965387
754,24,0.5,1.0,35.0,1,1.0,0.260700999999699
755,24,0.5,0.125,35.0,1,1.0,0.38630099999954837
756,24,0.5,0.125,-35.0,1,0.0,2.274101999999857
757,24,0.5,0.0,-35.0,-1,1.0,0.4234009999995578
758,24,0.5,1.0,35.0,1,1.0,0.3546019999998862
759,24,0.5,0.0625,-35.0,-1,1.0,0.7164009999996779
760,24,0.5,1.0,35.0,1,1.0,0.4179009999993468
761,24,0.5,0.25,35.0,1,1.0,0.24640099999942322
762,24,0.5,1.0,-35.0,1,0.0,0.3015019999998003
763,24,0.5,0.25,35.0,1,1.0,0.2904019999996308
764,24,0.5,1.0,-35.0,-1,1.0,0.5452009999999063
765,24,0.5,0.0625,-35.0,-1,1.0,0.5104009999995469
766,24,0.5,0.25,35.0,1,1.0,0.36190099999976155
767,24,0.5,0.0625,35.0,1,1.0,0.6005009999998947
768,24,0.5,1.0,-35.0,-1,1.0,0.28200099999958184
769,24,0.5,0.125,-35.0,-1,1.0,0.5335019999997712
770,24,0.5,1.0,35.0,1,1.0,0.28230200000007244
771,24,0.5,1.0,-35.0,-1,1.0,0.23360199999933684
772,24,0.5,0.125,-35.0,1,0.0,0.26910199999974793
773,24,0.5,0.25,-35.0,-1,1.0,0.35710100000005696
774,24,0.5,0.25,-35.0,-1,1.0,0.7626009999994494
775,24,0.5,0.0,-35.0,1,0.0,0.2872010000000955
776,24,0.5,0.0,-35.0,1,0.0,0.25270099999988815
777,24,0.5,1.0,-35.0,-1,1.0,0.25730099999964295
778,24,0.5,0.0,35.0,-1,0.0,0.4530019999997421
779,24,0.5,0.125,35.0,1,1.0,0.38770100000010643
780,24,0.5,0.25,-35.0,-1,1.0,0.22320099999978993
781,24,0.5,0.0625,35.0,1,1.0,0.3087020000002667
782,24,0.5,0.0,35.0,-1,0.0,0.7933010000001559
783,24,0.5,0.0625,-35.0,-1,1.0,0.4756009999996422
784,24,0.5,0.125,-35.0,-1,1.0,2.326702000000296
785,24,0.5,0.125,35.0,1,1.0,0.7277009999997972
786,24,0.5,0.125,35.0,1,1.0,0.5271010000001297
787,24,0.5,0.125,35.0,1,1.0,0.2788019999993594
788,24,0.5,0.0625,35.0,1,1.0,0.3440019999998185
789,24,0.5,0.25,35.0,1,1.0,0.39870099999961894
790,24,0.5,0.125,35.0,1,1.0,0.39410099999986414
791,24,0.5,0.25,35.0,1,1.0,1.1688019999996868
792,24,0.5,0.0625,-35.0,1,0.0,0.3511009999997441
793,24,0.8,0.0625,-35.0,-1,1.0,0.3928009999999631
794,24,0.5,1.0,35.0,1,1.0,0.24450200000001132
795,24,0.5,0.0,35.0,-1,0.0,0.31580199999962133
796,24,0.5,0.25,-35.0,1,0.0,0.49800199999981487
797,24,0.5,0.125,35.0,1,1.0,0.332901999999649
798,24,0.5,0.125,-35.0,1,0.0,1.934701000000132
799,24,0.8,0.125,-35.0,-1,1.0,0.4034019999994598
800,24,0.5,1.0,-35.0,-1,1.0,0.26170099999944796
801,24,0.5,0.0625,-35.0,-1,1.0,2.5439009999995505
802,24,0.5,0.0625,35.0,1,1.0,0.4389009999999871
803,24,0.5,0.125,-35.0,-1,1.0,0.31680199999982506
804,24,0.5,1.0,35.0,1,1.0,0.2757019999999102
805,24,0.5,1.0,-35.0,-1,1.0,0.29660199999989345
806,24,0.5,0.125,-35.0,1,0.0,0.3090009999996255
807,24,0.5,0.25,-35.0,-1,1.0,0.376901999999518
808,24,0.5,0.25,-35.0,-1,1.0,0.4160009999995964
809,24,0.5,0.0,-35.0,-1,1.0,0.3141009999999369
810,24,0.5,1.0,35.0,1,1.0,0.34610099999963495
811,24,0.5,0.25,35.0,1,1.0,0.3416019999999662
812,24,0.5,0.0,35.0,-1,0.0,9.596402000000126
813,24,0.5,0.125,-35.0,-1,1.0,0.31820099999958984
814,24,0.5,0.125,35.0,1,1.0,0.41000099999973827
815,24,0.5,0.0625,35.0,1,1.0,0.4522019999994882
816,24,0.5,0.0625,-35.0,1,0.0,0.4971019999998134
817,24,0.5,0.0625,-35.0,-1,1.0,1.2448009999998249
818,24,0.5,1.0,35.0,-1,0.0,0.27380099999936647
819,24,0.5,0.25,35.0,1,1.0,0.39530199999990145
820,24,0.5,1.0,35.0,1,1.0,0.3173009999995884
821,24,0.5,0.125,-35.0,-1,1.0,0.752100999999584
822,24,0.5,0.125,-35.0,1,0.0,5.514300999999705
823,24,0.5,0.25,35.0,1,1.0,0.2823009999997339
824,24,0.5,0.25,35.0,1,1.0,0.3543009999998503
825,24,0.5,1.0,-35.0,-1,1.0,0.3590009999998074
826,24,0.5,0.0,-35.0,1,0.0,3.2582009999996444
827,24,0.5,0.0625,35.0,1,1.0,0.25590099999953964
828,24,0.5,1.0,-35.0,-1,1.0,0.288300999999592
829,24,0.5,0.25,-35.0,-1,1.0,0.6974009999998998
830,24,0.5,0.0625,-35.0,-1,1.0,1.3119019999999182
831,24,0.5,0.125,35.0,1,1.0,0.4598009999995156
832,24,0.5,0.0,35.0,1,1.0,3.275301000000127
833,24,0.5,0.0625,-35.0,-1,1.0,0.34050200000001496
834,24,0.5,0.125,-35.0,-1,1.0,0.3056010000000242
835,24,0.5,0.0625,-35.0,1,0.0,0.4134009999997943
836,24,0.5,0.0625,35.0,-1,0.0,0.8558010000001559
837,24,0.5,1.0,35.0,1,1.0,0.7205009999997856
838,24,0.5,0.25,-35.0,-1,1.0,0.43280199999935576
839,24,0.5,0.25,-35.0,-1,1.0,0.2874010000000453
840,24,0.5,0.25,-35.0,-1,1.0,0.289400999999998
841,24,0.5,0.25,35.0,1,1.0,0.6775010000001203
842,24,0.5,1.0,-35.0,-1,1.0,0.40640099999973245
843,24,0.5,0.0625,35.0,1,1.0,0.2875019999996766
844,24,0.5,0.25,-35.0,1,0.0,0.39990099999977247
845,24,0.5,0.25,35.0,1,1.0,0.24160099999971862
846,24,0.5,1.0,35.0,1,1.0,0.5001009999996313
847,24,0.5,1.0,-35.0,-1,1.0,0.33560199999965334
848,24,0.5,0.0625,-35.0,-1,1.0,0.41350199999988035
849,24,0.5,0.25,-35.0,-1,1.0,0.8457020000000739
850,24,0.5,0.125,35.0,1,1.0,0.2571020000000317
851,24,0.5,0.125,-35.0,1,0.0,0.3005009999997128
852,24,0.5,0.0625,35.0,1,1.0,0.4728020000002289
853,24,0.5,0.25,-35.0,-1,1.0,0.2806020000002718
854,24,0.5,0.25,35.0,1,1.0,0.5067009999997936
855,24,0.5,1.0,35.0,1,1.0,0.30100099999981467
856,24,0.5,0.125,-35.0,-1,1.0,0.2325019999993856
857,24,0.5,0.0,35.0,1,1.0,0.30100099999981467
858,24,0.5,0.0,35.0,-1,0.0,0.5798009999998612
859,24,0.6,0.0,-35.0,1,0.0,0.27110099999981685
860,24,0.5,1.0,-35.0,-1,1.0,0.26280099999985396
861,24,0.5,0.0,35.0,1,1.0,1.6980020000000877
862,24,0.5,0.25,35.0,1,1.0,0.5964019999996708
863,24,0.5,0.25,35.0,1,1.0,0.3118010000002869
864,24,0.5,0.25,35.0,1,1.0,0.544800999999552
865,24,0.5,0.0,35.0,1,1.0,0.3753019999994649
866,24,0.5,1.0,35.0,1,1.0,0.321002000000135
867,24,0.5,0.25,-35.0,1,0.0,3.9221019999995406
868,24,0.5,0.125,-35.0,-1,1.0,0.4848009999996066
869,24,0.5,0.0,35.0,1,1.0,2.885801999999785
870,24,0.5,0.0625,35.0,1,1.0,0.3039019999996526
871,24,0.5,0.125,-35.0,1,0.0,6.509200999999848
872,24,0.5,0.0,35.0,-1,0.0,0.6282019999998738
873,24,0.5,0.25,-35.0,-1,1.0,0.4640009999998256
874,24,0.5,0.0625,35.0,1,1.0,0.34410199999956603
875,24,0.5,1.0,-35.0,1,0.0,0.22650100000009843
876,24,0.5,0.125,-35.0,1,0.0,0.3244009999998525
877,24,0.7,0.125,-35.0,1,0.0,11.92330099999981
878,24,0.5,1.0,-35.0,-1,1.0,0.48910199999954784
879,24,0.5,0.25,-35.0,1,0.0,3.7972020000001976
880,24,0.5,0.0625,35.0,1,1.0,0.8371009999996204
881,24,0.5,0.0,35.0,1,1.0,5.694101999999475
882,24,0.5,0.0625,35.0,1,1.0,6.845600999999988
883,24,0.5,1.0,35.0,1,1.0,0.38120100000014645
884,24,0.5,1.0,35.0,1,1.0,0.31720199999972465
885,24,0.5,1.0,35.0,1,1.0,0.32510099999990416
886,24,0.5,1.0,35.0,1,1.0,0.43940100000008897
887,24,0.5,0.0625,-35.0,-1,1.0,1.9119009999994887
888,24,0.5,0.125,35.0,1,1.0,2.563101999999617
889,24,0.5,0.125,35.0,1,1.0,0.2653009999999085
890,24,0.5,0.0625,-35.0,1,0.0,2.5103009999997994
891,24,0.5,0.125,35.0,1,1.0,5.562000999999782
892,24,0.5,0.0,-35.0,1,0.0,1.37400099999968
893,24,0.5,0.125,35.0,1,1.0,0.3559019999997872
894,24,0.5,0.25,-35.0,-1,1.0,0.2745009999998729
895,24,0.5,0.125,35.0,-1,0.0,0.4995009999993272
896,24,0.5,0.0625,35.0,-1,0.0,2.857600999999704
897,24,0.5,0.25,35.0,1,1.0,0.8997009999998227
898,24,0.5,1.0,-35.0,-1,1.0,0.34150099999988015
899,24,0.5,1.0,35.0,1,1.0,0.26650100000006205
900,24,0.5,0.0625,35.0,1,1.0,2.3581019999996897
901,24,0.5,0.0,35.0,1,1.0,0.7434019999996053
902,24,0.5,0.0,-35.0,1,0.0,2.485200999999961
903,24,0.6,0.0,35.0,1,1.0,14.103700999999546
904,24,0.5,1.0,-35.0,-1,1.0,0.405301999999665
905,24,0.5,0.0625,-35.0,1,0.0,0.5443009999999049
906,24,0.5,0.0,-35.0,1,0.0,1.5628010000000359
907,24,0.5,0.0,-35.0,1,0.0,3.077900999999656
908,24,0.5,0.125,-35.0,1,0.0,24.56980199999998
909,24,0.5,0.25,35.0,1,1.0,4.445201999999881
910,24,0.5,0.125,-35.0,-1,1.0,0.3768019999997705
911,24,0.5,0.0625,35.0,-1,0.0,0.3323009999999158
912,24,0.7,0.0625,35.0,1,1.0,0.6408010000000104
913,24,0.5,1.0,-35.0,-1,1.0,0.5325020000000222
914,24,0.5,0.0,35.0,1,1.0,1.9148010000003524
915,24,0.5,1.0,-35.0,-1,1.0,0.2960009999997055
916,24,0.5,0.0,35.0,1,1.0,17.050900999999612
917,24,0.5,1.0,-35.0,-1,1.0,0.5499009999998634
918,24,0.5,0.125,-35.0,-1,1.0,0.5219019999999546
919,24,0.5,1.0,35.0,1,1.0,0.48690099999976155
920,24,0.5,0.25,-35.0,-1,1.0,0.32490099999995437
921,24,0.5,0.0,35.0,1,1.0,0.36370199999964825
922,24,0.5,1.0,35.0,1,1.0,0.2919010000000526
923,24,0.5,0.25,35.0,1,1.0,0.3740020000000186
924,24,0.5,1.0,35.0,1,1.0,0.3200010000000475
925,24,0.5,0.25,-35.0,-1,1.0,0.4774009999991904
926,24,0.5,1.0,35.0,1,1.0,0.2829009999995833
927,24,0.5,0.0625,-35.0,1,0.0,3.837601999999606
928,24,0.5,0.25,-35.0,-1,1.0,0.5091019999999844
929,24,0.5,1.0,-35.0,-1,1.0,0.301202000000103
930,24,0.5,0.25,-35.0,-1,1.0,2.4502019999995355
931,24,0.5,0.25,35.0,1,1.0,0.28460099999938393
932,24,0.5,0.25,-35.0,1,0.0,7.546200999999655
933,24,0.5,0.25,35.0,1,1.0,0.2983009999998103
934,24,0.5,0.0625,35.0,-1,0.0,0.35320099999989907
935,24,0.5,0.0,-35.0,1,0.0,21.68540099999973
936,24,0.5,0.25,-35.0,-1,1.0,0.4224020000001474
937,24,0.5,0.125,-35.0,-1,1.0,0.4743010000001959
938,24,0.5,0.0,-35.0,1,0.0,0.452701000000161
939,24,0.5,0.0625,35.0,1,1.0,0.5784009999997579
940,24,0.5,0.0625,35.0,1,1.0,0.5364009999998416
941,24,0.5,0.0625,-35.0,1,0.0,0.5093009999995957
942,24,0.5,0.25,-35.0,-1,1.0,0.3730009999999311
943,24,0.5,0.0,-35.0,1,0.0,14.204501000000164
944,24,0.5,0.25,35.0,1,1.0,0.36720100000002276
945,24,0.5,0.125,-35.0,-1,1.0,0.4817009999997026
946,24,0.5,0.25,35.0,-1,0.0,3.5608009999996284
947,24,0.5,0.25,-35.0,-1,1.0,2.993500999999924
948,24,0.5,1.0,35.0,1,1.0,5.1776010000003225
949,24,0.5,0.125,35.0,1,1.0,3.3657010000006267
950,24,0.5,0.125,-35.0,0,0.0,60.031300999999985
951,24,0.5,0.125,-35.0,1,0.0,48.30300200000056
952,24,0.5,0.25,35.0,1,1.0,13.30750100000023
953,24,0.5,0.0625,35.0,1,1.0,2.567101999999977
954,24,0.5,0.125,35.0,1,1.0,0.3780010000009497
955,24,0.5,0.0,-35.0,1,0.0,0.28310099999998783
956,24,0.8,0.0,-35.0,1,0.0,4.7883010000005015
957,24,0.5,1.0,-35.0,-1,1.0,0.30120200000055775
958,24,0.5,0.0625,-35.0,1,0.0,17.742001000000528
959,24,0.5,0.0625,35.0,1,1.0,9.167301000000407
960,24,0.5,0.0,-35.0,1,0.0,15.226001000000906
961,24,0.5,0.25,35.0,1,1.0,20.681800999999723
962,24,0.5,0.25,35.0,1,1.0,4.383701000000656
963,24,0.5,0.125,35.0,1,1.0,11.546401999999034
964,24,0.5,0.125,35.0,1,1.0,7.281001999999717
965,24,0.5,0.125,35.0,1,1.0,5.413601000000199
966,24,0.5,0.125,-35.0,0,0.0,60.02830100000028
967,24,0.5,0.0625,35.0,1,1.0,9.407901999999922
968,24,0.5,0.25,-35.0,-1,1.0,0.31190200000037294
969,24,0.5,0.0625,35.0,1,1.0,0.7600010000005568
970,24,0.5,1.0,35.0,1,1.0,8.36500100000012
971,24,0.5,0.0625,-35.0,1,0.0,26.417101000000002
972,24,0.9,0.0625,-35.0,1,0.0,11.626600999999937
973,24,0.5,1.0,-35.0,-1,1.0,0.35840100000041275
974,24,0.5,0.0625,35.0,1,1.0,2.807201999999961
975,24,0.5,0.125,35.0,1,1.0,8.925102000001061
976,24,0.5,0.125,-35.0,1,0.0,5.57430100000056
977,24,0.5,0.125,-35.0,1,0.0,5.349100999999791
978,24,0.5,0.25,-35.0,1,0.0,7.157202000000325
979,24,0.5,0.25,35.0,-1,0.0,1.833201999999801
980,24,0.8,0.25,35.0,1,1.0,3.7882010000012087
981,24,0.5,1.0,-35.0,1,0.0,4.163401000000704
982,24,0.5,0.0625,-35.0,1,0.0,13.74170199999935
983,24,0.8,0.0625,-35.0,1,0.0,5.3541009999999005
984,24,0.5,1.0,-35.0,-1,1.0,0.4154019999996308
985,24,0.5,0.125,-35.0,1,0.0,1.1677010000003065
986,24,0.8,0.125,-35.0,1,0.0,5.1096010000001115
987,24,0.5,1.0,-35.0,1,0.0,16.847901000000093
988,24,0.8,1.0,35.0,1,1.0,13.020401000000675
989,24,0.5,1.0,-35.0,-1,1.0,0.4123010000002978
990,24,0.5,0.0,-35.0,1,0.0,6.350601000000097
991,24,0.5,0.125,-35.0,1,0.0,1.0359010000001945
992,24,0.5,0.125,35.0,1,1.0,12.807401000000937
993,24,0.5,0.125,-35.0,1,0.0,9.936402000000271
994,24,0.5,0.25,35.0,1,1.0,1.1187010000003283
995,24,0.5,0.0625,-35.0,1,0.0,9.540301000000909
1,25,0.5,0.25,-35.0,-1,1.0,0.2748999999999997
2,25,0.5,0.125,35.0,1,1.0,0.39750000000000085
3,25,0.5,0.125,-35.0,-1,1.0,3.0034990000000015
4,25,0.5,0.0625,35.0,1,1.0,4.820399
5,25,0.5,0.0,-35.0,1,0.0,0.21669900000000197
6,25,0.8,0.0,35.0,1,1.0,0.339299000000004
7,25,0.5,1.0,-35.0,-1,1.0,0.25109999999999744
8,25,0.5,0.0625,-35.0,1,0.0,4.011999000000003
9,25,0.5,0.25,-35.0,-1,1.0,0.17850000000000676
10,25,0.5,0.25,35.0,-1,0.0,0.2996000000000052
11,25,0.5,0.25,-35.0,-1,1.0,0.25999900000000054
12,25,0.5,0.0625,-35.0,1,0.0,3.584099000000002
13,25,0.5,0.25,-35.0,-1,1.0,0.25719899999999996
14,25,0.5,0.25,-35.0,-1,1.0,0.24559999999999604
15,25,0.5,0.25,-35.0,-1,1.0,0.2441999999999922
16,25,0.5,0.125,35.0,1,1.0,4.718098999999995
17,25,0.5,1.0,-35.0,-1,1.0,0.6962989999999962
18,25,0.5,0.25,35.0,1,1.0,2.8932999999999964
19,25,0.5,1.0,35.0,1,1.0,0.3760000000000048
20,25,0.5,0.125,-35.0,-1,1.0,0.7487990000000053
21,25,0.5,0.0,-35.0,1,0.0,4.253598999999994
22,25,0.5,0.0,35.0,-1,0.0,0.28809900000000255
23,25,0.5,1.0,35.0,1,1.0,0.23869899999999689
24,25,0.5,0.25,35.0,1,1.0,0.2755999999999972
25,25,0.5,0.125,-35.0,1,0.0,4.450598999999997
26,25,0.5,0.0625,-35.0,1,0.0,0.4997989999999959
27,25,0.5,0.125,35.0,-1,0.0,0.26329999999998677
28,25,0.7,0.125,-35.0,1,0.0,0.31619899999998324
29,25,0.5,1.0,-35.0,-1,1.0,0.24960000000001514
30,25,0.5,0.125,-35.0,1,0.0,9.41919999999999
31,25,0.7,0.125,-35.0,1,0.0,1.6658999999999935
32,25,0.5,1.0,-35.0,-1,1.0,0.2820989999999597
33,25,0.5,0.125,-35.0,-1,1.0,0.7837989999999877
34,25,0.5,0.0,-35.0,1,0.0,3.220400000000012
35,25,0.5,0.25,35.0,1,1.0,0.29110000000000014
36,25,0.5,0.125,35.0,1,1.0,0.2890989999999931
37,25,0.5,0.125,-35.0,-1,1.0,0.30869899999999006
38,25,0.5,0.125,35.0,1,1.0,0.24389899999999898
39,25,0.5,0.0625,-35.0,-1,1.0,0.26429999999999154
40,25,0.5,0.125,-35.0,-1,1.0,0.28509900000000243
41,25,0.5,0.0625,35.0,1,1.0,11.80959900000002
42,25,0.5,0.125,35.0,1,1.0,0.39920000000000755
43,25,0.5,1.0,35.0,-1,0.0,3.2660989999999686
44,25,0.5,0.25,35.0,-1,0.0,0.7151989999999842
45,25,0.5,0.25,-35.0,-1,1.0,0.24130000000002383
46,25,0.5,1.0,-35.0,-1,1.0,0.2762989999999945
47,25,0.5,0.0625,35.0,1,1.0,3.864299999999986
48,25,0.5,0.0625,-35.0,1,0.0,0.1612999999999829
49,25,0.5,0.125,35.0,-1,0.0,0.2703989999999976
50,25,0.5,0.125,-35.0,-1,1.0,0.6747989999999788
51,25,0.5,0.25,-35.0,-1,1.0,0.2637990000000059
52,25,0.5,0.25,35.0,1,1.0,0.6563990000000217
53,25,0.5,0.125,-35.0,1,0.0,4.979698999999982
54,25,0.5,0.0625,-35.0,1,0.0,0.35840000000001737
55,25,0.5,0.0625,35.0,-1,0.0,0.26759900000001835
56,25,0.5,0.0625,-35.0,-1,1.0,0.26349900000002435
57,25,0.5,1.0,-35.0,-1,1.0,0.2953990000000317
58,25,0.5,0.25,35.0,-1,0.0,2.8019990000000234
59,25,0.5,0.25,-35.0,-1,1.0,0.41399999999998727
60,25,0.5,0.0625,35.0,1,1.0,3.8540989999999624
61,25,0.5,0.125,-35.0,1,0.0,0.4748989999999367
62,25,0.5,0.125,35.0,1,1.0,0.26479899999998224
63,25,0.5,1.0,-35.0,-1,1.0,0.28600000000000136
64,25,0.5,0.0,35.0,-1,0.0,0.8835999999999444
65,25,0.5,0.0625,35.0,1,1.0,0.45339899999999034
66,25,0.5,0.125,35.0,-1,0.0,1.5451989999999682
67,25,0.5,0.125,35.0,1,1.0,0.2675989999999615
68,25,0.5,0.0,-35.0,-1,1.0,2.224599000000012
69,25,0.5,1.0,-35.0,-1,1.0,0.2576000000000249
70,25,0.5,0.0,35.0,-1,0.0,0.26959899999997106
71,25,0.4,0.0,-35.0,1,0.0,0.3263000000000602
72,25,0.5,1.0,35.0,1,1.0,0.2717999999999847
73,25,0.5,0.25,-35.0,1,0.0,0.15069999999997208
74,25,0.5,0.25,35.0,-1,0.0,0.26139999999998054
75,25,0.5,1.0,-35.0,-1,1.0,0.6538000000000466
76,25,0.5,0.0625,-35.0,1,0.0,2.4962000000000444
77,25,0.5,0.0625,-35.0,-1,1.0,0.45399900000001026
78,25,0.5,1.0,-35.0,-1,1.0,0.41689999999994143
79,25,0.5,0.0625,-35.0,-1,1.0,0.28279900000001135
80,25,0.5,0.0625,35.0,1,1.0,0.40989999999999327
81,25,0.5,0.25,-35.0,-1,1.0,0.4695989999999597
