trial_num,session_num,stim_probability_left,contrast,position,response_choice,trial_correct,reaction_time
1,1,0.5,0.25,-35.0,-1,1.0,0.19399999999999995
2,1,0.5,0.125,35.0,1,1.0,0.3889999999999998
3,1,0.5,1.0,-35.0,-1,1.0,0.45039999999999925
4,1,0.5,0.0,35.0,-1,0.0,1.8186
5,1,0.5,0.0625,35.0,1,1.0,0.2088000000000001
6,1,0.5,0.125,35.0,1,1.0,0.2544000000000004
7,1,0.5,0.0625,35.0,1,1.0,0.39610000000000056
8,1,0.5,0.25,35.0,1,1.0,0.8021999999999991
9,1,0.5,0.125,35.0,1,1.0,0.1443000000000012
10,1,0.5,0.125,35.0,1,1.0,0.21399999999999864
11,1,0.5,0.125,35.0,1,1.0,0.261099999999999
12,1,0.5,1.0,35.0,1,1.0,0.1265000000000036
13,1,0.5,0.0625,-35.0,1,0.0,0.18409999999999727
14,1,0.5,1.0,35.0,1,1.0,0.15909999999999513
15,1,0.5,0.0625,-35.0,-1,1.0,4.725399999999993
16,1,0.5,0.0625,-35.0,-1,1.0,2.1015000000000015
17,1,0.5,0.25,-35.0,-1,1.0,0.2376999999999967
18,1,0.5,0.0625,-35.0,-1,1.0,0.6248999999999967
19,1,0.5,0.25,35.0,1,1.0,0.4264999999999972
20,1,0.5,0.0625,35.0,-1,0.0,1.8721999999999994
21,1,0.5,0.0625,-35.0,-1,1.0,0.16220000000000567
22,1,0.5,1.0,-35.0,-1,1.0,0.24330000000000496
23,1,0.5,0.125,-35.0,-1,1.0,1.2224999999999966
24,1,0.5,0.0625,-35.0,-1,1.0,1.82650000000001
25,1,0.5,0.25,-35.0,-1,1.0,0.19589999999999463
26,1,0.5,1.0,35.0,1,1.0,0.21159999999999002
27,1,0.5,0.25,-35.0,-1,1.0,0.4451000000000107
28,1,0.5,0.125,35.0,1,1.0,0.19599999999999795
29,1,0.5,0.0625,-35.0,-1,1.0,1.5250000000000057
30,1,0.5,1.0,35.0,1,1.0,0.1782000000000039
31,1,0.5,0.0,35.0,-1,0.0,0.7347000000000037
32,1,0.5,0.25,35.0,1,1.0,0.14740000000000464
33,1,0.5,0.0,-35.0,1,0.0,0.15759999999998797
34,1,0.5,0.25,35.0,-1,0.0,1.231499999999997
35,1,0.5,0.125,-35.0,-1,1.0,1.6296999999999997
36,1,0.5,0.125,35.0,-1,0.0,0.7385000000000019
37,1,0.5,0.0625,-35.0,-1,1.0,0.27299999999999613
38,1,0.5,1.0,35.0,1,1.0,0.24719999999999231
39,1,0.5,0.0625,-35.0,1,0.0,0.12689999999999202
40,1,0.5,0.0,-35.0,-1,1.0,0.24679999999999325
41,1,0.5,0.0625,35.0,-1,0.0,2.2288000000000068
42,1,0.5,0.25,35.0,1,1.0,0.17079999999999984
43,1,0.5,0.125,-35.0,-1,1.0,0.4954000000000036
44,1,0.5,0.25,35.0,1,1.0,0.1998999999999853
45,1,0.5,0.25,-35.0,-1,1.0,0.4449000000000183
46,1,0.5,1.0,-35.0,-1,1.0,0.2539000000000158
47,1,0.5,0.0625,-35.0,-1,1.0,2.336900000000014
48,1,0.5,0.0625,35.0,-1,0.0,0.21750000000002956
49,1,0.5,0.125,35.0,1,1.0,0.31490000000002283
50,1,0.5,0.0625,35.0,1,1.0,2.766999999999996
51,1,0.5,0.125,35.0,1,1.0,1.4476000000000226
52,1,0.5,0.25,-35.0,-1,1.0,0.21999999999999886
53,1,0.5,0.125,-35.0,-1,1.0,0.4672000000000196
54,1,0.5,0.0,35.0,-1,0.0,0.6981000000000108
55,1,0.5,0.125,-35.0,-1,1.0,0.23400000000000887
56,1,0.5,1.0,-35.0,-1,1.0,0.27719999999999345
57,1,0.5,0.125,-35.0,-1,1.0,0.3451000000000306
58,1,0.5,1.0,35.0,1,1.0,0.30970000000002074
59,1,0.5,0.25,-35.0,-1,1.0,0.4292000000000087
60,1,0.5,1.0,35.0,1,1.0,0.1716000000000406
61,1,0.5,0.125,-35.0,-1,1.0,0.6411000000000229
62,1,0.5,1.0,35.0,1,1.0,0.2021000000000015
63,1,0.5,1.0,35.0,1,1.0,0.17539999999999623
64,1,0.5,0.0625,35.0,-1,0.0,0.14820000000000277
65,1,0.5,0.125,-35.0,1,0.0,0.18070000000000164
66,1,0.5,0.0,-35.0,-1,1.0,0.6122000000000014
67,1,0.5,0.0625,35.0,1,1.0,0.9643000000000086
68,1,0.5,0.25,-35.0,-1,1.0,3.9893000000000143
69,1,0.5,0.25,35.0,1,1.0,0.05030000000002133
70,1,0.5,0.0625,35.0,1,1.0,0.1273000000000195
71,1,0.5,0.0625,-35.0,-1,1.0,2.1225000000000307
72,1,0.5,0.125,-35.0,-1,1.0,0.5203000000000202
73,1,0.5,0.0625,-35.0,1,0.0,0.13850000000002183
74,1,0.5,0.25,35.0,1,1.0,0.16140000000001464
75,1,0.5,0.0625,-35.0,-1,1.0,0.3317000000000121
76,1,0.5,0.0,-35.0,-1,1.0,0.32040000000000646
77,1,0.5,0.125,-35.0,-1,1.0,0.2758000000000038
78,1,0.5,1.0,35.0,1,1.0,0.15840000000002874
79,1,0.5,1.0,35.0,1,1.0,0.17660000000000764
80,1,0.5,1.0,-35.0,-1,1.0,0.19250000000002387
81,1,0.5,0.125,35.0,1,1.0,0.21160000000000423
82,1,0.5,1.0,-35.0,-1,1.0,0.21150000000002933
83,1,0.5,0.0625,-35.0,1,0.0,0.10970000000000368
84,1,0.5,0.125,-35.0,-1,1.0,0.22860000000000014
85,1,0.5,0.0,-35.0,1,0.0,0.31100000000000705
86,1,0.5,0.125,-35.0,-1,1.0,0.44540000000000646
87,1,0.5,0.125,-35.0,-1,1.0,0.2717000000000098
88,1,0.5,0.125,35.0,1,1.0,0.22769999999999868
89,1,0.5,1.0,35.0,1,1.0,0.16270000000000095
90,1,0.5,1.0,35.0,1,1.0,0.1869999999999834
91,1,0.8,0.25,-35.0,-1,1.0,0.21010000000001128
92,1,0.8,1.0,-35.0,-1,1.0,0.40800000000001546
93,1,0.8,0.0625,-35.0,-1,1.0,0.31979999999998654
94,1,0.8,0.25,-35.0,-1,1.0,0.20270000000004984
95,1,0.8,1.0,-35.0,-1,1.0,0.32239999999995916
96,1,0.8,0.125,-35.0,-1,1.0,0.45179999999999154
97,1,0.8,0.125,35.0,-1,0.0,2.3278999999999996
98,1,0.8,0.25,-35.0,-1,1.0,0.3199000000000751
99,1,0.8,0.0625,-35.0,-1,1.0,0.36520000000001573
100,1,0.8,1.0,-35.0,-1,1.0,0.1944000000000301
101,1,0.8,0.125,-35.0,-1,1.0,0.6273000000000479
102,1,0.8,0.25,-35.0,-1,1.0,0.26269999999999527
103,1,0.8,1.0,35.0,1,1.0,0.21529999999995653
104,1,0.8,0.0625,-35.0,-1,1.0,0.259900000000016
105,1,0.8,0.25,-35.0,-1,1.0,0.2188000000000443
106,1,0.8,0.25,-35.0,-1,1.0,0.6439000000000306
107,1,0.8,0.0625,-35.0,-1,1.0,1.0083000000000197
108,1,0.8,0.0625,-35.0,-1,1.0,0.2118000000000393
109,1,0.8,0.125,-35.0,-1,1.0,0.04820000000000846
110,1,0.8,0.125,35.0,-1,0.0,0.5859999999999559
111,1,0.8,0.125,-35.0,-1,1.0,0.22930000000002337
112,1,0.8,0.125,35.0,-1,0.0,0.3540999999999599
113,1,0.8,0.0625,35.0,-1,0.0,0.15809999999999036
114,1,0.8,1.0,-35.0,-1,1.0,0.19919999999996207
115,1,0.2,0.125,35.0,1,1.0,0.22670000000005075
116,1,0.2,1.0,-35.0,-1,1.0,0.3234000000000492
117,1,0.2,0.25,35.0,1,1.0,0.47790000000003374
118,1,0.2,0.0,35.0,-1,0.0,1.5855999999999995
119,1,0.2,0.0625,35.0,1,1.0,0.36309999999997444
120,1,0.2,0.0625,35.0,-1,0.0,3.5966000000000236
121,1,0.2,0.25,35.0,1,1.0,0.3021999999999707
122,1,0.2,0.125,-35.0,-1,1.0,0.22420000000005302
123,1,0.2,0.0,35.0,1,1.0,0.11800000000005184
124,1,0.2,0.125,35.0,1,1.0,0.10020000000002938
125,1,0.2,0.125,35.0,1,1.0,0.11629999999996699
126,1,0.2,0.125,35.0,1,1.0,0.16789999999997463
127,1,0.2,0.25,35.0,1,1.0,0.11750000000006366
128,1,0.2,0.125,35.0,1,1.0,0.15170000000000528
129,1,0.2,0.25,35.0,1,1.0,0.348700000000008
130,1,0.2,1.0,35.0,1,1.0,0.18709999999998672
131,1,0.2,0.125,35.0,1,1.0,0.6458000000000084
132,1,0.2,1.0,35.0,1,1.0,0.19839999999999236
133,1,0.2,0.25,35.0,1,1.0,0.13470000000000937
134,1,0.2,0.0625,35.0,1,1.0,0.18739999999996826
135,1,0.2,0.0,35.0,1,1.0,0.240099999999984
136,1,0.2,0.25,35.0,1,1.0,0.20870000000002165
137,1,0.2,1.0,-35.0,-1,1.0,0.20050000000003365
138,1,0.2,0.125,35.0,1,1.0,0.14689999999995962
139,1,0.2,1.0,35.0,1,1.0,0.14850000000001273
140,1,0.2,0.25,35.0,1,1.0,0.2206000000000472
141,1,0.2,0.0,-35.0,1,0.0,0.1844000000000392
142,1,0.2,1.0,35.0,1,1.0,0.15090000000003556
143,1,0.2,1.0,35.0,1,1.0,0.14510000000001355
144,1,0.2,0.125,35.0,1,1.0,0.07749999999998636
145,1,0.2,0.25,-35.0,-1,1.0,0.2626000000000204
146,1,0.8,0.0,-35.0,1,0.0,0.14949999999998909
147,1,0.8,0.25,35.0,1,1.0,0.12029999999998608
148,1,0.8,0.125,35.0,1,1.0,0.18760000000003174
149,1,0.8,1.0,35.0,1,1.0,0.12669999999997117
150,1,0.8,1.0,-35.0,-1,1.0,0.347500000000025
151,1,0.8,0.125,35.0,1,1.0,0.18820000000005166
152,1,0.8,0.25,-35.0,-1,1.0,0.22100000000006048
153,1,0.8,0.25,-35.0,-1,1.0,0.24869999999998527
154,1,0.8,0.25,-35.0,-1,1.0,0.2217000000000553
155,1,0.8,0.125,-35.0,-1,1.0,0.14979999999997062
156,1,0.8,0.25,-35.0,-1,1.0,0.1967000000000212
157,1,0.8,0.0,-35.0,1,0.0,0.3076000000000363
158,1,0.8,1.0,-35.0,-1,1.0,0.185799999999972
159,1,0.8,0.125,-35.0,-1,1.0,0.21299999999996544
160,1,0.8,0.25,-35.0,-1,1.0,0.24499900000000707
161,1,0.8,0.25,-35.0,-1,1.0,0.20909999999997808
162,1,0.8,0.25,-35.0,-1,1.0,0.15890000000007376
163,1,0.8,0.125,-35.0,1,0.0,0.031899999999950523
164,1,0.8,1.0,35.0,-1,0.0,0.049200000000041655
165,1,0.8,0.125,-35.0,-1,1.0,0.30949999999995725
166,1,0.8,1.0,-35.0,-1,1.0,0.4438999999999851
167,1,0.8,0.0,-35.0,-1,1.0,1.7392000000000394
168,1,0.8,0.25,35.0,1,1.0,0.23809999999997444
169,1,0.8,0.125,35.0,1,1.0,0.18889999999998963
170,1,0.8,1.0,-35.0,-1,1.0,0.18640000000004875
171,1,0.8,0.0625,-35.0,-1,1.0,0.8682000000000016
172,1,0.8,0.0,-35.0,1,0.0,0.3330000000000837
173,1,0.8,1.0,-35.0,-1,1.0,0.21059999999999945
174,1,0.8,0.25,-35.0,-1,1.0,0.4270000000000209
175,1,0.8,1.0,-35.0,-1,1.0,0.2826999999999771
176,1,0.8,1.0,-35.0,-1,1.0,0.19820000000004256
177,1,0.8,0.0625,-35.0,-1,1.0,1.9184000000000196
178,1,0.8,0.25,-35.0,-1,1.0,0.34859999999997626
179,1,0.8,0.125,35.0,1,1.0,0.17020000000002256
180,1,0.8,0.0625,-35.0,1,0.0,0.1561999999999557
181,1,0.8,1.0,-35.0,-1,1.0,0.21410000000003038
182,1,0.8,0.25,-35.0,-1,1.0,0.24619999999998754
183,1,0.8,0.0625,-35.0,-1,1.0,0.706100000000049
184,1,0.8,0.0625,35.0,-1,0.0,1.2051999999999907
185,1,0.8,0.0,-35.0,-1,1.0,0.8025000000000091
186,1,0.8,0.25,-35.0,-1,1.0,1.8380000000000223
187,1,0.8,0.25,-35.0,-1,1.0,0.20130000000000337
188,1,0.8,1.0,-35.0,-1,1.0,0.22030000000006567
189,1,0.8,0.125,-35.0,-1,1.0,0.6757999999998674
190,1,0.8,0.25,-35.0,1,0.0,0.4479999999999791
191,1,0.8,0.125,-35.0,1,0.0,0.09729999999990468
192,1,0.8,0.25,-35.0,-1,1.0,0.08559999999999945
193,1,0.8,0.0625,-35.0,-1,1.0,0.6154000000000224
194,1,0.8,0.0625,-35.0,-1,1.0,0.27539999999999054
195,1,0.8,1.0,-35.0,-1,1.0,0.17409999999983938
196,1,0.8,0.25,-35.0,-1,1.0,0.4136999999999489
197,1,0.8,0.25,35.0,1,1.0,0.5474000000000387
198,1,0.8,0.25,-35.0,-1,1.0,0.2784999999998945
199,1,0.8,0.25,-35.0,-1,1.0,1.3122999999999365
200,1,0.8,0.0625,-35.0,-1,1.0,0.7520999999999276
201,1,0.8,1.0,-35.0,-1,1.0,0.23049999999989268
202,1,0.8,0.0625,-35.0,-1,1.0,0.44029999999997926
203,1,0.8,0.125,-35.0,-1,1.0,0.41269999999985885
204,1,0.8,0.125,-35.0,-1,1.0,1.4320999999998776
205,1,0.8,0.25,-35.0,-1,1.0,0.24660000000005766
206,1,0.8,0.125,-35.0,-1,1.0,0.43479999999999563
207,1,0.8,0.25,-35.0,-1,1.0,0.41420000000005075
208,1,0.8,0.25,-35.0,-1,1.0,0.1452999999999065
209,1,0.8,0.25,-35.0,-1,1.0,0.5136999999998579
210,1,0.8,0.25,35.0,1,1.0,0.34209999999995944
211,1,0.8,1.0,-35.0,-1,1.0,0.1893999999999778
212,1,0.8,0.125,35.0,1,1.0,0.1836999999999307
213,1,0.8,0.0625,-35.0,-1,1.0,0.5435999999999694
214,1,0.8,0.125,-35.0,1,0.0,0.14289999999994052
215,1,0.8,0.125,-35.0,-1,1.0,0.18519999999989523
216,1,0.8,0.25,35.0,1,1.0,0.20829999999989468
217,1,0.8,0.125,-35.0,-1,1.0,0.2563999999999851
218,1,0.8,1.0,35.0,1,1.0,0.3001999999999043
219,1,0.8,0.0625,-35.0,-1,1.0,0.7643999999999096
220,1,0.8,0.25,-35.0,-1,1.0,0.19279999999992015
221,1,0.8,1.0,-35.0,-1,1.0,0.19420000000002346
222,1,0.8,1.0,-35.0,-1,1.0,0.18989999999996598
223,1,0.8,0.0,-35.0,-1,1.0,1.9501999999998816
224,1,0.8,1.0,-35.0,-1,1.0,0.5497000000000298
225,1,0.8,0.125,35.0,1,1.0,0.2577999999999747
226,1,0.8,0.0625,35.0,1,1.0,2.101899999999887
227,1,0.8,0.0625,-35.0,1,0.0,0.16790000000003147
228,1,0.8,0.25,35.0,1,1.0,0.17819999999994707
229,1,0.8,0.0625,-35.0,-1,1.0,0.31589999999994234
230,1,0.8,0.25,-35.0,-1,1.0,0.9701999999999771
231,1,0.8,0.0,-35.0,1,0.0,0.3706999999999425
232,1,0.8,0.125,-35.0,-1,1.0,2.426399999999944
233,1,0.8,0.0,-35.0,1,0.0,0.18489999999997053
234,1,0.8,0.0625,35.0,-1,0.0,2.3279999999999745
235,1,0.8,0.0625,-35.0,-1,1.0,0.17259999999987485
236,1,0.8,0.0625,-35.0,-1,1.0,2.1324999999999363
237,1,0.2,0.0625,35.0,1,1.0,0.1371000000000322
238,1,0.2,1.0,35.0,1,1.0,0.2586000000000013
239,1,0.2,0.0625,35.0,1,1.0,1.989099999999894
240,1,0.2,1.0,-35.0,-1,1.0,0.5049999999998818
241,1,0.2,0.125,35.0,1,1.0,0.31310000000007676
242,1,0.2,0.0625,-35.0,1,0.0,0.19479999999987285
243,1,0.2,0.25,35.0,1,1.0,0.175200000000018
244,1,0.2,0.25,35.0,1,1.0,0.31189999999992324
245,1,0.2,0.0625,35.0,-1,0.0,3.0635999999999513
246,1,0.2,0.0,-35.0,1,0.0,1.5436999999999443
247,1,0.2,0.0625,35.0,1,1.0,0.2357999999999265
248,1,0.2,0.125,35.0,1,1.0,0.1812999999999647
249,1,0.2,0.25,-35.0,-1,1.0,0.24549999999999272
250,1,0.2,0.0625,-35.0,1,0.0,0.07059999999989941
251,1,0.2,0.0625,35.0,-1,0.0,0.15770000000009077
252,1,0.2,1.0,35.0,1,1.0,0.1773999999999205
253,1,0.2,0.0,35.0,-1,0.0,0.23739999999997963
254,1,0.2,0.125,35.0,1,1.0,0.1712999999999738
255,1,0.2,1.0,35.0,1,1.0,0.14790000000004966
256,1,0.2,0.125,35.0,1,1.0,1.7399000000000342
257,1,0.2,0.0625,35.0,1,1.0,0.13839999999993324
258,1,0.2,1.0,-35.0,1,0.0,0.1616999999998825
259,1,0.2,0.0,35.0,1,1.0,0.18829999999991287
260,1,0.2,0.25,-35.0,-1,1.0,0.36449999999990723
261,1,0.2,1.0,35.0,1,1.0,0.11960000000010496
262,1,0.2,0.125,-35.0,-1,1.0,0.25339899999994486
263,1,0.2,0.25,35.0,1,1.0,0.20460000000002765
264,1,0.2,1.0,35.0,1,1.0,0.24710000000004584
265,1,0.2,0.125,35.0,1,1.0,0.29759999999998854
266,1,0.2,0.25,35.0,1,1.0,0.15760000000000218
267,1,0.2,0.25,-35.0,-1,1.0,0.2842000000000553
268,1,0.2,1.0,35.0,1,1.0,0.18590000000006057
269,1,0.2,0.125,35.0,-1,0.0,5.0417999999999665
270,1,0.2,0.25,35.0,1,1.0,0.18469999999990705
271,1,0.2,0.0625,35.0,1,1.0,0.17989999999997508
272,1,0.2,0.0625,-35.0,-1,1.0,0.371599999999944
273,1,0.2,0.0,35.0,-1,0.0,2.087699999999927
274,1,0.2,0.25,-35.0,1,0.0,0.16609999999991487
275,1,0.2,1.0,35.0,1,1.0,0.133199999999988
276,1,0.2,1.0,-35.0,-1,1.0,0.25679999999999836
277,1,0.2,0.25,-35.0,1,0.0,0.13030000000003383
278,1,0.2,0.25,35.0,1,1.0,0.15869999999995343
279,1,0.2,1.0,35.0,1,1.0,0.21680000000003474
280,1,0.2,1.0,35.0,1,1.0,0.20279999999991105
281,1,0.2,0.125,35.0,1,1.0,0.1371999999998934
282,1,0.2,0.25,35.0,1,1.0,0.1578999999998132
283,1,0.2,0.25,35.0,1,1.0,0.106899999999996
284,1,0.2,0.125,35.0,1,1.0,0.22659999999996217
285,1,0.2,0.0,35.0,1,1.0,0.1632999999999356
286,1,0.2,0.25,35.0,1,1.0,0.15489999999999782
287,1,0.2,0.25,-35.0,-1,1.0,0.636199999999917
288,1,0.2,0.25,35.0,1,1.0,0.30309999999997217
289,1,0.2,0.0625,35.0,-1,0.0,0.6945999999999231
290,1,0.2,0.125,35.0,1,1.0,0.16859999999996944
291,1,0.2,1.0,35.0,1,1.0,0.11869999999998981
292,1,0.2,0.0625,35.0,-1,0.0,1.19500000000005
293,1,0.2,0.0625,35.0,1,1.0,0.23439999999993688
294,1,0.2,1.0,35.0,1,1.0,0.13609999999994216
295,1,0.2,0.25,-35.0,-1,1.0,0.31779999999992015
296,1,0.2,0.25,35.0,1,1.0,0.12860000000000582
297,1,0.2,0.125,35.0,1,1.0,0.08830000000000382
298,1,0.2,0.0,35.0,1,1.0,0.11930000000006658
299,1,0.2,0.125,35.0,1,1.0,0.23039999999991778
300,1,0.2,0.25,35.0,1,1.0,0.14569999999991978
301,1,0.2,0.25,-35.0,1,0.0,0.08189999999990505
302,1,0.2,0.125,35.0,1,1.0,9.397199999999998
303,1,0.2,0.25,35.0,1,1.0,0.16789999999991778
304,1,0.2,0.25,35.0,1,1.0,0.1553000000000111
305,1,0.2,0.125,35.0,1,1.0,0.1472999999999729
306,1,0.2,1.0,35.0,1,1.0,0.15779999999995198
307,1,0.2,0.125,35.0,1,1.0,0.18539999999984502
308,1,0.2,1.0,35.0,1,1.0,0.1252999999999247
309,1,0.8,0.125,-35.0,-1,1.0,0.10609999999985575
310,1,0.8,0.125,-35.0,1,0.0,0.0866999999999507
311,1,0.8,0.25,-35.0,-1,1.0,0.30939999999998236
312,1,0.8,0.25,-35.0,-1,1.0,0.2900000000000773
313,1,0.8,0.125,-35.0,1,0.0,0.10879999999986012
314,1,0.8,0.0625,-35.0,-1,1.0,0.016200000000026193
315,1,0.8,0.0625,-35.0,-1,1.0,4.211599999999862
316,1,0.8,1.0,-35.0,-1,1.0,0.23059999999998126
317,1,0.8,0.125,-35.0,-1,1.0,0.22489999999993415
318,1,0.8,0.0625,-35.0,1,0.0,2.2404999999998836
319,1,0.8,0.25,35.0,1,1.0,0.23680000000001655
320,1,0.8,0.0625,-35.0,-1,1.0,0.21659999999997126
321,1,0.8,1.0,-35.0,-1,1.0,0.2867999999999711
322,1,0.8,0.125,-35.0,1,0.0,2.745999999999981
323,1,0.8,0.25,-35.0,-1,1.0,1.5459999999999354
324,1,0.8,1.0,-35.0,-1,1.0,0.6598999999998796
325,1,0.8,0.125,-35.0,-1,1.0,1.7429999999999382
326,1,0.8,0.125,-35.0,-1,1.0,0.3749000000000251
327,1,0.8,0.25,-35.0,-1,1.0,0.28569999999990614
328,1,0.8,1.0,35.0,1,1.0,0.19839999999999236
329,1,0.8,1.0,35.0,1,1.0,0.16800000000000637
330,1,0.8,0.125,-35.0,-1,1.0,0.26289999999994507
331,1,0.8,1.0,-35.0,-1,1.0,0.2504000000000133
332,1,0.8,1.0,35.0,1,1.0,0.12429999999994834
333,1,0.8,0.125,-35.0,-1,1.0,1.5039000000000442
334,1,0.8,0.25,-35.0,-1,1.0,0.623299999999972
335,1,0.8,0.0625,35.0,-1,0.0,2.5828999999998814
336,1,0.8,0.0,-35.0,-1,1.0,0.07399999999995543
337,1,0.8,1.0,35.0,1,1.0,0.19190000000003238
338,1,0.8,0.0,-35.0,-1,1.0,0.20059999999989486
339,1,0.8,0.0625,-35.0,-1,1.0,0.23099999999999454
340,1,0.8,0.125,-35.0,-1,1.0,0.3768999999998641
341,1,0.8,1.0,-35.0,-1,1.0,0.3082999999999174
342,1,0.8,0.0,-35.0,1,0.0,0.23250000000007276
343,1,0.8,0.25,35.0,1,1.0,0.19469999999989795
344,1,0.8,0.0625,-35.0,-1,1.0,0.280399999999986
345,1,0.8,0.0625,35.0,1,1.0,0.20060000000000855
346,1,0.8,0.0625,-35.0,-1,1.0,1.7296999999998661
347,1,0.8,0.125,35.0,1,1.0,0.16909999999995762
348,1,0.8,0.125,-35.0,-1,1.0,0.240099999999984
349,1,0.8,1.0,-35.0,-1,1.0,0.20709999999996853
350,1,0.8,0.0,-35.0,1,0.0,0.08759999999995216
351,1,0.8,0.0625,-35.0,-1,1.0,2.824899999999957
352,1,0.8,0.25,35.0,1,1.0,0.15639999999996235
353,1,0.8,0.0,-35.0,-1,1.0,0.23329999999998563
354,1,0.8,1.0,35.0,1,1.0,0.1351999999999407
355,1,0.8,0.125,-35.0,-1,1.0,0.21529999999995653
356,1,0.8,0.0625,35.0,1,1.0,6.361999999999966
357,1,0.8,1.0,-35.0,-1,1.0,0.15869999999995343
358,1,0.8,0.0,-35.0,-1,1.0,0.3953999999999951
359,1,0.8,1.0,35.0,1,1.0,0.17219999999997526
360,1,0.8,1.0,-35.0,-1,1.0,0.11239999999997963
361,1,0.8,0.25,-35.0,-1,1.0,0.3588999999999487
362,1,0.8,0.0,-35.0,-1,1.0,1.6224000000000842
363,1,0.8,0.125,-35.0,-1,1.0,0.25240000000007967
364,1,0.8,0.125,-35.0,-1,1.0,0.21899999999982356
365,1,0.8,1.0,-35.0,-1,1.0,0.19240000000013424
366,1,0.8,0.25,-35.0,-1,1.0,0.5489999999999782
367,1,0.8,1.0,35.0,1,1.0,0.13239999999996144
368,1,0.8,0.0625,-35.0,-1,1.0,0.6625000000001364
369,1,0.8,0.0,-35.0,1,0.0,0.18590000000017426
370,1,0.8,1.0,35.0,1,1.0,-0.06739999999990687
371,1,0.2,0.0625,-35.0,-1,1.0,2.2125999999998385
372,1,0.2,0.125,35.0,1,1.0,0.21620000000007167
373,1,0.2,0.125,35.0,1,1.0,0.21270000000004075
374,1,0.2,0.125,35.0,1,1.0,0.19610000000011496
375,1,0.2,0.25,35.0,1,1.0,0.15660000000002583
376,1,0.2,0.25,-35.0,1,0.0,1.3096000000000458
377,1,0.2,0.125,35.0,1,1.0,0.1932000000001608
378,1,0.2,0.25,35.0,1,1.0,0.15660000000002583
379,1,0.2,0.0625,35.0,1,1.0,0.1896999999999025
380,1,0.2,0.125,35.0,1,1.0,0.27670000000011896
381,1,0.2,1.0,35.0,1,1.0,0.1632999999999356
382,1,0.2,0.0625,-35.0,-1,1.0,1.653300000000172
383,1,0.2,1.0,35.0,1,1.0,0.13340000000016516
384,1,0.2,0.125,35.0,1,1.0,0.24350000000004002
385,1,0.2,1.0,35.0,1,1.0,0.17350000000010368
386,1,0.2,0.125,35.0,1,1.0,1.7601999999999407
387,1,0.2,0.0,35.0,1,1.0,0.17029999999999745
388,1,0.2,1.0,-35.0,-1,1.0,0.2635999999999967
389,1,0.2,0.125,35.0,1,1.0,0.20029999999997017
390,1,0.2,0.0625,35.0,1,1.0,0.10389999999983957
391,1,0.2,0.125,35.0,1,1.0,0.30050000000028376
392,1,0.2,0.25,35.0,1,1.0,0.39380000000005566
393,1,0.2,0.125,35.0,1,1.0,0.19060000000013133
394,1,0.2,0.25,35.0,1,1.0,0.25060000000007676
395,1,0.2,0.125,35.0,1,1.0,0.17060000000014952
396,1,0.2,1.0,35.0,1,1.0,0.13720000000012078
397,1,0.2,1.0,35.0,1,1.0,0.1775000000000091
398,1,0.8,1.0,-35.0,-1,1.0,0.20400000000017826
399,1,0.8,0.0625,-35.0,-1,1.0,0.2540999999998803
400,1,0.8,0.0,-35.0,-1,1.0,4.084100000000035
401,1,0.8,0.125,-35.0,-1,1.0,0.19430000000011205
402,1,0.8,0.25,-35.0,-1,1.0,0.2942999999997937
403,1,0.8,0.0625,-35.0,1,0.0,0.2676000000001295
404,1,0.8,0.0625,-35.0,-1,1.0,2.5177000000001044
405,1,0.8,1.0,-35.0,-1,1.0,0.3646000000001095
406,1,0.8,0.125,-35.0,-1,1.0,0.16120000000023538
407,1,0.8,0.125,35.0,1,1.0,0.19450000000028922
408,1,0.8,0.0625,35.0,-1,0.0,0.6380999999998949
409,1,0.8,1.0,-35.0,-1,1.0,0.06140000000027612
410,1,0.8,0.25,-35.0,-1,1.0,0.2848999999998796
411,1,0.8,0.125,-35.0,-1,1.0,0.4648000000001957
412,1,0.8,0.125,-35.0,-1,1.0,0.2415000000000873
413,1,0.8,0.25,-35.0,-1,1.0,0.241800000000012
414,1,0.8,1.0,-35.0,-1,1.0,0.2717000000000098
415,1,0.8,0.0,-35.0,-1,1.0,3.4417000000000826
416,1,0.8,0.125,-35.0,-1,1.0,0.3786000000000058
417,1,0.8,0.0625,-35.0,-1,1.0,0.28539999999998145
418,1,0.8,1.0,-35.0,-1,1.0,0.2219000000000051
419,1,0.8,0.0625,-35.0,-1,1.0,0.42190000000027794
420,1,0.8,0.125,35.0,1,1.0,0.31549900000004527
421,1,0.8,0.0625,-35.0,-1,1.0,0.2820999999999003
422,1,0.8,0.0625,-35.0,-1,1.0,0.20870000000013533
423,1,0.8,0.125,-35.0,-1,1.0,0.19240000000013424
424,1,0.8,1.0,-35.0,-1,1.0,0.1790000000000873
425,1,0.8,0.0,-35.0,-1,1.0,0.29890000000023065
426,1,0.2,0.0625,-35.0,-1,1.0,0.2290000000002692
427,1,0.2,0.125,-35.0,1,0.0,0.1125000000001819
428,1,0.2,1.0,35.0,1,1.0,0.23250000000007276
429,1,0.2,0.25,35.0,1,1.0,0.2357999999999265
430,1,0.2,0.125,35.0,1,1.0,0.2293000000001939
431,1,0.2,0.0625,35.0,-1,0.0,0.20600000000013097
432,1,0.2,0.25,35.0,1,1.0,0.2460000000000946
433,1,0.2,0.0625,35.0,-1,0.0,0.2694000000001324
434,1,0.2,0.25,35.0,1,1.0,0.22600000000011278
435,1,0.2,0.0,-35.0,1,0.0,4.3596
436,1,0.2,0.125,35.0,1,1.0,0.17660000000000764
437,1,0.2,0.0,35.0,1,1.0,0.13959999999997308
438,1,0.2,0.25,-35.0,-1,1.0,1.1264000000001033
439,1,0.2,1.0,35.0,1,1.0,0.18980000000010477
440,1,0.2,0.25,35.0,1,1.0,0.1797999999998865
441,1,0.2,0.0,35.0,-1,0.0,0.38320000000021537
442,1,0.2,0.125,35.0,1,1.0,0.19000000000005457
443,1,0.2,0.0,35.0,-1,0.0,0.40010000000006585
444,1,0.2,0.25,35.0,1,1.0,0.21670000000017353
445,1,0.2,1.0,35.0,1,1.0,0.15679999999997563
446,1,0.2,0.25,35.0,1,1.0,0.1934000000001106
447,1,0.2,0.125,-35.0,-1,1.0,0.24680000000012114
448,1,0.2,0.0,35.0,1,1.0,0.4536000000000513
449,1,0.2,0.125,35.0,1,1.0,0.1871000000001004
450,1,0.2,0.125,35.0,1,1.0,0.20369999999979882
451,1,0.2,0.125,35.0,1,1.0,0.16710000000034597
452,1,0.2,1.0,35.0,1,1.0,0.1571000000001277
453,1,0.8,1.0,-35.0,-1,1.0,0.2739999999998872
454,1,0.8,0.25,35.0,1,1.0,0.10379999999986467
455,1,0.8,0.0625,-35.0,-1,1.0,0.18049999999993815
456,1,0.8,0.25,35.0,1,1.0,0.18049999999993815
457,1,0.8,0.25,-35.0,-1,1.0,0.0808999999999287
458,1,0.8,0.125,-35.0,-1,1.0,0.23080000000004475
459,1,0.8,1.0,-35.0,-1,1.0,0.2474000000001979
460,1,0.8,0.25,-35.0,-1,1.0,2.457500000000209
461,1,0.8,0.25,35.0,1,1.0,0.20100000000002183
462,1,0.8,0.25,-35.0,-1,1.0,0.21430000000009386
463,1,0.8,0.25,35.0,1,1.0,0.1510000000000673
464,1,0.8,0.0625,-35.0,-1,1.0,0.26100000000019463
465,1,0.8,0.125,35.0,1,1.0,0.16780000000017026
466,1,0.8,0.0,-35.0,1,0.0,0.16780000000017026
467,1,0.8,0.0625,-35.0,-1,1.0,0.28460000000018226
468,1,0.8,0.25,35.0,1,1.0,0.25460000000020955
469,1,0.8,1.0,35.0,1,1.0,0.15470000000004802
470,1,0.8,0.0625,-35.0,-1,1.0,0.18810000000007676
471,1,0.8,0.125,-35.0,-1,1.0,0.2782000000001972
472,1,0.8,0.0625,-35.0,-1,1.0,0.8214000000000397
473,1,0.8,0.25,-35.0,-1,1.0,0.248299999999972
474,1,0.8,0.0,-35.0,-1,1.0,3.2981999999999516
475,1,0.8,0.125,-35.0,-1,1.0,0.3183000000001357
476,1,0.8,0.25,-35.0,-1,1.0,0.23849999999993088
477,1,0.8,0.125,35.0,1,1.0,0.3584000000000742
478,1,0.8,0.25,35.0,1,1.0,0.19519999999988613
479,1,0.8,0.125,-35.0,1,0.0,0.16519999999991342
480,1,0.8,0.125,-35.0,-1,1.0,0.1853000000000975
481,1,0.8,0.125,-35.0,-1,1.0,0.23859999999990578
482,1,0.8,0.0,-35.0,-1,1.0,0.24880000000007385
483,1,0.8,1.0,-35.0,-1,1.0,0.19880000000011933
484,1,0.8,0.125,-35.0,-1,1.0,0.39220000000000255
485,1,0.8,0.125,-35.0,-1,1.0,0.21879999999987376
486,1,0.8,1.0,-35.0,-1,1.0,0.30880000000024665
487,1,0.8,0.0625,-35.0,-1,1.0,0.2756000000003951
488,1,0.8,0.125,-35.0,-1,1.0,0.3789000000001579
489,1,0.8,0.125,35.0,-1,0.0,0.48240000000009786
490,1,0.8,0.0,-35.0,-1,1.0,0.27250000000026375
491,1,0.8,0.25,35.0,1,1.0,0.2556999999999334
492,1,0.8,1.0,-35.0,-1,1.0,0.2056999999999789
493,1,0.8,0.25,-35.0,-1,1.0,0.41590000000019245
494,1,0.8,0.25,-35.0,-1,1.0,0.25260000000002947
495,1,0.8,0.0625,35.0,-1,0.0,1.8157999999998538
496,1,0.8,0.25,35.0,1,1.0,0.536200000000008
497,1,0.8,1.0,-35.0,-1,1.0,0.3894999999999982
498,1,0.8,0.0,35.0,1,1.0,0.26959999999985484
499,1,0.8,0.125,-35.0,-1,1.0,0.15299999999979264
500,1,0.8,0.125,-35.0,-1,1.0,0.22959999999989122
501,1,0.8,0.25,-35.0,-1,1.0,0.22289999999998145
502,1,0.8,0.0625,35.0,1,1.0,0.24630000000001928
503,1,0.8,0.25,-35.0,-1,1.0,0.22640000000001237
504,1,0.8,0.25,-35.0,-1,1.0,0.3163999999999305
505,1,0.8,0.0,-35.0,-1,1.0,2.6064000000001215
506,1,0.8,0.0,-35.0,1,0.0,0.49660000000017135
507,1,0.8,0.25,-35.0,-1,1.0,0.3166999999998552
508,1,0.8,0.0,-35.0,-1,1.0,0.8834000000001652
509,1,0.8,0.0,35.0,1,1.0,0.20329999999989923
510,1,0.8,0.125,35.0,1,1.0,0.1816999999998643
511,1,0.8,1.0,-35.0,-1,1.0,0.09329999999999927
512,1,0.8,0.125,-35.0,-1,1.0,0.6968000000001666
513,1,0.8,0.25,-35.0,-1,1.0,0.4136000000000877
514,1,0.8,0.25,-35.0,-1,1.0,0.3971000000001368
515,1,0.8,0.0625,-35.0,-1,1.0,2.7001999999999953
516,1,0.2,0.25,35.0,1,1.0,0.28379999999992833
517,1,0.2,0.0625,35.0,1,1.0,0.1508000000001175
518,1,0.2,0.0625,-35.0,-1,1.0,0.4171999999998661
519,1,0.2,1.0,35.0,1,1.0,0.22050000000012915
520,1,0.2,0.125,35.0,1,1.0,0.5706000000000131
521,1,0.2,0.0625,35.0,1,1.0,0.5138999999999214
522,1,0.2,0.25,35.0,1,1.0,0.21090000000003783
523,1,0.2,0.125,35.0,1,1.0,0.28730000000018663
524,1,0.2,0.25,35.0,1,1.0,0.3240000000000691
525,1,0.2,0.0,35.0,1,1.0,0.31090000000017426
526,1,0.2,0.25,35.0,1,1.0,0.3642000000002099
527,1,0.2,0.125,35.0,1,1.0,0.587500000000091
528,1,0.2,0.0625,35.0,1,1.0,0.3708999999998923
529,1,0.2,0.25,35.0,1,1.0,0.11430000000018481
530,1,0.2,0.125,35.0,1,1.0,0.4111000000002605
531,1,0.2,0.25,-35.0,-1,1.0,0.25099999999997635
532,1,0.2,1.0,35.0,1,1.0,0.1912000000002081
533,1,0.2,0.25,35.0,1,1.0,0.30780000000004293
534,1,0.2,0.125,-35.0,-1,1.0,0.5281000000002223
535,1,0.2,0.0,-35.0,1,0.0,0.3044999999999618
536,1,0.2,0.25,35.0,1,1.0,0.21810000000004948
537,1,0.2,0.0625,35.0,1,1.0,0.1648000000002412
538,1,0.2,0.25,35.0,1,1.0,0.13139999999998508
539,1,0.2,1.0,35.0,1,1.0,0.2251000000003387
540,1,0.2,0.25,35.0,1,1.0,0.22479999999995925
541,1,0.2,0.125,35.0,1,1.0,0.21820000000025175
542,1,0.2,1.0,35.0,1,1.0,0.1449000000000069
543,1,0.2,1.0,35.0,1,1.0,0.1915999999998803
544,1,0.2,0.125,-35.0,-1,1.0,0.23840000000018335
545,1,0.2,0.125,35.0,1,1.0,0.2717999999999847
546,1,0.2,0.125,-35.0,-1,1.0,0.4016999999998916
547,1,0.2,0.125,35.0,1,1.0,0.34530000000017935
548,1,0.2,0.125,35.0,1,1.0,0.24860000000012406
549,1,0.2,1.0,-35.0,-1,1.0,0.18859999999995125
550,1,0.2,1.0,35.0,1,1.0,0.19190000000025975
551,1,0.2,0.125,35.0,1,1.0,0.14869999999996253
552,1,0.2,0.125,-35.0,1,0.0,0.22530000000006112
553,1,0.2,0.0625,35.0,1,1.0,0.4454000000000633
554,1,0.2,0.0625,-35.0,-1,1.0,1.1788000000001375
555,1,0.2,1.0,-35.0,-1,1.0,0.235700000000179
556,1,0.2,0.25,35.0,1,1.0,0.34550000000012915
557,1,0.2,0.125,35.0,1,1.0,0.27230000000031396
558,1,0.2,0.0,35.0,1,1.0,0.1690000000000964
559,1,0.2,0.0625,35.0,1,1.0,0.22260000000005675
560,1,0.2,0.0625,35.0,1,1.0,0.27909999999997126
561,1,0.2,1.0,35.0,1,1.0,0.18249999999989086
562,1,0.2,0.25,35.0,1,1.0,0.15270000000009532
563,1,0.2,1.0,35.0,1,1.0,0.20600000000013097
564,1,0.2,0.0625,-35.0,1,0.0,3.195899999999938
565,1,0.2,0.0,35.0,1,1.0,0.24939999999992324
566,1,0.2,1.0,35.0,1,1.0,0.19610000000011496
567,1,0.2,0.25,35.0,1,1.0,0.26610000000027867
568,1,0.2,0.25,35.0,1,1.0,0.20620000000030814
569,1,0.8,1.0,-35.0,-1,1.0,0.20620000000008076
570,1,0.8,1.0,-35.0,-1,1.0,0.20640000000003056
571,1,0.8,0.0625,-35.0,-1,1.0,0.676600000000235
572,1,0.8,0.25,-35.0,1,0.0,0.46640000000002146
573,1,0.8,0.125,-35.0,-1,1.0,3.7964999999999236
574,1,0.8,0.25,-35.0,-1,1.0,0.5298999999999978
575,1,0.8,0.25,-35.0,-1,1.0,0.25670000000013715
576,1,0.8,0.125,35.0,1,1.0,0.21010000000001128
577,1,0.8,0.0,-35.0,1,0.0,0.33339999999998327
578,1,0.8,0.25,-35.0,-1,1.0,0.27350000000001273
579,1,0.8,0.0625,-35.0,1,0.0,0.2635000000002492
580,1,0.8,0.125,-35.0,-1,1.0,2.5868000000000393
581,1,0.8,0.25,-35.0,-1,1.0,0.2637999999999465
582,1,0.8,0.0625,35.0,-1,0.0,1.7904000000000906
583,1,0.8,0.125,-35.0,-1,1.0,0.39059999999994943
584,1,0.8,0.125,-35.0,-1,1.0,4.22400000000016
585,1,0.8,0.125,-35.0,-1,1.0,2.697400000000016
586,1,0.8,0.125,-35.0,-1,1.0,3.1175000000000637
587,1,0.8,0.125,-35.0,-1,1.0,0.5209000000002106
588,1,0.8,1.0,-35.0,-1,1.0,1.1742999999999029
589,1,0.8,0.0,-35.0,-1,1.0,0.3343999999999596
590,1,0.8,1.0,-35.0,-1,1.0,0.04800000000022919
591,1,0.2,0.25,35.0,-1,0.0,4.4944000000000415
592,1,0.2,0.25,35.0,1,1.0,0.3581000000001495
593,1,0.2,0.0625,35.0,-1,0.0,1.8115000000000236
594,1,0.2,1.0,35.0,1,1.0,0.2615000000000691
595,1,0.2,0.0,35.0,-1,0.0,1.2948999999998705
596,1,0.2,1.0,35.0,1,1.0,0.21520000000009532
597,1,0.2,0.125,35.0,1,1.0,0.37160000000017135
598,1,0.2,1.0,35.0,1,1.0,0.19170000000008258
599,1,0.2,0.0625,35.0,1,1.0,0.28520000000003165
600,1,0.2,1.0,35.0,1,1.0,0.2651000000003023
601,1,0.2,1.0,35.0,1,1.0,0.18860000000017862
602,1,0.2,0.125,35.0,-1,0.0,2.691800000000285
603,1,0.2,0.0625,-35.0,-1,1.0,2.0820000000001073
604,1,0.2,0.0625,35.0,-1,0.0,0.9855000000000018
605,1,0.2,1.0,35.0,1,1.0,0.27230000000031396
606,1,0.2,0.25,35.0,1,1.0,0.4255000000000564
607,1,0.2,0.125,-35.0,-1,1.0,4.122300000000223
608,1,0.2,0.0625,35.0,1,1.0,0.31899999999996
609,1,0.2,1.0,35.0,1,1.0,0.18240000000014334
610,1,0.2,0.25,35.0,1,1.0,0.22919999999999163
611,1,0.2,0.0625,35.0,-1,0.0,4.9094000000002325
612,1,0.2,0.125,35.0,1,1.0,0.332700000000159
613,1,0.8,0.0625,-35.0,-1,1.0,0.41950000000019827
614,1,0.8,0.25,35.0,1,1.0,0.5165000000001783
615,1,0.8,1.0,-35.0,-1,1.0,0.2395000000001346
616,1,0.8,0.0,-35.0,1,0.0,4.999700000000075
617,1,0.8,0.125,35.0,1,1.0,2.796400000000176
618,1,0.8,0.0625,-35.0,-1,1.0,5.229900000000043
619,1,0.8,0.125,-35.0,-1,1.0,0.2699999999999818
620,1,0.8,0.0,-35.0,-1,1.0,3.0633000000000266
621,1,0.8,0.0625,-35.0,-1,1.0,5.540100000000166
622,1,0.8,1.0,35.0,1,1.0,0.2567999999998847
623,1,0.8,1.0,-35.0,-1,1.0,-0.04629999999974643
624,1,0.8,0.0,-35.0,-1,1.0,4.940300000000207
625,1,0.8,0.25,-35.0,-1,1.0,0.39380000000005566
626,1,0.8,0.125,-35.0,-1,1.0,0.2537999999999556
627,1,0.8,0.0625,-35.0,-1,1.0,3.1472000000001117
628,1,0.8,0.25,-35.0,-1,1.0,0.33740000000011605
629,1,0.8,1.0,-35.0,-1,1.0,1.3641000000000076
630,1,0.8,0.25,-35.0,-1,1.0,0.3708999999998923
631,1,0.8,0.0625,-35.0,-1,1.0,1.6774000000000342
632,1,0.8,0.125,-35.0,-1,1.0,0.2575000000003911
633,1,0.8,1.0,-35.0,-1,1.0,0.14760000000001128
634,1,0.8,0.125,-35.0,-1,1.0,0.5208999999999833
635,1,0.8,0.0625,-35.0,-1,1.0,2.6412000000002536
636,1,0.8,0.0625,-35.0,-1,1.0,0.22109999999997854
637,1,0.8,0.0,35.0,-1,0.0,0.9610999999999876
638,1,0.8,0.0,35.0,-1,0.0,1.6212000000000444
639,1,0.8,1.0,35.0,1,1.0,0.21810000000004948
640,1,0.8,0.25,-35.0,-1,1.0,0.2113000000001648
641,1,0.8,1.0,-35.0,-1,1.0,0.17810000000008586
642,1,0.8,0.0625,-35.0,1,0.0,0.298200000000179
643,1,0.8,0.25,-35.0,-1,1.0,0.30150000000003274
644,1,0.8,0.125,-35.0,-1,1.0,2.995100000000093
645,1,0.8,0.25,-35.0,-1,1.0,0.29510000000004766
646,1,0.8,0.0625,-35.0,-1,1.0,0.22169999999982792
647,1,0.8,0.0625,-35.0,-1,1.0,3.888400000000047
648,1,0.8,0.125,-35.0,-1,1.0,0.3818999999998596
649,1,0.8,0.0625,35.0,-1,0.0,0.2718999999999596
650,1,0.8,0.25,-35.0,-1,1.0,0.26870000000008076
651,1,0.8,0.125,-35.0,-1,1.0,2.0121999999998934
652,1,0.8,1.0,-35.0,-1,1.0,0.30549999999993815
653,1,0.8,0.125,-35.0,-1,1.0,0.21220000000016626
654,1,0.8,0.0625,35.0,-1,0.0,2.072300000000041
655,1,0.8,0.25,-35.0,-1,1.0,0.3892000000000735
656,1,0.8,1.0,-35.0,-1,1.0,0.23919999999998254
657,1,0.8,0.0625,-35.0,-1,1.0,5.792599999999993
658,1,0.8,1.0,-35.0,-1,1.0,0.25270000000000437
659,1,0.8,1.0,-35.0,-1,1.0,0.2059999999999036
660,1,0.8,0.25,-35.0,-1,1.0,0.11639999999988504
661,1,0.8,1.0,35.0,1,1.0,0.17610000000013315
662,1,0.8,0.25,-35.0,-1,1.0,4.219700000000103
663,1,0.8,1.0,35.0,1,1.0,0.2296000000001186
664,1,0.8,1.0,-35.0,-1,1.0,2.8531000000000404
665,1,0.8,0.0625,35.0,-1,0.0,0.2298000000000684
666,1,0.8,0.0625,-35.0,-1,1.0,1.923200000000179
667,1,0.8,0.25,-35.0,-1,1.0,0.25660000000016225
668,1,0.8,0.0,-35.0,-1,1.0,4.793299999999817
669,1,0.8,0.25,-35.0,-1,1.0,0.3137000000001535
670,1,0.8,0.0625,-35.0,1,0.0,1.1836000000000695
671,1,0.8,1.0,-35.0,-1,1.0,0.26020100000005186
672,1,0.8,0.25,-35.0,-1,1.0,0.32030100000019956
673,1,0.8,0.0625,-35.0,-1,1.0,2.55710100000033
674,1,0.8,0.0625,-35.0,-1,1.0,2.1104009999999107
675,1,0.8,1.0,-35.0,-1,1.0,0.25080099999991035
676,1,0.8,0.125,-35.0,-1,1.0,1.3772010000000137
677,1,0.8,0.0625,-35.0,-1,1.0,1.8873009999999795
678,1,0.8,0.125,-35.0,-1,1.0,2.1640010000000984
679,1,0.8,1.0,-35.0,-1,1.0,0.2875010000000202
680,1,0.8,1.0,-35.0,-1,1.0,0.3942010000002938
681,1,0.8,1.0,35.0,1,1.0,0.2477010000000064
682,1,0.8,0.0,-35.0,-1,1.0,0.674301000000014
683,1,0.8,0.125,-35.0,-1,1.0,0.20440099999996164
684,1,0.8,0.25,-35.0,-1,1.0,1.2411010000000715
685,1,0.8,0.25,-35.0,-1,1.0,7.751201000000037
686,1,0.2,0.125,-35.0,-1,1.0,12.57810100000006
687,1,0.2,0.0625,35.0,1,1.0,0.4151010000000497
688,1,0.2,0.0,35.0,-1,0.0,6.20160100000021
689,1,0.2,0.25,35.0,1,1.0,0.22520099999997
690,1,0.2,0.0,-35.0,-1,1.0,3.21220100000005
691,1,0.2,1.0,35.0,1,1.0,0.2554010000001199
692,1,0.2,0.25,35.0,1,1.0,2.048900999999887
693,1,0.2,0.25,-35.0,-1,1.0,0.26220100000023194
694,1,0.2,1.0,35.0,1,1.0,0.19230100000004313
695,1,0.2,0.25,35.0,1,1.0,0.3990009999999984
696,1,0.2,0.25,35.0,1,1.0,0.25890099999992344
697,1,0.2,0.0625,35.0,1,1.0,0.3624010000000908
698,1,0.2,0.125,35.0,1,1.0,0.219101000000137
699,1,0.2,0.25,35.0,-1,0.0,11.135901000000104
700,1,0.2,0.0,35.0,1,1.0,0.36950099999990016
701,1,0.2,0.125,-35.0,1,0.0,0.2827010000003156
702,1,0.2,0.0625,35.0,-1,0.0,0.25610100000017155
703,1,0.2,0.125,-35.0,-1,1.0,2.4329009999999016
704,1,0.2,0.25,35.0,1,1.0,0.22960100000022976
705,1,0.2,1.0,-35.0,-1,1.0,0.25980100000015227
706,1,0.2,0.0625,35.0,-1,0.0,8.119601000000102
707,1,0.2,0.0625,35.0,-1,0.0,7.223601000000144
708,1,0.2,1.0,35.0,1,1.0,0.26020100000005186
709,1,0.2,0.0,35.0,1,1.0,0.18020099999966988
710,1,0.2,1.0,35.0,1,1.0,0.41020099999968807
711,1,0.2,1.0,35.0,1,1.0,0.33020100000021557
712,1,0.2,1.0,-35.0,-1,1.0,0.2603009999997994
713,1,0.2,0.0625,35.0,1,1.0,0.29050099999994927
714,1,0.2,0.25,-35.0,-1,1.0,4.19720099999995
715,1,0.2,0.25,35.0,1,1.0,0.44390100000009625
716,1,0.2,0.25,35.0,1,1.0,0.24080099999991944
717,1,0.2,1.0,35.0,1,1.0,0.23080099999970116
718,1,0.2,1.0,-35.0,-1,1.0,8.600800999999592
719,1,0.2,0.0,35.0,-1,0.0,0.42760100000032253
720,1,0.2,0.0,35.0,1,1.0,8.247700999999779
721,1,0.2,0.0625,35.0,-1,0.0,4.4046009999997295
722,1,0.2,0.0625,35.0,1,1.0,0.37130100000013044
723,1,0.2,0.0,35.0,-1,0.0,7.074701000000005
724,1,0.2,1.0,35.0,1,1.0,0.1915009999997892
725,1,0.2,1.0,35.0,1,1.0,0.43840099999988524
726,1,0.2,1.0,35.0,1,1.0,0.18830100000013772
727,1,0.2,1.0,35.0,1,1.0,0.2117009999997208
728,1,0.2,1.0,35.0,1,1.0,0.20170099999995728
729,1,0.2,0.125,35.0,1,1.0,8.79850099999976
730,1,0.2,0.125,35.0,-1,0.0,2.772200999999768
731,1,0.2,0.0,35.0,1,1.0,44.812401000000136
732,1,0.2,0.125,-35.0,-1,1.0,0.3465009999999893
733,1,0.2,0.0625,35.0,-1,0.0,5.743300999999974
734,1,0.2,1.0,35.0,1,1.0,0.18360100000018065
735,1,0.2,0.25,35.0,1,1.0,0.2336009999999078
736,1,0.2,0.125,35.0,1,1.0,0.19670099999984814
737,1,0.2,0.0625,-35.0,-1,1.0,6.996700999999575
738,1,0.2,0.25,35.0,-1,0.0,13.700700999999754
739,1,0.2,1.0,35.0,1,1.0,0.2640010000000075
740,1,0.2,0.25,35.0,1,1.0,0.23740099999986342
741,1,0.2,0.25,-35.0,-1,1.0,0.42080099999975573
742,1,0.2,0.0625,-35.0,-1,1.0,13.310801000000083
743,1,0.2,0.125,35.0,1,1.0,0.19440099999974336
744,1,0.2,1.0,-35.0,-1,1.0,0.26790100000016537
745,1,0.2,0.0625,35.0,1,1.0,34.007800999999745
746,1,0.2,1.0,35.0,1,1.0,0.045301000000108615
747,1,0.2,1.0,-35.0,-1,1.0,0.4788010000002032
748,1,0.2,0.25,-35.0,-1,1.0,4.568700999999692
749,1,0.2,0.25,-35.0,-1,1.0,21.752300999999534
750,1,0.2,0.125,35.0,1,1.0,9.806100999999671
751,1,0.8,0.125,-35.0,-1,1.0,0.4598009999999704
752,1,0.8,0.125,-35.0,-1,1.0,0.37650099999973463
753,1,0.8,0.125,-35.0,-1,1.0,1.819800999999643
754,1,0.8,0.25,-35.0,-1,1.0,0.3165009999997892
755,1,0.8,0.0625,-35.0,-1,1.0,0.38010099999974045
756,1,0.8,0.125,-35.0,-1,1.0,0.3701009999999769
757,1,0.8,0.0625,-35.0,-1,1.0,4.836800999999923
758,1,0.8,0.0,-35.0,-1,1.0,7.033600999999635
759,1,0.8,0.0625,-35.0,-1,1.0,1.8403009999997266
760,1,0.8,1.0,-35.0,-1,1.0,0.2439009999998234
761,1,0.8,1.0,-35.0,-1,1.0,0.4171010000000024
762,1,0.8,1.0,-35.0,-1,1.0,0.24060099999996964
763,1,0.8,1.0,-35.0,-1,1.0,2.6640010000000984
764,1,0.8,0.0625,-35.0,-1,1.0,14.120700999999826
765,1,0.8,1.0,-35.0,-1,1.0,0.257600999999795
766,1,0.8,0.0625,-35.0,-1,1.0,2.921100999999908
767,1,0.8,0.125,-35.0,-1,1.0,7.711100999999871
768,1,0.8,0.25,-35.0,-1,1.0,14.328000999999858
769,1,0.8,0.125,-35.0,-1,1.0,0.36160100000006423
770,1,0.8,1.0,-35.0,-1,1.0,0.2617009999999027
771,1,0.8,1.0,-35.0,-1,1.0,0.23530100000016319
772,1,0.8,1.0,-35.0,-1,1.0,2.1851010000000315
773,1,0.8,0.0625,35.0,1,1.0,6.965200999999524
774,1,0.8,0.0625,-35.0,-1,1.0,44.698801
775,1,0.8,0.25,-35.0,-1,1.0,0.4598009999999704
776,1,0.8,0.125,-35.0,-1,1.0,6.953101000000061
777,1,0.8,1.0,-35.0,-1,1.0,0.37990099999979066
778,1,0.8,0.125,-35.0,-1,1.0,3.18000099999972
779,1,0.8,0.0625,-35.0,-1,1.0,2.036800999999741
780,1,0.8,1.0,35.0,1,1.0,0.2736009999998714
781,1,0.8,1.0,-35.0,-1,1.0,0.7737009999996189
782,1,0.8,0.0625,35.0,1,1.0,3.7004009999996015
783,1,0.8,0.0,-35.0,-1,1.0,46.20380099999966
784,1,0.8,0.25,-35.0,-1,1.0,53.128000999999585
785,1,0.8,0.25,-35.0,-1,1.0,0.5293010000000322
786,1,0.8,1.0,35.0,1,1.0,0.23940099999981612
787,1,0.8,0.0,-35.0,-1,1.0,5.919200999999703
788,1,0.8,0.25,-35.0,1,0.0,0.3063010000000759
789,1,0.8,0.125,-35.0,-1,1.0,0.40970100000004095
790,1,0.8,0.125,-35.0,-1,1.0,0.5564010000002781
791,1,0.8,1.0,-35.0,-1,1.0,5.456400999999914
792,1,0.8,0.0625,-35.0,-1,1.0,11.369900999999572
793,1,0.8,0.0625,-35.0,-1,1.0,0.48669999999992797
794,1,0.8,0.125,35.0,1,1.0,0.5170009999997092
795,1,0.8,0.25,-35.0,-1,1.0,8.88010099999974
796,1,0.8,1.0,-35.0,1,0.0,36.6337010000002
797,1,0.8,1.0,35.0,-1,0.0,3.7611010000000533
798,1,0.8,0.25,35.0,-1,0.0,1.2114010000004782
799,1,0.8,0.0625,35.0,-1,0.0,5.34150099999988
800,1,0.8,0.25,-35.0,-1,1.0,0.3517010000000482
801,1,0.8,1.0,-35.0,-1,1.0,18.368300999999974
802,1,0.8,0.0625,-35.0,-1,1.0,20.358700999999655
803,1,0.8,0.125,-35.0,-1,1.0,7.949200999999903
804,1,0.8,0.0625,-35.0,-1,1.0,22.052700999999615
805,1,0.8,0.25,-35.0,-1,1.0,0.23340099999950326
806,1,0.8,0.125,-35.0,-1,1.0,12.526601000000028
807,1,0.8,1.0,-35.0,-1,1.0,6.893600999999762
1,2,0.5,0.125,-35.0,-1,1.0,0.1986
2,2,0.5,0.125,-35.0,-1,1.0,0.34969999999999946
3,2,0.5,0.125,-35.0,-1,1.0,0.36650000000000027
4,2,0.5,0.0625,-35.0,-1,1.0,1.9789999999999992
5,2,0.5,0.0,-35.0,-1,1.0,2.4621999999999993
6,2,0.5,0.25,35.0,1,1.0,0.20009999999999906
7,2,0.5,0.0625,-35.0,-1,1.0,3.8805999999999976
8,2,0.5,1.0,-35.0,-1,1.0,0.19170000000000442
9,2,0.5,0.25,35.0,-1,0.0,3.6492000000000075
10,2,0.5,0.0625,-35.0,-1,1.0,0.1938999999999993
11,2,0.5,0.0625,-35.0,-1,1.0,4.606199999999994
12,2,0.5,1.0,35.0,1,1.0,0.2372000000000014
13,2,0.5,0.0625,35.0,-1,0.0,11.081499999999998
14,2,0.5,0.125,-35.0,-1,1.0,3.2545000000000073
15,2,0.5,0.125,-35.0,-1,1.0,1.8982000000000028
16,2,0.5,0.0,-35.0,-1,1.0,3.6991000000000014
17,2,0.5,0.0625,-35.0,-1,1.0,5.7479999999999905
18,2,0.5,1.0,-35.0,-1,1.0,0.21469999999997924
19,2,0.5,1.0,35.0,1,1.0,0.20400000000000773
20,2,0.5,0.0625,35.0,-1,0.0,3.6461999999999932
21,2,0.5,0.125,35.0,-1,0.0,8.4619
22,2,0.5,0.25,35.0,1,1.0,0.5927999999999969
23,2,0.5,0.125,-35.0,-1,1.0,4.980500000000006
24,2,0.5,0.0625,35.0,-1,0.0,2.3648000000000025
25,2,0.5,1.0,-35.0,-1,1.0,0.4741999999999962
26,2,0.5,0.0,-35.0,-1,1.0,9.850200000000001
27,2,0.5,0.0,-35.0,-1,1.0,0.43180000000000973
28,2,0.5,0.0625,-35.0,1,0.0,0.6112000000000251
29,2,0.5,1.0,-35.0,-1,1.0,7.093600000000009
30,2,0.5,1.0,35.0,1,1.0,0.20570000000000732
31,2,0.5,0.0625,35.0,-1,0.0,4.28540000000001
32,2,0.5,0.0,-35.0,-1,1.0,8.197699999999998
33,2,0.5,0.125,-35.0,-1,1.0,0.21389999999999532
34,2,0.5,0.0,35.0,-1,0.0,4.467799999999983
35,2,0.5,0.125,-35.0,-1,1.0,5.769299999999987
36,2,0.5,1.0,-35.0,-1,1.0,0.4258000000000095
37,2,0.5,1.0,35.0,1,1.0,0.23349999999999227
38,2,0.5,0.0625,35.0,-1,0.0,19.965400000000017
39,2,0.5,1.0,35.0,1,1.0,0.16890000000000782
40,2,0.5,1.0,35.0,1,1.0,0.17560000000000286
41,2,0.5,1.0,35.0,1,1.0,0.2220000000000084
42,2,0.5,1.0,-35.0,-1,1.0,3.2389000000000294
43,2,0.5,0.0625,35.0,-1,0.0,2.8202
44,2,0.5,0.0625,-35.0,-1,1.0,3.638999999999953
45,2,0.5,0.0,-35.0,1,0.0,0.4475999999999658
46,2,0.5,1.0,-35.0,-1,1.0,0.18159999999994625
47,2,0.5,0.125,-35.0,-1,1.0,0.20810000000000173
48,2,0.5,1.0,-35.0,-1,1.0,5.842399999999998
49,2,0.5,1.0,-35.0,-1,1.0,0.6315999999999349
50,2,0.5,0.25,-35.0,-1,1.0,7.08420000000001
51,2,0.5,1.0,-35.0,-1,1.0,0.2566999999999666
52,2,0.5,0.125,35.0,-1,0.0,5.1714999999999804
53,2,0.5,0.0625,-35.0,-1,1.0,8.510299999999972
54,2,0.5,1.0,35.0,1,1.0,0.21339999999997872
55,2,0.5,0.25,-35.0,-1,1.0,5.06129999999996
56,2,0.5,0.0625,35.0,-1,0.0,6.195699999999931
57,2,0.5,1.0,35.0,1,1.0,0.19400000000001683
58,2,0.5,0.125,35.0,1,1.0,0.4118000000000279
59,2,0.5,0.125,35.0,-1,0.0,7.020299999999963
60,2,0.5,0.0,35.0,1,1.0,0.17570000000000618
61,2,0.5,0.125,35.0,-1,0.0,3.962600000000009
62,2,0.5,0.125,-35.0,-1,1.0,0.2817000000000007
63,2,0.5,1.0,35.0,1,1.0,0.20150000000001
64,2,0.5,1.0,-35.0,-1,1.0,0.21800000000001774
65,2,0.5,0.0,-35.0,-1,1.0,4.8396999999999935
66,2,0.5,0.0625,35.0,-1,0.0,3.356299999999976
67,2,0.5,0.125,-35.0,-1,1.0,0.1938000000000102
68,2,0.5,0.0625,-35.0,-1,1.0,5.423999999999978
69,2,0.5,1.0,35.0,1,1.0,0.17980000000000018
70,2,0.5,1.0,35.0,1,1.0,0.2348999999999819
71,2,0.5,0.0625,35.0,-1,0.0,6.544999999999959
72,2,0.5,0.0,35.0,-1,0.0,0.25090000000000146
73,2,0.5,0.125,35.0,-1,0.0,0.38819999999998345
74,2,0.5,0.25,-35.0,-1,1.0,0.23490000000003874
75,2,0.5,1.0,-35.0,-1,1.0,0.12599999999997635
76,2,0.5,0.25,35.0,1,1.0,7.4179999999999495
77,2,0.5,1.0,35.0,1,1.0,0.1765999999999508
78,2,0.5,0.125,-35.0,-1,1.0,30.941199999999924
79,2,0.5,0.25,35.0,1,1.0,0.1502999999999588
80,2,0.5,1.0,35.0,1,1.0,0.17629999999996926
81,2,0.5,0.25,35.0,-1,0.0,7.041600000000017
82,2,0.5,1.0,35.0,1,1.0,0.2175999999999476
83,2,0.5,0.0625,-35.0,-1,1.0,12.210699999999974
84,2,0.5,0.0625,35.0,-1,0.0,0.30059999999997444
85,2,0.5,0.0625,-35.0,-1,1.0,10.740299999999934
86,2,0.5,0.25,-35.0,-1,1.0,17.35850000000005
87,2,0.5,0.25,35.0,-1,0.0,8.24109999999996
88,2,0.5,0.25,35.0,-1,0.0,9.116800000000012
89,2,0.5,0.0625,35.0,1,1.0,0.22090000000002874
90,2,0.5,1.0,35.0,1,1.0,0.20529999999996562
91,2,0.2,1.0,35.0,1,1.0,0.17649999999991905
92,2,0.2,1.0,35.0,1,1.0,0.23880000000008295
93,2,0.2,0.0625,35.0,0,0.0,59.94889999999987
94,2,0.2,0.0625,-35.0,-1,1.0,0.2277000000000271
95,2,0.2,0.25,-35.0,-1,1.0,0.2782000000000835
96,2,0.2,1.0,-35.0,-1,1.0,44.86189999999999
97,2,0.2,0.0625,35.0,-1,0.0,0.20150000000001
98,2,0.2,0.125,35.0,1,1.0,0.316599999999994
99,2,0.2,0.0625,35.0,1,1.0,2.5465999999998985
100,2,0.2,0.125,-35.0,-1,1.0,6.658100000000104
101,2,0.2,1.0,35.0,1,1.0,0.23369999999988522
102,2,0.2,0.125,35.0,1,1.0,10.106400000000008
103,2,0.2,0.0625,35.0,-1,0.0,9.885899999999879
104,2,0.2,0.0625,35.0,1,1.0,0.2319999999999709
105,2,0.2,1.0,35.0,1,1.0,0.1798999999998614
106,2,0.2,0.0,35.0,1,1.0,10.892900000000054
107,2,0.2,0.0625,35.0,1,1.0,7.315899999999829
108,2,0.2,1.0,35.0,1,1.0,0.18309999999996762
109,2,0.2,0.0625,35.0,1,1.0,4.429499999999962
110,2,0.2,0.125,35.0,-1,0.0,4.606099999999969
111,2,0.2,1.0,35.0,1,1.0,0.18409999999994398
112,2,0.2,0.25,35.0,1,1.0,9.527399999999943
113,2,0.2,0.0625,35.0,1,1.0,0.5203000000000202
114,2,0.2,1.0,-35.0,-1,1.0,5.088300000000004
115,2,0.2,0.25,35.0,1,1.0,0.1772999999999456
116,2,0.2,0.25,35.0,1,1.0,0.6025999999999385
117,2,0.2,0.0625,35.0,-1,0.0,8.77209999999991
118,2,0.2,1.0,35.0,1,1.0,0.16999999999995907
119,2,0.2,0.0625,-35.0,-1,1.0,13.478399999999965
120,2,0.2,0.125,35.0,1,1.0,0.1795000000000755
121,2,0.2,0.0625,35.0,-1,0.0,10.140300000000025
122,2,0.2,0.125,35.0,1,1.0,0.2537999999999556
123,2,0.8,0.0,-35.0,-1,1.0,18.60050000000001
124,2,0.8,0.125,-35.0,-1,1.0,0.2438999999999396
125,2,0.8,0.25,-35.0,-1,1.0,0.25090000000011514
126,2,0.8,0.0,-35.0,-1,1.0,4.765700000000038
127,2,0.8,0.0625,-35.0,-1,1.0,5.413900000000012
128,2,0.8,0.25,-35.0,1,0.0,0.18260000000009313
129,2,0.8,0.125,-35.0,-1,1.0,0.9017999999999802
130,2,0.8,0.125,-35.0,-1,1.0,6.708799999999883
131,2,0.8,0.0625,-35.0,-1,1.0,5.486699999999928
132,2,0.8,0.0625,-35.0,-1,1.0,3.5920999999999594
133,2,0.8,0.125,-35.0,-1,1.0,7.51159999999993
134,2,0.8,0.25,-35.0,-1,1.0,5.419399999999996
135,2,0.8,0.125,35.0,1,1.0,0.27109999999993306
136,2,0.8,0.125,35.0,-1,0.0,12.603299999999876
137,2,0.8,0.0625,-35.0,-1,1.0,0.272199999999998
138,2,0.8,1.0,35.0,1,1.0,0.24489999999991596
139,2,0.8,0.125,-35.0,-1,1.0,8.692499999999995
140,2,0.8,0.125,-35.0,1,0.0,0.22329999999999472
141,2,0.8,0.25,-35.0,-1,1.0,0.2828999999999269
142,2,0.8,0.25,-35.0,-1,1.0,28.88639999999998
143,2,0.8,0.25,35.0,1,1.0,0.19369999999980791
144,2,0.8,0.25,-35.0,-1,1.0,3.360300000000052
145,2,0.8,1.0,-35.0,-1,1.0,0.2536999999999807
146,2,0.8,1.0,-35.0,-1,1.0,6.9707999999998265
147,2,0.8,0.25,-35.0,-1,1.0,0.2439999999999145
148,2,0.8,0.125,35.0,1,1.0,0.23769999999990432
149,2,0.8,0.25,-35.0,-1,1.0,7.154699999999821
150,2,0.8,0.125,-35.0,-1,1.0,8.53469999999993
151,2,0.8,0.125,-35.0,-1,1.0,5.734699999999975
152,2,0.8,0.125,-35.0,-1,1.0,0.2748999999998887
153,2,0.8,1.0,-35.0,-1,1.0,7.371299999999792
154,2,0.8,0.25,-35.0,-1,1.0,8.904899999999998
155,2,0.8,0.25,35.0,1,1.0,0.2318000000000211
156,2,0.8,1.0,-35.0,1,0.0,5.292599999999993
157,2,0.8,1.0,35.0,1,1.0,0.2220999999999549
158,2,0.8,0.0625,35.0,1,1.0,0.42570000000023356
159,2,0.8,0.25,-35.0,-1,1.0,8.762199999999893
160,2,0.8,0.0625,35.0,0,0.0,59.94969999999989
161,2,0.8,1.0,-35.0,-1,1.0,0.2074999999999818
162,2,0.8,0.0625,-35.0,1,0.0,0.3104000000000724
163,2,0.2,0.125,-35.0,-1,1.0,0.2037000000000262
164,2,0.2,1.0,-35.0,-1,1.0,0.1772000000000844
165,2,0.2,0.25,35.0,1,1.0,0.25709999999980937
166,2,0.2,0.25,35.0,1,1.0,0.20409999999992579
167,2,0.2,0.25,35.0,-1,0.0,18.69380000000001
168,2,0.2,1.0,35.0,1,1.0,0.19090000000005602
169,2,0.2,1.0,35.0,1,1.0,0.19790000000011787
170,2,0.2,0.0625,35.0,-1,0.0,8.207999999999856
171,2,0.2,0.0,35.0,-1,0.0,0.24480000000016844
172,2,0.2,0.25,35.0,1,1.0,0.2580000000000382
173,2,0.2,0.25,-35.0,-1,1.0,0.21800000000007458
174,2,0.2,0.25,-35.0,-1,1.0,4.954999999999927
175,2,0.2,0.125,35.0,1,1.0,0.3949000000000069
176,2,0.2,0.25,35.0,1,1.0,4.358199999999897
177,2,0.2,0.125,35.0,1,1.0,0.2619999999999436
178,2,0.2,0.0625,35.0,0,0.0,59.94889999999987
179,2,0.2,0.125,35.0,1,1.0,0.3264000000001488
180,2,0.2,0.25,35.0,1,1.0,27.336599999999862
181,2,0.2,0.0,35.0,-1,0.0,7.090400000000045
182,2,0.2,0.125,35.0,1,1.0,0.2705999999998312
183,2,0.2,0.0,35.0,-1,0.0,40.874500000000126
184,2,0.2,0.0,35.0,1,1.0,0.2317000000000462
185,2,0.2,0.0,35.0,-1,0.0,3.008600000000115
186,2,0.2,1.0,35.0,1,1.0,0.1529000000000451
187,2,0.2,0.0625,35.0,-1,0.0,3.731999999999971
188,2,0.2,0.0625,35.0,1,1.0,0.21560000000022228
189,2,0.2,0.0625,35.0,1,1.0,0.17219999999997526
190,2,0.2,1.0,35.0,1,1.0,-0.020999999999958163
191,2,0.2,0.125,35.0,1,1.0,0.3160000000000309
192,2,0.2,1.0,35.0,1,1.0,0.22910000000001673
193,2,0.2,1.0,35.0,1,1.0,0.3025000000000091
194,2,0.2,0.0625,35.0,1,1.0,22.049200000000155
195,2,0.2,0.125,-35.0,1,0.0,0.5996999999999844
196,2,0.2,0.125,35.0,1,1.0,4.633199999999988
197,2,0.2,0.25,-35.0,-1,1.0,5.8134000000000015
198,2,0.2,1.0,35.0,1,1.0,0.223700000000008
199,2,0.2,0.0625,35.0,-1,0.0,6.740299999999934
200,2,0.2,1.0,35.0,1,1.0,0.29789999999979955
201,2,0.2,0.125,35.0,1,1.0,0.36760000000003856
202,2,0.2,0.125,35.0,1,1.0,45.78789999999981
203,2,0.2,0.25,35.0,1,1.0,0.23159999999984393
204,2,0.2,0.0625,-35.0,1,0.0,5.425100000000157
205,2,0.2,0.125,35.0,1,1.0,0.2119000000000142
206,2,0.2,1.0,35.0,1,1.0,0.19879999999989195
207,2,0.2,1.0,35.0,1,1.0,0.24880000000007385
208,2,0.2,0.25,-35.0,-1,1.0,25.891800000000103
209,2,0.2,0.0,35.0,-1,0.0,7.422900000000027
210,2,0.2,0.125,35.0,1,1.0,0.30280000000016116
211,2,0.2,0.0,35.0,-1,0.0,2.516300000000001
212,2,0.2,0.0,-35.0,1,0.0,5.442900000000009
213,2,0.2,0.0625,-35.0,-1,1.0,0.5029999999999291
214,2,0.2,0.25,35.0,1,1.0,2.1001000000001113
215,2,0.2,0.0625,35.0,1,1.0,1.6832999999999174
216,2,0.2,1.0,35.0,1,1.0,0.3704000000000178
217,2,0.2,1.0,35.0,1,1.0,9.65359999999987
218,2,0.2,0.25,35.0,-1,0.0,27.774200000000064
219,2,0.2,0.25,35.0,1,1.0,50.48779999999988
220,2,0.2,0.0625,-35.0,-1,1.0,0.9827000000000226
221,2,0.2,0.125,35.0,-1,0.0,4.569400000000087
222,2,0.2,0.0625,35.0,-1,0.0,6.185699999999997
223,2,0.2,0.0625,-35.0,-1,1.0,45.79250000000002
224,2,0.2,1.0,35.0,1,1.0,0.3141000000000531
225,2,0.2,0.125,35.0,1,1.0,0.3501000000001113
226,2,0.2,0.25,35.0,-1,0.0,40.20710000000008
227,2,0.2,0.25,35.0,1,1.0,0.3447999999998501
228,2,0.2,1.0,35.0,1,1.0,51.594699999999875
229,2,0.8,1.0,-35.0,-1,1.0,3.819099999999935
230,2,0.8,0.0625,-35.0,-1,1.0,10.109300000000076
231,2,0.8,1.0,-35.0,-1,1.0,8.733099999999922
232,2,0.8,0.25,-35.0,-1,1.0,5.502999999999929
233,2,0.8,0.25,-35.0,-1,1.0,10.04690000000005
234,2,0.8,1.0,-35.0,-1,1.0,14.141000000000076
235,2,0.8,1.0,-35.0,-1,1.0,29.107200000000375
236,2,0.8,1.0,-35.0,-1,1.0,18.274499999999534
237,2,0.8,0.25,-35.0,0,0.0,59.88819999999987
238,2,0.8,0.0625,35.0,1,1.0,0.4766999999997097
239,2,0.8,0.25,-35.0,-1,1.0,53.14190000000008
240,2,0.8,0.125,-35.0,-1,1.0,6.706299999999828
241,2,0.8,0.25,-35.0,-1,1.0,0.259900000000016
242,2,0.8,0.0,-35.0,1,0.0,0.13009999999985666
243,2,0.8,0.125,-35.0,-1,1.0,1.756800000000112
244,2,0.8,0.0625,-35.0,1,0.0,4.28690000000006
245,2,0.8,0.0,-35.0,-1,1.0,2.297099999999773
246,2,0.8,0.25,-35.0,-1,1.0,3.000499000000218
247,2,0.8,0.125,-35.0,1,0.0,8.154099999999744
248,2,0.8,0.0625,-35.0,-1,1.0,10.8742000000002
249,2,0.8,0.125,-35.0,-1,1.0,0.45779999999967913
250,2,0.8,1.0,-35.0,-1,1.0,1.5545000000001892
251,2,0.8,0.0625,35.0,1,1.0,1.737999999999829
252,2,0.8,0.125,35.0,1,1.0,27.05809999999974
253,2,0.8,0.125,35.0,-1,0.0,13.972100999999839
254,2,0.8,0.0,-0.0,0,0.0,59.94230100000004
255,2,0.8,0.0625,-35.0,0,0.0,59.87360099999978
256,2,0.8,0.0,-35.0,-1,1.0,4.448700999999801
257,2,0.8,0.125,-35.0,-1,1.0,0.3437010000002374
258,2,0.8,1.0,-35.0,-1,1.0,6.906600999999682
259,2,0.8,0.0625,-35.0,1,0.0,41.07670100000041
260,2,0.8,0.125,-35.0,-1,1.0,3.1880009999999857
261,2,0.8,0.125,-35.0,-1,1.0,51.77460099999962
262,2,0.8,0.125,-35.0,-1,1.0,4.768800999999712
263,2,0.8,1.0,-35.0,-1,1.0,0.25930099999959566
264,2,0.8,0.25,-35.0,-1,1.0,5.8825010000000475
265,2,0.8,0.0625,-35.0,-1,1.0,5.74940099999958
266,2,0.8,0.125,-35.0,-1,1.0,10.063501000000088
267,2,0.8,0.125,-35.0,0,0.0,59.946600999999646
268,2,0.8,0.0625,-35.0,0,0.0,28.23050100000046
269,2,0.8,0.125,-35.0,0,0.0,9.316600999999991
270,2,0.8,1.0,-35.0,-1,1.0,0.026800999999977648
271,2,0.8,1.0,-35.0,-1,1.0,5.02940099999978
272,2,0.8,0.25,-35.0,0,0.0,59.95610100000022
273,2,0.8,0.0625,-35.0,-1,1.0,16.597801000000345
274,2,0.8,0.25,35.0,1,1.0,0.19600099999979648
275,2,0.8,0.0625,35.0,1,1.0,0.6393010000001595
276,2,0.8,0.0,-35.0,1,0.0,2.293300999999701
277,2,0.8,0.0,-35.0,1,0.0,4.923401000000013
278,2,0.8,0.0,-35.0,-1,1.0,8.526300999999876
279,2,0.8,0.0625,-35.0,-1,1.0,14.289800999999898
280,2,0.2,0.125,35.0,1,1.0,28.05690100000038
281,2,0.2,0.25,35.0,1,1.0,0.2977009999999609
282,2,0.2,0.0625,35.0,-1,0.0,1.3309009999998125
283,2,0.2,0.25,35.0,1,1.0,0.29430099999945014
284,2,0.2,0.125,35.0,-1,0.0,55.11780099999987
285,2,0.2,0.125,35.0,1,1.0,0.9355009999994763
286,2,0.2,1.0,35.0,1,1.0,0.3422009999999318
287,2,0.2,1.0,35.0,1,1.0,11.122501000000284
288,2,0.2,0.0625,35.0,-1,0.0,45.27940099999978
289,2,0.2,0.0625,35.0,-1,0.0,15.93380100000013
290,2,0.2,0.125,35.0,-1,0.0,27.417201000000205
291,2,0.2,1.0,35.0,1,1.0,4.924801000000116
292,2,0.2,1.0,-35.0,-1,1.0,9.531500999999935
293,2,0.2,0.25,35.0,1,1.0,14.458200999999917
294,2,0.2,0.125,35.0,-1,0.0,24.6353009999998
295,2,0.2,0.0625,-35.0,-1,1.0,49.37600100000009
296,2,0.2,0.0625,35.0,-1,0.0,3.0104010000000017
297,2,0.2,0.0625,-35.0,-1,1.0,1.7737010000000737
298,2,0.2,0.0625,35.0,-1,0.0,11.840500999999676
299,2,0.2,0.125,35.0,-1,0.0,7.831600999999864
300,2,0.2,0.0625,35.0,-1,0.0,21.58480099999997
301,2,0.2,0.25,35.0,1,1.0,7.045200999999906
302,2,0.2,0.25,35.0,0,0.0,59.94190099999969
303,2,0.2,0.125,-35.0,-1,1.0,25.398701000000074
304,2,0.2,0.0,35.0,-1,0.0,25.61030099999971
305,2,0.2,0.125,35.0,-1,0.0,50.60800100000006
306,2,0.2,0.25,35.0,1,1.0,0.4655009999996764
307,2,0.2,1.0,-35.0,-1,1.0,10.345201000000543
308,2,0.2,0.25,35.0,-1,0.0,12.356001000000106
309,2,0.2,0.125,35.0,-1,0.0,6.0460009999997055
310,2,0.2,0.0,35.0,-1,0.0,0.8031009999999696
311,2,0.2,1.0,-35.0,-1,1.0,2.6932010000000446
312,2,0.2,0.0625,35.0,-1,0.0,0.2671010000003662
313,2,0.2,1.0,35.0,1,1.0,0.2896009999999478
314,2,0.2,0.0625,35.0,1,1.0,9.830000999999811
315,2,0.2,0.25,35.0,0,0.0,59.950300999999854
316,2,0.2,1.0,35.0,1,1.0,0.1580010000002403
317,2,0.2,0.25,35.0,1,1.0,33.260301000000254
318,2,0.2,0.25,35.0,1,1.0,14.081001000000015
319,2,0.2,0.0625,35.0,-1,0.0,16.898101000000224
320,2,0.2,0.25,35.0,0,0.0,59.9487009999998
321,2,0.2,0.0625,-35.0,-1,1.0,17.42460099999971
322,2,0.2,0.0625,35.0,0,0.0,59.94390099999964
323,2,0.2,0.25,35.0,-1,0.0,14.301801000000069
324,2,0.2,1.0,35.0,1,1.0,0.37550099999998565
325,2,0.2,1.0,-35.0,-1,1.0,10.722501000000193
326,2,0.2,0.0,-0.0,0,0.0,59.95260099999996
327,2,0.2,0.125,35.0,1,1.0,0.49730100000124366
328,2,0.2,0.0625,35.0,-1,0.0,6.3649010000008275
329,2,0.2,0.125,-35.0,0,0.0,59.935701000000336
330,2,0.2,0.125,35.0,-1,0.0,49.00980100000015
331,2,0.2,1.0,35.0,1,1.0,0.21310100000027887
332,2,0.2,0.0625,35.0,-1,0.0,42.30000100000052
333,2,0.2,0.125,-35.0,-1,1.0,0.22410100000070088
334,2,0.2,1.0,-35.0,-1,1.0,0.2277010000007067
335,2,0.2,0.0625,35.0,-1,0.0,3.77440100000058
336,2,0.2,1.0,-35.0,1,0.0,2.9078010000002905
337,2,0.2,0.0,35.0,1,1.0,4.29120100000091
338,2,0.2,0.0625,35.0,1,1.0,0.09150100000078965
339,2,0.2,1.0,35.0,1,1.0,0.5815010000005714
340,2,0.2,0.25,35.0,0,0.0,59.95490100000006
341,2,0.2,0.25,35.0,-1,0.0,14.3445010000014
342,2,0.2,0.125,35.0,-1,0.0,17.440401000000747
343,2,0.2,0.25,35.0,1,1.0,0.19080100000064704
344,2,0.2,0.25,35.0,0,0.0,59.94760099999985
345,2,0.2,0.25,35.0,1,1.0,6.64310099999966
346,2,0.2,1.0,35.0,1,1.0,7.415801000000101
347,2,0.2,0.125,35.0,1,1.0,5.84610100000009
348,2,0.2,0.25,35.0,1,1.0,4.906301000000894
349,2,0.2,1.0,-35.0,-1,1.0,7.533101000000897
350,2,0.2,0.125,-35.0,1,0.0,38.2934009999999
351,2,0.2,1.0,35.0,1,1.0,35.75080100000014
352,2,0.2,0.125,-35.0,0,0.0,59.951600999999755
353,2,0.2,0.125,35.0,-1,0.0,6.327601000000868
354,2,0.2,0.25,35.0,0,0.0,59.726800999999796
355,2,0.2,1.0,35.0,1,1.0,5.815301000000545
356,2,0.2,0.0,-0.0,0,0.0,59.94980099999975
357,2,0.2,0.125,35.0,1,1.0,33.83820100000048
358,2,0.2,0.0625,35.0,-1,0.0,49.50440100000105
359,2,0.2,0.25,35.0,1,1.0,0.28190100000028906
360,2,0.2,1.0,-35.0,-1,1.0,7.445501000000149
361,2,0.2,0.25,-35.0,0,0.0,59.94880100000046
362,2,0.2,0.125,35.0,-1,0.0,14.52020100000027
363,2,0.2,0.125,35.0,1,1.0,0.2814010000001872
364,2,0.2,0.0625,35.0,-1,0.0,21.098300999999992
365,2,0.2,0.0625,35.0,0,0.0,59.945701000000554
366,2,0.2,0.0625,35.0,-1,0.0,10.459501000000273
367,2,0.2,0.25,35.0,1,1.0,1.181101000000126
368,2,0.2,0.125,35.0,1,1.0,9.15440100000069
369,2,0.2,1.0,35.0,1,1.0,4.507901000000857
370,2,0.2,0.25,35.0,-1,0.0,4.784601000000293
371,2,0.2,1.0,35.0,1,1.0,0.2752009999994698
372,2,0.2,0.125,35.0,1,1.0,0.2552009999999427
373,2,0.2,0.0625,-35.0,1,0.0,0.4752009999992879
374,2,0.2,0.0625,35.0,1,1.0,4.491801000000123
375,2,0.2,0.125,-35.0,-1,1.0,14.335401000001184
376,2,0.2,0.0625,35.0,1,1.0,17.996001000000433
377,2,0.2,0.25,35.0,1,1.0,31.642800999999963
378,2,0.2,1.0,35.0,1,1.0,0.3435010000002876
379,2,0.8,0.0625,-35.0,1,0.0,32.59700100000009
380,2,0.8,0.125,-35.0,1,0.0,10.211100999999871
381,2,0.8,0.25,-35.0,-1,1.0,1.575101000000359
382,2,0.8,0.25,-35.0,1,0.0,28.748101000000133
1,3,0.5,0.0625,-35.0,-1,1.0,0.3626999999999999
2,3,0.5,0.0625,35.0,-1,0.0,1.4821999999999997
3,3,0.5,0.25,-35.0,-1,1.0,0.8027999999999995
4,3,0.5,0.0625,-35.0,1,0.0,7.821
5,3,0.5,0.0,-35.0,1,0.0,6.664300000000001
6,3,0.5,0.0625,35.0,-1,0.0,4.0227000000000075
7,3,0.5,0.0625,35.0,-1,0.0,0.5859999999999985
8,3,0.5,0.125,-35.0,-1,1.0,0.15930000000000177
9,3,0.5,1.0,35.0,1,1.0,0.20960000000000178
10,3,0.5,0.0625,-35.0,-1,1.0,3.6585000000000036
11,3,0.5,0.0,-35.0,-1,1.0,3.1084999999999994
12,3,0.5,0.0,-35.0,-1,1.0,5.748899999999992
13,3,0.5,0.125,-35.0,-1,1.0,2.3793999999999897
14,3,0.5,1.0,-35.0,-1,1.0,0.2510000000000048
15,3,0.5,0.125,-35.0,-1,1.0,0.2873000000000019
16,3,0.5,1.0,-35.0,-1,1.0,2.9425000000000097
17,3,0.5,0.125,35.0,-1,0.0,3.924199999999999
18,3,0.5,0.125,35.0,-1,0.0,2.0527000000000015
19,3,0.5,0.0625,-35.0,-1,1.0,0.20109999999999673
20,3,0.5,1.0,35.0,1,1.0,0.286200000000008
21,3,0.5,0.0625,-35.0,-1,1.0,3.6444000000000045
22,3,0.5,0.0625,-35.0,-1,1.0,2.6317999999999984
23,3,0.5,0.125,35.0,1,1.0,0.21640000000000725
24,3,0.5,0.25,-35.0,-1,1.0,5.647999999999982
25,3,0.5,1.0,35.0,1,1.0,0.14029999999999632
26,3,0.5,0.0,-35.0,-1,1.0,3.5191000000000088
27,3,0.5,0.25,35.0,1,1.0,0.38509999999998
28,3,0.5,0.125,-35.0,-1,1.0,5.374200000000002
29,3,0.5,0.125,35.0,1,1.0,0.5632999999999697
30,3,0.5,0.125,-35.0,-1,1.0,5.0702
31,3,0.5,0.125,-35.0,-1,1.0,0.2791999999999746
32,3,0.5,0.25,-35.0,-1,1.0,2.3865000000000123
33,3,0.5,0.25,35.0,-1,0.0,4.262400000000014
34,3,0.5,1.0,35.0,1,1.0,0.21369999999998868
35,3,0.5,0.25,35.0,-1,0.0,5.732900000000001
36,3,0.5,1.0,35.0,1,1.0,0.1285999999999774
37,3,0.5,0.125,-35.0,-1,1.0,2.477400000000017
38,3,0.5,1.0,-35.0,-1,1.0,0.27250000000000796
39,3,0.5,0.0,-35.0,1,0.0,4.9465999999999894
40,3,0.5,0.125,-35.0,-1,1.0,0.22670000000002233
41,3,0.5,0.125,-35.0,-1,1.0,3.0146000000000015
42,3,0.5,0.25,-35.0,-1,1.0,0.42660000000000764
43,3,0.5,0.25,35.0,-1,0.0,2.334300000000013
44,3,0.5,0.0,-35.0,-1,1.0,6.979099999999988
45,3,0.5,0.125,-35.0,1,0.0,1.6004000000000076
46,3,0.5,0.25,-35.0,-1,1.0,0.2627999999999986
47,3,0.5,1.0,-35.0,-1,1.0,0.4672999999999945
48,3,0.5,0.25,-35.0,-1,1.0,0.20599999999998886
49,3,0.5,0.125,-35.0,-1,1.0,5.6790000000000305
50,3,0.5,0.0625,35.0,1,1.0,0.08080000000001064
51,3,0.5,0.0625,35.0,-1,0.0,7.2234000000000265
52,3,0.5,0.0625,-35.0,-1,1.0,0.2920000000000016
53,3,0.5,0.125,35.0,1,1.0,3.043299999999988
54,3,0.5,0.0625,35.0,1,1.0,1.9800000000000182
55,3,0.5,0.125,35.0,-1,0.0,6.120300000000043
56,3,0.5,1.0,35.0,1,1.0,0.20720000000000027
57,3,0.5,1.0,-35.0,-1,1.0,0.20019999999999527
58,3,0.5,0.125,35.0,-1,0.0,5.516500000000008
59,3,0.5,0.125,35.0,1,1.0,0.26530000000002474
60,3,0.5,0.0625,35.0,-1,0.0,4.666699999999935
61,3,0.5,1.0,35.0,1,1.0,0.181699999999978
62,3,0.5,0.125,-35.0,-1,1.0,4.403500000000008
63,3,0.5,0.0,35.0,-1,0.0,8.702500000000043
64,3,0.5,1.0,-35.0,-1,1.0,0.2336999999999989
65,3,0.5,0.0,35.0,-1,0.0,4.115499999999997
66,3,0.5,0.25,-35.0,-1,1.0,0.2207000000000221
67,3,0.5,0.0625,-35.0,-1,1.0,4.313600000000008
68,3,0.5,0.25,-35.0,-1,1.0,4.274999999999977
69,3,0.5,0.25,35.0,1,1.0,4.800600000000031
70,3,0.5,0.25,-35.0,-1,1.0,0.17580000000003793
71,3,0.5,0.25,-35.0,-1,1.0,3.9377000000000635
72,3,0.5,0.0625,-35.0,-1,1.0,4.253700000000038
73,3,0.5,0.0,-35.0,1,0.0,0.18180000000000973
74,3,0.5,0.125,35.0,1,1.0,0.24780000000004065
75,3,0.5,0.25,35.0,-1,0.0,4.036699999999996
76,3,0.5,0.0625,35.0,-1,0.0,0.20590000000004238
77,3,0.5,0.0,-35.0,-1,1.0,0.22110000000003538
78,3,0.5,1.0,35.0,1,1.0,0.20109999999999673
79,3,0.5,0.25,35.0,-1,0.0,4.67489999999998
80,3,0.5,0.25,-35.0,-1,1.0,0.1765999999999508
81,3,0.5,0.125,35.0,-1,0.0,4.500200000000007
82,3,0.5,0.25,-35.0,-1,1.0,0.19509999999996808
83,3,0.5,0.0,-35.0,-1,1.0,3.7414999999999736
84,3,0.5,1.0,35.0,1,1.0,0.18909999999999627
85,3,0.5,0.25,-35.0,-1,1.0,0.20710000000002537
86,3,0.5,0.125,35.0,-1,0.0,5.374799999999993
87,3,0.5,0.0,-35.0,-1,1.0,0.21359999999998536
88,3,0.5,0.0625,35.0,-1,0.0,5.4751999999999725
89,3,0.5,0.25,35.0,1,1.0,0.17130000000003065
90,3,0.5,0.25,-35.0,-1,1.0,0.2512999999999579
91,3,0.2,0.125,35.0,1,1.0,0.2622000000000071
92,3,0.2,1.0,35.0,1,1.0,0.14870000000001937
93,3,0.2,0.125,-35.0,-1,1.0,9.57729999999998
94,3,0.2,0.0,-35.0,-1,1.0,2.278099999999995
95,3,0.2,0.0,35.0,-1,0.0,4.092499999999973
96,3,0.2,0.25,35.0,-1,0.0,3.707499999999982
97,3,0.2,0.125,35.0,1,1.0,0.28010000000000446
98,3,0.2,1.0,35.0,1,1.0,0.1816000000000031
99,3,0.2,0.25,-35.0,-1,1.0,3.358699999999999
100,3,0.2,0.25,-35.0,-1,1.0,0.36990000000002965
101,3,0.2,0.0625,35.0,-1,0.0,0.23399999999998045
102,3,0.2,1.0,-35.0,-1,1.0,0.19089999999999918
103,3,0.2,0.125,35.0,1,1.0,0.5439000000000647
104,3,0.2,0.25,35.0,-1,0.0,5.506000000000029
105,3,0.2,1.0,35.0,1,1.0,0.22709999999983665
106,3,0.2,1.0,-35.0,-1,1.0,0.19279999999992015
107,3,0.2,0.25,35.0,-1,0.0,6.09699999999998
108,3,0.2,0.0,35.0,1,1.0,0.15189999999995507
109,3,0.2,0.25,35.0,1,1.0,0.16509999999993852
110,3,0.2,0.25,35.0,1,1.0,0.19299999999998363
111,3,0.2,0.0,35.0,1,1.0,0.15249999999991815
112,3,0.2,0.0625,35.0,1,1.0,0.23109999999996944
113,3,0.2,0.0625,35.0,1,1.0,0.21209999999996398
114,3,0.2,0.125,35.0,1,1.0,0.2119999999998754
115,3,0.2,0.0625,35.0,-1,0.0,6.5955000000000155
116,3,0.2,1.0,35.0,1,1.0,0.1290999999998803
117,3,0.2,1.0,-35.0,-1,1.0,0.2584999999999127
118,3,0.2,0.25,35.0,1,1.0,0.14250000000004093
119,3,0.2,0.0625,-35.0,-1,1.0,8.306799999999953
120,3,0.2,0.25,35.0,1,1.0,0.18219999999996617
121,3,0.2,0.25,35.0,1,1.0,0.22959999999989122
122,3,0.2,0.0625,35.0,1,1.0,10.632599999999911
123,3,0.2,0.0,-35.0,1,0.0,2.427500000000009
124,3,0.2,0.125,35.0,1,1.0,0.13419999999996435
125,3,0.8,0.25,35.0,1,1.0,0.2175999999999476
126,3,0.8,0.0,-35.0,1,0.0,0.22059999999999036
127,3,0.8,1.0,-35.0,-1,1.0,0.16640000000006694
128,3,0.8,0.125,-35.0,-1,1.0,11.39829999999995
129,3,0.8,0.25,-35.0,-1,1.0,0.18619999999987158
130,3,0.8,0.25,-35.0,-1,1.0,10.561300000000074
131,3,0.8,0.25,-35.0,-1,1.0,0.20319999999992433
132,3,0.8,0.125,-35.0,-1,1.0,0.7787000000000717
133,3,0.8,1.0,35.0,1,1.0,0.20939999999984593
134,3,0.8,0.125,-35.0,-1,1.0,9.37889999999993
135,3,0.8,0.0,-35.0,-1,1.0,6.649900000000002
136,3,0.8,0.125,-35.0,-1,1.0,0.18909999999993943
137,3,0.8,0.25,-35.0,-1,1.0,4.20150000000001
138,3,0.8,0.125,-35.0,-1,1.0,0.6943999999999733
139,3,0.8,0.25,-35.0,-1,1.0,1.1382999999999583
140,3,0.8,0.125,-35.0,-1,1.0,1.8740999999998849
141,3,0.8,0.0,35.0,-1,0.0,6.502899999999954
142,3,0.8,0.0,-35.0,1,0.0,0.3084999999999809
143,3,0.8,0.125,-35.0,-1,1.0,0.22900000000004184
144,3,0.8,0.25,-35.0,-1,1.0,0.17999999999994998
145,3,0.8,0.0625,-35.0,-1,1.0,0.24119999999993524
146,3,0.8,0.125,-35.0,-1,1.0,0.2580999999998994
147,3,0.8,0.0625,-35.0,-1,1.0,0.6934999999998581
148,3,0.8,1.0,-35.0,-1,1.0,0.23519999999996344
149,3,0.8,1.0,-35.0,-1,1.0,0.23749999999984084
150,3,0.8,1.0,35.0,1,1.0,0.2460999999998421
151,3,0.8,0.0625,-35.0,-1,1.0,3.798999999999978
152,3,0.8,0.125,-35.0,-1,1.0,1.8971999999998843
153,3,0.8,0.125,-35.0,-1,1.0,3.3093000000000075
154,3,0.8,0.0625,35.0,-1,0.0,0.17099999999982174
155,3,0.8,0.0,-35.0,1,0.0,0.20319999999992433
156,3,0.8,0.0625,-35.0,-1,1.0,0.17630000000008295
157,3,0.8,0.125,-35.0,1,0.0,2.098299999999881
158,3,0.8,0.0625,-35.0,-1,1.0,0.25869999999997617
159,3,0.8,0.25,-35.0,-1,1.0,0.2383999999998423
160,3,0.8,1.0,-35.0,-1,1.0,0.5692999999998847
161,3,0.8,0.125,-35.0,-1,1.0,9.579399999999964
162,3,0.8,1.0,-35.0,-1,1.0,9.95270000000005
163,3,0.8,0.25,-35.0,-1,1.0,2.391899999999964
164,3,0.8,0.125,-35.0,-1,1.0,4.360500000000002
165,3,0.8,0.25,-35.0,-1,1.0,0.2665999999999258
166,3,0.8,1.0,-35.0,-1,1.0,0.4955999999999676
167,3,0.8,0.0625,35.0,-1,0.0,4.578300000000013
168,3,0.8,0.25,-35.0,-1,1.0,0.17859999999996035
169,3,0.8,0.125,-35.0,-1,1.0,4.42470000000003
170,3,0.8,1.0,35.0,1,1.0,0.2981999999999516
171,3,0.8,0.0625,-35.0,-1,1.0,5.085499999999911
172,3,0.8,0.125,-35.0,1,0.0,9.228999999999928
173,3,0.8,0.125,-35.0,1,0.0,0.12079999999991742
174,3,0.8,0.0,-35.0,-1,1.0,0.22289999999986776
175,3,0.8,0.0,-35.0,-1,1.0,6.778599999999983
176,3,0.8,1.0,-35.0,-1,1.0,0.20839999999998327
177,3,0.8,0.0625,-35.0,1,0.0,5.452599999999961
178,3,0.8,1.0,-35.0,-1,1.0,0.17659999999989395
179,3,0.8,0.0625,-35.0,-1,1.0,0.21090000000003783
180,3,0.8,1.0,-35.0,-1,1.0,0.22679999999991196
181,3,0.8,0.25,-35.0,-1,1.0,0.18599999999992178
182,3,0.8,0.125,-35.0,-1,1.0,0.17899999999997362
183,3,0.8,0.0625,-35.0,-1,1.0,12.6644
184,3,0.8,0.125,35.0,1,1.0,0.22509999999988395
185,3,0.8,1.0,-35.0,-1,1.0,0.23829999999998108
186,3,0.8,0.125,-35.0,-1,1.0,0.34419999999988704
187,3,0.8,0.0,-35.0,-1,1.0,5.266899999999964
188,3,0.8,0.0,-35.0,-1,1.0,0.3409999999998945
189,3,0.8,0.125,-35.0,-1,1.0,0.15829999999994016
190,3,0.8,0.0625,-35.0,-1,1.0,3.0787999999998874
191,3,0.8,1.0,-35.0,-1,1.0,0.18629999999984648
192,3,0.8,1.0,-35.0,-1,1.0,0.23099999999988086
193,3,0.8,0.25,35.0,1,1.0,0.42250000000001364
194,3,0.8,0.25,-35.0,-1,1.0,6.113300000000095
195,3,0.8,1.0,-35.0,-1,1.0,0.17650000000003274
196,3,0.8,0.0625,-35.0,-1,1.0,6.970100000000002
197,3,0.8,1.0,-35.0,-1,1.0,0.18459999999993215
198,3,0.8,0.25,-35.0,-1,1.0,0.22419999999999618
199,3,0.8,0.125,-35.0,-1,1.0,7.668499999999881
200,3,0.8,0.0625,35.0,1,1.0,0.19059999999990396
201,3,0.8,0.0,-35.0,-1,1.0,3.3765999999999394
202,3,0.8,0.125,-35.0,-1,1.0,0.22699999999997544
203,3,0.8,0.0625,-35.0,-1,1.0,4.619699999999966
204,3,0.8,0.0625,-35.0,-1,1.0,5.212899999999877
205,3,0.8,1.0,-35.0,-1,1.0,0.2097999999999729
206,3,0.8,0.25,35.0,1,1.0,0.21669999999994616
207,3,0.8,0.125,35.0,1,1.0,5.260099999999966
208,3,0.8,1.0,35.0,1,1.0,0.18390000000022155
209,3,0.8,0.0625,-35.0,-1,1.0,6.540300000000116
210,3,0.8,0.0625,-35.0,-1,1.0,3.0171000000000276
211,3,0.8,1.0,-35.0,-1,1.0,0.39429999999993015
212,3,0.8,1.0,-35.0,-1,1.0,0.18399999999996908
213,3,0.8,0.125,-35.0,-1,1.0,0.38720000000034815
214,3,0.8,1.0,-35.0,-1,1.0,4.0340000000001055
215,3,0.8,0.25,-35.0,-1,1.0,0.27089999999998327
216,3,0.2,1.0,35.0,1,1.0,0.18089999999983775
217,3,0.2,0.25,35.0,1,1.0,0.2314000000001215
218,3,0.2,0.125,35.0,1,1.0,0.21180000000026666
219,3,0.2,0.0,35.0,-1,0.0,12.254500000000007
220,3,0.2,0.0625,35.0,1,1.0,0.1950000000001637
221,3,0.2,0.25,35.0,1,1.0,0.21820000000002437
222,3,0.2,0.25,35.0,1,1.0,6.968300000000227
223,3,0.2,0.125,35.0,-1,0.0,0.27589999999986503
224,3,0.2,0.0,35.0,-1,0.0,0.2218000000000302
225,3,0.2,0.0625,35.0,1,1.0,0.158500000000231
226,3,0.2,0.0625,35.0,-1,0.0,4.7818999999999505
227,3,0.2,0.0,35.0,1,1.0,0.17580000000020846
228,3,0.2,0.125,35.0,1,1.0,0.22240000000010696
229,3,0.2,0.0625,35.0,-1,0.0,6.112700000000132
230,3,0.2,0.0625,35.0,1,1.0,0.22949999999991633
231,3,0.2,0.0625,-35.0,-1,1.0,4.8425000000002
232,3,0.2,1.0,35.0,1,1.0,0.20260000000030232
233,3,0.2,0.25,-35.0,-1,1.0,2.769600000000082
234,3,0.2,0.0625,35.0,-1,0.0,5.45270000000005
235,3,0.2,1.0,35.0,1,1.0,0.16650000000004184
236,3,0.2,0.25,35.0,1,1.0,0.18970000000012988
237,3,0.2,0.0625,35.0,-1,0.0,3.399599999999964
238,3,0.2,0.125,35.0,1,1.0,0.20980000000031396
239,3,0.8,0.0625,35.0,1,1.0,0.1767000000002099
240,3,0.8,1.0,-35.0,-1,1.0,0.17980000000011387
241,3,0.8,0.0625,-35.0,-1,1.0,3.273100000000113
242,3,0.8,0.125,-35.0,-1,1.0,2.096900000000005
243,3,0.8,0.0625,-35.0,-1,1.0,1.9903000000001612
244,3,0.8,1.0,-35.0,-1,1.0,0.3168000000000575
245,3,0.8,0.0625,-35.0,-1,1.0,3.233900000000176
246,3,0.8,0.0625,-35.0,-1,1.0,0.23710000000005493
247,3,0.8,0.0625,-35.0,-1,1.0,0.47040000000015425
248,3,0.8,0.25,-35.0,-1,1.0,0.19390000000021246
249,3,0.8,0.25,-35.0,-1,1.0,0.26060000000006767
250,3,0.8,0.0625,-35.0,-1,1.0,0.1673000000000684
251,3,0.8,0.0625,35.0,-1,0.0,0.2940000000000964
252,3,0.8,0.0625,-35.0,-1,1.0,0.1710000000000491
253,3,0.8,1.0,-35.0,-1,1.0,0.1975999999999658
254,3,0.8,0.125,-35.0,-1,1.0,4.057999999999993
255,3,0.8,1.0,35.0,1,1.0,0.24430000000006658
256,3,0.8,0.0,-35.0,-1,1.0,3.3611000000000786
257,3,0.8,0.0,-35.0,1,0.0,0.2011000000002241
258,3,0.8,0.0625,-35.0,-1,1.0,0.18440000000009604
259,3,0.8,1.0,-35.0,-1,1.0,0.2381000000000313
260,3,0.8,0.25,35.0,1,1.0,0.24460000000021864
261,3,0.8,0.0625,-35.0,-1,1.0,0.46469999999999345
262,3,0.8,0.25,-35.0,-1,1.0,0.2521999999999025
263,3,0.8,0.0625,-35.0,-1,1.0,2.4347000000000207
264,3,0.8,0.0625,-35.0,1,0.0,0.19820000000004256
265,3,0.8,0.0625,-35.0,-1,1.0,0.1383000000002994
266,3,0.2,0.25,35.0,1,1.0,0.2716000000000349
267,3,0.2,0.25,35.0,1,1.0,0.2153000000000702
268,3,0.2,0.125,35.0,-1,0.0,0.35520000000019536
269,3,0.2,0.25,35.0,1,1.0,0.2053000000000793
270,3,0.2,1.0,-35.0,-1,1.0,0.18860000000017862
271,3,0.2,0.0,-35.0,-1,1.0,2.0186000000003332
272,3,0.2,0.0625,35.0,-1,0.0,0.1755000000000564
273,3,0.2,0.125,-35.0,-1,1.0,0.2257999999999356
274,3,0.2,0.25,35.0,1,1.0,0.5587000000000444
275,3,0.2,0.0625,35.0,-1,0.0,4.038900000000012
276,3,0.2,0.0,35.0,1,1.0,0.17250000000012733
277,3,0.2,0.25,35.0,1,1.0,0.18240000000014334
278,3,0.2,0.25,-35.0,-1,1.0,0.2497000000000753
279,3,0.2,1.0,35.0,1,1.0,0.19240000000013424
280,3,0.2,0.25,35.0,1,1.0,0.17950000000018917
281,3,0.2,1.0,35.0,1,1.0,0.2058999999999287
282,3,0.2,0.25,35.0,1,1.0,0.13930000000004839
283,3,0.2,1.0,35.0,1,1.0,0.21949999999992542
284,3,0.2,1.0,35.0,1,1.0,0.1893999999999778
285,3,0.2,0.0625,35.0,-1,0.0,3.852600000000166
286,3,0.2,0.0,35.0,1,1.0,0.20970000000011169
287,3,0.2,0.0625,35.0,1,1.0,0.12979999999993197
288,3,0.2,0.0,35.0,-1,0.0,0.35970000000020264
289,3,0.2,0.25,35.0,1,1.0,0.19319999999993342
290,3,0.2,0.0625,35.0,1,1.0,0.18370000000004438
291,3,0.2,0.125,35.0,1,1.0,0.15660000000002583
292,3,0.2,1.0,35.0,1,1.0,0.15370000000007167
293,3,0.2,0.0,-35.0,1,0.0,1.886700000000019
294,3,0.2,0.25,35.0,1,1.0,0.18010000000003856
295,3,0.2,0.125,-35.0,-1,1.0,2.1000000000001364
296,3,0.2,0.0625,35.0,1,1.0,0.18679999999994834
297,3,0.2,0.0625,35.0,1,1.0,0.17380000000002838
298,3,0.2,1.0,35.0,1,1.0,0.18080000000009022
299,3,0.2,0.25,35.0,1,1.0,0.1471000000001368
300,3,0.2,0.0625,35.0,1,1.0,0.14380000000005566
301,3,0.2,0.0625,35.0,1,1.0,0.19039999999995416
302,3,0.2,0.25,35.0,1,1.0,0.11050000000022919
303,3,0.2,0.25,35.0,1,1.0,0.19059999999990396
304,3,0.2,0.125,-35.0,-1,1.0,0.4473000000000411
305,3,0.2,0.25,35.0,1,1.0,0.12730000000010477
306,3,0.2,0.125,35.0,1,1.0,0.1146000000001095
307,3,0.2,0.25,35.0,1,1.0,0.14409999999998035
308,3,0.2,0.0625,35.0,-1,0.0,2.9009000000000924
309,3,0.2,0.0625,-35.0,1,0.0,0.12479999999982283
310,3,0.2,0.125,35.0,1,1.0,0.15410000000019863
311,3,0.2,0.25,35.0,1,1.0,0.16800000000012005
312,3,0.2,1.0,35.0,1,1.0,0.10100000000011278
313,3,0.2,1.0,35.0,1,1.0,0.09789999999998145
314,3,0.2,1.0,35.0,1,1.0,0.11799999999993815
315,3,0.2,0.25,35.0,1,1.0,0.02119999999990796
316,3,0.2,0.125,35.0,1,1.0,0.13510000000019318
317,3,0.2,1.0,35.0,1,1.0,0.14120000000025357
318,3,0.2,0.125,-35.0,1,0.0,0.12510000000020227
319,3,0.2,0.0,35.0,1,1.0,0.13809900000001107
320,3,0.2,0.0625,35.0,1,1.0,0.4151000000001659
321,3,0.2,1.0,35.0,1,1.0,0.1249000000000251
322,3,0.2,0.25,35.0,1,1.0,0.22220000000015716
323,3,0.2,0.125,35.0,1,1.0,0.1649000000002161
324,3,0.2,0.0625,-35.0,1,0.0,0.15830000000005384
325,3,0.2,1.0,-35.0,-1,1.0,0.21209999999996398
326,3,0.2,0.0,-35.0,1,0.0,0.08179900000027374
327,3,0.2,0.25,35.0,1,1.0,0.2219000000000051
328,3,0.2,1.0,-35.0,-1,1.0,0.18840000000000146
329,3,0.2,0.0625,35.0,1,1.0,0.1351999999999407
330,3,0.2,0.0625,-35.0,1,0.0,0.6622999999999593
331,3,0.2,0.0625,-35.0,1,0.0,0.08230000000003201
332,3,0.2,0.0625,35.0,1,1.0,0.15230000000019572
333,3,0.2,0.25,35.0,1,1.0,0.1488000000001648
334,3,0.2,0.0,35.0,-1,0.0,1.2024000000001251
335,3,0.2,0.0625,35.0,1,1.0,0.15930000000025757
336,3,0.2,0.0625,-35.0,1,0.0,0.133199999999988
337,3,0.2,0.125,35.0,1,1.0,0.15260000000012042
338,3,0.2,1.0,-35.0,-1,1.0,0.2624000000000706
339,3,0.2,1.0,35.0,1,1.0,0.12930000000028485
340,3,0.2,0.125,35.0,1,1.0,0.5091999999999643
341,3,0.2,0.25,35.0,1,1.0,0.14279999999985193
342,3,0.2,0.0625,35.0,1,1.0,0.13650000000006912
343,3,0.2,0.25,35.0,1,1.0,0.10949900000014168
344,3,0.2,0.0625,35.0,1,1.0,0.09259999999994761
345,3,0.2,0.25,-35.0,1,0.0,0.06270000000017717
346,3,0.2,0.25,35.0,1,1.0,0.1227000000001226
347,3,0.2,0.0625,-35.0,-1,1.0,0.31330000000025393
348,3,0.2,0.125,-35.0,-1,1.0,2.8327999999999065
349,3,0.2,0.0,35.0,1,1.0,0.1169999999999618
350,3,0.2,0.0,35.0,-1,0.0,0.06650000000013279
351,3,0.2,0.125,35.0,1,1.0,0.17370000000005348
352,3,0.2,0.0,35.0,1,1.0,0.18000000000006366
353,3,0.2,1.0,-35.0,-1,1.0,0.1932000000001608
354,3,0.8,0.0,35.0,1,1.0,0.16010000000005675
355,3,0.8,1.0,-35.0,-1,1.0,0.19669999999996435
356,3,0.8,0.125,35.0,1,1.0,0.2737000000001899
357,3,0.8,0.25,-35.0,-1,1.0,0.23360000000025138
358,3,0.8,0.125,-35.0,-1,1.0,0.2535000000000309
359,3,0.8,0.0625,-35.0,1,0.0,0.1068000000000211
360,3,0.8,0.25,35.0,1,1.0,0.16699999999991633
361,3,0.8,0.0,-35.0,-1,1.0,0.16770000000019536
362,3,0.8,0.0,-35.0,1,0.0,0.38380000000029213
363,3,0.8,0.125,-35.0,1,0.0,0.13750000000004547
364,3,0.8,0.125,35.0,1,1.0,0.13720000000012078
365,3,0.8,0.25,-35.0,1,0.0,0.12059999999996762
366,3,0.8,1.0,35.0,-1,0.0,0.11789999999996326
367,3,0.8,0.125,-35.0,1,0.0,0.10770000000002256
368,3,0.8,1.0,-35.0,-1,1.0,0.07420000000024629
369,3,0.8,0.125,-35.0,-1,1.0,0.16800000000012005
370,3,0.8,0.0625,35.0,-1,0.0,0.16419999999993706
371,3,0.8,0.25,-35.0,-1,1.0,0.19499999999993634
372,3,0.8,0.0625,35.0,1,1.0,0.24130000000013752
373,3,0.8,1.0,35.0,1,1.0,0.13200000000006185
374,3,0.8,0.25,-35.0,-1,1.0,0.42470000000002983
375,3,0.8,0.125,-35.0,1,0.0,0.15460000000007312
376,3,0.8,0.125,-35.0,-1,1.0,0.2153000000000702
377,3,0.8,0.25,35.0,1,1.0,0.14150000000017826
378,3,0.8,0.125,-35.0,1,0.0,0.13160000000016225
379,3,0.8,0.0,35.0,-1,0.0,0.19509999999991123
380,3,0.8,0.0625,-35.0,1,0.0,0.1550999999999476
381,3,0.8,0.0625,-35.0,-1,1.0,0.20220000000017535
382,3,0.8,0.25,-35.0,-1,1.0,0.22889999999983957
383,3,0.8,1.0,-35.0,-1,1.0,7.515300000000025
384,3,0.8,0.25,-35.0,-1,1.0,3.8289000000002034
385,3,0.8,0.125,35.0,1,1.0,0.03230000000007749
386,3,0.8,1.0,-35.0,-1,1.0,0.22550000000001091
387,3,0.8,0.0625,-35.0,1,0.0,0.1954000000000633
388,3,0.8,0.25,-35.0,-1,1.0,0.19600000000014006
389,3,0.8,1.0,-35.0,-1,1.0,0.1690000000000964
390,3,0.8,0.25,35.0,1,1.0,0.22239999999987958
391,3,0.8,0.0625,-35.0,-1,1.0,0.19239999999990687
392,3,0.8,0.25,-35.0,-1,1.0,9.882399999999961
393,3,0.8,1.0,-35.0,1,0.0,1.6964000000000397
394,3,0.8,0.0,-35.0,-1,1.0,0.36350000000015825
395,3,0.8,0.0625,-35.0,1,0.0,1.7894000000001142
396,3,0.8,0.125,-35.0,1,0.0,0.2135000000000673
397,3,0.8,0.25,-35.0,-1,1.0,0.33969999999999345
398,3,0.8,0.0625,35.0,-1,0.0,4.529899999999998
399,3,0.8,0.0625,35.0,1,1.0,0.19970000000012078
400,3,0.8,0.25,-35.0,-1,1.0,0.18980000000010477
401,3,0.8,1.0,-35.0,-1,1.0,0.20679999999993015
402,3,0.8,0.0,-35.0,-1,1.0,6.723600000000033
403,3,0.8,0.0,-35.0,1,0.0,0.33370000000013533
404,3,0.8,0.0625,-35.0,1,0.0,0.13370000000008986
405,3,0.8,1.0,-35.0,-1,1.0,0.2037000000000262
406,3,0.8,0.125,-35.0,-1,1.0,0.24360000000001492
407,3,0.8,0.125,-35.0,-1,1.0,0.28700000000003456
408,3,0.8,0.0625,-35.0,-1,1.0,13.017700000000104
409,3,0.8,0.125,-35.0,-1,1.0,0.24410000000011678
410,3,0.8,0.125,-35.0,-1,1.0,0.22089999999980137
411,3,0.8,0.25,-35.0,-1,1.0,6.287600000000111
412,3,0.8,0.125,35.0,1,1.0,0.22440000000005966
413,3,0.8,0.125,35.0,1,1.0,0.17499999999995453
414,3,0.8,0.25,-35.0,-1,1.0,7.357999999999947
415,3,0.8,1.0,-35.0,-1,1.0,0.18800000000010186
416,3,0.8,0.0625,35.0,-1,0.0,0.3583000000000993
417,3,0.8,1.0,-35.0,-1,1.0,0.20820000000003347
418,3,0.8,0.25,-35.0,-1,1.0,0.19509999999991123
419,3,0.8,0.25,-35.0,-1,1.0,0.19840000000021973
420,3,0.2,0.25,35.0,1,1.0,0.16210000000000946
421,3,0.2,0.125,35.0,1,1.0,0.2518000000002303
422,3,0.2,1.0,35.0,1,1.0,0.1653000000001157
423,3,0.2,1.0,35.0,1,1.0,0.21220000000016626
424,3,0.2,0.0625,35.0,1,1.0,0.1954000000000633
425,3,0.2,0.0625,35.0,1,1.0,0.09529999999995198
426,3,0.2,0.0625,35.0,1,1.0,0.09540000000015425
427,3,0.2,0.0625,35.0,1,1.0,0.05550000000016553
428,3,0.2,1.0,35.0,1,1.0,0.20230000000015025
429,3,0.2,0.0,35.0,1,1.0,0.23550000000000182
430,3,0.2,0.125,35.0,1,1.0,0.19929999999999382
431,3,0.2,0.25,-35.0,1,0.0,5.109000000000151
432,3,0.2,0.0625,35.0,1,1.0,0.13930000000004839
433,3,0.2,0.25,35.0,1,1.0,0.24260000000003856
434,3,0.2,0.0,35.0,1,1.0,0.05940000000009604
435,3,0.2,0.25,35.0,1,1.0,0.1494000000000142
436,3,0.2,1.0,-35.0,-1,1.0,0.25640000000021246
437,3,0.2,0.25,35.0,1,1.0,0.2494000000001506
438,3,0.2,0.25,-35.0,1,0.0,0.1228000000000975
439,3,0.2,0.0625,-35.0,-1,1.0,3.7695000000001073
440,3,0.2,0.25,35.0,1,1.0,0.07349999999996726
441,3,0.2,0.25,-35.0,-1,1.0,1.0835000000001855
442,3,0.2,0.0,35.0,1,1.0,0.20309999999994943
443,3,0.2,1.0,35.0,1,1.0,0.15970000000015716
444,3,0.2,0.0,-35.0,1,0.0,0.09050000000002001
445,3,0.2,0.125,-35.0,1,0.0,0.1471000000001368
446,3,0.2,0.25,35.0,1,1.0,0.1369000000001961
447,3,0.2,0.0625,35.0,1,1.0,0.846599999999853
448,3,0.8,0.125,-35.0,1,0.0,1.396600000000035
449,3,0.8,0.125,-35.0,-1,1.0,0.2776000000003478
450,3,0.8,1.0,-35.0,-1,1.0,0.1807000000003427
451,3,0.8,0.125,-35.0,1,0.0,0.29379999999991924
452,3,0.8,0.25,-35.0,-1,1.0,0.1938000000000102
453,3,0.8,0.25,-35.0,-1,1.0,0.21060000000011314
454,3,0.8,0.0625,-35.0,1,0.0,0.10380000000009204
455,3,0.8,0.0625,35.0,-1,0.0,0.13770000000022264
456,3,0.8,0.0625,-35.0,-1,1.0,0.030600000000049477
457,3,0.8,0.0625,-35.0,-1,1.0,0.22710000000006403
458,3,0.8,0.0,-35.0,1,0.0,0.2778000000000702
459,3,0.8,1.0,-35.0,-1,1.0,0.1710000000000491
460,3,0.8,1.0,-35.0,-1,1.0,0.2341999999998734
461,3,0.8,0.0625,-35.0,-1,1.0,2.807800000000043
462,3,0.8,0.0625,-35.0,-1,1.0,0.19790000000011787
463,3,0.8,1.0,-35.0,-1,1.0,0.21489999999994325
464,3,0.8,0.125,35.0,1,1.0,0.22430000000008476
465,3,0.8,1.0,-35.0,1,0.0,4.887899999999945
466,3,0.8,1.0,-35.0,-1,1.0,0.18810000000007676
467,3,0.8,0.0,-35.0,1,0.0,0.15810000000010405
468,3,0.8,0.125,-35.0,1,0.0,0.1449999999999818
469,3,0.8,0.25,-35.0,-1,1.0,0.20500000000015461
470,3,0.8,1.0,-35.0,-1,1.0,0.2015000000001237
471,3,0.8,0.25,-35.0,-1,1.0,0.17810000000008586
472,3,0.8,0.25,-35.0,-1,1.0,0.26830000000018117
473,3,0.8,0.0625,-35.0,-1,1.0,0.38840000000004693
474,3,0.8,1.0,35.0,1,1.0,0.14830000000006294
475,3,0.8,1.0,-35.0,-1,1.0,0.23839999999995598
476,3,0.8,0.0,-35.0,1,0.0,0.15850000000000364
477,3,0.8,0.125,-35.0,1,0.0,0.21910000000002583
478,3,0.8,0.0625,-35.0,-1,1.0,0.23859999999990578
479,3,0.8,0.0625,35.0,1,1.0,0.32219999999983884
480,3,0.8,0.0,-35.0,1,0.0,0.1954000000000633
481,3,0.8,0.0,-35.0,1,0.0,0.1591000000000804
482,3,0.8,0.25,-35.0,-1,1.0,0.21560000000022228
483,3,0.8,0.0625,-35.0,-1,1.0,0.18239999999991596
484,3,0.8,0.125,-35.0,-1,1.0,4.039200000000164
485,3,0.8,0.25,-35.0,-1,1.0,0.21920000000000073
486,3,0.8,0.25,-35.0,-1,1.0,4.7659000000001015
487,3,0.8,0.0625,35.0,-1,0.0,0.25939999999991414
488,3,0.8,0.125,35.0,1,1.0,0.219300000000203
489,3,0.8,1.0,35.0,1,1.0,0.1994000000001961
490,3,0.8,0.25,-35.0,-1,1.0,4.796300000000201
491,3,0.8,1.0,-35.0,-1,1.0,0.20319999999992433
492,3,0.8,0.0625,-35.0,1,0.0,0.46640000000002146
493,3,0.8,1.0,-35.0,-1,1.0,0.1935000000000855
494,3,0.8,0.0625,35.0,1,1.0,0.41650000000004184
495,3,0.8,0.25,35.0,1,1.0,0.2771000000002459
496,3,0.2,0.125,35.0,-1,0.0,6.043300000000272
497,3,0.2,0.125,35.0,-1,0.0,0.0968000000000302
498,3,0.2,0.25,35.0,1,1.0,0.18030000000021573
499,3,0.2,0.125,35.0,1,1.0,0.20720000000005712
500,3,0.2,0.0625,35.0,1,1.0,0.04680000000007567
501,3,0.2,0.0625,-35.0,1,0.0,0.14059999999994943
502,3,0.2,0.0,-35.0,1,0.0,0.17030000000022483
503,3,0.2,0.125,35.0,1,1.0,0.24060000000031323
504,3,0.2,1.0,35.0,1,1.0,0.1407000000001517
505,3,0.2,0.25,-35.0,-1,1.0,0.22460000000000946
506,3,0.2,1.0,35.0,1,1.0,0.21739999999999782
507,3,0.2,0.0625,35.0,1,1.0,0.11390000000051259
508,3,0.2,0.0625,35.0,1,1.0,0.20739999999977954
509,3,0.2,0.0625,35.0,1,1.0,0.12069999999994252
510,3,0.2,0.0625,35.0,1,1.0,0.43780000000015207
511,3,0.2,0.0,35.0,1,1.0,0.1509000000000924
512,3,0.2,0.0,35.0,1,1.0,0.17770000000018626
513,3,0.2,0.0625,35.0,1,1.0,0.08979999999974098
514,3,0.2,1.0,35.0,1,1.0,0.11779999999998836
515,3,0.2,0.0,35.0,1,1.0,0.10089999999945576
516,3,0.2,0.0625,35.0,1,1.0,0.1511000000000422
517,3,0.2,1.0,35.0,1,1.0,0.0645009999998365
518,3,0.2,0.125,35.0,1,1.0,0.1911009999998896
519,3,0.2,0.0625,-35.0,1,0.0,0.09790100000009261
520,3,0.2,1.0,35.0,1,1.0,0.17150100000026214
521,3,0.2,0.125,35.0,1,1.0,0.024900999999772466
522,3,0.8,0.25,35.0,1,1.0,0.10800100000005841
523,3,0.8,0.125,-35.0,1,0.0,0.12480099999993399
524,3,0.8,0.25,35.0,1,1.0,0.16490099999964514
525,3,0.8,0.25,-35.0,1,0.0,0.14160099999980957
526,3,0.8,0.125,-35.0,-1,1.0,0.18500099999982922
527,3,0.8,0.0625,-35.0,-1,1.0,2.348300999999992
528,3,0.8,0.25,-35.0,1,0.0,0.23830099999986487
529,3,0.8,1.0,-35.0,-1,1.0,0.19200099999989106
530,3,0.8,0.125,-35.0,1,0.0,0.14210099999991144
531,3,0.8,0.125,-35.0,1,0.0,0.15910099999973681
532,3,0.8,0.125,-35.0,-1,1.0,0.3291010000002643
533,3,0.8,0.0625,-35.0,-1,1.0,0.35560099999975137
534,3,0.8,0.125,-35.0,-1,1.0,0.26220100000000457
535,3,0.8,0.125,-35.0,-1,1.0,0.26230100000020684
536,3,0.8,1.0,-35.0,-1,1.0,0.2255009999998947
537,3,0.8,0.0625,-35.0,-1,1.0,0.492200999999568
538,3,0.8,0.0,-35.0,-1,1.0,1.7923009999994974
539,3,0.8,0.0625,35.0,1,1.0,0.1792009999999209
540,3,0.8,0.25,-35.0,-1,1.0,4.202400999999554
541,3,0.8,0.0625,-35.0,1,0.0,7.616300999999567
542,3,0.8,0.125,-35.0,-1,1.0,0.3230009999997492
543,3,0.8,0.0625,-35.0,-1,1.0,0.26300099999980375
544,3,0.8,1.0,-35.0,-1,1.0,0.18290099999967424
545,3,0.8,0.25,-35.0,-1,1.0,0.23310099999980594
546,3,0.8,0.125,-35.0,-1,1.0,5.3866009999997
547,3,0.8,0.0625,-35.0,-1,1.0,0.21340099999952145
548,3,0.8,0.125,-35.0,1,0.0,0.06670100000019374
549,3,0.8,0.0,35.0,1,1.0,0.18350099999952363
550,3,0.8,1.0,-35.0,1,0.0,0.14390099999991435
551,3,0.8,1.0,-35.0,-1,1.0,0.16350099999999657
552,3,0.8,0.25,-35.0,-1,1.0,0.31360099999983504
553,3,0.8,0.0625,-35.0,-1,1.0,3.5804010000001654
554,3,0.8,1.0,35.0,1,1.0,0.16440099999999802
555,3,0.8,0.0625,-35.0,1,0.0,2.0306009999999333
556,3,0.8,0.0625,-35.0,-1,1.0,0.3739009999994778
557,3,0.8,0.25,35.0,1,1.0,0.1842009999995753
558,3,0.8,0.0625,-35.0,-1,1.0,0.2742009999997208
559,3,0.8,0.25,35.0,1,1.0,0.18420100000003004
560,3,0.8,0.0625,-35.0,1,0.0,0.14180100000021412
561,3,0.8,1.0,-35.0,-1,1.0,0.19070099999999002
562,3,0.8,0.125,-35.0,-1,1.0,0.29080100000010134
563,3,0.8,1.0,-35.0,-1,1.0,0.24770099999977901
564,3,0.8,0.0,-35.0,1,0.0,0.17490099999986342
565,3,0.8,0.125,-35.0,-1,1.0,0.227900999999747
566,3,0.8,1.0,35.0,1,1.0,0.15440099999977974
567,3,0.8,0.125,-35.0,-1,1.0,0.21480099999962476
568,3,0.8,0.0,-35.0,1,0.0,0.25110099999983504
569,3,0.8,0.125,-35.0,-1,1.0,0.1748010000001159
570,3,0.8,1.0,-35.0,-1,1.0,0.2114010000000235
571,3,0.8,0.25,35.0,1,1.0,0.18810099999973318
572,3,0.8,0.0,-35.0,-1,1.0,0.3417010000002847
573,3,0.8,0.0,-35.0,-1,1.0,0.31140099999993254
574,3,0.8,0.0625,-35.0,1,0.0,0.17840099999966696
575,3,0.8,0.0,-35.0,1,0.0,0.09840099999973972
576,3,0.8,0.0625,-35.0,-1,1.0,0.17830099999991944
577,3,0.8,0.125,-35.0,-1,1.0,0.18830099999968297
578,3,0.8,0.0,-35.0,-1,1.0,0.19890099999975064
579,3,0.8,0.25,-35.0,-1,1.0,0.16900099999975282
580,3,0.8,0.0625,-35.0,-1,1.0,0.412000999999691
581,3,0.8,0.125,-35.0,-1,1.0,0.18200100000012753
582,3,0.8,0.25,-35.0,-1,1.0,0.2852010000001428
583,3,0.8,0.0,-35.0,-1,1.0,0.3587009999996553
584,3,0.8,0.125,-35.0,-1,1.0,0.24230099999977028
585,3,0.8,0.25,35.0,1,1.0,0.15210099999967497
586,3,0.8,0.0625,-35.0,1,0.0,0.20210099999940212
587,3,0.8,1.0,-35.0,-1,1.0,0.14250099999981103
588,3,0.8,0.25,-35.0,-1,1.0,0.13940099999990707
589,3,0.8,0.25,-35.0,-1,1.0,0.18210099999987506
590,3,0.8,1.0,-35.0,-1,1.0,0.17570100000011735
591,3,0.8,1.0,-35.0,-1,1.0,0.17900099999951635
592,3,0.8,0.125,-35.0,-1,1.0,0.8992009999997208
593,3,0.8,1.0,-35.0,-1,1.0,0.2091009999999187
594,3,0.8,0.25,-35.0,-1,1.0,0.23930099999961385
595,3,0.8,0.0,-35.0,-1,1.0,0.26920099999961167
596,3,0.8,1.0,-35.0,-1,1.0,0.20920100000012098
597,3,0.8,1.0,-35.0,-1,1.0,0.2093009999998685
598,3,0.8,0.0625,-35.0,-1,1.0,0.1895009999998365
599,3,0.8,1.0,-35.0,-1,1.0,0.20940100000007078
600,3,0.2,0.25,35.0,1,1.0,0.21620099999972808
601,3,0.2,0.0625,35.0,1,1.0,0.15930100000014136
602,3,0.2,0.125,35.0,1,1.0,0.1263009999993301
603,3,0.2,0.125,35.0,-1,0.0,0.4896009999997659
604,3,0.2,0.0,35.0,-1,0.0,0.20630099999971208
605,3,0.2,0.25,35.0,1,1.0,0.18680099999983213
606,3,0.2,0.0,35.0,-1,0.0,0.19640100000015082
607,3,0.2,1.0,35.0,1,1.0,0.10660099999950035
608,3,0.2,0.0625,35.0,1,1.0,0.17660099999966405
609,3,0.2,0.125,35.0,1,1.0,0.2404009999995651
610,3,0.2,0.25,35.0,1,1.0,0.15320099999962622
611,3,0.2,1.0,35.0,1,1.0,0.040400999999747
612,3,0.2,1.0,35.0,1,1.0,0.14350100000001476
613,3,0.2,1.0,-35.0,-1,1.0,0.2204009999995833
614,3,0.2,0.0,-35.0,1,0.0,0.1235009999995782
615,3,0.2,0.125,-35.0,1,0.0,0.14350099999956
616,3,0.2,1.0,35.0,1,1.0,0.14360099999976228
617,3,0.2,0.25,35.0,1,1.0,0.11350099999981467
618,3,0.2,0.25,35.0,1,1.0,0.22050099999978556
619,3,0.2,0.0,35.0,1,1.0,0.11370099999976446
620,3,0.2,0.125,-35.0,1,0.0,0.11060100000031525
621,3,0.2,0.25,35.0,1,1.0,0.21050099999956728
622,3,0.2,0.0625,-35.0,1,0.0,0.15060099999982413
623,3,0.2,0.0625,35.0,1,1.0,0.13120100000014645
624,3,0.2,0.0625,35.0,1,1.0,2.247700999999779
625,3,0.2,0.0,-35.0,1,0.0,0.28090100000008533
626,3,0.2,1.0,35.0,1,1.0,0.1577009999996335
627,3,0.2,0.0625,-35.0,1,0.0,0.1310009999997419
628,3,0.2,1.0,35.0,1,1.0,0.15120100000012826
629,3,0.2,0.0,35.0,-1,0.0,3.931800999999723
630,3,0.2,0.0,35.0,-1,0.0,3.3080009999994218
631,3,0.2,1.0,35.0,1,1.0,0.175300999999763
632,3,0.2,0.0625,35.0,-1,0.0,3.948000999999749
633,3,0.2,0.25,-35.0,1,0.0,0.12490099999968152
634,3,0.2,0.0625,35.0,1,1.0,0.1549009999998816
635,3,0.2,0.25,-35.0,-1,1.0,0.21490099999982704
636,3,0.2,0.125,35.0,-1,0.0,0.2051010000000133
637,3,0.2,0.0625,35.0,1,1.0,0.16500100000030216
638,3,0.2,0.125,35.0,1,1.0,0.2686009999997623
639,3,0.2,0.0,35.0,-1,0.0,0.24840099999983067
640,3,0.2,1.0,35.0,1,1.0,0.1990009999999529
641,3,0.2,1.0,-35.0,-1,1.0,0.19200099999943632
642,3,0.2,0.125,35.0,1,1.0,0.22600099999954182
643,3,0.2,1.0,35.0,1,1.0,0.14890099999956874
644,3,0.2,1.0,-35.0,-1,1.0,0.25230099999998856
645,3,0.2,0.25,35.0,1,1.0,0.2123009999995702
646,3,0.2,0.0625,-35.0,1,0.0,0.155500999999731
647,3,0.2,0.25,-35.0,1,0.0,0.17620099999976446
648,3,0.2,0.125,35.0,1,1.0,0.15910100000019156
649,3,0.2,0.25,35.0,1,1.0,0.17250100000001112
650,3,0.2,0.0,-35.0,1,0.0,0.12240099999962695
651,3,0.2,1.0,35.0,1,1.0,0.11620099999981903
652,3,0.2,1.0,35.0,1,1.0,0.12250099999937447
653,3,0.2,0.0625,35.0,1,1.0,0.15600099999983286
654,3,0.2,0.25,35.0,1,1.0,0.10940099999970698
655,3,0.2,0.0,35.0,1,1.0,0.16320099999938975
656,3,0.2,1.0,35.0,1,1.0,0.12980099999958838
657,3,0.2,0.125,35.0,1,1.0,0.10330100000010134
658,3,0.2,0.0625,35.0,1,1.0,0.08630099999982122
659,3,0.2,0.0625,35.0,1,1.0,0.1731009999998605
660,3,0.2,0.125,35.0,1,1.0,0.1231009999996786
661,3,0.2,1.0,-35.0,1,0.0,0.13330099999984668
662,3,0.2,1.0,35.0,1,1.0,0.11340100000006714
663,3,0.2,0.0625,-35.0,1,0.0,0.13630099999954837
664,3,0.2,1.0,35.0,1,1.0,0.13030099999969025
665,3,0.2,1.0,35.0,1,1.0,0.14340100000026723
666,3,0.2,0.125,-35.0,1,0.0,0.11020099999950617
667,3,0.2,0.25,35.0,1,1.0,0.13040099999989252
668,3,0.2,0.0,-35.0,1,0.0,0.1167009999999209
669,3,0.2,0.125,35.0,1,1.0,0.12010100000043167
670,3,0.2,1.0,35.0,1,1.0,0.11670100000037564
671,3,0.2,0.125,-35.0,1,0.0,0.4070010000000366
672,3,0.2,0.25,35.0,-1,0.0,0.32050100000014936
673,3,0.2,0.25,35.0,1,1.0,0.11460099999976592
674,3,0.2,0.125,-35.0,1,0.0,0.17060099999980594
675,3,0.2,1.0,35.0,1,1.0,0.14710100000002058
676,3,0.2,0.25,35.0,1,1.0,0.10380099999974846
677,3,0.2,0.0,-35.0,1,0.0,0.11390099999971426
678,3,0.2,0.25,-35.0,-1,1.0,0.22410100000024613
679,3,0.2,0.125,35.0,1,1.0,0.17430100000001403
680,3,0.2,0.25,35.0,1,1.0,0.16430099999979575
681,3,0.2,0.125,35.0,1,1.0,0.12800100000004022
682,3,0.2,0.0625,35.0,1,1.0,0.16770099999985177
683,3,0.2,1.0,35.0,1,1.0,0.12760099999968588
684,3,0.2,0.125,35.0,1,1.0,0.17770100000007005
685,3,0.8,1.0,-35.0,-1,1.0,0.21440099999972517
686,3,0.8,0.25,-35.0,-1,1.0,0.33850100000017846
687,3,0.8,0.0,35.0,1,1.0,0.09470099999953163
688,3,0.8,1.0,-35.0,-1,1.0,0.21450099999992744
689,3,0.8,0.0625,-35.0,-1,1.0,0.2211010000000897
690,3,0.8,1.0,-35.0,-1,1.0,0.11800099999982194
691,3,0.8,1.0,35.0,1,1.0,0.0779010000001108
692,3,0.8,0.25,-35.0,1,0.0,0.0884009999999762
693,3,0.8,0.0,-35.0,1,0.0,0.16180100000019593
694,3,0.8,0.25,-35.0,-1,1.0,0.23220100000025923
695,3,0.8,1.0,-35.0,-1,1.0,0.2248010000002978
696,3,0.8,0.125,-35.0,-1,1.0,0.17160100000000966
697,3,0.8,0.125,-35.0,-1,1.0,1.1283009999997375
698,3,0.8,0.125,-35.0,-1,1.0,0.3289009999998598
699,3,0.8,0.125,-35.0,-1,1.0,0.358400999999958
700,3,0.8,0.25,-35.0,-1,1.0,0.2620010000000548
701,3,0.8,1.0,-35.0,-1,1.0,0.2020009999996546
702,3,0.8,0.25,-35.0,-1,1.0,0.22540100000014718
703,3,0.8,0.0625,35.0,-1,0.0,0.3290009999996073
704,3,0.8,0.25,-35.0,-1,1.0,0.1887010000000373
705,3,0.8,0.0,-35.0,-1,1.0,0.22600099999999657
706,3,0.8,0.0625,35.0,-1,0.0,0.1553009999997812
707,3,0.8,0.125,-35.0,-1,1.0,0.36600099999986924
708,3,0.8,0.125,-35.0,1,0.0,0.14910099999997328
709,3,0.8,0.25,-35.0,-1,1.0,0.3791009999995367
710,3,0.8,1.0,-35.0,1,0.0,9.80900100000008
711,3,0.8,0.125,-35.0,1,0.0,0.15320100000008097
712,3,0.8,0.0625,-35.0,-1,1.0,0.2430009999993672
713,3,0.8,0.0,35.0,1,1.0,0.14930099999946833
714,3,0.8,1.0,35.0,1,1.0,0.1733009999998103
715,3,0.8,1.0,-35.0,-1,1.0,0.2332010000000082
716,3,0.8,0.125,-35.0,1,0.0,0.159900999999536
717,3,0.8,0.0625,-35.0,1,0.0,0.19320099999958984
718,3,0.8,0.0625,-35.0,1,0.0,0.21650099999988015
719,3,0.8,0.0625,-35.0,1,0.0,0.13330099999984668
720,3,0.8,0.125,-35.0,-1,1.0,0.19980100000020684
721,3,0.8,1.0,-35.0,-1,1.0,0.1933009999997921
722,3,0.8,0.125,-35.0,-1,1.0,0.2204009999995833
723,3,0.8,0.0,-35.0,-1,1.0,3.1440010000001166
724,3,0.8,0.0625,-35.0,1,0.0,0.19360099999994418
725,3,0.8,1.0,-35.0,-1,1.0,0.20340099999975791
726,3,0.8,0.125,35.0,1,1.0,0.24040100000001985
727,3,0.8,1.0,35.0,1,1.0,0.20050099999980375
728,3,0.8,1.0,35.0,1,1.0,0.15410100000008242
729,3,0.8,0.125,-35.0,1,0.0,0.08710100000007515
730,3,0.8,0.0,-35.0,-1,1.0,0.3972009999997681
731,3,0.8,0.125,-35.0,-1,1.0,5.877200999999786
732,3,0.8,1.0,-35.0,1,0.0,0.05750099999977465
733,3,0.8,0.125,-35.0,-1,1.0,0.25080099999968297
734,3,0.8,0.0,-35.0,-1,1.0,5.020900999999867
735,3,0.8,1.0,-35.0,-1,1.0,0.19770099999959712
736,3,0.8,1.0,-35.0,-1,1.0,5.367701000000125
737,3,0.8,0.125,-35.0,-1,1.0,5.921100999999908
738,3,0.8,0.25,35.0,1,1.0,0.25140099999953236
739,3,0.8,0.125,35.0,1,1.0,0.15890099999978702
740,3,0.8,1.0,-35.0,-1,1.0,0.39810099999976956
741,3,0.8,1.0,-35.0,-1,1.0,0.24180099999966842
742,3,0.8,0.125,35.0,1,1.0,0.24510099999997692
743,3,0.8,0.25,-35.0,1,0.0,23.93820099999948
744,3,0.8,1.0,35.0,1,1.0,0.149000999999771
745,3,0.8,0.125,-35.0,-1,1.0,22.329001000000062
746,3,0.8,0.125,-35.0,-1,1.0,0.2202009999996335
747,3,0.8,0.0625,-35.0,1,0.0,0.3032009999992624
748,3,0.8,0.125,35.0,1,1.0,0.40640099999973245
749,3,0.8,0.125,-35.0,1,0.0,0.19320099999958984
750,3,0.8,0.0625,-35.0,-1,1.0,0.2903009999999995
751,3,0.8,0.0625,-35.0,-1,1.0,0.42650099999991653
752,3,0.8,1.0,-35.0,-1,1.0,0.2132010000000264
753,3,0.8,0.0625,-35.0,-1,1.0,4.083200999999917
754,3,0.8,1.0,-35.0,-1,1.0,0.18990100000019083
755,3,0.8,0.0625,-35.0,1,0.0,0.3234009999996488
756,3,0.8,0.125,-35.0,-1,1.0,0.2338009999998576
757,3,0.8,0.25,-35.0,1,0.0,1.9501009999999042
758,3,0.8,1.0,-35.0,-1,1.0,0.30710099999987506
759,3,0.8,0.125,35.0,1,1.0,0.22040100000003804
760,3,0.2,1.0,35.0,1,1.0,0.20360100000016246
761,3,0.2,0.125,35.0,1,1.0,57.11040099999991
762,3,0.2,1.0,35.0,1,1.0,0.208100999999715
763,3,0.2,1.0,35.0,1,1.0,0.17490099999986342
764,3,0.2,0.125,35.0,1,1.0,0.21880099999953018
765,3,0.2,0.0625,35.0,1,1.0,0.15890099999978702
766,3,0.2,0.25,35.0,1,1.0,0.4251009999998132
767,3,0.2,0.125,35.0,1,1.0,17.16850099999965
768,3,0.2,1.0,35.0,1,1.0,0.13900099999955273
769,3,0.2,0.0,35.0,1,1.0,0.21220099999982267
770,3,0.2,0.0625,35.0,1,1.0,18.802500999999666
771,3,0.2,0.0625,35.0,1,1.0,0.07260099999939484
772,3,0.2,1.0,35.0,1,1.0,0.14280099999950835
773,3,0.2,0.0,35.0,1,1.0,0.1262010000000373
774,3,0.2,0.0,35.0,1,1.0,0.15310099999942395
775,3,0.2,1.0,35.0,1,1.0,0.15320099999962622
776,3,0.2,1.0,35.0,1,1.0,0.1669010000000526
777,3,0.2,0.25,35.0,1,1.0,0.14050099999985832
778,3,0.2,0.25,35.0,1,1.0,0.10030099999949016
779,3,0.2,0.0,35.0,1,1.0,0.07330099999990125
780,3,0.2,0.25,-35.0,-1,1.0,0.3373009999995702
781,3,0.2,0.125,35.0,1,1.0,0.1937009999996917
782,3,0.2,1.0,35.0,1,1.0,0.18030099999987215
783,3,0.2,0.0,35.0,1,1.0,0.12380099999973027
784,3,0.2,0.125,35.0,1,1.0,0.13720099999954982
785,3,0.2,0.0625,35.0,1,1.0,0.13340100000004895
786,3,0.2,0.0625,35.0,1,1.0,0.12690100000008897
787,3,0.2,0.25,-35.0,1,0.0,0.09740099999999074
788,3,0.2,0.0,35.0,1,1.0,0.1871009999999842
789,3,0.2,0.0625,35.0,1,1.0,0.15390100000013263
790,3,0.2,0.125,35.0,1,1.0,0.14410099999986414
791,3,0.2,1.0,-35.0,1,0.0,0.13450099999954546
792,3,0.2,0.125,35.0,1,1.0,0.1507010000000264
793,3,0.2,0.25,-35.0,-1,1.0,0.19450099999994563
794,3,0.2,0.25,35.0,1,1.0,0.17420099999981176
795,3,0.2,1.0,35.0,1,1.0,0.12180099999977756
796,3,0.2,1.0,35.0,1,1.0,0.16750099999990198
797,3,0.2,0.125,35.0,1,1.0,0.17470099999991362
798,3,0.2,0.125,35.0,1,1.0,0.16460099999994782
799,3,0.2,0.0625,35.0,1,1.0,0.1077009999994516
800,3,0.2,0.125,35.0,1,1.0,0.10110099999974409
801,3,0.2,0.0,-35.0,1,0.0,0.09120099999972808
802,3,0.2,0.25,35.0,1,1.0,0.17800099999976737
803,3,0.2,1.0,35.0,1,1.0,0.12470099999973172
804,3,0.2,0.25,-35.0,-1,1.0,0.5150009999997565
805,3,0.2,0.25,35.0,1,1.0,0.09470099999998638
806,3,0.2,1.0,35.0,1,1.0,0.08150099999966187
807,3,0.2,0.0,35.0,1,1.0,1.7717009999996662
808,3,0.8,0.0625,35.0,1,1.0,0.1687010000000555
809,3,0.8,0.125,35.0,1,1.0,0.11510099999986778
810,3,0.8,0.0625,35.0,1,1.0,1.2317009999997026
811,3,0.8,0.25,-35.0,-1,1.0,0.2718009999998685
812,3,0.8,0.0625,-35.0,1,0.0,0.12860100000034436
813,3,0.8,1.0,35.0,1,1.0,0.12880099999938466
814,3,0.8,1.0,-35.0,1,0.0,0.12180099999977756
815,3,0.8,0.125,-35.0,1,0.0,0.1487010000000737
816,3,0.8,0.125,-35.0,1,0.0,0.15570100000013554
817,3,0.8,0.125,-35.0,1,0.0,0.15890099999978702
818,3,0.8,1.0,-35.0,-1,1.0,0.23200099999985468
819,3,0.8,0.0625,-35.0,1,0.0,0.18890099999953236
820,3,0.8,0.125,-35.0,1,0.0,0.16900100000020757
821,3,0.8,0.25,-35.0,-1,1.0,0.22900099999969825
822,3,0.8,1.0,-35.0,-1,1.0,1.3456009999999878
823,3,0.8,0.25,-35.0,1,0.0,3.6260009999996328
824,3,0.8,0.0625,-35.0,-1,1.0,0.34910100000024613
825,3,0.8,0.25,-35.0,-1,1.0,0.749800999999934
826,3,0.8,0.125,-35.0,-1,1.0,0.29610100000036255
827,3,0.8,0.0625,-35.0,1,0.0,0.19310099999984232
828,3,0.8,0.125,-35.0,-1,1.0,0.18960099999958402
829,3,0.8,0.0625,-35.0,-1,1.0,0.25940099999979793
830,3,0.8,0.0625,-35.0,-1,1.0,0.38300100000014936
831,3,0.2,1.0,35.0,1,1.0,0.09620099999983722
832,3,0.2,0.0625,35.0,-1,0.0,3.0199009999996633
833,3,0.2,1.0,-35.0,-1,1.0,0.24320099999977174
834,3,0.2,0.0,35.0,-1,0.0,0.19020099999988815
835,3,0.2,0.0625,-35.0,-1,1.0,0.35040099999969243
836,3,0.2,0.125,35.0,1,1.0,0.1433009999996102
837,3,0.2,0.0,-35.0,1,0.0,0.34000099999957456
838,3,0.2,1.0,35.0,1,1.0,0.16350099999999657
839,3,0.2,0.125,35.0,-1,0.0,4.073400999999649
840,3,0.2,0.25,35.0,1,1.0,0.11340100000006714
841,3,0.2,1.0,35.0,1,1.0,0.16360099999928934
842,3,0.2,0.125,35.0,1,1.0,0.22030099999983577
843,3,0.2,0.0625,35.0,-1,0.0,1.7936009999998532
844,3,0.2,1.0,35.0,1,1.0,0.15040099999987433
845,3,0.2,0.0625,35.0,1,1.0,0.13040099999989252
846,3,0.2,1.0,-35.0,-1,1.0,0.41070099999978993
847,3,0.2,1.0,35.0,1,1.0,0.10050100000034945
848,3,0.2,0.0,35.0,1,1.0,0.15060100000027887
849,3,0.2,1.0,35.0,1,1.0,0.15450099999952727
850,3,0.2,0.0625,35.0,1,1.0,0.09070099999962622
851,3,0.2,0.0,35.0,1,1.0,0.680800999999974
852,3,0.2,0.0625,-35.0,1,0.0,0.21460099999967497
853,3,0.2,1.0,-35.0,-1,1.0,0.30130099999996673
854,3,0.2,1.0,35.0,1,1.0,0.18760100000008606
855,3,0.2,0.125,-35.0,1,0.0,0.161000999999942
856,3,0.2,0.0625,35.0,1,1.0,0.17450099999996382
857,3,0.2,0.125,35.0,1,1.0,0.1946010000001479
858,3,0.2,0.25,35.0,1,1.0,0.16800100000000384
859,3,0.2,1.0,35.0,1,1.0,0.18450099999972736
860,3,0.2,0.0,35.0,1,1.0,4.6984010000001035
861,3,0.2,1.0,35.0,1,1.0,0.11870099999941885
862,3,0.2,0.25,35.0,1,1.0,0.1715009999998074
863,3,0.2,0.125,-35.0,1,0.0,0.2349010000002636
864,3,0.2,0.25,35.0,1,1.0,0.13170099999979357
865,3,0.2,0.0625,35.0,1,1.0,0.1290009999997892
866,3,0.2,1.0,35.0,1,1.0,0.14180099999930462
867,3,0.2,0.125,35.0,1,1.0,0.2318009999999049
868,3,0.2,0.0625,35.0,1,1.0,0.05180099999961385
869,3,0.2,0.0625,-35.0,1,0.0,0.2218009999996866
870,3,0.2,0.25,-35.0,1,0.0,0.13250099999959275
871,3,0.2,0.0625,35.0,1,1.0,0.13590099999964877
872,3,0.2,0.25,35.0,1,1.0,0.1553009999997812
873,3,0.2,1.0,-35.0,1,0.0,0.07530099999985396
874,3,0.2,0.125,35.0,1,1.0,0.14590099999986705
875,3,0.2,0.25,35.0,1,1.0,0.2123009999995702
876,3,0.2,1.0,35.0,1,1.0,0.11900099999957092
877,3,0.2,0.25,35.0,1,1.0,0.1389009999998052
878,3,0.2,1.0,-35.0,-1,1.0,0.31930099999999584
879,3,0.2,0.125,35.0,1,1.0,0.11250099999961094
880,3,0.2,0.0625,35.0,1,1.0,0.11920099999997547
881,3,0.2,0.125,-35.0,1,0.0,2.5025009999999384
882,3,0.2,1.0,-35.0,-1,1.0,0.26300099999980375
883,3,0.2,0.0625,35.0,1,1.0,0.682901000000129
884,3,0.2,0.125,35.0,1,1.0,0.11330099999986487
885,3,0.2,0.0625,35.0,1,1.0,2.6627009999997426
886,3,0.2,0.25,35.0,1,1.0,0.11010099999975864
887,3,0.2,0.25,35.0,1,1.0,0.21310099999982413
888,3,0.2,0.125,35.0,1,1.0,0.21300099999962185
889,3,0.2,1.0,35.0,1,1.0,0.16310099999964223
890,3,0.2,1.0,35.0,1,1.0,0.07390099999929589
891,3,0.2,0.0625,35.0,1,1.0,0.20980099999997037
892,3,0.2,0.0625,-35.0,1,0.0,0.13640099999975064
893,3,0.2,1.0,35.0,1,1.0,0.15670099999988452
894,3,0.2,0.0,-35.0,1,0.0,0.3399009999993723
895,3,0.2,0.0625,35.0,1,1.0,0.15670099999942977
896,3,0.2,0.25,-35.0,-1,1.0,0.2603009999997994
897,3,0.8,0.25,-35.0,-1,1.0,0.3938009999997121
898,3,0.8,0.0,-35.0,1,0.0,0.18030099999987215
899,3,0.8,1.0,-35.0,-1,1.0,0.23370100000011007
900,3,0.8,0.25,-35.0,-1,1.0,0.29370099999960075
901,3,0.8,0.125,-35.0,-1,1.0,12.373700999999983
902,3,0.8,0.0,-35.0,1,0.0,0.16070099999933518
903,3,0.8,0.0625,-35.0,1,0.0,0.20420100000001185
904,3,0.8,0.0,-35.0,1,0.0,0.3874009999994996
905,3,0.8,0.0625,-35.0,1,0.0,0.15750100000013845
906,3,0.8,0.25,35.0,1,1.0,0.21440100000017992
907,3,0.8,0.0625,-35.0,-1,1.0,1.9208009999997557
908,3,0.8,0.125,-35.0,1,0.0,0.16160099999979138
909,3,0.8,0.0,-35.0,1,0.0,0.40460099999972954
910,3,0.8,0.125,-35.0,1,0.0,0.16160099999979138
911,3,0.8,0.0625,35.0,1,1.0,0.4280010000002221
912,3,0.8,0.0,-35.0,1,0.0,0.15160100000002785
913,3,0.8,0.0,-35.0,1,0.0,0.21790099999998347
914,3,0.8,0.0625,-35.0,-1,1.0,4.941500999999789
915,3,0.8,0.0625,-35.0,-1,1.0,6.728301000000101
916,3,0.8,0.0,-35.0,-1,1.0,0.39190099999996164
