trial_num,session_num,stim_probability_left,contrast,position,response_choice,trial_correct,reaction_time
1,1,0.5,0.125,35.0,1,1.0,0.5391999999999997
2,1,0.5,0.0625,35.0,1,1.0,6.5146999999999995
3,1,0.5,0.25,-35.0,-1,1.0,0.4429999999999996
4,1,0.5,0.0,-35.0,1,0.0,0.21289999999999765
5,1,0.5,0.125,35.0,1,1.0,0.16969999999999885
6,1,0.5,0.0625,-35.0,1,0.0,0.2649000000000008
7,1,0.5,0.25,35.0,1,1.0,0.23610000000000042
8,1,0.5,1.0,35.0,1,1.0,0.3116999999999983
9,1,0.5,1.0,35.0,1,1.0,0.20360000000000156
10,1,0.5,0.0,35.0,1,1.0,2.825499999999998
11,1,0.5,1.0,35.0,1,1.0,0.2079000000000022
12,1,0.5,0.125,35.0,1,1.0,0.2774999999999963
13,1,0.5,1.0,35.0,1,1.0,0.30180000000000007
14,1,0.5,0.0625,35.0,1,1.0,0.17599999999999483
15,1,0.5,1.0,-35.0,-1,1.0,0.3738000000000099
16,1,0.5,1.0,35.0,1,1.0,0.14910000000001844
17,1,0.5,0.125,35.0,1,1.0,0.06929999999999836
18,1,0.5,0.125,-35.0,-1,1.0,0.37249999999998806
19,1,0.5,0.0625,-35.0,-1,1.0,0.37120000000000175
20,1,0.5,0.125,35.0,1,1.0,0.2751999999999981
21,1,0.5,0.0,-35.0,1,0.0,0.3288000000000011
22,1,0.5,0.25,35.0,1,1.0,0.2761999999999887
23,1,0.5,0.25,35.0,1,1.0,0.31740000000000634
24,1,0.5,1.0,-35.0,-1,1.0,0.28069999999999595
25,1,0.5,1.0,35.0,1,1.0,0.23449999999999704
26,1,0.5,0.125,-35.0,-1,1.0,0.26039999999999
27,1,0.5,0.0,-35.0,1,0.0,0.13880000000000337
28,1,0.5,1.0,-35.0,-1,1.0,0.27470000000000994
29,1,0.5,0.0625,-35.0,-1,1.0,2.1166999999999945
30,1,0.5,0.125,-35.0,-1,1.0,0.3476000000000141
31,1,0.5,0.125,35.0,1,1.0,0.2500999999999749
32,1,0.5,0.125,-35.0,-1,1.0,0.2510000000000048
33,1,0.5,0.125,-35.0,-1,1.0,0.33339999999998327
34,1,0.5,0.25,35.0,1,1.0,0.2949999999999875
35,1,0.5,0.25,35.0,1,1.0,0.2639999999999816
36,1,0.5,0.125,35.0,1,1.0,0.27009999999998513
37,1,0.5,0.125,35.0,1,1.0,0.2021000000000015
38,1,0.5,1.0,-35.0,-1,1.0,0.1144000000000176
39,1,0.5,0.0625,-35.0,1,0.0,1.525100000000009
40,1,0.5,0.125,35.0,-1,0.0,0.42519999999996116
41,1,0.5,1.0,-35.0,-1,1.0,0.2546999999999855
42,1,0.5,0.125,-35.0,-1,1.0,0.7298999999999864
43,1,0.5,0.25,-35.0,-1,1.0,0.24620000000001596
44,1,0.5,0.125,35.0,1,1.0,0.4391999999999996
45,1,0.5,0.125,35.0,1,1.0,0.2472999999999672
46,1,0.5,1.0,-35.0,-1,1.0,0.18009999999998172
47,1,0.5,0.125,35.0,1,1.0,0.3220999999999776
48,1,0.5,0.125,35.0,1,1.0,0.3953999999999951
49,1,0.5,0.125,-35.0,-1,1.0,0.4264999999999759
50,1,0.5,0.125,-35.0,-1,1.0,1.774499999999989
51,1,0.5,0.125,-35.0,-1,1.0,0.47299999999998477
52,1,0.5,1.0,-35.0,-1,1.0,0.2775999999999783
53,1,0.5,0.0625,35.0,1,1.0,0.2656000000000063
54,1,0.5,0.25,35.0,1,1.0,0.322400000000016
55,1,0.5,1.0,-35.0,-1,1.0,0.22859999999997171
56,1,0.5,1.0,-35.0,-1,1.0,0.3085999999999842
57,1,0.5,1.0,35.0,1,1.0,0.2927999999999997
58,1,0.5,1.0,35.0,1,1.0,0.22759999999999536
59,1,0.5,0.0625,35.0,-1,0.0,1.4907999999999788
60,1,0.5,0.125,35.0,1,1.0,0.03489999999996485
61,1,0.5,0.25,-35.0,1,0.0,0.4837999999999738
62,1,0.5,0.125,35.0,1,1.0,0.3948999999999785
63,1,0.5,0.0625,35.0,1,1.0,0.47889999999995325
64,1,0.5,0.25,35.0,1,1.0,0.22009999999997376
65,1,0.5,1.0,35.0,1,1.0,0.19609999999994443
66,1,0.5,1.0,-35.0,-1,1.0,0.4001999999999839
67,1,0.5,0.0625,-35.0,1,0.0,0.3739999999999668
68,1,0.5,0.0,35.0,1,1.0,0.3228000000000293
69,1,0.5,0.125,-35.0,1,0.0,1.32589999999999
70,1,0.5,0.0625,35.0,1,1.0,0.35459999999994807
71,1,0.5,1.0,-35.0,-1,1.0,0.28609999999997626
72,1,0.5,1.0,-35.0,-1,1.0,0.26219999999995025
73,1,0.5,0.25,-35.0,-1,1.0,0.11820000000000164
74,1,0.5,0.125,35.0,1,1.0,0.2699999999999818
75,1,0.5,1.0,35.0,1,1.0,0.24490000000002965
76,1,0.5,0.0625,-35.0,1,0.0,0.3412999999999897
77,1,0.5,0.0,-35.0,1,0.0,2.523300000000006
78,1,0.5,0.125,35.0,1,1.0,0.20539999999999736
79,1,0.5,1.0,-35.0,-1,1.0,0.26659999999998263
80,1,0.5,0.0625,35.0,1,1.0,0.2934999999999377
81,1,0.5,0.25,35.0,1,1.0,0.291499999999985
82,1,0.5,0.25,35.0,1,1.0,0.22719999999998208
83,1,0.5,0.125,35.0,1,1.0,0.22819999999995844
84,1,0.5,0.125,-35.0,-1,1.0,0.44659999999998945
85,1,0.5,0.0,-35.0,1,0.0,0.35309999999998354
86,1,0.5,1.0,-35.0,-1,1.0,0.25169999999997117
87,1,0.5,0.25,-35.0,-1,1.0,0.5978999999999814
88,1,0.5,0.125,35.0,1,1.0,0.182200000000023
89,1,0.5,0.125,-35.0,-1,1.0,0.4188000000000329
90,1,0.5,0.125,35.0,1,1.0,0.30579999999997654
91,1,0.8,1.0,-35.0,-1,1.0,0.32859899999994013
92,1,0.8,0.0625,-35.0,-1,1.0,0.12590000000000146
93,1,0.8,0.0625,-35.0,-1,1.0,0.5511999999999375
94,1,0.8,0.0,-35.0,1,0.0,0.3702000000000112
95,1,0.8,0.0625,-35.0,1,0.0,1.6200000000000045
96,1,0.8,1.0,35.0,1,1.0,0.24659999999994398
97,1,0.8,1.0,-35.0,-1,1.0,-0.07720000000000482
98,1,0.8,0.25,-35.0,-1,1.0,0.2256999999999607
99,1,0.8,1.0,-35.0,-1,1.0,0.2255999999999858
100,1,0.8,0.125,-35.0,-1,1.0,-0.056199999999989814
101,1,0.8,1.0,-35.0,-1,1.0,0.2572999999999297
102,1,0.8,0.25,-35.0,-1,1.0,0.3657999999999788
103,1,0.8,0.0625,35.0,1,1.0,0.4475999999999658
104,1,0.8,0.0,-35.0,1,0.0,0.29019999999997026
105,1,0.8,0.0625,-35.0,-1,1.0,0.6223999999999705
106,1,0.8,0.25,-35.0,-1,1.0,0.3085999999999558
107,1,0.8,0.0625,-35.0,-1,1.0,0.37239999999997053
108,1,0.8,0.0625,-35.0,1,0.0,0.32579999999995835
109,1,0.8,0.125,-35.0,-1,1.0,2.3408000000000015
110,1,0.8,0.0,-35.0,1,0.0,0.33559999999999945
111,1,0.8,0.0625,-35.0,1,0.0,0.12560000000001992
112,1,0.8,0.125,-35.0,-1,1.0,0.34269999999997935
113,1,0.8,0.0625,-35.0,-1,1.0,0.320699999999988
114,1,0.8,0.125,-35.0,-1,1.0,0.3199999999999932
115,1,0.8,0.0,-35.0,1,0.0,0.21469999999999345
116,1,0.8,0.125,-35.0,1,0.0,0.12379999999996016
117,1,0.8,1.0,-35.0,-1,1.0,-0.0625
118,1,0.8,0.0625,-35.0,1,0.0,3.0827999999999633
119,1,0.8,1.0,-35.0,-1,1.0,0.3038999999999419
120,1,0.8,0.125,-35.0,-1,1.0,2.798999999999978
121,1,0.8,0.25,-35.0,-1,1.0,0.27359999999998763
122,1,0.8,0.25,-35.0,-1,1.0,0.2858999999999696
123,1,0.8,0.125,35.0,1,1.0,0.2367999999999597
124,1,0.8,0.125,-35.0,-1,1.0,0.9021999999999935
125,1,0.8,1.0,-35.0,-1,1.0,0.28099999999994907
126,1,0.8,0.25,-35.0,-1,1.0,0.41869999999994434
127,1,0.8,0.0625,35.0,1,1.0,0.2341000000000122
128,1,0.8,1.0,-35.0,-1,1.0,0.7620999999999185
129,1,0.8,0.125,-35.0,-1,1.0,1.027300000000082
130,1,0.8,0.0625,-35.0,-1,1.0,0.8892999999999347
131,1,0.8,0.25,-35.0,-1,1.0,0.05419999999992342
132,1,0.8,1.0,35.0,1,1.0,0.17269999999996344
133,1,0.8,0.125,-35.0,-1,1.0,0.2841000000000804
134,1,0.8,1.0,-35.0,-1,1.0,0.24760000000003402
135,1,0.8,0.25,-35.0,-1,1.0,-0.06079999999997199
136,1,0.8,1.0,-35.0,-1,1.0,0.9123999999999342
137,1,0.8,1.0,35.0,1,1.0,0.22080000000005384
138,1,0.8,0.25,-35.0,-1,1.0,0.04250000000013188
139,1,0.8,1.0,-35.0,-1,1.0,0.3017000000000962
140,1,0.8,0.0625,-35.0,-1,1.0,0.34050000000002
141,1,0.8,0.0625,-35.0,-1,1.0,0.7113000000000511
142,1,0.8,0.125,-35.0,-1,1.0,0.49959999999987303
143,1,0.8,1.0,-35.0,-1,1.0,0.4076000000000022
144,1,0.8,1.0,-35.0,-1,1.0,0.43470000000002074
145,1,0.8,0.0625,-35.0,-1,1.0,0.8087999999999056
146,1,0.8,1.0,-35.0,-1,1.0,0.7936999999999443
147,1,0.8,1.0,-35.0,-1,1.0,0.36950000000013006
148,1,0.8,0.125,-35.0,-1,1.0,1.6258000000000266
149,1,0.2,0.25,-35.0,-1,1.0,0.3228000000000293
150,1,0.2,0.0625,35.0,1,1.0,0.8337000000000216
151,1,0.2,0.0625,-35.0,-1,1.0,0.3588999999999487
152,1,0.2,0.0625,35.0,1,1.0,0.30080000000009477
153,1,0.2,0.25,-35.0,-1,1.0,1.911899999999946
154,1,0.2,0.0,-35.0,1,0.0,1.5600000000000591
155,1,0.2,0.0625,35.0,1,1.0,0.32149999999990087
156,1,0.2,0.125,35.0,1,1.0,0.22130000000004202
157,1,0.2,0.25,35.0,1,1.0,0.2684000000000424
158,1,0.2,1.0,-35.0,-1,1.0,0.5876000000000658
159,1,0.2,0.0625,35.0,1,1.0,0.2562000000000353
160,1,0.2,0.0,35.0,1,1.0,0.26720000000000255
161,1,0.2,0.125,35.0,1,1.0,0.25129999999990105
162,1,0.2,0.0625,35.0,1,1.0,0.2824999999999136
163,1,0.2,0.0625,-35.0,-1,1.0,0.41440000000000055
164,1,0.2,1.0,-35.0,-1,1.0,0.40850000000000364
165,1,0.2,0.25,-35.0,-1,1.0,0.3604000000000269
166,1,0.2,0.0625,35.0,1,1.0,-0.07029999999997472
167,1,0.2,0.25,35.0,1,1.0,0.20059999999989486
168,1,0.2,0.125,35.0,1,1.0,0.23959999999999582
169,1,0.2,0.25,35.0,1,1.0,0.16460000000006403
170,1,0.2,1.0,35.0,1,1.0,0.1956000000000131
171,1,0.2,0.125,-35.0,-1,1.0,0.8348999999999478
172,1,0.2,0.0625,35.0,1,1.0,0.2075999999999567
173,1,0.2,0.25,35.0,1,1.0,0.2518000000001166
174,1,0.2,0.0625,35.0,1,1.0,0.24110000000007403
175,1,0.2,0.125,35.0,1,1.0,0.2862999999998692
176,1,0.2,0.125,35.0,1,1.0,0.18819999999982429
177,1,0.2,0.0625,35.0,1,1.0,0.4556999999999789
178,1,0.2,0.0,35.0,1,1.0,0.26310000000000855
179,1,0.2,0.25,35.0,1,1.0,0.20600000000001728
180,1,0.2,0.0625,35.0,1,1.0,0.26070000000004256
181,1,0.2,0.125,35.0,1,1.0,0.3120000000000118
182,1,0.2,1.0,35.0,1,1.0,0.1798999999998614
183,1,0.2,0.25,35.0,1,1.0,0.21829999999988559
184,1,0.2,0.125,35.0,1,1.0,0.05709999999999127
185,1,0.2,0.125,35.0,1,1.0,0.2562000000000353
186,1,0.8,1.0,-35.0,-1,1.0,0.3632000000000062
187,1,0.8,0.25,-35.0,-1,1.0,0.4839000000000624
188,1,0.8,0.125,-35.0,-1,1.0,0.5070999999999231
189,1,0.8,0.125,-35.0,-1,1.0,0.5312000000000126
190,1,0.8,1.0,-35.0,-1,1.0,1.5673000000000457
191,1,0.8,0.25,-35.0,-1,1.0,2.65930000000003
192,1,0.8,0.0625,-35.0,-1,1.0,0.365099999999984
193,1,0.8,0.125,-35.0,-1,1.0,0.7228000000000065
194,1,0.8,1.0,-35.0,-1,1.0,0.9983989999999494
195,1,0.8,0.25,-35.0,-1,1.0,0.3204000000000633
196,1,0.8,0.0625,-35.0,-1,1.0,0.962099999999964
197,1,0.8,0.0625,-35.0,1,0.0,4.996499999999969
198,1,0.8,0.25,-35.0,-1,1.0,0.3509000000000242
199,1,0.8,0.0625,35.0,1,1.0,0.39960000000007767
200,1,0.8,0.0,35.0,1,1.0,0.850400000000036
201,1,0.8,0.0,-35.0,1,0.0,0.2897000000000389
202,1,0.8,0.0625,-35.0,1,0.0,0.7339999999999236
203,1,0.8,0.0,-35.0,1,0.0,0.2598000000000411
204,1,0.8,1.0,-35.0,-1,1.0,0.1937999999998965
205,1,0.8,0.0625,-35.0,-1,1.0,0.3716999999999189
206,1,0.2,0.25,35.0,1,1.0,0.2738000000000511
207,1,0.2,0.125,-35.0,-1,1.0,4.229900000000043
208,1,0.2,1.0,35.0,1,1.0,0.2378999999999678
209,1,0.2,0.25,35.0,1,1.0,0.2139999999999418
210,1,0.2,1.0,35.0,1,1.0,0.18420000000003256
211,1,0.2,0.125,35.0,1,1.0,0.19309999999995853
212,1,0.2,1.0,-35.0,-1,1.0,0.3102000000000089
213,1,0.2,1.0,35.0,1,1.0,0.24909999999988486
214,1,0.2,0.25,35.0,1,1.0,0.24040000000002237
215,1,0.2,0.125,35.0,1,1.0,0.2421999999999116
216,1,0.2,0.0625,35.0,1,1.0,0.43230000000005475
217,1,0.2,0.25,35.0,1,1.0,0.13730000000009568
218,1,0.2,1.0,35.0,1,1.0,0.23030000000005657
219,1,0.2,0.25,-35.0,-1,1.0,6.203799999999887
220,1,0.2,0.25,35.0,1,1.0,0.22620000000006257
221,1,0.2,0.25,35.0,1,1.0,0.26740000000006603
222,1,0.2,0.25,35.0,1,1.0,0.24529999999992924
223,1,0.2,0.0625,35.0,1,1.0,0.012500000000045475
224,1,0.2,0.125,35.0,1,1.0,0.5376999999999725
225,1,0.2,0.25,35.0,1,1.0,0.2076999999999316
226,1,0.2,0.0625,35.0,1,1.0,0.20230000000003656
227,1,0.2,1.0,35.0,1,1.0,0.17210000000000036
228,1,0.2,1.0,35.0,1,1.0,-0.0003000000000383807
229,1,0.2,1.0,35.0,1,1.0,0.23460000000000036
230,1,0.2,0.0625,35.0,1,1.0,0.31169999999997344
231,1,0.2,0.25,35.0,1,1.0,0.19949899999994614
232,1,0.2,0.125,35.0,1,1.0,0.3100000000000591
233,1,0.2,0.0625,35.0,-1,0.0,2.504000000000019
234,1,0.2,0.125,35.0,1,1.0,0.26149999999995543
235,1,0.2,0.0625,35.0,1,1.0,0.3208000000000766
236,1,0.2,0.0625,35.0,1,1.0,0.2880000000000109
237,1,0.2,0.25,35.0,1,1.0,0.2801000000000613
238,1,0.2,0.0,35.0,1,1.0,0.360300000000052
239,1,0.2,0.25,35.0,1,1.0,0.2761000000000422
240,1,0.2,0.125,35.0,1,1.0,0.6977999999999156
241,1,0.2,0.0,35.0,1,1.0,5.122299999999996
242,1,0.2,0.0,35.0,1,1.0,0.29340000000001965
243,1,0.2,0.125,35.0,1,1.0,0.3308999999999287
244,1,0.2,0.25,35.0,1,1.0,0.13269999999988613
245,1,0.2,0.0,35.0,-1,0.0,2.6935000000000855
246,1,0.2,1.0,35.0,1,1.0,0.3731000000000222
247,1,0.2,0.25,35.0,1,1.0,0.2502999999999247
248,1,0.2,0.125,35.0,1,1.0,0.4518000000000484
249,1,0.2,0.0625,35.0,1,1.0,0.2117000000000644
250,1,0.2,0.0625,35.0,1,1.0,0.22670000000016444
251,1,0.8,1.0,-35.0,-1,1.0,0.3304000000000542
252,1,0.8,0.0625,35.0,1,1.0,0.27070000000003347
253,1,0.8,1.0,-35.0,-1,1.0,0.5177000000001044
254,1,0.8,0.125,-35.0,1,0.0,0.15489999999999782
255,1,0.8,0.0,-35.0,1,0.0,0.3226999999999407
256,1,0.8,0.25,-35.0,-1,1.0,0.42000000000007276
257,1,0.8,0.0625,-35.0,-1,1.0,0.5405000000000655
258,1,0.8,0.25,-35.0,-1,1.0,0.3350000000000364
259,1,0.8,0.25,35.0,1,1.0,0.23739999999997963
260,1,0.8,0.25,-35.0,1,0.0,0.12310000000002219
261,1,0.8,0.25,-35.0,-1,1.0,0.1900999999998021
262,1,0.8,0.0625,-35.0,1,0.0,0.17409999999995307
263,1,0.8,0.0,-35.0,1,0.0,0.1313000000000102
264,1,0.8,0.125,-35.0,-1,1.0,0.3976999999997588
265,1,0.8,1.0,-35.0,-1,1.0,0.2560000000000855
266,1,0.8,0.25,-35.0,-1,1.0,0.27530000000001564
267,1,0.8,1.0,-35.0,-1,1.0,0.07330000000001746
268,1,0.8,1.0,-35.0,-1,1.0,0.3933999999999287
269,1,0.8,0.0,-35.0,1,0.0,0.31530000000020664
270,1,0.8,0.25,-35.0,-1,1.0,0.36799999999993815
271,1,0.8,1.0,-35.0,-1,1.0,0.3631000000000313
272,1,0.8,1.0,-35.0,-1,1.0,0.40410000000019863
273,1,0.8,0.0625,35.0,1,1.0,0.3242000000000189
274,1,0.8,0.25,-35.0,-1,1.0,0.4393999999999778
275,1,0.8,1.0,-35.0,-1,1.0,0.3044999999999618
276,1,0.8,0.25,35.0,1,1.0,-0.022900000000163345
277,1,0.8,0.0625,-35.0,-1,1.0,0.35950000000002547
278,1,0.8,0.25,35.0,1,1.0,0.24929900000006455
279,1,0.8,0.125,-35.0,-1,1.0,0.4575999999999567
280,1,0.8,0.0625,-35.0,-1,1.0,0.47659999999996217
281,1,0.8,1.0,-35.0,-1,1.0,0.5585999999998421
282,1,0.8,0.0625,-35.0,-1,1.0,0.4855999999999767
283,1,0.8,0.0625,-35.0,1,0.0,4.796699999999873
284,1,0.8,0.125,-35.0,-1,1.0,0.1607000000001335
285,1,0.8,0.25,-35.0,-1,1.0,0.4877000000001317
286,1,0.8,1.0,-35.0,-1,1.0,-0.06919999999990978
287,1,0.2,0.0,-35.0,-1,1.0,1.0167999999998756
288,1,0.2,0.125,-35.0,-1,1.0,0.2794000000001233
289,1,0.2,0.0625,-35.0,-1,1.0,0.33789999999999054
290,1,0.2,0.25,35.0,1,1.0,0.2539000000001579
291,1,0.2,0.25,35.0,1,1.0,0.23489999999992506
292,1,0.2,0.125,35.0,1,1.0,0.28959999999983665
293,1,0.2,1.0,35.0,1,1.0,0.2339999999999236
294,1,0.2,0.125,35.0,1,1.0,0.25769999999988613
295,1,0.2,0.25,35.0,1,1.0,0.3201000000001386
296,1,0.2,0.125,35.0,1,1.0,0.23909999999978027
297,1,0.2,0.0,-35.0,1,0.0,0.43220000000019354
298,1,0.2,0.0625,-35.0,-1,1.0,0.43760000000020227
299,1,0.2,0.0625,-35.0,-1,1.0,0.705199999999877
300,1,0.2,0.125,35.0,1,1.0,0.19029999999997926
301,1,0.2,0.0625,35.0,1,1.0,0.3223000000000411
302,1,0.2,0.125,35.0,1,1.0,0.2696000000000822
303,1,0.2,0.0,35.0,-1,0.0,1.512000000000171
304,1,0.2,0.25,35.0,1,1.0,0.3133999999997741
305,1,0.2,0.125,35.0,1,1.0,0.2499000000000251
306,1,0.2,0.0625,35.0,1,1.0,0.4924999999998363
307,1,0.2,0.125,35.0,1,1.0,0.1916999999998552
308,1,0.2,0.0625,35.0,1,1.0,1.072499999999991
309,1,0.2,0.125,35.0,1,1.0,0.5059999999998581
310,1,0.2,0.125,35.0,1,1.0,0.6748000000000047
311,1,0.2,0.125,35.0,1,1.0,0.21959999999990032
312,1,0.2,0.0625,35.0,1,1.0,0.3386000000000422
313,1,0.2,1.0,35.0,1,1.0,0.30960000000004584
314,1,0.2,0.0,-35.0,1,0.0,1.9036999999998443
315,1,0.2,0.0625,35.0,-1,0.0,0.4045000000000982
316,1,0.2,0.25,35.0,1,1.0,0.2927999999999429
317,1,0.2,1.0,35.0,1,1.0,0.20890000000008513
318,1,0.2,0.25,35.0,1,1.0,0.23079999999981737
319,1,0.2,0.0,35.0,1,1.0,3.7264999999999873
320,1,0.2,0.0625,35.0,1,1.0,0.23159999999984393
321,1,0.2,1.0,35.0,1,1.0,0.37489999999979773
322,1,0.2,1.0,35.0,1,1.0,0.42219999999997526
323,1,0.2,0.125,35.0,1,1.0,0.30539999999996326
324,1,0.2,0.125,35.0,1,1.0,-0.05510000000003856
325,1,0.2,0.0625,35.0,1,1.0,0.33999999999991815
326,1,0.2,0.125,35.0,1,1.0,0.27929999999992106
327,1,0.2,1.0,35.0,1,1.0,0.31140000000004875
328,1,0.2,0.25,35.0,1,1.0,0.2300999999999931
329,1,0.2,0.0625,35.0,1,1.0,0.2984000000001288
330,1,0.2,0.0625,35.0,1,1.0,0.5343000000000302
331,1,0.2,0.25,-35.0,-1,1.0,0.4209000000000742
332,1,0.2,0.0,35.0,1,1.0,0.12940000000003238
333,1,0.2,0.125,35.0,1,1.0,0.3524999999999636
334,1,0.2,0.25,35.0,1,1.0,0.2241999999998825
335,1,0.2,0.25,35.0,1,1.0,0.23949999999990723
336,1,0.2,1.0,-35.0,-1,1.0,0.43859999999995125
337,1,0.2,0.25,35.0,1,1.0,0.2919999999999163
338,1,0.8,0.0625,-35.0,1,0.0,4.885500000000093
339,1,0.8,1.0,-35.0,-1,1.0,0.3040000000000873
340,1,0.8,0.125,-35.0,-1,1.0,0.23979999999983193
341,1,0.8,0.25,-35.0,-1,1.0,-0.07229999999981374
342,1,0.8,1.0,-35.0,-1,1.0,0.2518000000000029
343,1,0.8,0.0625,-35.0,-1,1.0,2.8647000000000844
344,1,0.8,0.0,-35.0,-1,1.0,0.8586999999999989
345,1,0.8,0.125,35.0,1,1.0,0.2624000000000706
346,1,0.8,0.125,-35.0,-1,1.0,0.34979999999995925
347,1,0.8,0.25,-35.0,-1,1.0,0.27350000000001273
348,1,0.8,0.125,-35.0,-1,1.0,0.38799999999991996
349,1,0.8,0.0625,-35.0,-1,1.0,0.3089999999999691
350,1,0.8,0.0,-35.0,-1,1.0,0.6735999999998512
351,1,0.8,1.0,-35.0,-1,1.0,0.5410999999996875
352,1,0.8,0.0,-35.0,1,0.0,0.25519999999983156
353,1,0.8,0.0625,-35.0,-1,1.0,0.5412000000001171
354,1,0.8,0.125,35.0,1,1.0,0.26549999999997453
355,1,0.8,0.25,35.0,1,1.0,0.19129999999995562
356,1,0.8,0.125,-35.0,-1,1.0,-0.046899999999823194
357,1,0.8,0.0,-35.0,1,0.0,0.27759999999989304
358,1,0.8,0.0625,-35.0,-1,1.0,0.37800000000015643
359,1,0.8,0.125,-35.0,-1,1.0,0.3334999999997308
360,1,0.8,0.25,35.0,1,1.0,0.1958999999999378
361,1,0.8,0.0,-35.0,1,0.0,0.20119999999974425
362,1,0.8,0.0625,-35.0,-1,1.0,0.3524999999999636
363,1,0.8,0.25,-35.0,-1,1.0,0.27969999999982065
364,1,0.8,0.25,-35.0,-1,1.0,0.3064999999999145
365,1,0.8,0.0625,-35.0,-1,1.0,0.6895000000001801
366,1,0.8,0.25,-35.0,-1,1.0,0.3754999999998745
367,1,0.8,1.0,35.0,1,1.0,0.8196000000002641
368,1,0.8,0.125,-35.0,-1,1.0,0.6323999999999614
369,1,0.8,1.0,-35.0,-1,1.0,0.935799999999972
370,1,0.8,0.0625,-35.0,-1,1.0,0.4856999999999516
371,1,0.8,0.0625,-35.0,-1,1.0,0.3166999999998552
372,1,0.2,0.0625,35.0,1,1.0,0.1937000000000353
373,1,0.2,0.0625,35.0,1,1.0,0.26480000000015025
374,1,0.2,0.125,35.0,1,1.0,0.2056999999999789
375,1,0.2,0.25,35.0,1,1.0,0.2217000000000553
376,1,0.2,0.0625,35.0,1,1.0,0.31989999999996144
377,1,0.2,0.125,35.0,1,1.0,0.018000000000029104
378,1,0.2,1.0,35.0,1,1.0,0.23410000000012587
379,1,0.2,0.0625,35.0,1,1.0,0.4803999999999178
380,1,0.2,0.0625,-35.0,-1,1.0,0.49299999999993815
381,1,0.2,0.0,35.0,1,1.0,0.15489999999999782
382,1,0.2,0.0625,35.0,1,1.0,0.2804000000000997
383,1,0.2,0.25,35.0,1,1.0,0.18609999999989668
384,1,0.2,0.0625,35.0,1,1.0,0.47119999999995343
385,1,0.2,0.25,35.0,1,1.0,0.35990000000015243
386,1,0.2,0.0,35.0,-1,0.0,0.48250000000007276
387,1,0.2,1.0,35.0,1,1.0,-0.06770000000005894
388,1,0.2,0.0625,35.0,1,1.0,0.4933000000000902
389,1,0.2,0.0,35.0,1,1.0,2.288000000000011
390,1,0.2,1.0,35.0,1,1.0,0.15340000000014697
391,1,0.2,0.25,-35.0,-1,1.0,0.282799999999952
392,1,0.2,0.25,35.0,1,1.0,0.42039999999997235
393,1,0.2,1.0,35.0,1,1.0,0.5653999999999542
394,1,0.2,0.125,35.0,1,1.0,0.27749999999991815
395,1,0.2,0.25,35.0,1,1.0,0.4281999999998334
396,1,0.2,1.0,35.0,1,1.0,0.1455999999998312
397,1,0.2,0.125,35.0,1,1.0,0.24469999999996617
398,1,0.2,0.125,35.0,1,1.0,0.27919999999994616
399,1,0.2,0.25,35.0,1,1.0,0.365099999999984
400,1,0.2,0.25,35.0,1,1.0,0.03819999999996071
401,1,0.2,1.0,-35.0,-1,1.0,0.561100000000124
402,1,0.2,0.0625,-35.0,-1,1.0,0.3554999999998927
403,1,0.2,0.25,35.0,1,1.0,0.28369999999995343
404,1,0.2,0.25,35.0,1,1.0,0.22080000000005384
405,1,0.2,0.0625,35.0,1,1.0,0.45479999999997744
406,1,0.2,0.0625,35.0,1,1.0,0.5679999999999836
407,1,0.2,0.125,35.0,1,1.0,0.6078999999999724
408,1,0.2,1.0,35.0,1,1.0,0.19240000000013424
409,1,0.2,0.25,35.0,1,1.0,0.2257999999999356
410,1,0.2,1.0,35.0,1,1.0,0.315900000000056
411,1,0.2,0.25,-35.0,-1,1.0,2.3509999999998854
412,1,0.2,0.125,35.0,1,1.0,0.2768999999998414
413,1,0.2,1.0,35.0,1,1.0,0.35399999999981446
414,1,0.2,1.0,35.0,1,1.0,0.3971000000001368
415,1,0.2,1.0,35.0,1,1.0,0.3344999999999345
416,1,0.2,0.125,35.0,1,1.0,0.2458000000001448
417,1,0.2,0.0625,35.0,-1,0.0,4.18509999999992
418,1,0.2,0.125,35.0,1,1.0,0.19690000000014152
419,1,0.2,0.25,-35.0,-1,1.0,0.2421999999999116
420,1,0.2,0.125,35.0,1,1.0,0.2799999999999727
421,1,0.2,0.0625,35.0,1,1.0,0.2593000000001666
422,1,0.2,0.0625,35.0,1,1.0,0.3342999999999847
423,1,0.2,0.0,35.0,-1,0.0,1.8343999999997322
424,1,0.2,0.0625,35.0,1,1.0,0.30960000000004584
425,1,0.2,0.125,35.0,1,1.0,0.26149999999984175
426,1,0.2,0.25,35.0,1,1.0,0.3696999999997388
427,1,0.2,0.125,-35.0,-1,1.0,0.33150000000000546
428,1,0.2,0.0,35.0,1,1.0,1.5844999999999345
429,1,0.2,1.0,35.0,1,1.0,0.21249999999986358
430,1,0.2,0.125,35.0,1,1.0,0.2677000000001044
431,1,0.2,1.0,35.0,1,1.0,-0.00659999999993488
432,1,0.2,1.0,35.0,1,1.0,0.31189999999992324
433,1,0.2,0.125,35.0,1,1.0,0.23630000000002838
434,1,0.2,1.0,35.0,1,1.0,0.24879999999984648
435,1,0.2,0.25,35.0,1,1.0,0.3140000000000782
436,1,0.8,0.25,-35.0,-1,1.0,0.41410000000018954
437,1,0.8,0.0,-35.0,1,0.0,0.3079000000000178
438,1,0.8,1.0,35.0,1,1.0,0.22520000000008622
439,1,0.8,0.0625,-35.0,-1,1.0,0.3288000000000011
440,1,0.8,1.0,-35.0,-1,1.0,0.27860000000009677
441,1,0.8,0.25,-35.0,-1,1.0,0.30500000000006366
442,1,0.8,0.0,-35.0,-1,1.0,0.5775000000001
443,1,0.8,0.0,35.0,-1,0.0,2.0850000000000364
444,1,0.8,0.0625,-35.0,1,0.0,0.9040999999997439
445,1,0.8,0.125,-35.0,1,0.0,0.34360000000015134
446,1,0.8,0.25,-35.0,-1,1.0,0.36169999999992797
447,1,0.8,0.0,-35.0,-1,1.0,1.6963000000000648
448,1,0.8,0.0625,-35.0,-1,1.0,0.4599000000000615
449,1,0.8,0.25,-35.0,-1,1.0,0.21730000000002292
450,1,0.8,0.125,-35.0,-1,1.0,0.270799999999781
451,1,0.8,1.0,35.0,1,1.0,0.23830000000020846
452,1,0.8,0.0,-35.0,1,0.0,0.012400000000070577
453,1,0.8,0.25,-35.0,-1,1.0,0.2923999999998159
454,1,0.8,0.125,-35.0,-1,1.0,0.3229999999998654
455,1,0.8,1.0,-35.0,-1,1.0,0.25050000000010186
456,1,0.8,1.0,35.0,1,1.0,0.24870000000009895
457,1,0.8,0.125,35.0,1,1.0,0.22119999999995343
458,1,0.8,0.0,-35.0,1,0.0,0.4175999999999931
459,1,0.8,0.0625,-35.0,-1,1.0,0.12950000000000728
460,1,0.8,0.0625,-35.0,1,0.0,0.0011990000000423606
461,1,0.8,1.0,35.0,1,1.0,0.35859999999979664
462,1,0.8,0.0625,-35.0,-1,1.0,0.07949999999982538
463,1,0.8,0.25,35.0,1,1.0,0.20889999999985776
464,1,0.8,0.0625,35.0,1,1.0,0.287900000000036
465,1,0.8,0.0,-35.0,1,0.0,1.2802000000001499
466,1,0.8,0.125,-35.0,1,0.0,0.04099999999993997
467,1,0.2,0.0,-35.0,1,0.0,0.401299999999992
468,1,0.2,0.25,35.0,1,1.0,0.11850000000004002
469,1,0.2,0.125,35.0,-1,0.0,1.6839000000002216
470,1,0.2,0.0625,35.0,1,1.0,0.32310000000006767
471,1,0.2,0.125,-35.0,-1,1.0,0.26870000000008076
472,1,0.2,1.0,35.0,1,1.0,0.19820000000004256
473,1,0.2,1.0,35.0,1,1.0,-0.0683000000001357
474,1,0.2,1.0,35.0,1,1.0,0.13830000000007203
475,1,0.2,0.25,35.0,1,1.0,0.3317000000001826
476,1,0.2,1.0,35.0,1,1.0,0.15850000000000364
477,1,0.2,1.0,35.0,-1,0.0,-0.0727999999999156
478,1,0.2,0.125,35.0,1,1.0,0.29950000000008004
479,1,0.2,0.125,35.0,1,1.0,0.25529999999980646
480,1,0.2,1.0,35.0,1,1.0,0.18790000000035434
481,1,0.2,0.125,35.0,1,1.0,0.3020000000001346
482,1,0.2,1.0,35.0,1,1.0,0.16869999999971697
483,1,0.2,0.125,-35.0,-1,1.0,0.36859999999978754
484,1,0.2,0.125,35.0,1,1.0,0.30130000000008295
485,1,0.2,0.25,35.0,1,1.0,0.1768000000001848
486,1,0.2,0.125,35.0,1,1.0,0.27480000000014115
487,1,0.2,1.0,35.0,1,1.0,0.014200000000073487
488,1,0.2,0.0625,35.0,1,1.0,0.35690000000022337
489,1,0.2,0.0625,35.0,1,1.0,0.3417000000004009
490,1,0.2,0.0625,35.0,1,1.0,0.23999999999978172
491,1,0.2,0.0,35.0,1,1.0,0.8435000000004038
492,1,0.2,0.25,35.0,1,1.0,0.44650000000001455
493,1,0.2,0.125,35.0,1,1.0,0.27680000000009386
494,1,0.2,0.25,35.0,1,1.0,0.4619999999999891
495,1,0.2,0.125,35.0,1,1.0,0.20710000000008222
496,1,0.2,0.125,35.0,1,1.0,0.2357999999999265
497,1,0.2,1.0,35.0,1,1.0,0.4580999999998312
498,1,0.2,1.0,35.0,1,1.0,0.37019999999984066
499,1,0.2,1.0,35.0,1,1.0,0.2891999999997097
500,1,0.2,1.0,35.0,1,1.0,0.22730000000001382
501,1,0.2,1.0,35.0,1,1.0,0.22690000000011423
502,1,0.2,1.0,35.0,1,1.0,0.21050000000013824
503,1,0.2,0.0625,-35.0,-1,1.0,0.30330000000003565
504,1,0.2,0.125,35.0,1,1.0,0.2798999999999978
505,1,0.2,1.0,35.0,1,1.0,0.17029999999977008
506,1,0.2,0.0625,35.0,1,1.0,0.36149999999997817
507,1,0.2,0.25,35.0,1,1.0,0.6687000000001717
508,1,0.2,0.0,-35.0,-1,1.0,3.3752999999996973
509,1,0.2,1.0,35.0,1,1.0,0.2086000000003878
510,1,0.2,0.125,-35.0,-1,1.0,0.7575999999999112
511,1,0.2,0.125,-35.0,-1,1.0,2.501600000000053
512,1,0.2,1.0,35.0,1,1.0,0.22359999999980573
513,1,0.2,0.25,35.0,1,1.0,0.6307000000001608
514,1,0.2,0.0,-35.0,-1,1.0,2.4167999999999665
515,1,0.2,0.125,35.0,1,1.0,0.22100000000000364
516,1,0.2,0.25,35.0,1,1.0,0.28139999999984866
517,1,0.2,1.0,35.0,1,1.0,0.4497999999998683
518,1,0.2,0.25,35.0,1,1.0,0.2197000000001026
519,1,0.2,0.125,35.0,1,1.0,0.03890000000001237
520,1,0.2,1.0,35.0,1,1.0,0.23700000000008004
521,1,0.2,0.25,35.0,1,1.0,0.3040000000000873
522,1,0.2,0.0625,35.0,-1,0.0,3.75669999999991
523,1,0.2,0.25,35.0,1,1.0,0.2203999999996995
524,1,0.2,0.0625,35.0,1,1.0,0.7338999999997213
525,1,0.2,0.25,35.0,1,1.0,0.25070000000005166
526,1,0.8,0.125,-35.0,-1,1.0,0.364100000000235
527,1,0.8,1.0,-35.0,-1,1.0,0.34760000000005675
528,1,0.8,0.0,35.0,1,1.0,1.2611000000001695
529,1,0.8,0.0625,-35.0,-1,1.0,0.324500000000171
530,1,0.8,0.0,-35.0,1,0.0,2.5214999999998327
531,1,0.8,0.25,-35.0,-1,1.0,0.4984999999996944
532,1,0.8,0.0,-35.0,1,0.0,1.241899999999987
533,1,0.8,0.125,-35.0,-1,1.0,0.3386999999997897
534,1,0.8,0.25,-35.0,-1,1.0,0.342200000000048
535,1,0.8,1.0,-35.0,-1,1.0,0.3089999999997417
536,1,0.8,0.25,-35.0,-1,1.0,0.3724999999994907
537,1,0.8,1.0,35.0,1,1.0,0.2695000000003347
538,1,0.8,0.0625,-35.0,1,0.0,0.7530000000001564
539,1,0.8,0.25,-35.0,-1,1.0,0.37989999999990687
540,1,0.8,1.0,35.0,1,1.0,0.22659999999996217
541,1,0.8,0.125,-35.0,-1,1.0,0.5133999999998196
542,1,0.8,0.25,35.0,1,1.0,0.26359999999976935
543,1,0.8,0.125,-35.0,-1,1.0,0.7337999999999738
544,1,0.8,0.125,35.0,1,1.0,0.2539999999999054
545,1,0.8,1.0,-35.0,-1,1.0,0.41740000000027067
546,1,0.8,0.0625,35.0,1,1.0,0.24759999999969295
547,1,0.8,1.0,-35.0,-1,1.0,0.29100000000016735
548,1,0.8,1.0,-35.0,-1,1.0,0.6711999999997715
549,1,0.8,0.0625,-35.0,-1,1.0,0.3447000000001026
550,1,0.8,0.125,-35.0,-1,1.0,0.7714999999998327
551,1,0.8,1.0,35.0,1,1.0,0.2549999999996544
552,1,0.8,0.25,-35.0,-1,1.0,0.6386000000002241
553,1,0.8,0.0625,-35.0,1,0.0,0.33219999999982974
554,1,0.8,0.125,-35.0,-1,1.0,0.2955000000001746
555,1,0.8,0.0625,-35.0,-1,1.0,0.4592000000002372
556,1,0.8,0.25,35.0,1,1.0,0.4859000000001288
557,1,0.8,0.25,-35.0,-1,1.0,0.9094000000000051
558,1,0.8,0.25,35.0,1,1.0,0.716099999999642
559,1,0.8,1.0,-35.0,-1,1.0,1.096299999999701
560,1,0.8,0.25,-35.0,-1,1.0,0.4731000000001586
561,1,0.8,1.0,-35.0,-1,1.0,0.35989999999992506
562,1,0.8,1.0,-35.0,-1,1.0,0.7433999999998377
563,1,0.8,0.0,-35.0,1,0.0,0.35679999999956635
564,1,0.8,0.25,-35.0,-1,1.0,0.7568999999998596
565,1,0.8,0.0625,-35.0,-1,1.0,1.3904999999999745
566,1,0.8,0.25,-35.0,-1,1.0,0.3140000000003056
567,1,0.8,0.0,-35.0,1,0.0,3.4441000000001623
568,1,0.8,0.125,-35.0,-1,1.0,4.207800000000134
569,1,0.8,0.0625,-35.0,1,0.0,0.7980000000002292
570,1,0.8,0.0,-35.0,1,0.0,0.4217999999996209
571,1,0.8,0.0625,-35.0,-1,1.0,0.4250999999999294
572,1,0.8,0.0,-35.0,-1,1.0,5.248500000000149
573,1,0.8,0.0625,35.0,1,1.0,0.6657000000000153
574,1,0.8,0.0625,-35.0,1,0.0,0.1558999999997468
575,1,0.8,0.0625,35.0,1,1.0,0.29939999999987776
576,1,0.8,0.25,-35.0,-1,1.0,0.6129000000000815
577,1,0.8,0.125,-35.0,-1,1.0,0.37969999999995707
578,1,0.8,0.25,-35.0,-1,1.0,0.28339999999980137
579,1,0.8,0.125,-35.0,-1,1.0,0.5572000000001935
580,1,0.8,1.0,-35.0,1,0.0,0.6139000000002852
581,1,0.8,1.0,-35.0,-1,1.0,0.31080000000019936
582,1,0.8,0.0625,-35.0,-1,1.0,0.3109999999996944
583,1,0.8,0.0625,-35.0,-1,1.0,0.40790000000015425
584,1,0.8,0.0,-35.0,1,0.0,0.2480000000000473
585,1,0.8,0.25,35.0,1,1.0,0.3283000000001266
586,1,0.8,0.0,-35.0,-1,1.0,0.47510000000056607
587,1,0.8,0.125,35.0,1,1.0,0.24200000000018917
588,1,0.8,0.125,-35.0,-1,1.0,0.2919999999999163
589,1,0.8,0.0,-35.0,1,0.0,0.26929999999993015
590,1,0.8,0.0625,-35.0,-1,1.0,0.7794000000003507
591,1,0.8,0.0625,-35.0,-1,1.0,0.6129000000005362
592,1,0.8,0.25,-35.0,-1,1.0,0.6365000000000691
593,1,0.8,0.0,-35.0,1,0.0,1.3699000000001433
594,1,0.8,0.125,-35.0,-1,1.0,0.35019999999985885
595,1,0.8,0.0625,-35.0,-1,1.0,0.390400000000227
596,1,0.8,0.0625,-35.0,1,0.0,0.2840000000001055
597,1,0.8,0.25,-35.0,-1,1.0,0.3674999999998363
598,1,0.8,0.0625,35.0,1,1.0,0.2377000000001317
599,1,0.8,0.125,35.0,1,1.0,0.4011000000000422
600,1,0.8,0.125,-35.0,-1,1.0,2.0645999999997002
601,1,0.8,0.25,-35.0,-1,1.0,0.3014000000002852
602,1,0.8,1.0,-35.0,-1,1.0,0.47499999999990905
603,1,0.8,0.0625,-35.0,-1,1.0,0.13180000000011205
604,1,0.8,0.125,-35.0,-1,1.0,0.348700000000008
605,1,0.8,0.0,-35.0,1,0.0,0.33219999999982974
606,1,0.8,1.0,-35.0,-1,1.0,0.37249999999994543
607,1,0.8,0.125,-35.0,-1,1.0,0.5059000000001106
608,1,0.8,0.125,-35.0,-1,1.0,0.3360999999995329
609,1,0.8,0.0625,-35.0,1,0.0,0.5428999999999178
610,1,0.8,1.0,-35.0,-1,1.0,0.7232999999996537
611,1,0.2,0.0,35.0,1,1.0,0.9167999999999665
612,1,0.2,0.0,35.0,1,1.0,2.540299999999661
613,1,0.2,1.0,35.0,1,1.0,0.3106999999999971
614,1,0.2,0.125,35.0,1,1.0,0.264299999999821
615,1,0.2,0.125,-35.0,-1,1.0,0.3781000000003587
616,1,0.2,0.25,35.0,1,1.0,0.30500000000029104
617,1,0.2,0.25,35.0,1,1.0,0.2849999999998545
618,1,0.2,0.125,-35.0,-1,1.0,1.371900000000096
619,1,0.2,0.0625,35.0,1,1.0,0.2786999999998443
620,1,0.2,0.0,-35.0,-1,1.0,7.662299999999959
621,1,0.2,0.125,35.0,1,1.0,0.40610000000015134
622,1,0.2,1.0,35.0,1,1.0,0.2361999999998261
623,1,0.2,0.0,35.0,1,1.0,1.7929999999996653
624,1,0.2,0.25,-35.0,-1,1.0,2.743199999999888
625,1,0.2,1.0,35.0,1,1.0,0.24670000000014625
626,1,0.2,1.0,35.0,1,1.0,0.5266999999998916
627,1,0.2,1.0,35.0,1,1.0,0.4569000000001324
628,1,0.2,0.0,35.0,-1,0.0,2.6170999999999367
629,1,0.2,0.125,35.0,1,1.0,0.3706999999999425
630,1,0.2,0.0625,35.0,1,1.0,0.3008999999997286
631,1,0.2,0.25,35.0,1,1.0,0.3409999999998945
632,1,0.2,0.125,35.0,1,1.0,3.227900000000318
633,1,0.2,0.25,35.0,1,1.0,0.4580999999998312
634,1,0.2,0.0625,-35.0,1,0.0,2.771600000000035
635,1,0.2,0.0625,35.0,1,1.0,0.11179999999967549
636,1,0.2,0.0625,35.0,1,1.0,0.32540000000017244
637,1,0.2,0.25,35.0,1,1.0,0.2655000000004293
638,1,0.2,0.125,35.0,1,1.0,0.4023000000001957
639,1,0.8,0.25,35.0,1,1.0,-0.000600000000304135
640,1,0.8,0.25,-35.0,-1,1.0,3.482800000000225
641,1,0.8,0.125,-35.0,1,0.0,4.132999999999811
642,1,0.8,0.25,35.0,1,1.0,0.3500999999996566
643,1,0.8,0.25,-35.0,-1,1.0,0.9803000000001703
644,1,0.8,1.0,-35.0,-1,1.0,0.2638999999994667
645,1,0.8,0.0625,-35.0,-1,1.0,2.3105000000000473
646,1,0.8,0.25,-35.0,1,0.0,2.167500000000473
647,1,0.8,0.25,-35.0,-1,1.0,0.5677000000000589
648,1,0.8,0.0625,-35.0,-1,1.0,0.20779999999967913
649,1,0.8,0.0625,-35.0,-1,1.0,3.057999999999538
650,1,0.8,0.125,-35.0,-1,1.0,0.464799999999741
651,1,0.8,0.0625,-35.0,1,0.0,1.4315999999998894
652,1,0.8,0.25,-35.0,-1,1.0,0.12840000000005602
653,1,0.8,0.25,-35.0,-1,1.0,0.41200000000026193
654,1,0.8,0.125,35.0,1,1.0,0.328899999999976
655,1,0.8,1.0,-35.0,-1,1.0,0.8421999999995933
656,1,0.8,0.125,-35.0,-1,1.0,0.4323999999996886
657,1,0.8,0.125,-35.0,-1,1.0,1.0359000000003107
658,1,0.8,0.125,35.0,1,1.0,0.6159999999995307
659,1,0.8,0.25,-35.0,-1,1.0,3.2496000000001004
660,1,0.2,0.0625,35.0,1,1.0,0.2898000000000138
661,1,0.2,0.25,-35.0,-1,1.0,4.2531999999996515
662,1,0.2,0.0625,35.0,1,1.0,0.17360000000007858
663,1,0.2,0.0,35.0,1,1.0,1.1403000000000247
664,1,0.2,1.0,35.0,1,1.0,0.2272000000002663
665,1,0.2,0.0625,35.0,1,1.0,0.5407000000000153
666,1,0.2,0.25,35.0,1,1.0,0.3007999999999811
667,1,0.2,1.0,35.0,1,1.0,0.21769999999969514
668,1,0.2,0.25,35.0,1,1.0,0.2645999999999731
669,1,0.2,0.25,35.0,1,1.0,0.4515000000001237
670,1,0.2,0.0,35.0,-1,0.0,4.514999999999873
671,1,0.2,0.0,35.0,-1,0.0,0.9886999999998807
672,1,0.2,0.25,-35.0,-1,1.0,0.5490999999997257
673,1,0.2,1.0,35.0,1,1.0,0.19929999999976644
674,1,0.2,1.0,35.0,1,1.0,0.36950000000024374
675,1,0.2,1.0,35.0,1,1.0,0.21959999999990032
676,1,0.2,0.25,35.0,1,1.0,0.0498000000002321
677,1,0.2,0.0625,35.0,1,1.0,0.31340000000000146
678,1,0.2,0.125,35.0,1,1.0,0.4569000000001324
679,1,0.2,0.0625,35.0,1,1.0,0.5138000000001739
680,1,0.2,0.125,35.0,1,1.0,0.5372000000002117
681,1,0.2,1.0,35.0,1,1.0,0.21410000000014406
682,1,0.2,1.0,35.0,1,1.0,0.6542999999996937
683,1,0.2,0.125,35.0,1,1.0,0.31779999999980646
684,1,0.2,0.0625,35.0,1,1.0,0.37449999999989814
685,1,0.2,0.0625,35.0,-1,0.0,4.9213000000004286
686,1,0.2,0.125,35.0,1,1.0,1.5117999999997664
687,1,0.2,0.25,35.0,1,1.0,0.5051999999996042
688,1,0.2,1.0,35.0,1,1.0,0.24530000000004293
689,1,0.2,0.25,-35.0,-1,1.0,7.882200000000466
690,1,0.2,0.25,35.0,1,1.0,0.23250000000007276
691,1,0.2,0.0625,35.0,1,1.0,0.2992999999996755
692,1,0.2,0.25,35.0,1,1.0,0.25270000000000437
693,1,0.2,0.0625,35.0,-1,0.0,2.712999999999738
694,1,0.2,0.0,35.0,1,1.0,5.123199999999542
695,1,0.2,0.125,35.0,1,1.0,0.3002000000001317
696,1,0.2,0.25,35.0,1,1.0,0.24349999999958527
697,1,0.2,0.0625,35.0,1,1.0,3.106999999999971
698,1,0.8,0.0625,-35.0,1,0.0,0.8106999999999971
699,1,0.8,0.0,-35.0,1,0.0,0.23410000000012587
700,1,0.8,0.0625,-35.0,1,0.0,0.4908999999997832
701,1,0.8,0.25,-35.0,1,0.0,5.531100000000151
702,1,0.8,0.0,-35.0,-1,1.0,7.084699999999884
703,1,0.8,1.0,-35.0,-1,1.0,0.7950999999998203
704,1,0.8,1.0,-35.0,-1,1.0,0.438600000000406
705,1,0.8,0.0,35.0,1,1.0,0.588799999999992
706,1,0.8,0.125,-35.0,1,0.0,2.452299999999923
707,1,0.8,1.0,-35.0,-1,1.0,0.4992000000002008
708,1,0.8,0.25,35.0,1,1.0,0.20269999999982247
709,1,0.8,0.0,35.0,1,1.0,4.602800000000116
710,1,0.8,0.0625,-35.0,1,0.0,0.29649999999946886
711,1,0.8,1.0,-35.0,-1,1.0,0.3767000000002554
712,1,0.8,1.0,-35.0,-1,1.0,0.5901999999996406
713,1,0.8,0.125,35.0,1,1.0,0.2840000000001055
714,1,0.8,0.0,-35.0,1,0.0,1.9507999999996173
715,1,0.8,1.0,-35.0,-1,1.0,0.45100000000002183
716,1,0.8,0.125,35.0,1,1.0,0.24440000000004147
717,1,0.8,0.0,-35.0,1,0.0,9.831199999999626
718,1,0.8,0.125,35.0,1,1.0,0.30500000000029104
719,1,0.8,0.0625,35.0,1,1.0,0.33530000000018845
720,1,0.2,0.125,-35.0,-1,1.0,0.778700000000299
721,1,0.2,0.0625,35.0,1,1.0,0.7355999999999767
722,1,0.2,0.0625,-35.0,1,0.0,4.182500000000346
723,1,0.2,1.0,35.0,1,1.0,0.2461009999997259
724,1,0.2,0.0,35.0,1,1.0,1.4029010000003836
725,1,0.2,0.0,-35.0,-1,1.0,2.1065010000002076
726,1,0.2,0.25,35.0,1,1.0,0.26670100000001185
727,1,0.2,0.0625,35.0,1,1.0,0.5036009999998896
728,1,0.2,0.125,35.0,1,1.0,0.21710099999972954
729,1,0.2,0.0625,35.0,1,1.0,8.463900999999623
730,1,0.2,0.125,35.0,1,1.0,0.21440100000017992
731,1,0.2,1.0,35.0,1,1.0,0.3878010000003087
732,1,0.2,0.25,35.0,1,1.0,0.3047010000004775
733,1,0.2,0.25,35.0,1,1.0,0.22820100000035382
734,1,0.2,1.0,35.0,1,1.0,0.4351010000000315
735,1,0.2,0.25,35.0,1,1.0,0.35200099999974555
736,1,0.2,0.0625,35.0,1,1.0,0.29880099999991216
737,1,0.2,0.0,35.0,1,1.0,8.065600999999788
738,1,0.2,1.0,35.0,1,1.0,0.25600100000019665
739,1,0.2,0.25,35.0,1,1.0,0.27270099999986996
740,1,0.2,0.125,35.0,1,1.0,1.339701000000332
741,1,0.2,0.25,35.0,1,1.0,0.24310100000002421
742,1,0.2,0.25,35.0,1,1.0,0.25330099999973754
743,1,0.2,0.125,35.0,1,1.0,0.24340099999972153
744,1,0.2,0.0625,35.0,1,1.0,0.5302010000000337
745,1,0.2,0.25,-35.0,1,0.0,0.10700099999985468
746,1,0.2,1.0,35.0,1,1.0,0.21050100000002203
747,1,0.8,1.0,-35.0,1,0.0,0.4040010000003349
748,1,0.8,0.0625,-35.0,-1,1.0,8.037600999999995
749,1,0.8,0.125,-35.0,1,0.0,0.1213009999996757
750,1,0.8,0.125,-35.0,1,0.0,9.281600999999682
751,1,0.8,0.0625,-35.0,1,0.0,8.9453010000002
752,1,0.8,0.0625,-35.0,-1,1.0,0.40580099999988306
753,1,0.8,0.125,-35.0,-1,1.0,2.252700999999888
754,1,0.8,0.0,35.0,1,1.0,5.479601000000002
755,1,0.8,0.25,-35.0,1,0.0,0.6267009999996844
756,1,0.8,1.0,-35.0,-1,1.0,0.6269010000005437
757,1,0.8,0.125,-35.0,1,0.0,0.2838010000000395
758,1,0.8,1.0,-35.0,-1,1.0,0.7307009999999536
759,1,0.8,1.0,35.0,1,1.0,0.22450099999969098
760,1,0.8,0.0625,-35.0,1,0.0,5.388000999999804
761,1,0.8,0.0,-35.0,1,0.0,0.14840100000037637
762,1,0.8,0.25,-35.0,1,0.0,0.39190099999996164
763,1,0.8,1.0,-35.0,-1,1.0,0.41210099999989325
764,1,0.8,0.0625,-35.0,1,0.0,15.382200999999895
765,1,0.8,0.0,-35.0,1,0.0,0.5830009999999675
766,1,0.8,0.125,-35.0,-1,1.0,0.5099009999998998
767,1,0.8,0.0625,-35.0,1,0.0,9.453401000000213
768,1,0.8,0.25,-35.0,-1,1.0,0.9609009999999216
769,1,0.8,0.125,35.0,1,1.0,0.23090100000035818
770,1,0.8,1.0,-35.0,-1,1.0,0.6612009999998918
771,1,0.8,0.25,-35.0,-1,1.0,0.724800999999843
772,1,0.8,0.25,-35.0,-1,1.0,0.45820099999991726
773,1,0.8,1.0,-35.0,-1,1.0,0.6155009999997674
774,1,0.8,0.0625,-35.0,1,0.0,9.749100999999882
775,1,0.8,0.0,35.0,1,1.0,1.9896010000002207
776,1,0.8,0.0625,-35.0,-1,1.0,4.229800999999952
777,1,0.8,1.0,-35.0,-1,1.0,1.1934009999999944
778,1,0.8,0.125,-35.0,-1,1.0,2.8502009999997426
779,1,0.8,0.125,-35.0,-1,1.0,0.6504010000003291
780,1,0.8,0.0625,35.0,1,1.0,0.36060100000031525
781,1,0.8,0.25,-35.0,-1,1.0,7.190801000000192
782,1,0.8,0.25,-35.0,-1,1.0,0.42790100000001985
783,1,0.8,0.25,35.0,1,1.0,0.21820100000013554
784,1,0.8,0.25,-35.0,-1,1.0,1.7016010000002098
785,1,0.8,0.125,35.0,1,1.0,0.20850100000006933
786,1,0.8,0.0625,-35.0,1,0.0,2.1621009999998932
787,1,0.8,0.125,-35.0,1,0.0,3.899300999999923
788,1,0.8,0.0625,-35.0,-1,1.0,0.599601000000348
789,1,0.8,0.0,-35.0,1,0.0,0.2764009999996233
790,1,0.8,1.0,35.0,1,1.0,0.30330099999991944
791,1,0.8,0.0625,-35.0,-1,1.0,1.4202009999999063
792,1,0.8,1.0,35.0,1,1.0,0.19730099999969752
793,1,0.8,0.0,35.0,1,1.0,8.640701000000263
794,1,0.8,0.125,35.0,1,1.0,0.2612010000002556
795,1,0.8,0.25,-35.0,-1,1.0,1.0049010000002454
796,1,0.8,0.125,-35.0,-1,1.0,7.43840100000034
797,1,0.8,0.125,-35.0,-1,1.0,0.7857010000002447
798,1,0.8,1.0,-35.0,-1,1.0,0.46230100000002494
799,1,0.8,0.25,-35.0,-1,1.0,1.6025009999998474
800,1,0.8,0.125,-35.0,-1,1.0,2.0893009999999776
801,1,0.8,0.0625,35.0,1,1.0,0.2595010000000002
802,1,0.8,0.0625,-35.0,1,0.0,0.48630099999991216
803,1,0.8,0.25,-35.0,-1,1.0,0.5198009999999158
804,1,0.8,0.25,35.0,1,1.0,0.06670100000019374
805,1,0.8,0.125,35.0,1,1.0,0.35340099999984886
806,1,0.8,0.125,-35.0,-1,1.0,9.36370100000022
807,1,0.8,0.0,-35.0,-1,1.0,1.3908010000000104
808,1,0.8,0.125,-35.0,-1,1.0,1.594401000000289
809,1,0.8,0.0625,-35.0,1,0.0,1.924601000000166
810,1,0.8,0.0,-35.0,1,0.0,4.104800999999952
811,1,0.8,0.0625,-35.0,-1,1.0,0.6117010000002665
812,1,0.8,0.0625,-35.0,-1,1.0,3.8352010000003247
813,1,0.8,1.0,-35.0,-1,1.0,0.5289010000001326
814,1,0.8,0.0,-35.0,-1,1.0,5.585700999999972
815,1,0.8,0.125,35.0,1,1.0,0.24950099999978192
816,1,0.8,1.0,-35.0,-1,1.0,0.2728009999996175
817,1,0.8,1.0,-35.0,-1,1.0,0.36960099999987506
818,1,0.8,0.125,35.0,1,1.0,0.4031009999998787
819,1,0.8,1.0,35.0,1,1.0,0.2766009999995731
820,1,0.8,1.0,-35.0,-1,1.0,0.32370099999980084
821,1,0.2,0.125,-35.0,1,0.0,0.51390100000026
822,1,0.2,0.25,35.0,1,1.0,0.25720099999989543
823,1,0.2,0.25,-35.0,-1,1.0,1.037600999999995
824,1,0.2,0.0,35.0,-1,0.0,8.731100999999853
825,1,0.2,0.25,35.0,1,1.0,0.2516009999999369
826,1,0.2,0.125,35.0,1,1.0,0.4284010000001217
827,1,0.2,0.25,-35.0,-1,1.0,2.498501000000033
828,1,0.2,0.125,35.0,1,1.0,0.2654010000001108
829,1,0.2,0.0,35.0,-1,0.0,9.645700999999917
830,1,0.2,0.25,-35.0,-1,1.0,0.36290100000042
831,1,0.2,1.0,35.0,1,1.0,1.28970100000015
832,1,0.2,0.125,35.0,1,1.0,9.5399010000001
833,1,0.2,0.25,35.0,1,1.0,0.6538009999999304
834,1,0.2,0.125,35.0,1,1.0,0.43390099999987797
835,1,0.2,0.0625,35.0,-1,0.0,8.520700999999463
836,1,0.2,0.25,35.0,1,1.0,0.23490099999980885
837,1,0.2,0.25,35.0,1,1.0,0.2782009999996262
838,1,0.2,0.0625,35.0,-1,0.0,10.845001000000138
839,1,0.2,0.125,-35.0,-1,1.0,0.7989010000001144
840,1,0.2,1.0,35.0,1,1.0,0.6825009999997746
841,1,0.2,0.125,35.0,-1,0.0,20.702900999999656
842,1,0.2,0.25,-35.0,-1,1.0,11.483801000000312
843,1,0.2,0.25,35.0,1,1.0,0.5343009999996866
844,1,0.2,0.25,35.0,1,1.0,0.3245010000000548
845,1,0.2,1.0,35.0,1,1.0,0.2547000000004118
846,1,0.2,0.125,35.0,-1,0.0,7.758101000000352
847,1,0.2,0.25,-35.0,1,0.0,1.6085009999997055
848,1,0.2,0.25,35.0,1,1.0,2.2388010000004215
849,1,0.2,0.0625,35.0,-1,0.0,24.769000999999662
850,1,0.2,0.25,35.0,1,1.0,0.2535009999992326
851,1,0.2,0.0625,35.0,1,1.0,0.5671010000005481
852,1,0.2,1.0,35.0,1,1.0,0.7173009999996793
853,1,0.2,0.0,35.0,-1,0.0,0.34410099999968224
854,1,0.2,0.0625,35.0,1,1.0,0.7481010000001334
855,1,0.2,1.0,35.0,1,1.0,0.2314010000000053
856,1,0.2,0.0,35.0,-1,0.0,12.198301000000356
857,1,0.2,0.0625,35.0,1,1.0,0.395701000000372
858,1,0.2,0.0,35.0,1,1.0,6.465800999999374
859,1,0.2,1.0,35.0,1,1.0,0.2395010000000184
860,1,0.2,0.125,35.0,1,1.0,0.2664009999998598
861,1,0.2,0.0625,35.0,1,1.0,1.3998009999995702
862,1,0.2,0.0,35.0,-1,0.0,6.026600999999573
863,1,0.2,0.25,-35.0,-1,1.0,5.1171009999998205
864,1,0.2,0.25,35.0,1,1.0,0.694101000000046
865,1,0.2,0.0625,35.0,1,1.0,2.3912010000003647
866,1,0.2,0.0625,-35.0,-1,1.0,0.39480100000037055
867,1,0.2,0.25,35.0,1,1.0,0.6016010000003007
868,1,0.2,0.125,-35.0,1,0.0,1.6383009999999558
869,1,0.2,1.0,-35.0,-1,1.0,0.2552009999999427
870,1,0.2,1.0,35.0,1,1.0,0.42210099999920203
871,1,0.2,0.0,35.0,-1,0.0,11.27900099999988
872,1,0.2,0.25,35.0,1,1.0,5.062801000000036
873,1,0.2,1.0,35.0,1,1.0,0.24330100000042876
874,1,0.2,1.0,35.0,1,1.0,0.2402010000005248
875,1,0.2,0.0625,35.0,1,1.0,7.400400999999874
876,1,0.2,1.0,35.0,-1,0.0,0.49070099999971717
877,1,0.2,0.0625,35.0,-1,0.0,1.1843010000002323
878,1,0.2,0.125,35.0,1,1.0,3.2411010000005263
879,1,0.2,1.0,35.0,1,1.0,0.7247010000000955
880,1,0.2,1.0,35.0,1,1.0,0.24150099999951635
881,1,0.2,0.0,-35.0,-1,1.0,12.708600999999362
882,1,0.2,0.125,-35.0,1,0.0,0.885801000000356
883,1,0.2,0.25,-35.0,-1,1.0,0.8161009999994349
884,1,0.2,0.0,35.0,-1,0.0,3.1797010000009323
885,1,0.2,1.0,-35.0,-1,1.0,0.6099010000007183
886,1,0.2,0.25,35.0,1,1.0,3.0367009999999937
887,1,0.2,0.125,35.0,-1,0.0,0.6269009999996342
888,1,0.2,0.25,-35.0,1,0.0,0.12050100000033126
889,1,0.2,0.125,35.0,-1,0.0,0.5373010000002978
890,1,0.2,0.25,35.0,-1,0.0,8.057601000000432
891,1,0.2,1.0,35.0,1,1.0,0.3013010000004215
892,1,0.2,0.125,35.0,1,1.0,4.884801000000152
893,1,0.2,1.0,-35.0,-1,1.0,0.4185010000001057
894,1,0.2,0.125,35.0,-1,0.0,11.195600999999442
895,1,0.2,0.25,35.0,1,1.0,0.5763010000000577
896,1,0.2,0.0625,35.0,-1,0.0,0.6767009999994116
897,1,0.2,0.125,35.0,1,1.0,0.24340099999972153
898,1,0.2,1.0,35.0,1,1.0,0.2535010000001421
899,1,0.2,0.125,35.0,1,1.0,0.5837010000004739
900,1,0.2,0.125,-35.0,-1,1.0,17.107200999999804
901,1,0.2,0.25,35.0,-1,0.0,14.602101000000403
902,1,0.2,0.25,-35.0,-1,1.0,12.289600999999493
903,1,0.2,0.25,35.0,1,1.0,0.1534010000004855
904,1,0.2,0.0,-35.0,-1,1.0,0.7436009999992166
905,1,0.2,0.125,35.0,-1,0.0,3.0804010000001654
906,1,0.2,0.0625,35.0,1,1.0,14.344301000000087
907,1,0.2,0.25,35.0,-1,0.0,0.35840099999950326
908,1,0.2,0.125,35.0,1,1.0,16.165100999999595
909,1,0.2,0.125,35.0,-1,0.0,2.3659010000001217
910,1,0.2,1.0,35.0,1,1.0,0.6096010000001115
911,1,0.2,0.125,35.0,-1,0.0,0.20300099999985832
912,1,0.2,1.0,35.0,-1,0.0,10.450001000000157
913,1,0.2,1.0,35.0,-1,0.0,0.4439009999996415
914,1,0.2,1.0,35.0,1,1.0,0.6474010000001726
915,1,0.2,0.125,-35.0,-1,1.0,5.9976010000000315
916,1,0.2,0.125,35.0,-1,0.0,2.3815009999998438
917,1,0.2,0.125,-35.0,-1,1.0,6.001900999999634
918,1,0.2,1.0,35.0,1,1.0,0.3155010000000402
919,1,0.8,0.125,-35.0,1,0.0,3.672400999999809
920,1,0.8,0.25,-35.0,-1,1.0,22.545900999999503
921,1,0.8,1.0,-35.0,-1,1.0,0.34710099999938393
922,1,0.8,1.0,-35.0,-1,1.0,0.30040100000042
1,2,0.5,0.25,35.0,1,1.0,0.25049999999999983
2,2,0.5,0.25,35.0,1,1.0,0.24790000000000045
3,2,0.5,1.0,-35.0,-1,1.0,0.36499999999999844
4,2,0.5,0.25,-35.0,-1,1.0,0.39229999999999876
5,2,0.5,0.25,35.0,1,1.0,0.023899999999999366
6,2,0.5,1.0,35.0,1,1.0,0.1999999999999993
7,2,0.5,1.0,-35.0,-1,1.0,0.23519999999999897
8,2,0.5,0.0,-35.0,1,0.0,11.572000000000003
9,2,0.5,0.0625,35.0,1,1.0,1.9515999999999991
10,2,0.5,1.0,35.0,1,1.0,0.216700000000003
11,2,0.5,0.0,-35.0,1,0.0,0.3515000000000015
12,2,0.5,1.0,35.0,1,1.0,0.007099999999994111
13,2,0.5,1.0,35.0,1,1.0,0.27940000000000964
14,2,0.5,0.0625,-35.0,-1,1.0,0.09779999999999234
15,2,0.5,0.0625,35.0,-1,0.0,0.2325000000000017
16,2,0.5,1.0,-35.0,-1,1.0,0.24250000000000682
17,2,0.5,0.0625,-35.0,-1,1.0,0.6344000000000136
18,2,0.5,1.0,-35.0,-1,1.0,0.29470000000002017
19,2,0.5,0.125,-35.0,-1,1.0,0.5363000000000113
20,2,0.5,0.125,-35.0,-1,1.0,0.362000000000009
21,2,0.5,0.125,-35.0,-1,1.0,0.2675000000000125
22,2,0.5,0.25,-35.0,-1,1.0,0.4236000000000075
23,2,0.5,0.25,-35.0,-1,1.0,0.58659999999999
24,2,0.5,0.25,-35.0,-1,1.0,0.4146000000000072
25,2,0.5,0.25,35.0,1,1.0,0.2583000000000055
26,2,0.5,1.0,35.0,1,1.0,0.19640000000001123
27,2,0.5,1.0,35.0,1,1.0,0.24540000000001783
28,2,0.5,0.0625,35.0,1,1.0,0.29579999999999984
29,2,0.5,1.0,35.0,1,1.0,0.250899000000004
30,2,0.5,0.125,35.0,1,1.0,0.33840000000000714
31,2,0.5,0.0625,35.0,1,1.0,0.36119999999999663
32,2,0.5,0.0,-35.0,1,0.0,0.4350000000000307
33,2,0.5,0.25,35.0,1,1.0,0.2857999999999947
34,2,0.5,0.0625,-35.0,-1,1.0,0.4259999999999877
35,2,0.5,0.0,-35.0,1,0.0,0.23340000000001737
36,2,0.5,1.0,35.0,1,1.0,0.5025000000000261
37,2,0.5,1.0,35.0,1,1.0,0.24869999999998527
38,2,0.5,1.0,-35.0,-1,1.0,0.9173999999999864
39,2,0.5,0.0,35.0,1,1.0,0.2913000000000068
40,2,0.5,0.125,35.0,1,1.0,0.4712999999999852
41,2,0.5,0.125,-35.0,-1,1.0,1.5172999999999774
42,2,0.5,0.125,-35.0,-1,1.0,0.8127999999999815
43,2,0.5,0.25,35.0,1,1.0,0.3283999999999878
44,2,0.5,0.0,35.0,1,1.0,2.1449990000000128
45,2,0.5,0.0625,-35.0,-1,1.0,0.4475000000000193
46,2,0.5,0.0625,35.0,1,1.0,0.4036000000000115
47,2,0.5,0.25,35.0,1,1.0,0.30970000000002074
48,2,0.5,1.0,35.0,1,1.0,0.19559999999998468
49,2,0.5,0.25,35.0,1,1.0,0.4958000000000027
50,2,0.5,0.0,35.0,1,1.0,2.9995999999999867
51,2,0.5,0.0625,-35.0,-1,1.0,1.1409000000000162
52,2,0.5,0.0625,-35.0,-1,1.0,0.39910000000000423
53,2,0.5,0.125,35.0,1,1.0,1.56280000000001
54,2,0.5,1.0,35.0,1,1.0,0.2488999999999919
55,2,0.5,0.0625,35.0,1,1.0,0.25670000000002346
56,2,0.5,0.0,-35.0,-1,1.0,3.007800000000003
57,2,0.5,0.125,35.0,1,1.0,0.2822000000000173
58,2,0.5,0.0,35.0,-1,0.0,4.703199999999953
59,2,0.5,1.0,35.0,1,1.0,0.22019999999997708
60,2,0.5,0.0625,35.0,1,1.0,0.1782999999999788
61,2,0.5,0.25,-35.0,-1,1.0,0.4416999999999689
62,2,0.5,0.125,-35.0,-1,1.0,0.35700000000002774
63,2,0.5,0.125,35.0,1,1.0,0.05829999999997426
64,2,0.5,0.25,35.0,1,1.0,0.3513999999999555
65,2,0.5,1.0,35.0,1,1.0,0.4679999999999609
66,2,0.5,0.0625,-35.0,-1,1.0,1.0710999999999444
67,2,0.5,0.25,35.0,1,1.0,0.3150999999999726
68,2,0.5,1.0,-35.0,-1,1.0,0.3546000000000049
69,2,0.5,0.25,-35.0,-1,1.0,0.2529999999999859
70,2,0.5,0.0625,-35.0,-1,1.0,1.743599999999958
71,2,0.5,0.125,-35.0,-1,1.0,0.3236999999999739
72,2,0.5,0.0,35.0,1,1.0,0.24670000000003256
73,2,0.5,0.125,35.0,1,1.0,0.2746000000000208
74,2,0.5,1.0,35.0,1,1.0,0.09349999999994907
75,2,0.5,0.125,35.0,1,1.0,0.27219999999994116
76,2,0.5,1.0,35.0,1,1.0,0.43479999999999563
77,2,0.5,1.0,35.0,1,1.0,0.5258999999999787
78,2,0.5,0.125,-35.0,-1,1.0,0.43739999999996826
79,2,0.5,0.125,35.0,1,1.0,0.27199999999999136
80,2,0.5,0.25,-35.0,-1,1.0,0.2949999999999591
81,2,0.5,0.25,35.0,1,1.0,0.3499999999999659
82,2,0.5,0.0625,-35.0,-1,1.0,0.449799999999982
83,2,0.5,1.0,35.0,1,1.0,0.2146999999999366
84,2,0.5,0.125,-35.0,-1,1.0,0.4006999999999721
85,2,0.5,1.0,35.0,1,1.0,0.4268000000000143
86,2,0.5,0.25,35.0,1,1.0,0.47919999999999163
87,2,0.5,0.0,35.0,1,1.0,-0.02230000000002974
88,2,0.5,0.25,35.0,1,1.0,-0.0007000000000516593
89,2,0.5,0.125,-35.0,-1,1.0,1.3092000000000326
90,2,0.5,0.0625,35.0,-1,0.0,0.9214000000000055
91,2,0.8,0.0,35.0,-1,0.0,1.4164999999999281
92,2,0.8,0.0625,-35.0,-1,1.0,0.4253999999999678
93,2,0.8,0.25,-35.0,-1,1.0,0.3353999999999928
94,2,0.8,1.0,-35.0,-1,1.0,0.2615000000000123
95,2,0.8,0.125,-35.0,-1,1.0,0.3290989999999283
96,2,0.8,0.25,-35.0,-1,1.0,0.19089999999994234
97,2,0.8,0.0625,35.0,-1,0.0,2.232599999999934
98,2,0.8,0.0625,-35.0,1,0.0,0.2074999999999818
99,2,0.8,0.125,35.0,1,1.0,0.5103999999999473
100,2,0.8,0.25,-35.0,-1,1.0,0.36220000000002983
101,2,0.8,1.0,-35.0,-1,1.0,0.5550000000000068
102,2,0.8,0.0625,-35.0,1,0.0,2.487799999999993
103,2,0.8,0.25,-35.0,-1,1.0,0.21779999999995425
104,2,0.8,0.25,-35.0,-1,1.0,0.2989000000000033
105,2,0.8,1.0,-35.0,-1,1.0,0.432899999999961
106,2,0.8,0.125,-35.0,-1,1.0,0.4390000000000214
107,2,0.8,0.125,35.0,1,1.0,0.647899999999936
108,2,0.8,1.0,-35.0,-1,1.0,0.26200000000000045
109,2,0.8,0.0625,-35.0,1,0.0,3.576599999999985
110,2,0.8,1.0,-35.0,-1,1.0,0.272199999999998
111,2,0.8,1.0,-35.0,-1,1.0,0.23799999999999955
112,2,0.8,1.0,-35.0,-1,1.0,0.3188000000000102
113,2,0.8,1.0,-35.0,-1,1.0,0.26119999999991705
114,2,0.2,1.0,35.0,1,1.0,0.4329999999999927
115,2,0.2,1.0,35.0,1,1.0,0.31689999999997553
116,2,0.2,0.0625,-35.0,-1,1.0,2.419399999999996
117,2,0.2,0.0,35.0,1,1.0,2.308499999999924
118,2,0.2,0.0625,35.0,1,1.0,0.37479999999999336
119,2,0.2,0.25,35.0,1,1.0,0.36139999999994643
120,2,0.2,0.25,35.0,1,1.0,0.4393999999999778
121,2,0.2,0.0,35.0,-1,0.0,4.970399999999927
122,2,0.2,1.0,35.0,1,1.0,0.37709999999998445
123,2,0.2,1.0,35.0,1,1.0,0.11730000000000018
124,2,0.2,0.25,-35.0,-1,1.0,0.4224999999999568
125,2,0.2,0.125,35.0,1,1.0,0.2525999999999726
126,2,0.2,0.0,35.0,1,1.0,0.49879999999996016
127,2,0.2,0.25,35.0,-1,0.0,3.3693000000000666
128,2,0.2,0.25,35.0,1,1.0,0.4516999999999598
129,2,0.2,0.25,35.0,1,1.0,0.36390000000005784
130,2,0.2,0.0,35.0,1,1.0,0.30570000000000164
131,2,0.2,1.0,35.0,1,1.0,0.1994999999999436
132,2,0.2,0.0625,35.0,1,1.0,0.7066999999999553
133,2,0.2,0.125,35.0,1,1.0,3.9858999999999014
134,2,0.2,1.0,-35.0,-1,1.0,0.3908999999999878
135,2,0.2,0.0,35.0,1,1.0,0.27099999999995816
136,2,0.2,0.25,-35.0,-1,1.0,0.37619999999992615
137,2,0.8,0.125,-35.0,-1,1.0,0.5885999999999285
138,2,0.8,0.0625,-35.0,-1,1.0,0.4600999999998976
139,2,0.8,0.0,-35.0,1,0.0,0.3266999999999598
140,2,0.8,0.0625,35.0,1,1.0,0.29120000000000346
141,2,0.8,0.125,-35.0,-1,1.0,0.4401999999998907
142,2,0.8,0.0625,35.0,1,1.0,0.3511999999998352
143,2,0.8,0.0625,-35.0,-1,1.0,0.49919999999997344
144,2,0.8,0.0625,-35.0,-1,1.0,0.35019999999997253
145,2,0.8,0.125,35.0,1,1.0,0.26880000000005566
146,2,0.8,1.0,-35.0,-1,1.0,0.3487999999999829
147,2,0.8,0.125,-35.0,-1,1.0,0.35370000000011714
148,2,0.8,0.25,-35.0,-1,1.0,0.4533999999999878
149,2,0.8,0.25,-35.0,-1,1.0,0.3404000000000451
150,2,0.8,1.0,-35.0,-1,1.0,0.28139999999984866
151,2,0.8,0.0625,-35.0,1,0.0,0.3403999999999314
152,2,0.8,0.25,-35.0,-1,1.0,0.3877999999998565
153,2,0.8,0.0625,35.0,1,1.0,0.3968999999999596
154,2,0.8,0.125,-35.0,-1,1.0,0.3494999999999209
155,2,0.8,1.0,-35.0,-1,1.0,0.3997999999999138
156,2,0.8,0.0,35.0,1,1.0,0.2536000000000058
157,2,0.8,0.25,-35.0,-1,1.0,0.2725999999998976
158,2,0.8,0.25,-35.0,-1,1.0,0.3464999999999918
159,2,0.8,0.0,-35.0,1,0.0,0.2866999999999962
160,2,0.8,0.0625,-35.0,-1,1.0,0.13829999999995835
161,2,0.8,0.125,-35.0,-1,1.0,0.3126999999999498
162,2,0.8,0.0625,-35.0,-1,1.0,0.32589999999993324
163,2,0.8,0.0,-35.0,1,0.0,0.48279999999999745
164,2,0.8,0.25,-35.0,-1,1.0,0.5811999999999671
165,2,0.8,0.25,-35.0,-1,1.0,0.3268000000000484
166,2,0.8,0.0625,35.0,1,1.0,0.3793999999999187
167,2,0.8,0.25,35.0,1,1.0,0.22439999999994598
168,2,0.8,0.0625,-35.0,-1,1.0,0.36360000000001946
169,2,0.8,1.0,35.0,1,1.0,0.2039999999999509
170,2,0.8,0.0625,-35.0,-1,1.0,0.5776999999999362
171,2,0.8,0.25,35.0,1,1.0,0.2636999999999716
172,2,0.8,1.0,-35.0,-1,1.0,0.27120000000002165
173,2,0.8,1.0,35.0,1,1.0,0.31589999999994234
174,2,0.8,0.0625,-35.0,-1,1.0,0.4220999999998867
175,2,0.8,0.0625,35.0,1,1.0,0.2319999999999709
176,2,0.8,1.0,-35.0,-1,1.0,0.5841000000000349
177,2,0.8,0.0,-35.0,1,0.0,0.05769999999995434
178,2,0.8,0.125,-35.0,-1,1.0,0.26309999999989486
179,2,0.8,1.0,-35.0,-1,1.0,0.2931989999999587
180,2,0.8,1.0,-35.0,-1,1.0,0.8134999999998627
181,2,0.8,0.25,-35.0,-1,1.0,0.19309999999995853
182,2,0.8,0.0625,-35.0,-1,1.0,0.33429999999987103
183,2,0.8,0.0625,35.0,1,1.0,0.20079999999995835
184,2,0.8,0.25,-35.0,-1,1.0,0.27520000000004075
185,2,0.8,0.125,-35.0,-1,1.0,0.6784000000000106
186,2,0.8,0.0,-35.0,-1,1.0,0.6043999999999414
187,2,0.8,0.0625,35.0,-1,0.0,1.9814999999999827
188,2,0.8,1.0,-35.0,-1,1.0,0.30750000000000455
189,2,0.8,0.25,-35.0,-1,1.0,0.36789999999996326
190,2,0.8,0.25,35.0,1,1.0,0.21550000000002
191,2,0.8,0.0625,35.0,1,1.0,0.35359999999991487
192,2,0.8,0.0625,-35.0,1,0.0,0.22299999999995634
193,2,0.8,0.0625,-35.0,-1,1.0,0.5985999999999194
194,2,0.8,0.125,-35.0,-1,1.0,0.3346999999998843
195,2,0.8,0.125,-35.0,-1,1.0,0.4100999999998294
196,2,0.8,0.125,35.0,1,1.0,0.28779999999994743
197,2,0.8,0.25,35.0,1,1.0,0.20679999999993015
198,2,0.8,0.125,-35.0,1,0.0,-0.0198000000001457
199,2,0.8,0.125,-35.0,-1,1.0,0.5138999999999214
200,2,0.8,0.125,-35.0,-1,1.0,0.29700000000002547
201,2,0.8,0.0625,-35.0,-1,1.0,0.7513000000000147
202,2,0.8,1.0,35.0,1,1.0,0.1914999999999054
203,2,0.8,0.0625,-35.0,-1,1.0,0.15300000000002
204,2,0.8,0.0625,35.0,1,1.0,0.28899999999998727
205,2,0.8,0.0625,-35.0,-1,1.0,0.2220999999999549
206,2,0.8,0.25,-35.0,-1,1.0,0.39009999999996126
207,2,0.8,0.25,-35.0,-1,1.0,0.3611000000000786
208,2,0.8,1.0,-35.0,-1,1.0,0.35179999999991196
209,2,0.8,1.0,-35.0,-1,1.0,0.28110000000003765
210,2,0.8,0.25,35.0,1,1.0,0.22519999999997253
211,2,0.2,0.25,35.0,1,1.0,0.33199999999999363
212,2,0.2,0.25,35.0,1,1.0,0.7448000000000548
213,2,0.2,0.0625,35.0,1,1.0,0.5149999999999864
214,2,0.2,0.25,35.0,1,1.0,0.3712999999999056
215,2,0.2,0.125,35.0,1,1.0,0.33539999999993597
216,2,0.2,0.125,35.0,-1,0.0,2.042500000000018
217,2,0.2,0.0625,35.0,1,1.0,0.3953999999999951
218,2,0.2,0.25,35.0,1,1.0,0.3005000000000564
219,2,0.2,0.25,35.0,1,1.0,0.5195000000001073
220,2,0.2,0.0625,-35.0,-1,1.0,0.36159999999995307
221,2,0.2,1.0,35.0,1,1.0,0.6345000000000027
222,2,0.2,1.0,-35.0,-1,1.0,-0.011100000000055843
223,2,0.2,0.0,35.0,1,1.0,1.604600000000005
224,2,0.2,0.25,-35.0,-1,1.0,0.3549000000000433
225,2,0.2,1.0,35.0,1,1.0,0.48730000000000473
226,2,0.2,0.125,-35.0,-1,1.0,0.35969999999997526
227,2,0.2,0.125,35.0,1,1.0,0.44029999999997926
228,2,0.2,0.25,35.0,1,1.0,0.5823999999998932
229,2,0.2,1.0,-35.0,-1,1.0,0.34980000000007294
230,2,0.2,0.125,35.0,1,1.0,0.4899000000000342
231,2,0.2,0.25,35.0,1,1.0,0.3051999999998998
232,2,0.2,1.0,35.0,1,1.0,0.4634999999999536
233,2,0.2,0.0625,35.0,1,1.0,0.5498999999999796
234,2,0.2,0.125,-35.0,1,0.0,3.8795999999998685
235,2,0.2,0.25,-35.0,-1,1.0,0.63149999999996
236,2,0.2,0.25,35.0,1,1.0,0.2938000000000329
237,2,0.2,0.25,35.0,1,1.0,0.28500000000008185
238,2,0.2,0.0625,35.0,1,1.0,0.2963999999999487
239,2,0.2,1.0,35.0,1,1.0,0.2480999999999085
240,2,0.2,1.0,35.0,1,1.0,6.0540999999999485
241,2,0.2,0.25,35.0,1,1.0,-0.08150000000011914
242,2,0.2,0.25,-35.0,-1,1.0,0.31520000000000437
243,2,0.2,1.0,35.0,1,1.0,6.7403000000000475
244,2,0.2,0.25,35.0,-1,0.0,0.7572999999998729
245,2,0.2,0.0625,35.0,1,1.0,0.2880000000000109
246,2,0.2,1.0,35.0,1,1.0,0.20139999999992142
247,2,0.2,0.125,-35.0,-1,1.0,0.4290999999999485
248,2,0.2,0.25,35.0,1,1.0,0.23220000000003438
249,2,0.2,0.125,35.0,1,1.0,0.27549999999996544
250,2,0.2,0.125,35.0,1,1.0,0.706299999999942
251,2,0.2,0.0625,35.0,1,1.0,0.31349999999997635
252,2,0.2,0.25,35.0,1,1.0,0.4712000000000671
253,2,0.2,0.25,35.0,1,1.0,-0.005600000000072214
254,2,0.2,0.0,35.0,1,1.0,1.4419000000000324
255,2,0.2,0.125,35.0,1,1.0,0.261600000000044
256,2,0.2,0.25,35.0,1,1.0,0.28359999999997854
257,2,0.2,0.25,35.0,1,1.0,0.23469999999997526
258,2,0.2,0.0625,35.0,1,1.0,0.27319999999986067
259,2,0.2,0.25,35.0,1,1.0,2.1107999999999265
260,2,0.2,0.0625,35.0,1,1.0,0.35399999999992815
261,2,0.2,0.125,35.0,1,1.0,0.2676999999999907
262,2,0.2,1.0,35.0,1,1.0,0.4379000000000133
263,2,0.2,0.0625,35.0,1,1.0,0.8513999999998987
264,2,0.2,0.0625,-35.0,1,0.0,3.7672999999999774
265,2,0.2,1.0,35.0,1,1.0,0.2239999999999327
266,2,0.2,0.125,-35.0,-1,1.0,0.3946000000000822
267,2,0.2,0.0,35.0,-1,0.0,1.2533999999999423
268,2,0.2,0.25,-35.0,-1,1.0,0.3329000000001088
269,2,0.2,0.0,35.0,1,1.0,1.2072000000000571
270,2,0.2,0.25,35.0,1,1.0,0.2682000000002063
271,2,0.2,0.125,35.0,1,1.0,0.3291999999999007
272,2,0.2,0.25,35.0,1,1.0,0.49919999999997344
273,2,0.2,0.25,-35.0,-1,1.0,0.5792000000001281
274,2,0.2,0.0625,35.0,1,1.0,0.36629999999991014
275,2,0.2,0.0,35.0,1,1.0,0.37429999999994834
276,2,0.2,1.0,35.0,1,1.0,0.3020000000001346
277,2,0.2,1.0,35.0,1,1.0,0.7773999999999432
278,2,0.2,1.0,-35.0,-1,1.0,0.42449999999985266
279,2,0.2,0.0625,-35.0,-1,1.0,0.8016000000000076
280,2,0.2,0.125,-35.0,-1,1.0,0.19089999999982865
281,2,0.2,0.25,35.0,1,1.0,0.39239999999995234
282,2,0.2,0.25,35.0,1,1.0,0.2587999999998374
283,2,0.2,0.0625,35.0,1,1.0,0.48250000000007276
284,2,0.2,1.0,35.0,1,1.0,0.3755999999998494
285,2,0.2,0.0625,35.0,1,1.0,0.5443000000002485
286,2,0.2,0.25,35.0,1,1.0,0.24360000000001492
287,2,0.8,0.125,-35.0,-1,1.0,0.644800000000032
288,2,0.8,0.25,35.0,1,1.0,0.9057999999999993
289,2,0.8,1.0,-35.0,-1,1.0,-0.016299999999773718
290,2,0.8,1.0,-35.0,-1,1.0,0.24090000000001055
291,2,0.8,0.25,35.0,1,1.0,-0.0679000000002361
292,2,0.8,0.0,-35.0,-1,1.0,1.9476999999999407
293,2,0.8,0.0,-35.0,-1,1.0,0.35639999999989413
294,2,0.8,0.25,35.0,-1,0.0,0.6548999999999978
295,2,0.8,0.125,-35.0,-1,1.0,0.3849000000002434
296,2,0.8,0.25,-35.0,-1,1.0,0.2497000000000753
297,2,0.8,0.0625,-35.0,-1,1.0,0.4015999999999167
298,2,0.8,0.0625,-35.0,1,0.0,0.4206000000001495
299,2,0.8,1.0,-35.0,-1,1.0,0.30399999999985994
300,2,0.8,0.25,-35.0,-1,1.0,0.2929999999998927
301,2,0.8,1.0,-35.0,-1,1.0,0.2804000000000997
302,2,0.8,0.25,35.0,1,1.0,0.25310000000013133
303,2,0.8,0.0625,-35.0,-1,1.0,0.10849999999982174
304,2,0.8,1.0,-35.0,1,0.0,-0.0079000000000633
305,2,0.8,0.0625,-35.0,1,0.0,1.7513000000001284
306,2,0.8,0.125,35.0,1,1.0,0.4214000000001761
307,2,0.8,0.0,-35.0,1,0.0,0.550499999999829
308,2,0.8,0.125,-35.0,-1,1.0,0.31930000000011205
309,2,0.8,0.0,-35.0,1,0.0,0.7623000000000957
310,2,0.8,0.0625,-35.0,-1,1.0,0.4522999999999229
311,2,0.8,0.125,-35.0,-1,1.0,-0.006399999999757711
312,2,0.8,0.125,-35.0,-1,1.0,0.8873999999998432
313,2,0.8,0.125,-35.0,-1,1.0,0.5810999999998785
314,2,0.8,0.0625,-35.0,-1,1.0,0.1934000000001106
315,2,0.8,0.25,35.0,-1,0.0,0.4434000000001106
316,2,0.8,0.25,35.0,1,1.0,0.2864999999999327
317,2,0.8,0.0,-35.0,-1,1.0,1.0045000000002346
318,2,0.8,0.0,-35.0,-1,1.0,1.7674999999999272
319,2,0.8,1.0,-35.0,-1,1.0,0.5695999999998094
320,2,0.8,0.125,-35.0,-1,1.0,0.6412000000000262
321,2,0.8,0.125,-35.0,-1,1.0,0.37409999999999854
322,2,0.8,0.25,-35.0,-1,1.0,0.389699999999948
323,2,0.8,0.25,-35.0,-1,1.0,0.23290000000019973
324,2,0.8,0.25,-35.0,-1,1.0,0.39980000000014115
325,2,0.8,1.0,35.0,1,1.0,0.19910000000004402
326,2,0.8,0.0,-35.0,1,0.0,5.2590000000000146
327,2,0.8,1.0,-35.0,-1,1.0,0.4581999999998061
328,2,0.8,0.25,35.0,1,1.0,0.2788999999997941
329,2,0.8,0.125,-35.0,-1,1.0,0.6929000000000087
330,2,0.8,0.25,-35.0,-1,1.0,0.5280999999999949
331,2,0.8,0.0625,35.0,1,1.0,0.2740999999998621
332,2,0.8,0.0625,-35.0,-1,1.0,0.40130000000021937
333,2,0.8,0.125,-35.0,-1,1.0,0.5260000000000673
334,2,0.8,0.25,-35.0,-1,1.0,0.46100000000001273
335,2,0.8,0.25,-35.0,-1,1.0,0.33209999999985484
336,2,0.8,0.25,-35.0,-1,1.0,0.4411000000000058
337,2,0.8,1.0,35.0,1,1.0,0.5516999999999825
338,2,0.8,0.125,-35.0,-1,1.0,0.27680000000009386
339,2,0.8,0.125,-35.0,1,0.0,0.15200000000004366
340,2,0.8,0.0,-35.0,1,0.0,0.29320000000006985
341,2,0.8,0.125,-35.0,-1,1.0,0.31130000000007385
342,2,0.8,1.0,-35.0,-1,1.0,0.2817000000000007
343,2,0.8,1.0,35.0,1,1.0,0.22550000000001091
344,2,0.8,0.125,-35.0,-1,1.0,0.5523000000000593
345,2,0.8,0.0,-35.0,1,0.0,1.9558999999999287
346,2,0.8,0.125,-35.0,1,0.0,1.5390999999999622
347,2,0.8,1.0,-35.0,-1,1.0,0.27480000000014115
348,2,0.8,0.0625,-35.0,-1,1.0,0.4317000000000917
349,2,0.8,0.0,35.0,-1,0.0,5.831499999999778
350,2,0.8,0.0625,-35.0,-1,1.0,0.399599999999964
351,2,0.8,0.25,-35.0,-1,1.0,0.28490000000010696
352,2,0.8,0.25,-35.0,-1,1.0,0.5451999999997952
353,2,0.8,0.25,-35.0,-1,1.0,0.7216000000000804
354,2,0.8,0.0625,-35.0,-1,1.0,0.4714999999998781
355,2,0.8,0.0625,-35.0,-1,1.0,0.300899999999956
356,2,0.8,0.125,-35.0,-1,1.0,0.2960000000000491
357,2,0.8,0.25,-35.0,-1,1.0,0.4578000000001339
358,2,0.8,0.25,-35.0,-1,1.0,0.07839999999987413
359,2,0.8,0.0625,-35.0,-1,1.0,0.4738000000002103
360,2,0.8,0.125,35.0,1,1.0,0.2232000000001335
361,2,0.8,0.25,-35.0,-1,1.0,0.4519000000000233
362,2,0.8,0.0625,-35.0,1,0.0,0.23859999999990578
363,2,0.8,0.25,35.0,1,1.0,0.22290000000020882
364,2,0.8,1.0,-35.0,-1,1.0,0.32100000000014006
365,2,0.8,0.125,-35.0,-1,1.0,0.5223999999998341
366,2,0.2,1.0,-35.0,-1,1.0,0.46879999999987376
367,2,0.2,0.0625,35.0,1,1.0,0.3125
368,2,0.2,0.0625,35.0,-1,0.0,0.36809999999991305
369,2,0.2,0.0,-35.0,1,0.0,0.303599999999733
370,2,0.2,0.0625,35.0,1,1.0,0.36750000000006366
371,2,0.2,0.0625,35.0,1,1.0,0.368900000000167
372,2,0.2,0.25,35.0,1,1.0,0.22119999999995343
373,2,0.2,1.0,35.0,1,1.0,0.23430000000007567
374,2,0.2,0.125,35.0,1,1.0,0.47929999999996653
375,2,0.2,1.0,-35.0,-1,1.0,0.2875000000001364
376,2,0.2,1.0,35.0,1,1.0,-0.020099999999956708
377,2,0.2,0.25,-35.0,-1,1.0,0.29140000000006694
378,2,0.2,0.25,35.0,1,1.0,0.3894000000000233
379,2,0.2,0.25,-35.0,-1,1.0,0.6007999999999356
380,2,0.2,1.0,-35.0,-1,1.0,0.38439999999991414
381,2,0.2,0.0625,35.0,1,1.0,0.3088999999999942
382,2,0.2,0.0625,35.0,1,1.0,0.29939999999987776
383,2,0.2,1.0,35.0,1,1.0,0.4596000000001368
384,2,0.2,1.0,35.0,1,1.0,0.7566000000001623
385,2,0.2,1.0,35.0,1,1.0,0.16779999999994288
386,2,0.2,0.0625,35.0,-1,0.0,1.0416000000000167
387,2,0.2,0.25,35.0,1,1.0,0.08279999999967913
388,2,0.2,0.0625,-35.0,1,0.0,0.1896999999999025
389,2,0.2,1.0,-35.0,-1,1.0,0.4213000000002012
390,2,0.2,0.125,35.0,1,1.0,0.22079999999982647
391,2,0.2,0.0625,-35.0,1,0.0,0.07699999999999818
392,2,0.2,0.25,-35.0,-1,1.0,0.4833000000000993
393,2,0.2,0.25,35.0,1,1.0,0.2578999999998359
394,2,0.2,0.125,35.0,1,1.0,0.2018999999997959
395,2,0.2,0.125,35.0,1,1.0,0.2825000000000273
396,2,0.2,1.0,35.0,1,1.0,1.139699999999948
397,2,0.2,0.25,-35.0,-1,1.0,3.520999999999958
398,2,0.2,0.25,35.0,1,1.0,0.3260999999999967
399,2,0.2,1.0,35.0,1,1.0,0.2703999999998814
400,2,0.2,0.25,35.0,1,1.0,0.2907000000000153
401,2,0.2,0.25,-35.0,-1,1.0,0.38409999999998945
402,2,0.2,1.0,35.0,1,1.0,0.4154000000000906
403,2,0.2,0.125,35.0,1,1.0,0.49509999999986576
404,2,0.8,1.0,-35.0,-1,1.0,0.35320000000024265
405,2,0.8,1.0,-35.0,-1,1.0,0.22420000000010987
406,2,0.8,0.25,-35.0,-1,1.0,0.34350000000017644
407,2,0.8,0.0625,-35.0,-1,1.0,0.6032999999999902
408,2,0.8,0.25,-35.0,-1,1.0,0.3362999999999374
409,2,0.8,0.25,35.0,1,1.0,0.3034000000002379
410,2,0.8,0.0625,-35.0,-1,1.0,3.019399999999905
411,2,0.8,0.0625,-35.0,-1,1.0,-0.02130000000011023
412,2,0.8,0.25,-35.0,-1,1.0,0.18639999999982138
413,2,0.8,1.0,-35.0,-1,1.0,0.2807999999999993
414,2,0.8,0.125,-35.0,-1,1.0,0.6450999999999567
415,2,0.8,0.125,-35.0,-1,1.0,0.5324000000000524
416,2,0.8,0.0625,-35.0,-1,1.0,0.0781000000001768
417,2,0.8,0.125,-35.0,-1,1.0,0.3390999999999167
418,2,0.8,1.0,-35.0,-1,1.0,0.27139999999985776
419,2,0.8,0.125,-35.0,-1,1.0,0.40439999999989595
420,2,0.8,0.25,-35.0,-1,1.0,0.3648000000000593
421,2,0.8,0.125,-35.0,-1,1.0,0.2950999999998203
422,2,0.8,0.125,-35.0,-1,1.0,0.6097999999999502
423,2,0.8,0.125,-35.0,-1,1.0,0.2897000000000389
424,2,0.8,0.125,-35.0,-1,1.0,0.555699999999888
425,2,0.8,0.125,-35.0,-1,1.0,0.3630999999998039
426,2,0.2,0.25,-35.0,-1,1.0,0.33209999999985484
427,2,0.2,1.0,35.0,1,1.0,0.409099999999853
428,2,0.2,0.125,-35.0,-1,1.0,0.49040000000013606
429,2,0.2,1.0,35.0,1,1.0,0.2237999999999829
430,2,0.2,0.25,-35.0,1,0.0,0.5783000000001266
431,2,0.2,0.25,-35.0,-1,1.0,0.3734999999999218
432,2,0.2,1.0,-35.0,-1,1.0,0.6168999999999869
433,2,0.2,0.125,35.0,1,1.0,0.5886000000000422
434,2,0.2,0.0625,35.0,1,1.0,0.2765999999999167
435,2,0.2,0.0625,35.0,1,1.0,0.4010000000000673
436,2,0.2,0.0,35.0,1,1.0,1.4406999999998789
437,2,0.2,0.0625,35.0,1,1.0,0.36410000000000764
438,2,0.2,0.0,35.0,1,1.0,1.2040999999999258
439,2,0.2,0.0,35.0,-1,0.0,0.8221000000000913
440,2,0.2,0.125,35.0,1,1.0,0.5880999999999403
441,2,0.2,0.25,35.0,1,1.0,0.4459999999999127
442,2,0.2,1.0,35.0,1,1.0,0.32619999999974425
443,2,0.2,0.25,35.0,1,1.0,0.2033000000001266
444,2,0.2,1.0,35.0,1,1.0,0.20509999999990214
445,2,0.2,0.0625,35.0,1,1.0,0.44800000000009277
446,2,0.2,0.25,-35.0,-1,1.0,6.118099999999913
447,2,0.2,0.125,35.0,1,1.0,0.3443999999999505
448,2,0.2,0.0625,35.0,1,1.0,0.32590000000004693
449,2,0.2,0.25,35.0,1,1.0,1.008100000000013
450,2,0.2,0.0625,-35.0,-1,1.0,3.844500000000153
451,2,0.2,0.25,35.0,1,1.0,0.3143999999999778
452,2,0.2,1.0,35.0,1,1.0,0.2665999999999258
453,2,0.2,1.0,-35.0,-1,1.0,0.6476999999997588
454,2,0.2,1.0,35.0,1,1.0,0.18650000000025102
455,2,0.2,0.25,35.0,1,1.0,0.22460000000000946
456,2,0.2,1.0,35.0,1,1.0,0.2156999999999698
457,2,0.2,0.125,35.0,1,1.0,0.3166999999998552
458,2,0.2,0.125,35.0,1,1.0,0.505699999999706
459,2,0.2,0.25,-35.0,-1,1.0,0.45669999999995525
460,2,0.2,0.0625,-35.0,-1,1.0,0.3713999999999942
461,2,0.8,0.0,35.0,-1,0.0,0.881800000000112
462,2,0.8,0.0,-35.0,1,0.0,1.1588000000001557
463,2,0.8,0.125,35.0,1,1.0,0.31569999999987886
464,2,0.8,0.25,-35.0,-1,1.0,0.4922999999998865
465,2,0.8,1.0,35.0,1,1.0,0.5238999999999123
466,2,0.8,0.0,35.0,-1,0.0,2.3072000000001935
467,2,0.8,0.25,-35.0,-1,1.0,0.6321000000000367
468,2,0.8,0.0625,-35.0,-1,1.0,0.40990000000010696
469,2,0.8,0.25,-35.0,-1,1.0,0.41609999999991487
470,2,0.8,1.0,-35.0,-1,1.0,0.2806000000000495
471,2,0.8,0.125,-35.0,1,0.0,0.08050000000025648
472,2,0.8,0.25,-35.0,-1,1.0,0.25319999999987886
473,2,0.8,0.0,-35.0,1,0.0,0.6976999999999407
474,2,0.8,0.25,35.0,1,1.0,0.25520000000005894
475,2,0.8,0.125,-35.0,-1,1.0,0.47660000000018954
476,2,0.8,1.0,-35.0,-1,1.0,0.3352999999999611
477,2,0.8,0.125,-35.0,-1,1.0,0.36439999999993233
478,2,0.8,0.125,-35.0,-1,1.0,0.539299999999912
479,2,0.8,0.25,-35.0,-1,1.0,0.6477999999999611
480,2,0.8,1.0,-35.0,-1,1.0,0.5894000000000688
481,2,0.8,0.0625,-35.0,-1,1.0,0.4133999999999105
482,2,0.8,0.25,-35.0,-1,1.0,0.3283999999998741
483,2,0.8,0.125,-35.0,-1,1.0,0.3725000000001728
484,2,0.8,0.25,-35.0,-1,1.0,0.32189999999991414
485,2,0.8,0.125,-35.0,-1,1.0,0.33599999999978536
486,2,0.8,0.125,-35.0,-1,1.0,0.356899999999996
487,2,0.8,1.0,-35.0,-1,1.0,0.7426000000000386
488,2,0.8,0.0,-35.0,1,0.0,2.9381999999998243
489,2,0.8,0.0625,-35.0,1,0.0,1.0312000000001262
490,2,0.8,0.0,-35.0,-1,1.0,1.2122999999999138
491,2,0.8,1.0,-35.0,-1,1.0,0.422800000000052
492,2,0.8,0.125,-35.0,-1,1.0,0.5590000000001965
493,2,0.8,0.125,-35.0,-1,1.0,0.40360000000009677
494,2,0.8,0.0625,-35.0,-1,1.0,0.792699999999968
495,2,0.8,0.25,-35.0,-1,1.0,0.24260000000003856
496,2,0.8,0.0625,-35.0,1,0.0,0.24060000000008586
497,2,0.8,0.0,-35.0,-1,1.0,1.2916999999999916
498,2,0.8,0.0625,-35.0,-1,1.0,0.843199999999797
499,2,0.8,0.25,35.0,1,1.0,0.35540000000014516
500,2,0.8,0.0625,-35.0,-1,1.0,1.3508999999999105
501,2,0.8,0.0625,-35.0,1,0.0,1.3415999999999713
502,2,0.8,0.0,-35.0,-1,1.0,0.9959999999998672
503,2,0.8,0.0625,35.0,1,1.0,0.3727999999998701
504,2,0.8,0.0,-35.0,-1,1.0,0.5455999999999221
505,2,0.8,0.0,-35.0,-1,1.0,2.314100000000053
506,2,0.8,0.125,35.0,1,1.0,0.274199999999837
507,2,0.8,1.0,-35.0,-1,1.0,0.467200000000048
508,2,0.8,0.25,35.0,-1,0.0,0.42239999999992506
509,2,0.2,0.125,-35.0,-1,1.0,0.3141000000000531
510,2,0.2,0.125,35.0,1,1.0,0.3372999999999138
511,2,0.2,0.25,35.0,1,1.0,0.3198000000002139
512,2,0.2,0.0625,35.0,1,1.0,0.30799999999976535
513,2,0.2,0.0,35.0,1,1.0,1.419499999999971
514,2,0.2,1.0,35.0,1,1.0,0.21849999999994907
515,2,0.2,0.125,35.0,1,1.0,0.4293999999999869
516,2,0.2,0.125,35.0,1,1.0,0.20090000000004693
517,2,0.2,0.0625,35.0,1,1.0,0.74350000000004
518,2,0.2,0.0,35.0,1,1.0,1.0171000000000276
519,2,0.2,0.0625,35.0,1,1.0,0.5854999999999109
520,2,0.2,0.125,35.0,1,1.0,0.42250000000012733
521,2,0.2,0.25,-35.0,-1,1.0,2.884100000000217
522,2,0.2,0.0625,35.0,1,1.0,0.44489999999996144
523,2,0.2,0.125,35.0,1,1.0,0.3033999999997832
524,2,0.2,1.0,35.0,1,1.0,0.3512999999998101
525,2,0.2,0.0625,35.0,-1,0.0,2.3197000000000116
526,2,0.2,0.25,35.0,1,1.0,0.29169999999999163
527,2,0.2,0.125,35.0,1,1.0,0.4532000000001517
528,2,0.2,0.25,-35.0,-1,1.0,0.6996999999998934
529,2,0.2,0.125,35.0,1,1.0,0.007800000000088403
530,2,0.2,0.25,35.0,1,1.0,0.8172990000000482
531,2,0.2,1.0,35.0,1,1.0,0.27089999999998327
532,2,0.2,0.25,35.0,1,1.0,0.5189000000000306
533,2,0.2,0.125,35.0,1,1.0,0.46100000000001273
534,2,0.2,0.0,35.0,-1,0.0,0.23949999999990723
535,2,0.2,0.125,-35.0,-1,1.0,0.49490000000014334
536,2,0.2,0.0,35.0,-1,0.0,2.973900000000185
537,2,0.2,1.0,35.0,1,1.0,0.32979999999997744
538,2,0.8,0.0625,-35.0,-1,1.0,0.8990999999998621
539,2,0.8,0.0625,-35.0,-1,1.0,3.5750000000000455
540,2,0.8,0.25,-35.0,-1,1.0,0.3684000000000651
541,2,0.8,0.125,35.0,1,1.0,0.28950000000008913
542,2,0.8,1.0,-35.0,-1,1.0,0.4492999999999938
543,2,0.8,0.125,35.0,1,1.0,0.2522999999998774
544,2,0.8,1.0,35.0,1,1.0,0.2299000000000433
545,2,0.8,0.25,-35.0,-1,1.0,0.6371000000001459
546,2,0.8,0.0,-35.0,1,0.0,0.36550000000011096
547,2,0.8,0.25,35.0,1,1.0,0.45029999999997017
548,2,0.8,1.0,35.0,1,1.0,0.2034000000001015
549,2,0.8,1.0,-35.0,-1,1.0,2.6975000000002183
550,2,0.8,1.0,-35.0,-1,1.0,0.42610000000013315
551,2,0.8,0.25,-35.0,-1,1.0,0.6388000000001739
552,2,0.8,1.0,-35.0,-1,1.0,0.41760000000022046
553,2,0.8,0.125,-35.0,-1,1.0,1.9936000000002423
554,2,0.8,1.0,-35.0,-1,1.0,0.49610000000029686
555,2,0.8,1.0,-35.0,-1,1.0,0.40570000000025175
556,2,0.8,0.125,-35.0,-1,1.0,0.42419999999992797
557,2,0.8,0.25,-35.0,-1,1.0,0.2957000000001244
558,2,0.8,0.25,-35.0,-1,1.0,0.3902000000002772
559,2,0.8,1.0,-35.0,-1,1.0,0.31150000000070577
560,2,0.8,0.125,-35.0,-1,1.0,0.16300000000046566
561,2,0.8,0.0625,-35.0,-1,1.0,0.6858000000001994
562,2,0.8,0.25,-35.0,-1,1.0,0.2732000000005428
563,2,0.8,0.25,-35.0,-1,1.0,0.396900000000187
564,2,0.8,1.0,35.0,1,1.0,0.34390000000075815
565,2,0.8,0.0625,-35.0,-1,1.0,0.814600000000155
566,2,0.8,0.0625,-35.0,-1,1.0,0.10959999999977299
567,2,0.8,0.125,-35.0,-1,1.0,0.40690000000040527
568,2,0.8,0.0,35.0,1,1.0,0.49350000000004
569,2,0.8,0.0625,-35.0,-1,1.0,0.4072000000001026
570,2,0.8,0.0625,35.0,1,1.0,0.39380000000028303
571,2,0.8,0.25,-35.0,-1,1.0,0.26710000000002765
572,2,0.8,0.125,-35.0,-1,1.0,0.3101000000001477
573,2,0.8,1.0,35.0,1,1.0,0.23320000000012442
574,2,0.8,0.0625,-35.0,1,0.0,0.4123999999997068
575,2,0.8,0.25,-35.0,-1,1.0,0.6971000000003187
576,2,0.8,0.125,-35.0,-1,1.0,0.42530000000033397
577,2,0.8,1.0,35.0,1,1.0,0.25000000000045475
578,2,0.8,0.25,35.0,1,1.0,0.310399999999845
579,2,0.8,0.25,-35.0,-1,1.0,0.1172999999998865
580,2,0.8,0.0625,-35.0,-1,1.0,0.6137000000003354
581,2,0.8,0.0625,-35.0,-1,1.0,0.4770000000003165
582,2,0.8,0.0,-35.0,-1,1.0,3.8455000000003565
583,2,0.8,0.0,-35.0,-1,1.0,0.8220000000001164
584,2,0.8,1.0,35.0,1,1.0,0.1904000000004089
585,2,0.8,0.25,-35.0,-1,1.0,0.22960000000057335
586,2,0.8,0.125,-35.0,-1,1.0,0.3666000000002896
587,2,0.8,0.25,-35.0,-1,1.0,0.7026000000005297
588,2,0.8,0.0625,-35.0,-1,1.0,0.3876000000000204
589,2,0.8,0.125,-35.0,-1,1.0,0.3584000000000742
590,2,0.8,0.25,-35.0,-1,1.0,0.3203000000007705
591,2,0.8,1.0,-35.0,-1,1.0,0.2707000000004882
592,2,0.8,0.0625,-35.0,1,0.0,1.3427000000001499
593,2,0.8,0.0625,-35.0,-1,1.0,0.9728000000004613
594,2,0.8,0.0,35.0,1,1.0,0.2129000000004453
595,2,0.8,0.125,-35.0,-1,1.0,0.3229000000005726
596,2,0.8,1.0,-35.0,-1,1.0,0.259900000000016
597,2,0.8,0.0,-35.0,1,0.0,0.25660000000016225
598,2,0.8,1.0,-35.0,-1,1.0,0.3009999999999309
599,2,0.8,0.0625,-35.0,-1,1.0,0.4108000000001084
600,2,0.8,1.0,-35.0,-1,1.0,0.3920000000002801
601,2,0.2,0.0,35.0,-1,0.0,0.46469999999999345
602,2,0.2,0.25,35.0,1,1.0,0.28589999999985594
603,2,0.2,1.0,35.0,1,1.0,0.42510000000038417
604,2,0.2,0.25,35.0,1,1.0,0.22310000000015862
605,2,0.2,0.125,35.0,1,1.0,0.4934000000002925
606,2,0.2,0.125,-35.0,-1,1.0,2.9322000000001935
607,2,0.2,0.0,35.0,-1,0.0,1.4706999999998516
608,2,0.2,0.0,-35.0,1,0.0,7.242400000000089
609,2,0.2,0.25,35.0,1,1.0,0.21840000000020154
610,2,0.2,0.125,35.0,1,1.0,0.35530000000017026
611,2,0.2,0.125,-35.0,-1,1.0,0.39849999999978536
612,2,0.2,0.125,-35.0,-1,1.0,0.3305000000000291
613,2,0.2,0.25,35.0,1,1.0,0.41280000000051587
614,2,0.2,0.125,-35.0,-1,1.0,0.3305000000000291
615,2,0.2,0.0,-35.0,1,0.0,1.6130000000007385
616,2,0.2,0.25,35.0,-1,0.0,0.15600000000040382
617,2,0.2,1.0,35.0,1,1.0,0.2572000000004664
618,2,0.2,0.0625,35.0,1,1.0,0.2976000000003296
619,2,0.2,0.0625,35.0,1,1.0,0.8857000000002699
620,2,0.2,0.0625,35.0,1,1.0,0.3057000000003427
621,2,0.2,0.25,35.0,1,1.0,0.29000000000041837
622,2,0.2,1.0,35.0,1,1.0,0.5464999999999236
623,2,0.2,0.25,35.0,1,1.0,0.2941000000000713
624,2,0.2,0.25,35.0,1,1.0,0.32780000000002474
625,2,0.2,0.25,-35.0,-1,1.0,0.5500999999999294
626,2,0.2,0.0625,35.0,-1,0.0,2.9353000000005522
627,2,0.2,0.0625,35.0,1,1.0,0.2615000000000691
628,2,0.2,0.25,35.0,1,1.0,0.269800000000032
629,2,0.2,1.0,35.0,1,1.0,0.2647999999999229
630,2,0.2,0.0,35.0,-1,0.0,1.1981000000000677
631,2,0.2,0.125,35.0,1,1.0,0.22650000000021464
632,2,0.2,0.125,-35.0,-1,1.0,0.3437000000003536
633,2,0.2,1.0,35.0,1,1.0,0.31009999999969295
634,2,0.2,0.0625,35.0,1,1.0,2.027600000000348
635,2,0.2,0.125,35.0,1,1.0,0.2832000000003063
636,2,0.2,0.0625,35.0,1,1.0,0.5567000000000917
637,2,0.2,0.25,35.0,1,1.0,0.26870000000008076
638,2,0.2,0.25,35.0,1,1.0,0.3453000000004067
639,2,0.2,0.0625,35.0,1,1.0,0.5216000000000349
640,2,0.2,0.25,35.0,1,1.0,0.7855000000004111
641,2,0.2,0.0,-35.0,-1,1.0,4.5504000000000815
642,2,0.2,0.0625,35.0,1,1.0,0.28450000000020736
643,2,0.2,1.0,35.0,1,1.0,0.43229999999994106
644,2,0.2,1.0,-35.0,-1,1.0,0.462800000000243
645,2,0.2,0.125,35.0,1,1.0,0.34260000000040236
646,2,0.2,0.0625,35.0,-1,0.0,0.5408000000002176
647,2,0.2,0.0625,35.0,-1,0.0,0.66570000000047
648,2,0.2,0.125,35.0,1,1.0,3.0577000000002954
649,2,0.2,0.25,35.0,1,1.0,0.24200000000018917
650,2,0.2,0.25,35.0,1,1.0,0.6342999999997119
651,2,0.2,0.25,35.0,1,1.0,0.3119000000001506
652,2,0.2,0.25,35.0,1,1.0,0.22230000000035943
653,2,0.2,0.0625,35.0,1,1.0,0.4974000000001979
654,2,0.2,0.25,-35.0,-1,1.0,0.3225000000002183
655,2,0.2,0.25,35.0,1,1.0,0.30460000000039145
656,2,0.2,0.25,-35.0,-1,1.0,0.30370000000039
657,2,0.2,1.0,35.0,1,1.0,0.23800000000028376
658,2,0.2,0.25,-35.0,-1,1.0,0.69399999999996
659,2,0.2,1.0,35.0,1,1.0,0.35490000000027067
660,2,0.2,1.0,35.0,1,1.0,1.0273000000001957
661,2,0.2,0.125,35.0,-1,0.0,1.394100000000435
662,2,0.2,0.125,35.0,-1,0.0,0.6493000000000393
663,2,0.2,0.0625,35.0,1,1.0,0.4324000000005981
664,2,0.2,1.0,35.0,1,1.0,-0.07580000000007203
665,2,0.2,0.25,35.0,1,1.0,0.8631000000000313
666,2,0.2,1.0,-35.0,-1,1.0,0.35750000000007276
667,2,0.2,0.0625,35.0,1,1.0,0.8065000000001419
668,2,0.2,0.25,35.0,1,1.0,1.003400000000056
669,2,0.2,1.0,35.0,1,1.0,2.1507000000001426
670,2,0.2,0.0625,35.0,1,1.0,1.1111000000005333
671,2,0.2,0.125,35.0,-1,0.0,3.4273000000002867
672,2,0.2,0.0,35.0,-1,0.0,2.112499999999727
673,2,0.2,1.0,35.0,-1,0.0,0.18460000000004584
674,2,0.2,0.125,35.0,1,1.0,2.592200000000048
675,2,0.2,0.0625,35.0,-1,0.0,2.4256000000000313
676,2,0.2,0.25,-35.0,-1,1.0,0.7221000000004096
677,2,0.2,1.0,-35.0,-1,1.0,0.19869999999991705
678,2,0.2,0.0,35.0,1,1.0,0.3459000000002561
679,2,0.2,0.0,-35.0,1,0.0,4.082000000000335
680,2,0.2,0.0625,35.0,1,1.0,0.37770000000000437
681,2,0.2,0.0,35.0,-1,0.0,5.300900000000183
682,2,0.2,1.0,35.0,1,1.0,0.21040000000039072
683,2,0.2,0.25,-35.0,-1,1.0,0.5280999999999949
684,2,0.2,0.25,-35.0,-1,1.0,0.3602000000000771
685,2,0.2,0.125,35.0,1,1.0,0.33030000000053406
686,2,0.2,0.0,-35.0,-1,1.0,0.682100000000446
687,2,0.2,0.0625,-35.0,-1,1.0,0.8840000000004693
688,2,0.2,0.0625,35.0,1,1.0,0.2692000000001826
689,2,0.2,1.0,35.0,1,1.0,0.2559000000001106
690,2,0.2,0.125,35.0,-1,0.0,0.32430000000067594
691,2,0.2,0.125,35.0,1,1.0,0.32420000000047366
692,2,0.2,0.0,35.0,1,1.0,1.7793000000006032
693,2,0.8,0.125,-35.0,-1,1.0,0.5833000000002357
694,2,0.8,0.25,35.0,1,1.0,0.3085999999998421
695,2,0.8,0.25,-35.0,-1,1.0,0.4756999999999607
696,2,0.8,1.0,-35.0,-1,1.0,0.42370000000028085
697,2,0.8,0.0625,-35.0,1,0.0,0.06739999999990687
698,2,0.8,0.0625,-35.0,-1,1.0,0.3986000000004424
699,2,0.8,0.0,-35.0,1,0.0,1.614900000000489
700,2,0.8,0.25,-35.0,-1,1.0,0.3745000000003529
701,2,0.8,0.125,-35.0,-1,1.0,0.8976000000002387
702,2,0.8,0.125,-35.0,-1,1.0,0.8277000000002772
703,2,0.8,0.0,-35.0,-1,1.0,0.3247000000001208
704,2,0.8,0.125,-35.0,-1,1.0,0.4067000000000007
705,2,0.8,0.25,-35.0,-1,1.0,0.3056000000001404
706,2,0.8,0.25,-35.0,-1,1.0,0.34180000000014843
707,2,0.8,0.0625,-35.0,-1,1.0,0.7018000000002758
708,2,0.8,0.0,35.0,-1,0.0,0.20479999999997744
709,2,0.8,0.125,35.0,1,1.0,0.2739000000001397
710,2,0.8,0.0625,-35.0,-1,1.0,0.5534000000002379
711,2,0.8,0.0625,-35.0,-1,1.0,0.5835000000001855
712,2,0.8,0.25,35.0,1,1.0,0.5749000000000706
713,2,0.8,0.125,-35.0,1,0.0,0.03999999999996362
714,2,0.8,0.25,-35.0,-1,1.0,0.12809999999990396
715,2,0.8,0.0625,-35.0,-1,1.0,0.36300000000028376
716,2,0.8,0.125,-35.0,-1,1.0,0.32110000000011496
717,2,0.8,0.0625,-35.0,-1,1.0,0.47910000000001673
718,2,0.8,0.125,-35.0,-1,1.0,0.43200000000024374
719,2,0.8,0.0,-35.0,-1,1.0,0.7201000000004569
720,2,0.8,0.25,-35.0,-1,1.0,0.19860000000016953
721,2,0.8,1.0,-35.0,-1,1.0,0.3362000000001899
722,2,0.8,0.0,35.0,-1,0.0,0.8835000000003674
723,2,0.8,1.0,35.0,1,1.0,0.20730000000003201
724,2,0.8,0.0625,-35.0,-1,1.0,0.6013000000002648
725,2,0.8,0.0625,-35.0,-1,1.0,0.30729999999994106
726,2,0.8,0.25,-35.0,-1,1.0,0.3864000000003216
727,2,0.8,1.0,35.0,1,1.0,0.4488000000005741
728,2,0.8,0.0625,-35.0,-1,1.0,0.3984000000004926
729,2,0.8,0.0,-35.0,1,0.0,0.3845000000001164
730,2,0.8,1.0,35.0,1,1.0,0.19170000000030996
731,2,0.2,0.25,35.0,1,1.0,0.25350000000071304
732,2,0.2,0.25,35.0,1,1.0,0.37550000000010186
733,2,0.2,0.0625,35.0,1,1.0,0.5136999999999716
734,2,0.2,0.0,35.0,-1,0.0,2.883600000000115
735,2,0.2,0.0,35.0,-1,0.0,2.717699999999695
736,2,0.2,0.25,-35.0,-1,1.0,0.24069999999983338
737,2,0.2,1.0,35.0,1,1.0,0.20719999999982974
738,2,0.2,0.125,-35.0,-1,1.0,0.627100000000155
739,2,0.2,0.0625,-35.0,-1,1.0,1.3768000000004577
740,2,0.2,0.125,-35.0,-1,1.0,0.4208000000003267
741,2,0.2,1.0,35.0,1,1.0,0.15710000000035507
742,2,0.2,0.0625,35.0,-1,0.0,1.8536000000003696
743,2,0.2,0.125,35.0,1,1.0,1.7340000000003783
744,2,0.2,0.125,35.0,1,1.0,0.3680000000003929
745,2,0.2,0.0625,35.0,1,1.0,0.4335000000000946
746,2,0.2,0.125,35.0,1,1.0,0.3241000000002714
747,2,0.2,1.0,35.0,1,1.0,0.3305000000000291
748,2,0.2,0.0,-35.0,1,0.0,0.3951999999999316
749,2,0.2,0.0625,35.0,-1,0.0,1.6700000000000728
750,2,0.2,0.0,35.0,1,1.0,0.28920000000016444
751,2,0.2,0.0625,35.0,1,1.0,0.3725000000004002
752,2,0.2,0.25,35.0,1,1.0,0.38490000000047075
753,2,0.2,0.0625,35.0,1,1.0,2.908300000000054
754,2,0.2,0.25,35.0,-1,0.0,3.9184000000004744
755,2,0.2,0.0,35.0,1,1.0,1.0913000000005013
756,2,0.2,0.0,35.0,-1,0.0,2.514400000000478
757,2,0.2,0.25,35.0,1,1.0,0.285200000000259
758,2,0.2,1.0,-35.0,-1,1.0,0.3425000000002001
759,2,0.2,0.0625,35.0,1,1.0,0.369600000000446
760,2,0.2,0.125,35.0,1,1.0,0.4416000000001077
761,2,0.2,0.125,35.0,1,1.0,0.1546000000003005
762,2,0.2,0.25,35.0,1,1.0,0.37460000000055516
763,2,0.2,0.0,-35.0,1,0.0,3.4942000000000917
764,2,0.2,0.125,35.0,1,1.0,0.3521000000005188
765,2,0.2,0.0625,35.0,1,1.0,0.4367000000002008
766,2,0.2,0.0625,35.0,1,1.0,0.019800000000032014
767,2,0.2,0.25,-35.0,1,0.0,-0.07709999999997308
768,2,0.2,0.125,35.0,1,1.0,0.25689900000043053
769,2,0.2,0.0625,35.0,1,1.0,0.5319000000004053
770,2,0.2,0.25,-35.0,-1,1.0,1.1378999999997177
771,2,0.2,1.0,35.0,1,1.0,0.30470000000013897
772,2,0.2,0.25,35.0,1,1.0,0.5171000000004824
773,2,0.2,0.0625,35.0,1,1.0,0.4819999999999709
774,2,0.2,0.25,35.0,1,1.0,0.39010000000007494
775,2,0.2,0.125,-35.0,1,0.0,0.5208000000002357
776,2,0.2,0.125,35.0,-1,0.0,3.589900000000398
777,2,0.2,0.25,35.0,1,1.0,0.2681999999999789
778,2,0.8,0.125,-35.0,1,0.0,1.9138000000002648
779,2,0.8,0.25,-35.0,-1,1.0,0.41220000000021173
780,2,0.8,0.125,-35.0,-1,1.0,0.3524999999999636
781,2,0.8,1.0,-35.0,-1,1.0,0.31730000000015934
782,2,0.8,0.0625,-35.0,-1,1.0,0.41400000000021464
783,2,0.8,0.0,-35.0,1,0.0,0.39170000000012806
784,2,0.8,1.0,35.0,1,1.0,0.256600000000617
785,2,0.8,1.0,35.0,1,1.0,0.5583999999998923
786,2,0.8,0.125,35.0,1,1.0,9.000200000000405
787,2,0.8,0.125,-35.0,-1,1.0,0.3198000000002139
788,2,0.8,0.0625,35.0,1,1.0,1.2572000000004664
789,2,0.8,0.0,-35.0,-1,1.0,0.9834000000000742
790,2,0.8,0.125,-35.0,-1,1.0,0.08330000000023574
791,2,0.8,0.0625,-35.0,1,0.0,0.2685000000005857
792,2,0.8,1.0,-35.0,-1,1.0,0.2829999999999018
793,2,0.8,0.125,-35.0,-1,1.0,5.240800000000036
794,2,0.8,1.0,35.0,1,1.0,0.24909900000011476
795,2,0.8,1.0,-35.0,-1,1.0,-0.06379999999990105
796,2,0.8,1.0,-35.0,-1,1.0,0.3269000000000233
797,2,0.8,1.0,-35.0,-1,1.0,0.43990000000030705
798,2,0.8,0.0,-35.0,1,0.0,5.72400000000016
799,2,0.8,0.0,35.0,-1,0.0,2.9760000000001128
800,2,0.8,0.25,-35.0,-1,1.0,0.5088000000000648
801,2,0.8,1.0,-35.0,-1,1.0,0.4726000000005115
802,2,0.8,0.0625,-35.0,-1,1.0,2.041099999999915
803,2,0.8,0.0625,-35.0,-1,1.0,1.8593000000005304
804,2,0.8,1.0,-35.0,-1,1.0,0.010300000000370346
805,2,0.8,0.0625,-35.0,-1,1.0,0.4005000000001928
806,2,0.8,0.0625,-35.0,-1,1.0,0.733700000000681
807,2,0.8,0.0625,35.0,-1,0.0,0.2571000000002641
808,2,0.8,0.0625,35.0,1,1.0,0.3204000000000633
809,2,0.8,0.0625,-35.0,-1,1.0,1.033600000000206
810,2,0.8,0.25,35.0,1,1.0,0.21940000000040527
811,2,0.2,0.25,35.0,1,1.0,-0.06849999999940337
812,2,0.2,0.0625,-35.0,-1,1.0,5.93139999999994
813,2,0.2,0.0625,-35.0,-1,1.0,0.7601999999997133
814,2,0.2,0.0,35.0,1,1.0,0.2992000000003827
815,2,0.2,0.0625,35.0,1,1.0,0.2714000000005399
816,2,0.2,0.125,35.0,1,1.0,0.339900000000398
817,2,0.2,1.0,35.0,1,1.0,0.213799999999992
818,2,0.2,0.0625,35.0,1,1.0,0.508600000000115
819,2,0.2,0.0,35.0,-1,0.0,4.474900000000616
820,2,0.2,0.25,35.0,1,1.0,8.882200000000012
821,2,0.2,1.0,35.0,1,1.0,0.2792999999996937
822,2,0.2,0.25,35.0,1,1.0,0.23390000000063083
823,2,0.2,0.0,35.0,-1,0.0,3.7725000000000364
824,2,0.2,1.0,35.0,1,1.0,0.2592000000004191
825,2,0.2,0.0625,-35.0,1,0.0,7.792500000000018
826,2,0.2,0.125,35.0,1,1.0,4.595900000000256
827,2,0.2,0.0625,35.0,-1,0.0,0.7266000000004169
828,2,0.2,0.0625,-35.0,-1,1.0,0.28829999999970823
829,2,0.2,0.25,-35.0,-1,1.0,0.21900000000050568
830,2,0.2,1.0,35.0,1,1.0,2.8224000000004708
831,2,0.2,0.0625,-35.0,-1,1.0,1.3124000000002525
832,2,0.2,0.25,35.0,1,1.0,0.3263999999999214
833,2,0.2,0.125,35.0,-1,0.0,2.4455000000002656
834,2,0.2,1.0,35.0,1,1.0,0.23580000000038126
835,2,0.2,1.0,35.0,1,1.0,0.26190000000042346
836,2,0.2,1.0,35.0,1,1.0,0.5155000000004293
837,2,0.2,0.125,35.0,1,1.0,0.27730000000065047
838,2,0.2,0.25,35.0,1,1.0,0.5244999999999891
839,2,0.2,0.0625,-35.0,-1,1.0,5.582700000000386
840,2,0.2,0.125,-35.0,-1,1.0,0.35649999999986903
841,2,0.2,1.0,35.0,1,1.0,0.2278000000001157
842,2,0.2,0.25,35.0,-1,0.0,11.185801000000538
843,2,0.2,1.0,35.0,1,1.0,0.3038010000000213
844,2,0.2,0.0625,35.0,1,1.0,0.40800100000069506
845,2,0.2,1.0,-35.0,-1,1.0,0.8445010000000366
846,2,0.2,0.0625,35.0,-1,0.0,5.976001000000451
847,2,0.2,0.25,35.0,1,1.0,0.2541010000004462
848,2,0.2,0.25,-35.0,-1,1.0,0.5425010000003567
849,2,0.2,0.25,-35.0,-1,1.0,0.40440099999977974
850,2,0.2,0.125,35.0,-1,0.0,9.680701000000681
851,2,0.2,0.125,35.0,1,1.0,0.27630100000033053
852,2,0.2,0.125,-35.0,-1,1.0,0.9336010000001806
853,2,0.2,0.0625,35.0,-1,0.0,6.2574010000003
854,2,0.2,0.0,35.0,-1,0.0,6.460301000000072
855,2,0.2,0.0625,35.0,-1,0.0,8.647801000000072
856,2,0.2,0.125,35.0,1,1.0,5.578701000000365
857,2,0.2,0.25,35.0,1,1.0,0.26370100000031016
858,2,0.2,0.0625,35.0,-1,0.0,0.1805010000002767
859,2,0.2,0.25,35.0,1,1.0,0.599601000000348
860,2,0.2,1.0,35.0,1,1.0,0.2945009999998547
861,2,0.2,0.25,35.0,1,1.0,0.49180100000012317
862,2,0.2,1.0,35.0,1,1.0,0.4536010000006172
863,2,0.2,1.0,35.0,1,1.0,0.343101000000388
864,2,0.2,0.25,35.0,1,1.0,0.5096010000002025
865,2,0.2,0.125,35.0,-1,0.0,11.484901000000264
866,2,0.2,0.25,-35.0,-1,1.0,5.558301000000483
867,2,0.2,0.25,35.0,1,1.0,10.045001000000411
868,2,0.2,0.0625,35.0,-1,0.0,7.283700999999837
869,2,0.2,1.0,35.0,1,1.0,0.23570100000051752
870,2,0.2,0.125,35.0,1,1.0,5.051101000000017
871,2,0.2,0.0,35.0,1,1.0,2.0940010000003895
872,2,0.2,0.0,-35.0,-1,1.0,3.6034010000003036
873,2,0.2,0.125,35.0,1,1.0,0.32130099999994854
874,2,0.8,1.0,-35.0,-1,1.0,0.4259010000005219
875,2,0.8,0.0625,-35.0,-1,1.0,2.7224010000004455
876,2,0.8,1.0,-35.0,-1,1.0,0.40590100000008533
877,2,0.8,0.0625,-35.0,-1,1.0,2.036501000000044
878,2,0.8,0.0625,-35.0,-1,1.0,0.8846010000006572
879,2,0.8,0.0625,-35.0,-1,1.0,5.695501000000149
880,2,0.8,0.25,-35.0,-1,1.0,2.6218010000002323
1,3,0.5,0.125,-35.0,-1,1.0,0.28190000000000015
2,3,0.5,0.0625,35.0,1,1.0,1.1807000000000003
3,3,0.5,1.0,35.0,1,1.0,0.21779999999999866
4,3,0.5,1.0,-35.0,-1,1.0,0.16960000000000086
5,3,0.5,0.0625,-35.0,1,0.0,0.42210000000000214
6,3,0.5,0.0625,35.0,1,1.0,0.3094000000000001
7,3,0.5,0.0625,-35.0,-1,1.0,1.278500000000001
8,3,0.5,1.0,35.0,1,1.0,0.1982999999999997
9,3,0.5,1.0,-35.0,-1,1.0,0.29850000000000065
10,3,0.5,0.0625,-35.0,-1,1.0,0.7206000000000046
11,3,0.5,0.25,-35.0,-1,1.0,0.3253999999999948
12,3,0.5,0.25,35.0,1,1.0,0.27490000000000236
13,3,0.5,0.25,35.0,1,1.0,0.25790000000000646
14,3,0.5,1.0,-35.0,-1,1.0,0.308400000000006
15,3,0.5,1.0,35.0,1,1.0,1.0264000000000024
16,3,0.5,0.25,-35.0,-1,1.0,0.37750000000000483
17,3,0.5,0.25,-35.0,-1,1.0,1.2087000000000003
18,3,0.5,0.25,35.0,1,1.0,0.3585000000000065
19,3,0.5,1.0,35.0,1,1.0,0.7691000000000088
20,3,0.5,0.0625,-35.0,-1,1.0,3.6019000000000148
21,3,0.5,0.25,35.0,1,1.0,0.5435000000000088
22,3,0.5,0.0625,-35.0,-1,1.0,3.0892000000000053
23,3,0.5,0.25,-35.0,-1,1.0,0.41150000000000375
24,3,0.5,0.0,-35.0,-1,1.0,0.6242000000000161
25,3,0.5,0.0625,35.0,-1,0.0,0.4860000000000184
26,3,0.5,0.0625,-35.0,-1,1.0,2.73660000000001
27,3,0.5,0.125,35.0,-1,0.0,0.5216999999999956
28,3,0.5,0.0625,35.0,-1,0.0,2.0834000000000117
29,3,0.5,1.0,35.0,1,1.0,0.1821999999999946
30,3,0.5,0.0625,-35.0,-1,1.0,0.8067999999999955
31,3,0.5,0.25,35.0,1,1.0,0.35899999999999466
32,3,0.5,1.0,35.0,1,1.0,0.2658999999999878
33,3,0.5,0.0,35.0,-1,0.0,3.8370000000000033
34,3,0.5,0.0625,-35.0,1,0.0,0.17859999999998877
35,3,0.5,0.125,35.0,1,1.0,0.5795999999999708
36,3,0.5,0.25,-35.0,-1,1.0,0.353999999999985
37,3,0.5,0.25,-35.0,-1,1.0,0.275100000000009
38,3,0.5,0.25,-35.0,-1,1.0,0.36539999999999395
39,3,0.5,1.0,-35.0,-1,1.0,0.3439999999999941
40,3,0.5,1.0,35.0,1,1.0,0.20319999999998117
41,3,0.5,0.0625,35.0,-1,0.0,1.8632999999999527
42,3,0.5,1.0,35.0,1,1.0,0.26029999999997244
43,3,0.5,0.0625,-35.0,1,0.0,0.09629999999998518
44,3,0.5,1.0,35.0,1,1.0,0.2516999999999996
45,3,0.5,0.125,-35.0,-1,1.0,6.36839999999998
46,3,0.5,1.0,-35.0,-1,1.0,0.05449999999999022
47,3,0.5,0.25,35.0,-1,0.0,0.4765999999999906
48,3,0.5,0.25,-35.0,-1,1.0,0.34770000000000323
49,3,0.5,0.25,-35.0,-1,1.0,0.5353999999999814
50,3,0.5,1.0,-35.0,-1,1.0,0.3113999999999919
51,3,0.5,1.0,-35.0,-1,1.0,0.2979999999999734
52,3,0.5,0.0625,35.0,-1,0.0,1.2786999999999864
53,3,0.5,0.0625,35.0,1,1.0,0.7848000000000184
54,3,0.5,0.0625,35.0,1,1.0,0.34089999999997644
55,3,0.5,0.25,35.0,1,1.0,0.4358999999999753
56,3,0.5,0.125,35.0,1,1.0,0.31059999999996535
57,3,0.5,0.25,35.0,1,1.0,0.2738999999999976
58,3,0.5,0.0625,-35.0,1,0.0,1.152799999999985
59,3,0.5,0.0625,35.0,1,1.0,0.32909999999998263
60,3,0.5,1.0,-35.0,-1,1.0,0.31009999999997717
61,3,0.5,0.0625,-35.0,-1,1.0,0.47229999999998995
62,3,0.5,0.0625,35.0,1,1.0,0.29939999999999145
63,3,0.5,0.25,35.0,1,1.0,0.295599999999979
64,3,0.5,0.25,35.0,1,1.0,0.24509999999997945
65,3,0.5,0.0625,35.0,1,1.0,0.2939000000000078
66,3,0.5,0.0,-35.0,1,0.0,2.0989999999999895
67,3,0.5,0.0625,35.0,1,1.0,0.43229999999994106
68,3,0.5,0.0625,35.0,1,1.0,0.3188000000000102
69,3,0.5,0.0625,-35.0,-1,1.0,0.5115000000000123
70,3,0.5,0.25,-35.0,-1,1.0,0.4151999999999134
71,3,0.5,1.0,-35.0,-1,1.0,0.36779999999998836
72,3,0.5,0.125,35.0,1,1.0,0.33449999999999136
73,3,0.5,1.0,35.0,1,1.0,0.24139999999994188
74,3,0.5,0.0,-35.0,1,0.0,2.5855999999999426
75,3,0.5,1.0,-35.0,-1,1.0,0.2636999999999716
76,3,0.5,1.0,-35.0,-1,1.0,0.45359999999999445
77,3,0.5,0.0625,-35.0,-1,1.0,1.5915999999999713
78,3,0.5,1.0,35.0,1,1.0,0.2056999999999789
79,3,0.5,1.0,35.0,-1,0.0,-0.041900000000055115
80,3,0.5,0.0625,-35.0,1,0.0,1.7177999999999543
81,3,0.5,0.0625,35.0,1,1.0,0.24739999999997053
82,3,0.5,0.0625,35.0,1,1.0,0.5468999999999937
83,3,0.5,0.0625,35.0,1,1.0,0.28199999999998226
84,3,0.5,0.0625,-35.0,-1,1.0,2.5708999999999946
85,3,0.5,0.0,-35.0,-1,1.0,1.0208999999999264
86,3,0.5,0.0625,35.0,-1,0.0,1.2626999999999953
87,3,0.5,0.25,-35.0,-1,1.0,0.28410000000002356
88,3,0.5,0.0625,-35.0,-1,1.0,0.7221000000000117
89,3,0.5,0.125,35.0,1,1.0,0.32220000000000937
90,3,0.5,0.0625,35.0,-1,0.0,0.6091999999999871
91,3,0.2,0.0625,35.0,-1,0.0,0.7882000000000176
92,3,0.2,0.25,-35.0,-1,1.0,0.4001999999999839
93,3,0.2,0.25,35.0,1,1.0,0.32939999999996417
94,3,0.2,1.0,-35.0,-1,1.0,0.29930000000001655
95,3,0.2,0.125,35.0,1,1.0,0.5162999999999442
96,3,0.2,0.25,35.0,1,1.0,1.003499999999974
97,3,0.2,0.125,35.0,1,1.0,0.3783999999999992
98,3,0.2,0.0625,35.0,1,1.0,1.6283999999999992
99,3,0.2,0.0625,35.0,1,1.0,0.3233999999999355
100,3,0.2,0.0,35.0,-1,0.0,0.6345000000000027
101,3,0.2,0.25,35.0,1,1.0,0.40449999999998454
102,3,0.2,0.25,35.0,1,1.0,0.24459999999993443
103,3,0.2,0.25,35.0,1,1.0,0.5810000000000173
104,3,0.2,0.0625,35.0,1,1.0,0.3849999999999909
105,3,0.2,1.0,35.0,1,1.0,0.8470999999999549
106,3,0.2,0.0,35.0,1,1.0,3.7136999999999603
107,3,0.2,0.125,-35.0,-1,1.0,0.5346999999999866
108,3,0.2,0.0,-35.0,-1,1.0,1.6738000000000284
109,3,0.2,0.0625,35.0,1,1.0,0.3183999999999969
110,3,0.2,0.125,35.0,-1,0.0,0.04199999999997317
111,3,0.2,0.125,35.0,1,1.0,0.3050000000000068
112,3,0.2,0.25,35.0,1,1.0,0.2954000000000292
113,3,0.2,1.0,35.0,1,1.0,0.20499999999998408
114,3,0.2,0.25,35.0,1,1.0,0.2616999999999621
115,3,0.2,0.25,35.0,1,1.0,0.278699999999958
116,3,0.2,0.125,-35.0,-1,1.0,1.767499999999984
117,3,0.2,1.0,35.0,1,1.0,0.5260999999999854
118,3,0.2,1.0,35.0,1,1.0,1.2941000000000145
119,3,0.2,0.125,35.0,1,1.0,5.074199999999962
120,3,0.2,0.25,35.0,1,1.0,0.23619999999999663
121,3,0.2,0.0625,35.0,1,1.0,0.2971999999999184
122,3,0.2,0.0625,35.0,1,1.0,0.3372999999999706
123,3,0.2,0.0,-35.0,1,0.0,0.2780999999999949
124,3,0.2,0.0625,35.0,1,1.0,0.3573999999999842
125,3,0.2,0.0625,35.0,1,1.0,0.31450000000000955
126,3,0.2,0.125,-35.0,-1,1.0,0.2892999999999688
127,3,0.2,0.0625,-35.0,-1,1.0,0.36009999999998854
128,3,0.2,0.125,35.0,1,1.0,0.2580000000000382
129,3,0.2,0.125,35.0,1,1.0,0.32059999999995625
130,3,0.2,0.0625,35.0,1,1.0,0.4064999999999941
131,3,0.2,0.125,35.0,1,1.0,0.265700000000038
132,3,0.2,0.0625,35.0,1,1.0,0.3451000000000022
133,3,0.2,0.0625,35.0,1,1.0,0.34580000000016753
134,3,0.8,1.0,35.0,1,1.0,0.3731000000000222
135,3,0.8,0.0625,35.0,-1,0.0,1.1519000000000688
136,3,0.8,0.0,-35.0,1,0.0,0.650000000000091
137,3,0.8,0.0625,-35.0,-1,1.0,0.23490000000015243
138,3,0.8,0.25,-35.0,-1,1.0,0.3389999999999418
139,3,0.8,0.25,-35.0,-1,1.0,0.35590000000001965
140,3,0.8,0.125,-35.0,-1,1.0,0.3451000000000022
141,3,0.8,0.125,-35.0,-1,1.0,0.30500000000006366
142,3,0.8,1.0,-35.0,-1,1.0,0.23610000000007858
143,3,0.8,0.25,-35.0,-1,1.0,0.2940999999999576
144,3,0.8,0.25,-35.0,-1,1.0,0.3310000000000173
145,3,0.8,0.125,-35.0,-1,1.0,0.09609999999997854
146,3,0.8,0.0,-35.0,-1,1.0,0.24639999999999418
147,3,0.8,0.0625,-35.0,-1,1.0,0.24909999999999854
148,3,0.8,0.25,-35.0,-1,1.0,0.1411000000000513
149,3,0.8,0.25,35.0,1,1.0,0.2336999999999989
150,3,0.8,0.25,-35.0,-1,1.0,0.30770000000006803
151,3,0.8,0.0625,-35.0,-1,1.0,0.3893000000000484
152,3,0.8,0.0625,-35.0,-1,1.0,0.3063000000000784
153,3,0.8,0.125,-35.0,-1,1.0,0.32730000000003656
154,3,0.8,0.125,-35.0,-1,1.0,0.0141999999999598
155,3,0.8,0.125,-35.0,-1,1.0,0.5260000000000673
156,3,0.8,0.0625,35.0,-1,0.0,0.25540000000000873
157,3,0.8,0.125,-35.0,-1,1.0,0.308400000000006
158,3,0.8,0.25,-35.0,-1,1.0,0.11330000000009477
159,3,0.8,0.0625,-35.0,-1,1.0,0.3345000000000482
160,3,0.8,0.0,-35.0,1,0.0,0.3574999999999591
161,3,0.8,1.0,-35.0,-1,1.0,0.2655000000000882
162,3,0.8,0.0625,-35.0,-1,1.0,0.3056000000001404
163,3,0.8,0.125,-35.0,-1,1.0,0.3326000000000704
164,3,0.8,0.25,-35.0,-1,1.0,0.3390000000000555
165,3,0.8,0.0,-35.0,-1,1.0,1.0089000000000397
166,3,0.8,0.0,35.0,-1,0.0,0.6559000000000879
167,3,0.8,0.0,-35.0,1,0.0,0.2988000000000284
168,3,0.8,0.125,35.0,1,1.0,0.25480000000004566
169,3,0.8,0.0625,-35.0,-1,1.0,0.3908000000001266
170,3,0.8,0.0625,35.0,1,1.0,0.2638000000001739
171,3,0.8,1.0,35.0,1,1.0,0.23010000000010677
172,3,0.8,0.0,35.0,-1,0.0,0.08699999999998909
173,3,0.8,0.0,-35.0,1,0.0,0.29980000000000473
174,3,0.8,0.125,-35.0,-1,1.0,0.2841000000000804
175,3,0.8,1.0,-35.0,-1,1.0,0.21610000000009677
176,3,0.8,0.25,-35.0,-1,1.0,0.2236000000000331
177,3,0.8,0.0625,-35.0,-1,1.0,0.5240000000000009
178,3,0.8,0.125,-35.0,-1,1.0,0.2721000000000231
179,3,0.8,0.0,-35.0,-1,1.0,0.3812000000000353
180,3,0.8,0.0625,-35.0,-1,1.0,0.5272000000001071
181,3,0.8,0.0,-35.0,-1,1.0,0.976500000000101
182,3,0.8,1.0,-35.0,-1,1.0,0.2073000000001457
183,3,0.8,0.125,-35.0,-1,1.0,0.08349999999995816
184,3,0.8,0.0625,-35.0,-1,1.0,0.294399999999996
185,3,0.8,0.125,-35.0,-1,1.0,0.5434000000000196
186,3,0.8,1.0,-35.0,-1,1.0,0.25869999999997617
187,3,0.8,0.25,-35.0,-1,1.0,0.36850000000004
188,3,0.8,0.25,-35.0,-1,1.0,0.36960000000010496
189,3,0.8,0.25,35.0,1,1.0,0.3484000000000833
190,3,0.8,0.125,-35.0,-1,1.0,0.26660000000003947
191,3,0.8,1.0,35.0,1,1.0,0.2076000000000704
192,3,0.8,0.125,-35.0,-1,1.0,0.2986000000000786
193,3,0.8,0.25,-35.0,-1,1.0,0.057599999999979445
194,3,0.8,0.0625,-35.0,-1,1.0,0.3830999999998994
195,3,0.8,0.25,-35.0,-1,1.0,0.261600000000044
196,3,0.8,0.0625,35.0,1,1.0,0.3383000000000038
197,3,0.8,0.25,-35.0,-1,1.0,0.3547000000000935
198,3,0.8,0.0,-35.0,-1,1.0,1.7847000000000435
199,3,0.8,0.0625,-35.0,-1,1.0,0.16650000000004184
200,3,0.8,0.0625,-35.0,-1,1.0,0.3613000000000284
201,3,0.8,0.0625,-35.0,-1,1.0,0.38760000000013406
202,3,0.2,1.0,-35.0,-1,1.0,0.31150000000002365
203,3,0.2,1.0,35.0,1,1.0,0.26330000000007203
204,3,0.2,0.125,35.0,1,1.0,0.27500000000009095
205,3,0.2,0.125,-35.0,-1,1.0,0.25090000000011514
206,3,0.2,0.25,35.0,1,1.0,0.2900000000000773
207,3,0.2,0.0625,-35.0,-1,1.0,1.1017000000000507
208,3,0.2,0.125,35.0,-1,0.0,1.034400000000005
209,3,0.2,0.125,35.0,-1,0.0,3.198099999999954
210,3,0.2,0.25,35.0,1,1.0,0.26120000000014443
211,3,0.2,0.0625,35.0,1,1.0,0.3242000000000189
212,3,0.2,0.25,35.0,1,1.0,0.31320000000005166
213,3,0.2,0.125,35.0,1,1.0,0.4432000000000471
214,3,0.2,0.0625,35.0,1,1.0,0.32960000000002765
215,3,0.2,0.125,35.0,-1,0.0,0.3863000000001193
216,3,0.2,0.25,35.0,1,1.0,0.2844000000000051
217,3,0.2,0.25,35.0,1,1.0,0.5910000000000082
218,3,0.2,0.125,35.0,1,1.0,0.04470000000003438
219,3,0.2,1.0,35.0,1,1.0,0.23550000000000182
220,3,0.2,1.0,35.0,1,1.0,0.22929999999996653
221,3,0.2,1.0,35.0,1,1.0,0.2655000000000882
222,3,0.2,1.0,35.0,1,1.0,0.2418000000001257
223,3,0.2,0.125,35.0,1,1.0,0.24720000000002074
224,3,0.2,0.25,35.0,1,1.0,0.3208999999999378
225,3,0.2,0.25,35.0,1,1.0,0.18060000000002674
226,3,0.2,1.0,35.0,1,1.0,0.3002000000001317
227,3,0.2,1.0,35.0,1,1.0,0.23070000000006985
228,3,0.2,0.25,-35.0,-1,1.0,0.2761000000000422
229,3,0.2,1.0,-35.0,-1,1.0,0.23869999999999436
230,3,0.2,1.0,35.0,1,1.0,0.04240000000004329
231,3,0.2,0.25,-35.0,-1,1.0,0.2703999999999951
232,3,0.2,0.0,35.0,1,1.0,0.31900000000007367
233,3,0.2,1.0,35.0,1,1.0,0.28880000000003747
234,3,0.2,0.125,-35.0,-1,1.0,0.3187000000000353
235,3,0.2,0.25,-35.0,-1,1.0,0.29290000000003147
236,3,0.2,1.0,35.0,1,1.0,0.25060000000019045
237,3,0.2,0.25,35.0,1,1.0,0.2941000000000713
238,3,0.2,0.25,35.0,1,1.0,0.31310000000007676
239,3,0.2,0.0625,35.0,1,1.0,0.4895000000000209
240,3,0.2,0.0625,35.0,1,1.0,0.30709999999999127
241,3,0.2,0.25,35.0,1,1.0,0.25520000000005894
242,3,0.2,0.125,35.0,-1,0.0,0.12520000000006348
243,3,0.2,0.0625,35.0,1,1.0,0.30769999999995434
244,3,0.2,0.0,35.0,1,1.0,2.46530000000007
245,3,0.2,1.0,35.0,1,1.0,0.4860000000001037
246,3,0.2,0.0625,-35.0,-1,1.0,0.3794000000000324
247,3,0.2,0.0625,35.0,1,1.0,0.27470000000005257
248,3,0.2,0.25,35.0,1,1.0,0.25450000000012096
249,3,0.2,0.125,-35.0,-1,1.0,0.4764989999999898
250,3,0.2,1.0,-35.0,-1,1.0,0.2665000000000646
251,3,0.2,1.0,-35.0,-1,1.0,0.23860000000001946
252,3,0.2,0.125,35.0,1,1.0,0.24080000000014934
253,3,0.2,0.25,35.0,1,1.0,0.8256000000001222
254,3,0.2,0.25,35.0,-1,0.0,0.02189999999995962
255,3,0.2,0.125,35.0,1,1.0,0.5247000000000526
256,3,0.2,1.0,35.0,1,1.0,0.23550000000000182
257,3,0.2,0.0625,35.0,1,1.0,0.36380000000008295
258,3,0.2,0.0625,-35.0,1,0.0,2.3881000000000085
259,3,0.2,0.0,35.0,-1,0.0,5.11990000000003
260,3,0.8,0.25,-35.0,-1,1.0,0.22890000000006694
261,3,0.8,1.0,-35.0,-1,1.0,0.2989000000000033
262,3,0.8,0.0625,35.0,-1,0.0,0.5030000000000427
263,3,0.8,1.0,-35.0,-1,1.0,0.2379999999999427
264,3,0.8,0.0625,35.0,1,1.0,0.2780000000001337
265,3,0.8,0.0625,35.0,1,1.0,0.31939999999997326
266,3,0.8,0.0,-35.0,1,0.0,1.0450000000000728
267,3,0.8,0.0625,-35.0,-1,1.0,1.4684000000000879
268,3,0.8,0.0,-35.0,-1,1.0,0.36549999999999727
269,3,0.8,0.0625,-35.0,-1,1.0,0.41210000000000946
270,3,0.8,0.0625,-35.0,-1,1.0,0.4855000000002292
271,3,0.8,1.0,-35.0,-1,1.0,0.30330000000003565
272,3,0.8,0.0625,-35.0,-1,1.0,0.16350000000011278
273,3,0.8,1.0,35.0,-1,0.0,0.08919999999989159
274,3,0.8,0.25,-35.0,-1,1.0,0.25720000000001164
275,3,0.8,1.0,-35.0,-1,1.0,0.27340000000003783
276,3,0.8,0.0,-35.0,1,0.0,1.7008999999998196
277,3,0.8,0.0,-35.0,-1,1.0,0.4998000000000502
278,3,0.8,0.0,-35.0,-1,1.0,0.69399999999996
279,3,0.8,1.0,-35.0,-1,1.0,0.257200000000239
280,3,0.8,0.25,35.0,1,1.0,0.42399999999997817
281,3,0.8,0.25,-35.0,-1,1.0,0.2844999999997526
282,3,0.8,0.25,-35.0,-1,1.0,0.2806000000000495
283,3,0.8,1.0,-35.0,-1,1.0,0.28759999999988395
284,3,0.8,1.0,-35.0,-1,1.0,0.33760000000006585
285,3,0.8,0.125,-35.0,-1,1.0,0.3218000000001666
286,3,0.8,0.25,-35.0,-1,1.0,0.26109999999994216
287,3,0.8,1.0,35.0,1,1.0,0.2513000000001284
288,3,0.8,0.0,-35.0,1,0.0,2.0060000000000855
289,3,0.8,1.0,-35.0,-1,1.0,0.26279999999997017
290,3,0.8,0.0625,-35.0,-1,1.0,0.26830000000018117
291,3,0.8,0.125,35.0,1,1.0,0.26510000000007494
292,3,0.8,1.0,-35.0,-1,1.0,0.2659000000001015
293,3,0.8,1.0,35.0,1,1.0,0.6191000000001168
294,3,0.8,0.125,-35.0,-1,1.0,0.30199999999990723
295,3,0.8,1.0,-35.0,-1,1.0,0.20299999999997453
296,3,0.8,0.125,-35.0,-1,1.0,0.28999999999973625
297,3,0.8,0.125,-35.0,-1,1.0,0.30600000000004
298,3,0.8,1.0,-35.0,-1,1.0,0.17609999999990578
299,3,0.8,0.125,-35.0,-1,1.0,0.2840000000001055
300,3,0.8,0.125,-35.0,-1,1.0,0.07310000000029504
301,3,0.8,1.0,-35.0,-1,1.0,0.2802000000001499
302,3,0.8,0.25,35.0,1,1.0,0.3999999999998636
303,3,0.8,0.0,-35.0,1,0.0,0.20000000000004547
304,3,0.8,0.125,-35.0,-1,1.0,0.3001999999999043
305,3,0.8,0.25,-35.0,-1,1.0,0.2536999999999807
306,3,0.8,0.25,-35.0,-1,1.0,0.3924000000001797
