trial_num,session_num,stim_probability_left,contrast,position,response_choice,trial_correct,reaction_time
1,32,0.5,0.125,35.0,1,1.0,1.2738
2,32,0.5,1.0,35.0,1,1.0,0.48469999999999924
3,32,0.5,0.25,35.0,1,1.0,5.1777000000000015
4,32,0.5,0.125,-35.0,-1,1.0,0.6857000000000006
5,32,0.5,1.0,35.0,1,1.0,3.0198
6,32,0.5,0.0,35.0,1,1.0,2.4962000000000018
7,32,0.5,0.0,-35.0,-1,1.0,2.5798999999999985
8,32,0.5,0.25,-35.0,-1,1.0,0.44470000000000454
9,32,0.5,1.0,-35.0,-1,1.0,0.30579999999999785
10,32,0.5,0.0625,-35.0,-1,1.0,0.8506
11,32,0.5,0.125,-35.0,-1,1.0,3.688299999999998
12,32,0.5,0.25,35.0,1,1.0,0.5890000000000057
13,32,0.5,0.25,35.0,1,1.0,2.3215000000000003
14,32,0.5,0.0625,-35.0,1,0.0,2.0671000000000035
15,32,0.5,0.0,-35.0,1,0.0,2.044499999999992
16,32,0.5,0.0625,35.0,1,1.0,0.4590000000000032
17,32,0.5,0.25,35.0,1,1.0,0.296299999999988
18,32,0.5,0.0625,35.0,1,1.0,1.1783999999999821
19,32,0.5,0.0,35.0,-1,0.0,1.4852999999999952
20,32,0.7,0.0,-35.0,-1,1.0,5.203800000000001
21,32,0.5,1.0,-35.0,-1,1.0,0.4130009999999942
22,32,0.5,0.0625,-35.0,-1,1.0,2.0418009999999924
23,32,0.5,0.0,35.0,-1,0.0,0.30480099999999766
24,32,0.5,0.0625,-35.0,-1,1.0,0.5145010000000099
25,32,0.5,0.0625,35.0,1,1.0,0.4470010000000144
26,32,0.5,0.125,35.0,1,1.0,0.3756010000000174
27,32,0.5,1.0,-35.0,-1,1.0,0.26960100000000864
28,32,0.5,0.0,35.0,-1,0.0,1.7699010000000044
29,32,0.5,0.125,35.0,1,1.0,0.2741010000000017
30,32,0.5,1.0,-35.0,-1,1.0,0.3031010000000123
31,32,0.5,0.0625,35.0,-1,0.0,1.3218009999999936
32,32,0.5,0.25,35.0,-1,0.0,0.31300099999998565
33,32,0.3,0.25,35.0,1,1.0,0.28200100000000816
34,32,0.5,1.0,-35.0,-1,1.0,0.18180099999997879
35,32,0.5,0.25,-35.0,-1,1.0,0.2753010000000131
36,32,0.5,0.0,35.0,-1,0.0,0.9298009999999977
37,32,0.5,0.0625,35.0,1,1.0,0.3939009999999996
38,32,0.5,1.0,35.0,1,1.0,0.2770009999999843
39,32,0.5,1.0,35.0,1,1.0,0.24920099999997092
40,32,0.5,0.0625,35.0,-1,0.0,0.18500099999999975
41,32,0.5,0.0,35.0,1,1.0,0.3133009999999956
42,32,0.5,0.0625,-35.0,-1,1.0,2.3890010000000075
43,32,0.5,0.125,-35.0,-1,1.0,0.2781009999999924
44,32,0.5,0.0625,-35.0,-1,1.0,0.6631010000000117
45,32,0.5,1.0,-35.0,-1,1.0,0.4633010000000013
46,32,0.5,0.0625,35.0,-1,0.0,1.060500999999988
47,32,0.5,0.0625,-35.0,-1,1.0,0.46130099999999175
48,32,0.5,0.0,35.0,1,1.0,0.385501000000005
49,32,0.5,0.25,-35.0,-1,1.0,0.0897009999999625
50,32,0.5,0.0625,35.0,-1,0.0,0.5291009999999972
51,32,0.5,0.0625,35.0,1,1.0,0.307801000000012
52,32,0.5,1.0,-35.0,-1,1.0,0.39240099999997824
53,32,0.5,0.0,35.0,1,1.0,1.4409009999999967
54,32,0.5,1.0,-35.0,-1,1.0,0.25870100000000207
55,32,0.5,0.0625,35.0,1,1.0,0.13250099999999065
56,32,0.5,0.25,35.0,1,1.0,0.42050099999997315
57,32,0.5,0.125,35.0,1,1.0,0.3505010000000084
58,32,0.5,0.125,-35.0,-1,1.0,1.0706009999999822
59,32,0.5,0.0625,35.0,1,1.0,0.5935010000000034
60,32,0.5,1.0,35.0,1,1.0,0.2858009999999922
61,32,0.5,0.125,35.0,1,1.0,0.34750099999999406
62,32,0.5,1.0,-35.0,1,0.0,0.22160100000002103
63,32,0.8,1.0,35.0,1,1.0,0.4961009999999817
64,32,0.5,1.0,-35.0,-1,1.0,0.32220100000000684
65,32,0.5,0.0625,-35.0,-1,1.0,0.3195010000000025
66,32,0.5,0.0,-35.0,-1,1.0,0.4540010000000052
67,32,0.5,0.0,-35.0,-1,1.0,1.8931010000000015
68,32,0.5,0.25,35.0,1,1.0,0.29610099999999306
69,32,0.5,0.0625,-35.0,1,0.0,0.3707009999999684
70,32,0.5,0.125,-35.0,-1,1.0,0.44590100000004895
71,32,0.5,1.0,35.0,1,1.0,0.3529010000000312
72,32,0.5,0.125,35.0,1,1.0,0.38130100000000766
73,32,0.5,0.0625,-35.0,-1,1.0,2.173601000000019
74,32,0.5,0.0625,-35.0,-1,1.0,0.5089009999999803
75,32,0.5,1.0,35.0,1,1.0,1.4375009999999975
76,32,0.5,0.125,35.0,-1,0.0,0.3610010000000443
77,32,0.5,0.0625,-35.0,-1,1.0,0.41320100000001503
78,32,0.5,0.125,-35.0,-1,1.0,0.5209009999999807
79,32,0.5,0.125,35.0,-1,0.0,2.4928010000000427
80,32,0.5,0.125,-35.0,-1,1.0,0.3072010000000205
81,32,0.5,0.0625,-35.0,-1,1.0,0.34220099999998865
82,32,0.5,0.0625,35.0,-1,0.0,0.7958009999999831
83,32,0.5,0.25,-35.0,-1,1.0,0.22660100000001648
84,32,0.5,0.125,-35.0,-1,1.0,1.8381009999999947
85,32,0.5,0.25,35.0,-1,0.0,1.1752009999999586
86,32,0.5,0.125,-35.0,-1,1.0,0.4520010000000525
87,32,0.5,0.125,35.0,1,1.0,0.3803010000000313
88,32,0.5,0.125,-35.0,-1,1.0,0.2203010000000063
89,32,0.5,0.0,-35.0,1,0.0,0.44250100000004977
90,32,0.5,0.125,35.0,1,1.0,0.75320099999999
91,32,0.5,0.0625,35.0,1,1.0,0.7425010000000043
92,32,0.5,0.0625,35.0,1,1.0,0.4716009999999642
93,32,0.5,0.125,-35.0,-1,1.0,0.34730100000001585
94,32,0.5,1.0,35.0,1,1.0,0.35550100000000384
95,32,0.5,0.125,35.0,1,1.0,0.5715009999999552
96,32,0.5,1.0,-35.0,-1,1.0,0.0700010000000475
97,32,0.5,0.0625,35.0,-1,0.0,0.4269010000000435
98,32,0.5,0.125,-35.0,-1,1.0,0.48580099999998083
99,32,0.5,0.25,35.0,-1,0.0,0.8920010000000502
100,32,0.5,0.0625,-35.0,-1,1.0,0.269600999999966
101,32,0.5,0.25,-35.0,-1,1.0,0.35500100000001567
102,32,0.5,0.125,35.0,-1,0.0,0.18860100000000557
103,32,0.2,0.125,35.0,1,1.0,0.43730099999999084
104,32,0.5,1.0,35.0,1,1.0,0.3586010000000215
105,32,0.5,0.25,-35.0,-1,1.0,0.26090099999998984
106,32,0.5,1.0,35.0,1,1.0,0.3143000000000029
107,32,0.5,0.25,-35.0,-1,1.0,0.4587010000000191
108,32,0.5,0.0625,35.0,-1,0.0,1.3108009999999695
109,32,0.5,0.125,-35.0,-1,1.0,0.3018009999999549
110,32,0.5,0.125,35.0,1,1.0,0.8105010000000448
111,32,0.5,0.125,35.0,1,1.0,0.43080100000003085
112,32,0.5,0.0625,-35.0,-1,1.0,0.3479010000000926
113,32,0.5,0.125,35.0,1,1.0,0.6459010000000376
114,32,0.5,0.0625,-35.0,1,0.0,0.3405010000000175
115,32,0.5,0.0625,-35.0,1,0.0,0.5192010000000664
116,32,0.5,0.125,-35.0,-1,1.0,0.2818010000000868
117,32,0.5,0.0,35.0,1,1.0,0.2564010000000394
118,32,0.5,0.125,-35.0,-1,1.0,0.13250099999999065
119,32,0.5,0.0625,35.0,1,1.0,4.046201000000053
120,32,0.5,0.25,-35.0,-1,1.0,0.41720100000003413
121,32,0.5,0.0625,35.0,1,1.0,0.35770100000002003
122,32,0.5,1.0,35.0,1,1.0,0.3441010000000233
123,32,0.5,1.0,35.0,1,1.0,0.2781009999999924
124,32,0.5,0.125,35.0,1,1.0,0.4277010000000132
125,32,0.5,0.125,-35.0,-1,1.0,0.5906010000000492
126,32,0.5,0.25,-35.0,-1,1.0,0.2582010000000423
127,32,0.5,0.25,35.0,1,1.0,0.31000099999999975
128,32,0.5,0.25,-35.0,-1,1.0,0.3463010000000395
129,32,0.5,1.0,35.0,1,1.0,2.267701000000045
130,32,0.5,0.25,35.0,1,1.0,0.33740099999999984
131,32,0.5,0.0625,35.0,-1,0.0,1.789400999999998
132,32,0.5,0.125,35.0,1,1.0,0.3100010000000566
133,32,0.5,1.0,-35.0,-1,1.0,0.24730100000004995
134,32,0.5,0.25,35.0,1,1.0,0.2760010000000648
135,32,0.5,0.125,35.0,-1,0.0,0.5365010000000439
136,32,0.5,0.0,35.0,-1,0.0,0.25040100000001075
137,32,0.5,0.0625,35.0,-1,0.0,0.3815010000000143
138,32,0.5,0.25,35.0,1,1.0,0.3956009999999992
139,32,0.5,0.25,35.0,1,1.0,0.513601000000051
140,32,0.5,0.125,-35.0,-1,1.0,0.45710100000002285
141,32,0.5,1.0,-35.0,-1,1.0,0.2502010000000041
142,32,0.5,0.0625,-35.0,-1,1.0,3.208701000000019
143,32,0.5,0.25,-35.0,-1,1.0,0.48390000000000555
144,32,0.5,0.0625,35.0,1,1.0,0.6251010000000861
145,32,0.5,1.0,35.0,1,1.0,0.28650100000004386
146,32,0.5,0.0,35.0,1,1.0,0.4359010000000012
147,32,0.5,1.0,35.0,1,1.0,0.337900999999988
148,32,0.5,0.125,35.0,1,1.0,0.4409010000000535
149,32,0.5,0.125,-35.0,-1,1.0,0.33310100000005605
150,32,0.5,0.0625,-35.0,1,0.0,0.49850100000003295
151,32,0.5,0.25,35.0,1,1.0,0.5402010000001383
152,32,0.5,1.0,35.0,1,1.0,0.24980100000004768
153,32,0.5,0.125,-35.0,-1,1.0,0.24400100000013936
154,32,0.5,0.25,35.0,1,1.0,0.23690099999998893
155,32,0.5,0.125,35.0,1,1.0,0.4450009999999338
156,32,0.5,0.25,-35.0,-1,1.0,0.2658009999998967
157,32,0.5,1.0,-35.0,-1,1.0,0.2499009999999089
158,32,0.5,1.0,-35.0,-1,1.0,0.2670010000000502
159,32,0.5,0.25,35.0,1,1.0,0.5309010000000853
160,32,0.5,0.0,-35.0,1,0.0,1.636101000000167
161,32,0.5,0.125,-35.0,-1,1.0,0.26680099999998674
162,32,0.5,0.125,35.0,1,1.0,0.32110099999999875
163,32,0.5,0.25,35.0,1,1.0,2.273100999999997
164,32,0.5,0.0625,35.0,1,1.0,0.6311010000000579
165,32,0.5,0.125,-35.0,-1,1.0,0.2709010000000944
166,32,0.5,0.125,35.0,1,1.0,0.4131009999999833
167,32,0.5,0.0625,35.0,-1,0.0,0.37720100000001366
168,32,0.5,0.25,-35.0,-1,1.0,0.28020099999992
169,32,0.5,1.0,-35.0,-1,1.0,0.3810009999999693
170,32,0.5,0.125,35.0,1,1.0,0.03540099999997892
171,32,0.5,0.25,-35.0,-1,1.0,0.36390099999994163
172,32,0.5,0.0625,-35.0,-1,1.0,0.36160100000006423
173,32,0.5,1.0,-35.0,-1,1.0,0.20580100000006496
174,32,0.5,1.0,-35.0,-1,1.0,0.283600999999976
175,32,0.5,0.125,-35.0,-1,1.0,0.3626010000000406
176,32,0.5,0.0,-35.0,1,0.0,0.3183010000000195
177,32,0.5,0.25,35.0,1,1.0,0.2674009999999498
178,32,0.5,0.0,-35.0,-1,1.0,0.5358009999999922
179,32,0.5,0.0625,-35.0,-1,1.0,0.3964009999999689
180,32,0.5,0.25,35.0,-1,0.0,1.0588010000001304
181,32,0.2,0.25,35.0,1,1.0,0.44200100000011844
182,32,0.5,1.0,35.0,1,1.0,0.34550100000001294
183,32,0.5,1.0,35.0,1,1.0,0.2738010000000486
184,32,0.5,0.25,35.0,1,1.0,0.534601000000066
185,32,0.5,0.0625,-35.0,-1,1.0,0.16500100000007478
186,32,0.5,0.0,-35.0,-1,1.0,0.9386010000000624
187,32,0.5,1.0,-35.0,-1,1.0,0.2459009999998898
188,32,0.5,0.125,35.0,-1,0.0,0.3802009999999427
189,32,0.4,0.125,35.0,1,1.0,0.3380009999999629
190,32,0.5,1.0,35.0,1,1.0,0.38990100000000893
191,32,0.5,0.0625,-35.0,1,0.0,0.5605010000000448
192,32,0.5,0.25,-35.0,-1,1.0,0.3704010000000153
193,32,0.5,0.125,-35.0,-1,1.0,1.4388010000000122
194,32,0.5,0.125,35.0,-1,0.0,0.42180099999995946
195,32,0.3,0.125,-35.0,-1,1.0,0.5778010000000222
196,32,0.5,1.0,35.0,1,1.0,0.4738009999999804
197,32,0.5,0.25,35.0,1,1.0,0.32310100000006514
198,32,0.5,0.125,35.0,1,1.0,0.4486010000000533
199,32,0.5,1.0,35.0,1,1.0,0.055501000000049316
200,32,0.5,0.0,-35.0,1,0.0,1.0276010000000042
201,32,0.6,0.0,-35.0,1,0.0,1.3419010000000071
202,32,0.5,1.0,-35.0,-1,1.0,0.27030100000013135
203,32,0.5,0.0625,35.0,1,1.0,0.631001000000083
204,32,0.5,0.125,-35.0,-1,1.0,0.8774009999999635
205,32,0.5,0.25,35.0,-1,0.0,0.35550100000011753
206,32,0.7,0.25,-35.0,-1,1.0,0.623401000000058
207,32,0.5,1.0,35.0,1,1.0,0.3242010000000164
208,32,0.5,0.125,-35.0,1,0.0,1.4712010000000646
209,32,0.5,0.0,-35.0,1,0.0,1.6915009999999029
210,32,0.5,0.25,-35.0,-1,1.0,0.24210099999993417
211,32,0.5,0.0625,35.0,1,1.0,0.10320099999989907
212,32,0.5,0.25,-35.0,-1,1.0,0.5768010000000459
213,32,0.5,0.0625,-35.0,-1,1.0,1.5759010000000444
214,32,0.5,1.0,-35.0,-1,1.0,0.21940100000006169
215,32,0.5,0.25,35.0,1,1.0,0.257300999999984
216,32,0.5,0.125,35.0,-1,0.0,1.387000999999941
217,32,0.5,0.0625,35.0,-1,0.0,2.7674010000000635
218,32,0.5,0.0625,35.0,1,1.0,0.3538010000000895
219,32,0.5,0.25,-35.0,-1,1.0,0.4085010000000011
220,32,0.5,1.0,-35.0,-1,1.0,0.42960100000004786
221,32,0.5,0.125,35.0,1,1.0,0.42170099999998456
222,32,0.5,0.125,-35.0,-1,1.0,0.31280099999992217
223,32,0.5,0.25,-35.0,-1,1.0,0.30890099999999165
224,32,0.5,0.0625,35.0,1,1.0,0.3960010000000693
225,32,0.5,0.0625,-35.0,-1,1.0,0.44250099999999293
226,32,0.5,0.25,-35.0,-1,1.0,0.33700099999998656
227,32,0.5,0.25,-35.0,-1,1.0,0.27460100000007515
228,32,0.5,0.0625,-35.0,-1,1.0,0.2898010000000113
229,32,0.5,0.0625,-35.0,-1,1.0,0.2836010000000897
230,32,0.5,1.0,35.0,1,1.0,0.31890099999998256
231,32,0.5,0.125,-35.0,-1,1.0,3.5120010000000548
232,32,0.5,1.0,35.0,1,1.0,0.25470100000006823
233,32,0.5,0.0625,-35.0,-1,1.0,0.9998010000000477
234,32,0.5,0.0,35.0,-1,0.0,0.8888010000000577
235,32,0.2,0.0,35.0,1,1.0,0.20010099999990416
236,32,0.5,1.0,35.0,1,1.0,0.31280100000003586
237,32,0.5,0.0625,35.0,1,1.0,2.135801000000015
238,32,0.5,0.0625,35.0,1,1.0,0.42980099999999766
239,32,0.5,1.0,35.0,1,1.0,0.2940010000000939
240,32,0.5,0.25,-35.0,-1,1.0,0.3662010000000464
241,32,0.5,1.0,-35.0,-1,1.0,0.5662010000000919
242,32,0.5,0.0625,35.0,1,1.0,0.9044010000000071
243,32,0.5,0.25,35.0,1,1.0,0.485100999999986
244,32,0.5,0.125,35.0,-1,0.0,0.017201000000000022
245,32,0.5,0.125,-35.0,-1,1.0,0.5514010000000553
246,32,0.5,0.25,-35.0,1,0.0,0.04690100000004804
247,32,0.5,0.0625,35.0,1,1.0,0.3930010000000266
248,32,0.5,0.0,-35.0,1,0.0,0.5140010000000075
249,32,0.5,0.0625,-35.0,-1,1.0,0.4961009999999533
250,32,0.5,0.0625,-35.0,-1,1.0,1.0464009999999462
251,32,0.5,0.0625,-35.0,-1,1.0,2.469200999999998
252,32,0.5,0.0625,35.0,1,1.0,0.47810100000003786
253,32,0.5,0.125,35.0,1,1.0,0.29710099999999784
254,32,0.5,0.25,35.0,1,1.0,0.3442009999999982
255,32,0.5,1.0,-35.0,-1,1.0,0.27640099999996437
256,32,0.5,0.25,35.0,1,1.0,0.33290099999999256
257,32,0.5,0.0,35.0,-1,0.0,0.42200100000002294
258,32,0.5,0.125,-35.0,-1,1.0,0.8539010000000644
259,32,0.5,0.125,-35.0,-1,1.0,0.29130099999986214
260,32,0.5,0.0625,-35.0,-1,1.0,1.2302010000000791
261,32,0.5,0.125,35.0,1,1.0,0.5265009999999393
262,32,0.5,0.125,-35.0,-1,1.0,0.28240100000004986
263,32,0.5,0.125,-35.0,-1,1.0,0.3043010000000095
264,32,0.5,0.0,35.0,-1,0.0,0.08930099999997765
265,32,0.5,0.25,-35.0,-1,1.0,0.43370100000004186
266,32,0.5,1.0,-35.0,-1,1.0,0.3621010000000524
267,32,0.5,0.125,35.0,1,1.0,0.49650100000008024
268,32,0.5,1.0,35.0,1,1.0,0.303801000000135
269,32,0.5,1.0,-35.0,-1,1.0,0.19040099999995164
270,32,0.5,0.25,-35.0,-1,1.0,0.29250100000012935
271,32,0.5,0.0,35.0,-1,0.0,0.5052010000000564
272,32,0.5,0.0,35.0,1,1.0,2.369301000000064
273,32,0.5,0.125,-35.0,1,0.0,0.1951010000000224
274,32,0.4,0.125,-35.0,-1,1.0,0.4446010000000342
275,32,0.5,1.0,-35.0,-1,1.0,0.28260099999999966
276,32,0.5,0.0,-35.0,-1,1.0,0.14390100000002803
277,32,0.5,0.25,-35.0,-1,1.0,0.027200999999990927
278,32,0.5,0.25,-35.0,-1,1.0,0.2779010000000426
279,32,0.5,0.25,35.0,1,1.0,0.4049009999999953
280,32,0.5,1.0,-35.0,-1,1.0,0.1889010000001008
281,32,0.5,0.25,35.0,-1,0.0,0.11180100000001403
282,32,0.5,0.25,35.0,-1,0.0,0.615901000000008
283,32,0.5,0.25,35.0,1,1.0,0.35110099999997146
284,32,0.5,1.0,-35.0,-1,1.0,0.6804010000000744
285,32,0.5,1.0,35.0,-1,0.0,0.3266009999999824
286,32,0.5,0.25,35.0,1,1.0,0.3308009999999513
287,32,0.5,0.0625,-35.0,-1,1.0,0.6529010000000426
288,32,0.5,0.25,-35.0,-1,1.0,0.35580099999992854
289,32,0.5,0.0,35.0,-1,0.0,0.1143010000000686
290,32,0.5,0.25,-35.0,-1,1.0,0.31090100000005805
291,32,0.5,0.25,35.0,1,1.0,0.3403010000000677
292,32,0.5,0.0,35.0,1,1.0,1.2820010000000366
293,32,0.5,1.0,35.0,1,1.0,0.3440010000000484
294,32,0.5,0.0625,35.0,1,1.0,0.40360099999998056
295,32,0.5,0.0,-35.0,-1,1.0,1.5970009999999775
296,32,0.5,0.0625,-35.0,-1,1.0,0.5506010000000288
297,32,0.5,0.0625,-35.0,-1,1.0,1.1439009999999143
298,32,0.5,1.0,-35.0,-1,1.0,0.2572010000000091
299,32,0.5,0.25,35.0,1,1.0,0.6805010000000493
300,32,0.5,0.125,-35.0,-1,1.0,0.35730100000000675
301,32,0.5,0.125,-35.0,-1,1.0,0.7106009999999969
302,32,0.5,0.25,-35.0,-1,1.0,0.4909010000001217
303,32,0.5,0.125,-35.0,-1,1.0,0.44770100000005186
304,32,0.5,0.125,35.0,-1,0.0,1.4643009999999776
305,32,0.5,0.125,35.0,1,1.0,0.8710009999999784
306,32,0.5,0.0625,35.0,-1,0.0,1.5845010000000457
307,32,0.5,0.25,-35.0,-1,1.0,0.22470099999986815
308,32,0.5,0.25,35.0,1,1.0,0.32450100000028215
309,32,0.5,0.0,-35.0,-1,1.0,0.4184010000001308
310,32,0.5,0.25,35.0,1,1.0,0.38540100000000166
311,32,0.5,1.0,35.0,1,1.0,0.3082010000000537
312,32,0.5,0.0625,-35.0,-1,1.0,0.6915010000000166
313,32,0.5,1.0,35.0,1,1.0,0.3549009999999271
314,32,0.5,0.125,35.0,-1,0.0,0.4485010000000784
315,32,0.5,0.125,-35.0,-1,1.0,0.2654010000001108
316,32,0.5,0.125,-35.0,-1,1.0,0.41550099999994927
317,32,0.5,1.0,35.0,1,1.0,0.39180099999975937
318,32,0.5,0.25,-35.0,-1,1.0,0.18560100000013335
319,32,0.5,0.25,-35.0,-1,1.0,0.7318010000001323
320,32,0.5,0.25,-35.0,-1,1.0,0.601900999999998
321,32,0.5,0.25,35.0,1,1.0,0.09970100000009552
322,32,0.5,1.0,35.0,1,1.0,0.4755009999998947
323,32,0.5,0.0,-35.0,-1,1.0,0.35870100000011007
324,32,0.5,1.0,-35.0,-1,1.0,0.23220100000003185
325,32,0.5,0.125,35.0,1,1.0,1.7689010000001417
326,32,0.5,0.125,-35.0,-1,1.0,0.5062010000001465
327,32,0.5,0.125,35.0,-1,0.0,0.27580100000022867
328,32,0.5,0.0,-35.0,1,0.0,1.0763010000000577
329,32,0.4,0.0,35.0,-1,0.0,0.3991009999997459
330,32,0.5,1.0,35.0,1,1.0,0.7229009999998652
331,32,0.5,0.0,35.0,-1,0.0,1.195901000000049
332,32,0.5,0.25,-35.0,-1,1.0,0.08950099999992744
333,32,0.5,1.0,-35.0,-1,1.0,0.2594010000000253
334,32,0.5,0.25,35.0,1,1.0,0.04310099999997874
335,32,0.5,0.0,35.0,1,1.0,0.12300099999993108
336,32,0.5,0.0625,35.0,-1,0.0,0.05000100000006569
337,32,0.5,0.125,35.0,1,1.0,0.46630100000015773
338,32,0.5,0.25,35.0,1,1.0,0.3463010000000395
339,32,0.5,0.0,-35.0,-1,1.0,0.14000099999998383
340,32,0.5,0.25,35.0,1,1.0,0.3200009999998201
341,32,0.5,1.0,-35.0,-1,1.0,0.2901010000000497
342,32,0.5,1.0,35.0,1,1.0,0.33710100000007515
343,32,0.5,1.0,35.0,1,1.0,0.36330100000009224
344,32,0.5,0.0625,-35.0,-1,1.0,0.30670099999997547
345,32,0.5,1.0,-35.0,-1,1.0,0.2735009999998965
346,32,0.5,1.0,-35.0,-1,1.0,0.1968010000000504
347,32,0.5,0.125,-35.0,-1,1.0,0.31040100000018356
348,32,0.5,0.25,35.0,1,1.0,0.35710100000005696
349,32,0.5,0.0625,35.0,-1,0.0,1.183500999999751
350,32,0.5,0.0625,-35.0,-1,1.0,0.28420100000016646
351,32,0.5,0.0625,35.0,1,1.0,0.7643009999999322
352,32,0.5,0.125,35.0,1,1.0,1.6607010000000173
353,32,0.5,1.0,-35.0,-1,1.0,0.2574010000000726
354,32,0.5,0.0625,35.0,1,1.0,0.12400099999990744
355,32,0.5,0.0,35.0,1,1.0,2.0008009999999103
356,32,0.5,0.0625,-35.0,-1,1.0,0.44440099999997074
357,32,0.5,0.0625,-35.0,-1,1.0,-0.0024989999999434076
358,32,0.5,1.0,-35.0,-1,1.0,0.18800099999998565
359,32,0.5,0.25,35.0,1,1.0,0.5543009999998958
360,32,0.5,0.25,-35.0,-1,1.0,0.22760100000027705
361,32,0.5,1.0,35.0,1,1.0,0.29450100000008206
362,32,0.5,0.0625,-35.0,-1,1.0,2.4915010000001985
363,32,0.5,1.0,35.0,1,1.0,0.3315010000001166
364,32,0.5,0.25,35.0,1,1.0,0.394600999999966
365,32,0.5,1.0,-35.0,-1,1.0,0.27850100000000566
366,32,0.5,0.25,35.0,1,1.0,2.541501000000153
367,32,0.5,0.0625,35.0,1,1.0,0.41160100000024613
368,32,0.5,1.0,35.0,1,1.0,0.32490100000018174
369,32,0.5,1.0,35.0,1,1.0,0.24870100000021012
370,32,0.5,0.125,35.0,1,1.0,1.2650009999997565
371,32,0.5,0.0625,35.0,1,1.0,0.6116009999998369
372,32,0.5,0.0625,35.0,1,1.0,0.4085010000001148
373,32,0.5,0.0,35.0,-1,0.0,2.1752010000000155
374,32,0.5,0.125,-35.0,-1,1.0,0.5588009999999031
375,32,0.5,1.0,35.0,1,1.0,0.6620009999999183
376,32,0.5,1.0,35.0,1,1.0,0.3521010000001752
377,32,0.5,0.125,-35.0,-1,1.0,0.8288010000001123
378,32,0.5,0.0,-35.0,-1,1.0,0.595801000000165
379,32,0.5,0.0,35.0,-1,0.0,0.8962010000000191
380,32,0.5,0.25,35.0,-1,0.0,0.6195009999999002
381,32,0.4,0.25,35.0,-1,0.0,0.04930100000001403
382,32,0.5,1.0,35.0,1,1.0,0.5190010000001166
383,32,0.5,0.125,35.0,1,1.0,1.2623009999999795
384,32,0.5,0.125,35.0,1,1.0,0.3561010000000806
385,32,0.5,1.0,35.0,1,1.0,0.3060010000001512
386,32,0.5,0.0,-35.0,1,0.0,2.4794010000000526
387,32,0.5,0.25,-35.0,-1,1.0,0.3262009999998554
388,32,0.5,0.125,-35.0,1,0.0,2.1862009999999827
389,32,0.5,0.0625,-35.0,-1,1.0,0.12360100000000784
390,32,0.5,0.25,-35.0,-1,1.0,0.3365009999999984
391,32,0.5,0.25,35.0,-1,0.0,0.37690100000031634
392,32,0.5,0.0,-35.0,-1,1.0,0.22020100000008824
393,32,0.5,0.25,35.0,1,1.0,0.3802010000001701
394,32,0.5,0.0625,35.0,1,1.0,0.6134009999998398
395,32,0.5,0.25,-35.0,-1,1.0,0.2533010000001923
396,32,0.5,1.0,35.0,1,1.0,0.3968010000000959
397,32,0.5,0.0625,-35.0,-1,1.0,0.48030100000005405
398,32,0.5,0.125,-35.0,-1,1.0,0.03040099999998347
399,32,0.5,0.0,-35.0,-1,1.0,0.01350100000013299
400,32,0.5,0.0625,35.0,1,1.0,0.8935010000000148
401,32,0.5,0.25,-35.0,-1,1.0,0.3045009999998456
402,32,0.5,0.125,-35.0,-1,1.0,0.3973009999999704
403,32,0.5,1.0,35.0,-1,0.0,0.08040100000016537
404,32,0.5,0.0625,-35.0,-1,1.0,2.2874010000000453
405,32,0.5,1.0,-35.0,-1,1.0,0.2774010000000544
406,32,0.5,0.0625,-35.0,-1,1.0,0.2675010000000384
407,32,0.5,0.25,35.0,1,1.0,0.29470100000025923
408,32,0.5,1.0,-35.0,-1,1.0,0.5175010000000384
409,32,0.5,0.0625,35.0,1,1.0,0.34110099999998056
410,32,0.5,0.125,-35.0,-1,1.0,0.3245010000000548
411,32,0.5,0.125,-35.0,-1,1.0,0.551001000000042
412,32,0.5,0.0,-35.0,1,0.0,0.41160100000001876
413,32,0.5,0.0625,-35.0,-1,1.0,0.2777010000002065
414,32,0.5,0.0,-35.0,-1,1.0,0.3016010000001188
415,32,0.5,0.0,35.0,-1,0.0,0.14460100000019338
416,32,0.3,0.0,35.0,1,1.0,0.907901000000038
417,32,0.5,1.0,-35.0,-1,1.0,0.27480100000002494
418,32,0.5,0.0625,35.0,1,1.0,0.3948009999999158
419,32,0.5,0.0625,-35.0,-1,1.0,2.5417009999998754
420,32,0.5,1.0,-35.0,1,0.0,0.108400999999958
421,32,0.5,0.25,35.0,1,1.0,0.4818009999999049
422,32,0.5,0.0,-35.0,-1,1.0,1.6919009999999162
423,32,0.5,0.25,-35.0,-1,1.0,0.25890099999992344
424,32,0.5,1.0,35.0,1,1.0,1.9623010000002523
425,32,0.5,0.0,35.0,-1,0.0,0.3988009999998212
426,32,0.5,0.125,-35.0,-1,1.0,0.8090010000000802
427,32,0.5,0.0625,35.0,-1,0.0,1.0990010000000439
428,32,0.4,0.0625,-35.0,-1,1.0,0.7756009999998241
429,32,0.5,1.0,35.0,1,1.0,0.3860010000000784
430,32,0.5,0.125,35.0,1,1.0,0.3459010000001399
431,32,0.5,0.0,-35.0,1,0.0,0.07610100000010789
432,32,0.4,0.0,35.0,-1,0.0,2.3759010000001126
433,32,0.5,1.0,-35.0,-1,1.0,0.28630100000009406
434,32,0.5,0.125,-35.0,-1,1.0,0.4531010000000606
435,32,0.5,0.25,35.0,-1,0.0,0.3862010000000282
436,32,0.5,0.25,35.0,-1,0.0,1.8095009999999547
437,32,0.5,0.25,35.0,1,1.0,0.30300099999999475
438,32,0.5,1.0,35.0,1,1.0,0.37650099999973463
439,32,0.5,0.0,35.0,-1,0.0,0.2033010000000104
440,32,0.5,0.0625,-35.0,-1,1.0,0.5498009999998885
441,32,0.5,0.25,-35.0,-1,1.0,0.23650100000008933
442,32,0.5,0.125,35.0,1,1.0,0.33680100000015045
443,32,0.5,0.25,35.0,-1,0.0,0.5966010000001916
444,32,0.5,0.125,35.0,1,1.0,0.633401000000049
445,32,0.5,0.0,35.0,-1,0.0,0.5969010000001163
446,32,0.4,0.0,35.0,1,1.0,2.3936009999999897
447,32,0.5,1.0,35.0,1,1.0,0.6171009999998205
448,32,0.5,0.25,35.0,1,1.0,0.6071010000002843
449,32,0.5,0.25,-35.0,-1,1.0,0.3340010000001712
450,32,0.5,1.0,-35.0,-1,1.0,0.4046010000001843
451,32,0.5,1.0,-35.0,-1,1.0,0.24400100000002567
452,32,0.5,1.0,-35.0,1,0.0,0.01400100000000748
453,32,0.5,0.0625,35.0,-1,0.0,1.3307009999998627
454,32,0.5,0.0625,35.0,1,1.0,0.6775009999998929
455,32,0.5,1.0,35.0,1,1.0,0.28420100000016646
456,32,0.5,1.0,35.0,1,1.0,0.4810010000003331
457,32,0.5,0.25,-35.0,-1,1.0,0.4911010000002989
458,32,0.5,1.0,-35.0,-1,1.0,0.3843010000000504
459,32,0.5,0.125,35.0,1,1.0,2.1577010000000882
460,32,0.5,0.0625,-35.0,-1,1.0,0.4847010000000864
461,32,0.5,0.25,-35.0,-1,1.0,0.4678009999997812
462,32,0.5,0.125,-35.0,-1,1.0,0.3179010000001199
463,32,0.5,1.0,-35.0,-1,1.0,0.24800100000015846
464,32,0.5,0.0,35.0,1,1.0,0.4618009999999231
465,32,0.5,0.25,-35.0,-1,1.0,0.0883010000000013
466,32,0.5,0.0,-35.0,1,0.0,0.5284010000000308
467,32,0.5,0.0625,35.0,1,1.0,0.6415009999998347
468,32,0.5,1.0,-35.0,-1,1.0,0.27490099999999984
469,32,0.5,0.0625,-35.0,-1,1.0,2.838400999999749
470,32,0.5,1.0,35.0,1,1.0,0.23500100000001112
471,32,0.5,0.0625,-35.0,-1,1.0,0.5219010000000708
472,32,0.5,1.0,-35.0,-1,1.0,0.14190099999996164
473,32,0.5,1.0,-35.0,-1,1.0,0.2551009999999678
474,32,0.5,0.0625,35.0,-1,0.0,2.8922010000001137
475,32,0.5,0.25,35.0,1,1.0,0.4159010000003036
476,32,0.5,0.0625,-35.0,1,0.0,1.7754010000001017
477,32,0.5,0.0625,-35.0,1,0.0,0.41580099999987397
478,32,0.4,0.0625,-35.0,-1,1.0,0.3861010000000533
479,32,0.5,1.0,-35.0,-1,1.0,0.20620099999996455
480,32,0.5,0.0625,35.0,-1,0.0,0.34910100000001876
481,32,0.5,0.0625,35.0,-1,0.0,0.7960010000001603
482,32,0.5,0.125,-35.0,-1,1.0,0.31920100000002094
483,32,0.5,0.125,-35.0,-1,1.0,0.3361009999998714
484,32,0.5,1.0,-35.0,-1,1.0,0.2531010000000151
485,32,0.5,0.0625,-35.0,-1,1.0,2.376400999999987
486,32,0.5,1.0,35.0,1,1.0,0.4429010000001199
487,32,0.5,0.0625,35.0,1,1.0,2.029600999999957
488,32,0.5,1.0,-35.0,-1,1.0,0.21640099999990525
489,32,0.5,0.0,35.0,1,1.0,0.9564009999999143
490,32,0.5,0.0,-35.0,-1,1.0,0.5232010000001992
491,32,0.5,0.0625,35.0,1,1.0,0.7168010000000322
492,32,0.5,0.0625,35.0,1,1.0,0.7135009999999511
493,32,0.5,0.0,35.0,-1,0.0,1.8735009999998056
494,32,0.5,0.25,35.0,1,1.0,0.9869009999999889
495,32,0.5,0.125,35.0,-1,0.0,0.9340009999998529
496,32,0.5,0.0625,35.0,1,1.0,0.180800999999974
497,32,0.5,0.125,35.0,-1,0.0,0.21380100000010316
498,32,0.5,0.0625,35.0,1,1.0,0.1106009999998605
499,32,0.5,0.0,35.0,1,1.0,1.6106009999998605
500,32,0.5,0.0625,-35.0,-1,1.0,1.0177009999999882
501,32,0.5,1.0,-35.0,-1,1.0,0.2777009999999791
502,32,0.5,1.0,-35.0,-1,1.0,0.22400100000004386
503,32,0.5,0.0,-35.0,1,0.0,1.3677010000001246
504,32,0.5,0.0,35.0,-1,0.0,0.4976009999998041
505,32,0.5,1.0,-35.0,-1,1.0,0.31100100000003295
506,32,0.5,0.0625,-35.0,1,0.0,1.9578010000000177
507,32,0.5,0.0,35.0,1,1.0,0.36480100000017046
508,32,0.5,0.0,-35.0,1,0.0,2.7379009999999653
509,32,0.5,0.25,35.0,-1,0.0,0.9550010000000384
510,32,0.5,0.0625,35.0,-1,0.0,0.4549010000000635
511,32,0.5,0.0625,35.0,-1,0.0,2.4514010000000326
512,32,0.4,0.0625,35.0,1,1.0,0.4715009999999893
513,32,0.5,1.0,35.0,1,1.0,4.068300999999792
514,32,0.5,0.125,35.0,-1,0.0,0.24510099999997692
515,32,0.5,0.0,35.0,-1,0.0,1.8953010000000177
516,32,0.5,0.0625,-35.0,-1,1.0,0.342000999999982
517,32,0.5,1.0,-35.0,-1,1.0,0.43210100000010243
518,32,0.5,0.0,35.0,1,1.0,6.102200999999923
519,32,0.5,0.0625,35.0,1,1.0,0.2792010000002847
520,32,0.5,1.0,35.0,1,1.0,0.569101000000046
521,32,0.5,0.0625,35.0,1,1.0,2.153101000000106
522,32,0.5,0.0625,-35.0,-1,1.0,1.6557010000001355
523,32,0.5,1.0,-35.0,-1,1.0,0.2893010000000231
524,32,0.5,0.125,-35.0,-1,1.0,0.3927009999999882
525,32,0.5,1.0,-35.0,-1,1.0,0.27260100000012244
526,32,0.5,0.125,-35.0,-1,1.0,0.24620099999992817
527,32,0.5,1.0,-35.0,-1,1.0,0.21620100000018283
528,32,0.5,0.0625,-35.0,-1,1.0,0.19640099999992344
529,32,0.5,0.25,35.0,1,1.0,0.5467009999999846
530,32,0.5,0.0625,-35.0,1,0.0,4.367001000000073
531,32,0.5,0.125,35.0,1,1.0,0.9597009999999955
532,32,0.5,0.0625,-35.0,1,0.0,3.3099010000000817
533,32,0.5,0.25,-35.0,-1,1.0,0.41360100000019884
534,32,0.5,1.0,35.0,1,1.0,0.3706009999998514
535,32,0.5,0.0625,-35.0,-1,1.0,2.5368009999999686
536,32,0.5,0.125,35.0,1,1.0,1.9737010000001192
537,32,0.5,0.25,35.0,1,1.0,0.5536010000000715
538,32,0.5,0.125,-35.0,-1,1.0,0.35370100000000093
539,32,0.5,0.125,35.0,-1,0.0,1.5505009999999402
540,32,0.5,0.0625,35.0,1,1.0,0.230701000000181
541,32,0.5,0.25,35.0,1,1.0,0.2873010000000704
542,32,0.5,0.25,-35.0,-1,1.0,0.23780099999999038
543,32,0.5,0.125,35.0,-1,0.0,1.8708010000000286
544,32,0.5,0.0625,35.0,1,1.0,0.8579010000000835
545,32,0.5,0.25,35.0,1,1.0,0.7110009999998965
546,32,0.5,0.0625,-35.0,-1,1.0,0.36780099999987215
547,32,0.5,0.25,-35.0,-1,1.0,0.2743009999999231
548,32,0.5,1.0,35.0,1,1.0,0.3044009999998707
549,32,0.5,0.0,-35.0,-1,1.0,0.04800099999988561
550,32,0.5,0.0625,35.0,1,1.0,1.8580010000000584
551,32,0.5,0.0,-35.0,-1,1.0,1.4613010000000486
552,32,0.5,0.0625,-35.0,-1,1.0,0.35800099999983104
553,32,0.5,0.0625,-35.0,-1,1.0,0.4650010000000293
554,32,0.5,0.25,35.0,1,1.0,0.43210100000010243
555,32,0.5,0.0625,-35.0,-1,1.0,0.5549009999999726
556,32,0.5,0.25,-35.0,-1,1.0,0.3017009999998663
557,32,0.5,0.0625,-35.0,-1,1.0,0.3221010000002025
558,32,0.5,0.0625,-35.0,-1,1.0,0.7492010000000846
559,32,0.5,0.125,35.0,1,1.0,0.28540099999986523
560,32,0.5,0.25,-35.0,-1,1.0,0.27850100000000566
561,32,0.5,0.0625,-35.0,-1,1.0,0.5888010000001032
562,32,0.5,1.0,35.0,1,1.0,0.595401000000038
563,32,0.5,0.125,-35.0,-1,1.0,0.1787010000000464
564,32,0.5,1.0,-35.0,-1,1.0,0.2923009999999522
565,32,0.5,0.0625,-35.0,-1,1.0,0.015601000000060594
566,32,0.5,1.0,35.0,1,1.0,0.05890099999987797
567,32,0.5,0.0625,-35.0,-1,1.0,0.3923010000000886
568,32,0.5,0.125,35.0,1,1.0,0.5024009999999635
569,32,0.5,0.125,35.0,1,1.0,0.5294010000000071
570,32,0.5,0.125,-35.0,-1,1.0,0.3926010000000133
571,32,0.5,0.25,35.0,1,1.0,0.38310100000012426
572,32,0.5,0.0,-35.0,-1,1.0,0.4995009999997819
573,32,0.5,0.0,35.0,-1,0.0,1.4694010000000617
574,32,0.5,0.0,-35.0,1,0.0,2.583001000000195
575,32,0.5,0.0625,35.0,1,1.0,0.3266009999999824
576,32,0.5,0.0625,-35.0,-1,1.0,1.7497009999997317
577,32,0.5,0.0,-35.0,1,0.0,0.7270009999999729
578,32,0.6,0.0,35.0,-1,0.0,0.02340099999969425
579,32,0.5,1.0,-35.0,-1,1.0,0.20030099999985396
580,32,0.5,0.0625,35.0,1,1.0,0.42360099999996237
581,32,0.5,1.0,-35.0,-1,1.0,0.42680099999961385
582,32,0.5,1.0,-35.0,-1,1.0,0.2541009999999915
583,32,0.5,0.0,-35.0,1,0.0,0.6269009999996342
584,32,0.5,0.25,-35.0,-1,1.0,0.32390099999975064
585,32,0.5,0.25,-35.0,-1,1.0,0.2273009999998976
586,32,0.5,1.0,35.0,1,1.0,0.040600999999696796
587,32,0.5,0.125,-35.0,-1,1.0,1.2206009999999878
588,32,0.5,1.0,35.0,1,1.0,0.36110099999996237
589,32,0.5,0.0625,35.0,-1,0.0,2.0074009999998452
590,32,0.4,0.0625,35.0,1,1.0,0.5475010000000111
591,32,0.5,1.0,-35.0,-1,1.0,0.33100099999956
592,32,0.5,0.125,-35.0,-1,1.0,0.35800099999960366
593,32,0.5,0.0625,-35.0,-1,1.0,3.06800099999964
594,32,0.5,0.25,35.0,1,1.0,0.3381009999993694
595,32,0.5,0.125,35.0,1,1.0,0.5016009999994822
596,32,0.5,0.125,-35.0,-1,1.0,0.42810099999996964
597,32,0.5,0.125,35.0,1,1.0,0.6081009999998059
598,32,0.5,0.125,-35.0,-1,1.0,0.4147010000001501
599,32,0.5,0.0625,35.0,1,1.0,0.39810099999976956
600,32,0.5,0.0,-35.0,1,0.0,0.44220099999984086
601,32,0.5,0.0,35.0,-1,0.0,0.108400999999958
602,32,0.5,1.0,35.0,1,1.0,0.3552009999998518
603,32,0.5,0.125,35.0,-1,0.0,0.10230099999989761
604,32,0.5,0.0,-35.0,-1,1.0,0.025300999999672058
605,32,0.5,1.0,35.0,1,1.0,0.21860099999958038
606,32,0.5,0.0625,35.0,1,1.0,0.44230100000004313
607,32,0.5,0.0625,-35.0,1,0.0,0.17890099999976883
608,32,0.5,0.0625,35.0,-1,0.0,1.1724009999998088
609,32,0.5,0.125,35.0,1,1.0,0.3489009999998416
610,32,0.5,1.0,-35.0,-1,1.0,0.2694010000000162
611,32,0.5,0.25,35.0,1,1.0,0.6857009999998809
612,32,0.5,0.0,-35.0,-1,1.0,0.9696009999997841
613,32,0.5,0.0625,35.0,-1,0.0,0.11280100000021775
614,32,0.5,0.25,35.0,1,1.0,0.40250099999957456
615,32,0.5,0.0625,35.0,-1,0.0,1.8858009999994465
616,32,0.5,0.25,-35.0,-1,1.0,2.9966009999998278
617,32,0.5,0.0625,35.0,-1,0.0,3.2463009999996757
618,32,0.5,0.0625,-35.0,-1,1.0,0.7897010000001501
619,32,0.5,0.25,-35.0,-1,1.0,0.3598009999996066
620,32,0.5,1.0,-35.0,-1,1.0,0.28310099999998783
621,32,0.5,1.0,35.0,1,1.0,0.33980099999962476
622,32,0.5,0.0,-35.0,-1,1.0,0.5566009999993184
623,32,0.5,0.0,-35.0,-1,1.0,0.6200009999997746
624,32,0.5,0.0625,35.0,-1,0.0,1.0799009999996088
625,32,0.1,0.0625,-35.0,1,0.0,0.38380099999994854
626,32,0.5,1.0,35.0,1,1.0,0.25670099999979357
627,32,0.5,0.25,-35.0,-1,1.0,0.36010099999975864
628,32,0.5,0.25,-35.0,-1,1.0,0.34710099999938393
629,32,0.5,1.0,35.0,1,1.0,0.2768009999995229
630,32,0.5,0.125,-35.0,-1,1.0,0.296900999999707
631,32,0.5,1.0,35.0,1,1.0,0.603900999999496
632,32,0.5,0.0625,-35.0,-1,1.0,1.8872010000000046
633,32,0.5,1.0,35.0,1,1.0,0.20390099999985978
634,32,0.5,0.25,-35.0,-1,1.0,0.3273010000002614
635,32,0.5,0.125,35.0,-1,0.0,1.0440010000002076
636,32,0.5,0.0625,35.0,1,1.0,0.8510009999999966
637,32,0.5,1.0,-35.0,-1,1.0,0.2642009999999573
638,32,0.5,0.0625,35.0,-1,0.0,0.9381009999997332
639,32,0.5,0.25,-35.0,-1,1.0,0.10100099999999657
640,32,0.5,0.0,35.0,-1,0.0,1.9611009999994167
641,32,0.5,0.125,-35.0,-1,1.0,0.031200999999327905
642,32,0.5,1.0,-35.0,-1,1.0,0.227900999999747
643,32,0.5,0.0625,35.0,1,1.0,0.9848009999996066
644,32,0.5,0.0,-35.0,1,0.0,0.5212009999995644
645,32,0.5,0.0625,-35.0,-1,1.0,0.3515009999996437
646,32,0.5,0.25,-35.0,-1,1.0,0.2413010000000213
647,32,0.5,0.0625,-35.0,1,0.0,1.8983009999997194
648,32,0.5,0.0625,35.0,-1,0.0,0.1520009999994727
649,32,0.5,0.0625,35.0,1,1.0,0.34500100000013845
650,32,0.5,0.125,35.0,1,1.0,1.671900999999707
651,32,0.5,0.0625,35.0,1,1.0,0.49240099999997256
652,32,0.5,0.0625,-35.0,1,0.0,0.2554009999998925
653,32,0.5,0.125,-35.0,-1,1.0,0.3086009999997259
654,32,0.5,0.0,35.0,-1,0.0,0.22540099999969243
655,32,0.5,0.125,35.0,1,1.0,0.42550099999925806
656,32,0.5,1.0,-35.0,-1,1.0,0.37890099999958693
657,32,0.5,0.125,-35.0,1,0.0,0.1525010000000293
658,32,0.5,0.125,-35.0,-1,1.0,0.5195009999997637
659,32,0.5,0.0,35.0,1,1.0,2.3390009999998256
660,32,0.5,0.125,-35.0,-1,1.0,0.35580099999970116
661,32,0.5,0.0625,-35.0,1,0.0,0.5527009999996153
662,32,0.5,0.125,-35.0,-1,1.0,0.3459010000001399
663,32,0.5,0.0625,-35.0,-1,1.0,2.046700999999757
664,32,0.5,0.125,-35.0,-1,1.0,0.35950099999990925
665,32,0.5,0.125,-35.0,-1,1.0,6.589800999999625
666,32,0.5,0.25,35.0,1,1.0,0.6330009999996946
667,32,0.5,0.25,35.0,1,1.0,0.30340099999966696
668,32,0.5,0.0,-35.0,-1,1.0,2.7433009999995193
669,32,0.5,0.0625,-35.0,-1,1.0,0.42690100000027087
670,32,0.5,1.0,-35.0,-1,1.0,0.25690099999974336
671,32,0.5,0.125,-35.0,1,0.0,2.4101009999999405
672,32,0.5,0.25,-35.0,-1,1.0,0.09020099999952436
673,32,0.5,1.0,35.0,1,1.0,0.3370009999994181
674,32,0.5,1.0,-35.0,-1,1.0,0.25750099999959275
675,32,0.5,0.0625,-35.0,-1,1.0,5.377200999999786
676,32,0.5,0.25,35.0,-1,0.0,0.6140009999994618
677,32,0.5,0.25,35.0,1,1.0,0.9072009999995316
678,32,0.5,0.25,-35.0,-1,1.0,0.3043009999996684
679,32,0.5,0.25,35.0,1,1.0,0.6341010000001006
680,32,0.5,1.0,35.0,1,1.0,0.32410099999970043
681,32,0.5,0.125,35.0,1,1.0,0.8116009999998823
682,32,0.5,0.0625,35.0,-1,0.0,0.37180099999977756
683,32,0.5,0.0,-35.0,1,0.0,0.45840099999986705
684,32,0.5,0.25,-35.0,-1,1.0,0.2585009999997965
685,32,0.5,0.125,-35.0,-1,1.0,1.7053009999995083
686,32,0.5,0.0,35.0,-1,0.0,0.2720009999998183
687,32,0.5,0.0,-35.0,-1,1.0,0.38210099999969316
688,32,0.5,1.0,-35.0,-1,1.0,0.26210099999934755
689,32,0.5,0.0625,35.0,1,1.0,0.4289010000002236
690,32,0.5,0.0625,-35.0,-1,1.0,1.5190009999996619
691,32,0.5,0.125,-35.0,-1,1.0,0.3725009999998292
692,32,0.5,0.25,-35.0,-1,1.0,0.5217009999996662
693,32,0.5,0.25,-35.0,-1,1.0,0.9858009999998103
694,32,0.5,0.0625,35.0,1,1.0,0.5792010000000118
695,32,0.5,0.0,-35.0,1,0.0,2.2159010000000308
696,32,0.3,0.0,-35.0,1,0.0,0.5029009999993832
697,32,0.5,1.0,35.0,1,1.0,0.6296009999996386
698,32,0.5,0.25,35.0,1,1.0,3.542801000000054
699,32,0.5,0.0,35.0,1,1.0,2.863000999999713
700,32,0.5,1.0,35.0,1,1.0,0.3064009999998234
701,32,0.5,0.25,-35.0,-1,1.0,0.4532009999998081
702,32,0.5,0.125,35.0,1,1.0,0.31320099999993545
703,32,0.5,0.0625,-35.0,1,0.0,2.3567009999997026
704,32,0.5,0.125,35.0,1,1.0,0.32010100000024977
705,32,0.5,1.0,35.0,1,1.0,0.74020100000007
706,32,0.5,0.125,35.0,-1,0.0,0.19690099999979793
707,32,0.5,0.0625,35.0,1,1.0,1.1802009999996699
708,32,0.5,1.0,35.0,1,1.0,0.35370100000000093
709,32,0.5,0.0,35.0,-1,0.0,1.6203009999999267
710,32,0.5,0.25,-35.0,-1,1.0,0.28390100000024177
711,32,0.5,0.0625,35.0,1,1.0,5.147200999999768
712,32,0.5,0.125,-35.0,-1,1.0,0.31410099999948216
713,32,0.5,0.125,35.0,-1,0.0,0.42400099999986196
714,32,0.5,0.125,-35.0,-1,1.0,0.09080099999982849
715,32,0.5,0.125,-35.0,-1,1.0,0.4542009999995571
716,32,0.5,1.0,35.0,1,1.0,0.3377009999994698
717,32,0.5,0.125,-35.0,-1,1.0,0.09430099999963204
718,32,0.5,0.0625,35.0,1,1.0,1.3278009999999085
719,32,0.5,0.0625,35.0,1,1.0,1.5444010000001072
720,32,0.5,1.0,35.0,1,1.0,0.34130099999993035
721,32,0.5,1.0,-35.0,-1,1.0,0.46460099999967497
722,32,0.5,0.25,-35.0,-1,1.0,1.0712009999992915
723,32,0.5,0.125,35.0,1,1.0,1.2147009999998772
724,32,0.5,0.125,-35.0,-1,1.0,0.541400999999496
725,32,0.5,0.0625,-35.0,-1,1.0,0.06490099999973609
726,32,0.5,0.125,-35.0,-1,1.0,1.0783010000000104
727,32,0.5,0.125,-35.0,-1,1.0,0.5116009999997004
728,32,0.5,0.0625,-35.0,-1,1.0,0.31170099999962986
729,32,0.5,0.25,-35.0,-1,1.0,0.15170099999977538
730,32,0.5,0.125,-35.0,-1,1.0,0.24180100000012317
731,32,0.5,1.0,35.0,1,1.0,0.515400999999656
732,32,0.5,0.25,-35.0,-1,1.0,0.43880099999978484
733,32,0.5,0.25,-35.0,-1,1.0,0.2854010000000926
734,32,0.5,0.0,35.0,-1,0.0,0.15870099999938247
735,32,0.5,0.25,35.0,1,1.0,2.4221010000001115
736,32,0.5,1.0,35.0,1,1.0,0.7056009999996604
737,32,0.5,1.0,-35.0,-1,1.0,0.3057010000002265
738,32,0.5,0.25,35.0,-1,0.0,2.549000999999862
739,32,0.5,0.25,35.0,1,1.0,0.7958009999997557
740,32,0.5,0.0,-35.0,1,0.0,2.0460009999997055
741,32,0.5,0.25,-35.0,-1,1.0,0.549301000000014
742,32,0.5,0.125,-35.0,1,0.0,0.8260009999999056
743,32,0.5,0.25,-35.0,-1,1.0,0.1996009999998023
744,32,0.5,0.125,35.0,1,1.0,1.922900999999456
745,32,0.5,0.0625,35.0,1,1.0,2.2463009999996757
746,32,0.5,1.0,35.0,1,1.0,0.5897009999998772
747,32,0.5,1.0,35.0,1,1.0,0.09650099999998929
748,32,0.5,0.125,-35.0,-1,1.0,0.28990099999964514
749,32,0.5,1.0,-35.0,-1,1.0,0.12990099999979066
750,32,0.5,0.0625,35.0,-1,0.0,2.6634009999997943
751,32,0.5,0.0625,-35.0,-1,1.0,0.28000099999962913
752,32,0.5,1.0,35.0,1,1.0,0.41020099999968807
753,32,0.5,0.125,-35.0,-1,1.0,0.34360100000003513
754,32,0.5,0.25,35.0,1,1.0,2.6303009999996902
755,32,0.5,1.0,-35.0,-1,1.0,0.23700099999950908
756,32,0.5,0.0625,-35.0,-1,1.0,0.3205009999996946
757,32,0.5,0.25,35.0,1,1.0,0.30730099999982485
758,32,0.5,1.0,-35.0,-1,1.0,0.08410099999991871
759,32,0.5,0.0625,35.0,1,1.0,0.7341009999995549
760,32,0.5,0.0625,35.0,-1,0.0,0.7407010000001719
761,32,0.4,0.0625,35.0,1,1.0,2.207600999999613
762,32,0.5,1.0,35.0,1,1.0,0.507600999999795
763,32,0.5,0.25,35.0,1,1.0,0.3210009999997965
764,32,0.5,0.25,35.0,1,1.0,1.3210010000002512
765,32,0.5,0.0,35.0,1,1.0,0.5278009999997266
766,32,0.5,0.0625,-35.0,1,0.0,0.7046009999999114
767,32,0.5,0.0,-35.0,-1,1.0,0.4613009999998212
768,32,0.5,0.0625,35.0,-1,0.0,0.477900999999747
769,32,0.5,0.125,-35.0,-1,1.0,0.34800099999984013
770,32,0.5,0.25,-35.0,-1,1.0,0.2848009999997885
771,32,0.5,0.0625,-35.0,1,0.0,2.37820099999999
772,32,0.5,0.25,-35.0,-1,1.0,0.781800999999632
773,32,0.5,0.125,-35.0,1,0.0,1.8351009999996677
774,32,0.5,0.125,35.0,1,1.0,1.4452009999999973
775,32,0.5,1.0,-35.0,-1,1.0,0.3052009999996699
776,32,0.5,1.0,-35.0,-1,1.0,0.051900999999361375
777,32,0.5,1.0,35.0,1,1.0,0.3254009999996015
778,32,0.5,0.25,-35.0,-1,1.0,0.34210099999972954
779,32,0.5,0.0625,35.0,1,1.0,0.3856009999994967
780,32,0.5,0.125,35.0,1,1.0,0.38230099999964295
781,32,0.5,0.125,-35.0,-1,1.0,0.44560099999944214
782,32,0.5,0.0625,35.0,1,1.0,0.3590009999998074
783,32,0.5,1.0,35.0,1,1.0,0.4358009999996284
784,32,0.5,1.0,35.0,1,1.0,0.382600999999795
785,32,0.5,0.0,-35.0,-1,1.0,4.709300999999414
786,32,0.5,0.125,-35.0,-1,1.0,0.3828009999997448
787,32,0.5,1.0,35.0,1,1.0,0.3129009999997834
788,32,0.5,1.0,-35.0,-1,1.0,0.24290100000007442
789,32,0.5,1.0,-35.0,-1,1.0,0.24290099999961967
790,32,0.5,0.25,-35.0,-1,1.0,0.859700999999859
791,32,0.5,0.25,35.0,1,1.0,0.3030010000002221
792,32,0.5,0.25,35.0,1,1.0,0.24310100000002421
793,32,0.5,0.25,-35.0,-1,1.0,0.7798009999996793
794,32,0.5,0.25,35.0,1,1.0,0.5966009999997368
795,32,0.5,0.25,35.0,1,1.0,1.4233009999998103
796,32,0.5,0.125,35.0,1,1.0,0.6933009999997921
797,32,0.5,1.0,35.0,1,1.0,0.40680099999963204
798,32,0.5,1.0,-35.0,-1,1.0,0.2935010000001057
799,32,0.5,0.0625,-35.0,-1,1.0,2.443500999999742
800,32,0.5,0.0625,35.0,1,1.0,0.5770010000001093
801,32,0.5,0.25,-35.0,-1,1.0,0.9003009999996721
802,32,0.5,1.0,35.0,-1,0.0,0.0972009999995862
803,32,0.5,0.0,-35.0,-1,1.0,2.3906010000000606
804,32,0.5,1.0,35.0,1,1.0,0.3906010000000606
805,32,0.5,0.125,35.0,1,1.0,0.28730099999984304
806,32,0.5,0.0625,35.0,1,1.0,1.83750099999952
807,32,0.5,0.0,-35.0,-1,1.0,0.5842009999996662
808,32,0.5,1.0,35.0,1,1.0,0.2943009999999049
809,32,0.5,0.0,-35.0,-1,1.0,0.37100099999952363
810,32,0.5,0.0,35.0,1,1.0,0.19440099999974336
811,32,0.5,0.125,35.0,1,1.0,0.28440099999943413
812,32,0.5,0.0,35.0,1,1.0,0.557800999999472
813,32,0.5,0.0625,-35.0,1,0.0,0.3414009999996779
814,32,0.5,0.25,-35.0,-1,1.0,0.28800099999943995
815,32,0.5,0.0625,-35.0,-1,1.0,1.5780009999994036
816,32,0.5,0.25,-35.0,-1,1.0,0.5582009999998263
817,32,0.5,0.125,-35.0,-1,1.0,0.3216010000001006
818,32,0.5,1.0,-35.0,-1,1.0,0.2715010000001712
819,32,0.5,1.0,-35.0,-1,1.0,0.5386009999997441
820,32,0.5,0.25,-35.0,-1,1.0,0.34510099999988597
821,32,0.5,0.125,-35.0,-1,1.0,0.38850099999945087
822,32,0.5,0.25,35.0,1,1.0,0.26870099999996455
823,32,0.5,0.125,-35.0,-1,1.0,0.3919009999995069
824,32,0.5,0.25,-35.0,-1,1.0,0.7454009999996742
825,32,0.5,0.25,35.0,1,1.0,0.3488009999996393
826,32,0.5,0.25,-35.0,-1,1.0,0.2554009999998925
827,32,0.5,0.125,35.0,-1,0.0,0.8522010000001501
828,32,0.5,0.0,-35.0,1,0.0,0.2824009999999362
829,32,0.5,0.25,-35.0,-1,1.0,0.2758009999997739
830,32,0.5,0.25,35.0,1,1.0,0.02580099999977392
831,32,0.5,0.25,35.0,1,1.0,0.35920100000021193
832,32,0.5,0.125,35.0,1,1.0,0.295900999999958
833,32,0.5,0.0625,-35.0,-1,1.0,0.07940100000041639
834,32,0.5,0.125,35.0,1,1.0,1.646100999999362
835,32,0.5,0.25,-35.0,-1,1.0,0.14620100000001912
836,32,0.5,0.0625,35.0,-1,0.0,2.9663009999994756
837,32,0.5,0.0625,-35.0,-1,1.0,3.329700999999659
838,32,0.5,0.125,35.0,1,1.0,2.4601010000001224
839,32,0.5,0.125,-35.0,-1,1.0,0.7467009999995753
840,32,0.5,1.0,35.0,-1,0.0,0.37000099999977465
841,32,0.5,0.125,-35.0,1,0.0,0.5768009999997048
842,32,0.5,0.25,-35.0,-1,1.0,0.4737009999998918
843,32,0.5,0.25,-35.0,-1,1.0,0.31360099999983504
844,32,0.5,0.25,-35.0,-1,1.0,0.3137010000000373
845,32,0.5,0.0,-35.0,-1,1.0,0.7671009999999114
846,32,0.5,0.0625,35.0,-1,0.0,9.64040100000011
847,32,0.5,0.125,35.0,1,1.0,0.4275009999996655
848,32,0.5,0.125,-35.0,-1,1.0,0.37740099999928134
849,32,0.5,0.25,35.0,1,1.0,0.2376009999998132
850,32,0.5,1.0,35.0,1,1.0,0.2876009999999951
851,32,0.5,0.25,35.0,1,1.0,0.6745009999995091
852,32,0.5,0.0625,35.0,1,1.0,0.3410009999997783
853,32,0.5,1.0,35.0,1,1.0,0.5012010000000373
854,32,0.5,0.0,35.0,1,1.0,0.16450099999974555
855,32,0.5,0.25,-35.0,-1,1.0,0.2846009999998387
856,32,0.5,0.0625,-35.0,1,0.0,0.8614009999996597
857,32,0.8,0.0625,35.0,1,1.0,0.7481009999996786
858,32,0.5,1.0,-35.0,-1,1.0,0.3648009999997157
859,32,0.5,1.0,35.0,-1,0.0,0.5716010000001006
860,32,0.5,0.0625,-35.0,-1,1.0,0.6683010000001559
861,32,0.5,1.0,35.0,1,1.0,0.27180099999941376
862,32,0.5,0.0,35.0,-1,0.0,1.7752009999999245
863,32,0.5,0.25,35.0,1,1.0,0.412000999999691
864,32,0.5,0.0625,-35.0,-1,1.0,0.43880099999978484
865,32,0.5,0.25,35.0,1,1.0,0.2821009999997841
866,32,0.5,1.0,35.0,1,1.0,0.3488009999996393
867,32,0.5,0.0,-35.0,1,0.0,1.6655009999994945
868,32,0.5,0.0,-35.0,1,0.0,0.4256009999999151
869,32,0.5,1.0,35.0,1,1.0,0.3957009999994625
870,32,0.5,0.0,35.0,-1,0.0,7.019200999999612
871,32,0.5,0.0,35.0,1,1.0,7.989400999999361
872,32,0.5,0.125,35.0,1,1.0,0.3863010000000031
873,32,0.5,0.0,-35.0,1,0.0,2.4162999999998647
874,32,0.8,0.0,35.0,-1,0.0,1.9664009999996779
875,32,0.5,1.0,-35.0,-1,1.0,0.2165009999994254
876,32,0.5,0.0625,-35.0,-1,1.0,1.9233009999993556
877,32,0.5,0.0,-35.0,-1,1.0,5.1335009999997965
878,32,0.5,0.0625,35.0,1,1.0,2.9369009999995797
879,32,0.5,0.0625,35.0,1,1.0,3.8669009999998707
880,32,0.5,1.0,35.0,1,1.0,0.9871009999997113
881,32,0.5,0.125,35.0,-1,0.0,8.82050100000015
882,32,0.5,0.25,-35.0,-1,1.0,0.24420099999997547
883,32,0.5,0.25,-35.0,-1,1.0,0.39090100000021266
884,32,0.5,1.0,35.0,1,1.0,0.520900999999867
885,32,0.5,1.0,35.0,1,1.0,0.27090099999986705
886,32,0.5,1.0,-35.0,-1,1.0,0.2944009999996524
887,32,0.5,1.0,-35.0,-1,1.0,0.4644010000001799
888,32,0.5,0.25,-35.0,-1,1.0,0.227900999999747
889,32,0.5,0.0625,35.0,-1,0.0,1.487800999999763
890,32,0.3,0.0625,-35.0,-1,1.0,0.4413009999998394
891,32,0.5,1.0,35.0,1,1.0,0.5613009999997303
892,32,0.5,0.125,35.0,-1,0.0,0.611500999999862
893,32,0.5,0.0,-35.0,1,0.0,4.741600999999719
894,32,0.5,0.125,35.0,1,1.0,0.5717009999998481
895,32,0.5,0.25,35.0,1,1.0,10.021701000000121
896,32,0.5,0.25,-35.0,-1,1.0,0.39200099999970917
897,32,0.5,0.25,35.0,1,1.0,1.5021010000000388
898,32,0.5,0.125,35.0,1,1.0,1.00550099999964
899,32,0.5,1.0,35.0,1,1.0,0.35220099999969534
900,32,0.5,0.0625,-35.0,-1,1.0,0.29580099999975573
901,32,0.5,0.0625,35.0,-1,0.0,0.8391010000000279
902,32,0.5,0.0625,-35.0,-1,1.0,8.19260099999974
903,32,0.5,0.0625,-35.0,-1,1.0,2.3728009999995265
904,32,0.5,0.0625,35.0,1,1.0,2.252900999999838
905,32,0.5,1.0,35.0,1,1.0,0.3395009999994727
906,32,0.5,1.0,35.0,1,1.0,0.2663009999996575
907,32,0.5,0.125,-35.0,1,0.0,0.07630100000005768
908,32,0.5,0.0,-35.0,-1,1.0,0.6564010000001872
909,32,0.5,1.0,-35.0,-1,1.0,0.31330099999968297
910,32,0.5,1.0,-35.0,-1,1.0,0.37000099999977465
911,32,0.5,0.25,35.0,-1,0.0,2.6968009999995957
912,32,0.4,0.25,35.0,-1,0.0,0.7002009999996517
913,32,0.5,1.0,35.0,1,1.0,7.923600999999508
914,32,0.5,0.0625,35.0,1,1.0,3.023700999999619
915,32,0.5,0.25,-35.0,-1,1.0,0.2940009999997528
916,32,0.5,0.125,-35.0,-1,1.0,0.5473009999996066
917,32,0.5,0.0,35.0,-1,0.0,3.94070099999999
918,32,0.5,0.0625,-35.0,1,0.0,0.5975009999997383
919,32,0.5,0.125,-35.0,1,0.0,0.8677009999996699
920,32,0.5,0.125,-35.0,1,0.0,1.2877009999997426
921,32,0.5,0.0,-35.0,-1,1.0,32.171200999999655
922,32,0.5,1.0,35.0,1,1.0,0.3418010000000322
923,32,0.5,0.0625,-35.0,-1,1.0,7.612000999999964
924,32,0.5,0.125,35.0,-1,0.0,1.6155009999993126
925,32,0.5,0.0625,35.0,-1,0.0,10.04890099999966
926,32,0.5,0.0625,35.0,1,1.0,2.475800999999592
927,32,0.5,0.25,35.0,1,1.0,4.952600999999959
928,32,0.5,0.25,35.0,-1,0.0,0.6361009999995986
929,32,0.5,0.0,35.0,1,1.0,2.816200999999637
930,32,0.5,1.0,-35.0,-1,1.0,0.2863009999996393
931,32,0.5,0.0625,-35.0,1,0.0,2.166400999999496
932,32,0.5,0.0625,-35.0,-1,1.0,4.333100999999715
933,32,0.5,0.25,35.0,1,1.0,0.8500010000002476
934,32,0.5,0.0625,35.0,1,1.0,2.793500999999651
935,32,0.5,0.0625,35.0,-1,0.0,0.570100999999795
936,32,0.6,0.0625,-35.0,-1,1.0,2.480301000000054
937,32,0.5,1.0,35.0,-1,0.0,0.7136009999994712
938,32,0.5,0.0625,35.0,1,1.0,0.06700099999943632
939,32,0.5,0.0625,-35.0,1,0.0,3.307100999999875
940,32,0.5,0.25,35.0,1,1.0,0.0540009999999711
941,32,0.5,0.0,35.0,-1,0.0,5.177300999999716
942,32,0.5,0.125,-35.0,-1,1.0,1.9609009999999216
943,32,0.5,0.0625,-35.0,-1,1.0,0.5576009999995222
944,32,0.5,0.0625,-35.0,-1,1.0,0.7510009999996328
945,32,0.5,0.25,-35.0,-1,1.0,0.24770099999977901
946,32,0.5,0.25,35.0,1,1.0,0.2645009999996546
947,32,0.5,0.125,-35.0,-1,1.0,0.4412010000000919
948,32,0.5,0.25,-35.0,1,0.0,0.14110100000016246
949,32,0.5,0.25,35.0,1,1.0,0.051300999999966734
950,32,0.5,0.0625,35.0,-1,0.0,1.721400999999787
951,32,0.5,0.0,-35.0,1,0.0,0.9514009999998052
952,32,0.5,0.125,35.0,1,1.0,0.3950009999998656
953,32,0.5,0.125,-35.0,-1,1.0,0.5183009999996102
954,32,0.5,0.0,-35.0,1,0.0,0.2819009999998343
955,32,0.6,0.0,35.0,1,1.0,1.2952009999994516
956,32,0.5,1.0,35.0,-1,0.0,0.45860099999981685
957,32,0.5,0.25,35.0,1,1.0,0.32860100000016246
958,32,0.5,1.0,-35.0,-1,1.0,0.21550100000013117
959,32,0.5,0.25,-35.0,-1,1.0,0.3122009999997317
960,32,0.5,0.125,35.0,1,1.0,2.588800999999876
961,32,0.5,0.25,35.0,1,1.0,0.232300999999552
962,32,0.5,1.0,-35.0,-1,1.0,0.10900099999980739
963,32,0.5,0.0625,35.0,-1,0.0,2.6124009999998634
964,32,0.5,0.0625,35.0,1,1.0,5.2226009999999405
965,32,0.5,0.125,35.0,1,1.0,0.3394009999997252
966,32,0.5,0.125,35.0,1,1.0,1.2760009999997237
967,32,0.5,0.25,35.0,1,1.0,0.2728009999996175
968,32,0.5,0.25,-35.0,-1,1.0,0.3062009999998736
969,32,0.5,0.25,-35.0,-1,1.0,0.28310099999998783
970,32,0.5,0.25,-35.0,-1,1.0,0.34300099999927625
971,32,0.5,0.0,35.0,1,1.0,9.629699999999957
972,32,0.5,0.0,35.0,1,1.0,15.153300999999828
973,32,0.5,1.0,35.0,1,1.0,7.4470009999995455
974,32,0.5,0.25,35.0,1,1.0,0.4239009999996597
975,32,0.5,0.125,35.0,1,1.0,16.940599999999904
976,32,0.5,1.0,-35.0,-1,1.0,0.30090100000006714
977,32,0.5,0.125,35.0,1,1.0,7.767900999999711
978,32,0.5,0.125,-35.0,-1,1.0,1.1846009999999296
979,32,0.5,0.25,-35.0,-1,1.0,0.32810099999960585
980,32,0.5,0.0625,-35.0,-1,1.0,0.24470099999962258
981,32,0.5,1.0,35.0,1,1.0,0.31140099999993254
982,32,0.5,0.125,35.0,-1,0.0,0.6681009999997514
983,32,0.5,0.25,35.0,1,1.0,27.4183009999997
984,32,0.5,0.0625,-35.0,-1,1.0,10.73560099999986
985,32,0.5,1.0,35.0,1,1.0,1.2525009999994836
986,32,0.5,0.125,-35.0,-1,1.0,0.2759009999999762
987,32,0.5,0.0625,-35.0,1,0.0,4.379300999999941
988,32,0.4,0.0625,35.0,1,1.0,6.822800999999345
989,32,0.5,1.0,35.0,1,1.0,1.2762010000001283
990,32,0.5,0.25,-35.0,-1,1.0,32.28310099999999
991,32,0.5,0.125,35.0,-1,0.0,1.987000999999509
992,32,0.5,0.125,35.0,1,1.0,1.4939009999998234
993,32,0.5,1.0,35.0,1,1.0,0.33060100000011516
994,32,0.5,1.0,35.0,1,1.0,0.4941009999997732
995,32,0.5,0.0,-35.0,1,0.0,8.6674009999997
996,32,0.5,0.0,-35.0,-1,1.0,3.5644009999996342
997,32,0.5,0.0625,-35.0,-1,1.0,0.9078009999998358
998,32,0.5,0.25,35.0,1,1.0,4.254600999999639
999,32,0.5,0.0,35.0,1,1.0,11.031400999999732
1000,32,0.5,0.0625,35.0,1,1.0,19.241601000000173
1001,32,0.5,0.25,35.0,0,0.0,59.89220099999966
1002,32,0.5,0.25,35.0,1,1.0,5.222701000000598
1003,32,0.5,0.0625,-35.0,-1,1.0,0.7635009999994509
1004,32,0.5,0.0625,35.0,1,1.0,10.573601000000053
1005,32,0.5,0.0,-35.0,-1,1.0,25.75720099999944
1006,32,0.5,0.25,35.0,-1,0.0,0.3244009999998525
1007,32,0.5,0.125,35.0,1,1.0,0.8678010000003269
1008,32,0.5,0.0,-35.0,-1,1.0,30.73120100000051
1009,32,0.5,0.25,35.0,1,1.0,0.5052009999999427
1010,32,0.5,0.25,-35.0,-1,1.0,0.4752009999992879
1011,32,0.5,1.0,35.0,1,1.0,0.4953009999999267
1012,32,0.5,1.0,35.0,1,1.0,0.22540099999969243
1013,32,0.5,1.0,-35.0,-1,1.0,0.2756009999993694
1014,32,0.5,0.25,35.0,1,1.0,0.45550099999945814
1015,32,0.5,0.125,35.0,1,1.0,2.33560099999886
1016,32,0.5,0.125,-35.0,-1,1.0,0.03570099999978993
1017,32,0.5,0.125,-35.0,-1,1.0,0.30210100000022067
1018,32,0.5,0.25,35.0,1,1.0,0.7287010000000009
1019,32,0.5,0.0,-35.0,1,0.0,5.961700999999266
1020,32,0.5,0.0625,-35.0,1,0.0,13.768800999999257
1021,32,0.5,0.0,35.0,1,1.0,43.77230100000088
1022,32,0.5,0.25,35.0,1,1.0,1.5433009999997012
1023,32,0.5,0.0625,35.0,1,1.0,3.1939009999996415
1024,32,0.5,0.125,-35.0,-1,1.0,0.5667010000006485
1025,32,0.5,0.0625,-35.0,-1,1.0,0.6103009999997084
1026,32,0.5,0.25,35.0,-1,0.0,1.8135009999996328
1027,32,0.5,0.25,-35.0,-1,1.0,0.5037009999996371
1028,32,0.5,0.25,-35.0,-1,1.0,0.29040100000020175
1029,32,0.5,1.0,35.0,1,1.0,0.3274009999995542
1030,32,0.5,0.0625,-35.0,1,0.0,5.523701000000074
1031,32,0.5,0.0625,35.0,1,1.0,21.637500999999247
1032,32,0.5,1.0,35.0,1,1.0,13.157901999999922
1033,32,0.5,0.0625,-35.0,-1,1.0,51.79210200000034
1034,32,0.5,0.0,35.0,-1,0.0,0.356101999999737
1035,32,0.5,0.0,35.0,-1,0.0,22.23960199999965
1036,32,0.5,0.125,35.0,0,0.0,59.94650199999978
1037,32,0.5,0.125,35.0,1,1.0,9.514401999998881
1038,32,0.5,1.0,-35.0,-1,1.0,0.26180099999965023
1039,32,0.5,0.0,-35.0,-1,1.0,1.9348019999997632
1040,32,0.5,0.125,-35.0,-1,1.0,0.35490200000003824
1041,32,0.5,1.0,-35.0,-1,1.0,0.13140199999998003
1042,32,0.5,0.25,35.0,1,1.0,0.6188020000008692
1043,32,0.5,1.0,-35.0,-1,1.0,0.2484020000001692
1044,32,0.5,0.0,-35.0,1,0.0,0.37550199999986944
1045,32,0.5,0.125,35.0,-1,0.0,2.5551019999993514
1046,32,0.5,0.0625,35.0,-1,0.0,3.5690020000001823
1047,32,0.5,0.0,-35.0,-1,1.0,20.318701999999575
1048,32,0.5,0.25,35.0,1,1.0,11.253201999999874
1049,32,0.5,0.125,-35.0,-1,1.0,0.519601999999395
1050,32,0.5,1.0,-35.0,-1,1.0,0.23280199999953766
1051,32,0.5,0.125,-35.0,1,0.0,8.693401999999878
1052,32,0.5,0.25,35.0,1,1.0,0.6966019999990749
1053,32,0.5,0.125,-35.0,1,0.0,17.493301999999858
1054,32,0.5,0.0625,35.0,1,1.0,7.320402000000286
1055,32,0.5,0.25,35.0,1,1.0,0.4238019999993412
1056,32,0.5,0.0,35.0,1,1.0,13.634701999999379
1057,32,0.5,0.125,35.0,1,1.0,19.18420199999946
1058,32,0.5,0.0625,-35.0,1,0.0,45.618201999999656
1059,32,0.5,0.0625,35.0,1,1.0,5.5623020000002725
1060,32,0.5,1.0,35.0,-1,0.0,9.98330199999964
1061,32,0.5,0.0625,35.0,-1,0.0,8.726802000000134
1062,32,0.5,0.25,35.0,-1,0.0,45.887102000000596
1063,32,0.5,0.25,35.0,1,1.0,17.821301999999378
1064,32,0.5,1.0,-35.0,-1,1.0,0.258401999999478
1065,32,0.5,0.125,35.0,-1,0.0,0.9451019999996788
1066,32,0.5,0.0625,35.0,-1,0.0,1.38850199999888
1067,32,0.5,0.0625,35.0,-1,0.0,0.30200200000035693
1068,32,0.3,0.0625,35.0,-1,0.0,1.742102000000159
1069,32,0.5,1.0,-35.0,1,0.0,3.9289019999996526
1070,32,0.5,0.125,-35.0,-1,1.0,3.2724019999996017
1071,32,0.5,0.25,35.0,1,1.0,3.26270199999999
1072,32,0.5,1.0,-35.0,-1,1.0,0.282601999999315
1073,32,0.5,0.0625,-35.0,1,0.0,3.119301999999152
1074,32,0.3,0.0625,35.0,1,1.0,16.096401999999216
1075,32,0.5,1.0,35.0,1,1.0,58.90650199999891
1076,32,0.5,1.0,35.0,-1,0.0,9.194501999999375
1077,32,0.5,1.0,35.0,1,1.0,0.38790199999948527
1078,32,0.5,1.0,-35.0,-1,1.0,0.08800199999950564
1079,32,0.5,0.0625,-35.0,-1,1.0,4.6114019999995435
1080,32,0.5,0.25,-35.0,-1,1.0,0.2749019999992015
1081,32,0.5,0.25,35.0,1,1.0,17.715102000000115
1,33,0.5,1.0,-35.0,-1,1.0,0.3892000000000002
2,33,0.5,0.125,35.0,1,1.0,0.43510000000000026
3,33,0.5,0.125,-35.0,-1,1.0,0.277400000000001
4,33,0.5,0.25,35.0,1,1.0,0.2680000000000007
5,33,0.5,1.0,-35.0,-1,1.0,0.25569999999999915
6,33,0.5,0.0625,35.0,1,1.0,6.3665
7,33,0.5,0.0,-35.0,1,0.0,9.434999999999999
8,33,0.5,0.125,35.0,1,1.0,0.28240000000000265
9,33,0.5,0.125,-35.0,-1,1.0,0.25970000000000937
10,33,0.5,0.0,-35.0,1,0.0,0.03540000000000276
11,33,0.5,0.0,-35.0,1,0.0,0.2693000000000012
12,33,0.5,0.25,-35.0,1,0.0,0.04480000000000217
13,33,0.5,0.0,-35.0,1,0.0,0.26950000000000784
14,33,0.5,0.0625,35.0,1,1.0,0.3930000000000007
15,33,0.5,0.25,35.0,1,1.0,0.22049999999998704
16,33,0.5,0.125,35.0,1,1.0,0.24280000000000257
17,33,0.5,0.0625,35.0,1,1.0,0.2563000000000102
18,33,0.5,0.25,35.0,1,1.0,0.25159999999999627
19,33,0.5,0.125,35.0,1,1.0,0.3059999999999974
20,33,0.5,0.0625,35.0,1,1.0,0.11149999999999238
21,33,0.5,1.0,-35.0,-1,1.0,0.2073000000000036
22,33,0.5,0.0,35.0,1,1.0,-0.052500000000009095
23,33,0.5,0.25,-35.0,1,0.0,0.09279999999999688
24,33,0.5,0.0625,-35.0,-1,1.0,0.18210000000000548
25,33,0.5,1.0,-35.0,-1,1.0,0.2061999999999955
26,33,0.5,1.0,35.0,1,1.0,0.22769999999999868
27,33,0.5,0.125,35.0,1,1.0,0.28549999999998477
28,33,0.5,0.125,-35.0,-1,1.0,0.27959999999998786
29,33,0.5,0.0625,35.0,-1,0.0,0.3491999999999962
30,33,0.5,0.0,35.0,1,1.0,0.30630000000000734
31,33,0.5,0.0625,-35.0,-1,1.0,0.8537999999999926
32,33,0.5,0.25,35.0,1,1.0,0.10769999999999413
33,33,0.5,0.0625,35.0,1,1.0,0.007399999999989859
34,33,0.5,1.0,35.0,1,1.0,0.2388999999999868
35,33,0.5,0.25,35.0,1,1.0,0.241800000000012
36,33,0.5,0.0,35.0,-1,0.0,0.155900000000031
37,33,0.5,0.25,35.0,1,1.0,0.2511000000000081
38,33,0.5,0.25,35.0,1,1.0,0.3118000000000052
39,33,0.5,0.0625,35.0,1,1.0,0.33269999999998845
40,33,0.5,1.0,35.0,1,1.0,0.2476000000000056
41,33,0.5,0.125,35.0,1,1.0,0.20879999999999654
42,33,0.5,0.0625,-35.0,1,0.0,0.1303999999999803
43,33,0.9,0.0625,-35.0,1,0.0,0.3026999999999873
44,33,0.5,1.0,-35.0,-1,1.0,0.254099999999994
45,33,0.5,0.25,-35.0,-1,1.0,0.29270000000002483
46,33,0.5,0.0625,-35.0,-1,1.0,0.3211000000000013
47,33,0.5,0.125,-35.0,-1,1.0,0.23660000000003834
48,33,0.5,0.125,-35.0,-1,1.0,1.2172000000000196
49,33,0.5,1.0,-35.0,-1,1.0,0.2849000000000217
50,33,0.5,0.0625,35.0,-1,0.0,0.019800000000003593
51,33,0.5,0.25,35.0,1,1.0,0.3391000000000304
52,33,0.5,0.125,35.0,1,1.0,0.3329000000000235
53,33,0.5,0.0625,-35.0,-1,1.0,0.9089000000000169
54,33,0.5,0.25,-35.0,-1,1.0,0.22530000000000427
55,33,0.5,0.125,-35.0,-1,1.0,0.44669999999999277
56,33,0.5,0.125,-35.0,-1,1.0,0.28700000000003456
57,33,0.5,0.0625,35.0,-1,0.0,0.33550000000002456
58,33,0.5,0.125,-35.0,-1,1.0,0.26779999999999404
59,33,0.5,0.25,35.0,1,1.0,0.2509000000000299
60,33,0.5,0.125,35.0,1,1.0,0.45369999999999777
61,33,0.5,0.125,-35.0,-1,1.0,0.155399999999986
62,33,0.5,0.25,-35.0,-1,1.0,0.2960999999999956
63,33,0.5,1.0,-35.0,-1,1.0,0.2501000000000033
64,33,0.5,1.0,35.0,1,1.0,0.2592999999999961
65,33,0.5,0.25,-35.0,-1,1.0,0.29270000000002483
66,33,0.5,0.25,35.0,1,1.0,0.3685000000000116
67,33,0.5,0.125,-35.0,-1,1.0,0.19060000000001764
68,33,0.5,0.0,35.0,-1,0.0,0.2874000000000194
69,33,0.4,0.0,-35.0,-1,1.0,1.269200000000012
70,33,0.5,1.0,35.0,-1,0.0,0.1553000000000111
71,33,0.5,0.25,-35.0,-1,1.0,0.08430000000001314
72,33,0.5,0.0,35.0,-1,0.0,0.38850000000002183
73,33,0.5,0.0625,35.0,-1,0.0,0.6134000000000128
74,33,0.2,0.0625,-35.0,-1,1.0,0.43379999999999086
75,33,0.5,1.0,35.0,1,1.0,0.29149999999992815
76,33,0.5,0.0,-35.0,1,0.0,0.5673999999999637
77,33,0.5,0.125,35.0,-1,0.0,0.978999999999985
78,33,0.5,0.25,35.0,1,1.0,0.2951999999999657
79,33,0.5,0.25,35.0,1,1.0,0.3014999999999759
80,33,0.5,0.0,-35.0,-1,1.0,1.9751999999999725
81,33,0.5,0.0625,35.0,-1,0.0,0.24019999999990205
82,33,0.5,0.25,-35.0,-1,1.0,0.2215999999999667
83,33,0.5,1.0,35.0,1,1.0,0.29359999999996944
84,33,0.5,0.125,-35.0,-1,1.0,0.2411000000000172
85,33,0.5,1.0,-35.0,-1,1.0,0.16469999999998208
86,33,0.5,0.125,35.0,1,1.0,0.36899999999997135
87,33,0.5,0.0,-35.0,1,0.0,0.1706999999999539
88,33,0.5,0.25,35.0,1,1.0,0.33509999999995443
89,33,0.5,1.0,35.0,1,1.0,0.2540000000000191
90,33,0.5,0.0,35.0,1,1.0,2.3999000000000024
91,33,0.5,1.0,35.0,1,1.0,0.2509999999999195
92,33,0.5,0.0,-35.0,-1,1.0,0.9367999999999483
93,33,0.5,0.25,-35.0,-1,1.0,0.025300000000015643
94,33,0.5,0.0,-35.0,1,0.0,0.18919999999997117
95,33,0.5,0.0625,35.0,1,1.0,0.08559999999994261
96,33,0.5,0.0625,35.0,1,1.0,0.9470999999999776
97,33,0.5,0.125,-35.0,-1,1.0,0.4733999999999696
98,33,0.5,0.25,35.0,1,1.0,0.3550999999999931
99,33,0.5,0.125,-35.0,-1,1.0,0.28399999999993497
100,33,0.5,0.0625,35.0,1,1.0,0.16159999999996444
101,33,0.5,0.0,35.0,-1,0.0,0.38639999999998054
102,33,0.5,0.0625,-35.0,-1,1.0,0.6766999999999825
103,33,0.5,0.25,-35.0,-1,1.0,0.21210000000002083
104,33,0.5,0.0625,35.0,1,1.0,0.5104000000000042
105,33,0.5,0.125,35.0,1,1.0,0.22849999999999682
106,33,0.5,1.0,-35.0,-1,1.0,0.20249999999998636
107,33,0.5,0.25,-35.0,1,0.0,0.22249999999996817
108,33,0.5,0.25,-35.0,-1,1.0,0.438699999999983
109,33,0.5,1.0,-35.0,-1,1.0,0.20709999999996853
110,33,0.5,1.0,35.0,1,1.0,0.29980000000000473
111,33,0.5,0.0625,35.0,1,1.0,0.30279999999999063
112,33,0.5,0.125,-35.0,-1,1.0,0.18629999999996016
113,33,0.5,0.0,-35.0,-1,1.0,0.28799999999995407
114,33,0.5,0.0,-35.0,-1,1.0,0.5004000000000133
115,33,0.5,0.25,35.0,1,1.0,0.3756999999999948
116,33,0.5,0.125,-35.0,-1,1.0,0.3798999999999637
117,33,0.5,0.0625,-35.0,-1,1.0,0.13350000000002638
118,33,0.5,0.25,35.0,1,1.0,0.33639999999996917
119,33,0.5,0.25,-35.0,-1,1.0,0.2924000000000433
120,33,0.5,0.0625,-35.0,-1,1.0,0.3369999999999891
121,33,0.5,1.0,-35.0,-1,1.0,0.23179999999996426
122,33,0.5,1.0,-35.0,-1,1.0,0.24709999999993215
123,33,0.5,1.0,-35.0,-1,1.0,0.20829999999995152
124,33,0.5,0.0625,-35.0,-1,1.0,0.4015999999999167
125,33,0.5,1.0,-35.0,-1,1.0,0.19559999999995625
126,33,0.5,0.0,-35.0,-1,1.0,1.137399999999957
127,33,0.5,0.25,-35.0,-1,1.0,0.22409999999996444
128,33,0.5,0.0,-35.0,-1,1.0,0.3740999999999417
129,33,0.5,0.25,35.0,-1,0.0,0.48320000000001073
130,33,0.0,0.25,35.0,-1,0.0,0.10470000000003665
131,33,0.5,1.0,35.0,1,1.0,0.26640000000003283
132,33,0.5,1.0,-35.0,-1,1.0,0.21920000000000073
133,33,0.5,0.0625,35.0,1,1.0,0.4562999999999988
134,33,0.5,0.0625,35.0,1,1.0,0.3532999999999902
135,33,0.5,0.0625,35.0,1,1.0,0.37279999999992697
136,33,0.5,0.25,-35.0,-1,1.0,0.0958999999999719
137,33,0.5,0.0625,35.0,-1,0.0,0.3178999999999519
138,33,0.4,0.0625,-35.0,-1,1.0,0.27089999999998327
139,33,0.5,1.0,-35.0,-1,1.0,0.26310000000000855
140,33,0.5,0.125,-35.0,-1,1.0,0.5479000000000269
141,33,0.5,0.0,-35.0,-1,1.0,0.14889999999996917
142,33,0.5,0.125,-35.0,-1,1.0,0.16929999999996426
143,33,0.5,0.25,-35.0,-1,1.0,0.18599999999992178
144,33,0.5,0.25,35.0,-1,0.0,0.34899999999998954
145,33,0.5,0.25,-35.0,-1,1.0,0.2300999999999931
146,33,0.5,1.0,35.0,1,1.0,0.18599999999997863
147,33,0.5,0.0,-35.0,1,0.0,1.209699999999998
148,33,0.5,0.125,-35.0,-1,1.0,0.25839999999999463
149,33,0.5,0.0625,-35.0,1,0.0,2.4757000000000176
150,33,0.5,0.0625,35.0,-1,0.0,0.36419999999998254
151,33,0.5,0.125,35.0,1,1.0,0.369199999999978
152,33,0.5,0.0625,-35.0,-1,1.0,0.31829999999996517
153,33,0.5,1.0,-35.0,-1,1.0,0.21299999999996544
154,33,0.5,1.0,35.0,1,1.0,0.3161999999999807
155,33,0.5,0.0625,35.0,1,1.0,0.3868999999999687
156,33,0.5,0.0625,-35.0,-1,1.0,0.13959999999997308
157,33,0.5,1.0,35.0,1,1.0,0.38400000000001455
158,33,0.5,0.0625,-35.0,-1,1.0,0.00830000000007658
159,33,0.5,0.125,-35.0,-1,1.0,0.9235999999999649
160,33,0.5,0.125,35.0,1,1.0,0.8401000000000067
161,33,0.5,0.0,-35.0,-1,1.0,0.27940000000000964
162,33,0.5,0.0,-35.0,-1,1.0,0.426900000000046
163,33,0.5,0.25,-35.0,-1,1.0,0.2800000000000864
164,33,0.5,0.0625,-35.0,-1,1.0,0.2586000000000013
165,33,0.5,0.0,35.0,-1,0.0,0.1327000000001135
166,33,0.5,0.125,-35.0,-1,1.0,0.29110000000002856
167,33,0.5,0.0625,35.0,1,1.0,0.3726000000001477
168,33,0.5,0.125,35.0,1,1.0,0.3061999999999898
169,33,0.5,0.125,35.0,1,1.0,0.3229000000000042
170,33,0.5,0.25,-35.0,-1,1.0,0.27330000000006294
171,33,0.5,1.0,35.0,1,1.0,0.31500000000005457
172,33,0.5,0.25,35.0,1,1.0,0.0301000000000613
173,33,0.5,1.0,35.0,1,1.0,0.23020000000008167
174,33,0.5,0.25,35.0,1,1.0,0.3022000000000844
175,33,0.5,0.0,-35.0,-1,1.0,0.22069999999996526
176,33,0.5,0.25,-35.0,-1,1.0,0.07569999999998345
177,33,0.5,0.25,-35.0,-1,1.0,0.16610000000014224
178,33,0.5,0.0,-35.0,1,0.0,0.12320000000011078
179,33,0.5,0.125,-35.0,-1,1.0,0.439899999999966
180,33,0.5,0.25,-35.0,-1,1.0,0.2402999999999338
181,33,0.5,0.25,-35.0,-1,1.0,0.22530000000006112
182,33,0.5,0.125,35.0,1,1.0,0.21129999999993743
183,33,0.5,1.0,35.0,1,1.0,0.2300000000000182
184,33,0.5,1.0,-35.0,-1,1.0,0.27940000000000964
185,33,0.5,0.0,35.0,-1,0.0,1.5089000000000397
186,33,0.5,0.0625,-35.0,1,0.0,0.1591999999999416
187,33,0.5,0.125,-35.0,-1,1.0,0.3766000000000531
188,33,0.5,0.125,-35.0,-1,1.0,0.3606999999999516
189,33,0.5,0.0625,35.0,-1,0.0,0.8464000000000169
190,33,0.5,0.125,35.0,1,1.0,0.07859900000005382
191,33,0.5,1.0,-35.0,-1,1.0,0.33150000000011914
192,33,0.5,0.0625,-35.0,-1,1.0,2.107499999999959
193,33,0.5,0.125,-35.0,-1,1.0,0.2860000000000582
194,33,0.5,0.125,35.0,1,1.0,0.26290000000005875
195,33,0.5,0.0625,-35.0,-1,1.0,0.2457000000000562
196,33,0.5,0.0625,35.0,1,1.0,0.3225000000001046
197,33,0.5,1.0,35.0,1,1.0,0.22289999999998145
198,33,0.5,0.25,-35.0,-1,1.0,0.28740000000004784
199,33,0.5,0.25,35.0,1,1.0,0.27710000000013224
200,33,0.5,0.0625,-35.0,-1,1.0,0.3042000000001508
201,33,0.5,0.125,35.0,1,1.0,0.35950000000002547
202,33,0.5,0.25,-35.0,-1,1.0,0.3505000000000109
203,33,0.5,0.0625,-35.0,-1,1.0,0.4115000000000464
204,33,0.5,0.125,35.0,1,1.0,0.28489999999999327
205,33,0.5,0.0625,-35.0,-1,1.0,0.2705999999999449
206,33,0.5,0.125,35.0,-1,0.0,0.23969999999997071
207,33,0.5,0.125,-35.0,-1,1.0,0.3812000000000353
208,33,0.5,0.25,35.0,1,1.0,0.2658999999999878
209,33,0.5,1.0,-35.0,-1,1.0,0.256200000000149
210,33,0.5,1.0,35.0,-1,0.0,0.13360000000000127
211,33,0.3,1.0,35.0,1,1.0,0.36610000000007403
212,33,0.5,1.0,35.0,1,1.0,0.20809999999994488
213,33,0.5,1.0,-35.0,-1,1.0,0.1067000000000462
214,33,0.5,1.0,-35.0,-1,1.0,0.2640000000001237
215,33,0.5,0.25,-35.0,-1,1.0,0.27120000000002165
216,33,0.5,1.0,-35.0,-1,1.0,0.2504999999999882
217,33,0.5,1.0,35.0,1,1.0,0.29149999999992815
218,33,0.5,0.0625,35.0,-1,0.0,0.15209999999990487
219,33,0.5,0.125,35.0,-1,0.0,0.39170000000001437
220,33,0.5,0.25,35.0,1,1.0,0.3020999999999958
221,33,0.5,0.0,-35.0,-1,1.0,1.2116000000000895
222,33,0.5,0.0,35.0,-1,0.0,0.4215000000000373
223,33,0.5,0.25,-35.0,-1,1.0,0.2859000000000833
224,33,0.5,0.125,35.0,1,1.0,1.0711000000000013
225,33,0.5,1.0,35.0,1,1.0,0.5007000000000517
226,33,0.5,1.0,-35.0,-1,1.0,0.24750000000005912
227,33,0.5,0.125,-35.0,-1,1.0,0.3248000000000957
228,33,0.5,0.125,35.0,1,1.0,0.4193000000000211
229,33,0.5,0.125,35.0,-1,0.0,0.3926000000001295
230,33,0.5,0.25,-35.0,-1,1.0,0.4147000000000389
231,33,0.5,1.0,-35.0,1,0.0,0.11650000000008731
232,33,0.5,0.0625,35.0,1,1.0,1.338899999999967
233,33,0.5,0.25,35.0,-1,0.0,0.13590000000010605
234,33,0.5,0.125,-35.0,-1,1.0,0.42660000000000764
235,33,0.5,0.0,35.0,-1,0.0,0.37360000000001037
236,33,0.5,0.125,35.0,1,1.0,0.819400000000087
237,33,0.5,0.125,-35.0,-1,1.0,0.6798000000000002
238,33,0.5,0.0625,-35.0,-1,1.0,1.142500000000041
239,33,0.5,0.0625,35.0,1,1.0,0.3573000000000093
240,33,0.5,1.0,35.0,1,1.0,0.28500000000008185
241,33,0.5,1.0,35.0,1,1.0,0.08640000000002601
242,33,0.5,0.25,35.0,-1,0.0,0.13610000000005584
243,33,0.5,0.0625,35.0,-1,0.0,0.8255000000000337
244,33,0.5,0.0,35.0,1,1.0,0.31749999999999545
245,33,0.5,1.0,-35.0,-1,1.0,0.527300000000082
246,33,0.5,0.125,-35.0,-1,1.0,0.3390000000000555
247,33,0.5,0.125,35.0,1,1.0,0.26109999999994216
248,33,0.5,0.25,35.0,-1,0.0,2.055400000000077
249,33,0.5,0.0,-35.0,1,0.0,0.13820000000009713
250,33,0.5,0.25,-35.0,-1,1.0,0.2639999999998963
251,33,0.5,0.25,35.0,1,1.0,0.3169000000000324
252,33,0.5,0.25,-35.0,-1,1.0,0.3106999999999971
253,33,0.5,0.0,-35.0,-1,1.0,1.032000000000039
254,33,0.5,0.25,35.0,1,1.0,0.296799999999962
255,33,0.5,0.25,-35.0,-1,1.0,0.2295000000001437
256,33,0.5,0.0,-35.0,-1,1.0,0.7944000000001097
257,33,0.5,1.0,-35.0,-1,1.0,0.1633000000000493
258,33,0.5,0.0625,-35.0,-1,1.0,0.5030000000000427
259,33,0.5,0.0625,35.0,-1,0.0,0.6621000000000095
260,33,0.5,0.0625,35.0,-1,0.0,2.616200000000049
261,33,0.2,0.0625,-35.0,-1,1.0,0.38570000000004256
262,33,0.5,1.0,35.0,-1,0.0,0.0887000000000171
263,33,0.1,1.0,35.0,1,1.0,0.2515000000000782
264,33,0.5,1.0,35.0,1,1.0,0.2762000000000171
265,33,0.5,1.0,-35.0,-1,1.0,0.3505999999999858
266,33,0.5,0.25,35.0,1,1.0,0.4799000000000433
267,33,0.5,0.0,35.0,1,1.0,0.06240000000013879
268,33,0.5,0.0,-35.0,1,0.0,0.10569999999995616
269,33,0.5,0.25,-35.0,-1,1.0,0.3185000000000855
270,33,0.5,1.0,-35.0,-1,1.0,0.2601000000000795
271,33,0.5,1.0,-35.0,-1,1.0,0.23590000000012878
272,33,0.5,0.25,-35.0,-1,1.0,0.3346000000000231
273,33,0.5,0.125,-35.0,-1,1.0,0.14200000000005275
274,33,0.5,0.125,-35.0,-1,1.0,0.03490000000010696
275,33,0.5,0.0625,35.0,-1,0.0,1.1123999999999796
276,33,0.5,0.25,35.0,-1,0.0,0.10490000000004329
277,33,0.5,0.25,35.0,1,1.0,0.27519999999992706
278,33,0.5,1.0,35.0,-1,0.0,0.06460000000004129
279,33,0.5,0.25,-35.0,-1,1.0,0.35770000000002256
280,33,0.5,0.0625,-35.0,-1,1.0,0.7256999999999607
281,33,0.5,0.0,-35.0,-1,1.0,0.11990000000002965
282,33,0.5,0.25,-35.0,-1,1.0,0.28489999999999327
283,33,0.5,0.125,35.0,1,1.0,0.5166000000000395
284,33,0.5,0.125,-35.0,-1,1.0,0.06810000000007221
285,33,0.5,0.0,-35.0,1,0.0,0.7696999999999434
286,33,0.5,0.0625,-35.0,1,0.0,0.4759999999999991
287,33,0.4,0.0625,35.0,1,1.0,2.046600000000126
288,33,0.5,1.0,35.0,1,1.0,0.20270000000004984
289,33,0.5,1.0,-35.0,-1,1.0,0.2844000000000051
290,33,0.5,0.0,-35.0,-1,1.0,0.35810000000003583
291,33,0.5,0.25,35.0,1,1.0,0.23679999999990287
292,33,0.5,1.0,-35.0,-1,1.0,0.20820000000014716
293,33,0.5,1.0,35.0,1,1.0,0.24630000000013297
294,33,0.5,1.0,35.0,1,1.0,0.2340000000000373
295,33,0.5,1.0,-35.0,-1,1.0,0.29540000000008604
296,33,0.5,0.0625,35.0,-1,0.0,1.0633000000000266
297,33,0.5,0.0625,35.0,-1,0.0,0.433400000000006
298,33,0.4,0.0625,-35.0,-1,1.0,2.3202999999999747
299,33,0.5,1.0,35.0,1,1.0,0.2822999999999638
300,33,0.5,1.0,35.0,1,1.0,0.20870000000002165
301,33,0.5,1.0,35.0,1,1.0,0.4474999999999909
302,33,0.5,1.0,-35.0,-1,1.0,0.2415000000000873
303,33,0.5,1.0,-35.0,-1,1.0,0.2134000000000924
304,33,0.5,0.0625,35.0,-1,0.0,0.13650000000006912
305,33,0.5,0.125,-35.0,-1,1.0,0.2939999999999827
306,33,0.5,0.0625,35.0,-1,0.0,0.4397000000000162
307,33,0.5,0.25,-35.0,-1,1.0,0.337099999999964
308,33,0.5,0.25,35.0,1,1.0,0.36990000000002965
309,33,0.5,0.0625,-35.0,-1,1.0,0.42819999999994707
310,33,0.5,0.0,-35.0,-1,1.0,0.5083000000000766
311,33,0.5,0.0625,35.0,1,1.0,0.2884000000000242
312,33,0.5,0.25,-35.0,-1,1.0,0.41839999999990596
313,33,0.5,1.0,35.0,1,1.0,0.24840000000006057
314,33,0.5,0.25,35.0,1,1.0,0.2586000000000013
315,33,0.5,0.25,35.0,1,1.0,0.15530000000012478
316,33,0.5,0.0,-35.0,-1,1.0,0.19869999999991705
317,33,0.5,0.25,35.0,-1,0.0,0.16540000000009059
318,33,0.5,0.125,35.0,1,1.0,0.31549999999992906
319,33,0.5,0.125,35.0,-1,0.0,0.3188999999999851
320,33,0.5,0.25,-35.0,-1,1.0,0.4490000000000691
321,33,0.5,1.0,-35.0,-1,1.0,0.24900000000025102
322,33,0.5,1.0,-35.0,-1,1.0,0.2291000000002441
323,33,0.5,0.25,-35.0,-1,1.0,0.19910000000004402
324,33,0.5,0.0625,35.0,1,1.0,0.10249999999996362
325,33,0.5,1.0,-35.0,-1,1.0,0.2393000000001848
326,33,0.5,0.0,35.0,1,1.0,0.19920000000001892
327,33,0.5,0.25,35.0,1,1.0,0.1329000000000633
328,33,0.5,0.25,-35.0,-1,1.0,0.2960000000000491
329,33,0.5,0.25,-35.0,-1,1.0,0.18619999999987158
330,33,0.5,0.0625,-35.0,-1,1.0,0.19289999999978136
331,33,0.5,0.0625,-35.0,-1,1.0,0.90300000000002
332,33,0.5,0.25,35.0,1,1.0,0.2961999999999989
333,33,0.5,0.25,-35.0,-1,1.0,0.2697000000000571
334,33,0.5,0.25,-35.0,-1,1.0,0.24639999999999418
335,33,0.5,1.0,35.0,1,1.0,0.269800000000032
336,33,0.5,1.0,-35.0,-1,1.0,0.2798000000000229
337,33,0.5,0.0625,-35.0,-1,1.0,0.42990000000008877
338,33,0.5,0.25,35.0,-1,0.0,1.1067000000000462
339,33,0.5,0.0625,-35.0,-1,1.0,0.19339999999988322
340,33,0.5,1.0,-35.0,-1,1.0,0.2667999999998756
341,33,0.5,1.0,-35.0,-1,1.0,0.2601999999999407
342,33,0.5,0.25,-35.0,-1,1.0,0.2701999999999316
343,33,0.5,0.25,-35.0,-1,1.0,0.1971000000000913
344,33,0.5,0.25,35.0,1,1.0,0.33730000000014115
345,33,0.5,0.0625,-35.0,-1,1.0,0.5504000000000815
346,33,0.5,0.25,35.0,1,1.0,0.28719999999998436
347,33,0.5,0.125,-35.0,-1,1.0,0.31730000000015934
348,33,0.5,0.0625,-35.0,-1,1.0,0.8173000000001593
349,33,0.5,0.125,-35.0,1,0.0,0.21060000000011314
350,33,0.3,0.125,35.0,1,1.0,0.28749999999990905
351,33,0.5,1.0,-35.0,-1,1.0,0.36740000000008877
352,33,0.5,0.0625,35.0,-1,0.0,0.5941000000000258
353,33,0.5,0.0625,35.0,-1,0.0,3.347500000000082
354,33,0.5,0.0625,35.0,1,1.0,0.26099999999996726
355,33,0.5,0.125,-35.0,-1,1.0,0.19439999999985957
356,33,0.5,1.0,-35.0,1,0.0,0.10439999999994143
357,33,0.5,0.0625,35.0,-1,0.0,0.5344000000000051
358,33,0.5,0.125,35.0,1,1.0,0.31790000000000873
359,33,0.5,0.25,35.0,1,1.0,0.2679000000000542
360,33,0.5,0.0625,35.0,1,1.0,0.801300000000083
361,33,0.5,0.25,35.0,1,1.0,0.3813999999999851
362,33,0.5,0.125,35.0,1,1.0,1.434800000000223
363,33,0.5,1.0,-35.0,-1,1.0,0.22490000000016153
364,33,0.5,0.0625,-35.0,-1,1.0,0.39840000000003783
365,33,0.5,0.125,35.0,-1,0.0,5.755100000000084
366,33,0.6,0.125,35.0,1,1.0,0.631900000000087
367,33,0.5,1.0,-35.0,1,0.0,0.08529999999996107
368,33,0.5,0.0625,-35.0,-1,1.0,0.4553000000000793
369,33,0.5,0.0,35.0,1,1.0,1.0754000000001724
370,33,0.5,0.25,35.0,1,1.0,0.6589000000001306
371,33,0.5,1.0,-35.0,-1,1.0,0.2722000000001117
372,33,0.5,0.125,35.0,1,1.0,0.3322000000000571
373,33,0.5,1.0,35.0,1,1.0,0.16579999999999018
374,33,0.5,0.0625,35.0,1,1.0,0.3523999999999887
375,33,0.5,0.0,35.0,1,1.0,2.842399999999998
376,33,0.5,0.0625,35.0,1,1.0,0.34589999999980137
377,33,0.5,1.0,-35.0,-1,1.0,0.2625000000000455
378,33,0.5,0.25,-35.0,1,0.0,0.5225000000000364
379,33,0.5,0.125,35.0,1,1.0,0.33599999999978536
380,33,0.5,0.0625,35.0,1,1.0,0.23610000000007858
381,33,0.5,0.0625,35.0,1,1.0,0.26300000000014734
382,33,0.5,0.0625,35.0,1,1.0,0.27959999999984575
383,33,0.5,1.0,35.0,1,1.0,0.39619999999990796
384,33,0.5,0.0625,35.0,1,1.0,0.23250000000007276
385,33,0.5,0.125,-35.0,-1,1.0,0.39259999999990214
386,33,0.5,0.0625,-35.0,-1,1.0,0.5925000000002001
387,33,0.5,0.25,35.0,1,1.0,0.2931999999998425
388,33,0.5,0.0,35.0,-1,0.0,1.3492999999998574
389,33,0.5,0.125,-35.0,-1,1.0,0.5695000000000618
390,33,0.5,0.25,-35.0,-1,1.0,0.286200000000008
391,33,0.5,0.0,35.0,-1,0.0,1.5597000000000207
392,33,0.5,0.125,35.0,1,1.0,0.35960000000000036
393,33,0.5,0.0625,-35.0,-1,1.0,0.25329899999996996
394,33,0.5,0.25,35.0,1,1.0,0.2497000000000753
395,33,0.5,0.125,35.0,1,1.0,0.296500000000151
396,33,0.5,0.25,35.0,1,1.0,0.3304000000000542
397,33,0.5,0.25,35.0,1,1.0,0.3568000000000211
398,33,0.5,0.0625,35.0,1,1.0,0.3601000000001022
399,33,0.5,1.0,35.0,1,1.0,0.2801999999999225
400,33,0.5,0.25,-35.0,-1,1.0,0.21420000000011896
401,33,0.5,0.0625,-35.0,-1,1.0,0.2668999999998505
402,33,0.5,0.0625,-35.0,-1,1.0,0.8203000000000884
403,33,0.5,1.0,-35.0,-1,1.0,0.39039999999999964
404,33,0.5,1.0,35.0,1,1.0,0.31759999999985666
405,33,0.5,0.25,-35.0,-1,1.0,0.3137000000001535
406,33,0.5,0.25,-35.0,-1,1.0,0.2538999999999305
407,33,0.5,0.125,-35.0,-1,1.0,0.48050000000012005
408,33,0.5,1.0,-35.0,-1,1.0,0.22119999999995343
409,33,0.5,0.25,-35.0,-1,1.0,0.3041000000000622
410,33,0.5,0.25,35.0,-1,0.0,0.4773999999999887
411,33,0.5,0.25,35.0,1,1.0,0.3007999999999811
412,33,0.5,1.0,-35.0,-1,1.0,0.35770000000002256
413,33,0.5,0.125,35.0,-1,0.0,2.590900000000147
414,33,0.5,0.125,35.0,1,1.0,0.4049999999999727
415,33,0.5,0.125,-35.0,-1,1.0,0.6544000000001233
416,33,0.5,0.0,-35.0,-1,1.0,2.5046000000002095
417,33,0.5,0.125,35.0,-1,0.0,0.04130000000009204
418,33,0.5,0.25,35.0,1,1.0,0.5814000000002579
419,33,0.5,0.25,-35.0,-1,1.0,0.26139999999986685
420,33,0.5,1.0,-35.0,-1,1.0,0.2718999999999596
421,33,0.5,0.25,35.0,-1,0.0,-0.03510000000005675
422,33,0.5,0.125,-35.0,-1,1.0,0.6150000000002365
423,33,0.5,0.0625,35.0,-1,0.0,0.761600000000044
424,33,0.5,0.125,35.0,1,1.0,1.0384000000001379
425,33,0.5,0.125,35.0,1,1.0,0.2420999999999367
426,33,0.5,0.0,-35.0,-1,1.0,0.16509999999993852
427,33,0.5,1.0,-35.0,-1,1.0,0.4919999999999618
428,33,0.5,1.0,-35.0,-1,1.0,0.24909999999999854
429,33,0.5,0.0625,-35.0,-1,1.0,0.4420000000000073
430,33,0.5,0.25,-35.0,-1,1.0,0.3586999999999989
431,33,0.5,0.125,-35.0,-1,1.0,0.08909999999991669
432,33,0.5,0.0625,-35.0,-1,1.0,0.3423000000002503
433,33,0.5,0.0,-35.0,-1,1.0,0.5157000000001517
434,33,0.5,0.0625,-35.0,-1,1.0,0.28910000000018954
435,33,0.5,0.25,-35.0,-1,1.0,0.2658000000001266
436,33,0.5,1.0,35.0,1,1.0,0.25919999999996435
437,33,0.5,1.0,35.0,1,1.0,0.25260000000002947
438,33,0.5,0.125,-35.0,-1,1.0,0.47919999999999163
439,33,0.5,0.0,35.0,-1,0.0,0.4193000000000211
440,33,0.5,0.0625,-35.0,-1,1.0,2.9994000000001506
441,33,0.5,0.125,35.0,1,1.0,0.40269999999986794
442,33,0.5,1.0,-35.0,-1,1.0,0.22280000000000655
443,33,0.5,0.25,-35.0,1,0.0,0.08960000000001855
444,33,0.5,0.125,35.0,1,1.0,0.2966000000001259
445,33,0.5,0.0,-35.0,1,0.0,0.4532000000001517
446,33,0.6,0.0,-35.0,-1,1.0,1.7097000000001117
447,33,0.5,1.0,-35.0,-1,1.0,0.37990000000013424
448,33,0.5,1.0,35.0,1,1.0,0.28350000000000364
449,33,0.5,0.125,35.0,1,1.0,0.3201000000001386
450,33,0.5,0.125,-35.0,-1,1.0,-2.2737367544323206e-13
451,33,0.5,1.0,-35.0,-1,1.0,0.14350000000013097
452,33,0.5,0.0625,-35.0,-1,1.0,0.4338000000000193
453,33,0.5,1.0,35.0,1,1.0,0.23049999999989268
454,33,0.5,0.0625,-35.0,-1,1.0,1.850500000000011
455,33,0.5,1.0,35.0,1,1.0,0.19079999999985375
456,33,0.5,1.0,-35.0,-1,1.0,0.20059999999989486
457,33,0.5,0.0625,-35.0,-1,1.0,1.3806999999999334
458,33,0.5,0.125,35.0,1,1.0,0.5806999999999789
459,33,0.5,0.0625,35.0,-1,0.0,2.3876999999999953
460,33,0.5,0.0625,-35.0,-1,1.0,0.2543000000000575
461,33,0.5,1.0,-35.0,-1,1.0,0.2278000000001157
462,33,0.5,1.0,35.0,-1,0.0,0.38419999999996435
463,33,0.3,1.0,35.0,-1,0.0,0.3043999999999869
464,33,0.2,1.0,35.0,1,1.0,0.27119999999990796
465,33,0.5,1.0,35.0,1,1.0,0.4614999999998872
466,33,0.5,0.0,35.0,-1,0.0,1.3648999999998068
467,33,0.5,0.0625,-35.0,1,0.0,1.0015000000000782
468,33,0.5,0.25,-35.0,1,0.0,0.2981000000002041
469,33,0.5,0.0625,-35.0,1,0.0,0.7050000000001546
470,33,0.5,0.0,35.0,-1,0.0,2.258299999999963
471,33,0.5,0.0,35.0,-1,0.0,1.231800000000021
472,33,0.5,1.0,35.0,1,1.0,0.24510000000009313
473,33,0.5,0.125,-35.0,-1,1.0,0.2320999999999458
474,33,0.5,0.125,-35.0,-1,1.0,0.6153000000001612
475,33,0.5,0.25,-35.0,-1,1.0,0.3686999999999898
476,33,0.5,1.0,-35.0,-1,1.0,0.49230000000011387
477,33,0.5,0.25,-35.0,-1,1.0,0.2656000000001768
478,33,0.5,0.0,35.0,-1,0.0,2.0523000000000593
479,33,0.5,0.25,-35.0,-1,1.0,0.03919999999993706
480,33,0.5,0.125,-35.0,1,0.0,0.6256000000000768
481,33,0.5,0.25,-35.0,-1,1.0,0.3626000000001568
482,33,0.5,1.0,35.0,1,1.0,0.46270000000004075
483,33,0.5,0.0,35.0,-1,0.0,0.30930000000012114
484,33,0.5,0.125,-35.0,-1,1.0,0.38599999999996726
485,33,0.5,1.0,-35.0,-1,1.0,0.2494000000001506
486,33,0.5,1.0,-35.0,-1,1.0,0.2395000000001346
487,33,0.5,0.25,35.0,1,1.0,0.2966000000001259
488,33,0.5,0.0625,35.0,-1,0.0,0.11940000000004147
489,33,0.5,0.0625,35.0,1,1.0,0.36960000000021864
490,33,0.5,0.125,35.0,1,1.0,0.8264999999998963
491,33,0.5,0.0625,35.0,1,1.0,0.36989999999991596
492,33,0.5,0.0625,35.0,1,1.0,0.34980000000018663
493,33,0.5,0.125,35.0,-1,0.0,0.15360000000009677
494,33,0.5,0.0,-35.0,1,0.0,0.5365999999999076
495,33,0.6,0.0,-35.0,1,0.0,2.2835999999999785
496,33,0.5,1.0,-35.0,-1,1.0,0.22680000000013933
497,33,0.5,0.25,-35.0,-1,1.0,0.2902000000001408
498,33,0.5,0.125,-35.0,1,0.0,3.4869999999998527
499,33,0.5,0.0625,35.0,1,1.0,0.06069999999999709
500,33,0.5,0.0625,-35.0,-1,1.0,0.3006000000000313
501,33,0.5,1.0,35.0,1,1.0,0.24710000000004584
502,33,0.5,0.0625,35.0,1,1.0,0.48080000000004475
503,33,0.5,0.0625,-35.0,1,0.0,0.6346000000000913
504,33,0.5,0.0625,-35.0,1,0.0,0.1874000000000251
505,33,0.5,0.25,35.0,1,1.0,0.41419999999993706
506,33,0.5,1.0,-35.0,-1,1.0,0.3010999999999058
507,33,0.5,0.125,-35.0,-1,1.0,0.3242999999999938
508,33,0.5,1.0,-35.0,-1,1.0,0.25159999999982574
509,33,0.5,0.125,-35.0,-1,1.0,0.2778000000000702
510,33,0.5,0.0,-35.0,-1,1.0,1.0514000000000578
511,33,0.5,0.125,-35.0,-1,1.0,0.31799999999998363
512,33,0.5,0.0,-35.0,-1,1.0,1.8014000000000578
513,33,0.5,1.0,-35.0,1,0.0,0.031400000000076034
514,33,0.3,1.0,-35.0,-1,1.0,0.22820000000001528
515,33,0.5,1.0,-35.0,-1,1.0,0.2682999999999538
516,33,0.5,1.0,35.0,1,1.0,0.2851000000002841
517,33,0.5,0.0625,-35.0,-1,1.0,0.248299999999972
518,33,0.5,1.0,35.0,1,1.0,0.28920000000016444
519,33,0.5,0.0625,35.0,1,1.0,2.8522000000002663
520,33,0.5,0.25,35.0,1,1.0,0.3324999999999818
521,33,0.5,0.0625,35.0,1,1.0,1.7054000000000542
522,33,0.5,1.0,35.0,1,1.0,0.24860000000012406
523,33,0.5,0.0,-35.0,1,0.0,1.448799999999892
524,33,0.5,0.125,-35.0,1,0.0,1.7524000000000797
525,33,0.8,0.125,-35.0,1,0.0,0.5627999999999247
526,33,0.5,1.0,35.0,1,1.0,0.26559999999994943
527,33,0.5,1.0,-35.0,-1,1.0,0.24909999999999854
528,33,0.5,0.0,-35.0,1,0.0,1.9924000000000888
529,33,0.5,0.0625,35.0,1,1.0,0.16940000000022337
530,33,0.5,1.0,35.0,1,1.0,0.25270000000000437
531,33,0.5,0.0625,-35.0,-1,1.0,0.28940000000011423
532,33,0.5,0.125,35.0,1,1.0,0.41950000000019827
533,33,0.5,0.0625,35.0,1,1.0,0.44650000000001455
534,33,0.5,0.0,35.0,1,1.0,0.49289999999996326
535,33,0.5,1.0,-35.0,-1,1.0,0.21280000000001564
536,33,0.5,0.0625,35.0,-1,0.0,0.26299999999991996
537,33,0.5,0.125,35.0,1,1.0,0.6364000000000942
538,33,0.5,0.25,-35.0,-1,1.0,0.3066000000001168
539,33,0.5,1.0,35.0,-1,0.0,0.2665999999999258
540,33,0.5,0.0625,-35.0,-1,1.0,0.35999999999989996
541,33,0.5,0.0625,-35.0,-1,1.0,0.16000000000008185
542,33,0.5,1.0,-35.0,-1,1.0,0.18000000000006366
543,33,0.5,0.0625,-35.0,-1,1.0,0.2436999999999898
544,33,0.5,0.0625,35.0,1,1.0,0.4837999999999738
545,33,0.5,1.0,-35.0,-1,1.0,0.17699999999990723
546,33,0.5,1.0,35.0,1,1.0,0.2336999999999989
547,33,0.5,0.125,35.0,1,1.0,0.2838000000001557
548,33,0.5,0.0625,35.0,-1,0.0,0.0804000000000542
549,33,0.5,0.125,35.0,1,1.0,0.3605000000000018
550,33,0.5,0.25,35.0,-1,0.0,0.10719999999992069
551,33,0.5,0.125,35.0,1,1.0,0.3041000000000622
552,33,0.5,0.0625,-35.0,-1,1.0,0.7573999999999614
553,33,0.5,0.0,-35.0,-1,1.0,0.11100000000010368
554,33,0.5,1.0,-35.0,-1,1.0,0.4341999999999189
555,33,0.5,0.25,35.0,1,1.0,0.3809000000001106
556,33,0.5,0.125,-35.0,-1,1.0,0.27769999999986794
557,33,0.5,1.0,-35.0,-1,1.0,0.26460000000020045
558,33,0.5,0.25,35.0,1,1.0,0.894399999999905
559,33,0.5,0.0,-35.0,-1,1.0,0.24129999999991014
560,33,0.5,0.0,-35.0,-1,1.0,1.4080000000001291
561,33,0.5,0.25,-35.0,-1,1.0,0.29120000000011714
562,33,0.5,0.0,-35.0,-1,1.0,0.865099999999984
563,33,0.5,0.25,-35.0,-1,1.0,0.14810000000011314
564,33,0.5,0.125,-35.0,1,0.0,0.13140000000021246
565,33,0.3,0.125,-35.0,1,0.0,0.20210000000020045
566,33,0.5,1.0,-35.0,-1,1.0,0.2983000000001539
567,33,0.5,1.0,-35.0,-1,1.0,0.3351999999999862
568,33,0.5,0.125,-35.0,-1,1.0,0.6017000000001644
569,33,0.5,0.0,-35.0,1,0.0,1.4682999999999993
570,33,0.5,0.25,-35.0,-1,1.0,0.22530000000006112
571,33,0.5,0.0625,-35.0,1,0.0,3.3320000000001073
572,33,0.4,0.0625,-35.0,1,0.0,7.822200000000066
573,33,0.5,1.0,-35.0,-1,1.0,0.2624000000000706
574,33,0.5,0.0625,35.0,1,1.0,0.27939999999989595
575,33,0.5,0.0,-35.0,1,0.0,0.2589999999997872
576,33,0.5,0.0,-35.0,1,0.0,0.7925000000002456
577,33,0.5,1.0,-35.0,-1,1.0,0.5425000000000182
578,33,0.5,0.0,35.0,-1,0.0,0.18260000000009313
579,33,0.5,0.125,35.0,1,1.0,3.749600000000328
580,33,0.5,0.125,-35.0,-1,1.0,0.3167000000000826
581,33,0.5,0.125,35.0,-1,0.0,0.05639999999993961
582,33,0.5,0.0,-35.0,1,0.0,2.1198000000001684
583,33,0.5,0.25,-35.0,-1,1.0,0.21319999999991524
584,33,0.5,0.125,35.0,1,1.0,0.3298000000002048
585,33,0.5,0.25,-35.0,-1,1.0,0.3166000000001077
586,33,0.5,0.25,-35.0,-1,1.0,0.21690000000012333
587,33,0.5,0.25,-35.0,-1,1.0,0.2667999999998756
588,33,0.5,0.0,35.0,1,1.0,0.3201000000001386
589,33,0.5,1.0,-35.0,-1,1.0,0.13710000000014588
590,33,0.5,0.25,-35.0,1,0.0,0.19679999999993925
591,33,0.5,0.25,35.0,-1,0.0,0.08090000000015607
592,33,0.5,0.125,35.0,1,1.0,0.5239000000001397
593,33,0.5,1.0,-35.0,-1,1.0,0.2505999999998494
594,33,0.5,0.25,35.0,1,1.0,0.23739999999997963
595,33,0.5,0.0,-35.0,1,0.0,1.990900000000238
596,33,0.5,0.0,-35.0,1,0.0,0.35399999999981446
597,33,0.5,1.0,-35.0,-1,1.0,0.23080000000027212
598,33,0.5,1.0,-35.0,-1,1.0,0.4740999999999076
599,33,0.5,0.125,-35.0,-1,1.0,0.764299999999821
600,33,0.5,0.0625,35.0,1,1.0,0.3281000000001768
601,33,0.5,0.25,-35.0,-1,1.0,0.5111000000001695
602,33,0.5,1.0,-35.0,-1,1.0,0.30440000000044165
603,33,0.5,0.125,-35.0,-1,1.0,0.1344000000003689
604,33,0.5,1.0,35.0,1,1.0,0.27120000000013533
605,33,0.5,0.25,35.0,1,1.0,0.5250999999998385
606,33,0.5,0.125,35.0,1,1.0,0.32130000000006476
607,33,0.5,0.0625,35.0,1,1.0,0.2481999999999971
608,33,0.5,0.125,-35.0,-1,1.0,0.1748000000002321
609,33,0.5,1.0,-35.0,-1,1.0,0.35809999999992215
610,33,0.5,0.0625,-35.0,1,0.0,0.298200000000179
611,33,0.5,0.25,35.0,1,1.0,0.3215999999997621
612,33,0.5,0.0625,-35.0,-1,1.0,0.4153000000001157
613,33,0.5,1.0,-35.0,-1,1.0,0.2318000000000211
614,33,0.5,0.125,-35.0,-1,1.0,0.7854000000002088
615,33,0.5,0.0,-35.0,-1,1.0,0.9719000000000051
616,33,0.5,0.125,-35.0,-1,1.0,0.5453999999999724
617,33,0.5,0.25,35.0,1,1.0,0.2755000000001928
618,33,0.5,0.0,35.0,-1,0.0,0.5019999999999527
619,33,0.5,0.0625,-35.0,-1,1.0,0.5056000000004133
620,33,0.5,0.0,-35.0,-1,1.0,1.2390999999997803
621,33,0.5,0.25,-35.0,-1,1.0,0.29550000000062937
622,33,0.5,1.0,-35.0,-1,1.0,0.4356999999999971
623,33,0.5,0.0625,35.0,1,1.0,0.4625999999998385
624,33,0.5,1.0,-35.0,-1,1.0,0.2426000000004933
625,33,0.5,1.0,-35.0,-1,1.0,0.23919999999998254
626,33,0.5,0.0625,35.0,-1,0.0,0.2959000000000742
627,33,0.2,0.0625,35.0,-1,0.0,1.0193999999996777
628,33,0.5,1.0,35.0,1,1.0,0.44969999999966603
629,33,0.5,0.0625,35.0,-1,0.0,2.3070000000002437
630,33,0.2,0.0625,-35.0,1,0.0,0.12289899999996123
631,33,0.5,1.0,35.0,1,1.0,0.27640000000019427
632,33,0.5,0.25,-35.0,1,0.0,0.35980000000017753
633,33,0.5,0.0,-35.0,-1,1.0,0.4531999999994696
634,33,0.5,0.0,-35.0,-1,1.0,0.06660000000010768
635,33,0.5,1.0,-35.0,-1,1.0,0.14010000000007494
636,33,0.5,0.125,-35.0,-1,1.0,0.0601000000001477
637,33,0.5,1.0,35.0,1,1.0,-0.013100000000122236
638,33,0.5,0.25,35.0,-1,0.0,0.2539000000001579
639,33,0.5,0.0625,-35.0,1,0.0,0.24710000000004584
640,33,0.5,0.125,35.0,1,1.0,0.5205000000005384
641,33,0.5,1.0,35.0,-1,0.0,0.4337999999997919
642,33,0.4,1.0,35.0,-1,0.0,0.34380000000010114
643,33,0.3,1.0,-35.0,-1,1.0,0.22399999999970532
644,33,0.5,1.0,35.0,1,1.0,0.3639000000002852
645,33,0.5,1.0,-35.0,-1,1.0,0.2440999999998894
646,33,0.5,0.0625,-35.0,-1,1.0,0.3674999999998363
647,33,0.5,0.0625,-35.0,1,0.0,1.210700000000088
648,33,0.4,0.0625,-35.0,-1,1.0,2.78440000000046
649,33,0.5,1.0,35.0,1,1.0,0.3042000000000371
650,33,0.5,0.0625,35.0,1,1.0,0.2782000000001972
651,33,0.5,0.125,-35.0,-1,1.0,0.4713000000001557
652,33,0.5,0.0,35.0,1,1.0,0.3845000000001164
653,33,0.5,0.0625,35.0,1,1.0,0.8144999999999527
654,33,0.5,1.0,-35.0,-1,1.0,0.39469999999982974
655,33,0.5,1.0,-35.0,-1,1.0,0.2847999999999047
656,33,0.5,1.0,35.0,1,1.0,0.3383000000003449
657,33,0.5,0.125,-35.0,-1,1.0,0.8315000000002328
658,33,0.5,0.125,-35.0,-1,1.0,0.6514000000001943
659,33,0.5,0.0625,35.0,-1,0.0,1.955199999999877
660,33,0.5,0.0,35.0,1,1.0,2.0018999999997504
661,33,0.5,0.125,-35.0,-1,1.0,2.0655000000001564
662,33,0.5,0.0625,35.0,-1,0.0,-0.0016000000000531145
663,33,0.5,0.0625,35.0,1,1.0,0.46880000000010114
664,33,0.5,0.125,35.0,1,1.0,0.40550000000030195
665,33,0.5,0.25,35.0,1,1.0,0.4420999999997548
666,33,0.5,0.25,-35.0,-1,1.0,0.15560000000004948
667,33,0.5,1.0,-35.0,-1,1.0,0.40219999999999345
668,33,0.5,0.25,35.0,1,1.0,0.36580000000003565
669,33,0.5,0.125,-35.0,-1,1.0,0.25260000000025684
670,33,0.5,0.0625,-35.0,-1,1.0,0.6325999999999112
671,33,0.5,0.125,-35.0,-1,1.0,0.31579999999985375
672,33,0.5,0.125,-35.0,-1,1.0,0.18269999999984066
673,33,0.5,1.0,-35.0,-1,1.0,0.2659000000003289
674,33,0.5,0.25,35.0,1,1.0,0.6359999999999673
675,33,0.5,0.0625,-35.0,-1,1.0,0.3897999999999229
676,33,0.5,1.0,-35.0,-1,1.0,0.2596000000003187
677,33,0.5,0.25,-35.0,-1,1.0,0.3297999999995227
678,33,0.5,1.0,35.0,-1,0.0,0.01639999999997599
679,33,0.5,0.25,35.0,-1,0.0,0.23640000000023065
680,33,0.1,0.25,-35.0,-1,1.0,0.2800000000002001
681,33,0.5,1.0,35.0,1,1.0,0.24330000000009022
682,33,0.5,0.125,-35.0,-1,1.0,4.96349999999984
683,33,0.5,0.125,35.0,1,1.0,0.283900000000358
684,33,0.5,0.125,-35.0,-1,1.0,-0.0029999999997016857
685,33,0.5,1.0,-35.0,-1,1.0,0.20699999999987995
686,33,0.5,0.125,35.0,1,1.0,0.22710000000006403
687,33,0.5,0.125,-35.0,-1,1.0,0.6736999999998261
688,33,0.5,0.25,-35.0,-1,1.0,0.4271000000003369
689,33,0.5,0.0625,35.0,1,1.0,0.3704999999999927
690,33,0.5,0.125,35.0,1,1.0,0.2705000000000837
691,33,0.5,1.0,-35.0,-1,1.0,0.30720000000019354
692,33,0.5,1.0,-35.0,-1,1.0,0.337699999999586
693,33,0.5,0.125,-35.0,-1,1.0,0.37409999999999854
694,33,0.5,0.125,-35.0,-1,1.0,0.12110000000029686
695,33,0.5,1.0,-35.0,-1,1.0,0.06090000000040163
696,33,0.5,0.125,-35.0,1,0.0,0.5046000000002095
697,33,0.5,0.0625,-35.0,-1,1.0,0.3380000000001928
698,33,0.5,0.0625,-35.0,1,0.0,0.11810000000014043
699,33,0.5,0.25,35.0,-1,0.0,0.36160000000018044
700,33,0.5,0.0625,-35.0,-1,1.0,2.584900000000289
701,33,0.5,0.25,-35.0,-1,1.0,0.3218000000001666
702,33,0.5,0.125,-35.0,-1,1.0,2.3218000000001666
703,33,0.5,1.0,-35.0,-1,1.0,0.21520000000009532
704,33,0.5,0.25,-35.0,-1,1.0,0.6653000000001157
705,33,0.5,0.0,35.0,-1,0.0,2.5187000000000808
706,33,0.2,0.0,35.0,1,1.0,0.3287000000000262
707,33,0.5,1.0,35.0,1,1.0,0.32880000000022847
708,33,0.5,0.0625,-35.0,-1,1.0,0.45890000000008513
709,33,0.5,0.0625,35.0,1,1.0,2.315599999999904
710,33,0.5,0.0625,35.0,1,1.0,0.4023000000001957
711,33,0.5,0.25,35.0,1,1.0,0.32240000000047075
712,33,0.5,0.0625,-35.0,-1,1.0,0.6424999999999272
713,33,0.5,1.0,35.0,1,1.0,0.2659000000003289
714,33,0.5,0.25,-35.0,-1,1.0,0.41919999999981883
715,33,0.5,1.0,35.0,1,1.0,2.6327000000001135
716,33,0.5,0.25,-35.0,-1,1.0,0.28270000000020445
717,33,0.5,0.25,-35.0,-1,1.0,0.21939999999995052
718,33,0.5,1.0,-35.0,-1,1.0,0.25280000000020664
719,33,0.5,0.125,35.0,1,1.0,0.29959999999982756
720,33,0.5,0.25,-35.0,-1,1.0,0.29959999999982756
721,33,0.5,0.125,35.0,1,1.0,0.5297999999997955
722,33,0.5,0.0,35.0,1,1.0,0.3063999999999396
723,33,0.5,0.0625,-35.0,-1,1.0,0.523200000000088
724,33,0.5,0.125,35.0,-1,0.0,0.423200000000179
725,33,0.5,0.0625,-35.0,1,0.0,0.38320000000021537
726,33,0.5,0.125,35.0,-1,0.0,2.4767000000001644
727,33,0.5,0.0625,35.0,-1,0.0,0.7734000000000378
728,33,0.4,0.0625,35.0,1,1.0,0.7102000000004409
729,33,0.5,1.0,35.0,1,1.0,0.27369999999973516
730,33,0.5,0.125,-35.0,-1,1.0,0.9937999999997373
731,33,0.5,0.0,-35.0,1,0.0,0.8272000000001754
732,33,0.5,0.0,35.0,1,1.0,1.9738000000002103
733,33,0.5,0.0625,35.0,-1,0.0,2.7006000000001222
734,33,0.5,0.0625,35.0,1,1.0,0.5309000000002015
735,33,0.5,1.0,-35.0,-1,1.0,0.3442000000004555
736,33,0.5,0.25,-35.0,-1,1.0,0.9475999999999658
737,33,0.5,0.25,35.0,-1,0.0,0.027399999999943248
738,33,0.5,0.0625,-35.0,-1,1.0,0.2777000000000953
739,33,0.5,0.125,-35.0,-1,1.0,0.324500000000171
740,33,0.5,0.0,-35.0,-1,1.0,0.5610999999998967
741,33,0.5,0.0625,-35.0,1,0.0,0.3312999999998283
742,33,0.5,0.25,35.0,1,1.0,0.2814000000003034
743,33,0.5,0.0625,35.0,-1,0.0,0.9614000000001397
744,33,0.5,0.25,-35.0,-1,1.0,0.46820000000025175
745,33,0.5,0.0625,35.0,1,1.0,2.5313999999998487
746,33,0.5,0.125,35.0,1,1.0,0.4816000000000713
747,33,0.5,0.125,-35.0,-1,1.0,0.9783000000002176
748,33,0.5,1.0,-35.0,-1,1.0,0.38850000000002183
749,33,0.5,0.25,-35.0,-1,1.0,0.42180000000007567
750,33,0.5,1.0,-35.0,-1,1.0,0.05510000000003856
751,33,0.5,0.25,35.0,1,1.0,0.3352000000004409
752,33,0.5,0.25,35.0,1,1.0,0.3053000000004431
753,33,0.5,0.0,-35.0,-1,1.0,0.5286999999998443
754,33,0.5,0.25,35.0,1,1.0,0.3253999999997177
755,33,0.5,1.0,-35.0,-1,1.0,0.3354999999996835
756,33,0.5,0.25,-35.0,-1,1.0,0.5522000000000844
757,33,0.5,0.25,35.0,1,1.0,0.2856000000001586
758,33,0.5,0.0625,-35.0,-1,1.0,0.3456989999999678
759,33,0.5,0.0625,-35.0,-1,1.0,0.4991000000004533
760,33,0.5,0.125,-35.0,1,0.0,0.17910000000028958
761,33,0.5,0.0625,-35.0,1,0.0,0.8092000000001462
762,33,0.5,0.25,35.0,1,1.0,1.0727999999999156
763,33,0.5,1.0,-35.0,-1,1.0,0.2861000000002605
764,33,0.5,0.0625,-35.0,-1,1.0,0.35279999999966094
765,33,0.5,0.125,35.0,1,1.0,0.04959999999982756
766,33,0.5,1.0,35.0,1,1.0,0.3162999999999556
767,33,0.5,0.0625,-35.0,1,0.0,0.2096000000001368
768,33,0.6,0.0625,35.0,1,1.0,1.9531000000001768
769,33,0.5,1.0,-35.0,-1,1.0,0.27309999999988577
770,33,0.5,0.0,-35.0,-1,1.0,0.8265999999998712
771,33,0.5,0.0625,-35.0,-1,1.0,0.5432999999998174
772,33,0.5,0.0625,-35.0,1,0.0,0.46669999999994616
773,33,0.5,0.125,-35.0,-1,1.0,0.2667999999998756
774,33,0.5,0.0625,-35.0,-1,1.0,0.48349999999982174
775,33,0.5,0.125,35.0,1,1.0,0.5969000000000051
776,33,0.5,1.0,35.0,-1,0.0,0.3872000000001208
777,33,0.5,0.0625,-35.0,-1,1.0,0.5738999999998668
778,33,0.5,0.125,-35.0,-1,1.0,0.2672000000002299
779,33,0.5,0.125,-35.0,-1,1.0,0.457300000000032
780,33,0.5,0.0625,-35.0,-1,1.0,0.32389999999986685
781,33,0.5,0.0,35.0,-1,0.0,2.6343000000006214
782,33,0.5,0.25,35.0,1,1.0,0.2577000000001135
783,33,0.5,0.25,35.0,-1,0.0,0.37770000000000437
784,33,0.5,0.0625,35.0,1,1.0,0.3510000000001128
785,33,0.5,0.0625,35.0,1,1.0,0.33439999999973224
786,33,0.5,1.0,35.0,1,1.0,0.4214999999999236
787,33,0.5,0.125,-35.0,-1,1.0,2.614600000000337
788,33,0.5,1.0,35.0,1,1.0,0.21469999999999345
789,33,0.5,0.0625,-35.0,1,0.0,0.15810000000010405
790,33,0.5,0.25,35.0,1,1.0,0.48489999999992506
791,33,0.5,1.0,35.0,1,1.0,0.2348999999994703
792,33,0.5,0.0625,-35.0,1,0.0,2.9351000000001477
793,33,0.8,0.0625,-35.0,-1,1.0,0.2784999999998945
794,33,0.5,1.0,-35.0,-1,1.0,0.27179999999953
795,33,0.5,0.25,35.0,1,1.0,0.2319999999999709
796,33,0.5,1.0,-35.0,-1,1.0,0.4886999999998807
797,33,0.5,0.125,35.0,1,1.0,
798,33,0.5,1.0,35.0,-1,0.0,
799,33,0.6,1.0,-35.0,-1,1.0,
800,33,0.5,1.0,-35.0,-1,1.0,
801,33,0.5,0.125,-35.0,-1,1.0,
802,33,0.5,1.0,35.0,1,1.0,
803,33,0.5,0.125,-35.0,1,0.0,
804,33,0.5,0.0625,35.0,-1,0.0,
805,33,0.5,0.125,-35.0,1,0.0,
806,33,0.5,0.0625,35.0,1,1.0,
807,33,0.5,0.125,35.0,1,1.0,
808,33,0.5,0.25,35.0,1,1.0,
809,33,0.5,0.0625,-35.0,1,0.0,
810,33,0.5,0.25,-35.0,-1,1.0,
811,33,0.5,0.0625,-35.0,-1,1.0,
812,33,0.5,0.125,-35.0,-1,1.0,
813,33,0.5,1.0,-35.0,-1,1.0,
814,33,0.5,1.0,-35.0,-1,1.0,
815,33,0.5,0.125,35.0,-1,0.0,
816,33,0.5,0.125,-35.0,-1,1.0,
817,33,0.5,0.0,35.0,-1,0.0,
818,33,0.5,0.125,35.0,1,1.0,
819,33,0.5,0.0625,-35.0,1,0.0,
820,33,0.2,0.0625,-35.0,-1,1.0,
821,33,0.5,1.0,-35.0,1,0.0,
822,33,0.5,0.25,-35.0,1,0.0,
823,33,0.5,0.125,35.0,-1,0.0,
824,33,0.5,0.0625,-35.0,1,0.0,4.50530099999969
825,33,0.5,0.125,-35.0,1,0.0,2.56550100000004
826,33,0.5,0.125,35.0,1,1.0,15.892400999999609
827,33,0.5,0.125,35.0,-1,0.0,1.2661010000006172
828,33,0.5,0.0625,-35.0,-1,1.0,3.0729010000000017
829,33,0.5,0.25,35.0,1,1.0,0.20930100000032326
830,33,0.5,0.125,35.0,-1,0.0,15.476400999999896
831,33,0.5,0.0,-35.0,1,0.0,9.876800999999887
832,33,0.6,0.0,-35.0,1,0.0,9.42390099999966
833,33,0.5,1.0,35.0,1,1.0,7.900701000000026
834,33,0.5,0.125,-35.0,1,0.0,10.64100099999996
835,33,0.5,0.25,-35.0,-1,1.0,14.831300999999712
836,33,0.5,0.0,35.0,-1,0.0,5.058200999999826
837,33,0.5,0.125,35.0,-1,0.0,9.735001000000011
838,33,0.5,0.0625,-35.0,-1,1.0,1.0021010000000388
839,33,0.5,0.125,-35.0,-1,1.0,3.542001000000255
840,33,0.5,1.0,-35.0,-1,1.0,0.4355009999999311
841,33,0.5,1.0,-35.0,-1,1.0,0.4956010000000788
842,33,0.5,0.0,35.0,-1,0.0,1.6324010000003
843,33,0.5,0.25,35.0,-1,0.0,2.5359010000001945
844,33,0.5,0.25,-35.0,-1,1.0,3.9559010000002672
845,33,0.5,0.0625,35.0,-1,0.0,14.779401000000234
846,33,0.5,0.125,35.0,-1,0.0,3.596400999999787
847,33,0.5,0.125,-35.0,-1,1.0,36.95000100000016
848,33,0.5,0.0625,-35.0,-1,1.0,2.6172010000000228
849,33,0.5,0.0625,35.0,1,1.0,1.027400999999827
850,33,0.5,1.0,35.0,1,1.0,0.6174009999999726
851,33,0.5,1.0,-35.0,-1,1.0,0.504200999999739
852,33,0.5,0.0625,35.0,1,1.0,0.8877010000001064
853,33,0.5,0.0625,-35.0,-1,1.0,0.5077009999999973
854,33,0.5,0.0,-35.0,1,0.0,2.9944009999999253
855,33,0.5,0.125,35.0,1,1.0,4.42120100000011
856,33,0.5,0.125,-35.0,-1,1.0,2.2614010000002054
857,33,0.5,1.0,-35.0,-1,1.0,0.2682009999998627
858,33,0.5,0.0625,35.0,-1,0.0,1.924801000000116
859,33,0.5,0.125,35.0,1,1.0,1.6383010000004106
860,33,0.5,0.125,-35.0,-1,1.0,6.191700999999739
861,33,0.5,0.125,35.0,-1,0.0,0.9685009999998329
862,33,0.5,0.0625,35.0,-1,0.0,8.222001000000091
863,33,0.3,0.0625,35.0,-1,0.0,0.5256009999998241
864,33,0.5,1.0,35.0,1,1.0,0.5392010000000482
865,33,0.5,0.0625,-35.0,-1,1.0,1.99250099999972
866,33,0.5,0.25,-35.0,-1,1.0,0.5757010000002083
867,33,0.5,0.0625,35.0,-1,0.0,3.689201000000139
868,33,0.5,0.125,35.0,-1,0.0,1.5194010000000162
869,33,0.5,0.0625,-35.0,1,0.0,4.25280100000009
870,33,0.5,0.0625,-35.0,-1,1.0,1.6963009999999485
871,33,0.5,0.125,-35.0,-1,1.0,4.793000999999549
872,33,0.5,0.25,-35.0,-1,1.0,0.5231009999997696
873,33,0.5,1.0,-35.0,-1,1.0,0.41320100000029925
874,33,0.5,0.0625,35.0,-1,0.0,4.146600999999919
875,33,0.5,0.25,-35.0,-1,1.0,0.5833010000001195
876,33,0.5,0.25,-35.0,-1,1.0,3.7036010000001625
877,33,0.5,0.0625,-35.0,1,0.0,10.317101000000093
878,33,0.5,0.0625,-35.0,-1,1.0,16.167401000000154
879,33,0.5,0.25,-35.0,-1,1.0,13.237900999999965
880,33,0.5,0.0625,35.0,-1,0.0,24.19140100000004
881,33,0.5,0.25,35.0,-1,0.0,8.558600999999726
882,33,0.5,0.0625,35.0,1,1.0,1.3022009999999682
883,33,0.5,0.125,35.0,-1,0.0,0.5189009999999143
884,33,0.5,0.25,35.0,-1,0.0,50.57900099999961
885,33,0.5,0.125,-35.0,1,0.0,10.043400999999903
886,33,0.5,0.125,-35.0,-1,1.0,0.48030100000005405
887,33,0.5,0.0625,-35.0,-1,1.0,5.923701000000165
888,33,0.5,0.125,35.0,-1,0.0,0.4471010000002025
889,33,0.5,0.125,-35.0,-1,1.0,4.650801000000229
890,33,0.5,1.0,35.0,1,1.0,15.610701000000063
891,33,0.5,0.25,-35.0,-1,1.0,3.6810010000003786
892,33,0.5,0.0625,35.0,-1,0.0,11.464400999999725
893,33,0.5,0.25,35.0,1,1.0,1.0281009999998787
894,33,0.5,0.0,35.0,-1,0.0,3.3351010000001224
895,33,0.3,0.0,-35.0,-1,1.0,9.498300999999628
896,33,0.5,1.0,35.0,-1,0.0,5.185400999999729
897,33,0.5,0.125,-35.0,1,0.0,5.942101000000093
898,33,0.3,0.125,35.0,-1,0.0,2.8924010000000635
899,33,0.5,1.0,35.0,-1,0.0,1.9559009999998125
900,33,0.5,0.25,-35.0,-1,1.0,9.909400999999889
901,33,0.5,0.125,-35.0,-1,1.0,3.166201000000001
902,33,0.5,0.0625,35.0,-1,0.0,11.263001000000259
903,33,0.5,0.0625,35.0,-1,0.0,4.656601000000137
904,33,0.5,0.25,-35.0,-1,1.0,0.633401000000049
905,33,0.5,0.25,-35.0,-1,1.0,0.29340099999990343
906,33,0.5,0.0625,35.0,-1,0.0,4.780201000000034
907,33,0.1,0.0625,35.0,-1,0.0,4.803801000000021
908,33,0.5,1.0,35.0,1,1.0,2.6139009999997143
909,33,0.5,0.0625,35.0,-1,0.0,2.1007009999998445
910,33,0.5,0.25,-35.0,-1,1.0,0.19740100000035454
911,33,0.5,0.0,-35.0,-1,1.0,0.6909009999999398
912,33,0.5,0.125,35.0,-1,0.0,1.0976009999999405
913,33,0.5,0.125,-35.0,-1,1.0,0.4611009999998714
914,33,0.5,1.0,-35.0,-1,1.0,0.3811010000003989
915,33,0.5,0.125,35.0,-1,0.0,3.7278009999999995
916,33,0.5,0.0625,-35.0,-1,1.0,0.9046010000001843
917,33,0.5,1.0,-35.0,-1,1.0,0.28120099999978265
918,33,0.5,1.0,-35.0,-1,1.0,0.25150099999973463
919,33,0.5,0.125,35.0,-1,0.0,3.4547010000001137
920,33,0.5,0.0,35.0,1,1.0,1.3816009999995913
921,33,0.5,0.0625,-35.0,-1,1.0,5.931600999999773
922,33,0.5,1.0,35.0,1,1.0,0.7185010000002876
923,33,0.5,0.0,35.0,-1,0.0,6.665300999999545
924,33,0.2,0.0,-35.0,-1,1.0,5.808800999999676
925,33,0.5,1.0,35.0,1,1.0,0.6422010000001137
926,33,0.5,0.25,35.0,1,1.0,1.5523009999997157
927,33,0.5,0.125,-35.0,1,0.0,6.442500999999993
928,33,0.5,0.0625,-35.0,-1,1.0,25.91930100000036
929,33,0.5,0.125,-35.0,1,0.0,12.353101000000152
930,33,0.6,0.125,-35.0,-1,1.0,
931,33,0.5,1.0,35.0,-1,0.0,
932,33,0.5,0.0625,-35.0,-1,1.0,16.8440999999998
933,33,0.5,0.0625,35.0,-1,0.0,17.061201000000437
934,33,0.5,0.125,35.0,-1,0.0,16.73830100000032
935,33,0.5,0.0,-35.0,-1,1.0,14.09530100000029
936,33,0.5,0.125,35.0,-1,0.0,9.825701000000208
937,33,0.5,0.0,-35.0,-1,1.0,17.745900999999776
938,33,0.5,0.25,-35.0,-1,1.0,25.60960100000011
939,33,0.5,0.0625,-35.0,-1,1.0,13.523600999998962
940,33,0.5,0.25,35.0,1,1.0,41.12030099999993
941,33,0.5,0.25,-35.0,1,0.0,1.7712009999995644
942,33,0.5,0.125,35.0,-1,0.0,19.42450099999951
1,34,0.5,0.0,35.0,-1,0.0,0.6023000000000001
2,34,0.5,0.0625,35.0,1,1.0,5.406599999999999
3,34,0.5,0.0,-35.0,1,0.0,6.3016000000000005
4,34,0.5,0.125,-35.0,-1,1.0,0.45800000000000196
5,34,0.5,0.125,-35.0,-1,1.0,0.47550000000000026
6,34,0.5,0.125,35.0,-1,0.0,0.4233000000000047
7,34,0.5,0.0625,35.0,1,1.0,0.12699999999999534
8,34,0.5,0.0,35.0,1,1.0,4.2376000000000005
9,34,0.5,0.25,35.0,1,1.0,0.26839999999999264
10,34,0.5,0.0,-35.0,-1,1.0,1.2293999999999983
11,34,0.5,0.25,-35.0,-1,1.0,0.3925999999999945
12,34,0.5,0.0,35.0,1,1.0,0.43839999999999435
13,34,0.5,0.25,-35.0,-1,1.0,0.2458999999999989
14,34,0.5,0.0625,-35.0,-1,1.0,0.6890999999999963
15,34,0.5,0.25,-35.0,-1,1.0,0.30740000000000123
16,34,0.5,1.0,-35.0,-1,1.0,0.17730000000000246
17,34,0.5,0.25,-35.0,-1,1.0,0.2634000000000043
18,34,0.5,0.25,35.0,1,1.0,0.14860000000001605
19,34,0.5,1.0,-35.0,-1,1.0,0.24480000000001212
20,34,0.5,0.0625,-35.0,1,0.0,0.6222000000000065
21,34,0.5,0.25,-35.0,-1,1.0,0.12400000000000944
22,34,0.5,0.0625,-35.0,-1,1.0,0.6765000000000043
23,34,0.5,0.0,-35.0,-1,1.0,0.2886000000000024
24,34,0.5,1.0,35.0,1,1.0,0.1980000000000075
25,34,0.5,0.0625,-35.0,-1,1.0,0.29099899999999934
26,34,0.5,0.25,-35.0,-1,1.0,0.238900000000001
27,34,0.5,0.125,-35.0,-1,1.0,0.24049999999999727
28,34,0.5,0.125,35.0,1,1.0,0.3222999999999985
29,34,0.5,0.0625,35.0,-1,0.0,0.9577000000000169
30,34,0.5,0.125,35.0,-1,0.0,0.07550000000000523
31,34,0.5,0.25,-35.0,-1,1.0,0.14339999999999975
32,34,0.5,0.125,35.0,1,1.0,0.2810000000000059
33,34,0.5,1.0,35.0,1,1.0,0.2527999999999935
34,34,0.5,0.25,-35.0,-1,1.0,0.2915999999999883
35,34,0.5,0.125,-35.0,-1,1.0,0.05660000000000309
36,34,0.5,0.0625,-35.0,1,0.0,0.30460000000002196
37,34,0.5,0.25,35.0,-1,0.0,0.12959999999998217
38,34,0.5,0.0625,35.0,1,1.0,0.3696989999999971
39,34,0.5,0.125,-35.0,-1,1.0,0.3036999999999921
40,34,0.5,1.0,-35.0,-1,1.0,0.22210000000001173
41,34,0.5,0.0625,-35.0,1,0.0,0.8113999999999919
42,34,0.5,0.0625,35.0,1,1.0,0.3196999999999832
43,34,0.5,1.0,35.0,1,1.0,0.24519999999998277
44,34,0.5,1.0,-35.0,-1,1.0,0.23519999999999186
45,34,0.5,1.0,-35.0,-1,1.0,0.23679999999998813
46,34,0.5,0.25,-35.0,-1,1.0,0.32279999999997244
