trial_num,session_num,stim_probability_left,contrast,position,response_choice,trial_correct,reaction_time
1,1,0.5,1.0,35.0,1,1.0,0.7106999999999999
2,1,0.5,0.125,35.0,-1,0.0,0.17209900000000022
3,1,0.5,0.125,-35.0,-1,1.0,0.2649000000000026
4,1,0.5,0.125,35.0,1,1.0,0.2434989999999999
5,1,0.5,0.0625,-35.0,-1,1.0,0.18819899999999912
6,1,0.5,0.125,35.0,1,1.0,0.33989899999999906
7,1,0.5,1.0,-35.0,-1,1.0,0.16600000000000037
8,1,0.5,0.25,-35.0,-1,1.0,0.19480000000000075
9,1,0.5,0.125,35.0,1,1.0,0.2727989999999956
10,1,0.5,0.125,-35.0,-1,1.0,0.17689900000000236
11,1,0.5,0.125,35.0,1,1.0,0.20719999999999672
12,1,0.5,0.0625,-35.0,1,0.0,3.128198999999995
13,1,0.5,1.0,-35.0,-1,1.0,0.209499000000001
14,1,0.5,1.0,-35.0,-1,1.0,0.20149899999999832
15,1,0.5,0.0,35.0,1,1.0,0.21220000000000283
16,1,0.5,0.125,-35.0,-1,1.0,0.18299999999999272
17,1,0.5,0.25,-35.0,-1,1.0,0.16489899999999835
18,1,0.5,0.125,-35.0,-1,1.0,0.17610000000000525
19,1,0.5,0.0625,35.0,-1,0.0,0.21999999999999886
20,1,0.5,0.125,35.0,1,1.0,0.2336000000000098
21,1,0.5,0.125,-35.0,-1,1.0,0.25029999999999575
22,1,0.5,1.0,-35.0,1,0.0,-0.02850100000000566
23,1,0.5,0.0625,35.0,1,1.0,0.267399999999995
24,1,0.5,0.0,35.0,1,1.0,0.12940000000000396
25,1,0.5,0.0625,-35.0,1,0.0,0.20059999999999434
26,1,0.5,0.125,-35.0,1,0.0,0.25660000000000593
27,1,0.5,0.125,-35.0,-1,1.0,0.2541000000000082
28,1,0.5,1.0,-35.0,-1,1.0,0.17600000000000193
29,1,0.5,0.0625,35.0,1,1.0,0.29469999999999175
30,1,0.5,0.0,-35.0,1,0.0,0.158299999999997
31,1,0.5,0.25,-35.0,-1,1.0,0.19709900000000857
32,1,0.5,0.0625,-35.0,-1,1.0,0.02020000000000266
33,1,0.5,1.0,35.0,1,1.0,0.27070000000000505
34,1,0.5,0.125,35.0,-1,0.0,0.1524000000000001
35,1,0.5,0.125,-35.0,-1,1.0,0.1919989999999956
36,1,0.5,0.0625,35.0,1,1.0,0.254099999999994
37,1,0.5,0.25,35.0,1,1.0,0.19440000000000168
38,1,0.5,0.125,35.0,1,1.0,1.0290999999999997
39,1,0.5,1.0,35.0,1,1.0,0.288999000000004
40,1,0.5,0.25,35.0,1,1.0,0.19949900000000298
41,1,0.5,0.25,35.0,1,1.0,0.21489900000000262
42,1,0.5,0.0625,35.0,1,1.0,0.502600000000001
43,1,0.5,1.0,35.0,1,1.0,0.16460000000000719
44,1,0.5,0.0625,35.0,1,1.0,0.3662000000000205
45,1,0.5,0.0,-35.0,-1,1.0,0.19220000000001392
46,1,0.5,0.25,-35.0,-1,1.0,0.15020000000001232
47,1,0.5,0.0,35.0,1,1.0,0.20920000000000982
48,1,0.5,0.125,-35.0,-1,1.0,1.5915000000000248
49,1,0.5,0.25,-35.0,-1,1.0,0.205299000000025
50,1,0.5,0.125,35.0,-1,0.0,0.2213000000000136
51,1,0.5,0.125,35.0,1,1.0,0.2839000000000169
52,1,0.5,0.25,-35.0,-1,1.0,0.2230000000000132
53,1,0.5,0.125,-35.0,-1,1.0,0.1949989999999957
54,1,0.5,1.0,-35.0,-1,1.0,0.21940000000000737
55,1,0.5,0.0625,35.0,1,1.0,5.845400000000012
56,1,0.5,1.0,35.0,1,1.0,0.15150000000002706
57,1,0.5,0.125,-35.0,-1,1.0,0.24039899999999648
58,1,0.5,0.125,-35.0,-1,1.0,0.18440000000001078
59,1,0.5,0.25,35.0,1,1.0,0.20029900000002954
60,1,0.5,0.25,35.0,1,1.0,0.23050000000000637
61,1,0.5,0.25,35.0,1,1.0,0.20629900000002976
62,1,0.5,0.25,-35.0,-1,1.0,0.2305990000000122
63,1,0.5,1.0,35.0,1,1.0,0.27530000000001564
64,1,0.5,1.0,-35.0,-1,1.0,0.18370000000001596
65,1,0.5,0.125,-35.0,-1,1.0,0.24260000000001014
66,1,0.5,0.25,35.0,1,1.0,0.478699000000006
67,1,0.5,0.125,-35.0,-1,1.0,0.30559900000002926
68,1,0.5,0.125,35.0,1,1.0,0.3094000000000108
69,1,0.5,0.25,35.0,1,1.0,0.18770000000000664
70,1,0.5,0.25,-35.0,-1,1.0,0.20760000000001355
71,1,0.5,0.0,-35.0,1,0.0,0.31909899999999425
72,1,0.5,1.0,-35.0,-1,1.0,0.19870000000000232
73,1,0.5,0.25,35.0,1,1.0,0.21669900000003395
74,1,0.5,0.25,-35.0,-1,1.0,0.16360000000003083
75,1,0.5,1.0,-35.0,-1,1.0,0.1886000000000081
76,1,0.5,0.0625,-35.0,-1,1.0,0.530600000000021
77,1,0.5,1.0,35.0,1,1.0,0.3930000000000007
78,1,0.5,0.25,-35.0,-1,1.0,0.2588000000000079
79,1,0.5,0.0625,-35.0,1,0.0,0.3008000000000095
80,1,0.5,0.25,35.0,1,1.0,0.23279899999999998
81,1,0.5,0.25,-35.0,-1,1.0,0.19310000000001537
82,1,0.5,1.0,35.0,1,1.0,0.3146989999999903
83,1,0.5,0.0625,35.0,1,1.0,0.20199999999999818
84,1,0.5,0.125,-35.0,-1,1.0,0.2153989999999908
85,1,0.5,0.25,35.0,-1,0.0,0.06349899999997888
86,1,0.5,1.0,-35.0,-1,1.0,0.20829999999995152
87,1,0.5,0.25,35.0,1,1.0,0.2838999999999601
88,1,0.5,1.0,35.0,1,1.0,0.20690000000001874
89,1,0.5,1.0,-35.0,-1,1.0,0.1797990000000027
90,1,0.5,1.0,35.0,1,1.0,0.15699999999998226
91,1,0.2,0.0625,-35.0,1,0.0,0.12329900000003136
92,1,0.2,0.125,35.0,-1,0.0,0.1927000000000021
93,1,0.2,0.0625,35.0,1,1.0,0.2819989999999848
94,1,0.2,0.0,35.0,1,1.0,0.525999000000013
95,1,0.2,1.0,35.0,1,1.0,0.2008000000000152
96,1,0.2,0.0625,35.0,1,1.0,0.20299899999997706
97,1,0.2,0.0625,35.0,1,1.0,0.27609999999998536
98,1,0.2,0.125,35.0,1,1.0,0.18600000000003547
99,1,0.2,0.125,-35.0,1,0.0,0.233099999999979
100,1,0.2,0.0625,35.0,1,1.0,0.13519900000000007
101,1,0.2,0.125,-35.0,1,0.0,0.30979999999999563
102,1,0.2,0.25,35.0,1,1.0,0.7131999999999721
103,1,0.2,1.0,35.0,1,1.0,0.16620000000000346
104,1,0.2,0.0625,35.0,1,1.0,0.27919999999994616
105,1,0.2,0.125,35.0,1,1.0,0.1794999999999618
106,1,0.2,0.125,35.0,1,1.0,0.16129899999998543
107,1,0.2,0.125,-35.0,-1,1.0,0.49819999999994025
108,1,0.2,0.125,35.0,1,1.0,0.34429899999997815
109,1,0.2,0.0625,35.0,-1,0.0,0.5482999999999834
110,1,0.2,0.0625,35.0,1,1.0,3.5011989999999855
111,1,0.2,0.25,35.0,1,1.0,0.3684000000000083
112,1,0.2,0.25,35.0,1,1.0,0.19439999999997326
113,1,0.2,0.0625,35.0,1,1.0,0.2655990000000088
114,1,0.2,1.0,35.0,1,1.0,0.35829999999998563
115,1,0.2,0.25,35.0,1,1.0,0.3725000000000023
116,1,0.2,1.0,35.0,1,1.0,0.18209999999999127
117,1,0.2,0.25,35.0,1,1.0,0.5822000000000003
118,1,0.2,0.125,35.0,1,1.0,0.23339899999996305
119,1,0.2,0.0625,-35.0,-1,1.0,0.3554990000000089
120,1,0.2,0.0,35.0,1,1.0,2.9284999999999854
121,1,0.2,0.125,35.0,1,1.0,0.4270999999999958
122,1,0.2,1.0,35.0,1,1.0,0.39859899999999016
123,1,0.2,0.125,35.0,1,1.0,0.2522999999999911
124,1,0.2,0.0,35.0,1,1.0,2.1179989999999975
125,1,0.2,1.0,35.0,1,1.0,0.16270000000002938
126,1,0.2,0.0625,-35.0,1,0.0,0.20720000000000027
127,1,0.2,0.125,35.0,1,1.0,0.5296989999999369
128,1,0.2,1.0,-35.0,-1,1.0,0.2116999999999507
129,1,0.2,0.0625,35.0,1,1.0,0.15209899999996424
130,1,0.2,0.0625,-35.0,1,0.0,0.19669900000002372
131,1,0.2,0.0625,-35.0,1,0.0,0.21279899999996132
132,1,0.2,0.125,35.0,1,1.0,0.23379900000003317
133,1,0.2,0.25,35.0,1,1.0,0.20579900000001317
134,1,0.2,0.25,-35.0,-1,1.0,0.1928999999999519
135,1,0.2,0.25,35.0,1,1.0,0.1828989999999635
136,1,0.2,1.0,-35.0,-1,1.0,0.17889900000000125
137,1,0.2,0.25,35.0,1,1.0,0.08089999999998554
138,1,0.2,0.25,35.0,1,1.0,0.1938989999999876
139,1,0.2,1.0,35.0,1,1.0,0.17210000000000036
140,1,0.2,0.0625,-35.0,1,0.0,0.19399999999995998
141,1,0.2,0.25,35.0,1,1.0,0.25009999999991805
142,1,0.2,1.0,35.0,1,1.0,0.26240000000001373
143,1,0.2,0.25,35.0,1,1.0,0.1555999999999358
144,1,0.2,0.0625,35.0,1,1.0,0.2670999999999708
145,1,0.2,0.0,35.0,1,1.0,0.19489999999996144
146,1,0.2,0.125,-35.0,-1,1.0,0.5639999999999645
147,1,0.2,0.25,35.0,1,1.0,0.22199999999998
148,1,0.2,0.125,35.0,1,1.0,0.21109899999999016
149,1,0.2,1.0,35.0,1,1.0,0.18759900000003427
150,1,0.2,0.125,35.0,-1,0.0,0.4290999999999485
151,1,0.2,1.0,35.0,1,1.0,0.21330000000000382
152,1,0.2,0.0625,35.0,-1,0.0,0.157100000000014
153,1,0.2,0.0,35.0,1,1.0,0.29019999999997026
154,1,0.2,0.125,35.0,1,1.0,0.17869899999993777
155,1,0.2,0.25,35.0,1,1.0,0.161200000000008
156,1,0.2,0.25,35.0,1,1.0,0.4491989999999646
157,1,0.2,1.0,35.0,1,1.0,0.24549999999999272
158,1,0.8,0.0625,-35.0,1,0.0,0.1634999999999991
159,1,0.8,0.125,-35.0,-1,1.0,0.22429999999997108
160,1,0.8,0.0625,-35.0,-1,1.0,0.2242989999999736
161,1,0.8,0.25,-35.0,-1,1.0,0.21239999999994552
162,1,0.8,0.0,-35.0,1,0.0,0.23139999999989413
163,1,0.8,0.0,-35.0,-1,1.0,0.18639999999993506
164,1,0.8,0.0625,-35.0,-1,1.0,0.18299899999999525
165,1,0.8,0.0625,-35.0,-1,1.0,0.1775999999998703
166,1,0.8,0.25,-35.0,-1,1.0,0.1979989999999816
167,1,0.8,0.0,-35.0,-1,1.0,0.22119999999995343
168,1,0.8,1.0,-35.0,-1,1.0,0.18739999999991142
169,1,0.8,0.25,-35.0,-1,1.0,0.19739999999990232
170,1,0.8,0.125,35.0,1,1.0,0.2014000000000351
171,1,0.8,0.125,-35.0,-1,1.0,0.22630000000003747
172,1,0.8,1.0,35.0,1,1.0,0.22649999999998727
173,1,0.8,0.0,-35.0,-1,1.0,0.20549900000003163
174,1,0.8,0.25,-35.0,-1,1.0,0.21259899999995469
175,1,0.8,1.0,-35.0,-1,1.0,0.18259999999997945
176,1,0.8,0.0625,-35.0,-1,1.0,0.20359899999994013
177,1,0.8,0.25,-35.0,-1,1.0,0.18470000000002074
178,1,0.8,0.0625,-35.0,-1,1.0,0.16499999999984993
179,1,0.8,0.25,-35.0,-1,1.0,0.209699999999998
180,1,0.8,0.25,35.0,1,1.0,0.28569900000002235
181,1,0.8,0.0625,-35.0,-1,1.0,0.23369899999988775
182,1,0.8,0.25,-35.0,-1,1.0,0.2081989999999223
183,1,0.8,0.25,-35.0,-1,1.0,0.10829900000010184
184,1,0.8,0.0625,-35.0,-1,1.0,0.30770000000006803
185,1,0.8,0.0,-35.0,-1,1.0,0.4794000000000551
186,1,0.8,0.0625,-35.0,-1,1.0,0.1897999999999911
187,1,0.8,0.0625,-35.0,-1,1.0,0.5678000000000338
188,1,0.2,0.25,35.0,1,1.0,0.13790000000005875
189,1,0.2,1.0,35.0,1,1.0,0.2019990000000007
190,1,0.2,0.25,35.0,1,1.0,0.2748990000000049
191,1,0.2,0.125,-35.0,-1,1.0,0.2057999999999538
192,1,0.2,0.125,35.0,1,1.0,0.17790000000002237
193,1,0.2,0.25,-35.0,-1,1.0,0.3147999999999911
194,1,0.2,0.0625,35.0,1,1.0,0.2359000000000151
195,1,0.2,0.0,-35.0,-1,1.0,0.17590000000006967
196,1,0.2,0.0625,35.0,1,1.0,0.15699999999992542
197,1,0.2,0.125,35.0,1,1.0,0.20899999999994634
198,1,0.2,1.0,35.0,1,1.0,0.2379999999999427
199,1,0.2,1.0,35.0,1,1.0,0.3107989999999745
200,1,0.2,0.0625,-35.0,-1,1.0,0.21339899999998124
201,1,0.2,0.25,35.0,1,1.0,0.19499999999993634
202,1,0.2,1.0,35.0,1,1.0,0.24899900000002617
203,1,0.2,1.0,35.0,1,1.0,0.19299999999998363
204,1,0.2,0.125,-35.0,1,0.0,0.1960989999998901
205,1,0.2,0.0625,35.0,1,1.0,0.18110000000001492
206,1,0.2,0.0625,35.0,1,1.0,0.203899999999976
207,1,0.2,0.25,35.0,1,1.0,0.2120989999999665
208,1,0.2,1.0,-35.0,-1,1.0,0.18429999999989377
209,1,0.2,0.0625,35.0,1,1.0,0.44909899999993286
210,1,0.2,0.25,35.0,1,1.0,0.1934999999999718
211,1,0.2,0.0625,-35.0,-1,1.0,0.22559899999998834
212,1,0.2,0.125,35.0,1,1.0,0.1211999999999307
213,1,0.2,1.0,35.0,1,1.0,0.21849999999994907
214,1,0.2,0.0,-35.0,1,0.0,1.0331999999999653
215,1,0.2,0.0625,35.0,1,1.0,0.6488000000000511
216,1,0.2,1.0,35.0,1,1.0,0.22669999999993706
217,1,0.2,0.0625,35.0,1,1.0,0.2179999999999609
218,1,0.2,1.0,35.0,1,1.0,0.17429900000001908
219,1,0.2,0.125,35.0,1,1.0,0.20009999999990669
220,1,0.2,1.0,-35.0,-1,1.0,0.2177000000000362
221,1,0.2,0.125,35.0,1,1.0,0.20259999999996126
222,1,0.2,1.0,-35.0,-1,1.0,0.30799899999999525
223,1,0.2,0.25,35.0,1,1.0,0.23550000000000182
224,1,0.2,0.125,35.0,1,1.0,0.22099999999988995
225,1,0.2,0.125,35.0,-1,0.0,0.333199000000036
226,1,0.2,0.25,-35.0,-1,1.0,0.2218000000000302
227,1,0.2,0.125,35.0,1,1.0,0.2063989999999194
228,1,0.2,0.25,35.0,1,1.0,0.18050000000005184
229,1,0.2,0.125,-35.0,1,0.0,0.15650000000005093
230,1,0.2,1.0,35.0,1,1.0,0.10040000000003602
231,1,0.2,0.0,35.0,1,1.0,0.1874999999998863
232,1,0.2,0.125,35.0,1,1.0,0.17769899999996142
233,1,0.2,0.0,35.0,1,1.0,0.21949899999992795
234,1,0.2,0.125,35.0,1,1.0,0.20849999999995816
235,1,0.2,0.0625,-35.0,1,0.0,0.20859899999993559
236,1,0.2,0.0,35.0,1,1.0,0.43479999999999563
237,1,0.2,0.25,35.0,1,1.0,0.14359999999999218
238,1,0.2,0.25,35.0,1,1.0,0.3966000000000349
239,1,0.2,0.25,35.0,1,1.0,0.14959999999996398
240,1,0.2,0.25,-35.0,-1,1.0,0.22109999999997854
241,1,0.8,0.125,-35.0,1,0.0,0.19259999999997035
242,1,0.8,1.0,-35.0,-1,1.0,0.1636990000000651
243,1,0.8,0.25,-35.0,-1,1.0,0.1676990000000842
244,1,0.8,0.0625,-35.0,1,0.0,0.16270000000008622
245,1,0.8,0.0,-35.0,-1,1.0,0.1937000000000353
246,1,0.8,0.25,-35.0,-1,1.0,0.1994999999999436
247,1,0.8,0.25,-35.0,-1,1.0,0.21579999999983102
248,1,0.8,0.0625,-35.0,-1,1.0,0.23379899999997633
249,1,0.8,0.25,-35.0,-1,1.0,0.2218000000000302
250,1,0.8,0.125,-35.0,-1,1.0,0.18949899999995523
251,1,0.8,0.25,-35.0,-1,1.0,0.18769899999995232
252,1,0.8,0.25,-35.0,-1,1.0,0.22280000000012024
253,1,0.8,0.125,-35.0,-1,1.0,0.22800000000006548
254,1,0.8,0.25,35.0,1,1.0,0.22989899999993213
255,1,0.8,1.0,-35.0,-1,1.0,0.19889999999998054
256,1,0.8,0.25,-35.0,-1,1.0,0.19089899999994486
257,1,0.8,0.0625,-35.0,-1,1.0,0.1958999999999378
258,1,0.8,0.0625,-35.0,-1,1.0,0.20289900000000216
259,1,0.8,0.125,-35.0,-1,1.0,0.18700000000001182
260,1,0.8,0.25,-35.0,-1,1.0,0.1902989999999818
261,1,0.8,0.0,-35.0,-1,1.0,0.137499000000048
262,1,0.8,0.25,-35.0,-1,1.0,0.1859989999999243
263,1,0.8,0.0,-35.0,1,0.0,0.18799899999987701
264,1,0.8,1.0,-35.0,-1,1.0,0.17300000000000182
265,1,0.8,0.25,-35.0,-1,1.0,0.1854999999999336
266,1,0.8,0.0625,-35.0,-1,1.0,0.21669899999994868
267,1,0.8,1.0,-35.0,-1,1.0,0.20909999999992124
268,1,0.8,1.0,-35.0,-1,1.0,0.20109899999999925
269,1,0.8,0.125,-35.0,-1,1.0,0.2591989999999669
270,1,0.8,0.0625,-35.0,-1,1.0,0.06420000000002801
271,1,0.8,0.0625,-35.0,-1,1.0,0.26319999999998345
272,1,0.8,0.0625,-35.0,-1,1.0,0.2685999999999922
273,1,0.8,1.0,-35.0,-1,1.0,0.19119899999998324
274,1,0.8,0.125,-35.0,-1,1.0,0.19519899999988866
275,1,0.8,0.125,35.0,-1,0.0,0.2338999999999487
276,1,0.8,0.25,-35.0,1,0.0,0.36549999999999727
277,1,0.8,1.0,35.0,1,1.0,0.25729999999998654
278,1,0.8,0.125,-35.0,-1,1.0,0.21720000000004802
279,1,0.8,0.25,-35.0,-1,1.0,1.0002999999999247
280,1,0.8,0.0625,35.0,-1,0.0,0.19409999999993488
281,1,0.8,0.0625,35.0,1,1.0,1.7164000000000215
282,1,0.8,1.0,35.0,-1,0.0,0.12139999999999418
283,1,0.8,0.0625,35.0,1,1.0,0.20039999999994507
284,1,0.8,0.0,35.0,1,1.0,0.18239900000003217
285,1,0.8,1.0,35.0,1,1.0,0.169399999999996
286,1,0.8,0.0,-35.0,-1,1.0,0.274398999999903
287,1,0.8,1.0,35.0,1,1.0,0.21479899999997087
288,1,0.8,0.0625,-35.0,1,0.0,0.30979999999999563
289,1,0.8,0.125,-35.0,-1,1.0,0.20129899999994905
290,1,0.8,0.0625,-35.0,1,0.0,0.24139900000000125
291,1,0.8,0.125,-35.0,-1,1.0,0.18769899999995232
292,1,0.8,0.0625,-35.0,-1,1.0,0.17259999999998854
293,1,0.8,0.0,-35.0,-1,1.0,0.19839999999999236
294,1,0.8,1.0,35.0,-1,0.0,0.20060000000000855
295,1,0.8,0.125,35.0,-1,0.0,0.2516000000000531
296,1,0.8,0.125,-35.0,-1,1.0,0.14080000000001291
297,1,0.8,0.0625,35.0,-1,0.0,0.20000000000004547
298,1,0.8,0.0,-35.0,-1,1.0,0.15459899999996196
299,1,0.8,0.0625,35.0,-1,0.0,0.21129899999993995
300,1,0.8,0.125,-35.0,-1,1.0,0.20069999999998345
301,1,0.8,0.125,35.0,1,1.0,0.21489999999994325
302,1,0.8,0.0,-35.0,1,0.0,0.19169899999997142
303,1,0.8,0.0,-35.0,-1,1.0,0.18019900000001599
304,1,0.8,0.25,-35.0,-1,1.0,0.2596999999999525
305,1,0.8,1.0,-35.0,-1,1.0,0.16919999999993252
306,1,0.8,0.0625,-35.0,-1,1.0,0.19279900000003636
307,1,0.8,0.125,-35.0,-1,1.0,0.20849999999995816
308,1,0.8,0.125,35.0,-1,0.0,0.21680000000003474
309,1,0.8,0.0625,-35.0,-1,1.0,0.15179999999998017
310,1,0.8,0.0625,35.0,-1,0.0,0.22359999999991942
311,1,0.8,0.25,-35.0,-1,1.0,0.18259999999997945
312,1,0.8,1.0,-35.0,-1,1.0,0.19689999999991414
313,1,0.8,0.125,-35.0,-1,1.0,0.22789899999986574
314,1,0.8,1.0,-35.0,-1,1.0,0.18600000000003547
315,1,0.8,0.25,35.0,-1,0.0,0.23149899999987156
316,1,0.8,0.0,-35.0,-1,1.0,0.19390000000009877
317,1,0.8,1.0,-35.0,-1,1.0,0.17709999999999582
318,1,0.8,0.125,-35.0,-1,1.0,0.12450000000001182
319,1,0.8,0.25,-35.0,-1,1.0,0.19499999999993634
320,1,0.2,0.25,35.0,-1,0.0,0.20249899999998888
321,1,0.2,0.0,35.0,-1,0.0,0.1474999999999227
322,1,0.2,1.0,-35.0,-1,1.0,0.21799899999996342
323,1,0.2,1.0,35.0,1,1.0,0.5539999999999736
324,1,0.2,0.0625,35.0,1,1.0,0.2439999999999145
325,1,0.2,0.0625,35.0,1,1.0,0.2601999999999407
326,1,0.2,0.125,35.0,1,1.0,0.27899999999999636
327,1,0.2,1.0,-35.0,-1,1.0,0.16669999999999163
328,1,0.2,0.0625,-35.0,-1,1.0,0.18500000000005912
329,1,0.2,1.0,35.0,1,1.0,0.20709899999997106
330,1,0.2,0.0625,35.0,1,1.0,0.21109999999987394
331,1,0.2,1.0,35.0,1,1.0,0.17019900000002508
332,1,0.2,0.0625,35.0,1,1.0,0.2136000000000422
333,1,0.2,0.125,35.0,1,1.0,9.999999986121111e-05
334,1,0.2,0.125,35.0,1,1.0,0.19319899999993595
335,1,0.2,1.0,35.0,1,1.0,0.21539999999993142
336,1,0.2,0.125,35.0,1,1.0,0.20119999999997162
337,1,0.2,0.25,35.0,1,1.0,0.19929899999999634
338,1,0.2,0.0625,35.0,1,1.0,0.19820000000004256
339,1,0.2,0.0625,35.0,1,1.0,0.09289999999987231
340,1,0.2,0.125,35.0,1,1.0,0.22720000000003893
341,1,0.2,0.0,35.0,1,1.0,0.19419999999990978
342,1,0.2,0.0625,35.0,-1,0.0,0.16239999999993415
343,1,0.2,0.0,35.0,1,1.0,0.28130000000010114
344,1,0.2,0.25,35.0,1,1.0,0.23730000000000473
345,1,0.2,0.0625,-35.0,1,0.0,0.20329999999989923
346,1,0.2,0.0625,35.0,-1,0.0,0.2266989999998259
347,1,0.2,1.0,35.0,1,1.0,0.1353999999998905
348,1,0.2,1.0,35.0,1,1.0,0.12439999999992324
349,1,0.2,0.0625,35.0,1,1.0,4.651499999999942
350,1,0.2,0.125,-35.0,1,0.0,0.14580000000000837
351,1,0.2,0.25,35.0,1,1.0,0.40049999999996544
352,1,0.2,0.0625,35.0,1,1.0,0.21149900000000343
353,1,0.2,0.125,35.0,1,1.0,0.22149999999987813
354,1,0.2,0.25,35.0,1,1.0,0.17050000000017462
355,1,0.2,0.0,-35.0,1,0.0,0.20959999999990941
356,1,0.2,0.25,35.0,1,1.0,0.20730000000003201
357,1,0.8,1.0,-35.0,-1,1.0,0.2116000000000895
358,1,0.8,0.25,-35.0,-1,1.0,0.23420000000010077
359,1,0.8,0.25,-35.0,-1,1.0,0.2075999999999567
360,1,0.8,0.125,-35.0,-1,1.0,0.3525999999999385
361,1,0.8,0.0625,-35.0,-1,1.0,0.21860000000015134
362,1,0.8,0.125,-35.0,-1,1.0,0.19860000000016953
363,1,0.8,0.25,-35.0,-1,1.0,0.21260000000006585
364,1,0.8,0.25,-35.0,-1,1.0,0.2145989999999074
365,1,0.8,0.125,-35.0,-1,1.0,0.20679900000004636
366,1,0.8,0.0625,-35.0,1,0.0,0.20509999999990214
367,1,0.8,0.125,35.0,-1,0.0,0.24870000000009895
368,1,0.8,0.0625,-35.0,-1,1.0,0.22599900000000162
369,1,0.8,0.0625,-35.0,-1,1.0,0.2558000000001357
370,1,0.8,0.0625,-35.0,-1,1.0,0.2395000000001346
371,1,0.8,1.0,35.0,1,1.0,0.2322999999998956
372,1,0.8,0.25,35.0,1,1.0,0.21579900000006091
373,1,0.8,0.125,-35.0,1,0.0,0.21979999999985012
374,1,0.8,0.25,-35.0,1,0.0,1.5317990000000918
375,1,0.8,0.25,-35.0,-1,1.0,0.20579900000007
376,1,0.8,0.125,-35.0,-1,1.0,0.2078999999998814
377,1,0.8,0.25,-35.0,-1,1.0,0.20579899999984264
378,1,0.8,0.0625,-35.0,-1,1.0,0.1795999999999367
379,1,0.8,0.125,-35.0,-1,1.0,0.21889999999984866
380,1,0.8,0.0625,-35.0,-1,1.0,0.2098999999998341
381,1,0.8,0.25,-35.0,-1,1.0,0.22999999999979082
382,1,0.8,0.0625,-35.0,-1,1.0,0.21209999999996398
383,1,0.8,0.0625,35.0,1,1.0,0.22899899999993067
384,1,0.8,0.125,-35.0,-1,1.0,0.24050000000011096
385,1,0.8,0.25,-35.0,-1,1.0,0.2263989999999012
386,1,0.8,0.0,35.0,-1,0.0,0.30189999999993233
387,1,0.8,0.0625,-35.0,-1,1.0,0.29999900000007074
388,1,0.8,0.0625,35.0,-1,0.0,0.21660000000019863
389,1,0.8,0.25,-35.0,-1,1.0,0.20000000000004547
390,1,0.8,0.25,-35.0,-1,1.0,0.2805000000000746
391,1,0.8,0.25,-35.0,-1,1.0,0.2238999999999578
392,1,0.8,0.125,-35.0,-1,1.0,0.18859999999995125
393,1,0.8,0.125,-35.0,-1,1.0,0.2496000000001004
394,1,0.8,0.0625,-35.0,-1,1.0,0.2186989999997877
395,1,0.8,0.0625,-35.0,-1,1.0,0.23890000000005784
396,1,0.8,0.125,-35.0,-1,1.0,0.23919899999987138
397,1,0.8,1.0,-35.0,-1,1.0,0.19909899999993286
398,1,0.8,0.0625,-35.0,-1,1.0,0.39000000000010004
399,1,0.8,0.125,35.0,-1,0.0,0.2704000000001088
400,1,0.8,0.125,35.0,-1,0.0,0.35920000000010077
401,1,0.8,0.0625,-35.0,1,0.0,0.6972000000000662
402,1,0.8,1.0,-35.0,-1,1.0,0.21029900000007729
403,1,0.8,0.25,-35.0,-1,1.0,0.2842000000000553
404,1,0.2,1.0,35.0,1,1.0,0.9094000000000051
405,1,0.2,0.0625,-35.0,-1,1.0,7.624700000000075
406,1,0.2,0.0,35.0,-1,0.0,0.527798999999959
407,1,0.2,0.0625,35.0,1,1.0,3.736399999999776
408,1,0.2,0.0625,-35.0,1,0.0,0.2533000000000811
409,1,0.2,0.0625,35.0,1,1.0,0.8333999999999833
410,1,0.2,0.0,35.0,1,1.0,0.6239000000000487
411,1,0.2,0.0625,-35.0,1,0.0,3.397499999999809
412,1,0.2,0.25,35.0,1,1.0,8.456699999999955
413,1,0.2,0.0625,35.0,1,1.0,0.7070989999999711
414,1,0.2,1.0,35.0,-1,0.0,8.827199000000064
415,1,0.2,0.0625,35.0,1,1.0,5.260698999999931
416,1,0.2,1.0,35.0,1,1.0,0.6841000000001713
417,1,0.2,0.0625,35.0,-1,0.0,5.034099000000197
418,1,0.2,0.0625,35.0,1,1.0,1.680898999999954
419,1,0.2,1.0,35.0,-1,0.0,2.4708989999999176
420,1,0.2,0.25,-35.0,1,0.0,5.587699999999813
421,1,0.2,0.0625,-35.0,-1,1.0,9.94789999999989
422,1,0.2,0.0,-35.0,-1,1.0,1.3913989999998648
423,1,0.2,0.25,-35.0,-1,1.0,6.234699999999975
424,1,0.2,1.0,35.0,1,1.0,0.9981990000001133
425,1,0.2,0.25,35.0,-1,0.0,0.22829999999999018
426,1,0.2,0.25,35.0,-1,0.0,0.33839999999986503
427,1,0.2,0.0625,-35.0,-1,1.0,8.025100000000066
428,1,0.2,0.25,35.0,-1,0.0,0.1751000000001568
429,1,0.2,0.25,35.0,1,1.0,11.588600000000042
1,2,0.5,0.25,35.0,1,1.0,0.7278999999999998
2,2,0.5,0.125,35.0,1,1.0,0.4950999999999999
3,2,0.5,0.125,-35.0,-1,1.0,0.21250000000000124
4,2,0.5,0.125,-35.0,-1,1.0,0.3047000000000004
5,2,0.5,0.0625,-35.0,1,0.0,0.11300000000000132
6,2,0.5,0.0,35.0,1,1.0,0.22030000000000172
7,2,0.5,0.125,35.0,1,1.0,0.2701999999999991
8,2,0.5,0.25,35.0,1,1.0,0.3498999999999981
9,2,0.5,0.25,35.0,1,1.0,0.21869999999999834
10,2,0.5,0.0625,35.0,1,1.0,0.23929999999999652
11,2,0.5,0.125,35.0,1,1.0,0.17890000000000228
12,2,0.5,0.125,35.0,1,1.0,0.18379999999999797
13,2,0.5,0.0625,-35.0,1,0.0,0.19930000000000092
14,2,0.5,0.0,-35.0,1,0.0,0.14620000000000033
15,2,0.5,1.0,-35.0,-1,1.0,0.24110000000000298
16,2,0.5,1.0,-35.0,-1,1.0,0.2108000000000061
17,2,0.5,0.125,-35.0,-1,1.0,0.333599999999997
18,2,0.5,0.0625,35.0,1,1.0,0.17830000000000013
19,2,0.5,0.0,35.0,-1,0.0,0.4596000000000018
20,2,0.5,1.0,-35.0,-1,1.0,0.20400000000000063
21,2,0.5,1.0,35.0,1,1.0,0.1811000000000007
22,2,0.5,0.25,35.0,1,1.0,0.7866990000000058
23,2,0.5,0.25,35.0,1,1.0,0.19119999999998782
24,2,0.5,1.0,-35.0,-1,1.0,0.20709999999999695
25,2,0.5,1.0,35.0,1,1.0,0.21419999999999106
26,2,0.5,0.25,35.0,1,1.0,0.21949999999999648
27,2,0.5,0.125,-35.0,1,0.0,0.21099999999999852
28,2,0.5,1.0,35.0,-1,0.0,0.7948999999999984
29,2,0.5,0.125,-35.0,-1,1.0,0.533299999999997
30,2,0.5,1.0,35.0,1,1.0,0.30809999999998183
31,2,0.5,0.0,35.0,1,1.0,0.2078999999999951
32,2,0.5,0.0,-35.0,-1,1.0,0.22060000000000457
33,2,0.5,0.125,-35.0,-1,1.0,0.2939000000000078
34,2,0.5,0.25,35.0,1,1.0,0.1979999999999933
35,2,0.5,0.125,-35.0,-1,1.0,0.2383000000000095
36,2,0.5,0.0,35.0,1,1.0,0.20479999999999166
37,2,0.5,0.125,-35.0,-1,1.0,0.33310000000000173
38,2,0.5,1.0,35.0,1,1.0,0.25619999999999266
39,2,0.5,0.0625,35.0,1,1.0,0.20759999999999934
40,2,0.5,0.25,35.0,1,1.0,0.2955999999999932
41,2,0.5,0.125,35.0,-1,0.0,0.34190000000000964
42,2,0.5,0.25,-35.0,1,0.0,0.23550000000000182
43,2,0.5,0.125,-35.0,1,0.0,0.2785999999999973
44,2,0.5,0.0625,-35.0,-1,1.0,0.22809999999999775
45,2,0.5,1.0,-35.0,-1,1.0,0.20949999999999136
46,2,0.5,0.25,-35.0,-1,1.0,0.6484999999999843
47,2,0.5,0.125,35.0,1,1.0,0.337600000000009
48,2,0.5,0.125,35.0,1,1.0,0.21330000000000382
49,2,0.5,0.25,35.0,1,1.0,0.25509999999999877
50,2,0.5,0.125,35.0,1,1.0,0.2476999999999805
51,2,0.5,0.0625,35.0,1,1.0,0.23040000000000305
52,2,0.5,0.0,35.0,1,1.0,0.25610000000000355
53,2,0.5,0.0,-35.0,1,0.0,0.18550000000001887
54,2,0.5,0.125,-35.0,-1,1.0,0.566599999999994
55,2,0.5,0.25,35.0,1,1.0,0.2516999999999996
56,2,0.5,0.25,35.0,1,1.0,0.1507000000000005
57,2,0.5,0.25,-35.0,-1,1.0,0.20479999999997744
58,2,0.5,0.125,35.0,1,1.0,0.2501000000000033
59,2,0.5,0.0625,-35.0,1,0.0,0.22220000000001505
60,2,0.5,1.0,35.0,1,1.0,0.2418999999999869
61,2,0.5,0.125,35.0,-1,0.0,0.25840000000002306
62,2,0.5,0.25,-35.0,-1,1.0,0.23399999999998045
63,2,0.5,0.125,-35.0,1,0.0,0.19199999999997885
64,2,0.5,0.0625,35.0,1,1.0,0.24100000000001387
65,2,0.5,0.0625,-35.0,1,0.0,0.17910000000000537
66,2,0.5,0.25,35.0,1,1.0,0.41749999999998977
67,2,0.5,0.125,35.0,1,1.0,0.2126999999999839
68,2,0.5,1.0,35.0,1,1.0,0.21319999999997208
69,2,0.5,0.25,-35.0,-1,1.0,0.20629999999999882
70,2,0.5,1.0,-35.0,-1,1.0,0.15739999999999554
71,2,0.5,0.0,-35.0,1,0.0,0.18909999999999627
72,2,0.5,0.125,35.0,-1,0.0,0.206799999999987
73,2,0.5,0.125,35.0,1,1.0,0.27959999999998786
74,2,0.5,0.0625,-35.0,1,0.0,0.22829999999999018
75,2,0.5,0.25,35.0,1,1.0,0.17070000000001073
76,2,0.5,0.25,35.0,1,1.0,0.23239999999998417
77,2,0.5,1.0,-35.0,-1,1.0,0.17159999999998377
78,2,0.5,0.0625,-35.0,1,0.0,0.2335999999999956
79,2,0.5,0.25,-35.0,-1,1.0,0.20109999999999673
80,2,0.5,0.125,35.0,-1,0.0,0.2067000000000121
81,2,0.5,1.0,-35.0,-1,1.0,0.192799999999977
82,2,0.5,0.125,-35.0,-1,1.0,0.3429999999999893
83,2,0.5,0.25,35.0,1,1.0,0.22399999999998954
84,2,0.5,1.0,35.0,1,1.0,0.1973000000000127
85,2,0.5,1.0,35.0,1,1.0,0.20499999999998408
86,2,0.5,0.0625,35.0,1,1.0,0.24719999999999231
87,2,0.5,0.0,35.0,1,1.0,0.1933999999999969
88,2,0.5,1.0,35.0,1,1.0,0.18760000000000332
89,2,0.5,0.0,-35.0,1,0.0,0.20259999999998968
90,2,0.5,0.0625,35.0,1,1.0,0.1894999999999527
91,2,0.8,0.0625,-35.0,1,0.0,0.20130000000000337
92,2,0.8,0.0,35.0,1,1.0,0.2348999999999819
93,2,0.8,1.0,35.0,1,1.0,0.1923999999999637
94,2,0.8,0.0625,-35.0,-1,1.0,0.211400000000026
95,2,0.8,0.0625,35.0,1,1.0,0.1775000000000091
96,2,0.8,1.0,-35.0,-1,1.0,0.21409999999997353
97,2,0.8,0.0625,35.0,1,1.0,0.18350000000003774
98,2,0.8,0.25,-35.0,-1,1.0,0.23160000000001446
99,2,0.8,1.0,-35.0,-1,1.0,0.2088000000000534
100,2,0.8,0.0625,-35.0,1,0.0,0.240099999999984
101,2,0.8,0.125,-35.0,-1,1.0,0.22850000000005366
102,2,0.8,0.125,-35.0,-1,1.0,0.20690000000001874
103,2,0.8,0.125,35.0,1,1.0,0.24790000000001555
104,2,0.8,0.0625,35.0,1,1.0,0.41140000000001464
105,2,0.8,0.0625,-35.0,1,0.0,0.6023999999999887
106,2,0.8,0.25,-35.0,-1,1.0,0.23700000000008004
107,2,0.8,0.25,-35.0,-1,1.0,0.23660000000006676
108,2,0.8,1.0,-35.0,-1,1.0,0.26810000000006085
109,2,0.8,0.25,-35.0,-1,1.0,0.4492000000000189
110,2,0.8,0.25,-35.0,-1,1.0,0.2891999999999939
111,2,0.8,1.0,-35.0,-1,1.0,0.18799999999998818
112,2,0.8,0.25,-35.0,-1,1.0,0.2376000000000431
113,2,0.8,0.25,-35.0,-1,1.0,0.37340000000000373
114,2,0.8,0.0625,35.0,1,1.0,0.1856999999999971
115,2,0.8,1.0,-35.0,-1,1.0,0.2054000000000542
116,2,0.8,0.125,-35.0,1,0.0,0.19880000000000564
117,2,0.8,0.0625,-35.0,-1,1.0,0.8713000000000193
118,2,0.8,0.125,-35.0,-1,1.0,0.30960000000004584
119,2,0.8,0.0625,-35.0,1,0.0,0.29390000000006467
120,2,0.8,0.0625,-35.0,-1,1.0,0.34280000000006794
121,2,0.8,1.0,-35.0,-1,1.0,0.15500000000002956
122,2,0.8,1.0,-35.0,-1,1.0,0.19470000000006848
123,2,0.8,0.25,-35.0,-1,1.0,0.19429999999999836
124,2,0.8,0.125,-35.0,-1,1.0,0.2288000000000352
125,2,0.8,0.0625,-35.0,-1,1.0,0.3254000000000019
126,2,0.8,0.25,-35.0,-1,1.0,0.219099999999969
127,2,0.8,0.25,-35.0,-1,1.0,0.1893000000000029
128,2,0.8,0.125,-35.0,-1,1.0,0.293700000000058
129,2,0.8,0.125,-35.0,-1,1.0,0.08210000000002537
130,2,0.8,0.125,-35.0,-1,1.0,0.28990000000004557
131,2,0.8,1.0,-35.0,-1,1.0,0.17610000000001946
132,2,0.8,0.0,-35.0,-1,1.0,0.23289999999997235
133,2,0.8,0.25,-35.0,-1,1.0,0.2017990000000509
134,2,0.8,0.125,35.0,1,1.0,0.23540000000002692
135,2,0.8,1.0,-35.0,-1,1.0,0.240099999999984
136,2,0.8,0.25,-35.0,-1,1.0,0.2025000000000432
137,2,0.8,0.0,35.0,-1,0.0,0.39150000000000773
138,2,0.8,1.0,-35.0,-1,1.0,0.17880000000002383
139,2,0.2,0.0625,-35.0,-1,1.0,0.20290000000005648
140,2,0.2,0.125,35.0,1,1.0,0.1852999999999838
141,2,0.2,1.0,35.0,1,1.0,0.03770000000002938
142,2,0.2,0.125,-35.0,-1,1.0,0.26410000000004175
143,2,0.2,0.0,35.0,1,1.0,0.18410000000000082
144,2,0.2,1.0,-35.0,-1,1.0,0.16260000000005448
145,2,0.2,0.0,35.0,1,1.0,0.1938000000000102
146,2,0.2,0.25,35.0,1,1.0,0.33170000000006894
147,2,0.2,1.0,35.0,1,1.0,0.23820000000000618
148,2,0.2,0.25,35.0,1,1.0,0.2258000000000493
149,2,0.2,0.0625,-35.0,-1,1.0,0.3571000000000595
150,2,0.2,0.25,35.0,1,1.0,0.2389999999999759
151,2,0.2,0.125,-35.0,1,0.0,0.45520000000004757
152,2,0.2,0.25,35.0,-1,0.0,0.21200000000004593
153,2,0.2,0.25,-35.0,-1,1.0,0.22630000000003747
154,2,0.2,0.25,35.0,1,1.0,0.19750000000004775
155,2,0.2,0.125,-35.0,1,0.0,0.17050000000006094
156,2,0.2,0.25,35.0,-1,0.0,0.22010000000000218
157,2,0.2,0.25,35.0,1,1.0,0.20729999999997517
158,2,0.2,1.0,35.0,1,1.0,0.22130000000004202
159,2,0.2,0.0,-35.0,1,0.0,0.19040000000006785
160,2,0.2,0.125,35.0,1,1.0,0.2564000000000419
161,2,0.2,0.0625,35.0,1,1.0,0.25240000000002283
162,2,0.2,0.25,35.0,1,1.0,0.18400000000002592
163,2,0.2,0.0625,35.0,1,1.0,0.21040000000004966
164,2,0.8,0.125,-35.0,-1,1.0,0.366800000000012
165,2,0.8,0.0625,35.0,1,1.0,0.1512000000000171
166,2,0.8,0.0625,-35.0,1,0.0,0.17900000000003047
167,2,0.8,0.125,35.0,1,1.0,0.1927000000000021
168,2,0.8,0.25,-35.0,-1,1.0,0.28570000000007667
169,2,0.8,0.125,-35.0,1,0.0,0.20720000000000027
170,2,0.8,1.0,-35.0,-1,1.0,0.22719999999998208
171,2,0.8,0.0625,-35.0,1,0.0,0.22340000000002647
172,2,0.8,0.0625,-35.0,-1,1.0,0.19499999999999318
173,2,0.8,0.0625,-35.0,1,0.0,0.1996000000000322
174,2,0.8,0.25,-35.0,-1,1.0,0.20500000000004093
175,2,0.8,0.125,-35.0,-1,1.0,0.14210000000002765
176,2,0.8,0.25,-35.0,-1,1.0,0.2206000000000472
177,2,0.8,0.125,-35.0,1,0.0,0.22699999999997544
178,2,0.8,0.25,-35.0,-1,1.0,0.1811999999999898
179,2,0.8,0.0625,35.0,-1,0.0,0.5942999999999756
180,2,0.8,1.0,-35.0,-1,1.0,0.1613000000000966
181,2,0.8,0.25,-35.0,-1,1.0,0.19669999999996435
182,2,0.8,0.125,35.0,-1,0.0,0.23849999999993088
183,2,0.8,1.0,-35.0,-1,1.0,0.18879999999990105
184,2,0.8,1.0,-35.0,-1,1.0,0.17200000000002547
185,2,0.8,0.25,-35.0,-1,1.0,0.36410000000000764
186,2,0.8,0.125,-35.0,-1,1.0,0.2059999999999036
187,2,0.8,0.125,-35.0,-1,1.0,0.17790000000002237
188,2,0.8,1.0,35.0,1,1.0,0.3086999999999307
189,2,0.8,0.0625,-35.0,-1,1.0,0.24329999999997654
190,2,0.8,0.25,-35.0,-1,1.0,0.2318000000000211
191,2,0.8,1.0,-35.0,-1,1.0,0.17799999999999727
192,2,0.8,1.0,-35.0,-1,1.0,0.20289999999999964
193,2,0.8,0.0625,-35.0,1,0.0,0.286899999999946
194,2,0.8,0.125,-35.0,-1,1.0,0.19089999999994234
195,2,0.8,0.125,35.0,-1,0.0,0.1409999999999627
196,2,0.8,0.125,-35.0,-1,1.0,0.21719999999993433
197,2,0.8,0.0625,-35.0,-1,1.0,0.2686999999999671
198,2,0.8,1.0,35.0,-1,0.0,0.2216999999999416
199,2,0.8,0.0625,-35.0,-1,1.0,0.3532000000000153
200,2,0.8,0.0,-35.0,-1,1.0,0.19739999999990232
201,2,0.8,0.125,-35.0,-1,1.0,0.26280000000008386
202,2,0.8,0.0,-35.0,-1,1.0,0.5346999999999298
203,2,0.8,0.0625,-35.0,-1,1.0,0.28369999999995343
204,2,0.8,0.0625,35.0,1,1.0,0.32339999999999236
205,2,0.8,1.0,-35.0,-1,1.0,0.21249999999986358
206,2,0.8,0.25,-35.0,-1,1.0,0.20509999999990214
207,2,0.8,0.0,-35.0,-1,1.0,0.19059999999990396
208,2,0.8,0.0625,-35.0,-1,1.0,0.3815999999999349
209,2,0.8,0.125,-35.0,-1,1.0,0.2278999999999769
210,2,0.8,0.125,-35.0,-1,1.0,0.4107000000000198
211,2,0.8,0.125,-35.0,-1,1.0,0.20609999999999218
212,2,0.2,0.25,35.0,1,1.0,0.26309999999989486
213,2,0.2,0.0625,-35.0,-1,1.0,0.17289999999991323
214,2,0.2,0.25,-35.0,-1,1.0,0.27310000000011314
215,2,0.2,0.125,35.0,-1,0.0,0.17629999999996926
216,2,0.2,0.25,35.0,1,1.0,0.31999999999993634
217,2,0.2,0.125,35.0,1,1.0,0.22709999999995034
218,2,0.2,1.0,35.0,1,1.0,0.2277000000000271
219,2,0.2,0.25,35.0,1,1.0,0.05719999999985248
220,2,0.2,0.0625,35.0,-1,0.0,0.23479999999995016
221,2,0.2,0.0625,35.0,-1,0.0,0.2932999999998174
222,2,0.2,0.0625,35.0,1,1.0,0.3609000000000151
223,2,0.2,0.25,35.0,1,1.0,0.217899999999986
224,2,0.2,0.125,35.0,1,1.0,0.23680000000001655
225,2,0.2,0.125,35.0,1,1.0,0.26709999999991396
226,2,0.2,1.0,35.0,1,1.0,0.22739999999998872
227,2,0.2,0.0,35.0,1,1.0,0.18589999999994689
228,2,0.2,1.0,35.0,1,1.0,0.17799999999999727
229,2,0.2,0.0,-35.0,1,0.0,0.14870000000007622
230,2,0.2,0.125,35.0,1,1.0,0.20069999999986976
231,2,0.2,0.25,35.0,1,1.0,0.18409999999994398
232,2,0.2,0.125,-35.0,1,0.0,0.2257999999999356
233,2,0.2,0.0,35.0,1,1.0,0.20680000000004384
234,2,0.2,0.125,35.0,1,1.0,0.5801999999999907
235,2,0.2,1.0,-35.0,-1,1.0,0.21690000000000964
236,2,0.2,0.25,35.0,1,1.0,0.16089999999996962
237,2,0.2,0.125,35.0,1,1.0,0.23320000000001073
238,2,0.2,1.0,35.0,1,1.0,0.2016999999999598
239,2,0.2,0.0,-35.0,1,0.0,0.17909999999994852
240,2,0.2,0.25,35.0,1,1.0,0.9067999999999756
241,2,0.2,0.0625,35.0,1,1.0,0.26119999999991705
242,2,0.2,0.125,35.0,1,1.0,0.27320000000008804
243,2,0.2,0.25,-35.0,-1,1.0,0.22259999999994307
244,2,0.2,1.0,35.0,1,1.0,0.20029999999997017
245,2,0.2,0.0625,35.0,1,1.0,0.1693999999998823
246,2,0.2,1.0,-35.0,-1,1.0,0.26100000000008095
247,2,0.2,1.0,-35.0,-1,1.0,0.1894999999999527
248,2,0.2,1.0,-35.0,-1,1.0,0.3935999999999922
249,2,0.2,1.0,-35.0,-1,1.0,0.21659999999985757
250,2,0.2,0.125,35.0,1,1.0,0.23300000000006094
251,2,0.2,0.0,35.0,1,1.0,0.23940000000004602
252,2,0.2,0.0,35.0,-1,0.0,0.2586999999998625
253,2,0.2,0.125,35.0,1,1.0,0.19410000000004857
254,2,0.2,0.125,35.0,1,1.0,0.27739999999994325
255,2,0.2,1.0,35.0,1,1.0,0.21920000000000073
256,2,0.2,0.25,35.0,1,1.0,0.16290000000003602
257,2,0.2,1.0,35.0,1,1.0,0.17090000000007421
258,2,0.2,1.0,-35.0,-1,1.0,0.23230000000000928
259,2,0.2,1.0,35.0,1,1.0,0.1957999999999629
260,2,0.2,0.0625,-35.0,1,0.0,0.21109999999998763
261,2,0.2,0.0,35.0,1,1.0,0.1673999999999296
262,2,0.2,0.125,35.0,1,1.0,0.2036000000000513
263,2,0.2,0.0625,-35.0,1,0.0,0.20409999999992579
264,2,0.2,0.0625,-35.0,1,0.0,0.22329999999999472
265,2,0.2,0.0,-35.0,-1,1.0,0.1893000000000029
266,2,0.2,0.0625,35.0,1,1.0,0.274599999999964
267,2,0.2,0.125,35.0,1,1.0,0.22469999999998436
268,2,0.2,0.125,35.0,1,1.0,0.226099999999974
269,2,0.2,1.0,35.0,1,1.0,0.2767999999999802
270,2,0.2,0.125,-35.0,-1,1.0,1.4948000000000548
271,2,0.2,0.125,35.0,1,1.0,0.25300000000004275
272,2,0.2,0.125,35.0,1,1.0,0.21659999999985757
273,2,0.2,0.25,35.0,1,1.0,0.24239999999997508
274,2,0.2,0.25,-35.0,1,0.0,0.16950000000008458
275,2,0.2,1.0,35.0,1,1.0,0.16669999999999163
276,2,0.2,0.0625,35.0,1,1.0,0.2217999999999165
277,2,0.2,1.0,35.0,1,1.0,0.23149999999998272
278,2,0.2,1.0,35.0,1,1.0,0.21899999999993724
279,2,0.2,0.0625,-35.0,1,0.0,0.20499999999992724
280,2,0.2,0.0625,35.0,1,1.0,0.21079999999994925
281,2,0.2,0.0,35.0,-1,0.0,0.15879999999992833
282,2,0.2,0.125,35.0,1,1.0,0.19399999999995998
283,2,0.2,0.125,35.0,1,1.0,0.2321999999999207
284,2,0.2,0.25,35.0,1,1.0,0.20859999999993306
285,2,0.2,0.0,35.0,1,1.0,0.20449999999993906
286,2,0.2,1.0,35.0,1,1.0,0.21639999999990778
287,2,0.2,0.125,35.0,1,1.0,0.20029999999997017
288,2,0.2,0.125,35.0,1,1.0,0.2036999999999125
289,2,0.2,0.125,35.0,1,1.0,0.24139999999988504
290,2,0.2,0.0,35.0,1,1.0,0.1675000000000182
291,2,0.2,0.25,35.0,1,1.0,0.20149999999989632
292,2,0.2,1.0,35.0,1,1.0,0.21889999999996235
293,2,0.2,0.125,35.0,1,1.0,0.19309999999995853
294,2,0.2,0.0,35.0,1,1.0,0.20600000000001728
295,2,0.8,0.25,-35.0,1,0.0,0.14870000000007622
296,2,0.8,0.0,-35.0,1,0.0,0.1917999999999438
297,2,0.8,1.0,35.0,1,1.0,0.1228000000000975
298,2,0.8,1.0,-35.0,-1,1.0,0.2339999999999236
299,2,0.8,0.25,-35.0,-1,1.0,0.2676000000000158
300,2,0.8,0.0,-35.0,1,0.0,0.22499999999990905
301,2,0.8,0.0625,-35.0,1,0.0,0.22349999999994452
302,2,0.8,1.0,-35.0,-1,1.0,0.19839999999999236
303,2,0.8,1.0,-35.0,-1,1.0,0.1955999999998994
304,2,0.8,0.0625,-35.0,1,0.0,0.25919999999985066
305,2,0.8,0.125,-35.0,-1,1.0,0.25929999999993925
306,2,0.8,0.25,-35.0,-1,1.0,0.20659999999998035
307,2,0.8,0.25,-35.0,-1,1.0,0.23039999999991778
308,2,0.8,1.0,35.0,1,1.0,0.19729999999992742
309,2,0.8,0.125,-35.0,-1,1.0,0.4555000000000291
310,2,0.8,0.125,35.0,1,1.0,0.18929999999988922
311,2,0.8,0.0,-35.0,1,0.0,0.2545000000000073
312,2,0.8,0.25,-35.0,-1,1.0,0.24269999999989977
313,2,0.8,0.125,-35.0,-1,1.0,0.2686999999999671
314,2,0.8,0.125,-35.0,-1,1.0,0.25070000000005166
315,2,0.8,1.0,35.0,1,1.0,0.46299999999996544
316,2,0.8,0.0625,-35.0,-1,1.0,0.18259999999997945
317,2,0.8,0.125,-35.0,-1,1.0,0.19479999999998654
318,2,0.8,0.125,-35.0,-1,1.0,0.2577999999999747
319,2,0.2,0.0,35.0,-1,0.0,0.34379999999998745
320,2,0.2,0.25,35.0,1,1.0,0.24439999999992779
321,2,0.2,0.25,35.0,1,1.0,0.26919999999995525
322,2,0.2,0.0,-35.0,1,0.0,0.240099999999984
323,2,0.2,0.0,35.0,1,1.0,0.29169999999999163
324,2,0.2,0.25,35.0,1,1.0,0.24259999999992488
325,2,0.2,1.0,-35.0,-1,1.0,0.18809999999996307
326,2,0.2,0.25,-35.0,-1,1.0,0.2256999999999607
327,2,0.2,0.25,35.0,1,1.0,0.23279999999999745
328,2,0.2,1.0,-35.0,-1,1.0,0.18829999999991287
329,2,0.2,1.0,35.0,1,1.0,0.24239999999997508
330,2,0.2,0.0625,35.0,1,1.0,0.21689999999989595
331,2,0.2,0.125,35.0,1,1.0,0.23579999999981283
332,2,0.2,0.0,35.0,-1,0.0,0.4964999999999691
333,2,0.2,0.0625,35.0,1,1.0,0.39239999999995234
334,2,0.2,0.25,35.0,1,1.0,0.2459999999999809
335,2,0.2,0.25,-35.0,1,0.0,0.2100999999998976
336,2,0.2,0.0625,35.0,-1,0.0,0.20159999999987122
337,2,0.2,0.125,35.0,1,1.0,0.2196999999999889
338,2,0.2,1.0,35.0,1,1.0,0.17290000000002692
339,2,0.2,0.125,-35.0,-1,1.0,0.456299999999942
340,2,0.8,1.0,-35.0,-1,1.0,0.18629999999984648
341,2,0.8,0.25,-35.0,-1,1.0,0.26300000000003365
342,2,0.8,0.0,-35.0,1,0.0,0.26689999999996417
343,2,0.8,0.25,-35.0,-1,1.0,0.2235000000000582
344,2,0.8,1.0,35.0,-1,0.0,0.1933000000001357
345,2,0.8,0.125,-35.0,1,0.0,0.2565999999999349
346,2,0.8,0.125,35.0,1,1.0,0.23669999999992797
347,2,0.8,1.0,35.0,1,1.0,0.20010000000002037
348,2,0.8,0.125,-35.0,-1,1.0,0.3038000000001375
349,2,0.8,1.0,-35.0,-1,1.0,0.2136000000000422
350,2,0.8,1.0,-35.0,-1,1.0,0.197400000000016
351,2,0.8,0.25,-35.0,-1,1.0,0.21040000000016335
352,2,0.8,0.25,-35.0,-1,1.0,0.2239999999999327
353,2,0.8,1.0,-35.0,-1,1.0,0.18699999999989814
354,2,0.8,0.0625,-35.0,-1,1.0,0.2137000000000171
355,2,0.8,0.25,-35.0,-1,1.0,0.32730000000015025
356,2,0.8,0.0,35.0,-1,0.0,0.2706999999998061
357,2,0.8,0.25,-35.0,-1,1.0,0.24729999999976826
358,2,0.8,0.25,-35.0,-1,1.0,0.5907999999999447
359,2,0.8,0.25,-35.0,-1,1.0,0.26070000000004256
360,2,0.8,0.25,35.0,1,1.0,0.31739999999990687
361,2,0.8,0.125,-35.0,-1,1.0,0.26749999999992724
362,2,0.8,0.0625,-35.0,-1,1.0,0.23460000000000036
363,2,0.8,0.125,-35.0,-1,1.0,0.22769999999991342
364,2,0.8,0.0625,35.0,1,1.0,0.29099999999994
365,2,0.8,0.0,35.0,1,1.0,0.2980000000000018
366,2,0.8,0.125,35.0,1,1.0,0.22119999999995343
367,2,0.8,0.25,-35.0,-1,1.0,0.3443999999999505
368,2,0.8,1.0,-35.0,-1,1.0,0.21820000000002437
369,2,0.8,0.25,-35.0,-1,1.0,0.29169999999999163
370,2,0.8,1.0,35.0,1,1.0,0.23129999999991924
371,2,0.8,0.125,-35.0,1,0.0,0.27129999999988286
372,2,0.8,0.125,-35.0,-1,1.0,0.2781999999999698
373,2,0.8,0.25,-35.0,-1,1.0,0.21810000000004948
374,2,0.8,0.125,35.0,1,1.0,8.414699999999812
375,2,0.8,0.25,-35.0,-1,1.0,0.21820000000002437
376,2,0.8,0.0,-35.0,1,0.0,0.22169999999982792
377,2,0.8,1.0,-35.0,-1,1.0,0.16560000000004038
378,2,0.8,0.0,-35.0,1,0.0,0.251700000000028
379,2,0.8,1.0,-35.0,-1,1.0,0.1752000000001317
380,2,0.8,0.0,-35.0,-1,1.0,0.2053000000000793
381,2,0.8,0.125,-35.0,-1,1.0,0.24859999999989668
382,2,0.8,1.0,-35.0,-1,1.0,0.19519999999988613
383,2,0.8,0.125,-35.0,-1,1.0,0.21529999999984284
384,2,0.8,1.0,-35.0,-1,1.0,0.2153000000000702
385,2,0.8,1.0,35.0,1,1.0,0.2220999999999549
386,2,0.8,0.0625,35.0,1,1.0,0.23890000000005784
387,2,0.8,0.0625,-35.0,-1,1.0,0.33549999999991087
388,2,0.8,0.25,-35.0,-1,1.0,0.28930000000013933
389,2,0.8,0.25,-35.0,-1,1.0,0.2056999999999789
390,2,0.8,1.0,-35.0,-1,1.0,0.2323999999998705
391,2,0.8,0.25,-35.0,-1,1.0,0.24250000000006366
392,2,0.8,0.125,-35.0,-1,1.0,0.42919999999980973
393,2,0.8,1.0,-35.0,-1,1.0,0.18589999999994689
394,2,0.2,0.25,35.0,-1,0.0,0.1493000000000393
395,2,0.2,1.0,-35.0,-1,1.0,0.15279999999984284
396,2,0.2,0.125,-35.0,-1,1.0,0.019699999999829743
397,2,0.2,0.125,35.0,1,1.0,0.27979999999979555
398,2,0.2,0.125,35.0,1,1.0,0.2927999999999429
399,2,0.2,0.0,-35.0,1,0.0,0.269800000000032
400,2,0.2,1.0,35.0,1,1.0,0.22290000000020882
401,2,0.2,1.0,35.0,1,1.0,0.28629999999975553
402,2,0.2,0.0,-35.0,-1,1.0,5.9763000000000375
403,2,0.2,0.0625,35.0,-1,0.0,0.39640000000008513
404,2,0.2,0.125,35.0,1,1.0,0.3698999999996886
405,2,0.2,0.0625,35.0,-1,0.0,0.2599999999999909
406,2,0.2,1.0,35.0,1,1.0,0.2500999999999749
407,2,0.2,0.0,35.0,1,1.0,0.24739999999997053
408,2,0.2,0.125,35.0,1,1.0,0.22669999999993706
409,2,0.2,0.125,35.0,1,1.0,0.2600999999999658
410,2,0.2,0.25,35.0,1,1.0,0.23050000000012005
411,2,0.2,0.125,35.0,1,1.0,0.2340999999998985
412,2,0.2,1.0,35.0,1,1.0,0.4136999999998352
413,2,0.2,0.125,35.0,1,1.0,0.24059999999985848
414,2,0.2,0.25,-35.0,-1,1.0,0.2137000000000171
415,2,0.8,1.0,-35.0,-1,1.0,0.20369999999979882
416,2,0.8,0.125,-35.0,-1,1.0,0.2138999999999669
417,2,0.8,0.0,-35.0,1,0.0,0.2238999999999578
418,2,0.8,0.0,-35.0,1,0.0,0.4873999999999796
419,2,0.8,0.125,-35.0,-1,1.0,0.027499999999918145
420,2,0.8,0.25,-35.0,1,0.0,0.2643000000000484
421,2,0.8,0.25,-35.0,-1,1.0,0.2378000000001066
422,2,0.8,0.0625,35.0,1,1.0,0.2578000000000884
423,2,0.8,0.25,-35.0,-1,1.0,0.24440000000004147
424,2,0.8,0.0625,-35.0,-1,1.0,0.24119999999993524
425,2,0.8,0.25,-35.0,-1,1.0,0.21119999999973516
426,2,0.8,0.125,-35.0,-1,1.0,0.22460000000000946
427,2,0.8,1.0,-35.0,-1,1.0,0.19800000000009277
428,2,0.8,0.0625,35.0,1,1.0,0.23479999999995016
429,2,0.8,0.0625,-35.0,1,0.0,0.2215000000001055
430,2,0.8,1.0,-35.0,-1,1.0,0.17819999999983338
431,2,0.8,0.125,-35.0,-1,1.0,0.27150000000006
432,2,0.8,0.0625,-35.0,-1,1.0,0.09819999999990614
433,2,0.8,0.0,35.0,-1,0.0,8.038199999999733
434,2,0.8,0.0625,-35.0,-1,1.0,0.21169999999983702
435,2,0.8,0.0,35.0,-1,0.0,0.09179999999992106
436,2,0.8,1.0,-35.0,-1,1.0,0.1952000000001135
437,2,0.8,0.25,35.0,1,1.0,0.2319999999999709
438,2,0.8,0.0625,-35.0,-1,1.0,0.30199999999990723
439,2,0.8,0.0625,-35.0,-1,1.0,0.23540000000002692
440,2,0.8,0.0,-35.0,-1,1.0,0.1653999999998632
441,2,0.8,0.25,-35.0,-1,1.0,0.20879999999988286
442,2,0.8,0.125,-35.0,-1,1.0,0.26549999999997453
443,2,0.8,0.125,-35.0,-1,1.0,0.3123000000000502
444,2,0.8,0.25,35.0,1,1.0,5.765599999999949
445,2,0.8,0.25,-35.0,-1,1.0,0.185799999999972
446,2,0.8,0.25,-35.0,-1,1.0,0.2758000000001175
447,2,0.8,0.0625,35.0,-1,0.0,0.2726000000000113
448,2,0.8,1.0,-35.0,-1,1.0,0.19589999999971042
449,2,0.8,0.25,-35.0,-1,1.0,0.21929999999997563
450,2,0.8,1.0,-35.0,-1,1.0,0.1793999999999869
451,2,0.8,0.0625,-35.0,1,0.0,0.5595000000000709
452,2,0.8,0.25,-35.0,-1,1.0,0.19290000000000873
453,2,0.8,0.0,-35.0,-1,1.0,0.04289999999991778
454,2,0.8,0.25,-35.0,-1,1.0,0.23289999999997235
455,2,0.8,0.0625,-35.0,-1,1.0,0.2497000000000753
456,2,0.8,1.0,-35.0,-1,1.0,0.2162999999998192
457,2,0.8,0.0,-35.0,-1,1.0,0.2363999999997759
458,2,0.8,0.0625,-35.0,-1,1.0,0.22309999999993124
459,2,0.8,0.25,-35.0,-1,1.0,0.24320000000011532
460,2,0.8,0.125,-35.0,-1,1.0,0.18319999999994252
461,2,0.8,0.25,-35.0,-1,1.0,0.19650000000001455
462,2,0.8,0.25,-35.0,-1,1.0,0.17340000000012878
463,2,0.8,1.0,-35.0,-1,1.0,0.17660000000000764
464,2,0.8,0.25,-35.0,-1,1.0,0.2400000000000091
465,2,0.2,0.125,35.0,1,1.0,1.7334000000000742
466,2,0.2,0.0,35.0,1,1.0,0.620200000000068
467,2,0.2,1.0,35.0,1,1.0,0.30359999999996035
468,2,0.2,0.25,35.0,1,1.0,0.3935999999998785
469,2,0.2,0.125,-35.0,-1,1.0,0.23040000000014516
470,2,0.2,1.0,35.0,1,1.0,0.3369999999999891
471,2,0.2,1.0,35.0,1,1.0,0.2437999999999647
472,2,0.2,0.25,35.0,1,1.0,0.1270999999999276
473,2,0.2,0.125,35.0,1,1.0,0.3737999999998465
474,2,0.2,0.125,35.0,1,1.0,0.2138999999999669
475,2,0.2,1.0,-35.0,-1,1.0,0.2339999999999236
476,2,0.2,0.125,35.0,1,1.0,0.24080000000003565
477,2,0.2,1.0,35.0,1,1.0,0.35410000000001673
478,2,0.2,1.0,35.0,1,1.0,0.22739999999998872
479,2,0.2,0.0,35.0,1,1.0,0.25080000000002656
480,2,0.2,0.0,35.0,1,1.0,0.6308999999996558
481,2,0.2,1.0,-35.0,-1,1.0,0.27759999999989304
482,2,0.2,1.0,35.0,1,1.0,0.2877000000000862
483,2,0.2,1.0,35.0,1,1.0,0.3976999999999862
484,2,0.2,0.25,35.0,1,1.0,0.23109999999996944
485,2,0.2,0.0625,35.0,-1,0.0,0.3845000000001164
486,2,0.2,0.0625,35.0,1,1.0,0.2278999999998632
487,2,0.2,1.0,35.0,1,1.0,0.2979000000000269
488,2,0.2,0.25,35.0,1,1.0,0.264699999999948
489,2,0.2,1.0,-35.0,-1,1.0,0.15469999999982065
490,2,0.2,0.125,-35.0,-1,1.0,0.39809999999988577
491,2,0.2,1.0,35.0,1,1.0,0.23139999999989413
492,2,0.2,0.125,35.0,1,1.0,0.30150000000003274
493,2,0.2,0.25,35.0,1,1.0,0.28160000000002583
494,2,0.2,0.125,35.0,1,1.0,0.248299999999972
495,2,0.2,0.0625,35.0,-1,0.0,0.4049999999999727
496,2,0.2,0.25,35.0,1,1.0,0.30179999999973006
497,2,0.2,1.0,35.0,1,1.0,0.24510000000009313
498,2,0.2,0.125,35.0,1,1.0,0.26850000000013097
499,2,0.2,0.125,35.0,1,1.0,0.5686000000000604
500,2,0.2,0.0625,35.0,-1,0.0,0.28530000000000655
501,2,0.2,0.0625,35.0,1,1.0,0.4420000000000073
502,2,0.8,0.25,-35.0,-1,1.0,0.24870000000009895
503,2,0.8,0.125,-35.0,-1,1.0,0.4320999999997639
504,2,0.8,1.0,-35.0,-1,1.0,0.1920999999997548
505,2,0.8,0.0625,-35.0,-1,1.0,0.28559999999993124
506,2,0.8,0.0625,-35.0,1,0.0,0.2588989999999285
507,2,0.8,1.0,-35.0,-1,1.0,0.16570000000001528
508,2,0.8,0.0625,35.0,1,1.0,0.24230000000011387
509,2,0.8,0.0,-35.0,1,0.0,0.24909999999977117
510,2,0.8,0.125,-35.0,-1,1.0,0.10580000000027212
511,2,0.8,0.125,-35.0,-1,1.0,0.25250000000005457
512,2,0.8,1.0,35.0,1,1.0,0.2925999999999931
513,2,0.8,0.0,-35.0,-1,1.0,0.13259999999991123
514,2,0.8,1.0,-35.0,-1,1.0,0.21939999999972315
515,2,0.8,0.25,-35.0,-1,1.0,0.22939999999994143
516,2,0.8,1.0,-35.0,-1,1.0,0.20949999999970714
517,2,0.8,0.0625,35.0,-1,0.0,0.24969999999984793
518,2,0.8,0.125,-35.0,-1,1.0,0.0030999999999039574
519,2,0.8,0.0625,35.0,1,1.0,0.6264999999998508
520,2,0.8,1.0,-35.0,-1,1.0,0.21649999999999636
521,2,0.8,0.25,-35.0,-1,1.0,0.21659999999997126
522,2,0.8,0.125,35.0,-1,0.0,0.09989999999993415
523,2,0.8,0.25,-35.0,-1,1.0,0.19000000000005457
524,2,0.8,1.0,-35.0,-1,1.0,0.23009999999976571
525,2,0.8,0.0,-35.0,-1,1.0,0.47679999999991196
526,2,0.8,1.0,-35.0,-1,1.0,0.21339999999986503
527,2,0.8,0.0,-35.0,-1,1.0,0.2135000000000673
528,2,0.8,1.0,35.0,-1,0.0,0.3368999999997868
529,2,0.8,1.0,35.0,1,1.0,0.1869000000001506
530,2,0.8,0.0625,-35.0,1,0.0,0.2635999999999967
531,2,0.8,0.25,35.0,1,1.0,0.47710000000006403
532,2,0.8,0.125,35.0,1,1.0,0.2670999999998003
533,2,0.8,0.0625,-35.0,-1,1.0,0.23049999999989268
534,2,0.8,1.0,-35.0,-1,1.0,0.16729999999984102
535,2,0.8,0.25,-35.0,-1,1.0,0.24719999999979336
536,2,0.8,1.0,-35.0,-1,1.0,0.2338999999999487
537,2,0.8,0.25,-35.0,-1,1.0,0.197400000000016
538,2,0.8,0.0,-35.0,-1,1.0,0.4273999999998068
539,2,0.8,0.125,-35.0,-1,1.0,0.21090000000003783
540,2,0.8,0.25,-35.0,-1,1.0,0.17759999999975662
541,2,0.8,0.0625,35.0,-1,0.0,0.39079999999989923
542,2,0.8,1.0,35.0,1,1.0,0.33760000000006585
543,2,0.8,0.25,-35.0,-1,1.0,0.22430000000008476
544,2,0.8,0.0,-35.0,-1,1.0,0.25769999999988613
545,2,0.8,1.0,-35.0,-1,1.0,0.24109899999984918
546,2,0.8,0.25,-35.0,-1,1.0,0.15449999999987085
547,2,0.8,0.125,35.0,-1,0.0,0.16449999999986176
548,2,0.8,0.0625,-35.0,-1,1.0,0.37789999999995416
549,2,0.8,1.0,-35.0,-1,1.0,0.1879999999998745
550,2,0.8,0.0,-35.0,-1,1.0,0.2880000000000109
551,2,0.8,1.0,-35.0,-1,1.0,0.2414000000001124
552,2,0.8,0.0625,-35.0,-1,1.0,6.771499999999833
553,2,0.8,1.0,-35.0,-1,1.0,0.22489999999993415
554,2,0.8,0.125,-35.0,-1,1.0,0.2817000000000007
555,2,0.2,0.125,-35.0,-1,1.0,0.28510000000005675
556,2,0.2,0.125,35.0,-1,0.0,0.5018000000000029
557,2,0.2,0.25,35.0,-1,0.0,0.20509999999990214
558,2,0.2,0.25,-35.0,-1,1.0,0.19850000000019463
559,2,0.2,0.125,35.0,1,1.0,0.3918999999998505
560,2,0.2,0.25,-35.0,-1,1.0,0.6252999999999247
561,2,0.2,0.0625,35.0,1,1.0,0.5787000000000262
562,2,0.2,0.125,35.0,1,1.0,0.2520999999999276
563,2,0.2,0.125,35.0,-1,0.0,0.1954000000000633
564,2,0.2,1.0,35.0,-1,0.0,0.16550000000006548
565,2,0.2,0.125,-35.0,1,0.0,0.31899999999996
566,2,0.2,1.0,35.0,1,1.0,0.3089999999999691
567,2,0.2,0.25,35.0,-1,0.0,0.1691000000000713
568,2,0.2,0.25,35.0,1,1.0,0.3190999999999349
569,2,0.2,1.0,35.0,1,1.0,0.2958000000000993
570,2,0.2,1.0,35.0,1,1.0,0.19919999999979154
571,2,0.2,0.25,-35.0,-1,1.0,0.25260000000002947
572,2,0.2,0.125,35.0,1,1.0,0.4259999999999309
573,2,0.2,0.125,35.0,1,1.0,0.2760000000000673
574,2,0.2,0.25,-35.0,-1,1.0,0.669399999999996
575,2,0.2,0.0625,35.0,1,1.0,0.30959999999981846
576,2,0.2,1.0,-35.0,-1,1.0,0.20299999999997453
577,2,0.2,0.25,35.0,1,1.0,0.22969999999986612
578,2,0.2,0.0625,35.0,1,1.0,0.2763999999999669
579,2,0.2,0.25,35.0,1,1.0,0.2096999999998843
580,2,0.2,0.25,35.0,1,1.0,0.2764999999999418
581,2,0.2,1.0,35.0,1,1.0,0.29980000000000473
582,2,0.2,0.0625,-35.0,-1,1.0,0.7664999999999509
583,2,0.2,1.0,35.0,1,1.0,0.49319999999988795
584,2,0.2,0.0625,35.0,1,1.0,3.1100000000001273
585,2,0.2,1.0,35.0,1,1.0,0.240099999999984
586,2,0.2,0.25,35.0,1,1.0,0.27349999999978536
587,2,0.2,0.0625,35.0,1,1.0,0.21690000000012333
588,2,0.2,1.0,35.0,1,1.0,0.43699999999989814
589,2,0.2,1.0,35.0,1,1.0,0.23699999999985266
590,2,0.2,0.25,35.0,1,1.0,0.23700000000008004
591,2,0.2,0.0,35.0,1,1.0,0.18049999999993815
592,2,0.2,0.25,35.0,1,1.0,0.213799999999992
593,2,0.2,0.25,35.0,1,1.0,0.20049999999991996
594,2,0.2,1.0,-35.0,-1,1.0,0.28729999999995925
595,2,0.2,0.25,35.0,1,1.0,0.26729999999975007
596,2,0.2,0.0625,-35.0,1,0.0,0.24070000000006075
597,2,0.2,1.0,35.0,1,1.0,0.434099999999944
598,2,0.2,1.0,35.0,1,1.0,0.24410000000011678
599,2,0.2,0.25,35.0,1,1.0,0.30090000000018335
600,2,0.2,0.125,35.0,1,1.0,0.18769999999972242
601,2,0.2,1.0,35.0,1,1.0,0.2641999999998461
602,2,0.2,0.25,35.0,1,1.0,0.24099999999998545
603,2,0.2,0.125,35.0,1,1.0,0.21780000000012478
604,2,0.2,0.25,35.0,1,1.0,0.20109999999999673
605,2,0.2,0.25,35.0,1,1.0,0.22790000000009059
606,2,0.8,0.25,-35.0,-1,1.0,0.24459999999999127
607,2,0.8,0.0625,-35.0,1,0.0,0.24129899999979898
608,2,0.8,0.0,-35.0,1,0.0,0.2880999999999858
609,2,0.8,0.0625,-35.0,-1,1.0,0.29809999999974934
610,2,0.8,0.0,-35.0,-1,1.0,0.4180999999998676
611,2,0.8,1.0,-35.0,-1,1.0,0.2116000000000895
612,2,0.8,0.0625,-35.0,-1,1.0,0.2516000000000531
613,2,0.8,0.125,-35.0,-1,1.0,0.21159999999986212
614,2,0.8,1.0,-35.0,-1,1.0,0.2217000000000553
615,2,0.8,0.0625,-35.0,-1,1.0,0.281800000000203
616,2,0.8,0.125,-35.0,-1,1.0,0.2885999999998603
617,2,0.8,0.125,-35.0,-1,1.0,0.231899999999996
618,2,0.8,0.125,-35.0,-1,1.0,0.22860000000014224
619,2,0.8,0.0625,-35.0,-1,1.0,0.35869999999977153
620,2,0.8,0.0,-35.0,-1,1.0,0.18200000000001637
621,2,0.8,0.0,-35.0,-1,1.0,0.47539999999980864
622,2,0.8,1.0,-35.0,-1,1.0,0.20210000000020045
623,2,0.8,0.25,-35.0,-1,1.0,0.26890000000003056
624,2,0.8,1.0,-35.0,-1,1.0,0.2321999999999207
625,2,0.8,0.125,-35.0,-1,1.0,0.2555999999999585
626,2,0.8,0.25,-35.0,-1,1.0,0.309099999999944
627,2,0.8,0.0625,-35.0,-1,1.0,0.3556999999998425
628,2,0.8,0.25,-35.0,-1,1.0,0.2157999999999447
629,2,0.8,0.125,-35.0,-1,1.0,0.17249999999989996
630,2,0.8,1.0,-35.0,1,0.0,0.21260000000006585
631,2,0.8,0.0,-35.0,1,0.0,0.47260000000005675
632,2,0.8,0.0,-35.0,1,0.0,0.2760999999998148
633,2,0.8,0.125,35.0,1,1.0,0.8593999999998232
634,2,0.8,1.0,-35.0,-1,1.0,0.21280000000001564
635,2,0.8,0.25,-35.0,-1,1.0,0.22959999999989122
636,2,0.8,0.0625,-35.0,-1,1.0,5.776299999999992
637,2,0.8,0.25,35.0,-1,0.0,0.27309999999988577
638,2,0.8,0.25,-35.0,-1,1.0,0.07649999999989632
639,2,0.8,0.0,-35.0,-1,1.0,0.5631999999998243
640,2,0.8,0.125,-35.0,-1,1.0,0.2898999999999887
641,2,0.8,0.0625,35.0,-1,0.0,0.24660000000017135
642,2,0.8,0.0625,-35.0,-1,1.0,0.2166999999994914
643,2,0.8,0.0,-35.0,-1,1.0,0.22670000000016444
644,2,0.8,0.25,-35.0,-1,1.0,0.32340000000021973
645,2,0.8,0.125,-35.0,-1,1.0,0.730199999999968
646,2,0.8,1.0,-35.0,-1,1.0,0.26690000000007785
647,2,0.2,1.0,-35.0,-1,1.0,0.2901999999999134
648,2,0.2,0.0625,35.0,1,1.0,0.43369999999958964
649,2,0.2,0.0625,-35.0,-1,1.0,0.23700000000008004
650,2,0.2,0.125,35.0,-1,0.0,0.2569999999996071
651,2,0.2,0.0625,35.0,-1,0.0,0.22710000000006403
652,2,0.2,0.125,35.0,1,1.0,0.5639000000001033
653,2,0.2,1.0,35.0,1,1.0,0.32389999999986685
654,2,0.2,0.0625,35.0,-1,0.0,0.33390000000008513
655,2,0.2,0.0,35.0,1,1.0,0.6773000000002867
656,2,0.2,0.125,35.0,1,1.0,0.2907999999997628
657,2,0.2,1.0,35.0,1,1.0,0.2807999999999993
658,2,0.2,0.0625,35.0,-1,0.0,0.5274999999996908
659,2,0.2,0.0,35.0,1,1.0,0.4742999999998574
660,2,0.2,0.25,-35.0,-1,1.0,0.28099999999994907
661,2,0.2,0.125,-35.0,1,0.0,0.22109999999975116
662,2,0.2,0.0625,35.0,1,1.0,0.2777000000000953
663,2,0.2,0.0625,35.0,1,1.0,0.741099999999733
664,2,0.2,0.25,35.0,1,1.0,0.324500000000171
665,2,0.2,0.0625,-35.0,1,0.0,0.3344999999999345
666,2,0.2,0.25,35.0,1,1.0,0.2780999999999949
667,2,0.2,0.0625,35.0,1,1.0,0.25469999999995707
668,2,0.2,0.25,35.0,1,1.0,0.44810000000006767
669,2,0.2,1.0,35.0,1,1.0,0.3713999999999942
670,2,0.2,0.125,-35.0,1,0.0,0.21479999999974098
671,2,0.2,1.0,-35.0,-1,1.0,0.20159999999941647
672,2,0.2,0.125,35.0,1,1.0,0.4149000000002161
673,2,0.2,0.0625,-35.0,1,0.0,0.25500000000010914
674,2,0.2,0.0,35.0,1,1.0,0.37179999999989377
675,2,0.2,1.0,35.0,1,1.0,0.23520000000007713
676,2,0.2,0.125,35.0,1,1.0,0.28179999999974825
677,2,0.2,0.25,35.0,1,1.0,0.3385000000002947
678,2,0.2,0.125,-35.0,-1,1.0,0.2418999999999869
679,2,0.2,0.125,-35.0,-1,1.0,0.26860000000033324
680,2,0.2,1.0,-35.0,-1,1.0,0.25540000000000873
681,2,0.2,0.125,35.0,1,1.0,0.2154000000000451
682,2,0.2,0.25,-35.0,-1,1.0,0.1022000000002663
683,2,0.2,0.0625,35.0,-1,0.0,0.19880000000011933
684,2,0.2,1.0,35.0,1,1.0,0.10559999999986758
685,2,0.2,0.0625,35.0,1,1.0,0.23569999999972424
686,2,0.2,0.125,35.0,-1,0.0,0.11569999999937863
687,2,0.8,1.0,-35.0,-1,1.0,0.22240000000010696
688,2,0.8,0.125,-35.0,-1,1.0,0.239100000000235
689,2,0.8,0.0,35.0,1,1.0,0.2357999999999265
690,2,0.8,0.0625,-35.0,-1,1.0,0.392500000000382
691,2,0.8,1.0,35.0,1,1.0,0.24589999999989232
692,2,0.8,0.0,-35.0,-1,1.0,0.19590000000016516
693,2,0.8,1.0,-35.0,-1,1.0,0.2159999999998945
694,2,0.8,0.0625,35.0,-1,0.0,0.20599999999967622
695,2,0.8,0.0625,-35.0,-1,1.0,0.23280000000022483
696,2,0.8,0.0,-35.0,-1,1.0,0.5028999999999542
697,2,0.8,1.0,-35.0,-1,1.0,0.25959999999986394
698,2,0.8,0.0625,-35.0,-1,1.0,0.5762999999997191
699,2,0.8,0.0,-35.0,1,0.0,0.7363999999997759
700,2,0.8,0.0625,-35.0,1,0.0,0.48640000000023065
701,2,0.8,0.0,-35.0,-1,1.0,0.3231999999998152
702,2,0.8,0.125,-35.0,-1,1.0,0.2998999999999796
703,2,0.8,1.0,-35.0,-1,1.0,0.23320000000012442
704,2,0.8,1.0,35.0,1,1.0,0.32999999999992724
705,2,0.8,0.25,-35.0,-1,1.0,0.3433999999997468
706,2,0.8,0.125,-35.0,-1,1.0,0.4566999999997279
707,2,0.8,0.25,35.0,1,1.0,0.24679999999989377
708,2,0.8,0.125,-35.0,-1,1.0,2.2135000000002947
709,2,0.8,1.0,-35.0,-1,1.0,3.480199999999968
710,2,0.2,0.125,35.0,1,1.0,1.9602999999997337
711,2,0.2,0.0625,35.0,-1,0.0,3.2871000000000095
712,2,0.2,1.0,35.0,1,1.0,3.6404999999999745
713,2,0.2,0.25,35.0,1,1.0,0.45400000000017826
714,2,0.2,0.0625,35.0,1,1.0,0.21739999999999782
715,2,0.2,0.0,35.0,-1,0.0,5.3674999999993815
716,2,0.2,0.0625,35.0,-1,0.0,0.09429999999974825
717,2,0.2,0.25,35.0,1,1.0,6.331400000000031
718,2,0.2,1.0,-35.0,-1,1.0,0.22129999999970096
719,2,0.2,0.125,35.0,-1,0.0,0.26470000000017535
720,2,0.2,1.0,35.0,1,1.0,1.0545999999999367
721,2,0.2,0.0625,35.0,1,1.0,0.29160000000001673
722,2,0.2,0.25,35.0,1,1.0,0.7015999999998712
723,2,0.2,0.0625,35.0,1,1.0,0.20159999999987122
724,2,0.2,0.0,-35.0,-1,1.0,0.025099999999838474
725,2,0.2,0.125,35.0,1,1.0,0.30510000000003856
726,2,0.2,0.0625,35.0,1,1.0,0.24879999999984648
727,2,0.2,0.125,-35.0,-1,1.0,0.4382999999997992
728,2,0.2,1.0,35.0,1,1.0,0.07889999999997599
729,2,0.2,0.25,35.0,1,1.0,0.4151999999999134
730,2,0.2,1.0,35.0,1,1.0,0.30529999999998836
731,2,0.2,0.125,35.0,1,1.0,0.2854000000002088
732,2,0.2,0.125,35.0,-1,0.0,0.20870000000013533
733,2,0.2,1.0,-35.0,1,0.0,0.21880000000010114
734,2,0.2,0.25,35.0,1,1.0,0.48230000000012296
735,2,0.2,0.0625,35.0,1,1.0,0.26559999999972206
736,2,0.2,0.25,-35.0,-1,1.0,0.20910000000003492
737,2,0.2,1.0,35.0,1,1.0,0.3688999999999396
738,2,0.2,0.25,35.0,1,1.0,0.2726999999999862
739,2,0.2,0.0625,35.0,1,1.0,0.22910000000001673
740,2,0.2,0.0625,35.0,1,1.0,0.005699999999706051
741,2,0.2,0.125,35.0,1,1.0,0.21259999999983847
742,2,0.2,0.0625,-35.0,1,0.0,0.2260999999998603
743,2,0.2,0.25,-35.0,-1,1.0,0.22269999999980428
744,2,0.2,1.0,-35.0,-1,1.0,0.19299999999975626
745,2,0.2,1.0,35.0,1,1.0,0.2395000000001346
746,2,0.2,0.125,35.0,1,1.0,0.19289999999955398
747,2,0.2,0.125,35.0,1,1.0,0.24299999999993815
748,2,0.2,0.0625,-35.0,1,0.0,0.2561999999998079
749,2,0.2,0.0625,35.0,-1,0.0,0.21309999999994034
750,2,0.2,0.25,35.0,-1,0.0,0.2498000000000502
751,2,0.2,0.0625,35.0,1,1.0,6.783199999999852
752,2,0.2,0.125,35.0,1,1.0,0.20029999999997017
753,2,0.2,0.125,35.0,1,1.0,0.21039999999948122
754,2,0.2,0.0625,35.0,1,1.0,0.24350000000004002
755,2,0.2,0.25,35.0,1,1.0,0.10659999999961656
756,2,0.2,0.0,35.0,1,1.0,0.2836000000002059
757,2,0.2,0.25,35.0,1,1.0,0.23050000000012005
758,2,0.2,0.0625,35.0,1,1.0,0.1570000000001528
759,2,0.2,0.25,35.0,1,1.0,0.2037000000000262
760,2,0.2,0.0625,35.0,1,1.0,0.21370000000024447
761,2,0.2,1.0,-35.0,-1,1.0,0.18719999999984793
762,2,0.2,1.0,-35.0,-1,1.0,0.18740000000025248
763,2,0.2,1.0,35.0,1,1.0,0.7172999999997955
764,2,0.2,0.25,35.0,1,1.0,0.3272999999999229
765,2,0.2,0.0625,35.0,1,1.0,0.2238999999999578
766,2,0.2,1.0,35.0,1,1.0,0.3840000000004693
767,2,0.2,0.125,35.0,1,1.0,0.2139999999999418
768,2,0.2,1.0,-35.0,-1,1.0,0.17419999999992797
769,2,0.2,0.0625,-35.0,1,0.0,0.25420000000030996
770,2,0.2,0.125,35.0,1,1.0,0.24759999999969295
771,2,0.2,0.25,35.0,1,1.0,0.47100000000000364
772,2,0.2,0.0625,35.0,1,1.0,0.3143000000000029
773,2,0.2,0.125,35.0,1,1.0,0.4178999999999178
774,2,0.2,0.25,-35.0,-1,1.0,0.21109999999998763
775,2,0.2,1.0,35.0,1,1.0,0.21109999999998763
776,2,0.2,0.0,-35.0,-1,1.0,0.1777999999999338
777,2,0.8,1.0,-35.0,-1,1.0,0.3216000000002168
778,2,0.8,0.25,35.0,1,1.0,0.25460000000020955
779,2,0.8,0.0,-35.0,1,0.0,0.2780000000002474
780,2,0.8,0.25,-35.0,1,0.0,0.40160000000014406
781,2,0.8,1.0,-35.0,-1,1.0,0.19509999999991123
782,2,0.8,0.0,-35.0,-1,1.0,5.474799999999959
783,2,0.8,1.0,-35.0,-1,1.0,2.5318999999999505
784,2,0.8,1.0,35.0,1,1.0,3.6783000000000357
785,2,0.8,0.0,-35.0,-1,1.0,0.2885000000001128
786,2,0.8,0.0625,-35.0,-1,1.0,0.9850999999998749
787,2,0.8,0.25,-35.0,1,0.0,0.8854000000001179
788,2,0.8,0.25,35.0,-1,0.0,3.2222999999999047
789,2,0.8,0.125,-35.0,-1,1.0,0.19539999999960855
790,2,0.8,1.0,-35.0,-1,1.0,0.4090000000001055
791,2,0.8,1.0,-35.0,-1,1.0,0.2122999999996864
792,2,0.8,0.125,-35.0,-1,1.0,0.3829000000000633
793,2,0.8,1.0,-35.0,-1,1.0,6.215799999999945
794,2,0.8,0.25,-35.0,-1,1.0,4.029899999999998
795,2,0.8,0.0625,35.0,-1,0.0,3.9492999999997664
796,2,0.8,0.0625,35.0,-1,0.0,3.4760999999998603
797,2,0.8,1.0,-35.0,-1,1.0,1.0131999999998698
798,2,0.8,0.25,35.0,-1,0.0,34.98980000000029
799,2,0.8,1.0,-35.0,-1,1.0,7.437200000000303
800,2,0.8,0.0,35.0,-1,0.0,0.2141990000000078
801,2,0.8,1.0,-35.0,-1,1.0,0.4940000000001419
802,2,0.8,1.0,-35.0,-1,1.0,0.1774000000000342
803,2,0.8,0.0625,-35.0,-1,1.0,3.160899999999856
804,2,0.8,0.0625,35.0,-1,0.0,7.590900000000147
805,2,0.8,1.0,-35.0,-1,1.0,0.21439999999984138
806,2,0.8,0.125,-35.0,-1,1.0,6.884699000000182
807,2,0.8,0.0625,-35.0,-1,1.0,0.7012999999997191
808,2,0.8,1.0,-35.0,-1,1.0,0.24789999999984502
809,2,0.8,0.125,-35.0,-1,1.0,4.73490000000038
810,2,0.8,0.0625,35.0,-1,0.0,0.39139999999952124
811,2,0.8,1.0,35.0,-1,0.0,4.795000000000073
812,2,0.8,0.25,-35.0,-1,1.0,0.15520000000014988
813,2,0.8,0.125,-35.0,-1,1.0,0.16220000000021173
1,3,0.5,0.0625,-35.0,1,0.0,0.8508000000000002
2,3,0.5,0.25,-35.0,-1,1.0,0.21760000000000002
3,3,0.5,0.25,35.0,1,1.0,0.23399900000000073
4,3,0.5,0.125,35.0,1,1.0,0.21189999999999998
5,3,0.5,0.125,-35.0,1,0.0,0.22119999999999962
6,3,0.5,0.0,-35.0,1,0.0,0.43789999999999907
7,3,0.5,0.0,-35.0,1,0.0,0.2010000000000005
8,3,0.5,1.0,-35.0,-1,1.0,0.2193000000000005
9,3,0.5,0.25,-35.0,1,0.0,0.21439900000000023
10,3,0.5,0.25,-35.0,-1,1.0,0.18819999999999837
11,3,0.5,1.0,-35.0,-1,1.0,0.2424999999999926
12,3,0.5,0.25,35.0,1,1.0,0.2977999999999952
13,3,0.5,0.125,35.0,-1,0.0,0.18900000000000006
14,3,0.5,0.0625,-35.0,1,0.0,0.2223989999999958
15,3,0.5,0.125,35.0,-1,0.0,0.3258999999999901
16,3,0.5,1.0,35.0,1,1.0,0.19059999999999633
17,3,0.5,0.0625,-35.0,1,0.0,0.1657989999999927
18,3,0.5,0.0625,-35.0,1,0.0,0.2072989999999919
19,3,0.5,0.0625,35.0,1,1.0,0.2032000000000025
20,3,0.5,0.25,35.0,1,1.0,0.3138000000000005
21,3,0.5,0.125,-35.0,1,0.0,0.16729999999999023
22,3,0.5,0.0,35.0,1,1.0,0.3265999999999849
23,3,0.5,0.25,-35.0,-1,1.0,0.2586990000000071
24,3,0.5,0.0625,-35.0,1,0.0,0.2103000000000037
25,3,0.5,0.0625,-35.0,1,0.0,0.14909999999999002
26,3,0.5,1.0,-35.0,-1,1.0,0.1932989999999961
27,3,0.5,0.125,-35.0,-1,1.0,0.18899999999999295
28,3,0.5,0.25,-35.0,-1,1.0,0.19929899999999634
29,3,0.5,1.0,35.0,-1,0.0,0.10909899999998629
30,3,0.5,0.0625,35.0,-1,0.0,0.20359899999999698
31,3,0.5,0.125,35.0,1,1.0,0.2780999999999949
32,3,0.5,0.125,35.0,1,1.0,0.22769999999998447
33,3,0.5,0.0625,35.0,-1,0.0,0.17069899999999905
34,3,0.5,1.0,35.0,1,1.0,0.21019999999998618
35,3,0.5,1.0,-35.0,-1,1.0,0.18119899999999234
36,3,0.5,0.125,35.0,1,1.0,0.2171989999999937
37,3,0.5,0.0625,-35.0,1,0.0,0.3204989999999981
38,3,0.5,0.0,-35.0,1,0.0,0.14739999999999043
39,3,0.5,0.0625,-35.0,-1,1.0,0.20629900000000134
40,3,0.5,1.0,-35.0,-1,1.0,0.1844999999999999
41,3,0.5,0.0,-35.0,1,0.0,0.2882990000000234
42,3,0.5,0.25,35.0,1,1.0,0.29759899999999107
43,3,0.5,0.0625,-35.0,1,0.0,4.06039899999999
44,3,0.5,0.0,35.0,1,1.0,1.7187000000000126
45,3,0.5,0.0625,35.0,1,1.0,0.29460000000000264
46,3,0.5,0.0,-35.0,1,0.0,0.17480000000000473
47,3,0.5,1.0,-35.0,-1,1.0,0.24449999999998795
48,3,0.5,1.0,-35.0,-1,1.0,0.21859900000001176
49,3,0.5,0.25,35.0,1,1.0,0.2584990000000289
50,3,0.5,0.25,-35.0,-1,1.0,0.44820000000001414
51,3,0.5,0.0625,-35.0,1,0.0,0.2616000000000156
52,3,0.5,0.0625,35.0,1,1.0,0.6826000000000079
53,3,0.5,0.0625,35.0,1,1.0,0.2675999999999874
54,3,0.5,0.0,35.0,1,1.0,0.11860000000001492
55,3,0.5,0.25,35.0,1,1.0,0.19879900000000816
56,3,0.5,0.0625,35.0,1,1.0,0.2755989999999997
57,3,0.5,0.125,-35.0,-1,1.0,0.2915000000000134
58,3,0.5,0.0625,35.0,1,1.0,-0.048399999999986676
59,3,0.5,1.0,-35.0,-1,1.0,0.30260000000004084
60,3,0.5,1.0,35.0,1,1.0,0.19269900000003304
61,3,0.5,0.125,35.0,1,1.0,0.49069900000000644
62,3,0.5,1.0,-35.0,-1,1.0,0.30869999999998754
63,3,0.5,0.0625,35.0,1,1.0,0.2526990000000353
64,3,0.5,0.125,35.0,-1,0.0,0.3023990000000083
65,3,0.5,0.125,-35.0,-1,1.0,0.3240999999999872
66,3,0.5,1.0,35.0,1,1.0,0.25839999999999463
67,3,0.5,0.0,-35.0,1,0.0,0.3427000000000362
68,3,0.5,0.125,-35.0,1,0.0,0.24109999999998877
69,3,0.5,0.0625,-35.0,-1,1.0,0.2424000000000035
70,3,0.5,1.0,-35.0,-1,1.0,0.21750000000000114
71,3,0.5,1.0,-35.0,-1,1.0,0.1575990000000047
72,3,0.5,0.25,-35.0,-1,1.0,0.23040000000000305
73,3,0.5,1.0,35.0,1,1.0,0.24890000000002033
74,3,0.5,1.0,35.0,1,1.0,0.36449900000002344
75,3,0.5,0.125,35.0,-1,0.0,0.46399900000000116
76,3,0.5,0.25,-35.0,-1,1.0,0.3067999999999813
77,3,0.5,0.125,-35.0,-1,1.0,0.332698999999991
78,3,0.5,0.25,35.0,-1,0.0,0.3412000000000148
79,3,0.5,0.125,-35.0,-1,1.0,0.24399999999997135
80,3,0.5,0.0625,-35.0,-1,1.0,0.30299999999994043
81,3,0.5,0.25,35.0,-1,0.0,0.5911989999999605
82,3,0.5,0.125,35.0,1,1.0,0.2115999999999758
83,3,0.5,0.0625,-35.0,-1,1.0,0.4619999999999891
84,3,0.5,0.0625,-35.0,-1,1.0,0.7609989999999698
85,3,0.5,1.0,35.0,1,1.0,0.15899899999999434
86,3,0.5,0.0625,35.0,1,1.0,0.15409999999997126
87,3,0.5,0.125,-35.0,-1,1.0,0.2411999999999921
88,3,0.5,0.0,-35.0,1,0.0,0.17029899999994313
89,3,0.5,0.0,35.0,-1,0.0,0.2907989999999927
90,3,0.5,0.125,-35.0,1,0.0,0.06019900000001144
91,3,0.8,0.25,-35.0,-1,1.0,0.2591989999999669
92,3,0.8,0.125,-35.0,-1,1.0,0.2411989999999946
93,3,0.8,0.125,-35.0,1,0.0,0.09819899999996551
94,3,0.8,0.0625,35.0,-1,0.0,0.40659999999991214
95,3,0.8,1.0,-35.0,-1,1.0,0.40119999999996026
96,3,0.8,0.0625,-35.0,1,0.0,0.5283990000000358
97,3,0.8,0.0625,-35.0,1,0.0,0.20269899999999552
98,3,0.8,0.0625,35.0,-1,0.0,0.24329899999997906
99,3,0.8,0.25,-35.0,-1,1.0,0.31529999999997926
100,3,0.8,0.25,-35.0,-1,1.0,0.47959999999994807
101,3,0.8,0.0625,-35.0,-1,1.0,0.3362989999999968
102,3,0.8,1.0,-35.0,-1,1.0,0.26759900000001835
103,3,0.8,0.125,-35.0,-1,1.0,0.27399900000000343
104,3,0.8,1.0,-35.0,-1,1.0,0.2605000000000359
105,3,0.8,1.0,-35.0,-1,1.0,0.24689899999998488
106,3,0.8,0.25,-35.0,-1,1.0,0.21099899999995841
107,3,0.8,0.125,-35.0,-1,1.0,0.3973999999999478
108,3,0.8,1.0,35.0,1,1.0,0.2278999999999769
109,3,0.8,0.125,-35.0,-1,1.0,0.29239999999998645
110,3,0.8,0.0625,-35.0,1,0.0,0.1766990000000419
111,3,0.8,1.0,-35.0,-1,1.0,0.19149899999996478
112,3,0.8,0.25,35.0,1,1.0,0.21929899999997815
113,3,0.8,0.0,-35.0,-1,1.0,0.5037999999999556
114,3,0.8,0.0,-35.0,-1,1.0,0.4007989999999495
115,3,0.8,1.0,-35.0,-1,1.0,0.2044989999999416
116,3,0.8,0.0,-35.0,-1,1.0,0.28149999999993724
117,3,0.8,1.0,-35.0,-1,1.0,0.2884999999999991
118,3,0.8,0.0625,-35.0,-1,1.0,0.2674000000000092
119,3,0.8,0.0625,-35.0,-1,1.0,0.302599999999984
120,3,0.8,0.0625,35.0,1,1.0,0.10959999999994352
121,3,0.8,0.25,35.0,1,1.0,0.2815989999999715
122,3,0.8,0.0625,-35.0,1,0.0,0.26449899999994386
123,3,0.8,0.0625,-35.0,-1,1.0,0.5125999999999635
124,3,0.8,0.0,35.0,1,1.0,0.3108999999999469
125,3,0.8,1.0,-35.0,-1,1.0,0.42579999999992424
126,3,0.8,1.0,-35.0,-1,1.0,0.2416989999999828
127,3,0.8,0.125,-35.0,1,0.0,0.1546989999999937
128,3,0.8,1.0,35.0,1,1.0,0.33169999999995525
129,3,0.8,1.0,35.0,1,1.0,0.19059899999996333
130,3,0.8,0.125,-35.0,1,0.0,0.1751989999999637
131,3,0.8,0.0625,-35.0,1,0.0,0.26279900000002954
132,3,0.8,0.0625,-35.0,1,0.0,0.3525999999999385
133,3,0.8,0.125,-35.0,-1,1.0,0.2540000000000191
134,3,0.8,0.125,-35.0,1,0.0,0.22889900000001262
135,3,0.8,0.0625,-35.0,-1,1.0,0.5857990000000086
136,3,0.8,0.0625,-35.0,-1,1.0,0.3048999999999751
137,3,0.8,0.0625,-35.0,-1,1.0,3.9218999999999937
138,3,0.8,0.0,-35.0,-1,1.0,0.38829999999995835
139,3,0.8,0.125,-35.0,-1,1.0,0.2238999999999578
140,3,0.8,0.25,-35.0,-1,1.0,0.2305989999999838
141,3,0.8,0.0625,-35.0,-1,1.0,0.4806989999999587
142,3,0.8,0.0625,35.0,-1,0.0,0.20899999999994634
143,3,0.8,1.0,-35.0,-1,1.0,0.2599999999999909
144,3,0.8,1.0,-35.0,-1,1.0,0.18269899999995687
145,3,0.8,0.25,-35.0,-1,1.0,0.24009899999992967
146,3,0.8,0.0625,-35.0,1,0.0,0.2636999999999716
147,3,0.8,1.0,-35.0,-1,1.0,0.2037000000000262
148,3,0.8,0.125,-35.0,1,0.0,0.41730000000001155
149,3,0.8,0.0625,-35.0,1,0.0,0.8994000000000142
150,3,0.8,0.0625,-35.0,-1,1.0,0.29160000000001673
151,3,0.8,1.0,35.0,1,1.0,0.11019999999996344
152,3,0.8,0.0625,-35.0,1,0.0,0.37319999999994025
153,3,0.8,1.0,-35.0,-1,1.0,0.21260000000006585
154,3,0.8,0.125,35.0,1,1.0,0.16009900000005928
155,3,0.8,0.0625,-35.0,-1,1.0,0.2522000000000162
156,3,0.8,0.125,-35.0,-1,1.0,0.24620000000004438
157,3,0.8,0.0625,-35.0,-1,1.0,0.3144000000000915
158,3,0.8,0.125,-35.0,-1,1.0,0.4551999999999907
159,3,0.8,0.0625,-35.0,1,0.0,0.151299999999992
160,3,0.8,0.125,-35.0,-1,1.0,0.261600000000044
161,3,0.8,0.0625,-35.0,1,0.0,0.20420000000012806
162,3,0.2,0.125,35.0,1,1.0,0.29340000000001965
163,3,0.2,0.25,35.0,1,1.0,0.2664000000000897
164,3,0.2,0.0625,35.0,1,1.0,0.2421990000001415
165,3,0.2,0.0625,35.0,1,1.0,0.2764000000000806
166,3,0.2,0.25,-35.0,-1,1.0,0.264699999999948
167,3,0.2,1.0,35.0,1,1.0,0.1449999999999818
168,3,0.2,0.25,35.0,1,1.0,0.2864000000000715
169,3,0.2,0.125,-35.0,-1,1.0,0.2863989999999603
170,3,0.2,1.0,35.0,1,1.0,0.1372000000000071
171,3,0.2,0.0625,-35.0,1,0.0,0.08150000000000546
172,3,0.2,1.0,35.0,1,1.0,0.2748990000000049
173,3,0.2,0.125,35.0,1,1.0,0.29700000000002547
174,3,0.2,0.25,35.0,1,1.0,0.12849899999991976
175,3,0.2,1.0,-35.0,-1,1.0,0.22449900000003709
176,3,0.2,0.0625,35.0,1,1.0,0.3024990000001253
177,3,0.2,0.0625,35.0,-1,0.0,0.5506000000000313
178,3,0.2,0.0625,35.0,1,1.0,0.28559900000004745
179,3,0.2,0.125,35.0,1,1.0,0.2865999999999076
180,3,0.2,0.0625,35.0,1,1.0,0.13779999999997017
181,3,0.2,0.125,35.0,1,1.0,0.306699999999978
182,3,0.2,1.0,35.0,1,1.0,0.10869900000011512
183,3,0.2,0.0,35.0,1,1.0,0.18690000000003693
184,3,0.2,0.0625,35.0,-1,0.0,0.5917000000000598
185,3,0.2,0.125,35.0,1,1.0,0.22269999999991796
186,3,0.2,0.25,35.0,1,1.0,0.190099000000032
187,3,0.2,0.25,35.0,1,1.0,0.223700000000008
188,3,0.2,0.125,35.0,1,1.0,0.26340000000004693
189,3,0.2,0.125,35.0,1,1.0,0.3448000000000775
190,3,0.2,0.0625,-35.0,1,0.0,0.30779900000004545
191,3,0.2,0.0,-35.0,-1,1.0,0.4139989999999898
192,3,0.2,0.25,35.0,1,1.0,0.22280000000012024
193,3,0.8,1.0,35.0,1,1.0,0.2518000000001166
194,3,0.8,0.0,-35.0,1,0.0,0.24690000000009604
195,3,0.8,0.25,-35.0,-1,1.0,0.42709900000011203
196,3,0.8,1.0,-35.0,-1,1.0,0.32949999999993906
197,3,0.8,0.125,-35.0,1,0.0,0.20479999999997744
198,3,0.8,0.125,-35.0,-1,1.0,0.28349900000000616
199,3,0.8,0.0,-35.0,1,0.0,0.23490000000003874
200,3,0.8,0.0,-35.0,-1,1.0,0.35590000000001965
201,3,0.8,0.25,-35.0,-1,1.0,0.5511999999999944
202,3,0.8,0.25,-35.0,-1,1.0,0.03829900000005182
203,3,0.8,0.25,-35.0,-1,1.0,0.3044999999999618
204,3,0.8,1.0,35.0,1,1.0,0.26779899999996815
205,3,0.8,0.0625,-35.0,-1,1.0,0.5330000000000155
206,3,0.8,1.0,-35.0,-1,1.0,0.18319899999994504
207,3,0.8,1.0,-35.0,-1,1.0,0.2558000000001357
208,3,0.8,1.0,-35.0,-1,1.0,0.20509900000013204
209,3,0.8,0.25,-35.0,1,0.0,0.11599999999998545
210,3,0.8,0.0,-35.0,-1,1.0,0.42529899999999543
211,3,0.8,1.0,-35.0,-1,1.0,0.2938000000000329
212,3,0.8,1.0,-35.0,-1,1.0,0.24909999999999854
213,3,0.8,0.25,-35.0,-1,1.0,0.2821999999999889
214,3,0.8,0.0625,-35.0,1,0.0,0.10789999999997235
215,3,0.8,0.125,-35.0,-1,1.0,0.31419900000003054
216,3,0.8,0.0625,-35.0,-1,1.0,2.4214990000001535
217,3,0.8,0.0625,-35.0,1,0.0,0.23020000000008167
218,3,0.8,0.0625,-35.0,-1,1.0,0.24729900000011185
219,3,0.8,1.0,-35.0,-1,1.0,0.21730000000002292
220,3,0.8,0.125,35.0,-1,0.0,0.32120000000008986
221,3,0.8,0.25,-35.0,-1,1.0,0.25130000000001473
222,3,0.8,0.25,-35.0,-1,1.0,0.296100000000024
223,3,0.8,1.0,-35.0,-1,1.0,0.33780000000001564
224,3,0.8,0.0625,-35.0,-1,1.0,0.44829900000002
225,3,0.8,1.0,-35.0,-1,1.0,0.37239900000008674
226,3,0.8,0.0,-35.0,1,0.0,0.30940000000009604
227,3,0.8,0.0625,35.0,-1,0.0,0.26959999999996853
228,3,0.8,0.0,-35.0,-1,1.0,0.24609899999995832
229,3,0.8,0.125,-35.0,-1,1.0,0.2235000000000582
230,3,0.8,1.0,-35.0,-1,1.0,0.3151990000000069
231,3,0.8,0.125,-35.0,-1,1.0,0.2175000000000864
232,3,0.8,0.0625,-35.0,-1,1.0,0.08249900000009802
233,3,0.8,0.25,-35.0,-1,1.0,0.2115000000001146
234,3,0.8,0.0,-35.0,-1,1.0,0.2790989999999738
235,3,0.8,0.0625,-35.0,-1,1.0,0.2315000000000964
236,3,0.8,1.0,-35.0,-1,1.0,0.29690000000005057
237,3,0.8,1.0,-35.0,-1,1.0,0.4034990000001244
238,3,0.8,0.125,35.0,1,1.0,0.22680000000002565
239,3,0.8,0.25,-35.0,-1,1.0,0.32759900000007747
240,3,0.8,1.0,-35.0,-1,1.0,0.2806990000000269
241,3,0.8,1.0,-35.0,-1,1.0,0.20119999999997162
242,3,0.8,0.25,-35.0,-1,1.0,0.35199999999997544
243,3,0.8,0.0,-35.0,1,0.0,0.16170000000010987
244,3,0.8,0.125,-35.0,-1,1.0,0.3978990000000522
245,3,0.8,0.0625,-35.0,-1,1.0,0.37000000000000455
246,3,0.8,0.25,35.0,1,1.0,0.39429900000004636
247,3,0.8,1.0,-35.0,-1,1.0,0.22039900000015678
248,3,0.8,0.0,35.0,-1,0.0,0.21579900000006091
249,3,0.8,1.0,-35.0,-1,1.0,0.20349899999996524
250,3,0.8,0.125,-35.0,-1,1.0,0.19679999999993925
251,3,0.8,0.0,-35.0,1,0.0,0.3805000000000973
252,3,0.8,0.0625,-35.0,-1,1.0,0.25279999999997926
253,3,0.8,0.25,-35.0,-1,1.0,0.25129900000013095
254,3,0.8,1.0,-35.0,-1,1.0,0.2538000000000693
255,3,0.8,0.125,-35.0,-1,1.0,0.21749899999997524
256,3,0.8,0.0625,-35.0,-1,1.0,0.44889999999998054
257,3,0.8,0.0625,-35.0,-1,1.0,0.26310000000000855
258,3,0.8,0.125,-35.0,-1,1.0,0.2659000000001015
259,3,0.8,0.125,-35.0,1,0.0,0.24840000000006057
260,3,0.8,0.25,-35.0,-1,1.0,0.39619900000002417
261,3,0.8,0.125,-35.0,-1,1.0,0.23460000000011405
262,3,0.8,0.0,-35.0,1,0.0,0.20299899999997706
263,3,0.8,0.0625,35.0,1,1.0,0.2862989999999854
264,3,0.8,0.125,-35.0,-1,1.0,0.23819899999989502
265,3,0.8,0.125,-35.0,-1,1.0,0.22400000000004638
266,3,0.8,0.0625,-35.0,-1,1.0,0.20230000000003656
267,3,0.8,0.125,-35.0,-1,1.0,0.2153000000000702
268,3,0.8,0.0,-35.0,-1,1.0,0.20590000000004238
269,3,0.8,0.25,-35.0,-1,1.0,0.3590990000000147
270,3,0.8,0.125,35.0,1,1.0,0.3671000000000504
271,3,0.8,0.25,-35.0,-1,1.0,0.2802000000000362
272,3,0.8,0.125,35.0,1,1.0,0.30510000000003856
273,3,0.8,0.125,-35.0,-1,1.0,0.39370000000008076
274,3,0.8,0.0,-35.0,1,0.0,0.2420000000000755
275,3,0.8,0.0,-35.0,-1,1.0,0.33930000000009386
276,3,0.8,1.0,35.0,1,1.0,0.25690000000008695
277,3,0.8,0.125,-35.0,1,0.0,0.20500000000004093
278,3,0.8,1.0,-35.0,-1,1.0,0.34219900000016423
279,3,0.8,0.0625,-35.0,1,0.0,0.1816000000000031
280,3,0.8,1.0,-35.0,-1,1.0,0.2162990000000491
281,3,0.2,0.25,35.0,1,1.0,0.3049990000000662
282,3,0.2,0.25,35.0,1,1.0,0.24630000000013297
283,3,0.2,0.0,35.0,1,1.0,0.6600000000000819
284,3,0.2,0.25,35.0,1,1.0,0.2656000000001768
285,3,0.2,0.0625,35.0,1,1.0,0.2644999999999982
286,3,0.2,1.0,35.0,1,1.0,0.1313990000001013
287,3,0.2,1.0,35.0,1,1.0,0.3629000000000815
288,3,0.2,1.0,35.0,1,1.0,0.2862000000001217
289,3,0.2,1.0,35.0,1,1.0,0.25549900000009984
290,3,0.2,0.125,35.0,1,1.0,0.30539900000007947
291,3,0.2,0.125,35.0,1,1.0,0.1353990000001204
292,3,0.2,0.25,35.0,1,1.0,0.16550000000006548
293,3,0.2,0.25,35.0,1,1.0,0.19249999999999545
294,3,0.2,0.0625,35.0,1,1.0,0.37970000000018445
295,3,0.2,0.125,35.0,1,1.0,0.32300000000009277
296,3,0.2,1.0,35.0,1,1.0,0.23269900000013877
297,3,0.2,0.0625,35.0,1,1.0,0.7257990000000518
298,3,0.2,0.0625,35.0,1,1.0,0.14259999999990214
299,3,0.2,1.0,35.0,1,1.0,0.1856000000000222
300,3,0.2,1.0,35.0,1,1.0,0.39560000000028595
301,3,0.2,0.25,35.0,1,1.0,0.30930000000012114
302,3,0.2,0.0,35.0,1,1.0,0.36569900000017697
303,3,0.2,0.125,-35.0,1,0.0,0.2826999999999771
304,3,0.2,0.125,-35.0,-1,1.0,0.3996989999998277
305,3,0.2,0.125,35.0,-1,0.0,0.29960000000005493
306,3,0.2,0.0,35.0,1,1.0,0.25270000000000437
307,3,0.8,0.0,-35.0,1,0.0,0.2936989999998332
308,3,0.8,1.0,-35.0,-1,1.0,0.19969900000000962
309,3,0.8,0.25,-35.0,-1,1.0,0.3226990000000569
310,3,0.8,1.0,-35.0,-1,1.0,0.19979899999998452
311,3,0.8,1.0,-35.0,-1,1.0,0.22369899999989684
312,3,0.8,0.125,-35.0,-1,1.0,0.5629999999998745
313,3,0.8,0.25,-35.0,-1,1.0,0.2297990000001846
314,3,0.8,1.0,35.0,1,1.0,0.19380000000023756
315,3,0.8,1.0,35.0,1,1.0,0.22729999999978645
316,3,0.8,0.125,-35.0,1,0.0,0.253800000000183
317,3,0.8,0.125,-35.0,1,0.0,0.15300000000002
318,3,0.8,0.25,-35.0,-1,1.0,0.35639999999989413
319,3,0.8,0.25,35.0,1,1.0,0.1998990000001868
320,3,0.8,1.0,-35.0,-1,1.0,0.23090000000001965
321,3,0.8,0.125,-35.0,-1,1.0,0.4098999999998796
322,3,0.8,0.0625,35.0,1,1.0,0.1936000000000604
323,3,0.8,0.0625,-35.0,-1,1.0,0.15099999999983993
324,3,0.8,0.25,-35.0,1,0.0,0.1537999999998192
325,3,0.8,0.125,35.0,1,1.0,0.40989900000022317
326,3,0.8,0.25,-35.0,-1,1.0,0.28099999999994907
327,3,0.8,0.25,-35.0,-1,1.0,0.25700000000006185
328,3,0.8,1.0,-35.0,-1,1.0,0.2272000000002663
329,3,0.8,0.125,-35.0,1,0.0,0.23699899999996887
330,3,0.8,0.25,35.0,-1,0.0,0.1774000000000342
331,3,0.8,0.25,-35.0,1,0.0,0.2980000000000018
332,3,0.8,1.0,-35.0,-1,1.0,0.30779899999993177
333,3,0.8,0.0625,-35.0,1,0.0,0.24070000000006075
334,3,0.8,0.0625,-35.0,-1,1.0,0.28120000000012624
335,3,0.8,0.0625,-35.0,1,0.0,0.161200000000008
336,3,0.8,0.25,-35.0,-1,1.0,0.18079899999997906
337,3,0.8,1.0,-35.0,-1,1.0,0.2241989999999987
338,3,0.8,0.0625,-35.0,-1,1.0,0.46069900000020425
339,3,0.8,1.0,-35.0,-1,1.0,0.2421999999999116
340,3,0.8,1.0,-35.0,-1,1.0,0.21840000000020154
341,3,0.8,0.0625,-35.0,-1,1.0,0.535200000000259
342,3,0.8,0.0625,-35.0,-1,1.0,0.3711000000000695
343,3,0.8,1.0,-35.0,-1,1.0,0.23430000000030304
344,3,0.8,1.0,-35.0,-1,1.0,0.2513000000001284
345,3,0.8,0.0625,-35.0,1,0.0,0.18209900000010748
346,3,0.8,0.25,-35.0,-1,1.0,0.2983000000001539
347,3,0.8,0.25,35.0,1,1.0,0.35130000000003747
348,3,0.8,0.0,-35.0,-1,1.0,0.44839999999999236
349,3,0.8,1.0,-35.0,-1,1.0,0.1978990000000067
350,3,0.8,0.25,-35.0,-1,1.0,0.2922000000000935
351,3,0.8,0.0625,35.0,-1,0.0,0.3949999999999818
352,3,0.8,0.0,35.0,-1,0.0,0.40160000000014406
353,3,0.8,0.25,-35.0,-1,1.0,0.278400000000147
354,3,0.8,0.0,-35.0,-1,1.0,0.21549899999990885
355,3,0.8,0.0625,-35.0,-1,1.0,0.2524989999999434
356,3,0.8,0.25,-35.0,-1,1.0,0.4280989999999747
357,3,0.8,0.25,-35.0,1,0.0,0.13849999999979445
358,3,0.8,1.0,-35.0,-1,1.0,0.22859999999991487
359,3,0.8,0.25,-35.0,-1,1.0,0.29149900000015805
360,3,0.8,0.25,-35.0,-1,1.0,0.3350989999999001
361,3,0.8,1.0,-35.0,-1,1.0,0.3455999999998767
362,3,0.8,0.25,-35.0,-1,1.0,0.2717999999999847
363,3,0.8,1.0,-35.0,-1,1.0,0.3165999999998803
364,3,0.8,0.125,-35.0,-1,1.0,0.338799999999992
365,3,0.8,0.25,-35.0,-1,1.0,0.1856000000000222
366,3,0.8,0.0625,-35.0,-1,1.0,0.23559900000009293
367,3,0.8,0.25,35.0,1,1.0,0.2825990000001184
368,3,0.8,0.0625,-35.0,1,0.0,0.09189900000001217
369,3,0.2,0.25,35.0,1,1.0,0.2920000000001437
370,3,0.2,1.0,35.0,1,1.0,0.10890100000028724
371,3,0.2,0.0625,-35.0,-1,1.0,0.44970100000000457
372,3,0.2,0.0625,35.0,1,1.0,0.24680000000012114
373,3,0.2,0.25,35.0,1,1.0,0.4022010000001046
374,3,0.2,0.25,-35.0,-1,1.0,0.35970099999985905
375,3,0.2,0.0,35.0,-1,0.0,0.38249999999993634
376,3,0.2,1.0,35.0,1,1.0,0.4489000000000942
377,3,0.2,1.0,35.0,1,1.0,0.3568000000000211
378,3,0.2,0.25,-35.0,-1,1.0,0.5593010000002323
379,3,0.2,0.0625,35.0,1,1.0,0.3027999999999338
380,3,0.2,0.0,35.0,-1,0.0,0.43940100000008897
381,3,0.2,0.0625,-35.0,-1,1.0,0.38950099999988197
382,3,0.2,0.0625,35.0,1,1.0,0.1061010000000806
383,3,0.2,0.125,35.0,1,1.0,0.21739999999999782
384,3,0.2,0.25,-35.0,-1,1.0,0.29589999999984684
385,3,0.2,0.0625,-35.0,1,0.0,0.20679999999993015
386,3,0.2,0.125,35.0,1,1.0,0.3795000000000073
387,3,0.2,0.0625,35.0,1,1.0,0.16650000000004184
388,3,0.2,1.0,35.0,1,1.0,0.20400100000006205
389,3,0.2,0.25,-35.0,-1,1.0,0.20050000000014734
390,3,0.2,0.125,35.0,1,1.0,0.2840000000001055
391,3,0.2,0.25,35.0,1,1.0,0.3400010000000293
392,3,0.2,0.25,35.0,1,1.0,0.12010000000009313
393,3,0.2,0.125,-35.0,1,0.0,0.19400100000007114
394,3,0.2,0.125,35.0,1,1.0,0.4070999999999003
395,3,0.2,0.0625,35.0,1,1.0,0.33710100000007515
396,3,0.2,0.0625,35.0,1,1.0,0.21340100000020357
397,3,0.2,0.25,35.0,1,1.0,0.223700000000008
398,3,0.2,1.0,35.0,1,1.0,0.22340100000019447
399,3,0.2,0.0625,35.0,1,1.0,0.29420099999993
400,3,0.2,0.25,35.0,1,1.0,0.24350000000004002
401,3,0.2,0.25,35.0,1,1.0,0.19720100000017737
402,3,0.2,0.0,-35.0,1,0.0,0.32720100000005914
403,3,0.2,0.0625,35.0,1,1.0,0.21430000000032123
404,3,0.2,0.25,35.0,1,1.0,0.2672000000002299
405,3,0.2,1.0,35.0,1,1.0,0.2214010000000144
406,3,0.2,0.0625,-35.0,1,0.0,0.16020099999991544
407,3,0.2,0.25,35.0,1,1.0,0.4073009999999613
408,3,0.2,0.0,-35.0,1,0.0,0.23050100000023122
409,3,0.2,0.25,35.0,1,1.0,0.27060000000028595
410,3,0.2,0.25,35.0,1,1.0,0.2513010000000122
411,3,0.2,0.0625,35.0,1,1.0,0.47080099999993763
412,3,0.2,0.0,35.0,1,1.0,0.19410100000004604
413,3,0.2,0.0625,35.0,1,1.0,0.22840100000007624
414,3,0.2,0.125,35.0,1,1.0,0.4107000000001335
415,3,0.2,0.0,35.0,1,1.0,0.25440100000014354
416,3,0.2,0.0625,35.0,1,1.0,0.4510009999999056
417,3,0.2,0.125,35.0,1,1.0,0.20450099999993654
418,3,0.2,1.0,35.0,1,1.0,0.21450099999992744
419,3,0.2,0.25,35.0,1,1.0,0.1685010000001057
420,3,0.2,0.125,35.0,1,1.0,0.19450000000006185
421,3,0.2,0.125,35.0,1,1.0,0.2054000000000542
422,3,0.2,0.125,-35.0,1,0.0,0.317801000000145
423,3,0.2,0.125,-35.0,-1,1.0,0.3044999999999618
424,3,0.2,1.0,35.0,1,1.0,0.21450100000015482
425,3,0.2,0.0,35.0,1,1.0,0.14480000000003201
426,3,0.2,1.0,35.0,1,1.0,0.19859999999994216
427,3,0.2,0.0625,35.0,1,1.0,0.3693000000000666
428,3,0.2,0.25,35.0,1,1.0,0.25800100000014936
429,3,0.2,0.125,35.0,1,1.0,0.11559999999985848
430,3,0.2,1.0,35.0,1,1.0,0.13909999999987122
431,3,0.2,0.125,35.0,1,1.0,0.18830000000002656
432,3,0.2,0.125,35.0,1,1.0,0.11169999999992797
433,3,0.2,1.0,35.0,1,1.0,0.2717000000002372
434,3,0.2,1.0,35.0,1,1.0,0.16180099999996855
435,3,0.2,0.0625,35.0,1,1.0,0.2558000000001357
436,3,0.2,0.125,35.0,1,1.0,0.1786010000000715
437,3,0.2,0.0,-35.0,1,0.0,0.23870000000010805
438,3,0.2,0.0,35.0,1,1.0,0.18980000000010477
439,3,0.2,1.0,-35.0,-1,1.0,0.30940099999975246
440,3,0.2,0.25,-35.0,1,0.0,0.20499999999992724
441,3,0.2,1.0,35.0,1,1.0,0.20600100000001476
442,3,0.2,0.125,35.0,1,1.0,0.19180100000016864
443,3,0.2,0.0625,35.0,1,1.0,0.06290100000001075
444,3,0.2,0.0625,35.0,1,1.0,0.10200000000008913
445,3,0.2,0.0625,35.0,1,1.0,0.1889009999999871
446,3,0.8,1.0,-35.0,-1,1.0,0.24560100000030616
447,3,0.8,0.125,-35.0,-1,1.0,0.4558999999999287
448,3,0.8,0.0625,35.0,1,1.0,0.16930100000013226
449,3,0.8,0.0625,-35.0,-1,1.0,0.23600099999998747
450,3,0.8,0.25,-35.0,1,0.0,0.11300000000005639
451,3,0.8,0.0,-35.0,1,0.0,0.189200000000028
452,3,0.8,0.125,-35.0,1,0.0,0.217000999999982
453,3,0.8,0.0625,-35.0,-1,1.0,0.26250099999992926
454,3,0.8,0.0625,-35.0,1,0.0,0.3930009999999129
455,3,0.8,0.0625,-35.0,1,0.0,0.3330000000000837
456,3,0.8,0.0,-35.0,-1,1.0,0.2961010000001352
457,3,0.8,0.0,-35.0,-1,1.0,0.4631010000000515
458,3,0.8,0.0,-35.0,1,0.0,0.12930000000005748
459,3,0.8,0.125,-35.0,1,0.0,0.24350000000004002
460,3,0.8,1.0,35.0,1,1.0,0.2260999999998603
461,3,0.8,1.0,-35.0,-1,1.0,0.28310099999998783
462,3,0.8,1.0,-35.0,-1,1.0,0.18610100000000784
463,3,0.8,0.125,-35.0,-1,1.0,0.637101000000257
464,3,0.8,1.0,-35.0,1,0.0,0.15610100000003513
465,3,0.8,0.0625,-35.0,1,0.0,0.32320099999992635
466,3,0.8,0.25,-35.0,-1,1.0,0.3166009999999915
467,3,0.8,0.25,-35.0,-1,1.0,0.26330000000007203
468,3,0.8,0.0,-35.0,-1,1.0,0.28320099999996273
469,3,0.8,0.0,35.0,-1,0.0,0.3000010000000657
470,3,0.8,0.0625,35.0,-1,0.0,0.15430100000003222
471,3,0.8,0.0,35.0,-1,0.0,0.5837000000001353
472,3,0.8,1.0,-35.0,-1,1.0,0.2068010000002687
473,3,0.8,0.125,-35.0,1,0.0,4.171399999999949
474,3,0.8,0.0625,35.0,-1,0.0,0.25680099999999584
475,3,0.8,0.25,35.0,1,1.0,0.324301000000105
476,3,0.8,0.125,-35.0,-1,1.0,0.31730100000004313
477,3,0.8,0.0,-35.0,1,0.0,0.2414000000001124
478,3,0.8,0.25,-35.0,-1,1.0,0.3969010000000708
479,3,0.8,0.0,-35.0,-1,1.0,0.25749999999993634
480,3,0.8,0.25,-35.0,-1,1.0,0.3505009999998947
481,3,0.8,0.25,35.0,1,1.0,0.5675009999999929
482,3,0.8,1.0,35.0,1,1.0,0.307501000000002
483,3,0.8,1.0,-35.0,-1,1.0,0.27080100000011953
484,3,0.8,0.0625,-35.0,1,0.0,0.24450100000012753
485,3,0.8,0.25,-35.0,-1,1.0,0.18050000000016553
486,3,0.8,0.0,-35.0,1,0.0,0.33760099999994964
487,3,0.8,1.0,-35.0,-1,1.0,0.1975009999998747
488,3,0.8,0.0,-35.0,1,0.0,0.1711009999999078
489,3,0.8,0.25,-35.0,1,0.0,0.21090099999992162
490,3,0.8,0.125,-35.0,-1,1.0,0.38090100000022176
491,3,0.8,0.25,-35.0,-1,1.0,0.3415999999997439
492,3,0.8,1.0,35.0,1,1.0,0.27870099999995546
493,3,0.8,0.125,-35.0,-1,1.0,0.22150100000021666
494,3,0.8,0.125,-35.0,-1,1.0,0.28770099999997
495,3,0.8,0.25,-35.0,-1,1.0,0.18800099999998565
496,3,0.8,0.25,-35.0,-1,1.0,0.2577009999999973
497,3,0.8,0.125,-35.0,-1,1.0,0.38480100000015227
498,3,0.8,0.0,35.0,-1,0.0,0.2849010000002181
499,3,0.8,0.0625,-35.0,1,0.0,0.2820010000000366
500,3,0.2,0.0625,35.0,-1,0.0,0.28130000000010114
501,3,0.2,0.25,35.0,-1,0.0,0.32480100000020684
502,3,0.2,0.25,35.0,1,1.0,0.2989000000000033
503,3,0.2,1.0,35.0,1,1.0,0.24500100000000202
504,3,0.2,1.0,35.0,1,1.0,0.3418010000000322
505,3,0.2,0.125,-35.0,-1,1.0,0.2919010000000526
506,3,0.2,1.0,35.0,1,1.0,0.2299000000000433
507,3,0.2,1.0,-35.0,-1,1.0,0.24890000000004875
508,3,0.2,0.125,35.0,1,1.0,0.16160100000001876
509,3,0.2,0.25,-35.0,1,0.0,1.1293009999999413
510,3,0.2,1.0,35.0,1,1.0,0.19510100000024977
511,3,0.2,0.0625,35.0,1,1.0,0.21000000000003638
512,3,0.2,0.125,35.0,1,1.0,0.23520000000007713
513,3,0.2,0.0625,35.0,1,1.0,0.21279999999978827
514,3,0.2,0.0625,35.0,1,1.0,0.14870099999984632
515,3,0.2,0.25,-35.0,1,0.0,0.2119999999997617
516,3,0.2,1.0,-35.0,-1,1.0,0.3120010000000093
517,3,0.2,0.0625,35.0,1,1.0,0.23880099999996673
518,3,0.2,1.0,35.0,1,1.0,0.24610000000006949
519,3,0.2,1.0,35.0,1,1.0,0.3955999999998312
520,3,0.2,0.25,-35.0,-1,1.0,0.45010100000013153
521,3,0.2,0.125,35.0,1,1.0,0.40610100000003513
522,3,0.8,1.0,-35.0,-1,1.0,0.20560100000011516
523,3,0.8,0.125,35.0,1,1.0,0.1992000000002463
524,3,0.8,0.125,-35.0,-1,1.0,0.5158010000000104
525,3,0.8,0.0,-35.0,1,0.0,0.4623999999998887
526,3,0.8,0.25,-35.0,-1,1.0,0.2824009999999362
527,3,0.8,1.0,-35.0,-1,1.0,0.1062010000000555
528,3,0.8,1.0,-35.0,-1,1.0,0.30240100000014536
529,3,0.8,0.0,35.0,1,1.0,0.30250100000012026
530,3,0.8,0.0625,35.0,1,1.0,0.6093010000001868
531,3,0.8,0.125,-35.0,1,0.0,0.19700000000011642
532,3,0.8,0.0,-35.0,1,0.0,0.2770010000001548
533,3,0.8,0.25,35.0,1,1.0,0.1529009999999289
534,3,0.8,1.0,-35.0,-1,1.0,0.7771999999999935
535,3,0.8,0.125,-35.0,1,0.0,0.2593000000001666
536,3,0.8,0.25,-35.0,-1,1.0,0.2234000000000833
537,3,0.8,1.0,-35.0,-1,1.0,0.25040000000012697
538,3,0.8,1.0,-35.0,-1,1.0,0.21760100000005878
539,3,0.8,0.125,-35.0,-1,1.0,0.41350099999999657
540,3,0.8,0.125,-35.0,-1,1.0,0.2500999999999749
541,3,0.8,0.0,-35.0,1,0.0,0.4535009999999602
542,3,0.8,0.0625,-35.0,-1,1.0,0.2598000000000411
543,3,0.8,0.25,35.0,-1,0.0,0.33330100000011953
544,3,0.8,0.125,-35.0,-1,1.0,0.2805000000000746
545,3,0.8,1.0,-35.0,-1,1.0,0.2036000000000513
546,3,0.8,1.0,-35.0,-1,1.0,0.20020099999987906
547,3,0.8,0.25,35.0,1,1.0,0.2969999999997981
548,3,0.8,0.0625,-35.0,1,0.0,0.350601000000097
549,3,0.8,0.125,-35.0,1,0.0,2.180800999999974
550,3,0.8,0.0625,-35.0,1,0.0,0.30060100000014245
551,3,0.8,0.25,-35.0,-1,1.0,0.25470100000006823
552,3,0.8,0.25,-35.0,-1,1.0,0.40030000000001564
553,3,0.8,0.0625,35.0,1,1.0,0.11460099999999329
554,3,0.8,0.0,-35.0,1,0.0,0.43770100000028833
555,3,0.8,0.0,-35.0,1,0.0,0.24070100000017192
556,3,0.8,1.0,-35.0,-1,1.0,0.28770099999997
557,3,0.8,0.0625,-35.0,1,0.0,0.9507009999999809
558,3,0.8,0.125,-35.0,1,0.0,0.471800999999914
559,3,0.8,1.0,-35.0,-1,1.0,0.29070099999989907
560,3,0.8,0.25,-35.0,-1,1.0,0.21739999999999782
561,3,0.8,0.0,-35.0,1,0.0,0.2077999999999065
562,3,0.8,0.0625,-35.0,-1,1.0,0.4308010000002014
563,3,0.8,0.0625,-35.0,-1,1.0,0.12780100000009043
564,3,0.8,0.25,-35.0,-1,1.0,0.22860100000002603
565,3,0.8,0.0625,-35.0,1,0.0,0.3019000000001597
566,3,0.8,0.0,-35.0,1,0.0,0.3843000000001666
567,3,0.8,0.25,35.0,1,1.0,0.3749009999999089
568,3,0.8,0.125,-35.0,-1,1.0,0.4019010000001799
569,3,0.8,1.0,-35.0,-1,1.0,0.3079000000000178
570,3,0.8,1.0,-35.0,-1,1.0,0.21430099999997765
571,3,0.8,0.0,-35.0,-1,1.0,0.5244010000001254
572,3,0.8,0.0625,-35.0,-1,1.0,0.26890000000025793
573,3,0.8,0.0625,-35.0,-1,1.0,0.38470099999995
574,3,0.8,0.0,-35.0,-1,1.0,0.34530100000006314
575,3,0.8,0.125,-35.0,-1,1.0,0.2681999999999789
576,3,0.2,0.25,35.0,1,1.0,0.22200000000020736
577,3,0.2,0.125,-35.0,-1,1.0,0.45200000000022555
578,3,0.2,0.125,35.0,1,1.0,0.22850000000016735
579,3,0.2,0.125,-35.0,-1,1.0,0.31910100000004604
580,3,0.2,1.0,35.0,1,1.0,0.2923009999999522
581,3,0.2,0.125,35.0,1,1.0,0.24150100000019847
582,3,0.2,0.125,-35.0,-1,1.0,0.3017010000000937
583,3,0.2,1.0,35.0,1,1.0,0.24170100000014827
584,3,0.2,0.25,35.0,1,1.0,0.35870100000011007
585,3,0.2,0.125,35.0,1,1.0,0.16170099999999366
586,3,0.2,0.25,35.0,1,1.0,0.28840100000002167
587,3,0.2,0.125,35.0,1,1.0,0.32210099999974773
588,3,0.2,1.0,35.0,1,1.0,0.36220000000002983
589,3,0.2,0.0,35.0,1,1.0,0.22880000000009204
590,3,0.2,1.0,35.0,1,1.0,0.33580000000006294
591,3,0.2,0.125,35.0,1,1.0,0.33600000000001273
592,3,0.2,1.0,35.0,1,1.0,0.2733009999999467
593,3,0.2,0.0625,-35.0,1,0.0,0.3023009999999431
594,3,0.2,0.25,35.0,1,1.0,0.41630099999997583
595,3,0.2,0.0625,-35.0,1,0.0,0.3263009999998303
596,3,0.2,0.25,35.0,1,1.0,0.3023009999997157
597,3,0.2,0.0625,35.0,1,1.0,0.14940100000012535
598,3,0.2,0.0,-35.0,-1,1.0,0.26340099999970334
599,3,0.2,0.125,-35.0,-1,1.0,0.24970100000018647
600,3,0.2,1.0,35.0,1,1.0,0.12260100000003149
601,3,0.2,0.25,-35.0,-1,1.0,0.20049999999991996
602,3,0.2,0.125,35.0,1,1.0,0.29260000000022046
603,3,0.2,0.25,35.0,1,1.0,0.3126010000005408
604,3,0.2,0.0625,35.0,1,1.0,0.5059010000004491
605,3,0.2,1.0,35.0,1,1.0,0.11350099999981467
606,3,0.2,0.25,35.0,-1,0.0,0.2130010000000766
607,3,0.2,0.125,35.0,1,1.0,0.17949999999973443
608,3,0.2,0.25,35.0,1,1.0,0.20610100000021703
609,3,0.2,0.25,35.0,1,1.0,0.30350099999986924
610,3,0.2,0.0625,35.0,1,1.0,0.2395000000001346
611,3,0.2,0.0625,35.0,1,1.0,0.32640100000025996
612,3,0.2,1.0,35.0,1,1.0,0.25680099999999584
613,3,0.2,1.0,35.0,1,1.0,0.23059999999986758
614,3,0.2,0.0,-35.0,1,0.0,0.3697009999996226
615,3,0.8,0.125,-35.0,-1,1.0,0.3065999999998894
616,3,0.8,0.25,-35.0,-1,1.0,0.2731010000002243
617,3,0.8,0.25,-35.0,-1,1.0,0.16670100000055754
618,3,0.8,0.25,35.0,-1,0.0,0.7136000000000422
619,3,0.8,1.0,35.0,-1,0.0,0.25090100000034
620,3,0.8,0.0625,-35.0,-1,1.0,0.243300999999974
621,3,0.8,0.25,-35.0,-1,1.0,0.3337010000000191
622,3,0.8,0.25,-35.0,-1,1.0,0.3048009999997703
623,3,0.8,1.0,-35.0,-1,1.0,0.2337999999999738
624,3,0.8,0.0625,-35.0,1,0.0,0.15380099999993035
625,3,0.8,1.0,35.0,1,1.0,0.27010100000006787
626,3,0.8,0.0625,35.0,1,1.0,0.36380099999996673
627,3,0.8,0.25,-35.0,-1,1.0,0.17069999999966967
628,3,0.8,0.25,-35.0,-1,1.0,0.22470000000021173
629,3,0.8,0.0,-35.0,1,0.0,0.4008009999997739
630,3,0.8,0.0625,35.0,-1,0.0,0.2270010000002003
631,3,0.8,1.0,-35.0,-1,1.0,0.1972000000000662
632,3,0.8,0.125,-35.0,1,0.0,0.07390100000020539
633,3,0.8,0.125,-35.0,-1,1.0,8.461900000000242
634,3,0.8,0.125,-35.0,-1,1.0,0.5379010000006019
635,3,0.8,0.125,-35.0,-1,1.0,0.1974009999998998
636,3,0.8,0.125,35.0,-1,0.0,0.2640000000001237
637,3,0.8,1.0,-35.0,-1,1.0,0.2849999999998545
638,3,0.8,0.125,-35.0,-1,1.0,0.4081010000004426
639,3,0.8,0.125,-35.0,-1,1.0,0.24789999999984502
640,3,0.8,0.0625,-35.0,-1,1.0,0.3641010000001188
641,3,0.8,0.25,-35.0,-1,1.0,0.13900100000046223
642,3,0.8,1.0,35.0,-1,0.0,0.21760100000028615
643,3,0.8,1.0,-35.0,-1,1.0,0.23809999999957654
644,3,0.2,0.125,35.0,-1,0.0,0.3215000000004693
645,3,0.2,0.0625,35.0,1,1.0,0.46920100000033926
646,3,0.2,0.0625,35.0,-1,0.0,0.32580100000041057
647,3,0.2,0.125,35.0,1,1.0,0.3182010000000446
648,3,0.2,0.0625,-35.0,-1,1.0,0.29819999999972424
649,3,0.2,1.0,-35.0,-1,1.0,0.2681999999999789
650,3,0.2,0.125,-35.0,1,0.0,0.4014999999999418
651,3,0.2,0.125,-35.0,-1,1.0,0.2492010000000846
652,3,0.2,1.0,35.0,1,1.0,0.24220100000002276
653,3,0.2,0.125,35.0,1,1.0,0.48840000000018335
654,3,0.2,0.25,35.0,1,1.0,0.32230100000015227
655,3,0.2,1.0,-35.0,-1,1.0,0.27209999999968204
656,3,0.2,0.0,35.0,1,1.0,0.28510099999994054
657,3,0.2,1.0,35.0,1,1.0,0.19180099999994127
658,3,0.2,0.25,35.0,1,1.0,0.35940000000027794
659,3,0.2,0.0625,35.0,1,1.0,0.2987009999997099
660,3,0.2,0.125,35.0,1,1.0,0.27520000000004075
661,3,0.2,0.25,-35.0,-1,1.0,0.3053999999997359
662,3,0.2,0.0625,35.0,1,1.0,0.6024009999996451
663,3,0.2,0.125,35.0,1,1.0,0.19200000000000728
664,3,0.2,0.125,35.0,1,1.0,0.29550100000051316
665,3,0.2,0.0,-35.0,1,0.0,0.2522009999997863
666,3,0.2,1.0,35.0,1,1.0,0.35880100000031234
667,3,0.2,0.0625,35.0,1,1.0,0.2524009999997361
668,3,0.2,0.125,35.0,1,1.0,0.019500000000334694
669,3,0.2,0.0625,-35.0,1,0.0,0.3324010000001181
670,3,0.2,1.0,35.0,1,1.0,0.21010100000012244
671,3,0.2,0.125,-35.0,1,0.0,0.23260100000015882
672,3,0.2,0.25,-35.0,-1,1.0,0.3766009999999369
673,3,0.2,0.25,35.0,1,1.0,0.36930100000017774
674,3,0.2,0.0,35.0,1,1.0,0.18580100000008315
675,3,0.2,1.0,-35.0,-1,1.0,0.27600100000017846
676,3,0.2,1.0,35.0,1,1.0,0.3197010000003502
677,3,0.2,0.125,35.0,1,1.0,0.2767010000002301
678,3,0.2,0.125,35.0,1,1.0,0.2860000000000582
679,3,0.2,0.25,35.0,1,1.0,0.2997009999999136
680,3,0.2,0.25,35.0,1,1.0,0.2637009999998554
681,3,0.2,1.0,-35.0,-1,1.0,0.21350000000029468
682,3,0.2,0.0625,-35.0,-1,1.0,0.12960100000009334
683,3,0.2,0.25,35.0,-1,0.0,0.2330010000000584
684,3,0.2,1.0,35.0,1,1.0,0.3398010000000795
685,3,0.2,0.25,35.0,-1,0.0,0.2530010000000402
686,3,0.2,0.25,-35.0,-1,1.0,0.29680000000007567
687,3,0.2,0.0,-35.0,-1,1.0,0.2698009999999158
688,3,0.2,0.125,35.0,1,1.0,0.2169000000003507
689,3,0.2,0.0625,-35.0,1,0.0,0.27680099999997765
690,3,0.2,0.25,35.0,-1,0.0,0.16390099999989616
691,3,0.2,0.25,35.0,1,1.0,0.2738009999998212
692,3,0.2,0.125,-35.0,-1,1.0,0.29739999999992506
693,3,0.2,0.125,35.0,1,1.0,0.18390100000033271
694,3,0.2,0.0,35.0,1,1.0,0.4309000000002925
695,3,0.2,1.0,35.0,1,1.0,0.3239010000002054
696,3,0.2,0.125,35.0,1,1.0,0.11090100000001257
697,3,0.2,0.0625,-35.0,1,0.0,0.2108000000002903
698,3,0.2,1.0,35.0,1,1.0,0.18780000000015207
699,3,0.2,0.125,35.0,1,1.0,0.3470009999996364
700,3,0.2,1.0,35.0,1,1.0,0.1770000000001346
701,3,0.2,0.125,35.0,1,1.0,0.45430000000033033
702,3,0.2,0.0625,35.0,1,1.0,0.2737010000000737
703,3,0.2,0.0625,35.0,1,1.0,0.2538009999998394
704,3,0.2,1.0,35.0,1,1.0,0.15760000000000218
705,3,0.2,0.25,35.0,1,1.0,0.1911009999998896
706,3,0.2,1.0,35.0,1,1.0,0.07040099999994709
707,3,0.2,0.125,35.0,1,1.0,0.24040100000001985
708,3,0.2,0.0625,35.0,1,1.0,0.7110999999999876
709,3,0.2,1.0,35.0,1,1.0,3.417500000000018
710,3,0.2,1.0,-35.0,-1,1.0,0.22749999999996362
711,3,0.2,0.0625,-35.0,1,0.0,0.6582999999995991
712,3,0.2,0.125,35.0,1,1.0,3.428200999999717
713,3,0.2,0.0625,35.0,1,1.0,0.4476009999998496
714,3,0.2,0.25,35.0,1,1.0,0.2175999999999476
715,3,0.2,0.25,35.0,1,1.0,0.13130099999989397
716,3,0.8,0.125,-35.0,1,0.0,0.37770099999988815
717,3,0.8,0.0625,-35.0,-1,1.0,0.21130000000039217
718,3,0.8,0.0625,-35.0,1,0.0,0.1814009999998234
719,3,0.8,0.0625,-35.0,1,0.0,0.2645999999999731
720,3,0.8,0.0,-35.0,1,0.0,2.38130000000001
721,3,0.8,0.125,-35.0,-1,1.0,0.37150100000008024
722,3,0.8,1.0,35.0,1,1.0,0.26860000000033324
723,3,0.8,0.0,-35.0,1,0.0,0.12550099999998565
724,3,0.8,1.0,-35.0,-1,1.0,0.2815009999999347
725,3,0.8,0.0625,-35.0,1,0.0,0.28580100000044695
726,3,0.8,0.0,-35.0,1,0.0,0.7724010000001726
727,3,0.8,0.25,-35.0,-1,1.0,0.45180100000015955
728,3,0.8,0.0,-35.0,1,0.0,0.22249999999985448
729,3,0.8,0.125,-35.0,-1,1.0,0.21939999999995052
730,3,0.8,0.0625,-35.0,-1,1.0,0.48169999999981883
731,3,0.8,0.125,-35.0,-1,1.0,0.07520099999965169
732,3,0.8,0.125,-35.0,-1,1.0,0.2925000000000182
733,3,0.8,0.25,35.0,1,1.0,0.3086009999997259
734,3,0.8,0.0625,-35.0,1,0.0,0.25640100000009625
735,3,0.8,0.125,-35.0,-1,1.0,0.18960100000003877
736,3,0.8,1.0,-35.0,-1,1.0,0.29619999999977153
737,3,0.8,0.0625,-35.0,-1,1.0,0.20600000000013097
738,3,0.8,0.25,-35.0,1,0.0,1.4427009999999427
739,3,0.8,0.125,-35.0,1,0.0,0.3057010000002265
740,3,0.8,0.0,-35.0,1,0.0,0.329801000000316
741,3,0.8,0.0,-35.0,1,0.0,0.4927010000001246
742,3,0.8,1.0,-35.0,-1,1.0,0.2927009999998518
743,3,0.8,0.0625,-35.0,1,0.0,1.9866000000001804
744,3,0.8,0.0625,-35.0,-1,1.0,0.17580099999986487
745,3,0.8,1.0,35.0,1,1.0,0.27900099999988015
746,3,0.8,0.0,-35.0,1,0.0,0.06280000000015207
747,3,0.8,0.125,-35.0,1,0.0,0.5338000000001557
748,3,0.2,0.0625,35.0,1,1.0,0.7393010000000686
749,3,0.2,0.0625,-35.0,-1,1.0,0.3829009999999471
750,3,0.2,0.125,35.0,1,1.0,0.3598009999996066
751,3,0.2,0.25,-35.0,1,0.0,0.20990000000028886
752,3,0.2,1.0,35.0,1,1.0,0.2560009999997419
753,3,0.2,0.25,35.0,1,1.0,0.22400100000004386
754,3,0.2,0.25,-35.0,1,0.0,0.03989999999976135
755,3,0.2,0.25,-35.0,-1,1.0,0.32640100000025996
756,3,0.2,1.0,-35.0,-1,1.0,0.26630100000011225
757,3,0.2,0.25,35.0,1,1.0,0.2735010000001239
758,3,0.2,0.125,35.0,1,1.0,0.3263010000000577
759,3,0.2,0.25,35.0,1,1.0,0.3763000000003558
760,3,0.2,0.0625,35.0,1,1.0,0.1930010000000948
761,3,0.2,0.0625,-35.0,1,0.0,0.5430010000000038
762,3,0.2,0.25,35.0,1,1.0,0.18770000000040454
763,3,0.2,0.0,35.0,1,1.0,0.2610999999997148
764,3,0.2,1.0,35.0,1,1.0,0.0340000000001055
765,3,0.2,0.125,35.0,1,1.0,0.22010000000045693
766,3,0.2,0.125,35.0,1,1.0,0.14410099999986414
767,3,0.2,0.0625,35.0,1,1.0,0.03680099999974118
768,3,0.2,0.25,35.0,1,1.0,0.1511000000000422
769,3,0.2,0.0,35.0,1,1.0,0.18730100000038874
770,3,0.2,1.0,-35.0,-1,1.0,0.3967999999999847
771,3,0.2,0.0625,35.0,1,1.0,0.14420100000006641
772,3,0.2,0.125,35.0,1,1.0,0.17730100000017046
773,3,0.2,0.0625,35.0,1,1.0,0.2373010000001159
774,3,0.2,0.25,-35.0,1,0.0,0.2738009999998212
775,3,0.2,0.0625,35.0,1,1.0,0.4605010000004768
776,3,0.2,0.25,35.0,1,1.0,0.2674010000000635
777,3,0.2,0.0625,35.0,1,1.0,0.3183009999997921
778,3,0.2,0.25,35.0,1,1.0,0.5813010000001668
779,3,0.2,1.0,35.0,1,1.0,0.23430000000053042
780,3,0.2,1.0,35.0,1,1.0,0.3684010000001763
781,3,0.2,0.0625,35.0,1,1.0,0.21050000000013824
782,3,0.2,0.0625,35.0,1,1.0,0.24830100000008315
783,3,0.2,1.0,35.0,1,1.0,0.17750100000012026
784,3,0.2,0.0625,35.0,1,1.0,0.20400100000006205
785,3,0.2,1.0,35.0,1,1.0,0.12769999999954962
786,3,0.2,0.25,35.0,1,1.0,0.25840100000004895
787,3,0.2,1.0,35.0,1,1.0,0.3746000000001004
788,3,0.2,0.25,35.0,1,1.0,0.23540000000002692
789,3,0.2,0.0625,35.0,1,1.0,0.45769999999947686
790,3,0.2,0.25,35.0,1,1.0,0.2310010000001057
791,3,0.2,1.0,-35.0,1,0.0,0.17770100000007005
792,3,0.2,0.0625,35.0,1,1.0,0.3179009999998925
793,3,0.2,1.0,35.0,1,1.0,0.15150100000028033
794,3,0.2,0.25,35.0,1,1.0,0.4913010000000213
795,3,0.2,1.0,-35.0,-1,1.0,0.30550099999982194
796,3,0.2,0.0,35.0,1,1.0,0.23460100000011153
797,3,0.2,0.25,35.0,1,1.0,0.24820099999988088
798,3,0.8,1.0,35.0,1,1.0,0.19210100000009334
799,3,0.8,0.25,-35.0,1,0.0,0.21460100000012972
800,3,0.8,0.25,-35.0,1,0.0,0.19810099999995145
801,3,0.8,0.0625,-35.0,1,0.0,0.4086010000000897
802,3,0.8,0.0,-35.0,1,0.0,0.24470100000007733
803,3,0.8,0.25,-35.0,-1,1.0,0.6786999999999352
804,3,0.8,0.0625,-35.0,1,0.0,0.3789999999999054
805,3,0.8,0.0625,-35.0,1,0.0,6.044900999999754
806,3,0.8,0.25,35.0,1,1.0,0.6122010000003684
807,3,0.8,0.0625,-35.0,-1,1.0,0.3619999999996253
808,3,0.8,0.125,35.0,1,1.0,0.23550099999965823
809,3,0.8,0.0,35.0,1,1.0,0.1228000000000975
810,3,0.8,0.0,-35.0,1,0.0,0.14879999999993743
811,3,0.8,0.0,-35.0,1,0.0,0.24280099999987215
812,3,0.8,0.125,-35.0,1,0.0,0.26590100000021266
813,3,0.8,1.0,-35.0,-1,1.0,0.23880000000008295
814,3,0.8,0.125,-35.0,-1,1.0,0.21210100000007515
815,3,0.8,0.0625,-35.0,-1,1.0,0.35950099999990925
816,3,0.8,0.25,-35.0,-1,1.0,0.1657999999997628
817,3,0.8,1.0,-35.0,-1,1.0,0.17540099999996528
818,3,0.8,0.0625,-35.0,-1,1.0,0.30290100000001985
819,3,0.8,0.25,-35.0,-1,1.0,0.182901000000129
820,3,0.8,0.25,-35.0,-1,1.0,0.2321999999999207
821,3,0.8,0.0,-35.0,1,0.0,0.16660100000035527
822,3,0.8,0.25,35.0,1,1.0,0.3130009999995309
823,3,0.8,0.25,35.0,-1,0.0,0.2830000000003565
824,3,0.8,0.25,-35.0,-1,1.0,0.23300000000017462
825,3,0.8,0.0,-35.0,1,0.0,0.32300000000032014
826,3,0.8,1.0,35.0,1,1.0,0.4230000000002292
827,3,0.8,1.0,-35.0,-1,1.0,0.30990099999962695
828,3,0.8,0.125,-35.0,-1,1.0,0.2301009999996495
829,3,0.8,0.0625,-35.0,-1,1.0,0.28010000000040236
830,3,0.8,0.0625,35.0,-1,0.0,0.2399000000000342
831,3,0.8,0.0625,-35.0,1,0.0,0.6162010000002738
832,3,0.8,0.25,35.0,1,1.0,0.47620099999994636
833,3,0.8,0.125,-35.0,-1,1.0,0.28050100000018574
834,3,0.8,0.0,-35.0,1,0.0,0.23610099999996237
835,3,0.8,0.0625,-35.0,-1,1.0,0.4032000000001972
836,3,0.8,0.125,-35.0,-1,1.0,0.3263000000001739
837,3,0.8,1.0,-35.0,-1,1.0,0.2465009999996255
838,3,0.8,0.0625,35.0,-1,0.0,0.36350099999981467
839,3,0.8,0.0,-35.0,1,0.0,0.3733999999999469
840,3,0.2,0.25,35.0,1,1.0,0.4602999999997337
841,3,0.2,0.25,35.0,1,1.0,0.3067010000004302
842,3,0.2,0.0,35.0,1,1.0,0.20420100000001185
843,3,0.2,0.0625,-35.0,1,0.0,0.176499999999578
844,3,0.2,0.25,35.0,1,1.0,0.27010100000006787
845,3,0.2,1.0,-35.0,-1,1.0,0.21660100000008242
846,3,0.2,0.25,-35.0,-1,1.0,0.5012000000001535
847,3,0.2,0.0625,35.0,1,1.0,0.5835010000000693
848,3,0.2,0.125,35.0,1,1.0,0.1713009999998576
849,3,0.2,0.0,35.0,1,1.0,0.2902009999997972
850,3,0.2,1.0,35.0,1,1.0,0.3572009999998045
851,3,0.2,0.0625,35.0,1,1.0,0.2804010000004382
852,3,0.2,0.125,35.0,1,1.0,0.2112000000001899
