trial_num,session_num,stim_probability_left,contrast,position,response_choice,trial_correct,reaction_time
1,38,0.5,1.0,-35.0,-1,1.0,0.9104999999999996
2,38,0.5,0.125,35.0,-1,0.0,30.554100000000002
3,38,0.5,0.0625,-35.0,1,0.0,23.58740000000001
4,38,0.8,0.0625,-35.0,-1,1.0,0.6157000000000039
5,38,0.5,1.0,35.0,-1,0.0,2.2861000000000047
6,38,0.5,0.0625,-35.0,-1,1.0,0.6393999999999949
7,38,0.5,0.125,35.0,-1,0.0,3.3680999999999983
8,38,0.5,0.25,35.0,1,1.0,0.9341000000000008
9,38,0.5,0.0,-35.0,1,0.0,2.3111000000000104
10,38,0.5,0.0,-35.0,-1,1.0,0.5768999999999949
11,38,0.5,0.0625,-35.0,1,0.0,3.9088000000000136
12,38,0.5,0.25,-35.0,1,0.0,7.344500000000011
13,38,0.5,0.25,35.0,1,1.0,0.3504000000000076
14,38,0.5,0.125,-35.0,1,0.0,0.4490000000000123
15,38,0.5,0.125,-35.0,-1,1.0,0.7845000000000084
16,38,0.5,0.0625,35.0,-1,0.0,0.5502999999999929
17,38,0.6,0.0625,-35.0,-1,1.0,0.5739999999999839
18,38,0.5,1.0,35.0,1,1.0,0.37829999999999586
19,38,0.5,0.125,35.0,-1,0.0,2.563999999999993
20,38,0.5,0.25,35.0,1,1.0,0.7109999999999843
21,38,0.5,0.0,-35.0,1,0.0,4.094300000000004
22,38,0.5,0.125,35.0,-1,0.0,5.599699999999984
23,38,0.5,0.25,35.0,1,1.0,0.5523999999999774
24,38,0.5,0.0,-35.0,1,0.0,2.974899999999991
25,38,0.5,0.0,-35.0,-1,1.0,0.5559999999999832
26,38,0.5,1.0,35.0,1,1.0,0.5816000000000088
27,38,0.5,1.0,35.0,1,1.0,0.43969999999998777
28,38,0.5,0.125,35.0,1,1.0,0.49799999999999045
29,38,0.5,0.125,-35.0,-1,1.0,0.4590000000000032
30,38,0.5,1.0,-35.0,-1,1.0,0.6362000000000023
31,38,0.5,1.0,-35.0,-1,1.0,0.7266999999999939
32,38,0.5,0.0,-35.0,-1,1.0,0.5701999999999998
33,38,0.5,0.125,35.0,-1,0.0,1.080699999999979
34,38,0.5,0.25,-35.0,-1,1.0,6.144300000000015
35,38,0.5,0.125,35.0,-1,0.0,0.5383999999999958
36,38,0.5,0.25,35.0,1,1.0,0.4275000000000375
37,38,0.5,1.0,35.0,1,1.0,0.616800000000012
38,38,0.5,1.0,-35.0,-1,1.0,0.5578999999999894
39,38,0.5,0.25,35.0,1,1.0,0.40279999999998495
40,38,0.5,0.25,-35.0,-1,1.0,0.4654000000000167
41,38,0.5,0.25,-35.0,-1,1.0,0.8788999999999874
42,38,0.5,0.125,-35.0,-1,1.0,0.40119999999996026
43,38,0.5,0.0625,35.0,-1,0.0,1.5793999999999642
44,38,0.3,0.0625,35.0,1,1.0,16.991100000000017
45,38,0.5,1.0,-35.0,-1,1.0,0.5683999999999969
46,38,0.5,0.125,-35.0,-1,1.0,3.0610999999999535
47,38,0.5,1.0,-35.0,1,0.0,2.459899999999948
48,38,0.5,0.0625,-35.0,1,0.0,41.59099999999995
49,38,0.5,0.0,-0.0,0,0.0,60.281799999999976
50,38,0.5,0.25,-35.0,-1,1.0,21.576199999999915
51,38,0.5,1.0,-35.0,-1,1.0,0.8145999999999844
52,38,0.5,1.0,-35.0,-1,1.0,0.5163999999999191
53,38,0.5,0.25,35.0,-1,0.0,0.5466999999999871
54,38,0.5,0.0625,-35.0,-1,1.0,0.5058999999999969
55,38,0.5,0.125,-35.0,-1,1.0,0.4645999999999617
56,38,0.5,1.0,-35.0,-1,1.0,0.8279999999999745
57,38,0.5,0.0625,35.0,-1,0.0,0.5867999999999824
58,38,0.2,0.0625,35.0,-1,0.0,0.5971000000000117
59,38,0.5,1.0,35.0,1,1.0,0.5434999999999377
60,38,0.5,0.125,-35.0,-1,1.0,0.39859999999998763
61,38,0.5,1.0,-35.0,-1,1.0,0.4413999999999305
62,38,0.5,1.0,35.0,1,1.0,0.3897999999999797
63,38,0.5,0.0625,-35.0,1,0.0,3.7913999999999533
64,38,0.5,0.25,-35.0,-1,1.0,0.48189999999993915
65,38,0.5,0.25,-35.0,1,0.0,5.765800000000013
66,38,0.5,0.125,35.0,1,1.0,1.9692000000000007
67,38,0.5,1.0,-35.0,-1,1.0,0.3750999999999749
68,38,0.5,0.125,-35.0,1,0.0,1.673099999999863
69,38,0.5,0.125,-35.0,-1,1.0,0.5585999999999558
70,38,0.5,0.0625,35.0,-1,0.0,0.5815000000000055
71,38,0.5,0.25,35.0,1,1.0,0.4031999999999698
72,38,0.5,0.0625,35.0,1,1.0,0.5776999999999362
73,38,0.5,1.0,-35.0,-1,1.0,0.5522999999998319
74,38,0.5,0.125,-35.0,-1,1.0,1.974299999999971
75,38,0.5,0.25,35.0,1,1.0,0.38040000000000873
76,38,0.5,0.25,-35.0,-1,1.0,0.6494999999999891
77,38,0.5,0.25,-35.0,1,0.0,2.1054999999998927
78,38,0.5,0.25,35.0,1,1.0,0.4196000000000595
79,38,0.5,1.0,35.0,1,1.0,0.579599999999914
80,38,0.5,1.0,35.0,1,1.0,0.38769999999999527
81,38,0.5,1.0,-35.0,1,0.0,4.162599999999884
82,38,0.7,1.0,-35.0,-1,1.0,0.58299999999997
83,38,0.5,1.0,-35.0,-1,1.0,0.4377999999999247
84,38,0.5,0.0625,35.0,-1,0.0,0.9239999999999782
85,38,0.5,0.0625,35.0,-1,0.0,0.5464999999999236
86,38,0.5,0.0625,35.0,-1,0.0,0.5991999999999962
87,38,0.5,1.0,-35.0,-1,1.0,0.5124999999999318
88,38,0.5,1.0,-35.0,-1,1.0,0.625
89,38,0.5,0.25,35.0,-1,0.0,0.5103000000000293
90,38,0.5,0.125,35.0,-1,0.0,0.49119999999993524
91,38,0.1,0.125,-35.0,-1,1.0,0.6625000000000227
92,38,0.5,1.0,35.0,1,1.0,0.5328999999999269
93,38,0.5,0.25,35.0,1,1.0,0.427599999999984
94,38,0.5,0.25,-35.0,1,0.0,1.222099999999955
95,38,0.5,0.125,35.0,1,1.0,0.4414000000000442
96,38,0.5,0.0625,-35.0,1,0.0,0.9962999999999056
97,38,0.5,0.25,35.0,1,1.0,0.46469999999999345
98,38,0.5,0.125,-35.0,1,0.0,0.6762999999999693
99,38,0.5,0.25,35.0,1,1.0,0.38279999999986103
100,38,0.5,1.0,-35.0,1,0.0,0.45289999999999964
101,38,0.9,1.0,-35.0,1,0.0,0.49909999999999854
102,38,1.0,1.0,-35.0,-1,1.0,0.5172999999999774
103,38,0.5,1.0,-35.0,-1,1.0,0.531099999999924
104,38,0.5,0.125,-35.0,-1,1.0,0.43209999999999127
105,38,0.5,0.125,35.0,-1,0.0,0.5177999999999656
106,38,0.5,0.0625,-35.0,1,0.0,1.4359999999999218
107,38,0.5,0.125,35.0,-1,0.0,0.4733999999999696
108,38,0.5,0.125,35.0,1,1.0,0.37009999999997945
109,38,0.5,1.0,35.0,1,1.0,0.39269999999987704
110,38,0.5,1.0,35.0,1,1.0,0.3990000000000009
111,38,0.5,0.0,35.0,1,1.0,1.9810999999999694
112,38,0.5,0.25,-35.0,-1,1.0,0.4873999999999796
113,38,0.5,0.25,35.0,1,1.0,0.4420999999999822
114,38,0.5,0.0625,-35.0,-1,1.0,0.5427999999999429
115,38,0.5,0.25,-35.0,-1,1.0,0.49879999999996016
116,38,0.5,0.125,-35.0,1,0.0,3.1762999999999693
117,38,0.5,0.0,-35.0,1,0.0,0.859299999999962
118,38,0.5,0.25,-35.0,-1,1.0,0.5696000000000367
119,38,0.5,1.0,-35.0,-1,1.0,0.7132000000000289
120,38,0.5,0.0625,-35.0,1,0.0,2.8327999999999065
121,38,0.5,0.0625,-35.0,-1,1.0,0.7076999999999316
122,38,0.5,1.0,35.0,1,1.0,0.39439999999990505
123,38,0.5,0.125,35.0,-1,0.0,0.5457999999999856
124,38,0.5,0.125,-35.0,-1,1.0,0.5595999999999322
125,38,0.5,0.0625,35.0,-1,0.0,0.38199999999983447
126,38,0.5,0.0625,35.0,1,1.0,0.5711999999999762
127,38,0.5,1.0,35.0,1,1.0,0.37979999999993197
128,38,0.5,0.25,-35.0,-1,1.0,0.7478999999999587
129,38,0.5,0.125,35.0,1,1.0,0.3567000000000462
130,38,0.5,0.125,35.0,1,1.0,0.33299999999997
131,38,0.5,0.25,-35.0,-1,1.0,0.8378000000000156
132,38,0.5,0.0625,35.0,1,1.0,0.6895999999999276
133,38,0.5,0.0625,35.0,-1,0.0,0.6721999999999753
134,38,0.5,0.125,35.0,1,1.0,0.45859999999993306
135,38,0.5,0.125,-35.0,1,0.0,0.4270999999999958
136,38,0.7,0.125,35.0,1,1.0,0.7110999999999876
137,38,0.5,1.0,-35.0,1,0.0,1.6540999999999713
138,38,0.7,1.0,-35.0,-1,1.0,0.8228999999998905
139,38,0.5,1.0,35.0,1,1.0,0.3669999999999618
140,38,0.5,0.0625,35.0,1,1.0,1.2248999999999342
141,38,0.5,1.0,-35.0,-1,1.0,0.6251999999999498
142,38,0.5,0.125,-35.0,1,0.0,1.8188000000000102
143,38,0.5,0.25,-35.0,-1,1.0,0.40620000000001255
144,38,0.5,1.0,-35.0,-1,1.0,0.7694999999999936
145,38,0.5,0.0,35.0,-1,0.0,0.5669000000000324
146,38,0.5,0.0625,-35.0,-1,1.0,0.5301999999999225
147,38,0.5,0.0625,35.0,1,1.0,0.7940999999999576
148,38,0.5,0.25,35.0,1,1.0,0.39819999999997435
149,38,0.5,0.125,-35.0,-1,1.0,1.1123000000000047
150,38,0.5,1.0,35.0,1,1.0,0.5150999999999613
151,38,0.5,0.0625,-35.0,-1,1.0,1.203800000000001
152,38,0.5,1.0,35.0,1,1.0,0.35399999999992815
153,38,0.5,1.0,35.0,1,1.0,0.5919999999999845
154,38,0.5,0.0625,35.0,-1,0.0,0.5108000000000175
155,38,0.5,0.25,-35.0,1,0.0,1.8932999999999538
156,38,0.5,0.0625,35.0,1,1.0,1.024499999999989
157,38,0.5,0.125,35.0,1,1.0,0.7247999999999593
158,38,0.5,0.0625,-35.0,-1,1.0,0.3610999999999649
159,38,0.5,1.0,35.0,1,1.0,0.39599999999995816
160,38,0.5,0.0,35.0,-1,0.0,0.7010000000000218
161,38,0.5,0.0,-35.0,1,0.0,0.6230999999999085
162,38,0.5,0.25,35.0,1,1.0,0.7699999999998681
163,38,0.5,0.0,35.0,1,1.0,0.7946000000000595
164,38,0.5,0.0,-35.0,1,0.0,0.6616000000000213
165,38,0.8,0.0,-35.0,1,0.0,1.6643000000000256
166,38,0.5,1.0,-35.0,-1,1.0,0.42799999999999727
167,38,0.5,0.125,35.0,1,1.0,1.6105000000000018
168,38,0.5,0.0625,35.0,-1,0.0,0.3786000000000058
169,38,0.7,0.0625,35.0,1,1.0,0.4452999999999747
170,38,0.5,1.0,-35.0,-1,1.0,0.49699999999984357
171,38,0.5,0.25,35.0,1,1.0,0.3507999999999356
172,38,0.5,0.25,-35.0,-1,1.0,0.7054000000000542
173,38,0.5,0.125,35.0,1,1.0,0.5418999999999414
174,38,0.5,0.125,-35.0,-1,1.0,0.512299999999982
175,38,0.5,0.125,-35.0,-1,1.0,0.3686999999999898
176,38,0.5,0.125,-35.0,-1,1.0,0.7056999999999789
177,38,0.5,1.0,35.0,1,1.0,0.37209999999993215
178,38,0.5,0.125,-35.0,-1,1.0,0.662599999999884
179,38,0.5,1.0,35.0,1,1.0,0.4455000000000382
180,38,0.5,0.125,35.0,1,1.0,2.059500000000071
181,38,0.5,0.125,35.0,-1,0.0,0.49279999999998836
182,38,0.5,0.0625,-35.0,-1,1.0,0.5128999999999451
183,38,0.5,1.0,-35.0,-1,1.0,0.5291999999999462
184,38,0.5,1.0,-35.0,-1,1.0,0.593199999999797
185,38,0.5,0.125,35.0,1,1.0,1.3792000000000826
186,38,0.5,0.25,-35.0,-1,1.0,0.4231999999999516
187,38,0.5,1.0,35.0,1,1.0,0.4094000000000051
188,38,0.5,0.25,35.0,1,1.0,0.4067000000000007
189,38,0.5,0.125,-35.0,-1,1.0,0.6032999999999902
190,38,0.5,0.0625,-35.0,-1,1.0,0.9099999999998545
191,38,0.5,1.0,-35.0,-1,1.0,0.3999999999998636
192,38,0.5,1.0,-35.0,-1,1.0,0.4169999999999163
193,38,0.5,0.0625,35.0,-1,0.0,0.47630000000003747
194,38,0.5,0.25,35.0,1,1.0,0.5371999999999844
195,38,0.5,0.125,-35.0,-1,1.0,0.856899999999996
196,38,0.5,0.25,35.0,1,1.0,0.500400000000127
197,38,0.5,0.125,-35.0,-1,1.0,0.8606999999999516
198,38,0.5,0.0625,-35.0,-1,1.0,0.803899999999885
199,38,0.5,1.0,35.0,1,1.0,0.33720000000016626
200,38,0.5,0.25,-35.0,1,0.0,0.3973000000000866
201,38,0.4,0.25,35.0,1,1.0,0.47729999999978645
202,38,0.5,1.0,35.0,1,1.0,0.5208999999999833
203,38,0.5,0.0625,35.0,-1,0.0,1.2035000000000764
204,38,0.5,0.0625,35.0,1,1.0,0.6408999999998741
205,38,0.5,0.0625,35.0,-1,0.0,0.5575000000001182
206,38,0.5,0.0,-35.0,1,0.0,0.4545999999998003
207,38,0.6,0.0,35.0,-1,0.0,0.834400000000187
208,38,0.5,1.0,35.0,1,1.0,0.5079999999998108
209,38,0.5,0.25,-35.0,1,0.0,0.8380999999999403
210,38,0.7,0.25,-35.0,-1,1.0,0.8515999999999622
211,38,0.5,1.0,-35.0,-1,1.0,0.4546999999997752
212,38,0.5,0.125,-35.0,-1,1.0,0.40170000000011896
213,38,0.5,0.0,35.0,-1,0.0,0.6282999999998538
214,38,0.5,0.25,35.0,1,1.0,0.6251999999999498
215,38,0.5,0.0625,-35.0,1,0.0,2.6749999999999545
216,38,0.5,0.0625,-35.0,1,0.0,0.4986999999998716
217,38,0.5,0.125,35.0,1,1.0,0.745401000000129
218,38,0.5,0.25,-35.0,-1,1.0,1.1256009999999605
219,38,0.5,0.0625,35.0,1,1.0,0.6256009999999605
220,38,0.5,0.25,35.0,1,1.0,0.4324010000000271
221,38,0.5,0.0625,-35.0,1,0.0,0.3990009999999984
222,38,0.5,0.0625,-35.0,-1,1.0,0.5191009999998641
223,38,0.5,1.0,-35.0,-1,1.0,0.4655009999999038
224,38,0.5,0.125,-35.0,-1,1.0,0.7026009999999587
225,38,0.5,0.0625,-35.0,-1,1.0,0.5526009999998678
226,38,0.5,0.0,-35.0,-1,1.0,0.49280099999987215
227,38,0.5,0.25,-35.0,-1,1.0,0.39580099999989216
228,38,0.5,0.0,-35.0,-1,1.0,0.6662010000000009
229,38,0.5,0.0625,-35.0,1,0.0,0.396300999999994
230,38,0.5,0.0625,-35.0,-1,1.0,0.3664009999999962
231,38,0.5,0.0,-35.0,-1,1.0,0.5000009999998838
232,38,0.5,1.0,-35.0,-1,1.0,0.5627009999998336
233,38,0.5,0.0625,35.0,-1,0.0,0.6533010000000559
234,38,0.5,0.25,35.0,-1,0.0,0.4566010000000915
235,38,0.1,0.25,-35.0,-1,1.0,0.5368009999997412
236,38,0.5,1.0,35.0,1,1.0,1.0734009999998761
237,38,0.5,0.0625,-35.0,-1,1.0,0.3906009999998332
238,38,0.5,0.25,-35.0,-1,1.0,0.453300999999783
239,38,0.5,1.0,35.0,1,1.0,0.7572010000001228
240,38,0.5,0.0,-35.0,-1,1.0,1.8837009999999736
241,38,0.5,1.0,35.0,1,1.0,0.7806009999999333
242,38,0.5,0.125,35.0,1,1.0,0.7473009999998794
243,38,0.5,0.0,35.0,-1,0.0,1.6541010000000824
244,38,0.4,0.0,35.0,-1,0.0,0.540800999999874
245,38,0.5,1.0,35.0,1,1.0,0.5877009999999245
246,38,0.5,1.0,35.0,1,1.0,0.5745010000000548
247,38,0.5,0.25,-35.0,1,0.0,0.5442010000001574
248,38,0.5,0.25,-35.0,-1,1.0,1.3579010000000835
249,38,0.5,1.0,-35.0,-1,1.0,0.4712009999998372
250,38,0.5,0.125,-35.0,-1,1.0,0.7280009999999493
251,38,0.5,1.0,-35.0,-1,1.0,0.5215009999997164
252,38,0.5,0.0625,35.0,-1,0.0,1.1748009999998885
253,38,0.5,0.0,-35.0,1,0.0,0.4312009999998736
254,38,0.5,0.25,35.0,-1,0.0,0.5683010000000195
255,38,0.5,0.25,35.0,1,1.0,0.3648009999999431
256,38,0.5,0.25,35.0,1,1.0,0.36840099999972153
257,38,0.5,0.25,-35.0,-1,1.0,0.6981010000001788
258,38,0.5,0.125,-35.0,-1,1.0,1.015201000000161
259,38,0.5,1.0,35.0,1,1.0,0.5415009999999256
260,38,0.5,0.25,35.0,1,1.0,0.3988010000000486
261,38,0.5,0.125,-35.0,-1,1.0,0.5286009999999806
262,38,0.5,0.0625,-35.0,-1,1.0,0.7821009999997841
263,38,0.5,0.0,35.0,-1,0.0,0.5921009999999569
264,38,0.5,0.125,-35.0,-1,1.0,0.562300999999934
265,38,0.5,0.0625,-35.0,1,0.0,0.5691009999998187
266,38,0.4,0.0625,-35.0,-1,1.0,0.3625010000000657
267,38,0.5,1.0,35.0,1,1.0,0.3322009999999409
268,38,0.5,0.125,35.0,1,1.0,0.42590100000006714
269,38,0.5,0.0,35.0,1,1.0,0.3522009999999227
270,38,0.5,0.125,35.0,1,1.0,0.6461010000000442
271,38,0.5,0.25,35.0,1,1.0,0.4657009999998536
272,38,0.5,0.0,-35.0,1,0.0,0.6762009999999918
273,38,0.5,0.0625,35.0,-1,0.0,0.4656009999998787
274,38,0.5,0.125,35.0,1,1.0,0.7465009999998529
275,38,0.5,1.0,35.0,1,1.0,0.42950100000007296
276,38,0.5,0.0625,-35.0,1,0.0,0.5465009999998074
277,38,0.5,0.125,-35.0,-1,1.0,0.5731009999999515
278,38,0.5,1.0,-35.0,-1,1.0,0.6303009999999176
279,38,0.5,0.125,-35.0,-1,1.0,0.3400010000000293
280,38,0.5,0.0625,-35.0,-1,1.0,0.48670100000003913
281,38,0.5,0.0,-35.0,-1,1.0,0.6070009999998547
282,38,0.5,0.125,-35.0,-1,1.0,0.5269009999999525
283,38,0.5,0.0625,-35.0,-1,1.0,0.37390099999993254
284,38,0.5,0.125,35.0,1,1.0,1.9538010000001123
285,38,0.5,0.0625,35.0,-1,0.0,0.6973009999996975
286,38,0.5,0.25,35.0,1,1.0,0.44060099999978775
287,38,0.5,0.125,35.0,1,1.0,1.0474010000000362
288,38,0.5,0.0625,-35.0,1,0.0,0.6741010000000642
289,38,0.4,0.0625,35.0,-1,0.0,0.9042010000000573
290,38,0.5,1.0,35.0,1,1.0,0.3606010000000879
291,38,0.5,0.25,-35.0,-1,1.0,0.3711009999999533
292,38,0.5,0.125,-35.0,-1,1.0,0.9641009999998005
293,38,0.5,0.125,35.0,-1,0.0,0.5812010000001919
294,38,0.5,0.125,-35.0,1,0.0,2.4545009999999365
295,38,0.5,0.125,-35.0,-1,1.0,0.6082010000000082
296,38,0.5,0.125,-35.0,-1,1.0,0.8145009999998365
297,38,0.5,0.0,35.0,-1,0.0,0.6782009999999445
298,38,0.3,0.0,-35.0,-1,1.0,0.4585010000000693
299,38,0.5,1.0,35.0,1,1.0,0.5113010000000031
300,38,0.5,1.0,35.0,1,1.0,0.5120010000000548
301,38,0.5,0.0,35.0,1,1.0,0.5514009999999416
302,38,0.5,0.0,35.0,-1,0.0,0.5652009999998882
303,38,0.5,0.0,35.0,1,1.0,2.8382010000000264
304,38,0.5,0.0625,35.0,1,1.0,0.6688010000000304
305,38,0.5,1.0,35.0,1,1.0,0.5089009999996961
306,38,0.5,0.125,-35.0,-1,1.0,0.37560099999996055
307,38,0.5,1.0,35.0,1,1.0,0.34880100000009406
308,38,0.5,0.0625,-35.0,1,0.0,0.4190009999997528
309,38,0.8,0.0625,-35.0,-1,1.0,0.519200999999839
310,38,0.5,1.0,-35.0,-1,1.0,0.42930100000012317
311,38,0.5,0.25,-35.0,1,0.0,1.909300999999914
312,38,0.5,0.25,-35.0,-1,1.0,0.6127010000000155
313,38,0.5,0.0,35.0,1,1.0,0.3658010000001468
314,38,0.5,0.125,35.0,1,1.0,0.3863010000000031
315,38,0.5,0.0,35.0,1,1.0,0.759300999999823
316,38,0.5,0.125,35.0,1,1.0,1.609700999999859
317,38,0.5,0.25,35.0,1,1.0,0.38580099999990125
318,38,0.5,1.0,-35.0,-1,1.0,0.4999009999999089
319,38,0.5,0.0625,-35.0,1,0.0,0.7496009999999842
320,38,0.5,0.25,35.0,1,1.0,0.6936009999999442
321,38,0.5,0.25,35.0,1,1.0,0.7599009999998998
322,38,0.5,1.0,35.0,1,1.0,0.4536009999997077
323,38,0.5,0.125,35.0,1,1.0,0.7535009999999147
324,38,0.5,0.25,-35.0,1,0.0,0.4003010000001268
325,38,0.5,0.0,35.0,1,1.0,4.513500999999906
326,38,0.5,0.125,-35.0,-1,1.0,0.9673009999999067
327,38,0.5,0.0625,35.0,-1,0.0,0.47410100000001876
328,38,0.7,0.0625,-35.0,-1,1.0,0.7439009999998234
329,38,0.5,1.0,-35.0,-1,1.0,0.5274010000000544
330,38,0.5,0.0625,35.0,-1,0.0,0.4975010000000566
331,38,0.5,0.0,-35.0,-1,1.0,0.59370100000001
332,38,0.5,1.0,35.0,1,1.0,0.48100099999987833
333,38,0.5,1.0,35.0,1,1.0,0.557501000000002
334,38,0.5,1.0,-35.0,-1,1.0,0.6345010000000002
335,38,0.5,0.0625,35.0,-1,0.0,0.498100999999906
336,38,0.5,0.0,35.0,1,1.0,1.7746010000000751
337,38,0.5,0.125,-35.0,1,0.0,0.5613009999999576
338,38,0.5,0.125,35.0,-1,0.0,2.4149010000001
339,38,0.5,0.125,35.0,-1,0.0,0.5550009999999475
340,38,0.5,0.25,35.0,0,0.0,60.27870099999973
341,38,0.5,0.0625,35.0,0,0.0,60.28300100000001
342,38,0.5,0.0,-35.0,-1,1.0,8.75710099999992
343,38,0.5,0.125,-35.0,0,0.0,60.27750100000003
344,38,0.5,0.125,35.0,1,1.0,0.9850010000000111
345,38,0.5,1.0,-35.0,-1,1.0,0.7952009999999063
346,38,0.5,0.125,-35.0,-1,1.0,1.0019009999998616
347,38,0.5,1.0,35.0,1,1.0,0.5585009999999784
348,38,0.5,0.125,-35.0,-1,1.0,0.5020010000000639
349,38,0.5,1.0,-35.0,-1,1.0,0.6186010000001261
350,38,0.5,1.0,-35.0,-1,1.0,0.40540099999998347
351,38,0.5,0.25,-35.0,-1,1.0,0.5587009999997008
352,38,0.5,1.0,-35.0,-1,1.0,0.39240099999983613
353,38,0.5,0.25,35.0,1,1.0,0.5986010000001443
354,38,0.5,0.25,35.0,1,1.0,0.6126010000000406
355,38,0.5,0.0625,-35.0,-1,1.0,0.5625009999998838
356,38,0.5,0.0625,-35.0,-1,1.0,0.36930100000017774
357,38,0.5,0.0,35.0,-1,0.0,0.6222010000001319
358,38,0.5,0.0625,35.0,1,1.0,0.6429010000006201
359,38,0.5,0.0,-35.0,1,0.0,0.5029010000002927
360,38,0.5,0.25,-35.0,-1,1.0,0.3896010000003116
361,38,0.5,0.0625,35.0,-1,0.0,0.5561010000001261
362,38,0.5,0.25,35.0,1,1.0,3.0399010000001
363,38,0.5,0.25,-35.0,-1,1.0,0.6593010000001414
364,38,0.5,0.125,35.0,1,1.0,0.503301000000647
365,38,0.5,0.0625,-35.0,1,0.0,0.45620099999996455
366,38,0.5,0.125,35.0,1,1.0,0.623501000000033
367,38,0.5,0.0,-35.0,-1,1.0,1.8833010000003014
368,38,0.5,0.125,-35.0,-1,1.0,0.5338010000000395
369,38,0.5,0.0625,-35.0,1,0.0,0.736601000000519
370,38,0.5,0.0625,-35.0,-1,1.0,0.8270009999996546
371,38,0.5,0.0,35.0,-1,0.0,0.553501000000324
372,38,0.5,0.0625,35.0,-1,0.0,0.6439010000003691
373,38,0.5,0.25,35.0,1,1.0,0.523801000000276
374,38,0.5,0.0,35.0,-1,0.0,0.8775010000003931
375,38,0.5,0.25,35.0,1,1.0,0.7805010000001857
376,38,0.5,0.0625,-35.0,-1,1.0,0.3708010000004833
377,38,0.5,0.25,35.0,1,1.0,0.5302010000004884
378,38,0.5,0.0,35.0,1,1.0,0.6944010000001981
379,38,0.5,1.0,35.0,1,1.0,0.36110099999996237
380,38,0.5,0.0625,35.0,-1,0.0,0.3579010000003109
381,38,0.5,0.0625,-35.0,-1,1.0,0.3712010000003829
382,38,0.5,1.0,-35.0,-1,1.0,0.5446010000005117
383,38,0.5,0.25,-35.0,-1,1.0,0.48780100000021775
384,38,0.5,0.0625,-35.0,-1,1.0,0.5281010000003334
385,38,0.5,0.125,-35.0,-1,1.0,0.5413010000002032
386,38,0.5,0.25,35.0,1,1.0,0.3451010000003407
387,38,0.5,0.25,35.0,-1,0.0,0.4347010000001319
388,38,0.3,0.25,35.0,1,1.0,0.9351010000000315
389,38,0.5,1.0,35.0,1,1.0,0.4985010000004877
390,38,0.5,0.0625,35.0,1,1.0,0.6086009999999078
391,38,0.5,1.0,-35.0,-1,1.0,0.548001000000113
392,38,0.5,1.0,-35.0,-1,1.0,0.45870100000047387
393,38,0.5,1.0,-35.0,-1,1.0,0.49180100000012317
394,38,0.5,0.125,35.0,-1,0.0,0.5189010000003691
395,38,0.4,0.125,35.0,-1,0.0,0.37190099999997983
396,38,0.5,1.0,35.0,1,1.0,0.3824009999998452
397,38,0.5,0.0625,-35.0,-1,1.0,1.105301000000054
398,38,0.5,1.0,-35.0,-1,1.0,0.4924010000004273
399,38,0.5,0.0,35.0,-1,0.0,0.6586010000000897
400,38,0.5,0.0625,-35.0,1,0.0,0.545900999999958
401,38,0.2,0.0625,35.0,1,1.0,0.9188010000007125
402,38,0.5,1.0,35.0,-1,0.0,0.5362009999998918
403,38,0.3,1.0,35.0,1,1.0,0.5762010000003102
404,38,0.5,1.0,35.0,1,1.0,0.3696010000003298
405,38,0.5,1.0,-35.0,-1,1.0,0.482401000000209
406,38,0.5,0.0625,-35.0,1,0.0,0.4697009999999864
407,38,0.5,0.0,-0.0,0,0.0,60.276500999999826
408,38,0.5,0.125,35.0,0,0.0,60.27710100000013
409,38,0.5,0.0625,35.0,1,1.0,7.2253010000004
410,38,0.5,0.0625,35.0,-1,0.0,0.8221010000006572
411,38,0.5,0.125,-35.0,-1,1.0,0.5850009999999202
412,38,0.5,1.0,35.0,1,1.0,0.5223010000004251
413,38,0.5,0.125,-35.0,-1,1.0,1.5286009999999806
414,38,0.5,1.0,-35.0,-1,1.0,0.44900100000040766
415,38,0.5,1.0,-35.0,-1,1.0,0.43560100000013335
416,38,0.5,0.125,35.0,-1,0.0,1.2223009999997885
417,38,0.5,0.0625,35.0,1,1.0,0.8126010000000861
418,38,0.5,0.25,-35.0,-1,1.0,0.485501000000113
419,38,0.5,0.125,-35.0,-1,1.0,0.5096010000002025
420,38,0.5,0.125,-35.0,-1,1.0,0.5726009999998496
421,38,0.5,0.25,35.0,1,1.0,0.3631009999999151
422,38,0.5,0.25,35.0,1,1.0,0.39910100000042803
423,38,0.5,1.0,35.0,1,1.0,0.37300100000038583
424,38,0.5,0.125,-35.0,-1,1.0,0.6992010000003575
425,38,0.5,0.0625,-35.0,-1,1.0,0.5397010000001501
426,38,0.5,0.25,35.0,1,1.0,0.9692009999998845
427,38,0.5,0.25,35.0,1,1.0,0.6466010000003735
428,38,0.5,1.0,35.0,1,1.0,0.4293010000005779
429,38,0.5,1.0,-35.0,-1,1.0,0.35670100000015736
430,38,0.5,0.0,35.0,1,1.0,0.37640100000044185
431,38,0.5,0.25,35.0,1,1.0,0.5869010000001254
432,38,0.5,0.125,-35.0,-1,1.0,0.5934010000000853
433,38,0.5,1.0,-35.0,-1,1.0,0.37370099999998274
434,38,0.5,0.0625,-35.0,-1,1.0,0.42980100000022503
435,38,0.5,0.0625,35.0,1,1.0,0.5903010000006361
436,38,0.5,0.25,-35.0,-1,1.0,0.5099010000003545
437,38,0.5,0.125,-35.0,-1,1.0,0.46720100000038656
438,38,0.5,0.0625,-35.0,-1,1.0,0.40330100000028324
439,38,0.5,0.25,35.0,1,1.0,0.6174010000004273
440,38,0.5,0.125,-35.0,1,0.0,0.6973010000001523
441,38,0.5,0.125,-35.0,-1,1.0,0.47770100000025195
442,38,0.5,0.125,35.0,-1,0.0,0.5135010000003604
443,38,0.5,0.25,-35.0,-1,1.0,0.4912010000007285
444,38,0.5,1.0,35.0,1,1.0,0.5237010000000737
445,38,0.5,0.0625,35.0,-1,0.0,0.6543010000000322
446,38,0.3,0.0625,-35.0,1,0.0,0.5445009999998547
447,38,0.5,1.0,-35.0,-1,1.0,0.4707010000001901
448,38,0.5,0.0625,-35.0,-1,1.0,0.5647010000006958
449,38,0.5,0.25,-35.0,-1,1.0,0.5079010000004018
450,38,0.5,0.25,35.0,-1,0.0,0.5117010000003575
451,38,0.5,0.125,-35.0,-1,1.0,1.1550010000000839
452,38,0.5,0.0,35.0,-1,0.0,1.0617010000000846
453,38,0.5,0.0625,35.0,-1,0.0,0.5318010000000868
454,38,0.5,0.0625,-35.0,-1,1.0,0.5086009999999987
455,38,0.5,0.125,-35.0,-1,1.0,0.5916010000005372
456,38,0.5,0.0,-35.0,-1,1.0,0.4554009999997106
457,38,0.5,0.0625,-35.0,-1,1.0,0.40830099999993763
458,38,0.5,0.25,35.0,1,1.0,0.3488010000005488
459,38,0.5,0.25,35.0,1,1.0,0.6885010000005423
460,38,0.5,0.25,-35.0,-1,1.0,0.8455010000002403
461,38,0.5,0.125,-35.0,-1,1.0,0.4958010000004833
462,38,0.5,0.0625,-35.0,1,0.0,0.7090010000001712
463,38,0.3,0.0625,35.0,-1,0.0,0.8250010000001566
464,38,0.5,1.0,35.0,1,1.0,0.5292010000002847
465,38,0.5,0.25,35.0,1,1.0,0.45200100000010934
466,38,0.5,1.0,-35.0,-1,1.0,0.7494010000000344
467,38,0.5,0.25,-35.0,-1,1.0,0.48210100000005696
468,38,0.5,1.0,-35.0,-1,1.0,0.5830009999999675
469,38,0.5,0.125,-35.0,-1,1.0,0.5861009999998714
470,38,0.5,1.0,35.0,1,1.0,0.3663010000000213
471,38,0.5,1.0,35.0,1,1.0,0.7259000000003653
472,38,0.5,0.125,35.0,1,1.0,0.4699010000003909
473,38,0.5,0.25,-35.0,-1,1.0,0.46320100000048114
474,38,0.5,1.0,35.0,1,1.0,0.45260099999995873
475,38,0.5,1.0,35.0,1,1.0,0.6699009999997543
476,38,0.5,0.25,35.0,1,1.0,0.6397010000000591
477,38,0.5,0.0,-35.0,-1,1.0,1.5569009999999253
478,38,0.5,1.0,35.0,1,1.0,0.3633010000003196
479,38,0.5,0.0625,35.0,1,1.0,0.6568010000000868
480,38,0.5,0.125,-35.0,-1,1.0,0.6133010000003196
481,38,0.5,0.125,-35.0,1,0.0,0.40690100000028906
482,38,0.5,0.0625,-35.0,-1,1.0,0.5103010000002541
483,38,0.5,0.0625,-35.0,-1,1.0,0.5939010000001872
484,38,0.5,0.0,35.0,-1,0.0,0.3733010000005379
485,38,0.5,0.0625,-35.0,-1,1.0,0.5205010000004222
486,38,0.5,0.0,-35.0,-1,1.0,0.49370100000032835
487,38,0.5,0.25,-35.0,-1,1.0,0.450601000000006
488,38,0.5,0.0625,35.0,1,1.0,0.7839010000002418
489,38,0.5,0.0,35.0,-1,0.0,0.8542010000001028
490,38,0.5,0.0625,35.0,1,1.0,7.967200999999932
491,38,0.5,1.0,35.0,1,1.0,0.5311010000000351
492,38,0.5,0.125,-35.0,-1,1.0,0.7547009999998409
493,38,0.5,0.0625,35.0,-1,0.0,0.9013010000003305
494,38,0.5,0.25,35.0,-1,0.0,0.7678009999999631
495,38,0.3,0.25,-35.0,0,0.0,60.28160100000014
496,38,0.5,1.0,35.0,1,1.0,4.996201000000383
497,38,0.5,0.0625,-35.0,0,0.0,60.27540100000033
498,38,0.6,0.0625,35.0,0,0.0,60.28010099999983
499,38,0.5,1.0,-35.0,-1,1.0,0.7842009999999391
500,38,0.5,0.25,35.0,1,1.0,0.5479009999999107
501,38,0.5,1.0,35.0,1,1.0,0.3849009999998998
502,38,0.5,0.25,-35.0,-1,1.0,0.7144010000006347
503,38,0.5,0.25,35.0,-1,0.0,0.9453010000001996
504,38,0.5,0.125,35.0,1,1.0,1.6182010000002265
505,38,0.5,0.0625,35.0,-1,0.0,5.805401000000529
506,38,0.5,0.0,35.0,1,1.0,3.395501000000422
507,38,0.5,0.0,35.0,1,1.0,1.1991010000001552
508,38,0.5,0.0625,-35.0,1,0.0,3.4151010000005044
509,38,0.5,0.125,-35.0,1,0.0,5.492701000000125
510,38,0.7,0.125,35.0,1,1.0,20.55900100000008
511,38,0.5,1.0,-35.0,-1,1.0,5.750301000000491
512,38,0.5,0.0625,35.0,1,1.0,34.27600100000018
513,38,0.5,0.125,-35.0,1,0.0,24.910801000000447
514,38,0.5,0.25,35.0,1,1.0,17.367801000000327
515,38,0.5,0.0,-35.0,-1,1.0,2.364700999999968
516,38,0.5,0.0,-35.0,-1,1.0,16.718001000000186
517,38,0.5,0.25,35.0,1,1.0,0.8186010000003989
518,38,0.5,0.125,-35.0,-1,1.0,0.6419010000004164
519,38,0.5,0.0625,-35.0,-1,1.0,0.49200100000007296
520,38,0.5,0.0,35.0,-1,0.0,0.5820010000002185
521,38,0.5,0.125,35.0,1,1.0,1.048801000000367
522,38,0.5,0.0625,-35.0,-1,1.0,0.6017010000000482
523,38,0.5,0.125,-35.0,-1,1.0,0.3556010000002061
524,38,0.5,0.0,-35.0,-1,1.0,0.6322010000003502
525,38,0.5,0.0625,35.0,1,1.0,0.3756010000001879
526,38,0.5,0.25,-35.0,-1,1.0,0.49550100000033126
527,38,0.5,0.125,-35.0,1,0.0,4.462900999999874
528,38,0.3,0.125,35.0,1,1.0,0.6153010000002723
529,38,0.5,1.0,35.0,1,1.0,0.42280100000061793
530,38,0.5,0.0,-35.0,1,0.0,2.4594010000005255
1,39,0.5,1.0,35.0,1,1.0,0.33709999999999996
2,39,0.5,0.0,35.0,-1,0.0,0.22489999999999988
3,39,0.5,0.0625,-35.0,-1,1.0,0.3070000000000004
4,39,0.5,0.0625,35.0,1,1.0,0.4751000000000012
5,39,0.5,0.125,35.0,1,1.0,0.2704999999999984
6,39,0.5,0.0,35.0,1,1.0,0.6260999999999974
7,39,0.5,0.125,-35.0,-1,1.0,0.5795999999999992
8,39,0.5,0.0,-35.0,1,0.0,0.7482999999999969
9,39,0.7,0.0,-35.0,1,0.0,3.6456000000000017
10,39,0.5,1.0,-35.0,-1,1.0,0.24969999999999715
11,39,0.5,0.125,-35.0,-1,1.0,0.22230000000000416
12,39,0.5,0.125,-35.0,-1,1.0,0.2552000000000021
13,39,0.5,0.125,35.0,1,1.0,0.43889999999999674
14,39,0.5,0.0625,-35.0,-1,1.0,0.3078999999999965
15,39,0.5,0.25,35.0,1,1.0,0.27299999999999613
16,39,0.5,0.125,35.0,1,1.0,0.37760000000000105
17,39,0.5,1.0,35.0,1,1.0,0.27429999999999666
18,39,0.5,0.0625,35.0,-1,0.0,0.25769900000000234
19,39,0.5,0.0625,-35.0,-1,1.0,0.23520000000000607
20,39,0.5,0.125,-35.0,-1,1.0,0.28640000000000043
21,39,0.5,0.25,35.0,1,1.0,0.29579999999999984
22,39,0.5,0.0,-35.0,-1,1.0,0.40850000000000364
23,39,0.5,0.125,-35.0,-1,1.0,0.2874000000000052
24,39,0.5,0.125,35.0,1,1.0,0.3719999999999999
25,39,0.5,0.0625,-35.0,-1,1.0,0.30160000000002185
26,39,0.5,0.25,-35.0,-1,1.0,0.23599999999999
27,39,0.5,0.25,-35.0,-1,1.0,0.24090000000001055
28,39,0.5,0.0625,35.0,-1,0.0,0.13710000000001799
29,39,0.5,0.0625,-35.0,-1,1.0,0.19640000000001123
30,39,0.5,0.25,35.0,1,1.0,0.30639999999999645
31,39,0.5,0.25,35.0,1,1.0,0.2569000000000159
32,39,0.5,0.25,-35.0,-1,1.0,0.24170000000000869
33,39,0.5,0.25,35.0,1,1.0,0.4194999999999993
34,39,0.5,0.0625,35.0,-1,0.0,0.3079000000000036
35,39,0.5,0.0,35.0,-1,0.0,0.23220000000000596
36,39,0.5,0.125,35.0,1,1.0,0.3833000000000055
37,39,0.5,0.25,-35.0,1,0.0,0.4013999999999953
38,39,0.5,0.0,-35.0,-1,1.0,0.29170000000000584
39,39,0.5,0.25,35.0,-1,0.0,0.3149999999999977
40,39,0.5,0.25,-35.0,-1,1.0,0.43430000000000746
41,39,0.5,1.0,35.0,1,1.0,0.24229999999997176
42,39,0.5,1.0,-35.0,-1,1.0,0.2909999999999968
43,39,0.5,0.25,-35.0,-1,1.0,0.24439999999998463
44,39,0.5,0.0,-35.0,-1,1.0,0.2225999999999999
45,39,0.5,0.0,-35.0,-1,1.0,0.5473999999999819
46,39,0.5,1.0,35.0,1,1.0,0.2250999999999692
47,39,0.5,0.25,35.0,1,1.0,0.2874999999999659
48,39,0.5,0.0625,35.0,-1,0.0,0.24219999999996844
49,39,0.5,0.125,-35.0,-1,1.0,0.24939999999998008
50,39,0.5,0.125,-35.0,1,0.0,0.37479999999999336
51,39,0.5,0.0,-35.0,-1,1.0,0.2680000000000007
52,39,0.5,0.0625,35.0,-1,0.0,0.32219999999998095
53,39,0.3,0.0625,35.0,-1,0.0,0.2500999999999749
54,39,0.5,1.0,35.0,1,1.0,0.28469999999998663
55,39,0.5,0.0,-35.0,-1,1.0,0.3422999999999661
56,39,0.5,0.0,-35.0,1,0.0,0.39349999999998886
57,39,0.4,0.0,35.0,-1,0.0,0.3219999999999743
58,39,0.5,1.0,35.0,1,1.0,0.28589999999999804
59,39,0.5,1.0,-35.0,-1,1.0,0.27709999999999013
60,39,0.5,1.0,35.0,1,1.0,0.2512999999999863
61,39,0.5,0.0,-35.0,1,0.0,0.32200000000000273
62,39,0.5,0.125,-35.0,-1,1.0,0.26909999999998035
63,39,0.5,0.25,-35.0,-1,1.0,0.2745000000000175
64,39,0.5,0.125,35.0,-1,0.0,0.4119999999999777
65,39,0.5,0.0625,-35.0,-1,1.0,0.28180000000000405
66,39,0.5,0.125,35.0,-1,0.0,0.26370000000000005
67,39,0.5,0.0625,35.0,-1,0.0,0.3458999999999719
68,39,0.5,0.25,35.0,-1,0.0,0.25950000000000273
69,39,0.5,0.125,35.0,-1,0.0,0.26499999999998636
70,39,0.5,0.125,-35.0,-1,1.0,0.3220999999999776
71,39,0.5,0.125,35.0,1,1.0,0.5819989999999677
72,39,0.5,0.0625,35.0,-1,0.0,0.6324999999999932
73,39,0.5,0.25,35.0,1,1.0,0.2782999999999731
74,39,0.5,0.0625,35.0,-1,0.0,4.240799999999979
75,39,0.5,0.25,-35.0,-1,1.0,0.2541999999999689
76,39,0.5,0.125,35.0,-1,0.0,0.37590000000000146
77,39,0.5,0.0625,35.0,-1,0.0,0.2640999999999849
78,39,0.5,0.125,-35.0,-1,1.0,0.2670999999999708
79,39,0.5,0.125,-35.0,-1,1.0,0.24500000000000455
80,39,0.5,0.0625,35.0,-1,0.0,0.5639999999999645
81,39,0.5,0.0625,35.0,-1,0.0,0.3187000000000353
82,39,0.5,0.25,-35.0,-1,1.0,0.2666999999999575
83,39,0.5,1.0,35.0,1,1.0,0.282799999999952
84,39,0.5,0.25,35.0,1,1.0,0.29980000000000473
85,39,0.5,1.0,-35.0,-1,1.0,0.2633999999999901
86,39,0.5,0.0625,35.0,1,1.0,0.3573999999999842
87,39,0.5,0.125,-35.0,-1,1.0,0.29769999999996344
88,39,0.5,0.0,-35.0,1,0.0,0.3698999999999728
89,39,0.5,0.0,35.0,-1,0.0,0.4157000000000153
90,39,0.5,0.0625,35.0,-1,0.0,0.2859999999999445
91,39,0.5,0.25,-35.0,-1,1.0,0.301400000000001
92,39,0.5,0.125,35.0,1,1.0,0.5862000000000194
93,39,0.5,0.0,35.0,-1,0.0,0.2703000000000202
94,39,0.5,0.125,35.0,1,1.0,0.3435999999999808
95,39,0.5,0.25,-35.0,-1,1.0,0.31819999999999027
96,39,0.5,0.125,-35.0,-1,1.0,0.27199999999999136
97,39,0.5,1.0,35.0,1,1.0,0.2533999999999992
98,39,0.5,0.0,35.0,-1,0.0,0.7384000000000128
99,39,0.3,0.0,-35.0,1,0.0,0.28350000000000364
100,39,0.5,1.0,-35.0,-1,1.0,0.34089999999997644
101,39,0.5,0.0625,35.0,1,1.0,1.0358999999999696
102,39,0.5,0.0,35.0,-1,0.0,0.26200000000000045
103,39,0.5,0.125,35.0,1,1.0,0.43079999999997654
104,39,0.5,1.0,-35.0,-1,1.0,0.29949999999996635
105,39,0.5,0.125,-35.0,-1,1.0,0.28719999999998436
106,39,0.5,0.0625,35.0,1,1.0,0.348700000000008
107,39,0.5,0.0625,-35.0,-1,1.0,0.29249999999996135
108,39,0.5,0.25,35.0,1,1.0,0.264699999999948
109,39,0.5,0.0625,35.0,-1,0.0,0.341199999999958
110,39,0.4,0.0625,-35.0,-1,1.0,0.32140000000003965
111,39,0.5,1.0,35.0,1,1.0,0.22670000000005075
112,39,0.5,0.0625,-35.0,1,0.0,0.30520000000001346
113,39,0.5,0.25,-35.0,-1,1.0,0.3640999999999508
114,39,0.5,0.125,35.0,1,1.0,0.44659999999998945
115,39,0.5,1.0,-35.0,-1,1.0,0.294399999999996
116,39,0.5,1.0,35.0,1,1.0,0.27609999999998536
117,39,0.5,0.25,35.0,1,1.0,0.3429999999999609
118,39,0.5,0.25,35.0,1,1.0,0.24449999999995953
119,39,0.5,0.25,-35.0,-1,1.0,0.27750000000003183
120,39,0.5,0.0625,-35.0,-1,1.0,0.3118999999999801
121,39,0.5,0.125,35.0,-1,0.0,0.283299999999997
122,39,0.5,0.125,35.0,1,1.0,0.2636999999999716
123,39,0.5,1.0,-35.0,-1,1.0,0.22449999999997772
124,39,0.5,1.0,-35.0,-1,1.0,0.2277000000000271
125,39,0.5,0.125,35.0,-1,0.0,0.5838999999999714
126,39,0.5,0.125,35.0,-1,0.0,0.2400000000000091
127,39,0.5,0.25,35.0,1,1.0,0.2566999999999666
128,39,0.5,0.0625,-35.0,-1,1.0,0.2893999999999437
129,39,0.5,0.0,35.0,-1,0.0,0.254099999999994
130,39,0.5,0.25,-35.0,-1,1.0,0.28300000000001546
131,39,0.5,0.25,35.0,1,1.0,0.304300000000012
132,39,0.5,0.0625,35.0,1,1.0,0.25329999999996744
133,39,0.5,1.0,-35.0,1,0.0,0.16919999999993252
134,39,0.5,0.0625,-35.0,-1,1.0,0.6447000000000003
135,39,0.5,0.0,-35.0,1,0.0,0.3177000000000021
136,39,0.5,0.0,-35.0,1,0.0,0.28429999999997335
137,39,0.5,1.0,35.0,1,1.0,0.25619999999997844
138,39,0.5,0.125,-35.0,-1,1.0,0.30999999999994543
139,39,0.5,1.0,-35.0,-1,1.0,0.2592999999999961
140,39,0.5,0.125,35.0,1,1.0,0.3280000000000314
141,39,0.5,1.0,-35.0,-1,1.0,0.2674999999999841
142,39,0.5,0.25,-35.0,-1,1.0,0.24660000000000082
143,39,0.5,0.125,-35.0,-1,1.0,0.26789999999999736
144,39,0.5,0.25,-35.0,-1,1.0,0.4087000000000103
145,39,0.5,0.0625,35.0,-1,0.0,0.2616999999999621
146,39,0.5,0.25,35.0,1,1.0,0.29860000000002174
147,39,0.5,0.0,35.0,-1,0.0,0.24149999999997362
148,39,0.5,0.0,35.0,1,1.0,0.2477000000000089
149,39,0.5,0.125,-35.0,-1,1.0,0.3184999999999718
150,39,0.5,0.125,-35.0,-1,1.0,0.2995000000000232
151,39,0.5,0.0,-35.0,-1,1.0,0.8105000000000473
152,39,0.5,0.125,35.0,1,1.0,0.33320000000003347
153,39,0.5,1.0,35.0,1,1.0,0.24289999999996326
154,39,0.5,0.125,-35.0,-1,1.0,0.29740000000003874
155,39,0.5,0.25,35.0,1,1.0,0.27530000000012933
156,39,0.5,0.25,35.0,1,1.0,0.3227000000001681
157,39,0.5,0.0625,-35.0,-1,1.0,0.2862999999999829
158,39,0.5,0.25,35.0,1,1.0,0.25300000000015643
159,39,0.5,0.25,-35.0,-1,1.0,0.29909999999995307
160,39,0.5,0.125,35.0,1,1.0,0.40399999999999636
161,39,0.5,1.0,-35.0,-1,1.0,0.10180000000002565
162,39,0.5,1.0,-35.0,-1,1.0,0.23940000000004602
163,39,0.5,0.25,35.0,1,1.0,0.2679000000000542
164,39,0.5,0.0,-35.0,-1,1.0,0.25950000000000273
165,39,0.5,0.125,-35.0,-1,1.0,0.33100000000013097
166,39,0.5,0.25,35.0,1,1.0,0.35540000000014516
167,39,0.5,0.0,35.0,-1,0.0,0.31900000000007367
168,39,0.5,0.25,35.0,1,1.0,0.24330000000009022
169,39,0.5,1.0,-35.0,-1,1.0,0.25500000000010914
170,39,0.5,0.25,35.0,1,1.0,0.2920000000001437
171,39,0.5,0.25,35.0,1,1.0,0.37570000000005166
172,39,0.5,0.0,35.0,-1,0.0,0.48050000000000637
173,39,0.5,0.25,-35.0,1,0.0,0.20320000000003802
174,39,0.5,0.25,35.0,1,1.0,0.2644999999999982
175,39,0.5,1.0,-35.0,-1,1.0,0.31900000000007367
176,39,0.5,0.0625,35.0,1,1.0,0.27740000000005693
177,39,0.5,0.125,35.0,1,1.0,0.315900000000056
178,39,0.5,0.25,35.0,1,1.0,0.2419999999999618
179,39,0.5,1.0,35.0,1,1.0,0.22080000000005384
180,39,0.5,0.25,35.0,1,1.0,0.2625000000000455
181,39,0.5,1.0,35.0,1,1.0,0.23159999999995762
182,39,0.5,0.125,35.0,1,1.0,0.24759999999992033
183,39,0.5,0.25,-35.0,1,0.0,0.4375000000001137
184,39,0.5,0.0,-35.0,1,0.0,0.31300000000010186
185,39,0.5,0.125,35.0,1,1.0,0.2424990000000662
186,39,0.5,0.125,35.0,-1,0.0,0.22839999999996508
187,39,0.5,0.125,-35.0,-1,1.0,0.23630000000002838
188,39,0.5,0.125,-35.0,-1,1.0,0.3654000000000224
189,39,0.5,0.25,35.0,1,1.0,0.2884000000000242
190,39,0.5,0.125,35.0,-1,0.0,0.4796000000001186
191,39,0.6,0.125,-35.0,-1,1.0,0.3410989999999856
192,39,0.5,1.0,-35.0,-1,1.0,0.2881000000000995
193,39,0.5,0.25,35.0,1,1.0,0.3084000000001197
194,39,0.5,0.25,35.0,1,1.0,0.42860000000007403
195,39,0.5,1.0,35.0,1,1.0,0.244199999999978
196,39,0.5,0.0625,-35.0,1,0.0,0.28890000000001237
197,39,0.5,0.0625,35.0,-1,0.0,0.2998999999999796
198,39,0.5,1.0,-35.0,-1,1.0,0.2581000000000131
199,39,0.5,1.0,35.0,1,1.0,0.42190000000005057
200,39,0.5,0.0625,35.0,1,1.0,0.3428000000000111
201,39,0.5,1.0,35.0,1,1.0,0.28890000000001237
202,39,0.5,0.0625,35.0,1,1.0,0.28160000000002583
203,39,0.5,0.0,-35.0,-1,1.0,0.2984000000001288
204,39,0.5,0.125,-35.0,-1,1.0,0.2617000000000189
205,39,0.5,0.125,35.0,-1,0.0,0.936200000000099
206,39,0.5,0.25,-35.0,-1,1.0,0.44420000000002346
207,39,0.5,0.0,35.0,-1,0.0,0.26329999999995835
208,39,0.5,0.125,35.0,1,1.0,0.33530000000018845
209,39,0.5,0.0625,35.0,-1,0.0,0.2617999999999938
210,39,0.5,0.125,35.0,-1,0.0,0.28750000000002274
211,39,0.5,0.0,35.0,-1,0.0,1.0090000000000146
212,39,0.5,0.125,-35.0,-1,1.0,0.2776000000001204
213,39,0.5,0.0625,-35.0,-1,1.0,0.27909999999997126
214,39,0.5,0.125,-35.0,-1,1.0,0.2580000000000382
215,39,0.5,1.0,-35.0,-1,1.0,0.2458000000000311
216,39,0.5,0.0,35.0,-1,0.0,0.31399999999996453
217,39,0.5,0.25,35.0,1,1.0,0.2860000000000582
218,39,0.5,0.0,-35.0,1,0.0,1.9247000000000298
219,39,0.5,0.0625,-35.0,-1,1.0,1.737100000000055
220,39,0.5,1.0,-35.0,-1,1.0,0.26880000000005566
221,39,0.5,0.25,-35.0,-1,1.0,0.27920000000005984
222,39,0.5,0.125,35.0,-1,0.0,0.273900000000026
223,39,0.5,0.125,-35.0,-1,1.0,0.2603000000000293
224,39,0.5,0.125,-35.0,-1,1.0,0.3624000000000933
225,39,0.5,0.0625,-35.0,-1,1.0,0.279700000000048
226,39,0.5,0.25,35.0,1,1.0,0.25660000000004857
227,39,0.5,1.0,-35.0,-1,1.0,0.26050000000009277
228,39,0.5,0.125,-35.0,-1,1.0,0.25490000000013424
229,39,0.5,1.0,-35.0,-1,1.0,0.25670000000013715
230,39,0.5,0.0625,35.0,-1,0.0,0.26480000000003656
231,39,0.5,0.0,-35.0,1,0.0,0.2665000000000646
232,39,0.5,0.0625,35.0,-1,0.0,0.27350000000001273
233,39,0.5,0.25,-35.0,-1,1.0,0.314899999999966
234,39,0.5,0.0,35.0,-1,0.0,0.2987000000000535
235,39,0.5,0.0,35.0,-1,0.0,0.3326000000000704
236,39,0.5,0.0625,35.0,-1,0.0,11.038800000000037
237,39,0.5,0.0,-35.0,1,0.0,0.5852000000000999
238,39,0.5,0.25,-35.0,-1,1.0,0.5322000000001026
239,39,0.5,0.0625,-35.0,-1,1.0,0.27189900000007583
240,39,0.5,1.0,-35.0,-1,1.0,0.24460000000010496
241,39,0.5,0.25,35.0,1,1.0,0.23029999999994288
242,39,0.5,0.125,35.0,-1,0.0,0.23020000000008167
243,39,0.5,0.125,35.0,1,1.0,1.197300000000041
244,39,0.5,0.25,-35.0,-1,1.0,0.26919900000007146
245,39,0.5,0.125,-35.0,-1,1.0,0.2777000000000953
246,39,0.5,0.0,35.0,-1,0.0,0.3244000000000824
247,39,0.5,0.25,-35.0,-1,1.0,0.26090000000010605
248,39,0.5,0.0625,35.0,-1,0.0,0.39340000000015607
249,39,0.2,0.0625,35.0,-1,0.0,0.29310000000009495
250,39,0.5,1.0,35.0,1,1.0,0.27700000000004366
251,39,0.5,1.0,-35.0,-1,1.0,0.32570000000009713
252,39,0.5,0.25,-35.0,-1,1.0,0.3874000000000706
253,39,0.5,1.0,-35.0,-1,1.0,0.2545000000000073
254,39,0.5,1.0,-35.0,-1,1.0,0.2701000000000704
255,39,0.5,0.0,35.0,-1,0.0,0.2740000000001146
256,39,0.1,0.0,35.0,-1,0.0,0.32730000000003656
257,39,0.5,1.0,-35.0,-1,1.0,0.28719999999998436
258,39,0.5,1.0,-35.0,-1,1.0,0.2558999999999969
259,39,0.5,1.0,-35.0,-1,1.0,0.26900000000011914
260,39,0.5,0.0,35.0,-1,0.0,0.5332000000000789
261,39,0.5,0.125,35.0,1,1.0,0.3198000000001002
262,39,0.5,0.0625,-35.0,-1,1.0,0.2617000000001326
263,39,0.5,0.25,35.0,1,1.0,0.2704000000001088
264,39,0.5,0.0625,-35.0,1,0.0,0.25240000000007967
265,39,0.5,0.125,-35.0,-1,1.0,0.2982000000000653
266,39,0.5,0.0,35.0,-1,0.0,0.5202000000000453
267,39,0.5,0.0625,-35.0,-1,1.0,0.24890000000004875
268,39,0.5,1.0,35.0,1,1.0,0.2904000000000906
269,39,0.5,1.0,35.0,1,1.0,0.23640000000011696
270,39,0.5,0.0,-35.0,-1,1.0,0.5523000000000593
271,39,0.5,0.0,-35.0,1,0.0,0.20090000000004693
272,39,0.5,0.25,-35.0,-1,1.0,0.24610000000006949
273,39,0.5,1.0,-35.0,-1,1.0,0.2504999999999882
274,39,0.5,0.125,-35.0,-1,1.0,0.2923000000000684
275,39,0.5,0.125,35.0,1,1.0,0.31500000000005457
276,39,0.5,0.0,35.0,-1,0.0,0.35770000000013624
277,39,0.5,0.125,35.0,1,1.0,0.30409900000006473
278,39,0.5,1.0,-35.0,-1,1.0,0.25729999999998654
279,39,0.5,0.0625,-35.0,-1,1.0,0.30759999999997945
280,39,0.5,0.0625,35.0,1,1.0,12.003800000000183
281,39,0.5,1.0,-35.0,-1,1.0,0.22400000000004638
282,39,0.5,1.0,-35.0,-1,1.0,0.25110000000006494
283,39,0.5,0.0625,-35.0,-1,1.0,0.2742000000001781
284,39,0.5,0.25,35.0,1,1.0,0.3812000000000353
285,39,0.5,1.0,-35.0,-1,1.0,0.22469999999998436
286,39,0.5,0.25,35.0,1,1.0,0.24120000000004893
287,39,0.5,1.0,-35.0,-1,1.0,0.2478000000000975
288,39,0.5,0.0,-35.0,-1,1.0,0.26789999999982683
289,39,0.5,0.25,-35.0,-1,1.0,0.2516000000000531
290,39,0.5,0.25,-35.0,-1,1.0,0.24479999999994106
291,39,0.5,0.125,35.0,1,1.0,0.28140000000007603
292,39,0.5,0.0625,35.0,-1,0.0,0.28160000000002583
293,39,0.5,0.125,35.0,-1,0.0,0.15469999999982065
294,39,0.5,0.25,-35.0,-1,1.0,0.4351999999998952
295,39,0.5,0.125,-35.0,-1,1.0,0.22489999999993415
296,39,0.5,1.0,-35.0,-1,1.0,0.2584999999996853
297,39,0.5,1.0,-35.0,-1,1.0,0.2919000000001688
298,39,0.5,0.0,35.0,-1,0.0,0.2819999999999254
299,39,0.5,0.125,-35.0,-1,1.0,0.26520000000004984
300,39,0.5,0.0,35.0,-1,0.0,0.43230000000016844
301,39,0.5,0.0,35.0,-1,0.0,0.3289999999997235
302,39,0.5,0.125,35.0,1,1.0,0.302199999999857
303,39,0.5,0.25,35.0,1,1.0,0.2522999999998774
304,39,0.5,1.0,-35.0,-1,1.0,0.25250000000005457
305,39,0.5,0.125,35.0,1,1.0,0.9524999999998727
306,39,0.5,1.0,35.0,1,1.0,0.22249999999985448
307,39,0.5,1.0,35.0,1,1.0,0.2255999999999858
308,39,0.5,0.25,-35.0,-1,1.0,0.2459999999998672
309,39,0.5,1.0,35.0,1,1.0,0.21910000000002583
310,39,0.5,0.125,35.0,-1,0.0,0.7026999999998225
311,39,0.6,0.125,-35.0,1,0.0,5.399199999999837
312,39,0.5,1.0,35.0,1,1.0,0.2762999999997646
313,39,0.5,0.0,-35.0,-1,1.0,5.952799999999797
314,39,0.5,0.0625,-35.0,-1,1.0,0.46319999999991524
315,39,0.5,0.25,35.0,1,1.0,0.4098989999999958
316,39,0.5,0.0625,-35.0,-1,1.0,0.28999999999973625
317,39,0.5,0.25,35.0,1,1.0,0.2763999999997395
318,39,0.5,0.0625,-35.0,-1,1.0,0.49349999999981264
319,39,0.5,0.125,-35.0,-1,1.0,0.2664999999997235
320,39,0.5,1.0,35.0,1,1.0,0.23699999999985266
321,39,0.5,0.0625,-35.0,-1,1.0,0.2602999999999156
322,39,0.5,0.125,-35.0,-1,1.0,0.3468999999997777
323,39,0.5,0.0625,35.0,-1,0.0,0.3005999999998039
324,39,0.5,0.125,-35.0,-1,1.0,0.24709999999981846
325,39,0.5,1.0,-35.0,-1,1.0,0.23049999999989268
326,39,0.5,0.0,-35.0,-1,1.0,0.4205000000001746
327,39,0.5,1.0,-35.0,-1,1.0,0.24359999999978754
328,39,0.5,0.125,35.0,-1,0.0,0.11410000000000764
329,39,0.5,0.0625,-35.0,-1,1.0,0.2808999999997468
330,39,0.5,0.0625,35.0,-1,0.0,0.19069999999987886
331,39,0.5,0.0625,-35.0,-1,1.0,0.5907999999999447
332,39,0.5,0.125,35.0,-1,0.0,0.2240999999999076
333,39,0.5,0.0625,35.0,-1,0.0,0.260899999999765
334,39,0.5,0.0625,35.0,-1,0.0,0.3808999999998832
335,39,0.5,0.125,-35.0,-1,1.0,0.3112999999998465
336,39,0.5,0.25,35.0,1,1.0,0.32120000000008986
337,39,0.5,0.25,35.0,1,1.0,0.3409999999998945
338,39,0.5,0.0,35.0,-1,0.0,0.5679999999999836
339,39,0.5,0.25,35.0,1,1.0,0.3045999999999367
340,39,0.5,1.0,35.0,1,1.0,0.3446999999998752
341,39,0.5,0.0625,35.0,1,1.0,0.5113000000001193
342,39,0.5,0.25,35.0,1,1.0,0.5949000000000524
343,39,0.5,0.25,-35.0,-1,1.0,0.42460000000005493
344,39,0.5,0.0625,-35.0,-1,1.0,0.2782999999999447
345,39,0.5,0.25,-35.0,-1,1.0,0.21509999999989304
346,39,0.5,0.0625,35.0,-1,0.0,0.29179999999996653
347,39,0.5,0.25,-35.0,-1,1.0,0.3048999999998614
348,39,0.5,1.0,35.0,1,1.0,0.2884999999998854
349,39,0.5,0.125,-35.0,-1,1.0,0.27520000000004075
350,39,0.5,0.25,-35.0,-1,1.0,0.2885999999998603
351,39,0.5,0.0625,35.0,-1,0.0,0.2317000000000462
352,39,0.5,0.0625,-35.0,-1,1.0,0.4353000000000975
353,39,0.5,1.0,35.0,1,1.0,0.4455000000000382
354,39,0.5,0.0625,-35.0,1,0.0,0.6652999999998883
355,39,0.5,0.0625,-35.0,-1,1.0,0.32239999999978863
356,39,0.5,0.0625,35.0,-1,0.0,0.2923000000000684
357,39,0.5,0.0625,35.0,-1,0.0,0.4091999999998279
358,39,0.5,0.125,35.0,-1,0.0,0.28929999999991196
359,39,0.5,0.0625,35.0,-1,0.0,1.1223999999997432
360,39,0.5,0.25,-35.0,-1,1.0,0.3529999999998381
361,39,0.5,0.0625,-35.0,-1,1.0,0.31949999999983447
362,39,0.5,0.0,-35.0,1,0.0,9.342799999999897
363,39,0.5,0.0625,-35.0,-1,1.0,0.9659999999998945
364,39,0.5,0.125,35.0,1,1.0,0.28619999999978063
365,39,0.5,0.0625,-35.0,-1,1.0,0.3528999999998632
366,39,0.5,0.0625,-35.0,-1,1.0,0.34629999999992833
367,39,0.5,0.125,-35.0,-1,1.0,0.4097999999999047
368,39,0.5,0.0625,-35.0,-1,1.0,0.50649999999996
369,39,0.5,0.25,-35.0,-1,1.0,0.11319999999977881
370,39,0.5,0.0,35.0,-1,0.0,0.2267999999996846
371,39,0.5,0.25,35.0,1,1.0,0.3066999999998643
372,39,0.5,0.0,-35.0,-1,1.0,0.736699999999928
373,39,0.5,0.125,-35.0,-1,1.0,0.25709999999980937
374,39,0.5,0.125,-35.0,-1,1.0,0.22710000000006403
375,39,0.5,0.0625,-35.0,-1,1.0,0.24040000000013606
376,39,0.5,0.125,-35.0,-1,1.0,0.24369999999976244
377,39,0.5,0.25,35.0,1,1.0,0.25729999999998654
378,39,0.5,0.125,-35.0,-1,1.0,0.24049999999988358
379,39,0.5,0.0,35.0,1,1.0,0.11059999999997672
380,39,0.5,0.125,35.0,1,1.0,0.4640999999999167
381,39,0.5,0.0625,35.0,1,1.0,0.8773000000001048
382,39,0.5,0.0625,35.0,-1,0.0,0.6208990000000085
383,39,0.5,0.125,-35.0,-1,1.0,0.24069999999983338
384,39,0.5,0.0625,35.0,-1,0.0,0.421100000000024
385,39,0.5,0.0,35.0,-1,0.0,0.20749999999975444
386,39,0.5,0.0625,35.0,-1,0.0,0.2344999999997981
387,39,0.5,0.25,35.0,1,1.0,0.25759999999991123
388,39,0.5,0.125,35.0,1,1.0,0.24779899999975896
389,39,0.5,1.0,-35.0,-1,1.0,0.25769999999988613
390,39,0.5,0.0,35.0,1,1.0,0.5215999999998076
391,39,0.5,0.125,-35.0,-1,1.0,0.24130000000013752
392,39,0.5,0.0625,-35.0,-1,1.0,0.28819999999973334
393,39,0.5,1.0,-35.0,-1,1.0,0.17800000000011096
394,39,0.5,0.125,-35.0,-1,1.0,0.21169999999983702
395,39,0.5,0.25,-35.0,-1,1.0,0.23520000000007713
396,39,0.5,0.25,-35.0,1,0.0,0.14190000000007785
397,39,0.5,0.25,-35.0,-1,1.0,0.2619999999999436
398,39,0.5,0.125,35.0,-1,0.0,1.0353000000000065
399,39,0.5,0.125,35.0,-1,0.0,0.29829999999969914
400,39,0.2,0.125,35.0,-1,0.0,0.27870000000007167
401,39,0.5,1.0,-35.0,-1,1.0,0.26549999999997453
402,39,0.5,0.25,-35.0,-1,1.0,0.24569999999994252
403,39,0.5,0.125,35.0,-1,0.0,0.18549999999981992
404,39,0.5,0.125,-35.0,-1,1.0,0.3423000000000229
405,39,0.5,1.0,35.0,1,1.0,0.2524999999998272
406,39,0.5,1.0,-35.0,-1,1.0,0.4292000000000371
407,39,0.5,0.0,-35.0,-1,1.0,0.2622999999998683
408,39,0.5,0.0625,-35.0,-1,1.0,0.2723999999998341
409,39,0.5,0.0625,-35.0,-1,1.0,0.11279999999987922
410,39,0.5,0.0,-35.0,1,0.0,1.0859000000000378
411,39,0.2,0.0,-35.0,1,0.0,0.1693000000000211
412,39,0.5,1.0,-35.0,-1,1.0,0.2394000000001597
413,39,0.5,1.0,35.0,1,1.0,0.22919999999976426
414,39,0.5,0.0625,-35.0,-1,1.0,0.2927999999999429
415,39,0.5,1.0,35.0,1,1.0,0.3294999999998254
416,39,0.5,0.125,35.0,-1,0.0,0.486299999999801
417,39,0.5,0.125,35.0,1,1.0,8.149400000000014
418,39,0.5,0.125,35.0,1,1.0,0.4333999999998923
419,39,0.5,0.25,-35.0,-1,1.0,0.22309999999970387
420,39,0.5,0.0625,-35.0,-1,1.0,0.28330000000005384
421,39,0.5,0.0625,-35.0,-1,1.0,0.4696999999998752
422,39,0.5,0.0625,-35.0,-1,1.0,0.2136000000000422
423,39,0.5,0.125,35.0,-1,0.0,0.14989999999988868
424,39,0.5,0.125,-35.0,-1,1.0,0.3770999999999276
425,39,0.5,0.0,35.0,-1,0.0,0.3204000000000633
426,39,0.5,0.0625,-35.0,-1,1.0,0.3636999999996533
427,39,0.5,0.0625,-35.0,-1,1.0,0.27719999999999345
428,39,0.5,1.0,35.0,1,1.0,0.3838999999998123
429,39,0.5,0.25,35.0,1,1.0,0.9437000000000353
430,39,0.5,0.0625,-35.0,-1,1.0,0.2840000000001055
431,39,0.5,1.0,-35.0,-1,1.0,0.24420000000009168
432,39,0.5,0.0625,-35.0,-1,1.0,0.21749999999997272
433,39,0.5,0.0625,-35.0,-1,1.0,0.23719999999980246
434,39,0.5,1.0,35.0,1,1.0,0.25759999999991123
435,39,0.5,0.25,35.0,1,1.0,0.25739999999996144
436,39,0.5,0.0625,-35.0,-1,1.0,0.19439999999985957
437,39,0.5,0.125,-35.0,-1,1.0,0.26769999999987704
438,39,0.5,0.25,35.0,1,1.0,0.2313000000001466
439,39,0.5,0.125,35.0,-1,0.0,0.5274999999999181
440,39,0.5,0.25,35.0,1,1.0,0.31799999999975626
441,39,0.5,0.0625,35.0,1,1.0,0.40469999999982065
442,39,0.5,0.25,-35.0,-1,1.0,0.2647999999999229
443,39,0.5,1.0,-35.0,-1,1.0,0.15789999999992688
444,39,0.5,1.0,35.0,1,1.0,0.23479999999995016
445,39,0.5,0.0625,35.0,1,1.0,0.4817999999997937
446,39,0.5,0.0,35.0,-1,0.0,0.8181999999999334
447,39,0.5,0.25,35.0,1,1.0,10.461699999999837
448,39,0.5,0.125,35.0,1,1.0,54.815599999999904
449,39,0.5,0.0,-0.0,0,0.0,60.02940099999978
450,39,0.5,0.25,35.0,1,1.0,11.493900999999823
451,39,0.5,0.125,35.0,-1,0.0,16.077500999999984
452,39,0.6,0.125,-35.0,-1,1.0,1.3513009999996939
453,39,0.5,1.0,-35.0,-1,1.0,
454,39,0.5,0.0625,35.0,-1,0.0,0.977900999999747
455,39,0.5,0.0625,-35.0,1,0.0,37.36480099999994
456,39,0.5,0.125,35.0,1,1.0,3.0155009999998583
457,39,0.5,0.125,-35.0,1,0.0,0.8288009999998849
458,39,0.6,0.125,35.0,1,1.0,1.272200999999768
459,39,0.5,1.0,-35.0,-1,1.0,0.3791009999997641
460,39,0.5,1.0,-35.0,-1,1.0,0.2722009999997681
461,39,0.5,1.0,-35.0,-1,1.0,3.689200999999912
462,39,0.5,0.125,-35.0,-1,1.0,0.6523009999998521
463,39,0.5,0.25,35.0,1,1.0,27.02600099999995
464,39,0.5,0.125,35.0,1,1.0,2.7896009999997204
1,40,0.5,0.125,-35.0,-1,1.0,0.48889999999999945
2,40,0.5,1.0,-35.0,-1,1.0,0.2881999999999998
3,40,0.5,0.0625,35.0,-1,0.0,0.26399999999999846
4,40,0.5,0.0,35.0,-1,0.0,0.3315999999999999
5,40,0.5,0.25,35.0,1,1.0,0.22039999999999793
6,40,0.5,0.125,35.0,1,1.0,0.24890000000000256
7,40,0.5,0.0625,-35.0,-1,1.0,0.2784000000000013
8,40,0.5,0.25,35.0,1,1.0,0.23710099999999912
9,40,0.5,0.0625,-35.0,-1,1.0,0.2809000000000026
10,40,0.5,0.25,-35.0,-1,1.0,0.2242999999999995
11,40,0.5,1.0,35.0,1,1.0,0.20839999999999748
12,40,0.5,1.0,-35.0,-1,1.0,0.22590000000000288
13,40,0.5,0.0625,35.0,1,1.0,1.0732999999999961
14,40,0.5,0.0,-35.0,-1,1.0,0.10810000000000031
15,40,0.5,0.25,-35.0,-1,1.0,0.384999999999998
16,40,0.5,0.0,-35.0,-1,1.0,0.2163010000000014
17,40,0.5,0.0,35.0,-1,0.0,0.2116009999999946
18,40,0.5,0.0625,-35.0,-1,1.0,0.23410099999999545
19,40,0.5,1.0,35.0,-1,0.0,0.08990099999999757
20,40,0.5,0.0625,-35.0,-1,1.0,0.24060099999999807
21,40,0.5,0.125,35.0,-1,0.0,0.2149000000000001
22,40,0.5,0.25,35.0,1,1.0,0.28740099999998847
23,40,0.5,0.25,-35.0,-1,1.0,0.3427000000000078
24,40,0.5,0.25,35.0,-1,0.0,0.23750099999999463
25,40,0.5,0.25,35.0,-1,0.0,0.28770000000000095
26,40,0.5,0.0,35.0,-1,0.0,0.2764009999999928
27,40,0.5,0.0625,35.0,1,1.0,0.316001
28,40,0.5,0.125,35.0,1,1.0,0.3610000000000042
29,40,0.5,0.0625,35.0,-1,0.0,0.23290099999999825
30,40,0.5,0.0,35.0,-1,0.0,0.21429999999999438
31,40,0.5,0.25,-35.0,-1,1.0,0.24340099999999154
32,40,0.5,0.0625,-35.0,-1,1.0,0.2614009999999922
33,40,0.5,0.125,-35.0,-1,1.0,0.2379010000000079
34,40,0.5,0.125,-35.0,-1,1.0,0.23959999999999582
35,40,0.5,0.0,-35.0,-1,1.0,6.776600000000002
36,40,0.5,0.25,-35.0,-1,1.0,0.18980100000001698
37,40,0.5,0.25,35.0,1,1.0,0.40990100000001917
38,40,0.5,0.125,-35.0,-1,1.0,0.21020100000001207
39,40,0.5,0.0625,-35.0,-1,1.0,0.18489999999999895
40,40,0.5,1.0,35.0,1,1.0,0.24970099999998752
41,40,0.5,0.125,35.0,1,1.0,0.3203010000000006
42,40,0.5,1.0,35.0,1,1.0,0.34070000000002665
43,40,0.5,0.0625,35.0,1,1.0,0.7482000000000255
44,40,0.5,0.25,35.0,1,1.0,0.31330000000002656
45,40,0.5,0.25,35.0,1,1.0,0.28020100000000525
46,40,0.5,0.0625,-35.0,-1,1.0,0.32579999999998677
47,40,0.5,0.0,35.0,-1,0.0,2.2958010000000115
48,40,0.5,0.0,35.0,-1,0.0,0.23690099999998893
49,40,0.5,0.25,-35.0,-1,1.0,0.1277000000000328
50,40,0.5,0.25,-35.0,-1,1.0,0.29590000000001737
51,40,0.5,0.0625,-35.0,-1,1.0,0.4638000000000204
52,40,0.5,0.125,-35.0,-1,1.0,0.31389999999998963
53,40,0.5,0.0,-35.0,-1,1.0,0.19560099999998215
54,40,0.5,1.0,-35.0,-1,1.0,0.24670000000000414
55,40,0.5,0.25,35.0,1,1.0,0.23190099999999347
56,40,0.5,0.125,-35.0,-1,1.0,0.25970100000003526
57,40,0.5,0.125,35.0,1,1.0,0.5612010000000112
58,40,0.5,1.0,-35.0,-1,1.0,0.2045010000000218
59,40,0.5,0.125,35.0,1,1.0,0.3405999999999949
60,40,0.5,0.125,35.0,1,1.0,0.4093000000000302
61,40,0.5,0.0625,-35.0,-1,1.0,0.24430000000000973
62,40,0.5,0.25,-35.0,-1,1.0,0.41540000000003374
63,40,0.5,0.25,35.0,1,1.0,0.25840000000002306
64,40,0.5,0.25,35.0,1,1.0,0.2746999999999957
65,40,0.5,1.0,35.0,1,1.0,0.2718010000000106
66,40,0.5,1.0,35.0,1,1.0,0.3036999999999921
67,40,0.5,0.0625,-35.0,-1,1.0,0.21370100000001457
68,40,0.5,0.0625,35.0,-1,0.0,0.20910099999997556
69,40,0.6,0.0625,-35.0,-1,1.0,0.2758010000000297
70,40,0.5,1.0,-35.0,-1,1.0,0.23480100000000448
71,40,0.5,1.0,-35.0,-1,1.0,0.4093010000000561
72,40,0.5,0.0,35.0,-1,0.0,0.1370000000000573
73,40,0.5,0.0625,-35.0,1,0.0,0.2214010000000144
74,40,0.4,0.0625,35.0,-1,0.0,0.2580000000000382
75,40,0.5,1.0,35.0,1,1.0,0.2068010000000413
76,40,0.5,0.125,35.0,-1,0.0,0.22690000000000055
77,40,0.5,0.0625,35.0,-1,0.0,0.25530099999997447
78,40,0.5,0.0,35.0,-1,0.0,0.24580100000002858
79,40,0.5,0.0625,35.0,-1,0.0,0.3114010000000462
80,40,0.2,0.0625,35.0,-1,0.0,10.60160099999996
81,40,0.5,1.0,35.0,1,1.0,0.24259999999998172
82,40,0.5,1.0,-35.0,-1,1.0,0.27810000000005175
83,40,0.5,1.0,35.0,1,1.0,0.5280010000000175
84,40,0.5,0.0625,35.0,-1,0.0,0.28080099999999675
85,40,0.5,0.0625,-35.0,1,0.0,0.25320099999999
86,40,0.5,0.0625,-35.0,-1,1.0,0.2966000000000122
87,40,0.5,0.0,35.0,-1,0.0,0.31119999999998527
88,40,0.5,0.0625,35.0,-1,0.0,0.23940099999998665
89,40,0.5,0.0625,35.0,-1,0.0,0.4961010000000101
90,40,0.5,0.25,35.0,1,1.0,0.36580000000003565
91,40,0.5,0.125,-35.0,-1,1.0,0.35470100000003413
92,40,0.5,0.25,-35.0,-1,1.0,0.23890000000005784
93,40,0.5,0.125,35.0,1,1.0,3.9593000000000416
94,40,0.5,0.125,35.0,1,1.0,0.34730100000001585
95,40,0.5,0.125,-35.0,-1,1.0,0.28290000000004056
96,40,0.5,0.0625,35.0,1,1.0,0.4870009999999638
97,40,0.5,0.125,-35.0,-1,1.0,0.26160099999998465
98,40,0.5,1.0,35.0,1,1.0,0.7675009999999816
99,40,0.5,0.25,35.0,1,1.0,0.3457000000000221
100,40,0.5,1.0,35.0,1,1.0,0.26380000000000337
101,40,0.5,0.0625,-35.0,1,0.0,0.3225009999999884
102,40,0.5,0.25,-35.0,1,0.0,0.5024010000000771
103,40,0.5,0.125,35.0,1,1.0,0.31400100000001885
104,40,0.5,0.0625,-35.0,1,0.0,0.32690100000002076
105,40,0.5,0.125,35.0,-1,0.0,0.27600000000001046
106,40,0.5,0.25,35.0,1,1.0,3.3906010000000038
107,40,0.5,1.0,35.0,1,1.0,0.2622000000000071
108,40,0.5,1.0,35.0,1,1.0,0.24830000000002883
109,40,0.5,0.0,35.0,-1,0.0,0.6353010000000836
110,40,0.5,0.125,35.0,1,1.0,0.2755009999999629
111,40,0.5,0.25,-35.0,-1,1.0,0.30680000000000973
112,40,0.5,0.25,-35.0,1,0.0,0.3593999999999937
113,40,0.5,0.125,-35.0,-1,1.0,0.2806000000000495
114,40,0.5,0.125,35.0,-1,0.0,5.388600000000054
115,40,0.5,0.0625,35.0,-1,0.0,0.2937999999999761
116,40,0.5,0.0625,-35.0,-1,1.0,0.2428000000000452
117,40,0.5,1.0,35.0,1,1.0,0.2048000000000343
118,40,0.5,0.0625,-35.0,-1,1.0,0.6910010000000284
119,40,0.5,0.25,-35.0,-1,1.0,0.22800100000000612
120,40,0.5,0.0625,-35.0,-1,1.0,0.26070000000004256
121,40,0.5,1.0,-35.0,-1,1.0,0.2131009999999378
122,40,0.5,0.0625,35.0,-1,0.0,0.26940000000001874
123,40,0.5,0.0625,-35.0,-1,1.0,0.2575010000000475
124,40,0.5,0.25,35.0,-1,0.0,0.23820100000000366
125,40,0.1,0.25,35.0,-1,0.0,0.3504010000000335
126,40,0.5,1.0,-35.0,-1,1.0,0.22550000000001091
127,40,0.5,0.25,-35.0,-1,1.0,0.247400999999968
128,40,0.5,0.0625,-35.0,-1,1.0,0.29110100000002603
129,40,0.5,1.0,35.0,1,1.0,0.24970100000001594
130,40,0.5,0.0625,35.0,-1,0.0,0.22590000000008104
131,40,0.5,0.25,35.0,-1,0.0,0.23230100000000675
132,40,0.5,0.25,35.0,1,1.0,14.380800999999963
133,40,0.5,0.125,-35.0,-1,1.0,0.3616010000000074
134,40,0.5,0.0625,-35.0,-1,1.0,0.2710999999999899
135,40,0.5,1.0,-35.0,-1,1.0,0.22500099999990653
136,40,0.5,0.25,35.0,-1,0.0,0.24720000000002074
137,40,0.5,0.25,-35.0,-1,1.0,0.2559999999999718
138,40,0.5,0.0625,-35.0,-1,1.0,0.32789999999988595
139,40,0.5,0.25,-35.0,-1,1.0,0.23719999999991614
140,40,0.5,1.0,-35.0,-1,1.0,0.30490099999997256
141,40,0.5,0.25,35.0,-1,0.0,0.2481999999999971
142,40,0.1,0.25,35.0,-1,0.0,0.2596009999999751
143,40,0.5,1.0,35.0,1,1.0,0.623800999999844
144,40,0.5,0.0625,-35.0,-1,1.0,0.2676999999999907
145,40,0.5,0.125,35.0,-1,0.0,0.2541009999998778
146,40,0.5,0.0625,35.0,-1,0.0,0.24479999999994106
147,40,0.5,0.125,-35.0,-1,1.0,0.23420099999987087
148,40,0.5,0.125,35.0,-1,0.0,0.26860099999998965
149,40,0.5,0.25,35.0,1,1.0,1.391100999999935
150,40,0.5,0.125,35.0,1,1.0,0.40039999999987685
151,40,0.5,0.125,-35.0,-1,1.0,0.20519999999999072
152,40,0.5,0.0625,35.0,-1,0.0,0.21619999999995798
153,40,0.5,0.25,35.0,-1,0.0,0.26729999999997744
154,40,0.5,0.125,35.0,-1,0.0,0.23460000000000036
155,40,0.2,0.125,35.0,-1,0.0,0.3467009999999391
156,40,0.5,1.0,-35.0,-1,1.0,0.2884999999998854
157,40,0.5,1.0,-35.0,-1,1.0,0.22059999999999036
158,40,0.5,0.125,35.0,-1,0.0,0.23660099999995055
159,40,0.5,0.125,35.0,-1,0.0,0.28569999999990614
160,40,0.5,0.25,-35.0,-1,1.0,0.25820099999998547
161,40,0.5,0.25,35.0,-1,0.0,0.22410100000001876
162,40,0.5,0.0625,35.0,-1,0.0,0.28120100000001
163,40,0.0,0.0625,35.0,1,1.0,0.4133999999999105
164,40,0.5,1.0,35.0,1,1.0,0.40030099999989943
165,40,0.5,0.25,-35.0,-1,1.0,0.25300000000004275
166,40,0.5,0.25,35.0,1,1.0,0.484100999999896
167,40,0.5,0.125,35.0,1,1.0,0.29110100000002603
168,40,0.5,0.25,35.0,1,1.0,0.18340100000000348
169,40,0.5,0.25,35.0,1,1.0,0.3043010000000095
170,40,0.5,0.0625,35.0,-1,0.0,0.30319999999994707
171,40,0.5,0.0625,35.0,1,1.0,0.296399999999835
172,40,0.5,0.125,35.0,1,1.0,0.27749999999991815
173,40,0.5,0.125,-35.0,1,0.0,0.32550099999991744
174,40,0.5,0.0,-35.0,1,0.0,0.27890000000002146
175,40,0.5,0.25,-35.0,-1,1.0,0.2727999999999611
176,40,0.5,0.0,35.0,-1,0.0,0.35780099999999493
177,40,0.5,0.0625,-35.0,-1,1.0,0.27280099999995855
178,40,0.5,0.25,-35.0,-1,1.0,0.23460099999988415
179,40,0.5,0.0625,35.0,-1,0.0,0.2359000000000151
180,40,0.5,0.25,-35.0,-1,1.0,0.2581009999998969
181,40,0.5,0.0,-35.0,-1,1.0,0.1951009999999087
182,40,0.5,1.0,-35.0,1,0.0,0.20309999999994943
183,40,0.5,0.25,-35.0,-1,1.0,0.2302999999998292
184,40,0.5,0.125,-35.0,-1,1.0,0.21889999999996235
185,40,0.5,0.0625,-35.0,1,0.0,0.5793009999999867
186,40,0.5,0.25,-35.0,-1,1.0,0.254099999999994
187,40,0.5,0.25,35.0,-1,0.0,0.5745009999999411
188,40,0.5,0.125,35.0,-1,0.0,0.32330000000001746
189,40,0.5,0.0,35.0,1,1.0,0.2540009999999029
190,40,0.5,0.125,35.0,1,1.0,1.5642009999999118
191,40,0.5,0.125,35.0,1,1.0,0.419399999999996
192,40,0.5,0.0625,35.0,-1,0.0,1.0386999999999489
193,40,0.4,0.0625,35.0,1,1.0,0.5278999999999314
194,40,0.5,1.0,-35.0,-1,1.0,0.2800009999999702
195,40,0.5,0.25,35.0,1,1.0,0.3710009999999784
196,40,0.5,0.0,-35.0,1,0.0,0.3279009999999971
197,40,0.5,0.25,35.0,1,1.0,0.23120099999994181
198,40,0.5,0.0,35.0,1,1.0,6.914600999999948
199,40,0.5,0.25,35.0,1,1.0,0.26139999999998054
200,40,0.5,1.0,-35.0,-1,1.0,0.2905009999998356
201,40,0.5,0.125,-35.0,-1,1.0,0.25349999999991724
202,40,0.5,0.0,-35.0,-1,1.0,0.26860099999987597
203,40,0.5,1.0,-35.0,-1,1.0,0.24760000000003402
204,40,0.5,1.0,35.0,1,1.0,0.23870099999987815
205,40,0.5,1.0,-35.0,-1,1.0,0.2116009999998596
206,40,0.5,0.0625,35.0,-1,0.0,0.3229000000000042
207,40,0.5,0.125,-35.0,-1,1.0,0.26680099999998674
208,40,0.5,0.125,35.0,1,1.0,0.3259009999999307
209,40,0.5,0.0625,-35.0,1,0.0,0.4254000000000815
210,40,0.3,0.0625,35.0,1,1.0,3.2062010000000782
211,40,0.5,1.0,35.0,1,1.0,0.4150999999999385
212,40,0.5,0.125,-35.0,-1,1.0,0.2781999999999698
213,40,0.5,1.0,-35.0,-1,1.0,0.21829999999999927
214,40,0.5,0.0,35.0,-1,0.0,0.2962999999999738
215,40,0.5,0.125,35.0,-1,0.0,0.23000100000001567
216,40,0.4,0.125,35.0,-1,0.0,0.22239999999987958
217,40,0.5,1.0,35.0,1,1.0,0.3414999999998827
218,40,0.5,0.125,-35.0,-1,1.0,0.3035009999999829
219,40,0.5,0.25,-35.0,-1,1.0,0.24410099999988688
220,40,0.5,0.25,35.0,-1,0.0,0.3286999999999125
221,40,0.5,0.25,-35.0,-1,1.0,0.27129999999988286
222,40,0.5,0.0625,-35.0,-1,1.0,0.24100099999998292
223,40,0.5,0.125,35.0,1,1.0,0.5934009999999716
224,40,0.5,0.125,35.0,-1,0.0,0.31740100000001803
225,40,0.5,0.25,35.0,1,1.0,0.7958999999999605
226,40,0.5,0.25,35.0,1,1.0,0.29929999999990287
227,40,0.5,0.0,35.0,1,1.0,0.209699999999998
228,40,0.5,0.0625,35.0,1,1.0,0.2924009999999271
229,40,0.5,0.0625,-35.0,1,0.0,0.3421009999998432
230,40,0.6,0.0625,35.0,1,1.0,1.707599999999843
231,40,0.5,1.0,-35.0,-1,1.0,0.2543999999999187
232,40,0.5,0.25,-35.0,-1,1.0,0.2697010000000546
233,40,0.5,0.0625,35.0,-1,0.0,0.5043009999998276
234,40,0.5,0.125,35.0,1,1.0,0.4007000000000289
235,40,0.5,1.0,35.0,-1,0.0,0.7058009999999513
236,40,0.5,0.0625,-35.0,1,0.0,0.4238000000000284
237,40,0.5,0.0625,35.0,1,1.0,0.30179999999995744
238,40,0.5,1.0,-35.0,-1,1.0,0.2798010000000204
239,40,0.5,0.25,-35.0,-1,1.0,0.23650099999997565
240,40,0.5,0.0,35.0,-1,0.0,0.27899999999999636
241,40,0.5,0.0,35.0,1,1.0,0.8294009999999616
242,40,0.5,1.0,-35.0,-1,1.0,0.28309999999999036
243,40,0.5,0.125,35.0,1,1.0,0.33720099999993636
244,40,0.5,1.0,-35.0,-1,1.0,0.24230099999999766
245,40,0.5,0.25,35.0,1,1.0,0.430800999999974
246,40,0.5,0.25,-35.0,-1,1.0,0.2273010000000113
247,40,0.5,0.25,-35.0,-1,1.0,0.42039999999985866
248,40,0.5,0.25,35.0,1,1.0,0.25050099999987196
249,40,0.5,0.125,-35.0,1,0.0,0.5185009999999011
250,40,0.5,0.0625,35.0,1,1.0,0.5676009999998541
251,40,0.5,0.125,-35.0,1,0.0,0.5106999999999289
252,40,0.6,0.125,-35.0,-1,1.0,0.250699999999938
253,40,0.5,1.0,-35.0,-1,1.0,0.22210100000006605
254,40,0.5,0.0625,-35.0,-1,1.0,0.23580100000003767
255,40,0.5,1.0,-35.0,-1,1.0,0.2015999999999849
256,40,0.5,0.125,-35.0,-1,1.0,0.4386010000000624
257,40,0.5,1.0,35.0,-1,0.0,0.2100999999998976
258,40,0.5,0.25,35.0,-1,0.0,0.32330000000001746
259,40,0.5,0.125,35.0,-1,0.0,0.3101009999999178
260,40,0.5,0.25,-35.0,-1,1.0,0.2272010000000364
261,40,0.5,0.0625,-35.0,-1,1.0,0.26699999999993906
262,40,0.5,1.0,35.0,-1,0.0,0.24210099999993417
263,40,0.5,0.25,35.0,-1,0.0,0.28050099999995837
264,40,0.5,0.0625,35.0,-1,0.0,0.265400000000227
265,40,0.5,0.25,35.0,-1,0.0,0.2906000000000404
266,40,0.0,0.25,35.0,1,1.0,0.5918010000000322
267,40,0.5,1.0,35.0,1,1.0,0.29050099999994927
268,40,0.5,0.125,-35.0,1,0.0,0.2741009999997459
269,40,0.5,0.0625,35.0,1,1.0,0.3108009999998558
270,40,0.5,1.0,-35.0,-1,1.0,0.2519000000002052
271,40,0.5,1.0,-35.0,-1,1.0,0.22430099999996855
272,40,0.5,0.0625,-35.0,-1,1.0,0.21420100000000275
273,40,0.5,0.25,-35.0,-1,1.0,0.21430100000020502
274,40,0.5,0.25,-35.0,-1,1.0,0.21010000000001128
275,40,0.5,0.0,35.0,-1,0.0,0.23450099999990925
276,40,0.5,0.0,35.0,-1,0.0,0.24020099999984268
277,40,0.5,0.25,-35.0,-1,1.0,0.2545999999999822
278,40,0.5,0.125,35.0,1,1.0,5.738300999999865
279,40,0.5,0.125,-35.0,-1,1.0,0.2647999999999229
280,40,0.5,0.125,-35.0,-1,1.0,0.25010100000008606
281,40,0.5,0.0625,35.0,-1,0.0,0.371599999999944
282,40,0.5,0.0625,35.0,1,1.0,0.6157010000001719
283,40,0.5,0.0625,-35.0,-1,1.0,0.2574009999998452
284,40,0.5,1.0,-35.0,-1,1.0,0.22850100000005114
285,40,0.5,0.25,35.0,-1,0.0,0.3238010000000031
286,40,0.2,0.25,35.0,1,1.0,0.49210100000004786
287,40,0.5,1.0,35.0,1,1.0,0.36540100000001985
288,40,0.5,0.125,-35.0,-1,1.0,0.2753010000001268
289,40,0.5,1.0,35.0,-1,0.0,0.27640100000007806
290,40,0.5,0.0625,-35.0,-1,1.0,0.3022999999998319
291,40,0.5,0.0625,35.0,1,1.0,0.5201999999999316
292,40,0.5,0.125,-35.0,-1,1.0,0.36910100000000057
293,40,0.5,1.0,35.0,-1,0.0,0.31330000000002656
294,40,0.3,1.0,-35.0,-1,1.0,0.2824009999999362
295,40,0.5,1.0,-35.0,-1,1.0,0.2276009999998223
296,40,0.5,0.0625,-35.0,-1,1.0,0.4757999999999356
297,40,0.5,0.25,35.0,1,1.0,0.5047000000001844
298,40,0.5,1.0,35.0,1,1.0,0.6561009999998078
299,40,0.5,0.125,35.0,1,1.0,0.43000099999994745
300,40,0.5,0.0,-35.0,1,0.0,0.28280100000006314
301,40,0.5,0.0625,-35.0,-1,1.0,0.5009000000002288
302,40,0.5,0.25,35.0,-1,0.0,0.25289999999995416
303,40,0.5,0.25,35.0,-1,0.0,0.3140000000000782
304,40,0.5,0.25,35.0,-1,0.0,0.32990099999983613
305,40,0.5,0.0625,35.0,1,1.0,0.4851000000001022
306,40,0.5,0.0625,35.0,1,1.0,0.31320099999993545
307,40,0.5,0.125,35.0,1,1.0,0.4109009999999671
308,40,0.5,0.125,-35.0,1,0.0,0.3203009999999722
309,40,0.5,0.25,35.0,1,1.0,0.42039999999997235
310,40,0.5,0.125,-35.0,-1,1.0,0.28680099999996855
311,40,0.5,1.0,35.0,1,1.0,0.2677009999999882
312,40,0.5,1.0,35.0,1,1.0,0.223500999999942
313,40,0.5,1.0,-35.0,-1,1.0,0.2616009999999278
314,40,0.5,1.0,35.0,1,1.0,0.23730099999988852
315,40,0.5,0.25,-35.0,-1,1.0,0.25930099999982303
316,40,0.5,0.125,35.0,-1,0.0,0.2637999999999465
317,40,0.5,0.25,-35.0,1,0.0,0.32179999999993925
318,40,0.5,0.25,35.0,1,1.0,0.3208009999998467
319,40,0.5,0.0625,-35.0,1,0.0,0.5000010000001112
320,40,0.5,0.25,-35.0,-1,1.0,0.3409999999998945
321,40,0.5,1.0,35.0,-1,0.0,0.5313009999999849
322,40,0.5,0.125,-35.0,-1,1.0,0.22759999999993852
323,40,0.5,0.25,-35.0,-1,1.0,0.25220100000001366
324,40,0.5,0.0625,35.0,-1,0.0,0.2943009999999049
325,40,0.5,0.0625,35.0,1,1.0,0.2178999999998723
326,40,0.5,1.0,-35.0,-1,1.0,0.2714009999999689
327,40,0.5,1.0,35.0,-1,0.0,0.44839999999999236
328,40,0.5,0.125,-35.0,-1,1.0,0.27149999999983265
329,40,0.5,0.0625,35.0,1,1.0,1.8614999999999782
330,40,0.5,0.125,35.0,-1,0.0,0.2847009999998136
331,40,0.5,0.125,-35.0,-1,1.0,0.1951010000000224
332,40,0.5,0.125,35.0,-1,0.0,0.2817000000000007
333,40,0.5,0.0,35.0,1,1.0,0.3587999999999738
334,40,0.5,1.0,-35.0,-1,1.0,0.231899999999996
335,40,0.5,0.125,35.0,-1,0.0,0.2585999999998876
336,40,0.2,0.125,35.0,-1,0.0,0.27169999999978245
337,40,0.5,1.0,35.0,-1,0.0,0.28270099999986087
338,40,0.5,0.0625,-35.0,1,0.0,0.34860100000014427
339,40,0.5,0.25,35.0,1,1.0,0.30300099999999475
340,40,0.5,0.25,-35.0,-1,1.0,0.2554009999998925
341,40,0.5,0.0,35.0,-1,0.0,0.5791999999999007
342,40,0.5,0.125,-35.0,-1,1.0,0.32880100000011225
343,40,0.5,0.125,-35.0,-1,1.0,0.26240100000018174
344,40,0.5,0.0,-35.0,-1,1.0,0.3124009999999089
345,40,0.5,0.0625,-35.0,-1,1.0,0.2541009999999915
346,40,0.5,0.0625,35.0,-1,0.0,0.6789999999998599
347,40,0.5,0.0625,35.0,-1,0.0,0.24319999999988795
348,40,0.5,0.0625,-35.0,1,0.0,0.2858009999999922
349,40,0.5,0.125,35.0,-1,0.0,0.25
350,40,0.5,0.0625,-35.0,-1,1.0,0.24600099999997838
351,40,0.5,1.0,35.0,1,1.0,0.3495010000001457
352,40,0.5,0.0625,35.0,1,1.0,6.592799999999897
353,40,0.5,0.25,-35.0,-1,1.0,0.49110099999984413
354,40,0.5,0.125,35.0,1,1.0,0.3031999999998334
355,40,0.5,0.125,35.0,1,1.0,0.41630000000009204
356,40,0.5,0.25,-35.0,-1,1.0,0.29420099999993
357,40,0.5,0.0625,35.0,1,1.0,0.22010000000000218
358,40,0.5,0.25,35.0,1,1.0,0.5206009999999424
359,40,0.5,0.0625,35.0,1,1.0,0.2400000000000091
360,40,0.5,0.0625,-35.0,-1,1.0,0.2675000000001546
361,40,0.5,0.25,-35.0,-1,1.0,0.26680099999975937
362,40,0.5,0.0625,35.0,1,1.0,0.5237010000000737
363,40,0.5,0.0,-35.0,1,0.0,1.466899999999896
364,40,0.7,0.0,-35.0,1,0.0,0.418800999999803
365,40,0.5,1.0,-35.0,-1,1.0,0.27030100000001767
366,40,0.5,0.0625,-35.0,1,0.0,1.66270099999997
367,40,0.5,0.25,-35.0,-1,1.0,0.2872999999997319
368,40,0.5,0.125,35.0,1,1.0,0.47499999999990905
369,40,0.5,0.125,35.0,1,1.0,0.7707009999999173
370,40,0.5,1.0,35.0,1,1.0,0.7252000000000862
371,40,0.5,0.0,35.0,1,1.0,0.4574999999999818
372,40,0.5,0.25,-35.0,-1,1.0,1.122201000000132
373,40,0.5,0.0625,-35.0,-1,1.0,0.284300999999914
374,40,0.5,0.125,35.0,1,1.0,1.3880000000001473
375,40,0.5,1.0,35.0,1,1.0,0.3544010000000526
376,40,0.5,0.0625,35.0,-1,0.0,0.6096009999998842
377,40,0.5,0.125,-35.0,-1,1.0,0.31120099999975537
378,40,0.5,0.0625,-35.0,-1,1.0,0.23470099999985905
379,40,0.5,0.0625,-35.0,-1,1.0,0.2114010000000235
380,40,0.5,0.25,35.0,-1,0.0,0.23480100000006132
381,40,0.5,0.0625,35.0,1,1.0,0.32819999999969696
382,40,0.5,0.125,35.0,1,1.0,2.912800999999945
383,40,0.5,0.25,-35.0,-1,1.0,0.2584009999998216
384,40,0.5,0.0,35.0,-1,0.0,0.3200009999998201
385,40,0.5,0.25,35.0,1,1.0,0.5483999999999014
386,40,0.5,1.0,35.0,1,1.0,0.5394999999998618
387,40,0.5,0.0625,35.0,1,1.0,0.3785000000000309
388,40,0.5,0.125,-35.0,-1,1.0,0.19600100000002385
389,40,0.5,1.0,35.0,1,1.0,0.6755009999997128
390,40,0.5,1.0,-35.0,-1,1.0,0.23939999999993233
391,40,0.5,0.0625,35.0,-1,0.0,0.5089000000000397
392,40,0.5,0.125,35.0,-1,0.0,0.29960000000005493
393,40,0.5,0.125,-35.0,-1,1.0,0.24900099999990744
394,40,0.5,1.0,35.0,1,1.0,0.32150000000001455
395,40,0.5,0.25,-35.0,-1,1.0,0.2957010000000082
396,40,0.5,0.0625,35.0,1,1.0,0.2799999999999727
397,40,0.5,0.0625,35.0,1,1.0,0.599100000000135
398,40,0.5,0.0625,-35.0,1,0.0,0.4578999999998814
399,40,0.5,0.0625,35.0,1,1.0,0.4993010000000595
400,40,0.5,0.0625,35.0,1,1.0,0.6692000000000462
401,40,0.5,0.0625,35.0,-1,0.0,0.30930000000012114
402,40,0.5,0.0,35.0,1,1.0,0.3370999999997366
403,40,0.5,0.125,35.0,1,1.0,0.37619999999992615
404,40,0.5,0.0625,35.0,1,1.0,0.37970100000006823
405,40,0.5,0.0,-35.0,1,0.0,0.4462999999998374
406,40,0.5,0.0625,35.0,-1,0.0,0.7499000000000251
407,40,0.8,0.0625,35.0,1,1.0,0.5397009999999227
408,40,0.5,1.0,-35.0,-1,1.0,0.25140099999975973
409,40,0.5,0.125,35.0,1,1.0,0.4500000000000455
410,40,0.5,0.0,-35.0,1,0.0,0.4341999999999189
411,40,0.5,0.25,-35.0,-1,1.0,0.32009999999991123
412,40,0.5,0.25,35.0,1,1.0,0.31179999999994834
413,40,0.5,0.125,35.0,1,1.0,0.4369010000000344
414,40,0.5,0.0625,35.0,1,1.0,0.3119010000000344
415,40,0.5,0.0625,35.0,1,1.0,2.1138009999999667
416,40,0.5,0.25,-35.0,-1,1.0,0.3971999999998843
417,40,0.5,0.0625,35.0,1,1.0,5.93380100000013
418,40,0.5,0.25,-35.0,-1,1.0,0.5885000000000673
419,40,0.5,0.25,35.0,1,1.0,3.4873999999999796
420,40,0.5,0.0625,-35.0,1,0.0,2.1043999999999414
421,40,0.5,0.0625,35.0,1,1.0,2.917801000000054
422,40,0.5,1.0,35.0,1,1.0,0.24090099999989434
423,40,0.5,1.0,-35.0,-1,1.0,0.2945999999999458
424,40,0.5,0.0625,35.0,1,1.0,2.657700999999861
425,40,0.5,0.0625,35.0,1,1.0,6.464800999999852
426,40,0.5,1.0,-35.0,-1,1.0,0.295900999999958
427,40,0.5,0.125,35.0,1,1.0,0.5480009999998856
428,40,0.5,0.0,-35.0,1,0.0,54.243000000000166
429,40,0.5,0.25,35.0,1,1.0,0.5490999999999531
430,40,0.5,0.25,35.0,1,1.0,0.8259000000000469
431,40,0.5,1.0,35.0,1,1.0,3.629399999999805
432,40,0.5,0.25,-35.0,-1,1.0,0.36620099999981903
433,40,0.5,0.0625,-35.0,-1,1.0,1.7327999999999975
434,40,0.5,0.0625,35.0,1,1.0,0.4233010000000377
435,40,0.5,0.0625,35.0,-1,0.0,0.38300100000014936
436,40,0.5,0.0,-35.0,1,0.0,0.46790099999998347
437,40,0.7,0.0,-35.0,1,0.0,50.493201
438,40,0.5,1.0,-35.0,-1,1.0,0.4073000000000775
439,40,0.5,0.125,-35.0,-1,1.0,0.34740099999999074
440,40,0.5,0.25,35.0,1,1.0,0.4883999999997286
441,40,0.5,0.0625,35.0,-1,0.0,0.3540009999999256
442,40,0.5,0.0,-35.0,1,0.0,0.43659999999999854
443,40,0.5,0.0,35.0,-1,0.0,0.33760099999994964
444,40,0.5,0.25,-35.0,-1,1.0,0.37479999999982283
445,40,0.5,0.25,35.0,1,1.0,1.0078009999999722
446,40,0.5,1.0,-35.0,-1,1.0,0.2818999999999505
447,40,0.5,0.0625,35.0,1,1.0,6.424901000000091
448,40,0.5,1.0,35.0,1,1.0,0.2781009999998787
449,40,0.5,0.25,-35.0,-1,1.0,0.29520099999990634
450,40,0.5,0.0625,35.0,-1,0.0,1.4051999999999225
451,40,0.4,0.0625,-35.0,1,0.0,0.3183999999998832
452,40,0.5,1.0,35.0,1,1.0,0.3687009999998736
453,40,0.5,1.0,-35.0,-1,1.0,0.3050999999998112
454,40,0.5,0.125,-35.0,-1,1.0,0.7919999999999163
455,40,0.5,0.25,35.0,-1,0.0,0.4087010000000646
456,40,0.5,0.25,-35.0,-1,1.0,0.27870100000018283
457,40,0.5,0.0625,35.0,1,1.0,0.6787010000000464
458,40,0.5,0.0,-35.0,1,0.0,10.809701000000132
459,40,0.5,0.0,35.0,1,1.0,0.6100010000000111
460,40,0.5,0.125,-35.0,-1,1.0,0.4444010000001981
461,40,0.5,0.0625,35.0,1,1.0,2.2123999999998887
462,40,0.5,0.125,35.0,-1,0.0,7.260299999999916
463,40,0.5,0.0625,35.0,1,1.0,0.9294010000000981
464,40,0.5,0.125,-35.0,-1,1.0,0.3462010000000646
465,40,0.5,0.25,-35.0,-1,1.0,0.399599999999964
466,40,0.5,1.0,35.0,1,1.0,0.5776000000000749
467,40,0.5,1.0,35.0,1,1.0,0.2634009999999307
468,40,0.5,0.25,35.0,1,1.0,0.4675000000002001
469,40,0.5,0.0625,-35.0,-1,1.0,0.36669999999980973
470,40,0.5,1.0,-35.0,-1,1.0,0.2879009999999198
471,40,0.5,0.0,-35.0,-1,1.0,0.3599010000000362
472,40,0.5,0.0625,35.0,1,1.0,0.581000000000131
473,40,0.5,0.0625,35.0,-1,0.0,0.28340099999968515
474,40,0.5,0.125,35.0,-1,0.0,0.26220100000000457
475,40,0.5,0.0625,-35.0,1,0.0,0.5135009999999056
476,40,0.5,0.0625,-35.0,-1,1.0,0.4151010000000497
477,40,0.5,1.0,35.0,1,1.0,0.3204999999998108
478,40,0.5,0.0625,35.0,1,1.0,0.5079009999999471
479,40,0.5,0.0,-35.0,1,0.0,0.2438009999998485
480,40,0.5,0.0,35.0,1,1.0,3.9384009999998852
481,40,0.5,1.0,-35.0,-1,1.0,0.26720099999988633
482,40,0.5,0.0,-35.0,-1,1.0,0.3042000000000371
483,40,0.5,0.0,-35.0,-1,1.0,0.2340999999998985
484,40,0.5,0.0,35.0,-1,0.0,0.30470100000002276
485,40,0.5,0.0625,-35.0,-1,1.0,0.2941000000000713
486,40,0.5,0.0,35.0,-1,0.0,0.2358000000001539
487,40,0.5,0.25,35.0,1,1.0,0.337601000000177
488,40,0.5,0.0,-35.0,1,0.0,0.5546010000002752
489,40,0.4,0.0,-35.0,-1,1.0,4.198001000000204
490,40,0.5,1.0,-35.0,-1,1.0,0.2460999999998421
491,40,0.5,0.125,35.0,-1,0.0,1.474500999999691
492,40,0.5,0.25,35.0,1,1.0,4.6283009999997375
493,40,0.5,0.0625,35.0,-1,0.0,0.30150099999991653
494,40,0.5,0.125,35.0,-1,0.0,0.23610099999996237
495,40,0.5,0.25,-35.0,-1,1.0,0.3916009999998096
496,40,0.5,0.25,35.0,1,1.0,15.394901000000118
497,40,0.5,0.125,-35.0,-1,1.0,0.24890000000004875
498,40,0.5,0.25,35.0,1,1.0,2.5695999999998094
499,40,0.5,0.0625,35.0,1,1.0,1.2855009999998401
500,40,0.5,1.0,-35.0,-1,1.0,0.26530000000002474
501,40,0.5,0.0625,35.0,-1,0.0,0.32900000000017826
502,40,0.5,0.25,-35.0,-1,1.0,0.27620100000012826
503,40,0.5,1.0,-35.0,-1,1.0,0.2502999999996973
504,40,0.5,1.0,-35.0,-1,1.0,0.25250000000005457
505,40,0.5,0.125,35.0,-1,0.0,0.39910100000042803
506,40,0.5,0.0625,-35.0,-1,1.0,0.3993000000000393
507,40,0.5,0.25,-35.0,-1,1.0,0.4204999999997199
508,40,0.5,0.25,-35.0,-1,1.0,0.23939999999993233
509,40,0.5,0.125,-35.0,-1,1.0,0.23730099999966114
510,40,0.5,0.25,-35.0,-1,1.0,0.2628999999997177
511,40,0.5,1.0,-35.0,-1,1.0,0.20670100000006641
512,40,0.5,0.125,-35.0,-1,1.0,2.4097999999999047
513,40,0.5,0.125,-35.0,-1,1.0,0.2812999999996464
514,40,0.5,0.125,35.0,-1,0.0,0.249800999999934
515,40,0.5,0.25,35.0,-1,0.0,0.24710100000038437
516,40,0.0,0.25,35.0,-1,0.0,0.2567010000002483
517,40,0.5,1.0,35.0,1,1.0,0.27719999999999345
518,40,0.5,0.125,35.0,1,1.0,5.116800999999668
519,40,0.5,0.0,35.0,-1,0.0,4.248500000000149
520,40,0.5,0.0,35.0,1,1.0,0.8437010000002374
521,40,0.5,1.0,-35.0,-1,1.0,0.26160099999970043
522,40,0.5,1.0,-35.0,-1,1.0,0.2506009999997332
523,40,0.5,0.25,35.0,1,1.0,0.31170099999962986
524,40,0.5,0.0,35.0,1,1.0,0.3808009999997921
525,40,0.5,0.25,35.0,1,1.0,0.2959000000000742
526,40,0.5,0.125,-35.0,1,0.0,0.6809000000002925
527,40,0.5,0.0625,35.0,1,1.0,0.39859999999998763
528,40,0.5,1.0,-35.0,-1,1.0,0.31100100000003295
529,40,0.5,0.25,35.0,1,1.0,1.352100000000064
530,40,0.5,0.0625,35.0,-1,0.0,0.29120100000000093
531,40,0.6,0.0625,-35.0,1,0.0,30.59820099999979
532,40,0.5,1.0,-35.0,-1,1.0,0.5450000000000728
533,40,0.5,0.125,-35.0,0,0.0,60.03480100000024
534,40,0.5,0.0625,-35.0,-1,1.0,27.156101000000035
535,40,0.5,1.0,-35.0,-1,1.0,0.2800010000000839
536,40,0.5,1.0,35.0,1,1.0,0.36340100000006714
537,40,0.5,0.0625,35.0,-1,0.0,0.3334999999997308
538,40,0.4,0.0625,35.0,1,1.0,0.623501000000033
539,40,0.5,1.0,35.0,1,1.0,0.5738010000000031
540,40,0.5,0.25,35.0,1,1.0,0.5157009999998081
541,40,0.5,0.0,35.0,1,1.0,0.6104000000004817
542,40,0.5,0.0,-35.0,1,0.0,0.30529999999998836
543,40,0.5,0.0625,-35.0,-1,1.0,0.29400100000020757
544,40,0.5,0.25,35.0,1,1.0,0.6549009999998816
545,40,0.5,0.25,35.0,-1,0.0,0.2638000000001739
546,40,0.5,0.0625,-35.0,-1,1.0,0.24049999999988358
547,40,0.5,1.0,-35.0,-1,1.0,0.3041009999997186
548,40,0.5,0.0,-35.0,1,0.0,0.29809999999952197
549,40,0.5,0.25,-35.0,-1,1.0,0.28430100000014136
550,40,0.5,1.0,-35.0,-1,1.0,0.250999999999749
551,40,0.5,0.125,-35.0,-1,1.0,0.2310010000001057
552,40,0.5,0.0,-35.0,-1,1.0,0.2634010000001581
553,40,0.5,1.0,-35.0,-1,1.0,0.3045999999999367
554,40,0.5,0.0625,35.0,1,1.0,0.18150099999957092
555,40,0.5,0.25,35.0,-1,0.0,0.25460100000009334
556,40,0.2,0.25,35.0,1,1.0,0.508600000000115
557,40,0.5,1.0,35.0,1,1.0,0.2682009999998627
558,40,0.5,0.25,35.0,1,1.0,0.41589999999951033
559,40,0.5,1.0,-35.0,-1,1.0,0.23820100000011735
560,40,0.5,1.0,-35.0,-1,1.0,0.21220099999982267
561,40,0.5,0.0,35.0,1,1.0,0.4349010000000817
562,40,0.5,0.125,35.0,-1,0.0,0.14800100000002203
563,40,0.5,0.0,-35.0,-1,1.0,0.271701000000121
564,40,0.5,0.25,-35.0,-1,1.0,0.2382009999996626
565,40,0.5,0.125,-35.0,-1,1.0,0.24179999999978463
566,40,0.5,0.0,-35.0,1,0.0,17.906000999999833
567,40,0.5,0.0625,35.0,-1,0.0,0.30880100000013044
568,40,0.5,0.25,35.0,-1,0.0,0.24250099999972008
569,40,0.5,0.25,-35.0,-1,1.0,0.2957000000001244
570,40,0.5,0.0625,-35.0,-1,1.0,22.23270100000036
571,40,0.5,1.0,-35.0,-1,1.0,0.33610100000032617
572,40,0.5,0.25,35.0,1,1.0,11.309300999999778
573,40,0.5,0.25,35.0,1,1.0,16.753400000000056
574,40,0.5,0.0625,35.0,1,1.0,8.015800999999556
575,40,0.5,0.25,-35.0,-1,1.0,3.92029999999977
576,40,0.5,0.125,-35.0,-1,1.0,0.31800099999964004
577,40,0.5,1.0,-35.0,-1,1.0,0.28720099999964077
578,40,0.5,0.0,-35.0,-1,1.0,0.3205009999996946
579,40,0.5,0.0625,35.0,-1,0.0,0.38320100000009916
580,40,0.5,0.0625,35.0,-1,0.0,0.2694000000001324
581,40,0.5,0.0625,35.0,1,1.0,33.27780100000018
582,40,0.5,0.25,35.0,1,1.0,0.6059009999999034
583,40,0.5,1.0,-35.0,-1,1.0,0.28510000000005675
584,40,0.5,0.125,-35.0,1,0.0,0.15479999999979555
585,40,0.3,0.125,35.0,-1,0.0,0.2582009999996444
586,40,0.5,1.0,35.0,1,1.0,0.4861010000004171
587,40,0.5,0.125,35.0,-1,0.0,0.28170100000033926
588,40,0.5,0.125,35.0,1,1.0,0.6592009999999391
589,40,0.5,0.25,35.0,1,1.0,0.8885000000000218
590,40,0.5,0.0625,-35.0,1,0.0,0.49530000000004293
591,40,0.5,0.125,-35.0,-1,1.0,0.3058000000000902
592,40,0.5,1.0,35.0,1,1.0,0.2973010000000613
593,40,0.5,0.125,35.0,1,1.0,26.225400000000263
594,40,0.5,0.0625,-35.0,-1,1.0,0.34700100000009115
595,40,0.5,0.25,35.0,1,1.0,0.5861010000003262
596,40,0.5,0.0,-35.0,-1,1.0,0.20670100000006641
597,40,0.5,0.0625,-35.0,-1,1.0,0.2893999999996595
598,40,0.5,1.0,35.0,1,1.0,0.6694999999995161
599,40,0.5,1.0,35.0,1,1.0,0.23729999999977736
600,40,0.5,0.125,-35.0,-1,1.0,0.2462999999997919
601,40,0.5,0.0,35.0,1,1.0,0.3643010000000686
602,40,0.5,1.0,35.0,1,1.0,0.3328999999998814
603,40,0.5,1.0,35.0,1,1.0,0.49430100000017774
604,40,0.5,1.0,-35.0,-1,1.0,0.26310000000012224
605,40,0.5,1.0,-35.0,-1,1.0,0.2375010000000657
606,40,0.5,1.0,-35.0,-1,1.0,0.2399000000000342
607,40,0.5,0.125,35.0,-1,0.0,0.1737009999997099
608,40,0.5,0.125,-35.0,-1,1.0,0.2601009999998496
609,40,0.5,1.0,-35.0,-1,1.0,0.4008009999997739
610,40,0.5,0.0625,35.0,1,1.0,0.723500999999942
611,40,0.5,0.0625,-35.0,1,0.0,0.8402000000000953
612,40,0.5,0.25,35.0,1,1.0,13.113601000000017
613,40,0.5,0.25,35.0,1,1.0,0.47420099999999366
614,40,0.5,0.0625,35.0,-1,0.0,0.7205009999997856
615,40,0.5,0.0625,-35.0,1,0.0,0.4004010000003291
616,40,0.5,0.125,-35.0,-1,1.0,0.3142010000001392
617,40,0.5,0.0,-35.0,1,0.0,3.8274999999998727
618,40,0.5,0.25,-35.0,-1,1.0,0.27109999999993306
619,40,0.5,0.125,-35.0,-1,1.0,0.7856999999999061
620,40,0.5,0.0625,-35.0,-1,1.0,0.3910000000000764
621,40,0.5,1.0,35.0,1,1.0,0.5679010000003473
622,40,0.5,1.0,35.0,1,1.0,0.30450100000007296
623,40,0.5,0.25,35.0,-1,0.0,0.6288999999997031
624,40,0.5,0.25,35.0,1,1.0,0.4813010000002578
625,40,0.5,0.0,35.0,-1,0.0,0.24980099999947925
626,40,0.5,0.0625,-35.0,-1,1.0,0.33150000000023283
627,40,0.5,0.125,35.0,1,1.0,0.26210100000025705
628,40,0.5,0.25,-35.0,-1,1.0,0.2716009999999187
629,40,0.5,1.0,-35.0,-1,1.0,0.22319999999990614
630,40,0.5,0.0625,-35.0,-1,1.0,0.24840100000028542
631,40,0.5,0.0,35.0,-1,0.0,0.26240099999995437
632,40,0.5,0.0625,-35.0,-1,1.0,27.77180099999987
633,40,0.5,0.25,35.0,1,1.0,1.2878010000003997
634,40,0.5,0.0625,-35.0,-1,1.0,0.31239999999979773
635,40,0.5,0.0625,35.0,1,1.0,0.6140009999999165
636,40,0.5,0.0625,35.0,-1,0.0,0.29940099999976155
637,40,0.5,0.125,-35.0,-1,1.0,0.2769010000001799
638,40,0.5,0.125,35.0,1,1.0,1.992801000000327
639,40,0.5,1.0,35.0,1,1.0,0.31330099999968297
640,40,0.5,1.0,-35.0,-1,1.0,0.4029000000000451
641,40,0.5,0.125,-35.0,1,0.0,0.7903999999998632
642,40,0.5,0.125,35.0,1,1.0,3.0263010000003305
643,40,0.5,1.0,35.0,1,1.0,0.7306010000002061
644,40,0.5,0.0625,35.0,1,1.0,0.6232009999998809
645,40,0.5,0.125,-35.0,1,0.0,0.42779999999947904
646,40,0.7,0.125,35.0,1,1.0,0.32000099999959275
647,40,0.5,1.0,-35.0,-1,1.0,0.30690099999992526
648,40,0.5,0.25,35.0,-1,0.0,0.4835000000002765
649,40,0.5,0.25,35.0,1,1.0,0.3614999999995234
650,40,0.5,0.0,35.0,1,1.0,0.3602009999999609
651,40,0.5,0.0625,-35.0,-1,1.0,0.7913009999997485
652,40,0.5,1.0,35.0,-1,0.0,0.7971999999999753
653,40,0.5,0.125,-35.0,-1,1.0,0.2943009999999049
654,40,0.5,0.125,35.0,-1,0.0,0.36050099999965823
655,40,0.5,0.25,35.0,1,1.0,0.6523019999999633
656,40,0.5,0.125,35.0,1,1.0,0.42060099999980594
657,40,0.5,1.0,35.0,1,1.0,0.498602000000119
658,40,0.5,0.0625,35.0,1,1.0,0.5408019999999851
659,40,0.5,0.125,-35.0,1,0.0,0.3020019999999022
660,40,0.6,0.125,-35.0,1,0.0,1.0609019999997145
661,40,0.5,1.0,-35.0,-1,1.0,0.3459020000000237
662,40,0.5,0.25,-35.0,-1,1.0,0.30450199999995675
663,40,0.5,0.0625,-35.0,-1,1.0,0.5361020000000281
664,40,0.5,0.0625,-35.0,-1,1.0,0.28790200000003097
665,40,0.5,0.0625,-35.0,-1,1.0,0.5241009999999733
666,40,0.5,0.0625,-35.0,-1,1.0,0.26130099999954837
667,40,0.5,0.125,35.0,-1,0.0,0.7429009999996197
668,40,0.5,0.0,-0.0,0,0.0,60.025301999999556
669,40,0.5,0.0,-35.0,1,0.0,0.5693019999998796
670,40,0.3,0.0,35.0,-1,0.0,0.7624009999999544
671,40,0.5,1.0,35.0,1,1.0,0.30610200000000987
672,40,0.5,0.0625,-35.0,-1,1.0,0.31650200000012774
673,40,0.5,0.125,-35.0,-1,1.0,0.3096019999998134
674,40,0.5,0.0625,35.0,-1,0.0,0.39660200000025725
675,40,0.5,0.25,-35.0,-1,1.0,0.35300099999994927
676,40,0.5,0.0,-0.0,0,0.0,60.026000999999724
677,40,0.4,0.0,35.0,1,1.0,37.26430100000016
678,40,0.5,1.0,35.0,1,1.0,0.27150199999960023
679,40,0.5,0.0,-0.0,0,0.0,60.02950199999941
680,40,0.5,0.0,35.0,1,1.0,59.6059009999999
681,40,0.5,0.125,35.0,1,1.0,6.156502000000273
682,40,0.5,0.125,35.0,-1,0.0,22.897201000000223
683,40,0.6,0.125,35.0,1,1.0,0.15920200000027762
684,40,0.5,1.0,35.0,1,1.0,0.45440199999984543
685,40,0.5,1.0,35.0,1,1.0,0.31640199999992547
686,40,0.5,0.0625,-35.0,1,0.0,1.2479010000001836
687,40,0.9,0.0625,-35.0,1,0.0,2.862000999999964
688,40,0.5,1.0,-35.0,1,0.0,3.401502000000164
689,40,0.5,0.0625,-35.0,1,0.0,3.4493009999996502
690,40,0.5,0.0625,-35.0,-1,1.0,10.298600999999962
691,40,0.5,0.0625,35.0,1,1.0,13.66220199999998
692,40,0.5,0.25,-35.0,1,0.0,10.412401000000045
693,40,0.5,0.0625,-35.0,1,0.0,10.422701999999845
694,40,0.5,0.125,35.0,1,1.0,11.2677020000001
695,40,0.5,0.125,35.0,1,1.0,24.473101000000042
696,40,0.5,0.25,-35.0,1,0.0,7.356800999999905
697,40,0.5,0.0625,-35.0,1,0.0,5.877701999999772
698,40,0.5,0.25,35.0,1,1.0,3.6805020000001605
699,40,0.5,0.25,-35.0,1,0.0,1.9536020000000462
700,40,0.5,0.25,-35.0,1,0.0,4.14750099999992
701,40,0.5,0.125,35.0,1,1.0,2.167102000000341
702,40,0.5,0.125,-35.0,1,0.0,1.7444009999999253
703,40,0.5,0.125,-35.0,1,0.0,20.205700999999863
704,40,1.0,0.125,-35.0,1,0.0,13.631501000000299
705,40,0.5,1.0,-35.0,1,0.0,14.151302000000214
706,40,1.0,1.0,-35.0,-1,1.0,0.5388020000000324
707,40,0.5,1.0,-35.0,-1,1.0,0.3455020000001241
708,40,0.5,0.0625,35.0,1,1.0,5.9789019999998345
709,40,0.5,1.0,35.0,1,1.0,18.285800999999992
710,40,0.5,1.0,35.0,1,1.0,31.342701000000034
711,40,0.5,0.0625,35.0,1,1.0,7.13070099999959
712,40,0.5,0.25,35.0,1,1.0,2.0168009999997594
713,40,0.5,0.125,35.0,-1,0.0,11.468900999999732
714,40,0.5,0.25,-35.0,1,0.0,0.4005010000000766
