trial_num,session_num,stim_probability_left,contrast,position,response_choice,trial_correct,reaction_time
1,1,0.5,0.25,-35.0,-1,1.0,2.4199
2,1,0.5,0.0,-35.0,-1,1.0,0.9247000000000014
3,1,0.5,0.0625,-35.0,-1,1.0,2.2782999999999998
4,1,0.5,0.0625,35.0,1,1.0,3.9635989999999985
5,1,0.5,0.125,35.0,1,1.0,0.27859899999999627
6,1,0.5,0.125,35.0,1,1.0,0.22019900000000092
7,1,0.5,0.125,-35.0,-1,1.0,1.8339990000000022
8,1,0.5,0.0,35.0,1,1.0,10.121600000000008
9,1,0.5,0.25,-35.0,-1,1.0,2.6204990000000095
10,1,0.5,0.25,35.0,1,1.0,3.8220000000000027
11,1,0.5,0.0625,-35.0,-1,1.0,3.223700000000001
12,1,0.5,0.0625,-35.0,-1,1.0,8.449499000000003
13,1,0.5,0.125,-35.0,-1,1.0,5.346800000000002
14,1,0.5,0.0,35.0,-1,0.0,2.6721000000000004
15,1,0.5,1.0,-35.0,-1,1.0,6.857699999999994
16,1,0.5,0.0625,35.0,1,1.0,3.193399999999997
17,1,0.5,0.25,-35.0,-1,1.0,0.3970989999999972
18,1,0.5,0.0625,35.0,1,1.0,0.30619900000000655
19,1,0.5,0.0,-35.0,-1,1.0,0.32159999999998945
20,1,0.5,0.0625,-35.0,-1,1.0,1.5480000000000018
21,1,0.5,0.125,35.0,1,1.0,0.30299999999999727
22,1,0.5,1.0,35.0,1,1.0,0.29859899999999584
23,1,0.5,0.125,35.0,1,1.0,2.0518000000000143
24,1,0.5,0.25,-35.0,-1,1.0,0.5757999999999868
25,1,0.5,0.125,-35.0,1,0.0,0.45569900000000985
26,1,0.5,0.0,-35.0,1,0.0,0.25499999999999545
27,1,0.5,0.25,35.0,1,1.0,0.17089999999998895
28,1,0.5,0.25,-35.0,-1,1.0,0.5800000000000125
29,1,0.5,0.25,35.0,1,1.0,0.21189999999998577
30,1,0.5,0.0,35.0,-1,0.0,0.5220999999999947
31,1,0.5,1.0,-35.0,-1,1.0,0.616199000000023
32,1,0.5,0.125,-35.0,-1,1.0,2.293098999999984
33,1,0.5,1.0,35.0,1,1.0,0.21429900000001112
34,1,0.5,0.0625,-35.0,-1,1.0,1.7423000000000002
35,1,0.5,0.0,35.0,-1,0.0,0.3412000000000148
36,1,0.5,0.125,-35.0,-1,1.0,2.1304999999999836
37,1,0.5,0.0625,-35.0,1,0.0,3.7567999999999984
38,1,0.5,1.0,-35.0,-1,1.0,0.3675000000000068
39,1,0.5,0.0625,-35.0,-1,1.0,1.538499999999999
40,1,0.5,0.0625,35.0,1,1.0,0.7095000000000198
41,1,0.5,0.0625,35.0,-1,0.0,1.5358999999999696
42,1,0.5,0.125,-35.0,-1,1.0,0.4545999999999992
43,1,0.5,0.0,-35.0,-1,1.0,2.0279999999999916
44,1,0.5,0.0,35.0,-1,0.0,5.0268999999999835
45,1,0.5,0.0625,-35.0,-1,1.0,2.873199999999997
46,1,0.5,0.125,-35.0,-1,1.0,3.1977990000000034
47,1,0.5,0.0625,35.0,-1,0.0,6.191800000000001
48,1,0.5,0.0625,-35.0,1,0.0,0.3149999999999693
49,1,0.5,0.0625,35.0,1,1.0,2.9510989999999993
50,1,0.5,0.0,-35.0,-1,1.0,0.88900000000001
51,1,0.5,0.0,35.0,-1,0.0,2.714300000000037
52,1,0.5,1.0,35.0,1,1.0,0.32639999999997826
53,1,0.5,0.0,35.0,-1,0.0,1.672200000000032
54,1,0.5,1.0,35.0,1,1.0,0.6302989999999795
55,1,0.5,0.125,-35.0,-1,1.0,1.3747999999999934
56,1,0.5,0.0625,-35.0,-1,1.0,3.6809990000000425
57,1,0.5,0.0625,-35.0,-1,1.0,0.5495999999999981
58,1,0.5,0.25,-35.0,-1,1.0,1.3683999999999514
59,1,0.5,1.0,-35.0,-1,1.0,0.24899899999996933
60,1,0.5,0.25,-35.0,-1,1.0,0.3965000000000032
61,1,0.5,0.0625,35.0,1,1.0,2.577500000000043
62,1,0.5,1.0,-35.0,-1,1.0,0.3686000000000149
63,1,0.5,0.125,-35.0,-1,1.0,1.7993000000000166
64,1,0.5,0.0625,-35.0,-1,1.0,1.8315999999999804
65,1,0.5,1.0,35.0,1,1.0,0.39320000000003574
66,1,0.5,1.0,-35.0,-1,1.0,0.2989000000000033
67,1,0.5,0.25,-35.0,-1,1.0,1.5820000000000505
68,1,0.5,0.25,35.0,1,1.0,2.6761000000000195
69,1,0.5,0.0,35.0,1,1.0,0.42919900000003963
70,1,0.5,0.0625,-35.0,1,0.0,0.440900000000056
71,1,0.5,1.0,-35.0,-1,1.0,0.34070000000002665
72,1,0.5,0.0625,-35.0,1,0.0,2.022399999999948
73,1,0.5,0.0625,-35.0,1,0.0,2.20029999999997
74,1,0.5,0.0,35.0,1,1.0,0.2783990000000358
75,1,0.5,0.0625,35.0,1,1.0,0.23680000000001655
76,1,0.5,0.125,35.0,1,1.0,0.1513999999999669
77,1,0.5,1.0,-35.0,-1,1.0,1.7758000000000038
78,1,0.5,0.25,35.0,1,1.0,0.20930000000004156
79,1,0.5,1.0,35.0,1,1.0,0.22970000000003665
80,1,0.5,1.0,35.0,1,1.0,0.22139999999996007
81,1,0.5,0.0,-35.0,1,0.0,1.4985000000000355
82,1,0.5,0.0,-35.0,1,0.0,0.39889999999996917
83,1,0.5,0.25,35.0,1,1.0,0.2699000000000069
84,1,0.5,0.0625,35.0,-1,0.0,2.338598999999988
85,1,0.5,0.0,-35.0,-1,1.0,4.512800000000027
86,1,0.5,0.125,35.0,-1,0.0,3.9236999999999966
87,1,0.5,0.0625,-35.0,-1,1.0,0.48670000000004165
88,1,0.5,0.0625,-35.0,-1,1.0,3.2624999999999886
89,1,0.5,0.0625,35.0,1,1.0,0.47790000000003374
90,1,0.5,1.0,35.0,1,1.0,0.20389900000003536
91,1,0.8,0.125,35.0,1,1.0,0.32039899999995214
92,1,0.8,0.0,-35.0,-1,1.0,2.951199000000031
93,1,0.8,1.0,-35.0,-1,1.0,0.31480000000004793
94,1,0.8,0.125,-35.0,-1,1.0,1.9046000000000163
95,1,0.8,1.0,-35.0,-1,1.0,4.961300000000051
96,1,0.8,0.0625,-35.0,-1,1.0,0.3462000000000103
97,1,0.8,0.125,-35.0,-1,1.0,0.7011999999999716
98,1,0.8,1.0,-35.0,-1,1.0,0.4463000000000079
99,1,0.8,0.25,-35.0,-1,1.0,4.4812990000000354
100,1,0.8,0.125,-35.0,-1,1.0,1.419300000000021
101,1,0.8,0.0,-35.0,-1,1.0,1.538000000000011
102,1,0.8,0.25,-35.0,-1,1.0,2.0213999999999714
103,1,0.8,0.0,-35.0,1,0.0,0.5668000000000006
104,1,0.8,0.125,-35.0,-1,1.0,0.7246999999999844
105,1,0.8,1.0,-35.0,-1,1.0,0.3465990000000261
106,1,0.8,0.25,-35.0,-1,1.0,3.0833999999999833
107,1,0.8,0.0,-35.0,-1,1.0,1.6573989999999412
108,1,0.8,0.125,-35.0,-1,1.0,0.6466989999998987
109,1,0.8,0.0,-35.0,-1,1.0,0.275600000000054
110,1,0.8,0.25,-35.0,-1,1.0,1.4808000000000447
111,1,0.8,0.0625,-35.0,-1,1.0,0.3113989999999376
112,1,0.8,1.0,35.0,1,1.0,0.3311999999999671
113,1,0.8,0.0,-35.0,-1,1.0,3.0740999999999303
114,1,0.8,0.0,-35.0,-1,1.0,7.069900000000075
115,1,0.8,0.25,-35.0,-1,1.0,2.134899000000132
116,1,0.8,1.0,35.0,1,1.0,0.26279999999997017
117,1,0.8,0.25,-35.0,-1,1.0,0.32380000000000564
118,1,0.8,0.25,-35.0,-1,1.0,2.795199999999909
119,1,0.8,0.0,35.0,-1,0.0,3.7538999999999305
120,1,0.8,0.0625,35.0,1,1.0,0.4916000000000622
121,1,0.8,1.0,-35.0,-1,1.0,3.1392000000000735
122,1,0.8,1.0,-35.0,-1,1.0,5.602399999999989
123,1,0.8,0.0625,-35.0,1,0.0,2.5040989999999965
124,1,0.8,0.125,-35.0,-1,1.0,1.0335000000000036
125,1,0.8,0.0,35.0,-1,0.0,2.1648999999999887
126,1,0.8,1.0,-35.0,-1,1.0,0.6947000000000116
127,1,0.8,0.125,-35.0,-1,1.0,1.9955989999999701
128,1,0.8,0.0,-35.0,-1,1.0,1.7057989999999563
129,1,0.2,0.125,35.0,-1,0.0,2.7854999999999563
130,1,0.2,0.125,-35.0,-1,1.0,4.312800000000038
131,1,0.2,0.0,35.0,-1,0.0,2.5953000000000657
132,1,0.2,0.0625,35.0,1,1.0,5.332000000000107
133,1,0.2,0.25,-35.0,-1,1.0,1.6326999999999998
134,1,0.2,0.125,35.0,1,1.0,0.4513999999999214
135,1,0.2,0.125,35.0,1,1.0,0.2538999999999305
136,1,0.2,0.0625,35.0,-1,0.0,6.63339899999994
137,1,0.2,0.25,35.0,1,1.0,0.29179899999996906
138,1,0.2,1.0,35.0,1,1.0,0.3232989999999063
139,1,0.2,1.0,35.0,1,1.0,0.2499000000000251
140,1,0.2,0.0625,35.0,1,1.0,3.8297000000000025
141,1,0.2,0.125,35.0,1,1.0,0.29310000000009495
142,1,0.2,0.25,35.0,1,1.0,0.32200000000000273
143,1,0.2,1.0,35.0,1,1.0,0.32399999999995543
144,1,0.2,1.0,35.0,1,1.0,0.30819900000005873
145,1,0.2,0.125,35.0,1,1.0,4.201600000000099
146,1,0.2,0.125,35.0,1,1.0,1.5396999999999252
147,1,0.2,0.0625,35.0,1,1.0,0.2850990000000593
148,1,0.2,0.0,-35.0,-1,1.0,18.793399000000022
149,1,0.2,0.25,35.0,1,1.0,0.2809989999999516
150,1,0.2,0.0625,35.0,1,1.0,1.1563000000001011
151,1,0.2,1.0,35.0,1,1.0,0.3832000000001017
152,1,0.2,0.0,35.0,-1,0.0,4.216300000000047
153,1,0.2,0.125,35.0,1,1.0,0.31770000000005894
154,1,0.2,1.0,35.0,1,1.0,0.3630999999999176
155,1,0.2,1.0,35.0,1,1.0,5.186499000000026
156,1,0.2,0.0625,35.0,1,1.0,3.1213000000000193
157,1,0.2,0.0,-35.0,-1,1.0,11.280200000000036
158,1,0.2,0.125,35.0,1,1.0,0.5268989999999576
159,1,0.2,1.0,-35.0,-1,1.0,2.527499999999918
160,1,0.2,1.0,35.0,1,1.0,0.18089900000006764
161,1,0.2,0.25,-35.0,-1,1.0,2.10979999999995
162,1,0.2,0.125,35.0,-1,0.0,5.78309999999999
163,1,0.2,0.125,35.0,1,1.0,0.31910000000004857
164,1,0.2,0.0,35.0,-1,0.0,3.701000000000022
165,1,0.2,0.25,-35.0,-1,1.0,0.5753999999999451
166,1,0.8,0.25,-35.0,-1,1.0,1.3559000000000196
167,1,0.8,0.25,-35.0,-1,1.0,2.741498999999976
168,1,0.8,0.0,-35.0,-1,1.0,1.9607990000000655
169,1,0.8,0.125,-35.0,-1,1.0,3.3310000000000173
170,1,0.8,0.0625,-35.0,-1,1.0,2.243199999999888
171,1,0.8,0.0,-35.0,-1,1.0,0.2825000000000273
172,1,0.8,0.0625,-35.0,-1,1.0,4.469298999999978
173,1,0.8,0.0625,-35.0,-1,1.0,8.315999999999917
174,1,0.8,1.0,-35.0,-1,1.0,4.512799000000086
175,1,0.8,0.0,-35.0,-1,1.0,7.547799999999938
176,1,0.8,0.125,35.0,1,1.0,2.4851000000001022
177,1,0.8,0.125,-35.0,-1,1.0,6.118200000000115
178,1,0.8,0.0,-35.0,-1,1.0,4.245800000000031
179,1,0.8,1.0,-35.0,-1,1.0,0.387499000000048
180,1,0.8,0.125,-35.0,-1,1.0,0.5432990000000473
181,1,0.8,0.0625,-35.0,-1,1.0,0.35789999999997235
182,1,0.8,0.0625,-35.0,-1,1.0,0.27719999999999345
183,1,0.8,1.0,-35.0,-1,1.0,0.4136000000000877
184,1,0.8,0.0,-35.0,-1,1.0,2.610300000000052
185,1,0.8,0.0,-35.0,-1,1.0,2.5270989999999074
186,1,0.8,0.0625,-35.0,-1,1.0,2.978199000000018
187,1,0.8,0.0,-35.0,-1,1.0,0.7957000000000107
188,1,0.8,1.0,-35.0,-1,1.0,0.3326000000000704
189,1,0.8,0.125,-35.0,-1,1.0,2.3458990000000313
190,1,0.8,0.0625,-35.0,-1,1.0,1.8938999999999169
191,1,0.8,0.125,35.0,-1,0.0,0.6388000000000602
192,1,0.2,0.0,35.0,-1,0.0,0.3393990000000713
193,1,0.2,0.0625,35.0,-1,0.0,0.344600000000014
194,1,0.2,0.0,35.0,1,1.0,1.1336000000000013
195,1,0.2,0.0625,35.0,1,1.0,0.7600999999999658
196,1,0.2,0.0,35.0,1,1.0,10.002000000000066
197,1,0.2,0.0625,35.0,1,1.0,0.5226999999999862
198,1,0.2,0.125,35.0,1,1.0,0.27539999999987685
199,1,0.2,0.125,35.0,1,1.0,0.2516999999999143
200,1,0.2,0.25,35.0,1,1.0,0.5351990000000342
201,1,0.2,0.0625,-35.0,-1,1.0,5.6650999999999385
202,1,0.2,0.125,-35.0,-1,1.0,4.562900000000013
203,1,0.2,0.125,-35.0,-1,1.0,0.5753999999999451
204,1,0.2,0.0,35.0,1,1.0,0.3290999999999258
205,1,0.2,1.0,35.0,1,1.0,0.25579900000002453
206,1,0.2,0.25,35.0,1,1.0,0.23260000000004766
207,1,0.2,0.0,-35.0,1,0.0,2.349099000000024
208,1,0.2,0.25,35.0,1,1.0,0.20929999999998472
209,1,0.2,0.0625,-35.0,-1,1.0,9.579299999999876
210,1,0.2,1.0,-35.0,-1,1.0,0.2727990000000773
211,1,0.2,0.125,35.0,1,1.0,0.2664990000000671
212,1,0.2,0.0625,-35.0,-1,1.0,3.2029989999998634
213,1,0.2,0.0625,-35.0,-1,1.0,2.576599000000215
214,1,0.2,0.25,35.0,1,1.0,0.5465010000000348
215,1,0.2,0.0,35.0,-1,0.0,2.430700999999999
216,1,0.2,0.0625,-35.0,-1,1.0,7.006800000000112
217,1,0.2,0.0,35.0,1,1.0,0.39069999999992433
218,1,0.2,0.25,35.0,1,1.0,0.2538010000000668
219,1,0.2,0.0625,-35.0,-1,1.0,3.060500999999931
220,1,0.2,1.0,-35.0,-1,1.0,4.3972009999999955
221,1,0.2,0.125,35.0,1,1.0,0.2147010000001046
222,1,0.2,0.125,35.0,1,1.0,0.23090000000001965
223,1,0.2,0.125,35.0,1,1.0,0.24100099999986924
224,1,0.2,0.125,35.0,1,1.0,0.1809009999999489
225,1,0.2,0.25,35.0,1,1.0,0.2378000000001066
226,1,0.2,0.25,35.0,1,1.0,0.34100100000000566
227,1,0.2,0.125,35.0,1,1.0,0.6447009999999409
228,1,0.2,1.0,-35.0,1,0.0,0.5911009999999806
229,1,0.2,0.25,35.0,1,1.0,0.22490099999981794
230,1,0.2,0.25,35.0,1,1.0,0.2047010000001137
231,1,0.2,0.25,35.0,1,1.0,0.2317000000000462
232,1,0.2,0.25,-35.0,1,0.0,1.141501000000062
233,1,0.2,1.0,35.0,1,1.0,0.491600999999946
234,1,0.2,0.25,35.0,1,1.0,0.718400999999858
235,1,0.2,0.0625,35.0,-1,0.0,2.135400000000118
236,1,0.2,0.0625,35.0,1,1.0,0.7518009999998867
237,1,0.2,0.0625,35.0,1,1.0,0.41859999999996944
238,1,0.2,0.25,35.0,1,1.0,0.22860099999979866
239,1,0.2,0.125,-35.0,-1,1.0,0.8456009999999878
240,1,0.2,0.125,35.0,1,1.0,0.2321999999999207
241,1,0.2,0.125,35.0,1,1.0,6.262700999999879
242,1,0.2,0.125,35.0,1,1.0,0.3658010000001468
243,1,0.8,0.25,-35.0,1,0.0,1.7831010000002152
244,1,0.8,1.0,-35.0,1,0.0,0.4793009999998503
245,1,0.8,0.0625,-35.0,1,0.0,0.41620100000000093
246,1,0.8,0.0625,-35.0,-1,1.0,6.529600999999957
247,1,0.8,0.0625,-35.0,-1,1.0,3.5632009999999354
248,1,0.8,0.0625,-35.0,-1,1.0,0.6332009999998718
249,1,0.8,0.25,-35.0,-1,1.0,0.7502009999998336
250,1,0.8,0.25,-35.0,-1,1.0,0.5467009999999846
251,1,0.8,0.0,-35.0,-1,1.0,0.30050100000016755
252,1,0.8,0.0625,-35.0,-1,1.0,0.6767999999999574
253,1,0.8,0.0,-35.0,-1,1.0,3.64020000000005
254,1,0.8,0.25,-35.0,-1,1.0,2.8805009999998674
255,1,0.8,0.125,-35.0,-1,1.0,0.34370100000001
256,1,0.8,1.0,35.0,1,1.0,0.7575010000000475
257,1,0.8,1.0,-35.0,-1,1.0,0.5106009999999515
258,1,0.8,1.0,-35.0,-1,1.0,5.610701000000063
259,1,0.8,1.0,-35.0,-1,1.0,2.6341010000001006
260,1,0.8,0.125,-35.0,-1,1.0,2.4877000000001317
261,1,0.8,0.25,35.0,1,1.0,0.3377010000001519
262,1,0.8,0.0,35.0,-1,0.0,11.17810099999997
263,1,0.8,0.125,-35.0,-1,1.0,0.5149010000000089
264,1,0.8,0.0,-35.0,-1,1.0,11.23840099999984
265,1,0.8,0.125,35.0,-1,0.0,2.6852010000000064
266,1,0.8,1.0,-35.0,-1,1.0,1.842200000000048
267,1,0.8,0.0625,35.0,1,1.0,8.531999999999925
268,1,0.8,0.25,-35.0,-1,1.0,1.9924009999999726
269,1,0.8,0.125,-35.0,-1,1.0,5.709100999999919
270,1,0.8,0.125,-35.0,-1,1.0,6.366500999999744
271,1,0.8,0.25,-35.0,-1,1.0,9.789500999999746
272,1,0.8,0.0,-35.0,1,0.0,3.340200999999979
273,1,0.8,0.0625,-35.0,-1,1.0,1.0164009999998598
274,1,0.8,0.0625,-35.0,-1,1.0,6.1502009999999245
275,1,0.8,0.125,35.0,1,1.0,0.6169010000000981
276,1,0.8,0.0,-35.0,-1,1.0,16.120499999999993
277,1,0.8,0.25,35.0,1,1.0,2.690601000000015
278,1,0.8,0.125,-35.0,1,0.0,2.5342000000000553
279,1,0.8,0.25,-35.0,-1,1.0,1.8143009999998867
280,1,0.8,1.0,-35.0,-1,1.0,4.97480100000007
281,1,0.8,0.125,-35.0,-1,1.0,3.7311009999998532
282,1,0.8,0.125,-35.0,-1,1.0,0.2845999999999549
283,1,0.8,1.0,-35.0,-1,1.0,0.5813009999999394
284,1,0.8,0.0625,-35.0,-1,1.0,0.31150099999990744
285,1,0.8,0.25,-35.0,-1,1.0,0.24810099999990598
286,1,0.8,0.25,-35.0,-1,1.0,1.1585999999999785
287,1,0.8,0.125,35.0,1,1.0,1.7149010000000544
288,1,0.8,1.0,-35.0,-1,1.0,1.4350010000000566
289,1,0.8,1.0,-35.0,-1,1.0,0.6618009999999686
290,1,0.8,1.0,-35.0,-1,1.0,0.3154010000000653
291,1,0.8,0.0625,-35.0,-1,1.0,0.6054009999998016
292,1,0.8,0.25,-35.0,-1,1.0,0.32280100000002676
293,1,0.8,0.125,35.0,1,1.0,1.0886999999997897
294,1,0.8,0.125,-35.0,-1,1.0,0.7925010000001294
295,1,0.8,0.0,35.0,1,1.0,5.4355010000001585
296,1,0.8,1.0,35.0,1,1.0,0.4826010000001588
297,1,0.8,1.0,-35.0,-1,1.0,7.995899999999892
298,1,0.8,0.125,-35.0,-1,1.0,1.303201000000172
299,1,0.8,0.25,35.0,-1,0.0,3.392800999999963
300,1,0.8,0.125,-35.0,-1,1.0,2.2664009999998598
301,1,0.8,1.0,-35.0,-1,1.0,8.313000999999986
302,1,0.8,0.0625,-35.0,-1,1.0,2.95350099999996
303,1,0.8,0.0,-35.0,-1,1.0,1.386801000000105
304,1,0.8,1.0,-35.0,-1,1.0,3.2969000000000506
305,1,0.8,0.125,35.0,1,1.0,2.7403009999998176
306,1,0.8,0.0625,-35.0,1,0.0,7.067201000000068
307,1,0.2,0.0,35.0,1,1.0,3.30070099999989
308,1,0.2,0.0,35.0,1,1.0,27.134201000000076
309,1,0.2,0.0,35.0,1,1.0,6.35480100000018
310,1,0.2,0.0,35.0,1,1.0,0.31179999999994834
311,1,0.2,0.0625,35.0,1,1.0,0.6684010000001308
312,1,0.2,0.25,-35.0,-1,1.0,4.615800999999919
313,1,0.2,0.125,35.0,-1,0.0,4.615499999999884
314,1,0.2,0.0625,35.0,1,1.0,0.275700999999799
315,1,0.2,0.0625,35.0,1,1.0,0.5321999999998752
316,1,0.2,1.0,35.0,1,1.0,0.3096009999999296
317,1,0.2,0.0,35.0,1,1.0,0.2924000000000433
318,1,0.2,0.0,-35.0,1,0.0,1.792699999999968
319,1,0.2,0.0625,35.0,1,1.0,0.3358009999999467
320,1,0.2,0.125,35.0,1,1.0,0.3164010000000417
321,1,0.2,0.25,35.0,1,1.0,0.23260099999993145
322,1,0.2,0.0,35.0,1,1.0,0.11300099999994018
323,1,0.2,0.0,35.0,1,1.0,1.5662010000000919
324,1,0.2,0.25,35.0,1,1.0,0.2499009999999089
325,1,0.2,0.0,35.0,1,1.0,0.2296010000000024
326,1,0.2,0.125,35.0,1,1.0,0.3300010000000384
327,1,0.2,1.0,35.0,1,1.0,0.5896010000001297
328,1,0.2,0.0,-35.0,1,0.0,1.5900000000001455
329,1,0.2,0.0,35.0,-1,0.0,6.923101000000088
330,1,0.2,0.0625,-35.0,-1,1.0,2.7638010000000577
331,1,0.2,0.25,35.0,1,1.0,0.3135010000000875
332,1,0.2,0.25,-35.0,-1,1.0,3.453700000000026
333,1,0.2,0.125,35.0,1,1.0,1.9904010000000198
334,1,0.2,0.0625,35.0,1,1.0,1.677400999999918
335,1,0.2,0.25,-35.0,-1,1.0,3.1140009999999165
336,1,0.2,0.0,35.0,-1,0.0,1.4109000000000833
337,1,0.2,0.0,35.0,1,1.0,0.9709009999999125
338,1,0.2,0.25,35.0,1,1.0,0.3546010000000024
339,1,0.2,0.0,35.0,1,1.0,4.587701000000152
340,1,0.2,0.0,35.0,1,1.0,18.80830100000003
341,1,0.2,0.0,35.0,1,1.0,4.245001000000002
342,1,0.2,0.25,35.0,1,1.0,0.2721999999998843
343,1,0.2,1.0,35.0,1,1.0,0.24510000000009313
344,1,0.2,0.0625,-35.0,-1,1.0,8.289600999999948
345,1,0.2,0.0,-35.0,1,0.0,2.6256009999999605
346,1,0.2,0.0,35.0,1,1.0,0.7758010000000013
347,1,0.2,0.125,35.0,1,1.0,0.3624009999998634
348,1,0.2,1.0,35.0,1,1.0,0.2128010000001268
349,1,0.2,0.0625,-35.0,-1,1.0,5.692599999999857
350,1,0.2,0.0625,35.0,1,1.0,0.6395010000001093
351,1,0.2,0.0,35.0,1,1.0,1.8061009999998987
352,1,0.2,0.0625,-35.0,1,0.0,0.38970099999983177
353,1,0.2,0.0625,-35.0,1,0.0,1.6096010000001115
354,1,0.8,1.0,-35.0,-1,1.0,0.4898009999999431
355,1,0.8,0.25,-35.0,-1,1.0,2.8198009999998703
356,1,0.8,0.125,-35.0,-1,1.0,0.29680000000007567
357,1,0.8,0.0,-35.0,-1,1.0,0.8234010000001035
358,1,0.8,0.0,-35.0,-1,1.0,0.543800999999803
359,1,0.8,0.0625,-35.0,-1,1.0,0.9236009999999624
360,1,0.8,0.25,35.0,-1,0.0,2.3536999999998898
361,1,0.8,0.25,-35.0,-1,1.0,4.133700999999974
362,1,0.8,0.0625,-35.0,-1,1.0,1.9641010000000279
363,1,0.8,0.125,-35.0,-1,1.0,6.510500000000093
364,1,0.8,0.0,35.0,-1,0.0,2.174201000000039
365,1,0.8,0.0,-35.0,1,0.0,6.170900999999958
366,1,0.8,0.25,-35.0,1,0.0,0.42540100000019265
367,1,0.8,0.25,-35.0,1,0.0,0.8547009999999773
368,1,0.8,1.0,-35.0,-1,1.0,0.5455010000000584
369,1,0.8,0.25,-35.0,-1,1.0,3.9515010000000075
370,1,0.8,1.0,-35.0,-1,1.0,0.4153009999999995
371,1,0.8,0.25,-35.0,-1,1.0,1.4082999999998265
372,1,0.8,0.0625,35.0,1,1.0,0.8787009999998645
373,1,0.8,0.25,-35.0,-1,1.0,0.5318010000000868
374,1,0.8,0.25,-35.0,-1,1.0,2.82220099999995
375,1,0.8,0.0,-35.0,-1,1.0,6.365499999999884
376,1,0.8,0.125,-35.0,-1,1.0,1.192401000000018
377,1,0.8,0.0,-35.0,-1,1.0,2.2590009999998983
378,1,0.8,0.125,35.0,1,1.0,4.690100999999913
379,1,0.8,0.25,35.0,1,1.0,0.7162009999999555
380,1,0.8,0.0625,-35.0,-1,1.0,8.3896000000002
381,1,0.8,0.0625,35.0,1,1.0,6.196301000000176
382,1,0.8,1.0,-35.0,-1,1.0,0.5004010000002381
383,1,0.8,0.125,-35.0,-1,1.0,2.163300000000163
384,1,0.8,0.25,-35.0,-1,1.0,1.6005009999998947
385,1,0.8,1.0,-35.0,-1,1.0,8.376800000000003
386,1,0.8,0.25,-35.0,-1,1.0,8.674000999999862
387,1,0.8,1.0,-35.0,-1,1.0,2.4906009999999696
388,1,0.8,0.25,-35.0,-1,1.0,2.784400999999889
389,1,0.8,0.0625,-35.0,1,0.0,0.7908999999995103
390,1,0.8,0.0625,-35.0,-1,1.0,4.12800100000004
391,1,0.8,1.0,-35.0,-1,1.0,5.767800999999963
392,1,0.8,0.0,-35.0,-1,1.0,3.6220009999997274
393,1,0.8,0.0625,-35.0,-1,1.0,21.65480000000025
394,1,0.8,0.0625,-35.0,-1,1.0,2.0757010000002083
395,1,0.8,0.125,35.0,1,1.0,0.35200099999974555
396,1,0.8,0.0625,-35.0,-1,1.0,0.39260099999955855
397,1,0.8,0.25,-35.0,-1,1.0,0.5755999999996675
398,1,0.8,1.0,-35.0,-1,1.0,0.8658009999999194
399,1,0.8,0.0625,-35.0,-1,1.0,10.022401000000173
400,1,0.8,0.125,35.0,1,1.0,1.666201000000001
401,1,0.8,1.0,-35.0,-1,1.0,7.176101000000017
402,1,0.8,0.25,35.0,1,1.0,0.3135010000000875
403,1,0.8,1.0,-35.0,-1,1.0,1.926401000000169
404,1,0.8,0.25,-35.0,-1,1.0,0.5241009999995185
405,1,0.8,0.0625,-35.0,-1,1.0,3.373199999999997
406,1,0.8,1.0,-35.0,-1,1.0,2.7771010000001297
407,1,0.8,1.0,-35.0,-1,1.0,0.6668010000003051
408,1,0.8,0.25,-35.0,-1,1.0,14.840600999999879
409,1,0.8,0.0625,-35.0,-1,1.0,2.947200000000066
410,1,0.8,0.25,-35.0,-1,1.0,6.310801000000083
411,1,0.8,1.0,-35.0,1,0.0,4.8309009999998125
412,1,0.8,1.0,-35.0,-1,1.0,0.35780099999965387
413,1,0.8,0.125,-35.0,1,0.0,1.6179010000000744
414,1,0.8,0.0,-35.0,1,0.0,0.29819999999972424
415,1,0.8,1.0,-35.0,-1,1.0,0.45480099999986123
416,1,0.2,0.125,35.0,1,1.0,0.2718009999998685
417,1,0.2,0.125,35.0,1,1.0,0.24490100000002712
418,1,0.2,0.0625,35.0,1,1.0,0.31520099999988815
419,1,0.2,0.0625,-35.0,1,0.0,0.4051009999998314
420,1,0.2,0.25,35.0,1,1.0,0.5690009999998438
421,1,0.2,0.0,35.0,-1,0.0,8.938501000000088
422,1,0.2,0.0625,35.0,1,1.0,0.2862009999998918
423,1,0.2,0.125,35.0,1,1.0,0.5188010000001668
424,1,0.2,0.0625,-35.0,1,0.0,5.672301000000061
425,1,0.2,0.125,-35.0,-1,1.0,0.7657009999998081
426,1,0.2,0.25,35.0,1,1.0,0.3164010000000417
427,1,0.2,0.0625,35.0,1,1.0,0.4827010000003611
428,1,0.2,0.25,35.0,1,1.0,3.0864010000000235
429,1,0.2,0.0625,35.0,1,1.0,5.322701000000052
430,1,0.2,1.0,-35.0,-1,1.0,0.8865010000004077
431,1,0.2,0.125,-35.0,1,0.0,4.9130010000003494
432,1,0.2,0.0625,-35.0,1,0.0,8.293800999999803
433,1,0.2,0.125,35.0,1,1.0,0.380200999999488
434,1,0.2,0.125,35.0,1,1.0,1.4838999999997213
435,1,0.2,0.0,35.0,1,1.0,9.587001000000328
436,1,0.2,1.0,35.0,1,1.0,0.30420100000037564
437,1,0.2,0.25,35.0,1,1.0,0.4607009999999718
438,1,0.2,0.25,35.0,1,1.0,0.23099999999976717
439,1,0.2,0.25,35.0,1,1.0,0.2874010000000453
440,1,0.2,0.0625,35.0,1,1.0,0.25440100000014354
441,1,0.2,0.25,35.0,1,1.0,0.5076010000002498
442,1,0.2,0.0,35.0,1,1.0,3.1013010000001486
443,1,0.2,0.125,35.0,1,1.0,0.7779009999999289
444,1,0.2,0.0625,35.0,1,1.0,0.5254010000003291
445,1,0.2,1.0,35.0,1,1.0,0.27470099999982267
446,1,0.2,0.25,35.0,1,1.0,0.28160099999968224
447,1,0.2,0.25,35.0,1,1.0,0.21820100000059028
448,1,0.2,1.0,35.0,1,1.0,0.17850099999986924
449,1,0.2,1.0,35.0,1,1.0,0.20170099999995728
450,1,0.2,0.0,35.0,1,1.0,1.3619000000003325
451,1,0.2,1.0,-35.0,1,0.0,0.30190100000027087
452,1,0.2,0.0625,-35.0,-1,1.0,0.4954000000002452
453,1,0.2,0.25,35.0,1,1.0,0.2819009999998343
454,1,0.2,1.0,35.0,1,1.0,0.25880099999994854
455,1,0.2,1.0,35.0,1,1.0,0.3755009999995309
456,1,0.2,0.125,35.0,1,1.0,0.262901000000511
457,1,0.2,0.125,35.0,1,1.0,0.22230099999978847
458,1,0.2,0.125,35.0,1,1.0,0.26290100000005623
459,1,0.2,0.0,35.0,-1,0.0,3.685801000000083
460,1,0.2,1.0,35.0,1,1.0,0.22640099999989616
461,1,0.2,1.0,35.0,1,1.0,0.20260099999995873
462,1,0.2,0.125,35.0,1,1.0,0.2731010000002243
463,1,0.2,0.0625,35.0,1,1.0,0.31280100000003586
464,1,0.2,0.0625,-35.0,-1,1.0,0.6697010000002592
465,1,0.2,0.125,35.0,1,1.0,2.786301000000094
466,1,0.2,0.25,35.0,1,1.0,0.9003010000001268
467,1,0.2,1.0,35.0,1,1.0,0.49319999999988795
468,1,0.2,0.0625,35.0,1,1.0,0.3203009999997448
469,1,0.2,0.25,35.0,1,1.0,0.25670099999979357
470,1,0.2,0.0625,-35.0,-1,1.0,13.666701000000558
471,1,0.2,0.0625,35.0,1,1.0,0.8305009999999129
472,1,0.2,0.25,35.0,1,1.0,7.414000000000215
473,1,0.2,1.0,35.0,1,1.0,0.270701000000372
474,1,0.2,0.25,35.0,1,1.0,0.284099999999853
475,1,0.2,0.125,35.0,1,1.0,0.24410100000022794
476,1,0.2,0.0625,35.0,1,1.0,0.5210009999996146
477,1,0.2,0.0625,35.0,1,1.0,0.34100100000023303
478,1,0.2,0.0625,-35.0,-1,1.0,7.097900000000209
479,1,0.2,0.0625,35.0,-1,0.0,5.767900999999711
480,1,0.2,1.0,35.0,1,1.0,0.34839999999985594
481,1,0.8,0.0625,-35.0,1,0.0,7.211601000000428
482,1,0.8,0.25,-35.0,-1,1.0,0.42220099999985905
483,1,0.8,0.25,-35.0,-1,1.0,1.3885009999994509
484,1,0.8,0.0625,-35.0,-1,1.0,0.40540099999998347
485,1,0.8,0.0625,-35.0,-1,1.0,6.732101000000057
486,1,0.8,0.0,-35.0,-1,1.0,2.529301000000032
487,1,0.8,0.25,-35.0,-1,1.0,0.39570000000003347
488,1,0.8,0.125,-35.0,-1,1.0,0.7825010000005932
489,1,0.8,0.25,35.0,-1,0.0,4.182600999999977
490,1,0.8,0.25,-35.0,-1,1.0,0.3664010000002236
491,1,0.8,0.0625,-35.0,-1,1.0,4.656101000000035
492,1,0.8,0.0,35.0,-1,0.0,5.596801000000141
493,1,0.8,0.0625,-35.0,-1,1.0,0.27999999999974534
494,1,0.8,1.0,-35.0,-1,1.0,1.017099999999573
495,1,0.8,0.0625,35.0,1,1.0,2.767001000000164
496,1,0.8,0.25,-35.0,-1,1.0,6.763499999999567
497,1,0.8,0.125,-35.0,-1,1.0,0.5771009999998569
498,1,0.8,0.125,-35.0,1,0.0,0.7912010000000009
499,1,0.8,0.125,35.0,-1,0.0,1.1773010000001705
500,1,0.8,0.125,-35.0,-1,1.0,0.6043010000003051
501,1,0.8,1.0,-35.0,-1,1.0,1.2774010000002818
502,1,0.8,0.0,-0.0,0,0.0,60.00450099999989
503,1,0.8,0.25,-35.0,-1,1.0,3.8754009999997834
504,1,0.8,0.0625,35.0,1,1.0,0.38910100000020975
505,1,0.8,0.0,35.0,-1,0.0,0.3993009999999231
506,1,0.8,0.125,-35.0,-1,1.0,46.75270000000046
507,1,0.8,0.0,-35.0,-1,1.0,3.777900999999929
508,1,0.8,0.125,-35.0,-1,1.0,8.577100999999857
509,1,0.8,0.0625,-35.0,-1,1.0,13.371001000000433
510,1,0.8,0.0,-35.0,-1,1.0,8.677599999999984
511,1,0.8,1.0,-35.0,-1,1.0,6.121700999999575
512,1,0.2,1.0,35.0,1,1.0,2.291501000000153
513,1,0.2,0.0625,35.0,1,1.0,15.075001000000157
514,1,0.2,1.0,35.0,1,1.0,0.22870000000011714
515,1,0.2,0.0,35.0,-1,0.0,19.082500999999866
516,1,0.2,0.125,-35.0,-1,1.0,22.569300000000112
517,1,0.2,1.0,35.0,1,1.0,0.33000099999981103
518,1,0.2,0.125,35.0,1,1.0,0.31320099999993545
519,1,0.2,0.125,35.0,1,1.0,0.23350100000016027
520,1,0.2,0.0,35.0,-1,0.0,0.56670000000031
521,1,0.2,0.0625,35.0,1,1.0,30.080300000000534
522,1,0.2,0.125,35.0,-1,0.0,5.370800000000145
523,1,0.2,0.0625,-35.0,-1,1.0,20.751200000000154
524,1,0.2,0.25,35.0,1,1.0,0.2547010000002956
525,1,0.2,0.125,35.0,-1,0.0,11.992501000000175
526,1,0.2,0.0625,35.0,-1,0.0,19.621800999999778
527,1,0.2,0.0,35.0,-1,0.0,26.855801000000156
528,1,0.2,1.0,35.0,1,1.0,0.8530009999999493
529,1,0.2,0.0,35.0,1,1.0,40.21650099999988
530,1,0.2,0.25,35.0,1,1.0,16.730900999999903
531,1,0.2,0.0625,35.0,-1,0.0,2.754699999999957
532,1,0.2,1.0,35.0,-1,0.0,2.7147009999998772
1,2,0.5,0.0,-35.0,1,0.0,2.1580000000000004
2,2,0.5,0.0,35.0,-1,0.0,55.4929
3,2,0.5,0.25,35.0,1,1.0,0.566900000000004
4,2,0.5,0.125,-35.0,-1,1.0,0.3012990000000002
5,2,0.5,0.0,-35.0,-1,1.0,3.071300000000008
6,2,0.5,1.0,-35.0,-1,1.0,0.29729900000000953
7,2,0.5,0.125,35.0,1,1.0,0.3466990000000152
8,2,0.5,0.125,-35.0,-1,1.0,0.44869899999999063
9,2,0.5,0.0625,35.0,-1,0.0,2.473599000000007
10,2,0.5,1.0,-35.0,-1,1.0,0.39860000000001605
11,2,0.5,0.0625,35.0,1,1.0,0.28240000000000975
12,2,0.5,0.0,-35.0,-1,1.0,0.512100000000018
13,2,0.5,1.0,35.0,1,1.0,0.1846000000000032
14,2,0.5,1.0,35.0,1,1.0,0.22970000000000823
15,2,0.5,0.0625,-35.0,1,0.0,1.3582999999999998
16,2,0.5,0.0625,-35.0,-1,1.0,2.4591000000000065
17,2,0.5,0.125,-35.0,1,0.0,3.831700000000012
18,2,0.5,1.0,35.0,1,1.0,0.24699999999998568
19,2,0.5,1.0,35.0,1,1.0,2.12889899999999
20,2,0.5,0.0625,35.0,1,1.0,0.3101999999999805
21,2,0.5,1.0,35.0,1,1.0,0.22599999999997067
22,2,0.5,0.0,35.0,1,1.0,1.7460000000000093
23,2,0.5,0.0625,-35.0,-1,1.0,0.5104999999999791
24,2,0.5,0.25,-35.0,-1,1.0,1.2267999999999688
25,2,0.5,0.0625,35.0,1,1.0,4.219099999999997
26,2,0.5,1.0,-35.0,-1,1.0,3.062400000000025
27,2,0.5,0.25,35.0,1,1.0,0.1560000000000059
28,2,0.5,1.0,-35.0,-1,1.0,0.7559989999999743
29,2,0.5,0.0625,-35.0,1,0.0,0.09030000000001337
30,2,0.5,0.25,35.0,1,1.0,0.2906989999999894
31,2,0.5,0.125,35.0,1,1.0,0.24739999999999895
32,2,0.5,1.0,-35.0,-1,1.0,0.2670999999999992
33,2,0.5,0.0625,-35.0,1,0.0,0.26840000000001396
34,2,0.5,0.0625,-35.0,-1,1.0,0.2738989999999717
35,2,0.5,1.0,-35.0,-1,1.0,0.2694999999999652
36,2,0.5,0.0,35.0,-1,0.0,2.296098999999998
37,2,0.5,0.125,-35.0,-1,1.0,1.1379990000000078
38,2,0.5,0.25,35.0,1,1.0,0.9819989999999734
39,2,0.5,0.0,-35.0,1,0.0,3.017799999999994
40,2,0.5,0.25,-35.0,-1,1.0,2.747700000000009
41,2,0.5,0.0625,-35.0,-1,1.0,3.164299000000028
42,2,0.5,0.25,35.0,1,1.0,0.23900000000000432
43,2,0.5,0.25,-35.0,-1,1.0,0.4042999999999779
44,2,0.5,1.0,35.0,1,1.0,0.18019999999998504
45,2,0.5,1.0,35.0,1,1.0,0.27439999999998577
46,2,0.5,0.0,35.0,1,1.0,2.075599000000011
47,2,0.5,0.125,-35.0,-1,1.0,0.3331990000000076
48,2,0.5,0.0,35.0,1,1.0,0.13279899999997724
49,2,0.5,0.0,35.0,-1,0.0,6.348199999999991
50,2,0.5,0.0625,-35.0,-1,1.0,9.956099000000052
51,2,0.5,0.125,35.0,1,1.0,0.3316990000000146
52,2,0.5,0.0625,-35.0,1,0.0,0.18369999999998754
53,2,0.5,0.125,-35.0,-1,1.0,3.4272000000000276
54,2,0.5,0.0625,-35.0,1,0.0,0.2545000000000073
55,2,0.5,0.25,-35.0,-1,1.0,0.6320989999999824
56,2,0.5,1.0,-35.0,-1,1.0,0.8387989999999945
57,2,0.5,1.0,35.0,1,1.0,0.30989999999997053
58,2,0.5,0.0,35.0,-1,0.0,3.078200000000038
59,2,0.5,0.125,35.0,1,1.0,0.23399899999998297
60,2,0.5,1.0,35.0,1,1.0,0.23289999999997235
61,2,0.5,0.125,35.0,1,1.0,2.240000000000009
62,2,0.5,1.0,-35.0,1,0.0,1.2108990000000404
63,2,0.5,0.0,35.0,1,1.0,0.2796000000000163
64,2,0.5,0.125,35.0,1,1.0,0.6988000000000056
65,2,0.5,0.125,35.0,1,1.0,0.2727999999999611
66,2,0.5,0.125,35.0,1,1.0,0.2364989999999807
67,2,0.5,0.0625,35.0,1,1.0,2.655400000000043
68,2,0.5,0.0,-35.0,1,0.0,2.1246999999999616
69,2,0.5,0.25,35.0,1,1.0,2.703199999999981
70,2,0.5,0.0625,35.0,1,1.0,2.9570000000000505
71,2,0.5,0.25,35.0,1,1.0,4.6174989999999525
72,2,0.5,0.0,35.0,-1,0.0,1.21550000000002
73,2,0.5,0.25,35.0,1,1.0,0.5412000000000603
74,2,0.5,0.125,35.0,1,1.0,0.30539900000007947
75,2,0.5,0.0625,-35.0,-1,1.0,1.349300000000028
76,2,0.5,0.0,35.0,1,1.0,3.3823999999999614
77,2,0.5,0.0625,35.0,1,1.0,0.4911999999999921
78,2,0.5,0.125,-35.0,1,0.0,2.6200000000000045
79,2,0.5,1.0,-35.0,-1,1.0,0.7305000000000632
80,2,0.5,0.25,35.0,1,1.0,2.242400000000032
81,2,0.5,0.0625,-35.0,1,0.0,1.3483999999999696
82,2,0.5,0.0625,-35.0,1,0.0,0.334399000000019
83,2,0.5,0.125,35.0,1,1.0,0.36369999999999436
84,2,0.5,0.25,35.0,1,1.0,0.5245990000000234
85,2,0.5,0.0,35.0,1,1.0,3.0311000000000377
86,2,0.5,1.0,-35.0,-1,1.0,0.5247999999999706
87,2,0.5,0.125,-35.0,1,0.0,1.2857999999999947
88,2,0.5,0.0625,35.0,1,1.0,0.22799900000001116
89,2,0.5,0.0,35.0,1,1.0,0.26810000000006085
90,2,0.5,0.125,35.0,1,1.0,0.2659990000000221
91,2,0.2,0.0625,35.0,1,1.0,0.31850000000002865
92,2,0.2,0.25,-35.0,-1,1.0,1.01669899999996
93,2,0.2,0.25,35.0,1,1.0,0.19350000000002865
94,2,0.2,1.0,35.0,1,1.0,0.20539999999999736
95,2,0.2,0.0625,-35.0,1,0.0,1.0249000000000024
96,2,0.2,0.0625,35.0,1,1.0,0.2991999999999848
97,2,0.2,0.25,35.0,1,1.0,0.21169900000001007
98,2,0.2,0.125,-35.0,1,0.0,0.565400000000011
99,2,0.2,1.0,-35.0,-1,1.0,0.5323000000000775
100,2,0.2,1.0,35.0,1,1.0,0.219299000000035
101,2,0.2,0.25,35.0,1,1.0,0.21829999999999927
102,2,0.2,0.0,35.0,-1,0.0,3.4839000000000055
103,2,0.2,0.125,35.0,1,1.0,0.30039900000002717
104,2,0.2,0.25,35.0,1,1.0,0.21170000000000755
105,2,0.2,0.125,35.0,1,1.0,0.262800000000027
106,2,0.2,0.125,35.0,1,1.0,0.3449000000000524
107,2,0.2,0.0,-35.0,1,0.0,0.28359899999998106
108,2,0.2,0.0,35.0,1,1.0,0.3706999999999425
109,2,0.2,0.125,35.0,1,1.0,0.3227000000000544
110,2,0.2,1.0,35.0,1,1.0,0.23699999999996635
111,2,0.2,1.0,-35.0,-1,1.0,0.4133000000000493
112,2,0.2,0.125,35.0,1,1.0,0.2743000000000393
113,2,0.2,0.0,35.0,1,1.0,0.5161999999999125
114,2,0.2,1.0,35.0,1,1.0,0.17289999999991323
115,2,0.2,0.125,-35.0,-1,1.0,0.5754989999999225
116,2,0.8,0.0,-35.0,-1,1.0,3.0458999999999605
117,2,0.8,0.125,-35.0,1,0.0,0.23729899999989357
118,2,0.8,1.0,-35.0,-1,1.0,0.5445999999999458
119,2,0.8,0.0,-35.0,1,0.0,0.3453999999999269
120,2,0.8,0.25,35.0,1,1.0,0.27709999999990487
121,2,0.8,0.0,-35.0,-1,1.0,0.413599999999974
122,2,0.8,0.25,-35.0,-1,1.0,0.28009899999995014
123,2,0.8,0.125,-35.0,-1,1.0,0.7323989999999867
124,2,0.8,0.25,-35.0,-1,1.0,0.2801000000000613
125,2,0.8,0.125,-35.0,-1,1.0,0.5458990000000767
126,2,0.8,0.25,-35.0,-1,1.0,0.2477000000000089
127,2,0.8,1.0,35.0,1,1.0,0.2216000000000804
128,2,0.8,0.125,-35.0,1,0.0,0.1378989999999476
129,2,0.8,0.25,-35.0,-1,1.0,0.6064999999999827
130,2,0.8,0.0,-35.0,-1,1.0,0.7712999999999965
131,2,0.8,1.0,-35.0,-1,1.0,0.3874999999999318
132,2,0.8,0.0625,-35.0,1,0.0,0.27579900000000634
133,2,0.8,0.0625,-35.0,-1,1.0,0.6547999999999092
134,2,0.8,0.25,-35.0,-1,1.0,2.599499999999921
135,2,0.8,0.25,-35.0,-1,1.0,0.38379999999995107
136,2,0.8,0.0,-35.0,1,0.0,0.5802999999999656
137,2,0.8,0.0625,-35.0,-1,1.0,0.2536000000000058
138,2,0.8,0.25,-35.0,-1,1.0,1.25649999999996
139,2,0.8,0.125,35.0,-1,0.0,2.739398999999935
140,2,0.8,1.0,35.0,1,1.0,0.1778999999999087
141,2,0.8,0.25,-35.0,-1,1.0,0.29589999999996053
142,2,0.8,0.0625,-35.0,-1,1.0,0.6477999999999611
143,2,0.8,0.0,35.0,-1,0.0,2.5027999999999793
144,2,0.8,0.0,-35.0,1,0.0,0.6325999999999112
145,2,0.8,0.0625,-35.0,-1,1.0,3.426198999999883
146,2,0.8,0.25,-35.0,-1,1.0,0.8050000000000637
147,2,0.8,1.0,35.0,-1,0.0,0.22079999999982647
148,2,0.8,0.0,-35.0,1,0.0,0.3572000000000344
149,2,0.8,0.0,-35.0,-1,1.0,2.7862989999999854
150,2,0.8,0.0625,35.0,1,1.0,0.29719999999997526
151,2,0.8,0.125,-35.0,1,0.0,0.2057999999999538
152,2,0.8,0.0,-35.0,-1,1.0,1.7802999999998974
153,2,0.8,0.0,35.0,-1,0.0,3.639099999999985
154,2,0.8,0.25,-35.0,-1,1.0,0.5065999999999349
155,2,0.8,0.25,-35.0,-1,1.0,0.5527999999999338
156,2,0.8,0.125,-35.0,-1,1.0,0.4293999999998732
157,2,0.8,0.0,-35.0,-1,1.0,0.41800000000000637
158,2,0.8,0.25,-35.0,-1,1.0,0.38449900000000525
159,2,0.8,0.25,-35.0,-1,1.0,0.36750000000006366
160,2,0.8,0.0625,35.0,1,1.0,0.47909999999990305
161,2,0.8,0.25,35.0,1,1.0,0.27099999999995816
162,2,0.8,1.0,-35.0,-1,1.0,0.6450989999999592
163,2,0.8,0.0,-35.0,-1,1.0,1.6213989999999967
164,2,0.8,0.125,-35.0,-1,1.0,0.664299999999912
165,2,0.8,1.0,-35.0,-1,1.0,0.2461999999999307
166,2,0.8,0.125,-35.0,-1,1.0,0.573099999999954
167,2,0.8,0.0,-35.0,-1,1.0,0.9209999999999354
168,2,0.8,0.0,-35.0,-1,1.0,0.8799999999998818
169,2,0.8,1.0,-35.0,-1,1.0,0.6358999999999924
170,2,0.8,0.125,-35.0,-1,1.0,0.21089899999992667
171,2,0.8,0.125,35.0,1,1.0,0.5743999999999687
172,2,0.8,1.0,-35.0,-1,1.0,0.2663989999999785
173,2,0.8,0.0,35.0,-1,0.0,0.2520999999999276
174,2,0.8,0.125,-35.0,-1,1.0,1.9962999999999056
175,2,0.8,0.0625,-35.0,-1,1.0,0.25530000000003383
176,2,0.8,0.0625,-35.0,-1,1.0,0.4843999999999369
177,2,0.8,0.0625,35.0,-1,0.0,0.9547000000000025
178,2,0.8,1.0,-35.0,-1,1.0,2.169599999999946
179,2,0.8,0.0625,-35.0,-1,1.0,0.23869999999988067
180,2,0.8,0.125,-35.0,-1,1.0,0.4904000000000224
181,2,0.8,0.0,35.0,-1,0.0,0.40909899999996924
182,2,0.8,0.0,-35.0,1,0.0,1.0714999999999009
183,2,0.8,0.125,-35.0,-1,1.0,5.730199999999968
184,2,0.8,0.125,-35.0,-1,1.0,0.7558999999999969
185,2,0.8,0.0625,35.0,1,1.0,0.6849999999999454
186,2,0.8,0.25,-35.0,-1,1.0,2.9404999999998154
187,2,0.8,0.25,-35.0,1,0.0,3.0557990000000927
188,2,0.8,0.0,-35.0,-1,1.0,0.4936999999999898
189,2,0.8,1.0,-35.0,-1,1.0,0.5800000000000409
190,2,0.8,0.0,-35.0,-1,1.0,0.610798999999929
191,2,0.8,1.0,35.0,1,1.0,0.21519999999986794
192,2,0.8,0.0625,-35.0,1,0.0,0.7337999999998601
193,2,0.8,0.125,-35.0,1,0.0,0.4700999999998885
194,2,0.8,1.0,-35.0,1,0.0,0.07799999999997453
195,2,0.8,1.0,-35.0,-1,1.0,0.4538989999999785
196,2,0.8,0.0,35.0,-1,0.0,0.553899999999885
197,2,0.8,0.0625,-35.0,-1,1.0,0.411698999999885
198,2,0.8,0.125,-35.0,-1,1.0,0.5251999999999271
199,2,0.8,0.125,-35.0,-1,1.0,0.6180990000000293
200,2,0.8,1.0,35.0,1,1.0,0.2321999999999207
201,2,0.8,0.25,-35.0,1,0.0,0.16589999999996508
202,2,0.8,0.125,-35.0,1,0.0,0.5503999999999678
203,2,0.8,0.0625,-35.0,1,0.0,3.7503999999998996
204,2,0.8,0.25,-35.0,-1,1.0,0.44729899999992995
205,2,0.8,0.25,-35.0,-1,1.0,0.2705999999999449
206,2,0.8,0.125,-35.0,-1,1.0,4.07369899999992
207,2,0.8,1.0,35.0,1,1.0,0.20180000000004839
208,2,0.8,0.0625,-35.0,-1,1.0,0.5908999999999196
209,2,0.8,0.125,-35.0,-1,1.0,0.5724999999999909
210,2,0.8,0.25,-35.0,1,0.0,0.3143999999999778
211,2,0.2,0.0625,35.0,1,1.0,0.19359999999983302
212,2,0.2,0.0,35.0,-1,0.0,0.44079899999996996
213,2,0.2,0.0,35.0,1,1.0,4.062599999999861
214,2,0.2,0.0625,-35.0,-1,1.0,0.5699989999999389
215,2,0.2,0.25,35.0,1,1.0,0.3978989999999385
216,2,0.2,0.125,35.0,1,1.0,0.23519899999996596
217,2,0.2,0.125,35.0,1,1.0,0.169399999999996
218,2,0.2,0.0625,35.0,1,1.0,0.35599999999999454
219,2,0.2,1.0,-35.0,1,0.0,3.6631999999999607
220,2,0.2,0.25,35.0,1,1.0,0.40449999999998454
221,2,0.2,0.25,35.0,1,1.0,0.2520999999999276
222,2,0.2,0.125,35.0,1,1.0,0.34999999999990905
223,2,0.2,1.0,35.0,1,1.0,0.2278999999998632
224,2,0.2,0.25,35.0,1,1.0,0.20810000000005857
225,2,0.2,0.0625,35.0,1,1.0,0.09209999999995944
226,2,0.2,1.0,35.0,1,1.0,0.22359999999991942
227,2,0.2,0.0,35.0,1,1.0,0.3734999999999218
228,2,0.2,0.0,-35.0,-1,1.0,0.7371999999999161
229,2,0.2,0.0625,35.0,1,1.0,0.26349900000002435
230,2,0.2,0.125,35.0,1,1.0,0.10410000000001673
231,2,0.2,0.0625,35.0,1,1.0,0.2737000000000762
232,2,0.2,0.25,35.0,1,1.0,0.1540989999998601
233,2,0.2,0.25,35.0,1,1.0,0.25720000000001164
234,2,0.2,0.0625,35.0,1,1.0,0.2341989999999896
235,2,0.2,0.25,35.0,1,1.0,0.1774000000000342
236,2,0.2,0.0625,-35.0,-1,1.0,0.5709000000001652
237,2,0.2,1.0,-35.0,-1,1.0,0.29399999999986903
238,2,0.2,0.0,35.0,-1,0.0,1.507799999999861
239,2,0.2,0.0,35.0,1,1.0,6.18769999999995
240,2,0.2,1.0,35.0,1,1.0,0.17810000000008586
241,2,0.2,1.0,35.0,1,1.0,0.19499900000005255
242,2,0.2,0.25,35.0,1,1.0,0.1816999999998643
243,2,0.2,0.25,35.0,1,1.0,0.24179899999990084
244,2,0.2,1.0,-35.0,-1,1.0,0.37839900000017224
245,2,0.2,0.25,-35.0,1,0.0,0.16190000000005966
246,2,0.2,0.25,35.0,1,1.0,0.2018999999997959
247,2,0.2,1.0,-35.0,-1,1.0,0.3050999999998112
248,2,0.2,0.25,35.0,1,1.0,0.2686999999998534
249,2,0.2,0.0625,-35.0,1,0.0,0.2119999999997617
250,2,0.2,0.0,35.0,-1,0.0,0.4955999999999676
251,2,0.2,0.0625,-35.0,-1,1.0,0.34600000000000364
252,2,0.2,0.25,35.0,1,1.0,0.31249899999988884
253,2,0.2,1.0,-35.0,-1,1.0,0.4657999999999447
254,2,0.2,0.0,35.0,-1,0.0,3.6059000000000196
255,2,0.2,1.0,35.0,1,1.0,0.24569999999994252
256,2,0.2,0.125,35.0,1,1.0,0.5193990000000213
257,2,0.2,0.125,-35.0,1,0.0,7.2224999999998545
258,2,0.8,0.0,-35.0,-1,1.0,10.442999999999756
259,2,0.8,0.125,-35.0,-1,1.0,3.5495989999999438
260,2,0.8,0.0625,-35.0,-1,1.0,2.4501000000000204
261,2,0.8,0.125,35.0,-1,0.0,3.8268000000000484
262,2,0.8,0.0625,-35.0,-1,1.0,3.460399000000052
263,2,0.8,0.0625,-35.0,-1,1.0,6.34699999999998
264,2,0.8,0.0625,35.0,-1,0.0,1.9506999999998698
265,2,0.8,0.125,-35.0,-1,1.0,0.4073000000000775
266,2,0.8,1.0,-35.0,-1,1.0,0.29749999999989996
267,2,0.8,1.0,-35.0,-1,1.0,2.1539999999999964
268,2,0.8,0.0,-35.0,-1,1.0,1.8511000000000877
269,2,0.8,1.0,-35.0,-1,1.0,3.8641999999999825
270,2,0.8,0.125,-35.0,-1,1.0,0.37790000000018154
271,2,0.8,0.25,35.0,-1,0.0,0.47119999999995343
272,2,0.8,1.0,-35.0,-1,1.0,0.34469899999976406
273,2,0.8,1.0,-35.0,-1,1.0,0.3645000000001346
274,2,0.8,0.25,-35.0,-1,1.0,2.0382999999999356
275,2,0.8,0.0625,-35.0,-1,1.0,4.298000000000002
276,2,0.8,0.0625,-35.0,-1,1.0,0.618398999999954
277,2,0.8,1.0,-35.0,-1,1.0,0.29159999999978936
278,2,0.8,0.0625,-35.0,-1,1.0,1.0555000000001655
279,2,0.8,0.25,-35.0,-1,1.0,3.191499999999678
280,2,0.8,0.0625,-35.0,-1,1.0,0.23199899999985973
281,2,0.8,0.125,-35.0,-1,1.0,0.4885999999999058
282,2,0.8,0.0,-35.0,-1,1.0,2.3823999999999614
283,2,0.8,0.125,-35.0,-1,1.0,1.5122989999999845
284,2,0.8,0.0,-35.0,-1,1.0,1.1257999999997992
285,2,0.8,0.0625,-35.0,-1,1.0,0.6589999999998781
286,2,0.8,0.125,-35.0,-1,1.0,2.7092999999999847
287,2,0.8,0.25,-35.0,-1,1.0,0.2928999999999178
288,2,0.8,1.0,-35.0,-1,1.0,0.326200000000199
289,2,0.8,0.25,-35.0,-1,1.0,1.2393999999999323
290,2,0.8,0.0,-35.0,-1,1.0,1.9863000000000284
291,2,0.8,0.0,-35.0,-1,1.0,0.22649999999998727
292,2,0.8,0.0625,-35.0,-1,1.0,0.2963999999999487
293,2,0.8,0.0,-35.0,-1,1.0,2.459799999999859
294,2,0.8,0.125,-35.0,-1,1.0,1.4698989999999412
295,2,0.8,0.0,35.0,-1,0.0,0.2165999999997439
296,2,0.8,1.0,-35.0,-1,1.0,1.813399999999774
297,2,0.8,1.0,35.0,1,1.0,0.5837989999997717
298,2,0.8,0.25,-35.0,-1,1.0,5.073699999999917
299,2,0.8,0.0625,-35.0,-1,1.0,4.773799999999937
300,2,0.2,0.25,35.0,1,1.0,0.2340999999998985
301,2,0.2,0.25,35.0,1,1.0,0.27710000000001855
302,2,0.2,0.0625,-35.0,-1,1.0,4.547499000000016
303,2,0.2,0.0,35.0,-1,0.0,1.040798999999879
304,2,0.2,0.25,-35.0,-1,1.0,1.8843999999999141
305,2,0.2,0.0,35.0,-1,0.0,3.930898999999954
306,2,0.2,0.0,-35.0,-1,1.0,0.4114000000001852
307,2,0.2,0.0,35.0,-1,0.0,3.004598999999871
308,2,0.2,0.25,-35.0,-1,1.0,0.29500000000007276
309,2,0.2,0.125,35.0,1,1.0,0.7646990000000642
310,2,0.2,0.25,35.0,1,1.0,0.49499999999989086
311,2,0.2,1.0,35.0,1,1.0,0.3849999999999909
312,2,0.2,0.0,35.0,1,1.0,1.1984999999999673
313,2,0.2,0.0,35.0,1,1.0,2.2020999999997457
314,2,0.2,1.0,35.0,1,1.0,0.26539999999977226
315,2,0.2,0.25,35.0,1,1.0,0.2021999999997206
316,2,0.2,0.0,35.0,-1,0.0,0.532198999999764
317,2,0.2,0.125,35.0,1,1.0,0.6520000000000437
318,2,0.2,0.125,35.0,1,1.0,0.27909900000008747
319,2,0.2,0.0625,35.0,1,1.0,0.24559900000008383
320,2,0.2,0.0,35.0,-1,0.0,4.496099999999842
321,2,0.2,0.0625,-35.0,-1,1.0,0.2925000000000182
322,2,0.2,0.0,35.0,-1,0.0,7.7029
323,2,0.2,0.125,35.0,1,1.0,0.2196000000001277
324,2,0.2,1.0,35.0,1,1.0,0.1530999999999949
325,2,0.2,0.125,-35.0,1,0.0,3.3627000000001317
326,2,0.2,0.0625,-35.0,-1,1.0,0.4466989999998532
327,2,0.2,0.0,35.0,-1,0.0,0.3031989999999496
328,2,0.2,0.0,35.0,-1,0.0,0.4034999999998945
329,2,0.2,1.0,35.0,1,1.0,0.2699000000000069
330,2,0.2,0.0,35.0,1,1.0,0.24040000000013606
331,2,0.2,0.0,35.0,1,1.0,0.28389999999990323
332,2,0.2,1.0,35.0,1,1.0,0.10040000000003602
333,2,0.2,1.0,35.0,1,1.0,0.2869999999998072
334,2,0.2,0.25,-35.0,1,0.0,0.23719999999980246
335,2,0.2,1.0,35.0,1,1.0,0.1775000000000091
336,2,0.2,0.125,-35.0,-1,1.0,0.434099999999944
337,2,0.2,0.0,35.0,-1,0.0,3.4871989999999187
338,2,0.2,1.0,35.0,1,1.0,0.20770000000015898
339,2,0.2,0.0625,-35.0,-1,1.0,0.4779000000000906
340,2,0.2,0.25,35.0,1,1.0,0.22789899999997942
341,2,0.2,0.125,35.0,1,1.0,0.18129999999973734
342,2,0.2,0.25,35.0,1,1.0,0.2414000000001124
343,2,0.2,0.125,35.0,1,1.0,0.2443999999998141
344,2,0.2,0.0,35.0,1,1.0,17.354798999999957
345,2,0.2,0.0625,35.0,1,1.0,0.42480000000000473
346,2,0.2,0.0,35.0,1,1.0,0.8287000000000262
347,2,0.2,0.0,35.0,1,1.0,0.6054999999998927
348,2,0.2,0.25,35.0,1,1.0,0.2153000000000702
349,2,0.2,0.0625,-35.0,1,0.0,0.19519999999988613
350,2,0.2,1.0,35.0,1,1.0,0.18879900000001726
351,2,0.2,1.0,35.0,1,1.0,0.21880000000010114
352,2,0.2,0.125,35.0,1,1.0,0.2255999999999858
353,2,0.8,1.0,35.0,1,1.0,0.1958999999999378
354,2,0.8,0.125,-35.0,1,0.0,4.039199999999937
355,2,0.8,0.125,-35.0,-1,1.0,0.5989990000000489
356,2,0.8,0.125,-35.0,-1,1.0,0.46270000000004075
357,2,0.8,0.0625,-35.0,-1,1.0,2.152900000000045
358,2,0.8,0.0,-35.0,1,0.0,0.25290000000018154
359,2,0.8,1.0,-35.0,-1,1.0,0.45260000000007494
360,2,0.8,1.0,-35.0,-1,1.0,0.25309999999990396
361,2,0.8,1.0,-35.0,-1,1.0,0.6660989999998037
362,2,0.8,0.0625,-35.0,1,0.0,0.21979899999996633
363,2,0.8,0.125,-35.0,-1,1.0,0.3295999999998003
364,2,0.8,0.0,35.0,-1,0.0,0.39340000000015607
365,2,0.8,1.0,-35.0,-1,1.0,0.9430999999999585
366,2,0.8,0.0,-35.0,-1,1.0,1.5767989999999372
367,2,0.8,0.0625,-35.0,-1,1.0,1.9399000000000797
368,2,0.8,0.25,-35.0,-1,1.0,1.6671989999999823
369,2,0.8,1.0,-35.0,-1,1.0,0.3870999999999185
370,2,0.8,1.0,-35.0,-1,1.0,0.29389999999989413
371,2,0.8,0.125,-35.0,-1,1.0,0.36409900000012385
372,2,0.8,0.0,-35.0,-1,1.0,0.36740000000008877
373,2,0.8,0.25,-35.0,-1,1.0,0.5738999999998668
374,2,0.8,0.0625,35.0,-1,0.0,3.877499999999827
375,2,0.8,0.25,-35.0,-1,1.0,0.3139000000001033
376,2,0.8,0.25,-35.0,-1,1.0,0.27109999999993306
377,2,0.8,0.0625,35.0,1,1.0,0.41099899999994705
378,2,0.8,0.125,-35.0,-1,1.0,0.2745990000000802
379,2,0.8,0.125,-35.0,-1,1.0,0.764299999999821
380,2,0.8,0.0625,-35.0,-1,1.0,1.1879989999999907
381,2,0.8,0.125,35.0,1,1.0,0.47129999999992833
382,2,0.8,1.0,-35.0,-1,1.0,0.538300000000163
383,2,0.8,0.0,-35.0,-1,1.0,2.644598999999971
384,2,0.8,0.0625,-35.0,-1,1.0,0.4250999999999294
385,2,0.8,1.0,-35.0,-1,1.0,0.4882000000000062
386,2,0.8,0.0,-35.0,-1,1.0,7.698598999999831
387,2,0.8,0.0625,-35.0,-1,1.0,0.8423999999999978
388,2,0.8,0.0,-35.0,-1,1.0,0.7822000000001026
389,2,0.8,0.125,-35.0,-1,1.0,0.945498999999927
390,2,0.8,0.0625,-35.0,-1,1.0,0.7656000000001768
391,2,0.8,0.0625,-35.0,-1,1.0,0.3224999999999909
392,2,0.8,0.0625,-35.0,-1,1.0,0.5126000000000204
393,2,0.8,0.125,35.0,1,1.0,0.26579999999989923
394,2,0.2,0.25,-35.0,-1,1.0,0.6159989999998743
395,2,0.2,1.0,35.0,1,1.0,0.265999999999849
396,2,0.2,0.25,35.0,1,1.0,0.20610000000010587
397,2,0.2,0.25,-35.0,1,0.0,0.25279999999997926
398,2,0.2,1.0,35.0,1,1.0,0.23630000000002838
399,2,0.2,0.0625,35.0,-1,0.0,2.799299999999903
400,2,0.2,0.0,35.0,1,1.0,0.2098999999998341
401,2,0.2,1.0,35.0,1,1.0,0.24610000000006949
402,2,0.2,1.0,-35.0,-1,1.0,0.4799000000000433
403,2,0.2,0.0625,35.0,1,1.0,2.9631999999999152
404,2,0.2,0.0,35.0,-1,0.0,7.893499999999904
405,2,0.2,0.25,35.0,1,1.0,0.29349999999999454
406,2,0.2,1.0,-35.0,1,0.0,3.983799999999974
407,2,0.2,0.0625,35.0,1,1.0,0.26369899999986046
408,2,0.2,0.125,35.0,1,1.0,0.2506989999999405
409,2,0.2,0.25,35.0,1,1.0,0.18039999999996326
410,2,0.2,0.0625,35.0,1,1.0,0.26080000000001746
411,2,0.2,0.0,35.0,-1,0.0,2.6943999999998596
412,2,0.2,0.25,35.0,1,1.0,0.28769999999985885
413,2,0.2,0.0625,35.0,1,1.0,1.0144000000000233
414,2,0.2,0.0625,35.0,1,1.0,4.384499000000005
415,2,0.2,0.0625,35.0,1,1.0,1.4544999999998254
416,2,0.8,0.0625,35.0,1,1.0,0.21139899999980116
417,2,0.8,1.0,-35.0,-1,1.0,0.40469999999982065
418,2,0.8,1.0,-35.0,-1,1.0,0.3716999999999189
419,2,0.8,1.0,-35.0,-1,1.0,0.40840000000002874
420,2,0.8,0.25,-35.0,-1,1.0,0.4050999999999476
421,2,0.8,1.0,-35.0,-1,1.0,2.851599999999962
422,2,0.8,0.0625,-35.0,-1,1.0,1.058898999999883
423,2,0.8,0.0625,35.0,1,1.0,9.558899999999994
424,2,0.8,0.25,-35.0,1,0.0,0.8856000000000677
425,2,0.8,0.125,-35.0,-1,1.0,0.7088999999998578
426,2,0.8,0.0,-35.0,-1,1.0,0.5090999999999894
427,2,0.8,0.0625,-35.0,-1,1.0,4.6521999999999935
428,2,0.8,0.25,-35.0,-1,1.0,0.3859989999998561
429,2,0.8,0.125,-35.0,-1,1.0,10.796199999999999
430,2,0.8,1.0,-35.0,-1,1.0,0.8096999999997934
431,2,0.8,0.0,-35.0,-1,1.0,6.666400000000067
432,2,0.8,0.0625,-35.0,-1,1.0,3.3198999999999614
433,2,0.8,0.0,35.0,-1,0.0,12.663600000000088
434,2,0.8,0.0,-35.0,-1,1.0,2.4836999999997715
435,2,0.8,1.0,35.0,1,1.0,0.6304999999997563
436,2,0.8,1.0,-35.0,-1,1.0,4.643900000000031
437,2,0.8,0.0625,-35.0,-1,1.0,5.590899999999692
438,2,0.8,0.125,-35.0,-1,1.0,14.040999000000284
439,2,0.8,0.0625,-35.0,-1,1.0,5.6778000000003885
440,2,0.8,1.0,-35.0,-1,1.0,0.7114999999998872
441,2,0.8,0.125,-35.0,-1,1.0,13.821299000000181
442,2,0.8,0.125,-35.0,-1,1.0,4.985200000000077
443,2,0.8,1.0,-35.0,-1,1.0,0.30240000000048894
444,2,0.8,0.0625,-35.0,-1,1.0,10.59880000000021
445,2,0.8,0.0,-35.0,-1,1.0,0.522099999999682
446,2,0.8,0.125,-35.0,-1,1.0,0.8391990000004625
447,2,0.8,0.0,-35.0,-1,1.0,0.41269999999985885
448,2,0.8,0.125,-35.0,-1,1.0,0.5460000000002765
449,2,0.8,0.125,-35.0,-1,1.0,2.919300000000021
450,2,0.8,0.125,-35.0,-1,1.0,0.30620000000044456
451,2,0.8,0.25,-35.0,-1,1.0,0.32589999999981956
452,2,0.8,0.25,-35.0,-1,1.0,0.45630000000028303
453,2,0.8,0.25,-35.0,-1,1.0,1.8693990000006124
454,2,0.8,1.0,-35.0,-1,1.0,1.050000000000182
455,2,0.8,0.0625,-35.0,-1,1.0,0.43300000000044747
456,2,0.8,0.125,-35.0,-1,1.0,8.286599999999908
457,2,0.8,0.0,-35.0,1,0.0,6.336700000000292
458,2,0.8,0.125,-35.0,-1,1.0,5.7804000000001
459,2,0.8,0.125,35.0,1,1.0,0.5072990000003301
460,2,0.8,0.125,-35.0,-1,1.0,4.294000000000324
461,2,0.8,1.0,-35.0,-1,1.0,6.7475000000004
462,2,0.8,0.0625,-35.0,-1,1.0,2.5776999999998225
463,2,0.8,0.0625,-35.0,-1,1.0,18.384299000000283
464,2,0.8,1.0,-35.0,-1,1.0,0.5049989999997706
465,2,0.8,0.25,-35.0,-1,1.0,2.8252000000002226
466,2,0.8,1.0,-35.0,-1,1.0,2.245100000000093
467,2,0.8,0.0625,-35.0,-1,1.0,19.198299000000134
468,2,0.8,0.0625,35.0,1,1.0,2.0990999999999076
469,2,0.8,0.125,-35.0,-1,1.0,3.8726000000001477
470,2,0.8,1.0,-35.0,-1,1.0,1.735700000000179
471,2,0.8,0.0625,-35.0,-1,1.0,5.699300000000221
472,2,0.8,0.125,-35.0,-1,1.0,4.695999000000029
473,2,0.8,0.25,-35.0,-1,1.0,7.656300000000101
474,2,0.8,0.0,-35.0,-1,1.0,12.516599000000042
475,2,0.8,0.125,-35.0,-1,1.0,0.7369989999997415
476,2,0.8,0.125,-35.0,-1,1.0,1.6734999999998763
477,2,0.8,0.125,-35.0,-1,1.0,5.470499000000018
478,2,0.8,0.0,-35.0,-1,1.0,44.373699000000215
479,2,0.8,0.125,-35.0,-1,1.0,0.7082000000000335
480,2,0.8,1.0,-35.0,-1,1.0,3.7880989999998746
481,2,0.8,0.0,35.0,-1,0.0,5.695100000000366
482,2,0.8,0.0625,-35.0,-1,1.0,0.6385990000003403
483,2,0.8,0.0625,-35.0,-1,1.0,0.26210000000037326
484,2,0.8,0.0,-35.0,-1,1.0,22.688698999999815
485,2,0.8,0.125,35.0,1,1.0,0.2892990000004829
486,2,0.8,0.0625,-35.0,-1,1.0,0.5490989999998419
487,2,0.8,0.25,35.0,1,1.0,0.2693990000007034
488,2,0.8,0.25,-35.0,-1,1.0,1.3429999999998472
489,2,0.8,0.25,-35.0,-1,1.0,3.8362990000000536
490,2,0.8,1.0,-35.0,-1,1.0,3.4861000000000786
491,2,0.8,0.0,-35.0,-1,1.0,0.3965000000002874
492,2,0.8,0.0,35.0,-1,0.0,12.503500000000258
493,2,0.8,1.0,-35.0,-1,1.0,0.9403999999999542
494,2,0.8,0.0625,-35.0,1,0.0,7.7601989999998295
495,2,0.2,0.25,35.0,1,1.0,0.25080000000025393
496,2,0.2,0.125,35.0,1,1.0,0.4772000000002663
497,2,0.2,0.0625,-35.0,-1,1.0,3.6607990000002246
498,2,0.2,0.125,35.0,1,1.0,4.204000000000178
499,2,0.2,1.0,35.0,1,1.0,0.2211000000002059
500,2,0.2,0.25,35.0,1,1.0,0.31090000000040163
501,2,0.2,0.25,35.0,1,1.0,0.9377990000002683
502,2,0.2,1.0,35.0,1,1.0,0.6943000000005668
503,2,0.2,0.0,-35.0,-1,1.0,18.361399000000347
504,2,0.2,0.125,35.0,-1,0.0,3.0015000000003056
505,2,0.2,0.125,35.0,1,1.0,11.901899000000412
506,2,0.2,0.25,35.0,1,1.0,0.5452999999997701
507,2,0.2,0.125,35.0,1,1.0,0.3589000000001761
508,2,0.2,1.0,-35.0,-1,1.0,19.05540000000019
509,2,0.2,0.125,35.0,1,1.0,15.112798999999995
510,2,0.2,0.0,35.0,-1,0.0,7.302900000000136
511,2,0.2,0.125,35.0,1,1.0,0.7600999999999658
512,2,0.2,0.125,35.0,-1,0.0,4.943099000000075
513,2,0.2,0.125,-35.0,-1,1.0,1.807100000000446
514,2,0.2,0.25,35.0,1,1.0,0.44709999999986394
515,2,0.2,0.125,35.0,1,1.0,2.053899999999885
516,2,0.2,1.0,35.0,1,1.0,0.2271990000003825
517,2,0.2,0.125,35.0,1,1.0,2.6141999999999825
518,2,0.2,0.0,35.0,-1,0.0,7.890800000000127
519,2,0.2,0.25,35.0,1,1.0,0.26780000000053406
520,2,0.2,0.0625,35.0,-1,0.0,1.1814000000003944
521,2,0.2,0.125,35.0,-1,0.0,4.931300000000192
522,2,0.2,0.25,35.0,1,1.0,0.47139900000001944
523,2,0.2,0.0,35.0,-1,0.0,7.574898999999732
524,2,0.2,0.0,35.0,-1,0.0,21.551699999999983
1,3,0.5,0.25,35.0,1,1.0,0.5065999999999997
2,3,0.5,1.0,35.0,1,1.0,0.22719999999999896
3,3,0.5,0.0625,35.0,1,1.0,0.48560099999999995
4,3,0.5,0.25,-35.0,-1,1.0,1.8261000000000003
5,3,0.5,1.0,35.0,1,1.0,0.23460099999999784
6,3,0.5,0.125,35.0,1,1.0,0.2048009999999998
7,3,0.5,1.0,35.0,1,1.0,0.22520100000000198
8,3,0.5,1.0,35.0,1,1.0,0.22570100000000082
9,3,0.5,1.0,35.0,1,1.0,0.2153010000000002
10,3,0.5,0.0,35.0,-1,0.0,25.326601
11,3,0.5,0.0625,35.0,-1,0.0,0.4597010000000026
12,3,0.5,0.25,35.0,1,1.0,0.18320100000000394
13,3,0.5,1.0,35.0,1,1.0,0.18030099999998583
14,3,0.5,0.25,35.0,1,1.0,0.21930100000000152
15,3,0.5,0.0,35.0,-1,0.0,0.8895009999999957
16,3,0.5,0.0,35.0,1,1.0,0.2250009999999918
17,3,0.5,0.125,-35.0,1,0.0,0.21819999999999595
18,3,0.5,0.25,-35.0,1,0.0,0.2999010000000055
19,3,0.5,1.0,-35.0,-1,1.0,0.47640099999999563
20,3,0.5,0.0625,-35.0,-1,1.0,4.165900999999991
21,3,0.5,1.0,-35.0,-1,1.0,0.34400099999997735
22,3,0.5,0.25,-35.0,-1,1.0,0.322700999999995
23,3,0.5,0.0,-35.0,-1,1.0,2.000101000000001
24,3,0.5,0.0,-35.0,1,0.0,0.21540000000000248
25,3,0.5,0.25,35.0,1,1.0,0.2438009999999906
26,3,0.5,0.125,35.0,1,1.0,0.2556009999999844
27,3,0.5,0.0625,-35.0,-1,1.0,0.6258009999999956
28,3,0.5,1.0,-35.0,-1,1.0,0.2646999999999906
29,3,0.5,1.0,-35.0,-1,1.0,0.7371009999999956
30,3,0.5,0.0,35.0,-1,0.0,4.027501000000001
31,3,0.5,0.125,-35.0,1,0.0,0.21140099999999507
32,3,0.5,0.0,-35.0,1,0.0,0.27039999999996667
33,3,0.5,0.0625,-35.0,1,0.0,2.0459999999999923
34,3,0.5,0.25,35.0,1,1.0,0.21210099999998988
35,3,0.5,0.0,-35.0,1,0.0,0.1992999999999654
36,3,0.5,0.0625,-35.0,-1,1.0,1.6284000000000276
37,3,0.5,0.0,-35.0,1,0.0,1.9716999999999985
38,3,0.5,1.0,35.0,1,1.0,0.217000999999982
39,3,0.5,1.0,35.0,1,1.0,0.19610099999999875
40,3,0.5,0.125,-35.0,-1,1.0,0.5709009999999921
41,3,0.5,0.25,35.0,1,1.0,0.2300999999999931
42,3,0.5,0.0,-35.0,1,0.0,0.26920100000000957
43,3,0.5,0.25,-35.0,-1,1.0,0.282400999999993
44,3,0.5,0.0,35.0,1,1.0,0.3065009999999688
45,3,0.5,0.25,-35.0,-1,1.0,0.6335009999999954
46,3,0.5,0.0625,35.0,1,1.0,0.26990099999997597
47,3,0.5,1.0,-35.0,-1,1.0,0.5658009999999933
48,3,0.5,0.125,-35.0,-1,1.0,0.5885010000000079
49,3,0.5,0.0625,-35.0,-1,1.0,2.3695000000000164
50,3,0.5,0.0625,35.0,1,1.0,0.41630100000000425
51,3,0.5,0.0625,-35.0,1,0.0,0.1573009999999897
52,3,0.5,0.125,35.0,1,1.0,0.21440099999998097
53,3,0.5,0.25,35.0,1,1.0,0.2074010000000044
54,3,0.5,0.125,-35.0,-1,1.0,0.4937009999999873
55,3,0.5,1.0,-35.0,-1,1.0,0.31360099999997715
56,3,0.5,0.0625,-35.0,-1,1.0,2.314501000000007
57,3,0.5,1.0,-35.0,-1,1.0,0.8547010000000057
58,3,0.5,0.125,35.0,1,1.0,0.2887010000000032
59,3,0.5,0.0625,35.0,-1,0.0,3.705801000000008
60,3,0.5,0.0625,35.0,1,1.0,0.6345010000000002
61,3,0.5,0.0,-35.0,1,0.0,4.021800999999982
62,3,0.5,0.125,-35.0,1,0.0,0.2122009999999932
63,3,0.5,0.0,35.0,1,1.0,0.3990009999999984
64,3,0.5,1.0,-35.0,-1,1.0,0.6077000000000226
65,3,0.5,0.0625,35.0,1,1.0,0.3190010000000143
66,3,0.5,0.0625,-35.0,1,0.0,1.0971000000000686
67,3,0.5,0.125,35.0,1,1.0,0.19380100000000766
68,3,0.5,0.0,35.0,1,1.0,0.2712009999999623
69,3,0.5,0.0,-35.0,1,0.0,0.20430099999998674
70,3,0.5,0.125,-35.0,1,0.0,0.10210100000000466
71,3,0.5,0.25,35.0,1,1.0,0.2132010000000264
72,3,0.5,0.25,-35.0,-1,1.0,4.709601000000021
73,3,0.5,0.0,-35.0,-1,1.0,0.6356010000000083
74,3,0.5,0.0625,-35.0,-1,1.0,0.7801999999999794
75,3,0.5,0.125,35.0,1,1.0,0.25050099999998565
76,3,0.5,1.0,-35.0,-1,1.0,0.577699999999993
77,3,0.5,0.0625,-35.0,1,0.0,0.23020099999996546
78,3,0.5,1.0,-35.0,-1,1.0,0.4476009999999633
79,3,0.5,0.0625,35.0,1,1.0,0.2586009999999419
80,3,0.5,0.0625,35.0,1,1.0,0.21870099999995318
81,3,0.5,0.0625,-35.0,-1,1.0,0.7337009999999964
82,3,0.5,0.125,-35.0,1,0.0,0.289400999999998
83,3,0.5,0.0,-35.0,-1,1.0,0.5468010000000163
84,3,0.5,0.0625,-35.0,-1,1.0,0.27290100000004713
85,3,0.5,0.25,-35.0,-1,1.0,0.34570099999996273
86,3,0.5,0.125,-35.0,-1,1.0,1.0601009999999746
87,3,0.5,0.125,-35.0,-1,1.0,0.36330099999997856
88,3,0.5,1.0,-35.0,-1,1.0,0.37190099999997983
89,3,0.5,0.0,-35.0,1,0.0,0.19700099999994336
90,3,0.5,0.125,-35.0,-1,1.0,0.2801009999999451
91,3,0.8,1.0,-35.0,1,0.0,0.2723009999999704
92,3,0.8,0.0625,35.0,1,1.0,0.30000000000001137
93,3,0.8,0.125,-35.0,-1,1.0,0.33320100000003094
94,3,0.8,0.25,-35.0,1,0.0,0.23240000000004102
95,3,0.8,0.0625,35.0,1,1.0,0.2813009999999849
96,3,0.8,0.25,-35.0,1,0.0,0.11419999999998254
97,3,0.8,0.25,-35.0,-1,1.0,0.5063999999999851
98,3,0.8,0.0,-35.0,-1,1.0,0.34080100000005586
99,3,0.8,0.125,-35.0,1,0.0,0.20870100000001912
100,3,0.8,1.0,-35.0,-1,1.0,0.5039009999999848
101,3,0.8,0.125,35.0,1,1.0,0.18910099999999375
102,3,0.8,0.0625,-35.0,1,0.0,3.016701000000012
103,3,0.8,0.125,-35.0,-1,1.0,0.7950000000000159
104,3,0.8,0.125,-35.0,1,0.0,0.15530099999995173
105,3,0.8,0.0,-35.0,-1,1.0,3.2947000000000344
106,3,0.8,0.125,35.0,1,1.0,0.2772000000000503
107,3,0.8,0.0,-35.0,1,0.0,3.9763000000000375
108,3,0.8,0.0625,35.0,-1,0.0,0.34799999999995634
109,3,0.8,0.0,-35.0,-1,1.0,0.543000999999947
110,3,0.8,0.25,-35.0,-1,1.0,2.033900000000017
111,3,0.8,0.125,35.0,1,1.0,0.20410100000003695
112,3,0.8,0.25,-35.0,-1,1.0,0.6920999999999822
113,3,0.8,1.0,-35.0,-1,1.0,0.5818009999999845
114,3,0.8,0.0625,35.0,1,1.0,0.3161999999999807
115,3,0.8,0.25,-35.0,1,0.0,
116,3,0.8,0.125,-35.0,-1,1.0,
117,3,0.8,0.25,35.0,1,1.0,0.21560099999999238
118,3,0.8,1.0,-35.0,1,0.0,0.2565999999999917
119,3,0.8,0.125,35.0,1,1.0,0.2687000000000239
120,3,0.8,0.0,35.0,1,1.0,0.21650099999999384
121,3,0.8,0.25,-35.0,-1,1.0,0.4071010000000115
122,3,0.8,1.0,-35.0,-1,1.0,0.6128009999999904
123,3,0.8,0.125,35.0,1,1.0,0.23080100000004222
124,3,0.8,0.0625,-35.0,-1,1.0,0.9001010000000065
125,3,0.8,0.125,-35.0,-1,1.0,4.733401000000072
126,3,0.8,0.0625,-35.0,-1,1.0,0.8517000000000507
127,3,0.8,0.25,-35.0,-1,1.0,0.5607999999998583
128,3,0.8,0.0625,-35.0,-1,1.0,0.6781009999999696
129,3,0.8,0.125,-35.0,1,0.0,0.255800000000022
130,3,0.8,0.0625,-35.0,-1,1.0,0.42089999999996053
131,3,0.8,0.0,35.0,-1,0.0,1.1230000000000473
132,3,0.8,0.25,-35.0,-1,1.0,0.31149999999990996
133,3,0.8,0.0,-35.0,1,0.0,0.3646999999999707
134,3,0.8,1.0,35.0,1,1.0,0.23060099999997874
135,3,0.8,0.0625,35.0,1,1.0,0.290100999999936
136,3,0.8,0.125,-35.0,-1,1.0,0.3604010000000244
137,3,0.8,0.0,-35.0,1,0.0,0.26300099999991744
138,3,0.8,0.0625,-35.0,-1,1.0,0.4893010000000686
139,3,0.8,0.0,-35.0,-1,1.0,0.5492009999999254
140,3,0.8,0.125,35.0,1,1.0,0.2698010000000295
141,3,0.8,1.0,-35.0,-1,1.0,0.7292999999999665
142,3,0.8,1.0,-35.0,-1,1.0,0.5515009999999165
143,3,0.8,0.0625,-35.0,1,0.0,0.27870099999995546
144,3,0.8,0.0625,-35.0,-1,1.0,0.36740100000008624
145,3,0.8,0.0,35.0,-1,0.0,1.9977000000001226
146,3,0.8,0.125,-35.0,-1,1.0,0.3769009999999753
147,3,0.8,1.0,-35.0,-1,1.0,0.34350000000006276
148,3,0.8,0.0625,-35.0,-1,1.0,0.2883009999999331
149,3,0.8,0.25,-35.0,-1,1.0,0.324600999999916
150,3,0.8,0.25,-35.0,-1,1.0,0.8662010000000464
151,3,0.8,0.125,-35.0,-1,1.0,0.2794010000000071
152,3,0.8,1.0,-35.0,-1,1.0,0.6009999999999991
153,3,0.8,0.125,35.0,1,1.0,0.4068999999999505
154,3,0.8,1.0,-35.0,1,0.0,0.2544000000000324
155,3,0.8,1.0,-35.0,-1,1.0,0.3382010000000264
156,3,0.8,0.0,-35.0,-1,1.0,4.1069009999999935
157,3,0.8,1.0,-35.0,-1,1.0,0.28309999999999036
158,3,0.8,0.0,-35.0,-1,1.0,0.4006010000000515
159,3,0.8,0.25,-35.0,-1,1.0,0.6483009999999467
160,3,0.8,0.0625,-35.0,-1,1.0,0.3137010000000373
161,3,0.8,0.25,-35.0,-1,1.0,0.2781009999999924
162,3,0.8,0.0,-35.0,-1,1.0,2.714100999999914
163,3,0.8,1.0,-35.0,1,0.0,0.5091999999998507
164,3,0.8,0.0625,-35.0,-1,1.0,0.4168000000000802
165,3,0.8,0.125,-35.0,-1,1.0,0.21650099999999384
166,3,0.8,0.0,-35.0,-1,1.0,1.381701000000021
167,3,0.8,0.0,-35.0,-1,1.0,2.6605010000000675
168,3,0.8,0.125,-35.0,-1,1.0,0.29660100000000966
169,3,0.8,0.0625,-35.0,-1,1.0,0.2697010000000546
170,3,0.8,0.125,35.0,1,1.0,0.4334999999999809
171,3,0.8,0.25,35.0,1,1.0,0.31169999999997344
172,3,0.8,0.0,-35.0,-1,1.0,9.526400999999964
173,3,0.8,0.25,-35.0,-1,1.0,0.300200000000018
174,3,0.2,0.125,35.0,1,1.0,0.3279009999999971
175,3,0.2,0.125,35.0,1,1.0,0.37789999999995416
176,3,0.2,1.0,35.0,1,1.0,0.21400100000005295
177,3,0.2,0.125,35.0,1,1.0,0.23910000000000764
178,3,0.2,0.0625,-35.0,1,0.0,0.19430099999999584
179,3,0.2,0.125,-35.0,-1,1.0,0.9843009999999595
180,3,0.2,1.0,35.0,1,1.0,0.3020010000000184
181,3,0.2,0.0625,-35.0,-1,1.0,2.1523010000000795
182,3,0.2,1.0,35.0,1,1.0,0.22210099999995236
183,3,0.2,0.0,35.0,-1,0.0,2.7091009999999187
184,3,0.2,0.25,35.0,1,1.0,0.26739999999995234
185,3,0.2,0.0625,35.0,1,1.0,0.22820099999989907
186,3,0.2,0.25,35.0,1,1.0,0.28850099999999657
187,3,0.2,0.125,-35.0,1,0.0,4.0222009999999955
188,3,0.2,0.25,35.0,1,1.0,0.22050100000001294
189,3,0.2,0.125,-35.0,-1,1.0,0.5596000000000458
190,3,0.2,0.0625,35.0,-1,0.0,0.4436999999999216
191,3,0.2,0.25,35.0,1,1.0,0.26880100000005314
192,3,0.2,0.0,35.0,-1,0.0,4.201801000000046
193,3,0.2,0.125,35.0,1,1.0,0.21469999999999345
194,3,0.2,0.125,35.0,1,1.0,0.2941000000000713
195,3,0.2,0.25,35.0,1,1.0,0.26060100000006514
196,3,0.2,0.0,35.0,1,1.0,0.3567010000000437
197,3,0.2,0.0,35.0,-1,0.0,3.9508999999999332
198,3,0.2,0.0625,35.0,1,1.0,0.2654009999999971
199,3,0.2,1.0,-35.0,-1,1.0,0.3407999999999447
200,3,0.2,1.0,35.0,1,1.0,0.2533010000000786
201,3,0.2,0.0,35.0,1,1.0,0.9880000000000564
202,3,0.2,0.125,35.0,1,1.0,0.1970010000000002
203,3,0.2,0.125,35.0,1,1.0,0.24250099999994745
204,3,0.2,1.0,35.0,1,1.0,0.21620000000007167
205,3,0.2,1.0,-35.0,-1,1.0,0.5830009999999675
206,3,0.2,0.0625,35.0,1,1.0,0.3894999999999982
207,3,0.2,0.0625,-35.0,1,0.0,0.24440000000004147
208,3,0.2,0.25,35.0,1,1.0,0.21720000000004802
209,3,0.2,1.0,35.0,1,1.0,0.23440100000004804
210,3,0.2,1.0,35.0,1,1.0,0.1951010000000224
211,3,0.2,0.0,35.0,1,1.0,2.2403000000000475
212,3,0.2,0.0,35.0,1,1.0,0.21879999999998745
213,3,0.2,0.0,-35.0,1,0.0,0.3041000000000622
214,3,0.2,1.0,35.0,1,1.0,0.21210099999996146
215,3,0.2,1.0,35.0,1,1.0,0.21489999999994325
216,3,0.2,1.0,-35.0,-1,1.0,0.610100999999986
217,3,0.2,0.0625,35.0,1,1.0,0.2536999999999807
218,3,0.2,0.0625,35.0,1,1.0,0.4186010000000806
219,3,0.2,0.125,35.0,1,1.0,0.26660099999992326
220,3,0.2,0.0,-35.0,-1,1.0,1.205500000000029
221,3,0.2,0.0625,35.0,1,1.0,0.44220100000006823
222,3,0.2,1.0,-35.0,-1,1.0,0.6167010000000346
223,3,0.2,0.125,35.0,1,1.0,0.4207010000000082
224,3,0.2,0.25,35.0,1,1.0,0.24810100000001967
225,3,0.2,0.0,35.0,-1,0.0,21.395801000000006
226,3,0.2,0.0,35.0,-1,0.0,0.3821010000000342
227,3,0.2,0.0625,-35.0,-1,1.0,0.45820100000003094
228,3,0.2,0.25,35.0,1,1.0,0.2519009999999753
229,3,0.2,0.125,35.0,1,1.0,0.2822009999999864
230,3,0.2,0.0625,35.0,1,1.0,0.28270099999997456
231,3,0.2,0.0625,-35.0,-1,1.0,0.5863010000000486
232,3,0.2,0.0625,35.0,1,1.0,0.6715000000000373
233,3,0.2,0.0625,-35.0,-1,1.0,0.599501000000032
234,3,0.2,0.125,35.0,1,1.0,0.2772009999999909
235,3,0.8,0.125,-35.0,-1,1.0,3.799500999999964
236,3,0.8,0.0625,-35.0,-1,1.0,0.5422009999999773
237,3,0.8,0.0,-35.0,-1,1.0,0.53770099999997
238,3,0.8,0.25,-35.0,-1,1.0,0.28880000000003747
239,3,0.8,0.25,35.0,1,1.0,0.2537009999999782
240,3,0.8,0.0625,-35.0,-1,1.0,0.3739010000000462
241,3,0.8,0.25,35.0,1,1.0,0.27569999999991524
242,3,0.8,0.125,-35.0,-1,1.0,0.5133009999999558
243,3,0.8,0.125,-35.0,1,0.0,0.4211010000000215
244,3,0.8,0.0,-35.0,1,0.0,0.31500100000005204
245,3,0.8,1.0,-35.0,-1,1.0,0.2253009999999449
246,3,0.8,0.0625,-35.0,-1,1.0,0.4517009999999573
247,3,0.8,0.125,-35.0,-1,1.0,0.7492009999999709
248,3,0.8,0.0625,-35.0,-1,1.0,0.37520100000006096
249,3,0.8,0.125,-35.0,-1,1.0,0.3558000000002721
250,3,0.8,0.125,-35.0,-1,1.0,0.2654009999998834
251,3,0.8,0.25,35.0,1,1.0,0.23320100000023558
252,3,0.8,0.0,-35.0,1,0.0,0.24230000000011387
253,3,0.8,0.25,-35.0,1,0.0,0.2528010000003178
254,3,0.8,0.25,-35.0,-1,1.0,0.3191010000002734
255,3,0.8,0.0625,-35.0,-1,1.0,0.4934010000001763
256,3,0.8,0.0,-35.0,-1,1.0,0.34590000000002874
257,3,0.8,1.0,-35.0,-1,1.0,0.3266009999999824
258,3,0.8,0.0,-35.0,-1,1.0,0.46620100000018283
259,3,0.8,0.0,-35.0,-1,1.0,0.5768009999999322
260,3,0.8,1.0,-35.0,-1,1.0,0.10970100000008642
261,3,0.8,1.0,35.0,1,1.0,0.25050099999998565
262,3,0.8,1.0,-35.0,1,0.0,0.2597000000000662
263,3,0.8,0.0,-35.0,1,0.0,0.2537010000000919
264,3,0.8,0.0625,35.0,1,1.0,0.2500009999998838
265,3,0.8,0.0625,-35.0,-1,1.0,0.3678010000000995
266,3,0.2,0.0625,-35.0,-1,1.0,0.35680100000013226
267,3,0.2,0.0625,35.0,-1,0.0,1.4272009999999682
268,3,0.2,0.0625,35.0,1,1.0,0.2768999999998414
269,3,0.2,1.0,35.0,1,1.0,0.26090000000021973
270,3,0.2,0.0,35.0,1,1.0,0.09390099999995982
271,3,0.2,0.0,-35.0,1,0.0,0.30110000000013315
272,3,0.2,0.0625,35.0,1,1.0,0.22410100000001876
273,3,0.2,0.25,35.0,1,1.0,0.19120100000031925
274,3,0.2,1.0,-35.0,1,0.0,0.3707010000000537
275,3,0.2,0.125,35.0,1,1.0,0.22470099999986815
276,3,0.2,0.0,35.0,-1,0.0,11.204301000000214
277,3,0.2,1.0,35.0,1,1.0,0.1852010000000064
278,3,0.2,0.125,-35.0,-1,1.0,0.6114010000001144
279,3,0.2,0.0625,35.0,1,1.0,0.25250100000016573
280,3,0.2,0.125,-35.0,-1,1.0,0.4947010000003047
281,3,0.2,0.0625,35.0,-1,0.0,7.195500999999922
282,3,0.2,0.25,35.0,1,1.0,0.2451010000002043
283,3,0.2,0.0,35.0,1,1.0,0.38940100000013445
284,3,0.2,0.0625,-35.0,-1,1.0,1.3985999999999876
285,3,0.2,0.25,35.0,1,1.0,0.23590100000001257
286,3,0.2,1.0,-35.0,-1,1.0,0.4388010000002396
287,3,0.2,0.25,35.0,1,1.0,0.24279999999998836
288,3,0.2,0.0,-35.0,1,0.0,0.5456010000000333
289,3,0.2,0.0,35.0,1,1.0,3.969400000000178
290,3,0.2,0.0,-35.0,1,0.0,0.1992000000002463
291,3,0.2,1.0,-35.0,-1,1.0,0.4030999999999949
292,3,0.2,0.25,35.0,1,1.0,0.3926010000000133
293,3,0.2,1.0,35.0,1,1.0,0.2633010000001832
294,3,0.2,0.25,35.0,1,1.0,0.2762009999999009
295,3,0.2,0.25,-35.0,1,0.0,0.8135009999998601
296,3,0.2,1.0,35.0,1,1.0,0.2096000000001368
297,3,0.2,0.0,35.0,1,1.0,6.906901000000062
298,3,0.2,0.0,-35.0,1,0.0,0.3400000000001455
299,3,0.2,0.25,35.0,1,1.0,0.24060100000019702
300,3,0.2,1.0,35.0,1,1.0,0.14690100000029815
301,3,0.2,0.0625,35.0,1,1.0,0.21070000000008804
302,3,0.2,1.0,-35.0,-1,1.0,0.3069000000000415
303,3,0.2,0.0,35.0,-1,0.0,0.1110999999998512
304,3,0.2,1.0,35.0,1,1.0,0.2771010000001297
305,3,0.2,0.0,35.0,1,1.0,0.38760100000013153
306,3,0.2,0.125,-35.0,1,0.0,0.9939010000000508
307,3,0.2,1.0,35.0,1,1.0,0.23480000000017753
308,3,0.2,0.0625,35.0,1,1.0,0.2375010000000657
309,3,0.2,0.25,35.0,1,1.0,0.21500099999980193
310,3,0.2,0.25,35.0,1,1.0,0.20090099999993072
311,3,0.2,0.125,35.0,1,1.0,0.2550000000003365
312,3,0.2,0.25,35.0,1,1.0,0.22109999999997854
313,3,0.2,1.0,35.0,1,1.0,0.4590009999999438
314,3,0.2,1.0,35.0,1,1.0,0.22790099999997437
315,3,0.2,0.0625,-35.0,1,0.0,0.19850100000007842
316,3,0.2,0.125,35.0,1,1.0,0.26800100000014027
317,3,0.2,1.0,35.0,1,1.0,0.2691010000003189
318,3,0.2,0.0625,-35.0,-1,1.0,1.7615010000001803
319,3,0.8,1.0,-35.0,-1,1.0,0.2792010000000573
320,3,0.8,0.25,-35.0,-1,1.0,0.5950009999999111
321,3,0.8,0.0625,-35.0,1,0.0,3.589301000000205
322,3,0.8,1.0,-35.0,-1,1.0,0.4986010000002352
323,3,0.8,1.0,-35.0,-1,1.0,0.276299999999992
324,3,0.8,1.0,-35.0,-1,1.0,0.2920000000001437
325,3,0.8,0.0625,-35.0,-1,1.0,0.38950100000010934
326,3,0.8,0.0,-35.0,-1,1.0,0.3223000000000411
327,3,0.8,0.0,35.0,-1,0.0,1.832801000000245
328,3,0.8,0.0625,-35.0,-1,1.0,0.32250100000010207
329,3,0.8,0.0625,-35.0,-1,1.0,0.33320000000026084
330,3,0.8,0.125,35.0,1,1.0,0.2595000000001164
331,3,0.8,1.0,-35.0,-1,1.0,0.2599999999999909
332,3,0.8,0.125,-35.0,-1,1.0,0.39940100000012535
333,3,0.8,0.125,-35.0,-1,1.0,0.533500000000231
334,3,0.8,1.0,-35.0,-1,1.0,0.22630099999992126
335,3,0.8,0.125,-35.0,-1,1.0,1.2104010000002745
336,3,0.8,0.125,-35.0,-1,1.0,2.6731009999998605
337,3,0.8,0.0625,-35.0,-1,1.0,0.3240000000002965
338,3,0.8,0.0,-35.0,-1,1.0,0.6366010000001552
339,3,0.8,0.0625,-35.0,-1,1.0,3.9006000000001677
340,3,0.8,0.125,-35.0,-1,1.0,0.5735010000000784
341,3,0.8,1.0,-35.0,-1,1.0,0.2776000000001204
342,3,0.8,0.125,-35.0,-1,1.0,0.3004000000000815
343,3,0.8,0.125,35.0,1,1.0,0.4648000000001957
344,3,0.8,0.0,-35.0,-1,1.0,1.7672010000001137
345,3,0.8,0.0625,-35.0,-1,1.0,0.2914010000001781
346,3,0.8,0.125,-35.0,-1,1.0,0.8840000000002419
347,3,0.8,0.125,-35.0,-1,1.0,0.5485010000002148
348,3,0.8,1.0,-35.0,-1,1.0,0.2975010000000111
349,3,0.8,0.0,-35.0,-1,1.0,0.1482010000001992
350,3,0.2,0.125,35.0,1,1.0,0.41760100000010425
351,3,0.2,0.25,35.0,1,1.0,0.21830000000022665
352,3,0.2,1.0,35.0,1,1.0,0.19450000000028922
353,3,0.2,1.0,35.0,1,1.0,0.20190100000013445
354,3,0.2,0.0625,35.0,1,1.0,0.20460000000002765
355,3,0.2,1.0,35.0,1,1.0,0.19570100000009916
356,3,0.2,0.25,35.0,1,1.0,0.2614000000000942
357,3,0.2,0.0625,35.0,1,1.0,0.19210100000009334
358,3,0.2,0.25,35.0,1,1.0,0.27160100000037346
359,3,0.2,0.0625,35.0,1,1.0,0.23250099999995655
360,3,0.2,0.0625,35.0,1,1.0,0.23840100000029452
361,3,0.2,1.0,35.0,1,1.0,0.18900100000018938
362,3,0.2,0.25,35.0,1,1.0,0.23850099999981467
363,3,0.2,1.0,35.0,1,1.0,0.19920000000001892
364,3,0.2,0.125,35.0,1,1.0,0.2721010000000206
365,3,0.2,0.25,-35.0,1,0.0,0.1163010000000213
366,3,0.2,0.0,35.0,1,1.0,0.23900000000026012
367,3,0.2,0.125,35.0,1,1.0,0.24300000000016553
368,3,0.2,0.125,-35.0,1,0.0,0.27570100000025377
369,3,0.2,0.0625,35.0,1,1.0,0.3033010000001468
370,3,0.2,0.25,-35.0,-1,1.0,0.6459010000000944
371,3,0.2,0.125,35.0,1,1.0,0.3034000000002379
372,3,0.2,0.125,-35.0,-1,1.0,0.6828010000001541
373,3,0.2,0.25,35.0,1,1.0,0.21680000000014843
374,3,0.2,0.0625,35.0,1,1.0,1.4962009999999282
375,3,0.2,1.0,-35.0,-1,1.0,0.43030000000021573
376,3,0.2,1.0,35.0,1,1.0,0.2799000000002252
377,3,0.2,1.0,35.0,1,1.0,0.30060100000014245
378,3,0.2,0.0625,-35.0,1,0.0,0.24320100000022649
379,3,0.2,0.125,35.0,1,1.0,0.2739010000000235
380,3,0.2,0.25,35.0,1,1.0,0.3535010000002785
381,3,0.2,0.25,35.0,1,1.0,0.34080100000005586
382,3,0.2,0.125,35.0,1,1.0,0.2935010000001057
383,3,0.2,1.0,35.0,1,1.0,0.22790100000020175
384,3,0.2,1.0,35.0,1,1.0,0.21380100000010316
385,3,0.2,1.0,35.0,1,1.0,0.210901000000149
386,3,0.2,0.0,35.0,-1,0.0,2.2105010000002494
387,3,0.2,0.0625,35.0,1,1.0,0.3380010000000766
388,3,0.2,0.25,35.0,1,1.0,0.2508010000001377
389,3,0.2,1.0,35.0,1,1.0,0.24200100000007296
390,3,0.2,0.25,-35.0,-1,1.0,0.570801000000074
391,3,0.2,0.25,35.0,1,1.0,0.485100999999986
392,3,0.2,0.0,35.0,-1,0.0,3.3811000000000604
393,3,0.2,0.0,35.0,-1,0.0,0.5853010000002996
394,3,0.2,0.125,-35.0,-1,1.0,0.2979010000001381
395,3,0.2,0.125,35.0,1,1.0,0.2654010000001108
396,3,0.8,0.0625,-35.0,-1,1.0,3.6314010000000962
397,3,0.8,0.25,-35.0,-1,1.0,0.32870100000013736
398,3,0.8,0.0625,-35.0,-1,1.0,0.31500100000016573
399,3,0.8,0.125,-35.0,-1,1.0,0.6856010000001334
400,3,0.8,0.0625,-35.0,-1,1.0,0.5150009999999838
401,3,0.8,0.125,-35.0,-1,1.0,0.3790999999998803
402,3,0.8,1.0,-35.0,-1,1.0,0.40190099999995255
403,3,0.8,1.0,-35.0,-1,1.0,0.29270000000019536
404,3,0.8,0.25,-35.0,1,0.0,0.2253000000002885
405,3,0.8,0.125,35.0,1,1.0,0.31610100000034436
406,3,0.8,0.25,-35.0,-1,1.0,0.5655010000000402
407,3,0.8,1.0,-35.0,-1,1.0,0.32000100000027487
408,3,0.8,0.0,-35.0,-1,1.0,1.302300999999943
409,3,0.8,1.0,35.0,1,1.0,0.263101000000006
410,3,0.8,1.0,35.0,1,1.0,0.2726010000003498
411,3,0.8,0.25,-35.0,-1,1.0,0.36320099999989
412,3,0.8,0.0625,-35.0,1,0.0,0.2793010000000322
413,3,0.8,0.0625,-35.0,1,0.0,0.3234019999999873
414,3,0.8,0.0,-35.0,-1,1.0,0.3228020000003653
415,3,0.8,0.25,-35.0,-1,1.0,4.253502000000253
416,3,0.8,0.25,-35.0,-1,1.0,0.263302000000067
417,3,0.8,1.0,-35.0,-1,1.0,1.383801000000176
418,3,0.8,0.0,-35.0,-1,1.0,1.0500020000001768
419,3,0.8,0.25,-35.0,-1,1.0,0.5374020000001565
420,3,0.8,0.25,-35.0,-1,1.0,0.46010099999989507
421,3,0.8,0.125,-35.0,-1,1.0,0.580801000000065
422,3,0.8,0.0625,-35.0,-1,1.0,0.676902000000382
423,3,0.8,1.0,-35.0,-1,1.0,0.3211020000001099
424,3,0.8,0.125,-35.0,-1,1.0,1.357202000000143
425,3,0.8,1.0,35.0,1,1.0,0.28780200000005607
426,3,0.8,0.25,-35.0,-1,1.0,1.950601000000006
427,3,0.8,0.25,-35.0,-1,1.0,0.3680020000001605
428,3,0.8,0.0,35.0,-1,0.0,0.40740200000004734
429,3,0.8,0.125,-35.0,-1,1.0,0.31480199999987235
430,3,0.8,1.0,-35.0,-1,1.0,0.2610010000000784
431,3,0.8,0.125,-35.0,-1,1.0,0.35830200000009427
432,3,0.8,0.0625,-35.0,-1,1.0,0.47780200000011064
433,3,0.2,1.0,-35.0,-1,1.0,0.4485010000003058
434,3,0.2,0.0,35.0,-1,0.0,0.5346020000004046
435,3,0.2,0.125,35.0,1,1.0,0.7286020000003646
436,3,0.2,0.0,35.0,-1,0.0,5.518202000000201
437,3,0.2,0.125,-35.0,-1,1.0,0.6291020000001026
438,3,0.2,1.0,35.0,1,1.0,0.23840100000006714
439,3,0.2,0.25,35.0,1,1.0,0.28570200000012846
440,3,0.2,0.125,35.0,1,1.0,0.3219019999999091
441,3,0.2,0.25,35.0,1,1.0,0.22930200000018885
442,3,0.2,0.0,-35.0,1,0.0,2.0454020000001947
443,3,0.2,0.0625,35.0,1,1.0,0.31640199999992547
444,3,0.2,0.25,35.0,1,1.0,0.2756010000002789
445,3,0.2,1.0,35.0,1,1.0,0.25960200000008626
446,3,0.2,0.25,35.0,1,1.0,0.2757010000000264
447,3,0.2,0.0,35.0,-1,0.0,6.343102000000044
448,3,0.2,0.125,35.0,1,1.0,0.27600200000006225
449,3,0.2,0.0625,-35.0,-1,1.0,0.3367020000002867
450,3,0.2,0.0625,35.0,1,1.0,0.5661020000000008
451,3,0.2,0.125,35.0,1,1.0,0.4802020000001903
452,3,0.2,0.25,-35.0,-1,1.0,0.40290200000004006
453,3,0.2,1.0,35.0,1,1.0,0.2507020000000466
454,3,0.2,1.0,35.0,1,1.0,0.2198020000002998
455,3,0.2,0.25,-35.0,-1,1.0,1.0174010000000635
456,3,0.2,0.0,35.0,-1,0.0,0.35320200000001023
457,3,0.2,1.0,35.0,1,1.0,0.24420200000008663
458,3,0.2,0.0,35.0,-1,0.0,4.773402000000033
459,3,0.2,1.0,35.0,1,1.0,0.27430200000003424
460,3,0.2,0.25,35.0,1,1.0,0.25700099999994563
461,3,0.2,1.0,-35.0,-1,1.0,0.6478020000001834
462,3,0.2,1.0,-35.0,-1,1.0,0.33050200000002405
463,3,0.2,0.125,35.0,1,1.0,0.2878010000001723
464,3,0.2,0.0625,-35.0,-1,1.0,0.3441020000000208
465,3,0.2,0.0625,35.0,-1,0.0,0.5113010000002305
466,3,0.2,0.25,35.0,1,1.0,0.28410200000007535
467,3,0.2,0.125,35.0,1,1.0,0.43150200000013683
468,3,0.2,0.125,-35.0,-1,1.0,2.954302000000098
469,3,0.2,1.0,-35.0,-1,1.0,0.4686019999999189
470,3,0.2,0.125,35.0,-1,0.0,0.3045020000001841
471,3,0.2,0.25,-35.0,-1,1.0,0.3387020000002394
472,3,0.2,0.0,35.0,-1,0.0,2.064702000000125
473,3,0.8,0.0625,-35.0,1,0.0,0.5622020000000703
474,3,0.8,0.0,35.0,-1,0.0,0.5884020000003147
475,3,0.8,0.25,35.0,1,1.0,0.7158019999999397
476,3,0.8,0.0625,-35.0,-1,1.0,0.5219010000000708
477,3,0.8,0.0625,-35.0,-1,1.0,0.7231020000001536
478,3,0.8,0.125,-35.0,-1,1.0,0.3419010000002345
479,3,0.8,0.0,-35.0,-1,1.0,4.192601000000195
480,3,0.8,0.125,-35.0,-1,1.0,0.32880199999999604
481,3,0.8,0.125,-35.0,-1,1.0,1.5696020000000317
482,3,0.8,0.25,-35.0,-1,1.0,0.28570200000012846
483,3,0.8,0.125,35.0,1,1.0,0.31670200000007753
484,3,0.8,0.125,-35.0,-1,1.0,0.44250200000033146
485,3,0.8,1.0,-35.0,-1,1.0,0.3133020000002489
486,3,0.8,0.0,35.0,-1,0.0,0.28270199999997203
487,3,0.8,0.125,-35.0,-1,1.0,3.85340199999996
488,3,0.8,0.25,-35.0,-1,1.0,0.22640200000000732
489,3,0.8,0.25,-35.0,-1,1.0,0.28050200000006953
490,3,0.8,0.0,-35.0,-1,1.0,0.2932020000000648
491,3,0.8,0.125,35.0,1,1.0,0.6045020000001387
492,3,0.8,0.0,35.0,-1,0.0,0.9034019999999146
493,3,0.8,0.0625,-35.0,-1,1.0,0.27400100000022576
494,3,0.8,0.0625,35.0,1,1.0,2.013402000000042
495,3,0.8,0.125,-35.0,-1,1.0,0.3877019999999902
496,3,0.8,0.125,35.0,1,1.0,0.3104020000002947
497,3,0.8,1.0,-35.0,-1,1.0,0.5211010000007263
498,3,0.8,0.125,35.0,1,1.0,0.3939020000002529
499,3,0.8,0.125,35.0,1,1.0,0.36460200000010445
500,3,0.8,0.125,-35.0,-1,1.0,4.387301000000207
501,3,0.8,1.0,35.0,1,1.0,0.3382010000000264
502,3,0.8,0.125,-35.0,-1,1.0,7.084201000000121
503,3,0.8,0.0,35.0,-1,0.0,0.3117019999999684
504,3,0.8,0.25,-35.0,-1,1.0,0.3479010000000926
505,3,0.8,0.0625,-35.0,-1,1.0,0.255301000000145
506,3,0.8,0.0625,-35.0,-1,1.0,0.26800200000025143
507,3,0.8,1.0,-35.0,-1,1.0,0.28540200000043114
508,3,0.8,0.0625,-35.0,1,0.0,0.28490199999987453
509,3,0.8,1.0,35.0,1,1.0,0.23920200000020486
510,3,0.8,0.0,35.0,1,1.0,0.25840100000004895
511,3,0.8,1.0,-35.0,-1,1.0,0.5656020000001263
512,3,0.8,0.0625,-35.0,-1,1.0,10.7686020000001
513,3,0.8,1.0,-35.0,-1,1.0,0.6060019999999895
514,3,0.8,0.25,-35.0,-1,1.0,2.0089020000000346
515,3,0.8,0.0,-35.0,-1,1.0,1.0896020000000135
516,3,0.8,0.125,-35.0,-1,1.0,0.3257020000000921
517,3,0.8,0.25,-35.0,1,0.0,0.3131010000001879
518,3,0.8,0.25,-35.0,-1,1.0,0.5159020000000965
519,3,0.8,0.25,-35.0,-1,1.0,0.303302000000258
520,3,0.8,0.0625,-35.0,-1,1.0,8.009501999999884
521,3,0.8,0.0625,-35.0,-1,1.0,1.3175019999998767
522,3,0.8,0.0,-35.0,-1,1.0,0.7132010000000264
523,3,0.8,0.25,-35.0,-1,1.0,0.5276020000001154
524,3,0.8,0.125,-35.0,-1,1.0,0.2999019999997472
525,3,0.8,0.0625,-35.0,1,0.0,0.26730200000019977
526,3,0.8,0.0625,-35.0,1,0.0,0.3634020000004057
527,3,0.8,0.125,-35.0,-1,1.0,0.5975009999997383
528,3,0.8,0.125,-35.0,-1,1.0,0.3304020000005039
529,3,0.8,0.0,-35.0,-1,1.0,3.740900999999667
530,3,0.8,0.25,35.0,1,1.0,0.24050100000022212
531,3,0.8,0.25,-35.0,1,0.0,0.19810200000029
532,3,0.8,0.25,-35.0,-1,1.0,0.5774020000003475
533,3,0.8,0.0625,-35.0,1,0.0,0.22810200000003533
534,3,0.8,0.125,-35.0,-1,1.0,4.554200999999921
535,3,0.8,0.125,-35.0,-1,1.0,0.5849020000000564
536,3,0.8,1.0,-35.0,-1,1.0,0.7644020000002456
537,3,0.8,0.0,35.0,-1,0.0,0.7283019999999851
538,3,0.8,0.25,-35.0,-1,1.0,0.30130200000030527
539,3,0.8,0.125,-35.0,-1,1.0,0.3920020000000477
540,3,0.8,0.125,-35.0,-1,1.0,0.3214010000001508
541,3,0.8,1.0,35.0,1,1.0,0.29550200000039695
542,3,0.8,0.125,-35.0,-1,1.0,0.9316020000001117
543,3,0.8,1.0,35.0,1,1.0,0.23910200000045734
544,3,0.8,0.0625,-35.0,1,0.0,0.38840200000049663
545,3,0.2,0.0,-35.0,-1,1.0,13.712402000000111
546,3,0.2,0.125,35.0,-1,0.0,0.2356009999998605
547,3,0.2,0.0625,35.0,-1,0.0,0.4330019999997603
548,3,0.2,0.125,35.0,1,1.0,0.33910100000002785
549,3,0.2,0.125,35.0,1,1.0,0.40310200000021723
550,3,0.2,0.0,35.0,-1,0.0,7.099202000000332
551,3,0.2,0.25,-35.0,-1,1.0,0.27690199999960896
552,3,0.2,0.125,35.0,1,1.0,0.22960200000034092
553,3,0.2,1.0,35.0,1,1.0,0.2402010000005248
554,3,0.2,1.0,-35.0,-1,1.0,0.9865019999997457
555,3,0.2,1.0,35.0,1,1.0,0.287101000000348
556,3,0.2,0.125,-35.0,-1,1.0,0.5832020000002558
557,3,0.2,1.0,35.0,1,1.0,0.23400100000026214
558,3,0.2,0.125,35.0,1,1.0,0.31020200000011755
559,3,0.2,0.0625,-35.0,-1,1.0,2.0610019999999167
560,3,0.2,1.0,-35.0,-1,1.0,0.3335019999999531
561,3,0.2,0.25,-35.0,-1,1.0,0.28430200000002515
562,3,0.2,0.25,35.0,1,1.0,0.4804010000002563
563,3,0.2,0.0,35.0,-1,0.0,3.4811020000001918
564,3,0.2,0.125,35.0,1,1.0,0.8973019999998542
565,3,0.2,0.0625,-35.0,-1,1.0,7.245002000000568
566,3,0.2,0.0625,35.0,1,1.0,5.0645009999998365
567,3,0.2,1.0,-35.0,-1,1.0,0.35510199999998804
568,3,0.2,0.125,35.0,1,1.0,0.33120199999984834
569,3,0.2,0.125,35.0,1,1.0,0.2687020000003031
570,3,0.2,0.25,-35.0,-1,1.0,3.0114010000002054
571,3,0.2,0.0625,35.0,-1,0.0,11.34870200000023
572,3,0.2,1.0,35.0,1,1.0,0.2552009999999427
573,3,0.2,1.0,-35.0,-1,1.0,0.38300100000014936
574,3,0.2,1.0,35.0,1,1.0,0.2553020000000288
575,3,0.2,1.0,35.0,1,1.0,0.2260020000003351
576,3,0.2,1.0,35.0,1,1.0,0.2654019999999946
577,3,0.2,1.0,-35.0,-1,1.0,0.6396020000001954
578,3,0.2,0.125,35.0,1,1.0,0.5157009999998081
579,3,0.2,1.0,-35.0,-1,1.0,6.019702000000052
580,3,0.2,1.0,-35.0,-1,1.0,0.2993019999998978
581,3,0.2,1.0,-35.0,-1,1.0,0.5501020000006065
582,3,0.2,0.0625,35.0,-1,0.0,1.6663020000005417
583,3,0.2,0.0,35.0,-1,0.0,0.4236020000003009
584,3,0.2,0.0,-35.0,-1,1.0,2.2730020000003606
585,3,0.2,1.0,-35.0,-1,1.0,0.35050200000023324
586,3,0.2,1.0,35.0,1,1.0,0.243300999999974
587,3,0.2,1.0,35.0,1,1.0,0.6609010000001945
588,3,0.2,1.0,35.0,1,1.0,0.29330199999958495
589,3,0.2,0.0625,35.0,1,1.0,0.5777020000000448
590,3,0.2,0.0,35.0,1,1.0,2.640201000000161
591,3,0.2,1.0,35.0,1,1.0,0.24770200000011755
592,3,0.2,1.0,35.0,1,1.0,0.2838019999999233
593,3,0.2,0.0,35.0,1,1.0,10.997901000000184
594,3,0.2,0.0,35.0,1,1.0,0.31740099999979066
595,3,0.2,0.0,35.0,-1,0.0,3.208002000000306
596,3,0.2,1.0,35.0,1,1.0,0.2744019999995544
597,3,0.2,0.25,-35.0,1,0.0,0.3283010000000104
598,3,0.2,1.0,35.0,1,1.0,0.48450099999990925
599,3,0.2,0.25,-35.0,-1,1.0,0.7253010000003997
600,3,0.2,1.0,35.0,1,1.0,0.22480200000018158
601,3,0.2,0.25,35.0,1,1.0,0.22210199999972247
602,3,0.2,0.25,-35.0,-1,1.0,0.5515009999999165
603,3,0.2,0.125,35.0,1,1.0,0.3794019999995726
604,3,0.2,0.125,35.0,-1,0.0,16.341601000000537
605,3,0.2,0.0625,-35.0,-1,1.0,0.5066020000003846
606,3,0.2,0.0,35.0,-1,0.0,0.44900200000029145
607,3,0.2,0.25,35.0,1,1.0,0.3367019999996046
608,3,0.8,1.0,-35.0,-1,1.0,0.619202000000314
609,3,0.8,1.0,-35.0,-1,1.0,0.5566010000002279
610,3,0.8,0.125,-35.0,-1,1.0,0.6059010000003582
611,3,0.8,1.0,-35.0,-1,1.0,0.36320200000000114
612,3,0.8,0.0625,-35.0,-1,1.0,0.9695020000003751
613,3,0.8,0.0,-35.0,-1,1.0,0.4135020000003351
614,3,0.8,0.0,35.0,-1,0.0,0.5662019999999757
615,3,0.8,0.25,35.0,1,1.0,0.2504020000001219
616,3,0.8,0.125,-35.0,-1,1.0,0.38970100000005914
617,3,0.8,0.25,-35.0,-1,1.0,3.724202000000332
618,3,0.8,0.0,-35.0,-1,1.0,0.5534020000000055
619,3,0.8,0.125,-35.0,-1,1.0,0.5706009999998969
620,3,0.8,0.125,35.0,1,1.0,18.183400999999776
621,3,0.8,0.0625,35.0,1,1.0,0.3546010000000024
622,3,0.8,0.0625,35.0,-1,0.0,0.5739020000000892
623,3,0.8,1.0,-35.0,-1,1.0,0.35480199999983597
624,3,0.8,0.25,-35.0,-1,1.0,0.46090200000026016
625,3,0.8,0.0,-35.0,-1,1.0,0.7418009999996684
626,3,0.8,0.0,-35.0,-1,1.0,1.7178020000001197
627,3,0.8,0.0,-35.0,-1,1.0,1.8451019999997698
628,3,0.8,0.0,-35.0,-1,1.0,0.4579020000001037
629,3,0.8,0.0625,-35.0,-1,1.0,0.5319020000001728
630,3,0.8,1.0,35.0,1,1.0,0.2348019999999451
631,3,0.8,0.25,35.0,1,1.0,0.582100999999966
632,3,0.8,1.0,-35.0,-1,1.0,0.4715019999998731
633,3,0.8,0.0625,-35.0,-1,1.0,5.859102000000348
634,3,0.8,0.125,35.0,1,1.0,0.31180200000017066
635,3,0.8,0.25,35.0,1,1.0,0.29930100000001403
636,3,0.8,0.125,35.0,1,1.0,0.3453020000001743
637,3,0.8,0.25,-35.0,-1,1.0,4.926402000000053
638,3,0.8,1.0,-35.0,-1,1.0,0.7689020000002529
639,3,0.8,0.0625,-35.0,-1,1.0,0.4665020000002187
640,3,0.8,1.0,-35.0,-1,1.0,1.1424019999999473
641,3,0.8,0.0,35.0,-1,0.0,1.9466020000004391
642,3,0.8,1.0,-35.0,-1,1.0,0.3161019999997734
643,3,0.8,0.0,-35.0,-1,1.0,0.8037020000001576
644,3,0.8,0.25,-35.0,-1,1.0,2.0195019999996475
645,3,0.8,0.125,35.0,-1,0.0,3.610602000000199
646,3,0.8,0.0625,-35.0,-1,1.0,0.7232009999997899
647,3,0.8,0.125,35.0,1,1.0,1.9406019999996715
648,3,0.8,0.0625,35.0,-1,0.0,7.823300999999901
649,3,0.8,1.0,-35.0,-1,1.0,0.5411009999997987
650,3,0.8,0.0625,-35.0,-1,1.0,3.0238020000001598
651,3,0.8,0.0,-35.0,-1,1.0,4.697602000000188
652,3,0.8,0.0,35.0,-1,0.0,7.757401999999729
653,3,0.8,0.25,35.0,1,1.0,0.33840199999986
654,3,0.8,0.25,-35.0,-1,1.0,14.434402000000318
655,3,0.8,0.0625,-35.0,-1,1.0,6.418802000000142
656,3,0.8,0.125,-35.0,-1,1.0,1.6782020000005105
657,3,0.8,0.0625,35.0,-1,0.0,1.4589020000003075
658,3,0.8,0.125,-35.0,-1,1.0,2.4019020000000637
659,3,0.8,0.0,-35.0,1,0.0,1.0025019999998221
660,3,0.8,0.0,-35.0,1,0.0,1.1855020000002696
661,3,0.8,0.125,35.0,-1,0.0,2.4131019999999808
662,3,0.8,0.125,-35.0,1,0.0,3.8591019999998935
663,3,0.8,0.125,-35.0,1,0.0,17.58650200000011
664,3,0.8,1.0,35.0,1,1.0,0.31350200000042605
665,3,0.8,1.0,35.0,1,1.0,2.720401000000038
666,3,0.8,0.25,-35.0,-1,1.0,0.7733020000000579
667,3,0.8,0.0625,-35.0,-1,1.0,8.85060199999998
668,3,0.8,0.125,-35.0,-1,1.0,4.926902000000155
669,3,0.8,1.0,-35.0,-1,1.0,1.054801999999654
670,3,0.8,0.125,-35.0,1,0.0,0.6740010000003167
671,3,0.8,0.25,-35.0,1,0.0,0.8579020000001947
672,3,0.8,0.25,-35.0,-1,1.0,6.181001999999808
673,3,0.8,0.0,-35.0,1,0.0,3.415002000000186
674,3,0.8,1.0,-35.0,-1,1.0,0.4778009999999995
675,3,0.8,1.0,35.0,1,1.0,0.22190199999977267
676,3,0.8,0.25,-35.0,-1,1.0,12.918001000000004
677,3,0.8,1.0,-35.0,-1,1.0,0.7055010000003676
678,3,0.8,0.0625,-35.0,-1,1.0,4.878502000000026
679,3,0.8,0.25,-35.0,-1,1.0,1.5091020000004391
680,3,0.8,0.125,-35.0,-1,1.0,3.28870199999983
681,3,0.8,1.0,-35.0,-1,1.0,0.30280199999970137
682,3,0.8,1.0,-35.0,-1,1.0,0.3257020000000921
683,3,0.8,0.0625,-35.0,-1,1.0,1.576202000000194
684,3,0.8,1.0,-35.0,-1,1.0,0.34580099999993763
685,3,0.8,0.125,-35.0,-1,1.0,0.3799010000002454
686,3,0.8,1.0,-35.0,-1,1.0,0.5526020000002063
687,3,0.8,0.0625,-35.0,-1,1.0,0.4101020000002791
688,3,0.8,0.125,-35.0,-1,1.0,0.39270200000009936
689,3,0.8,0.25,-35.0,-1,1.0,0.5838020000001052
690,3,0.8,0.125,-35.0,-1,1.0,0.7731020000001081
691,3,0.2,1.0,35.0,1,1.0,0.22400199999992765
692,3,0.2,0.0625,35.0,1,1.0,1.8664020000001074
693,3,0.2,0.25,35.0,1,1.0,0.3777020000002267
694,3,0.2,0.0625,35.0,1,1.0,0.2632020000000921
695,3,0.2,0.25,35.0,1,1.0,0.22740100000009988
696,3,0.2,0.25,-35.0,1,0.0,0.4035019999996621
697,3,0.2,0.0,35.0,-1,0.0,3.817801000000145
698,3,0.2,0.0,35.0,-1,0.0,0.5738020000003416
699,3,0.2,0.25,35.0,1,1.0,0.2148019999999633
700,3,0.2,1.0,35.0,1,1.0,0.22720200000048862
1,4,0.5,0.125,-35.0,-1,1.0,0.5422000000000002
2,4,0.5,0.0,-35.0,-1,1.0,0.29389999999999983
3,4,0.5,1.0,-35.0,-1,1.0,0.4410999999999987
4,4,0.5,0.0625,-35.0,-1,1.0,2.2436999999999987
5,4,0.5,0.125,35.0,1,1.0,0.41059999999999874
6,4,0.5,1.0,-35.0,-1,1.0,0.520900000000001
7,4,0.5,1.0,35.0,1,1.0,0.19209999999999994
8,4,0.5,0.0,35.0,1,1.0,0.39950099999999367
9,4,0.5,0.0625,35.0,1,1.0,0.4027010000000004
10,4,0.5,1.0,-35.0,-1,1.0,2.357999999999997
11,4,0.5,0.0625,-35.0,1,0.0,0.510901000000004
12,4,0.5,0.125,-35.0,-1,1.0,0.30989999999999895
13,4,0.5,0.25,-35.0,-1,1.0,3.593400999999993
14,4,0.5,1.0,35.0,1,1.0,0.22290099999999313
15,4,0.5,0.0,-35.0,-1,1.0,0.28770100000001264
16,4,0.5,1.0,35.0,1,1.0,0.28640000000000043
17,4,0.5,0.0,-35.0,1,0.0,0.7522000000000162
18,4,0.5,0.0,-35.0,1,0.0,0.23450100000000873
19,4,0.5,0.125,-35.0,-1,1.0,0.3154010000000085
20,4,0.5,0.125,-35.0,-1,1.0,0.4726009999999974
21,4,0.5,1.0,-35.0,-1,1.0,3.0737000000000023
22,4,0.5,1.0,-35.0,-1,1.0,0.6559000000000168
23,4,0.5,1.0,35.0,1,1.0,0.24849999999999284
24,4,0.5,1.0,-35.0,-1,1.0,0.6678000000000139
25,4,0.5,0.125,35.0,1,1.0,0.22160000000000935
26,4,0.5,1.0,35.0,1,1.0,0.16990100000001007
27,4,0.5,0.25,-35.0,1,0.0,0.2319000000000102
28,4,0.5,0.0,35.0,-1,0.0,2.1291010000000057
29,4,0.5,0.0625,-35.0,-1,1.0,0.35310000000001196
30,4,0.5,1.0,-35.0,-1,1.0,0.26030000000000086
31,4,0.5,0.25,-35.0,-1,1.0,0.20710099999999443
32,4,0.5,0.125,35.0,1,1.0,0.21560099999999238
33,4,0.5,1.0,35.0,1,1.0,0.7123009999999965
34,4,0.5,1.0,35.0,1,1.0,0.20069999999998345
35,4,0.5,0.0625,-35.0,-1,1.0,1.362499999999983
36,4,0.5,0.25,-35.0,-1,1.0,0.2942999999999927
37,4,0.5,0.25,35.0,1,1.0,0.20499999999998408
38,4,0.5,1.0,35.0,1,1.0,0.22270000000000323
39,4,0.5,0.125,-35.0,-1,1.0,0.3103009999999813
40,4,0.5,0.0,35.0,-1,0.0,0.296401000000003
41,4,0.5,1.0,-35.0,-1,1.0,0.37009999999997945
42,4,0.5,0.0625,35.0,-1,0.0,0.3094999999999857
43,4,0.5,0.0625,35.0,1,1.0,0.21819999999999595
44,4,0.5,0.125,-35.0,-1,1.0,0.47480099999998515
45,4,0.5,0.25,-35.0,1,0.0,0.1927000000000021
46,4,0.5,0.25,-35.0,1,0.0,0.19530000000000314
47,4,0.5,0.0,35.0,1,1.0,0.14770099999998365
48,4,0.5,0.25,35.0,1,1.0,0.2867999999999995
49,4,0.5,0.0625,35.0,-1,0.0,0.10489999999998645
50,4,0.5,0.125,35.0,1,1.0,0.2326009999999883
51,4,0.5,0.25,35.0,1,1.0,0.09420000000000073
52,4,0.5,1.0,35.0,1,1.0,0.19500099999999065
53,4,0.5,1.0,35.0,1,1.0,0.20530100000001994
54,4,0.5,1.0,35.0,1,1.0,0.13950099999999566
55,4,0.5,0.25,35.0,1,1.0,0.238900000000001
56,4,0.5,0.0,-35.0,1,0.0,0.2541999999999689
57,4,0.5,1.0,35.0,1,1.0,0.21420000000000528
58,4,0.5,0.0,35.0,-1,0.0,0.8892999999999915
59,4,0.5,0.0,35.0,1,1.0,0.23770099999998706
60,4,0.5,0.25,35.0,1,1.0,0.20160099999998238
61,4,0.5,0.125,35.0,1,1.0,0.12520000000000664
62,4,0.5,0.25,-35.0,1,0.0,0.3553999999999746
63,4,0.5,0.125,-35.0,-1,1.0,0.7223999999999933
64,4,0.5,0.0,35.0,-1,0.0,0.3716009999999983
65,4,0.5,1.0,35.0,1,1.0,0.1693000000000211
66,4,0.5,0.125,35.0,1,1.0,0.24870099999998274
67,4,0.5,1.0,-35.0,-1,1.0,0.36159999999995307
68,4,0.5,1.0,-35.0,1,0.0,0.1375009999999861
69,4,0.5,0.25,35.0,1,1.0,0.15159999999997353
70,4,0.5,0.0625,35.0,1,1.0,0.16150100000004386
71,4,0.5,1.0,-35.0,-1,1.0,0.3556000000000381
72,4,0.5,0.0625,-35.0,-1,1.0,0.282799999999952
73,4,0.5,1.0,-35.0,-1,1.0,0.44180000000000064
74,4,0.5,0.25,35.0,1,1.0,0.20560100000000148
75,4,0.5,0.0,-35.0,-1,1.0,0.5767000000000166
76,4,0.5,0.25,-35.0,-1,1.0,0.24540099999995846
77,4,0.5,0.0,-35.0,-1,1.0,0.83720100000005
78,4,0.5,0.125,-35.0,-1,1.0,0.314200000000028
79,4,0.5,0.125,-35.0,-1,1.0,0.3378010000000131
80,4,0.5,0.0625,35.0,1,1.0,0.27040099999999256
81,4,0.5,0.25,35.0,1,1.0,0.3708000000000311
82,4,0.5,0.25,-35.0,-1,1.0,0.30700100000001385
83,4,0.5,1.0,35.0,1,1.0,0.3216009999999301
84,4,0.5,0.25,-35.0,-1,1.0,0.4592000000000098
85,4,0.5,0.125,35.0,1,1.0,0.21540099999998574
86,4,0.5,0.0625,-35.0,1,0.0,0.242999999999995
87,4,0.5,0.125,35.0,-1,0.0,0.40919999999999845
88,4,0.5,0.25,-35.0,-1,1.0,0.33820099999996955
89,4,0.5,1.0,-35.0,-1,1.0,0.8209009999999921
90,4,0.5,0.25,35.0,1,1.0,0.6592009999999959
91,4,0.2,0.125,35.0,1,1.0,0.22390000000001464
92,4,0.2,0.25,35.0,1,1.0,0.19070000000004939
93,4,0.2,0.125,35.0,1,1.0,0.22770099999996773
94,4,0.2,0.25,35.0,1,1.0,0.3407009999999673
95,4,0.2,1.0,35.0,1,1.0,0.22120100000000775
96,4,0.2,0.125,35.0,1,1.0,0.11840100000000575
97,4,0.2,1.0,35.0,1,1.0,0.41629999999997835
98,4,0.2,0.125,35.0,1,1.0,0.27700100000004113
99,4,0.2,0.0,35.0,1,1.0,0.31590099999999666
100,4,0.2,0.25,35.0,1,1.0,0.20330000000001291
101,4,0.2,0.0625,35.0,1,1.0,0.09190000000000964
102,4,0.2,0.25,-35.0,1,0.0,0.16739999999998645
103,4,0.2,0.0,35.0,-1,0.0,2.6247000000000185
104,4,0.2,0.25,35.0,1,1.0,0.2072009999999409
105,4,0.2,1.0,35.0,1,1.0,0.20990000000000464
106,4,0.2,0.0625,-35.0,1,0.0,0.16100000000000136
107,4,0.2,0.125,-35.0,-1,1.0,0.2674999999999841
108,4,0.2,0.125,-35.0,-1,1.0,0.3161999999999807
109,4,0.2,0.25,35.0,1,1.0,0.21060099999999693
110,4,0.2,0.0625,35.0,1,1.0,0.24930000000000518
111,4,0.2,1.0,35.0,1,1.0,0.19570099999998547
112,4,0.2,0.125,-35.0,-1,1.0,0.2524999999999977
113,4,0.2,0.25,35.0,1,1.0,0.2197999999999638
114,4,0.2,0.0625,35.0,1,1.0,0.6091000000000122
115,4,0.2,0.0625,35.0,-1,0.0,0.26130099999994627
116,4,0.2,0.25,-35.0,1,0.0,0.23240099999998165
117,4,0.2,0.0,35.0,1,1.0,0.21690100000000712
118,4,0.2,0.25,35.0,1,1.0,0.1705000000000041
119,4,0.2,0.0625,-35.0,-1,1.0,1.5129999999999768
120,4,0.2,0.0625,35.0,1,1.0,0.2262010000000032
121,4,0.2,0.25,-35.0,-1,1.0,0.39570000000003347
122,4,0.2,0.0,35.0,-1,0.0,2.0993010000000254
123,4,0.2,0.25,-35.0,1,0.0,0.2033999999999878
124,4,0.2,1.0,35.0,1,1.0,0.18399999999996908
125,4,0.2,0.125,35.0,1,1.0,0.2485009999999761
126,4,0.2,0.25,35.0,1,1.0,0.18860100000000557
127,4,0.2,0.0625,35.0,1,1.0,0.1956000000000131
128,4,0.2,0.0,35.0,1,1.0,0.17270000000002028
129,4,0.2,0.0,35.0,-1,0.0,0.542699999999968
130,4,0.2,0.125,35.0,1,1.0,0.24070100000000139
131,4,0.2,0.125,-35.0,1,0.0,0.16200000000003456
132,4,0.2,0.125,-35.0,-1,1.0,0.4167009999999891
133,4,0.2,0.25,35.0,1,1.0,0.22570100000007187
134,4,0.2,1.0,35.0,1,1.0,0.1792000000000371
135,4,0.2,0.25,35.0,1,1.0,0.22680100000002312
136,4,0.2,0.25,-35.0,-1,1.0,0.2540000000000191
137,4,0.8,0.0625,-35.0,-1,1.0,0.963100000000054
138,4,0.8,0.0,35.0,-1,0.0,0.5239000000001397
139,4,0.8,0.0625,-35.0,-1,1.0,0.2712010000000191
140,4,0.8,0.0,-35.0,1,0.0,0.1970010000000002
141,4,0.8,0.125,-35.0,-1,1.0,0.3504010000000335
142,4,0.8,1.0,-35.0,-1,1.0,0.2441000000000031
143,4,0.8,0.0625,-35.0,-1,1.0,0.2982000000000653
144,4,0.8,0.0,-35.0,-1,1.0,0.19119999999998072
145,4,0.8,0.25,35.0,1,1.0,0.23770100000001548
146,4,0.8,0.125,-35.0,-1,1.0,0.3763010000001259
147,4,0.8,0.125,-35.0,-1,1.0,2.855299999999943
148,4,0.8,0.25,-35.0,-1,1.0,0.22860100000002603
149,4,0.8,1.0,35.0,-1,0.0,0.17459999999994125
150,4,0.8,0.25,35.0,1,1.0,0.23080000000004475
151,4,0.8,0.25,35.0,1,1.0,0.24060100000008333
152,4,0.8,0.25,-35.0,-1,1.0,0.14390000000003056
153,4,0.8,0.25,-35.0,-1,1.0,0.25689999999997326
154,4,0.8,0.125,-35.0,-1,1.0,0.28920099999993454
155,4,0.8,0.125,-35.0,-1,1.0,0.25640100000009625
156,4,0.8,0.25,35.0,1,1.0,0.2726000000000113
157,4,0.8,0.125,-35.0,-1,1.0,0.2636009999999942
158,4,0.8,0.0,-35.0,-1,1.0,0.3305000000000291
159,4,0.8,0.125,35.0,1,1.0,0.23670000000004165
160,4,0.8,0.0,35.0,1,1.0,0.21440100000006623
161,4,0.8,0.0625,-35.0,-1,1.0,0.36140000000011696
162,4,0.8,0.0,-35.0,-1,1.0,2.1670000000001437
163,4,0.8,0.0,-35.0,1,0.0,0.21820000000002437
164,4,0.8,0.25,-35.0,-1,1.0,0.463301000000115
165,4,0.8,0.125,35.0,-1,0.0,0.3461000000000922
166,4,0.8,1.0,-35.0,1,0.0,0.20320000000003802
167,4,0.8,0.125,-35.0,1,0.0,0.23420099999998456
168,4,0.8,0.25,-35.0,-1,1.0,0.3240000000000691
169,4,0.8,0.0,-35.0,-1,1.0,0.21829999999999927
170,4,0.8,0.0,35.0,-1,0.0,0.6229010000000699
171,4,0.8,0.25,35.0,1,1.0,0.2985000000001037
172,4,0.8,0.125,-35.0,1,0.0,0.16700000000003
173,4,0.8,0.0625,-35.0,1,0.0,0.20810000000005857
174,4,0.8,0.0,-35.0,1,0.0,0.1142010000000937
175,4,0.8,0.0,-35.0,-1,1.0,0.3285009999999602
176,4,0.8,0.125,-35.0,-1,1.0,0.7584000000000515
177,4,0.8,0.0625,35.0,-1,0.0,0.27369999999996253
178,4,0.8,0.0625,-35.0,-1,1.0,0.5975000000000819
179,4,0.8,0.125,-35.0,-1,1.0,0.5929009999999835
180,4,0.8,0.0625,-35.0,-1,1.0,0.563301000000024
181,4,0.8,1.0,35.0,1,1.0,0.18849999999997635
182,4,0.8,0.25,35.0,1,1.0,0.22899999999992815
183,4,0.8,0.0,-35.0,1,0.0,0.2090010000000575
184,4,0.8,1.0,-35.0,-1,1.0,0.3382010000000264
185,4,0.8,0.125,-35.0,-1,1.0,0.3060010000000375
186,4,0.8,0.0625,-35.0,1,0.0,0.20040000000005875
187,4,0.8,0.0625,-35.0,-1,1.0,0.5000000000001137
188,4,0.8,0.0,-35.0,-1,1.0,0.3002010000000155
189,4,0.8,1.0,-35.0,-1,1.0,1.9637010000000146
190,4,0.8,0.0625,-35.0,-1,1.0,0.3608010000000377
191,4,0.8,0.25,-35.0,-1,1.0,0.7331000000000358
192,4,0.8,0.0625,-35.0,-1,1.0,1.3203009999999722
193,4,0.8,0.0625,-35.0,-1,1.0,0.6469010000000708
194,4,0.8,0.25,-35.0,-1,1.0,0.3544010000000526
195,4,0.8,0.0,-35.0,-1,1.0,0.6020009999999729
196,4,0.8,0.0625,-35.0,-1,1.0,0.5556000000001404
197,4,0.8,0.25,-35.0,-1,1.0,0.6380010000001448
198,4,0.8,1.0,-35.0,-1,1.0,0.32110099999999875
199,4,0.8,0.125,-35.0,-1,1.0,0.575601000000006
200,4,0.8,0.125,-35.0,-1,1.0,0.8249000000000706
201,4,0.8,0.25,-35.0,-1,1.0,0.491800000000012
202,4,0.8,0.0,-35.0,-1,1.0,0.8165010000000166
203,4,0.8,0.125,-35.0,-1,1.0,0.39370099999996455
204,4,0.8,0.25,-35.0,-1,1.0,0.25110000000006494
205,4,0.8,0.0,-35.0,-1,1.0,0.9986999999999853
206,4,0.8,0.0,35.0,-1,0.0,0.4229000000000269
207,4,0.8,0.25,-35.0,-1,1.0,0.27340000000003783
208,4,0.8,0.0625,-35.0,-1,1.0,0.3068000000000666
209,4,0.8,1.0,-35.0,-1,1.0,0.6894000000000915
210,4,0.8,0.0,-35.0,-1,1.0,0.4999010000000226
211,4,0.8,1.0,-35.0,-1,1.0,2.743101000000024
212,4,0.8,0.0,-35.0,-1,1.0,1.8214000000001533
213,4,0.8,0.0,35.0,-1,0.0,0.30460100000004786
214,4,0.8,0.125,-35.0,-1,1.0,1.9612010000000737
215,4,0.8,0.25,-35.0,-1,1.0,0.269800000000032
216,4,0.8,0.25,-35.0,-1,1.0,0.5494999999999663
217,4,0.8,1.0,-35.0,-1,1.0,0.27499999999997726
218,4,0.8,0.0,35.0,1,1.0,0.2338000000000875
219,4,0.2,1.0,35.0,1,1.0,0.24630100000013044
220,4,0.2,0.0625,35.0,1,1.0,0.27690000000006876
221,4,0.2,0.0,35.0,1,1.0,0.43899999999996453
222,4,0.2,1.0,35.0,1,1.0,0.21720000000004802
223,4,0.2,0.0625,35.0,1,1.0,0.24610100000006696
224,4,0.2,0.0625,-35.0,1,0.0,3.3175999999999704
225,4,0.2,0.25,35.0,1,1.0,0.21210000000007767
226,4,0.2,0.0,35.0,-1,0.0,3.0123009999999795
227,4,0.2,0.0625,35.0,1,1.0,0.21510000000012042
228,4,0.2,0.0625,35.0,1,1.0,0.20910000000003492
229,4,0.2,0.0625,35.0,1,1.0,0.2643009999999322
230,4,0.2,0.0,-35.0,1,0.0,0.27260100000012244
231,4,0.2,0.0,35.0,1,1.0,0.8490000000000464
232,4,0.2,0.0625,35.0,1,1.0,0.3307000000000926
233,4,0.2,1.0,35.0,1,1.0,0.6066000000000713
234,4,0.2,0.25,35.0,1,1.0,0.12980100000004313
235,4,0.2,0.125,35.0,1,1.0,0.08560100000011062
236,4,0.2,0.25,-35.0,-1,1.0,0.761600000000044
237,4,0.2,1.0,35.0,1,1.0,0.2038000000000011
238,4,0.2,0.0,-35.0,1,0.0,3.7501000000000886
239,4,0.2,1.0,35.0,1,1.0,0.2857010000000173
240,4,0.2,0.0,35.0,-1,0.0,1.6094000000000506
241,4,0.2,0.25,35.0,1,1.0,0.3127999999999247
242,4,0.2,0.0,35.0,1,1.0,3.29219999999998
243,4,0.2,0.125,35.0,1,1.0,0.23689999999999145
244,4,0.2,0.25,35.0,1,1.0,0.22289999999998145
245,4,0.2,0.0625,35.0,1,1.0,0.16150000000016007
246,4,0.2,0.0625,35.0,1,1.0,0.34789999999998145
247,4,0.2,0.0625,35.0,1,1.0,0.1570000000000391
248,4,0.2,0.25,35.0,1,1.0,0.2137000000000171
249,4,0.2,0.125,35.0,1,1.0,0.22820000000012897
250,4,0.2,0.0625,35.0,1,1.0,0.37859999999989213
251,4,0.2,0.0,35.0,1,1.0,0.28710000000012315
252,4,0.2,0.0,35.0,1,1.0,0.20460000000002765
253,4,0.2,0.125,-35.0,1,0.0,0.22580100000004677
254,4,0.2,1.0,35.0,1,1.0,0.23730000000011842
255,4,0.2,0.25,35.0,1,1.0,0.19220000000007076
256,4,0.2,1.0,35.0,1,1.0,0.17489999999997963
257,4,0.2,0.0625,-35.0,1,0.0,0.21850100000006023
258,4,0.2,0.0,35.0,1,1.0,0.23540100000013808
259,4,0.2,0.0,35.0,-1,0.0,0.5086000000000013
260,4,0.2,0.25,35.0,1,1.0,0.21860000000003765
261,4,0.2,1.0,35.0,1,1.0,0.18250000000011823
262,4,0.2,0.125,35.0,1,1.0,0.26880000000005566
263,4,0.2,0.25,35.0,1,1.0,0.24880000000007385
264,4,0.2,0.0,35.0,1,1.0,0.2522000000001299
265,4,0.2,0.0,-35.0,1,0.0,0.19570099999987178
266,4,0.2,0.0,35.0,1,1.0,0.31250100000011116
267,4,0.2,0.0625,-35.0,1,0.0,0.2957000000001244
268,4,0.2,0.0,35.0,1,1.0,0.24270100000012462
269,4,0.2,0.125,35.0,1,1.0,0.10280099999999948
270,4,0.2,0.25,35.0,1,1.0,0.23270000000024993
271,4,0.2,0.0625,35.0,1,1.0,0.3161000000000058
272,4,0.2,0.25,-35.0,-1,1.0,0.562900000000127
273,4,0.2,0.125,35.0,1,1.0,0.32300000000009277
274,4,0.2,0.125,-35.0,-1,1.0,0.5798999999999523
275,4,0.2,0.25,35.0,1,1.0,0.33000099999981103
276,4,0.2,0.25,35.0,1,1.0,0.21000100000014754
277,4,0.2,0.0625,35.0,1,1.0,0.8167000000000826
278,4,0.2,0.0625,-35.0,1,0.0,0.16330000000016298
279,4,0.2,0.0,35.0,1,1.0,0.2636000000002241
280,4,0.2,0.125,35.0,1,1.0,0.31680099999994127
281,4,0.2,0.0,35.0,-1,0.0,0.4105010000000675
282,4,0.2,1.0,35.0,1,1.0,0.20040100000005623
283,4,0.2,0.25,35.0,1,1.0,0.18380100000013044
284,4,0.2,0.25,35.0,1,1.0,0.18730000000027758
285,4,0.8,1.0,-35.0,1,0.0,0.19400100000007114
286,4,0.8,0.125,-35.0,-1,1.0,0.5173999999999523
287,4,0.8,0.0625,-35.0,-1,1.0,0.4477999999999156
288,4,0.8,0.125,35.0,1,1.0,0.19750100000010207
289,4,0.8,0.25,-35.0,-1,1.0,0.4276009999998678
290,4,0.8,0.25,-35.0,1,0.0,0.25440100000014354
291,4,0.8,0.125,35.0,1,1.0,0.21780100000000857
292,4,0.8,0.0625,-35.0,-1,1.0,0.6012010000001737
293,4,0.8,0.125,-35.0,-1,1.0,0.5584000000001197
294,4,0.8,0.0,-35.0,1,0.0,0.6247000000000753
295,4,0.8,0.25,-35.0,1,0.0,0.24820100000010825
296,4,0.8,0.0,35.0,1,1.0,0.2215009999999893
297,4,0.8,0.125,35.0,1,1.0,0.2783009999998285
298,4,0.8,1.0,-35.0,-1,1.0,0.5215009999999438
299,4,0.8,0.125,-35.0,1,0.0,0.4819999999999709
300,4,0.8,0.0,35.0,1,1.0,0.18190000000026885
301,4,0.8,1.0,-35.0,1,0.0,0.20870100000001912
302,4,0.8,0.125,-35.0,1,0.0,0.17190099999993436
303,4,0.8,0.0,-35.0,1,0.0,0.16589999999996508
304,4,0.8,0.0625,-35.0,-1,1.0,0.6787000000001626
305,4,0.8,0.25,-35.0,-1,1.0,0.4591009999999187
306,4,0.8,0.125,-35.0,-1,1.0,0.5021999999999025
307,4,0.8,0.125,-35.0,-1,1.0,0.3461010000000897
308,4,0.8,0.125,-35.0,-1,1.0,1.06899999999996
309,4,0.8,0.25,-35.0,-1,1.0,0.24639999999999418
310,4,0.8,0.0,-35.0,-1,1.0,0.4993000000001757
311,4,0.2,1.0,35.0,-1,0.0,0.7093010000000959
312,4,0.2,1.0,-35.0,-1,1.0,0.7228010000001177
313,4,0.2,1.0,35.0,1,1.0,0.2130010000000766
314,4,0.2,1.0,35.0,1,1.0,0.2562000000000353
315,4,0.2,0.0625,35.0,1,1.0,0.24289999999996326
316,4,0.2,0.0625,35.0,1,1.0,0.16970100000025923
317,4,0.2,0.0625,-35.0,1,0.0,0.2135000000000673
318,4,0.2,0.0625,35.0,-1,0.0,0.4498000000000957
319,4,0.2,0.0,35.0,1,1.0,0.3000000000001819
320,4,0.2,0.0,35.0,1,1.0,0.400101000000177
321,4,0.2,1.0,35.0,1,1.0,0.26070000000026994
322,4,0.2,0.125,-35.0,1,0.0,0.2601999999999407
323,4,0.2,0.125,35.0,1,1.0,0.1669000000001688
324,4,0.2,1.0,35.0,1,1.0,0.22700000000008913
325,4,0.2,0.0625,35.0,1,1.0,0.2971010000001115
326,4,0.2,1.0,35.0,1,1.0,0.21390000000019427
327,4,0.2,0.0,35.0,1,1.0,0.18090000000006512
328,4,0.2,0.125,35.0,1,1.0,0.22400100000004386
329,4,0.2,1.0,35.0,1,1.0,0.22090000000002874
330,4,0.2,0.25,-35.0,-1,1.0,0.5776009999999587
331,4,0.2,0.0,35.0,1,1.0,0.29099999999994
332,4,0.2,1.0,35.0,1,1.0,0.24440099999992526
333,4,0.2,1.0,35.0,1,1.0,0.17440000000010514
334,4,0.2,0.125,35.0,1,1.0,0.2076999999999316
335,4,0.2,0.25,-35.0,1,0.0,0.22820100000012644
336,4,0.2,0.25,35.0,1,1.0,0.0879010000001017
337,4,0.2,1.0,-35.0,1,0.0,0.24130000000013752
338,4,0.2,0.0,-35.0,1,0.0,
339,4,0.2,0.0,35.0,1,1.0,
340,4,0.2,0.25,35.0,1,1.0,
341,4,0.2,0.125,35.0,-1,0.0,
342,4,0.2,0.25,35.0,-1,0.0,
343,4,0.2,0.0,35.0,1,1.0,
344,4,0.2,0.125,35.0,1,1.0,
345,4,0.2,1.0,-35.0,1,0.0,
346,4,0.2,0.0625,35.0,1,1.0,
347,4,0.2,0.0625,35.0,1,1.0,
348,4,0.2,0.0,35.0,1,1.0,
349,4,0.2,1.0,35.0,1,1.0,
350,4,0.2,0.0,35.0,1,1.0,
351,4,0.8,0.0,-35.0,1,0.0,
352,4,0.8,0.25,-35.0,1,0.0,
353,4,0.8,0.125,-35.0,-1,1.0,
354,4,0.8,0.0625,-35.0,-1,1.0,
355,4,0.8,0.125,-35.0,-1,1.0,
356,4,0.8,1.0,-35.0,-1,1.0,
357,4,0.8,0.0,35.0,1,1.0,
358,4,0.8,0.25,-35.0,-1,1.0,
359,4,0.8,0.0625,-35.0,1,0.0,
360,4,0.8,0.0,-35.0,1,0.0,
361,4,0.8,0.125,-35.0,-1,1.0,
362,4,0.8,0.125,-35.0,-1,1.0,
363,4,0.8,0.125,-35.0,-1,1.0,
364,4,0.8,0.125,-35.0,-1,1.0,
365,4,0.8,0.0,-35.0,-1,1.0,
366,4,0.8,1.0,-35.0,-1,1.0,
367,4,0.8,0.25,-35.0,-1,1.0,
368,4,0.8,0.125,-35.0,-1,1.0,
369,4,0.8,0.125,-35.0,-1,1.0,
370,4,0.8,1.0,-35.0,-1,1.0,
371,4,0.8,0.25,-35.0,1,0.0,
372,4,0.8,1.0,-35.0,1,0.0,
373,4,0.8,0.0,-35.0,1,0.0,
374,4,0.8,0.25,-35.0,-1,1.0,
375,4,0.8,0.0,-35.0,-1,1.0,
376,4,0.8,0.0625,-35.0,-1,1.0,
377,4,0.8,0.0,-35.0,-1,1.0,
378,4,0.8,0.0625,-35.0,-1,1.0,
379,4,0.8,0.0,-35.0,1,0.0,
