trial_num,session_num,stim_probability_left,contrast,position,response_choice,trial_correct,reaction_time
1,57,0.5,0.25,35.0,1,1.0,0.46609999999999996
2,57,0.5,0.0625,-35.0,1,0.0,0.28530100000000047
3,57,1.0,0.0625,-35.0,1,0.0,
4,57,0.5,1.0,-35.0,1,0.0,0.3913000000000011
5,57,0.5,0.0625,-35.0,1,0.0,0.42240099999999714
6,57,0.5,0.125,35.0,1,1.0,0.3773010000000028
7,57,0.5,0.125,-35.0,1,0.0,
8,57,0.5,0.125,-35.0,1,0.0,0.14690000000000225
9,57,1.0,0.125,-35.0,1,0.0,0.3092010000000016
10,57,0.5,1.0,-35.0,1,0.0,0.36990000000000123
11,57,1.0,1.0,-35.0,1,0.0,0.31930099999999584
12,57,1.0,1.0,-35.0,1,0.0,0.476900999999998
13,57,1.0,1.0,-35.0,1,0.0,0.3859999999999957
14,57,1.0,1.0,-35.0,1,0.0,0.36469999999999914
15,57,1.0,1.0,-35.0,-1,1.0,2.659800000000004
16,57,0.5,1.0,-35.0,1,0.0,0.3357999999999919
17,57,0.5,0.25,35.0,1,1.0,0.392201
18,57,0.5,0.0,-35.0,1,0.0,0.3462999999999994
19,57,0.5,0.125,35.0,1,1.0,0.29710099999998363
20,57,0.5,1.0,-35.0,-1,1.0,1.0035009999999858
21,57,0.5,0.0625,-35.0,1,0.0,0.1675999999999931
22,57,0.5,0.0625,35.0,1,1.0,0.48360099999999306
23,57,0.5,0.25,35.0,1,1.0,2.100100999999995
24,57,0.5,0.25,35.0,1,1.0,0.6151010000000099
25,57,0.5,0.125,-35.0,1,0.0,0.24589999999997758
26,57,0.5,0.125,35.0,1,1.0,0.2980009999999993
27,57,0.5,0.0625,35.0,1,1.0,0.5095010000000002
28,57,0.5,1.0,-35.0,1,0.0,0.248201000000023
29,57,0.5,0.0625,35.0,-1,0.0,0.34490100000002144
30,57,0.5,0.0625,-35.0,1,0.0,0.3180010000000095
31,57,0.5,0.125,-35.0,1,0.0,0.2634000000000185
32,57,0.5,0.0625,35.0,1,1.0,0.32590099999998756
33,57,0.5,1.0,-35.0,1,0.0,0.10460099999997396
34,57,0.5,0.25,-35.0,1,0.0,0.4523010000000056
35,57,0.5,0.25,-35.0,1,0.0,0.43330100000000016
36,57,0.5,0.0625,-35.0,1,0.0,0.27330100000000357
37,57,0.5,0.25,-35.0,1,0.0,0.2256009999999833
38,57,0.5,0.25,35.0,1,1.0,0.3699999999999761
39,57,0.5,0.0625,35.0,1,1.0,0.2886009999999999
40,57,0.5,0.25,-35.0,-1,1.0,0.4840009999999779
41,57,0.5,0.25,35.0,1,1.0,0.27430100000000834
42,57,0.5,0.0625,-35.0,1,0.0,0.2862010000000055
43,57,0.5,0.25,-35.0,-1,1.0,0.5539009999999678
44,57,0.5,0.0,-35.0,1,0.0,0.10620100000002708
45,57,0.8,0.0,35.0,1,1.0,0.17800099999999475
46,57,0.5,1.0,-35.0,1,0.0,0.3821000000000083
47,57,0.5,0.0625,35.0,-1,0.0,0.6229000000000156
48,57,0.7,0.0625,35.0,1,1.0,0.3166999999999689
49,57,0.5,1.0,35.0,1,1.0,0.12370100000001116
50,57,0.5,0.125,35.0,1,1.0,0.12530000000000996
51,57,0.5,0.0625,35.0,1,1.0,0.26679999999998927
52,57,0.5,0.0,35.0,1,1.0,0.2937010000000271
53,57,0.5,1.0,35.0,1,1.0,0.11360000000001946
54,57,0.5,0.125,-35.0,1,0.0,0.46120100000001685
55,57,0.9,0.125,-35.0,1,0.0,0.198900999999978
56,57,0.5,1.0,-35.0,1,0.0,0.2966999999999871
57,57,0.5,0.125,-35.0,-1,1.0,0.6414000000000328
58,57,0.5,1.0,-35.0,1,0.0,0.329400000000021
59,57,0.5,0.125,35.0,-1,0.0,13.740700000000004
60,57,0.8,0.125,35.0,1,1.0,0.2524010000000203
61,57,0.5,1.0,-35.0,1,0.0,
62,57,0.5,0.25,-35.0,-1,1.0,1.0464000000000055
63,57,0.5,0.125,-35.0,1,0.0,0.3517999999999688
64,57,0.7,0.125,-35.0,-1,1.0,0.7472009999999614
65,57,0.5,1.0,-35.0,1,0.0,0.34470000000004575
66,57,0.6,1.0,35.0,-1,0.0,6.051000999999985
67,57,0.5,1.0,35.0,1,1.0,0.23619999999999663
68,57,0.5,1.0,-35.0,1,0.0,0.3394000000000119
69,57,0.6,1.0,35.0,1,1.0,0.3778010000000336
70,57,0.5,1.0,35.0,1,1.0,0.2122009999999932
71,57,0.5,0.0625,35.0,1,1.0,0.3281999999999812
72,57,0.5,0.25,35.0,1,1.0,0.3726010000000315
73,57,0.5,1.0,35.0,1,1.0,0.48220100000003185
74,57,0.5,1.0,-35.0,-1,1.0,0.40920099999999593
75,57,0.5,0.25,-35.0,1,0.0,0.2624010000000112
76,57,0.8,0.25,-35.0,1,0.0,0.20849999999995816
77,57,0.5,1.0,-35.0,-1,1.0,0.4753000000000611
78,57,0.5,0.0625,-35.0,-1,1.0,0.22410099999996191
79,57,0.5,0.25,-35.0,1,0.0,0.2929009999999721
80,57,0.5,0.25,-35.0,1,0.0,0.3136000000000081
81,57,0.5,0.25,35.0,-1,0.0,0.9334010000000035
82,57,0.5,0.0625,-35.0,1,0.0,0.31780000000003383
83,57,0.5,0.25,35.0,1,1.0,0.3540999999999599
84,57,0.5,0.125,-35.0,1,0.0,0.3040009999999711
85,57,0.5,0.0,35.0,-1,0.0,0.4574000000000069
86,57,0.5,0.25,35.0,-1,0.0,0.5705009999999788
87,57,0.5,0.25,-35.0,1,0.0,0.3319010000000162
88,57,0.5,1.0,-35.0,1,0.0,0.32090100000004895
89,57,0.5,0.125,-35.0,-1,1.0,0.3891009999999824
90,57,0.5,0.125,35.0,1,1.0,0.8797009999999545
91,57,0.5,0.125,-35.0,1,0.0,1.1343009999999367
92,57,0.5,0.0625,35.0,1,1.0,0.30270099999995637
93,57,0.5,0.0625,-35.0,1,0.0,0.2584009999999921
94,57,0.5,0.25,-35.0,1,0.0,0.3442000000000007
95,57,0.5,0.0625,-35.0,1,0.0,0.3161010000000033
96,57,0.5,0.0625,-35.0,1,0.0,0.401600999999971
97,57,0.5,0.0,-35.0,1,0.0,6.2506009999999605
98,57,0.5,0.0625,35.0,1,1.0,0.3098009999999931
99,57,0.5,0.125,-35.0,-1,1.0,2.7364010000000007
100,57,0.5,0.25,-35.0,1,0.0,0.4097000000000435
101,57,0.5,0.0625,-35.0,1,0.0,0.3165010000000166
102,57,0.5,0.25,-35.0,1,0.0,0.27270099999998365
103,57,0.5,0.25,-35.0,-1,1.0,0.2983010000000377
104,57,0.5,0.25,35.0,1,1.0,1.5760010000000193
105,57,0.5,0.0625,-35.0,-1,1.0,0.6050999999999931
106,57,0.5,0.0,-35.0,1,0.0,0.2619000000000824
107,57,0.5,0.125,-35.0,1,0.0,0.3830999999998994
108,57,0.5,0.125,35.0,1,1.0,0.28680000000008476
109,57,0.5,0.0,-35.0,1,0.0,0.32510100000013153
110,57,0.5,0.125,-35.0,1,0.0,0.2858999999999696
111,57,0.5,0.25,-35.0,1,0.0,1.7262000000000626
112,57,0.5,0.25,35.0,1,1.0,0.2983000000000402
113,57,0.5,0.125,35.0,1,1.0,0.3021009999999933
114,57,0.5,0.125,-35.0,1,0.0,0.10250000000007731
115,57,0.5,0.25,-35.0,-1,1.0,4.6170000000000755
116,57,0.5,0.125,35.0,1,1.0,0.39170000000001437
117,57,0.5,1.0,35.0,1,1.0,0.2964000000000624
118,57,0.5,1.0,-35.0,1,0.0,3.2112010000000737
119,57,0.5,0.125,35.0,1,1.0,0.44570099999998547
120,57,0.5,1.0,35.0,1,1.0,0.36189999999999145
121,57,0.5,1.0,35.0,1,1.0,0.2011009999999942
122,57,0.5,0.0,-35.0,1,0.0,0.2659009999999853
123,57,0.5,0.0625,35.0,1,1.0,0.35130000000003747
124,57,0.5,0.0,-35.0,-1,1.0,3.825001000000043
125,57,0.5,0.0625,-35.0,1,0.0,0.2895010000000866
126,57,0.9,0.0625,-35.0,1,0.0,0.3605999999999767
127,57,0.5,1.0,-35.0,1,0.0,0.3163000000000693
128,57,0.5,0.0625,-35.0,1,0.0,0.294399999999996
129,57,0.5,0.0,35.0,1,1.0,0.1809010000000626
130,57,0.5,0.0625,35.0,1,1.0,0.2109010000000353
131,57,0.5,0.0625,-35.0,1,0.0,0.1810010000000375
132,57,0.5,0.0,-35.0,1,0.0,0.31740100000001803
133,57,0.9,0.0,-35.0,-1,1.0,3.08949999999993
134,57,0.5,1.0,-35.0,1,0.0,0.3305010000000266
135,57,0.5,0.25,35.0,1,1.0,0.3457010000000764
136,57,0.5,1.0,-35.0,1,0.0,0.3074010000000271
137,57,0.9,1.0,35.0,1,1.0,0.2454000000001315
138,57,0.5,1.0,-35.0,1,0.0,0.31360000000006494
139,57,0.5,0.125,-35.0,1,0.0,0.8365999999999758
140,57,0.9,0.125,-35.0,-1,1.0,0.7175000000000864
141,57,0.5,1.0,-35.0,-1,1.0,1.0425000000000182
142,57,0.5,0.125,35.0,1,1.0,0.26450099999999566
143,57,0.5,0.0625,-35.0,1,0.0,0.1469009999999571
144,57,0.8,0.0625,35.0,-1,0.0,1.4959010000001172
145,57,0.5,1.0,35.0,1,1.0,0.37310100000001967
146,57,0.5,1.0,-35.0,1,0.0,0.26490000000012515
147,57,0.5,0.0625,35.0,1,1.0,0.28630100000009406
148,57,0.5,0.0,35.0,1,1.0,0.3416010000000824
149,57,0.5,0.0,35.0,1,1.0,2.774599999999964
150,57,0.5,0.0625,-35.0,1,0.0,0.26900100000000293
151,57,0.5,0.125,-35.0,1,0.0,0.2778000000000702
152,57,0.5,0.0,-35.0,1,0.0,0.2795010000000957
153,57,0.5,0.0625,35.0,1,1.0,0.30189999999993233
154,57,0.5,1.0,35.0,1,1.0,0.29480100000000675
155,57,0.5,0.0625,-35.0,1,0.0,0.27710000000001855
156,57,0.5,0.0,35.0,1,1.0,0.3703010000000404
157,57,0.5,1.0,35.0,1,1.0,0.27729999999996835
158,57,0.5,0.125,-35.0,1,0.0,0.259001000000012
159,57,1.0,0.125,-35.0,1,0.0,0.25840100000004895
160,57,0.5,1.0,-35.0,1,0.0,0.2357000000000653
161,57,0.5,0.0625,35.0,1,1.0,0.27850100000000566
162,57,0.5,0.125,-35.0,1,0.0,0.287900000000036
163,57,0.5,0.0625,35.0,1,1.0,0.31650100000013026
164,57,0.5,0.0625,35.0,-1,0.0,1.6301010000000815
165,57,0.5,0.25,-35.0,1,0.0,0.3183010000000195
166,57,0.5,0.125,35.0,1,1.0,0.22880099999997583
167,57,0.5,1.0,-35.0,-1,1.0,4.893500000000017
168,57,0.5,1.0,-35.0,1,0.0,0.26270100000010643
169,57,0.5,0.0625,-35.0,-1,1.0,0.5021010000000388
170,57,0.5,1.0,35.0,1,1.0,0.39240000000006603
171,57,0.5,0.125,35.0,1,1.0,0.2734010000000353
172,57,0.5,0.0,35.0,1,1.0,0.28420100000016646
173,57,0.5,0.125,-35.0,1,0.0,0.3809009999999944
174,57,0.7,0.125,35.0,1,1.0,0.540300000000002
175,57,0.5,1.0,-35.0,1,0.0,0.3864010000000917
176,57,0.8,1.0,-35.0,1,0.0,0.26100000000008095
177,57,0.8,1.0,-35.0,1,0.0,1.1075010000000702
178,57,0.9,1.0,-35.0,1,0.0,0.3524999999999636
179,57,0.9,1.0,-35.0,1,0.0,0.4997000000000753
180,57,1.0,1.0,-35.0,1,0.0,0.20930100000009588
181,57,1.0,1.0,-35.0,1,0.0,0.25080100000002403
182,57,1.0,1.0,-35.0,1,0.0,0.33080100000006496
183,57,1.0,1.0,-35.0,-1,1.0,0.6750000000000682
184,57,0.5,1.0,-35.0,-1,1.0,0.5479000000000269
185,57,0.5,1.0,-35.0,1,0.0,0.2654000000001133
186,57,0.8,1.0,35.0,1,1.0,0.2836010000000897
187,57,0.5,1.0,-35.0,1,0.0,0.34700100000009115
188,57,0.8,1.0,-35.0,1,0.0,0.3161000000001195
189,57,0.8,1.0,35.0,1,1.0,0.29510000000004766
190,57,0.5,1.0,-35.0,-1,1.0,0.6079010000000835
191,57,0.5,0.25,-35.0,1,0.0,0.2496009999999842
192,57,0.5,0.0625,35.0,1,1.0,0.28309999999999036
193,57,0.5,0.0625,35.0,1,1.0,0.31700100000011844
194,57,0.5,1.0,35.0,1,1.0,0.20080000000007203
195,57,0.5,0.25,-35.0,1,0.0,0.25099999999997635
196,57,0.5,0.125,-35.0,1,0.0,0.19209999999998217
197,57,0.9,0.125,-35.0,1,0.0,0.20060100000000602
198,57,0.5,1.0,-35.0,1,0.0,0.2915010000000393
199,57,0.5,0.0,35.0,1,1.0,0.3238010000001168
200,57,0.5,0.0625,35.0,1,1.0,0.2906000000000404
201,57,0.5,0.0,-35.0,1,0.0,0.6210000000000946
202,57,0.5,0.125,-35.0,1,0.0,0.2635010000000193
203,57,1.0,0.125,-35.0,1,0.0,0.3621010000000524
204,57,0.5,1.0,-35.0,1,0.0,0.43360100000006696
205,57,0.5,0.125,-35.0,1,0.0,0.6979010000001153
206,57,1.0,0.125,-35.0,1,0.0,0.7322000000000344
207,57,0.5,1.0,-35.0,1,0.0,1.2460009999999784
208,57,0.5,0.0625,-35.0,1,0.0,0.5991999999999962
209,57,0.5,0.0,35.0,1,1.0,0.8132000000001653
210,57,0.5,1.0,-35.0,1,0.0,0.29680000000007567
211,57,0.5,0.25,35.0,1,1.0,0.3747000000000753
212,57,0.5,0.0,-35.0,1,0.0,0.3922010000001137
213,57,1.0,0.0,35.0,-1,0.0,9.016101000000049
214,57,0.5,1.0,-35.0,-1,1.0,0.41620100000000093
215,57,0.5,0.0625,35.0,-1,0.0,0.6488010000000486
216,57,0.7,0.0625,-35.0,-1,1.0,0.6625010000001339
217,57,0.5,1.0,35.0,1,1.0,0.25660100000004604
218,57,0.5,0.0625,-35.0,1,0.0,0.27030100000001767
219,57,0.6,0.0625,-35.0,-1,1.0,1.040100999999936
220,57,0.5,1.0,-35.0,1,0.0,0.426900000000046
221,57,0.5,0.125,-35.0,-1,1.0,0.9803010000001677
222,57,0.5,0.25,-35.0,1,0.0,0.26729999999997744
223,57,0.5,0.0625,-35.0,1,0.0,0.330400999999938
224,57,0.5,0.0625,-35.0,-1,1.0,0.6440010000001166
225,57,0.5,0.25,-35.0,-1,1.0,1.1438009999999394
226,57,0.5,0.25,35.0,1,1.0,0.6909009999999398
227,57,0.5,0.0625,35.0,1,1.0,0.310600999999906
228,57,0.5,0.125,-35.0,1,0.0,0.9576010000000679
229,57,0.5,0.0,-35.0,1,0.0,0.36750199999983124
230,57,0.5,0.0625,35.0,1,1.0,0.2578009999999722
231,57,0.5,0.25,35.0,1,1.0,0.3376020000000608
232,57,0.5,0.0,-35.0,1,0.0,1.3347009999999955
233,57,0.5,0.125,35.0,1,1.0,0.44120199999997567
234,57,0.5,1.0,35.0,1,1.0,0.3414020000000164
235,57,0.5,0.25,35.0,1,1.0,0.43780199999991964
236,57,0.5,0.125,-35.0,1,0.0,0.3017019999999775
237,57,0.5,0.0625,35.0,1,1.0,0.25470099999984086
238,57,0.5,1.0,-35.0,1,0.0,0.3016010000001188
239,57,0.5,0.125,35.0,1,1.0,0.27820100000008097
240,57,0.5,0.0625,35.0,1,1.0,0.3486009999999169
241,57,0.5,0.0625,-35.0,1,0.0,0.271502000000055
242,57,0.5,0.0625,-35.0,1,0.0,0.2819009999998343
243,57,0.5,0.0,35.0,-1,0.0,0.3684019999998327
244,57,0.5,0.125,-35.0,1,0.0,2.525401999999758
245,57,0.5,0.0625,35.0,1,1.0,0.1786010000000715
246,57,0.5,0.25,35.0,1,1.0,0.26240099999995437
247,57,0.5,1.0,35.0,1,1.0,0.29540199999973993
248,57,0.5,1.0,-35.0,1,0.0,0.3723019999999906
249,57,0.9,1.0,-35.0,1,0.0,0.4488019999998869
250,57,0.9,1.0,-35.0,1,0.0,0.31270199999994475
251,57,0.9,1.0,-35.0,-1,1.0,0.5323019999996177
252,57,0.5,1.0,-35.0,-1,1.0,0.535801999999876
253,57,0.5,0.125,35.0,1,1.0,0.3057019999998829
254,57,0.5,1.0,-35.0,1,0.0,0.3059009999999489
255,57,0.5,0.25,-35.0,1,0.0,0.27920099999982995
256,57,0.5,0.0,35.0,-1,0.0,7.526200999999901
257,57,0.5,0.125,35.0,1,1.0,0.38950099999988197
258,57,0.5,1.0,35.0,1,1.0,0.29010199999993347
259,57,0.5,0.125,35.0,1,1.0,0.2496009999999842
260,57,0.5,0.0625,-35.0,1,0.0,0.3466009999999642
261,57,0.5,0.25,-35.0,1,0.0,0.423001000000113
262,57,0.5,0.0625,35.0,1,1.0,0.4001020000000608
263,57,0.5,1.0,35.0,1,1.0,0.27660199999991164
264,57,0.5,0.0625,35.0,1,1.0,0.3603009999999358
265,57,0.5,0.125,-35.0,1,0.0,0.4067019999997683
266,57,0.9,0.125,-35.0,1,0.0,0.313801999999896
267,57,0.5,1.0,35.0,1,1.0,0.5202010000000428
268,57,0.5,0.125,35.0,1,1.0,0.3772009999997863
269,57,0.5,0.125,-35.0,1,0.0,0.5603019999998651
270,57,0.5,0.0625,-35.0,1,0.0,0.3639020000000528
271,57,0.5,0.25,-35.0,-1,1.0,2.214001000000053
272,57,0.5,0.125,-35.0,-1,1.0,3.2640010000000075
273,57,0.5,1.0,-35.0,1,0.0,2.470702000000074
274,57,0.5,0.25,-35.0,1,0.0,0.31430199999999786
275,57,0.5,0.125,-35.0,-1,1.0,0.44420199999990473
276,57,0.5,0.0625,-35.0,-1,1.0,6.251101999999946
277,57,0.5,0.0,35.0,-1,0.0,5.487701999999899
278,57,0.5,0.0,35.0,1,1.0,2.2149010000000544
279,57,0.5,1.0,-35.0,1,0.0,0.36150199999974575
280,57,0.5,0.0,35.0,1,1.0,0.3083010000000286
281,57,0.5,0.0625,-35.0,1,0.0,0.3415010000001075
282,57,0.5,0.0625,35.0,1,1.0,1.1854010000001836
283,57,0.5,0.125,-35.0,1,0.0,0.3750019999997676
284,57,0.5,0.0,-35.0,1,0.0,0.33870200000001205
285,57,0.5,0.0625,-35.0,-1,1.0,3.4151010000000497
286,57,0.5,1.0,35.0,1,1.0,0.3156019999998989
287,57,0.5,0.0625,35.0,1,1.0,0.2953010000001086
288,57,0.5,0.125,35.0,1,1.0,0.3323019999997996
289,57,0.5,1.0,-35.0,1,0.0,0.32220200000006116
290,57,0.5,0.25,-35.0,-1,1.0,0.5692010000000209
291,57,0.5,1.0,-35.0,1,0.0,0.5789009999998598
292,57,0.5,0.0625,-35.0,1,0.0,0.3162019999997483
293,57,0.5,0.0,-35.0,-1,1.0,12.462401999999884
294,57,0.5,0.25,-35.0,-1,1.0,1.5430019999998876
295,57,0.5,0.0,-35.0,1,0.0,0.29290100000002894
296,57,0.5,0.25,35.0,1,1.0,0.8563010000000304
297,57,0.5,0.125,-35.0,1,0.0,0.36630200000013247
298,57,0.5,0.125,35.0,1,1.0,0.3132010000001628
299,57,0.5,0.25,-35.0,1,0.0,6.9298019999998814
300,57,0.7,0.25,35.0,1,1.0,0.28690099999994345
301,57,0.5,1.0,35.0,1,1.0,0.24010199999997894
302,57,0.5,0.25,35.0,1,1.0,0.31700099999989106
303,57,0.5,0.125,35.0,1,1.0,0.3569009999998798
304,57,0.5,0.125,35.0,1,1.0,0.2940009999997528
305,57,0.5,0.0625,-35.0,1,0.0,0.29690099999993436
306,57,0.5,0.0625,-35.0,1,0.0,0.23050199999988763
307,57,0.5,0.125,-35.0,-1,1.0,1.0071019999998043
308,57,0.5,1.0,-35.0,1,0.0,0.5575020000001132
309,57,0.9,1.0,-35.0,1,0.0,3.830500999999913
310,57,0.9,1.0,-35.0,-1,1.0,6.667502000000013
311,57,0.5,1.0,-35.0,-1,1.0,2.134301999999934
312,57,0.5,0.0625,-35.0,-1,1.0,0.7145020000000386
313,57,0.5,0.125,35.0,1,1.0,0.3478019999997741
314,57,0.5,1.0,-35.0,1,0.0,0.5716009999998732
315,57,0.5,0.0625,35.0,1,1.0,6.214600999999902
316,57,0.5,0.25,35.0,1,1.0,0.40150199999993674
317,57,0.5,0.25,-35.0,1,0.0,7.2849019999998745
318,57,0.5,0.0,35.0,1,1.0,2.7052019999996446
319,57,0.5,0.0625,-35.0,0,0.0,60.03170199999977
320,57,0.5,0.25,35.0,1,1.0,0.6929019999997763
321,57,0.5,0.125,-35.0,-1,1.0,1.0829019999998764
322,57,0.5,0.0,35.0,1,1.0,0.3069020000000364
323,57,0.5,0.0625,35.0,1,1.0,0.32640199999991637
324,57,0.5,0.25,35.0,1,1.0,0.31040199999984
325,57,0.5,1.0,-35.0,1,0.0,0.28650199999992765
326,57,0.5,0.0625,35.0,1,1.0,0.35040200000003097
327,57,0.5,0.25,-35.0,1,0.0,0.42330199999992146
328,57,0.5,0.0625,35.0,1,1.0,0.4068019999999706
329,57,0.5,0.0625,35.0,1,1.0,0.263501000000133
330,57,0.5,0.125,-35.0,1,0.0,0.5504009999999653
331,57,0.5,0.0625,-35.0,1,0.0,13.470301000000063
332,57,0.5,0.0625,-35.0,1,0.0,19.110901999999896
333,57,0.5,0.125,35.0,1,1.0,0.3443019999997432
334,57,0.5,0.0625,-35.0,1,0.0,1.651202000000012
335,57,0.5,0.0625,35.0,1,1.0,0.8645019999999022
336,57,0.5,0.125,-35.0,1,0.0,21.234801999999945
337,57,0.5,0.0,-0.0,0,0.0,60.028401999999915
338,57,0.5,0.0625,35.0,1,1.0,0.4262019999998756
339,57,0.5,0.25,-35.0,1,0.0,0.2633019999998396
340,57,0.5,0.25,35.0,1,1.0,0.4864019999999982
341,57,0.5,0.0625,35.0,1,1.0,0.46330200000011246
342,57,0.5,0.0625,-35.0,1,0.0,9.466401999999789
343,57,0.5,0.125,-35.0,-1,1.0,53.147001000000046
344,57,0.5,0.0625,35.0,1,1.0,0.3911019999998189
345,57,0.5,0.25,35.0,1,1.0,0.2748020000001361
346,57,0.5,0.0625,35.0,-1,0.0,1.3080010000001039
347,57,0.5,0.0625,35.0,1,1.0,2.57520199999999
348,57,0.5,1.0,-35.0,1,0.0,0.6880019999998694
349,57,0.5,0.125,35.0,1,1.0,8.63510199999996
350,57,0.5,0.0625,35.0,1,1.0,3.468400999999858
351,57,0.5,0.125,-35.0,-1,1.0,1.1455009999999675
352,57,0.5,0.0625,-35.0,-1,1.0,10.995501999999988
353,57,0.5,0.25,35.0,0,0.0,60.029301999999916
354,57,0.5,0.0625,-35.0,1,0.0,12.90350199999989
355,57,0.7,0.0625,-35.0,0,0.0,60.02390199999991
356,57,0.5,1.0,-35.0,-1,1.0,1.9786019999999098
357,57,0.5,0.25,35.0,1,1.0,0.6919009999996888
358,57,0.5,0.125,35.0,1,1.0,0.34170099999982995
359,57,0.5,0.0625,-35.0,1,0.0,6.852000999999973
360,57,0.5,0.125,35.0,1,1.0,2.205402000000049
361,57,0.5,0.0625,35.0,1,1.0,0.33890100000007806
362,57,0.5,0.125,35.0,1,1.0,0.585501000000022
363,57,0.5,0.0625,-35.0,1,0.0,12.27570199999991
364,57,0.5,0.0625,35.0,1,1.0,1.059101999999939
365,57,0.5,0.125,-35.0,1,0.0,44.162802000000056
366,57,0.9,0.125,-35.0,1,0.0,15.506802000000334
367,57,0.5,1.0,-35.0,0,0.0,60.034001000000444
368,57,0.5,0.125,-35.0,1,0.0,4.975001000000248
369,57,0.5,0.25,-35.0,1,0.0,46.91510199999993
370,57,0.5,0.125,35.0,1,1.0,51.01960100000042
371,57,0.5,1.0,-35.0,1,0.0,13.200501000000259
372,57,1.0,1.0,-35.0,1,0.0,2.534201999999823
373,57,1.0,1.0,-35.0,1,0.0,0.8574020000000928
374,57,1.0,1.0,-35.0,1,0.0,11.454502000000048
375,57,1.0,1.0,35.0,1,1.0,0.2646020000001954
376,57,0.5,1.0,-35.0,0,0.0,60.03160100000014
377,57,0.5,0.0625,-35.0,1,0.0,8.05920100000003
378,57,0.5,0.0625,-35.0,1,0.0,0.39300100000036764
379,57,0.5,0.0,35.0,1,1.0,0.3460020000006807
380,57,0.5,0.125,35.0,1,1.0,0.47320200000012846
381,57,0.5,0.0,35.0,1,1.0,0.5897020000002158
382,57,0.5,0.125,35.0,1,1.0,0.39310199999999895
383,57,0.5,0.25,-35.0,0,0.0,60.03290100000004
384,57,1.0,0.25,-35.0,-1,1.0,21.37420199999997
385,57,0.5,1.0,-35.0,1,0.0,0.5946020000005774
386,57,0.5,0.25,-35.0,0,0.0,60.02830100000028
387,57,0.5,0.0,-0.0,0,0.0,60.02590100000043
388,57,0.5,0.0625,35.0,1,1.0,42.187300999999934
389,57,0.5,0.125,35.0,1,1.0,0.3449009999999362
390,57,0.5,0.25,35.0,1,1.0,0.24140200000010736
391,57,0.5,0.0625,35.0,1,1.0,0.35860200000024633
392,57,0.5,1.0,-35.0,1,0.0,1.904702000000725
393,57,0.5,0.0625,-35.0,-1,1.0,9.691902000000482
394,57,0.5,0.0,35.0,-1,0.0,11.525200999999925
1,58,0.5,0.0625,35.0,1,1.0,0.24739999999999962
2,58,0.5,0.25,35.0,1,1.0,0.21870000000000012
3,58,0.5,1.0,-35.0,1,0.0,0.23460000000000125
4,58,0.5,0.25,35.0,1,1.0,0.20629999999999882
5,58,0.5,0.25,35.0,1,1.0,0.23969999999999914
6,58,0.5,1.0,-35.0,1,0.0,0.20990000000000109
7,58,1.0,1.0,-35.0,-1,1.0,0.7266999999999975
8,58,0.5,1.0,-35.0,1,0.0,0.2281000000000013
9,58,0.5,0.125,-35.0,-1,1.0,0.7151999999999958
10,58,0.5,1.0,-35.0,1,0.0,0.25499999999999545
11,58,0.5,0.0625,-35.0,-1,1.0,0.48689999999999145
12,58,0.5,0.25,-35.0,-1,1.0,1.302500000000002
13,58,0.5,0.0625,35.0,1,1.0,0.2618000000000009
14,58,0.5,1.0,-35.0,-1,1.0,1.415300000000002
15,58,0.5,0.0,-35.0,1,0.0,0.24140000000000583
16,58,0.5,0.25,-35.0,1,0.0,0.7533999999999992
17,58,0.5,0.25,35.0,1,1.0,0.19429999999999836
18,58,0.5,1.0,35.0,1,1.0,0.2516999999999996
19,58,0.5,0.0625,35.0,1,1.0,0.21330000000001803
20,58,0.5,0.125,-35.0,1,0.0,0.3231000000000108
21,58,0.5,0.125,-35.0,1,0.0,0.30049999999999955
22,58,0.8,0.125,35.0,1,1.0,0.2728000000000037
23,58,0.5,1.0,35.0,1,1.0,0.3906999999999954
24,58,0.5,1.0,-35.0,-1,1.0,0.3165000000000049
25,58,0.5,1.0,35.0,1,1.0,0.30740000000000123
26,58,0.5,0.0625,-35.0,1,0.0,0.3534999999999968
27,58,0.9,0.0625,-35.0,1,0.0,0.2143999999999977
28,58,0.5,1.0,35.0,1,1.0,0.22670000000000812
29,58,0.5,0.25,35.0,1,1.0,0.2609999999999957
30,58,0.5,0.25,35.0,1,1.0,0.25149999999999295
31,58,0.5,0.125,-35.0,-1,1.0,0.563699999999983
32,58,0.5,1.0,35.0,1,1.0,0.2335999999999956
33,58,0.5,0.125,-35.0,1,0.0,0.2676000000000158
34,58,0.5,0.0625,35.0,-1,0.0,0.5175000000000125
35,58,0.5,0.125,-35.0,1,0.0,0.19190000000000396
36,58,0.5,0.125,35.0,-1,0.0,0.3130000000000166
37,58,0.5,0.25,-35.0,-1,1.0,0.9159989999999993
38,58,0.5,1.0,35.0,1,1.0,0.16519999999999868
39,58,0.5,1.0,-35.0,1,0.0,0.28069999999999595
40,58,0.5,0.0,35.0,1,1.0,0.2026000000000181
41,58,0.5,1.0,35.0,1,1.0,0.18299900000002367
42,58,0.5,0.25,35.0,1,1.0,0.4067000000000007
43,58,0.5,0.25,-35.0,1,0.0,0.09260000000000446
44,58,0.5,0.125,-35.0,1,0.0,0.33720000000002415
45,58,0.5,0.25,-35.0,-1,1.0,2.0170999999999992
46,58,0.5,0.125,-35.0,1,0.0,0.129099999999994
47,58,0.8,0.125,-35.0,-1,1.0,0.39179999999998927
48,58,0.5,1.0,-35.0,-1,1.0,0.49049999999999727
49,58,0.5,1.0,-35.0,1,0.0,0.14920000000000755
50,58,0.5,0.125,-35.0,-1,1.0,0.34960000000000946
51,58,0.5,0.0625,35.0,1,1.0,0.4890000000000043
52,58,0.5,1.0,-35.0,1,0.0,0.2703999999999951
53,58,0.5,0.0625,-35.0,1,0.0,0.5801999999999907
54,58,0.5,0.25,-35.0,-1,1.0,0.7603000000000009
55,58,0.5,0.25,-35.0,1,0.0,0.24330000000000496
56,58,0.5,0.125,35.0,1,1.0,0.22290000000000987
57,58,0.5,0.25,35.0,1,1.0,0.26679999999998927
58,58,0.5,0.0,-35.0,1,0.0,0.22989999999998645
59,58,0.5,0.0,35.0,-1,0.0,0.5050000000000239
60,58,0.5,0.0,35.0,1,1.0,0.1203000000000145
61,58,0.5,0.0625,35.0,1,1.0,0.296100000000024
62,58,0.5,0.0,-35.0,1,0.0,0.2692000000000121
63,58,0.5,0.125,-35.0,1,0.0,0.23989999999997735
64,58,0.5,0.125,-35.0,1,0.0,0.1571999999999889
65,58,0.9,0.125,-35.0,1,0.0,0.2536000000000058
66,58,0.5,1.0,-35.0,1,0.0,0.260400000000061
67,58,0.5,0.0625,-35.0,-1,1.0,2.7814999999999372
68,58,0.5,0.25,-35.0,1,0.0,0.27370000000001937
69,58,0.5,0.25,35.0,1,1.0,0.25830000000001974
70,58,0.5,0.25,35.0,1,1.0,0.24360000000001492
71,58,0.5,0.125,35.0,1,1.0,0.28120000000001255
72,58,0.5,0.25,35.0,1,1.0,0.33670000000000755
73,58,0.5,0.125,-35.0,-1,1.0,0.3206000000000131
74,58,0.5,1.0,-35.0,1,0.0,0.3971000000000231
75,58,0.5,0.0,-35.0,1,0.0,0.26600000000001955
76,58,0.5,0.0625,-35.0,1,0.0,0.2578999999999496
77,58,0.5,0.0,35.0,1,1.0,1.881400000000042
78,58,0.5,0.0,35.0,1,1.0,0.11130000000002838
79,58,0.5,0.25,35.0,1,1.0,0.352800000000002
80,58,0.5,1.0,-35.0,-1,1.0,0.7664000000000328
81,58,0.5,1.0,-35.0,1,0.0,0.2645999999999731
82,58,0.5,0.0,35.0,-1,0.0,2.7575990000000274
83,58,0.7,0.0,-35.0,1,0.0,0.2376000000000431
84,58,0.5,1.0,-35.0,-1,1.0,0.38450000000005957
85,58,0.5,0.125,35.0,1,1.0,1.5656000000000176
86,58,0.5,0.0,35.0,1,1.0,0.291499999999985
87,58,0.5,0.125,-35.0,1,0.0,0.25029999999998154
88,58,0.5,0.125,35.0,1,1.0,0.2364989999999807
89,58,0.5,1.0,35.0,1,1.0,0.2699000000000069
90,58,0.5,0.0,-35.0,1,0.0,0.3114999999999668
91,58,0.5,0.125,35.0,1,1.0,0.2490999999999417
92,58,0.5,0.0,35.0,1,1.0,0.15800000000001546
93,58,0.5,0.0625,35.0,1,1.0,0.28040000000004284
94,58,0.5,0.0,35.0,1,1.0,0.22169999999999845
95,58,0.5,0.0,35.0,-1,0.0,2.0265999999999735
96,58,0.5,0.0,-35.0,-1,1.0,0.33490000000000464
97,58,0.5,0.125,-35.0,1,0.0,0.2840999999999667
98,58,0.5,0.0625,35.0,1,1.0,0.14449999999999363
99,58,0.5,1.0,35.0,1,1.0,0.13540000000000418
100,58,0.5,1.0,-35.0,1,0.0,0.25610000000000355
101,58,0.5,0.0625,-35.0,1,0.0,4.042599999999936
102,58,0.5,0.0,-35.0,-1,1.0,0.47690000000000055
103,58,0.5,0.25,-35.0,-1,1.0,0.34669999999999845
104,58,0.5,0.0,-35.0,-1,1.0,0.49840000000000373
105,58,0.5,0.0625,-35.0,-1,1.0,0.4034000000000333
106,58,0.5,0.125,-35.0,-1,1.0,0.39920000000000755
107,58,0.5,0.0,35.0,1,1.0,0.19669999999996435
108,58,0.5,0.25,35.0,1,1.0,0.20530000000002246
109,58,0.5,1.0,-35.0,-1,1.0,0.49850000000003547
110,58,0.5,1.0,35.0,1,1.0,0.39690000000001646
111,58,0.5,0.25,-35.0,-1,1.0,0.817100000000039
112,58,0.5,1.0,-35.0,-1,1.0,0.6279999999999859
113,58,0.5,0.25,-35.0,-1,1.0,0.3235000000000241
114,58,0.5,0.0625,35.0,-1,0.0,0.2488999999999919
115,58,0.5,0.0625,-35.0,-1,1.0,0.35789999999997235
116,58,0.5,0.25,35.0,1,1.0,0.27769999999998163
117,58,0.5,1.0,-35.0,-1,1.0,0.4560000000000173
118,58,0.5,1.0,-35.0,1,0.0,0.25530000000003383
119,58,0.5,0.125,-35.0,-1,1.0,0.3813000000000102
120,58,0.5,0.0625,-35.0,-1,1.0,1.3793999999999755
121,58,0.5,0.125,-35.0,-1,1.0,0.27330000000006294
122,58,0.5,0.0625,35.0,-1,0.0,1.6386999999999716
123,58,0.5,0.0625,35.0,1,1.0,0.175200000000018
124,58,0.5,0.25,-35.0,-1,1.0,0.4322999999998274
125,58,0.5,1.0,35.0,1,1.0,0.25080000000002656
126,58,0.5,0.0625,35.0,1,1.0,0.8640000000000327
127,58,0.5,0.0625,35.0,1,1.0,0.40999999999996817
128,58,0.5,1.0,-35.0,1,0.0,0.2580000000000382
129,58,0.5,0.0625,35.0,1,1.0,0.2457000000000562
130,58,0.5,0.0625,35.0,1,1.0,0.2946999999999207
131,58,0.5,0.0,-35.0,1,0.0,0.23679999999990287
132,58,0.5,0.0,35.0,1,1.0,0.4111000000000331
133,58,0.5,0.25,-35.0,1,0.0,0.11820000000000164
134,58,0.5,0.125,-35.0,1,0.0,0.18849999999997635
135,58,0.5,0.25,-35.0,-1,1.0,0.3968999999999596
136,58,0.5,0.25,35.0,1,1.0,0.22299999999995634
137,58,0.5,0.25,35.0,1,1.0,0.2017999999999347
138,58,0.5,1.0,-35.0,-1,1.0,2.894200000000069
139,58,0.5,0.125,35.0,1,1.0,0.2617000000000189
140,58,0.5,0.25,35.0,1,1.0,0.2766990000000078
141,58,0.5,0.0625,-35.0,1,0.0,0.2761999999999034
142,58,0.8,0.0625,-35.0,1,0.0,0.254099999999994
143,58,0.5,1.0,-35.0,1,0.0,0.2535000000000309
144,58,0.5,0.25,35.0,1,1.0,0.24529999999981555
145,58,0.5,0.0,-35.0,1,0.0,0.23499999999989996
146,58,0.5,0.125,-35.0,1,0.0,0.323099999999954
147,58,0.9,0.125,-35.0,1,0.0,0.22249999999996817
148,58,0.5,1.0,-35.0,1,0.0,0.2705999999999449
149,58,0.5,0.25,-35.0,1,0.0,0.2607999999999038
150,58,1.0,0.25,35.0,1,1.0,0.25979899999992995
151,58,0.5,1.0,-35.0,1,0.0,0.2562000000000353
152,58,0.5,0.25,-35.0,-1,1.0,1.4628999999998769
153,58,0.5,0.125,35.0,1,1.0,0.26130000000000564
154,58,0.5,0.0,35.0,1,1.0,0.11670000000003711
155,58,0.5,0.125,-35.0,1,0.0,0.2887999999999238
156,58,0.9,0.125,-35.0,1,0.0,0.27149999999994634
157,58,0.5,1.0,-35.0,1,0.0,0.3666999999999234
158,58,0.5,0.25,35.0,1,1.0,0.24729999999988195
159,58,0.5,1.0,35.0,1,1.0,0.14689999999984593
160,58,0.5,0.125,-35.0,-1,1.0,0.6942000000000235
161,58,0.5,1.0,-35.0,1,0.0,0.23849999999993088
162,58,0.8,1.0,-35.0,1,0.0,0.3448999999999387
163,58,0.9,1.0,-35.0,1,0.0,0.29959999999982756
164,58,0.9,1.0,35.0,1,1.0,0.2477000000000089
165,58,0.5,1.0,-35.0,-1,1.0,0.660199999999918
166,58,0.5,0.25,35.0,1,1.0,0.25319999999999254
167,58,0.5,0.0625,-35.0,-1,1.0,0.4517989999999372
168,58,0.5,0.25,35.0,1,1.0,0.2783999999999196
169,58,0.5,0.25,-35.0,1,0.0,0.30139999999994416
170,58,0.5,0.125,-35.0,-1,1.0,0.6587999999999283
171,58,0.5,0.25,-35.0,1,0.0,0.2742000000000644
172,58,0.7,0.25,-35.0,1,0.0,0.16849899999999707
173,58,0.5,1.0,-35.0,-1,1.0,0.43250000000000455
174,58,0.5,1.0,-35.0,-1,1.0,0.6401000000000749
175,58,0.5,0.0625,35.0,-1,0.0,0.3489999999999327
176,58,0.5,0.25,35.0,1,1.0,0.22889999999995325
177,58,0.5,0.125,35.0,-1,0.0,0.3549999999999045
178,58,0.5,0.0625,-35.0,-1,1.0,1.7415999999999485
179,58,0.5,0.0625,-35.0,-1,1.0,0.34399999999993724
180,58,0.5,0.0625,35.0,1,1.0,0.3247999999998683
181,58,0.5,1.0,-35.0,-1,1.0,0.2783999999999196
182,58,0.5,0.25,-35.0,1,0.0,0.19459999999992306
183,58,0.3,0.25,-35.0,1,0.0,0.24540000000001783
184,58,0.5,1.0,35.0,1,1.0,0.2360999999999649
185,58,0.5,0.25,-35.0,1,0.0,0.2142999999998665
186,58,0.5,0.25,35.0,1,1.0,0.2759999999999536
187,58,0.5,0.0625,-35.0,1,0.0,0.30119999999999436
188,58,0.5,0.25,35.0,1,1.0,0.27139999999997144
189,58,0.5,0.125,35.0,1,1.0,0.22519999999997253
190,58,0.5,0.0,35.0,1,1.0,0.30359999999996035
191,58,0.5,0.125,35.0,1,1.0,0.2639000000000351
192,58,0.5,0.125,35.0,1,1.0,0.7000000000000455
193,58,0.5,0.25,-35.0,1,0.0,0.2822999999999638
194,58,0.5,0.0625,35.0,1,1.0,0.3427000000000362
195,58,0.5,1.0,-35.0,1,0.0,0.30329999999992197
196,58,0.5,0.0625,35.0,1,1.0,0.25090000000000146
197,58,0.5,0.125,-35.0,-1,1.0,0.49119999999993524
198,58,0.5,0.25,35.0,1,1.0,0.25939999999980046
199,58,0.5,0.0,-35.0,-1,1.0,2.6912999999999556
200,58,0.5,0.0625,35.0,-1,0.0,2.106200000000058
201,58,0.5,0.25,-35.0,1,0.0,0.300499999999829
202,58,0.5,0.125,-35.0,1,0.0,0.26110000000005584
203,58,0.5,0.125,-35.0,-1,1.0,0.5539999999998599
204,58,0.5,1.0,35.0,1,1.0,0.2338999999999487
205,58,0.5,1.0,35.0,1,1.0,0.3106999999998834
206,58,0.5,0.0,35.0,1,1.0,0.2787999999999329
207,58,0.5,0.0625,35.0,1,1.0,0.25700000000006185
208,58,0.5,1.0,-35.0,1,0.0,0.25079999999991287
209,58,0.5,0.0625,-35.0,1,0.0,0.2646999999998343
210,58,0.5,0.25,35.0,1,1.0,0.2659999999999627
211,58,0.5,0.125,35.0,1,1.0,0.2644999999999982
212,58,0.5,0.25,35.0,1,1.0,0.39839999999992415
213,58,0.5,0.125,35.0,1,1.0,0.23239999999998417
214,58,0.5,1.0,-35.0,1,0.0,0.279700000000048
215,58,0.5,0.125,-35.0,1,0.0,0.2636999999999716
216,58,0.5,0.125,-35.0,1,0.0,0.24750000000005912
217,58,0.5,0.125,35.0,1,1.0,0.30369999999993524
218,58,0.5,0.125,-35.0,1,0.0,0.2282999999998765
219,58,0.5,0.0625,35.0,-1,0.0,0.5115000000000691
220,58,0.9,0.0625,-35.0,-1,1.0,0.7557999999999083
221,58,0.5,1.0,-35.0,1,0.0,0.31340000000000146
222,58,0.5,0.125,35.0,1,1.0,0.3184999999999718
223,58,0.5,1.0,-35.0,-1,1.0,0.6981999999999289
224,58,0.5,0.0625,35.0,1,1.0,0.25729999999998654
225,58,0.5,0.125,-35.0,-1,1.0,0.4537999999998874
226,58,0.5,0.25,-35.0,-1,1.0,0.5128999999999451
227,58,0.5,0.0,-35.0,-1,1.0,2.0615999999999985
228,58,0.5,0.0625,-35.0,-1,1.0,1.978399999999965
229,58,0.5,1.0,-35.0,-1,1.0,0.5226999999999862
230,58,0.5,0.125,35.0,1,1.0,0.2941999999999325
231,58,0.5,0.125,35.0,1,1.0,0.26519999999993615
232,58,0.5,0.125,-35.0,-1,1.0,0.4018989999999576
233,58,0.5,0.25,-35.0,-1,1.0,0.9008999999999787
234,58,0.5,0.0,-35.0,1,0.0,0.30569999999988795
235,58,0.5,0.25,-35.0,-1,1.0,0.4260999999999058
236,58,0.5,0.25,35.0,1,1.0,0.22829999999999018
237,58,0.5,0.0,35.0,-1,0.0,1.149599999999964
238,58,0.5,0.125,-35.0,1,0.0,0.3184999999999718
239,58,0.5,0.0,35.0,-1,0.0,0.7758000000000038
240,58,0.5,0.0,-35.0,1,0.0,0.3285999999999376
241,58,0.5,1.0,35.0,1,1.0,0.5377999999999474
242,58,0.5,0.25,35.0,1,1.0,0.17809999999997217
243,58,0.5,0.0625,35.0,1,1.0,0.4314999999999145
244,58,0.5,0.25,-35.0,-1,1.0,0.46479999999996835
245,58,0.5,1.0,-35.0,-1,1.0,0.4318999999999278
246,58,0.5,0.25,35.0,1,1.0,0.488399999999956
247,58,0.5,0.0,-35.0,1,0.0,0.23829999999998108
248,58,0.5,0.25,35.0,1,1.0,0.24510000000009313
249,58,0.5,0.0625,-35.0,1,0.0,0.3183999999998832
250,58,0.5,0.125,35.0,1,1.0,0.30209999999988213
251,58,0.5,0.0,-35.0,1,0.0,0.2886999999998352
252,58,0.5,0.25,35.0,1,1.0,0.28539999999998145
253,58,0.5,0.125,-35.0,-1,1.0,1.2619999999999436
254,58,0.5,0.0625,-35.0,-1,1.0,0.46900000000005093
255,58,0.5,1.0,-35.0,-1,1.0,0.3857999999997901
256,58,0.5,1.0,-35.0,-1,1.0,0.7522999999998774
257,58,0.5,0.25,35.0,1,1.0,0.3423999999999978
258,58,0.5,0.125,-35.0,-1,1.0,0.3891000000000986
259,58,0.5,0.0625,-35.0,-1,1.0,0.9690989999999147
260,58,0.5,0.25,-35.0,-1,1.0,0.6325999999999112
261,58,0.5,0.25,35.0,1,1.0,0.2394000000001597
262,58,0.5,0.125,35.0,1,1.0,0.2695000000001073
263,58,0.5,1.0,35.0,1,1.0,0.2661000000000513
264,58,0.5,0.25,35.0,1,1.0,0.3229999999998654
265,58,0.5,0.0625,-35.0,1,0.0,0.31969999999978427
266,58,0.5,0.0625,35.0,1,1.0,0.32330000000001746
267,58,0.5,0.25,-35.0,1,0.0,0.23649999999997817
268,58,0.5,0.0625,-35.0,-1,1.0,2.266599999999926
269,58,0.5,0.25,-35.0,-1,1.0,1.056899999999814
270,58,0.5,0.0625,35.0,-1,0.0,1.500099999999975
271,58,0.5,0.125,35.0,1,1.0,0.2300999999999931
272,58,0.5,0.25,35.0,1,1.0,0.3102999999998701
273,58,0.5,0.0,-35.0,1,0.0,0.5070999999998094
274,58,0.5,0.25,-35.0,-1,1.0,0.7672999999999774
275,58,0.5,1.0,35.0,1,1.0,0.24380000000019209
276,58,0.5,0.0625,-35.0,1,0.0,0.32720000000017535
277,58,0.5,0.0625,-35.0,1,0.0,0.23059999999986758
278,58,0.5,0.25,-35.0,-1,1.0,1.1875
279,58,0.5,0.0625,-35.0,-1,1.0,0.917299999999841
280,58,0.5,0.125,35.0,1,1.0,0.47430000000008476
281,58,0.5,0.0625,-35.0,-1,1.0,2.6877999999999247
282,58,0.5,1.0,-35.0,1,0.0,0.9909999999999854
283,58,0.5,0.25,-35.0,1,0.0,1.4981000000000222
284,58,0.5,0.125,35.0,1,1.0,0.3813999999999851
285,58,0.5,0.125,35.0,1,1.0,8.707999999999856
286,58,0.5,0.0625,35.0,0,0.0,60.024999999999864
287,58,0.5,0.125,35.0,1,1.0,0.55279900000005
288,58,0.5,1.0,-35.0,1,0.0,2.44620000000009
289,58,0.5,0.0,-35.0,-1,1.0,0.3630000000000564
290,58,0.5,0.25,-35.0,-1,1.0,0.6399999999998727
291,58,0.5,0.25,35.0,1,1.0,0.35639999999989413
292,58,0.5,0.25,-35.0,-1,1.0,0.31969999999978427
293,58,0.5,0.25,35.0,1,1.0,0.24659999999994398
294,58,0.5,1.0,-35.0,-1,1.0,0.7933989999999085
295,58,0.5,0.0,35.0,1,1.0,0.3999999999998636
296,58,0.5,0.25,35.0,1,1.0,0.35009999999988395
297,58,0.5,0.0625,-35.0,1,0.0,0.30359999999996035
298,58,0.5,0.125,35.0,1,1.0,0.2904999999998381
299,58,0.5,0.25,35.0,1,1.0,0.4036999999998443
300,58,0.5,0.0625,35.0,-1,0.0,0.5502999999998792
301,58,0.5,0.125,-35.0,1,0.0,0.38049999999998363
302,58,0.5,0.125,35.0,1,1.0,0.4071000000001277
303,58,0.5,1.0,-35.0,1,0.0,0.34399999999982356
304,58,0.5,0.125,-35.0,-1,1.0,0.7006999999998698
305,58,0.5,1.0,35.0,1,1.0,0.2340999999998985
306,58,0.5,0.0625,35.0,1,1.0,0.2742999999998119
307,58,0.5,0.0,-35.0,1,0.0,0.274199999999837
308,58,0.5,0.25,35.0,1,1.0,0.33429999999975735
309,58,0.5,0.125,-35.0,-1,1.0,0.46779999999967004
310,58,0.5,0.25,-35.0,-1,1.0,0.751299999999901
311,58,0.5,0.0625,35.0,1,1.0,0.287900000000036
312,58,0.5,0.125,35.0,1,1.0,0.258199999999988
313,58,0.5,1.0,35.0,1,1.0,0.28139999999984866
314,58,0.5,0.125,35.0,1,1.0,0.26139999999986685
315,58,0.5,0.125,-35.0,-1,1.0,0.7481999999997697
316,58,0.5,0.25,35.0,1,1.0,0.2849999999998545
317,58,0.5,0.0625,-35.0,-1,1.0,0.6216000000001713
318,58,0.5,0.25,-35.0,1,0.0,0.7483999999999469
319,58,0.5,0.25,35.0,1,1.0,0.15170000000011896
320,58,0.5,0.0625,35.0,-1,0.0,0.5284999999998945
321,58,0.5,0.25,-35.0,-1,1.0,0.8586999999999989
322,58,0.5,1.0,-35.0,-1,1.0,0.36199999999985266
323,58,0.5,0.0625,35.0,-1,0.0,0.6019999999998618
324,58,0.5,0.25,35.0,1,1.0,0.2721999999998843
325,58,0.5,0.125,35.0,1,1.0,0.25900000000001455
326,58,0.5,0.0625,35.0,1,1.0,1.7690999999999804
327,58,0.5,0.125,-35.0,1,0.0,0.2757000000001426
328,58,0.5,0.0625,-35.0,1,0.0,0.3157999999996264
329,58,0.6,0.0625,-35.0,-1,1.0,0.6525000000001455
330,58,0.5,1.0,-35.0,1,0.0,0.40609999999992397
331,58,0.5,0.0625,35.0,1,1.0,0.2525999999998021
332,58,0.5,0.125,-35.0,-1,1.0,0.999599999999873
333,58,0.5,0.25,35.0,1,1.0,0.38599999999996726
334,58,0.5,1.0,35.0,1,1.0,0.25300000000015643
335,58,0.5,0.25,35.0,1,1.0,0.3328999999998814
336,58,0.5,0.0,-35.0,1,0.0,0.3128999999998996
337,58,0.5,0.25,-35.0,1,0.0,0.41639999999983957
338,58,0.8,0.25,-35.0,-1,1.0,0.6632999999999356
339,58,0.5,1.0,35.0,1,1.0,0.27330000000006294
340,58,0.5,0.0,35.0,1,1.0,0.4233000000001539
341,58,0.5,0.0,-35.0,-1,1.0,1.483299999999872
342,58,0.5,0.125,35.0,1,1.0,0.32350000000019463
343,58,0.5,1.0,35.0,1,1.0,0.28350000000000364
344,58,0.5,0.25,35.0,1,1.0,0.31349999999997635
345,58,0.5,0.25,-35.0,1,0.0,0.26690000000007785
346,58,0.8,0.25,-35.0,-1,1.0,1.570299999999861
347,58,0.5,1.0,-35.0,-1,1.0,0.4937999999999647
348,58,0.5,0.25,35.0,1,1.0,0.8805999999999585
349,58,0.5,0.125,35.0,1,1.0,0.2806000000000495
350,58,0.5,0.125,-35.0,1,0.0,0.2873999999997068
351,58,0.5,0.125,35.0,1,1.0,0.41059999999993124
352,58,0.5,0.125,35.0,1,1.0,0.3607999999999265
353,58,0.5,0.0625,-35.0,1,0.0,0.2775000000001455
354,58,0.8,0.0625,35.0,1,1.0,0.3144999999999527
355,58,0.5,1.0,-35.0,-1,1.0,0.41420000000016444
356,58,0.5,0.0,-35.0,-1,1.0,0.5243000000000393
357,58,0.5,0.0,-35.0,1,0.0,0.2744999999999891
358,58,0.5,0.0625,-35.0,-1,1.0,0.44449999999983447
359,58,0.5,1.0,-35.0,-1,1.0,0.3244999999999436
360,58,0.5,0.25,35.0,-1,0.0,4.511700000000019
361,58,0.5,0.125,-35.0,-1,1.0,0.36149999999997817
362,58,0.5,0.25,35.0,1,1.0,0.47139999999990323
363,58,0.5,0.25,35.0,1,1.0,0.27490000000011605
364,58,0.5,0.0625,35.0,1,1.0,0.5619000000001506
365,58,0.5,1.0,-35.0,-1,1.0,0.6717999999998483
366,58,0.5,0.25,35.0,1,1.0,0.4984999999996944
367,58,0.5,0.125,-35.0,-1,1.0,0.5217000000000098
368,58,0.5,1.0,35.0,1,1.0,0.34219999999982065
369,58,0.5,0.0625,-35.0,-1,1.0,1.2852000000000317
370,58,0.5,0.0,-35.0,1,0.0,0.302199999999857
371,58,0.5,0.0625,35.0,-1,0.0,0.6521999999999935
372,58,0.5,0.0625,-35.0,-1,1.0,0.6821999999999662
373,58,0.5,0.0,35.0,-1,0.0,2.955399999999827
374,58,0.5,0.0625,35.0,-1,0.0,6.932399999999689
375,58,0.5,0.125,-35.0,1,0.0,30.812400000000025
376,58,0.5,0.25,-35.0,-1,1.0,2.4498000000000957
377,58,0.5,0.0625,-35.0,1,0.0,0.5864999999996598
378,58,0.5,0.0,35.0,1,1.0,3.0369000000000597
379,58,0.5,0.25,35.0,1,1.0,0.2800000000002001
380,58,0.5,0.25,-35.0,-1,1.0,0.5236999999999625
381,58,0.5,0.0,35.0,-1,0.0,0.40039999999976317
382,58,0.4,0.0,35.0,-1,0.0,3.563799999999901
383,58,0.5,1.0,35.0,1,1.0,0.29369999999994434
384,58,0.5,1.0,35.0,1,1.0,0.27089999999998327
385,58,0.5,0.0625,-35.0,-1,1.0,20.440500000000156
386,58,0.5,0.125,35.0,-1,0.0,1.1145000000001346
387,58,0.5,0.125,-35.0,1,0.0,10.64429999999993
388,58,0.5,0.125,-35.0,-1,1.0,2.134700000000066
389,58,0.5,1.0,-35.0,-1,1.0,0.7382999999997537
390,58,0.5,1.0,-35.0,-1,1.0,3.1684999999999945
391,58,0.5,0.0625,-35.0,-1,1.0,0.8248999999998432
392,58,0.5,0.125,-35.0,-1,1.0,7.602100000000064
393,58,0.5,0.25,-35.0,-1,1.0,7.741899999999987
394,58,0.5,0.125,-35.0,-1,1.0,10.815399999999727
395,58,0.5,1.0,35.0,1,1.0,0.3488999999999578
396,58,0.5,1.0,-35.0,-1,1.0,0.5025000000000546
397,58,0.5,0.0625,35.0,-1,0.0,1.8690999999998894
398,58,0.5,0.25,35.0,1,1.0,0.3327999999999065
399,58,0.5,0.25,35.0,1,1.0,0.4559999999999036
400,58,0.5,0.0625,35.0,-1,0.0,24.173000000000002
401,58,0.3,0.0625,-35.0,-1,1.0,19.939798999999766
402,58,0.5,1.0,35.0,1,1.0,0.28379999999992833
403,58,0.5,0.125,35.0,1,1.0,0.2835989999998674
404,58,0.5,0.25,-35.0,-1,1.0,0.4936999999999898
405,58,0.5,1.0,-35.0,-1,1.0,0.8969999999999345
406,58,0.5,0.0,-35.0,-1,1.0,0.29409999999984393
407,58,0.5,0.0625,35.0,1,1.0,0.39400000000000546
408,58,0.5,0.0625,-35.0,-1,1.0,0.6375000000000455
409,58,0.5,0.0625,35.0,1,1.0,0.30739999999991596
410,58,0.5,0.0,-35.0,-1,1.0,0.5810999999998785
411,58,0.5,0.125,35.0,1,1.0,0.4941999999998643
412,58,0.5,0.25,35.0,1,1.0,0.30760000000009313
413,58,0.5,1.0,35.0,1,1.0,0.2808999999997468
414,58,0.5,0.125,35.0,1,1.0,0.40469899999993686
415,58,0.5,1.0,35.0,1,1.0,0.2975999999996475
416,58,0.5,0.25,-35.0,-1,1.0,1.897899999999936
417,58,0.5,0.25,-35.0,-1,1.0,6.031299999999874
418,58,0.5,0.125,-35.0,-1,1.0,0.4114999999999327
419,58,0.5,0.0,-35.0,-1,1.0,0.7446999999997388
420,58,0.5,1.0,-35.0,-1,1.0,0.4251000000001568
421,58,0.5,0.125,35.0,1,1.0,3.498299999999972
422,58,0.5,0.0625,-35.0,-1,1.0,3.7385999999999058
423,58,0.5,0.125,-35.0,-1,1.0,3.988399999999956
424,58,0.5,1.0,35.0,1,1.0,0.30559999999991305
425,58,0.5,0.0625,35.0,-1,0.0,32.072000000000116
426,58,0.5,0.0,-35.0,1,0.0,0.3527010000000246
427,58,0.3,0.0,-35.0,1,0.0,31.566000999999915
428,58,0.5,1.0,35.0,1,1.0,0.427000999999791
429,58,0.5,0.125,-35.0,1,0.0,1.986801000000014
430,58,0.6,0.125,35.0,1,1.0,0.3472010000004957
431,58,0.5,1.0,-35.0,1,0.0,2.5005010000004404
432,58,0.5,0.0,35.0,-1,0.0,1.8473010000002432
433,58,0.5,0.25,35.0,-1,0.0,0.5708010000003014
434,58,0.5,0.0,-35.0,-1,1.0,12.944201000000248
435,58,0.5,0.25,35.0,-1,0.0,11.501201000000492
436,58,0.6,0.25,-35.0,-1,1.0,3.005000999999993
437,58,0.5,1.0,-35.0,-1,1.0,4.655100999999831
438,58,0.5,0.25,-35.0,-1,1.0,3.4518010000006143
439,58,0.5,0.25,35.0,1,1.0,1.5885010000001785
440,58,0.5,0.125,-35.0,1,0.0,0.6356009999999515
441,58,0.5,0.0625,35.0,1,1.0,1.4555010000003676
442,58,0.5,0.25,-35.0,1,0.0,2.979201000000103
443,58,0.5,0.0625,-35.0,1,0.0,0.4190010000006623
444,58,0.5,0.125,35.0,1,1.0,2.666001000000051
445,58,0.5,0.125,35.0,1,1.0,1.9825009999999565
446,58,0.5,1.0,-35.0,1,0.0,2.0961010000000897
447,58,0.5,0.25,-35.0,-1,1.0,4.282701000000088
448,58,0.5,0.25,-35.0,1,0.0,3.0667010000001937
449,58,0.9,0.25,-35.0,1,0.0,5.633001000000149
450,58,0.5,1.0,-35.0,1,0.0,10.550301000000218
451,58,0.5,0.25,-35.0,1,0.0,9.99020100000007
452,58,0.5,0.0,-35.0,-1,1.0,10.900501000000077
453,58,0.5,0.0,-35.0,-1,1.0,13.660701000000245
1,59,0.5,0.0,-35.0,-1,1.0,4.0477
2,59,0.5,0.25,35.0,1,1.0,0.29770000000000074
3,59,0.5,0.0625,35.0,1,1.0,0.9817999999999998
4,59,0.5,0.0625,-35.0,1,0.0,0.24660000000000082
5,59,0.5,0.0625,35.0,-1,0.0,0.15679999999999694
6,59,0.5,0.25,-35.0,1,0.0,0.2528999999999968
7,59,0.8,0.25,-35.0,-1,1.0,0.2850999999999999
8,59,0.5,1.0,-35.0,-1,1.0,0.3036999999999992
9,59,0.5,0.0625,35.0,-1,0.0,1.6880999999999986
10,59,0.5,0.0625,-35.0,-1,1.0,0.17419900000000155
11,59,0.5,1.0,-35.0,-1,1.0,0.22369899999999632
12,59,0.5,0.25,-35.0,-1,1.0,0.5014990000000026
13,59,0.5,1.0,-35.0,-1,1.0,2.1270999999999987
14,59,0.5,0.0625,35.0,1,1.0,0.24560000000000315
15,59,0.5,0.25,-35.0,1,0.0,0.26020000000001176
16,59,0.5,0.25,-35.0,1,0.0,0.2646000000000015
17,59,0.3,0.25,35.0,1,1.0,0.23129900000000703
18,59,0.5,1.0,35.0,1,1.0,0.41380000000000905
19,59,0.5,0.0625,35.0,-1,0.0,0.3114000000000061
20,59,0.5,0.0625,-35.0,-1,1.0,0.3026000000000124
21,59,0.5,0.0625,-35.0,-1,1.0,1.2607
22,59,0.5,0.125,35.0,-1,0.0,0.3468000000000018
23,59,0.5,0.0,-35.0,-1,1.0,0.6313000000000102
24,59,0.5,1.0,35.0,1,1.0,0.26939899999999284
25,59,0.5,0.0,35.0,1,1.0,0.2828000000000088
26,59,0.5,0.125,-35.0,1,0.0,0.3037000000000063
27,59,0.5,0.0625,35.0,1,1.0,0.23270000000000834
28,59,0.5,0.125,-35.0,-1,1.0,2.0309990000000084
29,59,0.5,0.25,-35.0,1,0.0,0.250700000000009
30,59,0.5,0.25,-35.0,1,0.0,0.2746000000000066
31,59,0.6,0.25,-35.0,1,0.0,0.2527990000000102
32,59,0.5,1.0,-35.0,1,0.0,0.21879900000000418
33,59,0.5,0.125,-35.0,-1,1.0,0.32040000000000646
34,59,0.5,0.125,35.0,-1,0.0,0.1347989999999868
35,59,0.7,0.125,-35.0,-1,1.0,0.36689899999998943
36,59,0.5,1.0,-35.0,-1,1.0,0.7088999999999999
37,59,0.5,0.25,35.0,1,1.0,0.2652999999999963
38,59,0.5,1.0,35.0,1,1.0,0.2237999999999829
39,59,0.5,0.0,35.0,1,1.0,0.23689999999996303
40,59,0.5,0.0625,35.0,1,1.0,0.20669999999998367
41,59,0.5,0.0625,35.0,1,1.0,0.2079999999999984
42,59,0.5,0.25,35.0,1,1.0,0.1312989999999843
43,59,0.5,0.0625,-35.0,-1,1.0,0.14399900000000798
44,59,0.5,1.0,35.0,1,1.0,0.3019999999999641
45,59,0.5,0.125,-35.0,-1,1.0,1.1084989999999948
46,59,0.5,0.0625,-35.0,1,0.0,0.24259999999998172
47,59,0.5,0.125,35.0,-1,0.0,0.1297999999999888
48,59,0.5,0.125,35.0,1,1.0,0.25179900000000544
49,59,0.5,0.25,-35.0,-1,1.0,0.1355999999999824
50,59,0.5,0.0625,-35.0,-1,1.0,0.12819899999999507
51,59,0.5,0.0625,35.0,-1,0.0,1.1855999999999938
52,59,0.4,0.0625,35.0,-1,0.0,0.16399999999998727
53,59,0.5,1.0,35.0,1,1.0,0.19310099999998442
54,59,0.5,0.25,-35.0,-1,1.0,0.1311009999999726
55,59,0.5,0.125,35.0,1,1.0,1.605700999999982
56,59,0.5,0.0,35.0,-1,0.0,0.2810999999999808
57,59,0.5,0.25,35.0,1,1.0,0.22820100000001275
58,59,0.5,0.0625,-35.0,1,0.0,0.20799999999997
59,59,0.5,0.0,35.0,-1,0.0,0.6662999999999784
60,59,0.5,0.125,-35.0,-1,1.0,1.4204009999999698
61,59,0.5,0.125,35.0,-1,0.0,0.22530100000000175
62,59,0.5,0.0625,-35.0,-1,1.0,1.1233009999999979
63,59,0.5,1.0,35.0,1,1.0,0.3291009999999801
64,59,0.5,0.125,-35.0,1,0.0,0.20860099999998738
65,59,0.5,0.25,35.0,-1,0.0,0.8356000000000563
66,59,0.5,0.0625,-35.0,1,0.0,0.25480100000004313
67,59,0.5,0.0625,35.0,-1,0.0,0.25670100000002094
68,59,0.5,0.125,35.0,1,1.0,0.26320100000003777
69,59,0.5,0.0,-35.0,-1,1.0,0.38440099999996846
70,59,0.5,0.0625,-35.0,-1,1.0,0.5115010000000098
71,59,0.5,1.0,35.0,1,1.0,0.23529999999999518
72,59,0.5,0.125,-35.0,-1,1.0,0.4181000000000381
73,59,0.5,0.0625,35.0,1,1.0,0.11950000000001637
74,59,0.5,0.25,-35.0,1,0.0,0.1214010000000485
75,59,0.5,0.25,35.0,1,1.0,0.23340100000001485
76,59,0.5,1.0,-35.0,1,0.0,0.2512999999999579
77,59,0.5,0.125,35.0,1,1.0,0.22680100000002312
78,59,0.5,0.0625,-35.0,-1,1.0,0.36950100000001385
79,59,0.5,0.25,-35.0,-1,1.0,0.2675010000000384
80,59,0.5,0.125,35.0,-1,0.0,0.5215000000000032
81,59,0.5,0.0,35.0,-1,0.0,0.3808010000000195
82,59,0.5,0.0,-35.0,-1,1.0,0.4375999999999749
83,59,0.5,0.0625,-35.0,-1,1.0,0.36119999999999663
84,59,0.5,0.0625,35.0,-1,0.0,0.42259999999998854
85,59,0.5,0.0625,-35.0,-1,1.0,1.7671000000000276
86,59,0.5,0.25,-35.0,-1,1.0,0.3505010000000084
87,59,0.5,1.0,-35.0,-1,1.0,0.3242999999999938
88,59,0.5,0.0625,-35.0,-1,1.0,0.2746010000000183
89,59,0.5,0.125,-35.0,-1,1.0,0.3201000000000249
90,59,0.5,0.0625,-35.0,-1,1.0,0.3257000000000403
91,59,0.5,0.0625,-35.0,-1,1.0,0.285000000000025
92,59,0.5,1.0,-35.0,-1,1.0,0.4496000000000322
93,59,0.5,0.0625,-35.0,-1,1.0,0.2968010000000163
94,59,0.5,0.125,35.0,1,1.0,0.23690100000004577
95,59,0.5,0.0625,-35.0,1,0.0,0.25020000000000664
96,59,0.5,0.0,35.0,1,1.0,0.23670000000004165
97,59,0.5,0.25,35.0,1,1.0,0.31670000000002574
98,59,0.5,0.0625,35.0,1,1.0,0.2678009999999631
99,59,0.5,0.125,35.0,1,1.0,0.32320100000004004
100,59,0.5,1.0,35.0,1,1.0,0.18290100000007214
101,59,0.5,0.0625,-35.0,1,0.0,0.26780100000001994
102,59,0.5,0.0,-35.0,1,0.0,0.252900000000011
103,59,0.5,0.125,35.0,-1,0.0,0.21090000000003783
104,59,0.5,0.0,-35.0,1,0.0,0.25080100000002403
105,59,0.9,0.0,-35.0,-1,1.0,0.38390000000003965
106,59,0.5,1.0,-35.0,-1,1.0,0.38690100000002303
107,59,0.5,1.0,35.0,1,1.0,0.3435000000000059
108,59,0.5,0.0,35.0,1,1.0,0.2576000000000249
109,59,0.5,0.125,35.0,1,1.0,0.21160100000003013
110,59,0.5,0.25,-35.0,1,0.0,0.2050010000000384
111,59,0.5,0.125,-35.0,-1,1.0,0.5351009999999974
112,59,0.5,0.25,35.0,1,1.0,0.24910100000005286
113,59,0.5,0.125,-35.0,1,0.0,0.25830000000001974
114,59,0.7,0.125,-35.0,1,0.0,0.21270100000003822
115,59,0.5,1.0,35.0,1,1.0,0.24610000000001264
116,59,0.5,0.125,-35.0,1,0.0,0.31960000000003674
117,59,0.5,0.125,-35.0,-1,1.0,0.37870000000003756
118,59,0.5,0.25,35.0,-1,0.0,0.12130100000001676
119,59,0.5,0.25,35.0,1,1.0,0.36340000000006967
120,59,0.5,0.0625,35.0,1,1.0,0.29410100000001194
121,59,0.5,0.25,-35.0,-1,1.0,0.10590000000001965
122,59,0.5,0.125,-35.0,1,0.0,0.2314010000000053
123,59,0.5,0.0625,-35.0,1,0.0,0.2322010000000887
124,59,0.7,0.0625,-35.0,-1,1.0,1.5412010000000578
125,59,0.5,1.0,35.0,1,1.0,0.261600000000044
126,59,0.5,0.0625,35.0,-1,0.0,1.7232010000000741
127,59,0.5,0.25,35.0,1,1.0,0.24220100000002276
128,59,0.5,0.0,35.0,1,1.0,0.30930100000000493
129,59,0.5,0.0,35.0,-1,0.0,0.8223009999999817
130,59,0.5,0.0625,35.0,1,1.0,0.24250100000006114
131,59,0.5,0.25,-35.0,-1,1.0,0.6421000000000276
132,59,0.5,0.0,35.0,-1,0.0,0.32500099999992926
133,59,0.5,0.125,-35.0,-1,1.0,0.4733009999998785
134,59,0.5,1.0,-35.0,-1,1.0,0.1548009999999067
135,59,0.5,1.0,35.0,1,1.0,0.23070000000006985
136,59,0.5,0.125,35.0,1,1.0,0.15640099999995982
137,59,0.5,0.25,35.0,1,1.0,0.20240100000000893
138,59,0.5,0.25,-35.0,1,0.0,0.40130099999998947
139,59,0.5,0.25,-35.0,1,0.0,0.2859999999999445
140,59,0.5,1.0,35.0,1,1.0,0.209500999999932
141,59,0.5,0.0625,35.0,-1,0.0,0.1612009999998918
142,59,0.5,0.125,35.0,1,1.0,0.9764010000000098
143,59,0.5,0.0,35.0,1,1.0,1.5046009999999796
144,59,0.5,0.0625,-35.0,1,0.0,0.2300000000000182
145,59,0.5,0.25,-35.0,-1,1.0,0.14420099999983904
146,59,0.5,1.0,35.0,1,1.0,0.20659999999986667
147,59,0.5,0.0625,-35.0,-1,1.0,0.5629010000000108
148,59,0.5,0.125,35.0,1,1.0,0.616600999999946
149,59,0.5,0.25,-35.0,1,0.0,0.23060100000009243
150,59,0.7,0.25,-35.0,-1,1.0,0.3344009999999571
151,59,0.5,1.0,-35.0,1,0.0,0.2693009999999276
152,59,0.7,1.0,-35.0,-1,1.0,0.4406010000000151
153,59,0.5,1.0,-35.0,-1,1.0,0.3283999999999878
154,59,0.5,0.0625,35.0,-1,0.0,0.13230099999998401
155,59,0.5,0.25,35.0,1,1.0,0.40520099999992
156,59,0.5,0.125,35.0,1,1.0,0.22869999999988977
157,59,0.5,0.25,35.0,1,1.0,0.2717999999999847
158,59,0.5,0.25,35.0,1,1.0,0.517699999999877
159,59,0.5,0.125,35.0,1,1.0,0.184900999999968
160,59,0.5,0.125,35.0,1,1.0,0.38849999999990814
161,59,0.5,0.0,35.0,1,1.0,0.3003009999999904
162,59,0.5,0.25,35.0,1,1.0,0.11770100000001094
163,59,0.5,0.0625,-35.0,1,0.0,0.3948009999999158
164,59,0.5,0.25,-35.0,1,0.0,0.27880100000004404
165,59,0.5,0.25,-35.0,-1,1.0,0.35559999999998126
166,59,0.5,0.125,-35.0,1,0.0,0.23880099999996673
167,59,0.5,0.25,-35.0,1,0.0,0.213600999999926
168,59,0.5,0.0,-35.0,1,0.0,0.28670099999999366
169,59,0.9,0.0,-35.0,1,0.0,0.22170099999993909
170,59,0.5,1.0,-35.0,-1,1.0,0.3308999999999287
171,59,0.5,0.125,35.0,1,1.0,0.30539999999996326
172,59,0.5,1.0,-35.0,-1,1.0,0.5558999999999514
173,59,0.5,0.0625,-35.0,-1,1.0,0.40360099999998056
174,59,0.5,1.0,-35.0,-1,1.0,0.6371010000000297
175,59,0.5,1.0,35.0,1,1.0,0.2132009999999127
176,59,0.5,0.0,-35.0,1,0.0,0.21900099999993472
177,59,0.5,0.125,-35.0,-1,1.0,0.3422009999999318
178,59,0.5,0.0625,35.0,-1,0.0,0.42820100000005823
179,59,0.5,0.0625,35.0,1,1.0,0.29740099999992253
180,59,0.5,0.0,35.0,-1,0.0,0.22899999999992815
181,59,0.5,0.125,-35.0,1,0.0,0.3301999999999907
182,59,0.5,0.125,-35.0,-1,1.0,0.3470999999999549
183,59,0.5,0.125,35.0,-1,0.0,0.3932999999999538
184,59,0.5,0.25,-35.0,-1,1.0,0.32910100000003695
185,59,0.5,0.0,35.0,1,1.0,0.2963009999999713
186,59,0.5,0.0625,35.0,1,1.0,0.2472010000000182
187,59,0.5,0.0,-35.0,-1,1.0,1.4836010000000215
188,59,0.5,1.0,35.0,1,1.0,0.3991009999999733
189,59,0.5,0.125,-35.0,-1,1.0,0.7095000000000482
190,59,0.5,1.0,35.0,1,1.0,0.2761000000000422
191,59,0.5,1.0,35.0,1,1.0,0.2823009999998476
192,59,0.5,0.0,35.0,1,1.0,0.23419999999998709
193,59,0.5,0.125,-35.0,1,0.0,0.42629999999996926
194,59,0.5,0.125,-35.0,-1,1.0,0.40160100000002785
195,59,0.5,0.0,-35.0,1,0.0,0.2070009999999911
196,59,0.5,0.0625,35.0,1,1.0,0.2582999999999629
197,59,0.5,1.0,-35.0,-1,1.0,0.4354009999999562
198,59,0.5,0.25,35.0,1,1.0,0.24510099999986323
199,59,0.5,0.25,35.0,1,1.0,0.22079999999994016
200,59,0.5,0.25,-35.0,1,0.0,0.13920099999995728
201,59,0.5,0.0625,-35.0,1,0.0,0.2496009999999842
202,59,0.5,0.0625,-35.0,-1,1.0,1.9853009999999358
203,59,0.5,0.25,35.0,-1,0.0,0.2902009999999109
204,59,0.5,0.125,-35.0,-1,1.0,0.4293999999999869
205,59,0.5,0.0,35.0,-1,0.0,0.37360100000000784
206,59,0.5,0.125,-35.0,-1,1.0,0.35890100000005987
207,59,0.5,0.0625,-35.0,-1,1.0,0.1433999999999287
208,59,0.5,0.125,35.0,1,1.0,0.21830000000011296
209,59,0.5,0.0625,-35.0,-1,1.0,0.7327000000000226
210,59,0.5,0.125,35.0,-1,0.0,0.5036010000000033
211,59,0.5,0.0,-35.0,-1,1.0,0.7460999999999558
212,59,0.5,0.25,35.0,1,1.0,0.23820099999988997
213,59,0.5,0.25,-35.0,-1,1.0,0.324600999999916
214,59,0.5,0.25,35.0,1,1.0,0.8255010000000311
215,59,0.5,0.25,-35.0,-1,1.0,0.3350999999998976
216,59,0.5,0.25,35.0,1,1.0,0.19760099999996328
217,59,0.5,0.0,-35.0,1,0.0,0.21879999999998745
218,59,0.5,0.125,-35.0,-1,1.0,0.3588009999999713
219,59,0.5,0.0,-35.0,-1,1.0,0.32569999999998345
220,59,0.5,0.125,-35.0,-1,1.0,0.6701010000000451
221,59,0.5,0.25,35.0,-1,0.0,0.7934010000000171
222,59,0.5,0.25,35.0,-1,0.0,0.3976000000000113
223,59,0.3,0.25,35.0,1,1.0,0.8650000000000091
224,59,0.5,1.0,-35.0,-1,1.0,0.23060099999997874
225,59,0.5,1.0,-35.0,-1,1.0,1.3920009999999365
226,59,0.5,0.0625,-35.0,-1,1.0,0.36390099999994163
227,59,0.5,0.0,-35.0,-1,1.0,0.2417009999999209
228,59,0.5,0.125,-35.0,-1,1.0,0.4334009999998898
229,59,0.5,0.0625,35.0,1,1.0,0.20929999999998472
230,59,0.5,0.0625,-35.0,-1,1.0,2.468601000000035
231,59,0.5,0.125,-35.0,-1,1.0,0.3525999999999385
232,59,0.5,0.25,35.0,1,1.0,0.21479999999996835
233,59,0.5,1.0,-35.0,-1,1.0,0.6016999999999371
234,59,0.5,0.125,-35.0,-1,1.0,1.0442010000000437
235,59,0.5,0.0625,-35.0,-1,1.0,0.20019999999999527
236,59,0.5,0.25,35.0,1,1.0,0.29140000000006694
237,59,0.5,0.0625,35.0,-1,0.0,0.3465999999999667
238,59,0.5,0.25,-35.0,-1,1.0,0.2855009999999538
239,59,0.5,0.0625,35.0,-1,0.0,0.18320099999994
240,59,0.5,0.0625,35.0,-1,0.0,0.33690100000001166
241,59,0.2,0.0625,35.0,1,1.0,0.2919999999999163
242,59,0.5,1.0,35.0,1,1.0,0.2624999999999318
243,59,0.5,0.25,35.0,1,1.0,0.19809999999995398
244,59,0.5,0.0625,-35.0,-1,1.0,1.620001000000002
245,59,0.5,0.0625,35.0,1,1.0,0.3751999999999498
246,59,0.5,1.0,-35.0,-1,1.0,0.5371010000000069
247,59,0.5,0.25,35.0,1,1.0,0.2949999999999591
248,59,0.5,0.25,35.0,1,1.0,0.2600009999998747
249,59,0.5,0.25,35.0,1,1.0,0.24910099999988233
250,59,0.5,0.0,-35.0,-1,1.0,0.6771999999999707
251,59,0.5,1.0,-35.0,-1,1.0,0.36540099999990616
252,59,0.5,0.0,35.0,-1,0.0,2.380100999999968
253,59,0.5,0.0625,35.0,-1,0.0,1.910199999999918
254,59,0.4,0.0625,35.0,-1,0.0,0.5540999999999485
255,59,0.5,1.0,35.0,1,1.0,0.26110099999993963
256,59,0.5,0.125,35.0,1,1.0,0.2591009999999869
257,59,0.5,0.25,35.0,1,1.0,0.44850000000008095
258,59,0.5,0.0,-35.0,1,0.0,0.2901999999999134
259,59,0.5,0.0,-35.0,-1,1.0,0.47210099999995236
260,59,0.5,1.0,-35.0,-1,1.0,0.5982009999999036
261,59,0.5,0.125,-35.0,-1,1.0,0.31890100000009625
262,59,0.5,0.0,-35.0,1,0.0,0.3201010000000224
263,59,0.5,0.125,-35.0,-1,1.0,0.24579999999991742
264,59,0.5,0.125,35.0,-1,0.0,0.15090100000020357
265,59,0.5,0.25,-35.0,-1,1.0,0.39580099999989216
266,59,0.5,0.0625,-35.0,-1,1.0,0.7170999999998457
267,59,0.5,0.125,35.0,1,1.0,0.2925999999999931
268,59,0.5,0.0,-35.0,1,0.0,0.2496009999999842
269,59,0.3,0.0,-35.0,-1,1.0,0.45270000000004984
270,59,0.5,1.0,35.0,1,1.0,0.25
271,59,0.5,1.0,35.0,1,1.0,0.2862999999999829
272,59,0.5,0.125,35.0,1,1.0,0.2743009999996957
273,59,0.5,0.0625,35.0,1,1.0,2.229799999999841
274,59,0.5,0.0,35.0,-1,0.0,0.6413009999998849
275,59,0.5,0.25,-35.0,-1,1.0,0.5899999999999181
276,59,0.5,1.0,-35.0,-1,1.0,0.5714009999996961
277,59,0.5,0.25,-35.0,-1,1.0,0.34340100000008533
278,59,0.5,0.0625,35.0,-1,0.0,0.33380000000011023
279,59,0.4,0.0625,-35.0,-1,1.0,1.336900999999898
280,59,0.5,1.0,35.0,1,1.0,0.25270000000000437
281,59,0.5,0.25,35.0,1,1.0,0.23049999999989268
282,59,0.5,0.0625,35.0,1,1.0,0.3419010000000071
283,59,0.5,0.0,-35.0,-1,1.0,4.862500999999838
284,59,0.5,0.25,35.0,1,1.0,0.6274009999997361
285,59,0.5,0.25,35.0,1,1.0,0.4595010000000457
286,59,0.5,1.0,35.0,1,1.0,0.42420099999981176
287,59,0.5,0.0625,-35.0,-1,1.0,4.202201000000059
288,59,0.5,0.0625,35.0,-1,0.0,1.8143999999999778
289,59,0.5,0.25,35.0,1,1.0,0.28680000000008476
290,59,0.5,0.125,-35.0,-1,1.0,0.8279009999998834
291,59,0.5,1.0,35.0,1,1.0,0.20460099999991144
292,59,0.5,1.0,-35.0,-1,1.0,0.45460099999991144
293,59,0.5,0.0,-35.0,-1,1.0,0.6666999999999916
294,59,0.5,1.0,-35.0,-1,1.0,0.8148009999997612
295,59,0.5,0.0625,35.0,-1,0.0,0.9126009999999951
296,59,0.3,0.0625,35.0,-1,0.0,5.994899999999916
297,59,0.5,1.0,-35.0,-1,1.0,0.48090099999990343
298,59,0.5,0.125,-35.0,-1,1.0,0.4518999999997959
299,59,0.5,0.125,-35.0,-1,1.0,0.43630099999995764
300,59,0.5,0.125,35.0,1,1.0,0.2786999999998443
301,59,0.5,1.0,35.0,1,1.0,0.18680000000017571
302,59,0.5,0.0625,-35.0,1,0.0,0.2956010000000333
303,59,0.5,0.0625,35.0,-1,0.0,0.39440099999978884
304,59,0.5,0.0625,-35.0,-1,1.0,13.912300999999843
305,59,0.5,0.0625,35.0,1,1.0,0.2719010000000708
306,59,0.5,1.0,35.0,1,1.0,0.2726009999996677
307,59,0.5,0.25,35.0,1,1.0,0.21800100000018574
308,59,0.5,0.25,35.0,1,1.0,0.3061000000000149
309,59,0.5,0.125,35.0,1,1.0,0.1409000000001015
310,59,0.5,0.0625,35.0,1,1.0,0.25289999999995416
311,59,0.5,0.0625,35.0,1,1.0,0.2759009999999762
312,59,0.5,0.25,-35.0,1,0.0,0.276299999999992
313,59,0.5,0.0,35.0,-1,0.0,0.3905009999998583
314,59,0.5,0.0,-35.0,-1,1.0,0.40650000000005093
315,59,0.5,0.0625,35.0,1,1.0,0.29100099999982376
316,59,0.5,0.0625,35.0,1,1.0,0.9100009999999656
317,59,0.5,0.125,-35.0,-1,1.0,0.21500099999980193
318,59,0.5,0.25,35.0,1,1.0,0.2800999999999476
319,59,0.5,1.0,-35.0,-1,1.0,0.5650009999999384
320,59,0.5,0.125,-35.0,-1,1.0,0.5701999999998861
321,59,0.5,0.25,-35.0,-1,1.0,0.25910099999987324
322,59,0.5,0.0625,35.0,1,1.0,0.2673010000000886
323,59,0.5,0.0625,35.0,1,1.0,0.27809999999976753
324,59,0.5,0.25,-35.0,-1,1.0,1.1506009999998241
325,59,0.5,0.25,-35.0,1,0.0,0.29280100000005405
326,59,0.5,0.25,-35.0,-1,1.0,0.34080100000005586
327,59,0.5,0.125,35.0,1,1.0,0.342600000000175
328,59,0.5,0.0625,35.0,1,1.0,0.2475000000001728
329,59,0.5,0.0625,35.0,1,1.0,0.2841999999998279
330,59,0.5,0.25,35.0,1,1.0,0.327701000000161
331,59,0.5,0.125,35.0,1,1.0,0.28919999999993706
332,59,0.5,0.125,-35.0,1,0.0,0.25790100000017446
333,59,0.8,0.125,35.0,1,1.0,0.30520099999989725
334,59,0.5,1.0,-35.0,-1,1.0,0.42139999999972133
335,59,0.5,0.0,-35.0,-1,1.0,0.605301000000054
336,59,0.5,0.125,-35.0,-1,1.0,0.16830099999992854
337,59,0.5,0.0625,35.0,-1,0.0,0.7763010000001032
338,59,0.6,0.0625,-35.0,1,0.0,0.2782009999998536
339,59,0.5,1.0,-35.0,-1,1.0,0.8283010000000104
340,59,0.5,0.0,35.0,-1,0.0,2.595100000000002
341,59,0.5,0.25,35.0,1,1.0,0.237201000000141
342,59,0.5,0.25,35.0,1,1.0,0.31189999999992324
343,59,0.5,0.25,35.0,1,1.0,0.15940100000011626
344,59,0.5,0.0625,35.0,1,1.0,0.3120000000001255
345,59,0.5,0.25,35.0,1,1.0,0.4130999999999858
346,59,0.5,0.0625,35.0,1,1.0,0.2622000000001208
347,59,0.5,0.25,-35.0,-1,1.0,0.35730000000012296
348,59,0.5,0.125,35.0,1,1.0,0.23880099999973936
349,59,0.5,1.0,35.0,1,1.0,0.23230000000012296
350,59,0.5,1.0,35.0,1,1.0,0.34350099999983286
351,59,0.5,0.25,35.0,1,1.0,0.29920099999981176
352,59,0.5,0.0625,35.0,1,1.0,0.12770000000000437
353,59,0.5,0.0625,35.0,1,1.0,0.3526010000000497
354,59,0.5,0.25,35.0,1,1.0,0.29850099999998747
355,59,0.5,0.125,-35.0,1,0.0,0.3760010000000875
356,59,0.9,0.125,35.0,1,1.0,0.3395010000001548
357,59,0.5,1.0,-35.0,-1,1.0,0.7462009999999282
358,59,0.5,0.0625,35.0,-1,0.0,0.5709000000001652
359,59,0.8,0.0625,35.0,-1,0.0,0.32300100000020393
360,59,0.5,1.0,-35.0,-1,1.0,0.5882010000000264
361,59,0.5,0.125,-35.0,-1,1.0,0.8298999999999523
362,59,0.5,0.0625,35.0,1,1.0,0.4196999999999207
363,59,0.5,0.125,-35.0,-1,1.0,0.469899999999825
364,59,0.5,0.0,-35.0,-1,1.0,0.30690100000015264
365,59,0.5,0.125,35.0,1,1.0,0.8221000000000913
366,59,0.5,1.0,-35.0,-1,1.0,0.47020100000008824
367,59,0.5,0.0625,35.0,-1,0.0,1.607001000000082
368,59,0.2,0.0625,35.0,1,1.0,0.27710000000001855
369,59,0.5,1.0,35.0,1,1.0,0.2177009999998063
370,59,0.5,0.125,-35.0,1,0.0,0.25379999999972824
371,59,0.5,0.125,35.0,1,1.0,0.30549999999993815
372,59,0.5,1.0,35.0,1,1.0,0.32070100000009916
373,59,0.5,0.125,-35.0,-1,1.0,0.7567999999998847
374,59,0.5,0.125,35.0,1,1.0,0.5574009999997998
375,59,0.5,1.0,35.0,1,1.0,0.28050099999995837
376,59,0.5,0.25,-35.0,1,0.0,0.3774999999998272
377,59,0.5,0.0,-35.0,-1,1.0,0.29900000000020555
378,59,0.5,1.0,35.0,1,1.0,0.34780000000000655
379,59,0.5,0.25,-35.0,-1,1.0,0.4431009999998423
380,59,0.5,1.0,35.0,1,1.0,0.3010999999999058
381,59,0.5,0.25,35.0,1,1.0,0.26700099999993654
382,59,0.5,1.0,35.0,1,1.0,0.30450100000007296
383,59,0.5,1.0,-35.0,-1,1.0,0.7999010000000908
384,59,0.5,1.0,35.0,1,1.0,0.39140000000020336
385,59,0.5,1.0,-35.0,-1,1.0,2.0064010000000962
386,59,0.5,0.125,-35.0,-1,1.0,2.3181009999998423
387,59,0.5,0.0625,-35.0,-1,1.0,2.021901000000071
388,59,0.5,0.0625,-35.0,-1,1.0,3.87170100000003
389,59,0.5,0.0,35.0,-1,0.0,0.9900009999998929
390,59,0.4,0.0,35.0,-1,0.0,12.462000999999873
391,59,0.5,1.0,-35.0,-1,1.0,3.9606010000002243
392,59,0.5,0.0,35.0,-1,0.0,1.8456009999997605
393,59,0.1,0.0,35.0,1,1.0,0.6536999999998443
394,59,0.5,1.0,35.0,1,1.0,3.012599999999793
395,59,0.5,0.25,-35.0,1,0.0,1.1836009999999533
396,59,0.3,0.25,-35.0,-1,1.0,42.39270099999999
397,59,0.5,1.0,35.0,1,1.0,0.29860099999996237
398,59,0.5,0.125,35.0,1,1.0,0.7769000000000688
399,59,0.5,0.0625,-35.0,-1,1.0,1.2168010000000322
400,59,0.5,0.0625,35.0,-1,0.0,1.5571000000002186
401,59,0.5,0.0625,-35.0,-1,1.0,12.5887009999999
402,59,0.5,1.0,-35.0,-1,1.0,0.5642009999999118
403,59,0.5,1.0,-35.0,-1,1.0,1.1552010000000337
404,59,0.5,1.0,-35.0,-1,1.0,0.42430099999978665
405,59,0.5,0.25,-35.0,-1,1.0,0.4864000000000033
406,59,0.5,0.125,35.0,1,1.0,0.5645999999999276
407,59,0.5,0.125,-35.0,-1,1.0,1.3025009999998929
408,59,0.5,0.25,-35.0,-1,1.0,0.4413010000000668
409,59,0.5,1.0,-35.0,-1,1.0,0.8366009999999733
410,59,0.5,0.0625,35.0,-1,0.0,2.06470000000013
411,59,0.5,0.125,35.0,1,1.0,0.414400999999998
412,59,0.5,0.125,-35.0,-1,1.0,1.12820099999999
413,59,0.5,0.0625,-35.0,1,0.0,0.8110009999998056
414,59,0.5,0.125,35.0,1,1.0,0.5719009999997979
415,59,0.5,1.0,35.0,1,1.0,0.49650100000008024
416,59,0.5,1.0,-35.0,-1,1.0,1.7817999999999756
417,59,0.5,0.125,35.0,1,1.0,0.29980000000000473
418,59,0.5,0.0625,35.0,1,1.0,1.5487000000000535
419,59,0.5,0.125,-35.0,1,0.0,0.7864009999998416
420,59,0.5,0.0,-35.0,-1,1.0,0.332100999999966
421,59,0.5,0.0625,-35.0,-1,1.0,0.6766009999998914
422,59,0.5,0.125,-35.0,-1,1.0,0.8657009999999445
423,59,0.5,1.0,35.0,1,1.0,0.2857010000000173
424,59,0.5,1.0,-35.0,-1,1.0,1.1358000000000175
425,59,0.5,0.25,-35.0,-1,1.0,4.3046009999998205
426,59,0.5,0.0625,35.0,-1,0.0,2.0394000000001142
427,59,0.4,0.0625,35.0,-1,0.0,0.5796999999997752
428,59,0.5,1.0,-35.0,-1,1.0,3.0898010000000795
429,59,0.5,0.0625,-35.0,-1,1.0,0.670699999999897
430,59,0.5,0.0,35.0,-1,0.0,4.483201000000008
431,59,0.5,0.125,35.0,1,1.0,0.8678009999998721
432,59,0.5,0.0625,-35.0,-1,1.0,20.00670100000002
433,59,0.5,1.0,35.0,1,1.0,0.35789999999997235
434,59,0.5,0.0625,35.0,-1,0.0,2.9238000000000284
435,59,0.2,0.0625,35.0,1,1.0,0.3289009999998598
436,59,0.5,1.0,35.0,1,1.0,0.45390100000008715
437,59,0.5,0.125,35.0,-1,0.0,5.481200000000172
438,59,0.5,0.0625,35.0,-1,0.0,0.7708999999999833
439,59,0.5,0.0625,35.0,1,1.0,26.631999999999834
440,59,0.5,1.0,-35.0,1,0.0,6.241600999999946
441,59,0.5,0.125,35.0,1,1.0,0.7028999999997723
442,59,0.5,0.0625,-35.0,0,0.0,60.03849999999966
443,59,0.7,0.0625,35.0,-1,0.0,25.96390099999985
444,59,0.5,1.0,35.0,1,1.0,6.305100000000039
445,59,0.5,1.0,-35.0,0,0.0,60.03080100000011
446,59,0.7,1.0,-35.0,-1,1.0,0.6087000000002263
