trial_num,session_num,stim_probability_left,contrast,position,response_choice,trial_correct,reaction_time
1,59,0.5,0.25,-35.0,-1,1.0,0.5526999999999997
2,59,0.5,0.25,35.0,1,1.0,0.9325989999999997
3,59,0.5,0.125,-35.0,-1,1.0,0.5007000000000001
4,59,0.5,0.25,35.0,1,1.0,1.0222000000000016
5,59,0.5,0.0625,-35.0,-1,1.0,0.33300000000000196
6,59,0.5,1.0,35.0,1,1.0,0.500199999999996
7,59,0.5,0.0,-35.0,1,0.0,0.689899999999998
8,59,0.5,0.0,-35.0,1,0.0,0.6781000000000006
9,59,0.7,0.0,-35.0,1,0.0,0.6733990000000034
10,59,0.5,1.0,-35.0,-1,1.0,0.41329999999999245
11,59,0.5,0.125,-35.0,-1,1.0,0.3108999999999966
12,59,0.5,0.0,-35.0,-1,1.0,0.2780000000000058
13,59,0.5,1.0,-35.0,-1,1.0,0.2950999999999979
14,59,0.5,1.0,-35.0,-1,1.0,0.2618000000000009
15,59,0.5,0.125,-35.0,-1,1.0,0.14869999999999806
16,59,0.5,0.125,35.0,1,1.0,0.6458000000000013
17,59,0.5,0.25,-35.0,-1,1.0,0.20150000000001
18,59,0.5,1.0,-35.0,-1,1.0,0.20820000000000505
19,59,0.5,0.0625,35.0,1,1.0,0.38220000000001164
20,59,0.5,0.0625,-35.0,-1,1.0,0.4695999999999998
21,59,0.5,0.0625,-35.0,-1,1.0,0.5701990000000023
22,59,0.5,0.25,35.0,1,1.0,0.26780000000000825
23,59,0.5,1.0,-35.0,-1,1.0,0.11880000000000734
24,59,0.5,0.0625,35.0,1,1.0,1.19080000000001
25,59,0.5,0.0625,35.0,-1,0.0,0.24020000000000152
26,59,0.5,0.25,35.0,1,1.0,2.0135000000000076
27,59,0.5,0.0625,35.0,1,1.0,0.5607000000000113
28,59,0.5,0.125,-35.0,-1,1.0,1.7105999999999995
29,59,0.5,0.25,-35.0,-1,1.0,0.4193989999999985
30,59,0.5,0.0,35.0,1,1.0,0.4738000000000113
31,59,0.5,0.25,-35.0,1,0.0,0.5412999999999926
32,59,0.5,0.0625,-35.0,-1,1.0,0.4421000000000106
33,59,0.5,0.0625,35.0,1,1.0,0.37239999999999895
34,59,0.5,0.125,35.0,1,1.0,0.4966000000000008
35,59,0.5,0.125,35.0,1,1.0,0.1858000000000004
36,59,0.5,1.0,-35.0,-1,1.0,0.3499999999999943
37,59,0.5,0.0,35.0,1,1.0,0.7926999999999964
38,59,0.5,1.0,35.0,1,1.0,0.13980000000000814
39,59,0.5,0.25,35.0,1,1.0,0.7545000000000073
40,59,0.5,1.0,35.0,1,1.0,0.46889999999999077
41,59,0.5,0.0625,-35.0,-1,1.0,0.35650000000001114
42,59,0.5,0.0625,-35.0,-1,1.0,0.2920999999999765
43,59,0.5,0.0,35.0,-1,0.0,4.278599999999983
44,59,0.5,0.25,35.0,1,1.0,0.5285999999999831
45,59,0.5,0.0625,-35.0,-1,1.0,0.49459999999999127
46,59,0.5,0.125,-35.0,-1,1.0,0.36889999999999645
47,59,0.5,1.0,-35.0,-1,1.0,0.2635999999999967
48,59,0.5,0.0625,-35.0,1,0.0,0.29410000000001446
49,59,0.5,0.0625,35.0,1,1.0,0.4176989999999705
50,59,0.5,0.25,-35.0,-1,1.0,0.35469899999998233
51,59,0.5,0.0,35.0,-1,0.0,0.5415999999999883
52,59,0.3,0.0,35.0,-1,0.0,1.8412999999999897
53,59,0.5,1.0,-35.0,-1,1.0,0.35429999999999495
54,59,0.5,0.0625,-35.0,-1,1.0,0.21829999999999927
55,59,0.5,1.0,-35.0,-1,1.0,0.2767999999999802
56,59,0.5,0.0625,35.0,-1,0.0,0.39479999999997517
57,59,0.5,0.125,35.0,-1,0.0,0.08919999999997685
58,59,0.5,0.0625,35.0,1,1.0,2.6957999999999913
59,59,0.5,0.125,35.0,1,1.0,1.7573999999999899
60,59,0.5,0.25,-35.0,-1,1.0,0.4499999999999602
61,59,0.5,1.0,-35.0,-1,1.0,0.32210000000000605
62,59,0.5,0.125,-35.0,-1,1.0,0.4339999999999975
63,59,0.5,0.25,35.0,1,1.0,2.682900000000018
64,59,0.5,0.0625,-35.0,-1,1.0,0.12340000000000373
65,59,0.5,0.125,35.0,-1,0.0,0.4701000000000022
66,59,0.3,0.125,-35.0,-1,1.0,1.3824000000000183
67,59,0.5,1.0,35.0,-1,0.0,0.11310000000003129
68,59,0.5,0.25,-35.0,-1,1.0,0.5443000000000211
69,59,0.5,0.125,35.0,1,1.0,0.41320000000001755
70,59,0.5,0.25,-35.0,-1,1.0,0.4045000000000414
71,59,0.5,1.0,-35.0,1,0.0,0.10540000000003147
72,59,0.5,0.125,35.0,-1,0.0,2.152500000000032
73,59,0.5,0.125,-35.0,-1,1.0,0.35149900000004664
74,59,0.5,0.25,-35.0,-1,1.0,1.282999000000018
75,59,0.5,0.0625,35.0,1,1.0,0.2656000000000631
76,59,0.5,0.0625,35.0,-1,0.0,0.35250000000002046
77,59,0.5,0.25,35.0,1,1.0,0.6381000000000085
78,59,0.5,1.0,-35.0,-1,1.0,0.2733000000000061
79,59,0.5,0.25,35.0,1,1.0,0.497299000000055
80,59,0.5,0.125,35.0,1,1.0,0.5903990000000476
81,59,0.5,0.0,-35.0,1,0.0,0.1976000000000795
82,59,0.5,0.0625,-35.0,1,0.0,0.6621989999999869
83,59,0.5,0.0625,-35.0,1,0.0,0.5557000000000016
84,59,0.5,0.25,-35.0,-1,1.0,0.418700000000058
85,59,0.5,0.125,35.0,1,1.0,0.3464000000000169
86,59,0.5,0.125,35.0,1,1.0,0.19550000000009504
87,59,0.5,0.0,-35.0,1,0.0,2.065499999999986
88,59,0.5,0.25,-35.0,1,0.0,1.281499999999994
89,59,0.5,0.0625,-35.0,1,0.0,2.1713000000000306
90,59,0.5,0.0625,-35.0,-1,1.0,5.344499999999982
91,59,0.5,1.0,-35.0,-1,1.0,0.27060000000000173
92,59,0.5,1.0,35.0,1,1.0,0.15900000000004866
93,59,0.5,0.0625,35.0,-1,0.0,0.10830000000009932
94,59,0.5,0.125,-35.0,-1,1.0,0.2378999999999678
95,59,0.5,0.0625,-35.0,-1,1.0,0.4837990000000332
96,59,0.5,0.0625,-35.0,-1,1.0,0.6356000000000108
97,59,0.5,0.0625,35.0,-1,0.0,2.5217999999999847
98,59,0.3,0.0625,35.0,-1,0.0,4.736300000000028
99,59,0.5,1.0,35.0,1,1.0,0.34840000000002647
100,59,0.5,0.125,-35.0,-1,1.0,0.3008000000000379
101,59,0.5,0.25,-35.0,-1,1.0,0.342200000000048
102,59,0.5,1.0,-35.0,-1,1.0,0.25080000000002656
103,59,0.5,0.25,35.0,1,1.0,0.26730000000009113
104,59,0.5,0.125,35.0,1,1.0,0.16130000000003974
105,59,0.5,0.25,-35.0,-1,1.0,0.4349000000000274
106,59,0.5,0.125,-35.0,-1,1.0,0.19080000000002428
107,59,0.5,0.0,35.0,-1,0.0,1.259800000000041
108,59,0.5,0.25,35.0,-1,0.0,0.10979900000006637
109,59,0.5,0.125,-35.0,-1,1.0,0.2906000000000404
110,59,0.5,1.0,-35.0,-1,1.0,0.22829999999999018
111,59,0.5,0.0625,35.0,1,1.0,1.0030000000000427
112,59,0.5,0.25,-35.0,-1,1.0,0.33339999999998327
113,59,0.5,0.25,35.0,1,1.0,0.37340000000000373
114,59,0.5,1.0,35.0,-1,0.0,0.12109899999995832
115,59,0.5,0.25,-35.0,-1,1.0,0.36289900000002717
116,59,0.5,0.125,-35.0,1,0.0,0.146000000000015
117,59,0.3,0.125,35.0,-1,0.0,0.32799999999997453
118,59,0.5,1.0,35.0,1,1.0,0.29340000000001965
119,59,0.5,0.25,35.0,1,1.0,0.20669899999995778
120,59,0.5,0.125,-35.0,-1,1.0,0.3761000000000081
121,59,0.5,0.25,-35.0,-1,1.0,0.26420000000001664
122,59,0.5,0.0625,35.0,1,1.0,0.904200000000003
123,59,0.5,0.0625,35.0,1,1.0,0.3658990000000699
124,59,0.5,0.25,35.0,1,1.0,0.6497999999999138
125,59,0.5,0.125,35.0,1,1.0,0.40980000000001837
126,59,0.5,0.25,-35.0,-1,1.0,0.41629999999997835
127,59,0.5,0.125,-35.0,-1,1.0,0.30529999999998836
128,59,0.5,0.25,-35.0,-1,1.0,0.40229999999996835
129,59,0.5,0.125,-35.0,-1,1.0,0.3934000000000424
130,59,0.5,0.125,-35.0,-1,1.0,0.23730000000000473
131,59,0.5,0.125,-35.0,-1,1.0,0.280399999999986
132,59,0.5,0.25,-35.0,1,0.0,1.6219999999999573
133,59,0.5,0.125,35.0,1,1.0,0.3775999999999158
134,59,0.5,0.0625,35.0,1,1.0,0.12149999999996908
135,59,0.5,0.0625,35.0,1,1.0,0.41099899999994705
136,59,0.5,1.0,35.0,1,1.0,0.185999000000038
137,59,0.5,0.0,-35.0,1,0.0,0.26080000000001746
138,59,0.5,0.25,-35.0,-1,1.0,0.37279899999998634
139,59,0.5,0.0625,35.0,1,1.0,0.2784999999998945
140,59,0.5,1.0,-35.0,-1,1.0,0.3550999999998794
141,59,0.5,0.0,35.0,1,1.0,0.33249899999998433
142,59,0.5,0.125,-35.0,-1,1.0,0.3894999999999982
143,59,0.5,0.0,35.0,1,1.0,0.20259899999996378
144,59,0.5,1.0,35.0,1,1.0,0.19809999999995398
145,59,0.5,1.0,35.0,1,1.0,0.1435999999998785
146,59,0.5,1.0,35.0,1,1.0,0.3106000000000222
147,59,0.5,0.0625,-35.0,1,0.0,0.15949899999998252
148,59,0.5,0.0625,35.0,1,1.0,0.15579999999999927
149,59,0.5,0.0625,35.0,1,1.0,0.11860000000001492
150,59,0.5,1.0,35.0,1,1.0,0.28369999999995343
151,59,0.5,0.0,35.0,1,1.0,2.524899000000005
152,59,0.5,1.0,-35.0,-1,1.0,0.27719999999999345
153,59,0.5,0.0,-35.0,1,0.0,1.7183999999999742
154,59,0.9,0.0,35.0,1,1.0,0.7916000000000167
155,59,0.5,1.0,-35.0,-1,1.0,0.29309999999998126
156,59,0.5,1.0,-35.0,-1,1.0,0.2015999999999849
157,59,0.5,0.0625,-35.0,-1,1.0,0.7327999999998838
158,59,0.5,1.0,-35.0,-1,1.0,0.23939999999993233
159,59,0.5,0.0625,-35.0,-1,1.0,0.7122999999999138
160,59,0.5,0.0625,-35.0,-1,1.0,0.36199999999996635
161,59,0.5,0.0625,-35.0,-1,1.0,0.14590000000009695
162,59,0.5,0.125,35.0,-1,0.0,1.850999999999999
163,59,0.5,0.125,-35.0,-1,1.0,0.6843000000000075
164,59,0.5,1.0,35.0,1,1.0,0.299398999999994
165,59,0.5,0.25,-35.0,-1,1.0,0.23429999999996198
166,59,0.5,1.0,35.0,1,1.0,0.12760000000002947
167,59,0.5,0.0,35.0,1,1.0,0.24099999999998545
168,59,0.5,1.0,-35.0,-1,1.0,0.30729999999994106
169,59,0.5,0.25,35.0,1,1.0,0.1130999999999176
170,59,0.5,0.0625,35.0,1,1.0,0.49909999999988486
171,59,0.5,1.0,35.0,1,1.0,0.42840000000001055
172,59,0.5,0.25,35.0,1,1.0,0.233600000000024
173,59,0.5,0.125,35.0,1,1.0,0.3790999999998803
174,59,0.5,0.125,-35.0,-1,1.0,1.865000000000009
175,59,0.5,0.125,-35.0,-1,1.0,0.38150000000007367
176,59,0.5,0.125,35.0,1,1.0,0.2440999999998894
177,59,0.5,0.125,35.0,-1,0.0,0.29819999999983793
178,59,0.5,0.0625,-35.0,-1,1.0,0.344600000000014
179,59,0.5,1.0,-35.0,-1,1.0,0.42019999999990887
180,59,0.5,0.125,-35.0,-1,1.0,0.26089999999999236
181,59,0.5,0.0625,35.0,1,1.0,1.4705999999998767
182,59,0.5,0.0625,35.0,-1,0.0,0.14279999999996562
183,59,0.5,0.25,35.0,-1,0.0,1.34800000000007
184,59,0.5,0.125,35.0,1,1.0,0.6068000000000211
185,59,0.5,0.0625,35.0,1,1.0,0.7405999999999722
186,59,0.5,1.0,35.0,1,1.0,0.48660000000006676
187,59,0.5,1.0,35.0,1,1.0,0.13639999999998054
188,59,0.5,0.125,35.0,1,1.0,2.6533999999999196
189,59,0.5,0.125,-35.0,1,0.0,0.7128999999998769
190,59,0.5,0.0625,-35.0,-1,1.0,0.3025999999998703
191,59,0.5,0.125,-35.0,1,0.0,0.11549999999988358
192,59,0.5,0.25,35.0,1,1.0,4.598299999999881
193,59,0.5,0.125,35.0,1,1.0,1.4662999999999329
194,59,0.5,1.0,-35.0,-1,1.0,0.32369999999991705
195,59,0.5,0.125,-35.0,-1,1.0,0.3813999999998714
196,59,0.5,0.25,35.0,1,1.0,1.0117989999998827
197,59,0.5,1.0,-35.0,-1,1.0,0.2701999999999316
198,59,0.5,0.25,35.0,1,1.0,1.0106999999999289
199,59,0.5,0.0,-35.0,1,0.0,0.3407999999999447
200,59,0.5,0.0,-35.0,1,0.0,3.046699999999987
201,59,0.5,0.125,35.0,1,1.0,4.213699999999903
202,59,0.5,1.0,35.0,1,1.0,0.7089999999999463
203,59,0.5,1.0,35.0,1,1.0,0.5584999999998672
204,59,0.5,1.0,35.0,1,1.0,0.30749900000000707
205,59,0.5,0.25,-35.0,1,0.0,0.6698999999999842
206,59,0.9,0.25,-35.0,-1,1.0,0.4358989999999494
207,59,0.5,1.0,-35.0,-1,1.0,0.42479999999989104
208,59,0.5,0.0625,-35.0,-1,1.0,0.37399999999990996
209,59,0.5,0.25,35.0,-1,0.0,0.1794999999999618
210,59,0.6,0.25,35.0,-1,0.0,3.3611989999999423
211,59,0.5,1.0,-35.0,-1,1.0,0.5025999999999158
212,59,0.5,0.0625,35.0,1,1.0,3.574899999999957
213,59,0.5,0.0625,35.0,1,1.0,0.4916999999999234
214,59,0.5,1.0,-35.0,-1,1.0,0.20739899999989575
215,59,0.5,0.25,35.0,1,1.0,1.2187999999999874
216,59,0.5,0.25,35.0,1,1.0,1.1417999999999893
217,59,0.5,0.25,35.0,1,1.0,0.5439999999999827
218,59,0.5,0.0625,35.0,1,1.0,0.2645999999998594
219,59,0.5,1.0,35.0,1,1.0,1.5498999999999796
220,59,0.5,0.0625,35.0,-1,0.0,0.23969999999997071
221,59,0.7,0.0625,-35.0,-1,1.0,0.8215999999998758
222,59,0.5,1.0,-35.0,1,0.0,0.1431999999999789
223,59,0.5,0.0625,35.0,1,1.0,2.1632999999999356
224,59,0.5,0.125,35.0,1,1.0,0.6929999999998699
225,59,0.5,0.0,35.0,1,1.0,0.3776990000000069
226,59,0.5,0.25,-35.0,-1,1.0,0.726799999999912
227,59,0.5,0.0625,35.0,1,1.0,0.6838999999998805
228,59,0.5,0.0,35.0,-1,0.0,0.5964000000000169
229,59,0.6,0.0,-35.0,1,0.0,1.0978999999999814
230,59,0.5,1.0,35.0,1,1.0,0.5430000000000064
231,59,0.5,0.25,35.0,1,1.0,0.4478000000000293
232,59,0.5,1.0,35.0,1,1.0,0.34289899999987483
233,59,0.5,0.0625,-35.0,1,0.0,0.3594999999999118
234,59,0.5,0.125,35.0,1,1.0,0.530399999999986
235,59,0.5,0.125,-35.0,1,0.0,0.2519999999999527
236,59,0.5,0.0625,35.0,1,1.0,0.3605000000000018
237,59,0.5,1.0,35.0,1,1.0,0.3992000000000644
238,59,0.5,0.125,35.0,1,1.0,1.6912000000000944
239,59,0.5,0.25,35.0,1,1.0,0.8977999999999611
240,59,0.5,0.25,35.0,1,1.0,0.1715000000000373
241,59,0.5,0.0,-35.0,1,0.0,0.39789999999993597
242,59,0.5,0.0,35.0,1,1.0,1.584799999999973
243,59,0.5,0.25,-35.0,-1,1.0,0.6347000000000662
244,59,0.5,0.0625,-35.0,1,0.0,0.591899999999896
245,59,0.5,0.0625,-35.0,-1,1.0,0.30159999999978027
246,59,0.5,0.125,35.0,1,1.0,0.21859999999992397
247,59,0.5,0.25,-35.0,-1,1.0,0.40820000000007894
248,59,0.5,0.0,35.0,1,1.0,1.425000000000182
249,59,0.5,0.125,35.0,1,1.0,0.3551999999997406
250,59,0.5,0.0,-35.0,1,0.0,1.6157000000000608
251,59,0.5,0.25,-35.0,-1,1.0,0.2786999999998443
252,59,0.5,0.125,35.0,1,1.0,0.519800000000032
253,59,0.5,0.25,35.0,1,1.0,1.3053999999997359
254,59,0.5,1.0,35.0,1,1.0,0.2257999999999356
255,59,0.5,0.0625,35.0,1,1.0,0.13209999999980937
256,59,0.5,1.0,35.0,1,1.0,0.4921990000000278
257,59,0.5,0.125,-35.0,1,0.0,1.3122000000000753
258,59,0.5,0.25,-35.0,-1,1.0,0.3125999999999749
259,59,0.5,0.25,-35.0,1,0.0,0.4523999999998978
260,59,0.5,0.0625,-35.0,-1,1.0,0.7099000000000615
261,59,0.5,1.0,-35.0,1,0.0,2.0191990000000715
262,59,0.5,0.0625,-35.0,1,0.0,1.2695999999998548
263,59,0.5,0.125,-35.0,-1,1.0,1.0527000000001863
264,59,0.5,0.0625,35.0,1,1.0,2.6027999999998883
265,59,0.5,0.0625,-35.0,-1,1.0,0.4028000000000702
266,59,0.5,0.125,-35.0,-1,1.0,0.42630000000008295
267,59,0.5,0.125,35.0,-1,0.0,0.6727999999998246
268,59,0.5,0.125,-35.0,-1,1.0,0.317098999999871
269,59,0.5,0.0,-35.0,-1,1.0,2.1861999999998716
270,59,0.5,0.25,-35.0,-1,1.0,0.25999999999976353
271,59,0.5,0.25,35.0,1,1.0,0.2763999999999669
272,59,0.5,0.125,-35.0,-1,1.0,0.4231999999999516
273,59,0.5,0.0625,-35.0,-1,1.0,0.3731999999999971
274,59,0.5,0.25,-35.0,-1,1.0,0.41679999999996653
275,59,0.5,1.0,35.0,1,1.0,0.373299999999972
276,59,0.5,0.0,35.0,1,1.0,0.4272000000000844
277,59,0.5,0.0625,-35.0,-1,1.0,0.47659999999996217
278,59,0.5,0.0625,-35.0,-1,1.0,0.5802999999998519
279,59,0.5,1.0,-35.0,-1,1.0,0.21689999999989595
280,59,0.5,1.0,35.0,1,1.0,0.4104000000002088
281,59,0.5,0.25,35.0,1,1.0,0.6268999999999778
282,59,0.5,0.0625,35.0,1,1.0,0.8036999999999352
283,59,0.5,0.125,-35.0,1,0.0,1.473598999999922
284,59,0.5,0.25,35.0,1,1.0,1.2239989999998215
285,59,0.5,0.0625,35.0,1,1.0,2.1403999999999996
286,59,0.5,1.0,35.0,1,1.0,0.8441000000000258
287,59,0.5,0.0625,35.0,1,1.0,0.5438999999998941
288,59,0.5,0.0625,-35.0,-1,1.0,0.28449999999998
289,59,0.5,0.0625,-35.0,1,0.0,1.1041000000000167
290,59,0.5,0.0,-35.0,1,0.0,1.6877999999999247
291,59,0.5,0.0625,-35.0,-1,1.0,2.417500000000018
292,59,0.5,0.0625,-35.0,-1,1.0,0.4076999999999771
293,59,0.5,1.0,-35.0,-1,1.0,0.2442999999998392
294,59,0.5,0.0625,-35.0,1,0.0,1.294399999999996
295,59,0.5,0.0,-35.0,1,0.0,2.3877000000002226
296,59,0.5,0.125,-35.0,-1,1.0,0.8881999999998698
297,59,0.5,0.25,-35.0,-1,1.0,0.6580000000001291
298,59,0.5,0.0625,-35.0,-1,1.0,1.4515999999998712
299,59,0.5,0.0625,-35.0,-1,1.0,0.864699999999857
300,59,0.5,0.0625,-35.0,-1,1.0,1.4583999999999833
301,59,0.5,0.25,-35.0,-1,1.0,0.3913989999998648
302,59,0.5,0.25,-35.0,-1,1.0,0.48499999999989996
303,59,0.5,0.0625,-35.0,-1,1.0,0.6282999999998538
304,59,0.5,0.0625,-35.0,-1,1.0,0.33209899999997106
305,59,0.5,0.25,35.0,1,1.0,0.2817000000000007
306,59,0.5,0.0625,35.0,1,1.0,0.6485999999999876
307,59,0.5,0.125,35.0,1,1.0,0.7449989999997797
308,59,0.5,0.0625,35.0,-1,0.0,0.26579999999989923
309,59,0.3,0.0625,-35.0,1,0.0,1.0050999999998567
310,59,0.5,1.0,-35.0,-1,1.0,0.37590000000000146
311,59,0.5,0.25,35.0,-1,0.0,0.16519999999991342
312,59,0.5,0.0625,35.0,-1,0.0,0.3025000000000091
313,59,0.5,0.0625,-35.0,1,0.0,0.6486999999999625
314,59,0.5,0.0625,35.0,1,1.0,13.335700000000088
315,59,0.5,1.0,-35.0,-1,1.0,0.23559999999997672
316,59,0.5,0.125,-35.0,-1,1.0,0.4294000000002143
317,59,0.5,0.0625,35.0,1,1.0,0.782399999999825
318,59,0.5,0.125,35.0,1,1.0,0.3125990000000911
319,59,0.5,0.25,-35.0,-1,1.0,0.2859000000000833
320,59,0.5,0.0625,-35.0,1,0.0,8.056199999999762
321,59,0.5,0.0625,-35.0,1,0.0,1.7928000000001703
322,59,0.5,1.0,35.0,1,1.0,2.276500000000169
323,59,0.5,0.125,-35.0,1,0.0,0.16290000000003602
324,59,0.7,0.125,35.0,1,1.0,1.1099990000000162
325,59,0.5,1.0,-35.0,-1,1.0,0.40299899999990885
326,59,0.5,0.0,-35.0,1,0.0,2.109699999999748
327,59,0.5,0.0,35.0,1,1.0,0.8532999999999902
328,59,0.5,1.0,35.0,1,1.0,0.3169000000000324
329,59,0.5,0.25,-35.0,-1,1.0,0.5698999999999614
330,59,0.5,1.0,35.0,1,1.0,7.906998999999814
331,59,0.5,1.0,35.0,1,1.0,0.5235999999997603
332,59,0.5,0.125,35.0,1,1.0,0.5769999999999982
333,59,0.5,0.25,-35.0,-1,1.0,0.3735999999998967
334,59,0.5,0.0625,-35.0,1,0.0,1.9902999999999338
335,59,0.5,0.0625,-35.0,-1,1.0,2.400599999999713
336,59,0.5,0.0625,-35.0,-1,1.0,0.7945999999999458
337,59,0.5,0.125,35.0,1,1.0,0.8705999999999676
338,59,0.5,0.0,-35.0,-1,1.0,4.5645999999997
339,59,0.5,0.0625,35.0,1,1.0,10.757400000000189
340,59,0.5,1.0,35.0,1,1.0,2.9909989999998743
341,59,0.5,0.0625,-35.0,1,0.0,1.6342999999999392
342,59,0.6,0.0625,-35.0,1,0.0,1.6815000000001419
343,59,0.5,1.0,-35.0,-1,1.0,0.3445000000001528
344,59,0.5,0.0,-35.0,-1,1.0,0.8845010000000002
345,59,0.5,0.0,35.0,-1,0.0,2.3379009999998743
346,59,0.5,0.25,-35.0,-1,1.0,0.5118009999998776
347,59,0.5,0.25,35.0,1,1.0,1.5113010000000031
348,59,0.5,0.25,35.0,1,1.0,0.5988999999997304
349,59,0.5,0.125,35.0,1,1.0,0.4414010000000417
350,59,0.5,0.25,-35.0,-1,1.0,0.29510099999993145
351,59,0.5,0.125,35.0,1,1.0,0.495001000000002
352,59,0.5,0.25,-35.0,-1,1.0,0.28510099999994054
353,59,0.5,0.125,35.0,1,1.0,0.5349009999997634
354,59,0.5,0.25,35.0,1,1.0,3.215200999999979
355,59,0.5,0.125,-35.0,-1,1.0,0.34510100000011334
356,59,0.5,0.25,-35.0,-1,1.0,0.2919999999999163
357,59,0.5,0.125,35.0,1,1.0,0.40200099999992744
358,59,0.5,0.0,35.0,-1,0.0,0.2853010000001177
359,59,0.5,0.0625,-35.0,1,0.0,1.85870100000011
360,59,0.5,0.0,-35.0,1,0.0,1.3059010000001763
361,59,0.5,0.125,-35.0,-1,1.0,0.39890100000025086
362,59,0.5,0.25,-35.0,-1,1.0,0.28900099999987106
363,59,0.5,0.0,35.0,-1,0.0,2.345800000000054
364,59,0.5,0.0625,35.0,1,1.0,2.409100999999964
365,59,0.5,0.0625,35.0,-1,0.0,0.6057009999999536
366,59,0.5,0.25,35.0,1,1.0,0.335901000000149
367,59,0.5,0.0,-35.0,1,0.0,0.16599999999993997
368,59,0.5,0.0625,35.0,1,1.0,2.4803009999998267
369,59,0.5,0.0,-35.0,1,0.0,0.24260099999992235
370,59,0.5,0.25,35.0,1,1.0,3.3064010000000508
371,59,0.5,0.125,35.0,1,1.0,2.6928009999999176
372,59,0.5,0.125,-35.0,-1,1.0,0.5232010000001992
373,59,0.5,0.125,-35.0,-1,1.0,0.42630099999996673
374,59,0.5,0.0625,35.0,-1,0.0,0.30660100000000057
375,59,0.5,0.25,-35.0,-1,1.0,0.26650100000006205
376,59,0.5,0.25,35.0,1,1.0,0.3002009999997881
377,59,0.5,0.0625,-35.0,-1,1.0,0.5632009999999354
378,59,0.5,0.0625,-35.0,-1,1.0,0.5468009999999595
379,59,0.5,1.0,35.0,1,1.0,0.769800000000032
380,59,0.5,0.0,35.0,1,1.0,1.3976010000001224
381,59,0.5,1.0,35.0,1,1.0,1.4067999999997483
382,59,0.5,0.0,-35.0,1,0.0,0.6438009999997121
383,59,0.5,0.0,-35.0,1,0.0,6.093599999999924
384,59,0.5,1.0,35.0,1,1.0,3.4677009999998063
385,59,0.5,1.0,-35.0,-1,1.0,0.3638010000001941
386,59,0.5,0.125,-35.0,-1,1.0,0.5240009999999984
387,59,0.5,0.25,35.0,1,1.0,0.3840010000001257
388,59,0.5,0.25,-35.0,-1,1.0,0.3248000000000957
389,59,0.5,0.25,-35.0,-1,1.0,0.3739010000001599
390,59,0.5,0.125,35.0,1,1.0,1.094800999999734
391,59,0.5,1.0,-35.0,-1,1.0,0.31090100000005805
392,59,0.5,0.25,35.0,1,1.0,1.057801000000154
393,59,0.5,0.125,35.0,1,1.0,1.574100000000044
394,59,0.5,0.125,35.0,1,1.0,1.8777009999998882
395,59,0.5,0.25,35.0,1,1.0,0.8910009999997328
396,59,0.5,0.0,-35.0,1,0.0,0.5010999999999513
397,59,0.5,0.25,35.0,1,1.0,1.154399999999896
398,59,0.5,0.25,35.0,1,1.0,1.2247010000000955
399,59,0.5,0.0625,-35.0,-1,1.0,0.6246009999999842
400,59,0.5,0.0625,-35.0,1,0.0,1.9021010000001297
401,59,0.5,0.125,-35.0,-1,1.0,0.2681009999998878
402,59,0.5,1.0,-35.0,-1,1.0,0.2948010000002341
403,59,0.5,1.0,35.0,1,1.0,0.624800999999934
404,59,0.5,0.0625,-35.0,-1,1.0,0.2821009999997841
405,59,0.5,0.0625,35.0,-1,0.0,1.4114999999997053
406,59,0.5,0.0,-35.0,1,0.0,2.092000999999982
407,59,0.5,0.0,35.0,1,1.0,1.0683010000000195
408,59,0.5,1.0,-35.0,-1,1.0,0.2722009999999955
409,59,0.5,0.125,35.0,-1,0.0,0.4185010000001057
410,59,0.5,0.0625,-35.0,1,0.0,1.4893009999998412
411,59,0.5,0.25,35.0,1,1.0,1.462301000000025
412,59,0.5,0.125,35.0,-1,0.0,4.155400999999756
413,59,0.5,0.0625,-35.0,1,0.0,1.4088010000000395
414,59,0.5,0.0625,-35.0,1,0.0,3.139400999999907
415,59,0.5,1.0,-35.0,-1,1.0,0.5024000000000797
416,59,0.5,0.0625,35.0,1,1.0,4.7490999999999985
417,59,0.5,0.0625,35.0,1,1.0,3.856000999999651
418,59,0.5,0.125,35.0,1,1.0,3.402700999999979
419,59,0.5,0.125,-35.0,-1,1.0,0.9460010000000239
420,59,0.5,0.0625,-35.0,1,0.0,7.1796009999998205
421,59,0.5,0.25,-35.0,1,0.0,3.9529009999998834
422,59,0.5,0.0,-35.0,1,0.0,15.617701000000125
423,59,0.5,0.0625,-35.0,-1,1.0,4.786701000000221
424,59,0.5,1.0,-35.0,-1,1.0,0.6503009999998994
425,59,0.5,0.25,35.0,1,1.0,7.100100999999995
426,59,0.5,0.0,35.0,1,1.0,9.237000999999964
427,59,0.5,0.125,35.0,1,1.0,35.9369999999999
428,59,0.5,0.0,35.0,-1,0.0,14.191201000000092
429,59,0.6,0.0,-35.0,1,0.0,5.7278009999999995
430,59,0.5,1.0,35.0,1,1.0,8.569201000000021
431,59,0.5,0.0625,-35.0,-1,1.0,1.501600999999937
432,59,0.5,0.0625,-35.0,-1,1.0,0.5484009999997852
433,59,0.5,0.0625,35.0,-1,0.0,3.291501000000153
434,59,0.5,0.125,35.0,1,1.0,4.735300999999708
435,59,0.5,0.25,-35.0,-1,1.0,0.7784010000000308
436,59,0.5,1.0,35.0,1,1.0,2.8257010000002083
437,59,0.5,0.0,-35.0,1,0.0,3.8654010000004746
438,59,0.5,0.125,-35.0,1,0.0,4.695500999999695
439,59,0.5,0.125,-35.0,-1,1.0,6.722100999999839
440,59,0.5,0.125,35.0,1,1.0,2.0394999999998618
441,59,0.5,0.25,-35.0,-1,1.0,0.659001000000444
442,59,0.5,0.125,-35.0,-1,1.0,7.730600999999751
443,59,0.5,0.0625,35.0,1,1.0,0.48580100000026505
444,59,0.5,0.0625,-35.0,1,0.0,1.236199999999826
445,59,0.5,0.0625,-35.0,-1,1.0,4.5426009999996495
446,59,0.5,0.125,-35.0,-1,1.0,3.036501000000044
447,59,0.5,0.0,-35.0,-1,1.0,7.1028009999999995
448,59,0.5,0.0,35.0,-1,0.0,2.6432009999998627
449,59,0.5,0.0625,-35.0,1,0.0,4.053001000000222
450,59,0.5,0.25,-35.0,-1,1.0,0.5809009999998125
451,59,0.5,1.0,-35.0,-1,1.0,0.9465999999997621
452,59,0.5,0.0625,35.0,-1,0.0,1.3739010000003873
453,59,0.5,0.25,-35.0,1,0.0,1.6068009999999049
454,59,0.5,0.125,-35.0,-1,1.0,3.5910009999997783
455,59,0.5,0.0625,-35.0,-1,1.0,11.020101000000068
456,59,0.5,0.25,-35.0,-1,1.0,9.554101000000173
1,60,0.5,0.125,-35.0,-1,1.0,1.9771
2,60,0.5,0.25,35.0,1,1.0,0.42769999999999975
3,60,0.5,0.0625,35.0,1,1.0,0.44179999999999886
4,60,0.5,0.125,-35.0,-1,1.0,0.31709999999999994
5,60,0.5,0.25,-35.0,-1,1.0,0.3227000000000011
6,60,0.5,0.25,-35.0,-1,1.0,0.3686000000000007
7,60,0.5,0.0625,-35.0,-1,1.0,0.7166999999999994
8,60,0.5,0.125,-35.0,-1,1.0,0.4538000000000011
9,60,0.5,0.25,35.0,1,1.0,0.6184000000000047
10,60,0.5,0.125,35.0,1,1.0,0.8988000000000014
11,60,0.5,0.125,35.0,1,1.0,0.3247
12,60,0.5,0.25,35.0,1,1.0,0.7419000000000082
13,60,0.5,0.25,35.0,1,1.0,0.47039999999999793
14,60,0.5,1.0,-35.0,-1,1.0,0.29070000000000107
15,60,0.5,0.0625,-35.0,1,0.0,0.13650000000000517
16,60,0.5,0.0,-35.0,1,0.0,1.417900000000003
17,60,0.7,0.0,-35.0,1,0.0,9.123099999999994
18,60,0.5,1.0,-35.0,-1,1.0,0.4375
19,60,0.5,1.0,-35.0,-1,1.0,0.2873000000000019
20,60,0.5,1.0,-35.0,-1,1.0,0.2669999999999959
21,60,0.5,1.0,-35.0,-1,1.0,0.2866999999999962
22,60,0.5,1.0,35.0,1,1.0,0.5069000000000017
23,60,0.5,0.0,35.0,-1,0.0,0.33799999999999386
24,60,0.5,0.0625,35.0,1,1.0,0.4555999999999898
25,60,0.5,0.0625,35.0,1,1.0,0.7318999999999818
26,60,0.5,0.0,35.0,1,1.0,0.2669000000000068
27,60,0.5,0.125,35.0,1,1.0,1.5370999999999952
28,60,0.5,0.25,35.0,1,1.0,0.1950999999999965
29,60,0.5,0.25,-35.0,-1,1.0,0.25039999999999907
30,60,0.5,1.0,35.0,1,1.0,0.7277999999999878
31,60,0.5,0.25,35.0,1,1.0,0.5123999999999995
32,60,0.5,1.0,35.0,1,1.0,0.4603000000000037
33,60,0.5,0.125,-35.0,1,0.0,0.42269999999997765
34,60,0.9,0.125,-35.0,-1,1.0,6.620900000000006
35,60,0.5,1.0,-35.0,-1,1.0,0.526299999999992
36,60,0.5,0.25,-35.0,-1,1.0,0.3546000000000049
37,60,0.5,0.125,35.0,1,1.0,0.45309999999997785
38,60,0.5,1.0,-35.0,-1,1.0,0.2644000000000233
39,60,0.5,1.0,-35.0,-1,1.0,0.24380000000002156
40,60,0.5,0.125,-35.0,-1,1.0,0.21030000000001792
41,60,0.5,0.25,-35.0,-1,1.0,0.2834000000000003
42,60,0.5,1.0,35.0,1,1.0,0.24780000000001223
43,60,0.5,0.25,35.0,1,1.0,1.4154000000000053
44,60,0.5,1.0,35.0,1,1.0,0.37400000000002365
45,60,0.5,0.0625,35.0,1,1.0,0.5145000000000266
46,60,0.5,0.25,35.0,1,1.0,0.47280000000003497
47,60,0.5,1.0,35.0,1,1.0,0.12690000000000623
48,60,0.5,0.25,-35.0,1,0.0,0.6765000000000043
49,60,0.7,0.25,35.0,1,1.0,1.7611000000000274
50,60,0.5,1.0,-35.0,-1,1.0,0.3411000000000115
51,60,0.5,0.125,35.0,1,1.0,0.20770000000001687
52,60,0.5,0.0625,-35.0,-1,1.0,0.44549999999998136
53,60,0.5,1.0,35.0,1,1.0,0.4134999999999991
54,60,0.5,0.0625,35.0,1,1.0,0.14300000000000068
55,60,0.5,0.0,35.0,1,1.0,0.3995000000000175
56,60,0.5,0.125,35.0,1,1.0,0.4770000000000323
57,60,0.5,0.0625,35.0,1,1.0,0.6280000000000143
58,60,0.5,0.0625,35.0,1,1.0,0.3459000000000003
59,60,0.5,0.0,-35.0,1,0.0,0.3948000000000036
60,60,0.5,0.125,35.0,1,1.0,0.7797999999999945
61,60,0.5,0.125,-35.0,-1,1.0,0.33840000000000714
62,60,0.5,0.125,-35.0,-1,1.0,0.3585999999999956
63,60,0.5,0.0625,-35.0,-1,1.0,0.3311999999999955
64,60,0.5,1.0,35.0,1,1.0,0.5259000000000356
65,60,0.5,0.0,35.0,1,1.0,0.742999999999995
66,60,0.5,0.0625,35.0,1,1.0,0.5956999999999653
67,60,0.5,0.0625,35.0,1,1.0,0.9377000000000066
68,60,0.5,1.0,35.0,1,1.0,0.26609999999999445
69,60,0.5,0.125,-35.0,1,0.0,0.18149999999997135
70,60,0.5,0.0,-35.0,1,0.0,0.7121999999999957
71,60,0.5,0.25,35.0,1,1.0,0.3842999999999961
72,60,0.5,0.25,35.0,1,1.0,1.102299999999957
73,60,0.5,0.125,35.0,1,1.0,0.2677999999999656
74,60,0.5,0.25,-35.0,-1,1.0,0.6755000000000564
75,60,0.5,0.25,35.0,1,1.0,0.3303999999999405
76,60,0.5,0.25,-35.0,-1,1.0,0.2858999999999696
77,60,0.5,0.0,-35.0,1,0.0,0.26029999999997244
78,60,0.8,0.0,-35.0,1,0.0,3.355799999999988
79,60,0.5,1.0,-35.0,-1,1.0,0.5107999999999606
80,60,0.5,0.125,-35.0,-1,1.0,0.475400000000036
81,60,0.5,0.0,35.0,-1,0.0,2.8805000000000405
82,60,0.5,0.25,35.0,1,1.0,1.4225000000000705
83,60,0.5,0.0625,35.0,1,1.0,0.2927000000000817
84,60,0.5,0.125,-35.0,-1,1.0,1.363800000000026
85,60,0.5,0.0625,35.0,1,1.0,0.37560000000007676
86,60,0.5,0.0,35.0,1,1.0,0.13850000000002183
87,60,0.5,0.0625,-35.0,1,0.0,0.5002999999999815
88,60,0.5,0.0625,35.0,1,1.0,0.3778000000000361
89,60,0.5,0.125,-35.0,-1,1.0,0.407100000000014
90,60,0.5,0.25,-35.0,-1,1.0,0.19109999999994898
91,60,0.5,0.0625,35.0,1,1.0,0.22849999999999682
92,60,0.5,0.125,-35.0,-1,1.0,0.18470000000002074
93,60,0.5,0.0,-35.0,-1,1.0,0.2780999999999949
94,60,0.5,1.0,35.0,1,1.0,0.7067000000000121
95,60,0.5,0.25,35.0,1,1.0,0.17900000000003047
96,60,0.5,1.0,35.0,1,1.0,0.4578000000000202
97,60,0.5,0.125,-35.0,-1,1.0,0.43549999999999045
98,60,0.5,0.0625,35.0,1,1.0,0.1290000000000191
99,60,0.5,1.0,-35.0,-1,1.0,0.34440000000000737
100,60,0.5,0.0625,35.0,1,1.0,1.2449000000000296
101,60,0.5,0.25,35.0,1,1.0,0.28019999999997935
102,60,0.5,0.0,35.0,1,1.0,0.412900000000036
103,60,0.5,0.25,35.0,1,1.0,0.10200000000003229
104,60,0.5,0.0625,-35.0,1,0.0,0.6886000000000081
105,60,0.8,0.0625,-35.0,1,0.0,0.5625
106,60,0.5,1.0,-35.0,-1,1.0,0.2633999999999901
107,60,0.5,0.0625,35.0,1,1.0,1.653099999999995
108,60,0.5,0.25,35.0,1,1.0,0.34660000000002356
109,60,0.5,0.25,35.0,1,1.0,0.2635999999999967
110,60,0.5,0.0625,-35.0,1,0.0,0.34609999999997854
111,60,0.5,0.0625,35.0,1,1.0,1.3016999999999825
112,60,0.5,0.0,35.0,1,1.0,2.7912000000000035
113,60,0.5,1.0,35.0,1,1.0,0.22980000000001155
114,60,0.5,0.0625,-35.0,1,0.0,0.1724999999999568
115,60,0.5,0.0625,35.0,1,1.0,1.0307000000000244
116,60,0.5,0.125,-35.0,-1,1.0,0.3479990000000157
117,60,0.5,0.0,35.0,1,1.0,0.6654000000000337
118,60,0.5,0.0625,35.0,1,1.0,0.31860000000000355
119,60,0.5,0.125,-35.0,-1,1.0,0.359800000000007
120,60,0.5,0.25,35.0,1,1.0,0.29570000000001073
121,60,0.5,0.0625,35.0,1,1.0,1.8515999999999622
122,60,0.5,0.0625,35.0,1,1.0,0.262299999999982
123,60,0.5,0.125,35.0,1,1.0,0.2459999999999809
124,60,0.5,0.25,-35.0,1,0.0,0.11149999999997817
125,60,0.8,0.25,-35.0,-1,1.0,0.40149900000000116
126,60,0.5,1.0,-35.0,-1,1.0,0.29050000000000864
127,60,0.5,0.0625,35.0,1,1.0,0.21659999999997126
128,60,0.5,0.125,35.0,1,1.0,0.3423999999999978
129,60,0.5,0.0,35.0,1,1.0,0.28139999999996235
130,60,0.5,0.125,-35.0,-1,1.0,0.7375999999999294
131,60,0.5,0.0625,35.0,1,1.0,2.0372999999999593
132,60,0.5,0.0,-35.0,-1,1.0,0.3085999999998421
133,60,0.5,0.0625,35.0,1,1.0,0.33559999999988577
134,60,0.5,0.25,-35.0,1,0.0,0.10539999999991778
135,60,0.5,0.125,-35.0,-1,1.0,0.41029999999989286
136,60,0.5,0.0625,35.0,1,1.0,0.6988000000000056
137,60,0.5,0.0625,-35.0,1,0.0,3.3642999999998437
138,60,0.5,0.25,-35.0,-1,1.0,0.4153999999999769
139,60,0.5,0.125,-35.0,-1,1.0,0.3229999999999791
140,60,0.5,0.0,-35.0,1,0.0,0.8895999999999731
141,60,0.5,0.0,-35.0,1,0.0,2.622099999999932
142,60,0.5,0.0,-35.0,1,0.0,0.5369000000000597
143,60,0.7,0.0,-35.0,1,0.0,0.27129999999999654
144,60,0.5,1.0,-35.0,-1,1.0,0.34639999999990323
145,60,0.5,0.25,35.0,1,1.0,0.28899999999998727
146,60,0.5,0.25,35.0,1,1.0,0.294399999999996
147,60,0.5,1.0,-35.0,1,0.0,0.1269999999999527
148,60,0.5,0.125,-35.0,1,0.0,0.7100999999998976
149,60,0.5,0.25,-35.0,-1,1.0,0.5202999999999065
150,60,0.5,0.0625,35.0,1,1.0,0.20439999999996417
151,60,0.5,0.25,35.0,1,1.0,0.14009999999996126
152,60,0.5,0.0,35.0,1,1.0,0.24179999999989832
153,60,0.5,0.125,-35.0,1,0.0,0.6332999999999629
154,60,0.5,0.0625,-35.0,-1,1.0,2.074100000000044
155,60,0.5,0.125,35.0,1,1.0,0.13619999999991705
156,60,0.5,0.0625,-35.0,-1,1.0,2.3777999999999793
157,60,0.5,0.0625,35.0,1,1.0,0.7063999999999169
158,60,0.5,0.25,35.0,1,1.0,0.23829999999998108
159,60,0.5,0.25,-35.0,-1,1.0,1.6299999999998818
160,60,0.5,0.125,-35.0,-1,1.0,0.3383999999999787
161,60,0.5,0.25,35.0,1,1.0,0.2748999999998887
162,60,0.5,1.0,35.0,1,1.0,0.1533999999998059
163,60,0.5,0.125,35.0,1,1.0,0.3141000000000531
164,60,0.5,0.0625,-35.0,1,0.0,0.7264999999998736
165,60,0.5,0.25,-35.0,1,0.0,0.15709999999990032
166,60,0.5,0.25,-35.0,-1,1.0,1.144100000000094
167,60,0.5,0.0625,-35.0,-1,1.0,0.3812999999998965
168,60,0.5,0.0625,35.0,1,1.0,0.47129999999981464
169,60,0.5,0.0,35.0,-1,0.0,1.1265999999999394
170,60,0.5,0.25,35.0,1,1.0,0.4936000000000149
171,60,0.5,0.0,-35.0,1,0.0,0.21439999999995507
172,60,0.5,0.125,-35.0,-1,1.0,0.3973999999998341
173,60,0.5,0.125,35.0,1,1.0,0.31749999999999545
174,60,0.5,0.0,-35.0,-1,1.0,1.4242999999999029
175,60,0.5,0.125,35.0,1,1.0,0.306699999999978
176,60,0.5,0.25,35.0,1,1.0,0.43279999999992924
177,60,0.5,0.0625,35.0,1,1.0,0.3853999999998905
178,60,0.5,1.0,35.0,1,1.0,0.24689999999986867
179,60,0.5,0.0625,35.0,1,1.0,0.33749999999997726
180,60,0.5,0.125,35.0,1,1.0,0.34799999999995634
181,60,0.5,0.0625,-35.0,1,0.0,0.2759999999999536
182,60,0.5,0.125,-35.0,-1,1.0,0.342899999999986
183,60,0.5,1.0,35.0,1,1.0,0.36969999999996617
184,60,0.5,0.125,35.0,1,1.0,0.5827999999999065
185,60,0.5,0.0625,-35.0,-1,1.0,0.549199999999928
186,60,0.5,0.125,-35.0,-1,1.0,0.7053999999999405
187,60,0.5,0.0,35.0,1,1.0,0.2665999999999258
188,60,0.5,1.0,35.0,1,1.0,0.2919999999999163
189,60,0.5,0.25,-35.0,-1,1.0,0.3290000000000646
190,60,0.5,0.0625,35.0,1,1.0,0.36370000000010805
191,60,0.5,0.25,-35.0,-1,1.0,0.41639999999995325
192,60,0.5,0.25,35.0,1,1.0,0.746599999999944
193,60,0.5,0.25,-35.0,-1,1.0,0.2880999999999858
194,60,0.5,0.25,35.0,1,1.0,0.19719999999995252
195,60,0.5,0.25,-35.0,-1,1.0,0.4031999999999698
196,60,0.5,0.0625,35.0,1,1.0,0.2857000000000198
197,60,0.5,0.125,-35.0,-1,1.0,0.3149999999999409
198,60,0.5,0.125,35.0,1,1.0,0.26490000000001146
199,60,0.5,1.0,35.0,1,1.0,0.25909999999987576
200,60,0.5,1.0,35.0,1,1.0,0.29720000000008895
201,60,0.5,0.125,-35.0,-1,1.0,0.32969999999988886
202,60,0.5,0.25,-35.0,-1,1.0,0.35410000000001673
203,60,0.5,0.125,35.0,1,1.0,0.43240000000002965
204,60,0.5,0.0625,35.0,1,1.0,0.5052999999999201
205,60,0.5,1.0,-35.0,-1,1.0,0.2624999999999318
206,60,0.5,0.0625,-35.0,-1,1.0,0.43269999999995434
207,60,0.5,0.0625,35.0,1,1.0,3.6289999999999054
208,60,0.5,0.0625,35.0,1,1.0,0.692899999999895
209,60,0.5,1.0,35.0,1,1.0,0.38839999999993324
210,60,0.5,0.0,35.0,1,1.0,0.1555999999999358
211,60,0.5,0.0,35.0,1,1.0,0.147199999999998
212,60,0.5,0.0625,35.0,1,1.0,0.3161999999999807
213,60,0.5,0.0625,35.0,1,1.0,0.504799999999932
214,60,0.5,0.25,-35.0,1,0.0,0.13839999999993324
215,60,0.8,0.25,-35.0,-1,1.0,1.0236999999999625
216,60,0.5,1.0,-35.0,-1,1.0,0.20859999999993306
217,60,0.5,0.0625,-35.0,1,0.0,0.14619999999990796
218,60,0.5,0.125,-35.0,1,0.0,1.5089999999999009
219,60,0.5,0.0,35.0,1,1.0,6.268299999999954
220,60,0.5,0.125,35.0,1,1.0,0.6307999999999083
221,60,0.5,0.25,35.0,1,1.0,0.2747999999999138
222,60,0.5,0.25,-35.0,-1,1.0,0.35159999999996217
223,60,0.5,0.125,35.0,1,1.0,0.19729999999992742
224,60,0.5,0.25,-35.0,-1,1.0,0.2867999999998574
225,60,0.5,0.25,-35.0,-1,1.0,0.3310999999998785
226,60,0.5,0.0,35.0,1,1.0,0.49889999999993506
227,60,0.5,0.0625,-35.0,1,0.0,0.1794999999999618
228,60,0.5,0.125,35.0,1,1.0,0.5588999999998805
229,60,0.5,0.0,-35.0,1,0.0,0.1774999999998954
230,60,0.7,0.0,-35.0,1,0.0,1.3420999999999594
231,60,0.5,1.0,-35.0,-1,1.0,0.34219999999993433
232,60,0.5,0.125,-35.0,-1,1.0,0.3249999999999318
233,60,0.5,0.0,-35.0,-1,1.0,1.275700000000029
234,60,0.5,0.25,35.0,1,1.0,0.48099999999999454
235,60,0.5,1.0,35.0,1,1.0,0.4151999999999134
236,60,0.5,1.0,-35.0,-1,1.0,0.26499999999998636
237,60,0.5,0.125,35.0,1,1.0,0.17429999999990287
238,60,0.5,1.0,35.0,1,1.0,0.17409999999995307
239,60,0.5,1.0,35.0,1,1.0,0.893799999999942
240,60,0.5,1.0,-35.0,-1,1.0,0.2880999999999858
241,60,0.5,0.125,35.0,1,1.0,0.19289999999989504
242,60,0.5,0.25,-35.0,-1,1.0,0.37369999999998527
243,60,0.5,0.0625,-35.0,1,0.0,0.5831999999999198
244,60,0.5,0.0625,-35.0,1,0.0,0.9772999999999001
245,60,0.5,0.0625,-35.0,-1,1.0,0.38840000000004693
246,60,0.5,0.0625,35.0,-1,0.0,3.9932999999999765
247,60,0.6,0.0625,35.0,1,1.0,2.066298999999958
248,60,0.5,1.0,-35.0,-1,1.0,0.28530000000000655
249,60,0.5,0.0,35.0,1,1.0,1.0539999999999736
250,60,0.5,0.0,-35.0,1,0.0,0.2906999999999016
251,60,0.5,0.0,-35.0,1,0.0,5.244899999999916
252,60,0.5,0.25,35.0,1,1.0,1.120900000000006
253,60,0.5,0.0625,35.0,1,1.0,0.3384999999999536
254,60,0.5,0.0625,35.0,1,1.0,0.18439999999998236
255,60,0.5,0.25,-35.0,-1,1.0,0.3917999999998756
256,60,0.5,0.125,-35.0,-1,1.0,0.3444999999999254
257,60,0.5,1.0,35.0,1,1.0,0.23509999999987485
258,60,0.5,0.25,35.0,1,1.0,0.44489999999996144
259,60,0.5,0.0625,35.0,1,1.0,1.831899999999905
260,60,0.5,0.0,35.0,1,1.0,0.14859999999976026
261,60,0.5,0.0625,-35.0,1,0.0,0.28099999999994907
262,60,0.5,0.0,-35.0,1,0.0,1.7354999999997744
263,60,0.5,0.125,-35.0,-1,1.0,1.9014999999999418
264,60,0.5,1.0,35.0,1,1.0,0.48900000000003274
265,60,0.5,0.0625,35.0,1,1.0,2.9646000000000186
266,60,0.5,0.125,35.0,1,1.0,0.42909999999983484
267,60,0.5,0.125,-35.0,-1,1.0,0.5080999999997857
268,60,0.5,0.0625,-35.0,1,0.0,0.16579999999999018
269,60,0.8,0.0625,35.0,1,1.0,2.358199999999897
270,60,0.5,1.0,-35.0,-1,1.0,0.2960000000000491
271,60,0.5,0.0,35.0,1,1.0,0.21829999999999927
272,60,0.5,0.125,35.0,1,1.0,0.5494999999998527
273,60,0.5,0.0,35.0,1,1.0,0.27510000000006585
274,60,0.5,0.25,-35.0,-1,1.0,0.2760999999998148
275,60,0.5,1.0,35.0,1,1.0,0.14189999999985048
276,60,0.5,0.0625,35.0,1,1.0,0.5329999999999018
277,60,0.5,0.0625,-35.0,-1,1.0,0.5685000000000855
278,60,0.5,0.0625,35.0,1,1.0,0.3295999999998003
279,60,0.5,0.0,-35.0,1,0.0,0.13599999999996726
280,60,0.5,0.125,-35.0,1,0.0,2.3631000000000313
281,60,0.8,0.125,-35.0,-1,1.0,0.27539999999999054
282,60,0.5,1.0,-35.0,-1,1.0,0.47659999999996217
283,60,0.5,0.0625,35.0,1,1.0,0.5325999999997748
284,60,0.5,0.125,-35.0,1,0.0,0.5066999999999098
285,60,0.5,0.25,35.0,1,1.0,3.0758999999998196
286,60,0.5,1.0,35.0,1,1.0,0.8402000000000953
287,60,0.5,1.0,-35.0,-1,1.0,0.2961999999999989
288,60,0.5,1.0,35.0,1,1.0,0.3570999999999458
289,60,0.5,1.0,-35.0,-1,1.0,0.24329999999986285
290,60,0.5,0.25,35.0,1,1.0,1.1105000000000018
291,60,0.5,0.0625,35.0,1,1.0,0.6126000000001568
292,60,0.5,1.0,35.0,1,1.0,0.2536999999999807
293,60,0.5,0.25,-35.0,-1,1.0,0.5362999999999829
294,60,0.5,1.0,35.0,1,1.0,0.25729999999998654
295,60,0.5,0.0625,35.0,1,1.0,0.373299999999972
296,60,0.5,0.25,35.0,1,1.0,0.5372999999999593
297,60,0.5,1.0,-35.0,-1,1.0,0.35369999999988977
298,60,0.5,0.0625,35.0,1,1.0,1.070600000000013
299,60,0.5,0.125,-35.0,1,0.0,0.8971999999998843
300,60,0.5,0.0625,-35.0,1,0.0,1.2974999999999
301,60,0.8,0.0625,-35.0,1,0.0,0.5196000000000822
302,60,0.5,1.0,-35.0,-1,1.0,0.4442999999998847
303,60,0.5,0.0625,35.0,1,1.0,1.1801000000000386
304,60,0.5,0.0625,-35.0,-1,1.0,10.504500000000007
305,60,0.5,0.25,-35.0,-1,1.0,0.3204000000000633
306,60,0.5,1.0,35.0,1,1.0,0.6512999999997646
307,60,0.5,0.25,-35.0,-1,1.0,0.4906999999998334
308,60,0.5,0.25,-35.0,-1,1.0,0.8579999999999472
309,60,0.5,0.125,35.0,-1,0.0,6.707599999999957
310,60,0.5,0.125,35.0,1,1.0,2.401600000000144
311,60,0.5,0.125,-35.0,-1,1.0,0.9638999999999669
312,60,0.5,0.125,35.0,1,1.0,0.5682999999999083
313,60,0.5,0.0625,-35.0,1,0.0,3.6539999999999964
314,60,0.5,0.125,35.0,1,1.0,6.2085000000001855
315,60,0.5,0.125,-35.0,-1,1.0,2.9473999999997886
316,60,0.5,0.0625,35.0,1,1.0,0.23539999999979955
317,60,0.5,0.0625,35.0,1,1.0,0.5141999999998461
318,60,0.5,0.25,-35.0,-1,1.0,0.3555999999998676
319,60,0.5,1.0,-35.0,-1,1.0,0.3079999999999927
320,60,0.5,0.25,35.0,1,1.0,1.1389999999998963
321,60,0.5,1.0,35.0,1,1.0,0.3482000000001335
322,60,0.5,0.25,35.0,1,1.0,0.2921999999998661
323,60,0.5,0.0,-35.0,1,0.0,0.511199999999917
324,60,0.5,0.125,35.0,1,1.0,0.37249999999994543
325,60,0.5,0.125,-35.0,-1,1.0,0.715099999999893
326,60,0.5,0.0,-35.0,-1,1.0,0.18249999999989086
327,60,0.5,0.0,35.0,1,1.0,0.15189999999984138
328,60,0.5,0.25,-35.0,-1,1.0,0.30589999999983775
329,60,0.5,0.0,35.0,1,1.0,2.6283999999998287
330,60,0.5,0.0625,35.0,1,1.0,0.38619999999991705
331,60,0.5,0.0,-35.0,1,0.0,0.7752000000000407
332,60,0.5,0.25,35.0,1,1.0,4.442800000000034
333,60,0.5,1.0,-35.0,-1,1.0,0.3527999999998883
334,60,0.5,0.25,35.0,1,1.0,1.0097000000000662
335,60,0.5,0.125,35.0,1,1.0,1.701899999999796
336,60,0.5,0.25,-35.0,-1,1.0,0.4398000000001048
337,60,0.5,1.0,-35.0,-1,1.0,0.4796000000001186
338,60,0.5,0.25,-35.0,-1,1.0,0.4133999999999105
339,60,0.5,0.125,35.0,1,1.0,0.3523999999999887
340,60,0.5,0.0625,-35.0,1,0.0,0.6465999999998076
341,60,0.5,0.25,35.0,1,1.0,5.792300000000068
342,60,0.5,0.125,35.0,1,1.0,2.0400999999999385
343,60,0.5,1.0,-35.0,-1,1.0,0.5124000000000706
344,60,0.5,0.0625,35.0,-1,0.0,1.1669999999999163
345,60,0.5,0.0625,-35.0,1,0.0,1.3894999999999982
346,60,0.5,1.0,-35.0,-1,1.0,11.553699999999935
347,60,0.5,0.125,35.0,1,1.0,7.676500000000033
348,60,0.5,0.0625,35.0,1,1.0,1.1774000000000342
349,60,0.5,0.125,-35.0,1,0.0,2.039700000000039
350,60,0.5,0.125,35.0,-1,0.0,6.1542000000001735
351,60,0.5,0.25,-35.0,-1,1.0,4.10329999999999
352,60,0.5,0.0,-35.0,1,0.0,2.9378999999998996
353,60,0.5,0.25,35.0,1,1.0,0.840099999999893
354,60,0.5,0.125,-35.0,-1,1.0,0.5579000000000178
355,60,0.5,0.125,-35.0,1,0.0,2.0908999999999196
356,60,0.6,0.125,35.0,1,1.0,2.8849999999997635
357,60,0.5,1.0,-35.0,-1,1.0,0.9337000000000444
358,60,0.5,0.125,35.0,1,1.0,6.688200000000052
359,60,0.5,0.0625,35.0,1,1.0,32.4045000000001
360,60,0.5,0.125,-35.0,-1,1.0,2.155499999999847
361,60,0.5,0.125,35.0,1,1.0,1.9282999999998083
362,60,0.5,0.25,35.0,1,1.0,0.718900000000076
363,60,0.5,1.0,-35.0,-1,1.0,0.5751999999999953
364,60,0.5,0.0625,-35.0,1,0.0,3.1358000000000175
365,60,0.5,0.25,-35.0,-1,1.0,0.5718999999999141
366,60,0.5,0.125,-35.0,1,0.0,3.652499999999918
367,60,0.5,0.125,-35.0,1,0.0,12.398599999999988
368,60,0.5,0.125,-35.0,-1,1.0,20.029600000000073
369,60,0.5,1.0,-35.0,-1,1.0,0.32930000000010295
370,60,0.5,1.0,35.0,1,1.0,1.3065999999998894
371,60,0.5,1.0,35.0,1,1.0,2.6289999999999054
372,60,0.5,0.0625,35.0,-1,0.0,3.8634000000001834
373,60,0.5,0.25,35.0,1,1.0,2.4528999999997723
374,60,0.5,0.25,35.0,-1,0.0,5.396799999999757
375,60,0.5,0.25,35.0,1,1.0,9.612900000000081
376,60,0.5,1.0,35.0,1,1.0,0.6571999999998752
377,60,0.5,0.25,-35.0,-1,1.0,3.5962999999999283
378,60,0.5,0.125,-35.0,-1,1.0,2.9706999999998516
379,60,0.5,1.0,35.0,1,1.0,1.2699999999999818
380,60,0.5,0.25,-35.0,-1,1.0,0.6475000000000364
381,60,0.5,0.25,-35.0,-1,1.0,3.2363000000000284
382,60,0.5,0.125,35.0,-1,0.0,6.997699999999895
383,60,0.5,0.25,-35.0,-1,1.0,0.40000000000009095
384,60,0.5,0.125,35.0,1,1.0,25.648200000000088
385,60,0.5,1.0,-35.0,-1,1.0,0.41399999999998727
386,60,0.5,1.0,-35.0,-1,1.0,0.625
387,60,0.5,0.25,35.0,1,1.0,0.20049999999991996
388,60,0.5,0.125,35.0,1,1.0,7.3284000000001015
389,60,0.5,1.0,35.0,1,1.0,1.3805999999999585
390,60,0.5,0.125,35.0,1,1.0,2.1086000000002514
391,60,0.5,1.0,35.0,1,1.0,0.9214999999999236
392,60,0.5,1.0,35.0,1,1.0,8.465000000000146
393,60,0.5,0.25,-35.0,-1,1.0,0.3788999999999305
394,60,0.5,0.125,35.0,1,1.0,18.267599999999902
395,60,0.5,1.0,-35.0,-1,1.0,3.6058999999997923
396,60,0.5,0.0,-35.0,1,0.0,1.9214999999999236
397,60,0.5,0.125,35.0,-1,0.0,5.742799999999988
398,60,0.5,0.125,35.0,1,1.0,2.5018000000002303
399,60,0.5,0.125,35.0,1,1.0,13.016399999999976
400,60,0.5,0.0,-35.0,1,0.0,21.60850000000005
401,60,0.5,0.25,-35.0,-1,1.0,3.1602000000000317
402,60,0.5,0.25,35.0,1,1.0,8.895700000000033
403,60,0.5,0.25,-35.0,-1,1.0,0.5904000000000451
404,60,0.5,0.25,35.0,1,1.0,4.37319999999977
405,60,0.5,0.0625,35.0,-1,0.0,2.017199999999775
406,60,0.5,0.0625,35.0,1,1.0,5.39409999999998
407,60,0.5,0.125,-35.0,-1,1.0,6.574100000000044
408,60,0.5,1.0,35.0,1,1.0,3.5863999999999123
409,60,0.5,0.0,-35.0,1,0.0,9.50449999999978
410,60,0.5,0.25,-35.0,1,0.0,14.554499999999962
411,60,0.5,0.25,35.0,1,1.0,10.848099999999704
412,60,0.5,0.125,-35.0,1,0.0,40.80060000000003
1,61,0.5,0.0,-35.0,-1,1.0,2.9961
2,61,0.5,0.125,35.0,1,1.0,2.5527000000000015
3,61,0.5,0.0625,35.0,1,1.0,2.392598999999999
4,61,0.5,0.0625,35.0,1,1.0,6.773198999999998
5,61,0.5,1.0,-35.0,-1,1.0,0.3323999999999998
6,61,0.5,1.0,35.0,1,1.0,1.7161000000000044
7,61,0.5,0.125,-35.0,-1,1.0,0.4259000000000057
8,61,0.5,0.25,35.0,1,1.0,0.3969989999999939
9,61,0.5,0.0625,35.0,-1,0.0,0.6251999999999995
10,61,0.5,0.125,35.0,1,1.0,0.8002000000000038
11,61,0.5,0.125,35.0,1,1.0,2.514598999999997
12,61,0.5,0.125,35.0,1,1.0,1.2640999999999991
13,61,0.5,0.125,-35.0,-1,1.0,0.37749900000000025
14,61,0.5,0.0625,35.0,1,1.0,2.4994999999999976
15,61,0.5,0.0625,35.0,1,1.0,1.0568990000000014
16,61,0.5,0.125,35.0,1,1.0,0.4077999999999946
17,61,0.5,0.25,35.0,1,1.0,0.34729999999998995
18,61,0.5,0.125,-35.0,1,0.0,1.3944989999999962
19,61,0.8,0.125,35.0,1,1.0,0.8564999999999969
20,61,0.5,1.0,-35.0,-1,1.0,0.3027000000000015
21,61,0.5,1.0,35.0,1,1.0,0.3229989999999958
22,61,0.5,0.125,35.0,1,1.0,2.668099000000012
23,61,0.5,0.25,-35.0,-1,1.0,0.6953000000000031
24,61,0.5,1.0,35.0,-1,0.0,1.7432999999999907
25,61,0.5,0.0,-35.0,1,0.0,7.886400000000009
26,61,0.5,0.125,-35.0,-1,1.0,0.5747999999999962
27,61,0.5,0.0625,35.0,1,1.0,1.9793999999999983
28,61,0.5,0.0625,35.0,1,1.0,2.3751989999999807
29,61,0.5,1.0,35.0,1,1.0,0.42019899999999666
30,61,0.5,0.0625,-35.0,-1,1.0,0.4495000000000289
31,61,0.5,0.125,35.0,1,1.0,0.3388000000000204
32,61,0.5,0.25,35.0,1,1.0,0.42149999999998045
33,61,0.5,0.125,35.0,1,1.0,0.9844999999999686
34,61,0.5,0.125,35.0,1,1.0,1.0736000000000274
35,61,0.5,0.25,-35.0,-1,1.0,0.23539900000002945
36,61,0.5,0.0625,-35.0,-1,1.0,0.34770000000003165
37,61,0.5,1.0,-35.0,-1,1.0,0.19039900000001353
38,61,0.5,0.125,35.0,-1,0.0,1.303200000000004
39,61,0.5,0.25,35.0,1,1.0,0.3634999999999877
40,61,0.5,0.0625,35.0,-1,0.0,2.180298999999991
41,61,0.5,0.25,35.0,1,1.0,0.20019999999996685
42,61,0.5,0.0625,35.0,1,1.0,0.3639000000000294
43,61,0.5,1.0,35.0,1,1.0,0.255800000000022
44,61,0.5,0.25,35.0,1,1.0,0.45750000000001023
45,61,0.5,0.125,-35.0,-1,1.0,0.2757000000000005
46,61,0.5,0.125,-35.0,-1,1.0,0.3389999999999702
47,61,0.5,1.0,-35.0,-1,1.0,0.19369999999997844
48,61,0.5,0.25,-35.0,-1,1.0,0.27599999999998204
49,61,0.5,0.125,-35.0,-1,1.0,0.2806989999999985
50,61,0.5,0.25,35.0,-1,0.0,0.4747000000000128
51,61,0.5,0.125,-35.0,-1,1.0,0.3544989999999757
52,61,0.5,0.0625,35.0,1,1.0,2.8411000000000115
53,61,0.5,1.0,-35.0,-1,1.0,0.27780000000001337
54,61,0.5,0.125,35.0,1,1.0,0.5502989999999954
55,61,0.5,0.0,35.0,-1,0.0,0.5043990000000065
56,61,0.5,0.0625,35.0,1,1.0,0.43079999999997654
57,61,0.5,0.25,35.0,1,1.0,1.7552000000000305
58,61,0.5,0.0,-35.0,1,0.0,0.1333999999999662
59,61,0.5,0.125,-35.0,-1,1.0,0.3568989999999985
60,61,0.5,1.0,35.0,1,1.0,0.25919900000005214
61,61,0.5,0.125,-35.0,-1,1.0,0.2853990000000124
62,61,0.5,0.125,-35.0,-1,1.0,0.3935999999999922
63,61,0.5,0.125,35.0,1,1.0,0.9733999999999696
64,61,0.5,0.0625,-35.0,1,0.0,1.3959990000000175
65,61,0.5,0.125,35.0,1,1.0,0.6327999999999747
66,61,0.5,1.0,-35.0,-1,1.0,0.27229900000003227
67,61,0.5,0.25,35.0,1,1.0,0.7754000000000474
68,61,0.5,0.25,35.0,1,1.0,0.37400000000002365
69,61,0.5,1.0,-35.0,1,0.0,0.12129999999996244
70,61,0.5,0.125,35.0,-1,0.0,0.4951990000000137
71,61,0.5,0.125,-35.0,-1,1.0,0.29199999999997317
72,61,0.5,0.0625,-35.0,-1,1.0,0.3506990000000201
73,61,0.5,0.125,-35.0,-1,1.0,2.1106000000000336
74,61,0.5,1.0,35.0,1,1.0,0.3385989999999879
75,61,0.5,0.0,35.0,-1,0.0,1.5273000000000252
76,61,0.5,0.0,35.0,1,1.0,1.6511990000000196
77,61,0.5,1.0,35.0,1,1.0,0.5328999999999837
78,61,0.5,0.0625,35.0,1,1.0,1.3301999999999907
79,61,0.5,0.25,35.0,-1,0.0,1.3768990000000372
80,61,0.5,0.0,35.0,1,1.0,8.859900000000039
81,61,0.5,0.125,-35.0,1,0.0,1.114500000000021
82,61,0.6,0.125,35.0,1,1.0,2.9510989999999993
83,61,0.5,1.0,-35.0,-1,1.0,0.3219999999999459
84,61,0.5,0.25,35.0,1,1.0,0.3386990000000196
85,61,0.5,1.0,35.0,1,1.0,0.553999000000033
86,61,0.5,0.25,35.0,1,1.0,0.6566990000000033
87,61,0.5,0.25,35.0,1,1.0,0.6865000000000805
88,61,0.5,1.0,-35.0,-1,1.0,0.33770000000004075
89,61,0.5,0.0,35.0,-1,0.0,2.0652990000000386
90,61,0.5,0.25,35.0,1,1.0,1.179598999999996
91,61,0.5,1.0,-35.0,-1,1.0,0.25600000000002865
92,61,0.5,1.0,35.0,1,1.0,0.36159900000001244
93,61,0.5,0.0625,35.0,1,1.0,0.4486989999999764
94,61,0.5,0.25,-35.0,-1,1.0,0.3331999999999766
95,61,0.5,0.25,35.0,1,1.0,0.7939000000000078
96,61,0.5,1.0,-35.0,-1,1.0,0.11869999999998981
97,61,0.5,0.25,35.0,-1,0.0,0.13239900000007765
98,61,0.5,0.0625,35.0,1,1.0,2.4967000000000326
99,61,0.5,1.0,-35.0,-1,1.0,0.2347000000000321
100,61,0.5,0.125,-35.0,-1,1.0,0.5339000000000738
101,61,0.5,0.0625,-35.0,-1,1.0,0.3890989999999874
102,61,0.5,0.0625,-35.0,-1,1.0,0.2857999999999947
103,61,0.5,0.25,35.0,1,1.0,0.29669900000004645
104,61,0.5,0.0625,35.0,-1,0.0,0.6320990000000393
105,61,0.5,0.0625,35.0,1,1.0,0.5856990000000337
106,61,0.5,0.0625,35.0,1,1.0,0.4808999999999628
107,61,0.5,0.0625,-35.0,-1,1.0,0.259900000000016
108,61,0.5,0.125,-35.0,1,0.0,3.9167999999999665
109,61,0.5,0.25,-35.0,-1,1.0,0.3482999999999947
110,61,0.5,0.125,-35.0,-1,1.0,0.3519000000000574
111,61,0.5,0.125,35.0,1,1.0,0.33889900000002626
112,61,0.5,0.0625,-35.0,-1,1.0,0.2643990000000258
113,61,0.5,0.25,-35.0,-1,1.0,0.31070000000005393
114,61,0.5,0.25,-35.0,-1,1.0,0.32139899999998534
115,61,0.5,0.0625,35.0,-1,0.0,0.18549900000004982
116,61,0.5,0.125,-35.0,-1,1.0,3.601999000000035
117,61,0.5,0.0,35.0,-1,0.0,0.8292990000000486
118,61,0.5,0.25,-35.0,-1,1.0,0.39259900000001835
119,61,0.5,0.25,35.0,1,1.0,0.4130990000000452
120,61,0.5,0.25,-35.0,-1,1.0,0.24719900000002326
121,61,0.5,0.0625,-35.0,1,0.0,1.647199999999998
122,61,0.5,0.125,-35.0,-1,1.0,0.27749900000003436
123,61,0.5,0.125,-35.0,-1,1.0,0.25579900000002453
124,61,0.5,0.0,35.0,-1,0.0,1.0225990000000138
125,61,0.5,0.25,35.0,1,1.0,0.7291989999998805
126,61,0.5,1.0,-35.0,-1,1.0,0.3114989999999125
127,61,0.5,1.0,-35.0,-1,1.0,0.35289899999986574
128,61,0.5,0.125,-35.0,-1,1.0,0.6154000000000224
129,61,0.5,1.0,35.0,1,1.0,0.385599999999954
130,61,0.5,0.125,-35.0,-1,1.0,2.538400000000024
131,61,0.5,0.125,35.0,1,1.0,1.8702999999999292
132,61,0.5,0.0625,-35.0,1,0.0,0.9103999999999814
133,61,0.5,0.0625,-35.0,-1,1.0,2.6344990000000053
134,61,0.5,0.125,-35.0,-1,1.0,0.33419900000001235
135,61,0.5,1.0,-35.0,-1,1.0,0.24959899999998925
136,61,0.5,1.0,-35.0,-1,1.0,0.3189989999999625
137,61,0.5,1.0,35.0,1,1.0,0.7581000000000131
138,61,0.5,1.0,35.0,1,1.0,0.541898999999944
139,61,0.5,0.0625,-35.0,-1,1.0,0.30719999999996617
140,61,0.5,0.0,35.0,1,1.0,1.2086989999999105
141,61,0.5,0.125,35.0,1,1.0,0.7986999999999398
142,61,0.5,0.0625,-35.0,1,0.0,0.75750000000005
143,61,0.5,0.125,35.0,1,1.0,0.9036989999999605
144,61,0.5,0.25,-35.0,-1,1.0,0.3007000000000062
145,61,0.5,1.0,35.0,1,1.0,0.3655989999999747
146,61,0.5,0.0625,-35.0,-1,1.0,1.2750989999999547
147,61,0.5,0.125,35.0,1,1.0,0.407799999999952
148,61,0.5,0.0625,35.0,1,1.0,0.16079899999999725
149,61,0.5,0.125,-35.0,-1,1.0,0.2780999999998812
150,61,0.5,1.0,-35.0,-1,1.0,0.2569989999999507
151,61,0.5,1.0,35.0,1,1.0,0.3176989999999478
152,61,0.5,0.25,-35.0,-1,1.0,0.4740989999999101
153,61,0.5,0.25,35.0,1,1.0,0.2867999999999711
154,61,0.5,0.25,-35.0,-1,1.0,0.26509999999996126
155,61,0.5,0.0625,-35.0,-1,1.0,0.09739999999999327
156,61,0.5,0.125,-35.0,-1,1.0,0.29919999999992797
157,61,0.5,1.0,35.0,1,1.0,0.29009899999994104
158,61,0.5,0.0,35.0,-1,0.0,0.456098999999881
159,61,0.5,0.0625,35.0,-1,0.0,2.253198999999995
160,61,0.5,0.0625,35.0,-1,0.0,0.5884989999999561
161,61,0.5,0.0625,-35.0,-1,1.0,0.33730000000002747
162,61,0.5,0.125,-35.0,-1,1.0,0.2910989999999174
163,61,0.5,0.0,35.0,-1,0.0,0.2744999999999891
164,61,0.5,0.0625,35.0,1,1.0,0.693300000000022
165,61,0.5,0.125,-35.0,1,0.0,2.2419989999999643
166,61,0.5,0.0,35.0,1,1.0,1.5137999999999465
167,61,0.5,1.0,35.0,1,1.0,0.35619900000006055
168,61,0.5,0.0625,-35.0,-1,1.0,0.32019999999988613
169,61,0.5,0.125,-35.0,-1,1.0,0.35029899999994996
170,61,0.5,0.125,35.0,1,1.0,0.3123990000000276
171,61,0.5,0.25,-35.0,-1,1.0,0.2740999999999758
172,61,0.5,0.125,35.0,1,1.0,0.3432989999998881
173,61,0.5,0.125,-35.0,-1,1.0,0.29979900000000725
174,61,0.5,0.0,35.0,1,1.0,0.45859999999993306
175,61,0.5,0.25,35.0,1,1.0,0.407999000000018
176,61,0.5,0.25,35.0,1,1.0,0.3564000000000078
177,61,0.5,1.0,35.0,-1,0.0,1.486498999999867
