trial_num,session_num,stim_probability_left,contrast,position,response_choice,trial_correct,reaction_time
1,1,0.5,0.125,-35.0,-1,1.0,28.0881
2,1,0.5,1.0,-35.0,-1,1.0,8.5994
3,1,0.5,0.0625,35.0,1,1.0,0.6052999999999997
4,1,0.5,0.25,-35.0,-1,1.0,0.24139999999999873
5,1,0.5,0.0625,35.0,1,1.0,3.3892000000000024
6,1,0.5,0.0625,-35.0,-1,1.0,0.30929999999999325
7,1,0.5,1.0,35.0,1,1.0,0.23270000000000834
8,1,0.5,1.0,35.0,1,1.0,0.20529999999999404
9,1,0.5,1.0,-35.0,-1,1.0,0.23109999999998365
10,1,0.5,1.0,35.0,1,1.0,0.1775999999999982
11,1,0.5,0.25,35.0,1,1.0,0.24860000000001037
12,1,0.5,0.25,35.0,1,1.0,0.38339999999999463
13,1,0.5,1.0,-35.0,-1,1.0,0.19269999999998788
14,1,0.5,0.25,-35.0,-1,1.0,0.6330999999999847
15,1,0.5,0.125,-35.0,-1,1.0,0.8466999999999985
16,1,0.5,0.25,-35.0,-1,1.0,0.2073000000000036
17,1,0.5,0.0625,-35.0,1,0.0,4.344799999999964
18,1,0.5,0.25,-35.0,-1,1.0,0.20299999999997453
19,1,0.5,0.25,-35.0,-1,1.0,0.616500000000002
20,1,0.5,0.125,-35.0,-1,1.0,0.8140999999999963
21,1,0.5,1.0,-35.0,-1,1.0,0.1921999999999855
22,1,0.5,0.25,-35.0,-1,1.0,0.1932999999999936
23,1,0.5,1.0,-35.0,-1,1.0,0.18070000000000164
24,1,0.5,0.0625,35.0,1,1.0,2.6324000000000183
25,1,0.5,0.25,35.0,1,1.0,0.5387000000000057
26,1,0.5,0.25,35.0,1,1.0,0.4960999999999842
27,1,0.5,0.25,35.0,1,1.0,0.4637000000000171
28,1,0.5,0.125,35.0,1,1.0,0.2542999999999722
29,1,0.5,0.125,35.0,1,1.0,0.22180000000000177
30,1,0.5,0.0,-35.0,1,0.0,49.780699999999996
31,1,0.5,0.125,-35.0,-1,1.0,0.3258000000000152
32,1,0.5,0.0625,-35.0,-1,1.0,0.27240000000000464
33,1,0.5,0.25,-35.0,-1,1.0,0.1745999999999981
34,1,0.5,1.0,-35.0,-1,1.0,0.2121999999999673
35,1,0.5,0.0625,35.0,-1,0.0,0.18949999999998113
36,1,0.5,0.0625,35.0,-1,0.0,0.40630000000001587
37,1,0.5,0.0625,35.0,-1,0.0,0.1880999999999915
38,1,0.5,0.0,-35.0,1,0.0,0.14799999999999613
39,1,0.5,1.0,-35.0,-1,1.0,3.6414000000000044
40,1,0.5,1.0,-35.0,-1,1.0,0.5732000000000426
41,1,0.5,0.125,-35.0,-1,1.0,0.44399999999996
42,1,0.5,0.0625,35.0,1,1.0,5.662500000000023
43,1,0.5,0.125,35.0,1,1.0,0.2548999999999637
44,1,0.5,1.0,35.0,1,1.0,0.20050000000003365
45,1,0.5,0.0625,-35.0,-1,1.0,0.18780000000003838
46,1,0.5,0.0,-35.0,1,0.0,8.98580000000004
47,1,0.5,0.0,-35.0,-1,1.0,0.2248000000000161
48,1,0.5,0.125,35.0,1,1.0,0.352800000000002
49,1,0.5,0.25,35.0,1,1.0,0.266900000000021
50,1,0.5,0.25,-35.0,-1,1.0,0.28040000000004284
51,1,0.5,0.125,35.0,-1,0.0,0.18690000000009377
52,1,0.5,0.25,-35.0,-1,1.0,0.18890000000004648
53,1,0.5,0.0,-35.0,1,0.0,3.6336000000000013
54,1,0.5,0.0625,35.0,-1,0.0,0.6697000000000344
55,1,0.5,0.25,35.0,-1,0.0,0.14879999999999427
56,1,0.5,0.125,-35.0,-1,1.0,0.20470000000000255
57,1,0.5,0.0625,35.0,1,1.0,0.26290000000005875
58,1,0.5,1.0,-35.0,-1,1.0,0.1903000000000361
59,1,0.5,1.0,-35.0,-1,1.0,0.2264000000000692
60,1,0.5,0.0625,35.0,-1,0.0,2.1493000000000393
61,1,0.5,0.125,-35.0,-1,1.0,0.16440000000000055
62,1,0.5,0.25,35.0,1,1.0,0.29340000000001965
63,1,0.5,1.0,35.0,1,1.0,0.3480000000000132
64,1,0.5,0.25,-35.0,-1,1.0,0.30049999999999955
65,1,0.5,1.0,35.0,1,1.0,0.5831000000000586
66,1,0.5,0.25,-35.0,-1,1.0,0.179300000000012
67,1,0.5,0.25,35.0,1,1.0,0.6931000000000722
68,1,0.5,1.0,-35.0,-1,1.0,0.2043000000000461
69,1,0.5,0.0625,35.0,-1,0.0,0.47630000000003747
70,1,0.5,0.0,35.0,-1,0.0,0.1681000000000381
71,1,0.5,0.25,35.0,1,1.0,0.2736000000000445
72,1,0.5,1.0,-35.0,-1,1.0,0.1574000000000524
73,1,0.5,0.125,-35.0,-1,1.0,0.227800000000002
74,1,0.5,0.0625,-35.0,1,0.0,13.578300000000013
75,1,0.5,1.0,-35.0,-1,1.0,0.20990000000006148
76,1,0.5,0.125,35.0,-1,0.0,0.17169999999998709
77,1,0.5,1.0,35.0,1,1.0,0.16830000000004475
78,1,0.5,1.0,-35.0,-1,1.0,0.18240000000002965
79,1,0.5,0.25,35.0,1,1.0,0.2655000000000314
80,1,0.5,0.25,-35.0,-1,1.0,0.24730000000005248
81,1,0.5,0.0,-35.0,1,0.0,17.662600000000054
82,1,0.5,0.0625,-35.0,1,0.0,17.331300000000056
83,1,0.5,0.25,35.0,1,1.0,0.35060000000004266
84,1,0.5,1.0,-35.0,-1,1.0,0.17080000000004247
85,1,0.5,1.0,-35.0,-1,1.0,0.2048000000000343
86,1,0.5,0.125,-35.0,-1,1.0,0.5471999999999753
87,1,0.5,0.0625,-35.0,-1,1.0,8.155700000000024
88,1,0.5,0.0625,-35.0,-1,1.0,0.6411000000000513
89,1,0.5,0.0625,35.0,-1,0.0,0.088799999999992
90,1,0.5,0.25,-35.0,-1,1.0,1.271000000000015
91,1,0.2,0.25,-35.0,-1,1.0,0.2785999999999831
92,1,0.2,0.25,35.0,1,1.0,0.5836000000000467
93,1,0.2,0.0625,-35.0,-1,1.0,0.2977000000000203
94,1,0.2,0.0625,-35.0,-1,1.0,0.7831000000000472
95,1,0.2,0.125,35.0,1,1.0,0.35950000000002547
96,1,0.2,0.0625,35.0,-1,0.0,2.210800000000006
97,1,0.2,0.0625,35.0,-1,0.0,0.37030000000004293
98,1,0.2,0.25,-35.0,-1,1.0,0.1966000000000463
99,1,0.2,0.0625,35.0,1,1.0,0.5023000000000479
100,1,0.2,0.25,35.0,1,1.0,0.2954000000000292
101,1,0.2,1.0,35.0,1,1.0,0.5151000000000181
102,1,0.2,1.0,35.0,1,1.0,0.41380000000003747
103,1,0.2,1.0,35.0,1,1.0,0.7986000000000217
104,1,0.2,0.0,35.0,1,1.0,32.19560000000001
105,1,0.2,0.0625,35.0,1,1.0,2.6485000000000127
106,1,0.2,0.0625,35.0,1,1.0,1.5818000000000438
107,1,0.2,0.25,35.0,1,1.0,0.2884000000000242
108,1,0.2,0.125,35.0,1,1.0,1.2906999999999016
109,1,0.2,0.25,35.0,1,1.0,1.0622999999999365
110,1,0.2,0.25,-35.0,-1,1.0,0.2866999999999962
111,1,0.2,0.0,35.0,1,1.0,26.43880000000013
112,1,0.2,0.0625,35.0,1,1.0,0.245900000000006
113,1,0.2,1.0,-35.0,-1,1.0,0.27900000000011005
114,1,0.2,0.25,35.0,1,1.0,0.17430000000001655
115,1,0.2,0.0625,-35.0,-1,1.0,5.296100000000138
116,1,0.2,0.0625,35.0,1,1.0,0.6354999999999791
117,1,0.2,0.125,35.0,1,1.0,0.9975000000000591
118,1,0.2,0.125,35.0,1,1.0,1.4562000000000808
119,1,0.2,0.25,-35.0,-1,1.0,0.5929000000000997
120,1,0.2,1.0,35.0,1,1.0,0.5629999999999882
121,1,0.2,1.0,35.0,1,1.0,0.35200000000008913
122,1,0.2,1.0,-35.0,-1,1.0,0.26670000000001437
123,1,0.8,0.0625,35.0,1,1.0,3.1335000000000264
124,1,0.8,0.0,35.0,1,1.0,18.19850000000008
125,1,0.8,1.0,35.0,1,1.0,0.21050000000002456
126,1,0.8,0.125,-35.0,-1,1.0,0.30989999999997053
127,1,0.8,0.0,-35.0,1,0.0,11.191599999999994
128,1,0.8,0.125,-35.0,-1,1.0,1.0975000000000819
129,1,0.8,0.125,35.0,1,1.0,0.9338999999999942
130,1,0.8,0.0625,-35.0,-1,1.0,0.4419000000000324
131,1,0.8,0.0625,-35.0,1,0.0,16.17730000000006
132,1,0.8,0.125,-35.0,-1,1.0,0.21330000000000382
133,1,0.8,0.25,-35.0,-1,1.0,0.21199999999998909
134,1,0.8,0.25,-35.0,-1,1.0,0.27870000000007167
135,1,0.8,1.0,-35.0,-1,1.0,0.18200000000001637
136,1,0.8,0.125,-35.0,-1,1.0,5.081100000000106
137,1,0.8,0.0,-35.0,-1,1.0,0.5068990000000895
138,1,0.8,0.25,-35.0,-1,1.0,0.24630000000001928
139,1,0.8,0.125,-35.0,-1,1.0,0.2417000000001508
140,1,0.8,0.125,-35.0,-1,1.0,0.21739999999999782
141,1,0.8,0.25,35.0,1,1.0,0.8568000000000211
142,1,0.8,0.125,-35.0,-1,1.0,0.21680000000003474
143,1,0.8,1.0,-35.0,-1,1.0,0.24470000000007985
144,1,0.8,0.0,-35.0,1,0.0,23.64020000000005
145,1,0.8,0.25,-35.0,-1,1.0,0.315900000000056
146,1,0.8,1.0,35.0,1,1.0,0.5877000000000407
147,1,0.8,0.0,35.0,-1,0.0,0.7463999999999942
148,1,0.8,1.0,-35.0,-1,1.0,0.26309999999989486
149,1,0.8,1.0,-35.0,-1,1.0,0.23509999999998854
150,1,0.8,1.0,-35.0,-1,1.0,0.20080000000007203
151,1,0.8,0.0625,-35.0,-1,1.0,0.7372000000000298
152,1,0.8,1.0,-35.0,-1,1.0,0.18830000000002656
153,1,0.8,0.25,-35.0,-1,1.0,0.4821000000000595
154,1,0.8,1.0,35.0,1,1.0,0.28300000000001546
155,1,0.8,1.0,-35.0,-1,1.0,0.21010000000012496
156,1,0.8,1.0,-35.0,-1,1.0,0.2257000000000744
157,1,0.8,0.25,-35.0,-1,1.0,0.5102000000000544
158,1,0.8,1.0,35.0,1,1.0,0.3279000000001133
159,1,0.8,0.25,-35.0,-1,1.0,0.2039999999999509
160,1,0.8,0.125,35.0,-1,0.0,1.8390000000000555
161,1,0.8,0.25,35.0,1,1.0,0.680699999999888
162,1,0.8,0.0625,-35.0,1,0.0,20.514099999999985
163,1,0.8,0.0625,-35.0,-1,1.0,0.17280000000005202
164,1,0.8,0.25,-35.0,-1,1.0,0.2078999999998814
165,1,0.8,0.125,-35.0,-1,1.0,0.5375000000000227
166,1,0.8,0.0,-35.0,-1,1.0,0.5115999999999303
167,1,0.8,1.0,-35.0,-1,1.0,0.18560000000013588
168,1,0.8,1.0,-35.0,-1,1.0,0.20240000000001146
169,1,0.8,0.0,35.0,-1,0.0,0.654399999999896
170,1,0.8,0.0,35.0,-1,0.0,0.2011000000001104
171,1,0.8,0.25,-35.0,-1,1.0,0.22520000000008622
172,1,0.8,0.0,-35.0,1,0.0,22.6952
173,1,0.8,0.0625,35.0,1,1.0,11.654300000000035
174,1,0.8,0.125,-35.0,-1,1.0,0.4855999999999767
175,1,0.8,0.25,-35.0,-1,1.0,0.47820000000012897
176,1,0.8,1.0,-35.0,-1,1.0,0.18659999999999854
177,1,0.8,1.0,-35.0,-1,1.0,0.2963000000000875
178,1,0.8,0.0,35.0,1,1.0,16.634700000000066
179,1,0.8,0.125,-35.0,1,0.0,5.173800000000028
180,1,0.8,0.125,-35.0,-1,1.0,0.46020000000009986
181,1,0.8,0.25,-35.0,-1,1.0,0.6155999999999722
182,1,0.8,0.125,35.0,1,1.0,0.6852999999998701
183,1,0.8,0.125,35.0,1,1.0,0.3826999999999998
184,1,0.8,0.0,-35.0,1,0.0,0.9026999999999816
185,1,0.8,1.0,-35.0,-1,1.0,0.24310000000002674
186,1,0.8,1.0,-35.0,-1,1.0,0.20380000000011478
187,1,0.8,1.0,-35.0,-1,1.0,0.4917999999998983
188,1,0.8,0.0625,-35.0,1,0.0,12.169899999999984
189,1,0.8,0.125,-35.0,-1,1.0,0.29120000000000346
190,1,0.8,0.125,-35.0,-1,1.0,0.37550000000010186
191,1,0.8,0.0625,-35.0,1,0.0,16.680999999999926
192,1,0.8,1.0,-35.0,-1,1.0,0.27120000000002165
193,1,0.8,0.25,-35.0,-1,1.0,0.2078999999999951
194,1,0.8,0.125,-35.0,1,0.0,43.74459999999999
195,1,0.8,0.0625,-35.0,-1,1.0,0.26539999999999964
196,1,0.8,0.0625,-35.0,-1,1.0,0.4054000000000997
197,1,0.8,0.125,-35.0,-1,1.0,0.6222000000000207
198,1,0.8,0.125,-35.0,1,0.0,43.36220000000003
199,1,0.8,0.125,-35.0,-1,1.0,8.396200000000135
200,1,0.8,1.0,-35.0,-1,1.0,0.2233000000001084
201,1,0.8,0.125,35.0,1,1.0,0.6265000000000782
202,1,0.8,0.125,35.0,1,1.0,0.7500000000002274
203,1,0.8,0.25,-35.0,-1,1.0,2.7165999999999713
204,1,0.8,0.25,-35.0,-1,1.0,0.30340000000001055
205,1,0.2,0.0,35.0,-1,0.0,0.26670000000012806
206,1,0.2,0.0625,35.0,-1,0.0,0.19020000000000437
207,1,0.2,0.25,35.0,1,1.0,0.4306000000001404
208,1,0.2,0.25,35.0,1,1.0,0.5469000000000506
209,1,0.2,0.0625,35.0,1,1.0,1.0502000000001317
210,1,0.2,0.25,35.0,1,1.0,0.3270999999999731
211,1,0.2,0.0,35.0,1,1.0,0.503800000000183
212,1,0.2,1.0,-35.0,-1,1.0,0.213799999999992
213,1,0.2,0.25,-35.0,-1,1.0,0.5808999999999287
214,1,0.2,0.25,35.0,1,1.0,0.46749999999974534
215,1,0.2,0.0625,35.0,1,1.0,2.1873999999997977
216,1,0.2,0.125,35.0,1,1.0,0.6473999999998341
217,1,0.2,1.0,35.0,1,1.0,0.5710999999998876
218,1,0.2,0.0,35.0,1,1.0,0.45430000000010295
219,1,0.2,0.0,35.0,1,1.0,0.31760000000008404
220,1,0.2,0.25,35.0,1,1.0,0.6343999999999141
221,1,0.2,0.125,35.0,1,1.0,0.23090000000024702
222,1,0.2,0.0625,35.0,1,1.0,0.33130000000005566
223,1,0.2,0.25,-35.0,-1,1.0,0.22759999999993852
224,1,0.2,0.25,35.0,1,1.0,0.21440000000006876
225,1,0.2,1.0,35.0,1,1.0,0.23100000000022192
226,1,0.2,0.125,-35.0,1,0.0,19.95139999999992
227,1,0.2,1.0,35.0,1,1.0,0.4315000000001419
228,1,0.2,0.25,35.0,1,1.0,0.3949000000000069
229,1,0.2,0.25,35.0,1,1.0,0.41830000000004475
230,1,0.2,0.125,35.0,1,1.0,0.48820000000023356
231,1,0.2,1.0,-35.0,-1,1.0,0.1852000000001226
232,1,0.2,0.125,35.0,1,1.0,0.29500000000007276
233,1,0.8,0.125,-35.0,-1,1.0,0.2783999999999196
234,1,0.8,0.25,35.0,1,1.0,0.22889899999995578
235,1,0.8,0.125,-35.0,-1,1.0,0.2583999999999378
236,1,0.8,0.125,-35.0,-1,1.0,0.5553999999999633
237,1,0.8,0.0625,-35.0,-1,1.0,0.3952999999999065
238,1,0.8,0.25,-35.0,-1,1.0,0.1853000000000975
239,1,0.8,0.125,35.0,1,1.0,0.5190000000000055
240,1,0.8,0.0625,35.0,-1,0.0,0.33870000000024447
241,1,0.8,0.25,-35.0,1,0.0,34.635499999999865
242,1,0.8,1.0,-35.0,-1,1.0,0.18610000000012406
243,1,0.8,1.0,-35.0,-1,1.0,0.35950000000025284
244,1,0.8,0.0625,-35.0,-1,1.0,0.4096999999999298
245,1,0.8,0.0625,35.0,-1,0.0,0.76949999999988
246,1,0.8,0.125,35.0,-1,0.0,0.27299999999991087
247,1,0.8,0.25,-35.0,-1,1.0,0.20630000000005566
248,1,0.8,0.0,-35.0,1,0.0,53.739700000000084
249,1,0.8,0.25,-35.0,-1,1.0,0.19070000000010623
250,1,0.8,0.0625,35.0,1,1.0,8.764200000000073
251,1,0.8,0.25,35.0,1,1.0,0.4579000000001088
252,1,0.8,0.25,-35.0,-1,1.0,0.300899999999956
253,1,0.8,0.0,35.0,1,1.0,0.48109999999996944
254,1,0.8,0.25,35.0,1,1.0,0.2276000000001659
255,1,0.8,0.125,-35.0,-1,1.0,0.24459999999999127
256,1,0.8,0.125,-35.0,-1,1.0,0.2645999999999731
257,1,0.8,1.0,35.0,1,1.0,0.2116000000000895
258,1,0.8,1.0,-35.0,-1,1.0,0.23469999999997526
259,1,0.8,0.0625,-35.0,1,0.0,0.3011999999998807
260,1,0.8,0.0625,-35.0,-1,1.0,0.21139999999991232
261,1,0.8,0.25,-35.0,-1,1.0,0.23869999999988067
262,1,0.8,0.0625,-35.0,-1,1.0,0.39810000000011314
263,1,0.8,0.25,35.0,1,1.0,0.43810000000007676
264,1,0.8,0.0625,-35.0,1,0.0,0.3481000000001586
265,1,0.8,0.0625,-35.0,-1,1.0,0.17499999999995453
266,1,0.8,0.25,-35.0,-1,1.0,0.21159999999986212
267,1,0.8,1.0,-35.0,-1,1.0,0.19840000000021973
268,1,0.8,0.0,-35.0,-1,1.0,0.2783999999999196
269,1,0.8,0.125,-35.0,-1,1.0,0.20849900000030175
270,1,0.8,1.0,-35.0,-1,1.0,0.18880000000012842
271,1,0.8,0.125,35.0,-1,0.0,0.17519999999990432
272,1,0.8,0.125,-35.0,-1,1.0,0.23850000000015825
273,1,0.8,0.125,-35.0,-1,1.0,0.20539999999982683
274,1,0.8,1.0,35.0,1,1.0,0.22540000000003602
275,1,0.8,0.25,-35.0,-1,1.0,0.0886000000000422
276,1,0.8,0.125,-35.0,-1,1.0,0.22870000000011714
277,1,0.8,0.125,-35.0,-1,1.0,0.9988000000000739
278,1,0.8,1.0,-35.0,-1,1.0,0.28530000000000655
279,1,0.8,0.125,-35.0,-1,1.0,0.42210000000022774
280,1,0.8,0.125,-35.0,-1,1.0,0.5687999999997828
281,1,0.8,0.125,-35.0,-1,1.0,0.21220000000016626
282,1,0.8,0.25,-35.0,-1,1.0,0.5022000000001299
283,1,0.8,0.125,-35.0,-1,1.0,0.31219999999984793
284,1,0.8,0.125,-35.0,-1,1.0,0.4056000000000495
285,1,0.8,0.25,35.0,1,1.0,0.4290000000000873
286,1,0.8,1.0,-35.0,-1,1.0,0.15919999999982792
287,1,0.8,0.125,-35.0,-1,1.0,0.3893989999999121
288,1,0.8,0.125,-35.0,-1,1.0,0.24610000000029686
289,1,0.8,0.0625,35.0,-1,0.0,0.6294000000000324
290,1,0.8,0.125,-35.0,-1,1.0,0.17610000000013315
291,1,0.8,0.0625,35.0,-1,0.0,0.6597000000001572
292,1,0.8,0.0625,-35.0,-1,1.0,0.1793999999999869
293,1,0.8,0.0,-35.0,-1,1.0,0.19659999999998945
294,1,0.8,0.0625,35.0,1,1.0,8.946300000000065
295,1,0.8,1.0,35.0,1,1.0,0.48319999999989705
296,1,0.8,1.0,-35.0,-1,1.0,0.17980000000011387
297,1,0.8,0.0,35.0,1,1.0,14.036600000000135
298,1,0.8,0.125,35.0,1,1.0,0.5800000000001546
299,1,0.8,0.125,-35.0,-1,1.0,0.22690000000011423
300,1,0.8,1.0,-35.0,-1,1.0,0.2339999999999236
301,1,0.8,0.25,35.0,1,1.0,0.39390000000003056
302,1,0.8,0.0,-35.0,-1,1.0,0.4371000000001004
303,1,0.8,0.25,-35.0,-1,1.0,0.19050000000015643
304,1,0.8,0.125,-35.0,-1,1.0,0.20029999999997017
305,1,0.8,0.0625,-35.0,1,0.0,35.547199999999975
306,1,0.8,0.25,-35.0,-1,1.0,0.20770000000015898
307,1,0.2,1.0,35.0,1,1.0,0.48440000000005057
308,1,0.2,0.125,35.0,-1,0.0,0.36429999999995744
309,1,0.2,0.25,35.0,1,1.0,0.2848999999998796
310,1,0.2,0.125,35.0,1,1.0,0.5881999999999152
311,1,0.2,0.25,-35.0,-1,1.0,0.2580000000000382
312,1,0.2,0.0625,35.0,1,1.0,0.8812000000000353
313,1,0.2,0.0625,-35.0,-1,1.0,0.17809999999985848
314,1,0.2,0.0,-35.0,-1,1.0,0.18140000000016698
315,1,0.2,0.0625,-35.0,-1,1.0,0.6680999999998676
316,1,0.2,1.0,35.0,1,1.0,0.27500000000009095
317,1,0.2,0.25,-35.0,-1,1.0,0.2154000000000451
318,1,0.2,0.0625,35.0,-1,0.0,0.5652999999999793
319,1,0.2,0.25,35.0,1,1.0,0.4451000000001386
320,1,0.2,0.25,35.0,1,1.0,0.35540000000014516
321,1,0.2,0.0625,-35.0,1,0.0,39.28839999999991
322,1,0.2,0.125,-35.0,-1,1.0,0.16240000000016153
323,1,0.2,0.0,35.0,-1,0.0,0.2057999999999538
324,1,0.2,0.0625,35.0,1,1.0,0.6192000000000917
325,1,0.2,1.0,35.0,1,1.0,0.34590000000002874
326,1,0.2,0.0,35.0,1,1.0,48.78590000000008
327,1,0.2,0.25,-35.0,-1,1.0,0.20710000000008222
328,1,0.2,0.125,35.0,-1,0.0,0.19020000000000437
329,1,0.2,1.0,35.0,1,1.0,0.4136000000000877
330,1,0.2,0.0625,35.0,-1,0.0,0.47709999999983665
331,1,0.2,0.0,-0.0,0,0.0,59.94360000000006
332,1,0.2,0.125,35.0,1,1.0,1.0544999999999618
333,1,0.2,0.25,35.0,1,1.0,0.17180000000007567
334,1,0.2,0.125,35.0,1,1.0,0.5681999999999334
335,1,0.2,0.25,-35.0,-1,1.0,0.2415000000000873
336,1,0.2,0.25,-35.0,-1,1.0,0.3550000000000182
337,1,0.2,0.25,-35.0,-1,1.0,0.2416000000000622
338,1,0.2,0.0,35.0,1,1.0,23.064799999999877
339,1,0.2,0.25,35.0,1,1.0,0.3419000000003507
340,1,0.2,0.0,35.0,1,1.0,0.6220999999998185
341,1,0.2,0.25,-35.0,-1,1.0,0.2520999999999276
342,1,0.2,0.0,-35.0,1,0.0,0.9186999999999443
343,1,0.2,0.125,-35.0,-1,1.0,0.18229999999994106
344,1,0.2,0.25,35.0,1,1.0,0.4655999999999949
345,1,0.2,0.0625,35.0,-1,0.0,0.31560000000013133
346,1,0.8,0.0,-35.0,1,0.0,0.5224000000000615
347,1,0.8,1.0,-35.0,-1,1.0,0.19910000000004402
348,1,0.8,0.25,-35.0,-1,1.0,0.35570000000006985
349,1,0.8,0.0625,35.0,-1,0.0,0.3125000000002274
350,1,0.8,0.0,35.0,-1,0.0,0.4592000000002372
351,1,0.8,0.125,-35.0,-1,1.0,0.2358999999999014
352,1,0.8,0.0625,-35.0,-1,1.0,0.27930000000014843
353,1,0.8,1.0,-35.0,-1,1.0,0.18280000000004293
354,1,0.8,0.0625,-35.0,-1,1.0,0.4460999999998876
355,1,0.8,0.0625,-35.0,-1,1.0,0.30950000000007094
356,1,0.8,0.0625,-35.0,-1,1.0,0.18620000000009895
357,1,0.8,0.0,-35.0,-1,1.0,1.1429000000000542
358,1,0.8,0.0625,-35.0,-1,1.0,0.22630000000003747
359,1,0.8,0.0625,-35.0,-1,1.0,0.17630000000008295
360,1,0.8,1.0,35.0,1,1.0,0.22969999999986612
361,1,0.8,0.125,-35.0,-1,1.0,0.2297000000000935
362,1,0.8,1.0,-35.0,-1,1.0,0.26309999999989486
363,1,0.8,0.0625,35.0,1,1.0,27.756500000000187
364,1,0.8,0.25,35.0,1,1.0,0.6303000000000338
365,1,0.8,0.25,-35.0,-1,1.0,0.23710000000005493
366,1,0.8,0.25,-35.0,-1,1.0,0.19039999999995416
367,1,0.8,0.0625,-35.0,-1,1.0,0.1938000000000102
368,1,0.8,0.125,-35.0,-1,1.0,0.377100000000155
369,1,0.8,0.0,-35.0,-1,1.0,0.25720000000001164
370,1,0.8,0.125,35.0,-1,0.0,0.21060000000011314
371,1,0.8,0.0625,-35.0,-1,1.0,0.1773000000000593
372,1,0.8,0.0625,-35.0,-1,1.0,0.4073000000000775
373,1,0.8,0.0,-35.0,-1,1.0,0.39400000000000546
374,1,0.8,0.25,-35.0,-1,1.0,0.3406999999999698
375,1,0.8,1.0,-35.0,-1,1.0,0.320699999999988
376,1,0.8,0.25,-35.0,-1,1.0,0.19090000000005602
377,1,0.8,0.25,-35.0,-1,1.0,0.527599999999893
378,1,0.8,1.0,35.0,1,1.0,0.4575999999999567
379,1,0.8,0.25,-35.0,-1,1.0,0.22769999999991342
380,1,0.8,0.0,-35.0,-1,1.0,0.421100000000024
381,1,0.8,0.25,-35.0,-1,1.0,0.1876999999999498
382,1,0.8,0.125,-35.0,-1,1.0,0.2211000000002059
383,1,0.8,1.0,-35.0,-1,1.0,0.09120000000007167
384,1,0.8,0.125,-35.0,-1,1.0,0.20450000000028012
385,1,0.8,0.25,-35.0,-1,1.0,0.20460000000002765
386,1,0.8,0.0625,-35.0,-1,1.0,0.514699999999948
387,1,0.8,0.25,35.0,-1,0.0,0.5747000000001208
388,1,0.8,0.0,-35.0,-1,1.0,0.25479999999993197
389,1,0.8,1.0,-35.0,-1,1.0,0.1713999999999487
390,1,0.8,1.0,-35.0,-1,1.0,0.1613999999999578
391,1,0.8,0.25,-35.0,-1,1.0,0.23489999999992506
392,1,0.8,1.0,-35.0,-1,1.0,0.23490000000015243
393,1,0.8,1.0,-35.0,-1,1.0,0.41489999999976135
394,1,0.8,1.0,-35.0,-1,1.0,0.16829999999981737
395,1,0.8,0.0,35.0,-1,0.0,0.5183999999999287
396,1,0.8,1.0,-35.0,-1,1.0,0.17179999999962092
397,1,0.8,0.125,35.0,1,1.0,0.6117999999996755
398,1,0.8,0.25,-35.0,-1,1.0,0.2085999999994783
399,1,0.2,1.0,35.0,1,1.0,0.24859999999944193
400,1,0.2,0.0,-35.0,1,0.0,14.268599999999878
401,1,0.2,0.0,35.0,-1,0.0,0.2122999999996864
402,1,0.2,0.0625,35.0,1,1.0,24.935598999999456
403,1,0.2,1.0,35.0,1,1.0,0.25270000000000437
404,1,0.2,1.0,35.0,1,1.0,0.289499999999407
405,1,0.2,0.0625,35.0,1,1.0,0.46949999999969805
406,1,0.2,0.125,35.0,1,1.0,0.2828999999996995
407,1,0.2,0.25,35.0,1,1.0,0.3796999999995023
408,1,0.2,0.25,-35.0,-1,1.0,0.276299999999992
409,1,0.2,1.0,35.0,1,1.0,0.37969999999995707
410,1,0.2,0.25,35.0,1,1.0,0.4430999999995038
411,1,0.2,0.125,35.0,-1,0.0,0.23309999999992215
412,1,0.2,1.0,35.0,1,1.0,0.21649999999954161
413,1,0.2,0.0,35.0,1,1.0,0.7032999999996719
414,1,0.2,0.0,-35.0,1,0.0,0.7031999999994696
415,1,0.2,0.25,35.0,1,1.0,0.23669999999992797
416,1,0.2,0.125,35.0,1,1.0,0.2266999999997097
417,1,0.2,0.0625,35.0,1,1.0,1.4067999999997483
418,1,0.2,0.25,-35.0,-1,1.0,0.240099999999984
419,1,0.2,0.25,35.0,1,1.0,0.46359999999958745
420,1,0.2,0.0,35.0,1,1.0,11.676899999999478
421,1,0.2,0.0625,35.0,0,0.0,59.960599999999886
422,1,0.2,1.0,35.0,1,1.0,21.978299999999308
423,1,0.2,1.0,35.0,1,1.0,13.915399999999408
424,1,0.2,1.0,35.0,1,1.0,14.115700000000288
425,1,0.2,0.25,35.0,1,1.0,0.5925999999999476
426,1,0.2,0.125,-35.0,-1,1.0,0.8225999999999658
427,1,0.2,1.0,35.0,1,1.0,0.22269999999980428
428,1,0.2,0.125,35.0,-1,0.0,0.2660999999998239
429,1,0.2,1.0,35.0,1,1.0,0.45279999999957
430,1,0.2,1.0,35.0,1,1.0,0.35950000000002547
431,1,0.2,0.125,35.0,-1,0.0,0.3994999999999891
432,1,0.2,0.0625,-35.0,-1,1.0,0.7395999999998821
433,1,0.2,0.25,35.0,1,1.0,0.49299999999993815
434,1,0.2,1.0,35.0,1,1.0,0.27309999999988577
435,1,0.2,0.125,35.0,1,1.0,0.9564999999997781
436,1,0.2,0.125,35.0,1,1.0,7.663199999999961
437,1,0.2,1.0,35.0,1,1.0,0.22009999999954744
438,1,0.2,1.0,35.0,1,1.0,0.3801000000003114
439,1,0.2,0.25,35.0,1,1.0,0.35669999999981883
440,1,0.2,1.0,35.0,1,1.0,0.5434999999997672
441,1,0.2,0.0,35.0,1,1.0,17.98339999999962
442,1,0.2,0.125,35.0,1,1.0,0.70049999999992
443,1,0.2,0.0,-35.0,1,0.0,0.8671999999996842
444,1,0.2,1.0,35.0,1,1.0,1.1473000000000866
445,1,0.2,0.0625,35.0,1,1.0,0.4239999999995234
446,1,0.2,0.125,35.0,1,1.0,0.4173999999998159
447,1,0.2,1.0,35.0,1,1.0,0.2807999999999993
448,1,0.2,0.0625,35.0,-1,0.0,0.24749999999994543
449,1,0.2,1.0,35.0,1,1.0,0.4242999999996755
450,1,0.2,0.0625,-35.0,1,0.0,0.3109999999996944
451,1,0.2,0.0625,-35.0,-1,1.0,0.16439999999965949
452,1,0.2,0.25,35.0,1,1.0,0.26429999999936626
453,1,0.2,0.25,35.0,1,1.0,0.6044000000001688
454,1,0.2,0.0,-0.0,0,0.0,59.94450000000006
455,1,0.2,0.0,35.0,-1,0.0,20.478999999999814
456,1,0.2,0.125,35.0,1,1.0,0.7958999999996195
457,1,0.2,1.0,35.0,1,1.0,0.2760000000002947
458,1,0.2,1.0,35.0,1,1.0,0.4726999999998043
459,1,0.2,0.25,35.0,1,1.0,0.5160000000000764
460,1,0.2,0.125,35.0,1,1.0,45.33279999999968
461,1,0.2,0.125,35.0,1,1.0,2.2368999999998778
462,1,0.2,1.0,35.0,-1,0.0,0.15029999999978827
463,1,0.2,1.0,-35.0,-1,1.0,0.20029999999997017
464,1,0.2,0.25,35.0,1,1.0,0.26710000000002765
465,1,0.2,0.125,35.0,1,1.0,0.4371000000001004
466,1,0.2,1.0,35.0,1,1.0,0.33710000000019136
467,1,0.2,0.0,35.0,-1,0.0,0.22380000000021028
468,1,0.2,0.125,35.0,1,1.0,0.4072000000001026
469,1,0.2,0.125,35.0,1,1.0,0.6473000000000866
470,1,0.2,0.0625,35.0,1,1.0,0.33399999999983265
471,1,0.2,0.125,-35.0,1,0.0,0.5541000000002896
472,1,0.2,0.0625,35.0,1,1.0,1.387499999999818
473,1,0.2,0.125,35.0,-1,0.0,0.6241999999992913
474,1,0.2,0.25,35.0,1,1.0,0.45089999999981956
475,1,0.2,0.0625,35.0,1,1.0,12.017699999999877
476,1,0.2,1.0,35.0,1,1.0,0.42129999999951906
477,1,0.2,0.125,35.0,1,1.0,0.45789999999942665
478,1,0.2,1.0,-35.0,-1,1.0,0.23799999999982901
479,1,0.2,0.0,35.0,1,1.0,19.90139999999974
480,1,0.2,0.0625,35.0,1,1.0,14.308399999999438
481,1,0.2,0.125,35.0,1,1.0,0.4120999999995547
482,1,0.2,1.0,35.0,1,1.0,0.23539999999957217
483,1,0.2,0.0625,35.0,1,1.0,2.9153999999994085
484,1,0.2,0.25,35.0,1,1.0,0.23889999999983047
485,1,0.2,0.0625,35.0,1,1.0,0.6422999999999774
486,1,0.2,0.0625,35.0,1,1.0,0.5589999999997417
487,1,0.2,0.0625,35.0,1,1.0,30.148999999999887
488,1,0.2,0.25,35.0,1,1.0,0.2227999999995518
489,1,0.2,0.25,-35.0,-1,1.0,0.3395999999997912
490,1,0.2,0.25,35.0,1,1.0,0.26299999999991996
491,1,0.2,0.0,35.0,-1,0.0,0.4796999999994114
492,1,0.2,0.25,-35.0,-1,1.0,0.29979999999977736
493,1,0.8,1.0,-35.0,-1,1.0,0.23309999999992215
494,1,0.8,0.0,-35.0,1,0.0,13.579799999999977
495,1,0.8,0.125,-35.0,-1,1.0,0.47679999999991196
496,1,0.8,0.25,-35.0,-1,1.0,0.4135000000001128
497,1,0.8,0.125,35.0,-1,0.0,0.38020000000005894
498,1,0.8,0.25,35.0,1,1.0,0.3135999999994965
499,1,0.8,0.125,-35.0,-1,1.0,0.27700000000004366
500,1,0.8,1.0,-35.0,-1,1.0,0.19039999999995416
501,1,0.8,0.0625,-35.0,-1,1.0,0.5870999999997366
502,1,0.8,0.25,-35.0,-1,1.0,0.20709999999962747
503,1,0.8,0.125,-35.0,-1,1.0,0.1938000000000102
504,1,0.8,0.0625,35.0,-1,0.0,3.3304999999995744
505,1,0.8,1.0,-35.0,-1,1.0,0.2039999999997235
506,1,0.8,0.125,35.0,-1,0.0,0.38069999999970605
507,1,0.8,0.0,-35.0,-1,1.0,0.4074000000000524
508,1,0.8,0.125,-35.0,-1,1.0,0.2141999999998916
509,1,0.8,0.25,-35.0,-1,1.0,0.22419999999965512
510,1,0.8,1.0,-35.0,-1,1.0,0.1841999999996915
511,1,0.8,1.0,-35.0,-1,1.0,0.1742999999996755
512,1,0.8,1.0,-35.0,-1,1.0,0.1876999999999498
513,1,0.8,1.0,-35.0,-1,1.0,0.21769999999969514
514,1,0.2,0.0,-35.0,-1,1.0,0.3544999999999163
515,1,0.2,0.125,35.0,1,1.0,0.8677999999999884
516,1,0.2,0.25,35.0,1,1.0,0.5047999999997046
517,1,0.2,0.125,35.0,-1,0.0,0.18159999999943466
518,1,0.2,0.25,35.0,1,1.0,0.5046999999995023
519,1,0.2,0.25,35.0,1,1.0,0.2685999999998785
520,1,0.2,0.125,35.0,1,1.0,0.3617000000003827
521,1,0.2,0.0,35.0,-1,0.0,0.5351999999998043
522,1,0.2,0.0625,-35.0,-1,1.0,0.8317010000000664
523,1,0.2,0.25,35.0,1,1.0,0.45500099999981103
524,1,0.2,0.125,35.0,-1,0.0,0.2518009999998867
525,1,0.2,0.125,35.0,1,1.0,0.2951010000001588
526,1,0.2,1.0,35.0,1,1.0,0.18900099999927988
527,1,0.2,1.0,-35.0,-1,1.0,0.22540100000014718
528,1,0.2,0.0,35.0,1,1.0,0.4453009999997448
529,1,0.2,1.0,35.0,1,1.0,0.3391009999995731
530,1,0.2,0.0625,35.0,1,1.0,1.3192009999997936
531,1,0.2,1.0,-35.0,-1,1.0,0.21540100000038365
532,1,0.2,0.25,35.0,1,1.0,0.35550100000000384
533,1,0.2,0.0,35.0,1,1.0,0.3390009999998256
534,1,0.2,1.0,35.0,1,1.0,0.4857010000000628
535,1,0.2,1.0,35.0,1,1.0,0.16900099999975282
536,1,0.2,0.0,35.0,1,1.0,7.2924009999997
537,1,0.2,0.0625,35.0,1,1.0,0.24620099999992817
538,1,0.2,0.25,35.0,1,1.0,0.49930099999983213
539,1,0.8,1.0,-35.0,-1,1.0,0.23940099999981612
540,1,0.8,0.125,-35.0,-1,1.0,0.26930099999981394
541,1,0.8,0.0,-35.0,-1,1.0,0.5260009999997237
542,1,0.8,1.0,35.0,1,1.0,0.6929009999998925
543,1,0.8,0.25,-35.0,-1,1.0,0.19630099999994854
544,1,0.8,0.0,-35.0,-1,1.0,0.506300999999894
545,1,0.8,0.25,-35.0,-1,1.0,0.1930009999991853
546,1,0.8,0.25,-35.0,-1,1.0,0.17300100000011298
547,1,0.8,1.0,35.0,1,1.0,0.28650100000004386
548,1,0.8,1.0,-35.0,-1,1.0,0.21970099999998638
549,1,0.8,0.125,35.0,-1,0.0,0.5964010000002418
550,1,0.8,0.25,-35.0,-1,1.0,0.18330099999957383
551,1,0.8,1.0,-35.0,-1,1.0,0.19670099999984814
552,1,0.8,0.0,-35.0,1,0.0,16.140000999999756
553,1,0.8,0.0625,-35.0,-1,1.0,0.4706009999995331
554,1,0.8,0.0,-35.0,-1,1.0,0.2871009999994385
555,1,0.8,0.0,35.0,-1,0.0,0.42040099999985614
556,1,0.8,0.0,-35.0,1,0.0,0.617200999999568
557,1,0.8,0.0625,35.0,-1,0.0,0.2741009999999733
558,1,0.8,0.0625,-35.0,-1,1.0,0.21390100000007806
559,1,0.8,0.125,-35.0,-1,1.0,0.27390099999956874
560,1,0.8,0.0625,35.0,-1,0.0,0.8774009999997361
561,1,0.8,0.125,-35.0,-1,1.0,0.24420099999997547
562,1,0.8,0.125,-35.0,-1,1.0,0.22410099999979138
563,1,0.8,0.0625,-35.0,-1,1.0,0.2275009999998474
564,1,0.8,0.25,-35.0,-1,1.0,0.1812009999998736
565,1,0.8,1.0,35.0,1,1.0,0.2843009999996866
566,1,0.8,0.0625,-35.0,-1,1.0,0.218000999999731
567,1,0.8,1.0,-35.0,-1,1.0,0.20430099999975937
568,1,0.8,0.25,-35.0,-1,1.0,0.21440099999972517
569,1,0.8,0.125,-35.0,-1,1.0,0.22780099999954473
570,1,0.8,0.125,35.0,-1,0.0,0.16790099999980157
571,1,0.8,1.0,-35.0,-1,1.0,0.19800099999974918
572,1,0.8,1.0,35.0,1,1.0,0.4113009999996393
573,1,0.8,0.125,-35.0,-1,1.0,0.227900999999747
574,1,0.8,0.0625,-35.0,-1,1.0,0.20790100000021994
575,1,0.8,1.0,-35.0,-1,1.0,0.18800099999998565
576,1,0.8,0.0,-35.0,-1,1.0,0.9448010000000977
577,1,0.8,1.0,-35.0,-1,1.0,0.20470099999965896
578,1,0.8,1.0,-35.0,-1,1.0,0.18810099999973318
579,1,0.8,0.0,-35.0,-1,1.0,0.26490100000000893
580,1,0.8,0.125,-35.0,-1,1.0,0.2150010000000293
581,1,0.8,0.0625,35.0,-1,0.0,0.15500099999962913
582,1,0.8,0.0625,-35.0,-1,1.0,0.20190099999990707
583,1,0.8,0.0625,35.0,-1,0.0,0.2084009999994123
584,1,0.8,0.0,-35.0,-1,1.0,0.2285009999995964
585,1,0.8,1.0,-35.0,-1,1.0,0.1957009999996444
586,1,0.8,0.125,-35.0,-1,1.0,0.16870099999960075
587,1,0.8,0.0625,-35.0,-1,1.0,0.5023009999995338
588,1,0.8,0.0625,-35.0,-1,1.0,0.21540099999947415
589,1,0.8,1.0,-35.0,-1,1.0,0.13880100000005768
590,1,0.8,0.0,-35.0,-1,1.0,0.3988009999998212
591,1,0.8,0.0625,-35.0,-1,1.0,0.3690009999995709
592,1,0.8,0.0,-35.0,-1,1.0,0.40900099999953454
593,1,0.8,0.125,-35.0,-1,1.0,0.2156009999998787
594,1,0.8,0.125,-35.0,-1,1.0,0.1790009999999711
595,1,0.8,0.25,-35.0,-1,1.0,0.2127009999994698
596,1,0.8,0.0625,-35.0,-1,1.0,0.18570099999942613
597,1,0.8,0.25,-35.0,-1,1.0,0.2758009999997739
598,1,0.2,0.0625,35.0,-1,0.0,0.18250099999977465
599,1,0.2,0.0625,35.0,-1,0.0,0.19930099999965023
600,1,0.2,0.0625,35.0,-1,0.0,0.23609999999962383
601,1,0.2,0.25,35.0,1,1.0,0.42600099999981467
602,1,0.2,1.0,35.0,1,1.0,0.23940099999981612
603,1,0.2,0.25,35.0,1,1.0,0.333100999999715
604,1,0.2,0.25,35.0,1,1.0,0.2995009999999638
605,1,0.2,0.25,-35.0,-1,1.0,0.26290100000005623
606,1,0.2,0.0,35.0,1,1.0,0.24320099999977174
607,1,0.2,0.0625,35.0,-1,0.0,0.256300999999894
608,1,0.2,0.125,35.0,1,1.0,0.6263009999997848
609,1,0.2,0.0625,-35.0,-1,1.0,0.3731009999996786
610,1,0.2,0.25,35.0,1,1.0,0.21980099999927916
611,1,0.2,0.125,35.0,1,1.0,0.3866010000001552
612,1,0.2,0.125,35.0,1,1.0,0.23710099999971135
613,1,0.2,0.0,35.0,-1,0.0,0.8135009999996328
614,1,0.2,0.0625,35.0,1,1.0,0.2868009999997412
615,1,0.2,0.125,35.0,1,1.0,0.3199009999998452
616,1,0.2,0.25,35.0,1,1.0,0.20010099999990416
617,1,0.2,0.0,35.0,1,1.0,0.2669009999995069
618,1,0.2,0.25,35.0,1,1.0,0.21680100000003222
619,1,0.8,0.25,35.0,1,1.0,0.6968999999999141
620,1,0.8,0.25,-35.0,-1,1.0,0.28710099999989325
621,1,0.8,0.0625,-35.0,-1,1.0,0.2870010000001457
622,1,0.8,0.0625,-35.0,1,0.0,0.3237009999993461
623,1,0.8,1.0,-35.0,-1,1.0,0.20040100000005623
624,1,0.8,0.0625,-35.0,-1,1.0,0.2338009999998576
625,1,0.8,1.0,-35.0,-1,1.0,0.1974009999998998
626,1,0.8,0.0625,-35.0,-1,1.0,0.21410100000002785
627,1,0.8,0.125,-35.0,-1,1.0,0.180800999999974
628,1,0.8,0.25,-35.0,-1,1.0,0.20410099999980957
629,1,0.8,1.0,-35.0,-1,1.0,0.16420099999959348
630,1,0.8,0.25,-35.0,-1,1.0,0.20070099999975355
631,1,0.8,0.125,35.0,-1,0.0,0.3675009999997201
632,1,0.8,1.0,-35.0,-1,1.0,0.17080099999975573
633,1,0.8,0.25,-35.0,-1,1.0,0.42440099999976155
634,1,0.8,1.0,35.0,1,1.0,0.27760099999977683
635,1,0.8,0.25,-35.0,-1,1.0,0.20110099999965314
636,1,0.8,0.25,-35.0,-1,1.0,0.23460099999965678
637,1,0.8,0.25,-35.0,-1,1.0,0.23460100000011153
638,1,0.8,0.0625,35.0,-1,0.0,0.2748009999995702
639,1,0.8,0.125,-35.0,-1,1.0,0.18120099999941885
640,1,0.8,0.0625,-35.0,-1,1.0,0.8613009999994574
641,1,0.8,0.25,-35.0,-1,1.0,0.13790099999960148
642,1,0.8,0.0,-35.0,-1,1.0,0.2014009999998052
643,1,0.8,0.125,-35.0,-1,1.0,0.17180099999995946
644,1,0.8,0.0625,-35.0,-1,1.0,0.5250009999999747
645,1,0.8,0.0,-35.0,-1,1.0,0.32790099999965605
646,1,0.2,1.0,35.0,-1,0.0,0.18840099999988524
647,1,0.2,0.25,-35.0,-1,1.0,0.2082009999994625
648,1,0.2,0.0625,35.0,-1,0.0,0.191700999999739
649,1,0.2,0.0,35.0,1,1.0,0.608400999999958
650,1,0.2,0.0,35.0,-1,0.0,0.23850099999981467
651,1,0.2,0.25,35.0,1,1.0,0.08530099999961749
652,1,0.2,0.25,35.0,1,1.0,0.33539999999993597
653,1,0.2,0.125,35.0,1,1.0,0.3286009999997077
654,1,0.2,1.0,35.0,1,1.0,0.33190099999956146
655,1,0.2,1.0,35.0,1,1.0,0.31860099999948943
656,1,0.2,0.25,35.0,1,1.0,0.32210099999974773
657,1,0.2,0.25,-35.0,-1,1.0,0.248801000000185
658,1,0.2,0.25,35.0,1,1.0,0.39230099999986123
659,1,0.2,0.0625,35.0,-1,0.0,0.3488009999996393
660,1,0.2,1.0,-35.0,-1,1.0,0.1790009999999711
661,1,0.2,0.0625,-35.0,-1,1.0,0.22250099999973827
662,1,0.2,0.0625,35.0,-1,0.0,0.3223009999996975
663,1,0.2,1.0,-35.0,-1,1.0,0.10550100000000384
664,1,0.2,0.0625,35.0,-1,0.0,0.22250100000019302
665,1,0.2,0.125,35.0,-1,0.0,0.21610099999998056
666,1,0.2,1.0,35.0,1,1.0,0.30930099999977756
667,1,0.2,0.25,35.0,1,1.0,0.4562009999995098
668,1,0.2,1.0,35.0,1,1.0,0.2995009999999638
669,1,0.2,0.0625,35.0,1,1.0,0.46280099999967206
670,1,0.2,1.0,35.0,1,1.0,0.35950099999990925
671,1,0.2,0.25,35.0,1,1.0,0.3463010000000395
672,1,0.2,1.0,35.0,1,1.0,0.31970099999989543
673,1,0.2,0.25,35.0,1,1.0,0.23970099999951344
674,1,0.2,0.0,35.0,1,1.0,0.35010099999954036
675,1,0.2,1.0,-35.0,-1,1.0,0.20650099999966187
676,1,0.2,0.0625,-35.0,-1,1.0,0.17360099999950762
677,1,0.2,0.25,-35.0,-1,1.0,0.13970100000005914
678,1,0.2,0.0625,35.0,-1,0.0,0.2167009999993752
679,1,0.2,0.125,35.0,-1,0.0,0.19020099999988815
680,1,0.2,0.0,35.0,1,1.0,9.953400999999758
681,1,0.2,0.0625,35.0,1,1.0,0.704001000000062
682,1,0.2,0.0,35.0,1,1.0,0.49360099999967133
683,1,0.2,0.0625,35.0,1,1.0,0.4338009999996757
684,1,0.2,0.125,35.0,1,1.0,0.7472009999992224
685,1,0.2,0.125,35.0,1,1.0,0.3443010000000868
686,1,0.2,0.125,35.0,1,1.0,0.3306009999996604
687,1,0.2,0.125,35.0,-1,0.0,0.24070100000017192
688,1,0.2,0.125,35.0,1,1.0,0.4405010000000402
689,1,0.2,0.125,35.0,1,1.0,0.4173009999999522
690,1,0.2,1.0,35.0,1,1.0,0.20400100000006205
691,1,0.2,1.0,35.0,1,1.0,0.3675009999997201
692,1,0.2,1.0,-35.0,-1,1.0,0.19410100000004604
693,1,0.2,1.0,35.0,1,1.0,0.17410099999960948
694,1,0.2,0.0625,35.0,1,1.0,0.17080099999975573
695,1,0.2,0.0625,35.0,1,1.0,1.0577009999997244
696,1,0.2,0.125,-35.0,-1,1.0,0.2110010000001239
697,1,0.2,0.25,35.0,1,1.0,0.21450099999992744
698,1,0.2,0.25,35.0,1,1.0,0.4348009999998794
699,1,0.2,1.0,35.0,1,1.0,0.34790099999963786
700,1,0.2,0.125,35.0,1,1.0,0.4512009999998554
701,1,0.2,0.0625,-35.0,1,0.0,0.3447009999999864
702,1,0.2,0.25,35.0,1,1.0,0.2950009999995018
703,1,0.2,0.0,35.0,1,1.0,0.5514009999997143
704,1,0.2,0.125,35.0,1,1.0,0.33820099999957165
705,1,0.2,0.0625,35.0,1,1.0,0.3249009999994996
706,1,0.2,1.0,35.0,1,1.0,0.1915009999997892
707,1,0.2,0.0625,-35.0,1,0.0,0.21830099999988306
708,1,0.2,0.125,35.0,1,1.0,0.8816009999995913
709,1,0.8,0.25,-35.0,-1,1.0,0.22490099999959057
710,1,0.8,0.25,-35.0,-1,1.0,0.19510099999934027
711,1,0.8,0.0625,-35.0,-1,1.0,0.1950010000000475
712,1,0.8,1.0,-35.0,-1,1.0,0.17520100000001548
713,1,0.8,0.25,-35.0,-1,1.0,0.21870099999978265
714,1,0.8,0.0625,35.0,-1,0.0,0.17870099999981903
715,1,0.8,0.125,-35.0,-1,1.0,0.17870099999981903
716,1,0.8,0.0,35.0,-1,0.0,0.15870099999983722
717,1,0.8,0.0625,-35.0,-1,1.0,0.15200099999992744
718,1,0.8,0.25,-35.0,-1,1.0,0.1558010000003378
719,1,0.8,0.0,-35.0,-1,1.0,0.24910099999988233
720,1,0.8,0.25,-35.0,-1,1.0,0.1889009999999871
721,1,0.8,0.25,-35.0,-1,1.0,0.14900100000022576
722,1,0.8,0.25,-35.0,-1,1.0,0.18870099999958256
723,1,0.8,0.0625,-35.0,-1,1.0,0.4554009999997106
724,1,0.8,1.0,-35.0,-1,1.0,0.2022009999996044
725,1,0.8,0.25,35.0,-1,0.0,0.23220099999980448
726,1,0.8,0.25,35.0,1,1.0,0.5956009999999878
727,1,0.8,0.25,-35.0,-1,1.0,0.21570099999962622
728,1,0.8,0.0,-35.0,-1,1.0,0.23900099999946178
729,1,0.8,1.0,-35.0,-1,1.0,0.1757009999996626
730,1,0.8,0.125,-35.0,-1,1.0,0.15240099999982704
731,1,0.8,0.125,-35.0,-1,1.0,0.17580099999986487
732,1,0.8,0.25,-35.0,-1,1.0,0.2093009999998685
733,1,0.8,1.0,35.0,-1,0.0,0.18260099999952217
734,1,0.8,0.125,-35.0,-1,1.0,0.24930099999983213
735,1,0.8,0.25,-35.0,-1,1.0,0.1860009999995782
736,1,0.8,0.125,-35.0,-1,1.0,0.1994009999998525
737,1,0.8,1.0,-35.0,-1,1.0,0.196100999999544
738,1,0.8,1.0,35.0,1,1.0,0.6262009999995826
739,1,0.8,0.125,-35.0,-1,1.0,0.18950100000029124
740,1,0.8,1.0,-35.0,-1,1.0,0.4096009999998387
741,1,0.8,0.0625,-35.0,-1,1.0,0.1830009999998765
742,1,0.8,1.0,-35.0,-1,1.0,0.20630099999971208
743,1,0.8,0.25,-35.0,-1,1.0,0.1998009999997521
744,1,0.8,0.125,35.0,-1,0.0,2.273100999999315
745,1,0.8,0.0,-35.0,-1,1.0,0.2033010000000104
746,1,0.8,0.25,-35.0,-1,1.0,0.23660100000006423
747,1,0.8,1.0,-35.0,-1,1.0,0.2033010000000104
748,1,0.8,0.25,-35.0,-1,1.0,0.20670099999961167
749,1,0.8,0.125,-35.0,-1,1.0,0.1968010000000504
750,1,0.8,0.0625,-35.0,-1,1.0,0.2501009999996313
751,1,0.8,0.25,-35.0,-1,1.0,0.8069009999999253
752,1,0.8,0.0625,35.0,-1,0.0,0.17030099999965387
753,1,0.8,0.0625,-35.0,1,0.0,19.840300999999727
754,1,0.8,1.0,-35.0,-1,1.0,0.21730099999967933
755,1,0.8,0.0625,-35.0,-1,1.0,0.3373999999998887
756,1,0.8,0.25,35.0,1,1.0,0.27750099999957456
757,1,0.8,1.0,35.0,1,1.0,0.5708009999998467
758,1,0.8,1.0,35.0,1,1.0,0.37430099999983213
759,1,0.8,0.0625,-35.0,-1,1.0,0.22090099999968515
760,1,0.8,1.0,35.0,1,1.0,0.4444010000001981
761,1,0.8,1.0,-35.0,-1,1.0,0.19770099999959712
762,1,0.8,0.0625,35.0,1,1.0,14.457700999999815
763,1,0.8,0.0,-35.0,1,0.0,0.6747009999999136
764,1,0.8,0.0625,-35.0,1,0.0,7.944800999999643
765,1,0.8,0.125,-35.0,-1,1.0,0.1185009999999238
766,1,0.8,0.125,-35.0,-1,1.0,0.1750010000000657
767,1,0.8,0.25,-35.0,-1,1.0,0.21840099999963059
768,1,0.2,0.0,35.0,-1,0.0,0.48510099999975864
769,1,0.2,0.0,35.0,-1,0.0,0.20860099999981685
770,1,0.2,0.25,-35.0,-1,1.0,0.2786009999995258
771,1,0.2,1.0,35.0,1,1.0,0.2286010000002534
772,1,0.2,0.125,-35.0,-1,1.0,0.6387010000003102
773,1,0.2,0.0625,35.0,-1,0.0,0.48870099999976446
774,1,0.2,0.25,35.0,1,1.0,0.25880099999994854
775,1,0.2,0.25,-35.0,-1,1.0,0.22550099999943995
776,1,0.2,0.0625,35.0,1,1.0,4.79890099999966
777,1,0.2,1.0,35.0,1,1.0,0.21570099999962622
778,1,0.2,0.0625,35.0,-1,0.0,0.4257009999996626
779,1,0.2,0.25,-35.0,-1,1.0,0.36580099999991944
780,1,0.2,1.0,35.0,1,1.0,0.2526009999996859
781,1,0.2,0.0625,-35.0,-1,1.0,0.8258009999999558
782,1,0.2,1.0,35.0,1,1.0,0.3993009999999231
783,1,0.2,0.25,35.0,1,1.0,0.5693009999999958
784,1,0.2,0.0,35.0,-1,0.0,0.5694009999997434
785,1,0.2,0.25,35.0,1,1.0,0.4894009999998161
786,1,0.2,0.25,35.0,1,1.0,0.279500999999982
787,1,0.2,1.0,-35.0,-1,1.0,0.23300099999960366
788,1,0.2,1.0,35.0,1,1.0,0.36630099999956656
789,1,0.2,0.0,35.0,1,1.0,0.1830009999998765
790,1,0.2,0.0625,35.0,-1,0.0,0.5631009999997332
791,1,0.2,0.125,35.0,1,1.0,0.2564009999996415
792,1,0.2,1.0,35.0,1,1.0,0.21310099999982413
793,1,0.2,0.0,-35.0,1,0.0,0.30990099999962695
794,1,0.2,1.0,35.0,1,1.0,0.28660100000024613
795,1,0.2,0.125,35.0,1,1.0,0.506601000000046
796,1,0.2,0.0,35.0,1,1.0,3.196701000000303
797,1,0.2,1.0,35.0,1,1.0,0.21680100000003222
798,1,0.2,1.0,-35.0,-1,1.0,0.2935010000001057
799,1,0.2,0.125,-35.0,-1,1.0,0.2202009999996335
800,1,0.2,0.0625,35.0,-1,0.0,0.09360100000003513
801,1,0.2,0.0625,35.0,1,1.0,0.6703009999996539
802,1,0.2,0.0,35.0,1,1.0,40.47420099999954
803,1,0.2,0.125,35.0,1,1.0,0.20480099999986123
804,1,0.2,1.0,-35.0,-1,1.0,0.5880010000000766
805,1,0.2,0.25,35.0,1,1.0,0.2148010000000795
806,1,0.2,0.0625,35.0,1,1.0,0.5048009999995884
807,1,0.2,0.0625,35.0,1,1.0,0.6049009999996997
808,1,0.2,0.25,35.0,1,1.0,0.441700999999739
809,1,0.2,0.25,-35.0,-1,1.0,0.18190099999992526
810,1,0.2,1.0,-35.0,-1,1.0,0.21200099999941813
811,1,0.2,1.0,35.0,1,1.0,0.22520099999974263
812,1,0.2,0.0625,35.0,1,1.0,2.8953010000000177
813,1,0.2,1.0,-35.0,-1,1.0,0.22530099999949016
814,1,0.2,1.0,35.0,1,1.0,0.45220100000005914
815,1,0.2,0.125,35.0,1,1.0,0.4787009999995462
816,1,0.2,0.125,35.0,1,1.0,0.34230099999967933
817,1,0.2,0.0625,35.0,1,1.0,32.552300999999716
818,1,0.2,0.125,35.0,1,1.0,1.852900999999747
819,1,0.8,0.125,-35.0,-1,1.0,0.26300099999980375
820,1,0.8,0.0625,-35.0,-1,1.0,0.29310099999975137
821,1,0.8,0.125,35.0,1,1.0,0.3431009999994785
822,1,0.8,0.0,-35.0,-1,1.0,0.2496009999999842
823,1,0.8,0.125,35.0,-1,0.0,0.16970099999980448
824,1,0.8,0.0625,-35.0,-1,1.0,0.26320099999975355
825,1,0.8,1.0,-35.0,-1,1.0,0.15990099999999074
826,1,0.8,0.0,-35.0,-1,1.0,0.19340099999953964
827,1,0.8,0.0,-35.0,1,0.0,7.286700999999994
828,1,0.8,0.0625,-35.0,0,0.0,59.926900999999816
829,1,0.8,0.25,-35.0,1,0.0,19.014600999999402
830,1,0.8,1.0,-35.0,1,0.0,8.364900999999463
831,1,0.8,0.0625,-35.0,1,0.0,2.588400999999976
832,1,0.8,0.0,-35.0,1,0.0,27.871700999999575
833,1,0.8,0.125,-35.0,1,0.0,28.578800999999658
834,1,0.8,0.0,-35.0,1,0.0,4.482700999999906
835,1,0.8,0.25,-35.0,-1,1.0,0.5095009999995455
836,1,0.8,0.25,-35.0,-1,1.0,0.21620099999927334
837,1,0.8,0.0625,-35.0,1,0.0,31.143001000000368
838,1,0.8,0.25,-35.0,-1,1.0,0.4369010000000344
839,1,0.8,0.125,35.0,1,1.0,0.25360100000034436
840,1,0.8,1.0,-35.0,-1,1.0,0.21690100000068924
841,1,0.8,0.0625,-35.0,-1,1.0,0.39370099999996455
842,1,0.8,1.0,35.0,1,1.0,0.3471010000002934
843,1,0.8,1.0,-35.0,-1,1.0,0.21710100000109378
844,1,0.8,1.0,35.0,1,1.0,0.1972010000008595
845,1,0.8,0.0625,-35.0,1,0.0,5.780601000000388
846,1,0.8,1.0,-35.0,-1,1.0,0.29070100000080856
847,1,0.8,1.0,-35.0,-1,1.0,0.28750099999979284
848,1,0.8,0.125,-35.0,-1,1.0,0.7141010000004826
849,1,0.8,1.0,-35.0,-1,1.0,0.2376010000007227
850,1,0.8,0.0625,-35.0,-1,1.0,7.5676009999997405
851,1,0.8,0.0625,-35.0,-1,1.0,1.3645010000000184
852,1,0.8,0.125,35.0,-1,0.0,0.741200999999819
853,1,0.8,0.25,35.0,1,1.0,0.26130099999954837
854,1,0.8,1.0,-35.0,-1,1.0,0.22800099999949452
855,1,0.8,0.125,-35.0,-1,1.0,0.4747010000000955
856,1,0.8,1.0,-35.0,-1,1.0,0.25150099999973463
857,1,0.8,0.125,35.0,1,1.0,0.3152009999994334
858,1,0.8,0.0,-35.0,1,0.0,13.7316009999995
859,1,0.8,0.125,-35.0,1,0.0,20.738501000000724
860,1,0.8,1.0,-35.0,-1,1.0,0.63890100000026
861,1,0.8,0.0625,-35.0,1,0.0,55.19560100000035
862,1,0.8,0.0625,-35.0,1,0.0,37.24330100000043
863,1,0.8,0.0,-35.0,1,0.0,1.7442010000004302
864,1,0.8,0.25,-35.0,1,0.0,5.074000999999953
865,1,0.8,0.125,-35.0,1,0.0,7.137500999999247
866,1,0.8,0.125,-35.0,1,0.0,5.5445009999994
1,2,0.5,0.0,-35.0,1,0.0,11.391200000000001
2,2,0.5,0.0625,-35.0,-1,1.0,0.31090000000000373
3,2,0.5,0.125,-35.0,-1,1.0,0.19010000000000105
4,2,0.5,1.0,-35.0,-1,1.0,0.23200000000000287
5,2,0.5,0.0625,35.0,-1,0.0,0.2491000000000021
6,2,0.5,0.0,-35.0,-1,1.0,0.27149999999999963
7,2,0.5,0.0,-35.0,-1,1.0,0.3007000000000062
8,2,0.5,0.0625,-35.0,-1,1.0,0.272199999999998
9,2,0.5,0.125,-35.0,-1,1.0,0.22749999999999204
10,2,0.5,0.25,35.0,1,1.0,0.2867999999999995
11,2,0.5,0.125,-35.0,-1,1.0,0.26089999999999947
12,2,0.5,1.0,35.0,1,1.0,0.35140000000000526
13,2,0.5,0.0625,-35.0,-1,1.0,0.3032000000000039
14,2,0.5,0.0625,35.0,1,1.0,3.665700000000001
15,2,0.5,0.25,-35.0,-1,1.0,0.2915000000000063
16,2,0.5,0.25,-35.0,-1,1.0,0.277000000000001
17,2,0.5,0.0625,35.0,1,1.0,1.1165999999999912
18,2,0.5,1.0,35.0,1,1.0,0.2793000000000063
19,2,0.5,0.125,-35.0,-1,1.0,0.38049999999999784
20,2,0.5,0.0625,-35.0,-1,1.0,0.2621000000000038
21,2,0.5,0.0625,-35.0,1,0.0,3.3434000000000026
22,2,0.5,0.125,-35.0,-1,1.0,0.2575999999999965
23,2,0.5,0.125,-35.0,-1,1.0,0.28990000000000293
24,2,0.5,0.25,-35.0,-1,1.0,0.26019999999999754
25,2,0.5,0.0,35.0,-1,0.0,0.2723000000000013
26,2,0.5,0.125,-35.0,-1,1.0,0.29399999999999693
27,2,0.5,0.0,-35.0,-1,1.0,0.28350000000000364
28,2,0.5,1.0,-35.0,-1,1.0,0.2214000000000027
29,2,0.5,1.0,-35.0,-1,1.0,0.2347999999999928
30,2,0.5,0.0625,35.0,1,1.0,0.39910000000000423
31,2,0.5,0.0625,35.0,-1,0.0,0.25720000000001164
32,2,0.5,0.25,35.0,1,1.0,0.2542999999999864
33,2,0.5,0.125,35.0,1,1.0,4.45450000000001
34,2,0.5,0.25,35.0,1,1.0,0.39809999999999945
35,2,0.5,0.0625,35.0,-1,0.0,0.4081999999999937
36,2,0.5,0.0,35.0,-1,0.0,0.3404999999999916
37,2,0.5,1.0,-35.0,1,0.0,4.128300000000024
38,2,0.5,0.0,-35.0,1,0.0,0.605700000000013
39,2,0.5,0.0625,35.0,1,1.0,0.37050000000002115
40,2,0.5,0.0,35.0,1,1.0,4.2257999999999925
41,2,0.5,0.0625,-35.0,-1,1.0,1.1022000000000105
42,2,0.5,0.125,35.0,1,1.0,0.6146999999999991
43,2,0.5,0.0,35.0,-1,0.0,0.279798999999997
44,2,0.5,0.25,35.0,1,1.0,0.22519999999997253
45,2,0.5,0.0,35.0,1,1.0,0.24780000000001223
46,2,0.5,0.0,-35.0,1,0.0,0.4328999999999894
47,2,0.5,1.0,35.0,1,1.0,0.28999999999999204
48,2,0.5,0.25,35.0,1,1.0,0.27029999999999177
49,2,0.5,0.0,-35.0,1,0.0,0.393100000000004
50,2,0.5,1.0,35.0,1,1.0,0.20079999999998677
51,2,0.5,0.125,35.0,1,1.0,0.32439999999999714
52,2,0.5,0.25,35.0,1,1.0,0.24650000000002592
53,2,0.5,0.0625,35.0,1,1.0,0.4451999999999998
54,2,0.5,0.25,35.0,1,1.0,0.38429999999996767
55,2,0.5,0.25,-35.0,-1,1.0,0.25629999999998176
56,2,0.5,0.0625,35.0,1,1.0,0.5373000000000161
57,2,0.5,0.125,35.0,1,1.0,0.28180000000000405
58,2,0.5,1.0,-35.0,-1,1.0,0.24280000000001678
59,2,0.5,0.0,35.0,-1,0.0,0.3009999999999877
60,2,0.5,0.125,35.0,-1,0.0,0.24289999999999168
61,2,0.5,0.125,-35.0,-1,1.0,0.2225999999999999
62,2,0.5,0.125,-35.0,-1,1.0,0.26140000000000896
63,2,0.5,0.125,-35.0,-1,1.0,0.2616999999999905
64,2,0.5,0.25,-35.0,-1,1.0,0.25020000000000664
65,2,0.5,1.0,35.0,1,1.0,0.3178999999999803
66,2,0.5,0.0,35.0,1,1.0,4.301399999999973
67,2,0.5,1.0,-35.0,-1,1.0,0.24799999999999045
68,2,0.5,1.0,-35.0,-1,1.0,0.24069999999994707
69,2,0.5,0.0625,35.0,-1,0.0,0.26209999999997535
70,2,0.5,0.25,-35.0,-1,1.0,0.2400000000000091
71,2,0.5,0.0625,-35.0,-1,1.0,0.2611989999999764
72,2,0.5,0.0625,35.0,-1,0.0,0.29059999999998354
73,2,0.5,0.25,-35.0,-1,1.0,0.24129999999996699
74,2,0.5,0.125,35.0,1,1.0,0.3623999999999796
75,2,0.5,0.0,-35.0,-1,1.0,0.31740000000002055
76,2,0.5,0.0,-35.0,1,0.0,1.53449999999998
77,2,0.5,0.25,-35.0,-1,1.0,0.24059999999997217
78,2,0.5,0.0,35.0,1,1.0,1.628599999999949
79,2,0.5,0.25,-35.0,-1,1.0,0.23829999999998108
80,2,0.5,0.0625,35.0,-1,0.0,0.2309999999999377
81,2,0.5,0.125,-35.0,-1,1.0,0.21899999999993724
82,2,0.5,0.0625,-35.0,-1,1.0,0.27609999999998536
83,2,0.5,1.0,-35.0,-1,1.0,0.22690000000000055
84,2,0.5,0.125,35.0,1,1.0,0.4038999999999646
85,2,0.5,0.0625,-35.0,-1,1.0,0.25999999999993406
86,2,0.5,1.0,-35.0,-1,1.0,0.23339999999996053
87,2,0.5,0.0,35.0,-1,0.0,0.2590999999999326
88,2,0.5,0.125,35.0,1,1.0,0.3861999999999739
89,2,0.5,0.0,35.0,-1,0.0,0.2615000000000123
90,2,0.5,0.125,-35.0,-1,1.0,0.3137999999999579
91,2,0.2,1.0,35.0,1,1.0,0.42629999999996926
92,2,0.2,0.25,35.0,1,1.0,0.2846999999999298
93,2,0.2,0.0625,35.0,1,1.0,0.6003999999999792
94,2,0.2,0.25,35.0,1,1.0,0.2606999999999289
95,2,0.2,0.0,35.0,1,1.0,0.36149999999997817
96,2,0.2,0.0625,35.0,-1,0.0,0.26159999999993033
97,2,0.2,1.0,35.0,1,1.0,0.2447999999999979
98,2,0.2,0.0,35.0,1,1.0,0.4546999999999457
99,2,0.2,0.0,35.0,1,1.0,0.39209999999991396
100,2,0.2,0.0625,35.0,1,1.0,0.386600000000044
101,2,0.2,0.125,35.0,1,1.0,0.2977999999999952
102,2,0.2,0.125,35.0,1,1.0,0.5439999999999827
103,2,0.2,0.0625,-35.0,-1,1.0,0.307899999999961
104,2,0.2,0.0625,-35.0,-1,1.0,0.31279999999998154
105,2,0.2,0.0,35.0,-1,0.0,0.3109999999999786
106,2,0.2,0.125,-35.0,-1,1.0,0.2549999999999386
107,2,0.2,0.0,35.0,1,1.0,1.0710999999999444
108,2,0.2,0.125,35.0,1,1.0,0.4371999999999616
109,2,0.2,1.0,35.0,1,1.0,0.29189999999999827
110,2,0.2,1.0,35.0,1,1.0,0.25430000000000064
111,2,0.2,1.0,35.0,1,1.0,0.2442999999999529
112,2,0.2,1.0,35.0,1,1.0,0.21510000000000673
113,2,0.8,0.125,-35.0,-1,1.0,0.528699999999958
114,2,0.8,0.25,-35.0,-1,1.0,0.2788999999999646
115,2,0.8,0.0625,-35.0,-1,1.0,0.26650000000000773
116,2,0.8,0.125,-35.0,-1,1.0,0.23759999999998627
117,2,0.8,0.125,35.0,1,1.0,0.34679999999997335
118,2,0.8,1.0,35.0,1,1.0,0.2407000000000039
119,2,0.8,0.0625,-35.0,-1,1.0,0.27669999999994843
120,2,0.8,0.0625,-35.0,1,0.0,1.0738999999999805
121,2,0.8,0.0,35.0,1,1.0,2.0458999999999605
122,2,0.8,0.0625,-35.0,-1,1.0,0.3158999999999992
123,2,0.8,1.0,-35.0,-1,1.0,0.2638999999999214
124,2,0.8,0.0625,-35.0,-1,1.0,0.26949999999999363
125,2,0.8,0.0,-35.0,-1,1.0,0.5985999999999763
126,2,0.8,1.0,-35.0,-1,1.0,0.23939999999998918
127,2,0.8,0.125,-35.0,-1,1.0,0.2561999999999216
128,2,0.8,0.125,35.0,-1,0.0,0.266399999999976
129,2,0.8,0.0,-35.0,-1,1.0,0.2642999999999347
130,2,0.8,0.25,-35.0,-1,1.0,0.2047999999999206
131,2,0.8,0.0,-35.0,-1,1.0,0.6023999999999319
132,2,0.8,0.125,-35.0,-1,1.0,0.27089999999998327
133,2,0.8,0.25,-35.0,-1,1.0,0.24790000000001555
134,2,0.8,0.0,-35.0,-1,1.0,0.4804999999999495
135,2,0.8,0.125,-35.0,-1,1.0,0.2246999999999275
136,2,0.8,0.0,35.0,-1,0.0,0.30459899999999607
137,2,0.8,0.0,-35.0,1,0.0,0.28029999999995425
138,2,0.8,1.0,-35.0,-1,1.0,0.222500000000025
139,2,0.8,1.0,-35.0,-1,1.0,0.20990000000000464
140,2,0.8,0.125,-35.0,-1,1.0,0.20479999999997744
141,2,0.8,1.0,-35.0,-1,1.0,0.17489999999997963
142,2,0.8,0.0625,35.0,1,1.0,2.0149000000000115
143,2,0.8,1.0,-35.0,-1,1.0,0.18309999999996762
144,2,0.2,0.25,35.0,1,1.0,0.27759900000000926
145,2,0.2,0.125,35.0,1,1.0,0.29340000000001965
146,2,0.2,0.25,35.0,1,1.0,0.9497000000000071
147,2,0.2,1.0,35.0,1,1.0,0.25540000000000873
148,2,0.2,0.0625,35.0,-1,0.0,0.250299999999811
149,2,0.2,1.0,35.0,1,1.0,0.26729999999997744
150,2,0.2,0.125,35.0,1,1.0,0.4636999999999034
151,2,0.2,0.0,35.0,1,1.0,4.229400000000055
152,2,0.2,1.0,35.0,1,1.0,0.4109999999999445
153,2,0.2,0.0,35.0,-1,0.0,0.293700000000058
154,2,0.2,0.125,-35.0,-1,1.0,0.227800000000002
155,2,0.2,0.25,35.0,1,1.0,0.265700000000038
156,2,0.2,0.0,35.0,-1,0.0,0.4957000000000562
157,2,0.2,0.25,35.0,1,1.0,0.27529999999990196
158,2,0.2,0.25,35.0,1,1.0,0.34219999999993433
159,2,0.2,0.0,-35.0,-1,1.0,0.25280000000009295
160,2,0.2,0.25,35.0,1,1.0,0.3105999999999085
161,2,0.2,0.25,-35.0,-1,1.0,0.22299999999995634
162,2,0.2,0.0625,35.0,-1,0.0,0.470299999999952
163,2,0.2,1.0,35.0,1,1.0,0.2622000000000071
164,2,0.2,0.0625,35.0,-1,0.0,0.2619999999999436
165,2,0.2,0.0625,35.0,1,1.0,0.45019999999999527
166,2,0.2,1.0,-35.0,-1,1.0,0.2337999999999738
167,2,0.2,0.0625,35.0,1,1.0,0.40059999999994034
168,2,0.2,0.0625,35.0,-1,0.0,0.262299999999982
169,2,0.2,0.0625,35.0,-1,0.0,0.3002999999999929
170,2,0.2,0.0625,35.0,1,1.0,0.9276999999999589
171,2,0.2,0.125,-35.0,-1,1.0,0.27319999999997435
172,2,0.2,1.0,35.0,1,1.0,0.2586000000000013
173,2,0.2,0.25,-35.0,-1,1.0,0.24530000000004293
174,2,0.2,1.0,35.0,1,1.0,0.24699999999995725
175,2,0.2,1.0,-35.0,-1,1.0,0.22569999999984702
176,2,0.2,0.25,35.0,1,1.0,0.32579999999995835
177,2,0.2,1.0,-35.0,-1,1.0,0.2437000000001035
178,2,0.2,0.0,-35.0,-1,1.0,0.27089999999998327
179,2,0.2,0.125,35.0,1,1.0,0.7497999999998228
180,2,0.2,0.0625,35.0,-1,0.0,0.2980000000000018
181,2,0.2,1.0,35.0,1,1.0,0.23480000000006385
182,2,0.8,0.125,-35.0,-1,1.0,0.2921000000000049
183,2,0.8,1.0,-35.0,-1,1.0,0.2196999999999889
184,2,0.8,0.125,-35.0,-1,1.0,0.2675000000000409
185,2,0.8,0.25,-35.0,-1,1.0,0.2501999999999498
186,2,0.8,0.0625,-35.0,-1,1.0,0.2749999999998636
187,2,0.8,0.0625,35.0,-1,0.0,0.26510000000007494
188,2,0.8,0.25,-35.0,-1,1.0,0.2683999999999287
189,2,0.8,1.0,-35.0,-1,1.0,0.19050000000004275
190,2,0.8,0.0,-35.0,-1,1.0,0.33349999999995816
191,2,0.8,0.0625,-35.0,-1,1.0,0.3246000000000322
192,2,0.8,1.0,-35.0,-1,1.0,0.2216000000000804
193,2,0.8,1.0,-35.0,-1,1.0,0.2359000000000151
194,2,0.8,0.125,-35.0,-1,1.0,0.264699999999948
195,2,0.8,0.125,-35.0,-1,1.0,0.2606999999999289
196,2,0.8,0.125,-35.0,-1,1.0,1.730099999999993
197,2,0.8,0.25,-35.0,-1,1.0,0.27080000000000837
198,2,0.8,1.0,-35.0,-1,1.0,0.2576999999999998
199,2,0.8,0.0,-35.0,-1,1.0,0.3349000000000615
200,2,0.8,0.125,35.0,-1,0.0,0.5810999999998785
201,2,0.8,0.25,35.0,1,1.0,0.26299999999991996
202,2,0.8,0.125,-35.0,-1,1.0,0.26509999999996126
203,2,0.8,0.25,35.0,1,1.0,0.5116999999999052
204,2,0.8,0.0625,35.0,-1,0.0,0.25890000000003965
205,2,0.8,0.0625,-35.0,-1,1.0,0.13229900000010275
206,2,0.8,0.125,-35.0,-1,1.0,0.23330000000009932
207,2,0.8,0.0,-35.0,-1,1.0,0.22640000000001237
208,2,0.8,0.0625,-35.0,-1,1.0,0.308400000000006
209,2,0.8,1.0,35.0,1,1.0,0.2523000000001048
210,2,0.8,0.0,-35.0,-1,1.0,0.2828999999999269
211,2,0.8,0.25,-35.0,-1,1.0,0.3004989999999452
212,2,0.8,0.0625,-35.0,-1,1.0,0.2134000000000924
213,2,0.8,0.0,-35.0,-1,1.0,0.24120000000004893
214,2,0.8,0.25,-35.0,-1,1.0,0.250699999999938
215,2,0.8,0.125,35.0,1,1.0,0.5868000000000393
216,2,0.8,0.25,35.0,1,1.0,0.27599999999983993
217,2,0.8,0.0625,-35.0,-1,1.0,0.2922999999999547
218,2,0.8,1.0,35.0,1,1.0,0.23599999999999
219,2,0.2,0.125,-35.0,-1,1.0,0.26969999999994343
220,2,0.2,0.125,35.0,1,1.0,0.8151000000000295
221,2,0.2,1.0,35.0,1,1.0,0.38819999999986976
222,2,0.2,0.125,35.0,1,1.0,0.5763000000000602
223,2,0.2,0.25,35.0,1,1.0,0.5038999999999305
224,2,0.2,0.0,35.0,-1,0.0,0.3243999999999687
225,2,0.2,0.25,35.0,1,1.0,0.6713999999999487
226,2,0.2,0.125,35.0,1,1.0,0.48050000000000637
227,2,0.2,0.125,-35.0,-1,1.0,0.2804999999999609
228,2,0.2,0.25,35.0,1,1.0,0.48929999999995744
229,2,0.2,0.0625,35.0,-1,0.0,0.2925999999999931
230,2,0.2,0.0625,35.0,1,1.0,0.3327000000000453
231,2,0.2,0.25,35.0,1,1.0,0.2940999999999576
232,2,0.2,0.25,35.0,1,1.0,0.28710000000000946
233,2,0.2,0.25,35.0,1,1.0,0.5617999999999483
234,2,0.2,1.0,35.0,1,1.0,0.3002999999999929
235,2,0.2,0.25,35.0,1,1.0,0.23699999999996635
236,2,0.2,0.0625,35.0,1,1.0,3.430499999999938
237,2,0.2,0.0625,35.0,1,1.0,0.7341000000000122
238,2,0.2,0.25,35.0,1,1.0,0.24499999999989086
239,2,0.2,0.0625,35.0,1,1.0,0.5453999999999724
240,2,0.2,0.0625,35.0,-1,0.0,0.31330000000002656
241,2,0.2,0.25,35.0,1,1.0,0.5142000000000735
242,2,0.2,0.125,-35.0,-1,1.0,0.29300000000000637
243,2,0.2,1.0,35.0,1,1.0,0.5264999999999418
244,2,0.2,0.25,35.0,1,1.0,0.6422999999998638
245,2,0.2,0.0625,35.0,-1,0.0,0.22550000000001091
246,2,0.2,0.25,35.0,1,1.0,0.3730999999999085
247,2,0.2,0.0625,35.0,-1,0.0,0.24689999999998236
248,2,0.2,0.125,35.0,-1,0.0,0.2580999999998994
249,2,0.2,0.0625,35.0,1,1.0,1.5457000000000107
250,2,0.2,0.0625,35.0,-1,0.0,30.090400000000045
251,2,0.2,0.0,35.0,-1,0.0,0.34130000000004657
252,2,0.2,0.0625,35.0,-1,0.0,0.28719999999998436
253,2,0.2,0.125,-35.0,-1,1.0,0.2523999999998523
254,2,0.2,0.0,35.0,1,1.0,4.96759899999995
255,2,0.2,0.125,-35.0,-1,1.0,0.31159999999999854
256,2,0.2,0.25,35.0,1,1.0,0.8779000000000678
257,2,0.2,0.125,35.0,-1,0.0,0.667699999999968
258,2,0.2,1.0,35.0,1,1.0,0.38049999999998363
259,2,0.2,1.0,35.0,1,1.0,0.2738000000000511
260,2,0.2,0.0625,35.0,1,1.0,1.4891000000000076
261,2,0.2,0.0,35.0,-1,0.0,0.35629999999991924
262,2,0.2,0.0625,35.0,1,1.0,0.6541999999999462
263,2,0.2,1.0,35.0,1,1.0,0.5380999999999858
264,2,0.2,0.0,35.0,1,1.0,0.5714000000000397
265,2,0.2,0.0625,35.0,1,1.0,0.38619999999991705
266,2,0.2,0.125,35.0,1,1.0,0.32149999999990087
267,2,0.2,1.0,35.0,1,1.0,0.3694999999999027
268,2,0.2,0.125,35.0,1,1.0,0.6084000000000742
269,2,0.2,0.0625,-35.0,-1,1.0,0.27699999999992997
270,2,0.2,0.0,35.0,1,1.0,0.24509999999986576
271,2,0.2,0.0625,35.0,-1,0.0,0.27949999999987085
272,2,0.2,0.125,35.0,1,1.0,0.49520000000006803
273,2,0.2,0.0625,35.0,1,1.0,0.43259999999986576
274,2,0.2,0.0,35.0,-1,0.0,0.3184999999998581
275,2,0.2,0.125,35.0,1,1.0,0.23869999999988067
276,2,0.2,0.0,35.0,1,1.0,0.38210000000003674
277,2,0.2,0.0625,35.0,1,1.0,0.5888999999997395
278,2,0.2,0.125,-35.0,-1,1.0,0.33219999999982974
279,2,0.2,0.0,-35.0,-1,1.0,0.35580000000004475
280,2,0.2,0.25,-35.0,-1,1.0,0.2155999999999949
281,2,0.2,0.25,35.0,1,1.0,0.48010000000022046
282,2,0.2,0.0625,35.0,1,1.0,0.3324999999999818
283,2,0.2,0.0625,35.0,-1,0.0,0.22409999999968022
284,2,0.2,0.0,35.0,-1,0.0,0.30929999999989377
285,2,0.2,0.0625,35.0,1,1.0,0.2902999999998883
286,2,0.2,0.25,-35.0,-1,1.0,0.44270000000005894
287,2,0.2,0.125,35.0,1,1.0,0.3028999999999087
288,2,0.8,1.0,-35.0,-1,1.0,0.21959999999990032
289,2,0.8,0.0,-35.0,1,0.0,0.6985999999999422
290,2,0.8,0.0,-35.0,-1,1.0,0.2030000000002019
291,2,0.8,1.0,35.0,1,1.0,0.2887000000000626
292,2,0.8,0.0625,35.0,-1,0.0,0.22310000000015862
293,2,0.8,0.125,-35.0,-1,1.0,0.2506999999998243
294,2,0.8,0.0625,-35.0,-1,1.0,0.2599999999999909
295,2,0.8,0.125,-35.0,-1,1.0,0.08780000000001564
296,2,0.8,1.0,35.0,1,1.0,0.21040000000016335
297,2,0.8,0.0,-35.0,-1,1.0,0.2568999999998596
298,2,0.8,0.0625,-35.0,-1,1.0,0.2113000000001648
299,2,0.8,0.0,-35.0,-1,1.0,0.18699900000001435
300,2,0.8,0.0,-35.0,-1,1.0,0.29129999999986467
301,2,0.8,0.0625,35.0,1,1.0,0.5769000000000233
302,2,0.8,0.125,-35.0,-1,1.0,0.24720000000002074
303,2,0.8,0.0,35.0,-1,0.0,0.12030000000004293
304,2,0.8,0.25,35.0,1,1.0,0.25729999999998654
305,2,0.8,0.125,-35.0,-1,1.0,0.26040000000011787
306,2,0.8,1.0,-35.0,-1,1.0,0.20139999999992142
307,2,0.8,1.0,-35.0,-1,1.0,0.22059999999987667
308,2,0.8,0.0625,-35.0,-1,1.0,0.17610000000013315
309,2,0.8,0.0,-35.0,-1,1.0,0.6438999999998032
310,2,0.8,0.0625,-35.0,-1,1.0,0.16739999999981592
311,2,0.8,0.0625,35.0,-1,0.0,0.2842000000000553
312,2,0.8,0.125,-35.0,-1,1.0,0.28779999999983374
313,2,0.8,1.0,-35.0,-1,1.0,0.19100000000003092
314,2,0.8,0.0625,35.0,-1,0.0,0.28109999999992397
315,2,0.8,0.0,-35.0,-1,1.0,0.22099999999977626
316,2,0.8,0.125,-35.0,-1,1.0,0.24620000000004438
317,2,0.8,0.125,-35.0,-1,1.0,0.2077999999999065
318,2,0.8,0.0625,-35.0,-1,1.0,0.25299999999992906
319,2,0.8,0.0,35.0,-1,0.0,0.2545000000000073
320,2,0.8,0.25,35.0,1,1.0,0.2320999999999458
321,2,0.8,0.0,-35.0,-1,1.0,0.20469999999977517
322,2,0.8,0.0625,35.0,-1,0.0,0.22220000000015716
323,2,0.8,1.0,-35.0,-1,1.0,0.22479999999995925
324,2,0.8,0.0,-35.0,-1,1.0,0.11839999999983775
325,2,0.8,0.0625,-35.0,-1,1.0,0.4714999999998781
326,2,0.8,0.25,-35.0,-1,1.0,0.1894999999999527
327,2,0.8,0.125,-35.0,-1,1.0,0.261600000000044
328,2,0.8,0.25,35.0,-1,0.0,0.1493000000000393
329,2,0.2,0.0,35.0,-1,0.0,0.23869999999988067
330,2,0.2,0.25,35.0,1,1.0,0.39380000000005566
331,2,0.2,0.0,35.0,1,1.0,9.00870000000009
332,2,0.2,0.0,35.0,1,1.0,0.9198999999998705
333,2,0.2,1.0,35.0,1,1.0,0.2623000000000957
334,2,0.2,1.0,35.0,1,1.0,0.3995999999997366
335,2,0.2,0.0625,35.0,-1,0.0,0.3191999999999098
336,2,0.2,0.25,35.0,1,1.0,0.310799999999972
337,2,0.2,0.0625,35.0,-1,0.0,0.25919999999996435
338,2,0.2,0.0,-35.0,1,0.0,0.7462000000000444
339,2,0.2,0.25,35.0,1,1.0,0.3326999999999316
340,2,0.2,0.25,35.0,1,1.0,0.29129999999986467
341,2,0.2,0.25,35.0,1,1.0,0.2762000000000171
342,2,0.2,0.0625,35.0,1,1.0,0.4697999999998501
343,2,0.2,1.0,35.0,1,1.0,0.33609999999998763
344,2,0.2,0.125,35.0,1,1.0,0.34770000000003165
345,2,0.2,0.125,35.0,1,1.0,0.43959999999970023
346,2,0.2,0.0,35.0,-1,0.0,0.7679000000000542
347,2,0.2,0.25,35.0,1,1.0,0.39980000000014115
348,2,0.2,0.25,-35.0,1,0.0,6.801000000000158
349,2,0.2,0.25,-35.0,-1,1.0,0.8167000000000826
350,2,0.2,0.0,35.0,1,1.0,0.3712000000000444
351,2,0.2,0.25,35.0,1,1.0,0.4635000000000673
352,2,0.2,0.25,-35.0,-1,1.0,0.3867000000002463
353,2,0.2,0.0,35.0,-1,0.0,0.24690000000009604
354,2,0.2,0.0625,35.0,1,1.0,0.5273999999999432
355,2,0.2,0.25,35.0,1,1.0,2.847099999999955
356,2,0.2,1.0,35.0,1,1.0,0.49450000000024374
357,2,0.2,0.25,35.0,1,1.0,0.39400000000000546
358,2,0.2,0.125,35.0,1,1.0,0.6076000000000477
359,2,0.2,1.0,35.0,1,1.0,0.37429999999994834
360,2,0.2,0.25,-35.0,-1,1.0,0.25779999999986103
361,2,0.2,0.125,35.0,1,1.0,0.434099999999944
362,2,0.2,1.0,35.0,1,1.0,0.18170000000009168
363,2,0.2,0.125,35.0,1,1.0,0.27089999999998327
364,2,0.2,0.0625,35.0,1,1.0,0.5779999999999745
365,2,0.2,0.25,-35.0,-1,1.0,0.2843000000000302
366,2,0.2,0.0,35.0,-1,0.0,0.28599999999983083
367,2,0.2,1.0,-35.0,-1,1.0,0.32429999999976644
368,2,0.2,0.25,35.0,1,1.0,0.29919999999992797
369,2,0.2,0.25,35.0,1,1.0,0.3045000000001892
370,2,0.2,0.0625,-35.0,1,0.0,0.9053000000001248
371,2,0.2,1.0,35.0,1,1.0,0.3646000000001095
372,2,0.2,0.0625,35.0,-1,0.0,0.2984000000001288
373,2,0.2,0.125,35.0,1,1.0,0.29140000000006694
374,2,0.2,0.0,35.0,-1,0.0,0.9484999999999673
375,2,0.2,0.0,35.0,-1,0.0,0.29150000000004184
376,2,0.2,0.25,35.0,1,1.0,0.3120000000001255
377,2,0.2,0.0625,35.0,1,1.0,0.4049999999999727
378,2,0.2,0.0,35.0,1,1.0,0.45019999999999527
379,2,0.2,0.0,35.0,1,1.0,0.2985000000001037
380,2,0.2,0.0625,35.0,1,1.0,0.3651999999999589
381,2,0.2,0.25,-35.0,-1,1.0,0.22530000000006112
382,2,0.2,1.0,35.0,1,1.0,0.2299000000000433
383,2,0.2,0.0,35.0,1,1.0,0.2719999999999345
384,2,0.2,0.25,35.0,1,1.0,0.25060000000007676
385,2,0.2,0.125,-35.0,-1,1.0,0.269099999999753
386,2,0.2,0.0625,35.0,1,1.0,0.2701999999999316
387,2,0.8,0.25,-35.0,-1,1.0,0.22220000000015716
388,2,0.8,0.25,35.0,1,1.0,0.2058999999999287
389,2,0.8,0.125,35.0,-1,0.0,0.0990999999999076
390,2,0.8,0.0,-35.0,-1,1.0,0.3158000000000811
391,2,0.8,0.25,-35.0,-1,1.0,0.22580000000016298
392,2,0.8,0.125,-35.0,-1,1.0,0.2904999999998381
393,2,0.8,1.0,35.0,1,1.0,0.5792999999998756
394,2,0.8,0.25,-35.0,-1,1.0,0.25969999999983884
395,2,0.8,0.0625,35.0,1,1.0,0.4960000000000946
396,2,0.8,0.0625,-35.0,-1,1.0,0.08680000000003929
397,2,0.8,0.125,-35.0,-1,1.0,0.2596000000000913
398,2,0.8,0.25,-35.0,-1,1.0,0.2400000000000091
399,2,0.8,1.0,35.0,-1,0.0,0.13619999999991705
400,2,0.8,0.0,-35.0,-1,1.0,0.3470999999999549
401,2,0.8,1.0,35.0,1,1.0,0.2298000000000684
402,2,0.8,0.125,-35.0,-1,1.0,0.2540999999998803
403,2,0.8,1.0,-35.0,-1,1.0,0.17660000000000764
404,2,0.8,0.0625,35.0,1,1.0,0.6501999999998134
405,2,0.8,0.0625,-35.0,-1,1.0,0.23340000000007421
406,2,0.8,1.0,-35.0,-1,1.0,0.16790000000014516
407,2,0.8,1.0,-35.0,-1,1.0,0.21349999999983993
408,2,0.8,0.25,-35.0,-1,1.0,0.20450000000005275
409,2,0.8,0.25,-35.0,-1,1.0,0.2236000000000331
410,2,0.8,0.0625,-35.0,-1,1.0,0.2516000000000531
411,2,0.8,0.125,-35.0,-1,1.0,0.23710000000005493
412,2,0.8,0.125,-35.0,1,0.0,3.865299999999934
413,2,0.8,0.25,-35.0,-1,1.0,0.25729999999998654
414,2,0.8,0.0625,-35.0,-1,1.0,0.17780000000016116
415,2,0.8,0.0625,-35.0,-1,1.0,0.2574000000001888
416,2,0.8,0.0625,35.0,-1,0.0,0.21499999999991815
417,2,0.8,0.0,35.0,-1,0.0,0.21090000000003783
418,2,0.8,1.0,-35.0,-1,1.0,0.20509999999990214
419,2,0.8,0.25,35.0,1,1.0,0.24090000000001055
420,2,0.8,0.0,-35.0,1,0.0,0.9412000000002081
421,2,0.8,0.0,-35.0,1,0.0,0.3143999999999778
422,2,0.8,0.125,-35.0,-1,1.0,0.21240000000011605
423,2,0.8,0.0,-35.0,-1,1.0,0.24779999999987012
424,2,0.8,1.0,-35.0,-1,1.0,0.23250000000007276
425,2,0.8,1.0,35.0,1,1.0,0.2579999999998108
426,2,0.8,0.0625,35.0,-1,0.0,0.22260000000005675
427,2,0.8,0.25,-35.0,-1,1.0,0.20820000000003347
428,2,0.8,0.0625,-35.0,-1,1.0,0.21859999999992397
429,2,0.8,1.0,-35.0,-1,1.0,0.24179999999978463
430,2,0.8,0.0625,-35.0,-1,1.0,0.20519999999987704
431,2,0.8,0.25,-35.0,-1,1.0,0.16849999999999454
432,2,0.8,1.0,35.0,1,1.0,0.2817000000000007
433,2,0.8,0.25,-35.0,-1,1.0,0.42200000000025284
434,2,0.8,1.0,-35.0,-1,1.0,0.22509999999988395
435,2,0.8,0.125,-35.0,-1,1.0,0.17859899999984918
436,2,0.8,0.0,-35.0,-1,1.0,0.1789000000001124
437,2,0.8,1.0,35.0,-1,0.0,0.14550000000008367
438,2,0.8,1.0,-35.0,-1,1.0,0.1753000000001066
439,2,0.8,0.25,-35.0,-1,1.0,0.24220000000013897
440,2,0.8,0.0,35.0,-1,0.0,0.30910000000017135
441,2,0.8,0.0625,-35.0,-1,1.0,0.22239999999987958
442,2,0.2,0.25,35.0,1,1.0,0.27909999999997126
443,2,0.2,0.125,35.0,1,1.0,0.602500000000191
444,2,0.2,0.0,35.0,-1,0.0,0.213799999999992
445,2,0.2,1.0,35.0,1,1.0,0.24270000000024083
446,2,0.2,0.0625,-35.0,-1,1.0,0.27680000000009386
447,2,0.2,0.25,-35.0,-1,1.0,0.2598000000000411
448,2,0.2,0.0625,-35.0,-1,1.0,0.29609999999979664
449,2,0.2,0.0625,35.0,-1,0.0,0.24299999999993815
450,2,0.2,1.0,35.0,1,1.0,0.3610000000001037
451,2,0.2,0.0,35.0,-1,0.0,0.25290000000018154
452,2,0.2,0.25,35.0,1,1.0,0.42709999999988213
453,2,0.2,0.0,35.0,-1,0.0,0.2297000000000935
454,2,0.2,0.125,35.0,-1,0.0,0.28719999999998436
455,2,0.2,0.0,35.0,-1,0.0,0.31979999999998654
456,2,0.2,1.0,35.0,1,1.0,0.25850000000014006
457,2,0.2,0.125,-35.0,-1,1.0,0.33339999999998327
458,2,0.2,0.0625,35.0,-1,0.0,0.3567000000000462
459,2,0.2,0.0625,35.0,1,1.0,0.5514999999998054
460,2,0.2,0.0625,35.0,1,1.0,0.5835999999999331
461,2,0.2,0.125,35.0,1,1.0,0.27899999999999636
462,2,0.2,0.125,35.0,1,1.0,0.2801999999999225
463,2,0.2,1.0,-35.0,-1,1.0,0.2958000000000993
464,2,0.2,0.125,35.0,1,1.0,0.5272000000002208
465,2,0.2,0.25,35.0,1,1.0,0.26070000000004256
466,2,0.2,0.0,35.0,1,1.0,0.19719999999983884
467,2,0.2,0.25,35.0,1,1.0,0.23840000000018335
468,2,0.2,1.0,35.0,1,1.0,0.4339999999999691
469,2,0.2,1.0,35.0,1,1.0,0.25710000000003674
470,2,0.2,0.125,35.0,1,1.0,0.5308999999999742
471,2,0.2,0.25,35.0,1,1.0,0.5311999999998989
472,2,0.2,1.0,35.0,1,1.0,0.27739999999994325
473,2,0.2,0.25,-35.0,-1,1.0,0.21829999999999927
474,2,0.2,0.0,35.0,1,1.0,0.4375
475,2,0.2,0.0,35.0,-1,0.0,0.3050999999998112
476,2,0.2,1.0,35.0,1,1.0,0.23450000000002547
477,2,0.2,1.0,-35.0,-1,1.0,0.2624000000000706
478,2,0.2,0.25,35.0,1,1.0,0.5845000000001619
479,2,0.2,0.0,35.0,-1,0.0,0.2785999999998694
480,2,0.2,0.0,35.0,-1,0.0,0.3213999999998123
481,2,0.2,0.25,35.0,1,1.0,0.6417000000001281
482,2,0.2,0.25,35.0,1,1.0,0.34140000000024884
483,2,0.2,0.125,35.0,-1,0.0,0.3187999999997828
484,2,0.2,0.125,-35.0,-1,1.0,0.36190000000010514
485,2,0.2,0.25,35.0,1,1.0,0.33189999999990505
486,2,0.2,0.0625,35.0,-1,0.0,0.33199999999987995
487,2,0.2,0.0,35.0,-1,0.0,0.9050999999997202
488,2,0.2,0.125,35.0,1,1.0,0.3183999999998832
489,2,0.2,0.0625,-35.0,-1,1.0,0.330600000000004
490,2,0.2,0.25,35.0,1,1.0,0.2920999999998912
491,2,0.2,0.125,35.0,1,1.0,0.4662999999998192
492,2,0.2,0.0,35.0,-1,0.0,0.30199999999990723
493,2,0.2,0.0625,35.0,1,1.0,0.3794000000000324
494,2,0.2,0.125,35.0,1,1.0,0.43889999999987594
495,2,0.2,0.25,35.0,1,1.0,0.27569999999968786
496,2,0.2,0.25,35.0,1,1.0,0.2921999999998661
497,2,0.2,1.0,35.0,1,1.0,0.2537000000002081
498,2,0.2,0.25,35.0,1,1.0,0.2825000000000273
499,2,0.2,0.0625,35.0,1,1.0,0.6477999999999611
500,2,0.2,1.0,35.0,1,1.0,0.18590000000017426
501,2,0.2,1.0,35.0,1,1.0,0.25090000000000146
502,2,0.2,0.0625,-35.0,1,0.0,0.6760000000001583
503,2,0.2,0.0,35.0,1,1.0,0.553000000000111
504,2,0.2,0.0,35.0,1,1.0,0.3928000000000793
505,2,0.2,1.0,35.0,1,1.0,0.32090000000016516
506,2,0.2,0.25,35.0,1,1.0,0.23959999999988213
507,2,0.2,0.0,-35.0,1,0.0,0.28449999999998
508,2,0.2,1.0,-35.0,-1,1.0,0.26330000000007203
509,2,0.2,0.25,-35.0,-1,1.0,0.2798000000000229
510,2,0.2,0.0625,35.0,1,1.0,0.43650000000002365
511,2,0.2,1.0,-35.0,-1,1.0,0.25339999999982865
512,2,0.2,0.125,35.0,1,1.0,0.7433000000000902
513,2,0.2,0.25,35.0,1,1.0,0.2300000000000182
514,2,0.2,0.0,35.0,1,1.0,0.3067999999998392
515,2,0.2,1.0,35.0,1,1.0,0.26779999999985193
516,2,0.2,0.25,35.0,1,1.0,0.32370000000014443
517,2,0.2,1.0,35.0,1,1.0,0.23489999999992506
518,2,0.8,1.0,-35.0,-1,1.0,0.22700000000008913
519,2,0.8,0.25,-35.0,-1,1.0,0.2869999999998072
520,2,0.8,0.0625,-35.0,-1,1.0,0.29730000000017753
521,2,0.8,0.0,35.0,-1,0.0,0.14740000000006148
522,2,0.8,1.0,-35.0,-1,1.0,0.24729999999999563
523,2,0.8,0.25,-35.0,-1,1.0,0.24519999999984066
524,2,0.8,1.0,-35.0,-1,1.0,0.22729999999978645
525,2,0.8,0.25,-35.0,-1,1.0,0.25840000000016516
526,2,0.8,0.25,-35.0,-1,1.0,0.26080000000001746
527,2,0.8,0.0,-35.0,1,0.0,0.5377000000000862
528,2,0.8,0.0,-35.0,-1,1.0,0.27099999999995816
529,2,0.8,0.0,-35.0,-1,1.0,0.2646000000004278
530,2,0.8,0.0,-35.0,-1,1.0,0.25789999999960855
531,2,0.8,1.0,-35.0,-1,1.0,0.24909999999999854
532,2,0.8,0.25,-35.0,-1,1.0,0.2845999999999549
533,2,0.8,0.125,35.0,1,1.0,0.8779000000004089
534,2,0.8,0.0625,-35.0,-1,1.0,0.2948999999998705
535,2,0.8,1.0,-35.0,-1,1.0,0.2590000000004693
536,2,0.8,1.0,-35.0,-1,1.0,0.2381000000000313
537,2,0.8,0.0,-35.0,1,0.0,5.839100000000144
538,2,0.8,0.0625,-35.0,-1,1.0,0.2717999999999847
539,2,0.8,0.0,-35.0,-1,1.0,1.3593000000000757
540,2,0.8,0.25,35.0,1,1.0,0.3024000000000342
541,2,0.8,0.0625,-35.0,-1,1.0,0.278400000000147
542,2,0.8,0.25,35.0,1,1.0,0.26870000000008076
543,2,0.8,0.25,35.0,1,1.0,0.3935999999998785
544,2,0.8,0.0,35.0,1,1.0,1.622200000000248
545,2,0.8,0.0625,35.0,1,1.0,0.5277999999998428
546,2,0.8,0.0,-35.0,1,0.0,2.958900000000085
547,2,0.8,0.0,35.0,1,1.0,0.8055999999996857
548,2,0.8,1.0,35.0,1,1.0,0.2829999999999018
549,2,0.8,0.0,-35.0,1,0.0,0.5093999999999141
550,2,0.8,0.0625,-35.0,1,0.0,10.012699999999768
551,2,0.8,0.0,-35.0,1,0.0,11.329999999999927
552,2,0.8,0.0,-35.0,1,0.0,5.109799000000294
553,2,0.8,1.0,35.0,1,1.0,0.5779999999999745
554,2,0.8,1.0,-35.0,-1,1.0,0.3134000000004562
555,2,0.8,1.0,-35.0,-1,1.0,0.29679899999973713
556,2,0.8,0.0625,-35.0,-1,1.0,0.38330000000041764
557,2,0.8,0.0625,-35.0,-1,1.0,0.3376000000002932
558,2,0.8,1.0,-35.0,-1,1.0,0.2701999999999316
559,2,0.8,1.0,-35.0,-1,1.0,0.19390000000021246
560,2,0.8,0.125,35.0,-1,0.0,0.3402000000000953
561,2,0.8,0.125,-35.0,-1,1.0,0.27420000000029177
562,2,0.8,0.125,35.0,-1,0.0,0.2903000000001157
563,2,0.8,1.0,35.0,1,1.0,0.22119999999995343
564,2,0.8,1.0,-35.0,-1,1.0,0.277299999999741
565,2,0.8,1.0,-35.0,-1,1.0,0.27129999999988286
566,2,0.8,0.125,35.0,1,1.0,0.4873000000002321
567,2,0.8,1.0,-35.0,-1,1.0,0.2383999999997286
568,2,0.8,0.0625,-35.0,-1,1.0,0.2573999999995067
569,2,0.8,0.0,-35.0,-1,1.0,0.2424999999998363
570,2,0.8,0.125,-35.0,-1,1.0,0.2676000000001295
571,2,0.8,0.0625,-35.0,-1,1.0,0.22859999999991487
572,2,0.8,1.0,-35.0,-1,1.0,0.21410000000014406
573,2,0.8,1.0,-35.0,-1,1.0,0.21170000000029177
574,2,0.8,0.25,35.0,-1,0.0,0.23469999999997526
575,2,0.8,1.0,-35.0,-1,1.0,0.19439999999985957
576,2,0.8,0.125,35.0,-1,0.0,0.28450000000020736
577,2,0.8,0.0625,-35.0,-1,1.0,0.3160000000002583
578,2,0.8,0.125,-35.0,-1,1.0,0.32459999999946376
579,2,0.8,0.0625,35.0,-1,0.0,0.285200000000259
580,2,0.8,0.25,-35.0,-1,1.0,0.24829999999974461
581,2,0.2,0.0,35.0,1,1.0,1.445299999999861
582,2,0.2,0.125,35.0,1,1.0,0.3914999999997235
583,2,0.2,0.25,35.0,1,1.0,0.2681999999999789
584,2,0.2,0.0,-35.0,1,0.0,0.29160000000001673
585,2,0.2,0.125,35.0,-1,0.0,0.33539999999993597
586,2,0.2,0.125,-35.0,-1,1.0,0.2750999999998385
587,2,0.2,0.25,35.0,1,1.0,0.27149999999983265
588,2,0.2,0.25,35.0,1,1.0,0.7986000000000786
589,2,0.2,0.0,35.0,1,1.0,0.27660000000014406
590,2,0.2,1.0,35.0,1,1.0,0.3352000000004409
591,2,0.2,0.0,-35.0,1,0.0,0.25969999999961146
592,2,0.2,0.25,35.0,1,1.0,0.6120999999998276
593,2,0.2,0.0625,35.0,1,1.0,0.47390000000041255
594,2,0.2,1.0,35.0,1,1.0,0.25549999999975626
595,2,0.2,0.0,-35.0,1,0.0,0.21390000000019427
596,2,0.2,0.0,35.0,1,1.0,1.412199999999757
597,2,0.2,0.0625,-35.0,1,0.0,0.3590999999996711
598,2,0.2,0.25,35.0,1,1.0,0.4125999999996566
599,2,0.2,0.0,-35.0,-1,1.0,0.3073000000003958
600,2,0.2,1.0,35.0,1,1.0,0.26279999999997017
601,2,0.2,1.0,35.0,1,1.0,0.38639999999986685
602,2,0.2,0.0,35.0,1,1.0,22.796100000000024
603,2,0.2,0.25,35.0,1,1.0,0.5238000000003922
604,2,0.2,0.0,35.0,1,1.0,0.5166000000003805
605,2,0.2,0.125,-35.0,-1,1.0,0.28890000000001237
606,2,0.2,0.25,-35.0,-1,1.0,0.3101000000001477
607,2,0.2,0.0625,35.0,-1,0.0,0.3739999999997963
608,2,0.2,1.0,-35.0,-1,1.0,0.31710000000020955
609,2,0.2,0.0,-35.0,1,0.0,15.833399999999529
610,2,0.2,1.0,35.0,1,1.0,0.2838000000001557
611,2,0.2,0.0,35.0,-1,0.0,0.3570999999997184
612,2,0.2,0.25,35.0,1,1.0,0.774000000000342
613,2,0.2,0.125,35.0,1,1.0,3.777599999999893
614,2,0.2,0.0625,35.0,1,1.0,0.34409999999979846
615,2,0.2,0.0625,35.0,1,1.0,0.6808999999998377
616,2,0.2,0.0,35.0,1,1.0,0.6610999999998057
617,2,0.2,0.25,35.0,1,1.0,0.625
618,2,0.2,0.125,35.0,1,1.0,0.4980999999997948
619,2,0.2,0.125,35.0,1,1.0,0.5081000000000131
620,2,0.2,0.0,35.0,1,1.0,0.4178999999999178
621,2,0.2,0.0625,35.0,1,1.0,0.26219999999966603
622,2,0.2,0.25,35.0,1,1.0,0.2446999999997388
623,2,0.2,0.0,35.0,-1,0.0,0.32979900000009366
624,2,0.2,0.25,35.0,1,1.0,0.3683000000000902
625,2,0.2,0.0,35.0,1,1.0,0.43859999999995125
626,2,0.2,0.25,35.0,1,1.0,0.4983999999999469
627,2,0.2,1.0,35.0,1,1.0,0.24579999999969004
628,2,0.2,0.0625,-35.0,1,0.0,0.30500000000029104
629,2,0.2,1.0,-35.0,-1,1.0,0.5691999999999098
630,2,0.2,1.0,-35.0,-1,1.0,0.2853000000004613
631,2,0.2,1.0,-35.0,-1,1.0,0.28579999999965366
632,2,0.2,0.0625,35.0,-1,0.0,0.3287999999997737
633,2,0.2,0.125,-35.0,1,0.0,3.1432999999997264
634,2,0.2,0.125,35.0,1,1.0,1.8291999999996733
635,2,0.2,0.0625,35.0,1,1.0,2.8332000000000335
636,2,0.2,1.0,35.0,1,1.0,0.31260000000020227
637,2,0.2,0.125,35.0,1,1.0,1.1532999999999447
638,2,0.8,1.0,-35.0,-1,1.0,0.45929999999953
639,2,0.8,0.0625,35.0,1,1.0,1.1734999999998763
640,2,0.8,0.0625,-35.0,1,0.0,1.3161000000000058
641,2,0.8,0.0625,35.0,1,1.0,5.699700000000121
642,2,0.8,0.25,-35.0,1,0.0,10.926400000000285
643,2,0.8,0.125,35.0,0,0.0,60.03099999999995
644,2,0.8,0.125,-35.0,1,0.0,23.871000000000095
645,2,0.8,0.125,35.0,0,0.0,60.027900000000045
646,2,0.8,0.125,-35.0,1,0.0,8.902299999999741
647,2,0.8,0.125,-35.0,1,0.0,6.339100000000144
648,2,0.8,0.0,-35.0,1,0.0,6.906700000000001
649,2,0.8,0.25,-35.0,1,0.0,4.136200000000372
650,2,0.8,0.0625,35.0,1,1.0,2.7871000000000095
651,2,0.8,0.0625,35.0,1,1.0,0.3831999999997606
652,2,0.8,1.0,35.0,1,1.0,1.009900000000016
1,3,0.5,0.0625,35.0,1,1.0,2.2236999999999996
2,3,0.5,0.25,-35.0,-1,1.0,0.25839999999999996
3,3,0.5,0.0,-35.0,1,0.0,1.1373999999999995
4,3,0.5,0.0,35.0,-1,0.0,0.2602999999999973
5,3,0.5,0.25,35.0,1,1.0,0.267199999999999
6,3,0.5,0.25,-35.0,-1,1.0,0.2741000000000007
7,3,0.5,0.0,-35.0,1,0.0,0.7494000000000014
8,3,0.5,0.125,35.0,1,1.0,0.3336999999999968
9,3,0.5,0.125,35.0,1,1.0,0.2616000000000014
10,3,0.5,0.25,35.0,1,1.0,0.24209999999999354
11,3,0.5,1.0,-35.0,-1,1.0,0.2790999999999997
12,3,0.5,1.0,-35.0,-1,1.0,0.4194000000000031
13,3,0.5,1.0,35.0,1,1.0,0.2202999999999946
14,3,0.5,0.0625,35.0,1,1.0,0.32459999999999667
15,3,0.5,1.0,-35.0,-1,1.0,0.22650000000000148
16,3,0.5,0.0625,35.0,1,1.0,0.36469999999999914
17,3,0.5,0.0625,35.0,1,1.0,0.5287999999999968
18,3,0.5,0.0625,35.0,1,1.0,0.29649999999999466
19,3,0.5,0.0,35.0,1,1.0,1.6062000000000012
20,3,0.5,0.0,-35.0,1,0.0,0.31799999999999784
21,3,0.5,1.0,-35.0,-1,1.0,0.28839999999999577
22,3,0.5,1.0,35.0,1,1.0,0.2507999999999839
23,3,0.5,0.25,-35.0,-1,1.0,0.23729999999999052
24,3,0.5,0.125,-35.0,-1,1.0,0.7566000000000059
25,3,0.5,0.125,-35.0,-1,1.0,0.2464999999999975
26,3,0.5,0.125,-35.0,-1,1.0,0.5917999999999921
27,3,0.5,0.0,-35.0,1,0.0,2.1747999999999905
28,3,0.5,0.0625,35.0,-1,0.0,0.5215000000000032
29,3,0.5,0.0625,-35.0,-1,1.0,0.2400999999999982
30,3,0.5,1.0,35.0,1,1.0,1.585000000000008
31,3,0.5,0.0625,35.0,-1,0.0,0.31059999999999377
32,3,0.5,0.0,35.0,-1,0.0,4.714000000000013
33,3,0.5,0.25,-35.0,-1,1.0,0.23160000000000025
34,3,0.5,0.125,35.0,1,1.0,0.23380000000000223
35,3,0.5,0.25,35.0,1,1.0,0.3091000000000008
36,3,0.5,0.25,35.0,1,1.0,0.27430000000001087
37,3,0.5,0.0,-35.0,1,0.0,0.9338000000000193
38,3,0.5,0.0625,-35.0,-1,1.0,0.24570000000002779
39,3,0.5,0.125,35.0,-1,0.0,0.2552000000000305
40,3,0.5,0.125,35.0,1,1.0,0.22110000000000696
41,3,0.5,0.25,35.0,1,1.0,0.2661000000000229
42,3,0.5,0.25,35.0,1,1.0,0.23520000000002028
43,3,0.5,0.125,-35.0,-1,1.0,0.2522000000000162
44,3,0.5,0.0,35.0,-1,0.0,0.22870000000003188
45,3,0.5,0.25,-35.0,-1,1.0,0.26660000000003947
46,3,0.5,0.125,35.0,-1,0.0,0.09039999999998827
47,3,0.5,0.125,35.0,1,1.0,0.23850000000001614
48,3,0.5,0.0625,-35.0,1,0.0,0.6956000000000131
49,3,0.5,0.0,-35.0,-1,1.0,0.17330000000001178
50,3,0.5,1.0,-35.0,-1,1.0,0.24729999999999563
51,3,0.5,0.125,-35.0,1,0.0,2.7073000000000036
52,3,0.5,1.0,-35.0,-1,1.0,0.23930000000001428
53,3,0.5,1.0,-35.0,-1,1.0,0.20880000000002497
54,3,0.5,0.0625,-35.0,-1,1.0,0.2277000000000271
55,3,0.5,0.25,-35.0,-1,1.0,0.2171000000000447
56,3,0.5,0.0,-35.0,-1,1.0,1.4561000000000206
57,3,0.5,1.0,35.0,1,1.0,0.25149999999999295
58,3,0.5,1.0,-35.0,-1,1.0,0.20010000000002037
59,3,0.5,0.0,-35.0,-1,1.0,0.15370000000004325
60,3,0.5,0.0625,-35.0,-1,1.0,0.2377999999999929
61,3,0.5,1.0,35.0,1,1.0,0.19839999999999236
62,3,0.5,0.25,-35.0,-1,1.0,0.21289999999999054
63,3,0.5,0.25,-35.0,-1,1.0,0.25310000000004607
64,3,0.5,0.0,35.0,-1,0.0,0.2260000000000275
65,3,0.5,0.125,-35.0,-1,1.0,0.5181000000000324
66,3,0.5,0.0625,35.0,1,1.0,0.4455999999999847
67,3,0.5,1.0,-35.0,-1,1.0,0.3171000000000106
68,3,0.5,0.125,-35.0,-1,1.0,0.2633999999999901
69,3,0.5,0.0,35.0,1,1.0,1.3950999999999567
70,3,0.5,1.0,-35.0,-1,1.0,0.20829999999995152
71,3,0.5,0.0625,35.0,-1,0.0,2.628099999999961
72,3,0.5,0.25,35.0,1,1.0,0.22419999999999618
73,3,0.5,1.0,35.0,1,1.0,0.32529999999997017
74,3,0.5,0.0,-35.0,1,0.0,0.34159999999997126
75,3,0.5,0.0625,-35.0,1,0.0,0.5439999999999259
76,3,0.5,0.0,-35.0,1,0.0,0.2649999999999295
77,3,0.5,1.0,35.0,1,1.0,0.15989999999999327
78,3,0.5,0.25,-35.0,-1,1.0,0.3072999999999979
79,3,0.5,1.0,-35.0,-1,1.0,0.20429999999998927
80,3,0.5,0.0,-35.0,-1,1.0,0.17709999999999582
81,3,0.5,0.0,-35.0,1,0.0,0.8177000000000021
82,3,0.5,0.0,35.0,-1,0.0,0.2362999999999147
83,3,0.5,0.25,35.0,1,1.0,0.26490000000001146
84,3,0.5,0.0,-35.0,1,0.0,0.24569999999999936
85,3,0.5,1.0,35.0,1,1.0,0.22639999999995553
86,3,0.5,0.25,35.0,1,1.0,0.2534999999999741
87,3,0.5,0.125,-35.0,1,0.0,0.40280000000001337
88,3,0.5,0.125,35.0,1,1.0,0.23179999999996426
89,3,0.5,1.0,35.0,1,1.0,0.23210000000000264
90,3,0.5,0.0,35.0,1,1.0,0.31889999999992824
91,3,0.8,0.25,-35.0,1,0.0,0.34840000000002647
92,3,0.8,0.125,-35.0,1,0.0,0.24680000000000746
93,3,0.8,1.0,-35.0,-1,1.0,0.23409999999995534
94,3,0.8,1.0,-35.0,-1,1.0,0.22849999999999682
95,3,0.8,0.25,-35.0,-1,1.0,0.23579999999998336
96,3,0.8,0.0,-35.0,-1,1.0,0.21839999999997417
97,3,0.8,1.0,-35.0,-1,1.0,0.20309999999994943
98,3,0.8,0.125,-35.0,-1,1.0,0.16999999999995907
99,3,0.8,1.0,35.0,1,1.0,0.23529999999993834
100,3,0.8,0.25,-35.0,-1,1.0,0.20150000000001
101,3,0.8,0.125,-35.0,-1,1.0,0.15910000000002356
102,3,0.8,0.25,-35.0,-1,1.0,0.5172000000000025
103,3,0.8,1.0,-35.0,-1,1.0,0.3225999999999658
104,3,0.8,0.125,-35.0,-1,1.0,0.20299999999997453
105,3,0.8,1.0,-35.0,-1,1.0,0.14200000000005275
106,3,0.8,1.0,-35.0,-1,1.0,0.17709999999993897
107,3,0.8,0.0,-35.0,-1,1.0,0.24039999999996553
108,3,0.8,0.0625,-35.0,1,0.0,1.4035000000000082
109,3,0.8,0.25,35.0,1,1.0,0.242999999999995
110,3,0.8,0.0625,-35.0,1,0.0,0.11540000000002237
111,3,0.8,0.0625,-35.0,1,0.0,0.18219999999996617
112,3,0.8,0.0,-35.0,1,0.0,1.9624999999999773
113,3,0.8,0.25,-35.0,1,0.0,0.11000000000001364
114,3,0.8,0.125,-35.0,-1,1.0,0.29740000000003874
115,3,0.8,0.0,-35.0,-1,1.0,0.4490999999999872
116,3,0.8,0.0,-35.0,1,0.0,2.6988999999999805
117,3,0.8,1.0,-35.0,-1,1.0,0.15610000000003765
118,3,0.8,0.125,-35.0,-1,1.0,0.20050100000003113
119,3,0.8,0.25,-35.0,-1,1.0,0.19380100000000766
120,3,0.8,0.25,-35.0,-1,1.0,0.5372009999999818
121,3,0.8,1.0,-35.0,-1,1.0,0.3026010000000383
122,3,0.8,0.125,-35.0,-1,1.0,0.3953009999999608
123,3,0.8,0.125,-35.0,-1,1.0,0.2949009999999248
124,3,0.8,0.0625,-35.0,-1,1.0,0.23240099999998165
125,3,0.8,1.0,-35.0,-1,1.0,0.19000099999993836
126,3,0.8,0.25,-35.0,1,0.0,0.08460099999996373
127,3,0.8,0.125,-35.0,-1,1.0,0.2216009999999642
128,3,0.8,0.0,-35.0,-1,1.0,0.28710100000000693
129,3,0.8,0.0,-35.0,-1,1.0,0.18650100000002112
130,3,0.8,0.0,-35.0,1,0.0,2.2656010000000606
131,3,0.8,1.0,35.0,1,1.0,0.31890100000009625
132,3,0.8,0.125,-35.0,-1,1.0,0.2231010000000424
133,3,0.8,1.0,-35.0,-1,1.0,0.43580099999996946
134,3,0.8,0.0,-35.0,-1,1.0,0.23040100000002894
135,3,0.8,1.0,-35.0,1,0.0,3.298701000000051
136,3,0.8,0.0625,-35.0,-1,1.0,1.0991010000000188
137,3,0.8,1.0,35.0,1,1.0,0.1828010000000404
138,3,0.8,0.0625,-35.0,-1,1.0,0.2900010000000748
139,3,0.2,0.125,35.0,1,1.0,1.7487009999999827
140,3,0.2,0.125,35.0,1,1.0,0.09120100000006914
141,3,0.2,1.0,35.0,1,1.0,0.14790100000004713
142,3,0.2,0.25,35.0,1,1.0,0.21830099999999675
143,3,0.2,0.0625,35.0,1,1.0,0.2329010000000835
144,3,0.2,0.0,35.0,1,1.0,0.286000999999942
145,3,0.2,0.125,35.0,1,1.0,0.38540100000011535
146,3,0.2,0.0625,35.0,-1,0.0,0.2615010000000666
147,3,0.2,0.125,35.0,1,1.0,0.2591009999999869
148,3,0.2,1.0,35.0,1,1.0,0.261101000000167
149,3,0.2,0.125,35.0,1,1.0,0.09340099999997165
150,3,0.2,0.25,35.0,1,1.0,0.2372010000000273
151,3,0.2,1.0,35.0,1,1.0,0.25660099999993236
152,3,0.2,0.125,35.0,1,1.0,0.20670100000006641
153,3,0.2,1.0,-35.0,-1,1.0,0.4794010000001663
154,3,0.2,0.25,35.0,1,1.0,0.12350100000014663
155,3,0.2,0.125,35.0,-1,0.0,0.23830099999997856
156,3,0.2,1.0,-35.0,-1,1.0,0.3179010000000062
157,3,0.2,0.0,35.0,1,1.0,0.2518010000000004
158,3,0.2,0.25,35.0,1,1.0,0.36970100000007733
159,3,0.2,0.0,35.0,1,1.0,0.9573010000000295
160,3,0.2,0.0625,35.0,-1,0.0,0.18720100000007278
161,3,0.2,0.25,35.0,1,1.0,0.21830100000011043
162,3,0.2,1.0,35.0,1,1.0,0.1969010000000253
163,3,0.2,0.125,35.0,1,1.0,0.28240100000004986
164,3,0.2,0.0625,35.0,1,1.0,0.3175010000001066
165,3,0.2,0.25,35.0,1,1.0,0.2619010000000799
166,3,0.2,0.125,35.0,1,1.0,0.14990099999999984
167,3,0.2,0.25,35.0,1,1.0,0.16090100000008078
168,3,0.2,0.125,35.0,1,1.0,0.4070010000000366
169,3,0.2,0.125,35.0,1,1.0,0.21780100000012226
170,3,0.2,1.0,35.0,1,1.0,0.2579010000000608
171,3,0.2,0.0,35.0,1,1.0,0.19350099999996928
172,3,0.2,0.25,35.0,1,1.0,0.2551009999999678
173,3,0.2,0.125,-35.0,1,0.0,0.1704010000000835
174,3,0.2,1.0,35.0,1,1.0,0.2047010000001137
175,3,0.2,0.25,35.0,1,1.0,0.27640100000007806
176,3,0.8,0.0,35.0,1,1.0,0.1262010000000373
177,3,0.8,0.0,-35.0,1,0.0,0.2511010000000624
178,3,0.8,0.125,-35.0,1,0.0,0.31850100000008297
179,3,0.8,1.0,35.0,1,1.0,0.25820100000009916
180,3,0.8,0.125,-35.0,-1,1.0,0.3203010000000859
181,3,0.8,0.25,-35.0,-1,1.0,0.2347010000002001
182,3,0.8,0.0625,-35.0,-1,1.0,0.22890100000006441
183,3,0.8,0.0,35.0,1,1.0,0.2723009999999704
184,3,0.8,0.0625,-35.0,1,0.0,0.09360100000003513
185,3,0.8,0.0625,-35.0,1,0.0,0.18170099999997547
186,3,0.8,0.25,-35.0,-1,1.0,0.18150099999991198
187,3,0.8,0.25,-35.0,-1,1.0,0.23430100000007315
188,3,0.8,0.0625,-35.0,-1,1.0,0.17780100000004495
189,3,0.8,0.0625,-35.0,-1,1.0,0.21960100000001148
190,3,0.8,0.125,35.0,-1,0.0,0.2553010000000313
191,3,0.8,1.0,35.0,1,1.0,0.2009010000000444
192,3,0.8,0.125,-35.0,-1,1.0,0.26870099999996455
193,3,0.8,1.0,-35.0,1,0.0,1.4642010000001164
194,3,0.8,0.25,-35.0,-1,1.0,0.916101000000026
195,3,0.8,1.0,35.0,1,1.0,0.21390100000007806
196,3,0.8,0.125,35.0,1,1.0,0.3807009999999309
197,3,0.8,0.0625,-35.0,1,0.0,0.10090100000013535
198,3,0.8,0.125,-35.0,-1,1.0,0.4913010000000213
199,3,0.8,0.125,-35.0,-1,1.0,0.20480099999997492
200,3,0.8,0.25,-35.0,-1,1.0,0.24380100000007587
201,3,0.8,0.25,-35.0,-1,1.0,0.12740099999996346
202,3,0.2,0.0625,35.0,-1,0.0,0.44610099999999875
203,3,0.2,0.0,35.0,-1,0.0,0.24010099999998147
204,3,0.2,0.0625,-35.0,1,0.0,0.23170099999993
205,3,0.2,0.125,35.0,1,1.0,0.26430100000004586
206,3,0.2,0.0,-35.0,1,0.0,2.4638009999999895
207,3,0.2,0.0,35.0,1,1.0,0.2370010000000775
208,3,0.2,0.25,-35.0,-1,1.0,0.23040100000002894
209,3,0.2,0.25,35.0,1,1.0,0.27060100000005605
210,3,0.2,0.0,-35.0,-1,1.0,0.30900100000008024
211,3,0.2,0.0,35.0,1,1.0,1.32320100000004
212,3,0.2,0.0625,35.0,1,1.0,1.256601000000046
213,3,0.2,0.125,35.0,1,1.0,0.5097010000000637
214,3,0.2,0.125,35.0,1,1.0,0.24830099999996946
215,3,0.2,1.0,35.0,1,1.0,0.16330100000004677
216,3,0.2,0.25,35.0,1,1.0,0.15810100000010152
217,3,0.2,0.0,35.0,1,1.0,0.1625010000000202
218,3,0.2,0.25,35.0,1,1.0,0.7433010000000877
219,3,0.2,0.0625,35.0,1,1.0,0.2637010000000828
220,3,0.2,0.25,35.0,1,1.0,0.22280100000000402
221,3,0.2,0.0,35.0,1,1.0,0.13330100000007405
222,3,0.2,1.0,35.0,1,1.0,0.1462010000001328
223,3,0.2,0.0625,35.0,1,1.0,0.11940100000003895
224,3,0.2,0.25,35.0,1,1.0,0.102600999999936
225,3,0.2,0.125,35.0,1,1.0,0.21430100000009134
226,3,0.8,0.25,-35.0,-1,1.0,0.6885009999999738
227,3,0.8,1.0,-35.0,-1,1.0,0.31860100000005787
228,3,0.8,0.0,-35.0,1,0.0,0.20020099999999275
229,3,0.8,0.125,-35.0,-1,1.0,0.46050100000002203
230,3,0.8,0.25,-35.0,-1,1.0,0.2739010000001372
231,3,0.8,0.0,-35.0,1,0.0,1.2457010000000537
232,3,0.8,0.0,35.0,-1,0.0,0.3323010000000295
233,3,0.8,0.125,-35.0,-1,1.0,0.19170099999996637
234,3,0.8,0.125,-35.0,-1,1.0,0.3039009999999962
235,3,0.8,1.0,-35.0,-1,1.0,0.23259999999993397
236,3,0.8,0.125,-35.0,-1,1.0,0.25640099999998256
237,3,0.8,0.125,-35.0,1,0.0,0.7811010000000351
238,3,0.8,0.0,-35.0,-1,1.0,0.2921010000001161
239,3,0.8,0.25,-35.0,-1,1.0,0.22190100000011626
240,3,0.8,0.25,35.0,-1,0.0,0.17570100000011735
241,3,0.8,0.25,35.0,-1,0.0,0.23900100000003022
242,3,0.8,0.0,-35.0,1,0.0,0.2957010000000082
243,3,0.8,0.125,35.0,-1,0.0,0.19550100000014936
244,3,0.8,0.0625,-35.0,-1,1.0,0.26260099999990416
245,3,0.8,1.0,-35.0,-1,1.0,0.212601000000177
246,3,0.8,0.0,-35.0,-1,1.0,0.21610100000020793
247,3,0.8,1.0,-35.0,-1,1.0,0.2093009999998685
248,3,0.8,0.25,-35.0,-1,1.0,0.2228010000001177
249,3,0.8,1.0,-35.0,-1,1.0,0.12910100000021885
250,3,0.8,0.0,-35.0,1,0.0,1.64970100000005
251,3,0.8,0.0625,35.0,-1,0.0,0.23630100000013954
252,3,0.8,0.0625,-35.0,-1,1.0,0.18310100000007878
253,3,0.8,0.0625,-35.0,-1,1.0,0.18970100000001366
254,3,0.8,0.125,35.0,-1,0.0,0.19010100000014063
255,3,0.8,0.125,-35.0,-1,1.0,0.249800999999934
256,3,0.8,0.0625,-35.0,-1,1.0,0.2667010000002392
257,3,0.8,1.0,-35.0,-1,1.0,0.1967010000000755
258,3,0.8,0.0625,-35.0,-1,1.0,0.10350100000005114
259,3,0.8,0.0625,-35.0,-1,1.0,0.15990100000021812
260,3,0.8,0.125,-35.0,-1,1.0,0.21370100000012826
261,3,0.8,0.0625,-35.0,-1,1.0,0.11690100000009807
262,3,0.8,0.0,-35.0,1,0.0,1.6505010000000766
263,3,0.8,0.0,-35.0,1,0.0,2.067000999999891
264,3,0.8,0.25,-35.0,-1,1.0,0.2306010000002061
265,3,0.8,0.0625,-35.0,-1,1.0,0.8140010000001894
266,3,0.8,0.0625,35.0,-1,0.0,0.22750100000007478
267,3,0.8,1.0,-35.0,-1,1.0,0.2171009999999569
268,3,0.8,0.25,-35.0,-1,1.0,0.22750100000007478
269,3,0.8,1.0,-35.0,-1,1.0,0.21410100000002785
270,3,0.8,1.0,35.0,1,1.0,0.21450099999992744
271,3,0.8,0.0,35.0,-1,0.0,0.23450100000013663
272,3,0.8,0.125,35.0,1,1.0,0.4280009999997674
273,3,0.8,0.125,-35.0,1,0.0,0.6243009999998321
274,3,0.8,0.0,-35.0,1,0.0,0.4214009999998325
275,3,0.8,0.0,-35.0,-1,1.0,0.5048010000000431
276,3,0.8,0.125,-35.0,-1,1.0,0.18160100000022794
277,3,0.8,0.0,-35.0,-1,1.0,0.16510100000004968
278,3,0.8,0.0,-35.0,-1,1.0,0.23160100000018247
279,3,0.8,0.0625,-35.0,-1,1.0,0.42150100000003476
280,3,0.8,0.25,35.0,1,1.0,0.24850100000026032
281,3,0.8,0.25,35.0,1,1.0,0.2154009999999289
282,3,0.8,0.0,-35.0,1,0.0,0.28550099999984013
283,3,0.8,0.125,-35.0,-1,1.0,0.24520099999995182
284,3,0.8,0.0625,-35.0,-1,1.0,0.4689010000001872
285,3,0.8,0.125,-35.0,-1,1.0,0.33900100000005295
286,3,0.8,0.25,-35.0,-1,1.0,0.26230099999997947
287,3,0.8,0.0,-35.0,-1,1.0,0.2157009999998536
288,3,0.8,1.0,35.0,1,1.0,0.26250100000015664
289,3,0.8,0.125,-35.0,-1,1.0,0.08560099999999693
290,3,0.8,0.125,35.0,1,1.0,1.086001000000124
291,3,0.8,0.25,-35.0,-1,1.0,0.21910099999990962
292,3,0.8,0.0625,-35.0,-1,1.0,0.21280099999989943
293,3,0.8,0.0,-35.0,-1,1.0,0.11280099999999038
294,3,0.8,0.25,35.0,1,1.0,0.18620100000021012
295,3,0.8,0.0,35.0,-1,0.0,0.3263010000000577
296,3,0.8,1.0,-35.0,-1,1.0,0.21620099999995546
297,3,0.8,0.125,-35.0,-1,1.0,0.23640099999988706
298,3,0.8,1.0,35.0,1,1.0,0.2495010000000093
299,3,0.8,0.25,35.0,-1,0.0,0.13000099999999293
300,3,0.8,1.0,-35.0,-1,1.0,0.17970100000025013
301,3,0.8,0.25,-35.0,-1,1.0,0.1369009999998525
302,3,0.8,0.125,-35.0,-1,1.0,0.13050099999986742
303,3,0.8,0.125,-35.0,-1,1.0,0.2236009999999169
304,3,0.2,0.0625,35.0,1,1.0,0.26010100000007697
305,3,0.2,0.0625,35.0,1,1.0,0.2070009999999911
306,3,0.2,0.0625,35.0,1,1.0,0.6702010000001337
307,3,0.2,1.0,-35.0,-1,1.0,0.21380100000010316
308,3,0.2,1.0,-35.0,-1,1.0,0.187300999999934
309,3,0.2,0.125,35.0,1,1.0,0.2207010000001901
310,3,0.2,0.25,-35.0,-1,1.0,0.31710100000009334
311,3,0.2,0.25,35.0,1,1.0,0.6276009999999133
312,3,0.2,0.0625,35.0,1,1.0,0.534300999999914
313,3,0.2,0.0625,-35.0,-1,1.0,0.24430099999995036
314,3,0.2,0.0,35.0,-1,0.0,0.20760100000006787
315,3,0.2,0.0,-35.0,-1,1.0,0.2611010000002807
316,3,0.2,0.0625,35.0,1,1.0,1.094201000000112
317,3,0.2,0.125,35.0,-1,0.0,0.15790100000003804
318,3,0.2,1.0,-35.0,-1,1.0,0.2009010000001581
319,3,0.2,1.0,35.0,1,1.0,0.3181009999998423
320,3,0.2,0.125,35.0,-1,0.0,0.3378010000001268
321,3,0.2,1.0,35.0,1,1.0,0.15150099999982558
322,3,0.2,0.25,35.0,-1,0.0,0.28500099999996564
323,3,0.2,0.125,35.0,1,1.0,0.2616009999999278
324,3,0.2,0.0625,-35.0,1,0.0,0.37510100000008606
325,3,0.2,1.0,35.0,1,1.0,0.21200100000010025
326,3,0.2,0.0,-35.0,1,0.0,0.2984010000000126
327,3,0.2,1.0,-35.0,-1,1.0,0.19860100000005332
328,3,0.2,0.125,35.0,-1,0.0,0.22230100000001585
329,3,0.2,1.0,35.0,-1,0.0,0.13540100000022903
330,3,0.2,0.0,35.0,-1,0.0,0.22560100000032435
331,3,0.2,0.0625,35.0,-1,0.0,0.23230100000000675
332,3,0.2,1.0,35.0,1,1.0,0.24540099999990161
333,3,0.2,0.0,35.0,1,1.0,0.2592010000000755
334,3,0.2,0.0625,35.0,1,1.0,0.1489010000000235
335,3,0.2,0.0,35.0,1,1.0,0.23590100000001257
336,3,0.2,0.0,-35.0,1,0.0,0.5591010000000551
337,3,0.2,0.0625,35.0,1,1.0,0.2895010000002003
338,3,0.2,0.0,-35.0,-1,1.0,0.189000999999962
339,3,0.2,0.0625,-35.0,-1,1.0,0.23610099999996237
340,3,0.2,0.25,-35.0,-1,1.0,0.2560009999999693
341,3,0.2,0.0,35.0,-1,0.0,0.18650099999990744
342,3,0.2,1.0,35.0,1,1.0,0.2229010000000926
343,3,0.2,1.0,35.0,1,1.0,0.25970099999995
344,3,0.2,1.0,35.0,1,1.0,0.16630099999997583
345,3,0.2,1.0,35.0,1,1.0,0.16000099999996564
346,3,0.2,0.25,35.0,1,1.0,0.21980099999996128
347,3,0.2,0.0,35.0,1,1.0,0.18020100000012462
348,3,0.2,0.0625,-35.0,1,0.0,0.15690100000006169
349,3,0.2,0.0,-35.0,1,0.0,0.2534009999999398
350,3,0.2,0.0625,35.0,1,1.0,0.40000099999997474
351,3,0.2,0.0625,35.0,1,1.0,0.2171009999999569
352,3,0.2,1.0,35.0,1,1.0,0.18000099999994745
353,3,0.2,0.25,35.0,1,1.0,0.22380100000009406
354,3,0.2,1.0,-35.0,-1,1.0,0.3335010000000693
355,3,0.2,1.0,35.0,1,1.0,0.2541009999999915
356,3,0.2,0.25,-35.0,-1,1.0,0.23050100000000384
357,3,0.2,1.0,35.0,1,1.0,0.20430100000021412
358,3,0.2,0.0,35.0,1,1.0,0.3607009999998354
359,3,0.2,0.25,35.0,1,1.0,0.161000999999942
360,3,0.2,0.0625,-35.0,1,0.0,0.21370100000012826
361,3,0.2,0.0625,35.0,-1,0.0,0.28100100000006023
362,3,0.2,0.25,35.0,1,1.0,0.3580010000000584
363,3,0.2,0.0625,35.0,-1,0.0,0.2979010000001381
364,3,0.2,1.0,35.0,1,1.0,0.20450099999993654
365,3,0.2,0.0625,35.0,1,1.0,0.3580010000000584
366,3,0.2,1.0,35.0,1,1.0,0.19800099999997656
367,3,0.2,1.0,35.0,1,1.0,0.20810099999994236
368,3,0.2,0.25,35.0,1,1.0,0.18810099999996055
369,3,0.2,0.0625,-35.0,1,0.0,0.4351010000000315
370,3,0.2,0.25,-35.0,-1,1.0,0.29500099999995655
371,3,0.2,1.0,35.0,1,1.0,0.2516009999999369
372,3,0.2,0.0625,-35.0,-1,1.0,0.268601000000217
373,3,0.2,0.125,-35.0,-1,1.0,0.16180099999996855
374,3,0.2,0.25,35.0,1,1.0,0.2353009999999358
375,3,0.2,0.25,35.0,-1,0.0,0.12200099999995473
376,3,0.2,1.0,35.0,1,1.0,0.14850099999989652
377,3,0.2,0.0625,35.0,-1,0.0,0.23210100000005696
378,3,0.2,1.0,-35.0,-1,1.0,0.21210100000007515
379,3,0.2,0.125,35.0,1,1.0,0.2923009999999522
380,3,0.2,0.0625,35.0,1,1.0,0.23210100000005696
381,3,0.2,0.0625,35.0,1,1.0,0.42930100000012317
382,3,0.2,0.0,35.0,1,1.0,0.21600100000023303
383,3,0.2,1.0,35.0,1,1.0,0.27620100000012826
384,3,0.2,0.0,35.0,1,1.0,0.37950100000011844
385,3,0.2,0.0,35.0,1,1.0,0.18600100000003295
386,3,0.2,0.0,35.0,1,1.0,0.27270099999986996
387,3,0.2,0.25,35.0,1,1.0,0.2862009999998918
388,3,0.2,1.0,-35.0,-1,1.0,0.24270100000012462
389,3,0.2,0.25,35.0,1,1.0,0.21980099999996128
390,3,0.2,0.0625,35.0,1,1.0,0.14940100000012535
391,3,0.2,0.0,35.0,-1,0.0,0.31310099999996055
392,3,0.2,0.0,35.0,1,1.0,0.34300099999995837
393,3,0.2,0.0,35.0,1,1.0,0.3134010000001126
394,3,0.2,0.0,35.0,1,1.0,0.21040100000004713
395,3,0.8,0.25,35.0,-1,0.0,0.26030100000002676
396,3,0.8,0.25,-35.0,1,0.0,0.26040100000000166
397,3,0.8,0.125,35.0,1,1.0,0.2640010000000075
398,3,0.8,0.125,-35.0,1,0.0,0.2537010000000919
399,3,0.8,0.0625,-35.0,1,0.0,0.31720100000006823
400,3,0.8,1.0,-35.0,-1,1.0,0.3073010000000522
401,3,0.8,1.0,-35.0,-1,1.0,0.28090100000008533
402,3,0.8,0.25,-35.0,-1,1.0,0.24380100000007587
403,3,0.8,0.125,35.0,1,1.0,0.2642009999999573
404,3,0.8,0.0625,-35.0,-1,1.0,0.22380100000009406
405,3,0.8,1.0,35.0,1,1.0,0.20100099999990562
406,3,0.8,1.0,-35.0,-1,1.0,0.5378009999999449
407,3,0.8,1.0,35.0,1,1.0,0.28460100000006605
408,3,0.8,0.25,-35.0,-1,1.0,0.19400100000007114
409,3,0.8,1.0,-35.0,-1,1.0,0.2414009999999962
410,3,0.8,0.0625,-35.0,-1,1.0,0.21450100000015482
411,3,0.8,0.0,-35.0,1,0.0,2.1013010000001486
412,3,0.8,0.25,-35.0,-1,1.0,0.2211010000000897
413,3,0.8,0.125,35.0,1,1.0,0.5682010000000446
414,3,0.8,0.0625,35.0,1,1.0,0.4616009999999733
415,3,0.8,0.25,-35.0,-1,1.0,0.27510099999994964
416,3,0.8,0.25,-35.0,-1,1.0,0.24820099999988088
417,3,0.8,0.25,-35.0,-1,1.0,0.22190100000011626
418,3,0.8,0.25,35.0,1,1.0,0.3021009999999933
419,3,0.8,0.0,-35.0,1,0.0,0.23200100000008206
420,3,0.8,0.25,-35.0,-1,1.0,0.22220100000004095
421,3,0.8,0.0625,-35.0,-1,1.0,0.2620009999998274
422,3,0.8,0.125,35.0,1,1.0,0.29250100000012935
423,3,0.8,0.25,35.0,1,1.0,0.248801000000185
424,3,0.2,0.0625,-35.0,-1,1.0,0.26250100000015664
425,3,0.2,0.25,35.0,1,1.0,0.22590100000002167
426,3,0.2,0.125,35.0,1,1.0,0.13260099999979502
427,3,0.2,0.0,35.0,1,1.0,0.20260099999995873
428,3,0.2,1.0,35.0,1,1.0,0.20620099999996455
429,3,0.2,0.0625,-35.0,-1,1.0,0.16270100000019738
430,3,0.2,0.0625,-35.0,-1,1.0,0.269600999999966
431,3,0.2,1.0,35.0,1,1.0,0.2996009999999387
432,3,0.2,0.25,35.0,1,1.0,0.3297010000001137
433,3,0.2,0.0625,35.0,1,1.0,0.10660100000018247
434,3,0.2,0.125,35.0,1,1.0,0.20000100000015664
435,3,0.2,1.0,35.0,1,1.0,0.20010099999990416
436,3,0.2,0.125,35.0,1,1.0,0.26050100000020393
437,3,0.2,1.0,-35.0,1,0.0,0.5000010000001112
438,3,0.2,0.25,35.0,1,1.0,0.18360099999995327
439,3,0.2,0.0625,35.0,1,1.0,1.493701000000101
440,3,0.2,0.0625,35.0,1,1.0,1.4771009999999478
441,3,0.2,0.25,35.0,1,1.0,0.23670100000003913
442,3,0.2,0.0,35.0,-1,0.0,0.20060100000000602
443,3,0.2,0.0625,35.0,1,1.0,0.4467010000003029
444,3,0.2,0.0,35.0,1,1.0,0.24740099999985432
445,3,0.2,0.0,-35.0,1,0.0,0.2539010000000417
446,3,0.2,0.125,35.0,-1,0.0,0.30080100000009224
447,3,0.2,0.0625,35.0,1,1.0,0.2740009999999984
448,3,0.2,0.25,35.0,1,1.0,0.4311010000001261
449,3,0.2,1.0,35.0,1,1.0,0.2410010000000966
450,3,0.2,0.0,35.0,1,1.0,0.13780100000008133
451,3,0.2,0.25,35.0,1,1.0,0.2876009999999951
452,3,0.2,0.25,35.0,1,1.0,0.3180009999998674
453,3,0.2,0.25,35.0,1,1.0,0.15790100000003804
454,3,0.2,0.125,35.0,1,1.0,0.21820100000013554
455,3,0.2,0.25,35.0,1,1.0,0.37120100000015555
456,3,0.2,0.0625,35.0,1,1.0,0.17160100000000966
457,3,0.2,0.0625,-35.0,-1,1.0,0.28820100000007187
458,3,0.2,0.0,35.0,1,1.0,0.368300999999974
459,3,0.2,1.0,-35.0,-1,1.0,0.4120010000001457
460,3,0.2,1.0,35.0,1,1.0,0.1853009999999813
461,3,0.2,0.0,35.0,1,1.0,0.1585010000001148
462,3,0.2,0.0625,35.0,1,1.0,0.23870099999999184
463,3,0.2,0.0625,-35.0,1,0.0,0.15190100000017992
464,3,0.2,0.0625,35.0,1,1.0,0.7921010000000024
465,3,0.2,0.25,-35.0,-1,1.0,0.2853010000001177
466,3,0.2,1.0,35.0,1,1.0,0.23900099999991653
467,3,0.2,0.0625,35.0,1,1.0,0.18600100000026032
468,3,0.2,0.0,35.0,-1,0.0,0.292500999999902
469,3,0.2,0.125,-35.0,1,0.0,0.5386010000001988
470,3,0.2,0.125,35.0,1,1.0,0.2661009999999351
471,3,0.2,0.0625,35.0,1,1.0,0.3661010000002989
472,3,0.2,1.0,35.0,1,1.0,0.24630100000013044
473,3,0.2,0.0625,35.0,1,1.0,0.2527010000001155
474,3,0.2,0.25,35.0,1,1.0,0.2531010000000151
475,3,0.2,1.0,35.0,1,1.0,0.32970099999988633
476,3,0.2,0.0,35.0,1,1.0,0.25660100000004604
477,3,0.2,0.125,35.0,1,1.0,0.6663009999999758
478,3,0.2,0.125,35.0,1,1.0,0.2702009999998154
479,3,0.2,0.0,35.0,-1,0.0,0.26290100000005623
480,3,0.2,1.0,35.0,1,1.0,0.23040099999980157
481,3,0.2,0.125,35.0,1,1.0,0.2470010000001821
482,3,0.2,0.0625,35.0,1,1.0,0.1671010000000024
483,3,0.2,0.0,35.0,1,1.0,0.3034010000001217
484,3,0.2,0.0,-35.0,1,0.0,0.5573010000002796
485,3,0.2,0.125,35.0,1,1.0,0.24040100000001985
486,3,0.2,1.0,35.0,-1,0.0,0.113901000000169
487,3,0.2,0.0,-35.0,1,0.0,0.2607010000001537
488,3,0.2,0.0,35.0,1,1.0,0.7307009999999536
489,3,0.2,0.0,35.0,1,1.0,0.2571010000001479
490,3,0.2,0.25,35.0,1,1.0,0.24440099999992526
491,3,0.2,0.0,-35.0,1,0.0,0.19070099999999002
492,3,0.2,0.0,35.0,-1,0.0,0.28470100000004095
493,3,0.2,0.125,35.0,1,1.0,0.27770099999952436
494,3,0.2,0.25,35.0,1,1.0,0.22140099999978702
495,3,0.2,1.0,35.0,1,1.0,0.24800099999993108
496,3,0.2,0.25,35.0,1,1.0,0.201600999999755
497,3,0.8,0.0625,-35.0,1,0.0,0.3013010000004215
498,3,0.8,0.125,-35.0,-1,1.0,0.21160099999997328
499,3,0.8,0.25,-35.0,-1,1.0,0.33820099999957165
500,3,0.8,0.0,-35.0,-1,1.0,0.31510100000014063
501,3,0.8,0.25,-35.0,-1,1.0,0.2749010000002272
502,3,0.8,0.125,-35.0,-1,1.0,0.26210100000025705
503,3,0.8,1.0,-35.0,-1,1.0,0.1920010000003458
504,3,0.8,1.0,-35.0,-1,1.0,0.23870099999976446
505,3,0.8,0.125,-35.0,-1,1.0,0.23170100000015736
506,3,0.8,0.25,-35.0,-1,1.0,0.20210099999985687
507,3,0.8,0.125,35.0,1,1.0,0.23220100000025923
508,3,0.8,0.0625,-35.0,1,0.0,0.8392010000002301
509,3,0.8,0.25,-35.0,-1,1.0,0.1924010000002454
510,3,0.8,1.0,-35.0,-1,1.0,0.22950099999980011
511,3,0.8,0.0,-35.0,-1,1.0,0.20580100000006496
512,3,0.8,0.125,35.0,-1,0.0,0.2227010000001428
513,3,0.8,0.25,-35.0,-1,1.0,0.24930100000028688
514,3,0.8,0.0625,-35.0,1,0.0,0.3663010000000213
515,3,0.8,0.25,-35.0,-1,1.0,0.22600099999999657
516,3,0.8,0.0625,-35.0,-1,1.0,0.2330010000000584
517,3,0.8,0.25,-35.0,-1,1.0,0.2130010000000766
518,3,0.8,0.0625,35.0,-1,0.0,0.25320099999999
519,3,0.8,0.0625,-35.0,-1,1.0,0.22650100000009843
520,3,0.8,0.0625,-35.0,-1,1.0,0.12010099999997692
521,3,0.8,0.0,-35.0,-1,1.0,0.13320100000009916
522,3,0.8,0.25,35.0,1,1.0,2.660201000000143
523,3,0.8,0.0625,-35.0,-1,1.0,0.893601000000217
524,3,0.8,0.125,35.0,1,1.0,0.610501000000113
525,3,0.8,0.0625,-35.0,-1,1.0,0.26670100000001185
526,3,0.8,0.125,35.0,-1,0.0,0.3139009999999871
527,3,0.8,0.25,-35.0,-1,1.0,0.2971010000001115
528,3,0.8,0.125,-35.0,-1,1.0,0.22410100000024613
529,3,0.8,0.25,-35.0,-1,1.0,0.26410100000020975
530,3,0.2,1.0,-35.0,-1,1.0,0.20740099999966333
531,3,0.2,0.25,-35.0,-1,1.0,0.27070099999991726
532,3,0.2,0.25,35.0,1,1.0,0.32440100000030725
533,3,0.2,0.0625,35.0,1,1.0,0.32750099999975646
534,3,0.2,0.25,35.0,-1,0.0,0.15100100000017846
535,3,0.2,0.0,35.0,-1,0.0,0.17450099999996382
536,3,0.2,1.0,35.0,1,1.0,0.22450100000060047
537,3,0.2,1.0,35.0,1,1.0,0.2776010000002316
538,3,0.2,0.0625,-35.0,1,0.0,0.19800100000020393
539,3,0.2,0.0625,-35.0,-1,1.0,0.35480100000040693
540,3,0.2,0.0625,35.0,-1,0.0,0.32810099999960585
541,3,0.2,0.125,35.0,1,1.0,0.7546010000000933
542,3,0.2,0.125,35.0,1,1.0,0.3985010000001239
543,3,0.2,0.125,35.0,1,1.0,0.25800100000014936
544,3,0.2,1.0,35.0,1,1.0,0.2352009999999609
545,3,0.2,0.0,35.0,1,1.0,0.29550100000051316
546,3,0.2,1.0,35.0,1,1.0,0.2921010000000024
547,3,0.2,0.125,35.0,1,1.0,0.1652009999997972
548,3,0.2,0.125,35.0,1,1.0,0.5556010000000242
549,3,0.2,0.0625,-35.0,1,0.0,0.21870099999978265
550,3,0.2,0.25,35.0,1,1.0,0.2590010000003531
551,3,0.2,0.25,35.0,1,1.0,0.1121010000001661
552,3,0.2,0.25,35.0,1,1.0,0.13930100000015955
553,3,0.2,0.0625,35.0,1,1.0,0.15240100000028178
554,3,0.2,0.125,35.0,1,1.0,0.202701000000161
555,3,0.2,0.0625,35.0,1,1.0,0.2823009999997339
556,3,0.2,0.125,35.0,1,1.0,0.3063010000000759
557,3,0.2,0.125,35.0,1,1.0,0.3860010000003058
558,3,0.2,0.25,35.0,1,1.0,0.15980100000024322
559,3,0.2,1.0,35.0,1,1.0,0.21620100000018283
560,3,0.2,0.0,35.0,1,1.0,0.21330099999977392
561,3,0.2,0.125,35.0,1,1.0,0.18980099999998856
562,3,0.2,0.0625,-35.0,1,0.0,0.21330100000022867
563,3,0.2,0.25,-35.0,-1,1.0,0.2828010000002905
564,3,0.2,1.0,35.0,1,1.0,0.20700100000021848
565,3,0.2,1.0,35.0,1,1.0,0.28010100000028615
566,3,0.2,0.25,35.0,1,1.0,0.3001009999998132
567,3,0.2,0.125,35.0,1,1.0,0.26670100000001185
568,3,0.2,0.0625,-35.0,1,0.0,0.21040099999981976
569,3,0.2,1.0,35.0,1,1.0,0.1935009999997419
570,3,0.2,0.0,-35.0,1,0.0,0.22740100000009988
571,3,0.2,0.0,35.0,1,1.0,0.4536009999997077
572,3,0.2,0.0625,35.0,1,1.0,0.2840009999999893
573,3,0.2,0.0,35.0,1,1.0,0.4038009999994756
574,3,0.2,0.0,35.0,1,1.0,0.2308010000001559
575,3,0.2,1.0,35.0,1,1.0,0.27060100000016973
576,3,0.2,0.0625,35.0,1,1.0,0.2611010000000533
577,3,0.2,0.25,35.0,1,1.0,0.24420099999997547
578,3,0.2,1.0,35.0,1,1.0,0.2513010000002396
579,3,0.2,1.0,35.0,1,1.0,0.1974009999998998
580,3,0.2,0.25,35.0,1,1.0,0.3283010000000104
581,3,0.2,1.0,-35.0,-1,1.0,0.39120100000036473
582,3,0.8,0.0625,35.0,1,1.0,0.4084010000001399
583,3,0.8,0.0,-35.0,1,0.0,0.28430100000014136
584,3,0.8,0.25,-35.0,-1,1.0,0.25190100000008897
585,3,0.8,1.0,-35.0,-1,1.0,0.13480100000015227
586,3,0.8,0.125,-35.0,-1,1.0,0.3052010000001246
587,3,0.8,1.0,-35.0,-1,1.0,0.25450099999989106
588,3,0.8,0.0,35.0,1,1.0,0.5284010000000308
589,3,0.8,0.25,-35.0,-1,1.0,0.5287010000001828
