trial_num,session_num,stim_probability_left,contrast,position,response_choice,trial_correct,reaction_time
1,13,0.5,0.5,35.0,1,1.0,0.23360000000000025
2,13,0.5,0.5,35.0,-1,0.0,0.2513999999999994
3,13,0.9,0.5,35.0,-1,0.0,0.2539999999999978
4,13,0.8,0.5,35.0,1,1.0,0.4555989999999994
5,13,0.5,0.5,-35.0,-1,1.0,0.21890000000000143
6,13,0.5,0.125,-35.0,-1,1.0,0.6468999999999987
7,13,0.5,0.25,-35.0,-1,1.0,0.26729999999999876
8,13,0.5,0.125,-35.0,-1,1.0,0.23329999999999984
9,13,0.5,1.0,-35.0,-1,1.0,0.1843989999999991
10,13,0.5,1.0,-35.0,-1,1.0,0.22220000000000795
11,13,0.5,0.125,35.0,1,1.0,0.7518000000000029
12,13,0.5,0.125,35.0,1,1.0,0.46539999999998827
13,13,0.5,0.5,35.0,1,1.0,0.32869999999999777
14,13,0.5,1.0,35.0,1,1.0,1.5775999999999897
15,13,0.5,0.125,-35.0,-1,1.0,0.792900000000003
16,13,0.5,0.5,35.0,1,1.0,0.2650999999999897
17,13,0.5,0.125,35.0,1,1.0,0.42969999999999686
18,13,0.5,1.0,-35.0,-1,1.0,0.24259899999998424
19,13,0.5,0.25,-35.0,-1,1.0,0.19880000000000564
20,13,0.5,0.5,35.0,1,1.0,0.49260000000001014
21,13,0.5,0.5,-35.0,-1,1.0,0.25669999999998083
22,13,0.5,0.125,-35.0,1,0.0,0.3182999999999936
23,13,0.6,0.125,-35.0,-1,1.0,0.3318999999999903
24,13,0.5,0.5,-35.0,-1,1.0,0.2247989999999902
25,13,0.5,0.5,-35.0,-1,1.0,0.205600000000004
26,13,0.5,1.0,35.0,1,1.0,0.30699999999998795
27,13,0.5,0.25,35.0,1,1.0,0.23319899999998484
28,13,0.5,0.25,-35.0,-1,1.0,0.2812990000000184
29,13,0.5,0.125,35.0,1,1.0,0.30459899999999607
30,13,0.5,0.125,-35.0,1,0.0,0.37479999999999336
31,13,0.5,0.25,-35.0,-1,1.0,0.23629999999999995
32,13,0.5,1.0,35.0,1,1.0,0.21889999999999077
33,13,0.5,1.0,35.0,1,1.0,0.44129899999998656
34,13,0.5,0.25,-35.0,-1,1.0,0.265199999999993
35,13,0.5,0.125,-35.0,-1,1.0,0.7675000000000125
36,13,0.5,0.25,35.0,-1,0.0,2.2010999999999967
37,13,0.5,0.25,35.0,1,1.0,0.6012000000000057
38,13,0.5,1.0,-35.0,-1,1.0,0.2084000000000117
39,13,0.5,0.25,-35.0,-1,1.0,0.2966000000000122
40,13,0.5,1.0,35.0,1,1.0,0.3388999999999953
41,13,0.5,1.0,-35.0,-1,1.0,0.2635999999999967
42,13,0.5,0.25,35.0,1,1.0,0.29189999999999827
43,13,0.5,1.0,-35.0,-1,1.0,0.20009999999999195
44,13,0.5,0.25,35.0,1,1.0,0.24719999999999231
45,13,0.5,0.125,-35.0,-1,1.0,0.20459999999999923
46,13,0.5,0.25,-35.0,-1,1.0,0.29460000000000264
47,13,0.5,0.25,35.0,1,1.0,0.4946999999999946
48,13,0.5,0.25,35.0,1,1.0,0.3427989999999852
49,13,0.5,1.0,35.0,-1,0.0,0.11730000000000018
50,13,0.5,1.0,35.0,1,1.0,0.287399999999991
51,13,0.5,1.0,35.0,1,1.0,0.23099999999999454
52,13,0.5,0.25,-35.0,-1,1.0,0.49590000000006285
53,13,0.5,1.0,-35.0,-1,1.0,0.12290000000001555
54,13,0.5,0.5,-35.0,-1,1.0,0.2709000000000401
55,13,0.5,0.25,-35.0,-1,1.0,0.3533999999999651
56,13,0.5,0.25,-35.0,-1,1.0,0.24989999999996826
57,13,0.5,1.0,-35.0,-1,1.0,0.20730000000003201
58,13,0.5,0.25,35.0,1,1.0,0.33159999999998035
59,13,0.5,0.125,-35.0,-1,1.0,0.45609900000005155
60,13,0.5,1.0,-35.0,-1,1.0,0.1878990000000158
61,13,0.5,0.125,35.0,-1,0.0,1.0109000000000492
62,13,0.1,0.125,35.0,-1,0.0,0.6732000000000085
63,13,0.5,1.0,35.0,1,1.0,0.3054000000000201
64,13,0.5,0.125,-35.0,-1,1.0,0.27370000000001937
65,13,0.5,0.5,-35.0,-1,1.0,0.25710000000003674
66,13,0.5,1.0,35.0,1,1.0,0.46200000000004593
67,13,0.5,0.125,35.0,1,1.0,0.9402000000000044
68,13,0.5,0.125,35.0,-1,0.0,0.24020000000001573
69,13,0.5,0.25,-35.0,-1,1.0,0.361500000000035
70,13,0.5,0.25,-35.0,1,0.0,1.946300000000008
71,13,0.5,0.25,35.0,1,1.0,0.29179999999996653
72,13,0.5,0.25,35.0,1,1.0,0.31970000000001164
73,13,0.5,0.25,-35.0,-1,1.0,0.2586000000000581
74,13,0.5,1.0,35.0,1,1.0,0.3206000000000131
75,13,0.5,0.125,-35.0,-1,1.0,0.3311990000000833
76,13,0.5,0.25,35.0,1,1.0,0.2925000000000182
77,13,0.5,0.5,35.0,1,1.0,0.37509900000003427
78,13,0.5,0.125,35.0,1,1.0,0.3069000000000415
79,13,0.5,0.5,35.0,1,1.0,0.2189000000000192
80,13,0.5,0.5,-35.0,-1,1.0,0.17070000000001073
81,13,0.5,0.125,-35.0,-1,1.0,0.26380000000000337
82,13,0.5,1.0,-35.0,-1,1.0,0.22639999999995553
83,13,0.5,0.125,35.0,1,1.0,0.6590000000000487
84,13,0.5,0.125,-35.0,-1,1.0,0.2839999999999918
85,13,0.5,1.0,35.0,1,1.0,0.29939999999999145
86,13,0.5,1.0,35.0,1,1.0,0.4697999999999638
87,13,0.5,0.25,35.0,1,1.0,0.2968000000000188
88,13,0.5,1.0,-35.0,-1,1.0,0.2941000000000713
89,13,0.5,0.125,-35.0,1,0.0,0.47089900000003126
90,13,0.5,0.125,35.0,1,1.0,0.311300000000017
91,13,0.5,0.5,35.0,1,1.0,0.4208000000000425
92,13,0.5,0.25,35.0,1,1.0,0.4997000000000753
93,13,0.5,0.5,35.0,1,1.0,0.13850000000007867
94,13,0.5,0.25,35.0,1,1.0,0.5061990000000378
95,13,0.5,1.0,35.0,1,1.0,0.33880000000004884
96,13,0.5,0.125,35.0,1,1.0,0.3321000000000254
97,13,0.5,0.25,-35.0,-1,1.0,0.26520000000004984
98,13,0.5,1.0,35.0,1,1.0,0.21989999999999554
99,13,0.5,0.5,-35.0,-1,1.0,0.24240000000003192
100,13,0.5,0.5,-35.0,-1,1.0,0.222500000000025
101,13,0.5,0.25,35.0,1,1.0,0.5821000000000254
102,13,0.5,0.5,35.0,1,1.0,0.7315999999999576
103,13,0.5,0.125,35.0,1,1.0,0.2961999999999989
104,13,0.5,0.125,-35.0,1,0.0,0.3350999999998976
105,13,0.5,0.25,-35.0,-1,1.0,0.5749999999999318
106,13,0.5,0.25,-35.0,-1,1.0,0.5401999999999134
107,13,0.5,0.25,-35.0,-1,1.0,0.2358000000000402
108,13,0.5,0.25,-35.0,-1,1.0,0.21139999999991232
109,13,0.5,0.5,35.0,1,1.0,0.43010000000003856
110,13,0.5,0.25,35.0,1,1.0,0.2908999999999651
111,13,0.5,0.5,-35.0,-1,1.0,0.2156999999999698
112,13,0.5,0.5,35.0,1,1.0,0.631800000000112
113,13,0.5,0.25,-35.0,-1,1.0,0.2463999999998805
114,13,0.5,0.125,-35.0,1,0.0,0.10629999999991924
115,13,0.5,0.125,35.0,1,1.0,0.4149999999999636
116,13,0.5,0.25,35.0,1,1.0,0.3454999999999018
117,13,0.5,0.25,-35.0,-1,1.0,0.38269900000000234
118,13,0.5,0.25,35.0,1,1.0,0.32139999999992597
119,13,0.5,0.5,-35.0,-1,1.0,0.240099999999984
120,13,0.5,1.0,35.0,1,1.0,0.5414999999999281
121,13,0.5,0.5,35.0,1,1.0,0.29099999999994
122,13,0.5,0.25,-35.0,-1,1.0,0.29899999999997817
123,13,0.5,0.125,-35.0,-1,1.0,0.5311999999998989
124,13,0.5,0.125,35.0,1,1.0,0.41239999999993415
125,13,0.5,0.125,-35.0,-1,1.0,0.2846999999999298
126,13,0.5,0.125,-35.0,-1,1.0,0.3030999999998585
127,13,0.5,0.125,-35.0,-1,1.0,0.4592999999999847
128,13,0.5,0.125,35.0,-1,0.0,0.38829999999995835
129,13,0.5,0.125,35.0,1,1.0,0.7783999999999196
130,13,0.5,0.25,35.0,1,1.0,0.4329999999999927
131,13,0.5,0.125,-35.0,-1,1.0,0.25670000000002346
132,13,0.5,1.0,35.0,1,1.0,0.4656999999999698
133,13,0.5,0.25,-35.0,-1,1.0,0.2484989999999243
134,13,0.5,0.125,35.0,1,1.0,0.3231999999999289
135,13,0.5,0.25,35.0,1,1.0,0.23640000000000327
136,13,0.5,1.0,35.0,1,1.0,0.40829999999994016
137,13,0.5,1.0,35.0,1,1.0,0.497600000000034
138,13,0.5,0.5,35.0,1,1.0,0.29120000000000346
139,13,0.5,0.125,-35.0,-1,1.0,0.535998999999947
140,13,0.5,1.0,-35.0,-1,1.0,0.21939999999995052
141,13,0.5,0.25,35.0,1,1.0,0.36590000000001055
142,13,0.5,0.5,35.0,1,1.0,0.30550000000005184
143,13,0.5,0.5,35.0,1,1.0,0.4009999999999536
144,13,0.5,1.0,35.0,1,1.0,0.3113989999999376
145,13,0.5,0.5,-35.0,-1,1.0,0.45039999999994507
146,13,0.5,0.5,-35.0,-1,1.0,0.3346000000000231
147,13,0.5,0.25,35.0,1,1.0,0.34190000000000964
148,13,0.5,0.25,-35.0,-1,1.0,0.5426999999998543
149,13,0.5,1.0,-35.0,-1,1.0,0.22539999999992233
150,13,0.5,0.25,-35.0,-1,1.0,0.26289999999994507
151,13,0.5,1.0,35.0,-1,0.0,0.16400000000010095
152,13,0.5,0.125,35.0,1,1.0,0.3165999999998803
153,13,0.5,0.25,35.0,1,1.0,0.35149999999998727
154,13,0.5,0.125,-35.0,-1,1.0,0.2604999999998654
155,13,0.5,0.5,35.0,1,1.0,0.3273999999998978
156,13,0.5,0.25,35.0,1,1.0,0.7788999999999078
157,13,0.5,0.5,35.0,1,1.0,0.29340000000001965
158,13,0.5,0.5,35.0,1,1.0,0.5465000000000373
159,13,0.5,0.25,35.0,1,1.0,0.30960000000004584
160,13,0.5,1.0,-35.0,-1,1.0,0.2904999999999518
161,13,0.5,1.0,35.0,1,1.0,0.5860999999999876
162,13,0.5,0.5,-35.0,-1,1.0,0.23099999999999454
163,13,0.5,0.125,35.0,1,1.0,0.3251989999998841
164,13,0.5,1.0,35.0,1,1.0,0.2768990000000713
165,13,0.5,1.0,-35.0,-1,1.0,0.3731000000000222
166,13,0.5,0.25,-35.0,-1,1.0,0.2016999999999598
167,13,0.5,0.125,35.0,1,1.0,0.4846989999999778
168,13,0.5,0.25,35.0,1,1.0,0.4314999999999145
169,13,0.5,0.5,-35.0,-1,1.0,0.27929999999980737
170,13,0.5,0.25,-35.0,-1,1.0,0.292699999999968
171,13,0.5,1.0,-35.0,-1,1.0,0.2240999999999076
172,13,0.5,0.25,35.0,1,1.0,0.3046999999999116
173,13,0.5,1.0,-35.0,-1,1.0,0.25529899999992267
174,13,0.5,0.25,35.0,1,1.0,0.4874999999999545
175,13,0.5,0.5,-35.0,-1,1.0,0.24889999999993506
176,13,0.5,0.5,-35.0,-1,1.0,0.2137000000000171
177,13,0.5,1.0,35.0,1,1.0,0.5077990000000909
178,13,0.5,1.0,-35.0,-1,1.0,0.32759999999996126
179,13,0.5,0.25,35.0,1,1.0,0.2661999999999125
180,13,0.5,0.125,35.0,-1,0.0,0.17700000000002092
181,13,0.5,0.25,-35.0,-1,1.0,0.2679999999999154
182,13,0.5,0.25,35.0,1,1.0,0.27319999999997435
183,13,0.5,0.25,-35.0,-1,1.0,0.20439999999996417
184,13,0.5,0.25,-35.0,-1,1.0,0.261600000000044
185,13,0.5,1.0,35.0,1,1.0,0.40319899999997233
186,13,0.5,0.125,35.0,1,1.0,0.8394990000000462
187,13,0.5,0.125,35.0,1,1.0,0.3233989999998812
188,13,0.5,1.0,35.0,1,1.0,0.34000000000003183
189,13,0.5,0.125,35.0,1,1.0,0.37009999999997945
190,13,0.5,1.0,35.0,1,1.0,0.27680000000009386
191,13,0.5,0.125,-35.0,-1,1.0,0.40019999999992706
192,13,0.5,0.0625,35.0,1,1.0,0.29359999999985575
193,13,0.5,0.125,-35.0,-1,1.0,0.1771000000001095
194,13,0.5,0.125,35.0,1,1.0,0.33750000000009095
195,13,0.5,0.0625,35.0,1,1.0,0.3240000000000691
196,13,0.5,0.5,-35.0,-1,1.0,0.4275000000000091
197,13,0.5,0.5,35.0,1,1.0,0.21089900000015405
198,13,0.5,0.0625,35.0,1,1.0,0.44430000000011205
199,13,0.5,0.5,35.0,1,1.0,0.2778000000000702
200,13,0.5,1.0,35.0,1,1.0,0.31790000000000873
201,13,0.5,0.5,35.0,1,1.0,0.2846999999999298
202,13,0.5,1.0,-35.0,-1,1.0,0.26480000000015025
203,13,0.5,1.0,35.0,1,1.0,0.44820000000004256
204,13,0.5,0.25,35.0,1,1.0,0.264899000000014
205,13,0.5,0.0625,35.0,1,1.0,0.3649000000000342
206,13,0.5,0.5,35.0,1,1.0,0.5287000000000717
207,13,0.5,0.25,-35.0,-1,1.0,0.4285000000002128
208,13,0.5,1.0,35.0,1,1.0,0.20890000000008513
209,13,0.5,0.25,-35.0,-1,1.0,0.2255999999999858
210,13,0.5,0.125,35.0,-1,0.0,0.17219900000009147
211,13,0.5,0.125,-35.0,-1,1.0,0.2424989999999525
212,13,0.5,1.0,35.0,1,1.0,0.22590000000013788
213,13,0.5,0.0625,-35.0,-1,1.0,0.44919900000013513
214,13,0.5,0.5,35.0,1,1.0,0.4963000000000193
215,13,0.5,0.0625,35.0,1,1.0,0.4128000000000611
216,13,0.5,0.5,-35.0,-1,1.0,0.31300000000010186
217,13,0.5,0.0625,35.0,1,1.0,0.40640000000007603
218,13,0.5,0.125,35.0,1,1.0,0.33999999999991815
219,13,0.5,0.25,-35.0,-1,1.0,0.20000000000004547
220,13,0.5,0.0625,-35.0,-1,1.0,0.38010000000008404
221,13,0.5,1.0,35.0,1,1.0,0.4669000000001233
222,13,0.5,0.0625,35.0,-1,0.0,0.9137000000000626
223,13,0.5,0.125,35.0,1,1.0,0.230399000000034
224,13,0.5,0.25,-35.0,-1,1.0,0.3170999999999822
225,13,0.5,0.5,-35.0,-1,1.0,0.21060000000011314
226,13,0.5,0.0625,-35.0,1,0.0,0.34400000000005093
227,13,0.5,0.25,35.0,1,1.0,0.2139999999999418
228,13,0.5,0.5,35.0,1,1.0,0.24749999999994543
229,13,0.5,0.0625,35.0,1,1.0,0.35750000000007276
230,13,0.5,0.125,35.0,1,1.0,0.37429999999994834
231,13,0.5,0.0625,35.0,1,1.0,0.2677000000001044
232,13,0.5,0.125,35.0,1,1.0,0.3513989999999012
233,13,0.5,0.0625,35.0,1,1.0,0.31120000000009895
234,13,0.5,0.125,-35.0,-1,1.0,0.538300000000163
235,13,0.5,0.25,-35.0,-1,1.0,0.29510000000004766
236,13,0.5,0.0625,35.0,-1,0.0,0.9853000000002794
237,13,0.5,0.0625,-35.0,-1,1.0,0.4151999999999134
238,13,0.5,0.0625,-35.0,1,0.0,0.368699000000106
239,13,0.6,0.0625,35.0,1,1.0,0.2724000000000615
240,13,0.5,1.0,35.0,1,1.0,0.185799999999972
241,13,0.5,0.5,-35.0,-1,1.0,0.25909999999998945
242,13,0.5,0.125,-35.0,-1,1.0,0.18260000000009313
243,13,0.5,0.25,35.0,1,1.0,0.3692000000000917
244,13,0.5,1.0,35.0,1,1.0,0.6159000000002379
245,13,0.5,0.125,35.0,-1,0.0,0.2294000000001688
246,13,0.5,0.0625,35.0,1,1.0,7.589600000000246
247,13,0.5,0.0625,-35.0,-1,1.0,0.21309999999994034
248,13,0.5,0.125,35.0,1,1.0,0.32310000000006767
249,13,0.5,0.0625,-35.0,-1,1.0,0.38320000000021537
250,13,0.5,0.5,35.0,1,1.0,0.3168000000000575
251,13,0.5,0.25,-35.0,-1,1.0,0.21339999999986503
252,13,0.5,0.5,-35.0,-1,1.0,0.22369899999989684
253,13,0.5,0.25,35.0,1,1.0,0.8236000000001695
254,13,0.5,0.25,35.0,1,1.0,0.3874000000000706
255,13,0.5,0.25,-35.0,-1,1.0,0.3404000000000451
256,13,0.5,0.125,-35.0,1,0.0,0.10370000000034452
257,13,0.5,0.25,-35.0,-1,1.0,0.3407000000001972
258,13,0.5,0.5,35.0,1,1.0,0.3408000000001721
259,13,0.5,0.0625,35.0,1,1.0,0.6639000000000124
260,13,0.5,0.25,35.0,1,1.0,0.19460000000003674
261,13,0.5,0.125,35.0,1,1.0,0.2843000000000302
262,13,0.5,0.5,35.0,1,1.0,0.32110000000011496
263,13,0.5,0.25,35.0,1,1.0,0.23769999999990432
264,13,0.5,0.125,-35.0,-1,1.0,0.28490000000010696
265,13,0.5,0.125,-35.0,-1,1.0,0.45470000000000255
266,13,0.5,0.125,35.0,1,1.0,0.3015000000002601
267,13,0.5,1.0,35.0,1,1.0,0.2615000000000691
268,13,0.5,1.0,-35.0,-1,1.0,0.14169999999990068
269,13,0.5,0.0625,35.0,1,1.0,2.5716999999999643
270,13,0.5,1.0,35.0,1,1.0,0.8185989999999492
271,13,0.5,0.25,-35.0,-1,1.0,0.22880000000009204
272,13,0.5,0.0625,35.0,1,1.0,4.67910000000029
273,13,0.5,0.0625,-35.0,-1,1.0,0.33900000000016917
274,13,0.5,0.0625,-35.0,-1,1.0,0.3089999999999691
275,13,0.5,0.0625,35.0,1,1.0,2.915798999999879
276,13,0.5,1.0,-35.0,-1,1.0,0.22590000000013788
277,13,0.5,1.0,-35.0,-1,1.0,0.29930000000013024
278,13,0.5,0.5,35.0,1,1.0,0.2695000000001073
279,13,0.5,0.0625,-35.0,1,0.0,0.5595000000000709
280,13,0.5,0.125,35.0,1,1.0,0.19980000000009568
281,13,0.5,0.0625,35.0,-1,0.0,0.47309999999993124
282,13,0.5,0.25,-35.0,-1,1.0,0.30979999999999563
283,13,0.5,0.125,-35.0,-1,1.0,0.2865990000000238
284,13,0.5,0.25,35.0,1,1.0,0.3501000000001113
285,13,0.5,1.0,35.0,1,1.0,0.37010000000009313
286,13,0.5,0.25,35.0,1,1.0,0.3603000000002794
287,13,0.5,0.125,-35.0,-1,1.0,0.29369999999994434
288,13,0.5,0.125,35.0,1,1.0,0.29070000000024265
289,13,0.5,0.0625,35.0,1,1.0,0.5538000000001375
290,13,0.5,0.0625,35.0,1,1.0,0.3406999999999698
291,13,0.5,0.25,35.0,1,1.0,0.14409900000009657
292,13,0.5,0.125,35.0,1,1.0,0.4374000000000251
293,13,0.5,0.5,35.0,1,1.0,0.5077000000001135
294,13,0.5,0.125,-35.0,-1,1.0,0.411200000000008
295,13,0.5,0.5,35.0,1,1.0,0.24440000000004147
296,13,0.5,0.25,-35.0,-1,1.0,0.29110000000014224
297,13,0.5,0.0625,35.0,1,1.0,0.4844989999999143
298,13,0.5,0.125,-35.0,-1,1.0,0.5446000000001732
299,13,0.5,0.125,-35.0,-1,1.0,0.34480000000030486
300,13,0.5,0.25,35.0,1,1.0,0.23820000000023356
301,13,0.5,1.0,35.0,1,1.0,1.008100000000013
302,13,0.5,1.0,-35.0,-1,1.0,0.3148000000001048
303,13,0.5,1.0,-35.0,-1,1.0,0.24500000000011823
304,13,0.5,0.0625,-35.0,1,0.0,0.40180000000009386
305,13,0.5,0.0625,35.0,1,1.0,0.3119000000001506
306,13,0.5,0.5,-35.0,-1,1.0,0.342200000000048
307,13,0.5,0.25,35.0,1,1.0,0.30529999999998836
308,13,0.5,0.0625,35.0,1,1.0,1.9122000000002117
309,13,0.5,0.0625,-35.0,-1,1.0,0.8722000000000207
310,13,0.5,0.5,35.0,1,1.0,0.42600000000015825
311,13,0.5,0.5,-35.0,-1,1.0,0.27290000000016335
312,13,0.5,0.0625,35.0,1,1.0,0.2527990000000955
313,13,0.5,0.25,35.0,1,1.0,0.3227990000000318
314,13,0.5,0.125,-35.0,1,0.0,0.39000000000010004
315,13,0.5,0.25,-35.0,1,0.0,0.306400000000167
316,13,0.7,0.25,-35.0,1,0.0,0.3365999999998621
317,13,0.5,0.5,-35.0,-1,1.0,0.28660000000013497
318,13,0.5,0.5,-35.0,-1,1.0,0.2402999999999338
319,13,0.5,0.0625,35.0,1,1.0,0.17340000000012878
320,13,0.5,0.25,-35.0,-1,1.0,0.2668989999999667
321,13,0.5,0.125,35.0,1,1.0,0.39020000000004984
322,13,0.5,0.0625,35.0,1,1.0,0.29389999999989413
323,13,0.5,0.0625,35.0,-1,0.0,2.117100000000164
324,13,0.5,0.125,-35.0,-1,1.0,0.1410000000000764
325,13,0.5,1.0,-35.0,-1,1.0,0.2740000000001146
326,13,0.5,0.125,-35.0,-1,1.0,0.2843000000000302
327,13,0.5,0.5,35.0,-1,0.0,0.12740000000007967
328,13,0.5,0.0625,-35.0,-1,1.0,1.0277000000003227
329,13,0.5,0.25,35.0,1,1.0,0.40419900000006237
330,13,0.5,0.0625,35.0,1,1.0,0.35120000000028995
331,13,0.5,1.0,-35.0,-1,1.0,0.24820000000022446
332,13,0.5,1.0,35.0,1,1.0,0.4882990000000973
333,13,0.5,1.0,-35.0,-1,1.0,0.2981999999999516
334,13,0.5,0.125,35.0,1,1.0,0.38170000000013715
335,13,0.5,0.25,35.0,1,1.0,0.3117000000002008
336,13,0.5,0.25,35.0,1,1.0,0.35550000000012005
337,13,0.5,0.25,35.0,1,1.0,0.30520000000024083
338,13,0.5,1.0,-35.0,-1,1.0,0.33209999999985484
339,13,0.5,1.0,-35.0,-1,1.0,0.09890000000018517
340,13,0.5,1.0,35.0,1,1.0,0.49580000000037217
341,13,0.5,0.0625,35.0,1,1.0,0.2093000000002121
342,13,0.5,0.25,-35.0,-1,1.0,0.21919999999977335
343,13,0.5,0.0625,-35.0,-1,1.0,0.5259000000003198
344,13,0.5,0.0625,35.0,1,1.0,0.3061000000002423
345,13,0.5,0.5,35.0,1,1.0,0.3428999999998723
346,13,0.5,0.0625,-35.0,1,0.0,0.3364000000001397
347,13,0.5,0.125,35.0,1,1.0,0.3328999999998814
348,13,0.5,0.25,35.0,1,1.0,0.45659999999998035
349,13,0.5,0.5,35.0,1,1.0,0.259900000000016
350,13,0.5,0.5,-35.0,-1,1.0,0.35360000000014224
351,13,0.5,0.5,-35.0,-1,1.0,0.24009999999975662
352,13,0.5,0.5,35.0,1,1.0,0.3369999999997617
353,13,0.5,1.0,-35.0,-1,1.0,0.2437000000002172
354,13,0.5,0.25,-35.0,-1,1.0,0.29710000000022774
355,13,0.5,0.25,35.0,1,1.0,0.5305000000000746
356,13,0.5,0.0625,35.0,1,1.0,0.25720000000001164
357,13,0.5,1.0,35.0,1,1.0,0.6740000000002055
358,13,0.5,1.0,35.0,1,1.0,0.30719999999996617
359,13,0.5,0.25,35.0,1,1.0,0.4641999999998916
360,13,0.5,0.5,35.0,1,1.0,0.4408000000000811
361,13,0.5,0.25,-35.0,-1,1.0,0.5310000000001764
362,13,0.5,0.125,-35.0,-1,1.0,0.3145000000001801
363,13,0.5,1.0,35.0,1,1.0,0.25820000000021537
364,13,0.5,1.0,-35.0,-1,1.0,0.2278000000001157
365,13,0.5,0.5,35.0,1,1.0,0.33160000000020773
366,13,0.5,0.0625,35.0,1,1.0,0.2716000000002623
367,13,0.5,0.25,-35.0,-1,1.0,0.44489999999996144
368,13,0.5,0.5,-35.0,-1,1.0,0.258199999999988
369,13,0.5,0.25,35.0,1,1.0,0.3617990000000191
370,13,0.5,0.5,-35.0,-1,1.0,0.44499999999993634
371,13,0.5,1.0,-35.0,-1,1.0,0.25520000000005894
372,13,0.5,0.5,35.0,1,1.0,0.3386000000000422
373,13,0.5,1.0,35.0,1,1.0,0.3554990000000089
374,13,0.5,0.0625,-35.0,1,0.0,0.4219990000001417
375,13,0.5,0.0625,-35.0,1,0.0,0.3023000000000593
376,13,0.6,0.0625,-35.0,1,0.0,0.3088999999999942
377,13,0.5,1.0,-35.0,-1,1.0,0.2724000000000615
378,13,0.5,0.5,-35.0,-1,1.0,0.25909999999998945
379,13,0.5,1.0,35.0,1,1.0,0.3161000000000058
380,13,0.5,1.0,-35.0,-1,1.0,0.25589999999965585
381,13,0.5,1.0,-35.0,-1,1.0,0.2729999999996835
382,13,0.5,0.125,35.0,1,1.0,0.2660999999998239
383,13,0.5,1.0,-35.0,-1,1.0,0.3163990000002741
384,13,0.5,0.5,-35.0,-1,1.0,0.3594999999995707
385,13,0.5,1.0,-35.0,-1,1.0,0.24309999999968568
386,13,0.5,0.25,35.0,1,1.0,0.2363999999997759
387,13,0.5,0.5,-35.0,-1,1.0,0.3433999999997468
388,13,0.5,0.0,35.0,1,1.0,0.4865999999997257
389,13,0.5,0.5,-35.0,-1,1.0,0.2737000000001899
390,13,0.5,1.0,-35.0,-1,1.0,0.25339900000017224
391,13,0.5,0.0625,-35.0,-1,1.0,0.33029999999962456
392,13,0.5,0.0625,35.0,1,1.0,1.4635999999995875
393,13,0.5,1.0,35.0,1,1.0,0.31399999999985084
394,13,0.5,0.0625,-35.0,1,0.0,0.3704000000002452
395,13,0.5,0.0625,35.0,1,1.0,0.3506999999999607
396,13,0.5,1.0,-35.0,-1,1.0,0.2638999999999214
397,13,0.5,0.0625,35.0,-1,0.0,0.31069899999965855
398,13,0.5,0.0625,35.0,1,1.0,0.3639989999996942
399,13,0.5,0.25,-35.0,-1,1.0,0.21759999999949287
400,13,0.5,0.0,35.0,-1,0.0,0.3375999999998385
401,13,0.5,0.0625,-35.0,-1,1.0,0.244499999999789
402,13,0.5,0.0625,35.0,1,1.0,1.5545999999999367
403,13,0.5,0.125,35.0,1,1.0,0.2516000000000531
404,13,0.5,0.125,35.0,-1,0.0,0.0979999999995016
405,13,0.5,0.0625,-35.0,-1,1.0,0.3515990000000784
406,13,0.5,0.5,-35.0,-1,1.0,0.3350000000004911
407,13,0.5,0.5,35.0,1,1.0,0.5149999999998727
408,13,0.5,1.0,-35.0,-1,1.0,0.26159999999981665
409,13,0.5,1.0,35.0,1,1.0,0.3552999999997155
410,13,0.5,0.125,35.0,1,1.0,0.4119999999998072
411,13,0.5,0.0,-35.0,1,0.0,0.2755999999994856
412,13,0.6,0.0,-35.0,1,0.0,0.2784999999998945
413,13,0.5,1.0,-35.0,-1,1.0,0.3055999999996857
414,13,0.5,0.25,-35.0,-1,1.0,0.29209899999978006
415,13,0.5,0.0625,-35.0,-1,1.0,0.3057999999996355
416,13,0.5,0.0,-35.0,1,0.0,0.33219999999982974
417,13,0.6,0.0,-35.0,1,0.0,0.2890999999995074
418,13,0.5,0.5,35.0,1,1.0,0.29239999999936117
419,13,0.5,0.5,35.0,1,1.0,0.23259999999982028
420,13,0.5,0.0625,35.0,1,1.0,0.37259999999969295
421,13,0.5,0.0,35.0,1,1.0,0.3694000000000415
422,13,0.5,0.0625,-35.0,1,0.0,0.3924999999994725
423,13,0.5,0.25,-35.0,-1,1.0,0.29619999999977153
424,13,0.5,0.125,35.0,1,1.0,0.44599999999945794
425,13,0.5,0.0,-35.0,-1,1.0,0.18989999999939755
426,13,0.5,0.0625,35.0,1,1.0,0.19629900000018097
427,13,0.5,0.5,-35.0,-1,1.0,0.21649999999999636
428,13,0.5,0.25,35.0,1,1.0,0.34319999999934225
429,13,0.5,0.5,35.0,1,1.0,0.32369999999991705
430,13,0.5,1.0,-35.0,-1,1.0,0.333299999999781
431,13,0.5,1.0,-35.0,-1,1.0,0.25700000000006185
432,13,0.5,1.0,-35.0,-1,1.0,0.2966999999998734
433,13,0.5,1.0,-35.0,-1,1.0,0.2703999999998814
434,13,0.5,0.25,35.0,1,1.0,0.35679899999968256
435,13,0.5,1.0,35.0,1,1.0,0.4171000000001186
436,13,0.5,1.0,35.0,1,1.0,0.3937999999998283
437,13,0.5,0.125,-35.0,-1,1.0,0.24739999999974316
438,13,0.5,0.0,35.0,-1,0.0,0.35069999999950596
439,13,0.5,0.25,35.0,1,1.0,0.27419899999995323
440,13,0.5,0.5,-35.0,-1,1.0,0.32749899999953413
441,13,0.5,1.0,-35.0,-1,1.0,0.4910989999998492
442,13,0.5,0.0625,35.0,1,1.0,0.4476999999997133
443,13,0.5,0.5,35.0,1,1.0,0.26459999999951833
444,13,0.5,0.0,35.0,1,1.0,0.4212000000002263
445,13,0.5,0.125,35.0,1,1.0,0.3247999999998683
446,13,0.5,0.125,35.0,1,1.0,0.17799999999988358
447,13,0.5,1.0,-35.0,-1,1.0,0.26510000000007494
448,13,0.5,1.0,-35.0,-1,1.0,0.2681999999999789
449,13,0.5,0.125,-35.0,-1,1.0,0.3152999999997519
450,13,0.5,0.5,-35.0,-1,1.0,0.30179999999973006
451,13,0.5,0.25,-35.0,-1,1.0,0.3254999999994652
452,13,0.5,0.125,35.0,1,1.0,0.5086989999999787
453,13,0.5,0.5,35.0,1,1.0,0.3655999999996311
454,13,0.5,1.0,-35.0,-1,1.0,0.2689999999997781
455,13,0.5,0.5,-35.0,-1,1.0,0.32580000000007203
456,13,0.5,0.25,-35.0,-1,1.0,0.3089999999997417
457,13,0.5,1.0,-35.0,-1,1.0,0.33239999999977954
458,13,0.5,0.125,-35.0,-1,1.0,0.25929999999971187
459,13,0.5,0.5,35.0,1,1.0,0.40639999999984866
460,13,0.5,0.0625,-35.0,1,0.0,0.4325999999996384
461,13,0.5,0.0,-35.0,1,0.0,0.4299999999998363
462,13,0.5,0.25,35.0,1,1.0,0.2960989999996855
463,13,0.5,0.0,-35.0,1,0.0,0.32330000000001746
464,13,0.5,0.0625,35.0,1,1.0,0.6929989999998725
465,13,0.5,0.0,-35.0,1,0.0,0.4200999999998203
466,13,0.5,0.0,35.0,1,1.0,0.2167989999998099
467,13,0.5,0.25,35.0,1,1.0,0.25700000000006185
468,13,0.5,0.5,-35.0,1,0.0,0.2634999999995671
469,13,0.5,0.0625,-35.0,1,0.0,0.30039999999962674
470,13,0.5,0.25,35.0,1,1.0,0.3002989999995407
471,13,0.5,1.0,-35.0,-1,1.0,0.28729999999995925
472,13,0.5,0.125,35.0,1,1.0,0.4137999999998101
473,13,0.5,1.0,35.0,1,1.0,0.3206000000000131
474,13,0.5,0.0,-35.0,1,0.0,0.4472000000000662
475,13,0.5,0.0625,35.0,1,1.0,0.3710999999998421
476,13,0.5,0.5,-35.0,-1,1.0,0.2573000000002139
477,13,0.5,0.5,35.0,1,1.0,0.4842999999996209
478,13,0.5,1.0,-35.0,-1,1.0,0.581000000000131
479,13,0.5,0.5,-35.0,-1,1.0,0.23119999999971697
480,13,0.5,1.0,35.0,1,1.0,0.30429999999978463
481,13,0.5,0.25,-35.0,-1,1.0,0.2781999999992877
482,13,0.5,0.125,35.0,1,1.0,0.28789999999980864
483,13,0.5,0.125,-35.0,-1,1.0,0.5949999999993452
484,13,0.5,0.0625,-35.0,1,0.0,0.34480000000030486
485,13,0.5,0.125,35.0,1,1.0,0.2784999999998945
486,13,0.5,0.25,35.0,1,1.0,0.24829899999986083
487,13,0.5,0.125,35.0,1,1.0,0.4652000000000953
488,13,0.5,0.125,35.0,1,1.0,0.2750999999998385
489,13,0.5,0.5,35.0,1,1.0,0.28900000000021464
490,13,0.5,0.125,35.0,1,1.0,0.3388999999997395
491,13,0.5,1.0,35.0,1,1.0,0.489100000000235
492,13,0.5,0.5,35.0,1,1.0,0.21559999999954016
493,13,0.5,1.0,35.0,1,1.0,0.13599999999996726
494,13,0.5,0.0,-35.0,1,0.0,0.24899999999979627
495,13,0.5,0.125,-35.0,-1,1.0,0.2296000000001186
496,13,0.5,0.0,35.0,1,1.0,9.889200000000073
497,13,0.5,0.0625,35.0,1,1.0,0.3631999999997788
498,13,0.5,1.0,35.0,1,1.0,0.20289999999977226
499,13,0.5,0.0625,35.0,1,1.0,0.5099999999997635
500,13,0.5,1.0,-35.0,-1,1.0,0.28629999999975553
501,13,0.5,0.0625,-35.0,-1,1.0,0.4600000000000364
502,13,0.5,0.5,-35.0,-1,1.0,0.27989900000011403
503,13,0.5,0.25,-35.0,-1,1.0,0.2667989999999918
504,13,0.5,0.5,35.0,1,1.0,0.29999999999972715
505,13,0.5,1.0,-35.0,-1,1.0,0.24369900000010603
506,13,0.5,0.25,35.0,1,1.0,0.336898999999903
507,13,0.5,1.0,-35.0,-1,1.0,0.2772989999998572
508,13,0.5,1.0,35.0,1,1.0,0.4470999999994092
509,13,0.5,0.5,-35.0,-1,1.0,0.3372999999996864
510,13,0.5,0.0,35.0,-1,0.0,0.6669999999999163
511,13,0.5,0.0,35.0,1,1.0,0.30419999999958236
512,13,0.5,1.0,-35.0,-1,1.0,0.3072999999994863
513,13,0.5,0.0625,35.0,1,1.0,0.31419999999980064
514,13,0.5,0.5,-35.0,-1,1.0,0.2607999999995627
515,13,0.5,0.0625,-35.0,-1,1.0,0.26449999999931606
516,13,0.5,0.0625,-35.0,-1,1.0,0.2943999999997686
517,13,0.5,0.125,35.0,1,1.0,0.3413999999997941
518,13,0.5,0.5,35.0,1,1.0,0.3577999999997701
519,13,0.5,0.5,-35.0,-1,1.0,0.24830000000019936
520,13,0.5,0.25,-35.0,-1,1.0,0.2745999999997366
521,13,0.5,0.0625,-35.0,-1,1.0,0.35839999999961947
522,13,0.5,1.0,35.0,1,1.0,0.8513989999996738
523,13,0.5,0.25,-35.0,1,0.0,2.208499999999731
524,13,0.5,0.0625,-35.0,1,0.0,2.5183999999999287
525,13,0.5,0.0625,-35.0,1,0.0,0.21219999999993888
526,13,0.5,1.0,35.0,1,1.0,0.3152999999997519
527,13,0.5,0.0,35.0,1,1.0,0.39570000000003347
528,13,0.5,0.0625,35.0,1,1.0,0.3888999999994667
529,13,0.5,0.125,35.0,1,1.0,0.625999999999749
530,13,0.5,0.5,-35.0,-1,1.0,0.2557000000001608
531,13,0.5,0.125,-35.0,-1,1.0,0.4194999999999709
532,13,0.5,0.125,35.0,1,1.0,0.369499999999789
533,13,0.5,0.0625,-35.0,-1,1.0,0.36639999999988504
534,13,0.5,0.5,-35.0,-1,1.0,0.3095000000002983
535,13,0.5,0.0625,-35.0,-1,1.0,0.35980000000017753
536,13,0.5,1.0,35.0,1,1.0,0.24639999999953943
537,13,0.5,0.0625,-35.0,-1,1.0,0.2898999999993066
538,13,0.5,0.25,35.0,1,1.0,0.27309999999988577
539,13,0.5,0.5,-35.0,-1,1.0,0.2602000000001681
540,13,0.5,1.0,35.0,1,1.0,0.253400000000056
541,13,0.5,1.0,-35.0,-1,1.0,0.23039999999946303
542,13,0.5,0.5,-35.0,-1,1.0,0.24349999999958527
543,13,0.5,1.0,35.0,1,1.0,0.2403999999996813
544,13,0.5,0.25,35.0,1,1.0,0.42699899999979607
545,13,0.5,0.25,-35.0,-1,1.0,0.43049999999993815
546,13,0.5,0.125,-35.0,1,0.0,0.31379999999990105
547,13,0.5,0.25,-35.0,-1,1.0,0.44739999999956126
548,13,0.5,0.0,-35.0,1,0.0,0.18389899999965564
549,13,0.5,0.0,-35.0,1,0.0,0.2743989999994483
550,13,0.6,0.0,-35.0,1,0.0,0.34760000000005675
551,13,0.5,1.0,35.0,1,1.0,0.2478000000000975
552,13,0.5,0.5,-35.0,-1,1.0,0.34760000000005675
553,13,0.5,1.0,-35.0,1,0.0,0.10479999999961365
554,13,0.7,1.0,-35.0,-1,1.0,0.2609999999995125
555,13,0.5,0.5,35.0,1,1.0,0.3681000000001404
556,13,0.5,0.0,-35.0,1,0.0,0.3079000000002452
557,13,0.5,0.125,-35.0,1,0.0,0.374899999999343
558,13,0.5,0.0,35.0,1,1.0,0.37139999999953943
559,13,0.5,0.125,35.0,1,1.0,0.24859999999989668
560,13,0.5,0.5,35.0,1,1.0,0.39479999999957727
561,13,0.5,0.25,-35.0,-1,1.0,0.3151990000001206
562,13,0.5,0.25,35.0,1,1.0,0.4216999999998734
563,13,0.5,0.125,-35.0,-1,1.0,0.3285999999998239
564,13,0.5,1.0,35.0,-1,0.0,0.3987000000001899
565,13,0.5,0.0,35.0,1,1.0,8.702099999999518
566,13,0.5,1.0,-35.0,-1,1.0,0.3488000000002103
567,13,0.5,0.5,35.0,1,1.0,0.309099999999944
568,13,0.5,1.0,35.0,1,1.0,0.28579999999965366
569,13,0.5,0.25,35.0,1,1.0,0.29249999999956344
570,13,0.5,0.25,35.0,1,1.0,0.27899999999999636
571,13,0.5,0.25,35.0,1,1.0,0.26929999999993015
572,13,0.5,0.5,-35.0,-1,1.0,0.3192000000003645
573,13,0.5,0.0,-35.0,-1,1.0,0.3127999999996973
574,13,0.5,0.5,35.0,1,1.0,0.2395000000001346
575,13,0.5,0.0,-35.0,1,0.0,0.2998999999995249
576,13,0.5,0.25,-35.0,-1,1.0,0.3294999999998254
577,13,0.5,0.5,-35.0,-1,1.0,0.3332989999998972
578,13,0.5,0.5,-35.0,-1,1.0,0.3129999999996471
579,13,0.5,0.125,-35.0,1,0.0,0.44339999999965585
580,13,0.5,0.125,-35.0,-1,1.0,0.3665000000000873
581,13,0.5,1.0,35.0,1,1.0,0.1900999999998021
582,13,0.5,0.5,35.0,1,1.0,0.2233000000001084
583,13,0.5,1.0,-35.0,-1,1.0,0.2867989999999736
584,13,0.5,0.25,-35.0,-1,1.0,0.320100000000366
585,13,0.5,0.25,-35.0,-1,1.0,0.2573000000002139
586,13,0.5,0.5,-35.0,-1,1.0,0.29020000000036816
587,13,0.5,0.25,-35.0,-1,1.0,0.27719999999999345
588,13,0.5,0.5,-35.0,-1,1.0,0.38040000000000873
589,13,0.5,0.25,-35.0,-1,1.0,0.2873999999997068
590,13,0.5,0.25,-35.0,-1,1.0,0.26710000000002765
591,13,0.5,0.0625,35.0,-1,0.0,2.4142000000001644
592,13,0.1,0.0625,35.0,1,1.0,0.40739999999959764
593,13,0.5,1.0,35.0,1,1.0,0.2678000000000793
594,13,0.5,0.125,35.0,1,1.0,0.2974999999996726
595,13,0.5,0.0,-35.0,-1,1.0,0.2614999999996144
596,13,0.5,0.0625,35.0,1,1.0,0.35439999999971405
597,13,0.5,0.0625,-35.0,1,0.0,0.37159999999948923
598,13,0.5,0.125,-35.0,-1,1.0,0.2579999999993561
599,13,0.5,0.0625,-35.0,-1,1.0,0.5049999999996544
600,13,0.5,0.125,-35.0,-1,1.0,0.2846999999997024
601,13,0.5,0.0625,35.0,-1,0.0,0.3617999999996755
602,13,0.5,0.125,35.0,1,1.0,0.2747989999998026
603,13,0.5,0.125,-35.0,-1,1.0,0.2818999999999505
604,13,0.5,0.0,-35.0,-1,1.0,0.30829999999969004
605,13,0.5,0.125,35.0,1,1.0,0.26239999999961583
606,13,0.5,0.0625,-35.0,-1,1.0,0.355199999999968
607,13,0.5,0.25,35.0,1,1.0,0.18870000000015352
608,13,0.5,0.125,-35.0,-1,1.0,0.21869999999989886
609,13,0.5,0.0,35.0,1,1.0,0.37590000000000146
610,13,0.5,1.0,-35.0,-1,1.0,0.3186999999998079
611,13,0.5,0.0625,35.0,1,1.0,0.42909999999983484
612,13,0.5,0.125,-35.0,-1,1.0,0.2822989999999663
613,13,0.5,0.25,-35.0,-1,1.0,0.2625999999995656
614,13,0.5,0.25,35.0,1,1.0,0.4857999999999265
615,13,0.5,0.25,35.0,-1,0.0,0.1459999999997308
616,13,0.5,0.125,-35.0,-1,1.0,0.24590000000034706
617,13,0.5,0.125,35.0,1,1.0,0.2966989999999896
618,13,0.5,0.25,35.0,1,1.0,0.2960000000002765
619,13,0.5,0.0625,-35.0,1,0.0,0.23300000000017462
620,13,0.5,0.0,35.0,1,1.0,0.2962999999999738
621,13,0.5,0.0,35.0,1,1.0,0.22649999999930515
622,13,0.5,0.0,-35.0,1,0.0,0.583100000000286
623,13,0.5,0.0,35.0,1,1.0,0.2802999999998974
624,13,0.5,0.125,-35.0,-1,1.0,0.2632999999996173
625,13,0.5,0.125,35.0,1,1.0,0.5036989999998696
626,13,0.5,0.25,35.0,1,1.0,0.6899999999995998
627,13,0.5,0.0,-35.0,1,0.0,0.24699999999984357
628,13,0.5,0.25,-35.0,-1,1.0,0.2567989999997735
629,13,0.5,0.25,-35.0,-1,1.0,0.3172999999997046
630,13,0.5,0.125,-35.0,1,0.0,0.17049999999971988
631,13,0.7,0.125,-35.0,-1,1.0,0.30399999999963256
632,13,0.5,1.0,-35.0,-1,1.0,0.29379999999991924
633,13,0.5,1.0,35.0,1,1.0,0.4343999999996413
634,13,0.5,0.125,-35.0,-1,1.0,0.4207000000001244
635,13,0.5,0.0625,35.0,1,1.0,0.2842999999998028
636,13,0.5,0.0,-35.0,1,0.0,0.2876000000001113
637,13,0.5,0.25,35.0,1,1.0,0.20449999999982538
638,13,0.5,0.0625,35.0,1,1.0,0.824500000000171
639,13,0.5,0.0625,-35.0,1,0.0,1.8314000000000306
640,13,0.5,0.0625,35.0,1,1.0,0.5877999999997883
641,13,0.5,0.25,35.0,1,1.0,0.42839899999944464
642,13,0.5,0.0,-35.0,1,0.0,0.32150000000001455
643,13,0.5,0.0,-35.0,1,0.0,0.701799999999821
644,13,0.9,0.0,-35.0,1,0.0,4.29859899999974
645,13,0.5,1.0,-35.0,-1,1.0,0.5054000000000087
646,13,0.5,0.0,-35.0,-1,1.0,10.031799999999748
647,13,0.5,1.0,35.0,-1,0.0,2.432499999999436
648,13,0.5,0.25,35.0,-1,0.0,3.6422999999999774
649,13,0.5,0.0,-35.0,-1,1.0,7.479499999999916
650,13,0.5,0.25,35.0,1,1.0,8.032599999999547
651,13,0.5,0.0625,-35.0,-1,1.0,3.0697989999998754
652,13,0.5,0.0,35.0,-1,0.0,6.012999999999465
653,13,0.5,0.125,-35.0,-1,1.0,4.040099999999711
654,13,0.5,1.0,35.0,1,1.0,8.880099999999402
655,13,0.5,0.0625,35.0,-1,0.0,0.5605999999997948
656,13,0.5,0.0,35.0,-1,0.0,2.446998999999778
657,13,0.5,0.125,35.0,-1,0.0,6.884099999999762
1,14,0.5,0.125,35.0,1,1.0,0.5457000000000001
2,14,0.5,0.125,35.0,1,1.0,0.6319000000000008
3,14,0.5,0.125,35.0,1,1.0,0.33729999999999905
4,14,0.5,1.0,35.0,1,1.0,0.40390000000000015
5,14,0.5,0.125,-35.0,-1,1.0,0.5345000000000013
6,14,0.5,0.0625,-35.0,-1,1.0,0.7607000000000035
7,14,0.5,1.0,-35.0,-1,1.0,0.2435000000000045
8,14,0.5,1.0,-35.0,-1,1.0,0.23669999999999902
9,14,0.5,0.0,-35.0,-1,1.0,2.3546000000000014
10,14,0.5,0.125,35.0,-1,0.0,1.5897000000000077
11,14,0.5,0.125,-35.0,-1,1.0,0.2837999999999994
12,14,0.5,0.0625,-35.0,-1,1.0,0.19140000000000157
13,14,0.5,0.0,-35.0,-1,1.0,0.26439999999999486
14,14,0.5,0.0625,-35.0,-1,1.0,0.2513000000000005
15,14,0.5,1.0,-35.0,-1,1.0,0.20309999999999917
16,14,0.5,0.125,35.0,1,1.0,0.448599999999999
17,14,0.5,0.25,-35.0,-1,1.0,0.25020000000000664
18,14,0.5,0.25,35.0,-1,0.0,0.1272999999999911
19,14,0.5,0.125,35.0,-1,0.0,0.22419999999999618
20,14,0.5,0.125,35.0,-1,0.0,0.31690000000000396
21,14,0.5,0.0625,-35.0,-1,1.0,0.25790000000000646
22,14,0.5,0.125,-35.0,-1,1.0,0.39910000000001844
23,14,0.5,1.0,-35.0,-1,1.0,0.23750000000001137
24,14,0.5,0.25,35.0,-1,0.0,0.2885000000000133
25,14,0.5,0.0625,35.0,-1,0.0,0.26019999999999754
26,14,0.5,0.125,35.0,1,1.0,0.3304000000000116
27,14,0.5,0.0,-35.0,-1,1.0,8.859400000000008
28,14,0.5,1.0,-35.0,-1,1.0,0.2574000000000183
29,14,0.5,0.125,-35.0,-1,1.0,0.24609999999999843
30,14,0.5,1.0,-35.0,-1,1.0,0.2242000000000104
31,14,0.5,0.125,35.0,1,1.0,0.6616999999999962
32,14,0.5,0.125,-35.0,1,0.0,0.7727000000000004
33,14,0.5,0.0,-35.0,1,0.0,0.5554999999999666
34,14,0.5,0.0625,35.0,1,1.0,0.4352999999999838
35,14,0.5,0.0625,-35.0,-1,1.0,0.36310000000000286
36,14,0.5,0.125,35.0,1,1.0,0.9295999999999651
37,14,0.5,0.25,35.0,1,1.0,0.7539999999999907
38,14,0.5,0.0625,35.0,1,1.0,0.2990999999999815
39,14,0.5,0.0625,35.0,1,1.0,0.3521999999999821
40,14,0.5,0.25,35.0,1,1.0,0.2569999999999766
41,14,0.5,0.25,-35.0,-1,1.0,0.37530000000000996
42,14,0.5,1.0,-35.0,-1,1.0,0.3410999999999831
43,14,0.5,0.125,-35.0,-1,1.0,0.47129999999995675
44,14,0.5,0.25,-35.0,-1,1.0,0.4252999999999929
45,14,0.5,0.0625,35.0,-1,0.0,0.25790000000000646
46,14,0.5,0.0,-35.0,1,0.0,0.3592999999999904
47,14,0.5,0.0625,35.0,1,1.0,0.29229999999998313
48,14,0.5,1.0,35.0,1,1.0,0.26029999999997244
49,14,0.5,0.25,35.0,1,1.0,0.2698000000000036
50,14,0.5,0.125,35.0,1,1.0,0.2968999999999937
51,14,0.5,0.0,-35.0,1,0.0,0.3941000000000088
52,14,0.5,0.0,35.0,1,1.0,0.38450000000000273
53,14,0.5,0.0625,35.0,1,1.0,0.3171999999999855
54,14,0.5,0.125,-35.0,-1,1.0,0.46649999999996794
55,14,0.5,0.0625,-35.0,-1,1.0,0.5646999999999878
56,14,0.5,0.25,-35.0,-1,1.0,0.23099999999999454
57,14,0.5,0.0625,-35.0,-1,1.0,0.33619999999999095
58,14,0.5,0.0625,35.0,1,1.0,0.5568999999999846
59,14,0.5,0.25,-35.0,1,0.0,0.5405999999999267
60,14,0.5,0.25,-35.0,-1,1.0,0.24139999999999873
61,14,0.5,0.25,35.0,-1,0.0,0.5668999999999755
62,14,0.5,0.25,35.0,1,1.0,0.3009000000000128
63,14,0.5,1.0,-35.0,-1,1.0,0.23329999999998563
64,14,0.5,0.0625,35.0,1,1.0,0.3306999999999789
65,14,0.5,1.0,35.0,1,1.0,0.5628000000000384
66,14,0.5,0.0,35.0,1,1.0,0.23569999999995161
67,14,0.5,0.25,35.0,1,1.0,0.3223000000000411
68,14,0.5,0.0625,35.0,1,1.0,0.3086000000000695
69,14,0.5,1.0,-35.0,-1,1.0,0.28199999999998226
70,14,0.5,0.0,-35.0,1,0.0,0.3252000000000521
71,14,0.5,0.0625,35.0,1,1.0,0.43070000000000164
72,14,0.5,1.0,35.0,1,1.0,0.4567000000000121
73,14,0.5,0.125,-35.0,1,0.0,0.4306999999999448
74,14,0.9,0.125,-35.0,-1,1.0,0.2744999999999891
75,14,0.5,1.0,-35.0,-1,1.0,0.23869999999999436
76,14,0.5,0.0625,35.0,1,1.0,0.8052000000000135
77,14,0.5,0.25,35.0,1,1.0,0.400799999999947
78,14,0.5,0.25,35.0,1,1.0,0.5439000000000078
79,14,0.5,0.25,35.0,1,1.0,0.31599999999991724
80,14,0.5,0.125,-35.0,-1,1.0,0.26549999999997453
81,14,0.5,0.0,35.0,1,1.0,0.27679900000003954
82,14,0.5,0.125,-35.0,-1,1.0,0.28110000000003765
83,14,0.5,0.25,35.0,-1,0.0,0.14699999999999136
84,14,0.5,0.25,35.0,1,1.0,0.5527000000000157
85,14,0.5,0.0,35.0,-1,0.0,0.3473999999999364
86,14,0.5,0.125,-35.0,-1,1.0,0.24859999999995352
87,14,0.5,1.0,-35.0,-1,1.0,0.3050999999999817
88,14,0.5,0.125,-35.0,-1,1.0,0.2641999999999598
89,14,0.5,0.25,-35.0,-1,1.0,0.3716000000000008
90,14,0.5,0.0625,35.0,1,1.0,0.3906999999999812
91,14,0.5,0.25,-35.0,-1,1.0,0.23939999999998918
92,14,0.5,0.25,35.0,1,1.0,0.35429999999996653
93,14,0.5,0.0625,-35.0,-1,1.0,0.272199999999998
94,14,0.5,0.125,35.0,1,1.0,0.45999999999997954
95,14,0.5,0.25,35.0,1,1.0,0.2799999999999727
96,14,0.5,0.0625,-35.0,1,0.0,0.1931989999999928
97,14,0.5,0.125,-35.0,-1,1.0,0.2721000000000231
98,14,0.5,0.0625,-35.0,-1,1.0,0.3475999999999999
99,14,0.5,0.0,35.0,-1,0.0,0.1682999999999879
100,14,0.5,0.25,35.0,1,1.0,0.3498000000000161
101,14,0.5,1.0,-35.0,-1,1.0,0.3197999999999297
102,14,0.5,1.0,35.0,1,1.0,0.31049999999999045
103,14,0.5,0.0,-35.0,-1,1.0,0.2299000000000433
104,14,0.5,1.0,-35.0,-1,1.0,0.2769999999999868
105,14,0.5,0.25,35.0,1,1.0,0.25029999999998154
106,14,0.5,0.25,-35.0,-1,1.0,0.30779999999992924
107,14,0.5,0.125,-35.0,-1,1.0,0.5393999999999437
108,14,0.5,0.0,35.0,-1,0.0,0.5366000000000213
109,14,0.5,0.125,35.0,1,1.0,0.3269999999999982
110,14,0.5,0.125,35.0,1,1.0,0.24559999999996762
111,14,0.5,0.0625,-35.0,1,0.0,0.26949999999999363
112,14,0.5,0.0,35.0,1,1.0,0.3146000000000413
113,14,0.5,1.0,35.0,1,1.0,0.28750000000002274
114,14,0.5,1.0,-35.0,-1,1.0,0.20539999999994052
115,14,0.5,0.25,-35.0,-1,1.0,0.24540000000001783
116,14,0.5,0.0,35.0,-1,0.0,0.3102999999999838
117,14,0.5,0.125,35.0,1,1.0,0.3649999999998954
118,14,0.5,1.0,-35.0,-1,1.0,0.19279999999992015
119,14,0.5,0.0625,35.0,1,1.0,0.3826999999999998
120,14,0.5,1.0,35.0,1,1.0,0.3105000000000473
121,14,0.5,0.125,35.0,1,1.0,0.36850000000004
122,14,0.5,1.0,-35.0,-1,1.0,0.22469999999998436
123,14,0.5,0.0625,35.0,1,1.0,0.4960999999999558
124,14,0.5,0.25,35.0,1,1.0,0.3446999999999889
125,14,0.5,0.25,35.0,1,1.0,0.313199999999938
126,14,0.5,0.25,-35.0,1,0.0,0.3766000000000531
127,14,0.5,0.0625,-35.0,1,0.0,0.4884999999999309
128,14,0.5,0.125,35.0,1,1.0,0.25339999999994234
129,14,0.5,0.0625,-35.0,1,0.0,0.42250000000001364
130,14,0.5,0.25,35.0,1,1.0,0.2826000000000022
131,14,0.5,1.0,35.0,1,1.0,0.318300000000022
132,14,0.5,0.0625,35.0,1,1.0,0.27480000000002747
133,14,0.5,0.25,35.0,1,1.0,0.34809999999993124
134,14,0.5,0.125,35.0,1,1.0,0.332300000000032
135,14,0.5,1.0,35.0,1,1.0,0.2859999999999445
136,14,0.5,0.125,-35.0,-1,1.0,0.5007000000000517
137,14,0.5,0.25,-35.0,-1,1.0,0.31949999999994816
138,14,0.5,0.25,-35.0,-1,1.0,0.22290000000009513
139,14,0.5,0.0,35.0,1,1.0,0.33009900000001835
140,14,0.5,0.25,-35.0,-1,1.0,0.3892999999999347
141,14,0.5,1.0,35.0,1,1.0,0.27169900000001235
142,14,0.5,0.0625,-35.0,1,0.0,0.2598999999999023
143,14,0.5,0.125,-35.0,-1,1.0,0.23659900000006928
144,14,0.5,0.0625,35.0,1,1.0,2.357499999999959
145,14,0.5,0.125,-35.0,-1,1.0,0.20519999999999072
146,14,0.5,0.125,-35.0,-1,1.0,0.452199999999948
147,14,0.5,1.0,35.0,1,1.0,0.3341000000000349
148,14,0.5,1.0,35.0,1,1.0,0.3485000000000582
149,14,0.5,0.25,35.0,1,1.0,0.2538000000000693
150,14,0.5,0.0625,35.0,1,1.0,0.42019999999990887
151,14,0.5,0.125,-35.0,-1,1.0,0.21640000000002146
152,14,0.5,0.0625,-35.0,-1,1.0,0.35419999999999163
153,14,0.5,0.25,-35.0,-1,1.0,0.265700000000038
154,14,0.5,0.25,35.0,1,1.0,0.2737000000000762
155,14,0.5,0.25,35.0,1,1.0,0.2925000000000182
156,14,0.5,0.0625,35.0,1,1.0,0.43429999999989377
157,14,0.5,0.25,35.0,1,1.0,0.4010000000000673
158,14,0.5,0.0625,-35.0,-1,1.0,0.36839999999995143
159,14,0.5,0.0625,35.0,1,1.0,0.49949999999989814
160,14,0.5,0.0,-35.0,-1,1.0,0.13800000000003365
161,14,0.5,1.0,35.0,1,1.0,0.5261000000000422
162,14,0.5,0.0625,-35.0,-1,1.0,0.344600000000014
163,14,0.5,1.0,-35.0,-1,1.0,0.21619999999995798
164,14,0.5,1.0,-35.0,-1,1.0,0.24469999999996617
165,14,0.5,0.125,35.0,1,1.0,0.31939999999997326
166,14,0.5,1.0,-35.0,-1,1.0,0.25090000000000146
167,14,0.5,0.0625,35.0,1,1.0,0.33140000000003056
168,14,0.5,0.25,35.0,1,1.0,0.4371000000001004
169,14,0.5,1.0,35.0,1,1.0,0.30329999999992197
170,14,0.5,0.25,-35.0,1,0.0,0.34170000000005984
171,14,0.5,0.0625,-35.0,1,0.0,0.4638999999999669
172,14,0.6,0.0625,35.0,1,1.0,0.3048999999999751
173,14,0.5,1.0,35.0,1,1.0,0.2782999999999447
174,14,0.5,0.125,-35.0,-1,1.0,0.36599999999998545
175,14,0.5,0.0625,35.0,1,1.0,0.33609999999987394
176,14,0.5,0.0625,35.0,1,1.0,0.3415989999999738
177,14,0.5,0.125,35.0,1,1.0,0.31129999999996016
178,14,0.5,1.0,-35.0,-1,1.0,0.36789999999996326
179,14,0.5,0.125,-35.0,1,0.0,0.2980999999999767
180,14,0.5,0.0625,-35.0,-1,1.0,0.44359899999994923
181,14,0.5,0.0625,-35.0,-1,1.0,0.4374000000000251
182,14,0.5,0.0625,35.0,1,1.0,0.34979999999995925
183,14,0.5,0.125,35.0,1,1.0,0.30539999999996326
184,14,0.5,0.125,35.0,1,1.0,0.2676999999999907
185,14,0.5,1.0,35.0,1,1.0,0.30490000000008877
186,14,0.5,1.0,35.0,1,1.0,0.3424999999999727
187,14,0.5,1.0,35.0,1,1.0,0.2560999999999467
188,14,0.5,0.0,35.0,1,1.0,0.23230000000000928
189,14,0.5,1.0,-35.0,-1,1.0,0.37000000000000455
190,14,0.5,0.0625,35.0,1,1.0,0.47910000000001673
191,14,0.5,0.0625,35.0,1,1.0,0.3867000000000189
192,14,0.5,0.0625,35.0,1,1.0,0.25689999999997326
193,14,0.5,0.125,-35.0,1,0.0,0.18849999999997635
194,14,0.5,0.125,35.0,1,1.0,0.22230000000001837
195,14,0.5,0.25,-35.0,-1,1.0,0.2799999999999727
196,14,0.5,0.25,35.0,1,1.0,0.19849999999996726
197,14,0.5,0.125,-35.0,-1,1.0,0.2724000000000615
198,14,0.5,0.0625,35.0,1,1.0,0.31399999999996453
199,14,0.5,0.125,-35.0,1,0.0,0.2617999999999938
200,14,0.5,0.0625,-35.0,-1,1.0,0.3854989999999816
201,14,0.5,1.0,35.0,1,1.0,0.29750000000001364
202,14,0.5,0.0,35.0,1,1.0,0.41629999999997835
203,14,0.5,0.125,35.0,1,1.0,0.27549999999996544
204,14,0.5,0.25,35.0,1,1.0,0.2663000000000011
205,14,0.5,0.0625,35.0,1,1.0,0.30330000000003565
206,14,0.5,1.0,35.0,1,1.0,0.276299999999992
207,14,0.5,0.25,35.0,1,1.0,0.27699999999992997
208,14,0.5,0.25,-35.0,-1,1.0,0.39999999999997726
209,14,0.5,1.0,35.0,1,1.0,0.2239999999999327
210,14,0.5,1.0,35.0,-1,0.0,0.1533999999999196
211,14,0.8,1.0,-35.0,-1,1.0,0.2504999999998745
212,14,0.5,1.0,-35.0,-1,1.0,0.2136000000000422
213,14,0.5,1.0,-35.0,-1,1.0,0.22059999999987667
214,14,0.5,0.0625,-35.0,-1,1.0,0.2338999999999487
215,14,0.5,0.0625,35.0,1,1.0,0.2074999999999818
216,14,0.5,0.0625,-35.0,1,0.0,0.29730000000017753
217,14,0.5,0.125,35.0,1,1.0,0.21450000000004366
218,14,0.5,1.0,-35.0,-1,1.0,0.2340999999998985
219,14,0.5,0.125,35.0,1,1.0,0.3915999999999258
220,14,0.5,0.0625,35.0,1,1.0,0.6176000000002659
221,14,0.5,1.0,-35.0,-1,1.0,0.2215000000001055
222,14,0.5,1.0,-35.0,1,0.0,2.254498999999896
223,14,0.6,1.0,35.0,1,1.0,3.248399999999947
224,14,0.5,1.0,35.0,1,1.0,0.611299999999801
225,14,0.5,1.0,35.0,1,1.0,1.8317999999999302
226,14,0.5,0.125,35.0,1,1.0,0.7714999999998327
227,14,0.5,1.0,-35.0,-1,1.0,0.26870000000008076
228,14,0.5,0.0625,35.0,1,1.0,0.3217000000001917
229,14,0.5,1.0,35.0,1,1.0,0.23549999999977445
230,14,0.5,0.0625,35.0,1,1.0,0.2585999999998876
231,14,0.5,0.25,-35.0,-1,1.0,0.4724999999998545
232,14,0.5,0.0625,-35.0,1,0.0,0.7521999999999025
233,14,0.5,0.25,35.0,1,1.0,0.23269999999979518
234,14,0.5,0.25,-35.0,-1,1.0,0.2722999999998592
235,14,0.5,0.0625,35.0,1,1.0,0.5730999999998403
236,14,0.5,0.25,-35.0,1,0.0,0.44240000000013424
237,14,0.5,0.25,-35.0,-1,1.0,1.1329000000000633
238,14,0.5,0.0,-35.0,1,0.0,0.5558999999998377
239,14,0.5,0.0,-35.0,-1,1.0,0.2966000000001259
240,14,0.5,0.0625,35.0,1,1.0,0.3062999999999647
241,14,0.5,0.0625,35.0,1,1.0,0.24680000000012114
242,14,0.5,0.25,35.0,1,1.0,0.6530999999999949
243,14,0.5,0.0,-35.0,1,0.0,0.28369999999995343
244,14,0.7,0.0,-35.0,1,0.0,0.24649999999996908
245,14,0.5,1.0,35.0,1,1.0,0.28389999999990323
246,14,0.5,0.0,35.0,1,1.0,0.44669999999996435
247,14,0.5,1.0,-35.0,-1,1.0,0.28730000000018663
248,14,0.5,0.125,-35.0,-1,1.0,0.26700000000005275
249,14,0.5,0.0625,-35.0,-1,1.0,0.5373999999999342
250,14,0.5,1.0,35.0,1,1.0,0.2737999999999374
251,14,0.5,0.0,-35.0,1,0.0,7.051100000000133
252,14,0.5,0.125,-35.0,-1,1.0,0.30750000000011823
253,14,0.5,0.25,-35.0,-1,1.0,0.16480000000001382
254,14,0.5,1.0,35.0,1,1.0,0.35429999999996653
255,14,0.5,0.25,-35.0,-1,1.0,0.3214999999997872
256,14,0.5,0.25,-35.0,-1,1.0,0.28449999999998
257,14,0.5,0.0,35.0,-1,0.0,0.34169999999994616
258,14,0.5,0.25,-35.0,-1,1.0,0.29139999999983957
259,14,0.5,0.0625,35.0,1,1.0,0.38850000000002183
260,14,0.5,0.0625,-35.0,-1,1.0,1.528099999999995
261,14,0.5,1.0,-35.0,-1,1.0,0.22199999999975262
262,14,0.5,1.0,-35.0,-1,1.0,0.21499999999991815
263,14,0.5,0.0625,-35.0,-1,1.0,0.31209899999998925
264,14,0.5,0.25,35.0,-1,0.0,0.4717000000000553
265,14,0.5,0.0625,-35.0,-1,1.0,0.27569999999991524
266,14,0.5,0.125,35.0,1,1.0,0.2986999999998261
267,14,0.5,0.125,35.0,1,1.0,0.27920000000017353
268,14,0.5,0.125,-35.0,-1,1.0,0.24539999999979045
269,14,0.5,0.0625,35.0,-1,0.0,0.12930000000005748
270,14,0.2,0.0625,35.0,1,1.0,0.3123000000000502
271,14,0.5,1.0,-35.0,-1,1.0,0.2695000000001073
272,14,0.5,0.0,35.0,1,1.0,0.6890999999998257
273,14,0.5,0.0,35.0,-1,0.0,0.46309999999994034
274,14,0.4,0.0,35.0,1,1.0,0.3727000000001226
275,14,0.5,1.0,35.0,1,1.0,0.2666999999999007
276,14,0.5,0.25,-35.0,1,0.0,0.3528000000001157
277,14,0.5,0.0625,35.0,1,1.0,0.35999999999989996
278,14,0.5,0.0625,35.0,1,1.0,0.24639999999999418
279,14,0.5,0.25,35.0,1,1.0,0.24680000000012114
280,14,0.5,0.25,35.0,1,1.0,0.5432000000000698
281,14,0.5,0.125,35.0,1,1.0,0.2503999999998996
282,14,0.5,0.0625,35.0,1,1.0,0.34339999999997417
283,14,0.5,0.25,35.0,1,1.0,0.36390000000005784
284,14,0.5,1.0,35.0,1,1.0,0.1507000000001426
285,14,0.5,0.25,35.0,1,1.0,0.3369000000000142
286,14,0.5,0.25,35.0,1,1.0,0.34770000000003165
287,14,0.5,0.25,-35.0,-1,1.0,0.32389999999986685
288,14,0.5,0.0625,-35.0,1,0.0,0.2543000000000575
289,14,0.5,0.0625,35.0,1,1.0,0.2679000000000542
290,14,0.5,0.25,-35.0,-1,1.0,0.5507999999999811
291,14,0.5,1.0,-35.0,-1,1.0,0.38459999999986394
292,14,0.5,0.25,-35.0,-1,1.0,0.3310999999998785
293,14,0.5,0.125,35.0,1,1.0,0.8480999999999312
294,14,0.5,0.25,-35.0,-1,1.0,0.2880999999999858
295,14,0.5,1.0,35.0,1,1.0,0.5950000000000273
296,14,0.5,1.0,35.0,1,1.0,0.26480000000015025
297,14,0.5,0.125,35.0,1,1.0,0.27870000000007167
298,14,0.5,0.25,35.0,1,1.0,0.2750999999998385
299,14,0.5,0.0625,35.0,1,1.0,0.33539999999993597
300,14,0.5,1.0,35.0,1,1.0,0.22850000000016735
301,14,0.5,0.0,-35.0,1,0.0,4.42899999999986
302,14,0.5,0.25,35.0,1,1.0,0.1487000000001899
303,14,0.5,0.125,-35.0,1,0.0,0.2158999999999196
304,14,0.9,0.125,-35.0,1,0.0,0.21570000000019718
305,14,0.5,1.0,35.0,1,1.0,0.2393000000001848
306,14,0.5,0.125,-35.0,-1,1.0,0.40239999999994325
307,14,0.5,0.25,-35.0,-1,1.0,0.21640000000002146
308,14,0.5,0.25,35.0,1,1.0,0.4458999999999378
309,14,0.5,0.25,-35.0,-1,1.0,0.266399999999976
310,14,0.5,1.0,35.0,1,1.0,0.3396000000002459
311,14,0.5,1.0,35.0,1,1.0,0.2766999999998916
312,14,0.5,1.0,35.0,1,1.0,0.32320000000004256
313,14,0.5,1.0,-35.0,-1,1.0,0.23700000000008004
314,14,0.5,0.125,35.0,1,1.0,0.4134000000001379
315,14,0.5,0.0625,-35.0,-1,1.0,0.22700000000008913
316,14,0.5,0.125,35.0,1,1.0,0.23680000000013024
317,14,0.5,0.125,-35.0,-1,1.0,0.34750000000008185
318,14,0.5,0.0625,35.0,1,1.0,1.8235999999999422
319,14,0.5,0.0625,-35.0,1,0.0,0.8509999999998854
320,14,0.7,0.0625,-35.0,1,0.0,0.39380000000005566
321,14,0.5,1.0,-35.0,-1,1.0,0.294399999999996
322,14,0.5,0.0,35.0,1,1.0,5.803899999999885
323,14,0.5,1.0,35.0,1,1.0,0.20119999999997162
324,14,0.5,0.125,-35.0,1,0.0,0.37429900000006455
325,14,0.5,0.0625,35.0,1,1.0,0.3713999999999942
326,14,0.5,1.0,35.0,1,1.0,0.19100000000003092
327,14,0.5,1.0,35.0,1,1.0,0.30500000000006366
328,14,0.5,0.25,35.0,1,1.0,0.40119899999990594
329,14,0.5,1.0,35.0,1,1.0,0.2518000000000029
330,14,0.5,1.0,35.0,1,1.0,0.22169999999982792
331,14,0.5,0.125,-35.0,-1,1.0,0.9854000000000269
332,14,0.5,1.0,-35.0,-1,1.0,0.2582999999999629
333,14,0.5,1.0,-35.0,-1,1.0,0.2620999999999185
334,14,0.5,0.0,-35.0,-1,1.0,1.3351999999999862
335,14,0.5,1.0,-35.0,-1,1.0,0.23559999999997672
336,14,0.5,0.0625,-35.0,1,0.0,0.2587989999999536
337,14,0.5,0.0625,35.0,1,1.0,0.38249999999993634
338,14,0.5,1.0,35.0,1,1.0,0.2756000000001677
339,14,0.5,1.0,-35.0,-1,1.0,0.23969999999985703
340,14,0.5,0.25,-35.0,-1,1.0,0.282799999999952
341,14,0.5,0.25,-35.0,-1,1.0,0.39640000000008513
342,14,0.5,0.125,35.0,1,1.0,0.6028999999998632
343,14,0.5,1.0,35.0,1,1.0,0.31999999999993634
344,14,0.5,0.125,35.0,1,1.0,0.2828999999999269
345,14,0.5,0.0625,35.0,1,1.0,0.2567999999998847
346,14,0.5,1.0,-35.0,-1,1.0,0.2763999999999669
347,14,0.5,0.0625,35.0,-1,0.0,0.2636999999999716
348,14,0.5,0.25,35.0,1,1.0,0.2966000000001259
349,14,0.5,1.0,-35.0,-1,1.0,0.3470999999999549
350,14,0.5,0.125,-35.0,-1,1.0,0.2401999999999589
351,14,0.5,0.0,-35.0,1,0.0,0.5772999999999229
352,14,0.5,0.0625,-35.0,1,0.0,0.2802999999998974
353,14,0.5,0.25,35.0,1,1.0,0.1974999999999909
354,14,0.5,0.25,35.0,1,1.0,0.3870999999999185
355,14,0.5,0.0625,35.0,1,1.0,0.31770000000005894
356,14,0.5,0.0625,35.0,1,1.0,0.27070000000003347
357,14,0.5,0.0625,-35.0,-1,1.0,0.29140000000006694
358,14,0.5,0.25,-35.0,-1,1.0,0.32749999999987267
359,14,0.5,0.0625,-35.0,-1,1.0,0.5047000000001844
360,14,0.5,0.125,-35.0,-1,1.0,0.3243999999999687
361,14,0.5,0.0625,35.0,1,1.0,0.32819999999992433
362,14,0.5,0.25,-35.0,-1,1.0,0.3244999999999436
363,14,0.5,0.25,35.0,1,1.0,0.24839999999994689
364,14,0.5,0.25,-35.0,-1,1.0,0.3113999999998214
365,14,0.5,0.0625,-35.0,-1,1.0,0.4550000000001546
366,14,0.5,0.0625,-35.0,-1,1.0,1.0449000000000979
367,14,0.5,0.125,35.0,1,1.0,0.36210000000005493
368,14,0.5,0.0625,35.0,1,1.0,0.4651000000001204
369,14,0.5,1.0,-35.0,-1,1.0,0.26890000000003056
370,14,0.5,0.0,-35.0,-1,1.0,0.5621000000001004
371,14,0.5,0.125,-35.0,-1,1.0,0.26559999999994943
372,14,0.5,0.0,35.0,-1,0.0,0.3287000000000262
373,14,0.5,0.125,35.0,1,1.0,0.3560000000002219
374,14,0.5,1.0,35.0,1,1.0,0.2822999999998501
375,14,0.5,0.125,-35.0,-1,1.0,0.7328999999999724
376,14,0.5,0.0,35.0,1,1.0,0.3791000000001077
377,14,0.5,0.125,-35.0,-1,1.0,0.3495989999998983
378,14,0.5,0.0,35.0,-1,0.0,0.3626999999999043
379,14,0.5,0.125,-35.0,-1,1.0,0.2799990000000889
380,14,0.5,0.125,-35.0,-1,1.0,0.22280000000000655
381,14,0.5,0.0625,35.0,-1,0.0,0.19349999999985812
382,14,0.5,0.0625,-35.0,-1,1.0,0.41650000000004184
383,14,0.5,0.25,-35.0,-1,1.0,0.31359999999995125
384,14,0.5,0.125,-35.0,-1,1.0,0.2601000000001932
385,14,0.5,0.0625,-35.0,-1,1.0,0.8302999999998519
386,14,0.5,0.0,-35.0,1,0.0,0.34349999999994907
387,14,0.5,0.25,35.0,1,1.0,0.28730000000018663
388,14,0.5,0.125,35.0,1,1.0,0.3238000000001193
389,14,0.5,1.0,35.0,1,1.0,0.28769999999985885
390,14,0.5,0.25,35.0,1,1.0,0.2605999999998403
391,14,0.5,0.0625,-35.0,1,0.0,0.3143999999999778
392,14,0.6,0.0625,-35.0,-1,1.0,0.927599999999984
393,14,0.5,1.0,-35.0,-1,1.0,0.22790000000009059
394,14,0.5,0.125,35.0,1,1.0,0.2875000000001364
395,14,0.5,0.0,-35.0,-1,1.0,0.24489999999991596
396,14,0.5,0.0625,-35.0,1,0.0,0.49099999999998545
397,14,0.5,0.125,35.0,1,1.0,0.3582000000001244
398,14,0.5,0.25,-35.0,-1,1.0,0.2844999999997526
399,14,0.5,1.0,-35.0,-1,1.0,0.23840000000018335
400,14,0.5,0.0,-35.0,1,0.0,0.2780999999999949
401,14,0.5,0.125,35.0,1,1.0,0.36520000000018626
402,14,0.5,0.0,35.0,1,1.0,0.2749999999998636
403,14,0.5,0.0625,-35.0,1,0.0,0.29539999999997235
404,14,0.7,0.0625,-35.0,-1,1.0,0.3750999999999749
405,14,0.5,1.0,35.0,1,1.0,0.23559899999986555
406,14,0.5,0.25,-35.0,-1,1.0,0.2884999999998854
407,14,0.5,0.125,-35.0,-1,1.0,0.26919999999995525
408,14,0.5,0.25,-35.0,-1,1.0,0.3353999999997086
409,14,0.5,0.0625,-35.0,-1,1.0,0.2760000000000673
410,14,0.5,0.0,-35.0,-1,1.0,0.6325000000001637
411,14,0.5,0.25,-35.0,-1,1.0,0.20270000000027721
412,14,0.5,0.25,35.0,1,1.0,0.5391000000004169
413,14,0.5,0.0,35.0,1,1.0,0.29300000000012005
414,14,0.5,1.0,35.0,1,1.0,0.17600000000038563
415,14,0.5,0.25,-35.0,-1,1.0,0.3731990000001133
416,14,0.5,0.25,35.0,1,1.0,0.2995990000003985
417,14,0.5,0.0,-35.0,1,0.0,0.3000000000001819
418,14,0.5,0.25,-35.0,-1,1.0,0.24969999999984793
419,14,0.5,0.125,-35.0,-1,1.0,0.37040000000069995
420,14,0.5,0.0625,-35.0,-1,1.0,0.48640000000023065
421,14,0.5,0.0625,-35.0,-1,1.0,0.5704000000000633
422,14,0.5,0.0625,35.0,-1,0.0,0.1033000000006723
423,14,0.4,0.0625,35.0,-1,0.0,0.19039999999995416
424,14,0.5,1.0,-35.0,-1,1.0,0.2600999999999658
425,14,0.5,0.0,-35.0,1,0.0,0.2539000000001579
426,14,0.5,0.25,35.0,1,1.0,0.34720000000015716
427,14,0.5,0.0625,35.0,1,1.0,0.32420000000047366
428,14,0.5,0.125,-35.0,-1,1.0,0.3505990000003294
429,14,0.5,1.0,35.0,1,1.0,0.24760000000060245
430,14,0.5,0.0625,35.0,1,1.0,0.24729999999999563
431,14,0.5,1.0,35.0,1,1.0,0.21790000000009968
432,14,0.5,0.125,-35.0,-1,1.0,0.40420100000073944
433,14,0.5,0.125,35.0,1,1.0,0.2879010000001472
434,14,0.5,0.25,-35.0,-1,1.0,0.2343010000004142
435,14,0.5,0.125,-35.0,-1,1.0,0.3047010000004775
436,14,0.5,1.0,35.0,1,1.0,0.3012010000002192
437,14,0.5,0.0,35.0,-1,0.0,3.238401000000067
438,14,0.5,0.125,-35.0,-1,1.0,0.3446010000006936
439,14,0.5,0.0625,-35.0,-1,1.0,0.3186010000003989
440,14,0.5,1.0,35.0,1,1.0,0.3482010000002447
441,14,0.5,0.0,-35.0,1,0.0,0.3119010000000344
442,14,0.4,0.0,35.0,1,1.0,0.3716010000002825
443,14,0.5,1.0,-35.0,-1,1.0,0.2788010000003851
444,14,0.5,1.0,35.0,1,1.0,0.21200100000032762
445,14,0.5,0.0,35.0,1,1.0,0.3324010000001181
446,14,0.5,0.0625,-35.0,-1,1.0,0.3153010000000904
447,14,0.5,1.0,35.0,1,1.0,0.5757009999997535
448,14,0.5,1.0,-35.0,-1,1.0,0.2487010000004375
449,14,0.5,0.0,35.0,1,1.0,0.46930000000065775
450,14,0.5,0.25,35.0,1,1.0,0.37220099999967715
451,14,0.5,0.25,-35.0,-1,1.0,0.3559010000003582
452,14,0.5,0.0,-35.0,-1,1.0,0.9857010000005175
453,14,0.5,0.25,-35.0,-1,1.0,0.3329009999997652
454,14,0.5,1.0,-35.0,-1,1.0,0.3091010000002825
455,14,0.5,0.125,-35.0,-1,1.0,0.33970099999987724
456,14,0.5,1.0,-35.0,-1,1.0,0.26600100000041493
457,14,0.5,0.25,35.0,-1,0.0,0.15320100000053571
458,14,0.2,0.25,35.0,1,1.0,0.28650100000004386
459,14,0.5,1.0,35.0,1,1.0,0.2767010000002301
460,14,0.5,0.0625,35.0,1,1.0,0.35300099999994927
461,14,0.5,1.0,35.0,1,1.0,0.41010099999994054
462,14,0.5,1.0,-35.0,-1,1.0,0.28970100000060484
463,14,0.5,0.0625,-35.0,1,0.0,0.390201000000161
464,14,0.5,0.125,35.0,-1,0.0,0.17330100000026505
465,14,0.5,0.125,-35.0,-1,1.0,0.42750100000012026
466,14,0.5,1.0,35.0,1,1.0,0.2435009999999238
467,14,0.5,0.0625,35.0,-1,0.0,2.5107010000006085
468,14,0.5,0.25,35.0,1,1.0,0.2369010000002163
469,14,0.5,0.25,35.0,1,1.0,0.2607010000001537
470,14,0.5,0.0,35.0,-1,0.0,12.457300999999916
471,14,0.5,0.25,35.0,1,1.0,0.3012010000002192
472,14,0.5,1.0,-35.0,-1,1.0,0.2009010000001581
473,14,0.5,0.125,35.0,-1,0.0,0.2712010000000191
474,14,0.5,0.0625,35.0,1,1.0,0.3143009999998867
475,14,0.5,0.0,-35.0,1,0.0,2.7348000000006323
476,14,0.6,0.0,-35.0,-1,1.0,4.3112010000004375
477,14,0.5,1.0,-35.0,-1,1.0,0.285001000000193
478,14,0.5,0.125,35.0,1,1.0,0.32800100000031307
479,14,0.5,0.25,-35.0,-1,1.0,0.2653009999999085
480,14,0.5,0.0625,-35.0,1,0.0,0.3414010000001326
481,14,0.5,0.0625,35.0,1,1.0,0.42190100000016173
482,14,0.5,1.0,35.0,1,1.0,0.384900000000016
483,14,0.5,0.0625,-35.0,1,0.0,0.30210100000022067
484,14,0.5,0.25,35.0,1,1.0,0.2685010000004695
485,14,0.5,0.0625,-35.0,1,0.0,0.34240100000033635
486,14,0.5,0.0625,35.0,1,1.0,0.35860100000036255
487,14,0.5,0.125,35.0,1,1.0,0.3158010000001923
488,14,0.5,0.25,-35.0,-1,1.0,0.3423010000001341
489,14,0.5,0.25,-35.0,-1,1.0,0.32620100000031016
490,14,0.5,1.0,35.0,1,1.0,0.5659009999999398
491,14,0.5,0.0625,35.0,-1,0.0,0.17960100000027523
492,14,0.5,0.25,-35.0,-1,1.0,0.26590100000021266
493,14,0.5,1.0,-35.0,-1,1.0,0.24620000000049913
494,14,0.5,0.125,-35.0,-1,1.0,0.24600099999997838
495,14,0.5,0.0625,-35.0,-1,1.0,0.23640100000011444
496,14,0.5,1.0,-35.0,-1,1.0,0.3093010000002323
497,14,0.5,1.0,-35.0,-1,1.0,0.2800010000000839
498,14,0.5,0.0625,-35.0,-1,1.0,0.9830010000005132
499,14,0.5,0.25,35.0,1,1.0,0.30690099999992526
500,14,0.5,0.0,35.0,-1,0.0,0.839701000000332
501,14,0.5,0.0625,35.0,1,1.0,0.2603009999997994
502,14,0.5,0.125,-35.0,1,0.0,0.2866009999997914
503,14,0.5,0.0625,-35.0,-1,1.0,0.6939010000000962
504,14,0.5,0.125,-35.0,-1,1.0,0.46670099999982995
505,14,0.5,0.0,-35.0,1,0.0,0.3673010000006798
506,14,0.4,0.0,35.0,1,1.0,1.6602010000001428
507,14,0.5,1.0,35.0,1,1.0,1.283900999999787
508,14,0.5,0.0,35.0,1,1.0,4.420601000000261
509,14,0.5,0.0625,-35.0,-1,1.0,0.36780099999987215
510,14,0.5,1.0,35.0,1,1.0,0.24430100000017774
511,14,0.5,0.0625,35.0,1,1.0,0.2978010000001632
512,14,0.5,0.0,35.0,1,1.0,0.5008010000001377
513,14,0.5,0.125,-35.0,1,0.0,0.25470099999984086
514,14,0.8,0.125,-35.0,-1,1.0,0.2810010000002876
515,14,0.5,1.0,-35.0,-1,1.0,0.18520100000023376
516,14,0.5,0.0625,-35.0,-1,1.0,0.36450100000047314
517,14,0.5,0.0,-35.0,-1,1.0,0.21510100000023158
518,14,0.5,0.125,35.0,-1,0.0,0.2779009999999289
519,14,0.5,0.25,-35.0,-1,1.0,0.29510100000061357
520,14,0.5,0.0,-35.0,-1,1.0,0.3016010000001188
521,14,0.5,1.0,-35.0,-1,1.0,0.30540100000052917
522,14,0.5,0.125,35.0,1,1.0,0.291501000000153
523,14,0.5,0.125,-35.0,-1,1.0,0.3054010000000744
524,14,0.5,0.0625,-35.0,-1,1.0,0.6450009999998656
525,14,0.5,0.0,-35.0,-1,1.0,0.7421010000002752
526,14,0.5,0.25,-35.0,-1,1.0,0.3219010000002527
527,14,0.5,0.125,35.0,1,1.0,0.30230100000017046
528,14,0.5,1.0,35.0,1,1.0,0.3388009999998758
529,14,0.5,1.0,35.0,1,1.0,0.38270100000045204
530,14,0.5,1.0,35.0,1,1.0,0.31910100000004604
531,14,0.5,0.0,-35.0,-1,1.0,0.7161009999999806
532,14,0.5,0.125,-35.0,-1,1.0,0.2957010000000082
533,14,0.5,0.25,-35.0,-1,1.0,0.26630100000011225
534,14,0.5,1.0,35.0,1,1.0,0.3559010000003582
535,14,0.5,0.0,-35.0,1,0.0,0.3597010000003138
536,14,0.5,0.0625,-35.0,-1,1.0,0.2760010000006332
537,14,0.5,1.0,35.0,1,1.0,0.39980100000002494
538,14,0.5,1.0,-35.0,-1,1.0,0.20280099999990853
539,14,0.5,0.125,35.0,-1,0.0,0.2934010000003582
540,14,0.5,0.0,-35.0,-1,1.0,0.30290100000001985
541,14,0.5,0.125,-35.0,-1,1.0,0.23680100000001403
542,14,0.5,0.125,35.0,-1,0.0,0.4600010000003749
543,14,0.5,0.0,-35.0,-1,1.0,0.3170010000003458
544,14,0.5,1.0,-35.0,-1,1.0,0.25000100000033854
545,14,0.5,0.125,-35.0,-1,1.0,0.25710100000060265
546,14,0.5,0.0,-35.0,1,0.0,0.36680100000012317
547,14,0.5,0.0,35.0,-1,0.0,0.19060100000069724
548,14,0.5,0.0625,35.0,-1,0.0,0.26410100000020975
549,14,0.5,0.0625,-35.0,1,0.0,0.39700100000027305
550,14,0.5,0.25,35.0,1,1.0,0.3843010000000504
551,14,0.5,0.0625,-35.0,1,0.0,0.2505010000004404
552,14,0.5,0.25,35.0,1,1.0,0.2376010000007227
553,14,0.5,0.125,35.0,1,1.0,0.4239010000005692
554,14,0.5,0.25,35.0,1,1.0,0.24120100000027378
555,14,0.5,0.0625,-35.0,-1,1.0,0.31080100000008315
556,14,0.5,0.0625,35.0,1,1.0,0.5246010000000751
557,14,0.5,0.125,35.0,1,1.0,0.3378010000001268
558,14,0.5,1.0,-35.0,-1,1.0,0.22490100000004531
559,14,0.5,1.0,-35.0,-1,1.0,0.30780100000038146
560,14,0.5,0.25,-35.0,-1,1.0,0.27500099999997474
561,14,0.5,0.125,-35.0,-1,1.0,0.307901000000129
562,14,0.5,0.25,-35.0,-1,1.0,0.24520100000063394
563,14,0.5,0.25,35.0,1,1.0,0.46150000000034197
564,14,0.5,0.0625,35.0,1,1.0,0.2586010000004535
565,14,0.5,0.0625,35.0,1,1.0,0.3819010000001981
566,14,0.5,1.0,35.0,1,1.0,0.3920010000001639
567,14,0.5,1.0,-35.0,-1,1.0,0.2585010000002512
568,14,0.5,0.25,-35.0,-1,1.0,0.3156010000002425
569,14,0.5,0.125,-35.0,-1,1.0,0.34200100000043676
570,14,0.5,0.0,35.0,-1,0.0,0.9888009999999667
571,14,0.5,0.0625,35.0,1,1.0,0.35210100000040256
572,14,0.5,1.0,-35.0,-1,1.0,0.2591010000001006
573,14,0.5,0.125,-35.0,-1,1.0,0.2823009999997339
574,14,0.5,1.0,-35.0,-1,1.0,0.2461010000006354
575,14,0.5,0.125,35.0,1,1.0,0.3857010000001537
576,14,0.5,0.0625,35.0,1,1.0,0.356101000000308
577,14,0.5,1.0,-35.0,-1,1.0,0.24610100000018065
578,14,0.5,0.0625,-35.0,1,0.0,0.28290100000003804
579,14,0.4,0.0625,35.0,-1,0.0,2.412600999999995
580,14,0.5,1.0,35.0,1,1.0,0.30320099999971717
581,14,0.5,0.25,35.0,1,1.0,0.41970100000025923
582,14,0.5,0.0,-35.0,1,0.0,0.380301000000145
583,14,0.5,0.0625,35.0,1,1.0,0.36970100000007733
584,14,0.5,0.0625,35.0,1,1.0,0.30690100000038
585,14,0.5,0.0625,35.0,1,1.0,0.3698010000002796
586,14,0.5,1.0,-35.0,-1,1.0,0.23370100000056482
587,14,0.5,0.125,-35.0,-1,1.0,0.5667010000001937
588,14,0.5,0.0,35.0,-1,0.0,0.270600999999715
589,14,0.5,0.0625,35.0,-1,0.0,0.5735010000003058
590,14,0.6,0.0625,-35.0,-1,1.0,0.21090099999992162
591,14,0.5,1.0,35.0,1,1.0,0.3304010000006201
592,14,0.5,0.25,35.0,1,1.0,0.33730100000002494
593,14,0.5,0.25,-35.0,-1,1.0,0.24390100000027815
594,14,0.5,0.0625,-35.0,-1,1.0,0.36100100000021484
595,14,0.5,0.125,35.0,1,1.0,0.2406010000004244
596,14,0.5,0.125,35.0,1,1.0,0.2478009999999813
597,14,0.5,1.0,35.0,1,1.0,0.29080100000010134
598,14,0.5,1.0,35.0,1,1.0,0.32460100000025705
599,14,0.5,0.125,35.0,1,1.0,0.25090099999988524
600,14,0.5,0.125,-35.0,-1,1.0,0.3482010000002447
601,14,0.5,1.0,-35.0,-1,1.0,0.27770100000043385
602,14,0.5,0.25,-35.0,-1,1.0,0.3849009999998998
603,14,0.5,1.0,35.0,1,1.0,0.2646010000003116
604,14,0.5,0.125,35.0,1,1.0,0.3217010000003029
605,14,0.5,0.0,35.0,1,1.0,0.3547010000006594
606,14,0.5,0.125,-35.0,-1,1.0,0.3852010000005066
607,14,0.5,1.0,-35.0,-1,1.0,0.31150100000058956
608,14,0.5,1.0,-35.0,-1,1.0,0.2687010000004193
609,14,0.5,0.25,35.0,1,1.0,0.5016009999999369
610,14,0.5,0.125,35.0,1,1.0,0.3056010000000242
611,14,0.5,0.0625,-35.0,-1,1.0,0.3219010000002527
612,14,0.5,0.125,-35.0,-1,1.0,0.23900099999991653
613,14,0.5,1.0,-35.0,-1,1.0,0.2487010000004375
614,14,0.5,0.0625,-35.0,-1,1.0,0.3460009999998874
615,14,0.5,0.25,35.0,1,1.0,0.3054010000000744
616,14,0.5,0.25,35.0,1,1.0,0.7327009999999063
617,14,0.5,1.0,-35.0,-1,1.0,0.22890100000040547
618,14,0.5,0.25,-35.0,-1,1.0,0.2893010000002505
619,14,0.5,0.125,35.0,-1,0.0,0.33910100000002785
620,14,0.5,0.0625,-35.0,1,0.0,0.6594010000003436
621,14,0.5,0.25,-35.0,-1,1.0,0.29920099999981176
622,14,0.5,1.0,-35.0,-1,1.0,0.29280100000005405
623,14,0.5,0.25,35.0,1,1.0,0.5996009999998932
624,14,0.5,0.0625,35.0,1,1.0,0.29640100000005987
625,14,0.5,0.0625,35.0,1,1.0,0.4827010000003611
626,14,0.5,0.0625,-35.0,-1,1.0,0.6565010000003895
627,14,0.5,1.0,-35.0,-1,1.0,0.2630010000002585
628,14,0.5,0.0,35.0,1,1.0,2.4072009999999864
629,14,0.5,0.125,35.0,1,1.0,4.239901000000373
630,14,0.5,0.25,35.0,1,1.0,0.36720100000002276
631,14,0.5,0.0625,35.0,1,1.0,0.560001000000284
632,14,0.5,0.25,-35.0,-1,1.0,0.28730099999984304
633,14,0.5,0.0625,35.0,1,1.0,6.9768010000002505
634,14,0.5,1.0,-35.0,-1,1.0,0.33750099999997474
635,14,0.5,0.0,-35.0,1,0.0,6.230601000000206
636,14,0.6,0.0,-35.0,1,0.0,0.32110099999999875
637,14,0.5,1.0,35.0,1,1.0,1.660801000000447
638,14,0.5,0.25,35.0,1,1.0,0.47120100000029197
639,14,0.5,1.0,-35.0,-1,1.0,0.3442009999998845
640,14,0.5,0.0,-35.0,-1,1.0,0.3882010000002083
641,14,0.5,0.25,-35.0,-1,1.0,0.26430100000015955
642,14,0.5,0.0,35.0,-1,0.0,0.7715010000001712
643,14,0.5,0.25,-35.0,-1,1.0,0.331101000000217
644,14,0.5,0.0,35.0,-1,0.0,0.36160000000018044
645,14,0.5,0.0625,35.0,1,1.0,0.5946009999997841
646,14,0.5,0.0625,35.0,1,1.0,6.1752010000000155
647,14,0.5,0.0625,-35.0,1,0.0,0.4282010000001719
648,14,0.5,0.125,35.0,1,1.0,0.5054000000000087
649,14,0.5,1.0,35.0,1,1.0,0.36500100000012026
650,14,0.5,1.0,35.0,1,1.0,0.405601000000388
651,14,0.5,0.0625,-35.0,-1,1.0,0.5320010000004913
652,14,0.5,0.0625,35.0,1,1.0,0.38930100000015955
653,14,0.5,0.25,-35.0,-1,1.0,0.268601000000217
654,14,0.5,1.0,-35.0,1,0.0,0.9293010000005779
655,14,0.8,1.0,-35.0,-1,1.0,0.48550099999965823
656,14,0.5,1.0,-35.0,-1,1.0,0.3426009999998314
657,14,0.5,1.0,-35.0,-1,1.0,0.30560100000047896
658,14,0.5,0.0625,35.0,1,1.0,0.3096010000003844
659,14,0.5,1.0,-35.0,-1,1.0,0.3124000000002525
660,14,0.5,0.0625,35.0,-1,0.0,9.20960100000002
661,14,0.3,0.0625,35.0,1,1.0,15.269600999999966
662,14,0.5,1.0,35.0,1,1.0,0.33690100000012535
663,14,0.5,0.125,35.0,1,1.0,0.13320100000009916
664,14,0.5,0.25,35.0,1,1.0,0.3103009999999813
665,14,0.5,0.0625,35.0,1,1.0,7.3333010000001195
666,14,0.5,0.25,35.0,1,1.0,0.267301000000316
667,14,0.5,1.0,-35.0,1,0.0,0.6672010000002047
668,14,0.5,0.0625,-35.0,1,0.0,1.267500999999811
669,14,0.5,0.25,-35.0,1,0.0,10.85050100000035
670,14,0.5,0.125,-35.0,1,0.0,1.9145010000002003
671,14,1.0,0.125,-35.0,1,0.0,0.3842010000003029
672,14,0.5,1.0,-35.0,1,0.0,11.211401000000023
673,14,0.5,0.125,35.0,1,1.0,1.657901000000038
674,14,0.5,0.0625,35.0,1,1.0,7.605301000000054
675,14,0.5,1.0,35.0,1,1.0,0.281601000000137
676,14,0.5,0.125,35.0,1,1.0,0.402201000000332
677,14,0.5,0.25,-35.0,-1,1.0,6.741701000000376
678,14,0.5,0.0625,-35.0,1,0.0,5.748901000000387
679,14,0.5,0.0,35.0,1,1.0,0.3255010000002585
680,14,0.5,0.125,35.0,-1,0.0,0.4692009999998845
681,14,0.5,0.125,35.0,1,1.0,0.3522010000001501
682,14,0.5,0.25,-35.0,-1,1.0,0.28270100000008824
683,14,0.5,0.0625,35.0,1,1.0,0.3023000000002867
684,14,0.5,0.0625,35.0,1,1.0,0.3596010000001115
685,14,0.5,0.25,-35.0,1,0.0,0.4859010000000126
686,14,0.5,0.0625,35.0,1,1.0,9.606400000000122
687,14,0.5,0.25,-35.0,-1,1.0,0.6694010000001072
688,14,0.5,0.125,35.0,1,1.0,0.5000009999998838
689,14,0.5,1.0,35.0,1,1.0,0.3162010000000919
690,14,0.5,0.125,35.0,1,1.0,0.7100009999999202
691,14,0.5,0.25,-35.0,1,0.0,6.616700999999921
692,14,0.5,0.0625,-35.0,1,0.0,9.803601000000526
693,14,0.5,0.125,35.0,1,1.0,3.2870010000001457
694,14,0.5,1.0,35.0,1,1.0,0.2544010000005983
695,14,0.5,0.125,-35.0,1,0.0,2.360301000000163
696,14,0.9,0.125,-35.0,1,0.0,0.5076010000002498
697,14,0.5,1.0,-35.0,1,0.0,15.747201000000132
698,14,0.5,0.0625,35.0,1,1.0,0.4515010000004622
699,14,0.5,1.0,-35.0,-1,1.0,0.281601000000137
700,14,0.5,1.0,35.0,1,1.0,0.3111010000002352
701,14,0.5,0.25,35.0,1,1.0,0.6082010000000082
702,14,0.5,0.0625,35.0,-1,0.0,9.52120100000002
703,14,0.5,0.25,-35.0,1,0.0,0.27200100000027305
704,14,0.5,0.25,35.0,-1,0.0,4.338201000000026
705,14,0.5,0.0625,35.0,-1,0.0,0.22220100000004095
706,14,0.6,0.0625,35.0,1,1.0,5.781901000000289
707,14,0.5,1.0,-35.0,-1,1.0,0.29240000000027067
708,14,0.5,0.25,-35.0,-1,1.0,0.4721010000002934
709,14,0.5,0.125,35.0,1,1.0,0.4292009999999209
710,14,0.5,0.0,-35.0,-1,1.0,9.40900099999999
711,14,0.5,0.125,-35.0,-1,1.0,12.159501000000091
712,14,0.5,1.0,35.0,1,1.0,0.32270100000005186
713,14,0.5,0.125,-35.0,-1,1.0,13.186601000000337
714,14,0.5,0.0,35.0,-1,0.0,2.076400999999805
715,14,0.3,0.0,35.0,1,1.0,15.727000999999746
716,14,0.5,1.0,-35.0,-1,1.0,8.03360100000009
717,14,0.5,0.0625,-35.0,-1,1.0,12.711001000000124
718,14,0.5,0.0,-35.0,1,0.0,0.36410100000057355
719,14,0.5,0.0625,-35.0,-1,1.0,7.331501000000117
720,14,0.5,0.125,35.0,1,1.0,0.43780100000003586
721,14,0.5,0.25,-35.0,1,0.0,0.5716010000001006
722,14,0.5,0.0,35.0,-1,0.0,1.9379010000002381
1,15,0.5,0.125,-35.0,-1,1.0,0.5747
2,15,0.5,0.125,-35.0,-1,1.0,0.3603999999999985
3,15,0.5,0.0625,-35.0,-1,1.0,0.3604000000000003
4,15,0.5,0.0625,-35.0,-1,1.0,0.495199999999997
5,15,0.5,0.125,-35.0,-1,1.0,0.22669899999999998
6,15,0.5,0.0625,-35.0,-1,1.0,0.39159999999999684
7,15,0.5,0.125,35.0,1,1.0,0.25839999999999463
8,15,0.5,0.125,35.0,1,1.0,0.31389999999999674
9,15,0.5,1.0,35.0,1,1.0,0.18949999999999534
10,15,0.5,0.0,35.0,1,1.0,0.226700000000001
11,15,0.5,0.125,-35.0,-1,1.0,0.3475999999999999
12,15,0.5,0.0625,35.0,1,1.0,0.3509000000000029
13,15,0.5,0.0625,35.0,1,1.0,0.276299999999992
14,15,0.5,0.0,35.0,1,1.0,0.3106999999999971
15,15,0.5,0.25,35.0,1,1.0,0.19779999999998665
16,15,0.5,0.0625,35.0,1,1.0,0.17830000000000723
17,15,0.5,0.0625,35.0,1,1.0,1.5190999999999946
18,15,0.5,0.25,35.0,1,1.0,0.22700000000000387
19,15,0.5,0.25,-35.0,1,0.0,0.23500000000001364
20,15,0.5,0.0625,35.0,1,1.0,0.30180000000000007
21,15,0.5,0.125,-35.0,1,0.0,0.12409999999999854
22,15,1.0,0.125,-35.0,1,0.0,0.28130000000000166
23,15,0.5,1.0,-35.0,-1,1.0,0.4601000000000113
24,15,0.5,0.25,35.0,1,1.0,0.2738999999999976
25,15,0.5,0.25,35.0,1,1.0,0.19839999999999236
26,15,0.5,0.125,35.0,1,1.0,0.29300000000000637
27,15,0.5,0.125,35.0,1,1.0,0.2808000000000277
28,15,0.5,0.125,-35.0,1,0.0,0.4992000000000303
29,15,0.9,0.125,35.0,1,1.0,0.24149900000000457
30,15,0.5,1.0,-35.0,-1,1.0,0.4495000000000289
31,15,0.5,0.25,-35.0,-1,1.0,0.31049999999999045
32,15,0.5,0.25,35.0,1,1.0,0.2817000000000007
33,15,0.5,0.125,35.0,1,1.0,0.39570000000000505
34,15,0.5,1.0,-35.0,-1,1.0,0.237700000000018
35,15,0.5,0.125,35.0,-1,0.0,0.14670000000003824
36,15,0.5,0.25,35.0,1,1.0,0.3101000000000056
37,15,0.5,0.0625,-35.0,1,0.0,0.24540000000001783
38,15,0.6,0.0625,-35.0,-1,1.0,0.3701000000000363
39,15,0.5,1.0,-35.0,-1,1.0,0.14990000000000236
40,15,0.5,1.0,35.0,1,1.0,0.26709900000000175
41,15,0.5,0.0625,-35.0,1,0.0,0.33600000000001273
42,15,0.5,0.125,-35.0,-1,1.0,0.3065000000000282
43,15,0.5,0.0625,35.0,-1,0.0,0.54849999999999
44,15,0.4,0.0625,35.0,1,1.0,0.39930000000001087
45,15,0.5,1.0,35.0,1,1.0,0.22290000000000987
46,15,0.5,0.0,-35.0,1,0.0,0.35759899999999334
47,15,0.5,0.0625,35.0,1,1.0,0.28710000000000946
48,15,0.5,1.0,-35.0,-1,1.0,0.36940000000001305
49,15,0.5,0.0,35.0,1,1.0,0.21580000000000155
50,15,0.5,0.25,35.0,1,1.0,0.20489999999995234
51,15,0.5,0.25,-35.0,-1,1.0,0.39549999999997
52,15,0.5,1.0,35.0,1,1.0,0.3616999999999848
53,15,0.5,1.0,-35.0,-1,1.0,0.3769999999999527
54,15,0.5,1.0,35.0,1,1.0,0.20799999999997
55,15,0.5,0.25,-35.0,-1,1.0,0.34859999999997626
56,15,0.5,0.125,-35.0,-1,1.0,0.5657999999999674
57,15,0.5,0.0625,-35.0,-1,1.0,0.10919999999998709
58,15,0.5,1.0,35.0,1,1.0,0.26400000000001
59,15,0.5,0.0625,-35.0,1,0.0,0.21690000000000964
60,15,0.5,0.0625,-35.0,1,0.0,0.21999999999997044
61,15,0.5,0.0625,-35.0,1,0.0,0.17419999999992797
62,15,0.5,1.0,35.0,1,1.0,0.2307999999999879
63,15,0.5,1.0,35.0,1,1.0,0.2575999999999681
64,15,0.5,0.0625,35.0,1,1.0,0.30129999999996926
65,15,0.5,0.0625,-35.0,-1,1.0,0.3867000000000189
66,15,0.5,0.125,35.0,1,1.0,0.2717999999999847
67,15,0.5,1.0,-35.0,-1,1.0,0.2800999999999476
68,15,0.5,0.25,35.0,1,1.0,0.11690000000004375
69,15,0.5,0.125,35.0,1,1.0,0.3229999999999791
70,15,0.5,0.25,-35.0,-1,1.0,0.4559990000000198
71,15,0.5,0.0625,35.0,1,1.0,0.2863999999999578
72,15,0.5,1.0,35.0,1,1.0,0.39389899999997624
73,15,0.5,0.25,35.0,1,1.0,0.36950000000001637
74,15,0.5,1.0,-35.0,1,0.0,0.13139999999992824
75,15,0.5,0.0625,35.0,1,1.0,0.4999000000000251
76,15,0.5,0.25,35.0,1,1.0,1.07589999999999
77,15,0.5,0.0,35.0,1,1.0,2.3292000000000144
78,15,0.5,1.0,-35.0,-1,1.0,0.23619999999999663
79,15,0.5,0.25,35.0,1,1.0,0.40390000000002146
80,15,0.5,0.25,35.0,1,1.0,0.2741999999999507
81,15,0.5,0.0,-35.0,1,0.0,0.248299999999972
82,15,0.5,0.125,-35.0,-1,1.0,0.2571999999999548
83,15,0.5,0.125,35.0,1,1.0,0.24840000000000373
84,15,0.5,1.0,35.0,1,1.0,0.20400000000000773
85,15,0.5,0.0625,-35.0,-1,1.0,0.37779999999997926
86,15,0.5,0.25,35.0,1,1.0,0.3051999999999566
87,15,0.5,0.125,35.0,1,1.0,0.43509999999997717
88,15,0.5,1.0,35.0,-1,0.0,0.7801999999999794
89,15,0.7,1.0,-35.0,-1,1.0,0.341199999999958
90,15,0.5,1.0,-35.0,-1,1.0,0.3150999999999726
91,15,0.5,0.0625,-35.0,-1,1.0,0.13769999999993843
92,15,0.5,0.0,-35.0,-1,1.0,0.27600000000001046
93,15,0.5,0.25,35.0,1,1.0,0.3010999999999626
94,15,0.5,0.25,35.0,1,1.0,0.29200000000003
95,15,0.5,0.0,-35.0,1,0.0,0.21309999999999718
96,15,0.5,0.25,-35.0,-1,1.0,0.7029999999999177
97,15,0.5,0.25,35.0,1,1.0,0.30169899999998506
98,15,0.5,0.125,35.0,1,1.0,0.1630000000001246
99,15,0.5,0.0625,35.0,1,1.0,0.24840000000006057
100,15,0.5,1.0,35.0,1,1.0,0.1630000000001246
101,15,0.5,1.0,-35.0,-1,1.0,0.4740000000000464
102,15,0.5,1.0,35.0,1,1.0,0.2563000000000102
103,15,0.5,0.0625,-35.0,1,0.0,0.10840000000007421
104,15,0.8,0.0625,35.0,1,1.0,0.20230000000003656
105,15,0.5,1.0,-35.0,-1,1.0,0.42200000000013915
106,15,0.5,1.0,-35.0,-1,1.0,0.24680000000000746
107,15,0.5,0.125,-35.0,-1,1.0,0.1489000000001397
108,15,0.5,0.25,35.0,1,1.0,0.23030000000005657
109,15,0.5,0.125,35.0,1,1.0,0.346300000000042
110,15,0.5,0.125,35.0,1,1.0,0.3119000000000369
111,15,0.5,0.125,-35.0,1,0.0,0.15359999999998308
112,15,0.5,0.0625,35.0,1,1.0,0.29090000000007876
113,15,0.5,0.25,-35.0,-1,1.0,0.2968999999999369
114,15,0.5,0.0625,35.0,-1,0.0,0.4638000000001057
115,15,0.5,0.0625,35.0,1,1.0,0.31389999999998963
116,15,0.5,1.0,35.0,1,1.0,0.21450000000004366
117,15,0.5,0.0625,-35.0,-1,1.0,0.45070000000009713
118,15,0.5,0.25,-35.0,-1,1.0,0.3160000000000309
119,15,0.5,0.0625,-35.0,-1,1.0,0.2624000000000706
120,15,0.5,0.125,35.0,1,1.0,0.3039000000001124
121,15,0.5,1.0,35.0,1,1.0,0.26070000000004256
122,15,0.5,0.0625,-35.0,-1,1.0,0.4690000000001646
123,15,0.5,0.0625,-35.0,1,0.0,0.25949900000011894
124,15,0.5,0.0625,35.0,1,1.0,0.3269000000000233
125,15,0.5,0.25,-35.0,-1,1.0,0.5136000000001104
126,15,0.5,0.25,-35.0,-1,1.0,0.29670000000010077
127,15,0.5,0.0625,35.0,1,1.0,0.4560999999999922
128,15,0.5,0.0625,35.0,1,1.0,0.300200000000018
129,15,0.5,0.0625,-35.0,1,0.0,0.27539999999999054
130,15,0.5,0.0625,-35.0,1,0.0,0.3564999999999827
131,15,0.5,0.0,35.0,1,1.0,0.3001000000000431
132,15,0.5,0.25,-35.0,-1,1.0,0.259600000000205
133,15,0.5,0.125,35.0,1,1.0,0.2159000000000333
134,15,0.5,0.125,-35.0,-1,1.0,0.35469899999998233
135,15,0.5,0.125,-35.0,-1,1.0,0.4758999999999105
136,15,0.5,0.125,-35.0,-1,1.0,0.39859999999998763
137,15,0.5,0.0625,-35.0,-1,1.0,0.3199000000000751
138,15,0.5,0.25,-35.0,-1,1.0,0.4188000000000329
139,15,0.5,0.125,35.0,1,1.0,0.3444000000000642
140,15,0.5,0.0625,-35.0,-1,1.0,0.37819999999999254
141,15,0.5,0.0625,-35.0,-1,1.0,0.6058000000000447
142,15,0.5,1.0,35.0,-1,0.0,0.13210000000003674
143,15,0.5,0.125,35.0,1,1.0,0.2256000000000995
144,15,0.5,0.0625,-35.0,-1,1.0,0.5368000000000848
145,15,0.5,0.25,35.0,-1,0.0,0.15030000000012933
146,15,0.5,0.0625,-35.0,-1,1.0,0.34380000000010114
147,15,0.5,0.25,-35.0,-1,1.0,0.3326000000000704
148,15,0.5,1.0,35.0,-1,0.0,0.116800000000012
149,15,0.5,0.125,-35.0,-1,1.0,0.2479000000000724
150,15,0.5,0.0625,-35.0,1,0.0,0.2926989999999705
151,15,0.5,0.0625,35.0,-1,0.0,0.5156000000000631
152,15,0.5,0.25,35.0,-1,0.0,0.33350000000007185
153,15,0.2,0.25,-35.0,-1,1.0,0.2863999999999578
154,15,0.5,1.0,-35.0,-1,1.0,0.28900000000010095
155,15,0.5,1.0,-35.0,-1,1.0,0.31490000000007967
156,15,0.5,0.25,-35.0,-1,1.0,0.2825000000000273
157,15,0.5,0.25,-35.0,-1,1.0,0.2602000000001681
158,15,0.5,0.125,-35.0,-1,1.0,0.26930000000004384
159,15,0.5,1.0,35.0,1,1.0,0.5768000000000484
160,15,0.5,1.0,35.0,1,1.0,0.28130000000010114
161,15,0.5,0.0625,-35.0,1,0.0,0.4151000000000522
162,15,0.3,0.0625,35.0,1,1.0,0.31609900000000835
163,15,0.5,1.0,35.0,1,1.0,0.31350000000009004
164,15,0.5,0.125,35.0,1,1.0,0.32370000000003074
165,15,0.5,0.125,35.0,1,1.0,0.2658999999999878
166,15,0.5,0.125,-35.0,-1,1.0,0.16800000000000637
167,15,0.5,0.0,-35.0,-1,1.0,0.3625000000000682
168,15,0.5,1.0,35.0,1,1.0,0.5626000000000886
169,15,0.5,0.25,35.0,-1,0.0,0.6451000000001841
170,15,0.5,0.25,-35.0,-1,1.0,0.4774999999999636
171,15,0.5,1.0,35.0,1,1.0,0.2725000000000364
172,15,0.5,0.0625,35.0,-1,0.0,1.1591000000000804
173,15,0.5,0.25,-35.0,-1,1.0,0.14260000000001583
174,15,0.5,0.125,35.0,-1,0.0,0.6041000000000167
175,15,0.3,0.125,35.0,1,1.0,0.26589899999999034
176,15,0.5,1.0,35.0,1,1.0,0.24530000000004293
177,15,0.5,0.25,-35.0,-1,1.0,0.3348000000000866
178,15,0.5,0.125,-35.0,-1,1.0,0.34399999999993724
179,15,0.5,1.0,-35.0,-1,1.0,0.2313000000001466
180,15,0.5,1.0,-35.0,-1,1.0,0.1227000000001226
181,15,0.5,0.125,-35.0,-1,1.0,0.17380000000002838
182,15,0.5,0.125,-35.0,-1,1.0,0.366800000000012
183,15,0.5,0.0,35.0,-1,0.0,0.19879999999989195
184,15,0.5,0.0625,35.0,-1,0.0,0.13549999999997908
185,15,0.2,0.0625,35.0,-1,0.0,0.4212000000001126
186,15,0.5,1.0,35.0,1,1.0,0.2518999999999778
187,15,0.5,0.25,-35.0,-1,1.0,0.2906000000000404
188,15,0.5,0.25,-35.0,-1,1.0,0.29500000000007276
189,15,0.5,0.125,-35.0,-1,1.0,0.2939000000000078
190,15,0.5,0.0,-35.0,-1,1.0,0.3443000000000893
191,15,0.5,0.0625,35.0,-1,0.0,0.7916999999999916
192,15,0.5,0.0625,-35.0,-1,1.0,0.3467000000000553
193,15,0.5,0.0625,35.0,-1,0.0,0.4793000000000802
194,15,0.5,0.25,35.0,1,1.0,0.24100000000009913
195,15,0.5,0.25,-35.0,-1,1.0,0.3571000000000595
196,15,0.5,0.0,-35.0,-1,1.0,0.28480000000001837
197,15,0.5,0.125,35.0,-1,0.0,0.11580000000003565
198,15,0.5,0.125,35.0,-1,0.0,0.42610000000001946
199,15,0.5,0.0625,-35.0,-1,1.0,0.3326000000000704
200,15,0.5,0.125,-35.0,-1,1.0,0.2662000000000262
201,15,0.5,1.0,35.0,1,1.0,0.2195000000001528
202,15,0.5,1.0,-35.0,-1,1.0,0.2798000000002503
203,15,0.5,1.0,35.0,1,1.0,0.2762000000000171
204,15,0.5,1.0,-35.0,-1,1.0,0.21640000000024884
205,15,0.5,0.125,-35.0,-1,1.0,0.44640000000003965
206,15,0.5,1.0,35.0,1,1.0,0.24000000000023647
207,15,0.5,0.125,-35.0,-1,1.0,0.12319999999999709
208,15,0.5,1.0,-35.0,-1,1.0,0.2137000000000171
209,15,0.5,0.25,-35.0,-1,1.0,0.22689999999988686
210,15,0.5,0.25,35.0,1,1.0,0.23699999999985266
211,15,0.5,0.25,35.0,-1,0.0,0.15030000000024302
212,15,0.5,0.0625,35.0,1,1.0,0.40409999999997126
213,15,0.5,0.0625,-35.0,-1,1.0,0.22729900000013004
214,15,0.5,0.125,35.0,-1,0.0,0.11759999999981119
215,15,0.5,0.125,35.0,1,1.0,0.3341000000000349
216,15,0.5,0.0625,35.0,1,1.0,0.3410000000001219
217,15,0.5,0.25,-35.0,-1,1.0,0.18420000000014625
218,15,0.5,1.0,-35.0,-1,1.0,0.35789999999997235
219,15,0.5,0.25,-35.0,-1,1.0,0.2946999999999207
220,15,0.5,0.125,35.0,1,1.0,0.2942999999997937
221,15,0.5,0.0625,35.0,-1,0.0,0.744899999999916
222,15,0.5,0.0625,-35.0,-1,1.0,0.8412000000000717
223,15,0.5,1.0,-35.0,-1,1.0,0.2880999999999858
224,15,0.5,0.0625,35.0,1,1.0,0.26490000000012515
225,15,0.5,0.125,-35.0,-1,1.0,0.40840000000002874
226,15,0.5,1.0,-35.0,-1,1.0,0.37820000000010623
227,15,0.5,0.25,35.0,1,1.0,0.241800000000012
228,15,0.5,0.125,35.0,1,1.0,0.24169999999980973
229,15,0.5,0.0625,35.0,1,1.0,0.2822000000001026
230,15,0.5,0.25,-35.0,-1,1.0,0.41190000000005966
231,15,0.5,0.25,35.0,1,1.0,0.2823000000000775
232,15,0.5,1.0,-35.0,-1,1.0,0.13530000000014297
233,15,0.5,1.0,35.0,1,1.0,0.582300000000032
234,15,0.5,0.25,35.0,1,1.0,0.24890000000004875
235,15,0.5,0.0625,-35.0,-1,1.0,0.3993000000000393
236,15,0.5,0.0,-35.0,1,0.0,0.22570000000018808
237,15,0.5,0.25,-35.0,-1,1.0,0.27270000000021355
238,15,0.5,1.0,-35.0,-1,1.0,0.32930000000010295
239,15,0.5,0.25,-35.0,-1,1.0,0.35950000000025284
240,15,0.5,0.0625,-35.0,-1,1.0,0.38950000000022555
241,15,0.5,0.25,35.0,1,1.0,0.24320000000011532
242,15,0.5,0.125,35.0,1,1.0,0.23649900000009438
243,15,0.5,0.25,35.0,1,1.0,0.30709999999999127
244,15,0.5,1.0,-35.0,-1,1.0,0.26310000000012224
245,15,0.5,0.25,35.0,1,1.0,0.3002000000001317
246,15,0.5,0.125,35.0,-1,0.0,0.5333000000000538
247,15,0.5,0.0,35.0,-1,0.0,0.5104000000001179
248,15,0.5,0.0,35.0,-1,0.0,0.45019999999999527
249,15,0.5,0.0625,35.0,-1,0.0,3.3039000000001124
250,15,0.5,0.25,-35.0,-1,1.0,0.2536999999999807
251,15,0.5,0.25,-35.0,-1,1.0,0.3108999999999469
252,15,0.5,0.0625,35.0,-1,0.0,0.5905999999999949
253,15,0.5,0.0625,35.0,-1,0.0,0.3839999999997872
254,15,0.5,0.125,-35.0,-1,1.0,0.2474000000001979
255,15,0.5,0.25,35.0,1,1.0,0.3310999999998785
256,15,0.5,0.125,35.0,1,1.0,0.31750000000010914
257,15,0.5,0.25,-35.0,-1,1.0,0.691099000000122
258,15,0.5,0.25,35.0,-1,0.0,0.0944000000001779
259,15,0.2,0.25,35.0,1,1.0,0.34140000000024884
260,15,0.5,1.0,35.0,1,1.0,0.27779999999984284
261,15,0.5,0.25,35.0,1,1.0,0.2380990000001475
262,15,0.5,0.0625,35.0,1,1.0,0.33809999999994034
263,15,0.5,0.25,35.0,1,1.0,0.48169999999981883
264,15,0.5,0.125,-35.0,-1,1.0,0.26480000000015025
265,15,0.5,0.125,35.0,1,1.0,0.31529999999997926
266,15,0.5,0.0625,-35.0,-1,1.0,0.528400000000147
267,15,0.5,0.125,35.0,1,1.0,0.26530000000002474
268,15,0.5,1.0,35.0,1,1.0,0.2855000000001837
269,15,0.5,0.125,-35.0,1,0.0,0.25890000000003965
270,15,0.8,0.125,-35.0,1,0.0,0.43889999999987594
271,15,0.5,1.0,-35.0,-1,1.0,0.2425999999998112
272,15,0.5,0.125,-35.0,-1,1.0,0.3689999999999145
273,15,0.5,0.25,35.0,1,1.0,0.33930000000009386
274,15,0.5,0.125,-35.0,-1,1.0,0.4057999999999993
275,15,0.5,0.0625,35.0,1,1.0,0.2561000000000604
276,15,0.5,1.0,-35.0,-1,1.0,0.3061000000000149
277,15,0.5,0.125,35.0,-1,0.0,1.5764999999998963
278,15,0.5,0.125,-35.0,-1,1.0,0.2396000000001095
279,15,0.5,1.0,-35.0,-1,1.0,0.31989999999996144
280,15,0.5,0.125,-35.0,-1,1.0,0.3665000000000873
281,15,0.5,0.25,35.0,-1,0.0,0.26680000000010295
282,15,0.5,0.125,-35.0,-1,1.0,0.3432000000000244
283,15,0.5,0.0625,-35.0,-1,1.0,0.5138999999999214
284,15,0.5,1.0,-35.0,-1,1.0,0.22680000000013933
285,15,0.5,1.0,-35.0,-1,1.0,0.26050000000009277
286,15,0.5,0.0625,-35.0,-1,1.0,0.16030000000000655
287,15,0.5,0.25,-35.0,-1,1.0,0.28719999999998436
288,15,0.5,0.125,35.0,-1,0.0,0.40039999999999054
289,15,0.5,0.0,35.0,-1,0.0,2.937400000000025
290,15,0.0,0.0,35.0,-1,0.0,0.6138999999998305
291,15,0.5,1.0,35.0,1,1.0,0.9311000000002423
292,15,0.5,0.125,35.0,1,1.0,0.9608000000000629
293,15,0.5,1.0,-35.0,-1,1.0,0.30780000000004293
294,15,0.5,0.25,-35.0,-1,1.0,0.23090000000001965
295,15,0.5,0.0625,-35.0,-1,1.0,0.15470000000004802
296,15,0.5,1.0,35.0,-1,0.0,0.13450000000011642
297,15,0.5,0.125,-35.0,-1,1.0,0.31159999999999854
298,15,0.5,0.0625,35.0,1,1.0,0.34140000000002146
299,15,0.5,0.25,-35.0,-1,1.0,0.28500000000008185
300,15,0.5,1.0,-35.0,1,0.0,0.4681000000000495
301,15,0.5,0.0625,35.0,1,1.0,0.4451000000001386
302,15,0.5,0.0,35.0,1,1.0,2.8350000000002638
303,15,0.5,0.0625,-35.0,1,0.0,0.7287999999998647
304,15,0.5,0.125,-35.0,-1,1.0,0.16850000000022192
305,15,0.5,1.0,35.0,1,1.0,0.5986000000002605
306,15,0.5,1.0,-35.0,-1,1.0,0.1853000000000975
307,15,0.5,0.0,35.0,-1,0.0,0.35560000000009495
308,15,0.5,0.0625,35.0,1,1.0,2.6754000000000815
309,15,0.5,0.0,-35.0,-1,1.0,0.5925999999999476
310,15,0.5,0.0,-35.0,1,0.0,0.28899999999998727
311,15,0.5,0.0625,35.0,1,1.0,0.9794000000001688
312,15,0.5,0.0,-35.0,-1,1.0,0.32580000000007203
313,15,0.5,0.0,35.0,-1,0.0,0.32960000000002765
314,15,0.5,0.25,-35.0,-1,1.0,0.3225999999999658
315,15,0.5,0.125,-35.0,-1,1.0,0.1996999999998934
316,15,0.5,1.0,35.0,-1,0.0,0.09609999999997854
317,15,0.5,0.125,35.0,1,1.0,0.4067000000000007
318,15,0.5,0.25,35.0,1,1.0,0.3364000000001397
319,15,0.5,0.0625,-35.0,1,0.0,0.5501999999999043
320,15,0.5,0.0625,-35.0,-1,1.0,0.299900000000207
321,15,0.5,1.0,-35.0,-1,1.0,0.19690000000014152
322,15,0.5,0.125,-35.0,-1,1.0,0.28340000000002874
323,15,0.5,0.125,-35.0,-1,1.0,0.32700000000022555
324,15,0.5,0.125,35.0,-1,0.0,0.7036000000000513
325,15,0.5,0.0625,35.0,-1,0.0,0.13380000000006476
326,15,0.3,0.0625,35.0,-1,0.0,0.2636999999999716
327,15,0.5,1.0,35.0,1,1.0,0.2807000000000244
328,15,0.5,1.0,35.0,1,1.0,0.4071999999998752
329,15,0.5,0.125,35.0,-1,0.0,0.7041000000001532
330,15,0.5,0.0625,35.0,1,1.0,0.31739999999990687
331,15,0.5,0.25,35.0,1,1.0,1.4212000000002263
332,15,0.5,0.0625,-35.0,-1,1.0,0.31760000000008404
333,15,0.5,1.0,-35.0,-1,1.0,0.19800000000009277
334,15,0.5,0.0,-35.0,-1,1.0,0.32780000000002474
335,15,0.5,0.125,-35.0,-1,1.0,0.2947999999998956
336,15,0.5,1.0,-35.0,-1,1.0,0.10789999999997235
337,15,0.5,0.0625,-35.0,-1,1.0,0.2783000000001721
338,15,0.5,1.0,-35.0,-1,1.0,0.24479999999994106
339,15,0.5,0.0625,35.0,1,1.0,0.2983999999999014
340,15,0.5,0.25,-35.0,-1,1.0,0.7950000000000728
341,15,0.5,1.0,-35.0,-1,1.0,0.23539999999979955
342,15,0.5,1.0,-35.0,-1,1.0,0.33550000000013824
343,15,0.5,0.0625,-35.0,-1,1.0,0.2722000000001117
344,15,0.5,0.0,-35.0,-1,1.0,0.35550000000012005
345,15,0.5,0.25,-35.0,-1,1.0,0.27899999999999636
346,15,0.5,0.0,35.0,-1,0.0,0.10550000000012005
347,15,0.1,0.0,35.0,-1,0.0,0.34590000000002874
348,15,0.5,1.0,35.0,1,1.0,0.3425999999999476
349,15,0.5,0.125,-35.0,-1,1.0,0.2593000000001666
350,15,0.5,0.125,35.0,1,1.0,0.30920000000014625
351,15,0.5,0.0625,35.0,-1,0.0,0.7196989999999914
352,15,0.5,0.0,-35.0,-1,1.0,0.2726999999999862
353,15,0.5,0.0,-35.0,-1,1.0,0.17970000000013897
354,15,0.5,0.125,-35.0,-1,1.0,0.26330000000007203
355,15,0.5,0.125,35.0,-1,0.0,0.1329000000000633
356,15,0.2,0.125,35.0,-1,0.0,1.050000000000182
357,15,0.5,1.0,35.0,-1,0.0,0.4998000000000502
358,15,0.2,1.0,-35.0,-1,1.0,0.3403000000000702
359,15,0.5,1.0,35.0,1,1.0,0.3701000000003205
360,15,0.5,0.0625,35.0,-1,0.0,0.16039999999998145
361,15,0.5,0.0,-35.0,-1,1.0,0.31340000000000146
362,15,0.5,0.0625,35.0,-1,0.0,0.3971000000001368
363,15,0.1,0.0625,35.0,-1,0.0,0.33370000000013533
364,15,0.5,1.0,35.0,1,1.0,0.7407000000000608
365,15,0.5,0.0625,35.0,1,1.0,0.46040000000016335
366,15,0.5,1.0,-35.0,-1,1.0,0.27430000000026666
367,15,0.5,0.125,-35.0,-1,1.0,0.330600000000004
368,15,0.5,0.0,-35.0,-1,1.0,0.31750000000010914
369,15,0.5,0.125,35.0,1,1.0,0.37400000000002365
370,15,0.5,0.0625,-35.0,-1,1.0,0.12789999999995416
371,15,0.5,1.0,-35.0,-1,1.0,0.1474990000001526
372,15,0.5,0.25,35.0,1,1.0,1.6479999999999109
373,15,0.5,0.0625,35.0,1,1.0,0.28099999999994907
374,15,0.5,0.25,-35.0,-1,1.0,0.09809999999993124
375,15,0.5,0.25,-35.0,-1,1.0,0.43450000000007094
376,15,0.5,0.0625,35.0,1,1.0,0.30189999999993233
377,15,0.5,0.0,-35.0,-1,1.0,0.4212999999999738
378,15,0.5,0.25,35.0,1,1.0,0.24510000000009313
379,15,0.5,0.125,-35.0,-1,1.0,0.3180999999999585
380,15,0.5,0.25,-35.0,-1,1.0,0.32189999999991414
381,15,0.5,0.0625,-35.0,-1,1.0,0.3716999999999189
382,15,0.5,0.25,35.0,-1,0.0,1.1890000000000782
383,15,0.5,0.0625,35.0,-1,0.0,0.38850000000002183
384,15,0.5,0.25,35.0,1,1.0,0.28890000000001237
385,15,0.5,0.125,35.0,1,1.0,0.14550000000008367
386,15,0.5,0.0625,35.0,1,1.0,0.44580000000019027
387,15,0.5,0.25,-35.0,-1,1.0,0.2989000000000033
388,15,0.5,0.25,-35.0,-1,1.0,0.27900000000022374
389,15,0.5,0.25,35.0,1,1.0,0.2522000000001299
390,15,0.5,0.125,35.0,1,1.0,0.6425999999999021
391,15,0.5,0.125,-35.0,-1,1.0,0.2523999999998523
392,15,0.5,1.0,-35.0,-1,1.0,0.16960000000017317
393,15,0.5,0.125,35.0,1,1.0,0.39609999999993306
394,15,0.5,0.0625,-35.0,-1,1.0,0.13959999999997308
395,15,0.5,0.25,-35.0,-1,1.0,0.2760999999998148
396,15,0.5,0.0625,35.0,-1,0.0,0.4629000000002179
397,15,0.5,0.125,35.0,1,1.0,0.2962999999999738
398,15,0.5,0.125,35.0,1,1.0,0.3931999999999789
399,15,0.5,0.0,35.0,1,1.0,0.4097999999999047
400,15,0.5,0.125,-35.0,-1,1.0,0.29359999999996944
401,15,0.5,0.125,-35.0,-1,1.0,0.42669999999998254
402,15,0.5,0.0,35.0,-1,0.0,0.3770999999999276
403,15,0.5,0.125,-35.0,-1,1.0,0.4068999999999505
404,15,0.5,1.0,-35.0,-1,1.0,0.2840000000001055
405,15,0.5,0.25,35.0,1,1.0,0.2938000000001466
406,15,0.5,0.25,-35.0,-1,1.0,0.31759999999985666
407,15,0.5,0.0625,35.0,1,1.0,0.41409999999996217
408,15,0.5,1.0,35.0,1,1.0,0.45430000000010295
409,15,0.5,1.0,35.0,1,1.0,0.6674000000000433
410,15,0.5,0.125,-35.0,-1,1.0,0.584400000000187
411,15,0.5,0.0,35.0,1,1.0,0.300899999999956
412,15,0.5,0.0625,35.0,-1,0.0,0.37789999999995416
413,15,0.5,0.25,-35.0,-1,1.0,0.3244999999999436
414,15,0.5,0.0625,35.0,1,1.0,0.31490000000007967
415,15,0.5,1.0,-35.0,-1,1.0,0.3045999999999367
416,15,0.5,0.125,35.0,1,1.0,0.3250000000000455
417,15,0.5,0.25,35.0,1,1.0,0.2580000000000382
418,15,0.5,0.0625,35.0,-1,0.0,1.61850000000004
419,15,0.5,0.125,35.0,-1,0.0,0.674900000000207
420,15,0.5,0.125,35.0,1,1.0,0.23530000000005202
421,15,0.5,0.0,35.0,-1,0.0,0.441899999999805
422,15,0.5,0.0625,-35.0,-1,1.0,0.33560000000011314
423,15,0.5,0.0,-35.0,1,0.0,0.30209999999988213
424,15,0.5,0.0,35.0,1,1.0,0.5491000000001804
425,15,0.5,1.0,-35.0,-1,1.0,0.3156999999996515
426,15,0.5,0.0625,35.0,1,1.0,0.7789000000002488
427,15,0.5,0.0625,-35.0,-1,1.0,0.33969999999999345
428,15,0.5,0.0625,-35.0,-1,1.0,0.3326000000001841
429,15,0.5,0.0625,35.0,-1,0.0,0.2930999999998676
430,15,0.5,0.125,-35.0,-1,1.0,0.21939999999995052
431,15,0.5,0.25,35.0,1,1.0,0.2966000000001259
432,15,0.5,0.25,-35.0,-1,1.0,0.2529999999997017
433,15,0.5,0.125,35.0,1,1.0,0.2932999999998174
434,15,0.5,1.0,-35.0,-1,1.0,0.12640000000055807
435,15,0.5,0.0625,35.0,1,1.0,2.6502000000000407
436,15,0.5,0.125,35.0,1,1.0,0.31989999999996144
437,15,0.5,0.0,-35.0,1,0.0,0.39030000000002474
438,15,0.5,0.0,-35.0,-1,1.0,0.32009999999991123
439,15,0.5,0.0625,35.0,-1,0.0,0.3140000000003056
440,15,0.5,0.0625,-35.0,-1,1.0,0.2738000000003922
441,15,0.5,1.0,-35.0,-1,1.0,0.2474000000001979
442,15,0.5,0.0,35.0,-1,0.0,0.30709999999999127
443,15,0.5,0.0625,-35.0,-1,1.0,0.30419999999958236
444,15,0.5,0.125,35.0,1,1.0,0.35730000000012296
445,15,0.5,0.25,-35.0,-1,1.0,0.2410000000004402
446,15,0.5,0.0625,-35.0,-1,1.0,0.5408000000002176
447,15,0.5,0.0625,-35.0,-1,1.0,0.2814000000003034
448,15,0.5,0.0625,-35.0,-1,1.0,0.2341999999998734
449,15,0.5,0.0625,35.0,-1,0.0,0.32819999999992433
450,15,0.5,0.125,-35.0,-1,1.0,0.471400000000358
451,15,0.5,0.25,-35.0,-1,1.0,0.25830000000041764
452,15,0.5,1.0,35.0,1,1.0,0.2913000000003194
453,15,0.5,0.25,-35.0,-1,1.0,0.2748999999998887
454,15,0.5,0.125,35.0,1,1.0,0.38149999999996
455,15,0.5,1.0,35.0,1,1.0,0.14510000000018408
456,15,0.5,0.125,-35.0,1,0.0,0.24159999999983484
457,15,0.4,0.125,35.0,1,1.0,0.748700000000099
458,15,0.5,1.0,35.0,1,1.0,0.6918000000000575
459,15,0.5,1.0,35.0,1,1.0,1.0824000000002343
460,15,0.5,0.125,35.0,1,1.0,0.11529999999993379
461,15,0.5,0.125,-35.0,1,0.0,0.45899999999983265
462,15,0.9,0.125,-35.0,-1,1.0,0.30880000000024665
463,15,0.5,1.0,-35.0,-1,1.0,0.13249899999982517
464,15,0.5,1.0,-35.0,-1,1.0,0.22910000000001673
465,15,0.5,0.0,-35.0,-1,1.0,0.27260000000023865
466,15,0.5,0.0,35.0,-1,0.0,0.2959000000000742
467,15,0.5,0.125,-35.0,-1,1.0,0.3196989999996731
468,15,0.5,0.0,35.0,-1,0.0,0.34600000000000364
469,15,0.5,0.25,-35.0,-1,1.0,0.2462999999997919
470,15,0.5,0.25,35.0,-1,0.0,0.42610000000013315
471,15,0.5,0.0,35.0,1,1.0,0.26010000000042055
472,15,0.5,0.25,35.0,-1,0.0,0.14629999999988286
473,15,0.5,0.0625,-35.0,-1,1.0,0.3067999999998392
474,15,0.5,1.0,-35.0,-1,1.0,0.25640000000021246
475,15,0.5,0.125,35.0,1,1.0,0.3731999999999971
476,15,0.5,0.0625,35.0,1,1.0,0.37649999999985084
477,15,0.5,0.25,-35.0,-1,1.0,0.29690000000027794
478,15,0.5,0.0625,35.0,1,1.0,0.26030000000037035
479,15,0.5,0.125,-35.0,-1,1.0,0.36060000000043146
480,15,0.5,0.125,35.0,1,1.0,0.3502989999997226
481,15,0.5,0.125,-35.0,-1,1.0,0.16060000000015862
482,15,0.5,0.125,-35.0,-1,1.0,0.377100000000155
483,15,0.5,0.0625,-35.0,-1,1.0,0.2775000000001455
484,15,0.5,0.0,35.0,-1,0.0,0.1774000000000342
485,15,0.4,0.0,-35.0,-1,1.0,0.2842999999998028
486,15,0.5,1.0,35.0,1,1.0,0.31750000000010914
487,15,0.5,0.0625,-35.0,-1,1.0,0.39809999999988577
488,15,0.5,0.25,35.0,1,1.0,1.4110000000000582
489,15,0.5,1.0,35.0,1,1.0,0.36500000000023647
490,15,0.5,0.125,35.0,1,1.0,0.3411999999998443
491,15,0.5,1.0,-35.0,-1,1.0,0.26139999999986685
492,15,0.5,0.0625,35.0,1,1.0,0.32819900000004054
493,15,0.5,0.0625,-35.0,-1,1.0,0.29500000000007276
494,15,0.5,1.0,-35.0,-1,1.0,0.23149999999986903
495,15,0.5,0.25,35.0,1,1.0,0.3420000000000982
496,15,0.5,1.0,35.0,1,1.0,0.26169999999956417
497,15,0.5,0.25,35.0,1,1.0,0.3252999999995154
498,15,0.5,0.25,35.0,1,1.0,0.33849999999983993
499,15,0.5,0.125,-35.0,-1,1.0,0.33209999999962747
500,15,0.5,0.125,-35.0,-1,1.0,0.3120000000003529
501,15,0.5,0.0625,-35.0,-1,1.0,0.2760000000002947
502,15,0.5,0.0625,-35.0,-1,1.0,0.32890000000043074
503,15,0.5,0.0,-35.0,-1,1.0,0.5725000000002183
504,15,0.5,0.0625,35.0,1,1.0,0.31570000000010623
505,15,0.5,0.0,-35.0,-1,1.0,0.34609999999975116
506,15,0.5,0.0625,-35.0,-1,1.0,0.5792999999998756
507,15,0.5,0.25,-35.0,-1,1.0,0.22290000000066357
508,15,0.5,0.25,35.0,-1,0.0,0.27289999999993597
509,15,0.5,0.0625,-35.0,-1,1.0,0.27979999999979555
510,15,0.5,0.125,35.0,1,1.0,0.3462000000004082
511,15,0.5,1.0,-35.0,-1,1.0,0.13320000000021537
512,15,0.5,0.0625,35.0,1,1.0,0.3330000000000837
513,15,0.5,0.125,-35.0,-1,1.0,0.1633999999999105
514,15,0.5,0.0625,35.0,1,1.0,0.3568000000000211
515,15,0.5,0.125,35.0,-1,0.0,0.14039999999977226
516,15,0.3,0.125,35.0,1,1.0,0.2998999999999796
517,15,0.5,1.0,-35.0,-1,1.0,0.24370000000044456
518,15,0.5,0.0625,-35.0,-1,1.0,0.32020000000056825
519,15,0.5,1.0,-35.0,-1,1.0,0.2173000000002503
520,15,0.5,0.125,35.0,-1,0.0,0.40360000000009677
521,15,0.5,0.125,-35.0,-1,1.0,0.31730000000015934
522,15,0.5,0.0625,35.0,-1,0.0,0.30389999999988504
523,15,0.2,0.0625,35.0,1,1.0,0.3942000000001826
524,15,0.5,1.0,35.0,1,1.0,0.31389999999964857
525,15,0.5,1.0,-35.0,-1,1.0,0.2644000000000233
526,15,0.5,0.0625,35.0,1,1.0,0.3809000000001106
527,15,0.5,0.25,-35.0,-1,1.0,0.2677000000003318
528,15,0.5,1.0,35.0,1,1.0,0.3142000000002554
529,15,0.5,0.0,-35.0,-1,1.0,0.29779999999982465
530,15,0.5,0.0625,35.0,1,1.0,0.4542999999998756
531,15,0.5,0.125,35.0,1,1.0,0.3647000000000844
532,15,0.5,0.125,-35.0,-1,1.0,0.47450000000026193
533,15,0.5,0.125,-35.0,-1,1.0,0.4216000000001259
534,15,0.5,0.125,-35.0,1,0.0,0.3879999999994652
535,15,0.5,0.125,-35.0,-1,1.0,0.22859999999991487
536,15,0.5,1.0,-35.0,-1,1.0,0.34160000000019863
537,15,0.5,0.0,-35.0,-1,1.0,0.4153000000001157
538,15,0.5,0.0625,-35.0,1,0.0,0.28829999999970823
539,15,0.4,0.0625,-35.0,-1,1.0,0.32890000000043074
540,15,0.5,1.0,35.0,1,1.0,0.3552999999997155
541,15,0.5,0.125,35.0,1,1.0,0.33559999999988577
542,15,0.5,0.0625,-35.0,1,0.0,9.442000000000007
543,15,0.5,0.0625,-35.0,1,0.0,1.7890999999999622
544,15,0.5,0.25,-35.0,1,0.0,10.965599999999995
545,15,0.6,0.25,-35.0,1,0.0,1.5162999999997737
546,15,0.5,1.0,-35.0,-1,1.0,0.5326999999997497
547,15,0.5,0.0625,-35.0,-1,1.0,0.37989999999990687
548,15,0.5,0.125,35.0,-1,0.0,0.32290000000011787
549,15,0.5,0.25,-35.0,-1,1.0,0.9463999999998123
550,15,0.5,0.0,35.0,-1,0.0,0.5197000000002845
551,15,0.5,0.125,-35.0,-1,1.0,2.02370000000019
552,15,0.5,0.0,35.0,-1,0.0,0.3000000000001819
553,15,0.5,0.0,35.0,-1,0.0,0.4171999999994114
554,15,0.5,0.125,35.0,-1,0.0,0.3567000000002736
555,15,0.5,0.25,35.0,1,1.0,1.0106000000000677
556,15,0.5,0.25,-35.0,-1,1.0,0.4068999999999505
557,15,0.5,0.0625,-35.0,-1,1.0,0.35079999999970823
558,15,0.5,1.0,-35.0,-1,1.0,0.3004000000000815
559,15,0.5,0.0625,35.0,1,1.0,0.5142000000000735
560,15,0.5,0.125,35.0,1,1.0,0.34389999999984866
561,15,0.5,0.0625,35.0,1,1.0,0.350999000000229
562,15,0.5,0.25,-35.0,-1,1.0,0.33419999999978245
563,15,0.5,1.0,-35.0,-1,1.0,0.28110000000015134
564,15,0.5,1.0,-35.0,-1,1.0,0.28090000000020154
565,15,0.5,1.0,-35.0,-1,1.0,0.17799999999988358
566,15,0.5,0.25,-35.0,-1,1.0,0.22100000000000364
567,15,0.5,1.0,35.0,-1,0.0,0.10140000000001237
568,15,0.5,0.125,-35.0,-1,1.0,0.36779999999998836
569,15,0.5,0.0625,35.0,-1,0.0,0.34160000000019863
570,15,0.5,0.25,-35.0,-1,1.0,0.4412999999999556
571,15,0.5,0.0625,35.0,-1,0.0,0.371599999999944
572,15,0.5,0.25,35.0,1,1.0,0.3979999999996835
573,15,0.5,0.0625,35.0,1,1.0,0.37179999999989377
574,15,0.5,1.0,35.0,1,1.0,0.30490000000008877
575,15,0.5,1.0,35.0,1,1.0,0.3352999999997337
576,15,0.5,0.0625,35.0,1,1.0,0.4015999999996893
577,15,0.5,1.0,35.0,1,1.0,0.3220000000001164
578,15,0.5,0.0625,35.0,1,1.0,0.3250999999995656
579,15,0.5,0.25,-35.0,-1,1.0,0.3320000000003347
580,15,0.5,1.0,35.0,1,1.0,0.2953000000002248
581,15,0.5,1.0,35.0,1,1.0,0.2622000000001208
582,15,0.5,0.25,35.0,1,1.0,0.45859999999993306
583,15,0.5,0.0,35.0,1,1.0,0.39900000000034197
584,15,0.5,0.0625,-35.0,1,0.0,9.659000000000106
585,15,0.5,0.0625,-35.0,1,0.0,0.3494989999999234
586,15,0.5,0.0625,-35.0,-1,1.0,4.255999999999858
587,15,0.5,0.25,-35.0,-1,1.0,0.5963999999999032
588,15,0.5,0.0625,-35.0,-1,1.0,5.136099999999715
589,15,0.5,0.0625,35.0,-1,0.0,2.669999999999618
590,15,0.5,0.0625,-35.0,1,0.0,4.046599000000242
591,15,0.5,0.0625,-35.0,-1,1.0,7.607199999999921
592,15,0.5,0.0,35.0,-1,0.0,6.823899999999867
593,15,0.5,0.0625,-35.0,1,0.0,11.077499999999873
594,15,0.4,0.0625,-35.0,1,0.0,3.1041000000000167
595,15,0.5,1.0,-35.0,1,0.0,3.9812999999999192
596,15,0.5,0.125,35.0,1,1.0,5.544400000000223
597,15,0.5,0.125,35.0,1,1.0,9.104699999999866
598,15,0.5,1.0,-35.0,1,0.0,8.26150000000007
599,15,0.5,0.0625,35.0,-1,0.0,17.432200000000194
600,15,0.5,0.0625,-35.0,-1,1.0,4.60550000000012
601,15,0.5,0.0625,-35.0,1,0.0,9.095899999999801
602,15,0.5,0.0625,-35.0,1,0.0,5.182499999999891
603,15,0.5,0.125,-35.0,1,0.0,0.3364000000001397
604,15,0.5,0.125,-35.0,1,0.0,0.3963000000003376
605,15,0.5,0.125,35.0,1,1.0,0.36320000000023356
606,15,0.5,0.25,-35.0,1,0.0,0.4729000000002088
607,15,0.8,0.25,-35.0,-1,1.0,7.403400000000147
608,15,0.5,1.0,-35.0,-1,1.0,0.36000000000012733
609,15,0.5,1.0,-35.0,-1,1.0,0.33370000000013533
610,15,0.5,0.0625,-35.0,-1,1.0,2.4567000000001826
611,15,0.5,1.0,-35.0,-1,1.0,2.020300000000134
612,15,0.5,1.0,-35.0,-1,1.0,4.033500000000458
613,15,0.5,0.125,-35.0,-1,1.0,4.100800000000163
614,15,0.5,0.0625,-35.0,-1,1.0,14.87039999999979
615,15,0.5,1.0,35.0,1,1.0,16.16800000000012
616,15,0.5,0.0625,-35.0,1,0.0,1.304599000000053
617,15,0.5,0.125,35.0,-1,0.0,4.475299999999606
618,15,0.2,0.125,35.0,1,1.0,5.761599999999817
619,15,0.5,1.0,35.0,1,1.0,1.4722000000001572
620,15,0.5,0.0625,-35.0,-1,1.0,19.568699999999808
621,15,0.5,0.0625,-35.0,-1,1.0,2.6158000000000357
622,15,0.5,0.0,-35.0,-1,1.0,0.45580000000018117
623,15,0.5,0.25,-35.0,-1,1.0,0.45610000000033324
624,15,0.5,0.0,35.0,-1,0.0,7.229199999999764
625,15,0.4,0.0,35.0,-1,0.0,1.5196000000000822
626,15,0.5,1.0,35.0,1,1.0,18.0628999999999
627,15,0.5,0.0625,35.0,-1,0.0,11.21040000000039
628,15,0.5,0.25,35.0,1,1.0,0.3202000000001135
629,15,0.5,1.0,35.0,1,1.0,0.2674000000001797
630,15,0.5,0.0625,-35.0,1,0.0,6.52029900000025
631,15,0.5,0.125,-35.0,-1,1.0,0.3908000000001266
632,15,0.5,1.0,-35.0,-1,1.0,0.5140999999998712
633,15,0.5,0.0625,35.0,-1,0.0,3.8510000000001128
634,15,0.5,0.0625,35.0,1,1.0,5.411099999999806
635,15,0.5,1.0,-35.0,-1,1.0,28.76800000000003
636,15,0.5,0.125,-35.0,-1,1.0,6.678400000000238
637,15,0.5,0.25,35.0,-1,0.0,6.5590000000001965
638,15,0.5,0.125,35.0,1,1.0,0.6022000000002663
639,15,0.5,0.0625,35.0,-1,0.0,28.809099000000515
640,15,0.3,0.0625,35.0,-1,0.0,6.3530000000000655
641,15,0.5,1.0,35.0,1,1.0,0.31340000000000146
642,15,0.5,0.25,35.0,-1,0.0,2.1032000000000153
643,15,0.5,0.25,-35.0,1,0.0,5.863400000000183
644,15,0.4,0.25,35.0,1,1.0,21.453498999999738
645,15,0.5,1.0,35.0,1,1.0,11.91780000000017
646,15,0.5,0.125,-35.0,-1,1.0,6.787600000000111
