trial_num,session_num,stim_probability_left,contrast,position,response_choice,trial_correct,reaction_time
1,1,0.5,0.0,35.0,1,1.0,0.37729999999999997
2,1,0.5,0.125,-35.0,-1,1.0,1.040099999999999
3,1,0.5,1.0,35.0,1,1.0,0.13780000000000037
4,1,0.5,1.0,35.0,1,1.0,0.22019900000000447
5,1,0.5,0.0625,35.0,1,1.0,0.20619999999999905
6,1,0.5,0.25,35.0,1,1.0,0.38610000000000255
7,1,0.5,1.0,-35.0,-1,1.0,0.40980000000000416
8,1,0.5,0.0625,-35.0,1,0.0,0.17290000000000205
9,1,0.5,0.0625,-35.0,1,0.0,0.23570000000000135
10,1,0.5,0.0,-35.0,-1,1.0,0.2804000000000002
11,1,0.5,1.0,35.0,1,1.0,0.19440000000000168
12,1,0.5,0.125,35.0,1,1.0,0.26480000000000103
13,1,0.5,1.0,-35.0,-1,1.0,0.558099999999996
14,1,0.5,0.0,-35.0,1,0.0,0.3271000000000086
15,1,0.5,0.0625,-35.0,-1,1.0,0.4818000000000069
16,1,0.5,0.125,35.0,1,1.0,0.27179999999999893
17,1,0.5,0.125,35.0,-1,0.0,0.1268000000000029
18,1,0.5,0.0,35.0,1,1.0,0.3242999999999938
19,1,0.5,0.25,35.0,1,1.0,0.2891000000000048
20,1,0.5,0.125,35.0,1,1.0,0.21449900000000355
21,1,0.5,0.0,-35.0,1,0.0,0.2906990000000036
22,1,0.5,0.0625,35.0,1,1.0,0.2516000000000105
23,1,0.5,1.0,-35.0,-1,1.0,0.3533000000000044
24,1,0.5,1.0,-35.0,-1,1.0,0.2560000000000002
25,1,0.5,0.125,-35.0,-1,1.0,0.6942999999999984
26,1,0.5,0.25,35.0,1,1.0,0.24960000000000093
27,1,0.5,0.0625,-35.0,-1,1.0,0.43489999999999895
28,1,0.5,1.0,-35.0,-1,1.0,0.5653999999999968
29,1,0.5,1.0,-35.0,-1,1.0,0.2711999999999932
30,1,0.5,0.25,-35.0,-1,1.0,0.39339999999999975
31,1,0.5,0.125,35.0,1,1.0,0.2751999999999981
32,1,0.5,1.0,-35.0,-1,1.0,0.2943000000000069
33,1,0.5,0.0,-35.0,1,0.0,0.3061999999999898
34,1,0.5,1.0,35.0,1,1.0,0.24439999999999884
35,1,0.5,0.25,35.0,1,1.0,0.18380000000000507
36,1,0.5,1.0,-35.0,-1,1.0,0.44410000000000593
37,1,0.5,0.125,35.0,1,1.0,0.23689999999996303
38,1,0.5,1.0,35.0,1,1.0,0.18359899999998675
39,1,0.5,0.125,-35.0,-1,1.0,0.5195989999999711
40,1,0.5,0.25,35.0,1,1.0,0.2997000000000014
41,1,0.5,0.0,-35.0,1,0.0,0.24609999999998422
42,1,0.5,0.0,-35.0,1,0.0,0.2974999999999852
43,1,0.5,0.0625,35.0,-1,0.0,2.9869989999999973
44,1,0.5,0.0625,-35.0,-1,1.0,0.35070000000001755
45,1,0.5,0.25,-35.0,-1,1.0,0.6402989999999988
46,1,0.5,0.125,35.0,1,1.0,0.3851999999999691
47,1,0.5,0.125,35.0,1,1.0,0.24449899999999047
48,1,0.5,0.25,35.0,1,1.0,0.24029999999999063
49,1,0.5,0.125,-35.0,-1,1.0,0.2650999999999897
50,1,0.5,1.0,35.0,1,1.0,0.28609999999997626
51,1,0.5,1.0,35.0,1,1.0,0.2968999999999937
52,1,0.5,0.125,-35.0,-1,1.0,0.2015999999999849
53,1,0.5,0.0625,35.0,-1,0.0,0.14289999999996894
54,1,0.5,0.0,35.0,1,1.0,0.23279999999996903
55,1,0.5,0.125,-35.0,-1,1.0,0.3497999999999877
56,1,0.5,0.0,-35.0,1,0.0,4.213099999999969
57,1,0.5,1.0,-35.0,-1,1.0,0.27299999999999613
58,1,0.5,0.0,35.0,-1,0.0,0.5485999999999649
59,1,0.5,1.0,35.0,1,1.0,0.3471999999999582
60,1,0.5,0.125,-35.0,-1,1.0,0.17789999999996553
61,1,0.5,0.0,35.0,-1,0.0,0.3404999999999916
62,1,0.5,0.125,-35.0,-1,1.0,0.25829899999999384
63,1,0.5,0.25,-35.0,-1,1.0,0.32989999999998076
64,1,0.5,1.0,-35.0,-1,1.0,0.25439999999997553
65,1,0.5,0.125,35.0,1,1.0,0.28089999999997417
66,1,0.5,0.125,35.0,1,1.0,0.27350000000001273
67,1,0.5,0.0,-35.0,1,0.0,0.5169989999999984
68,1,0.5,0.0625,-35.0,-1,1.0,0.3423999999999978
69,1,0.5,0.125,-35.0,-1,1.0,0.32549899999997933
70,1,0.5,1.0,35.0,1,1.0,0.24439999999998463
71,1,0.5,0.25,-35.0,-1,1.0,0.3468000000000302
72,1,0.5,0.0,35.0,-1,0.0,0.3235000000000241
73,1,0.5,0.25,35.0,1,1.0,0.262800000000027
74,1,0.5,1.0,35.0,1,1.0,0.27830000000000155
75,1,0.5,0.0625,35.0,1,1.0,0.31539900000001353
76,1,0.5,0.25,-35.0,-1,1.0,0.38840000000004693
77,1,0.5,0.125,35.0,1,1.0,0.2680990000000065
78,1,0.5,0.0625,-35.0,-1,1.0,0.41679999999996653
79,1,0.5,0.0625,35.0,1,1.0,0.40200000000004366
80,1,0.5,1.0,-35.0,-1,1.0,0.3417999999999779
81,1,0.5,1.0,35.0,1,1.0,0.22910000000007358
82,1,0.5,0.0,35.0,-1,0.0,0.3597000000000321
83,1,0.5,0.25,35.0,1,1.0,0.2624000000000706
84,1,0.5,0.0,-35.0,1,0.0,3.786498999999992
85,1,0.5,0.0625,-35.0,1,0.0,0.5943000000000325
86,1,0.5,0.0625,-35.0,1,0.0,0.2481000000000222
87,1,0.5,1.0,35.0,1,1.0,0.2346000000000572
88,1,0.5,0.25,-35.0,-1,1.0,0.3249000000000706
89,1,0.5,0.0,-35.0,1,0.0,0.2726000000000113
90,1,0.5,0.25,35.0,1,1.0,0.2522999999999911
91,1,0.8,0.0625,-35.0,-1,1.0,0.36299999999999955
92,1,0.8,0.0625,35.0,1,1.0,0.25600000000002865
93,1,0.8,1.0,-35.0,-1,1.0,0.32269999999999754
94,1,0.8,0.125,-35.0,-1,1.0,0.29319900000001553
95,1,0.8,0.0625,-35.0,-1,1.0,0.26530000000002474
96,1,0.8,0.125,-35.0,-1,1.0,0.2662000000000262
97,1,0.8,0.125,-35.0,-1,1.0,0.5938999999999623
98,1,0.8,1.0,-35.0,-1,1.0,0.37110000000001264
99,1,0.8,0.25,-35.0,-1,1.0,0.4591000000000349
100,1,0.8,0.25,-35.0,-1,1.0,0.28059999999999263
101,1,0.8,0.125,-35.0,-1,1.0,0.32779900000002726
102,1,0.8,0.125,-35.0,-1,1.0,0.36480000000000246
103,1,0.8,0.0,-35.0,-1,1.0,0.4448000000000434
104,1,0.8,0.0,-35.0,1,0.0,3.6264000000000465
105,1,0.8,0.125,-35.0,-1,1.0,0.3131000000000199
106,1,0.8,0.0625,-35.0,-1,1.0,0.4423999999999637
107,1,0.8,0.125,35.0,1,1.0,0.2813000000000443
108,1,0.8,0.0625,35.0,1,1.0,0.2633000000000152
109,1,0.8,0.0625,35.0,1,1.0,0.25839999999999463
110,1,0.8,1.0,35.0,1,1.0,0.25420000000002574
111,1,0.8,0.0,-35.0,-1,1.0,0.12279999999998381
112,1,0.8,0.25,-35.0,-1,1.0,0.2924000000000433
113,1,0.8,0.0,35.0,1,1.0,0.31519900000006373
114,1,0.8,0.25,-35.0,1,0.0,0.14789999999999281
115,1,0.8,0.0,-35.0,1,0.0,0.2918000000000234
116,1,0.8,0.125,-35.0,1,0.0,0.16899999999998272
117,1,0.8,0.125,-35.0,-1,1.0,0.33609999999998763
118,1,0.8,1.0,-35.0,-1,1.0,0.2855000000000132
119,1,0.8,0.0625,35.0,1,1.0,0.25300000000004275
120,1,0.8,0.125,-35.0,-1,1.0,0.3242000000000189
121,1,0.8,0.125,-35.0,-1,1.0,0.37559900000002244
122,1,0.8,1.0,-35.0,-1,1.0,0.23529999999999518
123,1,0.8,1.0,-35.0,-1,1.0,0.2902990000000045
124,1,0.8,1.0,35.0,1,1.0,0.21739999999999782
125,1,0.8,1.0,-35.0,-1,1.0,0.31100000000003547
126,1,0.8,1.0,-35.0,-1,1.0,0.2329000000000292
127,1,0.8,0.125,-35.0,-1,1.0,0.36410000000000764
128,1,0.8,0.0,-35.0,1,0.0,0.4968990000000417
129,1,0.8,0.0,-35.0,1,0.0,3.635099999999966
130,1,0.8,0.0,-35.0,1,0.0,0.13259999999996808
131,1,0.8,0.0,-35.0,-1,1.0,0.23520000000002028
132,1,0.2,0.25,-35.0,-1,1.0,0.2897000000000389
133,1,0.2,0.0,35.0,1,1.0,0.25499999999999545
134,1,0.2,1.0,35.0,1,1.0,0.23420000000004393
135,1,0.2,0.0,-35.0,-1,1.0,0.7240999999999644
136,1,0.2,1.0,35.0,1,1.0,0.2865990000000238
137,1,0.2,0.125,35.0,1,1.0,0.27510000000006585
138,1,0.2,0.125,-35.0,-1,1.0,0.4389000000000465
139,1,0.2,0.25,35.0,1,1.0,0.2832000000000221
140,1,0.2,0.125,35.0,-1,0.0,0.43770000000000664
141,1,0.2,0.0625,35.0,1,1.0,0.3281999999999812
142,1,0.2,0.125,35.0,1,1.0,0.28350000000000364
143,1,0.2,0.25,-35.0,-1,1.0,0.30759999999997945
144,1,0.2,0.125,35.0,1,1.0,0.3421000000000163
145,1,0.2,0.0625,35.0,1,1.0,0.2762000000000171
146,1,0.2,1.0,35.0,1,1.0,0.20369999999996935
147,1,0.2,1.0,35.0,1,1.0,0.21309900000005655
148,1,0.2,0.125,35.0,1,1.0,0.3048000000000002
149,1,0.2,1.0,35.0,1,1.0,0.2602000000000544
150,1,0.2,0.0,35.0,1,1.0,0.16300000000001091
151,1,0.2,0.125,35.0,1,1.0,0.29360000000008313
152,1,0.2,0.125,35.0,1,1.0,0.30939999999998236
153,1,0.2,0.25,35.0,1,1.0,0.274599999999964
154,1,0.2,0.25,35.0,1,1.0,0.21349999999995362
155,1,0.2,0.0,35.0,1,1.0,0.33199999999999363
156,1,0.2,0.0625,-35.0,-1,1.0,0.5211000000000467
157,1,0.2,1.0,35.0,1,1.0,0.20670000000006894
158,1,0.2,0.0,-35.0,1,0.0,0.34950000000014825
159,1,0.2,0.0625,35.0,1,1.0,0.26890000000003056
160,1,0.2,0.0,-35.0,1,0.0,1.6146999999999707
161,1,0.2,0.25,35.0,1,1.0,0.2744000000000142
162,1,0.2,0.0,35.0,1,1.0,0.3472000000000435
163,1,0.2,0.125,35.0,1,1.0,0.24559999999996762
164,1,0.2,0.0625,-35.0,1,0.0,0.3383000000000038
165,1,0.2,0.0625,35.0,1,1.0,1.1154000000000224
166,1,0.2,1.0,-35.0,-1,1.0,0.49349999999992633
167,1,0.2,0.25,35.0,1,1.0,0.2624000000000706
168,1,0.2,0.0625,35.0,1,1.0,0.25920000000007803
169,1,0.2,0.0,-35.0,1,0.0,0.30999899999994796
170,1,0.2,0.125,35.0,1,1.0,0.2663000000000011
171,1,0.2,0.125,35.0,1,1.0,0.19770000000016807
172,1,0.2,0.25,35.0,1,1.0,0.2340990000000147
173,1,0.2,0.0625,35.0,1,1.0,0.3173990000000231
174,1,0.2,1.0,35.0,1,1.0,0.2456000000000813
175,1,0.2,0.25,35.0,1,1.0,0.3765000000000782
176,1,0.2,0.125,35.0,1,1.0,0.25729999999998654
177,1,0.2,0.0625,35.0,1,1.0,0.3290999999999258
178,1,0.2,0.0625,35.0,1,1.0,0.18610000000001037
179,1,0.2,0.25,-35.0,-1,1.0,0.5144000000000233
180,1,0.2,0.0,35.0,1,1.0,0.34990000000004784
181,1,0.2,1.0,35.0,1,1.0,0.12910000000010768
182,1,0.2,0.0625,-35.0,-1,1.0,0.45669999999995525
183,1,0.2,0.125,35.0,1,1.0,0.28090000000008786
184,1,0.2,1.0,-35.0,-1,1.0,0.3936999999999671
185,1,0.2,1.0,35.0,1,1.0,0.251700000000028
186,1,0.2,1.0,35.0,1,1.0,0.2481999999999971
187,1,0.2,1.0,35.0,1,1.0,0.19209999999998217
188,1,0.2,0.0,35.0,1,1.0,0.2919999999999163
189,1,0.2,0.125,-35.0,-1,1.0,0.5855999999999995
190,1,0.2,0.0,-35.0,1,0.0,0.21680000000003474
191,1,0.2,0.0,35.0,1,1.0,0.2729990000000271
192,1,0.2,0.0625,35.0,1,1.0,0.16379999999992378
193,1,0.2,0.0,35.0,1,1.0,0.3023000000000593
194,1,0.2,0.0625,35.0,1,1.0,0.2901000000000522
195,1,0.2,1.0,35.0,1,1.0,0.21640000000002146
196,1,0.2,0.0625,35.0,1,1.0,0.26119999999991705
197,1,0.2,1.0,35.0,1,1.0,0.30529999999987467
198,1,0.2,0.0625,35.0,1,1.0,0.3242999999999938
199,1,0.2,1.0,35.0,1,1.0,0.2497000000000753
200,1,0.2,0.125,35.0,1,1.0,0.2278999999999769
201,1,0.2,0.25,35.0,1,1.0,0.2255999999999858
202,1,0.2,0.25,-35.0,1,0.0,0.2096000000000231
203,1,0.2,1.0,35.0,1,1.0,0.2543990000000349
204,1,0.2,0.0,-35.0,1,0.0,0.28769999999997253
205,1,0.2,1.0,35.0,1,1.0,0.23110000000008313
206,1,0.2,0.125,35.0,1,1.0,0.3567000000000462
207,1,0.2,0.25,35.0,1,1.0,0.28319999999996526
208,1,0.2,0.125,35.0,1,1.0,0.2899999999999636
209,1,0.2,0.25,35.0,1,1.0,0.22939999999994143
210,1,0.2,0.0625,35.0,1,1.0,0.2904999999999518
211,1,0.2,0.0625,35.0,1,1.0,0.3509000000000242
212,1,0.2,0.0,35.0,1,1.0,0.2607989999999063
213,1,0.2,0.0,-35.0,1,0.0,0.1712999999999738
214,1,0.2,0.0,35.0,1,1.0,0.1831000000000813
215,1,0.2,0.125,35.0,1,1.0,0.2156999999999698
216,1,0.8,0.25,-35.0,1,0.0,0.1936000000000604
217,1,0.8,0.125,-35.0,-1,1.0,0.40420000000005984
218,1,0.8,0.125,-35.0,-1,1.0,0.4046000000000731
219,1,0.8,0.0625,-35.0,1,0.0,0.3106000000000222
220,1,0.8,0.0625,35.0,1,1.0,0.26900000000000546
221,1,0.8,0.0,35.0,1,1.0,2.490599999999972
222,1,0.8,0.0625,-35.0,1,0.0,0.09859900000003563
223,1,0.8,0.0625,-35.0,-1,1.0,0.4749989999999116
224,1,0.8,0.125,-35.0,-1,1.0,0.3409000000000333
225,1,0.8,1.0,-35.0,-1,1.0,0.4150999999999385
226,1,0.8,0.125,-35.0,-1,1.0,0.25880000000006476
227,1,0.8,0.0,-35.0,1,0.0,0.3505000000000109
228,1,0.8,1.0,35.0,1,1.0,0.2075999999999567
229,1,0.8,1.0,-35.0,-1,1.0,0.26710000000002765
230,1,0.8,0.125,-35.0,-1,1.0,0.303498999999988
231,1,0.8,0.125,-35.0,-1,1.0,0.2986999999999398
232,1,0.8,0.0625,-35.0,1,0.0,0.11779999999998836
233,1,0.8,0.25,35.0,1,1.0,0.1852000000000089
234,1,0.8,0.125,-35.0,-1,1.0,0.276299999999992
235,1,0.8,0.125,-35.0,-1,1.0,0.38170000000002346
236,1,0.8,0.0,-35.0,1,0.0,0.26909999999998035
237,1,0.8,0.125,-35.0,-1,1.0,0.3082999999999174
238,1,0.8,0.125,35.0,1,1.0,0.2400000000000091
239,1,0.8,0.0625,-35.0,-1,1.0,0.43640000000004875
240,1,0.8,0.25,-35.0,-1,1.0,0.17830000000003565
241,1,0.8,0.0625,-35.0,-1,1.0,0.3406999999999698
242,1,0.8,0.125,-35.0,-1,1.0,0.36590000000012424
243,1,0.8,1.0,-35.0,-1,1.0,0.5096000000000913
244,1,0.8,0.25,-35.0,-1,1.0,0.40440000000000964
245,1,0.8,0.0625,-35.0,-1,1.0,0.5802989999999681
246,1,0.8,0.25,-35.0,-1,1.0,0.39190000000007785
247,1,0.8,0.25,35.0,1,1.0,0.45240000000012515
248,1,0.8,1.0,-35.0,-1,1.0,0.32650000000001
249,1,0.8,1.0,35.0,1,1.0,0.25940000000002783
250,1,0.8,0.0625,-35.0,-1,1.0,1.856200000000058
251,1,0.8,0.0,-35.0,-1,1.0,0.4094000000000051
252,1,0.8,0.0625,-35.0,-1,1.0,0.5621999999999616
253,1,0.8,0.125,-35.0,-1,1.0,0.3605000000000018
254,1,0.8,0.0,-35.0,1,0.0,2.913099999999986
255,1,0.8,0.0,-35.0,-1,1.0,0.4216999999999871
256,1,0.8,0.0625,-35.0,-1,1.0,0.7117999999999256
257,1,0.8,1.0,35.0,1,1.0,0.2744000000000142
258,1,0.8,0.0,-35.0,1,0.0,0.3832000000001017
259,1,0.8,0.25,-35.0,-1,1.0,0.33569999999997435
260,1,0.8,1.0,35.0,1,1.0,0.2799000000001115
261,1,0.8,0.25,-35.0,-1,1.0,0.3226989999999432
262,1,0.8,0.0,-35.0,-1,1.0,3.2712000000000216
263,1,0.8,0.0,-35.0,1,0.0,1.0534000000000106
264,1,0.8,0.0,-35.0,1,0.0,0.183400000000006
265,1,0.8,1.0,-35.0,-1,1.0,0.2682000000000926
266,1,0.8,1.0,-35.0,-1,1.0,0.2583000000000766
267,1,0.8,1.0,-35.0,-1,1.0,0.3291999999999007
268,1,0.2,0.25,35.0,-1,0.0,1.1591999999999416
269,1,0.2,0.125,35.0,1,1.0,0.348700000000008
270,1,0.2,0.25,35.0,1,1.0,0.2696000000000822
271,1,0.2,0.0,-35.0,-1,1.0,0.9797999999999547
272,1,0.2,1.0,35.0,1,1.0,0.28499999999996817
273,1,0.2,1.0,35.0,1,1.0,0.22199999999998
274,1,0.2,1.0,35.0,1,1.0,0.2502000000000635
275,1,0.2,0.0625,-35.0,-1,1.0,3.2586000000000013
276,1,0.2,0.0625,35.0,-1,0.0,1.95150000000001
277,1,0.2,0.25,35.0,-1,0.0,1.0276989999999842
278,1,0.2,0.0,35.0,1,1.0,1.9266000000000076
279,1,0.2,0.25,35.0,1,1.0,0.24530000000004293
280,1,0.2,0.25,35.0,1,1.0,0.3161000000000058
281,1,0.2,1.0,35.0,1,1.0,0.2617999999999938
282,1,0.2,1.0,-35.0,-1,1.0,1.8887999999999465
283,1,0.2,0.0625,35.0,1,1.0,0.6363999999999805
284,1,0.2,0.125,35.0,1,1.0,0.7823989999999412
285,1,0.2,0.0,35.0,-1,0.0,2.529700000000048
286,1,0.2,1.0,35.0,1,1.0,0.3227999999999156
287,1,0.2,0.25,35.0,1,1.0,0.34979999999995925
288,1,0.2,0.0625,35.0,1,1.0,0.3962999999996555
289,1,0.2,1.0,-35.0,-1,1.0,0.3532999999999902
290,1,0.2,0.25,35.0,1,1.0,0.28939999999988686
291,1,0.2,0.25,35.0,1,1.0,0.3068000000000666
292,1,0.2,0.0625,35.0,1,1.0,0.5430999999996402
293,1,0.2,0.25,35.0,1,1.0,0.28359999999997854
294,1,0.2,0.0,-35.0,1,0.0,0.28969999999981155
295,1,0.2,0.0625,35.0,1,1.0,0.28379900000004454
296,1,0.2,0.25,35.0,1,1.0,0.09010000000012042
297,1,0.2,0.0,-35.0,1,0.0,0.350400000000036
298,1,0.2,0.0,35.0,-1,0.0,0.19329999999968095
299,1,0.2,0.25,-35.0,-1,1.0,0.28729999999995925
300,1,0.2,1.0,35.0,1,1.0,0.25349999999980355
301,1,0.2,0.125,35.0,1,1.0,0.29409899999973277
302,1,0.2,0.0,35.0,1,1.0,0.31359999999995125
303,1,0.2,0.0,35.0,1,1.0,0.2808999999997468
304,1,0.2,0.0,35.0,1,1.0,0.37039999999979045
305,1,0.8,0.25,-35.0,-1,1.0,0.24759999999992033
306,1,0.8,0.0625,-35.0,-1,1.0,0.27369999999973516
307,1,0.8,0.25,-35.0,-1,1.0,0.23779899999999543
308,1,0.8,0.25,-35.0,-1,1.0,0.32399999999984175
309,1,0.8,0.125,-35.0,-1,1.0,0.32789999999999964
310,1,0.8,0.0625,35.0,-1,0.0,0.38419999999996435
311,1,0.8,0.0,-35.0,1,0.0,0.2546990000000733
312,1,0.8,0.125,-35.0,-1,1.0,0.28739999999993415
313,1,0.8,1.0,35.0,1,1.0,0.28500000000008185
314,1,0.8,1.0,-35.0,-1,1.0,0.23440000000005057
315,1,0.8,0.25,-35.0,-1,1.0,0.34829999999988104
316,1,0.8,0.125,-35.0,-1,1.0,0.4276999999997315
317,1,0.8,1.0,-35.0,-1,1.0,0.2582999999999629
318,1,0.8,0.125,-35.0,-1,1.0,0.36459999999988213
319,1,0.8,0.25,-35.0,-1,1.0,0.38850000000002183
320,1,0.8,0.25,-35.0,-1,1.0,0.29789999999979955
321,1,0.8,1.0,-35.0,-1,1.0,0.30520000000001346
322,1,0.8,0.0625,35.0,1,1.0,0.33150000000000546
323,1,0.8,0.25,-35.0,-1,1.0,0.27549999999996544
324,1,0.8,0.125,-35.0,1,0.0,0.11479999999983193
325,1,0.8,0.125,-35.0,-1,1.0,0.4190000000000964
326,1,0.8,0.125,35.0,1,1.0,0.37859899999989466
327,1,0.8,0.25,-35.0,-1,1.0,0.4256000000000313
328,1,0.2,0.25,35.0,1,1.0,0.24859999999989668
329,1,0.2,0.0625,-35.0,1,0.0,0.32910000000015316
330,1,0.2,0.0625,35.0,1,1.0,0.23900000000003274
331,1,0.2,0.0625,-35.0,-1,1.0,0.21259999999983847
332,1,0.2,0.125,35.0,1,1.0,0.24549999999999272
333,1,0.2,0.0,35.0,-1,0.0,0.31940000000008695
334,1,0.2,0.25,35.0,1,1.0,0.36909899999977824
335,1,0.2,0.25,35.0,1,1.0,0.27290000000016335
336,1,0.2,0.0,-35.0,1,0.0,0.34229999999979555
337,1,0.2,0.0625,35.0,1,1.0,0.31320000000005166
338,1,0.2,0.0625,-35.0,-1,1.0,0.34249899999986155
339,1,0.2,0.0,-35.0,1,0.0,0.3031999999998334
340,1,0.2,0.0625,35.0,-1,0.0,0.11599999999998545
341,1,0.2,1.0,-35.0,-1,1.0,0.3466999999998279
342,1,0.2,0.0625,-35.0,1,0.0,0.21279999999978827
343,1,0.2,1.0,35.0,1,1.0,0.2266999999997097
344,1,0.2,0.0,35.0,1,1.0,0.27299999999991087
345,1,0.2,0.25,-35.0,-1,1.0,0.32359999999994216
346,1,0.2,0.25,35.0,-1,0.0,0.12309999999979482
347,1,0.2,0.125,35.0,1,1.0,0.2002999999997428
348,1,0.2,1.0,35.0,1,1.0,0.2965999999998985
349,1,0.2,0.0625,35.0,1,1.0,2.9073000000000775
350,1,0.2,0.125,35.0,1,1.0,0.2604999999998654
351,1,0.2,1.0,35.0,1,1.0,0.2740999999998621
352,1,0.2,0.25,35.0,1,1.0,0.25690000000008695
353,1,0.2,0.0,35.0,1,1.0,0.23420000000010077
354,1,0.2,0.0,-35.0,-1,1.0,1.6135999999999058
355,1,0.2,0.125,35.0,1,1.0,0.24089900000012676
356,1,0.2,0.25,-35.0,1,0.0,0.3273999999998978
357,1,0.2,0.0,-35.0,1,0.0,0.23460000000000036
358,1,0.2,0.125,35.0,1,1.0,0.23099999999999454
359,1,0.2,0.0,35.0,1,1.0,0.1612999999999829
360,1,0.2,0.0,35.0,1,1.0,0.340699000000086
361,1,0.2,0.0,35.0,1,1.0,0.34799999999995634
362,1,0.2,0.0625,-35.0,-1,1.0,0.46749999999974534
363,1,0.2,0.25,-35.0,-1,1.0,0.6349999999999909
364,1,0.2,0.0625,35.0,1,1.0,0.3576999999997952
365,1,0.2,1.0,35.0,1,1.0,0.2583999999997104
366,1,0.2,0.0625,35.0,1,1.0,0.3110990000000129
367,1,0.2,1.0,35.0,1,1.0,0.24849999999992178
368,1,0.2,0.0625,35.0,1,1.0,0.3080999999999676
369,1,0.2,0.25,35.0,1,1.0,0.25860000000011496
370,1,0.2,0.25,35.0,1,1.0,0.3648000000000593
371,1,0.2,0.25,35.0,1,1.0,0.28209899999978916
372,1,0.2,1.0,35.0,1,1.0,0.22149999999965075
373,1,0.2,0.125,35.0,1,1.0,0.30209999999988213
374,1,0.2,0.0,35.0,1,1.0,0.14819999999986067
375,1,0.2,0.25,35.0,1,1.0,0.16879999999969186
376,1,0.2,0.125,35.0,1,1.0,0.23179999999979373
377,1,0.2,0.0,35.0,1,1.0,0.2955999999996948
378,1,0.2,0.0625,35.0,1,1.0,0.25530000000003383
379,1,0.2,0.0,35.0,1,1.0,0.49909999999977117
380,1,0.2,0.25,35.0,1,1.0,0.2153000000000702
381,1,0.2,0.0,-35.0,1,0.0,0.19259999999985666
382,1,0.2,0.25,-35.0,1,0.0,0.2621999999998934
383,1,0.2,0.0,-35.0,1,0.0,0.20269999999982247
384,1,0.2,0.0,35.0,1,1.0,0.08899999999994179
385,1,0.2,0.125,35.0,1,1.0,0.28629999999975553
386,1,0.2,1.0,-35.0,-1,1.0,0.5225989999999001
387,1,0.2,0.125,35.0,1,1.0,0.31639899999981935
388,1,0.2,0.0625,-35.0,1,0.0,0.3157989999997426
389,1,0.2,0.0625,35.0,1,1.0,0.24979899999993904
390,1,0.2,0.0,35.0,1,1.0,0.3393999999998414
391,1,0.2,0.25,35.0,1,1.0,0.2666999999999007
392,1,0.2,0.0,35.0,1,1.0,0.276299999999992
393,1,0.2,1.0,35.0,1,1.0,0.2800999999999476
394,1,0.2,0.0625,35.0,1,1.0,0.24969999999984793
395,1,0.2,0.25,35.0,1,1.0,0.22029999999995198
396,1,0.2,0.0625,35.0,1,1.0,0.2763999999999669
397,1,0.2,0.0625,35.0,1,1.0,0.2637999999999465
398,1,0.2,0.125,-35.0,-1,1.0,0.3998999999998887
399,1,0.2,0.0625,35.0,1,1.0,0.2738999999999123
400,1,0.2,0.0,-35.0,1,0.0,0.09349999999994907
401,1,0.2,0.0625,35.0,1,1.0,0.29399999999986903
402,1,0.2,0.125,35.0,1,1.0,0.366800000000012
403,1,0.2,0.0,35.0,1,1.0,0.31739999999990687
404,1,0.2,1.0,-35.0,1,0.0,0.20049999999991996
405,1,0.2,0.0,35.0,1,1.0,0.27749999999991815
406,1,0.2,1.0,-35.0,1,0.0,0.25710000000003674
407,1,0.2,1.0,35.0,1,1.0,0.2710999999997057
408,1,0.2,0.125,-35.0,1,0.0,0.24080000000003565
409,1,0.2,0.0,-35.0,1,0.0,0.8479999999999563
410,1,0.2,0.0625,-35.0,-1,1.0,0.5206999999998061
411,1,0.2,1.0,35.0,1,1.0,0.20129900000006273
412,1,0.2,0.0,-35.0,1,0.0,0.4176989999998568
413,1,0.2,0.0625,-35.0,1,0.0,0.22489999999970678
414,1,0.2,0.0,35.0,1,1.0,0.09459899999978916
415,1,0.8,1.0,-35.0,1,0.0,0.2750999999998385
416,1,0.8,0.0,-35.0,-1,1.0,0.3777999999997519
417,1,0.8,0.0625,35.0,1,1.0,0.2984999999998763
418,1,0.8,0.0,35.0,1,1.0,0.39479999999980464
419,1,0.8,0.25,-35.0,-1,1.0,0.58199999999988
420,1,0.8,0.0,-35.0,1,0.0,0.3148999999998523
421,1,0.8,0.0625,-35.0,1,0.0,0.08880099999987578
422,1,0.8,0.0625,-35.0,-1,1.0,0.5850000000000364
423,1,0.8,0.0,35.0,1,1.0,0.2756009999998241
424,1,0.8,0.25,-35.0,-1,1.0,0.39170099999978447
425,1,0.8,0.125,-35.0,-1,1.0,0.4558009999998376
426,1,0.8,0.0,-35.0,-1,1.0,0.4155009999997219
427,1,0.8,0.0625,-35.0,1,0.0,0.12930099999994127
428,1,0.8,0.0,35.0,1,1.0,0.29900100000008933
429,1,0.8,0.0625,-35.0,-1,1.0,0.3426999999999225
430,1,0.8,0.25,-35.0,-1,1.0,0.3290009999998347
431,1,0.8,0.25,-35.0,-1,1.0,0.4294009999998707
432,1,0.8,0.125,-35.0,1,0.0,0.25250099999993836
433,1,0.8,0.125,35.0,1,1.0,0.31300000000010186
434,1,0.8,1.0,35.0,1,1.0,0.21950100000003658
435,1,0.8,0.25,-35.0,-1,1.0,0.35320099999989907
436,1,0.8,0.25,35.0,1,1.0,0.279500999999982
437,1,0.8,0.0625,-35.0,-1,1.0,0.47010099999988597
438,1,0.8,0.25,-35.0,1,0.0,0.1996009999998023
439,1,0.8,0.25,-35.0,-1,1.0,0.3568009999999049
440,1,0.8,0.0,-35.0,1,0.0,1.6796999999999116
441,1,0.8,0.0625,-35.0,-1,1.0,0.3570009999998547
442,1,0.8,0.0625,-35.0,-1,1.0,0.3666009999997186
443,1,0.8,0.0625,-35.0,1,0.0,0.21700099999975464
444,1,0.8,0.25,-35.0,-1,1.0,0.3466009999997368
445,1,0.8,1.0,-35.0,-1,1.0,0.39380099999993945
446,1,0.8,1.0,-35.0,-1,1.0,0.29690099999993436
447,1,0.8,1.0,-35.0,1,0.0,0.2474010000000817
448,1,0.8,1.0,-35.0,-1,1.0,0.2635009999999056
449,1,0.8,0.0,-35.0,1,0.0,0.27080000000000837
450,1,0.8,0.0,-35.0,-1,1.0,0.4072009999999864
451,1,0.8,1.0,-35.0,-1,1.0,0.401100999999926
452,1,0.8,0.0,-35.0,1,0.0,0.2739009999997961
453,1,0.2,0.25,35.0,1,1.0,0.24110099999984413
454,1,0.2,1.0,35.0,1,1.0,0.2541009999999915
455,1,0.2,1.0,35.0,1,1.0,0.26130099999977574
456,1,0.2,0.0,35.0,1,1.0,0.23090099999990343
457,1,0.2,0.0,35.0,1,1.0,0.27470100000005004
458,1,0.2,0.0625,35.0,1,1.0,0.29750099999978374
459,1,0.2,0.0625,35.0,1,1.0,0.2215009999999893
460,1,0.2,0.25,35.0,1,1.0,0.2677009999997608
461,1,0.2,0.0625,35.0,1,1.0,0.3784009999999398
462,1,0.2,0.25,-35.0,-1,1.0,0.33120099999996455
463,1,0.2,0.25,35.0,1,1.0,0.21170099999994818
464,1,0.2,1.0,-35.0,1,0.0,0.18800100000021303
465,1,0.2,0.0625,-35.0,-1,1.0,0.7985009999999875
466,1,0.2,1.0,35.0,1,1.0,0.8548009999997248
467,1,0.2,0.0,-35.0,1,0.0,0.2920010000000275
468,1,0.2,0.0625,-35.0,1,0.0,0.27520099999992453
469,1,0.2,0.0625,35.0,1,1.0,0.2822009999999864
470,1,0.2,0.25,35.0,1,1.0,0.14190099999996164
471,1,0.2,0.0625,35.0,1,1.0,0.3724010000000817
472,1,0.2,0.25,35.0,1,1.0,0.22869999999988977
473,1,0.2,0.0625,35.0,1,1.0,0.21260000000006585
474,1,0.2,1.0,35.0,1,1.0,0.1653999999998632
475,1,0.2,0.0625,-35.0,-1,1.0,0.7492000000002008
476,1,0.2,0.0,-35.0,-1,1.0,0.6421000000000276
477,1,0.2,0.25,35.0,1,1.0,0.24270099999989725
478,1,0.2,0.0625,35.0,1,1.0,0.28560099999981503
479,1,0.2,1.0,35.0,1,1.0,0.21620099999995546
480,1,0.2,0.0,35.0,1,1.0,0.2258009999998194
481,1,0.2,0.125,35.0,1,1.0,0.20960100000002058
482,1,0.2,1.0,35.0,1,1.0,0.2595010000000002
483,1,0.2,0.0625,-35.0,-1,1.0,0.7198009999999613
484,1,0.2,0.25,-35.0,1,0.0,0.30280100000004495
485,1,0.2,0.125,35.0,1,1.0,0.30660100000000057
486,1,0.2,1.0,35.0,1,1.0,0.2597009999997226
487,1,0.2,0.0625,35.0,1,1.0,0.22340099999973972
488,1,0.2,1.0,35.0,1,1.0,0.24960099999975682
489,1,0.2,0.0625,35.0,1,1.0,0.24680100000000493
490,1,0.2,0.125,-35.0,-1,1.0,0.41000099999996564
491,1,0.2,0.125,35.0,1,1.0,0.34370100000001
492,1,0.2,0.25,35.0,1,1.0,0.2233009999999922
493,1,0.2,0.0625,-35.0,1,0.0,0.35380099999997583
494,1,0.2,1.0,35.0,1,1.0,0.12339999999994689
495,1,0.8,0.25,-35.0,1,0.0,0.393900999999687
496,1,0.8,0.125,-35.0,-1,1.0,0.5034009999997124
497,1,0.8,0.25,-35.0,-1,1.0,0.4074009999997088
498,1,0.8,0.0,-35.0,1,0.0,0.18690099999980703
499,1,0.8,0.25,35.0,1,1.0,0.32750000000010004
500,1,0.8,0.0625,35.0,1,1.0,0.32720099999983177
501,1,0.8,1.0,-35.0,-1,1.0,0.36110099999996237
502,1,0.8,0.0625,-35.0,-1,1.0,0.3972009999999955
503,1,0.8,0.25,-35.0,-1,1.0,0.48110099999985323
504,1,0.8,1.0,35.0,1,1.0,0.26070000000004256
505,1,0.8,1.0,-35.0,-1,1.0,0.5781009999998332
506,1,0.8,0.125,-35.0,1,0.0,0.297600999999986
507,1,0.8,0.25,-35.0,-1,1.0,0.3750009999998838
508,1,0.8,0.0625,-35.0,1,0.0,0.3245009999998274
509,1,0.8,0.0,-35.0,1,0.0,0.15170100000000275
510,1,0.8,0.125,35.0,1,1.0,0.3846009999999751
511,1,0.8,0.0,35.0,1,1.0,0.33500099999992017
512,1,0.8,0.0625,35.0,1,1.0,0.24470100000007733
513,1,0.8,0.0625,-35.0,1,0.0,0.39190099999973427
514,1,0.8,0.25,-35.0,-1,1.0,0.37140100000010534
515,1,0.8,0.25,-35.0,-1,1.0,0.2720009999998183
516,1,0.8,1.0,-35.0,-1,1.0,0.33500099999992017
517,1,0.8,0.0625,-35.0,-1,1.0,0.33540099999981976
518,1,0.2,0.125,-35.0,-1,1.0,0.4349010000000817
519,1,0.2,0.0,35.0,1,1.0,0.18550099999993108
520,1,0.2,0.125,35.0,-1,0.0,0.37180099999977756
521,1,0.2,1.0,35.0,1,1.0,0.2692010000000664
522,1,0.2,0.25,35.0,1,1.0,0.351900999999998
523,1,0.2,0.0,35.0,1,1.0,0.5924999999999727
524,1,0.2,0.0625,35.0,1,1.0,0.24210100000004786
525,1,0.2,0.0625,35.0,1,1.0,0.4193000000000211
526,1,0.2,0.25,35.0,1,1.0,0.2821009999997841
527,1,0.2,1.0,35.0,1,1.0,0.2694010000000162
528,1,0.2,1.0,35.0,1,1.0,0.27920099999982995
529,1,0.2,0.25,35.0,1,1.0,0.3428009999997812
530,1,0.2,1.0,35.0,1,1.0,0.2860009999997146
531,1,0.2,0.25,35.0,1,1.0,0.2564009999998689
532,1,0.2,0.25,-35.0,-1,1.0,0.4794009999998252
533,1,0.2,0.125,35.0,1,1.0,0.2599009999998998
534,1,0.2,0.0,35.0,1,1.0,0.24940099999980703
535,1,0.2,1.0,35.0,1,1.0,0.26650100000006205
536,1,0.2,0.125,-35.0,1,0.0,0.36960099999987506
537,1,0.2,1.0,35.0,1,1.0,0.3267009999997299
538,1,0.2,0.0,35.0,1,1.0,0.4231009999998605
539,1,0.2,0.0,35.0,1,1.0,0.1636009999997441
540,1,0.2,0.0,35.0,1,1.0,0.2298009999997248
541,1,0.2,0.125,35.0,1,1.0,0.2903009999997721
542,1,0.2,0.125,35.0,1,1.0,0.22360099999968952
543,1,0.2,1.0,35.0,1,1.0,0.29720099999985905
544,1,0.2,0.25,35.0,1,1.0,0.2600009999998747
545,1,0.2,0.0,35.0,-1,0.0,0.5806009999998878
546,1,0.2,0.0625,35.0,1,1.0,0.23030099999982667
547,1,0.2,0.25,-35.0,-1,1.0,0.48080099999992854
548,1,0.2,0.25,35.0,1,1.0,0.18370099999992817
549,1,0.2,0.0,35.0,1,1.0,0.20750099999963822
550,1,0.8,0.25,-35.0,-1,1.0,0.45709999999985484
551,1,0.8,0.125,-35.0,-1,1.0,0.43090099999972153
552,1,0.8,0.0,-35.0,1,0.0,0.3074010000000271
553,1,0.8,0.0625,35.0,1,1.0,0.21440099999995255
554,1,0.8,0.25,35.0,1,1.0,0.25420099999996637
555,1,0.8,0.25,-35.0,-1,1.0,0.41800100000000384
556,1,0.8,0.0,-35.0,1,0.0,0.3410009999997783
557,1,0.8,0.0625,-35.0,1,0.0,0.2681009999998878
558,1,0.8,0.25,-35.0,-1,1.0,0.297800000000052
559,1,0.8,0.25,-35.0,-1,1.0,0.4450009999998201
560,1,0.8,1.0,-35.0,-1,1.0,0.25130099999978484
561,1,0.8,0.25,35.0,1,1.0,0.2785009999997783
562,1,0.8,0.0,35.0,-1,0.0,0.5113009999997757
563,1,0.8,0.0,-35.0,-1,1.0,0.4456009999998969
564,1,0.8,0.25,-35.0,-1,1.0,0.35140099999989616
565,1,0.8,0.0,35.0,1,1.0,0.4387010000000373
566,1,0.8,0.0,-35.0,1,0.0,0.3517010000000482
567,1,0.8,0.125,-35.0,-1,1.0,0.508900000000267
568,1,0.8,0.0625,-35.0,-1,1.0,0.3920010000001639
569,1,0.8,0.0625,-35.0,-1,1.0,0.2990010000003167
570,1,0.8,1.0,35.0,1,1.0,0.22850100000050588
571,1,0.8,1.0,-35.0,-1,1.0,0.4125010000002476
572,1,0.8,1.0,-35.0,-1,1.0,0.3289010000003145
573,1,0.8,0.0625,-35.0,-1,1.0,0.3526010000005044
574,1,0.8,0.0,35.0,1,1.0,0.3354010000002745
575,1,0.8,0.125,-35.0,1,0.0,0.2860000000000582
576,1,0.8,0.0625,-35.0,-1,1.0,0.3590009999998074
577,1,0.8,0.125,-35.0,-1,1.0,0.9696009999997841
578,1,0.8,0.25,-35.0,-1,1.0,0.3291009999998096
579,1,0.8,0.25,35.0,1,1.0,0.19310100000029706
580,1,0.8,0.0625,-35.0,1,0.0,0.26950099999976374
581,1,0.8,0.0625,-35.0,-1,1.0,0.4299010000004273
582,1,0.8,0.0,35.0,-1,0.0,0.20620099999996455
583,1,0.8,0.25,35.0,1,1.0,0.3667009999999209
584,1,0.8,0.0,35.0,-1,0.0,0.5628010000004906
585,1,0.8,0.0,-35.0,1,0.0,4.543601000000308
586,1,0.8,0.125,35.0,1,1.0,0.3031010000004244
587,1,0.8,0.125,-35.0,1,0.0,0.3271000000004278
588,1,0.8,0.0625,35.0,1,1.0,0.21310100000027887
589,1,0.8,0.125,-35.0,1,0.0,0.2573010000000977
590,1,0.8,0.125,-35.0,-1,1.0,0.3900010000002112
591,1,0.8,0.125,35.0,1,1.0,0.2609010000001035
592,1,0.8,1.0,35.0,1,1.0,0.32689999999956854
593,1,0.8,0.0625,35.0,1,1.0,0.30420100000037564
594,1,0.8,0.0,-35.0,1,0.0,0.3635010000002694
595,1,0.8,0.0,-35.0,1,0.0,0.15120100000012826
596,1,0.8,0.25,-35.0,-1,1.0,0.4204010000003109
597,1,0.8,0.0625,-35.0,1,0.0,0.23790100000042003
598,1,0.8,0.25,-35.0,1,0.0,0.2771000000002459
599,1,0.2,0.125,-35.0,-1,1.0,0.3580010000000584
600,1,0.2,1.0,35.0,1,1.0,0.42730100000017046
601,1,0.2,0.25,-35.0,-1,1.0,0.5181000000002314
602,1,0.2,0.25,35.0,1,1.0,0.2275009999998474
603,1,0.2,1.0,35.0,1,1.0,0.3115010000001348
604,1,0.2,0.0625,35.0,1,1.0,0.27420100000017555
605,1,0.2,0.0,35.0,1,1.0,0.33510000000023865
606,1,0.2,0.125,35.0,1,1.0,0.33770099999992453
607,1,0.2,1.0,-35.0,-1,1.0,0.7086010000002716
608,1,0.2,0.0,35.0,1,1.0,0.36450099999956365
609,1,0.2,1.0,-35.0,-1,1.0,0.7486009999997805
610,1,0.2,0.0625,35.0,1,1.0,3.0547010000004775
611,1,0.2,0.0625,35.0,-1,0.0,1.0788010000001123
612,1,0.2,0.0,35.0,1,1.0,0.28830100000004677
613,1,0.2,0.25,35.0,1,1.0,0.29240100000015445
614,1,0.2,0.25,35.0,1,1.0,0.32860100000016246
615,1,0.2,1.0,-35.0,-1,1.0,0.3059010000001763
616,1,0.2,0.0,35.0,1,1.0,0.7319010000001072
617,1,0.2,1.0,-35.0,-1,1.0,0.3326009999996131
618,1,0.2,0.0625,-35.0,1,0.0,0.39190099999996164
619,1,0.2,0.0,35.0,1,1.0,0.2727010000003247
620,1,0.2,1.0,35.0,1,1.0,0.3288009999996575
621,1,0.2,0.125,35.0,1,1.0,0.37620100000049206
622,1,0.2,0.125,35.0,1,1.0,0.3357010000004266
623,1,0.2,1.0,35.0,1,1.0,0.186301000000185
624,1,0.2,0.0,35.0,1,1.0,0.1257010000003902
625,1,0.2,0.25,35.0,1,1.0,0.21320100000048114
626,1,0.2,0.125,35.0,1,1.0,0.2226010000003953
627,1,0.2,0.125,35.0,1,1.0,0.35330100000010134
628,1,0.2,0.0,35.0,1,1.0,0.13260099999979502
629,1,0.2,0.0625,35.0,1,1.0,0.23680100000001403
630,1,0.2,0.0625,35.0,1,1.0,0.3764000000001033
631,1,0.2,0.0,35.0,1,1.0,0.3435010000002876
632,1,0.2,0.125,35.0,-1,0.0,1.0961010000000897
633,1,0.2,0.0625,35.0,1,1.0,0.5036010000003444
634,1,0.2,0.0,-35.0,1,0.0,0.326600999999755
635,1,0.2,1.0,35.0,1,1.0,0.21390100000007806
636,1,0.2,1.0,35.0,1,1.0,0.21650099999988015
637,1,0.2,1.0,-35.0,-1,1.0,0.39740100000017264
638,1,0.2,0.25,35.0,1,1.0,0.3132010000003902
639,1,0.2,0.0625,35.0,1,1.0,0.2908999999999651
640,1,0.2,0.0625,35.0,1,1.0,0.26030100000025413
641,1,0.8,1.0,-35.0,-1,1.0,0.4475000000002183
642,1,0.8,0.0,35.0,1,1.0,0.3368999999997868
643,1,0.8,1.0,-35.0,-1,1.0,0.35100099999999657
644,1,0.8,0.25,-35.0,-1,1.0,0.4701999999997497
645,1,0.8,0.0625,-35.0,-1,1.0,0.42119999999977153
646,1,0.8,0.25,-35.0,-1,1.0,0.5540009999999711
647,1,0.8,0.0,35.0,1,1.0,0.25470099999984086
648,1,0.8,0.125,-35.0,1,0.0,0.25080000000025393
649,1,0.8,0.25,35.0,1,1.0,0.30820100000028106
650,1,0.8,0.0,35.0,-1,0.0,0.6308010000002469
651,1,0.8,0.125,-35.0,-1,1.0,0.36160100000006423
652,1,0.8,0.0625,35.0,1,1.0,0.4712009999998372
653,1,0.8,0.25,-35.0,1,0.0,0.10850100000016027
654,1,0.8,0.125,-35.0,-1,1.0,0.37190099999997983
655,1,0.8,0.25,-35.0,-1,1.0,0.4414010000000417
656,1,0.8,0.0,-35.0,-1,1.0,0.9053000000003522
657,1,0.8,1.0,-35.0,-1,1.0,0.36480100000017046
658,1,0.8,0.125,-35.0,-1,1.0,0.6888010000002396
659,1,0.8,1.0,-35.0,-1,1.0,0.4115010000004986
660,1,0.8,0.0,35.0,1,1.0,3.6890010000001894
661,1,0.8,0.0,-35.0,1,0.0,0.28820100000029925
662,1,0.8,0.0,-35.0,1,0.0,0.23580100000026505
663,1,0.8,0.0625,-35.0,1,0.0,0.32860100000016246
664,1,0.8,0.0625,35.0,1,1.0,0.3161009999998896
665,1,0.8,0.0625,-35.0,1,0.0,0.38540100000000166
666,1,0.8,0.25,-35.0,-1,1.0,0.5029010000002927
667,1,0.8,1.0,35.0,1,1.0,0.3289009999998598
668,1,0.8,1.0,-35.0,-1,1.0,0.4529010000001108
669,1,0.8,0.0625,-35.0,-1,1.0,0.45230100000071616
670,1,0.8,0.0625,-35.0,-1,1.0,0.7098010000004251
671,1,0.8,1.0,35.0,1,1.0,0.25250099999993836
672,1,0.8,0.0625,35.0,1,1.0,0.33310100000016973
673,1,0.8,1.0,-35.0,-1,1.0,0.38930100000015955
674,1,0.8,1.0,-35.0,-1,1.0,0.41000099999973827
675,1,0.8,0.0,-35.0,1,0.0,0.40610100000003513
676,1,0.8,1.0,-35.0,-1,1.0,0.31340000000000146
677,1,0.2,0.125,35.0,-1,0.0,0.5730000000003201
678,1,0.2,0.0625,35.0,1,1.0,0.33690100000012535
679,1,0.2,0.0,35.0,-1,0.0,0.3896010000003116
680,1,0.2,0.0,-35.0,1,0.0,0.22710099999994782
681,1,0.2,0.0625,35.0,1,1.0,0.46980100000018865
682,1,0.2,0.125,-35.0,1,0.0,0.450601000000006
683,1,0.2,0.25,35.0,1,1.0,0.36680100000012317
684,1,0.2,0.25,-35.0,-1,1.0,0.6242010000000846
685,1,0.2,0.25,35.0,1,1.0,0.3067010000004302
686,1,0.2,0.125,35.0,1,1.0,0.29420100000015736
687,1,0.2,0.25,-35.0,-1,1.0,0.31040000000029977
688,1,0.2,1.0,-35.0,-1,1.0,0.44770100000005186
689,1,0.2,1.0,35.0,1,1.0,0.28400100000044404
690,1,0.2,0.0,35.0,-1,0.0,1.1880000000001019
691,1,0.2,0.125,35.0,1,1.0,0.38740099999995437
692,1,0.2,0.25,35.0,1,1.0,0.48800100000016755
693,1,0.2,1.0,35.0,1,1.0,0.48410100000000966
694,1,0.2,0.125,35.0,1,1.0,0.3382010000000264
695,1,0.2,1.0,35.0,1,1.0,0.34070100000008097
696,1,0.2,0.0,35.0,1,1.0,0.5351009999999405
697,1,0.2,0.125,35.0,1,1.0,0.49430100000017774
698,1,0.2,0.0625,35.0,1,1.0,0.2516009999999369
699,1,0.2,0.0625,-35.0,-1,1.0,0.8578000000002248
700,1,0.2,0.0,35.0,-1,0.0,1.0751009999999042
701,1,0.2,0.25,35.0,1,1.0,0.3378010000001268
702,1,0.2,1.0,-35.0,-1,1.0,0.35870100000011007
703,1,0.2,0.0,35.0,1,1.0,0.29790000000048167
704,1,0.2,0.25,35.0,1,1.0,0.3354010000002745
705,1,0.2,0.0625,35.0,1,1.0,0.3150010000003931
706,1,0.2,1.0,35.0,1,1.0,0.45570100000031744
707,1,0.2,0.25,35.0,1,1.0,0.6251010000000861
708,1,0.2,1.0,35.0,1,1.0,0.28250100000013845
709,1,0.2,1.0,35.0,1,1.0,0.3619010000002163
710,1,0.2,0.0625,35.0,1,1.0,0.3492000000005646
711,1,0.2,0.0,-35.0,1,0.0,0.3486000000002605
712,1,0.2,0.0625,35.0,1,1.0,0.36610099999961676
713,1,0.2,0.0625,35.0,1,1.0,0.342000999999982
714,1,0.2,0.0625,-35.0,1,0.0,1.7361009999999624
715,1,0.2,1.0,35.0,1,1.0,0.23900000000003274
716,1,0.2,1.0,35.0,1,1.0,0.2929010000002563
717,1,0.2,0.25,-35.0,-1,1.0,0.6356000000000677
718,1,0.2,1.0,35.0,1,1.0,0.37330100000008315
719,1,0.2,0.0625,35.0,1,1.0,0.27580100000022867
720,1,0.2,0.125,-35.0,-1,1.0,0.39330000000018117
721,1,0.2,0.125,35.0,1,1.0,0.15260100000023158
722,1,0.2,0.125,35.0,1,1.0,0.3334010000003218
723,1,0.2,1.0,35.0,1,1.0,0.37620100000049206
724,1,0.2,0.25,35.0,1,1.0,0.3535009999995964
725,1,0.2,0.25,-35.0,-1,1.0,0.5931009999999333
726,1,0.2,1.0,35.0,1,1.0,0.2802010000000337
727,1,0.2,0.0625,35.0,1,1.0,0.22650100000009843
728,1,0.2,1.0,35.0,1,1.0,0.2474010000000817
729,1,0.2,0.0,35.0,1,1.0,5.236501000000317
730,1,0.2,0.25,-35.0,-1,1.0,0.43410099999982776
731,1,0.2,0.25,35.0,1,1.0,0.2800010000000839
732,1,0.2,1.0,35.0,1,1.0,0.22750100000030216
733,1,0.2,0.0,35.0,1,1.0,0.30680100000017774
734,1,0.2,0.125,35.0,1,1.0,0.25090099999988524
735,1,0.2,0.125,-35.0,-1,1.0,0.5570010000001275
736,1,0.2,0.0,35.0,-1,0.0,0.6679010000002563
737,1,0.2,0.0625,35.0,1,1.0,0.1472009999997681
738,1,0.2,0.25,35.0,1,1.0,0.3613010000003669
739,1,0.2,0.25,35.0,1,1.0,0.2874010000000453
740,1,0.2,0.0,35.0,1,1.0,0.224601000000348
741,1,0.2,0.0,-35.0,1,0.0,0.18070100000022649
742,1,0.2,0.125,-35.0,-1,1.0,0.4447010000003502
743,1,0.2,0.0625,35.0,1,1.0,0.5374010000000453
744,1,0.2,0.25,35.0,1,1.0,0.34820099999978993
745,1,0.2,0.0,35.0,1,1.0,0.15440099999977974
746,1,0.2,0.125,35.0,1,1.0,0.23850099999981467
747,1,0.2,0.0625,35.0,1,1.0,0.331101000000217
748,1,0.2,0.0,35.0,-1,0.0,0.36180100000001403
749,1,0.2,0.25,35.0,1,1.0,0.3012000000003354
750,1,0.2,1.0,35.0,1,1.0,0.3320010000002185
751,1,0.2,0.125,-35.0,1,0.0,0.3214010000001508
752,1,0.2,0.0625,-35.0,-1,1.0,0.48210100000005696
753,1,0.2,0.125,-35.0,1,0.0,0.9282010000001719
754,1,0.2,1.0,35.0,1,1.0,0.23570100000006278
755,1,0.2,0.0625,-35.0,1,0.0,0.271701000000121
756,1,0.2,0.0,35.0,1,1.0,0.28270100000008824
757,1,0.2,1.0,35.0,1,1.0,0.27860099999998056
758,1,0.2,0.25,35.0,1,1.0,0.35270100000025195
759,1,0.2,0.0,-35.0,1,0.0,0.3886000000002241
760,1,0.2,0.0,35.0,1,1.0,0.21970100000044113
761,1,0.8,0.25,-35.0,-1,1.0,0.415400999999747
762,1,0.8,1.0,-35.0,-1,1.0,0.3063010000000759
763,1,0.8,0.0625,35.0,1,1.0,0.38560000000006767
764,1,0.8,0.0625,-35.0,1,0.0,0.2231010000000424
765,1,0.8,1.0,35.0,1,1.0,0.31590100000039456
766,1,0.8,0.0625,35.0,1,1.0,0.6098010000000613
767,1,0.8,0.0625,-35.0,-1,1.0,0.6126009999998132
768,1,0.8,0.0625,-35.0,-1,1.0,0.6001009999999951
769,1,0.8,0.25,-35.0,1,0.0,0.16609999999991487
770,1,0.8,0.0,-35.0,-1,1.0,0.4836009999999078
771,1,0.8,0.0,-35.0,-1,1.0,0.689701000000241
772,1,0.8,0.125,-35.0,-1,1.0,0.6037010000004557
773,1,0.8,1.0,-35.0,-1,1.0,0.3899010000004637
774,1,0.8,0.0625,-35.0,-1,1.0,0.5206010000001697
775,1,0.8,0.125,-35.0,-1,1.0,0.4265010000003713
776,1,0.8,1.0,-35.0,-1,1.0,0.4039010000001326
777,1,0.8,0.125,-35.0,-1,1.0,0.39330100000006496
778,1,0.8,0.0,35.0,1,1.0,0.427400999999918
779,1,0.8,0.125,-35.0,-1,1.0,0.30350099999986924
780,1,0.8,0.0625,35.0,-1,0.0,0.7042010000000118
781,1,0.8,0.125,-35.0,-1,1.0,0.28370100000029197
782,1,0.8,0.125,-35.0,-1,1.0,0.4743009999997412
783,1,0.8,0.0625,-35.0,-1,1.0,0.6572009999999864
784,1,0.8,0.125,-35.0,-1,1.0,0.4212010000005648
785,1,0.8,0.125,35.0,-1,0.0,0.6540009999998802
786,1,0.8,0.0,-35.0,-1,1.0,0.4148009999998976
787,1,0.8,0.0,-35.0,1,0.0,0.38750100000015664
788,1,0.8,0.125,-35.0,-1,1.0,0.5750010000006114
789,1,0.8,0.25,-35.0,-1,1.0,0.24090100000057646
790,1,0.8,0.0,-35.0,1,0.0,1.8250000000002728
791,1,0.8,0.0625,-35.0,-1,1.0,0.484501000000364
792,1,0.8,0.125,-35.0,-1,1.0,0.5320999999999003
793,1,0.8,0.0625,-35.0,-1,1.0,0.3479010000000926
794,1,0.8,0.0,-35.0,-1,1.0,0.3221010000002025
795,1,0.8,0.25,35.0,1,1.0,0.38180000000011205
796,1,0.8,0.25,-35.0,-1,1.0,0.5054010000003473
797,1,0.8,1.0,-35.0,-1,1.0,0.33830100000022867
798,1,0.8,0.0625,35.0,1,1.0,0.5423009999999522
799,1,0.8,0.0625,-35.0,-1,1.0,0.3118010000002869
800,1,0.8,1.0,-35.0,-1,1.0,0.402400000000398
801,1,0.8,1.0,-35.0,-1,1.0,0.43190099999992526
802,1,0.8,0.125,-35.0,-1,1.0,0.4859010000000126
803,1,0.8,0.0625,-35.0,-1,1.0,0.502100000000155
804,1,0.8,0.125,-35.0,-1,1.0,0.4960000000000946
805,1,0.8,0.0,-35.0,-1,1.0,1.4854010000003655
806,1,0.8,0.0625,-35.0,-1,1.0,0.5762010000003102
807,1,0.8,0.125,-35.0,-1,1.0,0.48210100000005696
808,1,0.8,0.0625,-35.0,-1,1.0,0.47970100000020466
809,1,0.8,0.0625,-35.0,-1,1.0,0.6157010000006267
810,1,0.8,0.25,-35.0,-1,1.0,0.5633010000001377
811,1,0.8,0.0625,-35.0,1,0.0,0.3559010000003582
812,1,0.8,0.0,-35.0,-1,1.0,0.3299010000000635
813,1,0.8,0.0,35.0,-1,0.0,0.8796010000000933
814,1,0.8,1.0,-35.0,-1,1.0,0.39350100000001476
815,1,0.8,0.0625,-35.0,-1,1.0,0.5828010000000177
816,1,0.8,0.125,-35.0,1,0.0,0.15360099999998056
817,1,0.2,1.0,35.0,1,1.0,0.28650100000004386
818,1,0.2,1.0,35.0,1,1.0,0.30700100000012753
819,1,0.2,0.25,35.0,1,1.0,0.39310100000011516
820,1,0.2,0.125,35.0,1,1.0,0.3872999999998683
821,1,0.2,1.0,35.0,1,1.0,0.45360100000016246
822,1,0.2,0.25,-35.0,-1,1.0,0.427501000000575
823,1,0.2,0.0625,35.0,-1,0.0,2.2400010000001203
824,1,0.2,0.25,-35.0,-1,1.0,0.37430099999983213
825,1,0.2,1.0,-35.0,-1,1.0,0.34040100000038365
826,1,0.2,0.0625,35.0,1,1.0,0.42430100000001403
827,1,0.2,0.25,35.0,1,1.0,0.3271010000003116
828,1,0.2,0.25,35.0,1,1.0,0.48780000000033397
829,1,0.2,0.0,35.0,1,1.0,0.3706010000000788
830,1,0.2,0.25,35.0,1,1.0,0.3778010000000904
831,1,0.2,0.125,35.0,1,1.0,0.3307009999998627
832,1,0.2,0.0625,35.0,1,1.0,1.5347010000004957
833,1,0.2,0.0,35.0,1,1.0,0.7074010000001181
834,1,0.2,1.0,35.0,1,1.0,0.3381010000002789
835,1,0.2,0.0,-35.0,1,0.0,0.4544010000004164
836,1,0.2,1.0,35.0,1,1.0,0.2783009999998285
837,1,0.2,0.0625,35.0,1,1.0,0.33460000000059154
838,1,0.2,0.0,35.0,1,1.0,0.43190100000038
839,1,0.2,1.0,35.0,1,1.0,0.25120000000060827
840,1,0.2,0.125,35.0,1,1.0,0.39200099999970917
841,1,0.2,1.0,35.0,1,1.0,0.30460100000027523
842,1,0.2,1.0,35.0,1,1.0,0.2721010000000206
843,1,0.2,0.125,35.0,1,1.0,0.29150099999969825
844,1,0.2,0.125,35.0,1,1.0,0.28570099999978993
845,1,0.2,0.0625,35.0,1,1.0,0.9183010000001559
846,1,0.2,0.0625,35.0,1,1.0,0.34910100000024613
847,1,0.2,1.0,35.0,1,1.0,0.3286010000006172
848,1,0.2,1.0,35.0,1,1.0,0.2626010000003589
849,1,0.2,0.125,-35.0,1,0.0,1.3786000000000058
850,1,0.2,1.0,35.0,1,1.0,0.3762000000001535
851,1,0.2,0.0625,35.0,1,1.0,10.775501000000077
852,1,0.2,0.0,35.0,-1,0.0,0.4690009999999347
853,1,0.2,0.125,35.0,-1,0.0,0.7592000000004191
854,1,0.2,0.25,-35.0,-1,1.0,0.4665010000003349
855,1,0.2,0.0625,35.0,1,1.0,5.422801000000163
856,1,0.2,1.0,35.0,1,1.0,0.36680100000012317
857,1,0.2,0.125,35.0,1,1.0,4.402801000000181
858,1,0.2,1.0,35.0,1,1.0,0.38040100000034727
859,1,0.2,0.0625,35.0,1,1.0,0.4364010000003873
860,1,0.2,0.25,-35.0,-1,1.0,1.0005009999999857
861,1,0.2,0.25,35.0,1,1.0,0.3366009999999733
862,1,0.2,0.125,35.0,1,1.0,1.8572010000002592
863,1,0.2,1.0,-35.0,-1,1.0,0.4368010000002869
864,1,0.2,1.0,35.0,1,1.0,0.43740100000013626
865,1,0.2,0.0,35.0,-1,0.0,1.0437010000000555
866,1,0.2,1.0,35.0,1,1.0,0.2676000000001295
867,1,0.2,0.125,35.0,1,1.0,0.9072009999999864
868,1,0.2,0.25,-35.0,-1,1.0,0.5678009999996902
869,1,0.2,0.0625,35.0,1,1.0,1.473801000000094
870,1,0.2,0.0625,35.0,1,1.0,1.8579010000003109
871,1,0.2,0.125,35.0,1,1.0,0.6609010000001945
872,1,0.2,0.125,35.0,1,1.0,8.50470099999984
873,1,0.2,0.0625,35.0,1,1.0,0.46090100000037637
874,1,0.2,0.125,35.0,1,1.0,0.9417010000001937
875,1,0.2,0.0,35.0,1,1.0,1.4745010000001457
876,1,0.2,0.125,35.0,1,1.0,0.441801000000396
877,1,0.2,0.0,35.0,1,1.0,3.9814010000000053
878,1,0.2,0.125,-35.0,-1,1.0,0.518601000000217
879,1,0.2,1.0,35.0,1,1.0,0.4748010000002978
880,1,0.2,0.0625,35.0,1,1.0,9.568800999999894
881,1,0.2,0.0625,35.0,1,1.0,2.9018009999999776
882,1,0.2,1.0,35.0,1,1.0,0.39270100000021557
883,1,0.2,0.0625,35.0,-1,0.0,10.788900999999896
884,1,0.2,1.0,35.0,1,1.0,0.38960099999985687
885,1,0.2,1.0,35.0,1,1.0,0.32570099999975355
886,1,0.2,0.0625,35.0,1,1.0,7.6664010000004055
887,1,0.2,0.0625,35.0,1,1.0,0.28270100000008824
888,1,0.2,0.25,35.0,1,1.0,0.3100009999998292
889,1,0.2,1.0,35.0,1,1.0,0.4693010000000868
890,1,0.2,1.0,35.0,1,1.0,0.2534009999999398
891,1,0.2,0.0,35.0,1,1.0,2.219701000000441
892,1,0.2,0.125,-35.0,-1,1.0,2.81360100000029
893,1,0.2,1.0,35.0,1,1.0,0.38980099999980666
894,1,0.2,0.125,35.0,1,1.0,1.653700999999728
895,1,0.2,0.0,35.0,1,1.0,3.8502010000001974
896,1,0.2,0.0,35.0,-1,0.0,7.054001000000426
897,1,0.2,0.25,35.0,1,1.0,0.28710099999989325
898,1,0.2,0.25,35.0,1,1.0,0.4676009999998314
899,1,0.2,0.125,35.0,1,1.0,2.243901000000278
900,1,0.2,1.0,35.0,1,1.0,0.26780100000041784
901,1,0.2,0.25,35.0,1,1.0,3.6273010000004433
902,1,0.2,0.125,35.0,1,1.0,6.181301000000076
903,1,0.2,0.125,-35.0,-1,1.0,10.417500999999902
904,1,0.8,0.0,-35.0,-1,1.0,9.338501000000178
905,1,0.8,0.0625,-35.0,-1,1.0,1.0548009999997703
906,1,0.8,0.0625,-35.0,-1,1.0,4.078801000000112
1,2,0.5,0.0625,-35.0,-1,1.0,0.44799999999999995
2,2,0.5,1.0,-35.0,-1,1.0,0.2683
3,2,0.5,0.125,35.0,1,1.0,0.23399999999999999
4,2,0.5,0.25,-35.0,-1,1.0,0.4070999999999998
5,2,0.5,0.0,35.0,-1,0.0,1.7551000000000023
6,2,0.5,0.0625,35.0,1,1.0,0.3545999999999978
7,2,0.5,0.0,35.0,1,1.0,0.3392000000000053
8,2,0.5,0.25,35.0,1,1.0,0.20539999999999736
9,2,0.5,0.0625,35.0,1,1.0,0.2324999999999946
10,2,0.5,1.0,35.0,1,1.0,0.36299999999999955
11,2,0.5,1.0,-35.0,-1,1.0,0.3481999999999985
12,2,0.5,0.0625,-35.0,1,0.0,0.23989999999999867
13,2,0.5,0.125,-35.0,-1,1.0,0.3481999999999985
14,2,0.5,0.0,35.0,1,1.0,0.2648989999999998
15,2,0.5,1.0,35.0,1,1.0,0.19899999999999807
16,2,0.5,0.25,-35.0,-1,1.0,0.5189000000000021
17,2,0.5,0.0,35.0,1,1.0,0.3015000000000043
18,2,0.5,0.0625,35.0,1,1.0,0.3177999999999912
19,2,0.5,0.0,-35.0,1,0.0,0.2937000000000012
20,2,0.5,0.25,-35.0,-1,1.0,0.3096000000000032
21,2,0.5,1.0,-35.0,-1,1.0,0.3252999999999986
22,2,0.5,1.0,-35.0,-1,1.0,0.24840000000000373
23,2,0.5,0.0,35.0,1,1.0,11.143799999999999
24,2,0.5,1.0,-35.0,-1,1.0,0.13570000000001414
25,2,0.5,0.0625,-35.0,-1,1.0,4.556899999999999
26,2,0.5,0.125,35.0,-1,0.0,0.41039999999999566
27,2,0.5,0.0,35.0,-1,0.0,0.31340000000001567
28,2,0.5,0.0,35.0,-1,0.0,6.76509999999999
29,2,0.5,0.125,-35.0,-1,1.0,0.2626000000000204
30,2,0.5,0.125,35.0,1,1.0,0.2950999999999908
31,2,0.5,0.0625,35.0,1,1.0,1.0172000000000025
32,2,0.5,1.0,35.0,1,1.0,0.2486989999999878
33,2,0.5,0.0625,-35.0,1,0.0,1.6148999999999774
34,2,0.5,0.125,35.0,1,1.0,0.2299000000000433
35,2,0.5,0.0625,-35.0,1,0.0,0.21809999999999263
36,2,0.5,0.0625,35.0,1,1.0,0.919700000000006
37,2,0.5,0.0,-35.0,1,0.0,2.5072000000000116
38,2,0.5,0.0,35.0,1,1.0,0.29049900000001116
39,2,0.5,0.125,35.0,1,1.0,0.2960000000000207
40,2,0.5,0.0625,-35.0,-1,1.0,0.3302999999999656
41,2,0.5,0.0625,-35.0,-1,1.0,0.9107999999999947
42,2,0.5,0.0,-35.0,-1,1.0,7.745799999999974
43,2,0.5,0.0625,35.0,1,1.0,0.20209999999997308
44,2,0.5,0.0625,35.0,1,1.0,0.2592999999999961
45,2,0.5,0.0625,-35.0,-1,1.0,0.6244000000000085
46,2,0.5,0.125,35.0,1,1.0,0.24579999999997426
47,2,0.5,0.0625,35.0,1,1.0,0.25370000000000914
48,2,0.5,0.0,35.0,-1,0.0,0.19619999999997617
49,2,0.5,0.25,35.0,1,1.0,0.26319999999998345
50,2,0.5,1.0,-35.0,-1,1.0,0.21300000000002228
51,2,0.5,0.0625,-35.0,1,0.0,3.696499999999986
52,2,0.5,1.0,35.0,1,1.0,0.21250000000000568
53,2,0.5,0.25,35.0,1,1.0,0.2190989999999715
54,2,0.5,0.25,35.0,1,1.0,0.24729999999999563
55,2,0.5,0.0,-35.0,-1,1.0,0.570999999999998
56,2,0.5,0.0,35.0,1,1.0,0.29599999999999227
57,2,0.5,0.0,-35.0,-1,1.0,0.3171999999999855
58,2,0.5,1.0,35.0,1,1.0,0.18739999999996826
59,2,0.5,0.0,35.0,-1,0.0,0.5558990000000108
60,2,0.5,0.0625,35.0,1,1.0,0.2781999999999982
61,2,0.5,0.0,-35.0,1,0.0,0.3941000000000088
62,2,0.5,0.0625,35.0,1,1.0,0.2844000000000051
63,2,0.5,0.125,-35.0,-1,1.0,0.3095000000000141
64,2,0.5,1.0,-35.0,-1,1.0,0.4998999999999967
65,2,0.5,0.25,-35.0,-1,1.0,0.33190000000001874
66,2,0.5,0.125,35.0,1,1.0,0.9340000000000259
67,2,0.5,1.0,-35.0,-1,1.0,0.37180000000000746
68,2,0.5,0.125,-35.0,-1,1.0,0.765700000000038
69,2,0.5,0.0,-35.0,-1,1.0,8.076700000000017
70,2,0.5,0.25,35.0,1,1.0,0.27760000000000673
71,2,0.5,0.125,35.0,1,1.0,0.3501000000000545
72,2,0.5,0.0625,35.0,1,1.0,0.21269900000004327
73,2,0.5,1.0,35.0,1,1.0,0.4884999999999877
74,2,0.5,0.125,-35.0,-1,1.0,0.5368990000000622
75,2,0.5,0.0625,-35.0,-1,1.0,1.186300000000017
76,2,0.5,0.25,35.0,1,1.0,0.40100000000001046
77,2,0.5,0.0,-35.0,-1,1.0,1.4671000000000163
78,2,0.5,0.0,35.0,-1,0.0,0.36580000000003565
79,2,0.5,1.0,-35.0,-1,1.0,0.47759999999999536
80,2,0.5,0.0625,-35.0,1,0.0,3.2557990000000814
81,2,0.5,0.125,-35.0,-1,1.0,0.39440000000001874
82,2,0.5,1.0,35.0,1,1.0,0.31340000000000146
83,2,0.5,0.0625,35.0,-1,0.0,2.391900000000078
84,2,0.5,0.0625,35.0,1,1.0,0.26049900000003845
85,2,0.5,0.0625,35.0,1,1.0,0.3187000000000353
86,2,0.5,1.0,-35.0,-1,1.0,0.32030000000003156
87,2,0.5,0.125,35.0,1,1.0,0.23970000000002756
88,2,0.5,0.0625,-35.0,-1,1.0,1.117399999999975
89,2,0.5,0.0625,35.0,1,1.0,0.5619000000000369
90,2,0.5,0.125,35.0,1,1.0,0.4316000000000031
91,2,0.8,0.125,35.0,-1,0.0,0.608600000000024
92,2,0.8,0.0625,-35.0,-1,1.0,0.4571000000000254
93,2,0.8,0.125,-35.0,-1,1.0,0.8792000000000257
94,2,0.8,0.0625,-35.0,1,0.0,0.5141000000000417
95,2,0.8,1.0,-35.0,-1,1.0,0.6610999999999763
96,2,0.8,0.25,-35.0,-1,1.0,0.43619999999998527
97,2,0.8,0.125,-35.0,-1,1.0,0.5699000000000183
98,2,0.8,0.0625,-35.0,-1,1.0,1.5217999999999847
99,2,0.8,0.0625,35.0,1,1.0,0.6389000000000351
100,2,0.8,0.125,-35.0,-1,1.0,4.657600000000002
101,2,0.8,0.125,-35.0,-1,1.0,0.6759999999999877
102,2,0.8,0.125,-35.0,-1,1.0,0.662399999999991
103,2,0.8,0.0,-35.0,1,0.0,6.093200000000024
104,2,0.8,0.125,35.0,1,1.0,0.6875
105,2,0.8,0.0,-35.0,1,0.0,0.6137990000000286
106,2,0.8,0.0625,-35.0,-1,1.0,0.4012000000000171
107,2,0.8,0.25,-35.0,-1,1.0,0.4259000000000128
108,2,0.8,1.0,35.0,1,1.0,0.4712999999999852
109,2,0.8,0.0,-35.0,-1,1.0,0.4327999999999861
110,2,0.8,0.125,-35.0,-1,1.0,0.45340000000004466
111,2,0.8,0.0,35.0,-1,0.0,4.0274
112,2,0.8,0.125,-35.0,-1,1.0,0.7105999999999995
113,2,0.8,0.25,-35.0,-1,1.0,0.4609989999999584
114,2,0.8,1.0,-35.0,-1,1.0,0.38210000000003674
115,2,0.8,0.25,-35.0,-1,1.0,0.6784000000000106
116,2,0.8,0.25,35.0,1,1.0,0.6594989999999825
117,2,0.8,0.0,-35.0,1,0.0,2.0341999999999985
118,2,0.8,0.25,-35.0,-1,1.0,0.3994000000000142
119,2,0.8,0.0625,-35.0,-1,1.0,0.6451000000000136
120,2,0.8,0.0,-35.0,-1,1.0,5.348899000000017
121,2,0.8,0.0,-35.0,-1,1.0,0.42519900000002053
122,2,0.8,0.0625,-35.0,-1,1.0,0.37529899999998406
123,2,0.8,0.25,-35.0,-1,1.0,0.4157000000000153
124,2,0.8,0.0625,-35.0,-1,1.0,0.41759900000005246
125,2,0.8,0.25,-35.0,-1,1.0,0.249699000000021
126,2,0.2,0.125,35.0,-1,0.0,0.894800000000032
127,2,0.2,1.0,-35.0,-1,1.0,0.29150000000004184
128,2,0.2,0.125,35.0,-1,0.0,1.248800000000017
129,2,0.2,0.125,35.0,1,1.0,1.3029999999999973
130,2,0.2,0.0625,35.0,-1,0.0,1.6150999999999271
131,2,0.2,0.25,35.0,1,1.0,0.5021999999999025
132,2,0.2,0.125,35.0,-1,0.0,3.9588999999999714
133,2,0.2,1.0,35.0,-1,0.0,0.5357000000000198
134,2,0.2,0.0625,35.0,-1,0.0,0.4153999999999769
135,2,0.2,0.125,35.0,-1,0.0,5.802798999999936
136,2,0.2,0.0,-35.0,-1,1.0,3.538099999999986
137,2,0.2,0.25,-35.0,-1,1.0,0.3750999999999749
138,2,0.2,0.0625,-35.0,-1,1.0,2.843599999999924
139,2,0.2,0.125,35.0,-1,0.0,0.6681999999999562
140,2,0.2,0.0625,35.0,-1,0.0,0.5946999999999889
141,2,0.2,1.0,35.0,1,1.0,0.31900000000007367
142,2,0.2,1.0,35.0,1,1.0,0.4235999999999649
143,2,0.2,0.25,35.0,1,1.0,0.4573999999998932
144,2,0.2,0.0,35.0,1,1.0,4.110699999999952
145,2,0.2,1.0,35.0,1,1.0,0.4235999999999649
146,2,0.2,0.0,35.0,-1,0.0,3.172598999999991
147,2,0.2,1.0,-35.0,-1,1.0,0.3652989999999363
148,2,0.2,0.25,-35.0,-1,1.0,0.6285989999998947
149,2,0.2,0.125,35.0,1,1.0,1.7522000000000162
150,2,0.2,0.125,35.0,1,1.0,0.6337999999999511
151,2,0.2,0.25,35.0,1,1.0,4.2736999999999625
152,2,0.2,1.0,35.0,1,1.0,0.6088999999999487
153,2,0.2,0.125,35.0,1,1.0,3.9506000000000085
154,2,0.2,1.0,-35.0,-1,1.0,0.36219999999991614
155,2,0.2,1.0,35.0,1,1.0,0.4130999999998721
156,2,0.2,0.0625,35.0,1,1.0,0.46279999999990196
157,2,0.2,0.0625,35.0,1,1.0,0.4438999999999851
158,2,0.2,0.0625,35.0,1,1.0,1.1949999999999363
159,2,0.2,0.0625,35.0,1,1.0,0.5961999999999534
160,2,0.2,0.0,35.0,-1,0.0,0.9147999999999001
161,2,0.2,0.0,-35.0,1,0.0,0.5203999999999951
162,2,0.2,1.0,-35.0,-1,1.0,0.46329900000000634
163,2,0.2,0.25,35.0,1,1.0,0.385599999999954
164,2,0.2,0.25,35.0,1,1.0,0.49279999999998836
165,2,0.2,0.0625,-35.0,1,0.0,3.671000000000049
166,2,0.2,1.0,35.0,1,1.0,0.39800000000002456
167,2,0.2,1.0,35.0,1,1.0,0.24689999999998236
168,2,0.2,0.0,35.0,1,1.0,0.8177000000000589
169,2,0.2,0.0625,35.0,1,1.0,0.8143000000000029
170,2,0.2,0.125,-35.0,-1,1.0,0.614898999999923
171,2,0.2,0.25,35.0,1,1.0,0.3025000000000091
172,2,0.2,0.0625,35.0,-1,0.0,0.8799000000000206
173,2,0.2,0.125,35.0,1,1.0,1.3356999999998607
174,2,0.2,0.0,35.0,1,1.0,3.765399999999886
175,2,0.2,0.0,35.0,1,1.0,0.40259900000000926
176,2,0.2,0.0,-35.0,1,0.0,1.2945000000000846
177,2,0.2,0.25,35.0,1,1.0,0.379099999999994
178,2,0.2,0.25,35.0,1,1.0,0.26109999999994216
179,2,0.2,0.125,35.0,1,1.0,0.3908999999998741
180,2,0.2,0.0625,35.0,1,1.0,0.39160000000003947
181,2,0.2,0.0,35.0,1,1.0,0.2562999999998965
182,2,0.2,1.0,35.0,1,1.0,0.32009900000002744
183,2,0.2,0.0,-35.0,1,0.0,5.054399999999873
184,2,0.2,0.0625,35.0,1,1.0,0.25879999999995107
185,2,0.2,1.0,35.0,1,1.0,0.2702999999999065
186,2,0.2,1.0,35.0,1,1.0,0.9990000000000236
187,2,0.2,0.25,35.0,1,1.0,0.42240000000003874
188,2,0.2,0.0,35.0,1,1.0,0.3790000000000191
189,2,0.2,0.125,35.0,1,1.0,0.4093999999998914
190,2,0.2,0.25,35.0,1,1.0,0.3867999999999938
191,2,0.2,0.125,35.0,1,1.0,0.39059999999994943
192,2,0.2,0.0,35.0,1,1.0,0.6908999999999423
193,2,0.2,0.125,35.0,1,1.0,0.40030000000001564
194,2,0.2,0.0625,35.0,1,1.0,0.37630000000001473
195,2,0.2,0.25,35.0,1,1.0,0.34739999999999327
196,2,0.2,0.125,-35.0,-1,1.0,1.0108989999998812
197,2,0.2,0.0625,35.0,1,1.0,0.38459999999986394
198,2,0.2,0.0625,35.0,1,1.0,0.706299999999942
199,2,0.2,0.25,35.0,1,1.0,0.43699900000001435
200,2,0.2,0.125,35.0,1,1.0,0.6020999999999503
201,2,0.2,0.0,35.0,1,1.0,0.9293999999999869
202,2,0.8,0.0625,-35.0,-1,1.0,0.9629000000001042
203,2,0.8,0.0,35.0,1,1.0,0.9765999999999622
204,2,0.8,0.0,35.0,-1,0.0,0.41660000000001673
205,2,0.8,0.0625,35.0,1,1.0,0.6479000000000497
206,2,0.8,0.125,-35.0,-1,1.0,0.44069999999987886
207,2,0.8,1.0,-35.0,-1,1.0,0.5847999999999729
208,2,0.8,0.25,-35.0,-1,1.0,0.5340999999999667
209,2,0.8,0.25,-35.0,-1,1.0,0.5775999999998476
210,2,0.8,0.25,-35.0,-1,1.0,0.5194999999999936
211,2,0.8,0.25,-35.0,-1,1.0,0.4533999999998741
212,2,0.8,0.0625,-35.0,-1,1.0,0.6853999999999587
213,2,0.8,0.125,35.0,1,1.0,0.39400000000000546
214,2,0.8,0.125,-35.0,-1,1.0,0.8605989999999792
215,2,0.8,0.0,35.0,1,1.0,0.3790000000000191
216,2,0.8,0.25,-35.0,-1,1.0,0.69829900000002
217,2,0.8,0.0625,35.0,1,1.0,0.362700000000018
218,2,0.8,0.25,-35.0,-1,1.0,1.209100000000035
219,2,0.8,0.0625,-35.0,1,0.0,3.272199999999998
220,2,0.8,0.0,-35.0,-1,1.0,0.7008989999999358
221,2,0.8,0.25,-35.0,-1,1.0,0.44889999999998054
222,2,0.8,0.0625,-35.0,-1,1.0,0.9377999999999247
223,2,0.8,0.25,-35.0,-1,1.0,0.5739999999998417
224,2,0.8,1.0,-35.0,-1,1.0,0.47649999999998727
225,2,0.8,0.0625,-35.0,1,0.0,1.2271999999999252
226,2,0.8,0.125,35.0,1,1.0,2.3640000000000327
227,2,0.8,1.0,-35.0,-1,1.0,0.3815999999999349
228,2,0.8,0.25,-35.0,-1,1.0,0.6721999999998616
229,2,0.8,0.25,-35.0,-1,1.0,0.5267999999999802
230,2,0.8,1.0,-35.0,-1,1.0,0.649599999999964
231,2,0.8,1.0,-35.0,-1,1.0,0.42089999999996053
232,2,0.8,1.0,-35.0,-1,1.0,0.4451000000000249
233,2,0.8,0.25,-35.0,-1,1.0,0.5647000000000162
234,2,0.8,0.0625,-35.0,-1,1.0,0.42009999999993397
235,2,0.8,0.0,35.0,1,1.0,1.2853000000000065
236,2,0.8,0.0,-35.0,1,0.0,3.2192999999999756
237,2,0.2,0.0,35.0,1,1.0,1.0871999999999389
238,2,0.2,0.0,35.0,1,1.0,0.41709899999989375
239,2,0.2,0.0625,35.0,-1,0.0,1.4951999999999543
240,2,0.2,1.0,35.0,1,1.0,0.5147999999999229
241,2,0.2,1.0,35.0,1,1.0,0.37419999999985976
242,2,0.2,0.0625,35.0,1,1.0,0.4401990000000069
243,2,0.2,0.0625,35.0,1,1.0,0.46469999999987976
244,2,0.2,0.0,35.0,1,1.0,5.4401000000000295
245,2,0.2,0.0,-35.0,1,0.0,2.444699999999898
246,2,0.2,0.0,35.0,-1,0.0,2.5016999999998006
247,2,0.2,0.125,35.0,1,1.0,0.32349999999996726
248,2,0.2,0.25,35.0,1,1.0,0.5009999999999764
249,2,0.2,0.0625,35.0,1,1.0,1.2378999999999678
250,2,0.2,0.25,35.0,1,1.0,0.4329999999999927
251,2,0.2,0.25,35.0,1,1.0,0.44669999999996435
252,2,0.2,0.0625,35.0,-1,0.0,1.4791000000000167
253,2,0.2,0.125,35.0,1,1.0,0.6950999999999112
254,2,0.2,0.125,-35.0,1,0.0,0.4333000000000311
255,2,0.2,0.0625,35.0,-1,0.0,1.5389999999999873
256,2,0.2,1.0,-35.0,-1,1.0,0.5848989999999503
257,2,0.2,0.0,-35.0,1,0.0,4.23479999999995
258,2,0.2,0.0625,35.0,1,1.0,0.7405999999999722
259,2,0.2,0.25,35.0,-1,0.0,1.0850999999998976
260,2,0.2,0.25,-35.0,1,0.0,1.2206999999998516
261,2,0.8,0.0,-35.0,1,0.0,1.5617999999999483
262,2,0.8,0.125,-35.0,-1,1.0,0.5786000000000513
263,2,0.8,1.0,-35.0,-1,1.0,0.4944000000000415
264,2,0.8,1.0,-35.0,-1,1.0,0.39869999999973516
265,2,0.8,1.0,-35.0,-1,1.0,0.44119999999975335
266,2,0.8,0.25,-35.0,-1,1.0,4.455500000000029
267,2,0.8,1.0,-35.0,-1,1.0,0.4682999999999993
268,2,0.8,0.0,-35.0,-1,1.0,17.862599999999702
269,2,0.8,0.0625,-35.0,-1,1.0,0.6751000000001568
270,2,0.8,0.0,-35.0,-1,1.0,3.5118999999999687
271,2,0.8,0.0625,35.0,-1,0.0,0.662900000000036
272,2,0.8,0.125,-35.0,-1,1.0,3.1820000000000164
273,2,0.8,0.0,-35.0,-1,1.0,4.709800000000087
274,2,0.8,1.0,-35.0,-1,1.0,0.46899999999982356
275,2,0.8,0.125,-35.0,-1,1.0,1.5232999999998356
276,2,0.8,0.0625,-35.0,-1,1.0,7.522600000000011
277,2,0.8,1.0,-35.0,-1,1.0,0.7237999999999829
278,2,0.8,0.0625,35.0,1,1.0,7.755999999999858
279,2,0.8,0.125,-35.0,-1,1.0,4.793799999999919
280,2,0.8,0.0,-35.0,-1,1.0,3.8430000000000746
281,2,0.8,0.25,-35.0,-1,1.0,3.4807989999999336
282,2,0.8,0.125,-35.0,-1,1.0,1.4533000000001266
283,2,0.8,0.0625,-35.0,-1,1.0,7.7374999999999545
284,2,0.8,0.25,-35.0,-1,1.0,3.833599999999933
285,2,0.8,0.25,35.0,1,1.0,2.921299999999974
286,2,0.8,1.0,-35.0,-1,1.0,0.5335999999999785
287,2,0.8,0.125,-35.0,-1,1.0,5.794699999999921
288,2,0.8,0.0625,-35.0,-1,1.0,4.303699999999935
289,2,0.8,1.0,-35.0,-1,1.0,0.4249999999999545
290,2,0.8,0.25,35.0,-1,0.0,2.4905989999999747
291,2,0.8,0.0625,-35.0,-1,1.0,0.6884999999999764
292,2,0.8,1.0,-35.0,-1,1.0,0.6376000000000204
293,2,0.8,0.0625,-35.0,1,0.0,9.368600000000015
294,2,0.8,0.0,35.0,-1,0.0,20.10779999999977
295,2,0.8,1.0,-35.0,-1,1.0,0.4692000000000007
296,2,0.8,0.0625,35.0,-1,0.0,4.604898999999932
297,2,0.8,0.125,-35.0,-1,1.0,6.239399999999932
298,2,0.8,1.0,-35.0,-1,1.0,12.448699000000033
299,2,0.8,0.0625,35.0,-1,0.0,8.503399000000172
300,2,0.8,0.125,35.0,1,1.0,0.8190999999999349
301,2,0.8,1.0,-35.0,-1,1.0,0.6168999999999869
302,2,0.8,0.125,-35.0,-1,1.0,23.142700000000104
303,2,0.8,0.25,-35.0,1,0.0,12.48090000000002
304,2,0.8,0.125,-35.0,-1,1.0,20.49669999999992
305,2,0.8,0.0,-35.0,-1,1.0,4.531499999999824
306,2,0.8,0.125,-35.0,-1,1.0,13.420899999999847
307,2,0.8,1.0,-35.0,-1,1.0,0.6454000000001088
308,2,0.8,0.25,-35.0,-1,1.0,3.2242999999998574
309,2,0.8,0.25,-35.0,-1,1.0,1.612100000000055
310,2,0.8,0.125,-35.0,-1,1.0,4.004400000000032
311,2,0.8,1.0,-35.0,-1,1.0,0.5055999999999585
312,2,0.8,0.25,-35.0,-1,1.0,9.321198999999979
313,2,0.8,0.125,-35.0,-1,1.0,1.2194990000000416
314,2,0.8,0.0,-35.0,-1,1.0,2.2685989999999947
315,2,0.8,0.0,-35.0,-1,1.0,3.8127999999999247
316,2,0.8,1.0,35.0,1,1.0,0.7751989999999296
317,2,0.8,0.0625,35.0,-1,0.0,3.8561999999999443
318,2,0.8,0.0625,-35.0,-1,1.0,0.85550000000012
319,2,0.8,0.0625,-35.0,-1,1.0,0.799900000000207
320,2,0.8,0.125,-35.0,-1,1.0,3.195399999999836
321,2,0.8,0.0625,-35.0,-1,1.0,6.123299999999972
322,2,0.8,0.125,-35.0,-1,1.0,2.935899999999947
323,2,0.8,0.0,-35.0,-1,1.0,4.230200000000195
324,2,0.8,1.0,-35.0,-1,1.0,0.6559999999999491
325,2,0.8,1.0,35.0,1,1.0,4.026098999999931
326,2,0.8,0.25,-35.0,-1,1.0,1.8038999999996577
327,2,0.8,0.0,-35.0,-1,1.0,4.8762000000001535
328,2,0.8,0.125,-35.0,-1,1.0,23.43080000000009
329,2,0.8,0.25,-35.0,-1,1.0,37.65359999999987
330,2,0.8,1.0,35.0,1,1.0,6.792299999999841
331,2,0.8,1.0,-35.0,-1,1.0,3.5713999999998123
332,2,0.8,1.0,-35.0,-1,1.0,9.475599999999986
333,2,0.8,1.0,35.0,-1,0.0,6.021400000000085
334,2,0.8,1.0,-35.0,-1,1.0,9.992700000000013
335,2,0.8,0.25,-35.0,-1,1.0,4.878500000000031
336,2,0.8,0.0,-35.0,1,0.0,31.269999999999982
337,2,0.8,0.125,-35.0,-1,1.0,33.599300000000085
338,2,0.8,0.0,-35.0,1,0.0,48.76109999999994
339,2,0.8,0.25,-35.0,-1,1.0,1.4510000000000218
340,2,0.8,0.0,-35.0,-1,1.0,10.455400000000054
341,2,0.8,1.0,-35.0,-1,1.0,0.7580000000000382
342,2,0.8,1.0,-35.0,-1,1.0,1.4691000000000258
343,2,0.8,0.0625,-35.0,-1,1.0,5.634800000000041
344,2,0.8,1.0,-35.0,1,0.0,6.689499999999953
345,2,0.8,0.0625,-35.0,0,0.0,60.031999999999925
346,2,0.8,1.0,35.0,1,1.0,1.5164999999999509
347,2,0.8,1.0,35.0,1,1.0,8.814100000000053
348,2,0.2,0.0625,35.0,1,1.0,6.766700000000128
349,2,0.2,0.125,35.0,1,1.0,4.217800000000125
350,2,0.2,0.25,35.0,1,1.0,1.6369999999999436
351,2,0.2,0.0625,35.0,1,1.0,11.391398999999865
352,2,0.2,0.0,35.0,-1,0.0,3.360699000000068
353,2,0.2,0.125,35.0,1,1.0,0.5941000000000258
354,2,0.2,1.0,-35.0,-1,1.0,0.8776000000000295
355,2,0.2,1.0,35.0,1,1.0,5.951900000000251
356,2,0.2,1.0,35.0,1,1.0,0.5942999999999756
357,2,0.2,0.0,35.0,1,1.0,0.7721990000000005
358,2,0.2,1.0,35.0,1,1.0,1.2245000000000346
359,2,0.2,0.0,-0.0,0,0.0,60.0320999999999
360,2,0.2,0.0,-0.0,0,0.0,60.02999899999986
361,2,0.2,0.0,-0.0,0,0.0,60.033600000000206
362,2,0.2,0.0,-0.0,0,0.0,60.03470000000061
363,2,0.2,0.0,-0.0,0,0.0,60.03020000000015
364,2,0.2,1.0,35.0,1,1.0,0.7370000000005348
365,2,0.2,0.0625,35.0,1,1.0,7.680400000000191
366,2,0.2,0.0625,-35.0,-1,1.0,0.8450000000002547
367,2,0.2,0.0625,35.0,0,0.0,60.0308
368,2,0.2,0.0,-0.0,0,0.0,60.03200000000015
369,2,0.2,0.0,-0.0,0,0.0,60.02410000000009
370,2,0.2,0.0,35.0,-1,0.0,12.200900000000274
371,2,0.2,0.125,35.0,1,1.0,6.417798999999832
372,2,0.2,0.25,35.0,1,1.0,1.0691000000001623
373,2,0.2,0.125,35.0,1,1.0,3.9182999999998174
374,2,0.2,0.0,35.0,-1,0.0,2.315900000000056
375,2,0.2,1.0,35.0,1,1.0,0.6983989999998812
376,2,0.2,1.0,35.0,1,1.0,0.5895000000004984
377,2,0.2,1.0,-35.0,-1,1.0,0.8251000000004751
378,2,0.2,0.0625,35.0,0,0.0,60.03630000000021
379,2,0.2,0.0625,35.0,0,0.0,60.02649999999994
380,2,0.2,1.0,35.0,0,0.0,60.02849900000001
1,3,0.5,0.25,-35.0,-1,1.0,0.39449999999999963
2,3,0.5,0.25,35.0,1,1.0,0.4302999999999999
3,3,0.5,0.0625,35.0,1,1.0,0.6582000000000026
4,3,0.5,0.0625,-35.0,-1,1.0,0.7312000000000012
5,3,0.5,0.125,-35.0,-1,1.0,0.5655000000000001
6,3,0.5,0.125,-35.0,-1,1.0,0.4244000000000021
7,3,0.5,0.125,35.0,1,1.0,0.5581999999999994
8,3,0.5,0.0,-35.0,-1,1.0,0.4521000000000015
9,3,0.5,1.0,-35.0,-1,1.0,0.3425989999999999
10,3,0.5,1.0,35.0,1,1.0,0.19909999999999428
11,3,0.5,0.0625,-35.0,-1,1.0,0.4024000000000072
12,3,0.5,0.0625,-35.0,-1,1.0,0.3680999999999912
13,3,0.5,1.0,35.0,1,1.0,0.37759999999999394
14,3,0.5,1.0,-35.0,-1,1.0,0.27360000000000184
15,3,0.5,1.0,35.0,1,1.0,0.6141000000000005
16,3,0.5,0.0,35.0,-1,0.0,0.7403989999999965
17,3,0.5,0.0625,35.0,1,1.0,0.37989999999999924
18,3,0.5,0.25,-35.0,-1,1.0,0.4572999999999965
19,3,0.5,0.0,-35.0,1,0.0,0.5767999999999986
20,3,0.5,0.0625,35.0,1,1.0,0.6680000000000064
21,3,0.5,1.0,-35.0,-1,1.0,0.28530000000000655
22,3,0.5,0.0,35.0,-1,0.0,0.3225000000000051
23,3,0.5,0.25,35.0,1,1.0,0.3170000000000073
24,3,0.5,0.0,35.0,1,1.0,1.00030000000001
25,3,0.5,0.0,-35.0,1,0.0,0.295100000000005
26,3,0.5,0.125,-35.0,-1,1.0,0.32800000000000296
27,3,0.5,0.0,35.0,-1,0.0,0.5729000000000042
28,3,0.5,0.0625,-35.0,-1,1.0,0.4274000000000058
29,3,0.5,0.0625,-35.0,-1,1.0,0.44120000000000914
30,3,0.5,0.0625,35.0,1,1.0,0.35430000000000916
31,3,0.5,0.0625,35.0,1,1.0,0.629099999999994
32,3,0.5,0.125,-35.0,-1,1.0,0.43660000000001276
33,3,0.5,0.25,35.0,1,1.0,0.5733000000000033
34,3,0.5,1.0,-35.0,-1,1.0,0.29640000000000555
35,3,0.5,0.25,-35.0,-1,1.0,0.49970000000000425
36,3,0.5,0.25,35.0,1,1.0,0.4251000000000005
37,3,0.5,0.125,-35.0,-1,1.0,0.9734000000000265
38,3,0.5,1.0,35.0,1,1.0,0.4692000000000007
39,3,0.5,0.0,-35.0,1,0.0,0.7764999999999986
40,3,0.5,1.0,35.0,1,1.0,0.3169000000000324
41,3,0.5,0.0,-35.0,-1,1.0,1.0120000000000005
42,3,0.5,0.125,35.0,-1,0.0,0.25509999999999877
43,3,0.5,1.0,35.0,1,1.0,0.4777000000000271
44,3,0.5,1.0,-35.0,-1,1.0,1.4621999999999957
45,3,0.5,0.0625,35.0,-1,0.0,0.8382999999999754
46,3,0.5,1.0,35.0,1,1.0,0.46109999999998763
47,3,0.5,0.0625,35.0,-1,0.0,3.1758000000000095
48,3,0.5,0.0625,35.0,-1,0.0,1.0367999999999995
49,3,0.5,0.0625,-35.0,-1,1.0,0.7683999999999855
50,3,0.5,0.0,35.0,1,1.0,0.25200000000000955
51,3,0.5,0.0625,-35.0,-1,1.0,0.43780000000000996
52,3,0.5,0.0,35.0,-1,0.0,1.5394000000000005
53,3,0.5,0.0,-35.0,-1,1.0,0.5261000000000138
54,3,0.5,0.0,35.0,1,1.0,7.986200000000025
55,3,0.5,0.25,35.0,1,1.0,0.5328000000000088
56,3,0.5,1.0,-35.0,-1,1.0,0.8749999999999716
57,3,0.5,0.125,-35.0,-1,1.0,4.788000000000011
58,3,0.5,1.0,-35.0,-1,1.0,0.5234999999999843
59,3,0.5,0.0,35.0,-1,0.0,0.5903999999999883
60,3,0.5,0.0,35.0,1,1.0,3.095600000000019
61,3,0.5,0.0625,-35.0,1,0.0,0.4911999999999921
62,3,0.5,0.0,-35.0,-1,1.0,0.3661999999999921
63,3,0.5,0.25,-35.0,-1,1.0,0.6940999999999917
64,3,0.5,0.0,35.0,-1,0.0,0.6141999999999825
65,3,0.5,1.0,-35.0,-1,1.0,0.34539900000001467
66,3,0.5,0.25,35.0,1,1.0,0.41730000000001155
67,3,0.5,1.0,35.0,1,1.0,0.22719999999998208
68,3,0.5,0.125,-35.0,-1,1.0,0.18419999999997572
69,3,0.5,0.0,35.0,-1,0.0,1.461500000000001
70,3,0.5,1.0,35.0,1,1.0,0.352299999999957
71,3,0.5,0.25,-35.0,-1,1.0,0.3814000000000419
72,3,0.5,0.25,-35.0,-1,1.0,0.3996000000000208
73,3,0.5,1.0,-35.0,-1,1.0,0.2220999999999549
74,3,0.5,0.0625,-35.0,1,0.0,0.532100000000014
75,3,0.5,0.0625,35.0,-1,0.0,0.3207999999999629
76,3,0.5,0.125,-35.0,-1,1.0,0.3838000000000079
77,3,0.5,0.0,35.0,1,1.0,3.5144990000000007
78,3,0.5,0.0625,35.0,1,1.0,0.54849999999999
79,3,0.5,0.25,35.0,1,1.0,0.32970000000000255
80,3,0.5,0.0625,35.0,1,1.0,0.4067000000000007
81,3,0.5,0.125,35.0,-1,0.0,4.673999999999978
82,3,0.5,0.0,-35.0,1,0.0,1.7662000000000262
83,3,0.5,1.0,-35.0,1,0.0,0.9099999999999682
84,3,0.5,0.0625,35.0,1,1.0,0.3165000000000191
85,3,0.5,0.0,-35.0,1,0.0,3.3858000000000175
86,3,0.5,0.125,-35.0,-1,1.0,0.4560999999999922
87,3,0.5,0.25,-35.0,1,0.0,6.274000000000001
88,3,0.5,0.0625,35.0,-1,0.0,0.9616990000000101
89,3,0.5,0.0625,-35.0,-1,1.0,11.632799000000034
90,3,0.5,0.25,-35.0,-1,1.0,2.0936000000000377
91,3,0.2,0.0,35.0,-1,0.0,0.5237999999999943
92,3,0.2,0.25,35.0,1,1.0,0.3826000000000249
93,3,0.2,0.25,35.0,1,1.0,0.32220000000000937
94,3,0.2,1.0,-35.0,-1,1.0,0.31929999999999836
95,3,0.2,0.25,35.0,1,1.0,0.43720000000001846
96,3,0.2,0.125,35.0,1,1.0,0.5189999999999486
97,3,0.2,1.0,35.0,1,1.0,0.5285000000000082
98,3,0.2,0.0,35.0,1,1.0,1.192799999999977
99,3,0.2,1.0,35.0,1,1.0,0.47090000000002874
100,3,0.2,0.0,-35.0,1,0.0,0.501700000000028
101,3,0.2,0.0,35.0,-1,0.0,0.5237989999999968
102,3,0.2,0.125,35.0,1,1.0,0.36810000000002674
103,3,0.2,1.0,35.0,1,1.0,0.29810000000003356
104,3,0.2,0.125,35.0,1,1.0,0.6193999999999846
105,3,0.2,1.0,35.0,1,1.0,0.3136000000000081
106,3,0.2,0.0625,35.0,1,1.0,0.3168000000000575
107,3,0.2,0.25,35.0,1,1.0,0.10180000000002565
108,3,0.2,0.125,35.0,-1,0.0,0.30740000000002965
109,3,0.2,0.125,-35.0,-1,1.0,0.3502000000000294
110,3,0.2,0.0,35.0,1,1.0,1.0901000000000067
111,3,0.2,1.0,-35.0,-1,1.0,0.33909999999997353
112,3,0.2,0.125,35.0,1,1.0,0.32840000000004466
113,3,0.2,1.0,-35.0,-1,1.0,0.352800000000002
114,3,0.2,0.0625,35.0,1,1.0,2.2133000000000607
115,3,0.2,0.125,35.0,1,1.0,0.348700000000008
116,3,0.2,1.0,35.0,1,1.0,0.3949999999999818
117,3,0.2,0.0625,35.0,1,1.0,0.3080999999999676
118,3,0.2,0.125,35.0,1,1.0,0.5331990000000246
119,3,0.2,0.25,35.0,1,1.0,0.3202999999999747
120,3,0.2,0.125,35.0,1,1.0,0.2411000000000172
121,3,0.2,0.125,35.0,1,1.0,0.15480000000002292
122,3,0.2,0.25,35.0,1,1.0,0.4048999999999978
123,3,0.2,0.0625,35.0,1,1.0,0.48349999999999227
124,3,0.2,1.0,35.0,1,1.0,0.30370000000004893
125,3,0.2,0.0625,35.0,-1,0.0,0.21910000000002583
126,3,0.2,0.0,35.0,-1,0.0,0.19420000000002346
127,3,0.2,0.0625,35.0,1,1.0,0.6315999999999917
128,3,0.2,0.0625,35.0,1,1.0,0.43459999999993215
129,3,0.2,0.125,35.0,1,1.0,0.33219999999994343
130,3,0.2,0.125,35.0,1,1.0,0.43429999999989377
131,3,0.2,0.25,35.0,-1,0.0,1.1381999999999834
132,3,0.2,0.125,35.0,1,1.0,0.3021999999999707
133,3,0.2,0.0625,35.0,1,1.0,0.39829999999994925
134,3,0.2,0.0625,35.0,1,1.0,0.559799999999882
135,3,0.2,0.0,-35.0,-1,1.0,1.0242999999999256
136,3,0.2,0.25,35.0,1,1.0,0.40609999999992397
137,3,0.2,0.25,35.0,1,1.0,0.5783999999998741
138,3,0.2,1.0,-35.0,-1,1.0,0.8695000000000164
139,3,0.2,0.0625,35.0,1,1.0,0.49279999999998836
140,3,0.2,0.125,35.0,1,1.0,0.2942000000000462
141,3,0.2,0.25,35.0,-1,0.0,0.1491999999999507
142,3,0.2,0.0,35.0,-1,0.0,4.324799999999982
143,3,0.2,0.125,35.0,1,1.0,0.27959999999995944
144,3,0.2,0.25,35.0,1,1.0,0.4293999999999869
145,3,0.2,1.0,35.0,1,1.0,0.3430999999999358
146,3,0.2,0.25,35.0,1,1.0,0.21519999999998163
147,3,0.2,0.125,35.0,1,1.0,0.21449999999992997
148,3,0.8,0.125,-35.0,1,0.0,4.512299999999868
149,3,0.8,0.0625,-35.0,-1,1.0,1.194599999999923
150,3,0.8,0.125,-35.0,-1,1.0,0.6241999999998598
151,3,0.8,0.25,-35.0,-1,1.0,0.8533999999999651
152,3,0.8,1.0,-35.0,-1,1.0,0.5426999999998543
153,3,0.8,0.25,-35.0,-1,1.0,0.40049999999996544
154,3,0.8,0.0625,35.0,-1,0.0,0.7746999999998252
155,3,0.8,0.125,-35.0,-1,1.0,0.38980000000003656
156,3,0.8,0.0,-35.0,1,0.0,0.3525999999999385
157,3,0.8,0.25,-35.0,-1,1.0,0.5954999999999018
158,3,0.8,0.0,-35.0,1,0.0,2.7720999999999094
159,3,0.8,1.0,35.0,1,1.0,0.2693989999999076
160,3,0.8,0.0625,-35.0,-1,1.0,0.37789999999995416
161,3,0.8,0.0,35.0,-1,0.0,0.3343999999999596
162,3,0.8,0.0,-35.0,1,0.0,4.651899999999955
163,3,0.8,0.0,-35.0,1,0.0,0.2767000000000053
164,3,0.8,0.25,-35.0,-1,1.0,0.35799999999994725
165,3,0.8,1.0,35.0,1,1.0,0.41819999999995616
166,3,0.8,0.0,-35.0,-1,1.0,0.3512999999999238
167,3,0.8,0.0625,-35.0,-1,1.0,0.5234000000000378
168,3,0.8,0.0,35.0,-1,0.0,0.7726999999999862
169,3,0.8,0.0625,35.0,-1,0.0,4.425799999999981
170,3,0.8,0.0625,-35.0,-1,1.0,0.39429999999993015
171,3,0.8,1.0,-35.0,-1,1.0,0.3415989999999738
172,3,0.8,0.25,35.0,1,1.0,0.5182989999999563
173,3,0.8,1.0,-35.0,-1,1.0,0.962099999999964
174,3,0.8,0.25,-35.0,-1,1.0,0.676599999999894
175,3,0.8,1.0,-35.0,-1,1.0,0.17299999999988813
176,3,0.8,1.0,-35.0,1,0.0,2.1023999999999887
177,3,0.8,0.25,-35.0,-1,1.0,5.156399999999962
178,3,0.8,0.125,35.0,1,1.0,2.3985999999999876
179,3,0.8,0.0,-35.0,1,0.0,1.4963999999998805
180,3,0.8,0.25,-35.0,-1,1.0,0.508899999999926
181,3,0.8,0.25,-35.0,-1,1.0,4.7327999999999975
182,3,0.8,0.25,-35.0,-1,1.0,0.608600000000024
183,3,0.8,1.0,-35.0,-1,1.0,0.5059999999999718
184,3,0.8,0.25,-35.0,-1,1.0,0.9059999999999491
185,3,0.8,0.125,35.0,-1,0.0,5.4611999999999625
186,3,0.8,0.0,-35.0,-1,1.0,3.4722000000000435
187,3,0.8,0.25,-35.0,-1,1.0,14.16879999999992
188,3,0.8,0.0625,-35.0,-1,1.0,1.78550000000007
189,3,0.8,0.125,-35.0,-1,1.0,4.015899999999874
190,3,0.8,1.0,-35.0,-1,1.0,0.47689999999988686
191,3,0.8,1.0,35.0,1,1.0,0.7977999999999383
192,3,0.8,0.0,-35.0,-1,1.0,2.8142999999998892
193,3,0.8,1.0,-35.0,-1,1.0,0.9332999999998037
194,3,0.8,0.0625,-35.0,-1,1.0,4.447000000000003
195,3,0.8,1.0,-35.0,-1,1.0,0.3244999999998299
196,3,0.8,0.25,-35.0,-1,1.0,2.669099999999844
197,3,0.8,0.0625,-35.0,-1,1.0,0.621599999999944
198,3,0.8,0.125,-35.0,-1,1.0,1.4157999999998765
199,3,0.8,0.0625,-35.0,-1,1.0,1.7556999999999334
200,3,0.8,1.0,-35.0,-1,1.0,0.3926000000000158
201,3,0.8,0.0625,35.0,-1,0.0,3.8708990000000085
202,3,0.8,0.25,-35.0,-1,1.0,0.9941000000000031
203,3,0.8,0.25,35.0,1,1.0,6.311099999999897
204,3,0.8,0.0,-35.0,-1,1.0,3.218599999999924
205,3,0.8,0.0625,35.0,1,1.0,2.5139999999998963
206,3,0.8,1.0,-35.0,-1,1.0,0.467899999999986
207,3,0.8,0.0,-35.0,1,0.0,5.487599000000046
208,3,0.8,0.0625,-35.0,-1,1.0,2.7953999999998587
209,3,0.8,0.0,-35.0,-1,1.0,3.75549999999987
210,3,0.8,1.0,35.0,1,1.0,0.6621000000000095
211,3,0.8,0.0,-35.0,-1,1.0,0.5830999999999449
212,3,0.8,0.25,-35.0,-1,1.0,4.545700000000011
213,3,0.8,0.0,35.0,-1,0.0,4.408598999999981
214,3,0.8,0.0,-35.0,-1,1.0,5.038900000000012
215,3,0.8,0.25,-35.0,-1,1.0,0.6935999999999467
216,3,0.8,0.0,-35.0,1,0.0,6.416899999999941
217,3,0.8,0.25,-35.0,-1,1.0,1.0033999999999423
218,3,0.8,1.0,-35.0,-1,1.0,9.375099999999975
219,3,0.8,0.25,-35.0,-1,1.0,8.067099999999868
220,3,0.8,0.0,-35.0,1,0.0,7.639699999999948
221,3,0.8,0.0,-35.0,-1,1.0,14.650499999999852
222,3,0.8,0.125,-35.0,-1,1.0,7.144999999999868
223,3,0.8,0.0625,35.0,-1,0.0,6.68139999999994
224,3,0.8,0.0625,-35.0,-1,1.0,18.51189999999997
225,3,0.8,0.125,-35.0,-1,1.0,2.86830000000009
226,3,0.8,0.125,35.0,-1,0.0,7.869199999999864
227,3,0.8,0.0625,35.0,1,1.0,1.9252999999998792
228,3,0.8,0.25,35.0,1,1.0,0.7359999999998763
229,3,0.8,0.25,-35.0,-1,1.0,0.9755989999998746
230,3,0.8,0.125,-35.0,-1,1.0,0.7294999999999163
231,3,0.8,1.0,35.0,1,1.0,0.5156999999999243
232,3,0.8,0.0625,35.0,1,1.0,0.4864000000000033
233,3,0.8,0.0,-35.0,1,0.0,0.3523000000000138
234,3,0.8,1.0,-35.0,-1,1.0,0.353099999999813
235,3,0.8,0.0625,-35.0,1,0.0,2.4226999999998498
236,3,0.2,1.0,35.0,1,1.0,0.5432999999998174
237,3,0.2,0.0,35.0,-1,0.0,2.9560999999998785
238,3,0.2,0.0625,-35.0,-1,1.0,0.60349999999994
239,3,0.2,1.0,35.0,1,1.0,0.3161999999999807
240,3,0.2,0.0625,35.0,1,1.0,4.470199999999977
241,3,0.2,0.0625,-35.0,-1,1.0,1.1964000000000397
242,3,0.2,0.25,35.0,1,1.0,0.36039999999979955
243,3,0.2,0.125,35.0,1,1.0,0.666499000000158
244,3,0.2,0.125,35.0,1,1.0,3.900499999999738
245,3,0.2,0.125,35.0,-1,0.0,3.8266000000000986
246,3,0.2,0.0,35.0,-1,0.0,1.6645000000000891
247,3,0.2,0.0,35.0,-1,0.0,0.5269000000000688
248,3,0.2,0.125,35.0,-1,0.0,0.4776999999999134
249,3,0.2,1.0,35.0,1,1.0,0.5237999999999374
250,3,0.2,0.125,35.0,-1,0.0,0.627699999999777
251,3,0.2,0.0625,35.0,-1,0.0,0.37719999999967513
252,3,0.2,0.0,35.0,1,1.0,0.928000000000111
253,3,0.2,0.25,35.0,1,1.0,0.4673000000000229
254,3,0.2,0.0625,35.0,-1,0.0,3.4480999999998403
255,3,0.2,0.0625,35.0,1,1.0,0.5979999999999563
256,3,0.2,0.0625,35.0,1,1.0,1.1317999999998847
257,3,0.2,1.0,-35.0,-1,1.0,0.7679990000001453
258,3,0.2,0.0625,-35.0,-1,1.0,0.7385000000001583
259,3,0.2,0.0625,35.0,-1,0.0,1.7944000000002234
260,3,0.2,0.0625,35.0,-1,0.0,0.8020999999998821
261,3,0.2,0.25,35.0,1,1.0,6.171299999999974
262,3,0.2,0.0,35.0,-1,0.0,9.158899999999676
263,3,0.2,0.125,35.0,1,1.0,0.7650999999998476
264,3,0.2,0.0,35.0,1,1.0,2.9791999999999916
265,3,0.2,1.0,35.0,1,1.0,0.4152000000001408
266,3,0.2,0.125,35.0,-1,0.0,1.262699999999768
267,3,0.2,0.0,-35.0,-1,1.0,2.3921000000000276
268,3,0.2,0.25,35.0,1,1.0,0.7162000000000717
269,3,0.2,0.0625,-35.0,-1,1.0,0.5054999999999836
270,3,0.2,1.0,35.0,1,1.0,0.3996999999999389
271,3,0.2,0.0625,35.0,1,1.0,0.22900000000004184
272,3,0.2,0.125,35.0,1,1.0,0.4130999999999858
273,3,0.2,1.0,35.0,-1,0.0,0.2125989999997273
274,3,0.2,0.0,35.0,-1,0.0,0.2600999999999658
275,3,0.2,1.0,35.0,1,1.0,0.4492999999999938
276,3,0.2,0.125,35.0,1,1.0,0.520200000000159
277,3,0.2,1.0,35.0,1,1.0,0.27939999999989595
278,3,0.2,0.0,35.0,1,1.0,0.44630000000006476
279,3,0.2,1.0,35.0,1,1.0,0.2337999999999738
280,3,0.2,0.0,35.0,-1,0.0,0.1897989999999936
281,3,0.2,0.25,35.0,1,1.0,0.32369999999991705
282,3,0.2,0.125,-35.0,-1,1.0,0.3765000000000782
283,3,0.2,0.25,35.0,1,1.0,0.25710000000003674
284,3,0.2,0.0,-35.0,-1,1.0,0.20670000000018263
285,3,0.2,0.0,35.0,1,1.0,0.9840999999998985
286,3,0.2,0.125,35.0,1,1.0,0.3833999999999378
287,3,0.2,0.125,35.0,1,1.0,0.39079999999989923
288,3,0.2,0.125,35.0,1,1.0,0.1801999999997861
289,3,0.2,0.0,35.0,1,1.0,0.7343000000000757
290,3,0.8,0.25,-35.0,-1,1.0,0.2737999999999374
291,3,0.8,0.25,-35.0,-1,1.0,0.34780000000000655
292,3,0.8,0.0,35.0,-1,0.0,0.42059999999992215
293,3,0.8,1.0,-35.0,-1,1.0,0.39469999999982974
294,3,0.8,1.0,-35.0,-1,1.0,0.33399999999983265
295,3,0.8,1.0,35.0,1,1.0,0.23829999999998108
296,3,0.8,0.125,-35.0,-1,1.0,0.3807999999999083
297,3,0.8,0.0625,35.0,1,1.0,0.4882999999999811
298,3,0.8,1.0,35.0,1,1.0,0.35829999999987194
299,3,0.8,0.0625,-35.0,1,0.0,0.6309999999998581
300,3,0.8,0.0,-35.0,1,0.0,0.38190000000008695
301,3,0.8,0.125,-35.0,-1,1.0,0.35789999999997235
302,3,0.8,0.125,-35.0,1,0.0,0.18539999999984502
303,3,0.8,1.0,-35.0,-1,1.0,0.3413999999997941
304,3,0.8,0.0625,-35.0,-1,1.0,0.40219999999999345
305,3,0.8,0.0625,-35.0,-1,1.0,0.34809999999993124
306,3,0.8,1.0,-35.0,-1,1.0,0.25900000000001455
307,3,0.8,0.0625,-35.0,1,0.0,0.2681999999999789
308,3,0.8,0.125,-35.0,-1,1.0,0.3790999999998803
309,3,0.8,0.125,-35.0,-1,1.0,0.29169999999999163
310,3,0.8,0.25,-35.0,-1,1.0,0.2660000000000764
311,3,0.8,0.0625,-35.0,-1,1.0,0.355199999999968
312,3,0.8,0.25,-35.0,-1,1.0,0.34600000000000364
313,3,0.8,0.0625,-35.0,-1,1.0,0.44870000000014443
314,3,0.8,0.25,-35.0,-1,1.0,0.3027999999999338
315,3,0.8,0.25,-35.0,-1,1.0,0.31560000000013133
316,3,0.8,0.0625,-35.0,-1,1.0,0.3430000000000746
317,3,0.8,1.0,35.0,1,1.0,0.4056000000000495
318,3,0.8,0.0,-35.0,1,0.0,0.37969999999995707
319,3,0.8,0.0625,-35.0,-1,1.0,0.41239999999993415
320,3,0.8,0.0,-35.0,-1,1.0,10.003300000000081
321,3,0.8,1.0,-35.0,-1,1.0,0.28950000000008913
322,3,0.8,0.25,-35.0,-1,1.0,0.2670999999998003
323,3,0.8,0.0,-35.0,-1,1.0,0.6295000000000073
324,3,0.2,1.0,35.0,1,1.0,0.6536999999998443
325,3,0.2,0.0,35.0,-1,0.0,3.423000000000002
326,3,0.2,0.125,-35.0,-1,1.0,4.020499999999856
327,3,0.2,0.25,35.0,-1,0.0,1.369899999999916
328,3,0.2,0.25,35.0,1,1.0,1.594000000000051
329,3,0.2,0.125,35.0,-1,0.0,5.610100000000102
330,3,0.2,0.125,35.0,-1,0.0,1.0109999999999673
331,3,0.2,1.0,35.0,1,1.0,3.460399999999936
332,3,0.2,0.125,35.0,-1,0.0,4.951099999999997
333,3,0.2,0.0,-35.0,-1,1.0,1.3273999999998978
334,3,0.2,1.0,35.0,-1,0.0,1.38799999999992
335,3,0.2,0.0,35.0,1,1.0,0.6476000000000113
336,3,0.2,1.0,-35.0,-1,1.0,1.2984999999998763
337,3,0.2,0.25,35.0,-1,0.0,2.660899999999856
338,3,0.2,0.125,-35.0,-1,1.0,4.64859999999976
339,3,0.2,0.0625,35.0,1,1.0,3.237899999999854
340,3,0.2,0.125,35.0,-1,0.0,4.352099999999837
341,3,0.2,0.25,35.0,1,1.0,4.915100000000166
342,3,0.2,0.0,35.0,1,1.0,2.652499999999918
343,3,0.2,1.0,35.0,1,1.0,0.5183999999999287
344,3,0.2,0.0625,35.0,1,1.0,1.0226999999999862
345,3,0.2,0.0,-35.0,-1,1.0,0.9921999999999116
346,3,0.2,0.125,-35.0,-1,1.0,0.5226999999999862
347,3,0.2,1.0,35.0,1,1.0,0.4619999999997617
348,3,0.2,1.0,35.0,1,1.0,0.32599999999979445
349,3,0.2,0.25,-35.0,-1,1.0,0.3921999999997752
350,3,0.2,1.0,35.0,1,1.0,0.5863000000001648
351,3,0.2,0.25,35.0,1,1.0,0.39229999999997744
352,3,0.2,1.0,35.0,-1,0.0,0.2929999999998927
353,3,0.2,0.0,35.0,1,1.0,0.5291999999999462
354,3,0.2,0.0,35.0,-1,0.0,0.7464999999999691
355,3,0.2,1.0,-35.0,-1,1.0,0.342600000000175
356,3,0.2,0.125,35.0,1,1.0,0.34989999999993415
357,3,0.2,0.125,35.0,1,1.0,0.28599999999983083
358,3,0.2,1.0,-35.0,-1,1.0,0.33009999999990214
359,3,0.2,0.0,-35.0,-1,1.0,0.5829999999998563
360,3,0.2,1.0,-35.0,-1,1.0,0.2436999999999898
361,3,0.2,0.125,-35.0,-1,1.0,0.3763000000001284
362,3,0.2,0.25,35.0,1,1.0,0.42049999999994725
363,3,0.2,0.25,-35.0,-1,1.0,0.3630999999998039
364,3,0.2,0.0,35.0,1,1.0,0.1572000000001026
365,3,0.2,1.0,35.0,1,1.0,0.22989999999981592
366,3,0.2,0.0,35.0,1,1.0,0.4574999999999818
367,3,0.2,0.0,-35.0,-1,1.0,0.44669999999996435
368,3,0.2,0.25,35.0,1,1.0,0.21089899999992667
369,3,0.2,0.0,-35.0,1,0.0,0.387000000000171
370,3,0.2,0.25,35.0,-1,0.0,0.1110999999998512
371,3,0.2,0.0625,35.0,-1,0.0,0.2870989999998983
372,3,0.2,0.0,35.0,-1,0.0,0.34370000000012624
373,3,0.2,0.0625,-35.0,-1,1.0,0.35469999999963875
374,3,0.2,1.0,35.0,-1,0.0,0.290599999999813
375,3,0.2,0.25,-35.0,-1,1.0,0.5148999999998978
376,3,0.2,0.125,35.0,1,1.0,0.23759999999992942
377,3,0.2,1.0,-35.0,-1,1.0,0.32169999999996435
378,3,0.2,0.25,35.0,1,1.0,0.4175999999997657
379,3,0.2,0.0625,35.0,-1,0.0,0.41190000000005966
380,3,0.2,0.0,35.0,-1,0.0,0.3646000000001095
381,3,0.2,0.125,35.0,1,1.0,0.5054000000000087
382,3,0.2,0.0,35.0,1,1.0,1.424600000000055
383,3,0.2,0.125,35.0,1,1.0,0.5786999999997988
384,3,0.2,0.125,35.0,1,1.0,0.2381000000000313
385,3,0.2,0.125,35.0,1,1.0,0.2922000000000935
386,3,0.2,0.125,35.0,1,1.0,0.3449000000000524
387,3,0.2,1.0,35.0,1,1.0,0.328899999999976
388,3,0.2,0.0625,35.0,1,1.0,0.36169999999992797
389,3,0.2,1.0,35.0,1,1.0,0.21910000000002583
390,3,0.2,0.0,35.0,1,1.0,0.2684999999999036
391,3,0.2,0.25,35.0,1,1.0,0.21949999999992542
392,3,0.2,0.0625,35.0,1,1.0,0.2920000000001437
393,3,0.2,0.25,35.0,1,1.0,0.4961000000000695
394,3,0.2,0.0625,35.0,1,1.0,0.2154000000000451
395,3,0.2,0.125,-35.0,-1,1.0,0.5529999999998836
396,3,0.2,0.0,-35.0,1,0.0,0.24549999999999272
397,3,0.2,1.0,35.0,1,1.0,0.6630999999999858
398,3,0.2,1.0,-35.0,-1,1.0,0.2824000000000524
399,3,0.2,0.0625,-35.0,-1,1.0,0.5330999999998767
400,3,0.2,1.0,35.0,1,1.0,0.27919999999994616
401,3,0.2,0.25,35.0,1,1.0,0.3065000000001419
402,3,0.2,1.0,35.0,1,1.0,0.38259999999991123
403,3,0.2,0.0625,35.0,1,1.0,0.3868999999999687
404,3,0.2,0.0,35.0,-1,0.0,0.24279999999998836
405,3,0.2,0.25,35.0,1,1.0,0.6536000000000968
406,3,0.2,0.0625,35.0,1,1.0,6.399499999999989
407,3,0.2,0.125,35.0,1,1.0,0.44399999999996
408,3,0.2,0.0625,35.0,1,1.0,1.8432000000000244
409,3,0.2,0.0,35.0,-1,0.0,0.6139989999999216
410,3,0.2,0.0,-35.0,-1,1.0,0.25329999999985375
411,3,0.2,0.125,35.0,1,1.0,0.4206000000001495
412,3,0.2,1.0,35.0,1,1.0,0.480199999999968
413,3,0.2,0.125,35.0,-1,0.0,2.7342999999998483
414,3,0.2,0.25,35.0,1,1.0,0.7235999999998057
415,3,0.2,0.25,35.0,1,1.0,0.5378000000000611
416,3,0.2,0.0625,35.0,1,1.0,0.7803999999998723
417,3,0.2,0.0625,-35.0,-1,1.0,3.9478999999998905
418,3,0.2,1.0,35.0,1,1.0,0.3506999999999607
419,3,0.2,0.25,35.0,1,1.0,0.3813000000000102
420,3,0.2,1.0,35.0,1,1.0,0.21739999999999782
421,3,0.8,0.25,35.0,1,1.0,0.29139999999983957
422,3,0.8,0.0,-35.0,-1,1.0,0.5441999999998188
423,3,0.8,0.25,-35.0,-1,1.0,0.32179999999971187
424,3,0.8,0.125,-35.0,-1,1.0,0.46109999999976026
425,3,0.8,0.25,-35.0,-1,1.0,0.48169899999993504
426,3,0.8,0.25,-35.0,-1,1.0,0.6378999999999451
427,3,0.8,0.0,-35.0,-1,1.0,3.921899999999823
428,3,0.8,0.125,-35.0,-1,1.0,4.054599999999937
429,3,0.8,1.0,-35.0,-1,1.0,0.7821989999999914
430,3,0.8,0.0625,-35.0,-1,1.0,3.9148999999999887
431,3,0.8,0.0,-35.0,-1,1.0,2.9689999999998236
432,3,0.8,0.125,-35.0,-1,1.0,3.385099999999966
433,3,0.8,0.125,-35.0,-1,1.0,3.822600000000193
434,3,0.8,0.0625,-35.0,-1,1.0,5.582099999999855
435,3,0.8,0.0,35.0,-1,0.0,0.5562999999999647
436,3,0.8,0.125,35.0,-1,0.0,7.835599999999886
437,3,0.8,0.0,35.0,-1,0.0,4.5465999999998985
438,3,0.8,0.125,-35.0,-1,1.0,8.365999999999758
439,3,0.8,0.125,-35.0,-1,1.0,1.9138000000000375
440,3,0.8,0.0,-35.0,-1,1.0,5.36629999999991
441,3,0.8,0.25,-35.0,-1,1.0,2.480400000000145
442,3,0.8,0.25,-35.0,-1,1.0,0.5464999999999236
443,3,0.8,0.25,-35.0,-1,1.0,0.5904999999997926
444,3,0.8,0.125,-35.0,-1,1.0,0.4933000000000902
445,3,0.2,0.0,35.0,-1,0.0,0.7106999999998607
1,4,0.5,0.0,35.0,1,1.0,0.6276999999999999
2,4,0.5,1.0,35.0,1,1.0,0.8529999999999998
4,4,0.5,0.0625,-35.0,-1,1.0,3.566399999999998
5,4,0.5,1.0,-35.0,-1,1.0,0.8784000000000027
8,4,0.5,0.0625,-35.0,-1,1.0,4.494300000000003
9,4,0.5,0.25,-35.0,-1,1.0,0.962299999999999
10,4,0.5,1.0,-35.0,-1,1.0,0.34250000000000824
11,4,0.5,0.0,-35.0,-1,1.0,0.4200000000000017
13,4,0.5,0.0,-35.0,-1,1.0,24.4931
15,4,0.5,0.0625,-35.0,-1,1.0,2.2186000000000092
16,4,0.5,0.0625,-35.0,-1,1.0,0.3223999999999876
18,4,0.5,1.0,-35.0,-1,1.0,0.6559000000000026
21,4,0.5,0.0,-35.0,-1,1.0,16.24030000000002
26,4,0.5,0.0625,-35.0,-1,1.0,1.091799999999978
28,4,0.5,0.0,35.0,1,1.0,1.1727999999999952
30,4,0.5,1.0,-35.0,-1,1.0,0.7833000000000538
32,4,0.5,1.0,35.0,1,1.0,1.0167000000000144
33,4,0.5,1.0,35.0,1,1.0,3.052000000000021
34,4,0.5,1.0,35.0,1,1.0,0.9597999999999729
36,4,0.5,0.125,35.0,1,1.0,4.30619999999999
37,4,0.5,1.0,-35.0,-1,1.0,0.6826000000000363
38,4,0.5,0.0625,-35.0,-1,1.0,9.700400000000059
39,4,0.5,1.0,35.0,1,1.0,1.0258000000000607
40,4,0.5,0.25,35.0,1,1.0,7.639400000000023
41,4,0.5,0.0,35.0,1,1.0,34.302099999999996
43,4,0.5,0.25,35.0,1,1.0,0.8980999999999995
45,4,0.5,1.0,35.0,1,1.0,0.6660000000000537
46,4,0.5,0.0,-35.0,-1,1.0,0.855700000000013
47,4,0.5,0.0,-35.0,-1,1.0,0.4099000000000501
48,4,0.5,1.0,-35.0,-1,1.0,0.369199999999978
49,4,0.5,0.25,35.0,1,1.0,0.6799000000000319
50,4,0.5,0.0625,-35.0,-1,1.0,0.7558999999999969
51,4,0.5,0.0,-35.0,-1,1.0,30.275699999999972
52,4,0.5,0.125,-35.0,-1,1.0,5.171900000000051
54,4,0.5,0.25,-35.0,-1,1.0,0.34579999999994016
55,4,0.5,0.0625,35.0,1,1.0,4.181700000000092
56,4,0.5,1.0,35.0,1,1.0,0.6526999999999816
58,4,0.5,1.0,35.0,1,1.0,3.092100000000073
59,4,0.5,0.25,35.0,1,1.0,31.00159999999994
61,4,0.5,1.0,35.0,1,1.0,0.7759999999999536
64,4,0.5,0.25,35.0,1,1.0,20.415399999999977
65,4,0.5,0.0625,35.0,1,1.0,13.09920000000011
66,4,0.5,0.0625,-35.0,-1,1.0,16.8057
67,4,0.5,1.0,-35.0,-1,1.0,0.4017000000000053
68,4,0.5,0.125,35.0,1,1.0,36.05819999999994
69,4,0.5,0.0625,-35.0,-1,1.0,22.65319999999997
71,4,0.5,0.25,35.0,1,1.0,0.43800000000010186
72,4,0.5,1.0,-35.0,-1,1.0,0.3038999999999987
75,4,0.5,0.125,35.0,1,1.0,0.5692000000000235
76,4,0.5,0.0625,-35.0,-1,1.0,0.7540000000000191
77,4,0.5,0.25,-35.0,-1,1.0,0.3745999999999867
78,4,0.5,0.125,35.0,1,1.0,5.410499999999956
82,4,0.5,1.0,-35.0,-1,1.0,0.65949999999998
86,4,0.5,0.25,-35.0,-1,1.0,1.379699999999957
87,4,0.5,0.25,-35.0,-1,1.0,0.5767000000000735
88,4,0.5,0.25,35.0,1,1.0,4.955899999999929
89,4,0.5,1.0,35.0,1,1.0,0.9401000000000295
91,4,0.8,1.0,-35.0,-1,1.0,4.651299999999992
92,4,0.8,1.0,35.0,1,1.0,0.4282999999998083
93,4,0.8,0.125,-35.0,-1,1.0,57.28729999999973
94,4,0.8,0.125,-35.0,-1,1.0,8.11609999999996
96,4,0.8,1.0,-35.0,-1,1.0,0.5294999999998709
97,4,0.8,0.125,-35.0,-1,1.0,1.2989999999997508
98,4,0.8,0.125,-35.0,-1,1.0,8.019799999999805
100,4,0.8,1.0,-35.0,-1,1.0,4.1805000000001655
103,4,0.8,1.0,-35.0,-1,1.0,14.602799999999661
105,4,0.8,1.0,-35.0,-1,1.0,0.358600000000024
107,4,0.8,0.0625,-35.0,-1,1.0,18.963999999999942
108,4,0.8,0.0625,-35.0,-1,1.0,9.34779999999978
109,4,0.8,0.0,-35.0,-1,1.0,2.547099999999773
110,4,0.8,0.0,-35.0,-1,1.0,1.114699999999857
111,4,0.8,1.0,35.0,1,1.0,0.2740000000001146
112,4,0.8,0.0625,-35.0,-1,1.0,10.208399999999983
113,4,0.8,0.125,-35.0,-1,1.0,6.214399999999841
115,4,0.8,0.25,-35.0,-1,1.0,0.22779999999988831
116,4,0.8,0.25,-35.0,-1,1.0,2.738800000000083
118,4,0.8,0.125,-35.0,-1,1.0,0.288899999999785
119,4,0.8,0.0625,-35.0,-1,1.0,2.4446999999997843
120,4,0.8,0.0,-35.0,-1,1.0,4.545799999999872
121,4,0.8,1.0,-35.0,-1,1.0,0.3616999999997006
124,4,0.2,1.0,-35.0,-1,1.0,0.5496999999998025
127,4,0.2,0.25,35.0,1,1.0,5.752200000000357
130,4,0.2,0.25,-35.0,-1,1.0,15.547299999999723
131,4,0.2,0.25,35.0,1,1.0,0.5918000000001484
133,4,0.2,1.0,35.0,1,1.0,0.5620000000003529
140,4,0.2,1.0,35.0,1,1.0,6.163899000000129
1,5,0.5,0.25,35.0,1,1.0,0.47150000000000003
2,5,0.5,1.0,35.0,1,1.0,0.4032
3,5,0.5,1.0,-35.0,-1,1.0,0.3116000000000003
4,5,0.5,0.25,-35.0,-1,1.0,0.28119999999999834
5,5,0.5,0.25,-35.0,-1,1.0,0.3582000000000001
7,5,0.5,1.0,-35.0,-1,1.0,0.3582999999999963
8,5,0.5,0.0625,35.0,1,1.0,0.3731000000000009
9,5,0.5,0.0,-35.0,-1,1.0,0.19539999999999935
10,5,0.5,0.125,-35.0,-1,1.0,0.18130000000000024
12,5,0.5,0.0,-35.0,-1,1.0,0.2406999999999968
13,5,0.5,0.125,35.0,1,1.0,0.45720099999999775
14,5,0.5,0.0625,-35.0,-1,1.0,0.31990100000000155
15,5,0.5,0.125,-35.0,-1,1.0,0.2087009999999978
18,5,0.5,0.125,35.0,1,1.0,0.33460100000000637
19,5,0.5,0.0625,-35.0,-1,1.0,0.4141010000000023
20,5,0.5,0.25,-35.0,-1,1.0,0.270101000000011
21,5,0.5,1.0,35.0,1,1.0,0.423601000000005
23,5,0.5,1.0,-35.0,-1,1.0,0.3261010000000084
25,5,0.5,1.0,35.0,1,1.0,0.28370099999999354
26,5,0.5,0.25,35.0,1,1.0,0.49400100000001146
27,5,0.5,1.0,35.0,1,1.0,0.278300999999999
28,5,0.5,1.0,35.0,1,1.0,0.3429009999999977
29,5,0.5,0.0,-35.0,-1,1.0,0.7588010000000054
31,5,0.5,0.0,35.0,1,1.0,0.3131010000000032
32,5,0.5,0.25,35.0,1,1.0,0.33700099999998656
35,5,0.5,0.25,35.0,1,1.0,0.49190099999995596
36,5,0.5,1.0,-35.0,-1,1.0,0.3430010000000152
37,5,0.5,0.0625,-35.0,-1,1.0,0.4300010000000043
38,5,0.5,0.25,-35.0,-1,1.0,0.46500099999997246
39,5,0.5,1.0,-35.0,-1,1.0,0.34860100000000216
40,5,0.5,0.125,35.0,1,1.0,0.38369999999997617
42,5,0.5,0.125,35.0,1,1.0,0.23580099999998083
43,5,0.5,0.25,-35.0,-1,1.0,0.3255010000000027
44,5,0.5,0.125,35.0,1,1.0,0.453000999999972
45,5,0.5,1.0,-35.0,-1,1.0,0.31060099999999125
46,5,0.5,0.0625,-35.0,-1,1.0,0.20880099999999402
48,5,0.5,0.25,-35.0,-1,1.0,0.36790099999998915
49,5,0.5,0.25,35.0,1,1.0,0.31760099999999625
50,5,0.5,0.0,-35.0,-1,1.0,0.33760099999997806
51,5,0.5,0.25,-35.0,-1,1.0,0.3483009999999922
52,5,0.5,0.125,35.0,1,1.0,0.36150099999997565
53,5,0.5,0.0,-35.0,-1,1.0,4.583900999999969
56,5,0.5,1.0,35.0,1,1.0,0.24910100000002444
58,5,0.5,0.0,-35.0,-1,1.0,0.4249010000000055
60,5,0.5,0.25,35.0,1,1.0,0.30910099999996987
62,5,0.5,1.0,-35.0,-1,1.0,0.32930099999998674
63,5,0.5,1.0,-35.0,-1,1.0,0.32180099999999356
64,5,0.5,0.0,-35.0,-1,1.0,0.5833010000000058
65,5,0.5,0.125,35.0,1,1.0,0.40660099999996646
67,5,0.5,0.25,-35.0,-1,1.0,0.19260099999996783
68,5,0.5,0.0,-35.0,-1,1.0,0.6668010000000208
69,5,0.5,0.0625,-35.0,-1,1.0,0.2637009999999691
70,5,0.5,0.0,-35.0,-1,1.0,0.42160100000000966
71,5,0.5,1.0,-35.0,-1,1.0,0.2902010000000246
72,5,0.5,0.0,-35.0,-1,1.0,0.4271009999999933
73,5,0.5,0.125,-35.0,-1,1.0,0.33250100000003613
74,5,0.5,1.0,-35.0,-1,1.0,0.23580099999998083
75,5,0.5,0.0625,-35.0,-1,1.0,0.42490100000003395
76,5,0.5,1.0,-35.0,-1,1.0,0.25320099999999
78,5,0.5,0.125,35.0,1,1.0,0.4802010000000223
79,5,0.5,0.0,35.0,1,1.0,0.3438009999999849
80,5,0.5,1.0,35.0,1,1.0,0.2657009999999218
81,5,0.5,1.0,-35.0,-1,1.0,0.1625010000000202
82,5,0.5,1.0,-35.0,-1,1.0,0.31180100000000266
84,5,0.5,1.0,35.0,1,1.0,0.33620100000001685
85,5,0.5,1.0,-35.0,-1,1.0,0.28300100000001294
86,5,0.5,0.25,-35.0,-1,1.0,0.2537009999999782
87,5,0.5,0.125,-35.0,-1,1.0,0.11060100000003104
88,5,0.5,1.0,-35.0,-1,1.0,0.15300100000001748
89,5,0.5,0.125,35.0,1,1.0,0.3591009999999528
90,5,0.5,0.25,35.0,1,1.0,0.2521009999999819
91,5,0.2,0.125,35.0,1,1.0,0.2859009999999671
92,5,0.2,0.0625,35.0,1,1.0,0.2642010000000141
93,5,0.2,0.125,-35.0,-1,1.0,0.2751010000000065
94,5,0.2,0.25,35.0,1,1.0,0.26670100000001185
95,5,0.2,1.0,35.0,1,1.0,0.5384010000000217
96,5,0.2,0.25,35.0,1,1.0,0.28150099999999156
97,5,0.2,1.0,35.0,1,1.0,0.25870099999997365
98,5,0.2,0.125,35.0,1,1.0,0.25560100000001285
99,5,0.2,1.0,35.0,1,1.0,0.1567009999999982
100,5,0.2,0.25,35.0,1,1.0,0.18410100000005514
101,5,0.2,0.25,35.0,1,1.0,0.17000099999995655
102,5,0.2,1.0,35.0,1,1.0,0.2817009999999982
103,5,0.2,0.0625,35.0,1,1.0,0.465800999999999
104,5,0.2,0.25,35.0,1,1.0,0.27260100000000875
105,5,0.2,0.125,35.0,1,1.0,0.2538009999999531
106,5,0.2,0.0625,35.0,1,1.0,0.29410100000001194
107,5,0.2,0.0625,35.0,1,1.0,0.33980100000002267
108,5,0.2,0.0,35.0,1,1.0,0.24060099999996964
109,5,0.2,0.25,35.0,1,1.0,0.22060100000004468
111,5,0.2,1.0,35.0,1,1.0,0.22680100000002312
112,5,0.2,0.25,-35.0,-1,1.0,0.35800100000000157
114,5,0.2,0.25,35.0,1,1.0,0.289400999999998
115,5,0.2,0.125,35.0,1,1.0,0.25110100000000557
116,5,0.2,1.0,35.0,1,1.0,0.23120099999999866
117,5,0.2,0.25,35.0,1,1.0,0.21290099999998802
119,5,0.2,0.25,35.0,1,1.0,0.2845999999999549
120,5,0.2,0.0625,35.0,1,1.0,4.1303009999999745
121,5,0.2,0.25,35.0,1,1.0,0.20960099999996373
122,5,0.2,1.0,35.0,1,1.0,0.22080099999999447
123,5,0.2,0.0625,35.0,1,1.0,0.2674009999999498
124,5,0.2,0.0,35.0,1,1.0,0.2731010000000538
125,5,0.2,0.0625,35.0,1,1.0,0.25250099999993836
127,5,0.2,0.25,-35.0,-1,1.0,0.7391010000000051
128,5,0.2,0.0625,35.0,1,1.0,0.29110100000002603
129,5,0.2,0.125,-35.0,-1,1.0,0.4033009999999422
130,5,0.2,0.125,35.0,1,1.0,0.2940009999999802
131,5,0.8,0.0,-35.0,-1,1.0,0.2736009999999851
132,5,0.8,1.0,-35.0,-1,1.0,0.3102010000000064
133,5,0.8,0.0625,35.0,1,1.0,0.41350099999999657
134,5,0.8,0.25,-35.0,-1,1.0,0.1589010000000144
135,5,0.8,1.0,-35.0,-1,1.0,0.2880010000001221
136,5,0.8,1.0,-35.0,-1,1.0,0.2740009999999984
138,5,0.8,0.0625,-35.0,-1,1.0,0.6617009999999937
139,5,0.8,0.0,-35.0,-1,1.0,0.8194009999999707
140,5,0.8,1.0,-35.0,-1,1.0,0.31320099999993545
141,5,0.8,0.125,-35.0,-1,1.0,0.40840099999991253
142,5,0.8,1.0,-35.0,-1,1.0,0.21400100000005295
143,5,0.8,0.0625,-35.0,-1,1.0,0.3326009999999542
144,5,0.8,0.25,-35.0,-1,1.0,0.27120099999990543
145,5,0.8,0.25,-35.0,-1,1.0,0.2904009999999744
146,5,0.8,0.125,-35.0,-1,1.0,0.26510099999995873
147,5,0.8,0.125,-35.0,-1,1.0,0.288400999999908
148,5,0.8,0.25,-35.0,-1,1.0,0.383000999999922
149,5,0.8,0.0,-35.0,-1,1.0,0.5364009999999553
150,5,0.8,0.25,-35.0,-1,1.0,0.4006010000000515
151,5,0.8,0.125,-35.0,-1,1.0,0.3043009999998958
152,5,0.8,0.0625,-35.0,-1,1.0,0.406900999999948
153,5,0.8,0.25,-35.0,-1,1.0,0.3645010000000184
154,5,0.8,0.0,-35.0,-1,1.0,0.6539010000000189
155,5,0.8,0.0,-35.0,-1,1.0,0.7065010000000029
156,5,0.8,0.0,-35.0,-1,1.0,0.3101010000000315
157,5,0.8,0.0,-35.0,-1,1.0,0.1284010000000535
158,5,0.8,0.0625,-35.0,-1,1.0,0.13790100000005623
159,5,0.8,1.0,-35.0,-1,1.0,0.25190100000008897
160,5,0.8,0.125,-35.0,-1,1.0,0.3907009999999218
162,5,0.8,0.25,35.0,1,1.0,0.26890100000002803
163,5,0.8,0.0,-35.0,-1,1.0,0.1307009999999309
164,5,0.8,0.125,-35.0,-1,1.0,0.3004009999999653
165,5,0.8,0.125,-35.0,-1,1.0,0.309900999999968
166,5,0.8,0.0625,-35.0,-1,1.0,0.3446010000000115
168,5,0.8,0.25,-35.0,-1,1.0,0.4103010000001177
169,5,0.8,0.0625,-35.0,-1,1.0,0.36120099999993727
170,5,0.8,0.125,-35.0,-1,1.0,0.47850099999993745
171,5,0.8,0.25,-35.0,-1,1.0,0.35950099999990925
172,5,0.8,0.0625,-35.0,-1,1.0,0.38980099999992035
173,5,0.8,0.0625,-35.0,-1,1.0,0.3383010000000013
174,5,0.8,0.0625,-35.0,-1,1.0,0.48990100000003167
175,5,0.8,0.0625,-35.0,-1,1.0,0.3144009999999753
176,5,0.8,0.0,35.0,1,1.0,0.22910099999990052
177,5,0.8,0.125,-35.0,-1,1.0,0.258000999999922
178,5,0.8,1.0,-35.0,-1,1.0,0.22040099999992435
179,5,0.8,0.25,-35.0,-1,1.0,0.37360099999989416
180,5,0.8,0.0625,35.0,1,1.0,0.5104010000000017
181,5,0.8,0.125,-35.0,-1,1.0,0.34580099999993763
183,5,0.8,1.0,-35.0,-1,1.0,0.26410100000009606
184,5,0.2,1.0,-35.0,-1,1.0,0.41630099999997583
185,5,0.2,0.25,-35.0,-1,1.0,0.36730099999999766
188,5,0.2,0.125,35.0,1,1.0,0.36920100000008915
189,5,0.2,0.0625,35.0,1,1.0,0.20230100000003404
190,5,0.2,1.0,35.0,1,1.0,0.2518009999998867
191,5,0.2,0.25,35.0,1,1.0,0.2920010000000275
192,5,0.2,0.25,35.0,1,1.0,0.2370010000000775
194,5,0.2,1.0,35.0,1,1.0,0.20480099999997492
195,5,0.2,0.0625,35.0,1,1.0,0.26210100000002967
196,5,0.2,1.0,35.0,1,1.0,0.32130099999994854
197,5,0.2,0.125,35.0,1,1.0,0.20560100000000148
198,5,0.2,1.0,-35.0,-1,1.0,0.26450099999999566
199,5,0.2,1.0,-35.0,-1,1.0,0.41800100000000384
200,5,0.2,0.125,35.0,1,1.0,0.2752010000000382
201,5,0.2,0.0625,35.0,1,1.0,0.2941009999999551
202,5,0.2,0.125,35.0,1,1.0,0.17050099999994472
203,5,0.2,0.0,35.0,1,1.0,0.15020099999992453
204,5,0.2,0.125,35.0,1,1.0,0.6906010000000151
205,5,0.2,0.125,35.0,1,1.0,0.23680100000001403
206,5,0.2,0.0625,35.0,1,1.0,0.184900999999968
207,5,0.2,1.0,35.0,1,1.0,0.3719010000000935
208,5,0.2,0.125,-35.0,-1,1.0,0.5441010000000688
209,5,0.2,0.125,35.0,1,1.0,0.2434009999999489
210,5,0.2,0.0,35.0,1,1.0,0.2096009999999069
213,5,0.2,0.0625,35.0,1,1.0,0.2758010000000013
216,5,0.2,0.0,35.0,1,1.0,0.22470099999998183
217,5,0.2,0.0,35.0,1,1.0,0.6738009999999122
218,5,0.2,1.0,35.0,1,1.0,0.2570010000000593
219,5,0.2,0.25,35.0,1,1.0,0.13330099999996037
220,5,0.2,1.0,35.0,1,1.0,0.19810099999995145
222,5,0.2,0.0625,35.0,1,1.0,0.508401000000049
223,5,0.2,0.25,35.0,1,1.0,0.4953009999999267
224,5,0.2,0.25,35.0,1,1.0,0.2231010000000424
225,5,0.2,0.0,35.0,1,1.0,0.12560100000007424
226,5,0.2,1.0,35.0,1,1.0,0.1872009999999591
227,5,0.2,1.0,35.0,1,1.0,0.20780100000001767
228,5,0.2,0.0,35.0,1,1.0,0.14710100000002058
229,5,0.2,0.0625,35.0,1,1.0,0.27640100000007806
230,5,0.2,0.25,35.0,1,1.0,0.15960099999995236
231,5,0.2,0.0,35.0,1,1.0,0.20440099999996164
232,5,0.2,0.0,35.0,1,1.0,0.24890099999993254
235,5,0.2,0.0625,35.0,1,1.0,0.22240099999999074
236,5,0.2,0.25,35.0,1,1.0,0.17130100000008497
237,5,0.2,0.0,35.0,1,1.0,0.6475010000000339
238,5,0.2,1.0,35.0,1,1.0,0.2571010000000342
239,5,0.2,0.0,35.0,1,1.0,0.1731009999999742
240,5,0.2,0.0,35.0,1,1.0,0.5384010000000217
241,5,0.2,0.0,35.0,1,1.0,0.51070100000004
242,5,0.2,1.0,35.0,1,1.0,0.42760099999998147
243,5,0.2,0.0,35.0,1,1.0,0.2575009999999338
245,5,0.2,0.0,35.0,1,1.0,0.4010010000000648
246,5,0.2,0.0,35.0,1,1.0,0.2919009999999389
247,5,0.2,0.25,35.0,1,1.0,0.3777010000001155
248,5,0.2,1.0,35.0,1,1.0,0.2653010000001359
249,5,0.2,0.125,35.0,1,1.0,0.1847010000001319
250,5,0.2,0.25,35.0,1,1.0,0.2821010000000115
251,5,0.2,0.0625,-35.0,-1,1.0,0.46810100000016064
253,5,0.2,0.0625,35.0,1,1.0,0.28830100000004677
255,5,0.8,0.25,-35.0,-1,1.0,0.3518010000002505
256,5,0.8,0.0,-35.0,-1,1.0,1.9893010000000686
257,5,0.8,0.125,-35.0,-1,1.0,0.18540099999995618
258,5,0.8,0.125,-35.0,-1,1.0,0.3362010000000737
259,5,0.8,0.125,35.0,1,1.0,0.5358010000002196
261,5,0.8,0.25,-35.0,-1,1.0,0.43580100000008315
262,5,0.8,0.125,-35.0,-1,1.0,0.2698009999999158
263,5,0.8,0.0625,35.0,1,1.0,0.2858009999999922
264,5,0.8,0.25,-35.0,-1,1.0,0.32000100000027487
266,5,0.8,1.0,35.0,1,1.0,0.20370100000013736
267,5,0.8,0.0625,-35.0,-1,1.0,0.42960100000004786
268,5,0.8,1.0,-35.0,-1,1.0,0.27040100000021994
269,5,0.8,0.125,-35.0,-1,1.0,0.4629010000003291
270,5,0.8,0.125,-35.0,-1,1.0,0.9804010000002563
271,5,0.8,0.25,-35.0,-1,1.0,0.39970100000005004
273,5,0.8,0.0625,-35.0,-1,1.0,0.3832009999998718
274,5,0.8,0.0625,-35.0,-1,1.0,0.38080100000024686
275,5,0.8,0.25,-35.0,-1,1.0,0.25020100000028833
277,5,0.8,0.125,35.0,1,1.0,0.5302010000000337
279,5,0.8,1.0,35.0,1,1.0,0.3137010000002647
280,5,0.8,1.0,-35.0,-1,1.0,0.19790100000000166
281,5,0.2,0.25,35.0,1,1.0,0.30720099999984996
282,5,0.2,0.25,35.0,1,1.0,0.19130100000006678
283,5,0.2,1.0,35.0,1,1.0,0.20740100000011807
284,5,0.2,1.0,35.0,1,1.0,0.23830100000031962
285,5,0.2,0.0625,35.0,1,1.0,0.2410010000000966
286,5,0.2,0.0625,35.0,1,1.0,0.2619010000000799
287,5,0.2,0.125,35.0,1,1.0,0.21770100000003367
288,5,0.2,0.125,35.0,1,1.0,0.17180100000018683
289,5,0.2,0.25,35.0,1,1.0,0.23820100000011735
291,5,0.2,0.0625,35.0,1,1.0,0.311301000000185
292,5,0.2,0.125,35.0,1,1.0,0.2957010000002356
293,5,0.2,0.125,35.0,1,1.0,0.2048010000000886
294,5,0.2,0.0625,35.0,1,1.0,0.5256010000000515
295,5,0.2,0.0625,35.0,1,1.0,0.2617010000001301
296,5,0.2,1.0,35.0,1,1.0,0.2192010000001119
297,5,0.2,0.25,35.0,1,1.0,0.5385010000002239
298,5,0.2,0.0625,35.0,1,1.0,0.579401000000189
299,5,0.2,0.25,35.0,1,1.0,0.4723010000002432
300,5,0.2,0.25,35.0,1,1.0,0.2661009999999351
301,5,0.2,1.0,35.0,1,1.0,0.1322010000001228
302,5,0.8,0.25,-35.0,-1,1.0,0.7764010000000781
303,5,0.8,0.0,35.0,1,1.0,0.352301000000125
304,5,0.8,0.25,-35.0,-1,1.0,0.3659010000001217
305,5,0.8,1.0,-35.0,-1,1.0,0.3199010000000726
306,5,0.8,1.0,-35.0,-1,1.0,0.36270100000024286
307,5,0.8,0.25,-35.0,-1,1.0,0.29670099999998456
308,5,0.8,1.0,-35.0,-1,1.0,0.2994010000002163
309,5,0.8,1.0,35.0,1,1.0,0.2468010000002323
310,5,0.8,1.0,-35.0,-1,1.0,0.3728009999999813
311,5,0.8,1.0,-35.0,-1,1.0,0.4003010000001268
312,5,0.8,1.0,35.0,1,1.0,0.1931010000000697
313,5,0.8,1.0,-35.0,-1,1.0,0.3039009999999962
314,5,0.8,0.25,-35.0,-1,1.0,0.2532010000002174
315,5,0.8,0.0625,-35.0,-1,1.0,0.3140010000001894
316,5,0.8,0.125,35.0,1,1.0,0.36670100000014827
317,5,0.8,0.0625,35.0,1,1.0,0.14080100000023776
318,5,0.8,1.0,-35.0,-1,1.0,0.19080099999996492
319,5,0.8,0.125,-35.0,-1,1.0,0.34110100000020793
320,5,0.8,0.0625,-35.0,-1,1.0,0.23030100000005405
321,5,0.8,0.125,-35.0,-1,1.0,0.5310010000002876
322,5,0.8,0.125,-35.0,-1,1.0,0.10700100000008206
323,5,0.8,1.0,-35.0,-1,1.0,0.30810100000030616
324,5,0.8,0.0625,-35.0,-1,1.0,0.22400100000004386
326,5,0.8,1.0,35.0,1,1.0,0.4441010000002734
327,5,0.8,1.0,-35.0,-1,1.0,0.3683010000002014
329,5,0.8,1.0,-35.0,-1,1.0,0.2851010000001679
330,5,0.8,0.0625,-35.0,-1,1.0,0.37130099999990307
332,5,0.8,1.0,-35.0,-1,1.0,0.3180010000000948
333,5,0.8,0.0625,35.0,1,1.0,0.71220100000005
334,5,0.8,0.0625,35.0,1,1.0,0.8247010000000046
335,5,0.8,0.25,-35.0,-1,1.0,0.26560100000028797
336,5,0.8,0.125,-35.0,-1,1.0,0.33830100000022867
337,5,0.8,0.0,-35.0,-1,1.0,0.3625010000000657
338,5,0.8,0.25,-35.0,-1,1.0,0.1951010000000224
339,5,0.8,0.0625,-35.0,-1,1.0,0.34250100000031125
340,5,0.8,1.0,-35.0,-1,1.0,0.255301000000145
341,5,0.8,1.0,35.0,1,1.0,0.3529009999999744
342,5,0.8,0.125,-35.0,-1,1.0,0.2754010000001017
343,5,0.8,0.125,-35.0,-1,1.0,0.5499010000000908
344,5,0.8,0.125,35.0,1,1.0,0.31890100000009625
345,5,0.8,0.0,-35.0,-1,1.0,0.2631010000002334
347,5,0.8,0.0625,35.0,1,1.0,0.8267010000001846
348,5,0.8,0.25,-35.0,-1,1.0,0.3160010000001421
350,5,0.8,0.125,-35.0,-1,1.0,1.58940100000018
351,5,0.8,1.0,-35.0,-1,1.0,0.17030100000010862
352,5,0.8,0.25,-35.0,-1,1.0,0.2030010000000857
353,5,0.8,0.25,-35.0,-1,1.0,0.23050100000000384
355,5,0.8,0.0,-35.0,-1,1.0,0.3739010000001599
356,5,0.8,0.0625,-35.0,-1,1.0,0.3233010000001286
358,5,0.8,0.125,35.0,1,1.0,1.360200999999961
359,5,0.8,0.0625,-35.0,-1,1.0,0.5080010000001494
