trial_num,session_num,stim_probability_left,contrast,position,response_choice,trial_correct,reaction_time
1,1,0.5,0.125,-35.0,-1,1.0,1.3325999999999993
2,1,0.5,0.25,35.0,1,1.0,0.2873990000000006
3,1,0.5,0.0625,35.0,1,1.0,0.0858989999999995
4,1,0.5,0.0625,-35.0,-1,1.0,0.2860989999999788
5,1,0.5,0.125,35.0,1,1.0,0.3216989999999953
6,1,0.5,0.0625,35.0,1,1.0,0.2978999999999985
7,1,0.5,1.0,35.0,1,1.0,0.2647000000000048
8,1,0.5,1.0,35.0,1,1.0,0.2143000000000086
9,1,0.5,0.125,-35.0,1,0.0,0.290898999999996
10,1,0.5,0.0,-35.0,1,0.0,0.26949899999999616
11,1,0.5,0.0,35.0,1,1.0,0.2369989999999973
12,1,0.5,0.125,35.0,1,1.0,0.20150000000001
13,1,0.5,1.0,-35.0,1,0.0,0.24580000000000268
14,1,0.5,0.125,35.0,1,1.0,0.23899899999997842
15,1,0.5,1.0,35.0,1,1.0,0.24489900000000375
16,1,0.5,0.0625,35.0,1,1.0,0.10070000000001755
17,1,0.5,0.0,35.0,1,1.0,0.257899000000009
18,1,0.5,0.0625,35.0,1,1.0,0.27039999999996667
19,1,0.5,0.0625,35.0,1,1.0,0.27399900000000343
20,1,0.5,0.0,35.0,1,1.0,0.2826989999999796
21,1,0.5,0.0625,35.0,1,1.0,0.26289900000003286
22,1,0.5,0.0625,35.0,1,1.0,0.253799000000015
23,1,0.5,1.0,35.0,1,1.0,0.25839899999999716
24,1,0.5,1.0,-35.0,-1,1.0,0.474599000000012
25,1,0.5,0.25,-35.0,-1,1.0,0.5164990000000103
26,1,0.5,0.125,35.0,1,1.0,0.2229989999999873
27,1,0.5,1.0,35.0,1,1.0,0.2854990000000157
28,1,0.5,0.25,35.0,1,1.0,0.27399900000000343
29,1,0.5,0.125,-35.0,-1,1.0,0.6386990000000026
30,1,0.5,1.0,-35.0,-1,1.0,0.38799900000000775
31,1,0.5,1.0,35.0,1,1.0,0.2421989999999994
32,1,0.5,0.0625,35.0,1,1.0,0.2849989999999707
33,1,0.5,0.25,-35.0,1,0.0,0.12639900000002058
34,1,0.5,0.0,35.0,1,1.0,0.2740990000000352
35,1,0.5,0.25,-35.0,1,0.0,0.2943989999999417
36,1,0.5,1.0,-35.0,-1,1.0,0.38949999999994134
37,1,0.5,0.25,-35.0,-1,1.0,0.2963990000000081
38,1,0.5,0.25,-35.0,-1,1.0,0.4048999999999978
39,1,0.5,0.0,35.0,1,1.0,0.36279899999999543
40,1,0.5,1.0,35.0,1,1.0,0.25629899999995587
41,1,0.5,0.0625,-35.0,1,0.0,0.29439999999993915
42,1,0.5,0.0,-35.0,1,0.0,0.22919899999999416
43,1,0.5,0.25,35.0,1,1.0,0.30109899999996514
44,1,0.5,1.0,35.0,1,1.0,0.23599999999999
45,1,0.5,1.0,-35.0,-1,1.0,0.22059999999999036
46,1,0.5,0.0,-35.0,-1,1.0,0.36049900000000434
47,1,0.5,0.0625,-35.0,-1,1.0,0.32339899999993804
48,1,0.5,0.125,-35.0,-1,1.0,0.29649899999998297
49,1,0.5,1.0,-35.0,-1,1.0,0.11099899999993568
50,1,0.5,0.0625,35.0,1,1.0,0.41629999999997835
51,1,0.5,0.0625,35.0,1,1.0,0.5740999999999872
52,1,0.5,1.0,35.0,1,1.0,0.2751999999999839
53,1,0.5,0.0625,35.0,1,1.0,0.3458989999999744
54,1,0.5,1.0,35.0,1,1.0,0.31260000000003174
55,1,0.5,0.0,-35.0,1,0.0,0.3947989999999777
56,1,0.5,0.25,-35.0,-1,1.0,0.230700000000013
57,1,0.5,1.0,35.0,1,1.0,0.7265000000000441
58,1,0.5,0.0625,-35.0,1,0.0,0.277699000000041
59,1,0.5,0.0,-35.0,1,0.0,0.32380000000000564
60,1,0.5,0.0,-35.0,1,0.0,0.32829900000001544
61,1,0.5,0.0625,-35.0,-1,1.0,0.6002000000000294
62,1,0.5,1.0,35.0,1,1.0,0.2722999999999729
63,1,0.5,1.0,35.0,1,1.0,0.21039999999999281
64,1,0.5,0.0,-35.0,1,0.0,0.28949999999997544
65,1,0.5,0.125,35.0,1,1.0,0.30359999999996035
66,1,0.5,0.0,35.0,1,1.0,0.2858999999999696
67,1,0.5,1.0,-35.0,-1,1.0,0.27999999999991587
68,1,0.5,0.0625,-35.0,-1,1.0,0.28659999999996444
69,1,0.5,0.0,35.0,-1,0.0,0.5679999999999268
70,1,0.5,1.0,-35.0,1,0.0,0.26139899999998306
71,1,0.5,0.125,35.0,1,1.0,0.2773989999999458
72,1,0.5,0.125,35.0,1,1.0,0.26219999999995025
73,1,0.5,0.25,-35.0,-1,1.0,0.29369899999994686
74,1,0.5,0.0625,35.0,1,1.0,0.280399999999986
75,1,0.5,0.125,-35.0,1,0.0,0.3289999999999509
76,1,0.5,0.125,35.0,1,1.0,0.24169999999998026
77,1,0.5,0.0625,35.0,1,1.0,0.1534990000000107
78,1,0.5,0.125,-35.0,-1,1.0,0.44950000000000045
79,1,0.5,0.25,-35.0,1,0.0,0.22329899999999725
80,1,0.5,0.125,35.0,1,1.0,0.2049989999999866
81,1,0.5,0.25,-35.0,1,0.0,0.16339899999996987
82,1,0.5,0.125,-35.0,1,0.0,0.27549899999996796
83,1,0.5,0.0,-35.0,1,0.0,0.24999999999994316
84,1,0.5,0.0,-35.0,-1,1.0,1.894399999999962
85,1,0.5,0.25,-35.0,-1,1.0,0.20769999999998845
86,1,0.5,0.125,35.0,1,1.0,0.5406990000000178
87,1,0.5,0.0,-35.0,1,0.0,0.42739999999997735
88,1,0.5,1.0,35.0,1,1.0,0.2184989999999516
89,1,0.5,0.0625,35.0,1,1.0,0.3063999999999396
90,1,0.5,0.0625,35.0,-1,0.0,0.10739999999998417
91,1,0.2,0.125,-35.0,-1,1.0,0.25139999999998963
92,1,0.2,0.125,35.0,-1,0.0,0.0933989999999767
93,1,0.2,0.125,35.0,1,1.0,0.24459999999999127
94,1,0.2,0.0,35.0,1,1.0,0.2377999999999929
95,1,0.2,1.0,-35.0,-1,1.0,0.3639989999999784
96,1,0.2,0.25,35.0,1,1.0,0.312199000000021
97,1,0.2,0.0,35.0,-1,0.0,1.7143000000000939
98,1,0.2,1.0,35.0,1,1.0,0.2629989999999225
99,1,0.2,1.0,35.0,1,1.0,0.2809989999999516
100,1,0.2,0.25,35.0,1,1.0,0.202698999999825
101,1,0.2,0.125,35.0,1,1.0,0.32429899999988265
102,1,0.2,0.125,35.0,1,1.0,0.6535999999999831
103,1,0.2,0.0625,-35.0,-1,1.0,0.08379899999999907
104,1,0.2,0.0,35.0,-1,0.0,0.11789999999996326
105,1,0.2,0.125,35.0,1,1.0,0.34190000000000964
106,1,0.2,0.0,-35.0,1,0.0,0.33009899999990466
107,1,0.2,0.0625,35.0,-1,0.0,2.5179990000000316
108,1,0.2,0.0625,35.0,1,1.0,0.25769900000000234
109,1,0.2,0.25,35.0,1,1.0,0.14129900000000362
110,1,0.2,0.25,-35.0,-1,1.0,0.25129899999990357
111,1,0.2,0.125,35.0,1,1.0,0.22629999999992378
112,1,0.2,0.0625,35.0,-1,0.0,0.3868999999999687
113,1,0.2,0.125,35.0,-1,0.0,0.42640000000005784
114,1,0.2,0.0625,35.0,1,1.0,0.8211989999999787
115,1,0.2,0.0,35.0,1,1.0,0.28819899999996323
116,1,0.2,1.0,-35.0,-1,1.0,0.28789900000003854
117,1,0.2,0.125,35.0,1,1.0,0.10049999999989723
118,1,0.2,0.125,-35.0,-1,1.0,0.3369990000001053
119,1,0.2,1.0,35.0,1,1.0,0.21719999999993433
120,1,0.2,0.0,35.0,1,1.0,0.2216000000000804
121,1,0.2,0.0,35.0,1,1.0,0.20739900000000944
122,1,0.2,0.125,35.0,1,1.0,0.2648999999998978
123,1,0.2,1.0,-35.0,-1,1.0,0.2522000000000162
124,1,0.2,0.25,35.0,1,1.0,0.21699899999987338
125,1,0.2,0.0625,-35.0,-1,1.0,0.10289899999997942
126,1,0.2,1.0,35.0,1,1.0,0.15509899999995014
127,1,0.2,0.0,35.0,1,1.0,0.2904989999999543
128,1,0.2,0.0,-35.0,1,0.0,0.3817990000000009
129,1,0.2,0.25,35.0,1,1.0,0.28789899999992485
130,1,0.2,0.0,-35.0,1,0.0,0.2986999999999398
131,1,0.2,0.0625,35.0,1,1.0,0.23319899999989957
132,1,0.2,0.25,35.0,1,1.0,0.23039999999991778
133,1,0.2,0.0,35.0,1,1.0,0.29769899999996596
134,1,0.2,1.0,35.0,1,1.0,0.28029899999989993
135,1,0.2,0.25,35.0,1,1.0,0.2729989999999134
136,1,0.2,1.0,35.0,1,1.0,0.24169899999992595
137,1,0.2,1.0,35.0,1,1.0,0.2486989999998741
138,1,0.2,0.0625,35.0,1,1.0,0.23719999999991614
139,1,0.2,1.0,-35.0,-1,1.0,0.24129900000002635
140,1,0.2,0.0625,35.0,1,1.0,0.27519900000004327
141,1,0.2,0.25,35.0,1,1.0,0.19880000000000564
142,1,0.2,0.0,35.0,-1,0.0,0.3980989999998883
143,1,0.2,0.25,35.0,1,1.0,0.24080000000003565
144,1,0.2,0.25,35.0,1,1.0,0.3548990000000458
145,1,0.2,1.0,35.0,1,1.0,0.2549989999998843
146,1,0.2,0.125,35.0,1,1.0,0.23230000000000928
147,1,0.2,0.125,35.0,1,1.0,0.27930000000003474
148,1,0.2,0.0,35.0,1,1.0,0.2669989999999416
149,1,0.2,0.0625,35.0,1,1.0,0.16489899999999125
150,1,0.2,0.0625,35.0,1,1.0,0.3511989999999514
151,1,0.2,0.25,35.0,1,1.0,0.23329899999998815
152,1,0.2,0.25,-35.0,1,0.0,0.280399999999986
153,1,0.2,0.0625,35.0,1,1.0,0.2282989999999927
154,1,0.2,0.125,35.0,1,1.0,0.35269899999991594
155,1,0.2,0.25,35.0,1,1.0,0.21469999999999345
156,1,0.2,0.125,35.0,1,1.0,0.19849899999996978
157,1,0.8,0.25,35.0,1,1.0,0.2019990000000007
158,1,0.8,0.125,35.0,1,1.0,0.22929999999996653
159,1,0.8,0.0625,-35.0,1,0.0,0.28510000000005675
160,1,0.8,0.0625,-35.0,-1,1.0,0.3745000000000118
161,1,0.8,0.0625,-35.0,1,0.0,0.3345990000000256
162,1,0.8,0.25,-35.0,-1,1.0,0.3957999999998947
163,1,0.8,0.125,-35.0,-1,1.0,0.35019999999985885
164,1,0.8,1.0,35.0,1,1.0,0.2304990000000089
165,1,0.8,0.0625,35.0,1,1.0,0.2821999999999889
166,1,0.8,0.0,-35.0,-1,1.0,0.4057999999998856
167,1,0.8,0.125,35.0,1,1.0,0.4481990000000451
168,1,0.8,1.0,-35.0,-1,1.0,0.2608999999998787
169,1,0.8,0.0625,35.0,1,1.0,0.2630990000000111
170,1,0.8,0.125,-35.0,-1,1.0,0.30719999999996617
171,1,0.8,0.25,-35.0,-1,1.0,0.38319899999987683
172,1,0.8,0.125,35.0,1,1.0,0.2886990000000651
173,1,0.8,0.0,-35.0,1,0.0,0.2488989999999376
174,1,0.8,0.0625,-35.0,-1,1.0,0.397199999999998
175,1,0.8,0.25,-35.0,1,0.0,0.26910000000009404
176,1,0.8,0.0,-35.0,1,0.0,0.25349900000003345
177,1,0.8,0.0625,-35.0,1,0.0,0.1476989999999887
178,1,0.8,0.0,-35.0,-1,1.0,0.3468999999998914
179,1,0.8,0.0,-35.0,1,0.0,0.2948999999999842
180,1,0.8,0.125,-35.0,1,0.0,0.31969999999989795
181,1,0.8,1.0,-35.0,-1,1.0,0.28099999999994907
182,1,0.8,1.0,-35.0,-1,1.0,0.23850000000004457
183,1,0.8,1.0,-35.0,-1,1.0,0.23959999999988213
184,1,0.8,1.0,-35.0,-1,1.0,0.2961999999999989
185,1,0.8,0.0625,-35.0,-1,1.0,0.31579899999996996
186,1,0.8,0.0625,35.0,1,1.0,0.5130000000000337
187,1,0.8,0.0625,35.0,1,1.0,0.3226989999999432
188,1,0.8,0.25,-35.0,-1,1.0,0.286899999999946
189,1,0.8,0.125,-35.0,-1,1.0,0.26310000000000855
190,1,0.8,0.125,-35.0,-1,1.0,0.2608989999998812
191,1,0.8,0.25,-35.0,-1,1.0,0.33019899999987956
192,1,0.8,1.0,-35.0,-1,1.0,0.30759900000009566
193,1,0.8,0.0625,35.0,1,1.0,0.2379999999999427
194,1,0.8,1.0,-35.0,-1,1.0,0.4692999999999756
195,1,0.8,0.25,35.0,1,1.0,0.21219999999993888
196,1,0.8,0.25,-35.0,-1,1.0,0.48279999999999745
197,1,0.8,0.25,35.0,1,1.0,0.2851989999999205
198,1,0.8,1.0,-35.0,-1,1.0,0.258199999999988
199,1,0.8,0.25,35.0,1,1.0,0.2729990000000271
200,1,0.8,0.0,-35.0,1,0.0,0.3049989999999525
201,1,0.8,0.0625,-35.0,-1,1.0,0.33679899999992813
202,1,0.8,0.125,-35.0,1,0.0,0.32609899999999925
203,1,0.8,0.0625,-35.0,-1,1.0,0.4536000000000513
204,1,0.8,0.0625,-35.0,-1,1.0,0.2904999999999518
205,1,0.8,0.125,-35.0,-1,1.0,0.26929900000004636
206,1,0.8,0.0625,35.0,1,1.0,0.27009899999995923
207,1,0.8,0.0625,-35.0,1,0.0,0.24939899999992576
208,1,0.8,0.25,-35.0,-1,1.0,0.39809999999999945
209,1,0.8,1.0,-35.0,-1,1.0,0.3515989999999647
210,1,0.8,0.125,-35.0,-1,1.0,0.2965990000000147
211,1,0.8,0.0625,-35.0,-1,1.0,0.3409990000000107
212,1,0.8,0.125,-35.0,-1,1.0,0.30329999999992197
213,1,0.8,0.125,35.0,1,1.0,0.2792989999999236
214,1,0.8,1.0,35.0,1,1.0,0.232398999999873
215,1,0.8,0.25,-35.0,-1,1.0,0.35979999999995016
216,1,0.8,1.0,-35.0,1,0.0,0.09859999999991942
217,1,0.8,1.0,-35.0,-1,1.0,0.4358989999999494
218,1,0.8,0.0625,35.0,-1,0.0,0.13689899999997124
219,1,0.8,0.0,-35.0,-1,1.0,0.11699899999996433
220,1,0.8,1.0,-35.0,-1,1.0,0.2574000000000751
221,1,0.8,0.0,-35.0,1,0.0,0.30409899999995105
222,1,0.8,0.25,-35.0,-1,1.0,0.3574990000000753
223,1,0.8,0.125,35.0,1,1.0,0.25900000000001455
224,1,0.8,0.0625,35.0,1,1.0,0.18889899999987847
225,1,0.8,0.0625,-35.0,-1,1.0,1.0766999999999598
226,1,0.8,0.125,-35.0,1,0.0,0.23950000000002092
227,1,0.8,0.125,-35.0,-1,1.0,0.37009899999998197
228,1,0.8,0.125,-35.0,-1,1.0,0.2994989999999689
229,1,0.8,0.125,-35.0,-1,1.0,0.3134989999999789
230,1,0.2,1.0,35.0,1,1.0,0.2460000000000946
231,1,0.2,0.25,35.0,1,1.0,0.22689999999988686
232,1,0.2,1.0,35.0,1,1.0,0.37259900000003654
233,1,0.2,0.0625,35.0,1,1.0,0.23039900000026137
234,1,0.2,0.125,35.0,1,1.0,0.3594989999999143
235,1,0.2,0.25,35.0,1,1.0,0.2705989999999474
236,1,0.2,1.0,-35.0,-1,1.0,0.3167990000001737
237,1,0.2,0.0,35.0,-1,0.0,0.45400000000017826
238,1,0.2,0.0625,-35.0,-1,1.0,0.31979999999998654
239,1,0.2,0.125,-35.0,-1,1.0,0.42069900000001326
240,1,0.2,1.0,35.0,1,1.0,0.2966999999998734
241,1,0.2,0.125,35.0,1,1.0,0.28089999999997417
242,1,0.2,0.25,35.0,1,1.0,0.30050000000028376
243,1,0.2,0.125,35.0,1,1.0,0.28759900000000016
244,1,0.2,1.0,35.0,1,1.0,0.24710000000004584
245,1,0.2,0.125,35.0,-1,0.0,0.09769900000014786
246,1,0.2,0.0,-35.0,1,0.0,0.41099899999994705
247,1,0.2,1.0,35.0,1,1.0,0.24399900000003072
248,1,0.2,0.0625,35.0,-1,0.0,0.10130000000003747
249,1,0.2,0.0,35.0,-1,0.0,0.6937990000003538
250,1,0.2,0.0,-35.0,-1,1.0,3.1012990000001537
251,1,0.2,0.125,-35.0,-1,1.0,0.2980999999999767
252,1,0.2,0.0,35.0,1,1.0,0.16809900000021116
253,1,0.2,0.125,35.0,1,1.0,4.077499000000216
254,1,0.2,0.125,35.0,1,1.0,0.3183000000001357
255,1,0.2,0.0,35.0,-1,0.0,1.7071990000001733
256,1,0.2,1.0,35.0,1,1.0,0.271900000000187
257,1,0.2,1.0,35.0,1,1.0,0.2380990000001475
258,1,0.2,0.125,35.0,1,1.0,0.28520000000003165
259,1,0.2,0.0625,35.0,1,1.0,2.347500000000082
260,1,0.2,0.125,35.0,-1,0.0,2.498699000000215
261,1,0.2,1.0,-35.0,-1,1.0,0.2513000000001284
262,1,0.2,1.0,-35.0,-1,1.0,0.392100000000255
263,1,0.2,0.0,-35.0,1,0.0,0.31130000000007385
264,1,0.2,1.0,35.0,1,1.0,0.27880000000004657
265,1,0.2,1.0,35.0,1,1.0,0.3245990000002621
266,1,0.2,0.125,-35.0,-1,1.0,0.2922990000001846
267,1,0.2,0.0,35.0,-1,0.0,1.2081990000001497
268,1,0.2,1.0,-35.0,-1,1.0,0.4291000000002896
269,1,0.2,0.125,35.0,1,1.0,0.2619990000002872
270,1,0.2,1.0,35.0,1,1.0,0.27920000000017353
271,1,0.2,0.0625,35.0,1,1.0,0.25509900000020025
272,1,0.2,0.0,35.0,1,1.0,0.28589899999997215
273,1,0.2,0.0625,35.0,1,1.0,0.2617999999999938
274,1,0.2,0.0625,35.0,1,1.0,0.3226990000000569
275,1,0.2,0.125,35.0,1,1.0,0.2685990000002221
276,1,0.2,0.0,35.0,1,1.0,0.2460999999998421
277,1,0.2,1.0,35.0,1,1.0,0.21519900000021153
278,1,0.2,1.0,35.0,1,1.0,0.21949900000004163
279,1,0.2,1.0,35.0,1,1.0,0.21569899999985864
280,1,0.2,0.0,35.0,1,1.0,0.30310000000008586
281,1,0.2,0.125,35.0,1,1.0,0.4320990000001075
282,1,0.8,0.0,-35.0,-1,1.0,4.49639900000011
283,1,0.8,1.0,-35.0,-1,1.0,0.3388990000000831
284,1,0.8,0.0625,-35.0,-1,1.0,0.37320000000022446
285,1,0.8,1.0,35.0,1,1.0,0.27880000000004657
286,1,0.8,0.0,-35.0,-1,1.0,0.536799000000201
287,1,0.8,0.25,-35.0,-1,1.0,0.3199000000001888
288,1,0.8,0.125,-35.0,-1,1.0,0.8400990000002366
289,1,0.8,0.25,-35.0,-1,1.0,0.42980000000011387
290,1,0.8,1.0,-35.0,-1,1.0,0.3101990000002388
291,1,0.8,0.0,-35.0,1,0.0,14.012700000000223
292,1,0.8,0.0,-35.0,-1,1.0,13.993799000000081
293,1,0.8,0.25,-35.0,-1,1.0,1.1531000000002223
294,1,0.8,0.0625,-35.0,-1,1.0,35.92739899999992
295,1,0.8,0.125,-35.0,-1,1.0,1.4408990000001722
296,1,0.8,0.25,-35.0,-1,1.0,1.7548000000001593
297,1,0.8,0.25,-35.0,-1,1.0,0.39399900000012167
298,1,0.8,0.0,-35.0,1,0.0,13.578400000000101
299,1,0.8,0.0,35.0,1,1.0,33.29750000000013
300,1,0.8,0.25,-35.0,-1,1.0,0.37220000000002074
301,1,0.8,0.125,-35.0,-1,1.0,1.4718990000001213
302,1,0.8,0.25,-35.0,-1,1.0,0.25899900000013076
303,1,0.8,0.125,-35.0,-1,1.0,0.26890000000003056
304,1,0.8,0.0,-35.0,1,0.0,1.9323990000000322
305,1,0.8,0.0625,-35.0,-1,1.0,1.2688989999999194
306,1,0.8,0.125,35.0,1,1.0,0.5158989999999903
307,1,0.8,0.0,-35.0,1,0.0,26.37809900000002
308,1,0.8,0.0625,-35.0,-1,1.0,22.869799000000285
309,1,0.8,0.0625,-35.0,-1,1.0,4.709199000000353
310,1,0.8,0.25,-35.0,-1,1.0,1.5568000000000666
311,1,0.8,0.0625,35.0,1,1.0,9.226298999999926
312,1,0.8,0.125,-35.0,-1,1.0,0.30379999999991014
313,1,0.8,1.0,-35.0,-1,1.0,0.2699000000000069
314,1,0.8,0.25,-35.0,-1,1.0,1.0472990000002937
315,1,0.8,0.0625,-35.0,1,0.0,4.909600000000182
316,1,0.8,1.0,-35.0,-1,1.0,0.22069899999996778
317,1,0.8,0.25,-35.0,-1,1.0,5.833699999999908
318,1,0.8,0.125,-35.0,-1,1.0,0.9208999999998468
319,1,0.8,1.0,-35.0,-1,1.0,0.6135000000001583
320,1,0.8,0.25,35.0,1,1.0,2.844299000000092
321,1,0.8,0.125,-35.0,-1,1.0,0.48029900000028647
322,1,0.8,0.25,-35.0,-1,1.0,0.3777990000000955
323,1,0.8,0.125,-35.0,-1,1.0,2.873698999999988
324,1,0.8,0.0,-35.0,1,0.0,8.637899000000061
325,1,0.8,0.125,-35.0,-1,1.0,1.4771000000002914
326,1,0.8,0.0,-35.0,-1,1.0,1.038099000000102
327,1,0.8,1.0,-35.0,-1,1.0,0.27379900000005364
328,1,0.2,1.0,-35.0,-1,1.0,0.26159899999993286
329,1,0.2,1.0,35.0,1,1.0,0.32389899999998306
330,1,0.2,0.0,35.0,-1,0.0,4.288299000000052
331,1,0.2,0.25,35.0,1,1.0,2.177599999999984
332,1,0.2,0.25,35.0,-1,0.0,0.5385000000001128
333,1,0.2,0.125,35.0,1,1.0,2.3049989999999525
334,1,0.2,0.0,-35.0,-1,1.0,27.362100000000055
335,1,0.2,0.0625,35.0,1,1.0,12.788300000000163
336,1,0.2,0.0,35.0,1,1.0,4.922598999999991
337,1,0.2,0.0625,35.0,1,1.0,6.775300000000016
338,1,0.2,0.25,35.0,1,1.0,1.5929000000000997
339,1,0.2,1.0,35.0,1,1.0,0.30940000000009604
340,1,0.2,0.0,35.0,1,1.0,7.1929990000001
341,1,0.2,0.0625,35.0,1,1.0,3.3321990000001733
342,1,0.2,0.125,35.0,-1,0.0,3.5164000000002034
343,1,0.2,0.0625,35.0,1,1.0,3.335599000000002
344,1,0.2,0.0,35.0,-1,0.0,5.9268990000000485
345,1,0.2,1.0,35.0,1,1.0,0.2795000000000982
346,1,0.2,0.0625,35.0,1,1.0,0.3835990000000038
347,1,0.2,0.25,35.0,1,1.0,0.2968989999999394
348,1,0.2,0.125,35.0,1,1.0,0.5170000000000528
349,1,0.2,1.0,35.0,1,1.0,0.28959900000018024
350,1,0.8,0.0,-35.0,1,0.0,0.567098999999871
351,1,0.8,0.0625,-35.0,-1,1.0,0.6001989999999751
352,1,0.8,0.0625,-35.0,-1,1.0,0.33719900000028247
353,1,0.8,0.0625,-35.0,-1,1.0,3.1437989999999445
354,1,0.8,0.25,-35.0,-1,1.0,0.8072999999999411
355,1,0.8,1.0,-35.0,-1,1.0,0.3832990000000791
356,1,0.8,0.0625,-35.0,-1,1.0,0.700800000000072
357,1,0.8,1.0,35.0,1,1.0,0.2766990000002352
358,1,0.8,0.0,-35.0,-1,1.0,6.374299999999948
359,1,0.8,0.0,-35.0,1,0.0,0.4039989999998852
360,1,0.8,0.125,-35.0,-1,1.0,4.334400000000187
361,1,0.8,0.0,-35.0,1,0.0,0.5570000000000164
362,1,0.8,0.125,35.0,1,1.0,4.684600000000046
363,1,0.8,1.0,-35.0,-1,1.0,0.2039990000000671
364,1,0.8,1.0,-35.0,-1,1.0,0.29129900000020825
365,1,0.8,0.0,-35.0,-1,1.0,3.7248000000001866
366,1,0.8,0.0,-35.0,1,0.0,0.6016000000001895
367,1,0.8,0.0,-35.0,-1,1.0,3.904498999999987
368,1,0.8,0.0,-35.0,-1,1.0,14.058399000000236
369,1,0.8,0.0,-35.0,-1,1.0,8.874300000000176
370,1,0.8,0.0625,-35.0,-1,1.0,5.012100000000146
371,1,0.8,1.0,-35.0,-1,1.0,0.28139900000019225
372,1,0.8,1.0,-35.0,-1,1.0,0.222199000000046
373,1,0.8,0.25,-35.0,-1,1.0,0.40540000000032705
374,1,0.8,0.25,35.0,1,1.0,0.26569999999992433
375,1,0.8,0.0625,-35.0,1,0.0,0.5484990000002199
376,1,0.8,0.0625,35.0,1,1.0,3.6257990000001428
377,1,0.8,0.125,35.0,1,1.0,0.31919900000025336
378,1,0.8,0.0,-35.0,1,0.0,1.5461000000002514
379,1,0.8,0.125,35.0,1,1.0,3.5189989999998943
380,1,0.8,0.25,-35.0,-1,1.0,0.3527990000002319
381,1,0.8,0.125,-35.0,-1,1.0,0.38219900000012785
382,1,0.8,0.0,-35.0,-1,1.0,2.376299999999901
383,1,0.8,1.0,35.0,1,1.0,0.2454990000003363
384,1,0.2,0.25,-35.0,-1,1.0,0.2697000000000571
385,1,0.2,0.125,35.0,1,1.0,0.3461000000002059
386,1,0.2,0.0,35.0,-1,0.0,2.2032000000001517
387,1,0.2,0.125,35.0,1,1.0,0.3028990000000249
388,1,0.2,0.0625,35.0,1,1.0,0.3065990000000056
389,1,0.2,0.25,-35.0,-1,1.0,0.5461990000001151
390,1,0.2,0.125,35.0,1,1.0,0.6000990000002275
391,1,0.2,0.0,35.0,-1,0.0,3.1158990000001268
392,1,0.2,0.25,35.0,1,1.0,0.30359900000007656
393,1,0.2,1.0,35.0,1,1.0,0.2660000000000764
394,1,0.2,0.0,35.0,1,1.0,3.766900000000078
395,1,0.2,1.0,35.0,1,1.0,0.2400990000001002
396,1,0.2,0.25,-35.0,-1,1.0,0.7537000000002081
397,1,0.2,0.25,35.0,1,1.0,0.2597990000001573
398,1,0.2,0.0,35.0,-1,0.0,0.4038990000001377
399,1,0.2,0.0,-35.0,-1,1.0,2.6705990000000384
400,1,0.2,0.25,35.0,1,1.0,0.34730000000013206
401,1,0.2,0.125,35.0,1,1.0,0.32320000000004256
402,1,0.2,0.25,35.0,1,1.0,0.2807999999999993
403,1,0.2,0.25,35.0,1,1.0,0.27329900000017915
404,1,0.2,0.0625,35.0,1,1.0,0.43089900000018133
405,1,0.2,0.25,35.0,1,1.0,0.25030000000015207
406,1,0.2,0.0625,35.0,1,1.0,0.5409989999998288
407,1,0.2,0.0625,35.0,1,1.0,0.2939000000001215
408,1,0.2,0.0,35.0,1,1.0,3.2510999999999513
409,1,0.2,0.0625,35.0,1,1.0,0.3174999999996544
410,1,0.2,0.25,35.0,1,1.0,0.25459900000032576
411,1,0.2,0.0625,35.0,1,1.0,0.2944999999999709
412,1,0.2,0.0625,35.0,1,1.0,0.3079999999999927
413,1,0.2,1.0,35.0,1,1.0,0.25749999999970896
414,1,0.2,0.0625,35.0,1,1.0,0.39469899999994595
415,1,0.2,1.0,35.0,1,1.0,0.3138989999997648
416,1,0.2,0.0625,35.0,1,1.0,0.28479899999956615
417,1,0.2,0.125,35.0,1,1.0,0.22089999999980137
418,1,0.2,0.0625,35.0,1,1.0,0.3015989999998965
419,1,0.2,1.0,-35.0,-1,1.0,0.37139899999965564
420,1,0.2,0.0625,35.0,1,1.0,0.45499999999992724
421,1,0.2,0.25,35.0,1,1.0,0.2715989999996964
422,1,0.2,1.0,35.0,1,1.0,0.3118989999998121
423,1,0.2,0.0,35.0,-1,0.0,22.464598999999907
424,1,0.2,0.0,35.0,1,1.0,12.388899999999921
425,1,0.2,0.25,35.0,1,1.0,0.2582990000000791
426,1,0.2,1.0,35.0,1,1.0,1.559099999999944
427,1,0.2,0.0,-35.0,1,0.0,3.885099999999966
428,1,0.2,0.0625,35.0,1,1.0,4.292599999999766
429,1,0.2,0.0,-35.0,1,0.0,3.51529999999957
430,1,0.2,0.0,35.0,-1,0.0,9.029598999999507
431,1,0.2,0.125,-35.0,-1,1.0,0.4753989999994701
432,1,0.2,0.0,35.0,-1,0.0,16.19309999999996
433,1,0.2,0.0,35.0,-1,0.0,21.37929899999972
434,1,0.2,0.0625,35.0,1,1.0,0.4505000000003747
435,1,0.2,0.25,35.0,1,1.0,0.9529999999999745
436,1,0.2,0.0,35.0,-1,0.0,1.000398999999561
437,1,0.2,1.0,35.0,1,1.0,0.3029989999999998
438,1,0.2,0.125,35.0,1,1.0,1.8304989999996906
439,1,0.2,0.25,35.0,1,1.0,0.3164999999999054
440,1,0.2,0.0,-35.0,1,0.0,5.047299999999723
441,1,0.2,0.25,-35.0,-1,1.0,0.3036989999995967
442,1,0.2,0.25,35.0,1,1.0,0.364100000000235
443,1,0.2,0.0,35.0,-1,0.0,0.3105990000003658
444,1,0.2,0.25,35.0,1,1.0,0.4042989999998099
445,1,0.2,0.25,35.0,1,1.0,0.3671999999996842
446,1,0.2,0.0625,-35.0,-1,1.0,0.38109899999972185
447,1,0.2,0.0625,35.0,1,1.0,0.2907999999997628
448,1,0.2,0.0,35.0,1,1.0,6.154399999999896
449,1,0.2,1.0,35.0,1,1.0,0.25389999999970314
450,1,0.2,0.0,35.0,1,1.0,8.3445999999999
451,1,0.2,0.125,35.0,1,1.0,0.28449899999986883
452,1,0.2,0.0,-35.0,-1,1.0,2.9914999999996326
453,1,0.2,0.0625,35.0,1,1.0,0.4940999999998894
454,1,0.2,0.25,35.0,1,1.0,2.404899000000114
455,1,0.2,0.0,35.0,1,1.0,0.46430000000009386
456,1,0.2,0.0625,35.0,1,1.0,1.1152999999999338
457,1,0.2,0.25,35.0,1,1.0,0.3243990000000849
458,1,0.2,1.0,-35.0,-1,1.0,0.27209899999979825
459,1,0.2,0.0,35.0,1,1.0,2.4111989999996695
460,1,0.2,0.0,35.0,-1,0.0,7.368899000000056
461,1,0.2,0.25,35.0,1,1.0,0.2681990000000951
462,1,0.2,0.0625,35.0,1,1.0,0.35570000000006985
463,1,0.2,0.125,35.0,1,1.0,0.30480000000034124
464,1,0.2,1.0,35.0,1,1.0,0.24239899999975023
465,1,0.2,1.0,35.0,1,1.0,0.27839899999980844
466,1,0.8,0.125,-35.0,-1,1.0,0.9093000000002576
467,1,0.8,0.0,35.0,1,1.0,24.35189999999966
468,1,0.8,0.125,35.0,1,1.0,5.359598999999889
469,1,0.8,0.25,35.0,1,1.0,0.2422999999998865
470,1,0.8,0.125,-35.0,-1,1.0,5.539899999999761
471,1,0.8,0.25,-35.0,-1,1.0,0.41279999999960637
472,1,0.8,0.0,-35.0,-1,1.0,5.853399000000081
473,1,0.8,0.25,-35.0,-1,1.0,0.3296989999998914
474,1,0.8,0.25,-35.0,-1,1.0,7.100198999999975
475,1,0.8,0.25,-35.0,-1,1.0,0.3132999999997992
476,1,0.8,0.0,-35.0,-1,1.0,24.103699000000233
477,1,0.8,0.25,-35.0,-1,1.0,10.263998999999785
478,1,0.8,0.25,-35.0,-1,1.0,0.35770000000002256
479,1,0.8,1.0,-35.0,-1,1.0,0.29700099999990925
480,1,0.8,0.25,-35.0,-1,1.0,0.33779999999978827
481,1,0.8,0.125,35.0,1,1.0,10.463500000000295
482,1,0.8,0.25,-35.0,-1,1.0,5.498000999999931
483,1,0.8,0.0625,-35.0,-1,1.0,6.230600999999751
484,1,0.8,0.125,35.0,1,1.0,0.521701000000121
485,1,0.8,0.25,35.0,1,1.0,8.611399999999776
486,1,0.8,0.0,-35.0,1,0.0,16.978299999999763
487,1,0.8,0.125,-35.0,-1,1.0,5.104601000000002
488,1,0.8,0.0,-35.0,1,0.0,7.692200999999841
489,1,0.8,1.0,-35.0,-1,1.0,0.3414999999995416
490,1,0.8,0.0625,-35.0,-1,1.0,8.915700999999899
491,1,0.8,0.25,-35.0,-1,1.0,3.2185999999996966
492,1,0.8,0.125,-35.0,-1,1.0,0.4393009999998867
493,1,0.8,1.0,35.0,1,1.0,0.2593000000001666
494,1,0.8,1.0,-35.0,-1,1.0,1.8760999999999513
495,1,0.8,0.25,-35.0,-1,1.0,0.3521009999999478
496,1,0.8,0.0,35.0,-1,0.0,1.8030009999997674
497,1,0.8,0.125,-35.0,-1,1.0,2.018899999999576
498,1,0.8,0.0,-35.0,1,0.0,10.073099999999613
499,1,0.8,0.125,-35.0,-1,1.0,2.9958010000000286
500,1,0.8,0.125,-35.0,-1,1.0,0.42000000000007276
501,1,0.8,1.0,-35.0,-1,1.0,0.22320099999978993
502,1,0.8,0.125,-35.0,-1,1.0,2.186699999999746
503,1,0.8,0.0625,-35.0,-1,1.0,2.9132009999993898
504,1,0.8,0.25,35.0,1,1.0,1.8236010000000533
505,1,0.8,0.0,-35.0,-1,1.0,9.576300999999603
506,1,0.8,0.25,-35.0,-1,1.0,2.0272009999998772
507,1,0.8,0.0625,-35.0,-1,1.0,4.876400000000103
508,1,0.8,0.0625,35.0,-1,0.0,7.600600999999642
509,1,0.8,1.0,-35.0,-1,1.0,0.26009999999951106
510,1,0.8,0.0625,-35.0,-1,1.0,0.8942010000000664
511,1,0.8,0.0,35.0,-1,0.0,14.617400999999518
512,1,0.8,1.0,35.0,1,1.0,0.22790100000020175
513,1,0.8,0.25,-35.0,-1,1.0,0.2040009999996073
514,1,0.8,0.125,35.0,-1,0.0,5.761300000000119
515,1,0.2,1.0,35.0,1,1.0,0.24140099999976883
516,1,0.2,0.0625,35.0,1,1.0,0.35809999999992215
517,1,0.2,0.0,35.0,1,1.0,12.037599999999657
518,1,0.2,1.0,35.0,1,1.0,1.4317009999999755
519,1,0.2,0.0625,-35.0,1,0.0,12.604200000000219
520,1,0.2,0.125,35.0,1,1.0,2.868899999999485
521,1,0.2,0.0625,35.0,1,1.0,8.464899999999489
522,1,0.2,0.25,35.0,1,1.0,0.2756009999998241
523,1,0.2,0.125,-35.0,1,0.0,1.685699999999997
524,1,0.2,1.0,35.0,1,1.0,0.2123009999995702
1,2,0.5,1.0,35.0,-1,0.0,0.2751000000000001
2,2,0.5,1.0,-35.0,-1,1.0,0.28500000000000014
3,2,0.5,0.25,-35.0,-1,1.0,1.0223010000000006
4,2,0.5,0.0625,-35.0,-1,1.0,0.8664009999999998
5,2,0.5,0.125,-35.0,-1,1.0,0.24719999999999942
6,2,0.5,0.25,35.0,-1,0.0,1.1041999999999987
7,2,0.5,0.0625,-35.0,-1,1.0,0.2824010000000001
8,2,0.5,0.0625,-35.0,-1,1.0,0.720800999999998
9,2,0.5,0.0625,35.0,1,1.0,0.47760100000000705
10,2,0.5,1.0,-35.0,-1,1.0,0.34970100000000315
11,2,0.5,1.0,-35.0,-1,1.0,0.4097010000000054
12,2,0.5,1.0,35.0,1,1.0,0.2640000000000029
13,2,0.5,0.0,35.0,1,1.0,0.5684010000000086
14,2,0.5,0.125,35.0,1,1.0,0.3096000000000032
15,2,0.5,0.25,35.0,1,1.0,0.3026000000000053
16,2,0.5,1.0,35.0,1,1.0,0.28010000000000446
17,2,0.5,0.0,-35.0,-1,1.0,0.12190000000000367
18,2,0.5,1.0,35.0,1,1.0,0.33199999999999363
19,2,0.5,0.0625,35.0,1,1.0,0.2528999999999968
20,2,0.5,0.25,-35.0,1,0.0,0.13720100000000457
21,2,0.5,0.0,35.0,1,1.0,0.22979999999998313
22,2,0.5,0.25,35.0,1,1.0,0.26450099999999566
23,2,0.5,0.0625,-35.0,1,0.0,0.34380099999999914
24,2,0.5,0.125,35.0,1,1.0,0.25379999999999825
25,2,0.5,1.0,35.0,1,1.0,0.26220099999999036
26,2,0.5,0.0625,35.0,1,1.0,0.3166999999999973
27,2,0.5,0.25,-35.0,-1,1.0,0.36299999999998533
28,2,0.5,0.125,35.0,1,1.0,0.39820099999998604
29,2,0.5,1.0,35.0,1,1.0,0.35769999999999413
30,2,0.5,0.125,-35.0,-1,1.0,1.002299999999991
31,2,0.5,0.25,-35.0,-1,1.0,0.5959999999999894
32,2,0.5,1.0,35.0,1,1.0,0.3009999999999877
33,2,0.5,0.125,35.0,1,1.0,0.3945009999999911
34,2,0.5,0.0,-35.0,1,0.0,0.3061010000000124
35,2,0.5,1.0,-35.0,-1,1.0,0.2784000000000333
36,2,0.5,1.0,-35.0,-1,1.0,0.25210000000001287
37,2,0.5,0.0625,35.0,1,1.0,0.33090000000001396
38,2,0.5,1.0,-35.0,-1,1.0,0.35670099999998683
39,2,0.5,1.0,35.0,1,1.0,0.28420099999999593
40,2,0.5,0.0,-35.0,-1,1.0,0.4157000000000153
41,2,0.5,0.125,-35.0,-1,1.0,0.2775010000000293
42,2,0.5,0.25,-35.0,-1,1.0,0.5065000000000168
43,2,0.5,0.0625,-35.0,-1,1.0,0.2819000000000358
44,2,0.5,0.25,35.0,-1,0.0,0.1100009999999827
45,2,0.5,0.25,-35.0,-1,1.0,0.29590100000001485
46,2,0.5,0.0,-35.0,-1,1.0,0.3236000000000274
47,2,0.5,0.25,35.0,-1,0.0,0.14060100000000375
48,2,0.5,0.125,35.0,-1,0.0,0.40500000000000114
49,2,0.5,0.125,-35.0,-1,1.0,0.2641010000000108
50,2,0.5,0.0625,-35.0,-1,1.0,0.1647000000000105
51,2,0.5,0.25,-35.0,-1,1.0,0.28360000000000696
52,2,0.5,1.0,-35.0,-1,1.0,0.17619999999999436
53,2,0.5,0.125,35.0,-1,0.0,0.4072999999999922
54,2,0.5,0.25,-35.0,-1,1.0,0.5456010000000049
55,2,0.5,0.25,-35.0,-1,1.0,0.3028009999999881
56,2,0.5,0.0,35.0,-1,0.0,0.4923000000000002
57,2,0.5,0.0,-35.0,-1,1.0,0.3481999999999914
58,2,0.5,0.0625,35.0,-1,0.0,0.6768999999999892
59,2,0.5,0.0625,35.0,-1,0.0,0.41310000000001423
60,2,0.5,0.25,35.0,-1,0.0,0.34890000000001464
61,2,0.5,0.0625,-35.0,-1,1.0,0.29410000000001446
62,2,0.5,0.25,-35.0,-1,1.0,0.25669999999999504
63,2,0.5,1.0,-35.0,-1,1.0,0.40200000000001523
64,2,0.5,0.25,-35.0,-1,1.0,0.3851009999999917
65,2,0.5,1.0,35.0,1,1.0,0.5925000000000011
66,2,0.5,0.0,35.0,-1,0.0,3.594900000000024
67,2,0.5,0.0625,-35.0,-1,1.0,0.2665010000000336
68,2,0.5,0.0,35.0,1,1.0,4.518100000000004
69,2,0.5,0.25,35.0,1,1.0,0.3048000000000002
70,2,0.5,0.0625,-35.0,1,0.0,0.11290100000002212
71,2,0.5,0.125,-35.0,-1,1.0,0.2529010000000085
72,2,0.5,0.0625,-35.0,-1,1.0,2.2060010000000148
73,2,0.5,0.0,-35.0,1,0.0,0.30260099999998147
74,2,0.5,1.0,-35.0,-1,1.0,0.2254010000000335
75,2,0.5,0.25,35.0,1,1.0,0.2595010000000002
76,2,0.5,0.0625,35.0,1,1.0,0.3815000000000168
77,2,0.5,0.25,35.0,1,1.0,0.24620099999998502
78,2,0.5,0.125,-35.0,-1,1.0,0.45240100000000893
79,2,0.5,0.0625,35.0,1,1.0,0.7137009999999577
80,2,0.5,1.0,-35.0,-1,1.0,0.23240000000004102
81,2,0.5,0.125,-35.0,-1,1.0,0.3550000000000182
82,2,0.5,0.25,35.0,1,1.0,0.2941000000000713
83,2,0.5,0.0625,-35.0,-1,1.0,0.28310099999998783
84,2,0.5,1.0,35.0,1,1.0,0.29869999999999663
85,2,0.5,0.0625,-35.0,-1,1.0,0.4329000000000178
86,2,0.5,1.0,-35.0,-1,1.0,0.25209999999998445
87,2,0.5,0.0625,35.0,1,1.0,0.3332009999999741
88,2,0.5,0.25,-35.0,-1,1.0,0.27539999999999054
89,2,0.5,0.0,35.0,-1,0.0,0.46950099999997974
90,2,0.5,0.0,35.0,-1,0.0,0.3023010000000568
91,2,0.8,0.25,35.0,1,1.0,0.33270100000004277
92,2,0.8,0.25,-35.0,-1,1.0,0.20470100000000002
93,2,0.8,0.125,-35.0,-1,1.0,0.34120100000006914
94,2,0.8,0.0,-35.0,-1,1.0,0.48500000000001364
95,2,0.8,0.0625,35.0,-1,0.0,0.396000000000015
96,2,0.8,0.25,-35.0,-1,1.0,0.2837999999999852
97,2,0.8,0.25,-35.0,-1,1.0,0.2362009999999941
98,2,0.8,0.0625,-35.0,-1,1.0,0.2790010000000507
99,2,0.8,0.125,35.0,1,1.0,0.33640099999996664
100,2,0.8,0.25,-35.0,-1,1.0,0.6451000000000136
101,2,0.8,0.125,-35.0,-1,1.0,0.2935000000000514
102,2,0.8,0.125,-35.0,-1,1.0,0.33250100000003613
103,2,0.8,0.125,-35.0,-1,1.0,0.28019999999997935
104,2,0.8,0.125,-35.0,-1,1.0,0.5412999999999784
105,2,0.8,1.0,-35.0,-1,1.0,0.21260000000006585
106,2,0.8,0.25,35.0,1,1.0,0.21120000000001937
107,2,0.8,0.0,-35.0,-1,1.0,0.4966009999999983
108,2,0.8,1.0,-35.0,-1,1.0,0.4467009999999618
109,2,0.8,1.0,-35.0,-1,1.0,0.30970099999996137
110,2,0.8,0.0,35.0,1,1.0,0.22759999999999536
111,2,0.8,0.25,-35.0,-1,1.0,0.27440100000001166
112,2,0.8,1.0,-35.0,-1,1.0,0.24900100000002112
113,2,0.8,0.0,-35.0,-1,1.0,1.2677999999999656
114,2,0.8,0.0625,-35.0,-1,1.0,0.4571000000000254
115,2,0.8,0.0,-35.0,-1,1.0,0.39450100000004795
116,2,0.8,0.0,-35.0,-1,1.0,0.3088009999999599
117,2,0.8,0.0,-35.0,-1,1.0,0.5559999999999832
118,2,0.8,0.0,-35.0,-1,1.0,0.8481009999999856
119,2,0.8,1.0,-35.0,-1,1.0,0.2570999999999799
120,2,0.8,0.0625,-35.0,-1,1.0,0.4989010000000462
121,2,0.8,0.0,35.0,-1,0.0,0.24290100000007442
122,2,0.8,1.0,-35.0,-1,1.0,0.258700000000033
123,2,0.8,0.0625,-35.0,-1,1.0,0.4557010000000332
124,2,0.8,0.0625,-35.0,-1,1.0,0.6195000000000164
125,2,0.8,0.0625,-35.0,-1,1.0,0.39390000000003056
126,2,0.8,0.25,-35.0,-1,1.0,0.2759009999999762
127,2,0.8,0.0625,-35.0,-1,1.0,0.33740000000000236
128,2,0.8,0.0625,-35.0,-1,1.0,0.5515010000000302
129,2,0.8,0.125,-35.0,-1,1.0,0.33580100000000357
130,2,0.8,0.125,-35.0,-1,1.0,0.43610000000001037
131,2,0.8,1.0,-35.0,-1,1.0,0.37480099999999084
132,2,0.8,0.0625,-35.0,-1,1.0,3.0704999999999814
133,2,0.8,0.25,35.0,-1,0.0,0.1778009999999881
134,2,0.8,1.0,35.0,1,1.0,0.29140000000006694
135,2,0.8,0.25,35.0,1,1.0,0.29320000000006985
136,2,0.8,1.0,35.0,1,1.0,0.2543999999999187
137,2,0.8,1.0,35.0,1,1.0,0.20380100000011225
138,2,0.8,0.125,35.0,1,1.0,0.2880010000000084
139,2,0.8,0.125,-35.0,-1,1.0,0.2520000000000664
140,2,0.8,0.0,-35.0,-1,1.0,0.3266999999999598
141,2,0.8,1.0,-35.0,-1,1.0,0.3001009999999269
142,2,0.8,0.125,-35.0,-1,1.0,0.19899999999995543
143,2,0.8,1.0,35.0,1,1.0,0.2511009999999487
144,2,0.8,0.125,-35.0,-1,1.0,0.2755009999999629
145,2,0.8,0.0,-35.0,-1,1.0,2.5117009999999027
146,2,0.8,0.0,-35.0,-1,1.0,0.3713000000000193
147,2,0.8,0.0625,35.0,1,1.0,0.5224000000000615
148,2,0.8,0.0625,-35.0,-1,1.0,0.39410099999997783
149,2,0.8,0.0625,-35.0,-1,1.0,0.23830099999997856
150,2,0.8,0.0625,-35.0,-1,1.0,0.2216000000000804
151,2,0.8,1.0,-35.0,-1,1.0,0.27569999999991524
152,2,0.8,0.0625,-35.0,-1,1.0,0.2417000000000371
153,2,0.8,0.0,-35.0,-1,1.0,2.748601000000008
154,2,0.8,0.0,-35.0,-1,1.0,0.5457010000000082
155,2,0.8,0.0,-35.0,-1,1.0,2.1513009999999895
156,2,0.8,0.0625,35.0,-1,0.0,0.12180000000000746
157,2,0.8,0.125,-35.0,-1,1.0,0.35550099999989015
158,2,0.8,0.0,-35.0,1,0.0,0.2762000000000171
159,2,0.8,0.25,35.0,1,1.0,0.2860999999999194
160,2,0.8,0.0625,35.0,1,1.0,0.421100000000024
161,2,0.8,0.25,-35.0,-1,1.0,0.41730100000006587
162,2,0.8,1.0,-35.0,-1,1.0,0.22230099999990216
163,2,0.8,0.0,35.0,-1,0.0,0.47050100000001294
164,2,0.8,0.125,-35.0,-1,1.0,0.26900100000000293
165,2,0.8,0.125,-35.0,-1,1.0,0.2676010000000133
166,2,0.8,0.25,-35.0,-1,1.0,0.3002999999999929
167,2,0.8,0.0625,-35.0,-1,1.0,0.2814009999999598
168,2,0.8,0.25,-35.0,-1,1.0,0.3048000000000002
169,2,0.8,0.25,-35.0,-1,1.0,0.2675010000000384
170,2,0.8,0.0,-35.0,-1,1.0,0.4233000000000402
171,2,0.8,0.125,-35.0,-1,1.0,0.25490000000002055
172,2,0.8,0.0625,-35.0,-1,1.0,0.2539010000000417
173,2,0.8,0.125,-35.0,-1,1.0,0.22250000000008185
174,2,0.8,1.0,-35.0,-1,1.0,0.19210100000009334
175,2,0.8,0.125,-35.0,-1,1.0,0.46600100000000566
176,2,0.8,0.0625,-35.0,-1,1.0,0.3885999999999967
177,2,0.8,1.0,35.0,1,1.0,0.288400999999908
178,2,0.8,0.0625,-35.0,-1,1.0,0.22529999999994743
179,2,0.8,0.25,-35.0,-1,1.0,0.32550000000003365
180,2,0.2,0.25,35.0,1,1.0,0.29910099999995055
181,2,0.2,0.25,-35.0,-1,1.0,0.2759009999999762
182,2,0.2,0.125,35.0,1,1.0,0.31150099999990744
183,2,0.2,0.0625,-35.0,1,0.0,0.33559999999999945
184,2,0.2,0.0625,35.0,1,1.0,0.25929999999993925
185,2,0.2,0.125,35.0,1,1.0,0.2560000000000855
186,2,0.2,0.0625,35.0,1,1.0,0.3593999999999369
187,2,0.2,1.0,-35.0,-1,1.0,0.1830009999998765
188,2,0.2,1.0,-35.0,-1,1.0,0.12779999999997926
189,2,0.2,0.0625,35.0,1,1.0,0.7830010000000129
190,2,0.2,1.0,-35.0,-1,1.0,0.24459999999999127
191,2,0.2,1.0,35.0,1,1.0,0.25890100000003713
192,2,0.2,0.125,-35.0,-1,1.0,0.23330000000009932
193,2,0.2,1.0,35.0,1,1.0,0.3061999999998761
194,2,0.2,1.0,35.0,1,1.0,0.23099999999999454
195,2,0.2,0.0625,-35.0,-1,1.0,0.38239999999996144
196,2,0.2,0.25,35.0,1,1.0,0.29680000000007567
197,2,0.2,0.0,35.0,1,1.0,0.261600000000044
198,2,0.2,0.0625,35.0,1,1.0,0.259900000000016
199,2,0.2,0.0,-35.0,1,0.0,0.25430100000005496
200,2,0.2,0.125,35.0,1,1.0,0.26270000000010896
201,2,0.2,1.0,35.0,1,1.0,0.22339999999996962
202,2,0.2,0.125,35.0,1,1.0,0.2554010000000062
203,2,0.2,0.125,35.0,1,1.0,0.1851010000000315
204,2,0.2,0.0,-35.0,1,0.0,0.2776010000000042
205,2,0.2,1.0,35.0,1,1.0,0.2574010000000726
206,2,0.2,0.25,35.0,1,1.0,0.3158010000000786
207,2,0.2,0.125,35.0,1,1.0,0.24880000000007385
208,2,0.2,0.0625,35.0,1,1.0,0.28080099999999675
209,2,0.2,0.0625,35.0,1,1.0,0.6830999999999676
210,2,0.2,0.25,35.0,1,1.0,0.2192009999999982
211,2,0.2,0.125,35.0,1,1.0,0.2557000000000471
212,2,0.2,0.125,-35.0,-1,1.0,0.3713000000000193
213,2,0.2,0.0,35.0,1,1.0,0.324799999999982
214,2,0.2,0.0,35.0,1,1.0,0.24239999999997508
215,2,0.2,0.0625,35.0,1,1.0,0.19970000000012078
216,2,0.2,1.0,35.0,1,1.0,0.23980100000005677
217,2,0.2,1.0,-35.0,1,0.0,0.10910100000000966
218,2,0.2,0.125,35.0,1,1.0,0.23820100000011735
219,2,0.2,0.0625,35.0,1,1.0,0.26880099999993945
220,2,0.2,0.0625,35.0,1,1.0,0.30160000000000764
221,2,0.2,1.0,35.0,1,1.0,0.20870100000001912
222,2,0.2,0.0625,35.0,1,1.0,0.24010099999998147
223,2,0.2,0.0,-35.0,-1,1.0,0.41650000000004184
224,2,0.2,1.0,35.0,1,1.0,0.2696000000000822
225,2,0.2,0.0625,35.0,1,1.0,0.2702999999999065
226,2,0.2,1.0,-35.0,-1,1.0,0.30920100000003004
227,2,0.2,1.0,-35.0,-1,1.0,0.3348009999999704
228,2,0.2,1.0,-35.0,-1,1.0,0.25070100000004913
229,2,0.2,0.0625,35.0,1,1.0,0.24890000000004875
230,2,0.2,0.0,35.0,1,1.0,0.18880000000001473
231,2,0.2,1.0,35.0,1,1.0,0.3042000000000371
232,2,0.2,1.0,-35.0,-1,1.0,0.30920100000003004
233,2,0.2,0.0,35.0,-1,0.0,0.47390100000006896
234,2,0.2,0.25,35.0,1,1.0,0.26450099999999566
235,2,0.2,0.0625,35.0,-1,0.0,0.4329999999999927
236,2,0.2,0.25,35.0,1,1.0,0.2722000000001117
237,2,0.2,0.0,35.0,-1,0.0,0.3349999999999227
238,2,0.2,0.0,35.0,1,1.0,0.2499000000000251
239,2,0.2,0.25,-35.0,-1,1.0,0.4460000000000264
240,2,0.2,0.25,35.0,1,1.0,0.2381000000000313
241,2,0.2,0.0625,35.0,1,1.0,0.2592010000000755
242,2,0.2,1.0,-35.0,-1,1.0,0.2394010000000435
243,2,0.2,0.25,35.0,1,1.0,0.2641999999999598
244,2,0.2,0.0625,-35.0,-1,1.0,0.35140000000012606
245,2,0.2,0.0,35.0,1,1.0,0.24519999999995434
246,2,0.2,0.0,35.0,-1,0.0,2.319900000000075
247,2,0.2,0.0625,35.0,1,1.0,0.39940100000012535
248,2,0.2,0.0,35.0,1,1.0,0.36340099999995346
249,2,0.2,0.0625,35.0,1,1.0,0.29949999999996635
250,2,0.2,0.0,35.0,1,1.0,0.24979999999993652
251,2,0.2,0.0625,35.0,1,1.0,0.311800000000062
252,2,0.8,0.0,-35.0,-1,1.0,0.9053010000001223
253,2,0.8,0.0625,-35.0,-1,1.0,0.29130099999997583
254,2,0.8,0.125,35.0,1,1.0,0.21380099999998947
255,2,0.8,0.0625,-35.0,1,0.0,0.2976010000000997
256,2,0.8,1.0,35.0,1,1.0,0.3228000000000293
257,2,0.8,0.125,-35.0,-1,1.0,0.25600100000008297
258,2,0.8,0.0625,-35.0,-1,1.0,0.9302000000000135
259,2,0.8,1.0,-35.0,-1,1.0,0.321501000000012
260,2,0.8,0.25,-35.0,-1,1.0,0.227600999999936
261,2,0.8,0.0625,35.0,-1,0.0,0.3069000000000415
262,2,0.8,0.0625,35.0,1,1.0,0.27710000000001855
263,2,0.8,0.0625,-35.0,-1,1.0,0.28880100000003495
264,2,0.8,0.0625,-35.0,-1,1.0,0.4105010000000675
265,2,0.8,0.125,35.0,1,1.0,0.5625
266,2,0.8,0.25,-35.0,-1,1.0,0.3305000000000291
267,2,0.8,1.0,-35.0,-1,1.0,0.21950100000015027
268,2,0.8,0.25,-35.0,-1,1.0,0.40730100000007496
269,2,0.8,0.0,-35.0,1,0.0,0.3086999999999307
270,2,0.8,0.25,-35.0,-1,1.0,0.21410000000014406
271,2,0.8,0.0625,-35.0,-1,1.0,0.27240099999994527
272,2,0.8,0.25,-35.0,-1,1.0,0.4107010000000173
273,2,0.8,1.0,-35.0,-1,1.0,0.29920100000003913
274,2,0.8,0.125,-35.0,-1,1.0,0.2777009999999791
275,2,0.8,1.0,-35.0,-1,1.0,0.416501000000153
276,2,0.8,0.25,-35.0,-1,1.0,0.6744009999999889
277,2,0.8,0.0,35.0,-1,0.0,0.9528000000000247
278,2,0.8,0.25,-35.0,-1,1.0,0.24450100000012753
279,2,0.8,1.0,-35.0,-1,1.0,0.2664999999999509
280,2,0.8,0.125,-35.0,-1,1.0,0.34130000000004657
281,2,0.8,0.0625,35.0,-1,0.0,0.24720000000002074
282,2,0.8,0.125,35.0,1,1.0,2.0881010000000515
283,2,0.8,0.0,-35.0,-1,1.0,0.42630000000008295
284,2,0.8,1.0,-35.0,-1,1.0,0.44470000000001164
285,2,0.8,0.25,-35.0,-1,1.0,0.3699010000000271
286,2,0.8,0.0625,-35.0,-1,1.0,0.2816009999999096
287,2,0.8,0.25,-35.0,-1,1.0,0.23060000000009495
288,2,0.8,0.25,35.0,1,1.0,0.31169999999997344
289,2,0.8,0.0,-35.0,1,0.0,0.6565009999999347
290,2,0.8,0.0,-35.0,-1,1.0,0.34500100000013845
291,2,0.8,0.125,-35.0,-1,1.0,0.2899999999999636
292,2,0.8,0.0,-35.0,1,0.0,0.25850100000002385
293,2,0.8,0.0,35.0,-1,0.0,4.087101000000075
294,2,0.8,1.0,-35.0,-1,1.0,0.332100999999966
295,2,0.8,0.0,35.0,1,1.0,0.2703009999997903
296,2,0.8,0.0,35.0,-1,0.0,0.2988000000000284
297,2,0.8,0.125,-35.0,-1,1.0,0.2902999999998883
298,2,0.8,0.0625,-35.0,-1,1.0,0.2522999999998774
299,2,0.8,1.0,35.0,1,1.0,0.24730099999987942
300,2,0.8,0.0625,35.0,1,1.0,0.30240100000014536
301,2,0.8,1.0,-35.0,-1,1.0,0.18450000000007094
302,2,0.8,0.0625,-35.0,-1,1.0,0.28920099999982085
303,2,0.8,0.25,-35.0,-1,1.0,0.4007010000000264
304,2,0.8,1.0,-35.0,-1,1.0,0.21250099999997474
305,2,0.8,0.0,-35.0,-1,1.0,0.4216999999998734
306,2,0.8,0.125,-35.0,-1,1.0,0.20939999999995962
307,2,0.8,0.125,-35.0,-1,1.0,0.2578999999998359
308,2,0.8,0.0,-35.0,-1,1.0,0.23610000000007858
309,2,0.8,1.0,35.0,1,1.0,0.22450000000003456
310,2,0.8,0.0625,-35.0,-1,1.0,0.32950000000005275
311,2,0.8,1.0,-35.0,-1,1.0,0.28099999999994907
312,2,0.8,0.25,-35.0,-1,1.0,0.2696000000000822
313,2,0.8,0.0,-35.0,1,0.0,0.3785000000000309
314,2,0.2,0.0625,35.0,-1,0.0,0.3930009999999129
315,2,0.2,1.0,-35.0,-1,1.0,0.32460100000002967
316,2,0.2,0.25,35.0,1,1.0,0.22980099999995218
317,2,0.2,0.125,35.0,1,1.0,0.2051010000000133
318,2,0.2,1.0,35.0,1,1.0,0.2432009999999991
319,2,0.2,1.0,-35.0,-1,1.0,0.27139999999985776
320,2,0.2,0.0,-35.0,-1,1.0,0.7466010000000551
321,2,0.2,0.0625,35.0,1,1.0,0.358600000000024
322,2,0.2,0.25,35.0,1,1.0,0.2533000000000811
323,2,0.2,1.0,-35.0,-1,1.0,0.3049999999998363
324,2,0.2,0.0,-35.0,1,0.0,0.2900010000000748
325,2,0.2,0.0625,35.0,1,1.0,0.3288000000000011
326,2,0.2,0.125,35.0,1,1.0,0.28690099999994345
327,2,0.2,1.0,-35.0,-1,1.0,0.2919000000001688
328,2,0.2,0.0,35.0,1,1.0,0.2538010000000668
329,2,0.2,0.0,35.0,1,1.0,0.3528009999999995
330,2,0.2,0.125,-35.0,-1,1.0,0.5204000000001088
331,2,0.2,0.125,35.0,1,1.0,0.2552009999999427
332,2,0.2,0.0625,-35.0,1,0.0,0.3204000000000633
333,2,0.2,0.25,35.0,1,1.0,0.5955000000001291
334,2,0.2,0.0625,35.0,1,1.0,0.29060100000015154
335,2,0.2,0.0,35.0,1,1.0,0.26880000000005566
336,2,0.2,0.25,35.0,1,1.0,0.21730000000002292
337,2,0.2,0.125,35.0,1,1.0,0.2523999999998523
338,2,0.2,0.25,35.0,1,1.0,0.24739999999997053
339,2,0.2,1.0,35.0,1,1.0,0.11600100000009661
340,2,0.2,0.25,35.0,1,1.0,0.26759999999990214
341,2,0.2,0.0625,35.0,1,1.0,0.10279999999988831
342,2,0.2,0.0,35.0,1,1.0,0.3009999999999309
343,2,0.2,0.125,35.0,1,1.0,0.21610100000020793
344,2,0.2,1.0,35.0,1,1.0,0.2411010000000715
345,2,0.2,0.25,35.0,1,1.0,0.22010000000000218
346,2,0.2,0.25,35.0,-1,0.0,0.1711999999999989
347,2,0.2,0.25,35.0,1,1.0,0.2561009999999442
348,2,0.2,0.125,35.0,1,1.0,0.30450100000007296
349,2,0.2,0.0,35.0,1,1.0,0.3031999999998334
350,2,0.2,1.0,35.0,1,1.0,0.21810100000016064
351,2,0.2,0.0,35.0,1,1.0,0.2863000000002103
352,2,0.2,0.25,35.0,1,1.0,0.25800100000014936
353,2,0.2,0.25,35.0,1,1.0,0.5202999999999065
354,2,0.2,1.0,35.0,1,1.0,0.24479999999994106
355,2,0.2,0.0625,35.0,1,1.0,0.3002999999998792
356,2,0.2,1.0,35.0,1,1.0,0.3218010000000504
357,2,0.2,0.0625,35.0,1,1.0,0.34320100000013554
358,2,0.2,0.0,35.0,1,1.0,0.285001000000193
359,2,0.2,0.0,35.0,1,1.0,0.30030100000021775
360,2,0.2,1.0,35.0,1,1.0,0.23509999999987485
361,2,0.2,0.0625,35.0,1,1.0,0.2637999999999465
362,2,0.2,0.0,35.0,1,1.0,0.4854009999999107
363,2,0.2,0.0,35.0,1,1.0,1.3939000000000306
364,2,0.2,0.0,35.0,1,1.0,0.3385999999998148
365,2,0.2,0.25,35.0,1,1.0,0.25070000000005166
366,2,0.2,0.0625,-35.0,-1,1.0,0.34200099999975464
367,2,0.2,1.0,35.0,1,1.0,0.24729999999999563
368,2,0.2,0.125,-35.0,-1,1.0,0.29880100000013954
369,2,0.8,0.0,35.0,1,1.0,0.21469999999999345
370,2,0.8,0.125,-35.0,-1,1.0,0.30900100000008024
371,2,0.8,0.0625,-35.0,-1,1.0,0.6407000000001517
372,2,0.8,0.25,35.0,1,1.0,0.3390009999998256
373,2,0.8,0.0,-35.0,1,0.0,0.23400100000003476
374,2,0.8,0.25,-35.0,-1,1.0,0.28910000000018954
375,2,0.8,1.0,-35.0,-1,1.0,0.20420099999978447
376,2,0.8,0.0625,-35.0,-1,1.0,0.2859009999999671
377,2,0.8,0.0,-35.0,1,0.0,6.094700000000103
378,2,0.8,0.0,-35.0,-1,1.0,10.029401000000007
379,2,0.8,0.125,35.0,-1,0.0,0.511600000000044
380,2,0.8,0.0,-35.0,-1,1.0,12.096300000000156
381,2,0.8,1.0,-35.0,-1,1.0,0.2682999999997264
382,2,0.8,0.0625,35.0,1,1.0,0.3931009999998878
383,2,0.8,0.25,35.0,1,1.0,0.2821010000000115
384,2,0.8,0.125,35.0,1,1.0,0.3566009999999551
385,2,0.8,0.0,-35.0,1,0.0,12.2349999999999
386,2,0.8,0.0625,-35.0,-1,1.0,0.40030099999989943
387,2,0.8,0.0,-35.0,1,0.0,0.2893010000000231
388,2,0.8,0.25,-35.0,-1,1.0,0.4270000000001346
389,2,0.8,0.125,-35.0,1,0.0,0.405100000000175
390,2,0.8,0.25,-35.0,-1,1.0,0.36720100000002276
391,2,0.8,0.25,-35.0,-1,1.0,0.2924000000000433
392,2,0.8,0.25,-35.0,-1,1.0,0.3671999999999116
393,2,0.8,0.0625,-35.0,-1,1.0,0.44610000000011496
394,2,0.8,0.125,-35.0,-1,1.0,0.4372000000000753
395,2,0.8,0.0,-35.0,1,0.0,0.5223009999999704
396,2,0.8,0.0625,-35.0,-1,1.0,0.3772999999998774
397,2,0.8,0.0625,-35.0,-1,1.0,0.2823000000000775
398,2,0.8,0.0625,-35.0,-1,1.0,0.7243000000000848
399,2,0.8,1.0,35.0,1,1.0,0.2924000000000433
400,2,0.8,0.0625,-35.0,-1,1.0,0.4109000000000833
401,2,0.8,0.125,-35.0,-1,1.0,0.3794000000000324
402,2,0.8,0.125,-35.0,-1,1.0,0.3076010000002043
403,2,0.8,1.0,-35.0,-1,1.0,0.18269999999984066
404,2,0.8,0.0,-35.0,-1,1.0,0.534300999999914
405,2,0.8,0.25,-35.0,-1,1.0,0.21290000000021791
406,2,0.8,1.0,-35.0,-1,1.0,0.21450099999992744
407,2,0.8,0.0,-35.0,1,0.0,0.29340000000001965
408,2,0.8,0.125,35.0,1,1.0,0.7014999999998963
409,2,0.8,0.25,-35.0,-1,1.0,0.26650100000006205
410,2,0.8,0.0,-35.0,-1,1.0,0.31460100000003877
411,2,0.8,0.25,-35.0,-1,1.0,0.33310100000016973
412,2,0.8,0.0625,35.0,1,1.0,0.28470100000004095
413,2,0.8,0.25,-35.0,-1,1.0,0.2133000000001175
414,2,0.8,1.0,-35.0,-1,1.0,0.31480099999998856
415,2,0.8,0.0,-35.0,-1,1.0,0.3705999999999676
416,2,0.8,0.0625,-35.0,-1,1.0,0.29160000000001673
417,2,0.8,1.0,-35.0,-1,1.0,0.2665999999999258
418,2,0.8,0.25,-35.0,-1,1.0,0.2716000000000349
419,2,0.8,0.0625,35.0,-1,0.0,7.886700000000019
420,2,0.8,0.0,35.0,-1,0.0,7.6519009999999525
421,2,0.8,0.25,-35.0,-1,1.0,0.4881009999999151
422,2,0.8,0.0625,35.0,-1,0.0,0.6387010000000828
423,2,0.2,0.125,35.0,1,1.0,0.31150000000002365
424,2,0.2,0.0625,35.0,-1,0.0,15.252301000000216
425,2,0.2,1.0,35.0,1,1.0,0.40079999999989013
426,2,0.2,0.0625,35.0,1,1.0,1.0093010000000504
427,2,0.2,0.0,35.0,1,1.0,0.334400000000187
428,2,0.2,1.0,-35.0,-1,1.0,0.2594010000000253
429,2,0.2,0.0625,-35.0,-1,1.0,0.36149999999997817
430,2,0.2,0.0,35.0,1,1.0,0.3227009999998245
431,2,0.2,0.0625,-35.0,-1,1.0,0.27119999999990796
432,2,0.2,0.25,-35.0,-1,1.0,0.42620000000010805
433,2,0.2,0.0,35.0,-1,0.0,0.3381009999998241
434,2,0.2,0.0,35.0,1,1.0,0.3762010000000373
435,2,0.2,0.125,35.0,1,1.0,0.29460000000017317
436,2,0.2,0.25,35.0,1,1.0,0.279700000000048
437,2,0.2,0.0625,35.0,1,1.0,0.3152010000001155
438,2,0.2,0.0625,35.0,1,1.0,0.4097009999998136
439,2,0.2,0.0625,35.0,1,1.0,0.26800100000014027
440,2,0.2,0.0,35.0,1,1.0,0.36320100000011735
441,2,0.2,0.0,35.0,1,1.0,0.4414009999998143
442,2,0.2,0.0625,35.0,1,1.0,0.5132009999999809
443,2,0.2,0.25,35.0,1,1.0,0.2417000000000371
444,2,0.2,0.25,35.0,1,1.0,0.31670099999996637
445,2,0.2,1.0,35.0,1,1.0,0.24909999999999854
446,2,0.2,0.25,35.0,1,1.0,0.2702009999998154
447,2,0.2,0.0625,35.0,1,1.0,0.31159999999977117
448,2,0.2,0.125,35.0,1,1.0,0.27030100000001767
449,2,0.2,1.0,-35.0,-1,1.0,0.2536000000000058
450,2,0.2,0.25,35.0,1,1.0,0.25549999999998363
451,2,0.2,0.0625,-35.0,-1,1.0,0.30700099999990016
452,2,0.2,0.0625,35.0,1,1.0,0.26900000000000546
453,2,0.2,0.25,35.0,1,1.0,0.22050099999978556
454,2,0.8,0.0625,-35.0,1,0.0,0.2795000000000982
455,2,0.8,0.0,35.0,-1,0.0,0.3906010000000606
456,2,0.8,1.0,35.0,1,1.0,0.24610100000018065
457,2,0.8,0.25,-35.0,-1,1.0,0.2841000000000804
458,2,0.8,0.0,-35.0,1,0.0,0.2692010000000664
459,2,0.8,0.25,-35.0,-1,1.0,0.2876010000002225
460,2,0.8,0.125,-35.0,-1,1.0,0.2798009999999067
461,2,0.8,0.25,-35.0,-1,1.0,0.3241009999999278
462,2,0.8,1.0,-35.0,-1,1.0,0.28630100000009406
463,2,0.8,0.125,-35.0,1,0.0,0.23090000000001965
464,2,0.8,1.0,-35.0,-1,1.0,0.30349999999998545
465,2,0.8,0.0625,-35.0,1,0.0,0.2977009999999609
466,2,0.8,1.0,35.0,1,1.0,0.26279999999997017
467,2,0.8,0.0625,35.0,1,1.0,0.3077009999999518
468,2,0.8,0.125,35.0,1,1.0,0.48650100000008933
469,2,0.8,1.0,-35.0,-1,1.0,0.2478000000000975
470,2,0.8,0.0,-35.0,1,0.0,0.30290000000013606
471,2,0.8,0.0,-35.0,1,0.0,0.27460000000019136
472,2,0.8,0.0,35.0,-1,0.0,0.5
473,2,0.8,1.0,-35.0,-1,1.0,0.2414009999999962
474,2,0.8,0.0625,35.0,1,1.0,0.2802999999998974
475,2,0.8,0.125,-35.0,-1,1.0,0.33150000000000546
476,2,0.8,0.0,35.0,1,1.0,0.26320000000009713
477,2,0.8,1.0,-35.0,-1,1.0,0.20830099999989216
478,2,0.8,0.0,-35.0,-1,1.0,0.38990000000012515
479,2,0.8,1.0,-35.0,-1,1.0,0.38500100000010207
480,2,0.8,0.0625,-35.0,-1,1.0,3.137100000000146
481,2,0.8,0.0625,-35.0,-1,1.0,0.44520100000022467
482,2,0.8,0.0,-35.0,-1,1.0,0.3542009999998754
483,2,0.8,1.0,-35.0,-1,1.0,0.2585009999997965
484,2,0.8,0.0625,-35.0,-1,1.0,0.3807999999999083
485,2,0.8,0.0,35.0,1,1.0,0.3620009999999638
486,2,0.8,0.25,-35.0,-1,1.0,0.37740100000019083
487,2,0.2,1.0,35.0,1,1.0,0.16210000000000946
488,2,0.2,0.25,35.0,1,1.0,0.2644000000000233
489,2,0.2,0.0625,35.0,1,1.0,0.26210100000002967
490,2,0.2,1.0,35.0,1,1.0,0.24430099999995036
491,2,0.2,1.0,-35.0,-1,1.0,0.23889999999983047
492,2,0.2,1.0,-35.0,-1,1.0,0.2680000000000291
493,2,0.2,1.0,-35.0,-1,1.0,0.24570100000005368
494,2,0.2,0.125,35.0,1,1.0,0.2773010000000795
495,2,0.2,0.25,35.0,1,1.0,0.282399999999825
496,2,0.2,0.125,35.0,1,1.0,0.25460100000009334
497,2,0.2,0.0,35.0,1,1.0,0.3325999999999567
498,2,0.2,0.0625,35.0,1,1.0,0.34760099999994054
499,2,0.2,0.0625,35.0,1,1.0,0.31930099999999584
500,2,0.2,0.0,35.0,1,1.0,0.3213999999998123
501,2,0.2,0.25,35.0,1,1.0,0.20950100000004568
502,2,0.2,0.0,35.0,1,1.0,0.25440099999991617
503,2,0.2,0.125,35.0,1,1.0,0.7762000000002445
504,2,0.2,0.125,35.0,1,1.0,0.28440100000011626
505,2,0.2,0.25,-35.0,-1,1.0,0.8464010000002418
506,2,0.2,0.0625,35.0,1,1.0,0.3317010000000664
507,2,0.2,0.25,-35.0,-1,1.0,0.30640100000005077
508,2,0.2,0.125,35.0,1,1.0,0.26810100000011516
509,2,0.2,1.0,35.0,1,1.0,0.2564009999998689
510,2,0.2,0.125,35.0,1,1.0,0.2617000000000189
511,2,0.2,1.0,35.0,1,1.0,0.21650099999988015
512,2,0.2,0.0,35.0,1,1.0,0.26800100000014027
513,2,0.2,0.125,35.0,1,1.0,0.31009999999992033
514,2,0.2,0.25,35.0,1,1.0,0.2355009999998856
515,2,0.2,0.125,35.0,1,1.0,0.3302000000001044
516,2,0.2,1.0,35.0,1,1.0,0.24879999999984648
517,2,0.2,0.0625,35.0,1,1.0,0.31349999999997635
518,2,0.2,1.0,-35.0,-1,1.0,0.28880099999992126
519,2,0.2,0.0625,35.0,1,1.0,0.28690000000005966
520,2,0.2,0.0625,35.0,1,1.0,0.3218010000000504
521,2,0.2,0.0,-35.0,1,0.0,0.41039999999998145
522,2,0.2,0.0,35.0,-1,0.0,0.6850999999999203
523,2,0.2,0.125,35.0,1,1.0,0.2905000000000655
524,2,0.2,0.25,35.0,1,1.0,0.26880000000005566
525,2,0.2,0.125,35.0,1,1.0,0.2804999999998472
526,2,0.2,0.125,35.0,1,1.0,0.5690009999998438
527,2,0.2,0.0,-35.0,-1,1.0,1.074000999999953
528,2,0.2,0.25,35.0,1,1.0,0.3089010000003327
529,2,0.2,1.0,35.0,1,1.0,0.3641010000001188
530,2,0.2,0.125,35.0,1,1.0,0.48570099999960803
531,2,0.2,0.125,35.0,1,1.0,0.3807999999999083
532,2,0.2,1.0,35.0,1,1.0,0.2726009999996677
533,2,0.2,0.0625,-35.0,-1,1.0,0.41109999999980573
534,2,0.2,1.0,35.0,1,1.0,0.263199999999415
535,2,0.2,0.25,-35.0,-1,1.0,0.20100099999990562
536,2,0.2,0.25,35.0,-1,0.0,0.24980099999947925
537,2,0.2,1.0,35.0,1,1.0,0.3845010000000002
538,2,0.2,0.0,35.0,1,1.0,48.42280099999971
539,2,0.2,0.0,35.0,1,1.0,4.535199999999804
540,2,0.2,1.0,35.0,1,1.0,0.23050100000000384
541,2,0.2,0.0,35.0,-1,0.0,40.6654010000002
542,2,0.2,0.0,35.0,1,1.0,36.64079999999967
543,2,0.2,0.0625,35.0,1,1.0,0.44640099999969607
544,2,0.2,1.0,35.0,1,1.0,0.2312999999994645
545,2,0.2,0.125,35.0,1,1.0,3.6366009999997004
546,2,0.2,1.0,35.0,1,1.0,0.36220000000002983
547,2,0.2,0.0,-35.0,1,0.0,3.4398999999998523
548,2,0.2,1.0,-35.0,-1,1.0,0.22510099999954036
549,2,0.2,0.0625,35.0,1,1.0,5.433399999999892
550,2,0.2,0.125,35.0,1,1.0,3.9390000000003056
551,2,0.2,0.0625,35.0,-1,0.0,8.26700099999971
552,2,0.2,0.0625,-35.0,-1,1.0,4.592699999999695
553,2,0.2,0.25,35.0,1,1.0,3.763999999999669
554,2,0.2,0.0625,35.0,1,1.0,7.72280099999989
555,2,0.2,0.25,35.0,1,1.0,0.40090099999952145
556,2,0.8,1.0,35.0,1,1.0,0.2062999999998283
557,2,0.8,0.0625,-35.0,1,0.0,0.6808999999998377
558,2,0.8,0.0625,35.0,1,1.0,1.5293010000000322
559,2,0.8,0.0625,-35.0,-1,1.0,0.26110099999959857
560,2,0.8,0.0,-35.0,1,0.0,2.632499999999709
561,2,0.8,0.0,-35.0,-1,1.0,5.397799999999734
562,2,0.8,0.125,35.0,1,1.0,1.4333999999994376
563,2,0.8,0.0625,35.0,-1,0.0,0.5212999999998829
564,2,0.8,0.0,-35.0,1,0.0,0.7934999999997672
565,2,0.8,0.25,-35.0,-1,1.0,0.2614999999996144
566,2,0.8,0.25,-35.0,-1,1.0,0.25660100000004604
567,2,0.8,0.0625,-35.0,-1,1.0,0.451600999999755
568,2,0.8,0.0,-35.0,1,0.0,0.4100009999992835
569,2,0.8,1.0,-35.0,-1,1.0,0.28840099999933955
1,3,0.5,0.125,-35.0,-1,1.0,0.2903
2,3,0.5,0.125,-35.0,-1,1.0,0.7495010000000004
3,3,0.5,0.0625,35.0,1,1.0,0.3121010000000002
4,3,0.5,1.0,-35.0,-1,1.0,0.2528000000000006
5,3,0.5,0.0625,-35.0,-1,1.0,0.25849999999999973
6,3,0.5,0.0625,35.0,1,1.0,0.372200000000003
7,3,0.5,0.25,35.0,1,1.0,0.3819009999999956
8,3,0.5,0.25,-35.0,-1,1.0,0.4493000000000009
9,3,0.5,0.0625,35.0,1,1.0,0.5073009999999947
10,3,0.5,0.0,-35.0,1,0.0,0.49269999999999925
11,3,0.5,0.25,35.0,1,1.0,0.3435009999999963
12,3,0.5,0.0625,-35.0,-1,1.0,0.2823010000000039
13,3,0.5,1.0,-35.0,-1,1.0,0.22920100000000332
14,3,0.5,0.0625,35.0,1,1.0,0.9860000000000042
15,3,0.5,0.0625,-35.0,1,0.0,0.3423999999999978
16,3,0.5,1.0,35.0,1,1.0,0.24170000000000158
17,3,0.5,0.125,-35.0,-1,1.0,0.8598009999999974
18,3,0.5,0.0625,-35.0,1,0.0,0.31039999999999424
19,3,0.5,1.0,35.0,1,1.0,0.3019000000000034
20,3,0.5,0.0,-35.0,-1,1.0,0.4154010000000028
21,3,0.5,0.0,35.0,-1,0.0,0.25430000000000064
22,3,0.5,0.25,35.0,1,1.0,0.33030000000000825
23,3,0.5,0.0625,-35.0,1,0.0,0.3691010000000148
24,3,0.5,0.0,-35.0,1,0.0,8.979700999999991
25,3,0.5,1.0,-35.0,-1,1.0,0.35720000000000596
26,3,0.5,0.0,35.0,-1,0.0,0.770300000000006
27,3,0.5,0.0,-35.0,-1,1.0,0.35730100000000675
28,3,0.5,0.25,-35.0,-1,1.0,0.2341000000000122
29,3,0.5,0.25,35.0,1,1.0,0.28350000000000364
30,3,0.5,0.25,35.0,1,1.0,0.3547010000000199
31,3,0.5,0.25,-35.0,-1,1.0,0.44120000000000914
32,3,0.5,0.0,35.0,-1,0.0,0.7683010000000081
33,3,0.5,1.0,35.0,1,1.0,0.33660000000000423
34,3,0.5,0.0625,35.0,1,1.0,0.900999999999982
35,3,0.5,0.0,35.0,1,1.0,0.32679999999999154
36,3,0.5,0.0625,-35.0,1,0.0,0.33280100000001767
37,3,0.5,0.0,35.0,1,1.0,0.4301009999999792
38,3,0.5,1.0,35.0,1,1.0,0.2753009999999847
39,3,0.5,0.0,35.0,1,1.0,1.443300999999991
40,3,0.5,0.0,-35.0,1,0.0,0.3132009999999923
41,3,0.5,0.125,-35.0,1,0.0,0.23629999999997153
42,3,0.5,0.25,-35.0,-1,1.0,0.2852999999999781
43,3,0.5,1.0,35.0,1,1.0,0.24150000000000205
44,3,0.5,0.0625,-35.0,-1,1.0,0.3466009999999926
45,3,0.5,0.0,35.0,1,1.0,0.7963009999999713
46,3,0.5,0.0,35.0,-1,0.0,0.3342999999999847
47,3,0.5,0.25,35.0,1,1.0,0.47939999999996985
48,3,0.5,0.0,-35.0,1,0.0,0.32450099999999793
49,3,0.5,0.25,-35.0,-1,1.0,0.4487009999999714
50,3,0.5,0.25,-35.0,-1,1.0,0.25569999999999027
51,3,0.5,0.0,-35.0,-1,1.0,0.32880099999999857
52,3,0.5,0.0,35.0,-1,0.0,0.4849000000000103
53,3,0.5,0.0,-35.0,-1,1.0,0.3097010000000182
54,3,0.5,0.25,35.0,1,1.0,0.3000009999999804
55,3,0.5,0.0625,-35.0,-1,1.0,0.40030000000001564
56,3,0.5,0.0625,-35.0,-1,1.0,0.4418009999999981
57,3,0.5,0.25,35.0,1,1.0,0.5760009999999909
58,3,0.5,0.25,-35.0,-1,1.0,0.26830000000001064
59,3,0.5,0.0,-35.0,1,0.0,2.3348000000000013
60,3,0.5,0.25,-35.0,1,0.0,0.1175010000000043
61,3,0.5,1.0,-35.0,-1,1.0,0.30720099999999206
62,3,0.5,0.125,-35.0,-1,1.0,0.2595010000000002
63,3,0.5,0.25,35.0,-1,0.0,0.13320099999998547
64,3,0.5,0.0,35.0,-1,0.0,0.415900999999991
65,3,0.5,0.25,35.0,1,1.0,0.2711000000000183
66,3,0.5,0.125,35.0,1,1.0,0.29990000000000805
67,3,0.5,1.0,35.0,1,1.0,0.27490000000000236
68,3,0.5,0.0,-35.0,1,0.0,1.1200999999999794
69,3,0.5,0.0625,35.0,1,1.0,2.197599999999966
70,3,0.5,0.0,-35.0,1,0.0,0.30989999999997053
71,3,0.5,1.0,-35.0,-1,1.0,0.2654009999999971
72,3,0.5,1.0,-35.0,-1,1.0,0.2536999999999807
73,3,0.5,1.0,35.0,1,1.0,0.2470000000000141
74,3,0.5,1.0,35.0,1,1.0,0.2987009999999941
75,3,0.5,0.25,35.0,1,1.0,0.39869999999996253
76,3,0.5,0.125,-35.0,-1,1.0,0.694800999999984
77,3,0.5,1.0,-35.0,-1,1.0,0.24010099999998147
78,3,0.5,0.125,-35.0,-1,1.0,0.2733000000000061
79,3,0.5,0.25,35.0,1,1.0,0.2952009999999632
80,3,0.5,0.0625,-35.0,-1,1.0,0.5578000000000429
81,3,0.5,0.0,35.0,-1,0.0,0.3231000000000108
82,3,0.5,0.25,-35.0,-1,1.0,0.227800000000002
83,3,0.5,0.25,-35.0,-1,1.0,0.2732000000000312
84,3,0.5,0.25,35.0,1,1.0,0.33020000000004757
85,3,0.5,0.25,-35.0,-1,1.0,0.2555009999999811
86,3,0.5,0.25,-35.0,-1,1.0,0.34329999999994243
87,3,0.5,1.0,35.0,1,1.0,0.3815999999999349
88,3,0.5,0.25,35.0,1,1.0,0.4767009999999914
89,3,0.5,0.25,-35.0,-1,1.0,0.360499999999945
90,3,0.5,0.0625,-35.0,-1,1.0,0.3068010000000072
91,3,0.2,1.0,-35.0,-1,1.0,0.35149999999998727
92,3,0.2,0.0625,35.0,1,1.0,0.5912000000000148
93,3,0.2,0.0,35.0,-1,0.0,0.43339999999994916
94,3,0.2,0.0,35.0,1,1.0,0.3643009999999549
95,3,0.2,1.0,35.0,1,1.0,0.28150099999999156
96,3,0.2,1.0,35.0,1,1.0,0.2963999999999487
97,3,0.2,1.0,35.0,1,1.0,0.26280099999996764
98,3,0.2,0.0,35.0,1,1.0,0.49010000000004084
99,3,0.2,0.25,35.0,1,1.0,0.3013000000000261
100,3,0.2,0.125,35.0,1,1.0,0.28089999999997417
101,3,0.2,1.0,35.0,1,1.0,0.290600999999981
102,3,0.2,0.25,35.0,1,1.0,0.414100000000019
103,3,0.2,0.25,35.0,1,1.0,0.2846010000000092
104,3,0.2,0.25,35.0,1,1.0,0.22239999999999327
105,3,0.2,0.25,35.0,1,1.0,0.3210000000000264
106,3,0.2,0.0625,35.0,1,1.0,0.3125999999999749
107,3,0.2,0.0,35.0,1,1.0,0.31110000000001037
108,3,0.2,0.0,35.0,1,1.0,0.3066009999999437
109,3,0.2,0.0,35.0,1,1.0,0.5268009999999776
110,3,0.2,0.0,35.0,1,1.0,0.355700000000013
111,3,0.2,0.0625,-35.0,-1,1.0,0.4701999999999771
112,3,0.2,1.0,35.0,1,1.0,0.3091009999999983
113,3,0.2,0.125,-35.0,-1,1.0,0.2829999999999586
114,3,0.2,1.0,35.0,1,1.0,0.3375010000000316
115,3,0.2,1.0,35.0,1,1.0,0.32799999999997453
116,3,0.2,1.0,35.0,1,1.0,0.2699010000000044
117,3,0.8,1.0,-35.0,-1,1.0,0.2516010000000506
118,3,0.8,0.125,-35.0,-1,1.0,0.5715000000000146
119,3,0.8,0.125,-35.0,-1,1.0,0.27040099999999256
120,3,0.8,0.0625,-35.0,-1,1.0,0.30080099999997856
121,3,0.8,0.0,35.0,1,1.0,0.47549999999995407
122,3,0.8,0.0,-35.0,-1,1.0,0.28040000000004284
123,3,0.8,0.125,-35.0,-1,1.0,0.24210099999999102
124,3,0.8,0.0625,-35.0,-1,1.0,0.2595010000000002
125,3,0.8,0.25,-35.0,-1,1.0,0.5451009999999883
126,3,0.8,1.0,35.0,1,1.0,1.0689009999999826
127,3,0.8,0.0625,35.0,1,1.0,0.9539999999999509
128,3,0.8,0.0625,-35.0,-1,1.0,0.2637009999999691
129,3,0.8,0.0,-35.0,1,0.0,0.43700099999995246
130,3,0.8,0.25,-35.0,-1,1.0,0.25739999999996144
131,3,0.8,0.0625,35.0,1,1.0,0.3009000000000128
132,3,0.8,0.125,-35.0,-1,1.0,0.2888999999999555
133,3,0.8,0.125,-35.0,-1,1.0,0.24830000000002883
134,3,0.8,0.0625,-35.0,-1,1.0,0.3146009999999819
135,3,0.8,0.0625,-35.0,1,0.0,0.09359999999998081
136,3,0.8,0.25,-35.0,-1,1.0,0.21970000000004575
137,3,0.8,0.0625,-35.0,-1,1.0,0.5198010000000295
138,3,0.8,0.0,-35.0,-1,1.0,0.2472010000000182
139,3,0.8,0.125,-35.0,-1,1.0,0.30750000000000455
140,3,0.8,1.0,-35.0,-1,1.0,0.38390000000015334
141,3,0.8,0.0,-35.0,-1,1.0,0.7675000000000409
142,3,0.8,0.0625,35.0,1,1.0,0.3610000000001037
143,3,0.8,0.0625,35.0,1,1.0,0.5776010000000724
144,3,0.8,0.0625,-35.0,-1,1.0,0.25700000000006185
145,3,0.8,0.125,-35.0,-1,1.0,0.3206000000000131
146,3,0.8,1.0,-35.0,-1,1.0,0.25890100000003713
147,3,0.8,0.125,-35.0,-1,1.0,0.4915000000000873
148,3,0.8,0.25,-35.0,-1,1.0,0.2239999999999327
149,3,0.8,0.125,35.0,1,1.0,0.3145009999999502
150,3,0.8,0.0625,-35.0,-1,1.0,0.3181010000000697
151,3,0.8,1.0,35.0,1,1.0,0.2618000000001075
152,3,0.8,0.125,-35.0,-1,1.0,0.25050099999998565
153,3,0.8,0.125,-35.0,-1,1.0,0.2678010000000768
154,3,0.8,0.0,-35.0,-1,1.0,0.4287010000000464
155,3,0.8,0.0625,-35.0,-1,1.0,0.63900000000001
156,3,0.8,0.25,-35.0,-1,1.0,0.4657000000000835
157,3,0.8,1.0,35.0,1,1.0,0.9506999999999834
158,3,0.8,0.25,-35.0,-1,1.0,0.10430100000007769
159,3,0.8,0.0625,-35.0,-1,1.0,0.5174000000001797
160,3,0.8,0.0,35.0,-1,0.0,7.737101000000052
161,3,0.8,0.0625,35.0,-1,0.0,0.5410010000000511
162,3,0.8,0.25,-35.0,-1,1.0,0.20800100000008115
163,3,0.8,0.25,-35.0,-1,1.0,0.22410000000002128
164,3,0.8,1.0,-35.0,-1,1.0,0.26490000000001146
165,3,0.8,0.0625,35.0,1,1.0,0.3746010000000979
166,3,0.8,0.0625,-35.0,-1,1.0,0.48270000000002256
167,3,0.2,0.0,35.0,1,1.0,0.3063010000000759
168,3,0.2,0.0625,-35.0,-1,1.0,0.7356000000000904
169,3,0.2,0.0,35.0,1,1.0,0.2901010000000497
170,3,0.2,0.125,35.0,1,1.0,0.34720100000004095
171,3,0.2,0.25,35.0,1,1.0,0.2674010000000635
172,3,0.2,0.125,35.0,1,1.0,0.33310000000005857
173,3,0.2,0.0625,35.0,1,1.0,0.3591999999999871
174,3,0.2,0.0625,-35.0,1,0.0,0.33660100000008697
175,3,0.2,1.0,35.0,1,1.0,0.2942000000000462
176,3,0.2,0.0625,35.0,1,1.0,0.3064999999999145
177,3,0.2,0.0625,35.0,1,1.0,0.29130000000009204
178,3,0.2,0.25,-35.0,-1,1.0,0.2609010000001035
179,3,0.2,1.0,35.0,1,1.0,0.24390200000004825
180,3,0.2,0.125,-35.0,-1,1.0,0.3011020000000144
181,3,0.2,0.25,35.0,1,1.0,0.28110100000003513
182,3,0.2,0.0625,35.0,1,1.0,0.3648010000000568
183,3,0.2,1.0,35.0,1,1.0,0.22680200000013429
184,3,0.2,0.0625,35.0,1,1.0,0.26290100000005623
185,3,0.2,0.25,-35.0,-1,1.0,0.3057010000001128
186,3,0.2,1.0,35.0,1,1.0,0.2636019999999917
187,3,0.2,0.0625,35.0,1,1.0,0.35470200000008845
188,3,0.2,0.125,35.0,1,1.0,0.333302000000117
189,3,0.8,0.0,-35.0,1,0.0,0.36260200000015175
190,3,0.8,0.0625,-35.0,-1,1.0,0.535301000000004
191,3,0.8,0.0625,-35.0,-1,1.0,0.2940010000000939
192,3,0.8,0.125,-35.0,-1,1.0,0.3713020000001279
193,3,0.8,0.0625,-35.0,-1,1.0,0.307301999999936
194,3,0.8,1.0,35.0,1,1.0,0.26280100000008133
195,3,0.8,0.0,-35.0,-1,1.0,0.8447020000000975
196,3,0.8,0.0,-35.0,-1,1.0,0.3758020000000215
197,3,0.8,0.0625,35.0,-1,0.0,0.3123010000000477
198,3,0.8,0.125,-35.0,-1,1.0,0.3177020000000539
199,3,0.8,0.125,35.0,1,1.0,0.26850100000001476
200,3,0.8,0.0,-35.0,-1,1.0,0.29440100000010716
201,3,0.8,0.25,-35.0,-1,1.0,0.2732019999999693
202,3,0.8,0.125,-35.0,-1,1.0,0.32260199999996075
203,3,0.8,0.0,35.0,-1,0.0,0.3880010000000311
204,3,0.8,0.0625,-35.0,-1,1.0,1.1060019999999895
205,3,0.8,0.25,35.0,1,1.0,0.33700199999998404
206,3,0.8,0.125,-35.0,-1,1.0,0.46510200000011537
207,3,0.8,0.125,-35.0,-1,1.0,0.23400100000003476
208,3,0.8,0.0,-35.0,-1,1.0,5.344201000000112
209,3,0.8,0.25,-35.0,-1,1.0,0.22230100000001585
210,3,0.8,0.0625,35.0,1,1.0,0.5717010000000755
211,3,0.8,0.0625,35.0,1,1.0,0.25410100000010516
212,3,0.8,1.0,-35.0,-1,1.0,0.2789020000000164
213,3,0.8,0.25,-35.0,-1,1.0,0.27620200000001205
214,3,0.8,0.0,-35.0,1,0.0,2.5599010000000817
215,3,0.8,0.0,-35.0,-1,1.0,0.5362010000001192
216,3,0.8,0.25,-35.0,-1,1.0,0.23700099999996382
217,3,0.8,0.0,-35.0,-1,1.0,0.307501000000002
218,3,0.8,0.0,-35.0,-1,1.0,0.43920200000002296
219,3,0.8,0.0,-35.0,-1,1.0,0.34530099999994945
220,3,0.8,0.0625,35.0,1,1.0,0.33010200000012446
221,3,0.8,0.0,35.0,-1,0.0,0.22040100000003804
222,3,0.8,0.125,-35.0,-1,1.0,0.2677009999999882
223,3,0.8,0.0625,-35.0,-1,1.0,0.23860100000013063
224,3,0.8,0.125,-35.0,-1,1.0,0.42580100000009224
225,3,0.8,0.0,35.0,-1,0.0,0.1965020000000095
226,3,0.8,1.0,-35.0,-1,1.0,0.23600100000010116
227,3,0.8,0.0,35.0,-1,0.0,0.31920100000002094
228,3,0.8,0.25,-35.0,-1,1.0,0.2815010000001621
229,3,0.8,0.0,-35.0,-1,1.0,0.41510200000004716
230,3,0.8,0.125,-35.0,-1,1.0,0.25440200000002733
231,3,0.8,0.25,35.0,1,1.0,0.26470100000005914
232,3,0.8,0.25,-35.0,-1,1.0,0.41600100000005114
233,3,0.8,0.125,-35.0,-1,1.0,0.23790100000007897
234,3,0.8,1.0,-35.0,-1,1.0,0.2675020000000359
235,3,0.8,0.25,-35.0,-1,1.0,0.21850100000017392
236,3,0.8,0.0,-35.0,-1,1.0,0.4825020000000677
237,3,0.8,1.0,35.0,1,1.0,0.4427020000000539
238,3,0.8,0.0,-35.0,-1,1.0,0.1668010000000777
239,3,0.8,0.125,-35.0,-1,1.0,0.2930020000000013
240,3,0.8,0.125,-35.0,-1,1.0,0.2514009999999871
241,3,0.8,0.0625,35.0,1,1.0,0.3602019999999584
242,3,0.8,1.0,-35.0,-1,1.0,0.2324020000000928
243,3,0.8,0.0,-35.0,1,0.0,5.6299020000000155
244,3,0.8,0.25,35.0,1,1.0,0.27660100000002785
245,3,0.8,0.25,35.0,1,1.0,0.2650019999999813
246,3,0.2,0.25,35.0,1,1.0,0.46600100000011935
247,3,0.2,0.0,-35.0,-1,1.0,0.44690200000013647
248,3,0.2,0.125,35.0,1,1.0,0.2792020000000548
249,3,0.2,0.125,35.0,1,1.0,0.2871020000000044
250,3,0.2,1.0,35.0,1,1.0,0.2773010000000795
251,3,0.2,0.0,35.0,-1,0.0,0.2760010000000648
252,3,0.2,0.0,35.0,1,1.0,0.30270200000006753
253,3,0.2,0.0625,35.0,1,1.0,0.27810199999998986
254,3,0.2,0.0,35.0,1,1.0,0.3665009999999711
255,3,0.2,0.0625,35.0,1,1.0,0.3217010000000755
256,3,0.2,0.0,35.0,1,1.0,0.28790200000003097
257,3,0.2,0.0,-35.0,1,0.0,0.24610100000006696
258,3,0.2,0.25,35.0,1,1.0,0.27690100000006623
259,3,0.2,0.0625,35.0,1,1.0,0.33550100000002203
260,3,0.2,0.0625,-35.0,-1,1.0,0.28050200000006953
261,3,0.2,0.125,-35.0,-1,1.0,0.27620200000001205
262,3,0.2,0.125,35.0,1,1.0,0.3172010000001819
263,3,0.2,1.0,35.0,1,1.0,0.24230099999999766
264,3,0.2,0.0625,35.0,1,1.0,0.29080199999998513
265,3,0.2,0.125,35.0,1,1.0,0.34920099999999366
266,3,0.2,0.125,-35.0,-1,1.0,0.5040010000000166
267,3,0.2,1.0,-35.0,-1,1.0,0.24240099999997256
268,3,0.2,0.0,35.0,-1,0.0,0.7507020000000466
269,3,0.2,0.0625,35.0,1,1.0,0.2938010000000304
270,3,0.2,0.0625,35.0,1,1.0,0.27750099999980193
271,3,0.2,0.125,35.0,1,1.0,0.28280199999994693
272,3,0.2,1.0,-35.0,-1,1.0,0.2209020000000237
273,3,0.2,0.125,35.0,1,1.0,0.31950099999994563
274,3,0.2,0.0,35.0,-1,0.0,0.281001999999944
275,3,0.2,1.0,35.0,1,1.0,0.283102000000099
276,3,0.2,0.25,35.0,1,1.0,0.24790099999995618
277,3,0.2,1.0,35.0,1,1.0,0.2564009999998689
278,3,0.8,0.0,-35.0,1,0.0,0.304602000000159
279,3,0.8,0.125,-35.0,-1,1.0,0.23990099999991799
280,3,0.8,0.0625,-35.0,-1,1.0,0.3081009999998514
281,3,0.8,0.0,-35.0,1,0.0,5.056601999999884
282,3,0.8,0.0625,-35.0,-1,1.0,0.2249019999999291
283,3,0.8,0.25,-35.0,-1,1.0,0.24670199999991382
284,3,0.8,1.0,-35.0,-1,1.0,0.22170099999993909
285,3,0.8,0.125,-35.0,-1,1.0,0.24700099999995473
286,3,0.8,0.0,-35.0,-1,1.0,0.4051010000000588
287,3,0.8,1.0,-35.0,-1,1.0,0.23690099999998893
288,3,0.8,0.25,35.0,1,1.0,0.3752019999997174
289,3,0.8,0.25,35.0,1,1.0,0.24020199999995384
290,3,0.8,0.125,35.0,1,1.0,0.3021019999998771
291,3,0.8,0.0625,-35.0,-1,1.0,12.443800999999894
292,3,0.8,0.0625,-35.0,-1,1.0,0.3724009999998543
293,3,0.8,0.125,-35.0,-1,1.0,0.2714019999998527
294,3,0.8,0.0625,-35.0,-1,1.0,19.32570099999998
295,3,0.8,0.0,-35.0,1,0.0,1.2244009999999435
296,3,0.8,0.0625,-35.0,-1,1.0,0.9917009999999209
297,3,0.8,0.25,-35.0,-1,1.0,0.44620199999985743
298,3,0.8,1.0,-35.0,-1,1.0,0.23820200000000114
299,3,0.8,0.0625,-35.0,-1,1.0,0.41970199999991564
300,3,0.8,0.125,-35.0,-1,1.0,0.30150099999991653
301,3,0.8,0.0625,-35.0,-1,1.0,0.25620199999980287
302,3,0.2,0.0,-35.0,-1,1.0,0.35150099999987106
303,3,0.2,0.125,35.0,1,1.0,0.32310099999995145
304,3,0.2,0.25,35.0,1,1.0,0.33240200000000186
305,3,0.2,0.25,35.0,1,1.0,0.2798009999999067
306,3,0.2,0.0,35.0,1,1.0,0.28870199999983015
307,3,0.2,0.0625,35.0,1,1.0,0.31320199999981924
308,3,0.2,0.0,35.0,1,1.0,0.40160100000002785
309,3,0.2,0.0625,35.0,1,1.0,0.3333020000002307
310,3,0.2,0.25,-35.0,-1,1.0,0.3319010000000162
311,3,0.2,0.0625,35.0,1,1.0,0.3501009999999951
312,3,0.2,0.0625,35.0,-1,0.0,0.34250199999996767
313,3,0.2,0.0,35.0,1,1.0,0.38350199999990764
314,3,0.2,0.125,35.0,1,1.0,0.318800999999894
315,3,0.2,0.0625,35.0,1,1.0,0.27030200000012883
316,3,0.2,0.0625,35.0,1,1.0,0.27880099999993035
317,3,0.2,1.0,35.0,1,1.0,0.25040199999989454
318,3,0.2,0.0625,35.0,1,1.0,0.3027009999998427
319,3,0.2,0.0,35.0,1,1.0,0.3171019999999771
320,3,0.2,0.0,35.0,1,1.0,0.4122019999999793
321,3,0.2,0.0,35.0,1,1.0,0.33050200000002405
322,3,0.2,0.25,35.0,1,1.0,0.31900099999984377
323,3,0.2,0.25,35.0,1,1.0,0.11400200000002769
324,3,0.2,0.0625,35.0,1,1.0,0.2825009999999111
325,3,0.2,1.0,35.0,1,1.0,0.24740099999985432
326,3,0.2,0.0,35.0,1,1.0,0.2965009999998074
327,3,0.2,0.125,35.0,1,1.0,0.27770099999975173
328,3,0.2,1.0,35.0,1,1.0,0.23280100000010862
329,3,0.2,0.25,35.0,1,1.0,0.3244009999998525
330,3,0.2,0.25,35.0,1,1.0,0.2734009999999216
331,3,0.2,0.0625,35.0,1,1.0,0.2977020000000721
332,3,0.2,0.0,35.0,1,1.0,0.34610200000020086
333,3,0.2,1.0,35.0,1,1.0,0.2412019999999302
334,3,0.2,0.25,35.0,1,1.0,0.3071019999999862
335,3,0.2,0.125,-35.0,-1,1.0,1.0579009999999016
336,3,0.2,0.0625,35.0,1,1.0,0.34000099999980193
337,3,0.2,0.0,35.0,-1,0.0,0.2247019999999793
338,3,0.2,0.0,35.0,1,1.0,0.800501999999824
339,3,0.2,0.25,35.0,1,1.0,0.3214020000000346
340,3,0.2,0.125,35.0,-1,0.0,0.3665009999999711
341,3,0.2,1.0,35.0,1,1.0,0.2916020000000117
342,3,0.2,0.0625,35.0,1,1.0,0.38710100000002967
343,3,0.2,0.0625,35.0,1,1.0,0.2583020000001852
344,3,0.2,0.0625,35.0,1,1.0,0.40360099999998056
345,3,0.2,1.0,35.0,1,1.0,0.26840199999992365
346,3,0.2,1.0,35.0,1,1.0,0.2636009999998805
347,3,0.2,0.0625,35.0,1,1.0,0.27850199999988945
348,3,0.2,0.0,35.0,1,1.0,0.400700999999799
349,3,0.2,0.25,35.0,1,1.0,0.2620010000000548
350,3,0.2,0.125,35.0,1,1.0,0.4105019999999513
351,3,0.2,0.125,35.0,1,1.0,0.28210200000012264
352,3,0.2,1.0,35.0,1,1.0,0.3137019999999211
353,3,0.2,0.125,35.0,1,1.0,0.3022009999999682
354,3,0.2,0.125,35.0,1,1.0,0.28730099999984304
355,3,0.2,1.0,35.0,1,1.0,0.2956019999999171
356,3,0.2,0.125,-35.0,-1,1.0,0.8341009999999187
357,3,0.2,0.0625,35.0,1,1.0,0.3023019999998269
358,3,0.2,0.0625,35.0,1,1.0,0.3078009999999267
359,3,0.2,0.125,35.0,1,1.0,0.3223009999999249
360,3,0.2,0.125,35.0,1,1.0,0.25460099999986596
361,3,0.2,0.0,35.0,1,1.0,0.3859019999999873
362,3,0.2,0.0625,35.0,1,1.0,0.4945020000000113
363,3,0.2,0.125,35.0,1,1.0,0.26270099999987906
364,3,0.2,0.0625,-35.0,-1,1.0,0.22160099999973681
365,3,0.2,0.0625,35.0,1,1.0,0.2893019999999069
366,3,0.2,1.0,35.0,1,1.0,0.27450100000010025
367,3,0.2,0.0625,35.0,1,1.0,0.3795020000000022
368,3,0.2,0.25,35.0,1,1.0,0.24510099999997692
369,3,0.2,0.125,35.0,1,1.0,0.28620100000011917
370,3,0.2,0.125,35.0,1,1.0,0.358201999999892
371,3,0.2,1.0,-35.0,-1,1.0,0.23640199999999822
372,3,0.2,0.125,-35.0,-1,1.0,0.5088019999998323
373,3,0.2,0.25,35.0,1,1.0,0.24990200000002005
374,3,0.2,0.0625,35.0,1,1.0,0.6153019999999287
375,3,0.2,0.0625,-35.0,-1,1.0,0.3000019999999495
376,3,0.2,0.25,35.0,1,1.0,0.23840100000006714
377,3,0.2,0.125,35.0,1,1.0,0.2733009999999467
378,3,0.2,0.25,35.0,1,1.0,0.25870199999985743
379,3,0.2,0.0,35.0,-1,0.0,8.806702000000087
380,3,0.2,0.0,-35.0,1,0.0,0.2790019999999913
381,3,0.2,0.0,35.0,-1,0.0,0.36040200000002187
382,3,0.2,0.125,35.0,1,1.0,0.38890199999991637
383,3,0.2,0.0625,35.0,1,1.0,3.683801999999787
384,3,0.2,0.0,35.0,1,1.0,0.8925010000000384
385,3,0.2,0.0625,35.0,1,1.0,0.2873019999999542
386,3,0.2,0.125,35.0,1,1.0,16.61670099999992
387,3,0.2,0.0625,35.0,1,1.0,7.907800999999836
388,3,0.2,1.0,-35.0,-1,1.0,0.2632009999999809
389,3,0.2,1.0,35.0,1,1.0,0.26790200000004916
390,3,0.2,0.0625,-35.0,-1,1.0,0.27700099999992744
391,3,0.2,0.0625,-35.0,-1,1.0,0.30140099999971426
392,3,0.2,0.125,35.0,1,1.0,0.2874019999999291
393,3,0.2,0.0,35.0,1,1.0,0.30470199999990655
394,3,0.2,0.0625,-35.0,-1,1.0,0.19040100000006532
395,3,0.8,0.25,-35.0,-1,1.0,0.23480199999971774
396,3,0.8,0.25,-35.0,-1,1.0,0.25040199999989454
397,3,0.8,0.125,-35.0,-1,1.0,0.28490099999999074
398,3,0.8,0.25,35.0,1,1.0,0.27040199999987635
399,3,0.8,0.0,-35.0,1,0.0,0.33500200000003133
400,3,0.8,0.0625,35.0,1,1.0,0.2470020000000659
401,3,0.8,0.125,-35.0,-1,1.0,0.29830199999992146
402,3,0.8,0.125,-35.0,-1,1.0,0.25430199999982506
403,3,0.8,0.25,-35.0,-1,1.0,0.34510099999988597
404,3,0.8,0.0,-35.0,-1,1.0,0.6105019999997694
405,3,0.8,0.0,-35.0,-1,1.0,0.29860099999996237
406,3,0.8,0.0,-35.0,1,0.0,0.2977009999999609
407,3,0.8,0.25,-35.0,-1,1.0,0.32530100000008133
408,3,0.8,0.125,-35.0,-1,1.0,3.124001000000135
409,3,0.8,0.25,-35.0,-1,1.0,0.23210100000005696
410,3,0.8,0.125,-35.0,-1,1.0,0.27420199999983197
411,3,0.8,0.25,35.0,1,1.0,0.2989019999999982
412,3,0.8,0.125,-35.0,-1,1.0,0.26840100000003986
413,3,0.8,0.0625,-35.0,-1,1.0,0.4022010000001046
414,3,0.8,0.0625,-35.0,-1,1.0,0.7578009999999722
415,3,0.8,1.0,-35.0,-1,1.0,0.40570100000013554
416,3,0.8,0.0,-35.0,1,0.0,1.477800999999772
417,3,0.8,0.125,-35.0,-1,1.0,0.38280200000008335
418,3,0.8,0.125,-35.0,-1,1.0,3.1709009999997306
419,3,0.8,0.125,-35.0,-1,1.0,2.0528019999999287
420,3,0.8,0.25,35.0,1,1.0,0.3579019999999673
421,3,0.8,0.125,-35.0,-1,1.0,0.2695019999998749
422,3,0.8,0.0,-35.0,-1,1.0,2.971700999999939
423,3,0.2,0.0625,35.0,1,1.0,4.472801999999774
424,3,0.2,0.0625,35.0,1,1.0,1.3514009999998962
425,3,0.2,0.125,35.0,1,1.0,1.4997010000001865
426,3,0.2,0.0,35.0,1,1.0,0.28210199999989527
427,3,0.2,1.0,35.0,1,1.0,0.3266009999999824
428,3,0.2,0.0,35.0,1,1.0,4.02180199999998
429,3,0.2,0.0,-35.0,1,0.0,5.390002000000095
430,3,0.2,0.0625,-35.0,1,0.0,0.6393009999999322
431,3,0.2,0.0625,35.0,1,1.0,3.4401009999999133
432,3,0.2,0.125,-35.0,-1,1.0,5.042402000000038
433,3,0.2,1.0,35.0,1,1.0,0.2837010000000646
434,3,0.2,0.125,35.0,1,1.0,0.5556009999997968
435,3,0.2,1.0,35.0,1,1.0,0.33060199999999895
436,3,0.2,0.25,35.0,1,1.0,0.36560199999985343
437,3,0.2,0.0,-35.0,-1,1.0,0.7606020000000626
438,3,0.2,1.0,35.0,1,1.0,0.2657010000000355
439,3,0.2,0.0625,35.0,1,1.0,0.31400200000007317
440,3,0.2,0.125,-35.0,-1,1.0,0.3464010000000144
441,3,0.2,0.0625,35.0,-1,0.0,0.3276020000000699
442,3,0.2,0.25,35.0,1,1.0,0.3064009999998234
443,3,0.2,0.125,35.0,1,1.0,0.281001999999944
444,3,0.2,0.25,35.0,1,1.0,0.2800010000000839
445,3,0.2,0.0,35.0,-1,0.0,0.5643009999998867
446,3,0.2,0.25,-35.0,-1,1.0,0.24020099999984268
447,3,0.2,0.0,35.0,1,1.0,0.15430100000003222
448,3,0.2,1.0,35.0,1,1.0,0.2736019999999826
449,3,0.2,0.25,35.0,1,1.0,0.28460100000006605
450,3,0.2,0.125,-35.0,-1,1.0,0.5164010000000872
451,3,0.2,1.0,35.0,1,1.0,0.2579009999999471
452,3,0.2,0.0625,35.0,1,1.0,0.6105009999998856
453,3,0.2,0.125,-35.0,-1,1.0,0.5481009999998605
454,3,0.2,0.125,35.0,1,1.0,0.27010199999995166
455,3,0.2,0.25,35.0,1,1.0,0.5748009999999795
456,3,0.2,0.25,35.0,-1,0.0,0.6737020000000484
457,3,0.2,1.0,35.0,1,1.0,0.27500099999997474
458,3,0.2,0.25,35.0,1,1.0,0.2238009999998667
459,3,0.2,0.0625,35.0,1,1.0,0.2950020000000677
460,3,0.2,1.0,35.0,1,1.0,0.2807009999996808
461,3,0.2,0.0,35.0,1,1.0,14.098300999999992
462,3,0.2,0.0625,35.0,1,1.0,0.5779019999999946
463,3,0.2,1.0,35.0,1,1.0,0.2654019999997672
464,3,0.2,0.0625,35.0,1,1.0,0.31720100000006823
465,3,0.2,0.125,35.0,1,1.0,0.2921019999998862
466,3,0.2,0.125,35.0,1,1.0,0.28070099999990816
467,3,0.2,0.0625,35.0,1,1.0,2.755501000000095
468,3,0.2,1.0,35.0,1,1.0,0.5179010000001654
469,3,0.2,0.0,35.0,1,1.0,0.31230200000004515
470,3,0.2,0.25,35.0,1,1.0,0.2741009999997459
471,3,0.2,0.0,35.0,1,1.0,0.32900199999994584
472,3,0.2,0.125,35.0,1,1.0,0.2682009999998627
473,3,0.2,0.125,-35.0,-1,1.0,0.3626009999998132
474,3,0.2,0.125,35.0,1,1.0,0.32150099999989834
475,3,0.8,0.0625,-35.0,-1,1.0,0.34920199999987744
476,3,0.8,0.25,-35.0,-1,1.0,0.23190199999999095
477,3,0.8,0.0,35.0,-1,0.0,0.5993009999997412
478,3,0.8,0.0,-35.0,-1,1.0,0.3016010000001188
479,3,0.8,1.0,-35.0,-1,1.0,0.22600099999999657
480,3,0.8,0.125,-35.0,-1,1.0,0.2918009999998503
481,3,0.8,0.0625,-35.0,-1,1.0,0.24290100000007442
482,3,0.8,0.0,-35.0,1,0.0,0.3782019999998738
483,3,0.8,0.0,35.0,1,1.0,0.34510199999999713
484,3,0.8,0.125,-35.0,-1,1.0,0.24970200000007026
485,3,0.8,0.0625,-35.0,-1,1.0,0.30920100000003004
486,3,0.8,1.0,-35.0,-1,1.0,0.2598009999999249
487,3,0.8,0.0,-35.0,1,0.0,0.30900099999985287
488,3,0.8,0.125,-35.0,-1,1.0,0.2999009999998634
489,3,0.8,1.0,-35.0,-1,1.0,0.2852019999997992
490,3,0.8,0.0625,-35.0,-1,1.0,0.30340099999989434
491,3,0.8,0.25,-35.0,-1,1.0,0.2694019999999
492,3,0.8,0.125,-35.0,-1,1.0,0.3601019999998698
493,3,0.8,0.0,-35.0,-1,1.0,0.4264020000000528
494,3,0.8,0.25,-35.0,-1,1.0,0.2536009999998896
495,3,0.8,0.0,-35.0,-1,1.0,0.42560199999979886
496,3,0.8,0.0625,-35.0,-1,1.0,0.33700199999998404
497,3,0.8,0.0625,-35.0,-1,1.0,0.22660199999972974
498,3,0.8,0.125,35.0,1,1.0,4.037102000000004
499,3,0.8,0.0,-35.0,-1,1.0,0.3524019999999837
500,3,0.8,0.0,-35.0,1,0.0,7.077201999999943
501,3,0.8,0.0625,-35.0,-1,1.0,0.7062009999999646
502,3,0.8,0.0,-35.0,1,0.0,0.39070099999958074
503,3,0.8,0.125,35.0,-1,0.0,0.48270199999979013
504,3,0.8,0.125,35.0,-1,0.0,0.734201999999641
505,3,0.8,0.0,35.0,1,1.0,0.3828020000005381
506,3,0.8,0.25,-35.0,-1,1.0,0.32430199999998877
507,3,0.8,0.125,-35.0,-1,1.0,1.8530009999999493
508,3,0.8,0.0625,-35.0,-1,1.0,0.3644009999993614
509,3,0.8,0.0,-35.0,-1,1.0,0.38300200000003315
510,3,0.8,0.0625,-35.0,-1,1.0,0.5845009999998183
511,3,0.8,0.125,-35.0,-1,1.0,0.31630200000017794
512,3,0.8,0.0625,-35.0,-1,1.0,0.33470200000010664
513,3,0.8,0.0,35.0,-1,0.0,0.610302000000047
514,3,0.8,0.125,35.0,1,1.0,0.3281010000000606
515,3,0.8,0.0625,35.0,1,1.0,0.32030200000008335
516,3,0.8,0.125,35.0,1,1.0,0.2514019999998709
517,3,0.8,1.0,-35.0,-1,1.0,0.22350199999982578
518,3,0.8,0.0625,-35.0,-1,1.0,0.5848020000003089
519,3,0.8,0.0625,-35.0,-1,1.0,0.27440200000000914
520,3,0.8,0.0625,-35.0,-1,1.0,0.3084009999997761
521,3,0.8,1.0,-35.0,-1,1.0,0.3375020000003133
522,3,0.2,1.0,35.0,1,1.0,0.21510200000011537
523,3,0.2,0.25,35.0,1,1.0,0.3471009999998387
524,3,0.2,0.0625,35.0,1,1.0,0.7651020000002973
525,3,0.2,0.0,-35.0,1,0.0,8.910401000000093
526,3,0.2,0.25,35.0,1,1.0,0.20870100000001912
527,3,0.2,0.125,35.0,1,1.0,0.39740100000017264
528,3,0.2,0.25,35.0,1,1.0,0.28230200000007244
529,3,0.2,0.25,35.0,1,1.0,0.6083009999997557
530,3,0.2,0.25,35.0,1,1.0,0.2722019999996519
531,3,0.2,1.0,35.0,1,1.0,0.3016010000001188
532,3,0.2,0.25,35.0,1,1.0,4.77900099999988
533,3,0.2,1.0,35.0,1,1.0,0.27080100000011953
534,3,0.2,0.0625,35.0,1,1.0,0.35910199999989345
535,3,0.2,1.0,35.0,1,1.0,0.3177019999998265
536,3,0.2,0.125,-35.0,1,0.0,0.6960009999997965
537,3,0.2,0.25,-35.0,-1,1.0,0.4410010000001421
538,3,0.2,0.25,35.0,1,1.0,4.049301000000014
539,3,0.2,1.0,35.0,1,1.0,0.25810099999944214
540,3,0.2,0.25,35.0,1,1.0,0.2796010000001843
541,3,0.2,0.0625,35.0,1,1.0,0.3720020000000659
542,3,0.2,1.0,35.0,1,1.0,0.26290200000039476
543,3,0.2,0.0625,35.0,1,1.0,0.33170099999961167
544,3,0.2,0.0625,-35.0,1,0.0,4.742902000000413
545,3,0.2,0.0,35.0,1,1.0,8.882200999999895
546,3,0.2,0.25,35.0,1,1.0,0.3799020000001292
547,3,0.2,1.0,35.0,1,1.0,0.2588009999994938
548,3,0.2,0.125,35.0,1,1.0,2.0400009999998474
549,3,0.2,1.0,-35.0,-1,1.0,0.248801000000185
550,3,0.2,0.125,35.0,1,1.0,2.396802000000207
551,3,0.2,0.125,35.0,1,1.0,0.29240100000015445
552,3,0.2,0.125,35.0,1,1.0,0.2868010000001959
553,3,0.2,0.25,-35.0,-1,1.0,0.2893020000001343
554,3,0.2,0.0,35.0,1,1.0,23.826902000000246
555,3,0.2,0.25,-35.0,-1,1.0,0.22260099999994054
556,3,0.2,1.0,-35.0,-1,1.0,0.2739010000000235
557,3,0.2,0.0625,35.0,1,1.0,16.79010100000005
558,3,0.2,0.25,-35.0,-1,1.0,5.377701999999772
559,3,0.2,0.0625,35.0,1,1.0,0.8302019999996446
560,3,0.2,0.25,35.0,-1,0.0,2.9145009999997455
561,3,0.2,1.0,35.0,1,1.0,0.9597020000001066
562,3,0.2,1.0,35.0,1,1.0,0.298001000000113
563,3,0.2,0.25,-35.0,-1,1.0,1.4734019999996235
564,3,0.2,0.25,35.0,1,1.0,3.018000999999913
565,3,0.2,0.125,35.0,-1,0.0,8.68000099999972
566,3,0.2,0.0625,35.0,1,1.0,0.5883019999996577
567,3,0.2,0.25,35.0,1,1.0,2.5270009999999274
568,3,0.2,0.125,-35.0,-1,1.0,23.421700999999757
569,3,0.2,0.25,35.0,1,1.0,2.4677010000004884
570,3,0.2,0.125,35.0,-1,0.0,1.085501000000022
571,3,0.2,0.25,35.0,1,1.0,0.7840019999998731
572,3,0.2,0.25,35.0,1,1.0,0.3724010000000817
573,3,0.2,1.0,35.0,1,1.0,5.681000999999924
574,3,0.2,0.25,-35.0,-1,1.0,0.37260199999946053
575,3,0.2,1.0,35.0,1,1.0,0.20530099999950835
1,4,0.5,0.0625,35.0,1,1.0,0.3537999999999999
2,4,0.5,1.0,-35.0,-1,1.0,0.3932000000000002
3,4,0.5,1.0,35.0,1,1.0,0.27050099999999944
4,4,0.5,0.0625,35.0,1,1.0,0.3561000000000014
5,4,0.5,0.0,35.0,1,1.0,0.3365009999999984
6,4,0.5,0.125,35.0,1,1.0,0.5362000000000009
7,4,0.5,0.125,-35.0,-1,1.0,0.41140100000000146
8,4,0.5,0.0,35.0,1,1.0,0.8812999999999995
9,4,0.5,0.0,-35.0,-1,1.0,0.3539999999999992
10,4,0.5,0.0,35.0,1,1.0,0.6466009999999969
11,4,0.5,0.0,35.0,-1,0.0,0.31739999999999924
12,4,0.5,0.0625,35.0,1,1.0,0.4101009999999974
13,4,0.5,0.0,-35.0,-1,1.0,0.3770009999999999
14,4,0.5,0.25,35.0,1,1.0,0.7003999999999948
15,4,0.5,0.125,35.0,1,1.0,0.5795999999999992
16,4,0.5,0.0625,35.0,1,1.0,0.5463010000000068
17,4,0.5,1.0,35.0,1,1.0,0.31920100000000673
18,4,0.5,0.0625,35.0,1,1.0,1.235000999999997
19,4,0.5,1.0,35.0,1,1.0,0.46590100000000234
20,4,0.5,0.0625,-35.0,-1,1.0,0.3209009999999921
21,4,0.5,0.125,-35.0,-1,1.0,0.2730009999999936
22,4,0.5,0.0,-35.0,-1,1.0,0.3372009999999932
23,4,0.5,1.0,-35.0,-1,1.0,0.2908000000000044
24,4,0.5,0.25,-35.0,-1,1.0,0.2787010000000123
25,4,0.5,0.0,35.0,-1,0.0,0.6573010000000039
26,4,0.5,0.125,35.0,-1,0.0,0.3064999999999998
27,4,0.5,0.0625,35.0,1,1.0,0.7661009999999919
28,4,0.5,0.0,35.0,-1,0.0,0.7560999999999893
29,4,0.5,0.0625,-35.0,-1,1.0,0.48050000000000637
30,4,0.5,1.0,-35.0,-1,1.0,0.22270000000000323
31,4,0.5,0.0,-35.0,-1,1.0,0.32920000000000016
32,4,0.5,0.25,35.0,1,1.0,0.5474009999999936
33,4,0.5,0.25,35.0,1,1.0,0.5916999999999888
34,4,0.5,0.0,-35.0,-1,1.0,0.31910000000000593
35,4,0.5,0.0625,-35.0,-1,1.0,0.24080000000000723
36,4,0.5,0.125,-35.0,-1,1.0,0.4745010000000036
37,4,0.5,1.0,-35.0,-1,1.0,0.22809999999999775
38,4,0.5,0.0,-35.0,-1,1.0,0.3371000000000066
39,4,0.5,1.0,-35.0,-1,1.0,0.2718010000000106
40,4,0.5,0.0625,35.0,1,1.0,0.34149999999999636
41,4,0.5,0.0625,-35.0,-1,1.0,0.3071999999999946
42,4,0.5,0.0,-35.0,-1,1.0,0.35379999999997835
43,4,0.5,0.0,35.0,-1,0.0,0.7521010000000103
44,4,0.5,0.125,35.0,1,1.0,0.322700999999995
45,4,0.5,1.0,35.0,1,1.0,0.2989009999999723
46,4,0.5,1.0,-35.0,-1,1.0,0.2533999999999992
47,4,0.5,0.0,-35.0,1,0.0,0.2828009999999779
48,4,0.5,0.125,35.0,-1,0.0,0.30809999999999604
49,4,0.5,0.25,-35.0,-1,1.0,0.31939999999997326
50,4,0.5,0.25,35.0,1,1.0,0.6362999999999772
51,4,0.5,0.0625,35.0,1,1.0,0.7289009999999791
52,4,0.5,0.25,35.0,1,1.0,0.4732999999999663
53,4,0.5,0.125,-35.0,-1,1.0,0.28260099999999966
54,4,0.5,0.125,-35.0,-1,1.0,0.29150099999998247
55,4,0.5,0.25,35.0,1,1.0,0.4125999999999692
56,4,0.5,0.25,35.0,1,1.0,0.8337999999999681
57,4,0.5,0.25,35.0,1,1.0,0.40809999999999036
58,4,0.5,1.0,35.0,1,1.0,0.36220099999997046
59,4,0.5,0.25,35.0,1,1.0,0.26729999999997744
60,4,0.5,0.0,35.0,1,1.0,0.5483009999999808
61,4,0.5,0.0,-35.0,-1,1.0,0.4001999999999839
62,4,0.5,0.0625,-35.0,-1,1.0,0.27209999999996626
63,4,0.5,0.0,-35.0,-1,1.0,0.35660100000001194
64,4,0.5,0.25,-35.0,-1,1.0,0.25509999999999877
65,4,0.5,0.25,-35.0,-1,1.0,0.18279999999998608
66,4,0.5,0.125,35.0,1,1.0,1.0305009999999868
67,4,0.5,0.125,-35.0,-1,1.0,0.2828999999999553
68,4,0.5,0.25,35.0,1,1.0,0.29869999999999663
69,4,0.5,0.25,35.0,1,1.0,0.3115999999999701
70,4,0.5,1.0,35.0,1,1.0,0.2489999999999668
71,4,0.5,0.0625,35.0,1,1.0,0.3202009999999973
72,4,0.5,0.25,35.0,1,1.0,0.3001999999999896
73,4,0.5,0.125,35.0,-1,0.0,0.1307999999999936
74,4,0.5,0.0625,-35.0,-1,1.0,0.31690000000000396
75,4,0.5,0.25,35.0,1,1.0,0.30279999999999063
76,4,0.5,0.125,-35.0,-1,1.0,0.39420099999998115
77,4,0.5,0.25,35.0,1,1.0,0.2800009999999702
78,4,0.5,0.125,35.0,1,1.0,0.29010099999999284
79,4,0.5,1.0,35.0,1,1.0,0.2619009999999662
80,4,0.5,0.0,35.0,-1,0.0,0.30549999999993815
81,4,0.5,0.0,-35.0,-1,1.0,0.40590099999997165
82,4,0.5,0.125,35.0,1,1.0,0.5702009999999973
83,4,0.5,0.0,35.0,1,1.0,0.593400000000031
84,4,0.5,0.25,35.0,1,1.0,0.3898009999999772
85,4,0.5,0.0,35.0,-1,0.0,0.1339999999999577
86,4,0.5,1.0,35.0,1,1.0,0.5076999999999998
87,4,0.5,0.25,-35.0,-1,1.0,0.2459999999999809
88,4,0.5,0.0625,-35.0,-1,1.0,4.341099999999983
89,4,0.5,0.0,35.0,-1,0.0,0.5718999999999141
90,4,0.5,1.0,35.0,1,1.0,0.37040099999995846
91,4,0.2,1.0,35.0,1,1.0,0.42170099999998456
92,4,0.2,1.0,35.0,1,1.0,0.5003009999999222
93,4,0.2,0.0,-35.0,1,0.0,0.6988000000000056
94,4,0.2,0.0625,35.0,-1,0.0,0.32480000000003884
95,4,0.2,0.25,35.0,-1,0.0,0.41669999999999163
96,4,0.2,0.125,35.0,-1,0.0,0.36750099999994745
97,4,0.2,0.25,35.0,1,1.0,0.5113999999999805
98,4,0.2,0.0625,35.0,1,1.0,1.006101000000001
99,4,0.2,0.0625,35.0,-1,0.0,0.309900999999968
100,4,0.2,0.0,-35.0,1,0.0,3.748299999999972
101,4,0.2,0.0,35.0,1,1.0,0.3192999999999415
102,4,0.2,1.0,35.0,1,1.0,0.3949999999999818
103,4,0.2,0.25,35.0,1,1.0,0.27129999999999654
104,4,0.2,0.0,35.0,1,1.0,0.3569999999999709
105,4,0.2,0.125,35.0,1,1.0,0.4674009999999953
106,4,0.2,0.0,35.0,1,1.0,0.2992999999999597
107,4,0.2,0.0,35.0,1,1.0,0.30010099999998374
108,4,0.2,0.125,35.0,1,1.0,0.3623010000000022
109,4,0.2,0.0,35.0,1,1.0,0.30979999999999563
110,4,0.2,0.0625,35.0,1,1.0,0.3224999999999909
111,4,0.2,0.0,35.0,1,1.0,0.3224010000000135
112,4,0.2,0.0625,35.0,1,1.0,0.28199999999998226
113,4,0.2,1.0,35.0,1,1.0,0.38999999999998636
114,4,0.2,0.25,-35.0,1,0.0,0.36139999999994643
115,4,0.2,0.125,35.0,1,1.0,0.5098000000000411
116,4,0.2,0.25,35.0,1,1.0,0.47210000000001173
117,4,0.2,0.25,35.0,1,1.0,0.4001010000000065
118,4,0.2,0.25,35.0,1,1.0,0.8089009999999348
119,4,0.2,0.125,35.0,1,1.0,0.4715999999999667
120,4,0.2,0.25,35.0,1,1.0,0.44299999999998363
121,4,0.2,0.125,35.0,1,1.0,0.2869999999999777
122,4,0.2,0.0625,35.0,1,1.0,0.3501009999999951
123,4,0.8,1.0,-35.0,-1,1.0,0.3337999999999397
124,4,0.8,1.0,-35.0,-1,1.0,0.2477999999999838
125,4,0.8,1.0,35.0,1,1.0,0.24409999999994625
126,4,0.8,0.0625,-35.0,-1,1.0,0.2806009999999901
127,4,0.8,0.125,-35.0,-1,1.0,0.33700099999998656
128,4,0.8,1.0,-35.0,-1,1.0,0.2842010000000528
129,4,0.8,1.0,-35.0,-1,1.0,0.2210010000000011
130,4,0.8,0.0625,-35.0,1,0.0,0.261099999999999
131,4,0.8,0.25,-35.0,-1,1.0,0.24290100000001758
132,4,0.8,0.125,35.0,-1,0.0,0.33389999999997144
133,4,0.8,0.0625,-35.0,-1,1.0,0.3886009999999942
134,4,0.8,1.0,35.0,1,1.0,0.2463009999999599
135,4,0.8,1.0,-35.0,-1,1.0,0.247400999999968
136,4,0.8,1.0,-35.0,-1,1.0,0.2758999999999787
137,4,0.8,1.0,-35.0,-1,1.0,0.27210099999996373
138,4,0.8,0.0,35.0,-1,0.0,0.660699999999963
139,4,0.8,0.0625,-35.0,-1,1.0,0.6992000000000189
140,4,0.8,0.25,-35.0,-1,1.0,0.200100999999961
141,4,0.8,0.0,35.0,1,1.0,6.370300000000043
142,4,0.8,0.125,35.0,1,1.0,0.3184009999999944
143,4,0.8,0.25,-35.0,-1,1.0,0.2321010000000001
144,4,0.8,0.0,35.0,-1,0.0,0.3200999999999681
145,4,0.8,0.25,-35.0,-1,1.0,0.22419999999999618
146,4,0.8,0.0,-35.0,1,0.0,18.448899999999924
147,4,0.8,0.0,-35.0,-1,1.0,0.5085009999999102
148,4,0.8,0.0625,35.0,1,1.0,0.3285999999999376
149,4,0.8,0.25,-35.0,-1,1.0,0.2236000000000331
150,4,0.8,1.0,-35.0,-1,1.0,0.2515000000000782
151,4,0.8,0.125,35.0,1,1.0,0.274400999999898
152,4,0.8,0.0,-35.0,1,0.0,0.3465999999999667
153,4,0.8,0.0625,-35.0,-1,1.0,0.7019010000000208
154,4,0.8,0.0,-35.0,-1,1.0,12.94769999999994
155,4,0.8,0.125,-35.0,-1,1.0,0.3043999999999869
156,4,0.8,0.125,-35.0,-1,1.0,0.2574000000000751
157,4,0.8,0.0625,-35.0,-1,1.0,0.3463009999999258
158,4,0.8,0.125,-35.0,-1,1.0,0.26050099999997656
159,4,0.8,1.0,-35.0,-1,1.0,0.2678000000000793
160,4,0.8,0.125,35.0,-1,0.0,0.3505999999999858
161,4,0.8,0.25,-35.0,-1,1.0,0.2645999999999731
162,4,0.8,0.0625,-35.0,-1,1.0,0.4555009999999129
163,4,0.8,0.125,35.0,-1,0.0,0.25279999999997926
164,4,0.8,0.0,-35.0,-1,1.0,0.33270100000004277
165,4,0.2,0.25,35.0,1,1.0,0.3622009999999136
166,4,0.2,0.125,35.0,1,1.0,0.3381009999999378
167,4,0.2,0.0,35.0,1,1.0,5.810100000000034
168,4,0.2,0.0625,35.0,1,1.0,0.34180099999991853
169,4,0.2,0.125,-35.0,-1,1.0,0.3525999999999385
170,4,0.2,0.0,35.0,1,1.0,0.18220099999996364
171,4,0.2,1.0,35.0,1,1.0,0.2660999999999376
172,4,0.2,0.125,35.0,1,1.0,0.4310010000000375
173,4,0.2,0.25,35.0,1,1.0,0.3228009999999131
174,4,0.2,1.0,35.0,1,1.0,0.24360100000012608
175,4,0.2,0.0625,35.0,1,1.0,0.6031009999999242
176,4,0.2,0.0625,-35.0,-1,1.0,0.35820000000001073
177,4,0.2,0.25,35.0,1,1.0,0.2727999999999611
178,4,0.2,0.0625,35.0,1,1.0,0.40469999999993433
179,4,0.2,0.0,35.0,1,1.0,0.5504999999999427
180,4,0.2,1.0,35.0,1,1.0,0.22499999999990905
181,4,0.2,0.0625,35.0,1,1.0,0.3247000000000071
182,4,0.2,0.25,35.0,1,1.0,0.28040100000009716
183,4,0.2,1.0,-35.0,-1,1.0,0.27700099999992744
184,4,0.2,1.0,-35.0,-1,1.0,0.2561999999999216
185,4,0.8,0.125,35.0,-1,0.0,0.5330999999999904
186,4,0.8,0.0625,-35.0,-1,1.0,0.2884000000000242
187,4,0.8,0.125,-35.0,-1,1.0,0.38610000000005584
188,4,0.8,0.25,-35.0,-1,1.0,0.264699999999948
189,4,0.8,0.0625,-35.0,1,0.0,0.30540099999996073
190,4,0.8,0.0625,-35.0,-1,1.0,0.3210999999998876
191,4,0.8,0.0,-35.0,-1,1.0,0.41000099999996564
192,4,0.8,1.0,-35.0,-1,1.0,0.2481999999999971
193,4,0.8,0.125,-35.0,-1,1.0,0.2512010000000373
194,4,0.8,0.0625,-35.0,-1,1.0,0.3507000000000744
195,4,0.8,1.0,35.0,1,1.0,0.2522999999999911
196,4,0.8,0.0625,-35.0,-1,1.0,0.2835010000000011
197,4,0.8,0.125,35.0,-1,0.0,0.45420000000012806
198,4,0.8,0.0,-35.0,1,0.0,0.3058010000000877
199,4,0.8,0.0,-35.0,1,0.0,0.2949999999999591
200,4,0.8,0.0,-35.0,1,0.0,3.4335009999998647
201,4,0.8,1.0,35.0,1,1.0,0.24589999999989232
202,4,0.8,0.125,-35.0,-1,1.0,0.26870099999996455
203,4,0.8,0.0,-35.0,1,0.0,0.35330000000010386
204,4,0.8,0.125,-35.0,-1,1.0,0.25050099999998565
205,4,0.8,0.0625,-35.0,-1,1.0,0.2496009999999842
206,4,0.8,1.0,-35.0,-1,1.0,0.29529999999999745
207,4,0.8,0.0625,-35.0,-1,1.0,0.28070100000002185
208,4,0.8,0.125,35.0,-1,0.0,0.34140000000002146
209,4,0.8,0.0625,-35.0,-1,1.0,0.41790100000002894
210,4,0.8,0.0625,-35.0,-1,1.0,0.3620009999999638
211,4,0.8,0.25,-35.0,-1,1.0,0.25349999999991724
212,4,0.8,1.0,-35.0,-1,1.0,0.27250100000003386
213,4,0.8,0.25,-35.0,-1,1.0,0.4420999999999822
214,4,0.8,0.0625,-35.0,-1,1.0,0.7305010000000038
215,4,0.8,1.0,-35.0,-1,1.0,0.219600000000014
216,4,0.8,0.0625,-35.0,-1,1.0,0.27310099999999693
217,4,0.8,0.0625,-35.0,-1,1.0,0.26260100000001785
218,4,0.8,0.125,-35.0,-1,1.0,0.2938009999999167
219,4,0.8,0.0625,-35.0,1,0.0,0.34579999999994016
220,4,0.8,0.125,-35.0,-1,1.0,0.29559999999992215
221,4,0.8,0.0,-35.0,-1,1.0,9.932701000000066
222,4,0.8,0.25,35.0,1,1.0,0.517201
223,4,0.8,1.0,-35.0,-1,1.0,0.44470099999989543
224,4,0.8,0.0625,-35.0,-1,1.0,0.3451999999999771
225,4,0.8,0.0,-35.0,-1,1.0,0.3728009999999813
226,4,0.8,1.0,-35.0,-1,1.0,0.2726999999999862
227,4,0.8,0.0,35.0,-1,0.0,0.8453999999999269
228,4,0.8,0.0,-35.0,1,0.0,9.72900100000004
229,4,0.8,0.0,35.0,-1,0.0,0.28490099999999074
230,4,0.8,0.0625,35.0,-1,0.0,0.25070000000005166
231,4,0.8,0.25,-35.0,-1,1.0,0.3284999999999627
232,4,0.8,0.125,-35.0,-1,1.0,0.24530000000004293
233,4,0.8,0.125,35.0,1,1.0,0.4049999999999727
234,4,0.8,1.0,-35.0,-1,1.0,0.256300999999894
235,4,0.8,0.25,-35.0,-1,1.0,0.2560000000000855
236,4,0.8,0.0,35.0,-1,0.0,0.372801000000095
237,4,0.8,0.0625,35.0,-1,0.0,0.1707010000000082
238,4,0.8,0.0625,35.0,-1,0.0,0.2946000000000595
239,4,0.8,0.25,-35.0,-1,1.0,0.39750100000003386
240,4,0.8,0.25,-35.0,-1,1.0,0.35970099999997274
241,4,0.8,0.0625,-35.0,-1,1.0,0.2700999999999567
242,4,0.8,0.0,35.0,1,1.0,3.8342000000001235
243,4,0.8,0.25,-35.0,-1,1.0,0.2621000000000322
244,4,0.8,0.125,-35.0,-1,1.0,0.3129000000000133
245,4,0.8,1.0,35.0,1,1.0,0.2241999999998825
246,4,0.8,0.25,-35.0,-1,1.0,0.5086999999999762
247,4,0.8,0.125,-35.0,-1,1.0,0.25620100000003276
248,4,0.8,0.0,-35.0,1,0.0,0.2818999999999505
249,4,0.8,1.0,-35.0,-1,1.0,0.20100000000002183
250,4,0.8,1.0,-35.0,-1,1.0,0.22480000000007294
251,4,0.8,0.0625,-35.0,-1,1.0,0.46780100000000857
252,4,0.8,0.125,-35.0,-1,1.0,0.2645999999999731
253,4,0.8,0.25,-35.0,-1,1.0,0.2966000000000122
254,4,0.8,0.25,-35.0,-1,1.0,0.30499999999995
255,4,0.8,0.25,-35.0,-1,1.0,0.5584999999999809
256,4,0.8,1.0,-35.0,-1,1.0,0.23069999999995616
257,4,0.8,0.0625,-35.0,-1,1.0,0.7010009999999056
258,4,0.8,1.0,-35.0,-1,1.0,0.26949999999987995
259,4,0.8,0.125,-35.0,-1,1.0,0.4835009999999329
260,4,0.8,0.0625,-35.0,-1,1.0,0.2869999999999209
261,4,0.8,0.25,35.0,1,1.0,0.4694999999999254
262,4,0.8,0.0,35.0,-1,0.0,0.30940099999997983
263,4,0.2,0.0,35.0,1,1.0,2.8235010000000784
264,4,0.2,1.0,35.0,1,1.0,0.2278999999999769
265,4,0.2,0.0625,35.0,-1,0.0,0.116600999999946
266,4,0.2,1.0,35.0,1,1.0,0.29270099999996546
267,4,0.2,0.25,35.0,1,1.0,0.26460100000008424
268,4,0.2,1.0,35.0,1,1.0,0.23159999999984393
269,4,0.2,0.0,35.0,1,1.0,6.771300999999994
270,4,0.2,0.25,35.0,1,1.0,0.30520100000001094
271,4,0.2,0.0,35.0,1,1.0,0.35349999999994
272,4,0.2,0.125,-35.0,-1,1.0,0.3089999999999691
273,4,0.2,0.25,35.0,1,1.0,0.6001009999999951
274,4,0.2,0.0625,35.0,1,1.0,0.2536999999999807
275,4,0.2,0.0625,-35.0,-1,1.0,0.29280000000005657
276,4,0.2,0.125,35.0,1,1.0,0.2839000000000169
277,4,0.2,0.0625,35.0,1,1.0,0.13269999999999982
278,4,0.2,0.0,35.0,1,1.0,0.38720100000000457
279,4,0.2,1.0,35.0,1,1.0,0.1829010000000153
280,4,0.2,0.125,-35.0,-1,1.0,0.33090100000003986
281,4,0.2,0.0625,35.0,1,1.0,0.25290000000018154
282,4,0.2,1.0,35.0,1,1.0,0.28080100000011043
283,4,0.2,0.125,35.0,1,1.0,0.6329009999999471
284,4,0.2,0.125,35.0,1,1.0,0.3042000000000371
285,4,0.2,0.125,35.0,1,1.0,0.2800009999998565
286,4,0.2,0.125,35.0,1,1.0,0.2775010000002567
287,4,0.2,1.0,35.0,1,1.0,0.38000099999999293
288,4,0.2,0.0,35.0,1,1.0,0.4078010000002905
289,4,0.2,0.0625,35.0,1,1.0,0.6996000000001459
290,4,0.2,1.0,35.0,1,1.0,0.28440100000011626
291,4,0.2,0.0,35.0,-1,0.0,0.299701000000141
292,4,0.2,1.0,35.0,1,1.0,0.27110000000016043
293,4,0.2,1.0,35.0,1,1.0,0.2331010000000333
294,4,0.2,0.25,35.0,1,1.0,0.29450000000019827
295,4,0.2,0.0,35.0,1,1.0,0.27020100000027014
296,4,0.2,0.0,35.0,1,1.0,0.20810000000005857
297,4,0.2,0.125,-35.0,-1,1.0,5.884001000000353
298,4,0.2,0.25,35.0,1,1.0,0.3483010000002196
299,4,0.2,0.0,-35.0,1,0.0,0.35400000000004184
300,4,0.2,0.0,35.0,-1,0.0,0.45840000000021064
301,4,0.2,0.0,35.0,1,1.0,0.3037000000001626
302,4,0.2,0.25,35.0,1,1.0,0.281800000000203
303,4,0.2,0.125,-35.0,-1,1.0,0.4143010000002505
304,4,0.2,1.0,35.0,1,1.0,0.2718010000000959
305,4,0.2,0.0,-35.0,1,0.0,10.730400000000145
306,4,0.2,1.0,35.0,1,1.0,0.3522000000002663
307,4,0.2,0.125,35.0,1,1.0,0.3307009999998627
308,4,0.2,0.0,35.0,1,1.0,0.3987999999999374
309,4,0.2,0.125,35.0,1,1.0,0.47160100000019156
310,4,0.2,0.0,35.0,-1,0.0,0.37239999999997053
311,4,0.2,0.0625,-35.0,-1,1.0,0.3245010000000548
312,4,0.2,0.125,35.0,1,1.0,0.2757000000001426
313,4,0.2,0.0625,35.0,1,1.0,0.28430000000025757
314,4,0.2,0.0625,35.0,1,1.0,0.28899999999998727
315,4,0.2,0.0625,35.0,1,1.0,0.2611010000000533
316,4,0.2,0.0,35.0,-1,0.0,2.2658010000002378
317,4,0.2,0.125,-35.0,-1,1.0,0.3179010000001199
318,4,0.2,0.0625,35.0,1,1.0,0.335901000000149
319,4,0.2,0.0625,-35.0,-1,1.0,0.2112010000000737
320,4,0.2,1.0,35.0,1,1.0,0.25590000000033797
321,4,0.2,0.25,35.0,1,1.0,0.6513010000001032
322,4,0.2,0.125,35.0,1,1.0,0.31940000000008695
323,4,0.2,0.0,35.0,1,1.0,0.7548010000002705
324,4,0.2,1.0,35.0,1,1.0,0.2895010000002003
325,4,0.2,0.0,35.0,1,1.0,0.27500099999997474
326,4,0.2,0.0,-35.0,-1,1.0,0.31300000000010186
327,4,0.2,0.0,-35.0,1,0.0,0.3018000000001848
328,4,0.2,0.0625,35.0,1,1.0,2.4329999999999927
329,4,0.2,0.0625,35.0,1,1.0,0.5689000000002125
330,4,0.2,0.0,-35.0,1,0.0,0.4130999999999858
331,4,0.8,0.0,-35.0,1,0.0,0.4189000000001215
332,4,0.8,0.0,35.0,-1,0.0,0.43990000000007967
333,4,0.8,1.0,-35.0,-1,1.0,0.2395000000001346
334,4,0.8,1.0,35.0,1,1.0,0.27670000000011896
335,4,0.8,0.125,-35.0,-1,1.0,0.24870099999998274
336,4,0.8,0.0625,-35.0,-1,1.0,0.25690000000008695
337,4,0.8,0.125,-35.0,-1,1.0,0.19880100000000311
338,4,0.8,0.125,-35.0,-1,1.0,0.23360100000013517
339,4,0.8,0.0,-35.0,1,0.0,1.852301000000125
340,4,0.8,0.0625,-35.0,-1,1.0,0.25709999999980937
341,4,0.8,0.25,-35.0,-1,1.0,0.21230100000002494
342,4,0.8,0.125,-35.0,-1,1.0,0.25050099999998565
343,4,0.8,0.125,-35.0,-1,1.0,0.28909999999996217
344,4,0.8,0.25,-35.0,-1,1.0,0.2639010000000326
345,4,0.8,0.125,-35.0,-1,1.0,0.24620100000015555
346,4,0.8,1.0,35.0,1,1.0,0.27060100000016973
347,4,0.8,0.0,-35.0,-1,1.0,0.5592000000001462
348,4,0.8,0.0625,-35.0,-1,1.0,0.4041010000000824
349,4,0.8,0.0,-35.0,1,0.0,0.6161000000001877
350,4,0.8,0.125,-35.0,-1,1.0,0.3341000000000349
351,4,0.8,0.0,35.0,-1,0.0,0.38970100000005914
352,4,0.8,1.0,-35.0,-1,1.0,0.2074999999999818
353,4,0.8,0.0,-35.0,1,0.0,3.3835010000002512
354,4,0.8,0.0625,-35.0,-1,1.0,0.6743000000001302
355,4,0.2,0.25,-35.0,-1,1.0,0.3164000000001579
356,4,0.2,0.25,35.0,1,1.0,0.3711000000000695
357,4,0.2,0.25,-35.0,-1,1.0,0.47319999999990614
358,4,0.2,0.25,-35.0,-1,1.0,0.25790100000017446
359,4,0.2,0.0625,-35.0,-1,1.0,0.35700000000019827
360,4,0.2,0.0625,35.0,1,1.0,0.2614000000000942
361,4,0.2,1.0,35.0,1,1.0,0.2739010000000235
362,4,0.2,0.25,35.0,1,1.0,0.24480000000016844
363,4,0.2,0.25,35.0,1,1.0,0.23710000000005493
364,4,0.2,0.25,35.0,1,1.0,0.45820099999991726
365,4,0.2,1.0,35.0,1,1.0,0.24090000000001055
366,4,0.2,0.0,35.0,1,1.0,10.995000000000118
367,4,0.2,0.25,35.0,1,1.0,0.29070100000012644
368,4,0.2,0.25,35.0,1,1.0,0.4352010000000064
369,4,0.2,1.0,35.0,1,1.0,0.29070100000012644
370,4,0.2,0.0,35.0,1,1.0,0.25860099999999875
371,4,0.2,0.0625,35.0,1,1.0,0.3108009999998558
372,4,0.2,0.0625,35.0,1,1.0,0.27860099999998056
373,4,0.2,0.0,35.0,1,1.0,0.30480000000011387
374,4,0.2,0.0,-35.0,-1,1.0,18.36869999999999
375,4,0.2,0.125,35.0,1,1.0,0.28130000000010114
376,4,0.2,0.25,35.0,1,1.0,0.29240000000027067
377,4,0.2,0.0,35.0,1,1.0,0.38110100000017155
378,4,0.2,0.0625,35.0,1,1.0,0.5791000000001532
379,4,0.2,0.125,-35.0,-1,1.0,0.21800099999995837
380,4,0.2,1.0,35.0,1,1.0,0.2760000000000673
381,4,0.2,1.0,-35.0,-1,1.0,0.3583000000000993
382,4,0.2,0.0,-35.0,1,0.0,0.28929999999991196
383,4,0.2,0.25,35.0,1,1.0,0.275101000000177
384,4,0.2,0.25,35.0,-1,0.0,0.2928999999999178
385,4,0.2,0.125,35.0,1,1.0,4.082100000000082
386,4,0.2,0.0625,35.0,1,1.0,0.30290000000013606
387,4,0.2,0.0,35.0,-1,0.0,0.44510100000024977
388,4,0.2,0.25,35.0,1,1.0,0.2863009999998667
389,4,0.2,0.125,35.0,1,1.0,0.3315010000001166
390,4,0.2,0.125,35.0,1,1.0,0.6696999999999207
391,4,0.2,0.125,35.0,1,1.0,0.2982010000000628
392,4,0.2,0.25,35.0,1,1.0,0.3098010000001068
393,4,0.2,0.125,35.0,1,1.0,0.8116999999999734
394,4,0.2,0.125,35.0,1,1.0,0.3532000000000153
395,4,0.2,0.125,35.0,1,1.0,0.3994000000000142
396,4,0.2,0.125,35.0,1,1.0,0.3100010000000566
397,4,0.2,1.0,35.0,1,1.0,0.3187000000000353
398,4,0.2,1.0,-35.0,-1,1.0,0.2834010000001399
399,4,0.2,0.125,35.0,1,1.0,0.2455010000001039
400,4,0.2,0.0,-35.0,1,0.0,0.4669010000000071
401,4,0.2,0.125,35.0,1,1.0,0.3155010000000402
402,4,0.2,0.0,35.0,-1,0.0,0.5603000000003249
403,4,0.2,0.125,35.0,1,1.0,2.3797010000000682
404,4,0.2,0.0625,35.0,1,1.0,0.31710100000009334
405,4,0.2,0.25,-35.0,-1,1.0,0.2595010000000002
406,4,0.2,0.0,35.0,1,1.0,0.4737999999999829
407,4,0.2,0.25,35.0,1,1.0,0.3036010000000715
408,4,0.2,0.125,35.0,1,1.0,0.2940000000000964
409,4,0.2,0.25,35.0,1,1.0,0.34300100000018574
410,4,0.2,0.0625,35.0,1,1.0,1.2239999999999327
411,4,0.2,0.0625,35.0,1,1.0,0.5130010000000311
412,4,0.2,0.0,35.0,1,1.0,0.3840000000002419
413,4,0.2,0.0625,35.0,1,1.0,0.29660100000023704
414,4,0.2,0.0,35.0,1,1.0,0.5142000000000735
415,4,0.2,1.0,-35.0,-1,1.0,0.28610100000014427
416,4,0.2,0.125,35.0,1,1.0,0.3244010000000799
417,4,0.2,0.25,35.0,1,1.0,0.2535000000002583
418,4,0.2,0.0625,35.0,1,1.0,0.2578000000000884
419,4,0.2,0.0625,35.0,1,1.0,0.27320000000008804
420,4,0.2,0.25,35.0,1,1.0,0.19780100000002676
421,4,0.2,0.25,35.0,1,1.0,0.21000100000014754
422,4,0.2,0.125,35.0,1,1.0,0.26790100000016537
423,4,0.2,0.0,-35.0,1,0.0,3.110601000000088
424,4,0.2,0.25,-35.0,-1,1.0,0.35799999999994725
425,4,0.2,1.0,35.0,1,1.0,0.30999999999994543
426,4,0.2,1.0,35.0,1,1.0,0.30810100000030616
427,4,0.2,0.0625,-35.0,-1,1.0,0.34019999999986794
428,4,0.2,0.0,35.0,1,1.0,0.4849010000002636
429,4,0.2,0.0625,-35.0,-1,1.0,2.7940000000000964
430,4,0.2,1.0,35.0,1,1.0,0.2648999999998978
431,4,0.2,0.0,35.0,-1,0.0,0.3301000000001295
432,4,0.2,0.0625,35.0,1,1.0,0.408301000000165
433,4,0.2,0.125,35.0,1,1.0,0.7537010000000919
434,4,0.8,0.125,-35.0,-1,1.0,0.24530000000004293
435,4,0.8,1.0,-35.0,-1,1.0,0.18040100000007442
436,4,0.8,0.0,-35.0,-1,1.0,0.3086009999999533
437,4,0.8,0.0,35.0,-1,0.0,5.157201000000214
438,4,0.8,0.125,-35.0,-1,1.0,0.505500000000211
439,4,0.8,0.0625,-35.0,-1,1.0,0.3542009999998754
440,4,0.8,0.0,35.0,1,1.0,4.092100000000073
441,4,0.8,1.0,35.0,1,1.0,0.29119999999988977
442,4,0.8,0.0,-35.0,1,0.0,8.399200000000292
443,4,0.8,0.125,-35.0,-1,1.0,9.05130000000031
444,4,0.8,1.0,-35.0,-1,1.0,0.28270000000020445
445,4,0.8,0.125,-35.0,-1,1.0,0.39550000000031105
446,4,0.8,0.0625,-35.0,-1,1.0,0.5427000000001954
447,4,0.8,0.0625,-35.0,-1,1.0,0.3554010000002563
