trial_num,session_num,stim_probability_left,contrast,position,response_choice,trial_correct,reaction_time
1,4,0.5,0.5,35.0,1,1.0,0.38829999999999987
2,4,0.5,0.125,-35.0,1,0.0,0.6165000000000012
3,4,0.5,0.25,-35.0,1,0.0,0.5378009999999982
4,4,0.5,0.25,-35.0,-1,1.0,0.6898000000000017
5,4,0.5,1.0,-35.0,-1,1.0,0.13250000000000028
6,4,0.5,0.125,-35.0,-1,1.0,0.5816010000000027
7,4,0.5,1.0,35.0,1,1.0,0.3221000000000025
8,4,0.5,1.0,-35.0,-1,1.0,0.29129999999999967
9,4,0.5,1.0,-35.0,-1,1.0,0.3086009999999959
10,4,0.5,0.125,-35.0,-1,1.0,0.38360099999999875
11,4,0.5,0.5,35.0,1,1.0,0.2770009999999985
12,4,0.5,0.25,35.0,1,1.0,0.34949999999999903
13,4,0.5,0.5,-35.0,-1,1.0,0.3449010000000001
14,4,0.5,0.5,-35.0,-1,1.0,0.56069999999999
15,4,0.5,0.125,-35.0,1,0.0,0.3977000000000004
16,4,0.5,0.25,35.0,1,1.0,1.641300000000001
17,4,0.5,1.0,-35.0,-1,1.0,0.2573009999999982
18,4,0.5,0.5,35.0,1,1.0,0.5317010000000124
19,4,0.5,0.125,-35.0,-1,1.0,0.4083000000000112
20,4,0.5,0.25,35.0,-1,0.0,0.2531010000000009
21,4,0.5,0.25,35.0,1,1.0,0.3546010000000166
22,4,0.5,1.0,35.0,1,1.0,0.4994000000000085
23,4,0.5,1.0,-35.0,-1,1.0,0.692600000000013
24,4,0.5,0.25,-35.0,-1,1.0,0.42960100000000523
25,4,0.5,1.0,-35.0,-1,1.0,0.9060000000000201
26,4,0.5,0.125,35.0,-1,0.0,1.919700000000006
27,4,0.5,0.125,35.0,1,1.0,0.2943000000000069
28,4,0.5,0.25,35.0,1,1.0,0.3498010000000136
29,4,0.5,0.25,-35.0,1,0.0,0.46540099999999995
30,4,0.5,0.25,35.0,-1,0.0,0.6475999999999829
31,4,0.5,0.5,-35.0,-1,1.0,0.4514999999999816
32,4,0.5,1.0,-35.0,-1,1.0,0.5251010000000065
33,4,0.5,1.0,35.0,1,1.0,0.3564999999999827
34,4,0.5,0.25,35.0,-1,0.0,0.3961000000000183
35,4,0.5,0.125,35.0,1,1.0,0.3249009999999828
36,4,0.5,0.125,-35.0,-1,1.0,0.3413009999999872
37,4,0.5,1.0,35.0,1,1.0,0.2296010000000024
38,4,0.5,0.125,35.0,1,1.0,0.2809999999999775
39,4,0.5,0.125,-35.0,-1,1.0,0.42159999999998377
40,4,0.5,1.0,35.0,1,1.0,0.27660099999999943
41,4,0.5,0.125,35.0,1,1.0,0.4761999999999773
42,4,0.5,0.25,35.0,1,1.0,0.34200000000001296
43,4,0.5,0.5,35.0,1,1.0,0.3574999999999591
44,4,0.5,0.5,35.0,1,1.0,0.29780099999999265
45,4,0.5,1.0,-35.0,1,0.0,1.2481009999999912
46,4,0.5,0.25,-35.0,1,0.0,0.27920199999999795
47,4,0.5,0.125,-35.0,1,0.0,0.37580199999996466
48,4,0.9,0.125,-35.0,-1,1.0,0.6120019999999897
49,4,0.5,1.0,-35.0,1,0.0,0.40190099999998097
50,4,0.9,1.0,-35.0,-1,1.0,0.47420099999996523
51,4,0.5,1.0,-35.0,-1,1.0,0.5038010000000099
52,4,0.5,1.0,35.0,-1,0.0,0.10890199999997208
53,4,0.5,0.125,-35.0,-1,1.0,0.45600100000001476
54,4,0.5,0.25,35.0,1,1.0,0.24770199999997544
55,4,0.5,1.0,35.0,1,1.0,0.30830100000000016
56,4,0.5,0.125,-35.0,-1,1.0,0.2088019999999915
57,4,0.5,0.25,-35.0,1,0.0,0.3704010000000153
58,4,0.4,0.25,35.0,1,1.0,0.3569009999999935
59,4,0.5,1.0,35.0,1,1.0,0.388101000000006
60,4,0.5,1.0,-35.0,1,0.0,0.12730099999998856
61,4,0.5,0.25,35.0,1,1.0,0.3156020000000126
62,4,0.5,0.125,-35.0,1,0.0,0.3021009999999933
63,4,0.8,0.125,-35.0,1,0.0,0.4632010000000264
64,4,0.5,1.0,-35.0,-1,1.0,0.36660200000005716
65,4,0.5,0.5,35.0,1,1.0,0.3338009999999372
66,4,0.5,1.0,-35.0,-1,1.0,0.8903020000000197
67,4,0.5,0.125,-35.0,1,0.0,0.3607009999999491
68,4,0.8,0.125,-35.0,-1,1.0,0.41650099999998247
69,4,0.5,1.0,-35.0,-1,1.0,0.5766009999999255
70,4,0.5,0.125,-35.0,-1,1.0,0.3463019999999801
71,4,0.5,1.0,35.0,1,1.0,0.3433019999999942
72,4,0.5,0.25,-35.0,-1,1.0,0.469900999999993
73,4,0.5,1.0,35.0,1,1.0,0.2541009999999915
74,4,0.5,1.0,35.0,1,1.0,0.24580099999997174
75,4,0.5,0.25,35.0,1,1.0,0.2954019999999673
76,4,0.5,1.0,-35.0,-1,1.0,0.47940099999999575
77,4,0.5,0.25,35.0,1,1.0,0.33740199999994047
78,4,0.5,0.25,-35.0,-1,1.0,0.39760100000000875
79,4,0.5,0.25,-35.0,-1,1.0,0.37070099999999684
80,4,0.5,0.25,35.0,1,1.0,0.6048020000000065
81,4,0.5,1.0,35.0,1,1.0,0.269600999999966
82,4,0.5,1.0,35.0,1,1.0,0.20670100000000957
83,4,0.5,0.5,35.0,1,1.0,0.3145009999999502
84,4,0.5,0.0625,35.0,-1,0.0,3.03180100000003
85,4,0.6,0.0625,35.0,1,1.0,0.30830199999991237
86,4,0.5,0.5,-35.0,-1,1.0,0.1149019999999723
87,4,0.5,1.0,35.0,1,1.0,0.2438020000000165
88,4,0.5,0.25,-35.0,-1,1.0,0.28770099999997
89,4,0.5,0.125,35.0,1,1.0,0.28680200000002287
90,4,0.5,0.5,-35.0,-1,1.0,0.3078010000000404
91,4,0.5,0.0625,-35.0,1,0.0,0.26080100000001494
92,4,0.6,0.0625,-35.0,-1,1.0,0.534800999999959
93,4,0.5,1.0,35.0,1,1.0,0.34180199999997285
94,4,0.5,0.0625,35.0,1,1.0,0.389300999999989
95,4,0.5,0.5,-35.0,-1,1.0,0.6373019999999769
96,4,0.5,0.25,-35.0,-1,1.0,0.6284009999999967
97,4,0.5,0.0625,-35.0,-1,1.0,1.2596020000000294
98,4,0.5,0.5,35.0,1,1.0,0.2481019999999603
99,4,0.5,1.0,35.0,1,1.0,0.2689009999999712
100,4,0.5,0.0625,-35.0,-1,1.0,0.7855009999999538
101,4,0.5,0.25,-35.0,-1,1.0,0.43910099999999375
102,4,0.5,0.125,-35.0,-1,1.0,0.29790199999996503
103,4,0.5,1.0,-35.0,-1,1.0,0.15300199999995812
104,4,0.5,0.25,35.0,-1,0.0,0.16840199999995775
105,4,0.2,0.25,35.0,1,1.0,0.3950009999999793
106,4,0.5,1.0,-35.0,-1,1.0,0.4511019999999917
107,4,0.5,1.0,35.0,1,1.0,0.3821009999999774
108,4,0.5,1.0,-35.0,-1,1.0,0.6003010000000017
109,4,0.5,0.0625,-35.0,-1,1.0,0.11740200000002687
110,4,0.5,0.25,35.0,1,1.0,0.27540200000004234
111,4,0.5,0.0625,-35.0,1,0.0,0.2972010000000296
112,4,0.5,0.125,-35.0,-1,1.0,0.32120099999997365
113,4,0.5,0.125,35.0,1,1.0,0.385200999999995
114,4,0.5,0.0625,35.0,1,1.0,0.28960200000000214
115,4,0.5,0.5,-35.0,-1,1.0,0.48490199999997685
116,4,0.5,0.125,35.0,-1,0.0,4.127501999999993
117,4,0.5,0.25,35.0,1,1.0,0.34450200000003406
118,4,0.5,0.125,35.0,-1,0.0,0.26700199999999086
119,4,0.5,0.25,-35.0,-1,1.0,0.4770009999999161
120,4,0.5,1.0,35.0,1,1.0,0.4659009999999739
121,4,0.5,0.5,35.0,1,1.0,0.41250099999996337
122,4,0.5,0.0625,35.0,1,1.0,0.2887010000000032
123,4,0.5,0.5,-35.0,-1,1.0,0.19050199999998085
124,4,0.5,0.125,35.0,1,1.0,0.3078010000000404
125,4,0.5,0.25,35.0,1,1.0,0.27250099999992017
126,4,0.5,0.25,-35.0,1,0.0,0.33130099999993945
127,4,0.5,0.25,35.0,1,1.0,0.30670099999997547
128,4,0.5,1.0,35.0,1,1.0,0.2551019999999653
129,4,0.5,0.125,-35.0,-1,1.0,0.4449009999999589
130,4,0.5,0.125,-35.0,-1,1.0,0.6160009999999829
131,4,0.5,0.25,35.0,1,1.0,0.3282009999999218
132,4,0.5,0.0625,-35.0,1,0.0,0.35880199999996876
133,4,0.5,0.0625,-35.0,-1,1.0,0.49060099999996964
134,4,0.5,0.0625,-35.0,-1,1.0,0.42400099999997565
135,4,0.5,0.0625,-35.0,-1,1.0,0.37920099999996637
136,4,0.5,0.5,35.0,1,1.0,0.3051020000000335
137,4,0.5,0.5,35.0,1,1.0,0.2710019999999531
138,4,0.5,1.0,35.0,1,1.0,0.22650099999998474
139,4,0.5,0.25,-35.0,-1,1.0,0.5583009999999149
140,4,0.5,1.0,-35.0,-1,1.0,0.2492019999999684
141,4,0.5,0.25,-35.0,-1,1.0,0.3910009999999602
142,4,0.5,0.125,-35.0,-1,1.0,0.27370099999996
143,4,0.5,1.0,-35.0,-1,1.0,2.049801000000002
144,4,0.5,0.25,-35.0,-1,1.0,0.2915020000000368
145,4,0.5,0.0625,35.0,1,1.0,0.33890099999996437
146,4,0.5,0.0625,-35.0,-1,1.0,0.2106019999999944
147,4,0.5,0.125,35.0,1,1.0,0.3961010000000442
148,4,0.5,0.25,-35.0,-1,1.0,0.7001010000000178
149,4,0.5,1.0,-35.0,-1,1.0,0.3805009999999811
150,4,0.5,0.125,35.0,1,1.0,0.30020200000001296
151,4,0.5,0.5,-35.0,-1,1.0,0.307501000000002
152,4,0.5,0.125,35.0,1,1.0,0.5333009999999376
153,4,0.5,0.5,-35.0,-1,1.0,0.4917010000000346
154,4,0.5,0.5,-35.0,-1,1.0,0.8327009999999291
155,4,0.5,0.5,35.0,1,1.0,0.22400100000004386
156,4,0.5,0.125,35.0,1,1.0,0.38750199999992674
157,4,0.5,1.0,35.0,1,1.0,0.27090099999998074
158,4,0.5,1.0,-35.0,-1,1.0,0.21850099999994654
159,4,0.5,0.25,-35.0,-1,1.0,0.5342020000000502
160,4,0.5,0.125,-35.0,-1,1.0,0.34260200000005625
161,4,0.5,0.0625,-35.0,-1,1.0,0.7021009999998569
162,4,0.5,0.25,35.0,1,1.0,0.29680199999995693
163,4,0.5,0.25,-35.0,-1,1.0,0.5431009999999787
164,4,0.5,0.25,-35.0,-1,1.0,0.5953009999999495
165,4,0.5,0.5,35.0,1,1.0,0.2913019999998596
166,4,0.5,0.0625,-35.0,-1,1.0,2.517302000000086
167,4,0.5,0.125,-35.0,-1,1.0,0.2779019999999264
168,4,0.5,0.25,-35.0,-1,1.0,0.2874019999999291
169,4,0.5,1.0,-35.0,-1,1.0,0.18830100000002403
170,4,0.5,1.0,-35.0,-1,1.0,0.28640199999995275
171,4,0.5,0.5,-35.0,-1,1.0,0.5468009999999595
172,4,0.5,1.0,35.0,1,1.0,0.3315019999998867
173,4,0.5,0.25,-35.0,-1,1.0,2.7483009999999695
174,4,0.5,0.0625,-35.0,1,0.0,0.2840009999999893
175,4,0.5,0.125,35.0,-1,0.0,0.7658020000000079
176,4,0.2,0.125,-35.0,-1,1.0,0.32880099999999857
177,4,0.5,1.0,-35.0,-1,1.0,0.2975010000000111
178,4,0.5,0.5,-35.0,-1,1.0,0.33850199999994857
179,4,0.5,0.5,35.0,1,1.0,0.3058010000000877
180,4,0.5,0.0625,-35.0,-1,1.0,0.4698009999999613
181,4,0.5,1.0,35.0,1,1.0,0.36520199999995384
182,4,0.5,0.0625,-35.0,-1,1.0,0.7491019999998798
183,4,0.5,1.0,35.0,1,1.0,0.2869019999999409
184,4,0.5,1.0,-35.0,-1,1.0,0.4149009999999862
185,4,0.5,0.0625,35.0,-1,0.0,0.7626020000000153
186,4,0.5,0.0625,-35.0,-1,1.0,1.8169020000000273
187,4,0.5,0.25,35.0,1,1.0,0.41070200000012846
188,4,0.5,0.5,35.0,1,1.0,0.395300999999904
189,4,0.5,0.5,35.0,1,1.0,0.3659020000001192
190,4,0.5,0.0625,-35.0,-1,1.0,0.3635020000000395
191,4,0.5,1.0,35.0,1,1.0,0.2599010000000135
192,4,0.5,0.25,35.0,1,1.0,1.1363009999998894
193,4,0.5,0.0625,-35.0,1,0.0,0.32700199999987944
194,4,0.6,0.0625,-35.0,-1,1.0,0.8324010000000044
195,4,0.5,0.5,-35.0,-1,1.0,0.28640100000006896
196,4,0.5,0.5,35.0,1,1.0,0.30810200000007626
197,4,0.5,0.0625,-35.0,-1,1.0,0.5579019999998991
198,4,0.5,0.125,35.0,-1,0.0,0.5232019999998556
199,4,0.5,0.25,35.0,1,1.0,0.8119009999999207
200,4,0.5,0.0625,35.0,1,1.0,3.3224010000000135
201,4,0.5,0.5,-35.0,-1,1.0,0.3763020000000097
202,4,0.5,0.5,35.0,1,1.0,0.2671019999999089
203,4,0.5,1.0,35.0,1,1.0,0.4399020000000746
204,4,0.5,0.0625,35.0,-1,0.0,0.5130010000000311
205,4,0.5,0.125,-35.0,-1,1.0,0.3094010000000935
206,4,0.5,0.125,35.0,-1,0.0,0.49670100000003004
207,4,0.5,0.125,-35.0,-1,1.0,0.5081009999998969
208,4,0.5,0.125,-35.0,-1,1.0,0.962900999999988
209,4,0.5,1.0,35.0,1,1.0,0.31930099999999584
210,4,0.5,0.0625,-35.0,-1,1.0,1.2771019999998998
211,4,0.5,0.25,35.0,1,1.0,0.320201000000111
212,4,0.5,0.25,-35.0,-1,1.0,0.25760200000001987
213,4,0.5,1.0,35.0,1,1.0,0.2766020000000253
214,4,0.5,0.0625,35.0,-1,0.0,1.1367010000000164
215,4,0.5,0.125,-35.0,-1,1.0,0.370202000000063
216,4,0.5,0.5,-35.0,-1,1.0,0.3157019999999875
217,4,0.5,0.25,35.0,-1,0.0,0.21120199999995748
218,4,0.5,0.25,-35.0,-1,1.0,0.31270100000006096
219,4,0.5,0.125,-35.0,-1,1.0,0.3556019999999762
220,4,0.5,0.5,-35.0,-1,1.0,0.33760099999994964
221,4,0.5,0.5,-35.0,-1,1.0,0.20230100000003404
222,4,0.5,0.25,-35.0,-1,1.0,0.5043009999999413
223,4,0.5,0.125,35.0,-1,0.0,3.0152009999999336
224,4,0.0,0.125,35.0,1,1.0,0.3182019999999284
225,4,0.5,0.5,35.0,1,1.0,0.2234009999999671
226,4,0.5,0.0625,35.0,1,1.0,0.3274020000000064
227,4,0.5,0.0625,35.0,-1,0.0,1.614900999999918
228,4,0.3,0.0625,35.0,1,1.0,0.3385009999999511
229,4,0.5,0.5,35.0,-1,0.0,0.1285010000000284
230,4,0.4,0.5,35.0,1,1.0,0.3198019999999815
231,4,0.5,0.5,35.0,1,1.0,0.2697010000000546
232,4,0.5,0.25,-35.0,-1,1.0,0.19650199999989582
233,4,0.5,0.5,-35.0,-1,1.0,0.5228009999999585
234,4,0.5,0.5,35.0,1,1.0,0.24610100000006696
235,4,0.5,0.125,-35.0,-1,1.0,1.1496009999999615
236,4,0.5,0.0625,-35.0,-1,1.0,0.6792020000000321
237,4,0.5,0.5,-35.0,-1,1.0,0.13660199999992528
238,4,0.5,0.0625,-35.0,-1,1.0,0.5525010000000066
239,4,0.5,0.5,35.0,1,1.0,0.23190199999999095
240,4,0.5,0.25,35.0,1,1.0,0.46570200000007844
241,4,0.5,1.0,35.0,1,1.0,0.33430199999997967
242,4,0.5,0.25,35.0,1,1.0,0.48600099999998747
243,4,0.5,1.0,35.0,1,1.0,0.3337010000000191
244,4,0.5,0.0625,-35.0,-1,1.0,0.47420099999999366
245,4,0.5,1.0,-35.0,-1,1.0,0.4808020000000397
246,4,0.5,0.25,-35.0,-1,1.0,0.3610009999998738
247,4,0.5,0.25,-35.0,-1,1.0,0.2429020000000719
248,4,0.5,0.5,35.0,1,1.0,0.285301000000004
249,4,0.5,1.0,-35.0,-1,1.0,0.3212019999999711
250,4,0.5,0.25,35.0,1,1.0,0.30100199999992583
251,4,0.5,0.25,-35.0,-1,1.0,0.22780199999999695
252,4,0.5,1.0,-35.0,-1,1.0,0.3039019999999937
253,4,0.5,0.25,35.0,1,1.0,0.297600999999986
254,4,0.5,1.0,35.0,1,1.0,0.430800999999974
255,4,0.5,1.0,35.0,1,1.0,0.2969020000000455
256,4,0.5,0.5,-35.0,-1,1.0,0.42800199999987854
257,4,0.5,1.0,-35.0,-1,1.0,0.32710099999997055
258,4,0.5,0.0625,35.0,-1,0.0,0.41830099999992854
259,4,0.5,0.25,35.0,1,1.0,0.3800019999999904
260,4,0.5,0.5,35.0,1,1.0,0.4251009999999269
261,4,0.5,0.25,35.0,1,1.0,1.713102000000049
262,4,0.5,0.5,-35.0,-1,1.0,0.3383010000000013
263,4,0.5,1.0,35.0,1,1.0,0.34660200000007535
264,4,0.5,0.0625,35.0,1,1.0,3.2051010000002407
265,4,0.5,0.125,35.0,1,1.0,0.2772010000001046
266,4,0.5,0.0625,-35.0,-1,1.0,0.2953019999999924
267,4,0.5,0.25,-35.0,-1,1.0,0.37110100000018065
268,4,0.5,1.0,-35.0,-1,1.0,0.35870199999999386
269,4,0.5,0.5,-35.0,-1,1.0,0.6804010000000744
270,4,0.5,0.125,35.0,1,1.0,0.44540200000005825
271,4,0.5,0.0625,-35.0,-1,1.0,4.6178010000000995
272,4,0.5,0.25,-35.0,-1,1.0,0.4089010000000144
273,4,0.5,1.0,35.0,1,1.0,0.5704020000000583
274,4,0.5,0.125,35.0,-1,0.0,0.7224010000002181
275,4,0.3,0.125,-35.0,-1,1.0,3.0605020000000422
276,4,0.5,1.0,35.0,1,1.0,0.4126019999998789
277,4,0.5,0.0625,35.0,1,1.0,10.25170100000014
278,4,0.5,0.25,35.0,1,1.0,0.5995010000001457
279,4,0.5,1.0,35.0,1,1.0,0.48150100000020757
280,4,0.5,1.0,-35.0,-1,1.0,0.4595010000000457
281,4,0.5,0.125,-35.0,-1,1.0,1.1116010000000642
282,4,0.5,0.5,35.0,1,1.0,0.4263010000001941
283,4,0.5,0.0625,35.0,1,1.0,0.6216019999999389
284,4,0.5,0.125,-35.0,-1,1.0,0.3230020000000877
285,4,0.5,0.5,35.0,1,1.0,2.6616010000000188
286,4,0.5,0.5,35.0,1,1.0,1.0366010000002461
287,4,0.5,1.0,-35.0,-1,1.0,0.44520200000010846
288,4,0.5,1.0,-35.0,-1,1.0,0.36320200000000114
289,4,0.5,0.5,35.0,1,1.0,6.008001000000149
290,4,0.5,0.5,-35.0,-1,1.0,0.2834010000001399
291,4,0.5,0.5,35.0,-1,0.0,9.481701000000157
292,4,0.5,0.5,-35.0,-1,1.0,0.620401000000129
293,4,0.5,1.0,-35.0,-1,1.0,1.8388010000001032
294,4,0.5,0.0,-35.0,-1,1.0,3.763801000000285
295,4,0.5,0.125,-35.0,-1,1.0,0.728601000000026
296,4,0.5,0.125,35.0,1,1.0,0.7771020000002409
297,4,0.5,0.25,-35.0,-1,1.0,0.24890200000027107
298,4,0.5,0.125,-35.0,-1,1.0,0.3372010000002774
299,4,0.5,0.0,35.0,-1,0.0,2.0789020000001983
300,4,0.1,0.0,35.0,-1,0.0,4.294102000000066
301,4,0.5,0.5,35.0,1,1.0,0.3898020000001452
302,4,0.5,0.0625,-35.0,-1,1.0,8.030901000000085
303,4,0.5,0.125,-35.0,-1,1.0,0.38930200000004334
304,4,0.5,1.0,35.0,1,1.0,0.4744010000001708
305,4,0.5,1.0,35.0,1,1.0,0.2961010000001352
306,4,0.5,0.25,35.0,1,1.0,1.4813020000001416
307,4,0.5,0.0625,-35.0,-1,1.0,1.5826010000002952
308,4,0.5,0.125,35.0,1,1.0,0.577902000000222
309,4,0.5,0.125,35.0,-1,0.0,4.646801000000096
310,4,0.5,0.0625,-35.0,-1,1.0,0.21140200000013465
311,4,0.5,0.5,-35.0,-1,1.0,0.340300999999954
312,4,0.5,0.25,35.0,1,1.0,0.521502000000055
313,4,0.5,1.0,35.0,1,1.0,0.30640100000005077
314,4,0.5,0.5,35.0,1,1.0,0.28490099999999074
315,4,0.5,0.125,-35.0,-1,1.0,0.730301000000054
316,4,0.5,0.0625,35.0,-1,0.0,3.5351020000000517
317,4,0.4,0.0625,35.0,1,1.0,0.6165020000000823
318,4,0.5,1.0,35.0,1,1.0,0.4085010000001148
319,4,0.5,0.0,-35.0,-1,1.0,30.300201000000015
320,4,0.5,0.0625,-35.0,-1,1.0,0.829001000000062
321,4,0.5,0.125,-35.0,-1,1.0,0.7806020000000444
322,4,0.5,0.125,-35.0,-1,1.0,0.5725019999999859
323,4,0.5,0.25,-35.0,-1,1.0,0.4406010000002425
324,4,0.5,0.125,35.0,1,1.0,0.9259020000001783
325,4,0.5,0.5,-35.0,-1,1.0,0.26730200000019977
326,4,0.5,0.5,-35.0,-1,1.0,1.8493009999999686
327,4,0.5,0.125,-35.0,-1,1.0,0.6008020000001579
328,4,0.5,0.25,35.0,1,1.0,0.47610099999997146
329,4,0.5,0.0625,-35.0,-1,1.0,0.591202000000294
330,4,0.5,0.0,35.0,1,1.0,4.152801000000181
331,4,0.5,0.5,-35.0,-1,1.0,0.39780100000007224
332,4,0.5,0.0625,-35.0,-1,1.0,1.5031020000001263
333,4,0.5,0.0625,35.0,-1,0.0,0.34780099999989034
334,4,0.5,0.0625,35.0,-1,0.0,6.496501999999964
335,4,0.5,0.0625,35.0,-1,0.0,1.6119010000002163
336,4,0.5,0.0,-35.0,1,0.0,3.269902000000002
337,4,0.3,0.0,-35.0,-1,1.0,0.46200199999998404
338,4,0.5,0.5,-35.0,-1,1.0,0.7802010000000337
339,4,0.5,0.125,-35.0,-1,1.0,2.3251010000001315
340,4,0.5,0.0,-35.0,-1,1.0,0.3570009999998547
341,4,0.5,0.0625,35.0,-1,0.0,1.3184020000001055
342,4,0.5,0.0625,35.0,1,1.0,7.803801000000249
343,4,0.5,0.125,-35.0,-1,1.0,4.165400999999974
344,4,0.5,0.125,-35.0,-1,1.0,0.4807020000000648
345,4,0.5,0.5,35.0,1,1.0,0.4328020000000379
346,4,0.5,0.0625,-35.0,1,0.0,13.017401999999947
347,4,0.3,0.0625,35.0,1,1.0,4.609301000000187
348,4,0.5,1.0,35.0,1,1.0,0.39780100000007224
349,4,0.5,1.0,-35.0,-1,1.0,0.4334010000000035
350,4,0.5,0.0625,-35.0,-1,1.0,1.5411020000001372
351,4,0.5,0.5,35.0,-1,0.0,5.222801000000345
352,4,0.5,0.0625,35.0,-1,0.0,5.064702000000125
353,4,0.4,0.0625,-35.0,-1,1.0,13.613201000000117
354,4,0.5,1.0,-35.0,-1,1.0,0.5616010000001097
355,4,0.5,0.125,-35.0,-1,1.0,0.4405010000000402
356,4,0.5,0.25,-35.0,-1,1.0,0.5383010000002741
357,4,0.5,0.125,35.0,1,1.0,3.5196020000003045
358,4,0.5,1.0,-35.0,-1,1.0,0.2819010000000617
359,4,0.5,0.125,-35.0,-1,1.0,2.000601000000188
360,4,0.5,0.5,35.0,1,1.0,1.3254010000000562
361,4,0.5,1.0,-35.0,-1,1.0,0.31680100000016864
362,4,0.5,0.0,35.0,-1,0.0,2.3188020000002325
363,4,0.5,0.125,35.0,-1,0.0,11.773701999999957
364,4,0.2,0.125,35.0,-1,0.0,2.4589010000001963
365,4,0.5,1.0,35.0,1,1.0,0.48040100000002894
366,4,0.5,0.0,35.0,-1,0.0,3.20590100000004
367,4,0.5,0.0625,35.0,1,1.0,1.700901000000158
368,4,0.5,1.0,35.0,1,1.0,0.6892020000002503
369,4,0.5,0.5,-35.0,-1,1.0,0.32090100000004895
370,4,0.5,0.25,35.0,1,1.0,0.2694010000000162
371,4,0.5,0.0625,-35.0,-1,1.0,18.18400200000019
372,4,0.5,0.5,35.0,-1,0.0,2.636301999999887
373,4,0.4,0.5,35.0,1,1.0,1.32110200000011
374,4,0.5,0.5,-35.0,-1,1.0,0.4265020000000277
375,4,0.5,0.25,35.0,-1,0.0,1.0051010000001952
376,4,0.4,0.25,-35.0,-1,1.0,0.6566020000002482
377,4,0.5,1.0,35.0,1,1.0,0.3553020000001652
378,4,0.5,0.5,35.0,1,1.0,0.28670099999999366
379,4,0.5,0.0625,35.0,-1,0.0,7.068201000000045
380,4,0.4,0.0625,-35.0,-1,1.0,7.6603020000000015
381,4,0.5,0.5,35.0,1,1.0,0.3823019999999815
382,4,0.5,0.0625,35.0,1,1.0,10.177001000000246
383,4,0.5,0.0625,-35.0,-1,1.0,4.9086019999999735
384,4,0.5,0.25,-35.0,-1,1.0,0.4240010000003167
385,4,0.5,0.25,35.0,-1,0.0,4.207401000000118
386,4,0.5,0.25,35.0,1,1.0,1.098901000000069
387,4,0.5,0.0,-35.0,1,0.0,4.777501000000029
388,4,0.5,0.25,-35.0,-1,1.0,0.6289020000001528
389,4,0.5,0.0625,35.0,1,1.0,1.424301000000014
390,4,0.5,0.25,35.0,1,1.0,6.279602000000068
391,4,0.5,0.25,35.0,1,1.0,4.161202000000003
392,4,0.5,0.0625,35.0,-1,0.0,3.2067010000000664
393,4,0.5,0.25,35.0,1,1.0,2.308101000000079
394,4,0.5,0.0625,35.0,-1,0.0,6.599501000000146
395,4,0.6,0.0625,35.0,-1,0.0,7.134902000000011
396,4,0.5,1.0,-35.0,-1,1.0,0.5201010000000679
397,4,0.5,0.0,-35.0,1,0.0,5.788502000000108
398,4,0.5,0.125,35.0,-1,0.0,46.6599020000001
399,4,0.5,0.125,-35.0,-1,1.0,21.939301000000114
400,4,0.5,0.125,-35.0,-1,1.0,24.275301000000127
401,4,0.5,0.0,35.0,1,1.0,12.418402000000015
402,4,0.5,0.0625,-35.0,-1,1.0,14.76050199999986
403,4,0.5,0.0,35.0,1,1.0,8.715602000000217
404,4,0.5,0.5,35.0,1,1.0,3.6605020000001787
405,4,0.5,0.25,35.0,-1,0.0,8.965602000000217
406,4,0.4,0.25,-35.0,-1,1.0,6.044201000000157
407,4,0.5,0.5,35.0,-1,0.0,3.352301000000125
408,4,0.5,0.125,35.0,-1,0.0,2.2744020000002365
409,4,0.3,0.125,-35.0,-1,1.0,8.099801000000298
410,4,0.5,1.0,35.0,-1,0.0,35.01130200000034
411,4,0.5,0.0625,-35.0,-1,1.0,20.29360200000019
412,4,0.5,1.0,35.0,1,1.0,1.0588010000001304
413,4,0.5,0.0625,35.0,-1,0.0,6.664600999999948
414,4,0.5,0.0,-35.0,-1,1.0,0.4757019999997283
415,4,0.5,0.125,35.0,-1,0.0,1.061301000000185
416,4,0.5,0.0625,-35.0,1,0.0,6.802400999999918
417,4,0.2,0.0625,35.0,-1,0.0,3.8008020000002034
418,4,0.5,1.0,-35.0,-1,1.0,0.46610099999998056
419,4,0.5,0.25,35.0,1,1.0,7.981302000000142
420,4,0.5,0.25,35.0,-1,0.0,6.212901000000329
421,4,0.3,0.25,35.0,1,1.0,1.928201000000172
422,4,0.5,1.0,35.0,1,1.0,0.75970099999995
423,4,0.5,0.5,-35.0,-1,1.0,0.4145010000002003
424,4,0.5,0.0625,-35.0,1,0.0,5.856702000000496
425,4,0.5,0.0625,-35.0,-1,1.0,3.9152020000001357
426,4,0.5,1.0,-35.0,-1,1.0,0.41660200000023906
427,4,0.5,0.125,35.0,-1,0.0,11.011700999999903
428,4,0.4,0.125,-35.0,-1,1.0,7.453801999999996
429,4,0.5,1.0,-35.0,-1,1.0,2.3617020000001503
430,4,0.5,0.0625,35.0,-1,0.0,4.333802000000105
431,4,0.3,0.0625,-35.0,-1,1.0,8.959301000000323
432,4,0.5,1.0,-35.0,-1,1.0,0.6441010000003189
433,4,0.5,0.0625,35.0,-1,0.0,59.187500999999884
434,4,0.1,0.0625,35.0,-1,0.0,10.083000999999967
435,4,0.5,0.5,35.0,1,1.0,2.0885020000000623
436,4,0.5,0.25,35.0,1,1.0,1.2764019999999618
1,5,0.5,0.5,35.0,0,0.0,60.0405
2,5,0.5,0.0625,35.0,0,0.0,60.0287
3,5,0.5,0.0625,-35.0,-1,1.0,38.54140000000001
4,5,0.5,0.125,-35.0,-1,1.0,4.9971009999999865
5,5,0.5,1.0,-35.0,-1,1.0,0.854600999999974
6,5,0.5,0.25,-35.0,-1,1.0,0.898399999999981
7,5,0.5,0.5,-35.0,-1,1.0,4.453999999999979
8,5,0.5,0.0,-35.0,-1,1.0,23.297900999999996
9,5,0.5,0.0625,35.0,-1,0.0,51.12429999999998
10,5,0.5,0.0,35.0,1,1.0,12.360100999999986
11,5,0.5,1.0,-35.0,0,0.0,60.029601000000014
12,5,0.5,0.0625,-35.0,-1,1.0,11.361400000000003
13,5,0.5,0.25,-35.0,-1,1.0,50.32280100000003
14,5,0.5,0.0625,35.0,1,1.0,0.43390100000010534
15,5,0.5,1.0,35.0,1,1.0,0.27470000000016626
16,5,0.5,0.5,35.0,1,1.0,0.7627009999999927
17,5,0.5,0.0625,-35.0,1,0.0,0.13330099999996037
18,5,0.5,0.0625,35.0,-1,0.0,0.9942010000000892
19,5,0.6,0.0625,35.0,1,1.0,0.31970000000001164
20,5,0.5,1.0,-35.0,-1,1.0,0.4779999999999518
21,5,0.5,0.5,35.0,1,1.0,0.2534009999999398
22,5,0.5,1.0,-35.0,-1,1.0,0.14220000000000255
23,5,0.5,1.0,-35.0,-1,1.0,2.0254000000001042
24,5,0.5,1.0,-35.0,-1,1.0,0.6076010000000451
25,5,0.5,0.0625,35.0,1,1.0,0.3158010000000786
26,5,0.5,0.5,35.0,1,1.0,0.2556000000000722
27,5,0.5,0.5,35.0,1,1.0,0.25050100000009934
28,5,0.5,0.25,35.0,1,1.0,0.6772000000000844
29,5,0.5,0.5,35.0,1,1.0,0.26250100000004295
30,5,0.5,0.0625,35.0,1,1.0,0.2519009999999753
31,5,0.5,1.0,-35.0,-1,1.0,0.10750100000007023
32,5,0.5,0.0,-35.0,-1,1.0,0.6674000000000433
33,5,0.5,1.0,-35.0,-1,1.0,0.2784000000000333
34,5,0.5,0.0625,35.0,1,1.0,0.26720000000011623
35,5,0.5,0.25,-35.0,1,0.0,0.35880100000008497
36,5,0.5,0.125,-35.0,1,0.0,0.31440100000008897
37,5,0.5,0.0625,35.0,1,1.0,0.24549999999999272
38,5,0.5,0.0625,-35.0,-1,1.0,0.3164010000000417
39,5,0.5,0.5,35.0,1,1.0,0.24520099999995182
40,5,0.5,1.0,-35.0,-1,1.0,0.23430000000007567
41,5,0.5,0.0,-35.0,1,0.0,0.2577999999999747
42,5,0.6,0.0,-35.0,-1,1.0,0.5383009999999331
43,5,0.5,0.5,-35.0,-1,1.0,0.561100000000124
44,5,0.5,0.5,35.0,1,1.0,0.22900000000004184
45,5,0.5,0.25,-35.0,1,0.0,0.27890000000013515
46,5,0.6,0.25,-35.0,-1,1.0,0.4984000000000606
47,5,0.5,1.0,-35.0,-1,1.0,0.5284000000000333
48,5,0.5,0.5,35.0,1,1.0,0.2516010000000506
49,5,0.5,0.0,-35.0,1,0.0,0.27800000000002
50,5,0.5,0.0625,-35.0,-1,1.0,0.3943010000000413
51,5,0.5,0.125,-35.0,-1,1.0,0.35340100000007624
52,5,0.5,0.125,35.0,1,1.0,0.29240100000004077
53,5,0.5,0.125,-35.0,-1,1.0,0.5127010000001064
54,5,0.5,0.5,35.0,1,1.0,0.2550010000001066
55,5,0.5,0.0,35.0,1,1.0,0.27210100000013426
56,5,0.5,0.5,35.0,1,1.0,0.26880000000005566
57,5,0.5,1.0,-35.0,1,0.0,0.23720000000002983
58,5,0.5,0.0,-35.0,1,0.0,0.33460100000013426
59,5,0.7,0.0,35.0,1,1.0,0.26130000000000564
60,5,0.5,0.5,-35.0,-1,1.0,0.530501000000072
61,5,0.5,0.5,-35.0,-1,1.0,0.38330100000007405
62,5,0.5,0.0625,35.0,1,1.0,0.35120100000006005
63,5,0.5,0.125,35.0,1,1.0,0.24410100000011425
64,5,0.5,0.25,-35.0,1,0.0,0.2399000000000342
65,5,0.5,0.25,-35.0,-1,1.0,0.4834010000000717
66,5,0.5,1.0,-35.0,-1,1.0,0.44669999999996435
67,5,0.5,1.0,35.0,-1,0.0,0.09180000000003474
68,5,0.5,1.0,-35.0,-1,1.0,0.3443000000000893
69,5,0.5,1.0,35.0,1,1.0,0.24590100000011716
70,5,0.5,1.0,35.0,1,1.0,0.23500000000001364
71,5,0.5,0.25,35.0,1,1.0,0.33960000000001855
72,5,0.5,0.5,-35.0,-1,1.0,0.5427999999999429
73,5,0.5,0.0,35.0,1,1.0,0.23069999999995616
74,5,0.5,0.125,-35.0,-1,1.0,0.1629000000001497
75,5,0.5,0.25,-35.0,1,0.0,11.534500999999977
76,5,0.5,0.25,-35.0,1,0.0,0.3792000000000826
77,5,0.5,1.0,35.0,1,1.0,0.25470100000006823
78,5,0.5,0.0,35.0,1,1.0,0.34090100000003076
79,5,0.5,1.0,35.0,1,1.0,0.23680100000001403
80,5,0.5,0.25,35.0,1,1.0,0.24660099999994145
81,5,0.5,1.0,35.0,1,1.0,0.27900000000011005
82,5,0.5,0.25,-35.0,-1,1.0,0.4505010000000311
83,5,0.5,0.0625,-35.0,-1,1.0,0.07720100000017283
84,5,0.5,0.0625,35.0,1,1.0,0.28720000000009804
85,5,0.5,0.0625,35.0,1,1.0,0.28130000000010114
86,5,0.5,0.125,35.0,1,1.0,0.2583000000000766
87,5,0.5,1.0,-35.0,-1,1.0,0.26260100000001785
88,5,0.5,0.0625,-35.0,1,0.0,0.26909999999998035
89,5,0.7,0.0625,-35.0,-1,1.0,0.3203009999999722
90,5,0.5,1.0,35.0,1,1.0,0.30920000000003256
91,5,0.5,0.25,-35.0,-1,1.0,0.5529010000001335
92,5,0.5,1.0,-35.0,-1,1.0,0.29080099999998765
93,5,0.5,0.125,35.0,-1,0.0,0.44410000000004857
94,5,0.5,0.25,35.0,1,1.0,0.6060010000001057
95,5,0.5,0.0625,35.0,1,1.0,0.3750000000001137
96,5,0.5,0.0,-35.0,1,0.0,0.28830100000004677
97,5,0.5,0.125,35.0,1,1.0,0.286200000000008
98,5,0.5,1.0,-35.0,-1,1.0,0.07829999999989923
99,5,0.5,0.125,35.0,1,1.0,0.3201000000000249
100,5,0.5,0.0625,35.0,1,1.0,0.28140000000007603
101,5,0.5,0.0625,35.0,1,1.0,0.2291010000000142
102,5,0.5,0.125,-35.0,-1,1.0,0.6477999999999611
103,5,0.5,0.25,-35.0,-1,1.0,0.38450000000000273
104,5,0.5,0.0625,35.0,1,1.0,0.2582999999999629
105,5,0.5,1.0,35.0,1,1.0,0.21860000000015134
106,5,0.5,0.0625,-35.0,-1,1.0,0.6953999999999496
107,5,0.5,0.0,-35.0,1,0.0,0.28720000000009804
108,5,0.6,0.0,-35.0,1,0.0,0.3102000000000089
109,5,0.5,1.0,-35.0,-1,1.0,0.42030000000011114
110,5,0.5,0.0625,-35.0,-1,1.0,0.2914009999999507
111,5,0.5,0.0,-35.0,-1,1.0,0.33989999999994325
112,5,0.5,0.25,-35.0,-1,1.0,0.6032999999999902
113,5,0.5,0.0625,35.0,1,1.0,0.42250000000001364
114,5,0.5,0.125,-35.0,-1,1.0,0.49870100000009643
115,5,0.5,0.125,35.0,1,1.0,0.33750000000009095
116,5,0.5,0.0,35.0,-1,0.0,0.29980000000000473
117,5,0.4,0.0,-35.0,-1,1.0,4.643200000000093
118,5,0.5,1.0,35.0,1,1.0,0.2620010000000548
119,5,0.5,0.0625,-35.0,-1,1.0,0.30660100000011425
120,5,0.5,0.25,35.0,1,1.0,0.25530000000003383
121,5,0.5,0.0,-35.0,1,0.0,0.2966000000001259
122,5,0.5,0.0,-35.0,-1,1.0,0.4831010000000333
123,5,0.5,1.0,-35.0,-1,1.0,0.4289009999999962
124,5,0.5,0.0625,35.0,1,1.0,0.3639010000000553
125,5,0.5,0.0625,-35.0,-1,1.0,0.3726010000000315
126,5,0.5,0.0,-35.0,1,0.0,0.2701009999999542
127,5,0.5,0.25,35.0,1,1.0,0.2960010000000466
128,5,0.5,0.0625,-35.0,-1,1.0,0.5182020000000875
129,5,0.5,0.125,-35.0,-1,1.0,0.4428020000000288
130,5,0.5,0.0625,35.0,1,1.0,0.28810199999998076
131,5,0.5,1.0,-35.0,-1,1.0,0.3163010000000668
132,5,0.5,0.0625,35.0,1,1.0,0.4249009999999771
133,5,0.5,0.125,-35.0,-1,1.0,0.5264010000000781
134,5,0.5,0.25,-35.0,-1,1.0,0.12470100000018647
135,5,0.5,0.25,35.0,1,1.0,0.3463010000000395
136,5,0.5,0.125,35.0,1,1.0,0.25170200000002296
137,5,0.5,0.125,-35.0,1,0.0,3.0968010000001414
138,5,0.5,0.125,-35.0,-1,1.0,0.5849010000001726
139,5,0.5,0.0625,35.0,1,1.0,0.4267019999999775
140,5,0.5,0.0625,35.0,-1,0.0,0.4456009999998969
141,5,0.5,0.25,35.0,1,1.0,0.28010199999994256
142,5,0.5,0.0625,-35.0,-1,1.0,0.24810100000013335
143,5,0.5,1.0,35.0,1,1.0,0.27020100000004277
144,5,0.5,0.0625,-35.0,-1,1.0,0.7690020000000004
145,5,0.5,0.125,-35.0,-1,1.0,5.17360100000019
146,5,0.5,0.125,-35.0,-1,1.0,0.5422020000000884
147,5,0.5,0.0625,35.0,1,1.0,0.31380200000012337
148,5,0.5,0.0625,-35.0,1,0.0,0.28220200000009754
149,5,0.5,0.0,35.0,-1,0.0,0.5472010000000864
150,5,0.5,0.0625,35.0,1,1.0,0.34610100000031707
151,5,0.5,0.0,-35.0,-1,1.0,0.4273009999999431
152,5,0.5,0.125,-35.0,-1,1.0,0.595602000000099
153,5,0.5,0.25,-35.0,-1,1.0,0.30070099999989
154,5,0.5,0.0625,35.0,-1,0.0,0.7691010000000915
155,5,0.5,0.0625,35.0,1,1.0,0.24070099999994454
156,5,0.5,0.0625,-35.0,-1,1.0,0.9432020000001557
157,5,0.5,0.25,35.0,1,1.0,0.23420200000009572
158,5,0.5,0.125,35.0,1,1.0,0.22270200000025397
159,5,0.5,0.25,-35.0,-1,1.0,0.4243020000001252
160,5,0.5,0.125,-35.0,-1,1.0,0.38920200000006844
161,5,0.5,0.125,35.0,-1,0.0,3.14120099999991
162,5,0.5,0.25,-35.0,-1,1.0,0.3801009999999678
163,5,0.5,0.0625,35.0,-1,0.0,0.10460100000000239
164,5,0.3,0.0625,-35.0,-1,1.0,0.9194010000001072
165,5,0.5,1.0,-35.0,-1,1.0,0.4813019999999142
166,5,0.5,1.0,35.0,1,1.0,0.233400999999958
167,5,0.5,0.25,-35.0,-1,1.0,0.5213020000001052
168,5,0.5,0.0625,35.0,1,1.0,0.31950099999994563
169,5,0.5,0.0625,-35.0,-1,1.0,0.5281009999998787
170,5,0.5,1.0,-35.0,-1,1.0,0.10990100000003622
171,5,0.5,1.0,35.0,1,1.0,0.27820100000008097
172,5,0.5,1.0,35.0,1,1.0,0.27060099999994236
173,5,0.5,0.0625,35.0,1,1.0,0.5317010000001119
174,5,0.5,0.0625,35.0,-1,0.0,0.13980099999980666
175,5,0.5,0.125,35.0,1,1.0,0.3052020000000084
176,5,0.5,0.25,-35.0,-1,1.0,0.29660100000023704
177,5,0.5,0.25,35.0,1,1.0,0.2551009999999678
178,5,0.5,1.0,35.0,1,1.0,0.2935010000001057
179,5,0.5,0.25,35.0,1,1.0,0.378601000000117
180,5,0.5,0.125,35.0,1,1.0,0.3536020000001372
181,5,0.5,1.0,-35.0,-1,1.0,0.5086009999999987
182,5,0.5,0.25,-35.0,-1,1.0,0.4137020000000575
183,5,0.5,0.25,-35.0,-1,1.0,0.4587010000000191
184,5,0.5,1.0,-35.0,-1,1.0,0.33430199999997967
185,5,0.5,1.0,35.0,1,1.0,0.23210200000016812
186,5,0.5,0.0,-35.0,1,0.0,0.3304019999998218
187,5,0.6,0.0,-35.0,1,0.0,0.29890100000011444
188,5,0.5,1.0,35.0,1,1.0,0.27400200000010955
189,5,0.5,0.0,35.0,-1,0.0,0.582302000000027
190,5,0.5,0.125,35.0,1,1.0,0.2672010000001137
191,5,0.5,0.125,35.0,1,1.0,0.6159020000000055
192,5,0.5,0.25,35.0,1,1.0,0.2709019999999782
193,5,0.5,1.0,35.0,1,1.0,0.16920199999981378
194,5,0.5,0.25,35.0,1,1.0,0.5779019999997672
195,5,0.5,1.0,35.0,1,1.0,0.2393019999999524
196,5,0.5,0.125,-35.0,1,0.0,0.5879010000001017
197,5,0.5,0.0625,35.0,1,1.0,0.3095010000001821
198,5,0.5,1.0,-35.0,-1,1.0,0.44110200000022814
199,5,0.5,0.0625,-35.0,-1,1.0,0.3594020000002729
200,5,0.5,0.25,35.0,1,1.0,0.27450100000010025
201,5,0.5,1.0,-35.0,-1,1.0,0.4762020000000575
202,5,0.5,0.0625,-35.0,-1,1.0,0.4447020000000066
203,5,0.5,0.125,-35.0,-1,1.0,0.4331019999999626
204,5,0.5,0.25,-35.0,-1,1.0,2.868101999999908
205,5,0.5,1.0,-35.0,-1,1.0,6.316501000000017
206,5,0.5,0.25,-35.0,-1,1.0,0.4749020000001565
207,5,0.5,1.0,35.0,1,1.0,0.3234019999999873
208,5,0.5,0.125,35.0,1,1.0,0.3221009999999751
209,5,0.5,0.0625,35.0,1,1.0,0.7367019999999229
210,5,0.5,0.125,-35.0,-1,1.0,0.27220199999987926
211,5,0.5,0.25,35.0,1,1.0,0.3202009999999973
212,5,0.5,0.25,35.0,1,1.0,0.22530100000017228
213,5,0.5,0.125,-35.0,-1,1.0,3.600302000000056
214,5,0.5,0.0625,-35.0,1,0.0,0.442801000000145
215,5,0.6,0.0625,35.0,1,1.0,0.3071020000002136
216,5,0.5,1.0,-35.0,-1,1.0,0.4188010000000304
217,5,0.5,0.25,-35.0,-1,1.0,0.5373010000000704
218,5,0.5,1.0,-35.0,-1,1.0,0.23220100000025923
219,5,0.5,0.0,35.0,-1,0.0,0.8939009999999143
220,5,0.5,0.125,-35.0,-1,1.0,0.28610200000002806
221,5,0.5,0.25,35.0,1,1.0,0.4108009999999922
222,5,0.5,0.125,-35.0,-1,1.0,1.6424020000001747
223,5,0.5,0.0,-35.0,-1,1.0,3.130901999999878
224,5,0.5,0.0,-35.0,-1,1.0,1.4556009999998878
225,5,0.5,0.25,-35.0,-1,1.0,0.4143010000000231
226,5,0.5,0.25,35.0,1,1.0,0.3234010000001035
227,5,0.5,0.0625,35.0,1,1.0,2.3845020000001114
228,5,0.5,0.25,35.0,-1,0.0,0.1362010000002556
229,5,0.5,0.125,35.0,1,1.0,3.64120099999991
230,5,0.5,1.0,35.0,1,1.0,0.21990199999981996
231,5,0.5,1.0,35.0,1,1.0,0.2213010000000395
232,5,0.5,0.0625,-35.0,-1,1.0,0.46640099999990525
233,5,0.5,0.125,35.0,1,1.0,0.298001000000113
234,5,0.5,0.125,35.0,1,1.0,0.3097020000000157
235,5,0.5,1.0,35.0,1,1.0,0.25830199999995784
236,5,0.5,0.0625,-35.0,1,0.0,2.323601999999937
237,5,0.8,0.0625,35.0,1,1.0,0.46180200000003424
238,5,0.5,1.0,35.0,1,1.0,0.2768020000000888
239,5,0.5,1.0,-35.0,-1,1.0,0.29840199999989636
240,5,0.5,1.0,35.0,1,1.0,0.5468020000000706
241,5,0.5,0.0625,-35.0,-1,1.0,2.4618020000000342
242,5,0.5,0.0625,-35.0,-1,1.0,0.4669019999998909
243,5,0.5,1.0,-35.0,-1,1.0,0.3918020000000979
244,5,0.5,0.0,35.0,1,1.0,0.18110200000023724
245,5,0.5,0.125,-35.0,-1,1.0,0.4652010000002065
246,5,0.5,0.25,35.0,1,1.0,9.656901000000062
247,5,0.5,0.0,-35.0,1,0.0,4.982102000000168
248,5,0.5,0.125,-35.0,-1,1.0,0.42780100000004495
249,5,0.5,0.25,35.0,1,1.0,0.4224010000000362
250,5,0.5,1.0,35.0,1,1.0,0.23410200000012082
251,5,0.5,1.0,-35.0,-1,1.0,0.40570100000013554
252,5,0.5,0.0625,35.0,-1,0.0,4.984102000000121
253,5,0.5,0.0625,-35.0,-1,1.0,6.036201000000119
254,5,0.5,0.25,35.0,-1,0.0,2.1342010000000755
255,5,0.4,0.25,-35.0,1,0.0,0.3862010000000282
256,5,0.5,1.0,35.0,1,1.0,0.29180100000030507
257,5,0.5,0.25,35.0,1,1.0,0.392900999999938
258,5,0.5,1.0,-35.0,-1,1.0,0.1949019999999564
259,5,0.5,0.0,35.0,1,1.0,3.1030020000000604
260,5,0.5,0.0625,35.0,-1,0.0,0.29640200000017103
261,5,0.5,0.25,-35.0,-1,1.0,0.9481009999999515
262,5,0.5,0.0625,35.0,-1,0.0,0.5898019999999633
263,5,0.5,0.0,35.0,1,1.0,1.5123019999998633
264,5,0.5,0.0,-35.0,-1,1.0,0.9000020000000859
265,5,0.5,0.0,-35.0,-1,1.0,1.6154019999999036
266,5,0.5,0.25,35.0,1,1.0,0.2533009999999649
267,5,0.5,1.0,-35.0,-1,1.0,1.3450010000001384
268,5,0.5,0.0,-35.0,1,0.0,6.863402000000178
269,5,0.4,0.0,35.0,-1,0.0,8.912102000000004
270,5,0.5,1.0,-35.0,-1,1.0,0.45380199999999604
271,5,0.5,0.125,35.0,1,1.0,3.6619009999999435
272,5,0.5,1.0,35.0,1,1.0,0.6473010000001977
273,5,0.5,1.0,35.0,1,1.0,0.3920010000001639
274,5,0.5,0.125,35.0,-1,0.0,3.464102000000139
275,5,0.5,0.25,-35.0,-1,1.0,3.055900999999949
276,5,0.5,0.25,-35.0,-1,1.0,0.2609020000002147
277,5,0.5,0.25,-35.0,1,0.0,1.3158019999998487
278,5,0.5,0.0625,-35.0,1,0.0,0.17100100000016027
279,5,0.5,0.0625,35.0,-1,0.0,3.3235010000000784
280,5,0.5,1.0,35.0,1,1.0,0.3078020000000379
281,5,0.5,0.125,-35.0,-1,1.0,1.9160020000001623
282,5,0.5,0.25,-35.0,-1,1.0,1.5813010000001668
283,5,0.5,0.125,-35.0,-1,1.0,0.3399010000000544
284,5,0.5,0.0,-35.0,-1,1.0,1.0146010000000842
285,5,0.5,0.0625,-35.0,-1,1.0,0.5205019999998513
286,5,0.5,0.0625,35.0,-1,0.0,1.158202000000074
287,5,0.5,0.25,35.0,1,1.0,0.40060200000016266
288,5,0.5,0.0625,35.0,1,1.0,5.638202000000092
289,5,0.5,0.125,35.0,1,1.0,0.7433020000000852
290,5,0.5,0.125,-35.0,-1,1.0,0.7917019999999866
291,5,0.5,0.125,35.0,-1,0.0,4.710102000000006
292,5,0.5,0.25,35.0,1,1.0,0.2752020000000357
293,5,0.5,1.0,35.0,1,1.0,0.2571019999998043
294,5,0.5,0.125,35.0,-1,0.0,4.802001000000018
295,5,0.5,0.25,35.0,1,1.0,0.30340099999989434
296,5,0.5,1.0,35.0,-1,0.0,0.3887019999999666
297,5,0.5,0.25,35.0,-1,0.0,13.09090100000003
298,5,0.5,0.125,35.0,-1,0.0,9.80240200000003
299,5,0.5,0.0625,-35.0,-1,1.0,17.404101999999966
300,5,0.5,0.0625,35.0,1,1.0,6.709402000000182
301,5,0.5,0.25,35.0,1,1.0,16.358300999999983
302,5,0.5,1.0,-35.0,-1,1.0,0.21980099999996128
303,5,0.5,0.25,-35.0,-1,1.0,1.6982010000001537
304,5,0.5,0.0625,-35.0,-1,1.0,1.3068020000000615
305,5,0.5,0.0625,35.0,1,1.0,25.221800999999914
306,5,0.5,0.125,35.0,1,1.0,1.8238010000000031
307,5,0.5,0.0,35.0,-1,0.0,0.198701999999912
308,5,0.5,0.0,35.0,1,1.0,0.2406020000000808
309,5,0.5,0.0625,35.0,-1,0.0,1.1423010000000886
310,5,0.5,0.25,-35.0,-1,1.0,1.1474020000000564
311,5,0.5,0.125,-35.0,-1,1.0,0.15300100000013117
312,5,0.5,0.25,35.0,1,1.0,6.650801000000229
313,5,0.5,0.125,-35.0,-1,1.0,0.3095020000000659
314,5,0.5,0.25,-35.0,-1,1.0,0.21770200000014484
315,5,0.5,1.0,-35.0,-1,1.0,0.30310199999985343
316,5,0.5,0.0625,35.0,-1,0.0,0.6277019999999993
317,5,0.5,0.125,-35.0,-1,1.0,1.4663020000000415
318,5,0.5,0.0625,35.0,-1,0.0,2.1979010000000017
319,5,0.5,0.125,-35.0,-1,1.0,1.6362020000001394
320,5,0.5,0.25,-35.0,-1,1.0,0.4047010000001592
321,5,0.5,0.0625,35.0,-1,0.0,0.7603010000000268
322,5,0.5,0.25,-35.0,-1,1.0,0.4914010000002236
323,5,0.5,0.25,35.0,1,1.0,0.37350100000003295
324,5,0.5,1.0,35.0,1,1.0,0.23830100000009224
325,5,0.5,1.0,-35.0,-1,1.0,0.24660099999982776
326,5,0.5,0.125,35.0,-1,0.0,5.1984010000001035
327,5,0.5,0.125,-35.0,-1,1.0,3.2005010000002585
328,5,0.5,0.125,35.0,1,1.0,2.658501000000115
329,5,0.5,0.125,-35.0,-1,1.0,5.736600999999837
330,5,0.5,0.125,35.0,1,1.0,6.972001000000091
331,5,0.5,1.0,35.0,1,1.0,0.28050099999995837
332,5,0.5,1.0,-35.0,-1,1.0,0.24230200000010882
333,5,0.5,0.125,-35.0,-1,1.0,3.363700999999992
334,5,0.5,0.25,-35.0,-1,1.0,0.31230200000027253
335,5,0.5,0.125,35.0,1,1.0,5.1575010000001384
336,5,0.5,1.0,-35.0,-1,1.0,1.195801000000074
337,5,0.5,0.25,-35.0,-1,1.0,2.38770199999999
338,5,0.5,1.0,35.0,1,1.0,0.20610100000021703
339,5,0.5,0.0,-35.0,1,0.0,4.457402000000002
340,5,0.5,0.25,-35.0,-1,1.0,0.2895010000002003
341,5,0.5,1.0,-35.0,-1,1.0,0.24080100000014681
342,5,0.5,0.25,35.0,1,1.0,0.526100999999926
343,5,0.5,1.0,35.0,1,1.0,0.2819019999997181
344,5,0.5,0.0625,35.0,1,1.0,5.449600999999802
345,5,0.5,0.125,35.0,1,1.0,0.26870199999984834
346,5,0.5,1.0,-35.0,-1,1.0,0.3232010000001537
347,5,0.5,0.0625,35.0,1,1.0,6.415001000000302
348,5,0.5,0.25,-35.0,-1,1.0,2.5266019999999116
349,5,0.5,1.0,-35.0,-1,1.0,2.9580009999995127
350,5,0.5,0.0625,-35.0,-1,1.0,1.18340199999966
351,5,0.5,0.25,-35.0,-1,1.0,4.578901999999744
352,5,0.5,0.125,35.0,1,1.0,1.4170009999998001
353,5,0.5,0.125,35.0,-1,0.0,7.399202000000059
354,5,0.5,0.25,-35.0,-1,1.0,6.207201999999597
355,5,0.5,0.125,35.0,1,1.0,0.32330199999978504
356,5,0.5,1.0,35.0,1,1.0,0.24410200000011173
357,5,0.5,0.25,-35.0,1,0.0,1.9555019999997967
358,5,0.4,0.25,-35.0,-1,1.0,0.4309019999996053
359,5,0.5,1.0,-35.0,-1,1.0,0.359400999999707
360,5,0.5,0.25,-35.0,-1,1.0,0.8477020000000266
361,5,0.5,1.0,35.0,1,1.0,0.23930099999961385
362,5,0.5,0.125,-35.0,1,0.0,1.7310010000001057
363,5,0.5,0.25,35.0,1,1.0,1.0201019999999517
364,5,0.5,1.0,35.0,1,1.0,0.2878009999999449
365,5,0.5,0.125,-35.0,-1,1.0,0.21950199999992037
366,5,0.5,0.125,35.0,-1,0.0,2.964401999999609
367,5,0.5,0.125,35.0,1,1.0,12.793601999999737
368,5,0.5,1.0,35.0,1,1.0,0.24500099999977465
369,5,0.5,0.0625,-35.0,-1,1.0,12.32640100000026
370,5,0.5,1.0,-35.0,-1,1.0,0.5617010000000846
371,5,0.5,0.125,-35.0,-1,1.0,1.003501000000142
372,5,0.5,1.0,-35.0,-1,1.0,0.5553019999997559
373,5,0.5,0.0,35.0,-1,0.0,2.7273019999997814
374,5,0.5,0.25,35.0,-1,0.0,2.9654019999998127
375,5,0.5,0.25,-35.0,-1,1.0,12.67790100000002
376,5,0.5,0.125,35.0,-1,0.0,5.719000999999935
377,5,0.5,0.25,-35.0,-1,1.0,0.3484009999997397
378,5,0.5,0.25,-35.0,-1,1.0,0.3391009999995731
379,5,0.5,1.0,-35.0,-1,1.0,0.33100100000001476
380,5,0.5,1.0,-35.0,-1,1.0,0.25600200000008044
381,5,0.5,0.125,-35.0,1,0.0,10.29770199999939
382,5,0.1,0.125,35.0,-1,0.0,11.766201999999794
383,5,0.5,1.0,35.0,1,1.0,0.23800200000005134
384,5,0.5,0.25,35.0,1,1.0,3.5699009999998452
385,5,0.5,0.25,-35.0,-1,1.0,0.18900100000018938
386,5,0.5,0.125,35.0,-1,0.0,8.733402000000297
387,5,0.5,0.0625,-35.0,-1,1.0,0.4452019999998811
388,5,0.5,0.0,35.0,-1,0.0,0.9903009999998176
389,5,0.5,0.0,35.0,-1,0.0,4.915401999999631
390,5,0.5,0.125,-35.0,-1,1.0,4.300300999999763
391,5,0.5,1.0,35.0,1,1.0,0.2823009999997339
392,5,0.5,0.0625,35.0,-1,0.0,12.730502000000342
393,5,0.5,0.0625,-35.0,-1,1.0,14.78410199999962
394,5,0.5,0.25,-35.0,-1,1.0,0.42090099999950326
395,5,0.5,0.0625,-35.0,-1,1.0,1.8592009999997572
396,5,0.5,0.125,-35.0,-1,1.0,2.401000999999269
397,5,0.5,0.25,35.0,-1,0.0,4.392701999999645
398,5,0.5,0.25,-35.0,-1,1.0,1.161301000000094
399,5,0.5,0.125,35.0,-1,0.0,4.852901999999631
400,5,0.5,0.0,-35.0,-1,1.0,10.514701999999943
401,5,0.5,0.0625,35.0,-1,0.0,1.0031010000002425
402,5,0.5,0.0625,35.0,1,1.0,1.9184009999999034
403,5,0.5,0.0625,-35.0,1,0.0,1.160001000000193
404,5,0.5,0.0,35.0,-1,0.0,2.2320009999998547
405,5,0.5,0.0,35.0,1,1.0,6.837202000000161
406,5,0.5,0.0625,35.0,1,1.0,5.812000999999782
407,5,0.5,0.125,-35.0,-1,1.0,2.007401999999729
408,5,0.5,0.25,-35.0,-1,1.0,0.18220100000007733
409,5,0.5,0.25,-35.0,-1,1.0,0.3445010000000366
410,5,0.5,1.0,-35.0,-1,1.0,0.4656019999997625
411,5,0.5,0.0625,35.0,1,1.0,7.11080099999981
412,5,0.5,0.125,35.0,-1,0.0,0.2358009999998103
413,5,0.5,0.125,-35.0,-1,1.0,11.917301999999836
414,5,0.5,0.0625,35.0,-1,0.0,0.7193019999999706
415,5,0.5,0.0625,35.0,-1,0.0,1.6942019999996774
416,5,0.5,0.25,-35.0,1,0.0,1.4296010000002752
417,5,0.2,0.25,35.0,1,1.0,0.2683009999996102
418,5,0.5,1.0,35.0,-1,0.0,3.089701999999761
419,5,0.5,0.125,-35.0,-1,1.0,5.498100999999679
1,6,0.5,0.0,-35.0,-1,1.0,3.7634
2,6,0.5,0.125,-35.0,-1,1.0,0.21899999999999942
3,6,0.5,0.25,-35.0,-1,1.0,0.3182000000000009
4,6,0.5,0.125,35.0,1,1.0,0.25500100000000003
5,6,0.5,0.25,35.0,1,1.0,0.11280099999999749
6,6,0.5,1.0,-35.0,-1,1.0,0.4681009999999972
7,6,0.5,0.0,35.0,-1,0.0,0.3206999999999951
8,6,0.5,0.125,35.0,1,1.0,0.5999000000000052
9,6,0.5,0.0,35.0,1,1.0,0.2892999999999972
10,6,0.5,1.0,-35.0,-1,1.0,0.46180000000001087
11,6,0.5,0.125,35.0,1,1.0,0.5591999999999899
12,6,0.5,0.0625,-35.0,1,0.0,1.1754999999999995
13,6,0.5,0.125,35.0,-1,0.0,0.12470000000000425
14,6,0.5,0.0,35.0,-1,0.0,0.5344000000000051
15,6,0.5,0.25,35.0,1,1.0,0.3295999999999992
16,6,0.5,0.0,35.0,1,1.0,0.3207010000000139
17,6,0.5,0.125,35.0,1,1.0,0.6329999999999956
18,6,0.5,0.0625,35.0,1,1.0,0.27190000000000225
19,6,0.5,0.0625,35.0,1,1.0,0.1052010000000081
20,6,0.5,0.0,35.0,1,1.0,0.3393000000000086
21,6,0.5,0.0,35.0,-1,0.0,0.5973010000000016
22,6,0.5,0.0,-35.0,1,0.0,0.24780000000001223
23,6,0.5,0.0,35.0,1,1.0,0.34439999999999316
24,6,0.5,0.25,35.0,1,1.0,0.6009009999999932
25,6,0.5,0.125,35.0,1,1.0,0.27539999999999054
26,6,0.5,0.0625,35.0,1,1.0,0.17600100000001362
27,6,0.5,1.0,35.0,1,1.0,0.4613999999999976
28,6,0.5,0.0,-35.0,-1,1.0,0.6125010000000088
29,6,0.5,0.0625,-35.0,-1,1.0,0.21840100000000007
30,6,0.5,0.0625,35.0,1,1.0,0.49750100000002817
31,6,0.5,0.25,-35.0,1,0.0,0.26850100000001476
32,6,0.5,0.25,-35.0,-1,1.0,0.5677009999999996
33,6,0.5,0.125,35.0,1,1.0,0.24660100000002672
34,6,0.5,1.0,-35.0,1,0.0,0.25440000000000396
35,6,0.5,0.125,35.0,1,1.0,0.38180099999999584
36,6,0.5,0.125,35.0,1,1.0,0.17490100000000552
37,6,0.5,0.125,35.0,1,1.0,0.5810000000000173
38,6,0.5,0.25,-35.0,-1,1.0,0.32330100000001494
39,6,0.5,0.0625,-35.0,-1,1.0,0.2727999999999895
40,6,0.5,0.0625,-35.0,-1,1.0,0.9741999999999962
41,6,0.5,0.0625,35.0,-1,0.0,1.0109999999999957
42,6,0.5,0.0625,35.0,1,1.0,0.34489999999999554
43,6,0.5,1.0,35.0,1,1.0,0.4025010000000009
44,6,0.5,0.0,-35.0,1,0.0,0.12320100000002299
45,6,0.5,0.125,35.0,1,1.0,0.2918009999999924
46,6,0.5,0.25,-35.0,-1,1.0,0.48910000000000764
47,6,0.5,0.0625,-35.0,1,0.0,0.20530000000002246
48,6,0.5,0.25,35.0,1,1.0,0.33550000000002456
49,6,0.5,0.125,-35.0,-1,1.0,0.5333009999999945
50,6,0.5,0.0625,-35.0,-1,1.0,0.3098009999999931
51,6,0.5,0.25,-35.0,-1,1.0,0.2928009999999972
52,6,0.5,0.0625,-35.0,1,0.0,0.11629999999999541
53,6,0.6,0.0625,35.0,1,1.0,0.5979999999999848
54,6,0.5,1.0,-35.0,-1,1.0,0.27199999999999136
55,6,0.5,0.0625,35.0,-1,0.0,0.5232010000000287
56,6,0.4,0.0625,35.0,1,1.0,0.27050000000002683
57,6,0.5,1.0,35.0,1,1.0,0.3839009999999803
58,6,0.5,0.0625,35.0,1,1.0,0.11840100000000575
59,6,0.5,0.0625,-35.0,1,0.0,1.9931010000000242
60,6,0.5,0.25,-35.0,-1,1.0,0.5221009999999637
61,6,0.5,0.0,-35.0,1,0.0,0.2541999999999689
62,6,0.7,0.0,-35.0,-1,1.0,2.801999999999964
63,6,0.5,1.0,-35.0,-1,1.0,0.2689999999999486
64,6,0.5,0.25,-35.0,-1,1.0,0.38290000000000646
65,6,0.5,1.0,35.0,1,1.0,0.2896999999999821
66,6,0.5,0.25,35.0,1,1.0,0.4269999999999641
67,6,0.5,1.0,-35.0,1,0.0,0.08190100000001621
68,6,0.5,0.0,35.0,1,1.0,0.4322010000000205
69,6,0.5,0.25,35.0,1,1.0,0.30869999999998754
70,6,0.5,0.0625,-35.0,-1,1.0,0.5754999999999768
71,6,0.5,1.0,35.0,1,1.0,0.15340099999997392
72,6,0.5,0.25,-35.0,-1,1.0,0.3125
73,6,0.5,0.125,-35.0,-1,1.0,0.12319999999999709
74,6,0.5,0.25,-35.0,-1,1.0,0.6238999999999919
75,6,0.5,0.125,35.0,1,1.0,0.08590000000003783
76,6,0.5,1.0,-35.0,-1,1.0,0.43470000000002074
77,6,0.5,0.0625,-35.0,-1,1.0,0.42890099999993936
78,6,0.5,0.25,35.0,1,1.0,0.2616009999999278
79,6,0.5,0.0,-35.0,-1,1.0,0.5255009999999629
80,6,0.5,1.0,35.0,1,1.0,0.259900000000016
81,6,0.5,0.0625,-35.0,-1,1.0,0.3686000000000149
82,6,0.5,0.25,-35.0,1,0.0,0.23720000000002983
83,6,0.5,0.0,-35.0,1,0.0,2.6246999999999616
84,6,0.5,0.0,35.0,1,1.0,0.3549009999999839
85,6,0.5,1.0,35.0,1,1.0,0.4268000000000143
86,6,0.5,1.0,-35.0,-1,1.0,0.3216999999999075
87,6,0.5,0.0625,35.0,1,1.0,0.34480000000002065
88,6,0.5,0.25,35.0,1,1.0,0.414799999999957
89,6,0.5,0.125,-35.0,-1,1.0,0.4088009999999258
90,6,0.5,1.0,35.0,1,1.0,0.2629000000000019
91,6,0.5,0.125,35.0,1,1.0,0.3446009999998978
92,6,0.5,0.0625,35.0,1,1.0,0.22900099999998247
93,6,0.5,0.125,-35.0,-1,1.0,0.14950099999998656
94,6,0.5,1.0,35.0,1,1.0,0.2376000000000431
95,6,0.5,1.0,-35.0,-1,1.0,0.46119999999996253
96,6,0.5,0.0,-35.0,-1,1.0,0.3109010000000012
97,6,0.5,0.25,35.0,1,1.0,0.2294009999999389
98,6,0.5,0.125,-35.0,1,0.0,0.276800000000037
99,6,0.6,0.125,35.0,1,1.0,0.5126999999999384
100,6,0.5,1.0,-35.0,-1,1.0,0.4855000000000018
101,6,0.5,1.0,-35.0,-1,1.0,0.09109999999998308
102,6,0.5,1.0,35.0,1,1.0,0.24359999999995807
103,6,0.5,1.0,-35.0,-1,1.0,0.24910099999999602
104,6,0.5,0.125,-35.0,-1,1.0,0.9735999999999763
105,6,0.5,1.0,35.0,1,1.0,0.3443009999999731
106,6,0.5,0.125,-35.0,-1,1.0,0.5550999999999249
107,6,0.5,1.0,35.0,1,1.0,0.20400000000000773
108,6,0.5,1.0,-35.0,-1,1.0,0.12009999999997945
109,6,0.5,0.25,-35.0,-1,1.0,0.45500099999998156
110,6,0.5,0.0,-35.0,-1,1.0,0.25989999999995916
111,6,0.5,1.0,-35.0,-1,1.0,0.1976999999999407
112,6,0.5,0.25,-35.0,-1,1.0,0.3841009999999869
113,6,0.5,0.0625,-35.0,-1,1.0,0.40240099999999757
114,6,0.5,0.0625,35.0,1,1.0,0.4908999999999537
115,6,0.5,0.125,35.0,1,1.0,0.3313999999999737
116,6,0.5,0.25,35.0,1,1.0,0.6923999999999069
117,6,0.5,1.0,35.0,1,1.0,0.2625000000000455
118,6,0.5,0.125,-35.0,-1,1.0,0.3341009999999187
119,6,0.5,1.0,35.0,1,1.0,0.38629999999989195
120,6,0.5,0.0625,-35.0,-1,1.0,0.12800099999992653
121,6,0.5,0.25,-35.0,1,0.0,0.11749999999994998
122,6,0.5,0.125,35.0,1,1.0,0.3126009999999724
123,6,0.5,0.0625,35.0,-1,0.0,0.6128009999998767
124,6,0.7,0.0625,-35.0,-1,1.0,0.5168999999999642
125,6,0.5,1.0,35.0,1,1.0,0.34760099999994054
126,6,0.5,0.0625,35.0,-1,0.0,0.12489999999991142
127,6,0.5,0.0625,35.0,1,1.0,0.8232999999999038
128,6,0.5,1.0,35.0,1,1.0,0.30330099999991944
129,6,0.5,0.25,-35.0,-1,1.0,0.2939999999999827
130,6,0.5,1.0,-35.0,-1,1.0,2.450800999999956
131,6,0.5,0.0625,-35.0,-1,1.0,0.2599999999999909
132,6,0.5,0.25,35.0,1,1.0,0.3024000000000342
133,6,0.5,0.0625,-35.0,-1,1.0,0.2480000000000473
134,6,0.5,0.0625,35.0,-1,0.0,0.22650099999998474
135,6,0.5,0.25,35.0,1,1.0,0.24670099999991635
136,6,0.5,0.25,-35.0,-1,1.0,0.25030099999992217
137,6,0.5,1.0,-35.0,1,0.0,0.10190000000000055
138,6,0.5,0.125,35.0,-1,0.0,0.16360100000008515
139,6,0.3,0.125,35.0,1,1.0,0.6180009999999356
140,6,0.5,1.0,35.0,1,1.0,0.18869999999992615
141,6,0.5,1.0,35.0,1,1.0,0.48000100000001567
142,6,0.5,1.0,35.0,1,1.0,0.23170099999993
143,6,0.5,1.0,-35.0,-1,1.0,0.42590100000006714
144,6,0.5,1.0,35.0,1,1.0,0.27330000000006294
145,6,0.5,0.125,-35.0,-1,1.0,0.37360099999989416
146,6,0.5,1.0,-35.0,-1,1.0,0.38659999999993033
147,6,0.5,0.25,35.0,-1,0.0,0.19190099999991617
148,6,0.5,0.0625,35.0,-1,0.0,0.12620099999992362
149,6,0.5,0.0625,-35.0,-1,1.0,0.3045999999999367
150,6,0.5,1.0,35.0,1,1.0,0.2603009999999131
151,6,0.5,0.25,-35.0,-1,1.0,0.2801000000000613
152,6,0.5,0.25,-35.0,1,0.0,0.2642999999999347
153,6,0.5,0.0625,-35.0,-1,1.0,0.2942000000000462
154,6,0.5,0.0625,-35.0,-1,1.0,0.35570099999995364
155,6,0.5,0.0625,35.0,1,1.0,0.32559999999989486
156,6,0.5,1.0,35.0,-1,0.0,0.1432999999999538
157,6,0.5,0.0625,-35.0,-1,1.0,0.6127010000000155
158,6,0.5,1.0,35.0,1,1.0,0.27300000000002456
159,6,0.5,0.125,35.0,1,1.0,0.27710000000001855
160,6,0.5,0.0,-35.0,1,0.0,0.48010099999999056
161,6,0.5,0.0625,35.0,1,1.0,0.7198009999999613
162,6,0.5,1.0,35.0,1,1.0,0.2674009999999498
163,6,0.5,1.0,-35.0,-1,1.0,0.4380999999999631
164,6,0.5,0.0625,35.0,1,1.0,0.34550100000001294
165,6,0.5,0.0625,-35.0,-1,1.0,0.5745010000000548
166,6,0.5,0.0625,35.0,1,1.0,0.29549999999994725
167,6,0.5,0.125,-35.0,1,0.0,0.7781999999999698
168,6,0.5,0.0625,-35.0,1,0.0,0.40560099999993326
169,6,0.5,0.0625,35.0,1,1.0,0.34110099999998056
170,6,0.5,1.0,-35.0,-1,1.0,0.49900000000002365
171,6,0.5,0.0625,35.0,1,1.0,0.389699999999948
172,6,0.5,0.25,35.0,1,1.0,0.3563010000000304
173,6,0.5,0.125,-35.0,1,0.0,0.28159999999991214
174,6,0.5,0.0625,35.0,1,1.0,0.32970099999988633
175,6,0.5,1.0,35.0,1,1.0,0.2732009999999718
176,6,0.5,1.0,-35.0,-1,1.0,0.3003009999999904
177,6,0.5,0.125,35.0,1,1.0,0.25670000000002346
178,6,0.5,0.0625,-35.0,-1,1.0,0.43479999999999563
179,6,0.5,0.0,35.0,-1,0.0,0.1407009999999218
180,6,0.5,0.125,-35.0,-1,1.0,0.4009009999998625
181,6,0.5,0.125,-35.0,-1,1.0,0.33590000000003783
182,6,0.5,0.25,-35.0,-1,1.0,0.5157999999998992
183,6,0.5,0.0,35.0,1,1.0,0.3061000000000149
184,6,0.5,0.0625,35.0,1,1.0,0.320500999999922
185,6,0.5,0.0625,35.0,-1,0.0,0.15820100000007642
186,6,0.5,0.125,35.0,1,1.0,0.26959999999996853
187,6,0.5,1.0,-35.0,-1,1.0,0.3753000000000384
188,6,0.5,0.0625,-35.0,-1,1.0,0.1547009999999318
189,6,0.5,0.0,-35.0,-1,1.0,0.6436009999999897
190,6,0.5,1.0,35.0,1,1.0,0.2761000000000422
191,6,0.5,0.25,-35.0,-1,1.0,0.41220099999986815
192,6,0.5,0.125,-35.0,1,0.0,0.22139999999990323
193,6,0.5,0.125,-35.0,1,0.0,0.17440099999987524
194,6,0.5,1.0,-35.0,-1,1.0,0.09540000000004056
195,6,0.5,0.25,35.0,-1,0.0,0.24239999999997508
196,6,0.5,0.25,35.0,-1,0.0,0.31470100000001366
197,6,0.3,0.25,35.0,1,1.0,0.31149999999990996
198,6,0.5,1.0,35.0,1,1.0,0.24630099999990307
199,6,0.5,0.0,-35.0,1,0.0,0.481000999999992
200,6,0.5,0.25,35.0,1,1.0,0.25320099999999
201,6,0.5,0.25,-35.0,-1,1.0,0.5407999999998765
202,6,0.5,0.25,-35.0,-1,1.0,0.5029000000000678
203,6,0.5,1.0,-35.0,-1,1.0,0.43439999999986867
204,6,0.5,0.0625,-35.0,-1,1.0,1.076400000000035
205,6,0.5,1.0,35.0,1,1.0,0.5088009999999485
206,6,0.5,0.0625,-35.0,-1,1.0,0.12350000000003547
207,6,0.5,0.25,35.0,1,1.0,0.3862010000000282
208,6,0.5,0.0625,-35.0,-1,1.0,0.29710000000000036
209,6,0.5,1.0,35.0,1,1.0,0.24640099999999165
210,6,0.5,0.25,35.0,1,1.0,0.24070099999994454
211,6,0.5,0.25,35.0,1,1.0,0.4035000000000082
212,6,0.5,0.0625,35.0,1,1.0,0.29960000000005493
213,6,0.5,0.0,35.0,1,1.0,0.2458000000000311
214,6,0.5,0.0,-35.0,1,0.0,0.5627000000000635
215,6,0.5,0.0625,-35.0,-1,1.0,0.31720100000006823
216,6,0.5,0.125,-35.0,-1,1.0,0.5847999999998592
217,6,0.5,0.0625,-35.0,-1,1.0,0.2376000000000431
218,6,0.5,0.0625,-35.0,1,0.0,0.34780000000000655
219,6,0.5,0.0625,-35.0,-1,1.0,0.30299999999999727
220,6,0.5,0.25,-35.0,-1,1.0,0.4494009999999662
221,6,0.5,0.0,-35.0,1,0.0,0.3301999999999907
222,6,0.5,0.0625,-35.0,-1,1.0,0.3644009999999298
223,6,0.5,1.0,35.0,1,1.0,0.2896009999999478
224,6,0.5,1.0,35.0,-1,0.0,0.0948999999999387
225,6,0.5,0.25,-35.0,-1,1.0,0.43089999999995143
226,6,0.5,1.0,-35.0,-1,1.0,0.09770000000003165
227,6,0.5,0.0625,-35.0,-1,1.0,0.6607010000000173
228,6,0.5,0.25,35.0,-1,0.0,0.36619999999993524
229,6,0.5,0.25,-35.0,-1,1.0,0.16650000000004184
230,6,0.5,0.0,-35.0,-1,1.0,0.2357999999999265
231,6,0.5,0.0625,-35.0,-1,1.0,0.5668000000000575
232,6,0.5,0.125,-35.0,-1,1.0,0.4552009999999882
233,6,0.5,0.25,35.0,1,1.0,0.23670000000004165
234,6,0.5,1.0,-35.0,-1,1.0,0.22280100000000402
235,6,0.5,0.25,35.0,1,1.0,0.5836010000000442
236,6,0.5,1.0,35.0,1,1.0,0.4891010000001188
237,6,0.5,0.125,-35.0,-1,1.0,0.8204010000001745
238,6,0.5,1.0,-35.0,-1,1.0,0.07619999999997162
239,6,0.5,0.25,35.0,-1,0.0,0.09710100000006605
240,6,0.5,0.0,-35.0,1,0.0,0.269600999999966
241,6,0.5,0.125,-35.0,-1,1.0,0.31389999999987594
242,6,0.5,0.0625,35.0,-1,0.0,0.5793009999999867
243,6,0.4,0.0625,-35.0,-1,1.0,0.3206000000000131
244,6,0.5,1.0,-35.0,-1,1.0,0.13980100000003404
245,6,0.5,0.0625,-35.0,-1,1.0,0.49640099999987797
246,6,0.5,0.0625,35.0,1,1.0,0.32750099999998383
247,6,0.5,1.0,-35.0,-1,1.0,0.3328000000001339
248,6,0.5,0.0,35.0,1,1.0,2.340800000000172
249,6,0.5,0.125,-35.0,-1,1.0,0.2927999999999429
250,6,0.5,0.125,35.0,1,1.0,0.2843999999997777
251,6,0.5,0.0625,35.0,1,1.0,0.27359999999976026
252,6,0.5,0.0625,35.0,1,1.0,0.35120099999994636
253,6,0.5,1.0,-35.0,-1,1.0,0.1932000000001608
254,6,0.5,0.0625,-35.0,-1,1.0,0.3344999999999345
255,6,0.5,0.25,-35.0,-1,1.0,0.17659999999978027
256,6,0.5,0.125,35.0,1,1.0,0.36799999999993815
257,6,0.5,0.25,-35.0,-1,1.0,0.3365999999998621
258,6,0.5,1.0,-35.0,-1,1.0,0.33150000000000546
259,6,0.5,1.0,-35.0,-1,1.0,0.2937009999998281
260,6,0.5,0.0,35.0,1,1.0,1.1683000000000447
261,6,0.5,0.125,35.0,1,1.0,0.5336999999999534
262,6,0.5,1.0,-35.0,-1,1.0,0.3383010000000013
263,6,0.5,1.0,-35.0,-1,1.0,0.23020100000007915
264,6,0.5,0.125,-35.0,-1,1.0,0.355000999999902
265,6,0.5,0.25,-35.0,-1,1.0,0.24779999999987012
266,6,0.5,0.25,35.0,1,1.0,0.2953010000001086
267,6,0.5,0.25,-35.0,-1,1.0,0.49080000000003565
268,6,0.5,1.0,-35.0,-1,1.0,0.40530100000000857
269,6,0.5,0.25,-35.0,-1,1.0,0.5409010000000762
270,6,0.5,0.125,35.0,1,1.0,0.6953010000001996
271,6,0.5,1.0,-35.0,-1,1.0,0.2539009999998143
272,6,0.5,0.25,35.0,1,1.0,0.3122009999999591
273,6,0.5,0.0625,-35.0,-1,1.0,0.5679999999997563
274,6,0.5,1.0,35.0,1,1.0,0.2557009999998172
275,6,0.5,0.25,35.0,1,1.0,0.2682999999997264
276,6,0.5,0.0625,-35.0,-1,1.0,0.44240000000013424
277,6,0.5,0.125,35.0,1,1.0,0.49109999999996035
278,6,0.5,0.25,35.0,1,1.0,0.41590099999984886
279,6,0.5,0.125,-35.0,-1,1.0,0.10500000000001819
280,6,0.5,0.25,-35.0,-1,1.0,0.2859009999999671
281,6,0.5,1.0,-35.0,-1,1.0,0.47139999999990323
282,6,0.5,0.0,-35.0,-1,1.0,0.2595000000001164
283,6,0.5,0.25,35.0,1,1.0,0.2684999999999036
284,6,0.5,1.0,-35.0,-1,1.0,0.38960099999985687
285,6,0.5,0.0,35.0,-1,0.0,3.5883010000000013
286,6,0.5,0.25,-35.0,-1,1.0,0.5862999999999374
287,6,0.5,0.125,-35.0,-1,1.0,0.6283999999998287
288,6,0.5,1.0,-35.0,-1,1.0,0.2831010000002152
289,6,0.5,0.125,-35.0,-1,1.0,0.07240000000001601
290,6,0.5,1.0,-35.0,-1,1.0,0.2220999999999549
291,6,0.5,0.25,-35.0,-1,1.0,0.21659999999997126
292,6,0.5,0.0,-35.0,-1,1.0,0.43239999999991596
293,6,0.5,0.0,35.0,1,1.0,0.17010099999993145
294,6,0.5,1.0,35.0,1,1.0,0.30310099999996964
295,6,0.5,0.25,35.0,1,1.0,0.2501009999998587
296,6,0.5,0.0,-35.0,-1,1.0,0.11560099999974227
297,6,0.5,0.25,35.0,1,1.0,0.3403000000000702
298,6,0.5,0.125,35.0,-1,0.0,0.10250100000007478
299,6,0.5,0.25,35.0,1,1.0,0.11370099999999184
300,6,0.5,0.125,35.0,1,1.0,0.28260100000011334
301,6,0.5,1.0,35.0,1,1.0,0.40039999999976317
302,6,0.5,0.0625,-35.0,-1,1.0,0.3827000000001135
303,6,0.5,0.0625,35.0,1,1.0,0.29060100000015154
304,6,0.5,1.0,-35.0,-1,1.0,0.5292000000001735
305,6,0.5,0.125,35.0,1,1.0,0.2741009999999733
306,6,0.5,0.0625,35.0,1,1.0,0.5132009999999809
307,6,0.5,0.0,-35.0,-1,1.0,0.23069999999984248
308,6,0.5,0.25,-35.0,-1,1.0,0.37000000000011823
309,6,0.5,1.0,35.0,1,1.0,0.3243009999998776
310,6,0.5,0.125,-35.0,-1,1.0,0.36979999999994106
311,6,0.5,0.0625,35.0,1,1.0,0.7476999999998952
312,6,0.5,0.0625,-35.0,1,0.0,0.08690000000024156
313,6,0.5,0.125,-35.0,-1,1.0,0.44450099999994563
314,6,0.5,0.0625,-35.0,1,0.0,0.21359999999981483
315,6,0.5,0.0625,35.0,1,1.0,0.3913000000000011
316,6,0.5,0.125,-35.0,-1,1.0,0.33990099999982704
317,6,0.5,0.0625,35.0,1,1.0,0.2746999999999389
318,6,0.5,1.0,-35.0,-1,1.0,0.5135000000000218
319,6,0.5,0.125,35.0,1,1.0,0.43810000000007676
320,6,0.5,0.125,-35.0,-1,1.0,0.45370000000025357
321,6,0.5,0.25,-35.0,-1,1.0,0.4751009999999951
322,6,0.5,1.0,-35.0,-1,1.0,0.4104010000000926
323,6,0.5,0.0625,35.0,1,1.0,2.3818999999998596
324,6,0.5,0.125,35.0,1,1.0,0.3744000000001506
325,6,0.5,0.0625,35.0,1,1.0,0.3987999999999374
326,6,0.5,0.125,35.0,1,1.0,0.5072999999999865
327,6,0.5,0.0625,-35.0,-1,1.0,0.5322010000002138
328,6,0.5,0.125,35.0,1,1.0,0.44420100000002094
329,6,0.5,0.25,-35.0,1,0.0,0.3754999999998745
330,6,0.5,0.0625,-35.0,-1,1.0,0.48129999999991924
331,6,0.5,1.0,35.0,1,1.0,0.555699999999888
332,6,0.5,0.0625,-35.0,-1,1.0,0.40840099999991253
333,6,0.5,0.125,35.0,1,1.0,0.24919999999997344
334,6,0.5,0.0625,35.0,1,1.0,0.6313999999997577
335,6,0.5,0.25,35.0,1,1.0,0.25919999999996435
336,6,0.5,0.0,-35.0,1,0.0,0.2314010000000053
337,6,0.5,0.125,35.0,1,1.0,0.31280199999991964
338,6,0.5,0.0,-35.0,-1,1.0,3.3716020000001663
339,6,0.5,0.0625,-35.0,1,0.0,0.659601000000066
340,6,0.5,0.25,-35.0,-1,1.0,0.3885009999999056
341,6,0.5,1.0,-35.0,-1,1.0,0.39630099999976665
342,6,0.5,0.25,-35.0,-1,1.0,0.6386019999999917
343,6,0.5,0.25,-35.0,-1,1.0,0.3566019999998389
344,6,0.5,0.0625,-35.0,-1,1.0,0.4918009999998958
345,6,0.5,0.0625,-35.0,-1,1.0,0.4398020000000997
346,6,0.5,0.25,35.0,1,1.0,0.31220200000007026
347,6,0.5,1.0,-35.0,-1,1.0,0.27670100000000275
348,6,0.5,0.25,-35.0,-1,1.0,0.22570100000007187
349,6,0.5,1.0,35.0,1,1.0,0.20350099999996019
350,6,0.5,0.0625,35.0,1,1.0,0.23560200000019904
351,6,0.5,0.25,35.0,1,1.0,0.4569010000000162
352,6,0.5,0.125,-35.0,-1,1.0,0.4729019999999764
353,6,0.5,1.0,35.0,-1,0.0,0.13390099999992344
354,6,0.5,0.125,35.0,1,1.0,0.45220100000005914
355,6,0.5,0.125,-35.0,-1,1.0,0.5472019999999702
356,6,0.5,0.125,35.0,1,1.0,0.3993009999999231
357,6,0.5,1.0,-35.0,-1,1.0,0.10720200000014302
358,6,0.5,0.0625,35.0,1,1.0,0.27000199999997676
359,6,0.5,0.0,35.0,-1,0.0,0.12060100000007878
360,6,0.5,0.0,35.0,1,1.0,0.3062009999998736
361,6,0.5,1.0,35.0,1,1.0,0.31740100000001803
362,6,0.5,0.125,-35.0,-1,1.0,0.3062009999998736
363,6,0.5,0.0,35.0,1,1.0,0.3942019999999502
364,6,0.5,0.0625,-35.0,-1,1.0,0.126301999999896
365,6,0.5,0.125,35.0,-1,0.0,0.547600999999986
366,6,0.5,0.25,-35.0,-1,1.0,0.40980100000001585
367,6,0.5,0.0625,-35.0,-1,1.0,0.13100200000008044
368,6,0.5,1.0,35.0,1,1.0,0.29110100000002603
369,6,0.5,1.0,35.0,-1,0.0,0.1802020000000084
370,6,0.5,0.0625,35.0,-1,0.0,0.35140100000012353
371,6,0.5,0.25,35.0,-1,0.0,0.5367009999999937
372,6,0.5,0.0625,-35.0,-1,1.0,0.34810099999981503
373,6,0.5,0.125,-35.0,-1,1.0,0.34010200000011537
374,6,0.5,1.0,35.0,1,1.0,0.3514020000000073
375,6,0.5,0.125,-35.0,1,0.0,0.2004020000001674
376,6,0.5,0.0,35.0,1,1.0,0.3516010000000733
377,6,0.5,1.0,35.0,1,1.0,0.24700099999995473
378,6,0.5,0.125,-35.0,-1,1.0,0.341801999999916
379,6,0.5,0.0,-35.0,-1,1.0,0.33390099999974154
380,6,0.5,0.0625,-35.0,-1,1.0,0.21840099999985796
381,6,0.5,0.0625,-35.0,-1,1.0,0.4705020000001241
382,6,0.5,0.0625,35.0,-1,0.0,0.3051020000000335
383,6,0.5,0.0625,35.0,1,1.0,0.2875020000001314
384,6,0.5,0.25,-35.0,-1,1.0,0.3253019999999651
385,6,0.5,0.25,-35.0,-1,1.0,0.5117009999999027
386,6,0.5,0.0,-35.0,1,0.0,0.3187009999999191
387,6,0.5,0.125,35.0,1,1.0,0.31080100000008315
388,6,0.5,0.0,35.0,1,1.0,0.43220100000007733
389,6,0.5,1.0,35.0,1,1.0,0.2676019999998971
390,6,0.5,0.125,35.0,1,1.0,0.31890199999998003
391,6,0.5,0.0625,-35.0,-1,1.0,0.38130200000000514
392,6,0.5,0.125,35.0,1,1.0,0.245801999999685
393,6,0.5,0.0625,35.0,1,1.0,0.42780100000004495
394,6,0.5,1.0,-35.0,-1,1.0,0.20920200000000477
395,6,0.5,0.0,35.0,-1,0.0,0.11830100000020138
396,6,0.5,0.0625,35.0,1,1.0,0.3160009999999147
397,6,0.5,0.25,35.0,1,1.0,0.4019020000000637
398,6,0.5,0.125,35.0,1,1.0,0.35600200000021687
399,6,0.5,0.25,35.0,1,1.0,0.32490099999995437
400,6,0.5,1.0,35.0,1,1.0,0.27280100000007224
401,6,0.5,0.0625,-35.0,-1,1.0,0.15580099999988306
402,6,0.5,0.125,-35.0,-1,1.0,1.0062019999998029
403,6,0.5,1.0,35.0,1,1.0,0.27490099999999984
404,6,0.5,1.0,35.0,1,1.0,0.2664009999998598
405,6,0.5,0.125,-35.0,1,0.0,0.11200099999996382
406,6,0.5,0.0625,-35.0,-1,1.0,0.1297020000001794
407,6,0.5,1.0,-35.0,-1,1.0,0.44830099999990125
408,6,0.5,1.0,-35.0,-1,1.0,0.4767010000000482
409,6,0.5,0.0,-35.0,1,0.0,0.29310199999986253
410,6,0.5,0.0625,35.0,1,1.0,0.29660100000000966
411,6,0.5,0.125,35.0,1,1.0,0.2787020000000666
412,6,0.5,0.125,35.0,1,1.0,0.2855019999999513
413,6,0.5,0.125,35.0,1,1.0,0.27680099999997765
414,6,0.5,1.0,-35.0,-1,1.0,0.7291009999999005
415,6,0.5,0.0,-35.0,1,0.0,0.08010199999989709
416,6,0.5,0.25,35.0,1,1.0,0.21900099999993472
417,6,0.5,1.0,-35.0,-1,1.0,0.4404019999999491
418,6,0.5,0.0,-35.0,1,0.0,0.2327020000000175
419,6,0.5,0.125,35.0,-1,0.0,0.0905009999999038
420,6,0.5,0.125,35.0,1,1.0,0.256300999999894
421,6,0.5,0.125,-35.0,-1,1.0,3.074000999999953
422,6,0.5,0.0625,35.0,1,1.0,0.4627020000000357
423,6,0.5,0.0,35.0,1,1.0,0.6041020000000117
424,6,0.5,0.0625,35.0,1,1.0,0.29010199999993347
425,6,0.5,0.125,35.0,1,1.0,0.32070199999998295
426,6,0.5,0.25,35.0,-1,0.0,0.10950100000013663
427,6,0.5,0.0625,35.0,1,1.0,0.2708020000000033
428,6,0.5,0.125,35.0,1,1.0,0.2495010000000093
429,6,0.5,0.25,35.0,1,1.0,0.25420200000007753
430,6,0.5,0.0625,35.0,1,1.0,0.32050200000003315
431,6,0.5,0.0,-35.0,-1,1.0,0.0844009999998434
432,6,0.5,1.0,-35.0,-1,1.0,0.17310100000008788
433,6,0.5,1.0,-35.0,-1,1.0,0.4244019999998727
434,6,0.5,0.25,-35.0,-1,1.0,0.44000199999982215
435,6,0.5,1.0,35.0,1,1.0,0.3446010000000115
436,6,0.5,0.25,-35.0,1,0.0,0.8942010000000664
437,6,0.6,0.25,35.0,1,1.0,0.2914019999998345
438,6,0.5,1.0,-35.0,-1,1.0,0.4437009999999191
439,6,0.5,0.25,35.0,1,1.0,0.3081019999997352
440,6,0.5,0.125,35.0,1,1.0,0.26060099999995145
441,6,0.5,0.125,-35.0,1,0.0,0.46170199999983197
442,6,0.5,0.25,35.0,1,1.0,0.29420100000015736
443,6,0.5,0.0625,35.0,1,1.0,0.26170200000001387
444,6,0.5,1.0,35.0,1,1.0,0.27740099999982704
445,6,0.5,0.25,35.0,1,1.0,0.27190200000018194
446,6,0.5,0.125,-35.0,-1,1.0,0.26380200000016885
447,6,0.5,0.0,-35.0,1,0.0,0.6552010000000337
448,6,0.5,0.25,-35.0,-1,1.0,0.11400099999991653
449,6,0.5,0.0,35.0,-1,0.0,2.7787020000000666
450,6,0.5,0.125,-35.0,-1,1.0,0.43790199999989454
451,6,0.5,0.125,-35.0,-1,1.0,0.639100999999755
452,6,0.5,0.0625,-35.0,-1,1.0,0.2880010000001221
453,6,0.5,0.25,35.0,1,1.0,0.28900099999987106
454,6,0.5,0.25,-35.0,-1,1.0,0.471201999999721
455,6,0.5,0.125,35.0,1,1.0,0.3358009999999467
456,6,0.5,0.25,-35.0,-1,1.0,0.5251019999998334
457,6,0.5,0.125,35.0,1,1.0,0.2958019999998669
458,6,0.5,0.125,-35.0,-1,1.0,0.5411009999997987
459,6,0.5,0.0625,-35.0,-1,1.0,1.52590199999986
460,6,0.5,0.0625,35.0,1,1.0,0.3114020000000437
461,6,0.5,0.0,35.0,-1,0.0,3.7094009999998434
462,6,0.5,0.0625,-35.0,1,0.0,0.33520100000009734
463,6,0.5,0.0625,35.0,1,1.0,0.3395020000000386
464,6,0.5,1.0,35.0,1,1.0,0.29850200000009863
465,6,0.5,0.25,35.0,1,1.0,0.2596019999998589
466,6,0.5,1.0,35.0,1,1.0,0.205201999999872
467,6,0.5,1.0,-35.0,-1,1.0,0.5066019999999298
468,6,0.5,1.0,35.0,1,1.0,0.2488020000000688
469,6,0.5,1.0,-35.0,1,0.0,0.0898019999999633
470,6,0.8,1.0,-35.0,-1,1.0,0.4952009999999518
471,6,0.5,1.0,-35.0,-1,1.0,0.45990099999994527
472,6,0.5,1.0,35.0,1,1.0,0.25870099999997365
473,6,0.5,0.0625,-35.0,-1,1.0,1.1368009999998776
474,6,0.5,0.125,-35.0,-1,1.0,0.8428010000000086
475,6,0.5,1.0,-35.0,-1,1.0,0.4568010000000413
476,6,0.5,0.0625,35.0,1,1.0,0.20650199999977303
477,6,0.5,0.125,35.0,1,1.0,0.26040100000000166
478,6,0.5,0.125,-35.0,1,0.0,0.7057019999997465
479,6,0.5,0.125,-35.0,1,0.0,0.6404010000001108
480,6,0.5,0.125,-35.0,-1,1.0,0.32660200000009354
481,6,0.5,1.0,-35.0,-1,1.0,0.4705020000001241
482,6,0.5,1.0,35.0,1,1.0,0.27590199999986
483,6,0.5,0.125,-35.0,-1,1.0,0.5306020000002718
484,6,0.5,0.0625,35.0,1,1.0,0.30030200000010154
485,6,0.5,0.125,-35.0,-1,1.0,0.3041009999997186
486,6,0.5,0.125,35.0,1,1.0,0.3194020000000819
487,6,0.5,0.125,-35.0,-1,1.0,0.48760200000015175
488,6,0.5,0.0625,35.0,1,1.0,0.26650199999994584
489,6,0.5,1.0,-35.0,-1,1.0,0.26760200000035184
490,6,0.5,1.0,35.0,1,1.0,0.28980100000035236
491,6,0.5,0.125,35.0,1,1.0,0.2710010000000693
492,6,0.5,0.25,-35.0,-1,1.0,0.24630200000046898
493,6,0.5,0.0625,35.0,1,1.0,0.4745010000001457
494,6,0.5,0.0625,-35.0,-1,1.0,1.1001010000004499
495,6,0.5,0.125,35.0,1,1.0,0.29790100000036546
496,6,0.5,0.0625,-35.0,1,0.0,0.8635020000001532
497,6,0.6,0.0625,35.0,1,1.0,0.2847010000004957
498,6,0.5,1.0,-35.0,-1,1.0,0.5209010000003218
499,6,0.5,0.25,-35.0,-1,1.0,0.4649010000002818
500,6,0.5,1.0,-35.0,-1,1.0,0.5635010000000875
501,6,0.5,0.125,-35.0,-1,1.0,0.48500100000046587
502,6,0.5,0.125,35.0,1,1.0,0.3111010000002352
503,6,0.5,1.0,35.0,1,1.0,0.44160200000033
504,6,0.5,0.125,35.0,1,1.0,0.32360100000050807
505,6,0.5,0.125,-35.0,-1,1.0,0.3617020000001503
506,6,0.5,0.25,-35.0,-1,1.0,0.843902000000071
507,6,0.5,0.25,-35.0,1,0.0,0.3453010000002905
508,6,0.4,0.25,35.0,1,1.0,0.5212010000000191
509,6,0.5,1.0,35.0,1,1.0,0.2552009999999427
510,6,0.5,0.125,-35.0,1,0.0,0.15750100000013845
511,6,0.5,0.125,-35.0,-1,1.0,0.49210100000027523
512,6,0.5,0.25,-35.0,1,0.0,0.4607019999998556
513,6,0.5,0.0,35.0,1,1.0,0.4321010000003298
514,6,0.5,0.0,-35.0,-1,1.0,0.4443020000003344
515,6,0.5,1.0,35.0,1,1.0,0.49550200000021505
516,6,0.5,1.0,35.0,1,1.0,0.3443019999999706
517,6,0.5,1.0,-35.0,-1,1.0,0.6491020000003118
518,6,0.5,0.0625,35.0,1,1.0,0.3414020000000164
519,6,0.5,0.0,35.0,1,1.0,0.40570100000013554
520,6,0.5,0.125,35.0,1,1.0,0.2785020000001168
521,6,0.5,1.0,-35.0,-1,1.0,0.49930200000017066
522,6,0.5,0.25,-35.0,-1,1.0,0.4014010000005328
523,6,0.5,0.25,35.0,1,1.0,0.29590200000029654
524,6,0.5,0.0625,35.0,1,1.0,0.2782020000004195
525,6,0.5,0.0625,-35.0,1,0.0,0.2594010000002527
526,6,0.5,0.125,-35.0,-1,1.0,0.538101000000097
527,6,0.5,0.125,-35.0,-1,1.0,0.5528020000001561
528,6,0.5,0.0625,-35.0,-1,1.0,0.55920100000003
529,6,0.5,1.0,35.0,1,1.0,0.25290099999983795
530,6,0.5,0.0625,35.0,-1,0.0,0.15250200000036784
531,6,0.4,0.0625,-35.0,1,0.0,0.9596019999999044
532,6,0.5,1.0,35.0,1,1.0,0.26840100000026723
533,6,0.5,1.0,-35.0,-1,1.0,0.4699009999999362
534,6,0.5,0.0,35.0,-1,0.0,3.2057020000002012
535,6,0.5,0.0625,-35.0,-1,1.0,0.6966010000001006
536,6,0.5,0.0,35.0,1,1.0,0.30560200000036275
537,6,0.5,0.125,35.0,1,1.0,0.28340100000059465
538,6,0.5,0.125,-35.0,-1,1.0,0.6297009999998409
539,6,0.5,0.0625,-35.0,-1,1.0,0.45020100000010643
540,6,0.5,0.125,-35.0,-1,1.0,0.3922010000001137
541,6,0.5,1.0,35.0,1,1.0,0.30360200000041004
542,6,0.5,1.0,35.0,1,1.0,0.2389020000000528
543,6,0.5,0.0625,35.0,1,1.0,0.28040099999998347
544,6,0.5,0.0,35.0,1,1.0,1.5729019999998854
545,6,0.5,0.0,35.0,1,1.0,0.2939019999998891
546,6,0.5,1.0,-35.0,1,0.0,0.455902000000151
547,6,0.5,0.0625,-35.0,-1,1.0,1.627201000000241
548,6,0.5,1.0,35.0,1,1.0,0.32310099999995145
549,6,0.5,0.25,-35.0,-1,1.0,0.5275020000003678
550,6,0.5,0.0625,-35.0,-1,1.0,0.39960199999995893
551,6,0.5,0.0,35.0,1,1.0,0.35090100000024904
552,6,0.5,0.0,-35.0,1,0.0,0.24630200000001423
553,6,0.5,0.125,35.0,1,1.0,0.40100100000017846
554,6,0.5,0.0625,-35.0,1,0.0,0.5032020000003286
555,6,0.5,0.25,35.0,1,1.0,0.2045010000001639
556,6,0.5,0.125,-35.0,1,0.0,0.7672019999999975
557,6,0.5,0.25,35.0,1,1.0,0.3212020000000848
558,6,0.5,0.25,35.0,1,1.0,0.3301010000000133
559,6,0.5,0.0625,35.0,1,1.0,0.36450200000035693
560,6,0.5,0.0625,-35.0,1,0.0,0.3473009999997885
561,6,0.5,0.0625,35.0,1,1.0,0.2481010000005881
562,6,0.5,0.0625,35.0,1,1.0,0.4039020000000164
563,6,0.5,0.25,35.0,1,1.0,0.34810100000049715
564,6,0.5,1.0,-35.0,1,0.0,3.087402000000111
565,6,0.5,0.0,35.0,-1,0.0,0.37170200000036857
566,6,0.5,0.125,-35.0,-1,1.0,0.2937010000000555
567,6,0.5,0.0,-35.0,-1,1.0,3.7385010000002694
568,6,0.5,1.0,-35.0,-1,1.0,0.5011020000001736
569,6,0.5,1.0,35.0,1,1.0,0.3618010000004688
570,6,0.5,0.125,35.0,1,1.0,0.34150099999988015
571,6,0.5,0.125,35.0,1,1.0,0.3087010000003829
572,6,0.5,0.0,-35.0,1,0.0,0.3307009999998627
573,6,0.5,0.0625,35.0,1,1.0,0.24880099999973027
574,6,0.5,0.25,-35.0,-1,1.0,0.2646020000001954
575,6,0.5,0.125,35.0,1,1.0,0.8321010000004208
576,6,0.5,0.125,-35.0,1,0.0,0.4341020000001663
577,6,0.7,0.125,-35.0,-1,1.0,0.6822010000000773
578,6,0.5,1.0,-35.0,-1,1.0,0.4811020000006465
579,6,0.5,0.125,35.0,1,1.0,0.4590010000001712
580,6,0.5,0.25,35.0,1,1.0,1.2510010000000875
581,6,0.5,1.0,-35.0,-1,1.0,1.1859009999998307
582,6,0.5,0.0625,-35.0,1,0.0,0.37880200000017794
583,6,0.5,0.25,35.0,1,1.0,0.29260199999998804
584,6,0.5,0.0625,35.0,1,1.0,0.2848010000002432
585,6,0.5,0.0625,-35.0,-1,1.0,0.3728009999999813
586,6,0.5,1.0,-35.0,-1,1.0,0.49880099999973027
587,6,0.5,1.0,-35.0,-1,1.0,0.3328020000003562
588,6,0.5,0.0625,35.0,1,1.0,0.3150010000003931
589,6,0.5,0.0625,-35.0,-1,1.0,4.556301000000531
590,6,0.5,0.125,35.0,1,1.0,0.39510199999995166
591,6,0.5,0.0625,35.0,1,1.0,0.32290199999988545
592,6,0.5,0.25,-35.0,-1,1.0,0.5751010000003589
593,6,0.5,0.0,-35.0,1,0.0,1.0331009999999878
594,6,0.5,0.125,35.0,1,1.0,0.3493010000001959
595,6,0.5,0.0625,35.0,1,1.0,0.27000200000020413
596,6,0.5,1.0,-35.0,-1,1.0,0.5090010000003531
597,6,0.5,0.125,35.0,1,1.0,0.35670200000004115
598,6,0.5,1.0,35.0,1,1.0,0.2521010000004935
599,6,0.5,0.0625,-35.0,-1,1.0,0.7301010000001042
600,6,0.5,0.0625,-35.0,-1,1.0,0.41610099999979866
601,6,0.5,1.0,35.0,1,1.0,2.826802000000498
602,6,0.5,0.125,35.0,1,1.0,3.655602000000272
603,6,0.5,0.0625,-35.0,1,0.0,0.7737010000000737
604,6,0.7,0.0625,35.0,1,1.0,0.33330200000045807
605,6,0.5,1.0,-35.0,-1,1.0,0.6472010000002228
606,6,0.5,0.125,35.0,1,1.0,0.416302000000087
607,6,0.5,0.0625,-35.0,1,0.0,0.3306020000004537
608,6,0.7,0.0625,-35.0,1,0.0,0.2464020000002165
609,6,0.5,1.0,35.0,1,1.0,0.34420100000033926
610,6,0.5,0.25,35.0,1,1.0,0.2862020000002303
611,6,0.5,0.0625,-35.0,-1,1.0,32.910901000000194
612,6,0.5,0.25,-35.0,-1,1.0,0.41720200000008845
613,6,0.5,0.25,-35.0,-1,1.0,0.6514010000005328
614,6,0.5,0.125,35.0,1,1.0,2.30060100000037
615,6,0.5,0.25,35.0,1,1.0,0.7148010000005343
616,6,0.5,0.125,-35.0,-1,1.0,6.090202000000318
617,6,0.5,0.125,-35.0,-1,1.0,0.7149010000002818
618,6,0.5,0.25,35.0,1,1.0,0.49070100000062666
619,6,0.5,0.125,-35.0,-1,1.0,0.38190200000053665
620,6,0.5,0.0625,-35.0,-1,1.0,0.5142009999999573
621,6,0.5,1.0,-35.0,-1,1.0,0.43190099999992526
622,6,0.5,1.0,35.0,1,1.0,0.6940009999998438
623,6,0.5,0.25,35.0,1,1.0,0.6352019999999357
624,6,0.5,0.25,35.0,1,1.0,0.30720100000007733
625,6,0.5,1.0,35.0,1,1.0,0.2420020000004115
626,6,0.5,1.0,35.0,1,1.0,0.37100199999986216
627,6,0.5,0.25,-35.0,-1,1.0,0.45880100000067614
628,6,0.5,1.0,-35.0,-1,1.0,0.16750100000035673
629,6,0.5,1.0,35.0,1,1.0,0.26220100000000457
630,6,0.5,0.125,-35.0,-1,1.0,0.5412010000004557
631,6,0.5,0.25,35.0,1,1.0,0.405601000000388
632,6,0.5,0.125,-35.0,-1,1.0,0.7980009999996582
633,6,0.5,0.125,35.0,-1,0.0,0.6724010000002636
634,6,0.5,0.0,-35.0,1,0.0,0.34530099999983577
635,6,0.5,0.25,-35.0,-1,1.0,0.4026010000002316
636,6,0.5,0.25,35.0,1,1.0,0.34500100000013845
637,6,0.5,1.0,35.0,1,1.0,2.2960009999997055
638,6,0.5,0.0625,-35.0,-1,1.0,1.6422010000001137
639,6,0.5,0.0625,-35.0,-1,1.0,0.35610200000019177
640,6,0.5,1.0,-35.0,-1,1.0,0.26840100000026723
641,6,0.5,0.0625,-35.0,-1,1.0,7.869602000000214
642,6,0.5,0.0,-35.0,-1,1.0,0.7853010000003451
643,6,0.5,0.25,35.0,1,1.0,0.6298019999999269
644,6,0.5,0.0625,35.0,1,1.0,0.3489009999998416
645,6,0.5,0.0625,-35.0,1,0.0,0.586601000000428
646,6,0.5,0.0,-35.0,-1,1.0,4.779402000000573
647,6,0.5,1.0,35.0,1,1.0,0.3034020000000055
648,6,0.5,0.25,35.0,1,1.0,3.365502000000106
649,6,0.5,0.25,-35.0,-1,1.0,0.9368010000002869
650,6,0.5,0.25,35.0,1,1.0,3.7331010000002607
651,6,0.5,0.0,35.0,1,1.0,0.367102000000159
652,6,0.5,0.25,-35.0,-1,1.0,0.5365010000000439
653,6,0.5,1.0,35.0,1,1.0,0.2971010000001115
654,6,0.5,0.125,35.0,1,1.0,2.6392009999999573
655,6,0.5,0.25,-35.0,-1,1.0,0.2806020000002718
656,6,0.5,0.0625,35.0,1,1.0,0.48960100000022067
657,6,0.5,0.125,-35.0,-1,1.0,0.3208009999998467
658,6,0.5,1.0,-35.0,-1,1.0,1.0797010000005685
659,6,0.5,0.125,35.0,1,1.0,3.904101000000537
660,6,0.5,0.0,35.0,-1,0.0,1.6469020000004093
661,6,0.5,0.25,35.0,1,1.0,0.31770100000039747
662,6,0.5,0.125,-35.0,-1,1.0,0.579801000000316
663,6,0.5,1.0,35.0,1,1.0,0.5212010000004739
664,6,0.5,0.0625,35.0,1,1.0,1.4369010000000344
665,6,0.5,0.125,-35.0,1,0.0,2.0745010000005095
666,6,0.6,0.125,-35.0,-1,1.0,1.7075009999998656
667,6,0.5,1.0,-35.0,-1,1.0,0.28800200000023324
668,6,0.5,0.25,-35.0,-1,1.0,0.7970020000002478
669,6,0.5,0.0625,-35.0,-1,1.0,6.778101000000333
670,6,0.5,0.25,35.0,1,1.0,0.36710100000027523
671,6,0.5,0.25,35.0,1,1.0,0.7449020000003657
672,6,0.5,0.125,-35.0,-1,1.0,0.9571020000003045
673,6,0.5,0.25,35.0,1,1.0,0.4151010000000497
674,6,0.5,1.0,-35.0,-1,1.0,0.19140199999992547
675,6,0.5,0.0625,-35.0,-1,1.0,4.098500999999942
676,6,0.5,1.0,-35.0,-1,1.0,0.4742020000003322
677,6,0.5,0.0625,35.0,-1,0.0,9.41870199999994
678,6,0.5,0.25,-35.0,-1,1.0,0.4848010000000613
679,6,0.5,1.0,-35.0,-1,1.0,0.3488020000004326
680,6,0.5,0.125,-35.0,-1,1.0,1.618601000000126
681,6,0.5,1.0,-35.0,-1,1.0,0.32900100000006205
682,6,0.5,0.125,35.0,-1,0.0,1.567500999999993
683,6,0.1,0.125,35.0,-1,0.0,8.239102000000003
684,6,0.5,1.0,35.0,-1,0.0,12.748101000000133
685,6,0.5,0.25,-35.0,-1,1.0,2.816302000000178
686,6,0.5,0.0625,-35.0,-1,1.0,6.901702000000114
687,6,0.5,0.0625,-35.0,1,0.0,4.7232020000001285
688,6,0.5,0.0625,-35.0,-1,1.0,13.01870100000042
689,6,0.5,0.125,35.0,1,1.0,4.693401999999878
690,6,0.5,0.125,35.0,1,1.0,7.559501000000182
691,6,0.5,0.0625,-35.0,-1,1.0,4.197102000000086
692,6,0.5,0.125,35.0,1,1.0,8.436101000000235
693,6,0.5,0.125,-35.0,-1,1.0,2.8839020000004894
694,6,0.5,0.25,-35.0,-1,1.0,0.6300020000003315
695,6,0.5,0.25,35.0,1,1.0,0.29400100000020757
696,6,0.5,0.0625,-35.0,-1,1.0,0.6665020000000368
697,6,0.5,0.125,35.0,1,1.0,6.194201000000248
698,6,0.5,0.0625,35.0,1,1.0,1.593101000000388
699,6,0.5,0.125,35.0,1,1.0,0.43440200000031837
700,6,0.5,1.0,35.0,1,1.0,0.27660100000002785
701,6,0.5,0.25,-35.0,-1,1.0,0.45780100000001767
702,6,0.5,0.25,-35.0,-1,1.0,0.44700100000045495
703,6,0.5,1.0,35.0,1,1.0,0.2945009999998547
704,6,0.5,1.0,-35.0,-1,1.0,0.2973019999999451
705,6,0.5,0.0625,-35.0,1,0.0,1.004601000000548
706,6,0.5,0.125,35.0,1,1.0,0.2941009999999551
707,6,0.5,0.0,35.0,-1,0.0,4.1081020000001445
708,6,0.5,0.0625,35.0,1,1.0,11.03390200000058
709,6,0.5,0.25,35.0,1,1.0,4.368401000000176
710,6,0.5,0.125,-35.0,1,0.0,7.870501000000331
711,6,0.5,0.0625,-35.0,1,0.0,12.778701000000183
712,6,0.5,0.25,-35.0,-1,1.0,7.948401000000558
713,6,0.5,0.0625,35.0,1,1.0,3.3125010000003385
714,6,0.5,1.0,-35.0,1,0.0,3.2278009999999995
715,6,0.8,1.0,-35.0,-1,1.0,0.2561010000003989
716,6,0.5,1.0,-35.0,-1,1.0,0.4248020000004544
717,6,0.5,0.0625,35.0,1,1.0,1.0928020000001197
718,6,0.5,0.0625,-35.0,1,0.0,2.088901000000078
719,6,0.5,0.0625,35.0,-1,0.0,4.739601000000221
720,6,0.5,0.25,-35.0,-1,1.0,0.6222010000001319
721,6,0.5,0.0625,35.0,-1,0.0,0.6864009999999325
722,6,0.5,0.0625,35.0,1,1.0,0.42530200000010154
723,6,0.5,0.125,35.0,-1,0.0,0.9199020000005476
724,6,0.4,0.125,35.0,1,1.0,0.4091020000005301
725,6,0.5,1.0,-35.0,-1,1.0,0.2801019999997152
726,6,0.5,0.0625,-35.0,1,0.0,1.0061009999999442
727,6,0.5,0.0625,-35.0,1,0.0,6.003402000000278
728,6,0.5,0.0,-35.0,1,0.0,3.3857010000001537
729,6,0.5,0.0,-35.0,1,0.0,27.297002000000248
730,6,0.5,1.0,35.0,1,1.0,0.28960100000040256
731,6,0.5,0.25,-35.0,-1,1.0,1.9175020000002405
732,6,0.5,0.0,-35.0,-1,1.0,11.94980200000009
733,6,0.5,0.0625,35.0,-1,0.0,7.547801000000163
734,6,0.5,0.25,35.0,1,1.0,0.24660099999982776
735,6,0.5,0.0625,35.0,-1,0.0,48.85140100000035
736,6,0.5,0.0625,35.0,-1,0.0,4.160902000000078
737,6,0.5,0.125,-35.0,1,0.0,15.409100999999737
738,6,0.5,0.25,-35.0,-1,1.0,34.088202000000365
739,6,0.5,0.0625,35.0,1,1.0,8.53300100000024
740,6,0.5,0.125,-35.0,-1,1.0,5.9954020000004675
741,6,0.5,1.0,35.0,1,1.0,0.38320100000009916
742,6,0.5,1.0,35.0,1,1.0,0.28970100000060484
743,6,0.5,0.0625,35.0,-1,0.0,0.7333020000000943
744,6,0.5,0.0,35.0,1,1.0,9.782102000000123
745,6,0.5,0.125,35.0,1,1.0,7.180302000000211
746,6,0.5,0.0625,-35.0,1,0.0,1.306402000000162
747,6,0.5,0.125,35.0,1,1.0,4.953802000000451
748,6,0.5,1.0,35.0,1,1.0,0.24310200000036275
749,6,0.5,0.125,-35.0,-1,1.0,0.7942020000000412
750,6,0.5,0.125,-35.0,1,0.0,8.542801000000054
751,6,0.5,0.0625,35.0,1,1.0,5.674402000000555
752,6,0.5,1.0,-35.0,-1,1.0,0.45680100000072343
753,6,0.5,1.0,-35.0,-1,1.0,0.8445020000003751
754,6,0.5,0.125,-35.0,1,0.0,5.243401000000631
755,6,0.7,0.125,-35.0,1,0.0,7.601402000000235
756,6,0.5,1.0,-35.0,-1,1.0,0.25720200000023397
757,6,0.5,0.25,-35.0,-1,1.0,15.528302000000167
758,6,0.5,0.125,35.0,1,1.0,0.4906010000004244
759,6,0.5,0.125,35.0,1,1.0,0.33850100000017846
760,6,0.5,0.125,-35.0,-1,1.0,1.5381010000005517
761,6,0.5,0.125,-35.0,1,0.0,1.122201000000132
762,6,0.5,0.0,35.0,-1,0.0,0.3112020000003213
763,6,0.5,0.0625,-35.0,-1,1.0,0.43560100000013335
764,6,0.5,0.0625,-35.0,-1,1.0,0.39120099999991
765,6,0.5,0.25,35.0,1,1.0,0.2557019999999284
766,6,0.5,1.0,35.0,1,1.0,0.2746010000005299
767,6,0.5,0.25,-35.0,-1,1.0,0.3124020000004748
768,6,0.5,1.0,-35.0,-1,1.0,0.48130200000014156
769,6,0.5,0.0625,-35.0,1,0.0,4.049202000000605
770,6,0.5,0.25,-35.0,-1,1.0,2.69830200000024
771,6,0.5,0.125,-35.0,-1,1.0,3.2328010000005634
772,6,0.5,0.0625,-35.0,1,0.0,1.5550010000001748
773,6,0.5,0.0,35.0,1,1.0,3.6163010000000213
774,6,0.5,0.125,35.0,1,1.0,0.2685020000003533
775,6,0.5,0.125,-35.0,-1,1.0,1.60640100000046
776,6,0.5,0.125,35.0,1,1.0,0.2952020000002449
777,6,0.5,0.0625,35.0,1,1.0,0.3199010000003
778,6,0.5,1.0,-35.0,-1,1.0,1.4527020000000448
779,6,0.5,1.0,-35.0,-1,1.0,0.28670199999987744
780,6,0.5,0.25,-35.0,-1,1.0,5.092701000000488
781,6,0.5,0.25,-35.0,-1,1.0,5.01350100000036
782,6,0.5,1.0,-35.0,1,0.0,0.7796020000000681
783,6,0.5,1.0,-35.0,-1,1.0,0.2838010000000395
784,6,0.5,1.0,35.0,1,1.0,0.2592010000003029
785,6,0.5,0.25,-35.0,1,0.0,3.6839020000006713
786,6,0.5,0.125,35.0,1,1.0,4.026002000000517
787,6,0.5,0.0625,35.0,1,1.0,18.527402000000166
788,6,0.5,0.0,35.0,-1,0.0,15.223101000000497
789,6,0.5,0.125,-35.0,-1,1.0,1.5112020000001394
790,6,0.5,1.0,-35.0,-1,1.0,0.280402000000322
791,6,0.5,0.0,-35.0,-1,1.0,1.1983020000002398
792,6,0.5,0.25,-35.0,-1,1.0,5.597101000000293
793,6,0.5,0.0625,35.0,-1,0.0,11.515001000000211
