trial_num,session_num,stim_probability_left,contrast,position,response_choice,trial_correct,reaction_time
1,1,0.5,1.0,-35.0,-1,1.0,0.40769999999999973
2,1,0.5,0.0625,35.0,1,1.0,0.5786999999999995
3,1,0.5,0.0,35.0,1,1.0,11.278199999999998
4,1,0.5,0.0,-35.0,1,0.0,0.3620000000000019
5,1,0.5,0.0625,-35.0,1,0.0,0.29960000000000164
6,1,0.5,0.0,35.0,1,1.0,0.35550000000000637
7,1,0.5,0.0,-35.0,1,0.0,4.265299999999996
8,1,0.5,0.0,35.0,-1,0.0,0.2816000000000045
9,1,0.5,0.25,-35.0,1,0.0,1.6938999999999993
10,1,0.5,0.0625,-35.0,1,0.0,0.29760000000000275
11,1,0.5,0.25,35.0,1,1.0,0.2938000000000045
12,1,0.5,0.125,-35.0,1,0.0,0.2815000000000012
13,1,0.5,1.0,-35.0,1,0.0,0.3066999999999922
14,1,0.5,0.0,35.0,1,1.0,0.25740000000000407
15,1,0.5,1.0,-35.0,-1,1.0,0.7005000000000052
16,1,0.5,0.0625,35.0,1,1.0,0.26319999999999766
17,1,0.5,1.0,-35.0,-1,1.0,0.26830000000001064
18,1,0.5,1.0,-35.0,-1,1.0,0.29169999999999163
19,1,0.5,0.0625,-35.0,-1,1.0,0.29280000000001394
20,1,0.5,0.0625,-35.0,-1,1.0,0.39280000000002246
21,1,0.5,0.125,-35.0,1,0.0,0.27009999999999934
22,1,0.5,0.125,35.0,1,1.0,0.3289999999999935
23,1,0.5,1.0,35.0,1,1.0,0.30880000000000507
24,1,0.5,0.0,-35.0,-1,1.0,0.2954000000000008
25,1,0.5,0.125,-35.0,1,0.0,0.2621000000000038
26,1,0.5,1.0,-35.0,-1,1.0,0.2505999999999915
27,1,0.5,1.0,35.0,1,1.0,0.2933000000000021
28,1,0.5,0.25,35.0,1,1.0,0.23599999999999
29,1,0.5,0.125,35.0,1,1.0,0.24900000000000944
30,1,0.5,1.0,-35.0,-1,1.0,0.7425999999999959
31,1,0.5,0.0625,-35.0,-1,1.0,0.36479999999998824
32,1,0.5,0.0,35.0,-1,0.0,0.5387999999999522
33,1,0.5,0.0,35.0,1,1.0,3.3737999999999886
34,1,0.5,0.125,-35.0,-1,1.0,0.2897000000000105
35,1,0.5,0.0625,35.0,1,1.0,0.2570999999999799
36,1,0.5,0.0625,35.0,-1,0.0,0.6175999999999817
37,1,0.5,0.25,-35.0,1,0.0,0.34549999999998704
38,1,0.5,0.0,35.0,1,1.0,0.3269999999999982
39,1,0.5,0.25,-35.0,1,0.0,0.3603999999999985
40,1,0.5,0.25,35.0,1,1.0,0.2956000000000074
41,1,0.5,0.0625,35.0,1,1.0,0.2867999999999995
42,1,0.5,0.25,35.0,1,1.0,0.24409999999997467
43,1,0.5,0.125,-35.0,1,0.0,0.3138999999999612
44,1,0.5,1.0,-35.0,1,0.0,0.26729999999997744
45,1,0.5,0.0625,-35.0,1,0.0,0.2827999999999804
46,1,0.5,0.125,-35.0,1,0.0,0.49519999999998277
47,1,0.5,0.0,-35.0,1,0.0,0.37880000000001246
48,1,0.5,0.25,35.0,1,1.0,0.24549999999999272
49,1,0.5,0.125,-35.0,1,0.0,0.3112000000000137
50,1,0.5,0.25,-35.0,1,0.0,0.2732000000000028
51,1,0.5,0.125,-35.0,1,0.0,0.30570000000000164
52,1,0.5,0.125,-35.0,-1,1.0,0.4311999999999898
53,1,0.5,0.0625,35.0,1,1.0,0.2681999999999789
54,1,0.5,0.0,35.0,1,1.0,0.22360000000000468
55,1,0.5,0.0625,-35.0,1,0.0,0.27369999999999095
56,1,0.5,0.25,-35.0,-1,1.0,0.36369999999999436
57,1,0.5,0.0625,-35.0,-1,1.0,0.3386999999999887
58,1,0.5,1.0,-35.0,-1,1.0,0.24619999999998754
59,1,0.5,1.0,35.0,1,1.0,0.2616999999999905
60,1,0.5,0.125,-35.0,-1,1.0,0.4146999999999821
61,1,0.5,0.0625,35.0,-1,0.0,0.522199999999998
62,1,0.5,0.25,35.0,1,1.0,0.29719999999997526
63,1,0.5,0.125,35.0,1,1.0,0.2908999999999935
64,1,0.5,0.125,-35.0,-1,1.0,0.4271999999999707
65,1,0.5,0.0625,35.0,1,1.0,0.2937000000000012
66,1,0.5,0.0625,35.0,1,1.0,0.22059999999999036
67,1,0.5,0.0,-35.0,1,0.0,0.25230000000004793
68,1,0.5,0.0,35.0,1,1.0,0.2632000000000403
69,1,0.5,0.0625,-35.0,1,0.0,0.1339999999999577
70,1,0.5,1.0,-35.0,-1,1.0,0.3743999999999801
71,1,0.5,0.125,-35.0,-1,1.0,0.30630000000002156
72,1,0.5,1.0,35.0,1,1.0,0.1150000000000091
73,1,0.5,0.125,-35.0,1,0.0,0.3088000000000193
74,1,0.5,0.0,35.0,1,1.0,0.22120000000001028
75,1,0.5,0.25,35.0,1,1.0,0.250500000000045
76,1,0.5,0.125,-35.0,-1,1.0,0.28609999999997626
77,1,0.5,0.0,35.0,-1,0.0,0.3842999999999961
78,1,0.5,1.0,35.0,1,1.0,0.2701000000000704
79,1,0.5,0.0,35.0,-1,0.0,0.280900000000031
80,1,0.5,0.0,35.0,1,1.0,0.29700000000002547
81,1,0.5,0.125,35.0,1,1.0,0.272700000000043
82,1,0.5,0.0,35.0,1,1.0,0.16170000000005302
83,1,0.5,1.0,-35.0,-1,1.0,0.3404990000000794
84,1,0.5,0.0625,35.0,1,1.0,0.22169999999999845
85,1,0.5,0.0,35.0,1,1.0,0.25010000000003174
86,1,0.5,0.125,35.0,1,1.0,0.10180000000002565
87,1,0.5,1.0,35.0,1,1.0,0.2715000000000032
88,1,0.5,0.125,-35.0,1,0.0,0.17790000000002237
89,1,0.5,0.0,-35.0,1,0.0,0.2096000000000231
90,1,0.5,0.25,35.0,1,1.0,0.2732000000000312
91,1,0.2,0.0625,35.0,1,1.0,0.20850000000007185
92,1,0.2,0.0625,35.0,-1,0.0,0.6482000000000312
93,1,0.2,0.0,35.0,1,1.0,0.2658999999999878
94,1,0.2,0.25,-35.0,-1,1.0,0.29700000000002547
95,1,0.2,0.125,35.0,1,1.0,0.16310000000004266
96,1,0.2,0.0,35.0,1,1.0,0.2410000000000423
97,1,0.2,1.0,35.0,1,1.0,0.1490000000000009
98,1,0.2,0.0,35.0,1,1.0,0.2581000000000131
99,1,0.2,0.0625,35.0,1,1.0,0.13249999999999318
100,1,0.2,0.0,35.0,1,1.0,0.13620000000003074
101,1,0.2,0.125,-35.0,1,0.0,0.31150000000002365
102,1,0.2,0.0,35.0,1,1.0,0.2785000000000082
103,1,0.2,0.0625,-35.0,1,0.0,0.2078000000000202
104,1,0.2,1.0,-35.0,-1,1.0,0.3764000000000465
105,1,0.2,0.0625,35.0,1,1.0,0.29410000000001446
106,1,0.2,0.0,-35.0,1,0.0,0.4611000000000445
107,1,0.2,0.25,-35.0,-1,1.0,0.14359999999999218
108,1,0.2,1.0,35.0,1,1.0,0.22610000000003083
109,1,0.2,0.0,35.0,-1,0.0,0.4093000000000302
110,1,0.2,0.0625,35.0,1,1.0,0.33660000000003265
111,1,0.2,0.125,35.0,1,1.0,0.28340000000002874
112,1,0.2,0.0,35.0,1,1.0,0.28820000000001755
113,1,0.2,0.25,35.0,1,1.0,0.2502000000000635
114,1,0.2,0.0,35.0,-1,0.0,0.40390000000002146
115,1,0.2,0.0,35.0,1,1.0,0.2647000000000048
116,1,0.2,0.0625,35.0,1,1.0,0.35550000000000637
117,1,0.2,1.0,35.0,1,1.0,0.2518000000000029
118,1,0.2,0.25,-35.0,-1,1.0,0.38889999999997826
119,1,0.2,0.25,35.0,1,1.0,0.3876000000000772
120,1,0.2,0.0625,-35.0,-1,1.0,0.37119999999998754
121,1,0.2,0.0625,35.0,1,1.0,0.2504999999999882
122,1,0.2,0.0625,35.0,1,1.0,0.23879999999996926
123,1,0.2,0.0625,35.0,1,1.0,0.2696000000000254
124,1,0.2,0.0625,35.0,1,1.0,0.13940000000002328
125,1,0.2,0.25,-35.0,1,0.0,0.2086999999999648
126,1,0.2,0.25,35.0,1,1.0,0.30960000000004584
127,1,0.2,0.0,35.0,1,1.0,0.2767000000000053
128,1,0.8,0.0,-35.0,1,0.0,0.24549999999999272
129,1,0.8,0.0625,-35.0,-1,1.0,0.4858000000000402
130,1,0.8,0.25,-35.0,-1,1.0,0.2777999999999565
131,1,0.8,0.125,35.0,1,1.0,0.23829999999998108
132,1,0.8,0.0,-35.0,1,0.0,0.31389999999998963
133,1,0.8,0.0625,-35.0,-1,1.0,0.3667000000000371
134,1,0.8,1.0,35.0,1,1.0,0.400600000000054
135,1,0.8,0.0625,-35.0,-1,1.0,0.29290000000003147
136,1,0.8,0.125,-35.0,-1,1.0,0.5101000000000795
137,1,0.8,0.0,-35.0,-1,1.0,0.3024000000000342
138,1,0.8,0.125,-35.0,-1,1.0,0.3103000000000975
139,1,0.8,1.0,-35.0,-1,1.0,0.3953000000001339
140,1,0.8,0.0,35.0,1,1.0,0.21400000000005548
141,1,0.8,0.125,-35.0,-1,1.0,0.36799999999993815
142,1,0.8,0.25,35.0,1,1.0,0.2841000000000804
143,1,0.8,1.0,-35.0,-1,1.0,0.3851999999999407
144,1,0.8,0.0625,35.0,1,1.0,0.3039999999999736
145,1,0.8,1.0,-35.0,-1,1.0,0.23299999999994725
146,1,0.8,0.0625,-35.0,1,0.0,0.19020000000000437
147,1,0.8,0.0,-35.0,1,0.0,0.2535000000000309
148,1,0.8,0.25,-35.0,1,0.0,0.34360000000003765
149,1,0.8,0.125,-35.0,1,0.0,0.18200000000001637
150,1,0.8,0.0,-35.0,1,0.0,0.31529999999997926
151,1,0.8,0.25,-35.0,1,0.0,0.2456000000000813
152,1,0.8,0.125,35.0,1,1.0,0.32600000000002183
153,1,0.8,1.0,35.0,1,1.0,0.23249999999995907
154,1,0.8,1.0,-35.0,-1,1.0,0.2695000000001073
155,1,0.8,1.0,-35.0,-1,1.0,0.27300000000002456
156,1,0.8,1.0,-35.0,-1,1.0,0.494199999999978
157,1,0.8,0.0,-35.0,-1,1.0,0.30550000000005184
158,1,0.8,0.0625,-35.0,-1,1.0,0.16410000000007585
159,1,0.8,0.25,-35.0,-1,1.0,0.17210000000000036
160,1,0.8,0.125,35.0,-1,0.0,0.24850000000003547
161,1,0.8,0.0625,35.0,-1,0.0,0.33609999999987394
162,1,0.2,0.0,35.0,1,1.0,0.296100000000024
163,1,0.2,0.0625,-35.0,1,0.0,0.23909900000001016
164,1,0.2,0.125,35.0,-1,0.0,0.2617000000000189
165,1,0.2,0.25,35.0,1,1.0,0.14049999999997453
166,1,0.2,0.0625,35.0,1,1.0,0.2725000000000364
167,1,0.2,0.125,35.0,1,1.0,0.2825000000000273
168,1,0.2,1.0,35.0,1,1.0,0.21480000000008204
169,1,0.2,0.125,-35.0,1,0.0,0.29369999999994434
170,1,0.2,0.25,35.0,1,1.0,0.2999999999999545
171,1,0.2,0.0625,-35.0,1,0.0,0.24040000000002237
172,1,0.2,0.125,35.0,1,1.0,0.1190000000000282
173,1,0.2,1.0,-35.0,1,0.0,0.2300999999999931
174,1,0.2,0.125,35.0,1,1.0,0.22850000000005366
175,1,0.2,0.125,35.0,1,1.0,0.10760000000004766
176,1,0.2,0.0,35.0,1,1.0,0.24330000000009022
177,1,0.2,0.25,35.0,1,1.0,0.11050000000000182
178,1,0.2,0.25,35.0,1,1.0,0.2545989999999847
179,1,0.2,1.0,35.0,1,1.0,0.250899000000004
180,1,0.2,0.25,35.0,1,1.0,0.1511999999999034
181,1,0.2,0.125,35.0,1,1.0,0.3038999999999987
182,1,0.2,0.0,35.0,1,1.0,0.27330000000006294
183,1,0.2,0.25,35.0,1,1.0,0.27769999999998163
184,1,0.2,0.25,35.0,1,1.0,0.2576000000000249
185,1,0.2,1.0,-35.0,-1,1.0,0.4852000000000771
186,1,0.2,0.0625,35.0,1,1.0,0.4356999999999971
187,1,0.2,0.125,35.0,1,1.0,0.22620000000006257
188,1,0.2,0.0625,35.0,1,1.0,0.25109999999995125
189,1,0.2,0.125,-35.0,1,0.0,0.23699999999996635
190,1,0.2,0.25,35.0,1,1.0,0.23289900000008856
191,1,0.8,0.0,-35.0,1,0.0,0.27530000000012933
192,1,0.8,0.0,35.0,1,1.0,0.278699999999958
193,1,0.8,0.0,35.0,1,1.0,0.2603000000000293
194,1,0.8,0.25,-35.0,1,0.0,0.26300000000003365
195,1,0.8,0.25,35.0,1,1.0,0.3272999999999229
196,1,0.8,0.125,-35.0,-1,1.0,1.6736999999999398
197,1,0.8,1.0,-35.0,-1,1.0,0.4794000000000551
198,1,0.8,0.125,-35.0,-1,1.0,0.34159999999997126
199,1,0.8,0.125,-35.0,-1,1.0,0.3280000000000882
200,1,0.8,0.0625,-35.0,-1,1.0,0.43679999999994834
201,1,0.8,0.0,-35.0,1,0.0,2.279199999999946
202,1,0.8,0.0,35.0,-1,0.0,0.6056999999999562
203,1,0.8,0.125,-35.0,1,0.0,0.3512999999999238
204,1,0.8,0.0625,-35.0,-1,1.0,0.26880000000005566
205,1,0.8,0.0,-35.0,-1,1.0,0.29349999999999454
206,1,0.8,0.0,-35.0,1,0.0,0.2696000000000822
207,1,0.8,0.25,-35.0,-1,1.0,0.4109000000000833
208,1,0.8,0.25,-35.0,-1,1.0,0.26680000000010295
209,1,0.8,0.0,-35.0,-1,1.0,0.35390000000006694
210,1,0.8,0.0625,-35.0,-1,1.0,0.24950000000001182
211,1,0.8,0.125,-35.0,-1,1.0,0.3287000000000262
212,1,0.8,0.125,-35.0,-1,1.0,0.3533999999999651
213,1,0.8,0.125,-35.0,-1,1.0,0.20590000000004238
214,1,0.8,0.125,-35.0,-1,1.0,0.24340000000006512
215,1,0.8,0.0625,-35.0,-1,1.0,0.2498000000000502
216,1,0.8,0.25,-35.0,1,0.0,0.23689999999999145
217,1,0.8,0.0,35.0,1,1.0,0.24549999999999272
218,1,0.8,0.0625,-35.0,-1,1.0,0.2159000000000333
219,1,0.8,0.25,-35.0,-1,1.0,0.2680000000000291
220,1,0.8,0.25,-35.0,-1,1.0,0.34149999999999636
221,1,0.8,0.125,-35.0,-1,1.0,0.4194999999999709
222,1,0.8,0.0,-35.0,-1,1.0,0.6918999999999187
223,1,0.8,0.0,-35.0,-1,1.0,0.3505999999999858
224,1,0.8,0.0625,-35.0,1,0.0,0.47700000000008913
225,1,0.8,0.25,-35.0,-1,1.0,0.26530000000002474
226,1,0.8,0.125,35.0,1,1.0,0.8186000000000604
227,1,0.8,0.25,-35.0,-1,1.0,0.5084000000000515
228,1,0.8,0.0,-35.0,1,0.0,0.21209999999996398
229,1,0.8,0.125,35.0,1,1.0,0.2641000000000986
230,1,0.8,0.25,35.0,1,1.0,0.35019999999997253
231,1,0.8,0.0,-35.0,1,0.0,0.344600000000014
232,1,0.8,0.25,-35.0,-1,1.0,0.6571999999999889
233,1,0.8,0.0625,-35.0,1,0.0,0.26450000000011187
234,1,0.8,0.0625,35.0,1,1.0,0.31920000000013715
235,1,0.2,0.25,35.0,1,1.0,0.35360000000002856
236,1,0.2,0.0,35.0,1,1.0,0.43380000000013297
237,1,0.2,0.125,35.0,1,1.0,0.25070000000005166
238,1,0.2,0.25,35.0,1,1.0,0.2193000000000893
239,1,0.2,1.0,35.0,1,1.0,0.17219999999997526
240,1,0.2,1.0,-35.0,1,0.0,0.22910000000001673
241,1,0.2,0.25,-35.0,1,0.0,0.21209999999996398
242,1,0.2,1.0,-35.0,-1,1.0,0.27949999999998454
243,1,0.2,0.25,35.0,1,1.0,0.3935000000000173
244,1,0.2,0.0625,35.0,1,1.0,0.24290000000007694
245,1,0.2,0.0625,35.0,1,1.0,0.2137000000000171
246,1,0.2,0.0625,35.0,1,1.0,0.2699000000000069
247,1,0.2,0.25,35.0,1,1.0,0.570400000000177
248,1,0.2,0.0625,35.0,1,1.0,0.31959999999980937
249,1,0.2,0.25,-35.0,1,0.0,0.14069999999969696
250,1,0.2,0.125,-35.0,1,0.0,0.2261999999998352
251,1,0.2,0.25,35.0,1,1.0,0.28739999999993415
252,1,0.2,0.125,35.0,1,1.0,0.16329999999970823
253,1,0.2,0.0625,35.0,1,1.0,0.22410000000013497
254,1,0.2,1.0,35.0,1,1.0,0.26319999999986976
255,1,0.2,0.0,35.0,1,1.0,0.2710999999997057
256,1,0.2,0.0625,-35.0,-1,1.0,0.26339999999981956
257,1,0.8,0.125,-35.0,-1,1.0,0.3112999999998465
258,1,0.8,1.0,-35.0,-1,1.0,0.28369999999972606
259,1,0.8,0.25,-35.0,-1,1.0,0.3979999999996835
260,1,0.8,0.0625,35.0,1,1.0,0.22059999999987667
261,1,0.8,0.0625,-35.0,-1,1.0,0.5748999999998432
262,1,0.8,0.0625,-35.0,-1,1.0,0.30729999999994106
263,1,0.8,0.25,-35.0,-1,1.0,0.2685999999998785
264,1,0.8,0.25,-35.0,-1,1.0,0.10799999999994725
265,1,0.8,0.0625,35.0,-1,0.0,0.10849999999982174
266,1,0.8,0.125,-35.0,-1,1.0,0.42139999999972133
267,1,0.8,0.25,-35.0,-1,1.0,0.4320999999997639
268,1,0.8,0.125,-35.0,-1,1.0,0.31449899999984154
269,1,0.8,0.125,-35.0,-1,1.0,0.302199999999857
270,1,0.8,0.25,-35.0,-1,1.0,0.22450000000003456
271,1,0.8,0.0,-35.0,1,0.0,0.328899999999976
272,1,0.8,0.125,35.0,-1,0.0,0.38790000000017244
273,1,0.8,1.0,35.0,1,1.0,0.3124000000000251
274,1,0.8,0.25,-35.0,-1,1.0,0.27809999999976753
275,1,0.8,0.25,-35.0,1,0.0,0.2726999999999862
276,1,0.8,0.0,35.0,-1,0.0,0.29510000000004766
277,1,0.8,0.125,-35.0,1,0.0,0.21939999999972315
278,1,0.8,1.0,-35.0,-1,1.0,0.685399999999845
279,1,0.8,0.125,-35.0,-1,1.0,1.499599999999873
280,1,0.8,0.0,-35.0,-1,1.0,0.4019999999998163
281,1,0.8,0.25,35.0,1,1.0,0.27319999999986067
282,1,0.8,0.0,35.0,1,1.0,0.24559999999996762
283,1,0.8,0.0,35.0,1,1.0,0.26660000000015316
284,1,0.2,1.0,35.0,1,1.0,0.2559999999998581
285,1,0.2,0.0625,35.0,1,1.0,0.17679900000007365
286,1,0.2,1.0,35.0,1,1.0,0.28939999999988686
287,1,0.2,0.25,35.0,1,1.0,0.303599999999733
288,1,0.2,1.0,35.0,1,1.0,0.25649999999996
289,1,0.2,0.0625,35.0,-1,0.0,0.3006000000000313
290,1,0.2,0.0,35.0,1,1.0,0.23959999999988213
291,1,0.2,0.0,35.0,1,1.0,0.3104999999998199
292,1,0.2,0.125,35.0,1,1.0,0.2100999999997839
293,1,0.2,0.0,35.0,-1,0.0,0.2908999999997377
294,1,0.2,1.0,35.0,1,1.0,0.20000000000004547
295,1,0.2,0.125,35.0,1,1.0,0.1675999999999931
296,1,0.2,0.25,35.0,1,1.0,0.1434999999999036
297,1,0.2,0.0,35.0,1,1.0,0.29769999999984975
298,1,0.2,0.25,35.0,1,1.0,0.48040000000014516
299,1,0.2,0.0,-35.0,-1,1.0,0.8713999999997668
300,1,0.2,0.0625,35.0,1,1.0,0.45689999999990505
301,1,0.2,0.0625,35.0,1,1.0,0.134900000000016
302,1,0.2,0.125,35.0,1,1.0,0.20700000000010732
303,1,0.2,0.0,35.0,-1,0.0,0.7750999999998385
304,1,0.2,0.0625,35.0,1,1.0,0.22089999999980137
305,1,0.2,1.0,35.0,1,1.0,0.2382999999997537
306,1,0.2,0.125,35.0,1,1.0,0.23109999999996944
307,1,0.2,1.0,-35.0,-1,1.0,0.34189999999989595
308,1,0.2,1.0,35.0,1,1.0,0.1812999999999647
309,1,0.2,0.0625,-35.0,-1,1.0,0.40229999999996835
310,1,0.2,0.0,-35.0,1,0.0,0.33150000000000546
311,1,0.2,0.0625,35.0,1,1.0,0.25890000000003965
312,1,0.2,0.0,-35.0,1,0.0,0.22829999999999018
313,1,0.2,1.0,-35.0,-1,1.0,0.3857999999997901
314,1,0.2,1.0,-35.0,-1,1.0,0.42820000000006075
315,1,0.2,0.125,35.0,1,1.0,0.30929999999989377
316,1,0.2,0.125,-35.0,-1,1.0,0.22179999999980282
317,1,0.2,1.0,35.0,1,1.0,0.24939999999992324
318,1,0.2,0.125,35.0,1,1.0,0.9654999999997926
319,1,0.2,0.25,35.0,1,1.0,0.21299999999996544
320,1,0.2,0.25,35.0,1,1.0,0.342200000000048
321,1,0.2,0.125,-35.0,1,0.0,0.1595999999999549
322,1,0.2,0.25,35.0,1,1.0,0.278999999999769
323,1,0.2,0.0625,35.0,-1,0.0,0.6333999999999378
324,1,0.2,0.0625,35.0,1,1.0,0.29249899999990703
325,1,0.2,0.0,35.0,1,1.0,0.32320000000004256
326,1,0.2,0.0625,-35.0,1,0.0,0.23939999999993233
327,1,0.2,0.0,35.0,1,1.0,0.2602999999996882
328,1,0.2,1.0,35.0,1,1.0,0.26929999999993015
329,1,0.2,0.0625,35.0,1,1.0,0.1537999999998192
330,1,0.2,1.0,35.0,1,1.0,0.2563999999999851
331,1,0.8,0.0625,-35.0,-1,1.0,0.32740000000012515
332,1,0.8,0.0,-35.0,-1,1.0,0.4233000000001539
333,1,0.8,0.125,-35.0,-1,1.0,0.5107000000000426
334,1,0.8,0.0625,-35.0,-1,1.0,0.4130999999999858
335,1,0.8,0.125,-35.0,-1,1.0,0.3210999999996602
336,1,0.8,0.0,-35.0,1,0.0,0.24670000000014625
337,1,0.8,0.25,-35.0,-1,1.0,0.2643999999997959
338,1,0.8,1.0,35.0,1,1.0,0.2599999999999909
339,1,0.8,0.0625,-35.0,1,0.0,0.4645999999997912
340,1,0.8,0.125,-35.0,1,0.0,0.3606999999999516
341,1,0.8,0.125,35.0,1,1.0,0.2780999999999949
342,1,0.8,1.0,-35.0,-1,1.0,0.32379999999989195
343,1,0.8,0.25,-35.0,-1,1.0,0.24139999999988504
344,1,0.8,1.0,-35.0,-1,1.0,0.2439999999999145
345,1,0.8,0.0,-35.0,-1,1.0,0.46499999999969077
346,1,0.8,0.0,-35.0,-1,1.0,0.7674999999996999
347,1,0.8,0.0,-35.0,1,0.0,0.18849999999997635
348,1,0.8,0.0625,-35.0,-1,1.0,0.32429999999976644
349,1,0.8,0.25,-35.0,-1,1.0,0.21869999999989886
350,1,0.8,1.0,-35.0,-1,1.0,0.28129999999987376
351,1,0.8,1.0,-35.0,-1,1.0,0.23559999999997672
352,1,0.8,0.125,-35.0,-1,1.0,0.4777999999998883
353,1,0.8,0.0,-35.0,-1,1.0,0.342200000000048
354,1,0.8,0.0,35.0,-1,0.0,0.3079000000000178
355,1,0.8,0.25,-35.0,-1,1.0,0.2821999999998752
356,1,0.8,0.0,-35.0,1,0.0,0.628099999999904
357,1,0.8,0.25,35.0,1,1.0,0.3591999999998734
358,1,0.8,0.25,35.0,1,1.0,0.2586999999998625
359,1,0.8,0.0625,35.0,1,1.0,0.25949999999988904
360,1,0.8,1.0,-35.0,1,0.0,0.3387000000000171
361,1,0.8,0.25,35.0,1,1.0,0.3227999999999156
362,1,0.8,0.25,-35.0,1,0.0,0.34179999999992106
363,1,0.8,0.25,35.0,1,1.0,0.4965999999997166
364,1,0.8,0.25,-35.0,-1,1.0,0.5724999999999909
365,1,0.8,0.125,-35.0,-1,1.0,0.2966000000001259
366,1,0.8,1.0,-35.0,-1,1.0,0.4289000000001124
367,1,0.8,0.25,-35.0,-1,1.0,0.3234999999997399
368,1,0.2,0.0625,-35.0,-1,1.0,0.315900000000056
369,1,0.2,0.125,35.0,1,1.0,0.47339999999985594
370,1,0.2,0.125,35.0,1,1.0,0.27589999999986503
371,1,0.2,0.125,35.0,1,1.0,0.2503999999996722
372,1,0.2,0.25,35.0,1,1.0,0.2662000000000262
373,1,0.2,0.25,35.0,1,1.0,0.25709999999980937
374,1,0.2,0.25,35.0,1,1.0,0.19339999999988322
375,1,0.2,0.0625,35.0,1,1.0,0.3072999999997137
376,1,0.2,0.0625,35.0,1,1.0,0.37970000000018445
377,1,0.2,0.0625,35.0,-1,0.0,0.39079999999989923
378,1,0.2,0.25,35.0,1,1.0,0.28319999999985157
379,1,0.2,0.25,35.0,1,1.0,0.5841999999997824
380,1,0.2,0.0,-35.0,1,0.0,0.20990000000006148
381,1,0.2,0.0,35.0,1,1.0,0.30120000000010805
382,1,0.2,0.25,35.0,1,1.0,1.343499999999949
383,1,0.2,0.125,-35.0,-1,1.0,0.584599999999682
384,1,0.2,0.125,35.0,1,1.0,0.23719999999980246
385,1,0.2,0.0625,35.0,1,1.0,0.18449999999984357
386,1,0.2,1.0,35.0,1,1.0,0.23739999999997963
387,1,0.2,0.25,-35.0,-1,1.0,0.29159999999978936
388,1,0.2,0.125,35.0,1,1.0,0.25050000000010186
389,1,0.2,0.125,35.0,-1,0.0,0.2516000000000531
390,1,0.2,0.25,35.0,1,1.0,0.11759999999981119
391,1,0.2,0.25,35.0,-1,0.0,0.7452999999998156
392,1,0.2,0.0625,35.0,1,1.0,0.22099899999989248
393,1,0.2,0.125,35.0,1,1.0,0.23539999999979955
394,1,0.2,1.0,35.0,1,1.0,0.19759999999973843
395,1,0.2,0.0625,35.0,1,1.0,0.26569999999992433
396,1,0.2,0.125,35.0,-1,0.0,0.23779999999987922
397,1,0.2,0.25,35.0,1,1.0,0.3088999999999942
398,1,0.2,1.0,35.0,1,1.0,0.36829999999986285
399,1,0.2,0.25,-35.0,1,0.0,0.309099999999944
400,1,0.2,0.125,35.0,1,1.0,0.28819999999973334
401,1,0.2,0.25,-35.0,-1,1.0,0.3992999999998119
402,1,0.2,0.0,35.0,-1,0.0,0.35169999999993706
403,1,0.2,0.125,35.0,1,1.0,0.22269999999980428
404,1,0.2,0.0,35.0,1,1.0,0.2750999999998385
405,1,0.2,0.0625,35.0,1,1.0,0.33619999999996253
406,1,0.2,0.25,35.0,1,1.0,0.28559999999993124
407,1,0.2,0.125,35.0,1,1.0,0.2963999999999487
408,1,0.2,0.125,35.0,1,1.0,0.1856000000000222
409,1,0.2,0.0625,35.0,1,1.0,0.2366999999997006
410,1,0.2,0.125,-35.0,1,0.0,0.2822999999998501
411,1,0.2,1.0,-35.0,-1,1.0,0.703499999999849
412,1,0.2,0.25,35.0,-1,0.0,0.46919999999977335
413,1,0.2,0.0625,35.0,1,1.0,0.2769999999998163
414,1,0.2,0.25,35.0,1,1.0,0.24929999999994834
415,1,0.2,0.125,35.0,1,1.0,0.25379999999972824
416,1,0.2,0.0625,35.0,1,1.0,0.28950000000008913
417,1,0.2,0.125,35.0,1,1.0,0.24729999999976826
418,1,0.2,0.0625,35.0,1,1.0,0.26289999999994507
419,1,0.2,0.0,-35.0,1,0.0,0.157399999999825
420,1,0.2,0.0625,-35.0,1,0.0,0.4298999999998614
421,1,0.8,0.125,-35.0,1,0.0,0.2476000000001477
422,1,0.8,0.0,-35.0,1,0.0,0.21039999999993597
423,1,0.8,0.125,35.0,1,1.0,0.35760000000004766
424,1,0.8,0.0,-35.0,1,0.0,0.12999999999988177
425,1,0.8,0.125,-35.0,-1,1.0,0.28119999999989886
426,1,0.8,0.125,-35.0,-1,1.0,0.3346999999998843
427,1,0.8,0.0625,-35.0,-1,1.0,0.2504999999998745
428,1,0.8,0.0625,-35.0,-1,1.0,0.37819999999987886
429,1,0.8,0.25,-35.0,-1,1.0,0.3240000000000691
430,1,0.8,1.0,-35.0,-1,1.0,0.5416999999999916
431,1,0.8,0.125,-35.0,-1,1.0,0.30729999999994106
432,1,0.8,0.25,-35.0,-1,1.0,0.35169999999993706
433,1,0.8,0.25,35.0,1,1.0,0.23729999999977736
434,1,0.8,0.25,-35.0,-1,1.0,0.6285000000000309
435,1,0.8,1.0,35.0,1,1.0,0.17449999999985266
436,1,0.8,0.25,-35.0,-1,1.0,0.32809999999994943
437,1,0.8,0.0625,35.0,-1,0.0,0.47879999999986467
438,1,0.8,1.0,-35.0,-1,1.0,0.2746999999997115
439,1,0.8,0.0,-35.0,1,0.0,0.42229999999995016
440,1,0.8,0.25,35.0,1,1.0,0.2644999999999982
441,1,0.8,0.0625,35.0,1,1.0,0.9792999999997392
442,1,0.8,0.25,35.0,1,1.0,0.20830000000000837
443,1,0.8,0.25,-35.0,-1,1.0,0.8291999999999007
444,1,0.8,0.125,-35.0,-1,1.0,0.7247999999999593
445,1,0.8,0.125,-35.0,-1,1.0,0.4192999999997937
446,1,0.8,0.0625,-35.0,-1,1.0,0.43830000000002656
447,1,0.8,1.0,-35.0,-1,1.0,0.1895999999999276
448,1,0.8,0.0625,-35.0,-1,1.0,0.30539999999996326
449,1,0.8,0.25,-35.0,-1,1.0,0.2697000000000571
450,1,0.8,0.0625,-35.0,-1,1.0,0.3586999999999989
451,1,0.8,0.0,-35.0,1,0.0,0.27969999999982065
452,1,0.8,0.0,-35.0,-1,1.0,0.21539999999981774
453,1,0.8,0.25,-35.0,-1,1.0,0.25989899999990485
454,1,0.8,0.0625,-35.0,-1,1.0,0.2588999999998123
455,1,0.8,0.0,-35.0,-1,1.0,0.5233999999998105
456,1,0.8,0.0625,-35.0,-1,1.0,0.4255000000000564
457,1,0.8,0.125,-35.0,-1,1.0,0.5769999999999982
458,1,0.8,0.0625,-35.0,1,0.0,0.31579999999985375
459,1,0.8,0.0625,35.0,1,1.0,0.24379999999973734
460,1,0.8,1.0,-35.0,1,0.0,0.20269999999982247
461,1,0.8,0.125,-35.0,-1,1.0,0.6505999999999403
462,1,0.8,0.0625,35.0,1,1.0,0.39649999999983265
463,1,0.8,1.0,-35.0,-1,1.0,0.4539999999999509
464,1,0.8,0.0,-35.0,1,0.0,0.17990000000008877
465,1,0.8,1.0,-35.0,-1,1.0,0.33409999999980755
466,1,0.8,0.0625,-35.0,-1,1.0,0.20339999999987413
467,1,0.8,0.25,35.0,1,1.0,0.13439999999991414
468,1,0.8,0.25,35.0,1,1.0,0.26009999999973843
469,1,0.8,1.0,35.0,1,1.0,0.17459999999982756
470,1,0.8,0.0625,-35.0,1,0.0,0.1170999999999367
471,1,0.8,0.0,35.0,1,1.0,0.5547999999998865
472,1,0.8,0.25,-35.0,1,0.0,0.3206000000000131
473,1,0.8,0.0,-35.0,1,0.0,3.9749000000001615
474,1,0.8,0.0625,-35.0,-1,1.0,0.610899999999674
475,1,0.8,0.25,-35.0,-1,1.0,0.4484999999995125
476,1,0.8,0.0,35.0,1,1.0,1.285099999999602
477,1,0.8,0.0625,-35.0,-1,1.0,0.29799999999977445
478,1,0.8,0.125,-35.0,1,0.0,0.18539999999984502
479,1,0.8,0.0625,35.0,-1,0.0,2.467699999999695
480,1,0.8,0.0,-35.0,1,0.0,0.28219999999964784
481,1,0.8,1.0,35.0,1,1.0,0.2580000000002656
482,1,0.8,0.25,-35.0,1,0.0,2.759099999999762
483,1,0.8,0.0625,-35.0,1,0.0,0.31140000000004875
484,1,0.8,1.0,-35.0,-1,1.0,0.3324999999999818
485,1,0.8,0.0625,-35.0,-1,1.0,0.40819999999985157
486,1,0.8,0.0,-35.0,-1,1.0,0.7861000000002605
487,1,0.8,0.25,35.0,-1,0.0,0.8548999999998159
488,1,0.8,0.25,-35.0,-1,1.0,0.2062999999998283
489,1,0.8,0.25,35.0,1,1.0,0.24879999999984648
490,1,0.8,0.25,35.0,1,1.0,0.24620000000004438
491,1,0.8,0.125,-35.0,-1,1.0,0.12509999999974752
492,1,0.8,0.25,-35.0,-1,1.0,0.6465000000002874
493,1,0.2,0.25,35.0,1,1.0,0.23250000000007276
494,1,0.2,0.0625,35.0,-1,0.0,0.3065999999998894
495,1,0.2,0.0,35.0,1,1.0,0.31219999999984793
496,1,0.2,0.25,35.0,1,1.0,0.9202000000000226
497,1,0.2,1.0,35.0,1,1.0,0.30569999999988795
498,1,0.2,0.125,35.0,1,1.0,0.9569000000001324
499,1,0.2,1.0,-35.0,1,0.0,0.24579999999969004
500,1,0.2,1.0,35.0,1,1.0,0.21379999999953725
501,1,0.2,1.0,35.0,1,1.0,0.2426999999997861
502,1,0.2,0.125,35.0,1,1.0,0.24049999999942884
503,1,0.2,0.125,35.0,1,1.0,0.6230999999993401
504,1,0.2,0.0,-35.0,-1,1.0,0.3442000000000007
505,1,0.2,0.0,35.0,-1,0.0,0.7275000000004184
506,1,0.2,0.0625,-35.0,-1,1.0,0.6573989999997139
507,1,0.2,0.125,35.0,1,1.0,0.323399999999765
508,1,0.2,0.125,-35.0,-1,1.0,0.5509999999999309
509,1,0.2,1.0,35.0,1,1.0,0.45029999999997017
510,1,0.2,0.0,35.0,1,1.0,0.40109999999958745
511,1,0.2,0.25,-35.0,1,0.0,0.12049999999999272
512,1,0.2,0.25,-35.0,-1,1.0,0.3046999999996842
513,1,0.2,0.0,35.0,1,1.0,0.2737999999999374
514,1,0.2,0.0,35.0,1,1.0,0.09479999999985012
515,1,0.8,0.0625,-35.0,-1,1.0,0.28059899999971094
516,1,0.8,0.25,-35.0,-1,1.0,0.28499999999939973
517,1,0.8,0.0,-35.0,-1,1.0,0.9208999999996195
518,1,0.8,0.0625,-35.0,-1,1.0,0.4608999999995831
519,1,0.8,0.0625,-35.0,-1,1.0,0.24409999999943466
520,1,0.8,0.25,-35.0,-1,1.0,0.3188000000000102
521,1,0.8,1.0,-35.0,-1,1.0,0.331199999999626
522,1,0.8,1.0,-35.0,-1,1.0,0.332300000000032
523,1,0.8,0.0,-35.0,1,0.0,1.6812999999997373
524,1,0.8,0.125,35.0,1,1.0,0.31570000000010623
525,1,0.8,0.125,35.0,-1,0.0,0.30809999999974025
526,1,0.8,0.0,-35.0,1,0.0,0.33599999999978536
527,1,0.8,0.0625,-35.0,1,0.0,0.4113999999999578
528,1,0.8,1.0,-35.0,-1,1.0,0.40279999999984284
529,1,0.8,0.125,35.0,1,1.0,0.6381999999998698
530,1,0.8,0.125,-35.0,-1,1.0,0.20930000000043947
531,1,0.8,0.0,-35.0,1,0.0,0.7782999999999447
532,1,0.8,0.125,-35.0,-1,1.0,0.3994999999999891
533,1,0.8,0.0,-35.0,1,0.0,1.2821990000002188
534,1,0.8,0.0,35.0,-1,0.0,0.7765999999996893
535,1,0.8,0.0,-35.0,1,0.0,6.452299999999923
536,1,0.8,1.0,-35.0,-1,1.0,0.5369000000000597
537,1,0.8,0.0625,-35.0,-1,1.0,0.2557999999999083
538,1,0.8,0.125,-35.0,-1,1.0,0.5736000000001695
539,1,0.8,0.125,-35.0,-1,1.0,0.4193000000000211
540,1,0.8,1.0,-35.0,-1,1.0,0.49699999999984357
541,1,0.8,0.0625,-35.0,-1,1.0,0.3326000000001841
542,1,0.8,0.0625,-35.0,-1,1.0,0.4103999999997541
543,1,0.8,1.0,-35.0,-1,1.0,0.4027000000000953
544,1,0.8,0.0,35.0,-1,0.0,0.44719999999961146
545,1,0.8,1.0,35.0,1,1.0,0.2696000000000822
546,1,0.8,0.0625,-35.0,-1,1.0,0.4640999999996893
547,1,0.8,0.25,-35.0,-1,1.0,0.6099999999996726
548,1,0.8,0.125,-35.0,-1,1.0,0.34099999999943975
549,1,0.8,1.0,-35.0,-1,1.0,0.36970000000019354
550,1,0.8,1.0,-35.0,-1,1.0,0.20760000000018408
551,1,0.8,0.0,-35.0,-1,1.0,0.28350000000000364
552,1,0.8,0.25,35.0,1,1.0,0.26110000000016953
553,1,0.8,0.0625,-35.0,-1,1.0,0.6635000000001128
554,1,0.8,0.0625,35.0,1,1.0,0.3144999999999527
555,1,0.8,1.0,35.0,1,1.0,0.34049999999979264
556,1,0.8,0.0625,-35.0,-1,1.0,0.5214999999998327
557,1,0.8,1.0,-35.0,-1,1.0,1.1305999999999585
558,1,0.8,1.0,35.0,-1,0.0,0.8683000000000902
559,1,0.8,0.25,-35.0,-1,1.0,0.2007000000003245
560,1,0.8,1.0,-35.0,-1,1.0,0.49179999999978463
561,1,0.8,0.25,-35.0,-1,1.0,0.25739999999996144
562,1,0.2,0.25,35.0,1,1.0,0.3987000000001899
563,1,0.2,1.0,35.0,-1,0.0,0.15410000000019863
564,1,0.2,0.125,35.0,1,1.0,3.6621000000000095
565,1,0.2,0.0,35.0,-1,0.0,0.31770000000005894
566,1,0.2,0.25,-35.0,-1,1.0,0.4087000000004082
567,1,0.2,0.125,-35.0,-1,1.0,0.32769999999982247
568,1,0.2,0.0,35.0,1,1.0,3.559099999999944
569,1,0.2,0.0625,35.0,-1,0.0,0.621599999999944
570,1,0.2,0.125,35.0,-1,0.0,1.3825999999999112
571,1,0.2,1.0,35.0,1,1.0,0.2517000000002554
572,1,0.2,0.0,35.0,-1,0.0,0.892699999999877
573,1,0.2,1.0,35.0,1,1.0,0.3251999999997679
574,1,0.2,0.0625,35.0,1,1.0,0.32290000000011787
575,1,0.2,0.0,35.0,1,1.0,0.6217999999998938
576,1,0.2,0.25,35.0,1,1.0,0.3597999999997228
577,1,0.2,0.0625,35.0,1,1.0,0.2484999999996944
578,1,0.2,0.0,35.0,1,1.0,0.2764999999999418
579,1,0.2,0.25,35.0,1,1.0,0.24909999999999854
580,1,0.2,0.125,35.0,1,1.0,0.2965999999996711
581,1,0.2,0.0625,35.0,1,1.0,0.212699999999586
582,1,0.2,0.0,35.0,1,1.0,0.13340000000016516
583,1,0.2,0.125,35.0,1,1.0,0.23270000000002256
584,1,0.8,0.0625,-35.0,1,0.0,0.3002000000001317
585,1,0.8,0.125,-35.0,-1,1.0,0.8427999999998974
586,1,0.8,0.25,35.0,1,1.0,0.25709999999980937
587,1,0.8,0.0,-35.0,1,0.0,0.17619999999988067
588,1,0.8,0.0,-35.0,1,0.0,0.45080000000007203
589,1,0.8,0.25,-35.0,-1,1.0,0.31989999999996144
590,1,0.8,0.25,-35.0,-1,1.0,0.38739999999961583
591,1,0.8,0.125,-35.0,-1,1.0,0.25959999999986394
592,1,0.8,0.0,-35.0,1,0.0,0.3008999999997286
593,1,0.8,0.125,-35.0,-1,1.0,0.3164999999999054
594,1,0.8,0.125,-35.0,-1,1.0,0.5875999999998385
595,1,0.8,0.0625,-35.0,1,0.0,0.2302999999997155
596,1,0.8,0.125,-35.0,-1,1.0,0.5846000000001368
597,1,0.8,0.0625,-35.0,-1,1.0,0.3070999999995365
598,1,0.8,0.0625,-35.0,-1,1.0,0.4113999999999578
599,1,0.8,0.0625,-35.0,-1,1.0,0.36380000000008295
600,1,0.8,0.25,-35.0,-1,1.0,0.3247999999998683
601,1,0.8,1.0,-35.0,-1,1.0,0.2907000000000153
602,1,0.8,0.25,-35.0,-1,1.0,0.25489999999990687
603,1,0.8,0.25,-35.0,-1,1.0,0.4772000000002663
604,1,0.8,0.125,-35.0,-1,1.0,0.4351999999998952
605,1,0.8,0.0,-35.0,1,0.0,0.2505999999998494
606,1,0.8,1.0,-35.0,-1,1.0,0.278599999999642
607,1,0.8,0.0,-35.0,1,0.0,0.8542999999999665
608,1,0.8,1.0,-35.0,-1,1.0,0.4555000000000291
609,1,0.8,0.0,-35.0,1,0.0,0.2644999999997708
610,1,0.8,0.0,-35.0,-1,1.0,0.40869999999995343
611,1,0.8,0.0625,35.0,1,1.0,0.26799999999957436
612,1,0.8,1.0,-35.0,-1,1.0,0.24220000000013897
613,1,0.8,0.0625,35.0,1,1.0,1.1078999999995176
614,1,0.8,0.25,-35.0,1,0.0,0.37570000000005166
615,1,0.8,0.0625,-35.0,-1,1.0,0.3712999999997919
616,1,0.2,0.25,35.0,1,1.0,0.24929999999994834
617,1,0.2,0.125,35.0,1,1.0,0.3348999999998341
618,1,0.2,1.0,35.0,1,1.0,0.29919999999992797
619,1,0.2,0.25,35.0,1,1.0,0.27819999999974243
620,1,0.2,0.0,35.0,-1,0.0,0.45939999999973224
621,1,0.2,0.0625,35.0,1,1.0,0.37170000000014625
622,1,0.2,1.0,35.0,1,1.0,0.12629999999990105
623,1,0.2,0.0,35.0,1,1.0,0.23880000000008295
624,1,0.2,0.25,35.0,1,1.0,0.3398000000001957
625,1,0.2,1.0,35.0,1,1.0,0.2321999999999207
626,1,0.2,0.0,35.0,1,1.0,3.4166000000000167
627,1,0.2,0.125,35.0,1,1.0,0.24569999999994252
628,1,0.2,0.0,35.0,-1,0.0,0.5566999999996369
629,1,0.2,0.0625,35.0,1,1.0,0.23919999999998254
630,1,0.2,0.0625,35.0,1,1.0,0.336699999999837
631,1,0.2,0.0625,35.0,1,1.0,0.1493000000000393
632,1,0.2,0.125,35.0,1,1.0,0.2636999999999716
633,1,0.2,0.0625,35.0,1,1.0,0.3429989999999634
634,1,0.2,1.0,35.0,1,1.0,0.21059999999988577
635,1,0.2,1.0,35.0,1,1.0,0.2764999999999418
636,1,0.2,0.0625,35.0,1,1.0,0.2840000000001055
637,1,0.2,1.0,35.0,1,1.0,0.2597000000000662
638,1,0.2,0.25,35.0,1,1.0,0.20420000000012806
639,1,0.2,0.125,35.0,1,1.0,0.2501999999999498
640,1,0.2,1.0,35.0,1,1.0,0.2506999999995969
641,1,0.2,1.0,-35.0,-1,1.0,0.24690000000009604
642,1,0.2,0.125,35.0,1,1.0,0.24099999999998545
643,1,0.2,0.125,35.0,1,1.0,0.2199999999997999
644,1,0.2,0.0625,35.0,1,1.0,0.25109999999995125
645,1,0.2,0.0625,35.0,1,1.0,0.3068999999995867
646,1,0.2,0.0625,35.0,1,1.0,1.4013999999997395
647,1,0.2,0.25,35.0,1,1.0,0.3404000000000451
648,1,0.2,0.0625,35.0,1,1.0,0.32809999999972206
649,1,0.2,0.25,35.0,1,1.0,0.18039999999973588
650,1,0.2,0.25,35.0,1,1.0,0.2450000000003456
651,1,0.2,0.0625,35.0,1,1.0,0.3141000000000531
652,1,0.2,0.0,-35.0,1,0.0,0.38850000000002183
653,1,0.2,1.0,35.0,1,1.0,0.22420000000010987
654,1,0.8,1.0,35.0,1,1.0,0.191899999999805
655,1,0.8,1.0,-35.0,-1,1.0,0.2775000000001455
656,1,0.8,1.0,-35.0,-1,1.0,0.3087000000000444
657,1,0.8,0.0625,-35.0,-1,1.0,0.3208999999997104
658,1,0.8,0.25,-35.0,-1,1.0,0.40219999999999345
659,1,0.8,0.0,-35.0,-1,1.0,0.8078000000000429
660,1,0.8,0.0625,-35.0,-1,1.0,0.4788999999996122
661,1,0.8,0.0,35.0,-1,0.0,0.30110000000013315
662,1,0.8,0.0625,35.0,1,1.0,0.31910000000016225
663,1,0.8,1.0,-35.0,-1,1.0,0.3712999999997919
664,1,0.8,0.25,-35.0,-1,1.0,0.7192999999997483
665,1,0.8,0.125,-35.0,-1,1.0,0.3348999999998341
666,1,0.8,1.0,35.0,-1,0.0,0.135899999999765
667,1,0.8,0.0625,-35.0,-1,1.0,0.31500000000005457
668,1,0.8,0.0625,35.0,-1,0.0,0.22289999999975407
669,1,0.8,0.25,-35.0,-1,1.0,0.45859999999993306
670,1,0.8,0.25,35.0,1,1.0,0.6464999999998327
671,1,0.8,0.0,-35.0,1,0.0,0.3818999999998596
672,1,0.8,1.0,-35.0,-1,1.0,0.2865999999999076
673,1,0.8,0.0625,-35.0,-1,1.0,0.33259999999972933
674,1,0.8,1.0,35.0,1,1.0,0.31989999999996144
675,1,0.8,0.25,-35.0,-1,1.0,0.3022000000000844
676,1,0.8,0.0,-35.0,-1,1.0,0.35669999999981883
677,1,0.8,1.0,-35.0,-1,1.0,0.2458000000001448
678,1,0.2,1.0,35.0,1,1.0,0.24030000000038854
679,1,0.2,0.25,35.0,1,1.0,0.3158000000003085
680,1,0.2,0.0,35.0,1,1.0,0.48070000000006985
681,1,0.2,0.125,35.0,1,1.0,0.389299999999821
682,1,0.2,0.0625,35.0,1,1.0,0.2836999999994987
683,1,0.2,0.25,35.0,1,1.0,0.2626999999997679
684,1,0.2,0.25,35.0,1,1.0,0.29429999999956635
685,1,0.2,0.125,-35.0,1,0.0,0.42630000000008295
686,1,0.2,0.0625,35.0,1,1.0,0.29759999999987485
687,1,0.2,0.0625,-35.0,-1,1.0,0.753400000000056
688,1,0.2,0.0625,35.0,1,1.0,0.3876999999997679
689,1,0.2,0.0625,-35.0,-1,1.0,0.6070999999997184
690,1,0.2,0.125,35.0,1,1.0,0.3678999999997359
691,1,0.2,0.0625,35.0,1,1.0,0.5970990000000711
692,1,0.2,0.0625,35.0,1,1.0,0.4544999999998254
693,1,0.2,0.0,35.0,1,1.0,0.4004000000004453
694,1,0.2,1.0,35.0,1,1.0,0.17140000000017608
695,1,0.2,0.0,35.0,1,1.0,0.49359999999978754
696,1,0.2,0.125,35.0,1,1.0,0.34169999999994616
697,1,0.2,0.0,-35.0,1,0.0,0.3736999999996442
698,1,0.2,0.0625,35.0,1,1.0,0.30500000000029104
699,1,0.2,1.0,35.0,1,1.0,0.35750000000007276
700,1,0.2,0.25,35.0,1,1.0,0.2750999999993837
701,1,0.2,0.0,35.0,-1,0.0,0.7177999999998974
702,1,0.2,0.125,35.0,1,1.0,0.4187000000001717
703,1,0.2,1.0,-35.0,-1,1.0,0.1944999999996071
704,1,0.2,0.25,35.0,1,1.0,0.678899999999885
705,1,0.2,0.25,35.0,1,1.0,0.34489999999959764
706,1,0.2,0.0625,-35.0,1,0.0,0.6221999999997934
707,1,0.2,1.0,-35.0,-1,1.0,0.2414000000003398
708,1,0.2,0.25,35.0,1,1.0,0.26239999999961583
709,1,0.2,0.0625,35.0,1,1.0,0.6645000000003165
710,1,0.2,0.0625,35.0,1,1.0,0.25929999999971187
711,1,0.2,0.0,35.0,1,1.0,0.4950000000003456
712,1,0.2,0.0,35.0,1,1.0,0.6894000000002052
713,1,0.2,0.0,35.0,-1,0.0,2.00879999999961
714,1,0.2,0.0,35.0,1,1.0,3.1730999999999767
715,1,0.2,0.0,35.0,-1,0.0,0.6855999999997948
716,1,0.2,0.0625,35.0,1,1.0,0.3663000000001375
717,1,0.2,0.0,35.0,1,1.0,4.385199999999713
718,1,0.2,0.125,35.0,1,1.0,1.1934989999999743
719,1,0.2,0.0,35.0,1,1.0,3.5823999999997795
720,1,0.2,0.25,35.0,1,1.0,2.603700000000117
721,1,0.2,1.0,-35.0,-1,1.0,0.4558999999999287
722,1,0.2,0.0625,35.0,1,1.0,0.6068999999997686
723,1,0.2,1.0,35.0,1,1.0,0.22309999999970387
724,1,0.2,0.25,35.0,1,1.0,1.103900000000067
725,1,0.2,0.0625,35.0,1,1.0,0.37609999999995125
726,1,0.2,0.0,35.0,1,1.0,0.4139999999997599
727,1,0.2,0.0625,35.0,1,1.0,0.3961999999996806
728,1,0.2,1.0,35.0,1,1.0,0.26080000000001746
729,1,0.8,1.0,-35.0,-1,1.0,0.5697000000004664
730,1,0.8,0.25,-35.0,-1,1.0,0.3942999999994754
731,1,0.8,0.0,-35.0,1,0.0,0.2766999999998916
732,1,0.8,0.25,-35.0,-1,1.0,0.36439999999993233
733,1,0.8,0.25,-35.0,-1,1.0,0.2537000000002081
734,1,0.8,1.0,35.0,1,1.0,0.234599999999773
735,1,0.8,0.0,-35.0,1,0.0,0.39049999999997453
736,1,0.8,0.125,-35.0,-1,1.0,0.6179999999999382
737,1,0.8,0.0625,35.0,1,1.0,0.3802989999994679
738,1,0.8,0.0,-35.0,1,0.0,0.2881999999999607
739,1,0.8,0.0,-35.0,-1,1.0,0.4705000000003565
740,1,0.8,1.0,-35.0,-1,1.0,0.3982999999993808
741,1,0.8,1.0,-35.0,-1,1.0,0.25050000000010186
742,1,0.8,0.125,-35.0,-1,1.0,0.27860000000009677
743,1,0.8,0.0625,-35.0,-1,1.0,0.30389999999988504
744,1,0.8,0.125,35.0,1,1.0,1.3518999999996595
745,1,0.8,0.25,-35.0,1,0.0,0.3840999999997621
746,1,0.8,0.25,-35.0,-1,1.0,0.33199999999987995
747,1,0.8,0.0,-35.0,1,0.0,8.960998999999902
748,1,0.8,0.0625,-35.0,-1,1.0,0.2824999999997999
749,1,0.8,0.0625,-35.0,-1,1.0,0.4414999999999054
750,1,0.8,1.0,35.0,1,1.0,0.32569999999986976
751,1,0.8,0.0,-35.0,-1,1.0,0.618199999999888
752,1,0.8,0.25,-35.0,-1,1.0,0.4192000000002736
753,1,0.8,1.0,35.0,1,1.0,0.20819999999957872
754,1,0.8,1.0,-35.0,-1,1.0,0.3328999999998814
755,1,0.8,1.0,35.0,1,1.0,0.2984999999998763
756,1,0.8,0.0625,-35.0,-1,1.0,0.706199999999626
757,1,0.8,0.25,-35.0,-1,1.0,0.2019999999997708
758,1,0.8,0.125,-35.0,1,0.0,0.3164999999999054
759,1,0.8,0.0625,-35.0,1,0.0,0.38910000000032596
760,1,0.8,0.125,-35.0,-1,1.0,0.37010000000009313
761,1,0.8,1.0,-35.0,-1,1.0,0.4222999999997228
762,1,0.8,0.125,-35.0,-1,1.0,0.7365999999997257
763,1,0.8,0.0625,-35.0,1,0.0,0.23559999999997672
764,1,0.8,0.25,-35.0,-1,1.0,0.26030000000037035
765,1,0.8,0.0,-35.0,-1,1.0,0.41249999999990905
766,1,0.8,0.0,-35.0,-1,1.0,2.3068999999995867
767,1,0.8,0.125,35.0,1,1.0,0.30949999999984357
768,1,0.8,0.25,-35.0,-1,1.0,0.46039999999993597
769,1,0.8,0.125,-35.0,-1,1.0,0.4960999999998421
770,1,0.8,0.0625,-35.0,-1,1.0,0.4872999999993226
771,1,0.8,0.0,-35.0,-1,1.0,0.24969899999996414
772,1,0.8,0.0,35.0,-1,0.0,1.4175000000000182
773,1,0.8,1.0,35.0,1,1.0,0.2498000000000502
774,1,0.8,0.0,-35.0,1,0.0,0.5909999999998945
775,1,0.8,1.0,-35.0,-1,1.0,0.4697999999998501
776,1,0.8,0.125,-35.0,-1,1.0,0.4743999999996049
777,1,0.8,0.0625,-35.0,-1,1.0,0.3833999999997104
778,1,0.8,0.125,-35.0,-1,1.0,0.32449999999971624
779,1,0.8,0.0,-35.0,1,0.0,2.666899999999714
780,1,0.8,0.0,-35.0,1,0.0,3.1682999999998174
781,1,0.8,0.0,35.0,-1,0.0,0.3904999999995198
782,1,0.8,0.0,-35.0,-1,1.0,14.481699999999819
783,1,0.8,0.0,-35.0,-1,1.0,0.9841999999998734
784,1,0.8,0.25,-35.0,-1,1.0,0.4454000000000633
785,1,0.8,0.25,-35.0,-1,1.0,0.4044999999996435
786,1,0.8,1.0,-35.0,-1,1.0,0.22890000000006694
787,1,0.8,0.125,-35.0,-1,1.0,0.14789999999993597
788,1,0.8,0.125,-35.0,-1,1.0,0.3389999999999418
789,1,0.8,0.0625,-35.0,-1,1.0,0.3380999999994856
790,1,0.8,0.0,-35.0,-1,1.0,0.2659000000003289
791,1,0.8,0.25,-35.0,1,0.0,3.5581999999994878
792,1,0.8,0.0625,35.0,1,1.0,9.666000000000167
793,1,0.8,0.0,-35.0,-1,1.0,1.0718999999999141
794,1,0.8,0.25,-35.0,-1,1.0,0.4829999999997199
795,1,0.8,0.0625,35.0,-1,0.0,1.5756999999998698
796,1,0.8,0.125,-35.0,1,0.0,3.21979999999985
797,1,0.8,0.0,-35.0,-1,1.0,0.6426000000001295
798,1,0.8,0.0,-35.0,1,0.0,3.1034999999997126
799,1,0.8,0.0625,-35.0,1,0.0,1.6093000000000757
800,1,0.8,0.25,-35.0,-1,1.0,15.747099999999591
801,1,0.8,1.0,-35.0,-1,1.0,0.3797999999997046
802,1,0.8,0.0,-35.0,-1,1.0,0.32409999999981665
803,1,0.8,0.0625,-35.0,-1,1.0,0.3328989999999976
804,1,0.8,0.0625,-35.0,-1,1.0,0.33399999999983265
805,1,0.8,0.125,-35.0,-1,1.0,0.3930000000000291
806,1,0.8,1.0,-35.0,-1,1.0,0.2676999999994223
807,1,0.8,0.125,35.0,1,1.0,0.7232999999996537
808,1,0.8,0.0625,-35.0,-1,1.0,0.4411000000000058
809,1,0.8,0.125,-35.0,-1,1.0,0.40659999999979846
810,1,0.8,0.25,-35.0,-1,1.0,0.21800000000030195
811,1,0.8,1.0,35.0,1,1.0,0.2966999999998734
812,1,0.8,0.0625,-35.0,-1,1.0,0.4513999999999214
813,1,0.8,0.0625,-35.0,1,0.0,0.3969999999999345
814,1,0.8,0.0,-35.0,1,0.0,0.6750999999999294
815,1,0.8,0.125,-35.0,-1,1.0,2.0371009999998932
816,1,0.8,0.25,35.0,1,1.0,0.2549010000002454
817,1,0.8,0.0625,-35.0,1,0.0,1.260700999999699
818,1,0.8,0.0625,-35.0,1,0.0,1.688600999999835
819,1,0.8,0.0625,-35.0,1,0.0,4.17750100000012
820,1,0.8,1.0,-35.0,-1,1.0,14.575601000000006
821,1,0.8,1.0,-35.0,-1,1.0,0.5782009999998081
822,1,0.8,0.125,-35.0,1,0.0,1.49250099999972
823,1,0.8,0.25,-35.0,1,0.0,7.311800999999832
824,1,0.2,0.125,35.0,1,1.0,13.556200999999874
825,1,0.2,1.0,35.0,1,1.0,1.7889009999998962
826,1,0.2,0.0625,35.0,1,1.0,7.4067009999998845
827,1,0.2,0.0625,35.0,-1,0.0,0.4789009999999507
828,1,0.2,0.25,-35.0,1,0.0,4.010100999999395
829,1,0.2,0.0,35.0,-1,0.0,0.5694009999997434
830,1,0.2,0.25,35.0,1,1.0,0.6572009999999864
831,1,0.2,0.25,35.0,1,1.0,0.3262009999998554
832,1,0.2,0.125,35.0,1,1.0,0.49700099999972736
833,1,0.2,1.0,35.0,1,1.0,0.26960100000042075
834,1,0.2,0.25,35.0,1,1.0,3.5007009999994807
835,1,0.2,0.25,35.0,1,1.0,0.3633010000003196
836,1,0.2,0.0625,-35.0,1,0.0,0.48750099999961094
837,1,0.2,0.0625,35.0,1,1.0,1.0667009999992842
838,1,0.2,0.0625,35.0,1,1.0,0.4344009999995251
839,1,0.2,0.125,35.0,1,1.0,4.9935010000003786
840,1,0.2,0.25,35.0,1,1.0,0.36480100000017046
841,1,0.2,0.0,35.0,1,1.0,10.116901000000325
842,1,0.2,1.0,35.0,1,1.0,0.3349009999997179
843,1,0.2,0.125,-35.0,-1,1.0,4.290701000000354
844,1,0.2,1.0,35.0,1,1.0,0.348500999999942
845,1,0.2,0.25,35.0,1,1.0,2.9674009999998816
846,1,0.2,0.0625,35.0,1,1.0,5.442100999999639
847,1,0.2,1.0,35.0,1,1.0,0.4113009999996393
848,1,0.2,0.25,35.0,1,1.0,0.40900099999953454
849,1,0.2,0.0625,35.0,-1,0.0,2.021201000000019
850,1,0.2,1.0,35.0,1,1.0,0.3624009999998634
851,1,0.2,1.0,35.0,1,1.0,0.46830099999988306
852,1,0.2,0.25,35.0,1,1.0,0.7093009999998685
853,1,0.2,0.25,35.0,1,1.0,0.20510099999955855
854,1,0.2,0.125,35.0,1,1.0,0.3392010000002301
855,1,0.2,0.25,-35.0,-1,1.0,0.28510099999994054
856,1,0.2,0.0,35.0,1,1.0,3.5595009999997274
857,1,0.2,0.25,-35.0,-1,1.0,0.4221010000001115
858,1,0.2,0.0625,-35.0,-1,1.0,0.6331010000003516
859,1,0.2,0.0625,35.0,1,1.0,0.7087010000000191
860,1,0.2,0.0,35.0,1,1.0,0.579801000000316
861,1,0.2,0.0,-35.0,1,0.0,0.25570099999958984
862,1,0.2,0.125,35.0,1,1.0,0.6966010000001006
863,1,0.2,0.125,-35.0,-1,1.0,0.4961009999997259
864,1,0.2,1.0,35.0,1,1.0,0.2801009999998314
865,1,0.2,0.0625,35.0,-1,0.0,3.0361009999996895
866,1,0.2,0.0625,35.0,-1,0.0,1.4405010000000402
867,1,0.2,1.0,-35.0,-1,1.0,2.6062009999996008
868,1,0.2,1.0,35.0,1,1.0,1.7004010000000562
869,1,0.2,1.0,35.0,1,1.0,0.38610099999959857
870,1,0.2,0.0625,35.0,-1,0.0,0.44400099999984377
871,1,0.2,1.0,35.0,1,1.0,3.4096009999998387
872,1,0.2,0.125,-35.0,-1,1.0,9.247600999999577
873,1,0.8,0.0,35.0,1,1.0,11.823601000000053
874,1,0.8,0.0,-35.0,-1,1.0,1.0915009999998802
875,1,0.8,0.25,35.0,1,1.0,7.810201000000234
876,1,0.8,0.125,35.0,1,1.0,5.708300999999665
877,1,0.8,0.25,35.0,1,1.0,0.5809009999998125
878,1,0.8,0.0,-35.0,-1,1.0,4.185200999999779
879,1,0.8,1.0,-35.0,-1,1.0,0.31460100000003877
880,1,0.8,0.125,-35.0,-1,1.0,0.5455009999996037
881,1,0.8,0.25,-35.0,-1,1.0,0.28100099999983286
882,1,0.8,0.25,-35.0,-1,1.0,0.33200099999976374
883,1,0.8,1.0,35.0,1,1.0,0.3144009999996342
884,1,0.8,0.125,-35.0,-1,1.0,0.229001000000153
885,1,0.8,0.0625,-35.0,-1,1.0,0.3845010000000002
886,1,0.8,0.0,-35.0,-1,1.0,0.3325009999998656
887,1,0.8,0.25,-35.0,-1,1.0,0.3648009999997157
888,1,0.8,0.0,-35.0,-1,1.0,4.705901000000267
889,1,0.8,0.125,-35.0,-1,1.0,16.508600999999544
890,1,0.8,0.125,-35.0,-1,1.0,0.39330100000006496
891,1,0.8,1.0,-35.0,-1,1.0,0.552400999999918
892,1,0.8,0.25,35.0,1,1.0,0.34330099999988306
893,1,0.8,0.0,-35.0,1,0.0,1.3523009999998976
894,1,0.8,0.0,35.0,1,1.0,10.563201000000845
895,1,0.8,0.125,-35.0,1,0.0,4.245901000000231
896,1,0.8,0.25,-35.0,-1,1.0,0.37380100000063976
897,1,0.8,1.0,-35.0,-1,1.0,0.3493010000011054
898,1,0.8,1.0,-35.0,-1,1.0,0.40400100000078965
899,1,0.8,0.25,35.0,1,1.0,0.3064010000007329
900,1,0.2,0.0,35.0,1,1.0,1.3740010000001348
901,1,0.2,0.125,-35.0,-1,1.0,0.9995010000002367
902,1,0.2,0.0625,-35.0,1,0.0,0.4541010000002643
903,1,0.2,0.25,35.0,1,1.0,0.3031010000004244
904,1,0.2,0.25,35.0,1,1.0,0.5575010000002294
905,1,0.2,0.0625,35.0,1,1.0,0.3866010000001552
906,1,0.2,0.0,35.0,1,1.0,3.5913009999994756
907,1,0.2,0.125,-35.0,1,0.0,8.623501000000033
908,1,0.2,1.0,35.0,1,1.0,0.6483010000001741
909,1,0.2,0.0,35.0,1,1.0,24.450401000000056
910,1,0.2,0.25,35.0,1,1.0,4.3154010000007474
911,1,0.2,1.0,35.0,1,1.0,5.448001000000659
912,1,0.2,0.25,35.0,1,1.0,0.31240100000013626
913,1,0.2,0.0625,-35.0,1,0.0,1.5248010000004797
914,1,0.2,1.0,-35.0,1,0.0,0.456001000001379
915,1,0.2,0.25,-35.0,1,0.0,0.4182009999994989
916,1,0.2,0.0,35.0,1,1.0,5.266101000001072
917,1,0.2,0.0625,-35.0,1,0.0,16.718800999999985
918,1,0.2,0.0,35.0,1,1.0,2.736801000000014
919,1,0.2,0.125,35.0,1,1.0,3.7222010000004957
920,1,0.2,0.0,-35.0,-1,1.0,2.5403009999999995
921,1,0.2,0.0,35.0,1,1.0,11.372801000000436
1,2,0.5,0.125,35.0,1,1.0,0.35650000000000004
2,2,0.5,0.0,35.0,-1,0.0,1.2524999999999995
3,2,0.5,0.25,-35.0,-1,1.0,0.5264999999999986
4,2,0.5,0.0,35.0,1,1.0,4.986699999999999
5,2,0.5,1.0,-35.0,-1,1.0,0.4939999999999998
6,2,0.5,0.0625,-35.0,1,0.0,7.793800000000001
7,2,0.5,0.125,35.0,1,1.0,0.4834999999999994
8,2,0.5,0.25,-35.0,-1,1.0,12.590500000000006
9,2,0.5,0.0,35.0,1,1.0,12.464199999999998
10,2,0.5,1.0,-35.0,-1,1.0,0.8078000000000003
11,2,0.5,0.125,-35.0,1,0.0,0.3433999999999884
12,2,0.5,0.125,35.0,1,1.0,0.488900000000001
13,2,0.5,0.25,-35.0,-1,1.0,0.5122999999999962
14,2,0.5,0.0625,-35.0,-1,1.0,0.6739999999999924
15,2,0.5,0.25,-35.0,-1,1.0,0.40269999999998163
16,2,0.5,0.25,-35.0,-1,1.0,0.3906999999999954
17,2,0.5,1.0,35.0,1,1.0,0.4783999999999935
18,2,0.5,0.125,35.0,-1,0.0,0.9858999999999867
19,2,0.5,0.0625,-35.0,-1,1.0,0.6503999999999905
20,2,0.5,0.0,-35.0,-1,1.0,0.49869999999998527
21,2,0.5,0.25,-35.0,-1,1.0,0.47230000000000416
22,2,0.5,0.0,35.0,-1,0.0,3.2852000000000032
23,2,0.5,0.25,-35.0,-1,1.0,0.37259999999997717
24,2,0.5,1.0,-35.0,-1,1.0,0.44130000000001246
25,2,0.5,1.0,-35.0,-1,1.0,0.3907000000000096
26,2,0.5,0.0625,-35.0,-1,1.0,7.252000000000038
27,2,0.5,0.0,-35.0,-1,1.0,0.27360000000001605
28,2,0.5,0.125,-35.0,-1,1.0,0.48390000000000555
29,2,0.5,1.0,-35.0,-1,1.0,0.3510000000000275
30,2,0.5,0.125,-35.0,-1,1.0,0.39270000000001914
31,2,0.5,0.0,35.0,-1,0.0,0.5478000000000236
32,2,0.5,0.25,-35.0,-1,1.0,0.3721000000000174
33,2,0.5,0.0625,-35.0,-1,1.0,4.507199999999983
34,2,0.5,0.125,35.0,1,1.0,0.467899999999986
35,2,0.5,1.0,-35.0,-1,1.0,0.4210000000000207
36,2,0.5,0.0,-35.0,-1,1.0,5.103600000000029
37,2,0.5,0.0,-35.0,-1,1.0,6.393900000000002
38,2,0.5,0.125,-35.0,-1,1.0,0.4414000000000158
39,2,0.5,1.0,35.0,1,1.0,0.3947000000000003
40,2,0.5,0.0625,-35.0,1,0.0,2.5678000000000054
41,2,0.5,0.0625,-35.0,-1,1.0,0.5799000000000092
42,2,0.5,0.0625,35.0,1,1.0,0.5772000000000048
43,2,0.5,0.25,-35.0,-1,1.0,0.43600000000000705
44,2,0.5,0.0,35.0,-1,0.0,4.630500000000012
45,2,0.5,0.125,-35.0,-1,1.0,0.401299999999992
46,2,0.5,0.0,-35.0,1,0.0,4.9462999999999795
47,2,0.5,0.25,35.0,1,1.0,0.264599000000004
48,2,0.5,0.25,35.0,1,1.0,0.2750000000000057
49,2,0.5,0.0,35.0,1,1.0,0.4812000000000296
50,2,0.5,0.0625,-35.0,1,0.0,0.4549000000000092
51,2,0.5,0.0625,35.0,1,1.0,0.4456000000000131
52,2,0.5,0.0,35.0,-1,0.0,1.210300000000018
53,2,0.5,0.0625,35.0,1,1.0,0.5276000000000067
54,2,0.5,1.0,-35.0,-1,1.0,0.33979999999996835
55,2,0.5,1.0,35.0,1,1.0,0.411200000000008
56,2,0.5,0.0,-35.0,-1,1.0,0.4152000000000271
57,2,0.5,0.25,-35.0,-1,1.0,0.3242999999999938
58,2,0.5,0.0,35.0,-1,0.0,0.37529999999998154
59,2,0.5,0.125,-35.0,-1,1.0,0.29909999999995307
60,2,0.5,0.0,35.0,1,1.0,0.42480000000000473
61,2,0.5,0.25,-35.0,-1,1.0,0.35530000000005657
62,2,0.5,0.0625,35.0,-1,0.0,1.3704000000000747
63,2,0.5,0.0,-35.0,-1,1.0,0.30429999999995516
64,2,0.5,1.0,-35.0,-1,1.0,0.3683000000000334
65,2,0.5,1.0,35.0,1,1.0,0.35340000000007876
66,2,0.5,0.0625,35.0,-1,0.0,0.28820000000001755
67,2,0.5,0.0,35.0,-1,0.0,0.4034000000000333
68,2,0.5,0.25,-35.0,-1,1.0,0.36520000000001573
69,2,0.5,0.0,35.0,1,1.0,0.40490000000005466
70,2,0.5,0.125,-35.0,-1,1.0,0.44630000000006476
71,2,0.5,0.0625,35.0,-1,0.0,0.7253999999999792
72,2,0.5,0.125,-35.0,-1,1.0,5.654500000000041
73,2,0.5,0.25,35.0,1,1.0,0.41329999999999245
74,2,0.5,0.0625,-35.0,-1,1.0,0.31920000000002346
75,2,0.5,1.0,-35.0,-1,1.0,0.5032000000000494
76,2,0.5,0.125,-35.0,-1,1.0,0.8838000000000079
77,2,0.5,0.125,35.0,1,1.0,0.5281000000000518
78,2,0.5,0.125,35.0,1,1.0,0.7923000000000116
79,2,0.5,0.0,-35.0,-1,1.0,4.789899999999989
80,2,0.5,0.0,-35.0,-1,1.0,3.316000000000031
81,2,0.5,1.0,35.0,1,1.0,0.45659999999998035
82,2,0.5,0.0625,-35.0,-1,1.0,0.39549999999997
83,2,0.5,0.25,-35.0,-1,1.0,0.3737000000000421
84,2,0.5,0.125,35.0,1,1.0,0.7210000000000036
85,2,0.5,0.0,35.0,-1,0.0,0.4718000000000302
86,2,0.5,1.0,-35.0,-1,1.0,0.2790000000000532
87,2,0.5,0.0625,35.0,-1,0.0,0.49579999999997426
88,2,0.5,1.0,35.0,1,1.0,0.3970000000000482
89,2,0.5,0.25,35.0,1,1.0,0.42130000000003065
90,2,0.5,0.25,35.0,1,1.0,0.4782999999999902
91,2,0.8,0.25,-35.0,-1,1.0,0.42480000000000473
92,2,0.8,1.0,-35.0,-1,1.0,0.33339999999998327
93,2,0.8,0.125,-35.0,-1,1.0,0.3602000000000203
94,2,0.8,0.0625,-35.0,-1,1.0,0.4227999999999952
95,2,0.8,0.0625,-35.0,-1,1.0,0.8704000000000178
96,2,0.8,0.0,35.0,1,1.0,0.6755999999999744
97,2,0.8,0.25,-35.0,-1,1.0,0.47140000000007376
98,2,0.8,0.25,-35.0,-1,1.0,0.4294999999999618
99,2,0.8,0.0,-35.0,-1,1.0,0.364400000000046
100,2,0.8,1.0,-35.0,-1,1.0,0.31630000000001246
101,2,0.8,0.0,-35.0,-1,1.0,3.9055000000000177
102,2,0.8,1.0,-35.0,-1,1.0,0.33850000000001046
103,2,0.8,0.125,-35.0,-1,1.0,0.5207000000000335
104,2,0.8,0.0625,-35.0,-1,1.0,0.3872000000000071
105,2,0.8,0.125,-35.0,-1,1.0,0.3488999999999578
106,2,0.8,0.0,-35.0,-1,1.0,0.5474000000000387
107,2,0.8,0.0625,35.0,-1,0.0,0.48750000000001137
108,2,0.8,0.125,-35.0,-1,1.0,0.3351000000000113
109,2,0.8,0.0625,-35.0,-1,1.0,4.455399999999997
110,2,0.8,0.125,-35.0,-1,1.0,0.36000000000001364
111,2,0.8,0.25,-35.0,-1,1.0,0.2755999999999972
112,2,0.8,0.125,-35.0,-1,1.0,0.3532999999999902
113,2,0.8,0.0,35.0,-1,0.0,0.615600000000029
114,2,0.8,0.25,-35.0,-1,1.0,0.3754999999999882
115,2,0.8,0.125,-35.0,-1,1.0,0.4444000000000301
116,2,0.8,0.125,-35.0,-1,1.0,0.3861999999999739
117,2,0.8,0.25,-35.0,-1,1.0,0.35070000000001755
118,2,0.8,0.0,-35.0,1,0.0,4.155300000000011
119,2,0.8,0.125,-35.0,-1,1.0,0.3645000000000209
120,2,0.8,0.25,-35.0,-1,1.0,0.33180000000004384
121,2,0.8,0.0625,-35.0,-1,1.0,0.3298000000000343
122,2,0.8,0.0,-35.0,-1,1.0,0.31880000000006703
123,2,0.8,0.0625,-35.0,-1,1.0,0.3402999999999565
124,2,0.8,1.0,-35.0,-1,1.0,0.22269999999980428
125,2,0.8,0.0625,-35.0,-1,1.0,0.31609999999989213
126,2,0.8,0.125,-35.0,-1,1.0,0.3652999999999338
127,2,0.8,0.25,35.0,1,1.0,0.5933999999999742
128,2,0.8,1.0,-35.0,-1,1.0,0.4172000000000935
129,2,0.8,0.125,-35.0,-1,1.0,0.31799999999998363
130,2,0.8,0.0625,-35.0,-1,1.0,0.2925999999998794
131,2,0.8,0.0625,-35.0,-1,1.0,0.32819999999992433
132,2,0.8,1.0,-35.0,-1,1.0,0.43209999999999127
133,2,0.8,0.0625,-35.0,-1,1.0,0.743099999999913
134,2,0.8,0.125,-35.0,-1,1.0,0.31199999999989814
135,2,0.8,0.0,-35.0,-1,1.0,0.3726999999998952
136,2,0.8,0.0,-35.0,-1,1.0,0.29729999999995016
137,2,0.8,1.0,-35.0,-1,1.0,0.16390000000001237
138,2,0.8,0.0625,35.0,-1,0.0,0.27290000000004966
139,2,0.8,0.0,-35.0,-1,1.0,0.3654000000000224
140,2,0.8,0.0625,35.0,-1,0.0,5.661099999999919
141,2,0.8,0.0,-35.0,-1,1.0,0.17619999999999436
142,2,0.8,1.0,-35.0,-1,1.0,0.28369999999995343
143,2,0.8,0.0,-35.0,-1,1.0,0.3808999999998832
144,2,0.8,0.0625,-35.0,-1,1.0,0.37979999999993197
145,2,0.8,0.125,35.0,-1,0.0,0.7133000000000038
146,2,0.8,0.0,-35.0,-1,1.0,0.29129999999986467
147,2,0.8,0.125,35.0,1,1.0,0.7971999999999753
148,2,0.8,0.0,-35.0,-1,1.0,2.63919999999996
149,2,0.8,0.0625,-35.0,-1,1.0,0.2459999999999809
150,2,0.8,0.0625,-35.0,-1,1.0,0.32360000000005584
151,2,0.8,0.25,-35.0,-1,1.0,0.250699999999938
152,2,0.8,0.0625,-35.0,-1,1.0,0.3444000000000642
153,2,0.8,0.25,-35.0,-1,1.0,0.24230000000000018
154,2,0.8,0.0625,-35.0,-1,1.0,0.3127999999999247
155,2,0.8,1.0,35.0,1,1.0,0.4901999999999589
156,2,0.8,0.125,-35.0,-1,1.0,0.250699999999938
157,2,0.8,0.125,-35.0,-1,1.0,0.2890999999998485
158,2,0.8,0.25,-35.0,-1,1.0,0.40229999999985466
159,2,0.8,0.0,-35.0,-1,1.0,0.3652999999999338
160,2,0.8,0.125,-35.0,-1,1.0,0.27049999999997
161,2,0.8,0.125,35.0,1,1.0,0.407799999999952
162,2,0.8,0.0,-35.0,-1,1.0,0.287900000000036
163,2,0.8,0.0,-35.0,-1,1.0,0.30169999999986885
164,2,0.8,0.25,-35.0,-1,1.0,0.30369999999993524
165,2,0.8,0.125,-35.0,-1,1.0,0.28089999999997417
166,2,0.8,0.125,35.0,-1,0.0,0.9414000000000442
167,2,0.8,1.0,-35.0,-1,1.0,0.3161000000000058
168,2,0.2,0.0,-35.0,-1,1.0,0.3627999999998792
169,2,0.2,0.0625,35.0,1,1.0,3.3635999999999058
170,2,0.2,0.0,35.0,-1,0.0,4.481999999999971
171,2,0.2,0.25,35.0,1,1.0,0.29539999999997235
172,2,0.2,0.0,35.0,1,1.0,0.20289999999999964
173,2,0.2,0.125,-35.0,-1,1.0,0.5119999999999436
174,2,0.2,1.0,-35.0,-1,1.0,0.3526999999999134
175,2,0.2,1.0,35.0,1,1.0,0.30949999999995725
176,2,0.2,0.25,35.0,1,1.0,0.4035000000000082
177,2,0.2,0.125,-35.0,1,0.0,0.5120999999999185
178,2,0.2,0.25,-35.0,-1,1.0,0.32539999999994507
179,2,0.2,0.125,35.0,-1,0.0,0.37019999999995434
180,2,0.2,0.125,35.0,1,1.0,0.3349999999999227
181,2,0.2,0.125,35.0,-1,0.0,2.9573999999998932
182,2,0.2,0.0,-35.0,-1,1.0,0.22079999999994016
183,2,0.2,1.0,-35.0,-1,1.0,0.3889999999998963
184,2,0.2,0.0,35.0,-1,0.0,0.4636000000000422
185,2,0.2,0.125,35.0,-1,0.0,0.6756990000000087
186,2,0.2,0.0,35.0,-1,0.0,5.981199999999944
187,2,0.2,0.0,35.0,1,1.0,0.5317000000000007
188,2,0.2,0.125,35.0,1,1.0,0.36570000000006075
189,2,0.2,0.0,-35.0,-1,1.0,2.7447999999998274
190,2,0.2,0.125,-35.0,-1,1.0,0.3788999999999305
191,2,0.2,0.125,35.0,1,1.0,0.3856999999999289
192,2,0.2,0.0,-35.0,-1,1.0,0.36360000000001946
193,2,0.2,0.0625,35.0,1,1.0,0.4591000000000349
194,2,0.2,0.0625,-35.0,-1,1.0,0.4220999999998867
195,2,0.2,0.25,-35.0,-1,1.0,0.3572999999998956
196,2,0.8,1.0,-35.0,-1,1.0,0.29909999999995307
197,2,0.8,0.0,-35.0,-1,1.0,0.32599900000002435
198,2,0.8,0.0,-35.0,-1,1.0,0.3186000000000604
199,2,0.8,0.125,35.0,1,1.0,0.33969999999999345
200,2,0.8,0.25,35.0,1,1.0,0.5117000000000189
201,2,0.8,0.0625,-35.0,-1,1.0,0.3343999999999596
202,2,0.8,0.125,-35.0,-1,1.0,0.25889999999992597
203,2,0.8,1.0,-35.0,-1,1.0,0.2502000000000635
204,2,0.8,0.0625,-35.0,-1,1.0,0.34209999999995944
205,2,0.8,1.0,-35.0,-1,1.0,0.26179999999988013
206,2,0.8,0.125,35.0,1,1.0,2.0652000000000044
207,2,0.8,0.125,-35.0,-1,1.0,0.3808999999999969
208,2,0.8,0.125,-35.0,-1,1.0,0.2298000000000684
209,2,0.8,0.0625,-35.0,-1,1.0,0.22719999999992524
210,2,0.8,0.25,-35.0,-1,1.0,0.2742999999999256
211,2,0.8,0.0625,-35.0,-1,1.0,0.39409999999998035
212,2,0.8,0.125,-35.0,-1,1.0,0.38029999999992015
213,2,0.8,0.25,35.0,1,1.0,0.49459999999999127
214,2,0.8,0.25,-35.0,-1,1.0,0.3834999999999127
215,2,0.8,0.25,-35.0,-1,1.0,0.30930000000000746
216,2,0.8,1.0,-35.0,-1,1.0,0.38570000000004256
217,2,0.8,0.0625,-35.0,-1,1.0,0.30969999999990705
218,2,0.8,0.125,-35.0,-1,1.0,0.48749999999984084
219,2,0.8,0.25,-35.0,-1,1.0,0.30609999999990123
220,2,0.8,0.0,-35.0,-1,1.0,0.31609999999989213
221,2,0.8,0.0625,35.0,-1,0.0,0.926900000000046
222,2,0.8,0.125,-35.0,-1,1.0,0.2437999999999647
223,2,0.8,0.25,-35.0,-1,1.0,0.3160000000000309
224,2,0.8,0.25,35.0,1,1.0,0.3605999999999767
225,2,0.8,1.0,35.0,1,1.0,0.27289999999993597
226,2,0.8,0.0,-35.0,1,0.0,4.788000000000011
227,2,0.8,0.0,35.0,-1,0.0,0.5311000000000377
228,2,0.8,1.0,-35.0,-1,1.0,0.46059999999988577
229,2,0.8,0.0,-35.0,1,0.0,3.0034999999999172
230,2,0.8,0.0,-35.0,-1,1.0,0.40999999999996817
231,2,0.8,0.0,-35.0,-1,1.0,0.41219999999998436
232,2,0.8,0.125,-35.0,-1,1.0,0.40239999999994325
233,2,0.8,0.25,35.0,1,1.0,0.3972999999999729
234,2,0.8,0.25,35.0,1,1.0,0.3120000000000118
235,2,0.8,0.25,35.0,1,1.0,0.47929999999996653
236,2,0.8,1.0,-35.0,-1,1.0,0.35839999999996053
237,2,0.8,0.0625,-35.0,-1,1.0,0.3420000000000982
238,2,0.8,0.0625,35.0,-1,0.0,6.112899999999968
239,2,0.8,0.0625,35.0,1,1.0,2.3944999999999936
240,2,0.8,0.0625,-35.0,-1,1.0,0.4375
241,2,0.8,1.0,-35.0,-1,1.0,0.3144999999999527
242,2,0.8,0.25,-35.0,-1,1.0,0.3283999999999878
243,2,0.8,0.25,35.0,1,1.0,0.667699999999968
244,2,0.8,1.0,-35.0,-1,1.0,0.2906000000000404
245,2,0.8,0.125,-35.0,-1,1.0,0.2981999999999516
246,2,0.8,0.25,-35.0,-1,1.0,0.2199999999999136
247,2,0.8,0.125,-35.0,-1,1.0,0.4233999999999014
248,2,0.8,0.125,35.0,1,1.0,0.3956999999999198
249,2,0.8,0.0625,35.0,-1,0.0,0.2963999999999487
250,2,0.8,1.0,-35.0,-1,1.0,0.3227000000000544
251,2,0.8,0.25,-35.0,-1,1.0,0.2537000000000944
252,2,0.8,0.25,-35.0,-1,1.0,0.2946999999999207
253,2,0.8,0.25,-35.0,-1,1.0,0.23969999999997071
254,2,0.8,0.0,-35.0,-1,1.0,0.37399999999990996
255,2,0.8,0.25,-35.0,-1,1.0,0.24329999999997654
256,2,0.8,0.25,35.0,1,1.0,0.31739999999990687
257,2,0.8,1.0,-35.0,-1,1.0,0.27350000000001273
258,2,0.8,0.25,-35.0,-1,1.0,0.30769999999995434
259,2,0.8,0.0,35.0,-1,0.0,0.3469000000000051
260,2,0.8,1.0,-35.0,-1,1.0,0.3311999999998534
261,2,0.8,0.0625,35.0,1,1.0,1.3502999999998337
262,2,0.8,0.25,-35.0,-1,1.0,0.37469999999984793
263,2,0.8,0.125,-35.0,-1,1.0,0.27739999999994325
264,2,0.8,0.0,-35.0,-1,1.0,4.897999999999911
265,2,0.8,0.125,-35.0,-1,1.0,0.2805000000000746
266,2,0.8,0.0,-35.0,-1,1.0,0.36169999999992797
267,2,0.8,0.125,-35.0,-1,1.0,0.2743999999997868
268,2,0.8,0.125,-35.0,-1,1.0,0.24540000000001783
269,2,0.8,0.0,-35.0,-1,1.0,0.31750000000010914
270,2,0.8,0.0,-35.0,-1,1.0,0.38869999999974425
271,2,0.8,0.0,-35.0,-1,1.0,0.18459999999981846
272,2,0.8,0.25,-35.0,-1,1.0,0.3319000000001324
273,2,0.8,0.125,-35.0,-1,1.0,0.16779999999994288
274,2,0.8,0.25,35.0,1,1.0,0.3788999999999305
275,2,0.8,1.0,-35.0,-1,1.0,0.23159999999984393
276,2,0.8,1.0,-35.0,-1,1.0,0.2687999999998283
277,2,0.8,1.0,-35.0,-1,1.0,0.2684999999999036
278,2,0.8,0.0625,-35.0,-1,1.0,0.26900000000000546
279,2,0.8,0.0,35.0,-1,0.0,0.2581000000000131
280,2,0.8,0.25,-35.0,-1,1.0,0.3190999999999349
281,2,0.8,1.0,-35.0,-1,1.0,0.26480000000015025
282,2,0.8,0.0,-35.0,-1,1.0,0.8793000000000575
283,2,0.8,0.0,35.0,-1,0.0,0.40869999999995343
284,2,0.8,0.0625,-35.0,1,0.0,0.11950000000001637
285,2,0.8,1.0,-35.0,-1,1.0,0.26559999999994943
286,2,0.8,0.25,-35.0,-1,1.0,0.2961999999999989
287,2,0.8,0.0625,-35.0,-1,1.0,0.38239999999996144
288,2,0.8,0.0625,-35.0,-1,1.0,0.30959999999981846
289,2,0.8,0.0625,-35.0,-1,1.0,0.3321000000000822
290,2,0.8,0.25,-35.0,-1,1.0,0.29970000000002983
291,2,0.2,0.25,35.0,-1,0.0,0.2889999999997599
292,2,0.2,0.25,35.0,1,1.0,0.3030999999998585
293,2,0.2,0.0625,35.0,1,1.0,0.309099999999944
294,2,0.2,0.125,35.0,-1,0.0,0.3300000000001546
295,2,0.2,0.25,35.0,1,1.0,0.4193000000000211
296,2,0.2,1.0,-35.0,-1,1.0,0.2100999999997839
297,2,0.2,0.0625,35.0,1,1.0,0.7735999999999876
298,2,0.2,0.0,35.0,-1,0.0,0.47919999999999163
299,2,0.2,0.25,35.0,1,1.0,0.4338000000000193
300,2,0.2,0.0625,35.0,1,1.0,0.40650000000005093
301,2,0.2,0.0625,35.0,1,1.0,0.33369999999990796
302,2,0.2,0.125,-35.0,-1,1.0,0.25309999999990396
303,2,0.2,0.25,35.0,-1,0.0,0.17049999999994725
304,2,0.2,0.125,35.0,1,1.0,0.22959999999989122
305,2,0.2,0.125,-35.0,-1,1.0,0.26060000000006767
306,2,0.2,0.125,35.0,1,1.0,0.29649999999969623
307,2,0.2,1.0,35.0,1,1.0,0.44749999999976353
308,2,0.2,0.25,35.0,1,1.0,0.4936000000000149
309,2,0.2,0.125,35.0,-1,0.0,0.800899999999956
310,2,0.2,1.0,35.0,1,1.0,0.4032999999999447
311,2,0.2,1.0,35.0,1,1.0,0.3110999999998967
312,2,0.2,0.0625,35.0,-1,0.0,0.3505999999999858
313,2,0.2,0.125,35.0,1,1.0,0.39780000000018845
314,2,0.2,0.0,35.0,1,1.0,0.2641999999998461
315,2,0.2,0.125,35.0,1,1.0,0.3548999999998159
316,2,0.2,1.0,35.0,1,1.0,0.25720000000001164
317,2,0.2,0.125,35.0,-1,0.0,0.4015999999999167
318,2,0.2,0.0,35.0,-1,0.0,0.3205999999997857
319,2,0.2,0.125,35.0,1,1.0,0.22510000000011132
320,2,0.2,0.125,-35.0,-1,1.0,0.3572999999998956
321,2,0.2,0.125,35.0,-1,0.0,0.5183999999999287
322,2,0.2,0.125,35.0,-1,0.0,0.30769999999984066
323,2,0.2,0.25,35.0,1,1.0,0.31209999999987303
324,2,0.2,0.0,35.0,-1,0.0,0.31780000000003383
325,2,0.2,1.0,35.0,1,1.0,0.3386000000000422
326,2,0.2,0.125,35.0,1,1.0,0.5015000000000782
327,2,0.2,0.125,35.0,-1,0.0,0.22879999999986467
328,2,0.2,0.0,-35.0,1,0.0,0.3945000000001073
329,2,0.2,1.0,-35.0,-1,1.0,0.29579999999987194
330,2,0.2,0.0,35.0,-1,0.0,0.3082999999999174
331,2,0.2,1.0,35.0,1,1.0,0.3390999999999167
332,2,0.2,0.0,-35.0,-1,1.0,0.40840000000002874
333,2,0.2,0.125,35.0,1,1.0,0.3191999999999098
334,2,0.2,0.0625,35.0,-1,0.0,2.101699999999937
335,2,0.8,0.0,-35.0,-1,1.0,0.4659999999998945
336,2,0.8,0.25,-35.0,-1,1.0,0.24499999999989086
337,2,0.8,1.0,35.0,1,1.0,0.3061999999999898
338,2,0.8,0.125,-35.0,-1,1.0,0.49880000000007385
339,2,0.8,0.0,-35.0,-1,1.0,5.36629999999991
340,2,0.8,0.0625,35.0,-1,0.0,0.3588000000002012
341,2,0.8,0.0,35.0,-1,0.0,0.33330000000000837
342,2,0.8,0.125,-35.0,1,0.0,0.4122999999997319
343,2,0.8,0.25,-35.0,-1,1.0,0.3330999999998312
344,2,0.8,0.25,-35.0,-1,1.0,0.3891000000000986
345,2,0.8,0.0625,-35.0,-1,1.0,0.3003000000001066
346,2,0.8,0.25,35.0,1,1.0,0.32600000000002183
347,2,0.8,0.0,-35.0,-1,1.0,0.4068999999999505
348,2,0.8,1.0,-35.0,-1,1.0,0.272499999999809
349,2,0.8,0.0,35.0,-1,0.0,0.28710000000000946
350,2,0.8,0.125,-35.0,-1,1.0,0.29970000000002983
351,2,0.8,1.0,-35.0,-1,1.0,0.28379999999992833
352,2,0.8,0.0,-35.0,-1,1.0,0.1895999999999276
353,2,0.8,0.0,-35.0,-1,1.0,0.2939000000001215
354,2,0.8,0.25,35.0,-1,0.0,0.15299999999979264
355,2,0.8,0.0,-35.0,-1,1.0,0.37719999999967513
356,2,0.8,1.0,-35.0,-1,1.0,0.4265000000002601
357,2,0.8,0.0625,35.0,-1,0.0,0.3706999999999425
358,2,0.8,0.0,-35.0,-1,1.0,0.37689899999986665
359,2,0.8,0.0,-35.0,-1,1.0,0.26769999999987704
360,2,0.8,0.0625,35.0,-1,0.0,0.3301000000001295
361,2,0.8,0.25,-35.0,-1,1.0,0.3108999999999469
362,2,0.8,0.0625,-35.0,-1,1.0,0.327199999999948
363,2,0.8,1.0,-35.0,-1,1.0,0.29480000000012296
364,2,0.8,1.0,-35.0,-1,1.0,0.28369999999995343
365,2,0.8,0.125,-35.0,-1,1.0,0.4311999999999898
366,2,0.8,0.125,-35.0,-1,1.0,0.197400000000016
367,2,0.8,0.125,35.0,1,1.0,1.397899999999936
368,2,0.8,1.0,-35.0,-1,1.0,0.2340999999998985
369,2,0.8,0.125,35.0,-1,0.0,0.38809999999989486
370,2,0.8,0.125,35.0,-1,0.0,0.28759999999988395
371,2,0.8,0.25,-35.0,-1,1.0,0.28160000000002583
372,2,0.8,1.0,35.0,1,1.0,0.29119999999988977
373,2,0.8,1.0,-35.0,-1,1.0,0.30179999999973006
374,2,0.8,0.0,35.0,-1,0.0,0.29419999999981883
375,2,0.8,0.0625,35.0,-1,0.0,0.30520000000001346
376,2,0.8,1.0,-35.0,-1,1.0,0.2442999999998392
377,2,0.8,0.0,-35.0,-1,1.0,0.24859999999989668
378,2,0.8,0.25,-35.0,-1,1.0,0.32789999999999964
379,2,0.8,0.125,-35.0,-1,1.0,0.38220000000001164
380,2,0.8,0.25,-35.0,-1,1.0,0.2579999999998108
381,2,0.8,0.0,-35.0,-1,1.0,0.3889999999998963
382,2,0.8,0.0,-35.0,-1,1.0,0.38149999999996
383,2,0.8,0.25,-35.0,-1,1.0,0.3423999999999978
384,2,0.8,0.125,-35.0,-1,1.0,0.3184000000001106
385,2,0.8,0.0625,-35.0,-1,1.0,0.29919999999992797
386,2,0.8,0.25,-35.0,-1,1.0,0.26860000000010587
387,2,0.8,0.0,-35.0,-1,1.0,0.2760000000000673
388,2,0.8,1.0,-35.0,-1,1.0,0.32519999999999527
389,2,0.8,0.25,35.0,1,1.0,0.29949999999985266
390,2,0.8,1.0,-35.0,-1,1.0,0.28189999999972315
391,2,0.8,1.0,-35.0,-1,1.0,0.2862999999999829
392,2,0.8,0.0,-35.0,-1,1.0,0.35209999999983665
393,2,0.8,0.0,35.0,-1,0.0,0.3164999999999054
394,2,0.8,0.0625,-35.0,-1,1.0,0.25900000000001455
395,2,0.8,1.0,-35.0,-1,1.0,0.2765999999999167
396,2,0.8,0.125,-35.0,-1,1.0,0.36229999999977736
397,2,0.8,0.0625,35.0,-1,0.0,0.32350000000019463
398,2,0.8,0.25,35.0,1,1.0,0.2826999999999771
399,2,0.8,1.0,-35.0,-1,1.0,0.2601999999999407
400,2,0.8,0.125,-35.0,-1,1.0,0.25270000000000437
401,2,0.8,0.0,-35.0,-1,1.0,0.6234999999999218
402,2,0.8,0.25,-35.0,-1,1.0,0.3162999999999556
403,2,0.8,0.125,35.0,1,1.0,0.387000000000171
404,2,0.8,0.0625,-35.0,-1,1.0,0.22959999999989122
405,2,0.8,0.0,-35.0,-1,1.0,0.3372999999999138
406,2,0.8,1.0,-35.0,-1,1.0,0.3231999999998152
407,2,0.8,1.0,-35.0,-1,1.0,0.46060000000011314
408,2,0.8,0.25,-35.0,-1,1.0,0.4397999999998774
409,2,0.8,0.0,-35.0,-1,1.0,0.22079999999982647
410,2,0.8,0.125,-35.0,-1,1.0,0.31009999999992033
411,2,0.8,0.0,-35.0,-1,1.0,0.39079999999989923
412,2,0.8,0.125,-35.0,-1,1.0,0.3103000000000975
413,2,0.2,1.0,-35.0,-1,1.0,0.254399999999805
414,2,0.2,0.0625,35.0,1,1.0,0.4701999999999771
415,2,0.2,0.0,-35.0,-1,1.0,0.4112999999999829
416,2,0.2,0.125,35.0,-1,0.0,0.18029999999976098
417,2,0.2,0.0625,35.0,-1,0.0,0.5343999999997777
418,2,0.2,0.125,35.0,1,1.0,0.5205000000000837
419,2,0.2,0.25,35.0,1,1.0,0.3248000000000957
420,2,0.2,0.0,35.0,-1,0.0,0.4939999999999145
421,2,0.2,0.0625,35.0,-1,0.0,0.3652999999999338
422,2,0.2,0.125,35.0,1,1.0,0.32780000000002474
423,2,0.2,0.0,35.0,-1,0.0,0.31189999999992324
424,2,0.2,0.0,35.0,-1,0.0,0.4677999999998974
425,2,0.2,1.0,35.0,1,1.0,0.38190000000008695
426,2,0.2,0.0625,35.0,-1,0.0,0.23799999999982901
427,2,0.2,0.0,35.0,-1,0.0,0.3421000000000731
428,2,0.2,0.0,35.0,1,1.0,0.44450000000006185
429,2,0.2,1.0,-35.0,-1,1.0,0.33209999999985484
430,2,0.2,0.0625,-35.0,-1,1.0,0.24849999999992178
431,2,0.2,0.0,35.0,-1,0.0,0.10560000000009495
432,2,0.2,0.0,35.0,-1,0.0,0.35819999999989705
433,2,0.2,0.125,35.0,-1,0.0,0.3856999999998152
434,2,0.2,1.0,35.0,1,1.0,0.3652999999999338
435,2,0.2,0.25,35.0,1,1.0,0.44590000000016516
436,2,0.8,1.0,-35.0,-1,1.0,0.3118000000001757
437,2,0.8,1.0,-35.0,-1,1.0,0.26929999999993015
438,2,0.8,0.25,35.0,1,1.0,0.3585000000000491
439,2,0.8,0.0,35.0,-1,0.0,0.2927999999999429
440,2,0.8,0.0625,-35.0,1,0.0,4.67229999999995
441,2,0.8,0.125,35.0,1,1.0,0.5430999999998676
442,2,0.8,0.0,-35.0,1,0.0,5.2789000000000215
443,2,0.8,0.0,35.0,-1,0.0,0.4900000000000091
444,2,0.8,0.125,35.0,1,1.0,0.47929999999996653
445,2,0.8,0.25,-35.0,-1,1.0,0.36019999999984975
446,2,0.8,1.0,-35.0,1,0.0,0.12920000000008258
447,2,0.8,0.0625,-35.0,-1,1.0,0.5068999999998596
448,2,0.8,0.0,35.0,-1,0.0,0.2760000000000673
449,2,0.8,0.0625,35.0,-1,0.0,0.3302000000001044
450,2,0.8,0.125,-35.0,-1,1.0,0.3400000000001455
451,2,0.8,0.0625,-35.0,-1,1.0,0.310399999999845
452,2,0.8,0.0625,35.0,-1,0.0,0.47969999999963875
453,2,0.8,0.25,-35.0,-1,1.0,0.34050000000002
454,2,0.8,1.0,-35.0,-1,1.0,0.25680000000011205
455,2,0.8,1.0,-35.0,-1,1.0,0.24729999999976826
456,2,0.8,0.0625,-35.0,-1,1.0,0.20339999999987413
457,2,0.8,1.0,-35.0,-1,1.0,0.23779999999987922
458,2,0.8,0.0,-35.0,-1,1.0,0.21670000000017353
459,2,0.8,1.0,-35.0,-1,1.0,0.29109999999991487
460,2,0.8,0.0625,35.0,-1,0.0,0.15020000000004075
461,2,0.8,0.25,-35.0,-1,1.0,0.3912000000000262
462,2,0.8,0.0,-35.0,-1,1.0,0.29359999999996944
463,2,0.8,1.0,-35.0,-1,1.0,0.15440000000012333
464,2,0.8,0.125,-35.0,-1,1.0,0.25030000000015207
465,2,0.8,1.0,35.0,1,1.0,0.9845000000000255
466,2,0.8,0.0625,35.0,-1,0.0,0.26739999999995234
467,2,0.8,0.125,-35.0,-1,1.0,0.36809999999991305
468,2,0.8,0.0,-35.0,-1,1.0,0.2977000000000771
469,2,0.8,0.0,35.0,-1,0.0,0.25129999999990105
470,2,0.8,0.125,-35.0,-1,1.0,0.2943000000000211
471,2,0.8,1.0,-35.0,-1,1.0,0.24519999999984066
472,2,0.8,0.0,35.0,-1,0.0,0.29750000000012733
473,2,0.8,0.25,-35.0,-1,1.0,0.27530000000001564
474,2,0.8,0.0625,-35.0,-1,1.0,0.28759999999988395
475,2,0.8,0.0625,-35.0,-1,1.0,0.21529999999984284
476,2,0.8,0.0,35.0,-1,0.0,0.2316000000000713
477,2,0.8,0.25,-35.0,-1,1.0,0.39200000000005275
478,2,0.2,0.0625,35.0,1,1.0,0.2881999999999607
479,2,0.2,1.0,-35.0,-1,1.0,0.3222000000000662
480,2,0.2,0.0,35.0,-1,0.0,0.28500000000008185
481,2,0.2,0.25,-35.0,-1,1.0,0.31579999999985375
482,2,0.2,0.0625,35.0,1,1.0,0.5717999999999392
483,2,0.2,0.25,35.0,1,1.0,0.32580000000007203
484,2,0.2,0.0625,35.0,-1,0.0,0.13809999999989486
485,2,0.2,0.0625,35.0,1,1.0,0.4861000000000786
486,2,0.2,0.0625,35.0,1,1.0,0.1754000000000815
487,2,0.2,0.0,35.0,-1,0.0,0.2694000000001324
488,2,0.2,0.0625,35.0,1,1.0,0.3586999999999989
489,2,0.2,0.25,35.0,1,1.0,0.27949999999987085
490,2,0.2,0.25,35.0,1,1.0,0.6554000000000997
491,2,0.2,0.25,35.0,1,1.0,0.42629999999985557
492,2,0.2,1.0,35.0,1,1.0,0.43219999999996617
493,2,0.2,0.0,35.0,-1,0.0,0.28979999999978645
494,2,0.2,1.0,35.0,1,1.0,0.47919999999999163
495,2,0.2,0.125,35.0,1,1.0,0.4031999999999698
496,2,0.2,0.125,35.0,1,1.0,0.48250000000007276
497,2,0.2,0.125,-35.0,-1,1.0,0.2866999999998825
498,2,0.2,0.0,35.0,-1,0.0,0.4493999999999687
499,2,0.2,0.25,35.0,1,1.0,0.26700000000005275
500,2,0.2,0.0,35.0,1,1.0,0.45299999999997453
501,2,0.2,0.25,35.0,1,1.0,0.3038000000001375
502,2,0.2,0.0625,35.0,1,1.0,0.42299999999977445
503,2,0.2,1.0,35.0,1,1.0,0.3837999999998374
504,2,0.2,0.25,35.0,1,1.0,1.1230000000000473
505,2,0.2,0.25,-35.0,-1,1.0,0.324100000000044
506,2,0.2,1.0,35.0,1,1.0,0.3167999999998301
507,2,0.2,0.125,-35.0,-1,1.0,0.13419999999996435
508,2,0.2,1.0,35.0,1,1.0,0.40000000000009095
509,2,0.2,0.0625,35.0,-1,0.0,0.23759999999970205
510,2,0.8,0.0,-35.0,-1,1.0,0.29700000000002547
511,2,0.8,0.125,35.0,1,1.0,0.3043999999999869
512,2,0.8,1.0,-35.0,-1,1.0,0.32009999999991123
513,2,0.8,1.0,-35.0,-1,1.0,0.24799999999981992
514,2,0.8,0.0,-35.0,-1,1.0,0.24689999999986867
515,2,0.8,0.25,-35.0,-1,1.0,0.27130000000011023
516,2,0.8,1.0,-35.0,-1,1.0,0.2441999999998643
517,2,0.8,0.0,35.0,-1,0.0,0.28159999999979846
518,2,0.8,0.0,-35.0,-1,1.0,0.2806000000000495
519,2,0.8,0.0625,35.0,-1,0.0,0.3149999999998272
520,2,0.8,0.0625,-35.0,-1,1.0,0.2674000000001797
521,2,0.8,1.0,-35.0,-1,1.0,0.28510000000005675
522,2,0.8,0.25,35.0,1,1.0,0.38799999999991996
523,2,0.8,0.25,-35.0,-1,1.0,0.27169999999978245
524,2,0.8,0.0,35.0,-1,0.0,0.2780999999999949
525,2,0.8,0.125,-35.0,-1,1.0,0.3020999999994274
526,2,0.8,0.125,-35.0,-1,1.0,0.24789999999984502
527,2,0.8,0.0,-35.0,-1,1.0,0.2120999999997366
528,2,0.8,0.0,-35.0,-1,1.0,0.34780000000000655
529,2,0.8,0.0,-35.0,-1,1.0,0.2590000000004693
530,2,0.8,0.125,35.0,1,1.0,0.5213999999996304
531,2,0.8,1.0,-35.0,-1,1.0,0.22499999999990905
532,2,0.8,0.25,-35.0,-1,1.0,0.26159999999981665
533,2,0.8,1.0,-35.0,-1,1.0,0.2523999999998523
534,2,0.8,0.25,-35.0,-1,1.0,0.2849999999998545
535,2,0.8,0.0,-35.0,-1,1.0,0.28920000000016444
536,2,0.8,0.125,35.0,-1,0.0,0.20209999999997308
537,2,0.8,0.125,35.0,1,1.0,0.4792999999995118
538,2,0.8,0.0,-35.0,-1,1.0,0.25529999999980646
539,2,0.8,1.0,35.0,1,1.0,0.3726999999998952
540,2,0.8,0.0625,-35.0,-1,1.0,0.27529999999978827
541,2,0.8,0.0625,-35.0,-1,1.0,0.1995999999999185
542,2,0.8,0.0,-35.0,-1,1.0,0.21570000000019718
543,2,0.8,0.0625,35.0,-1,0.0,0.3330999999998312
544,2,0.8,1.0,-35.0,-1,1.0,0.30569999999988795
545,2,0.8,1.0,-35.0,-1,1.0,0.3265999999998712
546,2,0.8,0.125,-35.0,-1,1.0,0.2824000000000524
547,2,0.8,0.25,-35.0,-1,1.0,0.28680000000031214
548,2,0.8,1.0,35.0,1,1.0,0.3225999999999658
549,2,0.8,0.25,-35.0,-1,1.0,0.24020000000018626
550,2,0.8,0.0625,-35.0,-1,1.0,0.2692000000001826
551,2,0.8,0.25,-35.0,-1,1.0,0.22699999999986176
552,2,0.8,0.0625,35.0,-1,0.0,0.29939999999987776
553,2,0.8,0.125,-35.0,-1,1.0,0.34049999999979264
554,2,0.8,0.25,-35.0,-1,1.0,0.21630000000004657
555,2,0.8,0.0625,-35.0,-1,1.0,0.2304999999996653
556,2,0.8,0.25,-35.0,-1,1.0,0.30649999999968713
557,2,0.8,1.0,-35.0,-1,1.0,0.3540000000002692
558,2,0.8,0.25,35.0,1,1.0,0.6332999999999629
559,2,0.8,0.125,-35.0,-1,1.0,0.24750000000040018
560,2,0.8,0.25,35.0,-1,0.0,1.3134000000000015
561,2,0.8,0.125,-35.0,-1,1.0,0.28090000000020154
562,2,0.8,0.0625,-35.0,-1,1.0,0.240099999999984
563,2,0.8,1.0,-35.0,-1,1.0,0.23109999999996944
564,2,0.8,1.0,35.0,1,1.0,0.3637999999996282
565,2,0.2,0.0625,35.0,-1,0.0,0.2114000000001397
566,2,0.2,0.0625,35.0,-1,0.0,0.5740000000000691
567,2,0.2,1.0,35.0,1,1.0,0.37479999999959546
568,2,0.2,0.25,35.0,1,1.0,0.45420000000012806
569,2,0.2,0.25,35.0,1,1.0,0.2616000000002714
570,2,0.2,1.0,35.0,1,1.0,0.28749999999990905
571,2,0.2,0.125,35.0,-1,0.0,0.2849999999998545
572,2,0.2,0.0625,35.0,-1,0.0,0.3678000000004431
573,2,0.2,0.25,35.0,1,1.0,0.7383999999997286
574,2,0.2,0.0625,35.0,1,1.0,0.3445999999999003
575,2,0.2,0.25,35.0,1,1.0,0.4519999999997708
576,2,0.2,0.25,-35.0,-1,1.0,0.2977000000000771
577,2,0.2,0.0,35.0,1,1.0,3.098899999999503
578,2,0.2,0.25,35.0,-1,0.0,0.37820000000010623
579,2,0.2,1.0,35.0,1,1.0,0.31559999999990396
580,2,0.2,1.0,35.0,1,1.0,0.33159999999998035
581,2,0.2,0.0,-35.0,-1,1.0,0.30900000000019645
582,2,0.2,0.0625,35.0,-1,0.0,0.2849999999998545
583,2,0.2,0.0,35.0,-1,0.0,0.49929999999994834
584,2,0.2,0.25,35.0,1,1.0,0.2723000000000866
585,2,0.2,0.0,35.0,-1,0.0,0.2693000000003849
586,2,0.2,0.25,35.0,1,1.0,0.27189999999973224
587,2,0.8,1.0,-35.0,-1,1.0,0.3026999999997315
588,2,0.8,0.125,-35.0,-1,1.0,0.30860000000029686
589,2,0.8,1.0,-35.0,-1,1.0,0.3031000000005406
590,2,0.8,0.125,35.0,1,1.0,0.48889999999983047
591,2,0.8,0.0,-35.0,-1,1.0,0.23640000000023065
592,2,0.8,0.25,-35.0,-1,1.0,0.22929999999996653
593,2,0.8,0.125,-35.0,-1,1.0,0.2699999999999818
594,2,0.8,1.0,-35.0,-1,1.0,0.27939999999989595
595,2,0.8,0.0625,-35.0,-1,1.0,0.3667000000000371
596,2,0.8,0.25,35.0,-1,0.0,0.17570000000023356
597,2,0.8,1.0,-35.0,-1,1.0,0.31330000000025393
598,2,0.8,0.0,-35.0,-1,1.0,0.28920000000016444
599,2,0.8,0.25,-35.0,-1,1.0,0.3135000000002037
600,2,0.8,0.125,-35.0,-1,1.0,0.22939999999971405
601,2,0.8,0.0625,35.0,-1,0.0,0.29369999999971697
602,2,0.8,0.0,-35.0,-1,1.0,0.3528999999998632
603,2,0.8,0.0625,-35.0,-1,1.0,0.3536999999996624
604,2,0.8,0.0,-35.0,-1,1.0,5.099999999999909
605,2,0.8,0.0,35.0,-1,0.0,0.27389999999968495
606,2,0.8,1.0,-35.0,-1,1.0,0.37359999999944193
607,2,0.8,0.0,35.0,-1,0.0,0.31759999999985666
608,2,0.8,0.25,-35.0,-1,1.0,0.21039999999993597
609,2,0.8,0.0625,-35.0,-1,1.0,0.260899999999765
610,2,0.8,0.0625,-35.0,-1,1.0,0.4099999999998545
611,2,0.8,0.0625,35.0,1,1.0,0.6742999999996755
612,2,0.8,0.0,-35.0,-1,1.0,0.23739999999997963
613,2,0.8,0.0625,35.0,-1,0.0,0.2943999999997686
614,2,0.8,0.0,-35.0,-1,1.0,8.210700000000088
615,2,0.8,0.0625,-35.0,-1,1.0,0.208299999999781
616,2,0.8,0.0625,-35.0,-1,1.0,0.2610999999997148
617,2,0.8,1.0,-35.0,-1,1.0,0.26820000000043365
618,2,0.8,0.25,35.0,1,1.0,0.38419999999996435
619,2,0.8,0.125,35.0,1,1.0,0.48509999999987485
620,2,0.8,1.0,-35.0,-1,1.0,0.18760000000020227
621,2,0.8,0.125,35.0,1,1.0,0.20460000000002765
622,2,0.8,1.0,-35.0,-1,1.0,0.2343999999998232
623,2,0.8,0.125,-35.0,-1,1.0,0.4819999999999709
624,2,0.8,0.25,35.0,1,1.0,0.26459999999951833
625,2,0.8,0.0625,-35.0,-1,1.0,0.22890000000006694
626,2,0.8,0.0,-35.0,-1,1.0,0.3079999999999927
627,2,0.8,0.0,-35.0,-1,1.0,0.7755999999999403
628,2,0.8,0.25,35.0,-1,0.0,0.5381999999999607
629,2,0.8,0.125,-35.0,-1,1.0,0.2625999999995656
630,2,0.8,0.25,-35.0,-1,1.0,0.31520000000000437
631,2,0.8,0.0625,35.0,-1,0.0,0.36580000000003565
632,2,0.8,1.0,-35.0,-1,1.0,0.3483000000001084
633,2,0.8,1.0,-35.0,-1,1.0,0.3526000000001659
634,2,0.8,0.25,35.0,1,1.0,0.3251000000000204
635,2,0.8,0.25,35.0,1,1.0,0.3730000000000473
636,2,0.8,0.0625,-35.0,-1,1.0,0.2857000000003609
637,2,0.8,0.125,-35.0,-1,1.0,0.3427999999998974
638,2,0.8,1.0,-35.0,-1,1.0,0.29899999999997817
639,2,0.8,0.0625,35.0,-1,0.0,0.38619999999991705
640,2,0.8,1.0,-35.0,-1,1.0,0.2590999999997621
641,2,0.8,0.125,35.0,1,1.0,0.46630000000004657
642,2,0.8,0.0625,-35.0,-1,1.0,0.21920000000000073
643,2,0.8,0.0,-35.0,-1,1.0,0.4898000000002867
644,2,0.8,0.125,35.0,1,1.0,0.4257999999999811
645,2,0.8,0.125,-35.0,-1,1.0,0.2800999999999476
646,2,0.8,0.125,-35.0,1,0.0,0.4659999999998945
647,2,0.8,0.0625,-35.0,-1,1.0,0.576799999999821
648,2,0.8,1.0,-35.0,-1,1.0,0.2561999999998079
649,2,0.8,0.25,-35.0,-1,1.0,0.28369999999995343
650,2,0.2,0.0625,35.0,-1,0.0,4.356299999999919
651,2,0.2,0.0625,35.0,-1,0.0,0.5372000000002117
652,2,0.2,1.0,-35.0,-1,1.0,0.30660000000034415
653,2,0.2,0.125,35.0,-1,0.0,0.3105999999997948
654,2,0.2,1.0,-35.0,-1,1.0,0.2100999999997839
655,2,0.2,0.125,35.0,-1,0.0,0.3375999999998385
656,2,0.2,0.125,35.0,1,1.0,0.35669999999981883
657,2,0.2,0.0,35.0,-1,0.0,0.31100000000014916
658,2,0.2,0.25,-35.0,-1,1.0,0.30720000000019354
659,2,0.2,0.25,35.0,1,1.0,0.15779999999949723
660,2,0.2,0.125,35.0,1,1.0,0.34369999999989886
661,2,0.2,0.125,35.0,-1,0.0,0.2511999999996988
662,2,0.2,0.0,35.0,-1,0.0,0.4171000000001186
663,2,0.2,0.0625,-35.0,1,0.0,0.3148999999998523
664,2,0.2,1.0,-35.0,-1,1.0,0.30729999999994106
665,2,0.2,0.125,-35.0,-1,1.0,0.4614000000001397
666,2,0.2,0.125,-35.0,-1,1.0,0.30760000000009313
667,2,0.2,0.125,35.0,1,1.0,0.3816999999999098
668,2,0.2,0.125,35.0,1,1.0,0.4108000000001084
669,2,0.2,0.125,35.0,1,1.0,0.9416999999998552
670,2,0.2,1.0,35.0,1,1.0,0.3811000000000604
671,2,0.2,0.0,35.0,-1,0.0,0.24530000000004293
672,2,0.2,0.125,-35.0,-1,1.0,0.46769999999969514
673,2,0.2,0.0625,35.0,1,1.0,0.5452999999997701
674,2,0.2,1.0,35.0,1,1.0,0.47499999999990905
675,2,0.2,0.25,35.0,1,1.0,0.5587000000000444
676,2,0.2,0.0,-35.0,-1,1.0,0.47460000000000946
677,2,0.2,1.0,35.0,1,1.0,0.5289999999999964
678,2,0.2,0.0,35.0,-1,0.0,0.11509999999998399
679,2,0.2,0.0,35.0,-1,0.0,0.33239999999977954
680,2,0.2,0.0625,35.0,1,1.0,9.272100000000137
681,2,0.2,1.0,35.0,1,1.0,0.4326999999993859
682,2,0.2,0.125,35.0,-1,0.0,0.9354999999995925
683,2,0.2,0.0625,35.0,1,1.0,4.846099999999751
684,2,0.2,0.125,35.0,1,1.0,0.6790999999998348
685,2,0.2,0.125,-35.0,-1,1.0,0.3797999999997046
686,2,0.2,0.0625,35.0,-1,0.0,0.23279999999977008
687,2,0.2,1.0,35.0,1,1.0,0.3566000000000713
688,2,0.2,0.0625,35.0,1,1.0,6.105800000000272
689,2,0.2,0.25,35.0,-1,0.0,0.22359999999980573
690,2,0.2,0.0,-35.0,-1,1.0,0.36619999999993524
691,2,0.2,0.125,35.0,-1,0.0,0.4135000000001128
692,2,0.2,0.125,35.0,1,1.0,0.48969999999962965
693,2,0.2,0.125,35.0,1,1.0,0.380399999999554
694,2,0.2,0.125,35.0,1,1.0,1.0363000000002103
695,2,0.2,0.0,35.0,-1,0.0,0.5570999999999913
696,2,0.2,1.0,-35.0,-1,1.0,0.32649999999966894
697,2,0.2,0.25,35.0,1,1.0,0.44059999999990396
698,2,0.2,1.0,-35.0,-1,1.0,0.23309999999992215
699,2,0.2,0.0,35.0,-1,0.0,0.2642000000000735
700,2,0.2,0.0625,35.0,1,1.0,0.38330000000041764
701,2,0.2,0.25,35.0,1,1.0,0.4744999999998072
702,2,0.2,1.0,-35.0,-1,1.0,0.3069000000000415
703,2,0.2,1.0,35.0,1,1.0,0.29779999999982465
704,2,0.2,1.0,35.0,-1,0.0,0.1103000000002794
705,2,0.2,0.0625,35.0,-1,0.0,0.18450000000029831
706,2,0.2,1.0,35.0,1,1.0,0.2636999999999716
707,2,0.2,1.0,-35.0,-1,1.0,0.2748999999998887
708,2,0.2,0.0625,35.0,1,1.0,0.18730000000050495
709,2,0.2,1.0,35.0,1,1.0,0.22479999999995925
710,2,0.2,1.0,35.0,1,1.0,0.360700000000179
711,2,0.2,0.0625,-35.0,-1,1.0,0.30150000000003274
712,2,0.2,0.0,-35.0,-1,1.0,0.29440000000022337
713,2,0.2,0.25,35.0,-1,0.0,0.365099999999984
714,2,0.2,1.0,35.0,-1,0.0,0.35809999999992215
715,2,0.2,0.125,35.0,1,1.0,0.3652999999999338
716,2,0.2,0.125,35.0,1,1.0,0.5144000000000233
717,2,0.2,0.0,-35.0,-1,1.0,0.5288000000005013
718,2,0.2,1.0,35.0,1,1.0,0.30490000000008877
719,2,0.2,1.0,35.0,1,1.0,0.5122000000001208
720,2,0.2,1.0,35.0,1,1.0,0.3548999999998159
721,2,0.2,0.25,35.0,-1,0.0,0.14229999999997744
722,2,0.2,0.25,35.0,1,1.0,0.35199999999986176
723,2,0.2,0.0625,35.0,-1,0.0,0.29249999999956344
724,2,0.2,0.125,35.0,1,1.0,0.5053000000002612
725,2,0.2,0.0,35.0,1,1.0,0.46600000000034925
726,2,0.2,0.25,35.0,1,1.0,0.3852999999999156
727,2,0.2,1.0,35.0,1,1.0,0.37969999999995707
728,2,0.2,0.0,35.0,-1,0.0,0.24519999999984066
729,2,0.2,0.125,-35.0,-1,1.0,0.29970000000002983
730,2,0.2,0.0625,-35.0,-1,1.0,1.7087999999998829
731,2,0.2,1.0,35.0,1,1.0,0.3663000000001375
732,2,0.2,1.0,35.0,1,1.0,0.7054000000002816
733,2,0.8,0.0,-35.0,-1,1.0,0.269800000000032
734,2,0.8,0.125,-35.0,-1,1.0,0.22580000000016298
735,2,0.8,0.25,-35.0,-1,1.0,0.2699000000002343
736,2,0.8,0.0,-35.0,-1,1.0,0.24909999999999854
737,2,0.8,0.25,-35.0,-1,1.0,0.2500999999997475
738,2,0.8,0.0,35.0,-1,0.0,0.21920000000045547
739,2,0.8,0.0625,-35.0,-1,1.0,0.32019999999965876
740,2,0.8,0.0,35.0,-1,0.0,0.3227000000001681
741,2,0.8,0.25,-35.0,-1,1.0,0.22029999999995198
742,2,0.8,1.0,-35.0,-1,1.0,0.33969999999999345
743,2,0.8,1.0,-35.0,-1,1.0,0.26060000000006767
744,2,0.8,1.0,-35.0,-1,1.0,0.26339999999981956
745,2,0.8,0.0625,-35.0,-1,1.0,0.27059999999937645
746,2,0.8,0.25,35.0,-1,0.0,0.3467000000000553
747,2,0.8,1.0,-35.0,-1,1.0,0.29409999999961656
748,2,0.8,0.0625,-35.0,-1,1.0,0.4901999999997315
749,2,0.8,0.125,-35.0,-1,1.0,0.2442999999998392
750,2,0.8,1.0,-35.0,-1,1.0,0.36009999999987485
751,2,0.8,1.0,-35.0,-1,1.0,0.24769999999989523
752,2,0.8,1.0,-35.0,-1,1.0,0.2602000000001681
753,2,0.8,0.0625,35.0,1,1.0,0.4743999999996049
754,2,0.8,0.125,-35.0,-1,1.0,0.4036999999998443
755,2,0.8,1.0,-35.0,-1,1.0,0.26119999999991705
756,2,0.8,0.125,35.0,1,1.0,0.41380000000026484
757,2,0.8,0.0,-35.0,-1,1.0,0.26490000000012515
758,2,0.8,1.0,-35.0,-1,1.0,0.2876000000001113
759,2,0.8,0.0625,-35.0,-1,1.0,0.28150000000005093
760,2,0.8,0.125,-35.0,-1,1.0,0.3011999999998807
761,2,0.8,1.0,35.0,1,1.0,0.538300000000163
762,2,0.8,0.25,35.0,1,1.0,0.6609999999996035
763,2,0.8,0.0625,-35.0,-1,1.0,0.7352000000000771
764,2,0.8,0.0625,-35.0,-1,1.0,0.30459999999948195
765,2,0.8,0.0625,-35.0,-1,1.0,0.2585999999996602
766,2,0.8,0.0,-35.0,-1,1.0,0.2780000000002474
767,2,0.8,0.0,-35.0,-1,1.0,0.4021010000001297
768,2,0.8,0.125,-35.0,-1,1.0,0.24140099999976883
769,2,0.8,0.0,-35.0,-1,1.0,0.4187010000000555
770,2,0.8,0.0,-35.0,-1,1.0,0.2448009999993701
771,2,0.8,0.25,35.0,-1,0.0,0.2856010000000424
772,2,0.8,0.0625,-35.0,-1,1.0,0.32170099999984814
773,2,0.8,0.125,35.0,1,1.0,1.8824009999998452
774,2,0.8,0.125,-35.0,-1,1.0,0.5251009999997223
775,2,0.8,0.125,-35.0,-1,1.0,0.2760009999997237
776,2,0.8,0.0625,-35.0,-1,1.0,0.26510099999995873
777,2,0.8,0.25,-35.0,-1,1.0,0.2729010000002745
778,2,0.2,0.125,35.0,1,1.0,0.399000999999771
779,2,0.2,0.0625,-35.0,-1,1.0,0.3096009999999296
780,2,0.2,0.0,35.0,-1,0.0,0.33910100000002785
781,2,0.2,1.0,35.0,1,1.0,0.4630010000000766
782,2,0.2,0.0,-35.0,-1,1.0,6.57910099999981
783,2,0.2,0.125,35.0,-1,0.0,0.4300010000001748
784,2,0.2,0.0625,-35.0,-1,1.0,0.4492009999999027
785,2,0.2,1.0,35.0,1,1.0,0.47000100000013845
786,2,0.2,0.0625,35.0,-1,0.0,0.4862009999997099
787,2,0.2,0.25,35.0,1,1.0,0.36370099999976446
788,2,0.2,0.0,35.0,1,1.0,3.11960100000033
789,2,0.2,0.0625,-35.0,-1,1.0,0.3802009999999427
790,2,0.2,0.125,-35.0,-1,1.0,0.3398010000000795
791,2,0.2,1.0,35.0,1,1.0,0.3940010000001166
792,2,0.2,1.0,35.0,1,1.0,0.31330099999968297
793,2,0.2,0.25,35.0,1,1.0,0.360501000000113
794,2,0.2,0.25,35.0,1,1.0,0.3631010000003698
795,2,0.2,0.125,-35.0,-1,1.0,0.30430100000012317
796,2,0.2,0.0,35.0,-1,0.0,0.22000100000013845
797,2,0.2,0.0,-35.0,1,0.0,0.40750100000013845
798,2,0.2,0.0,35.0,1,1.0,8.88030099999969
799,2,0.2,0.25,35.0,1,1.0,0.5245010000003276
800,2,0.2,1.0,35.0,1,1.0,0.3770009999998365
801,2,0.8,0.125,-35.0,-1,1.0,0.5614009999999325
802,2,0.8,0.0625,-35.0,-1,1.0,0.2675010000002658
803,2,0.8,0.25,-35.0,-1,1.0,0.3248009999997521
804,2,0.8,0.0625,-35.0,-1,1.0,0.34090100000003076
805,2,0.8,0.125,-35.0,-1,1.0,0.26490100000000893
806,2,0.8,1.0,-35.0,-1,1.0,0.3509009999997943
807,2,0.8,0.125,-35.0,-1,1.0,0.35180099999979575
808,2,0.8,0.25,35.0,1,1.0,0.4409009999999398
809,2,0.8,1.0,-35.0,-1,1.0,0.3186009999999442
810,2,0.8,0.25,35.0,1,1.0,0.3944010000000162
811,2,0.8,0.125,-35.0,-1,1.0,0.2986009999995076
812,2,0.8,1.0,-35.0,-1,1.0,0.2545009999994363
813,2,0.8,0.125,35.0,1,1.0,0.7920009999998001
814,2,0.8,0.0625,35.0,-1,0.0,0.7680009999999129
815,2,0.8,0.125,35.0,1,1.0,2.2755010000000766
816,2,0.8,0.25,-35.0,-1,1.0,1.5853009999996175
817,2,0.8,0.25,-35.0,-1,1.0,0.3890010000000075
818,2,0.8,0.0,-35.0,-1,1.0,0.4886009999995622
819,2,0.8,0.0,35.0,-1,0.0,0.30250100000012026
820,2,0.8,0.0,-35.0,-1,1.0,0.3151009999996859
821,2,0.8,0.0625,-35.0,-1,1.0,0.2426009999994676
822,2,0.8,0.0625,-35.0,-1,1.0,0.39190099999996164
823,2,0.8,0.125,35.0,-1,0.0,0.5327010000000882
824,2,0.8,1.0,-35.0,-1,1.0,0.16520100000025195
825,2,0.8,0.25,-35.0,-1,1.0,0.28290100000003804
826,2,0.8,0.25,-35.0,-1,1.0,0.295900999999958
827,2,0.8,0.25,-35.0,-1,1.0,0.4164009999999507
828,2,0.8,0.25,-35.0,-1,1.0,0.4092009999999391
829,2,0.8,0.125,-35.0,-1,1.0,0.29320099999995364
830,2,0.8,0.0625,35.0,-1,0.0,0.2362009999997099
831,2,0.8,0.0,-35.0,-1,1.0,0.2666009999998096
832,2,0.8,0.125,35.0,1,1.0,0.5395009999997455
833,2,0.8,0.0625,-35.0,-1,1.0,0.28000099999962913
834,2,0.8,1.0,-35.0,-1,1.0,0.3130009999995309
835,2,0.8,1.0,35.0,1,1.0,0.35350100000005114
836,2,0.8,0.125,-35.0,-1,1.0,0.2661009999997077
837,2,0.8,0.125,-35.0,-1,1.0,0.3204009999999471
838,2,0.8,0.125,35.0,-1,0.0,0.25620100000014645
839,2,0.8,0.0,35.0,1,1.0,1.5971009999998387
840,2,0.8,0.125,-35.0,-1,1.0,0.2964009999996051
841,2,0.8,0.125,-35.0,-1,1.0,0.4106010000000424
842,2,0.8,0.25,35.0,1,1.0,0.34010099999977683
843,2,0.8,0.25,-35.0,-1,1.0,0.3074010000000271
844,2,0.8,0.0,-35.0,-1,1.0,0.2566009999995913
845,2,0.8,1.0,-35.0,-1,1.0,0.26770100000021557
846,2,0.8,0.0,35.0,-1,0.0,0.37350100000003295
847,2,0.8,0.25,-35.0,-1,1.0,0.3576009999997041
848,2,0.8,1.0,35.0,1,1.0,0.4702009999996335
849,2,0.2,0.0,35.0,-1,0.0,0.331101000000217
850,2,0.2,0.0625,35.0,1,1.0,0.6970010000000002
851,2,0.2,0.0,35.0,-1,0.0,1.9014010000005328
852,2,0.2,0.25,35.0,1,1.0,0.3541009999994458
853,2,0.2,0.25,35.0,1,1.0,0.4414010000000417
854,2,0.2,0.0625,35.0,-1,0.0,0.14070099999980812
855,2,0.2,0.125,35.0,1,1.0,0.3451010000003407
856,2,0.2,0.125,35.0,1,1.0,0.4043010000000322
857,2,0.2,0.25,35.0,1,1.0,0.3151009999996859
858,2,0.2,0.25,35.0,1,1.0,0.3210010000002512
859,2,0.2,0.25,35.0,1,1.0,0.5853009999996175
860,2,0.2,1.0,35.0,1,1.0,0.3645010000000184
861,2,0.2,1.0,35.0,1,1.0,0.30870099999992817
862,2,0.2,0.25,35.0,1,1.0,0.3045009999996182
863,2,0.2,0.0625,-35.0,-1,1.0,0.3620009999999638
864,2,0.2,0.25,35.0,1,1.0,0.3479010000000926
865,2,0.2,0.25,35.0,1,1.0,0.39230099999986123
866,2,0.2,0.0625,35.0,-1,0.0,0.25840100000004895
867,2,0.2,0.25,-35.0,-1,1.0,0.36230099999966114
868,2,0.2,0.25,-35.0,-1,1.0,0.33530100000007224
869,2,0.2,0.0,-35.0,-1,1.0,0.45270099999970626
870,2,0.2,0.0,-35.0,1,0.0,2.8721009999999296
871,2,0.2,0.125,35.0,1,1.0,0.3497010000000955
872,2,0.2,0.125,35.0,1,1.0,0.3892009999999573
873,2,0.2,0.0,35.0,-1,0.0,0.36670100000037564
874,2,0.2,0.0,35.0,1,1.0,0.3356010000002243
875,2,0.2,0.0,-35.0,1,0.0,0.5099010000003545
876,2,0.2,0.0625,-35.0,-1,1.0,0.3724010000000817
877,2,0.2,0.0625,35.0,1,1.0,0.35320099999989907
878,2,0.2,0.0,35.0,-1,0.0,0.5358009999999922
879,2,0.2,0.125,35.0,1,1.0,0.4069009999998343
880,2,0.2,0.0,35.0,1,1.0,0.5297010000003866
881,2,0.2,0.0,35.0,1,1.0,0.7135010000001785
882,2,0.2,1.0,-35.0,-1,1.0,0.3063010000000759
883,2,0.2,1.0,35.0,1,1.0,0.3871009999998023
884,2,0.2,0.0625,35.0,1,1.0,0.4030009999996764
885,2,0.2,0.125,35.0,1,1.0,0.27720099999987724
886,2,0.2,1.0,-35.0,-1,1.0,0.38360099999999875
887,2,0.2,1.0,35.0,1,1.0,0.34410099999968224
888,2,0.2,0.0625,35.0,1,1.0,0.493300999999974
889,2,0.2,1.0,35.0,1,1.0,0.34090100000003076
890,2,0.2,0.25,-35.0,-1,1.0,0.3002010000000155
891,2,0.2,0.0,35.0,1,1.0,0.18770099999983358
892,2,0.2,0.0625,35.0,1,1.0,1.023700999999619
893,2,0.2,0.125,35.0,1,1.0,0.8510009999999966
894,2,0.2,1.0,35.0,1,1.0,0.3104009999997288
895,2,0.2,0.25,35.0,1,1.0,0.31130099999973027
896,2,0.2,1.0,-35.0,-1,1.0,0.3305009999999129
897,2,0.2,0.25,35.0,1,1.0,0.34800099999984013
898,2,0.2,0.25,35.0,1,1.0,0.3239010000002054
899,2,0.2,0.25,35.0,1,1.0,0.3582010000000082
900,2,0.2,0.0,35.0,-1,0.0,0.8572010000002592
901,2,0.2,0.25,35.0,1,1.0,0.38160100000004604
902,2,0.2,0.125,35.0,1,1.0,4.654301000000032
903,2,0.2,1.0,35.0,1,1.0,0.4251009999998132
904,2,0.2,0.0625,35.0,1,1.0,0.43450099999972736
905,2,0.8,0.25,-35.0,-1,1.0,0.27540099999987433
906,2,0.8,0.0,-35.0,-1,1.0,0.3476999999998043
907,2,0.8,0.25,35.0,1,1.0,0.4389009999999871
908,2,0.8,1.0,-35.0,-1,1.0,0.29830100000026505
909,2,0.8,0.0625,-35.0,-1,1.0,0.3488009999996393
910,2,0.8,0.0,-35.0,-1,1.0,0.3315010000001166
911,2,0.8,1.0,-35.0,-1,1.0,0.312300999999934
912,2,0.8,1.0,-35.0,-1,1.0,0.42180099999995946
913,2,0.8,0.25,-35.0,-1,1.0,0.3459010000001399
914,2,0.8,0.25,-35.0,-1,1.0,0.27190099999961603
915,2,0.8,0.125,-35.0,-1,1.0,0.3027009999996153
916,2,0.8,0.25,-35.0,-1,1.0,0.27860000000009677
917,2,0.8,0.125,-35.0,-1,1.0,0.45260099999995873
918,2,0.8,1.0,-35.0,1,0.0,0.16840099999990343
919,2,0.8,0.25,-35.0,-1,1.0,0.37950099999989106
920,2,0.8,1.0,35.0,1,1.0,0.2686009999997623
921,2,0.8,1.0,-35.0,-1,1.0,0.39980100000002494
922,2,0.8,0.0,-35.0,-1,1.0,0.3888010000000577
923,2,0.8,0.0625,35.0,1,1.0,0.3864010000002054
924,2,0.8,1.0,-35.0,-1,1.0,0.30570099999977174
925,2,0.8,0.0625,-35.0,-1,1.0,0.243300999999974
926,2,0.8,1.0,-35.0,-1,1.0,0.2960010000001603
927,2,0.8,1.0,-35.0,-1,1.0,0.2935010000001057
928,2,0.8,0.125,35.0,1,1.0,0.5660009999996873
929,2,0.8,0.25,-35.0,-1,1.0,0.316700999999739
930,2,0.8,1.0,-35.0,-1,1.0,0.34920099999999366
931,2,0.8,1.0,35.0,1,1.0,0.5637010000000373
932,2,0.8,0.0625,35.0,1,1.0,0.4129010000001472
933,2,0.8,0.25,35.0,1,1.0,0.2908009999996466
934,2,0.8,0.0625,-35.0,-1,1.0,0.3336009999993621
935,2,0.8,0.125,-35.0,-1,1.0,0.30730099999982485
936,2,0.8,0.25,-35.0,1,0.0,0.429700999999568
937,2,0.8,0.125,-35.0,-1,1.0,0.3139009999999871
938,2,0.8,1.0,-35.0,-1,1.0,0.23670099999981176
939,2,0.8,1.0,-35.0,-1,1.0,0.24080099999991944
940,2,0.8,0.0625,35.0,-1,0.0,0.22340099999973972
941,2,0.8,0.0,35.0,-1,0.0,0.3944010000000162
942,2,0.8,1.0,-35.0,-1,1.0,0.373801000000185
943,2,0.8,1.0,35.0,1,1.0,0.42430100000001403
944,2,0.8,1.0,-35.0,-1,1.0,0.29720099999985905
945,2,0.8,0.0625,-35.0,1,0.0,0.30120099999976446
946,2,0.8,0.25,35.0,1,1.0,0.4140009999996437
947,2,0.8,0.125,-35.0,-1,1.0,5.344801000000189
948,2,0.2,0.0,35.0,-1,0.0,0.38420099999984814
949,2,0.2,0.125,-35.0,-1,1.0,0.4248010000001159
950,2,0.2,0.125,35.0,1,1.0,1.1675009999994472
951,2,0.2,0.0,-35.0,1,0.0,0.9651010000002316
952,2,0.2,1.0,35.0,1,1.0,0.3576010000001588
953,2,0.2,1.0,35.0,1,1.0,2.5653010000000904
954,2,0.2,0.125,-35.0,1,0.0,0.23150100000020757
955,2,0.2,1.0,-35.0,-1,1.0,0.5921010000001843
956,2,0.2,0.0,35.0,-1,0.0,0.3615010000003167
957,2,0.2,1.0,35.0,1,1.0,0.9622009999998227
958,2,0.2,0.0625,35.0,1,1.0,4.191301000000294
959,2,0.2,0.125,-35.0,-1,1.0,2.185700999999881
960,2,0.2,0.0,35.0,-1,0.0,3.5520010000000184
961,2,0.2,0.0625,35.0,1,1.0,0.5959010000001399
962,2,0.2,0.25,35.0,1,1.0,0.4218010000004142
963,2,0.2,0.0,35.0,-1,0.0,0.3060009999999238
964,2,0.2,0.0625,35.0,1,1.0,0.35920100000021193
965,2,0.2,1.0,35.0,1,1.0,0.2996010000001661
966,2,0.2,0.0625,35.0,1,1.0,2.4921010000002752
967,2,0.2,1.0,35.0,1,1.0,0.48640100000011444
968,2,0.2,0.125,35.0,1,1.0,0.32900100000006205
969,2,0.2,0.25,35.0,1,1.0,0.3268009999997048
970,2,0.2,0.125,35.0,1,1.0,0.4227009999999609
971,2,0.2,0.0,35.0,-1,0.0,0.3100009999998292
972,2,0.2,0.0,35.0,-1,0.0,0.4228010000001632
973,2,0.2,0.25,35.0,1,1.0,0.33010099999955855
974,2,0.2,0.0,35.0,1,1.0,7.409400999999889
975,2,0.2,0.0625,35.0,1,1.0,3.72070100000019
976,2,0.2,0.0,35.0,1,1.0,27.076501000000462
977,2,0.2,0.0,35.0,1,1.0,4.217801000000236
978,2,0.2,0.0625,35.0,1,1.0,0.41700100000025486
979,2,0.2,0.0625,35.0,1,1.0,1.0513009999999667
980,2,0.2,0.25,35.0,1,1.0,0.5572009999996226
981,2,0.2,0.25,35.0,1,1.0,1.6518010000004324
982,2,0.2,0.0625,35.0,1,1.0,0.3643010000000686
983,2,0.8,0.125,-35.0,-1,1.0,1.0683010000002469
984,2,0.8,0.0625,-35.0,-1,1.0,0.6511010000003807
985,2,0.8,0.25,-35.0,-1,1.0,0.32500100000015664
986,2,0.8,1.0,35.0,1,1.0,0.3543009999998503
987,2,0.8,1.0,-35.0,-1,1.0,0.39180000000033033
988,2,0.8,0.0625,35.0,1,1.0,0.5513009999999667
989,2,0.8,0.25,-35.0,-1,1.0,0.31180099999983213
990,2,0.8,0.0625,-35.0,-1,1.0,0.5015010000001894
991,2,0.8,0.125,-35.0,-1,1.0,0.45880099999976665
992,2,0.8,0.0625,-35.0,-1,1.0,0.7884009999997943
993,2,0.8,1.0,-35.0,-1,1.0,0.2757010000000264
994,2,0.8,0.125,-35.0,-1,1.0,0.3549009999996997
995,2,0.8,0.0625,-35.0,-1,1.0,0.20560100000011516
996,2,0.8,0.125,35.0,1,1.0,1.0317009999994298
997,2,0.8,0.25,-35.0,-1,1.0,0.44930099999965023
998,2,0.8,0.0625,-35.0,-1,1.0,0.4083009999994829
999,2,0.8,0.0625,-35.0,-1,1.0,1.0359010000001945
1000,2,0.8,1.0,35.0,1,1.0,0.4153009999999995
1001,2,0.8,0.0625,-35.0,-1,1.0,0.35970099999985905
1002,2,0.8,0.125,-35.0,-1,1.0,0.28540099999963786
1003,2,0.8,1.0,-35.0,-1,1.0,0.2296010000000024
1004,2,0.8,0.125,-35.0,-1,1.0,0.3288009999996575
1005,2,0.8,0.125,-35.0,-1,1.0,0.25310099999978775
1006,2,0.8,0.125,-35.0,-1,1.0,0.26570100000026287
1007,2,0.8,0.25,-35.0,-1,1.0,0.26320100000066304
1008,2,0.2,0.125,35.0,-1,0.0,0.31570100000044476
1009,2,0.2,0.25,35.0,1,1.0,0.3335010000009788
1010,2,0.2,0.25,35.0,1,1.0,0.3895010000005641
1011,2,0.2,0.0,35.0,-1,0.0,0.28010100000028615
1012,2,0.2,0.125,35.0,1,1.0,5.239401000000726
1013,2,0.2,0.0,35.0,-1,0.0,0.30040100000042
1014,2,0.2,0.0625,-35.0,-1,1.0,6.853901000001315
1015,2,0.2,0.25,35.0,1,1.0,0.3943010000002687
1016,2,0.2,0.25,35.0,1,1.0,0.3699010000009366
1017,2,0.2,0.0625,-35.0,-1,1.0,0.5007010000008449
1018,2,0.2,0.0625,35.0,1,1.0,0.9301010000008318
1019,2,0.2,1.0,35.0,1,1.0,0.30440100000032544
1020,2,0.2,0.25,35.0,1,1.0,0.6305010000005495
1021,2,0.2,0.25,-35.0,-1,1.0,0.3810010000006514
1022,2,0.2,0.125,35.0,1,1.0,0.4435010000006514
1023,2,0.2,0.0,35.0,1,1.0,0.2512010000000373
1024,2,0.2,0.0625,35.0,1,1.0,0.38090100000044913
1025,2,0.2,0.0,35.0,1,1.0,0.8849010000003545
1026,2,0.2,0.125,35.0,1,1.0,0.3505009999998947
1027,2,0.2,0.25,35.0,1,1.0,0.37790100000074744
1028,2,0.2,1.0,35.0,1,1.0,0.26730099999986123
1029,2,0.2,0.25,35.0,1,1.0,5.588301000000683
1030,2,0.2,0.0625,35.0,1,1.0,2.510801000000356
1031,2,0.2,0.125,35.0,1,1.0,0.33850100000017846
1032,2,0.2,1.0,-35.0,-1,1.0,0.5778010000003633
1033,2,0.2,0.25,35.0,1,1.0,0.3118010000007416
1034,2,0.2,0.0625,35.0,-1,0.0,0.6647010000006048
1035,2,0.2,0.125,-35.0,-1,1.0,0.6621010000008027
1036,2,0.2,1.0,35.0,1,1.0,0.3280010000007678
1037,2,0.2,0.0625,35.0,1,1.0,4.312300999999934
1038,2,0.2,0.25,35.0,1,1.0,0.294701000000714
1039,2,0.2,0.125,35.0,1,1.0,3.289201000000503
1040,2,0.2,0.0625,35.0,1,1.0,0.5985010000003967
1041,2,0.2,0.0,-35.0,1,0.0,0.532600999999886
1042,2,0.2,0.0625,-35.0,1,0.0,6.538801000000603
1043,2,0.2,0.25,35.0,1,1.0,2.0897010000007867
1044,2,0.2,0.0,35.0,1,1.0,0.3560010000001057
1045,2,0.2,0.0,35.0,1,1.0,1.6900010000008479
1046,2,0.2,1.0,35.0,1,1.0,0.2828010000002905
1047,2,0.2,0.0,-35.0,-1,1.0,0.27010100000006787
1048,2,0.2,1.0,-35.0,-1,1.0,0.26570100000026287
1049,2,0.2,0.0625,35.0,1,1.0,5.190201000000343
1050,2,0.2,0.0625,-35.0,-1,1.0,6.599600999999893
1051,2,0.2,0.0625,35.0,1,1.0,0.40360100000089005
1052,2,0.2,0.0,35.0,-1,0.0,0.4997010000006412
1053,2,0.2,1.0,35.0,1,1.0,0.3041009999997186
1054,2,0.2,0.0625,35.0,1,1.0,1.3567010000015216
1055,2,0.2,0.0,35.0,1,1.0,3.057401000000027
1056,2,0.2,0.25,35.0,1,1.0,0.29700100000081875
1057,2,0.2,0.0,35.0,-1,0.0,0.1376010000003589
1058,2,0.2,0.0625,-35.0,-1,1.0,0.32720100000096863
1059,2,0.2,0.125,35.0,1,1.0,0.5079009999999471
1060,2,0.2,0.0625,35.0,1,1.0,0.8274010000004637
1061,2,0.2,0.25,35.0,1,1.0,1.4645010000003822
1062,2,0.2,0.0625,35.0,1,1.0,3.5604010000006383
1063,2,0.2,0.125,35.0,1,1.0,2.061401000000842
1064,2,0.2,1.0,35.0,1,1.0,0.4509010000001581
1065,2,0.2,0.0625,-35.0,1,0.0,0.4450010000000475
1066,2,0.2,0.0,35.0,1,1.0,5.0775009999997565
1067,2,0.2,1.0,-35.0,-1,1.0,0.34180100000048697
1068,2,0.2,0.25,35.0,1,1.0,0.40100100000108796
1069,2,0.2,1.0,35.0,1,1.0,0.43530100000043603
1070,2,0.2,0.0,35.0,1,1.0,1.931101000000126
1071,2,0.2,0.125,35.0,1,1.0,0.39220100000056846
1072,2,0.8,0.25,-35.0,-1,1.0,0.3414010000005874
1073,2,0.8,0.0625,-35.0,-1,1.0,3.5758010000008653
1074,2,0.8,0.125,35.0,-1,0.0,4.584700999999768
1075,2,0.8,0.0,-35.0,1,0.0,7.1261010000007445
1076,2,0.8,0.125,35.0,1,1.0,0.31840099999953964
1077,2,0.8,0.125,35.0,1,1.0,0.37600100000054226
1078,2,0.8,0.25,-35.0,-1,1.0,0.3851010000007591
1079,2,0.8,0.25,-35.0,-1,1.0,0.5362009999998918
1080,2,0.8,0.25,35.0,1,1.0,0.299101000000519
1081,2,0.8,0.125,-35.0,-1,1.0,0.3366010000008828
1082,2,0.8,0.0,-35.0,1,0.0,10.63220100000035
1083,2,0.8,0.0,-35.0,1,0.0,10.839901000000282
1084,2,0.8,0.0,-35.0,1,0.0,6.9628010000005816
1085,2,0.8,0.0625,-35.0,-1,1.0,0.3237010000011651
1086,2,0.8,0.0625,-35.0,1,0.0,1.859801000000516
1087,2,0.8,0.25,-35.0,1,0.0,5.824001000000862
1088,2,0.8,0.25,-35.0,1,0.0,0.1200010000002294
1089,2,0.8,0.125,-35.0,1,0.0,3.121100999999726
1090,2,0.8,0.125,-35.0,-1,1.0,2.163501000000906
1091,2,0.8,0.125,-35.0,-1,1.0,0.7444010000008348
1092,2,0.8,0.0,-35.0,-1,1.0,2.6468009999998685
1093,2,0.8,1.0,-35.0,-1,1.0,0.6813009999996211
1094,2,0.8,0.0625,-35.0,-1,1.0,10.767401000000064
1095,2,0.8,0.25,-35.0,-1,1.0,8.961701000000176
1096,2,0.8,0.0,-35.0,-1,1.0,6.324401000000762
1097,2,0.8,0.25,-35.0,-1,1.0,3.7086010000002716
1098,2,0.8,1.0,-35.0,-1,1.0,0.3712999999997919
1099,2,0.8,0.0625,-35.0,-1,1.0,0.639100999999755
1100,2,0.8,0.125,-35.0,-1,1.0,0.2813009999999849
1101,2,0.8,0.125,-35.0,-1,1.0,0.4491010000001552
1102,2,0.8,1.0,-35.0,-1,1.0,0.32490100000086386
1103,2,0.8,0.0625,-35.0,-1,1.0,0.2990010000003167
1104,2,0.8,0.0,-35.0,-1,1.0,0.3784009999999398
1105,2,0.8,0.0625,-35.0,-1,1.0,0.30920100000093953
1106,2,0.8,0.125,-35.0,-1,1.0,0.2718009999998685
1107,2,0.8,0.25,-35.0,-1,1.0,0.1994009999998525
1108,2,0.8,0.0625,-35.0,-1,1.0,0.3689010000007329
1109,2,0.8,0.0,-35.0,-1,1.0,0.2729010000002745
1,3,0.5,1.0,35.0,1,1.0,0.2550000000000001
2,3,0.5,1.0,35.0,1,1.0,0.2944010000000006
3,3,0.5,0.125,35.0,1,1.0,0.3988010000000006
4,3,0.5,0.25,35.0,1,1.0,0.2910009999999996
5,3,0.5,0.0625,35.0,1,1.0,0.3302010000000024
6,3,0.5,1.0,-35.0,-1,1.0,0.2411999999999992
7,3,0.5,0.125,35.0,1,1.0,0.3417010000000005
8,3,0.5,0.25,35.0,1,1.0,0.2637010000000011
9,3,0.5,0.125,-35.0,-1,1.0,0.3028010000000023
10,3,0.5,0.25,35.0,1,1.0,0.29940100000000314
11,3,0.5,0.125,-35.0,-1,1.0,0.23580100000000215
12,3,0.5,1.0,-35.0,-1,1.0,0.43200099999999964
13,3,0.5,0.0625,-35.0,-1,1.0,0.23280099999999493
14,3,0.5,0.25,-35.0,-1,1.0,0.2734009999999927
15,3,0.5,0.0625,35.0,-1,0.0,0.250200999999997
16,3,0.5,0.125,35.0,1,1.0,0.2713010000000011
17,3,0.5,0.0,35.0,-1,0.0,0.2565010000000001
18,3,0.5,1.0,35.0,1,1.0,0.29600099999999685
19,3,0.5,0.25,-35.0,-1,1.0,0.28790099999999086
20,3,0.5,0.0625,35.0,1,1.0,0.33149999999999125
21,3,0.5,0.125,-35.0,1,0.0,0.3558009999999996
22,3,0.5,0.25,-35.0,-1,1.0,0.23130099999998777
23,3,0.5,0.25,-35.0,-1,1.0,0.2582009999999997
24,3,0.5,0.0625,35.0,-1,0.0,0.37639999999998963
25,3,0.5,1.0,-35.0,-1,1.0,0.22840099999999097
26,3,0.5,0.0625,35.0,1,1.0,0.2238009999999946
27,3,0.5,1.0,-35.0,-1,1.0,0.2542009999999948
28,3,0.5,0.125,-35.0,-1,1.0,0.33570099999998604
29,3,0.5,0.125,-35.0,-1,1.0,0.25050099999999986
30,3,0.5,0.0625,-35.0,-1,1.0,0.26610100000000614
31,3,0.5,0.25,-35.0,-1,1.0,0.2618010000000055
32,3,0.5,0.125,35.0,1,1.0,0.3167009999999948
33,3,0.5,0.125,-35.0,-1,1.0,0.2567009999999925
34,3,0.5,0.0625,35.0,1,1.0,0.4191009999999977
35,3,0.5,0.0,35.0,-1,0.0,0.2706009999999992
36,3,0.5,0.25,-35.0,-1,1.0,0.7330000000000041
37,3,0.5,1.0,35.0,1,1.0,0.27270099999999786
38,3,0.5,0.0,-35.0,1,0.0,0.5921009999999995
39,3,0.5,0.125,35.0,-1,0.0,0.23110100000002376
40,3,0.5,0.0625,-35.0,-1,1.0,0.6360010000000216
41,3,0.5,0.125,35.0,1,1.0,0.3505010000000368
42,3,0.5,0.0625,35.0,1,1.0,0.355101000000019
43,3,0.5,0.0625,-35.0,-1,1.0,0.3821010000000058
44,3,0.5,0.125,35.0,1,1.0,0.2689009999999996
45,3,0.5,0.0625,-35.0,-1,1.0,0.24750100000002817
46,3,0.5,0.25,35.0,1,1.0,0.3342010000000357
47,3,0.5,0.0,35.0,-1,0.0,0.4726009999999974
48,3,0.5,0.125,-35.0,-1,1.0,0.3897010000000307
49,3,0.5,0.0625,35.0,1,1.0,0.2748009999999965
50,3,0.5,0.0,35.0,1,1.0,0.343400000000031
51,3,0.5,0.25,35.0,1,1.0,0.26880000000002724
52,3,0.5,0.0625,35.0,1,1.0,0.3622010000000273
53,3,0.5,0.0,35.0,1,1.0,1.4949009999999987
54,3,0.5,0.0,35.0,1,1.0,0.30110100000001694
55,3,0.5,0.0,35.0,1,1.0,0.36380099999999516
56,3,0.5,1.0,-35.0,-1,1.0,0.32440100000002303
57,3,0.5,0.25,-35.0,-1,1.0,0.5542000000000087
58,3,0.5,0.25,-35.0,-1,1.0,0.2981010000000026
59,3,0.5,1.0,-35.0,-1,1.0,0.24920099999999934
60,3,0.5,0.125,-35.0,1,0.0,0.3337010000000191
61,3,0.5,0.0625,35.0,1,1.0,0.5701010000000224
62,3,0.5,0.25,35.0,1,1.0,0.33580100000000357
63,3,0.5,0.0625,-35.0,1,0.0,0.30820100000002526
64,3,0.5,0.25,35.0,1,1.0,0.29590100000001485
65,3,0.5,0.0625,35.0,1,1.0,0.34670099999999593
66,3,0.5,1.0,-35.0,-1,1.0,0.24690100000000825
67,3,0.5,0.25,35.0,1,1.0,0.33690100000001166
68,3,0.5,0.0625,35.0,1,1.0,0.27450099999998656
69,3,0.5,0.0,35.0,1,1.0,0.3424010000000237
70,3,0.5,0.0625,-35.0,-1,1.0,0.2862010000000055
71,3,0.5,0.25,35.0,1,1.0,0.2933000000000163
72,3,0.5,0.125,35.0,1,1.0,0.2780010000000175
73,3,0.5,0.0,-35.0,1,0.0,0.3453010000000063
