trial_num,session_num,stim_probability_left,contrast,position,response_choice,trial_correct,reaction_time
1,27,0.5,0.0625,-35.0,1,0.0,9.8506
2,27,0.5,0.125,35.0,-1,0.0,2.8962000000000003
3,27,0.5,0.0,-35.0,-1,1.0,5.185799999999997
4,27,0.5,0.25,-35.0,-1,1.0,9.624299999999995
5,27,0.5,1.0,-35.0,-1,1.0,8.144299999999994
6,27,0.5,0.125,-35.0,-1,1.0,3.554299999999998
7,27,0.5,1.0,35.0,1,1.0,0.37190000000000367
8,27,0.5,1.0,35.0,1,1.0,0.41499999999999204
9,27,0.5,0.0625,-35.0,-1,1.0,0.7395999999999958
10,27,0.5,1.0,-35.0,-1,1.0,3.914199999999994
11,27,0.5,0.25,35.0,-1,0.0,5.4436000000000035
12,27,0.5,0.0,35.0,-1,0.0,1.0206000000000017
13,27,0.2,0.0,35.0,-1,0.0,3.0990000000000038
14,27,0.5,1.0,-35.0,-1,1.0,0.48680000000000234
15,27,0.5,0.0625,35.0,-1,0.0,0.8807999999999936
16,27,0.5,0.0625,-35.0,-1,1.0,2.151300000000006
17,27,0.5,1.0,-35.0,-1,1.0,0.3725999999999914
18,27,0.5,0.0,35.0,-1,0.0,0.47589999999999577
19,27,0.0,0.0,35.0,-1,0.0,0.9883999999999986
20,27,0.5,1.0,35.0,1,1.0,0.330600000000004
21,27,0.5,0.25,35.0,-1,0.0,0.5608999999999753
22,27,0.1,0.25,-35.0,-1,1.0,3.7627999999999986
23,27,0.5,1.0,35.0,1,1.0,0.24939999999998008
24,27,0.5,1.0,35.0,1,1.0,0.31790000000000873
25,27,0.5,1.0,35.0,1,1.0,0.27360000000001605
26,27,0.5,1.0,35.0,1,1.0,0.29920000000001323
27,27,0.5,0.125,35.0,1,1.0,0.3480999999999881
28,27,0.5,0.25,-35.0,-1,1.0,4.50060000000002
29,27,0.5,0.125,35.0,1,1.0,0.3265999999999849
30,27,0.5,0.0,-35.0,-1,1.0,0.6448000000000036
31,27,0.5,0.25,-35.0,-1,1.0,1.8722999999999672
32,27,0.5,1.0,-35.0,-1,1.0,5.192399999999992
33,27,0.5,0.125,-35.0,-1,1.0,0.6093999999999937
34,27,0.5,0.125,35.0,1,1.0,2.114599999999996
35,27,0.5,1.0,35.0,-1,0.0,3.1311000000000035
36,27,0.5,0.125,35.0,-1,0.0,1.5188999999999737
37,27,0.5,0.25,35.0,1,1.0,0.8494000000000028
38,27,0.5,1.0,35.0,1,1.0,0.3301000000000158
39,27,0.5,0.0625,35.0,-1,0.0,0.5292999999999779
40,27,0.5,0.0625,-35.0,-1,1.0,0.502900000000011
41,27,0.5,0.0,-35.0,-1,1.0,0.3341999999999814
42,27,0.5,0.0,-35.0,-1,1.0,0.6584999999999752
43,27,0.5,0.0,35.0,-1,0.0,0.5640000000000214
44,27,0.5,0.125,35.0,-1,0.0,0.7321000000000026
45,27,0.5,0.125,35.0,-1,0.0,2.9128000000000043
46,27,0.5,0.25,-35.0,-1,1.0,0.8408999999999764
47,27,0.5,0.25,-35.0,-1,1.0,0.259399999999971
48,27,0.5,0.125,35.0,-1,0.0,1.3137000000000114
49,27,0.5,0.0625,35.0,-1,0.0,1.6288000000000125
50,27,0.5,0.0,-35.0,-1,1.0,0.7018000000000484
51,27,0.5,0.0,35.0,-1,0.0,4.562800000000038
52,27,0.5,0.0625,35.0,1,1.0,0.5018000000000029
53,27,0.5,1.0,-35.0,-1,1.0,0.581799999999987
54,27,0.5,1.0,35.0,-1,0.0,3.0825000000000387
55,27,0.5,0.0625,-35.0,-1,1.0,0.7764000000000237
56,27,0.5,0.125,-35.0,-1,1.0,0.5610000000000355
57,27,0.5,1.0,-35.0,-1,1.0,0.5481000000000336
58,27,0.5,1.0,35.0,-1,0.0,2.0096000000000345
59,27,0.5,0.0,35.0,-1,0.0,4.964800000000025
60,27,0.5,0.0625,-35.0,-1,1.0,4.600700000000074
61,27,0.5,0.0625,-35.0,-1,1.0,3.850900000000081
62,27,0.5,1.0,-35.0,-1,1.0,4.8104000000000156
63,27,0.5,1.0,35.0,1,1.0,0.41820000000006985
64,27,0.5,0.0625,35.0,-1,0.0,4.0622000000000185
65,27,0.5,0.0,35.0,-1,0.0,0.6603000000000634
66,27,0.5,0.0625,-35.0,-1,1.0,0.587600000000009
67,27,0.5,1.0,35.0,1,1.0,0.6525000000000318
68,27,0.5,1.0,35.0,-1,0.0,3.701000000000022
69,27,0.5,0.0625,35.0,-1,0.0,1.6719000000000506
70,27,0.2,0.0625,35.0,-1,0.0,0.5662000000000376
71,27,0.5,1.0,35.0,1,1.0,0.8561000000000263
72,27,0.5,0.0625,-35.0,-1,1.0,0.5434000000000196
73,27,0.5,0.0,35.0,-1,0.0,0.46649999999999636
74,27,0.2,0.0,-35.0,-1,1.0,0.6659000000000219
75,27,0.5,1.0,35.0,-1,0.0,2.0627000000000066
76,27,0.5,0.25,35.0,-1,0.0,0.8162000000000376
77,27,0.2,0.25,35.0,-1,0.0,2.184900000000084
78,27,0.5,1.0,35.0,1,1.0,0.266900000000021
79,27,0.5,1.0,35.0,1,1.0,1.1756000000000313
80,27,0.5,0.25,35.0,-1,0.0,0.8100000000000023
81,27,0.3,0.25,35.0,1,1.0,0.6648000000000138
82,27,0.5,1.0,-35.0,-1,1.0,0.5918000000000347
83,27,0.5,0.0625,35.0,-1,0.0,3.064700000000016
84,27,0.5,0.25,35.0,-1,0.0,0.740600000000029
85,27,0.3,0.25,35.0,1,1.0,0.25210000000009813
86,27,0.5,1.0,35.0,1,1.0,0.3951000000000704
87,27,0.5,0.125,-35.0,-1,1.0,0.40739999999999554
88,27,0.5,0.0625,35.0,-1,0.0,0.7115000000000578
89,27,0.5,0.0,-35.0,-1,1.0,0.494700000000023
90,27,0.5,0.0625,35.0,-1,0.0,0.7723000000000297
91,27,0.5,0.0625,-35.0,-1,1.0,0.636099999999999
92,27,0.5,0.0625,-35.0,-1,1.0,0.5826999999999884
93,27,0.5,0.0625,35.0,-1,0.0,1.5503000000000497
94,27,0.5,0.25,-35.0,-1,1.0,0.41300000000006776
95,27,0.5,0.125,-35.0,-1,1.0,3.1990000000000123
96,27,0.5,1.0,35.0,1,1.0,0.6742000000000417
97,27,0.5,0.25,35.0,-1,0.0,0.4800999999999931
98,27,0.5,0.125,35.0,1,1.0,1.3548000000000116
99,27,0.5,0.25,35.0,-1,0.0,0.5009999999999764
100,27,0.5,0.0,35.0,-1,0.0,1.0260000000000105
101,27,0.5,0.25,-35.0,-1,1.0,0.6119000000000483
102,27,0.5,0.0625,35.0,-1,0.0,0.7061999999999671
103,27,0.5,0.125,35.0,-1,0.0,0.4622999999999138
104,27,0.5,0.25,35.0,-1,0.0,0.5124000000000706
105,27,0.5,0.125,35.0,-1,0.0,0.43479999999999563
106,27,0.5,0.0,-35.0,-1,1.0,0.33400000000006
107,27,0.5,0.0,-35.0,-1,1.0,0.8824999999999363
108,27,0.5,0.25,35.0,-1,0.0,0.44479999999998654
109,27,0.5,0.125,35.0,-1,0.0,2.7770000000000437
110,27,0.5,0.125,-35.0,-1,1.0,0.8374999999999773
111,27,0.5,0.0625,35.0,-1,0.0,0.5140999999999849
112,27,0.5,0.0,-35.0,-1,1.0,0.8813000000000102
113,27,0.5,0.25,35.0,1,1.0,4.379800000000046
114,27,0.5,0.0,35.0,-1,0.0,0.9462999999999511
115,27,0.5,0.0625,-35.0,-1,1.0,0.31340000000000146
116,27,0.5,0.0,35.0,-1,0.0,0.4177999999999429
117,27,0.5,0.0,35.0,-1,0.0,4.216600000000085
118,27,0.5,0.125,-35.0,-1,1.0,1.0293000000000347
119,27,0.5,0.25,-35.0,-1,1.0,0.605199999999968
120,27,0.5,0.0,35.0,-1,0.0,4.72059999999999
121,27,0.5,0.0625,-35.0,-1,1.0,2.8211000000000013
122,27,0.5,0.0625,-35.0,-1,1.0,1.3893000000000484
123,27,0.5,0.25,-35.0,-1,1.0,0.45049999999991996
124,27,0.5,0.25,-35.0,-1,1.0,0.6023000000000138
125,27,0.5,0.25,-35.0,-1,1.0,0.6518000000000939
126,27,0.5,0.0,-35.0,-1,1.0,0.4578999999999951
127,27,0.5,0.25,-35.0,-1,1.0,0.5554000000000769
128,27,0.5,1.0,-35.0,-1,1.0,7.705900000000042
129,27,0.5,0.0625,35.0,-1,0.0,0.4294000000001006
130,27,0.5,0.0625,35.0,-1,0.0,0.42850000000009913
131,27,0.5,0.125,35.0,-1,0.0,1.3471999999999298
132,27,0.5,0.125,35.0,-1,0.0,1.896600000000035
133,27,0.5,0.25,35.0,1,1.0,0.6188999999999396
134,27,0.5,0.25,-35.0,-1,1.0,0.7871000000000095
135,27,0.5,0.125,-35.0,-1,1.0,0.4418000000000575
136,27,0.5,1.0,-35.0,-1,1.0,0.5719000000000278
137,27,0.5,1.0,-35.0,-1,1.0,5.9687999999999874
138,27,0.5,1.0,35.0,-1,0.0,2.7807000000000244
139,27,0.5,0.125,35.0,-1,0.0,3.3179000000001224
140,27,0.1,0.125,35.0,-1,0.0,1.6798000000000002
141,27,0.5,1.0,35.0,1,1.0,0.38399999999990087
142,27,0.5,0.0625,-35.0,-1,1.0,1.2211000000000922
143,27,0.5,1.0,35.0,1,1.0,0.5280999999999949
144,27,0.5,1.0,35.0,1,1.0,0.5914999999999964
145,27,0.5,0.25,35.0,-1,0.0,0.9285999999999603
146,27,0.3,0.25,35.0,1,1.0,0.6179999999999382
147,27,0.5,1.0,35.0,-1,0.0,7.77679999999998
148,27,0.5,0.125,35.0,-1,0.0,2.559900000000084
149,27,0.5,0.0625,35.0,1,1.0,1.022600000000125
150,27,0.5,0.25,-35.0,-1,1.0,0.2057999999999538
151,27,0.5,0.0625,35.0,-1,0.0,0.6291999999999689
152,27,0.5,0.0,35.0,-1,0.0,0.38600000000008095
153,27,0.5,0.25,-35.0,-1,1.0,0.9322000000000799
154,27,0.5,0.125,35.0,-1,0.0,1.9329000000001315
155,27,0.2,0.125,35.0,-1,0.0,0.6064999999999827
156,27,0.5,1.0,-35.0,-1,1.0,0.583400000000097
157,27,0.5,0.0625,-35.0,-1,1.0,5.465000000000032
158,27,0.5,0.125,-35.0,-1,1.0,5.51520000000005
159,27,0.5,0.125,35.0,-1,0.0,0.46250000000009095
160,27,0.5,0.0,35.0,-1,0.0,1.1165999999999485
161,27,0.5,0.25,-35.0,-1,1.0,0.6354999999999791
162,27,0.5,0.0625,-35.0,-1,1.0,0.5489000000000033
163,27,0.5,0.25,35.0,-1,0.0,1.3975999999998976
164,27,0.0,0.25,35.0,1,1.0,0.5122000000001208
165,27,0.5,1.0,35.0,1,1.0,0.6767000000000962
166,27,0.5,0.125,35.0,-1,0.0,8.091799999999921
167,27,0.2,0.125,35.0,-1,0.0,0.9692000000000007
168,27,0.5,1.0,35.0,1,1.0,0.455600000000004
169,27,0.5,0.125,35.0,-1,0.0,0.5850000000000364
170,27,0.5,0.125,35.0,1,1.0,0.37810000000001764
171,27,0.5,0.0,35.0,-1,0.0,0.5371000000000095
172,27,0.5,0.125,35.0,1,1.0,0.40260000000000673
173,27,0.5,0.0625,-35.0,-1,1.0,1.0126999999999953
174,27,0.5,0.25,-35.0,-1,1.0,0.5257000000000289
175,27,0.5,0.25,-35.0,-1,1.0,0.7060000000000173
176,27,0.5,0.0,35.0,-1,0.0,1.3578000000001111
177,27,0.5,0.0,35.0,-1,0.0,2.6884000000000015
178,27,0.5,0.0625,-35.0,-1,1.0,0.5320000000000391
179,27,0.5,1.0,35.0,1,1.0,0.3864000000000942
180,27,0.5,1.0,35.0,1,1.0,0.4248000000001184
181,27,0.5,0.0625,-35.0,-1,1.0,1.1183999999999514
182,27,0.5,1.0,35.0,-1,0.0,5.187999999999988
183,27,0.5,0.125,35.0,-1,0.0,0.504099999999994
184,27,0.5,0.0625,35.0,-1,0.0,4.802700000000073
185,27,0.5,0.0625,-35.0,-1,1.0,0.8941999999999553
186,27,0.5,0.25,-35.0,-1,1.0,1.4815000000000964
187,27,0.5,0.125,-35.0,-1,1.0,0.5021000000000413
188,27,0.5,0.25,35.0,-1,0.0,0.733600000000024
189,27,0.5,0.125,-35.0,-1,1.0,2.6049000000000433
190,27,0.5,0.0,35.0,-1,0.0,0.5836000000000467
191,27,0.5,0.125,-35.0,1,0.0,1.3452000000000908
192,27,0.5,0.25,35.0,1,1.0,0.7565000000000737
193,27,0.5,0.25,-35.0,-1,1.0,0.3790000000000191
194,27,0.5,0.0625,-35.0,-1,1.0,2.3876999999999953
195,27,0.5,0.125,-35.0,-1,1.0,0.5126999999999953
196,27,0.5,0.125,35.0,-1,0.0,2.6713999999999487
197,27,0.5,0.0,35.0,-1,0.0,2.9845000000000255
198,27,0.5,0.0,-35.0,-1,1.0,0.46500000000003183
199,27,0.5,0.25,35.0,1,1.0,0.6657999999999902
200,27,0.5,0.25,35.0,-1,0.0,3.43080000000009
201,27,0.3,0.25,35.0,-1,0.0,5.943399999999997
202,27,0.5,1.0,-35.0,-1,1.0,0.6069999999999709
203,27,0.5,0.125,35.0,-1,0.0,1.7338000000000875
204,27,0.5,0.0625,-35.0,-1,1.0,1.0101000000000795
205,27,0.5,0.125,-35.0,-1,1.0,0.43069999999988795
206,27,0.5,0.25,-35.0,-1,1.0,0.7337999999999738
207,27,0.5,1.0,-35.0,-1,1.0,0.41059999999993124
208,27,0.5,0.125,35.0,-1,0.0,0.5938000000001011
209,27,0.1,0.125,35.0,-1,0.0,3.0708000000001903
210,27,0.5,1.0,35.0,1,1.0,0.35390000000006694
211,27,0.5,0.125,35.0,1,1.0,0.7042000000001281
212,27,0.5,0.0,-35.0,-1,1.0,4.251000000000204
213,27,0.5,0.0625,35.0,-1,0.0,1.8613000000000284
214,27,0.5,0.0625,35.0,-1,0.0,1.0944999999999254
215,27,0.2,0.0625,35.0,-1,0.0,1.5846000000001368
216,27,0.5,1.0,35.0,1,1.0,0.35770000000002256
217,27,0.5,1.0,-35.0,-1,1.0,0.7980000000000018
218,27,0.5,0.25,35.0,1,1.0,0.5283000000001721
219,27,0.5,0.0625,-35.0,-1,1.0,2.874900000000025
220,27,0.5,1.0,35.0,1,1.0,0.40190000000006876
221,27,0.5,0.0,35.0,-1,0.0,0.6718000000000757
222,27,0.5,0.0625,-35.0,-1,1.0,0.9416000000001077
223,27,0.5,0.0625,-35.0,-1,1.0,1.1054000000001452
224,27,0.5,0.25,35.0,-1,0.0,10.142200000000003
225,27,0.5,0.125,35.0,-1,0.0,4.4990999999999985
226,27,0.3,0.125,35.0,1,1.0,0.3489000000001852
227,27,0.5,1.0,-35.0,-1,1.0,0.3926000000001295
228,27,0.5,0.25,-35.0,-1,1.0,1.9221000000000004
229,27,0.5,0.0625,35.0,-1,0.0,0.4492000000000189
230,27,0.5,0.25,-35.0,-1,1.0,0.9192000000000462
231,27,0.5,0.0,-35.0,-1,1.0,0.3561000000001968
232,27,0.5,0.125,35.0,-1,0.0,0.43239999999991596
233,27,0.5,0.0625,35.0,-1,0.0,0.5227999999999611
234,27,0.5,0.125,35.0,-1,0.0,0.519399999999905
235,27,0.5,0.125,35.0,1,1.0,1.0864999999998872
236,27,0.5,0.125,35.0,-1,0.0,2.7064000000000306
237,27,0.5,0.0,35.0,-1,0.0,0.4998000000000502
238,27,0.1,0.0,-35.0,-1,1.0,0.7433000000000902
239,27,0.5,1.0,35.0,-1,0.0,8.97010000000023
240,27,0.1,1.0,35.0,1,1.0,0.32320000000004256
241,27,0.5,1.0,35.0,1,1.0,0.42029999999999745
242,27,0.5,0.25,-35.0,-1,1.0,0.5100999999999658
243,27,0.5,0.0625,35.0,-1,0.0,0.32369999999991705
244,27,0.5,0.0625,35.0,-1,0.0,0.8202000000001135
245,27,0.5,0.125,-35.0,-1,1.0,0.5241000000000895
246,27,0.5,1.0,-35.0,-1,1.0,0.6203000000000429
247,27,0.5,0.125,-35.0,-1,1.0,0.9375000000002274
248,27,0.5,0.25,35.0,-1,0.0,0.6172999999998865
249,27,0.5,0.125,-35.0,-1,1.0,2.47420000000011
250,27,0.5,1.0,-35.0,-1,1.0,0.3442000000000007
251,27,0.5,0.0625,35.0,-1,0.0,0.4111000000000331
252,27,0.0,0.0625,35.0,-1,0.0,1.7307000000000698
253,27,0.5,1.0,35.0,1,1.0,0.42780000000016116
254,27,0.5,1.0,35.0,1,1.0,0.49109999999996035
255,27,0.5,0.125,35.0,-1,0.0,0.6744999999998527
256,27,0.2,0.125,35.0,1,1.0,0.4113999999999578
257,27,0.5,1.0,35.0,1,1.0,0.48470000000020264
258,27,0.5,0.25,35.0,1,1.0,4.524499999999989
259,27,0.5,0.25,-35.0,-1,1.0,0.534900000000107
260,27,0.5,0.0625,35.0,-1,0.0,2.404800000000023
261,27,0.5,0.25,35.0,1,1.0,0.44479999999998654
262,27,0.5,1.0,-35.0,-1,1.0,0.7714999999998327
263,27,0.5,0.0625,35.0,-1,0.0,0.7918999999999414
264,27,0.5,0.0625,-35.0,-1,1.0,1.1987000000001444
265,27,0.5,1.0,35.0,1,1.0,3.1552999999998974
266,27,0.5,0.0625,-35.0,-1,1.0,0.7717999999999847
267,27,0.5,0.125,35.0,-1,0.0,0.7789000000000215
268,27,0.5,0.0625,35.0,-1,0.0,0.7518000000000029
269,27,0.5,0.125,35.0,1,1.0,0.39220000000000255
270,27,0.5,0.125,-35.0,-1,1.0,0.35200000000008913
271,27,0.5,0.125,35.0,-1,0.0,0.3289999999999509
272,27,0.5,0.0,-35.0,-1,1.0,3.115500000000111
273,27,0.5,0.0625,-35.0,-1,1.0,2.1326000000001386
274,27,0.5,0.125,35.0,-1,0.0,0.7926999999997406
275,27,0.5,0.0625,35.0,1,1.0,0.6660999999999149
276,27,0.5,1.0,-35.0,-1,1.0,0.3893000000000484
277,27,0.5,1.0,35.0,1,1.0,0.31280000000015207
278,27,0.5,0.0,35.0,-1,0.0,1.1192999999998392
279,27,0.5,0.125,-35.0,-1,1.0,4.286299999999983
280,27,0.5,0.0,35.0,-1,0.0,0.6965999999999894
281,27,0.5,0.25,-35.0,-1,1.0,0.5699999999999363
282,27,0.5,0.25,-35.0,-1,1.0,0.6996999999998934
283,27,0.5,0.0625,35.0,-1,0.0,0.6398999999998978
284,27,0.2,0.0625,35.0,-1,0.0,0.5364999999999327
285,27,0.5,1.0,35.0,1,1.0,0.3102999999998701
286,27,0.5,0.0,35.0,-1,0.0,3.5666000000001077
287,27,0.5,0.0,35.0,-1,0.0,1.406900000000178
288,27,0.5,0.0625,35.0,-1,0.0,0.7237000000002354
289,27,0.5,0.0625,-35.0,-1,1.0,0.8270999999999731
290,27,0.5,0.25,-35.0,-1,1.0,0.7805000000000746
291,27,0.5,0.0625,35.0,-1,0.0,3.630600000000186
292,27,0.5,0.125,35.0,1,1.0,0.5074999999999363
293,27,0.5,0.0,-35.0,-1,1.0,0.6842000000001462
294,27,0.5,0.0,-35.0,-1,1.0,0.8171999999999571
295,27,0.5,0.0625,-35.0,-1,1.0,3.5775000000001
296,27,0.5,0.25,35.0,1,1.0,0.4375
297,27,0.5,0.25,-35.0,-1,1.0,0.5278000000000702
298,27,0.5,1.0,-35.0,-1,1.0,5.134300000000167
299,27,0.5,0.0625,35.0,-1,0.0,0.6012000000000626
300,27,0.5,0.25,35.0,1,1.0,0.5980000000001837
301,27,0.5,0.25,35.0,-1,0.0,2.3447000000001026
302,27,0.5,0.0625,-35.0,-1,1.0,3.7447000000001935
303,27,0.5,0.0,-35.0,-1,1.0,3.6650999999999385
304,27,0.5,0.125,-35.0,-1,1.0,1.348299999999881
305,27,0.5,0.25,35.0,1,1.0,0.40190000000006876
306,27,0.5,0.25,35.0,-1,0.0,3.698599999999942
307,27,0.5,0.25,35.0,1,1.0,0.4054000000000997
308,27,0.5,0.0625,35.0,-1,0.0,0.6586999999999534
309,27,0.5,0.0,35.0,-1,0.0,0.8522000000000389
310,27,0.5,0.25,35.0,1,1.0,0.3088000000000193
311,27,0.5,0.25,35.0,1,1.0,3.549099999999953
312,27,0.5,0.0,-35.0,-1,1.0,0.2555999999999585
313,27,0.5,0.0625,-35.0,-1,1.0,
314,27,0.5,0.25,35.0,1,1.0,0.36570000000006075
315,27,0.5,0.25,-35.0,-1,1.0,0.5561000000000149
316,27,0.5,0.125,-35.0,-1,1.0,0.6959000000001652
317,27,0.5,0.0,35.0,-1,0.0,2.0427000000001954
318,27,0.5,0.0625,-35.0,-1,1.0,0.6695999999999458
319,27,0.5,0.0625,35.0,-1,0.0,0.27969999999982065
320,27,0.5,0.25,-35.0,-1,1.0,0.7128000000000156
321,27,0.5,0.0625,35.0,-1,0.0,2.4265000000000327
322,27,0.5,0.25,-35.0,-1,1.0,0.6130000000000564
323,27,0.5,1.0,-35.0,-1,1.0,0.7129999999999654
324,27,0.5,0.125,35.0,-1,0.0,0.6796999999999116
325,27,0.5,0.125,35.0,1,1.0,0.373299999999972
326,27,0.5,1.0,35.0,-1,0.0,9.553600000000188
327,27,0.5,0.0,-35.0,-1,1.0,0.5469000000000506
328,27,0.5,0.125,35.0,-1,0.0,0.34400000000005093
329,27,0.5,0.25,-35.0,-1,1.0,3.350599999999986
330,27,0.5,0.125,-35.0,-1,1.0,2.4535000000000764
331,27,0.5,0.0,-35.0,-1,1.0,0.34390000000007603
332,27,0.5,0.125,35.0,-1,0.0,0.8804999999999836
333,27,0.5,0.25,-35.0,-1,1.0,0.587400000000116
334,27,0.5,0.25,-35.0,-1,1.0,0.6309000000001106
335,27,0.5,1.0,35.0,1,1.0,0.7742999999998119
336,27,0.5,0.0,35.0,-1,0.0,1.4411000000000058
337,27,0.5,0.125,-35.0,-1,1.0,1.277699999999868
338,27,0.5,0.0,-35.0,-1,1.0,4.624399999999923
339,27,0.5,0.25,-35.0,-1,1.0,0.5713999999998123
340,27,0.5,0.0,35.0,-1,0.0,0.804300000000012
341,27,0.5,0.0625,-35.0,-1,1.0,2.8749999999997726
342,27,0.5,0.25,-35.0,-1,1.0,3.521400000000085
343,27,0.5,0.125,-35.0,-1,1.0,0.5850000000000364
344,27,0.5,0.0625,35.0,-1,0.0,0.7546999999999571
345,27,0.5,0.125,-35.0,-1,1.0,0.8185000000000855
346,27,0.5,0.0625,35.0,-1,0.0,0.4215999999998985
347,27,0.5,0.25,35.0,1,1.0,0.5584999999998672
348,27,0.5,0.125,-35.0,-1,1.0,4.068399999999883
349,27,0.5,0.0625,35.0,-1,0.0,0.6455000000000837
350,27,0.5,0.125,35.0,-1,0.0,2.5286000000000968
351,27,0.5,0.125,35.0,1,1.0,0.47900000000004184
352,27,0.5,0.25,-35.0,-1,1.0,1.0154999999999745
353,27,0.5,0.0625,35.0,-1,0.0,1.8389999999999418
354,27,0.5,0.125,35.0,1,1.0,0.4860000000001037
355,27,0.5,0.125,35.0,1,1.0,0.4994000000001506
356,27,0.5,0.25,35.0,1,1.0,1.2623000000000957
357,27,0.5,0.25,-35.0,-1,1.0,2.305998999999929
358,27,0.5,0.125,35.0,-1,0.0,1.5893999999998414
359,27,0.5,0.0625,-35.0,-1,1.0,0.9065000000000509
360,27,0.5,1.0,35.0,1,1.0,0.3531000000000404
361,27,0.5,0.125,35.0,-1,0.0,1.5931000000000495
362,27,0.4,0.125,35.0,1,1.0,0.719899999999825
363,27,0.5,1.0,35.0,1,1.0,0.3330000000000837
364,27,0.5,0.0625,35.0,-1,0.0,0.42990000000008877
365,27,0.5,0.25,-35.0,-1,1.0,0.49680000000012114
366,27,0.5,0.0625,-35.0,-1,1.0,3.4734000000000833
367,27,0.5,0.0625,-35.0,-1,1.0,5.880100000000311
368,27,0.5,0.25,35.0,1,1.0,0.3872000000001208
369,27,0.5,0.25,35.0,1,1.0,0.38400000000001455
370,27,0.5,0.25,-35.0,1,0.0,0.937099999999873
371,27,0.5,0.25,-35.0,-1,1.0,3.79079999999999
372,27,0.5,1.0,-35.0,-1,1.0,0.574100000000044
373,27,0.5,0.125,35.0,1,1.0,0.42399999999997817
374,27,0.5,0.125,35.0,1,1.0,1.074200000000019
375,27,0.5,0.0,35.0,-1,0.0,2.064000000000078
376,27,0.5,0.0625,35.0,-1,0.0,3.02780000000007
377,27,0.5,0.0625,-35.0,-1,1.0,0.7077999999999065
378,27,0.5,0.125,35.0,-1,0.0,1.181300000000192
379,27,0.5,0.0625,35.0,-1,0.0,0.39819999999986067
380,27,0.5,0.0625,35.0,-1,0.0,0.7082000000000335
381,27,0.5,0.0,35.0,-1,0.0,0.6317000000001372
382,27,0.2,0.0,-35.0,-1,1.0,0.41830000000004475
383,27,0.5,1.0,35.0,1,1.0,0.3082000000001699
384,27,0.5,0.125,35.0,1,1.0,0.3649000000000342
385,27,0.5,1.0,35.0,1,1.0,0.378400000000056
386,27,0.5,1.0,-35.0,-1,1.0,0.4050999999999476
387,27,0.5,1.0,-35.0,-1,1.0,0.924900000000207
388,27,0.5,1.0,-35.0,-1,1.0,0.7019999999997708
389,27,0.5,0.125,35.0,-1,0.0,0.5686000000000604
390,27,0.5,0.0625,-35.0,-1,1.0,0.4954999999999927
391,27,0.5,1.0,-35.0,-1,1.0,0.4654000000000451
392,27,0.5,0.0625,35.0,1,1.0,0.36220000000002983
393,27,0.5,0.0,35.0,-1,0.0,0.49900000000002365
394,27,0.5,0.25,35.0,1,1.0,0.3724000000001979
395,27,0.5,0.0625,35.0,-1,0.0,2.972300000000132
396,27,0.5,0.25,-35.0,-1,1.0,1.0226999999999862
397,27,0.5,1.0,-35.0,-1,1.0,0.8857000000000426
398,27,0.5,0.125,35.0,1,1.0,1.3661000000001877
399,27,0.5,0.25,-35.0,-1,1.0,1.6094000000000506
400,27,0.5,0.0625,-35.0,-1,1.0,0.446400000000267
401,27,0.5,1.0,-35.0,-1,1.0,0.4295999999999367
402,27,0.5,1.0,35.0,1,1.0,0.26320000000009713
403,27,0.5,0.25,35.0,1,1.0,0.3028999999999087
404,27,0.5,0.125,35.0,1,1.0,0.4000999999998385
405,27,0.5,0.125,-35.0,-1,1.0,0.5998000000001866
406,27,0.5,0.0,35.0,-1,0.0,0.7333999999998468
407,27,0.5,0.0625,-35.0,-1,1.0,1.4368999999999232
408,27,0.5,0.0,35.0,-1,0.0,2.0368000000000848
409,27,0.5,0.0625,35.0,-1,0.0,0.4437000000000353
410,27,0.5,0.0625,-35.0,-1,1.0,0.8969999999999345
411,27,0.5,0.0625,-35.0,1,0.0,0.43030000000021573
412,27,0.5,0.25,35.0,1,1.0,0.3306999999997515
413,27,0.5,0.125,35.0,-1,0.0,2.003900000000158
414,27,0.3,0.125,-35.0,-1,1.0,0.8942000000001826
415,27,0.5,1.0,35.0,1,1.0,0.45060000000012224
416,27,0.5,0.25,-35.0,-1,1.0,5.190800000000081
417,27,0.5,1.0,35.0,1,1.0,0.41790000000037253
418,27,0.5,0.0625,-35.0,-1,1.0,1.1077000000000226
419,27,0.5,0.25,-35.0,-1,1.0,0.6544000000003507
420,27,0.5,0.125,-35.0,-1,1.0,0.5677999999998065
421,27,0.5,0.25,-35.0,-1,1.0,0.5144000000000233
422,27,0.5,0.0625,35.0,-1,0.0,1.1114000000002306
423,27,0.2,0.0625,35.0,-1,0.0,0.4679000000000997
424,27,0.5,1.0,-35.0,-1,1.0,6.151600000000144
425,27,0.5,0.0625,35.0,-1,0.0,0.9882999999999811
426,27,0.5,0.25,-35.0,-1,1.0,3.5551000000000386
427,27,0.5,0.25,35.0,1,1.0,0.4254000000000815
428,27,0.5,0.125,-35.0,-1,1.0,0.6152999999999338
429,27,0.5,0.0625,35.0,-1,0.0,0.23849999999993088
430,27,0.5,0.25,-35.0,-1,1.0,2.8921000000004824
431,27,0.5,0.0625,-35.0,-1,1.0,0.8424999999997453
432,27,0.5,0.25,-35.0,-1,1.0,0.5690999999997075
433,27,0.5,0.125,35.0,-1,0.0,4.182600000000093
434,27,0.1,0.125,35.0,1,1.0,0.3491999999996551
435,27,0.5,1.0,35.0,1,1.0,0.2758000000003449
436,27,0.5,0.125,-35.0,-1,1.0,0.4057999999999993
437,27,0.5,0.0,35.0,-1,0.0,0.9291999999995824
438,27,0.2,0.0,-35.0,-1,1.0,0.9960000000000946
439,27,0.5,1.0,-35.0,-1,1.0,4.249700000000303
440,27,0.5,0.25,35.0,1,1.0,0.936200000000099
441,27,0.5,0.125,-35.0,-1,1.0,0.8196000000002641
442,27,0.5,0.25,35.0,1,1.0,0.33310000000028595
443,27,0.5,0.25,-35.0,-1,1.0,6.206599999999526
444,27,0.5,1.0,-35.0,-1,1.0,0.9501999999997679
445,27,0.5,0.25,35.0,1,1.0,0.43380000000024665
446,27,0.5,0.0625,-35.0,-1,1.0,4.6766999999999825
447,27,0.5,0.0625,35.0,-1,0.0,0.9002000000004955
448,27,0.3,0.0625,35.0,1,1.0,0.4537999999997737
449,27,0.5,1.0,35.0,1,1.0,0.5203000000001339
450,27,0.5,0.125,35.0,1,1.0,1.1872000000003027
451,27,0.5,0.0,35.0,-1,0.0,0.49390000000039436
452,27,0.5,0.0,35.0,-1,0.0,0.5675000000001091
453,27,0.5,0.25,35.0,1,1.0,0.3441000000002532
454,27,0.5,0.125,-35.0,-1,1.0,0.3143000000000029
455,27,0.5,0.25,-35.0,1,0.0,0.6345999999998639
456,27,0.5,0.125,35.0,1,1.0,0.25109999999995125
457,27,0.5,0.25,35.0,1,1.0,0.3373999999998887
458,27,0.5,1.0,35.0,1,1.0,0.2743999999997868
459,27,0.5,0.125,-35.0,1,0.0,3.9144000000001142
460,27,0.5,0.125,-35.0,1,0.0,1.4079000000001543
461,27,0.5,0.0625,-35.0,-1,1.0,3.961500000000342
462,27,0.5,0.0,35.0,-1,0.0,2.83829999999989
463,27,0.7,0.0,-35.0,-1,1.0,0.8881000000001222
464,27,0.5,1.0,35.0,1,1.0,0.3585000000002765
465,27,0.5,0.125,-35.0,1,0.0,0.698399999999765
466,27,0.5,0.0625,35.0,1,1.0,4.54529999999977
467,27,0.5,0.0,35.0,-1,0.0,1.3652000000001863
468,27,0.5,0.25,-35.0,-1,1.0,3.332100000000082
469,27,0.5,0.125,-35.0,1,0.0,1.5954000000001543
470,27,0.5,0.0625,-35.0,-1,1.0,0.6192000000000917
471,27,0.5,0.0,-35.0,-1,1.0,0.575800000000072
472,27,0.5,0.25,35.0,-1,0.0,5.329200000000128
473,27,0.5,0.125,35.0,1,1.0,0.2957000000001244
474,27,0.5,1.0,-35.0,-1,1.0,0.41600000000016735
475,27,0.5,0.125,35.0,1,1.0,0.4194999999999709
476,27,0.5,0.0625,35.0,-1,0.0,0.6462000000001353
477,27,0.5,0.25,35.0,1,1.0,0.35619999999971697
478,27,0.5,1.0,-35.0,-1,1.0,0.4432000000001608
479,27,0.5,0.125,35.0,-1,0.0,2.2234000000003107
480,27,0.5,0.25,-35.0,-1,1.0,0.3799999999996544
481,27,0.5,0.0625,-35.0,-1,1.0,0.5467999999996209
482,27,0.5,1.0,-35.0,-1,1.0,0.6199999999998909
483,27,0.5,0.0625,35.0,-1,0.0,0.8199000000004162
484,27,0.5,0.125,35.0,1,1.0,0.44030000000020664
485,27,0.5,0.0,-35.0,-1,1.0,0.5705000000002656
486,27,0.5,0.0,35.0,-1,0.0,0.7868999999996049
487,27,0.5,0.0,35.0,-1,0.0,0.8037999999996828
488,27,0.5,0.25,35.0,1,1.0,0.4505999999996675
489,27,0.5,0.0625,-35.0,1,0.0,1.8872000000005755
490,27,0.3,0.0625,-35.0,-1,1.0,0.617399999999634
491,27,0.5,1.0,35.0,1,1.0,0.32079999999950815
492,27,0.5,1.0,-35.0,-1,1.0,1.0374000000001615
493,27,0.5,0.0625,35.0,-1,0.0,0.8342999999999847
494,27,0.4,0.0625,-35.0,-1,1.0,2.1645000000003165
495,27,0.5,1.0,-35.0,-1,1.0,2.304500000000189
496,27,0.5,1.0,-35.0,-1,1.0,2.007799999999861
497,27,0.5,0.25,35.0,1,1.0,0.6545999999998457
498,27,0.5,0.0625,-35.0,-1,1.0,1.0347999999999047
499,27,0.5,1.0,-35.0,-1,1.0,0.5614000000000487
500,27,0.5,0.0,-35.0,-1,1.0,0.868199999999888
501,27,0.5,1.0,35.0,1,1.0,0.3318999999996777
502,27,0.5,0.0625,35.0,-1,0.0,0.9850000000001273
503,27,0.5,0.0,-35.0,-1,1.0,2.958599999999933
504,27,0.5,0.0625,-35.0,-1,1.0,0.8085000000000946
505,27,0.5,1.0,-35.0,-1,1.0,0.9519000000000233
506,27,0.5,0.0,-35.0,-1,1.0,0.86200000000008
507,27,0.5,0.25,-35.0,-1,1.0,0.998700000000099
508,27,0.5,0.125,-35.0,-1,1.0,0.5223000000000866
509,27,0.5,0.125,-35.0,-1,1.0,0.502400000000307
510,27,0.5,0.0,-35.0,-1,1.0,1.9057999999999993
511,27,0.5,1.0,35.0,1,1.0,0.33920000000034634
512,27,0.5,0.25,35.0,1,1.0,0.40899999999965075
513,27,0.5,1.0,-35.0,-1,1.0,0.33270000000038635
514,27,0.5,0.125,35.0,1,1.0,0.3492999999998574
515,27,0.5,0.25,-35.0,-1,1.0,2.332800000000134
516,27,0.5,0.125,-35.0,-1,1.0,0.9693999999994958
517,27,0.5,0.0,35.0,-1,0.0,0.7062000000000808
518,27,0.5,0.0625,35.0,-1,0.0,0.426600000000235
519,27,0.5,0.25,35.0,1,1.0,0.353099999999813
520,27,0.5,0.25,-35.0,-1,1.0,1.3333999999999833
521,27,0.5,1.0,35.0,1,1.0,0.32349999999996726
522,27,0.5,0.125,35.0,-1,0.0,3.3867000000004737
523,27,0.5,0.125,-35.0,-1,1.0,1.2267000000001644
524,27,0.5,0.125,-35.0,-1,1.0,2.2567000000003645
525,27,0.5,0.125,35.0,1,1.0,0.4202999999997701
526,27,0.5,0.25,-35.0,-1,1.0,3.093800000000556
527,27,0.5,0.0625,35.0,-1,0.0,0.6473000000000866
528,27,0.5,0.0625,35.0,1,1.0,0.4039999999995416
529,27,0.5,0.125,35.0,-1,0.0,4.653900000000249
530,27,0.5,0.0625,-35.0,-1,1.0,0.6473000000000866
531,27,0.5,0.25,35.0,1,1.0,0.3073999999996886
532,27,0.5,1.0,-35.0,-1,1.0,0.8274000000001251
533,27,0.5,0.25,35.0,1,1.0,0.35470000000032087
534,27,0.5,1.0,-35.0,-1,1.0,1.1975000000002183
535,27,0.5,0.0625,35.0,-1,0.0,0.8274999999998727
536,27,0.5,0.125,35.0,-1,0.0,0.4677999999998974
537,27,0.3,0.125,35.0,-1,0.0,0.7546000000002095
538,27,0.5,1.0,35.0,1,1.0,0.2613000000001193
539,27,0.5,0.25,35.0,1,1.0,0.2782999999999447
540,27,0.5,1.0,-35.0,-1,1.0,0.5548000000003412
541,27,0.5,0.0625,35.0,1,1.0,0.4449000000004162
542,27,0.5,0.125,35.0,1,1.0,0.6282000000001062
543,27,0.5,0.125,35.0,1,1.0,0.7320999999997184
544,27,0.5,0.25,-35.0,-1,1.0,0.9456000000004678
545,27,0.5,0.125,35.0,1,1.0,0.3552999999997155
546,27,0.5,0.0625,35.0,1,1.0,0.3787000000002081
547,27,0.5,0.25,-35.0,1,0.0,0.6257000000000517
548,27,0.8,0.25,35.0,1,1.0,0.36570000000028813
549,27,0.5,1.0,-35.0,-1,1.0,0.2622000000001208
550,27,0.5,0.0,-35.0,-1,1.0,0.31570000000010623
551,27,0.5,0.0625,35.0,-1,0.0,0.4427000000005137
552,27,0.5,0.0625,35.0,-1,0.0,0.8191999999999098
553,27,0.5,0.125,-35.0,-1,1.0,1.5996000000000095
554,27,0.5,0.125,35.0,1,1.0,1.4762000000000626
555,27,0.5,0.0625,-35.0,-1,1.0,0.679700000000139
556,27,0.5,1.0,-35.0,-1,1.0,0.5927999999998974
557,27,0.5,1.0,-35.0,-1,1.0,0.7695999999996275
558,27,0.5,0.25,-35.0,-1,1.0,0.9630999999999403
559,27,0.5,0.25,-35.0,-1,1.0,0.3368000000000393
560,27,0.5,0.125,-35.0,-1,1.0,0.4001000000002932
561,27,0.5,1.0,35.0,1,1.0,0.3998999999998887
562,27,0.5,0.25,35.0,1,1.0,0.28339999999980137
563,27,0.5,1.0,35.0,1,1.0,0.293800000000374
564,27,0.5,0.0625,35.0,1,1.0,0.3568999999997686
565,27,0.5,0.25,-35.0,-1,1.0,2.120400000000245
566,27,0.5,0.25,35.0,1,1.0,0.9306000000001404
567,27,0.5,0.0625,-35.0,-1,1.0,1.3272000000001754
568,27,0.5,0.125,35.0,1,1.0,0.46059999999988577
569,27,0.5,1.0,35.0,1,1.0,0.30399999999963256
570,27,0.5,0.0625,35.0,-1,0.0,0.8507000000004155
571,27,0.5,0.0,-35.0,-1,1.0,4.561100000000351
572,27,0.5,0.125,35.0,1,1.0,1.1677999999997155
573,27,0.5,0.0,35.0,-1,0.0,0.4982009999998809
574,27,0.5,0.0,-35.0,-1,1.0,0.8812009999996917
575,27,0.5,1.0,-35.0,-1,1.0,0.5047009999998409
576,27,0.5,0.25,-35.0,-1,1.0,0.8613009999994574
577,27,0.5,0.0625,35.0,1,1.0,1.3716010000002825
578,27,0.5,0.0,-35.0,-1,1.0,1.0953010000002905
579,27,0.5,0.25,-35.0,-1,1.0,0.7285010000005059
580,27,0.5,0.25,-35.0,-1,1.0,4.758401000000049
581,27,0.5,0.0625,-35.0,-1,1.0,0.5553010000003269
582,27,0.5,0.0625,35.0,1,1.0,2.3255009999998038
583,27,0.5,0.0625,35.0,-1,0.0,0.805601000000479
584,27,0.5,0.125,35.0,1,1.0,0.4322009999996226
585,27,0.5,0.25,-35.0,-1,1.0,0.5656009999997877
586,27,0.5,1.0,35.0,1,1.0,0.9159009999998489
587,27,0.5,0.125,35.0,1,1.0,1.0157010000002629
588,27,0.5,0.0625,35.0,-1,0.0,2.325601000000006
589,27,0.5,0.125,-35.0,-1,1.0,2.7226009999999405
590,27,0.5,0.0625,-35.0,1,0.0,0.3761010000002898
591,27,0.5,0.0625,35.0,1,1.0,0.3760010000000875
592,27,0.5,1.0,35.0,-1,0.0,4.802701000000525
593,27,0.5,1.0,-35.0,1,0.0,0.3029009999995651
594,27,0.6,1.0,-35.0,-1,1.0,3.2497010000001865
595,27,0.5,1.0,-35.0,-1,1.0,4.860100999999759
596,27,0.5,0.125,35.0,-1,0.0,0.3598010000000613
597,27,0.5,0.25,35.0,1,1.0,0.316801000000396
598,27,0.5,0.125,-35.0,-1,1.0,3.146901000000071
599,27,0.5,0.0625,35.0,-1,0.0,2.1070010000003094
600,27,0.5,0.0,-35.0,1,0.0,3.1340009999998983
601,27,0.4,0.0,-35.0,1,0.0,0.8805010000005495
602,27,0.5,1.0,35.0,1,1.0,5.413900999999896
603,27,0.5,0.25,35.0,-1,0.0,4.927400999999918
604,27,0.5,0.125,35.0,-1,0.0,0.5843010000003233
605,27,0.5,0.25,-35.0,-1,1.0,0.44800100000020393
606,27,0.5,0.125,35.0,-1,0.0,3.8445010000000366
607,27,0.5,0.0625,-35.0,-1,1.0,0.4747010000000955
608,27,0.5,1.0,-35.0,-1,1.0,0.6112010000001646
609,27,0.5,0.25,-35.0,-1,1.0,0.5713009999999485
610,27,0.5,0.0625,-35.0,-1,1.0,0.7748010000004797
611,27,0.5,0.0625,35.0,-1,0.0,6.655001000000084
612,27,0.1,0.0625,35.0,1,1.0,0.281601000000137
613,27,0.5,1.0,35.0,1,1.0,0.3384009999999762
614,27,0.5,0.25,35.0,-1,0.0,5.491700999999921
615,27,0.5,0.0,-35.0,-1,1.0,0.6689010000000053
616,27,0.5,0.125,35.0,-1,0.0,0.39540100000021994
617,27,0.5,0.0625,-35.0,-1,1.0,0.7991010000000642
618,27,0.5,0.0,35.0,-1,0.0,0.7422010000000228
619,27,0.5,0.125,-35.0,-1,1.0,0.30260100000032253
620,27,0.5,0.0625,-35.0,-1,1.0,0.8757009999994807
621,27,0.5,0.25,-35.0,-1,1.0,0.5690010000002985
622,27,0.5,0.0,-35.0,-1,1.0,0.3361009999998714
623,27,0.5,0.25,35.0,1,1.0,0.3562010000000555
624,27,0.5,0.125,-35.0,-1,1.0,0.32950099999970917
625,27,0.5,1.0,-35.0,-1,1.0,0.4161010000002534
626,27,0.5,0.0,-35.0,-1,1.0,0.3028009999998176
627,27,0.5,0.25,-35.0,-1,1.0,0.24280099999987215
628,27,0.5,0.25,35.0,1,1.0,0.26630100000011225
629,27,0.5,0.125,35.0,1,1.0,0.356300999999803
630,27,0.5,1.0,35.0,1,1.0,0.29660100000000966
631,27,0.5,0.25,35.0,1,1.0,0.3699010000000271
632,27,0.5,1.0,35.0,1,1.0,0.32010100000024977
633,27,0.5,0.0625,-35.0,-1,1.0,5.500301000000036
634,27,0.5,0.25,-35.0,-1,1.0,0.877201000000241
635,27,0.5,0.25,35.0,1,1.0,0.2174009999998816
636,27,0.5,0.25,35.0,1,1.0,0.3473009999997885
637,27,0.5,0.125,-35.0,-1,1.0,0.29720099999985905
638,27,0.5,1.0,-35.0,-1,1.0,3.2640010000000075
639,27,0.5,0.125,35.0,-1,0.0,5.361100999999962
640,27,0.5,0.125,-35.0,-1,1.0,0.7809010000000853
641,27,0.5,0.0625,35.0,1,1.0,1.4142010000000482
642,27,0.5,0.125,-35.0,-1,1.0,1.8412010000006376
643,27,0.5,0.125,35.0,-1,0.0,0.15790100000003804
644,27,0.5,0.0625,35.0,1,1.0,1.184701000000132
645,27,0.5,0.25,-35.0,-1,1.0,3.98790100000042
646,27,0.5,1.0,-35.0,-1,1.0,0.5815010000001166
647,27,0.5,1.0,35.0,1,1.0,0.27500099999997474
648,27,0.5,1.0,35.0,1,1.0,0.2817009999998845
649,27,0.5,0.25,-35.0,-1,1.0,1.0288009999999304
650,27,0.5,1.0,-35.0,-1,1.0,0.7721010000000206
651,27,0.5,0.25,35.0,-1,0.0,5.202000999999655
652,27,0.3,0.25,-35.0,-1,1.0,0.8524010000000999
653,27,0.5,1.0,35.0,1,1.0,0.5056009999998423
654,27,0.5,0.0,-35.0,-1,1.0,0.7156009999998787
655,27,0.5,0.0,-35.0,-1,1.0,1.0458010000002105
656,27,0.5,1.0,35.0,1,1.0,0.9895010000000184
657,27,0.5,0.125,-35.0,-1,1.0,0.32590099999970334
658,27,0.5,1.0,35.0,1,1.0,10.359601000000112
659,27,0.5,1.0,35.0,1,1.0,0.9294009999998707
660,27,0.5,0.125,35.0,-1,0.0,8.869600999999875
661,27,0.5,0.125,-35.0,-1,1.0,1.8065010000000257
662,27,0.5,0.25,-35.0,-1,1.0,0.8168009999994865
663,27,0.5,0.0625,35.0,-1,0.0,0.31680099999994127
664,27,0.5,0.25,35.0,1,1.0,0.3100009999998292
665,27,0.5,1.0,35.0,1,1.0,0.2971010000001115
666,27,0.5,1.0,-35.0,-1,1.0,0.49020100000007005
667,27,0.5,0.125,-35.0,-1,1.0,0.18680100000028688
668,27,0.5,0.0625,-35.0,-1,1.0,0.6837009999999282
669,27,0.5,0.0,35.0,-1,0.0,0.940400999999838
670,27,0.5,0.0,-35.0,-1,1.0,0.33710100000007515
671,27,0.5,1.0,35.0,1,1.0,0.2540009999997892
672,27,0.5,0.0,-35.0,-1,1.0,0.6307009999995898
673,27,0.5,1.0,-35.0,-1,1.0,0.5475010000000111
674,27,0.5,0.25,35.0,1,1.0,0.32750099999975646
675,27,0.5,0.0625,-35.0,-1,1.0,0.3413009999994756
676,27,0.5,0.0,-35.0,-1,1.0,0.6112009999997099
677,27,0.5,0.0625,-35.0,-1,1.0,3.527900999999929
678,27,0.5,1.0,-35.0,-1,1.0,0.5378010000003997
679,27,0.5,0.0625,-35.0,-1,1.0,0.5017010000001392
680,27,0.5,0.0625,35.0,-1,0.0,0.7152009999999791
681,27,0.2,0.0625,35.0,-1,0.0,0.37490100000013626
682,27,0.5,1.0,-35.0,-1,1.0,0.804801000000225
683,27,0.5,0.0,35.0,-1,0.0,0.9883009999998649
684,27,0.5,0.25,-35.0,-1,1.0,0.3750009999998838
685,27,0.5,0.0625,-35.0,-1,1.0,0.30530099999987215
686,27,0.5,0.25,35.0,1,1.0,0.3320010000002185
687,27,0.5,0.0625,-35.0,-1,1.0,0.8587009999996553
688,27,0.5,0.125,-35.0,-1,1.0,0.8019010000002709
689,27,0.5,0.0,-35.0,-1,1.0,0.3523009999998976
690,27,0.5,0.0625,35.0,-1,0.0,0.9591009999999187
691,27,0.5,0.0,-35.0,-1,1.0,0.5990010000004986
692,27,0.5,0.125,-35.0,1,0.0,0.36290100000042
693,27,0.5,0.25,-35.0,-1,1.0,0.5059009999999944
694,27,0.5,1.0,-35.0,-1,1.0,0.37960100000009334
695,27,0.5,0.25,-35.0,-1,1.0,0.26260099999990416
696,27,0.5,0.125,-35.0,-1,1.0,0.663101000000097
697,27,0.5,0.0625,35.0,-1,0.0,0.4063009999995302
698,27,0.5,0.25,-35.0,-1,1.0,0.5564010000002781
699,27,0.5,1.0,35.0,1,1.0,0.3164010000000417
700,27,0.5,0.125,-35.0,-1,1.0,0.35640100000046004
701,27,0.5,0.0,-35.0,-1,1.0,1.776401000000078
702,27,0.5,1.0,-35.0,-1,1.0,1.296600999999555
703,27,0.5,0.125,35.0,1,1.0,0.3267009999999573
704,27,0.5,0.0,35.0,-1,0.0,0.6069010000001072
705,27,0.5,0.125,35.0,1,1.0,0.38360099999999875
706,27,0.5,0.25,35.0,1,1.0,0.27370099999961894
707,27,0.5,1.0,-35.0,-1,1.0,0.4671010000001843
708,27,0.5,1.0,35.0,1,1.0,0.2439009999998234
709,27,0.5,0.0,35.0,-1,0.0,0.4039010000001326
710,27,0.4,0.0,-35.0,-1,1.0,0.5508009999998649
711,27,0.5,1.0,-35.0,-1,1.0,0.6274010000001908
712,27,0.5,0.0625,-35.0,-1,1.0,0.5275010000000293
713,27,0.5,0.25,-35.0,-1,1.0,0.43760100000008606
714,27,0.5,0.125,35.0,1,1.0,0.321201000000201
715,27,0.5,0.0,-35.0,-1,1.0,0.4710009999998874
716,27,0.5,1.0,-35.0,1,0.0,1.5013009999997848
717,27,0.5,0.25,-35.0,-1,1.0,0.31500099999993836
718,27,0.5,0.25,35.0,1,1.0,0.29500099999995655
719,27,0.5,0.25,-35.0,-1,1.0,1.0717009999998481
720,27,0.5,1.0,-35.0,-1,1.0,0.7018009999997048
721,27,0.5,0.25,35.0,1,1.0,0.34870100000034654
722,27,0.5,0.125,-35.0,-1,1.0,1.9419010000001435
723,27,0.5,0.0,-35.0,-1,1.0,0.5190010000001166
724,27,0.5,0.25,-35.0,-1,1.0,5.115500999999767
725,27,0.5,1.0,35.0,1,1.0,0.2921010000000024
726,27,0.5,0.0625,35.0,-1,0.0,0.7257009999998445
727,27,0.5,0.125,-35.0,-1,1.0,0.8492009999999937
728,27,0.5,0.0,35.0,-1,0.0,0.482401000000209
729,27,0.5,0.25,35.0,1,1.0,3.7692010000000664
730,27,0.5,0.125,35.0,1,1.0,0.289400999999998
731,27,0.5,1.0,-35.0,-1,1.0,0.9828010000001086
732,27,0.5,1.0,-35.0,-1,1.0,0.4062010000002374
733,27,0.5,0.0,35.0,-1,0.0,0.4063009999999849
734,27,0.3,0.0,-35.0,-1,1.0,0.8531010000001515
735,27,0.5,1.0,35.0,1,1.0,0.35970099999985905
736,27,0.5,0.125,-35.0,-1,1.0,0.5966010000001916
737,27,0.5,0.0625,-35.0,-1,1.0,1.4565010000001166
738,27,0.5,0.0625,35.0,-1,0.0,4.353301000000101
739,27,0.5,0.25,-35.0,-1,1.0,0.9069010000002891
740,27,0.5,1.0,-35.0,-1,1.0,0.6004010000001472
741,27,0.5,0.125,-35.0,-1,1.0,0.8403010000001814
742,27,0.5,1.0,-35.0,-1,1.0,0.3870010000000548
743,27,0.5,0.25,35.0,1,1.0,0.3204009999999471
744,27,0.5,0.25,-35.0,-1,1.0,0.3873009999997521
745,27,0.5,0.25,35.0,-1,0.0,5.500400999999783
746,27,0.1,0.25,35.0,1,1.0,0.3309009999998125
747,27,0.5,1.0,-35.0,-1,1.0,0.8274010000000089
748,27,0.5,1.0,-35.0,-1,1.0,0.25780100000019956
749,27,0.5,1.0,35.0,1,1.0,1.6810009999999238
750,27,0.5,1.0,35.0,1,1.0,0.2876009999999951
751,27,0.5,0.0625,35.0,-1,0.0,6.187900999999783
752,27,0.4,0.0625,-35.0,-1,1.0,0.5245009999998729
753,27,0.5,1.0,35.0,1,1.0,0.32480100000020684
754,27,0.5,0.125,35.0,-1,0.0,0.6551010000002861
755,27,0.4,0.125,35.0,1,1.0,0.5681010000002971
756,27,0.5,1.0,35.0,1,1.0,0.27150099999971644
757,27,0.5,0.125,-35.0,-1,1.0,0.8416009999996277
758,27,0.5,0.0625,35.0,-1,0.0,1.6181010000000242
759,27,0.5,0.125,-35.0,-1,1.0,0.7253009999999449
760,27,0.5,0.25,-35.0,-1,1.0,0.5653010000000904
761,27,0.5,0.0,35.0,-1,0.0,0.3552010000003065
762,27,0.5,0.25,-35.0,-1,1.0,1.0387009999999464
763,27,0.5,0.125,35.0,1,1.0,0.5887009999996735
764,27,0.5,0.125,-35.0,-1,1.0,0.835501000000022
765,27,0.5,0.0,35.0,-1,0.0,5.555601000000024
766,27,0.5,0.0,35.0,-1,0.0,0.4693010000000868
767,27,0.5,0.125,-35.0,-1,1.0,1.0192010000000664
768,27,0.5,0.125,35.0,1,1.0,0.38260100000024977
769,27,0.5,1.0,35.0,1,1.0,0.4326009999999769
770,27,0.5,0.25,-35.0,-1,1.0,0.47940100000050734
771,27,0.5,0.125,35.0,1,1.0,0.7060010000004695
772,27,0.5,0.125,35.0,1,1.0,0.5761009999996531
773,27,0.5,1.0,35.0,1,1.0,0.2963009999998576
774,27,0.5,0.25,35.0,-1,0.0,0.15659999999979846
775,27,0.5,0.25,35.0,1,1.0,1.3299010000000635
776,27,0.5,0.25,35.0,1,1.0,0.3700010000002294
777,27,0.5,0.125,35.0,-1,0.0,4.946601000000101
778,27,0.7,0.125,-35.0,-1,1.0,1.2401009999998678
779,27,0.5,1.0,-35.0,-1,1.0,0.6201009999999769
780,27,0.5,0.125,-35.0,-1,1.0,0.5036009999998896
781,27,0.5,0.0625,35.0,-1,0.0,0.4071009999997841
782,27,0.5,0.25,-35.0,-1,1.0,1.1238009999997303
783,27,0.5,1.0,-35.0,-1,1.0,0.48360100000036255
784,27,0.5,0.0625,35.0,1,1.0,0.31060100000013335
785,27,0.5,0.25,35.0,1,1.0,0.38720100000000457
786,27,0.5,1.0,-35.0,-1,1.0,0.5041009999995367
787,27,0.5,1.0,35.0,1,1.0,0.33070100000031744
788,27,0.5,0.25,-35.0,1,0.0,0.2207010000001901
789,27,0.5,0.125,35.0,-1,0.0,0.8577009999999063
790,27,0.4,0.125,-35.0,-1,1.0,0.45110099999965314
791,27,0.5,1.0,35.0,1,1.0,0.2512010000000373
792,27,0.5,0.25,35.0,1,1.0,0.3745010000002367
793,27,0.5,1.0,-35.0,-1,1.0,2.0947009999999864
794,27,0.5,0.25,-35.0,-1,1.0,2.4547010000001137
795,27,0.5,1.0,-35.0,-1,1.0,3.9015010000002803
796,27,0.5,0.25,-35.0,-1,1.0,0.7086009999998168
797,27,0.5,0.25,35.0,1,1.0,0.3918010000002141
798,27,0.5,0.125,-35.0,-1,1.0,0.5351010000003953
799,27,0.5,1.0,35.0,1,1.0,0.3684010000001763
800,27,0.5,0.125,35.0,1,1.0,0.3684010000001763
801,27,0.5,1.0,35.0,1,1.0,0.3219010000002527
802,27,0.5,0.0625,-35.0,-1,1.0,1.0789010000003145
803,27,0.5,0.25,-35.0,-1,1.0,0.8255010000002585
804,27,0.5,1.0,35.0,1,1.0,0.23920099999986633
805,27,0.5,0.25,-35.0,-1,1.0,1.5260009999997237
806,27,0.5,1.0,35.0,1,1.0,0.26910099999895465
807,27,0.5,0.25,-35.0,-1,1.0,1.775800999999774
808,27,0.5,0.125,35.0,-1,0.0,0.5926009999993767
809,27,0.5,0.0625,-35.0,-1,1.0,0.5527009999987058
810,27,0.5,0.25,35.0,1,1.0,0.3994009999996706
811,27,0.5,1.0,35.0,1,1.0,0.2762009999996735
812,27,0.5,0.0,35.0,-1,0.0,0.7497009999997317
813,27,0.5,0.125,-35.0,-1,1.0,0.7862009999998918
814,27,0.5,0.0,-35.0,-1,1.0,0.25650099999984377
815,27,0.5,1.0,-35.0,-1,1.0,0.4865009999994072
816,27,0.5,0.25,35.0,1,1.0,0.49330099999951926
817,27,0.5,0.125,35.0,1,1.0,0.30660099999931845
818,27,0.5,0.0625,-35.0,-1,1.0,0.6498010000004797
819,27,0.5,1.0,35.0,1,1.0,0.27340100000037637
820,27,0.5,0.25,35.0,1,1.0,0.3300009999993563
821,27,0.5,0.0,-35.0,-1,1.0,1.1572009999999864
822,27,0.5,1.0,35.0,1,1.0,0.36030099999879894
823,27,0.5,0.125,35.0,1,1.0,0.38040099999943777
824,27,0.5,0.0,35.0,-1,0.0,0.8009009999996124
825,27,0.6,0.0,35.0,-1,0.0,0.6704009999994014
826,27,0.5,1.0,-35.0,-1,1.0,0.8039010000002236
827,27,0.5,0.125,35.0,-1,0.0,0.25770100000045204
828,27,0.4,0.125,-35.0,1,0.0,0.44740099999944505
829,27,0.5,1.0,-35.0,-1,1.0,0.4877010000000155
830,27,0.5,0.125,35.0,1,1.0,0.244300999999723
831,27,0.5,0.125,35.0,1,1.0,0.8645009999991089
832,27,0.5,0.0,-35.0,-1,1.0,0.6176009999990129
833,27,0.5,1.0,35.0,1,1.0,0.2612009999993461
834,27,0.5,0.0,-35.0,-1,1.0,1.0680009999987305
835,27,0.5,0.0625,-35.0,-1,1.0,0.33130099999925733
836,27,0.5,0.25,-35.0,-1,1.0,1.0548009999993155
837,27,0.5,0.25,35.0,1,1.0,0.34820099999888043
838,27,0.5,1.0,35.0,1,1.0,0.2516009999999369
839,27,0.5,0.25,-35.0,-1,1.0,0.4917009999990114
840,27,0.5,0.25,-35.0,-1,1.0,0.5583009999991191
841,27,0.5,0.25,-35.0,-1,1.0,0.842000999999982
842,27,0.5,0.25,35.0,1,1.0,0.23560099999940576
843,27,0.5,0.25,35.0,1,1.0,0.2954009999994014
844,27,0.5,0.125,35.0,-1,0.0,0.7490009999983158
845,27,0.5,0.25,-35.0,-1,1.0,3.2257009999984803
846,27,0.5,0.125,35.0,-1,0.0,0.5791010000002643
847,27,0.5,0.125,-35.0,-1,1.0,0.7424009999995178
848,27,0.5,0.125,35.0,1,1.0,1.3458009999994829
849,27,0.5,0.0,-35.0,-1,1.0,1.5059009999995396
850,27,0.5,0.25,35.0,1,1.0,0.34260099999937665
851,27,0.5,0.125,-35.0,-1,1.0,1.2161009999999806
852,27,0.5,0.0,-35.0,-1,1.0,1.0494009999993068
853,27,0.5,0.125,35.0,1,1.0,0.46280099999967206
854,27,0.5,0.25,-35.0,-1,1.0,0.5828009999995629
855,27,0.5,0.125,35.0,1,1.0,0.46990099999948143
856,27,0.5,0.25,35.0,1,1.0,0.3531009999996968
857,27,0.5,0.125,-35.0,-1,1.0,0.94300099999964
858,27,0.5,0.125,35.0,1,1.0,0.3699010000000271
859,27,0.5,1.0,-35.0,-1,1.0,1.0868009999994683
860,27,0.5,1.0,35.0,1,1.0,0.3135009999987233
861,27,0.5,0.25,-35.0,-1,1.0,0.5105009999997492
862,27,0.5,0.25,35.0,1,1.0,0.38370100000065577
863,27,0.5,0.0,-35.0,-1,1.0,6.347000999999182
864,27,0.5,0.0,-35.0,-1,1.0,0.9272009999995134
865,27,0.5,0.25,35.0,1,1.0,2.34400099999948
866,27,0.5,0.125,35.0,-1,0.0,2.474000999999589
867,27,0.5,0.0625,-35.0,-1,1.0,4.911001000000397
868,27,0.5,0.25,-35.0,-1,1.0,0.7809009999991758
869,27,0.5,1.0,35.0,1,1.0,0.31440099999872473
870,27,0.5,1.0,35.0,1,1.0,0.3546010000000024
871,27,0.5,0.125,-35.0,-1,1.0,0.43490099999962695
872,27,0.5,0.0,-35.0,1,0.0,0.2380009999997128
873,27,0.4,0.0,-35.0,-1,1.0,0.4817009999997026
874,27,0.5,1.0,-35.0,-1,1.0,0.4913010000000213
875,27,0.5,0.25,-35.0,1,0.0,0.27830100000028324
876,27,0.5,0.125,35.0,1,1.0,1.2917009999991933
877,27,0.5,0.125,35.0,1,1.0,0.39490099999875383
878,27,0.5,0.125,35.0,1,1.0,0.31840099999953964
879,27,0.5,0.0625,35.0,-1,0.0,0.44190099999923405
880,27,0.6,0.0625,-35.0,-1,1.0,0.6953009999997448
881,27,0.5,1.0,35.0,1,1.0,0.31180099999983213
882,27,0.5,0.0,35.0,-1,0.0,0.8953009999986534
883,27,0.5,0.0625,35.0,-1,0.0,6.202400999998645
884,27,0.5,0.25,35.0,1,1.0,0.34220099999947706
885,27,0.5,0.0625,-35.0,-1,1.0,0.8558009999997012
886,27,0.5,0.25,-35.0,-1,1.0,0.715900999999576
887,27,0.5,0.0625,-35.0,-1,1.0,0.33260100000006787
888,27,0.5,0.125,-35.0,1,0.0,0.27270099999986996
889,27,0.5,0.25,-35.0,-1,1.0,4.113000999998803
890,27,0.5,0.0,35.0,1,1.0,0.3229009999995469
891,27,0.5,0.0625,35.0,1,1.0,0.3266009999988455
892,27,0.5,1.0,35.0,1,1.0,0.2829009999986738
893,27,0.5,0.0,35.0,1,1.0,0.29990099999940867
894,27,0.5,1.0,-35.0,-1,1.0,1.0065009999989343
895,27,0.5,0.0,35.0,-1,0.0,0.41650099999878876
896,27,0.5,0.125,-35.0,-1,1.0,0.7202009999991787
897,27,0.5,1.0,-35.0,-1,1.0,0.4671010000001843
898,27,0.5,0.0625,35.0,1,1.0,0.4068010000000868
899,27,0.5,0.0625,-35.0,-1,1.0,0.41720099999929516
900,27,0.5,0.25,-35.0,-1,1.0,0.48700100000041857
901,27,0.5,0.0,-35.0,-1,1.0,0.51390100000026
902,27,0.5,0.125,-35.0,-1,1.0,0.5437009999996008
903,27,0.5,0.25,35.0,1,1.0,0.2406009999995149
904,27,0.5,0.25,-35.0,-1,1.0,0.6373009999997521
905,27,0.5,0.125,35.0,1,1.0,0.3076009999995222
906,27,0.5,0.125,35.0,1,1.0,0.38090099999953964
907,27,0.5,0.0,35.0,-1,0.0,3.9242009999998118
908,27,0.5,0.125,-35.0,1,0.0,0.6713009999994028
909,27,0.5,0.0,-35.0,-1,1.0,0.3611009999995076
910,27,0.5,0.0,35.0,-1,0.0,0.6313009999994392
911,27,0.5,0.25,35.0,1,1.0,0.32130099999903905
912,27,0.5,0.0625,35.0,1,1.0,0.3648009999997157
913,27,0.5,0.25,-35.0,-1,1.0,0.27830099999937374
914,27,0.5,0.0,-35.0,-1,1.0,1.0048010000000431
915,27,0.5,0.0625,-35.0,-1,1.0,0.34510099999988597
916,27,0.5,0.25,-35.0,-1,1.0,0.41500099999939266
917,27,0.5,0.25,35.0,-1,0.0,1.75550099999964
918,27,0.5,0.0,35.0,-1,0.0,0.9153009999999995
919,27,0.2,0.0,-35.0,-1,1.0,0.18240100000002712
920,27,0.5,1.0,-35.0,-1,1.0,0.8488010000000941
921,27,0.5,1.0,-35.0,-1,1.0,0.5292009999993752
922,27,0.5,1.0,-35.0,-1,1.0,0.5491009999996095
923,27,0.5,1.0,35.0,1,1.0,0.24230099999931554
924,27,0.5,0.25,-35.0,-1,1.0,0.26250099999924714
925,27,0.5,0.25,35.0,1,1.0,0.36240100000031816
926,27,0.5,0.0,35.0,1,1.0,0.3560009999991962
927,27,0.5,1.0,-35.0,-1,1.0,0.5959009999996852
928,27,0.5,1.0,35.0,1,1.0,0.282800999999381
929,27,0.5,0.25,35.0,1,1.0,0.37640099999953236
930,27,0.5,1.0,-35.0,-1,1.0,1.029700999999477
931,27,0.5,0.125,-35.0,-1,1.0,1.6263010000002396
932,27,0.5,0.0625,35.0,1,1.0,1.2864009999984773
933,27,0.5,1.0,35.0,1,1.0,0.2865009999995891
934,27,0.5,0.25,-35.0,-1,1.0,0.2633009999999558
935,27,0.5,0.125,35.0,1,1.0,0.42320099999869853
936,27,0.5,0.0,-35.0,-1,1.0,0.5968009999996866
937,27,0.5,0.0625,-35.0,-1,1.0,1.8370009999998729
938,27,0.5,0.25,35.0,1,1.0,0.3936009999997623
939,27,0.5,0.0625,-35.0,-1,1.0,0.5404009999992923
940,27,0.5,1.0,-35.0,-1,1.0,0.6803009999994174
941,27,0.5,0.0,-35.0,-1,1.0,0.860501000000113
942,27,0.5,0.0625,-35.0,-1,1.0,0.287200999999186
943,27,0.5,0.25,35.0,1,1.0,0.2939010000000053
944,27,0.5,0.0625,-35.0,-1,1.0,1.2608009999994465
945,27,0.5,0.0625,-35.0,-1,1.0,1.1812010000003283
946,27,0.5,1.0,-35.0,-1,1.0,1.0908009999993737
947,27,0.5,0.125,-35.0,-1,1.0,0.46760100000028615
948,27,0.5,0.25,35.0,1,1.0,0.2711009999993621
949,27,0.5,1.0,35.0,1,1.0,0.23780099999930826
950,27,0.5,0.0625,-35.0,-1,1.0,0.6344009999993432
951,27,0.5,0.25,-35.0,-1,1.0,0.6548009999996793
952,27,0.5,0.0625,35.0,-1,0.0,0.6780009999993126
953,27,0.5,0.0,-35.0,-1,1.0,0.4884009999996124
954,27,0.5,0.25,-35.0,-1,1.0,0.7482009999994261
955,27,0.5,0.0,-35.0,-1,1.0,0.3016009999992093
956,27,0.5,1.0,35.0,1,1.0,0.24520099999972444
957,27,0.5,0.25,35.0,1,1.0,0.41500099999939266
958,27,0.5,0.0625,-35.0,-1,1.0,0.6320009999990361
959,27,0.5,1.0,35.0,1,1.0,0.32210099999974773
960,27,0.5,0.25,35.0,1,1.0,0.3023009999988062
961,27,0.5,0.0,-35.0,-1,1.0,0.6288009999989299
962,27,0.5,0.0,-35.0,-1,1.0,0.4925009999997201
963,27,0.5,0.25,35.0,1,1.0,0.2991009999996095
964,27,0.5,0.0625,-35.0,-1,1.0,0.5259009999990667
965,27,0.5,0.125,35.0,1,1.0,0.3631009999999151
966,27,0.5,0.125,35.0,1,1.0,0.2627009999996517
967,27,0.5,0.125,35.0,-1,0.0,1.0628010000000359
968,27,0.5,0.0,-35.0,-1,1.0,2.542900999998892
969,27,0.5,0.25,-35.0,-1,1.0,0.4564009999994596
970,27,0.5,1.0,-35.0,-1,1.0,0.4796010000000024
971,27,0.5,0.125,35.0,1,1.0,0.2630010000002585
972,27,0.5,0.25,35.0,1,1.0,0.22320099999888043
973,27,0.5,0.125,35.0,1,1.0,0.9831009999998059
974,27,0.5,0.125,35.0,1,1.0,0.26690099999905215
975,27,0.5,0.25,35.0,1,1.0,0.3067009999995207
976,27,0.5,0.0,35.0,-1,0.0,0.6970009999995455
977,27,0.5,0.0,-35.0,1,0.0,0.890400999999656
978,27,0.5,0.25,35.0,1,1.0,0.3837009999997463
979,27,0.5,1.0,35.0,1,1.0,0.27390099999956874
980,27,0.5,0.125,35.0,1,1.0,0.570901000000049
981,27,0.5,1.0,35.0,1,1.0,0.2608009999994465
982,27,0.5,0.125,-35.0,-1,1.0,2.93420100000003
983,27,0.5,1.0,35.0,1,1.0,0.2843009999996866
984,27,0.5,0.0625,35.0,-1,0.0,0.8909009999988484
985,27,0.7,0.0625,-35.0,1,0.0,1.2545009999994363
986,27,0.5,1.0,-35.0,-1,1.0,5.911200999999892
987,27,0.5,0.25,35.0,-1,0.0,0.9482009999992442
988,27,0.5,0.0625,-35.0,-1,1.0,1.2484009999998307
989,27,0.5,0.0625,-35.0,-1,1.0,5.028100999998969
990,27,0.5,0.0625,-35.0,-1,1.0,4.321700999999848
991,27,0.5,0.25,-35.0,-1,1.0,0.5584009999993214
992,27,0.5,0.25,-35.0,-1,1.0,0.6950010000000475
993,27,0.5,0.25,35.0,1,1.0,1.1152009999987058
994,27,0.5,0.0625,35.0,-1,0.0,2.8255010000002585
995,27,0.2,0.0625,35.0,1,1.0,3.6189009999998234
996,27,0.5,1.0,35.0,1,1.0,0.31910100000004604
997,27,0.5,0.0625,-35.0,-1,1.0,0.7657009999993534
998,27,0.5,0.125,35.0,1,1.0,1.5325009999996837
999,27,0.5,1.0,-35.0,-1,1.0,0.6191009999993184
1000,27,0.5,0.125,35.0,-1,0.0,1.9693009999991773
1001,27,0.4,0.125,35.0,1,1.0,1.0361009999996895
1002,27,0.5,1.0,-35.0,-1,1.0,0.619500999999218
1003,27,0.5,1.0,-35.0,-1,1.0,1.1794010000003254
1004,27,0.5,0.0,-35.0,-1,1.0,0.5495009999995091
1005,27,0.5,0.0625,35.0,-1,0.0,3.16280099999949
1006,27,0.3,0.0625,35.0,1,1.0,0.4498009999988426
1007,27,0.5,1.0,35.0,1,1.0,0.2998010000001159
1008,27,0.5,0.125,-35.0,-1,1.0,0.41650099999969825
1009,27,0.5,0.25,35.0,1,1.0,0.3465009999990798
1010,27,0.5,1.0,-35.0,-1,1.0,0.5133009999990463
1011,27,0.5,0.25,35.0,1,1.0,0.9068009999991773
1012,27,0.5,0.125,35.0,-1,0.0,0.5202009999993606
1013,27,0.5,0.125,-35.0,-1,1.0,1.2602010000000519
1014,27,0.5,0.25,35.0,1,1.0,10.460300999999163
1015,27,0.5,0.125,35.0,1,1.0,1.0874009999997725
1016,27,0.5,0.25,35.0,1,1.0,1.2543009999999413
1017,27,0.5,0.25,-35.0,-1,1.0,0.4241009999996095
1018,27,0.5,0.125,35.0,1,1.0,0.6475009999994654
1019,27,0.5,0.0625,35.0,-1,0.0,3.294300999999905
1020,27,0.5,0.25,35.0,1,1.0,0.3778009999996357
1021,27,0.5,0.25,35.0,1,1.0,10.411000999999487
1022,27,0.5,0.125,35.0,-1,0.0,2.451600999999755
1023,27,0.6,0.125,-35.0,-1,1.0,1.758200999998735
1024,27,0.5,1.0,35.0,1,1.0,0.858300999999301
1025,27,0.5,0.25,35.0,-1,0.0,17.031700999998975
1026,27,0.5,0.25,35.0,1,1.0,4.52520099999947
1027,27,0.5,0.0625,-35.0,-1,1.0,2.2086010000002716
1028,27,0.5,0.25,-35.0,-1,1.0,0.6658010000001013
1029,27,0.5,0.25,35.0,1,1.0,0.31570099999953527
1030,27,0.5,1.0,-35.0,-1,1.0,0.739000999999007
1031,27,0.5,0.0,-35.0,-1,1.0,0.6192009999995207
1032,27,0.5,0.125,35.0,1,1.0,0.792700999999397
1033,27,0.5,1.0,-35.0,-1,1.0,0.5861009999998714
1034,27,0.5,0.0625,-35.0,-1,1.0,5.496001000000433
1035,27,0.5,0.125,-35.0,-1,1.0,8.736100999999508
1036,27,0.5,0.125,-35.0,-1,1.0,5.246400999999423
1037,27,0.5,0.0625,-35.0,-1,1.0,1.02690100000018
1038,27,0.5,0.25,35.0,1,1.0,0.7132009999995716
1039,27,0.5,0.125,-35.0,-1,1.0,1.0468010000004142
1040,27,0.5,0.25,35.0,1,1.0,0.380300999998326
1041,27,0.5,0.0625,-35.0,-1,1.0,0.5737009999993461
1042,27,0.5,0.0,-35.0,-1,1.0,0.6204009999992195
1043,27,0.5,0.0625,35.0,1,1.0,0.6137010000002192
1044,27,0.5,0.0625,35.0,1,1.0,2.433500999998614
1045,27,0.5,0.125,-35.0,-1,1.0,1.3039009999984046
1046,27,0.5,0.125,-35.0,-1,1.0,0.7638010000000577
1047,27,0.5,0.125,-35.0,-1,1.0,0.9006009999993694
1048,27,0.5,1.0,-35.0,-1,1.0,0.7972010000003138
1049,27,0.5,0.0625,-35.0,-1,1.0,0.46730099999876984
1050,27,0.5,0.25,-35.0,-1,1.0,0.7809010000000853
1051,27,0.5,0.25,-35.0,-1,1.0,0.5243009999994683
1052,27,0.5,0.0625,-35.0,-1,1.0,1.1242009999996299
1053,27,0.5,0.0,-35.0,-1,1.0,0.8375009999999747
1,28,0.5,0.25,35.0,1,1.0,5.863899999999999
2,28,0.5,0.0625,-35.0,1,0.0,9.0673
3,28,0.5,0.0625,-35.0,-1,1.0,5.598299999999998
4,28,0.5,1.0,35.0,1,1.0,0.30589999999999407
5,28,0.5,1.0,-35.0,-1,1.0,1.6836000000000055
6,28,0.5,0.0625,35.0,-1,0.0,9.118300000000005
7,28,0.5,0.125,35.0,1,1.0,0.5876999999999981
8,28,0.5,0.0625,-35.0,-1,1.0,5.026600000000002
9,28,0.5,1.0,-35.0,-1,1.0,1.9359000000000037
10,28,0.5,0.0,-35.0,-1,1.0,1.4770000000000039
11,28,0.5,0.0,-35.0,1,0.0,1.0538000000000096
12,28,0.5,0.25,-35.0,-1,1.0,1.3064999999999998
13,28,0.5,1.0,35.0,1,1.0,0.29590000000000316
14,28,0.5,0.0625,-35.0,-1,1.0,0.5176999999999907
15,28,0.5,0.125,-35.0,1,0.0,0.39579999999999416
16,28,0.4,0.125,-35.0,-1,1.0,3.3164000000000016
17,28,0.5,1.0,-35.0,-1,1.0,3.2744
18,28,0.5,1.0,-35.0,-1,1.0,
19,28,0.5,1.0,35.0,1,1.0,0.3061999999999898
20,28,0.5,0.0625,35.0,1,1.0,1.0484000000000009
21,28,0.5,1.0,-35.0,-1,1.0,0.869499999999988
22,28,0.5,0.125,-35.0,-1,1.0,1.7864000000000004
23,28,0.5,0.0625,35.0,-1,0.0,3.0991989999999845
24,28,0.5,0.0625,-35.0,1,0.0,1.7545999999999822
25,28,0.5,0.0,-35.0,1,0.0,6.805999999999983
26,28,0.5,0.0,-35.0,1,0.0,1.7709999999999866
27,28,0.5,0.125,35.0,1,1.0,3.181600000000003
28,28,0.5,1.0,35.0,1,1.0,1.2121999999999957
29,28,0.5,0.25,-35.0,-1,1.0,0.26859999999996376
30,28,0.5,0.0625,35.0,-1,0.0,0.9085000000000036
31,28,0.5,0.0625,-35.0,-1,1.0,5.359699999999975
32,28,0.5,1.0,35.0,1,1.0,0.21999999999999886
33,28,0.5,1.0,-35.0,-1,1.0,0.5822000000000003
34,28,0.5,1.0,-35.0,-1,1.0,0.32929999999998927
35,28,0.5,1.0,35.0,1,1.0,0.5380999999999858
36,28,0.5,0.125,-35.0,-1,1.0,1.9562999999999988
37,28,0.5,0.0625,-35.0,-1,1.0,0.6983999999999924
38,28,0.5,0.0625,35.0,-1,0.0,0.7497000000000185
39,28,0.2,0.0625,35.0,-1,0.0,1.3281000000000063
40,28,0.5,1.0,35.0,1,1.0,0.4907000000000039
41,28,0.5,0.0,35.0,-1,0.0,0.6999999999999886
42,28,0.5,0.125,35.0,1,1.0,0.44769999999999754
43,28,0.5,0.125,-35.0,-1,1.0,3.1228000000000122
44,28,0.5,0.125,35.0,1,1.0,1.4617999999999824
45,28,0.5,1.0,35.0,1,1.0,0.5348999999999933
46,28,0.5,0.125,35.0,1,1.0,1.6730000000000018
47,28,0.5,0.0,-35.0,1,0.0,1.3681999999999732
48,28,0.5,0.25,-35.0,-1,1.0,0.9938000000000216
49,28,0.5,0.125,35.0,-1,0.0,6.143799999999999
50,28,0.5,0.25,-35.0,-1,1.0,1.4550999999999874
51,28,0.5,0.0625,35.0,-1,0.0,1.2029999999999745
52,28,0.5,0.125,-35.0,1,0.0,0.4427000000000021
53,28,0.5,0.25,35.0,1,1.0,0.38160000000004857
54,28,0.5,0.0625,-35.0,-1,1.0,0.3258000000000152
55,28,0.5,0.125,-35.0,-1,1.0,4.5014000000000465
56,28,0.5,0.0625,-35.0,-1,1.0,1.5129000000000588
57,28,0.5,1.0,-35.0,-1,1.0,0.7805000000000177
58,28,0.5,0.0625,-35.0,-1,1.0,1.0198000000000889
59,28,0.5,0.25,35.0,-1,0.0,1.196800000000053
60,28,0.5,0.0625,35.0,1,1.0,0.32430000000005066
61,28,0.5,0.25,-35.0,-1,1.0,0.7221999999999866
62,28,0.5,1.0,35.0,1,1.0,0.38040000000000873
63,28,0.5,0.125,35.0,-1,0.0,0.402699000000041
64,28,0.2,0.125,-35.0,-1,1.0,2.6246000000000436
65,28,0.5,1.0,35.0,1,1.0,0.29980000000000473
66,28,0.5,1.0,-35.0,-1,1.0,2.2618999999999687
67,28,0.5,0.0625,35.0,-1,0.0,4.28370000000001
68,28,0.5,0.25,35.0,1,1.0,0.7377999999999929
69,28,0.5,0.0,35.0,-1,0.0,1.6630999999999858
70,28,0.5,0.0,35.0,-1,0.0,2.1794000000000437
71,28,0.3,0.0,35.0,-1,0.0,0.23640000000006012
72,28,0.5,1.0,35.0,1,1.0,0.3673000000000002
73,28,0.5,0.0,35.0,-1,0.0,0.9073000000000206
74,28,0.5,0.25,35.0,1,1.0,0.40210000000001855
75,28,0.5,1.0,35.0,1,1.0,0.3555000000000632
76,28,0.5,0.125,35.0,1,1.0,1.3739000000000487
77,28,0.5,0.25,35.0,-1,0.0,0.3701000000000363
78,28,0.5,0.0625,-35.0,-1,1.0,1.5762000000000285
79,28,0.5,0.25,-35.0,-1,1.0,2.422900000000027
80,28,0.5,0.0625,35.0,-1,0.0,1.4984000000000606
81,28,0.5,0.0625,35.0,-1,0.0,0.6145000000000209
82,28,0.5,0.125,-35.0,-1,1.0,0.5971999999999866
83,28,0.5,0.0625,-35.0,-1,1.0,2.696200000000033
84,28,0.5,1.0,-35.0,-1,1.0,0.4370000000000118
85,28,0.5,0.25,35.0,-1,0.0,0.9276000000000408
86,28,0.5,0.0,35.0,-1,0.0,0.7033999999999878
87,28,0.5,0.25,35.0,1,1.0,0.7870000000000346
88,28,0.5,0.0,-35.0,1,0.0,1.7825000000000273
89,28,0.2,0.0,35.0,-1,0.0,1.670599999999979
90,28,0.5,1.0,-35.0,-1,1.0,0.5484000000000151
91,28,0.5,1.0,35.0,1,1.0,0.43530000000004065
92,28,0.5,0.0625,-35.0,-1,1.0,0.5944000000000074
93,28,0.5,1.0,-35.0,-1,1.0,0.6742999999999597
94,28,0.5,1.0,-35.0,-1,1.0,0.4481000000000108
95,28,0.5,0.0625,-35.0,-1,1.0,0.49850000000003547
96,28,0.5,0.125,-35.0,-1,1.0,0.4692000000000007
97,28,0.5,0.25,35.0,-1,0.0,0.3745000000000118
98,28,0.5,0.25,35.0,-1,0.0,0.6391000000000417
99,28,0.1,0.25,35.0,1,1.0,0.9549000000000092
100,28,0.5,1.0,35.0,1,1.0,0.5124000000000137
101,28,0.5,0.0625,35.0,-1,0.0,0.6009000000000242
102,28,0.5,0.0625,35.0,-1,0.0,0.4724000000000501
103,28,0.5,0.0625,-35.0,-1,1.0,3.350400000000036
104,28,0.5,0.25,35.0,1,1.0,0.3322000000000003
105,28,0.5,0.125,-35.0,-1,1.0,0.25600000000002865
106,28,0.5,1.0,-35.0,-1,1.0,0.940400000000011
107,28,0.5,0.0,-35.0,-1,1.0,0.8695999999999344
108,28,0.5,1.0,-35.0,-1,1.0,0.6997000000000071
109,28,0.5,1.0,35.0,1,1.0,0.5620000000000118
110,28,0.5,1.0,-35.0,-1,1.0,0.5099999999999909
111,28,0.5,1.0,-35.0,-1,1.0,0.5348999999998796
112,28,0.5,0.25,35.0,1,1.0,1.759499999999889
113,28,0.5,1.0,-35.0,-1,1.0,1.5769999999999982
114,28,0.5,1.0,-35.0,-1,1.0,0.761199999999917
115,28,0.5,0.0625,35.0,-1,0.0,0.37570000000005166
116,28,0.2,0.0625,35.0,-1,0.0,0.7763999999999669
117,28,0.5,1.0,35.0,1,1.0,0.30319999999994707
118,28,0.5,0.0,35.0,-1,0.0,0.7899999999998499
119,28,0.5,0.125,-35.0,1,0.0,0.24859999999989668
120,28,0.5,0.0,-35.0,-1,1.0,2.417399999999816
121,28,0.5,0.0625,-35.0,-1,1.0,2.649099999999976
122,28,0.5,0.0625,-35.0,-1,1.0,1.6455999999999449
123,28,0.5,0.25,-35.0,-1,1.0,0.54849999999999
124,28,0.5,0.125,-35.0,-1,1.0,0.3372999999999138
125,28,0.5,0.0625,35.0,-1,0.0,0.2501999999999498
126,28,0.5,0.0625,35.0,-1,0.0,1.5369999999999209
127,28,0.5,0.25,-35.0,-1,1.0,1.531500000000051
128,28,0.5,0.25,-35.0,-1,1.0,0.3492999999998574
129,28,0.5,0.0,35.0,-1,0.0,0.6965000000000146
130,28,0.5,0.125,35.0,1,1.0,0.9389999999999645
131,28,0.5,0.125,-35.0,-1,1.0,0.35770000000002256
132,28,0.5,0.25,-35.0,-1,1.0,1.0982000000000198
133,28,0.5,0.25,-35.0,-1,1.0,0.459699999999998
134,28,0.5,0.25,-35.0,-1,1.0,0.7873999999999342
135,28,0.5,0.125,35.0,1,1.0,0.8173000000000457
136,28,0.5,0.25,-35.0,-1,1.0,0.4977999999999838
137,28,0.5,0.125,-35.0,-1,1.0,0.4097999999999047
138,28,0.5,0.0625,35.0,-1,0.0,0.6579999999999018
139,28,0.5,0.25,35.0,-1,0.0,0.6951000000000249
140,28,0.5,0.25,35.0,1,1.0,0.8848999999999023
141,28,0.5,0.125,35.0,-1,0.0,0.4013999999999669
142,28,0.2,0.125,35.0,-1,0.0,0.8333000000000084
143,28,0.5,1.0,35.0,1,1.0,0.35960000000000036
144,28,0.5,0.25,-35.0,-1,1.0,0.11940000000004147
145,28,0.5,0.0625,35.0,-1,0.0,0.7199999999999136
146,28,0.5,0.125,-35.0,-1,1.0,0.44870000000003074
147,28,0.5,0.125,35.0,-1,0.0,0.5521999999999707
148,28,0.5,0.125,-35.0,-1,1.0,0.6726999999999634
149,28,0.5,0.125,-35.0,-1,1.0,0.35599999999999454
150,28,0.5,0.0625,-35.0,-1,1.0,0.6461000000000467
151,28,0.5,0.125,35.0,-1,0.0,0.7599999999998772
152,28,0.1,0.125,-35.0,-1,1.0,3.328200000000038
153,28,0.5,1.0,35.0,1,1.0,0.3243999999999687
154,28,0.5,0.125,35.0,1,1.0,2.4331999999999425
155,28,0.5,0.25,-35.0,-1,1.0,0.5060000000000855
156,28,0.5,0.25,-35.0,-1,1.0,0.5932999999998856
157,28,0.5,0.25,-35.0,-1,1.0,2.4424000000000206
158,28,0.5,0.125,-35.0,-1,1.0,0.5688000000000102
159,28,0.5,0.125,35.0,-1,0.0,0.5791000000000395
160,28,0.5,0.0625,35.0,1,1.0,0.2323999999998705
161,28,0.5,1.0,-35.0,-1,1.0,0.46729999999990923
162,28,0.5,0.25,-35.0,-1,1.0,1.732599999999934
163,28,0.5,1.0,-35.0,-1,1.0,1.6730000000000018
164,28,0.5,0.0,35.0,-1,0.0,0.4411000000000058
165,28,0.1,0.0,-35.0,-1,1.0,0.31939999999997326
166,28,0.5,1.0,35.0,1,1.0,0.33780000000001564
167,28,0.5,0.0625,35.0,-1,0.0,0.3513999999998987
168,28,0.5,0.125,-35.0,-1,1.0,1.5810999999999922
169,28,0.5,0.25,35.0,1,1.0,1.08949999999993
170,28,0.5,0.0,-35.0,-1,1.0,0.7421999999999116
171,28,0.5,0.125,-35.0,-1,1.0,0.8963999999999714
172,28,0.5,0.0,35.0,-1,0.0,0.44039999999995416
173,28,0.2,0.0,35.0,-1,0.0,1.2781999999999698
174,28,0.5,1.0,35.0,1,1.0,0.42029999999999745
175,28,0.5,0.125,35.0,-1,0.0,0.9223999999999251
176,28,0.5,0.0625,35.0,1,1.0,0.8731000000000222
177,28,0.5,1.0,35.0,1,1.0,0.2762000000000171
178,28,0.5,0.125,35.0,1,1.0,0.47950000000003
179,28,0.5,0.25,35.0,1,1.0,0.27299999999991087
180,28,0.5,1.0,-35.0,-1,1.0,0.43840000000000146
181,28,0.5,0.0625,35.0,1,1.0,1.9044000000000096
182,28,0.5,0.125,-35.0,1,0.0,2.469500000000039
183,28,0.5,0.0625,-35.0,-1,1.0,0.4470999999999776
184,28,0.5,0.0,35.0,-1,0.0,0.26279999999997017
185,28,0.6,0.0,-35.0,1,0.0,0.3224999999999909
186,28,0.5,1.0,-35.0,-1,1.0,0.278699999999958
187,28,0.5,0.25,35.0,1,1.0,0.8233999999999924
188,28,0.5,0.25,-35.0,-1,1.0,0.5575999999999794
189,28,0.5,0.25,35.0,1,1.0,0.25099999999997635
190,28,0.5,0.125,-35.0,-1,1.0,0.31780000000003383
191,28,0.5,0.125,35.0,1,1.0,2.4244999999999663
192,28,0.5,1.0,35.0,1,1.0,0.3125
193,28,0.5,1.0,35.0,1,1.0,0.30330000000003565
194,28,0.5,1.0,-35.0,-1,1.0,0.4959999999999809
195,28,0.5,0.125,35.0,1,1.0,2.078899999999976
196,28,0.5,0.25,35.0,1,1.0,0.31619999999986703
197,28,0.5,0.125,35.0,1,1.0,0.5605999999999085
198,28,0.5,0.0,-35.0,-1,1.0,0.4923999999999751
199,28,0.5,0.0625,-35.0,1,0.0,0.2034999999999627
200,28,0.5,0.25,-35.0,-1,1.0,3.600099999999884
201,28,0.5,0.25,35.0,1,1.0,0.9410000000000309
202,28,0.5,0.0625,-35.0,1,0.0,1.1567999999999756
203,28,0.5,0.125,35.0,1,1.0,0.27490000000000236
204,28,0.5,0.25,35.0,1,1.0,0.24860000000001037
205,28,0.5,0.125,35.0,1,1.0,0.7160999999999831
206,28,0.5,0.125,35.0,1,1.0,0.9251999999999043
207,28,0.5,0.0625,35.0,-1,0.0,0.5826000000000704
208,28,0.5,0.125,-35.0,-1,1.0,1.075399999999945
209,28,0.5,0.125,35.0,1,1.0,0.6920000000000073
210,28,0.5,0.25,35.0,1,1.0,0.5725999999999658
211,28,0.5,0.25,35.0,1,1.0,0.30979999999988195
212,28,0.5,0.0,35.0,-1,0.0,2.2650999999999613
213,28,0.5,0.125,-35.0,-1,1.0,0.41279999999983374
214,28,0.5,0.125,-35.0,-1,1.0,0.25359999999989213
215,28,0.5,1.0,35.0,1,1.0,0.33990000000005693
216,28,0.5,0.25,35.0,1,1.0,0.483600000000024
217,28,0.5,0.0625,-35.0,-1,1.0,0.4813000000000329
218,28,0.5,1.0,35.0,1,1.0,0.28169999999988704
219,28,0.5,0.25,35.0,1,1.0,0.9213999999999487
220,28,0.5,0.25,35.0,1,1.0,0.3786999999999807
221,28,0.5,0.0625,-35.0,-1,1.0,0.5913999999999078
222,28,0.5,0.125,35.0,1,1.0,0.3687999999999647
223,28,0.5,0.0,-35.0,-1,1.0,3.8583000000000993
224,28,0.5,1.0,-35.0,-1,1.0,0.3322000000000571
225,28,0.5,0.0625,35.0,-1,0.0,0.315199999999777
226,28,0.5,0.0625,35.0,-1,0.0,0.4291000000000622
227,28,0.4,0.0625,-35.0,-1,1.0,4.132199999999784
228,28,0.5,1.0,35.0,1,1.0,0.43929999999977554
229,28,0.5,1.0,-35.0,-1,1.0,0.4456000000000131
230,28,0.5,0.0625,35.0,-1,0.0,0.49270000000001346
231,28,0.2,0.0625,35.0,1,1.0,5.042499999999791
232,28,0.5,1.0,35.0,1,1.0,0.33979999999996835
233,28,0.5,0.25,35.0,-1,0.0,0.29919999999992797
234,28,0.5,0.0,35.0,-1,0.0,0.34629999999992833
235,28,0.5,0.0625,-35.0,-1,1.0,1.0960999999999785
236,28,0.5,0.125,35.0,1,1.0,1.3464999999998781
237,28,0.5,0.0,35.0,-1,0.0,0.7062000000000808
238,28,0.5,0.0625,-35.0,1,0.0,0.3834999999999127
239,28,0.5,0.125,-35.0,-1,1.0,1.5097000000000662
240,28,0.5,0.125,35.0,1,1.0,0.3368000000000393
241,28,0.5,0.0,35.0,-1,0.0,0.606499999999869
242,28,0.4,0.0,-35.0,1,0.0,0.7804999999998472
243,28,0.5,1.0,-35.0,-1,1.0,0.23339999999984684
244,28,0.5,0.25,35.0,1,1.0,0.25710000000003674
245,28,0.5,1.0,35.0,1,1.0,0.2799999999999727
246,28,0.5,1.0,35.0,1,1.0,0.6439999999997781
247,28,0.5,0.125,35.0,1,1.0,1.6536000000000968
248,28,0.5,0.0625,35.0,1,1.0,5.207599999999957
249,28,0.5,0.0625,-35.0,-1,1.0,3.6939000000002125
250,28,0.5,0.25,-35.0,1,0.0,0.8775999999998021
251,28,0.5,0.0,-35.0,-1,1.0,2.7106999999998607
252,28,0.5,0.25,-35.0,-1,1.0,0.287900000000036
253,28,0.5,0.125,35.0,1,1.0,1.1876999999999498
254,28,0.5,0.25,-35.0,-1,1.0,1.9115999999999076
255,28,0.5,0.125,-35.0,-1,1.0,0.6008999999999105
256,28,0.5,0.125,-35.0,-1,1.0,0.6649999999999636
257,28,0.5,0.0,35.0,-1,0.0,0.621199999999817
258,28,0.3,0.0,35.0,-1,0.0,0.3181000000001859
259,28,0.5,1.0,35.0,1,1.0,0.3079000000000178
260,28,0.5,0.125,35.0,1,1.0,0.8187000000000353
261,28,0.5,0.25,35.0,1,1.0,0.8914999999999509
262,28,0.5,0.25,-35.0,-1,1.0,0.5119000000001961
263,28,0.5,0.0625,-35.0,-1,1.0,0.5381999999999607
264,28,0.5,0.125,35.0,-1,0.0,3.962199999999939
265,28,0.3,0.125,-35.0,-1,1.0,0.22509999999988395
266,28,0.5,1.0,-35.0,1,0.0,0.26929999999993015
267,28,0.5,0.125,-35.0,-1,1.0,0.6485000000000127
268,28,0.5,1.0,-35.0,-1,1.0,0.39229999999975007
269,28,0.5,1.0,-35.0,-1,1.0,1.6820999999999913
270,28,0.5,0.0625,35.0,-1,0.0,0.4593999999999596
271,28,0.5,0.0,-35.0,-1,1.0,1.4652999999998428
272,28,0.5,0.0625,35.0,-1,0.0,0.5958999999998014
273,28,0.5,0.0,35.0,-1,0.0,0.4256000000000313
274,28,0.1,0.0,35.0,-1,0.0,0.49270000000001346
275,28,0.5,1.0,35.0,1,1.0,0.3690999999998894
276,28,0.5,0.0625,35.0,1,1.0,0.4497000000001208
277,28,0.5,0.0,-35.0,1,0.0,3.84920000000011
278,28,0.5,0.0,-35.0,-1,1.0,0.3464000000001306
279,28,0.5,1.0,-35.0,-1,1.0,1.546100000000024
280,28,0.5,0.0625,-35.0,-1,1.0,0.6166999999998097
281,28,0.5,0.0625,35.0,-1,0.0,1.3061999999999898
282,28,0.3,0.0625,35.0,1,1.0,0.49690000000009604
283,28,0.5,1.0,35.0,1,1.0,0.24309999999991305
284,28,0.5,0.0625,35.0,-1,0.0,0.2902999999998883
285,28,0.5,0.0,35.0,-1,0.0,0.9164999999998145
286,28,0.5,0.125,-35.0,-1,1.0,0.7437000000002172
287,28,0.5,0.0625,-35.0,-1,1.0,0.5369999999998072
288,28,0.5,0.0625,35.0,-1,0.0,0.6634000000001379
289,28,0.5,0.125,-35.0,-1,1.0,2.89020000000005
290,28,0.5,0.25,35.0,-1,0.0,0.6540999999999713
291,28,0.2,0.25,35.0,1,1.0,0.3137000000001535
292,28,0.5,1.0,35.0,1,1.0,0.29779999999982465
293,28,0.5,0.0625,-35.0,-1,1.0,0.46709999999984575
294,28,0.5,1.0,-35.0,-1,1.0,2.791300000000092
295,28,0.5,0.0,35.0,-1,0.0,0.7305999999998676
296,28,0.5,0.25,-35.0,-1,1.0,0.884900000000016
297,28,0.5,0.25,35.0,1,1.0,0.9975000000001728
298,28,0.5,0.0625,35.0,1,1.0,1.4014000000001943
299,28,0.5,1.0,-35.0,-1,1.0,0.3409999999998945
300,28,0.5,0.25,35.0,1,1.0,0.5216000000000349
301,28,0.5,0.0,-35.0,-1,1.0,0.4511999999999716
302,28,0.5,0.125,35.0,1,1.0,0.8117999999999483
303,28,0.5,0.0,35.0,-1,0.0,0.5178000000000793
304,28,0.5,0.0625,-35.0,-1,1.0,2.645100000000184
305,28,0.5,0.125,35.0,1,1.0,0.27129999999988286
306,28,0.5,0.0625,35.0,-1,0.0,4.0417999999999665
307,28,0.5,0.0,-35.0,1,0.0,2.0117009999999027
308,28,0.5,0.0,-35.0,-1,1.0,1.7120010000001002
309,28,0.5,1.0,35.0,1,1.0,0.26510099999995873
310,28,0.5,0.0625,35.0,1,1.0,1.2724009999999453
311,28,0.5,1.0,35.0,1,1.0,0.4086010000000897
312,28,0.5,0.0625,35.0,-1,0.0,0.7189010000001872
313,28,0.5,0.0625,35.0,-1,0.0,0.39550099999996746
314,28,0.5,1.0,35.0,1,1.0,0.10580100000015591
315,28,0.5,0.0,35.0,-1,0.0,1.7060010000000148
316,28,0.5,0.0,-35.0,-1,1.0,2.3289009999998598
317,28,0.5,1.0,-35.0,-1,1.0,0.502800999999863
318,28,0.5,0.25,-35.0,-1,1.0,0.4791010000001279
319,28,0.5,0.25,35.0,1,1.0,2.0930009999999584
320,28,0.5,0.25,-35.0,-1,1.0,0.21260099999994964
321,28,0.5,0.0625,-35.0,1,0.0,0.3932009999998627
322,28,0.5,0.125,35.0,1,1.0,1.5696009999999205
323,28,0.5,0.125,35.0,1,1.0,0.2903009999999995
324,28,0.5,0.0,-35.0,-1,1.0,1.4961009999999533
325,28,0.5,0.125,-35.0,-1,1.0,0.8467009999999391
326,28,0.5,0.25,-35.0,-1,1.0,0.36970099999984996
327,28,0.5,1.0,35.0,1,1.0,0.27050099999996746
328,28,0.5,0.0625,-35.0,-1,1.0,0.4932009999999991
329,28,0.5,0.0625,35.0,-1,0.0,1.2836009999998623
330,28,0.5,0.125,-35.0,1,0.0,0.8732009999998809
331,28,0.5,0.125,-35.0,-1,1.0,0.4276009999998678
332,28,0.5,0.25,35.0,-1,0.0,0.23030100000005405
333,28,0.5,0.0625,35.0,-1,0.0,0.5073009999998703
334,28,0.5,0.125,35.0,1,1.0,0.36360099999978956
335,28,0.5,0.125,-35.0,-1,1.0,0.48110099999985323
336,28,0.5,0.125,-35.0,-1,1.0,0.2703009999997903
337,28,0.5,0.0625,-35.0,-1,1.0,1.2980009999998856
338,28,0.5,0.0625,-35.0,-1,1.0,0.44390100000009625
339,28,0.5,0.0625,-35.0,-1,1.0,0.8447010000002138
340,28,0.5,0.125,-35.0,-1,1.0,0.7243009999999686
341,28,0.5,1.0,-35.0,-1,1.0,0.30480099999999766
342,28,0.5,0.25,35.0,1,1.0,0.5510010000002694
343,28,0.5,0.125,-35.0,-1,1.0,0.43820099999993545
344,28,0.5,1.0,-35.0,1,0.0,0.23470100000008642
345,28,0.5,0.125,35.0,1,1.0,0.501500999999962
346,28,0.5,0.0,-35.0,-1,1.0,0.6680009999997765
347,28,0.5,0.0625,35.0,1,1.0,1.0319009999998343
348,28,0.5,0.25,35.0,1,1.0,0.8881009999997787
349,28,0.5,0.0625,-35.0,-1,1.0,0.37200099999995473
350,28,0.5,0.25,-35.0,-1,1.0,0.38150099999984377
351,28,0.5,1.0,-35.0,1,0.0,2.0455010000000584
352,28,0.5,0.0625,-35.0,-1,1.0,1.7618009999998776
353,28,0.5,0.125,35.0,-1,0.0,0.7624009999999544
354,28,0.5,0.125,-35.0,-1,1.0,0.3652009999998427
355,28,0.5,1.0,35.0,1,1.0,0.34940099999994345
356,28,0.5,0.25,35.0,1,1.0,0.2956010000000333
357,28,0.5,0.0,35.0,-1,0.0,1.192500999999993
358,28,0.5,0.0,35.0,-1,0.0,1.2755010000000766
359,28,0.5,0.125,35.0,1,1.0,0.43600099999980557
360,28,0.5,0.125,35.0,1,1.0,0.9727009999999154
361,28,0.5,0.25,35.0,1,1.0,0.5898009999998521
362,28,0.5,0.125,-35.0,-1,1.0,0.5458009999999831
363,28,0.5,0.0625,35.0,-1,0.0,1.8931010000001152
364,28,0.5,0.125,-35.0,-1,1.0,0.936001000000033
365,28,0.5,0.0,35.0,1,1.0,0.26670099999978447
366,28,0.5,1.0,35.0,1,1.0,0.2294010000000526
367,28,0.5,1.0,35.0,1,1.0,0.30690099999992526
368,28,0.5,0.0625,-35.0,-1,1.0,1.8096009999999296
369,28,0.5,0.0625,35.0,1,1.0,0.4734009999999671
370,28,0.5,1.0,35.0,1,1.0,0.4731010000000424
371,28,0.5,0.125,35.0,1,1.0,0.3036010000000715
372,28,0.5,0.0625,-35.0,-1,1.0,0.2499009999999089
373,28,0.5,0.0625,35.0,-1,0.0,0.1870010000000093
374,28,0.5,0.0,35.0,-1,0.0,2.073400999999876
375,28,0.5,0.0625,-35.0,-1,1.0,0.7240010000000439
376,28,0.5,1.0,-35.0,-1,1.0,0.3503010000001723
377,28,0.5,0.0625,-35.0,-1,1.0,0.49410100000000057
378,28,0.5,0.0,-35.0,-1,1.0,0.3805009999998674
379,28,0.5,0.0,35.0,-1,0.0,0.5045009999998911
380,28,0.2,0.0,35.0,-1,0.0,0.29730099999983395
381,28,0.5,1.0,35.0,1,1.0,0.41790100000002894
382,28,0.5,0.0625,35.0,-1,0.0,4.500701000000163
383,28,0.5,0.0625,35.0,-1,0.0,0.23810099999991508
384,28,0.5,0.25,-35.0,-1,1.0,0.19770100000005186
385,28,0.5,0.125,-35.0,-1,1.0,0.3814009999998689
386,28,0.5,1.0,35.0,1,1.0,0.28470100000004095
387,28,0.5,1.0,-35.0,-1,1.0,2.6916009999999915
388,28,0.5,0.0,-35.0,-1,1.0,0.5382009999998445
389,28,0.5,1.0,-35.0,-1,1.0,0.40550100000018574
390,28,0.5,0.0,35.0,-1,0.0,0.21490099999982704
391,28,0.2,0.0,35.0,-1,0.0,2.952500999999984
392,28,0.5,1.0,35.0,1,1.0,0.30510099999992235
393,28,0.5,0.125,-35.0,-1,1.0,0.7459009999997761
394,28,0.5,0.125,35.0,1,1.0,0.3319010000000162
395,28,0.5,1.0,35.0,1,1.0,0.28610100000014427
396,28,0.5,0.0625,-35.0,-1,1.0,0.8989010000000235
397,28,0.5,1.0,-35.0,-1,1.0,0.41930100000013226
398,28,0.5,0.125,-35.0,-1,1.0,0.2556009999998423
399,28,0.5,0.0,-35.0,-1,1.0,0.4295009999998456
400,28,0.5,0.0,35.0,-1,0.0,1.8624010000000908
401,28,0.5,0.125,-35.0,-1,1.0,0.529500999999982
402,28,0.5,1.0,35.0,1,1.0,0.30250100000012026
403,28,0.5,0.125,35.0,-1,0.0,0.4997009999999591
404,28,0.5,0.0625,-35.0,-1,1.0,0.5794009999999616
405,28,0.5,0.125,-35.0,-1,1.0,1.3331009999999424
406,28,0.5,0.125,35.0,-1,0.0,0.566101000000117
407,28,0.5,0.0625,35.0,-1,0.0,0.34000099999980193
408,28,0.1,0.0625,35.0,-1,0.0,0.4798009999999522
409,28,0.5,1.0,35.0,1,1.0,0.3803009999999176
410,28,0.5,0.25,-35.0,-1,1.0,0.4565010000001166
411,28,0.5,0.25,-35.0,-1,1.0,0.590300999999954
412,28,0.5,1.0,35.0,1,1.0,0.4201009999997041
413,28,0.5,1.0,-35.0,-1,1.0,0.39400099999988925
414,28,0.5,0.0625,35.0,-1,0.0,1.7303009999998267
415,28,0.5,0.125,35.0,1,1.0,3.7142010000000028
416,28,0.5,0.25,-35.0,-1,1.0,0.4570009999999911
417,28,0.5,1.0,35.0,1,1.0,0.2743009999999231
418,28,0.5,0.0625,-35.0,-1,1.0,1.0205009999999675
419,28,0.5,1.0,-35.0,-1,1.0,1.5077009999999973
420,28,0.5,0.125,35.0,1,1.0,0.47420099999999366
421,28,0.5,0.125,35.0,-1,0.0,0.37120099999992817
422,28,0.4,0.125,-35.0,1,0.0,3.5142009999999573
423,28,0.5,1.0,-35.0,-1,1.0,0.43810099999996055
424,28,0.5,0.125,-35.0,1,0.0,3.818001000000095
425,28,0.5,0.0625,-35.0,-1,1.0,0.8216009999998732
426,28,0.5,0.0625,35.0,1,1.0,0.8079009999999016
427,28,0.5,0.25,35.0,1,1.0,0.3018010000000686
428,28,0.5,0.25,35.0,1,1.0,0.47160100000019156
429,28,0.5,0.0,35.0,-1,0.0,0.40240099999982704
430,28,0.6,0.0,-35.0,-1,1.0,0.4350009999998292
431,28,0.5,1.0,-35.0,-1,1.0,2.5759009999999307
432,28,0.5,0.25,35.0,1,1.0,0.3587009999998827
433,28,0.5,0.0,35.0,1,1.0,0.7862009999998918
434,28,0.5,0.125,35.0,1,1.0,0.28860099999997146
435,28,0.5,0.0625,-35.0,-1,1.0,0.3460009999998874
436,28,0.5,0.0625,-35.0,-1,1.0,2.819001000000071
437,28,0.5,0.25,35.0,1,1.0,0.34280100000000857
438,28,0.5,0.0625,35.0,1,1.0,0.5225009999999202
439,28,0.5,0.25,35.0,1,1.0,0.28630100000009406
440,28,0.5,1.0,-35.0,-1,1.0,0.37620099999980994
441,28,0.5,0.25,-35.0,-1,1.0,0.5100009999998747
442,28,0.5,0.25,35.0,1,1.0,0.362800999999763
443,28,0.5,0.25,35.0,1,1.0,0.40320100000008097
444,28,0.5,0.125,-35.0,-1,1.0,1.2728010000000722
445,28,0.5,0.0,-35.0,-1,1.0,0.6966010000001006
446,28,0.5,0.0625,-35.0,-1,1.0,0.5197010000001683
447,28,0.5,0.0625,35.0,-1,0.0,0.8702009999997244
448,28,0.5,0.0,-35.0,-1,1.0,1.0833010000001195
449,28,0.5,0.25,35.0,1,1.0,0.36030099999970844
450,28,0.5,1.0,-35.0,-1,1.0,0.5633010000001377
451,28,0.5,0.25,-35.0,-1,1.0,1.2273009999998976
452,28,0.5,0.25,-35.0,-1,1.0,0.5803009999999631
453,28,0.5,0.0625,35.0,1,1.0,3.8607010000000628
454,28,0.5,0.0625,-35.0,-1,1.0,0.5970010000000912
455,28,0.5,0.0625,-35.0,-1,1.0,0.6976009999998496
456,28,0.5,0.0625,-35.0,-1,1.0,0.8806009999998423
457,28,0.5,0.25,-35.0,-1,1.0,0.25100099999963277
458,28,0.5,0.0625,-35.0,-1,1.0,0.4541009999998096
459,28,0.5,0.0625,35.0,-1,0.0,0.31140099999993254
460,28,0.5,0.0625,-35.0,-1,1.0,2.224401000000398
461,28,0.5,0.25,-35.0,-1,1.0,0.4946010000003298
462,28,0.5,0.25,-35.0,-1,1.0,0.6311009999999442
463,28,0.5,0.25,35.0,1,1.0,0.894600999999966
464,28,0.5,0.125,35.0,1,1.0,0.30770099999972444
465,28,0.5,0.0625,35.0,1,1.0,0.25190100000008897
466,28,0.5,0.125,35.0,1,1.0,1.2614010000002054
467,28,0.5,1.0,-35.0,-1,1.0,3.8718010000002323
468,28,0.5,1.0,-35.0,-1,1.0,0.3781010000002425
469,28,0.5,0.25,-35.0,-1,1.0,0.20210099999985687
470,28,0.5,0.25,35.0,-1,0.0,0.3517010000000482
471,28,0.5,0.0625,-35.0,-1,1.0,0.2091009999999187
472,28,0.5,0.25,-35.0,-1,1.0,0.5320010000000366
473,28,0.5,0.0625,-35.0,-1,1.0,0.6023010000003524
474,28,0.5,0.0,35.0,-1,0.0,2.8020009999995636
475,28,0.5,0.25,35.0,-1,0.0,0.5828010000000177
476,28,0.5,0.25,-35.0,-1,1.0,0.4857010000000628
477,28,0.5,0.0625,-35.0,-1,1.0,0.8663009999995666
478,28,0.5,0.0,35.0,-1,0.0,2.4958010000000286
479,28,0.5,0.125,-35.0,-1,1.0,0.6265010000001894
480,28,0.5,0.25,35.0,1,1.0,0.985801000000265
481,28,0.5,1.0,35.0,1,1.0,0.44000099999993836
482,28,0.5,0.25,-35.0,-1,1.0,0.7360010000002148
483,28,0.5,1.0,-35.0,-1,1.0,0.49680099999977756
484,28,0.5,1.0,35.0,1,1.0,0.42290099999945596
485,28,0.5,0.125,35.0,1,1.0,0.36340100000006714
486,28,0.5,0.0625,35.0,-1,0.0,0.5699009999998452
487,28,0.5,0.25,35.0,1,1.0,0.5472010000003138
488,28,0.5,0.125,-35.0,-1,1.0,0.3930009999999129
489,28,0.5,0.125,-35.0,-1,1.0,0.39020099999970626
490,28,0.5,0.0625,35.0,1,1.0,1.0607009999998809
491,28,0.5,0.25,35.0,1,1.0,1.033900999999787
492,28,0.5,1.0,-35.0,-1,1.0,0.42000099999995655
493,28,0.5,0.0,-35.0,-1,1.0,2.8939009999999143
494,28,0.5,1.0,35.0,1,1.0,0.3538010000002032
495,28,0.5,1.0,35.0,1,1.0,0.4442010000002483
496,28,0.5,0.0,-35.0,-1,1.0,0.6637009999999464
497,28,0.5,0.25,-35.0,-1,1.0,0.6444010000000162
498,28,0.5,0.25,35.0,1,1.0,1.2739009999995687
499,28,0.5,0.0,-35.0,-1,1.0,1.127501000000393
500,28,0.5,0.0625,35.0,-1,0.0,0.5408009999996466
501,28,0.5,0.0625,35.0,-1,0.0,1.494600999999875
502,28,0.5,0.25,-35.0,-1,1.0,0.5478009999997084
503,28,0.5,0.0,-35.0,-1,1.0,0.538101000000097
504,28,0.5,0.25,35.0,1,1.0,0.5410010000000511
505,28,0.5,1.0,35.0,1,1.0,0.291501000000153
506,28,0.5,0.0625,-35.0,-1,1.0,2.0080010000001494
507,28,0.5,0.125,35.0,1,1.0,0.3084009999997761
508,28,0.5,0.0625,-35.0,-1,1.0,0.7614009999997506
509,28,0.5,0.0625,35.0,1,1.0,1.2552009999999427
510,28,0.5,0.25,35.0,-1,0.0,0.6916009999995367
511,28,0.5,0.0625,-35.0,-1,1.0,2.1087009999996553
512,28,0.5,0.25,-35.0,-1,1.0,0.3085009999999784
513,28,0.5,0.25,35.0,1,1.0,0.31230099999947925
514,28,0.5,0.0625,35.0,-1,0.0,0.9287010000002738
515,28,0.5,0.25,-35.0,-1,1.0,0.3890010000000075
516,28,0.5,0.0,-35.0,-1,1.0,0.8990010000002258
517,28,0.5,0.125,35.0,1,1.0,0.36580099999991944
518,28,0.5,0.0625,-35.0,-1,1.0,0.6356009999999515
519,28,0.5,0.125,35.0,1,1.0,0.3861010000000533
520,28,0.5,0.0625,-35.0,-1,1.0,1.2590009999998983
521,28,0.5,0.125,-35.0,-1,1.0,0.4496009999998023
522,28,0.5,1.0,35.0,1,1.0,0.2592010000003029
523,28,0.5,0.0625,35.0,1,1.0,4.5963010000000395
524,28,0.5,0.25,35.0,1,1.0,0.6326010000002498
525,28,0.5,1.0,35.0,1,1.0,0.39640100000042366
526,28,0.5,1.0,35.0,1,1.0,0.6898009999999886
527,28,0.5,0.125,35.0,1,1.0,0.42970100000002276
528,28,0.5,1.0,-35.0,-1,1.0,1.9971009999999296
529,28,0.5,0.25,35.0,1,1.0,0.35640100000046004
530,28,0.5,0.125,35.0,1,1.0,0.3404009999999289
531,28,0.5,0.0625,-35.0,-1,1.0,0.7832009999997354
532,28,0.5,0.0,35.0,-1,0.0,0.5504009999999653
533,28,0.5,0.125,35.0,1,1.0,0.31340099999988524
534,28,0.5,1.0,-35.0,-1,1.0,0.7208009999999376
535,28,0.5,0.0,-35.0,-1,1.0,4.367201000000023
536,28,0.5,0.0625,35.0,1,1.0,0.6936009999999442
537,28,0.5,0.25,35.0,1,1.0,0.33790099999987433
538,28,0.5,0.0625,35.0,1,1.0,13.503700999999637
539,28,0.5,0.0625,35.0,-1,0.0,1.0215009999997164
540,28,0.5,0.25,-35.0,-1,1.0,0.510801000000356
541,28,0.5,0.125,-35.0,1,0.0,3.1414009999998598
542,28,0.5,0.0625,-35.0,-1,1.0,1.1150009999996655
543,28,0.5,0.0625,-35.0,-1,1.0,0.5049009999997907
544,28,0.5,1.0,35.0,1,1.0,0.5145010000001093
545,28,0.5,0.0625,-35.0,-1,1.0,1.4317009999999755
546,28,0.5,0.25,-35.0,-1,1.0,0.40140100000007806
547,28,0.5,1.0,-35.0,-1,1.0,0.39810099999976956
548,28,0.5,0.25,-35.0,-1,1.0,0.21190100000012535
549,28,0.5,0.25,35.0,-1,0.0,0.5784009999997579
550,28,0.5,0.125,-35.0,-1,1.0,6.14540100000022
551,28,0.5,0.0,35.0,-1,0.0,0.49850100000003295
552,28,0.5,0.0625,-35.0,-1,1.0,1.8557009999999536
553,28,0.5,0.125,-35.0,-1,1.0,0.318800999999894
554,28,0.5,0.0625,-35.0,-1,1.0,3.075901000000613
555,28,0.5,0.125,-35.0,-1,1.0,0.45910099999946397
556,28,0.5,0.0,-35.0,-1,1.0,1.8995009999998729
557,28,0.5,0.0,35.0,-1,0.0,2.9627010000003793
558,28,0.0,0.0,35.0,-1,0.0,0.8863009999995484
559,28,0.5,1.0,35.0,1,1.0,0.3527009999997972
560,28,0.5,0.25,-35.0,-1,1.0,2.559701000000132
561,28,0.5,0.25,35.0,1,1.0,0.6297009999998409
562,28,0.5,0.25,35.0,1,1.0,0.34370099999978265
563,28,0.5,0.0,-35.0,-1,1.0,0.5398009999998976
564,28,0.5,0.0625,-35.0,-1,1.0,3.2802010000000337
565,28,0.5,0.0625,35.0,-1,0.0,0.7266010000003007
566,28,0.3,0.0625,35.0,-1,0.0,0.5104009999995469
567,28,0.5,1.0,-35.0,1,0.0,0.9099009999999907
568,28,0.5,0.0625,-35.0,-1,1.0,3.293800999999803
569,28,0.5,0.125,-35.0,-1,1.0,3.363701000000219
570,28,0.5,1.0,-35.0,-1,1.0,0.9474009999998998
571,28,0.5,0.0625,35.0,1,1.0,2.370601000000079
572,28,0.5,0.25,-35.0,-1,1.0,1.377501000000393
573,28,0.5,0.25,-35.0,-1,1.0,0.797200999999859
574,28,0.5,1.0,35.0,1,1.0,0.2842009999999391
575,28,0.5,0.125,-35.0,-1,1.0,0.5878009999996721
576,28,0.5,0.0,-35.0,-1,1.0,2.687500999999884
577,28,0.5,0.0625,35.0,1,1.0,1.0380009999998947
578,28,0.5,1.0,35.0,1,1.0,0.501100999999835
579,28,0.5,1.0,-35.0,-1,1.0,1.9085009999998874
580,28,0.5,1.0,-35.0,-1,1.0,0.5711009999999987
581,28,0.5,1.0,35.0,1,1.0,0.618300999999974
582,28,0.5,0.25,35.0,1,1.0,0.3280009999998583
583,28,0.5,0.25,-35.0,-1,1.0,2.0984009999997397
584,28,0.5,0.125,-35.0,-1,1.0,0.4484009999996488
585,28,0.5,0.0,-35.0,-1,1.0,1.3853010000002541
586,28,0.5,1.0,35.0,1,1.0,0.3284009999997579
587,28,0.5,0.0625,-35.0,-1,1.0,1.1255009999999857
588,28,0.5,1.0,35.0,1,1.0,0.3785010000001421
589,28,0.5,0.0,-35.0,-1,1.0,5.838800999999876
590,28,0.5,0.0,35.0,-1,0.0,0.7054009999997106
591,28,0.5,0.125,-35.0,-1,1.0,0.7025010000002112
592,28,0.5,1.0,35.0,1,1.0,0.39210099999991144
593,28,0.5,0.25,35.0,1,1.0,1.7791009999996277
594,28,0.5,1.0,-35.0,-1,1.0,0.8628010000002178
595,28,0.5,0.125,35.0,-1,0.0,0.8562010000000555
596,28,0.4,0.125,35.0,1,1.0,0.7630010000002585
597,28,0.5,1.0,35.0,1,1.0,0.5925009999996291
598,28,0.5,0.125,35.0,-1,0.0,0.5463010000003123
599,28,0.5,0.0,-35.0,-1,1.0,1.2427009999996699
600,28,0.5,0.0,-35.0,-1,1.0,4.186501000000135
601,28,0.5,0.125,-35.0,-1,1.0,1.829801000000316
602,28,0.5,0.0625,35.0,-1,0.0,0.8968009999998685
603,28,0.3,0.0625,35.0,-1,0.0,0.40000099999997474
604,28,0.5,1.0,-35.0,-1,1.0,1.087301000000025
605,28,0.5,1.0,35.0,1,1.0,0.34350099999983286
606,28,0.5,0.25,35.0,1,1.0,0.9873010000001159
607,28,0.5,0.125,35.0,1,1.0,0.3370009999998729
608,28,0.5,0.125,35.0,1,1.0,0.534001000000444
609,28,0.5,0.0625,-35.0,-1,1.0,4.300301000000218
610,28,0.5,0.25,35.0,1,1.0,0.3576009999997041
611,28,0.5,1.0,35.0,1,1.0,0.3971010000000206
612,28,0.5,0.25,-35.0,-1,1.0,7.164600999999948
613,28,0.5,0.25,35.0,1,1.0,0.48070099999995364
614,28,0.5,0.0625,-35.0,-1,1.0,0.39800100000002203
615,28,0.5,0.125,35.0,1,1.0,1.0276009999997768
616,28,0.5,0.125,-35.0,-1,1.0,0.4549010000000635
617,28,0.5,0.25,-35.0,-1,1.0,0.7216009999997368
618,28,0.5,0.125,35.0,1,1.0,0.41850099999965096
619,28,0.5,0.25,35.0,1,1.0,0.3012010000002192
620,28,0.5,0.125,35.0,1,1.0,0.7583010000003014
621,28,0.5,1.0,35.0,1,1.0,0.30150099999991653
622,28,0.5,0.25,-35.0,-1,1.0,0.5986010000001443
623,28,0.5,0.0625,-35.0,-1,1.0,4.681501000000026
624,28,0.5,0.25,-35.0,-1,1.0,0.6187010000003283
625,28,0.5,0.125,-35.0,-1,1.0,
626,28,0.5,0.0,-35.0,-1,1.0,1.8155010000000402
627,28,0.5,0.25,35.0,1,1.0,0.23550100000011298
628,28,0.5,0.25,-35.0,-1,1.0,5.305201000000125
629,28,0.5,1.0,-35.0,-1,1.0,1.7422010000000228
630,28,0.5,0.0625,35.0,-1,0.0,2.0655009999995855
631,28,0.5,0.0625,-35.0,-1,1.0,1.2626009999999042
632,28,0.5,1.0,-35.0,-1,1.0,3.4223010000000613
633,28,0.5,0.0625,-35.0,-1,1.0,1.00970099999995
634,28,0.5,0.125,35.0,1,1.0,0.6525010000000293
635,28,0.5,0.0625,-35.0,1,0.0,8.139601000000312
636,28,0.3,0.0625,35.0,-1,0.0,3.859700999999859
637,28,0.5,1.0,35.0,1,1.0,0.3137010000000373
638,28,0.5,0.0625,-35.0,-1,1.0,6.273101000000224
639,28,0.5,1.0,-35.0,-1,1.0,0.9405010000000402
640,28,0.5,0.0625,-35.0,-1,1.0,3.030000999999629
641,28,0.5,1.0,-35.0,-1,1.0,0.8172009999998409
642,28,0.5,0.125,-35.0,-1,1.0,0.2577009999999973
643,28,0.5,0.0625,35.0,-1,0.0,0.7436010000001261
644,28,0.3,0.0625,35.0,1,1.0,1.0507010000001173
645,28,0.5,1.0,35.0,1,1.0,0.30720100000007733
646,28,0.5,0.125,35.0,1,1.0,0.6676010000001042
647,28,0.5,0.25,-35.0,-1,1.0,1.6239009999999325
648,28,0.5,0.125,-35.0,-1,1.0,3.3546010000000024
649,28,0.5,1.0,35.0,1,1.0,0.3942010000000664
650,28,0.5,0.125,-35.0,-1,1.0,3.2380010000001676
651,28,0.5,0.125,-35.0,-1,1.0,4.0578010000003815
652,28,0.5,0.125,35.0,-1,0.0,0.7917010000001028
653,28,0.4,0.125,35.0,1,1.0,0.6111009999999624
654,28,0.5,1.0,35.0,1,1.0,0.4351010000000315
655,28,0.5,1.0,-35.0,-1,1.0,2.151401000000078
656,28,0.5,0.0,-35.0,-1,1.0,0.681800999999723
657,28,0.5,0.0625,-35.0,-1,1.0,0.5649009999997361
658,28,0.5,0.0625,-35.0,-1,1.0,0.48540100000036546
659,28,0.5,1.0,35.0,1,1.0,0.2884009999997943
660,28,0.5,0.125,35.0,1,1.0,0.4021010000001297
661,28,0.5,0.0625,35.0,1,1.0,2.5783009999995556
662,28,0.5,1.0,35.0,1,1.0,0.3525009999998474
663,28,0.5,0.125,35.0,-1,0.0,5.528500999999778
664,28,0.5,0.125,-35.0,-1,1.0,0.8562009999996008
665,28,0.5,0.0,-35.0,-1,1.0,0.8190010000002985
666,28,0.5,0.0625,-35.0,-1,1.0,1.4895009999995636
667,28,0.5,0.0625,-35.0,-1,1.0,0.9693010000000868
668,28,0.5,1.0,-35.0,-1,1.0,5.076301000000058
669,28,0.5,0.0625,35.0,-1,0.0,0.3761010000002898
670,28,0.5,0.25,-35.0,-1,1.0,0.85640100000046
671,28,0.5,0.25,-35.0,-1,1.0,0.7896010000004026
672,28,0.5,0.0,-35.0,-1,1.0,1.9166009999999005
673,28,0.5,0.0625,-35.0,-1,1.0,0.3004009999999653
674,28,0.5,0.125,-35.0,-1,1.0,0.8630010000001676
675,28,0.5,1.0,-35.0,-1,1.0,0.5302010000000337
676,28,0.5,0.25,35.0,-1,0.0,3.1402009999997063
677,28,0.5,0.25,-35.0,-1,1.0,2.4372010000001865
678,28,0.5,0.0,35.0,-1,0.0,0.8236009999995986
679,28,0.0,0.0,35.0,-1,0.0,1.3442009999998845
680,28,0.5,1.0,35.0,1,1.0,3.4671010000001843
681,28,0.5,0.25,35.0,1,1.0,0.7409010000001217
682,28,0.5,0.125,35.0,1,1.0,0.4272009999999682
683,28,0.5,1.0,35.0,1,1.0,0.3081010000000788
684,28,0.5,0.0625,35.0,-1,0.0,7.380801000000247
685,28,0.5,0.25,-35.0,-1,1.0,1.1945009999999456
686,28,0.5,0.0,35.0,-1,0.0,1.9611010000003262
687,28,0.4,0.0,35.0,-1,0.0,1.6484009999999216
688,28,0.5,1.0,-35.0,-1,1.0,0.6850009999998292
689,28,0.5,0.125,-35.0,-1,1.0,1.1848009999998794
690,28,0.5,1.0,-35.0,-1,1.0,2.771400999999969
691,28,0.5,0.125,35.0,1,1.0,0.671900999999707
692,28,0.5,0.25,-35.0,-1,1.0,6.021600999999919
693,28,0.5,1.0,-35.0,-1,1.0,0.422001000000364
694,28,0.5,1.0,-35.0,-1,1.0,0.46190100000012535
695,28,0.5,0.0,35.0,-1,0.0,0.3189009999996415
696,28,0.5,0.0,-35.0,-1,1.0,4.105400999999802
697,28,0.5,1.0,-35.0,1,0.0,1.5727010000000519
698,28,0.5,0.0625,35.0,-1,0.0,1.2522009999997863
699,28,0.5,0.125,-35.0,-1,1.0,0.38280100000019956
700,28,0.5,0.125,35.0,1,1.0,0.44240099999979066
701,28,0.5,0.0,35.0,-1,0.0,0.3627010000000155
702,28,0.5,0.0625,-35.0,-1,1.0,3.4226009999997586
703,28,0.5,1.0,-35.0,-1,1.0,0.7429010000000744
704,28,0.5,0.0625,-35.0,-1,1.0,0.5726009999998496
705,28,0.5,0.125,35.0,-1,0.0,0.6567009999998845
706,28,0.2,0.125,35.0,-1,0.0,0.6561010000000351
707,28,0.5,1.0,35.0,1,1.0,0.3033009999994647
708,28,0.5,0.125,35.0,1,1.0,0.3596010000001115
709,28,0.5,0.0625,35.0,-1,0.0,3.7403009999998176
710,28,0.3,0.0625,35.0,1,1.0,0.5666009999999915
711,28,0.5,1.0,35.0,1,1.0,0.3341009999999187
712,28,0.5,0.25,35.0,1,1.0,0.980000999999902
713,28,0.5,0.125,-35.0,1,0.0,1.1305010000000948
714,28,0.5,0.125,-35.0,-1,1.0,5.27710100000013
715,28,0.5,0.125,-35.0,-1,1.0,0.344101000000137
716,28,0.5,0.125,-35.0,-1,1.0,1.2940009999997528
717,28,0.5,0.25,-35.0,-1,1.0,2.400900999999976
718,28,0.5,0.125,-35.0,-1,1.0,1.1210010000004331
719,28,0.5,0.0,-35.0,-1,1.0,1.0078009999997448
720,28,0.5,0.125,-35.0,-1,1.0,0.8474009999999907
721,28,0.5,0.25,35.0,1,1.0,0.34450099999958184
722,28,0.5,0.0,-35.0,-1,1.0,0.6179009999996197
723,28,0.5,0.0625,-35.0,-1,1.0,1.904700999999477
724,28,0.5,1.0,-35.0,-1,1.0,2.4414010000000417
725,28,0.5,1.0,35.0,1,1.0,0.46840100000008533
726,28,0.5,1.0,-35.0,-1,1.0,2.9213009999998576
727,28,0.5,0.0625,35.0,-1,0.0,0.47520099999974263
728,28,0.2,0.0625,-35.0,-1,1.0,2.1119009999997616
729,28,0.5,1.0,35.0,1,1.0,0.36180100000001403
730,28,0.5,0.0,-35.0,-1,1.0,0.5785009999999602
731,28,0.5,0.0625,35.0,-1,0.0,1.0089010000001508
732,28,0.5,0.0625,35.0,-1,0.0,0.8688009999996211
733,28,0.5,0.125,-35.0,-1,1.0,1.5057010000000446
734,28,0.5,0.125,35.0,1,1.0,1.2656009999996058
735,28,0.5,1.0,35.0,1,1.0,0.32930099999975937
736,28,0.5,1.0,-35.0,-1,1.0,1.6224010000000817
737,28,0.5,0.0625,-35.0,1,0.0,0.5796009999994567
738,28,0.5,0.125,35.0,1,1.0,0.29260100000010425
739,28,0.5,0.0625,-35.0,-1,1.0,0.44960100000025705
740,28,0.5,1.0,-35.0,-1,1.0,0.5593009999997776
741,28,0.5,0.125,-35.0,-1,1.0,0.7798010000001341
742,28,0.5,0.25,35.0,-1,0.0,0.42620099999976446
743,28,0.4,0.25,-35.0,-1,1.0,0.9799010000001545
744,28,0.5,1.0,-35.0,-1,1.0,0.5429010000002563
745,28,0.5,0.0625,35.0,-1,0.0,0.4802010000003065
746,28,0.2,0.0625,35.0,-1,0.0,4.49290099999962
747,28,0.5,1.0,35.0,1,1.0,0.47720099999969534
748,28,0.5,0.0625,35.0,1,1.0,0.47340100000019447
749,28,0.5,0.0,-35.0,-1,1.0,0.6106999999997242
750,28,0.5,1.0,-35.0,-1,1.0,2.826900999999907
751,28,0.5,0.0,-35.0,-1,1.0,0.9608010000001741
752,28,0.5,0.0625,-35.0,1,0.0,0.3337010000000191
753,28,0.5,0.25,-35.0,-1,1.0,0.7142010000002301
754,28,0.5,0.0625,35.0,-1,0.0,0.7705009999999675
755,28,0.5,0.125,35.0,1,1.0,0.44760100000030434
756,28,0.5,0.0,35.0,-1,0.0,2.66070099999979
757,28,0.5,0.125,-35.0,-1,1.0,0.44830099999990125
758,28,0.5,1.0,-35.0,-1,1.0,1.0574010000000271
759,28,0.5,1.0,-35.0,-1,1.0,0.40790100000003804
760,28,0.5,0.25,35.0,1,1.0,0.38140100000009625
761,28,0.5,0.125,-35.0,-1,1.0,0.6849010000000817
762,28,0.5,0.25,-35.0,-1,1.0,0.5811009999997623
763,28,0.5,1.0,-35.0,-1,1.0,1.7349009999998088
764,28,0.5,0.0,35.0,-1,0.0,0.5347009999995862
765,28,0.5,0.125,-35.0,-1,1.0,0.3250009999997019
766,28,0.5,1.0,-35.0,-1,1.0,0.32510099999990416
767,28,0.5,0.0625,-35.0,-1,1.0,0.6016010000003007
768,28,0.5,1.0,-35.0,-1,1.0,0.3023009999997157
769,28,0.5,0.125,-35.0,-1,1.0,0.39560100000016973
770,28,0.5,1.0,-35.0,-1,1.0,0.1954009999999471
771,28,0.5,0.25,35.0,1,1.0,0.49190100000032544
772,28,0.5,1.0,35.0,1,1.0,0.27880099999993035
773,28,0.5,1.0,-35.0,-1,1.0,1.5421010000000024
774,28,0.5,0.125,35.0,-1,0.0,0.6157009999997172
775,28,0.5,0.25,35.0,1,1.0,0.4023010000000795
776,28,0.5,0.25,35.0,1,1.0,0.36250099999961094
777,28,0.5,0.0625,35.0,-1,0.0,1.052400999999918
778,28,0.5,0.0,-35.0,-1,1.0,1.7426009999999224
779,28,0.5,0.25,35.0,1,1.0,0.3224009999998998
780,28,0.5,1.0,35.0,1,1.0,0.36920099999997547
781,28,0.5,0.125,35.0,-1,0.0,0.5430009999995491
782,28,0.5,0.25,35.0,-1,0.0,0.5028010000000904
783,28,0.5,0.0625,-35.0,1,0.0,0.24970100000018647
784,28,0.5,0.0625,-35.0,-1,1.0,0.4462009999997463
785,28,0.5,0.0,35.0,-1,0.0,0.5501009999998132
786,28,0.5,0.125,35.0,-1,0.0,2.1632009999998445
787,28,0.5,0.125,35.0,1,1.0,0.5570010000001275
788,28,0.5,0.0,-35.0,-1,1.0,0.4234010000000126
789,28,0.5,0.125,35.0,-1,0.0,1.0504009999999653
790,28,0.5,0.25,35.0,1,1.0,0.4200010000004113
791,28,0.5,0.125,35.0,1,1.0,0.6303009999996902
792,28,0.5,1.0,35.0,1,1.0,0.3235010000003058
793,28,0.5,0.25,35.0,1,1.0,0.39410099999986414
794,28,0.5,0.0,35.0,-1,0.0,0.6372010000000046
795,28,0.5,0.0,35.0,-1,0.0,13.440801000000192
796,28,0.5,1.0,35.0,1,1.0,0.2710010000000693
797,28,0.5,1.0,-35.0,-1,1.0,0.8146010000000388
798,28,0.5,0.125,35.0,1,1.0,0.7943009999999049
799,28,0.5,0.25,35.0,1,1.0,0.6317009999997936
800,28,0.5,0.0625,35.0,-1,0.0,2.5844010000005255
801,28,0.5,0.25,35.0,1,1.0,0.3514010000003509
802,28,0.5,0.0625,-35.0,-1,1.0,1.0612009999999827
803,28,0.5,0.125,35.0,1,1.0,0.3484009999997397
804,28,0.5,0.0625,35.0,-1,0.0,0.7514009999999871
805,28,0.5,0.0625,-35.0,-1,1.0,4.198601000000053
806,28,0.5,1.0,35.0,1,1.0,0.32170099999984814
807,28,0.5,0.125,-35.0,-1,1.0,0.3756009999997332
808,28,0.5,0.0625,35.0,1,1.0,0.34850100000039674
809,28,0.5,0.125,-35.0,-1,1.0,1.9957009999998263
810,28,0.5,0.125,35.0,1,1.0,0.2986009999995076
811,28,0.5,0.0625,-35.0,-1,1.0,6.726101000000199
812,28,0.5,0.125,-35.0,-1,1.0,0.6724010000002636
813,28,0.5,0.25,-35.0,-1,1.0,0.8794010000001435
814,28,0.5,1.0,-35.0,-1,1.0,0.5924009999998816
815,28,0.5,1.0,35.0,1,1.0,0.35240099999964514
816,28,0.5,0.125,35.0,1,1.0,0.4298009999997703
817,28,0.5,0.125,35.0,1,1.0,0.36600099999986924
818,28,0.5,0.125,-35.0,1,0.0,1.3632010000001173
819,28,0.5,0.125,-35.0,-1,1.0,0.7193010000005415
820,28,0.5,1.0,-35.0,-1,1.0,0.4798009999999522
821,28,0.5,0.0625,35.0,1,1.0,1.0664010000000417
822,28,0.5,0.25,-35.0,-1,1.0,0.6434009999998125
823,28,0.5,0.25,-35.0,-1,1.0,0.5498010000001159
824,28,0.5,0.0625,35.0,-1,0.0,0.7802009999995789
825,28,0.5,0.125,35.0,1,1.0,0.49390100000027815
826,28,0.5,0.125,35.0,1,1.0,0.6102009999999609
827,28,0.5,0.25,-35.0,-1,1.0,0.7338010000003123
828,28,0.5,0.0625,35.0,1,1.0,1.1736009999999624
829,28,0.5,0.125,-35.0,-1,1.0,0.7674010000000635
830,28,0.5,0.25,-35.0,-1,1.0,0.7805010000001857
831,28,0.5,1.0,-35.0,-1,1.0,0.6506009999998241
832,28,0.5,0.25,35.0,1,1.0,0.4273009999997157
833,28,0.5,1.0,-35.0,-1,1.0,0.6342009999998481
834,28,0.5,1.0,-35.0,-1,1.0,1.487301000000116
835,28,0.5,0.125,35.0,1,1.0,2.394000999999662
836,28,0.5,0.0,-35.0,-1,1.0,0.7008009999999558
837,28,0.5,0.0,35.0,-1,0.0,5.1411010000001625
838,28,0.5,0.25,-35.0,-1,1.0,0.6277009999998882
839,28,0.5,0.0625,35.0,-1,0.0,0.3880010000002585
840,28,0.5,0.0,-35.0,-1,1.0,0.5545009999996182
841,28,0.5,1.0,35.0,1,1.0,0.26510099999995873
842,28,0.5,0.25,-35.0,-1,1.0,0.1913010000007489
843,28,0.5,1.0,35.0,1,1.0,0.3285010000008697
844,28,0.5,0.25,-35.0,-1,1.0,0.8848010000001523
845,28,0.5,0.25,35.0,1,1.0,0.3686009999992166
846,28,0.5,0.125,35.0,1,1.0,0.42500100000052043
847,28,0.5,0.25,-35.0,-1,1.0,5.631900999998834
848,28,0.5,1.0,-35.0,-1,1.0,0.615100999999413
849,28,0.5,1.0,35.0,1,1.0,0.2758009999997739
850,28,0.5,0.0625,35.0,-1,0.0,1.3419009999997797
851,28,0.5,0.0625,35.0,-1,0.0,0.5824010000005728
852,28,0.5,1.0,-35.0,-1,1.0,1.442101000000548
853,28,0.5,0.0625,-35.0,-1,1.0,2.505901000000449
854,28,0.5,0.25,35.0,1,1.0,0.3623010000001159
855,28,0.5,0.125,-35.0,1,0.0,0.32970100000056846
856,28,0.4,0.125,-35.0,-1,1.0,0.3891010000006645
857,28,0.5,1.0,35.0,1,1.0,0.45620100000087405
858,28,0.5,0.25,-35.0,-1,1.0,0.6560010000002876
859,28,0.5,1.0,35.0,1,1.0,0.24960100000043894
860,28,0.5,0.0,-35.0,-1,1.0,0.16610099999979866
861,28,0.5,0.0625,35.0,-1,0.0,0.6000009999997928
862,28,0.4,0.0625,35.0,-1,0.0,1.0329009999995833
863,28,0.5,1.0,-35.0,-1,1.0,1.1067009999997026
864,28,0.5,0.0625,-35.0,-1,1.0,0.6198009999998249
865,28,0.5,0.125,-35.0,-1,1.0,0.42020100000081584
866,28,0.5,0.0625,35.0,-1,0.0,1.6766009999992093
867,28,0.2,0.0625,-35.0,-1,1.0,1.653600999999071
868,28,0.5,1.0,35.0,1,1.0,0.44340100000044913
869,28,0.5,0.0625,-35.0,-1,1.0,0.623700999999528
870,28,0.5,0.125,35.0,1,1.0,0.32380100000045786
871,28,0.5,0.0625,-35.0,-1,1.0,0.5142010000008668
872,28,0.5,0.25,35.0,1,1.0,0.17050100000051316
873,28,0.5,0.25,-35.0,-1,1.0,0.3608009999998103
874,28,0.5,0.0,35.0,-1,0.0,2.4506010000004608
875,28,0.5,0.25,-35.0,-1,1.0,0.4873009999992064
876,28,0.5,0.25,-35.0,-1,1.0,0.45440099999905215
877,28,0.5,0.25,35.0,1,1.0,0.5974009999990813
878,28,0.5,0.125,-35.0,1,0.0,0.8213009999999485
879,28,0.5,0.0625,-35.0,-1,1.0,0.5911009999999806
880,28,0.5,0.125,35.0,-1,0.0,0.8249009999999544
881,28,0.3,0.125,35.0,1,1.0,2.3112010000004375
882,28,0.5,1.0,35.0,1,1.0,0.31840100000044913
883,28,0.5,0.25,35.0,1,1.0,0.4315009999991162
884,28,0.5,0.0625,35.0,1,1.0,0.29180100000030507
885,28,0.5,0.25,35.0,1,1.0,0.6082010000000082
886,28,0.5,0.0,35.0,-1,0.0,0.88890100000026
887,28,0.5,0.125,-35.0,-1,1.0,0.19520099999954255
888,28,0.5,0.0625,-35.0,-1,1.0,1.1988010000004579
889,28,0.5,1.0,35.0,1,1.0,0.3652009999996153
890,28,0.5,0.25,-35.0,-1,1.0,2.32220099999995
891,28,0.5,0.25,35.0,-1,0.0,2.655601000000388
892,28,0.5,0.25,35.0,1,1.0,0.29590100000041275
893,28,0.5,1.0,35.0,1,1.0,0.4090009999999893
894,28,0.5,1.0,35.0,1,1.0,0.39590099999986705
895,28,0.5,0.125,35.0,1,1.0,0.8757009999999354
896,28,0.5,0.0625,-35.0,-1,1.0,1.0529010000000198
897,28,0.5,1.0,35.0,1,1.0,0.3593010000004142
898,28,0.5,1.0,-35.0,-1,1.0,0.9264009999997143
899,28,0.5,0.0,35.0,-1,0.0,1.042500999999902
900,28,0.5,0.25,-35.0,-1,1.0,0.7494010000000344
901,28,0.5,0.25,35.0,1,1.0,0.2766009999995731
902,28,0.5,0.125,-35.0,-1,1.0,3.5129010000000562
903,28,0.5,0.0625,35.0,-1,0.0,0.8600010000000111
904,28,0.5,0.125,-35.0,-1,1.0,4.459700999999768
905,28,0.5,0.0625,35.0,-1,0.0,0.8136010000007445
906,28,0.5,0.25,35.0,1,1.0,0.23990099999991799
907,28,0.5,0.0625,-35.0,1,0.0,8.720000999999684
908,28,0.5,0.0,35.0,-1,0.0,0.7839009999988775
909,28,0.5,0.125,35.0,-1,0.0,1.5005010000004404
910,28,0.5,0.25,-35.0,-1,1.0,1.5775009999997565
911,28,0.5,0.125,-35.0,-1,1.0,2.6972010000008595
912,28,0.5,0.125,35.0,1,1.0,0.9708010000003924
913,28,0.5,1.0,35.0,1,1.0,0.35730100000000675
914,28,0.5,0.0625,-35.0,-1,1.0,3.4744009999994887
915,28,0.5,0.125,35.0,1,1.0,0.44080099999973754
916,28,0.5,0.125,35.0,1,1.0,0.4079009999995833
917,28,0.5,1.0,-35.0,-1,1.0,2.5242010000001756
918,28,0.5,1.0,35.0,1,1.0,0.32130099999994854
919,28,0.5,0.125,-35.0,-1,1.0,2.034400999999889
920,28,0.5,0.0625,-35.0,1,0.0,4.844900999999481
921,28,0.5,0.25,35.0,1,1.0,0.3082010000007358
922,28,0.5,0.25,-35.0,-1,1.0,3.1822009999996226
923,28,0.5,0.125,-35.0,-1,1.0,0.534801000000698
924,28,0.5,0.25,35.0,1,1.0,0.3586010000008173
925,28,0.5,0.0625,-35.0,-1,1.0,0.6221009999999296
926,28,0.5,0.0625,-35.0,-1,1.0,0.6051009999991948
927,28,0.5,0.0,35.0,1,1.0,2.1218010000002323
928,28,0.5,0.125,35.0,-1,0.0,2.0952010000000882
929,28,0.4,0.125,35.0,1,1.0,0.7425009999997201
930,28,0.5,1.0,35.0,1,1.0,0.312300999999934
931,28,0.5,0.0,-35.0,1,0.0,1.3293009999997594
932,28,0.5,0.0,-35.0,-1,1.0,2.2555010000005495
933,28,0.5,1.0,-35.0,-1,1.0,0.46620100000018283
934,28,0.5,0.25,-35.0,-1,1.0,0.7558010000002469
935,28,0.5,0.125,-35.0,-1,1.0,0.4895010000000184
936,28,0.5,0.125,35.0,1,1.0,0.4861009999995076
937,28,0.5,0.0625,35.0,-1,0.0,0.6131009999999151
938,28,0.5,0.0625,-35.0,-1,1.0,1.386000999999851
939,28,0.5,0.0,35.0,-1,0.0,0.9566009999998641
940,28,0.5,0.0625,35.0,1,1.0,0.6964010000001508
941,28,0.5,0.0625,-35.0,1,0.0,1.4936010000010356
942,28,0.5,0.0625,-35.0,-1,1.0,4.290001000000302
943,28,0.5,0.125,35.0,1,1.0,0.41690100000050734
944,28,0.5,0.125,-35.0,-1,1.0,0.6437009999999646
945,28,0.5,0.125,35.0,1,1.0,0.37710100000003877
946,28,0.5,0.125,35.0,1,1.0,0.17030100000010862
947,28,0.5,0.125,35.0,1,1.0,0.2806009999994785
948,28,0.5,0.125,35.0,1,1.0,0.34740099999999074
949,28,0.5,0.25,35.0,1,1.0,0.2872010000000955
950,28,0.5,1.0,35.0,1,1.0,0.2673010000007707
951,28,0.5,0.25,35.0,1,1.0,5.034201000000394
952,28,0.5,1.0,35.0,1,1.0,0.3273009999993519
953,28,0.5,0.125,-35.0,1,0.0,1.0582009999998263
954,28,0.5,0.125,35.0,-1,0.0,2.2575010000000475
955,28,0.9,0.125,35.0,1,1.0,0.8579009999994014
956,28,0.5,1.0,-35.0,-1,1.0,0.45100100000036036
957,28,0.5,0.125,-35.0,-1,1.0,1.271400999999969
958,28,0.5,0.125,-35.0,-1,1.0,1.2347010000003138
959,28,0.5,0.25,35.0,1,1.0,0.31830099999933736
960,28,0.5,0.25,35.0,-1,0.0,0.7213009999995847
961,28,0.5,0.125,35.0,1,1.0,0.42170100000021193
962,28,0.5,1.0,35.0,1,1.0,0.28490099999999074
963,28,0.5,1.0,35.0,1,1.0,0.34520100000008824
964,28,0.5,0.0,-35.0,-1,1.0,1.0083009999998467
965,28,0.5,1.0,-35.0,-1,1.0,0.7820009999995818
966,28,0.5,0.25,35.0,1,1.0,0.27860099999998056
967,28,0.5,1.0,-35.0,-1,1.0,0.5589010000003327
968,28,0.5,0.0625,35.0,1,1.0,0.3052010000001246
969,28,0.5,0.0625,35.0,-1,0.0,2.0356009999995877
970,28,0.5,0.0625,-35.0,-1,1.0,0.6323010000005524
971,28,0.5,1.0,-35.0,-1,1.0,1.592900999999074
972,28,0.5,1.0,35.0,1,1.0,0.31900100000075327
973,28,0.5,0.125,-35.0,-1,1.0,1.1095009999999093
974,28,0.5,0.0625,-35.0,-1,1.0,0.44920100000035745
975,28,0.5,0.0625,35.0,-1,0.0,0.5561010000001261
976,28,0.5,0.0625,35.0,-1,0.0,0.6493009999994683
977,28,0.5,0.125,35.0,1,1.0,0.7797009999994771
978,28,0.5,0.25,-35.0,-1,1.0,2.079700999999659
979,28,0.5,0.0,35.0,-1,0.0,1.1065010000002076
980,28,0.5,0.0,35.0,1,1.0,0.7198010000001887
981,28,0.5,0.0625,35.0,1,1.0,1.013401000000158
982,28,0.5,0.0625,35.0,-1,0.0,0.66660100000081
983,28,0.5,0.0,-35.0,-1,1.0,3.0336010000000897
984,28,0.5,1.0,-35.0,-1,1.0,0.6233009999996284
985,28,0.5,0.25,-35.0,-1,1.0,1.4768009999997957
986,28,0.5,1.0,35.0,1,1.0,0.31680099999994127
987,28,0.5,0.25,35.0,1,1.0,0.293800999999803
988,28,0.5,0.125,-35.0,-1,1.0,4.647000999999364
989,28,0.5,0.0625,35.0,1,1.0,0.8708010000009381
990,28,0.5,0.25,35.0,1,1.0,0.610501000000113
991,28,0.5,0.0,-35.0,1,0.0,0.32420100000035745
992,28,0.5,0.25,35.0,1,1.0,0.48750100000052043
993,28,0.5,0.125,35.0,1,1.0,0.28450099999918166
994,28,0.5,0.0625,-35.0,-1,1.0,1.7842010000003938
995,28,0.5,1.0,35.0,1,1.0,0.2546010000005481
996,28,0.5,0.0625,35.0,1,1.0,0.5710010000002512
997,28,0.5,0.125,-35.0,-1,1.0,1.008401000000049
998,28,0.5,0.0,-35.0,-1,1.0,0.8816009999991365
999,28,0.5,0.125,-35.0,-1,1.0,3.7482010000003356
1000,28,0.5,0.125,35.0,1,1.0,0.5382010000002992
1001,28,0.5,1.0,35.0,1,1.0,0.35180100000070524
1002,28,0.5,0.0625,35.0,1,1.0,0.5882009999995716
1003,28,0.5,0.0,35.0,1,1.0,0.5488009999999122
1004,28,0.5,0.0625,-35.0,1,0.0,1.0684009999995396
1005,28,0.7,0.0625,-35.0,-1,1.0,0.5991009999997914
1006,28,0.5,1.0,-35.0,-1,1.0,0.7319010000010167
1007,28,0.5,0.125,-35.0,-1,1.0,2.1089010000005146
1008,28,0.5,0.125,-35.0,-1,1.0,0.41540100000020175
1009,28,0.5,0.125,-35.0,-1,1.0,1.7925009999989925
1010,28,0.5,0.0625,35.0,-1,0.0,0.7990010000003167
1011,28,0.5,0.0625,35.0,1,1.0,0.6427009999997608
1012,28,0.5,0.25,35.0,1,1.0,0.3491009999997914
1013,28,0.5,0.0625,-35.0,-1,1.0,0.4994010000000344
1014,28,0.5,0.0,35.0,-1,0.0,0.7792010000002847
