trial_num,session_num,stim_probability_left,contrast,position,response_choice,trial_correct,reaction_time
1,22,0.5,0.125,35.0,1,1.0,0.31830000000000025
2,22,0.5,0.125,-35.0,-1,1.0,0.4291000000000009
3,22,0.5,0.0625,-35.0,1,0.0,0.25760000000000005
4,22,0.5,0.25,35.0,1,1.0,0.33310000000000173
5,22,0.5,0.0,35.0,-1,0.0,0.17050000000000054
6,22,0.8,0.0,-35.0,1,0.0,0.3354999999999997
7,22,0.5,1.0,35.0,1,1.0,0.20570000000000022
8,22,0.5,0.0625,-35.0,-1,1.0,0.2788000000000004
9,22,0.5,0.25,-35.0,-1,1.0,0.07219999999998805
10,22,0.5,0.125,-35.0,-1,1.0,0.1074999999999946
11,22,0.5,0.0625,-35.0,1,0.0,0.3511999999999986
12,22,0.5,0.25,35.0,1,1.0,0.25019999999999953
13,22,0.5,0.0625,-35.0,1,0.0,0.27649999999999864
14,22,0.6,0.0625,-35.0,1,0.0,0.34780000000000655
15,22,0.5,1.0,35.0,1,1.0,0.2494999999999976
16,22,0.5,0.25,-35.0,1,0.0,0.11870000000000402
17,22,0.5,0.25,-35.0,-1,1.0,0.1577999999999946
18,22,0.5,0.125,35.0,1,1.0,0.2669999999999959
19,22,0.5,0.125,-35.0,-1,1.0,0.34440000000000737
20,22,0.5,1.0,35.0,1,1.0,0.2500999999999891
21,22,0.5,1.0,35.0,1,1.0,0.29049999999999443
22,22,0.5,0.125,35.0,-1,0.0,0.28530000000000655
23,22,0.5,0.0625,35.0,1,1.0,0.25430000000000064
24,22,0.5,1.0,35.0,1,1.0,0.22289999999999566
25,22,0.5,0.0625,35.0,-1,0.0,0.1781000000000006
26,22,0.5,0.125,35.0,1,1.0,0.1903999999999968
27,22,0.5,0.0,35.0,1,1.0,0.291000000000011
28,22,0.5,1.0,35.0,1,1.0,0.13949999999999818
29,22,0.5,1.0,-35.0,-1,1.0,0.2587999999999937
30,22,0.5,0.25,-35.0,1,0.0,0.2927999999999997
31,22,0.5,0.125,35.0,1,1.0,0.22280000000000655
32,22,0.5,0.0625,-35.0,1,0.0,0.2506000000000199
33,22,0.5,0.25,35.0,1,1.0,0.18249999999997613
34,22,0.5,0.25,-35.0,-1,1.0,0.14629999999999654
35,22,0.5,0.125,-35.0,1,0.0,0.3388999999999953
36,22,0.5,0.25,-35.0,1,0.0,0.07189999999999941
37,22,0.5,0.0625,35.0,1,1.0,0.49090000000001055
38,22,0.5,0.25,-35.0,-1,1.0,0.17889999999999873
39,22,0.5,0.0625,-35.0,-1,1.0,0.28249999999999886
40,22,0.5,0.25,35.0,-1,0.0,0.16590000000002192
41,22,0.6,0.25,-35.0,-1,1.0,0.14119999999999777
42,22,0.5,1.0,-35.0,-1,1.0,0.08990000000000009
43,22,0.5,1.0,35.0,1,1.0,0.2569000000000017
44,22,0.5,0.0625,35.0,1,1.0,0.3566990000000203
45,22,0.5,1.0,35.0,1,1.0,0.28489999999999327
46,22,0.5,1.0,35.0,1,1.0,0.2606000000000108
47,22,0.5,1.0,-35.0,1,0.0,0.3499999999999943
48,22,0.5,1.0,35.0,1,1.0,0.15749999999999886
49,22,0.5,1.0,35.0,1,1.0,0.25140000000001805
50,22,0.5,0.0,35.0,-1,0.0,0.1852000000000089
51,22,0.5,0.0625,-35.0,1,0.0,0.32730000000000814
52,22,0.5,0.25,-35.0,-1,1.0,0.304300000000012
53,22,0.5,1.0,-35.0,-1,1.0,0.34469899999999143
54,22,0.5,1.0,-35.0,-1,1.0,0.27120000000002165
55,22,0.5,1.0,35.0,1,1.0,0.2102999999999895
56,22,0.5,0.25,-35.0,-1,1.0,0.4057000000000244
57,22,0.5,0.0625,35.0,1,1.0,0.2609999999999957
58,22,0.5,0.0,-35.0,1,0.0,0.5058999999999969
59,22,0.5,0.0,35.0,1,1.0,0.16809999999998126
60,22,0.5,0.0625,-35.0,1,0.0,0.24169999999998026
61,22,0.5,0.0625,-35.0,1,0.0,0.09709999999995489
62,22,0.5,0.0,35.0,1,1.0,2.471900000000005
63,22,0.5,0.25,-35.0,-1,1.0,0.23210000000000264
64,22,0.5,0.125,-35.0,1,0.0,0.1783999999999537
65,22,0.5,0.0625,-35.0,-1,1.0,0.3820999999999799
66,22,0.5,1.0,-35.0,-1,1.0,0.3335999999999899
67,22,0.5,0.0625,-35.0,-1,1.0,0.22759999999999536
68,22,0.5,1.0,35.0,1,1.0,0.2579999999999245
69,22,0.5,1.0,35.0,-1,0.0,0.08059999999994716
70,22,0.5,0.25,-35.0,-1,1.0,0.29869999999999663
71,22,0.5,0.125,35.0,1,1.0,0.2656000000000063
72,22,0.5,0.25,-35.0,1,0.0,0.2955989999999815
73,22,0.5,0.125,35.0,1,1.0,0.26799999999997226
74,22,0.5,0.0625,35.0,1,1.0,0.3614000000000033
75,22,0.5,1.0,35.0,-1,0.0,0.13079999999996517
76,22,0.5,0.25,35.0,1,1.0,0.31119999999998527
77,22,0.5,0.25,-35.0,1,0.0,0.35909999999995534
78,22,0.5,0.0625,-35.0,-1,1.0,0.7767999999999802
79,22,0.5,0.0,-35.0,-1,1.0,0.3371000000000208
80,22,0.5,0.25,-35.0,-1,1.0,0.27369999999996253
81,22,0.5,0.0625,35.0,-1,0.0,0.11069999999995161
82,22,0.5,0.0625,35.0,1,1.0,0.3494000000000028
83,22,0.5,0.25,-35.0,-1,1.0,0.22210000000001173
84,22,0.5,0.0,35.0,1,1.0,0.11529999999999063
85,22,0.5,0.125,-35.0,1,0.0,0.2640999999999849
86,22,0.5,0.25,35.0,1,1.0,0.31979999999998654
87,22,0.5,1.0,35.0,1,1.0,0.21289999999999054
88,22,0.5,0.25,-35.0,-1,1.0,0.35140000000001237
89,22,0.5,0.25,35.0,1,1.0,0.23469999999991842
90,22,0.5,0.125,35.0,1,1.0,0.28019999999997935
91,22,0.5,1.0,-35.0,1,0.0,0.08920000000000528
92,22,0.5,0.0625,-35.0,1,0.0,0.15280000000001337
93,22,0.5,0.0625,35.0,1,1.0,0.3418999999999528
94,22,0.5,0.25,35.0,1,1.0,0.3104999999999336
95,22,0.5,0.0,-35.0,-1,1.0,0.15869999999995343
96,22,0.5,1.0,35.0,1,1.0,0.22559999999992897
97,22,0.5,0.0625,-35.0,-1,1.0,0.21729999999996608
98,22,0.5,0.25,35.0,1,1.0,0.12829999999996744
99,22,0.5,0.0625,35.0,1,1.0,0.424699999999973
100,22,0.5,0.0625,-35.0,-1,1.0,0.300200000000018
101,22,0.5,0.0625,35.0,1,1.0,0.3202999999999747
102,22,0.5,0.25,35.0,1,1.0,0.24269999999995662
103,22,0.5,0.125,35.0,1,1.0,0.25849999999996953
104,22,0.5,0.25,35.0,1,1.0,0.294399999999996
105,22,0.5,0.25,35.0,1,1.0,0.23659999999995307
106,22,0.5,1.0,-35.0,-1,1.0,0.3532999999999902
107,22,0.5,1.0,-35.0,-1,1.0,0.3483999999999696
108,22,0.5,0.0625,-35.0,1,0.0,0.3476999999999748
109,22,0.7,0.0625,-35.0,-1,1.0,0.3632999999999811
110,22,0.5,1.0,-35.0,-1,1.0,0.22550000000001091
111,22,0.5,0.0625,35.0,-1,0.0,0.1822999999999979
112,22,0.5,0.0625,35.0,1,1.0,0.20749999999992497
113,22,0.5,1.0,-35.0,1,0.0,0.23980000000000246
114,22,0.5,1.0,35.0,1,1.0,0.21179999999998245
115,22,0.5,1.0,35.0,1,1.0,0.2604000000000042
116,22,0.5,0.0625,-35.0,1,0.0,0.38870000000002847
117,22,0.5,0.125,35.0,-1,0.0,0.1057999999999879
118,22,0.6,0.125,35.0,1,1.0,0.27649999999999864
119,22,0.5,1.0,35.0,1,1.0,0.2562000000000353
120,22,0.5,0.125,35.0,1,1.0,0.2574999999999932
121,22,0.5,0.0625,35.0,1,1.0,0.1782999999999788
122,22,0.5,1.0,-35.0,-1,1.0,0.30119999999999436
123,22,0.5,0.0625,35.0,1,1.0,0.2504000000000133
124,22,0.5,0.25,-35.0,1,0.0,0.4451999999999998
125,22,0.5,0.0,-35.0,-1,1.0,2.1523999999999432
126,22,0.5,1.0,35.0,1,1.0,0.27710000000001855
127,22,0.5,0.25,-35.0,-1,1.0,0.1582000000000221
128,22,0.5,1.0,35.0,1,1.0,0.23559899999997924
129,22,0.5,1.0,35.0,1,1.0,0.25080000000014024
130,22,0.5,0.0625,35.0,1,1.0,0.0988999999999578
131,22,0.5,1.0,-35.0,-1,1.0,0.2866000000000213
132,22,0.5,0.25,-35.0,-1,1.0,0.2858999999999696
133,22,0.5,1.0,-35.0,-1,1.0,0.12200000000018463
134,22,0.5,0.125,-35.0,-1,1.0,0.518799999999942
135,22,0.5,1.0,-35.0,-1,1.0,0.07609999999999673
136,22,0.5,0.0625,35.0,1,1.0,0.15589999999997417
137,22,0.5,0.125,35.0,1,1.0,0.32580000000007203
138,22,0.5,0.125,35.0,1,1.0,0.21660000000008495
139,22,0.5,1.0,-35.0,-1,1.0,0.5880000000000791
140,22,0.5,0.125,-35.0,-1,1.0,0.32170000000007803
141,22,0.5,0.125,-35.0,-1,1.0,0.3392000000000053
142,22,0.5,0.25,-35.0,-1,1.0,0.22699999999997544
143,22,0.5,1.0,-35.0,-1,1.0,0.24900000000002365
144,22,0.5,0.0,35.0,-1,0.0,0.30130000000008295
145,22,0.3,0.0,-35.0,1,0.0,0.38020000000005894
146,22,0.5,1.0,35.0,1,1.0,0.28320000000007894
147,22,0.5,0.0,35.0,-1,0.0,0.5611999999999853
148,22,0.5,0.25,-35.0,-1,1.0,0.3491000000000213
149,22,0.5,0.0625,35.0,1,1.0,0.378400000000056
150,22,0.5,0.25,-35.0,-1,1.0,0.1511000000000422
151,22,0.5,1.0,-35.0,-1,1.0,0.10620000000005803
152,22,0.5,0.125,-35.0,-1,1.0,0.13630000000011933
153,22,0.5,0.125,-35.0,-1,1.0,0.2216999999999416
154,22,0.5,0.0625,-35.0,-1,1.0,0.2741000000000895
155,22,0.5,0.0625,-35.0,-1,1.0,0.7316000000000713
156,22,0.5,0.25,35.0,-1,0.0,0.5384000000000242
157,22,0.1,0.25,-35.0,-1,1.0,0.28560000000004493
158,22,0.5,1.0,35.0,-1,0.0,0.2092000000001235
159,22,0.1,1.0,35.0,-1,0.0,0.1754000000000815
160,22,0.0,1.0,35.0,1,1.0,0.31579999999996744
161,22,0.5,1.0,35.0,1,1.0,0.38669900000002144
162,22,0.5,0.125,-35.0,-1,1.0,0.20839999999998327
163,22,0.5,0.25,35.0,1,1.0,0.32760000000007494
164,22,0.5,1.0,-35.0,-1,1.0,0.20070000000009713
165,22,0.5,1.0,35.0,-1,0.0,0.19639999999992597
166,22,0.5,0.25,-35.0,-1,1.0,0.254099999999994
167,22,0.5,0.25,35.0,1,1.0,0.3450000000000273
168,22,0.5,0.0625,35.0,-1,0.0,0.2840000000001055
169,22,0.5,0.0625,-35.0,-1,1.0,0.3593999999999369
170,22,0.5,1.0,-35.0,-1,1.0,0.3689990000000307
171,22,0.5,0.25,35.0,1,1.0,0.2618000000001075
172,22,0.5,0.25,35.0,1,1.0,0.3363000000000511
173,22,0.5,0.25,35.0,1,1.0,0.2889989999999898
174,22,0.5,1.0,-35.0,-1,1.0,0.22610000000008768
175,22,0.5,0.0625,35.0,1,1.0,0.272199999999998
176,22,0.5,0.125,-35.0,1,0.0,0.18400000000008276
177,22,0.5,0.25,35.0,1,1.0,0.3524999999999636
178,22,0.5,1.0,-35.0,-1,1.0,0.37200000000007094
179,22,0.5,1.0,35.0,1,1.0,0.36390000000005784
180,22,0.5,0.125,35.0,1,1.0,0.42830000000003565
181,22,0.5,0.25,-35.0,-1,1.0,0.5956990000000815
182,22,0.5,0.125,35.0,1,1.0,0.3188000000000102
183,22,0.5,0.125,-35.0,-1,1.0,0.43830000000002656
184,22,0.5,0.125,-35.0,-1,1.0,0.3586999999999989
185,22,0.5,0.0625,35.0,1,1.0,0.28130000000010114
186,22,0.5,0.25,-35.0,-1,1.0,0.5405999999999267
187,22,0.5,0.25,-35.0,1,0.0,0.19040000000006785
188,22,0.5,0.125,-35.0,1,0.0,0.34600000000000364
189,22,0.6,0.125,-35.0,-1,1.0,0.4473000000000411
190,22,0.5,1.0,-35.0,-1,1.0,0.21550000000002
191,22,0.5,0.0625,-35.0,1,0.0,0.42629999999996926
192,22,0.5,0.0625,-35.0,-1,1.0,0.427599999999984
193,22,0.5,0.0625,35.0,-1,0.0,0.41840000000001965
194,22,0.5,0.0625,35.0,1,1.0,0.32190000000002783
195,22,0.5,1.0,-35.0,-1,1.0,0.3977999999999611
196,22,0.5,1.0,35.0,1,1.0,0.2765000000000555
197,22,0.5,1.0,-35.0,-1,1.0,0.32559999999989486
198,22,0.5,0.125,-35.0,-1,1.0,0.39009999999996126
199,22,0.5,0.0,35.0,-1,0.0,0.2136000000000422
200,22,0.5,0.0625,35.0,-1,0.0,0.31120000000009895
201,22,0.3,0.0625,35.0,1,1.0,0.3384990000000698
202,22,0.5,1.0,35.0,1,1.0,0.23200000000008458
203,22,0.5,0.0,-35.0,-1,1.0,0.476099999999974
204,22,0.5,0.25,35.0,1,1.0,0.34810000000004493
205,22,0.5,0.0,35.0,1,1.0,0.33299999999997
206,22,0.5,0.0625,35.0,1,1.0,0.29330000000004475
207,22,0.5,0.0625,35.0,1,1.0,0.19590000000005148
208,22,0.5,0.0,-35.0,1,0.0,0.2637999999999465
209,22,0.5,0.0625,35.0,-1,0.0,0.1608000000001084
210,22,0.5,0.125,35.0,1,1.0,0.28930000000002565
211,22,0.5,0.25,35.0,1,1.0,0.2875000000001364
212,22,0.5,0.0,35.0,-1,0.0,0.15629999999998745
213,22,0.5,0.125,-35.0,-1,1.0,0.3753000000000384
214,22,0.5,0.0625,-35.0,-1,1.0,0.2517990000001191
215,22,0.5,1.0,35.0,-1,0.0,0.1027000000000271
216,22,0.5,0.25,-35.0,-1,1.0,0.07900000000006457
217,22,0.5,0.0625,-35.0,-1,1.0,0.12230000000010932
218,22,0.5,0.125,-35.0,1,0.0,0.6787000000000489
219,22,0.5,0.125,35.0,1,1.0,0.4229000000000269
220,22,0.5,1.0,35.0,1,1.0,0.617800000000102
221,22,0.5,0.0,35.0,1,1.0,0.29150000000004184
222,22,0.5,0.0625,35.0,1,1.0,0.1549000000001115
223,22,0.5,0.0625,35.0,1,1.0,0.4576999999999316
224,22,0.5,0.25,35.0,1,1.0,0.29769999999996344
225,22,0.5,0.0625,35.0,1,1.0,0.3106999999999971
226,22,0.5,0.25,-35.0,-1,1.0,0.22829999999999018
227,22,0.5,0.125,-35.0,1,0.0,0.4530000000000882
228,22,0.5,0.125,-35.0,-1,1.0,0.6211000000000695
229,22,0.5,0.125,35.0,1,1.0,0.17840000000012424
230,22,0.5,0.0625,-35.0,-1,1.0,0.6787000000000489
231,22,0.5,0.0625,-35.0,1,0.0,0.9038999999999078
232,22,0.7,0.0625,-35.0,-1,1.0,0.41000000000008185
233,22,0.5,1.0,-35.0,-1,1.0,0.36839999999995143
234,22,0.5,0.0625,35.0,1,1.0,0.36810000000002674
235,22,0.5,1.0,-35.0,-1,1.0,0.42390000000011696
236,22,0.5,0.125,-35.0,1,0.0,0.18860000000006494
237,22,0.5,0.125,35.0,1,1.0,0.3127000000000635
238,22,0.5,0.125,-35.0,1,0.0,0.3916990000001306
239,22,0.5,0.125,35.0,1,1.0,0.4011000000001559
240,22,0.5,0.0,35.0,1,1.0,0.6231000000000222
241,22,0.5,0.0,35.0,1,1.0,0.1069999999999709
242,22,0.5,0.125,35.0,1,1.0,0.20100000000002183
243,22,0.5,0.125,35.0,1,1.0,0.34940000000005966
244,22,0.5,0.125,-35.0,-1,1.0,0.4130000000000109
245,22,0.5,1.0,35.0,1,1.0,0.27510000000006585
246,22,0.5,0.25,-35.0,-1,1.0,0.6899000000000797
247,22,0.5,0.125,35.0,1,1.0,0.553600000000074
248,22,0.5,0.0625,35.0,1,1.0,0.3023000000000593
249,22,0.5,1.0,-35.0,1,0.0,0.36980000000016844
250,22,0.5,0.25,-35.0,-1,1.0,0.1874000000000251
251,22,0.5,0.0,-35.0,1,0.0,0.9218999999999369
252,22,0.5,0.125,35.0,1,1.0,0.27900000000011005
253,22,0.5,1.0,35.0,1,1.0,0.2796000000001868
254,22,0.5,1.0,-35.0,-1,1.0,0.4072999999999638
255,22,0.5,1.0,35.0,1,1.0,0.300399000000084
256,22,0.5,0.0625,35.0,1,1.0,0.43209999999999127
257,22,0.5,0.0,-35.0,1,0.0,0.5304999999999609
258,22,0.8,0.0,35.0,1,1.0,0.36099999999999
259,22,0.5,1.0,-35.0,-1,1.0,0.4020990000000211
260,22,0.5,0.0625,-35.0,1,0.0,0.41400000000010095
261,22,0.8,0.0625,-35.0,1,0.0,3.2482000000001108
262,22,0.5,1.0,35.0,1,1.0,0.29560000000003583
263,22,0.5,0.125,-35.0,-1,1.0,0.5951000000000022
264,22,0.5,1.0,35.0,1,1.0,0.3351000000000113
265,22,0.5,0.125,35.0,1,1.0,0.5250999999999522
266,22,0.5,0.0625,35.0,-1,0.0,0.7420000000000755
267,22,0.5,0.0625,-35.0,1,0.0,0.4821000000000595
268,22,0.5,0.0625,-35.0,-1,1.0,0.45879999999999654
269,22,0.5,1.0,35.0,1,1.0,0.3388000000001057
270,22,0.5,0.25,-35.0,-1,1.0,0.5254000000002179
271,22,0.5,0.25,35.0,1,1.0,0.5021999999999025
272,22,0.5,0.25,35.0,1,1.0,0.4023000000001957
273,22,0.5,0.0625,-35.0,-1,1.0,0.5992000000001099
274,22,0.5,0.125,-35.0,1,0.0,0.8892000000000735
275,22,0.5,0.0625,35.0,1,1.0,1.0825999999999567
276,22,0.5,0.125,35.0,1,1.0,2.4993000000001757
277,22,0.5,0.25,-35.0,-1,1.0,0.5394000000001142
278,22,0.5,0.25,35.0,1,1.0,0.42620000000010805
279,22,0.5,0.25,35.0,1,1.0,0.2862000000002354
280,22,0.5,0.25,-35.0,-1,1.0,0.7727999999999611
281,22,0.5,0.25,35.0,1,1.0,0.30300000000011096
282,22,0.5,0.0,-35.0,-1,1.0,0.6729000000002543
283,22,0.5,0.0625,-35.0,1,0.0,0.4264989999999216
284,22,0.5,0.0625,-35.0,-1,1.0,0.45650000000000546
285,22,0.5,0.125,35.0,1,1.0,0.3364000000001397
286,22,0.5,0.25,-35.0,-1,1.0,0.5233000000000629
287,22,0.5,0.0625,-35.0,1,0.0,0.8566000000000713
288,22,0.5,0.25,-35.0,-1,1.0,0.39030000000002474
289,22,0.5,0.0625,35.0,1,1.0,0.33009999999990214
290,22,0.5,0.0625,35.0,1,1.0,0.2702999999999065
291,22,0.5,0.25,35.0,1,1.0,0.27690000000006876
292,22,0.5,1.0,35.0,1,1.0,0.2403999999999087
293,22,0.5,0.0625,35.0,1,1.0,0.34699999999998
294,22,0.5,0.0,-35.0,-1,1.0,0.5371000000002368
295,22,0.5,0.25,-35.0,-1,1.0,0.6971000000000913
296,22,0.5,1.0,-35.0,-1,1.0,0.6040000000000418
297,22,0.5,0.25,-35.0,-1,1.0,0.6274000000000797
298,22,0.5,0.25,-35.0,1,0.0,0.4473000000002685
299,22,0.5,0.25,35.0,1,1.0,0.3043999999999869
300,22,0.5,1.0,-35.0,-1,1.0,0.4475000000002183
301,22,0.5,0.0,35.0,1,1.0,0.45080000000007203
302,22,0.5,1.0,-35.0,-1,1.0,0.4210000000000491
303,22,0.5,0.25,35.0,1,1.0,0.37100000000032196
304,22,0.5,0.125,35.0,1,1.0,0.3645000000001346
305,22,0.5,0.25,35.0,1,1.0,0.4678000000001248
306,22,0.5,0.125,35.0,1,1.0,0.3013000000003103
307,22,0.5,0.25,35.0,1,1.0,0.2980000000002292
308,22,0.5,0.25,35.0,1,1.0,0.34799999999995634
309,22,0.5,0.25,-35.0,-1,1.0,0.5614989999999125
310,22,0.5,0.0625,35.0,1,1.0,1.2346999999999753
311,22,0.5,1.0,35.0,1,1.0,0.2215000000001055
312,22,0.5,0.125,35.0,1,1.0,0.38160000000016225
313,22,0.5,1.0,35.0,1,1.0,0.18160000000011678
314,22,0.5,0.0,-35.0,1,0.0,1.0183000000001812
315,22,0.5,0.125,35.0,1,1.0,0.21850000000017644
316,22,0.5,1.0,-35.0,-1,1.0,0.40190000000006876
317,22,0.5,1.0,-35.0,-1,1.0,0.531800000000203
318,22,0.5,0.0625,35.0,1,1.0,0.25860000000011496
319,22,0.5,0.25,35.0,1,1.0,0.2555999999999585
320,22,0.5,0.0,-35.0,1,0.0,0.5054999999999836
321,22,0.5,0.125,35.0,1,1.0,0.35560000000009495
322,22,0.5,0.0625,-35.0,-1,1.0,0.7522999999998774
323,22,0.5,0.125,35.0,1,1.0,0.3523000000000138
324,22,0.5,0.25,-35.0,-1,1.0,0.4157000000000153
325,22,0.5,0.0,-35.0,-1,1.0,0.7524000000000797
326,22,0.5,0.25,-35.0,-1,1.0,0.4391000000000531
327,22,0.5,0.0625,-35.0,1,0.0,0.33920000000011896
328,22,0.5,0.0,35.0,1,1.0,2.2427000000000135
329,22,0.5,0.25,35.0,1,1.0,0.3293999999998505
330,22,0.5,1.0,35.0,1,1.0,0.2961000000002514
331,22,0.5,0.25,35.0,1,1.0,0.3628000000001066
332,22,0.5,0.125,35.0,1,1.0,0.3563000000001466
333,22,0.5,0.25,35.0,1,1.0,0.34970000000021173
334,22,0.5,0.0625,-35.0,-1,1.0,0.4798000000000684
335,22,0.5,0.125,-35.0,-1,1.0,0.5731000000000677
336,22,0.5,1.0,35.0,1,1.0,0.3399000000001706
337,22,0.5,0.125,-35.0,-1,1.0,0.6299000000001342
338,22,0.5,0.25,35.0,1,1.0,0.530100000000175
339,22,0.5,0.25,35.0,1,1.0,0.3333990000000995
340,22,0.5,0.0625,35.0,1,1.0,0.43679999999994834
341,22,0.5,0.125,-35.0,-1,1.0,0.7735000000000127
342,22,0.5,0.125,-35.0,-1,1.0,0.8503000000000611
343,22,0.5,0.0,35.0,1,1.0,0.7037000000000262
344,22,0.5,0.0625,35.0,-1,0.0,0.47030000000017935
345,22,0.5,0.125,35.0,1,1.0,0.2639000000001488
346,22,0.5,0.125,35.0,1,1.0,0.24390000000016698
347,22,0.5,0.0625,35.0,-1,0.0,0.6472999999998592
348,22,0.6,0.0625,-35.0,-1,1.0,0.3741000000002259
349,22,0.5,1.0,35.0,1,1.0,0.38750000000027285
350,22,0.5,0.125,-35.0,-1,1.0,0.3308999999999287
351,22,0.5,0.125,35.0,1,1.0,0.35429999999996653
352,22,0.5,0.25,35.0,1,1.0,0.3544000000001688
353,22,0.5,1.0,35.0,1,1.0,0.38790000000017244
354,22,0.5,0.25,35.0,1,1.0,0.26119900000003327
355,22,0.5,0.25,35.0,1,1.0,0.36789999999996326
356,22,0.5,1.0,35.0,1,1.0,0.3580000000001746
357,22,0.5,0.125,35.0,1,1.0,0.39800000000013824
358,22,0.5,0.0625,-35.0,-1,1.0,0.47479999999995925
359,22,0.5,0.0625,-35.0,-1,1.0,0.40160000000014406
360,22,0.5,0.0625,-35.0,-1,1.0,1.1481999999998607
361,22,0.5,0.125,-35.0,-1,1.0,0.5216000000002623
362,22,0.5,0.0,35.0,1,1.0,1.518500000000131
363,22,0.5,1.0,-35.0,-1,1.0,0.3286000000000513
364,22,0.5,0.25,35.0,1,1.0,0.3787000000002081
365,22,0.5,0.125,35.0,1,1.0,0.4553000000000793
366,22,0.5,1.0,-35.0,-1,1.0,0.5587000000000444
367,22,0.5,0.125,-35.0,1,0.0,2.0454999999999472
368,22,0.5,0.0625,35.0,1,1.0,2.288900999999896
369,22,0.5,0.0,-35.0,1,0.0,1.4922010000000228
370,22,0.5,0.0625,-35.0,-1,1.0,0.5525010000001203
371,22,0.5,0.125,-35.0,-1,1.0,0.6625010000000202
372,22,0.5,1.0,35.0,1,1.0,0.339301000000205
373,22,0.5,1.0,35.0,1,1.0,0.4460010000002512
374,22,0.5,0.0625,35.0,1,1.0,0.27270100000009734
375,22,0.5,1.0,35.0,1,1.0,0.3362000000001899
376,22,0.5,0.0625,-35.0,-1,1.0,0.5562009999998736
377,22,0.5,0.0625,35.0,1,1.0,1.7430010000000493
378,22,0.5,0.25,-35.0,-1,1.0,0.5099010000001272
379,22,0.5,0.0,35.0,-1,0.0,2.2265010000000984
380,22,0.5,0.0625,35.0,-1,0.0,2.1599009999999907
381,22,0.5,0.0625,35.0,1,1.0,1.6400009999999838
382,22,0.5,1.0,-35.0,-1,1.0,0.8235010000000784
383,22,0.5,0.0625,35.0,1,1.0,1.5868010000001505
384,22,0.5,0.125,35.0,1,1.0,0.7571009999999205
385,22,0.5,1.0,35.0,1,1.0,0.720401000000038
386,22,0.5,1.0,35.0,1,1.0,0.5207009999999173
387,22,0.5,0.125,35.0,1,1.0,5.624001000000135
388,22,0.5,0.25,35.0,1,1.0,1.194101000000046
389,22,0.5,0.0,35.0,-1,0.0,20.547600999999986
390,22,0.5,0.25,35.0,1,1.0,4.211500999999998
391,22,0.5,1.0,-35.0,-1,1.0,2.1116010000000642
392,22,0.5,0.0625,-35.0,1,0.0,7.518200999999863
393,22,0.5,0.125,35.0,1,1.0,0.5286009999999806
394,22,0.5,0.25,-35.0,-1,1.0,2.4151010000000497
395,22,0.5,0.25,-35.0,-1,1.0,2.6820010000001275
396,22,0.5,0.25,-35.0,-1,1.0,0.42560100000014245
397,22,0.5,1.0,-35.0,-1,1.0,0.2755010000000766
398,22,0.5,0.0625,-35.0,-1,1.0,5.565601000000015
399,22,0.5,0.25,35.0,1,1.0,0.8957010000001446
400,22,0.5,0.0625,-35.0,-1,1.0,4.875801000000138
401,22,0.5,0.0,35.0,-1,0.0,8.785800999999992
402,22,0.5,0.0625,-35.0,-1,1.0,1.4128010000001723
403,22,0.5,0.0625,35.0,-1,0.0,7.94960100000003
404,22,0.5,0.125,-35.0,-1,1.0,0.5598009999998794
405,22,0.5,0.25,-35.0,-1,1.0,3.0932000000000244
406,22,0.5,1.0,35.0,1,1.0,0.5000010000001112
407,22,0.5,0.0,35.0,-1,0.0,1.4168010000000777
408,22,0.2,0.0,35.0,1,1.0,5.723400999999967
409,22,0.5,1.0,35.0,1,1.0,0.7169010000000071
410,22,0.5,1.0,-35.0,-1,1.0,1.3470010000000912
1,23,0.5,0.0,35.0,1,1.0,0.3300000000000003
2,23,0.5,0.0625,35.0,1,1.0,0.37940100000000054
3,23,0.5,0.25,-35.0,-1,1.0,0.46770099999999815
4,23,0.5,1.0,35.0,1,1.0,0.36970099999999917
5,23,0.5,0.0,-35.0,1,0.0,0.338499999999998
6,23,0.5,0.25,35.0,1,1.0,0.2925009999999979
7,23,0.5,0.125,-35.0,-1,1.0,0.2151009999999971
8,23,0.5,1.0,35.0,1,1.0,0.14720099999999903
9,23,0.5,0.25,-35.0,-1,1.0,0.3371010000000041
10,23,0.5,0.25,-35.0,-1,1.0,0.2573009999999982
11,23,0.5,0.0625,-35.0,-1,1.0,0.11960100000000295
12,23,0.5,0.0,35.0,-1,0.0,0.3255009999999956
13,23,0.5,0.125,-35.0,-1,1.0,0.5809009999999972
14,23,0.5,0.25,35.0,1,1.0,0.4878010000000046
15,23,0.5,0.125,-35.0,1,0.0,0.23340100000000064
16,23,0.4,0.125,-35.0,-1,1.0,0.35430000000000206
17,23,0.5,1.0,35.0,1,1.0,0.26670099999999763
18,23,0.5,1.0,35.0,1,1.0,0.20670099999999536
19,23,0.5,0.125,35.0,1,1.0,0.3609010000000126
20,23,0.5,0.25,35.0,1,1.0,0.22230100000000164
21,23,0.5,0.25,35.0,1,1.0,0.14360100000000386
22,23,0.5,0.0625,-35.0,1,0.0,0.1607010000000031
23,23,0.5,0.25,35.0,1,1.0,0.2660009999999886
24,23,0.5,0.0625,35.0,1,1.0,0.2911009999999976
25,23,0.5,0.25,35.0,1,1.0,0.24920099999998513
26,23,0.5,0.0625,35.0,1,1.0,0.28560099999999977
27,23,0.5,0.25,35.0,1,1.0,0.2875009999999918
28,23,0.5,0.25,-35.0,1,0.0,0.181800999999993
29,23,1.0,0.25,35.0,1,1.0,0.26560100000000375
30,23,0.5,1.0,-35.0,-1,1.0,0.23740100000000552
31,23,0.5,0.0625,-35.0,1,0.0,0.22410099999999034
32,23,0.5,0.25,-35.0,-1,1.0,0.311600999999996
33,23,0.5,0.25,-35.0,-1,1.0,0.28200099999999395
34,23,0.5,0.25,35.0,1,1.0,0.23410100000000966
35,23,0.5,0.25,35.0,1,1.0,0.21440099999999518
36,23,0.5,0.25,35.0,1,1.0,0.2795009999999962
37,23,0.5,0.25,-35.0,-1,1.0,0.40890099999998597
38,23,0.5,0.125,35.0,1,1.0,0.296701000000013
39,23,0.5,0.25,-35.0,-1,1.0,0.29510000000001924
40,23,0.5,0.0,35.0,-1,0.0,0.15770100000000298
41,23,0.5,0.0625,35.0,1,1.0,0.27820000000002665
42,23,0.5,0.0625,35.0,1,1.0,0.25330100000002176
43,23,0.5,0.0625,-35.0,1,0.0,0.2738000000000227
44,23,0.5,0.25,35.0,1,1.0,0.23830100000000698
45,23,0.5,1.0,-35.0,-1,1.0,0.24800100000001635
46,23,0.5,0.125,-35.0,-1,1.0,0.2868010000000254
47,23,0.5,0.125,35.0,1,1.0,0.5757010000000093
48,23,0.5,0.0625,-35.0,-1,1.0,0.3009000000000128
49,23,0.5,0.0625,-35.0,-1,1.0,0.25100100000000225
50,23,0.5,0.125,35.0,1,1.0,0.4567000000000405
51,23,0.5,0.0625,35.0,1,1.0,0.3112000000000137
52,23,0.5,0.0625,35.0,1,1.0,0.43240000000002965
53,23,0.5,0.125,35.0,1,1.0,0.29490100000001007
54,23,0.5,1.0,35.0,1,1.0,0.19920000000001892
55,23,0.5,0.0625,35.0,1,1.0,0.26080100000001494
56,23,0.5,0.0625,-35.0,-1,1.0,0.4720010000000343
57,23,0.5,0.25,35.0,1,1.0,0.254600000000039
58,23,0.5,1.0,-35.0,-1,1.0,0.3284010000000137
59,23,0.5,0.25,-35.0,-1,1.0,0.3698010000000238
60,23,0.5,0.125,35.0,-1,0.0,0.1694010000000219
61,23,0.6,0.125,-35.0,-1,1.0,0.36360100000001694
62,23,0.5,1.0,-35.0,-1,1.0,0.3920010000000218
63,23,0.5,0.0625,-35.0,-1,1.0,0.285301000000004
64,23,0.5,0.0625,35.0,1,1.0,0.4803010000000256
65,23,0.5,0.0,35.0,-1,0.0,0.231899999999996
66,23,0.5,0.0,35.0,1,1.0,0.5898000000000252
67,23,0.5,0.0625,-35.0,-1,1.0,0.1337010000000305
68,23,0.5,0.0625,35.0,-1,0.0,0.13810100000000602
69,23,0.5,0.25,-35.0,-1,1.0,0.3056010000000242
70,23,0.5,0.25,35.0,1,1.0,0.2821010000000115
71,23,0.5,1.0,-35.0,-1,1.0,0.3803010000000029
72,23,0.5,1.0,-35.0,-1,1.0,0.29720099999997274
73,23,0.5,0.125,35.0,1,1.0,0.4077010000000314
74,23,0.5,0.0625,-35.0,-1,1.0,0.3013010000000804
75,23,0.5,0.125,-35.0,-1,1.0,0.20010000000002037
76,23,0.5,0.25,-35.0,-1,1.0,0.27080100000000584
77,23,0.5,0.0625,-35.0,-1,1.0,0.33690100000001166
78,23,0.5,0.0625,35.0,1,1.0,0.2040010000000052
79,23,0.5,1.0,-35.0,-1,1.0,0.29070100000001275
80,23,0.5,0.0625,-35.0,-1,1.0,0.1650009999999611
81,23,0.5,0.0,-35.0,-1,1.0,0.2764010000000212
82,23,0.5,0.125,35.0,-1,0.0,0.14180099999998674
83,23,0.2,0.125,35.0,1,1.0,0.26280100000008133
84,23,0.5,1.0,35.0,1,1.0,0.20970099999999547
85,23,0.5,0.0,35.0,1,1.0,0.155700999999965
86,23,0.5,1.0,-35.0,-1,1.0,0.15090100000003304
87,23,0.5,0.0625,-35.0,-1,1.0,0.11850100000003749
88,23,0.5,0.0625,35.0,1,1.0,0.3527010000000246
89,23,0.5,0.0,-35.0,1,0.0,0.09970099999998183
90,23,0.5,0.0,35.0,1,1.0,0.3368009999999799
91,23,0.5,1.0,35.0,1,1.0,0.10850099999998974
92,23,0.5,0.25,35.0,-1,0.0,0.11790100000001758
93,23,0.5,0.0625,-35.0,-1,1.0,0.47520100000002685
94,23,0.5,0.0625,35.0,1,1.0,0.355700000000013
95,23,0.5,0.25,35.0,-1,0.0,0.10460100000000239
96,23,0.5,0.25,35.0,1,1.0,0.3284999999999627
97,23,0.5,1.0,35.0,1,1.0,0.26030100000002676
98,23,0.5,0.0625,35.0,1,1.0,0.31900100000007114
99,23,0.5,0.0,-35.0,1,0.0,0.2587010000000305
100,23,0.7,0.0,-35.0,1,0.0,0.34380100000004177
101,23,0.5,1.0,-35.0,-1,1.0,0.37530100000003586
102,23,0.5,1.0,35.0,1,1.0,0.24090100000006487
103,23,0.5,1.0,35.0,1,1.0,0.23569999999995161
104,23,0.5,0.0625,35.0,1,1.0,0.31410099999999375
105,23,0.5,0.25,35.0,1,1.0,0.2353010000000495
106,23,0.5,0.125,35.0,-1,0.0,0.13820100000003777
107,23,0.8,0.125,-35.0,1,0.0,0.4591010000000324
108,23,0.5,1.0,35.0,1,1.0,0.27650099999993927
109,23,0.5,0.125,35.0,1,1.0,0.2062010000000214
110,23,0.5,0.0625,35.0,1,1.0,0.374100999999996
111,23,0.5,0.25,-35.0,-1,1.0,0.274201000000005
112,23,0.5,0.25,-35.0,1,0.0,0.08540100000004713
113,23,0.5,0.25,-35.0,-1,1.0,0.32980100000003176
114,23,0.5,0.125,-35.0,-1,1.0,0.29600099999998974
115,23,0.5,0.125,35.0,1,1.0,0.41040100000003576
116,23,0.5,0.0625,35.0,1,1.0,0.9956010000000219
117,23,0.5,1.0,-35.0,-1,1.0,0.640401000000054
118,23,0.5,0.125,-35.0,-1,1.0,1.1992010000000164
119,23,0.5,0.0,-35.0,-1,1.0,0.39360099999998965
120,23,0.5,1.0,35.0,-1,0.0,0.09970100000003868
121,23,0.5,0.25,-35.0,-1,1.0,0.6577010000000314
122,23,0.5,0.125,35.0,1,1.0,0.2122009999999932
123,23,0.5,0.0,-35.0,1,0.0,0.19020100000005868
124,23,0.5,0.25,35.0,1,1.0,0.2627010000000496
125,23,0.5,0.125,35.0,1,1.0,0.23490100000003622
126,23,0.5,0.25,-35.0,-1,1.0,0.2848010000000727
127,23,0.5,0.25,-35.0,-1,1.0,0.39889999999996917
128,23,0.5,1.0,-35.0,-1,1.0,0.2592010000000755
129,23,0.5,1.0,35.0,1,1.0,0.22460000000000946
130,23,0.5,0.0,-35.0,-1,1.0,0.6493009999999799
131,23,0.5,0.0625,-35.0,-1,1.0,0.3457010000000196
132,23,0.5,0.25,35.0,1,1.0,0.2961010000000215
133,23,0.5,1.0,-35.0,-1,1.0,0.2809010000000285
134,23,0.5,0.125,35.0,1,1.0,0.21870100000001003
135,23,0.5,0.0,-35.0,-1,1.0,2.2336009999999646
136,23,0.5,0.125,-35.0,1,0.0,0.3498010000000136
137,23,0.5,0.25,35.0,1,1.0,0.3220010000000002
138,23,0.5,0.125,-35.0,-1,1.0,0.11159999999995307
139,23,0.5,0.125,35.0,-1,0.0,0.21170099999994818
140,23,0.4,0.125,-35.0,-1,1.0,0.3522009999999227
141,23,0.5,1.0,35.0,1,1.0,0.28710099999989325
142,23,0.5,0.0625,-35.0,-1,1.0,0.3347999999999729
143,23,0.5,0.0,35.0,1,1.0,0.26110099999993963
144,23,0.5,0.25,35.0,1,1.0,0.17229999999995016
145,23,0.5,0.25,35.0,1,1.0,0.2176009999999451
146,23,0.5,1.0,35.0,1,1.0,0.26050099999997656
147,23,0.5,0.125,-35.0,-1,1.0,0.6815010000000257
148,23,0.5,0.0625,35.0,1,1.0,0.2943009999999049
149,23,0.5,0.25,-35.0,-1,1.0,0.36000099999989743
150,23,0.5,0.125,-35.0,-1,1.0,0.6366009999999278
151,23,0.5,0.25,-35.0,-1,1.0,0.39130099999999857
152,23,0.5,0.25,35.0,1,1.0,0.43260099999986323
153,23,0.5,1.0,35.0,1,1.0,0.5727009999999382
154,23,0.5,0.125,35.0,1,1.0,1.1670009999999138
155,23,0.5,0.25,-35.0,1,0.0,0.2131009999999378
156,23,0.5,0.25,-35.0,-1,1.0,0.3285009999999602
157,23,0.5,1.0,35.0,1,1.0,0.26670100000001185
158,23,0.5,0.25,-35.0,1,0.0,0.21059999999988577
159,23,0.5,0.125,35.0,1,1.0,0.34780099999989034
160,23,0.5,0.125,35.0,1,1.0,0.22640100000000984
161,23,0.5,0.25,35.0,1,1.0,0.22790099999997437
162,23,0.5,0.125,-35.0,-1,1.0,0.3750009999999975
163,23,0.5,0.0,35.0,-1,0.0,2.0820009999998774
164,23,0.5,0.0,35.0,-1,0.0,0.14970100000005004
165,23,0.6,0.0,-35.0,1,0.0,0.2601009999999633
166,23,0.5,1.0,35.0,1,1.0,0.31730100000004313
167,23,0.5,0.125,-35.0,1,0.0,0.29330099999992854
168,23,0.5,0.0,35.0,1,1.0,0.35970099999985905
169,23,0.5,1.0,35.0,1,1.0,0.17030099999988124
170,23,0.5,0.125,-35.0,-1,1.0,0.4193009999999049
171,23,0.5,1.0,-35.0,-1,1.0,0.44030099999997674
172,23,0.5,0.25,-35.0,-1,1.0,0.34700100000009115
173,23,0.5,0.125,-35.0,-1,1.0,0.34320100000002185
174,23,0.5,0.0,35.0,1,1.0,0.26880100000005314
175,23,0.5,0.25,-35.0,-1,1.0,0.46610099999998056
176,23,0.5,0.0,-35.0,1,0.0,0.20210099999985687
177,23,0.5,0.25,35.0,1,1.0,0.28040100000009716
178,23,0.5,1.0,35.0,1,1.0,0.2373010000000022
179,23,0.5,0.0625,-35.0,-1,1.0,0.45439999999996417
180,23,0.5,0.125,-35.0,-1,1.0,0.3661009999999578
181,23,0.5,0.25,-35.0,-1,1.0,0.23110099999996692
182,23,0.5,0.0625,-35.0,-1,1.0,0.3968009999999822
183,23,0.5,0.25,35.0,1,1.0,0.1716999999998734
184,23,0.5,0.25,-35.0,-1,1.0,0.5902009999998654
185,23,0.5,1.0,35.0,1,1.0,0.09510099999988597
186,23,0.5,0.25,-35.0,-1,1.0,0.31510099999991326
187,23,0.5,0.125,35.0,1,1.0,0.1934009999998807
188,23,0.5,0.0625,35.0,1,1.0,0.26270099999999275
189,23,0.5,0.0625,35.0,1,1.0,0.1546009999999569
190,23,0.5,1.0,-35.0,-1,1.0,0.28369999999995343
191,23,0.5,0.25,35.0,1,1.0,0.16000099999996564
192,23,0.5,1.0,35.0,1,1.0,0.2780010000000175
193,23,0.5,1.0,-35.0,-1,1.0,0.11700099999995928
194,23,0.5,1.0,35.0,1,1.0,0.3570009999998547
195,23,0.5,1.0,35.0,1,1.0,0.2313009999999167
196,23,0.5,0.25,-35.0,1,0.0,0.20690099999990252
197,23,0.5,0.0,35.0,1,1.0,0.3508999999999105
198,23,0.5,0.25,35.0,1,1.0,0.22320000000001983
199,23,0.5,0.0,35.0,1,1.0,0.27130099999988033
200,23,0.5,0.0625,35.0,1,1.0,0.27010100000006787
201,23,0.5,0.0625,35.0,1,1.0,0.29350099999987833
202,23,0.5,0.125,-35.0,1,0.0,0.3348009999999704
203,23,0.5,0.0,-35.0,-1,1.0,0.2883009999999331
204,23,0.5,0.125,35.0,1,1.0,0.2050010000000384
205,23,0.5,0.0625,-35.0,-1,1.0,0.41210099999989325
206,23,0.5,1.0,35.0,1,1.0,0.28310099999998783
207,23,0.5,1.0,-35.0,-1,1.0,0.3808009999999058
208,23,0.5,1.0,-35.0,-1,1.0,0.3384009999999762
209,23,0.5,0.125,35.0,1,1.0,0.3986009999999851
210,23,0.5,1.0,35.0,-1,0.0,0.17039999999997235
211,23,0.5,0.125,-35.0,-1,1.0,0.28100099999994654
212,23,0.5,1.0,-35.0,-1,1.0,0.3159009999999398
213,23,0.5,0.125,35.0,1,1.0,0.30540099999996073
214,23,0.5,1.0,-35.0,-1,1.0,0.3785010000000284
215,23,0.5,1.0,-35.0,-1,1.0,0.23710099999993872
216,23,0.5,0.125,-35.0,1,0.0,0.16269999999997253
217,23,0.5,0.125,35.0,1,1.0,0.30559999999991305
218,23,0.5,0.0,35.0,1,1.0,0.23180100000001858
219,23,0.5,0.0,-35.0,1,0.0,0.34750099999996564
220,23,0.5,0.125,-35.0,-1,1.0,0.6719999999999118
221,23,0.5,0.25,35.0,-1,0.0,1.2227009999999154
222,23,0.5,0.25,35.0,-1,0.0,0.5944010000000617
223,23,0.5,1.0,-35.0,-1,1.0,0.29480100000000675
224,23,0.5,1.0,35.0,1,1.0,0.24260100000003604
225,23,0.5,0.25,35.0,1,1.0,0.26490100000000893
226,23,0.5,0.25,-35.0,1,0.0,0.24240099999997256
227,23,0.5,0.0625,35.0,-1,0.0,0.6877009999999473
228,23,0.5,0.0625,-35.0,-1,1.0,0.44229999999993197
229,23,0.5,1.0,-35.0,-1,1.0,0.3299009999999498
230,23,0.5,0.125,35.0,-1,0.0,0.43170099999997547
231,23,0.5,0.25,35.0,1,1.0,0.10660099999995509
232,23,0.5,1.0,35.0,1,1.0,0.3098009999999931
233,23,0.5,0.0,-35.0,-1,1.0,0.8579009999999698
234,23,0.5,0.25,35.0,-1,0.0,0.17370100000005095
235,23,0.5,0.125,-35.0,-1,1.0,0.39190099999996164
236,23,0.5,0.125,-35.0,-1,1.0,0.3728999999999587
237,23,0.5,1.0,35.0,1,1.0,0.2604999999999791
238,23,0.5,0.125,35.0,1,1.0,0.25949999999988904
239,23,0.5,0.0625,35.0,1,1.0,0.29099999999994
240,23,0.5,0.25,-35.0,-1,1.0,0.2554010000000062
241,23,0.5,0.125,-35.0,-1,1.0,0.39210099999991144
242,23,0.5,1.0,35.0,1,1.0,0.312300999999934
243,23,0.5,0.0625,35.0,1,1.0,0.27050099999996746
244,23,0.5,0.125,35.0,1,1.0,0.22870099999988724
245,23,0.5,0.0625,35.0,1,1.0,0.360100999999986
246,23,0.5,0.25,35.0,1,1.0,0.24020099999995637
247,23,0.5,0.0625,-35.0,-1,1.0,0.12610099999994873
248,23,0.5,0.0,35.0,-1,0.0,1.6880009999999857
249,23,0.5,0.0625,35.0,-1,0.0,0.8151010000000269
250,23,0.5,0.125,35.0,1,1.0,0.3402009999999791
251,23,0.5,0.25,35.0,1,1.0,0.27130099999988033
252,23,0.5,0.125,-35.0,-1,1.0,0.2617010000000164
253,23,0.5,0.125,35.0,-1,0.0,0.623501000000033
254,23,0.5,0.125,-35.0,-1,1.0,0.306500999999912
255,23,0.5,1.0,35.0,-1,0.0,0.18620099999998274
256,23,0.5,0.25,35.0,1,1.0,0.32910099999992326
257,23,0.5,0.0625,-35.0,-1,1.0,0.33900099999993927
258,23,0.5,0.0625,35.0,1,1.0,0.2862010000000055
259,23,0.5,0.25,35.0,-1,0.0,0.15250099999991562
260,23,0.4,0.25,35.0,-1,0.0,0.4264010000000553
261,23,0.5,1.0,35.0,1,1.0,0.29290099999991526
262,23,0.5,0.125,35.0,1,1.0,0.3665010000000848
263,23,0.5,0.0625,35.0,-1,0.0,0.11300099999994018
264,23,0.4,0.0625,35.0,1,1.0,0.3466009999999642
265,23,0.5,1.0,-35.0,-1,1.0,0.32660000000032596
266,23,0.5,0.25,35.0,1,1.0,0.1567010000001119
267,23,0.5,0.0,35.0,-1,0.0,0.2536009999998896
268,23,0.5,0.25,35.0,1,1.0,0.31690099999991617
269,23,0.5,0.25,35.0,1,1.0,0.34330099999988306
270,23,0.5,0.25,-35.0,-1,1.0,0.4272009999999682
271,23,0.5,0.25,35.0,1,1.0,0.3603010000001632
272,23,0.5,0.0625,-35.0,-1,1.0,0.4172009999999773
273,23,0.5,1.0,-35.0,-1,1.0,0.29030100000022685
274,23,0.5,0.0625,35.0,1,1.0,0.29060100000015154
275,23,0.5,0.25,35.0,1,1.0,0.5339010000000144
276,23,0.5,1.0,-35.0,-1,1.0,0.22750100000007478
277,23,0.5,0.25,35.0,1,1.0,0.1605010000000675
278,23,0.5,0.0625,35.0,1,1.0,1.3576010000001588
279,23,0.5,0.25,-35.0,-1,1.0,0.2574010000000726
280,23,0.5,0.0625,-35.0,-1,1.0,0.4810010000001057
281,23,0.5,0.125,-35.0,-1,1.0,0.5742010000001301
282,23,0.5,0.0625,35.0,-1,0.0,3.394600999999966
283,23,0.5,0.125,35.0,1,1.0,0.5245000000002165
284,23,0.5,0.125,-35.0,-1,1.0,0.37130099999990307
285,23,0.5,0.25,35.0,1,1.0,0.20770100000004277
286,23,0.5,0.0625,-35.0,-1,1.0,0.43830000000025393
287,23,0.5,1.0,35.0,1,1.0,0.2513010000002396
288,23,0.5,0.25,35.0,1,1.0,0.3217010000000755
289,23,0.5,1.0,35.0,1,1.0,0.29140000000006694
290,23,0.5,0.125,-35.0,-1,1.0,0.2919010000000526
291,23,0.5,1.0,35.0,-1,0.0,0.9686010000002625
292,23,0.5,0.125,35.0,-1,0.0,0.408301000000165
293,23,0.5,0.125,35.0,1,1.0,0.32199999999988904
294,23,0.5,1.0,35.0,1,1.0,0.3786009999998896
295,23,0.5,1.0,-35.0,-1,1.0,0.32540100000005623
296,23,0.5,0.25,35.0,1,1.0,0.26539999999999964
297,23,0.5,0.0625,-35.0,-1,1.0,0.8023010000001705
298,23,0.5,0.0,35.0,-1,0.0,0.8389010000003054
299,23,0.4,0.0,35.0,1,1.0,0.22250099999996564
300,23,0.5,1.0,35.0,1,1.0,0.4290009999999711
301,23,0.5,0.0,-35.0,-1,1.0,3.95590100000004
302,23,0.5,0.0,-35.0,1,0.0,0.22610100000019884
303,23,0.5,0.125,-35.0,-1,1.0,0.3991009999999733
304,23,0.5,0.25,35.0,1,1.0,0.2696000000000822
305,23,0.5,0.0,-35.0,-1,1.0,2.452800000000252
306,23,0.5,1.0,35.0,1,1.0,0.28290100000003804
307,23,0.5,0.125,35.0,1,1.0,0.29640100000005987
308,23,0.5,0.0625,-35.0,-1,1.0,0.1431009999998878
309,23,0.5,1.0,35.0,1,1.0,0.3799010000002454
310,23,0.5,0.0,35.0,1,1.0,3.4698009999999613
311,23,0.5,0.0625,35.0,1,1.0,0.25670100000002094
312,23,0.5,0.25,-35.0,-1,1.0,0.47340100000019447
313,23,0.5,0.0625,-35.0,-1,1.0,1.8201010000002498
314,23,0.5,0.0,35.0,-1,0.0,1.9733010000002196
315,23,0.5,0.125,-35.0,1,0.0,0.31040100000018356
316,23,0.6,0.125,-35.0,-1,1.0,0.3967999999999847
317,23,0.5,1.0,-35.0,1,0.0,0.12710100000003877
318,23,0.5,1.0,-35.0,-1,1.0,0.2940009999999802
319,23,0.5,1.0,-35.0,-1,1.0,0.33070100000009006
320,23,0.5,1.0,35.0,1,1.0,0.2470010000001821
321,23,0.5,1.0,-35.0,-1,1.0,0.2741009999999733
322,23,0.5,0.25,35.0,1,1.0,0.20090099999993072
323,23,0.5,0.125,35.0,1,1.0,0.20760100000006787
324,23,0.5,0.125,-35.0,1,0.0,0.2740009999999984
325,23,0.5,0.0625,35.0,1,1.0,0.3279010000001108
326,23,0.5,0.25,-35.0,1,0.0,0.2310010000001057
327,23,0.5,0.25,35.0,1,1.0,0.15790100000003804
328,23,0.5,0.0625,35.0,1,1.0,0.20440100000018901
329,23,0.5,0.25,35.0,1,1.0,0.24150100000019847
330,23,0.5,0.125,-35.0,-1,1.0,0.20130100000028506
331,23,0.5,0.0,-35.0,-1,1.0,0.5582010000000537
332,23,0.5,1.0,35.0,-1,0.0,0.09790099999986523
333,23,0.5,0.125,35.0,-1,0.0,0.5416010000001279
334,23,0.6,0.125,35.0,-1,0.0,0.6915000000001328
335,23,0.5,1.0,-35.0,-1,1.0,0.2753010000001268
336,23,0.5,1.0,-35.0,-1,1.0,0.36160100000006423
337,23,0.5,0.0,-35.0,-1,1.0,0.42200100000013663
338,23,0.5,0.125,35.0,-1,0.0,0.2318000000000211
339,23,0.5,0.0,-35.0,1,0.0,1.0955000000003565
340,23,0.1,0.0,-35.0,1,0.0,0.28880100000014863
341,23,0.5,1.0,35.0,-1,0.0,0.5393010000000231
342,23,0.5,0.125,35.0,1,1.0,0.5389010000001235
343,23,0.5,1.0,35.0,1,1.0,0.20930100000009588
344,23,0.5,1.0,35.0,1,1.0,0.27240100000017264
345,23,0.5,0.25,-35.0,-1,1.0,0.28579999999988104
346,23,0.5,0.0625,35.0,-1,0.0,0.34910100000001876
347,23,0.5,0.125,-35.0,-1,1.0,0.39940100000012535
348,23,0.5,1.0,35.0,1,1.0,0.30910100000005514
349,23,0.5,0.0625,35.0,1,1.0,0.29640100000005987
350,23,0.5,0.0,35.0,1,1.0,0.1528000000000702
351,23,0.5,1.0,35.0,1,1.0,0.17630099999996673
352,23,0.5,0.0625,35.0,1,1.0,0.3461010000000897
353,23,0.5,0.0625,35.0,1,1.0,0.3365009999999984
354,23,0.5,0.0,-35.0,1,0.0,0.5366010000000188
355,23,0.5,0.125,35.0,1,1.0,0.37980100000004313
356,23,0.5,1.0,35.0,1,1.0,0.16300100000012208
357,23,0.5,0.0,-35.0,1,0.0,0.253400000000056
358,23,0.5,0.25,35.0,1,1.0,0.35330100000010134
359,23,0.5,0.0625,-35.0,-1,1.0,1.8869010000000799
360,23,0.5,0.0625,-35.0,-1,1.0,0.21030100000007224
361,23,0.5,1.0,35.0,1,1.0,0.2370000000003074
362,23,0.5,0.125,-35.0,-1,1.0,0.30700099999990016
363,23,0.5,0.0625,-35.0,-1,1.0,0.5771010000000842
364,23,0.5,0.125,35.0,1,1.0,0.29020100000025195
365,23,0.5,0.0625,35.0,1,1.0,0.26060100000017883
366,23,0.5,0.25,-35.0,-1,1.0,0.30720100000007733
367,23,0.5,0.0625,-35.0,-1,1.0,0.40090100000020357
368,23,0.5,1.0,-35.0,-1,1.0,0.2842009999999391
369,23,0.5,0.125,35.0,1,1.0,0.27080100000011953
370,23,0.5,1.0,-35.0,-1,1.0,0.24740100000030907
371,23,0.5,0.0625,35.0,1,1.0,0.13100100000019665
372,23,0.5,0.0625,35.0,-1,0.0,0.14760100000012244
373,23,0.5,0.25,35.0,-1,0.0,0.3845000000001164
374,23,0.4,0.25,35.0,1,1.0,0.35120099999994636
375,23,0.5,1.0,35.0,1,1.0,0.2213010000000395
376,23,0.5,0.0625,-35.0,-1,1.0,0.38790100000005623
377,23,0.5,1.0,35.0,1,1.0,0.27480100000002494
378,23,0.5,0.25,35.0,1,1.0,0.29129999999986467
379,23,0.5,0.125,-35.0,1,0.0,0.3449009999999362
380,23,0.5,0.0,35.0,1,1.0,0.28510099999994054
381,23,0.5,1.0,-35.0,-1,1.0,0.24180100000012317
382,23,0.5,0.125,-35.0,1,0.0,0.1786010000000715
383,23,0.5,0.0625,35.0,1,1.0,0.30860100000018065
384,23,0.5,1.0,-35.0,-1,1.0,0.28840100000024904
385,23,0.5,0.0,-35.0,-1,1.0,0.24220100000002276
386,23,0.5,0.125,-35.0,-1,1.0,0.2820010000000366
387,23,0.5,0.125,-35.0,-1,1.0,0.23220100000003185
388,23,0.5,0.0,35.0,-1,0.0,0.20210100000008424
389,23,0.5,0.125,35.0,1,1.0,0.28250100000013845
390,23,0.5,0.0,35.0,1,1.0,0.2923009999999522
391,23,0.5,0.25,35.0,1,1.0,0.33250100000009297
392,23,0.5,1.0,35.0,1,1.0,0.32260100000007697
393,23,0.5,0.0625,-35.0,-1,1.0,0.24610099999995327
394,23,0.5,0.125,-35.0,-1,1.0,0.462601000000177
395,23,0.5,0.125,35.0,-1,0.0,0.4129010000001472
396,23,0.5,0.0,35.0,-1,0.0,0.3795999999999822
397,23,0.4,0.0,-35.0,-1,1.0,0.5664000000001579
398,23,0.5,1.0,35.0,1,1.0,0.4228010000001632
399,23,0.5,1.0,35.0,1,1.0,0.1966010000001006
400,23,0.5,1.0,35.0,1,1.0,0.20300099999985832
401,23,0.5,0.0625,-35.0,1,0.0,0.2733009999999467
402,23,0.5,0.0625,35.0,-1,0.0,0.5532010000001719
403,23,0.4,0.0625,35.0,-1,0.0,0.14020099999993363
404,23,0.5,1.0,-35.0,-1,1.0,0.34350100000006023
405,23,0.5,0.125,-35.0,1,0.0,0.27030100000001767
406,23,0.5,0.0625,35.0,1,1.0,0.39049999999997453
407,23,0.5,0.0,35.0,1,1.0,0.21380099999987578
408,23,0.5,0.0,-35.0,1,0.0,0.31030100000020866
409,23,0.5,0.125,-35.0,-1,1.0,0.3706009999998514
410,23,0.5,0.25,35.0,1,1.0,0.2272010000001501
411,23,0.5,0.25,-35.0,1,0.0,0.10400100000038037
412,23,0.5,0.25,35.0,1,1.0,0.20070099999998092
413,23,0.5,0.125,-35.0,1,0.0,0.35080100000004677
414,23,0.8,0.125,-35.0,1,0.0,0.19390100000009625
415,23,0.5,1.0,-35.0,-1,1.0,0.4111000000002605
416,23,0.5,0.25,-35.0,-1,1.0,0.13110000000028776
417,23,0.5,0.125,-35.0,-1,1.0,0.20440099999996164
418,23,0.5,1.0,-35.0,-1,1.0,0.23450100000013663
419,23,0.5,0.0625,35.0,1,1.0,0.24450100000012753
420,23,0.5,0.0625,35.0,-1,0.0,0.7678009999999631
421,23,0.5,0.0625,35.0,1,1.0,0.22480100000007042
422,23,0.5,0.0625,35.0,1,1.0,0.3280010000000857
423,23,0.5,0.125,35.0,1,1.0,0.40160100000002785
424,23,0.5,0.125,-35.0,-1,1.0,0.30820100000028106
425,23,0.5,0.125,35.0,-1,0.0,0.18830100000013772
426,23,0.5,0.125,35.0,1,1.0,0.3317010000000664
427,23,0.5,0.25,-35.0,-1,1.0,0.3085009999999784
428,23,0.5,0.125,-35.0,-1,1.0,0.261801000000105
429,23,0.5,0.125,-35.0,-1,1.0,0.12200099999995473
430,23,0.5,0.0625,-35.0,-1,1.0,0.5887010000001283
431,23,0.5,0.125,35.0,-1,0.0,0.4954009999999016
432,23,0.5,0.0,35.0,-1,0.0,0.5188010000001668
433,23,0.5,0.125,35.0,-1,0.0,0.49240099999997256
434,23,0.5,0.0625,35.0,1,1.0,0.27240100000017264
435,23,0.5,0.0,-35.0,1,0.0,0.3093010000002323
436,23,0.5,0.125,35.0,1,1.0,0.2891010000003007
437,23,0.5,0.125,35.0,1,1.0,0.17930100000012317
438,23,0.5,0.25,-35.0,-1,1.0,0.2992010000002665
439,23,0.5,1.0,35.0,1,1.0,0.0960010000001148
440,23,0.5,0.125,35.0,1,1.0,0.29630100000008497
441,23,0.5,0.25,35.0,1,1.0,0.3095010000001821
442,23,0.5,0.125,-35.0,-1,1.0,0.34300100000018574
443,23,0.5,1.0,-35.0,1,0.0,0.24300100000004932
444,23,0.5,0.125,-35.0,-1,1.0,0.4434009999999944
445,23,0.5,0.0625,-35.0,1,0.0,0.21329999999989013
446,23,0.5,0.125,35.0,1,1.0,0.29340000000001965
447,23,0.5,0.25,-35.0,-1,1.0,0.3300010000000384
448,23,0.5,0.0625,35.0,1,1.0,0.22680099999979575
449,23,0.5,0.25,35.0,1,1.0,0.3268009999999322
450,23,0.5,0.25,35.0,1,1.0,0.30050100000016755
451,23,0.5,0.125,35.0,1,1.0,0.32360099999982594
452,23,0.5,0.125,-35.0,-1,1.0,0.8271010000000842
453,23,0.5,0.125,-35.0,-1,1.0,0.33060100000034254
454,23,0.5,0.0625,35.0,-1,0.0,0.25730099999987033
455,23,0.5,0.25,35.0,1,1.0,0.2506010000001879
456,23,0.5,1.0,35.0,1,1.0,0.45430000000010295
457,23,0.5,0.25,-35.0,-1,1.0,0.16410000000018954
458,23,0.5,0.25,-35.0,-1,1.0,0.2575010000000475
459,23,0.5,0.0625,35.0,-1,0.0,0.4410009999999147
460,23,0.5,0.0625,-35.0,-1,1.0,0.41120100000011917
461,23,0.5,0.0625,35.0,-1,0.0,0.15440100000000712
462,23,0.5,0.0,35.0,1,1.0,0.5946010000002389
463,23,0.5,0.125,35.0,1,1.0,0.22440099999994345
464,23,0.5,0.0625,35.0,1,1.0,0.25480100000004313
465,23,0.5,0.125,-35.0,-1,1.0,0.6348010000001523
466,23,0.5,0.125,35.0,-1,0.0,0.12860100000011698
467,23,0.5,0.125,-35.0,-1,1.0,0.7849010000002181
468,23,0.5,0.0,-35.0,1,0.0,5.005100000000311
469,23,0.5,0.125,35.0,1,1.0,0.1786010000000715
470,23,0.5,1.0,-35.0,-1,1.0,0.48200100000008206
471,23,0.5,0.0625,35.0,1,1.0,0.17520100000001548
472,23,0.5,0.125,35.0,1,1.0,0.3521010000001752
473,23,0.5,0.25,-35.0,-1,1.0,0.2755010000000766
474,23,0.5,0.125,-35.0,-1,1.0,0.9023010000000795
475,23,0.5,0.25,-35.0,-1,1.0,0.3255010000000311
476,23,0.5,0.25,35.0,1,1.0,0.23580100000003767
477,23,0.5,0.125,-35.0,-1,1.0,0.26910099999986414
478,23,0.5,0.125,35.0,1,1.0,0.24590100000000348
479,23,0.5,0.0625,35.0,1,1.0,0.4559009999998125
480,23,0.5,0.0,-35.0,1,0.0,0.34270100000026105
481,23,0.5,0.125,-35.0,-1,1.0,0.4329009999999016
482,23,0.5,0.25,-35.0,-1,1.0,0.3962010000000191
483,23,0.5,0.25,-35.0,-1,1.0,0.39940100000012535
484,23,0.5,1.0,-35.0,-1,1.0,0.5830010000001948
485,23,0.5,0.125,-35.0,-1,1.0,0.4565010000001166
486,23,0.5,1.0,-35.0,-1,1.0,0.3966010000001461
487,23,0.5,0.0625,35.0,1,1.0,0.7031010000000606
488,23,0.5,0.125,-35.0,-1,1.0,0.30989999999997053
489,23,0.5,0.25,35.0,1,1.0,0.31660100000021885
490,23,0.5,0.125,35.0,1,1.0,0.273401000000149
491,23,0.5,1.0,-35.0,-1,1.0,0.4333010000000286
492,23,0.5,0.0625,-35.0,-1,1.0,0.5902000000000953
493,23,0.5,0.0,-35.0,1,0.0,0.5803009999999631
494,23,0.4,0.0,35.0,1,1.0,0.7537009999998645
495,23,0.5,1.0,-35.0,-1,1.0,0.32050100000014936
496,23,0.5,1.0,35.0,1,1.0,0.30710100000010243
497,23,0.5,0.25,35.0,1,1.0,0.28410100000019156
498,23,0.5,0.0625,-35.0,-1,1.0,0.1606010000000424
499,23,0.5,0.125,35.0,1,1.0,0.15060100000027887
500,23,0.5,0.0625,35.0,1,1.0,0.6110010000002148
501,23,0.5,0.0,-35.0,-1,1.0,0.2411010000000715
502,23,0.5,0.125,35.0,1,1.0,0.5442010000001574
503,23,0.5,1.0,-35.0,-1,1.0,0.5976010000001679
504,23,0.5,0.125,35.0,1,1.0,0.2977009999999609
505,23,0.5,0.0625,35.0,1,1.0,0.27450100000010025
506,23,0.5,1.0,35.0,1,1.0,0.21810099999993326
507,23,0.5,0.25,-35.0,-1,1.0,0.2979009999999107
508,23,0.5,0.0,-35.0,-1,1.0,0.22470100000009552
509,23,0.5,0.0,35.0,1,1.0,0.29820100000029015
510,23,0.5,1.0,35.0,1,1.0,0.21150099999999838
511,23,0.5,0.25,35.0,1,1.0,0.5419010000000526
512,23,0.5,0.25,35.0,-1,0.0,0.14510100000006787
513,23,0.5,0.125,35.0,1,1.0,0.3751009999998587
514,23,0.5,0.25,-35.0,-1,1.0,0.3685010000001512
515,23,0.5,0.25,35.0,1,1.0,0.38520100000027924
516,23,0.5,0.125,35.0,1,1.0,0.2253009999999449
517,23,0.5,0.0625,-35.0,1,0.0,0.12870100000009188
518,23,0.5,0.25,-35.0,-1,1.0,0.42550100000016755
519,23,0.5,0.0,35.0,-1,0.0,0.14560099999994236
520,23,0.5,0.25,-35.0,-1,1.0,0.325601000000006
521,23,0.5,0.0,35.0,-1,0.0,3.4756009999996422
522,23,0.5,0.0625,35.0,1,1.0,3.7224009999999907
523,23,0.5,1.0,-35.0,-1,1.0,0.385899999999765
524,23,0.5,0.25,35.0,1,1.0,0.1693009999999049
525,23,0.5,0.0625,35.0,1,1.0,0.17610100000001694
526,23,0.5,0.25,-35.0,-1,1.0,0.3795009999994363
527,23,0.5,1.0,35.0,1,1.0,0.2697010000001683
528,23,0.5,1.0,35.0,1,1.0,0.2196009999997841
529,23,0.5,0.0625,-35.0,-1,1.0,0.41300099999943995
530,23,0.5,0.0625,-35.0,1,0.0,0.4297999999998865
531,23,0.6,0.0625,35.0,1,1.0,0.3166009999999915
532,23,0.5,1.0,-35.0,-1,1.0,0.30660100000022794
533,23,0.5,1.0,35.0,1,1.0,0.27990099999942686
534,23,0.5,0.25,35.0,1,1.0,0.22340100000019447
535,23,0.5,0.0,-35.0,-1,1.0,0.1533009999998285
536,23,0.5,0.0625,35.0,1,1.0,0.1669010000000526
537,23,0.5,0.25,-35.0,-1,1.0,0.6534999999998945
538,23,0.5,1.0,35.0,1,1.0,0.38030099999969025
539,23,0.5,0.0625,35.0,1,1.0,0.3006009999999151
540,23,0.5,0.0,-35.0,1,0.0,0.280500999999731
541,23,0.7,0.0,-35.0,1,0.0,2.980800999999701
542,23,0.5,1.0,-35.0,1,0.0,0.17400099999986196
543,23,0.8,1.0,-35.0,-1,1.0,0.48730099999966114
544,23,0.5,1.0,-35.0,-1,1.0,0.2575010000000475
545,23,0.5,1.0,-35.0,-1,1.0,0.3074010000000271
546,23,0.5,0.125,35.0,1,1.0,0.2310010000001057
547,23,0.5,0.125,35.0,-1,0.0,0.4510009999999056
548,23,0.6,0.125,-35.0,-1,1.0,0.26779999999962456
549,23,0.5,1.0,35.0,1,1.0,0.10449999999991633
550,23,0.5,0.25,-35.0,-1,1.0,0.5746009999998023
551,23,0.5,1.0,35.0,1,1.0,0.24790100000018356
552,23,0.5,0.25,35.0,1,1.0,0.3381010000002789
553,23,0.5,0.25,35.0,1,1.0,0.33800099999962185
554,23,0.5,0.125,35.0,1,1.0,0.18820099999993545
555,23,0.5,1.0,35.0,-1,0.0,0.1650009999998474
556,23,0.5,0.0,35.0,1,1.0,5.898599999999533
557,23,0.5,0.125,35.0,1,1.0,0.37199999999984357
558,23,0.5,0.0625,35.0,1,1.0,0.4353009999999813
559,23,0.5,0.0625,-35.0,-1,1.0,0.49850100000003295
560,23,0.5,0.25,35.0,-1,0.0,0.30220099999951344
561,23,0.5,0.25,35.0,1,1.0,0.32210099999974773
562,23,0.5,1.0,-35.0,1,0.0,0.2424009999995178
563,23,0.7,1.0,-35.0,-1,1.0,0.31240100000013626
564,23,0.5,1.0,-35.0,-1,1.0,0.38580099999990125
565,23,0.5,0.25,-35.0,-1,1.0,0.3425010000000839
566,23,0.5,1.0,-35.0,-1,1.0,0.30920100000003004
567,23,0.5,0.25,35.0,1,1.0,0.2891999999997097
568,23,0.5,0.0625,35.0,-1,0.0,0.20280099999990853
569,23,0.5,0.125,35.0,1,1.0,0.3193009999995411
570,23,0.5,0.0,-35.0,-1,1.0,1.1328009999997448
571,23,0.5,1.0,-35.0,-1,1.0,0.3764009999999871
572,23,0.5,0.25,-35.0,-1,1.0,0.31300099999998565
573,23,0.5,1.0,35.0,1,1.0,0.1795999999999367
574,23,0.5,0.125,-35.0,-1,1.0,0.34639999999990323
575,23,0.5,0.125,35.0,1,1.0,0.24670100000003004
576,23,0.5,1.0,-35.0,-1,1.0,0.37330000000019936
577,23,0.5,0.125,-35.0,-1,1.0,0.33330100000011953
578,23,0.5,1.0,35.0,1,1.0,0.3434009999996306
579,23,0.5,1.0,35.0,1,1.0,0.2901010000000497
580,23,0.5,0.125,-35.0,-1,1.0,0.37350100000003295
581,23,0.5,0.125,-35.0,-1,1.0,0.6705009999996037
582,23,0.5,0.25,35.0,1,1.0,0.4837009999996553
583,23,0.5,0.125,-35.0,-1,1.0,0.8770009999998365
584,23,0.5,1.0,35.0,1,1.0,0.2739000000001397
585,23,0.5,0.0625,-35.0,-1,1.0,4.187100999999984
586,23,0.5,0.25,-35.0,-1,1.0,0.7308009999997012
587,23,0.5,0.0625,35.0,1,1.0,1.3008009999998649
588,23,0.5,0.0625,35.0,1,1.0,0.31409999999959837
589,23,0.5,0.125,35.0,-1,0.0,0.1275009999994836
590,23,0.5,0.0625,-35.0,-1,1.0,0.49760099999957674
591,23,0.5,0.0,-35.0,1,0.0,0.41780100000005405
592,23,0.5,0.125,-35.0,-1,1.0,0.3244009999998525
593,23,0.5,0.0,35.0,1,1.0,1.1079009999998561
594,23,0.5,0.0,-35.0,-1,1.0,0.8314009999994596
595,23,0.5,0.25,-35.0,-1,1.0,0.13460099999974773
596,23,0.5,0.25,-35.0,-1,1.0,0.5847009999997681
597,23,0.5,1.0,35.0,1,1.0,0.31490100000019083
598,23,0.5,0.25,-35.0,-1,1.0,0.5480999999999767
599,23,0.5,0.0,-35.0,-1,1.0,0.7980999999999767
600,23,0.5,0.25,-35.0,-1,1.0,0.43160100000022794
601,23,0.5,0.25,-35.0,-1,1.0,0.41170099999999366
602,23,0.5,1.0,-35.0,-1,1.0,0.24190099999941594
603,23,0.5,1.0,35.0,1,1.0,0.3688009999996211
604,23,0.5,0.0625,35.0,1,1.0,0.2352009999999609
605,23,0.5,0.125,35.0,1,1.0,0.5953010000002905
606,23,0.5,0.0625,35.0,1,1.0,0.22220100000004095
607,23,0.5,0.25,-35.0,-1,1.0,0.14880099999982122
608,23,0.5,0.25,35.0,-1,0.0,0.2889009999994414
609,23,0.5,0.125,35.0,1,1.0,0.7056009999996604
610,23,0.5,0.0,35.0,-1,0.0,0.6557020000000193
611,23,0.5,0.0,-35.0,1,0.0,0.32930199999964316
612,23,0.5,1.0,35.0,1,1.0,0.299101999999948
613,23,0.5,0.25,-35.0,-1,1.0,0.38250199999947654
614,23,0.5,0.125,35.0,1,1.0,0.47920199999953184
615,23,0.5,1.0,-35.0,-1,1.0,0.23270200000024488
616,23,0.5,0.125,-35.0,-1,1.0,0.4395019999997203
617,23,0.5,1.0,35.0,-1,0.0,0.2497019999996155
618,23,0.4,1.0,35.0,1,1.0,0.2896009999999478
619,23,0.5,1.0,35.0,1,1.0,0.2897020000000339
620,23,0.5,0.125,35.0,1,1.0,0.32300199999963297
621,23,0.5,0.0,-35.0,-1,1.0,0.1231019999995624
622,23,0.5,0.0,35.0,1,1.0,0.32990199999949255
623,23,0.5,0.0625,35.0,-1,0.0,0.13660099999970043
624,23,0.5,0.0625,-35.0,1,0.0,0.4601019999995515
625,23,0.5,1.0,35.0,1,1.0,0.3701019999998607
626,23,0.5,0.0,35.0,-1,0.0,5.1036019999996824
627,23,0.5,0.0625,35.0,1,1.0,0.14720200000010664
628,23,0.5,0.0,35.0,1,1.0,0.547001999999793
629,23,0.5,0.0,35.0,1,1.0,0.3405019999995602
630,23,0.5,1.0,-35.0,-1,1.0,0.2773010000000795
631,23,0.5,0.0,-35.0,1,0.0,0.3173019999999269
632,23,0.5,0.25,35.0,1,1.0,0.3441020000000208
633,23,0.5,0.0,-35.0,1,0.0,7.500801999999567
634,23,0.5,0.0,-35.0,1,0.0,0.5976020000002791
635,23,0.5,0.25,-35.0,-1,1.0,0.3677020000000084
636,23,0.5,0.25,35.0,1,1.0,0.20790099999931044
637,23,0.5,1.0,35.0,1,1.0,0.2413019999999051
638,23,0.5,0.0,-35.0,1,0.0,0.291302000000087
639,23,0.5,0.25,-35.0,-1,1.0,0.24810100000013335
640,23,0.5,0.0,35.0,1,1.0,0.3383009999997739
641,23,0.5,0.0,35.0,1,1.0,0.2982019999994918
642,23,0.5,0.125,35.0,1,1.0,0.4148019999997814
643,23,0.5,0.0625,-35.0,1,0.0,0.32170099999984814
644,23,0.5,0.125,-35.0,-1,1.0,0.3751009999996313
645,23,0.5,1.0,35.0,1,1.0,0.2620019999994838
646,23,0.5,0.25,-35.0,-1,1.0,0.402002000000266
647,23,0.5,1.0,-35.0,-1,1.0,0.1620020000000295
648,23,0.5,0.0,35.0,-1,0.0,0.3185019999996257
649,23,0.5,0.0625,-35.0,1,0.0,0.28200199999992037
650,23,0.5,0.25,-35.0,-1,1.0,0.30890199999976176
651,23,0.5,0.0625,-35.0,-1,1.0,0.33890199999996184
652,23,0.5,1.0,-35.0,-1,1.0,0.28230200000007244
653,23,0.5,0.0625,-35.0,-1,1.0,1.0890020000001641
654,23,0.5,0.125,35.0,1,1.0,0.2526020000000244
655,23,0.5,0.0625,-35.0,-1,1.0,0.25590099999953964
656,23,0.5,0.0,35.0,1,1.0,0.1427019999996446
657,23,0.5,0.0,35.0,1,1.0,0.15920199999982287
658,23,0.5,0.0625,35.0,-1,0.0,1.116001999999753
659,23,0.5,0.25,35.0,1,1.0,0.28940199999942706
660,23,0.5,0.0625,-35.0,-1,1.0,0.4795019999996839
661,23,0.5,0.25,-35.0,-1,1.0,0.3596009999996568
662,23,0.5,0.125,35.0,1,1.0,0.36970199999950637
663,23,0.5,1.0,-35.0,-1,1.0,0.32310199999983524
664,23,0.5,0.0625,-35.0,-1,1.0,0.4364019999998163
665,23,0.5,0.125,-35.0,-1,1.0,0.6801019999998061
666,23,0.5,0.25,35.0,1,1.0,0.2734019999998054
667,23,0.5,1.0,-35.0,-1,1.0,0.29000200000018594
668,23,0.5,0.0625,-35.0,-1,1.0,0.47020199999997203
669,23,0.5,0.0625,-35.0,-1,1.0,0.22040199999992183
670,23,0.5,0.0625,35.0,1,1.0,0.6536019999998643
671,23,0.5,1.0,-35.0,-1,1.0,0.30030200000010154
672,23,0.5,0.0625,-35.0,-1,1.0,0.2870020000000295
673,23,0.5,0.25,35.0,1,1.0,0.4539020000001983
674,23,0.5,0.0625,35.0,1,1.0,0.4372019999996155
675,23,0.5,0.0,35.0,-1,0.0,0.8173019999999269
676,23,0.5,0.0625,35.0,-1,0.0,0.6907019999998738
677,23,0.5,0.0,35.0,1,1.0,3.6508020000001125
678,23,0.5,0.125,-35.0,-1,1.0,0.37420199999951365
679,23,0.5,0.0,35.0,-1,0.0,0.7643019999995886
680,23,0.5,0.0,35.0,1,1.0,2.861301999999796
681,23,0.5,0.0625,-35.0,-1,1.0,0.13130199999977776
682,23,0.5,0.0625,35.0,1,1.0,0.7179019999998673
683,23,0.5,0.0625,-35.0,-1,1.0,0.21810199999981705
684,23,0.5,1.0,-35.0,-1,1.0,0.4648019999999633
685,23,0.5,0.125,-35.0,-1,1.0,0.511602000000039
686,23,0.5,0.125,35.0,1,1.0,0.3649020000002565
687,23,0.5,0.25,-35.0,-1,1.0,0.28510199999982433
688,23,0.5,0.125,-35.0,-1,1.0,0.7053019999998469
689,23,0.5,1.0,35.0,1,1.0,0.3719019999998636
690,23,0.5,0.125,35.0,-1,0.0,0.6019019999998818
691,23,0.5,0.0625,35.0,-1,0.0,0.5687020000000302
692,23,0.5,0.25,-35.0,-1,1.0,0.47210199999972247
693,23,0.5,0.125,35.0,1,1.0,0.49220199999990655
694,23,0.5,0.0,35.0,-1,0.0,0.9089019999996708
695,23,0.5,0.125,-35.0,-1,1.0,0.32900199999994584
696,23,0.5,0.0625,-35.0,-1,1.0,1.1556009999999333
697,23,0.5,0.125,-35.0,-1,1.0,0.3625019999999495
698,23,0.5,0.125,-35.0,-1,1.0,0.4625019999998585
699,23,0.5,0.25,35.0,1,1.0,0.7827019999995173
700,23,0.5,0.25,-35.0,-1,1.0,0.7528019999999742
701,23,0.5,0.0,35.0,1,1.0,0.38940099999990707
702,23,0.5,0.25,35.0,1,1.0,0.30620099999941885
703,23,0.5,0.125,35.0,1,1.0,0.44300199999952383
704,23,0.5,0.0625,35.0,1,1.0,0.3197019999997792
705,23,0.5,1.0,35.0,1,1.0,0.9698020000000724
706,23,0.5,0.0625,35.0,-1,0.0,2.503401999999369
707,23,0.6,0.0625,35.0,-1,0.0,0.6900009999999384
708,23,0.5,1.0,-35.0,-1,1.0,0.37010200000031546
709,23,0.5,0.25,-35.0,-1,1.0,0.28680199999962497
710,23,0.5,0.125,35.0,-1,0.0,0.16050200000017867
711,23,0.5,0.25,35.0,1,1.0,0.3337019999999029
712,23,0.5,0.0625,35.0,1,1.0,0.613702000000103
713,23,0.5,0.25,-35.0,-1,1.0,0.2671019999993405
714,23,0.5,0.25,-35.0,-1,1.0,0.1104019999997945
715,23,0.5,0.125,-35.0,1,0.0,1.0505020000000513
716,23,0.5,0.125,35.0,1,1.0,0.5441009999995003
717,23,0.5,1.0,-35.0,-1,1.0,0.3276019999998425
718,23,0.5,1.0,-35.0,-1,1.0,0.37430200000017066
719,23,0.5,1.0,-35.0,-1,1.0,0.3843019999999342
720,23,0.5,0.0625,35.0,1,1.0,0.32110199999988254
721,23,0.5,1.0,-35.0,-1,1.0,0.34110199999986435
722,23,0.5,0.25,35.0,1,1.0,0.3411020000003191
723,23,0.5,0.25,-35.0,-1,1.0,0.2712019999999029
724,23,0.5,0.0625,35.0,1,1.0,0.3545019999996839
725,23,0.5,0.0625,-35.0,-1,1.0,0.37120199999981196
726,23,0.5,0.0625,35.0,1,1.0,0.7146020000000135
727,23,0.5,0.0625,-35.0,-1,1.0,0.48150200000009136
728,23,0.5,0.0625,35.0,-1,0.0,0.17820199999960096
729,23,0.5,0.125,35.0,1,1.0,4.5182019999997465
730,23,0.5,0.0,35.0,-1,0.0,0.5684019999998782
731,23,0.5,0.25,35.0,1,1.0,0.3985020000000077
732,23,0.5,0.0625,-35.0,-1,1.0,0.31860199999982797
733,23,0.5,0.0,35.0,1,1.0,0.6222020000000157
734,23,0.5,0.25,-35.0,-1,1.0,0.572001999999884
735,23,0.5,0.0625,35.0,1,1.0,0.43580100000008315
736,23,0.5,0.125,-35.0,-1,1.0,0.7723019999998542
737,23,0.5,0.0,-35.0,1,0.0,2.8722020000000157
738,23,0.5,0.0625,35.0,-1,0.0,0.48240199999963806
739,23,0.5,0.0625,35.0,1,1.0,0.6891019999998207
740,23,0.5,0.0625,-35.0,-1,1.0,0.8925019999996948
741,23,0.5,0.125,35.0,1,1.0,0.4926019999993514
742,23,0.5,0.25,35.0,1,1.0,0.5059019999994234
743,23,0.5,1.0,35.0,1,1.0,0.43610199999966426
744,23,0.5,0.0,-35.0,1,0.0,6.552901999999904
745,23,0.5,0.0,-35.0,-1,1.0,0.5663019999997232
746,23,0.5,0.0625,-35.0,-1,1.0,0.48320199999943725
747,23,0.5,0.0625,-35.0,-1,1.0,1.0032019999998738
748,23,0.5,0.25,35.0,1,1.0,0.9333019999999124
749,23,0.5,0.0,35.0,1,1.0,2.293301999999585
750,23,0.5,0.125,-35.0,-1,1.0,0.3701019999998607
751,23,0.5,0.125,-35.0,-1,1.0,0.7702019999996992
752,23,0.5,0.0625,35.0,-1,0.0,0.39680200000020704
753,23,0.5,0.125,-35.0,-1,1.0,0.43020199999955366
754,23,0.5,0.0625,-35.0,-1,1.0,0.2737019999999575
755,23,0.5,0.25,35.0,1,1.0,0.45040199999948527
756,23,0.5,0.0625,-35.0,-1,1.0,0.5006020000000717
757,23,0.5,1.0,-35.0,-1,1.0,0.28720199999952456
758,23,0.5,0.125,35.0,1,1.0,0.507401999999729
759,23,0.5,0.25,35.0,1,1.0,0.30410200000005716
760,23,0.5,0.125,-35.0,-1,1.0,0.7009020000000419
761,23,0.5,1.0,-35.0,-1,1.0,0.40410199999951146
762,23,0.5,0.0625,-35.0,-1,1.0,0.4942019999994045
763,23,0.5,0.0625,35.0,1,1.0,0.28110199999946417
764,23,0.5,0.0625,35.0,1,1.0,1.6178020000002107
765,23,0.5,0.0625,-35.0,1,0.0,2.221100999999635
766,23,0.5,0.125,-35.0,-1,1.0,1.8614019999999982
767,23,0.5,1.0,35.0,1,1.0,0.44140199999992547
768,23,0.5,0.0,35.0,1,1.0,0.5546019999997043
769,23,0.5,0.125,-35.0,-1,1.0,0.4682020000000193
770,23,0.5,0.25,35.0,1,1.0,0.5616019999997661
771,23,0.5,0.0625,-35.0,1,0.0,3.278502000000117
772,23,0.5,0.0625,35.0,1,1.0,0.6752019999998993
773,23,0.5,0.125,-35.0,-1,1.0,3.4351019999999153
774,23,0.5,0.0625,35.0,-1,0.0,1.7886019999996279
775,23,0.6,0.0625,35.0,1,1.0,0.7654019999999946
776,23,0.5,1.0,-35.0,-1,1.0,0.3689019999997072
777,23,0.5,0.25,-35.0,-1,1.0,0.38560199999983524
778,23,0.5,0.0625,35.0,-1,0.0,0.7489019999998163
779,23,0.5,0.0625,-35.0,-1,1.0,0.5657019999998738
780,23,0.5,0.25,35.0,1,1.0,0.37910199999987526
781,23,0.5,0.25,-35.0,-1,1.0,0.38930100000015955
782,23,0.5,1.0,-35.0,-1,1.0,0.29590099999950326
783,23,0.5,0.0625,35.0,-1,0.0,1.0626019999999698
784,23,0.2,0.0625,35.0,1,1.0,2.1361019999994824
785,23,0.5,1.0,-35.0,-1,1.0,0.26300199999968754
786,23,0.5,1.0,35.0,1,1.0,0.26970200000005207
787,23,0.5,1.0,35.0,1,1.0,0.423001999999542
788,23,0.5,0.125,35.0,1,1.0,0.419702000000143
789,23,0.5,0.125,-35.0,-1,1.0,0.20970200000010664
790,23,0.5,1.0,-35.0,1,0.0,0.9532020000001467
791,23,0.5,0.0625,35.0,1,1.0,0.3266019999996388
792,23,0.5,0.25,35.0,1,1.0,0.303501999999753
793,23,0.5,0.0625,-35.0,1,0.0,0.5104019999998854
794,23,0.5,0.25,-35.0,-1,1.0,0.3335019999999531
795,23,0.5,0.25,35.0,1,1.0,0.5169019999998454
796,23,0.5,0.0625,-35.0,-1,1.0,3.1102019999998447
797,23,0.5,0.25,-35.0,-1,1.0,3.0172019999999975
798,23,0.5,0.25,35.0,1,1.0,0.5471019999999953
799,23,0.5,0.125,-35.0,-1,1.0,3.093901000000187
800,23,0.5,0.0,-35.0,-1,1.0,0.39730199999985416
801,23,0.5,0.125,-35.0,-1,1.0,0.39090200000009645
802,23,0.5,0.25,-35.0,-1,1.0,0.42750200000000405
803,23,0.5,0.125,-35.0,-1,1.0,0.4342019999999138
804,23,0.5,1.0,-35.0,-1,1.0,0.3509019999996781
805,23,0.5,0.0625,-35.0,-1,1.0,4.484501999999793
806,23,0.5,1.0,35.0,1,1.0,0.5711020000003373
807,23,0.5,0.25,-35.0,-1,1.0,1.9779020000000855
808,23,0.5,1.0,35.0,1,1.0,0.794702000000143
809,23,0.5,0.0625,35.0,1,1.0,3.298201999999492
810,23,0.5,0.0625,-35.0,-1,1.0,1.2448010000002796
811,23,0.5,1.0,35.0,1,1.0,0.29490199999963806
812,23,0.5,0.25,35.0,1,1.0,0.3517010000000482
813,23,0.5,0.0625,35.0,1,1.0,3.448500999999851
814,23,0.5,0.0625,35.0,1,1.0,2.848602000000028
815,23,0.5,0.25,-35.0,-1,1.0,0.5486020000003009
816,23,0.5,0.25,-35.0,-1,1.0,0.37200099999972736
817,23,0.5,0.0625,-35.0,-1,1.0,2.365501999999651
818,23,0.5,0.125,35.0,1,1.0,0.41560200000003533
819,23,0.5,1.0,35.0,1,1.0,0.2956019999996897
820,23,0.5,0.125,-35.0,-1,1.0,0.5758019999998396
821,23,0.5,1.0,-35.0,-1,1.0,0.4125019999996766
822,23,0.5,1.0,-35.0,-1,1.0,0.4259019999994962
823,23,0.5,0.0,35.0,1,1.0,24.439201999999568
824,23,0.5,1.0,35.0,1,1.0,0.6197019999999611
825,23,0.5,0.25,-35.0,-1,1.0,0.7065019999995457
826,23,0.5,1.0,35.0,1,1.0,1.1433019999999487
827,23,0.5,0.25,-35.0,-1,1.0,0.3534019999992779
828,23,0.5,0.125,-35.0,-1,1.0,1.1034019999997327
829,23,0.5,0.125,-35.0,-1,1.0,0.6702009999999063
830,23,0.5,1.0,-35.0,-1,1.0,0.37690199999997276
831,23,0.5,0.125,-35.0,-1,1.0,3.7703019999999015
832,23,0.5,0.125,35.0,-1,0.0,16.86380100000042
833,23,0.5,0.25,35.0,1,1.0,0.2775019999999131
834,23,0.5,0.0625,35.0,-1,0.0,16.914201999999477
835,23,0.2,0.0625,-35.0,-1,1.0,1.6213010000001304
836,23,0.5,1.0,35.0,1,1.0,6.208300999999665
837,23,0.5,0.125,-35.0,-1,1.0,9.854902000000038
838,23,0.5,0.25,35.0,1,1.0,14.478402000000187
839,23,0.5,0.0625,35.0,1,1.0,42.20550199999934
840,23,0.5,0.0,-35.0,-1,1.0,37.603102000000035
841,23,0.5,0.125,-35.0,1,0.0,0.1972019999998338
842,23,0.5,0.0625,-35.0,-1,1.0,0.33380199999965043
843,23,0.5,0.25,35.0,1,1.0,3.1739019999995435
844,23,0.5,0.125,-35.0,-1,1.0,1.6043009999998503
845,23,0.5,0.125,-35.0,-1,1.0,3.807702000000063
1,24,0.5,0.0,35.0,1,1.0,1.4692999999999998
2,24,0.5,0.25,35.0,1,1.0,0.1977000000000011
3,24,0.5,1.0,-35.0,-1,1.0,0.43239999999999945
4,24,0.5,0.0625,35.0,1,1.0,0.2187999999999981
5,24,0.5,0.125,35.0,1,1.0,0.42139999999999844
6,24,0.5,1.0,35.0,1,1.0,0.22129999999999939
7,24,0.5,0.0625,35.0,1,1.0,0.684899999999999
8,24,0.5,0.125,35.0,1,1.0,0.19129999999999825
9,24,0.5,0.0625,-35.0,1,0.0,2.6691000000000003
10,24,0.5,0.25,-35.0,-1,1.0,0.5225999999999971
11,24,0.5,0.0625,-35.0,1,0.0,0.3854000000000042
12,24,0.5,0.25,35.0,1,1.0,0.2682000000000002
13,24,0.5,1.0,35.0,1,1.0,0.20880000000000365
14,24,0.5,0.125,35.0,1,1.0,0.19309999999999405
15,24,0.5,0.125,35.0,1,1.0,0.21310000000000429
16,24,0.5,0.25,-35.0,-1,1.0,0.5781000000000063
17,24,0.5,0.125,35.0,1,1.0,0.1021999999999963
18,24,0.5,0.0625,-35.0,1,0.0,0.5645000000000095
19,24,0.5,0.0,-35.0,1,0.0,0.290198999999987
20,24,0.5,0.25,35.0,1,1.0,0.2716999999999956
21,24,0.5,1.0,-35.0,-1,1.0,0.4748000000000019
22,24,0.5,0.0625,-35.0,1,0.0,2.179700000000011
23,24,0.5,0.0,-35.0,1,0.0,0.3108000000000004
24,24,0.5,0.125,-35.0,-1,1.0,0.29420000000000357
25,24,0.5,0.125,35.0,-1,0.0,0.3411000000000115
26,24,0.5,0.125,35.0,1,1.0,0.23740000000000805
27,24,0.5,0.0,-35.0,1,0.0,0.17070000000001073
28,24,0.5,0.125,35.0,1,1.0,0.6584000000000003
29,24,0.5,1.0,-35.0,-1,1.0,0.3089000000000084
30,24,0.5,0.0,35.0,1,1.0,0.227800000000002
31,24,0.5,0.125,-35.0,-1,1.0,0.2511999999999972
32,24,0.5,1.0,35.0,1,1.0,0.2318000000000069
33,24,0.5,0.125,-35.0,-1,1.0,0.21170000000000755
34,24,0.5,0.0,35.0,1,1.0,0.26890000000003056
35,24,0.5,0.0625,-35.0,1,0.0,0.13119999999997844
36,24,0.5,0.25,-35.0,-1,1.0,0.45249999999998636
37,24,0.5,1.0,-35.0,-1,1.0,0.19029999999997926
38,24,0.5,0.125,35.0,1,1.0,0.2617999999999938
39,24,0.5,0.0,-35.0,-1,1.0,0.2726000000000113
40,24,0.5,1.0,35.0,-1,0.0,1.319500000000005
41,24,0.5,0.0625,35.0,1,1.0,0.38630000000000564
42,24,0.5,0.25,-35.0,1,0.0,0.4586999999999932
43,24,0.5,0.0625,-35.0,1,0.0,0.21469999999999345
44,24,0.5,0.25,-35.0,-1,1.0,0.4275000000000091
45,24,0.5,0.0,-35.0,1,0.0,0.24229999999997176
46,24,0.5,0.0,35.0,-1,0.0,0.42259999999998854
47,24,0.5,0.125,35.0,1,1.0,0.28589999999999804
48,24,0.5,0.25,-35.0,-1,1.0,0.3442999999999756
49,24,0.5,0.0625,-35.0,1,0.0,0.21289999999999054
50,24,0.5,0.25,35.0,1,1.0,0.21410000000000196
51,24,0.5,1.0,35.0,1,1.0,0.1821000000000197
52,24,0.5,0.25,-35.0,-1,1.0,0.2242989999999736
53,24,0.5,0.25,35.0,1,1.0,0.34190000000000964
54,24,0.5,1.0,-35.0,-1,1.0,0.2265000000000157
55,24,0.5,1.0,-35.0,-1,1.0,0.2904000000000053
56,24,0.5,0.125,-35.0,-1,1.0,0.35120000000000573
57,24,0.5,0.125,35.0,1,1.0,0.3901000000000181
58,24,0.5,0.0625,35.0,1,1.0,0.5058999999999969
59,24,0.5,0.0625,35.0,1,1.0,0.8064999999999998
60,24,0.5,0.0,-35.0,1,0.0,0.3301000000000158
61,24,0.5,0.0,35.0,1,1.0,0.12989999999999213
62,24,0.5,0.125,35.0,1,1.0,0.5618999999999801
63,24,0.5,1.0,35.0,1,1.0,0.2335999999999956
64,24,0.5,1.0,-35.0,-1,1.0,0.27710000000001855
65,24,0.5,0.25,35.0,1,1.0,0.22539999999992233
66,24,0.5,1.0,-35.0,1,0.0,0.1624999999999659
67,24,0.5,0.25,-35.0,-1,1.0,0.31490000000002283
68,24,0.5,0.25,-35.0,1,0.0,0.3716999999999757
69,24,0.5,0.125,35.0,1,1.0,0.3039999999999736
70,24,0.5,0.25,35.0,1,1.0,0.2307999999999879
71,24,0.5,0.0625,-35.0,1,0.0,0.31249999999994316
72,24,0.5,0.125,-35.0,-1,1.0,0.3062999999999647
73,24,0.5,0.125,-35.0,-1,1.0,0.2604999999999791
74,24,0.5,0.0625,35.0,1,1.0,0.30979999999999563
75,24,0.5,0.25,35.0,1,1.0,0.18629999999996016
76,24,0.5,0.25,-35.0,-1,1.0,0.18149999999997135
77,24,0.5,1.0,-35.0,-1,1.0,0.26019900000000007
78,24,0.5,0.0,35.0,-1,0.0,1.3514999999999873
79,24,0.5,0.25,-35.0,-1,1.0,0.6873999999999683
80,24,0.5,0.0625,35.0,1,1.0,0.263499999999965
81,24,0.5,0.125,-35.0,-1,1.0,0.6436999999999671
82,24,0.5,0.0,-35.0,1,0.0,0.14979999999997062
83,24,0.5,0.125,35.0,1,1.0,0.2838999999999601
84,24,0.5,0.0,35.0,-1,0.0,0.30949999999995725
85,24,0.5,0.125,-35.0,-1,1.0,0.5045000000000073
86,24,0.5,0.125,-35.0,-1,1.0,0.3582999999999288
87,24,0.5,0.25,-35.0,-1,1.0,0.4631999999999721
88,24,0.5,0.125,35.0,1,1.0,0.23899999999991905
89,24,0.5,0.25,35.0,-1,0.0,0.25409999999993715
90,24,0.4,0.25,-35.0,-1,1.0,0.3891999999999598
91,24,0.5,1.0,-35.0,-1,1.0,0.27609999999998536
92,24,0.5,1.0,35.0,1,1.0,0.376199999999983
93,24,0.5,0.125,-35.0,-1,1.0,0.3062999999999647
94,24,0.5,0.25,-35.0,-1,1.0,0.3254000000000019
95,24,0.5,0.0625,-35.0,-1,1.0,0.20209999999997308
96,24,0.5,0.0625,35.0,1,1.0,0.13539999999994734
97,24,0.5,0.125,-35.0,1,0.0,0.2377999999999929
98,24,0.5,0.0,-35.0,-1,1.0,0.16699999999991633
99,24,0.5,0.25,-35.0,-1,1.0,0.16190000000000282
100,24,0.5,0.125,35.0,-1,0.0,0.428498999999988
101,24,0.5,0.125,-35.0,-1,1.0,0.3026999999999589
102,24,0.5,0.0,-35.0,1,0.0,0.2606989999999314
103,24,0.3,0.0,35.0,1,1.0,0.19189999999997553
104,24,0.5,1.0,35.0,1,1.0,0.6671000000000049
105,24,0.5,1.0,-35.0,1,0.0,2.064399999999978
106,24,0.6,1.0,35.0,1,1.0,0.6128999999999678
107,24,0.5,1.0,-35.0,-1,1.0,0.42859999999996035
108,24,0.5,1.0,35.0,1,1.0,0.3632999999999811
109,24,0.5,0.25,-35.0,1,0.0,0.21939999999995052
110,24,0.5,0.125,-35.0,-1,1.0,0.5631989999999973
111,24,0.5,0.0,35.0,1,1.0,0.18319999999999936
112,24,0.5,0.0,-35.0,1,0.0,0.31759999999997035
113,24,0.5,0.25,35.0,1,1.0,0.2645999999999731
114,24,0.5,0.125,35.0,1,1.0,0.18709999999998672
115,24,0.5,0.25,-35.0,-1,1.0,0.34099999999995134
116,24,0.5,1.0,-35.0,-1,1.0,0.38369999999997617
117,24,0.5,0.125,-35.0,1,0.0,0.17619999999993752
118,24,0.5,0.25,-35.0,-1,1.0,0.38220000000001164
119,24,0.5,1.0,-35.0,-1,1.0,0.33449999999999136
120,24,0.5,1.0,35.0,1,1.0,0.6313999999999282
121,24,0.5,0.125,-35.0,-1,1.0,0.2909999999999968
122,24,0.5,0.25,-35.0,-1,1.0,0.26429999999999154
123,24,0.5,1.0,-35.0,-1,1.0,0.2601999999999407
124,24,0.5,0.125,-35.0,-1,1.0,0.2821999999999889
125,24,0.5,0.0625,-35.0,-1,1.0,0.17619999999999436
126,24,0.5,0.0625,-35.0,-1,1.0,0.2565999999999917
127,24,0.5,1.0,35.0,1,1.0,0.24299999999993815
128,24,0.5,0.25,35.0,-1,0.0,0.16370000000000573
129,24,0.2,0.25,35.0,1,1.0,0.3000999999999294
130,24,0.5,1.0,-35.0,-1,1.0,0.525799999999947
131,24,0.5,0.125,-35.0,-1,1.0,0.13009999999997035
132,24,0.5,0.125,35.0,1,1.0,0.20060000000000855
133,24,0.5,0.125,-35.0,-1,1.0,0.3625999999999294
134,24,0.5,0.0,35.0,1,1.0,0.2783999999999196
135,24,0.5,0.0625,35.0,-1,0.0,0.12559999999996307
136,24,0.5,0.125,-35.0,1,0.0,0.4577000000000453
137,24,0.5,0.125,35.0,1,1.0,0.3403000000000702
138,24,0.5,1.0,35.0,1,1.0,0.25109999999995125
139,24,0.5,0.125,-35.0,-1,1.0,0.6863999999999351
140,24,0.5,0.0625,-35.0,-1,1.0,0.1897999999999911
141,24,0.5,0.0,-35.0,1,0.0,0.7570999999999231
142,24,0.5,0.0625,-35.0,1,0.0,0.3164000000000442
143,24,0.5,0.0625,35.0,1,1.0,0.20690000000001874
144,24,0.5,0.25,-35.0,1,0.0,0.21339999999997872
145,24,0.5,0.25,-35.0,-1,1.0,0.427599999999984
146,24,0.5,0.25,-35.0,-1,1.0,0.3765999999999394
147,24,0.5,0.25,-35.0,-1,1.0,0.2502999999999247
148,24,0.5,0.25,-35.0,-1,1.0,0.33780000000001564
149,24,0.5,0.25,35.0,1,1.0,0.24239999999997508
150,24,0.5,1.0,35.0,1,1.0,0.2658999999998741
151,24,0.5,0.0625,35.0,1,1.0,0.32949999999993906
152,24,0.5,1.0,-35.0,1,0.0,0.1895000000000664
153,24,0.5,0.0625,-35.0,-1,1.0,0.22140000000001692
154,24,0.5,0.25,35.0,1,1.0,0.20719999999994343
155,24,0.5,0.0625,-35.0,-1,1.0,0.8385000000000673
156,24,0.5,0.125,35.0,1,1.0,0.6789999999999736
157,24,0.5,0.25,35.0,1,1.0,0.30329999999992197
158,24,0.5,0.125,35.0,-1,0.0,0.18089999999995143
159,24,0.5,0.125,-35.0,-1,1.0,0.3305990000000065
160,24,0.5,0.0,-35.0,-1,1.0,0.3976999999999862
161,24,0.5,0.25,35.0,1,1.0,0.1938000000000102
162,24,0.5,0.25,-35.0,-1,1.0,0.1675999999999931
163,24,0.5,0.25,35.0,1,1.0,0.21949999999992542
164,24,0.5,0.25,-35.0,-1,1.0,0.23159999999995762
165,24,0.5,0.25,-35.0,1,0.0,0.17079999999998563
166,24,0.5,0.25,35.0,1,1.0,0.2403999999999087
167,24,0.5,1.0,-35.0,-1,1.0,0.27089999999998327
168,24,0.5,0.25,35.0,1,1.0,0.23519999999996344
169,24,0.5,0.125,-35.0,1,0.0,0.300899999999956
170,24,0.5,0.125,35.0,1,1.0,0.30319999999994707
171,24,0.5,0.125,-35.0,-1,1.0,0.6504999999999654
172,24,0.5,0.0625,-35.0,1,0.0,0.32519999999999527
173,24,0.5,0.125,-35.0,-1,1.0,0.3591000000000122
174,24,0.5,0.0,-35.0,-1,1.0,0.15239999999994325
175,24,0.5,0.125,35.0,1,1.0,0.2824999999999136
176,24,0.5,0.0625,-35.0,-1,1.0,0.3691999999998643
177,24,0.5,0.0625,-35.0,-1,1.0,0.34149999999999636
178,24,0.5,0.25,35.0,1,1.0,0.23500000000001364
179,24,0.5,0.0625,-35.0,-1,1.0,0.26919999999995525
180,24,0.5,0.0625,-35.0,-1,1.0,0.3288999999998623
181,24,0.5,0.125,35.0,1,1.0,0.25890000000003965
182,24,0.5,1.0,-35.0,-1,1.0,0.17629999999996926
183,24,0.5,0.125,35.0,1,1.0,0.1354989999999816
184,24,0.5,0.125,-35.0,-1,1.0,0.8494999999999209
185,24,0.5,0.125,-35.0,-1,1.0,0.7115999999999758
186,24,0.5,0.0625,-35.0,-1,1.0,0.2599999999999909
187,24,0.5,0.0625,35.0,1,1.0,0.2603000000000293
188,24,0.5,0.125,35.0,-1,0.0,0.9419999999998936
189,24,0.5,0.125,35.0,-1,0.0,0.21229999999991378
190,24,0.5,0.25,-35.0,-1,1.0,0.3079000000000178
191,24,0.5,0.0625,35.0,1,1.0,0.19830000000001746
192,24,0.5,0.25,35.0,1,1.0,0.22299999999995634
193,24,0.5,0.125,35.0,1,1.0,0.11910000000000309
194,24,0.5,0.25,-35.0,-1,1.0,0.28290000000004056
195,24,0.5,0.25,35.0,1,1.0,0.13139999999998508
196,24,0.5,0.25,35.0,1,1.0,0.29529999999988377
197,24,0.5,1.0,-35.0,-1,1.0,0.39220000000000255
198,24,0.5,0.0625,-35.0,1,0.0,0.0908999999999196
199,24,0.5,0.0,35.0,1,1.0,0.81899999999996
200,24,0.5,0.0,35.0,1,1.0,0.16639999999995325
201,24,0.5,0.0,35.0,1,1.0,0.22469999999998436
202,24,0.5,1.0,35.0,1,1.0,0.20089899999993577
203,24,0.5,1.0,-35.0,-1,1.0,0.27330000000006294
204,24,0.5,0.0625,35.0,1,1.0,0.27519999999992706
205,24,0.5,0.25,35.0,1,1.0,0.16620000000000346
206,24,0.5,0.125,35.0,1,1.0,0.0888999999999669
207,24,0.5,0.0625,35.0,1,1.0,0.2758999999999787
208,24,0.5,0.125,35.0,1,1.0,0.2858000000001084
209,24,0.5,0.125,-35.0,1,0.0,0.14289999999994052
210,24,0.5,0.125,35.0,1,1.0,0.14869999999996253
211,24,0.5,1.0,35.0,1,1.0,0.21890000000007603
212,24,0.5,0.125,35.0,1,1.0,0.33989999999994325
213,24,0.5,0.0625,-35.0,1,0.0,0.17029999999999745
214,24,1.0,0.0625,35.0,1,1.0,0.2623999999999569
215,24,0.5,1.0,-35.0,-1,1.0,0.5790000000000646
216,24,0.5,0.125,-35.0,-1,1.0,0.8227999999999156
217,24,0.5,0.0625,35.0,1,1.0,0.22759999999993852
218,24,0.5,0.0625,35.0,1,1.0,0.4236999999999398
219,24,0.5,0.25,-35.0,-1,1.0,0.2867999999999711
220,24,0.5,0.25,-35.0,-1,1.0,0.507199999999898
221,24,0.5,0.25,-35.0,-1,1.0,0.12039999999990414
222,24,0.5,0.125,35.0,1,1.0,0.332300000000032
223,24,0.5,0.125,35.0,1,1.0,0.42439999999999145
224,24,0.5,0.0,35.0,1,1.0,0.25369999999986703
225,24,0.5,0.0625,35.0,1,1.0,0.22270000000003165
226,24,0.5,0.25,35.0,1,1.0,0.28089999999997417
227,24,0.5,0.25,-35.0,-1,1.0,0.39409999999998035
228,24,0.5,0.25,-35.0,1,0.0,0.16079999999999472
229,24,0.5,0.0625,35.0,1,1.0,0.25009899999986374
230,24,0.5,0.125,35.0,1,1.0,0.3857999999999038
231,24,0.5,1.0,-35.0,-1,1.0,0.7311999999999443
232,24,0.5,0.0,-35.0,1,0.0,0.30739999999991596
233,24,0.5,0.0,35.0,1,1.0,0.4937999999999647
234,24,0.5,0.125,-35.0,-1,1.0,0.14799999999991087
235,24,0.5,1.0,35.0,1,1.0,0.39220000000000255
236,24,0.5,0.0,-35.0,1,0.0,0.18439999999998236
237,24,0.5,0.125,-35.0,-1,1.0,0.4300999999999249
238,24,0.5,0.125,-35.0,-1,1.0,0.46039999999993597
239,24,0.5,0.25,35.0,1,1.0,0.2537999999999556
240,24,0.5,1.0,35.0,1,1.0,0.25339999999994234
241,24,0.5,0.25,35.0,1,1.0,0.2398000000000593
242,24,0.5,0.25,35.0,-1,0.0,0.21749999999997272
243,24,0.5,0.0625,35.0,1,1.0,0.2137990000001082
244,24,0.5,0.125,-35.0,-1,1.0,1.5472999999999502
245,24,0.5,0.25,35.0,1,1.0,1.4102000000000317
246,24,0.5,0.25,-35.0,-1,1.0,0.5498000000000047
247,24,0.5,0.25,35.0,1,1.0,0.24680000000000746
248,24,0.5,0.25,35.0,1,1.0,0.2099999999999227
249,24,0.5,0.0625,-35.0,1,0.0,0.23019999999996799
250,24,0.7,0.0625,-35.0,1,0.0,0.1268000000000029
251,24,0.5,1.0,-35.0,1,0.0,0.18360000000006949
252,24,0.5,0.0625,35.0,1,1.0,0.5804000000000542
253,24,0.5,0.125,35.0,1,1.0,0.2139999999999418
254,24,0.5,0.0625,-35.0,1,0.0,0.10710000000017317
255,24,0.5,0.125,35.0,1,1.0,0.24059999999985848
256,24,0.5,1.0,-35.0,-1,1.0,0.5539000000001124
257,24,0.5,1.0,-35.0,-1,1.0,0.5873999999998887
258,24,0.5,0.0625,-35.0,1,0.0,0.32740000000012515
259,24,0.5,0.25,35.0,1,1.0,0.2141999999998916
260,24,0.5,0.125,-35.0,-1,1.0,0.3609000000001288
261,24,0.5,0.125,-35.0,-1,1.0,0.44099999999980355
262,24,0.5,1.0,-35.0,-1,1.0,0.3010999999999058
263,24,0.5,0.0,35.0,-1,0.0,0.25810000000024047
264,24,0.5,0.0625,-35.0,1,0.0,0.2545999999997548
265,24,0.5,0.25,35.0,1,1.0,0.13490000000024338
266,24,0.5,0.25,-35.0,-1,1.0,0.38809999999989486
267,24,0.5,0.125,-35.0,-1,1.0,0.9550000000001546
268,24,0.5,0.125,-35.0,1,0.0,0.1150000000000091
269,24,0.5,0.0625,35.0,1,1.0,0.355199999999968
270,24,0.5,0.25,35.0,1,1.0,0.23179999999979373
271,24,0.5,0.25,-35.0,-1,1.0,0.3653999999999087
272,24,0.5,0.25,35.0,1,1.0,0.31189999999992324
273,24,0.5,0.0,-35.0,-1,1.0,0.4586989999997968
274,24,0.5,0.0625,35.0,-1,0.0,0.3321000000000822
275,24,0.5,0.0,35.0,-1,0.0,0.24880000000007385
276,24,0.5,0.0625,-35.0,-1,1.0,0.27549999999996544
277,24,0.5,0.25,35.0,1,1.0,0.1792000000000371
278,24,0.5,0.25,35.0,1,1.0,0.13580000000001746
279,24,0.5,0.125,-35.0,1,0.0,0.1191999999998643
280,24,0.5,0.125,35.0,1,1.0,0.23919999999998254
281,24,0.5,1.0,35.0,1,1.0,0.19929999999999382
282,24,0.5,0.0625,-35.0,1,0.0,1.625899999999774
283,24,0.5,0.125,-35.0,-1,1.0,0.28940000000011423
284,24,0.5,0.125,35.0,1,1.0,0.4194999999999709
285,24,0.5,0.125,-35.0,-1,1.0,0.24959999999987303
286,24,0.5,0.25,35.0,1,1.0,0.21640000000002146
287,24,0.5,0.0625,-35.0,1,0.0,0.11629999999991014
288,24,0.5,0.25,35.0,1,1.0,0.29359999999996944
289,24,0.5,0.125,35.0,-1,0.0,0.17309999999997672
290,24,0.5,0.125,-35.0,-1,1.0,0.41010000000005675
291,24,0.5,0.25,-35.0,-1,1.0,0.27329999999983556
292,24,0.5,0.125,-35.0,-1,1.0,0.23690000000010514
293,24,0.5,0.0625,-35.0,-1,1.0,0.24699999999984357
294,24,0.5,0.125,-35.0,-1,1.0,0.23709999999982756
295,24,0.5,0.125,35.0,1,1.0,0.24699999999984357
296,24,0.5,0.0,35.0,1,1.0,0.2807999999999993
297,24,0.5,0.125,-35.0,-1,1.0,0.42729899999994814
298,24,0.5,0.0625,-35.0,1,0.0,0.13760000000002037
299,24,0.5,0.125,-35.0,-1,1.0,0.3572999999998956
300,24,0.5,0.0625,35.0,1,1.0,0.19080000000008113
301,24,0.5,0.25,-35.0,-1,1.0,0.6742990000000191
302,24,0.5,0.0,35.0,1,1.0,0.354799999999841
303,24,0.5,0.125,-35.0,-1,1.0,0.19439999999985957
304,24,0.5,0.25,-35.0,-1,1.0,0.1878999999998996
305,24,0.5,0.25,35.0,1,1.0,0.2079999999998563
306,24,0.5,0.125,-35.0,-1,1.0,0.5881999999999152
307,24,0.5,0.25,-35.0,-1,1.0,0.31140000000004875
308,24,0.5,1.0,35.0,1,1.0,0.1715999999998985
309,24,0.5,0.0625,35.0,-1,0.0,0.5751000000000204
310,24,0.5,0.25,35.0,1,1.0,0.21509999999989304
311,24,0.5,1.0,-35.0,-1,1.0,0.2983999999999014
312,24,0.5,1.0,35.0,1,1.0,0.21189999999978681
313,24,0.5,0.125,35.0,1,1.0,0.2684999999999036
314,24,0.5,0.25,-35.0,1,0.0,0.21899999999982356
315,24,0.5,0.25,35.0,1,1.0,0.2623000000000957
316,24,0.5,0.25,-35.0,-1,1.0,0.7121999999999389
317,24,0.5,1.0,35.0,1,1.0,0.2623000000000957
318,24,0.5,0.0625,35.0,1,1.0,0.2924000000000433
319,24,0.5,0.25,35.0,1,1.0,0.18240000000014334
320,24,0.5,0.125,35.0,1,1.0,0.2296000000001186
321,24,0.5,0.0,35.0,-1,0.0,0.4693999999999505
322,24,0.5,0.25,-35.0,-1,1.0,0.23620000000005348
323,24,0.5,0.25,35.0,1,1.0,0.30950000000007094
324,24,0.5,0.125,35.0,1,1.0,0.30979999999999563
325,24,0.5,1.0,-35.0,-1,1.0,0.6295999999999822
326,24,0.5,1.0,-35.0,-1,1.0,0.34639999999990323
327,24,0.5,0.25,35.0,1,1.0,0.639699999999948
328,24,0.5,0.0625,35.0,1,1.0,0.27329999999983556
329,24,0.5,0.25,-35.0,-1,1.0,0.13989999999989777
330,24,0.5,1.0,-35.0,-1,1.0,0.2700999999999567
331,24,0.5,0.0625,-35.0,-1,1.0,0.1168999999999869
332,24,0.5,0.0,35.0,-1,0.0,1.5435999999999694
333,24,0.5,0.125,35.0,1,1.0,0.2737999999999374
334,24,0.5,0.125,35.0,1,1.0,0.1672000000000935
335,24,0.5,0.25,-35.0,1,0.0,0.21739999999999782
336,24,0.5,0.25,35.0,1,1.0,0.27060000000005857
337,24,0.5,0.125,-35.0,1,0.0,0.1775000000000091
338,24,0.6,0.125,-35.0,-1,1.0,0.4175000000000182
339,24,0.5,1.0,-35.0,-1,1.0,0.2177999999998974
340,24,0.5,0.0625,35.0,-1,0.0,0.28759999999988395
341,24,0.5,0.0625,-35.0,-1,1.0,0.9076999999999771
342,24,0.5,1.0,-35.0,-1,1.0,0.32459999999969114
343,24,0.5,0.0,35.0,-1,0.0,0.5378999999998086
344,24,0.5,0.0625,35.0,-1,0.0,0.8912999999997737
345,24,0.5,0.25,-35.0,-1,1.0,0.35130000000003747
346,24,0.5,1.0,35.0,1,1.0,0.3312999999998283
347,24,0.5,0.25,-35.0,-1,1.0,0.30149999999980537
348,24,0.5,0.25,35.0,1,1.0,0.228099999999813
349,24,0.5,0.125,35.0,1,1.0,0.1817990000001828
350,24,0.5,0.0,-35.0,-1,1.0,1.3082999999999174
351,24,0.5,0.25,-35.0,-1,1.0,0.3553999999999178
352,24,0.5,0.125,-35.0,-1,1.0,0.5150999999998476
353,24,0.5,1.0,35.0,-1,0.0,0.16200000000003456
354,24,0.5,0.0,35.0,-1,0.0,0.30189999999993233
355,24,0.5,0.25,35.0,1,1.0,0.43549899999993613
356,24,0.5,0.0625,35.0,-1,0.0,0.10890000000017608
357,24,0.5,0.25,-35.0,-1,1.0,0.35560000000009495
358,24,0.5,0.125,35.0,1,1.0,0.4621999999999389
359,24,0.5,0.0625,-35.0,-1,1.0,0.9791000000000167
360,24,0.5,0.25,35.0,1,1.0,0.3025000000000091
361,24,0.5,0.25,-35.0,-1,1.0,2.466000000000122
362,24,0.5,0.0625,35.0,-1,0.0,1.309400000000096
363,24,0.5,0.125,-35.0,-1,1.0,2.996399999999994
364,24,0.5,0.0,35.0,-1,0.0,1.1028989999999794
365,24,0.5,0.0625,35.0,-1,0.0,3.0
366,24,0.5,0.25,35.0,1,1.0,0.3063999999999396
367,24,0.5,0.0625,-35.0,-1,1.0,0.5600000000001728
368,24,0.5,0.25,-35.0,1,0.0,0.19659999999998945
369,24,0.3,0.25,35.0,1,1.0,0.2137000000000171
370,24,0.5,1.0,-35.0,-1,1.0,0.5670000000000073
371,24,0.5,1.0,35.0,1,1.0,0.21050000000013824
372,24,0.5,0.0,-35.0,1,0.0,0.21039999999993597
373,24,0.5,0.0,-35.0,1,0.0,0.13049999999998363
374,24,0.5,0.25,-35.0,-1,1.0,0.36399999999980537
375,24,0.5,0.0,-35.0,1,0.0,0.25739900000007765
376,24,0.5,0.0625,-35.0,-1,1.0,0.5772999999999229
377,24,0.5,1.0,-35.0,-1,1.0,0.5975000000000819
378,24,0.5,0.0,35.0,1,1.0,0.3206000000000131
379,24,0.5,0.0625,-35.0,1,0.0,0.1711999999999989
380,24,0.5,0.0625,35.0,1,1.0,0.26749999999992724
381,24,0.5,0.125,-35.0,-1,1.0,0.581000000000131
382,24,0.5,1.0,-35.0,-1,1.0,0.29110000000014224
383,24,0.5,1.0,-35.0,-1,1.0,0.2680000000000291
384,24,0.5,0.0625,-35.0,1,0.0,0.10809999999969477
385,24,0.5,0.125,-35.0,-1,1.0,0.3480000000001837
386,24,0.5,0.0625,35.0,1,1.0,0.3514999999997599
387,24,0.5,0.125,-35.0,-1,1.0,0.2416000000000622
388,24,0.5,1.0,35.0,1,1.0,0.19479999999998654
389,24,0.5,0.25,35.0,1,1.0,0.4917000000000371
390,24,0.5,0.0625,-35.0,1,0.0,0.2750999999998385
391,24,0.5,0.0,-35.0,-1,1.0,0.9152999999998883
392,24,0.5,0.0625,-35.0,-1,1.0,0.1852000000001226
393,24,0.5,0.0625,-35.0,-1,1.0,0.14869999999996253
394,24,0.5,0.125,35.0,1,1.0,0.5085999999998876
395,24,0.5,1.0,35.0,1,1.0,0.22879899999998088
396,24,0.5,0.0,-35.0,1,0.0,1.7122000000001663
397,24,0.6,0.0,-35.0,1,0.0,0.4755999999999858
398,24,0.5,1.0,-35.0,-1,1.0,0.33569999999986067
399,24,0.5,0.125,35.0,1,1.0,0.35920000000010077
400,24,0.5,0.0625,-35.0,1,0.0,0.2255999999999858
401,24,0.5,0.0625,35.0,1,1.0,0.27919999999994616
402,24,0.5,1.0,35.0,1,1.0,0.19240000000013424
403,24,0.5,1.0,-35.0,-1,1.0,0.4494999999999436
404,24,0.5,0.0625,-35.0,-1,1.0,0.4560999999998785
405,24,0.5,1.0,-35.0,-1,1.0,0.37609999999995125
406,24,0.5,0.125,35.0,1,1.0,0.26939999999990505
407,24,0.5,0.0,-35.0,1,0.0,0.17620000000010805
408,24,0.5,0.0,-35.0,-1,1.0,0.9562000000000808
409,24,0.5,0.0625,-35.0,-1,1.0,0.3632000000000062
410,24,0.5,0.125,35.0,1,1.0,0.1733999999999014
411,24,0.5,0.25,-35.0,1,0.0,0.12990000000013424
412,24,0.5,0.0,35.0,-1,0.0,0.5832000000000335
413,24,0.5,0.125,-35.0,-1,1.0,0.48679999999990287
414,24,0.5,0.0,-35.0,1,0.0,0.12009999999986576
415,24,0.5,0.0,-35.0,1,0.0,0.26359999999976935
416,24,0.5,1.0,-35.0,-1,1.0,0.44679999999993925
417,24,0.5,1.0,35.0,1,1.0,0.26710000000002765
418,24,0.5,0.125,-35.0,-1,1.0,0.5203999999998814
419,24,0.5,0.25,-35.0,-1,1.0,0.4206000000001495
420,24,0.5,0.25,-35.0,-1,1.0,0.3937999999998283
421,24,0.5,0.0625,-35.0,-1,1.0,0.3973999999998341
422,24,0.5,0.25,-35.0,-1,1.0,0.3672999999998865
423,24,0.5,1.0,35.0,-1,0.0,0.30429999999978463
424,24,0.5,0.125,35.0,1,1.0,0.32759999999984757
425,24,0.5,0.0,35.0,-1,0.0,0.09809999999993124
426,24,0.5,0.125,-35.0,-1,1.0,0.3042000000000371
427,24,0.5,0.125,-35.0,-1,1.0,0.5246999999999389
428,24,0.5,1.0,35.0,1,1.0,0.3611000000000786
429,24,0.5,0.0625,-35.0,-1,1.0,1.16800000000012
430,24,0.5,0.0625,-35.0,1,0.0,0.2080999999998312
431,24,0.5,0.0625,-35.0,-1,1.0,0.4181999999998425
432,24,0.5,1.0,-35.0,1,0.0,0.14800000000013824
433,24,0.5,0.25,35.0,1,1.0,0.31839899999999943
434,24,0.5,1.0,35.0,1,1.0,0.17489999999997963
435,24,0.5,0.0625,35.0,1,1.0,0.2849999999998545
436,24,0.5,0.125,-35.0,-1,1.0,0.3486000000000331
437,24,0.5,1.0,35.0,-1,0.0,0.14859999999998763
438,24,0.5,0.125,35.0,-1,0.0,0.09519999999997708
439,24,0.5,0.125,35.0,1,1.0,0.2827989999998408
440,24,0.5,1.0,-35.0,-1,1.0,0.3088000000000193
441,24,0.5,0.125,-35.0,-1,1.0,0.2723999999998341
442,24,0.5,0.125,-35.0,-1,1.0,0.47879999999986467
443,24,0.5,0.125,35.0,-1,0.0,0.6392000000000735
444,24,0.5,0.0625,-35.0,-1,1.0,0.24569999999994252
445,24,0.5,1.0,-35.0,-1,1.0,0.2660000000000764
446,24,0.5,0.125,-35.0,-1,1.0,0.6625000000001364
447,24,0.5,0.0625,-35.0,-1,1.0,0.24969999999984793
448,24,0.5,0.25,35.0,1,1.0,0.179300000000012
449,24,0.5,0.25,35.0,1,1.0,0.22299999999995634
450,24,0.5,0.25,35.0,1,1.0,0.2298990000001595
451,24,0.5,0.25,-35.0,-1,1.0,0.17319999999995161
452,24,0.5,1.0,35.0,1,1.0,0.2930989999999838
453,24,0.5,0.125,-35.0,-1,1.0,0.5266999999998916
454,24,0.5,0.0,35.0,-1,0.0,0.569999999999709
455,24,0.5,0.25,-35.0,-1,1.0,0.38020000000005894
456,24,0.5,0.0625,35.0,1,1.0,0.32029999999986103
457,24,0.5,0.125,-35.0,-1,1.0,0.22039999999992688
458,24,0.5,0.125,-35.0,-1,1.0,0.39699899999982335
459,24,0.5,1.0,35.0,1,1.0,0.4174000000000433
460,24,0.5,0.0,35.0,-1,0.0,0.16390000000023974
461,24,0.5,0.25,-35.0,-1,1.0,0.6241999999999734
462,24,0.5,0.0625,35.0,1,1.0,2.1440999999999804
463,24,0.5,1.0,35.0,1,1.0,0.29110000000014224
464,24,0.5,0.25,-35.0,-1,1.0,0.3410000000001219
465,24,0.5,1.0,35.0,1,1.0,0.2512000000001535
466,24,0.5,1.0,-35.0,-1,1.0,0.09770000000003165
467,24,0.5,1.0,-35.0,-1,1.0,0.3379989999998543
468,24,0.5,0.125,35.0,1,1.0,0.3411999999998443
469,24,0.5,0.0625,-35.0,-1,1.0,0.4115999999999076
470,24,0.5,0.125,35.0,1,1.0,0.28130000000010114
471,24,0.5,1.0,-35.0,-1,1.0,0.5315999999997985
472,24,0.5,0.0,35.0,1,1.0,0.2647999999999229
473,24,0.5,0.125,-35.0,-1,1.0,0.4617999999998119
474,24,0.5,0.0,-35.0,1,0.0,2.498299999999972
475,24,0.5,0.0,-35.0,-1,1.0,3.1520000000000437
476,24,0.5,1.0,35.0,1,1.0,0.23199999999974352
477,24,0.5,0.125,35.0,1,1.0,0.19209999999998217
478,24,0.5,0.25,35.0,1,1.0,0.17879999999991014
479,24,0.5,0.125,35.0,1,1.0,0.2588989999999285
480,24,0.5,0.0625,-35.0,-1,1.0,0.33550000000013824
481,24,0.5,0.125,-35.0,-1,1.0,0.3324000000002343
482,24,0.5,0.125,35.0,-1,0.0,0.7156999999999698
483,24,0.5,0.0,35.0,-1,0.0,1.202600000000075
484,24,0.5,0.0,-35.0,-1,1.0,0.41599999999994
485,24,0.5,1.0,-35.0,-1,1.0,0.2159999999998945
486,24,0.5,1.0,-35.0,-1,1.0,0.33599999999978536
487,24,0.5,0.125,35.0,1,1.0,0.24960000000055516
488,24,0.5,1.0,35.0,1,1.0,0.2630000000003747
489,24,0.5,0.0625,-35.0,-1,1.0,0.439600000000155
490,24,0.5,1.0,35.0,1,1.0,0.2863999999999578
491,24,0.5,0.25,35.0,1,1.0,0.21309999999994034
492,24,0.5,0.0625,35.0,1,1.0,0.26980000000048676
493,24,0.5,1.0,-35.0,-1,1.0,0.5069000000003143
494,24,0.5,0.125,-35.0,1,0.0,0.1865999999995438
495,24,0.6,0.125,-35.0,-1,1.0,0.36340000000018335
496,24,0.5,1.0,35.0,1,1.0,0.2568000000005668
497,24,0.5,0.0625,35.0,1,1.0,0.23040000000037253
498,24,0.5,1.0,-35.0,-1,1.0,0.3703000000004977
499,24,0.5,1.0,-35.0,-1,1.0,0.6070999999997184
500,24,0.5,1.0,-35.0,-1,1.0,0.22710000000006403
501,24,0.5,0.0,35.0,-1,0.0,0.453899999999976
502,24,0.5,0.125,-35.0,-1,1.0,0.36060000000043146
503,24,0.5,1.0,-35.0,-1,1.0,0.3141000000000531
504,24,0.5,0.25,-35.0,-1,1.0,0.5910000000003492
505,24,0.5,0.0625,-35.0,-1,1.0,0.39760000000023865
506,24,0.5,0.25,-35.0,-1,1.0,0.31459999999970023
507,24,0.5,0.0,-35.0,-1,1.0,0.21129999999993743
508,24,0.5,0.0,-35.0,-1,1.0,0.3646000000003369
509,24,0.5,0.25,35.0,-1,0.0,0.11149999999997817
510,24,0.5,0.25,-35.0,-1,1.0,0.20800000000008367
511,24,0.5,0.125,35.0,-1,0.0,0.5218999999997322
512,24,0.0,0.125,35.0,1,1.0,0.2614000000003216
513,24,0.5,1.0,35.0,1,1.0,0.26190000000042346
514,24,0.5,0.0625,35.0,1,1.0,0.25489999999990687
515,24,0.5,1.0,-35.0,-1,1.0,0.5918000000001484
516,24,0.5,0.125,-35.0,1,0.0,0.10840000000007421
517,24,0.5,0.125,-35.0,-1,1.0,0.5086000000005697
518,24,0.5,0.125,35.0,1,1.0,0.2820000000001528
519,24,0.5,0.125,-35.0,1,0.0,0.11220000000002983
520,24,0.5,0.0,-35.0,-1,1.0,0.1989000000003216
521,24,0.5,0.0625,35.0,1,1.0,0.10890000000017608
522,24,0.5,0.125,35.0,1,1.0,0.18209999999999127
523,24,0.5,1.0,-35.0,-1,1.0,0.5489999999999782
524,24,0.5,0.125,35.0,1,1.0,0.2689999999997781
525,24,0.5,0.25,-35.0,-1,1.0,0.4226000000003296
526,24,0.5,0.0625,35.0,1,1.0,0.9225000000001273
527,24,0.5,0.25,-35.0,-1,1.0,0.47590000000036525
528,24,0.5,0.125,-35.0,1,0.0,0.2361999999998261
529,24,0.5,0.125,35.0,1,1.0,0.21280000000024302
530,24,0.5,1.0,-35.0,-1,1.0,0.41960000000017317
531,24,0.5,0.25,-35.0,-1,1.0,0.31640000000061264
532,24,0.5,0.0625,35.0,-1,0.0,0.3566000000000713
533,24,0.5,0.0625,-35.0,-1,1.0,0.40990000000010696
534,24,0.5,0.125,-35.0,-1,1.0,0.29340000000001965
535,24,0.5,0.0625,35.0,1,1.0,0.26330000000007203
536,24,0.5,1.0,-35.0,-1,1.0,0.38679999999976644
537,24,0.5,0.125,-35.0,-1,1.0,0.6268000000004577
538,24,0.5,0.125,35.0,1,1.0,0.13059999999995853
539,24,0.5,0.25,35.0,1,1.0,0.1902999999997519
540,24,0.5,0.125,35.0,1,1.0,0.24060000000008586
541,24,0.5,1.0,-35.0,-1,1.0,0.3738000000003012
542,24,0.5,0.25,-35.0,-1,1.0,0.2907000000000153
543,24,0.5,0.25,-35.0,-1,1.0,0.5541000000002896
544,24,0.5,0.125,-35.0,-1,1.0,0.5974999999998545
545,24,0.5,0.0,-35.0,-1,1.0,0.7873999999997068
546,24,0.5,1.0,35.0,1,1.0,0.20440000000007785
547,24,0.5,0.0,35.0,1,1.0,0.6676000000002205
548,24,0.5,1.0,-35.0,-1,1.0,0.32110000000011496
549,24,0.5,0.0625,-35.0,-1,1.0,0.39440000000058717
550,24,0.5,1.0,35.0,1,1.0,0.4011000000000422
551,24,0.5,1.0,-35.0,-1,1.0,0.47780000000057044
552,24,0.5,1.0,35.0,1,1.0,0.1147000000000844
553,24,0.5,0.0625,35.0,1,1.0,0.40130000000044674
554,24,0.5,1.0,35.0,1,1.0,0.3350000000000364
555,24,0.5,0.125,-35.0,-1,1.0,0.31830000000036307
556,24,0.5,0.25,-35.0,-1,1.0,0.4387000000001535
557,24,0.5,1.0,-35.0,-1,1.0,0.4652000000000953
558,24,0.5,0.0,-35.0,-1,1.0,0.6220000000002983
559,24,0.5,0.125,-35.0,-1,1.0,0.41210000000000946
560,24,0.5,0.25,35.0,1,1.0,0.11889999999993961
561,24,0.5,0.0625,-35.0,-1,1.0,0.2921999999998661
562,24,0.5,1.0,35.0,1,1.0,0.2491000000004533
563,24,0.5,0.0625,35.0,1,1.0,0.29240000000027067
564,24,0.5,0.0625,-35.0,-1,1.0,0.3660000000004402
565,24,0.5,1.0,35.0,1,1.0,0.42570000000023356
566,24,0.5,0.25,-35.0,-1,1.0,0.4726000000005115
567,24,0.5,0.0625,-35.0,-1,1.0,0.21260000000074797
568,24,0.5,0.25,-35.0,-1,1.0,0.4861000000000786
569,24,0.5,0.125,35.0,1,1.0,0.3362000000001899
570,24,0.5,0.25,35.0,1,1.0,0.3366000000000895
571,24,0.5,0.25,-35.0,-1,1.0,0.22650000000021464
572,24,0.5,0.0625,35.0,1,1.0,0.16320000000041546
573,24,0.5,0.25,35.0,1,1.0,0.23320000000012442
574,24,0.5,0.125,35.0,1,1.0,0.18000000000029104
575,24,0.5,0.0625,-35.0,-1,1.0,0.5167999999998756
576,24,0.5,0.0625,-35.0,-1,1.0,0.47999899999967965
577,24,0.5,0.0625,-35.0,-1,1.0,0.45350000000053114
578,24,0.5,0.0625,35.0,1,1.0,0.2004000000006272
579,24,0.5,0.0625,35.0,1,1.0,0.3604000000000269
580,24,0.5,0.125,-35.0,1,0.0,0.22710000000006403
581,24,0.6,0.125,35.0,1,1.0,0.2573000000002139
582,24,0.5,1.0,35.0,-1,0.0,0.13390000000026703
583,24,0.5,0.0,-35.0,1,0.0,0.2640999999998712
584,24,0.5,0.25,35.0,1,1.0,0.30740000000014334
585,24,0.5,1.0,35.0,1,1.0,0.3009999999999309
586,24,0.5,0.0625,-35.0,1,0.0,0.17420000000038272
587,24,0.5,0.25,35.0,1,1.0,0.3479000000002088
588,24,0.5,1.0,35.0,1,1.0,0.2778000000002976
589,24,0.5,0.0,35.0,1,1.0,0.1880000000005566
590,24,0.5,0.0,-35.0,1,0.0,0.337800000000243
591,24,0.5,0.0625,-35.0,-1,1.0,0.7346000000002277
592,24,0.5,0.25,-35.0,-1,1.0,0.3779000000004089
593,24,0.5,0.25,35.0,1,1.0,0.2815000000005057
594,24,0.5,0.25,-35.0,-1,1.0,0.42810000000008586
595,24,0.5,0.0625,-35.0,-1,1.0,0.43180000000029395
596,24,0.5,1.0,35.0,1,1.0,0.3383000000003449
597,24,0.5,0.25,-35.0,-1,1.0,0.2885000000001128
598,24,0.5,0.25,35.0,1,1.0,0.30520000000024083
599,24,0.5,0.25,-35.0,1,0.0,0.19210000000020955
600,24,0.5,0.125,35.0,1,1.0,0.1419000000005326
601,24,0.5,0.125,-35.0,1,0.0,0.19530000000031578
602,24,0.5,0.0625,-35.0,-1,1.0,0.5255000000001928
603,24,0.5,0.25,35.0,1,1.0,0.32580000000007203
604,24,0.5,0.0,-35.0,1,0.0,0.27890000000024884
605,24,0.5,0.0625,35.0,-1,0.0,0.7892000000001644
606,24,0.5,0.25,-35.0,1,0.0,0.14580000000023574
607,24,0.5,0.0,-35.0,-1,1.0,0.2360000000007858
608,24,0.5,0.0625,35.0,1,1.0,0.2593000000001666
609,24,0.5,1.0,-35.0,-1,1.0,0.3595000000004802
610,24,0.5,0.125,35.0,1,1.0,0.39620000000013533
611,24,0.5,0.125,-35.0,-1,1.0,0.19309999999995853
612,24,0.5,0.25,-35.0,-1,1.0,0.40970000000015716
613,24,0.5,0.25,35.0,1,1.0,0.14000000000032742
614,24,0.5,0.0,35.0,1,1.0,0.16980000000012296
615,24,0.5,0.25,-35.0,-1,1.0,0.5199999999999818
616,24,0.5,0.0625,35.0,1,1.0,0.30660000000034415
617,24,0.5,1.0,35.0,1,1.0,0.2569000000003143
618,24,0.5,0.0,35.0,-1,0.0,0.740200000000641
619,24,0.5,0.0625,-35.0,-1,1.0,0.387000000000171
620,24,0.5,0.0625,-35.0,-1,1.0,0.3603000000002794
621,24,0.5,0.0625,35.0,-1,0.0,0.13060000000041327
622,24,0.5,0.0,-35.0,-1,1.0,0.44410000000016225
623,24,0.5,0.25,-35.0,-1,1.0,0.35429999999996653
624,24,0.5,0.0,-35.0,-1,1.0,0.18400000000019645
625,24,0.5,0.125,35.0,1,1.0,0.2543000000000575
626,24,0.5,1.0,35.0,1,1.0,0.24420000000009168
627,24,0.5,1.0,35.0,1,1.0,0.23440000000027794
628,24,0.5,0.0625,35.0,1,1.0,0.40770000000020445
629,24,0.5,0.0625,35.0,1,1.0,0.3812000000007174
630,24,0.5,0.0,-35.0,1,0.0,0.2978000000002794
631,24,0.5,0.0625,-35.0,-1,1.0,0.2513000000003558
632,24,0.5,0.25,-35.0,-1,1.0,0.4447990000003301
633,24,0.5,1.0,-35.0,-1,1.0,0.3950990000003003
634,24,0.5,0.125,35.0,1,1.0,0.13830000000007203
635,24,0.5,0.0,-35.0,1,0.0,0.2751000000002932
636,24,0.5,0.25,35.0,1,1.0,0.2752000000004955
637,24,0.5,0.0625,-35.0,-1,1.0,0.42520000000058644
638,24,0.5,0.125,-35.0,-1,1.0,0.4954000000002452
639,24,0.5,0.125,-35.0,-1,1.0,0.37540000000035434
640,24,0.5,0.0,35.0,-1,0.0,0.19550000000026557
641,24,0.3,0.0,-35.0,-1,1.0,0.6156000000000859
642,24,0.5,1.0,35.0,1,1.0,0.27890000000024884
643,24,0.5,0.0625,-35.0,-1,1.0,0.11239999999997963
644,24,0.5,0.0625,35.0,1,1.0,0.1390000000001237
645,24,0.5,0.25,35.0,1,1.0,0.20260000000007494
646,24,0.5,1.0,35.0,1,1.0,0.3625000000001819
647,24,0.5,0.0625,-35.0,-1,1.0,0.09270000000014988
648,24,0.5,0.0625,35.0,1,1.0,0.20280000000002474
649,24,0.5,0.25,-35.0,-1,1.0,0.3460000000004584
650,24,0.5,0.25,35.0,1,1.0,0.3763000000003558
651,24,0.5,0.25,35.0,-1,0.0,0.6895999999997002
652,24,0.6,0.25,-35.0,-1,1.0,0.509700000000521
653,24,0.5,1.0,35.0,1,1.0,0.339799999999741
654,24,0.5,0.0625,-35.0,-1,1.0,0.44330000000036307
655,24,0.5,0.25,-35.0,-1,1.0,0.4432000000001608
656,24,0.5,0.125,35.0,1,1.0,0.28660000000036234
657,24,0.5,0.0625,35.0,-1,0.0,0.6468000000004395
658,24,0.5,0.0,35.0,1,1.0,0.37700000000040745
659,24,0.5,0.0625,35.0,1,1.0,0.1570000000001528
660,24,0.5,0.125,35.0,1,1.0,0.2806000000000495
661,24,0.5,1.0,35.0,1,1.0,0.2770000000004984
662,24,0.5,0.25,-35.0,-1,1.0,0.40390000000024884
663,24,0.5,0.25,-35.0,-1,1.0,0.370600000000195
664,24,0.5,0.0,-35.0,-1,1.0,0.3042000000000371
665,24,0.5,0.0,35.0,1,1.0,0.1807000000003427
666,24,0.5,1.0,35.0,1,1.0,0.2410000000004402
667,24,0.5,0.0625,35.0,1,1.0,0.27080000000023574
668,24,0.5,0.0625,35.0,-1,0.0,0.511199999999917
669,24,0.5,0.0,35.0,-1,0.0,4.361000000000331
670,24,0.5,0.0,35.0,1,1.0,0.15800000000035652
671,24,0.5,1.0,35.0,1,1.0,0.2780000000002474
672,24,0.5,0.25,-35.0,-1,1.0,0.5483000000003813
673,24,0.5,0.0625,-35.0,-1,1.0,0.534900000000107
674,24,0.5,0.0625,35.0,-1,0.0,0.10840000000007421
675,24,0.5,0.0625,-35.0,-1,1.0,0.49190000000044165
676,24,0.5,1.0,-35.0,1,0.0,0.12179999999989377
677,24,0.4,1.0,35.0,1,1.0,0.8185000000003129
678,24,0.5,1.0,-35.0,-1,1.0,0.37210000000004584
679,24,0.5,0.125,35.0,1,1.0,0.3452000000006592
680,24,0.5,0.0625,-35.0,-1,1.0,1.0255000000001928
681,24,0.5,0.25,-35.0,-1,1.0,0.4187000000001717
682,24,0.5,0.0625,-35.0,-1,1.0,0.35270000000036816
683,24,0.5,0.125,-35.0,-1,1.0,0.3654999999998836
684,24,0.5,0.25,-35.0,-1,1.0,0.319100000000617
685,24,0.5,0.125,35.0,-1,0.0,0.5291000000001986
686,24,0.5,0.0625,35.0,1,1.0,0.35270000000036816
687,24,0.5,1.0,-35.0,-1,1.0,0.1592000000000553
688,24,0.5,1.0,35.0,1,1.0,0.19630000000006476
689,24,0.5,0.25,35.0,1,1.0,0.3926000000001295
690,24,0.5,1.0,-35.0,-1,1.0,0.3830000000002656
691,24,0.5,0.25,-35.0,-1,1.0,0.389498999999887
692,24,0.5,0.0625,-35.0,-1,1.0,0.3863000000001193
693,24,0.5,0.0625,-35.0,-1,1.0,0.11640000000033979
694,24,0.5,1.0,-35.0,-1,1.0,0.3198000000002139
695,24,0.5,0.125,35.0,-1,0.0,0.45640000000003056
696,24,0.5,0.0,35.0,-1,0.0,0.2899999999999636
697,24,0.5,0.125,35.0,1,1.0,0.4333000000001448
698,24,0.5,0.25,-35.0,-1,1.0,0.27010000000063883
699,24,0.5,0.25,-35.0,-1,1.0,0.4002000000004955
700,24,0.5,0.0625,-35.0,-1,1.0,0.38370000000031723
701,24,0.5,1.0,-35.0,-1,1.0,0.1803000000004431
702,24,0.5,1.0,35.0,1,1.0,0.2537999999999556
703,24,0.5,1.0,35.0,1,1.0,0.2771000000002459
704,24,0.5,0.125,-35.0,-1,1.0,0.47060000000010405
705,24,0.5,0.25,-35.0,-1,1.0,0.43730000000050495
706,24,0.5,0.125,35.0,1,1.0,0.161200000000008
707,24,0.5,0.25,35.0,1,1.0,0.28739900000027774
708,24,0.5,0.25,-35.0,-1,1.0,0.440900000000056
709,24,0.5,0.0625,35.0,1,1.0,0.3142000000002554
710,24,0.5,1.0,-35.0,-1,1.0,0.2713000000003376
711,24,0.5,0.25,35.0,1,1.0,0.5778000000000247
712,24,0.5,0.0,-35.0,-1,1.0,0.6548000000002503
713,24,0.5,0.0625,-35.0,-1,1.0,0.2679000000002816
714,24,0.5,0.0625,-35.0,-1,1.0,0.3350000000000364
715,24,0.5,0.0625,-35.0,-1,1.0,0.4147000000002663
716,24,0.5,0.0,35.0,-1,0.0,0.6749999999997272
717,24,0.5,0.25,-35.0,-1,1.0,0.44500000000061846
718,24,0.5,0.0,-35.0,1,0.0,1.4653000000007523
719,24,0.3,0.0,35.0,1,1.0,2.6351000000004206
720,24,0.5,1.0,35.0,1,1.0,0.26230000000032305
721,24,0.5,0.125,35.0,1,1.0,0.2754000000004453
722,24,0.5,0.125,35.0,1,1.0,0.4189000000001215
723,24,0.5,0.0625,-35.0,-1,1.0,0.4620999999997366
724,24,0.5,0.0,-35.0,-1,1.0,0.3924000000001797
725,24,0.5,1.0,35.0,1,1.0,0.2723000000000866
726,24,0.5,0.25,35.0,1,1.0,4.489400000000387
727,24,0.5,1.0,35.0,1,1.0,0.23260000000072978
728,24,0.5,0.25,-35.0,-1,1.0,0.3994999999999891
729,24,0.5,0.25,35.0,1,1.0,0.23600000000033106
730,24,0.5,0.125,35.0,1,1.0,0.4230999999999767
731,24,0.5,0.0625,35.0,1,1.0,0.3097000000002481
732,24,0.5,0.0625,35.0,1,1.0,0.28650000000016007
733,24,0.5,1.0,35.0,1,1.0,0.9997000000003027
734,24,0.5,0.0625,35.0,1,1.0,0.5734000000002197
735,24,0.5,0.125,35.0,1,1.0,0.23320000000012442
736,24,0.5,0.0625,-35.0,-1,1.0,0.4467000000004191
737,24,0.5,0.125,-35.0,-1,1.0,0.3901000000005297
738,24,0.5,0.125,-35.0,-1,1.0,0.3205000000002656
739,24,0.5,0.25,35.0,1,1.0,0.32349999999996726
740,24,0.5,0.0625,-35.0,1,0.0,0.2503999999998996
741,24,0.5,0.125,35.0,1,1.0,0.2871000000004642
742,24,0.5,1.0,-35.0,-1,1.0,0.3506000000002132
743,24,0.5,0.25,-35.0,-1,1.0,0.32040000000051805
744,24,0.5,0.125,35.0,1,1.0,0.1849000000001979
745,24,0.5,0.125,-35.0,-1,1.0,3.3507000000004155
746,24,0.5,1.0,-35.0,-1,1.0,0.9411000000004606
747,24,0.5,0.0625,35.0,1,1.0,0.794100000000526
748,24,0.5,0.25,-35.0,1,0.0,2.5246000000001914
749,24,0.6,0.25,35.0,1,1.0,0.2844999999997526
750,24,0.5,1.0,35.0,1,1.0,0.25810000000046784
751,24,0.5,0.25,35.0,1,1.0,0.23109999999996944
752,24,0.5,1.0,35.0,1,1.0,0.19810000000006767
753,24,0.5,1.0,-35.0,-1,1.0,0.2512000000001535
754,24,0.5,0.25,-35.0,-1,1.0,0.4549000000001797
755,24,0.5,0.0,35.0,1,1.0,0.42820000000028813
756,24,0.5,0.0625,35.0,1,1.0,0.4416000000001077
757,24,0.5,0.0625,-35.0,-1,1.0,0.7782000000001972
758,24,0.5,0.125,35.0,1,1.0,0.24519999999984066
759,24,0.5,0.25,-35.0,-1,1.0,0.33510000000023865
760,24,0.5,0.125,35.0,1,1.0,0.3322000000002845
761,24,0.5,0.0,35.0,-1,0.0,0.7919000000001688
762,24,0.5,0.0625,-35.0,-1,1.0,0.512300000000323
763,24,0.5,0.0625,-35.0,-1,1.0,1.0221000000001368
764,24,0.5,0.25,-35.0,-1,1.0,0.3856000000005224
765,24,0.5,0.125,-35.0,-1,1.0,0.12900000000036016
766,24,0.5,0.25,-35.0,-1,1.0,0.4591000000000349
767,24,0.5,1.0,35.0,1,1.0,0.235700000000179
768,24,0.5,0.0625,35.0,1,1.0,0.2758000000003449
769,24,0.5,0.125,-35.0,-1,1.0,0.4692000000004555
770,24,0.5,0.0625,-35.0,-1,1.0,0.5329999999999018
771,24,0.5,1.0,35.0,1,1.0,0.31590000000051077
772,24,0.5,0.25,-35.0,-1,1.0,0.31630000000041036
773,24,0.5,0.25,35.0,1,1.0,0.34269999999969514
774,24,0.5,0.125,35.0,1,1.0,0.4230000000002292
775,24,0.5,0.125,35.0,-1,0.0,0.6929000000004635
776,24,0.5,0.0625,-35.0,-1,1.0,0.3565000000003238
777,24,0.5,0.25,35.0,1,1.0,0.34969900000032794
778,24,0.5,0.0625,-35.0,-1,1.0,0.4834000000000742
779,24,0.5,0.25,-35.0,-1,1.0,0.3898000000003776
780,24,0.5,0.125,-35.0,-1,1.0,0.3702000000002954
781,24,0.5,0.25,35.0,1,1.0,0.330000000000382
782,24,0.5,0.0625,35.0,1,1.0,1.1471000000001368
783,24,0.5,0.125,-35.0,-1,1.0,0.37019999999984066
784,24,0.5,0.125,35.0,1,1.0,0.34710000000040964
785,24,0.5,0.0,35.0,-1,0.0,0.4669000000003507
786,24,0.5,0.25,-35.0,-1,1.0,0.36400000000003274
787,24,0.5,1.0,35.0,1,1.0,0.310399999999845
788,24,0.5,0.0625,35.0,-1,0.0,0.3773000000005595
789,24,0.5,0.125,-35.0,-1,1.0,0.4906000000005406
790,24,0.5,0.25,-35.0,-1,1.0,0.5576000000000931
791,24,0.5,0.0625,-35.0,-1,1.0,0.34080000000039945
792,24,0.5,0.0625,-35.0,-1,1.0,0.3876999999997679
793,24,0.5,0.0,-35.0,-1,1.0,0.6809000000002925
794,24,0.5,0.0625,35.0,1,1.0,0.9712000000004082
795,24,0.5,0.0625,35.0,-1,0.0,0.43440000000009604
796,24,0.5,0.125,-35.0,-1,1.0,0.30490000000008877
797,24,0.5,0.0,-35.0,-1,1.0,0.40470000000050277
798,24,0.5,0.0,-35.0,-1,1.0,0.1795999999999367
799,24,0.5,0.25,-35.0,-1,1.0,0.3348000000000866
800,24,0.5,0.125,35.0,1,1.0,0.3984000000004926
801,24,0.5,0.0,35.0,-1,0.0,0.27159900000015114
802,24,0.5,0.0,35.0,1,1.0,0.3751999999999498
803,24,0.5,0.25,35.0,1,1.0,0.26840000000038344
804,24,0.5,0.25,-35.0,-1,1.0,0.7489989999999125
