trial_num,session_num,stim_probability_left,contrast,position,response_choice,trial_correct,reaction_time
1,1,0.5,0.25,-35.0,1,0.0,0.3756999999999999
2,1,0.5,0.25,35.0,1,1.0,0.24139999999999961
3,1,0.5,0.25,35.0,1,1.0,0.6404000000000014
4,1,0.5,0.125,-35.0,-1,1.0,0.5112999999999985
5,1,0.5,0.125,35.0,-1,0.0,3.2095999999999982
6,1,0.5,1.0,-35.0,-1,1.0,0.2649000000000008
7,1,0.5,0.25,-35.0,-1,1.0,0.6301000000000023
8,1,0.5,1.0,-35.0,-1,1.0,0.5330999999999975
9,1,0.5,0.0625,35.0,1,1.0,0.43499999999999517
10,1,0.5,0.25,35.0,1,1.0,0.3143000000000029
11,1,0.5,0.0,-35.0,-1,1.0,0.31409999999999627
12,1,0.5,0.0625,-35.0,-1,1.0,0.21569999999999823
13,1,0.5,0.0,-35.0,-1,1.0,0.7637
14,1,0.5,1.0,-35.0,-1,1.0,0.2837999999999994
15,1,0.5,0.125,-35.0,-1,1.0,0.4802000000000035
16,1,0.5,0.125,35.0,-1,0.0,0.3756000000000057
17,1,0.5,0.0625,-35.0,1,0.0,0.4235000000000042
18,1,0.5,0.0625,-35.0,-1,1.0,0.3032000000000039
19,1,0.5,0.25,35.0,1,1.0,0.28350000000000364
20,1,0.5,0.0,35.0,-1,0.0,0.34480000000000643
21,1,0.5,0.125,-35.0,-1,1.0,0.7406999999999897
22,1,0.5,0.125,-35.0,-1,1.0,0.8088999999999942
23,1,0.5,0.125,-35.0,-1,1.0,0.3563000000000187
24,1,0.5,0.0,35.0,-1,0.0,0.21519999999999584
25,1,0.5,0.0625,-35.0,-1,1.0,0.28759999999999764
26,1,0.5,0.0,35.0,-1,0.0,0.33380000000001075
27,1,0.5,0.0625,-35.0,-1,1.0,0.738900000000001
28,1,0.5,0.0625,35.0,-1,0.0,0.4328999999999894
29,1,0.5,0.0625,35.0,-1,0.0,1.189300000000003
30,1,0.5,0.0,-35.0,-1,1.0,5.572700000000012
31,1,0.5,1.0,35.0,1,1.0,0.26200000000000045
32,1,0.5,0.125,35.0,-1,0.0,0.5271999999999935
33,1,0.5,0.0,35.0,-1,0.0,0.35899999999998045
34,1,0.5,0.25,-35.0,1,0.0,0.5885999999999854
35,1,0.5,0.0,35.0,1,1.0,0.287399999999991
36,1,0.5,0.25,-35.0,-1,1.0,0.3797000000000139
37,1,0.5,0.0625,35.0,1,1.0,0.3126000000000033
38,1,0.5,0.0625,35.0,-1,0.0,2.5452000000000226
39,1,0.5,1.0,-35.0,-1,1.0,0.22889999999998167
40,1,0.5,0.0625,35.0,-1,0.0,0.20220000000000482
41,1,0.5,0.25,-35.0,-1,1.0,0.37289999999998713
42,1,0.5,0.125,-35.0,-1,1.0,2.6182000000000016
43,1,0.5,0.0625,35.0,-1,0.0,0.25909999999998945
44,1,0.5,1.0,-35.0,-1,1.0,0.3754999999999882
45,1,0.5,0.0625,35.0,-1,0.0,0.44779999999997244
46,1,0.5,0.0625,-35.0,-1,1.0,0.4035999999999831
47,1,0.5,0.25,-35.0,-1,1.0,0.41269999999997253
48,1,0.5,0.125,35.0,-1,0.0,0.17319999999998004
49,1,0.5,0.0,35.0,-1,0.0,1.0427999999999713
50,1,0.5,1.0,-35.0,-1,1.0,0.2120999999999924
51,1,0.5,0.0,-35.0,-1,1.0,0.3179999999999552
52,1,0.5,0.0625,-35.0,1,0.0,3.088499999999982
53,1,0.5,0.0,-35.0,-1,1.0,0.6816000000000031
54,1,0.5,0.125,-35.0,-1,1.0,0.6844999999999857
55,1,0.5,0.0,-35.0,-1,1.0,0.3991999999999791
56,1,0.5,0.125,-35.0,-1,1.0,0.3421999999999912
57,1,0.5,1.0,-35.0,-1,1.0,3.0982999999999663
58,1,0.5,0.125,35.0,-1,0.0,0.3622000000000014
59,1,0.5,0.125,-35.0,-1,1.0,0.573900000000009
60,1,0.5,0.0,35.0,-1,0.0,0.21049999999999613
61,1,0.5,0.0625,-35.0,-1,1.0,0.3976000000000681
62,1,0.5,0.0,-35.0,-1,1.0,0.2428000000000452
63,1,0.5,1.0,-35.0,-1,1.0,0.36740000000008877
64,1,0.5,0.0625,35.0,-1,0.0,1.3612000000000535
65,1,0.5,0.0,-35.0,-1,1.0,0.6469000000000165
66,1,0.5,1.0,-35.0,-1,1.0,0.404200000000003
67,1,0.5,0.0,-35.0,-1,1.0,0.486500000000035
68,1,0.5,0.125,35.0,1,1.0,1.4592999999999847
69,1,0.5,0.0,35.0,-1,0.0,0.3864000000000374
70,1,0.5,1.0,35.0,1,1.0,0.28619999999995116
71,1,0.5,0.125,-35.0,-1,1.0,0.464300000000037
72,1,0.5,1.0,-35.0,-1,1.0,0.28220000000004575
73,1,0.5,0.125,-35.0,-1,1.0,0.4570000000000505
74,1,0.5,0.0625,-35.0,-1,1.0,0.40929999999997335
75,1,0.5,1.0,35.0,1,1.0,0.3602000000000203
76,1,0.5,0.125,35.0,1,1.0,0.3047000000000253
77,1,0.5,0.0625,35.0,1,1.0,0.4981000000000222
78,1,0.5,0.25,35.0,1,1.0,0.38639999999998054
79,1,0.5,0.125,35.0,-1,0.0,0.20439999999996417
80,1,0.5,1.0,-35.0,-1,1.0,0.4870000000000232
81,1,0.5,0.0,-35.0,-1,1.0,0.30719999999996617
82,1,0.5,0.0,35.0,-1,0.0,0.16779999999999973
83,1,0.5,1.0,35.0,1,1.0,0.26130000000000564
84,1,0.5,0.0625,-35.0,-1,1.0,0.277499999999975
85,1,0.5,0.125,35.0,1,1.0,0.6772000000000276
86,1,0.5,1.0,-35.0,-1,1.0,0.4344000000000392
87,1,0.5,1.0,-35.0,-1,1.0,0.34039999999998827
88,1,0.5,1.0,-35.0,-1,1.0,0.6747000000000298
89,1,0.5,0.0625,35.0,-1,0.0,0.46930000000003247
90,1,0.5,1.0,35.0,1,1.0,0.2615000000000123
91,1,0.8,0.25,-35.0,-1,1.0,0.2276000000000522
92,1,0.8,0.0625,-35.0,-1,1.0,0.20720000000000027
93,1,0.8,0.0,-35.0,-1,1.0,0.15059999999999718
94,1,0.8,0.25,-35.0,-1,1.0,0.3276000000000181
95,1,0.8,1.0,-35.0,-1,1.0,0.8448000000000206
96,1,0.8,1.0,35.0,1,1.0,0.24230000000000018
97,1,0.8,0.0,-35.0,-1,1.0,0.3272000000000048
98,1,0.8,0.125,-35.0,-1,1.0,0.34880000000003974
99,1,0.8,1.0,35.0,1,1.0,0.24330000000003338
100,1,0.8,0.125,-35.0,-1,1.0,0.4847000000000321
101,1,0.8,1.0,-35.0,-1,1.0,0.357400000000041
102,1,0.8,0.25,-35.0,-1,1.0,0.29579999999998563
103,1,0.8,0.125,-35.0,-1,1.0,2.394100000000037
104,1,0.8,1.0,-35.0,-1,1.0,0.29920000000004165
105,1,0.8,0.0625,-35.0,-1,1.0,0.2366000000000099
106,1,0.8,0.125,-35.0,-1,1.0,0.2696000000000254
107,1,0.8,0.0625,-35.0,-1,1.0,0.45280000000002474
108,1,0.8,0.0,-35.0,-1,1.0,0.3150999999999726
109,1,0.8,0.0,-35.0,-1,1.0,0.866299999999967
110,1,0.8,0.125,-35.0,-1,1.0,0.1816000000000031
111,1,0.8,0.0,35.0,-1,0.0,0.3029000000000224
112,1,0.8,0.0625,-35.0,-1,1.0,0.21110000000004447
113,1,0.8,0.0,-35.0,-1,1.0,0.2086999999999648
114,1,0.8,0.125,-35.0,-1,1.0,0.1320999999999799
115,1,0.8,0.0,-35.0,-1,1.0,0.2318000000000211
116,1,0.8,1.0,-35.0,-1,1.0,0.37320000000005393
117,1,0.8,0.0,-35.0,-1,1.0,0.5025000000000546
118,1,0.8,0.125,-35.0,-1,1.0,0.2847000000000435
119,1,0.8,0.0625,-35.0,-1,1.0,0.19510000000002492
120,1,0.8,0.0625,-35.0,-1,1.0,0.1372000000000071
121,1,0.8,1.0,-35.0,-1,1.0,0.2411000000000172
122,1,0.8,0.0,35.0,-1,0.0,0.3906000000000631
123,1,0.8,0.0,35.0,-1,0.0,0.4931000000000836
124,1,0.8,0.125,-35.0,-1,1.0,0.737700000000018
125,1,0.8,0.25,-35.0,-1,1.0,0.19290000000000873
126,1,0.2,0.0,-35.0,-1,1.0,0.24860000000001037
127,1,0.2,0.125,35.0,-1,0.0,0.3915000000000646
128,1,0.2,1.0,35.0,1,1.0,0.251700000000028
129,1,0.2,0.125,35.0,1,1.0,0.3061999999999898
130,1,0.2,1.0,35.0,1,1.0,0.20820000000003347
131,1,0.2,0.125,35.0,1,1.0,0.6652000000000271
132,1,0.2,0.0,35.0,-1,0.0,0.28779999999994743
133,1,0.2,0.25,-35.0,-1,1.0,0.2907999999999902
134,1,0.2,0.125,35.0,1,1.0,0.6686000000000831
135,1,0.2,0.25,35.0,1,1.0,0.36810000000002674
136,1,0.2,0.25,35.0,1,1.0,0.29340000000001965
137,1,0.2,1.0,35.0,1,1.0,0.27060000000017226
138,1,0.2,0.0,35.0,-1,0.0,0.1875
139,1,0.2,0.0,35.0,-1,0.0,0.19790000000000418
140,1,0.2,0.25,35.0,1,1.0,0.2078999999999951
141,1,0.2,0.0625,35.0,1,1.0,0.15809999999999036
142,1,0.2,0.25,35.0,1,1.0,0.4270000000001346
143,1,0.2,0.125,35.0,1,1.0,0.7844000000000051
144,1,0.2,0.125,35.0,1,1.0,0.36960000000010496
145,1,0.2,0.0,35.0,-1,0.0,0.13170000000002346
146,1,0.2,0.0625,35.0,1,1.0,0.46080000000006294
147,1,0.2,0.0,-35.0,-1,1.0,0.2417000000000371
148,1,0.2,1.0,35.0,1,1.0,0.2479000000000724
149,1,0.2,0.125,35.0,1,1.0,0.35330000000010386
150,1,0.2,1.0,35.0,1,1.0,0.3550000000000182
151,1,0.2,0.0,-35.0,-1,1.0,0.3209000000000515
152,1,0.2,0.125,35.0,1,1.0,0.43449999999995725
153,1,0.2,0.0,35.0,-1,0.0,0.4092000000000553
154,1,0.2,0.0,35.0,-1,0.0,0.37350000000003547
155,1,0.2,0.125,35.0,-1,0.0,0.25680000000011205
156,1,0.2,1.0,35.0,1,1.0,0.32369999999991705
157,1,0.2,0.0625,35.0,-1,0.0,0.34950000000003456
158,1,0.2,0.25,-35.0,-1,1.0,0.7743999999999005
159,1,0.2,1.0,35.0,1,1.0,0.29509999999993397
160,1,0.2,0.125,35.0,-1,0.0,0.4113000000000966
161,1,0.2,1.0,-35.0,-1,1.0,0.3805999999999585
162,1,0.2,0.0,-35.0,-1,1.0,0.44099999999991724
163,1,0.2,1.0,35.0,1,1.0,0.30939999999998236
164,1,0.2,0.0,35.0,-1,0.0,1.2854000000000951
165,1,0.2,0.25,35.0,1,1.0,0.3889000000000351
166,1,0.2,1.0,35.0,1,1.0,0.3288000000000011
167,1,0.2,1.0,35.0,1,1.0,0.41629999999997835
168,1,0.2,1.0,35.0,1,1.0,0.28090000000008786
169,1,0.2,0.125,35.0,1,1.0,0.9649000000000569
170,1,0.2,1.0,35.0,1,1.0,0.3006000000000313
171,1,0.2,0.125,35.0,1,1.0,0.35400000000004184
172,1,0.2,1.0,35.0,1,1.0,0.4456000000000131
173,1,0.2,1.0,35.0,1,1.0,0.28759999999999764
174,1,0.2,0.0,35.0,-1,0.0,0.47820000000012897
175,1,0.2,0.0,35.0,-1,0.0,0.5954000000000406
176,1,0.2,0.125,35.0,-1,0.0,0.6594000000000051
177,1,0.2,0.0625,35.0,-1,0.0,0.3041000000000622
178,1,0.2,0.0625,35.0,1,1.0,0.37740000000007967
179,1,0.2,0.0625,35.0,1,1.0,0.3532999999999902
180,1,0.2,0.0,35.0,-1,0.0,0.4412999999999556
181,1,0.2,1.0,35.0,1,1.0,0.2459999999999809
182,1,0.2,1.0,35.0,1,1.0,0.2857000000000198
183,1,0.2,1.0,35.0,1,1.0,0.6833999999998923
184,1,0.2,0.125,35.0,1,1.0,0.4919999999999618
185,1,0.2,0.125,-35.0,-1,1.0,0.2626000000000204
186,1,0.2,1.0,35.0,1,1.0,0.2798000000001366
187,1,0.2,0.125,-35.0,-1,1.0,0.5090000000000146
188,1,0.2,1.0,35.0,1,1.0,0.2740999999999758
189,1,0.2,0.125,35.0,1,1.0,0.3188000000000102
190,1,0.2,0.125,-35.0,-1,1.0,0.5240999999999758
191,1,0.2,0.25,35.0,1,1.0,0.32150000000001455
192,1,0.2,0.125,35.0,1,1.0,0.3145999999999276
193,1,0.2,0.125,35.0,-1,0.0,2.0919000000000096
194,1,0.2,0.0,35.0,1,1.0,0.33750000000009095
195,1,0.2,0.125,-35.0,-1,1.0,0.2877000000000862
196,1,0.2,0.0,35.0,-1,0.0,0.3183000000001357
197,1,0.2,1.0,-35.0,-1,1.0,0.29980000000000473
198,1,0.2,0.25,35.0,1,1.0,1.0204000000001088
199,1,0.2,0.0,35.0,-1,0.0,0.17629999999996926
200,1,0.2,0.125,35.0,1,1.0,0.33299999999997
201,1,0.2,0.125,35.0,1,1.0,0.968900000000076
202,1,0.2,0.0,35.0,-1,0.0,0.394800000000032
203,1,0.8,0.0,35.0,-1,0.0,0.3447000000001026
204,1,0.8,0.0,-35.0,-1,1.0,0.7692999999999302
205,1,0.8,1.0,35.0,1,1.0,0.5597000000000207
206,1,0.8,0.25,-35.0,-1,1.0,0.47910000000001673
207,1,0.8,0.25,-35.0,-1,1.0,0.5113999999999805
208,1,0.8,0.125,-35.0,-1,1.0,0.5645000000000664
209,1,0.8,0.0,-35.0,-1,1.0,0.521199999999908
210,1,0.8,1.0,-35.0,-1,1.0,0.2985000000001037
211,1,0.8,0.125,-35.0,-1,1.0,0.8613000000000284
212,1,0.8,0.0,-35.0,-1,1.0,0.41460000000006403
213,1,0.8,0.125,-35.0,-1,1.0,0.5325000000000273
214,1,0.8,0.125,-35.0,-1,1.0,0.8649000000000342
215,1,0.8,0.25,-35.0,-1,1.0,3.5454999999999472
216,1,0.8,1.0,-35.0,-1,1.0,0.47289999999998145
217,1,0.8,0.0625,-35.0,-1,1.0,0.5534999999999854
218,1,0.8,0.0625,-35.0,-1,1.0,0.627800000000093
219,1,0.8,0.25,-35.0,-1,1.0,0.8355999999999995
220,1,0.8,0.125,-35.0,-1,1.0,0.4781000000000404
221,1,0.8,0.25,35.0,-1,0.0,0.6623000000000729
222,1,0.8,0.25,-35.0,-1,1.0,1.235300000000052
223,1,0.8,0.0625,-35.0,-1,1.0,0.42829999999992197
224,1,0.8,0.0,-35.0,-1,1.0,0.4722000000000435
225,1,0.8,0.125,-35.0,-1,1.0,0.5300999999999476
226,1,0.8,0.125,-35.0,-1,1.0,0.2820999999999003
227,1,0.8,0.125,-35.0,-1,1.0,0.4014000000000806
228,1,0.8,0.125,-35.0,-1,1.0,0.859299999999962
229,1,0.8,0.0,35.0,-1,0.0,0.5361000000000331
230,1,0.8,0.0625,-35.0,-1,1.0,0.3765000000000782
231,1,0.8,0.125,35.0,-1,0.0,0.40040000000010423
232,1,0.8,0.25,-35.0,-1,1.0,0.39240000000006603
233,1,0.8,0.125,-35.0,-1,1.0,0.22469999999998436
234,1,0.8,0.0625,-35.0,-1,1.0,0.977800000000002
235,1,0.8,0.125,35.0,-1,0.0,0.38430000000005293
236,1,0.8,0.25,35.0,1,1.0,0.4913999999999987
237,1,0.8,0.0625,-35.0,-1,1.0,0.4395000000000664
238,1,0.8,0.0625,-35.0,-1,1.0,0.45019999999999527
239,1,0.2,0.0625,-35.0,-1,1.0,0.6484000000000378
240,1,0.2,0.25,35.0,1,1.0,0.3342000000000098
241,1,0.2,0.125,-35.0,-1,1.0,0.6227000000000089
242,1,0.2,0.25,35.0,1,1.0,0.27760000000000673
243,1,0.2,0.25,35.0,1,1.0,0.5650000000000546
244,1,0.2,0.0,35.0,1,1.0,1.3212000000000899
245,1,0.2,0.25,35.0,1,1.0,0.8281999999999243
246,1,0.2,0.0,35.0,-1,0.0,0.6213000000000193
247,1,0.2,0.25,35.0,1,1.0,0.31780000000003383
248,1,0.2,0.0625,35.0,-1,0.0,0.5021000000000413
249,1,0.2,0.25,35.0,1,1.0,0.39409999999998035
250,1,0.2,1.0,35.0,1,1.0,0.6960000000000264
251,1,0.2,1.0,35.0,1,1.0,1.6070999999999458
252,1,0.2,0.0625,35.0,-1,0.0,0.49059999999997217
253,1,0.2,0.0625,35.0,-1,0.0,0.1995000000000573
254,1,0.2,0.25,35.0,1,1.0,0.2840000000001055
255,1,0.2,1.0,35.0,1,1.0,0.2962999999999738
256,1,0.2,0.0625,35.0,-1,0.0,0.2976000000001022
257,1,0.2,0.125,35.0,1,1.0,0.3130999999998494
258,1,0.2,0.125,35.0,1,1.0,0.5710999999998876
259,1,0.2,0.0,35.0,-1,0.0,0.31639999999970314
260,1,0.2,0.25,35.0,1,1.0,0.3111999999998716
261,1,0.2,0.125,35.0,1,1.0,0.3369000000000142
262,1,0.2,0.125,35.0,1,1.0,0.3243999999999687
263,1,0.2,1.0,35.0,1,1.0,0.2902999999998883
264,1,0.2,1.0,35.0,1,1.0,0.3046000000001641
265,1,0.2,0.0625,35.0,-1,0.0,0.22700000000008913
266,1,0.2,1.0,35.0,1,1.0,0.2317000000000462
267,1,0.2,0.125,35.0,1,1.0,0.7136999999997897
268,1,0.2,0.25,-35.0,-1,1.0,0.26490000000012515
269,1,0.2,0.25,-35.0,-1,1.0,0.31399999999985084
270,1,0.2,0.25,35.0,1,1.0,0.1921999999997297
271,1,0.2,1.0,35.0,1,1.0,0.3007000000000062
272,1,0.2,0.125,35.0,-1,0.0,0.5251000000000658
273,1,0.2,0.125,35.0,1,1.0,0.6274999999998272
274,1,0.2,1.0,35.0,1,1.0,0.2820000000001528
275,1,0.2,0.25,35.0,1,1.0,0.34439999999972315
276,1,0.2,1.0,35.0,1,1.0,0.31549999999992906
277,1,0.2,0.0,35.0,-1,0.0,0.6110000000001037
278,1,0.2,0.125,35.0,1,1.0,0.38570000000004256
279,1,0.2,0.0625,35.0,1,1.0,0.2579999999998108
280,1,0.2,0.125,35.0,1,1.0,0.302599999999984
281,1,0.2,0.25,35.0,1,1.0,0.3146999999999025
282,1,0.2,0.125,35.0,1,1.0,0.31579999999985375
283,1,0.2,1.0,-35.0,-1,1.0,0.30149999999980537
284,1,0.2,0.125,35.0,1,1.0,0.6160999999999603
285,1,0.2,0.125,35.0,1,1.0,0.3416999999997188
286,1,0.2,0.25,-35.0,-1,1.0,0.18619999999987158
287,1,0.2,0.0625,35.0,-1,0.0,1.811699999999746
288,1,0.2,0.125,35.0,-1,0.0,0.7697999999998046
289,1,0.2,0.0,-35.0,1,0.0,0.43509999999969295
290,1,0.2,1.0,35.0,1,1.0,0.2764999999997144
291,1,0.2,0.0,35.0,-1,0.0,0.3920999999998003
292,1,0.2,0.0,-35.0,1,0.0,0.8799999999996544
293,1,0.2,1.0,35.0,1,1.0,0.23569999999995161
294,1,0.2,0.0625,35.0,1,1.0,2.193499999999858
295,1,0.2,0.125,35.0,1,1.0,0.9891000000000076
296,1,0.2,1.0,35.0,1,1.0,0.49689999999986867
297,1,0.2,0.25,35.0,-1,0.0,0.66599999999994
298,1,0.2,0.125,35.0,-1,0.0,0.36049999999977445
299,1,0.2,0.0,35.0,-1,0.0,0.29599999999982174
300,1,0.2,0.0,-35.0,-1,1.0,0.34400000000005093
301,1,0.2,1.0,35.0,1,1.0,0.3630999999998039
302,1,0.2,0.25,35.0,1,1.0,0.6172999999998865
303,1,0.2,0.25,35.0,1,1.0,0.6962999999998374
304,1,0.2,0.0625,-35.0,-1,1.0,0.3309999999996762
305,1,0.2,1.0,35.0,1,1.0,0.27300000000013824
306,1,0.2,0.0625,35.0,-1,0.0,4.250899999999774
307,1,0.2,0.0625,-35.0,-1,1.0,0.32999999999992724
308,1,0.8,0.125,-35.0,-1,1.0,0.571100000000115
309,1,0.8,0.125,-35.0,-1,1.0,0.32330000000001746
310,1,0.8,0.0,-35.0,-1,1.0,0.6144999999999072
311,1,0.8,0.25,-35.0,-1,1.0,0.6203999999997905
312,1,0.8,0.0625,-35.0,-1,1.0,0.264699999999948
313,1,0.8,0.0625,-35.0,-1,1.0,0.4069999999999254
314,1,0.8,1.0,35.0,1,1.0,0.5147999999999229
315,1,0.8,0.0,-35.0,-1,1.0,0.3937999999998283
316,1,0.8,0.0625,-35.0,-1,1.0,0.25540000000000873
317,1,0.8,0.25,-35.0,-1,1.0,0.47729999999978645
318,1,0.8,0.25,-35.0,-1,1.0,0.28189999999972315
319,1,0.8,0.125,-35.0,-1,1.0,0.26749999999992724
320,1,0.8,0.25,-35.0,-1,1.0,0.4251999999999043
321,1,0.8,1.0,35.0,1,1.0,0.28739999999993415
322,1,0.8,0.0,-35.0,-1,1.0,0.3952999999999065
323,1,0.8,0.0625,35.0,-1,0.0,0.40419999999994616
324,1,0.8,0.25,-35.0,-1,1.0,0.21890000000007603
325,1,0.8,1.0,-35.0,-1,1.0,0.29769999999984975
326,1,0.8,1.0,35.0,1,1.0,0.34570000000007894
327,1,0.8,1.0,35.0,1,1.0,0.37459999999987303
328,1,0.8,0.0,-35.0,-1,1.0,0.2590999999997621
329,1,0.8,0.0,-35.0,-1,1.0,0.30930000000012114
330,1,0.8,0.125,-35.0,-1,1.0,0.6826999999998407
331,1,0.8,0.125,-35.0,-1,1.0,0.4251000000001568
332,1,0.8,0.0,-35.0,-1,1.0,0.22600000000011278
333,1,0.8,0.25,35.0,1,1.0,0.3149999999995998
334,1,0.8,0.0625,-35.0,-1,1.0,0.4195999999999458
335,1,0.8,0.25,-35.0,-1,1.0,0.27529999999978827
336,1,0.8,0.25,35.0,1,1.0,0.17299999999977445
337,1,0.8,0.125,35.0,1,1.0,0.7121999999999389
338,1,0.8,1.0,-35.0,-1,1.0,0.5063999999997577
339,1,0.8,0.0,-35.0,-1,1.0,0.2722999999998592
340,1,0.8,0.25,-35.0,-1,1.0,0.5799999999999272
341,1,0.8,0.125,35.0,-1,0.0,0.15259999999989304
342,1,0.8,1.0,-35.0,-1,1.0,0.34359999999992397
343,1,0.8,1.0,-35.0,-1,1.0,0.43239999999991596
344,1,0.8,0.0625,-35.0,-1,1.0,0.29719999999997526
345,1,0.8,0.0,-35.0,1,0.0,0.4237000000000535
346,1,0.8,1.0,-35.0,-1,1.0,0.2804999999998472
347,1,0.8,0.0625,-35.0,-1,1.0,0.1993999999999687
348,1,0.8,0.0625,-35.0,-1,1.0,0.16059999999970387
349,1,0.8,0.125,-35.0,-1,1.0,1.0760999999999967
350,1,0.8,0.125,-35.0,-1,1.0,0.3306999999997515
351,1,0.8,0.0,-35.0,-1,1.0,0.4396999999999025
352,1,0.8,0.0,-35.0,-1,1.0,0.5311999999998989
353,1,0.8,0.0625,-35.0,-1,1.0,0.2563999999999851
354,1,0.8,0.0625,-35.0,-1,1.0,0.4412999999999556
355,1,0.8,0.25,-35.0,-1,1.0,0.7234000000000833
356,1,0.8,0.125,35.0,-1,0.0,0.47499999999990905
357,1,0.8,0.125,-35.0,-1,1.0,0.433699999999817
358,1,0.8,0.25,-35.0,-1,1.0,0.14809999999988577
359,1,0.8,0.0,35.0,-1,0.0,0.2737999999999374
360,1,0.8,0.0,-35.0,-1,1.0,0.39499999999975444
361,1,0.8,0.125,-35.0,-1,1.0,0.21739999999977044
362,1,0.8,0.0,-35.0,-1,1.0,0.33189999999990505
363,1,0.8,0.25,-35.0,-1,1.0,0.2074999999999818
364,1,0.8,0.0,-35.0,-1,1.0,0.40210000000001855
365,1,0.8,1.0,-35.0,-1,1.0,0.8941999999999553
366,1,0.8,0.125,-35.0,-1,1.0,0.4256000000000313
367,1,0.8,0.125,35.0,1,1.0,0.3910000000000764
368,1,0.8,0.0625,35.0,-1,0.0,0.8089999999999691
369,1,0.8,0.25,-35.0,-1,1.0,0.8809999999998581
370,1,0.8,0.0,-35.0,-1,1.0,0.3392999999998665
371,1,0.8,0.125,35.0,1,1.0,0.5247999999999138
372,1,0.8,0.0625,-35.0,-1,1.0,0.3092999999996664
373,1,0.8,0.0625,-35.0,-1,1.0,0.5383999999999105
374,1,0.8,0.0,-35.0,-1,1.0,0.7127999999997883
375,1,0.8,0.0,-35.0,-1,1.0,0.2883999999999105
376,1,0.8,0.125,-35.0,-1,1.0,0.3364999999998872
377,1,0.8,0.25,-35.0,-1,1.0,0.2419999999999618
378,1,0.8,1.0,35.0,1,1.0,0.27299999999991087
379,1,0.2,0.25,35.0,1,1.0,0.5283999999999196
380,1,0.2,1.0,35.0,1,1.0,0.4433999999998832
381,1,0.2,0.25,35.0,1,1.0,0.31539999999995416
382,1,0.2,0.0625,35.0,1,1.0,0.43329899999980626
383,1,0.2,1.0,35.0,1,1.0,0.445699999999988
384,1,0.2,0.0625,35.0,-1,0.0,0.2999999999999545
385,1,0.2,0.0,35.0,-1,0.0,0.39249999999992724
386,1,0.2,0.125,35.0,1,1.0,0.3303000000000793
387,1,0.2,0.0,-35.0,-1,1.0,0.23899999999980537
388,1,0.2,0.25,35.0,1,1.0,0.5758999999998196
389,1,0.2,0.125,35.0,1,1.0,0.3124999999997726
390,1,0.2,0.0,35.0,-1,0.0,0.4438000000000102
391,1,0.2,0.125,35.0,1,1.0,0.34609999999997854
392,1,0.2,0.0625,-35.0,-1,1.0,0.25739999999996144
393,1,0.2,0.0,35.0,-1,0.0,0.1861999999996442
394,1,0.2,0.25,35.0,1,1.0,0.310799999999972
395,1,0.2,0.25,35.0,1,1.0,0.5562999999999647
396,1,0.2,0.125,35.0,1,1.0,0.5773999999998978
397,1,0.2,0.125,35.0,1,1.0,0.2764999999997144
398,1,0.2,0.0,35.0,-1,0.0,1.0977999999997792
399,1,0.2,0.0,35.0,-1,0.0,0.376700000000028
400,1,0.2,0.0,-35.0,1,0.0,0.8544999999999163
401,1,0.2,0.25,35.0,1,1.0,0.28339999999980137
402,1,0.2,1.0,35.0,1,1.0,0.3245999999999185
403,1,0.2,0.0625,35.0,1,1.0,0.36679999999978463
404,1,0.2,1.0,35.0,1,1.0,0.32159999999998945
405,1,0.2,0.25,-35.0,-1,1.0,0.5938999999998487
406,1,0.2,0.0625,-35.0,-1,1.0,0.6147999999998319
407,1,0.2,1.0,35.0,1,1.0,0.3305000000000291
408,1,0.2,1.0,35.0,1,1.0,0.3139000000001033
409,1,0.2,0.125,35.0,1,1.0,2.083799999999883
410,1,0.2,1.0,35.0,1,1.0,0.32169999999996435
411,1,0.2,0.125,35.0,1,1.0,0.6839999999999691
412,1,0.2,0.0625,35.0,1,1.0,0.47529999999983374
413,1,0.2,0.0,35.0,-1,0.0,0.9408999999998287
414,1,0.2,0.0625,35.0,-1,0.0,0.3989000000001397
415,1,0.2,1.0,35.0,1,1.0,0.2844000000000051
416,1,0.2,0.0,-35.0,-1,1.0,0.8388999999999669
417,1,0.2,0.125,35.0,1,1.0,0.3710999999998421
418,1,0.2,0.0,35.0,-1,0.0,0.22929999999996653
419,1,0.2,1.0,35.0,1,1.0,0.2645999999999731
420,1,0.2,0.0,35.0,-1,0.0,1.2359999999998763
421,1,0.2,0.125,35.0,1,1.0,0.33159999999998035
422,1,0.2,1.0,35.0,1,1.0,0.3125999999999749
423,1,0.2,0.25,35.0,1,1.0,0.4216000000001259
424,1,0.2,0.125,35.0,1,1.0,0.5862999999999374
425,1,0.2,0.125,-35.0,1,0.0,0.2950999999995929
426,1,0.2,0.0,35.0,-1,0.0,0.30310000000008586
427,1,0.2,0.0625,35.0,1,1.0,0.31199999999989814
428,1,0.2,0.125,-35.0,-1,1.0,0.28330000000005384
429,1,0.2,0.0625,35.0,1,1.0,1.202099999999973
430,1,0.2,1.0,35.0,1,1.0,0.22669999999993706
431,1,0.2,0.0625,35.0,1,1.0,0.3688999999999396
432,1,0.2,0.25,35.0,1,1.0,0.32369999999991705
433,1,0.2,0.25,35.0,1,1.0,0.2723999999998341
434,1,0.2,1.0,35.0,1,1.0,0.23689999999987776
435,1,0.2,0.125,35.0,-1,0.0,0.2924000000000433
436,1,0.2,0.25,35.0,1,1.0,0.2539000000001579
437,1,0.2,0.0,35.0,-1,0.0,6.776299999999992
438,1,0.2,0.125,35.0,1,1.0,0.5972999999999047
439,1,0.2,0.0,35.0,-1,0.0,0.339399999999614
440,1,0.2,1.0,35.0,1,1.0,0.24059999999985848
441,1,0.2,1.0,35.0,1,1.0,0.2962999999999738
442,1,0.2,0.125,35.0,1,1.0,0.34409999999979846
443,1,0.2,0.125,35.0,1,1.0,0.37019999999984066
444,1,0.2,0.0,35.0,-1,0.0,0.36409999999978027
445,1,0.2,0.0,-35.0,-1,1.0,0.4296999999999116
446,1,0.2,0.125,35.0,1,1.0,0.67450000000008
447,1,0.2,0.125,35.0,-1,0.0,0.41669999999999163
448,1,0.2,1.0,35.0,1,1.0,0.3546999999998661
449,1,0.2,1.0,35.0,1,1.0,0.3138000000001284
450,1,0.2,0.0625,35.0,1,1.0,0.45479999999997744
451,1,0.2,1.0,35.0,1,1.0,0.2901999999999134
452,1,0.2,0.125,35.0,1,1.0,0.3914999999999509
453,1,0.2,0.125,35.0,-1,0.0,0.423799999999801
454,1,0.2,0.25,35.0,1,1.0,0.3583000000000993
455,1,0.2,0.125,35.0,1,1.0,0.28710000000000946
456,1,0.2,0.25,35.0,1,1.0,0.448399999999765
457,1,0.2,0.0,35.0,-1,0.0,0.36410000000000764
458,1,0.2,0.125,35.0,1,1.0,0.3085000000000946
459,1,0.2,0.0,35.0,1,1.0,0.5707999999999629
460,1,0.2,1.0,-35.0,-1,1.0,0.5386999999998352
461,1,0.2,0.25,35.0,1,1.0,0.26089999999999236
462,1,0.2,0.0,35.0,-1,0.0,0.28449999999998
463,1,0.2,0.0625,35.0,-1,0.0,0.42220000000020264
464,1,0.2,0.0625,35.0,1,1.0,0.8045999999997093
465,1,0.2,0.25,35.0,1,1.0,0.4856999999999516
466,1,0.2,0.0625,35.0,1,1.0,0.45820000000003347
467,1,0.2,0.125,-35.0,-1,1.0,0.5124999999998181
468,1,0.2,0.0625,35.0,1,1.0,1.1748999999999796
469,1,0.2,0.0,35.0,-1,0.0,0.2159999999998945
470,1,0.8,0.0,-35.0,1,0.0,0.6649999999997362
471,1,0.8,1.0,-35.0,-1,1.0,0.7727999999999611
472,1,0.8,0.0625,-35.0,-1,1.0,0.35189999999988686
473,1,0.8,0.25,-35.0,-1,1.0,0.22640000000001237
474,1,0.8,1.0,35.0,1,1.0,0.2986000000000786
475,1,0.8,0.25,-35.0,-1,1.0,0.4034999999998945
476,1,0.8,1.0,-35.0,-1,1.0,0.29549999999994725
477,1,0.8,1.0,-35.0,-1,1.0,0.9601999999999862
478,1,0.8,0.125,-35.0,-1,1.0,0.32570000000009713
479,1,0.8,0.0,-35.0,-1,1.0,0.3835999999998876
480,1,0.8,1.0,-35.0,-1,1.0,0.2625000000000455
481,1,0.8,1.0,-35.0,-1,1.0,0.1535999999998694
482,1,0.8,0.0625,-35.0,-1,1.0,0.38259999999991123
483,1,0.8,0.25,-35.0,-1,1.0,0.21019999999998618
484,1,0.8,0.0625,-35.0,-1,1.0,0.5063000000000102
485,1,0.8,0.0625,-35.0,-1,1.0,0.5838999999998578
486,1,0.8,0.125,-35.0,-1,1.0,0.17299999999977445
487,1,0.8,0.0625,-35.0,-1,1.0,0.1774000000000342
488,1,0.8,0.0625,-35.0,-1,1.0,0.2930999999998676
489,1,0.8,0.25,-35.0,-1,1.0,0.34419999999977335
490,1,0.8,0.0,-35.0,-1,1.0,0.18329999999991742
491,1,0.8,1.0,-35.0,-1,1.0,0.1610000000000582
492,1,0.8,1.0,-35.0,-1,1.0,0.24319999999988795
493,1,0.8,0.25,-35.0,-1,1.0,0.3047999999998865
494,1,0.8,0.0625,-35.0,-1,1.0,0.26369999999974425
495,1,0.8,1.0,-35.0,-1,1.0,0.4148000000000138
496,1,0.8,0.0625,35.0,-1,0.0,0.6837000000000444
497,1,0.2,0.25,35.0,-1,0.0,0.15810000000010405
498,1,0.2,0.0625,35.0,-1,0.0,0.48749999999972715
499,1,0.2,0.25,35.0,1,1.0,0.3783000000003085
500,1,0.2,0.0,35.0,-1,0.0,1.5953000000004067
501,1,0.2,0.0,35.0,-1,0.0,0.19399999999995998
502,1,0.2,1.0,35.0,1,1.0,0.21519999999964057
503,1,0.2,0.0625,35.0,-1,0.0,0.5078999999996086
504,1,0.2,0.0,35.0,-1,0.0,1.0221000000001368
505,1,0.2,0.0,35.0,-1,0.0,0.39099999999962165
506,1,0.2,0.125,35.0,1,1.0,0.27559999999994034
507,1,0.2,0.25,-35.0,-1,1.0,0.7476999999998952
508,1,0.2,0.25,35.0,1,1.0,0.3560000000002219
509,1,0.2,0.0625,35.0,1,1.0,0.3380000000001928
510,1,0.2,0.125,35.0,1,1.0,0.389299999999821
511,1,0.2,1.0,35.0,1,1.0,0.2812999999996464
512,1,0.2,0.125,35.0,1,1.0,0.2959000000000742
513,1,0.2,0.25,35.0,1,1.0,0.28490000000010696
514,1,0.2,0.0,35.0,-1,0.0,0.5262000000002445
515,1,0.2,0.0625,35.0,-1,0.0,1.9184000000000196
516,1,0.2,0.0625,-35.0,-1,1.0,0.4064000000003034
517,1,0.2,0.25,35.0,1,1.0,0.3619000000003325
518,1,0.2,1.0,35.0,1,1.0,0.3263999999999214
519,1,0.2,0.125,35.0,1,1.0,0.40869999999995343
520,1,0.2,0.125,35.0,1,1.0,0.733400000000529
521,1,0.2,1.0,35.0,1,1.0,0.3287999999997737
522,1,0.2,0.0625,35.0,1,1.0,1.0799000000001797
523,1,0.2,0.125,-35.0,-1,1.0,0.44920000000047366
524,1,0.2,0.0625,35.0,1,1.0,0.4034999999998945
525,1,0.2,0.125,35.0,1,1.0,0.315900000000056
526,1,0.2,0.25,-35.0,-1,1.0,0.5570000000006985
527,1,0.2,0.125,35.0,-1,0.0,0.2559000000001106
528,1,0.2,0.0625,35.0,1,1.0,0.5837000000005901
529,1,0.2,0.125,35.0,1,1.0,0.6327000000005683
530,1,0.2,0.25,-35.0,1,0.0,0.5673000000001593
531,1,0.2,0.25,35.0,1,1.0,0.3361000000004424
532,1,0.2,1.0,-35.0,-1,1.0,1.154200000000401
533,1,0.2,0.0,-35.0,-1,1.0,2.0096000000003187
534,1,0.2,0.25,35.0,1,1.0,0.30749999999989086
535,1,0.2,0.0625,35.0,-1,0.0,0.586500000000342
536,1,0.2,1.0,-35.0,-1,1.0,0.25440000000025975
537,1,0.2,0.0,35.0,-1,0.0,0.18990000000030705
538,1,0.2,0.0,35.0,-1,0.0,0.4311000000002423
539,1,0.2,0.0625,35.0,1,1.0,0.3368999999997868
540,1,0.2,1.0,35.0,1,1.0,0.22490000000016153
541,1,0.2,0.25,35.0,1,1.0,0.34029999999984284
542,1,0.2,1.0,35.0,1,1.0,0.24499999999989086
543,1,0.2,0.25,35.0,1,1.0,0.2903999999998632
544,1,0.2,0.0625,35.0,1,1.0,0.5716000000002168
545,1,0.2,0.125,-35.0,-1,1.0,0.46370000000024447
546,1,0.2,0.0,-35.0,-1,1.0,0.20859999999993306
547,1,0.2,0.0,35.0,-1,0.0,0.29060000000026776
548,1,0.8,0.0,-35.0,-1,1.0,0.5052000000005137
549,1,0.8,0.125,-35.0,-1,1.0,0.19069999999965148
550,1,0.8,0.0,35.0,-1,0.0,0.5218000000004395
551,1,0.8,0.0625,-35.0,-1,1.0,0.13770000000022264
552,1,0.8,0.0,-35.0,-1,1.0,0.2921000000001186
553,1,0.8,1.0,35.0,1,1.0,0.2743000000000393
554,1,0.8,1.0,-35.0,-1,1.0,1.145600000000286
555,1,0.8,0.0,-35.0,-1,1.0,0.29109999999991487
556,1,0.8,1.0,-35.0,-1,1.0,0.24240000000008877
557,1,0.8,0.0625,35.0,1,1.0,0.27470000000039363
558,1,0.8,0.25,-35.0,-1,1.0,0.6791000000002896
559,1,0.8,0.25,-35.0,-1,1.0,0.27930000000014843
560,1,0.8,0.125,-35.0,-1,1.0,0.2593000000001666
561,1,0.8,0.25,-35.0,-1,1.0,0.6651000000001659
562,1,0.8,0.25,-35.0,-1,1.0,0.18960000000015498
563,1,0.8,0.0,-35.0,-1,1.0,0.32860000000027867
564,1,0.8,0.0,35.0,-1,0.0,0.33969999999999345
565,1,0.8,0.0625,-35.0,-1,1.0,0.4187000000001717
566,1,0.8,1.0,-35.0,-1,1.0,0.323500000000422
567,1,0.8,0.25,35.0,1,1.0,0.5189000000000306
568,1,0.8,0.0625,-35.0,1,0.0,0.8336000000003878
569,1,0.8,0.0,-35.0,-1,1.0,0.21590000000014697
570,1,0.8,0.0,35.0,-1,0.0,0.3969999999999345
571,1,0.8,0.0625,-35.0,-1,1.0,0.3359000000004926
572,1,0.2,1.0,35.0,1,1.0,0.35710000000017317
573,1,0.2,1.0,-35.0,-1,1.0,0.4859999999998763
574,1,0.2,0.0625,-35.0,-1,1.0,0.4371000000001004
575,1,0.2,0.125,-35.0,-1,1.0,0.21610000000009677
576,1,0.2,0.25,35.0,1,1.0,0.5907000000006519
577,1,0.2,0.125,35.0,1,1.0,0.49299999999993815
578,1,0.2,1.0,35.0,1,1.0,0.27420000000029177
579,1,0.2,1.0,35.0,1,1.0,0.5596000000005006
580,1,0.2,0.125,-35.0,-1,1.0,0.21450000000004366
581,1,0.2,0.0,35.0,-1,0.0,0.4764000000004671
582,1,0.2,0.25,35.0,1,1.0,0.33770000000004075
583,1,0.2,0.0625,35.0,1,1.0,0.9601000000006934
584,1,0.2,1.0,35.0,1,1.0,0.314600000000155
585,1,0.2,0.0,35.0,-1,0.0,0.3867000000000189
586,1,0.2,0.0625,35.0,1,1.0,0.6013000000002648
587,1,0.2,0.25,35.0,1,1.0,0.29700000000002547
588,1,0.2,0.0625,-35.0,-1,1.0,0.4782000000000153
589,1,0.2,0.0625,35.0,1,1.0,0.3206000000000131
590,1,0.2,0.25,35.0,1,1.0,0.288300000000163
591,1,0.2,0.125,35.0,1,1.0,0.9238000000000284
592,1,0.2,0.0,-35.0,1,0.0,0.7087000000005901
593,1,0.2,0.0,-35.0,-1,1.0,0.4608000000002903
594,1,0.2,0.25,35.0,1,1.0,0.3753999999998996
595,1,0.2,0.125,35.0,1,1.0,0.3609000000001288
596,1,0.2,0.0,35.0,-1,0.0,0.3188999999997577
597,1,0.2,0.25,35.0,1,1.0,0.6178000000004431
598,1,0.2,1.0,35.0,1,1.0,0.31890000000021246
599,1,0.2,0.25,-35.0,1,0.0,0.3579000000004271
600,1,0.2,0.0625,-35.0,-1,1.0,0.19250000000010914
601,1,0.2,0.0625,35.0,-1,0.0,0.3647000000000844
602,1,0.2,0.0,35.0,-1,0.0,0.4124000000001615
603,1,0.2,0.125,35.0,1,1.0,0.38150000000041473
604,1,0.2,0.0625,35.0,1,1.0,0.34930000000031214
605,1,0.2,0.0625,35.0,1,1.0,0.3750999999997475
606,1,0.8,0.0625,-35.0,1,0.0,0.6663000000003194
607,1,0.8,0.0625,-35.0,-1,1.0,0.33530000000018845
608,1,0.8,0.0625,-35.0,-1,1.0,0.3966000000000349
609,1,0.8,0.0,-35.0,-1,1.0,0.37190000000009604
610,1,0.8,0.125,-35.0,-1,1.0,0.3834999999999127
611,1,0.8,0.125,35.0,-1,0.0,0.6020000000003165
612,1,0.8,0.125,35.0,-1,0.0,0.2971000000006825
613,1,0.8,0.125,35.0,1,1.0,0.8623999999999796
614,1,0.8,0.0625,35.0,1,1.0,0.5401999999999134
615,1,0.8,0.125,35.0,1,1.0,0.35900000000037835
616,1,0.8,0.0625,35.0,-1,0.0,0.3935999999998785
617,1,0.8,1.0,-35.0,-1,1.0,0.37279999999964275
618,1,0.8,0.0,-35.0,-1,1.0,0.26729999999997744
619,1,0.8,0.0625,-35.0,-1,1.0,0.29959999999982756
620,1,0.8,1.0,-35.0,-1,1.0,0.20080000000007203
621,1,0.8,0.25,-35.0,-1,1.0,0.2964000000001761
622,1,0.8,0.25,-35.0,-1,1.0,0.36100000000033106
623,1,0.8,0.125,35.0,1,1.0,0.32660000000032596
624,1,0.8,0.25,-35.0,-1,1.0,0.7044000000000779
625,1,0.8,1.0,-35.0,-1,1.0,0.5013000000003558
626,1,0.8,0.0,-35.0,-1,1.0,0.2270000000003165
627,1,0.8,1.0,-35.0,-1,1.0,0.22800000000052023
628,1,0.8,1.0,-35.0,-1,1.0,0.6234999999996944
629,1,0.8,1.0,-35.0,-1,1.0,0.3014000000002852
630,1,0.8,0.0625,-35.0,-1,1.0,0.5235999999999876
631,1,0.8,1.0,-35.0,-1,1.0,0.6684999999997672
632,1,0.8,0.0,35.0,-1,0.0,0.1673000000000684
633,1,0.8,1.0,-35.0,-1,1.0,0.2519999999999527
634,1,0.8,0.125,-35.0,-1,1.0,0.17410000000018044
635,1,0.8,0.25,-35.0,-1,1.0,0.6720000000004802
636,1,0.8,0.0,-35.0,-1,1.0,0.3243000000002212
637,1,0.8,0.0625,-35.0,-1,1.0,1.032100000000355
638,1,0.8,0.25,-35.0,-1,1.0,0.15779999999995198
639,1,0.8,0.125,-35.0,-1,1.0,0.2290000000002692
640,1,0.8,0.0,-35.0,-1,1.0,0.17120000000022628
641,1,0.8,1.0,-35.0,-1,1.0,0.32600000000002183
642,1,0.8,0.0625,35.0,-1,0.0,0.7047999999999774
643,1,0.8,1.0,-35.0,-1,1.0,0.39609999999993306
644,1,0.2,0.25,35.0,1,1.0,0.2684999999996762
645,1,0.2,0.25,35.0,1,1.0,0.3328000000001339
646,1,0.2,0.25,-35.0,-1,1.0,2.468399999999747
647,1,0.2,0.0625,35.0,1,1.0,0.40630000000010114
648,1,0.2,0.25,35.0,1,1.0,0.27850000000034925
649,1,0.2,0.125,35.0,1,1.0,0.25680000000011205
650,1,0.2,0.25,35.0,1,1.0,0.27539999999999054
651,1,0.2,0.0,35.0,-1,0.0,0.5166000000003805
652,1,0.2,0.25,35.0,1,1.0,0.3023000000002867
653,1,0.2,0.125,-35.0,1,0.0,0.3370999999997366
654,1,0.2,0.25,35.0,1,1.0,0.24260000000003856
655,1,0.2,0.0625,35.0,1,1.0,0.3604000000000269
656,1,0.2,0.125,35.0,1,1.0,0.2561000000000604
657,1,0.2,0.125,35.0,1,1.0,0.2739000000001397
658,1,0.2,0.0,35.0,1,1.0,1.0428000000001703
659,1,0.2,0.0,35.0,-1,0.0,0.5306000000000495
660,1,0.2,1.0,35.0,1,1.0,0.2896000000005188
661,1,0.2,0.125,35.0,1,1.0,0.3174000000003616
662,1,0.2,0.0,35.0,1,1.0,0.3362999999999374
663,1,0.2,0.25,35.0,1,1.0,0.26749999999992724
664,1,0.2,0.0625,35.0,1,1.0,0.23640000000023065
665,1,0.2,1.0,35.0,1,1.0,0.24450000000024374
666,1,0.2,1.0,-35.0,1,0.0,0.31650000000036016
667,1,0.2,1.0,-35.0,1,0.0,0.3979999999996835
668,1,0.2,1.0,35.0,1,1.0,0.2867999999998574
669,1,0.2,0.25,35.0,1,1.0,0.2913000000003194
670,1,0.2,1.0,35.0,1,1.0,0.24369999999953507
671,1,0.2,0.25,35.0,1,1.0,0.3215000000004693
672,1,0.2,0.0625,35.0,-1,0.0,3.207100000000082
673,1,0.2,0.125,35.0,-1,0.0,0.6116000000001804
674,1,0.2,0.125,-35.0,-1,1.0,0.31399999999985084
675,1,0.2,1.0,35.0,1,1.0,0.7921000000001186
676,1,0.2,0.0,-35.0,1,0.0,10.094099999999798
677,1,0.2,0.125,35.0,1,1.0,0.48889999999983047
678,1,0.2,1.0,35.0,1,1.0,0.26430000000027576
679,1,0.2,0.0,35.0,-1,0.0,0.6156000000000859
680,1,0.2,0.0,35.0,-1,0.0,0.561200000000099
681,1,0.2,0.0625,35.0,1,1.0,0.4558999999999287
682,1,0.2,0.0,35.0,-1,0.0,0.5145999999999731
683,1,0.2,1.0,35.0,1,1.0,0.20600000000013097
684,1,0.2,0.0625,35.0,-1,0.0,0.21829999999999927
685,1,0.2,1.0,35.0,1,1.0,0.25970000000052096
686,1,0.2,0.0,35.0,1,1.0,0.6349000000004708
687,1,0.2,1.0,35.0,1,1.0,0.269800000000032
688,1,0.2,0.125,35.0,1,1.0,0.3283999999998741
689,1,0.2,1.0,35.0,1,1.0,0.2529999999997017
690,1,0.2,0.25,35.0,1,1.0,0.3486000000002605
691,1,0.2,0.125,35.0,1,1.0,0.32009900000002744
692,1,0.2,1.0,-35.0,1,0.0,0.3987000000001899
693,1,0.2,0.0,35.0,-1,0.0,0.2402999999999338
694,1,0.2,1.0,-35.0,-1,1.0,0.15570000000025175
695,1,0.2,1.0,35.0,1,1.0,0.26710000000002765
696,1,0.2,0.0,35.0,-1,0.0,0.5091999999999643
697,1,0.2,0.125,35.0,-1,0.0,0.27040000000033615
698,1,0.2,0.25,35.0,1,1.0,0.24950000000035288
699,1,0.2,1.0,35.0,1,1.0,0.23720000000002983
700,1,0.2,0.0,-35.0,-1,1.0,0.5660000000002583
701,1,0.2,0.0,35.0,-1,0.0,0.604200000000219
702,1,0.2,0.25,-35.0,1,0.0,0.3029999999998836
703,1,0.2,1.0,35.0,1,1.0,0.32100000000036744
704,1,0.2,1.0,35.0,1,1.0,0.25640000000021246
705,1,0.2,0.0,35.0,-1,0.0,0.5143000000002758
706,1,0.2,0.25,35.0,1,1.0,0.33330000000023574
707,1,0.2,0.25,-35.0,-1,1.0,0.8414000000002488
708,1,0.2,1.0,35.0,1,1.0,0.29359999999996944
709,1,0.2,0.25,35.0,1,1.0,0.2980999999999767
710,1,0.2,0.125,35.0,1,1.0,0.29359999999996944
711,1,0.2,1.0,35.0,1,1.0,0.2849999999998545
712,1,0.2,0.0625,35.0,1,1.0,0.3905000000004293
713,1,0.2,1.0,35.0,1,1.0,0.2650000000003274
714,1,0.2,0.0625,-35.0,-1,1.0,0.35399999999981446
715,1,0.2,0.125,35.0,1,1.0,0.8553000000001703
716,1,0.2,1.0,35.0,1,1.0,0.2674000000001797
717,1,0.2,0.125,35.0,1,1.0,0.37199999999984357
718,1,0.2,0.0,-35.0,-1,1.0,0.24420000000009168
719,1,0.2,1.0,35.0,1,1.0,0.2755000000001928
720,1,0.2,1.0,35.0,1,1.0,0.2944999999999709
721,1,0.2,0.25,35.0,1,1.0,0.27899999999999636
722,1,0.8,1.0,-35.0,-1,1.0,0.38790000000017244
723,1,0.8,0.0625,-35.0,-1,1.0,0.33910000000014406
724,1,0.8,0.25,-35.0,-1,1.0,0.42810000000008586
725,1,0.8,0.0625,-35.0,-1,1.0,0.2195000000001528
726,1,0.8,0.25,-35.0,-1,1.0,0.38819999999986976
727,1,0.8,0.125,-35.0,-1,1.0,0.27970000000050277
728,1,0.8,0.25,-35.0,-1,1.0,0.14199999999982538
729,1,0.8,0.0625,-35.0,-1,1.0,0.22289999999975407
730,1,0.8,0.0625,35.0,-1,0.0,0.28190000000040527
731,1,0.8,0.125,-35.0,-1,1.0,0.4863000000000284
732,1,0.8,0.0625,-35.0,-1,1.0,0.31510000000025684
733,1,0.8,0.25,-35.0,-1,1.0,0.42020000000002256
734,1,0.8,0.25,-35.0,-1,1.0,0.1888000000003558
735,1,0.8,1.0,-35.0,-1,1.0,0.35330000000021755
736,1,0.8,1.0,-35.0,-1,1.0,0.5990000000001601
737,1,0.8,1.0,35.0,1,1.0,0.43679999999994834
738,1,0.8,0.0625,35.0,1,1.0,0.3757000000005064
739,1,0.8,1.0,-35.0,-1,1.0,0.37370000000009895
740,1,0.8,0.25,-35.0,-1,1.0,0.2458000000001448
741,1,0.8,1.0,-35.0,-1,1.0,0.6736999999998261
742,1,0.2,0.0625,-35.0,-1,1.0,0.22310000000061336
743,1,0.2,0.125,35.0,-1,0.0,0.3508999999999105
744,1,0.2,1.0,35.0,1,1.0,0.32629999999971915
745,1,0.2,0.0,35.0,-1,0.0,0.4940000000001419
746,1,0.2,0.25,35.0,1,1.0,0.4295999999999367
747,1,0.2,1.0,35.0,1,1.0,0.3442000000000007
748,1,0.2,0.25,35.0,1,1.0,0.2464999999997417
749,1,0.2,0.0625,-35.0,1,0.0,0.9011000000000422
750,1,0.2,0.125,35.0,1,1.0,0.28680000000031214
751,1,0.2,0.25,35.0,1,1.0,0.28450000000020736
752,1,0.2,0.25,35.0,1,1.0,0.2535000000002583
753,1,0.2,0.125,-35.0,-1,1.0,0.33460000000059154
754,1,0.2,0.125,35.0,1,1.0,0.19030000000066138
755,1,0.2,0.0625,35.0,1,1.0,0.3247999999998683
756,1,0.2,0.25,35.0,1,1.0,0.19700000000057116
757,1,0.2,1.0,-35.0,-1,1.0,0.4048999999999978
758,1,0.2,0.0,-35.0,-1,1.0,0.29719999999997526
759,1,0.2,1.0,35.0,1,1.0,0.2986000000000786
760,1,0.2,1.0,35.0,1,1.0,0.27719999999999345
761,1,0.2,0.125,-35.0,-1,1.0,0.5752999999999702
762,1,0.2,0.25,35.0,1,1.0,0.34760000000005675
763,1,0.2,0.0,35.0,-1,0.0,0.7420999999999367
764,1,0.2,0.0,35.0,-1,0.0,0.34440000000040527
765,1,0.2,0.125,35.0,1,1.0,0.27899999999999636
766,1,0.2,0.0625,35.0,1,1.0,0.3745000000003529
767,1,0.2,1.0,35.0,1,1.0,0.2424999999998363
768,1,0.2,0.125,-35.0,-1,1.0,0.48489999999992506
769,1,0.2,0.125,35.0,1,1.0,0.34920000000010987
770,1,0.2,0.0,35.0,-1,0.0,0.5449000000003252
771,1,0.2,0.0,35.0,-1,0.0,3.6194000000000415
772,1,0.2,0.0,35.0,-1,0.0,2.4682999999999993
773,1,0.2,0.125,-35.0,-1,1.0,0.33320000000003347
774,1,0.2,0.0625,-35.0,-1,1.0,0.5520999999998821
775,1,0.2,1.0,35.0,1,1.0,0.24319999999988795
776,1,0.2,1.0,35.0,1,1.0,0.3085000000000946
777,1,0.2,0.25,35.0,1,1.0,0.2235000000000582
778,1,0.2,0.125,35.0,1,1.0,0.5158000000005813
779,1,0.2,1.0,35.0,1,1.0,0.2634000000002743
780,1,0.2,0.25,35.0,1,1.0,0.3558000000002721
781,1,0.2,1.0,35.0,1,1.0,0.24710000000004584
782,1,0.2,0.25,-35.0,-1,1.0,0.5991000000003623
783,1,0.2,0.0625,-35.0,1,0.0,0.35410000000001673
784,1,0.2,0.25,-35.0,-1,1.0,0.2960000000002765
785,1,0.2,0.125,-35.0,-1,1.0,0.5739000000003216
786,1,0.2,0.0625,35.0,-1,0.0,0.4629000000004453
787,1,0.2,0.25,35.0,1,1.0,0.36770000000024083
788,1,0.2,0.125,35.0,1,1.0,0.16640000000006694
789,1,0.2,1.0,35.0,1,1.0,0.33100000000013097
790,1,0.2,1.0,35.0,1,1.0,0.2632000000003245
791,1,0.8,0.0625,-35.0,-1,1.0,2.221100000000206
792,1,0.8,0.0,-35.0,-1,1.0,0.3432999999999993
793,1,0.8,0.25,-35.0,-1,1.0,0.5416000000000167
794,1,0.8,0.25,-35.0,-1,1.0,0.4837000000002263
795,1,0.8,0.25,-35.0,-1,1.0,0.3915999999999258
796,1,0.8,0.0,-35.0,-1,1.0,0.43699999999989814
797,1,0.8,0.125,-35.0,-1,1.0,0.3020000000001346
798,1,0.8,0.25,-35.0,-1,1.0,0.284099999999853
799,1,0.8,0.0,-35.0,-1,1.0,0.5151000000005297
800,1,0.8,0.0625,35.0,-1,0.0,0.4020000000004984
801,1,0.8,0.25,35.0,1,1.0,0.4374000000002525
802,1,0.8,0.125,-35.0,1,0.0,0.35530000000017026
803,1,0.8,0.0625,-35.0,-1,1.0,0.46430000000009386
804,1,0.8,0.25,35.0,1,1.0,0.3654999999998836
805,1,0.8,0.125,-35.0,-1,1.0,0.21790000000009968
806,1,0.8,1.0,35.0,1,1.0,0.30609999999978754
807,1,0.8,0.0,-35.0,-1,1.0,0.5080000000002656
808,1,0.8,0.125,35.0,1,1.0,0.6226000000001477
809,1,0.8,1.0,-35.0,-1,1.0,0.5216000000000349
810,1,0.8,0.25,-35.0,-1,1.0,0.28589999999985594
811,1,0.8,1.0,-35.0,-1,1.0,0.7148999999999432
812,1,0.8,1.0,-35.0,-1,1.0,0.6261999999996988
813,1,0.8,0.125,35.0,1,1.0,0.6597000000001572
814,1,0.8,0.0625,-35.0,-1,1.0,0.3863000000001193
815,1,0.8,0.25,-35.0,-1,1.0,0.4153000000001157
816,1,0.8,1.0,-35.0,-1,1.0,0.4598999999998341
817,1,0.8,1.0,-35.0,-1,1.0,0.3787000000002081
818,1,0.8,1.0,-35.0,-1,1.0,0.45650000000023283
819,1,0.8,1.0,-35.0,-1,1.0,0.2690000000006876
820,1,0.8,0.125,-35.0,-1,1.0,0.6067000000002736
821,1,0.8,0.125,35.0,-1,0.0,3.0623999999997977
822,1,0.8,0.125,-35.0,-1,1.0,1.2339999999999236
823,1,0.8,0.125,-35.0,-1,1.0,0.3726000000001477
824,1,0.8,0.0,-35.0,-1,1.0,0.2674000000001797
825,1,0.8,0.25,-35.0,-1,1.0,0.2895000000003165
826,1,0.8,0.125,-35.0,-1,1.0,0.5341000000003078
827,1,0.8,1.0,-35.0,-1,1.0,0.29639999999972133
828,1,0.8,0.0,-35.0,-1,1.0,0.41780000000017026
829,1,0.8,0.125,35.0,-1,0.0,0.4466000000002168
830,1,0.2,0.0,35.0,-1,0.0,0.40120000000024447
831,1,0.2,1.0,-35.0,-1,1.0,0.6066000000000713
832,1,0.2,0.125,35.0,1,1.0,0.3380000000001928
833,1,0.2,1.0,-35.0,-1,1.0,0.3435000000004038
834,1,0.2,0.25,35.0,1,1.0,0.24470000000019354
835,1,0.2,0.125,35.0,1,1.0,0.6303000000002612
836,1,0.2,0.0,35.0,-1,0.0,0.20499999999992724
837,1,0.2,0.0,35.0,-1,0.0,0.3305000000000291
838,1,0.2,0.0,35.0,-1,0.0,0.3018000000001848
839,1,0.2,1.0,35.0,1,1.0,0.23720000000002983
840,1,0.2,0.125,35.0,1,1.0,0.7219000000004598
841,1,0.2,0.0625,-35.0,-1,1.0,0.41400000000021464
842,1,0.2,1.0,35.0,1,1.0,0.3022000000000844
843,1,0.2,1.0,35.0,1,1.0,0.2242999999998574
844,1,0.2,0.0625,35.0,1,1.0,0.6821999999997388
845,1,0.2,0.25,35.0,1,1.0,0.41120000000046275
846,1,0.2,1.0,35.0,1,1.0,0.2758000000003449
847,1,0.2,0.0625,35.0,1,1.0,0.9747000000002117
848,1,0.2,0.0625,35.0,1,1.0,0.31950000000006185
849,1,0.2,1.0,35.0,1,1.0,0.21800000000030195
850,1,0.2,0.125,-35.0,-1,1.0,0.2359999999998763
851,1,0.2,0.0625,35.0,-1,0.0,0.25480000000015934
852,1,0.2,0.0,-35.0,-1,1.0,1.0128999999997177
853,1,0.8,0.0625,-35.0,-1,1.0,2.6986000000006243
854,1,0.8,0.25,35.0,1,1.0,0.2764999999999418
855,1,0.8,0.0625,-35.0,-1,1.0,0.6155000000003383
856,1,0.8,0.25,-35.0,-1,1.0,0.2867999999998574
857,1,0.8,1.0,-35.0,-1,1.0,0.3787000000002081
858,1,0.8,0.0,-35.0,-1,1.0,0.5869999999999891
859,1,0.8,1.0,-35.0,-1,1.0,0.2822999999998501
860,1,0.8,1.0,-35.0,-1,1.0,0.35359999999991487
861,1,0.8,0.125,-35.0,-1,1.0,0.3158000000003085
862,1,0.8,0.25,-35.0,-1,1.0,0.35730000000012296
863,1,0.8,1.0,-35.0,-1,1.0,0.5193000000003849
864,1,0.8,0.25,35.0,1,1.0,0.3006000000000313
865,1,0.8,1.0,-35.0,-1,1.0,0.452900000000227
866,1,0.8,1.0,35.0,1,1.0,0.29739999999992506
867,1,0.8,0.0625,35.0,1,1.0,0.3564000000001215
868,1,0.8,1.0,-35.0,-1,1.0,0.21439999999984138
869,1,0.8,0.25,-35.0,-1,1.0,0.4764999999997599
870,1,0.8,0.25,-35.0,-1,1.0,0.6344000000003689
871,1,0.8,0.125,-35.0,-1,1.0,0.12000000000034561
872,1,0.8,0.0625,-35.0,-1,1.0,0.47119999999995343
873,1,0.8,1.0,-35.0,-1,1.0,0.37689999999975043
874,1,0.8,1.0,-35.0,-1,1.0,0.464900000000398
875,1,0.8,0.0625,-35.0,-1,1.0,0.18380000000024665
876,1,0.8,0.25,-35.0,-1,1.0,0.30159999999978027
877,1,0.8,1.0,-35.0,-1,1.0,0.3137000000001535
878,1,0.8,0.125,-35.0,-1,1.0,0.3771999999999025
879,1,0.8,0.0,35.0,-1,0.0,0.5717999999997119
880,1,0.8,0.25,-35.0,-1,1.0,0.500999999999749
881,1,0.8,0.0,-35.0,-1,1.0,0.3989000000001397
882,1,0.8,1.0,35.0,1,1.0,0.1744000000003325
883,1,0.8,0.0,-35.0,1,0.0,0.4056000000000495
884,1,0.8,0.0,-35.0,-1,1.0,0.41460000000006403
885,1,0.8,1.0,-35.0,-1,1.0,0.23250000000007276
886,1,0.8,0.125,-35.0,-1,1.0,0.407799999999952
887,1,0.8,0.125,-35.0,-1,1.0,0.16280000000006112
888,1,0.8,0.25,-35.0,-1,1.0,0.15159999999968932
889,1,0.8,0.125,-35.0,-1,1.0,0.21959999999990032
890,1,0.8,1.0,35.0,1,1.0,0.3018000000001848
891,1,0.8,0.0,-35.0,-1,1.0,0.30960000000004584
892,1,0.8,1.0,-35.0,-1,1.0,2.2485999999998967
893,1,0.8,1.0,-35.0,-1,1.0,0.7868000000003121
894,1,0.8,0.0625,-35.0,-1,1.0,6.1854000000003
895,1,0.8,0.125,-35.0,-1,1.0,2.1267000000002554
896,1,0.8,0.0625,-35.0,-1,1.0,0.4655999999999949
897,1,0.8,0.125,-35.0,-1,1.0,0.37680000000045766
898,1,0.8,0.0,-35.0,-1,1.0,0.32910000000038053
899,1,0.8,0.0625,-35.0,-1,1.0,0.6140000000000327
900,1,0.8,0.125,-35.0,-1,1.0,0.2058999999999287
901,1,0.8,0.125,-35.0,-1,1.0,0.8539000000000669
902,1,0.8,0.25,-35.0,-1,1.0,0.4228000000002794
903,1,0.8,1.0,-35.0,-1,1.0,1.0708999999997104
904,1,0.8,0.0625,-35.0,-1,1.0,0.4764999999997599
905,1,0.2,0.0,35.0,-1,0.0,2.234400000000278
906,1,0.2,0.125,35.0,-1,0.0,0.41320000000041546
907,1,0.2,0.125,35.0,1,1.0,0.3544000000001688
908,1,0.2,0.0,35.0,-1,0.0,0.3267000000000735
909,1,0.2,0.0,-35.0,-1,1.0,0.37800000000015643
910,1,0.2,1.0,35.0,1,1.0,0.34340000000020154
911,1,0.2,0.0625,35.0,1,1.0,0.3813000000000102
912,1,0.2,1.0,35.0,1,1.0,0.23700000000053478
913,1,0.2,0.0625,35.0,1,1.0,1.1351000000004206
914,1,0.2,0.0,35.0,-1,0.0,0.3670000000001892
915,1,0.2,0.125,35.0,1,1.0,0.34180000000014843
916,1,0.2,0.125,35.0,1,1.0,0.543999999999869
917,1,0.2,0.0625,35.0,1,1.0,0.441899999999805
918,1,0.2,0.0,35.0,-1,0.0,0.46070000000008804
919,1,0.2,0.0,35.0,-1,0.0,0.4189000000001215
920,1,0.2,0.125,35.0,1,1.0,0.38419999999996435
921,1,0.2,0.0625,35.0,-1,0.0,4.745600000000195
922,1,0.2,1.0,35.0,1,1.0,0.2681000000002314
923,1,0.2,0.25,-35.0,-1,1.0,0.8191000000001623
924,1,0.2,0.0,35.0,-1,0.0,0.551300000000083
925,1,0.2,1.0,35.0,1,1.0,0.3192000000003645
926,1,0.2,0.125,35.0,1,1.0,0.6480999999998858
927,1,0.2,1.0,35.0,1,1.0,0.2895000000003165
928,1,0.2,0.25,35.0,1,1.0,0.3083000000001448
929,1,0.2,0.0625,35.0,-1,0.0,0.41629999999986467
930,1,0.2,0.25,35.0,1,1.0,0.3018000000001848
931,1,0.2,0.0,35.0,1,1.0,1.3733999999999469
932,1,0.2,0.0625,-35.0,-1,1.0,0.6587000000004082
933,1,0.2,0.25,35.0,1,1.0,0.2998999999999796
934,1,0.2,0.0,35.0,-1,0.0,0.6220999999995911
935,1,0.2,0.0625,35.0,1,1.0,0.2768999999998414
936,1,0.2,0.0,-35.0,-1,1.0,0.3988999999992302
937,1,0.2,0.125,-35.0,1,0.0,0.36679999999978463
938,1,0.2,1.0,35.0,1,1.0,0.30569999999897846
939,1,0.2,1.0,35.0,1,1.0,0.27369999999973516
940,1,0.2,0.125,-35.0,-1,1.0,0.5426010000001042
941,1,0.2,0.0625,35.0,1,1.0,0.3438009999999849
942,1,0.2,1.0,35.0,1,1.0,0.27600100000017846
943,1,0.2,1.0,35.0,1,1.0,0.2042009999995571
944,1,0.2,0.25,35.0,1,1.0,0.20280099999945378
945,1,0.2,0.0,35.0,1,1.0,0.28080099999988306
946,1,0.2,0.0,35.0,1,1.0,0.5231009999997696
947,1,0.2,0.125,35.0,1,1.0,0.4880009999997128
948,1,0.2,0.125,35.0,1,1.0,0.3299010000000635
949,1,0.2,0.125,-35.0,-1,1.0,1.207800999999563
950,1,0.2,0.25,35.0,1,1.0,0.33670100000017555
951,1,0.2,0.0625,35.0,1,1.0,0.38460099999974773
952,1,0.2,1.0,35.0,1,1.0,0.287000999999691
953,1,0.2,0.125,35.0,1,1.0,0.1751009999998132
954,1,0.2,1.0,-35.0,1,0.0,0.2837009999993825
955,1,0.2,0.125,35.0,1,1.0,0.3883009999999558
956,1,0.2,0.0625,35.0,1,1.0,0.6138010000004215
957,1,0.2,0.125,-35.0,-1,1.0,0.6456010000001697
958,1,0.2,1.0,-35.0,-1,1.0,0.1674010000006092
959,1,0.2,0.25,35.0,1,1.0,0.28560100000049715
960,1,0.2,1.0,35.0,1,1.0,0.23080100000061066
961,1,0.2,0.0,35.0,-1,0.0,0.28230099999927916
962,1,0.2,0.125,35.0,1,1.0,0.36130099999991216
963,1,0.2,1.0,35.0,1,1.0,0.3259010000001581
964,1,0.2,0.125,-35.0,1,0.0,0.39780100000007224
965,1,0.2,0.0,-35.0,-1,1.0,0.7691009999998641
966,1,0.2,0.125,-35.0,-1,1.0,0.26470100000005914
967,1,0.2,0.125,35.0,-1,0.0,0.4362009999986185
968,1,0.2,0.125,35.0,1,1.0,0.788300999999592
969,1,0.2,0.0,35.0,-1,0.0,0.38640099999884114
970,1,0.2,1.0,35.0,1,1.0,0.3152010000003429
971,1,0.2,0.0,35.0,-1,0.0,0.7396010000002207
972,1,0.2,0.0625,35.0,1,1.0,0.4986010000002352
973,1,0.2,0.125,35.0,1,1.0,0.6166009999997186
974,1,0.2,1.0,-35.0,-1,1.0,0.6088009999994028
975,1,0.2,0.0,-35.0,-1,1.0,0.5068010000004506
976,1,0.2,0.0,35.0,-1,0.0,0.552400999999918
977,1,0.2,0.0625,35.0,1,1.0,0.7370010000004186
978,1,0.2,0.25,35.0,1,1.0,0.7627009999996517
979,1,0.2,0.0,35.0,-1,0.0,0.37380099999973027
980,1,0.2,0.125,35.0,1,1.0,0.3094010000004346
981,1,0.2,0.25,35.0,1,1.0,0.8776009999992311
982,1,0.2,0.0625,35.0,1,1.0,0.3597009999994043
983,1,0.2,1.0,35.0,1,1.0,0.3807010000000446
984,1,0.2,1.0,35.0,1,1.0,0.3763009999993301
985,1,0.2,0.0,-35.0,1,0.0,0.6277010000003429
986,1,0.2,0.0625,35.0,1,1.0,0.6064010000000053
987,1,0.2,0.125,-35.0,-1,1.0,0.89770099999987
988,1,0.2,0.0625,35.0,1,1.0,0.6300009999995382
989,1,0.2,0.0,35.0,1,1.0,0.6445009999997637
990,1,0.2,0.0625,35.0,1,1.0,0.22670099999959348
991,1,0.2,0.125,35.0,1,1.0,0.32130099999903905
992,1,0.2,0.25,35.0,1,1.0,0.2704009999997652
993,1,0.2,1.0,35.0,1,1.0,0.2686009999997623
994,1,0.8,0.0625,-35.0,1,0.0,0.3637009999993097
995,1,0.8,0.0,-35.0,-1,1.0,1.1454009999997652
996,1,0.8,1.0,35.0,1,1.0,0.31060099999922386
997,1,0.8,0.0625,-35.0,-1,1.0,0.4818009999989954
998,1,0.8,1.0,35.0,1,1.0,0.3008009999994101
999,1,0.8,0.0,-35.0,-1,1.0,0.3854009999995469
1000,1,0.8,0.0,-35.0,-1,1.0,0.3109009999989212
1001,1,0.8,0.125,-35.0,-1,1.0,0.37900099999933445
1002,1,0.8,0.0625,-35.0,-1,1.0,0.3745009999993272
1003,1,0.8,0.25,-35.0,-1,1.0,0.3859009999987393
1004,1,0.8,0.0625,-35.0,-1,1.0,0.2814010000001872
1005,1,0.8,1.0,-35.0,-1,1.0,0.44590100000004895
1006,1,0.8,0.125,-35.0,-1,1.0,0.4082009999992806
1007,1,0.8,0.0625,-35.0,-1,1.0,0.3693010000006325
1008,1,0.8,0.25,-35.0,-1,1.0,0.538300999999592
1009,1,0.8,1.0,-35.0,-1,1.0,0.34630099999958475
1010,1,0.8,0.125,-35.0,-1,1.0,0.8784009999990303
1011,1,0.8,0.0625,-35.0,-1,1.0,0.5133009999999558
1012,1,0.8,0.25,-35.0,-1,1.0,0.8054009999996197
1013,1,0.8,1.0,35.0,1,1.0,0.37010100000043167
1014,1,0.8,0.0,-35.0,-1,1.0,2.8620010000004186
1015,1,0.8,0.0,-35.0,-1,1.0,0.3200010000000475
1016,1,0.8,0.25,-35.0,-1,1.0,0.2524009999997361
1017,1,0.8,0.25,-35.0,-1,1.0,0.27710099999967497
1018,1,0.8,0.0625,-35.0,-1,1.0,0.2757999999994354
1019,1,0.8,0.0625,-35.0,-1,1.0,0.5304009999999835
1020,1,0.8,0.0,-35.0,-1,1.0,0.4126009999990856
1021,1,0.8,0.0625,35.0,-1,0.0,0.36070099999869853
1022,1,0.8,0.25,-35.0,-1,1.0,0.269600999999966
1023,1,0.8,0.25,-35.0,-1,1.0,0.47420099999908416
1024,1,0.8,1.0,-35.0,-1,1.0,0.5162009999994552
1025,1,0.8,0.125,35.0,-1,0.0,0.4144009999990885
1026,1,0.8,0.0,-35.0,-1,1.0,0.40330100000028324
1027,1,0.8,1.0,-35.0,-1,1.0,0.3645010000000184
1028,1,0.8,0.0625,35.0,-1,0.0,0.4233009999998103
1029,1,0.8,0.125,-35.0,-1,1.0,1.2150009999995746
1030,1,0.8,0.0,-35.0,-1,1.0,0.4270010000000184
1031,1,0.8,0.0625,-35.0,-1,1.0,0.4414010000000417
1032,1,0.8,0.25,-35.0,-1,1.0,0.6736009999995076
1033,1,0.8,0.0,-35.0,-1,1.0,0.70180099999925
1034,1,0.8,0.0,-35.0,-1,1.0,0.3340009999992617
1035,1,0.8,0.0625,-35.0,-1,1.0,0.3252009999987422
1036,1,0.8,1.0,-35.0,-1,1.0,0.5941009999996822
1037,1,0.8,0.0,-35.0,-1,1.0,0.36210099999971135
1038,1,0.8,0.0,-35.0,-1,1.0,0.22090099999968515
1039,1,0.8,0.0,-35.0,-1,1.0,0.3725010000007387
1040,1,0.8,0.0,35.0,-1,0.0,0.26430099999925005
1041,1,0.8,1.0,-35.0,-1,1.0,0.4925009999997201
1042,1,0.8,0.0625,-35.0,-1,1.0,0.3711009999997259
1043,1,0.8,0.25,-35.0,-1,1.0,0.36570099999971717
1044,1,0.8,1.0,-35.0,1,0.0,0.37460099999952945
1045,1,0.8,0.0,-35.0,-1,1.0,0.3593009999985952
1046,1,0.8,0.0,35.0,-1,0.0,0.44810099999995145
1047,1,0.8,0.0,35.0,-1,0.0,0.3130010000004404
1048,1,0.8,1.0,-35.0,-1,1.0,0.1483009999992646
1049,1,0.8,0.25,-35.0,-1,1.0,0.24620099999992817
1050,1,0.8,0.125,-35.0,-1,1.0,0.3284009999988484
1051,1,0.8,0.25,-35.0,-1,1.0,0.28640099999938684
1052,1,0.8,0.0,-35.0,-1,1.0,0.4019010000001799
1053,1,0.8,1.0,35.0,1,1.0,0.25990099999944505
1054,1,0.8,0.0625,-35.0,-1,1.0,0.24560099999962404
1055,1,0.8,0.125,-35.0,-1,1.0,0.47360099999878
1056,1,0.8,1.0,-35.0,-1,1.0,0.27900099999988015
1057,1,0.8,0.25,35.0,1,1.0,0.29340099999990343
1058,1,0.8,0.0,-35.0,-1,1.0,0.25590099999953964
1059,1,0.8,0.0625,-35.0,-1,1.0,0.32060100000035163
1060,1,0.8,0.0,-35.0,-1,1.0,0.2960009999997055
1061,1,0.8,0.25,-35.0,-1,1.0,0.353900999999496
1062,1,0.8,0.0625,-35.0,-1,1.0,0.3527009999997972
1063,1,0.8,0.0,-35.0,-1,1.0,0.14410099999986414
1064,1,0.8,1.0,-35.0,-1,1.0,0.34290099999998347
1065,1,0.8,0.125,-35.0,-1,1.0,0.43090100000063103
1066,1,0.8,0.125,-35.0,-1,1.0,0.1965010000003531
1067,1,0.8,0.0,-35.0,-1,1.0,0.5877009999994698
1068,1,0.8,0.125,-35.0,-1,1.0,0.20670099999915692
1069,1,0.8,0.0,-35.0,-1,1.0,0.40150099999937083
1070,1,0.8,0.25,-35.0,-1,1.0,0.5402009999997972
1071,1,0.8,0.25,35.0,1,1.0,0.3780009999991307
1072,1,0.8,0.0625,-35.0,-1,1.0,0.34700100000009115
1073,1,0.8,0.0625,35.0,1,1.0,0.6751009999998132
1074,1,0.8,0.0,-35.0,-1,1.0,0.40040099999987433
1075,1,0.8,0.125,-35.0,-1,1.0,0.3016010000001188
1076,1,0.8,1.0,-35.0,-1,1.0,0.25740099999893573
1077,1,0.8,0.0625,-35.0,-1,1.0,0.31870100000014645
1078,1,0.8,0.0,-35.0,-1,1.0,0.3973009999999704
1079,1,0.8,1.0,35.0,1,1.0,0.3987009999991642
1080,1,0.8,0.25,-35.0,-1,1.0,0.3277009999992515
1081,1,0.8,0.0,35.0,-1,0.0,0.4060009999993781
1082,1,0.8,0.0,-35.0,-1,1.0,0.43120099999941885
1083,1,0.8,1.0,-35.0,-1,1.0,0.45920099999966624
1084,1,0.8,0.0,-35.0,-1,1.0,0.5146009999989474
1085,1,0.8,0.0625,-35.0,-1,1.0,0.6430009999994581
1086,1,0.8,0.125,-35.0,-1,1.0,0.1582010000001901
1087,1,0.8,0.125,-35.0,-1,1.0,0.4462009999997463
1088,1,0.2,0.125,35.0,1,1.0,0.31170099999962986
1089,1,0.2,0.25,35.0,1,1.0,0.31290099999932863
1090,1,0.2,0.125,35.0,1,1.0,0.30180099999961385
1091,1,0.2,1.0,35.0,1,1.0,0.1965010000003531
1092,1,0.2,0.25,35.0,1,1.0,0.33520099999986996
1093,1,0.2,1.0,35.0,1,1.0,0.2031009999991511
1094,1,0.2,0.0,-35.0,1,0.0,0.2688010000001668
1095,1,0.2,0.0,-35.0,-1,1.0,0.5670009999994363
1096,1,0.2,0.0625,-35.0,-1,1.0,0.28230100000018865
1097,1,0.2,1.0,-35.0,-1,1.0,0.19710099999974773
1098,1,0.2,0.125,35.0,1,1.0,0.3527009999997972
1099,1,0.2,0.25,35.0,1,1.0,0.29700099999899976
1100,1,0.2,1.0,35.0,1,1.0,0.2226009999994858
1101,1,0.2,0.0,-35.0,1,0.0,1.7138009999998758
1102,1,0.2,1.0,35.0,1,1.0,0.2730009999986578
1103,1,0.2,0.25,-35.0,-1,1.0,0.4307010000002265
1104,1,0.2,0.0625,35.0,1,1.0,0.4399009999988266
1105,1,0.2,1.0,35.0,1,1.0,0.3278009999994538
1106,1,0.2,0.125,-35.0,-1,1.0,0.23310099999980594
1107,1,0.2,0.25,35.0,1,1.0,0.22430099999928643
1108,1,0.2,0.25,35.0,1,1.0,0.35000099999888334
1109,1,0.2,0.0625,35.0,1,1.0,0.364900999999918
1110,1,0.2,0.0625,-35.0,-1,1.0,0.6135009999989052
1111,1,0.2,0.0,35.0,-1,0.0,1.6018009999997957
1112,1,0.2,0.0625,35.0,-1,0.0,0.24030099999981758
1113,1,0.2,1.0,35.0,1,1.0,0.26170099999944796
1114,1,0.2,0.0,35.0,1,1.0,0.6940010000007533
1115,1,0.2,1.0,35.0,1,1.0,0.281700999998975
1116,1,0.2,0.0,35.0,1,1.0,0.8340010000001712
1117,1,0.2,0.25,35.0,1,1.0,0.3053009999994174
1118,1,0.2,0.0625,35.0,-1,0.0,0.2810009999993781
1119,1,0.2,0.0,35.0,-1,0.0,0.4289009999993141
1120,1,0.2,0.0,35.0,-1,0.0,0.45430099999975937
1121,1,0.2,0.25,35.0,1,1.0,0.24900099999922531
1122,1,0.2,0.25,35.0,-1,0.0,1.0145009999996546
1123,1,0.2,0.25,35.0,-1,0.0,0.7825009999996837
1124,1,0.2,0.0,35.0,-1,0.0,0.3747009999997317
1125,1,0.2,0.0625,35.0,1,1.0,5.033100999999988
1126,1,0.2,0.125,35.0,-1,0.0,5.381701000000248
1127,1,0.2,0.0,35.0,-1,0.0,2.1266009999990274
1128,1,0.2,0.0,35.0,1,1.0,2.5688009999994392
1129,1,0.2,1.0,35.0,1,1.0,0.3700010000002294
1130,1,0.2,0.0625,-35.0,-1,1.0,0.6020009999992908
1131,1,0.2,0.25,35.0,1,1.0,0.2935009999991962
1132,1,0.2,0.0625,-35.0,-1,1.0,0.4589009999990594
1133,1,0.2,0.0,35.0,-1,0.0,0.3502009999992879
1134,1,0.2,1.0,35.0,1,1.0,0.26580100000046514
1135,1,0.2,0.0,35.0,-1,0.0,0.38710099999934755
1136,1,0.2,0.25,35.0,1,1.0,0.6757010000001173
1137,1,0.2,0.0,35.0,-1,0.0,3.574000999999953
1138,1,0.2,0.25,35.0,1,1.0,0.2894009999990885
1139,1,0.2,0.0625,35.0,1,1.0,0.5740009999999529
1140,1,0.2,0.0625,35.0,1,1.0,0.6863009999997303
1141,1,0.2,1.0,35.0,1,1.0,0.43090099999972153
1142,1,0.2,1.0,35.0,1,1.0,0.3696009999994203
1143,1,0.2,1.0,35.0,1,1.0,0.4677010000004884
1144,1,0.2,0.25,35.0,1,1.0,0.3631009999990056
1145,1,0.2,1.0,-35.0,1,0.0,0.6912009999996371
1146,1,0.2,0.0,-35.0,1,0.0,0.36350100000072416
1147,1,0.2,0.0625,35.0,1,1.0,0.6550009999991744
1148,1,0.2,0.0,35.0,-1,0.0,0.5867010000001756
1149,1,0.2,0.0625,35.0,1,1.0,0.6384009999992486
1150,1,0.2,1.0,-35.0,-1,1.0,0.35360099999979866
1151,1,0.2,1.0,35.0,1,1.0,0.30840100000023085
1152,1,0.2,0.25,35.0,1,1.0,0.353900999999496
1153,1,0.2,0.0,35.0,-1,0.0,3.761700999999448
1154,1,0.2,1.0,35.0,1,1.0,0.3840009999994436
1155,1,0.2,0.125,35.0,1,1.0,0.5355009999993854
1156,1,0.2,0.0,35.0,-1,0.0,0.7676009999995586
1157,1,0.2,1.0,-35.0,1,0.0,0.8823009999987335
1158,1,0.2,0.0,35.0,-1,0.0,6.47110099999918
1159,1,0.2,0.0,35.0,-1,0.0,0.36570100000062666
1160,1,0.2,0.25,-35.0,-1,1.0,0.45810100000016973
1161,1,0.2,0.25,-35.0,-1,1.0,0.2960009999997055
1162,1,0.2,0.125,35.0,1,1.0,0.6216009999998278
1163,1,0.2,1.0,35.0,1,1.0,0.3561009999993985
1164,1,0.2,0.0,35.0,-1,0.0,0.36830100000042876
1165,1,0.2,0.125,35.0,1,1.0,0.7263009999996939
1166,1,0.2,0.0,35.0,-1,0.0,0.7353009999997084
1167,1,0.2,1.0,35.0,1,1.0,0.2633009999999558
1168,1,0.2,0.125,35.0,1,1.0,0.29190099999959784
1169,1,0.2,0.25,35.0,1,1.0,0.37320099999942613
1170,1,0.2,0.0625,35.0,1,1.0,0.6254009999993286
1171,1,0.2,0.0625,35.0,1,1.0,0.820200999998633
1172,1,0.2,0.0,35.0,-1,0.0,0.2656009999991511
1173,1,0.8,0.125,35.0,1,1.0,0.30040099999951053
1174,1,0.8,0.0,-35.0,-1,1.0,0.4391009999999369
1175,1,0.8,0.125,-35.0,-1,1.0,0.4637009999996735
1176,1,0.8,0.0625,-35.0,-1,1.0,0.27940099999977974
1177,1,0.8,1.0,35.0,1,1.0,0.23740099999940867
1178,1,0.8,0.25,-35.0,-1,1.0,0.47270100000059756
1179,1,0.8,1.0,-35.0,-1,1.0,0.45070099999975355
1180,1,0.8,0.25,-35.0,-1,1.0,0.44740100000035454
1181,1,0.8,0.125,-35.0,-1,1.0,0.3964010000008784
1182,1,0.8,0.0,-35.0,-1,1.0,0.5510009999998147
1183,1,0.8,0.0625,35.0,1,1.0,0.8700009999993199
1184,1,0.8,0.25,-35.0,-1,1.0,0.2813009999999849
1185,1,0.8,0.0625,-35.0,-1,1.0,0.7666009999993548
1186,1,0.8,0.25,-35.0,-1,1.0,0.48790099999951053
1187,1,0.8,1.0,35.0,1,1.0,0.34019999999964057
1188,1,0.8,0.125,-35.0,1,0.0,0.46480099999917
1189,1,0.8,0.0,-35.0,-1,1.0,0.19710100000065722
1190,1,0.8,0.25,-35.0,-1,1.0,4.114800999999716
1191,1,0.8,0.25,-35.0,-1,1.0,0.3071009999994203
1192,1,0.8,0.0,-35.0,-1,1.0,0.4085009999998874
1193,1,0.8,0.0625,-35.0,-1,1.0,0.4039009999996779
1194,1,0.8,1.0,-35.0,-1,1.0,0.3855010000006587
1195,1,0.8,0.25,-35.0,-1,1.0,0.5408009999991918
1196,1,0.8,0.25,-35.0,-1,1.0,0.4821009999996022
1197,1,0.8,0.125,-35.0,-1,1.0,0.4545010000001639
1198,1,0.8,0.0625,-35.0,-1,1.0,0.5290009999998802
1199,1,0.8,0.0625,-35.0,-1,1.0,0.16760099999919476
1200,1,0.8,0.25,-35.0,-1,1.0,0.30250100000012026
1201,1,0.8,0.125,-35.0,-1,1.0,0.6612999999997555
1202,1,0.8,0.25,-35.0,-1,1.0,0.30920099999912054
1203,1,0.8,0.0,-35.0,-1,1.0,0.4082010000001901
1204,1,0.8,1.0,-35.0,-1,1.0,0.4427009999999427
1205,1,0.8,1.0,-35.0,-1,1.0,0.42830099999991944
1206,1,0.8,0.0,-35.0,-1,1.0,0.4763010000006034
1207,1,0.8,0.125,-35.0,-1,1.0,0.41170099999999366
1208,1,0.8,0.0,-35.0,-1,1.0,0.4166009999999005
1209,1,0.8,1.0,35.0,1,1.0,0.2752009999994698
1210,1,0.8,0.25,-35.0,-1,1.0,0.4898009999997157
1211,1,0.8,1.0,-35.0,-1,1.0,0.2222009999995862
1212,1,0.2,0.0,35.0,-1,0.0,2.3970009999993636
1213,1,0.2,0.0,-35.0,-1,1.0,0.3289009999998598
1214,1,0.2,1.0,35.0,1,1.0,0.29710099999920203
1215,1,0.2,0.125,35.0,1,1.0,0.2825009999996837
1,2,0.5,0.25,-35.0,-1,1.0,0.6548000000000003
2,2,0.5,0.125,35.0,-1,0.0,0.7778000000000009
3,2,0.5,0.125,-35.0,-1,1.0,0.6104000000000003
4,2,0.5,1.0,35.0,1,1.0,0.32620000000000005
5,2,0.5,0.0625,-35.0,-1,1.0,0.8118000000000016
6,2,0.5,0.125,35.0,1,1.0,0.36540000000000106
7,2,0.5,0.0625,-35.0,-1,1.0,1.356300000000001
8,2,0.5,0.125,35.0,-1,0.0,0.3064999999999998
9,2,0.5,0.25,35.0,1,1.0,0.33440000000000225
10,2,0.5,0.0,-35.0,-1,1.0,0.21099999999999852
11,2,0.5,0.125,35.0,1,1.0,0.40789999999999793
12,2,0.5,0.0625,-35.0,-1,1.0,0.3260000000000005
13,2,0.5,1.0,35.0,1,1.0,0.28449900000000383
14,2,0.5,0.25,35.0,1,1.0,0.36129999999999995
15,2,0.5,1.0,35.0,1,1.0,0.2927999999999997
16,2,0.5,0.25,35.0,1,1.0,0.3323000000000036
17,2,0.5,0.0625,35.0,-1,0.0,0.5521000000000029
18,2,0.5,0.25,-35.0,1,0.0,0.35660000000000025
19,2,0.5,0.125,35.0,1,1.0,0.3067000000000064
20,2,0.5,0.125,35.0,-1,0.0,0.4175999999999931
21,2,0.5,0.0,-35.0,1,0.0,1.4139000000000124
22,2,0.5,1.0,35.0,1,1.0,0.630599999999987
23,2,0.5,0.0625,-35.0,-1,1.0,0.4223999999999961
24,2,0.5,0.0,35.0,-1,0.0,3.544000000000011
25,2,0.5,0.125,35.0,1,1.0,0.2991999999999848
26,2,0.5,0.0,35.0,-1,0.0,0.459699999999998
27,2,0.5,0.125,-35.0,-1,1.0,0.6295999999999822
28,2,0.5,0.0625,35.0,-1,0.0,3.5215999999999923
29,2,0.5,0.0625,35.0,1,1.0,0.3482999999999947
30,2,0.5,1.0,-35.0,-1,1.0,3.79910000000001
31,2,0.5,0.0,-35.0,-1,1.0,0.6393999999999949
32,2,0.5,0.0,-35.0,-1,1.0,2.8111000000000104
33,2,0.5,0.0,-35.0,-1,1.0,0.44249999999999545
34,2,0.5,0.25,35.0,-1,0.0,0.6365999999999872
35,2,0.5,0.25,35.0,1,1.0,0.35419999999999163
36,2,0.5,1.0,-35.0,-1,1.0,0.4714999999999918
37,2,0.5,0.0,-35.0,-1,1.0,0.3533999999999935
38,2,0.5,1.0,-35.0,-1,1.0,0.3760999999999797
39,2,0.5,1.0,-35.0,-1,1.0,0.43770000000000664
40,2,0.5,0.0,-35.0,-1,1.0,0.5012000000000114
41,2,0.5,0.0,35.0,-1,0.0,1.197999999999979
42,2,0.5,0.0,-35.0,-1,1.0,3.5793000000000177
43,2,0.5,0.0625,-35.0,-1,1.0,0.4743999999999744
44,2,0.5,0.0,35.0,-1,0.0,0.6030000000000086
45,2,0.5,0.125,-35.0,-1,1.0,0.28409999999999513
46,2,0.5,0.125,-35.0,-1,1.0,0.43489999999999895
47,2,0.5,1.0,35.0,1,1.0,0.2640999999999849
48,2,0.5,0.0,-35.0,-1,1.0,0.3171000000000106
49,2,0.5,0.25,-35.0,-1,1.0,0.3266000000000133
50,2,0.5,0.25,35.0,1,1.0,0.4239000000000033
51,2,0.5,0.0625,35.0,1,1.0,1.483600000000024
52,2,0.5,0.25,-35.0,1,0.0,0.5226000000000113
53,2,0.5,1.0,35.0,1,1.0,0.24959999999998672
54,2,0.5,0.25,35.0,1,1.0,0.919700000000006
55,2,0.5,0.25,35.0,1,1.0,0.5978000000000065
56,2,0.5,1.0,35.0,1,1.0,0.37119999999998754
57,2,0.5,0.0625,-35.0,-1,1.0,0.4800999999999931
58,2,0.5,0.0,35.0,1,1.0,0.6154999999999973
59,2,0.5,0.0,35.0,-1,0.0,0.42779999999999063
60,2,0.5,0.0625,35.0,1,1.0,0.6763000000000261
61,2,0.5,0.0,35.0,-1,0.0,0.43479999999999563
62,2,0.5,1.0,35.0,1,1.0,0.28010000000000446
63,2,0.5,0.25,-35.0,-1,1.0,0.3540999999999883
64,2,0.5,0.25,-35.0,-1,1.0,2.979799999999983
65,2,0.5,0.0,-35.0,-1,1.0,0.307899999999961
66,2,0.5,0.0625,-35.0,-1,1.0,0.42329999999998336
67,2,0.5,1.0,-35.0,-1,1.0,5.678099999999972
68,2,0.5,0.25,35.0,1,1.0,0.35199999999997544
69,2,0.5,0.25,35.0,1,1.0,0.9282999999999788
70,2,0.5,0.0,-35.0,-1,1.0,0.44449999999994816
71,2,0.5,0.0,35.0,-1,0.0,0.6691999999999894
72,2,0.5,0.25,-35.0,-1,1.0,0.485499999999945
73,2,0.5,0.0625,35.0,-1,0.0,0.5765999999999849
74,2,0.5,0.125,-35.0,-1,1.0,3.177000000000021
75,2,0.5,0.0,-35.0,-1,1.0,0.26949999999999363
76,2,0.5,0.0625,35.0,-1,0.0,0.6024999999999636
77,2,0.5,0.125,-35.0,-1,1.0,0.9256999999999493
78,2,0.5,0.0,35.0,-1,0.0,0.6517999999999802
79,2,0.5,0.0,-35.0,-1,1.0,0.3743000000000052
80,2,0.5,0.125,35.0,-1,0.0,0.31129999999996016
81,2,0.5,1.0,-35.0,-1,1.0,0.26429999999999154
82,2,0.5,0.125,-35.0,-1,1.0,1.3276999999999362
83,2,0.5,0.125,35.0,1,1.0,1.4393999999999778
84,2,0.5,0.0,35.0,-1,0.0,0.4229000000000269
85,2,0.5,0.25,35.0,1,1.0,0.25919999999996435
86,2,0.5,0.0,-35.0,-1,1.0,0.3540999999999599
87,2,0.5,0.0,-35.0,-1,1.0,0.3600999999999317
88,2,0.5,0.0,35.0,-1,0.0,0.39459999999996853
89,2,0.5,1.0,35.0,1,1.0,0.7351999999999634
90,2,0.5,0.0625,35.0,-1,0.0,0.6228999999999587
91,2,0.8,0.0625,35.0,1,1.0,0.39829999999994925
92,2,0.8,1.0,-35.0,-1,1.0,0.42799999999999727
93,2,0.8,0.0625,-35.0,-1,1.0,0.29209999999994807
94,2,0.8,0.125,-35.0,-1,1.0,0.36159999999995307
95,2,0.8,0.25,35.0,1,1.0,0.26969999999994343
96,2,0.8,0.0625,-35.0,-1,1.0,0.25349999999991724
97,2,0.8,0.0,-35.0,-1,1.0,0.4705999999999335
98,2,0.8,0.0,-35.0,-1,1.0,0.3603999999999701
99,2,0.8,0.25,-35.0,-1,1.0,4.36179999999996
100,2,0.8,1.0,-35.0,-1,1.0,0.41370000000000573
101,2,0.8,0.0,-35.0,-1,1.0,0.2974999999999568
102,2,0.8,0.0625,35.0,-1,0.0,0.2565999999999917
103,2,0.8,0.0625,-35.0,-1,1.0,0.5160999999999945
104,2,0.8,0.0,-35.0,-1,1.0,0.4354999999999336
105,2,0.8,0.0625,-35.0,-1,1.0,0.6271999999999593
106,2,0.8,0.0625,35.0,-1,0.0,0.4113999999999578
107,2,0.8,0.125,-35.0,-1,1.0,0.36559999999997217
108,2,0.8,0.0625,-35.0,-1,1.0,0.42079999999998563
109,2,0.8,1.0,35.0,1,1.0,0.2939000000000078
110,2,0.8,0.0625,-35.0,-1,1.0,0.44769999999999754
111,2,0.8,0.25,35.0,1,1.0,0.3295999999999708
112,2,0.8,0.0625,-35.0,1,0.0,0.5203999999999951
113,2,0.8,0.0,35.0,1,1.0,0.28719999999998436
114,2,0.2,0.125,35.0,1,1.0,0.3673000000000002
115,2,0.2,0.0625,35.0,-1,0.0,0.3381999999999721
116,2,0.2,0.0625,35.0,1,1.0,0.3636999999999375
117,2,0.2,0.0,35.0,-1,0.0,0.5773999999999546
118,2,0.2,1.0,35.0,1,1.0,0.27480000000002747
119,2,0.2,0.25,-35.0,-1,1.0,0.5203999999999951
120,2,0.2,0.25,35.0,1,1.0,0.31989999999996144
121,2,0.2,0.125,35.0,1,1.0,0.5722999999999843
122,2,0.2,1.0,35.0,1,1.0,0.31899999999996
123,2,0.2,0.25,35.0,1,1.0,0.3605999999999767
124,2,0.2,0.25,35.0,1,1.0,0.4271999999999707
125,2,0.2,0.0,35.0,-1,0.0,0.5996999999999844
126,2,0.2,0.25,35.0,1,1.0,0.29129999999997835
127,2,0.2,0.25,35.0,1,1.0,0.23349999999999227
128,2,0.2,0.25,-35.0,1,0.0,0.4127000000000294
129,2,0.2,0.0,35.0,-1,0.0,0.2537999999999556
130,2,0.2,0.0625,35.0,1,1.0,0.3719999999999004
131,2,0.2,0.125,-35.0,1,0.0,0.6902000000000044
132,2,0.2,0.125,35.0,-1,0.0,0.1714999999999236
133,2,0.2,0.125,35.0,1,1.0,0.17370000000005348
134,2,0.2,0.0625,35.0,-1,0.0,0.897199999999998
135,2,0.2,1.0,35.0,1,1.0,0.27140000000008513
136,2,0.2,0.125,-35.0,-1,1.0,0.45420000000001437
137,2,0.2,1.0,35.0,1,1.0,0.28449999999998
138,2,0.2,0.125,35.0,1,1.0,0.3684000000000651
139,2,0.2,0.25,-35.0,-1,1.0,0.3827999999999747
140,2,0.2,0.25,35.0,1,1.0,0.2681000000001177
141,2,0.2,0.25,35.0,1,1.0,0.3341000000000349
142,2,0.2,0.25,35.0,1,1.0,0.3144999999999527
143,2,0.2,0.125,35.0,1,1.0,0.6002000000000862
144,2,0.2,0.125,35.0,1,1.0,0.3428000000000111
145,2,0.2,1.0,35.0,1,1.0,0.29520000000013624
146,2,0.2,1.0,35.0,1,1.0,0.30579999999997654
147,2,0.2,0.0625,35.0,1,1.0,0.682100000000105
148,2,0.2,1.0,35.0,1,1.0,0.2960000000000491
149,2,0.2,0.25,35.0,1,1.0,0.3245000000000573
150,2,0.2,0.0,35.0,-1,0.0,0.4880000000001701
151,2,0.2,0.25,-35.0,-1,1.0,0.2602999999999156
152,2,0.2,1.0,35.0,1,1.0,0.31780000000003383
153,2,0.2,0.25,35.0,1,1.0,0.3126999999999498
154,2,0.2,1.0,35.0,1,1.0,0.3058000000000902
155,2,0.2,0.125,35.0,1,1.0,0.36789999999996326
156,2,0.2,1.0,35.0,1,1.0,0.2740999999999758
157,2,0.2,0.25,35.0,1,1.0,0.2938000000000329
158,2,0.2,0.125,35.0,1,1.0,0.38589999999999236
159,2,0.2,0.0,35.0,-1,0.0,0.5060000000000855
160,2,0.2,1.0,-35.0,-1,1.0,0.1753999999999678
161,2,0.2,0.125,35.0,1,1.0,0.3734000000000606
162,2,0.2,0.125,-35.0,-1,1.0,0.2847000000000435
163,2,0.2,0.125,35.0,1,1.0,0.5666999999999689
164,2,0.2,1.0,35.0,1,1.0,0.3307999999999538
165,2,0.2,0.0,-35.0,-1,1.0,0.33769999999992706
166,2,0.2,0.25,35.0,1,1.0,0.36970000000007985
167,2,0.2,0.0625,-35.0,-1,1.0,0.4411999999999807
168,2,0.2,0.125,35.0,-1,0.0,0.3807000000000471
169,2,0.2,0.25,35.0,1,1.0,0.3382000000000289
170,2,0.2,1.0,-35.0,-1,1.0,0.4248999999999796
171,2,0.2,0.0625,35.0,-1,0.0,0.32929999999998927
172,2,0.2,0.0,35.0,-1,0.0,0.1650000000000773
173,2,0.2,0.0,35.0,-1,0.0,0.19420000000002346
174,2,0.2,0.125,35.0,1,1.0,0.35370000000000346
175,2,0.2,0.25,35.0,1,1.0,0.9043000000000347
176,2,0.2,0.0,35.0,-1,0.0,0.5887000000001308
177,2,0.2,0.25,35.0,1,1.0,0.171100000000024
178,2,0.2,0.125,-35.0,1,0.0,0.3908000000001266
179,2,0.2,0.0625,-35.0,-1,1.0,2.8330000000000837
180,2,0.2,0.0,35.0,-1,0.0,0.2555999999999585
181,2,0.2,0.25,35.0,1,1.0,0.3912000000000262
182,2,0.2,1.0,35.0,1,1.0,0.46650000000011005
183,2,0.2,0.0,35.0,-1,0.0,1.9524999999999864
184,2,0.2,0.0625,35.0,1,1.0,0.34600000000000364
185,2,0.2,1.0,35.0,1,1.0,0.45850000000007185
186,2,0.2,0.0,35.0,1,1.0,0.8607000000000653
187,2,0.2,0.0625,35.0,-1,0.0,0.49520000000006803
188,2,0.2,0.0625,-35.0,-1,1.0,2.442099999999982
189,2,0.2,0.25,35.0,1,1.0,0.3572999999998956
190,2,0.2,0.0,35.0,-1,0.0,0.4693000000000893
191,2,0.2,0.25,35.0,1,1.0,0.2219000000000051
192,2,0.2,0.125,-35.0,1,0.0,0.3065000000000282
193,2,0.2,0.0,35.0,-1,0.0,0.30309999999997217
194,2,0.2,0.0625,-35.0,-1,1.0,0.4782999999999902
195,2,0.2,0.0625,35.0,-1,0.0,0.5095999999999776
196,2,0.2,0.0,35.0,-1,0.0,2.947900000000118
197,2,0.2,0.0625,-35.0,-1,1.0,0.2542000000000826
198,2,0.2,0.0625,35.0,-1,0.0,0.5475999999999885
199,2,0.2,0.0,35.0,1,1.0,0.5320000000000391
200,2,0.2,0.125,35.0,-1,0.0,1.5317999999999756
201,2,0.2,0.125,-35.0,-1,1.0,0.2578000000000884
202,2,0.2,0.25,35.0,1,1.0,0.37000000000000455
203,2,0.2,0.25,35.0,1,1.0,0.3652000000000726
204,2,0.2,0.0625,-35.0,-1,1.0,0.5280999999999949
205,2,0.2,0.0625,35.0,-1,0.0,0.6937000000000353
206,2,0.2,0.0,35.0,-1,0.0,0.24920000000008713
207,2,0.2,1.0,35.0,1,1.0,0.30579999999997654
208,2,0.2,1.0,35.0,1,1.0,0.26329999999995835
209,2,0.8,1.0,-35.0,-1,1.0,0.7036000000000513
210,2,0.8,1.0,-35.0,-1,1.0,0.301900000000046
211,2,0.8,0.0625,-35.0,-1,1.0,0.16459999999995034
212,2,0.8,0.25,-35.0,-1,1.0,0.34960000000012315
213,2,0.8,0.0,-35.0,-1,1.0,0.4211999999999989
214,2,0.8,0.0,-35.0,-1,1.0,0.2563999999999851
215,2,0.8,0.25,35.0,1,1.0,0.3406999999999698
216,2,0.8,0.0625,35.0,-1,0.0,0.22199999999998
217,2,0.8,0.25,-35.0,-1,1.0,0.4399999999999409
218,2,0.8,0.0625,35.0,1,1.0,1.9265000000000327
219,2,0.8,0.25,-35.0,-1,1.0,0.3127999999999247
220,2,0.8,0.25,-35.0,-1,1.0,0.31150000000002365
221,2,0.8,0.0,-35.0,-1,1.0,0.15170000000000528
222,2,0.8,1.0,-35.0,-1,1.0,0.27959999999995944
223,2,0.8,0.0,-35.0,-1,1.0,0.2824000000000524
224,2,0.8,0.0,-35.0,1,0.0,4.83400000000006
225,2,0.8,0.0625,-35.0,-1,1.0,4.97300000000007
226,2,0.8,0.0,-35.0,-1,1.0,0.49090000000001055
227,2,0.8,1.0,-35.0,-1,1.0,0.36599999999998545
228,2,0.8,0.0625,35.0,-1,0.0,0.481200000000058
229,2,0.8,0.0625,-35.0,-1,1.0,0.5113000000001193
230,2,0.8,0.0,35.0,-1,0.0,0.3786000000000058
231,2,0.8,1.0,-35.0,-1,1.0,0.37160000000005766
232,2,0.8,1.0,35.0,1,1.0,0.2824000000000524
233,2,0.8,1.0,-35.0,-1,1.0,0.46500000000003183
234,2,0.8,0.125,-35.0,-1,1.0,4.715799999999945
235,2,0.8,0.0,-35.0,-1,1.0,0.3248000000000957
236,2,0.8,1.0,35.0,1,1.0,0.20429999999998927
237,2,0.8,0.0625,-35.0,-1,1.0,0.403400000000147
238,2,0.8,0.125,-35.0,-1,1.0,1.7192999999999756
239,2,0.8,0.0,-35.0,1,0.0,0.2908999999999651
240,2,0.8,0.0625,-35.0,-1,1.0,0.8860999999999422
241,2,0.8,0.0,-35.0,-1,1.0,0.6849999999999454
242,2,0.8,0.0625,-35.0,-1,1.0,0.3161999999999807
243,2,0.8,0.125,-35.0,-1,1.0,0.9335000000000946
244,2,0.8,0.125,-35.0,-1,1.0,0.4919000000001006
245,2,0.8,0.0,-35.0,-1,1.0,0.2615000000000691
246,2,0.8,0.25,35.0,1,1.0,0.38639999999998054
247,2,0.8,0.25,-35.0,-1,1.0,0.3808999999999969
248,2,0.8,0.125,-35.0,-1,1.0,1.3018999999999323
249,2,0.8,0.125,35.0,1,1.0,0.4296000000000504
250,2,0.8,0.125,-35.0,-1,1.0,0.8164000000000442
251,2,0.2,0.125,35.0,1,1.0,0.32349999999996726
252,2,0.2,0.25,35.0,1,1.0,0.5536999999999352
253,2,0.2,0.125,-35.0,1,0.0,0.9864000000000033
254,2,0.2,1.0,35.0,1,1.0,0.18819999999993797
255,2,0.2,0.0,35.0,-1,0.0,0.33400000000006
256,2,0.2,1.0,35.0,1,1.0,0.27150000000006
257,2,0.2,0.25,35.0,1,1.0,0.34400000000005093
258,2,0.2,0.25,35.0,1,1.0,0.28490000000010696
259,2,0.2,0.125,35.0,1,1.0,0.3573999999999842
260,2,0.2,0.125,35.0,1,1.0,0.4619999999999891
261,2,0.2,1.0,-35.0,1,0.0,0.6174000000000888
262,2,0.2,0.25,35.0,1,1.0,0.3087000000000444
263,2,0.2,0.25,35.0,1,1.0,0.2679000000000542
264,2,0.2,0.0625,-35.0,1,0.0,0.35229999999978645
265,2,0.2,0.0625,35.0,1,1.0,0.33120000000008076
266,2,0.2,0.0625,35.0,1,1.0,0.32920000000012806
267,2,0.2,0.0,35.0,-1,0.0,0.44470000000001164
268,2,0.2,0.0625,35.0,1,1.0,0.45260000000007494
269,2,0.2,0.0625,35.0,1,1.0,0.4681000000000495
270,2,0.2,0.0625,35.0,1,1.0,0.6224999999999454
271,2,0.2,0.0625,35.0,1,1.0,0.36159999999995307
272,2,0.2,0.125,35.0,1,1.0,0.459400000000187
273,2,0.2,0.0,-35.0,-1,1.0,0.29169999999999163
274,2,0.2,0.125,35.0,1,1.0,0.3193999999998596
275,2,0.2,0.0625,35.0,1,1.0,0.38190000000008695
276,2,0.2,1.0,35.0,1,1.0,0.3063999999999396
277,2,0.2,0.125,35.0,1,1.0,0.4119999999998072
278,2,0.2,1.0,-35.0,-1,1.0,0.4598000000000866
279,2,0.2,1.0,35.0,1,1.0,0.25880000000006476
280,2,0.2,0.0,-35.0,-1,1.0,0.7364999999999782
281,2,0.2,0.0625,35.0,1,1.0,0.3953999999998814
282,2,0.2,0.0,35.0,-1,0.0,0.22000000000002728
283,2,0.2,1.0,35.0,1,1.0,0.28890000000023974
284,2,0.2,0.0,-35.0,1,0.0,0.406800000000203
285,2,0.2,0.25,35.0,1,1.0,0.2959000000000742
286,2,0.2,0.0,35.0,1,1.0,0.28670000000010987
287,2,0.2,0.125,35.0,1,1.0,0.3929000000000542
288,2,0.2,0.0625,35.0,1,1.0,0.5570999999999913
289,2,0.2,0.0,35.0,-1,0.0,0.3993000000000393
290,2,0.2,0.0,35.0,-1,0.0,0.24729999999999563
291,2,0.2,1.0,35.0,1,1.0,0.26270000000022264
292,2,0.2,0.0625,35.0,-1,0.0,0.9407000000001062
293,2,0.2,0.0,35.0,1,1.0,0.7927999999999429
294,2,0.2,0.125,35.0,1,1.0,2.687599999999975
295,2,0.2,0.0625,35.0,1,1.0,0.6432000000002063
296,2,0.2,0.0,35.0,1,1.0,0.5976000000000568
297,2,0.2,0.0625,35.0,1,1.0,0.5799000000001797
298,2,0.2,0.25,35.0,1,1.0,0.6541999999999462
299,2,0.2,1.0,35.0,1,1.0,0.7264999999999873
300,2,0.2,0.0,35.0,-1,0.0,0.5245000000002165
301,2,0.2,0.25,35.0,1,1.0,0.4135000000001128
302,2,0.2,0.0625,35.0,1,1.0,0.8645000000001346
303,2,0.2,0.25,35.0,1,1.0,0.2702999999999065
304,2,0.2,0.0625,35.0,1,1.0,1.2515000000000782
305,2,0.2,1.0,35.0,1,1.0,0.3605000000000018
306,2,0.2,0.0,-35.0,-1,1.0,0.7218000000000302
307,2,0.2,0.125,-35.0,-1,1.0,0.32379999999989195
308,2,0.2,1.0,35.0,1,1.0,0.241800000000012
309,2,0.8,1.0,-35.0,-1,1.0,0.7872999999999593
310,2,0.8,0.0625,-35.0,-1,1.0,0.3874000000000706
311,2,0.8,0.0,-35.0,-1,1.0,0.41430000000013933
312,2,0.8,1.0,35.0,1,1.0,0.2418999999999869
313,2,0.8,0.125,-35.0,-1,1.0,0.14740000000006148
314,2,0.8,0.0625,-35.0,-1,1.0,0.39780000000018845
315,2,0.8,0.0,-35.0,-1,1.0,0.42439999999987776
316,2,0.8,0.125,-35.0,-1,1.0,0.23879999999985557
317,2,0.8,0.0625,-35.0,-1,1.0,0.5178000000000793
318,2,0.8,1.0,35.0,1,1.0,0.3324000000000069
319,2,0.8,0.25,-35.0,-1,1.0,0.19139999999993051
320,2,0.8,0.125,-35.0,-1,1.0,0.35920000000010077
321,2,0.8,1.0,-35.0,-1,1.0,0.2781999999999698
322,2,0.8,0.25,-35.0,-1,1.0,0.4293999999999869
323,2,0.8,1.0,-35.0,-1,1.0,0.30169999999998254
324,2,0.8,0.25,-35.0,-1,1.0,0.26939999999990505
325,2,0.8,0.125,-35.0,-1,1.0,0.43849999999997635
326,2,0.8,1.0,35.0,1,1.0,0.29960000000005493
327,2,0.8,0.0,-35.0,-1,1.0,0.2720000000001619
328,2,0.8,0.125,35.0,1,1.0,0.5896000000000186
329,2,0.8,0.25,-35.0,-1,1.0,0.4088000000001557
330,2,0.8,1.0,-35.0,-1,1.0,0.423200000000179
331,2,0.8,0.0,-35.0,-1,1.0,0.3188999999999851
332,2,0.8,0.25,-35.0,-1,1.0,0.3533999999999651
333,2,0.8,0.0625,35.0,-1,0.0,3.0125000000000455
334,2,0.8,0.125,-35.0,-1,1.0,0.27359999999998763
335,2,0.8,0.125,-35.0,-1,1.0,0.4592999999999847
336,2,0.8,0.125,-35.0,-1,1.0,0.3969999999999345
337,2,0.8,0.0,35.0,-1,0.0,0.21610000000009677
338,2,0.8,0.0625,-35.0,-1,1.0,0.30379999999991014
339,2,0.8,1.0,-35.0,-1,1.0,0.2360999999998512
340,2,0.8,0.0,-35.0,-1,1.0,0.290599999999813
341,2,0.8,0.25,-35.0,-1,1.0,0.25290000000018154
342,2,0.8,1.0,-35.0,-1,1.0,0.45080000000007203
343,2,0.8,0.0625,-35.0,-1,1.0,0.49640000000022155
344,2,0.8,0.125,35.0,1,1.0,0.32100000000014006
345,2,0.8,0.0,-35.0,-1,1.0,0.2966000000001259
346,2,0.8,0.0,-35.0,-1,1.0,0.3043000000002394
347,2,0.8,0.125,35.0,-1,0.0,0.31009999999992033
348,2,0.8,0.25,35.0,1,1.0,0.4777000000001408
349,2,0.8,0.0,-35.0,-1,1.0,0.21690000000012333
350,2,0.8,0.0,-35.0,1,0.0,0.5978000000000065
351,2,0.8,0.125,-35.0,-1,1.0,0.3404000000000451
352,2,0.8,1.0,-35.0,-1,1.0,0.3347000000001117
353,2,0.8,0.25,-35.0,-1,1.0,0.3738999999998214
354,2,0.8,0.25,35.0,-1,0.0,0.5748999999998432
355,2,0.8,0.0,-35.0,-1,1.0,1.3571999999999207
356,2,0.8,1.0,-35.0,-1,1.0,0.5184999999999036
357,2,0.8,0.0625,35.0,-1,0.0,0.40069999999991524
358,2,0.8,0.125,-35.0,-1,1.0,0.30539999999996326
359,2,0.8,0.0,-35.0,-1,1.0,0.1875
360,2,0.8,1.0,35.0,1,1.0,0.31530000000020664
361,2,0.8,0.125,-35.0,-1,1.0,0.6010000000001128
362,2,0.8,0.0,-35.0,-1,1.0,0.30539999999996326
363,2,0.8,0.0625,-35.0,-1,1.0,0.42770000000018626
364,2,0.8,0.0,35.0,-1,0.0,0.21220000000016626
365,2,0.8,0.0625,-35.0,-1,1.0,0.2414000000001124
366,2,0.8,1.0,-35.0,-1,1.0,0.3789000000001579
367,2,0.8,0.0625,-35.0,1,0.0,0.4648000000001957
368,2,0.8,0.0625,-35.0,-1,1.0,0.38589999999999236
369,2,0.8,0.0625,-35.0,-1,1.0,0.3082999999999174
370,2,0.8,0.25,35.0,-1,0.0,0.46280000000001564
371,2,0.8,0.125,-35.0,-1,1.0,0.33829999999989013
372,2,0.8,1.0,-35.0,-1,1.0,0.2562000000000353
373,2,0.8,0.0625,-35.0,-1,1.0,0.24540000000001783
374,2,0.8,1.0,-35.0,-1,1.0,0.3762000000001535
375,2,0.8,0.0,-35.0,-1,1.0,0.47199999999998
376,2,0.8,1.0,35.0,1,1.0,0.27320000000008804
377,2,0.8,0.25,-35.0,-1,1.0,0.44899999999984175
378,2,0.8,1.0,-35.0,-1,1.0,0.45650000000000546
379,2,0.8,0.125,35.0,1,1.0,0.8325000000002092
380,2,0.8,0.125,-35.0,-1,1.0,0.27660000000014406
381,2,0.8,0.0,-35.0,-1,1.0,1.0691999999999098
382,2,0.8,0.125,-35.0,-1,1.0,0.530500000000302
383,2,0.8,0.0625,-35.0,-1,1.0,0.34930000000008476
384,2,0.8,0.0,-35.0,-1,1.0,0.2637999999999465
385,2,0.8,0.25,-35.0,-1,1.0,0.3893999999997959
386,2,0.8,0.0,-35.0,-1,1.0,0.4438999999999851
387,2,0.2,0.25,35.0,1,1.0,0.4166000000002441
388,2,0.2,1.0,35.0,1,1.0,0.21080000000006294
389,2,0.2,0.125,35.0,1,1.0,0.6096999999999753
390,2,0.2,0.125,35.0,1,1.0,0.34740000000010696
391,2,0.2,0.25,35.0,1,1.0,0.31989999999996144
392,2,0.2,0.0625,35.0,1,1.0,0.3409999999998945
393,2,0.2,0.125,35.0,1,1.0,0.2599999999999909
394,2,0.2,0.25,35.0,1,1.0,0.3044000000002143
395,2,0.2,0.125,-35.0,-1,1.0,0.4499999999998181
396,2,0.2,0.0,35.0,1,1.0,0.5878000000000156
397,2,0.2,0.0,35.0,-1,0.0,0.6934999999998581
398,2,0.2,0.125,35.0,1,1.0,0.33150000000000546
399,2,0.2,0.25,35.0,1,1.0,0.3138000000001284
400,2,0.2,0.25,35.0,1,1.0,0.48490000000015243
401,2,0.2,0.0,-35.0,-1,1.0,0.22710000000006403
402,2,0.2,0.0625,-35.0,1,0.0,0.6380999999998949
403,2,0.2,0.125,-35.0,-1,1.0,0.31739999999990687
404,2,0.2,0.125,-35.0,-1,1.0,0.7350999999998749
405,2,0.2,0.125,35.0,1,1.0,0.3808000000001357
406,2,0.2,0.0625,35.0,1,1.0,0.6453999999998814
407,2,0.2,0.25,35.0,1,1.0,0.15089999999986503
408,2,0.2,0.125,-35.0,-1,1.0,0.7085999999999331
409,2,0.2,0.25,35.0,1,1.0,0.49099999999998545
410,2,0.2,0.0,-35.0,-1,1.0,3.285799999999881
411,2,0.2,0.25,35.0,1,1.0,0.37779999999997926
412,2,0.2,1.0,35.0,1,1.0,0.34910000000013497
413,2,0.2,0.0,35.0,1,1.0,0.34789999999998145
414,2,0.2,0.25,35.0,1,1.0,0.2557999999999083
415,2,0.2,0.125,35.0,1,1.0,0.31799999999998363
416,2,0.2,0.0,35.0,-1,0.0,0.6126000000001568
417,2,0.2,1.0,35.0,1,1.0,0.2681999999999789
418,2,0.2,0.0625,35.0,-1,0.0,1.2196000000001277
419,2,0.2,0.0625,35.0,1,1.0,0.2518999999999778
420,2,0.2,0.0,-35.0,1,0.0,0.6130000000000564
421,2,0.2,1.0,35.0,1,1.0,0.17859999999996035
422,2,0.2,0.0,-35.0,-1,1.0,0.40640000000007603
423,2,0.2,0.25,35.0,1,1.0,0.3085000000000946
424,2,0.2,1.0,35.0,1,1.0,0.31340000000022883
425,2,0.2,0.25,-35.0,-1,1.0,0.5657000000001062
426,2,0.2,0.0,-35.0,-1,1.0,2.696600000000217
427,2,0.2,0.0625,35.0,1,1.0,0.4958000000001448
428,2,0.2,0.25,35.0,1,1.0,0.29349999999999454
429,2,0.2,1.0,35.0,1,1.0,0.8226999999999407
430,2,0.2,0.0,35.0,-1,0.0,0.5970999999997275
431,2,0.2,0.125,-35.0,-1,1.0,1.3626999999999043
432,2,0.2,0.0625,35.0,-1,0.0,0.433699999999817
433,2,0.2,0.0,35.0,-1,0.0,0.5827999999999065
434,2,0.2,0.0,-35.0,1,0.0,0.6037999999998647
435,2,0.2,0.0625,35.0,-1,0.0,0.45299999999997453
436,2,0.2,0.0625,-35.0,-1,1.0,0.43430000000012114
437,2,0.2,0.25,-35.0,-1,1.0,0.4498000000000957
438,2,0.2,1.0,35.0,1,1.0,0.30419999999980973
439,2,0.2,0.25,35.0,1,1.0,0.30989999999997053
440,2,0.2,0.25,35.0,1,1.0,0.32759999999984757
441,2,0.2,0.25,35.0,1,1.0,0.3367000000000644
442,2,0.2,0.0625,35.0,-1,0.0,0.25460000000020955
443,2,0.2,0.0625,35.0,-1,0.0,0.3168000000000575
444,2,0.2,0.0,-35.0,-1,1.0,0.4135999999998603
445,2,0.2,1.0,-35.0,-1,1.0,0.4147000000000389
446,2,0.2,1.0,35.0,1,1.0,0.2402999999999338
447,2,0.2,0.0625,35.0,1,1.0,0.5914999999999964
448,2,0.2,0.125,35.0,1,1.0,0.35410000000001673
449,2,0.2,0.0625,35.0,1,1.0,0.7082000000000335
450,2,0.8,0.25,35.0,1,1.0,0.30729999999994106
451,2,0.8,0.0625,-35.0,1,0.0,0.5251000000000658
452,2,0.8,0.0625,-35.0,1,0.0,0.427599999999984
453,2,0.8,0.125,-35.0,-1,1.0,0.42230000000017753
454,2,0.8,0.125,35.0,1,1.0,0.49090000000001055
455,2,0.8,0.125,35.0,1,1.0,0.46880000000010114
456,2,0.8,1.0,-35.0,-1,1.0,0.9012000000002445
457,2,0.8,0.25,-35.0,-1,1.0,0.3382000000001426
458,2,0.8,0.0625,-35.0,-1,1.0,0.2846999999999298
459,2,0.8,0.25,-35.0,-1,1.0,0.4657999999999447
460,2,0.8,0.125,-35.0,-1,1.0,0.47240000000010696
461,2,0.8,0.0625,35.0,-1,0.0,0.47260000000005675
462,2,0.8,0.0625,-35.0,-1,1.0,0.4616000000000895
463,2,0.8,1.0,-35.0,-1,1.0,0.26949999999987995
464,2,0.8,0.0625,-35.0,-1,1.0,0.2317000000000462
465,2,0.8,0.0625,-35.0,-1,1.0,0.16610000000014224
466,2,0.8,0.125,-35.0,-1,1.0,0.21510000000012042
467,2,0.8,0.25,-35.0,-1,1.0,0.4229000000000269
468,2,0.8,1.0,-35.0,-1,1.0,0.17850000000021282
469,2,0.8,0.125,-35.0,-1,1.0,0.31979999999998654
470,2,0.8,0.125,-35.0,-1,1.0,0.30209999999988213
471,2,0.8,1.0,-35.0,-1,1.0,0.6467000000000098
472,2,0.8,1.0,-35.0,-1,1.0,0.6997999999998683
473,2,0.8,1.0,-35.0,-1,1.0,0.3568000000000211
474,2,0.8,0.0,-35.0,-1,1.0,0.5368000000000848
475,2,0.8,0.125,-35.0,-1,1.0,0.38570000000004256
476,2,0.8,0.0625,-35.0,-1,1.0,0.2738999999999123
477,2,0.8,1.0,-35.0,-1,1.0,0.34590000000002874
478,2,0.8,0.125,-35.0,-1,1.0,0.5105000000000928
479,2,0.2,1.0,35.0,1,1.0,0.34600000000000364
480,2,0.2,0.0,35.0,-1,0.0,0.457300000000032
481,2,0.2,0.125,35.0,1,1.0,0.7961999999999989
482,2,0.2,0.25,35.0,1,1.0,0.48070000000006985
483,2,0.2,0.25,-35.0,-1,1.0,0.4494999999999436
484,2,0.2,0.125,35.0,1,1.0,0.3209999999999127
485,2,0.2,0.25,35.0,1,1.0,0.3099000000001979
486,2,0.2,0.0,35.0,-1,0.0,4.320799999999963
487,2,0.2,0.0,35.0,1,1.0,0.5767000000003009
488,2,0.2,0.0,35.0,-1,0.0,0.2342999999998483
489,2,0.2,0.0,35.0,-1,0.0,0.3300000000001546
490,2,0.2,0.0,35.0,1,1.0,0.38449999999988904
491,2,0.2,0.25,-35.0,-1,1.0,0.3703000000002703
492,2,0.2,1.0,35.0,1,1.0,0.2716000000000349
493,2,0.2,0.0625,35.0,1,1.0,0.6237999999998465
494,2,0.2,0.25,35.0,1,1.0,0.34130000000004657
495,2,0.2,0.0625,35.0,1,1.0,0.4639999999999418
496,2,0.2,0.0,35.0,1,1.0,0.5882000000001426
497,2,0.2,0.125,35.0,1,1.0,0.5305000000000746
498,2,0.2,0.25,35.0,1,1.0,0.2749999999998636
499,2,0.2,1.0,35.0,1,1.0,0.20400000000017826
500,2,0.2,0.0625,35.0,1,1.0,0.34839999999985594
501,2,0.2,0.25,35.0,1,1.0,0.2742000000000644
502,2,0.2,0.125,35.0,1,1.0,0.6620000000000346
503,2,0.2,0.0,-35.0,1,0.0,0.8410000000001219
504,2,0.2,1.0,35.0,1,1.0,0.2720999999999094
505,2,0.2,0.0,35.0,-1,0.0,0.4911000000001877
506,2,0.2,1.0,35.0,1,1.0,0.27880000000004657
507,2,0.2,0.125,35.0,1,1.0,0.3079999999999927
508,2,0.2,0.125,35.0,1,1.0,0.28579999999988104
509,2,0.2,0.125,35.0,1,1.0,0.25139999999987594
510,2,0.2,0.25,35.0,1,1.0,0.25620000000026266
511,2,0.2,0.0,35.0,-1,0.0,4.2314000000001215
512,2,0.2,1.0,35.0,1,1.0,0.2595000000001164
513,2,0.2,0.25,-35.0,1,0.0,1.5118999999999687
514,2,0.8,0.125,35.0,1,1.0,0.349699999999757
515,2,0.8,0.125,-35.0,1,0.0,0.8385000000002947
516,2,0.8,0.0625,-35.0,-1,1.0,0.54950000000008
517,2,0.8,0.125,-35.0,-1,1.0,0.39859999999998763
518,2,0.8,0.0,35.0,-1,0.0,0.17310000000043146
519,2,0.8,0.0,35.0,-1,0.0,0.32209999999986394
520,2,0.8,0.25,-35.0,-1,1.0,0.35330000000021755
521,2,0.8,0.125,-35.0,-1,1.0,0.32560000000012224
522,2,0.8,0.0625,-35.0,-1,1.0,0.21369999999978972
523,2,0.8,1.0,-35.0,-1,1.0,0.29579999999987194
524,2,0.8,0.0625,-35.0,-1,1.0,0.573500000000422
525,2,0.8,1.0,-35.0,-1,1.0,0.3726999999998952
526,2,0.8,1.0,-35.0,-1,1.0,0.3573999999998705
527,2,0.8,1.0,-35.0,-1,1.0,0.4094999999997526
528,2,0.8,0.25,-35.0,-1,1.0,0.20069999999986976
529,2,0.8,1.0,-35.0,-1,1.0,0.3664000000003398
530,2,0.8,0.125,-35.0,-1,1.0,0.18749999999954525
531,2,0.8,1.0,-35.0,-1,1.0,0.30300000000033833
532,2,0.8,1.0,-35.0,-1,1.0,0.48129999999991924
533,2,0.8,0.125,35.0,1,1.0,0.4398999999998523
534,2,0.8,0.0,-35.0,-1,1.0,0.23090000000001965
535,2,0.8,0.0,-35.0,-1,1.0,0.4634000000000924
536,2,0.8,0.0625,-35.0,-1,1.0,0.22440000000005966
537,2,0.8,0.0,-35.0,-1,1.0,0.27349999999978536
538,2,0.8,0.0625,-35.0,-1,1.0,0.2901000000001659
539,2,0.8,0.25,35.0,1,1.0,0.8049000000005435
540,2,0.8,0.0625,-35.0,-1,1.0,0.550499999999829
541,2,0.8,0.125,-35.0,-1,1.0,0.3417000000004009
542,2,0.2,0.0,35.0,-1,0.0,0.49729999999999563
543,2,0.2,0.25,-35.0,-1,1.0,0.4119999999998072
544,2,0.2,0.0,35.0,-1,0.0,0.3373999999998887
545,2,0.2,0.125,35.0,1,1.0,0.24879999999984648
546,2,0.2,0.0625,-35.0,-1,1.0,0.28419999999960055
547,2,0.2,1.0,35.0,1,1.0,0.3420000000000982
548,2,0.2,0.25,35.0,1,1.0,0.3143000000000029
549,2,0.2,1.0,35.0,1,1.0,0.24879999999984648
550,2,0.2,0.0,35.0,-1,0.0,0.4576999999999316
551,2,0.2,1.0,35.0,1,1.0,0.28230000000030486
552,2,0.2,0.25,35.0,1,1.0,0.6748000000002321
553,2,0.2,0.0625,35.0,1,1.0,0.39229999999997744
554,2,0.2,0.0625,35.0,1,1.0,0.40810000000010405
555,2,0.2,1.0,35.0,1,1.0,0.2727000000004409
556,2,0.2,1.0,35.0,1,1.0,0.33479999999963184
557,2,0.2,0.0,35.0,1,1.0,0.36599999999998545
558,2,0.2,0.125,35.0,1,1.0,0.28159999999979846
559,2,0.2,0.25,-35.0,1,0.0,0.29930000000013024
560,2,0.2,0.0625,-35.0,1,0.0,0.271900000000187
561,2,0.2,0.125,-35.0,-1,1.0,0.5829000000003361
562,2,0.2,0.125,-35.0,-1,1.0,0.3364999999998872
563,2,0.2,0.25,35.0,1,1.0,5.483200000000124
564,2,0.2,1.0,-35.0,-1,1.0,0.5457000000001244
565,2,0.2,0.0,-35.0,-1,1.0,0.27660000000014406
566,2,0.2,1.0,35.0,1,1.0,0.26220000000057553
567,2,0.2,0.0,35.0,-1,0.0,4.733499999999822
568,2,0.2,0.0,35.0,-1,0.0,0.4126000000001113
569,2,0.2,0.125,35.0,-1,0.0,0.42699999999967986
570,2,0.2,0.0625,35.0,-1,0.0,0.6294999999995525
571,2,0.2,0.125,35.0,-1,0.0,2.880699999999706
572,2,0.2,0.25,35.0,1,1.0,0.24620000000004438
573,2,0.2,0.25,35.0,1,1.0,0.4904999999998836
574,2,0.2,1.0,35.0,1,1.0,0.4596000000001368
575,2,0.2,0.25,-35.0,-1,1.0,4.394200000000183
576,2,0.2,0.0,35.0,-1,0.0,0.6532000000001972
577,2,0.2,0.0,35.0,-1,0.0,0.2844000000000051
578,2,0.2,1.0,35.0,1,1.0,0.2866990000002261
579,2,0.2,0.25,35.0,1,1.0,0.3710000000000946
580,2,0.2,0.0,-35.0,1,0.0,0.41030000000000655
581,2,0.2,0.125,-35.0,1,0.0,0.5213999999996304
582,2,0.2,0.0625,-35.0,-1,1.0,4.143699999999626
583,2,0.2,0.0625,-35.0,-1,1.0,1.2283000000002176
584,2,0.2,1.0,35.0,1,1.0,0.33720000000039363
585,2,0.2,1.0,-35.0,-1,1.0,0.9115000000001601
586,2,0.2,1.0,35.0,1,1.0,0.2674000000001797
587,2,0.2,0.0625,35.0,1,1.0,0.432100000000446
588,2,0.2,0.0,35.0,-1,0.0,2.6242999999999483
589,2,0.2,0.0625,35.0,-1,0.0,0.41220000000021173
590,2,0.2,0.25,35.0,1,1.0,0.9776000000001659
591,2,0.2,0.125,35.0,1,1.0,0.29559999999992215
592,2,0.2,0.125,35.0,1,1.0,0.421100000000024
593,2,0.2,0.125,35.0,1,1.0,0.3223000000002685
594,2,0.2,0.125,-35.0,-1,1.0,0.33450000000038926
595,2,0.2,0.0625,35.0,1,1.0,0.7157000000001972
596,2,0.2,0.25,35.0,1,1.0,0.31910000000016225
597,2,0.2,0.0,35.0,-1,0.0,0.571400000000267
598,2,0.2,1.0,-35.0,-1,1.0,0.42279999999982465
599,2,0.2,0.0625,35.0,1,1.0,0.3283999999998741
600,2,0.2,1.0,35.0,1,1.0,0.36639900000000125
601,2,0.2,1.0,35.0,1,1.0,0.5185000000005857
602,2,0.2,0.25,-35.0,-1,1.0,0.6662999999998647
603,2,0.2,0.125,35.0,1,1.0,0.5419000000001688
604,2,0.2,0.25,-35.0,-1,1.0,0.7630999999996675
605,2,0.2,0.0625,35.0,-1,0.0,0.435399999999845
606,2,0.2,0.25,35.0,1,1.0,0.30019999999967695
607,2,0.2,0.125,-35.0,-1,1.0,0.502400000000307
608,2,0.2,0.125,35.0,1,1.0,0.4402999999997519
609,2,0.2,0.25,-35.0,-1,1.0,0.4321999999997388
610,2,0.2,0.0,35.0,-1,0.0,0.31340000000000146
611,2,0.2,0.25,35.0,1,1.0,0.3591999999998734
612,2,0.2,0.125,35.0,1,1.0,0.38029999999980646
613,2,0.2,0.0625,35.0,-1,0.0,0.7260999999998603
614,2,0.2,0.0625,35.0,1,1.0,0.43380000000024665
615,2,0.2,0.25,35.0,1,1.0,0.2995000000005348
616,2,0.2,0.0,35.0,1,1.0,0.8539000000000669
617,2,0.2,0.0625,-35.0,-1,1.0,0.5363000000002103
618,2,0.2,1.0,35.0,1,1.0,0.2606999999998152
619,2,0.2,0.125,35.0,1,1.0,0.8098999999997432
620,2,0.2,0.0,35.0,1,1.0,0.5306000000000495
621,2,0.2,1.0,35.0,1,1.0,0.29680000000007567
622,2,0.2,0.25,35.0,1,1.0,0.6177000000002408
623,2,0.2,0.125,35.0,1,1.0,0.5298999999999978
624,2,0.2,1.0,35.0,1,1.0,0.32439999999951397
625,2,0.2,0.0,35.0,-1,0.0,1.8267989999999372
626,2,0.2,0.0,35.0,-1,0.0,0.4780000000000655
627,2,0.2,0.25,35.0,1,1.0,0.2735000000002401
628,2,0.2,0.0,35.0,1,1.0,0.8812000000002627
629,2,0.2,0.0,35.0,1,1.0,0.5569989999999052
630,2,0.2,0.0,-35.0,1,0.0,0.35479999999961365
631,2,0.2,0.0625,35.0,1,1.0,0.3239000000003216
632,2,0.2,0.25,35.0,1,1.0,0.3615999999997257
633,2,0.2,0.125,-35.0,1,0.0,0.41069999999990614
634,2,0.8,0.25,35.0,1,1.0,0.3117000000002008
635,2,0.8,0.125,-35.0,1,0.0,0.8106999999999971
636,2,0.8,0.25,-35.0,-1,1.0,0.8589000000001761
637,2,0.8,0.0625,-35.0,-1,1.0,0.5010000000002037
638,2,0.8,1.0,-35.0,-1,1.0,0.3787999999999556
639,2,0.8,0.0,-35.0,-1,1.0,0.26119999999991705
640,2,0.8,0.125,-35.0,-1,1.0,0.5944000000004053
641,2,0.8,0.0,-35.0,-1,1.0,0.30789999999979045
642,2,0.8,0.0625,-35.0,-1,1.0,0.6857000000004518
643,2,0.8,0.0,35.0,-1,0.0,0.29449999999951615
644,2,0.8,0.0,35.0,-1,0.0,0.46250000000009095
645,2,0.8,1.0,-35.0,-1,1.0,0.45820099999991726
646,2,0.8,0.125,-35.0,1,0.0,2.479801000000407
647,2,0.8,0.0,-35.0,-1,1.0,0.24500099999977465
648,2,0.8,0.25,-35.0,-1,1.0,0.46630099999993035
649,2,0.8,0.0625,-35.0,-1,1.0,0.2719010000000708
650,2,0.8,0.125,-35.0,-1,1.0,0.2833009999994829
651,2,0.8,0.0625,-35.0,-1,1.0,0.49210100000027523
652,2,0.8,0.25,-35.0,-1,1.0,0.21000099999992017
653,2,0.8,0.0625,-35.0,-1,1.0,0.15540099999998347
654,2,0.8,0.125,-35.0,-1,1.0,0.27010100000006787
655,2,0.8,0.125,-35.0,-1,1.0,0.15210100000012972
656,2,0.8,0.125,-35.0,-1,1.0,0.2400009999996655
657,2,0.8,0.125,35.0,-1,0.0,0.5259009999999762
658,2,0.8,0.125,-35.0,-1,1.0,0.3603010000001632
659,2,0.8,0.25,35.0,1,1.0,0.5757010000002083
660,2,0.8,0.25,-35.0,-1,1.0,0.5571009999998751
661,2,0.8,0.0625,-35.0,-1,1.0,0.3062009999998736
662,2,0.8,0.25,35.0,1,1.0,0.3371009999996204
663,2,0.8,0.0625,-35.0,-1,1.0,0.192801000000145
664,2,0.8,1.0,-35.0,-1,1.0,0.4474009999998998
665,2,0.8,0.25,35.0,1,1.0,0.593000999999731
666,2,0.8,0.0625,-35.0,-1,1.0,0.28070100000013554
667,2,0.8,0.0625,-35.0,1,0.0,0.1264009999999871
668,2,0.8,1.0,-35.0,-1,1.0,0.6243009999998321
669,2,0.8,0.0,-35.0,-1,1.0,0.5666009999999915
670,2,0.8,0.0625,-35.0,-1,1.0,0.3911009999997077
671,2,0.8,0.0625,-35.0,-1,1.0,0.24670100000003004
672,2,0.8,0.125,-35.0,-1,1.0,0.2312010000000555
673,2,0.8,0.0625,-35.0,-1,1.0,0.4802009999998518
674,2,0.8,0.0,-35.0,-1,1.0,0.2448010000002796
675,2,0.8,0.25,35.0,1,1.0,0.43030099999987215
676,2,0.8,0.125,-35.0,-1,1.0,0.5014010000004419
677,2,0.8,0.125,35.0,1,1.0,0.7139010000000781
678,2,0.8,0.125,-35.0,-1,1.0,0.31830100000024686
679,2,0.8,1.0,-35.0,-1,1.0,0.17170100000021193
680,2,0.8,0.25,35.0,-1,0.0,0.19850099999985105
681,2,0.8,0.0625,35.0,1,1.0,0.5543010000001232
682,2,0.8,0.0625,-35.0,-1,1.0,0.48180100000035964
683,2,0.8,0.0,-35.0,-1,1.0,0.2676010000000133
684,2,0.8,1.0,-35.0,-1,1.0,0.25200100000029124
685,2,0.8,0.0625,35.0,1,1.0,0.8876009999999042
686,2,0.8,1.0,-35.0,-1,1.0,0.45550100000036764
687,2,0.8,1.0,-35.0,-1,1.0,0.42120100000011007
688,2,0.8,0.0,-35.0,-1,1.0,0.2057009999998627
689,2,0.8,0.0625,-35.0,-1,1.0,0.218101000000388
690,2,0.8,0.125,-35.0,-1,1.0,0.19240099999979066
691,2,0.8,1.0,-35.0,-1,1.0,0.22480099999984304
692,2,0.8,0.25,35.0,1,1.0,0.356101000000308
693,2,0.8,0.0625,-35.0,-1,1.0,0.4750010000002476
694,2,0.8,0.0,-35.0,-1,1.0,0.42950100000007296
695,2,0.8,0.25,-35.0,-1,1.0,0.31510100000014063
696,2,0.8,1.0,35.0,1,1.0,0.25970099999995
697,2,0.8,0.0,-35.0,-1,1.0,3.191900999999689
698,2,0.8,0.125,-35.0,-1,1.0,0.39640100000042366
699,2,0.8,0.0,-35.0,-1,1.0,0.26570100000026287
700,2,0.8,0.25,-35.0,-1,1.0,0.3200010000000475
701,2,0.8,0.0625,-35.0,-1,1.0,0.35910100000000966
702,2,0.8,1.0,-35.0,-1,1.0,0.2702009999998154
703,2,0.8,0.125,-35.0,-1,1.0,1.2926010000001042
704,2,0.8,0.25,-35.0,-1,1.0,0.41020099999968807
705,2,0.8,0.25,35.0,1,1.0,0.40260099999977683
706,2,0.8,0.25,-35.0,-1,1.0,0.5006010000001879
707,2,0.8,0.0,-35.0,-1,1.0,0.32270100000005186
708,2,0.8,0.25,-35.0,-1,1.0,0.2727010000003247
709,2,0.8,1.0,-35.0,-1,1.0,0.4564010000003691
710,2,0.8,1.0,-35.0,-1,1.0,0.4106010000000424
711,2,0.8,0.0,-35.0,-1,1.0,0.30980100000033417
712,2,0.8,0.0,35.0,-1,0.0,0.2808010000003378
713,2,0.8,0.125,-35.0,-1,1.0,0.17650100000037128
714,2,0.8,0.0,-35.0,-1,1.0,0.2977009999999609
715,2,0.8,0.125,35.0,-1,0.0,0.34670100000039383
716,2,0.8,0.25,35.0,1,1.0,0.6447009999997135
717,2,0.8,1.0,-35.0,-1,1.0,0.4370009999997819
718,2,0.8,0.25,-35.0,-1,1.0,0.481300999999803
719,2,0.8,0.0,35.0,-1,0.0,0.37360099999978047
720,2,0.8,0.25,35.0,1,1.0,0.3118010000002869
721,2,0.8,1.0,-35.0,1,0.0,0.8939010000003691
722,2,0.8,0.25,-35.0,-1,1.0,0.42510100000026796
723,2,0.8,0.25,-35.0,-1,1.0,0.3906010000000606
724,2,0.8,1.0,-35.0,-1,1.0,0.3988009999998212
725,2,0.8,0.125,-35.0,-1,1.0,0.30410100000017337
726,2,0.2,0.0,35.0,-1,0.0,0.27200100000027305
727,2,0.2,1.0,35.0,1,1.0,0.2877010000001974
728,2,0.2,0.0625,35.0,1,1.0,1.1353009999997994
729,2,0.2,0.0,-35.0,1,0.0,2.5877009999999245
730,2,0.2,1.0,35.0,1,1.0,0.22590100000024904
731,2,0.2,0.0625,35.0,1,1.0,0.9181009999997514
732,2,0.2,1.0,35.0,1,1.0,0.3294010000004164
733,2,0.2,0.125,35.0,1,1.0,0.47820099999989907
734,2,0.2,0.0625,35.0,1,1.0,0.6092010000002119
735,2,0.2,0.125,-35.0,1,0.0,1.1117010000002665
736,2,0.2,0.0625,35.0,1,1.0,0.45950100000027305
737,2,0.2,0.0625,35.0,1,1.0,0.42520099999956074
738,2,0.2,1.0,35.0,1,1.0,0.36970100000007733
739,2,0.2,0.0625,35.0,1,1.0,0.6453010000004724
740,2,0.2,0.0625,35.0,1,1.0,0.7999010000003182
741,2,0.2,0.125,35.0,1,1.0,0.7621009999998023
742,2,0.2,0.125,35.0,1,1.0,0.9002009999999245
743,2,0.2,0.25,-35.0,1,0.0,0.47220100000004095
744,2,0.2,0.0,35.0,-1,0.0,0.45670100000052116
745,2,0.2,0.25,35.0,1,1.0,0.6223009999998794
746,2,0.2,0.0625,35.0,1,1.0,0.6969010000002527
747,2,0.2,0.25,35.0,1,1.0,0.4858009999998103
748,2,0.2,0.125,35.0,1,1.0,0.38040100000034727
749,2,0.2,1.0,35.0,1,1.0,0.27250099999992017
750,2,0.2,0.25,35.0,1,1.0,0.5071010000001479
751,2,0.2,0.25,35.0,1,1.0,0.3394010000001799
752,2,0.2,1.0,35.0,1,1.0,0.27070099999991726
753,2,0.2,0.25,35.0,1,1.0,0.35310100000015154
754,2,0.2,0.0,35.0,-1,0.0,1.7639009999998052
755,2,0.2,0.25,-35.0,-1,1.0,0.343000999999731
756,2,0.2,0.25,35.0,1,1.0,0.2710010000000693
757,2,0.2,1.0,-35.0,1,0.0,0.48660100000006423
758,2,0.2,0.25,35.0,1,1.0,0.2746009999996204
759,2,0.2,1.0,35.0,1,1.0,0.31670100000019374
760,2,0.2,0.125,-35.0,-1,1.0,1.2048009999998612
761,2,0.2,1.0,35.0,1,1.0,0.26010100000030434
762,2,0.2,0.0625,35.0,1,1.0,0.5713010000004033
763,2,0.2,0.125,-35.0,1,0.0,0.3635010000002694
764,2,0.2,0.0,35.0,-1,0.0,0.7249010000000453
765,2,0.2,0.25,35.0,1,1.0,0.6504009999998743
766,2,0.2,0.0,35.0,-1,0.0,1.961500999999771
767,2,0.2,1.0,35.0,1,1.0,0.29400100000020757
768,2,0.2,0.0625,35.0,1,1.0,0.3250010000006114
769,2,0.2,0.25,35.0,1,1.0,0.4376010000005408
770,2,0.2,0.0625,-35.0,-1,1.0,0.7887009999999464
771,2,0.2,0.0,35.0,-1,0.0,0.5241009999999733
772,2,0.8,0.25,-35.0,-1,1.0,0.37230100000033417
773,2,0.8,0.25,-35.0,-1,1.0,0.4510009999999056
774,2,0.8,1.0,-35.0,1,0.0,0.49910099999988233
775,2,0.8,0.0625,-35.0,-1,1.0,0.7278009999999995
776,2,0.8,0.25,-35.0,-1,1.0,0.31590100000039456
777,2,0.8,1.0,-35.0,-1,1.0,0.4480009999997492
778,2,0.8,0.25,-35.0,-1,1.0,0.36260100000026796
779,2,0.8,0.125,-35.0,-1,1.0,0.4882009999996626
780,2,0.8,0.125,-35.0,-1,1.0,0.4394009999996342
781,2,0.8,0.125,-35.0,-1,1.0,0.3052009999996699
782,2,0.8,0.125,-35.0,-1,1.0,0.14950099999987287
783,2,0.8,0.0,35.0,-1,0.0,0.3717009999995753
784,2,0.8,0.0625,-35.0,-1,1.0,0.6629010000001472
785,2,0.8,0.125,-35.0,-1,1.0,1.215400999999929
786,2,0.8,1.0,-35.0,-1,1.0,0.4597009999997681
787,2,0.8,0.125,-35.0,-1,1.0,0.13880100000005768
788,2,0.8,0.0625,-35.0,-1,1.0,0.2632010000002083
789,2,0.8,0.125,35.0,-1,0.0,0.1389009999998052
790,2,0.8,0.25,-35.0,-1,1.0,0.32690099999990707
791,2,0.8,0.125,-35.0,-1,1.0,0.12590099999988524
792,2,0.8,0.0625,-35.0,-1,1.0,0.547200999999859
793,2,0.8,0.25,35.0,1,1.0,0.3158010000001923
794,2,0.8,1.0,-35.0,-1,1.0,0.6142009999998663
795,2,0.8,0.125,-35.0,-1,1.0,0.44610099999999875
796,2,0.8,0.0625,-35.0,-1,1.0,0.277201000000332
797,2,0.8,0.125,-35.0,-1,1.0,0.5340009999999893
798,2,0.8,0.25,35.0,1,1.0,0.7009009999997033
799,2,0.8,0.125,-35.0,-1,1.0,0.36990100000048187
800,2,0.8,0.125,-35.0,-1,1.0,0.416501000000153
801,2,0.8,0.0,35.0,-1,0.0,0.36340100000006714
802,2,0.8,1.0,35.0,1,1.0,0.22780099999999948
803,2,0.8,0.0,-35.0,1,0.0,1.0434009999999034
804,2,0.8,0.125,-35.0,-1,1.0,0.307901000000129
805,2,0.2,0.25,35.0,1,1.0,0.3037010000002738
806,2,0.2,0.0,-35.0,-1,1.0,0.2946009999996022
807,2,0.2,0.125,35.0,1,1.0,0.5103009999997994
808,2,0.2,0.0625,35.0,-1,0.0,0.3082009999998263
809,2,0.2,0.25,35.0,1,1.0,0.2971010000001115
810,2,0.2,0.125,-35.0,-1,1.0,0.18170099999997547
811,2,0.2,0.0625,35.0,-1,0.0,1.9405009999995855
812,2,0.2,0.25,35.0,1,1.0,0.3451009999994312
813,2,0.2,0.0,-35.0,-1,1.0,2.034001000000444
814,2,0.2,0.0625,-35.0,-1,1.0,0.4051009999998314
815,2,0.2,0.0625,35.0,-1,0.0,0.417500999999902
816,2,0.2,0.25,35.0,1,1.0,0.5320010000000366
817,2,0.2,1.0,35.0,1,1.0,0.26440099999990707
818,2,0.2,0.0625,35.0,-1,0.0,1.1789009999997688
819,2,0.2,0.125,-35.0,1,0.0,1.1622010000000955
820,2,0.2,1.0,-35.0,1,0.0,0.4594010000000708
821,2,0.2,0.25,35.0,1,1.0,0.44810099999995145
822,2,0.2,0.125,35.0,1,1.0,0.40910100000019156
823,2,0.2,0.125,35.0,1,1.0,0.5747010000000046
824,2,0.2,0.125,35.0,1,1.0,0.5593010000002323
825,2,0.2,1.0,35.0,1,1.0,0.31150099999968006
826,2,0.2,0.125,35.0,1,1.0,0.2297009999997499
827,2,0.2,0.125,-35.0,1,0.0,0.17500099999961094
828,2,0.2,0.0,-35.0,-1,1.0,1.0229009999998198
829,2,0.8,0.125,-35.0,-1,1.0,2.1085010000001603
830,2,0.8,0.0625,-35.0,-1,1.0,0.8330009999999675
831,2,0.8,0.125,-35.0,-1,1.0,0.46240099999977247
832,2,0.8,0.0,35.0,-1,0.0,0.20350099999996019
833,2,0.8,0.125,-35.0,-1,1.0,0.2989009999996597
834,2,0.8,1.0,-35.0,-1,1.0,0.5836009999998168
835,2,0.8,0.125,-35.0,-1,1.0,3.2057010000003174
836,2,0.8,0.0625,-35.0,-1,1.0,0.6757010000001173
837,2,0.8,0.0625,-35.0,-1,1.0,0.850601000000097
838,2,0.8,0.125,-35.0,-1,1.0,0.46600100000023303
839,2,0.8,0.25,-35.0,-1,1.0,0.48370100000011007
840,2,0.8,1.0,35.0,1,1.0,0.3894010000003618
841,2,0.8,0.0,35.0,-1,0.0,0.343000999999731
842,2,0.8,0.0625,-35.0,-1,1.0,1.744101000000228
843,2,0.8,1.0,-35.0,-1,1.0,0.9730009999998401
844,2,0.8,1.0,-35.0,-1,1.0,0.4341010000002825
845,2,0.8,1.0,-35.0,-1,1.0,0.5631010000001879
846,2,0.8,0.0625,-35.0,-1,1.0,0.4342010000004848
847,2,0.8,0.25,-35.0,-1,1.0,0.7202010000000882
848,2,0.8,1.0,-35.0,1,0.0,2.1776010000003225
849,2,0.8,0.125,-35.0,-1,1.0,0.8734010000002854
850,2,0.8,0.0,-35.0,-1,1.0,2.6780009999997674
851,2,0.8,0.125,-35.0,-1,1.0,0.48040099999980157
852,2,0.8,0.125,35.0,1,1.0,0.3082009999998263
853,2,0.8,0.0625,-35.0,-1,1.0,0.4870009999999638
854,2,0.8,0.0625,35.0,1,1.0,0.368300999999974
855,2,0.8,1.0,-35.0,-1,1.0,0.4006010000002789
856,2,0.8,1.0,-35.0,-1,1.0,0.6420009999997092
857,2,0.8,0.25,35.0,1,1.0,0.5552009999996699
858,2,0.8,0.0,-35.0,-1,1.0,0.4351010000000315
859,2,0.8,1.0,35.0,1,1.0,0.2774010000002818
860,2,0.8,0.125,-35.0,-1,1.0,1.0920009999995273
861,2,0.8,0.0625,-35.0,-1,1.0,0.47750100000030216
862,2,0.8,0.0625,-35.0,-1,1.0,0.5256010000002789
863,2,0.8,0.0625,-35.0,-1,1.0,0.5446010000005117
864,2,0.8,0.125,-35.0,-1,1.0,0.43250099999977465
865,2,0.8,0.0,-35.0,-1,1.0,0.40460099999972954
866,2,0.8,0.25,35.0,1,1.0,0.9558009999996102
867,2,0.8,0.0,-35.0,-1,1.0,0.49480099999982485
868,2,0.8,0.25,-35.0,-1,1.0,0.2960010000001603
869,2,0.8,0.0,-35.0,-1,1.0,0.5150010000002112
870,2,0.8,0.0,-35.0,-1,1.0,0.2560009999997419
871,2,0.8,0.0625,-35.0,-1,1.0,0.48170100000015736
872,2,0.8,0.0,35.0,-1,0.0,0.5895009999999274
873,2,0.8,0.25,-35.0,-1,1.0,0.41190099999994345
874,2,0.8,0.0625,-35.0,-1,1.0,0.2430010000002767
875,2,0.8,0.0,-35.0,-1,1.0,0.5120010000000548
876,2,0.8,0.25,-35.0,-1,1.0,0.243300999999974
877,2,0.8,0.25,-35.0,-1,1.0,0.2154009999999289
878,2,0.8,0.125,-35.0,-1,1.0,0.4402010000003429
879,2,0.8,0.0,-35.0,-1,1.0,0.4887010000002192
880,2,0.8,0.0,-35.0,-1,1.0,0.30010100000026796
881,2,0.8,0.0625,-35.0,-1,1.0,0.3459010000001399
882,2,0.8,0.25,-35.0,-1,1.0,0.2837009999998372
883,2,0.8,0.25,-35.0,-1,1.0,0.45240100000000893
884,2,0.8,0.125,-35.0,-1,1.0,0.730301000000054
885,2,0.8,0.25,-35.0,-1,1.0,0.2595010000000002
886,2,0.8,0.0625,35.0,-1,0.0,0.27730099999962476
887,2,0.8,0.125,-35.0,-1,1.0,0.49290100000052917
888,2,0.8,0.125,35.0,1,1.0,0.30750099999977465
889,2,0.8,0.25,-35.0,-1,1.0,0.7198010000001887
