trial_num,session_num,stim_probability_left,contrast,position,response_choice,trial_correct,reaction_time
1,18,0.5,1.0,-35.0,-1,1.0,
2,18,0.5,1.0,-35.0,-1,1.0,0.47810099999999967
3,18,0.5,0.25,-35.0,-1,1.0,0.3439010000000007
4,18,0.5,1.0,35.0,1,1.0,0.4795999999999996
5,18,0.5,1.0,-35.0,-1,1.0,0.37990100000000027
6,18,0.5,0.25,-35.0,-1,1.0,0.4913999999999987
7,18,0.5,0.5,35.0,1,1.0,0.5862009999999991
8,18,0.5,0.25,35.0,1,1.0,0.5059010000000015
9,18,0.5,1.0,-35.0,-1,1.0,0.416601
10,18,0.5,1.0,35.0,1,1.0,0.15760000000000218
11,18,0.5,1.0,-35.0,-1,1.0,0.8781010000000009
12,18,0.5,1.0,-35.0,-1,1.0,0.20920000000000272
13,18,0.5,1.0,-35.0,-1,1.0,0.24320000000000164
14,18,0.5,0.5,35.0,-1,0.0,0.23480100000000448
15,18,0.5,0.25,-35.0,-1,1.0,0.2880000000000038
16,18,0.5,0.5,35.0,1,1.0,0.14240000000000919
17,18,0.5,1.0,-35.0,-1,1.0,0.24680100000000493
18,18,0.5,0.25,35.0,1,1.0,0.4166000000000025
19,18,0.5,0.25,-35.0,-1,1.0,0.27440099999999745
20,18,0.5,0.5,-35.0,-1,1.0,0.22750000000000625
21,18,0.5,0.25,35.0,-1,0.0,0.20189999999999486
22,18,0.5,0.25,35.0,1,1.0,0.27200000000000557
23,18,0.5,0.5,35.0,1,1.0,0.3757010000000065
24,18,0.5,1.0,-35.0,-1,1.0,0.25560000000000116
25,18,0.5,0.25,-35.0,-1,1.0,0.22160000000000935
26,18,0.5,0.25,-35.0,-1,1.0,0.4679010000000119
27,18,0.5,0.25,-35.0,-1,1.0,0.23620000000001085
28,18,0.5,0.25,35.0,1,1.0,0.290300000000002
29,18,0.5,0.5,35.0,1,1.0,0.3295010000000076
30,18,0.5,0.5,-35.0,-1,1.0,0.21600100000000566
31,18,0.5,1.0,35.0,1,1.0,0.19600099999999543
32,18,0.5,1.0,35.0,1,1.0,0.2793010000000038
33,18,0.5,0.5,-35.0,-1,1.0,0.3979010000000045
34,18,0.5,1.0,-35.0,-1,1.0,0.3906999999999812
35,18,0.5,0.25,-35.0,-1,1.0,0.4383009999999956
36,18,0.5,0.5,35.0,1,1.0,0.27910099999996874
37,18,0.5,0.25,-35.0,-1,1.0,0.1929010000000062
38,18,0.5,0.25,-35.0,1,0.0,1.0544010000000128
39,18,0.5,0.25,35.0,1,1.0,0.2757000000000005
40,18,0.5,1.0,35.0,1,1.0,0.3043010000000095
41,18,0.5,0.5,35.0,1,1.0,0.23390100000000302
42,18,0.5,1.0,35.0,1,1.0,0.3183999999999969
43,18,0.5,0.5,35.0,1,1.0,0.43329999999997426
44,18,0.5,1.0,35.0,1,1.0,0.19860099999999647
45,18,0.5,0.25,-35.0,1,0.0,0.4791009999999858
46,18,0.9,0.25,35.0,1,1.0,0.2595009999999718
47,18,0.5,0.5,-35.0,-1,1.0,0.24060099999996964
48,18,0.5,1.0,-35.0,-1,1.0,0.24820099999999456
49,18,0.5,1.0,-35.0,-1,1.0,0.310701000000023
50,18,0.5,0.5,-35.0,-1,1.0,0.28150099999999156
51,18,0.5,0.25,35.0,1,1.0,0.39760099999998033
52,18,0.5,0.25,-35.0,-1,1.0,0.24439999999998463
53,18,0.5,0.5,35.0,1,1.0,0.36270099999998706
54,18,0.5,0.5,-35.0,-1,1.0,0.28709999999998104
55,18,0.5,0.5,-35.0,-1,1.0,0.21620099999998388
56,18,0.5,0.5,-35.0,1,0.0,0.09260099999997351
57,18,0.3,0.5,-35.0,-1,1.0,0.24219999999999686
58,18,0.5,0.5,35.0,1,1.0,0.38530099999999834
59,18,0.5,0.25,35.0,1,1.0,0.3587009999999964
60,18,0.5,0.25,-35.0,1,0.0,1.3585009999999897
61,18,0.5,0.25,35.0,1,1.0,0.25820099999998547
62,18,0.5,0.25,35.0,1,1.0,0.4369999999999834
63,18,0.5,0.5,35.0,1,1.0,0.2601999999999691
64,18,0.5,0.25,-35.0,-1,1.0,0.23920099999998
65,18,0.5,0.5,35.0,1,1.0,0.4062009999999532
66,18,0.5,1.0,35.0,1,1.0,0.3558009999999854
67,18,0.5,0.5,-35.0,-1,1.0,0.2505010000000141
68,18,0.5,0.25,35.0,1,1.0,0.24600099999997838
69,18,0.5,0.25,35.0,1,1.0,0.5110010000000216
70,18,0.5,0.25,35.0,1,1.0,0.279500999999982
71,18,0.5,0.25,-35.0,-1,1.0,0.22370100000006232
72,18,0.5,0.5,35.0,1,1.0,0.24159999999994852
73,18,0.5,1.0,-35.0,-1,1.0,0.2210010000000011
74,18,0.5,1.0,35.0,-1,0.0,0.11810100000002421
75,18,0.6,1.0,35.0,1,1.0,0.35710000000000264
76,18,0.5,0.5,-35.0,-1,1.0,0.3721010000000433
77,18,0.5,0.25,35.0,1,1.0,0.3554009999999721
78,18,0.5,1.0,-35.0,-1,1.0,0.21160099999997328
79,18,0.5,1.0,-35.0,-1,1.0,0.2425010000000043
80,18,0.5,0.25,-35.0,-1,1.0,0.38409999999998945
81,18,0.5,0.25,35.0,1,1.0,0.3619009999999321
82,18,0.5,1.0,35.0,1,1.0,0.35140000000001237
83,18,0.5,1.0,-35.0,-1,1.0,0.22710100000000466
84,18,0.5,0.5,-35.0,-1,1.0,0.34660100000002103
85,18,0.5,0.25,-35.0,-1,1.0,0.5033010000000218
86,18,0.5,0.5,35.0,1,1.0,0.38990100000000893
87,18,0.5,0.5,-35.0,-1,1.0,0.19679999999993925
88,18,0.5,0.25,-35.0,-1,1.0,0.2483010000000263
89,18,0.5,1.0,-35.0,1,0.0,0.08810099999999466
90,18,0.5,0.25,35.0,1,1.0,0.4503010000000245
91,18,0.5,0.25,35.0,-1,0.0,0.23540000000002692
92,18,0.4,0.25,-35.0,-1,1.0,0.3161999999999807
93,18,0.5,1.0,35.0,1,1.0,0.2631009999999492
94,18,0.5,0.5,-35.0,-1,1.0,0.295900999999958
95,18,0.5,1.0,-35.0,1,0.0,0.1370009999999411
96,18,0.5,0.25,-35.0,1,0.0,0.11259999999998627
97,18,0.5,0.25,-35.0,1,0.0,0.5258009999999445
98,18,0.5,1.0,-35.0,-1,1.0,0.3224010000000135
99,18,0.5,0.25,-35.0,-1,1.0,0.2588010000000054
100,18,0.5,0.5,35.0,1,1.0,0.2359000000000151
101,18,0.5,0.5,-35.0,-1,1.0,0.22770099999996773
102,18,0.5,0.5,-35.0,-1,1.0,0.2286999999999466
103,18,0.5,0.25,-35.0,1,0.0,0.1813009999999622
104,18,0.5,0.25,35.0,1,1.0,0.247099999999989
105,18,0.5,1.0,35.0,1,1.0,0.3311999999999671
106,18,0.5,0.5,-35.0,-1,1.0,0.2290010000000393
107,18,0.5,0.25,35.0,1,1.0,0.2607999999999606
108,18,0.5,1.0,-35.0,-1,1.0,0.42399999999997817
109,18,0.5,1.0,35.0,1,1.0,0.3359999999999559
110,18,0.5,0.5,35.0,1,1.0,0.4825999999999908
111,18,0.5,0.5,35.0,1,1.0,0.39109999999999445
112,18,0.5,1.0,-35.0,-1,1.0,0.5854000000000497
113,18,0.5,0.5,-35.0,-1,1.0,0.2328000000000543
114,18,0.5,1.0,35.0,1,1.0,0.3897999999999797
115,18,0.5,1.0,-35.0,-1,1.0,0.266900000000021
116,18,0.5,0.25,35.0,1,1.0,0.2274009999999862
117,18,0.5,0.25,-35.0,-1,1.0,0.36080099999998083
118,18,0.5,1.0,35.0,1,1.0,0.323599999999999
119,18,0.5,0.5,-35.0,1,0.0,0.09319999999996753
120,18,0.6,0.5,35.0,1,1.0,0.33509999999995443
121,18,0.5,1.0,35.0,1,1.0,0.2574999999999932
122,18,0.5,0.25,35.0,1,1.0,0.344900999999993
123,18,0.5,0.25,35.0,1,1.0,0.2923009999999522
124,18,0.5,0.25,-35.0,-1,1.0,0.33040099999999484
125,18,0.5,1.0,-35.0,-1,1.0,0.25950000000000273
126,18,0.5,0.5,35.0,-1,0.0,0.2617999999999938
127,18,0.5,0.25,35.0,-1,0.0,0.18849999999997635
128,18,0.5,0.25,-35.0,-1,1.0,0.3102010000000064
129,18,0.5,0.5,35.0,1,1.0,0.3001010000000406
130,18,0.5,0.25,35.0,1,1.0,0.30339999999989686
131,18,0.5,0.25,35.0,1,1.0,0.5339000000000169
132,18,0.5,0.5,35.0,-1,0.0,0.14790099999993345
133,18,0.4,0.5,35.0,1,1.0,0.28480099999990216
134,18,0.5,1.0,-35.0,-1,1.0,0.253900999999928
135,18,0.5,0.5,35.0,1,1.0,0.37920099999996637
136,18,0.5,0.5,-35.0,-1,1.0,0.23080100000004222
137,18,0.5,1.0,35.0,1,1.0,0.24899999999990996
138,18,0.5,0.25,-35.0,-1,1.0,0.384900000000016
139,18,0.5,1.0,-35.0,-1,1.0,0.21879999999998745
140,18,0.5,0.25,35.0,1,1.0,0.09539999999992688
141,18,0.5,0.5,35.0,1,1.0,0.3479009999999789
142,18,0.5,0.5,35.0,1,1.0,0.25670100000002094
143,18,0.5,0.25,35.0,1,1.0,0.38960100000008424
144,18,0.5,0.5,-35.0,-1,1.0,0.3055010000000493
145,18,0.5,0.5,-35.0,-1,1.0,0.4626010000000633
146,18,0.5,0.5,-35.0,-1,1.0,0.11620099999993272
147,18,0.5,1.0,35.0,1,1.0,0.2333009999999831
148,18,0.5,1.0,-35.0,-1,1.0,0.285301000000004
149,18,0.5,1.0,-35.0,-1,1.0,0.7291010000000142
150,18,0.5,1.0,-35.0,-1,1.0,0.3167999999999438
151,18,0.5,0.5,-35.0,-1,1.0,0.626700000000028
152,18,0.5,1.0,35.0,1,1.0,0.323099999999954
153,18,0.5,1.0,-35.0,-1,1.0,0.3668010000000095
154,18,0.5,0.5,-35.0,-1,1.0,0.3160000000000309
155,18,0.5,0.5,35.0,1,1.0,0.32330000000001746
156,18,0.5,1.0,35.0,1,1.0,0.29490099999998165
157,18,0.5,0.25,-35.0,-1,1.0,0.15150100000005295
158,18,0.5,0.25,35.0,1,1.0,0.3053010000000995
159,18,0.5,0.5,35.0,1,1.0,0.1469009999999571
160,18,0.5,1.0,35.0,1,1.0,0.314899999999966
161,18,0.5,0.5,35.0,1,1.0,0.25240000000007967
162,18,0.5,0.5,35.0,1,1.0,0.11619999999993524
163,18,0.5,1.0,-35.0,-1,1.0,0.34990099999993163
164,18,0.5,0.25,35.0,1,1.0,0.49680099999989125
165,18,0.5,0.5,35.0,1,1.0,0.5497010000000273
166,18,0.5,0.5,-35.0,1,0.0,0.778801000000044
167,18,0.5,0.25,35.0,1,1.0,0.19709999999997763
168,18,0.5,0.25,35.0,1,1.0,0.3262009999999691
169,18,0.5,0.25,35.0,1,1.0,0.24070099999994454
170,18,0.5,0.125,35.0,1,1.0,0.4054999999999609
171,18,0.5,0.5,-35.0,-1,1.0,0.31169999999997344
172,18,0.5,0.125,-35.0,-1,1.0,0.28670099999999366
173,18,0.5,0.25,35.0,1,1.0,0.10669999999993252
174,18,0.5,1.0,35.0,1,1.0,0.23829999999998108
175,18,0.5,0.125,35.0,1,1.0,0.5002999999999247
176,18,0.5,0.5,-35.0,1,0.0,0.11160100000006423
177,18,0.5,0.25,35.0,1,1.0,0.31750099999999293
178,18,0.5,1.0,-35.0,-1,1.0,0.6309999999999718
179,18,0.5,1.0,35.0,1,1.0,0.24260099999992235
180,18,0.5,0.125,35.0,1,1.0,0.42590100000006714
181,18,0.5,0.125,-35.0,1,0.0,0.36330099999986487
182,18,0.5,0.125,35.0,1,1.0,0.3466009999999642
183,18,0.5,0.25,-35.0,1,0.0,0.31330099999991035
184,18,0.9,0.25,-35.0,1,0.0,0.31330000000002656
185,18,0.5,1.0,-35.0,-1,1.0,0.27500099999997474
186,18,0.5,1.0,-35.0,-1,1.0,0.3158009999999649
187,18,0.5,1.0,35.0,1,1.0,0.1104010000000244
188,18,0.5,0.125,35.0,1,1.0,0.28440100000000257
189,18,0.5,0.25,-35.0,1,0.0,0.22390099999995527
190,18,0.5,0.125,-35.0,1,0.0,0.20320000000003802
191,18,0.5,0.125,-35.0,1,0.0,0.36559999999997217
192,18,0.5,0.25,-35.0,1,0.0,0.9734009999999671
193,18,0.5,0.125,-35.0,1,0.0,0.12090000000011969
194,18,0.5,0.125,35.0,1,1.0,0.30680099999995036
195,18,0.5,0.25,35.0,1,1.0,0.2828999999999269
196,18,0.5,0.125,35.0,1,1.0,0.20280000000002474
197,18,0.5,0.5,35.0,1,1.0,0.11530099999993126
198,18,0.5,0.125,35.0,1,1.0,0.2798000000000229
199,18,0.5,0.5,-35.0,-1,1.0,0.6124009999999771
200,18,0.5,0.25,35.0,1,1.0,0.2869999999999209
201,18,0.5,0.25,35.0,1,1.0,0.2955009999999447
202,18,0.5,0.5,-35.0,-1,1.0,0.7282010000000128
203,18,0.5,1.0,35.0,1,1.0,0.23370099999999638
204,18,0.5,0.125,35.0,1,1.0,0.23080100000004222
205,18,0.5,0.125,-35.0,1,0.0,0.3606999999999516
206,18,0.8,0.125,-35.0,1,0.0,0.44029999999997926
207,18,0.5,1.0,-35.0,-1,1.0,0.37970100000006823
208,18,0.5,0.5,-35.0,-1,1.0,0.6749009999999771
209,18,0.5,0.25,-35.0,1,0.0,0.39320100000009006
210,18,0.5,0.25,35.0,1,1.0,0.2553010000000313
211,18,0.5,1.0,-35.0,-1,1.0,0.4330009999999902
212,18,0.5,0.25,-35.0,-1,1.0,0.4492999999999938
213,18,0.5,0.5,35.0,1,1.0,0.1392999999999347
214,18,0.5,0.5,-35.0,-1,1.0,0.31070100000010825
215,18,0.5,1.0,-35.0,-1,1.0,0.25590100000010807
216,18,0.5,0.125,-35.0,1,0.0,0.5077009999999973
217,18,0.4,0.125,35.0,1,1.0,0.2801010000000588
218,18,0.5,1.0,35.0,1,1.0,0.11959999999999127
219,18,0.5,0.25,-35.0,-1,1.0,0.42670099999998
220,18,0.5,0.5,35.0,1,1.0,0.2936010000000806
221,18,0.5,0.25,35.0,1,1.0,0.2511009999999487
222,18,0.5,0.125,35.0,1,1.0,0.23510000000010223
223,18,0.5,1.0,-35.0,-1,1.0,0.2975010000000111
224,18,0.5,0.5,35.0,1,1.0,0.2035999999999376
225,18,0.5,0.25,-35.0,-1,1.0,0.3286000000000513
226,18,0.5,0.125,35.0,-1,0.0,0.22460000000000946
227,18,0.6,0.125,35.0,1,1.0,0.4112010000000055
228,18,0.5,0.5,-35.0,-1,1.0,0.23029999999994288
229,18,0.5,0.25,-35.0,-1,1.0,0.38980100000003404
230,18,0.5,1.0,-35.0,1,0.0,0.11400100000003022
231,18,0.5,1.0,35.0,1,1.0,0.21699999999998454
232,18,0.5,0.5,35.0,1,1.0,0.3216009999999869
233,18,0.5,0.5,-35.0,-1,1.0,0.29919999999992797
234,18,0.5,0.25,-35.0,-1,1.0,0.30119999999999436
235,18,0.5,1.0,-35.0,-1,1.0,0.29280099999994036
236,18,0.5,0.125,-35.0,-1,1.0,0.30329999999992197
237,18,0.5,0.5,35.0,1,1.0,0.3240009999999529
238,18,0.5,0.25,-35.0,-1,1.0,0.26870000000008076
239,18,0.5,0.5,35.0,1,1.0,0.3285999999999376
240,18,0.5,1.0,35.0,1,1.0,0.22270000000003165
241,18,0.5,1.0,35.0,1,1.0,0.20070099999986724
242,18,0.5,0.125,-35.0,-1,1.0,0.37639999999987594
243,18,0.5,0.25,35.0,1,1.0,0.3602009999999609
244,18,0.5,1.0,-35.0,-1,1.0,0.2901010000000497
245,18,0.5,0.5,-35.0,-1,1.0,0.2576010000000224
246,18,0.5,0.5,35.0,1,1.0,0.2977009999999609
247,18,0.5,0.125,-35.0,-1,1.0,0.44170100000008006
248,18,0.5,1.0,35.0,1,1.0,0.26779999999985193
249,18,0.5,0.125,-35.0,1,0.0,0.3586009999999078
250,18,0.5,0.25,-35.0,-1,1.0,0.3279009999999971
251,18,0.5,0.125,35.0,1,1.0,0.31900100000007114
252,18,0.5,0.125,35.0,1,1.0,0.9481000000000677
253,18,0.5,0.25,-35.0,-1,1.0,0.6361010000000533
254,18,0.5,1.0,-35.0,-1,1.0,0.384900000000016
255,18,0.5,1.0,-35.0,-1,1.0,0.43590100000005805
256,18,0.5,0.25,35.0,1,1.0,0.16180099999996855
257,18,0.5,0.5,35.0,1,1.0,0.1661010000002534
258,18,0.5,0.5,-35.0,-1,1.0,0.4854010000001381
259,18,0.5,1.0,35.0,1,1.0,0.28630100000009406
260,18,0.5,0.5,-35.0,1,0.0,0.18210100000010243
261,18,0.6,0.5,35.0,1,1.0,0.24630100000013044
262,18,0.5,0.5,-35.0,-1,1.0,0.5755000000001473
263,18,0.5,1.0,-35.0,-1,1.0,0.32660000000032596
264,18,0.5,1.0,35.0,1,1.0,0.2557010000000446
265,18,0.5,0.25,35.0,-1,0.0,0.13020099999994272
266,18,0.6,0.25,-35.0,1,0.0,0.19249999999988177
267,18,0.5,0.5,-35.0,-1,1.0,0.2701000000001841
268,18,0.5,0.125,-35.0,-1,1.0,0.32260100000007697
269,18,0.5,0.25,35.0,1,1.0,0.4236000000000786
270,18,0.5,0.125,-35.0,-1,1.0,0.6196009999998751
271,18,0.5,1.0,35.0,1,1.0,0.2537999999999556
272,18,0.5,0.25,35.0,1,1.0,0.14620100000001912
273,18,0.5,1.0,35.0,1,1.0,0.19400100000007114
274,18,0.5,0.125,35.0,1,1.0,0.2730000000003656
275,18,0.5,1.0,35.0,-1,0.0,0.12390099999993254
276,18,0.5,0.125,35.0,1,1.0,0.36320100000011735
277,18,0.5,0.125,35.0,1,1.0,0.3343010000000959
278,18,0.5,0.5,35.0,1,1.0,0.23330000000009932
279,18,0.5,0.125,35.0,1,1.0,0.404500999999982
280,18,0.5,0.25,-35.0,-1,1.0,0.3369000000000142
281,18,0.5,0.125,35.0,1,1.0,0.4546010000001388
282,18,0.5,1.0,35.0,-1,0.0,0.11050000000022919
283,18,0.5,0.125,35.0,1,1.0,0.3882009999999809
284,18,0.5,0.125,35.0,1,1.0,0.2839000000001306
285,18,0.5,0.25,35.0,1,1.0,0.23490100000003622
286,18,0.5,0.25,35.0,1,1.0,0.2742000000000644
287,18,0.5,0.25,35.0,1,1.0,0.4283010000001468
288,18,0.5,0.25,35.0,1,1.0,0.2741000000000895
289,18,0.5,1.0,35.0,1,1.0,0.2752000000002681
290,18,0.5,0.125,-35.0,-1,1.0,0.357401000000209
291,18,0.5,0.25,35.0,1,1.0,0.2356000000002041
292,18,0.5,0.125,35.0,1,1.0,0.2311010000000806
293,18,0.5,0.125,35.0,1,1.0,0.23550000000000182
294,18,0.5,0.5,-35.0,-1,1.0,0.4047009999999318
295,18,0.5,0.5,35.0,1,1.0,0.26890000000025793
296,18,0.5,1.0,35.0,1,1.0,0.3052010000001246
297,18,0.5,1.0,35.0,1,1.0,0.25240000000007967
298,18,0.5,0.25,-35.0,1,0.0,0.275101000000177
299,18,0.5,0.125,35.0,1,1.0,0.25260100000014063
300,18,0.5,1.0,35.0,1,1.0,0.25520000000005894
301,18,0.5,0.125,35.0,1,1.0,0.2897010000001501
302,18,0.5,1.0,-35.0,-1,1.0,0.27880100000015773
303,18,0.5,0.125,-35.0,1,0.0,0.23960100000022067
304,18,0.5,0.125,35.0,1,1.0,0.2856000000001586
305,18,0.5,0.5,-35.0,-1,1.0,0.4067010000001119
306,18,0.5,0.25,35.0,1,1.0,0.12220100000035927
307,18,0.5,0.125,-35.0,-1,1.0,0.3632000000000062
308,18,0.5,0.125,35.0,1,1.0,0.23919999999998254
309,18,0.5,0.25,35.0,1,1.0,0.17020100000013372
310,18,0.5,0.125,35.0,1,1.0,0.27260100000012244
311,18,0.5,0.25,35.0,1,1.0,0.29690100000016173
312,18,0.5,0.5,-35.0,1,0.0,0.09639999999990323
313,18,0.5,0.25,35.0,1,1.0,0.17740100000037273
314,18,0.5,0.125,35.0,1,1.0,0.29320000000006985
315,18,0.5,0.5,35.0,1,1.0,0.24070099999994454
316,18,0.5,0.25,-35.0,-1,1.0,0.7367000000001553
317,18,0.5,1.0,-35.0,1,0.0,0.10090000000013788
318,18,0.9,1.0,-35.0,-1,1.0,0.32330000000001746
319,18,0.5,1.0,-35.0,-1,1.0,0.2777000000000953
320,18,0.5,1.0,-35.0,-1,1.0,0.3002000000001317
321,18,0.5,0.5,35.0,1,1.0,0.2781000000002223
322,18,0.5,0.5,-35.0,-1,1.0,0.3303009999999631
323,18,0.5,0.5,-35.0,-1,1.0,0.37820099999999
324,18,0.5,0.25,35.0,1,1.0,0.4071000000001277
325,18,0.5,0.125,-35.0,-1,1.0,0.4449010000000726
326,18,0.5,0.25,35.0,1,1.0,0.30760000000009313
327,18,0.5,0.5,35.0,1,1.0,0.251700000000028
328,18,0.5,0.125,-35.0,-1,1.0,0.5776000000003023
329,18,0.5,0.5,35.0,1,1.0,0.13870100000008279
330,18,0.5,0.5,-35.0,-1,1.0,0.3577010000001337
331,18,0.5,0.5,35.0,1,1.0,0.36900100000002567
332,18,0.5,0.125,-35.0,-1,1.0,0.5479010000001381
333,18,0.5,1.0,-35.0,-1,1.0,0.25220100000001366
334,18,0.5,0.25,35.0,1,1.0,0.34160099999985505
335,18,0.5,0.25,-35.0,-1,1.0,0.20230100000003404
336,18,0.5,0.25,-35.0,-1,1.0,0.30500000000029104
337,18,0.5,0.25,-35.0,-1,1.0,0.21590000000037435
338,18,0.5,0.25,35.0,-1,0.0,0.3784010000001672
339,18,0.5,0.125,-35.0,-1,1.0,0.3460010000001148
340,18,0.5,1.0,-35.0,-1,1.0,0.3287000000000262
341,18,0.5,0.5,-35.0,-1,1.0,0.313001000000213
342,18,0.5,0.25,-35.0,-1,1.0,0.35880100000008497
343,18,0.5,1.0,35.0,-1,0.0,0.12650100000018938
344,18,0.1,1.0,-35.0,-1,1.0,0.28920000000016444
345,18,0.5,1.0,35.0,1,1.0,0.2999999999999545
346,18,0.5,0.25,35.0,1,1.0,0.2557010000000446
347,18,0.5,0.125,-35.0,-1,1.0,0.31010100000025886
348,18,0.5,0.25,-35.0,1,0.0,0.18590100000028542
349,18,0.5,0.25,35.0,1,1.0,0.16039999999998145
350,18,0.5,1.0,35.0,1,1.0,0.36950100000012753
351,18,0.5,0.5,-35.0,-1,1.0,0.4770010000002003
352,18,0.5,0.125,-35.0,-1,1.0,0.29640100000028724
353,18,0.5,0.125,35.0,1,1.0,0.3872000000001208
354,18,0.5,0.25,-35.0,-1,1.0,0.28960000000006403
355,18,0.5,0.5,35.0,1,1.0,0.2573010000000977
356,18,0.5,1.0,-35.0,-1,1.0,0.2931010000002061
357,18,0.5,1.0,35.0,1,1.0,0.22400100000004386
358,18,0.5,0.125,-35.0,1,0.0,0.16330000000016298
359,18,0.6,0.125,-35.0,-1,1.0,0.20760100000006787
360,18,0.5,1.0,35.0,1,1.0,0.2567010000002483
361,18,0.5,1.0,35.0,1,1.0,0.2513000000001284
362,18,0.5,0.25,-35.0,-1,1.0,0.29040100000020175
363,18,0.5,0.25,35.0,1,1.0,0.14790100000004713
364,18,0.5,0.125,-35.0,-1,1.0,0.3505000000000109
365,18,0.5,0.25,35.0,1,1.0,0.30470100000002276
366,18,0.5,0.25,35.0,1,1.0,0.2541000000001077
367,18,0.5,0.5,-35.0,-1,1.0,0.3787010000000919
368,18,0.5,0.25,35.0,1,1.0,0.12760000000002947
369,18,0.5,0.125,35.0,1,1.0,0.13850099999990562
370,18,0.5,0.125,-35.0,-1,1.0,0.21440099999995255
371,18,0.5,0.125,35.0,1,1.0,0.23200000000019827
372,18,0.5,0.25,35.0,1,1.0,0.2579000000000633
373,18,0.5,0.25,35.0,1,1.0,0.37120000000027176
374,18,0.5,0.125,35.0,-1,0.0,0.45560100000011516
375,18,0.7,0.125,-35.0,1,0.0,0.5114000000000942
376,18,0.5,0.5,35.0,1,1.0,0.32920000000012806
377,18,0.5,0.25,35.0,1,1.0,0.47830000000021755
378,18,0.5,0.25,35.0,1,1.0,0.25920099999984814
379,18,0.5,0.125,35.0,1,1.0,0.36510100000009515
380,18,0.5,0.125,-35.0,1,0.0,0.16590000000019245
381,18,0.9,0.125,35.0,1,1.0,0.30850000000032196
382,18,0.5,1.0,-35.0,1,0.0,0.1328009999999722
383,18,0.5,0.125,-35.0,1,0.0,0.33520100000009734
384,18,0.5,0.25,-35.0,1,0.0,0.3164000000001579
385,18,1.0,0.25,35.0,1,1.0,0.11530100000027232
386,18,0.5,0.5,-35.0,-1,1.0,0.3397010000001046
387,18,0.5,0.125,-35.0,1,0.0,0.14229999999997744
388,18,0.9,0.125,-35.0,-1,1.0,1.2098010000001977
389,18,0.5,1.0,-35.0,-1,1.0,0.5191010000000915
390,18,0.5,0.125,35.0,1,1.0,0.2168010000002596
391,18,0.5,0.0625,35.0,1,1.0,0.21580000000017208
392,18,0.5,1.0,-35.0,-1,1.0,0.3972000000001117
393,18,0.5,0.5,35.0,1,1.0,0.2696010000001934
394,18,0.5,0.125,35.0,1,1.0,0.16390100000012353
395,18,0.5,1.0,35.0,1,1.0,0.3263000000001739
396,18,0.5,0.5,35.0,1,1.0,0.23040100000002894
397,18,0.5,0.0625,-35.0,1,0.0,0.2697010000001683
398,18,0.5,0.0625,35.0,1,1.0,0.37070100000028106
399,18,0.5,0.25,35.0,1,1.0,0.22660000000018954
400,18,0.5,1.0,-35.0,-1,1.0,0.2575010000000475
401,18,0.5,0.125,35.0,1,1.0,0.4067000000000007
402,18,0.5,0.0625,-35.0,1,0.0,0.5744010000000799
403,18,0.9,0.0625,-35.0,1,0.0,0.3803009999999176
404,18,0.5,1.0,-35.0,-1,1.0,0.3612000000000535
405,18,0.5,0.5,35.0,1,1.0,0.27700000000004366
406,18,0.5,1.0,-35.0,-1,1.0,0.26800100000014027
407,18,0.5,0.125,-35.0,1,0.0,0.4440999999999349
408,18,0.7,0.125,35.0,1,1.0,0.3220010000002276
409,18,0.5,1.0,-35.0,-1,1.0,0.3742010000000846
410,18,0.5,0.125,-35.0,1,0.0,2.3418010000002596
411,18,0.7,0.125,-35.0,1,0.0,0.46440000000006876
412,18,0.5,0.5,-35.0,-1,1.0,0.2953010000001086
413,18,0.5,0.5,35.0,1,1.0,0.2779009999999289
414,18,0.5,1.0,35.0,1,1.0,0.23890000000005784
415,18,0.5,1.0,35.0,1,1.0,0.2312010000000555
416,18,0.5,0.0625,35.0,1,1.0,0.3857010000001537
417,18,0.5,0.0625,-35.0,1,0.0,0.3883009999999558
418,18,0.8,0.0625,-35.0,1,0.0,0.3361010000000988
419,18,0.5,1.0,-35.0,-1,1.0,0.265201000000161
420,18,0.5,0.125,-35.0,-1,1.0,0.3059009999999489
421,18,0.5,0.0625,-35.0,-1,1.0,0.3419010000000071
422,18,0.5,0.5,-35.0,-1,1.0,0.263101000000006
423,18,0.5,0.125,-35.0,-1,1.0,0.23860000000013315
424,18,0.5,0.125,-35.0,-1,1.0,0.3262010000000828
425,18,0.5,0.125,35.0,1,1.0,0.4288010000002487
426,18,0.5,0.25,35.0,-1,0.0,0.34300100000018574
427,18,0.5,0.25,-35.0,-1,1.0,0.3056010000002516
428,18,0.5,0.5,35.0,1,1.0,0.666501000000153
429,18,0.5,0.0625,35.0,1,1.0,0.432501000000002
430,18,0.5,0.25,-35.0,-1,1.0,0.36700100000007296
431,18,0.5,0.5,35.0,1,1.0,0.32270100000027924
432,18,0.5,0.5,-35.0,-1,1.0,0.32680000000027576
433,18,0.5,0.0625,-35.0,-1,1.0,0.31270100000006096
434,18,0.5,1.0,35.0,1,1.0,0.34700100000009115
435,18,0.5,0.125,-35.0,-1,1.0,0.2930010000002312
436,18,0.5,1.0,35.0,1,1.0,0.28380100000026687
437,18,0.5,0.5,-35.0,-1,1.0,0.30300099999999475
438,18,0.5,1.0,35.0,1,1.0,0.24060099999996964
439,18,0.5,0.125,-35.0,-1,1.0,0.4633000000001175
440,18,0.5,1.0,-35.0,-1,1.0,0.22750100000007478
441,18,0.5,1.0,-35.0,1,0.0,0.09680100000014136
442,18,0.5,0.125,35.0,1,1.0,1.1610000000000582
443,18,0.5,1.0,35.0,1,1.0,0.263501000000133
444,18,0.5,1.0,-35.0,-1,1.0,0.37110100000018065
445,18,0.5,0.5,-35.0,-1,1.0,0.35360100000002603
446,18,0.5,1.0,35.0,1,1.0,0.3014000000002852
447,18,0.5,0.0625,-35.0,-1,1.0,0.300499999999829
448,18,0.5,0.125,35.0,-1,0.0,0.3283010000000104
449,18,0.4,0.125,35.0,1,1.0,0.4772010000001501
450,18,0.5,1.0,-35.0,-1,1.0,0.33490100000017264
451,18,0.5,0.125,-35.0,-1,1.0,0.2507010000001628
452,18,0.5,0.125,35.0,1,1.0,0.29520000000002256
453,18,0.5,0.125,-35.0,-1,1.0,0.2575000000001637
454,18,0.5,0.5,35.0,1,1.0,0.3051010000001497
455,18,0.5,0.0625,35.0,1,1.0,2.2579010000001745
456,18,0.5,0.25,-35.0,-1,1.0,0.30540000000019063
457,18,0.5,0.125,-35.0,-1,1.0,0.4912000000001626
458,18,0.5,0.0625,35.0,1,1.0,0.34550000000012915
459,18,0.5,0.125,35.0,1,1.0,0.40830099999993763
460,18,0.5,1.0,35.0,1,1.0,0.32590000000004693
461,18,0.5,0.125,35.0,1,1.0,0.27830100000005586
462,18,0.5,0.125,-35.0,-1,1.0,0.5159010000002127
463,18,0.5,0.0625,-35.0,1,0.0,0.2517000000002554
464,18,0.5,0.0625,35.0,1,1.0,0.3051010000001497
465,18,0.5,0.125,-35.0,-1,1.0,0.3060009999999238
466,18,0.5,0.25,-35.0,-1,1.0,0.3187009999999191
467,18,0.5,0.125,-35.0,-1,1.0,0.36290100000019265
468,18,0.5,1.0,35.0,1,1.0,0.28200000000038017
469,18,0.5,0.25,-35.0,-1,1.0,0.3863010000002305
470,18,0.5,0.0625,-35.0,1,0.0,2.7922010000002047
471,18,0.5,0.0625,-35.0,1,0.0,0.30349999999998545
472,18,0.5,1.0,35.0,1,1.0,0.26269999999999527
473,18,0.5,0.125,-35.0,1,0.0,0.4533000000001266
474,18,0.6,0.125,-35.0,1,0.0,0.13590000000021973
475,18,0.5,0.5,35.0,1,1.0,0.31370100000049206
476,18,0.5,0.125,35.0,1,1.0,0.3128999999998996
477,18,0.5,0.0625,35.0,1,1.0,0.17710000000033688
478,18,0.5,0.5,35.0,1,1.0,0.23630000000002838
479,18,0.5,1.0,35.0,1,1.0,0.260700999999699
480,18,0.5,1.0,-35.0,-1,1.0,0.2832010000001901
481,18,0.5,1.0,-35.0,-1,1.0,0.3572009999998045
482,18,0.5,0.125,-35.0,-1,1.0,0.23979999999983193
483,18,0.5,1.0,-35.0,-1,1.0,0.28070100000013554
484,18,0.5,0.0625,35.0,1,1.0,0.14680000000043947
485,18,0.5,0.5,-35.0,-1,1.0,0.27760099999977683
486,18,0.5,0.5,35.0,1,1.0,0.3767010000001392
487,18,0.5,1.0,35.0,1,1.0,0.420900999999958
488,18,0.5,0.25,-35.0,-1,1.0,0.9502999999995154
489,18,0.5,0.0625,-35.0,-1,1.0,0.31480099999998856
490,18,0.5,0.125,-35.0,-1,1.0,0.37710100000003877
491,18,0.5,0.25,35.0,1,1.0,0.5472010000003138
492,18,0.5,0.125,35.0,1,1.0,0.2948999999998705
493,18,0.5,0.125,35.0,1,1.0,0.457300000000032
494,18,0.5,1.0,35.0,1,1.0,0.2251009999999951
495,18,0.5,0.125,35.0,1,1.0,0.3809009999999944
496,18,0.5,0.5,35.0,1,1.0,0.33860100000038074
497,18,0.5,0.125,-35.0,-1,1.0,0.37429999999994834
498,18,0.5,1.0,-35.0,-1,1.0,0.2523999999998523
499,18,0.5,0.25,-35.0,-1,1.0,0.11779999999998836
500,18,0.5,0.0625,35.0,-1,0.0,0.49560100000053353
501,18,0.6,0.0625,-35.0,-1,1.0,0.6113999999997759
502,18,0.5,1.0,-35.0,-1,1.0,0.2492010000000846
503,18,0.5,0.25,-35.0,-1,1.0,0.31480099999998856
504,18,0.5,0.0625,35.0,1,1.0,1.3590000000003783
505,18,0.5,1.0,-35.0,-1,1.0,0.29160000000001673
506,18,0.5,1.0,-35.0,-1,1.0,0.2727999999997337
507,18,0.5,1.0,-35.0,-1,1.0,0.32540100000005623
508,18,0.5,0.125,-35.0,-1,1.0,0.34620100000029197
509,18,0.5,0.5,-35.0,-1,1.0,0.30200100000047314
510,18,0.5,0.5,35.0,1,1.0,0.249800999999934
511,18,0.5,0.5,35.0,1,1.0,0.28880100000014863
512,18,0.5,0.125,35.0,1,1.0,0.38639999999986685
513,18,0.5,0.5,35.0,1,1.0,0.16560100000015154
514,18,0.5,0.25,-35.0,-1,1.0,0.156601000000137
515,18,0.5,1.0,35.0,1,1.0,0.36580000000003565
516,18,0.5,1.0,35.0,1,1.0,0.213600999999926
517,18,0.5,0.0625,35.0,-1,0.0,0.25270000000000437
518,18,0.6,0.0625,-35.0,-1,1.0,0.3337010000000191
519,18,0.5,0.5,-35.0,-1,1.0,0.2961009999999078
520,18,0.5,0.125,35.0,-1,0.0,0.45730000000048676
521,18,0.5,0.125,-35.0,-1,1.0,0.35290000000031796
522,18,0.5,1.0,-35.0,-1,1.0,0.4072010000004411
523,18,0.5,0.25,-35.0,-1,1.0,0.3198000000002139
524,18,0.5,0.5,35.0,1,1.0,0.21070099999997183
525,18,0.5,0.0625,35.0,1,1.0,0.4596999999998843
526,18,0.5,0.25,-35.0,-1,1.0,0.26080099999990125
527,18,0.5,0.25,-35.0,-1,1.0,0.3034000000002379
528,18,0.5,0.25,35.0,1,1.0,0.13790100000005623
529,18,0.5,0.0625,-35.0,1,0.0,0.3670999999999367
530,18,0.5,0.25,-35.0,-1,1.0,0.29480000000012296
531,18,0.5,1.0,35.0,1,1.0,0.3138010000002396
532,18,0.5,0.0625,35.0,-1,0.0,0.49470100000007733
533,18,0.5,0.0625,35.0,1,1.0,0.23740100000031816
534,18,0.5,1.0,35.0,1,1.0,0.1981010000004062
535,18,0.5,0.25,-35.0,1,0.0,0.5640000000003056
536,18,0.5,0.125,-35.0,-1,1.0,0.33500099999992017
537,18,0.5,0.0625,35.0,1,1.0,0.7375999999999294
538,18,0.5,0.125,-35.0,1,0.0,3.0088000000000648
539,18,0.5,0.0625,-35.0,1,0.0,3.8578010000001086
540,18,0.5,0.25,-35.0,1,0.0,0.46550100000013117
541,18,0.8,0.25,-35.0,1,0.0,0.47810100000015154
542,18,0.5,1.0,-35.0,-1,1.0,0.44929999999976644
543,18,0.5,0.0625,35.0,1,1.0,0.3982009999999718
544,18,0.5,0.0625,-35.0,-1,1.0,0.332300000000032
545,18,0.5,0.0625,-35.0,-1,1.0,0.32160099999964586
546,18,0.5,1.0,-35.0,-1,1.0,0.27260100000012244
547,18,0.5,0.125,35.0,1,1.0,0.4118010000001959
548,18,0.5,0.125,-35.0,-1,1.0,0.3493010000001959
549,18,0.5,0.25,35.0,1,1.0,0.1287000000002081
550,18,0.5,0.5,-35.0,-1,1.0,0.29260100000010425
551,18,0.5,1.0,35.0,1,1.0,0.21180099999992308
552,18,0.5,1.0,35.0,1,1.0,0.2430010000002767
553,18,0.5,0.25,-35.0,-1,1.0,0.30580100000042876
554,18,0.5,1.0,-35.0,-1,1.0,0.27970100000038656
555,18,0.5,0.25,35.0,-1,0.0,0.3258009999999558
556,18,0.4,0.25,-35.0,-1,1.0,0.3598010000000613
557,18,0.5,1.0,35.0,1,1.0,0.559001000000535
558,18,0.5,0.0625,35.0,1,1.0,0.2933000000002721
559,18,0.5,0.0625,-35.0,-1,1.0,2.0691000000001623
560,18,0.5,1.0,35.0,-1,0.0,0.3637010000002192
561,18,0.4,1.0,-35.0,-1,1.0,0.5628000000001521
562,18,0.5,0.5,35.0,1,1.0,0.2272010000001501
563,18,0.5,0.25,35.0,-1,0.0,0.3663010000000213
564,18,0.3,0.25,35.0,1,1.0,0.2974000000003798
565,18,0.5,0.5,35.0,1,1.0,0.33650100000022576
566,18,0.5,0.5,35.0,1,1.0,0.32070000000021537
567,18,0.5,0.0625,-35.0,1,0.0,0.3999010000002272
568,18,0.5,0.125,-35.0,-1,1.0,0.2842009999999391
569,18,0.5,0.125,-35.0,-1,1.0,0.33670100000017555
570,18,0.5,1.0,-35.0,-1,1.0,0.2644000000000233
571,18,0.5,0.0625,35.0,-1,0.0,0.3570009999998547
572,18,0.5,0.125,-35.0,-1,1.0,0.364900999999918
573,18,0.5,0.0625,-35.0,1,0.0,0.32370099999980084
574,18,0.5,0.0625,-35.0,1,0.0,3.8380010000000766
575,18,0.5,0.25,-35.0,-1,1.0,0.29730100000051607
576,18,0.5,1.0,-35.0,-1,1.0,0.3783010000001923
577,18,0.5,1.0,35.0,1,1.0,0.37400100000058956
578,18,0.5,0.125,35.0,1,1.0,0.4715009999999893
579,18,0.5,0.5,-35.0,-1,1.0,0.3442000000000007
580,18,0.5,0.0625,35.0,1,1.0,0.2819009999998343
581,18,0.5,0.25,35.0,-1,0.0,0.16410099999984595
582,18,0.5,0.125,-35.0,-1,1.0,0.7886010000006536
583,18,0.5,0.5,-35.0,-1,1.0,0.25100099999963277
584,18,0.5,0.125,-35.0,1,0.0,0.2257009999998445
585,18,0.5,0.125,-35.0,1,0.0,0.39459999999962747
586,18,0.5,0.0625,35.0,1,1.0,0.34560000000010405
587,18,0.5,1.0,35.0,1,1.0,0.2880000000000109
588,18,0.5,0.25,35.0,1,1.0,0.3692010000004302
589,18,0.5,1.0,35.0,1,1.0,0.2516009999999369
590,18,0.5,0.5,35.0,1,1.0,0.3090009999996255
591,18,0.5,0.5,-35.0,-1,1.0,0.3885009999999056
592,18,0.5,0.0625,35.0,1,1.0,0.17170100000021193
593,18,0.5,0.0625,-35.0,1,0.0,0.3425010000000839
594,18,0.9,0.0625,-35.0,1,0.0,0.31850100000019665
595,18,0.5,1.0,-35.0,-1,1.0,0.31280100000003586
596,18,0.5,0.25,35.0,1,1.0,0.27520000000004075
597,18,0.5,1.0,35.0,1,1.0,0.29290099999980157
598,18,0.5,0.0,-35.0,1,0.0,0.33900100000028033
599,18,0.5,0.25,35.0,1,1.0,0.33320099999991726
600,18,0.5,0.0625,35.0,1,1.0,0.4489010000002054
601,18,0.5,0.0,-35.0,1,0.0,0.2899010000000999
602,18,0.9,0.0,-35.0,1,0.0,0.379200999999739
603,18,0.5,0.5,-35.0,-1,1.0,0.3503009999999449
604,18,0.5,0.0625,-35.0,1,0.0,4.5393010000002505
605,18,0.5,0.25,35.0,1,1.0,0.3668999999999869
606,18,0.5,0.0625,35.0,1,1.0,0.3495010000001457
607,18,0.5,0.0625,-35.0,1,0.0,3.603701000000001
608,18,0.9,0.0625,-35.0,1,0.0,6.259799999999814
609,18,0.5,0.5,-35.0,-1,1.0,0.7407000000002881
610,18,0.5,0.5,-35.0,-1,1.0,0.33339999999998327
611,18,0.5,0.125,-35.0,-1,1.0,0.26099999999996726
612,18,0.5,1.0,35.0,1,1.0,0.5334000000002561
613,18,0.5,0.0625,35.0,-1,0.0,0.3843000000001666
614,18,0.5,0.125,-35.0,-1,1.0,0.30349999999998545
615,18,0.5,0.0,35.0,1,1.0,0.3578010000001086
616,18,0.5,0.5,35.0,1,1.0,0.4903009999998176
617,18,0.5,1.0,35.0,1,1.0,0.3011999999998807
618,18,0.5,0.0625,-35.0,-1,1.0,0.3038010000000213
619,18,0.5,0.0,35.0,-1,0.0,0.35470100000020466
620,18,0.4,0.0,35.0,1,1.0,3.757300000000214
621,18,0.5,1.0,35.0,1,1.0,0.2551010000001952
622,18,0.5,1.0,35.0,1,1.0,0.270900000000438
623,18,0.5,0.5,35.0,1,1.0,0.2216010000006463
624,18,0.5,0.5,35.0,1,1.0,0.27800100000013117
625,18,0.5,0.5,35.0,1,1.0,0.22100100000034217
626,18,0.5,0.125,-35.0,-1,1.0,0.34189999999989595
627,18,0.5,1.0,-35.0,-1,1.0,0.2944999999999709
628,18,0.5,0.5,-35.0,-1,1.0,0.3291009999998096
629,18,0.5,0.125,35.0,1,1.0,0.2713010000002214
630,18,0.5,0.0625,35.0,1,1.0,0.3522000000002663
631,18,0.5,1.0,-35.0,-1,1.0,0.2614000000003216
632,18,0.5,0.5,35.0,1,1.0,0.2756010000002789
633,18,0.5,0.0,-35.0,-1,1.0,0.2282999999997628
634,18,0.5,0.125,35.0,1,1.0,0.3192010000002483
635,18,0.5,0.25,-35.0,-1,1.0,0.288300000000163
636,18,0.5,1.0,-35.0,-1,1.0,0.3524999999999636
637,18,0.5,0.0,35.0,1,1.0,5.385399999999663
638,18,0.5,0.0,35.0,1,1.0,0.2565010000002985
639,18,0.5,0.125,-35.0,-1,1.0,0.47200100000009115
640,18,0.5,0.25,-35.0,-1,1.0,0.48640100000011444
641,18,0.5,0.0625,35.0,1,1.0,0.582100999999966
642,18,0.5,0.5,-35.0,-1,1.0,0.33000099999981103
643,18,0.5,0.25,35.0,1,1.0,0.33940000000029613
644,18,0.5,0.25,-35.0,-1,1.0,0.3066009999997732
645,18,0.5,0.5,35.0,1,1.0,0.44270100000039747
646,18,0.5,0.25,-35.0,-1,1.0,0.2737999999999374
647,18,0.5,0.5,-35.0,-1,1.0,0.31270100000028833
648,18,0.5,0.25,35.0,1,1.0,0.41340100000024904
649,18,0.5,0.125,-35.0,-1,1.0,0.2961009999999078
650,18,0.5,0.0625,35.0,1,1.0,0.617200000000139
651,18,0.5,0.0,35.0,1,1.0,0.11959999999999127
652,18,0.5,0.125,35.0,1,1.0,0.34979999999995925
653,18,0.5,0.0,35.0,1,1.0,0.3538010000002032
654,18,0.5,0.5,-35.0,-1,1.0,0.2332010000000082
655,18,0.5,0.25,-35.0,-1,1.0,0.27739999999994325
656,18,0.5,0.0,35.0,-1,0.0,0.2702009999998154
657,18,0.5,0.25,-35.0,-1,1.0,0.7810000000004038
658,18,0.5,1.0,-35.0,-1,1.0,0.2835000000004584
659,18,0.5,0.5,-35.0,-1,1.0,0.2478009999999813
660,18,0.5,0.125,-35.0,-1,1.0,0.30349999999998545
661,18,0.5,1.0,35.0,1,1.0,0.1477010000003247
662,18,0.5,1.0,-35.0,-1,1.0,0.2602999999999156
663,18,0.5,0.125,-35.0,-1,1.0,1.0347999999999047
664,18,0.5,0.5,-35.0,-1,1.0,0.307100000000446
665,18,0.5,1.0,-35.0,-1,1.0,0.26160099999970043
666,18,0.5,0.25,35.0,-1,0.0,0.32060100000035163
667,18,0.1,0.25,35.0,1,1.0,0.3518000000003667
668,18,0.5,0.5,-35.0,-1,1.0,0.29080100000010134
669,18,0.5,0.5,35.0,1,1.0,0.29190100000050734
670,18,0.5,0.0625,-35.0,-1,1.0,0.340900000000147
671,18,0.5,0.25,-35.0,-1,1.0,0.2519999999999527
672,18,0.5,0.25,35.0,1,1.0,0.237800999999763
673,18,0.5,1.0,35.0,1,1.0,0.28890000000001237
674,18,0.5,0.125,-35.0,-1,1.0,0.22450100000014572
675,18,0.5,0.125,-35.0,-1,1.0,0.29220100000020466
676,18,0.5,0.125,-35.0,1,0.0,0.8013010000004215
677,18,0.5,0.125,35.0,1,1.0,0.19590100000004895
678,18,0.5,1.0,35.0,1,1.0,0.298001000000113
679,18,0.5,0.0625,-35.0,-1,1.0,2.2054000000002816
680,18,0.5,1.0,-35.0,-1,1.0,0.44170100000019374
681,18,0.5,0.125,-35.0,1,0.0,0.5225999999997839
682,18,0.5,0.25,35.0,1,1.0,0.5850009999999202
683,18,0.5,0.5,35.0,1,1.0,0.2996010000001661
684,18,0.5,0.25,-35.0,-1,1.0,0.6051010000001042
685,18,0.5,0.5,35.0,1,1.0,0.3061999999999898
686,18,0.5,0.0,35.0,1,1.0,9.49520100000018
687,18,0.5,0.0,-35.0,1,0.0,19.77310000000034
688,18,0.7,0.0,35.0,1,1.0,3.352701000000252
689,18,0.5,0.5,-35.0,-1,1.0,0.2835009999998874
690,18,0.5,0.0,35.0,-1,0.0,8.199400000000423
691,18,0.5,0.125,-35.0,-1,1.0,0.5270009999999274
692,18,0.5,0.125,35.0,1,1.0,0.8031009999999696
693,18,0.5,0.125,35.0,1,1.0,0.3704999999999927
694,18,0.5,0.25,-35.0,-1,1.0,0.2863999999999578
695,18,0.5,0.125,35.0,1,1.0,0.4139000000004671
696,18,0.5,0.0,-35.0,-1,1.0,0.40350100000023303
697,18,0.5,1.0,-35.0,-1,1.0,0.25440000000025975
698,18,0.5,0.25,-35.0,-1,1.0,0.34340100000008533
699,18,0.5,0.0,-35.0,-1,1.0,0.3176010000001952
700,18,0.5,0.0625,-35.0,-1,1.0,0.2569999999996071
701,18,0.5,0.25,35.0,1,1.0,0.49440099999992526
702,18,0.5,0.125,-35.0,-1,1.0,0.25030100000003586
703,18,0.5,1.0,-35.0,-1,1.0,0.2013000000001739
704,18,0.5,1.0,-35.0,-1,1.0,0.2571010000001479
705,18,0.5,0.25,35.0,1,1.0,0.3647999999998319
706,18,0.5,0.0625,-35.0,-1,1.0,0.354001000000153
707,18,0.5,0.25,-35.0,-1,1.0,0.5117999999997664
708,18,0.5,1.0,35.0,1,1.0,0.260700999999699
709,18,0.5,0.125,-35.0,-1,1.0,0.3120010000002367
710,18,0.5,1.0,35.0,1,1.0,0.27090099999986705
711,18,0.5,1.0,-35.0,-1,1.0,0.29190099999959784
712,18,0.5,0.0,35.0,-1,0.0,0.24420000000009168
713,18,0.5,0.25,35.0,1,1.0,0.4519010000003618
714,18,0.5,1.0,35.0,1,1.0,0.2743009999999231
715,18,0.5,0.0625,-35.0,1,0.0,0.4287010000002738
716,18,0.5,0.0625,-35.0,1,0.0,0.4881010000003698
717,18,0.5,1.0,-35.0,-1,1.0,0.3024000000000342
718,18,0.5,0.125,-35.0,1,0.0,0.6146009999997659
719,18,0.5,0.0,35.0,1,1.0,0.31240100000013626
720,18,0.5,0.0625,-35.0,-1,1.0,0.3317000000001826
721,18,0.5,0.0625,-35.0,-1,1.0,0.3184000000001106
722,18,0.5,0.0625,-35.0,-1,1.0,0.4719000000000051
723,18,0.5,0.125,-35.0,-1,1.0,0.2528010000000904
724,18,0.5,0.0625,-35.0,-1,1.0,0.32529999999997017
725,18,0.5,0.125,35.0,1,1.0,0.55270100000007
726,18,0.5,0.5,-35.0,-1,1.0,0.3052010000001246
727,18,0.5,1.0,35.0,1,1.0,0.2661010000006172
728,18,0.5,0.25,35.0,1,1.0,0.3323009999999158
729,18,0.5,0.5,35.0,1,1.0,0.46309999999994034
730,18,0.5,0.0625,-35.0,-1,1.0,0.31210100000043894
731,18,0.5,0.5,35.0,1,1.0,0.30660100000022794
732,18,0.5,0.125,35.0,1,1.0,0.42910100000017337
733,18,0.5,0.5,-35.0,-1,1.0,0.29310099999975137
734,18,0.5,1.0,35.0,1,1.0,0.28900100000009843
735,18,0.5,0.0625,35.0,-1,0.0,0.2533000000003085
736,18,0.5,0.125,-35.0,1,0.0,0.12910100000044622
737,18,0.5,0.0625,35.0,1,1.0,0.3467009999999391
738,18,0.5,0.0625,-35.0,-1,1.0,2.8562010000005102
739,18,0.5,0.5,35.0,1,1.0,0.3435010000002876
740,18,0.5,0.125,35.0,1,1.0,0.2828000000004067
741,18,0.5,0.125,-35.0,1,0.0,0.4202999999997701
742,18,0.7,0.125,-35.0,-1,1.0,0.3631009999999151
743,18,0.5,1.0,-35.0,-1,1.0,0.2804999999998472
744,18,0.5,0.0,-35.0,-1,1.0,1.0296999999995933
745,18,0.5,0.125,35.0,1,1.0,0.35710100000005696
746,18,0.5,0.0,35.0,1,1.0,0.5468009999999595
747,18,0.5,0.25,35.0,1,1.0,0.3275010000002112
748,18,0.5,1.0,35.0,1,1.0,0.30340100000057646
749,18,0.5,0.125,-35.0,-1,1.0,0.3341009999999187
750,18,0.5,0.25,35.0,1,1.0,0.45010099999990416
751,18,0.5,0.125,35.0,1,1.0,0.41100100000039674
752,18,0.5,0.0,35.0,1,1.0,4.463600999999926
753,18,0.5,0.5,-35.0,-1,1.0,0.48780100000021775
754,18,0.5,1.0,-35.0,-1,1.0,0.35399999999981446
755,18,0.5,0.25,-35.0,-1,1.0,0.2779000000000451
756,18,0.5,1.0,35.0,1,1.0,0.3206009999998969
757,18,0.5,0.5,-35.0,-1,1.0,0.4479999999998654
758,18,0.5,0.0,-35.0,-1,1.0,1.4807009999999536
759,18,0.5,0.5,35.0,1,1.0,0.5683009999997921
760,18,0.5,0.5,-35.0,-1,1.0,2.4142010000000482
761,18,0.5,1.0,35.0,1,1.0,0.30860100000018065
762,18,0.5,0.25,-35.0,1,0.0,9.597700000000259
763,18,0.5,0.125,35.0,1,1.0,0.3421000000003005
764,18,0.5,0.5,-35.0,-1,1.0,0.8146010000000388
765,18,0.5,0.0625,35.0,-1,0.0,4.4856009999998605
766,18,0.5,0.0625,-35.0,-1,1.0,6.301700000000437
767,18,0.5,1.0,35.0,1,1.0,2.274901000000227
768,18,0.5,1.0,-35.0,-1,1.0,0.3293010000002141
769,18,0.5,0.125,-35.0,-1,1.0,3.701800999999705
770,18,0.5,0.0625,-35.0,-1,1.0,10.536101000000144
771,18,0.5,0.25,-35.0,1,0.0,6.752300000000105
772,18,0.4,0.25,35.0,-1,0.0,6.729899999999816
773,18,0.5,1.0,35.0,1,1.0,0.2458000000001448
774,18,0.5,0.125,35.0,1,1.0,18.91340100000025
775,18,0.5,0.25,35.0,1,1.0,0.46620100000018283
776,18,0.5,1.0,35.0,1,1.0,0.290599999999813
777,18,0.5,0.25,35.0,1,1.0,3.0598009999998794
778,18,0.5,0.5,-35.0,-1,1.0,0.41420200000038676
779,18,0.5,0.125,-35.0,-1,1.0,0.35640100000046004
780,18,0.5,0.0625,35.0,-1,0.0,3.637500999999702
1,19,0.5,1.0,35.0,1,1.0,0.2544000000000002
2,19,0.5,0.5,35.0,1,1.0,0.49540000000000006
3,19,0.5,0.25,35.0,-1,0.0,0.1280000000000001
4,19,0.5,0.125,-35.0,-1,1.0,0.3696999999999999
5,19,0.5,0.0625,35.0,1,1.0,0.24370000000000047
6,19,0.5,0.0625,-35.0,1,0.0,0.3697000000000017
7,19,0.5,0.0625,-35.0,1,0.0,0.3920999999999992
8,19,0.5,0.0,35.0,1,1.0,2.6491000000000007
9,19,0.5,0.25,35.0,1,1.0,0.2394999999999996
10,19,0.5,0.25,35.0,1,1.0,0.23669999999999902
11,19,0.5,0.5,-35.0,-1,1.0,0.284399999999998
12,19,0.5,0.125,-35.0,-1,1.0,0.5198000000000036
13,19,0.5,0.5,-35.0,-1,1.0,0.2446999999999946
14,19,0.5,1.0,35.0,1,1.0,0.31869999999999976
15,19,0.5,0.0625,-35.0,-1,1.0,0.24289999999999878
16,19,0.5,0.25,35.0,1,1.0,0.6077000000000012
17,19,0.5,0.0625,35.0,-1,0.0,0.2954000000000008
18,19,0.5,0.0625,-35.0,-1,1.0,0.2881
19,19,0.5,0.0,-35.0,-1,1.0,0.30239999999999867
20,19,0.5,1.0,-35.0,-1,1.0,0.24439999999998463
21,19,0.5,0.25,35.0,1,1.0,0.25849999999999795
22,19,0.5,0.5,35.0,1,1.0,0.6373999999999853
23,19,0.5,0.5,-35.0,-1,1.0,0.23109999999999786
24,19,0.5,0.0625,35.0,1,1.0,0.3744999999999834
25,19,0.5,1.0,-35.0,-1,1.0,0.26480000000000814
26,19,0.5,0.25,35.0,1,1.0,0.18589999999998952
27,19,0.5,0.0625,-35.0,-1,1.0,0.21529999999999916
28,19,0.5,0.25,-35.0,-1,1.0,0.3393999999999835
29,19,0.5,1.0,35.0,1,1.0,0.30100000000000193
30,19,0.5,0.0625,-35.0,-1,1.0,0.3611999999999824
31,19,0.5,0.125,-35.0,-1,1.0,0.25839999999999463
32,19,0.5,0.125,-35.0,-1,1.0,0.2968999999999937
33,19,0.5,0.25,-35.0,-1,1.0,0.25029999999999575
34,19,0.5,0.0625,35.0,-1,0.0,0.23090000000000543
35,19,0.2,0.0625,-35.0,1,0.0,2.560699999999983
36,19,0.5,1.0,35.0,1,1.0,0.42910000000000537
37,19,0.5,0.25,-35.0,-1,1.0,0.28069999999999595
38,19,0.5,0.125,-35.0,-1,1.0,0.2604999999999791
39,19,0.5,1.0,-35.0,-1,1.0,0.21119999999999095
40,19,0.5,0.25,35.0,-1,0.0,0.2560000000000002
41,19,0.5,0.125,-35.0,1,0.0,0.2927999999999997
42,19,0.5,0.125,35.0,1,1.0,0.29359999999999786
43,19,0.5,0.125,35.0,-1,0.0,0.2324999999999875
44,19,0.5,0.0,-35.0,1,0.0,0.3132999999999697
45,19,0.5,0.125,35.0,1,1.0,0.39400000000000546
46,19,0.5,0.25,35.0,1,1.0,0.3102000000000089
47,19,0.5,0.0625,-35.0,1,0.0,0.4111000000000047
48,19,0.5,0.0,35.0,1,1.0,0.2658999999999878
49,19,0.5,1.0,-35.0,-1,1.0,0.27180000000001314
50,19,0.5,0.25,35.0,1,1.0,0.29249999999998977
51,19,0.5,1.0,-35.0,-1,1.0,0.23259999999999081
52,19,0.5,0.0625,35.0,1,1.0,0.7764999999999702
53,19,0.5,0.25,35.0,1,1.0,0.19149999999999068
54,19,0.5,0.0625,-35.0,-1,1.0,0.4024000000000001
55,19,0.5,0.125,35.0,1,1.0,0.3261999999999716
56,19,0.5,0.125,-35.0,1,0.0,0.4747000000000128
57,19,0.5,0.25,-35.0,-1,1.0,0.5214999999999748
58,19,0.5,0.125,35.0,1,1.0,0.18319999999999936
59,19,0.5,0.0,35.0,1,1.0,0.09139999999999304
60,19,0.5,0.0625,-35.0,-1,1.0,0.3036999999999921
61,19,0.5,0.125,35.0,1,1.0,0.32939999999996417
62,19,0.5,0.25,35.0,1,1.0,0.4662999999999897
63,19,0.5,0.125,-35.0,-1,1.0,0.25669999999999504
64,19,0.5,0.125,35.0,1,1.0,0.0987999999999829
65,19,0.5,0.125,35.0,1,1.0,0.456198999999998
66,19,0.5,0.0625,-35.0,-1,1.0,1.3955999999999733
67,19,0.5,0.125,35.0,1,1.0,0.21929999999997563
68,19,0.5,0.125,35.0,-1,0.0,0.2464999999999975
69,19,0.5,0.0625,35.0,1,1.0,0.3120000000000118
70,19,0.5,0.0625,-35.0,-1,1.0,0.28139999999999077
71,19,0.5,0.25,35.0,1,1.0,0.2815999999999974
72,19,0.5,1.0,35.0,1,1.0,0.3481999999999914
73,19,0.5,0.125,35.0,1,1.0,0.3462999999999852
74,19,0.5,0.25,-35.0,-1,1.0,0.31810000000001537
75,19,0.5,0.0625,35.0,-1,0.0,0.28010000000000446
76,19,0.5,0.0,35.0,-1,0.0,0.2826999999999771
77,19,0.5,0.125,-35.0,-1,1.0,0.2671990000000619
78,19,0.5,1.0,35.0,1,1.0,0.2492000000000303
79,19,0.5,1.0,35.0,1,1.0,0.21550000000002
80,19,0.5,0.0625,-35.0,1,0.0,0.24820000000005393
81,19,0.5,0.0625,35.0,1,1.0,0.13630000000000564
82,19,0.5,0.0625,35.0,1,1.0,0.20290000000005648
83,19,0.5,1.0,-35.0,1,0.0,0.11430000000007112
84,19,0.6,1.0,-35.0,-1,1.0,0.2481999999999971
85,19,0.5,1.0,35.0,1,1.0,0.27230000000002974
86,19,0.5,0.0625,-35.0,-1,1.0,0.3242999999999938
87,19,0.5,1.0,-35.0,-1,1.0,0.2947000000000912
88,19,0.5,0.25,35.0,1,1.0,0.2400000000000091
89,19,0.5,0.0625,35.0,-1,0.0,0.4841999999999871
90,19,0.5,0.25,-35.0,-1,1.0,0.2786000000000399
91,19,0.5,0.0625,35.0,1,1.0,0.3269000000000233
92,19,0.5,0.0,-35.0,1,0.0,0.37220000000002074
93,19,0.5,0.25,-35.0,-1,1.0,0.7252000000000294
94,19,0.5,1.0,35.0,1,1.0,0.28569900000002235
95,19,0.5,0.0625,-35.0,-1,1.0,0.26499999999998636
96,19,0.5,0.125,-35.0,-1,1.0,0.2798000000000229
97,19,0.5,0.125,-35.0,-1,1.0,0.2851999999999748
98,19,0.5,1.0,35.0,1,1.0,0.24639999999999418
99,19,0.5,0.25,35.0,1,1.0,0.37110000000001264
100,19,0.5,0.0625,35.0,1,1.0,0.3642000000000394
101,19,0.5,1.0,35.0,1,1.0,0.2615999999999872
102,19,0.5,1.0,-35.0,-1,1.0,0.5677000000000589
103,19,0.5,1.0,-35.0,-1,1.0,0.3865999999999872
104,19,0.5,0.0625,35.0,-1,0.0,0.2188000000000443
105,19,0.5,0.0,35.0,1,1.0,0.41689999999999827
106,19,0.5,0.0625,35.0,1,1.0,0.23250000000001592
107,19,0.5,0.0625,35.0,1,1.0,0.244700000000023
108,19,0.5,0.25,-35.0,-1,1.0,0.18800000000004502
109,19,0.5,1.0,35.0,1,1.0,0.13800000000003365
110,19,0.5,1.0,35.0,1,1.0,0.47200000000003683
111,19,0.5,0.25,-35.0,-1,1.0,0.24209999999999354
112,19,0.5,1.0,-35.0,-1,1.0,0.23490000000003874
113,19,0.5,0.25,35.0,1,1.0,0.439200000000028
114,19,0.5,1.0,-35.0,1,0.0,0.13679999999999382
115,19,0.7,1.0,35.0,1,1.0,0.3423000000000229
116,19,0.5,1.0,35.0,1,1.0,0.23310000000003583
117,19,0.5,0.0,35.0,1,1.0,0.25950000000005957
118,19,0.5,0.125,-35.0,1,0.0,0.7765000000000555
119,19,0.5,0.125,-35.0,-1,1.0,0.29400000000003956
120,19,0.5,0.0625,-35.0,-1,1.0,0.302599999999984
121,19,0.5,0.0625,35.0,1,1.0,0.10759999999999081
122,19,0.5,0.25,-35.0,-1,1.0,0.31419999999997117
123,19,0.5,0.0625,35.0,1,1.0,0.5588999999999942
124,19,0.5,1.0,35.0,1,1.0,0.40949999999998
125,19,0.5,1.0,-35.0,-1,1.0,0.29759999999998854
126,19,0.5,1.0,-35.0,-1,1.0,0.2544000000000324
127,19,0.5,0.0,35.0,1,1.0,0.4973000000000525
128,19,0.5,0.125,35.0,1,1.0,0.34529900000001135
129,19,0.5,0.125,35.0,1,1.0,0.2189999999999941
130,19,0.5,0.0,-35.0,1,0.0,0.5950000000000273
131,19,0.5,0.125,-35.0,-1,1.0,0.26429999999999154
132,19,0.5,0.0625,35.0,1,1.0,0.24840000000000373
133,19,0.5,1.0,-35.0,-1,1.0,0.4341000000000008
134,19,0.5,0.25,35.0,1,1.0,0.3264000000000351
135,19,0.5,0.0625,35.0,1,1.0,0.9137999999999806
136,19,0.5,0.0625,35.0,1,1.0,0.1914000000000442
137,19,0.5,1.0,-35.0,-1,1.0,0.341700000000003
138,19,0.5,0.25,-35.0,-1,1.0,0.30570000000000164
139,19,0.5,1.0,-35.0,-1,1.0,0.3252000000000521
140,19,0.5,1.0,-35.0,-1,1.0,0.23520000000002028
141,19,0.5,0.0625,35.0,1,1.0,0.5016999999999712
142,19,0.5,0.125,-35.0,-1,1.0,0.25300000000004275
143,19,0.5,0.25,35.0,1,1.0,0.3853000000000293
144,19,0.5,0.0625,-35.0,-1,1.0,0.25690000000008695
145,19,0.5,1.0,35.0,1,1.0,0.30219899999997324
146,19,0.5,0.125,-35.0,-1,1.0,0.26920000000006894
147,19,0.5,0.125,35.0,1,1.0,0.5693999999999733
148,19,0.5,0.25,-35.0,-1,1.0,0.5054999999999836
149,19,0.5,0.125,-35.0,-1,1.0,0.2716000000000349
150,19,0.5,0.25,-35.0,-1,1.0,0.41119900000001053
151,19,0.5,0.0625,35.0,1,1.0,0.4033000000000584
152,19,0.5,0.0,35.0,1,1.0,0.698099999999954
153,19,0.5,0.125,-35.0,-1,1.0,0.36099999999999
154,19,0.5,0.0625,-35.0,-1,1.0,0.5166000000000395
155,19,0.5,0.125,-35.0,-1,1.0,0.3402999999999565
156,19,0.5,0.125,-35.0,-1,1.0,0.5506000000000313
157,19,0.5,1.0,35.0,1,1.0,0.24869999999998527
158,19,0.5,1.0,-35.0,-1,1.0,0.2726000000000113
159,19,0.5,0.25,-35.0,-1,1.0,0.3140000000000782
160,19,0.5,0.25,-35.0,-1,1.0,0.30490000000008877
161,19,0.5,0.125,-35.0,1,0.0,0.4530000000000882
162,19,0.3,0.125,35.0,-1,0.0,0.30779999999992924
163,19,0.5,1.0,35.0,1,1.0,0.2805999999999358
164,19,0.5,0.125,-35.0,-1,1.0,0.2636999999999716
165,19,0.5,1.0,-35.0,-1,1.0,0.2576000000000249
166,19,0.5,1.0,-35.0,1,0.0,0.1492000000000644
167,19,0.5,0.0625,35.0,1,1.0,0.1814000000000533
168,19,0.5,0.0625,-35.0,1,0.0,0.5637000000000398
169,19,0.5,0.0625,35.0,-1,0.0,0.27959999999995944
170,19,0.5,0.125,-35.0,-1,1.0,0.28160000000002583
171,19,0.5,1.0,-35.0,-1,1.0,0.24830000000008567
172,19,0.5,0.25,-35.0,-1,1.0,0.2823999999999387
173,19,0.5,1.0,-35.0,-1,1.0,0.38589999999999236
174,19,0.5,0.125,35.0,1,1.0,0.29750000000001364
175,19,0.5,0.25,-35.0,-1,1.0,0.4600000000000364
176,19,0.5,0.125,35.0,1,1.0,0.4378000000000384
177,19,0.5,0.25,35.0,1,1.0,0.16809999999998126
178,19,0.5,1.0,35.0,1,1.0,0.3249000000000706
179,19,0.5,0.25,-35.0,-1,1.0,0.2801000000000613
180,19,0.5,0.125,-35.0,1,0.0,0.17780000000004748
181,19,0.5,0.0625,35.0,1,1.0,0.3686000000001286
182,19,0.5,0.0,35.0,1,1.0,0.5226999999999862
183,19,0.5,0.0625,35.0,1,1.0,0.1309999999999718
184,19,0.5,0.125,35.0,1,1.0,0.4166000000001304
185,19,0.5,0.125,-35.0,-1,1.0,0.9636000000000422
186,19,0.5,1.0,-35.0,-1,1.0,0.3129999999999882
187,19,0.5,1.0,-35.0,-1,1.0,0.2537999999999556
188,19,0.5,0.25,35.0,1,1.0,0.38589999999999236
189,19,0.5,0.0,35.0,1,1.0,0.14010000000007494
190,19,0.5,0.25,-35.0,1,0.0,0.15599999999994907
191,19,0.5,0.0625,-35.0,1,0.0,0.25080000000002656
192,19,0.5,0.25,35.0,1,1.0,0.24839999999994689
193,19,0.5,0.125,-35.0,1,0.0,0.1671999999999798
194,19,0.5,0.125,35.0,1,1.0,0.30989999999997053
195,19,0.5,0.25,-35.0,1,0.0,0.19860000000005584
196,19,0.5,0.125,-35.0,1,0.0,0.11020000000007713
197,19,0.5,0.125,-35.0,1,0.0,0.2759999999999536
198,19,0.5,0.0,35.0,1,1.0,0.3302999999999656
199,19,0.5,0.0625,35.0,1,1.0,0.3091999999999189
200,19,0.5,0.25,-35.0,1,0.0,0.17899999999997362
201,19,1.0,0.25,-35.0,1,0.0,0.6546000000000731
202,19,0.5,1.0,-35.0,-1,1.0,0.2901000000000522
203,19,0.5,1.0,35.0,1,1.0,0.25499999999999545
204,19,0.5,1.0,-35.0,-1,1.0,0.29899999999997817
205,19,0.5,0.25,-35.0,-1,1.0,0.279700000000048
206,19,0.5,0.0,-35.0,1,0.0,4.030500000000075
207,19,0.5,0.25,35.0,1,1.0,0.24130000000002383
208,19,0.5,0.25,-35.0,1,0.0,0.34799999999995634
209,19,0.5,0.125,-35.0,1,0.0,0.4029000000000451
210,19,0.5,0.125,35.0,1,1.0,0.27689999999995507
211,19,0.5,0.125,35.0,1,1.0,0.29150000000004184
212,19,0.5,0.125,35.0,1,1.0,0.3103999999999587
213,19,0.5,1.0,-35.0,-1,1.0,0.5280999999999949
214,19,0.5,0.0,-35.0,1,0.0,0.16049999999995634
215,19,0.5,0.0,35.0,1,1.0,0.49500000000011823
216,19,0.5,0.0625,35.0,1,1.0,0.26500000000010004
217,19,0.5,0.0625,35.0,1,1.0,0.30719999999996617
218,19,0.5,1.0,35.0,1,1.0,0.3469000000000051
219,19,0.5,0.0,35.0,1,1.0,0.5485999999999649
220,19,0.5,0.25,35.0,1,1.0,0.2622000000000071
221,19,0.5,0.0625,35.0,1,1.0,0.38779999999997017
222,19,0.5,0.25,-35.0,-1,1.0,0.2999000000000933
223,19,0.5,0.0625,35.0,1,1.0,0.3612000000000535
224,19,0.5,0.0625,35.0,1,1.0,0.2857000000000198
225,19,0.5,1.0,35.0,1,1.0,0.3088000000000193
226,19,0.5,0.0625,-35.0,1,0.0,0.2115999999999758
227,19,0.5,0.0625,35.0,1,1.0,0.4167000000001053
228,19,0.5,1.0,-35.0,-1,1.0,0.3830000000000382
229,19,0.5,0.25,-35.0,1,0.0,0.21260000000006585
230,19,0.5,0.125,-35.0,-1,1.0,0.39570000000003347
231,19,0.5,1.0,-35.0,-1,1.0,0.36009999999998854
232,19,0.5,0.0625,35.0,1,1.0,0.4048000000000229
233,19,0.5,0.0,-35.0,1,0.0,1.6037999999999784
234,19,0.5,0.0625,-35.0,-1,1.0,0.41639999999995325
235,19,0.5,0.0625,35.0,1,1.0,0.8156000000000176
236,19,0.5,0.25,-35.0,-1,1.0,0.30140000000005784
237,19,0.5,1.0,-35.0,-1,1.0,0.2925000000000182
238,19,0.5,0.125,-35.0,-1,1.0,0.34149999999999636
239,19,0.5,0.125,35.0,1,1.0,0.3993000000000393
240,19,0.5,0.0,-35.0,1,0.0,0.44429999999999836
241,19,0.5,0.0625,-35.0,-1,1.0,0.27500000000009095
242,19,0.5,1.0,-35.0,-1,1.0,0.29710000000000036
243,19,0.5,0.125,35.0,1,1.0,0.33299999999997
244,19,0.5,0.0,35.0,-1,0.0,0.2766000000000304
245,19,0.5,0.25,-35.0,-1,1.0,0.3038999999999987
246,19,0.5,1.0,-35.0,-1,1.0,0.2622000000001208
247,19,0.5,1.0,-35.0,-1,1.0,0.25499999999999545
248,19,0.5,0.25,35.0,1,1.0,0.25279999999997926
249,19,0.5,0.0,-35.0,1,0.0,7.156100000000038
250,19,0.4,0.0,35.0,1,1.0,1.9891999999999825
251,19,0.5,1.0,35.0,1,1.0,0.126700000000028
252,19,0.5,0.125,-35.0,-1,1.0,0.38049999999998363
253,19,0.5,0.25,35.0,1,1.0,0.1290000000000191
254,19,0.5,0.25,35.0,1,1.0,0.38780000000008386
255,19,0.5,0.0625,35.0,1,1.0,0.33960000000001855
256,19,0.5,0.25,-35.0,-1,1.0,0.28110000000003765
257,19,0.5,0.125,35.0,1,1.0,0.3139000000001033
258,19,0.5,0.0625,-35.0,-1,1.0,0.25100000000009004
259,19,0.5,0.25,35.0,1,1.0,0.41410000000007585
260,19,0.5,0.125,-35.0,-1,1.0,0.23110000000008313
261,19,0.5,0.125,35.0,1,1.0,0.2683000000000675
262,19,0.5,0.25,35.0,1,1.0,0.3322000000000571
263,19,0.5,0.25,-35.0,-1,1.0,0.28700000000003456
264,19,0.5,0.25,35.0,-1,0.0,0.39039999999999964
265,19,0.5,0.25,-35.0,-1,1.0,0.7606000000000677
266,19,0.5,1.0,35.0,1,1.0,0.27490000000000236
267,19,0.5,1.0,35.0,1,1.0,0.27060000000005857
268,19,0.5,0.0625,-35.0,-1,1.0,0.34199999999998454
269,19,0.5,1.0,35.0,1,1.0,0.3140000000000782
270,19,0.5,0.125,-35.0,1,0.0,2.7853999999999814
271,19,0.6,0.125,35.0,1,1.0,0.26400000000001
272,19,0.5,1.0,-35.0,-1,1.0,0.3586999999999989
273,19,0.5,1.0,35.0,1,1.0,0.2977000000000771
274,19,0.5,0.125,-35.0,-1,1.0,0.31900000000018736
275,19,0.5,0.25,-35.0,-1,1.0,0.3009999999999309
276,19,0.5,1.0,-35.0,-1,1.0,0.35550000000012005
277,19,0.5,0.125,35.0,-1,0.0,0.3844000000001415
278,19,0.5,0.0625,35.0,1,1.0,0.6492000000000644
279,19,0.5,0.125,35.0,1,1.0,0.22800000000006548
280,19,0.5,0.25,35.0,1,1.0,0.2725000000000364
281,19,0.5,0.0625,35.0,1,1.0,0.3682000000001153
282,19,0.5,0.25,-35.0,-1,1.0,0.2726999999999862
283,19,0.5,0.25,-35.0,-1,1.0,0.3148999999998523
284,19,0.5,0.0625,-35.0,-1,1.0,0.29939999999987776
285,19,0.5,0.125,35.0,1,1.0,0.621599999999944
286,19,0.5,0.125,-35.0,1,0.0,3.4863000000000284
287,19,0.5,0.125,-35.0,-1,1.0,0.31520000000000437
288,19,0.5,0.25,-35.0,-1,1.0,0.28310000000010405
289,19,0.5,1.0,35.0,1,1.0,0.3386000000000422
290,19,0.5,1.0,-35.0,-1,1.0,0.2598000000000411
291,19,0.5,0.0625,-35.0,-1,1.0,0.35540000000014516
292,19,0.5,0.0,-35.0,1,0.0,2.593499999999949
293,19,0.5,0.25,-35.0,-1,1.0,0.5292999999999211
294,19,0.5,0.0625,35.0,1,1.0,0.3570999999999458
295,19,0.5,0.25,35.0,1,1.0,0.2923999999998159
296,19,0.5,0.125,-35.0,1,0.0,2.2303000000001703
297,19,0.5,0.125,35.0,1,1.0,0.2760000000000673
298,19,0.5,1.0,35.0,1,1.0,0.17040000000019973
299,19,0.5,0.125,35.0,1,1.0,0.31940000000008695
300,19,0.5,0.0,-35.0,1,0.0,0.33390000000008513
301,19,0.5,0.0625,-35.0,1,0.0,0.3564000000001215
302,19,0.9,0.0625,-35.0,1,0.0,0.34410000000002583
303,19,0.5,1.0,-35.0,-1,1.0,0.34999999999990905
304,19,0.5,0.0625,-35.0,1,0.0,2.9507999999998447
305,19,0.5,0.0625,-35.0,1,0.0,2.5533000000000357
306,19,0.5,0.0625,-35.0,1,0.0,0.3614000000000033
307,19,0.5,0.0625,-35.0,-1,1.0,3.3301000000001295
308,19,0.5,0.125,-35.0,1,0.0,0.16450000000008913
309,19,0.5,0.125,35.0,1,1.0,0.35369999999988977
310,19,0.5,0.0,-35.0,1,0.0,0.36159999999995307
311,19,0.5,0.0625,35.0,1,1.0,0.3671000000001641
312,19,0.5,0.0,35.0,1,1.0,0.3250000000000455
313,19,0.5,0.25,-35.0,-1,1.0,0.30050000000028376
314,19,0.5,0.25,-35.0,-1,1.0,0.32169999999996435
315,19,0.5,1.0,35.0,1,1.0,0.3371999999999389
316,19,0.5,0.25,-35.0,-1,1.0,0.34169999999994616
317,19,0.5,1.0,-35.0,-1,1.0,0.3108999999999469
318,19,0.5,0.25,35.0,1,1.0,0.21859999999992397
319,19,0.5,0.125,-35.0,-1,1.0,0.2875000000001364
320,19,0.5,0.25,35.0,-1,0.0,0.35210000000006403
321,19,0.5,0.0625,35.0,1,1.0,0.41439999999988686
322,19,0.5,0.0,-35.0,-1,1.0,0.30550000000016553
323,19,0.5,0.25,35.0,1,1.0,0.3043999999999869
324,19,0.5,0.0625,35.0,1,1.0,0.585700000000088
325,19,0.5,0.125,35.0,1,1.0,0.26460000000020045
326,19,0.5,0.0,35.0,-1,0.0,0.2657000000001517
327,19,0.5,0.0,35.0,1,1.0,0.22479999999995925
328,19,0.5,1.0,-35.0,-1,1.0,0.352500000000191
329,19,0.5,0.0625,35.0,-1,0.0,0.29169999999999163
330,19,0.5,0.125,-35.0,-1,1.0,0.2925999999999931
331,19,0.5,0.125,35.0,1,1.0,0.2949999999998454
332,19,0.5,0.125,35.0,-1,0.0,0.36959999999999127
333,19,0.5,0.25,35.0,1,1.0,0.34180000000014843
334,19,0.5,0.0625,35.0,1,1.0,0.31310000000007676
335,19,0.5,0.0625,35.0,1,1.0,0.3952999999999065
336,19,0.5,0.25,35.0,1,1.0,0.14640000000008513
337,19,0.5,0.25,35.0,1,1.0,0.2319999999999709
338,19,0.5,1.0,-35.0,-1,1.0,0.27339999999981046
339,19,0.5,0.125,-35.0,1,0.0,0.29559999999992215
340,19,0.5,0.125,-35.0,-1,1.0,0.27330000000006294
341,19,0.5,1.0,35.0,1,1.0,0.20219999999994798
342,19,0.5,0.25,-35.0,-1,1.0,0.2837000000001808
343,19,0.5,0.125,35.0,1,1.0,0.9891999999999825
344,19,0.5,0.0625,-35.0,1,0.0,0.24700000000007094
345,19,0.5,0.0625,35.0,1,1.0,0.38239999999996144
346,19,0.5,0.0,-35.0,1,0.0,0.363599000000022
347,19,0.7,0.0,35.0,1,1.0,0.22600000000011278
348,19,0.5,1.0,35.0,1,1.0,0.31379999999990105
349,19,0.5,0.25,-35.0,-1,1.0,0.32619999999974425
350,19,0.5,0.125,35.0,1,1.0,0.2772000000002208
351,19,0.5,0.0625,-35.0,-1,1.0,0.28950000000008913
352,19,0.5,1.0,35.0,1,1.0,0.2907999999999902
353,19,0.5,0.125,35.0,1,1.0,0.38980000000015025
354,19,0.5,0.25,35.0,1,1.0,0.3143000000000029
355,19,0.5,0.125,35.0,1,1.0,0.3532999999999902
356,19,0.5,0.25,35.0,1,1.0,0.3876999999997679
357,19,0.5,0.125,35.0,1,1.0,0.8766989999999169
358,19,0.5,1.0,-35.0,-1,1.0,0.797800000000052
359,19,0.5,0.0,-35.0,1,0.0,0.4934000000000651
360,19,0.5,0.25,35.0,1,1.0,0.2380000000000564
361,19,0.5,0.0625,35.0,1,1.0,0.4102999999997792
362,19,0.5,1.0,-35.0,-1,1.0,0.2948999999998705
363,19,0.5,0.125,35.0,1,1.0,0.3170999999999822
364,19,0.5,1.0,35.0,1,1.0,0.3849999999999909
365,19,0.5,1.0,35.0,1,1.0,0.27070000000003347
366,19,0.5,0.125,35.0,1,1.0,0.3550999999999931
367,19,0.5,0.25,35.0,1,1.0,0.310799999999972
368,19,0.5,0.25,35.0,1,1.0,0.20869999999990796
369,19,0.5,0.25,35.0,1,1.0,0.314200000000028
370,19,0.5,0.125,35.0,1,1.0,0.42869999999993524
371,19,0.5,0.25,-35.0,1,0.0,0.14769999999998618
372,19,0.9,0.25,35.0,1,1.0,0.3955000000000837
373,19,0.5,1.0,-35.0,-1,1.0,0.24459999999999127
374,19,0.5,1.0,-35.0,1,0.0,0.12230000000022301
375,19,0.9,1.0,-35.0,-1,1.0,1.9945000000002437
376,19,0.5,1.0,35.0,1,1.0,0.3358989999999267
377,19,0.5,0.25,-35.0,1,0.0,2.664600000000064
378,19,0.8,0.25,-35.0,1,0.0,0.4158999999999651
379,19,0.5,1.0,-35.0,1,0.0,0.6117000000001553
380,19,0.5,0.0625,35.0,1,1.0,0.29300000000012005
381,19,0.5,0.0,35.0,1,1.0,0.32519999999999527
382,19,0.5,1.0,-35.0,1,0.0,0.2663000000000011
383,19,0.5,0.25,35.0,1,1.0,0.1953000000000884
384,19,0.5,1.0,-35.0,1,0.0,0.7998000000000047
385,19,0.5,0.0625,-35.0,1,0.0,2.8019999999999072
386,19,0.5,0.0625,-35.0,1,0.0,0.4332000000001699
387,19,1.0,0.0625,-35.0,1,0.0,0.3455999999998767
388,19,0.5,1.0,-35.0,-1,1.0,0.29680000000007567
389,19,0.5,0.25,-35.0,1,0.0,0.8624990000000707
390,19,0.9,0.25,-35.0,1,0.0,3.987100000000055
391,19,0.5,1.0,-35.0,-1,1.0,0.6591999999998279
392,19,0.5,0.0,35.0,1,1.0,0.3605000000000018
393,19,0.5,0.0625,35.0,1,1.0,0.4394999999999527
394,19,0.5,1.0,35.0,1,1.0,0.29720000000020264
395,19,0.5,0.25,-35.0,-1,1.0,0.9961000000000695
396,19,0.5,0.125,-35.0,1,0.0,0.23730000000000473
397,19,0.5,0.0,-35.0,1,0.0,0.41650000000004184
398,19,0.5,0.25,-35.0,-1,1.0,0.5142000000000735
399,19,0.5,1.0,-35.0,-1,1.0,0.3630000000000564
400,19,0.5,1.0,-35.0,-1,1.0,0.31120000000009895
401,19,0.5,0.125,-35.0,-1,1.0,0.253400000000056
402,19,0.5,0.25,-35.0,-1,1.0,0.2377000000001317
403,19,0.5,0.25,35.0,1,1.0,0.386600000000044
404,19,0.5,0.125,35.0,1,1.0,0.47129999999992833
405,19,0.5,0.25,35.0,1,1.0,0.28009999999972024
406,19,0.5,0.0,35.0,1,1.0,0.3344999999999345
407,19,0.5,0.125,-35.0,-1,1.0,0.6468999999999596
408,19,0.5,0.0625,-35.0,1,0.0,0.3915999999999258
409,19,0.5,0.25,-35.0,-1,1.0,0.5470000000000255
410,19,0.5,0.0625,-35.0,-1,1.0,0.42170000000010077
411,19,0.5,1.0,35.0,1,1.0,0.28379999999992833
412,19,0.5,0.0,-35.0,1,0.0,0.4851000000003296
413,19,0.7,0.0,-35.0,1,0.0,0.8071999999999662
414,19,0.5,1.0,-35.0,-1,1.0,0.25500000000010914
415,19,0.5,0.0,35.0,-1,0.0,10.424399999999878
416,19,0.5,0.0625,-35.0,-1,1.0,0.43879999999990105
417,19,0.5,0.0,-35.0,-1,1.0,0.38439999999991414
418,19,0.5,0.25,-35.0,-1,1.0,0.6258000000000266
419,19,0.5,0.0,35.0,-1,0.0,0.2979000000000269
420,19,0.5,0.25,-35.0,-1,1.0,1.195799999999963
421,19,0.5,1.0,-35.0,-1,1.0,0.2580000000000382
422,19,0.5,0.0625,35.0,1,1.0,0.4093000000000302
423,19,0.5,1.0,35.0,1,1.0,0.29160000000001673
424,19,0.5,1.0,35.0,1,1.0,0.24610000000006949
425,19,0.5,0.25,-35.0,-1,1.0,0.28160000000002583
426,19,0.5,1.0,35.0,1,1.0,0.3062999999999647
427,19,0.5,0.125,35.0,1,1.0,0.4652000000000953
428,19,0.5,1.0,35.0,1,1.0,0.30960000000004584
429,19,0.5,1.0,-35.0,-1,1.0,0.3951999999999316
430,19,0.5,0.0,35.0,1,1.0,0.5664000000001579
431,19,0.5,1.0,35.0,1,1.0,0.2986000000000786
432,19,0.5,0.25,35.0,1,1.0,0.3631999999997788
433,19,0.5,0.25,35.0,1,1.0,0.425499999999829
434,19,0.5,0.125,-35.0,1,0.0,0.5733000000000175
435,19,0.5,0.0,35.0,1,1.0,0.29909999999995307
436,19,0.5,0.0,35.0,1,1.0,1.3937000000000808
437,19,0.5,0.0625,35.0,1,1.0,0.3656999999998334
438,19,0.5,0.25,35.0,1,1.0,0.4237000000000535
439,19,0.5,0.0625,35.0,1,1.0,0.34940000000005966
440,19,0.5,1.0,-35.0,-1,1.0,0.7302999999999429
441,19,0.5,0.125,-35.0,-1,1.0,0.3126999999999498
442,19,0.5,0.125,35.0,1,1.0,0.2705000000000837
443,19,0.5,0.0,-35.0,1,0.0,0.7059999999999036
444,19,0.5,0.0625,-35.0,1,0.0,0.43069999999988795
445,19,0.5,0.25,-35.0,-1,1.0,0.3330000000000837
446,19,0.5,0.25,-35.0,-1,1.0,0.4375
447,19,0.5,0.0,-35.0,-1,1.0,0.30979999999999563
448,19,0.5,1.0,35.0,1,1.0,0.30760000000009313
449,19,0.5,0.0,35.0,-1,0.0,0.4297999999998865
450,19,0.4,0.0,-35.0,1,0.0,0.34770000000003165
451,19,0.5,1.0,35.0,1,1.0,0.3067000000000917
452,19,0.5,0.0,35.0,1,1.0,0.42450000000008004
453,19,0.5,1.0,35.0,1,1.0,0.29690000000005057
454,19,0.5,0.0,35.0,1,1.0,0.4346000000002732
455,19,0.5,0.25,-35.0,-1,1.0,0.31690000000025975
456,19,0.5,1.0,-35.0,-1,1.0,0.32130000000006476
457,19,0.5,1.0,-35.0,-1,1.0,0.2803999999998723
458,19,0.5,0.125,35.0,1,1.0,0.39820000000008804
459,19,0.5,0.0625,35.0,1,1.0,1.5337999999999283
460,19,0.5,0.125,35.0,1,1.0,0.19850000000019463
461,19,0.5,0.0,-35.0,1,0.0,0.19389999999998508
462,19,0.5,0.125,-35.0,-1,1.0,0.8474989999999707
463,19,0.5,0.25,35.0,1,1.0,0.3553999999999178
464,19,0.5,0.125,-35.0,-1,1.0,0.32100000000014006
465,19,0.5,0.25,-35.0,-1,1.0,0.2821999999998752
466,19,0.5,0.0,-35.0,1,0.0,0.4211999999999989
467,19,0.5,0.0625,-35.0,-1,1.0,0.2623999999998432
468,19,0.5,0.0,35.0,-1,0.0,0.7279000000000906
469,19,0.5,0.0625,-35.0,1,0.0,4.502499999999827
470,19,0.5,0.125,35.0,1,1.0,0.274599999999964
471,19,0.5,0.125,35.0,1,1.0,0.309099999999944
472,19,0.5,0.0,-35.0,1,0.0,0.2648999999998978
473,19,0.5,0.25,-35.0,-1,1.0,0.4393000000000029
474,19,0.5,0.125,-35.0,-1,1.0,0.3251000000000204
475,19,0.5,1.0,-35.0,-1,1.0,0.25939999999991414
476,19,0.5,0.25,-35.0,-1,1.0,0.29510000000004766
477,19,0.5,0.125,-35.0,-1,1.0,0.8661000000001877
478,19,0.5,0.25,-35.0,-1,1.0,0.4052999999998974
479,19,0.5,1.0,-35.0,-1,1.0,0.2966000000001259
480,19,0.5,0.0625,-35.0,-1,1.0,0.2686999999998534
481,19,0.5,0.25,35.0,1,1.0,0.346599999999853
482,19,0.5,1.0,35.0,1,1.0,0.26870000000008076
483,19,0.5,0.0625,-35.0,1,0.0,1.7531999999998789
484,19,0.3,0.0625,35.0,1,1.0,0.36570000000006075
485,19,0.5,1.0,35.0,1,1.0,0.28359999999997854
486,19,0.5,1.0,-35.0,-1,1.0,0.30559999999991305
487,19,0.5,1.0,35.0,1,1.0,0.2766999999998916
488,19,0.5,0.25,35.0,1,1.0,0.3425999999999476
489,19,0.5,0.0625,-35.0,-1,1.0,0.29359999999996944
490,19,0.5,0.125,-35.0,-1,1.0,0.429300000000012
491,19,0.5,0.25,35.0,1,1.0,0.3369000000000142
492,19,0.5,0.125,35.0,-1,0.0,0.25929999999993925
493,19,0.6,0.125,-35.0,-1,1.0,0.29720000000020264
494,19,0.5,1.0,-35.0,-1,1.0,0.5330000000001291
495,19,0.5,0.25,-35.0,-1,1.0,0.4005000000001928
496,19,0.5,1.0,35.0,1,1.0,0.2861000000000331
497,19,0.5,0.25,35.0,1,1.0,0.3372999999999138
498,19,0.5,1.0,35.0,1,1.0,0.29979999999977736
499,19,0.5,0.125,35.0,1,1.0,0.30740000000014334
500,19,0.5,0.125,-35.0,1,0.0,0.3364000000001397
501,19,0.5,0.125,35.0,1,1.0,0.314200000000028
502,19,0.5,1.0,-35.0,-1,1.0,0.6001000000001113
503,19,0.5,0.25,-35.0,-1,1.0,1.0415000000000418
504,19,0.5,1.0,-35.0,-1,1.0,0.3468000000000302
505,19,0.5,1.0,35.0,1,1.0,0.2645999999999731
506,19,0.5,1.0,-35.0,-1,1.0,0.3769000000002052
507,19,0.5,1.0,-35.0,-1,1.0,0.23489999999992506
508,19,0.5,1.0,-35.0,-1,1.0,0.25389899999981935
509,19,0.5,0.125,35.0,1,1.0,0.33819900000003145
510,19,0.5,0.125,-35.0,-1,1.0,0.4072000000001026
511,19,0.5,0.125,35.0,1,1.0,0.3751999999999498
512,19,0.5,1.0,35.0,1,1.0,0.29399999999986903
513,19,0.5,0.0625,-35.0,-1,1.0,0.3018000000001848
514,19,0.5,0.25,-35.0,-1,1.0,0.3041000000000622
515,19,0.5,1.0,-35.0,-1,1.0,0.27860000000009677
516,19,0.5,1.0,35.0,1,1.0,0.25099999999997635
517,19,0.5,0.125,-35.0,1,0.0,4.932199999999966
518,19,0.5,0.125,-35.0,1,0.0,0.30100000000015825
519,19,0.5,0.0625,35.0,1,1.0,0.3088999999999942
520,19,0.5,1.0,35.0,1,1.0,0.2680000000000291
521,19,0.5,0.125,35.0,1,1.0,0.3223000000000411
522,19,0.5,1.0,-35.0,-1,1.0,0.6612999999999829
523,19,0.5,0.25,-35.0,-1,1.0,0.7192000000002281
524,19,0.5,0.125,-35.0,-1,1.0,0.26579999999989923
525,19,0.5,1.0,35.0,1,1.0,0.23490000000015243
526,19,0.5,0.0,-35.0,-1,1.0,0.7426999999997861
527,19,0.5,0.25,-35.0,-1,1.0,0.2583999999999378
528,19,0.5,1.0,-35.0,-1,1.0,0.25949999999988904
529,19,0.5,0.25,35.0,1,1.0,0.23859999999990578
530,19,0.5,0.0625,35.0,1,1.0,0.3661000000001877
531,19,0.5,0.25,35.0,1,1.0,0.26519999999982247
532,19,0.5,0.125,35.0,1,1.0,0.31289999999944484
533,19,0.5,0.25,-35.0,-1,1.0,0.2986999999998261
534,19,0.5,1.0,35.0,1,1.0,0.26330000000007203
535,19,0.5,0.0625,-35.0,-1,1.0,0.5088999999998123
536,19,0.5,0.25,35.0,1,1.0,0.19989999999961583
537,19,0.5,0.25,-35.0,1,0.0,1.665599999999813
538,19,0.7,0.25,-35.0,1,0.0,1.9202000000000226
539,19,0.5,1.0,-35.0,-1,1.0,0.3558000000002721
540,19,0.5,0.0625,35.0,1,1.0,0.21039999999993597
541,19,0.5,0.0625,-35.0,-1,1.0,0.959400000000187
542,19,0.5,0.25,35.0,1,1.0,0.3271000000004278
543,19,0.5,0.0625,-35.0,-1,1.0,0.2628000000004249
544,19,0.5,0.0625,-35.0,-1,1.0,0.3142000000002554
545,19,0.5,0.0625,35.0,1,1.0,0.2628000000004249
546,19,0.5,0.0625,-35.0,-1,1.0,0.33090000000038344
547,19,0.5,0.0625,-35.0,-1,1.0,0.6431000000002314
548,19,0.5,0.0625,-35.0,-1,1.0,0.8143000000000029
549,19,0.5,0.25,35.0,1,1.0,0.17990000000008877
550,19,0.5,0.25,35.0,1,1.0,0.334400000000187
551,19,0.5,0.125,-35.0,-1,1.0,0.29999999999972715
552,19,0.5,0.0625,-35.0,1,0.0,0.4076999999997497
553,19,0.4,0.0625,35.0,1,1.0,0.42689999999993233
554,19,0.5,1.0,35.0,1,1.0,0.18790000000035434
555,19,0.5,0.0,35.0,-1,0.0,0.6768999999999323
556,19,0.5,0.0625,35.0,1,1.0,0.34799999999995634
557,19,0.5,1.0,-35.0,-1,1.0,0.297099999999773
558,19,0.5,1.0,-35.0,-1,1.0,0.6480999999998858
559,19,0.5,0.0625,-35.0,1,0.0,0.5240999999996347
560,19,0.5,0.125,35.0,1,1.0,0.2885000000001128
561,19,0.5,1.0,35.0,1,1.0,0.2838990000004742
562,19,0.5,0.0625,35.0,1,1.0,1.5152989999996862
563,19,0.5,0.0625,-35.0,1,0.0,5.617700000000241
564,19,0.5,0.125,35.0,1,1.0,0.2887000000000626
565,19,0.5,0.125,-35.0,1,0.0,0.4643999999998414
566,19,0.5,0.0625,35.0,1,1.0,0.34879999999975553
567,19,0.5,0.0,-35.0,1,0.0,0.3346000000001368
568,19,0.9,0.0,-35.0,1,0.0,0.31269900000052075
569,19,0.5,1.0,-35.0,-1,1.0,0.29149999999981446
570,19,0.5,0.25,-35.0,-1,1.0,0.3423999999999978
571,19,0.5,0.125,35.0,1,1.0,0.4580999999998312
572,19,0.5,0.0,35.0,-1,0.0,0.43280000000004293
573,19,0.5,0.0625,-35.0,1,0.0,0.35489899999993213
574,19,0.7,0.0625,-35.0,-1,1.0,1.2397000000000844
575,19,0.5,1.0,-35.0,-1,1.0,0.301600000000235
576,19,0.5,0.0625,35.0,-1,0.0,0.27649999999948704
577,19,0.5,0.0625,-35.0,-1,1.0,0.2418999999999869
578,19,0.5,0.125,35.0,-1,0.0,0.5266000000001441
579,19,0.5,0.125,35.0,1,1.0,0.42219999999997526
580,19,0.5,0.125,35.0,1,1.0,0.3168000000000575
581,19,0.5,0.0625,-35.0,-1,1.0,0.4790000000002692
582,19,0.5,0.0625,-35.0,-1,1.0,0.33670000000029177
583,19,0.5,0.125,35.0,-1,0.0,0.415599999999813
584,19,0.5,0.25,-35.0,-1,1.0,0.2536000000000058
585,19,0.5,0.125,-35.0,-1,1.0,0.3326000000001841
586,19,0.5,0.125,-35.0,-1,1.0,0.39689999999973224
587,19,0.5,0.125,-35.0,-1,1.0,0.35599999999976717
588,19,0.5,0.125,35.0,1,1.0,0.34400000000005093
589,19,0.5,0.0625,35.0,1,1.0,0.25630000000046493
590,19,0.5,0.0625,35.0,1,1.0,0.7775000000001455
591,19,0.5,0.125,35.0,1,1.0,0.2262999999998101
592,19,0.5,0.25,35.0,1,1.0,0.16780000000017026
593,19,0.5,0.125,35.0,1,1.0,0.330000000000382
594,19,0.5,0.0625,-35.0,1,0.0,0.25440000000025975
595,19,0.5,0.0625,-35.0,1,0.0,0.3667000000000371
596,19,0.5,0.0625,35.0,-1,0.0,0.24440000000049622
597,19,0.8,0.0625,-35.0,1,0.0,2.0266999999998916
598,19,0.5,1.0,35.0,1,1.0,0.28130000000010114
599,19,0.5,0.0,35.0,1,1.0,0.3900999999996202
600,19,0.5,0.25,35.0,1,1.0,0.35140000000001237
601,19,0.5,0.125,35.0,1,1.0,0.13020000000005894
602,19,0.5,0.125,35.0,1,1.0,0.31470000000035725
603,19,0.5,0.25,-35.0,-1,1.0,0.4738000000002103
604,19,0.5,0.125,35.0,1,1.0,0.3150999999998021
605,19,0.5,0.0,-35.0,-1,1.0,0.3505000000000109
606,19,0.5,1.0,-35.0,-1,1.0,0.26499999999987267
607,19,0.5,0.0,-35.0,-1,1.0,0.3775000000005093
608,19,0.5,0.0625,35.0,1,1.0,0.31530000000020664
609,19,0.5,0.0,35.0,1,1.0,3.527799999999843
610,19,0.5,0.25,35.0,1,1.0,0.2723000000000866
611,19,0.5,0.0,35.0,1,1.0,0.40770000000020445
612,19,0.5,1.0,-35.0,-1,1.0,0.3056000000001404
613,19,0.5,1.0,-35.0,-1,1.0,0.35470000000032087
614,19,0.5,0.25,35.0,1,1.0,0.2524999999995998
615,19,0.5,0.125,35.0,1,1.0,0.3112999999998465
616,19,0.5,0.125,35.0,1,1.0,0.3324000000002343
617,19,0.5,0.0625,35.0,1,1.0,0.29819999999972424
618,19,0.5,0.25,-35.0,-1,1.0,0.3294999999998254
619,19,0.5,1.0,-35.0,-1,1.0,0.2517000000002554
620,19,0.5,0.0,35.0,1,1.0,0.12599999999974898
621,19,0.5,0.25,35.0,1,1.0,0.3350000000000364
622,19,0.5,0.25,35.0,1,1.0,0.38279999999986103
623,19,0.5,0.25,-35.0,-1,1.0,0.2984999999998763
624,19,0.5,1.0,35.0,1,1.0,0.32300000000032014
625,19,0.5,0.25,35.0,1,1.0,0.32520000000022264
626,19,0.5,0.125,35.0,1,1.0,0.2531000000003587
627,19,0.5,0.0625,-35.0,1,0.0,0.165599999999813
628,19,0.5,0.25,-35.0,-1,1.0,0.35989999999992506
629,19,0.5,0.25,-35.0,-1,1.0,0.36550000000033833
630,19,0.5,0.125,-35.0,1,0.0,7.70679999999993
631,19,0.5,0.0625,-35.0,-1,1.0,4.152599999999893
632,19,0.5,0.25,35.0,1,1.0,0.28710000000000946
633,19,0.5,0.25,35.0,1,1.0,0.2695000000003347
634,19,0.5,0.25,35.0,1,1.0,0.3305000000000291
635,19,0.5,0.25,-35.0,1,0.0,0.6229999999995925
636,19,0.5,0.25,-35.0,-1,1.0,0.27769999999964057
637,19,0.5,0.0625,-35.0,-1,1.0,0.32310000000006767
638,19,0.5,0.25,-35.0,-1,1.0,0.3777999999997519
639,19,0.5,1.0,-35.0,-1,1.0,0.39309999999977663
640,19,0.5,0.25,-35.0,-1,1.0,0.31109999999944193
641,19,0.5,1.0,35.0,1,1.0,0.3867000000000189
642,19,0.5,0.0625,35.0,-1,0.0,0.3211999999998625
643,19,0.5,0.125,35.0,1,1.0,0.3435000000004038
644,19,0.5,0.0,35.0,1,1.0,6.630999999999858
645,19,0.5,1.0,35.0,1,1.0,0.28379999999970096
646,19,0.5,0.125,35.0,-1,0.0,3.8115999999999985
647,19,0.5,0.0,35.0,1,1.0,0.6208000000005995
648,19,0.5,0.25,-35.0,-1,1.0,0.2516000000000531
649,19,0.5,0.125,35.0,1,1.0,0.31739999999990687
650,19,0.5,0.0625,35.0,-1,0.0,0.26499999999987267
651,19,0.5,0.25,35.0,1,1.0,0.3773999999998523
652,19,0.5,0.25,35.0,1,1.0,2.315299999999752
653,19,0.5,0.0,-35.0,1,0.0,0.6110000000003311
654,19,0.5,0.0625,35.0,1,1.0,0.5354000000002088
655,19,0.5,0.0,-35.0,1,0.0,5.457799999999679
656,19,0.7,0.0,-35.0,1,0.0,5.542500000000018
657,19,0.5,1.0,-35.0,-1,1.0,0.28470000000015716
658,19,0.5,0.125,35.0,-1,0.0,0.725800000000163
659,19,0.5,0.0,-35.0,1,0.0,2.1847999999999956
660,19,0.5,0.125,35.0,1,1.0,2.792699999999968
661,19,0.5,1.0,35.0,1,1.0,8.45849999999973
662,19,0.5,0.125,35.0,1,1.0,7.236500000000433
663,19,0.5,0.0625,35.0,-1,0.0,2.0756000000001222
664,19,0.5,0.0625,-35.0,1,0.0,0.40650000000005093
665,19,0.7,0.0625,-35.0,1,0.0,18.02559999999994
666,19,0.5,1.0,-35.0,-1,1.0,0.3937999999998283
667,19,0.5,0.0625,35.0,-1,0.0,1.8593999999998232
668,19,0.5,0.25,-35.0,-1,1.0,0.28389999999990323
669,19,0.5,0.0625,35.0,1,1.0,0.5130999999996675
670,19,0.5,1.0,35.0,1,1.0,0.46439900000041234
671,19,0.5,0.125,-35.0,-1,1.0,0.2731000000003405
672,19,0.5,1.0,-35.0,-1,1.0,0.22080000000005384
673,19,0.5,0.0,35.0,1,1.0,0.5032999999998538
674,19,0.5,0.0,-35.0,-1,1.0,0.440900000000056
675,19,0.5,1.0,-35.0,1,0.0,0.1732999999999265
676,19,0.4,1.0,35.0,1,1.0,0.27440000000024156
677,19,0.5,1.0,35.0,1,1.0,0.29340000000001965
678,19,0.5,0.125,35.0,1,1.0,0.3745000000003529
679,19,0.5,0.125,-35.0,-1,1.0,0.24699899999995978
680,19,0.5,0.0,35.0,-1,0.0,0.36459999999988213
681,19,0.5,0.25,35.0,1,1.0,0.12700000000040745
682,19,0.5,0.0625,35.0,1,1.0,0.32480000000032305
683,19,0.5,0.125,-35.0,-1,1.0,0.36060000000043146
684,19,0.5,0.25,35.0,1,1.0,0.355199999999968
685,19,0.5,0.0625,-35.0,-1,1.0,0.2472000000002481
686,19,0.5,0.0625,35.0,-1,0.0,0.33849999999983993
687,19,0.5,0.0625,-35.0,-1,1.0,0.44410000000016225
688,19,0.5,1.0,-35.0,-1,1.0,0.30169999999998254
689,19,0.5,0.25,35.0,1,1.0,0.3708000000001448
690,19,0.5,0.0625,35.0,1,1.0,0.3318000000003849
691,19,0.5,0.0625,-35.0,-1,1.0,0.2976999999996224
692,19,0.5,0.125,35.0,1,1.0,0.28209900000001653
693,19,0.5,0.0625,35.0,1,1.0,0.3878999999997177
694,19,0.5,0.125,35.0,1,1.0,0.2656000000001768
695,19,0.5,0.125,35.0,1,1.0,0.32789999999977226
696,19,0.5,0.25,-35.0,-1,1.0,0.40899999999965075
697,19,0.5,0.25,35.0,1,1.0,0.3678999999997359
698,19,0.5,0.0625,35.0,1,1.0,10.715999999999894
699,19,0.5,0.125,-35.0,-1,1.0,4.58179999999993
700,19,0.5,0.0625,-35.0,1,0.0,0.40279999999984284
701,19,0.5,0.0625,35.0,1,1.0,0.348601000000599
702,19,0.5,1.0,-35.0,-1,1.0,0.29650100000026214
703,19,0.5,0.125,35.0,1,1.0,6.035301000000345
704,19,0.5,0.0625,-35.0,-1,1.0,1.8768009999998867
705,19,0.5,0.125,35.0,1,1.0,0.808900999999878
706,19,0.5,0.0,-35.0,-1,1.0,7.370100999999977
707,19,0.5,0.125,-35.0,1,0.0,0.9792010000001028
708,19,0.5,0.0625,-35.0,-1,1.0,4.546900999999707
709,19,0.5,1.0,-35.0,-1,1.0,0.3960010000000693
710,19,0.5,0.0625,35.0,1,1.0,0.5772010000000591
711,19,0.5,0.0625,-35.0,-1,1.0,1.4861009999999624
712,19,0.5,1.0,-35.0,-1,1.0,0.2738009999998212
713,19,0.5,0.25,35.0,1,1.0,0.6797010000000228
714,19,0.5,0.25,35.0,1,1.0,0.36100100000021484
715,19,0.5,1.0,35.0,1,1.0,0.25980100000015227
716,19,0.5,0.0,35.0,1,1.0,1.4975009999998292
717,19,0.5,1.0,35.0,1,1.0,0.26320099999975355
718,19,0.5,1.0,-35.0,-1,1.0,0.40450100000043676
719,19,0.5,0.0625,-35.0,-1,1.0,0.6799009999995178
720,19,0.5,1.0,35.0,1,1.0,0.2213010000000395
721,19,0.5,0.25,-35.0,-1,1.0,0.35330100000010134
722,19,0.5,0.125,-35.0,1,0.0,13.607900999999856
723,19,0.7,0.125,35.0,1,1.0,0.25720099999989543
724,19,0.5,1.0,-35.0,-1,1.0,1.3916010000002643
725,19,0.5,0.0,35.0,-1,0.0,14.650801000000229
726,19,0.5,0.0625,35.0,-1,0.0,4.722400999999991
727,19,0.5,0.25,-35.0,-1,1.0,0.6813010000000759
728,19,0.5,0.0,35.0,-1,0.0,5.789201000000048
729,19,0.3,0.0,35.0,1,1.0,8.301300999999967
730,19,0.5,1.0,-35.0,-1,1.0,0.22970100000020466
731,19,0.5,1.0,35.0,1,1.0,0.25840100000004895
732,19,0.5,0.125,-35.0,-1,1.0,0.41270099999974263
733,19,0.5,0.25,35.0,1,1.0,5.055101000000377
734,19,0.5,0.0,35.0,1,1.0,0.256300999999894
735,19,0.5,0.25,35.0,1,1.0,6.895100999999613
736,19,0.5,0.125,35.0,1,1.0,0.31670100000019374
737,19,0.5,1.0,-35.0,1,0.0,0.39560100000016973
738,19,0.5,0.0625,35.0,1,1.0,0.3500010000002476
739,19,0.5,0.25,35.0,1,1.0,3.129000999999789
740,19,0.5,0.125,35.0,1,1.0,0.4836009999999078
741,19,0.5,0.0625,-35.0,-1,1.0,10.475901000000249
742,19,0.5,0.0625,35.0,-1,0.0,10.493701000000328
743,19,0.5,0.0625,-35.0,-1,1.0,1.1132009999996626
744,19,0.5,0.125,-35.0,-1,1.0,0.8544010000000526
745,19,0.5,0.0625,35.0,1,1.0,0.2609010000001035
746,19,0.5,0.0625,35.0,1,1.0,0.6967010000003029
747,19,0.5,0.0625,-35.0,-1,1.0,15.02120100000002
748,19,0.5,1.0,-35.0,-1,1.0,11.760301000000254
749,19,0.5,0.0625,35.0,-1,0.0,8.87170100000003
750,19,0.3,0.0625,35.0,-1,0.0,10.444000999999844
751,19,0.5,1.0,35.0,1,1.0,0.24230100000067978
752,19,0.5,0.125,35.0,-1,0.0,15.597801000000345
753,19,0.5,0.25,35.0,-1,0.0,14.269101000000319
754,19,0.5,0.125,35.0,1,1.0,0.31510100000014063
755,19,0.5,0.25,35.0,1,1.0,3.559700999999677
756,19,0.5,0.125,-35.0,1,0.0,9.705401000000165
757,19,0.5,0.0625,35.0,-1,0.0,0.6032010000003538
758,19,0.5,0.125,35.0,1,1.0,6.155500999999731
759,19,0.5,0.0,35.0,1,1.0,2.8804009999998925
760,19,0.5,0.125,-35.0,-1,1.0,0.6092010000002119
761,19,0.5,0.25,-35.0,-1,1.0,0.3036010000000715
762,19,0.5,0.125,-35.0,-1,1.0,0.26930099999981394
763,19,0.5,1.0,35.0,1,1.0,0.24050100000022212
764,19,0.5,0.0,-35.0,-1,1.0,0.4228010000001632
765,19,0.5,0.25,35.0,1,1.0,0.5074009999998452
766,19,0.5,0.0625,35.0,-1,0.0,8.279500999999982
767,19,0.5,0.0,-35.0,1,0.0,8.19090099999994
768,19,0.5,0.125,-35.0,-1,1.0,7.463400999999976
769,19,0.5,0.25,35.0,1,1.0,0.3345009999998183
770,19,0.5,0.0625,-35.0,1,0.0,1.7303999999999178
771,19,0.5,0.0,35.0,-1,0.0,2.62820099999999
772,19,0.5,0.25,35.0,1,1.0,0.25380100000029415
773,19,0.5,0.125,-35.0,-1,1.0,4.601600999999846
774,19,0.5,0.25,35.0,1,1.0,0.4508009999999558
775,19,0.5,1.0,35.0,1,1.0,0.248801000000185
776,19,0.5,1.0,35.0,1,1.0,0.2209010000001399
777,19,0.5,0.25,-35.0,1,0.0,5.202001000000109
778,19,0.5,0.125,35.0,-1,0.0,20.004601000000093
779,19,0.5,0.0,35.0,1,1.0,0.41270099999974263
780,19,0.5,0.0625,-35.0,1,0.0,5.5317009999998845
781,19,0.5,0.25,-35.0,1,0.0,3.6995010000000548
782,19,0.5,0.125,-35.0,-1,1.0,2.155301000000236
783,19,0.5,0.0625,35.0,1,1.0,2.9864010000001144
784,19,0.5,1.0,-35.0,-1,1.0,0.722201000000041
785,19,0.5,1.0,-35.0,-1,1.0,0.34680100000014136
786,19,0.5,1.0,35.0,1,1.0,4.6291009999999915
787,19,0.5,1.0,-35.0,-1,1.0,1.136801000000105
788,19,0.5,0.125,35.0,1,1.0,15.055801000000429
789,19,0.5,1.0,35.0,1,1.0,0.267301000000316
790,19,0.5,0.25,35.0,-1,0.0,11.779801000000134
791,19,0.5,0.125,-35.0,1,0.0,0.15750100000013845
792,19,0.5,0.125,35.0,1,1.0,1.7134009999999762
793,19,0.5,1.0,35.0,1,1.0,0.23460000000022774
794,19,0.5,1.0,35.0,1,1.0,0.38360099999999875
795,19,0.5,1.0,-35.0,-1,1.0,8.614700999999968
796,19,0.5,0.0,-35.0,1,0.0,14.443800999999894
797,19,0.5,0.125,35.0,1,1.0,6.908700999999837
798,19,0.5,0.25,35.0,1,1.0,0.25100099999963277
799,19,0.5,0.125,35.0,1,1.0,2.432300999999825
800,19,0.5,1.0,35.0,1,1.0,0.36110099999996237
801,19,0.5,0.25,-35.0,-1,1.0,4.32220099999995
802,19,0.5,0.0,35.0,-1,0.0,19.957900999999765
803,19,0.5,0.0,-35.0,-1,1.0,3.8629009999999653
804,19,0.5,0.25,-35.0,-1,1.0,0.2554009999998925
805,19,0.5,0.25,35.0,1,1.0,0.28620100000034654
806,19,0.5,0.125,35.0,-1,0.0,2.5419010000000526
807,19,0.5,0.125,35.0,-1,0.0,0.566700999999739
808,19,0.5,0.0,-35.0,1,0.0,9.572101000000202
809,19,0.5,0.125,-35.0,-1,1.0,4.686800999999832
810,19,0.5,1.0,35.0,1,1.0,0.4227009999999609
811,19,0.5,0.0,-35.0,-1,1.0,11.220600999999988
812,19,0.5,0.25,-35.0,-1,1.0,6.203000999999858
813,19,0.5,0.25,35.0,1,1.0,6.354401000000507
814,19,0.5,1.0,35.0,1,1.0,0.21980100000018865
815,19,0.5,0.25,35.0,1,1.0,5.521301000000221
816,19,0.5,0.0625,35.0,-1,0.0,22.08360100000027
817,19,0.5,0.0625,35.0,1,1.0,16.098301000000447
818,19,0.5,1.0,-35.0,-1,1.0,3.44090099999994
819,19,0.5,0.0625,35.0,1,1.0,1.5591010000002825
820,19,0.5,0.125,35.0,-1,0.0,0.8246009999998023
821,19,0.5,0.125,-35.0,-1,1.0,19.122301000000334
822,19,0.5,1.0,-35.0,-1,1.0,0.37490100000013626
823,19,0.5,0.25,-35.0,-1,1.0,0.26630100000011225
824,19,0.5,0.125,35.0,-1,0.0,13.555100999999922
825,19,0.5,0.0625,35.0,1,1.0,0.580000999999811
826,19,0.5,0.0625,-35.0,-1,1.0,8.918600999999853
827,19,0.5,0.25,-35.0,-1,1.0,5.3702009999997244
828,19,0.5,0.0,35.0,1,1.0,13.209301000000323
829,19,0.5,0.125,-35.0,1,0.0,17.700901000000158
830,19,0.5,0.125,-35.0,-1,1.0,0.3030010000002221
831,19,0.5,0.0,35.0,-1,0.0,11.194600999999693
832,19,0.3,0.0,35.0,1,1.0,5.800100999999813
833,19,0.5,1.0,35.0,1,1.0,0.37490100000013626
834,19,0.5,0.125,35.0,-1,0.0,0.27050099999996746
835,19,0.5,0.0,35.0,1,1.0,14.218201000000136
836,19,0.5,0.25,35.0,1,1.0,2.420701000000008
837,19,0.5,0.25,35.0,1,1.0,3.408900999999787
838,19,0.5,0.125,35.0,1,1.0,4.897601000000577
839,19,0.5,1.0,35.0,1,1.0,0.3689009999998234
840,19,0.5,1.0,-35.0,-1,1.0,2.194601000000148
1,20,0.5,0.125,35.0,1,1.0,0.1905000000000001
2,20,0.5,1.0,-35.0,-1,1.0,0.3150000000000004
3,20,0.5,0.125,35.0,1,1.0,0.18990000000000062
4,20,0.5,1.0,-35.0,-1,1.0,0.36109999999999864
5,20,0.5,0.125,35.0,1,1.0,0.17759999999999998
6,20,0.5,0.25,-35.0,-1,1.0,0.24980000000000047
7,20,0.5,0.0625,-35.0,-1,1.0,0.2713000000000001
8,20,0.5,0.0625,-35.0,1,0.0,0.31599999999999895
9,20,0.5,0.125,35.0,1,1.0,0.23910000000000053
10,20,0.5,0.0625,-35.0,1,0.0,0.2254999999999967
11,20,0.6,0.0625,35.0,-1,0.0,0.24699999999999278
12,20,0.5,1.0,35.0,1,1.0,0.24139999999999873
13,20,0.5,1.0,-35.0,-1,1.0,0.2715999999999923
14,20,0.5,0.25,35.0,1,1.0,0.20179999999999865
15,20,0.5,0.125,35.0,1,1.0,0.14789999999999281
16,20,0.5,0.0,-35.0,1,0.0,0.12059999999999604
17,20,0.5,0.0625,-35.0,-1,1.0,0.25489999999999924
18,20,0.5,0.125,35.0,-1,0.0,0.5296999999999983
19,20,0.6,0.125,35.0,1,1.0,0.267399999999995
20,20,0.5,1.0,-35.0,-1,1.0,0.24969999999999004
21,20,0.5,0.125,35.0,-1,0.0,0.269999999999996
22,20,0.5,0.125,35.0,1,1.0,0.2441999999999922
23,20,0.5,0.0,35.0,-1,0.0,0.24790000000000134
24,20,0.5,0.0,35.0,1,1.0,0.2822999999999922
25,20,0.5,1.0,-35.0,-1,1.0,0.23679999999998813
26,20,0.5,1.0,-35.0,-1,1.0,0.24280000000000257
27,20,0.5,1.0,-35.0,-1,1.0,0.23319999999999652
28,20,0.5,0.25,-35.0,-1,1.0,0.23649999999999238
29,20,0.5,0.0625,-35.0,-1,1.0,0.24349999999999739
30,20,0.5,1.0,-35.0,-1,1.0,0.22730000000001382
31,20,0.5,0.125,35.0,1,1.0,0.39050000000000296
32,20,0.5,0.0625,35.0,1,1.0,0.4183000000000021
33,20,0.5,0.25,-35.0,-1,1.0,0.25440000000000396
34,20,0.5,0.125,-35.0,-1,1.0,0.25560000000000116
35,20,0.5,1.0,-35.0,-1,1.0,0.14100000000000534
36,20,0.5,0.125,-35.0,-1,1.0,0.21630000000001814
37,20,0.5,1.0,-35.0,-1,1.0,0.21880000000001587
38,20,0.5,0.125,35.0,-1,0.0,0.3359000000000094
39,20,0.5,0.125,35.0,1,1.0,0.2787999999999897
40,20,0.5,0.25,-35.0,-1,1.0,0.2744000000000142
41,20,0.5,1.0,-35.0,-1,1.0,0.26530000000002474
42,20,0.5,0.25,-35.0,1,0.0,0.5942000000000291
43,20,0.5,0.125,35.0,1,1.0,0.3088999999999942
44,20,0.5,0.125,-35.0,1,0.0,0.37350000000000705
45,20,0.5,0.0625,35.0,1,1.0,0.41440000000002897
46,20,0.5,1.0,35.0,1,1.0,0.2565000000000168
47,20,0.5,0.25,35.0,1,1.0,0.3369000000000142
48,20,0.5,0.125,-35.0,-1,1.0,0.25770000000002824
49,20,0.5,0.25,-35.0,-1,1.0,0.2464000000000226
50,20,0.5,0.125,-35.0,-1,1.0,0.27530000000001564
51,20,0.5,1.0,35.0,1,1.0,0.19939999999999714
52,20,0.5,0.125,-35.0,1,0.0,0.5788000000000011
53,20,0.5,0.25,35.0,1,1.0,0.23850000000001614
54,20,0.5,0.25,35.0,1,1.0,0.30760000000000787
55,20,0.5,0.125,-35.0,-1,1.0,0.3006000000000313
56,20,0.5,0.0625,-35.0,1,0.0,0.12250000000000227
57,20,0.5,0.25,-35.0,-1,1.0,0.2177000000000362
58,20,0.5,0.125,35.0,1,1.0,0.23679999999998813
59,20,0.5,0.0625,-35.0,1,0.0,0.10850000000002069
60,20,0.5,0.25,-35.0,-1,1.0,0.24790000000001555
61,20,0.5,0.125,-35.0,-1,1.0,0.27240000000003306
62,20,0.5,0.0625,35.0,1,1.0,0.30800000000002115
63,20,0.5,0.0625,-35.0,-1,1.0,0.25509999999999877
64,20,0.5,0.0,35.0,1,1.0,0.216700000000003
65,20,0.5,0.25,-35.0,1,0.0,0.4848000000000354
66,20,0.6,0.25,-35.0,-1,1.0,0.2372000000000014
67,20,0.5,1.0,-35.0,-1,1.0,0.23190000000002442
68,20,0.5,1.0,35.0,1,1.0,0.24690000000001078
69,20,0.5,0.25,-35.0,-1,1.0,0.23740000000000805
70,20,0.5,1.0,-35.0,-1,1.0,0.3432000000000244
71,20,0.5,1.0,35.0,1,1.0,0.2506000000000199
72,20,0.5,0.0,-35.0,1,0.0,3.9196000000000026
73,20,0.5,0.125,35.0,1,1.0,0.3067999999999529
74,20,0.5,0.0,35.0,1,1.0,0.30630000000002156
75,20,0.5,0.0625,-35.0,-1,1.0,0.28489999999999327
76,20,0.5,0.25,-35.0,-1,1.0,0.27300000000002456
77,20,0.5,0.125,-35.0,-1,1.0,0.297300000000007
78,20,0.5,0.25,-35.0,-1,1.0,0.30140000000005784
79,20,0.5,1.0,35.0,1,1.0,0.6420000000000528
80,20,0.5,0.125,-35.0,-1,1.0,0.218400000000031
81,20,0.5,0.0625,-35.0,1,0.0,0.37740000000002283
82,20,0.5,0.0625,-35.0,-1,1.0,0.2554000000000656
83,20,0.5,1.0,-35.0,-1,1.0,0.20390000000003283
84,20,0.5,0.125,35.0,-1,0.0,0.25579999999996517
85,20,0.5,0.25,35.0,1,1.0,0.3251000000000204
86,20,0.5,1.0,-35.0,-1,1.0,0.2499000000000251
87,20,0.5,0.0625,-35.0,1,0.0,1.6048000000000116
88,20,0.5,0.125,35.0,1,1.0,0.3127000000000635
89,20,0.5,0.0625,35.0,1,1.0,0.3181000000000722
90,20,0.5,1.0,35.0,1,1.0,0.22440000000005966
91,20,0.5,0.25,35.0,1,1.0,0.36379999999996926
92,20,0.5,0.125,-35.0,1,0.0,0.21219999999999573
93,20,0.5,0.0625,-35.0,1,0.0,0.2684990000000198
94,20,0.8,0.0625,35.0,1,1.0,0.30500000000006366
95,20,0.5,1.0,-35.0,-1,1.0,0.2606000000000108
96,20,0.5,1.0,35.0,1,1.0,0.22879999999997835
97,20,0.5,1.0,35.0,1,1.0,0.2534999999999741
98,20,0.5,1.0,-35.0,-1,1.0,0.26630000000005793
99,20,0.5,0.0625,-35.0,-1,1.0,0.21970000000004575
100,20,0.5,0.0625,35.0,1,1.0,0.39160000000003947
101,20,0.5,0.0625,-35.0,1,0.0,0.6675999999999931
102,20,0.5,0.0,-35.0,1,0.0,0.3009000000000128
103,20,0.5,0.25,-35.0,-1,1.0,0.3728999999999587
104,20,0.5,0.0625,35.0,1,1.0,3.9968000000000075
105,20,0.5,0.125,-35.0,1,0.0,3.2702000000000453
106,20,0.7,0.125,-35.0,-1,1.0,0.47219999999998663
107,20,0.5,1.0,-35.0,-1,1.0,0.2360999999999649
108,20,0.5,0.125,35.0,1,1.0,0.2505999999999631
109,20,0.5,0.25,-35.0,1,0.0,0.21919999999994388
110,20,0.5,0.0625,35.0,-1,0.0,0.48210000000000264
111,20,0.6,0.0625,-35.0,1,0.0,0.2620990000000347
112,20,0.5,1.0,-35.0,-1,1.0,0.29620000000005575
113,20,0.5,0.25,35.0,1,1.0,0.21999999999997044
114,20,0.5,0.0,35.0,1,1.0,0.3820999999999799
115,20,0.5,0.0,35.0,1,1.0,0.39969899999999825
116,20,0.5,0.125,35.0,1,1.0,0.352800000000002
117,20,0.5,0.0,35.0,1,1.0,0.3099000000000274
118,20,0.5,1.0,-35.0,-1,1.0,0.3229999999999791
119,20,0.5,0.25,35.0,1,1.0,0.3407999999999447
120,20,0.5,0.0625,35.0,1,1.0,0.2537999999999556
121,20,0.5,0.0625,35.0,1,1.0,0.3709999999999809
122,20,0.5,1.0,35.0,1,1.0,0.16840000000001965
123,20,0.5,0.0,35.0,1,1.0,0.323599999999999
124,20,0.5,0.125,-35.0,-1,1.0,0.6418999999999642
125,20,0.5,1.0,-35.0,-1,1.0,0.2547999999999888
126,20,0.5,0.125,35.0,1,1.0,0.2937000000000012
127,20,0.5,0.25,35.0,1,1.0,0.2898000000000138
128,20,0.5,1.0,-35.0,-1,1.0,0.2774000000000001
129,20,0.5,0.0625,35.0,1,1.0,0.2866000000000213
130,20,0.5,0.25,35.0,1,1.0,0.3018999999999892
131,20,0.5,0.25,35.0,1,1.0,0.1804000000000201
132,20,0.5,0.25,35.0,1,1.0,0.35210000000006403
133,20,0.5,0.0625,35.0,1,1.0,0.150100000000009
134,20,0.5,0.25,-35.0,-1,1.0,0.29980000000000473
135,20,0.5,1.0,35.0,1,1.0,0.18790000000001328
136,20,0.5,1.0,-35.0,-1,1.0,0.2300000000000182
137,20,0.5,0.0,-35.0,1,0.0,0.39009999999996126
138,20,0.7,0.0,-35.0,-1,1.0,0.30040000000002465
139,20,0.5,1.0,-35.0,-1,1.0,0.22100000000000364
140,20,0.5,0.0625,-35.0,-1,1.0,0.2626000000000204
141,20,0.5,0.125,-35.0,-1,1.0,0.257000000000005
142,20,0.5,0.25,35.0,1,1.0,0.33049999999997226
143,20,0.5,1.0,35.0,1,1.0,0.37599999999997635
144,20,0.5,0.0,-35.0,1,0.0,2.6837000000000444
145,20,0.5,0.125,35.0,1,1.0,0.30560000000002674
146,20,0.5,0.0,35.0,-1,0.0,0.6671999999999798
147,20,0.5,0.0625,35.0,1,1.0,0.3350000000000364
148,20,0.5,0.25,35.0,1,1.0,0.21380000000010568
149,20,0.5,1.0,35.0,1,1.0,0.2692989999999327
150,20,0.5,0.25,-35.0,-1,1.0,0.48329999999998563
151,20,0.5,1.0,-35.0,-1,1.0,0.2462999999999056
152,20,0.5,0.0625,-35.0,1,0.0,0.30529999999998836
153,20,0.5,0.125,-35.0,-1,1.0,0.25889999999992597
154,20,0.5,0.0625,35.0,-1,0.0,0.2195000000000391
155,20,0.5,0.0625,-35.0,-1,1.0,0.43889999999998963
156,20,0.5,0.0,-35.0,-1,1.0,1.7028999999999996
157,20,0.5,1.0,35.0,1,1.0,0.32169999999996435
158,20,0.5,0.0625,-35.0,1,0.0,0.3507000000000744
159,20,0.5,0.0625,-35.0,-1,1.0,0.8430999999999358
160,20,0.5,0.25,35.0,1,1.0,0.2758000000001175
161,20,0.5,0.125,-35.0,1,0.0,0.25720000000001164
162,20,0.5,0.125,-35.0,-1,1.0,0.2198000000000775
163,20,0.5,1.0,35.0,1,1.0,0.2699999999999818
164,20,0.5,0.25,35.0,1,1.0,0.27049999999997
165,20,0.5,0.25,-35.0,-1,1.0,0.32150000000001455
166,20,0.5,0.0,-35.0,-1,1.0,0.2376000000000431
167,20,0.5,0.25,-35.0,-1,1.0,0.22629999999992378
168,20,0.5,0.25,-35.0,-1,1.0,0.219600000000014
169,20,0.5,0.0625,35.0,-1,0.0,0.24969999999996162
170,20,0.5,0.0625,-35.0,1,0.0,6.302699999999959
171,20,0.5,0.0,35.0,-1,0.0,0.3000000000000682
172,20,0.5,0.125,-35.0,1,0.0,0.3062999999999647
173,20,0.5,0.125,-35.0,-1,1.0,0.25149999999996453
174,20,0.5,0.125,-35.0,1,0.0,0.3124000000000251
175,20,0.5,0.25,-35.0,-1,1.0,0.31720000000007076
176,20,0.5,0.0625,-35.0,-1,1.0,0.33969999999999345
177,20,0.5,0.125,-35.0,-1,1.0,0.27739999999994325
178,20,0.5,1.0,35.0,1,1.0,0.2644999999999982
179,20,0.5,0.125,35.0,-1,0.0,0.3935999999999922
180,20,0.5,0.0,-35.0,1,0.0,0.2866999999999962
181,20,0.4,0.0,35.0,1,1.0,0.27500000000009095
182,20,0.5,1.0,35.0,1,1.0,0.2516000000000531
183,20,0.5,0.0625,35.0,1,1.0,0.3629000000000815
184,20,0.5,0.0,-35.0,1,0.0,0.34199999999998454
185,20,0.5,0.125,-35.0,-1,1.0,0.3532000000000153
186,20,0.5,0.0625,35.0,1,1.0,0.255800000000022
187,20,0.5,0.125,-35.0,-1,1.0,0.33330000000000837
188,20,0.5,0.0625,35.0,1,1.0,0.5128999999999451
189,20,0.5,0.25,-35.0,-1,1.0,0.2927999999999429
190,20,0.5,0.25,35.0,1,1.0,0.2826999999999771
191,20,0.5,0.25,-35.0,-1,1.0,0.21410000000003038
192,20,0.5,0.0625,35.0,1,1.0,0.4857999999999265
193,20,0.5,1.0,35.0,1,1.0,0.26060000000006767
194,20,0.5,0.125,35.0,1,1.0,0.5926999999999225
195,20,0.5,1.0,35.0,1,1.0,0.205600000000004
196,20,0.5,1.0,-35.0,-1,1.0,0.600800000000163
197,20,0.5,1.0,-35.0,-1,1.0,0.310100000000034
198,20,0.5,0.0625,-35.0,1,0.0,0.19690000000014152
199,20,0.5,0.0625,-35.0,-1,1.0,0.2768989999999576
200,20,0.5,0.25,-35.0,1,0.0,0.15570000000002437
201,20,0.5,0.125,-35.0,-1,1.0,0.22950000000003
202,20,0.5,0.25,35.0,-1,0.0,0.2583000000000766
203,20,0.5,0.25,-35.0,-1,1.0,0.31780000000003383
204,20,0.5,1.0,-35.0,-1,1.0,0.25950000000000273
205,20,0.5,0.0625,-35.0,1,0.0,0.2740000000000009
206,20,0.5,0.0625,-35.0,-1,1.0,0.2494000000001506
207,20,0.5,1.0,35.0,1,1.0,0.248299999999972
208,20,0.5,0.125,35.0,1,1.0,0.2844000000000051
209,20,0.5,1.0,-35.0,-1,1.0,0.2998999999999796
210,20,0.5,0.0625,-35.0,-1,1.0,0.30500000000006366
211,20,0.5,0.25,35.0,1,1.0,0.30340000000001055
212,20,0.5,1.0,35.0,1,1.0,0.2718999999999596
213,20,0.5,0.0,-35.0,1,0.0,0.1854999999999336
214,20,0.6,0.0,-35.0,-1,1.0,0.2563999999999851
215,20,0.5,1.0,-35.0,-1,1.0,0.2055000000000291
216,20,0.5,0.25,35.0,1,1.0,0.2725000000000364
217,20,0.5,1.0,-35.0,-1,1.0,0.2682999999999538
218,20,0.5,0.25,-35.0,-1,1.0,0.2603000000000293
219,20,0.5,0.25,35.0,1,1.0,0.2740000000000009
220,20,0.5,0.125,35.0,1,1.0,0.16629999999997835
221,20,0.5,0.25,35.0,1,1.0,0.36950000000001637
222,20,0.5,0.25,-35.0,-1,1.0,0.31429900000000544
223,20,0.5,0.0,35.0,-1,0.0,0.22519999999997253
224,20,0.5,0.25,35.0,-1,0.0,0.2504999999999882
225,20,0.5,0.125,-35.0,1,0.0,0.5863999999999123
226,20,0.5,0.0625,-35.0,1,0.0,0.39030000000002474
227,20,0.5,0.0,35.0,1,1.0,0.2965000000000373
228,20,0.5,0.0625,-35.0,-1,1.0,0.2663000000000011
229,20,0.5,0.25,-35.0,-1,1.0,0.3141000000000531
230,20,0.5,0.125,35.0,1,1.0,0.29900000000009186
231,20,0.5,0.0625,35.0,1,1.0,0.436800000000062
232,20,0.5,1.0,35.0,1,1.0,0.24450000000001637
233,20,0.5,0.125,-35.0,-1,1.0,0.3063000000000784
234,20,0.5,0.0625,35.0,1,1.0,0.3586999999999989
235,20,0.5,0.25,-35.0,-1,1.0,0.3129000000000133
236,20,0.5,0.0625,35.0,1,1.0,0.2159000000000333
237,20,0.5,0.25,-35.0,-1,1.0,0.2638999999999214
238,20,0.5,0.125,35.0,1,1.0,0.18099999999992633
239,20,0.5,0.0,-35.0,-1,1.0,0.2843990000001213
240,20,0.5,1.0,35.0,1,1.0,0.25329999999996744
241,20,0.5,0.125,-35.0,1,0.0,0.23079999999993106
242,20,0.5,0.125,35.0,1,1.0,0.22419999999999618
243,20,0.5,0.125,35.0,1,1.0,0.24220000000002528
244,20,0.5,0.0625,35.0,1,1.0,0.1835999999999558
245,20,0.5,0.0625,-35.0,-1,1.0,0.44229999999993197
246,20,0.5,1.0,35.0,1,1.0,0.20249999999998636
247,20,0.5,0.125,35.0,1,1.0,0.27300000000002456
248,20,0.5,0.0625,-35.0,-1,1.0,0.2699000000000069
249,20,0.5,1.0,35.0,1,1.0,0.2194000000000642
250,20,0.5,1.0,-35.0,-1,1.0,0.1812999999999647
251,20,0.5,0.25,35.0,1,1.0,0.2156999999999698
252,20,0.5,0.125,35.0,1,1.0,0.14049999999997453
253,20,0.5,1.0,-35.0,-1,1.0,0.10320000000012897
254,20,0.5,1.0,35.0,1,1.0,0.2477999999999838
255,20,0.5,0.25,35.0,-1,0.0,0.1268999999999778
256,20,0.5,0.25,-35.0,1,0.0,0.11410000000000764
257,20,0.6,0.25,-35.0,-1,1.0,0.2642999999999347
258,20,0.5,1.0,-35.0,-1,1.0,0.6494000000000142
259,20,0.5,0.125,-35.0,-1,1.0,0.24529999999992924
260,20,0.5,0.25,-35.0,-1,1.0,0.2802000000000362
261,20,0.5,0.125,-35.0,-1,1.0,0.23410000000012587
262,20,0.5,0.25,-35.0,-1,1.0,0.2455000000001064
263,20,0.5,1.0,-35.0,-1,1.0,0.266399999999976
264,20,0.5,1.0,35.0,1,1.0,0.27759900000000926
265,20,0.5,0.25,35.0,1,1.0,0.30319999999994707
266,20,0.5,0.0,35.0,1,1.0,0.30750000000000455
267,20,0.5,0.125,-35.0,1,0.0,0.1753999999999678
268,20,0.4,0.125,-35.0,1,0.0,0.25660000000004857
269,20,0.5,1.0,35.0,1,1.0,0.31730000000004566
270,20,0.5,0.25,-35.0,-1,1.0,0.253400000000056
271,20,0.5,0.0625,-35.0,1,0.0,0.19100000000003092
272,20,0.7,0.0625,35.0,-1,0.0,0.23419999999998709
273,20,0.5,1.0,-35.0,-1,1.0,0.2718999999999596
274,20,0.5,0.125,-35.0,1,0.0,0.3170999999999822
275,20,0.5,0.25,35.0,1,1.0,0.2277000000000271
276,20,0.5,0.125,35.0,1,1.0,0.2658999999999878
277,20,0.5,0.125,35.0,1,1.0,0.26670000000001437
278,20,0.5,1.0,-35.0,-1,1.0,0.37599999999997635
279,20,0.5,0.125,-35.0,-1,1.0,0.290300000000002
280,20,0.5,0.25,-35.0,-1,1.0,0.23289899999997488
281,20,0.5,0.25,35.0,1,1.0,0.26689999999996417
282,20,0.5,0.125,-35.0,-1,1.0,0.27299999999991087
283,20,0.5,0.125,-35.0,-1,1.0,0.25369999999975335
284,20,0.5,1.0,35.0,1,1.0,0.2929999999998927
285,20,0.5,0.125,-35.0,-1,1.0,0.39039999999999964
286,20,0.5,0.0625,-35.0,1,0.0,0.21659999999997126
287,20,0.4,0.0625,35.0,1,1.0,0.2706999999998061
288,20,0.5,1.0,35.0,1,1.0,0.28009999999972024
289,20,0.5,0.0,35.0,1,1.0,0.3607999999999265
290,20,0.5,0.0625,35.0,1,1.0,0.3236999999996897
291,20,0.5,1.0,-35.0,-1,1.0,0.23119999999971697
292,20,0.5,0.25,35.0,1,1.0,0.3269999999997708
293,20,0.5,1.0,35.0,1,1.0,0.19449999999983447
294,20,0.5,0.0625,-35.0,-1,1.0,0.21719999999982065
295,20,0.5,1.0,35.0,1,1.0,0.21159999999986212
296,20,0.5,0.125,35.0,-1,0.0,0.25719999999978427
297,20,0.5,0.125,35.0,1,1.0,0.17799999999988358
298,20,0.5,0.25,35.0,1,1.0,0.2706999999998061
299,20,0.5,0.0,-35.0,-1,1.0,0.2950999999998203
300,20,0.5,0.125,35.0,1,1.0,0.13409999999976208
301,20,0.5,0.0625,35.0,-1,0.0,0.28149899999993977
302,20,0.5,0.0,-35.0,1,0.0,0.33429999999975735
303,20,0.5,0.25,-35.0,-1,1.0,0.23869999999988067
304,20,0.5,0.25,35.0,1,1.0,0.3010999999999058
305,20,0.5,0.25,35.0,1,1.0,0.2518999999999778
306,20,0.5,0.0625,-35.0,1,0.0,0.2647999999996955
307,20,0.5,0.0,35.0,1,1.0,0.32199999999988904
308,20,0.5,1.0,35.0,1,1.0,0.26530000000002474
309,20,0.5,0.125,-35.0,-1,1.0,0.41219999999998436
310,20,0.5,1.0,35.0,1,1.0,0.26179999999976644
311,20,0.5,0.0625,35.0,1,1.0,0.26569999999992433
312,20,0.5,0.0625,-35.0,-1,1.0,0.3384000000000924
313,20,0.5,1.0,35.0,1,1.0,0.22939999999994143
314,20,0.5,1.0,35.0,1,1.0,0.2717000000000098
315,20,0.5,0.0,-35.0,1,0.0,0.2695000000001073
316,20,0.5,0.0,-35.0,-1,1.0,0.2686999999998534
317,20,0.5,1.0,-35.0,-1,1.0,0.24949999999989814
318,20,0.5,0.0,-35.0,-1,1.0,0.3987999999999374
319,20,0.5,0.0625,-35.0,-1,1.0,0.30969999999979336
320,20,0.5,0.25,-35.0,-1,1.0,0.23880000000008295
321,20,0.5,0.125,-35.0,-1,1.0,0.2464999999997417
322,20,0.5,0.25,-35.0,-1,1.0,0.3056000000001404
323,20,0.5,0.25,35.0,1,1.0,0.33019999999987704
324,20,0.5,0.0,35.0,-1,0.0,0.2689999999997781
325,20,0.5,0.25,35.0,1,1.0,0.3065999999998894
326,20,0.5,1.0,-35.0,-1,1.0,0.2726999999999862
327,20,0.5,0.25,-35.0,-1,1.0,0.36009999999987485
328,20,0.5,0.125,35.0,1,1.0,0.262599999999793
329,20,0.5,0.25,-35.0,-1,1.0,0.30349999999998545
330,20,0.5,0.125,35.0,1,1.0,0.3428000000001248
331,20,0.5,1.0,35.0,1,1.0,0.23359999999979664
332,20,0.5,1.0,-35.0,-1,1.0,0.26969999999960237
333,20,0.5,1.0,35.0,1,1.0,0.20039999999994507
334,20,0.5,0.25,35.0,-1,0.0,0.276299999999992
335,20,0.5,0.0625,-35.0,1,0.0,0.3472999999999047
336,20,0.5,0.0625,-35.0,-1,1.0,0.4363999999998214
337,20,0.5,0.0625,-35.0,-1,1.0,0.2739999999998872
338,20,0.5,0.0625,35.0,-1,0.0,0.26310000000012224
339,20,0.5,0.25,-35.0,-1,1.0,0.3773999999998523
340,20,0.5,0.125,-35.0,-1,1.0,0.27319999999986067
341,20,0.5,0.0625,-35.0,1,0.0,0.21440000000006876
342,20,0.5,0.0625,-35.0,1,0.0,0.27680000000009386
343,20,0.5,0.0625,35.0,1,1.0,0.2877000000000862
344,20,0.5,0.25,35.0,1,1.0,0.2603999999998905
345,20,0.5,0.125,-35.0,-1,1.0,0.22129999999992833
346,20,0.5,0.125,35.0,1,1.0,0.2804999999998472
347,20,0.5,1.0,35.0,1,1.0,0.287900000000036
348,20,0.5,0.0625,35.0,1,1.0,0.1538999999997941
349,20,0.5,0.125,35.0,1,1.0,0.28150000000005093
350,20,0.5,0.25,-35.0,-1,1.0,0.36409999999978027
351,20,0.5,0.125,-35.0,-1,1.0,0.2518000000000029
352,20,0.5,0.125,35.0,1,1.0,0.2806000000000495
353,20,0.5,0.25,-35.0,-1,1.0,0.29160000000001673
354,20,0.5,0.0,35.0,-1,0.0,0.29520000000002256
355,20,0.5,0.25,35.0,1,1.0,0.23859999999990578
356,20,0.5,0.0625,-35.0,1,0.0,0.2641999999998461
357,20,0.5,0.25,35.0,1,1.0,0.231899999999996
358,20,0.5,0.0625,35.0,1,1.0,0.20459999999980027
359,20,0.5,0.25,35.0,1,1.0,0.20869999999990796
360,20,0.5,0.25,-35.0,-1,1.0,0.38809999999989486
361,20,0.5,0.0,-35.0,-1,1.0,0.29909999999995307
362,20,0.5,1.0,-35.0,-1,1.0,0.2981999999999516
363,20,0.5,0.25,35.0,1,1.0,0.23889999999983047
364,20,0.5,1.0,35.0,1,1.0,0.22839999999996508
365,20,0.5,0.25,35.0,-1,0.0,0.13229999999975917
366,20,0.6,0.25,-35.0,-1,1.0,0.41849999999976717
367,20,0.5,1.0,-35.0,-1,1.0,0.2725999999997839
368,20,0.5,1.0,35.0,1,1.0,0.22859999999991487
369,20,0.5,0.0,35.0,-1,0.0,0.3228999999998905
370,20,0.5,0.25,-35.0,-1,1.0,0.231899999999996
371,20,0.5,0.25,-35.0,-1,1.0,0.252699999999777
372,20,0.5,0.25,-35.0,-1,1.0,0.2787999999998192
373,20,0.5,0.125,-35.0,-1,1.0,0.29969999999980246
374,20,0.5,0.125,35.0,1,1.0,0.29899999999997817
375,20,0.5,0.125,35.0,1,1.0,0.27969999999982065
376,20,0.5,1.0,35.0,1,1.0,0.26569999999969696
377,20,0.5,1.0,35.0,1,1.0,0.2264999999997599
378,20,0.5,1.0,-35.0,-1,1.0,0.259199999999737
379,20,0.5,1.0,-35.0,-1,1.0,0.20329999999989923
380,20,0.5,1.0,35.0,1,1.0,0.28929999999991196
381,20,0.5,0.25,-35.0,-1,1.0,0.25359999999977845
382,20,0.5,0.25,-35.0,-1,1.0,0.22279999999977917
383,20,0.5,0.125,-35.0,-1,1.0,0.23719999999980246
384,20,0.5,1.0,35.0,1,1.0,0.22949999999968895
385,20,0.5,0.125,-35.0,-1,1.0,0.30719999999996617
386,20,0.5,0.0625,-35.0,1,0.0,0.3629000000000815
387,20,0.5,0.0625,35.0,1,1.0,0.35059999999975844
388,20,0.5,0.125,-35.0,-1,1.0,0.4898999999998068
389,20,0.5,1.0,35.0,1,1.0,0.15059999999994034
390,20,0.5,1.0,35.0,1,1.0,0.2098999999998341
391,20,0.5,0.0625,-35.0,-1,1.0,0.18079999999986285
392,20,0.5,0.25,-35.0,-1,1.0,0.31340000000000146
393,20,0.5,1.0,-35.0,-1,1.0,0.24099999999998545
394,20,0.5,0.0625,35.0,-1,0.0,0.32009999999991123
395,20,0.5,0.125,35.0,1,1.0,0.23789999999985412
396,20,0.5,0.0625,35.0,1,1.0,0.20689999999990505
397,20,0.5,0.25,35.0,1,1.0,0.10809999999992215
398,20,0.5,0.125,-35.0,-1,1.0,0.3305000000000291
399,20,0.5,0.125,-35.0,-1,1.0,0.6082999999998719
400,20,0.5,1.0,-35.0,-1,1.0,0.2741000000000895
401,20,0.5,0.125,35.0,1,1.0,0.32809999999994943
402,20,0.5,0.0,35.0,-1,0.0,0.30399999999985994
403,20,0.5,0.0625,-35.0,1,0.0,0.39820000000008804
404,20,0.5,0.0,35.0,1,1.0,2.0074999999999363
405,20,0.5,0.125,35.0,1,1.0,0.27520000000004075
406,20,0.5,0.125,-35.0,-1,1.0,0.6376000000000204
407,20,0.5,0.0625,-35.0,-1,1.0,0.3688999999999396
408,20,0.5,1.0,-35.0,-1,1.0,0.3446999999998752
409,20,0.5,0.0625,-35.0,-1,1.0,1.1587999999999283
410,20,0.5,0.25,-35.0,-1,1.0,0.24139999999988504
411,20,0.5,0.0625,-35.0,-1,1.0,0.2420999999999367
412,20,0.5,0.0,-35.0,-1,1.0,0.3613999999997759
413,20,0.5,0.25,35.0,1,1.0,0.25890000000003965
414,20,0.5,1.0,35.0,1,1.0,0.2885999999998603
415,20,0.5,0.0,-35.0,1,0.0,0.35930000000007567
416,20,0.5,0.0,-35.0,-1,1.0,0.6983999999999924
417,20,0.5,0.125,35.0,1,1.0,0.25929999999993925
418,20,0.5,1.0,35.0,1,1.0,0.2518999999999778
419,20,0.5,0.0,35.0,-1,0.0,0.2259999999998854
420,20,0.5,0.25,-35.0,-1,1.0,0.36859999999978754
421,20,0.5,0.125,-35.0,-1,1.0,0.629399999999805
422,20,0.5,0.25,-35.0,-1,1.0,0.24529999999981555
423,20,0.5,1.0,-35.0,-1,1.0,0.25309999999990396
424,20,0.5,0.25,-35.0,-1,1.0,0.24199999999973443
425,20,0.5,0.125,35.0,1,1.0,0.30989999999974316
426,20,0.5,1.0,-35.0,-1,1.0,0.22559999999975844
427,20,0.5,0.25,35.0,1,1.0,0.2665999999999258
428,20,0.5,0.125,-35.0,-1,1.0,0.2256999999999607
429,20,0.5,0.125,35.0,1,1.0,0.27320000000008804
430,20,0.5,0.0,-35.0,-1,1.0,0.5024999999998272
431,20,0.5,0.25,35.0,1,1.0,0.24339999999983775
432,20,0.5,0.0,35.0,-1,0.0,0.2625000000000455
433,20,0.4,0.0,-35.0,1,0.0,0.33019999999987704
434,20,0.5,1.0,35.0,1,1.0,0.22289999999998145
435,20,0.5,0.25,35.0,1,1.0,0.3304000000000542
436,20,0.5,0.125,-35.0,-1,1.0,0.2562999999997828
437,20,0.5,1.0,-35.0,-1,1.0,0.21710000000007312
438,20,0.5,0.125,-35.0,-1,1.0,0.1996999999998934
439,20,0.5,0.0625,35.0,1,1.0,0.7873999999999342
440,20,0.5,0.25,-35.0,-1,1.0,0.27729999999996835
441,20,0.5,0.125,-35.0,-1,1.0,0.20679999999993015
442,20,0.5,0.25,35.0,-1,0.0,0.26109999999994216
443,20,0.5,0.125,35.0,1,1.0,1.0368999999998323
444,20,0.5,0.25,35.0,1,1.0,0.2439999999999145
445,20,0.5,1.0,-35.0,-1,1.0,0.34009999999989304
446,20,0.5,0.0,-35.0,1,0.0,0.29109999999991487
447,20,0.5,0.0625,35.0,-1,0.0,0.24369999999976244
448,20,0.5,0.0625,35.0,1,1.0,0.28149999999982356
449,20,0.5,0.0625,35.0,1,1.0,0.2669999999998254
450,20,0.5,1.0,35.0,1,1.0,0.28119999999989886
