trial_num,session_num,stim_probability_left,contrast,position,response_choice,trial_correct,reaction_time
1,10,0.5,0.0625,35.0,-1,0.0,4.8946
2,10,0.5,0.125,35.0,-1,0.0,3.0773010000000003
3,10,0.8,0.125,-35.0,-1,1.0,0.7649009999999983
4,10,0.5,1.0,-35.0,-1,1.0,0.2830009999999987
5,10,0.5,0.25,35.0,-1,0.0,12.367801
6,10,0.5,0.25,35.0,-1,0.0,19.903900999999998
7,10,0.5,1.0,35.0,-1,0.0,16.231601000000005
8,10,0.5,0.125,35.0,-1,0.0,28.759400999999997
9,10,0.5,0.25,35.0,1,1.0,20.84400199999999
10,10,0.5,0.25,35.0,1,1.0,6.266702000000009
11,10,0.5,0.0,35.0,1,1.0,4.259001000000012
12,10,0.5,0.25,35.0,1,1.0,0.4396020000000078
13,10,0.5,0.0,35.0,1,1.0,0.9062020000000075
14,10,0.5,0.125,-35.0,1,0.0,0.10680200000001605
15,10,0.6,0.125,-35.0,1,0.0,0.7016019999999799
16,10,0.5,1.0,-35.0,-1,1.0,0.24960200000003852
17,10,0.5,0.125,-35.0,1,0.0,0.19630200000000286
18,10,0.8,0.125,-35.0,1,0.0,0.23940200000001255
19,10,0.5,1.0,-35.0,-1,1.0,0.38290100000000393
20,10,0.5,0.25,-35.0,1,0.0,7.743402000000003
21,10,0.5,0.125,-35.0,1,0.0,1.3462009999999793
22,10,0.5,0.125,-35.0,-1,1.0,0.4475020000000143
23,10,0.5,0.125,-35.0,-1,1.0,0.6426010000000133
24,10,0.5,0.0,-35.0,1,0.0,0.984802000000002
25,10,0.5,0.0625,-35.0,1,0.0,1.341401999999988
26,10,0.5,0.125,35.0,1,1.0,2.2615020000000072
27,10,0.5,0.0625,-35.0,1,0.0,2.108801999999997
28,10,0.5,0.125,-35.0,-1,1.0,0.5505020000000229
29,10,0.5,0.0625,35.0,1,1.0,1.1175020000000302
30,10,0.5,0.25,-35.0,-1,1.0,4.934901999999994
31,10,0.5,0.25,35.0,1,1.0,0.6534019999999998
32,10,0.5,0.0625,-35.0,-1,1.0,2.6281020000000126
33,10,0.5,0.0,35.0,-1,0.0,3.689501000000007
34,10,0.5,0.125,-35.0,1,0.0,0.1806020000000217
35,10,0.5,0.25,35.0,1,1.0,0.3129019999999514
36,10,0.5,0.0625,-35.0,-1,1.0,0.47960199999999986
37,10,0.5,0.0625,-35.0,1,0.0,3.857501999999954
38,10,0.5,0.0625,35.0,1,1.0,0.39400199999994356
39,10,0.5,0.0625,35.0,1,1.0,5.019001000000003
40,10,0.5,0.0,-35.0,1,0.0,2.987801999999931
41,10,0.5,0.25,35.0,1,1.0,0.40640200000001414
42,10,0.5,1.0,-35.0,-1,1.0,1.2423019999999951
43,10,0.5,1.0,35.0,1,1.0,0.2397009999999682
44,10,0.5,0.125,35.0,1,1.0,0.34820099999996046
45,10,0.5,0.25,-35.0,-1,1.0,0.4564009999999712
46,10,0.5,0.25,35.0,1,1.0,2.5258009999999445
47,10,0.5,0.0,-35.0,-1,1.0,2.8687009999999304
48,10,0.5,0.125,35.0,1,1.0,0.7759019999999737
49,10,0.5,1.0,-35.0,-1,1.0,0.4373019999999883
50,10,0.5,0.25,35.0,1,1.0,2.1564019999999573
51,10,0.5,0.125,35.0,1,1.0,1.407500999999968
52,10,0.5,0.0625,-35.0,1,0.0,1.1818020000000047
53,10,0.5,0.125,-35.0,-1,1.0,0.2229019999999764
54,10,0.5,0.125,-35.0,-1,1.0,0.5297019999999861
55,10,0.5,0.125,35.0,1,1.0,1.2833009999999945
56,10,0.5,0.25,35.0,1,1.0,0.32570199999992155
57,10,0.5,0.0,35.0,-1,0.0,1.3627019999999561
58,10,0.5,0.0625,35.0,-1,0.0,0.028801999999984673
59,10,0.5,0.0625,35.0,1,1.0,0.31380099999995537
60,10,0.5,1.0,35.0,1,1.0,2.323101999999949
61,10,0.5,0.25,35.0,1,1.0,0.3658009999999763
62,10,0.5,0.0,-35.0,1,0.0,1.8315019999999436
63,10,0.5,0.0625,-35.0,1,0.0,0.3740009999999643
64,10,0.5,0.0625,-35.0,1,0.0,2.3750009999999406
65,10,0.5,0.25,-35.0,-1,1.0,0.8229009999999448
66,10,0.5,0.0625,-35.0,1,0.0,2.616701999999975
67,10,0.5,0.125,-35.0,1,0.0,0.6354009999999448
68,10,0.5,0.0625,-35.0,-1,1.0,0.3705019999999877
69,10,0.5,0.125,-35.0,-1,1.0,0.4842019999999252
70,10,0.5,1.0,35.0,1,1.0,0.5637019999999779
71,10,0.5,0.125,-35.0,1,0.0,1.3469009999999457
72,10,0.5,0.125,35.0,1,1.0,0.35730100000000675
73,10,0.5,0.125,35.0,1,1.0,0.31740100000001803
74,10,0.5,0.25,35.0,1,1.0,0.5773019999999747
75,10,0.5,0.125,-35.0,1,0.0,11.164400999999941
76,10,0.5,0.0625,-35.0,1,0.0,0.38330199999995784
77,10,0.5,0.25,35.0,1,1.0,0.31940099999997074
78,10,0.5,0.0625,-35.0,1,0.0,2.4093019999999683
79,10,0.5,0.125,-35.0,1,0.0,0.29860199999995984
80,10,1.0,0.125,-35.0,-1,1.0,0.4927020000000084
81,10,0.5,1.0,-35.0,-1,1.0,0.7080009999999675
82,10,0.5,1.0,-35.0,-1,1.0,1.6045019999999681
83,10,0.5,0.0625,35.0,-1,0.0,0.2310019999999895
84,10,0.6,0.0625,35.0,1,1.0,2.3712019999999825
85,10,0.5,1.0,-35.0,-1,1.0,0.44610099999999875
86,10,0.5,1.0,-35.0,-1,1.0,0.2147019999999884
87,10,0.5,0.0625,35.0,-1,0.0,0.3417010000000005
88,10,0.5,0.0625,-35.0,1,0.0,0.6745010000000207
89,10,0.5,0.25,-35.0,-1,1.0,0.4811019999999644
90,10,0.5,0.25,-35.0,-1,1.0,0.5271020000000135
91,10,0.5,1.0,35.0,1,1.0,0.3776019999999676
92,10,0.5,0.0625,-35.0,1,0.0,0.9057020000000193
93,10,0.5,0.0,-35.0,-1,1.0,1.0154019999999377
94,10,0.5,0.0625,35.0,1,1.0,3.80110099999996
95,10,0.5,0.0625,-35.0,1,0.0,1.2931019999999194
96,10,0.5,0.0625,35.0,-1,0.0,0.4053019999999492
97,10,0.5,1.0,35.0,1,1.0,0.29410100000001194
98,10,0.5,0.125,35.0,1,1.0,1.802300999999943
99,10,0.5,0.0,-35.0,-1,1.0,0.6312019999999166
100,10,0.5,0.25,-35.0,-1,1.0,0.3111020000000053
101,10,0.5,0.25,35.0,1,1.0,6.806201999999985
102,10,0.5,0.0625,-35.0,1,0.0,1.2631020000000035
103,10,0.6,0.0625,-35.0,1,0.0,0.7162019999999529
104,10,0.5,1.0,-35.0,-1,1.0,0.49630199999990054
105,10,0.5,1.0,-35.0,-1,1.0,0.2232019999999011
106,10,0.5,0.0,-35.0,1,0.0,2.3934020000000373
107,10,0.5,0.0,35.0,1,1.0,6.27390099999991
108,10,0.5,0.25,35.0,1,1.0,0.7971009999998842
109,10,0.5,0.25,-35.0,-1,1.0,0.2798010000000204
110,10,0.5,1.0,-35.0,-1,1.0,0.3502019999999675
111,10,0.5,0.25,-35.0,-1,1.0,0.40360199999997803
112,10,0.5,1.0,-35.0,-1,1.0,2.6574019999999337
113,10,0.5,0.0,35.0,-1,0.0,1.3360020000000077
114,10,0.3,0.0,35.0,1,1.0,2.8593009999999595
115,10,0.5,1.0,35.0,1,1.0,0.45870099999990543
116,10,0.5,1.0,-35.0,-1,1.0,0.5327009999999746
117,10,0.5,0.0625,35.0,1,1.0,1.6929010000000062
118,10,0.5,0.0625,-35.0,1,0.0,1.0484019999998964
119,10,0.4,0.0625,35.0,1,1.0,1.7853020000000015
120,10,0.5,1.0,-35.0,-1,1.0,0.9371019999999817
121,10,0.5,0.125,35.0,1,1.0,0.9259009999999535
122,10,0.5,1.0,-35.0,-1,1.0,0.6979019999998854
123,10,0.5,0.0,35.0,1,1.0,0.2650019999999813
124,10,0.5,0.125,35.0,-1,0.0,0.5449019999999791
125,10,0.5,0.25,35.0,1,1.0,0.14870099999996
126,10,0.5,0.25,-35.0,-1,1.0,0.4154009999999744
127,10,0.5,1.0,-35.0,-1,1.0,0.7546019999999771
128,10,0.5,0.0625,-35.0,-1,1.0,0.9139020000000073
129,10,0.5,0.25,35.0,1,1.0,0.1886019999999462
130,10,0.5,0.0,35.0,1,1.0,3.767601999999897
131,10,0.5,1.0,-35.0,1,0.0,1.7248009999999567
132,10,0.5,0.25,35.0,1,1.0,0.1688009999999167
133,10,0.5,0.125,35.0,1,1.0,0.5256010000000515
134,10,0.5,0.25,-35.0,1,0.0,0.46850100000006023
135,10,0.5,0.25,35.0,1,1.0,0.5396010000000615
136,10,0.5,0.0625,35.0,1,1.0,1.0444019999998773
137,10,0.5,0.0625,-35.0,1,0.0,0.10080199999993056
138,10,0.9,0.0625,35.0,1,1.0,0.29850099999998747
139,10,0.5,1.0,-35.0,-1,1.0,0.2350020000000086
140,10,0.5,1.0,35.0,1,1.0,0.4266010000000051
141,10,0.5,0.0625,-35.0,1,0.0,0.30120099999987815
142,10,0.5,0.0625,-35.0,1,0.0,0.5888009999998758
143,10,0.5,0.0625,35.0,1,1.0,0.21360199999992346
144,10,0.5,0.0625,-35.0,1,0.0,5.396001999999953
145,10,0.5,0.125,-35.0,-1,1.0,0.6479009999999334
146,10,0.5,0.125,-35.0,-1,1.0,2.152700999999979
147,10,0.5,0.125,-35.0,-1,1.0,0.6189020000000482
148,10,0.5,0.25,-35.0,-1,1.0,0.31670199999996385
149,10,0.5,0.25,35.0,1,1.0,1.234201999999982
150,10,0.5,0.25,-35.0,1,0.0,0.2290010000000393
151,10,0.5,0.25,-35.0,-1,1.0,0.7237009999998918
152,10,0.5,0.125,35.0,1,1.0,1.6121010000000524
153,10,0.5,0.0625,35.0,1,1.0,1.6057019999999511
154,10,0.5,0.25,-35.0,1,0.0,1.2817020000001094
155,10,0.5,0.25,-35.0,-1,1.0,0.14170200000000932
156,10,0.5,1.0,-35.0,-1,1.0,0.4877010000000155
157,10,0.5,1.0,35.0,1,1.0,0.32890099999997346
158,10,0.5,0.25,35.0,-1,0.0,0.2230019999999513
159,10,0.5,0.0625,35.0,-1,0.0,0.4582020000000284
160,10,0.5,0.0625,35.0,-1,0.0,0.4017020000000002
161,10,0.5,0.125,-35.0,-1,1.0,0.40970100000004095
162,10,0.5,0.0,35.0,1,1.0,0.5331019999998716
163,10,0.5,1.0,-35.0,-1,1.0,0.15310199999998986
164,10,0.5,1.0,35.0,1,1.0,0.5735010000000784
165,10,0.5,0.25,-35.0,-1,1.0,0.8266020000000935
166,10,0.5,0.125,-35.0,-1,1.0,1.1959020000000464
167,10,0.5,0.125,35.0,-1,0.0,2.898301999999944
168,10,0.5,0.0625,-35.0,-1,1.0,0.39570199999991473
169,10,0.5,0.0,35.0,1,1.0,1.6298020000000406
170,10,0.5,0.0,35.0,1,1.0,2.7898020000000088
171,10,0.5,0.125,35.0,1,1.0,0.8353020000000697
172,10,0.5,0.125,35.0,1,1.0,1.5658019999999624
173,10,0.5,0.0625,35.0,1,1.0,0.8313009999999394
174,10,0.5,0.125,-35.0,-1,1.0,0.6311019999999417
175,10,0.5,0.0,-35.0,-1,1.0,1.9871020000000499
176,10,0.5,0.0625,35.0,-1,0.0,0.5272009999999909
177,10,0.5,0.125,35.0,1,1.0,1.0939019999999573
178,10,0.5,1.0,-35.0,-1,1.0,1.1411019999999326
179,10,0.5,0.0625,-35.0,1,0.0,0.5345019999999749
180,10,0.6,0.0625,35.0,1,1.0,0.24950200000000677
181,10,0.5,1.0,35.0,1,1.0,0.4540020000000595
182,10,0.5,0.0625,35.0,1,1.0,0.1710009999999329
183,10,0.5,1.0,-35.0,-1,1.0,0.4043010000000322
184,10,0.5,0.25,35.0,1,1.0,0.7989010000001144
185,10,0.5,1.0,35.0,1,1.0,2.5159009999998716
186,10,0.5,0.0625,35.0,1,1.0,0.46920200000010936
187,10,0.5,0.0625,-35.0,1,0.0,0.9602019999999811
188,10,0.5,0.125,-35.0,-1,1.0,0.44650099999989834
189,10,0.5,0.0625,-35.0,1,0.0,1.0320019999999204
190,10,0.5,0.25,-35.0,1,0.0,0.9780009999999493
191,10,0.8,0.25,-35.0,-1,1.0,0.7560019999999668
192,10,0.5,1.0,-35.0,-1,1.0,0.6570009999999229
193,10,0.5,0.0625,-35.0,-1,1.0,0.5180010000000266
194,10,0.5,0.25,35.0,1,1.0,0.10100099999999657
195,10,0.5,1.0,35.0,1,1.0,0.20650100000000293
196,10,0.5,1.0,-35.0,-1,1.0,0.5744009999998525
197,10,0.5,0.125,35.0,1,1.0,3.4737010000000055
198,10,0.5,1.0,-35.0,-1,1.0,0.02600099999995109
199,10,0.5,0.0,35.0,-1,0.0,1.9580010000000811
200,10,0.5,0.0,-35.0,1,0.0,0.44250099999999293
201,10,0.5,0.0,-35.0,1,0.0,0.09110099999986687
202,10,0.5,0.25,35.0,1,1.0,0.2291010000000142
203,10,0.5,1.0,-35.0,-1,1.0,0.3643009999999549
204,10,0.5,0.0,35.0,1,1.0,0.5122019999998884
205,10,0.5,0.0,-35.0,-1,1.0,0.40930199999991146
206,10,0.5,1.0,35.0,1,1.0,0.739402000000041
207,10,0.5,0.25,-35.0,-1,1.0,0.6172019999999065
208,10,0.5,1.0,-35.0,-1,1.0,0.4770009999999729
209,10,0.5,0.0625,35.0,1,1.0,1.0128020000000788
210,10,0.5,0.0625,-35.0,1,0.0,1.1312019999999166
211,10,0.5,0.25,35.0,1,1.0,0.5213019999999915
212,10,0.5,0.125,-35.0,1,0.0,0.3444009999998343
213,10,0.5,0.25,35.0,1,1.0,0.10700099999996837
214,10,0.5,0.125,35.0,1,1.0,1.7533019999999624
215,10,0.5,0.125,-35.0,1,0.0,0.25440200000002733
216,10,0.5,0.0625,35.0,1,1.0,0.7144020000000637
217,10,0.5,1.0,35.0,1,1.0,0.3374019999999973
218,10,0.5,0.0625,-35.0,-1,1.0,0.71440199999995
219,10,0.5,1.0,-35.0,-1,1.0,0.38750199999992674
220,10,0.5,0.0,-35.0,1,0.0,0.16430100000002312
221,10,0.5,0.25,35.0,1,1.0,0.48790199999996275
222,10,0.5,0.25,-35.0,1,0.0,1.3946019999999635
223,10,0.5,0.0,35.0,1,1.0,1.6348020000002634
224,10,0.5,1.0,-35.0,-1,1.0,0.7949020000000928
225,10,0.5,0.125,-35.0,1,0.0,0.10850100000016027
226,10,0.5,0.0,-35.0,-1,1.0,0.0853020000001834
227,10,0.5,0.25,-35.0,-1,1.0,1.7688020000000506
228,10,0.5,0.125,35.0,1,1.0,0.47880099999997583
229,10,0.5,0.125,-35.0,1,0.0,2.872301000000107
230,10,0.5,0.0,-35.0,-1,1.0,2.1291009999999915
231,10,0.5,0.25,35.0,1,1.0,0.5093020000003889
232,10,0.5,0.0625,35.0,1,1.0,0.4830010000000584
233,10,0.5,0.0625,35.0,1,1.0,0.7397020000000794
234,10,0.5,0.125,35.0,1,1.0,0.36660100000017337
235,10,0.5,0.125,-35.0,-1,1.0,0.46670099999982995
236,10,0.5,0.125,-35.0,-1,1.0,0.506802000000107
237,10,0.5,0.0625,-35.0,-1,1.0,0.7335020000000441
238,10,0.5,0.125,35.0,1,1.0,0.42370200000004843
239,10,0.5,0.0625,-35.0,-1,1.0,0.4205019999999422
240,10,0.5,1.0,35.0,1,1.0,0.21720100000015918
241,10,0.5,0.25,-35.0,-1,1.0,0.41750200000001314
242,10,0.5,0.25,35.0,1,1.0,0.28100100000006023
243,10,0.5,1.0,35.0,1,1.0,0.18770199999994475
244,10,0.5,0.25,-35.0,-1,1.0,0.4179020000001401
245,10,0.5,0.0,35.0,-1,0.0,0.4647019999999884
246,10,0.5,0.0625,35.0,1,1.0,1.3447019999998702
247,10,0.5,1.0,35.0,1,1.0,0.3249020000000655
248,10,0.5,1.0,-35.0,-1,1.0,0.3716020000001663
249,10,0.5,0.25,35.0,1,1.0,0.30840200000011464
250,10,0.5,0.0625,-35.0,-1,1.0,0.5253020000000106
251,10,0.5,0.0625,-35.0,-1,1.0,0.6355020000000877
252,10,0.5,0.0,35.0,1,1.0,3.1788010000000213
253,10,0.5,0.0,-35.0,1,0.0,1.5491020000001754
254,10,0.5,0.25,-35.0,-1,1.0,0.45930200000020704
255,10,0.5,0.25,35.0,1,1.0,0.289602000000059
256,10,0.5,0.0625,35.0,1,1.0,0.34660200000007535
257,10,0.5,0.25,35.0,-1,0.0,0.40330100000005586
258,10,0.5,0.0625,-35.0,-1,1.0,0.5235020000002351
259,10,0.5,0.25,-35.0,-1,1.0,0.4369019999999182
260,10,0.5,0.0,35.0,1,1.0,1.0437010000000555
261,10,0.5,0.0,-35.0,1,0.0,0.0904009999999289
262,10,0.6,0.0,-35.0,-1,1.0,0.41060200000015357
263,10,0.5,1.0,-35.0,-1,1.0,0.41740200000003824
264,10,0.5,0.0625,-35.0,1,0.0,2.460802000000058
265,10,0.5,0.125,-35.0,-1,1.0,0.20440099999996164
266,10,0.5,0.125,35.0,1,1.0,1.70790100000022
267,10,0.5,0.25,-35.0,-1,1.0,0.13130200000000514
268,10,0.5,0.25,-35.0,-1,1.0,0.9615009999999984
269,10,0.5,0.125,-35.0,-1,1.0,0.521502000000055
270,10,0.5,1.0,35.0,1,1.0,0.7883019999999306
271,10,0.5,0.25,35.0,1,1.0,0.47170200000005025
272,10,0.5,1.0,35.0,1,1.0,0.34850200000028053
273,10,0.5,0.125,-35.0,-1,1.0,0.9520010000001093
274,10,0.5,0.25,-35.0,-1,1.0,2.252002000000175
275,10,0.5,0.25,-35.0,-1,1.0,0.5190010000001166
276,10,0.5,1.0,-35.0,-1,1.0,0.5523010000001705
277,10,0.5,0.0625,-35.0,1,0.0,2.6723010000000613
278,10,0.5,0.0,35.0,-1,0.0,0.3861020000001645
279,10,0.4,0.0,35.0,1,1.0,2.329601000000139
280,10,0.5,1.0,35.0,1,1.0,0.14650200000005498
281,10,0.5,0.0,-35.0,1,0.0,1.4101020000000517
282,10,0.5,0.125,35.0,-1,0.0,0.47700200000031145
283,10,0.5,0.0,-35.0,-1,1.0,0.5305020000000695
284,10,0.5,0.25,35.0,1,1.0,0.6409020000000965
285,10,0.5,1.0,35.0,1,1.0,0.36420200000020486
286,10,0.5,0.125,-35.0,-1,1.0,3.004501999999775
287,10,0.5,0.125,35.0,1,1.0,1.414400999999998
288,10,0.5,0.25,35.0,1,1.0,0.5879019999999855
289,10,0.5,0.25,-35.0,1,0.0,0.4548019999999724
290,10,0.5,0.25,-35.0,-1,1.0,0.34490200000004734
291,10,0.5,0.25,-35.0,1,0.0,0.7284020000001874
292,10,0.6,0.25,35.0,1,1.0,0.14520100000004277
293,10,0.5,1.0,35.0,1,1.0,0.248602000000119
294,10,0.5,0.25,-35.0,-1,1.0,0.5021010000000388
295,10,0.5,0.25,-35.0,-1,1.0,0.462402000000111
296,10,0.5,0.25,35.0,1,1.0,0.4456020000002354
297,10,0.5,1.0,-35.0,-1,1.0,0.5325020000002496
298,10,0.5,0.125,35.0,1,1.0,2.1626010000002225
299,10,0.5,0.125,35.0,1,1.0,0.41930200000001605
300,10,0.5,0.25,-35.0,-1,1.0,0.2628019999999651
301,10,0.5,1.0,-35.0,-1,1.0,0.40300200000001496
302,10,0.5,0.0625,35.0,1,1.0,0.7530020000001514
303,10,0.5,0.125,-35.0,1,0.0,0.2333019999998669
304,10,0.5,0.125,-35.0,-1,1.0,0.5301009999998314
305,10,0.5,1.0,35.0,1,1.0,0.24690099999997983
306,10,0.5,0.0625,-35.0,-1,1.0,0.3905010000000857
307,10,0.5,0.125,-35.0,1,0.0,3.5637020000001485
308,10,0.6,0.125,-35.0,1,0.0,0.18070200000033765
309,10,0.5,1.0,-35.0,-1,1.0,0.4608010000001741
310,10,0.5,1.0,-35.0,-1,1.0,0.1642020000001594
311,10,0.5,0.25,35.0,1,1.0,3.4345020000002933
312,10,0.5,0.0625,35.0,1,1.0,0.3080010000001039
313,10,0.5,0.0625,-35.0,1,0.0,0.5484010000000126
314,10,0.5,0.25,-35.0,-1,1.0,1.091801999999916
315,10,0.5,0.0625,35.0,1,1.0,0.36520100000007005
316,10,0.5,0.25,35.0,1,1.0,0.23530200000027435
317,10,0.5,1.0,35.0,1,1.0,0.6722020000001976
318,10,0.5,0.125,35.0,1,1.0,1.1690020000000914
319,10,0.5,1.0,35.0,1,1.0,0.2591010000001006
320,10,0.5,0.0,35.0,-1,0.0,0.2992020000001503
321,10,0.5,0.0625,35.0,-1,0.0,0.29620200000022123
322,10,0.5,0.25,-35.0,-1,1.0,0.3497020000002067
323,10,0.5,1.0,-35.0,-1,1.0,0.396502000000055
324,10,0.5,0.25,35.0,1,1.0,1.046502000000146
325,10,0.5,0.0625,-35.0,1,0.0,2.2966010000000097
326,10,0.5,0.25,-35.0,-1,1.0,0.28020200000014484
327,10,0.5,1.0,-35.0,-1,1.0,0.3337010000002465
328,10,0.5,0.0625,35.0,1,1.0,0.7705010000001948
329,10,0.5,0.125,-35.0,-1,1.0,0.5809019999999236
330,10,0.5,0.0625,-35.0,-1,1.0,0.17100200000004406
331,10,0.5,1.0,35.0,1,1.0,0.3744010000000344
332,10,0.5,0.0,35.0,-1,0.0,0.29450100000008206
333,10,0.5,0.125,-35.0,-1,1.0,0.3780020000001514
334,10,0.5,0.125,-35.0,1,0.0,2.6881020000000717
335,10,0.5,0.25,35.0,1,1.0,0.29840200000012373
336,10,0.5,0.25,35.0,1,1.0,1.7650010000002112
337,10,0.5,0.25,-35.0,-1,1.0,0.7653020000002471
338,10,0.5,0.0625,-35.0,-1,1.0,0.3120010000000093
339,10,0.5,0.0625,35.0,1,1.0,1.6456010000001697
340,10,0.5,0.0625,-35.0,-1,1.0,2.702301999999918
341,10,0.5,0.25,-35.0,-1,1.0,0.3758010000001377
342,10,0.5,0.25,-35.0,1,0.0,5.652700999999979
343,10,0.5,0.25,-35.0,-1,1.0,0.3864020000000892
344,10,0.5,1.0,35.0,1,1.0,0.9397010000000137
345,10,0.5,1.0,35.0,1,1.0,2.0799019999999473
346,10,0.5,0.125,-35.0,1,0.0,1.2200020000000222
347,10,0.5,0.125,35.0,-1,0.0,0.2369020000001001
348,10,0.5,0.0625,35.0,-1,0.0,0.3804010000001199
349,10,0.5,0.125,35.0,-1,0.0,0.4105010000002949
350,10,0.5,0.25,35.0,1,1.0,0.6675020000000131
351,10,0.5,0.25,35.0,1,1.0,0.4509009999999307
352,10,0.5,0.125,-35.0,1,0.0,0.2310010000001057
353,10,0.5,0.25,-35.0,-1,1.0,0.5178020000003016
354,10,0.5,0.125,35.0,-1,0.0,0.504701999999952
355,10,0.5,0.0,-35.0,1,0.0,0.3415019999999913
356,10,0.5,0.0625,-35.0,-1,1.0,0.42490100000031816
357,10,0.5,1.0,-35.0,-1,1.0,0.29170200000021396
358,10,0.5,0.0,35.0,1,1.0,7.108502000000271
359,10,0.5,0.0625,-35.0,-1,1.0,0.6288020000001779
360,10,0.5,0.0625,35.0,1,1.0,0.5124020000000655
361,10,0.5,0.0,35.0,1,1.0,0.36570099999994454
362,10,0.5,0.125,35.0,1,1.0,1.3959010000000944
363,10,0.5,0.125,-35.0,-1,1.0,1.6793010000001232
364,10,0.5,1.0,-35.0,-1,1.0,0.659402
365,10,0.5,0.25,-35.0,1,0.0,1.5562020000002121
366,10,0.5,0.25,35.0,1,1.0,1.4665009999998802
367,10,0.5,1.0,-35.0,-1,1.0,0.419901000000209
368,10,0.5,0.125,-35.0,1,0.0,1.1733010000000377
369,10,0.5,0.25,35.0,1,1.0,0.3701020000000881
370,10,0.5,0.0,35.0,-1,0.0,3.0736010000000533
371,10,0.5,0.25,-35.0,-1,1.0,0.3238020000001143
372,10,0.5,0.0625,-35.0,1,0.0,2.82740200000012
373,10,0.5,0.0625,35.0,-1,0.0,0.3844010000000253
374,10,0.5,0.0,35.0,-1,0.0,0.594501000000264
375,10,0.5,0.125,35.0,1,1.0,0.3780020000001514
376,10,0.5,0.25,35.0,1,1.0,0.32810200000017176
377,10,0.5,0.25,-35.0,-1,1.0,0.401602000000139
378,10,0.5,0.125,-35.0,-1,1.0,0.3883019999998396
379,10,0.5,0.0625,-35.0,1,0.0,3.6751019999999244
380,10,0.5,0.0625,35.0,1,1.0,0.1787019999999302
381,10,0.5,0.25,35.0,1,1.0,0.5387020000002849
382,10,0.5,0.0625,35.0,-1,0.0,0.10580100000015591
383,10,0.5,0.25,35.0,1,1.0,0.12240200000019286
384,10,0.5,1.0,35.0,1,1.0,0.569302000000107
385,10,0.5,0.25,-35.0,1,0.0,1.3461020000002009
386,10,0.5,0.25,35.0,1,1.0,0.25950200000011137
387,10,0.5,1.0,35.0,1,1.0,0.30300099999999475
388,10,0.5,0.125,-35.0,-1,1.0,1.869801999999936
389,10,0.5,1.0,35.0,1,1.0,1.2232010000002447
390,10,0.5,0.25,35.0,1,1.0,1.6667019999999866
391,10,0.5,0.25,35.0,1,1.0,0.3636010000002443
392,10,0.5,0.0625,-35.0,-1,1.0,0.3837020000000848
393,10,0.5,1.0,-35.0,-1,1.0,0.5338010000002669
394,10,0.5,1.0,35.0,1,1.0,0.8773020000000997
395,10,0.5,0.25,35.0,1,1.0,0.5440020000000914
396,10,0.5,0.25,-35.0,-1,1.0,1.3608010000000377
397,10,0.5,0.125,-35.0,-1,1.0,1.0043020000000524
398,10,0.5,0.0625,-35.0,1,0.0,2.804401999999982
399,10,0.5,0.0625,35.0,1,1.0,1.034701000000041
400,10,0.5,0.25,35.0,1,1.0,0.3382010000000264
401,10,0.5,0.125,35.0,1,1.0,0.06820200000015575
402,10,0.5,0.0625,-35.0,-1,1.0,0.27510099999994964
403,10,0.5,0.25,-35.0,-1,1.0,0.3519010000002254
404,10,0.5,0.0625,-35.0,-1,1.0,0.20200199999999313
405,10,0.5,0.0625,-35.0,-1,1.0,-0.03439899999989393
406,10,0.5,0.0625,-35.0,1,0.0,3.0256020000001627
407,10,0.5,0.0625,35.0,1,1.0,1.992502000000286
408,10,0.5,0.125,-35.0,1,0.0,0.28600100000016937
409,10,0.6,0.125,35.0,1,1.0,0.426202000000103
410,10,0.5,1.0,35.0,1,1.0,0.6863020000000688
411,10,0.5,0.125,-35.0,1,0.0,0.4999020000002474
412,10,0.5,0.0625,-35.0,-1,1.0,0.5800019999999222
413,10,0.5,0.25,35.0,-1,0.0,0.806901999999809
414,10,0.5,0.125,35.0,1,1.0,0.2103020000001834
415,10,0.5,0.25,35.0,-1,0.0,0.48050100000000384
416,10,0.5,0.25,-35.0,-1,1.0,0.42070200000011937
417,10,0.5,1.0,-35.0,-1,1.0,0.31410200000004806
418,10,0.5,0.0625,35.0,1,1.0,1.8109020000001692
419,10,0.5,0.0625,35.0,1,1.0,2.4777010000000246
420,10,0.5,1.0,-35.0,-1,1.0,1.7546019999999771
421,10,0.5,0.125,-35.0,1,0.0,1.0046020000002045
422,10,0.5,0.125,-35.0,-1,1.0,0.33840200000008736
423,10,0.5,0.0,-35.0,-1,1.0,0.5852020000002085
424,10,0.5,0.0,-35.0,1,0.0,1.4218020000000706
425,10,0.5,0.0,35.0,1,1.0,0.42200099999990925
426,10,0.5,0.125,-35.0,-1,1.0,0.5289020000002438
427,10,0.5,0.125,35.0,1,1.0,0.742301000000225
428,10,0.5,0.0625,35.0,1,1.0,0.36580199999980323
429,10,0.5,1.0,-35.0,-1,1.0,0.2526020000002518
430,10,0.5,0.25,35.0,1,1.0,0.2295010000000275
431,10,0.5,0.125,-35.0,1,0.0,0.16300100000012208
432,10,0.5,0.0625,35.0,-1,0.0,0.41320100000007187
433,10,0.5,0.0,-35.0,-1,1.0,0.810001000000284
434,10,0.5,0.25,35.0,1,1.0,0.32340099999987615
435,10,0.5,0.0625,-35.0,1,0.0,1.7302020000001903
436,10,0.5,0.0625,35.0,1,1.0,0.33700100000010025
437,10,0.5,1.0,35.0,1,1.0,0.967202000000043
438,10,0.5,1.0,-35.0,-1,1.0,0.41050200000017867
439,10,0.5,0.25,35.0,1,1.0,0.7106020000001081
440,10,0.5,0.0,35.0,1,1.0,0.16770100000007915
441,10,0.5,0.0625,-35.0,1,0.0,0.9144020000001092
442,10,0.7,0.0625,-35.0,-1,1.0,0.06800099999986742
443,10,0.5,1.0,-35.0,-1,1.0,0.20480200000019977
444,10,0.5,0.25,35.0,1,1.0,0.3314020000000255
445,10,0.5,0.125,-35.0,1,0.0,1.501602000000048
446,10,0.5,0.0625,35.0,1,1.0,1.4218010000001868
447,10,0.5,0.25,-35.0,-1,1.0,0.44540200000005825
448,10,0.5,0.25,35.0,1,1.0,0.5086010000002261
449,10,0.5,0.25,35.0,1,1.0,0.24550200000021505
450,10,0.5,0.125,-35.0,1,0.0,0.27240200000005643
451,10,0.7,0.125,-35.0,-1,1.0,0.1525010000000293
452,10,0.5,1.0,35.0,1,1.0,0.455902000000151
453,10,0.5,0.0,35.0,1,1.0,2.9560010000000148
454,10,0.5,0.0625,-35.0,-1,1.0,2.326102000000219
455,10,0.5,0.0625,-35.0,-1,1.0,0.5030020000001514
456,10,0.5,1.0,35.0,1,1.0,0.4701020000002245
457,10,0.5,0.125,35.0,1,1.0,0.6434010000000399
458,10,0.5,1.0,35.0,1,1.0,0.5069020000000819
459,10,0.5,0.0,35.0,1,1.0,0.2770020000000386
460,10,0.5,0.0625,35.0,1,1.0,1.6171019999999316
461,10,0.5,0.0,35.0,1,1.0,0.45400100000006205
462,10,0.5,1.0,-35.0,-1,1.0,0.4343010000002323
463,10,0.5,0.25,-35.0,-1,1.0,2.324502000000166
464,10,0.5,0.0,35.0,1,1.0,0.45120200000019395
465,10,0.5,0.25,35.0,1,1.0,0.22500200000013137
466,10,0.5,0.0625,35.0,1,1.0,0.2586010000002261
467,10,0.5,0.125,-35.0,-1,1.0,0.4120010000001457
468,10,0.5,0.0,35.0,1,1.0,0.3987009999998463
469,10,0.5,0.0625,35.0,1,1.0,0.3155010000000402
470,10,0.5,1.0,35.0,1,1.0,0.23220200000014302
471,10,0.5,0.25,35.0,-1,0.0,0.14920200000005934
472,10,0.5,0.125,-35.0,-1,1.0,0.366001000000324
473,10,0.5,0.0625,35.0,-1,0.0,2.0128010000003087
474,10,0.5,0.125,-35.0,-1,1.0,3.646400999999969
475,10,0.5,0.0625,35.0,-1,0.0,0.43340200000011464
476,10,0.5,0.125,35.0,-1,0.0,0.30010100000026796
477,10,0.5,0.125,35.0,1,1.0,0.7037019999997938
478,10,0.5,0.0625,35.0,1,1.0,2.6104020000002492
479,10,0.5,0.25,-35.0,-1,1.0,0.18740200000002005
480,10,0.5,0.25,-35.0,-1,1.0,0.6441020000002027
481,10,0.5,1.0,-35.0,-1,1.0,0.42080200000009427
482,10,0.5,0.125,35.0,1,1.0,0.5343020000004799
483,10,0.5,1.0,-35.0,-1,1.0,0.29430100000035964
484,10,0.5,0.125,35.0,1,1.0,1.7213019999999233
485,10,0.5,0.125,-35.0,-1,1.0,0.2982020000004013
486,10,0.5,0.0625,35.0,1,1.0,0.25160200000027544
487,10,0.5,0.25,35.0,1,1.0,0.25180200000022523
488,10,0.5,0.0,35.0,-1,0.0,0.24510100000043167
489,10,0.5,0.0,35.0,1,1.0,0.3221010000002025
490,10,0.5,1.0,35.0,1,1.0,0.2522019999996701
491,10,0.5,0.0625,35.0,1,1.0,0.4123020000001816
492,10,0.5,0.0625,-35.0,-1,1.0,0.5990019999999276
493,10,0.5,0.0625,35.0,-1,0.0,0.7325009999999565
494,10,0.5,0.125,35.0,1,1.0,0.6862019999998665
495,10,0.5,1.0,35.0,1,1.0,0.8563020000001416
496,10,0.5,0.0,35.0,1,1.0,0.40650200000027326
497,10,0.5,0.125,-35.0,1,0.0,0.7466010000002825
498,10,0.5,0.0625,35.0,1,1.0,0.3368020000002616
499,10,0.5,0.0625,-35.0,-1,1.0,0.3469020000002274
500,10,0.5,0.0625,-35.0,1,0.0,0.5604020000000673
501,10,0.5,0.25,-35.0,1,0.0,0.2039020000001983
502,10,0.5,0.0625,-35.0,1,0.0,0.770701999999801
503,10,0.5,0.25,-35.0,-1,1.0,0.41090200000007826
504,10,0.5,0.0,-35.0,1,0.0,2.1076020000000426
505,10,0.5,0.0,35.0,1,1.0,0.4311019999995551
506,10,0.5,0.0,-35.0,1,0.0,0.15460200000006807
507,10,0.8,0.0,-35.0,1,0.0,0.19140100000049642
508,10,0.5,1.0,-35.0,-1,1.0,0.46490200000016557
509,10,0.5,0.0,-35.0,1,0.0,0.4883020000002034
510,10,0.5,0.125,35.0,1,1.0,0.055201999999553664
511,10,0.5,0.0625,-35.0,-1,1.0,0.34520100000008824
512,10,0.5,0.125,35.0,1,1.0,0.2420010000005277
513,10,0.5,0.0,-35.0,-1,1.0,0.18540200000006735
514,10,0.5,0.125,-35.0,-1,1.0,0.35910199999989345
515,10,0.5,0.0625,-35.0,1,0.0,0.1258020000000215
516,10,0.5,0.0625,-35.0,1,0.0,0.2892010000000482
517,10,0.6,0.0625,35.0,1,1.0,0.5230020000003606
518,10,0.5,1.0,-35.0,-1,1.0,0.3764019999998709
519,10,0.5,0.25,-35.0,-1,1.0,0.6398019999996905
520,10,0.5,0.25,-35.0,-1,1.0,0.5966010000001916
521,10,0.5,0.0625,-35.0,-1,1.0,0.19010200000002442
522,10,0.5,0.125,35.0,1,1.0,0.3171019999999771
523,10,0.5,0.0625,35.0,1,1.0,0.2106020000001081
524,10,0.5,0.125,-35.0,-1,1.0,0.8806020000001809
525,10,0.5,0.125,-35.0,-1,1.0,0.8675010000001748
526,10,0.5,0.25,35.0,1,1.0,0.17100100000016027
527,10,0.5,0.125,-35.0,1,0.0,2.1882019999998192
528,10,0.5,0.0625,35.0,1,1.0,0.04550200000039695
529,10,0.5,0.0625,-35.0,1,0.0,0.20220100000005914
530,10,0.5,0.125,35.0,1,1.0,4.062000999999782
531,10,0.5,0.25,-35.0,-1,1.0,0.5591010000002825
532,10,0.5,0.125,35.0,1,1.0,1.865802000000258
533,10,0.5,0.25,-35.0,1,0.0,0.25270199999977194
534,10,0.5,0.0,-35.0,-1,1.0,0.75640199999998
535,10,0.5,1.0,-35.0,1,0.0,0.06950200000028417
536,10,0.5,0.25,35.0,1,1.0,0.19970099999954982
537,10,0.5,1.0,35.0,1,1.0,0.3366020000003118
538,10,0.5,0.0625,-35.0,-1,1.0,0.6336009999999987
539,10,0.5,0.0625,35.0,1,1.0,1.0606020000000171
540,10,0.5,0.25,-35.0,-1,1.0,0.2773019999999633
541,10,0.5,0.25,35.0,1,1.0,0.08040100000016537
542,10,0.5,0.125,35.0,1,1.0,0.3673020000001088
543,10,0.5,0.0,35.0,1,1.0,0.024301999999806867
544,10,0.5,0.0625,-35.0,1,0.0,0.494202000000314
545,10,0.5,0.0,35.0,1,1.0,0.3745009999997819
546,10,0.5,0.0625,-35.0,-1,1.0,0.3677010000001246
547,10,0.5,1.0,-35.0,-1,1.0,0.4646010000001297
548,10,0.5,0.125,35.0,1,1.0,0.397801000000527
549,10,0.5,0.25,-35.0,-1,1.0,0.521802000000207
550,10,0.5,0.25,35.0,1,1.0,1.7550020000003315
551,10,0.5,0.125,35.0,1,1.0,0.62170100000003
552,10,0.5,0.25,-35.0,-1,1.0,0.25900199999978213
553,10,0.5,0.0,-35.0,-1,1.0,0.58610200000021
554,10,0.5,0.0,-35.0,-1,1.0,0.47560199999998076
555,10,0.5,0.125,35.0,1,1.0,1.7825020000000222
556,10,0.5,0.0625,35.0,1,1.0,0.9994010000004891
557,10,0.5,0.0,35.0,1,1.0,1.5363020000004326
558,10,0.5,1.0,-35.0,-1,1.0,0.3196010000001479
559,10,0.5,0.0625,35.0,1,1.0,0.4496019999996861
560,10,0.5,0.125,-35.0,-1,1.0,0.6833019999999124
561,10,0.5,1.0,-35.0,-1,1.0,0.16670199999998658
562,10,0.5,0.0,35.0,1,1.0,2.6569009999998343
563,10,0.5,0.0625,35.0,1,1.0,1.810500999999931
564,10,0.5,0.25,-35.0,1,0.0,1.2138020000002143
565,10,0.7,0.25,-35.0,1,0.0,0.5176019999998971
566,10,0.5,1.0,-35.0,-1,1.0,0.27780200000006516
567,10,0.5,0.125,-35.0,-1,1.0,0.3749020000004748
568,10,0.5,0.25,35.0,1,1.0,0.3280019999997421
569,10,0.5,0.0,-35.0,-1,1.0,0.14450200000010227
570,10,0.5,1.0,35.0,1,1.0,0.40150100000028033
571,10,0.5,0.125,35.0,1,1.0,0.3622009999999136
572,10,0.5,0.0625,35.0,1,1.0,0.35210100000040256
573,10,0.5,0.0625,-35.0,-1,1.0,0.6856010000001334
574,10,0.5,0.125,35.0,1,1.0,0.18900200000007317
575,10,0.5,1.0,35.0,1,1.0,0.3426020000006247
576,10,0.5,0.25,-35.0,1,0.0,0.3796009999996386
577,10,0.5,0.25,35.0,1,1.0,0.35970099999985905
578,10,0.5,0.125,-35.0,1,0.0,3.116201999999703
579,10,0.5,0.0625,35.0,-1,0.0,0.33670200000005934
580,10,0.5,0.125,-35.0,-1,1.0,0.26010100000030434
581,10,0.5,0.25,-35.0,-1,1.0,0.3204020000002856
582,10,0.5,0.125,-35.0,-1,1.0,0.3736010000002352
583,10,0.5,1.0,-35.0,-1,1.0,0.36070199999994657
584,10,0.5,1.0,35.0,1,1.0,0.3706020000004173
585,10,0.5,1.0,-35.0,-1,1.0,0.31070199999976467
586,10,0.5,1.0,35.0,1,1.0,1.45460200000025
587,10,0.5,0.25,35.0,1,1.0,0.3577020000002449
588,10,0.5,0.0625,-35.0,-1,1.0,0.11440200000015466
589,10,0.5,0.25,-35.0,-1,1.0,0.45780100000001767
590,10,0.5,0.25,-35.0,-1,1.0,0.2649019999998927
591,10,0.5,0.0625,-35.0,-1,1.0,0.3388019999997596
592,10,0.5,0.0,35.0,1,1.0,0.3118019999997159
593,10,0.5,0.0625,-35.0,1,0.0,0.07510099999990416
594,10,0.5,0.0625,-35.0,1,0.0,2.2253020000002834
595,10,0.5,0.0625,35.0,1,1.0,0.43900200000007317
596,10,0.5,0.0625,35.0,1,1.0,0.4458009999998467
597,10,0.5,0.125,-35.0,-1,1.0,0.44580100000030143
598,10,0.5,0.0625,-35.0,1,0.0,0.16950200000019322
599,10,0.6,0.0625,-35.0,-1,1.0,0.4829010000003109
600,10,0.5,1.0,-35.0,-1,1.0,0.28960100000040256
601,10,0.5,0.25,35.0,1,1.0,0.24980199999981778
602,10,0.5,0.0625,35.0,-1,0.0,0.5568020000005163
603,10,0.5,0.125,35.0,1,1.0,1.2638020000003962
604,10,0.5,0.0625,35.0,1,1.0,0.4468019999999342
605,10,0.5,0.125,-35.0,1,0.0,1.0102019999999357
606,10,0.5,0.0625,35.0,1,1.0,2.870502000000215
607,10,0.5,0.25,-35.0,-1,1.0,0.19080099999973754
608,10,0.5,0.0,35.0,1,1.0,1.074702000000343
609,10,0.5,0.125,35.0,1,1.0,0.18750200000067707
610,10,0.5,0.125,35.0,1,1.0,0.4545010000001639
611,10,0.5,0.25,35.0,1,1.0,0.3511020000000826
612,10,0.5,0.0625,-35.0,-1,1.0,0.43500200000016775
613,10,0.5,0.0625,35.0,1,1.0,0.8850020000004406
614,10,0.5,0.25,-35.0,-1,1.0,0.3721009999999296
615,10,0.5,0.25,35.0,1,1.0,0.5690010000002985
616,10,0.5,0.125,35.0,1,1.0,0.3289009999998598
617,10,0.5,1.0,-35.0,-1,1.0,0.5224009999997179
618,10,0.5,0.0625,35.0,1,1.0,1.432600999999977
619,10,0.5,1.0,35.0,1,1.0,0.36610200000041004
620,10,0.5,0.125,35.0,-1,0.0,0.9761020000000826
621,10,0.5,0.125,35.0,1,1.0,0.4896009999997659
622,10,0.5,1.0,-35.0,-1,1.0,0.36660200000005716
623,10,0.5,0.25,-35.0,-1,1.0,0.3633010000003196
624,10,0.5,0.0625,-35.0,-1,1.0,0.24670100000048478
625,10,0.5,1.0,35.0,1,1.0,0.9735020000007353
626,10,0.5,0.0,35.0,1,1.0,4.380602000000181
627,10,0.5,0.0625,-35.0,-1,1.0,3.543800999999803
628,10,0.5,1.0,-35.0,-1,1.0,0.5606010000001334
629,10,0.5,0.25,-35.0,-1,1.0,0.3512020000002849
630,10,0.5,1.0,35.0,1,1.0,0.5177009999997608
631,10,0.5,0.125,35.0,1,1.0,0.3979020000001583
632,10,0.5,0.25,35.0,1,1.0,0.31480199999987235
633,10,0.5,0.0625,-35.0,-1,1.0,1.0352010000001428
634,10,0.5,0.125,-35.0,-1,1.0,0.5484019999998964
635,10,0.5,0.125,35.0,1,1.0,0.722201000000041
636,10,0.5,0.0625,35.0,1,1.0,0.57220099999995
637,10,0.5,0.125,-35.0,1,0.0,1.0522020000003067
638,10,0.5,0.0,-35.0,1,0.0,1.1292020000000775
639,10,0.5,0.25,35.0,1,1.0,0.6527009999999791
640,10,0.5,0.0,35.0,-1,0.0,0.5161020000000462
641,10,0.7,0.0,-35.0,-1,1.0,1.152900999999929
642,10,0.5,1.0,35.0,1,1.0,0.5533019999998032
643,10,0.5,0.0625,35.0,1,1.0,0.6235019999999167
644,10,0.5,0.25,-35.0,-1,1.0,1.790002000000186
645,10,0.5,0.0625,-35.0,-1,1.0,0.27020100000027014
646,10,0.5,0.125,35.0,1,1.0,0.45060200000034456
647,10,0.5,0.125,35.0,1,1.0,0.31070200000067416
648,10,0.5,1.0,35.0,1,1.0,0.32070100000009916
649,10,0.5,1.0,35.0,1,1.0,0.490802000000258
650,10,0.5,0.0625,-35.0,-1,1.0,0.3813020000002325
651,10,0.5,0.0625,35.0,1,1.0,3.501401999999871
652,10,0.5,0.0,35.0,1,1.0,0.25810100000035163
653,10,0.5,1.0,-35.0,-1,1.0,0.2547020000001794
654,10,0.5,0.0,35.0,1,1.0,0.36830200000031255
655,10,0.5,0.25,35.0,1,1.0,0.21170200000005934
656,10,0.5,1.0,35.0,1,1.0,0.4717020000002776
657,10,0.5,0.25,-35.0,-1,1.0,0.328602000000501
658,10,0.5,1.0,35.0,1,1.0,0.4519020000002456
659,10,0.5,1.0,-35.0,-1,1.0,0.22240200000032928
660,10,0.5,1.0,35.0,1,1.0,0.09900199999992765
661,10,0.5,0.125,35.0,1,1.0,0.3394020000000637
662,10,0.5,0.0625,-35.0,-1,1.0,0.39250200000014956
663,10,0.5,0.125,-35.0,-1,1.0,0.3028020000001561
664,10,0.5,0.25,35.0,1,1.0,0.5065010000002985
665,10,0.5,0.125,-35.0,-1,1.0,2.4096019999997225
666,10,0.5,1.0,35.0,1,1.0,0.5200020000002041
667,10,0.5,1.0,35.0,1,1.0,0.37980200000038167
668,10,0.5,0.25,-35.0,-1,1.0,1.356901999999991
669,10,0.5,0.25,-35.0,-1,1.0,0.627002000000175
670,10,0.5,0.125,-35.0,1,0.0,0.5305020000005243
671,10,0.5,0.0625,35.0,1,1.0,0.26380199999994147
672,10,0.5,1.0,-35.0,-1,1.0,0.567902000000231
673,10,0.5,1.0,-35.0,-1,1.0,0.6206019999999626
674,10,0.5,0.25,35.0,1,1.0,0.19420100000024831
675,10,0.5,0.0625,-35.0,-1,1.0,1.9678020000001197
676,10,0.5,1.0,-35.0,-1,1.0,0.4381009999997332
677,10,0.5,0.0,-35.0,-1,1.0,0.338600999999926
678,10,0.5,0.0,35.0,-1,0.0,0.3020019999999022
679,10,0.5,0.125,-35.0,-1,1.0,0.3819010000001981
680,10,0.5,1.0,-35.0,-1,1.0,0.1288009999998394
681,10,0.5,0.0,-35.0,1,0.0,1.6723010000000613
682,10,0.5,0.25,35.0,1,1.0,0.4456009999998969
683,10,0.5,0.25,-35.0,-1,1.0,1.515802000000349
684,10,0.5,0.0625,35.0,1,1.0,1.693101999999726
685,10,0.5,0.25,35.0,1,1.0,0.60640100000046
686,10,0.5,0.25,35.0,1,1.0,0.3962010000000191
687,10,0.5,1.0,35.0,-1,0.0,0.15970100000004095
688,10,0.5,0.0625,-35.0,-1,1.0,0.5100009999996473
689,10,0.5,0.0,35.0,-1,0.0,0.4136019999996279
690,10,0.5,0.0625,35.0,-1,0.0,3.550701000000572
691,10,0.5,0.125,-35.0,-1,1.0,0.48390199999994365
692,10,0.5,0.0625,35.0,-1,0.0,0.47120200000017576
693,10,0.3,0.0625,35.0,1,1.0,0.5878009999996721
694,10,0.5,1.0,35.0,1,1.0,0.2978019999995922
695,10,0.5,1.0,35.0,1,1.0,0.4118009999997412
696,10,0.5,0.0,35.0,1,1.0,2.0448019999998905
697,10,0.5,1.0,-35.0,1,0.0,0.19820200000003751
698,10,0.5,0.0,35.0,1,1.0,2.625601000000188
699,10,0.5,0.0,-35.0,1,0.0,0.23880200000030527
700,10,0.5,0.125,35.0,1,1.0,0.6089019999999437
701,10,0.5,0.125,35.0,1,1.0,0.3190020000001823
702,10,0.5,0.125,-35.0,1,0.0,0.7758019999996577
703,10,1.0,0.125,-35.0,1,0.0,0.1562010000002374
704,10,0.5,1.0,-35.0,-1,1.0,0.4795019999996839
705,10,0.5,0.25,-35.0,-1,1.0,0.5136019999999917
706,10,0.5,0.0,35.0,1,1.0,5.4831020000001445
707,10,0.5,0.125,-35.0,1,0.0,2.700101999999788
708,10,0.8,0.125,35.0,1,1.0,1.0902010000004339
709,10,0.5,1.0,-35.0,1,0.0,1.20040199999994
710,10,0.5,0.125,35.0,1,1.0,0.3073010000002796
711,10,0.5,0.0625,35.0,1,1.0,0.5473019999999451
712,10,0.5,0.25,-35.0,-1,1.0,0.3576020000000426
713,10,0.5,0.25,35.0,1,1.0,0.528002000000015
714,10,0.5,0.25,-35.0,1,0.0,0.2010019999997894
715,10,0.5,0.0625,-35.0,1,0.0,0.3479019999999764
716,10,0.5,0.25,-35.0,-1,1.0,0.38830200000029436
717,10,0.5,0.25,-35.0,-1,1.0,0.6550019999999677
718,10,0.5,0.0625,-35.0,1,0.0,0.16150100000004386
719,10,0.5,0.0625,-35.0,-1,1.0,0.3686020000004646
720,10,0.5,1.0,-35.0,-1,1.0,0.26200199999993856
721,10,0.5,0.0625,35.0,-1,0.0,0.5722020000002885
722,10,0.4,0.0625,-35.0,1,0.0,4.322701000000507
723,10,0.5,1.0,35.0,1,1.0,0.41590199999973265
724,10,0.5,0.25,-35.0,-1,1.0,0.6264020000003256
725,10,0.5,1.0,-35.0,-1,1.0,0.8861019999999371
726,10,0.5,0.25,-35.0,1,0.0,0.986500999999862
727,10,0.5,0.0,35.0,1,1.0,2.6164020000001074
728,10,0.5,0.0625,35.0,1,1.0,0.50640199999998
729,10,0.5,1.0,35.0,1,1.0,0.5401010000000497
730,10,0.5,0.0625,35.0,1,1.0,0.9469020000001365
731,10,0.5,1.0,35.0,1,1.0,0.3238010000000031
732,10,0.5,0.0,-35.0,1,0.0,0.7437020000002121
733,10,0.8,0.0,-35.0,-1,1.0,0.334201000000121
734,10,0.5,1.0,-35.0,-1,1.0,0.347501000000193
735,10,0.5,0.25,35.0,1,1.0,0.5342009999999391
736,10,0.5,0.25,35.0,1,1.0,0.24450200000001132
737,10,0.5,1.0,35.0,1,1.0,0.21120200000041223
738,10,0.5,0.125,35.0,1,1.0,0.32150199999978213
739,10,0.5,0.0625,35.0,1,1.0,0.7316019999998389
740,10,0.5,0.0625,-35.0,-1,1.0,0.22150200000032783
741,10,0.5,0.125,35.0,1,1.0,0.3518020000001343
742,10,0.5,0.0,-35.0,-1,1.0,0.15220200000021578
743,10,0.5,0.25,35.0,-1,0.0,0.3885019999997894
744,10,0.6,0.25,35.0,1,1.0,0.19530200000008335
745,10,0.5,1.0,35.0,1,1.0,0.5991020000005847
746,10,0.5,0.125,-35.0,-1,1.0,0.18570199999976467
747,10,0.5,0.25,-35.0,-1,1.0,3.229302000000189
748,10,0.5,0.25,35.0,1,1.0,0.4425019999998767
749,10,0.5,0.25,-35.0,-1,1.0,0.6193010000001777
750,10,0.5,0.125,-35.0,-1,1.0,0.40940100000034363
751,10,0.5,0.0625,35.0,1,1.0,0.21970200000032492
752,10,0.5,0.25,35.0,1,1.0,0.36660200000005716
753,10,0.5,1.0,35.0,1,1.0,0.2533010000001923
754,10,0.5,0.125,35.0,1,1.0,0.283701999999721
755,10,0.5,0.125,35.0,1,1.0,0.3703009999999267
756,10,0.5,0.125,-35.0,-1,1.0,0.44730200000003606
757,10,0.5,1.0,-35.0,-1,1.0,0.19750199999998586
758,10,0.5,1.0,35.0,1,1.0,0.4410020000000259
759,10,0.5,0.25,35.0,-1,0.0,0.19770100000005186
760,10,0.6,0.25,35.0,1,1.0,0.4579020000001037
761,10,0.5,1.0,35.0,1,1.0,1.1046010000004571
762,10,0.5,0.25,35.0,1,1.0,0.22810100000015154
763,10,0.5,0.125,-35.0,1,0.0,1.0682019999999284
764,10,0.7,0.125,-35.0,1,0.0,1.101600999999846
765,10,0.5,1.0,-35.0,-1,1.0,0.2185020000001714
766,10,0.5,0.25,35.0,1,1.0,0.5686009999999442
767,10,0.5,0.0625,-35.0,-1,1.0,0.6488020000001598
768,10,0.5,1.0,-35.0,-1,1.0,0.4487020000001394
769,10,0.5,1.0,35.0,1,1.0,0.2323020000003453
770,10,0.5,0.0,-35.0,1,0.0,0.2625020000000404
771,10,0.7,0.0,-35.0,1,0.0,0.5559010000001763
772,10,0.5,1.0,-35.0,1,0.0,0.18610100000023522
773,10,0.5,0.0625,-35.0,-1,1.0,0.3797010000002956
774,10,0.5,1.0,35.0,1,1.0,0.33300099999996746
775,10,0.5,0.0625,35.0,-1,0.0,0.5900019999999131
776,10,0.5,0.25,-35.0,-1,1.0,0.6035020000003897
777,10,0.5,0.125,-35.0,-1,1.0,0.4136020000000826
778,10,0.5,0.0625,-35.0,-1,1.0,0.34050200000001496
779,10,0.5,0.0625,35.0,1,1.0,0.45370100000036473
780,10,0.5,0.0625,35.0,1,1.0,0.4009009999999762
781,10,0.5,1.0,-35.0,1,0.0,1.514201000000412
782,10,0.5,1.0,35.0,1,1.0,0.4109009999997397
783,10,0.5,1.0,35.0,1,1.0,0.37450200000012046
784,10,0.5,0.0625,35.0,1,1.0,0.29790200000024925
785,10,0.5,1.0,-35.0,-1,1.0,0.4480020000000877
786,10,0.5,1.0,-35.0,-1,1.0,0.45820199999980105
787,10,0.5,0.0,35.0,1,1.0,0.9015020000001641
788,10,0.5,0.125,35.0,1,1.0,0.07170199999973192
789,10,0.5,0.0625,-35.0,1,0.0,0.7253009999999449
790,10,0.5,0.0625,-35.0,-1,1.0,0.8021020000001045
791,10,0.5,0.0,-35.0,-1,1.0,0.9727010000001428
792,10,0.5,0.25,35.0,1,1.0,0.23920099999986633
793,10,0.5,0.25,35.0,1,1.0,0.23920100000032107
794,10,0.5,0.0625,-35.0,1,0.0,0.4359010000002854
795,10,0.5,0.25,35.0,1,1.0,0.4098010000002432
796,10,0.5,0.0,35.0,1,1.0,0.4629010000003291
797,10,0.5,0.0,35.0,-1,0.0,0.8299019999999473
798,10,0.5,0.0625,35.0,1,1.0,0.57310200000029
799,10,0.5,0.125,35.0,1,1.0,0.5434019999997872
800,10,0.5,0.0,35.0,1,1.0,0.9737019999997756
801,10,0.5,0.25,-35.0,-1,1.0,0.5171009999999114
802,10,0.5,1.0,-35.0,-1,1.0,0.4041019999999662
803,10,0.5,0.0625,35.0,1,1.0,0.5475020000003497
804,10,0.5,1.0,-35.0,-1,1.0,0.38440200000013647
805,10,0.5,0.125,35.0,1,1.0,0.18110200000000987
806,10,0.5,0.125,35.0,1,1.0,0.4079019999999218
807,10,0.5,0.25,35.0,1,1.0,0.4279010000004746
808,10,0.5,0.0625,-35.0,-1,1.0,0.43480200000021796
809,10,0.5,0.25,35.0,1,1.0,0.26850100000001476
810,10,0.5,1.0,-35.0,-1,1.0,0.42180099999995946
811,10,0.5,0.25,-35.0,1,0.0,1.6451009999996131
812,10,0.5,0.125,35.0,-1,0.0,0.2189010000001872
813,10,0.5,0.125,35.0,1,1.0,0.4223010000000613
814,10,0.5,0.125,35.0,1,1.0,2.4056009999999333
815,10,0.5,0.0,-35.0,1,0.0,0.9691010000005917
816,10,0.5,0.125,-35.0,-1,1.0,0.4893010000000686
817,10,0.5,0.25,35.0,1,1.0,0.08600200000046243
818,10,0.5,0.0625,35.0,1,1.0,0.3126020000004246
819,10,0.5,0.25,-35.0,-1,1.0,0.3293020000000979
820,10,0.5,0.125,-35.0,-1,1.0,0.5294009999997797
821,10,0.5,0.0625,35.0,1,1.0,0.5563010000000759
822,10,0.5,0.125,-35.0,-1,1.0,1.7665019999999458
823,10,0.5,0.25,-35.0,-1,1.0,0.4600020000002587
824,10,0.5,0.25,-35.0,-1,1.0,0.34660200000007535
825,10,0.5,0.125,-35.0,-1,1.0,0.8468020000000251
826,10,0.5,0.125,-35.0,-1,1.0,0.7403020000001561
827,10,0.5,0.125,-35.0,-1,1.0,0.39710199999990436
828,10,0.5,0.25,35.0,1,1.0,0.3140010000001894
829,10,0.5,0.0,-35.0,1,0.0,0.5407020000002376
830,10,0.5,0.25,-35.0,-1,1.0,0.5542020000002594
831,10,0.5,1.0,35.0,1,1.0,0.2645020000004479
832,10,0.5,1.0,-35.0,-1,1.0,0.47120100000029197
833,10,0.5,1.0,-35.0,-1,1.0,0.18810100000018792
834,10,0.5,0.125,35.0,1,1.0,0.43830199999956676
835,10,0.5,1.0,-35.0,-1,1.0,0.5451020000000426
836,10,0.5,1.0,-35.0,-1,1.0,0.521802000000207
837,10,0.5,0.25,-35.0,-1,1.0,0.485302000000047
838,10,0.5,0.25,35.0,1,1.0,1.5853010000000722
839,10,0.5,0.0,35.0,1,1.0,1.2991009999996095
840,10,0.5,1.0,35.0,1,1.0,0.5291019999999662
841,10,0.5,0.25,35.0,1,1.0,0.3825010000000475
842,10,0.5,0.0,35.0,1,1.0,0.1593020000004799
843,10,0.5,0.25,35.0,1,1.0,0.30940099999997983
844,10,0.5,1.0,35.0,1,1.0,0.2931020000000899
845,10,0.5,0.0,-35.0,1,0.0,2.883201999999983
846,10,0.5,0.25,-35.0,-1,1.0,0.6068019999997887
847,10,0.5,0.25,35.0,1,1.0,0.49350100000037855
848,10,0.5,0.125,35.0,1,1.0,0.467000999999982
849,10,0.5,0.0625,-35.0,1,0.0,1.0372010000005503
850,10,0.5,0.25,35.0,1,1.0,0.674000999999862
851,10,0.5,1.0,-35.0,-1,1.0,0.3907009999998081
852,10,0.5,0.25,35.0,1,1.0,0.2809019999999691
853,10,0.5,0.125,35.0,1,1.0,0.3077010000001792
854,10,0.5,0.125,-35.0,1,0.0,0.5778019999997923
855,10,0.5,0.125,-35.0,-1,1.0,0.7413019999999051
856,10,0.5,1.0,35.0,1,1.0,0.4347020000000157
857,10,0.5,1.0,-35.0,-1,1.0,0.5915020000002187
858,10,0.5,0.25,-35.0,-1,1.0,0.5482010000000628
859,10,0.5,1.0,35.0,1,1.0,0.3384009999999762
860,10,0.5,1.0,-35.0,-1,1.0,0.29850200000009863
861,10,0.5,0.25,-35.0,1,0.0,0.1586019999999735
862,10,0.6,0.25,-35.0,1,0.0,0.19540199999983088
863,10,0.5,1.0,35.0,1,1.0,0.39890100000047823
864,10,0.5,0.0,35.0,1,1.0,4.345800999999938
865,10,0.5,0.0625,-35.0,-1,1.0,0.6426019999998971
866,10,0.5,0.0625,-35.0,1,0.0,0.26610200000004625
867,10,0.5,0.0625,35.0,1,1.0,0.21630099999993035
868,10,0.5,0.0625,35.0,1,1.0,0.39640200000030745
869,10,0.5,0.0625,-35.0,-1,1.0,0.7097010000002228
870,10,0.5,1.0,35.0,1,1.0,0.2699010000005728
871,10,0.5,0.125,35.0,-1,0.0,1.6167020000002594
872,10,0.5,0.0,35.0,1,1.0,0.370202000000063
873,10,0.5,0.25,-35.0,-1,1.0,0.35710100000005696
874,10,0.5,0.125,-35.0,1,0.0,4.437102000000323
875,10,0.5,0.0,-35.0,-1,1.0,0.30410100000017337
876,10,0.5,0.25,35.0,1,1.0,0.5309009999996306
877,10,0.5,1.0,35.0,1,1.0,0.2211010000000897
878,10,0.5,0.125,-35.0,1,0.0,2.5145010000001093
879,10,0.5,0.25,-35.0,-1,1.0,0.7581020000002354
880,10,0.5,0.0625,35.0,1,1.0,0.2882019999997283
881,10,0.5,0.0625,-35.0,1,0.0,1.3855020000000877
882,10,0.5,0.125,-35.0,-1,1.0,4.035502000000179
883,10,0.5,0.125,-35.0,-1,1.0,0.17940200000020923
884,10,0.5,0.125,-35.0,-1,1.0,0.28250100000013845
885,10,0.5,1.0,-35.0,-1,1.0,0.4794010000000526
886,10,0.5,0.125,-35.0,1,0.0,0.21950200000037512
887,10,0.5,0.25,-35.0,-1,1.0,0.5995020000004843
888,10,0.5,0.125,35.0,1,1.0,0.46370100000012826
889,10,0.5,1.0,-35.0,-1,1.0,0.2367020000001503
890,10,0.5,1.0,35.0,1,1.0,0.4767010000000482
891,10,0.5,0.25,35.0,1,1.0,0.5171009999999114
892,10,0.5,0.25,35.0,1,1.0,0.7640019999998913
893,10,0.5,0.0625,-35.0,-1,1.0,0.30400200000030964
894,10,0.5,0.0625,35.0,1,1.0,0.22120100000029197
895,10,0.5,1.0,-35.0,-1,1.0,0.574601000000257
896,10,0.5,1.0,-35.0,-1,1.0,0.30110100000001694
897,10,0.5,0.125,-35.0,-1,1.0,3.001201999999921
898,10,0.5,0.0,35.0,1,1.0,0.40510100000028615
899,10,0.5,1.0,-35.0,-1,1.0,0.5349019999998745
900,10,0.5,0.0,-35.0,-1,1.0,0.2616019999995842
901,10,0.5,0.0625,-35.0,1,0.0,0.15190100000017992
902,10,0.5,0.0625,35.0,1,1.0,0.3887020000006487
903,10,0.5,0.125,-35.0,-1,1.0,0.592801000000236
1,11,0.5,1.0,-35.0,-1,1.0,0.6132
2,11,0.5,0.125,-35.0,-1,1.0,2.366900000000003
3,11,0.5,0.0625,35.0,-1,0.0,0.628700000000002
4,11,0.5,0.0625,35.0,-1,0.0,0.6332000000000022
5,11,0.5,0.0,-35.0,-1,1.0,0.5926000000000009
6,11,0.5,0.125,-35.0,-1,1.0,0.20930000000000248
7,11,0.5,0.125,-35.0,-1,1.0,0.3794000000000004
8,11,0.5,0.125,-35.0,-1,1.0,0.33180000000000476
9,11,0.5,0.25,-35.0,-1,1.0,0.32550000000000523
10,11,0.5,0.125,-35.0,-1,1.0,0.37930000000000064
11,11,0.5,0.25,35.0,1,1.0,3.8468000000000018
12,11,0.5,0.0625,-35.0,-1,1.0,0.3094999999999999
13,11,0.5,0.25,-35.0,-1,1.0,0.9959999999999951
14,11,0.5,0.0,35.0,-1,0.0,3.5634000000000086
15,11,0.1,0.0,35.0,1,1.0,1.5161999999999978
16,11,0.5,1.0,35.0,1,1.0,3.2822999999999993
17,11,0.5,0.25,35.0,1,1.0,0.30519999999999925
18,11,0.5,0.25,35.0,1,1.0,0.5064999999999884
19,11,0.5,0.0625,35.0,-1,0.0,1.7845999999999975
20,11,0.5,0.125,-35.0,-1,1.0,1.0254999999999939
21,11,0.5,0.0625,35.0,1,1.0,1.5738000000000056
22,11,0.5,0.0,-35.0,-1,1.0,1.1321999999999974
23,11,0.5,1.0,35.0,1,1.0,0.6015999999999906
24,11,0.5,1.0,35.0,1,1.0,3.695700000000002
25,11,0.5,0.0,-35.0,-1,1.0,1.9154999999999944
26,11,0.5,0.25,-35.0,-1,1.0,0.33970000000000766
27,11,0.5,0.0625,-35.0,-1,1.0,3.4639000000000095
28,11,0.5,0.0625,35.0,-1,0.0,0.2272999999999996
29,11,0.5,0.25,35.0,1,1.0,0.835000000000008
30,11,0.5,0.25,35.0,1,1.0,0.3500000000000085
31,11,0.5,0.25,35.0,1,1.0,1.923099999999991
32,11,0.5,0.125,-35.0,-1,1.0,0.26439999999999486
33,11,0.5,0.25,-35.0,-1,1.0,0.27309999999999945
34,11,0.5,1.0,35.0,1,1.0,0.5618999999999943
35,11,0.5,0.0,35.0,-1,0.0,0.6515999999999735
36,11,0.5,0.25,-35.0,-1,1.0,0.3521999999999821
37,11,0.5,0.125,35.0,1,1.0,5.015099999999961
38,11,0.5,0.0625,35.0,-1,0.0,3.1153999999999655
39,11,0.5,0.0625,35.0,1,1.0,0.48299999999997567
40,11,0.5,1.0,35.0,1,1.0,2.625199999999978
41,11,0.5,1.0,35.0,1,1.0,0.36230000000000473
42,11,0.5,0.0625,-35.0,-1,1.0,0.3628999999999962
43,11,0.5,0.25,-35.0,-1,1.0,2.2664000000000044
44,11,0.5,0.0,35.0,-1,0.0,0.3751000000000033
45,11,0.5,0.25,35.0,1,1.0,0.4602999999999611
46,11,0.5,0.0625,35.0,-1,0.0,0.5264999999999986
47,11,0.5,0.25,-35.0,-1,1.0,0.37709999999998445
48,11,0.5,0.25,35.0,1,1.0,3.129999999999967
49,11,0.5,0.125,-35.0,-1,1.0,0.2750999999999806
50,11,0.5,0.125,35.0,1,1.0,0.4703999999999837
51,11,0.5,0.25,-35.0,-1,1.0,0.46529999999998495
52,11,0.5,0.25,-35.0,-1,1.0,2.2273999999999887
53,11,0.5,0.125,35.0,1,1.0,0.45779999999996335
54,11,0.5,0.0,-35.0,-1,1.0,0.6338999999999828
55,11,0.5,0.125,-35.0,-1,1.0,0.5581999999999709
56,11,0.5,0.0625,-35.0,-1,1.0,2.538499999999999
57,11,0.5,1.0,35.0,1,1.0,1.0883000000000038
58,11,0.5,1.0,-35.0,-1,1.0,0.2430999999999699
59,11,0.5,0.125,-35.0,-1,1.0,0.3821999999999832
60,11,0.5,1.0,-35.0,-1,1.0,0.3661000000000172
61,11,0.5,0.125,35.0,1,1.0,2.5315999999999974
62,11,0.5,0.125,35.0,1,1.0,1.1851000000000056
63,11,0.5,0.125,35.0,1,1.0,3.443299999999965
64,11,0.5,0.0,35.0,1,1.0,0.4240999999999815
65,11,0.5,0.125,35.0,-1,0.0,1.823299999999989
66,11,0.5,0.125,-35.0,-1,1.0,0.4422999999999604
67,11,0.5,1.0,-35.0,-1,1.0,0.23619999999999663
68,11,0.5,0.25,35.0,1,1.0,4.223199999999991
69,11,0.5,0.125,-35.0,1,0.0,3.1242000000000303
70,11,0.5,0.0,35.0,-1,0.0,0.24139999999999873
71,11,0.5,0.125,-35.0,1,0.0,0.40349999999995134
72,11,0.5,0.25,35.0,1,1.0,0.9603000000000179
73,11,0.5,0.25,-35.0,-1,1.0,0.3498000000000161
74,11,0.5,0.0,-35.0,-1,1.0,1.3444000000000642
75,11,0.5,0.0625,35.0,-1,0.0,1.3865000000000123
76,11,0.4,0.0625,-35.0,-1,1.0,1.0872999999999706
77,11,0.5,1.0,35.0,1,1.0,4.096000000000004
78,11,0.5,1.0,35.0,1,1.0,0.9180000000000632
79,11,0.5,1.0,-35.0,-1,1.0,0.32159999999998945
80,11,0.5,1.0,35.0,1,1.0,0.42610000000001946
81,11,0.5,0.0625,-35.0,-1,1.0,0.5520999999999958
82,11,0.5,1.0,-35.0,-1,1.0,0.5855000000000246
83,11,0.5,1.0,-35.0,-1,1.0,0.8945999999999685
84,11,0.5,1.0,-35.0,-1,1.0,0.7273000000000707
85,11,0.5,0.25,-35.0,-1,1.0,0.28239999999999554
86,11,0.5,1.0,-35.0,-1,1.0,0.32929999999998927
87,11,0.5,0.125,35.0,1,1.0,1.841600000000028
88,11,0.5,0.125,35.0,1,1.0,0.5361000000000331
89,11,0.5,0.25,35.0,1,1.0,3.117400000000032
90,11,0.5,0.25,-35.0,-1,1.0,0.771699999999953
91,11,0.5,0.25,35.0,1,1.0,5.633599999999944
92,11,0.5,1.0,-35.0,-1,1.0,0.2676000000000158
93,11,0.5,0.25,-35.0,-1,1.0,0.2795000000000414
94,11,0.5,0.0625,-35.0,-1,1.0,0.33940000000006876
95,11,0.5,1.0,-35.0,-1,1.0,0.32830000000006976
96,11,0.5,0.125,-35.0,-1,1.0,0.24660000000000082
97,11,0.5,0.25,35.0,1,1.0,0.45340100000004213
98,11,0.5,0.25,-35.0,-1,1.0,0.2943010000000186
99,11,0.5,0.0,-35.0,-1,1.0,0.4818010000000186
100,11,0.5,0.0,-35.0,-1,1.0,1.849501000000032
101,11,0.5,0.0625,-35.0,-1,1.0,0.9361010000000078
102,11,0.5,0.125,35.0,-1,0.0,0.18720100000001594
103,11,0.5,0.25,-35.0,-1,1.0,0.6327010000000541
104,11,0.5,0.25,35.0,1,1.0,1.4244010000000458
105,11,0.5,0.125,-35.0,-1,1.0,0.3183010000000195
106,11,0.5,0.25,35.0,1,1.0,0.5465010000000348
107,11,0.5,0.125,-35.0,-1,1.0,0.21460100000007287
108,11,0.5,0.0,-35.0,-1,1.0,0.45140099999997574
109,11,0.5,0.0625,-35.0,-1,1.0,0.42390100000000075
110,11,0.5,1.0,35.0,1,1.0,0.4616009999999733
111,11,0.5,0.0625,-35.0,-1,1.0,0.30170100000003686
112,11,0.5,1.0,35.0,1,1.0,0.5536010000000147
113,11,0.5,0.0625,-35.0,1,0.0,3.123500999999976
114,11,0.5,0.25,35.0,1,1.0,0.494500999999957
115,11,0.5,1.0,35.0,1,1.0,0.545701000000065
116,11,0.5,1.0,35.0,1,1.0,1.4568009999999845
117,11,0.5,0.0625,-35.0,-1,1.0,0.4953010000000404
118,11,0.5,0.0625,-35.0,-1,1.0,1.096700999999996
119,11,0.5,0.0,-35.0,1,0.0,3.8008010000000354
120,11,0.5,0.0625,35.0,-1,0.0,0.6696010000000001
121,11,0.5,0.0625,-35.0,-1,1.0,0.1486009999999851
122,11,0.5,0.0,-35.0,-1,1.0,0.41710100000005923
123,11,0.5,0.0625,35.0,-1,0.0,1.4287009999999896
124,11,0.5,0.0625,35.0,-1,0.0,0.6949010000000158
125,11,0.5,0.125,-35.0,-1,1.0,0.26050099999997656
126,11,0.5,0.25,35.0,1,1.0,0.8057009999999991
127,11,0.5,0.125,35.0,1,1.0,3.1997010000000614
128,11,0.5,1.0,-35.0,-1,1.0,0.2875010000000202
129,11,0.5,0.25,-35.0,-1,1.0,0.35900100000003476
130,11,0.5,1.0,35.0,1,1.0,1.0866010000000301
131,11,0.5,0.25,-35.0,-1,1.0,0.10260100000004968
132,11,0.5,0.125,-35.0,-1,1.0,1.1131010000000288
133,11,0.5,0.125,35.0,-1,0.0,0.39280100000001994
134,11,0.5,0.0625,35.0,-1,0.0,0.4060010000000034
135,11,0.5,0.25,-35.0,1,0.0,0.3587010000000532
136,11,0.5,0.25,-35.0,-1,1.0,0.4118010000000254
137,11,0.5,0.125,35.0,1,1.0,4.723701000000062
138,11,0.5,0.25,35.0,1,1.0,3.124100999999996
139,11,0.5,0.0625,-35.0,-1,1.0,0.3587009999999964
140,11,0.5,0.0,-35.0,-1,1.0,1.061001000000033
141,11,0.5,0.25,35.0,1,1.0,3.1532009999999673
142,11,0.5,0.25,-35.0,-1,1.0,0.19180100000005496
143,11,0.5,0.125,-35.0,-1,1.0,0.3261009999999942
144,11,0.5,0.25,-35.0,-1,1.0,0.2677009999999882
145,11,0.5,0.25,35.0,1,1.0,2.236801000000014
146,11,0.5,1.0,35.0,1,1.0,5.720101
147,11,0.5,0.125,35.0,-1,0.0,3.923800999999912
148,11,0.5,0.125,35.0,-1,0.0,0.8233010000000149
149,11,0.5,0.25,-35.0,1,0.0,0.19210099999997965
150,11,0.5,0.25,-35.0,-1,1.0,0.42600099999992835
151,11,0.5,1.0,-35.0,-1,1.0,0.3623009999998885
152,11,0.5,0.125,-35.0,1,0.0,7.184900999999968
153,11,0.5,0.125,35.0,-1,0.0,0.7458009999999149
154,11,0.5,0.25,35.0,1,1.0,4.955001000000038
155,11,0.5,0.0625,35.0,1,1.0,0.657600999999886
156,11,0.5,0.0,35.0,-1,0.0,0.3439009999999598
157,11,0.5,0.0625,-35.0,-1,1.0,0.4413009999998394
158,11,0.5,0.0625,35.0,1,1.0,4.405100999999945
159,11,0.5,0.0625,35.0,1,1.0,0.61420099999998
160,11,0.5,1.0,-35.0,-1,1.0,0.32120099999985996
161,11,0.5,0.25,-35.0,-1,1.0,5.49330099999986
162,11,0.5,0.0625,35.0,1,1.0,5.509200999999962
163,11,0.5,0.0625,35.0,1,1.0,7.305500999999936
164,11,0.5,0.25,-35.0,-1,1.0,0.5490010000000893
165,11,0.5,0.25,-35.0,-1,1.0,0.2660009999998465
166,11,0.5,0.0625,-35.0,-1,1.0,0.24240099999997256
167,11,0.5,0.125,-35.0,-1,1.0,1.5174010000000635
168,11,0.5,0.0,-35.0,-1,1.0,0.7690010000000029
169,11,0.5,0.25,-35.0,-1,1.0,0.10890099999994618
170,11,0.5,0.125,-35.0,1,0.0,4.273300999999947
171,11,0.5,0.0,-35.0,-1,1.0,0.7568009999999958
172,11,0.5,0.25,35.0,1,1.0,2.5253009999998994
173,11,0.5,0.0,35.0,-1,0.0,0.5681009999998423
174,11,0.5,0.125,35.0,1,1.0,1.1332009999999855
175,11,0.5,0.0625,-35.0,-1,1.0,0.5717009999999618
176,11,0.5,0.25,-35.0,-1,1.0,0.3570009999998547
177,11,0.5,0.125,-35.0,-1,1.0,0.41420099999993454
178,11,0.5,1.0,-35.0,-1,1.0,0.37590099999999893
179,11,0.5,0.0625,35.0,1,1.0,3.6421009999999114
180,11,0.5,0.0625,35.0,1,1.0,4.2483009999999695
181,11,0.5,0.25,35.0,1,1.0,5.540300999999886
182,11,0.5,0.0625,35.0,1,1.0,1.7735009999998965
183,11,0.5,0.0,35.0,-1,0.0,0.6603009999998903
184,11,0.5,0.125,-35.0,-1,1.0,2.148001000000022
185,11,0.5,1.0,35.0,1,1.0,7.151500999999939
186,11,0.5,0.0,35.0,-1,0.0,0.3182009999999309
187,11,0.5,0.125,35.0,1,1.0,0.382300999999984
188,11,0.5,0.0625,35.0,-1,0.0,0.3426010000000588
189,11,0.5,0.125,35.0,1,1.0,0.458800999999994
190,11,0.5,0.25,-35.0,-1,1.0,0.3467009999999391
191,11,0.5,0.125,-35.0,-1,1.0,0.37930099999994127
192,11,0.5,1.0,-35.0,-1,1.0,0.33530099999995855
193,11,0.5,1.0,35.0,1,1.0,0.7121009999999615
194,11,0.5,0.125,-35.0,1,0.0,2.840300999999954
195,11,0.5,0.125,35.0,1,1.0,0.36320100000000366
196,11,0.5,0.0,-35.0,1,0.0,5.831801000000041
197,11,0.5,0.0625,-35.0,-1,1.0,0.6246009999998705
198,11,0.5,0.125,35.0,1,1.0,1.0870009999999866
199,11,0.5,1.0,35.0,1,1.0,1.007400999999959
200,11,0.5,0.25,-35.0,-1,1.0,0.7483010000000831
201,11,0.5,0.25,35.0,1,1.0,0.7200010000000248
202,11,0.5,0.125,-35.0,1,0.0,6.403600999999981
203,11,0.5,0.125,35.0,1,1.0,0.34350099999994654
204,11,0.5,0.125,35.0,1,1.0,0.46040100000004713
205,11,0.5,1.0,-35.0,-1,1.0,0.26480099999992035
206,11,0.5,0.0625,-35.0,-1,1.0,1.0133009999999558
207,11,0.5,0.0625,-35.0,-1,1.0,2.764300999999932
208,11,0.5,0.0,-35.0,1,0.0,6.637500999999929
209,11,0.5,0.25,35.0,-1,0.0,0.25240099999996346
210,11,0.5,0.0625,-35.0,-1,1.0,0.40760099999999966
211,11,0.5,0.125,-35.0,-1,1.0,0.35360099999991235
212,11,0.5,1.0,35.0,1,1.0,0.38140099999998256
213,11,0.5,0.125,-35.0,-1,1.0,0.3056010000000242
214,11,0.5,1.0,-35.0,-1,1.0,0.524400999999898
215,11,0.5,0.0625,35.0,1,1.0,1.8874009999999544
216,11,0.5,0.0625,35.0,-1,0.0,0.7783009999999422
217,11,0.3,0.0625,-35.0,-1,1.0,0.431500999999912
218,11,0.5,1.0,-35.0,-1,1.0,0.2734009999999216
219,11,0.5,0.0,-35.0,1,0.0,3.4233010000000377
220,11,0.5,0.125,-35.0,-1,1.0,0.9045010000000957
221,11,0.5,0.0625,35.0,-1,0.0,0.44850099999996473
222,11,0.3,0.0625,-35.0,1,0.0,0.22790099999997437
223,11,0.5,1.0,35.0,1,1.0,0.7507009999999354
224,11,0.5,0.125,-35.0,-1,1.0,0.38710100000002967
225,11,0.5,0.125,-35.0,-1,1.0,0.18250100000000202
226,11,0.5,1.0,35.0,1,1.0,0.6965009999998983
227,11,0.5,0.125,35.0,-1,0.0,3.691500999999903
228,11,0.5,0.0625,35.0,-1,0.0,0.39000099999998383
229,11,0.5,0.0625,-35.0,-1,1.0,0.390500999999972
230,11,0.5,0.0625,-35.0,-1,1.0,0.623501000000033
231,11,0.5,1.0,35.0,-1,0.0,0.14200099999993654
232,11,0.5,0.25,-35.0,-1,1.0,0.37590099999999893
233,11,0.5,0.25,35.0,1,1.0,6.02880099999993
234,11,0.5,1.0,-35.0,-1,1.0,0.27870099999995546
235,11,0.5,0.125,-35.0,-1,1.0,0.21900099999993472
236,11,0.5,1.0,35.0,1,1.0,0.43800099999998565
237,11,0.5,0.0,35.0,-1,0.0,0.8806009999998423
238,11,0.5,0.0625,-35.0,1,0.0,0.2722009999999955
239,11,0.5,0.0625,-35.0,-1,1.0,0.43450099999995473
240,11,0.5,0.25,-35.0,-1,1.0,0.2936010000000806
241,11,0.5,0.125,-35.0,-1,1.0,0.36950100000001385
242,11,0.5,0.125,-35.0,-1,1.0,0.4989010000000462
243,11,0.5,1.0,-35.0,-1,1.0,0.283600999999976
244,11,0.5,0.125,35.0,1,1.0,5.694500999999946
245,11,0.5,0.0625,35.0,1,1.0,0.8112009999999827
246,11,0.5,0.25,-35.0,-1,1.0,0.34270099999992
247,11,0.5,0.25,-35.0,1,0.0,4.990400999999906
248,11,0.5,0.0,-35.0,1,0.0,0.6734010000000126
249,11,0.5,0.125,35.0,1,1.0,0.5237009999998463
250,11,0.5,0.125,-35.0,-1,1.0,0.7223010000000158
251,11,0.5,0.25,-35.0,-1,1.0,0.35360099999991235
252,11,0.5,0.0625,-35.0,-1,1.0,0.3768010000000004
253,11,0.5,0.25,35.0,-1,0.0,0.6734010000000126
254,11,0.5,0.125,35.0,1,1.0,0.38990100000000893
255,11,0.5,0.0625,-35.0,-1,1.0,1.3700009999998883
256,11,0.5,0.125,35.0,1,1.0,0.8104009999999562
257,11,0.5,0.125,-35.0,-1,1.0,5.300800999999979
258,11,0.5,0.0625,-35.0,-1,1.0,0.687701000000061
259,11,0.5,0.25,35.0,1,1.0,0.8640010000001439
260,11,0.5,0.125,-35.0,-1,1.0,0.46770100000026105
261,11,0.5,0.125,-35.0,-1,1.0,0.3077009999999518
262,11,0.5,1.0,35.0,1,1.0,4.187801000000036
263,11,0.5,0.0625,35.0,1,1.0,5.044701000000259
264,11,0.5,0.0,35.0,1,1.0,0.6983009999999013
265,11,0.5,1.0,-35.0,-1,1.0,0.19880100000000311
266,11,0.5,0.25,35.0,1,1.0,3.9387010000000373
267,11,0.5,0.25,-35.0,-1,1.0,0.2755010000000766
268,11,0.5,0.125,35.0,1,1.0,0.2790010000001075
269,11,0.5,0.25,-35.0,-1,1.0,0.40580099999988306
270,11,0.5,0.0625,35.0,1,1.0,1.7992010000000391
271,11,0.5,1.0,-35.0,-1,1.0,0.48610100000018974
272,11,0.5,0.0,35.0,1,1.0,5.779301000000032
273,11,0.5,0.0625,35.0,-1,0.0,2.6498009999997976
274,11,0.5,0.0,35.0,-1,0.0,0.34330100000011043
275,11,0.5,0.125,35.0,-1,0.0,0.27030100000001767
276,11,0.5,0.0625,35.0,1,1.0,1.6470010000000457
277,11,0.5,0.125,-35.0,-1,1.0,0.2670010000001639
278,11,0.5,0.0625,-35.0,-1,1.0,10.867201000000023
279,11,0.5,0.125,-35.0,-1,1.0,0.6979010000000017
280,11,0.5,0.0625,-35.0,-1,1.0,0.7413010000000213
281,11,0.5,0.0,35.0,1,1.0,4.901301000000103
282,11,0.5,0.0625,35.0,1,1.0,0.4750010000000202
283,11,0.5,0.25,35.0,1,1.0,4.385001000000102
284,11,0.5,0.0625,-35.0,-1,1.0,0.5091010000001006
285,11,0.5,1.0,35.0,1,1.0,6.305501000000049
286,11,0.5,0.125,35.0,1,1.0,1.4525010000002112
287,11,0.5,0.0625,35.0,1,1.0,6.066501000000017
288,11,0.5,1.0,-35.0,-1,1.0,0.2699010000001181
289,11,0.5,0.0625,-35.0,-1,1.0,0.17320100000006278
290,11,0.5,1.0,-35.0,-1,1.0,0.2933010000001559
291,11,0.5,0.125,35.0,1,1.0,0.37370099999998274
292,11,0.5,0.25,-35.0,-1,1.0,0.2470010000001821
293,11,0.5,0.125,35.0,1,1.0,0.4771010000001752
294,11,0.5,1.0,35.0,1,1.0,0.39380099999993945
295,11,0.5,0.0625,35.0,1,1.0,7.860401000000138
296,11,0.5,1.0,35.0,1,1.0,0.37120099999992817
297,11,0.5,0.125,35.0,1,1.0,0.5747010000000046
298,11,0.5,0.25,35.0,1,1.0,0.39780100000007224
299,11,0.5,0.0625,35.0,1,1.0,0.554801000000225
300,11,0.5,0.25,-35.0,-1,1.0,0.44440099999997074
301,11,0.5,0.0625,35.0,1,1.0,0.9548009999998612
302,11,0.5,1.0,35.0,1,1.0,0.3682010000002265
303,11,0.5,0.0625,35.0,-1,0.0,0.36480100000017046
304,11,0.8,0.0625,35.0,1,1.0,2.7751009999999496
305,11,0.5,1.0,-35.0,-1,1.0,0.40190099999995255
306,11,0.5,1.0,-35.0,-1,1.0,0.27850100000000566
307,11,0.5,0.0,-35.0,1,0.0,7.092201000000159
308,11,0.6,0.0,-35.0,-1,1.0,1.5523010000001705
309,11,0.5,1.0,35.0,1,1.0,3.68640100000016
310,11,0.5,0.0,35.0,1,1.0,3.599900999999818
311,11,0.5,0.125,-35.0,-1,1.0,0.2996009999999387
312,11,0.5,0.0625,35.0,1,1.0,4.866601000000173
313,11,0.5,0.125,-35.0,-1,1.0,0.2534009999999398
314,11,0.5,0.25,35.0,1,1.0,0.3767010000001392
315,11,0.5,0.125,-35.0,-1,1.0,0.31020100000023376
316,11,0.5,1.0,-35.0,-1,1.0,0.25040100000001075
317,11,0.5,0.0625,35.0,1,1.0,0.6237009999999827
318,11,0.5,1.0,-35.0,-1,1.0,0.3238010000000031
319,11,0.5,0.25,-35.0,-1,1.0,0.2872010000000955
320,11,0.5,1.0,35.0,1,1.0,0.3575010000001839
321,11,0.5,1.0,35.0,1,1.0,0.29420100000015736
322,11,0.5,0.25,35.0,1,1.0,0.46430099999997765
323,11,0.5,0.0,-35.0,1,0.0,1.921000999999933
324,11,0.5,0.125,35.0,-1,0.0,0.5783010000002378
325,11,0.5,0.0625,-35.0,1,0.0,0.7215009999999893
326,11,0.5,0.125,-35.0,-1,1.0,0.3053010000000995
327,11,0.5,0.0625,35.0,-1,0.0,0.32530100000008133
328,11,0.5,0.0625,35.0,1,1.0,0.5552009999998972
329,11,0.5,1.0,-35.0,-1,1.0,0.35520100000007915
330,11,0.5,0.125,35.0,1,1.0,0.43200100000012753
331,11,0.5,0.25,35.0,1,1.0,0.35890100000005987
332,11,0.5,0.0625,35.0,1,1.0,0.8493009999999686
333,11,0.5,0.25,35.0,1,1.0,0.8623010000003433
334,11,0.5,1.0,35.0,1,1.0,0.4859010000000126
335,11,0.5,0.0625,-35.0,-1,1.0,0.3427010000000337
336,11,0.5,0.25,35.0,1,1.0,0.48950100000024577
337,11,0.5,0.0,35.0,-1,0.0,0.33630100000027596
338,11,0.5,0.0,-35.0,1,0.0,0.06640100000004168
339,11,0.5,0.25,35.0,1,1.0,0.3534010000003036
340,11,0.5,1.0,-35.0,-1,1.0,0.3098010000001068
341,11,0.5,0.0,35.0,1,1.0,5.3665010000001985
342,11,0.5,0.0,35.0,1,1.0,0.2804000000000997
343,11,0.5,0.0625,35.0,1,1.0,0.4038010000003851
344,11,0.5,0.0625,35.0,1,1.0,0.5571010000001024
345,11,0.5,0.25,35.0,1,1.0,0.5074010000000726
346,11,0.5,0.0625,-35.0,1,0.0,0.561001000000033
347,11,0.5,0.125,-35.0,1,0.0,0.6742010000002665
348,11,0.5,0.125,-35.0,1,0.0,0.8876009999999042
349,11,0.9,0.125,-35.0,-1,1.0,0.6611009999999169
350,11,0.5,1.0,-35.0,-1,1.0,0.39150100000006205
351,11,0.5,0.0625,-35.0,-1,1.0,0.31150099999990744
352,11,0.5,0.125,-35.0,-1,1.0,0.4249009999998634
353,11,0.5,0.125,-35.0,-1,1.0,0.4516009999999824
354,11,0.5,0.0625,-35.0,-1,1.0,0.3218010000000504
355,11,0.5,0.0625,-35.0,-1,1.0,0.378601000000117
356,11,0.5,0.125,-35.0,-1,1.0,0.275501000000304
357,11,0.5,0.0625,-35.0,-1,1.0,0.6820009999999002
358,11,0.5,0.25,35.0,1,1.0,0.5021010000000388
359,11,0.5,0.125,35.0,1,1.0,1.0256010000000515
360,11,0.5,0.0,35.0,1,1.0,2.302600999999868
361,11,0.5,0.125,35.0,1,1.0,0.3262010000000828
362,11,0.5,0.0625,-35.0,-1,1.0,0.34300100000018574
363,11,0.5,1.0,35.0,1,1.0,0.44360100000017155
364,11,0.5,1.0,-35.0,-1,1.0,0.2535009999999147
365,11,0.5,0.25,35.0,1,1.0,0.4670010000002094
366,11,0.5,0.125,-35.0,-1,1.0,0.3237010000000282
367,11,0.5,0.0625,35.0,-1,0.0,0.32340099999987615
368,11,0.5,0.125,35.0,1,1.0,0.4370010000000093
369,11,0.5,0.0625,35.0,1,1.0,7.707101000000193
370,11,0.5,0.25,35.0,1,1.0,0.40760100000011334
371,11,0.5,0.0625,35.0,1,1.0,0.5377010000001974
372,11,0.5,1.0,35.0,1,1.0,0.44760100000007697
373,11,0.5,0.0,-35.0,-1,1.0,1.294601000000057
374,11,0.5,0.0625,-35.0,-1,1.0,0.3379010000001017
375,11,0.5,1.0,-35.0,-1,1.0,0.9386010000000624
376,11,0.5,0.0625,35.0,1,1.0,6.251501000000189
377,11,0.5,0.125,35.0,1,1.0,0.2752010000001519
378,11,0.5,0.0,35.0,-1,0.0,1.1619010000001708
379,11,0.5,0.25,-35.0,-1,1.0,0.372101000000157
380,11,0.5,0.125,-35.0,-1,1.0,0.32260100000007697
381,11,0.5,0.0625,35.0,1,1.0,3.8457009999999627
382,11,0.5,0.125,-35.0,-1,1.0,0.3160009999999147
383,11,0.5,0.0625,35.0,1,1.0,0.4859010000000126
384,11,0.5,0.25,35.0,1,1.0,0.38280100000019956
385,11,0.5,0.125,35.0,1,1.0,5.512901000000056
386,11,0.5,0.25,-35.0,-1,1.0,0.30990100000030907
387,11,0.5,0.125,35.0,1,1.0,0.5098010000001523
388,11,0.5,0.0,-35.0,1,0.0,3.89340100000004
389,11,0.5,0.0,-35.0,1,0.0,0.4168010000000777
390,11,0.5,0.0,35.0,-1,0.0,0.7207009999999627
391,11,0.5,0.125,-35.0,-1,1.0,0.4573009999999158
392,11,0.5,0.125,35.0,1,1.0,5.557300999999825
393,11,0.5,0.0625,-35.0,-1,1.0,0.894800000000032
394,11,0.5,0.125,-35.0,-1,1.0,0.7079010000002199
395,11,0.5,0.0,-35.0,-1,1.0,0.30870100000015555
396,11,0.5,0.0,35.0,-1,0.0,0.2216009999999642
397,11,0.5,0.0625,35.0,1,1.0,0.44180100000016864
398,11,0.5,1.0,35.0,1,1.0,0.48890099999994163
399,11,0.5,0.125,35.0,1,1.0,5.098801000000094
400,11,0.5,0.125,-35.0,-1,1.0,0.28260100000011334
401,11,0.5,0.25,35.0,1,1.0,0.47240099999999074
402,11,0.5,1.0,35.0,1,1.0,0.36290100000019265
403,11,0.5,0.0625,35.0,1,1.0,0.42600100000004204
404,11,0.5,0.0,-35.0,1,0.0,0.4061010000002625
405,11,0.5,0.0625,35.0,1,1.0,0.6130010000001676
406,11,0.5,0.0625,-35.0,-1,1.0,0.33300100000019484
407,11,0.5,0.25,-35.0,-1,1.0,0.413101000000097
408,11,0.5,0.25,-35.0,-1,1.0,1.1571010000000115
409,11,0.5,1.0,-35.0,-1,1.0,0.23690099999976155
410,11,0.5,0.125,-35.0,-1,1.0,0.33030100000019047
411,11,0.5,1.0,35.0,1,1.0,0.4370010000000093
412,11,0.5,0.25,-35.0,-1,1.0,0.47020100000008824
413,11,0.5,0.0625,35.0,1,1.0,0.6471010000000206
414,11,0.5,0.0,35.0,1,1.0,5.270701000000145
415,11,0.5,1.0,35.0,1,1.0,0.38740100000018174
416,11,0.5,0.125,-35.0,-1,1.0,0.34110099999998056
417,11,0.5,0.125,-35.0,-1,1.0,0.24110100000029888
418,11,0.5,0.0625,-35.0,1,0.0,4.047901000000138
419,11,0.5,0.25,-35.0,1,0.0,0.23210100000005696
420,11,0.5,0.125,-35.0,-1,1.0,0.2253009999999449
421,11,0.5,0.25,35.0,1,1.0,0.2753010000001268
422,11,0.5,1.0,-35.0,-1,1.0,0.24200100000007296
423,11,0.5,0.25,-35.0,1,0.0,2.251901000000089
424,11,0.5,0.25,35.0,-1,0.0,0.14910099999997328
425,11,0.5,0.125,-35.0,1,0.0,0.8856009999999515
426,11,0.5,0.0625,-35.0,1,0.0,0.5591010000000551
427,11,0.5,0.25,35.0,1,1.0,0.3423010000001341
428,11,0.5,0.0625,-35.0,1,0.0,0.3825010000000475
429,11,0.5,0.125,-35.0,-1,1.0,0.8196010000001479
430,11,0.5,0.25,-35.0,-1,1.0,0.24980100000016137
431,11,0.5,0.0625,35.0,1,1.0,0.4164010000001781
432,11,0.5,0.25,35.0,1,1.0,0.41990099999998165
433,11,0.5,0.0,-35.0,1,0.0,6.923301000000038
434,11,0.5,0.25,35.0,1,1.0,0.4272009999999682
435,11,0.5,0.0625,-35.0,-1,1.0,0.9472010000001774
436,11,0.5,0.25,-35.0,-1,1.0,16.34720100000004
437,11,0.5,1.0,-35.0,-1,1.0,0.24490100000002712
438,11,0.5,0.125,35.0,1,1.0,0.7082010000001446
439,11,0.5,0.0625,35.0,1,1.0,0.4652009999999791
440,11,0.5,0.0,-35.0,1,0.0,3.82220099999995
441,11,0.7,0.0,-35.0,1,0.0,0.6256010000001879
442,11,0.5,1.0,35.0,1,1.0,0.29210100000022976
443,11,0.5,0.125,35.0,1,1.0,0.24250100000017483
444,11,0.5,1.0,35.0,1,1.0,0.33250100000009297
445,11,0.5,1.0,-35.0,-1,1.0,0.5663010000000668
446,11,0.5,0.125,-35.0,-1,1.0,0.3726009999998041
447,11,0.5,0.25,-35.0,-1,1.0,0.3394010000001799
448,11,0.5,0.0625,35.0,1,1.0,0.48950100000024577
449,11,0.5,0.0625,-35.0,-1,1.0,0.3165010000000166
450,11,0.5,1.0,35.0,1,1.0,0.35330100000010134
451,11,0.5,0.0625,-35.0,-1,1.0,0.3399010000000544
452,11,0.5,0.25,35.0,-1,0.0,-0.04659900000001471
453,11,0.5,0.0,-35.0,1,0.0,2.8634009999998398
454,11,0.4,0.0,35.0,1,1.0,5.1373009999999795
455,11,0.5,1.0,-35.0,-1,1.0,0.3443010000000868
456,11,0.5,0.25,-35.0,-1,1.0,0.1143010000000686
457,11,0.5,1.0,-35.0,-1,1.0,0.3943010000000413
458,11,0.5,0.0,-35.0,1,0.0,2.511000999999851
459,11,0.5,0.0,-35.0,1,0.0,0.7745010000001002
460,11,0.5,0.0625,-35.0,-1,1.0,0.8013009999999667
461,11,0.5,0.0625,-35.0,-1,1.0,0.22840099999984886
462,11,0.5,1.0,35.0,1,1.0,0.8314010000001417
463,11,0.5,0.25,-35.0,-1,1.0,0.7354010000001381
464,11,0.5,0.25,35.0,1,1.0,0.4516009999999824
465,11,0.5,0.125,35.0,1,1.0,4.008601000000226
466,11,0.5,0.0625,-35.0,-1,1.0,0.3757010000001628
467,11,0.5,0.125,35.0,1,1.0,0.2292010000001028
468,11,0.5,1.0,35.0,1,1.0,1.5994009999999435
469,11,0.5,0.25,35.0,1,1.0,0.3829009999999471
470,11,0.5,0.25,35.0,1,1.0,0.39940100000012535
471,11,0.5,0.0625,-35.0,-1,1.0,0.5062010000001465
472,11,0.5,1.0,-35.0,-1,1.0,0.28300100000001294
473,11,0.5,0.0625,35.0,1,1.0,4.043201000000181
474,11,0.5,0.0625,-35.0,-1,1.0,0.3766010000001643
475,11,0.5,0.125,35.0,1,1.0,0.49050099999999475
476,11,0.5,1.0,-35.0,-1,1.0,0.2874010000000453
477,11,0.5,1.0,-35.0,-1,1.0,0.3537010000002283
478,11,0.5,0.0625,-35.0,-1,1.0,0.34730100000001585
479,11,0.5,0.25,-35.0,-1,1.0,0.5342010000001665
480,11,0.5,0.0,35.0,1,1.0,1.9775010000000748
481,11,0.5,1.0,35.0,1,1.0,0.45450099999993654
482,11,0.5,1.0,-35.0,-1,1.0,0.2876009999999951
483,11,0.5,0.25,35.0,1,1.0,0.4610010000001239
484,11,0.5,0.125,-35.0,-1,1.0,0.3177009999999427
485,11,0.5,0.125,35.0,1,1.0,0.45450099999993654
486,11,0.5,0.0625,-35.0,-1,1.0,0.3215010000001257
487,11,0.5,0.125,-35.0,-1,1.0,0.3285009999999602
488,11,0.5,1.0,35.0,1,1.0,0.3585010000001603
489,11,0.5,0.125,-35.0,1,0.0,0.21170100000017555
490,11,0.5,0.25,-35.0,-1,1.0,0.6086010000001352
491,11,0.5,0.0,35.0,1,1.0,5.705601000000115
492,11,0.5,0.125,35.0,-1,0.0,0.7426009999999224
493,11,0.5,0.0625,-35.0,-1,1.0,0.4129009999999198
494,11,0.5,0.125,-35.0,-1,1.0,1.2128009999998994
495,11,0.5,1.0,-35.0,-1,1.0,0.23300099999983104
496,11,0.5,0.0625,-35.0,-1,1.0,0.82640100000026
497,11,0.5,0.0625,-35.0,-1,1.0,0.33060100000011516
498,11,0.5,0.125,35.0,-1,0.0,4.0437010000000555
499,11,0.5,0.25,35.0,1,1.0,0.3638010000001941
500,11,0.5,0.25,35.0,1,1.0,0.47050100000001294
501,11,0.5,1.0,-35.0,-1,1.0,0.39400099999988925
502,11,0.5,0.125,35.0,1,1.0,1.4343010000002323
503,11,0.5,0.25,-35.0,-1,1.0,0.33090100000026723
504,11,0.5,0.125,-35.0,-1,1.0,0.35090100000002167
505,11,0.5,1.0,35.0,1,1.0,0.4310009999999238
506,11,0.5,0.0,35.0,1,1.0,4.651601000000028
507,11,0.5,0.0625,35.0,1,1.0,0.6450009999998656
508,11,0.5,0.25,35.0,1,1.0,0.4518009999997048
509,11,0.5,0.125,35.0,1,1.0,0.5650009999999384
510,11,0.5,0.125,-35.0,-1,1.0,0.28880100000014863
511,11,0.5,0.25,35.0,1,1.0,0.5586010000001806
512,11,0.5,0.0625,35.0,1,1.0,0.44210100000009334
513,11,0.5,0.0625,-35.0,-1,1.0,0.3520009999992908
514,11,0.5,0.125,35.0,1,1.0,0.5424009999996997
515,11,0.5,0.0,35.0,1,1.0,2.269100999999864
516,11,0.5,0.0625,35.0,1,1.0,0.6327009999995425
517,11,0.5,0.0,35.0,1,1.0,4.67580100000032
518,11,0.5,0.25,35.0,1,1.0,0.3895009999996546
519,11,0.5,0.0625,35.0,1,1.0,0.34670099999948434
520,11,0.5,0.0625,35.0,1,1.0,0.33010099999955855
521,11,0.5,0.0625,35.0,-1,0.0,0.3402009999999791
522,11,0.5,0.0625,35.0,1,1.0,0.36700100000007296
523,11,0.5,1.0,-35.0,-1,1.0,0.33080100000006496
524,11,0.5,1.0,-35.0,-1,1.0,0.25720099999989543
525,11,0.5,0.25,-35.0,-1,1.0,0.25100099999963277
526,11,0.5,0.125,-35.0,-1,1.0,0.3046009999998205
527,11,0.5,0.25,35.0,1,1.0,0.4076009999994312
528,11,0.5,0.0625,35.0,1,1.0,3.231101000000308
529,11,0.5,0.125,-35.0,-1,1.0,0.6815009999995709
530,11,0.5,1.0,-35.0,-1,1.0,0.20490099999960876
531,11,0.5,0.25,35.0,1,1.0,0.20880099999976665
532,11,0.5,0.25,-35.0,-1,1.0,0.25840100000004895
533,11,0.5,0.0625,-35.0,-1,1.0,0.2919010000000526
534,11,0.5,0.25,-35.0,-1,1.0,0.3689009999998234
535,11,0.5,0.25,35.0,1,1.0,0.2319009999996524
536,11,0.5,0.25,-35.0,-1,1.0,0.22250099999973827
537,11,0.5,1.0,-35.0,-1,1.0,0.2424009999995178
538,11,0.5,1.0,-35.0,-1,1.0,0.3124009999996815
539,11,0.5,0.125,-35.0,-1,1.0,0.3158010000001923
540,11,0.5,0.0625,-35.0,-1,1.0,0.3261010000001079
541,11,0.5,1.0,35.0,1,1.0,0.3493010000001959
542,11,0.5,0.25,35.0,1,1.0,0.4598009999999704
543,11,0.5,0.125,-35.0,-1,1.0,0.5763009999996029
544,11,0.5,0.25,-35.0,-1,1.0,0.22630099999969389
545,11,0.5,0.125,-35.0,-1,1.0,1.0900009999995746
546,11,0.5,0.125,35.0,1,1.0,0.3732009999998809
547,11,0.5,1.0,35.0,1,1.0,0.33670100000017555
548,11,0.5,0.0625,-35.0,-1,1.0,0.5536009999996168
549,11,0.5,1.0,-35.0,-1,1.0,0.45370099999991
550,11,0.5,0.125,35.0,1,1.0,0.9771009999999478
551,11,0.5,0.125,35.0,1,1.0,0.3773009999995338
552,11,0.5,0.25,-35.0,-1,1.0,0.6573009999997339
553,11,0.5,0.25,-35.0,-1,1.0,0.3908010000000104
554,11,0.5,1.0,-35.0,-1,1.0,0.2011010000001079
555,11,0.5,0.25,35.0,1,1.0,0.42760100000032253
556,11,0.5,0.125,-35.0,-1,1.0,0.26440099999990707
557,11,0.5,0.0625,35.0,1,1.0,0.29130099999974846
558,11,0.5,1.0,35.0,1,1.0,0.09130099999993035
559,11,0.5,0.125,-35.0,-1,1.0,0.544800999999552
560,11,0.5,1.0,-35.0,-1,1.0,0.28140099999973245
561,11,0.5,0.0625,-35.0,-1,1.0,0.6783009999999194
562,11,0.5,0.0,35.0,-1,0.0,4.5918009999995775
563,11,0.5,0.0,35.0,1,1.0,0.1955009999996946
564,11,0.5,0.125,35.0,1,1.0,0.565400999999838
565,11,0.5,1.0,-35.0,-1,1.0,0.2590009999994436
566,11,0.5,1.0,35.0,1,1.0,3.5692009999997936
567,11,0.5,1.0,35.0,1,1.0,0.31250099999942904
568,11,0.5,0.25,-35.0,-1,1.0,0.2062009999995098
569,11,0.5,1.0,-35.0,-1,1.0,0.27940099999977974
570,11,0.5,0.125,-35.0,-1,1.0,0.33960099999967497
571,11,0.5,1.0,35.0,1,1.0,0.3834009999995942
572,11,0.5,0.125,35.0,1,1.0,5.900201000000379
573,11,0.5,1.0,-35.0,-1,1.0,0.3403009999997266
574,11,0.5,0.125,35.0,1,1.0,0.37040099999967424
575,11,0.5,0.25,-35.0,-1,1.0,0.270600999999715
576,11,0.5,0.0625,35.0,1,1.0,0.6472009999993134
577,11,0.5,0.125,35.0,1,1.0,1.1746009999997113
578,11,0.5,0.0625,35.0,1,1.0,3.631300999999894
579,11,0.5,0.25,35.0,1,1.0,0.381300999999894
580,11,0.5,0.25,-35.0,-1,1.0,0.2513010000002396
581,11,0.5,0.0,35.0,1,1.0,1.9113009999996393
582,11,0.5,1.0,-35.0,-1,1.0,0.23830099999986487
583,11,0.5,1.0,-35.0,-1,1.0,0.5082010000000992
584,11,0.5,0.125,-35.0,-1,1.0,0.3184009999999944
585,11,0.5,0.125,35.0,1,1.0,0.5719009999997979
586,11,0.5,0.0625,35.0,1,1.0,2.9052010000000337
587,11,0.5,1.0,-35.0,-1,1.0,0.18860099999983504
588,11,0.5,0.25,35.0,1,1.0,3.4155009999999493
589,11,0.5,0.0625,-35.0,-1,1.0,0.38940099999990707
590,11,0.5,0.25,35.0,1,1.0,0.3626009999998132
591,11,0.5,0.125,35.0,-1,0.0,0.24940099999957965
592,11,0.5,0.0625,35.0,1,1.0,6.18270099999927
593,11,0.5,0.25,-35.0,-1,1.0,0.5930010000001857
594,11,0.5,0.125,-35.0,-1,1.0,0.35970099999985905
595,11,0.5,0.0625,-35.0,1,0.0,0.216900999999325
596,11,0.5,0.0625,-35.0,1,0.0,0.5737009999998008
597,11,0.5,0.0,35.0,1,1.0,0.32360099999959857
598,11,0.5,0.0625,-35.0,-1,1.0,0.3404009999999289
599,11,0.5,1.0,35.0,1,1.0,0.43400100000008024
600,11,0.5,0.0,-35.0,-1,1.0,0.2573010000000977
601,11,0.5,0.0625,35.0,1,1.0,0.3675009999997201
602,11,0.5,0.25,-35.0,-1,1.0,0.3512009999994916
603,11,0.5,0.0,35.0,1,1.0,6.0075010000000475
604,11,0.5,0.25,-35.0,-1,1.0,0.2545010000003458
605,11,0.5,0.125,35.0,1,1.0,0.32150099999989834
606,11,0.5,0.125,35.0,1,1.0,0.34489999999959764
607,11,0.5,0.25,35.0,1,1.0,0.3851009999998496
608,11,0.5,0.0625,35.0,1,1.0,0.6352009999995971
609,11,0.5,0.0625,-35.0,-1,1.0,0.3285009999999602
610,11,0.5,0.25,35.0,1,1.0,0.47200100000009115
611,11,0.5,0.125,35.0,1,1.0,0.5021010000000388
612,11,0.5,0.25,35.0,1,1.0,0.37930099999994127
613,11,0.5,1.0,35.0,1,1.0,0.5225009999999202
614,11,0.5,1.0,-35.0,-1,1.0,0.2927009999998518
615,11,0.5,0.125,-35.0,-1,1.0,0.25250099999993836
616,11,0.5,0.0,35.0,1,1.0,2.9526009999999587
617,11,0.5,0.25,35.0,1,1.0,0.48660100000006423
618,11,0.5,1.0,35.0,1,1.0,0.3429009999995287
619,11,0.5,0.25,35.0,1,1.0,0.7830009999997856
620,11,0.5,0.25,35.0,1,1.0,0.3867009999999027
621,11,0.5,0.0625,-35.0,-1,1.0,0.326600999999755
622,11,0.5,0.0625,35.0,-1,0.0,0.41020099999968807
623,11,0.6,0.0625,35.0,1,1.0,0.2538009999998394
624,11,0.5,1.0,35.0,1,1.0,0.26690099999996164
625,11,0.5,0.0,35.0,1,1.0,4.5471010000001115
626,11,0.5,1.0,35.0,-1,0.0,0.11090099999955783
627,11,0.5,0.0625,35.0,1,1.0,7.474700999999641
628,11,0.5,0.25,35.0,1,1.0,0.15490099999942686
629,11,0.5,1.0,-35.0,-1,1.0,0.22170099999948434
630,11,0.5,1.0,-35.0,-1,1.0,0.32170099999984814
631,11,0.5,0.0625,-35.0,-1,1.0,0.3623010000001159
632,11,0.5,0.0,-35.0,1,0.0,0.24920099999962986
633,11,0.6,0.0,35.0,1,1.0,0.49890099999993254
634,11,0.5,1.0,-35.0,-1,1.0,0.28570099999978993
635,11,0.5,0.25,-35.0,-1,1.0,0.14270099999976082
636,11,0.5,0.125,-35.0,-1,1.0,0.17270099999950617
637,11,0.5,0.25,-35.0,-1,1.0,0.14980100000002494
638,11,0.5,0.25,-35.0,-1,1.0,0.27290099999981976
639,11,0.5,0.0625,35.0,-1,0.0,0.3063010000000759
640,11,0.5,0.125,35.0,1,1.0,0.37980100000004313
641,11,0.5,0.25,35.0,1,1.0,0.96670099999983
642,11,0.5,0.0625,35.0,1,1.0,0.23340099999950326
643,11,0.5,0.25,-35.0,-1,1.0,0.26020100000005186
644,11,0.5,0.125,35.0,1,1.0,0.6339009999996961
645,11,0.5,0.0625,35.0,-1,0.0,0.25060099999927843
646,11,0.5,0.25,-35.0,-1,1.0,0.3944010000000162
647,11,0.5,0.0625,-35.0,-1,1.0,0.3074010000000271
648,11,0.5,0.25,35.0,-1,0.0,0.8544009999995978
649,11,0.4,0.25,-35.0,-1,1.0,0.05780099999992672
650,11,0.5,1.0,35.0,1,1.0,1.154500999999982
651,11,0.5,0.25,35.0,1,1.0,0.4349010000000817
652,11,0.5,0.125,-35.0,-1,1.0,0.29830100000026505
653,11,0.5,0.125,-35.0,-1,1.0,0.3450009999996837
654,11,0.5,0.125,35.0,1,1.0,6.1718009999999595
655,11,0.5,0.25,35.0,1,1.0,0.3424009999998816
656,11,0.5,0.25,-35.0,-1,1.0,0.2624010000004091
657,11,0.5,0.0625,-35.0,-1,1.0,0.3459010000001399
658,11,0.5,1.0,-35.0,-1,1.0,0.2292010000001028
659,11,0.5,0.125,-35.0,-1,1.0,0.06940099999974336
660,11,0.5,0.125,-35.0,-1,1.0,0.2593010000000504
661,11,0.5,0.125,-35.0,-1,1.0,0.47640099999989616
662,11,0.5,1.0,-35.0,-1,1.0,0.20300100000031307
663,11,0.5,0.0625,35.0,1,1.0,2.136301000000003
664,11,0.5,0.125,35.0,1,1.0,0.48320099999955346
665,11,0.5,1.0,-35.0,-1,1.0,0.3569009999996524
666,11,0.5,1.0,-35.0,-1,1.0,0.3567009999997026
667,11,0.5,1.0,35.0,1,1.0,0.6335009999997965
668,11,0.5,0.125,35.0,1,1.0,3.5840009999997164
669,11,0.5,0.25,-35.0,-1,1.0,0.2240009999995891
670,11,0.5,0.0,35.0,1,1.0,0.5113009999995484
671,11,0.5,1.0,35.0,1,1.0,0.35450099999934537
672,11,0.5,1.0,35.0,1,1.0,0.36150099999986196
673,11,0.5,0.0625,-35.0,-1,1.0,0.2979009999999107
674,11,0.5,0.25,-35.0,-1,1.0,0.38800099999980375
675,11,0.5,0.0,-35.0,-1,1.0,0.7051010000000133
676,11,0.5,0.0,-35.0,-1,1.0,1.3282009999998081
677,11,0.5,1.0,35.0,1,1.0,0.41840099999990343
678,11,0.5,0.0625,-35.0,-1,1.0,0.2652009999992515
679,11,0.5,0.0625,-35.0,-1,1.0,0.5555010000002767
680,11,0.5,1.0,35.0,1,1.0,0.3691009999997732
681,11,0.5,0.125,-35.0,-1,1.0,0.25570099999958984
682,11,0.5,0.0,35.0,1,1.0,0.5790009999996073
683,11,0.5,0.0,35.0,1,1.0,0.6091010000000097
684,11,0.5,0.0625,35.0,1,1.0,0.3592009999997572
685,11,0.5,1.0,-35.0,-1,1.0,0.2759009999999762
686,11,0.5,0.0,35.0,-1,0.0,0.3493009999997412
687,11,0.5,0.25,-35.0,-1,1.0,0.2929010000002563
688,11,0.5,0.125,-35.0,-1,1.0,0.29610099999945305
689,11,0.5,0.0625,35.0,1,1.0,6.106600999999955
690,11,0.5,0.25,35.0,1,1.0,0.6801009999999224
691,11,0.5,0.0625,35.0,1,1.0,0.3334009999994123
692,11,0.5,1.0,35.0,1,1.0,0.26020100000005186
693,11,0.5,1.0,-35.0,-1,1.0,0.2770009999994727
694,11,0.5,0.25,-35.0,-1,1.0,0.22030099999983577
695,11,0.5,0.25,-35.0,-1,1.0,0.28720099999964077
696,11,0.5,1.0,-35.0,-1,1.0,0.2642009999999573
697,11,0.5,1.0,-35.0,-1,1.0,0.22420099999999366
698,11,0.5,1.0,35.0,1,1.0,0.34790099999963786
699,11,0.5,0.0625,35.0,1,1.0,0.6877010000002883
700,11,0.5,0.0,35.0,1,1.0,2.961200999999619
701,11,0.5,0.25,35.0,1,1.0,0.2579009999999471
702,11,0.5,1.0,-35.0,1,0.0,0.11140099999965969
703,11,0.5,0.125,-35.0,-1,1.0,0.5783010000000104
704,11,0.5,0.0,-35.0,-1,1.0,0.2718009999998685
705,11,0.5,0.0,35.0,-1,0.0,1.0785009999999602
706,11,0.5,0.125,-35.0,1,0.0,0.1922009999993861
707,11,0.5,0.0,35.0,-1,0.0,0.3924010000000635
708,11,0.6,0.0,35.0,1,1.0,0.21570100000008097
709,11,0.5,1.0,35.0,1,1.0,0.28590100000019447
710,11,0.5,0.0625,35.0,1,1.0,0.5061009999999442
711,11,0.5,0.25,35.0,1,1.0,0.2863009999996393
712,11,0.5,0.25,-35.0,-1,1.0,0.2729010000002745
713,11,0.5,0.0625,-35.0,-1,1.0,0.5430010000000038
714,11,0.5,0.125,35.0,-1,0.0,0.30330099999991944
715,11,0.5,0.0625,35.0,1,1.0,3.9933009999995193
716,11,0.5,0.25,-35.0,-1,1.0,0.3036010000000715
717,11,0.5,0.0625,-35.0,-1,1.0,0.15380099999993035
718,11,0.5,0.0625,35.0,1,1.0,0.24780099999952654
719,11,0.5,0.125,-35.0,-1,1.0,0.37060099999962404
720,11,0.5,0.25,35.0,1,1.0,0.2744009999996706
721,11,0.5,0.25,-35.0,-1,1.0,0.28140099999973245
722,11,0.5,0.0625,-35.0,-1,1.0,0.3744010000000344
723,11,0.5,1.0,-35.0,-1,1.0,0.23530100000016319
724,11,0.5,0.0,-35.0,1,0.0,0.48140099999955055
725,11,0.4,0.0,35.0,1,1.0,0.26150099999949816
726,11,0.5,1.0,-35.0,-1,1.0,0.07180099999959566
727,11,0.5,1.0,35.0,1,1.0,0.5585009999999784
728,11,0.5,0.125,35.0,-1,0.0,0.3121009999999842
729,11,0.5,0.0625,-35.0,-1,1.0,0.6455009999995127
730,11,0.5,0.125,35.0,1,1.0,0.44250099999999293
731,11,0.5,0.0625,-35.0,-1,1.0,0.7790009999998802
732,11,0.5,0.25,-35.0,-1,1.0,0.2995009999999638
733,11,0.5,1.0,-35.0,-1,1.0,0.3028009999998176
734,11,0.5,0.25,35.0,1,1.0,0.31960099999969316
735,11,0.5,0.0625,35.0,-1,0.0,0.30660100000022794
736,11,0.5,0.0625,35.0,1,1.0,0.7830009999997856
737,11,0.5,0.125,-35.0,-1,1.0,0.3467009999999391
738,11,0.5,0.0625,-35.0,-1,1.0,0.2701009999996131
739,11,0.5,0.25,35.0,1,1.0,0.47360100000014427
740,11,0.5,1.0,35.0,1,1.0,0.31060100000013335
741,11,0.5,0.125,-35.0,-1,1.0,0.4337009999994734
742,11,0.5,1.0,-35.0,-1,1.0,0.23060099999929662
743,11,0.5,1.0,35.0,1,1.0,0.30110100000001694
744,11,0.5,0.125,-35.0,-1,1.0,0.28100099999983286
745,11,0.5,0.0,-35.0,-1,1.0,0.28450100000009115
746,11,0.5,0.0,35.0,1,1.0,0.2780009999996764
747,11,0.5,0.25,35.0,1,1.0,0.4150009999998474
748,11,0.5,1.0,-35.0,-1,1.0,0.2517010000001392
749,11,0.5,0.125,35.0,1,1.0,3.7353009999997084
750,11,0.5,1.0,35.0,1,1.0,0.3586009999999078
751,11,0.5,0.125,35.0,1,1.0,0.305700999999317
752,11,0.5,0.0625,35.0,1,1.0,2.6791009999997186
753,11,0.5,0.125,35.0,1,1.0,0.35609999999996944
754,11,0.5,0.0,35.0,-1,0.0,0.256300999999894
755,11,0.5,0.0625,35.0,1,1.0,2.689900999999736
756,11,0.5,0.125,35.0,1,1.0,0.583100999999715
757,11,0.5,0.0625,35.0,1,1.0,0.42680099999961385
758,11,0.5,0.25,-35.0,-1,1.0,0.42000099999995655
759,11,0.5,0.0625,35.0,1,1.0,2.3036010000000715
760,11,0.5,0.125,-35.0,1,0.0,0.2038009999996575
761,11,0.5,0.125,35.0,1,1.0,0.3972009999997681
762,11,0.5,0.25,35.0,1,1.0,0.33440099999961603
763,11,0.5,1.0,-35.0,-1,1.0,0.3209009999995942
764,11,0.5,0.25,35.0,1,1.0,0.34780099999989034
765,11,0.5,0.125,-35.0,-1,1.0,0.3513009999996939
766,11,0.5,0.0625,35.0,-1,0.0,0.3148009999995338
767,11,0.5,0.25,-35.0,-1,1.0,0.3851009999998496
768,11,0.5,0.125,-35.0,-1,1.0,0.2619009999998525
769,11,0.5,1.0,-35.0,-1,1.0,0.20840099999986705
770,11,0.5,0.0625,-35.0,-1,1.0,0.27520099999992453
771,11,0.5,0.125,35.0,1,1.0,0.4085009999998874
772,11,0.5,0.0625,35.0,-1,0.0,1.6754009999999653
773,11,0.5,0.25,35.0,1,1.0,0.42890099999976883
774,11,0.5,0.25,-35.0,-1,1.0,0.25270099999988815
775,11,0.5,1.0,35.0,1,1.0,0.35950099999990925
776,11,0.5,0.125,-35.0,-1,1.0,0.5060009999997419
777,11,0.5,0.125,-35.0,-1,1.0,0.34610099999963495
778,11,0.5,0.125,-35.0,-1,1.0,0.29990099999940867
779,11,0.5,0.25,35.0,1,1.0,0.26650100000006205
780,11,0.5,0.25,35.0,1,1.0,0.35660099999950035
781,11,0.5,1.0,35.0,1,1.0,0.32330099999990125
782,11,0.5,0.25,35.0,1,1.0,0.5903009999997266
783,11,0.5,0.125,-35.0,-1,1.0,0.22690099999954327
784,11,0.5,0.25,-35.0,-1,1.0,0.17050099999960366
785,11,0.5,0.0625,35.0,-1,0.0,0.3040009999999711
786,11,0.5,0.0625,-35.0,-1,1.0,0.24720099999967715
787,11,0.5,0.125,35.0,1,1.0,0.09750100000019302
788,11,0.5,0.25,-35.0,-1,1.0,0.25450099999989106
789,11,0.5,0.125,35.0,1,1.0,0.32110099999999875
790,11,0.5,0.25,35.0,-1,0.0,0.19120099999963713
791,11,0.5,0.25,35.0,1,1.0,0.2914009999999507
792,11,0.5,0.125,-35.0,-1,1.0,0.3251010000003589
793,11,0.5,0.25,35.0,1,1.0,0.4384009999994305
794,11,0.5,0.125,35.0,1,1.0,0.42850099999986924
795,11,0.5,0.25,35.0,1,1.0,1.3691009999997732
796,11,0.5,1.0,35.0,-1,0.0,0.0924009999998816
797,11,0.5,0.0625,-35.0,-1,1.0,0.5360010000003967
798,11,0.5,0.0625,-35.0,-1,1.0,0.21920099999988452
799,11,0.5,0.0625,35.0,-1,0.0,0.7724009999997179
800,11,0.5,0.0625,-35.0,-1,1.0,0.6592009999994843
801,11,0.5,0.0625,-35.0,-1,1.0,0.1294009999996888
802,11,0.5,0.25,35.0,1,1.0,0.4695010000000366
803,11,0.5,0.25,-35.0,-1,1.0,0.25010100000008606
804,11,0.5,0.25,-35.0,-1,1.0,0.29050099999994927
805,11,0.5,0.0625,-35.0,-1,1.0,0.25330099999973754
806,11,0.5,1.0,35.0,1,1.0,0.36700100000007296
807,11,0.5,0.125,-35.0,-1,1.0,0.33360099999981685
808,11,0.5,0.125,35.0,-1,0.0,0.6408009999995556
809,11,0.5,0.125,-35.0,-1,1.0,0.2572009999994407
810,11,0.5,0.125,35.0,1,1.0,0.4241009999996095
811,11,0.5,1.0,35.0,1,1.0,0.6309009999995396
812,11,0.5,0.0,-35.0,1,0.0,1.6775009999996655
813,11,0.4,0.0,35.0,-1,0.0,0.44440099999974336
814,11,0.5,1.0,-35.0,-1,1.0,0.27820100000008097
815,11,0.5,0.0,-35.0,-1,1.0,1.0147009999996044
816,11,0.5,1.0,-35.0,-1,1.0,0.25530099999969025
817,11,0.5,0.0625,-35.0,-1,1.0,0.5651009999996859
818,11,0.5,0.25,35.0,1,1.0,0.40830099999993763
819,11,0.5,1.0,-35.0,-1,1.0,0.23530100000016319
820,11,0.5,1.0,-35.0,-1,1.0,0.21860100000003513
821,11,0.5,0.25,-35.0,-1,1.0,0.47540099999969243
822,11,0.5,0.125,-35.0,-1,1.0,0.44890099999975064
823,11,0.5,0.125,35.0,1,1.0,4.899200999999721
824,11,0.5,0.125,35.0,-1,0.0,0.5696009999996932
825,11,0.5,0.25,-35.0,-1,1.0,0.29980099999966114
826,11,0.5,1.0,35.0,1,1.0,0.2665009999996073
827,11,0.5,0.0625,-35.0,-1,1.0,0.42990099999997256
828,11,0.5,0.125,35.0,1,1.0,0.33040100000016537
829,11,0.5,0.0625,-35.0,-1,1.0,0.5368009999997412
830,11,0.5,0.125,35.0,1,1.0,0.45700099999976374
831,11,0.5,1.0,-35.0,-1,1.0,0.29740099999980885
832,11,0.5,1.0,35.0,1,1.0,0.41070099999978993
833,11,0.5,0.0625,-35.0,-1,1.0,0.3774009999997361
834,11,0.5,0.25,35.0,1,1.0,3.5442009999997026
835,11,0.5,0.0625,-35.0,1,0.0,0.6951009999993403
836,11,0.6,0.0625,35.0,1,1.0,3.2314010000000053
837,11,0.5,1.0,35.0,1,1.0,0.24510099999952217
838,11,0.5,0.125,35.0,1,1.0,0.2654010000001108
839,11,0.5,0.25,-35.0,-1,1.0,0.2852010000001428
840,11,0.5,0.125,35.0,1,1.0,0.4721009999998387
841,11,0.5,0.125,35.0,1,1.0,0.48250099999995655
842,11,0.5,0.125,35.0,1,1.0,4.599600999999893
843,11,0.5,0.125,-35.0,-1,1.0,0.40250099999957456
844,11,0.5,0.0625,-35.0,1,0.0,0.5065009999998438
845,11,0.5,0.25,35.0,1,1.0,0.2929010000002563
846,11,0.5,0.0625,-35.0,-1,1.0,0.45990100000017264
847,11,0.5,0.0,35.0,1,1.0,3.720100999999886
848,11,0.5,0.125,-35.0,-1,1.0,0.30680100000017774
849,11,0.5,1.0,35.0,1,1.0,0.37740100000019083
850,11,0.5,0.0625,-35.0,-1,1.0,0.27380100000027596
851,11,0.5,0.25,35.0,1,1.0,1.8604009999999107
852,11,0.5,0.125,-35.0,-1,1.0,0.34390099999973245
853,11,0.5,0.125,35.0,1,1.0,0.3606009999998605
854,11,0.5,0.125,35.0,1,1.0,0.3775009999994836
855,11,0.5,0.125,35.0,1,1.0,0.5376009999995404
856,11,0.5,0.125,35.0,1,1.0,0.4311010000001261
857,11,0.5,0.25,-35.0,-1,1.0,0.28500099999973827
858,11,0.5,0.125,-35.0,-1,1.0,0.3279010000001108
859,11,0.5,0.0625,35.0,1,1.0,1.001600999999937
860,11,0.5,0.125,35.0,1,1.0,3.1116010000000642
861,11,0.5,1.0,35.0,1,1.0,0.31180099999983213
862,11,0.5,1.0,-35.0,-1,1.0,0.33560099999976956
863,11,0.5,0.125,-35.0,-1,1.0,0.3026009999998678
864,11,0.5,0.125,-35.0,-1,1.0,0.21590100000003076
865,11,0.5,0.25,-35.0,-1,1.0,0.3326009999996131
866,11,0.5,0.0,-35.0,1,0.0,2.939600999999584
867,11,0.5,0.0625,35.0,1,1.0,0.33970099999987724
868,11,0.5,0.0625,35.0,1,1.0,0.3428009999997812
869,11,0.5,0.25,-35.0,-1,1.0,0.3567009999997026
870,11,0.5,0.125,35.0,1,1.0,0.44000099999993836
871,11,0.5,0.125,-35.0,-1,1.0,0.43370099999992817
872,11,0.5,0.0625,35.0,-1,0.0,0.4037009999997281
873,11,0.5,0.0625,-35.0,-1,1.0,0.4278009999998176
874,11,0.5,0.25,35.0,1,1.0,0.37770099999988815
875,11,0.5,0.125,-35.0,-1,1.0,0.25710099999969316
876,11,0.5,0.125,-35.0,-1,1.0,0.31740099999979066
877,11,0.5,0.0625,-35.0,-1,1.0,0.44090099999948507
878,11,0.5,0.125,-35.0,-1,1.0,1.0109009999996488
879,11,0.5,0.25,-35.0,-1,1.0,0.20150100000000748
880,11,0.5,0.0625,-35.0,-1,1.0,0.5745009999996
881,11,0.5,0.0625,-35.0,-1,1.0,0.47480099999984304
882,11,0.5,1.0,-35.0,-1,1.0,0.32170099999984814
883,11,0.5,0.25,-35.0,-1,1.0,0.2518009999998867
884,11,0.5,0.125,-35.0,-1,1.0,0.2684009999998125
885,11,0.5,0.0625,-35.0,-1,1.0,0.16190099999994345
886,11,0.5,0.0625,-35.0,1,0.0,0.27270099999986996
887,11,0.5,0.0,35.0,1,1.0,0.3722010000001319
888,11,0.5,1.0,35.0,1,1.0,0.35590099999990343
889,11,0.5,0.125,-35.0,-1,1.0,0.26300099999980375
890,11,0.5,0.125,-35.0,-1,1.0,0.23300099999960366
891,11,0.5,0.0625,-35.0,-1,1.0,0.14280099999950835
892,11,0.5,0.0625,35.0,1,1.0,0.46340099999952145
893,11,0.5,1.0,35.0,1,1.0,0.3699010000000271
894,11,0.5,0.0625,-35.0,-1,1.0,0.27640100000007806
895,11,0.5,0.25,-35.0,-1,1.0,0.6371009999998023
896,11,0.5,1.0,35.0,1,1.0,0.3669009999998707
897,11,0.5,1.0,-35.0,-1,1.0,0.06700099999989106
898,11,0.5,0.0625,35.0,1,1.0,0.35350100000005114
899,11,0.5,0.0625,-35.0,-1,1.0,0.37040099999967424
900,11,0.5,0.125,35.0,1,1.0,3.127400999999736
901,11,0.5,0.25,-35.0,-1,1.0,0.2308010000001559
902,11,0.5,0.125,35.0,1,1.0,0.5412010000000009
903,11,0.5,1.0,-35.0,-1,1.0,0.3445010000000366
904,11,0.5,0.25,-35.0,-1,1.0,0.28120099999978265
905,11,0.5,0.25,-35.0,-1,1.0,0.11150100000031671
906,11,0.5,0.0625,-35.0,1,0.0,0.2882009999998445
907,11,0.4,0.0625,-35.0,1,0.0,0.3483009999999922
908,11,0.5,1.0,35.0,1,1.0,0.275101000000177
909,11,0.5,0.0,-35.0,1,0.0,1.9091009999997368
910,11,0.5,0.25,35.0,1,1.0,0.38260100000024977
911,11,0.5,0.0625,-35.0,-1,1.0,0.25910099999964586
912,11,0.5,0.125,-35.0,-1,1.0,0.31920099999979357
913,11,0.5,0.125,-35.0,-1,1.0,0.3427010000000337
914,11,0.5,1.0,35.0,1,1.0,0.27010100000006787
915,11,0.5,0.0625,-35.0,-1,1.0,1.2001009999999042
916,11,0.5,0.125,35.0,1,1.0,0.5501009999998132
917,11,0.5,0.25,35.0,1,1.0,0.3665009999999711
918,11,0.5,0.0625,35.0,1,1.0,0.44010100000014063
919,11,0.5,0.125,35.0,1,1.0,3.15400099999988
920,11,0.5,0.125,-35.0,-1,1.0,0.32740100000000893
921,11,0.5,1.0,-35.0,-1,1.0,0.2606009999994967
922,11,0.5,0.0625,-35.0,1,0.0,5.464100999999573
923,11,0.5,0.125,35.0,1,1.0,0.32110099999999875
924,11,0.5,1.0,-35.0,-1,1.0,0.32470100000000457
925,11,0.5,0.25,35.0,1,1.0,0.3852009999995971
926,11,0.5,1.0,35.0,1,1.0,1.5983009999995375
927,11,0.5,0.125,-35.0,-1,1.0,0.6285009999996873
928,11,0.5,0.25,35.0,1,1.0,0.3552009999998518
929,11,0.5,0.25,-35.0,1,0.0,0.2622009999995498
930,11,0.6,0.25,-35.0,-1,1.0,0.30910099999982776
931,11,0.5,1.0,-35.0,-1,1.0,0.23910099999966405
932,11,0.5,0.125,35.0,1,1.0,1.2394009999998161
933,11,0.5,0.25,-35.0,-1,1.0,0.26260099999990416
934,11,0.5,0.0625,-35.0,1,0.0,0.012700999999651685
935,11,0.5,0.125,35.0,1,1.0,0.41290099999969243
936,11,0.5,1.0,35.0,1,1.0,0.34670099999948434
937,11,0.5,1.0,-35.0,-1,1.0,0.2767010000002301
938,11,0.5,0.125,35.0,1,1.0,0.4233009999998103
939,11,0.5,0.25,35.0,1,1.0,0.30730099999982485
940,11,0.5,0.0625,-35.0,-1,1.0,0.3038010000000213
941,11,0.5,0.25,35.0,1,1.0,0.2507009999994807
942,11,0.5,0.125,35.0,-1,0.0,0.06410099999948216
943,11,0.5,0.0625,-35.0,-1,1.0,0.5108009999994465
944,11,0.5,0.0625,-35.0,-1,1.0,0.27110099999981685
945,11,0.5,0.0625,-35.0,-1,1.0,1.7413009999995666
946,11,0.5,0.25,35.0,1,1.0,0.46840100000008533
947,11,0.5,0.0625,35.0,1,1.0,0.4916009999997186
948,11,0.5,1.0,-35.0,-1,1.0,0.4416009999999915
949,11,0.5,0.0625,-35.0,-1,1.0,0.3685009999999238
950,11,0.5,0.0625,35.0,1,1.0,4.031900999999834
951,11,0.5,0.25,-35.0,-1,1.0,0.28260099999988597
952,11,0.5,0.125,-35.0,-1,1.0,0.45260099999995873
953,11,0.5,0.0625,35.0,1,1.0,0.2997009999994589
954,11,0.5,0.0625,-35.0,-1,1.0,0.2965009999998074
955,11,0.5,0.0625,35.0,1,1.0,0.4665010000003349
956,11,0.5,0.125,-35.0,-1,1.0,0.3065009999995709
957,11,0.5,1.0,-35.0,-1,1.0,0.26680099999975937
958,11,0.5,0.25,-35.0,1,0.0,0.16680099999985032
959,11,0.5,0.125,35.0,1,1.0,0.3837009999997463
960,11,0.5,0.25,-35.0,-1,1.0,0.36070099999960803
961,11,0.5,0.0,35.0,-1,0.0,0.5239010000000235
962,11,0.5,0.0,35.0,1,1.0,0.3309009999998125
963,11,0.5,1.0,-35.0,-1,1.0,0.2112010000000737
964,11,0.5,0.0625,35.0,1,1.0,4.1512009999996735
965,11,0.5,1.0,35.0,1,1.0,0.2481009999996786
966,11,0.5,0.0625,-35.0,-1,1.0,0.34500100000013845
967,11,0.5,0.125,35.0,1,1.0,2.7747009999998227
968,11,0.5,0.25,-35.0,-1,1.0,0.25500099999999293
969,11,0.5,0.0625,-35.0,1,0.0,1.9554010000001654
970,11,0.5,0.25,-35.0,-1,1.0,0.412000999999691
971,11,0.5,0.125,-35.0,-1,1.0,0.42870099999981903
972,11,0.5,0.0625,35.0,1,1.0,3.4726009999999405
973,11,0.5,0.125,35.0,1,1.0,0.372700999999779
974,11,0.5,0.0,-35.0,-1,1.0,1.1431010000001152
975,11,0.5,0.25,-35.0,-1,1.0,0.3160010000001421
976,11,0.5,1.0,35.0,1,1.0,1.5531009999999696
977,11,0.5,1.0,35.0,1,1.0,0.39000099999975646
978,11,0.5,0.0625,35.0,1,1.0,5.023400999999922
979,11,0.5,0.0625,-35.0,-1,1.0,0.340900999999576
980,11,0.5,0.0,35.0,1,1.0,5.017000999999709
981,11,0.5,0.25,35.0,1,1.0,0.4374009999996815
982,11,0.5,0.125,35.0,1,1.0,6.094300999999632
983,11,0.5,0.125,-35.0,-1,1.0,0.37120099999992817
984,11,0.5,0.25,-35.0,-1,1.0,0.3313009999997121
985,11,0.5,0.125,35.0,1,1.0,3.8083010000000286
986,11,0.5,0.0625,-35.0,-1,1.0,0.7883999999999105
987,11,0.5,0.0625,35.0,1,1.0,3.8655009999997674
988,11,0.5,0.25,-35.0,-1,1.0,0.3522010000001501
989,11,0.5,0.25,-35.0,-1,1.0,0.30910099999982776
990,11,0.5,0.0625,-35.0,1,0.0,7.252401000000191
991,11,0.5,0.0625,35.0,1,1.0,0.609400999999707
992,11,0.5,0.0625,-35.0,-1,1.0,0.3262009999998554
993,11,0.5,0.125,35.0,1,1.0,1.0299009999998816
994,11,0.5,0.0,-35.0,1,0.0,0.3669009999998707
995,11,0.5,0.0625,35.0,1,1.0,0.4669010000002345
996,11,0.5,0.25,-35.0,-1,1.0,0.21690099999977974
997,11,0.5,0.0625,35.0,1,1.0,0.42020099999990634
998,11,0.5,0.125,35.0,1,1.0,0.40030099999967206
999,11,0.5,0.25,-35.0,-1,1.0,0.4411009999998896
1000,11,0.5,0.125,35.0,1,1.0,0.507300999999643
1001,11,0.5,1.0,35.0,1,1.0,0.3814009999996415
1002,11,0.5,0.125,35.0,1,1.0,0.7010009999999056
1003,11,0.5,0.0,-35.0,1,0.0,0.45480099999986123
1004,11,0.5,0.0,35.0,1,1.0,0.41120100000034654
1005,11,0.5,0.0625,-35.0,-1,1.0,0.3949009999996633
1006,11,0.5,0.25,-35.0,-1,1.0,0.24200099999961822
1007,11,0.5,1.0,-35.0,-1,1.0,0.5216010000003735
1008,11,0.5,0.125,-35.0,-1,1.0,0.6350009999996473
1009,11,0.5,0.25,-35.0,-1,1.0,0.2720009999998183
1010,11,0.5,0.25,35.0,-1,0.0,5.188800999999785
1011,11,0.5,0.0,35.0,1,1.0,0.5291010000000824
1012,11,0.5,0.25,-35.0,-1,1.0,0.2461010000006354
1013,11,0.5,0.0625,35.0,1,1.0,0.546001000000615
1014,11,0.5,0.25,35.0,1,1.0,0.3531010000006063
1015,11,0.5,0.125,35.0,1,1.0,0.6396010000007664
1016,11,0.5,1.0,-35.0,-1,1.0,0.26310100000046077
1017,11,0.5,0.0,35.0,1,1.0,3.6732010000005175
1018,11,0.5,0.125,35.0,1,1.0,0.2574010000007547
1019,11,0.5,1.0,35.0,1,1.0,0.4001009999992675
1020,11,0.5,0.125,35.0,-1,0.0,0.7903009999999995
1021,11,0.5,0.125,35.0,1,1.0,0.32720100000005914
1022,11,0.5,1.0,-35.0,-1,1.0,0.2773010000000795
1023,11,0.5,0.0625,-35.0,-1,1.0,0.4207010000000082
1024,11,0.5,0.125,35.0,1,1.0,0.5112010000002556
1025,11,0.5,0.0,35.0,-1,0.0,0.8876010000003589
1026,11,0.5,0.25,-35.0,-1,1.0,0.6046010000000024
1027,11,0.5,0.0625,-35.0,-1,1.0,0.8981009999997696
1028,11,0.5,0.25,-35.0,-1,1.0,0.26140100000066013
1029,11,0.5,0.0625,-35.0,-1,1.0,0.3182010000000446
1030,11,0.5,0.25,35.0,1,1.0,0.4118010000001959
1031,11,0.5,0.25,35.0,1,1.0,0.29520099999990634
1032,11,0.5,0.0,35.0,1,1.0,0.20850100000006933
1033,11,0.5,1.0,35.0,1,1.0,0.2887010000004011
1034,11,0.5,0.125,-35.0,-1,1.0,0.5088009999999485
1035,11,0.5,1.0,-35.0,-1,1.0,0.4556010000005699
1036,11,0.5,0.25,-35.0,-1,1.0,0.3395010000003822
1037,11,0.5,0.0625,-35.0,-1,1.0,0.3563010000007125
1038,11,0.5,0.0625,35.0,-1,0.0,2.029301000000487
1039,11,0.5,0.0,35.0,-1,0.0,0.37680100000034145
1040,11,0.4,0.0,-35.0,1,0.0,0.8697010000005321
1041,11,0.5,1.0,-35.0,-1,1.0,0.49670100000093953
1042,11,0.5,0.0625,35.0,1,1.0,0.6634010000007038
1043,11,0.5,0.125,-35.0,-1,1.0,0.33040100000107486
1044,11,0.5,1.0,35.0,1,1.0,0.24360100000012608
1045,11,0.5,0.125,-35.0,-1,1.0,0.30730099999982485
1046,11,0.5,1.0,-35.0,-1,1.0,0.3105009999999311
1047,11,0.5,0.0625,35.0,1,1.0,7.88390100000106
1048,11,0.5,0.0625,-35.0,-1,1.0,0.3513009999996939
1049,11,0.5,0.25,-35.0,-1,1.0,0.32130099999994854
1050,11,0.5,0.125,35.0,1,1.0,0.7681010000005699
1051,11,0.5,1.0,35.0,1,1.0,0.8514009999998962
1052,11,0.5,0.25,-35.0,-1,1.0,0.45140100000116945
1053,11,0.5,1.0,-35.0,-1,1.0,0.29160100000081
1054,11,0.5,0.0,-35.0,1,0.0,5.818600999999944
1055,11,0.5,0.25,-35.0,-1,1.0,0.2755010000009861
1056,11,0.5,0.125,35.0,1,1.0,0.2824010000003909
1057,11,0.5,1.0,35.0,1,1.0,0.1292010000006485
1058,11,0.5,0.125,-35.0,-1,1.0,0.4196010000005117
1059,11,0.5,0.25,-35.0,-1,1.0,0.19600100000025122
1060,11,0.5,0.125,-35.0,1,0.0,7.853001000000404
1061,11,0.5,0.25,35.0,1,1.0,0.3133010000010472
1062,11,0.5,0.0,-35.0,-1,1.0,0.21050099999956728
1063,11,0.5,0.125,35.0,1,1.0,0.5201010000000679
1064,11,0.5,0.25,35.0,1,1.0,0.49700100000063685
1065,11,0.5,0.25,35.0,1,1.0,3.0338010000004942
1066,11,0.5,0.0625,35.0,-1,0.0,0.21060100000067905
1067,11,0.5,0.25,-35.0,1,0.0,0.16100099999948725
1068,11,0.6,0.25,-35.0,-1,1.0,0.36760100000083185
1069,11,0.5,1.0,35.0,1,1.0,0.40760100000079547
1070,11,0.5,0.0625,-35.0,-1,1.0,0.3045010000005277
1071,11,0.5,0.125,-35.0,-1,1.0,1.9979009999997288
1072,11,0.5,0.0,35.0,1,1.0,1.9081009999999878
1073,11,0.5,0.125,-35.0,-1,1.0,0.4049009999998816
1074,11,0.5,0.25,35.0,1,1.0,0.4384009999994305
1075,11,0.5,0.125,-35.0,-1,1.0,0.348601000000599
1076,11,0.5,1.0,35.0,1,1.0,0.5254009999998743
1077,11,0.5,0.25,35.0,1,1.0,0.578801000000567
1078,11,0.5,0.0625,35.0,1,1.0,0.4589009999999689
1079,11,0.5,0.0625,-35.0,-1,1.0,0.5257010000004811
1080,11,0.5,1.0,-35.0,-1,1.0,0.31240100000013626
1081,11,0.5,0.0625,-35.0,-1,1.0,0.3357010000008813
1082,11,0.5,0.0625,35.0,1,1.0,3.356501000001117
1083,11,0.5,0.125,-35.0,-1,1.0,0.353001000000404
1084,11,0.5,0.125,-35.0,-1,1.0,0.31360100000074453
1085,11,0.5,1.0,-35.0,-1,1.0,0.25660100000004604
1086,11,0.5,1.0,-35.0,-1,1.0,0.2600010000005568
1087,11,0.5,0.25,35.0,-1,0.0,0.34340100000008533
1088,11,0.5,0.25,-35.0,-1,1.0,0.36730100000022503
1089,11,0.5,0.0625,-35.0,-1,1.0,0.30070100000011735
1090,11,0.5,1.0,35.0,1,1.0,0.4607010000008813
1091,11,0.5,1.0,35.0,1,1.0,0.3542010000001028
1092,11,0.5,1.0,-35.0,-1,1.0,0.2439009999998234
1093,11,0.5,0.125,35.0,1,1.0,5.387701000000561
1094,11,0.5,0.25,35.0,1,1.0,4.354801000000407
1095,11,0.5,0.25,35.0,1,1.0,0.44810100000086095
1096,11,0.5,0.0,-35.0,1,0.0,3.7618009999996502
1097,11,0.6,0.0,-35.0,1,0.0,0.29520100000081584
1098,11,0.5,1.0,-35.0,-1,1.0,0.3752010000007431
1099,11,0.5,0.25,-35.0,-1,1.0,0.29880099999991216
1100,11,0.5,0.0,-35.0,-1,1.0,0.2758009999997739
1101,11,0.5,0.0625,-35.0,-1,1.0,0.23230100000000675
1102,11,0.5,0.25,-35.0,-1,1.0,0.5190010000005714
1103,11,0.5,1.0,-35.0,-1,1.0,0.24300099999982194
1104,11,0.5,0.125,35.0,1,1.0,1.2527009999994334
1105,11,0.5,1.0,-35.0,-1,1.0,0.31620100000054663
1106,11,0.5,0.125,-35.0,-1,1.0,5.306501000000026
1107,11,0.5,0.125,35.0,1,1.0,1.8569010000010167
1108,11,0.5,0.0,-35.0,1,0.0,4.530001000000993
1109,11,0.5,0.0625,-35.0,-1,1.0,0.7475009999998292
1110,11,0.5,0.0625,-35.0,-1,1.0,0.2574010000007547
1111,11,0.5,0.125,35.0,1,1.0,0.3379010000007838
1112,11,0.5,0.0625,35.0,-1,0.0,1.1575010000005932
1113,11,0.4,0.0625,-35.0,1,0.0,0.29440100000101666
1114,11,0.5,1.0,35.0,1,1.0,0.23120099999960075
1115,11,0.5,0.125,35.0,1,1.0,0.42500099999961094
1116,11,0.5,0.0625,35.0,1,1.0,0.4649010000002818
1117,11,0.5,0.125,-35.0,-1,1.0,0.36500100000012026
1118,11,0.5,0.0,35.0,-1,0.0,2.08520099999987
1119,11,0.5,0.0,-35.0,-1,1.0,0.36200100000132807
1120,11,0.5,1.0,-35.0,-1,1.0,0.29890100000011444
1121,11,0.5,0.0625,35.0,1,1.0,10.876001000000542
1122,11,0.5,0.25,-35.0,-1,1.0,0.2861009999996895
1123,11,0.5,0.125,35.0,1,1.0,6.753100999999333
1124,11,0.5,1.0,35.0,1,1.0,0.3001009999998132
1125,11,0.5,0.25,35.0,1,1.0,7.467101000000184
1126,11,0.5,0.25,35.0,1,1.0,0.4273010000006252
1127,11,0.5,0.125,35.0,-1,0.0,0.2774010000011913
1128,11,0.5,0.0,-35.0,-1,1.0,0.18410099999982776
1129,11,0.5,0.0625,-35.0,-1,1.0,0.3744010000000344
1130,11,0.5,0.125,35.0,1,1.0,0.6313010000003487
1131,11,0.5,0.0625,-35.0,-1,1.0,0.2545009999994363
1132,11,0.5,0.25,-35.0,-1,1.0,0.27820100000008097
1133,11,0.5,1.0,35.0,1,1.0,6.395101000000068
1134,11,0.5,0.25,-35.0,-1,1.0,0.33160099999986414
1135,11,0.5,0.0625,35.0,1,1.0,0.34220100000038656
1136,11,0.5,0.0625,35.0,1,1.0,1.6185010000008333
1137,11,0.5,1.0,-35.0,-1,1.0,0.34550100000069506
1138,11,0.5,1.0,35.0,1,1.0,0.41560000000117725
1139,11,0.5,0.125,35.0,1,1.0,4.5424009999997
1140,11,0.5,0.0625,35.0,1,1.0,4.94260100000065
1141,11,0.5,0.125,-35.0,-1,1.0,0.33320200000071054
1142,11,0.5,0.0,35.0,1,1.0,2.4466019999999844
1143,11,0.5,1.0,35.0,1,1.0,0.3432020000000193
1144,11,0.5,0.0625,-35.0,-1,1.0,1.4233020000001488
1145,11,0.5,0.25,-35.0,-1,1.0,0.34680200000093464
1146,11,0.5,0.125,-35.0,-1,1.0,0.3171020000008866
1147,11,0.5,0.125,35.0,1,1.0,0.6473020000003089
1148,11,0.5,0.0625,-35.0,-1,1.0,0.3572019999992335
1149,11,0.5,0.25,35.0,1,1.0,0.5375020000010409
1150,11,0.5,1.0,-35.0,-1,1.0,0.327502000000095
1151,11,0.5,0.0625,35.0,1,1.0,0.32470199999988836
1152,11,0.5,0.0625,35.0,-1,0.0,5.544601999999941
1153,11,0.5,0.0625,-35.0,-1,1.0,0.3580019999999422
1154,11,0.5,0.25,35.0,1,1.0,0.31150200000047334
1155,11,0.5,0.25,-35.0,-1,1.0,0.4484019999999873
1156,11,0.5,0.0625,35.0,1,1.0,1.3419020000001183
1157,11,0.5,0.125,-35.0,-1,1.0,0.48540200000024925
