trial_num,session_num,stim_probability_left,contrast,position,response_choice,trial_correct,reaction_time
1,1,0.5,0.125,-35.0,-1,1.0,0.11670000000000003
2,1,0.5,1.0,-35.0,-1,1.0,0.0915999999999988
3,1,0.5,0.25,-35.0,-1,1.0,4.4392000000000005
4,1,0.5,0.125,35.0,-1,0.0,6.4556000000000004
5,1,0.5,0.125,35.0,-1,0.0,4.216399999999997
6,1,0.5,0.25,35.0,-1,0.0,0.20399999999999707
7,1,0.5,0.25,35.0,1,1.0,2.5756999999999977
8,1,0.5,0.25,-35.0,-1,1.0,3.4813000000000045
9,1,0.5,0.125,-35.0,-1,1.0,3.4872999999999976
10,1,0.5,1.0,-35.0,-1,1.0,0.4883000000000024
11,1,0.5,1.0,-35.0,-1,1.0,4.7923000000000044
12,1,0.5,0.0625,35.0,-1,0.0,4.399899999999995
13,1,0.5,1.0,35.0,1,1.0,3.117999999999995
14,1,0.5,0.0,35.0,-1,0.0,3.6385999999999967
15,1,0.5,0.0,-35.0,-1,1.0,6.584299999999999
16,1,0.5,0.0625,-35.0,1,0.0,9.555499999999995
17,1,0.5,0.125,35.0,1,1.0,3.5970999999999975
18,1,0.5,0.125,35.0,1,1.0,5.658599999999993
19,1,0.5,0.25,35.0,1,1.0,6.9872999999999905
20,1,0.5,0.0,35.0,-1,0.0,7.481400000000008
21,1,0.5,1.0,-35.0,-1,1.0,0.3936000000000206
22,1,0.5,0.0625,-35.0,-1,1.0,6.229700000000008
23,1,0.5,0.125,35.0,-1,0.0,5.6148000000000025
24,1,0.5,0.0625,35.0,-1,0.0,15.047300000000007
25,1,0.5,0.125,-35.0,-1,1.0,6.82080000000002
26,1,0.5,0.125,35.0,-1,0.0,5.011799999999994
27,1,0.5,1.0,-35.0,-1,1.0,6.023799999999994
28,1,0.5,0.125,-35.0,-1,1.0,7.7593000000000245
29,1,0.5,0.125,35.0,-1,0.0,9.466400000000021
30,1,0.5,0.125,-35.0,-1,1.0,4.828400000000016
31,1,0.5,0.0625,35.0,-1,0.0,0.7043999999999926
32,1,0.5,0.25,-35.0,-1,1.0,0.27990000000002624
33,1,0.5,0.0625,-35.0,-1,1.0,2.9294000000000437
34,1,0.5,0.0,35.0,-1,0.0,3.913099999999986
35,1,0.5,0.0,-35.0,-1,1.0,8.080799999999954
36,1,0.5,0.125,-35.0,-1,1.0,4.837499999999977
37,1,0.5,0.125,35.0,-1,0.0,6.036599999999964
38,1,0.5,0.0625,35.0,-1,0.0,6.581699999999955
39,1,0.5,0.25,-35.0,-1,1.0,6.968900000000019
40,1,0.5,0.125,-35.0,-1,1.0,10.825399000000004
41,1,0.5,0.0625,35.0,-1,0.0,11.123599999999954
42,1,0.5,0.25,35.0,-1,0.0,7.069999999999993
43,1,0.5,1.0,35.0,1,1.0,0.3575999999999908
44,1,0.5,0.0,-35.0,-1,1.0,2.139599999999973
45,1,0.5,0.0,35.0,-1,0.0,4.213799999999992
46,1,0.5,0.0625,-35.0,-1,1.0,3.5913999999999646
47,1,0.5,0.0625,-35.0,1,0.0,1.8022000000000276
48,1,0.5,1.0,-35.0,-1,1.0,0.4979999999999336
49,1,0.5,0.125,-35.0,-1,1.0,4.221100999999976
50,1,0.5,0.0625,-35.0,-1,1.0,4.309700999999961
51,1,0.5,1.0,35.0,1,1.0,0.9930009999999925
52,1,0.5,0.25,-35.0,-1,1.0,4.9708009999999945
53,1,0.5,0.125,35.0,-1,0.0,3.848901000000012
54,1,0.5,1.0,35.0,1,1.0,0.7507009999999354
55,1,0.5,1.0,-35.0,-1,1.0,0.36710100000004786
56,1,0.5,0.0625,-35.0,-1,1.0,6.155900999999972
57,1,0.5,1.0,-35.0,-1,1.0,0.21740099999993845
58,1,0.5,0.0,-35.0,-1,1.0,7.132100999999977
59,1,0.5,1.0,-35.0,-1,1.0,0.43730099999999084
60,1,0.5,1.0,-35.0,-1,1.0,0.23000099999995882
61,1,0.5,0.0625,35.0,-1,0.0,7.697400999999957
62,1,0.5,0.25,35.0,1,1.0,0.537001000000032
63,1,0.5,1.0,35.0,1,1.0,0.6993009999999913
64,1,0.5,1.0,-35.0,-1,1.0,0.2722009999999955
65,1,0.5,0.0625,-35.0,1,0.0,0.7035009999999602
66,1,0.5,0.125,35.0,-1,0.0,1.3106010000000197
67,1,0.5,0.125,-35.0,-1,1.0,0.3014009999999985
68,1,0.5,0.125,-35.0,-1,1.0,5.949701000000005
69,1,0.5,1.0,35.0,1,1.0,1.5738010000000031
70,1,0.5,1.0,35.0,1,1.0,8.251900999999975
71,1,0.5,0.25,-35.0,-1,1.0,7.891501000000062
72,1,0.5,0.0,-35.0,-1,1.0,0.27640099999996437
73,1,0.5,0.125,-35.0,-1,1.0,0.36910100000011425
74,1,0.5,0.125,-35.0,-1,1.0,0.3479009999999789
75,1,0.5,0.125,-35.0,-1,1.0,5.059901000000082
76,1,0.5,0.0,-35.0,-1,1.0,0.40990099999999074
77,1,0.5,0.25,35.0,-1,0.0,5.7230010000000675
78,1,0.5,0.125,35.0,1,1.0,7.296500999999921
79,1,0.5,0.125,-35.0,-1,1.0,0.23840099999995346
80,1,0.5,0.0625,-35.0,-1,1.0,0.6809009999999489
81,1,0.5,0.0625,35.0,-1,0.0,0.4878009999999904
82,1,0.5,0.0,-35.0,1,0.0,1.0433009999999285
83,1,0.5,0.25,-35.0,-1,1.0,5.598000999999954
84,1,0.5,0.125,-35.0,-1,1.0,0.2855009999999538
85,1,0.5,0.25,35.0,-1,0.0,7.110400999999911
86,1,0.5,1.0,-35.0,-1,1.0,0.24660100000005514
87,1,0.5,0.0625,35.0,-1,0.0,7.302100999999993
88,1,0.5,0.25,-35.0,-1,1.0,0.2253010000000586
89,1,0.5,0.125,35.0,-1,0.0,2.4037009999998418
90,1,0.5,0.125,-35.0,-1,1.0,0.3022009999998545
91,1,0.8,0.0625,35.0,-1,0.0,6.1420009999999365
92,1,0.8,1.0,-35.0,-1,1.0,0.2755009999999629
93,1,0.8,1.0,-35.0,-1,1.0,0.13880100000005768
94,1,0.8,1.0,-35.0,-1,1.0,0.21950100000003658
95,1,0.8,0.25,-35.0,-1,1.0,0.5003010000000359
96,1,0.8,0.0625,-35.0,-1,1.0,6.495600999999965
97,1,0.8,0.25,-35.0,-1,1.0,0.22450099999991835
98,1,0.8,0.125,-35.0,-1,1.0,1.852600999999936
99,1,0.8,0.25,-35.0,1,0.0,0.8204010000000608
100,1,0.8,0.25,-35.0,-1,1.0,0.39870099999996
101,1,0.8,0.125,35.0,1,1.0,6.716500999999994
102,1,0.8,0.0625,-35.0,-1,1.0,0.27030100000001767
103,1,0.8,0.25,-35.0,-1,1.0,0.6264009999999871
104,1,0.8,0.25,-35.0,-1,1.0,0.28280099999994945
105,1,0.8,0.0625,-35.0,-1,1.0,0.4795010000000275
106,1,0.8,0.0,35.0,-1,0.0,9.792200999999977
107,1,0.8,1.0,-35.0,-1,1.0,0.29280099999994036
108,1,0.8,0.0,35.0,1,1.0,0.5455009999999447
109,1,0.8,0.125,-35.0,-1,1.0,6.760301000000027
110,1,0.8,1.0,-35.0,-1,1.0,0.24240099999997256
111,1,0.8,0.0625,-35.0,-1,1.0,0.22490100000004531
112,1,0.8,0.25,-35.0,-1,1.0,4.950601000000006
113,1,0.8,0.0625,-35.0,-1,1.0,0.20220099999994545
114,1,0.8,0.0,-35.0,-1,1.0,6.148800999999935
115,1,0.8,0.25,-35.0,-1,1.0,0.5076010000000224
116,1,0.8,0.125,-35.0,-1,1.0,4.0683010000000195
117,1,0.8,1.0,-35.0,-1,1.0,0.30310099999996964
118,1,0.8,0.25,-35.0,-1,1.0,0.30540099999996073
119,1,0.8,0.0,-35.0,-1,1.0,0.2559009999999944
120,1,0.8,0.0625,-35.0,1,0.0,0.5936010000000351
121,1,0.8,0.0625,35.0,-1,0.0,7.707001000000105
122,1,0.8,1.0,-35.0,-1,1.0,0.27430100000003677
123,1,0.8,0.25,-35.0,-1,1.0,0.425000999999952
124,1,0.2,0.25,35.0,-1,0.0,7.411000999999942
125,1,0.2,1.0,-35.0,-1,1.0,0.2436010000000124
126,1,0.2,0.125,35.0,-1,0.0,7.2343009999999595
127,1,0.2,0.0,35.0,-1,0.0,0.41200099999991835
128,1,0.2,0.125,35.0,-1,0.0,0.27030100000001767
129,1,0.2,0.0625,35.0,1,1.0,5.5690009999999575
130,1,0.2,0.25,35.0,1,1.0,0.31290100000012444
131,1,0.2,0.25,35.0,1,1.0,0.5673009999999294
132,1,0.2,0.25,35.0,1,1.0,7.586600999999973
133,1,0.2,0.125,35.0,1,1.0,0.243300999999974
134,1,0.2,0.25,35.0,1,1.0,0.5250009999999747
135,1,0.2,0.125,35.0,-1,0.0,7.682001000000014
136,1,0.2,1.0,35.0,1,1.0,0.2656009999999469
137,1,0.2,0.125,35.0,1,1.0,0.3923009999999749
138,1,0.2,0.125,-35.0,-1,1.0,4.220701000000076
139,1,0.2,0.25,35.0,1,1.0,0.7519009999998616
140,1,0.2,0.25,35.0,1,1.0,0.265901000000099
141,1,0.2,0.125,-35.0,-1,1.0,0.3967010000000073
142,1,0.2,0.25,35.0,1,1.0,0.2820009999999229
143,1,0.2,0.0625,35.0,1,1.0,0.6804009999999607
144,1,0.2,0.0,35.0,1,1.0,6.918800999999917
145,1,0.2,0.25,35.0,1,1.0,0.4327009999999518
146,1,0.2,0.125,35.0,1,1.0,7.680500999999936
147,1,0.2,0.0625,35.0,1,1.0,0.2921010000000024
148,1,0.2,0.125,35.0,1,1.0,0.3224009999998998
149,1,0.2,1.0,35.0,1,1.0,0.25970099999995
150,1,0.2,0.0625,35.0,1,1.0,8.518900999999914
151,1,0.2,1.0,35.0,1,1.0,0.6561009999999214
152,1,0.2,0.0625,35.0,1,1.0,1.0809010000000399
153,1,0.2,0.25,35.0,1,1.0,0.4877010000000155
154,1,0.2,1.0,35.0,1,1.0,0.25450099999989106
155,1,0.2,0.125,35.0,1,1.0,0.32160099999987324
156,1,0.2,0.125,35.0,1,1.0,0.33140100000002803
157,1,0.2,1.0,-35.0,-1,1.0,0.27860099999998056
158,1,0.2,1.0,35.0,1,1.0,0.41810099999997874
159,1,0.2,0.0625,-35.0,-1,1.0,11.617900999999847
160,1,0.2,0.25,35.0,1,1.0,1.2553009999999176
161,1,0.2,0.125,-35.0,-1,1.0,0.4052010000000337
162,1,0.2,0.125,35.0,1,1.0,8.92200099999991
163,1,0.2,1.0,35.0,1,1.0,0.2921010000000024
164,1,0.2,0.25,-35.0,-1,1.0,0.26559999999994943
165,1,0.2,0.0,35.0,-1,0.0,4.6492010000001756
166,1,0.2,0.0625,-35.0,-1,1.0,7.452201000000059
167,1,0.2,0.125,35.0,-1,0.0,0.25260099999991326
168,1,0.2,1.0,35.0,1,1.0,0.28590100000019447
169,1,0.2,0.25,35.0,1,1.0,0.30300099999999475
170,1,0.2,0.125,35.0,1,1.0,0.35930099999995946
171,1,0.2,0.125,-35.0,-1,1.0,0.3362009999998463
172,1,0.2,1.0,35.0,1,1.0,0.3965009999999438
173,1,0.2,1.0,35.0,1,1.0,0.48620099999993727
174,1,0.2,0.125,35.0,1,1.0,0.4696010000000115
175,1,0.2,0.25,35.0,1,1.0,0.3164009999998143
176,1,0.2,0.0625,35.0,1,1.0,0.6967009999998481
177,1,0.2,0.0,35.0,1,1.0,9.939899999999852
178,1,0.2,1.0,35.0,1,1.0,0.21710099999972954
179,1,0.2,0.125,35.0,1,1.0,7.190100999999913
180,1,0.2,0.25,35.0,1,1.0,0.6437009999999646
181,1,0.2,0.25,35.0,1,1.0,0.6169009999998707
182,1,0.2,0.0625,-35.0,-1,1.0,0.6638009999999213
183,1,0.2,0.125,35.0,1,1.0,0.5608009999998558
184,1,0.2,0.0625,35.0,1,1.0,6.130701000000045
185,1,0.2,0.125,35.0,1,1.0,0.6039009999999507
186,1,0.2,0.125,35.0,1,1.0,0.45410100000003695
187,1,0.2,0.25,-35.0,-1,1.0,6.834101000000146
188,1,0.2,0.0625,35.0,-1,0.0,0.7011010000001079
189,1,0.2,0.25,-35.0,-1,1.0,0.26480099999980666
190,1,0.2,0.25,35.0,1,1.0,0.7511010000000624
191,1,0.2,1.0,-35.0,-1,1.0,0.2610010000000784
192,1,0.2,0.25,35.0,1,1.0,0.3948009999999158
193,1,0.2,0.25,-35.0,-1,1.0,6.5252009999999245
194,1,0.2,0.25,35.0,1,1.0,0.29480100000000675
195,1,0.2,0.0625,35.0,-1,0.0,0.018600999999989654
196,1,0.2,0.125,35.0,1,1.0,0.6249009999999089
197,1,0.2,0.25,35.0,1,1.0,0.44220099999984086
198,1,0.2,1.0,35.0,1,1.0,0.32510099999990416
199,1,0.2,0.0,35.0,1,1.0,3.765000999999984
200,1,0.2,1.0,35.0,1,1.0,0.2619009999998525
201,1,0.2,0.25,35.0,-1,0.0,0.8351010000001224
202,1,0.2,0.125,35.0,1,1.0,0.3789009999998143
203,1,0.2,0.125,35.0,1,1.0,0.3189009999998689
204,1,0.2,0.125,35.0,1,1.0,8.875801000000138
205,1,0.2,0.25,35.0,1,1.0,0.27240099999994527
206,1,0.2,1.0,35.0,1,1.0,0.4359009999998307
207,1,0.2,0.125,35.0,1,1.0,0.28290100000003804
208,1,0.2,0.0,-35.0,1,0.0,0.5227999999999611
209,1,0.2,0.0625,-35.0,-1,1.0,1.3293009999999867
210,1,0.2,0.0625,35.0,-1,0.0,5.332900999999765
211,1,0.2,0.125,35.0,1,1.0,0.8395009999999274
212,1,0.2,1.0,-35.0,-1,1.0,0.28290099999981067
213,1,0.2,0.25,35.0,1,1.0,0.25280099999986305
214,1,0.2,1.0,35.0,1,1.0,0.3930009999999129
215,1,0.8,0.125,35.0,1,1.0,0.8262010000000828
216,1,0.8,0.125,-35.0,-1,1.0,6.116800999999896
217,1,0.8,0.0625,-35.0,-1,1.0,0.34700100000009115
218,1,0.8,1.0,-35.0,-1,1.0,3.450501000000031
219,1,0.8,1.0,-35.0,-1,1.0,0.21010099999989507
220,1,0.8,0.0625,-35.0,-1,1.0,0.23000100000012935
221,1,0.8,0.125,-35.0,-1,1.0,0.7534009999999398
222,1,0.8,1.0,-35.0,-1,1.0,1.357101000000057
223,1,0.8,0.0625,-35.0,-1,1.0,4.627201000000014
224,1,0.8,0.25,-35.0,-1,1.0,0.3240009999999529
225,1,0.8,0.125,35.0,-1,0.0,0.2844009999998889
226,1,0.8,0.0,-35.0,-1,1.0,7.114001000000144
227,1,0.8,0.125,-35.0,-1,1.0,3.4341009999998278
228,1,0.8,1.0,-35.0,-1,1.0,0.2511010000000624
229,1,0.8,0.25,-35.0,-1,1.0,5.391501000000062
230,1,0.8,0.25,-35.0,-1,1.0,0.6243010000000595
231,1,0.8,0.0625,-35.0,-1,1.0,7.918101000000206
232,1,0.8,0.125,-35.0,-1,1.0,0.32150099999989834
233,1,0.8,0.125,-35.0,-1,1.0,0.7851009999997132
234,1,0.8,0.25,-35.0,-1,1.0,4.098300999999992
235,1,0.8,0.0,-35.0,-1,1.0,4.845101000000113
236,1,0.8,0.0,-35.0,1,0.0,0.6259009999998852
237,1,0.8,0.0625,35.0,-1,0.0,0.27240100000017264
238,1,0.8,0.25,-35.0,-1,1.0,0.455400999999938
239,1,0.8,0.0625,35.0,1,1.0,0.41230099999984304
240,1,0.8,1.0,-35.0,-1,1.0,0.9521010000000842
241,1,0.8,0.25,-35.0,-1,1.0,2.0791009999998096
242,1,0.8,0.25,-35.0,-1,1.0,1.9824009999999817
243,1,0.8,0.25,-35.0,-1,1.0,4.469101000000137
244,1,0.8,0.0625,-35.0,-1,1.0,1.6362010000000282
245,1,0.8,0.0625,-35.0,1,0.0,0.2792010000000573
246,1,0.8,0.0625,-35.0,-1,1.0,0.4228010000001632
247,1,0.8,1.0,-35.0,-1,1.0,0.3262010000000828
248,1,0.8,0.125,-35.0,-1,1.0,4.339900999999827
249,1,0.8,1.0,35.0,1,1.0,0.36970100000007733
250,1,0.8,1.0,-35.0,-1,1.0,4.626500999999962
251,1,0.8,0.0625,35.0,1,1.0,1.283301000000165
252,1,0.8,0.0,-35.0,-1,1.0,5.776601000000028
253,1,0.8,0.0625,-35.0,-1,1.0,0.22690099999999802
254,1,0.8,0.125,-35.0,-1,1.0,4.510701000000154
255,1,0.8,0.0625,-35.0,-1,1.0,0.2539010000000417
256,1,0.8,0.25,35.0,1,1.0,0.284300999999914
257,1,0.8,0.125,-35.0,-1,1.0,3.1703009999998812
258,1,0.8,0.0625,-35.0,-1,1.0,0.2773010000000795
259,1,0.8,0.0,-35.0,-1,1.0,8.360501000000113
260,1,0.8,0.125,-35.0,-1,1.0,0.23740099999986342
261,1,0.8,1.0,-35.0,-1,1.0,6.790801000000101
262,1,0.8,0.25,-35.0,-1,1.0,0.30130099999996673
263,1,0.8,1.0,-35.0,-1,1.0,4.727900999999974
264,1,0.8,0.25,-35.0,-1,1.0,0.28130099999975755
265,1,0.8,1.0,35.0,1,1.0,0.30490099999997256
266,1,0.8,1.0,-35.0,-1,1.0,0.4413009999998394
267,1,0.8,1.0,-35.0,-1,1.0,6.941501000000017
268,1,0.8,0.0625,-35.0,-1,1.0,0.18480099999987942
269,1,0.8,0.125,-35.0,-1,1.0,8.228401000000076
270,1,0.8,0.125,-35.0,-1,1.0,0.22180099999991398
271,1,0.8,0.0625,-35.0,-1,1.0,0.24570100000005368
272,1,0.8,1.0,-35.0,-1,1.0,0.25210100000003877
273,1,0.8,1.0,-35.0,-1,1.0,0.24240099999997256
274,1,0.8,0.0,-35.0,-1,1.0,5.6093009999999595
275,1,0.8,0.0625,35.0,1,1.0,1.102301000000125
276,1,0.8,0.25,-35.0,-1,1.0,0.3824010000000726
277,1,0.8,0.125,-35.0,-1,1.0,4.159401000000116
278,1,0.8,0.0625,-35.0,1,0.0,3.745800999999801
279,1,0.8,0.25,-35.0,-1,1.0,0.3827009999997699
280,1,0.8,1.0,-35.0,-1,1.0,0.37940099999991617
281,1,0.8,1.0,35.0,1,1.0,0.33950099999992744
282,1,0.8,0.125,-35.0,-1,1.0,0.33300100000019484
283,1,0.8,0.0625,-35.0,-1,1.0,7.816401000000042
284,1,0.8,0.125,-35.0,-1,1.0,0.46650099999988015
285,1,0.8,0.125,-35.0,-1,1.0,5.373000999999931
286,1,0.8,0.125,35.0,1,1.0,0.5000010000001112
287,1,0.8,1.0,35.0,1,1.0,0.5505009999999402
288,1,0.8,0.125,35.0,1,1.0,0.5435010000001057
289,1,0.8,0.0625,-35.0,-1,1.0,0.5505009999999402
290,1,0.8,0.0625,-35.0,-1,1.0,5.363500999999815
291,1,0.8,0.125,-35.0,-1,1.0,7.750700999999708
292,1,0.8,0.0,-35.0,-1,1.0,0.23710099999993872
293,1,0.8,0.0625,-35.0,1,0.0,4.1209010000000035
294,1,0.8,0.125,-35.0,-1,1.0,0.34090100000003076
295,1,0.8,0.25,-35.0,-1,1.0,0.3745010000000093
296,1,0.8,1.0,-35.0,-1,1.0,4.780700999999908
297,1,0.8,0.125,-35.0,-1,1.0,0.30110099999978956
298,1,0.8,0.25,35.0,1,1.0,0.4710010000001148
299,1,0.8,0.0625,-35.0,-1,1.0,0.46450099999992744
300,1,0.8,1.0,-35.0,-1,1.0,0.24460100000010243
301,1,0.2,1.0,35.0,1,1.0,0.39150100000006205
302,1,0.2,0.0625,35.0,1,1.0,4.311200999999983
303,1,0.2,0.25,35.0,1,1.0,0.41790099999980157
304,1,0.2,1.0,35.0,1,1.0,0.33520099999986996
305,1,0.2,0.0,35.0,-1,0.0,5.231800999999905
306,1,0.2,0.25,35.0,1,1.0,0.24530099999992672
307,1,0.2,0.0,-35.0,-1,1.0,0.32510099999990416
308,1,0.2,0.0,35.0,-1,0.0,0.5520010000000184
309,1,0.2,0.125,35.0,1,1.0,0.6417010000000118
310,1,0.2,1.0,35.0,1,1.0,0.4251010000000406
311,1,0.2,0.0625,35.0,1,1.0,0.5986009999999169
312,1,0.2,0.25,35.0,1,1.0,0.2918010000000777
313,1,0.2,0.25,-35.0,1,0.0,1.001801000000114
314,1,0.2,1.0,35.0,1,1.0,0.41200099999991835
315,1,0.2,0.0625,35.0,1,1.0,0.368701000000101
316,1,0.2,0.25,35.0,1,1.0,0.33250100000009297
317,1,0.2,0.0625,35.0,1,1.0,0.57220099999995
318,1,0.2,0.0,35.0,1,1.0,6.888901000000033
319,1,0.2,0.25,35.0,1,1.0,0.5156009999998332
320,1,0.2,0.25,35.0,1,1.0,0.6194009999999253
321,1,0.2,1.0,-35.0,-1,1.0,0.38920100000018465
322,1,0.2,0.125,35.0,1,1.0,0.34960099999989325
323,1,0.2,0.25,-35.0,-1,1.0,0.7260009999999966
324,1,0.2,0.0625,35.0,1,1.0,5.1963009999999485
325,1,0.2,0.125,35.0,1,1.0,0.5998010000000704
326,1,0.2,0.0625,35.0,1,1.0,0.46970100000021375
327,1,0.2,0.0,35.0,1,1.0,3.1730009999998856
328,1,0.2,0.125,35.0,1,1.0,4.2968009999999595
329,1,0.2,0.0625,-35.0,-1,1.0,0.3445010000000366
330,1,0.2,0.125,-35.0,-1,1.0,0.2478009999999813
331,1,0.2,0.125,35.0,1,1.0,0.27460100000007515
332,1,0.2,0.125,35.0,1,1.0,0.34130099999993035
333,1,0.2,0.0625,35.0,1,1.0,6.401300999999876
334,1,0.2,0.25,35.0,1,1.0,0.49480099999982485
335,1,0.2,1.0,35.0,1,1.0,1.5349009999999907
336,1,0.2,0.25,35.0,-1,0.0,9.645000999999866
337,1,0.2,0.0625,35.0,-1,0.0,1.4285009999998692
338,1,0.2,0.25,35.0,1,1.0,0.4285010000000966
339,1,0.2,0.125,35.0,1,1.0,1.1720009999999093
340,1,0.2,0.0625,35.0,-1,0.0,7.451900999999907
341,1,0.2,0.25,35.0,1,1.0,0.32890100000008715
342,1,0.2,0.0625,35.0,1,1.0,0.48220100000003185
343,1,0.2,0.25,35.0,1,1.0,0.5523009999999431
344,1,0.2,0.125,35.0,1,1.0,0.29900100000008933
345,1,0.2,1.0,-35.0,-1,1.0,7.63920099999973
346,1,0.2,0.0625,35.0,-1,0.0,0.1326010000000224
347,1,0.2,1.0,-35.0,-1,1.0,0.37940099999991617
348,1,0.2,1.0,35.0,1,1.0,0.25610100000017155
349,1,0.2,0.125,35.0,1,1.0,1.0263010000001032
350,1,0.2,0.25,35.0,1,1.0,0.29640100000005987
351,1,0.2,0.0625,35.0,1,1.0,1.0831009999999424
352,1,0.2,0.125,35.0,1,1.0,0.36320100000011735
353,1,0.2,0.25,35.0,1,1.0,0.25660099999981867
354,1,0.2,0.125,35.0,1,1.0,0.5799010000000635
355,1,0.2,0.25,35.0,1,1.0,0.4333010000000286
356,1,0.2,0.25,35.0,1,1.0,0.5501010000000406
357,1,0.2,0.25,35.0,1,1.0,4.173401000000013
358,1,0.2,0.125,35.0,1,1.0,0.6402009999999336
359,1,0.2,0.0625,35.0,-1,0.0,5.590300999999727
360,1,0.2,0.0625,35.0,1,1.0,0.5138010000000577
361,1,0.2,0.125,35.0,1,1.0,0.4572009999999409
362,1,0.2,1.0,35.0,1,1.0,0.22060100000044258
363,1,0.2,0.0625,-35.0,-1,1.0,4.120601000000079
364,1,0.2,0.125,-35.0,-1,1.0,0.37740100000019083
365,1,0.2,0.125,35.0,1,1.0,0.6274009999997361
366,1,0.2,0.0625,35.0,-1,0.0,5.1042010000005575
367,1,0.2,1.0,35.0,1,1.0,0.3577010000003611
368,1,0.2,0.25,35.0,1,1.0,0.5610010000004877
369,1,0.2,0.25,35.0,1,1.0,0.5644010000005437
370,1,0.2,0.125,35.0,1,1.0,0.7545000000000073
371,1,0.2,0.0,35.0,-1,0.0,6.174500999999964
372,1,0.2,0.25,35.0,1,1.0,0.2982010000000628
373,1,0.2,0.125,35.0,1,1.0,0.48470099999985905
374,1,0.2,0.0,35.0,-1,0.0,5.948201000000154
375,1,0.2,0.0625,-35.0,-1,1.0,0.44170100000019374
376,1,0.2,0.0625,35.0,1,1.0,5.298401000000467
377,1,0.2,0.125,35.0,1,1.0,0.4652009999999791
378,1,0.2,0.25,35.0,1,1.0,0.33530100000007224
379,1,0.2,0.25,35.0,1,1.0,0.37860100000034436
380,1,0.2,0.0625,35.0,1,1.0,0.3621010000001661
381,1,0.2,0.25,35.0,1,1.0,0.4721010000002934
382,1,0.2,0.25,35.0,1,1.0,0.30880100000013044
383,1,0.2,0.0,35.0,-1,0.0,0.5555010000002767
384,1,0.2,1.0,35.0,1,1.0,0.2091009999999187
385,1,0.2,0.0625,35.0,1,1.0,0.6224010000005364
386,1,0.2,0.125,-35.0,1,0.0,3.699101000000155
387,1,0.2,0.0625,35.0,1,1.0,0.5892010000002301
388,1,0.8,0.0,-35.0,1,0.0,0.6925010000004477
389,1,0.8,0.25,35.0,1,1.0,0.3862010000002556
390,1,0.8,0.125,-35.0,-1,1.0,8.36270100000047
391,1,0.8,0.0625,-35.0,-1,1.0,2.026201000000583
392,1,0.8,0.25,35.0,1,1.0,0.523001000000022
393,1,0.8,1.0,-35.0,-1,1.0,0.3264010000007147
394,1,0.8,0.0,35.0,-1,0.0,4.156401000000642
395,1,0.8,1.0,-35.0,-1,1.0,0.30660100000022794
396,1,0.8,0.0625,-35.0,1,0.0,5.496701000000485
397,1,0.8,0.0,35.0,-1,0.0,3.950101000000359
398,1,0.8,0.125,-35.0,-1,1.0,0.7769010000001799
399,1,0.8,0.125,-35.0,-1,1.0,0.2669999999998254
400,1,0.8,0.125,-35.0,-1,1.0,0.3438009999999849
401,1,0.8,0.25,-35.0,-1,1.0,0.44370100000014645
402,1,0.8,1.0,-35.0,-1,1.0,0.3272010000005139
403,1,0.8,0.25,-35.0,-1,1.0,0.3438009999999849
404,1,0.8,0.125,-35.0,-1,1.0,4.360599999999977
405,1,0.8,0.25,35.0,-1,0.0,4.804001000000426
406,1,0.8,0.0625,-35.0,-1,1.0,0.34420100000033926
407,1,0.8,0.0,-35.0,-1,1.0,0.3509010000007038
408,1,0.8,0.125,-35.0,-1,1.0,0.35760100000061357
409,1,0.8,0.0625,35.0,-1,0.0,8.567701000000397
410,1,0.8,1.0,-35.0,-1,1.0,0.25450099999989106
411,1,0.8,0.125,-35.0,-1,1.0,0.7680009999999129
412,1,0.8,0.25,-35.0,-1,1.0,0.3514010000003509
413,1,0.8,1.0,-35.0,-1,1.0,0.3447010000004411
414,1,0.8,0.25,-35.0,-1,1.0,0.7215009999999893
415,1,0.8,0.125,-35.0,-1,1.0,7.564800999999989
416,1,0.8,0.125,-35.0,-1,1.0,0.46170100000017555
417,1,0.8,0.0,-35.0,-1,1.0,6.068501000000197
418,1,0.8,0.25,-35.0,-1,1.0,0.25530100000059974
419,1,0.8,1.0,35.0,1,1.0,0.4586010000002716
420,1,0.8,0.25,35.0,-1,0.0,4.485400999999911
421,1,0.8,0.125,-35.0,-1,1.0,0.3322010000001683
422,1,0.2,0.0625,35.0,-1,0.0,8.12550100000044
423,1,0.2,1.0,35.0,1,1.0,0.38580099999990125
424,1,0.2,0.25,-35.0,-1,1.0,0.3092010000004848
425,1,0.2,1.0,35.0,1,1.0,0.34590100000059465
426,1,0.2,0.25,35.0,1,1.0,0.30250100000012026
427,1,0.2,1.0,-35.0,-1,1.0,0.3960010000000693
428,1,0.2,0.0,35.0,-1,0.0,10.48940100000027
429,1,0.2,1.0,35.0,1,1.0,0.2697010000001683
430,1,0.2,1.0,35.0,1,1.0,0.593101000000388
431,1,0.2,0.25,35.0,1,1.0,0.2731010000002243
432,1,0.2,0.0625,35.0,1,1.0,1.6632010000002992
433,1,0.2,1.0,35.0,1,1.0,0.3133010000001377
434,1,0.2,0.125,35.0,1,1.0,0.3433010000003378
435,1,0.2,1.0,35.0,1,1.0,0.5101010000003043
436,1,0.2,1.0,-35.0,-1,1.0,4.020101000000068
437,1,0.2,0.125,35.0,1,1.0,0.6035000000001673
438,1,0.2,0.0,-35.0,-1,1.0,5.433700999999928
439,1,0.2,0.25,35.0,1,1.0,0.5205010000004222
440,1,0.2,1.0,35.0,1,1.0,0.3372010000002774
441,1,0.2,1.0,35.0,1,1.0,0.26050100000020393
442,1,0.2,0.25,-35.0,-1,1.0,7.760501000000204
443,1,0.2,1.0,35.0,1,1.0,0.4041010000000824
444,1,0.2,1.0,35.0,1,1.0,0.4343010000002323
445,1,0.2,1.0,-35.0,-1,1.0,0.420900999999958
446,1,0.2,0.0625,35.0,-1,0.0,6.660901000000649
447,1,0.2,0.0625,35.0,-1,0.0,4.867901000000529
448,1,0.2,0.25,35.0,1,1.0,0.5113010000000031
449,1,0.2,0.0,35.0,-1,0.0,6.888101000000461
450,1,0.2,0.125,35.0,1,1.0,0.5149010000000089
451,1,0.2,1.0,-35.0,-1,1.0,0.29500099999995655
452,1,0.2,1.0,35.0,1,1.0,0.42830100000082894
453,1,0.2,0.0625,35.0,1,1.0,0.5486010000004171
454,1,0.2,0.125,35.0,1,1.0,0.5886010000003807
455,1,0.2,0.0625,35.0,1,1.0,11.265201000000161
456,1,0.2,1.0,35.0,1,1.0,0.7821010000002389
457,1,0.2,0.0,35.0,-1,0.0,7.8156010000002425
458,1,0.2,0.125,35.0,1,1.0,0.3924010000000635
459,1,0.2,0.0625,35.0,-1,0.0,6.989201000000321
460,1,0.2,0.25,35.0,1,1.0,0.4260000000003856
461,1,0.2,0.25,35.0,1,1.0,0.24270100000057937
462,1,0.2,0.25,35.0,1,1.0,0.33280100000001767
463,1,0.2,0.0625,35.0,1,1.0,0.31610100000034436
464,1,0.2,0.125,35.0,1,1.0,0.30620100000032835
465,1,0.2,0.25,35.0,1,1.0,0.4829010000003109
466,1,0.2,0.0625,35.0,1,1.0,6.74630100000013
467,1,0.2,0.125,35.0,1,1.0,0.25990100000035454
468,1,0.2,1.0,35.0,1,1.0,0.35980100000051607
469,1,0.2,0.0625,35.0,1,1.0,5.529900999999882
470,1,0.2,1.0,-35.0,-1,1.0,7.716701000000285
471,1,0.2,1.0,-35.0,-1,1.0,0.29020100000025195
472,1,0.2,0.125,-35.0,-1,1.0,0.2536009999998896
473,1,0.2,0.25,35.0,-1,0.0,0.27040100000021994
474,1,0.2,0.125,35.0,1,1.0,1.0005009999999857
475,1,0.2,0.125,35.0,1,1.0,8.363801000000421
476,1,0.2,0.125,35.0,1,1.0,0.35400099999969825
477,1,0.2,0.125,35.0,1,1.0,0.3374010000002272
478,1,0.2,0.0625,-35.0,1,0.0,6.817500999999993
479,1,0.2,0.25,35.0,1,1.0,0.30430100000012317
480,1,0.2,0.125,35.0,1,1.0,0.3477010000001428
481,1,0.2,1.0,35.0,1,1.0,0.35110100000019884
482,1,0.2,0.25,-35.0,-1,1.0,6.6478000000001884
483,1,0.2,0.125,35.0,1,1.0,0.4580010000004222
484,1,0.2,0.0625,35.0,1,1.0,0.5147000000001754
485,1,0.2,0.0,35.0,1,1.0,8.051401000000169
486,1,0.2,0.0625,35.0,-1,0.0,0.48830099999986487
487,1,0.2,0.0,35.0,1,1.0,0.48170100000015736
488,1,0.2,0.125,-35.0,-1,1.0,0.41500100000030216
489,1,0.2,0.125,-35.0,1,0.0,11.088500999999724
490,1,0.2,0.0,35.0,1,1.0,0.4020010000003822
491,1,0.2,0.0625,-35.0,-1,1.0,9.118901000000278
492,1,0.2,0.125,35.0,1,1.0,0.6089010000005146
493,1,0.8,0.0625,-35.0,-1,1.0,10.365701000000627
494,1,0.8,0.125,-35.0,-1,1.0,0.30590100000063103
495,1,0.8,1.0,-35.0,-1,1.0,0.4594010000000708
496,1,0.8,0.0625,35.0,1,1.0,12.416101000000253
497,1,0.8,0.125,35.0,1,1.0,0.5797010000005685
498,1,0.8,0.0625,-35.0,-1,1.0,3.7631010000004608
499,1,0.8,1.0,-35.0,-1,1.0,0.3066010000006827
500,1,0.8,0.0625,-35.0,-1,1.0,8.296701000000212
501,1,0.8,0.25,-35.0,-1,1.0,0.34690100000034363
502,1,0.8,0.125,35.0,1,1.0,0.4836009999999078
503,1,0.8,0.125,-35.0,-1,1.0,14.380301000000145
504,1,0.8,0.125,-35.0,-1,1.0,0.3173010000004979
505,1,0.8,0.125,-35.0,-1,1.0,0.5007010000003902
506,1,0.8,0.125,-35.0,-1,1.0,3.8741009999998823
507,1,0.8,0.0625,-35.0,-1,1.0,0.32420100000035745
508,1,0.8,0.125,-35.0,-1,1.0,0.40770100000008824
509,1,0.8,0.25,-35.0,-1,1.0,0.2411010000000715
510,1,0.8,0.0625,-35.0,-1,1.0,12.54430100000036
511,1,0.8,0.125,-35.0,-1,1.0,2.224601000000348
512,1,0.8,0.25,-35.0,-1,1.0,0.29470100000025923
513,1,0.8,0.0625,-35.0,-1,1.0,6.451501000000462
514,1,0.8,0.25,35.0,-1,0.0,8.015001000000211
515,1,0.8,0.0625,35.0,-1,0.0,13.168601000000763
516,1,0.8,0.0625,-35.0,-1,1.0,0.4921009999998205
517,1,0.8,0.125,-35.0,1,0.0,0.9356010000001334
518,1,0.8,0.25,-35.0,-1,1.0,22.049000999999862
519,1,0.8,0.125,35.0,1,1.0,0.7462010000003829
520,1,0.8,0.0,35.0,-1,0.0,5.72280099999989
521,1,0.8,0.0625,-35.0,-1,1.0,0.339701000000332
522,1,0.8,0.125,-35.0,-1,1.0,25.049801000000116
523,1,0.8,1.0,-35.0,-1,1.0,0.30700100000012753
524,1,0.8,0.0625,-35.0,-1,1.0,0.3771010000004935
525,1,0.8,0.0625,-35.0,-1,1.0,6.753800999999839
526,1,0.8,0.125,-35.0,-1,1.0,0.3474010000004455
527,1,0.2,0.0625,35.0,1,1.0,4.734100000000126
528,1,0.2,1.0,35.0,1,1.0,0.42090100000041275
529,1,0.2,0.0625,35.0,1,1.0,44.187601000000086
530,1,0.2,0.125,35.0,-1,0.0,0.5151010000004135
531,1,0.2,0.25,35.0,1,1.0,0.5385009999999966
532,1,0.2,0.125,35.0,1,1.0,0.28860100000019884
533,1,0.2,0.0625,-35.0,1,0.0,4.452001000000564
534,1,0.2,0.0625,35.0,1,1.0,0.3655010000002221
535,1,0.2,0.0625,35.0,1,1.0,22.19240099999979
536,1,0.2,0.25,35.0,1,1.0,0.2494010000000344
537,1,0.2,1.0,35.0,1,1.0,0.28940100000045277
538,1,0.2,0.125,35.0,1,1.0,0.8029010000000198
539,1,0.2,0.0625,35.0,1,1.0,23.456301000000167
540,1,0.2,0.125,35.0,1,1.0,0.3767010000001392
541,1,0.2,0.125,35.0,1,1.0,0.5001010000000861
542,1,0.2,0.125,35.0,1,1.0,0.26020100000005186
543,1,0.2,0.25,35.0,1,1.0,0.4903010000002723
544,1,0.2,1.0,35.0,1,1.0,0.27360100000032617
545,1,0.2,0.125,35.0,1,1.0,0.5070000000000618
546,1,0.2,0.0625,-35.0,1,0.0,4.113701000000219
547,1,0.2,1.0,-35.0,-1,1.0,0.4439009999996415
548,1,0.2,0.0625,35.0,-1,0.0,13.34400100000039
549,1,0.2,0.0625,-35.0,1,0.0,0.27090099999986705
550,1,0.2,0.125,35.0,1,1.0,0.24760100000048624
551,1,0.2,0.25,-35.0,-1,1.0,0.3211010000004535
552,1,0.2,0.25,35.0,1,1.0,0.2612010000002556
553,1,0.2,0.125,-35.0,-1,1.0,0.40120100000012826
554,1,0.2,0.0,35.0,1,1.0,6.631301000000349
555,1,0.2,0.125,35.0,1,1.0,0.5014010000004419
556,1,0.8,1.0,-35.0,-1,1.0,0.4048010000001341
557,1,0.8,0.0625,-35.0,1,0.0,1.1383010000004106
558,1,0.8,0.0625,-35.0,-1,1.0,14.52500100000043
559,1,0.8,0.125,-35.0,-1,1.0,4.375301000000036
560,1,0.8,0.25,-35.0,-1,1.0,0.4021010000001297
561,1,0.8,0.125,-35.0,-1,1.0,0.3188010000003487
562,1,0.8,0.0625,-35.0,-1,1.0,4.4055010000006405
563,1,0.8,0.25,-35.0,-1,1.0,0.3657010000001719
564,1,0.8,0.25,35.0,1,1.0,0.2590010000003531
565,1,0.8,0.0,35.0,-1,0.0,3.8758010000001377
566,1,0.8,1.0,-35.0,-1,1.0,0.31250100000033854
567,1,0.8,1.0,-35.0,-1,1.0,0.23930100000052335
568,1,0.8,1.0,-35.0,-1,1.0,0.30600100000037855
569,1,0.8,1.0,35.0,1,1.0,0.40600100000074235
570,1,0.8,0.125,-35.0,-1,1.0,14.379401000000144
571,1,0.8,0.0,-35.0,-1,1.0,0.2831010000004426
572,1,0.8,1.0,-35.0,-1,1.0,0.33310100000016973
573,1,0.8,0.125,-35.0,-1,1.0,6.833200999999917
574,1,0.8,0.125,-35.0,-1,1.0,0.2700009999998656
575,1,0.8,0.0625,-35.0,-1,1.0,3.7634009999997033
576,1,0.8,0.125,-35.0,-1,1.0,0.26010100000030434
577,1,0.8,0.25,-35.0,-1,1.0,0.36040100000036546
578,1,0.8,0.25,35.0,1,1.0,0.5169000000000779
579,1,0.8,0.25,-35.0,-1,1.0,0.2637009999998554
580,1,0.8,1.0,-35.0,-1,1.0,0.24370100000032835
581,1,0.8,0.0625,-35.0,-1,1.0,0.3438009999999849
582,1,0.8,0.0,-35.0,-1,1.0,5.750500999999986
583,1,0.8,1.0,35.0,1,1.0,0.283900999999787
584,1,0.8,1.0,35.0,1,1.0,0.36740099999997256
1,2,0.5,0.125,-35.0,-1,1.0,0.3539000000000001
2,2,0.5,0.0,-35.0,-1,1.0,14.2151
3,2,0.5,0.0625,-35.0,-1,1.0,0.40270000000000294
4,2,0.5,1.0,-35.0,-1,1.0,0.28589999999999804
5,2,0.5,0.0625,35.0,-1,0.0,3.206699999999991
6,2,0.5,0.125,35.0,-1,0.0,4.813199999999995
7,2,0.5,1.0,-35.0,-1,1.0,0.26499999999999346
8,2,0.5,0.25,35.0,-1,0.0,6.647500000000001
9,2,0.5,0.25,35.0,-1,0.0,3.2391999999999967
10,2,0.5,0.0625,35.0,-1,0.0,4.898700000000005
11,2,0.5,0.125,-35.0,-1,1.0,0.34080000000000155
12,2,0.5,0.125,35.0,-1,0.0,5.82459999999999
13,2,0.5,0.0625,35.0,-1,0.0,3.5889999999999986
14,2,0.5,0.125,-35.0,-1,1.0,0.18410000000000082
15,2,0.5,0.125,35.0,-1,0.0,3.4739999999999895
16,2,0.5,0.125,35.0,-1,0.0,0.7484999999999928
17,2,0.5,0.0625,35.0,-1,0.0,2.661599999999993
18,2,0.5,0.0625,35.0,-1,0.0,0.23050000000000637
19,2,0.5,0.25,35.0,-1,0.0,5.4402999999999935
20,2,0.5,0.0625,35.0,-1,0.0,7.327300000000008
21,2,0.5,0.125,-35.0,-1,1.0,0.3744000000000085
22,2,0.5,0.0,-35.0,-1,1.0,5.660300000000035
23,2,0.5,0.125,-35.0,-1,1.0,0.45249999999998636
24,2,0.5,0.0625,35.0,-1,0.0,18.129400000000032
25,2,0.5,0.25,-35.0,-1,1.0,0.36240000000000805
26,2,0.5,0.125,35.0,1,1.0,5.14500000000001
27,2,0.5,0.25,35.0,-1,0.0,10.943400000000025
28,2,0.5,1.0,35.0,1,1.0,0.3901000000000181
29,2,0.5,1.0,35.0,1,1.0,0.4381999999999948
30,2,0.5,0.0625,35.0,-1,0.0,1.9557000000000073
31,2,0.5,0.125,35.0,-1,0.0,5.6440000000000055
32,2,0.5,0.125,-35.0,-1,1.0,0.3008999999999844
33,2,0.5,1.0,35.0,1,1.0,0.7635000000000218
34,2,0.5,1.0,-35.0,-1,1.0,0.3924000000000092
35,2,0.5,1.0,35.0,1,1.0,1.0653000000000077
36,2,0.5,0.125,35.0,-1,0.0,2.3788000000000125
37,2,0.5,0.25,35.0,-1,0.0,0.2372000000000014
38,2,0.5,1.0,35.0,1,1.0,0.3258999999999901
39,2,0.5,0.0625,-35.0,-1,1.0,0.3229000000000042
40,2,0.5,0.125,35.0,-1,0.0,10.719499999999982
41,2,0.5,0.125,35.0,-1,0.0,4.7181999999999675
42,2,0.5,1.0,35.0,1,1.0,0.6415999999999826
43,2,0.5,0.0,-35.0,-1,1.0,7.688600000000008
44,2,0.5,0.0625,-35.0,-1,1.0,0.28219999999993206
45,2,0.5,0.25,-35.0,-1,1.0,0.29980000000000473
46,2,0.5,0.125,-35.0,-1,1.0,0.4188000000000329
47,2,0.5,0.0625,-35.0,-1,1.0,4.785699999999963
48,2,0.5,1.0,35.0,1,1.0,0.8582999999999856
49,2,0.5,0.0625,-35.0,-1,1.0,5.335799999999949
50,2,0.5,0.125,35.0,-1,0.0,1.129700000000014
51,2,0.5,1.0,-35.0,-1,1.0,0.2840999999999667
52,2,0.5,0.0,35.0,-1,0.0,20.173099999999977
53,2,0.5,0.125,-35.0,-1,1.0,0.43549999999999045
54,2,0.5,0.25,-35.0,-1,1.0,2.440499999999929
55,2,0.5,1.0,-35.0,-1,1.0,0.3092999999999506
56,2,0.5,0.125,35.0,-1,0.0,6.204899999999952
57,2,0.5,0.0625,35.0,-1,0.0,0.21399999999999864
58,2,0.5,0.125,-35.0,-1,1.0,2.668799999999976
59,2,0.5,0.25,35.0,1,1.0,0.546799999999962
60,2,0.5,0.0625,35.0,1,1.0,1.199199999999962
61,2,0.5,0.25,-35.0,-1,1.0,0.8908999999999878
62,2,0.5,0.0625,-35.0,-1,1.0,4.75060000000002
63,2,0.5,0.0625,35.0,1,1.0,0.39289999999999736
64,2,0.5,0.0625,-35.0,-1,1.0,4.299800000000005
65,2,0.5,0.25,35.0,-1,0.0,3.3822999999999865
66,2,0.5,0.0,-35.0,-1,1.0,2.505799999999965
67,2,0.5,0.0,-35.0,-1,1.0,1.3001999999999612
68,2,0.5,0.25,-35.0,-1,1.0,7.700799999999958
69,2,0.5,1.0,-35.0,-1,1.0,0.3809999999999718
70,2,0.5,1.0,-35.0,-1,1.0,0.13189999999997326
71,2,0.5,0.25,35.0,1,1.0,1.0878999999999905
72,2,0.5,1.0,35.0,1,1.0,2.380399999999952
73,2,0.5,0.0625,-35.0,-1,1.0,3.9535999999999945
74,2,0.5,0.25,-35.0,-1,1.0,0.655900000000031
75,2,0.5,0.0625,35.0,-1,0.0,0.36889999999999645
76,2,0.5,0.125,-35.0,-1,1.0,6.262200000000007
77,2,0.5,0.25,-35.0,-1,1.0,0.45889999999997144
78,2,0.5,0.25,-35.0,-1,1.0,3.2649999999999295
79,2,0.5,0.25,-35.0,-1,1.0,4.728499999999997
80,2,0.5,0.25,35.0,1,1.0,10.022899999999993
81,2,0.5,0.0625,-35.0,-1,1.0,0.2683000000000675
82,2,0.5,0.0625,35.0,-1,0.0,6.605000000000018
83,2,0.5,0.125,-35.0,-1,1.0,0.1672000000000935
84,2,0.5,0.25,35.0,-1,0.0,0.23550000000000182
85,2,0.5,0.0,-35.0,-1,1.0,0.29500000000007276
86,2,0.5,0.125,-35.0,-1,1.0,1.0209999999999582
87,2,0.5,0.125,-35.0,-1,1.0,0.4112990000000991
88,2,0.5,0.25,35.0,-1,0.0,1.9504000000000588
89,2,0.5,0.0625,35.0,-1,0.0,0.6733000000000402
90,2,0.5,0.125,-35.0,-1,1.0,0.4658999999999196
91,2,0.8,0.125,-35.0,-1,1.0,1.7209000000000287
92,2,0.8,0.0625,-35.0,-1,1.0,0.6623000000001866
93,2,0.8,0.25,35.0,-1,0.0,3.007400000000075
94,2,0.8,1.0,-35.0,-1,1.0,0.3993000000000393
95,2,0.8,0.125,-35.0,-1,1.0,0.6870999999999867
96,2,0.8,1.0,-35.0,-1,1.0,0.411200000000008
97,2,0.8,0.25,-35.0,-1,1.0,4.763500000000022
98,2,0.8,1.0,-35.0,-1,1.0,0.2922999999999547
99,2,0.8,0.0625,-35.0,-1,1.0,4.901300000000106
100,2,0.8,1.0,-35.0,-1,1.0,0.3221000000000913
101,2,0.8,0.0,35.0,-1,0.0,11.331100000000106
102,2,0.8,0.125,-35.0,-1,1.0,4.301400000000058
103,2,0.8,0.125,35.0,-1,0.0,0.1852000000000089
104,2,0.8,0.0,-35.0,-1,1.0,2.5061000000000604
105,2,0.8,1.0,-35.0,-1,1.0,0.4415000000000191
106,2,0.8,0.125,-35.0,-1,1.0,0.3144000000000915
107,2,0.8,1.0,-35.0,-1,1.0,0.4821999999999207
108,2,0.8,0.25,-35.0,-1,1.0,0.28530000000012024
109,2,0.8,0.0,-35.0,-1,1.0,4.373299999999972
110,2,0.8,0.25,-35.0,-1,1.0,1.4833999999999605
111,2,0.8,1.0,35.0,1,1.0,1.0919000000001233
112,2,0.8,0.0625,-35.0,-1,1.0,11.791600000000017
113,2,0.8,0.0,-35.0,1,0.0,0.44299999999998363
114,2,0.8,0.25,35.0,-1,0.0,14.707000000000107
115,2,0.8,0.0625,-35.0,-1,1.0,0.40830000000005384
116,2,0.8,0.0625,-35.0,-1,1.0,7.179300000000012
117,2,0.8,0.0,-35.0,-1,1.0,14.485300000000052
118,2,0.8,0.125,-35.0,-1,1.0,0.46670000000005984
119,2,0.8,0.0625,-35.0,-1,1.0,6.321699999999964
120,2,0.8,0.25,-35.0,-1,1.0,0.5465000000000373
121,2,0.8,0.0625,-35.0,-1,1.0,16.61840000000018
122,2,0.8,0.125,-35.0,-1,1.0,1.8576000000000477
123,2,0.8,0.25,-35.0,-1,1.0,2.4120000000001482
124,2,0.8,1.0,35.0,1,1.0,1.1184000000000651
125,2,0.8,0.25,35.0,-1,0.0,0.5003000000000384
126,2,0.8,1.0,35.0,1,1.0,1.0165000000000646
127,2,0.8,1.0,-35.0,-1,1.0,6.316199999999981
128,2,0.8,0.0625,-35.0,-1,1.0,3.744399999999928
129,2,0.8,0.125,-35.0,-1,1.0,3.549498999999969
130,2,0.8,0.0625,-35.0,-1,1.0,3.4973999999999705
131,2,0.8,0.0625,-35.0,-1,1.0,4.60450000000003
132,2,0.8,0.25,-35.0,-1,1.0,6.785600000000159
133,2,0.8,0.125,-35.0,-1,1.0,6.834500000000048
134,2,0.8,0.125,35.0,-1,0.0,0.23599999999999
135,2,0.8,0.0625,-35.0,-1,1.0,4.269598999999971
136,2,0.8,1.0,-35.0,-1,1.0,0.7894999999999754
137,2,0.8,0.0625,35.0,-1,0.0,2.4925000000000637
138,2,0.8,0.0625,-35.0,-1,1.0,6.411699999999996
139,2,0.8,0.0625,-35.0,-1,1.0,4.280500000000075
140,2,0.8,0.125,-35.0,-1,1.0,5.407700000000091
141,2,0.8,0.0,-35.0,-1,1.0,4.5965000000001055
142,2,0.8,0.25,35.0,1,1.0,0.4697000000001026
143,2,0.8,0.125,-35.0,-1,1.0,7.245600000000081
144,2,0.8,0.125,-35.0,-1,1.0,4.071700000000078
145,2,0.8,0.25,-35.0,-1,1.0,0.7522000000000162
146,2,0.8,0.0625,-35.0,-1,1.0,7.036600000000021
147,2,0.8,0.125,-35.0,-1,1.0,3.7106999999999744
148,2,0.8,1.0,-35.0,-1,1.0,2.0235999999999876
149,2,0.8,0.25,-35.0,0,0.0,59.93660000000011
150,2,0.8,1.0,-35.0,-1,1.0,0.12370000000009895
151,2,0.8,0.0625,-35.0,1,0.0,3.9969999999999573
152,2,0.8,0.125,-35.0,-1,1.0,1.8273000000000366
153,2,0.8,0.125,35.0,1,1.0,11.81070000000011
154,2,0.8,0.0625,-35.0,-1,1.0,2.8510000000001128
155,2,0.8,0.0625,35.0,-1,0.0,6.63779999999997
156,2,0.8,0.125,-35.0,-1,1.0,8.794599999999946
157,2,0.8,0.0,-35.0,-1,1.0,17.138099999999895
158,2,0.8,0.25,-35.0,0,0.0,59.92840000000001
159,2,0.8,0.25,-35.0,0,0.0,
160,2,0.8,0.125,-35.0,0,0.0,31.597100000000182
161,2,0.8,1.0,-35.0,0,0.0,56.61189999999988
162,2,0.8,0.125,-35.0,-1,1.0,0.8431000000000495
163,2,0.8,0.25,-35.0,-1,1.0,11.862299999999777
164,2,0.8,1.0,-35.0,-1,1.0,11.372299999999996
165,2,0.8,0.125,-35.0,1,0.0,6.246000000000322
166,2,0.8,0.0625,-35.0,1,0.0,5.68320000000017
167,2,0.8,0.0625,-35.0,0,0.0,59.88629999999989
168,2,0.8,0.125,-35.0,0,0.0,5.892800000000079
169,2,0.8,1.0,-35.0,-1,1.0,4.6254999999998745
170,2,0.8,0.0625,35.0,0,0.0,59.94679900000028
171,2,0.8,0.25,35.0,0,0.0,-0.12760000000002947
172,2,0.8,1.0,-35.0,-1,1.0,5.4599000000000615
173,2,0.8,1.0,-35.0,0,0.0,59.95250000000033
174,2,0.8,0.0,-0.0,0,0.0,53.77009999999996
175,2,0.8,0.25,35.0,1,1.0,2.0413999999998396
176,2,0.8,1.0,35.0,1,1.0,0.6060999999999694
177,2,0.8,0.125,-35.0,-1,1.0,3.2428000000002157
178,2,0.8,0.125,-35.0,-1,1.0,0.26959999999985484
179,2,0.8,0.125,-35.0,-1,1.0,0.3731000000000222
180,2,0.8,0.25,-35.0,-1,1.0,0.9864000000000033
181,2,0.8,0.25,-35.0,-1,1.0,2.363200000000006
182,2,0.8,0.25,-35.0,-1,1.0,0.2565999999999349
183,2,0.8,0.0625,35.0,-1,0.0,0.29330000000004475
184,2,0.8,0.125,-35.0,-1,1.0,0.40010000000006585
185,2,0.8,1.0,-35.0,-1,1.0,1.0668000000002849
186,2,0.8,1.0,35.0,1,1.0,4.486799999999903
187,2,0.2,0.0625,35.0,-1,0.0,0.3303000000000793
188,2,0.2,0.0,35.0,-1,0.0,0.4437000000000353
189,2,0.2,0.0625,-35.0,-1,1.0,1.8271000000002005
190,2,0.2,1.0,-35.0,-1,1.0,6.38390000000004
191,2,0.2,0.125,35.0,-1,0.0,3.7607000000000426
192,2,0.2,1.0,35.0,1,1.0,0.36750000000006366
193,2,0.2,0.0625,-35.0,-1,1.0,14.48759999999993
194,2,0.2,0.125,35.0,1,1.0,7.844400000000178
195,2,0.2,0.25,35.0,1,1.0,3.8313000000000557
196,2,0.2,0.0625,35.0,-1,0.0,0.34149999999999636
197,2,0.2,0.0625,35.0,-1,0.0,11.378199999999879
198,2,0.2,0.0625,35.0,1,1.0,25.255100000000084
199,2,0.2,0.0625,-35.0,1,0.0,3.3523000000004686
200,2,0.2,0.0625,35.0,1,1.0,0.502400000000307
201,2,0.2,0.0625,35.0,1,1.0,8.075800000000072
202,2,0.2,0.0,-0.0,0,0.0,59.95269999999982
203,2,0.2,0.25,-35.0,0,0.0,40.28410000000031
204,2,0.2,0.0625,-35.0,1,0.0,0.9978000000000975
205,2,0.2,0.125,-35.0,0,0.0,59.96250000000009
206,2,0.2,0.0625,35.0,0,0.0,-0.1819989999999052
207,2,0.2,0.125,35.0,1,1.0,54.43370100000038
208,2,0.2,0.25,35.0,1,1.0,15.092501000000084
209,2,0.2,0.0625,-35.0,-1,1.0,3.6395010000001093
210,2,0.2,0.0625,35.0,1,1.0,4.28970100000015
211,2,0.2,0.25,35.0,-1,0.0,55.193201000000045
212,2,0.2,1.0,35.0,1,1.0,0.6842009999995753
213,2,0.2,1.0,35.0,1,1.0,6.641101000000617
214,2,0.2,0.0,-0.0,0,0.0,59.77340099999992
215,2,0.2,0.125,-35.0,1,0.0,1.5323010000001887
216,2,0.2,1.0,-35.0,0,0.0,59.95450099999971
217,2,0.2,1.0,-35.0,0,0.0,
218,2,0.2,0.25,35.0,0,0.0,7.765400999999656
219,2,0.2,0.0,35.0,-1,0.0,53.71440100000018
220,2,0.2,0.125,35.0,-1,0.0,1.7536009999998896
221,2,0.2,0.0625,35.0,0,0.0,59.95360099999971
222,2,0.2,0.25,35.0,0,0.0,59.95470099999966
223,2,0.2,1.0,35.0,-1,0.0,0.8259010000001581
224,2,0.2,1.0,35.0,1,1.0,56.29840100000001
225,2,0.2,1.0,35.0,1,1.0,1.149300999999923
226,2,0.2,0.0,35.0,-1,0.0,0.6394009999999071
227,2,0.2,0.25,35.0,0,0.0,59.94270099999994
228,2,0.8,1.0,35.0,1,1.0,1.2138009999998758
229,2,0.8,0.0625,-35.0,-1,1.0,8.614001000000371
230,2,0.8,1.0,-35.0,-1,1.0,0.4706000000005588
231,2,0.8,0.0625,-35.0,-1,1.0,7.481001000000106
232,2,0.8,0.25,-35.0,-1,1.0,0.35100099999999657
233,2,0.8,0.125,-35.0,-1,1.0,1.8644010000002709
234,2,0.8,0.125,-35.0,-1,1.0,0.40810099999998783
235,2,0.8,1.0,35.0,1,1.0,26.89810099999977
1,3,0.5,0.125,35.0,-1,0.0,11.4094
2,3,0.5,1.0,-35.0,-1,1.0,0.28229999999999933
3,3,0.5,0.25,35.0,-1,0.0,3.732099999999999
4,3,0.5,1.0,-35.0,-1,1.0,0.22040000000000148
5,3,0.5,0.25,-35.0,-1,1.0,3.682699999999997
6,3,0.5,0.0,35.0,-1,0.0,3.476300000000002
7,3,0.5,0.25,35.0,1,1.0,0.5876999999999981
8,3,0.5,1.0,35.0,1,1.0,0.3779000000000039
9,3,0.5,0.25,35.0,-1,0.0,2.082799999999999
10,3,0.5,0.125,35.0,1,1.0,5.319900000000004
11,3,0.5,0.0625,-35.0,-1,1.0,2.1081000000000003
12,3,0.5,0.125,-35.0,-1,1.0,3.5146999999999977
13,3,0.5,0.125,-35.0,-1,1.0,1.4495000000000005
14,3,0.5,0.25,-35.0,-1,1.0,0.36430000000000007
15,3,0.5,0.25,-35.0,-1,1.0,4.669700000000006
16,3,0.5,0.25,-35.0,-1,1.0,2.7990999999999815
17,3,0.5,1.0,-35.0,-1,1.0,0.31259899999999163
18,3,0.5,0.0625,-35.0,-1,1.0,4.811099999999996
19,3,0.5,0.0625,35.0,1,1.0,5.784800000000004
20,3,0.5,0.25,-35.0,-1,1.0,0.37760000000000105
21,3,0.5,0.25,-35.0,-1,1.0,3.5267999999999944
22,3,0.5,0.125,35.0,-1,0.0,6.261199999999988
23,3,0.5,1.0,-35.0,-1,1.0,0.3397000000000219
24,3,0.5,0.25,-35.0,-1,1.0,4.908199999999994
25,3,0.5,1.0,35.0,1,1.0,0.5939000000000192
26,3,0.5,1.0,-35.0,1,0.0,2.439200000000028
27,3,0.5,0.0625,-35.0,1,0.0,8.791899999999998
28,3,0.5,0.0,-35.0,1,0.0,0.28650000000001796
29,3,0.5,0.0625,35.0,1,1.0,9.543700000000001
30,3,0.5,0.125,-35.0,-1,1.0,4.315400000000011
31,3,0.5,0.125,-35.0,-1,1.0,8.245800000000003
32,3,0.5,0.0625,35.0,-1,0.0,6.299200000000013
33,3,0.5,1.0,-35.0,-1,1.0,3.340900000000005
34,3,0.5,0.25,35.0,1,1.0,0.4408000000000243
35,3,0.5,0.0,35.0,-1,0.0,6.298400000000015
36,3,0.5,0.25,35.0,-1,0.0,2.859499999999997
37,3,0.5,0.0,35.0,-1,0.0,0.33919999999997685
38,3,0.5,0.25,-35.0,-1,1.0,0.30230000000000246
39,3,0.5,0.0625,35.0,-1,0.0,5.269700000000029
40,3,0.5,0.0625,-35.0,1,0.0,2.842399999999998
41,3,0.5,0.25,35.0,-1,0.0,3.5045000000000357
42,3,0.5,0.25,-35.0,-1,1.0,1.5768999999999664
43,3,0.5,0.125,-35.0,-1,1.0,4.6601
44,3,0.5,0.125,35.0,-1,0.0,8.932099999999934
45,3,0.5,0.0625,35.0,-1,0.0,3.216000000000008
46,3,0.5,0.0625,35.0,1,1.0,8.251999999999953
47,3,0.5,0.0,-35.0,-1,1.0,2.7589999999999577
48,3,0.5,0.125,-35.0,-1,1.0,3.6585999999999785
49,3,0.5,1.0,35.0,1,1.0,0.2682999999999538
50,3,0.5,0.0625,35.0,-1,0.0,5.910599999999931
51,3,0.5,1.0,-35.0,-1,1.0,0.2734999999999559
52,3,0.5,0.0,35.0,1,1.0,9.124099999999999
53,3,0.5,0.0625,35.0,-1,0.0,9.821500000000015
54,3,0.5,0.25,-35.0,-1,1.0,1.8664999999999736
55,3,0.5,0.0625,-35.0,-1,1.0,4.8332999999999515
56,3,0.5,1.0,-35.0,-1,1.0,0.30639999999999645
57,3,0.5,0.125,35.0,-1,0.0,4.507699999999943
58,3,0.5,0.0625,35.0,-1,0.0,2.397100000000023
59,3,0.5,0.0625,-35.0,-1,1.0,2.7662999999999442
60,3,0.5,0.25,-35.0,-1,1.0,8.705099999999959
61,3,0.5,0.0625,-35.0,-1,1.0,8.50630000000001
62,3,0.5,0.25,-35.0,-1,1.0,7.968899999999962
63,3,0.5,0.25,-35.0,-1,1.0,4.273399999999981
64,3,0.5,1.0,-35.0,-1,1.0,0.2225999999999999
65,3,0.5,0.125,-35.0,-1,1.0,5.364199999999926
66,3,0.5,0.25,35.0,1,1.0,9.263399999999933
67,3,0.5,0.25,-35.0,1,0.0,3.8718999999999824
68,3,0.5,1.0,-35.0,-1,1.0,4.654300000000035
69,3,0.5,1.0,35.0,1,1.0,0.27019999999998845
70,3,0.5,0.125,35.0,-1,0.0,4.928398999999899
71,3,0.5,0.125,35.0,-1,0.0,6.118300000000033
72,3,0.5,0.0625,35.0,-1,0.0,6.986499999999978
73,3,0.5,1.0,35.0,1,1.0,8.06430000000006
74,3,0.5,0.25,-35.0,-1,1.0,0.32789999999988595
75,3,0.5,1.0,35.0,1,1.0,0.2675000000000409
76,3,0.5,1.0,35.0,1,1.0,0.9786000000000286
77,3,0.5,0.25,35.0,-1,0.0,4.079400000000078
78,3,0.5,0.125,-35.0,1,0.0,0.7458000000000311
79,3,0.5,0.0625,-35.0,1,0.0,0.4514000000000351
80,3,0.5,0.0625,-35.0,1,0.0,1.1120999999999412
81,3,0.5,0.125,35.0,1,1.0,0.5785000000000764
82,3,0.5,0.25,35.0,1,1.0,0.5194999999999936
83,3,0.5,0.25,35.0,1,1.0,0.8443000000000893
84,3,0.5,0.125,35.0,-1,0.0,4.8595000000000255
85,3,0.5,0.125,35.0,1,1.0,0.7703999999999951
86,3,0.5,1.0,35.0,1,1.0,0.42980000000011387
87,3,0.5,0.25,35.0,1,1.0,0.4270000000001346
88,3,0.5,0.125,-35.0,-1,1.0,8.338200000000029
89,3,0.5,0.0,-35.0,1,0.0,3.6014999999999873
90,3,0.5,0.0625,-35.0,-1,1.0,0.22450000000003456
91,3,0.2,0.0625,-35.0,-1,1.0,3.233400000000074
92,3,0.2,0.0625,35.0,-1,0.0,0.19869999999991705
93,3,0.2,1.0,35.0,1,1.0,0.3006000000000313
94,3,0.2,1.0,35.0,1,1.0,0.3043999999999869
95,3,0.2,0.25,35.0,1,1.0,0.3224000000001297
96,3,0.2,0.0625,35.0,1,1.0,0.2944999999999709
97,3,0.2,0.0625,35.0,1,1.0,0.28150000000005093
98,3,0.2,0.125,35.0,1,1.0,0.3225000000001046
99,3,0.2,0.25,-35.0,-1,1.0,6.094600000000014
100,3,0.2,0.0,-35.0,1,0.0,0.2777000000000953
101,3,0.2,0.125,35.0,1,1.0,0.5913000000000466
102,3,0.2,0.25,-35.0,-1,1.0,0.41060000000004493
103,3,0.2,0.0,35.0,-1,0.0,4.879700000000071
104,3,0.2,0.0625,35.0,-1,0.0,0.4962000000000444
105,3,0.2,0.0,35.0,-1,0.0,0.30970000000002074
106,3,0.2,1.0,35.0,1,1.0,0.4005000000000791
107,3,0.2,0.125,35.0,1,1.0,0.5557000000001153
108,3,0.2,0.125,-35.0,-1,1.0,0.39430000000004384
109,3,0.2,0.125,-35.0,-1,1.0,0.2925999999999931
110,3,0.2,1.0,-35.0,-1,1.0,0.2562000000000353
111,3,0.2,0.25,35.0,1,1.0,0.27060000000005857
112,3,0.2,0.25,35.0,1,1.0,0.7436000000000149
113,3,0.2,1.0,35.0,1,1.0,0.4595000000000482
114,3,0.2,1.0,35.0,1,1.0,0.44870000000003074
115,3,0.2,0.0625,35.0,1,1.0,0.43060000000002674
116,3,0.2,0.0625,35.0,1,1.0,0.41630000000009204
117,3,0.2,0.125,35.0,1,1.0,0.25139999999998963
118,3,0.2,0.125,-35.0,-1,1.0,3.5891000000000304
119,3,0.2,0.125,35.0,1,1.0,0.4982000000001108
120,3,0.2,0.0,-35.0,-1,1.0,0.3469000000000051
121,3,0.2,0.0,35.0,1,1.0,0.4089000000000169
122,3,0.2,1.0,35.0,1,1.0,0.3327000000000453
123,3,0.2,0.0625,35.0,-1,0.0,1.001800000000003
124,3,0.2,0.25,35.0,1,1.0,0.6259000000001151
125,3,0.2,0.25,35.0,1,1.0,0.6125999999999294
126,3,0.2,0.0,-35.0,-1,1.0,3.597699999999918
127,3,0.2,0.25,35.0,1,1.0,0.28330000000005384
128,3,0.2,0.0,35.0,1,1.0,3.623800000000074
129,3,0.2,0.0625,35.0,1,1.0,0.2799000000001115
130,3,0.2,0.25,35.0,1,1.0,0.21630000000004657
131,3,0.2,0.0,35.0,1,1.0,0.4073999999999387
132,3,0.2,0.0625,35.0,1,1.0,0.5442000000000462
133,3,0.2,0.0,-35.0,1,0.0,0.421799999999962
134,3,0.2,0.25,35.0,-1,0.0,0.49290000000007694
135,3,0.2,0.25,35.0,-1,0.0,8.061199999999985
136,3,0.2,1.0,35.0,1,1.0,0.4682999999999993
137,3,0.2,0.0625,35.0,-1,0.0,0.338799999999992
138,3,0.2,1.0,35.0,1,1.0,0.4431000000000722
139,3,0.2,0.125,35.0,-1,0.0,6.117400000000089
140,3,0.2,0.0,35.0,1,1.0,4.168800000000033
141,3,0.2,0.125,35.0,1,1.0,4.140799999999899
142,3,0.2,0.125,35.0,-1,0.0,0.6871989999999641
143,3,0.8,0.0625,35.0,-1,0.0,0.5158000000000129
144,3,0.8,0.0625,-35.0,-1,1.0,0.1733000000000402
145,3,0.8,0.125,-35.0,-1,1.0,0.3410000000001219
146,3,0.8,0.125,-35.0,-1,1.0,0.29280000000005657
147,3,0.8,1.0,-35.0,-1,1.0,0.4538000000001148
148,3,0.8,0.0625,-35.0,-1,1.0,0.28899999999998727
149,3,0.8,1.0,-35.0,-1,1.0,0.26490000000001146
150,3,0.8,0.25,35.0,1,1.0,0.8121999999999616
151,3,0.8,0.125,-35.0,-1,1.0,0.43210000000010496
152,3,0.8,1.0,35.0,1,1.0,0.4714000000000169
153,3,0.8,0.0625,-35.0,-1,1.0,0.2676999999999907
154,3,0.8,0.25,-35.0,-1,1.0,0.2701000000000704
155,3,0.8,0.25,-35.0,-1,1.0,0.48680000000001655
156,3,0.8,0.125,-35.0,-1,1.0,0.3352999999999611
157,3,0.8,0.25,-35.0,-1,1.0,0.33150000000011914
158,3,0.8,0.125,-35.0,-1,1.0,2.996399999999994
159,3,0.8,1.0,-35.0,-1,1.0,0.22090000000002874
160,3,0.8,0.25,-35.0,-1,1.0,0.5199000000000069
161,3,0.8,0.0,-35.0,-1,1.0,0.3244000000000824
162,3,0.8,0.0625,-35.0,-1,1.0,0.25480000000004566
163,3,0.8,0.0,-35.0,-1,1.0,0.5679000000000087
164,3,0.8,1.0,-35.0,-1,1.0,0.43259999999997945
165,3,0.8,0.25,35.0,1,1.0,0.6190000000000282
166,3,0.8,0.0,-35.0,-1,1.0,0.20410000000003947
167,3,0.8,0.25,-35.0,-1,1.0,0.21070000000008804
168,3,0.8,0.125,35.0,1,1.0,0.44060000000001764
169,3,0.8,0.25,-35.0,-1,1.0,0.3550999999999931
170,3,0.8,0.0625,-35.0,-1,1.0,1.4249000000000933
171,3,0.8,0.0625,35.0,1,1.0,0.5166000000000395
172,3,0.8,0.25,35.0,1,1.0,0.7119000000000142
173,3,0.8,0.0,-35.0,-1,1.0,4.1340000000000146
174,3,0.8,0.125,-35.0,-1,1.0,0.5122000000000071
175,3,0.8,1.0,35.0,1,1.0,0.6748000000000047
176,3,0.8,0.25,-35.0,-1,1.0,0.28160000000002583
177,3,0.8,0.25,-35.0,-1,1.0,0.8542000000001053
178,3,0.8,1.0,-35.0,-1,1.0,0.38040000000000873
179,3,0.8,0.25,-35.0,-1,1.0,0.31799999999998363
180,3,0.2,0.125,35.0,1,1.0,0.41669999999999163
181,3,0.2,0.125,35.0,1,1.0,0.7479999999999336
182,3,0.2,1.0,35.0,1,1.0,0.3507999999999356
183,3,0.2,0.125,35.0,1,1.0,1.032000000000039
184,3,0.2,0.0,35.0,-1,0.0,5.975000000000023
185,3,0.2,0.0625,-35.0,-1,1.0,4.604099999999903
186,3,0.2,0.25,35.0,1,1.0,0.25460000000009586
187,3,0.2,1.0,35.0,1,1.0,0.43220000000007985
188,3,0.2,0.0625,35.0,-1,0.0,1.127700000000118
189,3,0.2,0.125,35.0,1,1.0,0.6729990000000043
190,3,0.2,0.0,35.0,1,1.0,0.5731999999999289
191,3,0.2,1.0,35.0,1,1.0,0.3103000000000975
192,3,0.2,0.125,35.0,1,1.0,0.3566000000000713
193,3,0.2,0.125,35.0,1,1.0,0.4295000000000755
194,3,0.2,1.0,35.0,1,1.0,0.6331000000001268
195,3,0.2,0.25,35.0,1,1.0,0.46309999999994034
196,3,0.2,0.125,35.0,1,1.0,0.4332999999999174
197,3,0.2,1.0,35.0,1,1.0,0.35659999999984393
198,3,0.2,0.25,-35.0,-1,1.0,0.287199999999757
199,3,0.2,1.0,35.0,1,1.0,0.2764999999999418
200,3,0.2,0.125,35.0,1,1.0,0.3833999999999378
201,3,0.2,1.0,35.0,1,1.0,1.3301999999996497
202,3,0.2,1.0,35.0,1,1.0,0.6770999999998821
203,3,0.2,0.125,35.0,1,1.0,0.4174000000000433
204,3,0.2,0.125,35.0,-1,0.0,1.1236999999998716
205,3,0.2,0.25,35.0,1,1.0,0.5603000000000975
206,3,0.2,0.0625,35.0,-1,0.0,4.787299999999959
207,3,0.2,0.125,35.0,1,1.0,2.9910999999999603
208,3,0.2,1.0,35.0,1,1.0,0.23069999999984248
209,3,0.2,0.125,35.0,1,1.0,0.3207999999997355
210,3,0.2,0.0625,35.0,-1,0.0,0.4673999999999978
211,3,0.2,0.125,-35.0,-1,1.0,5.001099999999951
212,3,0.2,0.125,35.0,-1,0.0,0.24779999999987012
213,3,0.2,1.0,35.0,1,1.0,0.5843999999999596
214,3,0.2,0.0625,35.0,-1,0.0,6.721199999999726
215,3,0.2,0.0625,-35.0,1,0.0,0.7981999999999516
216,3,0.2,0.25,35.0,1,1.0,0.5047000000001844
217,3,0.2,0.0625,35.0,1,1.0,2.5846999999998843
218,3,0.2,0.0,35.0,-1,0.0,0.3219000000001415
219,3,0.2,1.0,35.0,1,1.0,0.3716999999999189
220,3,0.2,0.0625,35.0,-1,0.0,0.7655999999999494
221,3,0.2,0.25,35.0,-1,0.0,6.315200000000004
222,3,0.2,0.125,35.0,1,1.0,0.9154999999998381
223,3,0.2,0.25,-35.0,-1,1.0,0.2422999999998865
224,3,0.2,0.125,35.0,1,1.0,0.7025000000001
225,3,0.2,0.125,-35.0,-1,1.0,0.32930000000010295
226,3,0.2,1.0,35.0,1,1.0,0.45889999999985776
227,3,0.2,0.0625,35.0,-1,0.0,0.7523000000001048
228,3,0.2,0.25,35.0,1,1.0,0.5557999999998628
229,3,0.2,0.0,35.0,-1,0.0,6.112699999999904
230,3,0.2,0.0625,-35.0,-1,1.0,5.9927000000000135
231,3,0.2,1.0,35.0,1,1.0,0.17290000000002692
232,3,0.2,0.25,35.0,1,1.0,0.7732999999998356
233,3,0.2,0.25,35.0,1,1.0,0.7063999999998032
234,3,0.2,0.125,35.0,1,1.0,0.8697999999999411
235,3,0.2,1.0,35.0,1,1.0,0.6097999999999502
236,3,0.2,1.0,35.0,1,1.0,0.32339999999999236
237,3,0.2,0.125,-35.0,-1,1.0,0.37030000000004293
238,3,0.2,0.125,35.0,1,1.0,1.2270989999999529
239,3,0.2,0.0625,35.0,1,1.0,0.8067999999998392
240,3,0.2,0.0625,35.0,-1,0.0,0.30340000000001055
241,3,0.2,1.0,35.0,1,1.0,0.620098999999982
242,3,0.2,0.0,35.0,1,1.0,4.560399999999845
243,3,0.2,0.25,35.0,1,1.0,0.4202999999997701
244,3,0.2,0.0625,-35.0,-1,1.0,0.38069999999970605
245,3,0.2,0.125,35.0,1,1.0,0.657799999999952
246,3,0.2,0.125,35.0,1,1.0,0.48720000000002983
247,3,0.2,1.0,35.0,-1,0.0,0.7673999999999523
248,3,0.2,0.25,35.0,1,1.0,0.7809999999999491
249,3,0.2,1.0,-35.0,-1,1.0,0.46069999999986067
250,3,0.8,0.125,-35.0,-1,1.0,4.197499999999991
251,3,0.8,1.0,-35.0,-1,1.0,4.074899999999843
252,3,0.8,0.0625,-35.0,-1,1.0,0.24769999999989523
253,3,0.8,0.125,-35.0,-1,1.0,0.3209999999999127
254,3,0.8,0.25,-35.0,-1,1.0,0.21829999999999927
255,3,0.8,0.125,-35.0,-1,1.0,0.36149999999997817
256,3,0.8,1.0,-35.0,-1,1.0,0.18149999999968713
257,3,0.8,0.125,-35.0,-1,1.0,1.3645999999998821
258,3,0.8,0.25,35.0,-1,0.0,4.744999999999891
259,3,0.8,0.125,-35.0,-1,1.0,0.27140000000008513
260,3,0.8,0.125,-35.0,-1,1.0,0.7454000000000178
261,3,0.8,0.0625,-35.0,-1,1.0,5.974899999999934
262,3,0.8,1.0,-35.0,-1,1.0,0.25199999999972533
263,3,0.8,0.125,-35.0,-1,1.0,0.29520000000002256
264,3,0.8,0.125,-35.0,-1,1.0,0.23900000000003274
265,3,0.8,0.0625,-35.0,-1,1.0,0.19889999999986685
266,3,0.8,0.125,-35.0,1,0.0,0.005800000000135697
267,3,0.8,0.125,-35.0,-1,1.0,0.3888999999999214
268,3,0.8,1.0,-35.0,-1,1.0,0.18259999999986576
269,3,0.8,0.0625,-35.0,-1,1.0,0.3686999999999898
270,3,0.8,0.25,-35.0,-1,1.0,0.20920000000000982
271,3,0.8,1.0,35.0,1,1.0,1.0055999999999585
272,3,0.8,0.25,-35.0,-1,1.0,0.21260000000006585
273,3,0.8,0.0,-35.0,-1,1.0,2.845800000000054
274,3,0.8,1.0,-35.0,-1,1.0,0.24899999999979627
275,3,0.8,1.0,35.0,1,1.0,0.5028999999999542
276,3,0.8,0.125,-35.0,-1,1.0,0.1895999999999276
277,3,0.8,0.25,-35.0,-1,1.0,0.3126999999999498
278,3,0.8,0.0625,-35.0,-1,1.0,0.23959999999988213
279,3,0.8,0.0625,-35.0,-1,1.0,0.22630000000003747
280,3,0.8,0.25,-35.0,-1,1.0,0.21979999999985012
281,3,0.8,0.125,-35.0,-1,1.0,0.3127990000000409
282,3,0.8,1.0,-35.0,-1,1.0,0.22659999999996217
283,3,0.8,1.0,-35.0,-1,1.0,0.29979999999977736
284,3,0.8,0.25,-35.0,-1,1.0,0.21979999999985012
285,3,0.8,0.125,-35.0,-1,1.0,0.3165989999999965
286,3,0.8,0.0625,-35.0,-1,1.0,0.2629989999998088
287,3,0.8,0.0625,35.0,-1,0.0,0.23700000000008004
288,3,0.8,0.25,-35.0,-1,1.0,5.166600000000017
289,3,0.8,0.25,35.0,-1,0.0,0.21679999999992106
290,3,0.8,0.125,-35.0,-1,1.0,2.7800999999999476
291,3,0.8,0.125,35.0,1,1.0,0.6066999999998188
292,3,0.8,1.0,-35.0,-1,1.0,0.3001999999999043
293,3,0.8,1.0,-35.0,-1,1.0,0.3007000000000062
294,3,0.8,0.0625,-35.0,1,0.0,0.38370000000008986
295,3,0.8,0.0625,-35.0,-1,1.0,3.8505999999997584
296,3,0.8,0.0625,-35.0,-1,1.0,0.17419999999992797
297,3,0.8,0.25,-35.0,-1,1.0,0.2680000000000291
298,3,0.8,1.0,-35.0,-1,1.0,0.19069999999987886
299,3,0.8,0.125,-35.0,1,0.0,0.2439999999999145
300,3,0.8,0.0625,-35.0,1,0.0,0.5476999999998498
301,3,0.8,0.0,35.0,-1,0.0,0.5907999999999447
302,3,0.8,0.125,35.0,1,1.0,0.5647000000001299
303,3,0.8,0.0625,-35.0,1,0.0,0.28089999999997417
304,3,0.8,0.25,-35.0,-1,1.0,0.3181999999999334
305,3,0.8,1.0,-35.0,-1,1.0,0.3915999999999258
306,3,0.8,0.25,-35.0,-1,1.0,0.3848000000000411
307,3,0.8,0.0625,-35.0,-1,1.0,1.5512999999998556
308,3,0.8,0.0,-35.0,-1,1.0,0.16790000000014516
309,3,0.8,0.0625,-35.0,-1,1.0,0.2217000000000553
310,3,0.8,0.0,-35.0,-1,1.0,0.16180000000008476
311,3,0.8,0.0625,-35.0,-1,1.0,0.26880000000005566
312,3,0.8,0.0625,-35.0,1,0.0,1.0784000000001015
313,3,0.8,0.25,35.0,1,1.0,0.47880000000009204
314,3,0.8,0.125,-35.0,-1,1.0,0.21889999999984866
315,3,0.8,0.0625,-35.0,1,0.0,0.8082999999999174
316,3,0.8,0.0625,-35.0,-1,1.0,0.6518999999998414
317,3,0.8,1.0,35.0,1,1.0,0.29919999999992797
318,3,0.8,1.0,-35.0,-1,1.0,0.20579899999984264
319,3,0.8,0.25,35.0,1,1.0,0.6353999999998905
320,3,0.8,0.0,-35.0,-1,1.0,0.27549999999996544
321,3,0.8,0.125,-35.0,-1,1.0,0.17899999999985994
322,3,0.8,0.0625,-35.0,-1,1.0,0.24559999999974025
323,3,0.8,0.125,35.0,1,1.0,0.7227999999997792
324,3,0.8,0.0625,35.0,-1,0.0,0.26579999999989923
325,3,0.8,0.125,-35.0,-1,1.0,0.24900000000002365
326,3,0.8,0.25,-35.0,1,0.0,0.27569999999991524
327,3,0.8,1.0,-35.0,-1,1.0,3.1926999999998316
328,3,0.8,1.0,35.0,1,1.0,0.2595000000001164
329,3,0.8,0.0,-35.0,1,0.0,1.5694999999998345
330,3,0.8,0.25,-35.0,-1,1.0,0.1594000000000051
331,3,0.8,0.25,-35.0,-1,1.0,0.4029000000000451
332,3,0.8,0.125,-35.0,-1,1.0,0.2927999999997155
333,3,0.2,0.125,35.0,-1,0.0,0.066899999999805
334,3,0.2,0.125,-35.0,-1,1.0,0.28979899999990266
335,3,0.2,0.125,35.0,1,1.0,0.5395999999998367
336,3,0.2,0.125,35.0,1,1.0,0.8329999999998563
337,3,0.2,1.0,35.0,1,1.0,0.32989999999972497
338,3,0.2,0.0625,-35.0,-1,1.0,0.37629999999990105
339,3,0.2,0.25,35.0,1,1.0,0.4133999999999105
340,3,0.2,0.0625,35.0,1,1.0,0.26690000000007785
341,3,0.2,0.25,35.0,1,1.0,0.34050000000002
342,3,0.2,0.25,35.0,1,1.0,0.20080000000007203
343,3,0.2,0.0,35.0,-1,0.0,0.2700999999999567
344,3,0.2,1.0,35.0,1,1.0,0.7801999999999225
345,3,0.2,0.0625,35.0,-1,0.0,4.497000000000071
346,3,0.2,0.0,35.0,-1,0.0,0.29389999999989413
347,3,0.2,0.25,35.0,1,1.0,1.4038000000000466
348,3,0.2,0.0,35.0,1,1.0,0.23389999999972133
349,3,0.2,0.125,35.0,1,1.0,0.5380999999997584
350,3,0.2,0.125,35.0,1,1.0,4.913999999999987
351,3,0.2,1.0,35.0,1,1.0,0.424398999999994
352,3,0.2,0.0625,-35.0,-1,1.0,0.4010000000000673
353,3,0.2,0.0,35.0,-1,0.0,0.4541999999999007
354,3,0.2,0.25,35.0,1,1.0,1.2375999999999294
355,3,0.2,0.0,35.0,-1,0.0,3.3250000000000455
356,3,0.2,1.0,35.0,1,1.0,0.8216999999999643
357,3,0.2,1.0,35.0,1,1.0,0.498299999999972
358,3,0.2,0.125,35.0,1,1.0,0.8379999999999654
359,3,0.2,0.125,35.0,1,1.0,0.4412999999999556
360,3,0.2,0.25,35.0,1,1.0,0.4680000000000746
361,3,0.2,0.0625,35.0,1,1.0,0.8946999999998297
362,3,0.2,1.0,35.0,1,1.0,0.6219999999998436
363,3,0.2,1.0,35.0,1,1.0,0.31159999999999854
364,3,0.2,0.0625,35.0,-1,0.0,1.0050999999998567
365,3,0.2,0.0625,35.0,-1,0.0,0.36179999999990287
366,3,0.2,0.0625,35.0,1,1.0,3.2090999999998076
367,3,0.2,0.0625,35.0,1,1.0,4.558500000000095
368,3,0.2,0.125,35.0,-1,0.0,0.37869999999975335
369,3,0.2,0.0625,35.0,1,1.0,3.955299999999852
370,3,0.2,1.0,-35.0,-1,1.0,0.3624999999999545
371,3,0.2,1.0,35.0,1,1.0,0.5221000000001368
372,3,0.2,0.25,35.0,1,1.0,0.39229999999997744
373,3,0.2,0.125,35.0,1,1.0,1.439300000000003
374,3,0.2,0.25,35.0,-1,0.0,0.19280000000003383
375,3,0.2,0.0,35.0,-1,0.0,3.8524999999997362
376,3,0.2,0.25,35.0,1,1.0,0.3261999999999716
377,3,0.2,1.0,35.0,1,1.0,0.26330000000007203
378,3,0.2,1.0,35.0,1,1.0,0.43279999999981555
379,3,0.2,1.0,35.0,1,1.0,0.7462999999997919
380,3,0.2,1.0,35.0,1,1.0,0.2763999999999669
381,3,0.2,0.25,35.0,1,1.0,0.3129999999998745
382,3,0.2,0.25,35.0,1,1.0,0.6164999999998599
383,3,0.2,0.0,35.0,-1,0.0,4.86019999999985
384,3,0.2,0.0,35.0,-1,0.0,2.873099999999795
385,3,0.2,0.0625,-35.0,-1,1.0,0.4067000000000007
386,3,0.2,0.25,35.0,1,1.0,0.26329999999984466
387,3,0.2,0.0625,35.0,-1,0.0,0.2136000000000422
388,3,0.2,0.25,35.0,1,1.0,0.47719999999981155
389,3,0.2,0.125,35.0,1,1.0,0.9203999999999724
390,3,0.2,1.0,35.0,1,1.0,1.0242000000000644
391,3,0.2,0.0625,35.0,-1,0.0,3.2136999999997897
392,3,0.2,0.125,35.0,1,1.0,0.8171999999999571
393,3,0.2,0.0625,35.0,1,1.0,0.5472000000002026
394,3,0.2,0.25,35.0,1,1.0,1.2103999999997086
395,3,0.2,0.125,35.0,1,1.0,0.320699999999988
396,3,0.2,0.25,35.0,1,1.0,0.7607999999997901
397,3,0.2,1.0,35.0,1,1.0,0.2943000000000211
398,3,0.2,0.125,35.0,-1,0.0,0.19429999999988468
399,3,0.2,0.0625,35.0,-1,0.0,1.1941999999996824
400,3,0.2,0.0,-35.0,-1,1.0,1.7812999999998738
401,3,0.2,1.0,35.0,1,1.0,0.4279999999998836
402,3,0.2,0.0625,35.0,-1,0.0,3.8944999999996526
403,3,0.2,1.0,35.0,1,1.0,0.8179999999999836
404,3,0.2,1.0,35.0,-1,0.0,0.13829999999984466
405,3,0.2,0.125,35.0,1,1.0,5.631299999999783
406,3,0.2,0.0625,35.0,1,1.0,0.9583000000000084
407,3,0.2,0.0625,35.0,-1,0.0,0.3482000000001335
408,3,0.2,0.0,-35.0,-1,1.0,3.9314999999999145
409,3,0.2,0.25,35.0,-1,0.0,0.21829999999999927
410,3,0.2,0.125,-35.0,-1,1.0,0.1652000000001408
411,3,0.2,0.25,-35.0,-1,1.0,0.2618999999999687
412,3,0.2,0.0625,-35.0,-1,1.0,0.22540000000003602
413,3,0.2,0.25,35.0,1,1.0,0.5153999999999996
414,3,0.2,0.0625,35.0,-1,0.0,0.6653999999996358
415,3,0.2,0.125,35.0,1,1.0,0.4393000000000029
416,3,0.2,0.25,35.0,1,1.0,0.37550000000010186
417,3,0.2,0.25,-35.0,-1,1.0,0.27909999999997126
418,3,0.2,0.125,35.0,-1,0.0,0.4923999999998614
419,3,0.2,0.0625,-35.0,-1,1.0,2.6294000000000324
420,3,0.2,0.0,35.0,-1,0.0,0.8994000000000142
421,3,0.8,0.125,-35.0,-1,1.0,1.062599999999975
422,3,0.8,0.125,-35.0,-1,1.0,3.122699999999668
423,3,0.8,1.0,-35.0,-1,1.0,0.21590000000014697
424,3,0.8,0.25,-35.0,-1,1.0,0.266399999999976
425,3,0.8,0.25,-35.0,-1,1.0,0.2561000000000604
426,3,0.8,1.0,-35.0,-1,1.0,0.2199000000000524
427,3,0.8,0.0,-35.0,-1,1.0,0.21939999999995052
428,3,0.8,1.0,35.0,-1,0.0,0.08969999999999345
429,3,0.8,0.25,-35.0,-1,1.0,2.252999999999929
430,3,0.8,1.0,35.0,1,1.0,0.4694999999999254
431,3,0.8,0.0,-35.0,-1,1.0,0.2998999999999796
432,3,0.8,0.125,35.0,1,1.0,0.8098999999999705
433,3,0.8,0.25,35.0,1,1.0,0.6534999999998945
434,3,0.8,0.125,-35.0,-1,1.0,0.49349999999981264
435,3,0.8,0.25,-35.0,-1,1.0,0.7967000000001008
436,3,0.8,0.125,-35.0,-1,1.0,0.4301999999997861
437,3,0.8,0.0625,-35.0,-1,1.0,2.0833999999999833
438,3,0.8,1.0,-35.0,-1,1.0,0.36390000000005784
439,3,0.8,0.0,35.0,-1,0.0,0.4036999999998443
440,3,0.8,1.0,-35.0,-1,1.0,0.5402999999998883
441,3,0.8,0.125,35.0,1,1.0,0.5004999999998745
442,3,0.8,0.0625,-35.0,-1,1.0,0.2242999999998574
443,3,0.8,0.0625,-35.0,-1,1.0,0.6077999999999975
444,3,0.8,0.125,-35.0,-1,1.0,0.3240000000000691
445,3,0.8,0.125,-35.0,-1,1.0,0.2743000000000393
446,3,0.8,1.0,-35.0,-1,1.0,0.2440999999998894
447,3,0.8,1.0,35.0,1,1.0,0.4275000000000091
448,3,0.8,0.25,-35.0,-1,1.0,0.2945999999999458
449,3,0.8,0.0625,-35.0,-1,1.0,0.20419999999990068
450,3,0.8,0.25,-35.0,-1,1.0,1.3041999999998097
451,3,0.8,0.0625,-35.0,-1,1.0,5.6814999999999145
452,3,0.8,1.0,35.0,1,1.0,0.3045999999999367
453,3,0.8,0.25,-35.0,-1,1.0,0.33450000000038926
454,3,0.8,0.125,-35.0,1,0.0,1.1316000000001623
455,3,0.8,0.25,-35.0,-1,1.0,0.36160000000018044
456,3,0.8,1.0,35.0,1,1.0,0.8480000000004111
457,3,0.8,0.25,-35.0,-1,1.0,0.3317000000001826
458,3,0.8,1.0,-35.0,-1,1.0,2.4216990000004444
459,3,0.8,0.125,35.0,1,1.0,0.7087000000001353
460,3,0.8,0.0625,35.0,1,1.0,0.4151000000001659
461,3,0.8,1.0,35.0,1,1.0,0.37179999999989377
462,3,0.8,0.0625,-35.0,-1,1.0,8.22860000000037
463,3,0.8,0.25,35.0,1,1.0,1.0556000000001404
464,3,0.8,0.125,-35.0,-1,1.0,0.4119999999998072
465,3,0.8,0.125,-35.0,-1,1.0,0.8222000000000662
466,3,0.8,0.0,-35.0,-1,1.0,3.1824000000001433
467,3,0.8,0.0625,35.0,-1,0.0,1.1192000000000917
468,3,0.8,1.0,-35.0,-1,1.0,0.27260000000023865
469,3,0.8,0.125,-35.0,1,0.0,0.6057989999999336
470,3,0.8,0.125,-35.0,-1,1.0,0.1793999999999869
471,3,0.8,0.125,-35.0,1,0.0,4.142700000000332
472,3,0.8,1.0,-35.0,-1,1.0,0.2327000000004773
473,3,0.8,1.0,35.0,1,1.0,0.7260999999998603
474,3,0.8,0.0,-35.0,1,0.0,0.5061000000000604
475,3,0.8,0.25,-35.0,-1,1.0,0.2930999999998676
476,3,0.8,0.0,35.0,-1,0.0,6.523200000000088
477,3,0.8,0.25,-35.0,-1,1.0,0.6563999999998487
478,3,0.8,1.0,-35.0,-1,1.0,0.30370000000039
479,3,0.8,0.0625,-35.0,1,0.0,0.5100000000002183
480,3,0.8,0.25,35.0,-1,0.0,0.0967000000000553
481,3,0.8,0.125,-35.0,-1,1.0,0.26670000000012806
482,3,0.8,0.0625,35.0,1,1.0,0.3967999999999847
483,3,0.8,1.0,-35.0,-1,1.0,0.1910000000002583
484,3,0.8,0.0,-35.0,1,0.0,0.5637000000001535
485,3,0.8,0.0625,-35.0,-1,1.0,0.3141000000000531
486,3,0.8,0.25,-35.0,-1,1.0,0.19369999999980791
487,3,0.8,0.0625,-35.0,1,0.0,4.707100000000537
488,3,0.8,0.0625,-35.0,-1,1.0,0.2638000000001739
489,3,0.8,0.0,-35.0,-1,1.0,0.17380000000002838
490,3,0.8,0.25,35.0,1,1.0,0.7674000000001797
491,3,0.8,0.0625,-35.0,-1,1.0,0.447400000000016
492,3,0.8,0.0625,-35.0,-1,1.0,0.2739999999998872
493,3,0.8,0.0625,-35.0,-1,1.0,0.2541000000001077
494,3,0.8,0.125,35.0,1,1.0,0.6308000000003631
495,3,0.8,0.0625,-35.0,-1,1.0,0.16420000000016444
496,3,0.8,1.0,-35.0,1,0.0,0.5608999999999469
497,3,0.8,0.0,-35.0,-1,1.0,0.31430000000045766
498,3,0.8,0.25,-35.0,-1,1.0,0.20440000000007785
499,3,0.8,0.125,-35.0,-1,1.0,0.19780000000037035
500,3,0.8,0.25,-35.0,-1,1.0,0.15790000000015425
501,3,0.8,0.0,-35.0,-1,1.0,0.2415000000000873
502,3,0.8,0.0,-35.0,-1,1.0,0.224800000000414
503,3,0.8,1.0,-35.0,-1,1.0,0.20800000000008367
504,3,0.8,0.125,-35.0,-1,1.0,5.591900000000351
505,3,0.8,0.0625,-35.0,1,0.0,0.5455000000006294
506,3,0.8,1.0,-35.0,-1,1.0,1.2182000000002517
507,3,0.8,0.125,-35.0,1,0.0,0.881800000000112
508,3,0.8,0.125,-35.0,-1,1.0,0.20830000000023574
509,3,0.8,0.25,-35.0,-1,1.0,0.2849999999998545
510,3,0.2,0.25,-35.0,1,0.0,1.1988999999998668
511,3,0.2,0.0625,-35.0,-1,1.0,0.5088999999998123
512,3,0.2,0.0625,-35.0,-1,1.0,0.3852000000001681
513,3,0.2,0.125,35.0,1,1.0,0.3294999999998254
514,3,0.2,1.0,35.0,1,1.0,0.442000000000462
515,3,0.2,0.0625,35.0,1,1.0,0.7019990000003418
516,3,0.2,0.125,35.0,1,1.0,0.7124000000003434
517,3,0.2,0.25,35.0,1,1.0,1.092300000000705
518,3,0.2,0.25,35.0,1,1.0,0.7359000000001288
519,3,0.2,1.0,-35.0,-1,1.0,0.4124000000001615
520,3,0.2,0.0,35.0,1,1.0,0.4457999999999629
521,3,0.2,0.25,35.0,1,1.0,0.9524000000001251
522,3,0.2,0.125,35.0,1,1.0,0.4758999999999105
523,3,0.2,0.0625,35.0,1,1.0,0.5959000000002561
524,3,0.2,0.125,35.0,1,1.0,0.5893000000000939
525,3,0.2,0.125,35.0,1,1.0,0.8733000000001994
526,3,0.2,1.0,35.0,1,1.0,0.593000000000302
527,3,0.2,0.0625,35.0,1,1.0,0.3829999999998108
528,3,0.2,0.125,-35.0,-1,1.0,4.7994000000003325
529,3,0.2,0.125,35.0,1,1.0,0.50649999999996
530,3,0.2,1.0,35.0,1,1.0,0.330000000000382
531,3,0.2,0.25,35.0,1,1.0,0.9769000000001142
532,3,0.2,0.0,35.0,1,1.0,1.1200000000003456
533,3,0.2,0.25,-35.0,-1,1.0,0.40039999999999054
534,3,0.2,0.125,35.0,1,1.0,1.106999000000087
535,3,0.2,1.0,35.0,1,1.0,3.7002000000002226
536,3,0.2,0.0,-35.0,-1,1.0,0.8204009999999471
537,3,0.2,0.25,35.0,1,1.0,0.3070010000005823
538,3,0.2,0.125,35.0,1,1.0,0.9105009999998401
539,3,0.2,0.25,35.0,1,1.0,0.6211010000001806
540,3,0.2,1.0,-35.0,-1,1.0,0.2672010000001137
541,3,0.2,0.0625,35.0,1,1.0,0.08120099999996455
542,3,0.2,0.25,-35.0,1,0.0,0.7507009999999354
543,3,0.2,1.0,35.0,1,1.0,0.8811009999999442
544,3,0.2,0.125,35.0,1,1.0,0.26410100000020975
545,3,0.2,1.0,35.0,1,1.0,0.3374010000002272
546,3,0.2,0.125,-35.0,-1,1.0,4.131001000000197
547,3,0.2,1.0,35.0,1,1.0,0.45140100000025996
548,3,0.2,0.0,35.0,1,1.0,1.1148010000001705
549,3,0.2,0.0,-35.0,1,0.0,0.6814010000002781
550,3,0.8,0.0625,-35.0,-1,1.0,0.14510100000006787
551,3,0.8,0.25,-35.0,-1,1.0,0.2857010000002447
552,3,0.8,0.0,-35.0,-1,1.0,6.219201000000339
553,3,0.8,0.0625,-35.0,-1,1.0,0.34260100000028615
554,3,0.8,1.0,-35.0,-1,1.0,0.2559009999999944
555,3,0.8,0.25,-35.0,-1,1.0,0.4493010000005597
556,3,0.8,0.25,35.0,1,1.0,0.526100999999926
557,3,0.8,0.0,-35.0,1,0.0,0.6028009999995447
558,3,0.8,0.25,-35.0,-1,1.0,0.8062009999998736
559,3,0.8,0.25,-35.0,-1,1.0,1.3062010000003283
560,3,0.8,0.0625,-35.0,-1,1.0,0.3964009999999689
561,3,0.8,1.0,-35.0,-1,1.0,1.1930010000000948
562,3,0.8,0.125,-35.0,-1,1.0,5.969700999999986
563,3,0.8,0.125,-35.0,-1,1.0,0.2732010000004266
564,3,0.8,0.25,-35.0,-1,1.0,0.32660100000020975
565,3,0.8,0.0625,-35.0,1,0.0,0.673301000000265
566,3,0.8,1.0,-35.0,-1,1.0,1.3468010000001414
567,3,0.8,0.0625,-35.0,-1,1.0,0.4302010000001246
568,3,0.8,0.125,-35.0,-1,1.0,3.1502009999999245
569,3,0.8,0.125,-35.0,-1,1.0,0.2737010000000737
570,3,0.8,0.125,-35.0,1,0.0,0.6672010000002047
571,3,0.8,0.25,-35.0,-1,1.0,0.40380099999993035
572,3,0.8,0.0625,35.0,-1,0.0,3.5272009999998772
573,3,0.8,0.25,-35.0,-1,1.0,0.2306010000002061
574,3,0.8,0.0625,35.0,1,1.0,2.984201000000212
575,3,0.8,1.0,-35.0,-1,1.0,0.28740100000050006
576,3,0.8,0.25,-35.0,-1,1.0,0.32420100000035745
577,3,0.8,0.0625,-35.0,-1,1.0,0.9743010000001959
578,3,0.8,0.125,35.0,-1,0.0,3.3377010000003793
579,3,0.2,0.25,35.0,1,1.0,1.3978010000000722
580,3,0.2,0.25,35.0,1,1.0,0.30780100000038146
581,3,0.2,0.0625,35.0,1,1.0,0.7880009999998947
582,3,0.2,0.25,35.0,1,1.0,1.0546010000002752
583,3,0.2,0.0625,35.0,1,1.0,0.27460100000007515
584,3,0.2,0.125,35.0,1,1.0,0.5547010000000228
585,3,0.2,0.0,35.0,1,1.0,9.28490099999999
586,3,0.2,0.0,35.0,-1,0.0,0.1685010000001057
587,3,0.2,0.125,35.0,1,1.0,0.5685010000001967
588,3,0.2,0.25,-35.0,-1,1.0,0.27190100000052553
589,3,0.2,1.0,35.0,1,1.0,0.34860100000014427
590,3,0.2,1.0,35.0,1,1.0,0.4187010000000555
591,3,0.2,0.0625,35.0,1,1.0,0.5520010000000184
592,3,0.2,0.25,-35.0,-1,1.0,0.3788009999998394
593,3,0.2,0.125,-35.0,-1,1.0,0.3255010000002585
594,3,0.2,0.0625,-35.0,-1,1.0,0.44220099999984086
595,3,0.2,0.125,35.0,1,1.0,0.6723010000000613
596,3,0.2,1.0,-35.0,-1,1.0,0.2857010000002447
597,3,0.2,0.0625,35.0,1,1.0,0.29240100000015445
598,3,0.2,1.0,35.0,1,1.0,0.5094000000003689
599,3,0.2,0.25,-35.0,1,0.0,0.36260100000026796
600,3,0.2,0.0,35.0,-1,0.0,0.6059009999999034
601,3,0.2,0.25,-35.0,-1,1.0,0.3294010000004164
602,3,0.2,0.25,35.0,1,1.0,0.48270099999990634
603,3,0.2,0.0625,35.0,1,1.0,0.6195010000001275
604,3,0.2,1.0,-35.0,-1,1.0,0.2829010000004928
605,3,0.2,0.125,35.0,-1,0.0,1.3664010000002236
606,3,0.2,0.125,35.0,-1,0.0,0.2664010000003145
607,3,0.2,0.125,35.0,1,1.0,0.903201000000081
608,3,0.2,0.0625,35.0,1,1.0,0.5398009999998976
609,3,0.2,1.0,35.0,1,1.0,0.5965009999999893
610,3,0.2,1.0,35.0,1,1.0,0.3032010000001719
611,3,0.2,1.0,35.0,1,1.0,0.22340100000019447
612,3,0.2,0.0625,-35.0,-1,1.0,2.9267009999998663
613,3,0.2,0.25,35.0,1,1.0,0.29350099999965096
614,3,0.2,0.25,35.0,1,1.0,0.2836010000000897
615,3,0.2,0.0625,35.0,-1,0.0,6.263500999999906
616,3,0.2,0.0625,-35.0,1,0.0,12.02710100000013
617,3,0.2,1.0,35.0,1,1.0,0.69070099999999
618,3,0.2,0.0625,35.0,-1,0.0,1.1075009999999565
619,3,0.2,0.125,35.0,1,1.0,6.724200999999994
620,3,0.2,0.25,35.0,-1,0.0,0.7411010000000715
621,3,0.2,1.0,35.0,1,1.0,0.8945010000002185
622,3,0.2,0.0,35.0,1,1.0,4.807901000000129
623,3,0.2,0.0625,35.0,1,1.0,1.0446010000005117
624,3,0.2,0.0625,35.0,-1,0.0,0.3580000000001746
625,3,0.2,0.25,35.0,1,1.0,1.5615010000005896
626,3,0.2,0.25,35.0,1,1.0,0.9815010000002076
627,3,0.2,1.0,35.0,1,1.0,0.43490100000053644
628,3,0.2,0.0625,35.0,1,1.0,0.7117010000006303
629,3,0.2,0.0625,35.0,-1,0.0,1.6284010000003946
630,3,0.2,0.125,35.0,1,1.0,0.8818010000004506
631,3,0.2,0.125,-35.0,-1,1.0,3.348500999999942
632,3,0.2,0.125,35.0,1,1.0,0.4686010000004899
633,3,0.2,0.25,35.0,1,1.0,0.522001000000273
634,3,0.2,0.25,35.0,1,1.0,0.5087009999997463
635,3,0.2,0.25,35.0,1,1.0,0.33540099999981976
636,3,0.2,1.0,35.0,1,1.0,0.3556010000002061
637,3,0.2,1.0,35.0,1,1.0,0.36900100000002567
638,3,0.2,0.25,35.0,1,1.0,0.3489009999998416
639,3,0.2,1.0,35.0,1,1.0,0.33910100000002785
640,3,0.2,0.25,35.0,1,1.0,0.6923010000000431
641,3,0.2,0.25,35.0,1,1.0,0.42910100000017337
642,3,0.2,1.0,35.0,1,1.0,0.30250100000012026
643,3,0.2,0.0625,35.0,1,1.0,1.642601000000468
644,3,0.2,1.0,35.0,1,1.0,0.3593010000004142
645,3,0.2,0.0625,35.0,-1,0.0,17.13600099999985
646,3,0.2,0.0625,35.0,-1,0.0,0.49970100000018647
647,3,0.2,0.0625,-35.0,1,0.0,36.67650100000037
648,3,0.2,0.25,35.0,1,1.0,0.527201000000332
649,3,0.2,0.25,35.0,-1,0.0,0.6405010000003131
650,3,0.2,0.25,35.0,1,1.0,0.7173010000001341
651,3,0.2,0.25,35.0,1,1.0,0.43400100000008024
652,3,0.2,0.0625,35.0,1,1.0,0.8941010000003189
653,3,0.2,0.125,35.0,1,1.0,0.4575009999998656
654,3,0.2,0.125,35.0,1,1.0,0.8842009999998481
655,3,0.2,1.0,-35.0,-1,1.0,0.327701000000161
656,3,0.2,0.0,35.0,1,1.0,0.6778010000002723
657,3,0.8,0.125,-35.0,-1,1.0,0.29770100000041566
658,3,0.8,0.0625,35.0,1,1.0,3.721201000000292
659,3,0.8,1.0,-35.0,-1,1.0,0.24480099999982485
660,3,0.8,0.25,-35.0,-1,1.0,0.3880010000002585
661,3,0.8,0.0625,-35.0,-1,1.0,0.3480010000002949
662,3,0.8,0.125,35.0,1,1.0,0.6247010000001865
663,3,0.8,0.125,-35.0,-1,1.0,0.8548010000004069
664,3,0.8,0.0625,-35.0,-1,1.0,1.264901000000009
665,3,0.8,0.0625,-35.0,-1,1.0,16.591801000000032
666,3,0.8,1.0,35.0,1,1.0,0.5319010000002891
667,3,0.8,0.125,-35.0,-1,1.0,0.258701000000201
668,3,0.8,0.0625,-35.0,-1,1.0,0.5689010000000962
669,3,0.8,0.125,-35.0,-1,1.0,0.3255010000002585
670,3,0.8,1.0,35.0,1,1.0,5.328801000000112
671,3,0.8,0.25,-35.0,-1,1.0,7.299001000000317
672,3,0.8,0.25,-35.0,-1,1.0,0.8392010000002301
673,3,0.8,0.0625,-35.0,-1,1.0,0.2393010000000686
674,3,0.8,0.25,-35.0,-1,1.0,0.2760000000002947
675,3,0.8,1.0,-35.0,-1,1.0,0.26940100000047096
676,3,0.8,0.25,35.0,1,1.0,0.8261010000001079
677,3,0.8,0.0,-35.0,-1,1.0,0.24960100000043894
678,3,0.8,0.25,-35.0,-1,1.0,0.24290100000052917
679,3,0.8,0.0625,-35.0,1,0.0,0.5364010000002963
680,3,0.8,0.125,-35.0,-1,1.0,0.329801000000316
681,3,0.8,0.125,-35.0,-1,1.0,0.28980100000035236
682,3,0.8,0.0625,-35.0,-1,1.0,0.4032010000005357
683,3,0.8,0.125,-35.0,1,0.0,0.506601000000046
684,3,0.8,0.0,-35.0,-1,1.0,0.4133010000005015
685,3,0.8,0.0625,35.0,1,1.0,1.1533010000002832
686,3,0.8,0.125,35.0,-1,0.0,0.3534010000003036
687,3,0.8,1.0,-35.0,-1,1.0,0.233400999999958
688,3,0.8,0.25,35.0,-1,0.0,0.5503010000002178
689,3,0.8,0.0625,-35.0,-1,1.0,0.5036010000003444
690,3,0.8,0.0625,-35.0,-1,1.0,3.3270009999996546
691,3,0.8,0.0,-35.0,-1,1.0,0.23050100000000384
692,3,0.8,0.125,-35.0,-1,1.0,0.2472010000001319
693,3,0.8,0.0625,-35.0,-1,1.0,0.27070099999991726
694,3,0.8,0.125,-35.0,-1,1.0,1.620701000000281
695,3,0.8,0.0625,-35.0,-1,1.0,5.1041009999999005
696,3,0.8,0.25,-35.0,-1,1.0,0.4410010000001421
697,3,0.8,0.0,-35.0,-1,1.0,3.770900999999867
698,3,0.8,0.0625,-35.0,1,0.0,0.4211009999999078
699,3,0.8,0.125,-35.0,-1,1.0,0.5045009999998911
700,3,0.8,0.0625,-35.0,-1,1.0,0.3744010000000344
701,3,0.8,0.25,35.0,1,1.0,0.5012010000000373
702,3,0.8,0.0625,-35.0,-1,1.0,0.30130099999996673
703,3,0.8,1.0,-35.0,-1,1.0,0.18460099999992963
704,3,0.8,0.0625,-35.0,1,0.0,4.598101000000042
705,3,0.8,0.125,-35.0,-1,1.0,7.338200999999572
706,3,0.8,0.125,-35.0,-1,1.0,0.35510100000010425
707,3,0.8,0.0625,-35.0,1,0.0,0.7417010000003756
708,3,0.8,0.25,-35.0,-1,1.0,1.5151010000004135
709,3,0.8,1.0,-35.0,1,0.0,0.4585010000005241
710,3,0.8,0.125,-35.0,-1,1.0,0.44210100000009334
711,3,0.8,0.125,-35.0,-1,1.0,0.40879999999970096
712,3,0.8,0.25,-35.0,1,0.0,0.5520010000004731
713,3,0.8,1.0,35.0,1,1.0,1.0656010000002425
714,3,0.8,0.0625,-35.0,-1,1.0,5.422200999999859
715,3,0.8,0.25,-35.0,-1,1.0,5.022401000000173
716,3,0.8,0.25,-35.0,1,0.0,0.7425009999997201
717,3,0.8,0.125,-35.0,-1,1.0,7.63260100000025
718,3,0.8,1.0,-35.0,-1,1.0,0.3494010000003982
719,3,0.8,0.25,35.0,1,1.0,1.319601000000148
720,3,0.8,0.25,-35.0,-1,1.0,0.3562010000000555
721,3,0.8,0.0625,-35.0,1,0.0,1.6198010000002796
722,3,0.8,0.0,-35.0,1,0.0,0.6630009999998947
723,3,0.8,0.0625,-35.0,1,0.0,1.189701000000241
724,3,0.8,0.25,-35.0,-1,1.0,17.623201000000336
725,3,0.8,1.0,-35.0,-1,1.0,0.3303009999999631
726,3,0.8,1.0,-35.0,-1,1.0,0.5503010000002178
727,3,0.8,1.0,-35.0,-1,1.0,0.1737009999997099
728,3,0.8,0.0,35.0,-1,0.0,3.7471010000003844
729,3,0.8,0.25,-35.0,-1,1.0,0.24070100000017192
730,3,0.8,0.0625,-35.0,-1,1.0,8.614001000000371
731,3,0.8,0.125,35.0,1,1.0,0.4775009999998474
732,3,0.8,0.0625,-35.0,1,0.0,0.3544010000000526
733,3,0.8,0.0,-35.0,-1,1.0,0.5111010000000533
734,3,0.8,0.25,-35.0,-1,1.0,4.951101000000108
735,3,0.8,0.125,-35.0,-1,1.0,0.3947010000001683
736,3,0.8,1.0,-35.0,-1,1.0,0.2846010000002934
737,3,0.8,1.0,-35.0,-1,1.0,1.4948010000002796
738,3,0.8,0.125,-35.0,1,0.0,8.234701000000314
739,3,0.8,0.25,-35.0,-1,1.0,0.3349009999997179
740,3,0.2,0.0625,35.0,-1,0.0,0.22510100000044986
741,3,0.2,0.0,35.0,1,1.0,25.781801000000087
742,3,0.2,0.0625,35.0,1,1.0,1.3124010000001363
743,3,0.2,0.125,-35.0,-1,1.0,0.26250100000015664
744,3,0.2,0.0625,35.0,1,1.0,0.895701000000372
745,3,0.2,0.25,35.0,1,1.0,0.2858009999999922
746,3,0.2,0.25,35.0,1,1.0,0.28590100000019447
747,3,0.2,1.0,-35.0,-1,1.0,0.3359009999999216
748,3,0.2,0.0,35.0,1,1.0,0.2661010000006172
749,3,0.2,0.25,35.0,1,1.0,0.3460010000003422
750,3,0.2,0.125,35.0,0,0.0,59.949501000000055
751,3,0.2,0.0,35.0,-1,0.0,2.433900999999878
752,3,0.2,0.25,-35.0,1,0.0,59.95070100000021
753,3,0.2,0.0,-0.0,0,0.0,59.95520099999976
754,3,0.2,1.0,35.0,1,1.0,0.4863010000003669
755,3,0.2,1.0,35.0,1,1.0,0.5819010000000162
756,3,0.2,0.0625,-35.0,1,0.0,8.67580100000032
757,3,0.2,0.0625,35.0,-1,0.0,17.36560099999997
758,3,0.2,0.125,-35.0,0,0.0,59.93640099999993
759,3,0.2,1.0,35.0,1,1.0,4.067101000000093
760,3,0.2,0.0625,35.0,-1,0.0,17.454001000000062
761,3,0.2,0.125,35.0,1,1.0,0.5314009999997324
762,3,0.2,0.25,35.0,0,0.0,59.95490100000052
763,3,0.2,1.0,35.0,1,1.0,50.26570100000026
764,3,0.2,0.0,35.0,1,1.0,4.754500999999891
765,3,0.2,1.0,35.0,1,1.0,0.88470099999995
766,3,0.2,0.125,35.0,1,1.0,1.344800999999734
767,3,0.2,1.0,35.0,1,1.0,52.20150100000001
768,3,0.2,0.125,-35.0,-1,1.0,40.079301000000214
769,3,0.2,0.125,35.0,-1,0.0,3.9401010000001406
770,3,0.2,0.125,-35.0,-1,1.0,27.19340100000045
1,4,0.5,1.0,-35.0,-1,1.0,0.2701000000000007
2,4,0.5,1.0,35.0,1,1.0,0.24800099999999858
3,4,0.5,0.125,-35.0,1,0.0,0.5925010000000004
4,4,0.5,0.25,-35.0,-1,1.0,5.155501000000003
5,4,0.5,0.0625,35.0,-1,0.0,0.2509010000000025
6,4,0.5,0.0625,35.0,-1,0.0,0.4440010000000001
7,4,0.5,0.125,35.0,-1,0.0,3.931100999999998
8,4,0.5,0.125,-35.0,-1,1.0,0.2565010000000001
9,4,0.5,0.0625,-35.0,-1,1.0,0.2530010000000047
10,4,0.5,0.0625,35.0,-1,0.0,7.828701000000002
11,4,0.5,0.125,35.0,1,1.0,0.41220099999999604
12,4,0.5,0.0625,35.0,-1,0.0,9.195300999999994
13,4,0.5,1.0,-35.0,-1,1.0,2.6726010000000002
14,4,0.5,0.0625,35.0,-1,0.0,5.747101000000015
15,4,0.5,0.0,-35.0,-1,1.0,0.2839010000000002
16,4,0.5,0.0,-35.0,-1,1.0,6.193601000000001
17,4,0.5,0.0,35.0,-1,0.0,5.611600999999993
18,4,0.5,0.25,-35.0,-1,1.0,3.3324010000000044
19,4,0.5,1.0,-35.0,-1,1.0,0.2361009999999908
20,4,0.5,0.0625,35.0,-1,0.0,7.517600999999999
21,4,0.5,0.25,35.0,1,1.0,0.3582010000000082
22,4,0.5,0.25,-35.0,-1,1.0,5.636301000000003
23,4,0.5,0.0625,-35.0,-1,1.0,8.361401
24,4,0.5,0.0625,-35.0,-1,1.0,0.34740100000001917
25,4,0.5,1.0,35.0,1,1.0,0.29140100000000757
26,4,0.5,1.0,35.0,1,1.0,0.3904009999999971
27,4,0.5,0.0625,-35.0,-1,1.0,3.7454010000000153
28,4,0.5,0.125,-35.0,-1,1.0,0.3291010000000085
29,4,0.5,0.125,-35.0,-1,1.0,0.2688009999999963
30,4,0.5,0.0,35.0,-1,0.0,1.9534010000000137
31,4,0.5,0.0,35.0,-1,0.0,8.781900999999976
32,4,0.5,1.0,-35.0,-1,1.0,0.23150100000000862
33,4,0.5,0.0,35.0,-1,0.0,2.2807009999999934
34,4,0.5,0.0,35.0,-1,0.0,5.376301000000012
35,4,0.5,0.25,-35.0,-1,1.0,0.2432009999999991
36,4,0.5,0.25,35.0,1,1.0,0.4283009999999763
37,4,0.5,1.0,35.0,1,1.0,0.39540099999999256
38,4,0.5,1.0,-35.0,-1,1.0,0.24850100000000452
39,4,0.5,0.125,35.0,-1,0.0,9.60050099999998
40,4,0.5,0.0,-35.0,-1,1.0,2.08630100000002
41,4,0.5,0.25,35.0,-1,0.0,0.5104009999999732
42,4,0.5,0.0,35.0,-1,0.0,4.83770100000001
43,4,0.5,0.25,35.0,1,1.0,0.48290099999999825
44,4,0.5,0.125,-35.0,-1,1.0,0.21050100000002203
45,4,0.5,0.25,-35.0,-1,1.0,0.22170099999993909
46,4,0.5,0.25,35.0,-1,0.0,5.0584010000000035
47,4,0.5,1.0,35.0,1,1.0,0.27520099999992453
48,4,0.5,0.0,35.0,-1,0.0,6.675600999999972
49,4,0.5,0.25,35.0,1,1.0,0.28080099999999675
50,4,0.5,0.0625,35.0,-1,0.0,0.1771009999999933
51,4,0.5,1.0,35.0,1,1.0,0.3648009999999431
52,4,0.5,1.0,35.0,1,1.0,0.32100100000002385
53,4,0.5,1.0,35.0,1,1.0,0.22290099999997892
54,4,0.5,0.0625,35.0,1,1.0,0.27620099999995773
55,4,0.5,0.25,35.0,1,1.0,0.3447009999999864
56,4,0.5,0.0625,35.0,1,1.0,0.3003009999999904
57,4,0.5,0.0,35.0,1,1.0,0.28860099999997146
58,4,0.5,1.0,-35.0,-1,1.0,0.3863010000000031
59,4,0.5,1.0,-35.0,-1,1.0,0.5021009999999819
60,4,0.5,0.25,-35.0,1,0.0,2.5649009999999635
61,4,0.5,0.0,35.0,-1,0.0,0.18070099999994227
62,4,0.5,0.0,35.0,1,1.0,0.3928009999999631
63,4,0.5,0.125,35.0,1,1.0,0.20260099999995873
64,4,0.5,1.0,-35.0,-1,1.0,0.20870099999996228
65,4,0.5,0.0625,-35.0,1,0.0,0.2143009999999208
66,4,0.5,1.0,35.0,1,1.0,0.23000099999995882
67,4,0.5,0.125,35.0,1,1.0,0.23910100000000511
68,4,0.5,0.0625,35.0,1,1.0,0.2867009999999368
69,4,0.5,0.25,35.0,1,1.0,0.260200999999995
70,4,0.5,1.0,-35.0,-1,1.0,0.2571009999999774
71,4,0.5,0.25,-35.0,1,0.0,0.21690099999995027
72,4,0.5,0.125,-35.0,-1,1.0,0.12420099999997092
73,4,0.5,1.0,35.0,1,1.0,0.19180099999994127
74,4,0.5,1.0,35.0,1,1.0,0.23880099999996673
75,4,0.5,0.125,35.0,1,1.0,0.25499999999999545
76,4,0.5,0.25,-35.0,1,0.0,0.17580099999997856
77,4,0.5,1.0,35.0,1,1.0,0.37150099999996655
78,4,0.5,0.0625,-35.0,-1,1.0,4.2874009999999885
79,4,0.5,1.0,35.0,1,1.0,0.17380100000002585
80,4,0.5,0.25,-35.0,1,0.0,0.2386009999999601
81,4,0.5,1.0,35.0,1,1.0,0.2081009999999992
82,4,0.5,1.0,35.0,1,1.0,0.22390099999995527
83,4,0.5,0.125,35.0,-1,0.0,7.648001000000022
84,4,0.5,0.125,35.0,-1,0.0,0.2352009999999609
85,4,0.5,0.125,35.0,1,1.0,4.583800999999937
86,4,0.5,0.25,-35.0,-1,1.0,0.3129009999999539
87,4,0.5,0.25,35.0,1,1.0,0.2256009999999833
88,4,0.5,0.25,-35.0,-1,1.0,0.6389009999999189
89,4,0.5,0.125,35.0,1,1.0,0.4089010000000144
90,4,0.5,0.0,-35.0,1,0.0,0.2852009999999723
91,4,0.8,0.0625,-35.0,-1,1.0,0.24290099999996073
92,4,0.8,1.0,-35.0,-1,1.0,0.26220100000000457
93,4,0.8,1.0,-35.0,-1,1.0,0.2719009999999571
94,4,0.8,0.0625,35.0,-1,0.0,0.2296010000000024
95,4,0.8,0.0,35.0,-1,0.0,3.465200999999979
96,4,0.8,0.0625,-35.0,-1,1.0,0.37940099999991617
97,4,0.8,1.0,-35.0,-1,1.0,0.20090099999998756
98,4,0.8,0.25,-35.0,-1,1.0,3.4447009999999523
99,4,0.8,0.125,-35.0,-1,1.0,0.23130099999997356
100,4,0.8,0.25,35.0,1,1.0,0.8625010000000088
101,4,0.8,0.0625,-35.0,-1,1.0,0.25660099999993236
102,4,0.8,1.0,-35.0,-1,1.0,0.17090200000001232
103,4,0.8,0.0,-35.0,-1,1.0,0.2620019999999954
104,4,0.8,0.25,-35.0,-1,1.0,0.20400199999994584
105,4,0.8,0.0,-35.0,-1,1.0,0.4401019999999676
106,4,0.8,0.0,35.0,-1,0.0,3.697001999999941
107,4,0.8,0.25,35.0,1,1.0,0.3120020000000068
108,4,0.8,1.0,-35.0,-1,1.0,0.19010200000002442
109,4,0.8,0.0625,35.0,1,1.0,0.18900200000007317
110,4,0.8,1.0,-35.0,-1,1.0,0.24100200000009409
111,4,0.8,0.0625,-35.0,1,0.0,0.22250199999996312
112,4,0.8,0.0,-35.0,-1,1.0,2.3931020000001126
113,4,0.8,1.0,35.0,1,1.0,0.41340200000001914
114,4,0.8,1.0,35.0,1,1.0,0.4260020000001532
115,4,0.8,0.0,-35.0,1,0.0,0.32010200000001987
116,4,0.8,0.125,-35.0,-1,1.0,0.2612020000001394
117,4,0.8,1.0,-35.0,-1,1.0,0.3260020000000168
118,4,0.8,0.0,-35.0,-1,1.0,4.547402000000034
119,4,0.8,1.0,-35.0,-1,1.0,0.18710200000009536
120,4,0.8,0.0625,-35.0,-1,1.0,0.15910200000007535
121,4,0.8,1.0,-35.0,-1,1.0,0.23230200000000423
122,4,0.8,0.25,35.0,-1,0.0,0.24800200000004224
123,4,0.8,0.25,-35.0,-1,1.0,0.17880200000013247
124,4,0.8,1.0,-35.0,-1,1.0,0.2651020000000699
125,4,0.8,1.0,-35.0,-1,1.0,0.1702020000001312
126,4,0.8,0.25,-35.0,-1,1.0,0.19910200000003897
127,4,0.8,0.125,-35.0,-1,1.0,0.19500200000004497
128,4,0.8,0.0625,-35.0,-1,1.0,0.17870200000004388
129,4,0.8,0.25,-35.0,-1,1.0,0.18960200000003624
130,4,0.8,0.125,35.0,-1,0.0,0.18880200000012337
131,4,0.8,0.125,-35.0,-1,1.0,0.20000200000004043
132,4,0.8,1.0,35.0,1,1.0,0.2614020000000892
133,4,0.8,0.25,-35.0,-1,1.0,0.11480200000005425
134,4,0.8,0.0625,35.0,-1,0.0,0.08570200000008299
135,4,0.8,0.25,35.0,-1,0.0,0.1604019999999764
136,4,0.8,0.0,-35.0,-1,1.0,0.19460200000014538
137,4,0.8,0.25,-35.0,-1,1.0,0.1906020000000126
138,4,0.8,0.25,-35.0,-1,1.0,0.2854020000000901
139,4,0.8,0.0625,-35.0,-1,1.0,0.1406009999999469
140,4,0.8,0.125,35.0,1,1.0,0.3078020000000379
141,4,0.8,0.0625,-35.0,-1,1.0,0.1825019999998858
142,4,0.8,0.125,-35.0,-1,1.0,0.26420199999995475
143,4,0.8,0.125,35.0,1,1.0,0.39120200000002114
144,4,0.8,0.0625,-35.0,-1,1.0,0.18920200000002296
145,4,0.8,0.125,35.0,-1,0.0,0.19530200000008335
146,4,0.8,0.125,35.0,1,1.0,0.289602000000059
147,4,0.8,0.125,35.0,1,1.0,0.24820199999999204
148,4,0.8,0.0625,-35.0,-1,1.0,0.27850200000000314
149,4,0.8,0.0625,-35.0,-1,1.0,0.2248019999999542
150,4,0.8,0.25,35.0,1,1.0,0.19720200000006116
151,4,0.8,0.0,-35.0,1,0.0,0.6189020000000482
152,4,0.8,1.0,35.0,1,1.0,0.27850200000000314
153,4,0.8,1.0,-35.0,-1,1.0,0.1381020000001172
154,4,0.8,1.0,35.0,1,1.0,0.23720200000002478
155,4,0.8,0.25,35.0,1,1.0,0.26630199999999604
156,4,0.8,0.0,-35.0,-1,1.0,0.3535020000000486
157,4,0.8,0.0,-35.0,-1,1.0,0.1545019999999795
158,4,0.8,0.25,-35.0,-1,1.0,0.2087019999999029
159,4,0.8,0.25,-35.0,-1,1.0,0.23530200000004697
160,4,0.8,1.0,-35.0,-1,1.0,0.2366020000000617
161,4,0.8,0.0625,-35.0,-1,1.0,0.2409020000000055
162,4,0.2,0.125,35.0,1,1.0,0.6188019999999597
163,4,0.2,0.25,-35.0,-1,1.0,0.23140200000000277
164,4,0.2,0.125,35.0,1,1.0,0.5046019999999771
165,4,0.2,0.125,35.0,1,1.0,0.29230200000006334
166,4,0.2,1.0,35.0,1,1.0,0.4188020000000279
167,4,0.2,1.0,35.0,1,1.0,0.20800200000007862
168,4,0.2,0.25,-35.0,-1,1.0,0.05310199999996712
169,4,0.2,0.0625,35.0,1,1.0,0.3521019999999453
170,4,0.2,0.125,35.0,1,1.0,0.2270019999999704
171,4,0.2,0.0,35.0,1,1.0,0.27590200000008736
172,4,0.2,1.0,35.0,1,1.0,0.4279020000000173
173,4,0.2,0.125,-35.0,-1,1.0,6.651002000000062
174,4,0.2,0.0,-35.0,-1,1.0,0.17540199999996275
175,4,0.2,0.125,35.0,-1,0.0,0.1402020000000448
176,4,0.2,0.125,35.0,1,1.0,0.5134020000000419
177,4,0.2,0.0625,35.0,1,1.0,0.2224020000001019
178,4,0.2,1.0,35.0,1,1.0,0.2714020000000801
179,4,0.2,0.25,-35.0,-1,1.0,0.26840200000003733
180,4,0.2,0.0,-35.0,1,0.0,0.20990200000005643
181,4,0.2,0.0625,-35.0,-1,1.0,0.08540200000004461
182,4,0.2,0.125,35.0,-1,0.0,0.2746020000000726
183,4,0.2,0.125,35.0,1,1.0,0.28450199999997494
184,4,0.2,0.0625,-35.0,-1,1.0,8.985802000000035
185,4,0.2,0.125,35.0,1,1.0,0.42970200000002023
186,4,0.2,1.0,35.0,1,1.0,0.3855020000000877
187,4,0.2,0.0,35.0,1,1.0,0.20960199999990436
188,4,0.2,0.0,35.0,1,1.0,0.13550199999997403
189,4,0.2,0.0625,35.0,1,1.0,0.23760200000003806
190,4,0.2,0.25,35.0,1,1.0,0.24110200000006898
191,4,0.2,1.0,35.0,1,1.0,0.15340200000014192
192,4,0.2,0.0625,-35.0,1,0.0,0.19310200000006716
193,4,0.2,1.0,35.0,1,1.0,0.20880200000010518
194,4,0.2,1.0,35.0,1,1.0,0.1989019999999755
195,4,0.2,1.0,-35.0,-1,1.0,0.22800200000006043
196,4,0.2,0.0625,35.0,1,1.0,0.34860200000002806
197,4,0.2,1.0,-35.0,-1,1.0,0.1865020000000186
198,4,0.2,1.0,35.0,1,1.0,0.25210200000003624
199,4,0.2,0.0625,35.0,1,1.0,0.3297020000001112
200,4,0.2,1.0,35.0,1,1.0,0.19010200000002442
201,4,0.2,0.125,35.0,1,1.0,0.26410199999997985
202,4,0.2,0.125,35.0,-1,0.0,0.9229020000001356
203,4,0.2,0.0625,35.0,-1,0.0,0.5862019999999575
204,4,0.2,0.0625,35.0,-1,0.0,0.31490199999996094
205,4,0.2,0.125,35.0,1,1.0,0.5025020000000495
206,4,0.2,0.25,35.0,1,1.0,0.2470020000000659
207,4,0.2,0.125,-35.0,-1,1.0,0.3052020000000084
208,4,0.2,1.0,35.0,1,1.0,0.35860200000001896
209,4,0.2,0.0625,35.0,1,1.0,0.19160199999998895
210,4,0.2,0.125,-35.0,-1,1.0,0.34870200000000295
211,4,0.2,0.0625,35.0,1,1.0,0.45580100000006496
212,4,0.2,0.125,35.0,1,1.0,0.35870199999999386
213,4,0.2,0.25,35.0,1,1.0,0.25160200000004806
214,4,0.2,1.0,35.0,1,1.0,0.26990200000000186
215,4,0.2,0.25,35.0,1,1.0,0.26800200000013774
216,4,0.2,1.0,35.0,1,1.0,0.22190200000011373
217,4,0.2,0.25,35.0,1,1.0,0.7677019999999857
218,4,0.2,0.125,35.0,1,1.0,0.35870199999999386
219,4,0.2,0.125,35.0,1,1.0,0.29610200000001896
220,4,0.2,0.125,35.0,-1,0.0,1.2106019999999944
221,4,0.2,1.0,35.0,1,1.0,0.3654020000000173
222,4,0.2,0.0625,35.0,1,1.0,0.37080200000002606
223,4,0.2,0.0625,35.0,1,1.0,0.24770200000000386
224,4,0.2,0.0625,-35.0,-1,1.0,13.077702000000045
225,4,0.2,0.0,35.0,-1,0.0,0.2710019999999531
226,4,0.2,1.0,35.0,1,1.0,0.38310100000012426
227,4,0.2,0.25,-35.0,-1,1.0,0.2772009999999909
228,4,0.2,1.0,35.0,1,1.0,0.2170019999999795
229,4,0.2,0.0625,35.0,-1,0.0,0.14170200000000932
230,4,0.2,0.125,35.0,1,1.0,0.488702000000103
231,4,0.2,0.125,-35.0,-1,1.0,0.32870200000013483
232,4,0.2,0.125,35.0,1,1.0,0.315902000000051
233,4,0.2,1.0,35.0,1,1.0,0.40540200000009463
234,4,0.2,0.0,35.0,1,1.0,10.988701999999876
235,4,0.2,0.0625,35.0,1,1.0,0.23580200000014884
236,4,0.2,0.25,35.0,1,1.0,0.23910200000022996
237,4,0.2,0.25,-35.0,-1,1.0,0.27250200000003133
238,4,0.2,0.125,35.0,1,1.0,0.3158020000000761
239,4,0.2,0.125,35.0,-1,0.0,0.20930199999997967
240,4,0.2,0.125,35.0,1,1.0,0.6060019999999895
241,4,0.2,0.25,35.0,1,1.0,0.24980200000004515
242,4,0.2,0.0625,-35.0,-1,1.0,0.45930199999997967
243,4,0.2,0.25,35.0,1,1.0,0.24980200000004515
244,4,0.2,0.0625,35.0,1,1.0,2.6495010000001002
245,4,0.2,0.25,35.0,1,1.0,0.20980200000008153
246,4,0.2,1.0,35.0,1,1.0,0.24680199999988872
247,4,0.2,0.125,35.0,1,1.0,0.4263020000000779
248,4,0.2,0.0,35.0,-1,0.0,0.2704020000001037
249,4,0.2,0.0625,35.0,1,1.0,0.17320199999994657
250,4,0.2,1.0,-35.0,-1,1.0,0.246902000000091
251,4,0.8,0.0625,-35.0,1,0.0,0.09030199999983779
252,4,0.8,0.0,-35.0,-1,1.0,0.48350200000004406
253,4,0.8,0.125,-35.0,-1,1.0,0.31000200000016775
254,4,0.8,1.0,-35.0,-1,1.0,0.22390200000018012
255,4,0.8,0.0625,-35.0,-1,1.0,0.5736019999999371
256,4,0.8,0.25,-35.0,1,0.0,0.11030200000027435
257,4,0.8,0.25,35.0,1,1.0,0.28020200000014484
258,4,0.8,1.0,-35.0,-1,1.0,0.16030200000022887
259,4,0.8,0.0625,-35.0,-1,1.0,0.25030199999991964
260,4,0.8,0.0625,-35.0,-1,1.0,0.21140199999990728
261,4,0.8,0.0625,-35.0,-1,1.0,0.10400200000003679
262,4,0.8,0.25,-35.0,-1,1.0,0.22720200000003388
263,4,0.8,1.0,-35.0,-1,1.0,0.07790199999976721
264,4,0.8,0.125,35.0,-1,0.0,0.1139020000000528
265,4,0.8,1.0,-35.0,-1,1.0,0.20420199999989563
266,4,0.8,0.125,35.0,-1,0.0,0.07430200000021614
267,4,0.8,0.25,-35.0,-1,1.0,0.20420199999989563
268,4,0.8,1.0,-35.0,-1,1.0,0.1843020000001161
269,4,0.8,0.125,-35.0,-1,1.0,0.3249020000000655
270,4,0.8,0.125,-35.0,-1,1.0,0.22130199999992328
271,4,0.8,1.0,-35.0,-1,1.0,0.21150099999999838
272,4,0.8,1.0,35.0,1,1.0,0.28460199999994984
273,4,0.8,0.0625,-35.0,-1,1.0,0.22200200000020232
274,4,0.8,1.0,-35.0,-1,1.0,0.19870200000013938
275,4,0.8,1.0,35.0,1,1.0,0.2649020000001201
276,4,0.8,0.25,-35.0,-1,1.0,0.2648019999999178
277,4,0.8,0.0625,-35.0,-1,1.0,4.238701999999876
278,4,0.8,0.125,-35.0,-1,1.0,0.16890200000011646
279,4,0.8,0.125,-35.0,-1,1.0,0.22200199999997494
280,4,0.8,0.125,-35.0,-1,1.0,0.18200200000001132
281,4,0.8,1.0,35.0,-1,0.0,0.1658020000002125
282,4,0.8,0.0,-35.0,1,0.0,0.3955020000000786
283,4,0.8,0.125,-35.0,-1,1.0,0.2490020000000186
284,4,0.8,0.125,-35.0,-1,1.0,0.5290019999999913
285,4,0.8,0.0625,-35.0,-1,1.0,3.8825020000001587
286,4,0.8,0.0625,-35.0,-1,1.0,0.16980200000011791
287,4,0.8,1.0,-35.0,-1,1.0,0.19900200000006407
288,4,0.8,0.125,-35.0,-1,1.0,0.2365020000002005
289,4,0.8,0.25,-35.0,-1,1.0,0.1860020000001441
290,4,0.8,0.25,-35.0,-1,1.0,0.24610200000006444
291,4,0.8,0.25,-35.0,-1,1.0,0.19950200000016594
292,4,0.8,0.125,-35.0,-1,1.0,0.19280200000025616
293,4,0.8,0.25,-35.0,-1,1.0,0.2795020000000932
294,4,0.8,0.0625,35.0,-1,0.0,0.1700020000000677
295,4,0.8,1.0,-35.0,-1,1.0,0.12310200000001714
296,4,0.8,1.0,-35.0,-1,1.0,0.1963020000000597
297,4,0.8,0.0,-35.0,-1,1.0,4.333101999999826
298,4,0.8,0.25,-35.0,-1,1.0,0.30310199999985343
299,4,0.8,1.0,-35.0,-1,1.0,0.1701020000000426
300,4,0.8,1.0,-35.0,-1,1.0,0.22660199999995712
301,4,0.8,0.0625,35.0,1,1.0,0.8764020000003256
302,4,0.8,1.0,-35.0,-1,1.0,0.1502020000000357
303,4,0.8,0.125,-35.0,-1,1.0,0.22350200000005316
304,4,0.8,0.0625,-35.0,-1,1.0,0.1906019999998989
305,4,0.8,0.0625,35.0,1,1.0,0.5336020000002009
306,4,0.8,0.0625,-35.0,-1,1.0,0.20710200000007717
307,4,0.8,1.0,-35.0,-1,1.0,0.18360200000006444
308,4,0.8,0.125,35.0,1,1.0,0.3072019999999611
309,4,0.8,0.25,-35.0,-1,1.0,0.16770199999996294
310,4,0.8,0.0,-35.0,-1,1.0,6.60770199999979
311,4,0.8,0.125,-35.0,-1,1.0,0.19750100000010207
312,4,0.8,0.125,-35.0,-1,1.0,0.19420199999990473
313,4,0.8,0.25,35.0,1,1.0,0.26420199999984106
314,4,0.8,1.0,35.0,1,1.0,0.4742020000001048
315,4,0.8,0.0625,-35.0,-1,1.0,0.18750199999999495
316,4,0.8,0.0625,-35.0,1,0.0,0.2978019999998196
317,4,0.8,0.125,-35.0,-1,1.0,0.40120200000001205
318,4,0.8,0.25,-35.0,-1,1.0,0.25140200000009827
319,4,0.8,0.0,-35.0,-1,1.0,0.18820200000027398
320,4,0.8,0.0,-35.0,-1,1.0,0.7812020000001212
321,4,0.8,1.0,-35.0,-1,1.0,0.19130200000017794
322,4,0.8,0.25,-35.0,-1,1.0,0.25820199999998295
323,4,0.8,1.0,-35.0,-1,1.0,0.20500200000014956
324,4,0.8,1.0,-35.0,-1,1.0,0.7918019999999615
325,4,0.8,0.0625,35.0,-1,0.0,0.16530200000011064
326,4,0.8,0.25,-35.0,-1,1.0,1.3282019999999193
327,4,0.8,1.0,-35.0,-1,1.0,0.18880200000012337
328,4,0.8,0.125,-35.0,1,0.0,0.6783020000000306
329,4,0.2,0.0625,35.0,-1,0.0,0.19850200000018958
330,4,0.2,1.0,-35.0,-1,1.0,0.2087019999999029
331,4,0.2,1.0,35.0,1,1.0,0.31880200000000514
332,4,0.2,1.0,35.0,1,1.0,0.27250200000003133
333,4,0.2,0.125,35.0,1,1.0,0.30880200000001423
334,4,0.2,0.25,35.0,1,1.0,0.32640200000014374
335,4,0.2,1.0,-35.0,-1,1.0,0.23240199999986544
336,4,0.2,0.0,35.0,1,1.0,0.45960199999990436
337,4,0.2,0.0,35.0,1,1.0,0.18230199999993602
338,4,0.2,0.25,35.0,1,1.0,0.4125020000001314
339,4,0.2,0.0625,35.0,-1,0.0,0.15640200000007098
340,4,0.2,0.0,-35.0,1,0.0,0.3798020000001543
341,4,0.2,0.125,35.0,1,1.0,0.4363020000000688
342,4,0.2,0.25,35.0,1,1.0,0.45280200000024706
343,4,0.2,0.0625,35.0,1,1.0,0.2694019999999
344,4,0.2,0.125,35.0,-1,0.0,0.16950200000019322
345,4,0.2,0.25,35.0,1,1.0,0.34320199999979195
346,4,0.2,0.0625,35.0,1,1.0,1.2034020000000965
347,4,0.2,0.125,-35.0,-1,1.0,0.2997020000000248
348,4,0.2,0.0,35.0,-1,0.0,0.6501019999998334
349,4,0.2,1.0,35.0,1,1.0,0.2165019999999913
350,4,0.2,1.0,35.0,1,1.0,0.2468020000001161
351,4,0.2,0.25,35.0,1,1.0,0.2533020000000761
352,4,0.2,0.125,35.0,-1,0.0,0.05720199999996112
353,4,0.2,0.125,35.0,1,1.0,0.20370200000002114
354,4,0.2,0.0,35.0,-1,0.0,0.6968020000001616
355,4,0.2,1.0,35.0,1,1.0,0.19040100000006532
356,4,0.2,1.0,35.0,1,1.0,0.370202000000063
357,4,0.2,0.25,35.0,1,1.0,1.6637020000000575
358,4,0.2,0.0,35.0,1,1.0,0.2104020000001583
359,4,0.2,0.0625,-35.0,-1,1.0,0.30040200000007644
360,4,0.2,0.125,35.0,1,1.0,0.2740019999998822
361,4,0.2,0.0625,35.0,1,1.0,0.5744019999999637
362,4,0.2,1.0,-35.0,-1,1.0,0.23420200000009572
363,4,0.2,1.0,35.0,1,1.0,0.6176020000000335
364,4,0.2,0.125,35.0,1,1.0,6.5275020000001405
365,4,0.8,0.0625,-35.0,-1,1.0,0.23770199999989927
366,4,0.8,0.0625,-35.0,-1,1.0,0.17780199999992874
367,4,0.8,0.0625,-35.0,-1,1.0,0.3314020000000255
368,4,0.8,0.0625,35.0,1,1.0,0.4046019999998407
369,4,0.8,0.0625,-35.0,-1,1.0,0.44150200000012774
370,4,0.8,0.0,-35.0,-1,1.0,0.9548019999999724
371,4,0.8,0.125,-35.0,1,0.0,2.774802000000136
372,4,0.8,0.125,35.0,1,1.0,0.5050020000001041
373,4,0.8,0.0625,-35.0,-1,1.0,0.48560200000019904
374,4,0.8,1.0,-35.0,-1,1.0,0.19510199999990618
375,4,0.8,0.0625,-35.0,-1,1.0,0.17530200000010154
376,4,0.8,1.0,35.0,1,1.0,0.5387020000000575
377,4,0.8,1.0,-35.0,-1,1.0,1.0385019999998804
378,4,0.8,0.125,35.0,1,1.0,0.868802000000187
379,4,0.8,0.125,35.0,-1,0.0,0.498602000000119
380,4,0.8,0.0625,-35.0,-1,1.0,0.3761020000001736
381,4,0.8,1.0,-35.0,-1,1.0,0.05260200000020632
382,4,0.8,0.0625,-35.0,-1,1.0,0.23940199999992728
383,4,0.8,0.125,-35.0,1,0.0,1.2824020000000473
384,4,0.8,0.125,35.0,-1,0.0,0.4991019999999935
385,4,0.8,0.125,-35.0,-1,1.0,0.3395020000000386
386,4,0.8,1.0,-35.0,-1,1.0,0.19960199999991346
387,4,0.8,0.0625,-35.0,1,0.0,0.6358020000000124
388,4,0.8,0.0625,-35.0,1,0.0,0.6359019999999873
389,4,0.8,0.125,35.0,1,1.0,0.6196019999999862
390,4,0.8,0.0625,-35.0,-1,1.0,0.2329019999999673
391,4,0.8,0.125,-35.0,-1,1.0,0.24960200000009536
392,4,0.8,1.0,-35.0,-1,1.0,0.18270200000006298
393,4,0.8,1.0,35.0,-1,0.0,0.19300199999997858
394,4,0.8,0.125,35.0,-1,0.0,0.6066019999998389
395,4,0.8,0.125,-35.0,-1,1.0,0.1865020000000186
396,4,0.8,0.25,-35.0,-1,1.0,0.13320199999998295
397,4,0.8,1.0,35.0,1,1.0,0.33670200000005934
398,4,0.8,0.25,-35.0,-1,1.0,0.20360200000004625
399,4,0.8,0.0625,-35.0,-1,1.0,0.3933020000001761
400,4,0.8,1.0,-35.0,-1,1.0,0.2501020000001972
401,4,0.8,0.0625,-35.0,-1,1.0,4.0637020000001485
402,4,0.8,0.0625,35.0,1,1.0,0.5940020000000459
403,4,0.8,0.0,-35.0,-1,1.0,0.250302000000147
404,4,0.8,0.25,-35.0,-1,1.0,0.17710199999987708
405,4,0.8,0.25,-35.0,-1,1.0,0.2410019999999804
406,4,0.8,0.125,-35.0,-1,1.0,0.2407020000000557
407,4,0.8,0.25,-35.0,-1,1.0,0.19390199999975266
408,4,0.8,1.0,-35.0,-1,1.0,0.2977009999999609
409,4,0.8,1.0,-35.0,-1,1.0,0.2046020000000226
410,4,0.8,0.0625,35.0,1,1.0,0.4147020000000339
411,4,0.8,1.0,-35.0,-1,1.0,0.22780200000011064
412,4,0.8,0.125,-35.0,-1,1.0,4.0008020000000215
413,4,0.8,0.0625,35.0,1,1.0,0.27770200000009027
414,4,0.8,0.0,-35.0,1,0.0,0.14490200000022924
415,4,0.8,0.0625,35.0,1,1.0,0.3149020000000746
416,4,0.8,0.25,-35.0,-1,1.0,0.30870200000003933
417,4,0.8,0.0625,-35.0,-1,1.0,3.711202000000185
418,4,0.8,0.25,-35.0,-1,1.0,0.18870200000014847
419,4,0.8,0.125,-35.0,-1,1.0,0.15510199999994256
420,4,0.8,0.0625,35.0,-1,0.0,0.11510199999997894
421,4,0.8,0.25,-35.0,-1,1.0,0.28880199999980505
422,4,0.8,0.125,-35.0,-1,1.0,4.0650020000000495
423,4,0.8,0.0,-35.0,-1,1.0,0.05860199999983706
424,4,0.8,0.125,-35.0,-1,1.0,0.19560200000000805
425,4,0.8,0.125,-35.0,-1,1.0,0.12230199999999058
426,4,0.8,0.125,35.0,1,1.0,0.4589020000000801
427,4,0.2,0.125,35.0,-1,0.0,0.17880200000013247
428,4,0.2,0.125,35.0,1,1.0,0.36290200000007644
429,4,0.2,1.0,35.0,1,1.0,0.30590200000006007
430,4,0.2,0.125,35.0,1,1.0,0.31240200000002005
431,4,0.2,0.0625,35.0,1,1.0,0.4891019999997752
432,4,0.2,1.0,-35.0,-1,1.0,0.25970200000028854
433,4,0.2,0.0625,-35.0,1,0.0,0.20920200000000477
434,4,0.2,0.0625,35.0,-1,0.0,0.23600200000009863
435,4,0.2,0.25,35.0,1,1.0,0.34290200000009463
436,4,0.2,1.0,35.0,1,1.0,0.20990200000005643
437,4,0.2,0.0,35.0,1,1.0,0.2829019999999218
438,4,0.2,0.25,35.0,1,1.0,0.2829019999999218
439,4,0.2,0.125,-35.0,-1,1.0,0.3499020000001565
440,4,0.2,1.0,35.0,1,1.0,0.24310200000013538
441,4,0.2,1.0,35.0,1,1.0,0.22690200000010918
442,4,0.2,1.0,-35.0,-1,1.0,0.35670200000004115
443,4,0.2,0.125,35.0,1,1.0,0.25060199999984434
444,4,0.2,1.0,-35.0,-1,1.0,0.2468020000001161
445,4,0.2,0.25,35.0,1,1.0,0.45390199999997094
446,4,0.2,0.25,35.0,-1,0.0,0.07390200000008917
447,4,0.2,0.125,35.0,1,1.0,0.3272020000001703
448,4,0.2,0.25,35.0,1,1.0,0.6739019999999982
449,4,0.2,0.0,35.0,1,1.0,0.46720200000004297
450,4,0.2,0.0625,35.0,1,1.0,0.6605019999999513
451,4,0.2,0.0625,-35.0,-1,1.0,0.3577020000000175
452,4,0.2,0.0625,35.0,1,1.0,0.2840019999998731
453,4,0.2,1.0,35.0,1,1.0,0.464102000000139
454,4,0.2,0.0,35.0,-1,0.0,4.907601999999997
455,4,0.2,0.0,35.0,1,1.0,0.5780019999999695
456,4,0.2,0.125,35.0,1,1.0,0.21770199999991746
457,4,0.2,0.25,-35.0,-1,1.0,0.40120200000001205
458,4,0.2,0.125,-35.0,-1,1.0,0.37120200000003933
459,4,0.2,0.0625,35.0,-1,0.0,0.1986010000002807
460,4,0.2,0.25,35.0,1,1.0,0.2449020000001383
461,4,0.2,1.0,-35.0,-1,1.0,0.2812019999998938
462,4,0.2,0.0625,35.0,1,1.0,0.371501999999964
463,4,0.2,0.125,35.0,1,1.0,0.2550019999998767
464,4,0.2,0.0625,35.0,1,1.0,0.22510200000010627
465,4,0.2,1.0,35.0,1,1.0,0.24200199999995675
466,4,0.2,0.25,35.0,1,1.0,0.26830199999994875
467,4,0.2,1.0,35.0,1,1.0,0.24510200000008808
468,4,0.2,1.0,35.0,1,1.0,0.268402000000151
469,4,0.2,0.125,35.0,1,1.0,0.4222019999999702
470,4,0.2,1.0,-35.0,-1,1.0,0.6525019999999131
471,4,0.2,0.0625,35.0,1,1.0,0.8655020000001059
472,4,0.2,0.25,35.0,1,1.0,0.36610200000018267
473,4,0.2,0.125,35.0,1,1.0,0.2221020000001772
474,4,0.2,0.125,35.0,1,1.0,0.30610200000000987
475,4,0.2,0.0625,35.0,1,1.0,0.392701999999872
476,4,0.2,0.25,35.0,1,1.0,0.8061020000002372
477,4,0.2,0.0,-35.0,1,0.0,0.30960200000026816
478,4,0.2,0.0,35.0,1,1.0,0.4991019999999935
479,4,0.2,0.125,35.0,1,1.0,0.23610199999984616
480,4,0.2,0.0,35.0,1,1.0,0.522501999999804
481,4,0.2,0.25,35.0,1,1.0,0.4427020000000539
482,4,0.2,0.0,35.0,-1,0.0,0.40320199999996476
483,4,0.2,0.0625,35.0,-1,0.0,0.5429019999999127
484,4,0.2,0.25,35.0,1,1.0,0.2601020000001881
485,4,0.2,0.0625,-35.0,1,0.0,0.14960199999995893
486,4,0.2,0.0625,35.0,1,1.0,0.2932020000000648
487,4,0.2,1.0,35.0,-1,0.0,0.10320200000001023
488,4,0.2,1.0,35.0,1,1.0,0.23670199999992292
489,4,0.2,0.125,35.0,1,1.0,0.19020199999999932
490,4,0.2,0.25,-35.0,-1,1.0,0.4236020000003009
491,4,0.2,0.0625,35.0,1,1.0,0.26020199999993565
492,4,0.2,0.0,35.0,1,1.0,0.26020199999993565
493,4,0.2,1.0,35.0,1,1.0,0.22020199999951728
494,4,0.2,0.0625,35.0,1,1.0,0.9240019999997457
495,4,0.2,1.0,-35.0,-1,1.0,0.20040199999994002
496,4,0.2,0.25,35.0,1,1.0,0.3803020000000288
497,4,0.2,0.125,35.0,1,1.0,0.420701999999892
498,4,0.2,0.125,35.0,1,1.0,0.3875019999995857
499,4,0.2,0.25,35.0,1,1.0,0.0742019999997865
500,4,0.2,0.125,35.0,1,1.0,0.35430200000018885
501,4,0.2,0.125,35.0,1,1.0,0.18760199999996985
502,4,0.2,0.0625,35.0,1,1.0,0.5016019999998207
503,4,0.2,1.0,-35.0,1,0.0,1.4177020000001903
504,4,0.2,0.0,35.0,-1,0.0,0.17130199999928664
505,4,0.2,1.0,-35.0,-1,1.0,0.20810200000005352
506,4,0.2,0.25,-35.0,-1,1.0,0.20770199999969918
507,4,0.2,0.125,35.0,1,1.0,0.3414020000000164
508,4,0.2,0.0625,35.0,1,1.0,0.6179019999995035
509,4,0.2,1.0,35.0,1,1.0,0.1946020000000317
510,4,0.2,0.0625,35.0,1,1.0,0.17840199999955075
511,4,0.2,1.0,35.0,1,1.0,0.22830199999998513
512,4,0.2,0.125,35.0,1,1.0,0.2183020000002216
513,4,0.2,0.25,35.0,1,1.0,0.23160199999983888
514,4,0.2,1.0,35.0,1,1.0,0.25830199999973047
515,4,0.2,0.0625,-35.0,-1,1.0,0.2886009999997441
516,4,0.2,0.125,-35.0,-1,1.0,0.3719019999998636
517,4,0.2,0.0,35.0,1,1.0,0.22860199999968245
518,4,0.2,0.125,-35.0,-1,1.0,0.07310199999983524
519,4,0.2,1.0,35.0,1,1.0,0.6422019999995427
520,4,0.2,0.0625,35.0,1,1.0,0.23560200000019904
521,4,0.2,1.0,-35.0,-1,1.0,4.988701999999648
522,4,0.2,0.0625,35.0,1,1.0,0.24250199999960387
523,4,0.8,1.0,-35.0,-1,1.0,0.04250199999978577
524,4,0.8,1.0,-35.0,-1,1.0,0.40970199999947
