trial_num,session_num,stim_probability_left,contrast,position,response_choice,trial_correct,reaction_time
1,16,0.5,0.5,-35.0,-1,1.0,1.1499000000000001
2,16,0.5,0.5,-35.0,1,0.0,11.1298
3,16,0.9,0.5,-35.0,1,0.0,8.437899999999996
4,16,0.9,0.5,-35.0,1,0.0,14.227500000000003
5,16,0.9,0.5,-35.0,0,0.0,48.0441
6,16,0.9,0.5,-35.0,0,0.0,51.456799000000004
7,16,0.9,0.5,-35.0,0,0.0,
8,16,0.9,0.5,-35.0,-1,1.0,0.23790000000002465
9,16,0.5,0.5,-35.0,-1,1.0,11.344899999999996
10,16,0.5,0.5,35.0,1,1.0,8.074100000000044
11,16,0.5,0.5,-35.0,-1,1.0,5.315400000000011
12,16,0.5,0.5,-35.0,-1,1.0,15.838800000000049
13,16,0.5,0.5,35.0,1,1.0,1.9365000000000236
14,16,0.5,1.0,-35.0,1,0.0,18.71180000000004
15,16,0.6,1.0,35.0,1,1.0,5.557799999999986
16,16,0.5,0.5,-35.0,-1,1.0,0.5316000000000258
17,16,0.5,1.0,35.0,1,1.0,3.0265999999999735
18,16,0.5,1.0,-35.0,-1,1.0,11.557200000000023
19,16,0.5,1.0,35.0,1,1.0,0.7317000000000462
20,16,0.5,1.0,-35.0,-1,1.0,1.4014000000000237
21,16,0.5,0.5,-35.0,-1,1.0,20.768500000000017
22,16,0.5,1.0,-35.0,1,0.0,4.2427000000000135
23,16,0.6,1.0,-35.0,0,0.0,59.94369999999998
24,16,0.6,1.0,35.0,0,0.0,51.803999999999974
25,16,0.6,1.0,35.0,1,1.0,22.93880000000013
26,16,0.5,0.5,35.0,1,1.0,5.624400000000037
27,16,0.5,1.0,-35.0,-1,1.0,1.5203000000001339
28,16,0.5,1.0,35.0,-1,0.0,53.47260000000006
29,16,0.6,1.0,-35.0,-1,1.0,0.4490000000000691
30,16,0.5,0.5,35.0,0,0.0,59.94760000000008
31,16,0.6,0.5,-35.0,-1,1.0,0.27480000000002747
32,16,0.5,1.0,-35.0,-1,1.0,0.294399999999996
33,16,0.5,0.5,35.0,1,1.0,24.749799999999937
34,16,0.5,0.5,35.0,1,1.0,49.95330000000001
35,16,0.5,0.5,-35.0,1,0.0,11.664499999999975
36,16,0.5,0.5,35.0,1,1.0,0.4275000000000091
37,16,0.5,1.0,35.0,1,1.0,21.66680000000008
38,16,0.5,0.5,35.0,1,1.0,0.7176999999999225
39,16,0.5,0.5,35.0,1,1.0,6.930600000000027
40,16,0.5,0.5,-35.0,-1,1.0,0.471300000000042
41,16,0.5,1.0,-35.0,1,0.0,4.459500000000048
42,16,0.8,1.0,35.0,1,1.0,0.375
43,16,0.5,1.0,-35.0,-1,1.0,7.082100000000082
44,16,0.5,0.5,35.0,1,1.0,5.45659999999998
45,16,0.5,0.5,35.0,1,1.0,0.09930000000008476
46,16,0.5,0.5,-35.0,-1,1.0,26.70650000000012
47,16,0.5,0.5,35.0,1,1.0,14.987799999999993
48,16,0.5,1.0,35.0,1,1.0,0.42650000000003274
49,16,0.5,1.0,-35.0,-1,1.0,18.074100000000044
50,16,0.5,0.5,35.0,-1,0.0,8.085700000000088
51,16,0.6,0.5,35.0,1,1.0,8.432500000000005
52,16,0.5,0.5,-35.0,-1,1.0,47.83699999999999
53,16,0.5,0.5,-35.0,-1,1.0,15.571199999999862
54,16,0.5,0.5,-35.0,-1,1.0,5.5779999999999745
55,16,0.5,1.0,-35.0,-1,1.0,18.194899999999734
56,16,0.5,0.5,-35.0,-1,1.0,17.101899999999887
57,16,0.5,0.5,-35.0,-1,1.0,0.6357000000000426
58,16,0.5,1.0,-35.0,-1,1.0,54.46259999999984
59,16,0.5,0.5,35.0,1,1.0,12.87969999999973
60,16,0.5,1.0,-35.0,-1,1.0,0.4036999999998443
61,16,0.5,0.5,35.0,1,1.0,17.830600000000004
62,16,0.5,1.0,-35.0,-1,1.0,10.107299999999896
63,16,0.5,0.5,-35.0,-1,1.0,20.820999999999913
64,16,0.5,0.5,35.0,-1,0.0,15.137699999999768
65,16,0.2,0.5,35.0,1,1.0,0.5182999999999538
66,16,0.5,1.0,35.0,1,1.0,10.585000000000036
67,16,0.5,1.0,35.0,1,1.0,6.66190000000006
68,16,0.5,0.5,-35.0,-1,1.0,9.39879999999971
69,16,0.5,0.5,35.0,1,1.0,28.645899999999983
70,16,0.5,1.0,-35.0,-1,1.0,27.826100000000224
71,16,0.5,1.0,35.0,1,1.0,0.2264999999997599
72,16,0.5,0.5,35.0,1,1.0,5.157199999999875
73,16,0.5,1.0,-35.0,-1,1.0,0.6569999999999254
74,16,0.5,1.0,-35.0,-1,1.0,7.173999999999978
75,16,0.5,1.0,35.0,1,1.0,20.616999999999734
76,16,0.5,0.5,-35.0,-1,1.0,17.380999999999858
77,16,0.5,1.0,35.0,1,1.0,0.3647999999998319
78,16,0.5,1.0,35.0,1,1.0,13.9849999999999
79,16,0.5,1.0,35.0,1,1.0,9.478199999999788
80,16,0.5,1.0,-35.0,-1,1.0,21.311499999999796
81,16,0.5,0.5,-35.0,-1,1.0,9.765300000000025
82,16,0.5,0.5,35.0,1,1.0,6.142700000000104
83,16,0.5,0.5,35.0,1,1.0,0.4721999999999298
84,16,0.5,0.5,-35.0,1,0.0,17.252499999999827
85,16,0.7,0.5,-35.0,1,0.0,6.16619999999989
86,16,0.7,0.5,35.0,1,1.0,0.5235000000000127
87,16,0.5,1.0,-35.0,-1,1.0,11.52949999999987
88,16,0.5,1.0,35.0,1,1.0,10.07309999999984
89,16,0.5,1.0,35.0,1,1.0,11.900100000000066
90,16,0.5,0.5,-35.0,-1,1.0,1.410499999999729
91,16,0.5,1.0,-35.0,-1,1.0,15.240299999999706
92,16,0.5,1.0,35.0,1,1.0,7.874000000000024
93,16,0.5,1.0,-35.0,1,0.0,11.88760000000002
94,16,0.7,1.0,-35.0,-1,1.0,0.4178999999996904
95,16,0.5,0.5,-35.0,-1,1.0,0.5812999999998283
96,16,0.5,1.0,35.0,1,1.0,1.5544999999997344
97,16,0.5,0.5,35.0,1,1.0,14.721299999999928
98,16,0.5,0.5,-35.0,-1,1.0,17.774999999999864
99,16,0.5,0.5,35.0,1,1.0,0.7454000000000178
100,16,0.5,0.5,-35.0,-1,1.0,0.24530000000004293
101,16,0.5,1.0,-35.0,-1,1.0,0.9352999999998701
102,16,0.5,1.0,-35.0,-1,1.0,0.3954999999998563
103,16,0.5,0.5,35.0,1,1.0,6.62949999999978
104,16,0.5,1.0,-35.0,-1,1.0,7.21569999999997
105,16,0.5,1.0,35.0,1,1.0,0.682399999999916
106,16,0.5,0.5,35.0,1,1.0,0.27359999999998763
107,16,0.5,0.5,-35.0,1,0.0,14.719299999999748
108,16,0.5,0.5,-35.0,1,0.0,0.11019999999984975
109,16,0.6,0.5,35.0,1,1.0,0.5466999999998734
110,16,0.5,0.5,35.0,1,1.0,0.6164999999998599
111,16,0.5,0.5,35.0,1,1.0,8.393599999999878
112,16,0.5,0.5,-35.0,1,0.0,7.953399999999874
113,16,0.9,0.5,35.0,1,1.0,0.563499999999749
114,16,0.5,0.5,35.0,1,1.0,4.8702999999998156
115,16,0.5,1.0,-35.0,-1,1.0,13.72389999999973
116,16,0.5,0.5,35.0,1,1.0,5.550599999999804
117,16,0.5,1.0,35.0,1,1.0,9.040899999999965
118,16,0.5,1.0,-35.0,-1,1.0,0.29099999999994
119,16,0.5,1.0,35.0,1,1.0,10.12130000000002
120,16,0.5,0.5,35.0,1,1.0,3.2345000000000255
121,16,0.5,1.0,35.0,1,1.0,4.03469999999993
122,16,0.5,0.5,35.0,1,1.0,4.192199999999957
123,16,0.5,1.0,35.0,1,1.0,12.322099999999637
124,16,0.5,1.0,-35.0,-1,1.0,0.8054999999999382
125,16,0.5,1.0,35.0,1,1.0,4.905599999999822
126,16,0.5,0.5,35.0,1,1.0,8.468699999999899
127,16,0.5,1.0,-35.0,-1,1.0,0.5024000000000797
128,16,0.5,1.0,-35.0,-1,1.0,0.24559999999996762
129,16,0.5,1.0,35.0,1,1.0,1.4057999999999993
130,16,0.5,0.5,35.0,1,1.0,2.169199999999819
131,16,0.5,1.0,-35.0,1,0.0,5.052500000000009
132,16,0.7,1.0,-35.0,-1,1.0,0.5492999999999029
133,16,0.5,0.5,-35.0,-1,1.0,11.286299999999983
134,16,0.5,0.5,35.0,1,1.0,0.6565999999997985
135,16,0.5,1.0,-35.0,-1,1.0,5.36669999999981
136,16,0.5,1.0,-35.0,-1,1.0,8.166699999999992
137,16,0.5,1.0,-35.0,1,0.0,3.8000989999998183
138,16,0.5,1.0,35.0,1,1.0,0.5699999999999363
139,16,0.5,0.5,35.0,-1,0.0,0.6035999999999149
140,16,0.5,0.5,35.0,1,1.0,0.6167000000000371
141,16,0.5,0.5,35.0,1,1.0,8.69369999999958
142,16,0.5,0.5,-35.0,-1,1.0,0.4238000000000284
143,16,0.5,0.5,-35.0,-1,1.0,1.187400000000025
144,16,0.5,1.0,35.0,1,1.0,5.3577000000000226
145,16,0.5,1.0,-35.0,-1,1.0,0.2442999999998392
146,16,0.5,1.0,35.0,-1,0.0,1.3574999999998454
147,16,0.5,1.0,-35.0,-1,1.0,0.537599999999884
148,16,0.5,0.5,35.0,1,1.0,13.907599999999775
149,16,0.5,1.0,-35.0,-1,1.0,6.471499999999878
150,16,0.5,0.5,-35.0,-1,1.0,6.544599999999946
151,16,0.5,0.5,35.0,1,1.0,7.964799999999968
152,16,0.5,0.5,-35.0,1,0.0,9.411699999999882
153,16,0.4,0.5,35.0,1,1.0,0.45859999999993306
154,16,0.5,0.5,-35.0,-1,1.0,0.5152000000000498
155,16,0.5,1.0,35.0,1,1.0,6.668599999999969
156,16,0.5,0.5,35.0,1,1.0,12.33569999999986
157,16,0.5,1.0,-35.0,-1,1.0,6.172800000000052
158,16,0.5,1.0,35.0,1,1.0,0.5525000000002365
159,16,0.5,1.0,35.0,1,1.0,8.37920000000031
160,16,0.5,1.0,-35.0,-1,1.0,20.483200000000124
161,16,0.5,0.5,35.0,1,1.0,10.893500000000586
162,16,0.5,1.0,-35.0,-1,1.0,0.3999000000003434
163,16,0.5,1.0,-35.0,-1,1.0,2.8440999999997985
164,16,0.5,1.0,-35.0,-1,1.0,4.53690000000006
165,16,0.5,1.0,-35.0,-1,1.0,0.32029999999986103
166,16,0.5,1.0,-35.0,-1,1.0,12.093899999999849
167,16,0.5,1.0,-35.0,-1,1.0,4.910700000000361
168,16,0.5,1.0,35.0,1,1.0,0.3240000000000691
169,16,0.5,0.5,35.0,1,1.0,0.6040000000002692
170,16,0.5,0.5,35.0,1,1.0,14.177599999999984
171,16,0.5,1.0,-35.0,-1,1.0,6.724300000000312
172,16,0.5,0.5,-35.0,1,0.0,25.86790000000019
173,16,0.4,0.5,35.0,1,1.0,0.9951999999998407
174,16,0.5,0.5,35.0,1,1.0,4.498499999999694
175,16,0.5,0.5,-35.0,1,0.0,2.8119000000001506
176,16,0.7,0.5,35.0,1,1.0,0.4852000000000771
177,16,0.5,1.0,-35.0,-1,1.0,5.125300000000152
178,16,0.5,1.0,-35.0,-1,1.0,0.4855000000002292
179,16,0.5,0.5,-35.0,-1,1.0,0.27930000000014843
180,16,0.5,1.0,-35.0,-1,1.0,0.4193000000000211
181,16,0.5,1.0,35.0,1,1.0,0.4492000000000189
182,16,0.5,1.0,-35.0,-1,1.0,0.18600000000014916
183,16,0.5,0.5,35.0,1,1.0,6.409100000000308
184,16,0.5,0.5,-35.0,1,0.0,5.745900000000347
185,16,0.5,0.5,-35.0,-1,1.0,0.7127000000000407
186,16,0.5,0.5,-35.0,-1,1.0,7.479400000000169
187,16,0.5,0.5,35.0,1,1.0,0.3698000000003958
188,16,0.5,0.5,-35.0,-1,1.0,18.43679999999995
189,16,0.5,0.5,-35.0,-1,1.0,3.3933999999999287
190,16,0.5,1.0,-35.0,-1,1.0,0.2767999999996391
191,16,0.5,1.0,35.0,1,1.0,0.4004000000004453
192,16,0.5,0.5,-35.0,-1,1.0,0.5172000000002299
193,16,0.5,0.5,-35.0,-1,1.0,3.9304000000001906
194,16,0.5,0.5,-35.0,-1,1.0,0.2806000000000495
195,16,0.5,1.0,-35.0,-1,1.0,4.277100000000246
196,16,0.5,0.5,35.0,1,1.0,4.034100000000308
197,16,0.5,0.5,-35.0,1,0.0,20.711100000000442
198,16,0.3,0.5,35.0,1,1.0,0.6911999999997533
199,16,0.5,1.0,35.0,1,1.0,2.21120000000019
200,16,0.5,0.5,35.0,1,1.0,0.4117000000005646
201,16,0.5,1.0,-35.0,-1,1.0,17.521900000000187
202,16,0.5,1.0,35.0,1,1.0,12.481700000000274
203,16,0.5,0.5,35.0,1,1.0,0.5587000000000444
204,16,0.5,1.0,-35.0,1,0.0,1.8454000000001543
205,16,0.8,1.0,-35.0,-1,1.0,0.8654999999998836
206,16,0.5,1.0,-35.0,-1,1.0,8.425500000000284
207,16,0.5,0.5,-35.0,-1,1.0,5.532799999999952
208,16,0.5,1.0,-35.0,-1,1.0,3.699800000000323
209,16,0.5,1.0,-35.0,-1,1.0,9.699300000000221
210,16,0.5,1.0,-35.0,1,0.0,9.023299999999836
211,16,0.4,1.0,35.0,1,1.0,0.5032999999998538
212,16,0.5,1.0,-35.0,-1,1.0,5.016799999999876
213,16,0.5,1.0,35.0,1,1.0,3.503600000000006
214,16,0.5,1.0,35.0,1,1.0,6.250299999999697
215,16,0.5,1.0,-35.0,-1,1.0,6.770300000000134
216,16,0.5,0.5,-35.0,-1,1.0,9.107100000000173
217,16,0.5,0.5,35.0,1,1.0,0.5937999999996464
218,16,0.5,1.0,35.0,1,1.0,7.427400000000489
219,16,0.5,1.0,-35.0,1,0.0,6.870800000000145
220,16,0.7,1.0,35.0,1,1.0,0.4944000000004962
221,16,0.5,1.0,-35.0,-1,1.0,14.36120000000028
222,16,0.5,1.0,35.0,1,1.0,18.74160000000029
223,16,0.5,1.0,35.0,1,1.0,5.844900000000052
224,16,0.5,0.5,-35.0,-1,1.0,4.675400000000536
225,16,0.5,1.0,-35.0,-1,1.0,0.585399999999936
226,16,0.5,1.0,-35.0,1,0.0,12.311999999999898
227,16,0.7,1.0,-35.0,-1,1.0,0.30250000000023647
228,16,0.5,0.5,-35.0,-1,1.0,9.05560000000014
229,16,0.5,0.5,35.0,1,1.0,11.17910000000029
230,16,0.5,1.0,-35.0,1,0.0,8.026500000000397
231,16,0.5,1.0,35.0,1,1.0,0.576600000000326
232,16,0.5,1.0,-35.0,1,0.0,9.529599999999846
233,16,0.6,1.0,35.0,1,1.0,0.3999000000003434
234,16,0.5,0.5,-35.0,1,0.0,5.093199999999797
235,16,0.7,0.5,-35.0,-1,1.0,0.35379999999986467
236,16,0.5,1.0,-35.0,-1,1.0,18.480000000000018
237,16,0.5,1.0,-35.0,-1,1.0,11.173800000000483
238,16,0.5,1.0,35.0,1,1.0,0.8242000000000189
239,16,0.5,0.5,-35.0,-1,1.0,8.107600000000275
240,16,0.5,1.0,35.0,1,1.0,8.701399999999921
241,16,0.5,0.5,-35.0,1,0.0,8.144600000000537
242,16,0.6,0.5,35.0,1,1.0,0.42459999999982756
243,16,0.5,1.0,-35.0,1,0.0,2.551600000000235
244,16,0.6,1.0,-35.0,1,0.0,12.309299999999894
245,16,0.6,1.0,35.0,1,1.0,0.32600000000002183
246,16,0.5,0.5,35.0,1,1.0,34.666099999999915
247,16,0.5,0.5,35.0,1,1.0,6.056800000000294
248,16,0.5,1.0,35.0,1,1.0,0.473700000000008
249,16,0.5,1.0,35.0,1,1.0,0.360700000000179
250,16,0.5,1.0,35.0,1,1.0,0.3840000000004693
251,16,0.5,1.0,35.0,1,1.0,0.40039999999999054
252,16,0.5,0.5,-35.0,-1,1.0,0.5939000000003034
253,16,0.5,0.5,35.0,1,1.0,0.687300000000505
254,16,0.5,0.5,35.0,1,1.0,0.5473000000001775
255,16,0.5,1.0,35.0,1,1.0,0.5506999999997788
256,16,0.5,1.0,-35.0,1,0.0,6.72400000000016
257,16,0.9,1.0,-35.0,-1,1.0,0.2677990000001955
258,16,0.5,0.5,-35.0,-1,1.0,0.257600000000366
259,16,0.5,1.0,35.0,1,1.0,16.014400000000023
260,16,0.5,0.5,-35.0,1,0.0,8.388100000000122
261,16,0.7,0.5,-35.0,-1,1.0,0.28150000000005093
262,16,0.5,0.5,-35.0,-1,1.0,6.768299999999726
263,16,0.5,0.5,-35.0,-1,1.0,1.211699999999837
264,16,0.5,1.0,-35.0,-1,1.0,0.9085999999997512
265,16,0.5,0.5,-35.0,-1,1.0,0.32860000000027867
266,16,0.5,0.5,-35.0,-1,1.0,1.521900000000187
267,16,0.5,0.5,-35.0,1,0.0,0.9421000000002095
268,16,0.3,0.5,-35.0,1,0.0,8.952099999999973
269,16,0.4,0.5,35.0,1,1.0,0.42889999999988504
270,16,0.5,1.0,35.0,1,1.0,6.992300000000341
271,16,0.5,0.5,35.0,1,1.0,0.37590000000000146
272,16,0.5,0.5,35.0,1,1.0,0.4092000000000553
273,16,0.5,1.0,35.0,1,1.0,0.39589999999998327
274,16,0.5,1.0,35.0,1,1.0,0.38599999999996726
275,16,0.5,1.0,35.0,1,1.0,2.9492000000004737
276,16,0.5,1.0,-35.0,-1,1.0,9.232800000000225
277,16,0.5,1.0,-35.0,-1,1.0,1.0928000000003522
278,16,0.5,0.5,35.0,1,1.0,0.4897999999998319
279,16,0.5,1.0,35.0,1,1.0,8.733100000000377
280,16,0.5,0.5,-35.0,1,0.0,9.770100000000184
281,16,0.8,0.5,-35.0,-1,1.0,4.203500000000531
282,16,0.5,1.0,-35.0,-1,1.0,0.28710000000000946
283,16,0.5,1.0,35.0,1,1.0,0.3370999999997366
284,16,0.5,1.0,-35.0,1,0.0,1.9271000000003369
285,16,0.6,1.0,35.0,1,1.0,5.210599999999886
286,16,0.5,0.5,-35.0,-1,1.0,0.3041000000002896
287,16,0.5,0.5,35.0,1,1.0,28.160699000000477
288,16,0.5,1.0,-35.0,-1,1.0,2.504599999999755
289,16,0.5,1.0,35.0,1,1.0,0.8875000000002728
290,16,0.5,0.5,35.0,1,1.0,34.97050000000036
291,16,0.5,0.5,-35.0,-1,1.0,6.721200000000408
292,16,0.5,0.5,35.0,1,1.0,0.6015999999999622
293,16,0.5,0.5,35.0,1,1.0,0.14510000000063883
294,16,0.5,1.0,35.0,1,1.0,9.212099999999737
295,16,0.5,0.5,-35.0,-1,1.0,0.49210000000039145
296,16,0.5,1.0,-35.0,-1,1.0,0.8490000000001601
297,16,0.5,0.5,-35.0,-1,1.0,0.4262000000003354
298,16,0.5,0.5,-35.0,-1,1.0,11.22230000000036
299,16,0.5,1.0,35.0,1,1.0,3.709400000000187
300,16,0.5,0.5,-35.0,-1,1.0,0.3763000000003558
301,16,0.5,0.5,-35.0,-1,1.0,8.7492000000002
302,16,0.5,1.0,35.0,1,1.0,0.36259900000004563
303,16,0.5,0.5,-35.0,-1,1.0,18.939200000000255
304,16,0.5,0.5,-35.0,-1,1.0,10.569700000000012
305,16,0.5,1.0,-35.0,-1,1.0,2.4634000000000924
306,16,0.5,0.5,-35.0,1,0.0,31.176600000000235
307,16,0.3,0.5,-35.0,-1,1.0,1.6473000000000866
308,16,0.5,1.0,35.0,-1,0.0,3.9841989999999896
309,16,0.3,1.0,35.0,1,1.0,7.587600000000293
310,16,0.5,1.0,35.0,1,1.0,4.120900000000347
311,16,0.5,1.0,-35.0,-1,1.0,30.277800000000298
312,16,0.5,0.5,-35.0,-1,1.0,18.822000000000116
313,16,0.5,0.5,-35.0,-1,1.0,2.8987999999999374
314,16,0.5,0.5,35.0,1,1.0,5.3390000000003965
315,16,0.5,0.5,-35.0,-1,1.0,0.31570000000010623
1,17,0.5,0.5,35.0,-1,0.0,5.2898
2,17,0.9,0.5,-35.0,-1,1.0,9.0089
3,17,0.5,0.5,-35.0,-1,1.0,0.35350000000000037
4,17,0.5,0.5,-35.0,-1,1.0,0.27830000000000155
5,17,0.5,1.0,-35.0,-1,1.0,1.8109000000000002
6,17,0.5,1.0,35.0,1,1.0,0.8034999999999997
7,17,0.5,1.0,-35.0,-1,1.0,0.3651000000000053
8,17,0.5,1.0,35.0,1,1.0,0.7354000000000056
9,17,0.5,1.0,35.0,-1,0.0,1.8739000000000061
10,17,0.3,1.0,35.0,1,1.0,2.151900000000005
11,17,0.5,0.5,35.0,1,1.0,0.26310000000000144
12,17,0.5,0.5,35.0,-1,0.0,2.016900000000007
13,17,0.4,0.5,35.0,1,1.0,0.8238000000000056
14,17,0.5,0.5,-35.0,-1,1.0,0.27530000000000143
15,17,0.5,0.5,35.0,-1,0.0,0.5375000000000085
16,17,0.5,0.5,35.0,1,1.0,1.1096000000000146
17,17,0.5,0.5,-35.0,-1,1.0,0.8566000000000003
18,17,0.5,0.5,-35.0,-1,1.0,0.5804000000000116
19,17,0.5,0.5,-35.0,-1,1.0,0.494000000000014
20,17,0.5,1.0,-35.0,-1,1.0,0.40089999999999293
21,17,0.5,0.5,35.0,1,1.0,0.6649000000000029
22,17,0.5,0.5,35.0,-1,0.0,2.0936000000000092
23,17,0.3,0.5,35.0,1,1.0,0.7122000000000099
24,17,0.5,1.0,35.0,1,1.0,0.6915000000000049
25,17,0.5,0.5,-35.0,-1,1.0,0.2715000000000032
26,17,0.5,0.5,35.0,1,1.0,0.7768999999999977
27,17,0.5,1.0,-35.0,-1,1.0,0.27649999999999864
28,17,0.5,1.0,-35.0,-1,1.0,0.2842990000000043
29,17,0.5,1.0,-35.0,-1,1.0,0.255299999999977
30,17,0.5,0.5,35.0,1,1.0,0.20810000000000173
31,17,0.5,1.0,35.0,1,1.0,0.6383999999999901
32,17,0.5,1.0,35.0,-1,0.0,0.21760000000000446
33,17,0.5,1.0,35.0,1,1.0,0.3353999999999928
34,17,0.5,0.5,-35.0,-1,1.0,0.2755999999999972
35,17,0.5,0.5,-35.0,-1,1.0,0.2574999999999932
36,17,0.5,0.5,-35.0,-1,1.0,0.27949999999998454
37,17,0.5,0.5,35.0,1,1.0,0.29349999999999454
38,17,0.5,0.5,35.0,1,1.0,3.8315999999999804
39,17,0.5,0.5,-35.0,-1,1.0,0.2646000000000015
40,17,0.5,0.5,35.0,1,1.0,0.49269999999998504
41,17,0.5,0.5,-35.0,-1,1.0,0.2786999999999864
42,17,0.5,1.0,35.0,1,1.0,0.7484999999999786
43,17,0.5,0.5,-35.0,-1,1.0,0.2866999999999962
44,17,0.5,0.5,-35.0,-1,1.0,0.4668999999999812
45,17,0.5,0.5,-35.0,-1,1.0,0.38479999999998427
46,17,0.5,0.5,-35.0,-1,1.0,0.9467999999999961
47,17,0.5,1.0,-35.0,-1,1.0,0.370900000000006
48,17,0.5,0.5,35.0,1,1.0,0.3088999999999942
49,17,0.5,1.0,-35.0,-1,1.0,0.23689999999999145
50,17,0.5,0.5,-35.0,-1,1.0,0.3383999999999787
51,17,0.5,0.5,-35.0,-1,1.0,0.2699999999999818
52,17,0.5,0.5,35.0,1,1.0,0.8641000000000076
53,17,0.5,1.0,35.0,1,1.0,2.0638999999999896
54,17,0.5,1.0,-35.0,-1,1.0,0.217899999999986
55,17,0.5,1.0,-35.0,-1,1.0,0.4241999999999848
56,17,0.5,0.5,35.0,1,1.0,0.4333999999999776
57,17,0.5,1.0,35.0,1,1.0,0.30809999999999604
58,17,0.5,0.5,35.0,-1,0.0,2.751199999999983
59,17,0.4,0.5,-35.0,-1,1.0,1.0802999999999656
60,17,0.5,1.0,35.0,1,1.0,0.7031000000000631
61,17,0.5,0.5,-35.0,-1,1.0,0.3428000000000111
62,17,0.5,0.5,-35.0,-1,1.0,0.4178999999999746
63,17,0.5,1.0,35.0,1,1.0,0.6043999999999983
64,17,0.5,1.0,-35.0,-1,1.0,0.3480000000000132
65,17,0.5,0.5,-35.0,-1,1.0,0.694500000000005
66,17,0.5,0.5,-35.0,-1,1.0,0.19510000000002492
67,17,0.5,1.0,35.0,1,1.0,0.2795000000000414
68,17,0.5,0.5,-35.0,1,0.0,0.11360000000001946
69,17,0.4,0.5,-35.0,-1,1.0,1.2635999999999967
70,17,0.5,1.0,35.0,1,1.0,0.6496999999999957
71,17,0.5,0.5,-35.0,-1,1.0,0.23059999999998126
72,17,0.5,0.5,-35.0,-1,1.0,0.32509999999996353
73,17,0.5,1.0,35.0,1,1.0,0.7047999999999774
74,17,0.5,1.0,35.0,1,1.0,0.46879999999998745
75,17,0.5,1.0,-35.0,-1,1.0,0.7760999999999854
76,17,0.5,1.0,35.0,1,1.0,0.5653999999999542
77,17,0.5,1.0,-35.0,-1,1.0,0.4253999999999678
78,17,0.5,0.5,-35.0,-1,1.0,0.24559999999996762
79,17,0.5,0.5,-35.0,-1,1.0,0.3048999999999751
80,17,0.5,1.0,-35.0,-1,1.0,0.34729999999996153
81,17,0.5,0.5,35.0,1,1.0,0.16889999999995098
82,17,0.5,1.0,35.0,1,1.0,0.6852000000000089
83,17,0.5,1.0,-35.0,-1,1.0,0.3580000000000041
84,17,0.5,0.5,35.0,1,1.0,1.0434999999999945
85,17,0.5,0.5,-35.0,-1,1.0,0.37599999999997635
86,17,0.5,1.0,-35.0,-1,1.0,0.2536999999999807
87,17,0.5,0.5,-35.0,1,0.0,-0.04160000000007358
88,17,0.4,0.5,35.0,1,1.0,0.2863999999999578
89,17,0.5,1.0,35.0,1,1.0,0.9280999999999722
90,17,0.5,0.5,-35.0,-1,1.0,0.2447999999999979
91,17,0.5,1.0,-35.0,1,0.0,0.046199999999942065
92,17,0.6,1.0,35.0,1,1.0,0.2308999999999628
93,17,0.5,0.5,-35.0,-1,1.0,0.44029999999997926
94,17,0.5,0.5,35.0,1,1.0,0.3654000000000224
95,17,0.5,1.0,-35.0,-1,1.0,0.5462999999999738
96,17,0.5,0.5,35.0,1,1.0,0.6737999999999715
97,17,0.5,1.0,-35.0,-1,1.0,0.06040000000001555
98,17,0.5,1.0,35.0,1,1.0,0.5392999999999688
99,17,0.5,1.0,-35.0,-1,1.0,0.14560000000000173
100,17,0.5,1.0,-35.0,-1,1.0,0.3154999999999859
101,17,0.5,1.0,35.0,1,1.0,0.9225000000000136
102,17,0.5,0.5,-35.0,-1,1.0,0.9791999999999916
103,17,0.5,1.0,35.0,1,1.0,0.37360000000001037
104,17,0.5,0.5,-35.0,1,0.0,0.5865999999999758
105,17,0.5,0.5,-35.0,-1,1.0,0.6685999999999694
106,17,0.5,1.0,35.0,1,1.0,0.34339999999997417
107,17,0.5,0.5,35.0,1,1.0,0.5517000000000394
108,17,0.5,0.5,35.0,1,1.0,0.494199999999978
109,17,0.5,0.5,35.0,1,1.0,0.5037999999999556
110,17,0.5,0.5,35.0,1,1.0,0.6179000000000201
111,17,0.5,0.5,35.0,1,1.0,0.5166999999999575
112,17,0.5,0.5,-35.0,-1,1.0,0.1710000000000491
113,17,0.5,0.5,-35.0,-1,1.0,0.2087999999999397
114,17,0.5,0.5,-35.0,-1,1.0,0.6575999999999453
115,17,0.5,1.0,35.0,1,1.0,0.28319999999996526
116,17,0.5,1.0,-35.0,-1,1.0,0.28769999999997253
117,17,0.5,0.5,35.0,1,1.0,0.5883000000000038
118,17,0.5,1.0,-35.0,1,0.0,0.12270000000000891
119,17,0.6,1.0,-35.0,-1,1.0,0.37299999999999045
120,17,0.5,0.5,35.0,1,1.0,0.719600000000014
121,17,0.5,1.0,-35.0,-1,1.0,0.5524000000000342
122,17,0.5,1.0,35.0,1,1.0,0.3003999999999678
123,17,0.5,1.0,35.0,-1,0.0,0.3606999999999516
124,17,0.5,1.0,-35.0,-1,1.0,0.29300000000000637
125,17,0.5,0.5,-35.0,-1,1.0,0.39840000000003783
126,17,0.5,1.0,35.0,1,1.0,0.48320000000001073
127,17,0.5,0.5,35.0,1,1.0,3.5312000000000126
128,17,0.5,1.0,35.0,1,1.0,0.4722000000000435
129,17,0.5,1.0,-35.0,-1,1.0,0.43240000000002965
130,17,0.5,1.0,-35.0,-1,1.0,0.3892000000000735
131,17,0.5,0.5,35.0,1,1.0,0.43049999999993815
132,17,0.5,1.0,-35.0,-1,1.0,0.45309999999994943
133,17,0.5,1.0,35.0,1,1.0,0.7934989999999971
134,17,0.5,0.5,-35.0,-1,1.0,0.6320000000000618
135,17,0.5,1.0,35.0,1,1.0,0.7344999999999118
136,17,0.5,0.5,-35.0,-1,1.0,0.2566999999999098
137,17,0.5,1.0,-35.0,-1,1.0,0.487700000000018
138,17,0.5,0.5,35.0,1,1.0,0.7622000000000071
139,17,0.5,0.5,-35.0,-1,1.0,0.22929999999996653
140,17,0.5,0.5,35.0,1,1.0,0.6517000000000053
141,17,0.5,1.0,35.0,1,1.0,0.4674999999999727
142,17,0.5,0.5,-35.0,-1,1.0,0.309099999999944
143,17,0.5,0.5,-35.0,-1,1.0,0.44029999999997926
144,17,0.5,1.0,-35.0,-1,1.0,0.27749999999991815
145,17,0.5,1.0,35.0,-1,0.0,0.4188000000000329
146,17,0.3,1.0,35.0,1,1.0,1.1048999999999296
147,17,0.5,0.5,35.0,1,1.0,0.9120000000000346
148,17,0.5,0.5,35.0,1,1.0,0.9795999999998912
149,17,0.5,1.0,-35.0,-1,1.0,0.2680000000000291
150,17,0.5,1.0,-35.0,-1,1.0,0.3503000000000611
151,17,0.5,0.5,35.0,1,1.0,0.266399999999976
152,17,0.5,0.5,35.0,-1,0.0,0.07369999999991705
153,17,0.4,0.5,-35.0,-1,1.0,0.35259899999994104
154,17,0.5,0.5,35.0,1,1.0,0.853200000000129
155,17,0.5,1.0,-35.0,-1,1.0,0.5031000000000176
156,17,0.5,0.5,-35.0,-1,1.0,1.205500000000029
157,17,0.5,0.5,35.0,1,1.0,0.6833000000000311
158,17,0.5,1.0,-35.0,-1,1.0,0.3383000000000038
159,17,0.5,0.5,-35.0,-1,1.0,0.20730000000003201
160,17,0.5,1.0,-35.0,-1,1.0,0.3890999999999849
161,17,0.5,1.0,35.0,1,1.0,0.5714999999999009
162,17,0.5,0.5,35.0,1,1.0,0.690599999999904
163,17,0.5,0.5,-35.0,-1,1.0,0.33619999999996253
164,17,0.5,1.0,35.0,-1,0.0,0.49099999999998545
165,17,0.3,1.0,-35.0,-1,1.0,0.23249999999995907
166,17,0.5,0.5,35.0,-1,0.0,6.258499999999913
167,17,0.3,0.5,-35.0,-1,1.0,0.4999000000000251
168,17,0.5,0.5,35.0,1,1.0,0.45499999999992724
169,17,0.5,1.0,35.0,1,1.0,0.38609999999994216
170,17,0.5,0.25,-35.0,-1,1.0,0.5518999999999323
171,17,0.5,1.0,-35.0,-1,1.0,0.4556999999999789
172,17,0.5,0.25,35.0,1,1.0,0.3006999999998925
173,17,0.5,1.0,-35.0,-1,1.0,0.25479999999993197
174,17,0.5,0.5,35.0,1,1.0,0.6662000000001171
175,17,0.5,1.0,35.0,-1,0.0,0.41269999999997253
176,17,0.4,1.0,-35.0,-1,1.0,0.3249000000000706
177,17,0.5,1.0,35.0,1,1.0,0.4557999999999538
178,17,0.5,0.25,35.0,1,1.0,0.8270999999999731
179,17,0.5,1.0,-35.0,-1,1.0,0.39389999999991687
180,17,0.5,1.0,35.0,1,1.0,0.2946000000000595
181,17,0.5,0.25,35.0,1,1.0,0.8000000000000682
182,17,0.5,0.25,-35.0,-1,1.0,0.36230000000000473
183,17,0.5,1.0,-35.0,-1,1.0,0.48869999999999436
184,17,0.5,1.0,35.0,1,1.0,0.5815000000000055
185,17,0.5,0.25,-35.0,-1,1.0,0.3531000000000404
186,17,0.5,1.0,-35.0,-1,1.0,0.3908000000000129
187,17,0.5,0.25,35.0,1,1.0,0.3081999999999425
188,17,0.5,0.5,35.0,1,1.0,0.32399999999995543
189,17,0.5,0.5,35.0,1,1.0,0.3342999999999847
190,17,0.5,1.0,35.0,1,1.0,0.7446999999999662
191,17,0.5,0.25,35.0,1,1.0,0.11029999999993834
192,17,0.5,0.25,-35.0,-1,1.0,0.5897999999999683
193,17,0.5,0.25,35.0,1,1.0,0.7866999999999962
194,17,0.5,0.25,-35.0,-1,1.0,0.529999999999859
195,17,0.5,1.0,35.0,1,1.0,0.3123999999999114
196,17,0.5,0.5,35.0,1,1.0,0.7817999999999756
197,17,0.5,1.0,-35.0,-1,1.0,0.311800000000062
198,17,0.5,1.0,35.0,1,1.0,0.8958999999998696
199,17,0.5,0.5,35.0,1,1.0,0.9564000000000306
200,17,0.5,0.5,35.0,1,1.0,0.34639999999990323
201,17,0.5,1.0,-35.0,-1,1.0,0.2576000000000249
202,17,0.5,0.5,35.0,-1,0.0,0.3186000000000604
203,17,0.5,0.25,-35.0,-1,1.0,0.43659999999999854
204,17,0.5,1.0,35.0,1,1.0,0.3486999999998943
205,17,0.5,0.5,-35.0,-1,1.0,0.43070000000000164
206,17,0.5,0.25,-35.0,-1,1.0,0.2766999999998916
207,17,0.5,0.25,35.0,1,1.0,0.3566999999999325
208,17,0.5,1.0,-35.0,-1,1.0,0.5454999999999472
209,17,0.5,1.0,-35.0,-1,1.0,0.6147999999999456
210,17,0.5,1.0,35.0,-1,0.0,0.5063999999999851
211,17,0.5,0.25,35.0,1,1.0,0.7438999999999396
212,17,0.5,1.0,-35.0,-1,1.0,0.2677999999999656
213,17,0.5,0.5,35.0,1,1.0,0.3089999999999691
214,17,0.5,0.25,-35.0,-1,1.0,0.43660000000011223
215,17,0.5,0.25,-35.0,-1,1.0,0.3827999999999747
216,17,0.5,0.5,-35.0,-1,1.0,0.4773000000000138
217,17,0.5,1.0,-35.0,-1,1.0,0.3707999999999174
218,17,0.5,1.0,35.0,1,1.0,0.2357000000000653
219,17,0.5,0.25,-35.0,-1,1.0,0.33320000000003347
220,17,0.5,1.0,35.0,1,1.0,0.4471999999999525
221,17,0.5,1.0,-35.0,-1,1.0,0.3969000000000733
222,17,0.5,1.0,35.0,1,1.0,0.2846000000000686
223,17,0.5,0.5,35.0,1,1.0,0.9093000000000302
224,17,0.5,0.5,-35.0,-1,1.0,0.49249999999995
225,17,0.5,0.5,-35.0,-1,1.0,0.5218999999999596
226,17,0.5,1.0,-35.0,-1,1.0,0.37390000000004875
227,17,0.5,0.5,-35.0,-1,1.0,0.24469999999996617
228,17,0.5,0.5,-35.0,-1,1.0,0.2139999999999418
229,17,0.5,0.5,35.0,-1,0.0,0.4617999999999256
230,17,0.5,0.25,-35.0,-1,1.0,0.4115000000000464
231,17,0.5,0.5,-35.0,-1,1.0,0.3994000000000142
232,17,0.5,0.5,-35.0,-1,1.0,0.20299999999997453
233,17,0.5,0.25,-35.0,-1,1.0,0.41800000000000637
234,17,0.5,0.5,-35.0,-1,1.0,0.4373000000000502
235,17,0.5,0.5,-35.0,-1,1.0,0.2676000000000158
236,17,0.5,0.25,35.0,1,1.0,0.838799999999992
237,17,0.5,0.5,-35.0,-1,1.0,0.6696999999999207
238,17,0.5,0.5,35.0,1,1.0,0.2583000000000766
239,17,0.5,0.25,35.0,1,1.0,0.5111000000000558
240,17,0.5,0.25,-35.0,-1,1.0,0.46499999999991815
241,17,0.5,1.0,35.0,1,1.0,0.35370000000000346
242,17,0.5,0.5,35.0,1,1.0,1.4151000000000522
243,17,0.5,0.25,-35.0,-1,1.0,0.32159999999998945
244,17,0.5,0.5,-35.0,1,0.0,0.1517999999998665
245,17,0.6,0.5,35.0,1,1.0,0.613800000000083
246,17,0.5,0.5,-35.0,-1,1.0,0.46870000000012624
247,17,0.5,0.5,-35.0,-1,1.0,0.373299999999972
248,17,0.5,0.25,35.0,-1,0.0,0.21900000000005093
249,17,0.5,0.25,35.0,-1,0.0,0.4707989999999427
250,17,0.5,1.0,-35.0,-1,1.0,0.2857000000001335
251,17,0.5,1.0,-35.0,-1,1.0,0.2862999999999829
252,17,0.5,0.5,-35.0,-1,1.0,0.612400000000207
253,17,0.5,0.5,-35.0,-1,1.0,0.3771999999999025
254,17,0.5,0.25,-35.0,-1,1.0,0.389299999999821
255,17,0.5,0.5,35.0,1,1.0,0.3011999999998807
256,17,0.5,0.25,-35.0,-1,1.0,0.6862999999998465
257,17,0.5,0.25,35.0,-1,0.0,0.49530000000004293
258,17,0.5,0.25,35.0,1,1.0,0.9027999999998428
259,17,0.5,0.25,-35.0,-1,1.0,0.13540000000011787
260,17,0.5,0.5,35.0,-1,0.0,0.279700000000048
261,17,0.5,0.25,-35.0,-1,1.0,0.6544000000001233
262,17,0.5,0.5,35.0,-1,0.0,1.0265000000001692
263,17,0.2,0.5,35.0,-1,0.0,0.7454999999999927
264,17,0.2,0.5,35.0,-1,0.0,0.4332000000001699
265,17,0.2,0.5,35.0,1,1.0,0.9275000000000091
266,17,0.5,1.0,35.0,1,1.0,1.0065999999999349
267,17,0.5,1.0,-35.0,-1,1.0,0.39560000000005857
268,17,0.5,0.5,-35.0,-1,1.0,0.4032999999999447
269,17,0.5,1.0,35.0,-1,0.0,0.4046000000000731
270,17,0.5,0.25,35.0,-1,0.0,0.5002999999999247
271,17,0.2,0.25,35.0,1,1.0,1.238700000000108
272,17,0.5,1.0,35.0,-1,0.0,0.4370000000001255
273,17,0.3,1.0,35.0,-1,0.0,0.34369999999989886
274,17,0.3,1.0,35.0,1,1.0,0.6703999999999724
275,17,0.5,0.5,35.0,1,1.0,0.4438000000000102
276,17,0.5,0.5,35.0,1,1.0,0.6438999999998032
277,17,0.5,0.25,35.0,1,1.0,0.5278000000000702
278,17,0.5,0.25,-35.0,-1,1.0,0.30739999999991596
279,17,0.5,1.0,35.0,1,1.0,0.6279000000001815
280,17,0.5,0.5,35.0,1,1.0,0.16410000000018954
281,17,0.5,1.0,-35.0,-1,1.0,0.24350000000004002
282,17,0.5,0.25,35.0,1,1.0,2.924199999999928
283,17,0.5,0.5,-35.0,-1,1.0,0.22739999999998872
284,17,0.5,0.5,35.0,-1,0.0,0.34770000000003165
285,17,0.6,0.5,-35.0,-1,1.0,0.3000999999999294
286,17,0.5,1.0,-35.0,-1,1.0,0.38779999999997017
287,17,0.5,0.5,-35.0,-1,1.0,0.29109999999991487
288,17,0.5,0.25,35.0,1,1.0,0.5145999999999731
289,17,0.5,1.0,-35.0,-1,1.0,0.302199999999857
290,17,0.5,0.25,35.0,1,1.0,0.5512999999998556
291,17,0.5,0.25,-35.0,-1,1.0,0.2401999999999589
292,17,0.5,0.5,35.0,1,1.0,3.8383000000001175
293,17,0.5,1.0,-35.0,-1,1.0,0.22630000000003747
294,17,0.5,1.0,-35.0,-1,1.0,0.25500000000010914
295,17,0.5,1.0,35.0,1,1.0,0.2882999999999356
296,17,0.5,0.5,35.0,-1,0.0,0.3251000000000204
297,17,0.4,0.5,35.0,1,1.0,0.6264000000001033
298,17,0.5,1.0,-35.0,-1,1.0,0.30199999999990723
299,17,0.5,1.0,-35.0,-1,1.0,0.46450000000004366
300,17,0.5,0.25,-35.0,-1,1.0,0.358600000000024
301,17,0.5,0.25,35.0,1,1.0,0.29759999999987485
302,17,0.5,0.25,-35.0,-1,1.0,1.0355000000001837
303,17,0.5,1.0,35.0,-1,0.0,0.6382999999998447
304,17,0.3,1.0,35.0,-1,0.0,0.4289000000001124
305,17,0.3,1.0,35.0,1,1.0,0.6893000000000029
306,17,0.5,1.0,35.0,1,1.0,0.6623999999999342
307,17,0.5,0.5,35.0,1,1.0,0.6397999999999229
308,17,0.5,0.5,-35.0,-1,1.0,0.46919999999977335
309,17,0.5,0.5,35.0,1,1.0,0.7113999999999123
310,17,0.5,1.0,-35.0,-1,1.0,0.21280000000001564
311,17,0.5,1.0,35.0,1,1.0,0.3268999999997959
312,17,0.5,0.25,35.0,-1,0.0,0.5661999999999807
313,17,0.5,0.25,-35.0,-1,1.0,0.5630000000001019
314,17,0.5,1.0,35.0,1,1.0,0.32960000000002765
315,17,0.5,0.25,-35.0,1,0.0,0.17099999999982174
316,17,0.6,0.25,35.0,1,1.0,1.1330000000000382
317,17,0.5,1.0,35.0,-1,0.0,0.26340000000004693
318,17,0.5,1.0,35.0,-1,0.0,0.23979999999983193
319,17,0.5,1.0,-35.0,-1,1.0,0.28310000000010405
320,17,0.5,0.5,-35.0,-1,1.0,0.35990000000015243
321,17,0.5,1.0,35.0,1,1.0,0.5682000000001608
322,17,0.5,0.25,-35.0,-1,1.0,0.5366999999998825
323,17,0.5,1.0,-35.0,-1,1.0,0.3491999999998825
324,17,0.5,0.25,35.0,1,1.0,0.453499999999849
325,17,0.5,0.25,35.0,1,1.0,0.761600000000044
326,17,0.5,0.5,-35.0,-1,1.0,0.5135999999999967
327,17,0.5,1.0,-35.0,-1,1.0,0.2682999999999538
328,17,0.5,0.5,35.0,1,1.0,0.04369999999994434
329,17,0.5,1.0,35.0,1,1.0,0.7833999999998014
330,17,0.5,1.0,-35.0,-1,1.0,0.36379999999985557
331,17,0.5,0.25,35.0,1,1.0,0.5864999999998872
332,17,0.5,1.0,-35.0,-1,1.0,0.3371999999999389
333,17,0.5,0.25,-35.0,-1,1.0,0.7615000000000691
334,17,0.5,1.0,35.0,1,1.0,0.4639999999999418
335,17,0.5,0.25,-35.0,-1,1.0,0.5305999999998221
336,17,0.5,0.5,35.0,-1,0.0,0.7808999999999742
337,17,0.4,0.5,-35.0,-1,1.0,0.5445999999997184
338,17,0.5,0.5,35.0,1,1.0,0.6976000000001932
339,17,0.5,1.0,35.0,1,1.0,0.4130000000000109
340,17,0.5,1.0,35.0,1,1.0,0.6243999999999232
341,17,0.5,1.0,35.0,1,1.0,0.4534000000001015
342,17,0.5,0.5,-35.0,-1,1.0,0.28109999999992397
343,17,0.5,0.5,35.0,-1,0.0,0.3848000000000411
344,17,0.5,0.5,-35.0,-1,1.0,0.3079000000000178
345,17,0.5,0.5,-35.0,-1,1.0,0.36590000000001055
346,17,0.5,0.25,-35.0,-1,1.0,0.2880000000000109
347,17,0.5,0.25,35.0,-1,0.0,0.44590000000016516
348,17,0.4,0.25,35.0,-1,0.0,1.0881000000001677
349,17,0.5,0.5,-35.0,-1,1.0,0.2740000000001146
350,17,0.5,1.0,35.0,1,1.0,0.4782999999999902
351,17,0.5,0.25,35.0,1,1.0,0.5769999999999982
352,17,0.5,1.0,-35.0,-1,1.0,0.43499999999994543
353,17,0.5,1.0,35.0,1,1.0,0.005199999999831562
354,17,0.5,0.25,35.0,1,1.0,0.5684999999998581
355,17,0.5,0.5,35.0,1,1.0,0.5730999999998403
356,17,0.5,0.25,35.0,1,1.0,0.7018000000000484
357,17,0.5,0.25,-35.0,-1,1.0,0.32819999999992433
358,17,0.5,0.5,35.0,1,1.0,0.4519999999999982
359,17,0.5,0.5,-35.0,-1,1.0,0.3912000000000262
360,17,0.5,1.0,-35.0,-1,1.0,0.2620999999999185
361,17,0.5,1.0,35.0,1,1.0,3.4942000000000917
362,17,0.5,0.5,35.0,1,1.0,0.3056000000001404
363,17,0.5,1.0,35.0,1,1.0,1.2114000000001397
364,17,0.5,0.25,-35.0,-1,1.0,0.27899999999999636
365,17,0.5,1.0,-35.0,-1,1.0,0.28909999999996217
366,17,0.5,0.25,-35.0,-1,1.0,8.139300000000048
367,17,0.5,0.25,-35.0,-1,1.0,0.20760000000018408
368,17,0.5,0.25,35.0,1,1.0,0.7663000000000011
369,17,0.5,0.25,-35.0,-1,1.0,0.2558000000001357
370,17,0.5,0.25,-35.0,-1,1.0,0.3864000000000942
371,17,0.5,1.0,-35.0,-1,1.0,0.2586999999998625
372,17,0.5,0.5,35.0,-1,0.0,4.669799999999896
373,17,0.2,0.5,35.0,-1,0.0,2.0199999999997544
374,17,0.1,0.5,-35.0,-1,1.0,10.816800000000057
375,17,0.5,1.0,35.0,1,1.0,5.583999999999833
376,17,0.5,0.25,-35.0,-1,1.0,0.4535999999998239
377,17,0.5,0.25,35.0,1,1.0,0.6829999999999927
378,17,0.5,0.25,35.0,-1,0.0,0.683699999999817
379,17,0.2,0.25,-35.0,-1,1.0,0.0038000000001829903
380,17,0.5,0.5,35.0,1,1.0,9.590400000000045
381,17,0.5,0.25,-35.0,-1,1.0,0.2981000000002041
382,17,0.5,0.25,35.0,1,1.0,0.34400000000005093
383,17,0.5,0.25,35.0,1,1.0,0.5101999999999407
384,17,0.5,0.25,-35.0,-1,1.0,0.5942000000000007
385,17,0.5,1.0,35.0,-1,0.0,0.3993000000000393
386,17,0.5,0.25,35.0,-1,0.0,4.404300000000148
387,17,0.5,0.25,35.0,1,1.0,0.6124999999999545
388,17,0.5,1.0,-35.0,-1,1.0,0.3109999999999218
389,17,0.5,0.25,-35.0,-1,1.0,0.44029999999997926
390,17,0.5,1.0,35.0,1,1.0,1.8944000000001324
391,17,0.5,0.5,35.0,1,1.0,0.7014000000001488
392,17,0.5,0.5,35.0,-1,0.0,11.287900000000036
393,17,0.5,0.25,-35.0,-1,1.0,0.7546000000002095
394,17,0.5,0.5,35.0,1,1.0,0.6582000000000789
395,17,0.5,0.5,-35.0,-1,1.0,0.3065999999998894
396,17,0.5,0.5,-35.0,-1,1.0,0.4281999999998334
397,17,0.5,0.5,35.0,1,1.0,0.9432000000001608
398,17,0.5,0.25,-35.0,-1,1.0,0.3750999999997475
399,17,0.5,1.0,35.0,1,1.0,0.9027000000000953
400,17,0.5,0.25,-35.0,-1,1.0,0.5118999999999687
401,17,0.5,0.5,35.0,1,1.0,0.645799999999781
402,17,0.5,0.5,35.0,-1,0.0,8.80190000000016
403,17,0.4,0.5,35.0,1,1.0,18.87810000000013
404,17,0.5,1.0,35.0,1,1.0,0.565599999999904
405,17,0.5,0.25,35.0,1,1.0,6.3590999999998985
406,17,0.5,1.0,-35.0,-1,1.0,7.152599999999893
407,17,0.5,0.25,-35.0,-1,1.0,1.1131999999997788
408,17,0.5,0.25,-35.0,-1,1.0,16.362800000000107
409,17,0.5,0.5,35.0,1,1.0,11.945399999999836
410,17,0.5,0.25,-35.0,1,0.0,0.9400999999998021
411,17,0.6,0.25,35.0,-1,0.0,1.3130000000001019
412,17,0.5,1.0,-35.0,-1,1.0,0.20029999999997017
413,17,0.5,0.25,-35.0,-1,1.0,18.97160000000008
414,17,0.5,0.5,35.0,-1,0.0,11.25389999999993
415,17,0.5,0.25,35.0,-1,0.0,6.216000000000122
416,17,0.2,0.25,35.0,-1,0.0,9.351000000000113
417,17,0.5,1.0,35.0,-1,0.0,0.477500000000191
1,18,0.5,0.0625,35.0,-1,0.0,0.7675999999999998
2,18,0.5,0.125,35.0,1,1.0,2.975599999999999
3,18,0.5,0.0,35.0,1,1.0,2.8922999999999988
4,18,0.5,0.125,-35.0,-1,1.0,0.44209999999999994
5,18,0.5,0.0,35.0,1,1.0,0.3868000000000009
6,18,0.5,0.125,-35.0,-1,1.0,1.034399999999998
7,18,0.5,0.25,35.0,-1,0.0,0.20279999999999632
8,18,0.5,0.25,35.0,1,1.0,0.6832999999999991
9,18,0.5,1.0,35.0,1,1.0,5.083199999999998
10,18,0.5,0.125,-35.0,-1,1.0,0.6351000000000013
11,18,0.5,0.25,-35.0,1,0.0,0.9924999999999997
12,18,0.5,0.125,35.0,1,1.0,0.2115000000000009
13,18,0.5,0.25,35.0,1,1.0,3.2909000000000077
14,18,0.5,0.25,35.0,1,1.0,4.5443
15,18,0.5,1.0,-35.0,-1,1.0,0.33089999999999975
16,18,0.5,0.25,35.0,1,1.0,0.5624000000000038
17,18,0.5,0.0625,35.0,1,1.0,9.007999999999996
18,18,0.5,0.0625,35.0,1,1.0,1.9321999999999946
19,18,0.5,0.0,35.0,1,1.0,3.360500000000016
20,18,0.5,1.0,35.0,1,1.0,1.3425000000000153
21,18,0.5,1.0,-35.0,-1,1.0,0.3573999999999984
22,18,0.5,0.125,35.0,1,1.0,3.065799999999996
23,18,0.5,1.0,-35.0,-1,1.0,0.3389000000000095
24,18,0.5,1.0,35.0,1,1.0,3.1521000000000043
25,18,0.5,0.0625,35.0,1,1.0,3.25
26,18,0.5,0.0625,-35.0,-1,1.0,1.9371000000000151
27,18,0.5,0.125,35.0,-1,0.0,0.9106000000000023
28,18,0.5,0.0,-35.0,1,0.0,3.3748999999999967
29,18,0.5,0.125,-35.0,1,0.0,4.2867999999999995
30,18,0.5,0.125,-35.0,1,0.0,0.481899999999996
31,18,0.5,0.125,-35.0,1,0.0,0.3674000000000035
32,18,0.5,0.25,-35.0,-1,1.0,0.6461999999999932
33,18,0.5,0.25,35.0,-1,0.0,3.2161000000000115
34,18,0.5,0.0,-35.0,1,0.0,6.9824999999999875
35,18,0.5,0.0625,35.0,1,1.0,4.277000000000015
36,18,0.5,0.0625,-35.0,1,0.0,4.665400000000005
37,18,0.7,0.0625,-35.0,1,0.0,5.060100000000006
38,18,0.5,1.0,35.0,1,1.0,0.39099999999999113
39,18,0.5,0.125,-35.0,1,0.0,1.5147000000000048
40,18,0.5,0.125,35.0,1,1.0,0.6969999999999743
41,18,0.5,0.25,35.0,-1,0.0,0.6461000000000183
42,18,0.5,0.125,35.0,1,1.0,3.1200000000000045
43,18,0.5,1.0,35.0,1,1.0,10.860700000000008
44,18,0.5,0.0625,-35.0,1,0.0,4.900000000000006
45,18,0.5,0.0,35.0,1,1.0,2.4524999999999864
46,18,0.5,0.0,35.0,1,1.0,2.6084000000000174
47,18,0.5,0.125,-35.0,1,0.0,0.506100000000032
48,18,0.5,0.0625,35.0,1,1.0,0.5193999999999903
49,18,0.5,0.25,-35.0,-1,1.0,2.4346000000000174
50,18,0.5,0.125,35.0,-1,0.0,3.5152999999999963
51,18,0.5,0.0,-35.0,1,0.0,2.339100000000002
52,18,0.5,0.25,35.0,1,1.0,0.5536000000000172
53,18,0.5,1.0,-35.0,-1,1.0,0.4151999999999134
54,18,0.5,0.25,-35.0,-1,1.0,0.359299999999962
55,18,0.5,0.25,-35.0,-1,1.0,0.49029999999999063
56,18,0.5,0.125,35.0,1,1.0,5.519200000000012
57,18,0.5,0.0625,35.0,1,1.0,0.5021999999999593
58,18,0.5,0.25,-35.0,-1,1.0,0.3685999999999581
59,18,0.5,1.0,35.0,1,1.0,0.9296999999999684
60,18,0.5,1.0,-35.0,-1,1.0,0.29479999999995243
61,18,0.5,0.0625,-35.0,1,0.0,3.7881999999999607
62,18,0.5,0.0625,35.0,1,1.0,3.1783999999999537
63,18,0.5,0.25,35.0,1,1.0,0.43139999999999645
64,18,0.5,0.0625,35.0,1,1.0,9.215399999999931
65,18,0.5,0.0,35.0,1,1.0,0.6221999999999639
66,18,0.5,0.125,-35.0,1,0.0,0.5451999999999657
67,18,0.5,0.125,-35.0,1,0.0,1.30559999999997
68,18,0.5,0.0,35.0,1,1.0,0.6166000000000054
69,18,0.5,1.0,-35.0,-1,1.0,0.4422999999999888
70,18,0.5,0.25,-35.0,-1,1.0,0.5860999999999876
71,18,0.5,0.25,-35.0,1,0.0,5.109399999999937
72,18,0.5,0.125,35.0,1,1.0,0.42959999999999354
73,18,0.5,0.0625,-35.0,1,0.0,4.081699999999955
74,18,0.8,0.0625,-35.0,-1,1.0,3.6452999999999633
75,18,0.5,1.0,-35.0,-1,1.0,0.2637999999999465
76,18,0.5,0.125,-35.0,-1,1.0,1.2755999999999972
77,18,0.5,0.0,-35.0,1,0.0,4.931299999999965
78,18,0.5,0.25,35.0,1,1.0,2.512399999999957
79,18,0.5,1.0,35.0,1,1.0,3.4015999999999735
80,18,0.5,0.0625,-35.0,1,0.0,2.0813999999999737
81,18,0.5,0.25,-35.0,-1,1.0,0.6024999999999636
82,18,0.5,0.0625,35.0,1,1.0,11.11259999999993
83,18,0.5,0.0625,-35.0,1,0.0,4.114100000000008
84,18,0.5,0.0,-35.0,1,0.0,0.5183999999999287
85,18,0.5,0.125,35.0,-1,0.0,0.3326999999999316
86,18,0.5,0.125,-35.0,-1,1.0,0.5185999999999353
87,18,0.5,0.0625,35.0,1,1.0,5.246699999999919
88,18,0.5,1.0,-35.0,-1,1.0,0.329400000000021
89,18,0.5,0.0,35.0,-1,0.0,3.9553999999999974
90,18,0.5,0.125,35.0,-1,0.0,0.4279000000000224
91,18,0.5,0.0625,-35.0,1,0.0,0.6974999999999909
92,18,0.5,0.0625,-35.0,-1,1.0,0.6104000000000269
93,18,0.5,1.0,35.0,1,1.0,4.478899999999953
94,18,0.5,0.0,-35.0,-1,1.0,2.2334999999999354
95,18,0.5,0.25,-35.0,-1,1.0,0.3880999999999517
96,18,0.5,0.0625,35.0,1,1.0,4.821499999999958
97,18,0.5,1.0,-35.0,-1,1.0,0.3769999999999527
98,18,0.5,0.125,35.0,-1,0.0,0.4497000000000071
99,18,0.5,0.0625,35.0,1,1.0,5.4920999999999935
100,18,0.5,0.125,-35.0,-1,1.0,0.38949999999994134
101,18,0.5,0.25,35.0,1,1.0,7.129599999999982
102,18,0.5,1.0,35.0,1,1.0,3.0997999999999593
103,18,0.5,1.0,35.0,1,1.0,3.1155999999999153
104,18,0.5,0.25,-35.0,-1,1.0,0.47359999999997626
105,18,0.5,1.0,-35.0,-1,1.0,0.4290999999999485
106,18,0.5,1.0,35.0,1,1.0,0.867800000000102
107,18,0.5,1.0,-35.0,-1,1.0,0.32959999999991396
108,18,0.5,1.0,-35.0,-1,1.0,0.44060000000001764
109,18,0.5,0.125,35.0,1,1.0,4.904899999999998
110,18,0.5,0.25,-35.0,-1,1.0,0.358600000000024
111,18,0.5,0.125,35.0,1,1.0,1.2407000000000608
112,18,0.5,0.125,-35.0,-1,1.0,0.3885999999999967
113,18,0.5,0.125,-35.0,-1,1.0,0.9571000000000822
114,18,0.5,0.0,-35.0,1,0.0,4.794699999999921
115,18,0.4,0.0,35.0,1,1.0,0.8957000000000335
116,18,0.5,1.0,35.0,1,1.0,0.4116999999999962
117,18,0.5,0.0,35.0,-1,0.0,2.1924000000000206
118,18,0.5,0.125,-35.0,-1,1.0,0.5416999999999916
119,18,0.5,0.0,-35.0,1,0.0,3.476699999999937
120,18,0.5,0.125,35.0,1,1.0,0.695699999999988
121,18,0.5,0.0,35.0,1,1.0,2.9763000000000375
122,18,0.5,0.0,-35.0,-1,1.0,1.5463000000000875
123,18,0.5,0.0625,-35.0,1,0.0,3.778199999999856
124,18,0.5,0.0,35.0,1,1.0,0.25490000000002055
125,18,0.5,0.0,35.0,-1,0.0,3.7965000000000373
126,18,0.5,0.0,-35.0,1,0.0,0.4017999999999802
127,18,0.5,0.0625,-35.0,-1,1.0,1.5845999999999094
128,18,0.5,0.0625,35.0,1,1.0,3.428099999999972
129,18,0.5,0.0625,-35.0,-1,1.0,1.345299999999952
130,18,0.5,1.0,35.0,1,1.0,5.40809999999999
131,18,0.5,1.0,35.0,1,1.0,6.753200000000106
132,18,0.5,1.0,-35.0,-1,1.0,0.4958000000000311
133,18,0.5,0.0,35.0,1,1.0,3.31149999999991
134,18,0.5,0.25,-35.0,-1,1.0,0.36829999999997654
135,18,0.5,0.25,35.0,1,1.0,4.817399999999907
136,18,0.5,0.125,-35.0,1,0.0,5.074799999999982
137,18,0.5,0.0,35.0,1,1.0,2.188600000000065
138,18,0.5,0.0,-35.0,1,0.0,4.702599999999961
139,18,0.5,0.0625,-35.0,-1,1.0,0.34639999999990323
140,18,0.5,0.0625,35.0,-1,0.0,3.8209999999999127
141,18,0.5,0.0625,35.0,1,1.0,0.4519000000000233
142,18,0.5,1.0,35.0,1,1.0,0.5562999999999647
143,18,0.5,0.0,-35.0,1,0.0,3.8752999999999247
144,18,0.7,0.0,-35.0,-1,1.0,2.4983000000000857
145,18,0.5,1.0,-35.0,-1,1.0,0.4250999999999294
146,18,0.5,0.0,-35.0,1,0.0,4.794999999999959
147,18,0.5,0.0,-35.0,1,0.0,0.7536999999999807
148,18,0.6,0.0,35.0,-1,0.0,0.12630000000001473
149,18,0.5,1.0,-35.0,-1,1.0,0.35969999999997526
150,18,0.5,0.125,35.0,-1,0.0,3.8982999999999493
151,18,0.5,0.25,-35.0,-1,1.0,0.5032999999999674
152,18,0.5,1.0,35.0,1,1.0,6.2152999999999565
153,18,0.5,0.125,-35.0,1,0.0,0.43200000000001637
154,18,0.5,0.125,-35.0,1,0.0,1.2006999999999834
155,18,0.5,0.25,35.0,1,1.0,0.49119999999993524
156,18,0.5,0.125,-35.0,-1,1.0,0.3612999999999147
157,18,0.5,0.0625,35.0,1,1.0,3.001500000000078
158,18,0.5,0.25,-35.0,-1,1.0,0.28110000000003765
159,18,0.5,0.0625,35.0,-1,0.0,3.855099999999993
160,18,0.5,0.125,35.0,1,1.0,0.4071999999999889
161,18,0.5,1.0,-35.0,-1,1.0,0.4171000000000049
162,18,0.5,0.125,35.0,-1,0.0,1.9733999999999696
163,18,0.5,0.0,35.0,1,1.0,3.852200000000039
164,18,0.5,0.125,35.0,1,1.0,6.80720000000008
165,18,0.5,0.125,35.0,1,1.0,7.619299999999953
166,18,0.5,0.25,35.0,1,1.0,0.4798999999998159
167,18,0.5,0.0625,-35.0,1,0.0,4.787499999999909
168,18,0.5,0.0625,35.0,1,1.0,0.49310000000002674
169,18,0.5,1.0,35.0,1,1.0,0.8772000000000162
170,18,0.5,0.0,35.0,1,1.0,7.862999999999943
171,18,0.5,0.0625,35.0,-1,0.0,0.23640000000000327
172,18,0.5,0.0,35.0,1,1.0,1.3246999999998934
173,18,0.5,0.25,35.0,-1,0.0,4.149699999999939
174,18,0.5,0.125,-35.0,1,0.0,0.7668999999999642
175,18,0.5,0.125,-35.0,1,0.0,0.9388000000000147
176,18,0.8,0.125,35.0,1,1.0,0.7387999999999693
177,18,0.5,1.0,35.0,1,1.0,0.4652999999999565
178,18,0.5,1.0,35.0,1,1.0,4.365600000000086
179,18,0.5,0.0625,-35.0,1,0.0,7.629799999999932
180,18,0.5,0.25,-35.0,-1,1.0,0.3143999999999778
181,18,0.5,0.25,35.0,1,1.0,5.516699999999901
182,18,0.5,0.125,-35.0,-1,1.0,0.3300000000000409
183,18,0.5,0.25,35.0,1,1.0,4.315199999999891
184,18,0.5,1.0,35.0,1,1.0,0.37599999999997635
185,18,0.5,0.125,-35.0,1,0.0,0.569699999999898
186,18,0.5,0.0625,35.0,1,1.0,0.33139999999991687
187,18,0.5,0.0625,35.0,-1,0.0,1.6833999999998923
188,18,0.5,0.0625,-35.0,1,0.0,4.305700000000002
189,18,0.5,0.25,35.0,1,1.0,0.539299999999912
190,18,0.5,0.0625,35.0,1,1.0,3.1942999999999984
191,18,0.5,0.125,35.0,1,1.0,4.5248000000000275
192,18,0.5,0.25,35.0,1,1.0,0.5363000000000966
193,18,0.5,0.25,-35.0,-1,1.0,0.6718999999999369
194,18,0.5,0.125,-35.0,1,0.0,6.102399999999989
195,18,0.5,0.125,-35.0,-1,1.0,0.580400999999938
196,18,0.5,0.125,-35.0,-1,1.0,0.46640100000001894
197,18,0.5,1.0,-35.0,-1,1.0,0.7234010000000808
198,18,0.5,0.25,35.0,1,1.0,4.886400999999978
199,18,0.5,0.125,-35.0,1,0.0,4.739600999999993
200,18,0.6,0.125,35.0,1,1.0,0.14650099999994382
201,18,0.5,1.0,-35.0,-1,1.0,0.32750099999998383
202,18,0.5,0.125,35.0,1,1.0,9.71850100000006
203,18,0.5,0.125,-35.0,-1,1.0,0.06650100000001657
204,18,0.5,0.25,-35.0,1,0.0,6.123100999999906
205,18,0.5,0.25,35.0,1,1.0,0.4171010000000024
206,18,0.5,0.0,35.0,1,1.0,8.193700999999919
207,18,0.5,0.25,-35.0,-1,1.0,0.37070099999994
208,18,0.5,0.125,-35.0,1,0.0,6.337601000000177
209,18,0.5,0.0625,35.0,1,1.0,0.3445010000000366
210,18,0.5,0.0625,-35.0,1,0.0,0.3845010000000002
211,18,0.5,0.0,-35.0,1,0.0,0.6616010000000188
212,18,0.5,0.125,35.0,-1,0.0,1.8952010000000428
213,18,0.5,0.125,-35.0,-1,1.0,0.45190100000013445
214,18,0.5,0.0,35.0,1,1.0,9.951901000000134
215,18,0.5,1.0,35.0,1,1.0,0.4727010000001428
216,18,0.5,0.0,35.0,1,1.0,6.002601000000141
217,18,0.5,0.0625,35.0,1,1.0,8.22960100000023
218,18,0.5,0.0,35.0,-1,0.0,0.45970100000022285
219,18,0.7,0.0,35.0,1,1.0,0.5266010000000279
220,18,0.5,1.0,-35.0,-1,1.0,0.36670100000014827
221,18,0.5,1.0,35.0,1,1.0,8.36680100000035
222,18,0.5,1.0,-35.0,-1,1.0,0.35370100000000093
223,18,0.5,0.125,35.0,-1,0.0,0.837601000000177
224,18,0.6,0.125,35.0,1,1.0,6.704701000000341
225,18,0.5,1.0,-35.0,-1,1.0,0.6413010000001123
226,18,0.5,0.125,35.0,-1,0.0,0.21170100000017555
227,18,0.4,0.125,-35.0,1,0.0,5.788301000000274
228,18,0.5,1.0,35.0,1,1.0,0.4351010000000315
229,18,0.5,0.125,-35.0,1,0.0,4.5687010000001465
230,18,0.5,0.0625,35.0,1,1.0,0.16890100000023267
231,18,0.5,0.125,35.0,1,1.0,0.5291010000000824
232,18,0.5,0.0,-35.0,1,0.0,3.172401000000036
233,18,0.5,0.0,35.0,1,1.0,2.555900999999949
234,18,0.5,0.0625,35.0,-1,0.0,0.6298010000002705
235,18,0.5,0.0625,-35.0,-1,1.0,0.9501010000001315
236,18,0.5,0.25,-35.0,-1,1.0,2.5665010000000166
237,18,0.5,0.0625,35.0,1,1.0,5.2565010000002985
238,18,0.5,0.0625,-35.0,1,0.0,3.207200999999941
239,18,0.5,0.0625,-35.0,-1,1.0,1.1839010000001053
240,18,0.5,0.0625,-35.0,-1,1.0,2.170800999999983
241,18,0.5,0.0,-35.0,1,0.0,6.807301000000052
242,18,0.5,0.0,35.0,1,1.0,0.3745010000002367
243,18,0.5,1.0,-35.0,1,0.0,4.327901000000338
244,18,0.5,0.25,-35.0,-1,1.0,0.5619010000000344
245,18,0.5,0.25,-35.0,1,0.0,16.585000000000264
246,18,0.5,0.25,35.0,-1,0.0,13.942401000000245
247,18,0.5,0.25,35.0,1,1.0,50.183001000000104
248,18,0.5,1.0,35.0,-1,0.0,6.855401000000029
249,18,0.5,1.0,35.0,-1,0.0,17.119101000000228
250,18,0.5,1.0,35.0,0,0.0,59.939701000000014
251,18,0.6,1.0,-35.0,0,0.0,12.17380100000014
252,18,0.6,1.0,35.0,0,0.0,49.988401000000295
253,18,0.6,1.0,35.0,0,0.0,
254,18,0.6,1.0,-35.0,1,0.0,0.23000100000012935
255,18,0.7,1.0,-35.0,1,0.0,6.30720099999985
256,18,0.7,1.0,-35.0,0,0.0,59.9312010000001
257,18,0.8,1.0,35.0,1,1.0,15.69680100000005
258,18,0.5,1.0,-35.0,1,0.0,0.7735010000001239
259,18,0.5,0.125,-35.0,1,0.0,13.246801000000005
260,18,0.5,0.0,-0.0,0,0.0,59.9475010000001
261,18,0.5,0.0,35.0,1,1.0,23.05750100000023
262,18,0.5,0.0625,-35.0,1,0.0,9.820801000000074
263,18,1.0,0.0625,-35.0,1,0.0,2.264701000000059
264,18,0.5,1.0,-35.0,1,0.0,2.514801000000034
265,18,1.0,1.0,-35.0,-1,1.0,1.8117009999998572
266,18,0.5,1.0,-35.0,1,0.0,0.4652010000002065
267,18,0.5,0.25,35.0,1,1.0,0.43200100000012753
268,18,0.5,1.0,35.0,1,1.0,2.7855010000000675
269,18,0.5,0.0625,35.0,-1,0.0,1.3723010000001068
270,18,0.5,0.0625,-35.0,1,0.0,0.5858010000001741
271,18,0.5,0.0625,35.0,1,1.0,0.8327010000000428
272,18,0.5,0.0625,35.0,1,1.0,2.58270100000027
273,18,0.5,0.0625,35.0,-1,0.0,0.569501000000173
274,18,0.7,0.0625,-35.0,1,0.0,3.5163010000001123
275,18,0.5,1.0,-35.0,1,0.0,1.2565010000002985
276,18,0.5,0.125,35.0,1,1.0,3.270101000000068
277,18,0.5,0.25,-35.0,-1,1.0,0.5902010000002065
278,18,0.5,0.25,35.0,1,1.0,5.840401000000156
279,18,0.5,1.0,35.0,1,1.0,0.5108010000001286
280,18,0.5,1.0,-35.0,-1,1.0,0.5243010000001505
281,18,0.5,0.25,-35.0,1,0.0,7.8777010000001155
282,18,0.7,0.25,-35.0,1,0.0,2.2047010000001137
283,18,0.5,1.0,-35.0,-1,1.0,0.5050009999999929
284,18,0.5,1.0,-35.0,-1,1.0,0.48170099999993
285,18,0.5,0.25,35.0,1,1.0,0.9219010000001617
286,18,0.5,0.125,35.0,1,1.0,8.25540100000012
287,18,0.5,0.125,-35.0,1,0.0,6.8757009999999354
288,18,0.7,0.125,-35.0,-1,1.0,3.102701000000252
289,18,0.5,1.0,-35.0,-1,1.0,0.3763010000002396
290,18,0.5,0.0,35.0,-1,0.0,1.293201000000181
291,18,0.5,0.0,-35.0,1,0.0,0.7367010000000391
292,18,0.5,1.0,35.0,1,1.0,0.4302010000001246
293,18,0.5,0.125,35.0,-1,0.0,0.7967009999999846
294,18,0.5,0.125,-35.0,-1,1.0,5.753801000000067
295,18,0.5,0.25,35.0,1,1.0,0.13400099999989834
296,18,0.5,0.125,-35.0,-1,1.0,1.730701000000181
297,18,0.5,0.25,-35.0,-1,1.0,0.6875010000001112
298,18,0.5,1.0,35.0,1,1.0,0.497700999999779
299,18,0.5,0.25,35.0,1,1.0,4.961301000000276
300,18,0.5,0.125,35.0,-1,0.0,2.338101000000279
301,18,0.5,0.0625,-35.0,1,0.0,0.46840100000008533
302,18,0.5,0.0625,-35.0,1,0.0,7.158500999999887
303,18,0.5,0.0625,35.0,1,1.0,4.938900999999987
304,18,0.5,0.125,-35.0,-1,1.0,0.5658010000001923
305,18,0.5,0.25,-35.0,-1,1.0,0.3692009999995207
306,18,0.5,1.0,35.0,1,1.0,4.04600100000016
307,18,0.5,0.0625,35.0,-1,0.0,0.8863010000000031
308,18,0.5,0.0625,35.0,-1,0.0,2.5865010000002258
309,18,0.5,0.25,-35.0,-1,1.0,0.4900009999996655
310,18,0.5,0.0,-35.0,1,0.0,8.086800999999923
311,18,0.5,0.125,35.0,1,1.0,2.7806009999999333
312,18,0.5,0.0625,-35.0,-1,1.0,0.600901000000249
313,18,0.5,0.0,35.0,1,1.0,3.4209010000004128
314,18,0.5,0.25,35.0,1,1.0,3.9710009999998874
315,18,0.5,0.125,35.0,1,1.0,0.8512010000004011
316,18,0.5,0.0625,35.0,1,1.0,3.3813010000003487
317,18,0.5,0.25,35.0,1,1.0,0.5216009999999187
318,18,0.5,1.0,35.0,1,1.0,0.3684010000001763
319,18,0.5,0.125,-35.0,-1,1.0,5.348601000000144
320,18,0.5,1.0,35.0,1,1.0,6.348700999999892
321,18,0.5,1.0,-35.0,-1,1.0,0.3857010000006085
322,18,0.5,0.125,-35.0,1,0.0,7.245701000000281
323,18,0.5,0.125,-35.0,1,0.0,0.8695010000001275
324,18,0.5,0.125,-35.0,-1,1.0,0.9297010000004775
325,18,0.5,1.0,35.0,1,1.0,4.336501000000226
326,18,0.5,0.25,35.0,1,1.0,0.5067009999997936
327,18,0.5,0.0,-35.0,-1,1.0,0.8937009999999646
328,18,0.5,0.0625,35.0,-1,0.0,1.1137010000002192
329,18,0.5,0.25,-35.0,-1,1.0,0.6538010000003851
330,18,0.5,0.25,35.0,1,1.0,4.21400100000028
331,18,0.5,0.0,35.0,-1,0.0,0.19750100000010207
332,18,0.5,0.0625,-35.0,1,0.0,4.597701000000143
333,18,0.5,0.125,35.0,-1,0.0,1.8447010000004411
334,18,0.4,0.125,-35.0,-1,1.0,0.5715010000003531
335,18,0.5,1.0,35.0,1,1.0,1.4950009999997746
336,18,0.5,1.0,-35.0,-1,1.0,0.38510100000030434
337,18,0.5,0.0625,-35.0,1,0.0,6.388601000000563
338,18,0.5,0.0,-35.0,1,0.0,0.5689010000000962
339,18,0.5,0.25,-35.0,-1,1.0,0.5958009999999376
340,18,0.5,0.0625,-35.0,1,0.0,8.829101000000264
341,18,0.5,0.25,35.0,1,1.0,8.056301000000076
342,18,0.5,0.25,35.0,-1,0.0,1.75320099999999
343,18,0.5,0.125,-35.0,-1,1.0,0.550101000000268
344,18,0.5,0.0625,35.0,1,1.0,2.920300999999654
345,18,0.5,0.125,-35.0,1,0.0,4.01370100000031
346,18,0.6,0.125,-35.0,1,0.0,0.49410100000022794
347,18,0.5,1.0,35.0,1,1.0,0.747501000000284
348,18,0.5,0.0625,-35.0,-1,1.0,3.954301000000214
349,18,0.5,0.25,35.0,1,1.0,2.5479009999999107
350,18,0.5,0.0,35.0,1,1.0,7.578000999999858
351,18,0.5,0.0625,35.0,1,1.0,5.225100999999995
352,18,0.5,0.25,35.0,-1,0.0,1.0554010000000744
353,18,0.5,0.25,-35.0,-1,1.0,0.3257010000002083
354,18,0.5,0.0,35.0,1,1.0,7.529001000000335
355,18,0.5,0.125,-35.0,-1,1.0,0.4127010000001974
356,18,0.5,1.0,35.0,1,1.0,0.4430010000000948
357,18,0.5,0.0,-35.0,1,0.0,7.139801000000261
358,18,0.5,0.125,-35.0,-1,1.0,5.186901000000489
359,18,0.5,0.0625,-35.0,-1,1.0,0.7838010000000395
360,18,0.5,0.25,-35.0,-1,1.0,0.42390100000011444
361,18,0.5,0.125,35.0,1,1.0,0.4673010000001341
362,18,0.5,1.0,-35.0,-1,1.0,0.3476010000003953
363,18,0.5,0.125,35.0,-1,0.0,4.96440100000018
364,18,0.5,0.0625,35.0,-1,0.0,0.35120099999994636
365,18,0.5,0.125,-35.0,-1,1.0,0.4747010000000955
366,18,0.5,0.125,-35.0,1,0.0,6.828201000000263
367,18,0.5,0.25,35.0,1,1.0,2.2521010000000388
368,18,0.5,0.0,35.0,1,1.0,0.4188010000007125
369,18,0.5,0.125,-35.0,-1,1.0,0.44560100000035163
370,18,0.5,1.0,35.0,1,1.0,0.732401000000209
371,18,0.5,0.0625,-35.0,1,0.0,4.902501000000029
372,18,0.5,0.0625,-35.0,1,0.0,0.7195010000000366
373,18,0.5,1.0,35.0,1,1.0,0.3862010000002556
374,18,0.5,0.125,-35.0,-1,1.0,2.149801000000025
375,18,0.5,0.0625,-35.0,1,0.0,5.169901000000209
376,18,0.5,0.125,-35.0,1,0.0,8.493500999999924
377,18,0.5,0.125,-35.0,-1,1.0,0.5439010000000053
378,18,0.5,0.0625,35.0,1,1.0,6.96420100000023
379,18,0.5,1.0,35.0,1,1.0,7.901100999999926
380,18,0.5,0.125,-35.0,1,0.0,0.5582010000002811
381,18,0.8,0.125,-35.0,-1,1.0,0.36500100000012026
382,18,0.5,1.0,35.0,1,1.0,2.1917010000001937
383,18,0.5,1.0,35.0,1,1.0,1.4986010000002352
384,18,0.5,1.0,-35.0,-1,1.0,0.49230100000022503
385,18,0.5,1.0,35.0,1,1.0,4.028900999999678
386,18,0.5,0.125,-35.0,1,0.0,0.5891009999995731
387,18,0.5,0.25,-35.0,-1,1.0,6.7226009999999405
388,18,0.5,1.0,35.0,1,1.0,0.4495010000000548
389,18,0.5,0.0625,35.0,-1,0.0,2.773001000000022
390,18,0.5,0.25,35.0,1,1.0,4.789800999999898
391,18,0.5,0.125,35.0,1,1.0,7.193400999999994
392,18,0.5,0.0625,-35.0,1,0.0,8.46710099999973
393,18,0.5,0.0,35.0,1,1.0,0.4909010000001217
394,18,0.5,1.0,-35.0,-1,1.0,0.3610009999997601
395,18,0.5,0.0625,35.0,1,1.0,4.757800999999745
396,18,0.5,0.25,-35.0,-1,1.0,0.39130100000011225
397,18,0.5,0.0,35.0,1,1.0,7.301501000000371
398,18,0.5,1.0,-35.0,-1,1.0,0.15180099999997765
399,18,0.5,0.0625,35.0,1,1.0,1.868601000000126
400,18,0.5,1.0,-35.0,-1,1.0,0.36540100000001985
401,18,0.5,0.0625,35.0,-1,0.0,7.9689009999997324
402,18,0.5,0.25,35.0,1,1.0,0.23590100000001257
403,18,0.5,0.0625,35.0,1,1.0,4.002601000000141
404,18,0.5,0.25,-35.0,-1,1.0,0.3763010000002396
405,18,0.5,0.25,35.0,1,1.0,0.6565009999999347
406,18,0.5,1.0,-35.0,-1,1.0,0.5164010000003145
407,18,0.5,1.0,-35.0,-1,1.0,0.3032010000001719
408,18,0.5,0.25,35.0,-1,0.0,1.6166010000001734
409,18,0.5,0.0625,-35.0,1,0.0,4.600201000000197
410,18,0.5,0.25,-35.0,-1,1.0,0.5005009999999857
411,18,0.5,0.0,35.0,-1,0.0,2.370701000000281
412,18,0.5,0.125,-35.0,1,0.0,6.194101000000046
413,18,0.5,0.125,-35.0,1,0.0,4.0744009999998525
414,18,0.5,0.0625,-35.0,1,0.0,2.1947009999998954
415,18,0.5,0.0625,35.0,1,1.0,3.328201000000263
416,18,0.5,0.0,35.0,1,1.0,8.35180100000025
417,18,0.5,1.0,35.0,1,1.0,0.6123010000005706
418,18,0.5,0.0,35.0,1,1.0,8.112301000000116
419,18,0.5,0.0,35.0,-1,0.0,0.38950100000010934
420,18,0.5,0.0625,35.0,1,1.0,0.39290100000016537
421,18,0.5,0.0,35.0,1,1.0,5.9463009999999485
422,18,0.5,1.0,35.0,1,1.0,0.43990100000019083
423,18,0.5,1.0,-35.0,-1,1.0,0.45340100000021266
424,18,0.5,1.0,-35.0,-1,1.0,0.3335010000000693
425,18,0.5,0.0625,35.0,-1,0.0,9.183700999999928
426,18,0.5,0.125,35.0,1,1.0,0.6874010000001363
427,18,0.5,0.0625,35.0,1,1.0,7.430901000000176
428,18,0.5,0.25,35.0,1,1.0,9.377901000000293
429,18,0.5,0.0625,35.0,1,1.0,0.3918010000002141
430,18,0.5,0.125,-35.0,-1,1.0,0.38910100000020975
431,18,0.5,1.0,35.0,1,1.0,4.002701000000343
432,18,0.5,0.0625,-35.0,1,0.0,4.9528009999999085
433,18,0.5,0.25,-35.0,-1,1.0,0.47610100000019884
434,18,0.5,0.25,-35.0,-1,1.0,0.42970100000002276
435,18,0.5,0.25,-35.0,-1,1.0,2.0700010000000475
436,18,0.5,0.125,35.0,1,1.0,0.5965009999999893
437,18,0.5,0.125,-35.0,-1,1.0,0.3867009999999027
438,18,0.5,0.0625,-35.0,1,0.0,8.063200999999935
439,18,0.5,0.0,-35.0,1,0.0,0.5606010000001334
440,18,0.5,0.0625,35.0,1,1.0,10.467800999999781
441,18,0.5,0.25,35.0,1,1.0,0.44780100000025413
442,18,0.5,0.125,-35.0,-1,1.0,0.9911010000000715
443,18,0.5,0.0,-35.0,1,0.0,0.9649010000002818
444,18,0.5,0.125,35.0,1,1.0,0.2549010000002454
445,18,0.5,0.0625,-35.0,-1,1.0,3.9487010000002556
446,18,0.5,0.125,35.0,-1,0.0,0.20850100000006933
447,18,0.5,0.25,35.0,1,1.0,0.6821009999998751
448,18,0.5,0.0625,35.0,1,1.0,5.555300999999872
449,18,0.5,0.0,35.0,-1,0.0,9.412301000000298
450,18,0.5,0.125,35.0,1,1.0,0.6096010000001115
451,18,0.5,0.125,-35.0,-1,1.0,0.5761010000001079
452,18,0.5,1.0,-35.0,-1,1.0,0.423001000000113
453,18,0.5,0.25,-35.0,-1,1.0,0.39340100000026723
454,18,0.5,1.0,35.0,1,1.0,0.5470009999999093
455,18,0.5,1.0,35.0,1,1.0,0.4370009999997819
456,18,0.5,0.0,-35.0,-1,1.0,1.0434010000003582
457,18,0.5,0.25,35.0,1,1.0,8.250201000000288
458,18,0.5,0.0625,35.0,1,1.0,7.294201000000157
459,18,0.5,1.0,-35.0,-1,1.0,0.5078010000001996
460,18,0.5,0.125,-35.0,1,0.0,0.5779010000001108
461,18,0.5,0.125,-35.0,-1,1.0,0.7381010000003698
462,18,0.5,1.0,-35.0,-1,1.0,0.3314010000003691
463,18,0.5,0.0625,35.0,-1,0.0,4.505000999999993
464,18,0.5,0.0,35.0,1,1.0,6.35870100000011
465,18,0.5,0.0,35.0,1,1.0,13.81570099999999
466,18,0.5,1.0,35.0,1,1.0,0.5127010000001064
467,18,0.5,1.0,-35.0,-1,1.0,0.4662009999997281
468,18,0.5,0.0,35.0,1,1.0,5.449701000000005
469,18,0.5,1.0,-35.0,-1,1.0,0.38330100000030143
470,18,0.5,0.125,35.0,1,1.0,1.9537010000003647
471,18,0.5,0.0,35.0,1,1.0,8.343500999999833
472,18,0.5,0.25,-35.0,-1,1.0,0.514100999999755
473,18,0.5,1.0,35.0,1,1.0,0.847501000000193
474,18,0.5,0.125,-35.0,1,0.0,6.530901000000085
475,18,0.5,0.125,35.0,1,1.0,4.094900999999936
476,18,0.5,0.25,-35.0,-1,1.0,0.37150100000008024
477,18,0.5,0.25,-35.0,-1,1.0,1.2317009999997026
478,18,0.5,1.0,35.0,1,1.0,0.4586010000002716
479,18,0.5,0.0625,35.0,1,1.0,6.535201000000143
480,18,0.5,0.25,-35.0,-1,1.0,0.40920100000039383
481,18,0.5,0.0,-35.0,1,0.0,6.035501000000295
482,18,0.5,0.25,-35.0,-1,1.0,0.3962010000000191
483,18,0.5,0.0625,-35.0,1,0.0,0.539400999999998
484,18,0.6,0.0625,-35.0,1,0.0,7.362900999999965
485,18,0.5,1.0,35.0,1,1.0,0.550300999999763
486,18,0.5,0.0625,35.0,1,1.0,3.330301000000418
487,18,0.5,0.0625,35.0,1,1.0,0.7173010000001341
488,18,0.5,0.25,-35.0,-1,1.0,3.100401000000147
489,18,0.5,0.25,-35.0,-1,1.0,0.5240010000002258
490,18,0.5,0.0,-35.0,1,0.0,8.347501000000193
491,18,0.5,0.25,35.0,1,1.0,7.747701000000234
492,18,0.5,0.125,35.0,-1,0.0,2.148200999999972
493,18,0.5,0.125,35.0,1,1.0,0.6689009999995505
494,18,0.5,0.125,35.0,1,1.0,0.9454009999999471
495,18,0.5,0.125,35.0,1,1.0,9.211901000000125
496,18,0.5,0.0,-35.0,1,0.0,7.106100999999853
497,18,0.5,0.125,-35.0,-1,1.0,0.6199010000000271
498,18,0.5,0.25,35.0,1,1.0,0.7962010000001101
499,18,0.5,0.0625,-35.0,-1,1.0,0.15340099999957602
500,18,0.5,0.25,35.0,-1,0.0,1.9398010000004433
501,18,0.6,0.25,-35.0,-1,1.0,0.42680100000052335
502,18,0.5,1.0,-35.0,-1,1.0,0.4005010000000766
503,18,0.5,0.125,-35.0,-1,1.0,14.426801000000069
504,18,0.5,0.0625,-35.0,1,0.0,4.234101000000464
505,18,0.4,0.0625,-35.0,-1,1.0,0.3445010000000366
506,18,0.5,1.0,-35.0,-1,1.0,0.5446010000005117
507,18,0.5,1.0,35.0,1,1.0,0.44470099999989543
508,18,0.5,1.0,-35.0,-1,1.0,0.35150100000009843
509,18,0.5,0.125,-35.0,1,0.0,4.632000999999946
510,18,0.5,0.25,-35.0,-1,1.0,0.6419009999999616
511,18,0.5,1.0,35.0,1,1.0,0.48220100000025923
512,18,0.5,0.0,35.0,1,1.0,2.455601000000115
513,18,0.5,0.0,35.0,1,1.0,5.772601000000122
514,18,0.5,1.0,35.0,1,1.0,0.4157010000003538
515,18,0.5,1.0,-35.0,-1,1.0,0.3663010000000213
516,18,0.5,1.0,35.0,1,1.0,0.612800999999763
517,18,0.5,0.25,-35.0,1,0.0,11.596400999999787
518,18,0.7,0.25,35.0,-1,0.0,1.1401009999999587
519,18,0.5,1.0,-35.0,-1,1.0,0.4736009999996895
520,18,0.5,0.125,-35.0,-1,1.0,0.6240010000001348
521,18,0.5,0.0,35.0,1,1.0,0.627100999999584
522,18,0.5,0.25,35.0,1,1.0,5.993901000000278
523,18,0.5,0.25,-35.0,-1,1.0,0.327701000000161
524,18,0.5,0.25,-35.0,-1,1.0,0.3544010000000526
525,18,0.5,0.25,-35.0,-1,1.0,0.5111010000000533
526,18,0.5,0.25,-35.0,1,0.0,4.9078010000002905
527,18,0.5,0.25,35.0,1,1.0,9.175201000000015
528,18,0.5,0.0625,35.0,1,1.0,1.2725009999999202
529,18,0.5,1.0,-35.0,-1,1.0,0.46560100000033344
530,18,0.5,0.0,-35.0,1,0.0,0.9490010000004077
531,18,0.5,0.125,35.0,1,1.0,0.6124010000003182
532,18,0.5,0.0625,35.0,-1,0.0,1.6027009999997972
533,18,0.5,0.0625,35.0,1,1.0,9.526001000000178
534,18,0.5,1.0,-35.0,-1,1.0,0.33010100000046805
535,18,0.5,1.0,35.0,1,1.0,0.3500010000002476
536,18,0.5,0.25,-35.0,-1,1.0,0.4802009999998518
537,18,0.5,0.0,35.0,1,1.0,9.726900999999998
538,18,0.5,0.25,-35.0,-1,1.0,2.7273009999998976
539,18,0.5,0.0625,-35.0,1,0.0,3.1009009999997943
540,18,0.5,0.0,-35.0,1,0.0,2.5578010000003815
541,18,0.6,0.0,35.0,1,1.0,0.5081010000003516
542,18,0.5,1.0,-35.0,-1,1.0,0.6949010000003
543,18,0.5,0.0625,-35.0,1,0.0,8.971901000000344
544,18,0.6,0.0625,35.0,1,1.0,3.9955009999998765
545,18,0.5,1.0,35.0,1,1.0,0.3190010000002985
546,18,0.5,0.125,35.0,1,1.0,0.5958009999999376
547,18,0.5,0.125,35.0,1,1.0,10.402901000000384
548,18,0.5,1.0,35.0,1,1.0,1.7302009999998518
549,18,0.5,0.0625,-35.0,1,0.0,7.587001000000328
550,18,0.9,0.0625,35.0,1,1.0,0.5502009999995607
551,18,0.5,1.0,-35.0,-1,1.0,0.47060099999998783
552,18,0.5,1.0,35.0,-1,0.0,3.0710009999997965
553,18,0.5,0.0625,35.0,1,1.0,4.457601000000068
554,18,0.5,0.125,-35.0,-1,1.0,0.5379010000006019
555,18,0.5,0.0625,-35.0,-1,1.0,3.508100999999897
556,18,0.5,1.0,35.0,1,1.0,0.6251009999996313
557,18,0.5,0.0625,35.0,1,1.0,10.422101000000112
558,18,0.5,0.0625,35.0,1,1.0,16.845600999999988
559,18,0.5,1.0,35.0,-1,0.0,7.653000999999676
560,18,0.5,0.0625,-35.0,1,0.0,0.4701010000003407
561,18,0.5,0.25,-35.0,-1,1.0,0.4768010000002505
562,18,0.5,1.0,35.0,1,1.0,0.4108009999999922
563,18,0.5,0.0,35.0,1,1.0,12.467101000000184
564,18,0.5,0.125,-35.0,-1,1.0,0.49440099999992526
565,18,0.5,1.0,35.0,1,1.0,2.374500999999782
566,18,0.5,1.0,-35.0,-1,1.0,7.712000999999873
567,18,0.5,1.0,35.0,1,1.0,7.028301000000283
568,18,0.5,1.0,-35.0,-1,1.0,0.3492010000004484
569,18,0.5,0.25,-35.0,1,0.0,7.282200999999986
570,18,0.5,0.0625,35.0,1,1.0,0.9026010000002316
571,18,0.5,0.125,35.0,1,1.0,2.182701000000179
572,18,0.5,0.0625,35.0,-1,0.0,2.386301000000003
573,18,0.5,0.25,-35.0,-1,1.0,0.5898010000000795
574,18,0.5,0.125,-35.0,1,0.0,17.663200999999844
575,18,0.5,0.125,35.0,1,1.0,0.5407010000003538
576,18,0.5,0.0625,-35.0,1,0.0,5.431301000000076
577,18,0.7,0.0625,-35.0,-1,1.0,1.228200999999899
578,18,0.5,1.0,-35.0,-1,1.0,2.384801000000607
579,18,0.5,0.125,35.0,1,1.0,8.661600999999791
580,18,0.5,0.0,35.0,1,1.0,8.682401000000027
581,18,0.5,0.125,-35.0,-1,1.0,0.7394009999998161
582,18,0.5,1.0,35.0,1,1.0,1.086001000000124
583,18,0.5,0.0,-35.0,1,0.0,8.112800999999763
584,18,0.7,0.0,35.0,1,1.0,13.743300999999974
585,18,0.5,1.0,-35.0,-1,1.0,0.4006010000002789
586,18,0.5,1.0,35.0,1,1.0,7.000800999999683
587,18,0.5,0.25,35.0,1,1.0,8.09760099999994
588,18,0.5,0.0,-35.0,1,0.0,6.521401000000424
589,18,0.5,0.25,-35.0,-1,1.0,20.241701000000376
590,18,0.5,1.0,35.0,1,1.0,0.212601000000177
591,18,0.5,1.0,-35.0,-1,1.0,0.4895010000000184
592,18,0.5,0.125,-35.0,1,0.0,9.749801000000389
593,18,0.7,0.125,-35.0,1,0.0,17.263601000000108
594,18,0.5,1.0,-35.0,-1,1.0,0.3341009999999187
595,18,0.5,0.125,-35.0,-1,1.0,1.2076010000005226
596,18,0.5,0.0625,-35.0,-1,1.0,0.6812009999998736
597,18,0.5,0.0625,-35.0,1,0.0,12.861601000000519
598,18,0.5,0.25,35.0,1,1.0,0.8585010000001603
599,18,0.5,1.0,-35.0,-1,1.0,0.4019010000001799
600,18,0.5,0.25,-35.0,-1,1.0,2.6424010000000635
601,18,0.5,0.125,35.0,1,1.0,0.7728010000000722
602,18,0.5,0.125,35.0,1,1.0,24.502400999999736
603,18,0.5,1.0,35.0,1,1.0,0.4202010000003611
604,18,0.5,1.0,35.0,1,1.0,6.9836010000003625
605,18,0.5,0.0,-35.0,1,0.0,11.67080100000021
606,18,0.5,0.0,-35.0,-1,1.0,3.234700999999859
607,18,0.5,0.25,-35.0,-1,1.0,5.825001000000157
608,18,0.5,0.125,35.0,1,1.0,9.68210100000033
609,18,0.5,0.25,35.0,1,1.0,4.298901000000114
610,18,0.5,0.0,35.0,1,1.0,0.49290099999961967
611,18,0.5,1.0,-35.0,-1,1.0,0.4061010000004899
612,18,0.5,0.25,-35.0,-1,1.0,1.7429010000000744
613,18,0.5,0.125,35.0,1,1.0,5.9263010000004215
614,18,0.5,1.0,35.0,1,1.0,8.873100999999679
615,18,0.5,0.125,35.0,-1,0.0,1.2640010000000075
616,18,0.5,0.0625,35.0,1,1.0,10.510401000000002
617,18,0.5,0.125,35.0,1,1.0,0.29440100000010716
618,18,0.5,0.125,35.0,1,1.0,11.008300999999847
619,18,0.5,1.0,35.0,1,1.0,1.5215010000001712
620,18,0.5,1.0,-35.0,-1,1.0,0.43520100000023376
621,18,0.5,0.25,35.0,1,1.0,1.675101000000268
622,18,0.5,0.125,-35.0,1,0.0,1.1054010000002563
623,18,0.8,0.125,-35.0,-1,1.0,0.43900099999973463
624,18,0.5,1.0,-35.0,-1,1.0,0.6022009999996953
625,18,0.5,0.125,-35.0,1,0.0,6.799001000000317
626,18,0.5,0.125,35.0,1,1.0,12.989400999999816
627,18,0.5,0.0625,35.0,1,1.0,0.33010099999955855
628,18,0.5,0.125,-35.0,1,0.0,11.13010099999974
629,18,0.5,0.125,-35.0,1,0.0,4.1873009999990245
630,18,0.5,0.0,-35.0,-1,1.0,5.771100999999362
631,18,0.5,0.125,-35.0,-1,1.0,0.6280009999991307
632,18,0.5,1.0,35.0,1,1.0,9.08140099999946
633,18,0.5,0.25,35.0,1,1.0,2.2252010000001974
634,18,0.5,0.125,-35.0,-1,1.0,0.49520099999972444
635,18,0.5,0.25,35.0,1,1.0,0.9287999999996828
636,18,0.5,0.0625,-35.0,1,0.0,10.69890099999975
637,18,0.5,0.0625,35.0,1,1.0,0.5361009999996895
638,18,0.5,0.25,35.0,1,1.0,6.266200999999455
639,18,0.5,0.0,35.0,-1,0.0,2.5499009999994087
640,18,0.5,0.0,-35.0,1,0.0,9.993400999998812
641,18,0.5,0.25,35.0,1,1.0,0.5372010000000955
642,18,0.5,0.125,-35.0,-1,1.0,0.7505009999995309
643,18,0.5,0.25,-35.0,-1,1.0,8.904301000000487
644,18,0.5,0.25,35.0,1,1.0,0.5045010000003458
645,18,0.5,0.125,35.0,1,1.0,0.7317009999997026
646,18,0.5,1.0,-35.0,-1,1.0,0.4681009999994785
647,18,0.5,1.0,35.0,1,1.0,15.461700999999266
648,18,0.5,0.0625,-35.0,1,0.0,6.769300999999359
649,18,0.6,0.0625,35.0,-1,0.0,11.302700999999615
650,18,0.5,1.0,35.0,1,1.0,0.6300009999986287
651,18,0.5,0.0,-35.0,1,0.0,4.523600999999871
652,18,0.5,0.0,-35.0,1,0.0,7.5841010000003735
653,18,0.5,0.125,35.0,-1,0.0,12.671000999999706
654,18,0.5,0.125,-35.0,1,0.0,0.7013009999991482
655,18,0.5,0.0625,35.0,1,1.0,32.488500999999815
656,18,0.5,0.125,-35.0,1,0.0,6.422900999999001
657,18,0.5,0.0,-35.0,1,0.0,12.876600999999937
658,18,0.8,0.0,-35.0,-1,1.0,15.100400999998783
659,18,0.5,1.0,-35.0,-1,1.0,0.3850009999996473
660,18,0.5,1.0,35.0,-1,0.0,5.24460100000033
661,18,0.5,0.125,-35.0,-1,1.0,0.6649009999991904
662,18,0.5,0.125,-35.0,1,0.0,7.998600999999326
663,18,0.5,0.25,-35.0,-1,1.0,0.49880099999973027
664,18,0.5,0.125,-35.0,1,0.0,10.782200999999077
665,18,0.5,0.0625,35.0,1,1.0,7.44970099999955
666,18,0.5,0.125,-35.0,-1,1.0,0.730000999999902
667,18,0.5,0.0625,-35.0,-1,1.0,0.7733009999992646
668,18,0.5,0.25,-35.0,1,0.0,7.163700999999492
669,18,0.4,0.25,35.0,1,1.0,13.670700999999099
670,18,0.5,1.0,35.0,1,1.0,1.22780099999909
671,18,0.5,0.125,-35.0,-1,1.0,1.7348009999996066
672,18,0.5,0.0625,-35.0,-1,1.0,4.3549009999997
673,18,0.5,0.125,35.0,1,1.0,2.23830099999941
674,18,0.5,0.125,-35.0,-1,1.0,28.095600999999988
675,18,0.5,0.125,-35.0,1,0.0,0.24640099999942322
676,18,0.5,0.0625,-35.0,1,0.0,0.749800999999934
677,18,0.5,0.0,-35.0,-1,1.0,7.9470009999995455
678,18,0.5,0.25,35.0,-1,0.0,8.267100999999457
679,18,0.5,0.125,35.0,1,1.0,1.991001000000324
680,18,0.5,0.0625,35.0,1,1.0,0.4310009999990143
681,18,0.5,1.0,-35.0,-1,1.0,0.4644010000001799
682,18,0.5,0.0625,-35.0,1,0.0,5.928200999999717
683,18,0.5,0.125,-35.0,-1,1.0,3.4915009999995164
684,18,0.5,1.0,-35.0,-1,1.0,0.5785009999999602
685,18,0.5,0.25,-35.0,-1,1.0,0.36580099999900995
686,18,0.5,0.0625,-35.0,1,0.0,46.072000999999545
687,18,0.5,0.0625,-35.0,1,0.0,26.12750099999994
688,18,0.5,0.0625,-35.0,-1,1.0,0.38190099999974336
689,18,0.5,1.0,-35.0,-1,1.0,0.4322010000005321
690,18,0.5,0.25,35.0,1,1.0,0.33860099999947124
691,18,0.5,0.25,-35.0,1,0.0,10.382300999999643
692,18,0.5,0.0625,-35.0,1,0.0,6.002800999999636
693,18,0.5,0.0625,-35.0,-1,1.0,19.333000999999058
694,18,0.5,0.25,-35.0,-1,1.0,0.4005009999991671
695,18,0.5,0.25,35.0,1,1.0,15.69050099999913
696,18,0.5,0.0625,-35.0,1,0.0,4.021300999999767
697,18,0.5,0.0625,35.0,1,1.0,16.458800999999767
698,18,0.5,0.25,-35.0,-1,1.0,0.562500999999429
699,18,0.5,0.25,-35.0,1,0.0,8.452400999999554
700,18,0.5,0.0625,-35.0,-1,1.0,3.3834009999991395
701,18,0.5,0.0625,35.0,1,1.0,5.053200999999717
702,18,0.5,0.0625,-35.0,-1,1.0,13.373601000000235
703,18,0.5,0.125,-35.0,-1,1.0,0.2745009999998729
704,18,0.5,0.0625,35.0,-1,0.0,1.6045009999998001
705,18,0.5,0.125,-35.0,-1,1.0,29.21110100000078
706,18,0.5,0.0625,-35.0,1,0.0,6.172200999999404
707,18,0.4,0.0625,-35.0,-1,1.0,5.88260100000025
708,18,0.5,1.0,35.0,1,1.0,0.8329009999997652
709,18,0.5,0.0625,35.0,-1,0.0,4.8264009999993505
710,18,0.3,0.0625,35.0,1,1.0,10.286700999999994
711,18,0.5,1.0,35.0,1,1.0,0.9038010000003851
712,18,0.5,0.0625,35.0,-1,0.0,4.597600999999486
713,18,0.5,0.0,35.0,-1,0.0,9.790801000000101
714,18,0.4,0.0,35.0,1,1.0,48.961701000000176
715,18,0.5,1.0,35.0,1,1.0,16.103500999998687
716,18,0.5,0.0,-35.0,1,0.0,5.567700999999943
717,18,0.5,0.0625,-35.0,-1,1.0,13.82430099999965
718,18,0.5,0.25,35.0,-1,0.0,12.645100999999158
719,18,0.5,0.25,-35.0,0,0.0,59.94210099999873
720,18,0.5,0.0625,35.0,1,1.0,11.825001000000157
721,18,0.5,0.0625,35.0,-1,0.0,3.2384009999996124
722,18,0.5,0.125,-35.0,1,0.0,25.2890010000001
723,18,0.5,0.0625,-35.0,-1,1.0,13.423500999999305
724,18,0.5,1.0,35.0,1,1.0,0.3770009999998365
725,18,0.5,0.25,-35.0,-1,1.0,0.48410099999910017
726,18,0.5,0.0625,-35.0,-1,1.0,0.6908009999997375
727,18,0.5,0.25,-35.0,-1,1.0,0.957300999999461
728,18,0.5,0.25,35.0,-1,0.0,1.9942009999995207
729,18,0.5,0.125,-35.0,-1,1.0,58.577901000000566
730,18,0.5,1.0,35.0,1,1.0,0.45640199999979814
731,18,0.5,0.0625,35.0,1,1.0,1.3501020000003336
732,18,0.5,0.125,-35.0,-1,1.0,36.197001999998974
733,18,0.5,1.0,-35.0,-1,1.0,0.4051019999997152
734,18,0.5,0.125,35.0,1,1.0,2.1052019999997356
735,18,0.5,0.125,35.0,1,1.0,24.422402000000147
736,18,0.5,0.25,35.0,1,1.0,2.210201999999299
737,18,0.5,0.25,-35.0,-1,1.0,1.7898019999993267
738,18,0.5,0.125,-35.0,1,0.0,26.43340199999875
739,18,0.5,0.0625,-35.0,1,0.0,14.308101999999053
