trial_num,session_num,stim_probability_left,contrast,position,response_choice,trial_correct,reaction_time
1,1,0.5,0.0625,35.0,1,1.0,3.0031
2,1,0.5,0.0625,-35.0,-1,1.0,3.071299999999999
3,1,0.5,0.125,35.0,-1,0.0,1.4587999999999983
4,1,0.5,0.125,-35.0,-1,1.0,3.9160000000000004
5,1,0.5,1.0,-35.0,-1,1.0,3.524899999999999
6,1,0.5,0.0625,-35.0,-1,1.0,1.261999999999997
7,1,0.5,0.125,35.0,-1,0.0,3.6691000000000003
8,1,0.5,0.0625,-35.0,-1,1.0,18.04370000000001
9,1,0.5,0.125,-35.0,-1,1.0,4.063600000000001
10,1,0.5,0.125,35.0,-1,0.0,3.6595999999999833
11,1,0.5,0.0625,-35.0,-1,1.0,0.9983000000000004
12,1,0.5,1.0,35.0,1,1.0,3.217500000000001
13,1,0.5,0.0625,35.0,-1,0.0,1.218999999999994
14,1,0.5,1.0,35.0,1,1.0,2.6003999999999934
15,1,0.5,0.25,35.0,1,1.0,1.9133999999999958
16,1,0.5,0.125,35.0,1,1.0,1.6527999999999992
17,1,0.5,0.0625,-35.0,1,0.0,0.4444999999999908
18,1,0.5,0.0625,-35.0,1,0.0,2.223700000000008
19,1,0.5,1.0,-35.0,-1,1.0,0.21819999999999595
20,1,0.5,0.125,35.0,1,1.0,5.452500000000001
21,1,0.5,0.125,35.0,1,1.0,2.2664999999999935
22,1,0.5,0.125,-35.0,1,0.0,5.167699999999996
23,1,0.5,1.0,-35.0,-1,1.0,0.22929999999999495
24,1,0.5,0.125,-35.0,-1,1.0,0.47800000000000864
25,1,0.5,1.0,35.0,1,1.0,3.0837000000000216
26,1,0.5,0.0,-35.0,-1,1.0,2.608100000000036
27,1,0.5,0.125,35.0,1,1.0,4.49350000000004
28,1,0.5,0.0625,35.0,-1,0.0,0.2965000000000373
29,1,0.5,0.0625,-35.0,1,0.0,3.8117000000000303
30,1,0.5,1.0,35.0,1,1.0,0.5640000000000214
31,1,0.5,1.0,35.0,1,1.0,0.6182000000000301
32,1,0.5,1.0,-35.0,-1,1.0,1.036800000000028
33,1,0.5,1.0,35.0,1,1.0,3.7142000000000337
34,1,0.5,0.0,35.0,1,1.0,1.9755999999999858
35,1,0.5,0.0625,-35.0,1,0.0,1.651200000000017
36,1,0.5,1.0,-35.0,-1,1.0,0.31510000000002947
37,1,0.5,1.0,-35.0,-1,1.0,1.096100000000007
38,1,0.5,0.125,-35.0,1,0.0,3.1111000000000217
39,1,0.5,0.0625,35.0,1,1.0,0.25270000000000437
40,1,0.5,0.125,35.0,1,1.0,0.40569999999999595
41,1,0.5,0.25,-35.0,1,0.0,2.1248999999999967
42,1,0.5,1.0,35.0,1,1.0,0.2703000000000202
43,1,0.5,0.125,-35.0,1,0.0,9.444700000000012
44,1,0.5,0.0625,-35.0,1,0.0,0.5633000000000266
45,1,0.5,0.25,-35.0,-1,1.0,1.0057999999999936
46,1,0.5,1.0,-35.0,1,0.0,4.863700000000023
47,1,0.5,0.0625,-35.0,1,0.0,2.917500000000018
48,1,0.5,0.0625,35.0,1,1.0,0.4005000000000223
49,1,0.5,0.125,35.0,-1,0.0,2.7869999999999777
50,1,0.5,0.25,-35.0,-1,1.0,0.351600000000019
51,1,0.5,0.0625,-35.0,1,0.0,3.901800000000037
52,1,0.5,0.0625,-35.0,-1,1.0,0.3539000000000101
53,1,0.5,0.0625,35.0,-1,0.0,2.1679000000000315
54,1,0.5,0.25,-35.0,1,0.0,8.08019999999999
55,1,0.5,1.0,35.0,1,1.0,0.46489999999994325
56,1,0.5,0.0625,-35.0,1,0.0,4.9220000000000255
57,1,0.5,1.0,-35.0,-1,1.0,6.166899999999998
58,1,0.5,0.125,35.0,1,1.0,5.271300000000053
59,1,0.5,0.0625,35.0,1,1.0,0.4399999999999977
60,1,0.5,0.125,-35.0,1,0.0,2.1170000000000186
61,1,0.5,0.0,35.0,1,1.0,0.370900000000006
62,1,0.5,0.0,-35.0,1,0.0,0.564899999999966
63,1,0.5,1.0,35.0,1,1.0,0.22340000000002647
64,1,0.5,0.25,-35.0,-1,1.0,0.32789999999999964
65,1,0.5,0.0625,35.0,1,1.0,2.4832000000000107
66,1,0.5,0.125,-35.0,-1,1.0,0.31989999999996144
67,1,0.5,0.25,-35.0,1,0.0,0.05900000000002592
68,1,0.5,0.25,35.0,1,1.0,0.24549999999999272
69,1,0.5,0.25,35.0,1,1.0,0.23840000000001282
70,1,0.5,0.0625,-35.0,1,0.0,0.11220000000002983
71,1,0.5,0.0,35.0,1,1.0,0.2662000000000262
72,1,0.5,0.125,35.0,1,1.0,0.4497000000000071
73,1,0.5,0.125,-35.0,1,0.0,2.7229000000000383
74,1,0.5,1.0,35.0,1,1.0,0.3742000000000303
75,1,0.5,1.0,35.0,1,1.0,0.29000000000002046
76,1,0.5,0.0625,35.0,1,1.0,2.651800000000037
77,1,0.5,0.125,-35.0,1,0.0,0.087600000000009
78,1,0.5,0.0625,-35.0,1,0.0,0.23099999999999454
79,1,0.5,0.125,35.0,-1,0.0,0.17070000000001073
80,1,0.5,0.0625,-35.0,1,0.0,0.1845000000000141
81,1,0.5,1.0,35.0,1,1.0,0.26410000000004175
82,1,0.5,1.0,-35.0,-1,1.0,0.29520000000002256
83,1,0.5,0.125,35.0,-1,0.0,0.27700000000004366
84,1,0.5,0.125,35.0,1,1.0,0.22199999999998
85,1,0.5,0.0,35.0,1,1.0,0.34309999999999263
86,1,0.5,0.25,-35.0,-1,1.0,0.26530000000002474
87,1,0.5,0.0,35.0,-1,0.0,0.5754000000000019
88,1,0.5,0.0,-35.0,1,0.0,0.3280000000000314
89,1,0.5,0.25,35.0,1,1.0,0.33559999999999945
90,1,0.5,0.25,-35.0,-1,1.0,0.5221000000000231
91,1,0.2,1.0,35.0,1,1.0,0.24850000000003547
92,1,0.2,0.25,35.0,1,1.0,0.2189999999999941
93,1,0.2,0.0625,35.0,1,1.0,0.1541000000000281
94,1,0.2,0.125,35.0,1,1.0,0.3105000000000473
95,1,0.2,0.125,35.0,1,1.0,0.43959999999998445
96,1,0.2,0.25,35.0,1,1.0,0.310100000000034
97,1,0.2,1.0,35.0,1,1.0,0.1904999999999859
98,1,0.2,1.0,-35.0,1,0.0,0.195699999999988
99,1,0.2,1.0,35.0,1,1.0,0.18510000000003402
100,1,0.2,0.0625,35.0,1,1.0,0.21359999999998536
101,1,0.2,0.25,-35.0,1,0.0,0.22610000000003083
102,1,0.2,0.0625,35.0,-1,0.0,0.3567000000000462
103,1,0.2,0.125,35.0,1,1.0,0.20359999999999445
104,1,0.2,0.0,35.0,1,1.0,0.15910000000002356
105,1,0.2,1.0,35.0,1,1.0,0.1383999999999901
106,1,0.2,0.25,35.0,1,1.0,0.1862000000000421
107,1,0.2,0.0,35.0,1,1.0,0.22500000000002274
108,1,0.2,0.0625,-35.0,1,0.0,0.07679999999999154
109,1,0.2,1.0,35.0,1,1.0,0.13330000000001974
110,1,0.2,0.0625,35.0,1,1.0,0.040300000000002
111,1,0.2,0.125,35.0,-1,0.0,0.6163000000000807
112,1,0.2,0.25,35.0,1,1.0,0.2362999999999147
113,1,0.2,0.0,-35.0,1,0.0,3.2092000000001235
114,1,0.2,0.0,35.0,1,1.0,0.1428000000000793
115,1,0.2,0.0,-35.0,1,0.0,0.25339999999994234
116,1,0.2,0.25,35.0,1,1.0,0.21649999999999636
117,1,0.2,0.25,35.0,1,1.0,0.6342999999999392
118,1,0.2,0.25,35.0,1,1.0,0.1932000000000471
119,1,0.2,1.0,35.0,1,1.0,0.052500000000009095
120,1,0.2,0.25,35.0,1,1.0,0.3894000000000233
121,1,0.2,0.25,-35.0,-1,1.0,0.42259999999998854
122,1,0.2,1.0,35.0,1,1.0,0.26130000000000564
123,1,0.2,0.25,35.0,1,1.0,0.22069999999996526
124,1,0.2,0.0625,-35.0,1,0.0,0.1617999999998574
125,1,0.2,0.25,-35.0,-1,1.0,0.32749999999998636
126,1,0.2,0.0625,35.0,-1,0.0,0.2927000000000817
127,1,0.2,0.0,35.0,1,1.0,0.2963000000000875
128,1,0.2,0.25,35.0,1,1.0,0.14229999999997744
129,1,0.2,0.0625,-35.0,1,0.0,0.2039999999999509
130,1,0.2,0.125,35.0,1,1.0,-0.02259999999989759
131,1,0.8,1.0,-35.0,-1,1.0,0.26679999999998927
132,1,0.8,0.0625,-35.0,1,0.0,0.27759999999989304
133,1,0.8,0.125,-35.0,-1,1.0,0.22030000000006567
134,1,0.8,1.0,-35.0,-1,1.0,0.7994999999999663
135,1,0.8,0.125,-35.0,-1,1.0,0.31989999999996144
136,1,0.8,0.25,-35.0,-1,1.0,0.2904000000000906
137,1,0.8,1.0,-35.0,-1,1.0,0.22190000000011878
138,1,0.8,0.0625,-35.0,-1,1.0,0.44240000000002055
139,1,0.8,0.125,-35.0,-1,1.0,0.23559999999997672
140,1,0.8,0.125,-35.0,-1,1.0,0.20849999999995816
141,1,0.8,0.0625,-35.0,-1,1.0,0.28960000000006403
142,1,0.8,0.125,-35.0,-1,1.0,0.22890000000006694
143,1,0.8,0.0625,35.0,-1,0.0,0.23839999999995598
144,1,0.8,0.125,-35.0,-1,1.0,0.32770000000004984
145,1,0.8,0.125,-35.0,-1,1.0,0.5664000000000442
146,1,0.8,1.0,-35.0,-1,1.0,0.28769999999997253
147,1,0.8,0.25,-35.0,-1,1.0,0.17269999999996344
148,1,0.8,0.25,-35.0,-1,1.0,0.19099999999991724
149,1,0.8,0.0625,35.0,-1,0.0,0.2637999999999465
150,1,0.8,0.25,35.0,-1,0.0,0.14269999999999072
151,1,0.8,1.0,35.0,1,1.0,0.21109999999998763
152,1,0.8,1.0,-35.0,-1,1.0,0.2938000000000329
153,1,0.8,0.125,35.0,1,1.0,0.25480000000004566
154,1,0.8,1.0,-35.0,-1,1.0,0.06780000000003383
155,1,0.8,0.125,-35.0,-1,1.0,0.04750000000012733
156,1,0.8,0.0625,-35.0,1,0.0,0.1388000000000602
157,1,0.8,1.0,-35.0,-1,1.0,0.25689999999997326
158,1,0.8,0.25,-35.0,-1,1.0,0.3018000000000711
159,1,0.8,0.125,-35.0,1,0.0,0.25540000000000873
160,1,0.8,0.0625,-35.0,-1,1.0,0.2557999999999083
161,1,0.8,1.0,35.0,1,1.0,0.2459999999999809
162,1,0.8,0.0,-35.0,-1,1.0,0.2296999999999798
163,1,0.8,0.0625,-35.0,-1,1.0,0.28309999999999036
164,1,0.8,0.125,-35.0,1,0.0,0.19180000000005748
165,1,0.8,0.125,-35.0,-1,1.0,0.41849999999999454
166,1,0.8,0.125,-35.0,-1,1.0,0.3748000000000502
167,1,0.8,0.25,-35.0,-1,1.0,0.2963000000000875
168,1,0.2,0.25,35.0,1,1.0,0.2155999999999949
169,1,0.2,0.0625,35.0,-1,0.0,0.274599999999964
170,1,0.2,0.0625,35.0,-1,0.0,0.29290000000003147
171,1,0.2,0.25,35.0,1,1.0,0.2965000000000373
172,1,0.2,1.0,35.0,1,1.0,0.2716000000000349
173,1,0.2,0.0625,35.0,1,1.0,0.32799999999997453
174,1,0.2,0.25,-35.0,-1,1.0,0.08680000000003929
175,1,0.2,1.0,35.0,1,1.0,0.2519999999999527
176,1,0.2,0.0625,35.0,1,1.0,0.3300000000000409
177,1,0.2,0.0625,35.0,-1,0.0,0.4559999999999036
178,1,0.2,0.25,35.0,1,1.0,0.2478999999999587
179,1,0.2,0.25,35.0,1,1.0,0.23030000000005657
180,1,0.2,0.0625,35.0,1,1.0,0.292699999999968
181,1,0.2,0.0625,35.0,1,1.0,0.26890000000014425
182,1,0.2,0.0625,-35.0,-1,1.0,0.4147000000000389
183,1,0.2,0.0,35.0,1,1.0,0.42410000000006676
184,1,0.2,0.125,35.0,1,1.0,0.1615999999999076
185,1,0.2,0.25,35.0,1,1.0,0.17760000000009768
186,1,0.2,1.0,35.0,1,1.0,0.21400000000005548
187,1,0.2,0.125,35.0,1,1.0,0.25699999999994816
188,1,0.2,1.0,35.0,1,1.0,1.1411000000000513
189,1,0.2,0.125,35.0,1,1.0,0.1997000000000071
190,1,0.2,0.25,35.0,1,1.0,0.23120000000005803
191,1,0.2,0.25,35.0,1,1.0,0.25890000000003965
192,1,0.2,0.0625,35.0,1,1.0,2.4840000000000373
193,1,0.2,0.0625,35.0,1,1.0,0.37379999999996016
194,1,0.2,1.0,35.0,1,1.0,0.30779999999992924
195,1,0.2,0.25,-35.0,-1,1.0,0.36390000000005784
196,1,0.2,0.0625,-35.0,1,0.0,0.2481999999999971
197,1,0.2,0.25,35.0,1,1.0,0.16169999999999618
198,1,0.2,0.125,35.0,1,1.0,0.31380000000001473
199,1,0.2,0.0,-35.0,1,0.0,1.3267000000000735
200,1,0.2,1.0,35.0,1,1.0,0.2037000000000262
201,1,0.2,0.0,35.0,1,1.0,0.42480000000000473
202,1,0.2,0.0625,35.0,1,1.0,0.2256000000000995
203,1,0.2,0.25,35.0,1,1.0,0.21690000000000964
204,1,0.2,0.0,-35.0,1,0.0,0.30370000000004893
205,1,0.2,0.0,35.0,1,1.0,0.19889999999998054
206,1,0.2,0.125,35.0,1,1.0,0.19680000000005293
207,1,0.2,0.125,35.0,1,1.0,0.15189999999995507
208,1,0.2,0.25,35.0,1,1.0,0.21669999999994616
209,1,0.2,1.0,35.0,1,1.0,0.3088999999999942
210,1,0.2,0.125,35.0,1,1.0,0.2015999999999849
211,1,0.2,0.125,-35.0,1,0.0,0.16259999999999764
212,1,0.2,0.125,35.0,1,1.0,0.22200000000009368
213,1,0.2,0.125,35.0,1,1.0,0.6707000000000107
214,1,0.2,0.25,-35.0,-1,1.0,0.4377999999999247
215,1,0.2,0.0625,35.0,1,1.0,0.25880000000006476
216,1,0.2,0.125,35.0,1,1.0,0.22300000000007003
217,1,0.2,0.0,35.0,1,1.0,0.17879999999991014
218,1,0.2,1.0,35.0,1,1.0,0.24889999999993506
219,1,0.2,0.0625,35.0,1,1.0,2.0972000000000435
220,1,0.2,1.0,35.0,1,1.0,0.22289999999998145
221,1,0.2,0.125,35.0,1,1.0,0.28700000000003456
222,1,0.2,1.0,-35.0,1,0.0,0.19190000000003238
223,1,0.2,0.0625,35.0,1,1.0,1.3327000000000453
224,1,0.2,0.0,35.0,1,1.0,0.2821999999999889
225,1,0.2,0.0625,35.0,1,1.0,0.04800000000000182
226,1,0.2,0.25,35.0,1,1.0,0.2779000000000451
227,1,0.2,0.125,35.0,1,1.0,0.25139999999998963
228,1,0.2,0.0625,35.0,1,1.0,0.4913999999999987
229,1,0.2,1.0,35.0,1,1.0,0.1993999999999687
230,1,0.2,1.0,35.0,1,1.0,0.177599999999984
231,1,0.2,0.25,35.0,1,1.0,0.22329999999999472
232,1,0.2,1.0,-35.0,1,0.0,0.11329999999998108
233,1,0.2,0.125,35.0,1,1.0,0.20090000000004693
234,1,0.2,1.0,35.0,1,1.0,0.41440000000011423
235,1,0.8,0.25,-35.0,-1,1.0,0.3420000000000982
236,1,0.8,0.0625,-35.0,1,0.0,0.2939000000000078
237,1,0.8,0.25,-35.0,-1,1.0,0.28719999999998436
238,1,0.8,0.125,-35.0,1,0.0,0.1615999999999076
239,1,0.8,0.0,-35.0,1,0.0,0.19479999999998654
240,1,0.8,1.0,-35.0,1,0.0,0.1511000000000422
241,1,0.8,0.125,-35.0,1,0.0,0.17790000000013606
242,1,0.8,0.125,-35.0,-1,1.0,0.31740000000013424
243,1,0.8,0.25,-35.0,-1,1.0,0.23059999999998126
244,1,0.8,0.125,-35.0,-1,1.0,0.14899999999988722
245,1,0.8,1.0,35.0,-1,0.0,0.27310000000011314
246,1,0.8,0.125,-35.0,-1,1.0,0.27909999999997126
247,1,0.8,0.125,-35.0,-1,1.0,0.03419999999994161
248,1,0.8,1.0,-35.0,-1,1.0,0.2421999999999116
249,1,0.8,0.0625,-35.0,-1,1.0,0.203899999999976
250,1,0.8,1.0,-35.0,-1,1.0,0.2237000000001217
251,1,0.8,0.0,-35.0,-1,1.0,0.3729999999999336
252,1,0.8,0.0625,-35.0,-1,1.0,0.3642000000000962
253,1,0.8,0.125,-35.0,-1,1.0,0.16200000000003456
254,1,0.8,0.125,35.0,1,1.0,0.5349999999999682
255,1,0.8,0.0625,-35.0,1,0.0,0.12950000000000728
256,1,0.8,0.0625,-35.0,-1,1.0,0.27300000000002456
257,1,0.8,0.25,35.0,1,1.0,0.23910000000012133
258,1,0.8,0.125,-35.0,-1,1.0,0.2726000000000113
259,1,0.8,0.125,-35.0,1,0.0,0.17040000000008604
260,1,0.8,0.0625,-35.0,-1,1.0,0.18509999999992033
261,1,0.8,0.125,-35.0,1,0.0,0.165300000000002
262,1,0.8,0.0625,-35.0,1,0.0,0.252399999999966
263,1,0.8,0.25,-35.0,-1,1.0,0.34559999999999036
264,1,0.8,0.0625,-35.0,-1,1.0,0.3127000000000635
265,1,0.8,0.0,-35.0,-1,1.0,0.35609999999996944
266,1,0.8,1.0,-35.0,-1,1.0,1.3463000000001557
267,1,0.8,0.25,-35.0,-1,1.0,0.23310000000014952
268,1,0.8,0.0,-35.0,-1,1.0,0.3602000000000771
269,1,0.8,0.0625,-35.0,-1,1.0,0.22019999999997708
270,1,0.8,1.0,-35.0,-1,1.0,0.25310000000013133
271,1,0.8,0.0625,-35.0,-1,1.0,0.3267000000000735
272,1,0.8,0.125,-35.0,-1,1.0,0.3567000000000462
273,1,0.8,0.25,-35.0,-1,1.0,0.2536999999999807
274,1,0.8,1.0,-35.0,-1,1.0,0.2703000000001339
275,1,0.8,0.125,-35.0,-1,1.0,0.31740000000013424
276,1,0.8,0.125,-35.0,-1,1.0,0.35419999999999163
277,1,0.8,0.25,35.0,1,1.0,0.4574000000000069
278,1,0.8,1.0,35.0,1,1.0,0.22440000000028704
279,1,0.8,0.0625,-35.0,1,0.0,0.2342999999998483
280,1,0.8,1.0,-35.0,-1,1.0,0.27119900000002417
281,1,0.8,0.25,-35.0,-1,1.0,0.3712000000000444
282,1,0.8,1.0,35.0,1,1.0,0.20820000000003347
283,1,0.8,0.125,-35.0,1,0.0,0.2418999999999869
284,1,0.8,0.0625,-35.0,1,0.0,0.3714999999999691
285,1,0.8,0.0,-35.0,1,0.0,0.4852000000000771
286,1,0.8,0.25,-35.0,-1,1.0,0.3953999999998814
287,1,0.8,1.0,-35.0,-1,1.0,0.22859999999991487
288,1,0.8,0.125,-35.0,-1,1.0,0.19209999999998217
289,1,0.8,0.125,-35.0,-1,1.0,0.24569999999994252
290,1,0.8,0.125,-35.0,-1,1.0,0.5155999999999494
291,1,0.8,0.125,-35.0,-1,1.0,0.47250000000008185
292,1,0.8,0.25,-35.0,-1,1.0,0.3326000000001841
293,1,0.8,1.0,-35.0,-1,1.0,0.25280000000020664
294,1,0.8,0.125,-35.0,-1,1.0,0.37969999999995707
295,1,0.8,0.25,-35.0,-1,1.0,0.1896999999999025
296,1,0.8,0.25,-35.0,-1,1.0,0.29330000000004475
297,1,0.8,0.125,-35.0,-1,1.0,0.3103000000000975
298,1,0.8,0.25,-35.0,-1,1.0,0.3002999999998792
299,1,0.8,0.0625,-35.0,1,0.0,0.5504000000000815
300,1,0.8,0.0,-35.0,1,0.0,0.6739000000000033
301,1,0.8,1.0,-35.0,-1,1.0,0.24069999999983338
302,1,0.8,0.25,-35.0,-1,1.0,0.23460000000000036
303,1,0.8,0.125,-35.0,-1,1.0,0.26759999999990214
304,1,0.8,0.0625,-35.0,-1,1.0,0.4877000000001317
305,1,0.8,0.125,-35.0,-1,1.0,0.47440000000005966
306,1,0.8,1.0,-35.0,-1,1.0,0.2579000000000633
307,1,0.8,0.25,-35.0,-1,1.0,0.391399999999976
308,1,0.8,0.0625,-35.0,1,0.0,0.35809999999992215
309,1,0.8,0.25,-35.0,-1,1.0,0.2583999999999378
310,1,0.8,0.25,-35.0,-1,1.0,0.3285000000000764
311,1,0.8,1.0,-35.0,-1,1.0,0.3886000000002241
312,1,0.8,0.125,-35.0,-1,1.0,0.34900000000016007
313,1,0.8,1.0,-35.0,-1,1.0,0.28539999999998145
314,1,0.8,1.0,-35.0,-1,1.0,0.11570000000006075
315,1,0.8,1.0,-35.0,-1,1.0,0.26919999999995525
316,1,0.8,0.125,-35.0,-1,1.0,0.2258999999999105
317,1,0.8,0.125,-35.0,-1,1.0,0.09290000000009968
318,1,0.8,0.125,-35.0,-1,1.0,0.3929000000000542
319,1,0.8,0.0625,-35.0,-1,1.0,0.7231000000001586
320,1,0.8,0.0625,-35.0,-1,1.0,0.32999999999992724
321,1,0.8,0.125,-35.0,-1,1.0,0.3632999999999811
322,1,0.8,1.0,35.0,1,1.0,0.24349999999981264
323,1,0.8,0.25,-35.0,-1,1.0,0.29750000000012733
324,1,0.2,1.0,35.0,1,1.0,0.2636999999999716
325,1,0.2,0.25,35.0,1,1.0,0.277498999999807
326,1,0.2,0.0625,35.0,1,1.0,0.2239999999999327
327,1,0.2,0.125,35.0,1,1.0,0.1812000000002172
328,1,0.2,0.0625,35.0,1,1.0,0.16460000000006403
329,1,0.2,1.0,-35.0,-1,1.0,0.2477000000001226
330,1,0.2,0.0625,35.0,1,1.0,0.08789999999999054
331,1,0.2,0.25,35.0,1,1.0,0.24840000000017426
332,1,0.2,0.0,-35.0,1,0.0,-0.0053999999997813575
333,1,0.2,1.0,35.0,1,1.0,0.18829999999979918
334,1,0.2,0.0625,35.0,1,1.0,0.08170000000018263
335,1,0.2,0.125,35.0,1,1.0,0.15219999999999345
336,1,0.2,0.0625,35.0,1,1.0,0.011899999999968713
337,1,0.2,1.0,35.0,1,1.0,0.16560000000004038
338,1,0.2,0.125,35.0,1,1.0,0.28890000000001237
339,1,0.2,0.125,35.0,1,1.0,0.2657000000001517
340,1,0.2,1.0,35.0,1,1.0,0.14899999999988722
341,1,0.2,0.0625,35.0,1,1.0,0.5423999999998159
342,1,0.2,1.0,35.0,1,1.0,0.02599999999983993
343,1,0.2,0.0625,35.0,1,1.0,0.15259999999989304
344,1,0.2,0.25,-35.0,1,0.0,0.08609999999998763
345,1,0.8,0.125,-35.0,-1,1.0,0.30609999999978754
346,1,0.8,0.125,-35.0,1,0.0,0.17970000000013897
347,1,0.8,0.0625,35.0,-1,0.0,0.2898999999999887
348,1,0.8,0.0625,-35.0,1,0.0,0.3001000000001568
349,1,0.8,0.25,-35.0,1,0.0,0.2137000000000171
350,1,0.8,0.25,-35.0,1,0.0,0.19389999999998508
351,1,0.8,0.0625,-35.0,-1,1.0,0.39030000000002474
352,1,0.8,0.25,-35.0,-1,1.0,0.4338000000000193
353,1,0.8,1.0,-35.0,1,0.0,-0.0027000000000043656
354,1,0.8,0.25,35.0,1,1.0,0.22090000000002874
355,1,0.8,0.0,-35.0,1,0.0,0.054099999999834836
356,1,0.8,0.0625,-35.0,1,0.0,0.24450000000001637
357,1,0.8,0.25,-35.0,1,0.0,0.05780000000004293
358,1,0.8,1.0,-35.0,-1,1.0,0.3547000000000935
359,1,0.8,0.0,-35.0,1,0.0,0.06490000000007967
360,1,0.8,0.0625,-35.0,1,0.0,0.3181999999999334
361,1,0.8,0.25,-35.0,-1,1.0,0.35869999999977153
362,1,0.8,0.0625,-35.0,-1,1.0,0.2817000000000007
363,1,0.8,1.0,-35.0,-1,1.0,0.23540000000002692
364,1,0.8,0.0625,-35.0,-1,1.0,0.07280000000014297
365,1,0.8,1.0,-35.0,-1,1.0,0.22220000000015716
366,1,0.8,0.0625,35.0,-1,0.0,1.4290000000000873
367,1,0.8,0.25,-35.0,-1,1.0,0.2293000000001939
368,1,0.8,0.25,-35.0,-1,1.0,0.2295000000001437
369,1,0.8,0.125,-35.0,-1,1.0,0.4295999999999367
370,1,0.8,0.125,-35.0,-1,1.0,0.5897999999999683
371,1,0.8,0.0,-35.0,1,0.0,0.3464000000001306
372,1,0.8,1.0,-35.0,-1,1.0,0.33320000000003347
373,1,0.8,0.0625,-35.0,1,0.0,0.376700000000028
374,1,0.8,1.0,-35.0,-1,1.0,0.28690000000005966
375,1,0.8,0.125,-35.0,-1,1.0,0.29700000000002547
376,1,0.8,0.125,-35.0,-1,1.0,0.2742000000000644
377,1,0.8,0.125,-35.0,-1,1.0,0.3507999999999356
378,1,0.8,0.125,35.0,1,1.0,0.47410000000013497
379,1,0.8,1.0,35.0,1,1.0,0.23789999999985412
380,1,0.8,1.0,-35.0,-1,1.0,0.35789999999997235
381,1,0.8,1.0,-35.0,-1,1.0,0.23789999999985412
382,1,0.8,0.125,-35.0,1,0.0,0.2878000000002885
383,1,0.8,0.0625,-35.0,1,0.0,0.4148000000000138
384,1,0.8,0.0625,-35.0,1,0.0,0.5181999999999789
385,1,0.8,0.25,35.0,-1,0.0,0.2818999999999505
386,1,0.8,0.25,-35.0,-1,1.0,0.4218999999998232
387,1,0.8,0.25,35.0,1,1.0,0.4719999999997526
388,1,0.8,0.125,-35.0,-1,1.0,0.35560000000009495
389,1,0.8,0.0,-35.0,1,0.0,0.9524000000001251
390,1,0.2,0.25,35.0,1,1.0,0.32900000000017826
391,1,0.2,0.0625,35.0,-1,0.0,0.359000000000151
392,1,0.2,0.0625,35.0,1,1.0,0.23600000000010368
393,1,0.2,0.25,35.0,-1,0.0,0.04969999999980246
394,1,0.2,0.25,-35.0,-1,1.0,0.3427999999998974
395,1,0.2,0.0,35.0,1,1.0,3.659599999999955
396,1,0.2,1.0,35.0,1,1.0,0.27309999999988577
397,1,0.2,1.0,-35.0,-1,1.0,0.7231999999999061
398,1,0.2,0.0625,35.0,1,1.0,0.4335999999998421
399,1,0.2,1.0,-35.0,-1,1.0,0.004000000000132786
400,1,0.2,0.0625,35.0,1,1.0,0.2907000000000153
401,1,0.2,0.125,-35.0,1,0.0,0.16069999999990614
402,1,0.2,0.0625,35.0,1,1.0,0.4840999999998985
403,1,0.2,0.25,35.0,1,1.0,0.18800000000010186
404,1,0.2,1.0,35.0,1,1.0,0.2380999999998039
405,1,0.2,0.25,35.0,1,1.0,0.1711999999999989
406,1,0.2,0.25,35.0,1,1.0,0.1413000000000011
407,1,0.2,0.125,35.0,1,1.0,0.19119999999998072
408,1,0.2,1.0,35.0,1,1.0,0.005099999999856664
409,1,0.2,0.25,35.0,1,1.0,0.1614999999999327
410,1,0.2,0.0,35.0,1,1.0,0.20180000000004839
411,1,0.2,0.0,35.0,1,1.0,0.13200000000006185
412,1,0.2,0.0625,35.0,1,1.0,0.17210000000000036
413,1,0.2,0.0,35.0,1,1.0,0.13210000000003674
414,1,0.2,0.125,35.0,1,1.0,0.2460999999998421
415,1,0.2,0.0625,35.0,1,1.0,0.19910000000004402
416,1,0.2,0.125,35.0,1,1.0,0.2059999999999036
417,1,0.2,1.0,35.0,1,1.0,0.24929999999994834
418,1,0.2,0.0625,-35.0,1,0.0,0.2160999999998694
419,1,0.2,0.25,35.0,1,1.0,0.18650000000025102
420,1,0.2,0.125,-35.0,1,0.0,0.12980000000015934
421,1,0.2,0.0,35.0,-1,0.0,1.000099999999975
422,1,0.2,1.0,35.0,1,1.0,0.2765999999999167
423,1,0.2,0.25,35.0,1,1.0,0.14709999999990941
424,1,0.2,1.0,35.0,1,1.0,0.20710000000008222
425,1,0.2,0.125,35.0,-1,0.0,0.08359999999993306
426,1,0.2,0.125,-35.0,1,0.0,0.23710000000005493
427,1,0.2,0.25,35.0,1,1.0,0.30369999999993524
428,1,0.2,0.125,35.0,1,1.0,0.30060000000025866
429,1,0.2,1.0,35.0,1,1.0,0.2241999999998825
430,1,0.2,0.0,35.0,1,1.0,0.08420000000000982
431,1,0.2,0.125,-35.0,-1,1.0,0.8043999999999869
432,1,0.2,0.25,35.0,1,1.0,0.25119999999992615
433,1,0.2,0.125,35.0,1,1.0,0.31130000000007385
434,1,0.2,0.0625,35.0,1,1.0,0.258199999999988
435,1,0.2,0.0625,35.0,1,1.0,0.18820000000005166
436,1,0.2,1.0,-35.0,-1,1.0,0.3850000000002183
437,1,0.2,0.125,35.0,1,1.0,0.2219000000000051
438,1,0.2,0.25,-35.0,1,0.0,0.1952000000001135
439,1,0.2,0.0625,35.0,1,1.0,0.2855000000001837
440,1,0.2,0.0,35.0,1,1.0,0.17229999999995016
441,1,0.2,1.0,35.0,1,1.0,0.6522999999999683
442,1,0.2,0.25,-35.0,-1,1.0,0.5527000000001863
443,1,0.8,0.125,35.0,1,1.0,0.23980000000028667
444,1,0.8,0.0625,-35.0,1,0.0,0.21280000000001564
445,1,0.8,0.125,-35.0,1,0.0,0.0829999999998563
446,1,0.8,0.125,-35.0,-1,1.0,0.399599999999964
447,1,0.8,0.25,-35.0,-1,1.0,0.6266000000000531
448,1,0.8,0.25,-35.0,-1,1.0,0.8834000000001652
449,1,0.8,0.0625,-35.0,-1,1.0,0.373299999999972
450,1,0.8,0.125,35.0,1,1.0,0.6735000000001037
451,1,0.8,0.0625,-35.0,1,0.0,0.22039999999992688
452,1,0.8,0.125,35.0,1,1.0,0.2773000000001957
453,1,0.8,1.0,-35.0,-1,1.0,0.3005000000000564
454,1,0.8,1.0,-35.0,1,0.0,0.06120000000009895
455,1,0.8,0.25,35.0,1,1.0,0.2743000000000393
456,1,0.8,0.125,35.0,-1,0.0,0.32770000000004984
457,1,0.8,0.0625,-35.0,-1,1.0,0.4377999999999247
458,1,0.8,0.25,-35.0,-1,1.0,0.29130000000009204
459,1,0.8,0.125,-35.0,-1,1.0,0.5147000000001754
460,1,0.8,1.0,35.0,1,1.0,0.23820000000000618
461,1,0.8,0.0,35.0,1,1.0,0.18830000000002656
462,1,0.8,0.25,-35.0,-1,1.0,0.2416000000000622
463,1,0.8,0.25,-35.0,-1,1.0,0.26830000000018117
464,1,0.8,0.125,35.0,1,1.0,0.2692000000001826
465,1,0.8,1.0,-35.0,-1,1.0,0.2821000000001277
466,1,0.8,1.0,-35.0,-1,1.0,0.46869999999989886
467,1,0.8,0.0,35.0,-1,0.0,0.32940000000007785
468,1,0.8,0.0,-35.0,1,0.0,0.31920000000013715
469,1,0.8,0.25,35.0,1,1.0,0.3159000000002834
470,1,0.8,0.25,-35.0,-1,1.0,0.3426999999999225
471,1,0.8,0.0625,-35.0,-1,1.0,0.38599999999996726
472,1,0.8,1.0,-35.0,-1,1.0,0.24280000000021573
473,1,0.8,1.0,-35.0,-1,1.0,0.2565999999997075
474,1,0.8,0.25,-35.0,-1,1.0,0.4332999999999174
475,1,0.8,0.125,-35.0,-1,1.0,0.13979999999992287
476,1,0.8,0.0625,-35.0,-1,1.0,0.8099999999999454
477,1,0.8,0.25,35.0,1,1.0,0.29359999999996944
478,1,0.8,0.25,-35.0,1,0.0,0.2604999999998654
479,1,0.8,0.25,-35.0,-1,1.0,0.4841000000001259
480,1,0.8,1.0,-35.0,-1,1.0,0.3041000000000622
481,1,0.8,0.0625,-35.0,-1,1.0,0.2941000000000713
482,1,0.8,0.0625,-35.0,1,0.0,0.5376000000001113
483,1,0.8,0.25,-35.0,-1,1.0,0.4012000000000171
484,1,0.8,0.25,35.0,1,1.0,0.5010999999999513
485,1,0.8,0.125,-35.0,-1,1.0,0.4415000000001328
486,1,0.2,0.0,35.0,1,1.0,0.43470000000002074
487,1,0.2,1.0,35.0,1,1.0,0.26510000000007494
488,1,0.2,0.0625,35.0,1,1.0,0.35180000000013933
489,1,0.2,1.0,-35.0,1,0.0,0.2255000000002383
490,1,0.2,0.125,35.0,1,1.0,0.23849999999993088
491,1,0.2,0.25,35.0,1,1.0,0.27539999999999054
492,1,0.2,0.125,35.0,1,1.0,0.30549999999993815
493,1,0.2,0.0,-35.0,1,0.0,0.3590999999998985
494,1,0.2,0.0,35.0,1,1.0,8.57950000000028
495,1,0.2,1.0,35.0,1,1.0,0.23959999999988213
496,1,0.2,0.0625,35.0,1,1.0,0.3866000000002714
497,1,0.2,1.0,-35.0,-1,1.0,0.3068000000000666
498,1,0.2,0.125,35.0,1,1.0,0.27660000000014406
499,1,0.2,0.0,35.0,1,1.0,0.31320000000005166
500,1,0.2,0.125,-35.0,-1,1.0,1.3500000000001364
501,1,0.2,0.0,35.0,1,1.0,0.330600000000004
502,1,0.2,0.125,35.0,1,1.0,0.20040000000017244
503,1,0.2,0.0625,35.0,1,1.0,0.3206000000000131
504,1,0.2,0.25,35.0,1,1.0,0.25759999999991123
505,1,0.2,1.0,35.0,1,1.0,0.23110000000019681
506,1,0.2,0.0625,35.0,1,1.0,0.23460000000000036
507,1,0.2,0.0625,35.0,1,1.0,0.25769999999988613
508,1,0.2,0.25,35.0,1,1.0,0.1847000000002481
509,1,0.2,0.0,-35.0,1,0.0,2.4512999999999465
510,1,0.2,1.0,35.0,1,1.0,0.21480000000019572
511,1,0.2,0.125,35.0,1,1.0,0.21489999999994325
512,1,0.2,1.0,35.0,1,1.0,0.2016999999998461
513,1,0.2,0.0,35.0,1,1.0,0.269099999999753
514,1,0.2,0.125,35.0,1,1.0,0.195699999999988
515,1,0.2,0.25,35.0,1,1.0,0.2054000000000542
516,1,0.2,0.0625,35.0,1,1.0,0.235700000000179
517,1,0.2,0.125,35.0,1,1.0,0.16219999999975698
518,1,0.2,0.25,35.0,1,1.0,0.29300000000012005
519,1,0.2,0.125,35.0,1,1.0,0.24270000000001346
520,1,0.2,0.0625,-35.0,1,0.0,0.23310000000014952
521,1,0.2,0.25,-35.0,1,0.0,0.016100000000051296
522,1,0.2,0.0625,35.0,1,1.0,0.19970000000012078
523,1,0.2,0.0625,35.0,1,1.0,0.41660000000001673
524,1,0.2,0.125,-35.0,1,0.0,0.05670000000009168
525,1,0.2,0.125,35.0,1,1.0,0.22000000000025466
526,1,0.2,0.25,-35.0,1,0.0,0.15699999999992542
527,1,0.2,0.0625,35.0,1,1.0,0.23029999999994288
528,1,0.2,0.0625,35.0,1,1.0,0.12049999999999272
529,1,0.2,0.0,35.0,1,1.0,0.20720000000005712
530,1,0.2,0.0625,35.0,1,1.0,0.18399999999996908
531,1,0.2,0.125,35.0,1,1.0,0.19739999999978863
532,1,0.2,0.0,35.0,1,1.0,0.05420000000003711
533,1,0.2,0.125,35.0,-1,0.0,0.15789999999992688
534,1,0.2,0.25,35.0,1,1.0,0.18110000000001492
535,1,0.2,0.25,35.0,1,1.0,0.22489999999993415
536,1,0.2,0.25,-35.0,-1,1.0,0.2647999999999229
537,1,0.2,0.0,35.0,-1,0.0,0.3248999999998432
538,1,0.2,0.125,35.0,1,1.0,0.28160000000002583
539,1,0.2,0.125,35.0,1,1.0,0.14190000000007785
540,1,0.2,1.0,-35.0,-1,1.0,0.328899999999976
541,1,0.2,0.125,-35.0,-1,1.0,0.45880000000011023
542,1,0.2,0.0625,35.0,1,1.0,0.23540000000002692
543,1,0.2,0.0625,35.0,1,1.0,0.17590000000018335
544,1,0.2,0.25,35.0,1,1.0,0.1957999999999629
545,1,0.2,0.0,35.0,1,1.0,0.19290000000000873
546,1,0.2,0.0625,-35.0,1,0.0,0.1292999999998301
547,1,0.2,0.25,35.0,1,1.0,0.3594999999997981
548,1,0.2,0.0625,35.0,-1,0.0,0.8164000000001579
549,1,0.2,0.0625,35.0,1,1.0,0.24639999999999418
550,1,0.2,0.25,35.0,1,1.0,0.22680000000013933
551,1,0.2,1.0,35.0,1,1.0,0.21689999999989595
552,1,0.2,1.0,35.0,1,1.0,0.20359999999982392
553,1,0.2,0.125,35.0,1,1.0,0.21390000000019427
554,1,0.2,0.25,35.0,1,1.0,0.2709999999997308
555,1,0.2,1.0,35.0,1,1.0,0.24090000000023792
556,1,0.2,0.0,-35.0,1,0.0,0.21739999999954307
557,1,0.2,1.0,-35.0,-1,1.0,0.30749999999989086
558,1,0.2,0.0,35.0,-1,0.0,1.2709999999997308
559,1,0.2,0.0625,35.0,1,1.0,0.3344999999999345
560,1,0.2,0.125,35.0,1,1.0,0.45499999999992724
561,1,0.2,1.0,35.0,1,1.0,0.17489999999952488
562,1,0.2,1.0,35.0,1,1.0,0.21199999999953434
563,1,0.2,1.0,35.0,1,1.0,0.20839999999952852
564,1,0.2,0.0625,35.0,-1,0.0,0.2887000000000626
565,1,0.2,0.25,35.0,1,1.0,0.23199999999951615
566,1,0.2,0.125,-35.0,-1,1.0,0.4054999999998472
567,1,0.2,0.125,35.0,1,1.0,0.5122999999998683
568,1,0.2,0.0,35.0,1,1.0,0.23909999999978027
569,1,0.2,0.0625,35.0,1,1.0,0.21929999999974825
570,1,0.2,0.0625,35.0,1,1.0,0.26619999999957145
571,1,0.8,1.0,-35.0,-1,1.0,0.32609999999976935
572,1,0.8,0.25,-35.0,-1,1.0,0.4261999999994259
573,1,0.8,1.0,-35.0,-1,1.0,0.1268000000000029
574,1,0.8,0.0625,-35.0,-1,1.0,0.2466999999996915
575,1,0.8,0.0625,-35.0,-1,1.0,0.19689999999991414
576,1,0.8,0.0,-35.0,-1,1.0,0.21709999999984575
577,1,0.8,0.125,-35.0,-1,1.0,0.37719999999944775
578,1,0.8,1.0,-35.0,-1,1.0,0.24710000000004584
579,1,0.8,0.0625,-35.0,-1,1.0,0.284099999999853
580,1,0.8,0.125,35.0,1,1.0,0.36109999999962383
581,1,0.8,0.125,35.0,-1,0.0,0.317899999999554
582,1,0.8,0.125,-35.0,-1,1.0,0.33439999999973224
583,1,0.8,0.0625,-35.0,-1,1.0,0.2810999999996966
584,1,0.8,0.0625,35.0,1,1.0,0.38140000000021246
585,1,0.8,0.125,-35.0,-1,1.0,0.011400000000321597
586,1,0.8,0.125,-35.0,1,0.0,0.2950999999998203
587,1,0.8,1.0,-35.0,-1,1.0,0.285099999999602
588,1,0.8,0.0625,-35.0,1,0.0,0.3453999999996995
589,1,0.8,0.125,-35.0,-1,1.0,0.3287999999997737
590,1,0.8,0.125,-35.0,-1,1.0,0.34589999999980137
591,1,0.8,0.0,-35.0,-1,1.0,0.3424999999992906
592,1,0.8,1.0,-35.0,-1,1.0,0.23919999999998254
593,1,0.8,0.125,-35.0,-1,1.0,0.38279999999986103
594,1,0.8,0.0625,35.0,1,1.0,0.3562000000001717
595,1,0.8,1.0,35.0,1,1.0,0.2462999999997919
596,1,0.8,0.125,-35.0,-1,1.0,0.41319999999950596
597,1,0.8,0.25,-35.0,-1,1.0,0.2998999999999796
598,1,0.8,0.125,-35.0,-1,1.0,0.3271999999997206
599,1,0.8,0.0625,-35.0,1,0.0,0.39030000000002474
600,1,0.8,1.0,35.0,1,1.0,0.2603999999996631
601,1,0.8,0.25,-35.0,-1,1.0,0.3310999999998785
602,1,0.8,0.25,-35.0,-1,1.0,0.32749999999987267
603,1,0.8,0.125,-35.0,-1,1.0,0.2209999999995489
604,1,0.8,0.25,-35.0,-1,1.0,0.38129999999955544
605,1,0.8,0.0625,35.0,-1,0.0,1.704399999999623
606,1,0.8,0.25,-35.0,-1,1.0,0.3879999999994652
607,1,0.8,0.125,-35.0,1,0.0,0.27149999999983265
608,1,0.8,0.0625,-35.0,1,0.0,0.2548999999994521
609,1,0.8,0.0625,35.0,1,1.0,0.2550999999994019
610,1,0.8,1.0,-35.0,-1,1.0,0.30849999999963984
611,1,0.8,0.125,35.0,1,1.0,4.02179999999953
612,1,0.8,0.0625,-35.0,1,0.0,3.06230000000005
613,1,0.8,0.125,-35.0,1,0.0,0.5323999999995976
614,1,0.8,0.0625,-35.0,1,0.0,0.3894999999997708
615,1,0.8,0.125,-35.0,1,0.0,0.2460000000000946
616,1,0.8,0.25,-35.0,-1,1.0,0.379399999999805
617,1,0.8,0.0,-35.0,-1,1.0,0.3862999999996646
618,1,0.8,0.0625,-35.0,-1,1.0,0.4663999999997941
619,1,0.8,1.0,-35.0,-1,1.0,0.26359999999976935
620,1,0.8,0.0625,-35.0,-1,1.0,0.4665999999997439
621,1,0.8,0.25,-35.0,-1,1.0,0.323399999999765
622,1,0.8,1.0,-35.0,-1,1.0,0.38380000000006476
623,1,0.8,0.125,-35.0,-1,1.0,0.4169000000001688
624,1,0.8,0.0625,35.0,1,1.0,0.4173999999998159
625,1,0.8,0.0625,-35.0,1,0.0,0.45739999999977954
626,1,0.8,0.25,-35.0,-1,1.0,0.44749999999976353
627,1,0.8,0.0625,-35.0,-1,1.0,0.2912999999994099
628,1,0.8,0.0,-35.0,-1,1.0,0.29449999999951615
629,1,0.8,1.0,-35.0,-1,1.0,0.2880000000000109
630,1,0.8,0.25,-35.0,-1,1.0,0.30809999999974025
631,1,0.8,0.25,-35.0,-1,1.0,0.07799999999997453
632,1,0.8,0.125,35.0,1,1.0,0.3114999999993415
633,1,0.8,0.0625,-35.0,-1,1.0,0.4788999999996122
634,1,0.8,0.25,-35.0,-1,1.0,0.24159999999983484
635,1,0.8,0.0625,-35.0,-1,1.0,0.6920000000000073
636,1,0.8,0.25,-35.0,-1,1.0,0.31879999999955544
637,1,0.8,1.0,-35.0,-1,1.0,0.32549999999991996
638,1,0.8,0.0625,-35.0,-1,1.0,0.34889999999950305
639,1,0.8,0.25,-35.0,-1,1.0,0.379399999999805
640,1,0.8,0.125,35.0,1,1.0,0.11589999999978318
641,1,0.8,0.125,35.0,1,1.0,0.3798999999994521
642,1,0.8,0.25,-35.0,1,0.0,0.12989999999990687
643,1,0.8,0.0625,-35.0,1,0.0,0.32659999999941647
644,1,0.8,1.0,-35.0,-1,1.0,0.28350000000000364
645,1,0.8,1.0,-35.0,-1,1.0,0.29029999999966094
646,1,0.8,0.0625,-35.0,-1,1.0,0.17000000000007276
647,1,0.8,1.0,-35.0,-1,1.0,0.2601999999997133
648,1,0.8,1.0,-35.0,-1,1.0,0.28059999999959473
649,1,0.8,0.0625,-35.0,-1,1.0,0.3538000000003194
650,1,0.8,0.125,-35.0,-1,1.0,0.35059999999975844
651,1,0.8,0.125,-35.0,-1,1.0,0.33730000000014115
652,1,0.8,0.125,-35.0,-1,1.0,0.3208999999997104
653,1,0.2,0.125,35.0,1,1.0,0.34130000000004657
654,1,0.2,0.0625,35.0,1,1.0,0.38769999999931315
655,1,0.2,0.25,35.0,1,1.0,0.3245999999999185
656,1,0.2,0.0,35.0,1,1.0,0.30169999999998254
657,1,0.2,0.125,35.0,1,1.0,0.2717000000002372
658,1,0.2,0.0625,35.0,1,1.0,0.1881999999995969
659,1,0.2,0.0625,35.0,-1,0.0,0.31169999999974607
660,1,0.2,0.0625,-35.0,1,0.0,0.7750999999998385
661,1,0.2,0.0625,35.0,1,1.0,0.19909999999981665
662,1,0.2,0.0625,35.0,1,1.0,0.3386999999997897
663,1,0.2,0.25,35.0,1,1.0,0.2688999999995758
664,1,0.2,0.25,35.0,1,1.0,0.26579999999967185
665,1,0.2,0.0625,35.0,1,1.0,0.4495999999999185
666,1,0.2,0.0625,35.0,1,1.0,0.30600000000004
667,1,0.2,0.125,35.0,1,1.0,0.30920000000014625
668,1,0.2,0.125,35.0,1,1.0,0.386098999999831
669,1,0.2,0.0625,35.0,1,1.0,0.2098999999998341
670,1,0.2,1.0,-35.0,-1,1.0,0.3128999999998996
671,1,0.2,0.125,35.0,-1,0.0,0.41989999999941574
672,1,0.2,1.0,-35.0,-1,1.0,0.3831999999997606
673,1,0.2,0.125,-35.0,-1,1.0,0.3370999999997366
674,1,0.2,0.0,-35.0,-1,1.0,0.906999999999698
675,1,0.2,0.0,35.0,-1,0.0,0.45029999999997017
676,1,0.2,0.25,35.0,1,1.0,0.23410000000012587
677,1,0.2,0.0625,35.0,1,1.0,0.2507999999997992
678,1,0.2,0.0625,-35.0,1,0.0,0.1608000000001084
679,1,0.2,0.25,35.0,1,1.0,0.2943999999997686
680,1,0.2,0.0625,-35.0,1,0.0,0.30419999999958236
681,1,0.2,0.25,35.0,1,1.0,0.4908999999997832
682,1,0.2,0.0625,35.0,1,1.0,0.3244999999992615
683,1,0.2,0.125,35.0,1,1.0,0.35789999999997235
684,1,0.2,1.0,35.0,1,1.0,0.3148000000001048
685,1,0.2,1.0,35.0,1,1.0,0.28490000000010696
686,1,0.2,0.25,-35.0,-1,1.0,0.3886999999995169
687,1,0.2,1.0,35.0,1,1.0,0.32829999999967185
688,1,0.2,0.0625,35.0,1,1.0,0.3750999999997475
689,1,0.2,0.125,35.0,1,1.0,0.2988000000000284
690,1,0.2,1.0,-35.0,-1,1.0,0.578899999999976
691,1,0.2,0.0625,35.0,-1,0.0,0.5093999999999141
692,1,0.2,0.0625,35.0,1,1.0,0.29899999999997817
693,1,0.2,0.125,35.0,1,1.0,0.34580000000005384
694,1,0.2,0.25,35.0,1,1.0,0.4657999999999447
695,1,0.2,1.0,35.0,1,1.0,0.3795000000000073
696,1,0.2,1.0,35.0,1,1.0,5.002799999999752
697,1,0.8,0.25,-35.0,1,0.0,7.349899999999707
698,1,0.8,0.125,-35.0,1,0.0,0.35019999999985885
699,1,0.8,0.125,-35.0,1,0.0,0.2668999999996231
700,1,0.8,1.0,-35.0,-1,1.0,0.34700000000020736
701,1,0.8,0.125,-35.0,-1,1.0,0.637199999999666
702,1,0.8,0.125,35.0,1,1.0,7.647199999999884
703,1,0.8,0.125,-35.0,1,0.0,7.324699999999211
704,1,0.8,0.0625,-35.0,1,0.0,16.121299999999792
705,1,0.8,0.125,-35.0,-1,1.0,0.8156999999996515
706,1,0.8,1.0,-35.0,-1,1.0,0.28239999999959764
707,1,0.8,0.0,-35.0,-1,1.0,3.5724999999997635
708,1,0.8,0.0625,-35.0,-1,1.0,0.35599999999976717
709,1,0.8,0.25,-35.0,-1,1.0,0.2729999999996835
710,1,0.8,0.125,-35.0,-1,1.0,0.2561999999998079
711,1,0.8,0.25,35.0,1,1.0,1.3163999999997031
712,1,0.8,0.125,35.0,1,1.0,0.4731999999994514
713,1,0.8,0.125,-35.0,-1,1.0,0.5533000000000357
714,1,0.8,0.0625,-35.0,1,0.0,2.9903999999996813
715,1,0.8,1.0,-35.0,-1,1.0,0.2903999999998632
716,1,0.8,1.0,35.0,1,1.0,0.5275000000001455
717,1,0.8,0.0,-35.0,-1,1.0,18.55709999999999
718,1,0.8,0.125,-35.0,-1,1.0,0.7310999999995147
719,1,0.8,0.0625,35.0,-1,0.0,0.28510000000005675
720,1,0.8,0.25,35.0,1,1.0,0.3249000000000706
721,1,0.8,0.25,-35.0,-1,1.0,0.29819999999972424
722,1,0.8,0.125,35.0,-1,0.0,0.32829999999967185
723,1,0.8,0.125,-35.0,-1,1.0,0.41529999999966094
724,1,0.8,0.25,-35.0,-1,1.0,0.22539999999980864
725,1,0.8,0.0,-35.0,1,0.0,8.345499999999902
726,1,0.8,0.125,-35.0,-1,1.0,0.4394999999999527
727,1,0.8,0.125,-35.0,-1,1.0,0.32940000000007785
728,1,0.8,1.0,-35.0,-1,1.0,0.3731999999999971
729,1,0.8,0.0625,-35.0,-1,1.0,0.2563000000000102
730,1,0.8,1.0,-35.0,-1,1.0,0.2163999999997941
731,1,0.8,0.0,-35.0,-1,1.0,0.3433999999997468
732,1,0.8,0.25,-35.0,-1,1.0,0.233499999999367
733,1,0.8,1.0,-35.0,-1,1.0,0.287199999999757
734,1,0.8,0.25,-35.0,-1,1.0,0.34689999999955035
735,1,0.8,0.25,-35.0,-1,1.0,0.3304000000002816
736,1,0.8,0.0625,-35.0,-1,1.0,0.3271999999997206
737,1,0.8,0.25,-35.0,-1,1.0,0.383900000000267
738,1,0.8,0.0625,-35.0,-1,1.0,0.2842999999998028
739,1,0.8,0.0625,-35.0,-1,1.0,0.31759999999985666
740,1,0.8,0.25,-35.0,-1,1.0,0.2876999999994041
741,1,0.8,0.0625,-35.0,-1,1.0,0.3676999999997861
742,1,0.8,0.25,35.0,1,1.0,0.4044999999996435
743,1,0.8,0.0625,-35.0,-1,1.0,2.6113000000000284
744,1,0.8,1.0,-35.0,-1,1.0,0.2581999999997606
745,1,0.8,0.125,-35.0,-1,1.0,0.35159999999996217
746,1,0.8,0.125,-35.0,-1,1.0,2.8484999999996035
747,1,0.8,0.0625,-35.0,-1,1.0,0.4052999999998974
748,1,0.8,1.0,-35.0,-1,1.0,0.29910000000018044
749,1,0.8,0.25,-35.0,-1,1.0,0.28219999999964784
750,1,0.2,0.25,-35.0,-1,1.0,0.2856000000001586
751,1,0.2,0.25,35.0,1,1.0,0.3989999999994325
752,1,0.2,0.0625,35.0,1,1.0,7.589299999999639
753,1,0.2,0.125,35.0,1,1.0,5.8694000000000415
754,1,0.2,1.0,35.0,1,1.0,0.3269000000000233
755,1,0.2,1.0,-35.0,-1,1.0,0.5764999999996689
756,1,0.2,0.25,35.0,1,1.0,0.2967999999996209
757,1,0.2,0.25,35.0,1,1.0,3.166799999999512
758,1,0.2,0.25,35.0,1,1.0,0.34029999999984284
759,1,0.2,0.0,35.0,1,1.0,0.4704999999999018
760,1,0.2,0.25,35.0,1,1.0,0.28399999999965075
761,1,0.2,0.125,35.0,1,1.0,0.8973999999998341
762,1,0.2,0.125,35.0,1,1.0,1.5108000000000175
763,1,0.2,0.125,35.0,1,1.0,0.3544000000001688
764,1,0.2,1.0,35.0,1,1.0,0.35439999999971405
765,1,0.2,0.0,-35.0,1,0.0,0.3677999999995336
766,1,0.2,0.25,-35.0,1,0.0,0.24839999999994689
767,1,0.2,1.0,35.0,1,1.0,0.28499999999939973
768,1,0.2,1.0,-35.0,-1,1.0,0.44509999999991123
769,1,0.2,1.0,35.0,1,1.0,0.2885000000001128
770,1,0.2,0.125,35.0,1,1.0,0.36849999999958527
771,1,0.2,0.0,35.0,-1,0.0,1.1886999999996988
772,1,0.8,0.0,-35.0,1,0.0,3.862499999999727
773,1,0.8,0.0625,-35.0,-1,1.0,0.626199999999244
774,1,0.8,0.125,-35.0,-1,1.0,0.32569999999986976
775,1,0.8,1.0,35.0,1,1.0,0.38269999999965876
776,1,0.8,1.0,-35.0,-1,1.0,0.3194999999996071
777,1,0.8,0.25,35.0,-1,0.0,2.353099999999813
778,1,0.8,1.0,-35.0,-1,1.0,0.4964999999997417
779,1,0.8,0.0625,-35.0,-1,1.0,0.28639999999950305
780,1,0.8,0.25,-35.0,-1,1.0,0.3499999999994543
781,1,0.8,0.125,-35.0,-1,1.0,0.5367000000001099
782,1,0.8,0.125,-35.0,-1,1.0,0.42020000000002256
783,1,0.8,0.0,-35.0,-1,1.0,0.31029999999964275
784,1,0.8,0.0625,-35.0,-1,1.0,0.38400000000001455
785,1,0.8,0.125,-35.0,-1,1.0,0.6204999999999927
786,1,0.8,0.0625,-35.0,-1,1.0,0.8805999999995038
787,1,0.8,0.25,-35.0,-1,1.0,0.7341999999998734
788,1,0.8,0.25,-35.0,-1,1.0,0.39069999999992433
789,1,0.8,0.25,-35.0,-1,1.0,0.2644000000000233
790,1,0.8,1.0,-35.0,-1,1.0,0.2310999999995147
791,1,0.8,0.125,-35.0,-1,1.0,0.2979000000000269
792,1,0.8,0.25,-35.0,-1,1.0,0.43109999999978754
793,1,0.8,0.25,-35.0,-1,1.0,6.711599999999635
794,1,0.8,0.125,35.0,1,1.0,8.451699999999619
795,1,0.8,1.0,-35.0,-1,1.0,0.2521999999999025
796,1,0.8,0.25,-35.0,-1,1.0,0.2688999999995758
797,1,0.8,1.0,-35.0,-1,1.0,0.2556999999992513
798,1,0.8,0.125,-35.0,-1,1.0,0.28569999999990614
799,1,0.8,0.0,35.0,1,1.0,4.205899999999474
800,1,0.8,0.0,-35.0,1,0.0,10.599599999999555
801,1,0.2,0.25,35.0,1,1.0,0.33679999999958454
802,1,0.2,1.0,35.0,1,1.0,0.3536999999996624
803,1,0.2,0.25,35.0,-1,0.0,14.217399999999998
804,1,0.2,0.0,35.0,1,1.0,0.29100000000016735
805,1,0.2,0.0625,35.0,1,1.0,8.467899999999645
806,1,0.2,0.0,35.0,1,1.0,13.231800000000021
807,1,0.2,0.25,35.0,1,1.0,0.3287999999997737
808,1,0.2,0.0,35.0,1,1.0,40.70879999999988
809,1,0.2,0.0,35.0,1,1.0,11.730699999999615
810,1,0.2,0.0625,35.0,1,1.0,3.6641999999997097
811,1,0.2,1.0,35.0,1,1.0,0.33459999999968204
812,1,0.2,0.0625,35.0,1,1.0,26.26800000000003
813,1,0.2,1.0,35.0,1,1.0,0.30899999999928696
814,1,0.2,0.125,35.0,1,1.0,0.3022999999998319
815,1,0.2,0.125,35.0,1,1.0,0.46909999999979846
816,1,0.2,0.0,35.0,1,1.0,4.48949999999968
817,1,0.2,1.0,35.0,1,1.0,0.3294999999998254
818,1,0.2,0.0625,35.0,1,1.0,4.616499999999633
819,1,0.2,0.0625,35.0,1,1.0,5.0000999999997475
820,1,0.2,0.125,35.0,1,1.0,0.4135000000001128
821,1,0.2,0.125,35.0,1,1.0,0.33059999999977663
822,1,0.2,0.125,35.0,1,1.0,2.820799999999963
823,1,0.2,1.0,-35.0,-1,1.0,0.24419999999963693
824,1,0.2,1.0,35.0,1,1.0,0.5077000000001135
825,1,0.2,0.0625,35.0,1,1.0,14.047499999999673
826,1,0.2,0.0625,35.0,1,1.0,29.5016999999998
827,1,0.2,0.0,35.0,1,1.0,2.746099999999842
828,1,0.2,0.125,35.0,1,1.0,0.5495999999998276
829,1,0.2,1.0,35.0,1,1.0,0.4632000000001426
830,1,0.2,0.125,-35.0,-1,1.0,0.3632999999999811
831,1,0.2,0.25,35.0,1,1.0,0.38029999999980646
832,1,0.2,1.0,35.0,1,1.0,11.837199999999939
833,1,0.8,1.0,-35.0,-1,1.0,0.37419999999974607
834,1,0.8,1.0,-35.0,-1,1.0,0.3375999999998385
835,1,0.8,0.125,-35.0,-1,1.0,0.9909000000002379
836,1,0.8,0.125,-35.0,-1,1.0,0.2743000000000393
837,1,0.8,0.125,-35.0,-1,1.0,0.38449999999966167
838,1,0.8,0.125,-35.0,-1,1.0,0.4410999999995511
839,1,0.8,0.0625,-35.0,-1,1.0,2.091299999999592
840,1,0.8,0.0625,35.0,1,1.0,34.10850000000028
841,1,0.8,1.0,-35.0,-1,1.0,0.3193999999998596
842,1,0.8,0.25,-35.0,-1,1.0,0.28960000000006403
843,1,0.8,1.0,-35.0,-1,1.0,0.24639999999999418
844,1,0.8,0.125,-35.0,-1,1.0,0.2898000000000138
845,1,0.8,0.125,-35.0,-1,1.0,0.39330000000018117
846,1,0.8,0.0625,-35.0,-1,1.0,0.39029999999957
847,1,0.8,0.25,-35.0,-1,1.0,3.4833999999996195
848,1,0.8,0.25,-35.0,-1,1.0,0.25369999999975335
849,1,0.8,0.125,-35.0,-1,1.0,0.3738000000003012
850,1,0.8,0.0625,-35.0,-1,1.0,5.990499999999884
851,1,0.8,1.0,35.0,1,1.0,3.887699999999768
852,1,0.8,1.0,-35.0,-1,1.0,0.27129999999988286
853,1,0.8,0.0,-35.0,-1,1.0,0.2812999999996464
854,1,0.8,0.125,-35.0,-1,1.0,0.49839999999949214
855,1,0.8,0.0625,-35.0,1,0.0,11.95849999999973
856,1,0.8,0.125,-35.0,-1,1.0,0.3853999999996631
857,1,0.8,0.0,-35.0,1,0.0,14.298800000000028
858,1,0.8,0.125,35.0,1,1.0,28.126000000000204
859,1,0.8,0.0,-35.0,1,0.0,0.40069999999968786
860,1,0.8,1.0,-35.0,-1,1.0,0.4375999999992928
861,1,0.8,0.125,35.0,-1,0.0,0.19459999999980937
862,1,0.8,0.0625,-35.0,1,0.0,0.3008999999997286
863,1,0.8,0.25,-35.0,-1,1.0,0.36109999999962383
864,1,0.8,0.125,35.0,-1,0.0,0.19790000000011787
865,1,0.8,0.25,-35.0,-1,1.0,0.3046999999996842
866,1,0.8,0.25,-35.0,-1,1.0,0.304899999999634
867,1,0.8,0.25,-35.0,-1,1.0,0.28159999999979846
868,1,0.8,0.0,-35.0,-1,1.0,0.3556999999996151
869,1,0.8,0.0625,-35.0,-1,1.0,0.29179999999996653
870,1,0.8,0.0,35.0,-1,0.0,1.0119999999997162
871,1,0.8,0.25,-35.0,-1,1.0,0.16559999999935826
872,1,0.8,1.0,35.0,1,1.0,0.3550999999997657
873,1,0.8,0.25,-35.0,-1,1.0,32.8484999999996
874,1,0.8,0.0,-35.0,-1,1.0,0.3364999999998872
875,1,0.8,0.25,-35.0,-1,1.0,0.2666999999996733
876,1,0.8,0.125,-35.0,-1,1.0,0.2567000000003645
877,1,0.8,0.125,-35.0,-1,1.0,0.23019999999951324
878,1,0.2,0.125,35.0,-1,0.0,0.4137000000000626
879,1,0.2,0.0625,35.0,-1,0.0,0.36720000000013897
880,1,0.2,0.0625,35.0,1,1.0,0.5273999999994885
881,1,0.2,0.125,35.0,-1,0.0,3.4807999999998174
882,1,0.2,0.0,35.0,-1,0.0,5.577800000000025
883,1,0.2,0.125,35.0,1,1.0,0.6548999999995431
884,1,0.2,0.125,35.0,1,1.0,18.691600000000108
885,1,0.2,0.125,35.0,1,1.0,0.34560000000010405
886,1,0.2,0.125,35.0,1,1.0,9.90249999999969
887,1,0.2,0.125,35.0,1,1.0,14.802899999999227
888,1,0.2,0.125,35.0,1,1.0,0.32349999999996726
889,1,0.2,0.0625,35.0,1,1.0,0.6035999999994601
890,1,0.2,1.0,35.0,1,1.0,8.023899999999685
891,1,0.2,0.125,-35.0,-1,1.0,0.45089999999981956
892,1,0.2,0.0,35.0,1,1.0,12.020899999999983
893,1,0.2,0.0625,35.0,1,1.0,19.15819999999985
894,1,0.2,1.0,35.0,1,1.0,0.3457000000003063
895,1,0.2,0.0625,-35.0,-1,1.0,0.41909999999961656
896,1,0.2,0.125,35.0,1,1.0,0.8058999999998377
897,1,0.2,1.0,35.0,1,1.0,0.42259999999987485
898,1,0.2,0.0,35.0,1,1.0,38.369499999999334
899,1,0.2,0.125,35.0,1,1.0,0.664299999999912
900,1,0.2,0.0625,35.0,-1,0.0,10.294399999999769
901,1,0.2,0.125,35.0,1,1.0,0.3548999999998159
902,1,0.2,0.25,35.0,1,1.0,23.481700000000274
903,1,0.2,0.0625,35.0,0,0.0,59.94260099999974
904,1,0.2,1.0,35.0,1,1.0,0.20000099999924714
905,1,0.2,0.25,35.0,-1,0.0,8.833000999999967
906,1,0.2,0.125,35.0,1,1.0,0.35040099999969243
907,1,0.2,0.125,35.0,1,1.0,9.670300999999654
908,1,0.2,0.0,-35.0,1,0.0,12.327400999999554
909,1,0.2,1.0,35.0,1,1.0,0.38800099999980375
910,1,0.2,0.125,-35.0,-1,1.0,0.6847010000001319
911,1,0.2,0.25,35.0,1,1.0,22.69150099999979
912,1,0.2,1.0,35.0,1,1.0,10.289100999999846
913,1,0.8,0.25,-35.0,-1,1.0,1.9895009999995636
914,1,0.8,0.25,35.0,1,1.0,0.6364009999997506
915,1,0.8,0.25,-35.0,-1,1.0,0.31320099999993545
916,1,0.8,0.25,-35.0,-1,1.0,0.4533010000000104
917,1,0.8,0.0625,-35.0,-1,1.0,14.353501000000051
918,1,0.8,0.125,35.0,-1,0.0,1.5874009999997725
919,1,0.8,0.125,-35.0,-1,1.0,0.3976010000005772
920,1,0.8,0.0,-35.0,-1,1.0,3.524601000000075
921,1,0.8,1.0,35.0,-1,0.0,17.31460100000004
922,1,0.8,0.125,-35.0,-1,1.0,0.44539999999960855
1,2,0.5,0.125,35.0,-1,0.0,2.9024
2,2,0.5,0.0625,-35.0,-1,1.0,0.4158999999999997
3,2,0.5,0.125,-35.0,1,0.0,1.6540999999999997
4,2,0.5,0.25,35.0,1,1.0,0.3152000000000008
5,2,0.5,0.0625,-35.0,-1,1.0,2.5340999999999987
6,2,0.5,0.25,35.0,-1,0.0,5.515099999999997
7,2,0.5,0.0,-35.0,-1,1.0,1.4810000000000016
8,2,0.5,0.0625,35.0,-1,0.0,0.3772999999999982
9,2,0.5,0.25,-35.0,-1,1.0,0.37289999999999424
10,2,0.5,0.0625,35.0,-1,0.0,7.311199999999992
11,2,0.5,0.125,35.0,1,1.0,0.26890000000000214
12,2,0.5,0.125,-35.0,1,0.0,13.130499999999998
13,2,0.5,0.0,-35.0,-1,1.0,2.8837000000000046
14,2,0.5,0.0625,-35.0,-1,1.0,0.41030000000000655
15,2,0.5,0.125,-35.0,-1,1.0,0.4783000000000044
16,2,0.5,1.0,-35.0,-1,1.0,0.3399000000000001
17,2,0.5,0.125,-35.0,1,0.0,0.5359000000000123
18,2,0.5,0.0625,-35.0,-1,1.0,2.0294999999999987
19,2,0.5,1.0,35.0,-1,0.0,2.7827999999999946
20,2,0.5,0.0,35.0,-1,0.0,2.8081000000000103
21,2,0.5,0.0625,-35.0,-1,1.0,2.7083000000000084
22,2,0.5,0.0,-35.0,-1,1.0,3.798400000000015
23,2,0.5,0.125,35.0,-1,0.0,0.7941000000000003
24,2,0.5,0.125,35.0,1,1.0,0.5102000000000118
25,2,0.5,0.0625,-35.0,-1,1.0,2.5645000000000095
26,2,0.5,0.25,-35.0,-1,1.0,6.55210000000001
27,2,0.5,1.0,35.0,-1,0.0,0.2727000000000146
28,2,0.5,0.0,-35.0,-1,1.0,1.9620999999999924
29,2,0.5,0.25,35.0,-1,0.0,3.819699999999983
30,2,0.5,0.125,35.0,-1,0.0,0.6312999999999818
31,2,0.5,0.0625,-35.0,-1,1.0,3.2734000000000094
32,2,0.5,1.0,35.0,1,1.0,0.44549999999998136
33,2,0.5,0.25,35.0,-1,0.0,0.40859999999997854
34,2,0.5,1.0,35.0,-1,0.0,0.14570000000000505
35,2,0.5,0.125,35.0,-1,0.0,1.1043999999999699
36,2,0.5,0.0,35.0,-1,0.0,7.462199999999967
37,2,0.5,0.0625,35.0,1,1.0,1.487799999999993
38,2,0.5,0.25,-35.0,-1,1.0,0.17719999999997071
39,2,0.5,0.25,-35.0,-1,1.0,5.551700000000011
40,2,0.5,1.0,-35.0,-1,1.0,0.7198999999999955
41,2,0.5,0.0625,35.0,-1,0.0,4.8393999999999835
42,2,0.5,1.0,-35.0,-1,1.0,0.3185000000000002
43,2,0.5,0.125,-35.0,-1,1.0,0.31989999999998986
44,2,0.5,0.0625,35.0,-1,0.0,0.15149999999999864
45,2,0.5,0.0625,35.0,-1,0.0,2.4750999999999976
46,2,0.5,1.0,35.0,-1,0.0,3.1266000000000247
47,2,0.5,0.25,-35.0,-1,1.0,0.26149999999998386
48,2,0.5,1.0,35.0,-1,0.0,6.711199999999991
49,2,0.5,0.25,35.0,-1,0.0,0.5635999999999797
50,2,0.5,0.0625,-35.0,-1,1.0,11.634600000000006
51,2,0.5,0.0,-35.0,-1,1.0,5.593200000000024
52,2,0.5,0.0625,-35.0,-1,1.0,0.6835000000000377
53,2,0.5,0.0625,35.0,-1,0.0,1.959799999999973
54,2,0.5,0.0,-35.0,-1,1.0,2.0762000000000285
55,2,0.5,1.0,-35.0,-1,1.0,0.853999999999985
56,2,0.5,0.0625,-35.0,-1,1.0,2.682700000000011
57,2,0.5,0.125,-35.0,-1,1.0,1.2516999999999712
58,2,0.5,0.0,-35.0,-1,1.0,1.3606999999999516
59,2,0.5,0.25,35.0,-1,0.0,0.5333999999999719
60,2,0.5,1.0,35.0,-1,0.0,0.25240000000002283
61,2,0.5,0.25,35.0,-1,0.0,3.562400000000025
62,2,0.5,1.0,-35.0,-1,1.0,0.299000000000035
63,2,0.5,1.0,35.0,-1,0.0,7.348199999999963
64,2,0.5,0.0,35.0,-1,0.0,3.15930000000003
65,2,0.5,0.0625,-35.0,-1,1.0,4.1924000000000206
66,2,0.5,1.0,35.0,1,1.0,0.2697000000000003
67,2,0.5,0.25,-35.0,-1,1.0,0.6698999999999842
68,2,0.5,0.25,-35.0,-1,1.0,0.20879999999999654
69,2,0.5,0.0625,-35.0,-1,1.0,1.6223999999999705
70,2,0.5,0.125,35.0,-1,0.0,5.925799999999981
71,2,0.5,0.125,35.0,-1,0.0,1.7171999999999912
72,2,0.5,0.0,-35.0,-1,1.0,3.3964000000000283
73,2,0.5,0.0625,35.0,-1,0.0,2.412900000000036
74,2,0.5,0.25,-35.0,-1,1.0,3.7063999999999737
75,2,0.5,0.125,35.0,-1,0.0,1.918200000000013
76,2,0.5,1.0,-35.0,-1,1.0,0.3591999999999871
77,2,0.5,0.125,-35.0,-1,1.0,0.9248999999999796
78,2,0.5,0.25,-35.0,-1,1.0,4.258399999999995
79,2,0.5,0.25,35.0,-1,0.0,1.3347990000000323
80,2,0.5,1.0,-35.0,-1,1.0,0.3295999999999708
81,2,0.5,0.0625,-35.0,-1,1.0,1.4628000000000156
82,2,0.5,0.125,-35.0,-1,1.0,0.3580000000000041
83,2,0.5,0.125,35.0,-1,0.0,0.40900000000004866
84,2,0.5,0.0,35.0,-1,0.0,7.993900000000053
85,2,0.5,1.0,35.0,-1,0.0,0.6128999999999678
86,2,0.5,0.25,35.0,-1,0.0,4.172499999999957
87,2,0.5,1.0,35.0,-1,0.0,5.908499999999947
88,2,0.5,0.125,35.0,-1,0.0,0.44899999999995543
89,2,0.5,1.0,35.0,1,1.0,0.4855000000000018
90,2,0.5,0.0625,35.0,-1,0.0,7.845999999999947
91,2,0.8,0.125,-35.0,-1,1.0,0.2884999999999991
92,2,0.8,0.25,-35.0,-1,1.0,2.68689999999998
93,2,0.8,0.125,-35.0,-1,1.0,1.6920999999999822
94,2,0.8,1.0,-35.0,-1,1.0,0.6370999999999754
95,2,0.8,0.125,-35.0,-1,1.0,5.338599999999985
96,2,0.8,0.0625,-35.0,-1,1.0,1.3293999999999642
97,2,0.8,0.0625,-35.0,-1,1.0,0.38129999999995334
98,2,0.8,0.25,-35.0,-1,1.0,3.6524
99,2,0.8,0.25,35.0,1,1.0,0.46409999999997353
100,2,0.8,0.0625,35.0,-1,0.0,3.3448000000000206
101,2,0.8,1.0,-35.0,-1,1.0,0.24500000000000455
102,2,0.8,1.0,-35.0,-1,1.0,0.7031000000000063
103,2,0.8,0.125,-35.0,-1,1.0,0.35489999999998645
104,2,0.8,0.25,-35.0,-1,1.0,0.2884999999999991
105,2,0.8,0.0625,-35.0,-1,1.0,2.796199999999999
106,2,0.8,0.125,-35.0,-1,1.0,0.23029999999999973
107,2,0.8,0.0625,-35.0,-1,1.0,0.1997000000000071
108,2,0.8,0.125,-35.0,-1,1.0,0.29120000000011714
109,2,0.8,0.0625,-35.0,-1,1.0,2.2368000000000166
110,2,0.8,0.0625,-35.0,-1,1.0,3.942600000000084
111,2,0.8,0.0625,35.0,-1,0.0,2.520399999999995
112,2,0.8,0.0625,35.0,-1,0.0,2.749200000000087
113,2,0.8,0.0625,35.0,-1,0.0,0.7557000000000471
114,2,0.8,0.0625,-35.0,-1,1.0,0.16400000000010095
115,2,0.8,0.0625,-35.0,-1,1.0,0.24699999999995725
116,2,0.8,0.125,-35.0,-1,1.0,0.26320000000009713
117,2,0.8,0.25,-35.0,-1,1.0,0.25729999999998654
118,2,0.8,0.0,-35.0,-1,1.0,4.016200000000026
119,2,0.8,1.0,-35.0,-1,1.0,0.6557999999999993
120,2,0.8,0.25,-35.0,-1,1.0,0.318700000000149
121,2,0.8,1.0,-35.0,-1,1.0,0.3406999999999698
122,2,0.8,1.0,-35.0,-1,1.0,0.27330000000006294
123,2,0.8,1.0,-35.0,-1,1.0,0.6896000000000413
124,2,0.8,0.25,35.0,-1,0.0,0.29129999999997835
125,2,0.8,0.0625,-35.0,-1,1.0,0.48270000000013624
126,2,0.8,1.0,-35.0,-1,1.0,1.5045000000000073
127,2,0.8,0.0625,-35.0,-1,1.0,0.2823999999999387
128,2,0.8,0.25,35.0,-1,0.0,0.7372000000000298
129,2,0.8,0.25,-35.0,-1,1.0,0.24620000000004438
130,2,0.8,0.0625,-35.0,-1,1.0,0.4555000000000291
131,2,0.8,0.125,-35.0,-1,1.0,0.44889900000009675
132,2,0.8,1.0,-35.0,-1,1.0,0.6736999999999398
133,2,0.8,1.0,-35.0,-1,1.0,0.16450000000008913
134,2,0.8,0.0625,-35.0,-1,1.0,0.7523000000001048
135,2,0.8,0.125,-35.0,-1,1.0,0.7371999999999161
136,2,0.8,1.0,35.0,-1,0.0,0.8435000000000628
137,2,0.8,0.25,-35.0,-1,1.0,0.28899999999998727
138,2,0.8,1.0,-35.0,-1,1.0,0.2823000000000775
139,2,0.8,0.0625,-35.0,-1,1.0,3.024900000000116
140,2,0.8,0.125,-35.0,-1,1.0,0.24540000000001783
141,2,0.8,0.25,35.0,-1,0.0,2.4978000000000975
142,2,0.8,0.0625,-35.0,-1,1.0,0.7891000000000759
143,2,0.8,0.25,-35.0,-1,1.0,0.27880000000004657
144,2,0.8,0.25,-35.0,-1,1.0,0.22890000000006694
145,2,0.8,1.0,-35.0,-1,1.0,0.50100000000009
146,2,0.8,0.0,35.0,-1,0.0,3.6305999999999585
147,2,0.8,0.125,35.0,-1,0.0,0.24459999999999127
148,2,0.8,0.25,-35.0,-1,1.0,0.35170000000005075
149,2,0.8,0.25,-35.0,-1,1.0,0.2725000000000364
150,2,0.8,0.25,-35.0,-1,1.0,0.2960000000000491
151,2,0.8,0.25,-35.0,-1,1.0,0.5375999999999976
152,2,0.8,0.0625,-35.0,-1,1.0,0.4514000000000351
153,2,0.8,0.125,-35.0,-1,1.0,0.7005000000000337
154,2,0.8,0.25,-35.0,-1,1.0,0.05739999999991596
155,2,0.8,0.0,-35.0,-1,1.0,2.42349999999999
156,2,0.8,1.0,35.0,-1,0.0,0.5750000000000455
157,2,0.8,0.25,-35.0,-1,1.0,0.11110000000007858
158,2,0.8,0.0625,-35.0,-1,1.0,0.23889999999994416
159,2,0.8,0.0625,-35.0,-1,1.0,3.0827000000000453
160,2,0.8,1.0,-35.0,-1,1.0,0.2095000000000482
161,2,0.8,0.0625,-35.0,-1,1.0,1.5529000000000224
162,2,0.8,0.0,-35.0,-1,1.0,0.3704999999999927
163,2,0.8,0.0,-35.0,-1,1.0,1.017500000000041
164,2,0.8,0.125,-35.0,-1,1.0,0.20090000000004693
165,2,0.8,0.125,-35.0,-1,1.0,0.24900000000013733
166,2,0.8,1.0,-35.0,-1,1.0,0.9553999999999405
167,2,0.2,0.125,35.0,-1,0.0,0.23650000000009186
168,2,0.2,0.125,35.0,-1,0.0,0.09989999999993415
169,2,0.2,1.0,-35.0,-1,1.0,0.19200000000000728
170,2,0.2,0.0625,35.0,-1,0.0,0.2456000000000813
171,2,0.2,0.125,35.0,-1,0.0,0.3664999999999736
172,2,0.2,0.25,35.0,-1,0.0,0.17170000000010077
173,2,0.2,0.0625,35.0,1,1.0,10.293600000000083
174,2,0.2,0.0,35.0,-1,0.0,2.34030000000007
175,2,0.2,1.0,35.0,-1,0.0,0.30310000000008586
176,2,0.2,0.0625,35.0,-1,0.0,0.217600000000175
177,2,0.2,0.125,35.0,1,1.0,0.9817000000000462
178,2,0.2,0.125,35.0,-1,0.0,7.948000000000093
179,2,0.2,0.0,35.0,-1,0.0,0.2157000000000835
180,2,0.2,0.125,35.0,1,1.0,0.32130000000006476
181,2,0.2,1.0,35.0,-1,0.0,8.43470000000002
182,2,0.2,0.125,-35.0,1,0.0,0.4330999999999676
183,2,0.2,0.0625,-35.0,-1,1.0,0.6371000000000322
184,2,0.2,1.0,-35.0,-1,1.0,0.1691000000000713
185,2,0.2,1.0,-35.0,-1,1.0,2.206199999999967
186,2,0.2,0.25,35.0,-1,0.0,9.150700000000143
187,2,0.2,0.25,35.0,1,1.0,1.964800000000082
188,2,0.2,0.0,35.0,-1,0.0,2.0032000000001062
189,2,0.2,0.0625,35.0,-1,0.0,3.1468999999999596
190,2,0.2,0.125,35.0,-1,0.0,3.632900000000177
191,2,0.2,0.25,35.0,1,1.0,5.3458000000001675
192,2,0.2,0.0625,35.0,-1,0.0,2.530200000000036
193,2,0.2,0.0,35.0,-1,0.0,5.705900000000042
194,2,0.2,0.125,35.0,-1,0.0,6.138899999999921
195,2,0.2,0.125,35.0,1,1.0,2.812000000000012
196,2,0.2,0.125,35.0,-1,0.0,3.7344000000000506
197,2,0.2,0.0625,35.0,-1,0.0,1.4138000000000375
198,2,0.2,1.0,-35.0,-1,1.0,0.6288999999999305
199,2,0.2,0.0625,35.0,-1,0.0,0.5353000000001202
200,2,0.2,0.0625,35.0,-1,0.0,0.7971000000000004
201,2,0.2,0.25,35.0,1,1.0,0.22210000000006858
202,2,0.2,1.0,35.0,1,1.0,0.9518990000000258
203,2,0.2,1.0,35.0,-1,0.0,2.3213000000000648
204,2,0.2,0.0625,-35.0,-1,1.0,8.9224999999999
205,2,0.2,0.125,-35.0,-1,1.0,0.38750000000015916
206,2,0.2,0.125,35.0,-1,0.0,8.661100000000147
207,2,0.8,1.0,35.0,1,1.0,0.5180000000000291
208,2,0.8,0.0,-35.0,-1,1.0,9.835500000000138
209,2,0.8,0.25,-35.0,-1,1.0,0.3813999999999851
210,2,0.8,0.0625,-35.0,-1,1.0,2.111500000000092
211,2,0.8,1.0,-35.0,-1,1.0,5.620500000000106
212,2,0.8,0.0,-35.0,-1,1.0,0.2033000000001266
213,2,0.8,1.0,-35.0,-1,1.0,4.2812000000000126
214,2,0.8,0.125,-35.0,-1,1.0,0.8623999999999796
215,2,0.8,1.0,35.0,-1,0.0,2.849199999999996
216,2,0.8,0.0625,-35.0,-1,1.0,0.9069000000000642
217,2,0.8,0.25,35.0,-1,0.0,-0.036899999999945976
218,2,0.8,0.25,35.0,-1,0.0,0.36340000000006967
219,2,0.8,0.25,-35.0,-1,1.0,0.18020000000001346
220,2,0.8,0.0625,-35.0,-1,1.0,0.27700000000015734
221,2,0.8,1.0,-35.0,-1,1.0,0.3504000000001497
222,2,0.8,0.0,-35.0,-1,1.0,1.6171000000000504
223,2,0.8,0.125,35.0,-1,0.0,4.614000000000033
224,2,0.8,0.125,-35.0,-1,1.0,0.21109999999998763
225,2,0.8,0.0625,-35.0,-1,1.0,3.5877000000000407
226,2,0.8,1.0,-35.0,-1,1.0,0.25119999999992615
227,2,0.8,0.0625,-35.0,-1,1.0,0.36809999999991305
228,2,0.8,0.125,-35.0,-1,1.0,0.2583999999999378
229,2,0.8,1.0,-35.0,-1,1.0,0.22139999999990323
230,2,0.8,0.25,-35.0,-1,1.0,0.2183999999997468
231,2,0.8,0.0625,-35.0,-1,1.0,0.21169999999983702
232,2,0.8,0.125,-35.0,-1,1.0,0.34180000000014843
233,2,0.8,0.0,-35.0,-1,1.0,0.38580000000001746
234,2,0.8,0.125,35.0,-1,0.0,0.3022000000000844
235,2,0.8,0.25,-35.0,-1,1.0,0.2420999999999367
236,2,0.8,0.25,35.0,-1,0.0,0.045499999999719876
237,2,0.8,1.0,-35.0,-1,1.0,0.19919999999979154
238,2,0.8,0.125,-35.0,-1,1.0,1.0625
239,2,0.8,0.0,35.0,-1,0.0,0.23919999999998254
240,2,0.8,0.125,-35.0,-1,1.0,0.2626000000000204
241,2,0.8,0.0,-35.0,-1,1.0,0.07979999999997744
242,2,0.8,0.25,35.0,-1,0.0,0.28029999999967004
243,2,0.8,1.0,35.0,-1,0.0,0.23300000000017462
244,2,0.8,0.125,-35.0,-1,1.0,0.18649999999979627
245,2,0.8,0.0,-35.0,-1,1.0,0.8432999999999993
246,2,0.8,0.0625,-35.0,-1,1.0,0.1635999999998603
247,2,0.8,0.0625,35.0,-1,0.0,3.4101999999998043
248,2,0.2,0.0625,35.0,-1,0.0,5.630500999999867
249,2,0.2,0.0,35.0,-1,0.0,0.24430099999995036
250,2,0.2,0.125,35.0,-1,0.0,5.48130100000003
251,2,0.2,0.0625,35.0,-1,0.0,3.501600999999937
252,2,0.2,0.25,35.0,-1,0.0,8.358300999999983
253,2,0.2,0.25,-35.0,-1,1.0,0.2518009999998867
254,2,0.2,0.0625,-35.0,-1,1.0,4.562200999999959
255,2,0.2,1.0,35.0,-1,0.0,0.6155009999999947
256,2,0.2,1.0,35.0,-1,0.0,0.32940099999996164
257,2,0.2,0.125,35.0,-1,0.0,0.22260099999971317
258,2,0.2,0.0625,35.0,-1,0.0,0.22590100000002167
259,2,0.2,0.0625,35.0,-1,0.0,0.016000999999960186
260,2,0.2,0.125,35.0,-1,0.0,0.28620100000011917
261,2,0.2,0.25,35.0,-1,0.0,0.16640099999995073
262,2,0.2,0.125,35.0,-1,0.0,0.13320100000009916
263,2,0.2,0.125,-35.0,-1,1.0,0.14990099999977247
264,2,0.2,0.125,35.0,-1,0.0,1.1901009999999133
265,2,0.2,0.25,35.0,-1,0.0,0.26040100000000166
266,2,0.2,0.0625,35.0,-1,0.0,0.4471009999999751
267,2,0.2,1.0,35.0,1,1.0,0.8275009999997565
268,2,0.2,0.125,35.0,-1,0.0,2.5010010000000875
269,2,0.2,0.0625,35.0,1,1.0,1.1045009999998001
270,2,0.2,0.0625,35.0,-1,0.0,2.774500999999873
271,2,0.2,0.125,35.0,-1,0.0,0.7978009999999358
272,2,0.2,0.0,-35.0,-1,1.0,1.7415009999997437
273,2,0.2,0.25,35.0,-1,0.0,0.8086009999997259
274,2,0.2,0.0,-35.0,-1,1.0,2.705601000000115
275,2,0.2,0.0,35.0,-1,0.0,6.692000999999891
276,2,0.2,1.0,35.0,1,1.0,0.6589010000000144
277,2,0.2,0.25,-35.0,-1,1.0,0.14260099999978593
278,2,0.2,0.0625,35.0,-1,0.0,2.8059009999997215
279,2,0.8,0.0625,-35.0,-1,1.0,0.49930099999983213
280,2,0.8,0.25,-35.0,-1,1.0,0.4496009999998023
281,2,0.8,0.0,35.0,1,1.0,7.036101000000144
282,2,0.8,0.0625,-35.0,-1,1.0,0.7332010000000082
283,2,0.8,0.0,35.0,-1,0.0,2.5466009999997823
284,2,0.8,0.125,-35.0,-1,1.0,0.07690099999990707
285,2,0.8,0.0625,-35.0,-1,1.0,1.986900999999989
286,2,0.8,0.0,-35.0,-1,1.0,0.26710099999968406
287,2,0.8,1.0,-35.0,-1,1.0,0.8412009999999555
288,2,0.8,0.125,-35.0,-1,1.0,0.3441009999999096
289,2,0.8,0.125,-35.0,-1,1.0,0.5441009999999551
290,2,0.8,0.0,-35.0,-1,1.0,0.42420099999981176
291,2,0.8,0.25,-35.0,-1,1.0,0.35110099999997146
292,2,0.8,0.125,-35.0,-1,1.0,0.24470099999984996
293,2,0.8,0.0625,35.0,-1,0.0,0.044601000000056956
294,2,0.8,0.125,-35.0,-1,1.0,1.3582010000000082
295,2,0.8,0.125,-35.0,-1,1.0,0.21180099999992308
296,2,0.8,0.25,-35.0,-1,1.0,0.2817009999998845
297,2,0.8,0.0625,-35.0,-1,1.0,0.21870099999978265
298,2,0.8,0.0,-35.0,-1,1.0,0.13550099999974918
299,2,0.8,0.125,-35.0,-1,1.0,0.18520099999977901
300,2,0.8,0.25,-35.0,-1,1.0,0.3357009999999718
301,2,0.8,0.125,-35.0,-1,1.0,0.33870100000012826
302,2,0.8,0.25,-35.0,-1,1.0,0.2156009999998787
303,2,0.8,0.0625,-35.0,-1,1.0,0.2458009999998012
304,2,0.8,0.0,-35.0,-1,1.0,0.3428009999997812
305,2,0.8,0.0625,-35.0,-1,1.0,0.13600099999985105
306,2,0.8,0.0625,-35.0,-1,1.0,0.16270099999997
307,2,0.2,0.25,35.0,-1,0.0,0.27290099999981976
308,2,0.2,0.125,35.0,-1,0.0,0.22680099999979575
309,2,0.2,1.0,35.0,-1,0.0,0.25650099999984377
310,2,0.2,1.0,35.0,1,1.0,0.2432009999999991
311,2,0.2,0.0,-35.0,-1,1.0,0.2100009999996928
312,2,0.2,1.0,35.0,-1,0.0,0.24060099999996964
313,2,0.2,0.0,35.0,-1,0.0,0.32710099999985687
314,2,0.2,0.0,35.0,-1,0.0,0.20390100000008715
315,2,0.2,1.0,35.0,-1,0.0,2.267700999999988
316,2,0.2,0.125,35.0,-1,0.0,0.40420099999982995
317,2,0.2,0.25,35.0,-1,0.0,8.807900999999902
318,2,0.2,1.0,-35.0,-1,1.0,0.24140099999976883
319,2,0.2,0.25,35.0,-1,0.0,0.22840099999984886
320,2,0.2,0.0,35.0,-1,0.0,0.34840100000019447
321,2,0.2,0.25,35.0,-1,0.0,0.9219009999999344
322,2,0.2,0.25,-35.0,-1,1.0,0.28890099999989616
323,2,0.2,0.125,35.0,-1,0.0,2.802200999999968
324,2,0.2,1.0,35.0,-1,0.0,0.2357009999998354
325,2,0.2,0.25,-35.0,-1,1.0,0.2091010000001461
326,2,0.2,0.125,35.0,-1,0.0,0.24910099999988233
327,2,0.2,0.25,35.0,-1,0.0,0.14950099999987287
328,2,0.2,0.25,35.0,-1,0.0,0.3063009999998485
329,2,0.2,1.0,-35.0,-1,1.0,0.33960099999967497
330,2,0.2,0.0625,35.0,-1,0.0,0.733000999999831
331,2,0.2,1.0,35.0,-1,0.0,0.40990099999999074
332,2,0.2,0.25,35.0,-1,0.0,0.223500999999942
333,2,0.2,0.0,35.0,-1,0.0,2.5240009999999984
334,2,0.2,1.0,35.0,1,1.0,1.054000999999971
335,2,0.2,1.0,35.0,-1,0.0,3.2340010000000348
336,2,0.2,0.0625,-35.0,-1,1.0,3.914301000000023
337,2,0.2,1.0,35.0,-1,0.0,4.368000999999822
338,2,0.2,0.125,35.0,-1,0.0,4.485001000000011
339,2,0.2,0.25,35.0,-1,0.0,5.181600999999773
340,2,0.2,0.0,35.0,-1,0.0,9.441900999999916
341,2,0.2,1.0,35.0,1,1.0,0.6392009999999573
342,2,0.2,0.25,35.0,-1,0.0,2.4958010000000286
343,2,0.2,0.125,-35.0,-1,1.0,0.276100999999926
344,2,0.2,0.0625,35.0,-1,0.0,0.23310099999980594
345,2,0.2,0.125,35.0,-1,0.0,5.429501000000073
346,2,0.2,0.25,35.0,1,1.0,0.44010100000014063
347,2,0.8,0.25,-35.0,-1,1.0,0.5301010000000588
348,2,0.8,0.125,35.0,-1,0.0,2.0902009999997517
349,2,0.8,0.125,-35.0,-1,1.0,0.2971010000001115
350,2,0.8,1.0,-35.0,-1,1.0,0.5072009999998954
351,2,0.8,0.125,-35.0,-1,1.0,4.310700999999881
352,2,0.8,1.0,-35.0,-1,1.0,0.16100100000016937
353,2,0.8,1.0,-35.0,-1,1.0,0.13420099999984814
354,2,0.8,0.25,-35.0,-1,1.0,0.1713009999998576
355,2,0.8,1.0,-35.0,-1,1.0,0.12790099999983795
356,2,0.8,0.25,-35.0,-1,1.0,2.348300999999992
357,2,0.8,1.0,35.0,-1,0.0,0.3952009999998154
358,2,0.8,1.0,-35.0,-1,1.0,0.14190100000018901
359,2,0.8,0.25,-35.0,-1,1.0,0.2722009999999955
360,2,0.8,0.0,-35.0,-1,1.0,0.205400999999938
361,2,0.8,0.0625,-35.0,-1,1.0,0.13540100000000166
362,2,0.8,0.25,-35.0,-1,1.0,0.3158010000001923
363,2,0.8,1.0,-35.0,-1,1.0,0.1626009999999951
364,2,0.8,1.0,-35.0,-1,1.0,0.17220099999985905
365,2,0.8,0.25,-35.0,-1,1.0,0.18590100000005805
366,2,0.8,0.25,-35.0,-1,1.0,0.19260099999996783
367,2,0.8,0.125,-35.0,-1,1.0,0.39600099999984195
368,2,0.8,0.25,-35.0,-1,1.0,0.14950099999987287
369,2,0.8,0.0,35.0,-1,0.0,0.15970099999981358
370,2,0.8,0.125,35.0,-1,0.0,0.21640099999990525
371,2,0.8,0.125,35.0,-1,0.0,0.15330100000005586
372,2,0.8,0.125,35.0,-1,0.0,0.2133010000000013
373,2,0.8,0.125,-35.0,-1,1.0,0.19010099999991326
374,2,0.8,0.25,-35.0,-1,1.0,0.19030099999986305
375,2,0.8,1.0,35.0,-1,0.0,1.6174009999999726
376,2,0.8,0.0625,-35.0,-1,1.0,0.2873010000000704
377,2,0.8,0.125,-35.0,-1,1.0,0.22050100000001294
378,2,0.8,0.125,-35.0,-1,1.0,1.5108010000001286
379,2,0.8,0.125,-35.0,-1,1.0,0.014400999999907071
380,2,0.8,0.25,-35.0,-1,1.0,0.30140099999994163
381,2,0.8,1.0,-35.0,-1,1.0,0.17090099999973063
382,2,0.8,1.0,-35.0,-1,1.0,0.13800099999980375
383,2,0.8,0.0625,-35.0,-1,1.0,0.13470099999995
384,2,0.8,0.25,-35.0,-1,1.0,0.18489999999974316
385,2,0.8,1.0,-35.0,-1,1.0,0.2053009999999631
386,2,0.8,0.0625,-35.0,-1,1.0,0.051700999999866326
387,2,0.8,1.0,-35.0,-1,1.0,0.7654009999998834
388,2,0.8,0.0625,-35.0,-1,1.0,2.252001000000064
389,2,0.8,0.0,-35.0,-1,1.0,1.5925009999998565
390,2,0.8,0.0625,-35.0,-1,1.0,0.2259009999997943
391,2,0.8,1.0,-35.0,-1,1.0,0.15950099999986378
392,2,0.8,0.25,-35.0,-1,1.0,0.18920100000013917
393,2,0.8,0.25,-35.0,-1,1.0,0.18260099999997692
394,2,0.8,0.125,35.0,-1,0.0,0.24260099999992235
395,2,0.8,0.0625,35.0,-1,0.0,0.2528010000000904
396,2,0.8,1.0,-35.0,-1,1.0,0.18280099999992672
397,2,0.8,0.125,35.0,-1,0.0,1.1897010000000137
398,2,0.8,0.25,-35.0,-1,1.0,0.22650099999987106
399,2,0.8,0.0,-35.0,-1,1.0,0.1967010000000755
400,2,0.8,0.0625,-35.0,-1,1.0,1.363501000000042
401,2,0.8,0.125,-35.0,-1,1.0,0.19030100000009043
402,2,0.8,0.25,35.0,-1,0.0,0.16370099999994636
403,2,0.8,0.0625,35.0,-1,0.0,0.2239009999998416
404,2,0.8,0.125,-35.0,-1,1.0,0.23060099999997874
405,2,0.8,0.125,-35.0,-1,1.0,0.1606010000000424
406,2,0.8,1.0,-35.0,-1,1.0,0.170900999999958
407,2,0.8,1.0,-35.0,-1,1.0,0.27760099999977683
408,2,0.8,0.25,-35.0,-1,1.0,0.17100100000016027
409,2,0.8,1.0,-35.0,-1,1.0,0.2178009999997812
410,2,0.8,0.125,35.0,-1,0.0,0.17800099999976737
411,2,0.8,0.125,-35.0,-1,1.0,0.241600999999946
412,2,0.8,0.125,-35.0,-1,1.0,2.524801000000025
413,2,0.8,0.25,-35.0,-1,1.0,0.33860100000015336
414,2,0.8,0.125,-35.0,-1,1.0,0.24520099999995182
415,2,0.8,0.25,-35.0,-1,1.0,0.2956010000000333
416,2,0.8,1.0,35.0,-1,0.0,2.188801000000012
417,2,0.8,0.0625,-35.0,-1,1.0,0.27270099999986996
418,2,0.8,0.125,-35.0,-1,1.0,1.5656010000000151
419,2,0.2,0.25,35.0,-1,0.0,0.35920099999998456
420,2,0.2,0.0625,35.0,-1,0.0,0.23280099999988124
421,2,0.2,0.0625,35.0,-1,0.0,0.4696010000000115
422,2,0.2,0.125,35.0,-1,0.0,2.9929010000000744
423,2,0.2,0.0625,35.0,-1,0.0,0.61320099999989
424,2,0.2,1.0,35.0,1,1.0,0.7004009999998289
425,2,0.2,0.25,35.0,-1,0.0,7.237100999999939
426,2,0.2,0.25,35.0,1,1.0,0.7373009999998885
427,2,0.2,0.125,35.0,-1,0.0,4.541101000000026
428,2,0.2,0.125,35.0,-1,0.0,0.38140100000009625
429,2,0.2,0.0625,-35.0,-1,1.0,2.5347009999998136
430,2,0.2,0.0,-35.0,-1,1.0,4.491700999999921
431,2,0.2,0.0625,35.0,-1,0.0,5.695500999999922
432,2,0.2,1.0,-35.0,-1,1.0,0.25220100000001366
433,2,0.2,0.125,35.0,-1,0.0,9.875900999999885
434,2,0.2,0.0,35.0,1,1.0,2.3359009999999216
435,2,0.2,1.0,35.0,1,1.0,8.830200999999988
436,2,0.2,0.125,-35.0,-1,1.0,0.3300010000000384
437,2,0.2,0.0625,-35.0,-1,1.0,2.213700999999901
438,2,0.2,0.0625,35.0,-1,0.0,1.3206009999998969
439,2,0.2,0.25,35.0,-1,0.0,2.9342009999998027
440,2,0.2,0.125,35.0,-1,0.0,0.4842009999997572
441,2,0.2,0.125,35.0,-1,0.0,10.567900999999893
442,2,0.8,0.0,-35.0,-1,1.0,1.858100999999806
443,2,0.8,1.0,-35.0,-1,1.0,0.4349010000000817
444,2,0.8,0.25,-35.0,-1,1.0,0.23500099999978374
445,2,0.8,1.0,-35.0,-1,1.0,0.5251009999999496
446,2,0.8,0.125,-35.0,-1,1.0,0.1954009999999471
447,2,0.8,0.125,35.0,-1,0.0,2.1054009999998016
448,2,0.8,0.0625,35.0,-1,0.0,1.6221009999999296
449,2,0.8,0.125,-35.0,-1,1.0,1.3392010000000028
450,2,0.8,0.25,-35.0,-1,1.0,2.2292009999998754
451,2,0.8,0.0625,-35.0,-1,1.0,0.9730010000000675
452,2,0.8,0.25,-35.0,-1,1.0,0.3629009999999653
453,2,0.8,0.125,-35.0,-1,1.0,0.5761009999998805
454,2,0.8,0.0625,-35.0,-1,1.0,0.3630009999999402
455,2,0.8,0.0625,35.0,-1,0.0,1.4767009999998209
456,2,0.8,0.125,-35.0,-1,1.0,0.2033010000000104
457,2,0.8,0.0625,-35.0,-1,1.0,1.5635009999998601
458,2,0.8,0.0,35.0,-1,0.0,2.8701010000002043
459,2,0.8,0.0625,-35.0,-1,1.0,0.13400099999989834
460,2,0.8,1.0,-35.0,-1,1.0,0.23770100000001548
461,2,0.8,0.125,35.0,-1,0.0,0.9872009999999136
462,2,0.8,0.125,-35.0,-1,1.0,0.20770100000004277
463,2,0.8,1.0,-35.0,-1,1.0,0.1009009999997943
464,2,0.8,0.0625,-35.0,-1,1.0,0.3211009999997714
465,2,0.8,1.0,-35.0,-1,1.0,0.29420099999993
466,2,0.8,1.0,35.0,-1,0.0,0.5445010000000821
467,2,0.8,0.125,-35.0,-1,1.0,0.3213010000004033
468,2,0.8,0.125,-35.0,-1,1.0,0.37820099999999
469,2,0.8,0.0625,-35.0,-1,1.0,1.428201000000172
470,2,0.8,0.0,-35.0,-1,1.0,0.1751009999998132
471,2,0.8,1.0,-35.0,-1,1.0,0.14860099999987142
472,2,0.8,0.25,-35.0,-1,1.0,0.332100999999966
473,2,0.8,1.0,35.0,-1,0.0,0.485501000000113
474,2,0.8,0.0625,-35.0,-1,1.0,0.155601000000388
475,2,0.8,0.25,-35.0,-1,1.0,0.3992009999997208
476,2,0.8,0.25,-35.0,-1,1.0,0.2891010000003007
477,2,0.8,1.0,-35.0,-1,1.0,0.3524010000000999
478,2,0.8,1.0,35.0,-1,0.0,0.9362009999999827
479,2,0.8,1.0,-35.0,-1,1.0,0.24620099999992817
480,2,0.8,0.25,-35.0,-1,1.0,0.17960100000027523
481,2,0.8,0.125,-35.0,-1,1.0,0.21330100000022867
482,2,0.8,0.0625,-35.0,-1,1.0,0.6764009999997143
483,2,0.8,1.0,-35.0,-1,1.0,0.28640100000029634
484,2,0.8,0.125,-35.0,-1,1.0,0.20990100000017264
485,2,0.8,0.0625,-35.0,-1,1.0,0.25680099999999584
486,2,0.8,0.0625,35.0,-1,0.0,0.20350099999996019
487,2,0.8,0.25,35.0,-1,0.0,0.267301000000316
488,2,0.8,0.0625,-35.0,-1,1.0,0.3206009999998969
489,2,0.8,0.25,35.0,-1,0.0,1.8075010000002294
490,2,0.8,0.0625,-35.0,-1,1.0,0.22750100000030216
491,2,0.8,0.25,-35.0,-1,1.0,0.21110099999987142
492,2,0.8,1.0,-35.0,-1,1.0,0.1849010000000817
493,2,0.8,1.0,-35.0,-1,1.0,0.39130100000011225
494,2,0.8,0.0,-35.0,-1,1.0,0.17830099999991944
495,2,0.8,0.0,35.0,-1,0.0,3.1481009999997696
496,2,0.8,0.0,-35.0,-1,1.0,0.19860100000005332
497,2,0.8,1.0,-35.0,-1,1.0,0.10170100000004823
498,2,0.8,1.0,35.0,-1,0.0,0.20180100000015955
499,2,0.8,1.0,-35.0,-1,1.0,0.18530100000043603
500,2,0.8,0.0625,-35.0,-1,1.0,0.17870100000027378
501,2,0.8,0.25,-35.0,-1,1.0,6.559501000000182
502,2,0.8,0.0,-35.0,-1,1.0,0.19930100000010498
503,2,0.8,0.0625,-35.0,-1,1.0,0.08610099999987142
504,2,0.8,0.25,-35.0,-1,1.0,0.16960100000005696
505,2,0.8,0.0,-35.0,-1,1.0,0.25320099999999
506,2,0.8,0.25,-35.0,-1,1.0,6.37630100000024
507,2,0.8,0.125,35.0,-1,0.0,0.43990100000019083
508,2,0.8,0.0,35.0,-1,0.0,0.3868010000005597
509,2,0.8,0.125,-35.0,-1,1.0,0.370401000000129
510,2,0.8,0.0625,-35.0,-1,1.0,0.19070100000044476
511,2,0.8,0.0625,35.0,-1,0.0,0.2638010000000577
512,2,0.8,0.0,-35.0,-1,1.0,0.1738010000003669
513,2,0.8,0.0,-35.0,-1,1.0,0.2942010000006121
514,2,0.8,1.0,-35.0,-1,1.0,0.7075009999998656
515,2,0.8,0.0625,-35.0,-1,1.0,1.4108009999999922
516,2,0.8,0.0625,35.0,-1,0.0,0.7716009999999187
517,2,0.8,0.25,-35.0,-1,1.0,0.12800100000004022
518,2,0.8,0.0,-35.0,-1,1.0,0.5680010000000948
519,2,0.8,1.0,-35.0,-1,1.0,0.21150100000022576
520,2,0.8,0.25,-35.0,-1,1.0,0.28820100000029925
521,2,0.8,0.25,-35.0,-1,1.0,0.4916000000002896
522,2,0.2,0.0,-35.0,-1,1.0,0.1685010000001057
523,2,0.2,0.125,35.0,-1,0.0,1.435500999999931
524,2,0.2,0.0625,35.0,-1,0.0,0.17190100000016173
525,2,0.2,0.0625,-35.0,-1,1.0,0.3161009999998896
526,2,0.2,0.0,35.0,-1,0.0,2.855801000000156
527,2,0.2,0.125,-35.0,-1,1.0,0.15260100000023158
528,2,0.2,0.0,35.0,-1,0.0,0.3059010000001763
529,2,0.2,0.25,-35.0,-1,1.0,0.279500999999982
530,2,0.2,0.25,35.0,1,1.0,0.8796010000005481
531,2,0.2,0.0625,35.0,-1,0.0,7.83310100000017
532,2,0.2,0.0625,35.0,-1,0.0,0.7202000000002045
533,2,0.2,0.125,35.0,-1,0.0,2.6336010000004535
534,2,0.2,0.25,35.0,-1,0.0,1.1605009999998401
535,2,0.2,0.0625,35.0,-1,0.0,0.6739010000001144
536,2,0.2,0.0625,35.0,-1,0.0,0.4142010000000482
537,2,0.2,0.0,35.0,-1,0.0,1.38470099999995
538,2,0.2,0.25,35.0,-1,0.0,8.064401000000089
539,2,0.2,0.0625,35.0,-1,0.0,0.18170099999997547
540,2,0.2,0.0625,35.0,-1,0.0,10.598701000000347
541,2,0.2,0.25,35.0,-1,0.0,9.279101000000537
542,2,0.2,0.125,-35.0,-1,1.0,2.1697009999998045
543,2,0.2,0.125,-35.0,-1,1.0,0.35970099999985905
544,2,0.2,0.0625,35.0,-1,0.0,0.1632009999998445
545,2,0.2,0.25,35.0,-1,0.0,3.3768009999998867
546,2,0.2,0.0,35.0,-1,0.0,10.76680099999976
547,2,0.2,1.0,35.0,-1,0.0,14.27730100000008
548,2,0.8,1.0,-35.0,-1,1.0,0.31830100000024686
549,2,0.8,0.125,-35.0,-1,1.0,3.174801000000116
550,2,0.8,0.0625,35.0,-1,0.0,0.2951010000001588
551,2,0.8,0.125,-35.0,-1,1.0,0.2119009999996706
552,2,0.8,0.125,-35.0,-1,1.0,0.26520099999970626
553,2,0.8,1.0,-35.0,-1,1.0,0.2620010000005095
554,2,0.8,0.0,-35.0,-1,1.0,0.26210100000025705
555,2,0.8,0.0,-35.0,-1,1.0,2.348700999999892
556,2,0.8,0.125,-35.0,-1,1.0,0.2690010000001166
557,2,0.8,1.0,35.0,-1,0.0,0.22950100000025486
558,2,0.8,0.25,35.0,-1,0.0,6.096100999999635
559,2,0.8,0.0625,-35.0,-1,1.0,0.24320100000022649
560,2,0.8,0.0,-35.0,-1,1.0,4.379801000000498
561,2,0.8,0.25,-35.0,-1,1.0,0.16330100000004677
562,2,0.8,0.0625,35.0,-1,0.0,2.337101000000075
563,2,0.8,1.0,35.0,-1,0.0,0.22030099999983577
564,2,0.8,0.125,35.0,-1,0.0,0.14400100000011662
565,2,0.8,0.0625,-35.0,-1,1.0,0.2541010000004462
566,2,0.8,0.0625,-35.0,-1,1.0,7.50090100000034
567,2,0.8,0.0625,-35.0,-1,1.0,3.4646010000001297
568,2,0.8,1.0,-35.0,-1,1.0,0.17160100000000966
569,2,0.8,0.0625,-35.0,-1,1.0,0.2014009999998052
570,2,0.8,1.0,35.0,-1,0.0,0.25830100000030143
571,2,0.8,0.125,-35.0,-1,1.0,0.2620010000000548
572,2,0.8,0.0625,35.0,-1,0.0,0.38510100000030434
573,2,0.8,1.0,35.0,-1,0.0,0.5120010000000548
574,2,0.8,1.0,-35.0,-1,1.0,0.31930099999999584
575,2,0.8,0.125,-35.0,-1,1.0,0.3224009999998998
576,2,0.8,1.0,-35.0,-1,1.0,0.19910100000015518
577,2,0.8,0.25,-35.0,-1,1.0,1.4460010000002512
578,2,0.8,0.0625,35.0,-1,0.0,1.6393010000006143
579,2,0.8,1.0,-35.0,-1,1.0,0.27300100000002203
580,2,0.8,0.25,-35.0,-1,1.0,0.2863010000005488
581,2,0.8,0.0625,-35.0,-1,1.0,0.14980100000002494
582,2,0.8,0.25,-35.0,-1,1.0,0.24640100000033271
583,2,0.8,0.125,-35.0,-1,1.0,0.8802010000003975
584,2,0.8,1.0,-35.0,-1,1.0,0.5502010000000155
585,2,0.8,0.0625,35.0,-1,0.0,0.17340100000046732
586,2,0.8,0.125,-35.0,-1,1.0,0.3071010000003298
587,2,0.8,0.25,-35.0,-1,1.0,0.07710100000031161
588,2,0.8,1.0,-35.0,-1,1.0,0.5004009999997834
589,2,0.8,0.25,-35.0,-1,1.0,0.07040099999994709
590,2,0.8,0.125,-35.0,-1,1.0,0.04140099999995073
591,2,0.8,0.0,-35.0,-1,1.0,1.8409010000000308
592,2,0.8,0.125,-35.0,-1,1.0,0.334201000000121
593,2,0.8,0.0625,-35.0,-1,1.0,4.9614010000000235
594,2,0.8,0.25,-35.0,-1,1.0,0.23820100000011735
595,2,0.8,0.25,-35.0,-1,1.0,0.3684010000001763
596,2,0.8,1.0,-35.0,-1,1.0,2.0654010000002927
597,2,0.8,0.125,-35.0,-1,1.0,0.9851009999997586
598,2,0.8,0.0625,-35.0,-1,1.0,0.18220100000007733
599,2,0.8,1.0,-35.0,-1,1.0,0.29220100000020466
600,2,0.8,1.0,-35.0,-1,1.0,0.18900100000064413
601,2,0.8,0.125,35.0,-1,0.0,5.499101000000337
602,2,0.8,0.25,-35.0,-1,1.0,0.35270100000025195
603,2,0.8,1.0,-35.0,-1,1.0,0.24290100000007442
604,2,0.8,0.25,-35.0,-1,1.0,0.34630100000049424
605,2,0.8,0.125,-35.0,-1,1.0,0.2733000000002903
606,2,0.8,0.25,-35.0,-1,1.0,0.25320099999999
607,2,0.8,0.0,-35.0,-1,1.0,2.0732010000001537
608,2,0.8,0.25,-35.0,-1,1.0,1.3903010000003633
609,2,0.8,0.0625,-35.0,-1,1.0,0.9204010000003109
610,2,0.8,1.0,-35.0,-1,1.0,0.1503010000001268
611,2,0.8,0.0625,35.0,-1,0.0,0.3603010000001632
612,2,0.2,1.0,35.0,-1,0.0,0.5807010000003174
613,2,0.2,0.0625,-35.0,-1,1.0,0.2808010000003378
614,2,0.2,0.125,35.0,-1,0.0,1.71440100000018
615,2,0.2,0.0,35.0,1,1.0,10.58440100000007
616,2,0.2,0.125,35.0,1,1.0,1.7250010000002476
617,2,0.2,0.125,35.0,1,1.0,2.234900999999809
618,2,0.2,1.0,35.0,1,1.0,0.5785010000004149
619,2,0.2,1.0,35.0,-1,0.0,7.998601000000235
620,2,0.2,0.0625,-35.0,-1,1.0,12.772501000000375
621,2,0.2,0.0625,35.0,-1,0.0,12.889601000000312
622,2,0.2,0.0625,35.0,-1,0.0,0.400101000000177
623,2,0.2,0.0625,35.0,-1,0.0,0.08370100000047387
624,2,0.2,0.25,35.0,-1,0.0,12.540501000000404
625,2,0.2,0.125,-35.0,-1,1.0,0.34440100000028906
626,2,0.2,0.0,35.0,-1,0.0,7.657901000000038
627,2,0.2,0.25,35.0,-1,0.0,8.38850100000036
628,2,0.2,0.125,35.0,-1,0.0,24.452100999999857
629,2,0.2,0.0625,-35.0,-1,1.0,24.509901000000355
630,2,0.2,0.25,35.0,-1,0.0,2.317301000000043
631,2,0.2,0.0,35.0,-1,0.0,0.2978010000001632
632,2,0.2,0.125,35.0,-1,0.0,0.3548009999999522
633,2,0.2,0.25,35.0,-1,0.0,12.734601000000112
634,2,0.2,0.125,35.0,-1,0.0,39.242000000000644
635,2,0.2,0.25,35.0,-1,0.0,25.616801000000578
636,2,0.2,0.25,35.0,-1,0.0,0.8879010000000562
637,2,0.2,0.25,35.0,-1,0.0,7.211201000000074
638,2,0.2,0.25,35.0,-1,0.0,9.558301000000029
639,2,0.2,1.0,35.0,-1,0.0,35.22220100000004
640,2,0.2,1.0,-35.0,-1,1.0,0.3971010000004753
641,2,0.2,0.125,35.0,-1,0.0,1.9135009999999966
642,2,0.2,0.125,35.0,-1,0.0,0.19380099999989397
643,2,0.2,1.0,35.0,-1,0.0,0.2172009999999318
644,2,0.2,1.0,35.0,-1,0.0,0.731101000000308
645,2,0.2,0.25,35.0,-1,0.0,6.534401000000344
646,2,0.2,1.0,35.0,-1,0.0,1.0711010000004535
647,2,0.2,0.0625,35.0,-1,0.0,8.211301000000276
648,2,0.2,0.0,-0.0,0,0.0,59.9453010000002
649,2,0.2,0.125,-35.0,-1,1.0,15.654900999999882
650,2,0.2,0.125,35.0,-1,0.0,1.8184009999999944
651,2,0.2,0.0625,35.0,-1,0.0,0.3319010000000162
652,2,0.2,1.0,35.0,1,1.0,0.8954010000002199
653,2,0.2,0.25,35.0,1,1.0,0.4088010000000395
654,2,0.2,0.25,35.0,1,1.0,0.5323010000001887
655,2,0.2,1.0,35.0,0,0.0,59.61240099999986
656,2,0.2,0.0625,35.0,1,1.0,20.762001000000055
657,2,0.2,0.25,35.0,-1,0.0,11.062201000000186
658,2,0.2,0.0625,35.0,1,1.0,5.659600999999839
659,2,0.2,0.25,35.0,1,1.0,0.9798009999999522
660,2,0.2,1.0,35.0,1,1.0,7.1766010000005735
661,2,0.2,0.25,35.0,1,1.0,6.6302010000003975
662,2,0.2,0.25,35.0,1,1.0,13.777301000000534
663,2,0.2,0.25,-35.0,-1,1.0,0.37110100000018065
664,2,0.2,1.0,35.0,0,0.0,50.03490099999999
665,2,0.2,0.0625,35.0,-1,0.0,10.43400100000008
666,2,0.2,0.0625,35.0,-1,0.0,46.724200999999994
667,2,0.2,0.0625,35.0,0,0.0,59.95250100000021
668,2,0.2,0.25,-35.0,-1,1.0,24.322301000000152
669,2,0.2,1.0,35.0,-1,0.0,3.099301000000196
670,2,0.2,0.25,35.0,1,1.0,4.156101000000035
671,2,0.8,0.0625,-35.0,0,0.0,59.95650100000057
672,2,0.8,0.0,-35.0,1,0.0,22.155501000000186
673,2,0.8,0.25,-35.0,-1,1.0,0.3302009999997608
674,2,0.8,0.125,35.0,0,0.0,59.959801000000425
675,2,0.8,0.0625,-35.0,-1,1.0,59.06610099999989
676,2,0.8,0.125,-35.0,1,0.0,31.6011010000002
677,2,0.8,0.0625,-35.0,1,0.0,19.49570100000028
678,2,0.8,0.0625,-35.0,-1,1.0,20.186701000000085
679,2,0.8,0.25,-35.0,-1,1.0,5.164100999999846
680,2,0.8,0.0625,35.0,1,1.0,1.981101000000308
681,2,0.8,1.0,-35.0,-1,1.0,0.34450100000049133
682,2,0.8,0.25,-35.0,-1,1.0,5.001400999999987
683,2,0.8,1.0,-35.0,-1,1.0,1.8083010000004833
684,2,0.8,0.25,-35.0,-1,1.0,11.915201000000252
685,2,0.8,0.125,35.0,1,1.0,12.6024010000001
686,2,0.8,0.125,-35.0,1,0.0,5.993001000000277
687,2,0.8,0.125,-35.0,1,0.0,8.703201000000263
688,2,0.8,0.25,-35.0,1,0.0,6.427001000000473
689,2,0.8,1.0,-35.0,-1,1.0,0.5541010000001734
690,2,0.8,1.0,35.0,0,0.0,59.95760100000007
691,2,0.8,0.0625,-35.0,0,0.0,56.93040099999962
692,2,0.8,0.125,-35.0,1,0.0,1.8992010000001756
693,2,0.8,0.0625,-35.0,1,0.0,3.976300999999694
694,2,0.2,0.0,35.0,-1,0.0,19.849801000000298
695,2,0.2,1.0,-35.0,1,0.0,50.03060100000039
696,2,0.2,0.0625,35.0,1,1.0,57.61280100000113
1,3,0.5,1.0,-35.0,-1,1.0,0.3923000000000001
2,3,0.5,1.0,-35.0,-1,1.0,4.4083000000000006
3,3,0.5,0.0,35.0,-1,0.0,0.44810000000000016
4,3,0.5,0.0625,-35.0,-1,1.0,0.4593000000000007
5,3,0.5,0.25,35.0,-1,0.0,0.44750000000000156
6,3,0.5,0.125,-35.0,-1,1.0,0.3135000000000012
7,3,0.5,0.125,35.0,-1,0.0,1.5801999999999978
8,3,0.5,0.0,35.0,-1,0.0,1.2652000000000037
9,3,0.5,0.125,-35.0,-1,1.0,0.6496989999999983
10,3,0.5,1.0,-35.0,-1,1.0,0.3218999999999994
11,3,0.5,0.0,-35.0,-1,1.0,3.0533999999999963
12,3,0.5,0.125,35.0,-1,0.0,0.39519999999999555
13,3,0.5,0.125,35.0,-1,0.0,0.346899999999998
14,3,0.5,0.25,-35.0,-1,1.0,0.29479999999998796
15,3,0.5,1.0,-35.0,-1,1.0,3.1525999999999925
16,3,0.5,0.25,35.0,-1,0.0,3.0182999999999964
17,3,0.5,0.25,-35.0,-1,1.0,0.23649999999999238
18,3,0.5,0.125,35.0,-1,0.0,2.6740999999999957
19,3,0.5,0.125,-35.0,-1,1.0,0.34019999999999584
20,3,0.5,0.0625,-35.0,-1,1.0,1.6095000000000113
21,3,0.5,1.0,-35.0,-1,1.0,0.7523000000000053
22,3,0.5,0.25,-35.0,-1,1.0,3.219200000000015
23,3,0.5,0.0625,35.0,-1,0.0,3.8815000000000026
24,3,0.5,0.0625,-35.0,-1,1.0,2.9117000000000104
25,3,0.5,0.25,-35.0,-1,1.0,1.3640999999999934
26,3,0.5,1.0,35.0,-1,0.0,4.4452
27,3,0.5,0.25,35.0,-1,0.0,0.2173000000000087
28,3,0.5,0.125,-35.0,-1,1.0,2.9971000000000174
29,3,0.5,0.25,-35.0,-1,1.0,0.37700000000000955
30,3,0.5,0.25,35.0,-1,0.0,5.926699999999997
31,3,0.5,1.0,35.0,1,1.0,11.413698999999994
32,3,0.5,1.0,35.0,1,1.0,4.5738999999999805
33,3,0.5,0.0625,-35.0,-1,1.0,4.656599999999997
34,3,0.5,0.25,-35.0,-1,1.0,6.251800000000003
35,3,0.5,0.0625,35.0,-1,0.0,4.8101999999999805
36,3,0.5,0.125,-35.0,-1,1.0,0.617999999999995
37,3,0.5,0.0625,35.0,-1,0.0,4.630200000000002
38,3,0.5,0.0,-35.0,-1,1.0,1.269299999999987
39,3,0.5,0.0625,35.0,-1,0.0,4.369
40,3,0.5,0.0625,-35.0,-1,1.0,0.12510000000000332
41,3,0.5,0.125,35.0,-1,0.0,1.1765000000000043
42,3,0.5,0.0625,-35.0,-1,1.0,4.383699999999976
43,3,0.5,1.0,35.0,0,0.0,59.94520000000003
44,3,0.5,0.125,35.0,1,1.0,0.46780000000006794
45,3,0.5,1.0,35.0,1,1.0,0.9402000000000612
46,3,0.5,1.0,35.0,-1,0.0,2.790300000000059
47,3,0.5,0.0,-35.0,-1,1.0,0.15890000000001692
48,3,0.5,0.25,-35.0,-1,1.0,0.06099999999997863
49,3,0.5,0.125,-35.0,-1,1.0,0.9267000000000394
50,3,0.5,1.0,35.0,-1,0.0,3.2087999999999965
51,3,0.5,1.0,35.0,-1,0.0,4.388800000000003
52,3,0.5,0.0,35.0,1,1.0,28.6601
53,3,0.5,0.25,35.0,1,1.0,3.831600000000037
54,3,0.5,1.0,-35.0,-1,1.0,1.9867999999999597
55,3,0.5,1.0,-35.0,-1,1.0,0.4405999999999608
56,3,0.5,0.0625,-35.0,-1,1.0,4.994799999999998
57,3,0.5,0.0625,35.0,-1,0.0,1.7543000000000006
58,3,0.5,0.0625,-35.0,-1,1.0,0.24720000000002074
59,3,0.5,0.0625,35.0,-1,0.0,2.0982999999999947
60,3,0.5,0.125,35.0,-1,0.0,2.7495000000000687
61,3,0.5,0.125,-35.0,-1,1.0,0.05489999999997508
62,3,0.5,0.0625,-35.0,-1,1.0,2.3658000000000357
63,3,0.5,0.0625,-35.0,-1,1.0,3.564799999999991
64,3,0.5,0.0625,-35.0,-1,1.0,0.2803000000000111
65,3,0.5,0.0625,-35.0,-1,1.0,0.5949000000000524
66,3,0.5,0.125,-35.0,-1,1.0,2.599100000000078
67,3,0.5,0.0625,35.0,-1,0.0,8.706000000000017
68,3,0.5,0.0,35.0,-1,0.0,4.615799999999979
69,3,0.5,1.0,35.0,-1,0.0,32.30520000000007
70,3,0.5,0.125,-35.0,-1,1.0,0.40720000000004575
71,3,0.5,0.125,35.0,-1,0.0,0.34700000000003683
72,3,0.5,0.0625,-35.0,-1,1.0,0.17600000000004457
73,3,0.5,0.25,-35.0,-1,1.0,0.7899000000000456
74,3,0.5,0.25,-35.0,-1,1.0,2.890800000000013
75,3,0.5,1.0,-35.0,-1,1.0,0.8436000000000377
76,3,0.5,0.0625,35.0,-1,0.0,5.9920999999999935
77,3,0.5,0.0,35.0,-1,0.0,0.28110000000003765
78,3,0.5,0.0,35.0,-1,0.0,3.8786000000000627
79,3,0.5,0.125,35.0,1,1.0,14.622899999999959
80,3,0.5,0.0625,35.0,-1,0.0,0.021299999999996544
81,3,0.5,0.0625,35.0,-1,0.0,0.23689999999987776
82,3,0.5,0.25,35.0,1,1.0,6.550999999999931
83,3,0.5,0.0625,-35.0,-1,1.0,8.57669999999996
84,3,0.5,0.125,-35.0,-1,1.0,7.347300000000018
85,3,0.5,1.0,35.0,-1,0.0,2.451999999999998
86,3,0.5,0.125,35.0,-1,0.0,2.6079999999999472
87,3,0.5,0.0625,-35.0,-1,1.0,0.18840000000000146
88,3,0.5,0.25,35.0,-1,0.0,5.827699999999936
89,3,0.5,1.0,-35.0,-1,1.0,1.1508999999999787
90,3,0.5,0.0625,35.0,-1,0.0,8.906999999999925
91,3,0.2,0.0625,35.0,1,1.0,15.96449999999993
92,3,0.2,0.25,35.0,1,1.0,2.9248999999999796
93,3,0.2,0.25,35.0,1,1.0,10.929299999999898
94,3,0.2,0.25,35.0,1,1.0,7.534999999999968
95,3,0.2,0.0625,35.0,1,1.0,8.889299999999821
96,3,0.2,0.25,35.0,1,1.0,2.3869999999999436
97,3,0.2,0.25,35.0,1,1.0,9.996999999999957
98,3,0.2,0.125,35.0,1,1.0,2.266499999999951
99,3,0.2,1.0,35.0,1,1.0,4.53469999999993
100,3,0.2,0.0625,35.0,1,1.0,3.155999999999949
101,3,0.2,1.0,35.0,1,1.0,5.399999999999977
102,3,0.2,0.25,35.0,1,1.0,5.167100000000005
103,3,0.2,0.0625,35.0,-1,0.0,3.5767000000000735
104,3,0.2,1.0,35.0,-1,0.0,22.34430000000009
105,3,0.2,0.125,35.0,1,1.0,45.08639999999991
106,3,0.2,0.0625,35.0,1,1.0,5.26299999999992
107,3,0.2,0.125,35.0,-1,0.0,2.6120999999999412
108,3,0.2,0.0,35.0,-1,0.0,5.221499999999992
109,3,0.2,0.125,35.0,1,1.0,6.26319999999987
110,3,0.2,1.0,35.0,1,1.0,0.7454999999999927
111,3,0.2,0.0,35.0,-1,0.0,7.43039999999985
112,3,0.2,0.25,35.0,1,1.0,28.55129999999997
113,3,0.2,0.125,35.0,-1,0.0,17.354999999999905
114,3,0.2,0.0625,35.0,-1,0.0,0.3392000000000053
115,3,0.2,1.0,35.0,1,1.0,6.510099999999966
116,3,0.2,1.0,35.0,1,1.0,0.8940000000000055
117,3,0.2,0.0,35.0,1,1.0,2.6187999999999647
118,3,0.2,1.0,35.0,1,1.0,55.29309999999987
119,3,0.2,0.0,35.0,-1,0.0,0.4844999999999118
120,3,0.2,0.0625,35.0,-1,0.0,11.044799999999896
121,3,0.2,0.25,35.0,-1,0.0,15.701900000000023
122,3,0.2,0.125,35.0,-1,0.0,4.944600000000037
123,3,0.2,1.0,35.0,1,1.0,37.56619999999998
124,3,0.2,0.0625,35.0,1,1.0,11.190799999999854
125,3,0.2,0.125,35.0,-1,0.0,1.4014000000001943
126,3,0.2,0.0625,35.0,-1,0.0,0.858199999999897
127,3,0.2,0.0625,35.0,-1,0.0,11.238500000000158
128,3,0.2,0.125,35.0,-1,0.0,14.488900000000058
129,3,0.2,0.125,-35.0,-1,1.0,9.102800000000116
130,3,0.2,1.0,35.0,-1,0.0,29.466499999999996
131,3,0.2,0.0,35.0,-1,0.0,3.811000000000149
132,3,0.2,1.0,-35.0,-1,1.0,0.32120000000008986
133,3,0.2,0.125,35.0,-1,0.0,6.414700000000039
134,3,0.2,1.0,35.0,-1,0.0,0.3449999999997999
135,3,0.2,0.0,35.0,-1,0.0,17.98519999999985
136,3,0.2,1.0,35.0,-1,0.0,11.392499999999927
137,3,0.2,0.125,35.0,-1,0.0,14.846299999999701
138,3,0.2,0.125,35.0,-1,0.0,7.343699999999899
139,3,0.2,0.0,-35.0,-1,1.0,3.8808000000001357
140,3,0.8,0.25,-35.0,-1,1.0,0.5476000000001022
141,3,0.8,1.0,-35.0,-1,1.0,0.5843999999999596
142,3,0.8,0.0,-35.0,-1,1.0,3.1143999999999323
143,3,0.8,0.25,-35.0,-1,1.0,0.7546000000002095
144,3,0.8,0.125,-35.0,-1,1.0,3.4282000000000608
145,3,0.8,1.0,35.0,-1,0.0,0.834999999999809
146,3,0.8,0.0625,-35.0,-1,1.0,0.3283999999998741
147,3,0.8,0.0,-35.0,-1,1.0,3.0386000000000877
148,3,0.8,0.0,-35.0,-1,1.0,1.3920999999998003
149,3,0.8,1.0,-35.0,-1,1.0,0.7889000000000124
150,3,0.8,0.0625,-35.0,-1,1.0,0.45900000000006
151,3,0.8,0.125,35.0,-1,0.0,0.24900000000002365
152,3,0.8,0.25,-35.0,-1,1.0,0.2726000000000113
153,3,0.8,0.25,-35.0,-1,1.0,0.3525999999999385
154,3,0.8,1.0,-35.0,-1,1.0,0.8360000000000127
155,3,0.8,0.25,-35.0,-1,1.0,0.6162999999999101
156,3,0.8,0.0625,-35.0,-1,1.0,4.092800000000125
157,3,0.8,0.25,-35.0,-1,1.0,0.37639999999987594
158,3,0.8,0.0,35.0,-1,0.0,3.5364999999997053
159,3,0.8,0.25,-35.0,-1,1.0,0.08349999999995816
160,3,0.8,0.125,-35.0,-1,1.0,0.6001000000001113
161,3,0.8,0.0625,-35.0,-1,1.0,4.1435999999998785
162,3,0.8,0.0625,-35.0,-1,1.0,3.810399999999845
163,3,0.8,0.125,-35.0,-1,1.0,0.22069999999985157
164,3,0.8,0.0,-35.0,-1,1.0,2.7473999999999705
165,3,0.8,0.0625,35.0,-1,0.0,7.317700000000059
166,3,0.8,1.0,-35.0,-1,1.0,0.1612999999999829
167,3,0.8,0.25,-35.0,-1,1.0,3.4279999999998836
168,3,0.8,1.0,35.0,-1,0.0,0.29490000000009786
169,3,0.8,0.125,-35.0,-1,1.0,0.6216999999999189
170,3,0.8,0.0625,35.0,-1,0.0,9.365199999999959
171,3,0.8,0.0625,-35.0,-1,1.0,1.928899999999885
172,3,0.8,0.0625,-35.0,-1,1.0,3.095700000000079
173,3,0.8,0.125,-35.0,-1,1.0,0.39589999999998327
174,3,0.8,1.0,35.0,-1,0.0,0.3026999999997315
175,3,0.8,1.0,-35.0,-1,1.0,0.25949999999988904
176,3,0.8,0.125,-35.0,-1,1.0,2.4563000000000557
177,3,0.8,1.0,35.0,-1,0.0,3.0296999999998206
178,3,0.8,1.0,-35.0,-1,1.0,0.219899999999825
179,3,0.8,0.0625,-35.0,-1,1.0,2.2865999999999076
180,3,0.8,1.0,-35.0,-1,1.0,0.2535000000000309
181,3,0.8,0.125,-35.0,-1,1.0,0.5169000000000779
182,3,0.8,0.125,35.0,-1,0.0,0.4170999999998912
183,3,0.8,0.0625,-35.0,-1,1.0,0.43059999999991305
184,3,0.8,0.25,-35.0,-1,1.0,0.27729999999996835
185,3,0.8,0.0,-35.0,-1,1.0,1.44399999999996
186,3,0.8,1.0,35.0,-1,0.0,2.6175000000000637
187,3,0.8,0.0625,35.0,-1,0.0,0.19110000000000582
188,3,0.8,0.25,35.0,-1,0.0,12.937800000000152
189,3,0.8,0.125,-35.0,-1,1.0,0.7417000000000371
190,3,0.8,0.25,-35.0,-1,1.0,0.24849999999992178
191,3,0.8,0.0625,-35.0,-1,1.0,2.115299999999934
192,3,0.8,0.0625,-35.0,-1,1.0,0.2420999999999367
193,3,0.8,0.25,-35.0,-1,1.0,0.33549999999991087
194,3,0.8,0.125,-35.0,-1,1.0,0.30240000000026157
195,3,0.8,0.0625,35.0,-1,0.0,2.6190999999998894
196,3,0.8,0.0,-35.0,-1,1.0,0.25270000000000437
197,3,0.8,0.125,-35.0,-1,1.0,0.40599999999994907
198,3,0.8,0.125,35.0,-1,0.0,3.6727999999998246
199,3,0.8,0.0625,-35.0,-1,1.0,4.899799999999914
200,3,0.8,0.0625,-35.0,-1,1.0,0.5134000000000469
201,3,0.8,0.0625,-35.0,-1,1.0,3.6866999999999734
202,3,0.8,0.0,-35.0,-1,1.0,2.850400000000036
203,3,0.8,0.25,-35.0,-1,1.0,0.34379999999987376
204,3,0.8,1.0,-35.0,-1,1.0,0.300499999999829
205,3,0.8,0.0,35.0,-1,0.0,0.8805999999999585
206,3,0.8,0.125,35.0,-1,0.0,0.3674999999998363
207,3,0.8,0.125,-35.0,-1,1.0,0.3374999999998636
208,3,0.8,1.0,-35.0,-1,1.0,0.2544000000000324
209,3,0.8,0.125,-35.0,-1,1.0,0.2944999999999709
210,3,0.8,0.0,-35.0,-1,1.0,2.014499999999998
211,3,0.8,0.125,-35.0,-1,1.0,1.0079999999998108
212,3,0.8,0.25,35.0,-1,0.0,3.264900000000125
213,3,0.8,0.0,-35.0,-1,1.0,0.008499999999912689
214,3,0.8,0.0625,-35.0,-1,1.0,0.6750999999999294
215,3,0.8,0.0625,-35.0,-1,1.0,3.0384999999998854
216,3,0.8,0.25,-35.0,-1,1.0,0.6154999999998836
217,3,0.8,0.125,-35.0,-1,1.0,0.342200000000048
218,3,0.8,0.0,-35.0,-1,1.0,0.46230000000014115
219,3,0.8,0.0625,-35.0,-1,1.0,6.658999999999878
220,3,0.8,0.125,-35.0,-1,1.0,0.519399999999905
221,3,0.8,0.0625,-35.0,-1,1.0,4.37279999999987
222,3,0.8,0.125,35.0,-1,0.0,2.4564000000000306
223,3,0.8,0.25,-35.0,-1,1.0,0.24659999999994398
224,3,0.8,0.125,-35.0,-1,1.0,2.1865999999999985
225,3,0.8,0.25,-35.0,-1,1.0,0.3100000000001728
226,3,0.8,0.25,-35.0,-1,1.0,0.35019999999985885
227,3,0.8,1.0,-35.0,-1,1.0,0.946999999999889
228,3,0.2,1.0,35.0,-1,0.0,7.417000000000144
229,3,0.2,1.0,35.0,1,1.0,26.80749999999989
230,3,0.2,0.25,35.0,1,1.0,10.081800000000158
231,3,0.2,0.125,35.0,1,1.0,8.465600000000222
232,3,0.2,1.0,35.0,1,1.0,3.8325999999999567
233,3,0.2,0.25,35.0,1,1.0,4.2228000000000065
234,3,0.2,0.0625,35.0,1,1.0,24.123100000000022
235,3,0.2,0.25,-35.0,-1,1.0,1.7906000000000404
236,3,0.2,0.0625,35.0,1,1.0,13.584100000000035
237,3,0.2,0.125,35.0,-1,0.0,7.271399999999858
238,3,0.2,0.125,35.0,-1,0.0,3.08849999999984
239,3,0.2,0.0625,35.0,1,1.0,10.95530000000008
240,3,0.2,0.0625,35.0,-1,0.0,3.155699999999797
241,3,0.2,0.0625,35.0,-1,0.0,0.29939999999987776
242,3,0.2,0.125,35.0,-1,0.0,0.4859999999998763
243,3,0.2,0.25,35.0,0,0.0,56.82639999999992
244,3,0.2,0.25,-35.0,-1,1.0,0.245600000000195
245,3,0.2,0.25,35.0,-1,0.0,0.20859999999993306
246,3,0.2,0.125,35.0,-1,0.0,0.2985999999998512
247,3,0.2,0.25,35.0,-1,0.0,0.2320999999999458
248,3,0.2,0.0,35.0,-1,0.0,2.5123000000000957
249,3,0.2,0.125,35.0,-1,0.0,11.335800000000063
250,3,0.2,1.0,35.0,1,1.0,0.6363999999998668
251,3,0.2,1.0,-35.0,-1,1.0,0.7963999999999487
252,3,0.2,0.0625,-35.0,-1,1.0,6.379799999999932
253,3,0.2,0.25,35.0,-1,0.0,0.7535000000000309
254,3,0.2,0.25,35.0,-1,0.0,16.080199999999877
255,3,0.2,0.125,35.0,-1,0.0,1.8009999999999309
256,3,0.2,0.0625,-35.0,-1,1.0,0.2945999999999458
257,3,0.2,1.0,-35.0,-1,1.0,0.24789999999984502
258,3,0.2,0.125,35.0,-1,0.0,6.354699999999866
259,3,0.2,0.125,35.0,-1,0.0,2.034898999999996
260,3,0.2,0.0625,35.0,-1,0.0,0.3319000000001324
261,3,0.2,1.0,35.0,1,1.0,33.6087
262,3,0.2,0.0625,35.0,0,0.0,59.95309999999995
263,3,0.2,0.0,35.0,-1,0.0,9.86889999999994
264,3,0.2,0.25,35.0,1,1.0,15.51949999999988
265,3,0.2,1.0,35.0,-1,0.0,2.097200000000157
266,3,0.2,0.25,35.0,-1,0.0,0.430299999999761
267,3,0.2,0.25,35.0,1,1.0,7.363800000000083
268,3,0.2,0.25,35.0,-1,0.0,5.897500000000036
269,3,0.2,1.0,35.0,1,1.0,14.014200000000073
270,3,0.2,1.0,-35.0,-1,1.0,3.5982999999996537
271,3,0.2,1.0,35.0,1,1.0,3.2188999999998487
272,3,0.2,0.0625,35.0,-1,0.0,5.142499999999927
273,3,0.2,0.0625,35.0,1,1.0,1.9157000000000153
274,3,0.2,0.25,35.0,-1,0.0,0.27260000000023865
275,3,0.8,0.125,-35.0,-1,1.0,0.33590000000003783
276,3,0.8,1.0,35.0,-1,0.0,3.592699999999695
277,3,0.8,0.0625,35.0,-1,0.0,0.8930000000000291
278,3,0.8,0.125,-35.0,-1,1.0,0.31679999999960273
279,3,0.8,0.125,35.0,-1,0.0,5.026400000000194
280,3,0.8,1.0,-35.0,-1,1.0,0.29680000000007567
281,3,0.8,0.0,-35.0,-1,1.0,23.94340000000011
282,3,0.8,0.0625,35.0,1,1.0,9.740999999999985
283,3,0.8,0.25,-35.0,-1,1.0,0.011499999999614374
284,3,0.8,0.25,-35.0,-1,1.0,3.421899999999823
285,3,0.8,1.0,-35.0,-1,1.0,0.5887000000002445
286,3,0.8,0.0625,-35.0,-1,1.0,2.0885999999995875
287,3,0.8,0.125,-35.0,-1,1.0,2.845299999999952
288,3,0.8,1.0,-35.0,-1,1.0,0.5322000000001026
289,3,0.8,0.125,35.0,-1,0.0,0.4459999999999127
290,3,0.8,0.25,-35.0,-1,1.0,0.18630000000030122
291,3,0.8,1.0,-35.0,-1,1.0,0.4025000000001455
292,3,0.8,1.0,35.0,-1,0.0,2.689300000000003
293,3,0.8,0.0625,-35.0,-1,1.0,0.2761999999997897
294,3,0.8,0.25,-35.0,-1,1.0,0.51299999999992
295,3,0.8,1.0,-35.0,-1,1.0,0.38990000000012515
296,3,0.8,0.0,-35.0,-1,1.0,3.0398999999997613
297,3,0.8,0.25,-35.0,-1,1.0,0.27700000000004366
298,3,0.2,0.125,35.0,-1,0.0,3.2770000000000437
299,3,0.2,0.125,-35.0,-1,1.0,0.17399999999997817
300,3,0.2,0.125,35.0,-1,0.0,5.730600000000322
301,3,0.2,0.0625,35.0,-1,0.0,5.317399999999907
302,3,0.2,1.0,35.0,1,1.0,6.811100000000351
303,3,0.2,0.0625,-35.0,1,0.0,4.168299999999817
304,3,0.2,0.25,35.0,1,1.0,4.014999999999873
305,3,0.2,0.0,35.0,1,1.0,7.615200000000186
306,3,0.2,0.0625,35.0,-1,0.0,1.5356000000001586
307,3,0.2,0.25,35.0,-1,0.0,12.776000000000295
308,3,0.2,1.0,-35.0,-1,1.0,0.36300000000028376
309,3,0.2,0.125,35.0,-1,0.0,0.6300999999998567
310,3,0.2,1.0,35.0,1,1.0,5.5000999999997475
311,3,0.2,0.0,35.0,1,1.0,6.513500000000022
312,3,0.2,0.125,35.0,-1,0.0,1.8639000000002852
313,3,0.2,0.0625,35.0,-1,0.0,0.31779999999980646
314,3,0.2,0.125,35.0,-1,0.0,4.641000000000076
315,3,0.2,0.0625,35.0,-1,0.0,26.00799999999981
316,3,0.2,0.0625,35.0,1,1.0,6.1621000000000095
317,3,0.2,1.0,35.0,1,1.0,0.6323999999999614
318,3,0.2,1.0,35.0,1,1.0,0.33570000000008804
319,3,0.2,1.0,35.0,1,1.0,19.91910000000007
320,3,0.2,0.25,35.0,1,1.0,12.933399999999892
321,3,0.2,0.25,35.0,1,1.0,0.6141999999995278
322,3,0.2,0.0625,-35.0,1,0.0,12.884099999999762
323,3,0.2,0.0625,35.0,1,1.0,1.8546000000001186
324,3,0.2,0.125,35.0,1,1.0,2.7813999999998487
325,3,0.2,0.25,35.0,1,1.0,4.288199999999961
326,3,0.2,1.0,35.0,1,1.0,7.401799999999639
327,3,0.2,0.125,35.0,1,1.0,7.665399999999863
328,3,0.2,0.125,35.0,1,1.0,19.46939999999995
329,3,0.2,0.0625,35.0,1,1.0,1.7731999999996333
330,3,0.2,1.0,35.0,1,1.0,3.369999999999891
331,3,0.2,1.0,35.0,1,1.0,30.750300000000152
332,3,0.2,0.0,35.0,1,1.0,4.638299999999617
333,3,0.2,0.25,35.0,1,1.0,2.591699999999946
334,3,0.2,0.125,35.0,-1,0.0,3.455199999999877
335,3,0.2,0.0625,35.0,1,1.0,6.162099999999555
336,3,0.2,0.125,-35.0,-1,1.0,0.5090000000004693
337,3,0.2,0.0625,35.0,-1,0.0,2.6424999999999272
338,3,0.2,0.25,-35.0,-1,1.0,0.4193000000000211
339,3,0.2,0.0625,35.0,1,1.0,10.533300000000054
340,3,0.2,0.25,35.0,-1,0.0,1.8166999999998552
341,3,0.2,0.0625,35.0,1,1.0,4.016599999999926
342,3,0.2,0.0625,35.0,-1,0.0,0.7436000000002423
343,3,0.2,0.0625,-35.0,-1,1.0,0.560399999999845
344,3,0.2,1.0,35.0,1,1.0,6.300499999999374
345,3,0.2,0.25,35.0,1,1.0,10.971500000000106
346,3,0.2,0.0625,35.0,-1,0.0,1.097899999999754
347,3,0.2,0.0,35.0,1,1.0,0.30150000000003274
348,3,0.2,1.0,35.0,1,1.0,0.45839999999998327
349,3,0.2,0.25,35.0,1,1.0,11.928299999999581
350,3,0.2,0.125,35.0,1,1.0,5.878899999999703
351,3,0.2,0.25,35.0,1,1.0,10.042399999999816
352,3,0.2,0.0625,35.0,1,1.0,7.212799999999788
353,3,0.2,0.0625,-35.0,1,0.0,13.809900000000198
354,3,0.2,0.25,35.0,1,1.0,9.667399999999816
355,3,0.2,1.0,35.0,1,1.0,0.09470000000010259
356,3,0.2,1.0,-35.0,-1,1.0,1.234599999999773
357,3,0.2,0.25,35.0,-1,0.0,3.1744999999996253
358,3,0.2,0.125,35.0,1,1.0,3.2346000000002277
359,3,0.2,1.0,35.0,-1,0.0,4.611999999999625
360,3,0.2,0.125,35.0,1,1.0,1.7084999999997308
361,3,0.2,0.0,35.0,1,1.0,2.0289999999999964
362,3,0.2,0.0,-35.0,1,0.0,2.2924999999995634
363,3,0.2,0.125,-35.0,-1,1.0,0.2561000000000604
364,3,0.2,0.0625,35.0,1,1.0,7.242499999999836
365,3,0.2,0.0625,-35.0,-1,1.0,0.4329000000002452
366,3,0.2,0.0625,35.0,1,1.0,6.636499999999614
367,3,0.2,0.0625,35.0,-1,0.0,3.8171000000002095
368,3,0.2,1.0,35.0,1,1.0,0.4436999999998079
369,3,0.2,0.25,35.0,1,1.0,6.503700000000208
370,3,0.2,0.25,-35.0,-1,1.0,0.8979000000003907
371,3,0.2,0.25,-35.0,-1,1.0,0.6707000000001244
372,3,0.2,1.0,35.0,1,1.0,12.177599999999984
373,3,0.2,0.25,-35.0,-1,1.0,0.29149999999981446
374,3,0.2,0.0,35.0,-1,0.0,2.0547999999998865
375,3,0.2,0.125,35.0,1,1.0,5.8115999999999985
376,3,0.2,0.0625,35.0,1,1.0,3.6018000000003667
377,3,0.2,0.125,-35.0,-1,1.0,0.8220999999998639
378,3,0.8,0.0625,-35.0,-1,1.0,-0.05099999999993088
379,3,0.8,0.25,-35.0,-1,1.0,0.632499999999709
380,3,0.8,0.125,35.0,-1,0.0,3.202900000000227
381,3,0.8,0.25,-35.0,-1,1.0,0.5498999999999796
382,3,0.8,0.0625,-35.0,-1,1.0,1.9361999999996442
383,3,0.8,1.0,-35.0,-1,1.0,0.2096000000001368
384,3,0.8,0.0625,-35.0,-1,1.0,0.689600000000155
385,3,0.8,0.0625,35.0,-1,0.0,0.25979999999981374
386,3,0.8,1.0,-35.0,-1,1.0,0.20659999999998035
387,3,0.8,0.0,35.0,-1,0.0,0.22679999999991196
388,3,0.8,0.125,-35.0,-1,1.0,0.28359999999975116
389,3,0.8,0.25,35.0,-1,0.0,0.32690000000047803
390,3,0.8,1.0,-35.0,-1,1.0,0.2169000000003507
391,3,0.8,1.0,-35.0,-1,1.0,0.2339999999999236
392,3,0.8,0.25,-35.0,-1,1.0,0.2507999999997992
393,3,0.8,0.25,-35.0,-1,1.0,0.3239999999996144
394,3,0.8,0.0625,-35.0,-1,1.0,0.42399999999997817
395,3,0.8,1.0,-35.0,-1,1.0,0.2343999999998232
396,3,0.8,0.0625,35.0,-1,0.0,8.49429999999984
397,3,0.8,1.0,-35.0,-1,1.0,0.2579999999998108
398,3,0.8,1.0,-35.0,-1,1.0,0.22530000000006112
399,3,0.8,0.25,-35.0,-1,1.0,0.24859999999989668
400,3,0.8,0.0,-35.0,-1,1.0,2.504899999999907
401,3,0.8,0.0625,35.0,1,1.0,12.445100000000366
402,3,0.8,1.0,-35.0,-1,1.0,0.9856999999997242
403,3,0.8,0.125,-35.0,-1,1.0,0.29599999999982174
404,3,0.8,1.0,-35.0,-1,1.0,0.4259999999999309
405,3,0.8,0.125,-35.0,-1,1.0,1.909400000000005
406,3,0.8,0.0625,-35.0,-1,1.0,0.2529999999997017
407,3,0.8,1.0,-35.0,-1,1.0,0.279700000000048
408,3,0.8,1.0,-35.0,-1,1.0,0.5932999999999993
409,3,0.8,0.25,35.0,-1,0.0,2.5898999999999432
410,3,0.8,0.25,-35.0,-1,1.0,0.23019999999996799
411,3,0.8,0.0625,-35.0,-1,1.0,2.7771999999999935
412,3,0.8,0.25,-35.0,-1,1.0,0.9136999999996078
413,3,0.8,0.25,-35.0,-1,1.0,0.2505999999998494
414,3,0.8,0.0625,-35.0,-1,1.0,0.40399999999999636
415,3,0.8,0.0625,-35.0,-1,1.0,1.8440999999997985
416,3,0.8,0.25,-35.0,-1,1.0,0.6107999999994718
417,3,0.8,0.125,35.0,-1,0.0,3.5277000000000953
418,3,0.8,0.0625,-35.0,-1,1.0,0.5646999999999025
419,3,0.8,0.125,-35.0,-1,1.0,0.6118000000001302
420,3,0.8,1.0,-35.0,-1,1.0,0.5646999999999025
421,3,0.8,1.0,-35.0,-1,1.0,0.25169999999980064
422,3,0.8,0.0625,-35.0,-1,1.0,0.9216999999998734
423,3,0.8,0.25,-35.0,-1,1.0,0.2518000000000029
424,3,0.8,0.0,-35.0,-1,1.0,0.36169999999992797
425,3,0.8,1.0,35.0,-1,0.0,5.158799999999701
426,3,0.8,0.25,-35.0,-1,1.0,0.6786999999999352
427,3,0.8,0.25,-35.0,-1,1.0,0.23229999999966822
428,3,0.8,1.0,-35.0,-1,1.0,0.34569999999985157
429,3,0.8,0.125,-35.0,-1,1.0,0.13590000000021973
430,3,0.8,0.25,-35.0,-1,1.0,0.11259999999992942
431,3,0.8,0.125,-35.0,-1,1.0,0.21590000000014697
432,3,0.8,1.0,-35.0,-1,1.0,0.3398000000001957
433,3,0.8,0.0,-35.0,-1,1.0,4.9362999999998465
434,3,0.8,0.25,-35.0,-1,1.0,0.34320000000025175
435,3,0.8,0.25,35.0,-1,0.0,0.2203999999996995
436,3,0.8,0.0625,-35.0,-1,1.0,0.5370999999995547
437,3,0.8,0.0625,35.0,-1,0.0,0.25030000000015207
438,3,0.8,0.25,-35.0,-1,1.0,0.3068999999995867
439,3,0.8,0.0,35.0,-1,0.0,3.3072000000001935
440,3,0.8,0.0,-35.0,1,0.0,0.24080000000003565
441,3,0.8,0.125,-35.0,-1,1.0,0.5073999999995067
442,3,0.8,1.0,-35.0,-1,1.0,0.3044999999997344
443,3,0.8,0.125,-35.0,-1,1.0,0.29440000000022337
444,3,0.8,1.0,-35.0,-1,1.0,0.16790000000037253
445,3,0.2,0.0625,-35.0,-1,1.0,0.28150000000005093
446,3,0.2,0.125,35.0,-1,0.0,0.6412999999997737
447,3,0.2,0.0,35.0,-1,0.0,0.2080999999998312
448,3,0.2,0.25,35.0,-1,0.0,0.19149999999945067
449,3,0.2,1.0,35.0,1,1.0,0.795100000000275
450,3,0.2,1.0,-35.0,-1,1.0,0.4553000000000793
451,3,0.2,0.125,35.0,1,1.0,9.365299999999934
452,3,0.2,0.0625,35.0,-1,0.0,0.45580000000018117
453,3,0.2,0.0,-35.0,1,0.0,1.819199999999455
454,3,0.2,0.0625,35.0,1,1.0,2.2559000000001106
455,3,0.2,0.25,-35.0,-1,1.0,1.51949999999988
456,3,0.2,1.0,35.0,1,1.0,0.6164000000003398
457,3,0.2,0.0,35.0,1,1.0,6.233099999999922
458,3,0.2,1.0,35.0,1,1.0,3.4202000000000226
459,3,0.2,1.0,35.0,1,1.0,9.077099999999973
460,3,0.2,0.25,-35.0,-1,1.0,12.11790000000019
461,3,0.2,1.0,-35.0,-1,1.0,1.1478999999994812
462,3,0.2,0.0,35.0,-1,0.0,15.62800100000004
463,3,0.2,0.25,35.0,-1,0.0,11.939100999999937
464,3,0.2,0.0625,35.0,1,1.0,36.54300099999955
465,3,0.2,1.0,35.0,1,1.0,0.9344009999999798
466,3,0.2,0.0625,35.0,0,0.0,59.930601000000024
467,3,0.2,0.0625,35.0,1,1.0,24.927100999999766
468,3,0.8,0.125,-35.0,-1,1.0,0.4306010000000242
469,3,0.8,1.0,-35.0,-1,1.0,1.8306009999996604
470,3,0.8,0.0625,35.0,-1,0.0,9.14080100000001
471,3,0.8,0.125,-35.0,-1,1.0,16.6978009999998
472,3,0.8,0.125,-35.0,-1,1.0,0.3052009999996699
473,3,0.8,0.125,-35.0,-1,1.0,1.238601000000017
474,3,0.8,0.125,-35.0,-1,1.0,0.7487009999999827
475,3,0.8,0.125,-35.0,-1,1.0,0.22550100000034945
476,3,0.8,0.125,35.0,-1,0.0,2.462301000000025
477,3,0.8,0.125,35.0,-1,0.0,0.8958010000001195
478,3,0.8,0.125,-35.0,-1,1.0,0.28260099999988597
479,3,0.8,0.0,-35.0,-1,1.0,22.69280099999969
480,3,0.8,0.25,35.0,-1,0.0,7.580300999999963
481,3,0.8,1.0,35.0,1,1.0,5.9507009999997535
482,3,0.8,0.0625,-35.0,-1,1.0,19.641000999999505
483,3,0.8,1.0,-35.0,-1,1.0,0.39530100000001767
484,3,0.8,0.125,-35.0,-1,1.0,0.30530099999987215
