trial_num,session_num,stim_probability_left,contrast,position,response_choice,trial_correct,reaction_time
1,1,0.5,0.125,-35.0,-1,1.0,0.4342999999999999
2,1,0.5,0.125,-35.0,-1,1.0,0.2836999999999996
3,1,0.5,0.0,35.0,-1,0.0,0.31960000000000033
4,1,0.5,0.0625,35.0,1,1.0,0.9324000000000012
5,1,0.5,1.0,-35.0,-1,1.0,0.5055000000000014
6,1,0.5,0.125,-35.0,-1,1.0,3.9735000000000014
7,1,0.5,0.25,-35.0,1,0.0,3.4634999999999962
8,1,0.5,0.0625,35.0,1,1.0,0.14529999999999887
9,1,0.5,0.25,35.0,1,1.0,0.557699999999997
10,1,0.5,0.0625,35.0,1,1.0,5.501199999999997
11,1,0.5,0.25,35.0,1,1.0,0.6079000000000008
12,1,0.5,1.0,35.0,1,1.0,0.32090000000000174
13,1,0.5,0.125,35.0,1,1.0,0.3509000000000029
14,1,0.5,0.0625,-35.0,-1,1.0,0.44189999999999685
15,1,0.5,0.25,35.0,1,1.0,0.6103999999999985
16,1,0.5,0.0,35.0,-1,0.0,0.43900000000000006
17,1,0.5,0.125,35.0,1,1.0,0.5656999999999996
18,1,0.5,0.25,-35.0,-1,1.0,0.7404000000000082
19,1,0.5,0.125,-35.0,-1,1.0,4.38709999999999
20,1,0.5,0.25,-35.0,-1,1.0,0.5683000000000078
21,1,0.5,0.25,-35.0,-1,1.0,0.6240999999999985
22,1,0.5,0.0,35.0,-1,0.0,2.6535999999999973
23,1,0.5,0.0625,35.0,1,1.0,1.8848999999999876
24,1,0.5,0.0625,35.0,-1,0.0,0.37420000000000186
25,1,0.5,0.0,35.0,1,1.0,1.3770999999999987
26,1,0.5,1.0,35.0,1,1.0,2.177599999999998
27,1,0.5,0.25,-35.0,-1,1.0,0.3633999999999986
28,1,0.5,1.0,35.0,1,1.0,0.3924999999999983
29,1,0.5,1.0,-35.0,-1,1.0,0.2500999999999891
30,1,0.5,0.25,-35.0,-1,1.0,3.2439000000000107
31,1,0.5,0.0625,-35.0,-1,1.0,0.24859999999999616
32,1,0.5,1.0,-35.0,-1,1.0,0.3322000000000003
33,1,0.5,0.125,-35.0,-1,1.0,2.210799999999992
34,1,0.5,0.0625,-35.0,-1,1.0,0.5150000000000006
35,1,0.5,0.0,35.0,-1,0.0,1.0851999999999862
36,1,0.5,0.0625,-35.0,1,0.0,0.4253000000000213
37,1,0.5,0.125,-35.0,-1,1.0,0.3329000000000235
38,1,0.5,1.0,-35.0,-1,1.0,0.3906000000000063
39,1,0.5,1.0,-35.0,-1,1.0,0.5030000000000143
40,1,0.5,0.25,35.0,1,1.0,1.1962000000000046
41,1,0.5,0.25,-35.0,-1,1.0,1.275100000000009
42,1,0.5,0.125,-35.0,-1,1.0,0.45420000000001437
43,1,0.5,0.0,-35.0,-1,1.0,0.44410000000002015
44,1,0.5,0.0625,35.0,-1,0.0,3.328800000000001
45,1,0.5,0.0625,-35.0,-1,1.0,0.7951000000000192
46,1,0.5,0.125,-35.0,-1,1.0,0.2662000000000262
47,1,0.5,0.0,35.0,-1,0.0,3.6507000000000005
48,1,0.5,0.125,35.0,1,1.0,0.37920000000002574
49,1,0.5,0.0625,-35.0,1,0.0,3.1461000000000183
50,1,0.5,0.125,-35.0,1,0.0,0.19610000000000127
51,1,0.5,0.125,-35.0,-1,1.0,0.4136000000000024
52,1,0.5,0.125,-35.0,-1,1.0,1.6394999999999982
53,1,0.5,0.0,-35.0,-1,1.0,0.494700000000023
54,1,0.5,0.0,-35.0,-1,1.0,1.517200000000031
55,1,0.5,1.0,-35.0,-1,1.0,0.23619999999999663
56,1,0.5,1.0,35.0,1,1.0,2.085300000000018
57,1,0.5,0.125,-35.0,1,0.0,0.2540000000000475
58,1,0.5,0.25,35.0,1,1.0,0.9926000000000101
59,1,0.5,0.125,35.0,1,1.0,1.5353000000000065
60,1,0.5,0.125,-35.0,-1,1.0,0.6222000000000207
61,1,0.5,0.125,35.0,1,1.0,0.38040000000000873
62,1,0.5,1.0,35.0,1,1.0,2.707499999999982
63,1,0.5,0.25,35.0,1,1.0,1.977800000000002
64,1,0.5,1.0,-35.0,-1,1.0,0.1896000000000413
65,1,0.5,0.25,-35.0,-1,1.0,0.4638000000000204
66,1,0.5,0.25,-35.0,-1,1.0,0.3246000000000038
67,1,0.5,0.125,35.0,1,1.0,1.7843000000000018
68,1,0.5,0.0625,35.0,-1,0.0,2.234100000000012
69,1,0.5,0.125,-35.0,-1,1.0,0.224899999999991
70,1,0.5,0.125,-35.0,-1,1.0,0.49039999999996553
71,1,0.5,0.25,-35.0,-1,1.0,0.5369999999999777
72,1,0.5,1.0,-35.0,-1,1.0,0.33670000000000755
73,1,0.5,0.25,35.0,1,1.0,1.5919000000000096
74,1,0.5,0.0,-35.0,1,0.0,1.518600000000049
75,1,0.5,1.0,-35.0,-1,1.0,0.24750000000000227
76,1,0.5,1.0,-35.0,-1,1.0,0.3049000000000319
77,1,0.5,0.0625,35.0,-1,0.0,0.9683999999999742
78,1,0.5,1.0,-35.0,-1,1.0,0.12059999999996762
79,1,0.5,0.0625,-35.0,-1,1.0,1.4263989999999467
80,1,0.5,1.0,-35.0,-1,1.0,0.2604999999999791
81,1,0.5,0.0,-35.0,1,0.0,1.9335000000000377
82,1,0.5,0.25,35.0,1,1.0,0.29849999999999
83,1,0.5,0.0625,-35.0,-1,1.0,1.2808999999999742
84,1,0.5,0.125,-35.0,1,0.0,3.826999999999998
85,1,0.5,0.125,35.0,1,1.0,0.2636999999999716
86,1,0.5,0.0625,-35.0,-1,1.0,2.286299999999926
87,1,0.5,0.0625,-35.0,-1,1.0,1.794399999999996
88,1,0.5,0.0625,-35.0,1,0.0,2.433499999999981
89,1,0.5,0.0625,-35.0,1,0.0,0.3492999999999711
90,1,0.5,0.25,35.0,1,1.0,0.2518000000000029
91,1,0.2,0.0625,35.0,1,1.0,0.3360999999999308
92,1,0.2,0.25,35.0,1,1.0,2.4160999999999717
93,1,0.2,0.125,35.0,1,1.0,0.34960000000000946
94,1,0.2,0.0,35.0,1,1.0,0.29759999999998854
95,1,0.2,0.25,35.0,1,1.0,3.4787000000000035
96,1,0.2,0.0625,35.0,1,1.0,1.4225999999999885
97,1,0.2,0.0625,35.0,1,1.0,0.40399999999999636
98,1,0.2,0.0,35.0,-1,0.0,1.3765999999999963
99,1,0.2,0.25,35.0,1,1.0,0.15179999999998017
100,1,0.2,0.125,35.0,1,1.0,0.5187000000000239
101,1,0.2,0.125,-35.0,-1,1.0,0.413599999999974
102,1,0.2,1.0,35.0,1,1.0,0.3353000000000179
103,1,0.2,1.0,35.0,1,1.0,0.5336999999999534
104,1,0.2,0.125,-35.0,-1,1.0,0.2626000000000204
105,1,0.2,0.25,35.0,1,1.0,0.3598999999999819
106,1,0.2,0.125,-35.0,-1,1.0,0.2617000000000189
107,1,0.2,0.125,35.0,1,1.0,3.640199999999993
108,1,0.2,0.125,35.0,1,1.0,0.3055999999999699
109,1,0.2,0.0,35.0,-1,0.0,0.5036999999999807
110,1,0.2,0.25,35.0,1,1.0,1.9757999999999925
111,1,0.2,0.0625,35.0,1,1.0,0.44369999999997844
112,1,0.2,0.0625,35.0,1,1.0,1.6644999999999754
113,1,0.2,0.0625,35.0,-1,0.0,1.1067999999999643
114,1,0.2,0.0625,35.0,1,1.0,0.21599999999995134
115,1,0.2,0.25,35.0,1,1.0,0.3632999999999811
116,1,0.2,0.125,35.0,1,1.0,0.37119999999998754
117,1,0.2,0.125,-35.0,-1,1.0,0.7324999999999591
118,1,0.2,0.25,-35.0,-1,1.0,0.5807000000000357
119,1,0.2,0.125,35.0,1,1.0,0.2909999999999968
120,1,0.2,0.0625,35.0,-1,0.0,0.3827999999999747
121,1,0.2,0.0,-35.0,-1,1.0,0.376199999999983
122,1,0.2,0.25,-35.0,-1,1.0,0.5243999999999573
123,1,0.2,0.25,35.0,1,1.0,3.1264999999999645
124,1,0.2,1.0,35.0,1,1.0,2.148900000000026
125,1,0.2,0.0,-35.0,1,0.0,0.7638000000000034
126,1,0.2,0.0,35.0,1,1.0,0.4228999999999701
127,1,0.2,0.25,35.0,1,1.0,0.4387999999999579
128,1,0.2,0.125,35.0,1,1.0,0.47589999999996735
129,1,0.2,1.0,35.0,1,1.0,1.0176000000000158
130,1,0.2,1.0,-35.0,-1,1.0,0.6593999999999482
131,1,0.2,0.125,35.0,1,1.0,0.35120000000000573
132,1,0.2,0.25,35.0,1,1.0,1.7253000000000043
133,1,0.2,0.25,35.0,1,1.0,0.307899999999961
134,1,0.2,1.0,35.0,1,1.0,0.32929999999998927
135,1,0.2,1.0,35.0,1,1.0,0.3080999999999676
136,1,0.2,1.0,35.0,1,1.0,0.356899999999996
137,1,0.2,0.25,35.0,1,1.0,0.3362999999999374
138,1,0.2,0.125,35.0,1,1.0,0.4528999999999428
139,1,0.2,0.125,35.0,1,1.0,0.3632000000000062
140,1,0.2,0.125,35.0,1,1.0,0.4148999999999319
141,1,0.2,0.25,35.0,1,1.0,0.3172999999999888
142,1,0.2,0.125,35.0,1,1.0,2.6147000000000276
143,1,0.2,0.0625,35.0,1,1.0,0.3365000000000009
144,1,0.2,1.0,-35.0,-1,1.0,0.2505999999999631
145,1,0.2,0.0,-35.0,1,0.0,2.2413999999999987
146,1,0.2,0.25,35.0,1,1.0,0.43200000000001637
147,1,0.2,0.0,35.0,-1,0.0,0.9311999999998761
148,1,0.2,0.0625,35.0,1,1.0,0.4335999999999558
149,1,0.2,0.25,35.0,1,1.0,3.446899999999914
150,1,0.2,0.25,-35.0,-1,1.0,0.39859999999998763
151,1,0.2,0.25,35.0,1,1.0,0.23339999999996053
152,1,0.2,0.0625,35.0,1,1.0,4.16719999999998
153,1,0.2,0.25,35.0,1,1.0,3.309099999999944
154,1,0.2,0.0625,-35.0,1,0.0,0.42390000000011696
155,1,0.2,0.0,35.0,-1,0.0,1.2753999999999905
156,1,0.2,0.125,35.0,1,1.0,0.34199999999998454
157,1,0.2,1.0,35.0,1,1.0,0.33760000000006585
158,1,0.2,0.25,35.0,1,1.0,0.32740000000012515
159,1,0.2,1.0,-35.0,-1,1.0,0.2930999999998676
160,1,0.2,0.0625,35.0,1,1.0,0.2140999999999167
161,1,0.2,1.0,-35.0,-1,1.0,0.6975999999999658
162,1,0.2,0.25,-35.0,-1,1.0,1.434500000000071
163,1,0.2,1.0,35.0,1,1.0,1.5534999999999854
164,1,0.2,0.0,-35.0,-1,1.0,1.239099999999894
165,1,0.2,0.25,35.0,1,1.0,0.3546000000000049
166,1,0.2,0.0,35.0,1,1.0,1.0275000000000318
167,1,0.2,0.125,35.0,1,1.0,1.3564999999999827
168,1,0.2,0.25,-35.0,-1,1.0,0.27350000000001273
169,1,0.2,1.0,35.0,1,1.0,0.4492999999999938
170,1,0.2,0.0625,35.0,-1,0.0,0.8977999999999611
171,1,0.2,0.25,-35.0,-1,1.0,0.36740000000008877
172,1,0.2,0.25,-35.0,-1,1.0,0.35169999999993706
173,1,0.2,0.0625,-35.0,-1,1.0,0.2742000000000644
174,1,0.2,0.25,-35.0,-1,1.0,0.4231999999999516
175,1,0.8,0.0,-35.0,-1,1.0,0.8262999999999465
176,1,0.8,0.125,-35.0,-1,1.0,0.20109999999999673
177,1,0.8,1.0,-35.0,-1,1.0,0.3464000000000169
178,1,0.8,0.125,-35.0,-1,1.0,0.1912000000000944
179,1,0.8,0.0625,-35.0,1,0.0,0.09859999999991942
180,1,0.8,1.0,-35.0,-1,1.0,0.3080999999999676
181,1,0.8,0.25,-35.0,-1,1.0,0.3302999999999656
182,1,0.8,0.0625,-35.0,-1,1.0,0.13199999999994816
183,1,0.8,1.0,-35.0,-1,1.0,0.22029999999995198
184,1,0.8,0.0625,-35.0,-1,1.0,0.4533000000000129
185,1,0.8,0.0,-35.0,1,0.0,0.4017999999999802
186,1,0.8,1.0,-35.0,1,0.0,0.11939999999992779
187,1,0.8,0.0625,-35.0,-1,1.0,0.4773000000000138
188,1,0.8,1.0,-35.0,-1,1.0,0.31130000000007385
189,1,0.8,0.0625,-35.0,1,0.0,0.4641999999998916
190,1,0.8,0.0,-35.0,1,0.0,0.26679999999998927
191,1,0.8,0.0625,-35.0,1,0.0,0.28940000000000055
192,1,0.8,0.25,-35.0,-1,1.0,0.19539999999994961
193,1,0.8,0.125,-35.0,-1,1.0,0.84699999999998
194,1,0.8,0.0625,-35.0,-1,1.0,0.3022999999999456
195,1,0.8,0.125,-35.0,-1,1.0,0.36169999999992797
196,1,0.8,0.0625,35.0,1,1.0,0.4196999999999207
197,1,0.8,0.25,-35.0,-1,1.0,0.9213999999999487
198,1,0.8,1.0,-35.0,1,0.0,0.10739999999987049
199,1,0.8,0.0625,-35.0,1,0.0,0.250699999999938
200,1,0.8,0.0,-35.0,1,0.0,0.5315999999999121
201,1,0.8,0.125,-35.0,-1,1.0,0.5325000000000273
202,1,0.8,1.0,-35.0,-1,1.0,0.3424999999999727
203,1,0.8,0.25,35.0,1,1.0,0.3874999999999318
204,1,0.8,0.25,-35.0,-1,1.0,2.1260999999999513
205,1,0.8,1.0,35.0,1,1.0,0.3205000000000382
206,1,0.8,1.0,-35.0,-1,1.0,0.41620000000000346
207,1,0.8,0.25,-35.0,-1,1.0,0.38379999999995107
208,1,0.8,0.0,-35.0,-1,1.0,1.0489999999999782
209,1,0.8,0.0625,-35.0,-1,1.0,0.5701999999999998
210,1,0.8,0.25,-35.0,-1,1.0,0.5304999999999609
211,1,0.8,0.25,-35.0,-1,1.0,0.3854999999999791
212,1,0.8,0.125,-35.0,-1,1.0,0.34959999999989577
213,1,0.8,0.0625,-35.0,-1,1.0,0.30169999999998254
214,1,0.8,0.125,35.0,1,1.0,0.6884999999999764
215,1,0.8,0.125,-35.0,-1,1.0,0.4940000000000282
216,1,0.8,0.25,-35.0,-1,1.0,0.538599999999974
217,1,0.8,0.25,-35.0,-1,1.0,0.2215999999999667
218,1,0.8,0.0625,-35.0,1,0.0,0.22059999999987667
219,1,0.8,1.0,-35.0,-1,1.0,0.3108000000000857
220,1,0.8,0.25,-35.0,-1,1.0,0.4258999999998423
221,1,0.8,0.25,-35.0,-1,1.0,0.1755999999999176
222,1,0.8,0.0625,-35.0,-1,1.0,0.13199999999994816
223,1,0.8,0.25,-35.0,-1,1.0,0.22070000000007894
224,1,0.8,0.125,-35.0,-1,1.0,0.38669999999990523
225,1,0.8,0.0625,-35.0,-1,1.0,0.08469999999988431
226,1,0.2,0.0625,35.0,1,1.0,0.39620000000002165
227,1,0.2,1.0,-35.0,-1,1.0,0.3550999999999931
228,1,0.2,0.0625,-35.0,1,0.0,0.4397999999999911
229,1,0.2,0.125,35.0,1,1.0,0.41679999999996653
230,1,0.2,1.0,35.0,1,1.0,0.35569999999995616
231,1,0.2,0.0625,35.0,1,1.0,1.0457000000001244
232,1,0.2,0.0625,-35.0,1,0.0,1.4522999999999229
233,1,0.2,0.0625,35.0,1,1.0,0.5785000000000764
234,1,0.2,0.0625,35.0,1,1.0,0.3608000000000402
235,1,0.2,1.0,35.0,1,1.0,0.07759999999996126
236,1,0.2,0.25,35.0,1,1.0,0.3746999999999616
237,1,0.2,0.25,-35.0,-1,1.0,0.4999000000000251
238,1,0.2,0.125,35.0,1,1.0,0.29579999999998563
239,1,0.2,0.0625,35.0,1,1.0,0.30780000000004293
240,1,0.2,0.125,35.0,1,1.0,1.231800000000021
241,1,0.2,0.25,35.0,1,1.0,0.2945999999999458
242,1,0.2,1.0,35.0,1,1.0,0.2803000000000111
243,1,0.2,0.0625,35.0,1,1.0,0.9250999999999294
244,1,0.2,0.0625,35.0,1,1.0,0.22259999999994307
245,1,0.2,1.0,-35.0,-1,1.0,0.2777999999999565
246,1,0.2,1.0,35.0,1,1.0,0.24309999999991305
247,1,0.2,1.0,35.0,1,1.0,0.12209999999993215
248,1,0.2,0.0625,35.0,1,1.0,0.4318999999999278
249,1,0.2,0.0,35.0,1,1.0,1.7049999999999272
250,1,0.2,1.0,35.0,1,1.0,0.5097999999999274
251,1,0.2,0.125,35.0,1,1.0,0.3627999999999929
252,1,0.2,0.125,35.0,1,1.0,0.34590000000002874
253,1,0.2,1.0,35.0,1,1.0,0.25660000000004857
254,1,0.2,0.25,-35.0,-1,1.0,0.26340000000004693
255,1,0.2,0.125,-35.0,1,0.0,0.14609999999993306
256,1,0.2,0.25,35.0,1,1.0,0.259900000000016
257,1,0.2,0.0,35.0,1,1.0,0.28890000000001237
258,1,0.2,0.125,35.0,1,1.0,0.4390999999999394
259,1,0.2,0.125,35.0,1,1.0,0.6848999999999705
260,1,0.2,0.25,35.0,1,1.0,0.2199000000000524
261,1,0.2,0.0,-35.0,1,0.0,0.4899000000000342
262,1,0.2,0.0,35.0,1,1.0,2.1749999999999545
263,1,0.2,0.125,35.0,1,1.0,0.8233999999999924
264,1,0.2,1.0,35.0,1,1.0,0.9819999999999709
265,1,0.2,1.0,35.0,1,1.0,0.39259999999990214
266,1,0.2,0.25,35.0,1,1.0,0.22109999999997854
267,1,0.2,0.25,35.0,1,1.0,0.25719999999989795
268,1,0.2,0.125,35.0,1,1.0,1.473799999999983
269,1,0.2,0.125,-35.0,-1,1.0,1.39549999999997
270,1,0.2,0.0625,35.0,1,1.0,0.4249999999999545
271,1,0.2,0.125,35.0,1,1.0,0.24299999999993815
272,1,0.2,0.125,35.0,1,1.0,0.3000000000000682
273,1,0.2,0.0625,35.0,1,1.0,0.29379999999991924
274,1,0.2,0.25,35.0,1,1.0,0.2864000000000715
275,1,0.2,0.125,35.0,1,1.0,0.282799999999952
276,1,0.2,0.125,35.0,1,1.0,0.36199999999996635
277,1,0.2,0.0625,35.0,1,1.0,0.3181999999999334
278,1,0.2,0.0625,35.0,1,1.0,3.226099999999974
279,1,0.2,0.25,35.0,1,1.0,0.3673999999999751
280,1,0.2,0.0625,-35.0,-1,1.0,0.5151999999999362
281,1,0.2,1.0,35.0,1,1.0,0.36850000000004
282,1,0.2,0.0625,-35.0,-1,1.0,0.42399999999997817
283,1,0.2,1.0,-35.0,-1,1.0,0.293700000000058
284,1,0.2,0.0625,35.0,1,1.0,0.3671000000000504
285,1,0.2,1.0,35.0,1,1.0,0.41409999999996217
286,1,0.2,0.125,-35.0,-1,1.0,0.37770000000000437
287,1,0.2,0.0625,-35.0,-1,1.0,0.3144999999999527
288,1,0.2,0.25,35.0,1,1.0,0.2942000000000462
289,1,0.2,0.125,35.0,1,1.0,0.45460000000002765
290,1,0.2,1.0,-35.0,-1,1.0,0.34789999999998145
291,1,0.2,1.0,35.0,1,1.0,0.29129999999986467
292,1,0.2,1.0,35.0,1,1.0,0.3080999999999676
293,1,0.2,0.0,35.0,1,1.0,0.40190000000006876
294,1,0.2,0.125,35.0,1,1.0,0.45830000000000837
295,1,0.2,0.125,35.0,1,1.0,0.24159999999983484
296,1,0.2,0.25,35.0,1,1.0,0.27520000000004075
297,1,0.2,1.0,35.0,1,1.0,0.3751999999997224
298,1,0.2,1.0,35.0,1,1.0,0.345299999999952
299,1,0.2,0.125,35.0,1,1.0,0.5153000000000247
300,1,0.2,1.0,35.0,1,1.0,0.5692999999998847
301,1,0.2,0.25,-35.0,-1,1.0,0.18910000000005311
302,1,0.2,0.0625,35.0,-1,0.0,3.2192999999999756
303,1,0.2,0.25,35.0,1,1.0,0.34629999999992833
304,1,0.2,0.125,35.0,-1,0.0,0.4728999999997541
305,1,0.2,0.0625,35.0,-1,0.0,0.2462999999997919
306,1,0.2,0.125,35.0,-1,0.0,0.083299999999781
307,1,0.2,0.0625,35.0,-1,0.0,0.526700000000119
308,1,0.2,0.125,35.0,1,1.0,0.25060000000007676
309,1,0.2,1.0,35.0,1,1.0,0.420399999999745
310,1,0.2,0.25,35.0,1,1.0,0.6303000000000338
311,1,0.2,0.25,-35.0,-1,1.0,3.0972999999999047
312,1,0.2,1.0,35.0,1,1.0,0.7441999999998643
313,1,0.2,0.0625,35.0,1,1.0,0.4806999999998425
314,1,0.2,1.0,35.0,1,1.0,0.31780000000003383
315,1,0.2,0.0625,35.0,-1,0.0,0.8377000000000407
316,1,0.2,0.0625,35.0,-1,0.0,0.2979000000000269
317,1,0.2,0.25,35.0,-1,0.0,1.1154999999998836
318,1,0.2,0.0625,-35.0,-1,1.0,0.34550000000012915
319,1,0.8,0.25,-35.0,-1,1.0,0.24549999999999272
320,1,0.8,0.125,-35.0,-1,1.0,0.6486999999999625
321,1,0.8,0.125,-35.0,-1,1.0,0.5287000000000717
322,1,0.8,0.125,-35.0,-1,1.0,0.332300000000032
323,1,0.8,0.0625,-35.0,-1,1.0,0.08249999999998181
324,1,0.8,0.0625,-35.0,-1,1.0,0.6056999999998425
325,1,0.8,0.125,35.0,1,1.0,0.1290999999998803
326,1,0.8,0.125,-35.0,-1,1.0,0.22929999999973916
327,1,0.8,0.125,-35.0,-1,1.0,0.3225999999999658
328,1,0.8,0.0625,-35.0,-1,1.0,0.6295000000000073
329,1,0.8,0.125,35.0,1,1.0,0.522899999999936
330,1,0.8,0.25,35.0,1,1.0,0.2598000000000411
331,1,0.8,0.125,35.0,1,1.0,0.3766000000000531
332,1,0.8,0.0625,-35.0,-1,1.0,0.363399999999956
333,1,0.8,1.0,-35.0,-1,1.0,0.03340000000002874
334,1,0.8,0.125,-35.0,-1,1.0,0.8169000000000324
335,1,0.8,1.0,-35.0,-1,1.0,0.21709999999984575
336,1,0.8,0.0625,-35.0,1,0.0,0.2039999999999509
337,1,0.8,0.125,-35.0,-1,1.0,0.3138000000001284
338,1,0.8,1.0,-35.0,-1,1.0,0.38400000000001455
339,1,0.8,0.125,-35.0,-1,1.0,0.3876000000000204
340,1,0.8,0.25,-35.0,-1,1.0,0.29460000000017317
341,1,0.8,0.0,-35.0,-1,1.0,0.3846000000000913
342,1,0.8,0.0625,-35.0,1,0.0,0.2176999999999225
343,1,0.8,0.0,35.0,1,1.0,1.521199999999908
344,1,0.8,1.0,-35.0,-1,1.0,0.34149999999999636
345,1,0.8,1.0,-35.0,-1,1.0,0.29189999999994143
346,1,0.8,0.0625,-35.0,1,0.0,0.06860000000006039
347,1,0.8,0.0,-35.0,-1,1.0,0.3150999999998021
348,1,0.8,0.125,35.0,-1,0.0,0.23179999999979373
349,1,0.8,0.25,-35.0,-1,1.0,0.3387000000000171
350,1,0.8,0.25,-35.0,-1,1.0,0.2587999999998374
351,1,0.8,0.0625,-35.0,-1,1.0,0.2921999999998661
352,1,0.8,0.0625,35.0,-1,0.0,2.4390999999998257
353,1,0.8,0.25,-35.0,-1,1.0,0.37599999999997635
354,1,0.8,0.0,-35.0,-1,1.0,0.19279999999980646
355,1,0.8,0.25,-35.0,-1,1.0,0.49299999999993815
356,1,0.8,0.25,-35.0,-1,1.0,0.2566999999999098
357,1,0.8,0.0625,-35.0,-1,1.0,0.22329999999988104
358,1,0.8,0.25,-35.0,-1,1.0,0.25999999999976353
359,1,0.8,0.0625,35.0,1,1.0,2.4269999999999072
360,1,0.8,0.125,-35.0,-1,1.0,0.28080000000022665
361,1,0.2,0.125,35.0,1,1.0,0.4072000000001026
362,1,0.2,1.0,35.0,1,1.0,0.2878000000000611
363,1,0.2,0.25,35.0,1,1.0,0.3341000000000349
364,1,0.2,0.0,-35.0,1,0.0,0.5876000000000658
365,1,0.2,0.125,-35.0,-1,1.0,0.38779999999997017
366,1,0.2,0.0,35.0,1,1.0,0.5348999999998796
367,1,0.2,0.0625,35.0,1,1.0,0.4148000000000138
368,1,0.2,0.0,35.0,1,1.0,0.2749999999998636
369,1,0.2,0.25,35.0,1,1.0,3.6748999999999796
370,1,0.2,0.0625,35.0,-1,0.0,0.3918999999998505
371,1,0.2,1.0,35.0,1,1.0,0.3488999999999578
372,1,0.2,0.125,-35.0,-1,1.0,0.4154999999998381
373,1,0.2,1.0,-35.0,-1,1.0,0.6059000000000196
374,1,0.2,0.25,35.0,1,1.0,0.37590000000000146
375,1,0.2,1.0,35.0,1,1.0,0.4756999999999607
376,1,0.2,0.0625,-35.0,1,0.0,1.322499999999991
377,1,0.2,0.125,35.0,1,1.0,0.4094000000000051
378,1,0.2,0.0,-35.0,-1,1.0,0.40619999999989886
379,1,0.2,0.25,35.0,1,1.0,0.34629999999992833
380,1,0.2,0.0625,35.0,1,1.0,0.3462000000001808
381,1,0.2,0.0625,35.0,1,1.0,0.2436000000002423
382,1,0.2,0.125,35.0,1,1.0,0.17660000000000764
383,1,0.2,1.0,35.0,1,1.0,0.40000000000009095
384,1,0.2,0.25,35.0,1,1.0,0.37009999999986576
385,1,0.2,0.125,35.0,1,1.0,0.20699999999987995
386,1,0.2,0.0625,35.0,1,1.0,0.39400000000000546
387,1,0.2,0.0625,35.0,1,1.0,0.30709999999999127
388,1,0.2,0.0,-35.0,1,0.0,0.24729999999999563
389,1,0.2,1.0,-35.0,-1,1.0,0.37400000000002365
390,1,0.2,0.0625,35.0,1,1.0,0.4474999999999909
391,1,0.2,0.125,35.0,1,1.0,0.33809999999994034
392,1,0.2,0.0625,35.0,1,1.0,0.3510999999998603
393,1,0.2,0.125,-35.0,-1,1.0,0.42429999999990287
394,1,0.2,0.0625,35.0,1,1.0,0.26120000000014443
395,1,0.2,1.0,35.0,1,1.0,0.2979000000000269
396,1,0.2,0.25,35.0,1,1.0,0.28129999999987376
397,1,0.2,1.0,35.0,1,1.0,0.33159999999998035
398,1,0.2,0.0625,35.0,1,1.0,0.5816999999997279
399,1,0.2,0.125,35.0,1,1.0,0.31569999999987886
400,1,0.2,0.0625,35.0,1,1.0,0.3453999999999269
401,1,0.2,0.0625,35.0,1,1.0,0.3693000000000666
402,1,0.2,0.0625,35.0,1,1.0,1.049099999999953
403,1,0.2,0.25,35.0,1,1.0,0.4091999999998279
404,1,0.2,1.0,-35.0,-1,1.0,0.3893999999997959
405,1,0.2,0.0,35.0,-1,0.0,0.3331999999998061
406,1,0.2,0.0625,35.0,1,1.0,0.4461999999998625
407,1,0.2,0.0,-35.0,-1,1.0,1.1261999999999261
408,1,0.2,0.25,-35.0,-1,1.0,0.4596999999998843
409,1,0.2,1.0,-35.0,-1,1.0,0.2563999999999851
410,1,0.2,0.0,35.0,1,1.0,0.9065000000000509
411,1,0.2,1.0,35.0,1,1.0,0.2867999999998574
412,1,0.2,1.0,35.0,1,1.0,0.33359999999993306
413,1,0.2,1.0,35.0,1,1.0,0.3406999999999698
414,1,0.2,0.0625,35.0,1,1.0,0.39740000000028886
415,1,0.2,0.0,-35.0,1,0.0,0.28749999999990905
416,1,0.2,1.0,35.0,1,1.0,0.3612000000000535
417,1,0.2,0.0,35.0,1,1.0,2.7413000000001375
418,1,0.2,0.0625,35.0,1,1.0,0.31780000000003383
419,1,0.2,0.0625,35.0,1,1.0,0.3145999999999276
420,1,0.2,0.125,35.0,1,1.0,0.3346990000000005
421,1,0.2,0.125,35.0,1,1.0,0.29490000000009786
422,1,0.2,0.25,-35.0,-1,1.0,0.4015999999999167
423,1,0.2,1.0,35.0,1,1.0,0.23840000000018335
424,1,0.2,0.125,-35.0,-1,1.0,0.39840000000003783
425,1,0.2,0.25,35.0,1,1.0,0.17860000000018772
426,1,0.2,1.0,35.0,1,1.0,0.44229999999993197
427,1,0.2,1.0,-35.0,-1,1.0,0.42239999999992506
428,1,0.2,0.0,-35.0,1,0.0,0.42230000000017753
429,1,0.2,0.25,35.0,1,1.0,0.38239999999996144
430,1,0.2,0.125,35.0,1,1.0,3.752599999999802
431,1,0.2,0.125,35.0,1,1.0,0.3927000000001044
432,1,0.2,0.125,35.0,1,1.0,0.39970000000016626
433,1,0.2,0.25,35.0,1,1.0,0.5096000000000913
434,1,0.2,0.125,35.0,1,1.0,0.4396999999999025
435,1,0.2,0.0,35.0,1,1.0,0.5733999999999924
436,1,0.2,1.0,35.0,1,1.0,0.3768000000000029
437,1,0.2,0.0625,35.0,1,1.0,0.377100000000155
438,1,0.2,0.25,35.0,1,1.0,0.41390000000001237
439,1,0.2,0.125,-35.0,-1,1.0,0.39069999999992433
440,1,0.2,0.125,35.0,1,1.0,0.29389999999989413
441,1,0.2,0.0625,-35.0,-1,1.0,0.4107000000001335
442,1,0.2,0.0625,35.0,1,1.0,0.32759999999984757
443,1,0.2,0.25,35.0,1,1.0,0.22109999999975116
444,1,0.2,1.0,-35.0,-1,1.0,0.6246000000001004
445,1,0.2,0.0625,35.0,1,1.0,2.054499999999962
446,1,0.8,0.125,-35.0,-1,1.0,0.5583000000001448
447,1,0.8,0.25,-35.0,-1,1.0,0.3949000000000069
448,1,0.8,0.0625,-35.0,1,0.0,0.5085999999998876
449,1,0.8,0.25,-35.0,1,0.0,0.15219999999999345
450,1,0.8,0.0625,-35.0,-1,1.0,0.49870000000009895
451,1,0.8,0.125,-35.0,-1,1.0,0.4420999999999822
452,1,0.8,0.0625,-35.0,1,0.0,0.4256000000000313
453,1,0.8,1.0,-35.0,-1,1.0,0.29549999999994725
454,1,0.8,1.0,-35.0,-1,1.0,0.23899999999980537
455,1,0.8,0.25,35.0,1,1.0,0.29579999999987194
456,1,0.8,0.25,35.0,1,1.0,0.3328000000001339
457,1,0.8,0.125,-35.0,-1,1.0,0.2796000000000731
458,1,0.8,1.0,-35.0,1,0.0,0.12970099999984086
459,1,0.8,0.125,-35.0,-1,1.0,0.396300999999994
460,1,0.8,0.0625,35.0,1,1.0,0.5136009999998805
461,1,0.8,0.0625,-35.0,1,0.0,0.2666010000002643
462,1,0.8,0.125,-35.0,-1,1.0,0.4732010000000173
463,1,0.8,0.0,-35.0,-1,1.0,2.0567009999999755
464,1,0.8,1.0,35.0,1,1.0,0.4105010000000675
465,1,0.8,0.125,35.0,1,1.0,0.3004009999999653
466,1,0.8,0.0625,-35.0,-1,1.0,0.5107010000001537
467,1,0.8,0.125,35.0,1,1.0,0.13710100000002967
468,1,0.8,0.0,-35.0,1,0.0,0.28090099999985796
469,1,0.8,0.0625,-35.0,-1,1.0,0.6208010000000286
470,1,0.8,1.0,35.0,1,1.0,0.4043010000000322
471,1,0.8,0.125,35.0,1,1.0,3.1812009999998736
472,1,0.8,0.25,-35.0,-1,1.0,0.23480099999983395
473,1,0.8,0.125,-35.0,-1,1.0,0.09190100000000712
474,1,0.8,1.0,-35.0,-1,1.0,0.23490100000003622
475,1,0.8,0.0,35.0,-1,0.0,0.2583009999998467
476,1,0.8,1.0,-35.0,-1,1.0,0.3019010000000435
477,1,0.8,0.0,-35.0,1,0.0,1.2721010000000206
478,1,0.8,0.0,-35.0,1,0.0,3.095600999999988
479,1,0.8,1.0,-35.0,-1,1.0,0.23240099999998165
480,1,0.8,0.0625,-35.0,-1,1.0,0.5992009999997663
481,1,0.8,1.0,-35.0,-1,1.0,0.2294010000000526
482,1,0.8,0.125,35.0,1,1.0,0.37610099999983504
483,1,0.8,0.0625,-35.0,1,0.0,0.16630099999997583
484,1,0.8,1.0,-35.0,-1,1.0,0.3464010000000144
485,1,0.8,0.125,-35.0,-1,1.0,0.3733009999998558
486,1,0.8,0.0,35.0,-1,0.0,2.5599009999998543
487,1,0.8,0.0,-35.0,-1,1.0,0.336900999999898
488,1,0.8,0.0625,-35.0,-1,1.0,0.25710099999992053
489,1,0.8,0.25,-35.0,-1,1.0,0.20390100000008715
490,1,0.8,0.0625,-35.0,1,0.0,1.3841009999998732
491,1,0.8,1.0,35.0,1,1.0,0.5144010000001344
492,1,0.8,0.125,-35.0,-1,1.0,0.34100100000000566
493,1,0.8,0.25,35.0,1,1.0,0.41780099999982667
494,1,0.8,0.125,-35.0,-1,1.0,0.4150010000000748
495,1,0.8,0.25,-35.0,-1,1.0,0.3281010000000606
496,1,0.8,0.0,35.0,-1,0.0,1.245001000000002
497,1,0.8,0.25,-35.0,1,0.0,0.08200100000021848
498,1,0.8,0.25,-35.0,1,0.0,0.06840100000022176
499,1,0.8,1.0,-35.0,-1,1.0,0.29200100000025486
500,1,0.8,1.0,-35.0,-1,1.0,0.23200100000008206
501,1,0.8,0.25,-35.0,-1,1.0,0.5986009999999169
502,1,0.8,1.0,-35.0,-1,1.0,0.4090009999999893
503,1,0.8,0.0,-35.0,1,0.0,1.7626010000001315
504,1,0.8,0.125,-35.0,-1,1.0,0.30240100000014536
505,1,0.8,0.125,35.0,1,1.0,0.40260099999977683
506,1,0.8,0.125,-35.0,-1,1.0,0.14610099999981685
507,1,0.8,0.125,-35.0,-1,1.0,0.33950099999992744
508,1,0.8,0.25,-35.0,-1,1.0,0.2331010000000333
509,1,0.8,1.0,-35.0,-1,1.0,0.21310099999982413
510,1,0.8,1.0,-35.0,-1,1.0,0.207100999999966
511,1,0.8,1.0,35.0,1,1.0,0.46010099999989507
512,1,0.8,0.0625,-35.0,-1,1.0,0.3371009999998478
513,1,0.8,0.125,35.0,1,1.0,0.3971010000000206
514,1,0.2,0.25,35.0,1,1.0,0.41420099999982085
515,1,0.2,0.25,35.0,1,1.0,0.3704009999999016
516,1,0.2,0.125,35.0,1,1.0,0.3842010000000755
517,1,0.2,0.125,-35.0,-1,1.0,0.4075009999999111
518,1,0.2,0.125,-35.0,-1,1.0,0.4309009999999489
519,1,0.2,0.0625,35.0,1,1.0,0.5878009999998994
520,1,0.2,1.0,-35.0,-1,1.0,0.24120099999981903
521,1,0.2,1.0,35.0,1,1.0,2.5913009999999304
522,1,0.2,0.0625,35.0,-1,0.0,1.5052009999999427
523,1,0.2,0.0,35.0,-1,0.0,0.11530100000004495
524,1,0.2,1.0,35.0,1,1.0,0.27850100000000566
525,1,0.2,1.0,35.0,1,1.0,0.25850100000002385
526,1,0.2,0.125,-35.0,-1,1.0,0.558900999999878
527,1,0.2,0.25,-35.0,-1,1.0,0.31220100000018647
528,1,0.2,1.0,35.0,1,1.0,0.30930100000000493
529,1,0.2,0.0,35.0,1,1.0,2.6590010000002167
530,1,0.2,0.125,35.0,1,1.0,0.1629009999999198
531,1,0.2,0.125,35.0,1,1.0,0.3825010000000475
532,1,0.2,0.25,35.0,1,1.0,1.0000010000001112
533,1,0.2,0.125,35.0,1,1.0,3.6097010000000864
534,1,0.2,0.0625,35.0,1,1.0,1.6732010000000628
535,1,0.2,0.25,35.0,1,1.0,0.3271010000003116
536,1,0.2,0.0625,-35.0,-1,1.0,0.5967009999999391
537,1,0.2,0.0625,-35.0,-1,1.0,2.6503009999998994
538,1,0.2,0.25,35.0,1,1.0,0.0075010000000474975
539,1,0.2,0.125,35.0,1,1.0,0.3143009999998867
540,1,0.2,0.125,35.0,1,1.0,1.524000999999771
541,1,0.2,0.125,-35.0,-1,1.0,0.3744010000000344
542,1,0.2,0.25,35.0,1,1.0,0.33750099999997474
543,1,0.2,0.125,35.0,1,1.0,1.4244009999997616
544,1,0.2,0.125,35.0,1,1.0,0.36790099999984704
545,1,0.2,0.0,35.0,1,1.0,0.2514009999999871
546,1,0.2,0.0,35.0,1,1.0,0.31480099999998856
547,1,0.2,0.0625,35.0,1,1.0,0.43830099999991035
548,1,0.2,0.0625,35.0,1,1.0,0.35890100000005987
549,1,0.2,1.0,35.0,1,1.0,0.2554009999998925
550,1,0.2,0.125,35.0,1,1.0,1.605401000000029
551,1,0.2,1.0,35.0,1,1.0,0.35530099999982667
552,1,0.2,0.25,35.0,1,1.0,0.3221009999999751
553,1,0.2,1.0,35.0,1,1.0,0.3425009999998565
554,1,0.2,0.0625,35.0,1,1.0,2.0092010000000755
555,1,0.2,0.25,35.0,1,1.0,0.4064009999999598
556,1,0.2,0.25,35.0,1,1.0,0.4427010000001701
557,1,0.2,0.0,35.0,1,1.0,0.10279999999988831
558,1,0.2,0.0625,35.0,1,1.0,0.3525010000000748
559,1,0.2,0.125,35.0,1,1.0,1.572601000000077
560,1,0.2,0.125,35.0,1,1.0,0.3395010000001548
561,1,0.2,0.25,35.0,1,1.0,0.3262010000000828
562,1,0.2,0.125,35.0,1,1.0,0.4997009999999591
563,1,0.2,0.0625,-35.0,-1,1.0,0.3599010000000362
564,1,0.2,0.125,35.0,1,1.0,0.529901000000109
565,1,0.2,0.0625,35.0,1,1.0,0.35340100000007624
566,1,0.2,1.0,-35.0,-1,1.0,0.3036010000000715
567,1,0.2,0.0625,35.0,1,1.0,0.4403010000000904
568,1,0.2,0.25,35.0,1,1.0,0.4737009999998918
569,1,0.2,0.125,35.0,1,1.0,0.32720100000005914
570,1,0.2,0.0625,35.0,1,1.0,1.4941010000000006
571,1,0.2,0.125,35.0,1,1.0,0.7742009999999482
572,1,0.2,0.125,35.0,1,1.0,0.33090100000003986
573,1,0.2,0.25,35.0,1,1.0,0.21770100000003367
574,1,0.2,0.0625,35.0,1,1.0,0.31130099999995764
575,1,0.2,0.25,35.0,1,1.0,0.24470099999984996
576,1,0.2,0.125,35.0,1,1.0,0.2981009999998605
577,1,0.2,0.0625,35.0,1,1.0,0.3482010000000173
578,1,0.2,0.125,-35.0,-1,1.0,0.5749009999999544
579,1,0.2,0.125,-35.0,-1,1.0,0.4618010000003778
580,1,0.2,0.0625,35.0,1,1.0,0.3319010000000162
581,1,0.2,0.0,35.0,1,1.0,0.3787010000000919
582,1,0.2,0.0625,35.0,1,1.0,0.6188010000000759
583,1,0.2,1.0,35.0,1,1.0,0.3690010000004804
584,1,0.2,0.25,-35.0,-1,1.0,0.29580099999975573
585,1,0.2,1.0,35.0,1,1.0,0.3259010000001581
586,1,0.2,1.0,35.0,1,1.0,1.686001000000033
587,1,0.2,0.125,35.0,1,1.0,0.17950100000007296
588,1,0.2,0.125,35.0,1,1.0,0.2929010000002563
589,1,0.2,0.125,-35.0,1,0.0,0.3864010000002054
590,1,0.2,0.125,35.0,-1,0.0,1.7299009999996997
591,1,0.2,1.0,35.0,1,1.0,0.43680099999983213
592,1,0.2,0.125,35.0,1,1.0,0.4336009999997259
593,1,0.2,0.0625,-35.0,-1,1.0,0.49040100000001985
594,1,0.2,0.0,35.0,1,1.0,1.9471009999997477
595,1,0.2,0.125,35.0,1,1.0,0.43070099999977174
596,1,0.2,1.0,-35.0,-1,1.0,0.347400999999536
597,1,0.2,0.25,35.0,1,1.0,0.347400999999536
598,1,0.2,0.25,35.0,1,1.0,2.0275010000000293
599,1,0.2,0.0,35.0,1,1.0,0.8278010000003633
600,1,0.2,1.0,35.0,1,1.0,0.36790099999961967
601,1,0.2,0.125,35.0,1,1.0,0.49140099999976883
602,1,0.2,0.0,35.0,1,1.0,3.5949009999994814
603,1,0.2,0.0625,35.0,1,1.0,2.521901000000071
604,1,0.2,0.25,35.0,1,1.0,0.3653010000002723
605,1,0.2,0.0625,35.0,1,1.0,0.5153009999999085
606,1,0.2,0.25,-35.0,-1,1.0,0.5390009999996437
607,1,0.2,0.125,35.0,1,1.0,0.46570100000008097
608,1,0.2,0.0,35.0,1,1.0,1.5990010000000439
609,1,0.2,1.0,35.0,1,1.0,0.4960010000004331
610,1,0.2,1.0,35.0,1,1.0,0.3194010000001981
611,1,0.8,0.25,-35.0,-1,1.0,0.3730009999999311
612,1,0.8,0.25,-35.0,-1,1.0,0.6163010000000213
613,1,0.8,0.0625,-35.0,1,0.0,0.27310099999976956
614,1,0.8,1.0,-35.0,-1,1.0,0.31650100000024395
615,1,0.8,0.125,-35.0,1,0.0,2.9966010000002825
616,1,0.8,1.0,-35.0,-1,1.0,0.2468010000002323
617,1,0.8,0.25,35.0,1,1.0,0.5870010000003276
618,1,0.8,0.25,35.0,1,1.0,0.3904010000001108
619,1,0.8,1.0,35.0,1,1.0,0.4538009999996575
620,1,0.8,0.0625,-35.0,-1,1.0,1.4205010000000584
621,1,0.8,1.0,-35.0,-1,1.0,0.43410099999982776
622,1,0.8,0.125,-35.0,-1,1.0,0.5508009999998649
623,1,0.8,0.125,-35.0,-1,1.0,0.3811009999999442
624,1,0.8,1.0,-35.0,-1,1.0,0.2643009999997048
625,1,0.8,1.0,-35.0,-1,1.0,0.2511010000002898
626,1,0.8,0.0625,-35.0,-1,1.0,0.314600999999584
627,1,0.8,1.0,-35.0,-1,1.0,0.3680009999993672
628,1,0.8,1.0,-35.0,-1,1.0,0.30150099999991653
629,1,0.8,0.0625,-35.0,-1,1.0,0.3883009999999558
630,1,0.8,0.125,-35.0,-1,1.0,0.37170100000003004
631,1,0.8,0.0625,-35.0,-1,1.0,0.5052009999999427
632,1,0.8,0.0625,35.0,1,1.0,0.7719010000000708
633,1,0.8,0.25,-35.0,-1,1.0,0.3622009999999136
634,1,0.8,0.0625,-35.0,1,0.0,0.4955009999998765
635,1,0.8,1.0,35.0,1,1.0,0.40560099999993326
636,1,0.8,0.125,-35.0,-1,1.0,0.4458009999998467
637,1,0.8,1.0,-35.0,-1,1.0,0.302400999999918
638,1,0.8,1.0,-35.0,-1,1.0,0.3060009999999238
639,1,0.8,0.0625,-35.0,1,0.0,4.152900999999929
640,1,0.8,0.0,-35.0,1,0.0,3.263101000000006
641,1,0.8,0.0625,-35.0,1,0.0,0.3866010000001552
642,1,0.8,0.0625,-35.0,-1,1.0,0.5034009999999398
643,1,0.8,0.0625,-35.0,-1,1.0,0.29690100000016173
644,1,0.8,0.125,-35.0,-1,1.0,8.633600999999999
645,1,0.8,0.0625,-35.0,1,0.0,7.944300999999996
646,1,0.8,0.125,35.0,1,1.0,0.6079009999998561
647,1,0.8,1.0,-35.0,-1,1.0,0.2747010000002774
648,1,0.8,1.0,-35.0,-1,1.0,0.38150099999984377
649,1,0.8,1.0,-35.0,-1,1.0,0.2916009999999005
650,1,0.8,0.25,-35.0,-1,1.0,0.7151010000002316
651,1,0.8,0.0625,35.0,1,1.0,2.338400999999976
652,1,0.8,0.0,-35.0,1,0.0,6.125401000000238
653,1,0.8,0.25,-35.0,-1,1.0,0.3624009999998634
654,1,0.8,0.0,-35.0,1,0.0,4.322400999999445
655,1,0.8,0.0,-35.0,1,0.0,11.886101000000053
656,1,0.8,0.25,35.0,1,1.0,0.326600999999755
657,1,0.8,0.0625,35.0,1,1.0,0.47340100000019447
658,1,0.8,0.0625,-35.0,1,0.0,6.370100999999977
659,1,0.8,0.125,-35.0,-1,1.0,0.43390099999987797
660,1,0.8,0.125,-35.0,-1,1.0,0.3973010000004251
661,1,0.8,0.25,-35.0,-1,1.0,0.3608009999998103
662,1,0.8,1.0,-35.0,-1,1.0,0.13080100000024686
663,1,0.8,0.25,-35.0,-1,1.0,0.2942009999997026
664,1,0.8,0.25,-35.0,-1,1.0,10.717700999999579
665,1,0.8,0.25,35.0,1,1.0,3.8716009999998278
666,1,0.8,0.125,35.0,1,1.0,0.8684009999997215
667,1,0.8,0.25,-35.0,-1,1.0,0.31190099999957965
668,1,0.8,0.25,-35.0,-1,1.0,2.2587009999997463
669,1,0.8,0.25,-35.0,-1,1.0,0.4422010000002956
670,1,0.8,0.0625,-35.0,1,0.0,0.6625010000002476
671,1,0.8,0.25,-35.0,-1,1.0,0.44250099999999293
672,1,0.8,0.25,-35.0,-1,1.0,0.4326009999999769
673,1,0.8,0.0,-35.0,1,0.0,2.55940099999998
674,1,0.8,0.125,35.0,1,1.0,0.2829009999995833
675,1,0.8,0.0625,-35.0,1,0.0,0.27650100000028033
676,1,0.8,0.25,-35.0,-1,1.0,0.36660100000017337
677,1,0.8,0.25,-35.0,-1,1.0,0.23660099999960948
678,1,0.8,0.0625,-35.0,1,0.0,0.7601009999998496
679,1,0.8,1.0,-35.0,-1,1.0,0.2937010000000555
680,1,0.8,0.25,-35.0,-1,1.0,0.41710099999954764
681,1,0.8,0.125,-35.0,-1,1.0,0.4638009999998758
682,1,0.8,0.125,-35.0,-1,1.0,1.424000999999862
683,1,0.2,0.25,35.0,1,1.0,1.4541010000002643
684,1,0.2,0.0,35.0,-1,0.0,1.8009009999996124
685,1,0.2,0.25,35.0,-1,0.0,2.257800999999745
686,1,0.2,0.0625,35.0,-1,0.0,12.394800999999916
687,1,0.2,0.25,35.0,1,1.0,0.32860100000016246
688,1,0.2,1.0,35.0,-1,0.0,0.12190100000043458
689,1,0.2,1.0,35.0,1,1.0,0.5221010000004753
690,1,0.2,0.0625,35.0,1,1.0,0.4756009999996422
691,1,0.2,1.0,35.0,1,1.0,0.40570100000013554
692,1,0.2,0.125,35.0,1,1.0,0.3459010000001399
693,1,0.2,0.0625,-35.0,1,0.0,0.36590099999966696
694,1,0.2,0.0625,35.0,1,1.0,9.819401000000198
695,1,0.2,0.25,35.0,-1,0.0,4.453201000000263
696,1,0.2,0.25,35.0,1,1.0,0.4201010000001588
697,1,0.2,1.0,-35.0,-1,1.0,0.2769010000001799
698,1,0.2,0.125,35.0,-1,0.0,3.8804010000003473
699,1,0.2,0.0625,35.0,1,1.0,0.5439009999995505
700,1,0.2,0.0,-35.0,1,0.0,3.4309010000001763
701,1,0.2,1.0,35.0,1,1.0,0.49100099999986924
702,1,0.2,0.125,35.0,1,1.0,5.184501000000182
703,1,0.2,0.25,35.0,1,1.0,3.838201000000481
704,1,0.2,0.0,-35.0,1,0.0,0.3184009999999944
705,1,0.2,0.0,-35.0,-1,1.0,0.38200099999994563
706,1,0.2,1.0,35.0,1,1.0,0.4021010000001297
707,1,0.2,1.0,35.0,1,1.0,0.9356010000001334
708,1,0.2,0.25,35.0,1,1.0,3.7325009999999565
709,1,0.8,0.0625,-35.0,-1,1.0,0.43600100000003295
710,1,0.8,1.0,-35.0,-1,1.0,0.6061009999998532
711,1,0.8,0.0625,35.0,1,1.0,0.4928010000003269
712,1,0.8,1.0,-35.0,1,0.0,0.13300100000014936
713,1,0.8,1.0,-35.0,-1,1.0,0.2664009999998598
714,1,0.8,0.0625,-35.0,1,0.0,0.6032009999998991
715,1,0.8,0.0,-35.0,-1,1.0,0.43340100000023085
716,1,0.8,0.125,-35.0,-1,1.0,0.3734009999998307
717,1,0.8,1.0,-35.0,-1,1.0,0.19360099999994418
718,1,0.8,1.0,35.0,1,1.0,0.22360100000014427
719,1,0.8,0.0625,-35.0,-1,1.0,0.4006010000002789
720,1,0.8,0.0,35.0,-1,0.0,0.8039009999997688
721,1,0.8,0.0625,-35.0,-1,1.0,0.3308010000005197
722,1,0.8,0.25,35.0,1,1.0,0.36080100000026505
723,1,0.8,0.25,-35.0,-1,1.0,0.37090099999932136
724,1,0.8,0.25,35.0,1,1.0,0.3578010000001086
725,1,0.8,1.0,-35.0,-1,1.0,0.4812010000000555
726,1,0.8,1.0,35.0,1,1.0,0.3548009999999522
727,1,0.8,0.0,-35.0,1,0.0,0.4115010000004986
728,1,0.8,0.25,-35.0,-1,1.0,0.41500100000030216
729,1,0.8,0.25,-35.0,-1,1.0,0.41840099999990343
730,1,0.8,0.0625,-35.0,-1,1.0,0.9719009999998889
731,1,0.8,0.0,35.0,1,1.0,0.5654010000002927
732,1,0.8,0.125,-35.0,-1,1.0,0.8789010000000417
733,1,0.8,1.0,35.0,1,1.0,0.2793010000000322
734,1,0.8,0.0,-35.0,1,0.0,0.4193009999999049
735,1,0.8,0.25,-35.0,-1,1.0,0.35580099999970116
736,1,0.8,1.0,-35.0,-1,1.0,0.40590100000008533
737,1,0.8,0.0625,-35.0,-1,1.0,0.44940100000030725
738,1,0.8,0.25,-35.0,-1,1.0,0.31280100000003586
739,1,0.8,1.0,-35.0,-1,1.0,0.26290100000005623
740,1,0.8,0.0,-35.0,1,0.0,0.22650100000009843
741,1,0.8,0.25,-35.0,-1,1.0,0.4433009999997921
742,1,0.8,0.0625,-35.0,-1,1.0,0.2734009999999216
743,1,0.8,0.25,-35.0,-1,1.0,0.3135010000000875
744,1,0.8,1.0,-35.0,-1,1.0,0.29040100000020175
745,1,0.8,0.0,35.0,1,1.0,2.687000999999782
746,1,0.8,0.25,-35.0,-1,1.0,0.3105009999999311
747,1,0.8,0.0,-35.0,1,0.0,1.0106009999999515
748,1,0.8,0.0,-35.0,-1,1.0,8.980700999999954
749,1,0.8,0.0,-35.0,-1,1.0,2.1314010000000962
750,1,0.8,1.0,35.0,1,1.0,0.5147009999996044
751,1,0.8,0.0625,-35.0,-1,1.0,0.35160099999984595
752,1,0.8,0.125,-35.0,-1,1.0,0.368300999999974
753,1,0.8,0.125,-35.0,-1,1.0,0.47850100000005114
754,1,0.8,0.0,-35.0,1,0.0,0.1619010000003982
755,1,0.8,1.0,35.0,1,1.0,0.4187010000000555
756,1,0.8,0.25,35.0,1,1.0,0.5122010000000046
757,1,0.8,0.0,-35.0,-1,1.0,1.9156010000001515
758,1,0.8,0.0,-35.0,-1,1.0,6.349100999999791
759,1,0.8,0.25,-35.0,-1,1.0,0.37270100000023376
760,1,0.8,1.0,-35.0,-1,1.0,0.27280100000007224
761,1,0.8,1.0,-35.0,-1,1.0,0.29290099999980157
762,1,0.8,0.25,-35.0,-1,1.0,0.2564009999996415
763,1,0.8,0.125,-35.0,-1,1.0,0.33650100000022576
764,1,0.8,0.0,-35.0,-1,1.0,8.393200999999863
765,1,0.8,0.25,-35.0,-1,1.0,0.3204009999999471
766,1,0.8,0.25,-35.0,-1,1.0,0.37700100000029124
767,1,0.2,1.0,-35.0,-1,1.0,0.32390099999975064
768,1,0.2,1.0,35.0,1,1.0,6.890700999999808
769,1,0.2,1.0,-35.0,-1,1.0,59.38770099999965
770,1,0.2,0.0625,35.0,1,1.0,0.28990099999964514
771,1,0.2,0.25,35.0,1,1.0,4.406801000000087
772,1,0.2,0.0625,35.0,1,1.0,0.5937010000002374
773,1,0.2,1.0,-35.0,-1,1.0,0.2704009999997652
774,1,0.2,0.0625,35.0,1,1.0,0.6072009999998045
775,1,0.2,1.0,35.0,1,1.0,2.3642009999998663
776,1,0.2,0.0,35.0,1,1.0,0.5279010000003836
777,1,0.2,1.0,35.0,1,1.0,0.4012009999996735
778,1,0.2,0.0625,-35.0,-1,1.0,0.4379010000002381
779,1,0.2,0.0625,35.0,1,1.0,0.24490100000002712
780,1,0.2,0.0625,35.0,1,1.0,0.41150100000004386
781,1,0.2,1.0,-35.0,-1,1.0,0.33160099999986414
782,1,0.2,0.0625,35.0,-1,0.0,4.89520100000027
783,1,0.2,0.25,35.0,1,1.0,1.4754010000001472
784,1,0.2,0.125,35.0,1,1.0,2.7989010000001144
785,1,0.2,1.0,35.0,1,1.0,0.4925010000001748
786,1,0.2,0.0625,35.0,1,1.0,0.5660010000001421
787,1,0.2,0.125,35.0,1,1.0,2.4627010000003793
788,1,0.2,0.125,35.0,1,1.0,0.5762009999998554
789,1,0.2,0.125,-35.0,-1,1.0,1.0197009999997135
790,1,0.2,0.0625,35.0,-1,0.0,1.6898009999999886
791,1,0.2,1.0,35.0,1,1.0,0.5467010000002119
792,1,0.2,0.0,-35.0,1,0.0,12.0737009999998
793,1,0.2,0.25,-35.0,-1,1.0,0.3474010000004455
794,1,0.2,0.125,-35.0,-1,1.0,0.2510010000000875
795,1,0.2,0.25,-35.0,-1,1.0,0.4044010000002345
796,1,0.2,1.0,35.0,1,1.0,0.3378010000001268
797,1,0.2,0.125,35.0,1,1.0,1.1812010000003283
798,1,0.2,0.125,35.0,1,1.0,0.49810100000013335
799,1,0.2,0.125,35.0,1,1.0,4.18150100000048
800,1,0.2,0.25,-35.0,-1,1.0,0.31510100000014063
801,1,0.2,0.0,35.0,-1,0.0,0.9752009999997426
802,1,0.2,0.125,35.0,1,1.0,0.3754009999997834
803,1,0.2,0.0,35.0,1,1.0,0.41890099999955055
804,1,0.2,0.0625,35.0,1,1.0,0.6557009999996808
805,1,0.2,0.0,35.0,1,1.0,6.942401000000245
806,1,0.2,0.0,35.0,1,1.0,3.469500999999582
807,1,0.2,0.0625,35.0,1,1.0,0.45640099999991435
808,1,0.2,1.0,35.0,1,1.0,0.3732009999998809
809,1,0.2,1.0,35.0,1,1.0,0.5833010000001195
810,1,0.2,1.0,35.0,1,1.0,0.5933009999998831
811,1,0.2,0.0,-35.0,1,0.0,3.753501000000142
812,1,0.2,0.0625,-35.0,-1,1.0,0.6338009999999485
813,1,0.2,0.125,35.0,1,1.0,0.40400099999988015
814,1,0.2,1.0,35.0,1,1.0,0.33730100000002494
815,1,0.2,0.0625,35.0,1,1.0,6.147401000000173
816,1,0.2,0.125,35.0,1,1.0,0.3845010000000002
817,1,0.2,1.0,35.0,1,1.0,3.8979010000002745
818,1,0.2,0.0625,35.0,1,1.0,4.618200999999772
819,1,0.2,1.0,35.0,1,1.0,0.2818010000000868
820,1,0.2,1.0,35.0,1,1.0,3.492001000000073
821,1,0.2,0.125,35.0,1,1.0,0.46550100000013117
822,1,0.2,0.0625,35.0,1,1.0,3.1489010000000235
823,1,0.2,1.0,35.0,1,1.0,0.44250099999999293
824,1,0.2,0.25,-35.0,-1,1.0,0.29930100000001403
825,1,0.2,1.0,35.0,1,1.0,0.4694009999998343
826,1,0.2,0.0625,35.0,-1,0.0,5.229601000000002
827,1,0.2,1.0,35.0,1,1.0,0.3931000000002314
828,1,0.2,0.25,35.0,1,1.0,3.573301000000356
829,1,0.2,0.125,35.0,-1,0.0,4.2369009999997616
830,1,0.2,0.125,-35.0,-1,1.0,0.2971010000001115
831,1,0.2,1.0,35.0,1,1.0,0.5406009999996968
832,1,0.2,1.0,-35.0,-1,1.0,0.2574009999998452
833,1,0.2,0.0625,35.0,1,1.0,0.4441010000005008
834,1,0.2,0.25,35.0,1,1.0,0.6142009999998663
835,1,0.2,0.25,35.0,-1,0.0,2.431000999999924
836,1,0.2,0.125,35.0,1,1.0,2.604501000000255
837,1,0.2,1.0,35.0,-1,0.0,5.4747010000000955
838,1,0.2,0.125,35.0,1,1.0,6.418400999999903
839,1,0.2,0.25,35.0,1,1.0,0.3621010000001661
840,1,0.2,0.25,-35.0,-1,1.0,0.3688010000000759
841,1,0.2,1.0,35.0,1,1.0,0.4290009999999711
842,1,0.2,0.0,35.0,1,1.0,9.045800999999756
843,1,0.2,0.125,35.0,1,1.0,0.3428009999997812
844,1,0.2,1.0,35.0,1,1.0,0.49300099999982194
845,1,0.2,0.25,35.0,1,1.0,0.6698010000000068
846,1,0.2,1.0,-35.0,-1,1.0,0.21990100000039092
847,1,0.2,0.25,35.0,1,1.0,6.70330100000001
848,1,0.2,0.125,35.0,1,1.0,11.556900999999925
849,1,0.2,0.0,35.0,1,1.0,2.1242010000000846
850,1,0.2,0.0,35.0,1,1.0,5.591000999999778
851,1,0.2,0.0625,35.0,-1,0.0,1.4713010000000395
852,1,0.2,0.125,-35.0,-1,1.0,1.1281010000002425
853,1,0.2,0.25,-35.0,-1,1.0,0.6318010000004506
854,1,0.2,0.125,35.0,1,1.0,2.2684009999998125
855,1,0.2,1.0,35.0,1,1.0,7.918700999999601
856,1,0.2,0.125,35.0,1,1.0,0.5525009999996655
857,1,0.2,1.0,35.0,1,1.0,0.4359009999998307
858,1,0.2,1.0,35.0,-1,0.0,1.982600999999704
859,1,0.2,0.25,35.0,1,1.0,8.116200999999819
860,1,0.2,0.25,35.0,1,1.0,0.493300999999974
861,1,0.2,0.0625,35.0,1,1.0,10.823400999999649
862,1,0.2,0.25,35.0,1,1.0,0.600601000000097
863,1,0.2,0.0625,-35.0,1,0.0,0.3940010000001166
864,1,0.2,0.25,35.0,1,1.0,8.937601000000086
865,1,0.2,0.25,35.0,1,1.0,0.4879009999999653
866,1,0.8,0.0,-35.0,1,0.0,12.581400999999914
867,1,0.8,1.0,-35.0,-1,1.0,0.2753010000001268
868,1,0.8,0.0625,-35.0,-1,1.0,0.5622009999997317
869,1,0.8,1.0,-35.0,-1,1.0,0.39550099999996746
870,1,0.8,0.0625,-35.0,-1,1.0,0.6724009999998088
871,1,0.8,0.125,-35.0,-1,1.0,0.4692009999998845
872,1,0.8,1.0,-35.0,-1,1.0,0.2660009999999602
873,1,0.8,0.0625,-35.0,1,0.0,1.922700999999961
874,1,0.8,0.25,-35.0,-1,1.0,0.3562010000000555
875,1,0.8,1.0,-35.0,-1,1.0,0.19630099999994854
876,1,0.8,0.0625,-35.0,-1,1.0,0.8164009999995869
877,1,0.8,1.0,-35.0,-1,1.0,0.43660099999988233
878,1,0.8,1.0,-35.0,-1,1.0,0.17340099999955783
879,1,0.8,0.25,-35.0,-1,1.0,0.3567009999997026
880,1,0.8,0.25,-35.0,-1,1.0,1.2969010000001617
881,1,0.8,1.0,-35.0,-1,1.0,0.3038010000000213
882,1,0.8,0.25,-35.0,-1,1.0,0.27720099999987724
883,1,0.8,1.0,-35.0,-1,1.0,0.25060000000030414
884,1,0.8,0.125,-35.0,-1,1.0,0.42410100000006423
885,1,0.8,1.0,-35.0,-1,1.0,0.3842010000003029
886,1,0.8,1.0,-35.0,-1,1.0,0.2910009999995964
887,1,0.8,0.25,-35.0,-1,1.0,7.244400999999925
888,1,0.8,0.25,35.0,1,1.0,4.3114009999999325
889,1,0.8,0.25,-35.0,-1,1.0,0.46160100000042803
890,1,0.8,1.0,-35.0,-1,1.0,0.3185009999997419
891,1,0.8,0.125,-35.0,-1,1.0,0.29860099999996237
892,1,0.8,0.25,-35.0,-1,1.0,0.415400999999747
893,1,0.8,0.0625,-35.0,-1,1.0,0.4821999999999207
894,1,0.8,0.0625,-35.0,-1,1.0,0.4556009999996604
895,1,0.8,0.0625,-35.0,-1,1.0,1.3891010000002098
896,1,0.8,1.0,-35.0,-1,1.0,0.24250100000017483
897,1,0.8,0.0625,-35.0,-1,1.0,0.5359009999997397
898,1,0.8,0.0625,-35.0,-1,1.0,0.5328009999998358
899,1,0.8,1.0,-35.0,-1,1.0,0.2528009999996357
900,1,0.8,1.0,-35.0,-1,1.0,0.29300100000000384
901,1,0.8,0.0,-35.0,1,0.0,6.803300999999465
902,1,0.8,0.0,-35.0,-1,1.0,8.490300999999818
903,1,0.8,0.0625,-35.0,1,0.0,1.9639009999996233
904,1,0.8,0.25,35.0,-1,0.0,2.5575010000002294
905,1,0.8,0.125,-35.0,-1,1.0,0.32440100000030725
906,1,0.8,0.125,-35.0,-1,1.0,0.3679010000000744
907,1,0.8,0.125,-35.0,-1,1.0,0.3279010000001108
908,1,0.8,0.25,-35.0,-1,1.0,0.3414009999996779
909,1,0.8,0.0,35.0,1,1.0,6.168100999999751
910,1,0.8,0.0625,35.0,1,1.0,0.5585009999999784
911,1,0.8,0.125,-35.0,-1,1.0,0.2586010000004535
912,1,0.8,0.125,-35.0,-1,1.0,0.33870100000012826
913,1,0.8,0.0625,-35.0,-1,1.0,0.485501000000113
914,1,0.8,0.0625,-35.0,-1,1.0,3.6957009999996444
915,1,0.8,1.0,35.0,-1,0.0,0.1992009999999027
916,1,0.8,0.0625,-35.0,-1,1.0,0.42600099999981467
917,1,0.8,1.0,-35.0,-1,1.0,0.679501000000073
918,1,0.8,0.125,-35.0,-1,1.0,0.3896010000003116
919,1,0.8,0.25,-35.0,-1,1.0,0.3064009999998234
920,1,0.8,0.125,-35.0,-1,1.0,0.3265010000004622
921,1,0.8,0.0625,35.0,-1,0.0,0.28340099999968515
922,1,0.8,1.0,35.0,1,1.0,0.37350100000003295
923,1,0.8,0.25,-35.0,-1,1.0,0.2703010000004724
924,1,0.8,1.0,35.0,1,1.0,0.40050099999962185
925,1,0.8,0.25,-35.0,-1,1.0,0.26710099999991144
926,1,0.8,0.25,-35.0,-1,1.0,0.3406009999998787
927,1,0.8,1.0,35.0,1,1.0,1.260700999999699
928,1,0.8,0.0625,-35.0,-1,1.0,13.574200999999903
929,1,0.8,0.0,-35.0,1,0.0,3.244800999999825
930,1,0.8,0.25,-35.0,-1,1.0,0.3184009999999944
931,1,0.8,1.0,-35.0,-1,1.0,0.29180099999939557
932,1,0.8,1.0,-35.0,-1,1.0,0.2053009999999631
933,1,0.8,1.0,-35.0,-1,1.0,0.27880099999993035
934,1,0.8,0.0625,35.0,1,1.0,0.38220099999989543
935,1,0.8,1.0,35.0,1,1.0,1.8422009999999318
936,1,0.2,0.25,35.0,1,1.0,0.5924009999998816
937,1,0.2,1.0,-35.0,-1,1.0,0.26930099999981394
938,1,0.2,0.125,35.0,1,1.0,9.686001000000033
939,1,0.2,0.125,35.0,1,1.0,1.2931009999997514
940,1,0.2,1.0,35.0,1,1.0,0.3867009999999027
941,1,0.2,0.25,35.0,-1,0.0,17.490100999999868
942,1,0.2,0.0625,35.0,1,1.0,16.37080100000003
943,1,0.2,0.125,35.0,1,1.0,5.798201000000063
944,1,0.2,1.0,-35.0,-1,1.0,0.338600999999926
945,1,0.2,1.0,35.0,1,1.0,8.192000999999891
946,1,0.2,1.0,-35.0,-1,1.0,0.2391010000001188
947,1,0.2,0.125,35.0,1,1.0,3.645900999999867
948,1,0.2,0.0625,35.0,-1,0.0,18.612900999999965
949,1,0.2,0.125,35.0,1,1.0,11.110401000000365
950,1,0.2,0.125,35.0,-1,0.0,9.914201000000048
951,1,0.2,0.25,35.0,1,1.0,11.201300999999603
952,1,0.2,0.0625,35.0,-1,0.0,2.7651009999999587
953,1,0.2,0.0625,35.0,-1,0.0,47.118801000000076
954,1,0.2,1.0,35.0,1,1.0,6.077300999999807
955,1,0.2,0.25,35.0,1,1.0,0.35430100000030507
956,1,0.2,0.0625,35.0,-1,0.0,4.937900999999783
957,1,0.2,0.0625,-35.0,-1,1.0,1.6883010000001377
958,1,0.2,0.25,35.0,1,1.0,5.7817009999998845
959,1,0.2,1.0,35.0,1,1.0,15.55860100000018
960,1,0.8,0.25,-35.0,-1,1.0,0.31260100000008606
961,1,0.8,0.125,-35.0,1,0.0,0.5060010000001967
962,1,0.8,0.0625,35.0,1,1.0,2.659501000000091
963,1,0.8,0.125,35.0,1,1.0,14.263101000000006
964,1,0.8,0.0625,-35.0,-1,1.0,3.2570009999999456
965,1,0.8,0.0625,-35.0,-1,1.0,0.6340010000003531
966,1,0.8,1.0,-35.0,-1,1.0,0.32740100000000893
967,1,0.8,0.25,35.0,1,1.0,7.384201000000303
968,1,0.8,0.25,-35.0,-1,1.0,0.6445010000002185
969,1,0.8,0.25,-35.0,-1,1.0,0.26790100000016537
970,1,0.8,1.0,35.0,1,1.0,6.664800999999898
971,1,0.8,0.0625,-35.0,-1,1.0,8.495200999999724
972,1,0.8,0.0,35.0,1,1.0,5.288900999999441
973,1,0.8,0.125,-35.0,-1,1.0,0.39590099999986705
974,1,0.8,0.125,-35.0,-1,1.0,0.3360010000001239
975,1,0.8,0.125,-35.0,-1,1.0,0.31280100000003586
976,1,0.8,0.125,-35.0,-1,1.0,0.3462009999998372
977,1,0.8,1.0,-35.0,-1,1.0,0.3263010000000577
978,1,0.8,0.25,-35.0,-1,1.0,0.3831009999998969
979,1,0.8,1.0,-35.0,-1,1.0,0.2066010000003189
980,1,0.8,0.25,-35.0,-1,1.0,0.37330100000008315
981,1,0.8,0.0,-35.0,-1,1.0,0.5768010000001595
982,1,0.8,0.0,-35.0,-1,1.0,13.08690100000058
983,1,0.8,0.125,-35.0,-1,1.0,5.0676009999997405
984,1,0.8,0.0,-35.0,-1,1.0,3.9679009999999835
985,1,0.8,0.125,-35.0,-1,1.0,0.5749009999999544
986,1,0.8,0.125,-35.0,-1,1.0,0.6584009999996852
987,1,0.8,0.125,35.0,-1,0.0,6.595201000000088
988,1,0.8,0.0625,-35.0,-1,1.0,57.18890100000044
989,1,0.8,0.25,-35.0,-1,1.0,0.3979010000002745
990,1,0.8,0.25,35.0,1,1.0,2.4080009999997856
991,1,0.8,0.0,-35.0,-1,1.0,0.20470099999965896
992,1,0.8,0.0625,35.0,-1,0.0,0.3916010000011738
993,1,0.8,0.25,-35.0,-1,1.0,1.1284009999999398
994,1,0.8,0.0625,-35.0,-1,1.0,0.2387010000002192
995,1,0.8,0.25,-35.0,-1,1.0,0.5756009999995513
996,1,0.8,0.125,-35.0,-1,1.0,0.7989010000001144
997,1,0.8,0.25,-35.0,-1,1.0,0.5091010000005554
998,1,0.8,1.0,-35.0,-1,1.0,0.9426009999997405
999,1,0.8,0.0625,-35.0,-1,1.0,0.3894009999994523
1000,1,0.8,0.25,-35.0,-1,1.0,0.27970100000038656
1001,1,0.8,1.0,35.0,1,1.0,0.4498009999997521
1002,1,0.8,0.25,-35.0,-1,1.0,0.36980099999891536
1003,1,0.8,0.25,35.0,1,1.0,1.7167009999993752
1004,1,0.8,1.0,35.0,1,1.0,0.37680100000034145
1005,1,0.8,0.125,35.0,1,1.0,7.336900999999671
1006,1,0.8,0.25,-35.0,-1,1.0,0.2872010000000955
1007,1,0.8,0.0625,-35.0,1,0.0,0.3307009999998627
1008,1,0.8,0.25,-35.0,-1,1.0,0.27420100000017555
1009,1,0.8,1.0,-35.0,-1,1.0,0.3278010000003633
1010,1,0.8,0.125,-35.0,-1,1.0,0.2979009999999107
1011,1,0.8,0.125,-35.0,-1,1.0,0.37790100000074744
1012,1,0.8,0.0,-35.0,1,0.0,5.998101000000133
1013,1,0.8,0.0625,-35.0,-1,1.0,0.5151009999999587
1014,1,0.8,1.0,-35.0,-1,1.0,0.23190100000010716
1015,1,0.8,1.0,-35.0,-1,1.0,0.19860099999914382
1016,1,0.8,0.125,-35.0,-1,1.0,4.908800999999585
1017,1,0.8,1.0,-35.0,-1,1.0,0.9024009999993723
1018,1,0.8,0.125,-35.0,-1,1.0,8.74590100000023
1019,1,0.8,0.0,-35.0,-1,1.0,28.279700999999477
1020,1,0.8,0.0,35.0,-1,0.0,2.234201000000212
1021,1,0.8,0.0,-35.0,1,0.0,1.0877010000003793
1022,1,0.8,0.0,-35.0,1,0.0,0.5480009999992035
1023,1,0.2,0.0,35.0,-1,0.0,4.0614009999999325
1024,1,0.2,0.25,35.0,1,1.0,12.43840100000034
1025,1,0.2,1.0,35.0,1,1.0,2.1624009999995906
1026,1,0.2,1.0,-35.0,-1,1.0,0.29920099999981176
1027,1,0.2,0.25,35.0,1,1.0,0.5160009999999602
1028,1,0.2,0.25,35.0,1,1.0,0.7028010000003633
1029,1,0.2,1.0,35.0,1,1.0,0.3230009999997492
1030,1,0.2,0.0,35.0,1,1.0,6.8497010000000955
1031,1,0.2,0.25,35.0,-1,0.0,22.473500999999487
1032,1,0.2,0.125,35.0,-1,0.0,1.2779009999994742
1033,1,0.2,1.0,35.0,1,1.0,0.37130099999922095
1034,1,0.2,0.0,-35.0,1,0.0,6.2014009999993505
1035,1,0.2,0.125,35.0,1,1.0,1.9452009999995425
1,2,0.5,1.0,35.0,1,1.0,0.28279999999999994
2,2,0.5,0.125,-35.0,-1,1.0,0.30790000000000006
3,2,0.5,0.125,-35.0,-1,1.0,0.27340000000000053
4,2,0.5,0.0625,35.0,1,1.0,0.24280000000000168
5,2,0.5,0.0625,-35.0,-1,1.0,0.3651
6,2,0.5,0.125,-35.0,1,0.0,0.26340000000000074
7,2,0.5,0.0625,35.0,1,1.0,0.2173000000000016
8,2,0.5,0.125,35.0,1,1.0,0.31159999999999854
9,2,0.5,0.25,-35.0,-1,1.0,0.8660000000000032
10,2,0.5,0.125,35.0,1,1.0,0.033600000000003405
11,2,0.5,0.0625,-35.0,-1,1.0,0.31569999999999965
12,2,0.5,0.0625,35.0,-1,0.0,1.7313999999999972
13,2,0.5,1.0,35.0,1,1.0,0.23810000000000286
14,2,0.5,0.0625,-35.0,1,0.0,0.6994999999999933
15,2,0.5,1.0,-35.0,-1,1.0,0.2032000000000025
16,2,0.5,1.0,-35.0,-1,1.0,0.3083999999999989
17,2,0.5,1.0,-35.0,-1,1.0,0.271099999999997
18,2,0.5,0.125,-35.0,-1,1.0,0.9440000000000026
19,2,0.5,0.0,-35.0,-1,1.0,0.31040000000000134
20,2,0.5,0.25,-35.0,1,0.0,1.8414999999999893
21,2,0.5,1.0,35.0,1,1.0,0.27129999999999654
22,2,0.5,0.125,35.0,-1,0.0,1.480099999999993
23,2,0.5,0.25,35.0,1,1.0,0.1863000000000028
24,2,0.5,0.25,-35.0,1,0.0,3.6488999999999976
25,2,0.5,0.25,-35.0,-1,1.0,0.09609999999999275
26,2,0.5,0.0625,-35.0,-1,1.0,2.8048
27,2,0.5,1.0,35.0,1,1.0,0.3422000000000054
28,2,0.5,0.125,35.0,1,1.0,1.0819999999999936
29,2,0.5,1.0,-35.0,-1,1.0,0.5736999999999881
30,2,0.5,0.125,35.0,1,1.0,1.0976
31,2,0.5,0.0625,-35.0,1,0.0,0.3088999999999942
32,2,0.5,0.0,35.0,1,1.0,0.3691000000000031
33,2,0.5,0.125,-35.0,-1,1.0,1.2802999999999969
34,2,0.5,0.0,35.0,-1,0.0,1.6444999999999936
35,2,0.5,0.125,35.0,1,1.0,0.41620000000000346
36,2,0.5,0.125,-35.0,-1,1.0,1.1567000000000007
37,2,0.5,0.25,35.0,1,1.0,0.40519999999999357
38,2,0.5,1.0,-35.0,-1,1.0,0.26380000000000337
39,2,0.5,0.125,-35.0,-1,1.0,0.48229999999999507
40,2,0.5,0.125,35.0,1,1.0,0.48349999999999227
41,2,0.5,0.125,-35.0,-1,1.0,0.5113999999999805
42,2,0.5,0.25,35.0,1,1.0,2.1632999999999925
43,2,0.5,0.0625,-35.0,-1,1.0,0.6287000000000091
44,2,0.5,0.25,35.0,1,1.0,0.13460000000000605
45,2,0.5,0.25,35.0,1,1.0,0.5370000000000346
46,2,0.5,0.0625,-35.0,-1,1.0,0.533299999999997
47,2,0.5,0.0625,35.0,1,1.0,3.440400000000011
48,2,0.5,0.125,35.0,1,1.0,1.3312999999999988
49,2,0.5,1.0,35.0,1,1.0,0.4427000000000021
50,2,0.5,1.0,-35.0,-1,1.0,0.5992999999999995
51,2,0.5,0.125,-35.0,1,0.0,1.6698000000000377
52,2,0.5,0.25,35.0,1,1.0,0.17740000000000578
53,2,0.5,0.0625,35.0,1,1.0,1.0634000000000015
54,2,0.5,0.0625,35.0,1,1.0,1.0773000000000081
55,2,0.5,1.0,-35.0,-1,1.0,0.22870000000000346
56,2,0.5,0.0625,35.0,1,1.0,1.3966000000000065
57,2,0.5,0.25,35.0,1,1.0,0.4714000000000169
58,2,0.5,0.0625,-35.0,-1,1.0,0.4504000000000019
59,2,0.5,1.0,-35.0,-1,1.0,0.48380000000000223
60,2,0.5,0.125,35.0,1,1.0,0.20889999999999986
61,2,0.5,0.0,-35.0,1,0.0,1.1392000000000166
62,2,0.5,0.0625,-35.0,-1,1.0,0.4276000000000124
63,2,0.5,0.125,-35.0,-1,1.0,0.4703000000000088
64,2,0.5,0.0625,-35.0,1,0.0,0.41190000000003124
65,2,0.5,0.0625,35.0,1,1.0,0.4130999999999858
66,2,0.5,1.0,-35.0,-1,1.0,0.3359000000000094
67,2,0.5,0.0625,35.0,1,1.0,0.7482000000000255
68,2,0.5,0.25,-35.0,1,0.0,2.442600000000027
69,2,0.5,1.0,35.0,1,1.0,0.36650000000000205
70,2,0.5,0.0625,-35.0,1,0.0,1.8115999999999985
71,2,0.5,0.125,35.0,1,1.0,0.3954000000000235
72,2,0.5,0.25,-35.0,-1,1.0,0.39970000000002415
73,2,0.5,0.0,35.0,1,1.0,3.2682000000000073
74,2,0.5,0.25,-35.0,-1,1.0,0.4157000000000153
75,2,0.5,0.125,-35.0,-1,1.0,3.2675000000000125
76,2,0.5,1.0,-35.0,-1,1.0,0.39869999999999095
77,2,0.5,0.25,35.0,1,1.0,0.3164999999999907
78,2,0.5,0.125,-35.0,-1,1.0,0.3591999999999871
79,2,0.5,0.25,35.0,1,1.0,0.2592999999999961
80,2,0.5,1.0,35.0,1,1.0,0.2535000000000025
81,2,0.5,0.25,35.0,1,1.0,0.4888000000000261
82,2,0.5,0.25,35.0,1,1.0,0.5927000000000078
83,2,0.5,0.25,-35.0,-1,1.0,0.3280990000000088
84,2,0.5,0.25,-35.0,-1,1.0,0.33850000000001046
85,2,0.5,1.0,35.0,1,1.0,0.3745000000000118
86,2,0.5,1.0,35.0,1,1.0,0.48190000000005284
87,2,0.5,0.0625,-35.0,1,0.0,3.278699999999958
88,2,0.5,0.125,35.0,-1,0.0,0.7206000000000472
89,2,0.5,1.0,-35.0,-1,1.0,0.3775999999999726
90,2,0.5,1.0,35.0,1,1.0,0.4156000000000404
91,2,0.8,0.0,-35.0,-1,1.0,1.780399999999986
92,2,0.8,0.0,-35.0,-1,1.0,1.0243000000000393
93,2,0.8,0.25,-35.0,-1,1.0,0.32060000000006994
94,2,0.8,0.0625,-35.0,-1,1.0,0.5176999999999907
95,2,0.8,0.25,-35.0,-1,1.0,0.28700000000003456
96,2,0.8,1.0,-35.0,-1,1.0,0.28309999999999036
97,2,0.8,0.125,-35.0,1,0.0,1.5412000000000035
98,2,0.8,0.125,-35.0,-1,1.0,0.5226999999999862
99,2,0.8,0.25,35.0,1,1.0,1.7805000000000746
100,2,0.8,0.125,-35.0,-1,1.0,0.32269999999999754
101,2,0.8,0.25,-35.0,-1,1.0,0.33370000000002165
102,2,0.8,0.25,35.0,1,1.0,0.6165000000000305
103,2,0.8,0.0625,-35.0,-1,1.0,0.3649000000000342
104,2,0.8,0.0,-35.0,1,0.0,0.18100000000004002
105,2,0.8,0.0625,-35.0,1,0.0,0.23179999999996426
106,2,0.8,0.125,-35.0,-1,1.0,0.26130000000000564
107,2,0.8,0.125,-35.0,-1,1.0,0.38810000000000855
108,2,0.8,0.25,-35.0,-1,1.0,0.28619999999995116
109,2,0.8,0.0,-35.0,-1,1.0,0.45470000000000255
110,2,0.8,0.125,-35.0,-1,1.0,0.3707000000000562
111,2,0.8,0.25,-35.0,-1,1.0,0.4048999999999978
112,2,0.8,0.0,-35.0,-1,1.0,0.29829999999998336
113,2,0.8,1.0,-35.0,-1,1.0,0.2563000000000102
114,2,0.8,0.0625,35.0,-1,0.0,0.2687999999999988
115,2,0.8,1.0,35.0,1,1.0,0.44889999999998054
116,2,0.8,0.125,-35.0,-1,1.0,0.5878999999999905
117,2,0.8,0.0625,35.0,-1,0.0,0.16480000000001382
118,2,0.8,0.25,-35.0,-1,1.0,0.2077000000000453
119,2,0.8,0.25,-35.0,-1,1.0,0.30520000000001346
120,2,0.8,1.0,-35.0,-1,1.0,0.18329999999997426
121,2,0.8,0.125,-35.0,-1,1.0,0.4741000000000213
122,2,0.8,0.0625,-35.0,-1,1.0,0.9266000000000076
123,2,0.8,1.0,35.0,1,1.0,0.3432000000000244
124,2,0.8,1.0,-35.0,-1,1.0,0.3043999999999869
125,2,0.8,0.125,-35.0,-1,1.0,0.9268000000000143
126,2,0.8,0.25,35.0,1,1.0,0.47980000000001155
127,2,0.8,0.0,-35.0,1,0.0,0.32580000000007203
128,2,0.8,0.125,-35.0,-1,1.0,0.2265000000000441
129,2,0.8,0.0625,35.0,-1,0.0,0.28750000000002274
130,2,0.8,0.25,-35.0,-1,1.0,0.428799999999967
131,2,0.8,0.25,-35.0,-1,1.0,0.24220000000002528
132,2,0.2,0.25,35.0,1,1.0,0.6779000000000224
133,2,0.2,0.25,35.0,1,1.0,0.3079000000000178
134,2,0.2,0.0,35.0,-1,0.0,0.3058000000000334
135,2,0.2,0.125,35.0,1,1.0,0.43760000000003174
136,2,0.2,1.0,35.0,1,1.0,0.5370000000000346
137,2,0.2,0.0625,-35.0,-1,1.0,0.484800000000007
138,2,0.2,0.0625,35.0,1,1.0,0.5482000000000085
139,2,0.2,0.25,-35.0,-1,1.0,0.3027000000000726
140,2,0.2,0.125,35.0,1,1.0,2.2573000000000434
141,2,0.2,0.0625,35.0,1,1.0,0.5274000000000001
142,2,0.2,0.125,35.0,1,1.0,0.4201999999999657
143,2,0.2,0.0625,-35.0,-1,1.0,0.28769999999997253
144,2,0.2,0.25,-35.0,-1,1.0,0.2318000000000211
145,2,0.2,1.0,35.0,1,1.0,0.3161000000000058
146,2,0.2,1.0,-35.0,-1,1.0,0.4480000000000359
147,2,0.2,1.0,35.0,1,1.0,0.3866999999999621
148,2,0.2,0.0625,35.0,1,1.0,0.45980000000002974
149,2,0.2,1.0,35.0,1,1.0,1.4635999999999854
150,2,0.2,0.0625,35.0,1,1.0,0.4046000000000163
151,2,0.2,0.0625,35.0,1,1.0,0.43070000000000164
152,2,0.2,0.0,35.0,1,1.0,1.819500000000005
153,2,0.2,0.25,35.0,1,1.0,0.20830000000000837
154,2,0.2,0.25,-35.0,-1,1.0,0.7554999999999836
155,2,0.2,0.125,35.0,1,1.0,0.3160000000000309
156,2,0.2,1.0,35.0,1,1.0,0.4186000000000263
157,2,0.2,0.25,35.0,1,1.0,0.3814000000000419
158,2,0.2,0.125,35.0,1,1.0,1.5871000000000208
159,2,0.2,0.125,35.0,1,1.0,0.3435999999999808
160,2,0.2,1.0,35.0,1,1.0,0.403699999999958
161,2,0.2,0.0625,35.0,-1,0.0,1.6619999999999777
162,2,0.2,0.25,35.0,1,1.0,0.18530000000004065
163,2,0.2,0.25,35.0,1,1.0,1.5611000000000672
164,2,0.2,1.0,35.0,1,1.0,0.413599999999974
165,2,0.2,0.125,35.0,1,1.0,0.3916999999999575
166,2,0.2,0.25,35.0,1,1.0,0.2510000000000332
167,2,0.2,0.25,-35.0,-1,1.0,0.45850000000007185
168,2,0.2,0.25,-35.0,-1,1.0,0.3230000000000359
169,2,0.2,1.0,35.0,1,1.0,0.35710000000000264
170,2,0.2,0.0,35.0,1,1.0,2.123800000000074
171,2,0.2,0.125,35.0,1,1.0,0.4148999999999887
172,2,0.2,0.0,35.0,1,1.0,0.9145999999999503
173,2,0.2,1.0,35.0,1,1.0,0.37859999999989213
174,2,0.2,0.125,35.0,1,1.0,0.744600000000105
175,2,0.2,1.0,35.0,1,1.0,0.05600000000004002
176,2,0.2,0.25,35.0,1,1.0,0.1814000000000533
177,2,0.2,1.0,35.0,1,1.0,0.35450000000003
178,2,0.2,0.0,35.0,-1,0.0,0.5101999999999407
179,2,0.2,0.0625,-35.0,-1,1.0,0.369199999999978
180,2,0.2,0.25,35.0,1,1.0,0.3442000000001144
181,2,0.2,1.0,-35.0,-1,1.0,0.3665999999999485
182,2,0.2,0.25,35.0,1,1.0,0.2640999999999849
183,2,0.2,0.125,35.0,-1,0.0,0.30110000000001946
184,2,0.2,0.25,35.0,1,1.0,0.3533999999999651
185,2,0.2,1.0,35.0,1,1.0,0.3605000000001155
186,2,0.2,1.0,35.0,1,1.0,0.5091999999999643
187,2,0.2,0.125,35.0,1,1.0,0.322400000000016
188,2,0.2,0.125,35.0,1,1.0,0.6475000000000364
189,2,0.2,0.0625,35.0,-1,0.0,0.36160000000006676
190,2,0.2,1.0,35.0,1,1.0,0.4440999999999349
191,2,0.2,0.0625,35.0,-1,0.0,0.6058000000000447
192,2,0.2,0.25,35.0,1,1.0,0.35190000000000055
193,2,0.2,0.25,35.0,1,1.0,0.9901000000000977
194,2,0.2,0.125,35.0,1,1.0,0.4375
195,2,0.2,0.25,-35.0,-1,1.0,0.32519999999999527
196,2,0.2,0.0625,35.0,-1,0.0,0.4148000000000138
197,2,0.2,0.125,-35.0,1,0.0,0.20739900000000944
198,2,0.2,0.0,35.0,1,1.0,3.1585999999999785
199,2,0.2,0.125,35.0,1,1.0,0.2642000000000735
200,2,0.2,0.25,35.0,1,1.0,0.6249000000000251
201,2,0.2,1.0,35.0,1,1.0,0.9972000000000207
202,2,0.2,0.125,-35.0,-1,1.0,0.282100000000014
203,2,0.2,1.0,35.0,1,1.0,0.35750000000007276
204,2,0.2,1.0,-35.0,-1,1.0,0.23860000000001946
205,2,0.2,1.0,35.0,1,1.0,0.35570000000006985
206,2,0.2,0.125,35.0,1,1.0,0.4571000000000822
207,2,0.2,0.25,-35.0,-1,1.0,0.4193000000000211
208,2,0.2,0.25,35.0,1,1.0,0.5130000000001473
209,2,0.2,0.125,35.0,1,1.0,0.3791000000001077
210,2,0.2,0.0625,35.0,1,1.0,2.408200000000079
211,2,0.2,0.0,35.0,1,1.0,1.6041000000000167
212,2,0.2,0.125,35.0,-1,0.0,0.763300000000072
213,2,0.2,1.0,-35.0,-1,1.0,0.4913999999999987
214,2,0.2,0.0625,35.0,1,1.0,3.6076000000000477
215,2,0.2,0.0625,35.0,-1,0.0,0.8210000000000264
216,2,0.2,0.125,-35.0,-1,1.0,0.13420000000007803
217,2,0.2,0.125,-35.0,-1,1.0,0.22870000000011714
218,2,0.2,1.0,35.0,1,1.0,0.4147000000000389
219,2,0.2,0.125,35.0,1,1.0,1.2174999999999727
220,2,0.2,0.125,35.0,1,1.0,0.3427000000000362
221,2,0.2,0.0,35.0,1,1.0,2.149099999999976
222,2,0.2,0.0625,-35.0,-1,1.0,0.46289999999987685
223,2,0.2,0.0625,35.0,-1,0.0,0.37160000000005766
224,2,0.2,0.0625,35.0,1,1.0,2.247500000000059
225,2,0.2,0.0625,-35.0,-1,1.0,0.46430000000009386
226,2,0.8,0.125,-35.0,-1,1.0,0.3529999999999518
227,2,0.8,0.125,-35.0,-1,1.0,1.9157999999999902
228,2,0.8,0.25,-35.0,-1,1.0,0.5117000000000189
229,2,0.8,0.0625,-35.0,-1,1.0,0.5064000000000988
230,2,0.8,0.25,35.0,1,1.0,0.6000999999999976
231,2,0.8,0.25,-35.0,-1,1.0,0.23649999999997817
232,2,0.8,1.0,-35.0,-1,1.0,0.35399999999992815
233,2,0.8,1.0,-35.0,-1,1.0,0.4414000000000442
234,2,0.8,0.125,35.0,1,1.0,0.46450000000004366
235,2,0.8,0.0,-35.0,1,0.0,0.2504999999999882
236,2,0.8,0.25,-35.0,-1,1.0,0.5081000000000131
237,2,0.8,1.0,-35.0,-1,1.0,0.2075000000000955
238,2,0.8,0.125,-35.0,-1,1.0,0.23730000000000473
239,2,0.8,0.25,-35.0,-1,1.0,0.8865000000000691
240,2,0.8,1.0,-35.0,-1,1.0,0.31779999999992015
241,2,0.8,0.0625,-35.0,-1,1.0,0.6405000000000882
242,2,0.8,0.25,35.0,-1,0.0,0.1613999999999578
243,2,0.8,1.0,-35.0,-1,1.0,0.04570000000001073
244,2,0.8,0.0625,-35.0,-1,1.0,0.4539000000000897
245,2,0.8,0.0625,-35.0,-1,1.0,0.42669999999998254
246,2,0.8,0.0625,-35.0,-1,1.0,0.35920000000010077
247,2,0.8,0.25,35.0,1,1.0,0.9107000000000198
248,2,0.8,1.0,35.0,1,1.0,0.33950000000004366
249,2,0.8,0.0625,35.0,1,1.0,0.5905999999999949
250,2,0.8,0.25,-35.0,-1,1.0,0.3543000000000802
251,2,0.8,0.0625,-35.0,-1,1.0,0.4696999999999889
252,2,0.8,0.125,-35.0,1,0.0,0.15260000000012042
253,2,0.8,1.0,-35.0,-1,1.0,0.25769999999988613
254,2,0.8,0.125,35.0,1,1.0,1.9044999999999845
255,2,0.8,0.25,-35.0,-1,1.0,0.37750000000005457
256,2,0.8,0.25,-35.0,-1,1.0,0.363399999999956
257,2,0.8,0.0625,35.0,-1,0.0,0.2697999999999183
258,2,0.8,0.0625,-35.0,-1,1.0,0.21100000000001273
259,2,0.8,0.0625,-35.0,-1,1.0,0.45060000000000855
260,2,0.8,1.0,35.0,1,1.0,0.579599999999914
261,2,0.8,0.25,-35.0,-1,1.0,0.5005999999999631
262,2,0.8,0.0625,-35.0,-1,1.0,0.2053000000000793
263,2,0.8,0.25,-35.0,-1,1.0,0.3847000000000662
264,2,0.8,0.0,-35.0,-1,1.0,0.8960000000000719
265,2,0.8,0.25,35.0,1,1.0,1.4773000000000138
266,2,0.8,0.0625,-35.0,-1,1.0,0.6057999999999311
267,2,0.8,0.0625,-35.0,1,0.0,0.22320000000001983
268,2,0.8,1.0,35.0,1,1.0,0.4073000000000775
269,2,0.8,0.0625,-35.0,-1,1.0,0.38040000000000873
270,2,0.8,0.0625,-35.0,-1,1.0,0.5095999999999776
271,2,0.8,0.0,-35.0,1,0.0,1.4986999999999853
272,2,0.8,1.0,-35.0,-1,1.0,0.23919999999986885
273,2,0.8,0.0,-35.0,-1,1.0,0.9972999999999956
274,2,0.8,0.25,-35.0,-1,1.0,0.4452999999999747
275,2,0.8,0.0625,-35.0,1,0.0,0.2318999999998823
276,2,0.8,0.0,-35.0,1,0.0,0.3367000000000644
277,2,0.8,1.0,-35.0,-1,1.0,0.6577000000000908
278,2,0.8,0.0,-35.0,-1,1.0,0.7133999999999787
279,2,0.8,0.0625,-35.0,-1,1.0,0.3367000000000644
280,2,0.8,0.25,-35.0,-1,1.0,0.4057000000000244
281,2,0.8,1.0,-35.0,-1,1.0,0.2136000000000422
282,2,0.8,0.125,-35.0,-1,1.0,0.26729999999997744
283,2,0.8,1.0,-35.0,-1,1.0,0.0968000000000302
284,2,0.8,0.25,-35.0,-1,1.0,0.2522000000000162
285,2,0.8,1.0,-35.0,-1,1.0,0.06610000000000582
286,2,0.8,0.125,35.0,1,1.0,0.43990000000007967
287,2,0.8,0.0625,-35.0,-1,1.0,0.22069999999996526
288,2,0.8,1.0,-35.0,-1,1.0,0.31029899999987265
289,2,0.8,0.25,35.0,-1,0.0,0.19679999999993925
290,2,0.8,0.25,-35.0,-1,1.0,0.1068000000000211
291,2,0.8,0.25,-35.0,-1,1.0,0.2039999999999509
292,2,0.8,0.125,35.0,-1,0.0,2.3250999999999067
293,2,0.8,0.0625,35.0,1,1.0,0.5828999999999951
294,2,0.8,0.0625,-35.0,-1,1.0,0.4756999999999607
295,2,0.8,0.25,-35.0,-1,1.0,0.28950000000008913
296,2,0.8,0.25,-35.0,-1,1.0,0.22359999999991942
297,2,0.8,0.25,-35.0,-1,1.0,0.24500000000000455
298,2,0.8,1.0,-35.0,-1,1.0,0.10860000000002401
299,2,0.8,1.0,35.0,1,1.0,0.0846000000000231
300,2,0.8,0.25,-35.0,-1,1.0,0.29539999999997235
301,2,0.8,0.0,-35.0,-1,1.0,0.9329999999999927
302,2,0.8,1.0,-35.0,-1,1.0,0.5038999999999305
303,2,0.8,1.0,-35.0,-1,1.0,0.22029999999995198
304,2,0.8,1.0,-35.0,-1,1.0,0.23550000000000182
305,2,0.8,0.0625,-35.0,-1,1.0,0.6532999999999447
306,2,0.8,1.0,-35.0,-1,1.0,0.2946000000000595
307,2,0.8,0.125,-35.0,1,0.0,0.10990000000003874
308,2,0.8,0.125,-35.0,-1,1.0,0.29169999999999163
309,2,0.8,0.125,-35.0,-1,1.0,1.1327999999999747
310,2,0.8,1.0,35.0,1,1.0,0.6063000000001466
311,2,0.8,0.25,-35.0,-1,1.0,0.29099999999994
312,2,0.8,1.0,-35.0,-1,1.0,0.5160000000000764
313,2,0.8,0.125,-35.0,-1,1.0,0.7706000000000586
314,2,0.8,1.0,-35.0,-1,1.0,0.28510000000005675
315,2,0.8,1.0,-35.0,-1,1.0,0.6915000000000191
316,2,0.8,0.25,-35.0,-1,1.0,0.33600000000001273
317,2,0.2,0.125,35.0,1,1.0,2.1861000000000104
318,2,0.2,0.0625,35.0,1,1.0,0.37999999999999545
319,2,0.2,0.0625,35.0,1,1.0,4.634299999999939
320,2,0.2,0.125,35.0,1,1.0,0.32789999999999964
321,2,0.2,0.25,35.0,1,1.0,0.4415000000000191
322,2,0.2,0.0625,35.0,1,1.0,0.3748000000000502
323,2,0.2,0.0625,35.0,-1,0.0,0.9183000000000447
324,2,0.2,0.25,35.0,1,1.0,0.5150999999999613
325,2,0.2,0.125,35.0,-1,0.0,0.35179999999991196
326,2,0.2,0.125,35.0,1,1.0,0.4520999999999731
327,2,0.2,0.25,-35.0,-1,1.0,0.3088000000000193
328,2,0.2,0.0625,35.0,-1,0.0,1.3922000000000025
329,2,0.2,0.0625,35.0,1,1.0,0.3123000000000502
330,2,0.2,0.0625,35.0,1,1.0,0.40239999999994325
331,2,0.2,0.0625,35.0,-1,0.0,0.7492000000002008
332,2,0.2,0.0,-35.0,1,0.0,0.38610000000016953
333,2,0.2,0.125,35.0,-1,0.0,0.2795000000000982
334,2,0.2,0.125,35.0,1,1.0,0.22640000000001237
335,2,0.2,0.0625,-35.0,-1,1.0,0.2864999999999327
336,2,0.2,0.0,35.0,-1,0.0,0.48659999999995307
337,2,0.8,1.0,-35.0,-1,1.0,0.2801999999999225
338,2,0.8,0.125,-35.0,-1,1.0,0.3369999999999891
339,2,0.8,0.0625,-35.0,-1,1.0,2.4402999999999793
340,2,0.8,0.25,-35.0,1,0.0,0.15399999999999636
341,2,0.8,0.125,-35.0,-1,1.0,0.08410000000003492
342,2,0.8,0.0625,35.0,-1,0.0,0.5109000000002197
343,2,0.8,0.125,-35.0,-1,1.0,0.27109999999993306
344,2,0.8,1.0,35.0,1,1.0,0.2945999999999458
345,2,0.8,0.0625,-35.0,-1,1.0,0.2880999999999858
346,2,0.8,0.0625,-35.0,-1,1.0,0.3447000000001026
347,2,0.8,0.25,-35.0,-1,1.0,0.1914999999999054
348,2,0.8,0.0,-35.0,-1,1.0,1.2549999999998818
349,2,0.8,0.25,-35.0,-1,1.0,0.26840000000015607
350,2,0.8,1.0,-35.0,-1,1.0,0.05180000000018481
351,2,0.8,0.25,-35.0,-1,1.0,0.20869999999990796
352,2,0.8,0.25,-35.0,-1,1.0,0.8019999999999072
353,2,0.8,0.25,-35.0,-1,1.0,0.30550000000016553
354,2,0.8,0.25,-35.0,-1,1.0,0.2255999999999858
355,2,0.8,0.125,-35.0,-1,1.0,0.3123000000000502
356,2,0.8,0.25,-35.0,-1,1.0,0.5090999999999894
357,2,0.8,0.0625,35.0,-1,0.0,0.1792000000000371
358,2,0.8,0.125,-35.0,-1,1.0,0.18960000000015498
359,2,0.8,0.0625,-35.0,-1,1.0,0.236299999999801
360,2,0.8,0.125,-35.0,-1,1.0,0.5429999999998927
361,2,0.8,0.25,35.0,1,1.0,0.9698000000000775
362,2,0.8,0.125,-35.0,-1,1.0,0.36979999999994106
363,2,0.8,0.0625,-35.0,-1,1.0,0.24350000000004002
364,2,0.8,0.125,-35.0,-1,1.0,0.47040000000015425
365,2,0.8,0.125,-35.0,-1,1.0,0.2537999999999556
366,2,0.8,0.0625,35.0,1,1.0,0.29740000000015243
367,2,0.8,0.25,-35.0,1,0.0,0.10080000000016298
368,2,0.8,0.0625,-35.0,-1,1.0,0.38439999999991414
369,2,0.8,0.125,-35.0,1,0.0,0.17450000000008004
370,2,0.8,0.0625,-35.0,-1,1.0,0.49469999999996617
371,2,0.8,1.0,-35.0,-1,1.0,0.7182000000000244
372,2,0.8,0.25,-35.0,-1,1.0,0.21490000000017062
373,2,0.8,0.25,-35.0,-1,1.0,0.24510000000009313
374,2,0.8,0.0625,-35.0,-1,1.0,0.18190000000026885
375,2,0.8,0.125,-35.0,-1,1.0,0.39859999999998763
376,2,0.8,0.0,-35.0,-1,1.0,2.416500000000269
377,2,0.8,0.125,-35.0,-1,1.0,0.11899999999991451
378,2,0.8,1.0,35.0,-1,0.0,0.08900000000016917
379,2,0.8,0.0625,-35.0,-1,1.0,0.20269999999982247
380,2,0.8,0.25,-35.0,-1,1.0,0.2760999999998148
381,2,0.8,0.125,-35.0,-1,1.0,0.1794999999999618
382,2,0.8,1.0,-35.0,-1,1.0,0.4264000000002852
383,2,0.8,0.25,-35.0,-1,1.0,0.22319999999990614
384,2,0.8,0.0,35.0,-1,0.0,0.22349899999994705
385,2,0.8,0.0625,35.0,-1,0.0,0.37030000000004293
386,2,0.8,1.0,-35.0,-1,1.0,0.337099999999964
387,2,0.8,1.0,-35.0,-1,1.0,0.247300000000223
388,2,0.8,0.0,-35.0,-1,1.0,0.2239999999999327
389,2,0.8,0.0625,-35.0,-1,1.0,0.6576000000000022
390,2,0.8,0.0625,-35.0,-1,1.0,0.19439999999985957
391,2,0.8,0.125,-35.0,-1,1.0,0.31780000000003383
392,2,0.8,0.0625,-35.0,-1,1.0,0.04130000000009204
393,2,0.8,0.0,-35.0,-1,1.0,0.8515999999999622
394,2,0.8,1.0,-35.0,-1,1.0,0.20870000000013533
395,2,0.8,0.25,35.0,1,1.0,0.3787999999999556
396,2,0.8,1.0,-35.0,-1,1.0,0.18890000000010332
397,2,0.8,0.0625,-35.0,-1,1.0,0.24929999999994834
398,2,0.8,0.25,-35.0,-1,1.0,0.24260000000003856
399,2,0.8,1.0,-35.0,-1,1.0,0.23260000000004766
400,2,0.8,0.25,-35.0,-1,1.0,1.37929999999983
401,2,0.8,0.0625,-35.0,-1,1.0,0.38960000000020045
402,2,0.8,0.125,-35.0,-1,1.0,0.2336999999999989
403,2,0.8,0.25,-35.0,-1,1.0,0.1733000000001539
404,2,0.8,0.0625,-35.0,-1,1.0,0.1934000000001106
405,2,0.8,0.125,-35.0,1,0.0,0.047499999999899956
406,2,0.8,1.0,35.0,1,1.0,0.3106000000000222
407,2,0.8,0.0,35.0,1,1.0,0.2074000000000069
408,2,0.8,0.0625,-35.0,-1,1.0,0.17760000000021137
409,2,0.8,0.25,-35.0,-1,1.0,0.29099999999994
410,2,0.8,0.0625,-35.0,-1,1.0,0.5244000000000142
411,2,0.8,0.0,-35.0,-1,1.0,0.2944999999999709
412,2,0.8,0.125,-35.0,-1,1.0,0.2479000000000724
413,2,0.8,0.25,-35.0,-1,1.0,0.4580999999998312
414,2,0.8,1.0,35.0,1,1.0,0.7151000000001204
415,2,0.8,1.0,-35.0,-1,1.0,0.20489999999995234
416,2,0.8,1.0,-35.0,-1,1.0,0.23510000000010223
417,2,0.2,0.0625,-35.0,-1,1.0,0.10190000000011423
418,2,0.2,0.25,35.0,1,1.0,0.4057999999999993
419,2,0.2,0.0625,35.0,-1,0.0,0.20879999999988286
420,2,0.2,0.0625,-35.0,1,0.0,0.17879999999991014
421,2,0.2,0.125,35.0,1,1.0,0.475800000000163
422,2,0.2,1.0,35.0,1,1.0,0.4292000000000371
423,2,0.2,0.0625,35.0,1,1.0,0.519399999999905
424,2,0.2,0.0625,35.0,1,1.0,0.4594999999999345
425,2,0.2,0.0625,35.0,1,1.0,0.39960000000019136
426,2,0.2,0.0625,-35.0,-1,1.0,0.28680000000031214
427,2,0.2,1.0,35.0,1,1.0,0.3368000000000393
428,2,0.2,0.25,35.0,1,1.0,0.4834000000000742
429,2,0.2,0.0,35.0,1,1.0,1.6801000000000386
430,2,0.2,0.25,35.0,-1,0.0,1.0068999999998596
431,2,0.2,0.125,-35.0,-1,1.0,0.21039999999993597
432,2,0.2,0.125,35.0,-1,0.0,0.2538999999999305
433,2,0.2,0.25,35.0,-1,0.0,0.23730000000000473
434,2,0.2,0.0625,35.0,-1,0.0,0.2941000000000713
435,2,0.2,0.125,35.0,1,1.0,0.4979999999998199
436,2,0.2,0.0625,35.0,1,1.0,0.381099999999833
437,2,0.2,0.125,35.0,-1,0.0,0.19800000000009277
438,2,0.2,0.25,-35.0,-1,1.0,0.2781000000002223
439,2,0.2,1.0,35.0,1,1.0,0.4517000000000735
440,2,0.2,1.0,35.0,1,1.0,0.471599999999853
441,2,0.2,0.0625,35.0,1,1.0,0.3751999999999498
442,2,0.2,0.0625,35.0,1,1.0,0.6884000000000015
443,2,0.2,0.125,35.0,1,1.0,0.5751999999999953
444,2,0.2,0.0625,35.0,1,1.0,3.162100000000237
445,2,0.2,0.125,35.0,1,1.0,0.2923000000000684
446,2,0.2,0.0,-35.0,1,0.0,0.41249999999990905
447,2,0.2,0.125,35.0,1,1.0,0.27599999999983993
448,2,0.2,0.0,-35.0,-1,1.0,2.2793000000001484
449,2,0.2,0.125,35.0,-1,0.0,0.33960000000001855
450,2,0.2,0.0625,35.0,-1,0.0,0.3330000000000837
451,2,0.2,1.0,35.0,1,1.0,0.3002000000001317
452,2,0.2,0.0625,35.0,1,1.0,0.47020000000020445
453,2,0.2,0.125,-35.0,-1,1.0,0.19349999999985812
454,2,0.2,0.25,-35.0,-1,1.0,0.29759999999987485
455,2,0.2,1.0,35.0,1,1.0,0.4171000000001186
456,2,0.2,0.25,35.0,-1,0.0,0.23040000000014516
457,2,0.2,0.0625,35.0,1,1.0,0.35740000000009786
458,2,0.2,0.25,35.0,1,1.0,1.9610999999997603
459,2,0.8,0.25,-35.0,-1,1.0,0.4641999999998916
460,2,0.8,0.125,-35.0,-1,1.0,0.24759999999992033
461,2,0.8,0.25,-35.0,-1,1.0,0.33789999999999054
462,2,0.8,0.125,35.0,1,1.0,0.12180000000012114
463,2,0.8,0.25,-35.0,-1,1.0,0.3748000000000502
464,2,0.8,0.25,-35.0,-1,1.0,0.7751000000000658
465,2,0.8,0.25,-35.0,-1,1.0,0.28520000000003165
466,2,0.8,0.125,-35.0,-1,1.0,1.11850000000004
467,2,0.8,0.0625,-35.0,-1,1.0,0.3453999999999269
468,2,0.8,0.125,-35.0,-1,1.0,0.07230000000004111
469,2,0.8,1.0,-35.0,-1,1.0,0.14609999999993306
470,2,0.8,0.125,35.0,1,1.0,0.42570000000023356
471,2,0.8,0.125,-35.0,-1,1.0,0.3024999999997817
472,2,0.8,0.0625,-35.0,1,0.0,0.34950000000003456
473,2,0.8,0.125,-35.0,-1,1.0,0.25939999999991414
474,2,0.8,0.125,35.0,1,1.0,0.6532000000001972
475,2,0.8,0.0625,35.0,-1,0.0,0.08629999999993743
476,2,0.8,0.0,-35.0,-1,1.0,0.2232000000001335
477,2,0.8,0.25,35.0,-1,0.0,-0.04330000000004475
478,2,0.8,0.0625,-35.0,-1,1.0,0.45020000000022264
479,2,0.8,0.25,-35.0,-1,1.0,0.07709999999997308
480,2,0.8,1.0,-35.0,-1,1.0,0.18360000000006949
481,2,0.8,0.25,-35.0,-1,1.0,0.19719999999983884
482,2,0.8,0.0625,-35.0,-1,1.0,0.1507000000001426
483,2,0.8,0.25,-35.0,-1,1.0,0.28460000000018226
484,2,0.8,0.0,-35.0,-1,1.0,0.4775999999999385
485,2,0.8,1.0,-35.0,-1,1.0,0.22829999999999018
486,2,0.8,1.0,-35.0,-1,1.0,0.0784000000001015
487,2,0.8,0.25,-35.0,-1,1.0,0.0647999999998774
488,2,0.8,0.25,-35.0,-1,1.0,0.1850000000001728
489,2,0.8,0.125,35.0,1,1.0,0.6886000000001786
490,2,0.8,0.0625,35.0,-1,0.0,0.8017999999999574
491,2,0.8,0.0,-35.0,-1,1.0,0.22209999999972752
492,2,0.2,0.125,35.0,-1,0.0,0.11879999999973734
493,2,0.2,0.0625,35.0,-1,0.0,0.33930000000009386
494,2,0.2,0.125,35.0,-1,0.0,0.2724000000000615
495,2,0.2,0.0625,35.0,-1,0.0,0.2696000000000822
496,2,0.2,0.125,35.0,-1,0.0,0.27640000000019427
497,2,0.2,1.0,35.0,1,1.0,0.36979999999994106
498,2,0.2,0.0625,-35.0,-1,1.0,0.29340000000001965
499,2,0.2,0.125,35.0,1,1.0,0.4433999999998832
500,2,0.2,0.0625,35.0,1,1.0,0.3833999999997104
501,2,0.2,0.0625,35.0,-1,0.0,2.38350000000014
502,2,0.2,1.0,35.0,1,1.0,0.39380000000028303
503,2,0.2,0.0625,35.0,1,1.0,1.8841999999999643
504,2,0.2,0.25,35.0,1,1.0,0.5507999999999811
505,2,0.2,0.0625,-35.0,-1,1.0,0.31110000000012406
506,2,0.2,0.125,35.0,-1,0.0,0.3976000000000113
507,2,0.2,1.0,35.0,1,1.0,0.19450000000028922
508,2,0.2,1.0,35.0,1,1.0,0.4511999999999716
509,2,0.2,0.125,35.0,1,1.0,0.5522000000000844
510,2,0.2,0.0625,-35.0,-1,1.0,0.43840000000000146
511,2,0.2,0.0625,35.0,-1,0.0,0.2785000000001219
512,2,0.2,0.25,35.0,1,1.0,0.31529999999997926
513,2,0.2,0.125,35.0,1,1.0,0.8955000000000837
514,2,0.8,0.0625,-35.0,-1,1.0,0.7153000000000702
515,2,0.8,1.0,-35.0,-1,1.0,0.23260000000004766
516,2,0.8,0.125,-35.0,-1,1.0,0.24880000000007385
517,2,0.8,0.125,35.0,1,1.0,0.6824999999998909
518,2,0.8,0.0625,35.0,-1,0.0,1.0090999999999894
519,2,0.8,0.0,-35.0,1,0.0,0.35930000000007567
520,2,0.8,0.0625,-35.0,-1,1.0,0.47660000000018954
521,2,0.8,1.0,-35.0,-1,1.0,0.25309999999990396
522,2,0.8,0.0625,35.0,1,1.0,0.4294999999999618
523,2,0.8,0.25,35.0,1,1.0,0.44299999999998363
524,2,0.8,0.125,35.0,1,1.0,0.3266000000000986
525,2,0.8,0.0,-35.0,-1,1.0,0.5200999999999567
526,2,0.8,1.0,-35.0,-1,1.0,0.6767999999999574
527,2,0.8,0.125,35.0,1,1.0,0.35369999999988977
528,2,0.8,0.125,-35.0,-1,1.0,0.25700000000006185
529,2,0.8,1.0,-35.0,-1,1.0,0.06759999999985666
530,2,0.8,0.0625,-35.0,-1,1.0,0.3711000000000695
531,2,0.8,0.125,-35.0,-1,1.0,0.27759999999989304
532,2,0.8,0.25,-35.0,-1,1.0,0.12139999999999418
533,2,0.8,0.0,-35.0,-1,1.0,0.4210000000000491
534,2,0.8,0.0,35.0,1,1.0,0.44479999999998654
535,2,0.8,0.125,-35.0,-1,1.0,0.4981000000000222
536,2,0.8,0.125,-35.0,-1,1.0,0.29169999999999163
537,2,0.8,0.125,-35.0,-1,1.0,0.6218999999998687
538,2,0.8,1.0,35.0,1,1.0,0.5019000000002052
539,2,0.8,0.125,-35.0,-1,1.0,0.31530000000020664
540,2,0.8,0.125,-35.0,1,0.0,0.05880000000001928
541,2,0.8,1.0,-35.0,-1,1.0,0.19900000000006912
542,2,0.8,0.25,-35.0,1,0.0,0.17909999999983484
543,2,0.8,0.0625,-35.0,-1,1.0,0.5860000000000127
544,2,0.8,1.0,-35.0,-1,1.0,0.33969999999999345
545,2,0.8,0.125,-35.0,-1,1.0,0.32989999999995234
546,2,0.8,0.0,-35.0,1,0.0,2.006399999999985
547,2,0.8,0.0625,-35.0,-1,1.0,0.20679999999993015
548,2,0.8,0.0625,-35.0,-1,1.0,0.4936000000000149
549,2,0.8,0.0625,-35.0,-1,1.0,0.013799999999946522
550,2,0.8,0.0625,-35.0,1,0.0,0.17380000000002838
551,2,0.8,1.0,-35.0,-1,1.0,0.32780000000002474
552,2,0.8,0.125,-35.0,-1,1.0,0.3508999999999105
553,2,0.8,0.0625,-35.0,-1,1.0,0.34780000000000655
554,2,0.8,0.0625,-35.0,-1,1.0,0.21470000000022083
555,2,0.8,0.25,-35.0,-1,1.0,0.04789999999979955
556,2,0.8,0.25,-35.0,-1,1.0,0.2213000000001557
557,2,0.8,0.0625,-35.0,-1,1.0,0.44489999999996144
558,2,0.8,0.0625,-35.0,-1,1.0,0.20849999999995816
559,2,0.8,1.0,35.0,1,1.0,0.6750999999999294
560,2,0.8,0.25,-35.0,-1,1.0,0.20249999999987267
561,2,0.8,0.0,-35.0,-1,1.0,1.1019999999998618
562,2,0.8,0.0625,-35.0,-1,1.0,0.24889999999982138
563,2,0.8,0.0,-35.0,-1,1.0,0.5822999999998046
564,2,0.8,0.0625,35.0,1,1.0,0.5326000000000022
565,2,0.8,0.0,-35.0,-1,1.0,0.1993000000002212
566,2,0.8,0.125,-35.0,-1,1.0,0.3429000000000997
567,2,0.8,0.25,-35.0,-1,1.0,0.2562000000000353
568,2,0.8,1.0,-35.0,1,0.0,0.08300000000008367
569,2,0.8,0.0,-35.0,-1,1.0,0.34629999999992833
570,2,0.8,0.0625,-35.0,-1,1.0,0.2300000000000182
571,2,0.8,1.0,35.0,1,1.0,0.44689999999991414
572,2,0.8,0.25,-35.0,-1,1.0,0.4236000000000786
573,2,0.8,1.0,-35.0,-1,1.0,0.47710000000006403
574,2,0.8,0.125,35.0,1,1.0,0.5506000000000313
575,2,0.8,1.0,-35.0,-1,1.0,0.24720000000002074
576,2,0.8,0.0625,-35.0,-1,1.0,0.3974000000000615
577,2,0.8,0.125,-35.0,-1,1.0,0.24099999999998545
578,2,0.8,0.0625,-35.0,-1,1.0,0.9409999999998035
579,2,0.8,0.25,-35.0,-1,1.0,0.47109999999997854
580,2,0.8,0.0,-35.0,1,0.0,0.5144999999999982
581,2,0.8,0.0,-35.0,-1,1.0,0.6447000000000571
582,2,0.8,0.125,35.0,1,1.0,0.15820000000007894
583,2,0.8,0.25,-35.0,-1,1.0,0.46499999999991815
584,2,0.8,0.0625,-35.0,-1,1.0,0.2054000000000542
585,2,0.8,0.25,-35.0,-1,1.0,0.22529999999983374
586,2,0.2,0.25,35.0,1,1.0,4.218699999999899
587,2,0.2,0.25,35.0,1,1.0,0.36550000000011096
588,2,0.2,1.0,35.0,1,1.0,0.21910000000002583
589,2,0.2,0.25,35.0,-1,0.0,0.17260000000010223
590,2,0.2,0.125,35.0,-1,0.0,0.506099999999833
591,2,0.2,1.0,35.0,1,1.0,0.31300000000010186
592,2,0.2,0.0,35.0,-1,0.0,0.32009999999991123
593,2,0.2,0.0625,35.0,1,1.0,0.19309999999995853
594,2,0.2,0.0625,35.0,1,1.0,0.23329999999987194
595,2,0.2,0.0625,-35.0,-1,1.0,0.6403999999993175
596,2,0.2,0.0625,35.0,1,1.0,0.8402000000000953
597,2,0.2,0.25,35.0,-1,0.0,0.16039999999975407
598,2,0.2,0.125,35.0,1,1.0,0.4306999999994332
599,2,0.2,1.0,35.0,1,1.0,0.3939999999997781
600,2,0.2,0.125,35.0,1,1.0,0.3204999999993561
601,2,0.2,1.0,35.0,1,1.0,0.4881999999997788
602,2,0.2,1.0,35.0,1,1.0,0.20769999999947686
603,2,0.2,0.125,-35.0,-1,1.0,0.6111999999993714
604,2,0.2,1.0,35.0,1,1.0,0.39499999999952706
605,2,0.2,1.0,35.0,1,1.0,0.33129999999937354
606,2,0.2,1.0,35.0,1,1.0,0.8050999999995838
607,2,0.2,0.125,35.0,1,1.0,0.34819999999990614
608,2,0.2,1.0,35.0,1,1.0,0.3815999999997075
609,2,0.2,0.0,35.0,1,1.0,1.5382999999997082
610,2,0.2,0.25,35.0,1,1.0,0.332000999999309
611,2,0.2,0.25,35.0,1,1.0,0.3387009999996735
612,2,0.2,1.0,35.0,1,1.0,0.34610099999963495
613,2,0.2,0.25,35.0,1,1.0,1.075601000000006
614,2,0.2,0.0625,35.0,-1,0.0,1.989201000000321
615,2,0.2,0.0,-35.0,1,0.0,4.419401000000107
616,2,0.2,0.25,-35.0,-1,1.0,0.41970099999934973
617,2,0.2,0.0625,35.0,-1,0.0,0.27660100000002785
618,2,0.2,0.0625,35.0,-1,0.0,0.29360099999985323
619,2,0.2,0.25,35.0,1,1.0,0.5672999999997046
620,2,0.2,0.0,35.0,1,1.0,2.2837009999998372
621,2,0.2,0.125,35.0,1,1.0,0.34750099999973827
622,2,0.2,0.0,35.0,-1,0.0,0.047300999999606574
623,2,0.2,0.25,35.0,1,1.0,0.6973009999996975
624,2,0.2,0.25,35.0,1,1.0,0.6176009999994676
625,2,0.2,0.25,35.0,1,1.0,0.5409009999993941
626,2,0.2,0.0625,35.0,-1,0.0,2.564600999999584
627,2,0.2,0.0625,35.0,1,1.0,0.38150099999984377
628,2,0.2,0.0625,35.0,1,1.0,3.8114009999999325
629,2,0.2,0.0625,-35.0,-1,1.0,0.5184009999998125
630,2,0.2,0.25,35.0,1,1.0,0.521701000000121
631,2,0.2,0.0625,35.0,-1,0.0,0.31570099999999
632,2,0.2,0.25,-35.0,-1,1.0,0.3255010000002585
633,2,0.2,0.125,35.0,-1,0.0,0.14600099999961458
634,2,0.2,0.0625,35.0,-1,0.0,0.2356009999998605
635,2,0.2,0.0625,35.0,-1,0.0,0.532901000000038
636,2,0.2,1.0,35.0,1,1.0,0.30940099999997983
637,2,0.2,0.25,35.0,1,1.0,0.5932010000001355
638,2,0.2,0.25,-35.0,-1,1.0,0.28660100000024613
639,2,0.2,0.25,35.0,1,1.0,0.39350100000001476
640,2,0.2,0.25,35.0,1,1.0,0.4136009999997441
641,2,0.2,1.0,35.0,1,1.0,0.38030099999969025
642,2,0.2,1.0,-35.0,-1,1.0,0.3535009999995964
643,2,0.2,1.0,35.0,1,1.0,0.4169010000000526
644,2,0.2,0.0,35.0,-1,0.0,1.0103009999997994
645,2,0.2,0.0625,35.0,1,1.0,0.28710099999989325
646,2,0.2,1.0,35.0,1,1.0,0.6977009999995971
647,2,0.2,1.0,-35.0,-1,1.0,0.2645009999996546
648,2,0.2,1.0,35.0,1,1.0,0.334201000000121
649,2,0.2,0.25,35.0,1,1.0,0.32760099999995873
650,2,0.2,0.0625,35.0,1,1.0,0.30110100000001694
651,2,0.2,0.125,-35.0,-1,1.0,0.31790099999943777
652,2,0.2,1.0,35.0,1,1.0,0.5615010000001348
653,2,0.2,0.125,-35.0,-1,1.0,0.435200999999779
654,2,0.8,0.25,-35.0,-1,1.0,0.3818009999995411
655,2,0.8,0.125,-35.0,-1,1.0,2.2119009999996706
656,2,0.8,0.125,35.0,1,1.0,1.3256009999995513
657,2,0.8,0.25,-35.0,-1,1.0,0.2123009999995702
658,2,0.8,0.125,-35.0,1,0.0,0.1790009999999711
659,2,0.8,0.125,-35.0,-1,1.0,0.34590099999968515
660,2,0.8,0.25,-35.0,-1,1.0,0.32610099999965314
661,2,0.8,0.125,35.0,1,1.0,0.2861009999996895
662,2,0.8,0.25,35.0,1,1.0,0.44280099999969025
663,2,0.8,0.125,35.0,1,1.0,0.37990099999979066
664,2,0.8,0.0625,35.0,-1,0.0,0.7031009999996058
665,2,0.8,0.125,-35.0,-1,1.0,0.5837009999995644
666,2,0.8,0.125,-35.0,-1,1.0,0.27710099999967497
667,2,0.8,0.125,35.0,1,1.0,0.3969010000000708
668,2,0.8,1.0,-35.0,-1,1.0,0.20380100000011225
669,2,0.8,1.0,-35.0,-1,1.0,0.36720100000002276
670,2,0.8,0.25,35.0,1,1.0,0.32740100000000893
671,2,0.8,0.0625,-35.0,-1,1.0,0.6911009999994349
672,2,0.8,0.0625,-35.0,-1,1.0,0.5846010000000206
673,2,0.8,1.0,-35.0,-1,1.0,0.34840100000019447
674,2,0.8,0.125,-35.0,-1,1.0,0.3710009999999784
675,2,0.2,0.125,35.0,1,1.0,0.5048010000000431
676,2,0.2,0.125,-35.0,-1,1.0,0.3250009999997019
677,2,0.2,0.25,-35.0,-1,1.0,0.16850099999965096
678,2,0.2,0.0625,35.0,-1,0.0,0.37850099999968734
679,2,0.2,0.125,35.0,1,1.0,0.5291009999996277
680,2,0.2,0.0,35.0,-1,0.0,0.5989009999998416
681,2,0.2,1.0,35.0,1,1.0,0.32250100000010207
682,2,0.2,0.25,35.0,1,1.0,0.3759009999994305
683,2,0.2,1.0,35.0,1,1.0,0.3928009999999631
684,2,0.2,0.0625,-35.0,-1,1.0,0.3394010000001799
685,2,0.2,1.0,35.0,1,1.0,0.3960009999996146
686,2,0.2,0.125,35.0,1,1.0,0.3229009999995469
687,2,0.2,1.0,-35.0,-1,1.0,0.346400999999787
688,2,0.2,0.25,-35.0,-1,1.0,0.2233009999999922
689,2,0.2,0.25,35.0,-1,0.0,0.19680099999959566
690,2,0.2,0.0625,-35.0,-1,1.0,0.4769009999995433
691,2,0.2,0.0,35.0,1,1.0,0.457000999999309
692,2,0.2,0.0,35.0,-1,0.0,0.29090099999984886
693,2,0.2,0.0625,35.0,-1,0.0,0.06420099999968443
694,2,0.2,0.25,35.0,1,1.0,0.33790099999987433
695,2,0.2,0.125,35.0,1,1.0,0.4113009999996393
696,2,0.2,0.25,35.0,1,1.0,0.42140100000005987
697,2,0.2,0.0625,35.0,1,1.0,0.4849009999993541
698,2,0.2,0.25,35.0,1,1.0,0.15150099999982558
699,2,0.2,0.0625,35.0,1,1.0,0.5884009999995214
700,2,0.2,0.0625,35.0,1,1.0,0.3323009999999158
701,2,0.2,0.25,35.0,1,1.0,0.3353009999996175
702,2,0.2,0.0625,-35.0,-1,1.0,0.408900999999787
703,2,0.2,1.0,35.0,1,1.0,0.3894009999994523
704,2,0.2,0.125,35.0,1,1.0,0.6090009999998074
705,2,0.2,0.25,35.0,1,1.0,0.3893009999997048
706,2,0.2,0.0,35.0,-1,0.0,0.52920099999983
707,2,0.8,0.0625,-35.0,-1,1.0,0.44960100000025705
708,2,0.8,1.0,35.0,1,1.0,0.5230009999995673
709,2,0.8,1.0,-35.0,-1,1.0,0.3600010000000111
710,2,0.8,0.0625,-35.0,-1,1.0,0.3064009999998234
711,2,0.8,0.125,-35.0,-1,1.0,0.27330099999971935
712,2,0.8,0.125,-35.0,-1,1.0,0.6166009999997186
713,2,0.8,0.0625,-35.0,-1,1.0,0.3668009999996684
714,2,0.8,1.0,-35.0,-1,1.0,0.24360099999967133
715,2,0.8,0.0625,-35.0,-1,1.0,0.25070099999993545
716,2,0.8,0.125,-35.0,-1,1.0,1.9005009999996219
717,2,0.8,1.0,35.0,1,1.0,0.32410099999970043
718,2,0.8,0.0625,-35.0,-1,1.0,0.2141009999995731
719,2,0.8,0.0625,-35.0,-1,1.0,0.28420099999948434
720,2,0.8,1.0,-35.0,-1,1.0,0.21770099999957893
721,2,0.8,0.25,35.0,1,1.0,0.6049009999996997
722,2,0.8,0.125,-35.0,-1,1.0,0.28120099999978265
723,2,0.8,0.25,-35.0,-1,1.0,0.27810100000033344
724,2,0.8,0.125,-35.0,-1,1.0,0.3383009999997739
725,2,0.8,0.25,-35.0,-1,1.0,0.15160100000002785
726,2,0.8,1.0,-35.0,-1,1.0,0.5286009999995258
727,2,0.8,1.0,-35.0,-1,1.0,0.22580099999959202
728,2,0.8,1.0,-35.0,-1,1.0,0.21530099999972663
729,2,0.8,0.125,-35.0,-1,1.0,0.385700999999699
730,2,0.8,0.0,-35.0,-1,1.0,0.625800999999683
731,2,0.8,0.125,-35.0,-1,1.0,0.6062010000000555
732,2,0.8,0.125,-35.0,-1,1.0,0.16640099999995073
733,2,0.8,0.125,-35.0,-1,1.0,0.31600099999968734
734,2,0.8,1.0,-35.0,-1,1.0,0.22620099999994636
735,2,0.8,0.125,-35.0,-1,1.0,0.4196009999996022
736,2,0.8,0.25,35.0,1,1.0,0.32960099999991144
737,2,0.8,0.0625,-35.0,-1,1.0,0.310200999999779
738,2,0.8,0.25,-35.0,-1,1.0,0.3871009999998023
739,2,0.8,0.125,-35.0,-1,1.0,0.4468010000000504
740,2,0.8,0.125,-35.0,-1,1.0,0.4704009999995833
741,2,0.8,0.25,-35.0,-1,1.0,0.24030099999981758
742,2,0.8,0.125,-35.0,-1,1.0,0.4707009999992806
743,2,0.8,0.125,-35.0,-1,1.0,0.2506009999997332
744,2,0.8,0.0625,35.0,1,1.0,2.0775009999997565
745,2,0.8,0.0,35.0,-1,0.0,0.3076009999995222
746,2,0.8,0.0,-35.0,1,0.0,0.5113009999995484
747,2,0.8,0.0625,-35.0,-1,1.0,0.12140099999942322
748,2,0.8,1.0,-35.0,-1,1.0,0.2783009999998285
749,2,0.8,0.0625,-35.0,-1,1.0,0.25530099999969025
750,2,0.2,0.25,35.0,1,1.0,0.2623009999997521
751,2,0.2,0.0625,-35.0,-1,1.0,1.638800999999603
752,2,0.2,0.125,35.0,1,1.0,0.5188009999997121
753,2,0.2,0.25,35.0,1,1.0,0.299200999999357
754,2,0.2,0.125,-35.0,-1,1.0,0.30580099999951926
755,2,0.2,0.125,35.0,1,1.0,0.5264009999996233
756,2,0.2,0.25,35.0,-1,0.0,0.33950099999992744
757,2,0.2,0.0,35.0,-1,0.0,0.44290099999943777
758,2,0.2,0.125,35.0,1,1.0,3.2898009999998976
759,2,0.2,0.125,-35.0,-1,1.0,0.3337010000000191
760,2,0.2,0.0625,35.0,1,1.0,2.43000099999972
761,2,0.2,0.125,35.0,1,1.0,0.5170009999997092
762,2,0.2,0.0625,35.0,1,1.0,0.4475009999996473
763,2,0.2,0.0625,35.0,1,1.0,0.527400999999827
764,2,0.2,0.25,35.0,1,1.0,0.3511009999997441
765,2,0.2,0.0625,35.0,1,1.0,0.47780099999954473
766,2,0.2,0.0,35.0,-1,0.0,2.777600999999777
767,2,0.2,0.125,35.0,1,1.0,0.33800099999962185
768,2,0.2,0.0,-35.0,-1,1.0,0.2882009999998445
769,2,0.2,1.0,35.0,1,1.0,0.46490099999982704
770,2,0.2,0.0625,35.0,1,1.0,1.3182009999995898
771,2,0.2,1.0,35.0,1,1.0,0.3185009999997419
772,2,0.2,0.25,35.0,1,1.0,0.3353009999996175
773,2,0.2,0.125,35.0,1,1.0,1.10870100000011
774,2,0.2,0.0,35.0,1,1.0,1.9054999999993925
775,2,0.2,0.25,35.0,1,1.0,0.4057009999996808
776,2,0.2,0.0625,35.0,1,1.0,3.5595009999997274
777,2,0.2,0.25,35.0,1,1.0,0.36620099999981903
778,2,0.2,0.125,35.0,1,1.0,0.40610100000003513
779,2,0.2,0.125,35.0,1,1.0,1.219600999999784
780,2,0.2,1.0,35.0,1,1.0,0.3733009999996284
781,2,0.2,0.0625,35.0,1,1.0,5.796600999999555
782,2,0.2,0.25,35.0,1,1.0,0.190600999999333
783,2,0.2,0.0,35.0,-1,0.0,0.32740100000000893
784,2,0.2,0.125,35.0,1,1.0,0.1871009999999842
785,2,0.2,1.0,35.0,1,1.0,0.524000999999771
786,2,0.2,0.0625,35.0,1,1.0,2.8177009999999427
787,2,0.2,1.0,35.0,1,1.0,0.4176009999996495
788,2,0.2,0.0625,-35.0,1,0.0,3.4444009999997434
789,2,0.2,0.0625,35.0,1,1.0,2.404801000000134
790,2,0.2,0.25,35.0,1,1.0,0.4115009999995891
791,2,0.2,0.25,35.0,1,1.0,0.3387009999996735
792,2,0.2,1.0,-35.0,-1,1.0,0.3117010000000846
793,2,0.2,0.0625,35.0,1,1.0,0.40180099999997765
794,2,0.2,0.125,35.0,1,1.0,3.405500999999731
795,2,0.2,0.25,35.0,1,1.0,0.289300999999341
796,2,0.2,0.25,35.0,1,1.0,1.7557010000000446
797,2,0.2,0.0625,35.0,1,1.0,0.49930099999983213
798,2,0.2,0.0,-35.0,1,0.0,3.145900999999867
799,2,0.2,0.0625,35.0,1,1.0,2.3530009999994945
800,2,0.2,0.0625,35.0,1,1.0,0.2897010000001501
801,2,0.2,0.0,35.0,-1,0.0,0.38000099999999293
802,2,0.2,0.0625,35.0,1,1.0,0.28320099999973536
803,2,0.2,0.25,35.0,1,1.0,0.42370100000016464
804,2,0.2,0.25,35.0,1,1.0,0.4335009999999784
805,2,0.2,0.0,35.0,-1,0.0,1.4002009999999245
806,2,0.2,0.0,35.0,1,1.0,5.673901000000114
807,2,0.2,0.125,-35.0,-1,1.0,0.34110099999998056
808,2,0.2,1.0,-35.0,-1,1.0,0.5678009999996902
809,2,0.2,0.0625,35.0,1,1.0,3.3311009999997623
810,2,0.2,0.25,-35.0,-1,1.0,1.3082009999998263
811,2,0.2,0.25,35.0,1,1.0,0.275101000000177
812,2,0.2,0.25,35.0,1,1.0,0.41490099999964514
813,2,0.2,0.25,-35.0,-1,1.0,0.2719010000000708
814,2,0.2,0.25,35.0,1,1.0,0.3889009999998052
815,2,0.2,0.125,35.0,1,1.0,0.3289009999998598
816,2,0.2,0.25,35.0,1,1.0,0.29900099999986196
817,2,0.8,1.0,-35.0,-1,1.0,0.5291010000000824
818,2,0.8,0.0625,35.0,1,1.0,1.8625010000000657
819,2,0.8,0.125,35.0,1,1.0,0.22919999999976426
820,2,0.8,0.125,-35.0,1,0.0,0.38930100000015955
821,2,0.8,0.125,-35.0,-1,1.0,0.5799010000000635
822,2,0.8,1.0,-35.0,-1,1.0,0.2664009999998598
823,2,0.8,0.0,-35.0,-1,1.0,1.269901000000118
824,2,0.8,0.0625,35.0,1,1.0,0.5100009999996473
825,2,0.8,0.0,35.0,-1,0.0,0.5770009999996546
826,2,0.8,0.25,-35.0,-1,1.0,0.4037009999997281
827,2,0.8,0.25,-35.0,-1,1.0,0.23080099999924641
828,2,0.8,0.0,-35.0,-1,1.0,0.2872010000000955
829,2,0.8,0.0625,-35.0,1,0.0,0.31760099999974045
830,2,0.8,0.25,-35.0,-1,1.0,0.3309009999998125
831,2,0.8,0.0625,-35.0,-1,1.0,0.08810100000027887
832,2,0.8,0.125,-35.0,-1,1.0,0.7044009999999616
833,2,0.8,0.25,-35.0,-1,1.0,0.5281009999998787
834,2,0.8,1.0,-35.0,-1,1.0,0.29150099999969825
835,2,0.8,1.0,35.0,1,1.0,0.5050009999999929
836,2,0.8,0.25,-35.0,-1,1.0,0.34510099999988597
837,2,0.2,0.0625,35.0,1,1.0,0.3056010000000242
838,2,0.2,1.0,35.0,1,1.0,0.3753009999995811
839,2,0.2,0.25,35.0,1,1.0,0.2854010000000926
840,2,0.2,0.25,35.0,1,1.0,0.22890099999995073
841,2,0.2,0.25,35.0,1,1.0,0.3356009999993148
842,2,0.2,0.25,35.0,1,1.0,0.2825009999996837
843,2,0.2,1.0,35.0,1,1.0,0.4390010000001894
844,2,0.2,0.125,35.0,1,1.0,0.42280099999970844
845,2,0.2,0.25,35.0,1,1.0,0.5361010000001443
846,2,0.2,0.125,35.0,1,1.0,0.41610099999979866
847,2,0.2,0.125,-35.0,-1,1.0,0.24340099999972153
848,2,0.2,1.0,-35.0,-1,1.0,0.1899009999997361
849,2,0.2,0.0,35.0,-1,0.0,0.42990099999997256
850,2,0.2,0.25,35.0,1,1.0,0.3202009999999973
851,2,0.2,0.0625,35.0,-1,0.0,0.5602010000002338
852,2,0.2,0.25,35.0,1,1.0,0.3472009999995862
853,2,0.2,0.25,35.0,1,1.0,0.28740099999959057
854,2,0.2,0.125,35.0,1,1.0,0.4174009999996997
855,2,0.2,1.0,35.0,1,1.0,0.3809009999999944
856,2,0.2,0.0625,35.0,1,1.0,0.4344009999995251
857,2,0.2,0.0625,35.0,-1,0.0,5.408100999999988
858,2,0.2,0.125,35.0,1,1.0,0.4217009999997572
859,2,0.2,0.25,35.0,1,1.0,0.3182010000000446
860,2,0.2,0.0625,35.0,1,1.0,0.5517009999998663
861,2,0.2,0.125,35.0,1,1.0,5.401800999999978
862,2,0.2,0.0625,35.0,1,1.0,0.9522009999996044
863,2,0.8,1.0,35.0,1,1.0,0.32900100000006205
864,2,0.8,0.25,35.0,1,1.0,0.05900100000008024
865,2,0.8,1.0,-35.0,-1,1.0,0.2793010000000322
866,2,0.8,0.25,35.0,1,1.0,0.3662009999993643
867,2,0.8,0.125,-35.0,-1,1.0,0.3063009999991664
868,2,0.8,0.125,35.0,-1,0.0,0.2227010000001428
869,2,0.8,0.25,35.0,1,1.0,3.7664010000003145
870,2,0.8,0.25,-35.0,-1,1.0,0.4233009999998103
871,2,0.8,1.0,-35.0,-1,1.0,0.22030099999983577
872,2,0.8,0.125,35.0,1,1.0,0.31700099999989106
873,2,0.8,0.0625,-35.0,1,0.0,0.17030099999965387
874,2,0.8,0.125,-35.0,-1,1.0,0.6674010000001545
875,2,0.8,0.25,-35.0,-1,1.0,0.23740099999986342
876,2,0.8,0.125,-35.0,-1,1.0,0.3273009999993519
877,2,0.8,0.0,-35.0,1,0.0,0.4476009999998496
878,2,0.8,0.0625,-35.0,-1,1.0,2.8444009999998343
879,2,0.8,1.0,-35.0,-1,1.0,0.041300999999748456
880,2,0.8,0.25,-35.0,-1,1.0,0.9880009999997128
881,2,0.8,0.0625,-35.0,-1,1.0,0.2552009999999427
882,2,0.8,0.0625,35.0,1,1.0,1.0250009999999747
883,2,0.8,0.125,35.0,1,1.0,0.38540100000000166
884,2,0.8,0.0,-35.0,1,0.0,1.0154010000001108
885,2,0.8,0.0625,-35.0,1,0.0,0.238800999999512
886,2,0.8,0.0,-35.0,1,0.0,0.3624009999998634
887,2,0.8,1.0,-35.0,-1,1.0,0.19260099999974045
888,2,0.8,0.0625,-35.0,-1,1.0,2.376600999999482
889,2,0.8,0.0625,-35.0,-1,1.0,0.5827009999998154
890,2,0.8,0.0625,-35.0,-1,1.0,0.33650100000022576
891,2,0.8,1.0,-35.0,-1,1.0,0.3199009999998452
892,2,0.8,0.125,-35.0,-1,1.0,0.41980100000000675
893,2,0.8,0.25,-35.0,-1,1.0,0.5834010000003218
894,2,0.8,0.0625,-35.0,-1,1.0,1.4138009999996939
895,2,0.8,1.0,35.0,1,1.0,2.273501000000124
896,2,0.8,0.0625,-35.0,-1,1.0,0.37390099999993254
897,2,0.8,0.125,-35.0,-1,1.0,5.060700999999881
898,2,0.8,1.0,-35.0,-1,1.0,0.24780099999952654
899,2,0.8,0.0625,-35.0,-1,1.0,1.9311009999996713
900,2,0.8,0.0625,35.0,1,1.0,0.364900999999918
901,2,0.8,0.125,-35.0,-1,1.0,0.8482009999993352
902,2,0.8,0.0625,-35.0,1,0.0,0.21160099999951854
903,2,0.8,0.0625,-35.0,-1,1.0,0.3986009999998714
904,2,0.8,0.25,-35.0,-1,1.0,0.43180100000017774
905,2,0.8,0.125,-35.0,-1,1.0,1.3456009999999878
906,2,0.8,0.25,-35.0,-1,1.0,0.40560099999993326
907,2,0.8,0.125,-35.0,-1,1.0,0.5523009999997157
908,2,0.8,1.0,-35.0,-1,1.0,0.46560100000033344
909,2,0.8,0.0625,35.0,1,1.0,2.555800999999974
910,2,0.8,0.25,-35.0,-1,1.0,0.41950100000030943
911,2,0.2,0.0625,-35.0,-1,1.0,0.49280099999987215
912,2,0.2,0.0625,35.0,1,1.0,0.6667010000001028
913,2,0.2,0.0625,35.0,1,1.0,2.5731009999994967
914,2,0.2,0.25,35.0,1,1.0,0.4238009999994574
915,2,0.2,0.0625,35.0,1,1.0,0.3734009999998307
916,2,0.2,0.25,35.0,1,1.0,2.7337009999996553
917,2,0.2,1.0,35.0,1,1.0,0.3307009999998627
918,2,0.2,0.125,35.0,-1,0.0,3.4077010000000882
919,2,0.2,0.25,35.0,1,1.0,0.4044010000002345
920,2,0.2,1.0,35.0,1,1.0,0.3548009999999522
921,2,0.2,0.125,35.0,1,1.0,0.40800099999978556
922,2,0.2,0.25,35.0,1,1.0,0.3714009999994232
923,2,0.2,0.0,35.0,1,1.0,0.31820099999958984
924,2,0.2,0.125,35.0,1,1.0,0.30830099999957383
925,2,0.2,0.25,35.0,1,1.0,0.27510099999972226
926,2,0.2,0.25,35.0,1,1.0,0.38890100000025996
927,2,0.2,0.25,35.0,1,1.0,0.7590009999998983
928,2,0.2,1.0,-35.0,-1,1.0,0.3025009999996655
929,2,0.2,1.0,-35.0,-1,1.0,0.23880099999996673
930,2,0.2,0.125,35.0,1,1.0,0.12890099999958693
931,2,0.2,0.0,35.0,1,1.0,3.8723009999998794
932,2,0.2,0.125,-35.0,-1,1.0,0.1693009999999049
933,2,0.2,0.125,35.0,1,1.0,0.41610099999979866
934,2,0.2,1.0,35.0,1,1.0,0.32990099999960876
935,2,0.8,1.0,-35.0,-1,1.0,0.31320099999993545
936,2,0.8,0.0625,-35.0,-1,1.0,0.24300099999982194
937,2,0.8,0.25,35.0,1,1.0,0.75320099999999
938,2,0.8,0.25,-35.0,-1,1.0,0.4700009999996837
939,2,0.8,0.25,-35.0,-1,1.0,0.22340099999973972
940,2,0.8,0.0625,-35.0,1,0.0,3.120300999999472
941,2,0.8,0.0,-35.0,1,0.0,5.3804009999998925
942,2,0.8,0.0625,-35.0,-1,1.0,0.3343009999998685
943,2,0.8,0.0625,35.0,1,1.0,0.6543010000000322
944,2,0.8,0.25,-35.0,-1,1.0,0.3877009999996517
945,2,0.8,0.0,-35.0,-1,1.0,2.7345009999994545
946,2,0.8,0.25,-35.0,-1,1.0,0.22130099999958475
947,2,0.8,0.25,-35.0,-1,1.0,0.2582009999996444
948,2,0.8,0.25,-35.0,-1,1.0,0.3484009999997397
949,2,0.8,0.0,-35.0,-1,1.0,1.4320009999996728
950,2,0.8,0.0625,-35.0,-1,1.0,0.47850100000005114
951,2,0.8,0.0625,-35.0,-1,1.0,0.3489009999998416
952,2,0.8,0.25,-35.0,-1,1.0,0.23900099999946178
953,2,0.8,0.0,35.0,-1,0.0,0.36300100000016755
954,2,0.8,1.0,-35.0,-1,1.0,0.389100999999755
955,2,0.8,0.0625,-35.0,-1,1.0,0.5461009999999078
956,2,0.8,1.0,-35.0,-1,1.0,0.2997009999994589
957,2,0.8,0.0625,-35.0,-1,1.0,0.6495009999998729
958,2,0.8,0.25,-35.0,-1,1.0,0.18640099999993254
959,2,0.8,0.125,-35.0,-1,1.0,0.40000099999952
960,2,0.8,0.0625,-35.0,-1,1.0,0.32330099999990125
961,2,0.8,0.0625,35.0,1,1.0,0.4334009999997761
962,2,0.8,0.25,-35.0,-1,1.0,0.21700099999952727
963,2,0.8,1.0,-35.0,-1,1.0,0.1702009999994516
964,2,0.8,1.0,35.0,1,1.0,0.5542009999994661
965,2,0.8,0.125,-35.0,1,0.0,0.5706009999998969
966,2,0.8,0.0625,-35.0,-1,1.0,0.590701000000081
967,2,0.8,0.0,-35.0,-1,1.0,1.067700999999488
968,2,0.8,0.0625,-35.0,-1,1.0,0.6711009999999078
969,2,0.8,1.0,-35.0,-1,1.0,0.22150099999953454
970,2,0.8,0.25,-35.0,-1,1.0,0.23790099999951053
971,2,0.8,0.0625,-35.0,-1,1.0,1.0513009999999667
972,2,0.8,0.0625,-35.0,-1,1.0,0.2884009999997943
973,2,0.8,0.25,-35.0,-1,1.0,0.30510099999992235
974,2,0.8,1.0,-35.0,-1,1.0,0.41860099999985323
975,2,0.8,1.0,35.0,1,1.0,0.385700999999699
976,2,0.8,0.0,-35.0,1,0.0,0.4354009999997288
977,2,0.8,0.125,-35.0,1,0.0,0.17240099999980885
978,2,0.8,0.25,-35.0,-1,1.0,0.28580099999953745
979,2,0.8,0.25,-35.0,-1,1.0,0.24250099999972008
980,2,0.8,0.25,35.0,1,1.0,0.7162009999997281
981,2,0.8,0.25,-35.0,-1,1.0,0.3027009999996153
982,2,0.8,1.0,-35.0,-1,1.0,0.47320099999978993
983,2,0.8,0.0625,-35.0,-1,1.0,0.39630099999976665
984,2,0.8,0.25,35.0,1,1.0,0.41980100000000675
985,2,0.8,1.0,35.0,1,1.0,0.33660099999951854
986,2,0.8,0.0,-35.0,-1,1.0,0.8067009999995207
987,2,0.8,0.125,-35.0,-1,1.0,0.5303009999993265
988,2,0.8,1.0,-35.0,-1,1.0,0.46360099999947124
989,2,0.8,1.0,-35.0,-1,1.0,0.5037010000000919
990,2,0.8,0.0625,-35.0,-1,1.0,0.11720100000002276
991,2,0.8,0.0625,-35.0,-1,1.0,0.5073010000000977
992,2,0.8,0.25,35.0,1,1.0,0.5177009999997608
993,2,0.8,0.25,-35.0,-1,1.0,0.24440099999992526
994,2,0.8,0.125,35.0,1,1.0,0.288300999999592
995,2,0.8,0.125,-35.0,-1,1.0,0.6049009999996997
996,2,0.8,0.125,35.0,1,1.0,0.48830099999986487
997,2,0.8,1.0,-35.0,-1,1.0,0.4554009999997106
998,2,0.8,0.25,35.0,1,1.0,0.6324009999998452
999,2,0.8,1.0,35.0,1,1.0,0.33880100000033053
1000,2,0.8,0.125,-35.0,-1,1.0,0.292500999999902
1001,2,0.8,0.125,-35.0,-1,1.0,0.2593010000000504
1002,2,0.8,1.0,-35.0,-1,1.0,0.4162009999995462
1003,2,0.8,0.125,-35.0,-1,1.0,0.25940099999979793
1004,2,0.2,0.25,35.0,-1,0.0,0.25640100000009625
1005,2,0.2,0.0625,35.0,-1,0.0,0.43640099999993254
1006,2,0.2,0.25,35.0,1,1.0,0.3064009999998234
1007,2,0.2,0.25,-35.0,-1,1.0,0.253400000000056
1008,2,0.2,0.125,35.0,1,1.0,0.5566009999997732
1009,2,0.2,0.25,35.0,1,1.0,0.3904009999992013
1010,2,0.2,0.0625,35.0,-1,0.0,1.9674009999994269
1011,2,0.2,0.0625,35.0,1,1.0,0.4006009999998241
1012,2,0.2,0.125,-35.0,-1,1.0,0.35730100000000675
1013,2,0.2,0.25,35.0,1,1.0,0.3541009999994458
1014,2,0.2,0.25,-35.0,-1,1.0,0.29090099999984886
1015,2,0.2,0.0,-35.0,-1,1.0,2.1845009999997274
1016,2,0.2,1.0,-35.0,-1,1.0,0.4116009999997914
1017,2,0.2,0.0625,35.0,-1,0.0,0.5848009999999704
1018,2,0.2,1.0,35.0,1,1.0,0.6715009999998074
1019,2,0.2,0.25,-35.0,-1,1.0,0.36180100000001403
1020,2,0.2,0.125,35.0,1,1.0,10.58849999999984
1021,2,0.2,0.25,-35.0,-1,1.0,0.23230100000000675
1022,2,0.2,0.0625,35.0,1,1.0,6.792601000000104
1023,2,0.2,1.0,35.0,1,1.0,0.38620099999980084
1024,2,0.2,0.125,-35.0,-1,1.0,0.3796009999996386
1025,2,0.2,0.25,35.0,1,1.0,7.026600999999573
1026,2,0.2,0.0625,35.0,1,1.0,18.8236009999996
1027,2,0.2,0.125,35.0,-1,0.0,1.1843009999997776
1028,2,0.2,0.125,35.0,1,1.0,0.42440099999976155
1029,2,0.2,0.125,35.0,-1,0.0,6.02460099999962
1030,2,0.2,0.25,35.0,-1,0.0,9.51180099999965
1031,2,0.2,0.0,-35.0,-1,1.0,7.175500999999713
1032,2,0.2,0.125,-35.0,-1,1.0,0.3324009999996633
1033,2,0.2,1.0,-35.0,-1,1.0,0.23260099999970407
1034,2,0.2,0.25,35.0,1,1.0,21.54940099999976
1035,2,0.2,0.0,35.0,1,1.0,5.5908009999998285
1036,2,0.2,1.0,35.0,1,1.0,0.6840009999991707
1037,2,0.2,0.125,35.0,-1,0.0,8.46080099999972
1038,2,0.2,0.0,35.0,-1,0.0,11.24440099999947
1039,2,0.2,0.0625,-35.0,-1,1.0,9.138601000000108
1040,2,0.2,1.0,35.0,1,1.0,8.49230099999977
1041,2,0.8,0.125,-35.0,-1,1.0,0.3660009999994145
1042,2,0.8,0.125,35.0,1,1.0,1.4794010000000526
1043,2,0.8,0.25,-35.0,-1,1.0,0.1268009999998867
1044,2,0.8,0.0,-35.0,-1,1.0,1.1797010000000228
1045,2,0.8,0.25,35.0,1,1.0,3.507000999999491
1046,2,0.8,0.0625,-35.0,-1,1.0,0.45360100000016246
1047,2,0.8,1.0,35.0,1,1.0,0.3436009999995804
1048,2,0.8,0.0625,-35.0,-1,1.0,0.30350099999986924
1049,2,0.8,1.0,-35.0,-1,1.0,0.2437009999998736
1050,2,0.8,0.0625,35.0,-1,0.0,0.6040009999996983
1051,2,0.8,0.125,35.0,1,1.0,0.5040009999997892
1052,2,0.8,0.25,-35.0,-1,1.0,0.3608009999998103
1053,2,0.8,0.0625,-35.0,-1,1.0,1.1380009999998038
1054,2,0.8,0.125,-35.0,-1,1.0,0.484400999999707
1055,2,0.8,0.0625,-35.0,-1,1.0,0.6618010000001959
1056,2,0.8,0.0625,-35.0,-1,1.0,0.39800100000002203
1057,2,0.8,0.0625,-35.0,-1,1.0,0.6449009999996633
1058,2,0.8,1.0,-35.0,-1,1.0,0.30840000000034706
1059,2,0.8,0.0,35.0,-1,0.0,0.6584009999996852
1060,2,0.8,0.0625,35.0,1,1.0,0.49560099999962404
1061,2,0.8,0.125,-35.0,-1,1.0,0.4087009999998372
1062,2,0.8,1.0,-35.0,-1,1.0,0.4655009999996764
1063,2,0.8,0.125,-35.0,-1,1.0,0.26900099999966187
1064,2,0.2,0.25,35.0,1,1.0,0.35300099999994927
1065,2,0.2,0.0625,35.0,-1,0.0,0.21600099999932354
1066,2,0.2,0.0625,35.0,-1,0.0,0.28260099999988597
