trial_num,session_num,stim_probability_left,contrast,position,response_choice,trial_correct,reaction_time
1,7,0.5,0.5,-35.0,1,0.0,0.8824000000000001
2,7,1.0,0.5,-35.0,-1,1.0,10.316299999999998
3,7,0.5,0.5,-35.0,-1,1.0,0.6003000000000007
4,7,0.5,0.5,-35.0,-1,1.0,0.24519999999999698
5,7,0.5,1.0,-35.0,-1,1.0,0.7776999999999994
6,7,0.5,1.0,35.0,1,1.0,0.4427000000000021
7,7,0.5,0.5,35.0,1,1.0,0.8724999999999987
8,7,0.5,1.0,-35.0,1,0.0,4.900100000000002
9,7,0.6,1.0,-35.0,1,0.0,0.37409999999999144
10,7,0.6,1.0,-35.0,-1,1.0,0.5523999999999987
11,7,0.5,1.0,35.0,1,1.0,0.5685999999999964
12,7,0.5,1.0,35.0,1,1.0,1.4198999999999913
13,7,0.5,0.5,35.0,1,1.0,0.5405000000000015
14,7,0.5,0.5,-35.0,-1,1.0,0.6058999999999983
15,7,0.5,0.5,35.0,1,1.0,0.4994000000000014
16,7,0.5,0.5,-35.0,-1,1.0,1.112400000000008
17,7,0.5,0.5,-35.0,-1,1.0,1.4502000000000095
18,7,0.5,0.5,35.0,1,1.0,0.3266000000000133
19,7,0.5,1.0,35.0,1,1.0,0.5561000000000149
20,7,0.5,0.5,35.0,1,1.0,0.28000000000001535
21,7,0.5,0.5,-35.0,-1,1.0,1.0463000000000022
22,7,0.5,1.0,-35.0,1,0.0,0.31640000000000157
23,7,0.6,1.0,-35.0,-1,1.0,0.29300000000000637
24,7,0.5,0.5,-35.0,1,0.0,0.29650000000000887
25,7,0.6,0.5,35.0,1,1.0,0.267399999999995
26,7,0.5,1.0,35.0,1,1.0,0.5307000000000102
27,7,0.5,0.5,35.0,1,1.0,0.49560000000001025
28,7,0.5,0.5,-35.0,-1,1.0,1.6501000000000232
29,7,0.5,1.0,-35.0,-1,1.0,0.5520999999999958
30,7,0.5,1.0,-35.0,-1,1.0,0.6979999999999933
31,7,0.5,1.0,-35.0,-1,1.0,0.8385999999999996
32,7,0.5,0.5,35.0,1,1.0,0.24510000000002208
33,7,0.5,1.0,-35.0,-1,1.0,4.853099999999998
34,7,0.5,1.0,-35.0,-1,1.0,0.2545000000000073
35,7,0.5,0.5,-35.0,-1,1.0,4.172500000000014
36,7,0.5,1.0,35.0,1,1.0,0.28449999999998
37,7,0.5,0.5,35.0,1,1.0,0.24449999999998795
38,7,0.5,1.0,35.0,1,1.0,0.49920000000000186
39,7,0.5,1.0,35.0,1,1.0,0.8680999999999983
40,7,0.5,0.5,-35.0,-1,1.0,1.2990999999999815
41,7,0.5,1.0,-35.0,-1,1.0,0.5257999999999754
42,7,0.5,0.5,-35.0,-1,1.0,0.5514999999999759
43,7,0.5,0.5,35.0,1,1.0,0.22719999999998208
44,7,0.5,0.5,35.0,1,1.0,0.23269999999999413
45,7,0.5,0.5,35.0,1,1.0,0.3453999999999837
46,7,0.5,1.0,-35.0,-1,1.0,0.6033999999999935
47,7,0.5,0.5,-35.0,-1,1.0,0.6207999999999743
48,7,0.5,1.0,35.0,1,1.0,1.147199999999998
49,7,0.5,1.0,-35.0,1,0.0,0.29709999999997194
50,7,0.5,1.0,35.0,1,1.0,0.39709999999996626
51,7,0.5,0.5,35.0,1,1.0,0.32979999999997744
52,7,0.5,1.0,-35.0,1,0.0,0.2566999999999666
53,7,0.8,1.0,-35.0,-1,1.0,0.40169999999997685
54,7,0.5,1.0,-35.0,-1,1.0,0.3962999999999681
55,7,0.5,1.0,-35.0,-1,1.0,2.6234999999999786
56,7,0.5,0.5,35.0,1,1.0,0.3312999999999988
57,7,0.5,1.0,-35.0,1,0.0,0.30620000000001824
58,7,0.7,1.0,35.0,1,1.0,0.3692999999999813
59,7,0.5,0.5,35.0,1,1.0,0.2032999999999845
60,7,0.5,0.5,35.0,1,1.0,0.2476999999999805
61,7,0.5,0.5,35.0,1,1.0,0.2653999999999712
62,7,0.5,0.5,35.0,1,1.0,0.48730000000000473
63,7,0.5,1.0,35.0,1,1.0,0.37930000000000064
64,7,0.5,0.5,35.0,1,1.0,0.5930999999999642
65,7,0.5,1.0,35.0,1,1.0,0.24330000000000496
66,7,0.5,1.0,35.0,1,1.0,0.2313999999999794
67,7,0.5,0.5,-35.0,-1,1.0,0.35369999999997503
68,7,0.5,0.5,35.0,1,1.0,0.380299999999977
69,7,0.5,1.0,35.0,1,1.0,0.9043000000000347
70,7,0.5,0.5,35.0,1,1.0,0.2685000000000173
71,7,0.5,1.0,-35.0,1,0.0,0.1822999999999979
72,7,0.9,1.0,-35.0,-1,1.0,0.19950000000000045
73,7,0.5,0.5,-35.0,1,0.0,0.23329999999998563
74,7,0.8,0.5,-35.0,-1,1.0,0.21280000000001564
75,7,0.5,1.0,-35.0,-1,1.0,1.6754000000000815
76,7,0.5,1.0,35.0,1,1.0,0.21030000000001792
77,7,0.5,1.0,35.0,1,1.0,0.24240000000003192
78,7,0.5,0.5,35.0,1,1.0,0.2195000000000391
79,7,0.5,0.5,-35.0,-1,1.0,0.8436000000000377
80,7,0.5,1.0,35.0,1,1.0,0.3704999999999927
81,7,0.5,1.0,35.0,1,1.0,0.4923999999999751
82,7,0.5,1.0,-35.0,-1,1.0,0.5774000000000115
83,7,0.5,0.5,-35.0,-1,1.0,0.768600000000049
84,7,0.5,0.5,-35.0,-1,1.0,0.7094000000000165
85,7,0.5,0.5,-35.0,-1,1.0,0.6215000000000259
86,7,0.5,0.5,35.0,1,1.0,0.5957000000000221
87,7,0.5,1.0,-35.0,-1,1.0,0.4764000000000692
88,7,0.5,0.5,35.0,1,1.0,0.39740000000000464
89,7,0.5,1.0,-35.0,1,0.0,0.3885999999999967
90,7,0.5,1.0,-35.0,1,0.0,0.44760000000002265
91,7,0.5,1.0,-35.0,-1,1.0,1.6735000000000468
92,7,0.5,0.5,-35.0,-1,1.0,0.6105000000000587
93,7,0.5,1.0,35.0,1,1.0,0.2826000000000022
94,7,0.5,0.5,-35.0,-1,1.0,4.296999999999969
95,7,0.5,1.0,35.0,1,1.0,0.3556000000000381
96,7,0.5,0.5,-35.0,-1,1.0,0.7264999999999873
97,7,0.5,1.0,-35.0,-1,1.0,0.45870000000002165
98,7,0.5,0.5,35.0,1,1.0,0.2588000000000079
99,7,0.5,1.0,35.0,1,1.0,0.322400000000016
100,7,0.5,0.5,35.0,1,1.0,0.29710000000000036
101,7,0.5,1.0,35.0,1,1.0,0.23250000000007276
102,7,0.5,1.0,-35.0,-1,1.0,1.2087000000000216
103,7,0.5,1.0,35.0,1,1.0,0.23220000000009122
104,7,0.5,1.0,-35.0,1,0.0,0.31459999999998445
105,7,0.7,1.0,-35.0,-1,1.0,3.629600000000039
106,7,0.5,1.0,-35.0,1,0.0,0.7576999999999998
107,7,0.7,1.0,35.0,1,1.0,0.3661999999999921
108,7,0.5,0.5,-35.0,1,0.0,0.23200000000002774
109,7,0.8,0.5,-35.0,-1,1.0,0.516900000000021
110,7,0.5,0.5,-35.0,-1,1.0,0.5955000000000723
111,7,0.5,0.5,-35.0,-1,1.0,0.4030999999999949
112,7,0.5,0.5,-35.0,-1,1.0,0.4491999999999621
113,7,0.5,1.0,35.0,1,1.0,0.2576999999999998
114,7,0.5,0.5,-35.0,1,0.0,0.3458999999999719
115,7,0.5,0.5,-35.0,-1,1.0,1.1919000000000324
116,7,0.5,0.5,35.0,1,1.0,0.5176000000000158
117,7,0.5,1.0,-35.0,-1,1.0,0.9769999999999754
118,7,0.5,1.0,35.0,1,1.0,0.08190000000001874
119,7,0.5,1.0,35.0,1,1.0,0.2177000000000362
120,7,0.5,0.5,-35.0,-1,1.0,0.4977999999999838
121,7,0.5,1.0,-35.0,-1,1.0,1.4816999999999894
122,7,0.5,1.0,-35.0,-1,1.0,0.4777000000000271
123,7,0.5,0.5,35.0,1,1.0,0.25569999999999027
124,7,0.5,1.0,35.0,-1,0.0,6.2543999999999755
125,7,0.4,1.0,35.0,-1,0.0,0.8780000000000427
126,7,0.4,1.0,-35.0,-1,1.0,0.8602999999999952
127,7,0.5,1.0,35.0,1,1.0,0.2927000000000817
128,7,0.5,1.0,35.0,1,1.0,0.48770000000007485
129,7,0.5,1.0,35.0,1,1.0,0.5805000000000291
130,7,0.5,0.5,35.0,1,1.0,0.4536000000000513
131,7,0.5,1.0,-35.0,-1,1.0,0.7267000000000507
132,7,0.5,0.5,35.0,1,1.0,0.03200000000003911
133,7,0.5,1.0,-35.0,-1,1.0,0.3126999999999498
134,7,0.5,0.5,35.0,1,1.0,0.2875000000000796
135,7,0.5,0.5,35.0,1,1.0,0.42610000000001946
136,7,0.5,0.5,-35.0,-1,1.0,0.529700000000048
137,7,0.5,1.0,-35.0,-1,1.0,0.3742000000000303
138,7,0.5,1.0,-35.0,-1,1.0,0.5198000000000889
139,7,0.5,1.0,-35.0,-1,1.0,0.4017000000000621
140,7,0.5,0.5,35.0,1,1.0,0.4169000000000551
141,7,0.5,1.0,-35.0,-1,1.0,1.4298000000000002
142,7,0.5,1.0,35.0,1,1.0,0.5415000000001555
143,7,0.5,1.0,35.0,1,1.0,0.1938000000000102
144,7,0.5,1.0,35.0,1,1.0,0.48119999999994434
145,7,0.5,0.5,35.0,1,1.0,0.20690000000001874
146,7,0.5,0.5,-35.0,-1,1.0,2.4276000000000977
147,7,0.5,0.5,-35.0,-1,1.0,3.009900000000016
148,7,0.5,1.0,35.0,-1,0.0,0.20879999999988286
149,7,0.5,1.0,35.0,1,1.0,0.3583000000000993
150,7,0.5,1.0,35.0,1,1.0,0.21900000000005093
151,7,0.5,1.0,-35.0,-1,1.0,0.37200000000007094
152,7,0.5,1.0,35.0,-1,0.0,0.13859999999999673
153,7,0.5,1.0,35.0,-1,0.0,0.5858999999999241
154,7,0.4,1.0,-35.0,-1,1.0,0.3993999999999005
155,7,0.5,0.5,-35.0,-1,1.0,0.25280000000009295
156,7,0.5,0.5,35.0,1,1.0,0.4616000000000895
157,7,0.5,1.0,-35.0,1,0.0,0.2979000000000269
158,7,0.4,1.0,-35.0,-1,1.0,0.6179000000000769
159,7,0.5,1.0,-35.0,1,0.0,0.3038999999999987
160,7,0.4,1.0,35.0,-1,0.0,0.8310999999999922
161,7,0.3,1.0,-35.0,-1,1.0,0.4601999999999862
162,7,0.5,1.0,-35.0,1,0.0,0.35599999999999454
163,7,0.4,1.0,35.0,-1,0.0,0.6800999999999249
164,7,0.4,1.0,-35.0,-1,1.0,0.332300000000032
165,7,0.5,1.0,35.0,1,1.0,0.4738999999999578
166,7,0.5,0.5,35.0,1,1.0,0.24789899999996123
167,7,0.5,0.5,35.0,1,1.0,0.6396000000000868
168,7,0.5,1.0,35.0,1,1.0,0.2057999999999538
169,7,0.5,0.5,35.0,1,1.0,0.5000999999999749
170,7,0.5,0.5,-35.0,-1,1.0,15.474300000000085
171,7,0.5,1.0,35.0,1,1.0,0.35400000000004184
172,7,0.5,0.5,-35.0,-1,1.0,1.6945000000000618
173,7,0.5,1.0,-35.0,-1,1.0,0.3630000000000564
174,7,0.5,1.0,35.0,1,1.0,0.41630000000009204
175,7,0.5,0.5,-35.0,1,0.0,0.27929999999992106
176,7,0.7,0.5,-35.0,-1,1.0,3.116899999999987
177,7,0.5,0.5,-35.0,-1,1.0,0.4641000000000304
178,7,0.5,0.5,-35.0,-1,1.0,0.9741000000000213
179,7,0.5,0.5,35.0,1,1.0,0.3382000000001426
180,7,0.5,1.0,-35.0,-1,1.0,1.134800000000041
181,7,0.5,1.0,-35.0,1,0.0,0.29379999999991924
182,7,0.4,1.0,35.0,1,1.0,0.2776000000001204
183,7,0.5,0.5,-35.0,-1,1.0,0.49459999999999127
184,7,0.5,0.5,-35.0,-1,1.0,0.5838000000001102
185,7,0.5,0.5,35.0,1,1.0,0.5821000000000822
186,7,0.5,1.0,35.0,1,1.0,1.1210999999999558
187,7,0.5,1.0,35.0,1,1.0,0.21629999999993288
188,7,0.5,1.0,35.0,1,1.0,0.5680999999999585
189,7,0.5,1.0,-35.0,-1,1.0,0.6266000000000531
190,7,0.5,1.0,-35.0,-1,1.0,0.3745999999999867
191,7,0.5,1.0,-35.0,1,0.0,0.2620990000000347
192,7,0.6,1.0,-35.0,-1,1.0,0.7101999999999862
193,7,0.5,0.5,-35.0,1,0.0,0.3844000000001415
194,7,0.6,0.5,35.0,1,1.0,0.5204000000001088
195,7,0.5,1.0,35.0,-1,0.0,1.4977999999999838
196,7,0.6,1.0,35.0,1,1.0,0.5238999999999123
197,7,0.5,1.0,-35.0,-1,1.0,0.40849900000000616
198,7,0.5,0.5,35.0,1,1.0,0.26729999999997744
199,7,0.5,0.5,35.0,1,1.0,0.240099999999984
200,7,0.5,1.0,35.0,1,1.0,0.17020000000002256
201,7,0.5,0.5,35.0,1,1.0,0.8752000000000635
202,7,0.5,1.0,-35.0,1,0.0,0.988700000000108
203,7,0.8,1.0,-35.0,-1,1.0,0.5194999999999936
204,7,0.5,1.0,-35.0,-1,1.0,0.6372000000000071
205,7,0.5,1.0,35.0,1,1.0,0.19619999999997617
206,7,0.5,0.5,-35.0,1,0.0,0.14459999999996853
207,7,0.7,0.5,-35.0,-1,1.0,0.25319999999999254
208,7,0.5,1.0,35.0,1,1.0,0.3503000000000611
209,7,0.5,0.5,35.0,1,1.0,0.4995999999999867
210,7,0.5,0.5,35.0,1,1.0,1.130899999999997
211,7,0.5,0.5,-35.0,1,0.0,0.4085000000001173
212,7,0.7,0.5,-35.0,-1,1.0,0.5787000000000262
213,7,0.5,1.0,-35.0,-1,1.0,0.4612999999999374
214,7,0.5,1.0,-35.0,-1,1.0,0.5776999999999362
215,7,0.5,0.5,35.0,1,1.0,0.26450000000011187
216,7,0.5,1.0,35.0,-1,0.0,0.20870000000002165
217,7,0.5,1.0,-35.0,-1,1.0,0.46230000000002747
218,7,0.5,1.0,-35.0,1,0.0,0.20330000000001291
219,7,0.5,1.0,-35.0,-1,1.0,0.3546000000000049
220,7,0.5,1.0,-35.0,-1,1.0,3.3186000000000604
221,7,0.5,1.0,-35.0,-1,1.0,2.1514000000000806
222,7,0.5,0.5,-35.0,-1,1.0,0.3565999999999576
223,7,0.5,1.0,35.0,1,1.0,0.2617999999999938
224,7,0.5,0.5,35.0,1,1.0,0.24220000000002528
225,7,0.5,0.5,35.0,1,1.0,0.24130000000002383
226,7,0.5,1.0,-35.0,-1,1.0,1.1026000000000522
227,7,0.5,0.5,35.0,1,1.0,1.3287000000000262
228,7,0.5,0.5,35.0,1,1.0,2.2963999999999487
229,7,0.5,1.0,-35.0,-1,1.0,0.7776999999999816
230,7,0.5,1.0,-35.0,-1,1.0,0.40039999999999054
231,7,0.5,1.0,35.0,1,1.0,0.43239999999991596
232,7,0.5,1.0,35.0,1,1.0,1.0265000000000555
233,7,0.5,0.5,35.0,1,1.0,0.2959000000000742
234,7,0.5,0.5,35.0,1,1.0,0.20250000000010004
235,7,0.5,0.5,35.0,1,1.0,0.22540000000003602
236,7,0.5,0.5,-35.0,-1,1.0,0.5247000000000526
237,7,0.5,0.5,35.0,1,1.0,2.8255000000000337
238,7,0.5,1.0,35.0,1,1.0,0.272199999999998
239,7,0.5,0.5,35.0,1,1.0,0.3952999999999065
240,7,0.5,1.0,-35.0,-1,1.0,0.4070000000000391
241,7,0.5,1.0,-35.0,-1,1.0,2.188600000000065
242,7,0.5,1.0,35.0,1,1.0,0.2095000000000482
243,7,0.5,1.0,-35.0,-1,1.0,0.8185000000000855
244,7,0.5,0.5,35.0,1,1.0,0.4075000000000273
245,7,0.5,0.5,35.0,1,1.0,0.4238999999998896
246,7,0.5,1.0,35.0,-1,0.0,0.10350000000005366
247,7,0.6,1.0,-35.0,1,0.0,3.784800000000132
248,7,0.6,1.0,-35.0,-1,1.0,0.23460000000000036
249,7,0.5,1.0,-35.0,-1,1.0,0.2898999999999887
250,7,0.5,1.0,-35.0,-1,1.0,0.4955999999999676
251,7,0.5,1.0,35.0,1,1.0,0.20410000000003947
252,7,0.5,0.5,-35.0,-1,1.0,0.6241000000001122
253,7,0.5,0.5,35.0,1,1.0,0.4796000000000049
254,7,0.5,0.5,35.0,1,1.0,1.0766000000000986
255,7,0.5,0.5,35.0,1,1.0,0.42610000000001946
256,7,0.5,1.0,-35.0,-1,1.0,0.6820000000000164
257,7,0.5,0.5,-35.0,1,0.0,0.2886000000000877
258,7,0.5,0.5,35.0,-1,0.0,0.7157000000000835
259,7,0.5,0.5,-35.0,-1,1.0,0.43509999999992033
260,7,0.5,1.0,35.0,1,1.0,0.3386000000000422
261,7,0.5,0.5,35.0,1,1.0,1.9302989999999909
262,7,0.5,1.0,-35.0,-1,1.0,0.6413000000000011
263,7,0.5,0.5,-35.0,-1,1.0,0.6245999999999867
264,7,0.5,1.0,35.0,1,1.0,0.21510000000000673
265,7,0.5,0.5,35.0,1,1.0,0.38509899999996833
266,7,0.5,1.0,35.0,1,1.0,0.2918000000000802
267,7,0.5,0.5,35.0,1,1.0,1.8856999999999289
268,7,0.5,1.0,35.0,1,1.0,1.8395000000000437
269,7,0.5,1.0,-35.0,-1,1.0,0.9197000000001481
270,7,0.5,0.5,35.0,1,1.0,0.15619900000001508
271,7,0.5,1.0,35.0,1,1.0,0.4556999999999789
272,7,0.5,1.0,35.0,1,1.0,0.19910000000004402
273,7,0.5,0.5,35.0,1,1.0,0.22600000000011278
274,7,0.5,1.0,35.0,1,1.0,0.28899999999998727
275,7,0.5,1.0,35.0,1,1.0,0.3161999999999807
276,7,0.5,1.0,35.0,1,1.0,0.5461999999999989
277,7,0.5,1.0,35.0,1,1.0,2.9566999999999553
278,7,0.5,1.0,35.0,1,1.0,0.34629999999992833
279,7,0.5,0.5,35.0,1,1.0,0.44669999999996435
280,7,0.5,0.5,35.0,1,1.0,0.8368000000000393
281,7,0.5,0.5,35.0,1,1.0,1.393100000000004
282,7,0.5,1.0,35.0,1,1.0,0.6196999999999662
283,7,0.5,1.0,-35.0,1,0.0,0.3505999999999858
284,7,1.0,1.0,-35.0,1,0.0,0.36989999999991596
285,7,1.0,1.0,-35.0,-1,1.0,0.39020000000004984
286,7,0.5,0.5,-35.0,-1,1.0,0.2637999999999465
287,7,0.5,0.5,-35.0,-1,1.0,1.016800000000103
288,7,0.5,0.5,-35.0,-1,1.0,3.4237000000000535
289,7,0.5,1.0,-35.0,-1,1.0,0.606899999999996
290,7,0.5,1.0,35.0,1,1.0,0.26710000000002765
291,7,0.5,0.5,35.0,1,1.0,0.2439999999999145
292,7,0.5,1.0,-35.0,1,0.0,0.3970999999999094
293,7,0.5,1.0,-35.0,-1,1.0,0.5770999999999731
294,7,0.5,1.0,-35.0,-1,1.0,0.44390000000021246
295,7,0.5,0.5,-35.0,-1,1.0,0.5978999999999814
296,7,0.5,1.0,-35.0,-1,1.0,4.1443000000001575
297,7,0.5,0.5,-35.0,-1,1.0,0.8242000000000189
298,7,0.5,1.0,-35.0,-1,1.0,0.5009000000000015
299,7,0.5,0.5,35.0,1,1.0,0.38789999999994507
300,7,0.5,1.0,-35.0,-1,1.0,0.5679000000000087
301,7,0.5,1.0,-35.0,-1,1.0,2.688000000000102
302,7,0.5,1.0,35.0,1,1.0,0.2480000000000473
303,7,0.5,1.0,35.0,1,1.0,0.23789999999985412
304,7,0.5,1.0,-35.0,-1,1.0,0.32789999999999964
305,7,0.5,0.5,-35.0,-1,1.0,0.9447000000000116
306,7,0.5,0.5,-35.0,-1,1.0,0.37820000000010623
307,7,0.5,0.5,35.0,1,1.0,0.37199999999984357
308,7,0.5,1.0,-35.0,-1,1.0,0.3215000000002419
309,7,0.5,1.0,-35.0,-1,1.0,0.4050000000002001
310,7,0.5,1.0,-35.0,-1,1.0,3.115199999999959
311,7,0.5,0.25,35.0,-1,0.0,0.36190000000010514
312,7,0.3,0.25,-35.0,-1,1.0,0.5224000000000615
313,7,0.5,0.5,35.0,1,1.0,0.6586999999999534
314,7,0.5,0.5,35.0,1,1.0,0.30930000000012114
315,7,0.5,1.0,-35.0,-1,1.0,0.16899999999986903
316,7,0.5,0.25,-35.0,-1,1.0,0.2720000000001619
317,7,0.5,0.25,35.0,1,1.0,0.42239999999992506
318,7,0.5,1.0,-35.0,1,0.0,0.36629999999991014
319,7,0.4,1.0,35.0,1,1.0,0.16599999999993997
320,7,0.5,1.0,-35.0,-1,1.0,0.32970000000000255
321,7,0.5,0.25,35.0,1,1.0,0.5525000000000091
322,7,0.5,1.0,35.0,1,1.0,0.30930000000012114
323,7,0.5,0.25,35.0,-1,0.0,1.256099999999833
324,7,0.6,0.25,-35.0,-1,1.0,0.3431000000000495
325,7,0.5,1.0,35.0,1,1.0,0.39309999999977663
326,7,0.5,1.0,35.0,1,1.0,0.3328999999998814
327,7,0.5,0.5,-35.0,-1,1.0,0.48010000000022046
328,7,0.5,0.25,-35.0,1,0.0,1.8371000000001914
329,7,0.6,0.25,35.0,-1,0.0,0.6464000000000851
330,7,0.5,1.0,-35.0,-1,1.0,0.403400000000147
331,7,0.5,1.0,-35.0,-1,1.0,0.5700999999999112
332,7,0.5,1.0,-35.0,-1,1.0,0.31330000000002656
333,7,0.5,0.25,35.0,1,1.0,0.28700000000003456
334,7,0.5,0.5,35.0,1,1.0,0.35049999999978354
335,7,0.5,1.0,35.0,1,1.0,2.223700000000008
336,7,0.5,1.0,35.0,1,1.0,0.2540999999998803
337,7,0.5,1.0,-35.0,-1,1.0,0.6675999999999931
338,7,0.5,0.5,-35.0,-1,1.0,1.103900000000067
339,7,0.5,1.0,35.0,1,1.0,0.12110000000006949
340,7,0.5,0.25,-35.0,-1,1.0,0.5824000000002343
341,7,0.5,1.0,-35.0,-1,1.0,0.4661999999998443
342,7,0.5,0.5,-35.0,-1,1.0,0.6393000000000484
343,7,0.5,0.25,-35.0,-1,1.0,0.5992000000001099
344,7,0.5,0.5,-35.0,-1,1.0,0.45260000000007494
345,7,0.5,0.25,-35.0,-1,1.0,0.38589999999999236
346,7,0.5,1.0,-35.0,-1,1.0,0.3929000000000542
347,7,0.5,1.0,35.0,-1,0.0,0.7097999999998592
348,7,0.1,1.0,-35.0,-1,1.0,1.4797000000000935
349,7,0.5,0.5,35.0,1,1.0,0.18309999999996762
350,7,0.5,1.0,35.0,1,1.0,0.2999999999999545
351,7,0.5,1.0,35.0,1,1.0,0.22650000000021464
352,7,0.5,0.25,35.0,1,1.0,0.21329999999989013
353,7,0.5,0.25,-35.0,-1,1.0,1.7803000000001248
354,7,0.5,0.25,-35.0,-1,1.0,0.42669999999998254
355,7,0.5,1.0,-35.0,-1,1.0,0.8968999999999596
356,7,0.5,0.25,-35.0,-1,1.0,0.3868999999999687
357,7,0.5,0.25,-35.0,-1,1.0,0.047000000000025466
358,7,0.5,0.5,-35.0,-1,1.0,0.46729999999979555
359,7,0.5,0.25,-35.0,-1,1.0,0.3772999999998774
360,7,0.5,1.0,-35.0,-1,1.0,0.4639999999999418
361,7,0.5,1.0,35.0,1,1.0,0.35400000000004184
362,7,0.5,1.0,35.0,1,1.0,0.3642000000002099
363,7,0.5,0.25,35.0,1,1.0,0.304300000000012
364,7,0.5,1.0,-35.0,-1,1.0,0.38429999999993925
365,7,0.5,0.5,-35.0,-1,1.0,0.5643999999999778
366,7,0.5,0.5,-35.0,-1,1.0,1.0476999999998498
367,7,0.5,0.5,-35.0,-1,1.0,0.4411000000002332
368,7,0.5,0.25,35.0,1,1.0,0.324500000000171
369,7,0.5,0.5,-35.0,-1,1.0,0.3846000000000913
370,7,0.5,0.25,-35.0,-1,1.0,0.5144999999999982
371,7,0.5,0.5,-35.0,-1,1.0,0.4983999999999469
372,7,0.5,0.5,35.0,1,1.0,0.4414999999999054
373,7,0.5,0.25,-35.0,-1,1.0,3.764900000000125
374,7,0.5,0.5,35.0,1,1.0,0.6182000000001153
375,7,0.5,0.25,35.0,1,1.0,0.6416989999997895
376,7,0.5,0.25,35.0,-1,0.0,0.2986000000000786
377,7,0.5,0.25,35.0,-1,0.0,0.5254999999999654
378,7,0.4,0.25,35.0,-1,0.0,3.671900000000278
379,7,0.5,0.5,35.0,1,1.0,0.6454000000001088
380,7,0.5,1.0,35.0,1,1.0,0.3121000000001004
381,7,0.5,1.0,-35.0,-1,1.0,0.3788999999999305
382,7,0.5,1.0,-35.0,-1,1.0,1.178899999999885
383,7,0.5,0.5,35.0,1,1.0,0.39239999999995234
384,7,0.5,0.5,35.0,1,1.0,0.2495000000001255
385,7,0.5,0.5,35.0,1,1.0,0.2157999999999447
386,7,0.5,0.5,-35.0,1,0.0,0.4194999999999709
387,7,0.5,0.25,35.0,-1,0.0,0.929300000000012
388,7,0.6,0.25,-35.0,-1,1.0,0.13930000000004839
389,7,0.5,1.0,-35.0,-1,1.0,0.08260000000018408
390,7,0.5,1.0,-35.0,-1,1.0,0.8160000000000309
391,7,0.5,0.5,35.0,-1,0.0,0.0364999999999327
392,7,0.4,0.5,35.0,-1,0.0,0.7496000000001004
393,7,0.4,0.5,-35.0,-1,1.0,0.29310000000009495
394,7,0.5,0.5,-35.0,-1,1.0,2.309700000000248
395,7,0.5,0.25,35.0,1,1.0,0.5333000000000538
396,7,0.5,0.5,-35.0,-1,1.0,0.5598999999999705
397,7,0.5,0.5,-35.0,-1,1.0,0.5366999999998825
398,7,0.5,0.25,-35.0,-1,1.0,0.6736000000000786
399,7,0.5,0.25,-35.0,-1,1.0,1.0435999999999694
400,7,0.5,0.25,35.0,1,1.0,1.4836000000002514
401,7,0.5,1.0,35.0,1,1.0,0.3835999999998876
402,7,0.5,0.5,35.0,1,1.0,0.25060000000007676
403,7,0.5,0.5,35.0,1,1.0,0.35710000000017317
404,7,0.5,1.0,35.0,1,1.0,0.5770999999999731
405,7,0.5,0.5,-35.0,-1,1.0,0.2038000000000011
406,7,0.5,0.25,35.0,1,1.0,0.19390000000021246
407,7,0.5,1.0,35.0,1,1.0,0.2340999999998985
408,7,0.5,0.25,35.0,1,1.0,0.320699999999988
409,7,0.5,0.25,35.0,1,1.0,0.3008990000000722
410,7,0.5,0.5,35.0,1,1.0,1.6176000000000386
411,7,0.5,1.0,-35.0,-1,1.0,4.7543000000000575
412,7,0.5,0.5,-35.0,-1,1.0,2.071100000000115
413,7,0.5,0.5,-35.0,-1,1.0,0.4312000000002172
414,7,0.5,0.25,35.0,1,1.0,0.3480000000001837
415,7,0.5,1.0,-35.0,-1,1.0,0.41800000000012005
416,7,0.5,0.5,-35.0,-1,1.0,0.5715000000002419
417,7,0.5,0.25,35.0,-1,0.0,6.03489999999988
418,7,0.4,0.25,35.0,1,1.0,0.43840000000000146
419,7,0.5,0.5,-35.0,-1,1.0,0.15879999999992833
420,7,0.5,1.0,35.0,1,1.0,0.3084999999998672
421,7,0.5,0.5,-35.0,-1,1.0,0.5317999999999756
422,7,0.5,0.25,-35.0,-1,1.0,0.4054000000000997
423,7,0.5,0.25,-35.0,-1,1.0,0.4254000000000815
424,7,0.5,0.5,-35.0,-1,1.0,0.5087999999998374
425,7,0.5,0.25,35.0,-1,0.0,0.31899999999996
426,7,0.5,0.25,35.0,-1,0.0,0.5323000000000775
427,7,0.2,0.25,35.0,1,1.0,0.5122999999998683
428,7,0.5,1.0,35.0,1,1.0,0.3224999999999909
429,7,0.5,0.25,35.0,1,1.0,0.4158999999999651
430,7,0.5,0.5,35.0,1,1.0,0.23939900000004855
431,7,0.5,0.25,35.0,1,1.0,0.202900000000227
432,7,0.5,1.0,35.0,1,1.0,0.35599999999999454
433,7,0.5,0.25,35.0,1,1.0,0.1529000000000451
434,7,0.5,1.0,35.0,1,1.0,0.6660999999999149
435,7,0.5,0.25,-35.0,1,0.0,0.8298999999999523
436,7,0.9,0.25,-35.0,-1,1.0,0.24789999999984502
437,7,0.5,0.5,-35.0,-1,1.0,0.746599999999944
438,7,0.5,1.0,35.0,1,1.0,0.3265000000001237
439,7,0.5,0.25,35.0,1,1.0,1.733199999999897
440,7,0.5,0.25,35.0,1,1.0,0.2999999999999545
441,7,0.5,0.5,35.0,1,1.0,0.6934000000001106
442,7,0.5,1.0,35.0,1,1.0,0.19399999999995998
443,7,0.5,0.5,-35.0,1,0.0,0.2739999999998872
444,7,0.5,0.25,-35.0,-1,1.0,0.6837000000000444
445,7,0.5,0.25,-35.0,-1,1.0,0.6938000000000102
446,7,0.5,0.25,35.0,-1,0.0,0.07050000000026557
447,7,0.6,0.25,-35.0,-1,1.0,0.48720000000002983
448,7,0.5,0.5,-35.0,-1,1.0,4.173999999999978
449,7,0.5,1.0,-35.0,1,0.0,0.27749999999991815
450,7,0.5,0.25,35.0,1,1.0,0.37770000000000437
451,7,0.5,0.5,35.0,1,1.0,0.2377000000001317
452,7,0.5,0.5,35.0,1,1.0,0.5343000000002576
453,7,0.5,0.25,35.0,1,1.0,0.43800000000010186
454,7,0.5,1.0,35.0,1,1.0,0.3145990000000438
455,7,0.5,1.0,35.0,1,1.0,0.4745999999997821
456,7,0.5,1.0,35.0,1,1.0,0.308100000000195
457,7,0.5,0.25,-35.0,-1,1.0,2.258199999999988
458,7,0.5,0.25,-35.0,-1,1.0,0.5081999999997606
459,7,0.5,0.5,35.0,1,1.0,0.3750999999999749
460,7,0.5,1.0,35.0,1,1.0,0.03509999999982938
461,7,0.5,0.25,35.0,-1,0.0,0.3184000000001106
462,7,0.7,0.25,35.0,1,1.0,0.32529999999997017
463,7,0.5,1.0,35.0,1,1.0,0.33520000000021355
464,7,0.5,1.0,-35.0,-1,1.0,0.5221000000001368
465,7,0.5,1.0,35.0,1,1.0,0.27870000000007167
466,7,0.5,1.0,-35.0,-1,1.0,1.2822000000001026
467,7,0.5,0.25,35.0,1,1.0,0.41210000000000946
468,7,0.5,0.25,-35.0,-1,1.0,2.8623000000000047
469,7,0.5,0.5,35.0,1,1.0,0.3523999999999887
470,7,0.5,0.5,-35.0,-1,1.0,0.5324000000000524
471,7,0.5,0.5,35.0,1,1.0,0.3624999999999545
472,7,0.5,1.0,35.0,1,1.0,0.24270000000001346
473,7,0.5,0.25,35.0,1,1.0,0.4861000000000786
474,7,0.5,0.5,-35.0,-1,1.0,1.8661999999999352
475,7,0.5,0.5,35.0,1,1.0,0.37619999999992615
476,7,0.5,0.5,-35.0,-1,1.0,2.9361999999998716
477,7,0.5,0.25,-35.0,-1,1.0,0.7895999999998367
478,7,0.5,0.25,-35.0,-1,1.0,0.5031000000001313
479,7,0.5,0.5,-35.0,-1,1.0,0.5330000000001291
480,7,0.5,0.25,-35.0,-1,1.0,0.6032000000000153
481,7,0.5,0.5,-35.0,-1,1.0,0.4964999999999691
482,7,0.5,1.0,35.0,1,1.0,0.37679999999977554
483,7,0.5,0.5,-35.0,-1,1.0,2.673400000000129
484,7,0.5,0.25,-35.0,-1,1.0,0.510300000000143
485,7,0.5,0.5,35.0,1,1.0,0.2935000000002219
486,7,0.5,0.25,35.0,1,1.0,3.1636000000000877
487,7,0.5,1.0,-35.0,-1,1.0,0.5172999999999774
488,7,0.5,1.0,-35.0,-1,1.0,0.41390000000023974
489,7,0.5,1.0,35.0,1,1.0,0.2543000000000575
490,7,0.5,1.0,35.0,1,1.0,0.3708000000001448
491,7,0.5,1.0,35.0,1,1.0,0.24060000000008586
492,7,0.5,0.5,-35.0,-1,1.0,0.19069999999987886
493,7,0.5,1.0,35.0,1,1.0,0.22080000000005384
494,7,0.5,0.5,-35.0,-1,1.0,0.554300000000012
495,7,0.5,1.0,35.0,1,1.0,0.45440000000007785
496,7,0.5,1.0,35.0,1,1.0,0.8043999999999869
497,7,0.5,1.0,-35.0,1,0.0,0.26460000000020045
498,7,0.7,1.0,-35.0,-1,1.0,0.678300000000263
499,7,0.5,0.5,-35.0,-1,1.0,0.48149999999986903
500,7,0.5,0.25,-35.0,-1,1.0,0.5180000000000291
501,7,0.5,0.25,-35.0,-1,1.0,0.4881000000000313
502,7,0.5,1.0,-35.0,-1,1.0,1.5915999999999713
503,7,0.5,1.0,35.0,1,1.0,0.38540000000011787
504,7,0.5,0.5,-35.0,-1,1.0,0.5649000000000797
505,7,0.5,1.0,-35.0,-1,1.0,2.508399999999938
506,7,0.5,0.5,35.0,1,1.0,0.3453999999999269
507,7,0.5,0.25,35.0,1,1.0,0.24190000000021428
508,7,0.5,1.0,-35.0,-1,1.0,1.9256000000000313
509,7,0.5,1.0,-35.0,-1,1.0,0.41550000000029286
510,7,0.5,1.0,35.0,1,1.0,0.2822000000001026
511,7,0.5,1.0,-35.0,-1,1.0,0.38229999999998654
512,7,0.5,1.0,35.0,1,1.0,0.9523999999998978
513,7,0.5,1.0,35.0,1,1.0,0.3058000000000902
514,7,0.5,0.5,-35.0,-1,1.0,0.6795000000001892
515,7,0.5,1.0,-35.0,-1,1.0,0.4094999999997526
516,7,0.5,1.0,-35.0,-1,1.0,0.7494999999998981
517,7,0.5,1.0,35.0,1,1.0,0.9126999999998588
518,7,0.5,0.25,-35.0,-1,1.0,0.4560999999998785
519,7,0.5,1.0,35.0,1,1.0,0.40650000000005093
520,7,0.5,0.25,-35.0,-1,1.0,0.4030999999999949
521,7,0.5,0.25,35.0,1,1.0,0.23959999999988213
522,7,0.5,0.5,35.0,1,1.0,0.5564999999996871
523,7,0.5,1.0,35.0,1,1.0,0.35669999999981883
524,7,0.5,0.5,35.0,1,1.0,4.6865999999999985
525,7,0.5,0.25,35.0,-1,0.0,1.3801000000003114
526,7,0.6,0.25,-35.0,-1,1.0,0.5300999999999476
527,7,0.5,0.5,-35.0,-1,1.0,0.6068000000000211
528,7,0.5,0.5,35.0,1,1.0,0.1570000000001528
529,7,0.5,0.25,35.0,1,1.0,0.28710000000000946
530,7,0.5,1.0,-35.0,-1,1.0,0.8270000000002256
531,7,0.5,1.0,-35.0,1,0.0,0.1772000000000844
532,7,0.6,1.0,35.0,1,1.0,0.39709999999968204
533,7,0.5,1.0,35.0,1,1.0,1.257300000000214
534,7,0.5,0.5,-35.0,-1,1.0,0.3474999999998545
535,7,0.5,0.25,-35.0,-1,1.0,0.5373999999997068
536,7,0.5,0.5,-35.0,-1,1.0,0.30070000000023356
537,7,0.5,0.25,35.0,1,1.0,0.3809000000001106
538,7,0.5,0.5,35.0,1,1.0,0.314600000000155
539,7,0.5,1.0,35.0,1,1.0,0.047700000000077125
540,7,0.5,1.0,35.0,1,1.0,0.27100000000018554
541,7,0.5,1.0,35.0,1,1.0,1.811099999999442
542,7,0.5,1.0,-35.0,-1,1.0,0.10780000000022483
543,7,0.5,0.5,-35.0,-1,1.0,1.0716999999999643
544,7,0.5,0.25,-35.0,-1,1.0,0.4113000000002103
545,7,0.5,0.5,-35.0,1,0.0,0.031599999999798456
546,7,0.6,0.5,-35.0,-1,1.0,5.121700000000146
547,7,0.5,0.5,-35.0,-1,1.0,0.4416999999998552
548,7,0.5,0.5,35.0,-1,0.0,0.23869999999988067
549,7,0.5,0.25,-35.0,-1,1.0,0.5419000000001688
550,7,0.5,0.25,-35.0,-1,1.0,0.5717999999997119
551,7,0.5,0.25,35.0,1,1.0,0.38879999999971915
552,7,0.5,0.5,-35.0,-1,1.0,0.7588000000000648
553,7,0.5,0.5,35.0,1,1.0,1.3287999999997737
554,7,0.5,0.5,35.0,1,1.0,0.2657000000003791
555,7,0.5,0.25,-35.0,-1,1.0,5.842800000000352
556,7,0.5,0.5,-35.0,-1,1.0,0.6894000000002052
557,7,0.5,0.25,-35.0,-1,1.0,0.2428000000004431
558,7,0.5,0.25,-35.0,-1,1.0,0.1992990000003374
559,7,0.5,0.5,35.0,1,1.0,0.3328000000001339
560,7,0.5,0.5,-35.0,-1,1.0,0.34600000000000364
561,7,0.5,0.25,35.0,-1,0.0,0.5527999999999338
562,7,0.3,0.25,-35.0,-1,1.0,0.0828999999998814
563,7,0.5,1.0,-35.0,-1,1.0,0.9329000000002452
564,7,0.5,0.25,-35.0,-1,1.0,0.23300000000017462
565,7,0.5,1.0,-35.0,-1,1.0,0.2468999999996413
566,7,0.5,1.0,-35.0,-1,1.0,0.3868999999999687
567,7,0.5,1.0,-35.0,-1,1.0,0.3768000000000029
568,7,0.5,0.5,35.0,1,1.0,0.2966999999998734
569,7,0.5,0.25,-35.0,-1,1.0,0.39390000000003056
570,7,0.5,0.5,-35.0,-1,1.0,0.7901000000001659
571,7,0.5,0.25,-35.0,-1,1.0,3.1768999999999323
572,7,0.5,0.5,-35.0,-1,1.0,0.5638999999996486
573,7,0.5,0.5,-35.0,-1,1.0,4.163900000000012
574,7,0.5,1.0,-35.0,-1,1.0,0.3172000000004118
575,7,0.5,1.0,-35.0,-1,1.0,0.6972999999998137
576,7,0.5,0.5,35.0,-1,0.0,0.6309000000005653
577,7,0.1,0.5,35.0,-1,0.0,0.4110000000000582
578,7,0.1,0.5,-35.0,-1,1.0,0.5743000000002212
579,7,0.5,0.5,35.0,-1,0.0,0.2141999999998916
580,7,0.5,0.25,35.0,1,1.0,1.744300000000294
581,7,0.5,0.5,-35.0,-1,1.0,0.48800000000028376
582,7,0.5,1.0,35.0,1,1.0,0.32460000000037326
583,7,0.5,0.25,-35.0,-1,1.0,0.40499999999974534
584,7,0.5,0.25,35.0,1,1.0,0.3480990000002748
585,7,0.5,1.0,35.0,1,1.0,0.3247999999998683
586,7,0.5,0.25,35.0,1,1.0,0.36830000000054497
587,7,0.5,1.0,-35.0,-1,1.0,3.5716999999999643
588,7,0.5,0.25,35.0,1,1.0,0.5982999999996537
589,7,0.5,1.0,35.0,1,1.0,0.2784999999998945
590,7,0.5,1.0,-35.0,1,0.0,0.7352999999998246
591,7,0.7,1.0,35.0,1,1.0,0.1920999999997548
592,7,0.5,0.5,-35.0,1,0.0,0.3518999999996595
593,7,0.5,0.25,-35.0,-1,1.0,3.205500000000029
594,7,0.5,1.0,35.0,1,1.0,0.32580000000007203
595,7,0.5,1.0,-35.0,1,0.0,0.4321999999997388
596,7,0.8,1.0,35.0,1,1.0,0.8990999999996347
597,7,0.5,0.5,-35.0,-1,1.0,0.4126000000001113
598,7,0.5,1.0,35.0,1,1.0,0.24610000000029686
599,7,0.5,0.25,35.0,1,1.0,0.21260000000029322
600,7,0.5,0.5,-35.0,-1,1.0,1.2460000000000946
601,7,0.5,0.5,-35.0,-1,1.0,0.6662999999998647
602,7,0.5,1.0,-35.0,-1,1.0,0.6462000000001353
603,7,0.5,0.25,35.0,1,1.0,0.24619999999958964
604,7,0.5,0.25,35.0,1,1.0,0.21630000000004657
605,7,0.5,1.0,-35.0,1,0.0,0.2197000000001026
606,7,0.5,0.25,35.0,-1,0.0,1.373199999999997
607,7,0.5,0.25,-35.0,-1,1.0,0.413300000000163
608,7,0.5,0.25,-35.0,-1,1.0,0.4066000000002532
609,7,0.5,1.0,-35.0,-1,1.0,1.736699999999928
610,7,0.5,0.5,35.0,1,1.0,0.34009999999989304
611,7,0.5,1.0,35.0,1,1.0,0.38019900000017515
612,7,0.5,0.5,35.0,1,1.0,0.2937000000001717
613,7,0.5,1.0,-35.0,-1,1.0,0.6403000000000247
614,7,0.5,1.0,-35.0,-1,1.0,0.3004000000000815
615,7,0.5,0.5,35.0,-1,0.0,6.833999999999833
616,7,0.5,0.25,35.0,-1,0.0,1.3272999999999229
617,7,0.3,0.25,35.0,-1,0.0,3.2343000000000757
618,7,0.5,1.0,35.0,1,1.0,17.091300000000047
619,7,0.5,0.25,-35.0,-1,1.0,7.57129999999961
620,7,0.5,1.0,35.0,1,1.0,0.25149999999985084
621,7,0.5,0.5,-35.0,-1,1.0,0.3383000000003449
622,7,0.5,0.25,-35.0,-1,1.0,4.908400000000256
623,7,0.5,0.25,35.0,1,1.0,0.43509999999969295
624,7,0.5,1.0,35.0,1,1.0,1.1419000000000779
625,7,0.5,1.0,-35.0,-1,1.0,0.515400000000227
626,7,0.5,0.5,35.0,1,1.0,0.42230000000017753
627,7,0.5,1.0,35.0,1,1.0,0.5054000000000087
628,7,0.5,0.5,35.0,1,1.0,0.3087999999997919
629,7,0.5,0.25,-35.0,1,0.0,20.35570000000007
630,7,0.7,0.25,-35.0,-1,1.0,5.822599999999966
631,7,0.5,0.5,-35.0,-1,1.0,0.006499999999959982
632,7,0.5,0.5,35.0,1,1.0,0.8428999999996449
633,7,0.5,0.5,-35.0,-1,1.0,0.439600000000155
634,7,0.5,0.5,-35.0,-1,1.0,0.2630000000003747
635,7,0.5,1.0,35.0,1,1.0,0.37980000000015934
636,7,0.5,1.0,-35.0,-1,1.0,0.5832000000000335
637,7,0.5,1.0,35.0,1,1.0,0.2865999999999076
638,7,0.5,0.25,35.0,1,1.0,0.28680000000031214
639,7,0.5,1.0,35.0,1,1.0,0.2536000000000058
640,7,0.5,0.25,35.0,1,1.0,0.31670000000030996
641,7,0.5,0.5,-35.0,-1,1.0,0.6904999999997017
642,7,0.5,0.5,-35.0,-1,1.0,11.143600000000333
643,7,0.5,0.25,-35.0,-1,1.0,0.637199999999666
644,7,0.5,0.25,-35.0,-1,1.0,0.7771999999999935
645,7,0.5,0.5,35.0,1,1.0,0.40750000000025466
646,7,0.5,0.25,-35.0,-1,1.0,0.13740000000007058
647,7,0.5,1.0,-35.0,-1,1.0,0.5907999999999447
648,7,0.5,0.25,-35.0,1,0.0,0.13429999999971187
649,7,0.4,0.25,-35.0,-1,1.0,0.7209000000002561
650,7,0.5,0.5,35.0,1,1.0,0.4476999999997133
651,7,0.5,0.25,-35.0,-1,1.0,0.43770000000040454
652,7,0.5,0.5,35.0,1,1.0,0.9346000000000458
653,7,0.5,0.25,35.0,1,1.0,0.818000000000211
654,7,0.5,0.5,-35.0,-1,1.0,0.39809999999988577
655,7,0.5,0.25,35.0,-1,0.0,0.29140000000006694
656,7,0.4,0.25,-35.0,-1,1.0,0.8148000000001048
657,7,0.5,0.5,-35.0,-1,1.0,1.1082000000001244
658,7,0.5,1.0,35.0,1,1.0,0.4149000000002161
659,7,0.5,1.0,35.0,1,1.0,0.5384000000003653
660,7,0.5,0.5,-35.0,-1,1.0,0.0684000000001106
661,7,0.5,0.5,35.0,-1,0.0,0.15180000000009386
662,7,0.4,0.5,35.0,-1,0.0,0.6586999999999534
663,7,0.3,0.5,-35.0,-1,1.0,0.4456990000003316
664,7,0.5,0.5,35.0,-1,0.0,0.05870000000004438
665,7,0.2,0.5,35.0,1,1.0,0.4488000000001193
666,7,0.5,0.5,35.0,1,1.0,0.41580000000021755
667,7,0.5,0.25,35.0,1,1.0,0.7621000000003733
668,7,0.5,0.5,-35.0,-1,1.0,1.1727000000005319
669,7,0.5,1.0,35.0,1,1.0,0.18229999999948632
670,7,0.5,1.0,35.0,1,1.0,0.15579999999999927
671,7,0.5,1.0,-35.0,-1,1.0,1.0057999999999083
672,7,0.5,1.0,35.0,1,1.0,0.9525000000003274
673,7,0.5,0.25,-35.0,-1,1.0,0.18280000000004293
674,7,0.5,1.0,-35.0,-1,1.0,0.44949999999971624
675,7,0.5,0.25,-35.0,-1,1.0,0.44610000000011496
676,7,0.5,0.5,-35.0,-1,1.0,0.46949999999969805
677,7,0.5,1.0,35.0,1,1.0,0.6227999999996428
678,7,0.5,0.5,-35.0,-1,1.0,3.7898000000004686
679,7,0.5,1.0,35.0,1,1.0,0.35980000000017753
680,7,0.5,0.25,35.0,1,1.0,0.2464999999997417
681,7,0.5,0.5,35.0,1,1.0,0.2767999999996391
682,7,0.5,0.5,35.0,1,1.0,0.2733000000002903
683,7,0.5,1.0,35.0,1,1.0,0.38340000000016516
684,7,0.5,0.25,35.0,1,1.0,0.35019999999985885
685,7,0.5,1.0,-35.0,-1,1.0,0.6201000000000931
686,7,0.5,1.0,35.0,1,1.0,0.35390000000006694
687,7,0.5,1.0,-35.0,-1,1.0,0.4571000000000822
688,7,0.5,0.5,35.0,1,1.0,0.2438999999999396
689,7,0.5,0.5,35.0,1,1.0,0.3370999999997366
690,7,0.5,1.0,-35.0,-1,1.0,0.7372000000000298
691,7,0.5,1.0,35.0,-1,0.0,0.19090000000005602
692,7,0.6,1.0,-35.0,-1,1.0,0.34059999999954016
693,7,0.5,1.0,-35.0,-1,1.0,0.6008999999999105
694,7,0.5,0.5,-35.0,-1,1.0,0.5774999999998727
695,7,0.5,1.0,-35.0,-1,1.0,0.3975000000000364
696,7,0.5,0.5,-35.0,-1,1.0,1.5009000000000015
697,7,0.5,0.5,-35.0,-1,1.0,0.3743000000004031
698,7,0.5,0.5,35.0,1,1.0,0.2943999999997686
699,7,0.5,0.5,-35.0,-1,1.0,1.2977999999998246
700,7,0.5,0.5,-35.0,-1,1.0,0.4045000000000982
701,7,0.5,0.5,-35.0,-1,1.0,0.5704000000000633
702,7,0.5,0.5,35.0,1,1.0,0.8599999999996726
703,7,0.5,0.25,35.0,1,1.0,1.9031000000004497
704,7,0.5,0.25,-35.0,-1,1.0,0.4670000000000982
705,7,0.5,0.25,-35.0,-1,1.0,1.0763999999999214
706,7,0.5,0.5,-35.0,-1,1.0,0.6201000000000931
707,7,0.5,1.0,-35.0,1,0.0,1.2100000000000364
708,7,0.4,1.0,35.0,1,1.0,0.36080000000038126
709,7,0.5,1.0,-35.0,-1,1.0,3.200199999999768
710,7,0.5,0.25,35.0,1,1.0,0.33710000000019136
711,7,0.5,1.0,35.0,1,1.0,0.1904000000004089
712,7,0.5,0.5,35.0,1,1.0,0.4171000000001186
713,7,0.5,1.0,-35.0,-1,1.0,0.3040000000000873
714,7,0.5,0.5,35.0,1,1.0,0.3341000000000349
715,7,0.5,0.25,-35.0,-1,1.0,0.4011000000000422
716,7,0.5,0.5,35.0,-1,0.0,0.24099999999998545
717,7,0.6,0.5,35.0,-1,0.0,2.737500000000182
718,7,0.5,0.5,-35.0,-1,1.0,2.8580000000001746
719,7,0.5,1.0,35.0,-1,0.0,0.18450000000029831
720,7,0.5,0.25,35.0,-1,0.0,1.0277999999998428
721,7,0.3,0.25,35.0,1,1.0,0.7251000000001113
722,7,0.5,1.0,-35.0,-1,1.0,0.5313999999998487
723,7,0.5,0.5,-35.0,-1,1.0,0.37820000000010623
724,7,0.5,0.5,-35.0,-1,1.0,1.6882000000000517
725,7,0.5,0.5,-35.0,1,0.0,0.608600000000024
726,7,0.2,0.5,-35.0,1,0.0,0.4948000000003958
727,7,0.3,0.5,-35.0,-1,1.0,3.5452000000000226
728,7,0.5,0.5,-35.0,-1,1.0,0.21850000000040382
729,7,0.5,0.5,-35.0,-1,1.0,2.262199999999666
730,7,0.5,0.5,35.0,1,1.0,0.9162000000001171
731,7,0.5,1.0,-35.0,-1,1.0,8.448899999999867
732,7,0.5,1.0,35.0,1,1.0,1.7724000000002889
733,7,0.5,1.0,-35.0,-1,1.0,0.47240000000010696
734,7,0.5,1.0,-35.0,-1,1.0,9.092400000000453
735,7,0.5,1.0,35.0,1,1.0,0.30950099999972736
736,7,0.5,1.0,35.0,1,1.0,0.2793010000000322
737,7,0.5,0.5,-35.0,-1,1.0,0.39630099999976665
738,7,0.5,1.0,35.0,1,1.0,0.2537010000000919
739,7,0.5,1.0,35.0,1,1.0,0.4068010000000868
740,7,0.5,0.5,-35.0,-1,1.0,5.876400999999987
741,7,0.5,1.0,35.0,1,1.0,0.2833010000003924
742,7,0.5,0.25,-35.0,-1,1.0,0.31690100000014354
743,7,0.5,0.25,35.0,1,1.0,0.2239009999998416
744,7,0.5,0.5,35.0,1,1.0,0.39030000000002474
745,7,0.5,0.5,-35.0,-1,1.0,0.6234009999998307
746,7,0.5,0.5,-35.0,-1,1.0,7.346900999999434
747,7,0.5,1.0,-35.0,-1,1.0,1.3306009999996604
748,7,0.5,1.0,35.0,1,1.0,0.49740099999962695
749,7,0.5,0.5,35.0,1,1.0,0.35440100000050734
750,7,0.5,0.25,-35.0,-1,1.0,5.040801000000101
751,7,0.5,0.25,-35.0,-1,1.0,8.90440099999978
752,7,0.5,0.5,-35.0,1,0.0,0.5378010000003997
753,7,0.5,0.5,-35.0,-1,1.0,0.7812010000002374
754,7,0.5,1.0,-35.0,-1,1.0,0.22820099999989907
755,7,0.5,0.25,-35.0,-1,1.0,4.448500999999851
756,7,0.5,0.5,-35.0,-1,1.0,2.0015010000001894
757,7,0.5,0.25,35.0,1,1.0,0.2417009999999209
758,7,0.5,0.5,-35.0,-1,1.0,0.33510100000012244
759,7,0.5,1.0,35.0,1,1.0,0.281601000000137
760,7,0.5,1.0,-35.0,-1,1.0,4.461500999999771
761,7,0.5,1.0,-35.0,-1,1.0,0.4856009999998605
762,7,0.5,0.5,-35.0,1,0.0,0.33250099999941085
763,7,0.3,0.5,-35.0,-1,1.0,0.4859010000000126
764,7,0.5,1.0,-35.0,-1,1.0,2.502501000000393
765,7,0.5,0.25,-35.0,1,0.0,0.44550100000014936
766,7,0.4,0.25,35.0,-1,0.0,0.7195010000000366
767,7,0.5,0.5,-35.0,-1,1.0,1.095600999999533
768,7,0.5,1.0,-35.0,-1,1.0,4.6226010000000315
769,7,0.5,0.5,-35.0,-1,1.0,3.006000999999742
770,7,0.5,0.5,-35.0,-1,1.0,0.4728010000003451
771,7,0.5,0.5,-35.0,-1,1.0,2.096001000000342
772,7,0.5,1.0,-35.0,-1,1.0,0.4027009999999791
773,7,0.5,0.25,-35.0,1,0.0,4.099601000000348
774,7,0.2,0.25,35.0,-1,0.0,3.086801000000378
775,7,0.5,0.5,35.0,1,1.0,0.30350099999986924
776,7,0.5,0.25,-35.0,1,0.0,0.3166009999995367
777,7,0.5,0.25,-35.0,-1,1.0,5.409900999999991
778,7,0.5,0.5,-35.0,-1,1.0,2.2700010000003203
779,7,0.5,1.0,-35.0,-1,1.0,0.5568010000001777
780,7,0.5,1.0,35.0,1,1.0,0.3443010000000868
781,7,0.5,0.25,35.0,1,1.0,0.31080100000008315
782,7,0.5,0.5,35.0,1,1.0,0.19710099999974773
783,7,0.5,1.0,-35.0,1,0.0,0.270701000000372
784,7,0.6,1.0,-35.0,-1,1.0,2.558101000000079
785,7,0.5,0.5,35.0,1,1.0,0.3078009999999267
786,7,0.5,0.25,-35.0,-1,1.0,1.037600999999995
787,7,0.5,1.0,-35.0,-1,1.0,0.6208010000000286
788,7,0.5,1.0,35.0,-1,0.0,0.32440100000030725
789,7,0.5,1.0,-35.0,-1,1.0,0.9549010000000635
790,7,0.5,1.0,-35.0,-1,1.0,16.568400999999994
791,7,0.5,1.0,35.0,1,1.0,0.26820100000031744
792,7,0.5,0.25,-35.0,-1,1.0,1.5318010000000868
793,7,0.5,0.5,35.0,1,1.0,0.2659009999997579
794,7,0.5,1.0,-35.0,1,0.0,0.6355010000002039
795,7,0.4,1.0,35.0,1,1.0,0.30870099999992817
796,7,0.5,0.5,35.0,1,1.0,0.4852009999999609
797,7,0.5,0.25,-35.0,-1,1.0,7.708800999999767
798,7,0.5,0.5,-35.0,1,0.0,0.3521009999999478
799,7,0.5,0.25,35.0,1,1.0,0.4929010000000744
800,7,0.5,0.5,-35.0,-1,1.0,0.38600099999985105
801,7,0.5,0.25,-35.0,-1,1.0,0.4863010000003669
802,7,0.5,0.5,35.0,1,1.0,0.28290100000003804
803,7,0.5,1.0,-35.0,-1,1.0,0.5632009999994807
804,7,0.5,1.0,35.0,1,1.0,0.4229009999999107
805,7,0.5,1.0,35.0,1,1.0,0.2694010000000162
806,7,0.5,1.0,35.0,1,1.0,0.24590100000023085
807,7,0.5,0.25,35.0,1,1.0,7.549700999999914
808,7,0.5,1.0,35.0,1,1.0,0.329801000000316
809,7,0.5,1.0,-35.0,-1,1.0,0.4699009999999362
810,7,0.5,1.0,-35.0,1,0.0,0.33330100000011953
811,7,0.5,0.25,35.0,1,1.0,0.6200009999997746
812,7,0.5,0.5,35.0,1,1.0,0.4330009999998765
813,7,0.5,0.5,35.0,1,1.0,0.2541009999999915
814,7,0.5,1.0,35.0,1,1.0,0.2202009999996335
815,7,0.5,0.5,35.0,1,1.0,0.23020100000030652
816,7,0.5,0.5,35.0,1,1.0,0.7274010000000999
817,7,0.5,1.0,35.0,1,1.0,14.21400100000028
818,7,0.5,0.25,-35.0,-1,1.0,19.69110099999989
819,7,0.5,0.25,35.0,1,1.0,0.3512010000004011
820,7,0.5,1.0,35.0,1,1.0,0.48110099999985323
821,7,0.5,0.25,-35.0,-1,1.0,11.378100999999788
822,7,0.5,1.0,-35.0,-1,1.0,21.225201000000197
823,7,0.5,1.0,35.0,1,1.0,0.36510100000032253
824,7,0.5,1.0,35.0,1,1.0,0.2522009999997863
825,7,0.5,0.5,-35.0,-1,1.0,11.79850099999976
826,7,0.5,0.5,35.0,1,1.0,0.2622010000004593
827,7,0.5,0.5,-35.0,-1,1.0,0.8922010000001137
828,7,0.5,0.5,-35.0,1,0.0,22.68920100000014
829,7,0.5,0.25,-35.0,-1,1.0,36.67960099999982
830,7,0.5,1.0,35.0,1,1.0,0.5112010000002556
831,7,0.5,1.0,35.0,1,1.0,0.3344010000000708
832,7,0.5,1.0,35.0,1,1.0,0.41070099999978993
833,7,0.5,0.25,35.0,1,1.0,1.2805010000001857
834,7,0.5,1.0,35.0,1,1.0,0.36400099999991653
835,7,0.5,0.5,35.0,1,1.0,0.6346010000002025
836,7,0.5,0.5,35.0,1,1.0,0.15750100000013845
837,7,0.5,0.5,-35.0,-1,1.0,11.49820099999988
838,7,0.5,0.25,35.0,1,1.0,0.3109010000002854
839,7,0.5,0.5,-35.0,-1,1.0,25.894600999999966
840,7,0.5,1.0,35.0,-1,0.0,12.591601000000082
841,7,0.7,1.0,-35.0,-1,1.0,7.0052999999998065
842,7,0.5,1.0,-35.0,-1,1.0,33.80250100000012
843,7,0.5,0.5,-35.0,-1,1.0,6.419600999999602
844,7,0.5,0.25,-35.0,-1,1.0,1.1696009999996022
845,7,0.5,1.0,35.0,1,1.0,0.17960100000027523
846,7,0.5,1.0,35.0,1,1.0,0.36040100000036546
847,7,0.5,0.25,-35.0,1,0.0,55.93310100000008
848,7,0.5,0.25,35.0,1,1.0,21.221200999999837
849,7,0.5,1.0,-35.0,-1,1.0,9.954799999999977
850,7,0.5,0.5,35.0,1,1.0,0.3588009999998576
851,7,0.5,0.25,35.0,1,1.0,9.551801000000069
852,7,0.5,0.25,-35.0,-1,1.0,9.18590099999983
853,7,0.5,0.125,-35.0,1,0.0,14.05880100000013
854,7,0.5,0.125,-35.0,-1,1.0,2.8833010000003014
855,7,0.5,0.5,35.0,1,1.0,0.3392010000002301
856,7,0.5,0.5,35.0,1,1.0,18.892901000000165
857,7,0.5,0.125,-35.0,-1,1.0,1.24020100000007
858,7,0.5,0.5,-35.0,-1,1.0,4.47300099999984
859,7,0.5,0.5,-35.0,1,0.0,56.78020099999958
860,7,0.5,0.25,-35.0,-1,1.0,14.321201000000201
861,7,0.5,0.25,35.0,1,1.0,0.5855000000001382
862,7,0.5,1.0,35.0,1,1.0,0.36510100000032253
863,7,0.5,0.5,-35.0,-1,1.0,6.605100999999195
864,7,0.5,0.5,35.0,1,1.0,0.3218010000000504
865,7,0.5,0.125,35.0,1,1.0,9.148301000000174
866,7,0.5,0.25,-35.0,-1,1.0,16.992800999999417
867,7,0.5,0.5,-35.0,-1,1.0,6.992701000000125
868,7,0.5,1.0,35.0,1,1.0,0.426300999999512
869,7,0.5,0.25,-35.0,-1,1.0,24.433200999999826
870,7,0.5,1.0,35.0,1,1.0,0.36030100000061793
871,7,0.5,1.0,-35.0,-1,1.0,7.430301000000327
872,7,0.5,1.0,-35.0,-1,1.0,7.1435010000004695
873,7,0.5,0.5,-35.0,1,0.0,7.98370100000011
874,7,0.5,0.5,-35.0,-1,1.0,2.707400999998754
875,7,0.5,0.5,-35.0,-1,1.0,10.11830099999952
876,7,0.5,1.0,-35.0,-1,1.0,2.217501000000084
877,7,0.5,0.125,-35.0,-1,1.0,19.1640010000001
878,7,0.5,1.0,35.0,1,1.0,0.6185010000008333
879,7,0.5,0.25,-35.0,1,0.0,12.121501000000535
880,7,0.5,0.25,-35.0,1,0.0,5.381500999999844
881,7,0.5,0.125,35.0,-1,0.0,10.235501000000113
882,7,0.5,0.25,35.0,-1,0.0,40.4791009999999
883,7,0.5,0.25,-35.0,-1,1.0,7.186500999999225
884,7,0.5,0.25,35.0,1,1.0,0.6136010000000169
885,7,0.5,0.125,-35.0,-1,1.0,2.699601000000257
886,7,0.5,0.25,-35.0,-1,1.0,0.6797010000009323
887,7,0.5,0.5,35.0,1,1.0,0.4574009999996633
888,7,0.5,1.0,-35.0,-1,1.0,22.673401000000013
889,7,0.5,1.0,35.0,1,1.0,12.610700999999608
890,7,0.5,0.5,-35.0,-1,1.0,0.421001000000615
891,7,0.5,1.0,35.0,1,1.0,0.3442009999998845
892,7,0.5,0.125,35.0,1,1.0,12.967601000000286
893,7,0.5,0.5,-35.0,-1,1.0,2.0682010000000446
894,7,0.5,1.0,35.0,1,1.0,0.39110100000016246
895,7,0.5,1.0,35.0,1,1.0,0.31470100000024104
896,7,0.5,0.125,-35.0,1,0.0,17.478000999999495
897,7,0.5,0.25,-35.0,1,0.0,46.07840099999976
898,7,0.7,0.25,-35.0,0,0.0,59.942801000000145
899,7,0.5,1.0,35.0,1,1.0,0.19800099999974918
900,7,0.5,1.0,35.0,1,1.0,0.2222009999995862
901,7,0.5,0.125,35.0,-1,0.0,10.502400999999736
902,7,0.8,0.125,-35.0,-1,1.0,44.64610100000027
903,7,0.5,0.5,-35.0,-1,1.0,17.67040100000031
904,7,0.5,0.25,35.0,1,1.0,0.3840010000003531
905,7,0.5,1.0,-35.0,1,0.0,13.93420100000003
906,7,0.7,1.0,-35.0,-1,1.0,17.114700999999513
907,7,0.5,0.5,-35.0,-1,1.0,0.5714010000001508
908,7,0.5,1.0,-35.0,1,0.0,56.44830099999945
909,7,0.5,1.0,35.0,1,1.0,0.939300999999432
910,7,0.5,0.5,-35.0,-1,1.0,4.539701000000605
911,7,0.5,1.0,35.0,1,1.0,0.4229009999999107
912,7,0.5,0.5,-35.0,1,0.0,15.419701000000714
913,7,0.6,0.5,35.0,1,1.0,33.446600999999646
914,7,0.5,1.0,-35.0,-1,1.0,9.507300999999643
915,7,0.5,1.0,35.0,1,1.0,0.057501000000229396
916,7,0.5,0.125,35.0,1,1.0,45.396600999999464
917,7,0.5,0.25,-35.0,-1,1.0,10.183600999999726
918,7,0.5,0.125,-35.0,0,0.0,59.95380100000057
919,7,0.5,0.25,35.0,1,1.0,13.6649010000001
920,7,0.5,1.0,35.0,1,1.0,0.36390099999971426
921,7,0.5,0.5,35.0,1,1.0,0.293800999999803
922,7,0.5,0.125,-35.0,-1,1.0,0.8205009999992399
923,7,0.5,0.125,-35.0,1,0.0,22.50720100000126
924,7,0.7,0.125,-35.0,1,0.0,2.004200999999739
925,7,0.5,0.5,35.0,1,1.0,0.4910009999994145
926,7,0.5,0.5,35.0,1,1.0,0.25770099999954255
927,7,0.5,0.5,35.0,1,1.0,0.5145009999996546
928,7,0.5,0.5,35.0,1,1.0,0.3414009999996779
929,7,0.5,0.25,-35.0,-1,1.0,40.277900999999474
930,7,0.5,0.25,35.0,1,1.0,13.88550099999975
931,7,0.5,0.5,35.0,1,1.0,0.28600100000039674
932,7,0.5,0.25,35.0,1,1.0,0.41250099999979284
933,7,0.5,0.25,35.0,1,1.0,0.3560010000001057
934,7,0.5,0.5,35.0,1,1.0,0.29930100000001403
935,7,0.5,1.0,35.0,1,1.0,0.3127010000007431
936,7,0.5,0.125,-35.0,1,0.0,18.77610099999947
937,7,0.5,0.25,35.0,1,1.0,25.39980099999957
938,7,0.5,1.0,-35.0,1,0.0,4.573700999999346
939,7,0.5,0.125,35.0,-1,0.0,28.933700999999928
940,7,0.5,0.125,35.0,1,1.0,5.307600999999522
941,7,0.5,0.25,-35.0,-1,1.0,5.134601000000657
942,7,0.5,0.5,35.0,1,1.0,0.5815009999996619
943,7,0.5,0.25,35.0,1,1.0,3.405300999999781
944,7,0.5,0.25,35.0,1,1.0,2.2351010000002134
945,7,0.5,0.5,-35.0,-1,1.0,1.245201000000634
946,7,0.5,0.25,35.0,-1,0.0,1.4253010000002178
947,7,0.5,0.125,35.0,-1,0.0,18.00210100000004
948,7,0.5,0.125,35.0,-1,0.0,3.0558009999995193
949,7,0.5,1.0,-35.0,1,0.0,17.12590099999943
950,7,0.5,0.25,35.0,1,1.0,25.13300099999924
951,7,0.5,1.0,35.0,1,1.0,11.183500999999524
952,7,0.5,0.25,-35.0,1,0.0,48.40050100000008
953,7,0.5,0.25,35.0,1,1.0,31.961600999999973
954,7,0.5,0.25,35.0,-1,0.0,0.08890099999916856
955,7,0.5,0.25,-35.0,1,0.0,37.94550099999924
956,7,0.5,0.25,-35.0,-1,1.0,21.819601000000148
957,7,0.5,0.125,35.0,1,1.0,7.243401000000631
958,7,0.5,1.0,-35.0,-1,1.0,0.6602009999996881
959,7,0.5,0.5,35.0,1,1.0,2.2971010000001115
960,7,0.5,0.5,-35.0,0,0.0,59.94710099999975
961,7,0.5,0.125,-35.0,-1,1.0,37.765001000000666
962,7,0.5,0.125,35.0,1,1.0,0.4223009999996066
963,7,0.5,0.5,35.0,1,1.0,0.44260099999974045
964,7,0.5,0.25,-35.0,1,0.0,33.17590099999961
965,7,0.5,0.125,35.0,0,0.0,59.94670100000076
966,7,0.7,0.125,-35.0,1,0.0,24.054301000000123
967,7,0.5,0.5,35.0,1,1.0,0.6253010000000359
968,7,0.5,0.25,-35.0,-1,1.0,21.105000999999902
969,7,0.5,0.125,35.0,1,1.0,1.3054010000005292
970,7,0.5,0.5,35.0,1,1.0,0.37560000000030414
971,7,0.5,1.0,35.0,1,1.0,0.37940100000014354
972,7,0.5,0.25,-35.0,-1,1.0,26.532200999999986
973,7,0.5,1.0,35.0,1,1.0,10.02940099999978
974,7,0.5,0.25,-35.0,1,0.0,27.296500999999807
975,7,0.8,0.25,35.0,1,1.0,5.007300999999643
976,7,0.5,1.0,-35.0,1,0.0,25.223801000000094
977,7,0.8,1.0,-35.0,-1,1.0,18.100901000000704
978,7,0.5,0.5,-35.0,1,0.0,0.9282010000006267
979,7,0.5,0.125,-35.0,1,0.0,9.84150099999897
980,7,0.5,0.125,-35.0,0,0.0,59.95170100000087
981,7,0.8,0.125,-35.0,1,0.0,0.8432010000005903
982,7,0.5,1.0,-35.0,-1,1.0,8.035001000000193
983,7,0.5,1.0,35.0,1,1.0,0.40920099999948434
984,7,0.5,0.5,-35.0,0,0.0,59.95180100000016
985,7,0.8,0.5,-35.0,1,0.0,50.37810100000024
986,7,0.8,0.5,-35.0,-1,1.0,3.9174009999996997
987,7,0.5,1.0,-35.0,-1,1.0,0.5342000000009648
988,7,0.5,0.25,-35.0,-1,1.0,9.80750100000023
989,7,0.5,0.125,-35.0,1,0.0,26.798001000000113
990,7,0.6,0.125,35.0,1,1.0,15.581600999999864
991,7,0.5,0.5,35.0,1,1.0,0.5622009999997317
992,7,0.5,0.5,-35.0,-1,1.0,12.578800999999658
993,7,0.5,0.5,-35.0,-1,1.0,15.599200999999084
994,7,0.5,0.125,-35.0,0,0.0,59.95320099999935
995,7,0.5,0.125,35.0,1,1.0,0.40250100000048405
996,7,0.5,1.0,-35.0,1,0.0,7.250600999999733
997,7,0.5,0.125,35.0,1,1.0,0.41130100000009406
998,7,0.5,1.0,-35.0,1,0.0,6.897899999999936
999,7,0.8,1.0,-35.0,-1,1.0,24.835400999999365
1000,7,0.5,0.5,-35.0,-1,1.0,0.6322009999994407
1001,7,0.5,0.25,35.0,-1,0.0,3.982201000000714
1002,7,0.5,0.125,-35.0,-1,1.0,3.465701000000081
1003,7,0.5,0.125,-35.0,-1,1.0,5.319500999999946
1004,7,0.5,1.0,35.0,1,1.0,3.632701000000452
1005,7,0.5,0.5,-35.0,1,0.0,9.62630100000024
1006,7,0.5,0.25,35.0,1,1.0,26.38300099999924
1007,7,0.5,0.125,-35.0,1,0.0,12.02690100000018
1008,7,0.5,0.25,-35.0,0,0.0,59.924300999999105
1009,7,0.5,0.25,-35.0,-1,1.0,0.49080099999991944
1010,7,0.5,0.5,-35.0,-1,1.0,4.702301000000261
1011,7,0.5,0.125,35.0,1,1.0,0.7829009999995833
1012,7,0.5,0.125,35.0,1,1.0,0.38310100000035163
1013,7,0.5,0.5,-35.0,-1,1.0,18.902501000000484
1014,7,0.5,1.0,35.0,1,1.0,5.066401000000042
1015,7,0.5,0.125,-35.0,1,0.0,34.26990099999966
1016,7,0.5,0.25,-35.0,-1,1.0,28.868901000000733
1017,7,0.5,0.125,-35.0,1,0.0,6.691100999999435
1018,7,0.5,0.125,-35.0,-1,1.0,3.998601000000235
1019,7,0.5,0.125,35.0,1,1.0,15.485101000000213
1020,7,0.5,0.125,-35.0,1,0.0,8.298401000000013
1021,7,0.5,0.125,35.0,0,0.0,59.95210099999986
1022,7,0.7,0.125,35.0,1,1.0,24.503300999999738
1023,7,0.5,1.0,-35.0,1,0.0,5.575401000000056
1024,7,0.8,1.0,-35.0,-1,1.0,29.052300999999716
1025,7,0.5,0.5,-35.0,1,0.0,13.829400999999962
1026,7,0.5,0.125,-35.0,-1,1.0,10.886601000000155
1027,7,0.5,1.0,-35.0,-1,1.0,4.573500999999851
1028,7,0.5,0.125,-35.0,1,0.0,20.290200999999797
1,8,0.5,0.5,-35.0,-1,1.0,0.7511999999999999
2,8,0.5,0.25,35.0,1,1.0,0.6570999999999998
3,8,0.5,0.5,-35.0,-1,1.0,3.3932
4,8,0.5,0.25,-35.0,-1,1.0,0.5792999999999999
5,8,0.5,0.125,-35.0,-1,1.0,0.44939999999999714
6,8,0.5,0.125,-35.0,1,0.0,0.22030000000000172
7,8,0.6,0.125,-35.0,-1,1.0,0.6824000000000083
8,8,0.5,0.5,35.0,1,1.0,0.2891000000000048
9,8,0.5,1.0,35.0,1,1.0,0.3370000000000033
10,8,0.5,0.5,-35.0,-1,1.0,1.3190000000000026
11,8,0.5,1.0,-35.0,1,0.0,0.3365000000000009
12,8,0.5,1.0,-35.0,-1,1.0,0.6116000000000028
13,8,0.5,0.5,35.0,1,1.0,0.21600000000000108
14,8,0.5,0.25,35.0,1,1.0,0.302599999999984
15,8,0.5,0.25,-35.0,-1,1.0,2.036199999999994
16,8,0.5,1.0,-35.0,-1,1.0,0.8212000000000046
17,8,0.5,0.5,-35.0,-1,1.0,0.8295999999999992
18,8,0.5,1.0,35.0,1,1.0,0.2528999999999968
19,8,0.5,0.125,35.0,1,1.0,0.262299999999982
20,8,0.5,0.25,-35.0,-1,1.0,0.46819999999999595
21,8,0.5,0.125,35.0,-1,0.0,1.3284999999999911
22,8,0.5,0.125,-35.0,-1,1.0,0.4983000000000004
23,8,0.5,1.0,-35.0,-1,1.0,0.27429999999999666
24,8,0.5,1.0,-35.0,-1,1.0,1.8504999999999967
25,8,0.5,1.0,35.0,1,1.0,0.48449999999998283
26,8,0.5,0.125,35.0,-1,0.0,0.4052999999999969
27,8,0.5,0.25,35.0,1,1.0,0.27129999999999654
28,8,0.5,1.0,35.0,1,1.0,0.2622999999999962
29,8,0.5,0.125,35.0,-1,0.0,2.5392999999999972
30,8,0.5,0.125,-35.0,1,0.0,0.2774000000000285
31,8,0.5,0.25,35.0,1,1.0,0.3824000000000183
32,8,0.5,0.5,35.0,1,1.0,0.22099999999997522
33,8,0.5,0.5,35.0,1,1.0,0.2758000000000038
34,8,0.5,0.25,35.0,1,1.0,0.34780000000000655
35,8,0.5,1.0,35.0,1,1.0,0.29980000000000473
36,8,0.5,0.25,35.0,1,1.0,0.7296999999999798
37,8,0.5,0.5,-35.0,-1,1.0,0.7154000000000167
38,8,0.5,0.125,-35.0,-1,1.0,2.9354999999999905
39,8,0.5,1.0,-35.0,-1,1.0,0.700099999999992
40,8,0.5,0.5,-35.0,-1,1.0,0.4625000000000057
41,8,0.5,0.25,35.0,1,1.0,0.2704000000000235
42,8,0.5,1.0,35.0,-1,0.0,0.6107000000000085
43,8,0.5,0.25,-35.0,-1,1.0,0.28160000000002583
44,8,0.5,0.125,-35.0,-1,1.0,0.512800000000027
45,8,0.5,0.5,-35.0,-1,1.0,0.2615999999999872
46,8,0.5,0.0625,-35.0,-1,1.0,0.8263000000000034
47,8,0.5,0.125,-35.0,-1,1.0,3.0586999999999875
48,8,0.5,0.125,-35.0,-1,1.0,0.6845000000000141
49,8,0.5,0.25,-35.0,-1,1.0,0.665300000000002
50,8,0.5,0.125,35.0,-1,0.0,1.4074999999999989
51,8,0.5,0.0625,-35.0,-1,1.0,0.5090000000000146
52,8,0.5,1.0,-35.0,-1,1.0,0.1484999999999843
53,8,0.5,1.0,-35.0,-1,1.0,0.6392000000000166
54,8,0.5,0.0625,-35.0,-1,1.0,0.6735000000000184
55,8,0.5,0.0625,-35.0,-1,1.0,0.5416000000000167
56,8,0.5,0.125,-35.0,-1,1.0,3.454800000000006
57,8,0.5,0.25,35.0,-1,0.0,1.3941000000000088
58,8,0.0,0.25,35.0,-1,0.0,0.28759999999999764
59,8,0.5,1.0,35.0,1,1.0,0.26659999999998263
60,8,0.5,0.25,-35.0,-1,1.0,4.3262000000000285
61,8,0.5,0.125,-35.0,-1,1.0,0.8415999999999713
62,8,0.5,0.25,35.0,-1,0.0,0.8420000000000414
63,8,0.5,0.25,-35.0,-1,1.0,0.3291999999999575
64,8,0.5,0.25,-35.0,-1,1.0,3.4692999999999756
65,8,0.5,1.0,-35.0,-1,1.0,1.3016999999999825
66,8,0.5,0.125,-35.0,-1,1.0,0.46359999999998536
67,8,0.5,0.0625,35.0,-1,0.0,0.8740999999999417
68,8,0.5,0.125,-35.0,-1,1.0,0.44599999999996953
69,8,0.5,0.0625,-35.0,-1,1.0,2.904299999999978
70,8,0.5,0.25,35.0,-1,0.0,1.8457999999999402
71,8,0.0,0.25,35.0,-1,0.0,0.5109999999999673
72,8,0.5,1.0,35.0,1,1.0,0.2962999999999738
73,8,0.5,0.25,-35.0,-1,1.0,0.43439999999998236
74,8,0.5,0.5,35.0,-1,0.0,3.5237000000000194
75,8,0.5,0.25,35.0,1,1.0,0.34499999999997044
76,8,0.5,0.5,35.0,-1,0.0,0.765199999999993
77,8,0.5,0.0625,-35.0,-1,1.0,0.7326999999999657
78,8,0.5,0.125,-35.0,-1,1.0,2.672399999999982
79,8,0.5,0.125,35.0,-1,0.0,0.6150000000000091
80,8,0.5,0.125,35.0,-1,0.0,0.431699999999978
81,8,0.5,0.25,35.0,-1,0.0,0.3342000000000098
82,8,0.5,0.125,35.0,-1,0.0,0.3997999999999706
83,8,0.5,0.25,-35.0,-1,1.0,0.3112000000000421
84,8,0.5,0.25,35.0,-1,0.0,0.9201999999999657
85,8,0.5,0.125,-35.0,-1,1.0,0.31979999999998654
86,8,0.5,0.25,-35.0,-1,1.0,0.6484999999999559
87,8,0.5,0.25,35.0,1,1.0,0.348700000000008
88,8,0.5,0.5,35.0,1,1.0,0.366800000000012
89,8,0.5,0.125,35.0,1,1.0,0.2548999999999637
90,8,0.5,0.125,-35.0,-1,1.0,0.7299999999999613
91,8,0.5,0.125,-35.0,-1,1.0,0.27319999999997435
92,8,0.5,0.5,-35.0,-1,1.0,0.6499000000000024
93,8,0.5,0.0625,-35.0,-1,1.0,1.8798999999999069
94,8,0.5,1.0,35.0,1,1.0,0.269299999999987
95,8,0.5,0.125,-35.0,1,0.0,0.30899900000002845
96,8,0.5,0.125,-35.0,-1,1.0,0.4689999999999941
97,8,0.5,0.5,35.0,1,1.0,0.2693999999999619
98,8,0.5,0.5,-35.0,-1,1.0,3.9524999999999864
99,8,0.5,0.5,-35.0,-1,1.0,0.46790000000004284
100,8,0.5,0.125,35.0,1,1.0,0.27379999999999427
101,8,0.5,0.125,-35.0,-1,1.0,0.4978999999999587
102,8,0.5,0.0625,35.0,1,1.0,0.9005999999999972
103,8,0.5,0.0625,-35.0,1,0.0,0.30869999999998754
104,8,0.6,0.0625,35.0,-1,0.0,0.24389999999999645
105,8,0.5,1.0,35.0,1,1.0,0.8491999999999393
106,8,0.5,0.0625,-35.0,-1,1.0,0.9230999999999767
107,8,0.5,1.0,35.0,1,1.0,0.2480000000000473
108,8,0.5,0.5,-35.0,-1,1.0,0.39699999999999136
109,8,0.5,1.0,35.0,1,1.0,0.98599999999999
110,8,0.5,0.0625,35.0,-1,0.0,0.5888999999999669
111,8,0.5,0.25,35.0,1,1.0,0.25859999999994443
112,8,0.5,0.125,35.0,1,1.0,0.30560000000002674
113,8,0.5,0.125,-35.0,-1,1.0,1.3310000000000173
114,8,0.5,0.125,35.0,1,1.0,0.8352999999999611
115,8,0.5,0.125,-35.0,-1,1.0,1.8269999999999413
116,8,0.5,1.0,35.0,1,1.0,0.22049999999995862
117,8,0.5,0.125,-35.0,-1,1.0,0.30299999999994043
118,8,0.5,0.25,35.0,1,1.0,0.3900000000000432
119,8,0.5,1.0,35.0,1,1.0,0.42739999999997735
120,8,0.5,1.0,-35.0,-1,1.0,0.5393999999999437
121,8,0.5,1.0,-35.0,-1,1.0,0.4604999999999677
122,8,0.5,0.0625,-35.0,-1,1.0,0.11799999999993815
123,8,0.5,0.0625,-35.0,-1,1.0,0.38659999999993033
124,8,0.5,0.25,35.0,1,1.0,0.2290999999999599
125,8,0.5,0.125,-35.0,-1,1.0,0.27249999999997954
126,8,0.5,0.25,35.0,1,1.0,0.2150999999999499
127,8,0.5,0.5,35.0,-1,0.0,0.2570999999999799
128,8,0.5,0.0625,35.0,1,1.0,0.28120000000001255
129,8,0.5,0.5,35.0,1,1.0,0.23510000000010223
130,8,0.5,1.0,-35.0,-1,1.0,0.5910999999999831
131,8,0.5,0.5,35.0,-1,0.0,0.35360000000002856
132,8,0.5,0.0625,-35.0,-1,1.0,0.48040000000003147
133,8,0.5,0.0625,35.0,1,1.0,0.24110000000007403
134,8,0.5,0.5,35.0,-1,0.0,1.0849999999999227
135,8,0.5,0.25,-35.0,-1,1.0,0.47640000000001237
136,8,0.5,0.0625,35.0,-1,0.0,1.0013000000000147
137,8,0.5,0.125,35.0,-1,0.0,0.504099999999994
138,8,0.5,0.0625,-35.0,-1,1.0,0.3854999999999791
139,8,0.5,0.125,35.0,-1,0.0,0.3125999999999749
140,8,0.5,0.125,-35.0,-1,1.0,0.25310000000001764
141,8,0.5,0.5,35.0,-1,0.0,0.49909999999999854
142,8,0.5,0.25,35.0,-1,0.0,0.09129999999993288
143,8,0.5,0.125,35.0,1,1.0,0.350400000000036
144,8,0.5,0.25,-35.0,-1,1.0,0.9162000000000035
145,8,0.5,0.5,-35.0,-1,1.0,0.9990000000000236
146,8,0.5,0.25,35.0,1,1.0,0.5141999999999598
147,8,0.5,1.0,35.0,1,1.0,0.5647000000000162
148,8,0.5,1.0,35.0,-1,0.0,5.5738999999999805
149,8,0.3,1.0,35.0,1,1.0,0.5502999999999929
150,8,0.5,1.0,35.0,1,1.0,1.2445000000000164
151,8,0.5,0.5,-35.0,-1,1.0,3.4043000000000347
152,8,0.5,1.0,35.0,1,1.0,0.7987000000000535
153,8,0.5,0.0625,-35.0,-1,1.0,0.4821999999999207
154,8,0.5,0.0625,35.0,-1,0.0,0.7852000000000317
155,8,0.5,0.0625,35.0,-1,0.0,0.5384000000000242
156,8,0.5,0.5,-35.0,-1,1.0,0.8803000000000338
157,8,0.5,0.25,35.0,1,1.0,0.3383000000000038
158,8,0.5,0.0625,-35.0,-1,1.0,0.7771999999999935
159,8,0.5,0.125,-35.0,-1,1.0,0.6357000000000426
160,8,0.5,0.25,-35.0,-1,1.0,1.5214000000000851
161,8,0.5,0.25,-35.0,1,0.0,0.2682999999999538
162,8,0.5,0.0625,-35.0,-1,1.0,0.42029999999999745
163,8,0.5,0.5,-35.0,-1,1.0,2.1823000000000548
164,8,0.5,0.125,-35.0,-1,1.0,3.4581000000000586
165,8,0.5,0.0625,35.0,-1,0.0,1.4478000000000293
166,8,0.2,0.0625,-35.0,-1,1.0,0.3693999999999278
167,8,0.5,1.0,35.0,1,1.0,0.2624000000000706
168,8,0.5,0.125,35.0,1,1.0,0.3723000000001093
169,8,0.5,0.25,35.0,1,1.0,0.2822000000001026
170,8,0.5,1.0,35.0,1,1.0,0.9765999999999622
171,8,0.5,0.0625,35.0,-1,0.0,4.262100000000032
172,8,0.5,0.125,35.0,1,1.0,0.30759999999997945
173,8,0.5,1.0,-35.0,-1,1.0,0.5054000000000087
174,8,0.5,1.0,-35.0,-1,1.0,1.283100000000104
175,8,0.5,0.0625,-35.0,-1,1.0,4.077300000000037
176,8,0.5,1.0,35.0,1,1.0,0.2704000000001088
177,8,0.5,0.25,-35.0,-1,1.0,0.6084000000000742
178,8,0.5,0.125,-35.0,-1,1.0,3.9261000000000195
179,8,0.5,1.0,35.0,1,1.0,0.2938000000000329
180,8,0.5,0.0625,35.0,-1,0.0,0.36749999999995
181,8,0.5,0.125,-35.0,-1,1.0,0.3096000000001595
182,8,0.5,1.0,35.0,1,1.0,0.2784999999998945
183,8,0.5,0.0625,35.0,-1,0.0,3.6474000000000615
184,8,0.5,0.125,35.0,-1,0.0,0.5595000000000709
185,8,0.5,0.25,-35.0,-1,1.0,0.22680000000002565
186,8,0.5,1.0,-35.0,-1,1.0,0.4796000000001186
187,8,0.5,0.125,35.0,-1,0.0,4.334500000000048
188,8,0.5,0.0625,-35.0,-1,1.0,0.2478000000000975
189,8,0.5,0.25,35.0,1,1.0,0.3106000000000222
190,8,0.5,0.5,-35.0,-1,1.0,0.07560000000000855
191,8,0.5,0.25,-35.0,-1,1.0,0.5089000000000397
192,8,0.5,0.0625,-35.0,-1,1.0,0.2916000000001304
193,8,0.5,1.0,-35.0,-1,1.0,6.331700000000069
194,8,0.5,0.25,-35.0,-1,1.0,0.4814999999999827
195,8,0.5,1.0,-35.0,-1,1.0,0.44449900000006437
196,8,0.5,1.0,35.0,1,1.0,0.3228000000000293
197,8,0.5,1.0,-35.0,-1,1.0,0.4936000000000149
198,8,0.5,1.0,-35.0,-1,1.0,9.120599999999968
199,8,0.5,0.5,-35.0,-1,1.0,3.586599999999976
200,8,0.5,1.0,35.0,1,1.0,0.23940000000004602
201,8,0.5,0.5,-35.0,-1,1.0,0.2836000000000922
202,8,0.5,0.25,35.0,1,1.0,0.3466000000000804
203,8,0.5,0.5,35.0,1,1.0,0.5346000000000686
204,8,0.5,0.125,-35.0,-1,1.0,5.337599999999952
205,8,0.5,1.0,35.0,1,1.0,0.2537000000000944
206,8,0.5,0.0625,-35.0,-1,1.0,6.382600000000025
207,8,0.5,0.25,-35.0,-1,1.0,0.3180000000000973
208,8,0.5,0.5,35.0,1,1.0,0.6940000000000737
209,8,0.5,0.0625,35.0,-1,0.0,7.182999999999993
210,8,0.5,0.125,35.0,-1,0.0,0.43670000000008713
211,8,0.5,0.0625,-35.0,-1,1.0,0.4453000000000884
212,8,0.5,0.5,-35.0,-1,1.0,0.4113000000000966
213,8,0.5,0.125,-35.0,-1,1.0,0.48689999999999145
214,8,0.5,0.0625,-35.0,-1,1.0,3.7784000000000333
215,8,0.5,1.0,35.0,1,1.0,0.471300000000042
216,8,0.5,0.0625,-35.0,-1,1.0,0.283800000000042
217,8,0.5,0.5,-35.0,-1,1.0,0.8138000000001284
218,8,0.5,0.0625,35.0,-1,0.0,0.9067000000000007
219,8,0.1,0.0625,35.0,-1,0.0,0.49300000000005184
220,8,0.5,1.0,35.0,-1,0.0,4.739200000000096
221,8,0.5,0.25,35.0,-1,0.0,0.6516000000000304
222,8,0.1,0.25,35.0,1,1.0,0.2999999999999545
223,8,0.5,1.0,35.0,1,1.0,0.11390000000005784
224,8,0.5,0.0625,-35.0,-1,1.0,0.3829999999999245
225,8,0.5,0.125,35.0,-1,0.0,1.044300000000021
226,8,0.5,0.0625,35.0,1,1.0,0.3484000000000833
227,8,0.5,0.5,-35.0,-1,1.0,0.5958000000000538
228,8,0.5,0.25,-35.0,-1,1.0,1.0937000000000126
229,8,0.5,0.125,-35.0,1,0.0,4.866700000000037
230,8,0.5,0.125,-35.0,-1,1.0,0.4599000000000615
231,8,0.5,0.0625,35.0,-1,0.0,0.6750000000000682
232,8,0.5,0.125,-35.0,-1,1.0,4.0412000000000035
233,8,0.5,0.25,-35.0,-1,1.0,0.3503000000001748
234,8,0.5,0.25,35.0,-1,0.0,6.249900000000025
235,8,0.5,0.125,-35.0,-1,1.0,4.4179000000000315
236,8,0.5,0.125,35.0,-1,0.0,4.234900000000152
237,8,0.1,0.125,35.0,-1,0.0,0.5488000000000284
238,8,0.5,0.5,35.0,1,1.0,0.9919000000001006
239,8,0.5,0.5,35.0,-1,0.0,0.2660000000000764
240,8,0.1,0.5,-35.0,-1,1.0,2.386700000000019
241,8,0.5,1.0,-35.0,-1,1.0,0.45449999999993906
242,8,0.5,1.0,35.0,1,1.0,0.504500000000121
243,8,0.5,0.125,35.0,-1,0.0,0.4479000000000042
244,8,0.5,0.0625,-35.0,-1,1.0,0.5529999999999973
245,8,0.5,0.25,35.0,1,1.0,0.5040000000001328
246,8,0.5,1.0,35.0,1,1.0,7.5340000000001055
247,8,0.5,0.5,35.0,-1,0.0,0.6210000000000946
248,8,0.4,0.5,-35.0,-1,1.0,0.8741000000001122
249,8,0.5,1.0,-35.0,-1,1.0,5.130900000000111
250,8,0.5,0.5,-35.0,-1,1.0,4.280999999999949
251,8,0.5,1.0,-35.0,-1,1.0,2.0713999999998123
252,8,0.5,0.0625,-35.0,-1,1.0,3.9049999999999727
253,8,0.5,0.5,35.0,1,1.0,0.5381999999999607
254,8,0.5,0.25,35.0,1,1.0,0.3853999999996631
255,8,0.5,0.25,-35.0,-1,1.0,1.7747999999999138
256,8,0.5,0.0,35.0,1,1.0,0.5155999999999494
257,8,0.5,0.125,-35.0,-1,1.0,7.5017999999997755
258,8,0.5,0.5,-35.0,-1,1.0,1.1954999999998108
259,8,0.5,1.0,35.0,1,1.0,0.37209999999981846
260,8,0.5,0.0,35.0,-1,0.0,0.47890000000006694
261,8,0.4,0.0,-35.0,-1,1.0,0.9459999999999127
262,8,0.5,0.5,35.0,1,1.0,0.5724999999999909
263,8,0.5,1.0,35.0,1,1.0,0.4521999999997206
264,8,0.5,0.0625,35.0,-1,0.0,0.4330999999999676
265,8,0.4,0.0625,-35.0,-1,1.0,0.6995999999999185
266,8,0.5,0.5,35.0,1,1.0,0.7326999999997952
267,8,0.5,0.0625,35.0,-1,0.0,7.542599999999766
268,8,0.5,0.25,-35.0,-1,1.0,0.4725999999998294
269,8,0.5,1.0,35.0,1,1.0,0.2761999999997897
270,8,0.5,1.0,35.0,1,1.0,0.28949999999986176
271,8,0.5,0.0625,-35.0,-1,1.0,1.303698999999824
272,8,0.5,0.0,35.0,-1,0.0,0.36619999999993524
273,8,0.5,0.125,-35.0,-1,1.0,0.4862000000000535
274,8,0.5,0.125,-35.0,-1,1.0,0.3932999999999538
275,8,0.5,0.0,35.0,-1,0.0,0.3766000000000531
276,8,0.3,0.0,35.0,-1,0.0,0.5667999999998301
277,8,0.5,1.0,-35.0,-1,1.0,0.3897999999999229
278,8,0.5,1.0,35.0,1,1.0,0.24330000000009022
279,8,0.5,0.0,35.0,-1,0.0,0.4600000000000364
280,8,0.5,0.0,35.0,-1,0.0,1.0972999999999047
281,8,0.1,0.0,-35.0,-1,1.0,0.3269999999999982
282,8,0.5,0.5,35.0,1,1.0,0.32009999999991123
283,8,0.5,0.125,35.0,1,1.0,0.2603999999998905
284,8,0.5,0.0625,35.0,-1,0.0,0.5269999999998163
285,8,0.5,0.125,-35.0,-1,1.0,0.3772999999998774
286,8,0.5,0.0625,35.0,1,1.0,0.6270999999999276
287,8,0.5,0.25,-35.0,-1,1.0,0.4842999999998483
288,8,0.5,0.25,35.0,1,1.0,0.2804000000000997
289,8,0.5,0.125,35.0,-1,0.0,0.3546999999998661
290,8,0.5,0.125,-35.0,-1,1.0,0.5342000000000553
291,8,0.5,1.0,35.0,1,1.0,0.24260000000003856
292,8,0.5,0.125,35.0,1,1.0,0.2880000000000109
293,8,0.5,0.0,-35.0,-1,1.0,0.7743999999997868
294,8,0.5,0.125,-35.0,-1,1.0,0.6374999999998181
295,8,0.5,0.5,35.0,1,1.0,0.5846000000001368
296,8,0.5,0.25,-35.0,-1,1.0,3.6748000000000047
297,8,0.5,0.0,-35.0,-1,1.0,4.701399999999921
298,8,0.5,0.0625,-35.0,-1,1.0,0.278400000000147
299,8,0.5,0.25,-35.0,1,0.0,0.31169999999997344
300,8,0.5,0.0625,35.0,-1,0.0,0.37819899999999507
301,8,0.5,0.0625,35.0,-1,0.0,0.5650000000000546
302,8,0.5,0.125,35.0,-1,0.0,0.2923999999998159
303,8,0.5,0.125,35.0,-1,0.0,0.34839999999985594
304,8,0.5,0.0,-35.0,-1,1.0,0.07839999999987413
305,8,0.5,0.125,-35.0,-1,1.0,0.24549999999976535
306,8,0.5,0.125,-35.0,-1,1.0,0.4716999999998279
307,8,0.5,0.0,35.0,-1,0.0,4.828799999999774
308,8,0.5,0.25,35.0,-1,0.0,0.11889999999971224
309,8,0.5,0.125,-35.0,-1,1.0,0.2924000000000433
310,8,0.5,0.0,35.0,-1,0.0,0.3729999999998199
311,8,0.0,0.0,35.0,-1,0.0,0.37249999999994543
312,8,0.5,0.5,35.0,-1,0.0,0.5423000000000684
313,8,0.5,0.25,-35.0,-1,1.0,0.6527999999996155
314,8,0.5,0.0,35.0,-1,0.0,3.4329999999999927
315,8,0.5,0.125,35.0,1,1.0,0.2864999999999327
316,8,0.5,0.5,35.0,1,1.0,0.296500000000151
317,8,0.5,0.5,35.0,1,1.0,0.6195000000000164
318,8,0.5,0.25,-35.0,-1,1.0,0.369499999999789
319,8,0.5,0.5,35.0,1,1.0,0.23949999999990723
320,8,0.5,0.25,-35.0,-1,1.0,0.6070999999999458
321,8,0.5,0.125,35.0,1,1.0,0.2829999999999018
322,8,0.5,0.0625,-35.0,-1,1.0,0.482899999999745
323,8,0.5,0.25,-35.0,-1,1.0,0.453499999999849
324,8,0.5,0.25,-35.0,-1,1.0,0.39400000000000546
325,8,0.5,0.5,35.0,1,1.0,0.2705999999998312
326,8,0.5,0.5,-35.0,-1,1.0,5.723499999999831
327,8,0.5,0.25,-35.0,1,0.0,0.2865990000000238
328,8,0.5,0.0625,-35.0,-1,1.0,0.9367999999999483
329,8,0.5,0.5,35.0,1,1.0,0.0671999999997297
330,8,0.5,0.0,-35.0,-1,1.0,6.298600000000079
331,8,0.5,0.125,35.0,-1,0.0,0.2625000000000455
332,8,0.5,0.0625,-35.0,-1,1.0,0.5126999999999953
333,8,0.5,0.25,-35.0,-1,1.0,0.8927000000001044
334,8,0.5,0.125,35.0,1,1.0,0.3656999999998334
335,8,0.5,1.0,-35.0,-1,1.0,0.4458999999999378
336,8,0.5,0.0,-35.0,1,0.0,0.27919999999994616
337,8,0.5,0.25,35.0,-1,0.0,0.5692999999996573
338,8,0.3,0.25,35.0,-1,0.0,0.5057999999999083
339,8,0.5,0.5,35.0,1,1.0,0.30939999999986867
340,8,0.5,0.0,-35.0,-1,1.0,5.566299999999956
341,8,0.5,0.0625,-35.0,-1,1.0,0.782799999999952
342,8,0.5,1.0,35.0,1,1.0,0.3329999999998563
343,8,0.5,0.5,35.0,1,1.0,0.9067999999999756
344,8,0.5,0.0,35.0,-1,0.0,0.5964000000001306
345,8,0.5,0.125,-35.0,-1,1.0,0.736699999999928
346,8,0.5,0.5,35.0,1,1.0,0.2664999999999509
347,8,0.5,0.125,35.0,-1,0.0,0.5365999999999076
348,8,0.5,0.0,35.0,1,1.0,0.2568999999998596
349,8,0.5,0.5,35.0,1,1.0,0.3068000000000666
350,8,0.5,1.0,35.0,1,1.0,0.2737999999999374
351,8,0.5,0.5,35.0,1,1.0,0.2500999999997475
352,8,0.5,1.0,35.0,1,1.0,0.35379999999986467
353,8,0.5,0.5,-35.0,-1,1.0,0.6671999999998661
354,8,0.5,0.5,-35.0,1,0.0,0.26040000000011787
355,8,0.7,0.5,35.0,1,1.0,0.49379999999973734
356,8,0.5,0.5,-35.0,-1,1.0,0.6107999999999265
357,8,0.5,0.5,35.0,1,1.0,0.5240000000001146
358,8,0.5,0.125,35.0,-1,0.0,5.464199999999892
359,8,0.5,0.125,35.0,1,1.0,0.22759999999993852
360,8,0.5,0.125,35.0,1,1.0,0.5808999999999287
361,8,0.5,0.125,35.0,1,1.0,0.05089999999995598
362,8,0.5,0.0625,35.0,1,1.0,0.9543999999998505
363,8,0.5,0.0,35.0,-1,0.0,0.41489999999976135
364,8,0.5,0.0,35.0,-1,0.0,0.4378999999996722
365,8,0.6,0.0,35.0,-1,0.0,4.121199999999817
366,8,0.5,0.5,35.0,1,1.0,0.32159999999998945
367,8,0.5,0.25,-35.0,-1,1.0,0.4480999999998403
368,8,0.5,0.125,35.0,1,1.0,0.5014999999998508
369,8,0.5,0.125,35.0,1,1.0,0.2783999999999196
370,8,0.5,0.5,-35.0,1,0.0,0.26159999999981665
371,8,0.5,0.0625,35.0,1,1.0,0.36199999999985266
372,8,0.5,0.25,35.0,1,1.0,0.26539999999977226
373,8,0.5,0.5,-35.0,-1,1.0,0.568599999999833
374,8,0.5,1.0,-35.0,-1,1.0,10.105299999999716
375,8,0.5,0.125,35.0,1,1.0,1.4721999999999298
376,8,0.5,1.0,-35.0,1,0.0,0.3160000000000309
377,8,0.5,0.125,35.0,1,1.0,0.5459999999998217
378,8,0.5,0.0625,35.0,-1,0.0,0.8557999999998174
379,8,0.7,0.0625,-35.0,-1,1.0,10.279299999999921
380,8,0.5,0.5,-35.0,-1,1.0,0.48949999999990723
381,8,0.5,0.0625,35.0,-1,0.0,7.4430999999999585
382,8,0.5,0.0,35.0,-1,0.0,11.812999999999874
383,8,0.5,0.0,35.0,-1,0.0,0.6766999999999825
384,8,0.5,0.25,35.0,1,1.0,0.35009999999988395
385,8,0.5,0.0625,35.0,1,1.0,0.29019999999968604
386,8,0.5,0.125,-35.0,-1,1.0,0.7633999999998196
387,8,0.5,0.5,35.0,1,1.0,1.7502999999996973
388,8,0.5,0.25,35.0,-1,0.0,0.5369999999998072
389,8,0.5,0.25,-35.0,-1,1.0,0.9704000000001543
390,8,0.5,0.25,35.0,-1,0.0,0.6105000000000018
391,8,0.5,0.0625,35.0,-1,0.0,0.8774000000000797
392,8,0.5,0.0625,-35.0,-1,1.0,0.6441999999999553
393,8,0.5,1.0,-35.0,-1,1.0,5.534198999999944
394,8,0.5,0.125,35.0,-1,0.0,0.2942000000000462
395,8,0.2,0.125,35.0,1,1.0,0.47089999999980137
396,8,0.5,1.0,35.0,1,1.0,0.29110000000014224
397,8,0.5,0.0625,-35.0,-1,1.0,7.051099999999906
398,8,0.5,0.25,-35.0,-1,1.0,0.3447999999998501
399,8,0.5,0.0625,35.0,1,1.0,0.4779999999998381
400,8,0.5,0.5,35.0,-1,0.0,0.48460000000000036
401,8,0.3,0.5,35.0,-1,0.0,0.4782000000000153
402,8,0.3,0.5,-35.0,-1,1.0,0.39160000000015316
403,8,0.5,0.5,35.0,-1,0.0,0.5048999999999069
404,8,0.5,0.25,-35.0,-1,1.0,0.09499999999979991
405,8,0.5,0.125,35.0,-1,0.0,0.8782999999998538
406,8,0.5,0.125,35.0,1,1.0,0.3223000000000411
407,8,0.5,0.125,35.0,-1,0.0,0.48529999999982465
408,8,0.2,0.125,-35.0,-1,1.0,0.5721000000000913
409,8,0.5,1.0,-35.0,-1,1.0,0.8818999999998596
410,8,0.5,0.5,-35.0,-1,1.0,0.3786000000000058
411,8,0.5,0.125,-35.0,-1,1.0,0.39869999999996253
412,8,0.5,0.125,35.0,-1,0.0,0.3186999999998079
413,8,0.5,0.0625,-35.0,-1,1.0,0.40239999999994325
414,8,0.5,0.25,35.0,1,1.0,0.2455000000002201
415,8,0.5,1.0,-35.0,-1,1.0,0.4657999999999447
416,8,0.5,0.5,-35.0,-1,1.0,0.7590999999999894
417,8,0.5,0.0,35.0,-1,0.0,6.212399999999889
418,8,0.5,0.0625,-35.0,-1,1.0,0.42259999999987485
419,8,0.5,0.125,-35.0,-1,1.0,0.2527999999997519
420,8,0.5,0.125,35.0,1,1.0,0.266399999999976
421,8,0.5,1.0,35.0,1,1.0,0.45279999999979736
422,8,0.5,0.0,-35.0,-1,1.0,0.8629000000000815
423,8,0.5,0.25,-35.0,-1,1.0,0.45299999999997453
424,8,0.5,0.25,35.0,1,1.0,0.3163999999999305
425,8,0.5,0.0,35.0,-1,0.0,5.456399999999803
426,8,0.5,0.0,-35.0,-1,1.0,0.4666999999997188
427,8,0.5,0.125,35.0,-1,0.0,0.8265000000001237
428,8,0.5,0.25,-35.0,-1,1.0,0.573399999999765
429,8,0.5,0.0,35.0,-1,0.0,0.4334999999998672
430,8,0.3,0.0,-35.0,-1,1.0,1.706899999999905
431,8,0.5,1.0,35.0,1,1.0,0.35029999999983374
432,8,0.5,0.0625,-35.0,-1,1.0,0.34699999999998
433,8,0.5,0.125,35.0,1,1.0,0.563799999999901
434,8,0.5,0.125,35.0,-1,0.0,0.5154999999999745
435,8,0.5,0.25,-35.0,-1,1.0,0.45249999999987267
436,8,0.5,0.125,35.0,1,1.0,0.2889999999997599
437,8,0.5,0.125,35.0,-1,0.0,9.152499999999918
438,8,0.3,0.125,35.0,1,1.0,0.40619999999989886
439,8,0.5,1.0,35.0,1,1.0,0.32600000000002183
440,8,0.5,0.0625,35.0,-1,0.0,6.679599999999937
441,8,0.5,0.0625,35.0,-1,0.0,1.0635999999999513
442,8,0.5,0.5,35.0,1,1.0,0.8625999999999294
443,8,0.5,0.25,35.0,1,1.0,0.3333999999997559
444,8,0.5,0.0,-35.0,1,0.0,0.24300000000016553
445,8,0.5,0.0625,35.0,1,1.0,0.3269000000000233
446,8,0.5,0.25,35.0,1,1.0,0.2898999999999887
447,8,0.5,0.5,-35.0,-1,1.0,0.5665999999996529
448,8,0.5,0.25,35.0,1,1.0,0.9766000000001895
449,8,0.5,0.125,35.0,-1,0.0,0.5103999999998905
450,8,0.5,0.0,-35.0,-1,1.0,0.5733999999999924
451,8,0.5,0.125,-35.0,-1,1.0,0.7000000000000455
452,8,0.5,0.125,-35.0,-1,1.0,0.5707999999999629
453,8,0.5,0.125,-35.0,1,0.0,0.223700000000008
454,8,0.5,0.0,-35.0,-1,1.0,11.663699999999835
455,8,0.5,0.5,35.0,1,1.0,0.36429999999995744
456,8,0.5,0.125,-35.0,-1,1.0,18.66099999999983
457,8,0.5,0.25,-35.0,-1,1.0,0.5009000000000015
458,8,0.5,0.5,35.0,1,1.0,0.18469999999979336
459,8,0.5,1.0,-35.0,-1,1.0,17.692099999999982
460,8,0.5,0.125,35.0,-1,0.0,5.958300000000008
461,8,0.3,0.125,-35.0,-1,1.0,16.335199999999986
462,8,0.5,0.5,-35.0,-1,1.0,7.502799999999979
463,8,0.5,0.25,-35.0,-1,1.0,40.969299999999976
464,8,0.5,0.5,35.0,1,1.0,1.7029999999995198
465,8,0.5,0.25,-35.0,-1,1.0,11.059899999999743
466,8,0.5,0.0,-35.0,-1,1.0,6.19399999999996
467,8,0.5,0.5,-35.0,-1,1.0,0.8501999999998588
468,8,0.5,0.125,-35.0,-1,1.0,4.886999999999716
469,8,0.5,0.0,-35.0,-1,1.0,6.297399999999925
470,8,0.5,0.0625,-35.0,-1,1.0,0.6472999999996318
471,8,0.5,0.125,-35.0,-1,1.0,0.31419999999980064
472,8,0.5,0.0,35.0,-1,0.0,0.8611000000000786
473,8,0.1,0.0,35.0,-1,0.0,0.45850000000018554
474,8,0.5,1.0,35.0,1,1.0,0.4080999999996493
475,8,0.5,0.0625,-35.0,-1,1.0,7.044399999999769
476,8,0.5,0.125,35.0,-1,0.0,0.39800000000013824
477,8,0.5,0.0,35.0,1,1.0,0.3314000000004853
478,8,0.5,0.0,35.0,-1,0.0,0.4679999999998472
479,8,0.2,0.0,35.0,-1,0.0,2.335099999999784
480,8,0.5,1.0,35.0,1,1.0,0.1981999999998152
481,8,0.5,0.0625,35.0,-1,0.0,7.048099999999977
482,8,0.5,0.25,-35.0,-1,1.0,0.5884000000000924
483,8,0.5,0.25,35.0,1,1.0,0.2620999999999185
484,8,0.5,0.0,-35.0,-1,1.0,0.7058000000001812
485,8,0.5,0.0625,35.0,1,1.0,0.559400000000096
486,8,0.5,0.0,35.0,-1,0.0,5.873000000000047
487,8,0.4,0.0,-35.0,1,0.0,0.456199999999626
488,8,0.5,1.0,35.0,1,1.0,0.3125999999997475
489,8,0.5,0.0625,35.0,-1,0.0,10.022600000000239
490,8,0.5,0.125,35.0,1,1.0,1.2229000000002088
491,8,0.5,0.25,35.0,1,1.0,7.983300000000327
492,8,0.5,1.0,35.0,1,1.0,0.27029999999967913
493,8,0.5,0.0625,35.0,1,1.0,0.3403000000002976
494,8,0.5,0.25,35.0,1,1.0,5.316499999999451
495,8,0.5,0.0625,35.0,1,1.0,1.4067000000000007
496,8,0.5,0.0,-35.0,-1,1.0,42.496999999999844
497,8,0.5,0.25,35.0,1,1.0,1.530999999999949
498,8,0.5,0.125,35.0,1,1.0,48.78809999999976
499,8,0.5,0.0625,35.0,-1,0.0,1.2519999999999527
500,8,0.5,0.125,35.0,-1,0.0,10.122499999999945
501,8,0.5,0.125,35.0,1,1.0,3.30580000000009
502,8,0.5,0.0,35.0,1,1.0,4.50919999999951
503,8,0.5,1.0,35.0,1,1.0,12.81309999999985
504,8,0.5,1.0,-35.0,-1,1.0,0.4196999999999207
505,8,0.5,0.0625,-35.0,-1,1.0,5.059599999999591
506,8,0.5,0.25,-35.0,-1,1.0,16.24330000000009
507,8,0.5,0.125,-35.0,-1,1.0,23.277000000000044
508,8,0.5,0.0,35.0,-1,0.0,4.877700000000004
509,8,0.5,0.125,35.0,1,1.0,0.4610999999995329
510,8,0.5,1.0,-35.0,-1,1.0,33.95759999999973
511,8,0.5,0.25,-35.0,-1,1.0,9.831899999999678
512,8,0.5,0.125,35.0,1,1.0,4.161800000000312
513,8,0.5,0.25,35.0,1,1.0,0.4318999999995867
514,8,0.5,0.125,-35.0,0,0.0,59.941899999999805
515,8,0.5,0.0625,35.0,1,1.0,12.421500999999807
516,8,0.5,1.0,-35.0,-1,1.0,5.723700999999892
517,8,0.5,0.125,35.0,1,1.0,19.58770099999947
518,8,0.5,0.25,-35.0,1,0.0,4.458100999999715
519,8,0.5,0.25,35.0,1,1.0,4.767901000000165
520,8,0.5,0.25,35.0,1,1.0,6.448201000000154
521,8,0.5,0.0625,-35.0,-1,1.0,52.92510099999981
522,8,0.5,0.125,35.0,1,1.0,2.4355009999994763
523,8,0.5,0.0625,-35.0,-1,1.0,27.582401000000118
524,8,0.5,0.0625,-35.0,-1,1.0,5.95330100000001
525,8,0.5,0.25,35.0,1,1.0,0.32030100000019956
526,8,0.5,1.0,-35.0,-1,1.0,14.680300999999872
527,8,0.5,0.125,35.0,1,1.0,12.18420100000003
528,8,0.5,0.0625,35.0,-1,0.0,0.7406009999995149
529,8,0.5,0.0625,35.0,1,1.0,1.5276010000002316
530,8,0.5,1.0,-35.0,1,0.0,12.610701000000063
531,8,0.5,0.0,35.0,1,1.0,2.6408010000000104
532,8,0.5,0.0,-35.0,1,0.0,4.3944009999995615
533,8,0.5,0.0625,35.0,-1,0.0,11.525501000000077
534,8,0.6,0.0625,35.0,1,1.0,4.311501000000135
535,8,0.5,1.0,-35.0,-1,1.0,9.872401000000082
536,8,0.5,1.0,-35.0,-1,1.0,19.768499999999676
537,8,0.5,0.25,35.0,1,1.0,8.119200999999975
538,8,0.5,0.0625,35.0,1,1.0,2.5096009999997477
539,8,0.5,0.0,-35.0,1,0.0,19.966301000000385
540,8,0.7,0.0,-35.0,1,0.0,31.73670099999981
541,8,0.5,1.0,-35.0,-1,1.0,1.913701000000401
542,8,0.5,0.0625,-35.0,-1,1.0,3.6143999999999323
543,8,0.5,0.0625,-35.0,-1,1.0,18.14080100000001
544,8,0.5,0.0,-35.0,1,0.0,3.744901000000027
545,8,0.5,0.0625,35.0,1,1.0,16.671000999999706
546,8,0.5,0.0625,35.0,1,1.0,1.028201000000081
547,8,0.5,0.0625,-35.0,1,0.0,10.735100999999759
548,8,0.5,0.125,-35.0,1,0.0,9.45200100000011
549,8,0.7,0.125,-35.0,1,0.0,16.4195009999994
550,8,0.5,1.0,-35.0,1,0.0,15.879100999999991
551,8,0.5,0.0625,-35.0,1,0.0,55.2261010000002
552,8,0.5,0.0625,-35.0,-1,1.0,8.084500999999818
553,8,0.5,0.125,-35.0,-1,1.0,12.987300999999661
554,8,0.5,0.0,-35.0,-1,1.0,5.284400999999889
555,8,0.5,0.125,-35.0,0,0.0,59.931101000000126
556,8,0.7,0.125,35.0,1,1.0,0.8159010000003946
557,8,0.5,1.0,-35.0,-1,1.0,3.677400999999918
558,8,0.5,0.0,35.0,1,1.0,45.650900999999976
559,8,0.5,1.0,-35.0,-1,1.0,49.20530099999996
560,8,0.5,0.25,35.0,1,1.0,0.40950100000009115
561,8,0.5,0.0625,35.0,1,1.0,13.176300999999967
562,8,0.5,0.0625,35.0,-1,0.0,2.65650099999948
563,8,0.5,0.25,35.0,1,1.0,2.4135009999999966
1,9,0.5,0.0,-35.0,1,0.0,5.3656999999999995
2,9,0.5,0.0,-35.0,1,0.0,8.0058
3,9,0.5,0.125,-35.0,-1,1.0,8.087299999999999
4,9,0.5,0.0625,-35.0,-1,1.0,5.839099999999998
5,9,0.5,0.125,35.0,1,1.0,4.555900000000001
6,9,0.5,0.0,-35.0,-1,1.0,3.1533999999999978
7,9,0.5,0.25,-35.0,-1,1.0,3.5035999999999987
8,9,0.5,0.0625,35.0,-1,0.0,3.381599999999999
9,9,0.5,0.0625,35.0,1,1.0,0.3422000000000054
10,9,0.5,0.25,-35.0,-1,1.0,0.43200000000000216
11,9,0.5,0.0625,35.0,-1,0.0,2.822500000000005
12,9,0.3,0.0625,35.0,1,1.0,0.46590000000000487
13,9,0.5,1.0,35.0,1,1.0,0.4316000000000031
14,9,0.5,1.0,-35.0,-1,1.0,3.5175999999999874
15,9,0.5,0.125,35.0,1,1.0,0.3634000000000128
16,9,0.5,0.0625,35.0,-1,0.0,1.6798000000000002
17,9,0.5,0.125,-35.0,-1,1.0,0.4475000000000051
18,9,0.5,1.0,35.0,1,1.0,0.3304000000000116
19,9,0.5,1.0,-35.0,-1,1.0,2.7368999999999915
20,9,0.5,0.0625,-35.0,-1,1.0,1.5219999999999914
21,9,0.5,0.0625,35.0,-1,0.0,3.57350000000001
22,9,0.5,0.25,35.0,1,1.0,0.3406999999999982
23,9,0.5,0.0625,-35.0,-1,1.0,3.0045000000000073
24,9,0.5,0.125,-35.0,-1,1.0,3.9184999999999945
25,9,0.5,0.0625,35.0,-1,0.0,1.1905989999999917
26,9,0.5,0.25,-35.0,-1,1.0,0.47469999999998436
27,9,0.5,1.0,35.0,1,1.0,0.3319999999999652
28,9,0.5,0.0625,35.0,-1,0.0,3.621499999999969
29,9,0.2,0.0625,35.0,1,1.0,0.21709999999998786
30,9,0.5,1.0,35.0,1,1.0,0.3942000000000121
31,9,0.5,0.0,35.0,-1,0.0,4.529600000000016
32,9,0.5,0.125,35.0,1,1.0,0.6224999999999739
33,9,0.5,0.25,35.0,1,1.0,0.5855999999999995
34,9,0.5,0.125,-35.0,-1,1.0,6.1422000000000025
35,9,0.5,0.125,-35.0,-1,1.0,4.917900000000003
36,9,0.5,0.125,-35.0,-1,1.0,5.744598999999994
37,9,0.5,0.0625,-35.0,-1,1.0,4.713799999999992
38,9,0.5,0.125,-35.0,-1,1.0,0.6574999999999989
39,9,0.5,0.0,-35.0,-1,1.0,4.817700000000002
40,9,0.5,1.0,-35.0,-1,1.0,0.6029999999999802
41,9,0.5,0.125,-35.0,-1,1.0,5.705700000000007
42,9,0.5,0.125,-35.0,-1,1.0,5.122399999999999
43,9,0.5,0.25,35.0,1,1.0,0.6487999999999943
44,9,0.5,0.125,35.0,-1,0.0,4.776199999999989
45,9,0.5,0.25,-35.0,-1,1.0,0.27899899999997047
46,9,0.5,0.125,35.0,1,1.0,0.3750999999999749
47,9,0.5,0.0625,35.0,-1,0.0,7.0685
48,9,0.5,0.125,-35.0,-1,1.0,6.851699999999994
49,9,0.5,0.125,35.0,1,1.0,4.925800000000038
50,9,0.5,0.0625,35.0,-1,0.0,0.8196999999999548
51,9,0.5,0.25,35.0,1,1.0,0.5491000000000099
52,9,0.5,0.125,35.0,1,1.0,0.4440999999999349
53,9,0.5,0.125,35.0,1,1.0,8.422499999999957
54,9,0.5,0.0625,35.0,1,1.0,7.225800000000049
55,9,0.5,0.125,35.0,1,1.0,0.1591999999999416
56,9,0.5,0.125,-35.0,-1,1.0,5.612300000000005
57,9,0.5,0.0625,-35.0,-1,1.0,2.4542000000000144
58,9,0.5,0.25,35.0,1,1.0,0.6067000000000462
59,9,0.5,1.0,35.0,1,1.0,2.6813999999999965
60,9,0.5,0.25,35.0,1,1.0,0.7698999999999501
61,9,0.5,1.0,35.0,1,1.0,1.7520999999999844
62,9,0.5,0.25,-35.0,-1,1.0,9.784699999999987
63,9,0.5,0.125,-35.0,-1,1.0,4.1089000000000055
64,9,0.5,1.0,35.0,1,1.0,0.46479999999996835
65,9,0.5,0.25,35.0,1,1.0,0.38319999999993115
66,9,0.5,0.0625,35.0,-1,0.0,5.03570000000002
67,9,0.5,0.125,35.0,1,1.0,0.3598999999999819
68,9,0.5,1.0,-35.0,-1,1.0,8.17629999999997
69,9,0.5,0.125,35.0,1,1.0,0.49579999999997426
70,9,0.5,0.0625,-35.0,-1,1.0,1.471400000000017
71,9,0.5,0.125,-35.0,-1,1.0,6.460800000000006
72,9,0.5,0.0625,-35.0,-1,1.0,4.831999999999994
73,9,0.5,1.0,-35.0,1,0.0,2.230099999999993
74,9,0.5,1.0,35.0,1,1.0,0.32879999999994425
75,9,0.5,1.0,35.0,1,1.0,0.30939999999998236
76,9,0.5,0.25,-35.0,-1,1.0,4.116999999999962
77,9,0.5,1.0,35.0,1,1.0,0.43029999999998836
78,9,0.5,1.0,35.0,1,1.0,0.40399999999999636
79,9,0.5,1.0,-35.0,1,0.0,0.28239999999999554
80,9,0.6,1.0,35.0,1,1.0,0.5005999999999631
81,9,0.5,1.0,35.0,1,1.0,0.44000000000005457
82,9,0.5,0.25,35.0,1,1.0,1.2101999999999862
83,9,0.5,0.0625,-35.0,1,0.0,2.4331000000000245
84,9,0.5,0.25,35.0,1,1.0,0.31539999999995416
85,9,0.5,1.0,-35.0,-1,1.0,3.2941000000000145
86,9,0.5,0.0,35.0,-1,0.0,4.8460999999999785
87,9,0.5,0.25,-35.0,-1,1.0,2.454499999999939
88,9,0.5,0.125,-35.0,-1,1.0,4.885100000000023
89,9,0.5,0.125,35.0,1,1.0,0.6650999999999954
90,9,0.5,0.0,35.0,1,1.0,0.7430999999999699
91,9,0.5,1.0,35.0,1,1.0,0.4309000000000083
92,9,0.5,0.125,-35.0,-1,1.0,5.366100000000017
93,9,0.5,0.0625,-35.0,1,0.0,2.766200000000026
94,9,0.5,0.125,-35.0,-1,1.0,0.4271999999999707
95,9,0.5,0.125,35.0,1,1.0,7.399199999999951
96,9,0.5,0.0625,35.0,-1,0.0,1.4995000000000118
97,9,0.5,0.25,-35.0,-1,1.0,0.5794000000000779
98,9,0.5,0.25,-35.0,-1,1.0,6.5253999999999905
99,9,0.5,0.25,35.0,1,1.0,0.42420000000004165
100,9,0.5,1.0,35.0,1,1.0,0.4113999999999578
101,9,0.5,0.125,-35.0,1,0.0,6.157900000000041
102,9,0.5,0.25,-35.0,-1,1.0,0.5234000000000378
103,9,0.5,1.0,35.0,1,1.0,0.3967999999999847
104,9,0.5,1.0,35.0,1,1.0,0.2922999999999547
105,9,0.5,0.25,35.0,-1,0.0,6.33929999999998
106,9,0.5,0.125,-35.0,-1,1.0,8.25019999999995
107,9,0.5,0.125,-35.0,-1,1.0,4.616700000000037
108,9,0.5,1.0,35.0,-1,0.0,0.5890999999999167
109,9,0.5,1.0,35.0,1,1.0,0.24660000000005766
110,9,0.5,1.0,-35.0,-1,1.0,0.7356000000000904
111,9,0.5,0.0625,-35.0,-1,1.0,0.7931999999999562
112,9,0.5,0.0625,-35.0,-1,1.0,5.7965999999998985
113,9,0.5,0.0625,35.0,-1,0.0,0.49059999999997217
114,9,0.5,0.0,35.0,-1,0.0,4.879800000000046
115,9,0.5,0.25,35.0,-1,0.0,0.614400000000046
116,9,0.5,0.125,-35.0,-1,1.0,0.4196999999999207
117,9,0.5,1.0,-35.0,-1,1.0,1.3564000000000078
118,9,0.5,1.0,35.0,1,1.0,0.2584999999999127
119,9,0.5,0.25,35.0,1,1.0,0.5117000000000189
120,9,0.5,0.0625,35.0,-1,0.0,1.6427000000001044
121,9,0.5,0.0625,35.0,-1,0.0,6.077800000000025
122,9,0.5,0.0625,-35.0,-1,1.0,1.2945999999999458
123,9,0.5,0.125,-35.0,-1,1.0,6.1469999999999345
124,9,0.5,1.0,-35.0,-1,1.0,0.4944000000000415
125,9,0.5,0.0625,35.0,-1,0.0,0.6487999999999374
126,9,0.2,0.0625,35.0,1,1.0,0.29290000000003147
127,9,0.5,1.0,35.0,1,1.0,0.29129999999997835
128,9,0.5,1.0,35.0,1,1.0,0.7283999999999651
129,9,0.5,0.125,35.0,1,1.0,0.3086000000000695
130,9,0.5,1.0,35.0,1,1.0,0.43869999999992615
131,9,0.5,0.125,35.0,1,1.0,9.165399999999977
132,9,0.5,0.0625,35.0,1,1.0,11.723500000000058
133,9,0.5,1.0,35.0,1,1.0,0.2782000000000835
134,9,0.5,0.125,35.0,-1,0.0,3.7708000000000084
135,9,0.5,0.0625,-35.0,1,0.0,6.6983000000000175
136,9,0.5,0.125,35.0,1,1.0,0.4267000000000962
137,9,0.5,0.25,35.0,1,1.0,9.055599999999913
138,9,0.5,0.125,-35.0,-1,1.0,0.45100000000002183
139,9,0.5,0.0625,-35.0,-1,1.0,10.58949999999993
140,9,0.5,0.125,-35.0,-1,1.0,0.5131999999999834
141,9,0.5,0.0,35.0,-1,0.0,8.058099999999968
142,9,0.5,0.0,35.0,-1,0.0,0.9087999999999283
143,9,0.5,1.0,35.0,1,1.0,0.2726000000000113
144,9,0.5,0.0,35.0,1,1.0,2.04849999999999
145,9,0.5,0.0625,35.0,1,1.0,0.47659999999996217
146,9,0.5,1.0,35.0,1,1.0,0.24559999999996762
147,9,0.5,0.0625,35.0,-1,0.0,8.64530000000002
148,9,0.5,0.25,-35.0,-1,1.0,0.5356000000000449
149,9,0.5,0.125,-35.0,-1,1.0,3.202199999999948
150,9,0.5,0.25,-35.0,-1,1.0,2.7263000000000375
151,9,0.5,0.0,-35.0,1,0.0,0.2578999999999496
152,9,0.5,0.25,35.0,1,1.0,0.5971000000000686
153,9,0.5,0.25,35.0,1,1.0,0.6053999999999178
154,9,0.5,0.0,35.0,-1,0.0,2.6667000000001053
155,9,0.5,0.125,35.0,1,1.0,0.4637000000000171
156,9,0.5,0.125,-35.0,-1,1.0,0.594199999999887
157,9,0.5,0.25,-35.0,1,0.0,4.476699999999937
158,9,0.5,0.0625,-35.0,1,0.0,3.2696999999999434
159,9,0.5,0.0,-35.0,-1,1.0,3.115899999999897
160,9,0.5,0.0625,-35.0,-1,1.0,0.5176999999999907
161,9,0.5,0.0625,35.0,-1,0.0,5.6539000000000215
162,9,0.5,0.0625,-35.0,1,0.0,0.2501999999999498
163,9,0.5,1.0,35.0,1,1.0,0.5285999999999831
164,9,0.5,1.0,-35.0,-1,1.0,0.3994000000000142
165,9,0.5,0.125,35.0,-1,0.0,8.12130000000002
166,9,0.5,0.125,-35.0,-1,1.0,7.380600000000072
167,9,0.5,1.0,35.0,1,1.0,0.3242999999999938
168,9,0.5,0.0,35.0,-1,0.0,1.8047999999998865
169,9,0.5,0.25,35.0,1,1.0,0.2481999999999971
170,9,0.5,0.0,-35.0,-1,1.0,0.6408000000000129
171,9,0.5,0.125,-35.0,-1,1.0,0.5457999999999856
172,9,0.5,0.0625,35.0,1,1.0,0.6366999999999052
173,9,0.5,0.25,-35.0,-1,1.0,0.48709999999994125
174,9,0.5,0.25,-35.0,-1,1.0,0.6130999999999176
175,9,0.5,1.0,-35.0,-1,1.0,0.4493999999999687
176,9,0.5,0.25,-35.0,1,0.0,2.750599999999963
177,9,0.5,0.25,-35.0,-1,1.0,4.935699
178,9,0.5,1.0,35.0,1,1.0,0.33589999999992415
179,9,0.5,0.0625,35.0,-1,0.0,0.5025999999999158
180,9,0.3,0.0625,35.0,1,1.0,0.3668999999999869
181,9,0.5,1.0,35.0,1,1.0,0.259900000000016
182,9,0.5,0.125,35.0,1,1.0,4.38390000000004
183,9,0.5,0.0625,35.0,1,1.0,8.580900000000042
184,9,0.5,0.25,35.0,1,1.0,0.4399999999999409
185,9,0.5,0.125,35.0,1,1.0,7.958798999999885
186,9,0.5,0.0625,-35.0,1,0.0,2.7001999999999953
187,9,0.5,0.0,35.0,-1,0.0,0.19470000000001164
188,9,0.8,0.0,-35.0,-1,1.0,6.699100000000044
189,9,0.5,1.0,-35.0,-1,1.0,0.2115000000000009
190,9,0.5,0.0625,35.0,1,1.0,0.31340000000000146
191,9,0.5,1.0,35.0,1,1.0,0.5804000000000542
192,9,0.5,0.25,35.0,1,1.0,0.4008000000000038
193,9,0.5,0.0625,35.0,-1,0.0,0.6841000000000577
194,9,0.5,0.0625,-35.0,1,0.0,0.2880000000000109
195,9,0.6,0.0625,-35.0,1,0.0,0.28109999999992397
196,9,0.5,1.0,-35.0,-1,1.0,5.560999999999922
197,9,0.5,0.0625,35.0,-1,0.0,5.08439999999996
198,9,0.5,0.25,35.0,1,1.0,0.2647999999999229
199,9,0.5,0.0625,35.0,1,1.0,2.8379999999999654
200,9,0.5,1.0,-35.0,-1,1.0,6.024899999999889
201,9,0.5,0.25,35.0,1,1.0,0.4682999999999993
202,9,0.5,0.125,-35.0,-1,1.0,0.5216000000000349
203,9,0.5,0.0,-35.0,-1,1.0,6.358299999999872
204,9,0.5,1.0,-35.0,-1,1.0,0.4751000000001113
205,9,0.5,0.125,-35.0,-1,1.0,1.5354999999999563
206,9,0.5,0.125,-35.0,-1,1.0,0.6454000000001088
207,9,0.5,0.0625,-35.0,-1,1.0,3.7253999999998086
208,9,0.5,0.0625,-35.0,-1,1.0,4.6189999999999145
209,9,0.5,0.25,35.0,1,1.0,0.33569999999986067
210,9,0.5,0.0625,-35.0,-1,1.0,3.66579999999999
211,9,0.5,0.0625,-35.0,-1,1.0,0.4991000000002259
212,9,0.5,0.0625,-35.0,-1,1.0,0.6824999999998909
213,9,0.5,0.125,35.0,1,1.0,0.35930000000007567
214,9,0.5,1.0,-35.0,-1,1.0,0.5526999999999589
215,9,0.5,0.125,-35.0,-1,1.0,5.4792999999999665
216,9,0.5,0.125,35.0,1,1.0,0.7228000000000065
217,9,0.5,0.0625,35.0,1,1.0,3.3161999999999807
218,9,0.5,0.125,-35.0,-1,1.0,0.7430000000001655
219,9,0.5,0.0625,-35.0,-1,1.0,4.033200000000079
220,9,0.5,0.25,-35.0,-1,1.0,0.7165999999999713
221,9,0.5,1.0,35.0,1,1.0,0.2965999999998985
222,9,0.5,0.125,35.0,1,1.0,0.849999999999909
223,9,0.5,0.0625,35.0,1,1.0,3.64020000000005
224,9,0.5,0.0625,35.0,-1,0.0,0.5367989999997462
225,9,0.5,0.25,-35.0,1,0.0,5.980299999999943
226,9,0.5,0.25,-35.0,-1,1.0,1.596900000000005
227,9,0.5,0.0625,-35.0,-1,1.0,6.1638000000000375
228,9,0.5,0.25,-35.0,-1,1.0,0.4842999999998483
229,9,0.5,0.125,35.0,1,1.0,1.3139000000001033
230,9,0.5,0.0625,35.0,1,1.0,0.3105000000000473
231,9,0.5,0.0625,35.0,1,1.0,0.3708000000001448
232,9,0.5,0.25,35.0,1,1.0,0.28739999999993415
233,9,0.5,1.0,-35.0,-1,1.0,0.9007000000001426
234,9,0.5,0.0625,-35.0,-1,1.0,6.971299999999928
235,9,0.5,0.25,-35.0,-1,1.0,0.4045000000000982
236,9,0.5,0.25,35.0,1,1.0,0.35140000000001237
237,9,0.5,1.0,-35.0,-1,1.0,3.774599999999964
238,9,0.5,0.0625,-35.0,-1,1.0,0.38810000000012224
239,9,0.5,0.0625,-35.0,-1,1.0,2.0379999999997835
240,9,0.5,0.0,-35.0,-1,1.0,4.601400000000012
241,9,0.5,1.0,-35.0,-1,1.0,0.39839999999981046
242,9,0.5,0.125,-35.0,-1,1.0,0.9320000000000164
243,9,0.5,1.0,-35.0,-1,1.0,3.138400000000047
244,9,0.5,0.25,35.0,1,1.0,0.348700000000008
245,9,0.5,1.0,-35.0,-1,1.0,0.4683999999997468
246,9,0.5,1.0,35.0,1,1.0,0.3186000000000604
247,9,0.5,0.25,35.0,1,1.0,0.8484999999998308
248,9,0.5,0.25,35.0,1,1.0,0.6787000000001626
249,9,0.5,0.125,35.0,-1,0.0,7.6521000000000186
250,9,0.5,0.0625,35.0,-1,0.0,0.37220000000002074
251,9,0.4,0.0625,35.0,-1,0.0,5.56880000000001
252,9,0.5,1.0,-35.0,-1,1.0,0.2624999999998181
253,9,0.5,0.25,-35.0,-1,1.0,4.342499999999973
254,9,0.5,0.25,35.0,1,1.0,0.2826000000000022
255,9,0.5,0.0625,-35.0,-1,1.0,0.7260999999998603
256,9,0.5,1.0,-35.0,-1,1.0,0.5059999999998581
257,9,0.5,1.0,-35.0,-1,1.0,0.6264999999998508
258,9,0.5,0.25,-35.0,-1,1.0,0.49300000000016553
259,9,0.5,0.125,35.0,-1,0.0,5.0797000000000025
260,9,0.5,0.0625,35.0,1,1.0,0.3067000000000917
261,9,0.5,0.125,-35.0,-1,1.0,0.3464999999998781
262,9,0.5,0.0,-35.0,1,0.0,1.4236000000000786
263,9,0.5,0.25,-35.0,-1,1.0,0.619899999999916
264,9,0.5,0.0625,35.0,-1,0.0,5.116700000000037
265,9,0.5,0.25,35.0,-1,0.0,0.3768000000000029
266,9,0.5,0.125,35.0,1,1.0,1.093599999999924
267,9,0.5,1.0,-35.0,-1,1.0,0.8569999999999709
268,9,0.5,0.125,-35.0,-1,1.0,6.743600000000015
269,9,0.5,1.0,-35.0,-1,1.0,0.42709999999988213
270,9,0.5,0.125,-35.0,1,0.0,1.7174000000002252
271,9,0.5,0.25,-35.0,-1,1.0,0.45049999999991996
272,9,0.5,0.125,-35.0,-1,1.0,1.227600000000166
273,9,0.5,0.125,35.0,-1,0.0,6.727399999999989
274,9,0.2,0.125,-35.0,-1,1.0,0.8209000000001652
275,9,0.5,1.0,-35.0,-1,1.0,8.1242000000002
276,9,0.5,0.125,35.0,1,1.0,0.28449999999998
277,9,0.5,0.0,35.0,1,1.0,0.5117000000000189
278,9,0.5,0.0,35.0,-1,0.0,4.227799999999888
279,9,0.5,0.0,35.0,1,1.0,0.404700000000048
280,9,0.5,0.25,35.0,1,1.0,0.17809999999985848
281,9,0.5,0.125,35.0,-1,0.0,0.5346999999999298
282,9,0.4,0.125,35.0,-1,0.0,3.3049999999998363
283,9,0.5,1.0,-35.0,-1,1.0,0.4417000000000826
284,9,0.5,0.0625,-35.0,-1,1.0,1.0918000000001484
285,9,0.5,0.25,-35.0,-1,1.0,1.0587000000000444
286,9,0.5,0.25,-35.0,-1,1.0,0.5487000000000535
287,9,0.5,0.25,35.0,1,1.0,0.6018999999998869
288,9,0.5,0.125,-35.0,-1,1.0,0.5652000000002317
289,9,0.5,0.125,35.0,1,1.0,0.3522000000000389
290,9,0.5,0.25,35.0,1,1.0,0.24529999999981555
291,9,0.5,0.25,-35.0,-1,1.0,4.815399999999954
292,9,0.5,0.0625,-35.0,1,0.0,0.2623000000000957
293,9,0.4,0.0625,35.0,1,1.0,0.20890000000008513
294,9,0.5,1.0,35.0,1,1.0,0.2557999999999083
295,9,0.5,0.125,35.0,1,1.0,0.3123000000000502
296,9,0.5,0.125,35.0,1,1.0,0.4493999999999687
297,9,0.5,1.0,35.0,1,1.0,0.13479899999992995
298,9,0.5,0.25,35.0,1,1.0,0.512599999999793
299,9,0.5,0.125,35.0,1,1.0,0.559099999999944
300,9,0.5,0.125,-35.0,1,0.0,5.905798999999888
301,9,0.5,0.125,35.0,1,1.0,0.29609999999979664
302,9,0.5,0.125,-35.0,-1,1.0,0.40640000000007603
303,9,0.5,0.0,35.0,-1,0.0,7.72609999999986
304,9,0.5,0.25,-35.0,-1,1.0,0.443000000000211
305,9,0.5,0.0,35.0,-1,0.0,10.659800000000132
306,9,0.6,0.0,-35.0,1,0.0,0.27340000000003783
307,9,0.5,1.0,35.0,1,1.0,0.3967999999999847
308,9,0.5,1.0,-35.0,-1,1.0,1.1967999999999392
309,9,0.5,1.0,-35.0,-1,1.0,7.957000000000107
310,9,0.5,0.125,-35.0,-1,1.0,5.467200000000048
311,9,0.5,1.0,-35.0,-1,1.0,0.7570999999998094
312,9,0.5,0.0,-35.0,-1,1.0,3.827400000000125
313,9,0.5,0.125,-35.0,-1,1.0,0.4673000000000229
314,9,0.5,0.25,-35.0,-1,1.0,0.9207999999998719
315,9,0.5,1.0,35.0,1,1.0,0.29109999999991487
316,9,0.5,0.25,35.0,1,1.0,5.730799999999817
317,9,0.5,0.0625,-35.0,1,0.0,0.28119999999989886
318,9,0.3,0.0625,35.0,1,1.0,0.32100000000014006
319,9,0.5,1.0,35.0,1,1.0,0.5811999999998534
320,9,0.5,0.125,-35.0,-1,1.0,8.564599999999928
321,9,0.5,0.25,35.0,1,1.0,0.4149999999999636
322,9,0.5,1.0,-35.0,-1,1.0,0.658100000000104
323,9,0.5,1.0,-35.0,-1,1.0,0.5681999999999334
324,9,0.5,0.25,35.0,1,1.0,0.248299999999972
325,9,0.5,1.0,35.0,1,1.0,0.2716000000000349
326,9,0.5,0.0625,35.0,-1,0.0,6.831699999999955
327,9,0.6,0.0625,35.0,1,1.0,0.23519999999984975
328,9,0.5,1.0,-35.0,-1,1.0,1.2984999999998763
329,9,0.5,0.125,35.0,1,1.0,0.47880000000009204
330,9,0.5,0.25,-35.0,-1,1.0,0.5553000000002157
331,9,0.5,1.0,-35.0,-1,1.0,6.205399999999827
332,9,0.5,0.125,-35.0,-1,1.0,1.199100000000044
333,9,0.5,0.25,-35.0,-1,1.0,0.5290999999999713
334,9,0.5,1.0,-35.0,-1,1.0,0.6224000000001979
335,9,0.5,1.0,-35.0,-1,1.0,0.5756999999998698
336,9,0.5,0.25,-35.0,-1,1.0,5.772699999999986
337,9,0.5,1.0,-35.0,1,0.0,1.23920000000021
338,9,0.5,0.125,35.0,1,1.0,0.3394999999998163
339,9,0.5,0.25,-35.0,-1,1.0,0.5394999999998618
340,9,0.5,1.0,35.0,1,1.0,0.3328000000001339
341,9,0.5,1.0,-35.0,-1,1.0,0.4329999999999927
342,9,0.5,0.0625,-35.0,-1,1.0,0.4732000000001335
343,9,0.5,0.125,35.0,1,1.0,0.3162999999999556
344,9,0.5,0.0625,-35.0,-1,1.0,2.7363000000000284
345,9,0.5,0.125,-35.0,1,0.0,0.40019999999981337
346,9,0.5,0.0625,35.0,-1,0.0,4.496699999999919
347,9,0.5,0.0625,35.0,1,1.0,0.9733000000001084
348,9,0.5,0.0,35.0,-1,0.0,4.1667999999999665
349,9,0.5,0.0625,-35.0,-1,1.0,0.6572000000001026
350,9,0.5,0.125,35.0,-1,0.0,0.6069999999999709
351,9,0.5,0.25,-35.0,-1,1.0,1.1204000000000178
352,9,0.5,0.25,-35.0,-1,1.0,10.823599999999942
353,9,0.5,1.0,35.0,1,1.0,0.7872999999999593
354,9,0.5,0.125,35.0,1,1.0,6.8672999999998865
355,9,0.5,0.0625,-35.0,1,0.0,6.204300000000103
356,9,0.5,0.0,35.0,-1,0.0,0.5910000000001219
357,9,0.5,0.0625,-35.0,-1,1.0,0.7777999999998428
358,9,0.5,1.0,-35.0,-1,1.0,25.864399999999932
359,9,0.5,1.0,-35.0,-1,1.0,1.6650999999999385
360,9,0.5,0.125,35.0,1,1.0,44.75500000000011
361,9,0.5,1.0,35.0,1,1.0,0.3993000000000393
362,9,0.5,0.0,-35.0,1,0.0,28.669399999999996
363,9,0.5,0.25,35.0,1,1.0,0.3065000000001419
364,9,0.5,1.0,-35.0,-1,1.0,0.7032999999998992
365,9,0.5,1.0,35.0,1,1.0,0.35349999999994
366,9,0.5,0.125,35.0,1,1.0,0.9101000000000568
367,9,0.5,0.25,-35.0,-1,1.0,0.8368000000000393
368,9,0.5,0.25,35.0,1,1.0,0.3169999999997799
369,9,0.5,0.25,35.0,1,1.0,0.46659999999997126
370,9,0.5,0.0,35.0,-1,0.0,17.206500000000005
371,9,0.5,0.25,35.0,1,1.0,0.3301000000001295
372,9,0.5,0.125,35.0,1,1.0,0.30310000000008586
373,9,0.5,0.125,-35.0,-1,1.0,0.3635999999999058
374,9,0.5,0.0625,35.0,1,1.0,0.3467000000000553
375,9,0.5,0.125,-35.0,-1,1.0,2.2965999999998985
376,9,0.5,0.125,-35.0,-1,1.0,0.5004999999998745
377,9,0.5,0.0625,35.0,-1,0.0,0.6066000000000713
378,9,0.5,0.125,-35.0,-1,1.0,0.6606999999999061
379,9,0.5,1.0,-35.0,-1,1.0,0.633600000000115
380,9,0.5,0.0,35.0,-1,0.0,0.5471999999997479
381,9,0.3,0.0,35.0,-1,0.0,0.7770000000000437
382,9,0.5,1.0,35.0,1,1.0,0.31719999999995707
383,9,0.5,0.25,35.0,-1,0.0,0.3744000000001506
384,9,0.5,0.25,35.0,1,1.0,0.5377000000000862
385,9,0.5,1.0,-35.0,-1,1.0,2.297700000000077
386,9,0.5,0.125,-35.0,1,0.0,5.410599999999931
387,9,0.5,0.25,35.0,-1,0.0,0.3612000000000535
388,9,0.5,0.0625,-35.0,1,0.0,0.2540000000001328
389,9,0.5,0.25,-35.0,-1,1.0,2.4843000000000757
390,9,0.5,0.25,35.0,-1,0.0,1.3009000000001834
391,9,0.4,0.25,-35.0,1,0.0,0.3584000000000742
392,9,0.5,1.0,35.0,1,1.0,0.2580000000000382
393,9,0.5,0.0,-35.0,-1,1.0,4.978399999999965
394,9,0.5,0.125,35.0,-1,0.0,8.08120000000008
395,9,0.4,0.125,-35.0,-1,1.0,0.3749000000000251
396,9,0.5,1.0,-35.0,-1,1.0,0.544800000000123
397,9,0.5,0.0625,-35.0,-1,1.0,0.5851000000000113
398,9,0.5,0.25,-35.0,-1,1.0,0.5388000000000375
399,9,0.5,0.125,-35.0,-1,1.0,1.0584999999998672
400,9,0.5,0.0,-35.0,-1,1.0,9.721799999999803
401,9,0.5,0.125,-35.0,-1,1.0,0.605600000000095
402,9,0.5,0.0625,35.0,1,1.0,0.8020999999998821
403,9,0.5,1.0,35.0,1,1.0,0.43260000000009313
404,9,0.5,0.25,35.0,1,1.0,0.3824000000004162
405,9,0.5,0.0,35.0,-1,0.0,0.4958000000001448
406,9,0.5,0.125,35.0,1,1.0,0.5763999999999214
407,9,0.5,0.25,-35.0,-1,1.0,0.6229000000002998
408,9,0.5,0.125,-35.0,-1,1.0,5.616100000000188
409,9,0.5,0.0625,-35.0,-1,1.0,0.8791000000001077
410,9,0.5,0.0,-35.0,-1,1.0,8.613300000000436
411,9,0.5,0.125,35.0,1,1.0,0.4032000000001972
412,9,0.5,0.25,-35.0,-1,1.0,6.216200000000299
413,9,0.5,1.0,35.0,1,1.0,0.8862999999996646
414,9,0.5,0.0,-35.0,-1,1.0,10.32990000000018
415,9,0.5,1.0,35.0,1,1.0,0.24999900000057096
416,9,0.5,1.0,35.0,1,1.0,0.47690000000011423
417,9,0.5,0.0625,-35.0,-1,1.0,4.75400000000036
418,9,0.5,0.0625,-35.0,-1,1.0,0.9742999999998574
419,9,0.5,1.0,-35.0,-1,1.0,0.5470000000004802
420,9,0.5,0.0625,35.0,-1,0.0,1.7771999999999935
421,9,0.4,0.0625,35.0,1,1.0,0.3240000000000691
422,9,0.5,1.0,35.0,1,1.0,0.3205000000002656
423,9,0.5,0.125,-35.0,-1,1.0,0.5873000000001412
424,9,0.5,0.125,-35.0,1,0.0,0.7976000000003296
425,9,0.5,0.25,-35.0,-1,1.0,0.6472000000003391
426,9,0.5,0.125,-35.0,-1,1.0,5.260999999999967
427,9,0.5,0.0625,35.0,1,1.0,0.2843990000001213
428,9,0.5,0.0625,-35.0,-1,1.0,7.644900000000234
429,9,0.5,0.0,-35.0,-1,1.0,0.3121000000001004
430,9,0.5,1.0,-35.0,-1,1.0,0.5579000000002452
431,9,0.5,0.25,-35.0,1,0.0,7.834700000000339
432,9,0.4,0.25,35.0,1,1.0,0.3883000000005268
433,9,0.5,1.0,35.0,1,1.0,0.31510000000025684
434,9,0.5,0.25,35.0,1,1.0,0.34180000000014843
435,9,0.5,1.0,-35.0,1,0.0,10.33849999999984
436,9,0.5,0.125,35.0,1,1.0,0.40219999999999345
437,9,0.5,1.0,-35.0,-1,1.0,2.4421000000002095
438,9,0.5,0.125,-35.0,1,0.0,0.26210000000037326
439,9,0.5,0.125,35.0,-1,0.0,10.01220000000012
440,9,0.5,0.0625,35.0,1,1.0,0.4762000000005173
441,9,0.5,0.0625,-35.0,1,0.0,0.7058000000001812
442,9,0.5,0.0,35.0,1,1.0,0.43300000000044747
443,9,0.5,0.25,35.0,1,1.0,0.24590000000034706
444,9,0.5,0.125,-35.0,-1,1.0,5.3793000000000575
445,9,0.5,0.25,35.0,1,1.0,0.4094000000000051
446,9,0.5,0.125,-35.0,-1,1.0,11.163700000000063
447,9,0.5,0.0625,-35.0,-1,1.0,0.5832000000000335
448,9,0.5,1.0,35.0,1,1.0,0.3075000000003456
449,9,0.5,1.0,-35.0,-1,1.0,2.580200000000332
450,9,0.5,0.25,-35.0,-1,1.0,0.7033999999998741
451,9,0.5,1.0,35.0,-1,0.0,0.7401000000004387
452,9,0.5,0.25,-35.0,-1,1.0,9.217200000000503
453,9,0.5,0.125,-35.0,-1,1.0,0.31120000000009895
454,9,0.5,1.0,-35.0,-1,1.0,2.4507000000003245
455,9,0.5,0.0625,35.0,-1,0.0,0.9003990000005615
456,9,0.5,0.125,-35.0,-1,1.0,7.974000000000615
457,9,0.5,1.0,-35.0,-1,1.0,0.47150000000056025
458,9,0.5,0.0625,-35.0,-1,1.0,0.4611000000004424
459,9,0.5,0.125,35.0,-1,0.0,5.867700000000241
460,9,0.0,0.125,35.0,1,1.0,0.32440000000042346
461,9,0.5,1.0,35.0,1,1.0,0.22430000000031214
462,9,0.5,0.125,35.0,-1,0.0,6.024399999999787
463,9,0.5,0.25,-35.0,-1,1.0,7.204600000000028
464,9,0.5,0.0,-35.0,-1,1.0,1.2750000000005457
465,9,0.5,0.0625,-35.0,-1,1.0,3.194799999999759
466,9,0.5,0.25,35.0,1,1.0,0.7624000000000706
467,9,0.5,0.125,35.0,-1,0.0,7.382100000000264
468,9,0.3,0.125,-35.0,1,0.0,0.2954000000004271
469,9,0.5,1.0,-35.0,-1,1.0,0.6585999999997512
470,9,0.5,1.0,35.0,1,1.0,0.33270000000038635
471,9,0.5,0.0625,35.0,-1,0.0,4.992499999999836
472,9,0.5,0.125,35.0,1,1.0,0.24240000000054351
473,9,0.5,0.125,35.0,1,1.0,0.44250000000010914
474,9,0.5,1.0,-35.0,-1,1.0,0.6659000000004198
475,9,0.5,0.125,35.0,-1,0.0,0.49890000000004875
476,9,0.5,0.25,-35.0,1,0.0,0.42920000000049185
477,9,0.5,0.25,-35.0,-1,1.0,0.7725999999997839
478,9,0.5,1.0,35.0,-1,0.0,0.2460000000000946
479,9,0.5,0.125,35.0,1,1.0,0.38259999999991123
480,9,0.5,0.125,-35.0,-1,1.0,6.795900000000529
481,9,0.5,0.0625,-35.0,-1,1.0,0.7228999999997541
482,9,0.5,0.0625,-35.0,-1,1.0,5.237600000000384
483,9,0.5,0.125,-35.0,-1,1.0,4.0504000000000815
484,9,0.5,0.125,35.0,1,1.0,0.18060000000059517
485,9,0.5,0.125,35.0,1,1.0,0.14350000000058571
486,9,0.5,0.0625,-35.0,-1,1.0,0.84670000000051
487,9,0.5,1.0,-35.0,-1,1.0,0.6936000000005151
488,9,0.5,0.25,35.0,-1,0.0,0.42750000000023647
489,9,0.5,0.25,-35.0,1,0.0,0.3402000000000953
490,9,0.5,0.0625,-35.0,-1,1.0,0.5301000000004024
491,9,0.5,0.0625,-35.0,-1,1.0,0.3806000000004133
492,9,0.5,1.0,35.0,1,1.0,0.30700000000024374
493,9,0.5,0.25,-35.0,-1,1.0,3.0504000000005362
494,9,0.5,0.125,-35.0,-1,1.0,0.31750000000010914
495,9,0.5,0.25,-35.0,-1,1.0,0.707300000000032
496,9,0.5,0.0,35.0,-1,0.0,9.233799999999974
497,9,0.5,0.125,35.0,1,1.0,0.33070000000043365
498,9,0.5,0.0625,35.0,-1,0.0,8.154499999999643
499,9,0.3,0.0625,35.0,-1,0.0,5.821000000000367
500,9,0.5,1.0,35.0,1,1.0,0.31470000000035725
501,9,0.5,1.0,35.0,1,1.0,0.2615000000000691
502,9,0.5,1.0,-35.0,-1,1.0,0.7287000000001171
503,9,0.5,0.0,-35.0,-1,1.0,8.138200000000325
504,9,0.5,1.0,35.0,1,1.0,0.23509999999987485
505,9,0.5,0.125,-35.0,-1,1.0,7.891700000000583
506,9,0.5,0.125,35.0,-1,0.0,1.1388999999999214
507,9,0.4,0.125,35.0,1,1.0,0.27579999999989013
508,9,0.5,1.0,-35.0,-1,1.0,0.3021000000003369
509,9,0.5,0.0625,-35.0,-1,1.0,0.5025000000005093
510,9,0.5,0.25,35.0,1,1.0,0.3858000000004722
511,9,0.5,1.0,35.0,1,1.0,0.2858000000001084
512,9,0.5,1.0,-35.0,-1,1.0,8.655800000000454
513,9,0.5,0.125,-35.0,1,0.0,0.08650000000034197
514,9,0.5,0.25,35.0,1,1.0,0.31600000000071304
515,9,0.5,1.0,-35.0,-1,1.0,7.132799999999861
516,9,0.5,0.0625,-35.0,-1,1.0,1.1194000000004962
517,9,0.5,0.125,35.0,1,1.0,0.3227000000006228
518,9,0.5,1.0,-35.0,-1,1.0,0.43939999999975043
519,9,0.5,1.0,-35.0,-1,1.0,0.5264000000001943
520,9,0.5,0.0625,35.0,-1,0.0,9.29989999999998
521,9,0.5,0.0625,35.0,-1,0.0,23.91690000000017
522,9,0.5,0.0625,-35.0,-1,1.0,9.16379999999981
523,9,0.5,0.0625,-35.0,-1,1.0,3.7778000000002976
524,9,0.5,0.25,-35.0,-1,1.0,0.6209000000003471
525,9,0.5,0.0625,35.0,-1,0.0,0.8708000000001448
526,9,0.5,0.0625,-35.0,-1,1.0,0.7710000000006403
527,9,0.5,0.25,-35.0,-1,1.0,0.16769999999996799
528,9,0.5,0.125,-35.0,-1,1.0,4.604500000000371
529,9,0.5,0.25,35.0,1,1.0,0.18800000000010186
530,9,0.5,0.125,-35.0,-1,1.0,6.984399999999823
531,9,0.5,1.0,-35.0,-1,1.0,3.095100000000457
532,9,0.5,0.125,35.0,-1,0.0,0.9280000000003383
533,9,0.5,0.0625,35.0,1,1.0,0.5149999999998727
534,9,0.5,0.25,-35.0,-1,1.0,5.802100000000337
535,9,0.5,0.25,-35.0,-1,1.0,0.5821000000000822
536,9,0.5,1.0,-35.0,-1,1.0,5.18560000000025
537,9,0.5,1.0,35.0,1,1.0,0.3156000000003587
538,9,0.5,0.25,-35.0,-1,1.0,6.315100000000712
539,9,0.5,0.125,-35.0,-1,1.0,7.335500000000138
540,9,0.5,0.25,-35.0,-1,1.0,1.049000000000433
541,9,0.5,0.25,35.0,1,1.0,1.2090000000002874
542,9,0.5,0.125,-35.0,-1,1.0,7.003000000000156
543,9,0.5,1.0,-35.0,-1,1.0,0.5992000000001099
544,9,0.5,0.125,35.0,1,1.0,0.21620000000029904
545,9,0.5,1.0,-35.0,-1,1.0,0.8293000000003303
546,9,0.5,0.0,-35.0,-1,1.0,1.1065000000003238
547,9,0.5,0.25,-35.0,1,0.0,0.3694000000000415
548,9,0.3,0.25,35.0,1,1.0,0.5561999999999898
549,9,0.5,1.0,35.0,1,1.0,0.3565000000003238
