trial_num,session_num,stim_probability_left,contrast,position,response_choice,trial_correct,reaction_time
1,20,0.5,0.25,-35.0,-1,1.0,0.4238999999999997
2,20,0.5,0.0,35.0,1,1.0,3.704600000000002
3,20,0.5,0.25,35.0,1,1.0,0.637299999999998
4,20,0.5,0.125,-35.0,-1,1.0,0.3232999999999979
5,20,0.5,0.125,-35.0,-1,1.0,0.3024000000000022
6,20,0.5,0.0,-35.0,1,0.0,2.2742000000000004
7,20,0.5,0.0,-35.0,1,0.0,1.7358000000000011
8,20,0.5,0.125,35.0,1,1.0,2.393599999999992
9,20,0.5,1.0,-35.0,-1,1.0,0.2763999999999953
10,20,0.5,1.0,35.0,1,1.0,1.0259
11,20,0.5,0.0,-35.0,1,0.0,1.9177999999999997
12,20,0.5,0.0,-35.0,1,0.0,0.2225999999999928
13,20,0.5,0.0625,35.0,1,1.0,2.2759999999999962
14,20,0.5,0.125,35.0,1,1.0,1.4527
15,20,0.5,0.25,35.0,1,1.0,1.1124999999999972
16,20,0.5,0.0625,-35.0,1,0.0,3.030799000000002
17,20,0.5,0.0,35.0,1,1.0,1.671199999999999
18,20,0.5,0.25,-35.0,-1,1.0,0.3789999999999907
19,20,0.5,0.0625,35.0,1,1.0,0.6313999999999993
20,20,0.5,0.0625,-35.0,1,0.0,3.903499999999994
21,20,0.5,0.0625,-35.0,1,0.0,0.6480999999999995
22,20,0.5,0.125,-35.0,-1,1.0,0.2664999999999935
23,20,0.5,1.0,-35.0,-1,1.0,0.4766999999999939
24,20,0.5,0.125,35.0,1,1.0,0.5095000000000027
25,20,0.5,0.25,-35.0,-1,1.0,0.48050000000000637
26,20,0.5,0.0,35.0,1,1.0,2.1125999999999863
27,20,0.5,0.0625,35.0,1,1.0,1.7145999999999901
28,20,0.5,0.0625,35.0,-1,0.0,0.2944000000000102
29,20,0.6,0.0625,-35.0,-1,1.0,0.295100000000005
30,20,0.5,1.0,-35.0,-1,1.0,0.4602000000000004
31,20,0.5,1.0,35.0,1,1.0,1.4411000000000058
32,20,0.5,0.0625,35.0,-1,0.0,1.2678999999999974
33,20,0.5,0.25,-35.0,-1,1.0,0.8717000000000041
34,20,0.5,1.0,35.0,1,1.0,0.577399999999983
35,20,0.5,1.0,-35.0,-1,1.0,0.2711999999999932
36,20,0.5,0.25,-35.0,-1,1.0,0.2406999999999755
37,20,0.5,0.125,35.0,1,1.0,1.2256999999999891
38,20,0.5,1.0,35.0,1,1.0,0.45009999999999195
39,20,0.5,0.0625,35.0,1,1.0,0.6798999999999751
40,20,0.5,0.25,-35.0,-1,1.0,0.3786000000000058
41,20,0.5,0.125,35.0,1,1.0,0.5681999999999903
42,20,0.5,0.0625,-35.0,1,0.0,0.34850000000000136
43,20,0.5,0.25,35.0,1,1.0,2.3918999999999926
44,20,0.5,0.25,35.0,1,1.0,2.3917999999999893
45,20,0.5,1.0,35.0,1,1.0,0.4468999999999994
46,20,0.5,0.125,35.0,1,1.0,3.1175999999999817
47,20,0.5,0.125,35.0,-1,0.0,2.5810000000000173
48,20,0.5,0.125,35.0,1,1.0,2.8382999999999754
49,20,0.5,0.0625,-35.0,-1,1.0,0.3491999999999962
50,20,0.5,0.125,-35.0,-1,1.0,0.38939999999999486
51,20,0.5,0.0625,35.0,1,1.0,0.4706999999999937
52,20,0.5,0.25,35.0,1,1.0,0.2931999999999846
53,20,0.5,0.125,-35.0,-1,1.0,0.28880000000003747
54,20,0.5,0.25,35.0,1,1.0,1.5609000000000037
55,20,0.5,0.0,-35.0,1,0.0,0.5337999999999852
56,20,0.5,0.125,-35.0,-1,1.0,0.29949999999999477
57,20,0.5,0.0625,-35.0,-1,1.0,0.35599999999999454
58,20,0.5,0.25,35.0,1,1.0,0.4077000000000055
59,20,0.5,0.25,-35.0,-1,1.0,0.33099999999998886
60,20,0.5,1.0,-35.0,-1,1.0,0.27530000000001564
61,20,0.5,0.25,35.0,1,1.0,0.5347000000000435
62,20,0.5,0.25,-35.0,-1,1.0,0.25619999999997844
63,20,0.5,0.25,35.0,-1,0.0,0.5115000000000123
64,20,0.5,0.0625,-35.0,-1,1.0,1.3069000000000415
65,20,0.5,0.0625,35.0,1,1.0,0.4946000000000481
66,20,0.5,0.125,35.0,1,1.0,0.3437000000000694
67,20,0.5,0.25,-35.0,-1,1.0,0.20890000000002829
68,20,0.5,1.0,35.0,1,1.0,0.23560000000003356
69,20,0.5,0.25,35.0,1,1.0,0.09440000000000737
70,20,0.5,1.0,-35.0,-1,1.0,0.4817000000000462
71,20,0.5,1.0,35.0,-1,0.0,1.9128000000000043
72,20,0.5,0.0,35.0,1,1.0,0.3421000000000731
73,20,0.5,0.0625,-35.0,-1,1.0,0.5401000000000522
74,20,0.5,1.0,35.0,1,1.0,0.3177000000000021
75,20,0.5,0.125,35.0,1,1.0,0.27410000000003265
76,20,0.5,0.125,35.0,-1,0.0,0.9449000000000183
77,20,0.5,0.25,35.0,-1,0.0,0.3380000000000791
78,20,0.5,0.0625,-35.0,-1,1.0,0.5160999999999945
79,20,0.5,0.25,35.0,1,1.0,3.041400000000067
80,20,0.5,0.0625,-35.0,-1,1.0,1.2395000000000778
81,20,0.5,0.0625,35.0,1,1.0,0.5305000000000177
82,20,0.5,0.0,35.0,1,1.0,0.36000000000001364
83,20,0.5,0.0,-35.0,1,0.0,0.5862999999999943
84,20,0.5,0.0625,35.0,1,1.0,0.42450000000008004
85,20,0.5,0.125,-35.0,-1,1.0,0.18080000000003338
86,20,0.5,1.0,35.0,-1,0.0,0.11220000000002983
87,20,0.5,0.25,35.0,1,1.0,2.2556000000000154
88,20,0.5,0.25,35.0,1,1.0,0.5412000000000035
89,20,0.5,1.0,-35.0,-1,1.0,0.7408000000000357
90,20,0.5,0.0,-35.0,1,0.0,0.3678000000000452
91,20,0.5,0.125,35.0,1,1.0,0.38980000000003656
92,20,0.5,1.0,35.0,1,1.0,0.31899999999996
93,20,0.5,0.0,-35.0,1,0.0,0.3834000000000515
94,20,0.5,0.25,35.0,1,1.0,1.259999999999991
95,20,0.5,0.0625,35.0,1,1.0,2.1853000000000407
96,20,0.5,0.25,-35.0,-1,1.0,0.47460000000000946
97,20,0.5,0.125,35.0,-1,0.0,0.5244000000000142
98,20,0.7,0.125,35.0,1,1.0,0.6009000000000242
99,20,0.5,1.0,-35.0,-1,1.0,0.3376999999999839
100,20,0.5,0.25,-35.0,-1,1.0,0.2977999999999952
101,20,0.5,0.125,-35.0,-1,1.0,0.7533000000000243
102,20,0.5,0.0,-35.0,1,0.0,0.2305000000000632
103,20,0.5,0.0,-35.0,1,0.0,0.3590000000000373
104,20,0.5,0.25,-35.0,-1,1.0,0.3831000000000131
105,20,0.5,1.0,-35.0,-1,1.0,0.24660000000005766
106,20,0.5,0.0625,35.0,1,1.0,1.9597000000000548
107,20,0.5,1.0,-35.0,-1,1.0,0.24790000000001555
108,20,0.5,0.25,-35.0,-1,1.0,0.28160000000002583
109,20,0.5,0.125,-35.0,-1,1.0,0.26740000000006603
110,20,0.5,0.0625,35.0,-1,0.0,0.26060000000006767
111,20,0.5,0.125,-35.0,-1,1.0,0.286200000000008
112,20,0.5,0.0,35.0,1,1.0,4.637099000000092
113,20,0.5,0.125,-35.0,-1,1.0,0.4248000000000616
114,20,0.5,0.125,35.0,1,1.0,0.18180000000006658
115,20,0.5,0.0,35.0,-1,0.0,0.38280000000003156
116,20,0.5,0.0,35.0,-1,0.0,1.517500000000041
117,20,0.5,0.0625,35.0,1,1.0,0.6415000000000077
118,20,0.5,0.125,35.0,1,1.0,0.5792000000001281
119,20,0.5,0.125,35.0,1,1.0,0.4311999999998761
120,20,0.5,1.0,-35.0,-1,1.0,0.22739999999998872
121,20,0.5,0.25,-35.0,-1,1.0,0.27749999999991815
122,20,0.5,0.125,-35.0,-1,1.0,0.2823999999999387
123,20,0.5,1.0,-35.0,-1,1.0,0.22869999999988977
124,20,0.5,0.0,-35.0,1,0.0,0.1794000000001006
125,20,0.4,0.0,-35.0,1,0.0,1.914299999999912
126,20,0.5,1.0,35.0,-1,0.0,0.4455000000000382
127,20,0.5,1.0,35.0,1,1.0,0.4492000000000189
128,20,0.5,1.0,35.0,1,1.0,4.706399999999917
129,20,0.5,0.25,-35.0,-1,1.0,0.4455999999998994
130,20,0.5,0.0625,-35.0,-1,1.0,0.37579999999991287
131,20,0.5,1.0,-35.0,-1,1.0,0.24939999999992324
132,20,0.5,0.125,35.0,-1,0.0,1.268799999999942
133,20,0.4,0.125,-35.0,1,0.0,0.14159999999992579
134,20,0.5,1.0,35.0,1,1.0,2.157699999999977
135,20,0.5,0.25,35.0,1,1.0,0.469600000000014
136,20,0.5,0.0625,35.0,1,1.0,0.4092000000000553
137,20,0.5,0.25,35.0,-1,0.0,3.600500000000011
138,20,0.5,0.125,-35.0,-1,1.0,0.35359999999991487
139,20,0.5,0.25,-35.0,-1,1.0,0.23839999999995598
140,20,0.5,0.25,35.0,1,1.0,0.35130000000003747
141,20,0.5,0.0,-35.0,1,0.0,1.8134000000000015
142,20,0.5,0.0,-35.0,1,0.0,0.3522000000000389
143,20,0.5,0.25,35.0,1,1.0,0.26579999999989923
144,20,0.5,0.25,-35.0,-1,1.0,0.2964999999999236
145,20,0.5,0.125,35.0,1,1.0,4.033500000000117
146,20,0.5,0.125,-35.0,-1,1.0,0.2988000000000284
147,20,0.5,0.25,-35.0,-1,1.0,0.2619000000000824
148,20,0.5,0.25,35.0,1,1.0,0.2296000000000049
149,20,0.5,0.25,-35.0,-1,1.0,0.47909999999990305
150,20,0.5,0.0625,35.0,1,1.0,0.31929999999999836
151,20,0.5,0.25,-35.0,-1,1.0,0.3163999999999305
152,20,0.5,0.25,-35.0,-1,1.0,0.2703999999998814
153,20,0.5,0.0,35.0,1,1.0,0.21219999999993888
154,20,0.5,0.125,35.0,1,1.0,0.6838000000000193
155,20,0.5,1.0,-35.0,-1,1.0,0.28309999999999036
156,20,0.5,0.125,35.0,-1,0.0,0.244199999999978
157,20,0.5,0.125,-35.0,-1,1.0,0.30920000000003256
158,20,0.5,0.0625,35.0,1,1.0,2.4204999999999472
159,20,0.5,0.0625,-35.0,-1,1.0,0.496599999999944
160,20,0.5,0.125,35.0,-1,0.0,1.4320999999999913
161,20,0.5,0.125,-35.0,-1,1.0,0.29290000000003147
162,20,0.5,0.125,35.0,1,1.0,0.42859999999984666
163,20,0.5,0.0,-35.0,-1,1.0,1.1221000000000458
164,20,0.5,0.25,35.0,1,1.0,0.328899999999976
165,20,0.5,0.125,-35.0,1,0.0,0.11889900000005582
166,20,0.5,0.0,35.0,1,1.0,0.34810000000004493
167,20,0.5,0.0625,35.0,1,1.0,0.2795000000000982
168,20,0.5,0.125,-35.0,-1,1.0,0.5289999999998827
169,20,0.5,0.125,35.0,1,1.0,0.17449999999996635
170,20,0.5,0.125,35.0,1,1.0,0.5580999999999676
171,20,0.5,1.0,-35.0,-1,1.0,0.1876999999999498
172,20,0.5,0.0,35.0,1,1.0,0.34169999999994616
173,20,0.5,0.0,-35.0,-1,1.0,1.0107000000000426
174,20,0.5,0.0625,-35.0,-1,1.0,0.7404999999998836
175,20,0.5,0.25,35.0,1,1.0,0.3351999999999862
176,20,0.5,0.25,-35.0,1,0.0,0.177599999999984
177,20,0.5,0.0625,35.0,1,1.0,0.13969999999994798
178,20,0.5,0.25,-35.0,-1,1.0,0.3367999999999256
179,20,0.5,0.25,35.0,-1,0.0,0.6349999999999909
180,20,0.5,0.25,-35.0,-1,1.0,0.31550099999992653
181,20,0.5,0.25,35.0,1,1.0,0.15140099999996437
182,20,0.5,1.0,-35.0,-1,1.0,0.38530100000002676
183,20,0.5,0.0625,-35.0,-1,1.0,0.6209010000000035
184,20,0.5,0.0625,35.0,1,1.0,0.3222010000000637
185,20,0.5,0.25,-35.0,-1,1.0,0.28040099999998347
186,20,0.5,0.0,-35.0,1,0.0,0.9593009999999822
187,20,0.5,0.0625,35.0,1,1.0,0.9755009999998947
188,20,0.5,0.25,35.0,1,1.0,0.21830099999999675
189,20,0.5,0.0,-35.0,-1,1.0,0.17190099999993436
190,20,0.5,1.0,35.0,-1,0.0,1.2603010000000268
191,20,0.5,0.0625,-35.0,-1,1.0,0.24579999999991742
192,20,0.5,1.0,-35.0,-1,1.0,0.4531010000000606
193,20,0.5,0.25,-35.0,-1,1.0,0.5207009999999173
194,20,0.5,0.125,-35.0,-1,1.0,0.3202009999998836
195,20,0.5,0.25,-35.0,-1,1.0,0.6432009999999764
196,20,0.5,0.0,35.0,1,1.0,0.3565009999999802
197,20,0.5,0.25,-35.0,-1,1.0,0.21070099999985814
198,20,0.5,1.0,35.0,-1,0.0,0.4193009999999049
199,20,0.5,0.0,35.0,-1,0.0,0.3983009999999467
200,20,0.1,0.0,-35.0,1,0.0,4.919899999999984
201,20,0.5,1.0,35.0,1,1.0,3.084700999999882
202,20,0.5,1.0,-35.0,-1,1.0,0.2034009999998716
203,20,0.5,0.0,35.0,-1,0.0,0.3141009999999369
204,20,0.5,0.125,-35.0,-1,1.0,0.24119999999993524
205,20,0.5,1.0,35.0,1,1.0,1.2559009999999944
206,20,0.5,1.0,-35.0,-1,1.0,1.357400999999868
207,20,0.5,0.0,-35.0,1,0.0,0.3568010000000186
208,20,0.5,0.25,35.0,1,1.0,0.31510100000002694
209,20,0.5,0.0,35.0,-1,0.0,0.8814009999999826
210,20,0.5,0.125,35.0,-1,0.0,0.8417009999999436
211,20,0.5,0.25,-35.0,-1,1.0,0.24490099999991344
212,20,0.5,0.0,-35.0,1,0.0,0.2511009999999487
213,20,0.5,0.125,35.0,-1,0.0,0.2825009999999111
214,20,0.5,0.125,35.0,1,1.0,0.46030099999995855
215,20,0.5,0.25,35.0,-1,0.0,1.5824010000000044
216,20,0.5,0.0625,-35.0,1,0.0,2.443000999999981
217,20,0.5,0.125,35.0,1,1.0,0.8195010000000593
218,20,0.5,0.25,35.0,1,1.0,2.399001000000112
219,20,0.5,0.25,35.0,-1,0.0,2.1621000000000095
220,20,0.5,0.25,35.0,1,1.0,0.44230099999992945
221,20,0.5,1.0,35.0,-1,0.0,1.3849009999998998
222,20,0.5,0.25,-35.0,-1,1.0,0.27910099999996874
223,20,0.5,0.0,-35.0,1,0.0,1.1495009999999866
224,20,0.5,0.0625,-35.0,-1,1.0,0.11530099999993126
225,20,0.5,0.25,-35.0,-1,1.0,0.320500999999922
226,20,0.5,1.0,-35.0,-1,1.0,0.21280100000001312
227,20,0.5,0.0625,35.0,-1,0.0,1.1359009999999898
228,20,0.5,0.125,-35.0,-1,1.0,0.23480099999994763
229,20,0.5,0.25,35.0,-1,0.0,0.20790099999999256
230,20,0.5,0.0625,-35.0,-1,1.0,0.3726010000000315
231,20,0.5,1.0,35.0,1,1.0,0.348500999999942
232,20,0.5,0.0625,35.0,-1,0.0,0.4388009999998985
233,20,0.2,0.0625,-35.0,-1,1.0,0.6233009999999695
234,20,0.5,1.0,35.0,-1,0.0,0.41010099999994054
235,20,0.1,1.0,35.0,-1,0.0,0.5304009999999835
236,20,0.1,1.0,-35.0,-1,1.0,0.23040099999991526
237,20,0.5,1.0,35.0,-1,0.0,3.334000999999944
238,20,0.1,1.0,-35.0,-1,1.0,0.2209010000001399
239,20,0.5,1.0,35.0,1,1.0,1.8177009999999427
240,20,0.5,1.0,-35.0,-1,1.0,0.21780100000000857
241,20,0.5,0.125,-35.0,-1,1.0,0.2413010000000213
242,20,0.5,1.0,-35.0,-1,1.0,0.20800099999996746
243,20,0.5,0.25,35.0,1,1.0,0.15500100000008388
244,20,0.5,0.125,-35.0,-1,1.0,0.881601000000046
245,20,0.5,0.125,-35.0,-1,1.0,1.9785010000000511
246,20,0.5,0.125,-35.0,-1,1.0,0.2520000000001801
247,20,0.5,0.25,-35.0,-1,1.0,0.3623009999998885
248,20,0.5,1.0,35.0,1,1.0,0.9088010000000395
249,20,0.5,1.0,-35.0,-1,1.0,0.29260100000010425
250,20,0.5,1.0,-35.0,-1,1.0,0.32260100000007697
251,20,0.5,0.25,-35.0,-1,1.0,2.7429010000000744
252,20,0.5,0.0625,-35.0,-1,1.0,2.056401000000278
253,20,0.5,0.125,35.0,-1,0.0,1.7398010000001705
254,20,0.5,0.0625,-35.0,-1,1.0,0.29680099999995946
255,20,0.5,0.25,35.0,-1,0.0,1.5469010000001617
256,20,0.5,0.125,35.0,1,1.0,0.4304010000000744
257,20,0.5,0.25,-35.0,-1,1.0,0.2939010000000053
258,20,0.5,0.25,-35.0,-1,1.0,0.33060100000011516
259,20,0.5,0.0,35.0,1,1.0,7.270901000000094
260,20,0.5,0.25,-35.0,-1,1.0,0.2213010000000395
261,20,0.5,1.0,35.0,-1,0.0,0.4183010000001559
262,20,0.5,0.0625,35.0,-1,0.0,0.2718010000000959
263,20,0.5,0.0,-35.0,1,0.0,0.4453009999999722
264,20,0.3,0.0,35.0,-1,0.0,1.0122010000000046
265,20,0.5,1.0,35.0,-1,0.0,1.19920100000013
266,20,0.5,0.0625,-35.0,-1,1.0,0.2891010000000733
267,20,0.5,0.25,35.0,1,1.0,2.329501000000164
268,20,0.5,1.0,-35.0,-1,1.0,0.3662010000000464
269,20,0.5,0.25,-35.0,-1,1.0,0.2798010000001341
270,20,0.5,0.125,35.0,1,1.0,0.6799009999999726
271,20,0.5,1.0,35.0,1,1.0,0.8501009999999951
272,20,0.5,0.25,-35.0,-1,1.0,1.4435010000001967
273,20,0.5,1.0,35.0,1,1.0,5.113801000000194
274,20,0.5,0.0625,35.0,-1,0.0,0.42400100000008933
275,20,0.4,0.0625,35.0,1,1.0,0.45760100000006787
276,20,0.5,1.0,35.0,1,1.0,2.0078000000000884
277,20,0.5,0.0,-35.0,1,0.0,4.851301000000149
278,20,0.5,0.25,-35.0,-1,1.0,0.2715009999999438
279,20,0.5,1.0,35.0,1,1.0,0.5051009999999678
280,20,0.5,0.25,-35.0,-1,1.0,0.27170100000034836
281,20,0.5,0.0625,-35.0,-1,1.0,0.31210100000021157
282,20,0.5,0.25,35.0,-1,0.0,1.3421010000001843
283,20,0.5,0.25,-35.0,-1,1.0,0.28240100000016355
284,20,0.5,0.0,-35.0,-1,1.0,1.4625010000002021
285,20,0.5,0.25,-35.0,-1,1.0,0.5327010000000882
286,20,0.5,0.0,-35.0,-1,1.0,3.3795010000001184
287,20,0.5,1.0,35.0,-1,0.0,0.32300099999997656
288,20,0.1,1.0,-35.0,-1,1.0,0.2533009999999649
289,20,0.5,1.0,35.0,-1,0.0,1.046601000000237
290,20,0.0,1.0,35.0,1,1.0,0.5103010000000268
291,20,0.5,1.0,35.0,1,1.0,1.6870010000002367
292,20,0.5,0.0625,35.0,-1,0.0,1.6171010000000479
293,20,0.5,0.0625,-35.0,-1,1.0,0.4540010000002894
294,20,0.5,0.0625,-35.0,-1,1.0,0.6809010000001763
295,20,0.5,1.0,-35.0,-1,1.0,0.7711010000000442
296,20,0.5,0.0,35.0,1,1.0,0.4146010000001752
297,20,0.5,0.25,35.0,-1,0.0,1.5847010000002228
298,20,0.5,0.125,-35.0,-1,1.0,0.31140099999993254
299,20,0.5,0.25,-35.0,-1,1.0,0.275101000000177
300,20,0.5,0.25,35.0,1,1.0,5.845101000000113
301,20,0.5,0.25,35.0,1,1.0,0.8989010000002509
302,20,0.5,0.0625,-35.0,-1,1.0,0.3092010000002574
303,20,0.5,1.0,-35.0,-1,1.0,0.3825010000000475
304,20,0.5,1.0,35.0,-1,0.0,0.40590100000008533
305,20,0.5,0.125,35.0,1,1.0,1.7130010000000766
306,20,0.5,0.0,35.0,1,1.0,0.1465010000001712
307,20,0.5,0.125,-35.0,-1,1.0,0.5100010000001021
308,20,0.5,0.125,-35.0,-1,1.0,0.38990100000000893
309,20,0.5,1.0,-35.0,-1,1.0,0.2802010000000337
310,20,0.5,0.125,-35.0,-1,1.0,0.43350100000020575
311,20,0.5,0.25,35.0,1,1.0,0.41390100000012353
312,20,0.5,0.0625,35.0,1,1.0,2.2641009999999824
313,20,0.5,0.0,-35.0,1,0.0,2.430800999999974
314,20,0.5,0.125,35.0,1,1.0,0.6043010000003051
315,20,0.5,0.125,-35.0,-1,1.0,0.23480099999983395
316,20,0.5,0.0625,-35.0,-1,1.0,0.3682010000002265
317,20,0.5,0.25,-35.0,-1,1.0,0.19840100000010352
318,20,0.5,1.0,35.0,-1,0.0,0.4050009999998565
319,20,0.5,0.25,35.0,-1,0.0,0.11880100000007587
320,20,0.4,0.25,-35.0,-1,1.0,0.23210100000028433
321,20,0.5,1.0,35.0,1,1.0,0.6258010000001377
322,20,0.5,0.0,-35.0,-1,1.0,0.4026010000000042
323,20,0.5,0.0,-35.0,-1,1.0,2.8861010000000533
324,20,0.5,0.0625,35.0,1,1.0,0.3697010000003047
325,20,0.5,0.0,35.0,-1,0.0,0.6932010000000446
326,20,0.5,0.0,35.0,1,1.0,0.19680100000027778
327,20,0.5,0.25,-35.0,-1,1.0,0.2535010000001421
328,20,0.5,0.25,35.0,1,1.0,1.84370100000001
329,20,0.5,0.125,35.0,-1,0.0,0.9504010000000562
330,20,0.5,0.0,35.0,1,1.0,0.5205009999999675
331,20,0.5,0.25,-35.0,-1,1.0,0.304100999999946
332,20,0.5,0.0625,35.0,1,1.0,0.13770100000010643
333,20,0.5,0.125,-35.0,-1,1.0,0.14100100000018756
334,20,0.5,0.125,-35.0,-1,1.0,0.4079010000002654
335,20,0.5,0.0625,-35.0,-1,1.0,0.3481010000000424
336,20,0.5,0.0625,35.0,1,1.0,1.6516010000002552
337,20,0.5,1.0,-35.0,-1,1.0,0.2917010000001028
338,20,0.5,0.25,-35.0,-1,1.0,0.2585010000002512
339,20,0.5,0.125,35.0,1,1.0,0.7020010000001093
340,20,0.5,0.25,-35.0,-1,1.0,0.3155010000000402
341,20,0.5,0.25,-35.0,-1,1.0,0.3726010000000315
342,20,0.5,1.0,-35.0,-1,1.0,0.22250100000019302
343,20,0.5,0.125,-35.0,-1,1.0,0.7695009999999911
344,20,0.5,0.25,35.0,1,1.0,2.3297010000001137
345,20,0.5,0.0625,-35.0,-1,1.0,0.3630009999999402
346,20,0.5,0.0,35.0,1,1.0,1.5800010000000384
347,20,0.5,0.0,-35.0,1,0.0,0.25680099999999584
348,20,0.5,0.25,35.0,-1,0.0,0.4535009999999602
349,20,0.4,0.25,35.0,1,1.0,7.947301000000152
350,20,0.5,1.0,35.0,-1,0.0,1.824301000000105
351,20,0.5,0.25,35.0,1,1.0,3.758000999999922
352,20,0.5,0.125,-35.0,-1,1.0,0.4449009999998452
353,20,0.5,0.25,-35.0,-1,1.0,0.2817010000001119
354,20,0.5,0.25,35.0,-1,0.0,1.4787010000002283
355,20,0.5,0.0625,35.0,1,1.0,0.508600000000115
356,20,0.5,0.0625,-35.0,-1,1.0,0.3422009999999318
357,20,0.5,0.125,-35.0,-1,1.0,0.35890100000005987
358,20,0.5,0.125,35.0,1,1.0,1.6759010000000671
359,20,0.5,0.125,-35.0,-1,1.0,0.26600100000018756
360,20,0.5,0.125,35.0,-1,0.0,0.3728009999999813
361,20,0.5,0.0,-35.0,1,0.0,3.3961010000000442
362,20,0.5,0.25,35.0,1,1.0,0.6564010000001872
363,20,0.5,1.0,35.0,-1,0.0,3.8299010000000635
364,20,0.4,1.0,-35.0,-1,1.0,0.2937010000000555
365,20,0.5,1.0,35.0,-1,0.0,2.1906010000002425
366,20,0.5,0.25,35.0,-1,0.0,0.2206010000002152
367,20,0.5,0.125,35.0,1,1.0,2.5309010000000853
368,20,0.5,1.0,-35.0,-1,1.0,0.24450100000012753
369,20,0.5,0.125,35.0,1,1.0,1.6046010000002298
370,20,0.5,0.125,-35.0,-1,1.0,5.984801000000289
371,20,0.5,0.0625,-35.0,1,0.0,0.6754009999999653
372,20,0.5,0.0625,35.0,1,1.0,0.5057010000000446
373,20,0.5,1.0,-35.0,-1,1.0,0.24580100000002858
374,20,0.5,0.25,-35.0,-1,1.0,0.4591010000001461
375,20,0.5,0.125,35.0,-1,0.0,1.6925010000002203
376,20,0.4,0.125,35.0,1,1.0,4.419500999999855
377,20,0.5,1.0,35.0,-1,0.0,0.22980100000017956
378,20,0.4,1.0,35.0,1,1.0,0.6668010000000777
379,20,0.5,1.0,35.0,-1,0.0,0.3702009999999518
380,20,0.5,0.125,35.0,-1,0.0,0.13700100000005477
381,20,0.5,0.0,-35.0,-1,1.0,0.3139009999999871
382,20,0.5,0.0625,35.0,1,1.0,1.6741010000002916
383,20,0.5,0.125,35.0,1,1.0,2.4608009999999467
384,20,0.5,0.25,35.0,1,1.0,0.26420100000018465
385,20,0.5,0.125,35.0,-1,0.0,0.3112010000002101
386,20,0.5,0.0,-35.0,1,0.0,1.2179009999999835
387,20,0.5,0.0,-35.0,1,0.0,0.4548010000000886
388,20,0.5,1.0,35.0,-1,0.0,0.3483010000002196
389,20,0.5,0.0625,-35.0,1,0.0,3.3754010000000108
390,20,0.5,0.25,35.0,1,1.0,4.618900999999823
391,20,0.5,0.125,-35.0,-1,1.0,0.36920099999997547
392,20,0.5,0.0625,-35.0,-1,1.0,0.32600100000036036
393,20,0.5,0.0625,-35.0,1,0.0,4.3863010000002305
394,20,0.5,0.25,-35.0,-1,1.0,0.2897010000001501
395,20,0.5,0.0625,35.0,1,1.0,0.5068009999999958
396,20,0.5,0.25,35.0,1,1.0,1.7235010000001694
397,20,0.5,0.0625,35.0,1,1.0,1.8802009999999427
398,20,0.5,0.125,35.0,1,1.0,0.370401000000129
399,20,0.5,1.0,35.0,1,1.0,2.0040010000000166
400,20,0.5,0.125,35.0,1,1.0,2.2143009999999776
401,20,0.5,0.0,35.0,1,1.0,3.9444009999999707
402,20,0.5,0.0,35.0,1,1.0,3.541301000000203
403,20,0.5,0.125,35.0,1,1.0,0.5683010000002469
404,20,0.5,1.0,35.0,1,1.0,0.47490099999981794
405,20,0.5,0.25,-35.0,-1,1.0,0.28850099999999657
406,20,0.5,0.25,35.0,-1,0.0,1.0720010000000002
407,20,0.8,0.25,35.0,-1,0.0,0.2921010000000024
408,20,0.5,1.0,35.0,1,1.0,0.34910100000001876
409,20,0.5,0.0625,35.0,-1,0.0,1.55920100000003
410,20,0.5,0.125,-35.0,-1,1.0,0.2959010000001854
411,20,0.5,0.25,35.0,1,1.0,1.7396009999999933
412,20,0.5,0.0625,-35.0,-1,1.0,3.8830010000001494
413,20,0.5,0.0625,-35.0,-1,1.0,1.103200999999899
414,20,0.5,1.0,-35.0,-1,1.0,0.3335010000002967
415,20,0.5,0.25,35.0,1,1.0,0.5902000000000953
416,20,0.5,0.0625,35.0,1,1.0,1.870401000000129
417,20,0.5,0.25,-35.0,-1,1.0,0.23400100000003476
418,20,0.5,1.0,-35.0,-1,1.0,0.41760100000010425
419,20,0.5,0.25,35.0,1,1.0,2.2476010000000315
420,20,0.5,1.0,-35.0,-1,1.0,0.3476010000001679
421,20,0.5,0.125,-35.0,-1,1.0,0.30480100000022503
422,20,0.5,0.25,-35.0,-1,1.0,0.301401000000169
423,20,0.5,0.125,-35.0,-1,1.0,0.2616009999999278
424,20,0.5,0.0,35.0,1,1.0,1.3116010000001097
425,20,0.5,0.0,-35.0,-1,1.0,2.641801000000214
426,20,0.5,1.0,35.0,1,1.0,0.5487009999999373
427,20,0.5,0.125,35.0,1,1.0,4.21220100000005
428,20,0.5,0.25,35.0,1,1.0,2.945901000000049
429,20,0.5,0.25,35.0,1,1.0,0.5162010000001374
430,20,0.5,0.0,-35.0,-1,1.0,1.4996009999999842
431,20,0.5,0.125,35.0,-1,0.0,1.7198009999999613
432,20,0.5,0.25,35.0,1,1.0,0.7132010000002538
433,20,0.5,0.125,-35.0,-1,1.0,0.3801010000001952
434,20,0.5,0.25,35.0,1,1.0,2.353501000000051
435,20,0.5,1.0,-35.0,-1,1.0,0.28410100000019156
436,20,0.5,0.0625,35.0,-1,0.0,2.437200999999959
437,20,0.5,0.25,35.0,1,1.0,0.4777010000000246
438,20,0.5,1.0,35.0,1,1.0,0.1811009999998987
439,20,0.5,0.25,-35.0,-1,1.0,0.3381010000000515
440,20,0.5,1.0,35.0,1,1.0,0.6015010000000984
441,20,0.5,0.0625,35.0,-1,0.0,0.44170100000019374
442,20,0.5,0.25,35.0,-1,0.0,0.2983010000000377
443,20,0.4,0.25,-35.0,-1,1.0,0.2819009999998343
444,20,0.5,1.0,-35.0,-1,1.0,0.3119010000000344
445,20,0.5,0.125,35.0,1,1.0,3.7722009999999955
446,20,0.5,0.0,-35.0,1,0.0,0.5759010000001581
447,20,0.5,0.0,-35.0,1,0.0,0.3961010000000442
448,20,0.5,1.0,-35.0,-1,1.0,0.31310099999996055
449,20,0.5,0.25,-35.0,-1,1.0,0.299701000000141
450,20,0.5,0.0,-35.0,1,0.0,2.033001000000013
451,20,0.5,0.25,35.0,1,1.0,1.5598010000001068
452,20,0.5,0.25,35.0,-1,0.0,1.6603010000001177
453,20,0.5,0.125,35.0,1,1.0,0.5070009999999456
454,20,0.5,0.25,-35.0,-1,1.0,0.2506010000001879
455,20,0.5,0.0,35.0,-1,0.0,0.25400100000024395
456,20,0.5,0.0,35.0,1,1.0,0.24080099999991944
457,20,0.5,0.125,35.0,1,1.0,3.144300999999814
458,20,0.5,0.25,-35.0,-1,1.0,0.3778010000000904
459,20,0.5,0.125,35.0,-1,0.0,0.3313010000001668
460,20,0.5,0.0,35.0,1,1.0,0.5682010000000446
461,20,0.5,0.125,-35.0,-1,1.0,0.31850100000019665
462,20,0.5,0.0,-35.0,-1,1.0,4.338800999999876
463,20,0.5,0.0,-35.0,1,0.0,0.5523010000001705
464,20,0.5,0.0625,-35.0,-1,1.0,0.286000999999942
465,20,0.5,0.125,-35.0,-1,1.0,0.3593010000004142
466,20,0.5,0.25,35.0,1,1.0,3.036200999999892
467,20,0.5,0.0625,-35.0,-1,1.0,0.4031009999998787
468,20,0.5,0.25,35.0,1,1.0,3.6064009999995505
469,20,0.5,0.0625,-35.0,-1,1.0,0.3136010000002898
470,20,0.5,0.25,-35.0,-1,1.0,0.2735010000001239
471,20,0.5,0.25,35.0,1,1.0,0.7437009999998736
472,20,0.5,0.25,-35.0,-1,1.0,0.22060100000044258
473,20,0.5,0.25,-35.0,-1,1.0,0.26050100000020393
474,20,0.5,0.125,35.0,1,1.0,2.1007009999998445
475,20,0.5,1.0,35.0,1,1.0,0.3943010000002687
476,20,0.5,0.0625,-35.0,-1,1.0,0.29430100000035964
477,20,0.5,0.125,-35.0,-1,1.0,0.381300999999894
478,20,0.5,0.0,-35.0,1,0.0,2.8348009999999704
479,20,0.5,0.125,35.0,1,1.0,0.30840100000023085
480,20,0.5,0.0625,-35.0,-1,1.0,0.2984010000004673
481,20,0.5,0.25,35.0,1,1.0,2.3822009999998954
482,20,0.5,0.0,-35.0,1,0.0,2.2588009999999485
483,20,0.5,0.0625,35.0,-1,0.0,0.0924009999998816
484,20,0.5,0.125,35.0,-1,0.0,0.3559010000003582
485,20,0.5,0.125,35.0,1,1.0,0.7062009999999646
486,20,0.5,1.0,-35.0,-1,1.0,0.30640100000027815
487,20,0.5,0.125,-35.0,-1,1.0,0.30330099999991944
488,20,0.5,0.25,-35.0,-1,1.0,0.2734009999999216
489,20,0.5,0.125,-35.0,-1,1.0,0.29340099999990343
490,20,0.5,0.0625,35.0,-1,0.0,0.23020099999985177
491,20,0.5,0.0,-35.0,1,0.0,0.40370100000018283
492,20,0.5,0.125,-35.0,-1,1.0,0.363901000000169
493,20,0.5,0.0625,35.0,1,1.0,0.4607009999995171
494,20,0.5,0.0625,-35.0,-1,1.0,0.32750099999975646
495,20,0.5,1.0,-35.0,-1,1.0,0.40100100000017846
496,20,0.5,1.0,-35.0,-1,1.0,0.2812010000002374
497,20,0.5,0.125,35.0,1,1.0,0.5281010000003334
498,20,0.5,0.25,-35.0,-1,1.0,0.2917010000001028
499,20,0.5,0.125,-35.0,-1,1.0,0.18830100000013772
500,20,0.5,0.0625,-35.0,-1,1.0,0.2918009999998503
501,20,0.5,1.0,-35.0,-1,1.0,0.2854000000002088
502,20,0.5,0.0625,35.0,-1,0.0,0.7388010000004215
503,20,0.5,0.0,-35.0,1,0.0,0.469101000000137
504,20,0.5,0.25,-35.0,-1,1.0,0.3928009999999631
505,20,0.5,0.125,-35.0,-1,1.0,0.28270000000020445
506,20,0.5,0.125,35.0,-1,0.0,0.31630100000029415
507,20,0.2,0.125,-35.0,-1,1.0,0.3096009999999296
508,20,0.5,1.0,-35.0,-1,1.0,0.2500009999998838
509,20,0.5,0.0,-35.0,1,0.0,2.0101010000003043
510,20,0.5,0.0625,-35.0,-1,1.0,0.3402009999999791
511,20,0.5,0.0625,35.0,1,1.0,3.2236010000001443
512,20,0.5,1.0,-35.0,-1,1.0,0.3973009999995156
513,20,0.5,0.0,35.0,1,1.0,0.4344010000004346
514,20,0.5,1.0,35.0,-1,0.0,0.837601000000177
515,20,0.5,0.0625,35.0,-1,0.0,0.3677010000001246
516,20,0.3,0.0625,-35.0,-1,1.0,0.35790099999985614
517,20,0.5,1.0,35.0,1,1.0,0.6216009999998278
518,20,0.5,0.0,-35.0,-1,1.0,2.3151010000001406
519,20,0.5,0.125,35.0,1,1.0,0.6351010000003043
520,20,0.5,0.25,35.0,1,1.0,0.815400999999838
521,20,0.5,1.0,-35.0,-1,1.0,0.18890100000044185
522,20,0.5,1.0,35.0,1,1.0,0.3022009999999682
523,20,0.5,0.0625,-35.0,-1,1.0,0.36910100000022794
524,20,0.5,0.125,35.0,1,1.0,0.5227010000003247
525,20,0.5,1.0,35.0,1,1.0,0.5393009999997957
526,20,0.5,0.0625,35.0,-1,0.0,0.14290099999971062
527,20,0.5,0.25,35.0,1,1.0,0.4731010000000424
528,20,0.5,0.0,35.0,-1,0.0,1.1798009999997703
529,20,0.5,0.125,35.0,1,1.0,3.6067010000001574
530,20,0.5,0.25,-35.0,-1,1.0,0.3002999999998792
531,20,0.5,0.25,35.0,1,1.0,0.29400100000020757
532,20,0.5,0.0625,35.0,1,1.0,1.3973009999999704
533,20,0.5,0.125,-35.0,-1,1.0,0.2840009999999893
534,20,0.5,0.25,-35.0,-1,1.0,0.24450100000012753
535,20,0.5,0.0625,-35.0,-1,1.0,0.8543009999998503
536,20,0.5,0.0625,-35.0,-1,1.0,0.2746010000005299
537,20,0.5,0.0625,-35.0,-1,1.0,1.2880010000003494
538,20,0.5,0.25,35.0,1,1.0,3.0783010000000104
539,20,0.5,0.125,-35.0,-1,1.0,0.3518010000002505
540,20,0.5,1.0,-35.0,-1,1.0,0.48210100000005696
541,20,0.5,0.125,-35.0,-1,1.0,1.262101000000257
542,20,0.5,1.0,-35.0,-1,1.0,0.24230100000022503
543,20,0.5,0.0625,35.0,-1,0.0,0.4792010000001028
544,20,0.5,0.25,-35.0,-1,1.0,0.3360010000001239
545,20,0.5,1.0,35.0,1,1.0,0.1893009999998867
546,20,0.5,0.125,-35.0,-1,1.0,0.2998010000001159
547,20,0.5,0.125,35.0,-1,0.0,1.319800999999643
548,20,0.5,0.0,35.0,-1,0.0,1.3132009999999354
549,20,0.5,0.25,-35.0,-1,1.0,0.5068010000004506
550,20,0.5,0.25,35.0,1,1.0,4.507000999999946
551,20,0.5,0.0625,-35.0,-1,1.0,0.3940010000001166
552,20,0.5,1.0,-35.0,-1,1.0,0.3109010000002854
553,20,0.5,0.0625,-35.0,-1,1.0,0.22420099999999366
554,20,0.5,0.125,35.0,1,1.0,2.601101000000199
555,20,0.5,1.0,35.0,1,1.0,0.5512009999997645
556,20,0.5,0.125,-35.0,-1,1.0,0.37820099999999
557,20,0.5,0.0,-35.0,1,0.0,0.5615010000005896
558,20,0.5,0.125,35.0,1,1.0,2.5250009999999747
559,20,0.5,0.0625,35.0,-1,0.0,0.3320010000002185
560,20,0.5,0.0,-35.0,1,0.0,0.312300999999934
561,20,0.5,0.25,-35.0,-1,1.0,0.20560100000011516
562,20,0.5,1.0,-35.0,-1,1.0,0.2424010000004273
563,20,0.5,1.0,-35.0,-1,1.0,0.23600100000021484
564,20,0.5,1.0,35.0,1,1.0,1.642800999999963
565,20,0.5,0.125,35.0,1,1.0,0.7132010000000264
566,20,0.5,0.25,35.0,1,1.0,0.4833010000002105
567,20,0.5,0.25,35.0,1,1.0,0.40030100000058155
568,20,0.5,0.0,35.0,1,1.0,0.33690100000012535
569,20,0.5,0.0625,35.0,1,1.0,2.3672010000000228
570,20,0.5,0.25,-35.0,-1,1.0,0.38080100000024686
571,20,0.5,0.0625,35.0,1,1.0,0.5775010000002112
572,20,0.5,1.0,35.0,1,1.0,0.5478010000001632
573,20,0.5,0.0625,35.0,1,1.0,0.3546010000000024
574,20,0.5,0.0625,35.0,-1,0.0,0.19130100000029415
575,20,0.8,0.0625,-35.0,1,0.0,0.73140100000046
576,20,0.5,1.0,35.0,1,1.0,0.37510100000008606
577,20,0.5,0.0625,35.0,1,1.0,0.38840099999970334
578,20,0.5,1.0,-35.0,-1,1.0,0.28190100000028906
579,20,0.5,0.125,35.0,1,1.0,0.28560099999958766
580,20,0.5,1.0,-35.0,-1,1.0,0.229001000000153
581,20,0.5,0.125,-35.0,-1,1.0,0.30250100000012026
582,20,0.5,0.0625,35.0,1,1.0,1.4660009999997783
583,20,0.5,1.0,-35.0,-1,1.0,0.27270099999986996
584,20,0.5,1.0,35.0,1,1.0,0.4395009999998365
585,20,0.5,1.0,35.0,1,1.0,1.9629009999998743
586,20,0.5,1.0,35.0,1,1.0,0.4899000000000342
587,20,0.5,1.0,35.0,1,1.0,0.20020100000010643
588,20,0.5,1.0,35.0,1,1.0,0.150101000000177
589,20,0.5,0.125,-35.0,-1,1.0,0.28690000000005966
590,20,0.5,1.0,35.0,1,1.0,0.7771010000001297
591,20,0.5,0.125,-35.0,-1,1.0,0.4771009999999478
592,20,0.5,0.125,-35.0,-1,1.0,0.30420100000037564
593,20,0.5,0.125,35.0,1,1.0,0.4974010000000817
594,20,0.5,0.0625,35.0,-1,0.0,0.1944010000001981
595,20,0.5,0.25,35.0,1,1.0,0.47440099999994345
596,20,0.5,0.125,35.0,1,1.0,0.4678009999997812
597,20,0.5,0.125,-35.0,-1,1.0,0.42460099999971135
598,20,0.5,0.0625,35.0,1,1.0,0.3949010000001181
599,20,0.5,0.25,35.0,1,1.0,0.3084009999997761
600,20,0.5,0.125,-35.0,-1,1.0,0.928400999999667
601,20,0.5,0.0,35.0,1,1.0,0.5819009999995615
602,20,0.5,0.125,35.0,-1,0.0,0.14220099999965896
603,20,0.5,0.125,-35.0,-1,1.0,0.3088009999996757
604,20,0.5,0.125,-35.0,-1,1.0,1.1526010000002316
605,20,0.5,0.125,35.0,1,1.0,0.762800999999854
606,20,0.5,0.0,-35.0,1,0.0,0.37960100000009334
607,20,0.5,0.125,-35.0,-1,1.0,0.3232010000006085
608,20,0.5,1.0,-35.0,-1,1.0,0.24030099999981758
609,20,0.5,0.0,-35.0,1,0.0,3.4835010000001603
610,20,0.5,0.0625,-35.0,-1,1.0,1.9337009999999282
611,20,0.5,0.25,35.0,1,1.0,0.4105010000002949
612,20,0.5,0.25,-35.0,-1,1.0,0.5507010000001173
613,20,0.5,0.25,35.0,1,1.0,0.4707010000001901
614,20,0.5,0.25,35.0,1,1.0,0.38440099999979793
615,20,0.5,0.25,-35.0,-1,1.0,0.19100100000014208
616,20,0.5,1.0,-35.0,-1,1.0,0.43120100000032835
617,20,0.5,0.125,35.0,1,1.0,0.5113000000001193
618,20,0.5,0.25,35.0,-1,0.0,1.814900999999736
619,20,0.5,0.25,35.0,1,1.0,0.38830100000041057
620,20,0.5,0.0625,-35.0,1,0.0,0.42850099999986924
621,20,0.5,0.25,35.0,1,1.0,0.38870100000031016
622,20,0.5,1.0,35.0,1,1.0,0.5889010000000781
623,20,0.5,1.0,-35.0,-1,1.0,0.2690010000001166
624,20,0.5,0.0,-35.0,1,0.0,1.485801000000265
625,20,0.5,0.0625,-35.0,1,0.0,0.18300100000033126
626,20,0.5,0.25,35.0,1,1.0,0.17970100000002276
627,20,0.5,1.0,35.0,1,1.0,0.41980100000000675
628,20,0.5,0.0625,-35.0,-1,1.0,0.3399010000002818
629,20,0.5,0.125,35.0,-1,0.0,1.0567009999999755
630,20,0.5,0.125,35.0,1,1.0,0.4770010000002003
631,20,0.5,0.0625,35.0,1,1.0,0.4104010000000926
632,20,0.5,0.0625,35.0,-1,0.0,0.2807009999996808
633,20,0.5,0.0,-35.0,1,0.0,0.5707010000000992
634,20,0.5,0.0625,35.0,1,1.0,0.33100100000001476
635,20,0.5,0.25,-35.0,-1,1.0,0.26770100000021557
636,20,0.5,1.0,35.0,1,1.0,0.6246009999999842
637,20,0.5,0.25,35.0,1,1.0,0.4748010000002978
638,20,0.5,0.0625,-35.0,-1,1.0,0.6351010000003043
639,20,0.5,0.125,-35.0,-1,1.0,0.30820100000028106
640,20,0.5,0.0,35.0,1,1.0,0.5118009999996502
641,20,0.5,0.125,-35.0,-1,1.0,0.2886009999997441
642,20,0.5,0.25,35.0,1,1.0,0.32880100000011225
643,20,0.5,0.25,35.0,1,1.0,0.659001000000444
644,20,0.5,1.0,-35.0,-1,1.0,0.22930099999985032
645,20,0.5,0.0625,35.0,1,1.0,4.539201000000503
646,20,0.5,0.0625,35.0,1,1.0,4.326400999999805
647,20,0.5,0.125,35.0,1,1.0,0.559900999999627
648,20,0.5,0.0625,-35.0,-1,1.0,0.6201010000004317
649,20,0.5,0.125,-35.0,-1,1.0,0.33690100000012535
650,20,0.5,0.0625,35.0,1,1.0,0.9171010000000024
651,20,0.5,0.25,35.0,1,1.0,0.2205010000002403
652,20,0.5,0.125,35.0,1,1.0,0.613901000000169
653,20,0.5,0.0,35.0,1,1.0,0.3541009999999005
654,20,0.5,0.0625,-35.0,-1,1.0,0.47420099999999366
655,20,0.5,0.0,35.0,1,1.0,1.8444009999998343
656,20,0.5,0.0625,-35.0,-1,1.0,0.46140100000047823
657,20,0.5,1.0,35.0,1,1.0,0.4314009999998234
658,20,0.5,0.25,-35.0,-1,1.0,0.3081010000000788
659,20,0.5,0.125,-35.0,-1,1.0,0.6317010000002483
660,20,0.5,0.25,-35.0,-1,1.0,0.29520099999990634
661,20,0.5,0.125,-35.0,-1,1.0,0.3319010000000162
662,20,0.5,1.0,-35.0,-1,1.0,0.31910100000004604
663,20,0.5,1.0,35.0,1,1.0,0.6790009999999711
664,20,0.5,0.125,35.0,1,1.0,4.039201000000048
665,20,0.5,0.25,35.0,1,1.0,0.512800999999854
666,20,0.5,1.0,35.0,1,1.0,0.43960100000003877
667,20,0.5,0.125,35.0,1,1.0,0.2732009999999718
668,20,0.5,0.25,-35.0,-1,1.0,0.419901000000209
669,20,0.5,0.125,-35.0,-1,1.0,0.30000099999961094
670,20,0.5,0.125,35.0,1,1.0,0.7302010000003065
671,20,0.5,1.0,35.0,1,1.0,3.0802010000002156
672,20,0.5,0.0625,35.0,1,1.0,2.7905009999999493
673,20,0.5,0.125,35.0,1,1.0,0.5108009999999013
674,20,0.5,1.0,-35.0,-1,1.0,0.4476009999998496
675,20,0.5,0.0625,35.0,-1,0.0,1.0611010000002352
676,20,0.5,0.0625,-35.0,1,0.0,0.13470100000040475
677,20,0.5,0.125,-35.0,-1,1.0,0.22470099999964077
678,20,0.5,0.125,35.0,-1,0.0,0.891501000000062
679,20,0.5,0.125,35.0,1,1.0,0.34840100000019447
680,20,0.5,1.0,-35.0,-1,1.0,0.2552009999999427
681,20,0.5,0.25,-35.0,-1,1.0,0.27530099999967206
682,20,0.5,0.25,-35.0,-1,1.0,0.3088999999999942
683,20,0.5,0.0625,35.0,1,1.0,0.4690009999999347
684,20,0.5,0.0625,-35.0,-1,1.0,0.612601000000268
685,20,0.5,1.0,-35.0,-1,1.0,0.35920100000021193
686,20,0.5,0.125,35.0,1,1.0,0.5361010000001443
687,20,0.5,0.25,-35.0,-1,1.0,0.31280100000003586
688,20,0.5,0.0625,-35.0,-1,1.0,0.3297010000001137
689,20,0.5,0.0,35.0,1,1.0,0.496501000000535
690,20,0.5,1.0,35.0,1,1.0,0.7899009999996451
691,20,0.5,1.0,35.0,1,1.0,0.3334010000003218
692,20,0.5,0.125,-35.0,-1,1.0,0.370401000000129
693,20,0.5,0.0625,35.0,1,1.0,1.937000999999782
694,20,0.5,1.0,-35.0,-1,1.0,0.2640010000004622
695,20,0.5,1.0,35.0,1,1.0,6.034101000000192
696,20,0.5,0.125,-35.0,-1,1.0,0.29440100000010716
697,20,0.5,1.0,-35.0,-1,1.0,0.24790100000018356
698,20,0.5,0.25,35.0,1,1.0,0.6283009999997375
699,20,0.5,0.125,35.0,1,1.0,3.3682010000002265
700,20,0.5,0.0625,35.0,1,1.0,0.4386010000002898
701,20,0.5,0.0,-35.0,1,0.0,3.4121009999998932
702,20,0.5,0.125,-35.0,-1,1.0,0.3357009999999718
703,20,0.5,0.25,35.0,1,1.0,0.40590100000008533
704,20,0.5,0.25,-35.0,-1,1.0,0.36940100000038
705,20,0.5,0.0,-35.0,1,0.0,0.5627009999998336
706,20,0.6,0.0,35.0,1,1.0,12.300001000000066
707,20,0.5,1.0,35.0,-1,0.0,11.200800999999956
708,20,0.5,0.125,-35.0,1,0.0,15.588100999999824
709,20,0.5,0.0625,35.0,1,1.0,17.78230100000019
710,20,0.5,1.0,35.0,1,1.0,6.75300100000004
711,20,0.5,0.25,-35.0,-1,1.0,0.3701009999999769
712,20,0.5,0.125,-35.0,-1,1.0,0.3103009999999813
713,20,0.5,0.0625,35.0,1,1.0,0.9204009999998561
714,20,0.5,0.0625,-35.0,-1,1.0,0.5574010000004819
715,20,0.5,0.25,35.0,1,1.0,3.46420100000023
716,20,0.5,0.25,-35.0,-1,1.0,0.2878009999999449
717,20,0.5,0.0,-35.0,1,0.0,0.6012009999999464
718,20,0.5,0.0625,-35.0,-1,1.0,0.3381009999998241
719,20,0.5,0.125,-35.0,-1,1.0,0.3483009999999922
720,20,0.5,0.0,-35.0,1,0.0,0.6150000000002365
721,20,0.5,0.125,-35.0,-1,1.0,0.3186009999999442
722,20,0.5,0.25,-35.0,-1,1.0,0.3554010000002563
723,20,0.5,1.0,-35.0,-1,1.0,0.1286009999998896
724,20,0.5,1.0,-35.0,-1,1.0,0.23890099999971426
725,20,0.5,1.0,-35.0,-1,1.0,0.2723010000004251
726,20,0.5,1.0,-35.0,-1,1.0,0.2557010000000446
727,20,0.5,0.125,-35.0,-1,1.0,0.2960009999997055
728,20,0.5,0.0,35.0,1,1.0,1.2893010000002505
729,20,0.5,0.25,35.0,1,1.0,3.762800999999854
730,20,0.5,0.0,-35.0,1,0.0,0.5733009999999013
731,20,0.5,0.125,35.0,1,1.0,3.763401000000158
732,20,0.5,0.125,35.0,1,1.0,2.6635009999999966
733,20,0.5,0.25,-35.0,-1,1.0,6.357101000000512
734,20,0.5,0.25,-35.0,-1,1.0,0.3944010000000162
735,20,0.5,1.0,35.0,1,1.0,4.298001000000568
736,20,0.5,0.125,-35.0,-1,1.0,0.33490100000017264
737,20,0.5,0.125,35.0,-1,0.0,0.32500100000015664
738,20,0.6,0.125,-35.0,-1,1.0,0.31520099999988815
739,20,0.5,1.0,-35.0,-1,1.0,0.30530099999987215
740,20,0.5,0.125,-35.0,-1,1.0,0.29220100000020466
741,20,0.5,0.0625,-35.0,-1,1.0,0.3322010000001683
742,20,0.5,0.0625,-35.0,-1,1.0,0.4723009999997885
743,20,0.5,0.0,35.0,1,1.0,0.1724010000002636
744,20,0.5,0.0625,35.0,1,1.0,0.6359010000005583
745,20,0.5,0.125,35.0,1,1.0,0.7595010000000002
746,20,0.5,0.25,35.0,1,1.0,0.5195010000002185
747,20,0.5,0.125,-35.0,-1,1.0,0.7264010000003509
748,20,0.5,0.0,35.0,1,1.0,0.5667010000001937
749,20,0.5,0.125,-35.0,-1,1.0,0.29670100000021193
750,20,0.5,0.0625,35.0,1,1.0,2.3869009999998525
751,20,0.5,0.0,-35.0,1,0.0,0.5904009999999289
752,20,0.5,0.0,35.0,1,1.0,0.5172010000001137
753,20,0.5,1.0,-35.0,-1,1.0,0.31740099999979066
754,20,0.5,1.0,35.0,1,1.0,1.7775010000000293
755,20,0.5,0.125,-35.0,1,0.0,3.5976010000003953
756,20,0.5,0.0625,35.0,1,1.0,2.434801000000334
757,20,0.5,0.125,35.0,1,1.0,0.7316009999999551
758,20,0.5,0.0,35.0,1,1.0,3.2820010000000366
759,20,0.5,0.125,35.0,1,1.0,0.5055010000000948
760,20,0.5,0.25,-35.0,-1,1.0,0.25590100000044913
761,20,0.5,0.0,35.0,1,1.0,0.3792010000006485
762,20,0.5,1.0,35.0,1,1.0,0.7728010000000722
763,20,0.5,1.0,35.0,1,1.0,0.5730009999997492
764,20,0.5,0.25,35.0,1,1.0,1.3029010000000198
765,20,0.5,0.0625,-35.0,1,0.0,4.039800999999898
766,20,0.5,0.0,35.0,1,1.0,0.39010099999995873
767,20,0.5,0.0,35.0,1,1.0,4.103501000000051
768,20,0.5,0.25,35.0,1,1.0,0.47730100000035236
769,20,0.5,1.0,-35.0,-1,1.0,0.2773010000000795
770,20,0.5,0.125,35.0,1,1.0,8.747401000000536
771,20,0.5,0.0,35.0,1,1.0,0.49440099999992526
772,20,0.5,0.25,-35.0,-1,1.0,0.30140099999971426
773,20,0.5,0.125,-35.0,-1,1.0,0.5116010000001552
774,20,0.5,0.0625,35.0,1,1.0,0.47850100000005114
775,20,0.5,0.0,35.0,1,1.0,2.245201000000179
776,20,0.5,1.0,-35.0,-1,1.0,0.5254009999998743
777,20,0.5,0.125,35.0,1,1.0,0.48560100000031525
778,20,0.5,0.25,35.0,1,1.0,3.5656009999997877
779,20,0.5,1.0,35.0,1,1.0,0.4692009999998845
780,20,0.5,0.25,-35.0,-1,1.0,0.5594009999999798
781,20,0.5,0.125,35.0,1,1.0,4.356100999999853
782,20,0.5,0.0625,-35.0,-1,1.0,0.46650099999988015
783,20,0.5,1.0,35.0,1,1.0,0.43990100000019083
784,20,0.5,0.0625,35.0,1,1.0,3.346700999999939
785,20,0.5,0.0625,-35.0,-1,1.0,0.3369010000005801
786,20,0.5,0.0,-35.0,1,0.0,13.843800999999985
787,20,0.5,0.25,-35.0,-1,1.0,0.21470099999987724
788,20,0.5,1.0,35.0,1,1.0,6.5380010000003494
789,20,0.5,0.125,35.0,1,1.0,4.758201000000099
790,20,0.5,1.0,-35.0,-1,1.0,0.3220010000000002
791,20,0.5,0.0625,-35.0,-1,1.0,0.4620010000003276
792,20,0.5,1.0,35.0,1,1.0,0.7056009999996604
793,20,0.5,1.0,35.0,1,1.0,0.8491009999997914
794,20,0.5,1.0,35.0,1,1.0,3.7293009999998503
795,20,0.5,0.25,-35.0,-1,1.0,2.742801000000327
796,20,0.5,0.125,-35.0,-1,1.0,0.3829999999998108
797,20,0.5,0.0,-35.0,1,0.0,0.5565010000000257
798,20,0.5,0.0625,35.0,1,1.0,0.5701010000002498
799,20,0.5,1.0,-35.0,-1,1.0,0.25010000000020227
800,20,0.5,1.0,-35.0,-1,1.0,0.2803010000006907
801,20,0.5,0.25,35.0,1,1.0,2.880501000000095
802,20,0.5,0.25,-35.0,-1,1.0,0.344101000000137
803,20,0.5,0.125,35.0,1,1.0,0.5542009999999209
804,20,0.5,0.125,-35.0,-1,1.0,0.4377009999998336
805,20,0.5,0.0625,35.0,1,1.0,3.594601000000239
806,20,0.5,0.125,35.0,1,1.0,13.394701000000168
807,20,0.5,0.25,35.0,1,1.0,23.50190100000009
808,20,0.5,0.25,35.0,1,1.0,12.259701000000405
809,20,0.5,0.0,-35.0,1,0.0,7.797000999999909
810,20,0.5,0.0,35.0,1,1.0,7.630801000000247
811,20,0.5,1.0,35.0,1,1.0,0.5146010000003116
812,20,0.5,0.0625,-35.0,1,0.0,4.838100999999824
813,20,0.5,0.125,-35.0,-1,1.0,0.29850100000021484
814,20,0.5,1.0,35.0,1,1.0,6.5351009999999405
815,20,0.5,1.0,-35.0,-1,1.0,0.2922009999997499
816,20,0.5,1.0,35.0,1,1.0,5.659100999999737
817,20,0.5,0.0625,35.0,-1,0.0,0.3828009999997448
818,20,0.5,0.25,35.0,1,1.0,3.6695009999998547
819,20,0.5,0.125,35.0,1,1.0,3.18650099999968
820,20,0.5,0.0625,35.0,1,1.0,12.380200999999943
821,20,0.5,0.0,-35.0,1,0.0,23.87750099999994
822,20,0.5,0.0,35.0,1,1.0,11.411900999999943
823,20,0.5,0.25,-35.0,-1,1.0,0.24910100000033708
1,21,0.5,0.0625,-35.0,1,0.0,0.6780999999999995
2,21,1.0,0.0625,-35.0,1,0.0,6.2151000000000005
3,21,0.5,1.0,-35.0,-1,1.0,0.34080000000000155
4,21,0.5,0.125,35.0,1,1.0,3.0036999999999985
5,21,0.5,1.0,35.0,1,1.0,2.406600000000001
6,21,0.5,0.25,35.0,1,1.0,2.4649
7,21,0.5,0.0625,35.0,1,1.0,1.518100000000004
8,21,0.5,0.125,-35.0,-1,1.0,0.5533000000000001
9,21,0.5,1.0,35.0,1,1.0,1.5450000000000017
10,21,0.5,0.0625,35.0,1,1.0,0.6895000000000024
11,21,0.5,0.25,-35.0,-1,1.0,0.32620000000000005
12,21,0.5,1.0,35.0,1,1.0,0.486699999999999
13,21,0.5,1.0,35.0,1,1.0,0.9262999999999977
14,21,0.5,0.25,-35.0,-1,1.0,0.3072000000000017
15,21,0.5,0.0625,35.0,1,1.0,2.458600000000004
16,21,0.5,1.0,-35.0,-1,1.0,0.3352000000000146
17,21,0.5,0.0625,35.0,1,1.0,1.7209000000000145
18,21,0.5,0.125,-35.0,-1,1.0,0.36820000000001585
19,21,0.5,1.0,35.0,1,1.0,2.272500000000008
20,21,0.5,0.0625,35.0,1,1.0,2.566800000000015
21,21,0.5,1.0,35.0,1,1.0,2.213901000000007
22,21,0.5,1.0,35.0,1,1.0,1.6658010000000019
23,21,0.5,0.0625,-35.0,1,0.0,2.1131010000000146
24,21,0.5,0.125,-35.0,-1,1.0,0.27660100000001364
25,21,0.5,1.0,-35.0,-1,1.0,0.2689009999999996
26,21,0.5,0.0,-35.0,1,0.0,2.206801000000013
27,21,0.5,0.0,35.0,1,1.0,5.151600999999999
28,21,0.5,0.0,-35.0,1,0.0,0.4885010000000136
29,21,0.8,0.0,35.0,1,1.0,3.280901
30,21,0.5,1.0,-35.0,-1,1.0,0.32280099999999834
31,21,0.5,0.125,-35.0,-1,1.0,0.4967010000000016
32,21,0.5,0.0,35.0,1,1.0,0.807801000000012
33,21,0.5,0.0625,-35.0,1,0.0,3.0032010000000184
34,21,0.6,0.0625,-35.0,1,0.0,0.5255009999999913
35,21,0.5,1.0,-35.0,-1,1.0,0.2134009999999762
36,21,0.5,1.0,-35.0,-1,1.0,0.2255010000000368
37,21,0.5,1.0,35.0,1,1.0,0.4710010000000011
38,21,0.5,0.125,35.0,1,1.0,2.609300999999988
39,21,0.5,0.125,35.0,1,1.0,0.41740100000001235
40,21,0.5,1.0,35.0,1,1.0,3.6692010000000153
41,21,0.5,0.0,35.0,1,1.0,2.2492010000000278
42,21,0.5,1.0,-35.0,-1,1.0,0.2737009999999884
43,21,0.5,0.0,-35.0,1,0.0,3.490501000000023
44,21,0.7,0.0,-35.0,1,0.0,2.993200999999999
45,21,0.5,1.0,-35.0,-1,1.0,0.3762010000000089
46,21,0.5,0.125,-35.0,-1,1.0,0.3695009999999854
47,21,0.5,0.125,-35.0,-1,1.0,0.3202010000000257
48,21,0.5,1.0,-35.0,-1,1.0,0.2981010000000026
49,21,0.5,1.0,-35.0,-1,1.0,0.3708010000000286
50,21,0.5,0.0625,35.0,1,1.0,0.981501000000037
51,21,0.5,0.0,35.0,-1,0.0,1.1829009999999869
52,21,0.5,0.125,35.0,1,1.0,0.3641010000000051
53,21,0.5,0.25,35.0,1,1.0,2.239401000000015
54,21,0.5,0.125,35.0,1,1.0,0.5819009999999878
55,21,0.5,0.0625,-35.0,-1,1.0,0.384001000000012
56,21,0.5,1.0,-35.0,-1,1.0,0.2502010000000041
57,21,0.5,1.0,35.0,-1,0.0,1.0167010000000118
58,21,0.4,1.0,-35.0,-1,1.0,0.30530100000001426
59,21,0.5,1.0,-35.0,-1,1.0,0.26689999999996417
60,21,0.5,0.125,35.0,1,1.0,2.213000999999963
61,21,0.5,0.0625,-35.0,-1,1.0,0.302900999999963
62,21,0.5,0.0,-35.0,1,0.0,0.38730099999997947
63,21,0.5,0.125,-35.0,-1,1.0,0.2577999999999747
64,21,0.5,0.0625,-35.0,-1,1.0,3.4012009999999577
65,21,0.5,1.0,-35.0,-1,1.0,0.24340100000000575
66,21,0.5,0.125,-35.0,-1,1.0,0.37220099999996137
67,21,0.5,0.125,-35.0,-1,1.0,0.3235009999999079
68,21,0.5,0.0625,-35.0,-1,1.0,0.41310099999992644
69,21,0.5,0.0625,-35.0,-1,1.0,0.3285009999999602
70,21,0.5,0.25,-35.0,-1,1.0,0.7396009999999364
71,21,0.5,1.0,-35.0,-1,1.0,0.2840009999999893
72,21,0.5,0.25,-35.0,-1,1.0,0.28040099999998347
73,21,0.5,0.0,35.0,1,1.0,2.187201000000016
74,21,0.5,0.0625,-35.0,1,0.0,1.5074010000000158
75,21,0.5,0.25,35.0,1,1.0,0.2069010000000162
76,21,0.5,1.0,-35.0,-1,1.0,0.25370099999992135
77,21,0.5,0.25,-35.0,-1,1.0,0.25320099999999
78,21,0.5,1.0,35.0,1,1.0,1.574500999999998
79,21,0.5,0.25,35.0,1,1.0,0.12850099999997155
80,21,0.5,0.25,-35.0,-1,1.0,0.3150009999999952
81,21,0.5,0.0625,-35.0,1,0.0,1.583200999999974
82,21,0.6,0.0625,35.0,1,1.0,0.3742009999999709
83,21,0.5,1.0,-35.0,-1,1.0,0.29370099999999866
84,21,0.5,0.0625,-35.0,-1,1.0,0.5338010000000395
85,21,0.5,0.0625,35.0,-1,0.0,0.3002999999999929
86,21,0.5,0.0625,35.0,1,1.0,0.4080009999999561
87,21,0.5,0.0625,35.0,1,1.0,0.5059009999999944
88,21,0.5,0.25,35.0,1,1.0,0.39780099999995855
89,21,0.5,0.25,-35.0,-1,1.0,0.8556009999999787
90,21,0.5,0.125,-35.0,-1,1.0,0.2742009999999482
91,21,0.5,0.25,35.0,1,1.0,0.3781010000000151
92,21,0.5,0.25,35.0,1,1.0,0.4882009999999468
93,21,0.5,1.0,35.0,1,1.0,0.467000999999982
94,21,0.5,0.25,-35.0,-1,1.0,0.24410099999994372
95,21,0.5,0.0625,35.0,-1,0.0,0.4105009999999538
96,21,0.5,0.0,-35.0,1,0.0,0.3569010000000503
97,21,0.6,0.0,-35.0,1,0.0,1.0526009999999246
98,21,0.5,1.0,-35.0,-1,1.0,0.308700999999985
99,21,0.5,0.125,-35.0,-1,1.0,0.470600999999931
100,21,0.5,1.0,-35.0,-1,1.0,0.31570099999999
101,21,0.5,0.125,35.0,1,1.0,3.446600999999987
102,21,0.5,0.0,35.0,1,1.0,2.745200999999952
103,21,0.5,0.125,35.0,1,1.0,0.3384009999999762
104,21,0.5,0.0625,35.0,1,1.0,0.41000099999996564
105,21,0.5,0.125,35.0,1,1.0,0.3273009999999772
106,21,0.5,0.25,35.0,1,1.0,0.4376010000000292
107,21,0.5,0.0,35.0,1,1.0,0.4855009999999993
108,21,0.5,0.125,-35.0,-1,1.0,0.5629010000000108
109,21,0.5,1.0,-35.0,-1,1.0,0.2487009999999259
110,21,0.5,1.0,35.0,1,1.0,0.355500999999947
111,21,0.5,0.0625,-35.0,1,0.0,0.1870010000000093
112,21,0.8,0.0625,-35.0,1,0.0,0.11469999999997071
113,21,0.5,1.0,-35.0,-1,1.0,0.32110099999999875
114,21,0.5,0.0625,35.0,1,1.0,1.8191009999999892
115,21,0.5,0.125,-35.0,-1,1.0,0.30160099999994827
116,21,0.5,0.25,-35.0,-1,1.0,0.3088009999999599
117,21,0.5,1.0,35.0,1,1.0,0.4486009999999965
118,21,0.5,0.0625,-35.0,1,0.0,0.11200099999996382
119,21,0.6,0.0625,-35.0,-1,1.0,3.2155009999999606
120,21,0.5,1.0,35.0,1,1.0,0.8125009999999406
121,21,0.5,0.0625,35.0,1,1.0,0.490400999999963
122,21,0.5,0.125,35.0,1,1.0,0.36980099999993854
123,21,0.5,1.0,35.0,1,1.0,1.4009009999999762
124,21,0.5,0.125,35.0,1,1.0,0.33700099999998656
125,21,0.5,0.0625,-35.0,-1,1.0,1.1174009999999726
126,21,0.5,0.125,-35.0,1,0.0,0.13000099999999293
127,21,0.5,0.25,-35.0,-1,1.0,0.26020100000005186
128,21,0.5,0.0625,-35.0,-1,1.0,0.30710099999998874
129,21,0.5,0.125,-35.0,1,0.0,0.11900100000013936
130,21,0.7,0.125,35.0,1,1.0,0.1706010000000333
131,21,0.5,1.0,35.0,1,1.0,0.16110100000003058
132,21,0.5,0.125,-35.0,-1,1.0,0.5202010000000428
133,21,0.5,0.25,35.0,1,1.0,1.4601010000001224
134,21,0.5,0.125,-35.0,-1,1.0,0.3262010000001965
135,21,0.5,0.25,-35.0,-1,1.0,0.2798010000000204
136,21,0.5,0.125,-35.0,-1,1.0,0.2675010000001521
137,21,0.5,0.125,35.0,1,1.0,0.33720100000005004
138,21,0.5,0.0625,-35.0,-1,1.0,0.3869009999999662
139,21,0.5,0.0,-35.0,1,0.0,0.338301000000115
140,21,0.5,0.25,35.0,1,1.0,0.27319999999997435
141,21,0.5,1.0,35.0,1,1.0,0.30080100000009224
142,21,0.5,1.0,-35.0,-1,1.0,0.2630010000000311
143,21,0.5,1.0,35.0,1,1.0,0.3785010000000284
144,21,0.5,0.25,-35.0,-1,1.0,0.24380100000007587
145,21,0.5,0.0,35.0,1,1.0,0.6673010000000659
146,21,0.5,0.125,-35.0,-1,1.0,0.2818009999999731
147,21,0.5,0.25,-35.0,-1,1.0,0.24860100000000784
148,21,0.5,1.0,-35.0,-1,1.0,0.29270099999996546
149,21,0.5,0.125,35.0,1,1.0,0.46170100000006187
150,21,0.5,0.125,35.0,1,1.0,2.4753010000000586
151,21,0.5,0.125,-35.0,-1,1.0,0.6689010000000053
152,21,0.5,0.125,-35.0,-1,1.0,0.2863009999999804
153,21,0.5,0.25,35.0,1,1.0,1.8668010000000095
154,21,0.5,0.0625,35.0,1,1.0,0.24030100000004495
155,21,0.5,1.0,35.0,1,1.0,0.16920099999993
156,21,0.5,0.0,35.0,1,1.0,0.29860100000007606
157,21,0.5,0.25,-35.0,-1,1.0,0.5393010000000231
158,21,0.5,0.0625,35.0,1,1.0,0.17280100000016319
159,21,0.5,1.0,-35.0,-1,1.0,0.2507010000001628
160,21,0.5,0.125,-35.0,1,0.0,0.18670000000008713
161,21,0.5,0.125,35.0,1,1.0,0.12610099999994873
162,21,0.5,0.0625,-35.0,1,0.0,0.3383010000000013
163,21,0.5,0.25,-35.0,-1,1.0,0.30260099999998147
164,21,0.5,0.125,-35.0,-1,1.0,0.35100099999999657
165,21,0.5,0.25,-35.0,-1,1.0,0.27250100000003386
166,21,0.5,0.25,-35.0,-1,1.0,0.24850100000003295
167,21,0.5,0.0625,35.0,1,1.0,1.8598010000000613
168,21,0.5,0.0625,-35.0,-1,1.0,0.3566010000000688
169,21,0.5,0.0625,35.0,-1,0.0,0.3346010000000206
170,21,0.5,0.0625,-35.0,-1,1.0,0.2882009999999582
171,21,0.5,0.0625,35.0,1,1.0,0.4052010000000337
172,21,0.5,0.0625,35.0,1,1.0,0.27810100000010607
173,21,0.5,1.0,35.0,1,1.0,0.3334010000000944
174,21,0.5,0.125,-35.0,-1,1.0,0.32510100000001785
175,21,0.5,0.25,-35.0,1,0.0,0.1708009999999831
176,21,0.5,0.25,35.0,1,1.0,2.8517010000000482
177,21,0.5,0.0625,-35.0,1,0.0,0.4105009999999538
178,21,0.5,0.25,35.0,1,1.0,0.1565010000000484
179,21,0.5,0.0625,-35.0,-1,1.0,0.31730100000004313
180,21,0.5,0.25,35.0,1,1.0,0.291800999999964
181,21,0.5,0.25,35.0,1,1.0,0.3743010000000595
182,21,0.5,0.125,-35.0,-1,1.0,0.30530099999998583
183,21,0.5,0.25,35.0,1,1.0,0.49790100000006987
184,21,0.5,0.25,-35.0,-1,1.0,0.30530099999998583
185,21,0.5,0.0,35.0,1,1.0,0.3504010000000335
186,21,0.5,0.125,-35.0,-1,1.0,0.3053010000000995
187,21,0.5,0.25,-35.0,-1,1.0,0.34370100000001
188,21,0.5,0.0625,-35.0,-1,1.0,0.43940100000008897
189,21,0.5,0.25,-35.0,-1,1.0,0.31490099999996346
190,21,0.5,0.125,-35.0,-1,1.0,0.3503009999999449
191,21,0.5,0.125,-35.0,1,0.0,0.20390099999997346
192,21,0.5,0.0625,-35.0,-1,1.0,0.34940100000005714
193,21,0.5,0.125,-35.0,-1,1.0,0.35140100000000984
194,21,0.5,0.125,-35.0,1,0.0,0.16410100000007333
195,21,0.5,0.25,35.0,1,1.0,0.22800099999994927
196,21,0.5,0.125,-35.0,-1,1.0,0.3159009999999398
197,21,0.5,0.0625,-35.0,1,0.0,2.39320100000009
198,21,0.4,0.0625,35.0,-1,0.0,0.1283010000000786
199,21,0.5,1.0,35.0,1,1.0,0.5101009999999633
200,21,0.5,0.0625,35.0,1,1.0,3.802201000000082
201,21,0.5,0.25,-35.0,-1,1.0,0.2915010000000393
202,21,0.5,1.0,-35.0,-1,1.0,0.27300100000002203
203,21,0.5,0.125,35.0,1,1.0,0.47190100000000257
204,21,0.5,1.0,-35.0,-1,1.0,0.2633009999999558
205,21,0.5,0.0625,35.0,1,1.0,0.32320099999992635
206,21,0.5,1.0,-35.0,-1,1.0,0.2680010000000266
207,21,0.5,0.25,35.0,1,1.0,0.32720099999994545
208,21,0.5,0.0625,35.0,1,1.0,0.31300099999998565
209,21,0.5,1.0,-35.0,-1,1.0,0.31100100000003295
210,21,0.5,0.25,-35.0,-1,1.0,0.29340099999990343
211,21,0.5,1.0,35.0,1,1.0,0.6372010000000046
212,21,0.5,1.0,35.0,1,1.0,0.5624009999999089
213,21,0.5,1.0,-35.0,-1,1.0,0.2854010000000926
214,21,0.5,1.0,-35.0,-1,1.0,0.2640010000000075
215,21,0.5,0.125,35.0,1,1.0,0.29910100000006423
216,21,0.5,0.0625,-35.0,1,0.0,0.20170099999995728
217,21,0.5,0.25,35.0,1,1.0,0.5880010000000766
218,21,0.5,1.0,35.0,1,1.0,0.3175010000001066
219,21,0.5,0.125,-35.0,1,0.0,0.37740100000007715
220,21,0.5,0.0,-35.0,-1,1.0,0.33760099999994964
221,21,0.5,1.0,-35.0,1,0.0,0.13550100000009024
222,21,0.5,0.125,-35.0,-1,1.0,0.3344010000000708
223,21,0.5,0.25,35.0,1,1.0,0.3344010000000708
224,21,0.5,1.0,-35.0,-1,1.0,0.24820099999999456
225,21,0.5,0.125,-35.0,1,0.0,0.1588010000000395
226,21,0.5,0.0,35.0,1,1.0,0.1343010000000504
227,21,0.5,0.25,-35.0,-1,1.0,0.2798010000000204
228,21,0.5,0.125,35.0,1,1.0,0.4007010000000264
229,21,0.5,1.0,35.0,1,1.0,0.5053010000000313
230,21,0.5,0.125,35.0,1,1.0,0.38170000000013715
231,21,0.5,0.0625,-35.0,-1,1.0,1.2224009999999907
232,21,0.5,1.0,35.0,1,1.0,3.174301000000014
233,21,0.5,0.0625,35.0,1,1.0,0.1809010000000626
234,21,0.5,0.0,35.0,1,1.0,0.3177010000000564
235,21,0.5,0.0,35.0,1,1.0,0.15790100000015173
236,21,0.5,1.0,35.0,1,1.0,0.34720100000015464
237,21,0.5,0.125,-35.0,-1,1.0,0.30060100000002876
238,21,0.5,0.125,35.0,1,1.0,2.9485009999999647
239,21,0.5,1.0,-35.0,-1,1.0,0.25630100000000766
240,21,0.5,0.25,-35.0,-1,1.0,0.293901000000119
241,21,0.5,0.125,35.0,1,1.0,1.6707010000000082
242,21,0.5,0.25,35.0,-1,0.0,0.9044999999999845
243,21,0.5,0.25,35.0,1,1.0,0.42200100000002294
244,21,0.5,0.0625,-35.0,1,0.0,0.14510099999995418
245,21,0.5,0.125,35.0,1,1.0,0.34500100000002476
246,21,0.5,0.25,35.0,1,1.0,0.39790000000004966
247,21,0.5,0.0625,35.0,1,1.0,1.7744010000000117
248,21,0.5,1.0,-35.0,-1,1.0,0.34700099999997747
249,21,0.5,0.25,-35.0,-1,1.0,0.32350099999996473
250,21,0.5,1.0,35.0,1,1.0,0.5250009999999747
251,21,0.5,0.25,35.0,1,1.0,2.009501000000114
252,21,0.5,0.25,-35.0,-1,1.0,0.3196010000000342
253,21,0.5,0.25,35.0,1,1.0,2.9251010000000406
254,21,0.5,0.0625,35.0,1,1.0,0.6090010000000348
255,21,0.5,1.0,-35.0,-1,1.0,0.27640099999996437
256,21,0.5,1.0,35.0,1,1.0,0.6268010000001141
257,21,0.5,0.125,-35.0,-1,1.0,0.3245010000000548
258,21,0.5,0.0,35.0,1,1.0,0.3465009999999893
259,21,0.5,1.0,35.0,1,1.0,0.520701000000031
260,21,0.5,0.25,35.0,1,1.0,0.44990100000006805
261,21,0.5,1.0,35.0,-1,0.0,3.2523009999999886
262,21,0.6,1.0,-35.0,-1,1.0,0.2413010000000213
263,21,0.5,1.0,-35.0,-1,1.0,0.2676010000000133
264,21,0.5,0.25,35.0,1,1.0,0.3745010000000093
265,21,0.5,0.125,35.0,1,1.0,0.5713010000000622
266,21,0.5,1.0,-35.0,-1,1.0,0.3381010000000515
267,21,0.5,0.0625,35.0,-1,0.0,0.31500100000005204
268,21,0.5,0.25,35.0,1,1.0,0.2753010000000131
269,21,0.5,0.25,35.0,1,1.0,0.1051009999996495
270,21,0.5,0.0625,35.0,1,1.0,0.3521009999999478
271,21,0.5,0.25,-35.0,-1,1.0,0.2555009999998674
272,21,0.5,1.0,-35.0,-1,1.0,0.24210100000004786
273,21,0.5,1.0,-35.0,-1,1.0,0.2557009999998172
274,21,0.5,0.125,35.0,1,1.0,0.3159009999999398
275,21,0.5,1.0,-35.0,-1,1.0,0.2960009999997055
276,21,0.5,0.25,35.0,1,1.0,1.0861009999998714
277,21,0.5,0.0625,-35.0,-1,1.0,0.38610099999982594
278,21,0.5,1.0,-35.0,-1,1.0,0.27300099999979466
279,21,0.5,0.25,35.0,1,1.0,0.366600999999946
280,21,0.5,0.0,-35.0,1,0.0,0.3566009999999551
281,21,0.5,0.125,-35.0,-1,1.0,0.3002010000000155
282,21,0.5,0.0,-35.0,1,0.0,0.8638009999999667
283,21,0.5,0.25,35.0,1,1.0,0.33720100000005004
284,21,0.5,1.0,-35.0,-1,1.0,0.2742009999999482
285,21,0.5,0.0625,-35.0,1,0.0,2.7143009999999776
286,21,0.5,0.125,35.0,1,1.0,0.42800099999999475
287,21,0.5,0.125,35.0,1,1.0,0.4347010000001319
288,21,0.5,0.25,35.0,1,1.0,0.3882009999999809
289,21,0.5,0.0625,35.0,1,1.0,0.5417009999998754
290,21,0.5,0.25,35.0,1,1.0,0.45190099999990707
291,21,0.5,0.25,-35.0,-1,1.0,0.8087009999999282
292,21,0.5,0.125,-35.0,-1,1.0,1.321900999999798
293,21,0.5,0.0625,35.0,1,1.0,0.38220099999989543
294,21,0.5,0.125,-35.0,-1,1.0,0.5423009999997248
295,21,0.5,1.0,-35.0,-1,1.0,0.6057009999999536
296,21,0.5,0.25,-35.0,-1,1.0,0.27260099999989507
297,21,0.5,0.0625,-35.0,-1,1.0,0.8959010000000944
298,21,0.5,1.0,35.0,1,1.0,0.16950099999985468
299,21,0.5,0.25,-35.0,-1,1.0,0.34950099999991835
300,21,0.5,0.0,-35.0,1,0.0,0.4897009999997408
301,21,0.5,0.0625,-35.0,-1,1.0,0.6131009999999151
302,21,0.5,0.125,35.0,1,1.0,0.400101000000177
303,21,0.5,0.125,-35.0,-1,1.0,0.2867009999997663
304,21,0.5,0.0625,35.0,1,1.0,0.3002010000000155
305,21,0.5,0.0625,35.0,1,1.0,0.4637009999999009
306,21,0.5,1.0,-35.0,-1,1.0,0.26050099999997656
307,21,0.5,1.0,35.0,1,1.0,0.34100100000000566
308,21,0.5,0.125,-35.0,-1,1.0,0.28080099999988306
309,21,0.5,0.25,-35.0,-1,1.0,0.3942010000000664
310,21,0.5,0.0625,35.0,1,1.0,0.13450099999977283
311,21,0.5,0.0625,-35.0,1,0.0,1.0412009999997736
312,21,0.6,0.0625,-35.0,-1,1.0,0.24790099999995618
313,21,0.5,1.0,35.0,-1,0.0,0.3314010000001417
314,21,0.5,0.0625,35.0,1,1.0,0.3449009999999362
315,21,0.5,1.0,35.0,1,1.0,0.4650010000000293
316,21,0.5,0.25,35.0,1,1.0,0.3886010000001079
317,21,0.5,1.0,35.0,1,1.0,0.41860099999985323
318,21,0.5,0.25,-35.0,-1,1.0,0.49920099999985723
319,21,0.5,0.25,35.0,1,1.0,0.3827009999999973
320,21,0.5,0.25,-35.0,-1,1.0,0.31300000000010186
321,21,0.5,0.125,-35.0,-1,1.0,0.4063009999999849
322,21,0.5,0.0,35.0,1,1.0,0.5431009999997514
323,21,0.5,0.125,35.0,1,1.0,3.479800999999725
324,21,0.5,1.0,-35.0,-1,1.0,0.28030100000000857
325,21,0.5,0.125,35.0,1,1.0,0.30360099999984413
326,21,0.5,1.0,35.0,1,1.0,2.353800999999976
327,21,0.5,0.25,-35.0,1,0.0,0.12390099999993254
328,21,0.5,0.0625,-35.0,-1,1.0,0.33080100000006496
329,21,0.5,0.25,-35.0,-1,1.0,0.34760099999971317
330,21,0.5,0.25,35.0,1,1.0,0.32780099999968115
331,21,0.5,0.25,-35.0,-1,1.0,0.5145010000001093
332,21,0.5,0.125,-35.0,-1,1.0,0.3179009999998925
333,21,0.5,1.0,35.0,1,1.0,0.37140099999987797
334,21,0.5,0.125,35.0,1,1.0,0.32500099999992926
335,21,0.5,0.25,-35.0,-1,1.0,0.2783009999998285
336,21,0.5,0.25,-35.0,-1,1.0,1.0953009999998358
337,21,0.5,0.0,-35.0,1,0.0,0.37190099999975246
338,21,0.5,0.25,35.0,1,1.0,0.34560099999976046
339,21,0.5,0.0625,35.0,1,1.0,1.592100999999957
340,21,0.5,0.0625,35.0,1,1.0,0.3992009999999482
341,21,0.5,0.0625,-35.0,-1,1.0,0.9259009999998398
342,21,0.5,0.125,-35.0,1,0.0,0.21600100000000566
343,21,0.5,0.25,35.0,1,1.0,0.3494009999997161
344,21,0.5,0.0625,-35.0,1,0.0,0.3262009999998554
345,21,0.5,0.125,-35.0,1,0.0,0.4331009999998514
346,21,0.5,0.125,-35.0,-1,1.0,0.29330099999992854
347,21,0.5,0.125,-35.0,-1,1.0,0.5070009999999456
348,21,0.5,1.0,35.0,1,1.0,0.35340099999984886
349,21,0.5,0.0625,-35.0,1,0.0,0.49690099999997983
350,21,0.5,0.0625,-35.0,1,0.0,2.6571010000000115
351,21,0.5,0.0625,35.0,1,1.0,0.4641009999998005
352,21,0.5,0.0625,-35.0,-1,1.0,0.5642009999999118
353,21,0.5,0.125,-35.0,-1,1.0,0.30430100000012317
354,21,0.5,0.25,35.0,1,1.0,0.3911009999997077
355,21,0.5,0.0,-35.0,1,0.0,0.1246009999999842
356,21,0.6,0.0,-35.0,1,0.0,0.37140099999987797
357,21,0.5,1.0,-35.0,-1,1.0,0.24840099999983067
358,21,0.5,0.25,35.0,1,1.0,0.37160099999982776
359,21,0.5,0.25,-35.0,-1,1.0,0.24850100000003295
360,21,0.5,0.125,-35.0,-1,1.0,0.32860100000016246
361,21,0.5,0.25,-35.0,-1,1.0,0.495401000000129
362,21,0.5,0.25,-35.0,-1,1.0,0.32560099999977865
363,21,0.5,0.125,-35.0,-1,1.0,0.2923009999999522
364,21,0.5,0.125,-35.0,-1,1.0,0.2823009999999613
365,21,0.5,0.0625,35.0,-1,0.0,0.29920099999981176
366,21,0.5,0.125,35.0,1,1.0,0.32940099999996164
367,21,0.5,0.25,-35.0,-1,1.0,0.3263009999998303
368,21,0.5,0.125,35.0,1,1.0,0.25660099999981867
369,21,0.5,0.25,-35.0,-1,1.0,0.249800999999934
370,21,0.5,0.0,-35.0,1,0.0,0.40330100000005586
371,21,0.5,0.0625,-35.0,-1,1.0,0.2336009999999078
372,21,0.5,0.0625,35.0,1,1.0,0.5802009999997608
373,21,0.5,0.0,-35.0,1,0.0,0.403800999999703
374,21,0.5,0.25,35.0,1,1.0,0.4206010000000333
375,21,0.5,0.0625,35.0,1,1.0,0.2676010000000133
376,21,0.5,0.0625,35.0,-1,0.0,0.4111009999999169
377,21,0.6,0.0625,35.0,1,1.0,0.5312009999997827
378,21,0.5,1.0,35.0,1,1.0,0.3646009999997659
379,21,0.5,1.0,-35.0,-1,1.0,0.2581009999998969
380,21,0.5,0.125,-35.0,1,0.0,0.3583009999999831
381,21,0.5,0.25,35.0,1,1.0,0.34820099999978993
382,21,0.5,0.125,35.0,1,1.0,0.5584010000000035
383,21,0.5,1.0,35.0,1,1.0,0.3887009999998554
384,21,0.5,0.25,-35.0,-1,1.0,0.30880099999990307
385,21,0.5,0.0625,35.0,1,1.0,0.3888010000000577
386,21,0.5,0.125,35.0,1,1.0,0.4755009999998947
387,21,0.5,0.25,-35.0,-1,1.0,0.3325009999998656
388,21,0.5,0.25,35.0,1,1.0,0.20580099999983759
389,21,0.5,0.0,-35.0,1,0.0,0.27260099999989507
390,21,0.5,0.0,35.0,1,1.0,0.42280099999970844
391,21,0.5,0.0625,-35.0,-1,1.0,0.8962009999997917
392,21,0.5,0.0625,-35.0,-1,1.0,0.8099009999998543
393,21,0.5,0.25,35.0,1,1.0,0.4766010000000733
394,21,0.5,0.0625,35.0,1,1.0,0.5068009999997685
395,21,0.5,0.0625,35.0,1,1.0,0.39020099999970626
396,21,0.5,0.0625,-35.0,-1,1.0,0.5903009999997266
397,21,0.5,0.125,35.0,1,1.0,0.3104009999999562
398,21,0.5,0.25,35.0,1,1.0,0.32740099999978156
399,21,0.5,0.25,35.0,1,1.0,0.3875009999997019
400,21,0.5,1.0,-35.0,-1,1.0,0.297600999999986
401,21,0.5,0.25,-35.0,-1,1.0,0.2776010000000042
402,21,0.5,0.0625,-35.0,-1,1.0,0.38460099999974773
403,21,0.5,0.0625,-35.0,-1,1.0,0.23120099999982813
404,21,0.5,0.25,-35.0,-1,1.0,0.32470100000000457
405,21,0.5,0.125,-35.0,-1,1.0,0.28510099999994054
406,21,0.5,0.0625,35.0,1,1.0,0.42820099999971717
407,21,0.5,0.0,-35.0,1,0.0,4.895101000000068
408,21,0.5,0.0625,35.0,1,1.0,3.1189009999998234
409,21,0.5,1.0,-35.0,-1,1.0,0.21900099999993472
410,21,0.5,1.0,-35.0,-1,1.0,0.295900999999958
411,21,0.5,0.25,35.0,1,1.0,0.672600999999986
412,21,0.5,1.0,35.0,1,1.0,0.4128009999999449
413,21,0.5,1.0,-35.0,-1,1.0,0.23300099999983104
414,21,0.5,0.25,35.0,1,1.0,0.42980099999999766
415,21,0.5,0.25,35.0,1,1.0,0.5399009999998725
416,21,0.5,1.0,35.0,-1,0.0,0.32350099999985105
417,21,0.5,0.0,35.0,1,1.0,0.37700100000006387
418,21,0.5,0.125,-35.0,-1,1.0,0.34710100000006605
419,21,0.5,1.0,-35.0,-1,1.0,0.27710099999990234
420,21,0.5,0.0625,-35.0,-1,1.0,0.6006009999998696
421,21,0.5,0.0625,-35.0,1,0.0,0.17400099999986196
422,21,0.5,0.0,35.0,1,1.0,0.3709009999997761
423,21,0.5,0.0625,35.0,-1,0.0,2.051200999999992
424,21,0.5,0.25,-35.0,-1,1.0,0.32480099999997947
425,21,0.5,0.25,-35.0,-1,1.0,0.2915009999999256
426,21,0.5,0.0,-35.0,1,0.0,0.6349009999998998
427,21,0.4,0.0,35.0,1,1.0,0.14840099999992162
428,21,0.5,1.0,35.0,1,1.0,0.40200099999992744
429,21,0.5,0.0625,35.0,1,1.0,0.788700999999719
430,21,0.5,0.125,35.0,1,1.0,0.32530099999985396
431,21,0.5,0.25,35.0,1,1.0,0.4154009999999744
432,21,0.5,0.125,-35.0,-1,1.0,0.5124009999999544
433,21,0.5,0.125,35.0,1,1.0,0.41580099999987397
434,21,0.5,1.0,-35.0,-1,1.0,0.2693010000000413
435,21,0.5,0.0625,-35.0,-1,1.0,0.3160009999999147
436,21,0.5,0.25,-35.0,-1,1.0,0.2927009999998518
437,21,0.5,0.125,-35.0,-1,1.0,0.2664009999998598
438,21,0.5,0.125,35.0,1,1.0,0.1832009999998263
439,21,0.5,1.0,-35.0,1,0.0,0.1267009999999118
440,21,0.5,0.0,35.0,1,1.0,0.39010099999995873
441,21,0.5,1.0,-35.0,-1,1.0,0.25690099999997074
442,21,0.5,0.125,35.0,1,1.0,0.41390099999989616
443,21,0.5,0.0625,35.0,1,1.0,0.4173009999999522
444,21,0.5,1.0,35.0,1,1.0,0.5275010000000293
445,21,0.5,0.125,35.0,1,1.0,0.1609009999999671
446,21,0.5,0.125,35.0,1,1.0,0.5643009999998867
447,21,0.5,0.125,-35.0,-1,1.0,0.5911009999999806
448,21,0.5,0.0625,-35.0,-1,1.0,0.777800999999954
449,21,0.5,0.25,35.0,1,1.0,0.3547009999997499
450,21,0.5,1.0,35.0,1,1.0,2.208100999999715
451,21,0.5,0.25,-35.0,-1,1.0,0.27500099999997474
452,21,0.5,0.125,35.0,1,1.0,0.36520100000007005
453,21,0.5,0.125,-35.0,1,0.0,0.17530099999999038
454,21,0.7,0.125,-35.0,-1,1.0,0.5556010000000242
455,21,0.5,1.0,-35.0,-1,1.0,0.2357009999998354
456,21,0.5,0.125,35.0,1,1.0,0.39250099999981103
457,21,0.5,0.125,35.0,1,1.0,1.9026010000000042
458,21,0.5,0.125,35.0,1,1.0,0.41280099999971753
459,21,0.5,0.125,35.0,-1,0.0,0.2531010000000151
460,21,0.6,0.125,35.0,1,1.0,0.38980100000003404
461,21,0.5,1.0,-35.0,-1,1.0,0.27310099999999693
462,21,0.5,0.25,35.0,1,1.0,0.6365999999998166
463,21,0.5,0.0,-35.0,1,0.0,0.610100999999986
464,21,0.5,0.25,-35.0,-1,1.0,0.310200999999779
465,21,0.5,0.125,-35.0,-1,1.0,0.3504009999999198
466,21,0.5,0.125,35.0,-1,0.0,0.33720099999982267
467,21,0.5,0.125,-35.0,-1,1.0,0.5939010000001872
468,21,0.5,1.0,-35.0,-1,1.0,0.2774010000000544
469,21,0.5,1.0,35.0,1,1.0,0.420900999999958
470,21,0.5,1.0,-35.0,-1,1.0,0.271300999999994
471,21,0.5,1.0,-35.0,-1,1.0,0.24450100000012753
472,21,0.5,0.0625,35.0,-1,0.0,3.1548009999999067
473,21,0.5,0.25,35.0,1,1.0,0.15810099999998783
474,21,0.5,0.0,-35.0,1,0.0,0.4917009999999209
475,21,0.3,0.0,-35.0,1,0.0,0.5285010000000057
476,21,0.5,1.0,35.0,1,1.0,0.37190099999975246
477,21,0.5,0.0625,-35.0,1,0.0,2.542300999999725
478,21,0.5,0.0625,35.0,1,1.0,1.6758010000000922
479,21,0.5,0.25,35.0,1,1.0,0.41590099999984886
480,21,0.5,0.0625,-35.0,-1,1.0,0.5262010000001283
481,21,0.5,0.25,-35.0,1,0.0,0.4529009999998834
482,21,0.5,0.25,-35.0,-1,1.0,0.3063009999998485
483,21,0.5,1.0,35.0,1,1.0,0.4133009999998194
484,21,0.5,0.25,-35.0,-1,1.0,0.46650099999988015
485,21,0.5,1.0,-35.0,-1,1.0,0.25670099999979357
486,21,0.5,0.0625,-35.0,1,0.0,0.573500999999851
487,21,0.5,0.125,-35.0,-1,1.0,0.32350099999985105
488,21,0.5,0.25,-35.0,-1,1.0,0.4538009999998849
489,21,0.5,0.0625,35.0,1,1.0,0.4172009999999773
490,21,0.5,1.0,35.0,1,1.0,0.9840009999998074
491,21,0.5,0.25,35.0,1,1.0,0.4610009999998965
492,21,0.5,1.0,35.0,1,1.0,3.6777009999998427
493,21,0.5,0.25,35.0,1,1.0,0.1613009999998667
494,21,0.5,0.0625,35.0,1,1.0,0.5248010000000249
495,21,0.5,0.25,-35.0,-1,1.0,0.26470100000005914
496,21,0.5,0.0625,-35.0,-1,1.0,0.35160099999984595
497,21,0.5,0.25,-35.0,-1,1.0,0.2886009999997441
498,21,0.5,0.0625,35.0,1,1.0,0.5820009999997637
499,21,0.5,0.25,35.0,1,1.0,0.5554010000000744
500,21,0.5,0.25,35.0,1,1.0,2.1422010000001137
501,21,0.5,0.0625,-35.0,-1,1.0,0.4358009999998558
502,21,0.5,0.125,35.0,1,1.0,2.552600999999868
503,21,0.5,0.25,35.0,1,1.0,0.4094009999998889
504,21,0.5,0.0625,35.0,1,1.0,0.6761009999997896
505,21,0.5,1.0,-35.0,-1,1.0,0.33970099999987724
506,21,0.5,0.25,35.0,1,1.0,0.49660099999982776
507,21,0.5,0.125,35.0,1,1.0,0.6567009999998845
508,21,0.5,1.0,35.0,1,1.0,0.5467009999999846
509,21,0.5,0.25,35.0,1,1.0,1.817000999999891
510,21,0.5,1.0,35.0,1,1.0,0.33390099999974154
511,21,0.5,1.0,-35.0,-1,1.0,0.29060099999992417
512,21,0.5,0.25,35.0,1,1.0,0.4840009999998074
513,21,0.5,0.0625,-35.0,-1,1.0,0.557501000000002
514,21,0.5,1.0,-35.0,-1,1.0,0.2743009999999231
515,21,0.5,0.25,-35.0,1,0.0,0.161000999999942
516,21,0.5,0.0625,-35.0,1,0.0,0.3745010000000093
517,21,0.5,0.0625,35.0,1,1.0,0.43800099999998565
518,21,0.5,0.25,35.0,1,1.0,2.695100999999795
519,21,0.5,0.0625,35.0,1,1.0,0.3885009999999056
520,21,0.5,0.25,35.0,1,1.0,0.3854009999997743
521,21,0.5,0.25,35.0,1,1.0,0.5588009999999031
522,21,0.5,0.125,-35.0,-1,1.0,0.6390009999997801
523,21,0.5,0.25,-35.0,-1,1.0,0.36910100000000057
524,21,0.5,0.0625,35.0,1,1.0,0.44910099999970043
525,21,0.5,0.125,35.0,1,1.0,0.4927009999996699
526,21,0.5,1.0,35.0,1,1.0,0.7328009999998812
527,21,0.5,1.0,35.0,1,1.0,0.7796009999999569
528,21,0.5,0.25,-35.0,-1,1.0,0.31970099999989543
529,21,0.5,0.125,-35.0,-1,1.0,0.2963009999998576
530,21,0.5,1.0,35.0,1,1.0,0.43660099999988233
531,21,0.5,0.125,35.0,1,1.0,0.4736009999999169
532,21,0.5,0.0,35.0,1,1.0,0.4836009999999078
533,21,0.5,0.125,35.0,1,1.0,2.863700999999992
534,21,0.5,0.25,35.0,1,1.0,0.5206009999999424
535,21,0.5,0.125,35.0,1,1.0,0.42060099999980594
536,21,0.5,0.0625,-35.0,1,0.0,0.1975009999998747
537,21,0.5,0.125,35.0,1,1.0,0.4911010000000715
538,21,0.5,1.0,-35.0,-1,1.0,0.24110099999984413
539,21,0.5,0.125,35.0,1,1.0,0.4211009999999078
540,21,0.5,1.0,-35.0,-1,1.0,0.2981010000000879
541,21,0.5,0.125,-35.0,-1,1.0,1.014901000000009
542,21,0.5,0.25,35.0,1,1.0,0.705000999999811
543,21,0.5,0.0625,-35.0,1,0.0,3.3885009999999056
544,21,0.5,0.25,35.0,1,1.0,0.3821010000001479
545,21,0.5,0.25,-35.0,-1,1.0,0.8688009999996211
546,21,0.5,0.125,-35.0,-1,1.0,2.4257009999996626
547,21,0.5,1.0,-35.0,-1,1.0,0.24910099999988233
548,21,0.5,0.0,35.0,1,1.0,0.5629009999997834
549,21,0.5,0.0,-35.0,1,0.0,0.6293009999999413
550,21,0.5,0.0,35.0,1,1.0,1.5063000000000102
551,21,0.5,1.0,35.0,1,1.0,0.8733009999996284
552,21,0.5,0.25,35.0,1,1.0,0.3934009999998125
553,21,0.5,0.125,35.0,1,1.0,0.5035010000001421
554,21,0.5,1.0,35.0,1,1.0,0.8104010000001836
555,21,0.5,0.125,-35.0,-1,1.0,0.5906010000003334
556,21,0.5,0.0625,-35.0,-1,1.0,1.3640009999999165
557,21,0.5,0.0,-35.0,1,0.0,0.9075009999996837
558,21,0.8,0.0,35.0,1,1.0,2.757800999999745
559,21,0.5,1.0,-35.0,-1,1.0,0.27130099999976665
560,21,0.5,0.0625,35.0,1,1.0,0.4650010000000293
561,21,0.5,0.25,35.0,1,1.0,0.5784010000002127
562,21,0.5,0.0625,-35.0,1,0.0,0.13850099999945087
563,21,0.5,0.125,-35.0,-1,1.0,0.2885010000004513
564,21,0.5,0.25,35.0,1,1.0,0.4554009999997106
565,21,0.5,0.0,35.0,1,1.0,0.4088010000000395
566,21,0.5,0.25,35.0,1,1.0,0.39560100000016973
567,21,0.5,1.0,35.0,1,1.0,0.5190009999996619
568,21,0.5,1.0,-35.0,-1,1.0,0.29910100000006423
569,21,0.5,1.0,35.0,1,1.0,0.3560010000001057
570,21,0.5,0.25,-35.0,-1,1.0,0.41620100000000093
571,21,0.5,1.0,35.0,1,1.0,0.34970099999964077
572,21,0.5,0.0,35.0,1,1.0,0.3830009999996946
573,21,0.5,0.125,35.0,1,1.0,0.41980100000000675
574,21,0.5,1.0,-35.0,-1,1.0,0.41330100000004677
575,21,0.5,0.125,-35.0,1,0.0,0.3134009999994305
576,21,0.5,0.125,-35.0,-1,1.0,0.5835999999999331
577,21,0.5,0.25,35.0,1,1.0,0.48370100000011007
578,21,0.5,1.0,35.0,1,1.0,0.40040099999987433
579,21,0.5,1.0,35.0,1,1.0,0.4007010000000264
580,21,0.5,0.125,-35.0,1,0.0,0.43090099999972153
581,21,0.5,0.125,35.0,1,1.0,0.42430100000001403
582,21,0.5,0.125,35.0,1,1.0,0.4677010000000337
583,21,0.5,0.25,35.0,1,1.0,0.43440099999997983
584,21,0.5,0.0625,35.0,1,1.0,0.388101000000006
585,21,0.5,0.25,-35.0,-1,1.0,0.3315010000001166
586,21,0.5,0.25,-35.0,-1,1.0,0.3016010000001188
587,21,0.5,0.0625,-35.0,-1,1.0,0.7086009999998168
588,21,0.5,1.0,35.0,1,1.0,0.37190099999997983
589,21,0.5,1.0,35.0,1,1.0,0.2686009999997623
590,21,0.5,0.125,35.0,1,1.0,0.4189010000000053
591,21,0.5,1.0,-35.0,-1,1.0,0.3192010000002483
592,21,0.5,0.0625,-35.0,1,0.0,0.5192009999996117
593,21,0.6,0.0625,35.0,1,1.0,0.3893009999997048
594,21,0.5,1.0,35.0,1,1.0,0.3596009999996568
595,21,0.5,0.25,35.0,1,1.0,0.3897009999996044
596,21,0.5,1.0,-35.0,-1,1.0,0.6331010000003516
597,21,0.5,1.0,35.0,1,1.0,0.49640099999987797
598,21,0.5,0.0625,35.0,1,1.0,0.41010099999994054
599,21,0.5,0.125,-35.0,-1,1.0,0.4268010000000686
600,21,0.5,0.0625,-35.0,1,0.0,1.1936009999999442
601,21,0.5,0.0,-35.0,1,0.0,0.4038010000003851
602,21,0.5,0.25,35.0,1,1.0,2.0973009999997885
603,21,0.5,0.0625,-35.0,-1,1.0,0.9275010000001203
604,21,0.5,0.25,35.0,1,1.0,1.6710009999997055
605,21,0.5,1.0,-35.0,-1,1.0,0.2912010000004557
606,21,0.5,1.0,-35.0,-1,1.0,0.31120099999998274
607,21,0.5,0.0625,-35.0,1,0.0,1.321400999999696
608,21,0.5,0.0,-35.0,1,0.0,4.3549009999997
609,21,0.6,0.0,35.0,1,1.0,2.155300999999781
610,21,0.5,1.0,-35.0,-1,1.0,0.3322010000001683
611,21,0.5,1.0,-35.0,-1,1.0,0.4789010000004055
612,21,0.5,0.0,35.0,1,1.0,3.775800999999774
613,21,0.5,0.0625,35.0,1,1.0,2.086001000000124
614,21,0.5,0.125,35.0,1,1.0,5.55290100000002
615,21,0.5,0.125,-35.0,-1,1.0,0.2767009999997754
616,21,0.5,0.0,35.0,1,1.0,4.166801000000305
617,21,0.5,1.0,35.0,1,1.0,0.8869010000003072
618,21,0.5,0.125,35.0,1,1.0,22.250500999999986
619,21,0.5,0.0,35.0,1,1.0,48.53160099999968
620,21,0.5,0.0625,-35.0,1,0.0,31.297100999999657
621,21,0.5,0.125,35.0,1,1.0,10.5120009999996
622,21,0.5,0.0,-35.0,1,0.0,6.595800999999938
623,21,0.5,0.125,-35.0,-1,1.0,0.3896010000003116
624,21,0.5,0.0625,-35.0,-1,1.0,0.6397010000000591
625,21,0.5,0.125,-35.0,-1,1.0,0.4432010000000446
626,21,0.5,1.0,35.0,1,1.0,3.649901000000227
627,21,0.5,0.0,35.0,1,1.0,3.3135009999996328
628,21,0.5,1.0,35.0,-1,0.0,1.053700999999819
629,21,0.5,0.25,35.0,1,1.0,0.47730100000035236
630,21,0.5,1.0,35.0,-1,0.0,2.9408009999997375
631,21,0.5,0.0625,-35.0,-1,1.0,0.3944010000000162
632,21,0.5,0.125,-35.0,-1,1.0,0.2644009999994523
633,21,0.5,0.125,-35.0,-1,1.0,0.26790100000016537
634,21,0.5,0.0625,-35.0,-1,1.0,0.4812010000000555
635,21,0.5,0.0625,35.0,1,1.0,2.8981009999997696
636,21,0.5,0.25,35.0,1,1.0,0.5551010000003771
637,21,0.5,0.25,35.0,1,1.0,2.535200999999688
638,21,0.5,0.125,-35.0,-1,1.0,4.54220099999975
639,21,0.5,0.125,35.0,1,1.0,3.4458010000003014
640,21,0.5,0.25,35.0,1,1.0,2.232900999999856
641,21,0.5,0.0625,-35.0,-1,1.0,0.33970099999987724
642,21,0.5,1.0,35.0,1,1.0,0.15630099999998492
643,21,0.5,1.0,-35.0,-1,1.0,0.2299009999996997
644,21,0.5,0.125,-35.0,-1,1.0,0.32330099999990125
645,21,0.5,0.25,-35.0,-1,1.0,0.34350099999983286
646,21,0.5,0.0625,-35.0,-1,1.0,0.3236010000000533
647,21,0.5,0.125,-35.0,-1,1.0,0.3370010000003276
648,21,0.5,1.0,35.0,1,1.0,6.457201000000168
649,21,0.5,0.25,-35.0,-1,1.0,0.2908009999996466
650,21,0.5,0.25,-35.0,-1,1.0,0.32760099999995873
651,21,0.5,0.125,35.0,1,1.0,0.5878009999996721
652,21,0.5,0.0625,-35.0,-1,1.0,0.39790099999981976
653,21,0.5,0.25,-35.0,-1,1.0,0.33790099999987433
654,21,0.5,0.0625,-35.0,1,0.0,5.298401000000467
655,21,0.3,0.0625,-35.0,1,0.0,1.8152009999998882
656,21,0.5,1.0,-35.0,-1,1.0,0.38220000000001164
657,21,0.5,0.125,-35.0,1,0.0,7.6556000000000495
658,21,0.5,0.125,35.0,1,1.0,1.6460010000000693
1,22,0.5,0.0,-35.0,1,0.0,0.3661000000000003
2,22,1.0,0.0,35.0,1,1.0,2.566700000000001
3,22,0.5,1.0,-35.0,-1,1.0,0.4347000000000012
4,22,0.5,0.0625,-35.0,1,0.0,3.0589000000000013
5,22,0.5,0.0,-35.0,1,0.0,3.739799999999999
6,22,0.5,0.25,-35.0,-1,1.0,0.31509999999999394
7,22,0.5,1.0,35.0,1,1.0,0.4742999999999995
8,22,0.5,1.0,-35.0,-1,1.0,0.2692999999999941
9,22,0.5,0.0625,35.0,1,1.0,4.0123999999999995
10,22,0.5,0.25,35.0,1,1.0,0.32049999999999557
11,22,0.5,0.25,35.0,1,1.0,1.4161999999999964
12,22,0.5,0.25,-35.0,1,0.0,0.8603000000000023
13,22,0.5,0.0625,-35.0,1,0.0,0.3585999999999956
14,22,0.5,0.25,-35.0,-1,1.0,0.24960000000000093
15,22,0.5,1.0,35.0,1,1.0,0.4357000000000113
16,22,0.5,0.125,35.0,1,1.0,2.4673000000000087
17,22,0.5,1.0,35.0,1,1.0,0.22350000000001558
18,22,0.5,0.125,35.0,1,1.0,2.1979999999999933
19,22,0.5,1.0,-35.0,-1,1.0,0.2652999999999963
20,22,0.5,0.25,-35.0,-1,1.0,0.28120000000001255
21,22,0.5,0.125,-35.0,-1,1.0,0.5634000000000015
22,22,0.5,1.0,35.0,1,1.0,0.41899999999999693
23,22,0.5,0.25,-35.0,-1,1.0,0.44780000000000086
24,22,0.5,1.0,-35.0,-1,1.0,1.3396999999999935
25,22,0.5,0.25,35.0,1,1.0,0.5272999999999968
26,22,0.5,0.125,-35.0,-1,1.0,0.48099999999999454
27,22,0.5,0.25,-35.0,-1,1.0,3.552800000000019
28,22,0.5,0.25,35.0,-1,0.0,0.5117000000000047
29,22,0.5,0.0625,-35.0,-1,1.0,0.34910000000000707
30,22,0.5,1.0,35.0,1,1.0,3.1129999999999995
31,22,0.5,0.125,-35.0,-1,1.0,0.5815000000000055
32,22,0.5,0.0625,-35.0,-1,1.0,0.5717999999999961
33,22,0.5,0.25,-35.0,-1,1.0,0.3042000000000087
34,22,0.5,1.0,-35.0,-1,1.0,0.46129999999999427
35,22,0.5,0.25,-35.0,-1,1.0,0.2928999999999746
36,22,0.5,0.0,-35.0,1,0.0,0.42759999999995557
37,22,0.5,0.125,-35.0,-1,1.0,0.26189999999999714
38,22,0.5,1.0,-35.0,-1,1.0,0.23290000000000077
39,22,0.5,0.0625,35.0,1,1.0,3.008299999999963
40,22,0.5,0.25,35.0,1,1.0,0.2792999999999779
41,22,0.5,0.25,-35.0,-1,1.0,0.45769999999998845
42,22,0.5,0.0625,35.0,1,1.0,0.4422999999999888
43,22,0.5,0.125,35.0,1,1.0,0.36369999999999436
44,22,0.5,0.0625,-35.0,1,0.0,0.7344000000000221
45,22,0.5,0.0625,-35.0,1,0.0,0.26269999999999527
46,22,0.5,0.125,-35.0,-1,1.0,0.302599999999984
47,22,0.5,0.25,35.0,1,1.0,0.30529999999995994
48,22,0.5,0.0625,35.0,1,1.0,1.3596999999999753
49,22,0.5,1.0,-35.0,-1,1.0,0.4450999999999681
50,22,0.5,0.25,-35.0,-1,1.0,0.4330999999999676
51,22,0.5,0.25,-35.0,-1,1.0,0.40919999999999845
52,22,0.5,0.125,-35.0,-1,1.0,1.2405999999999722
53,22,0.5,0.125,35.0,1,1.0,0.22099999999997522
54,22,0.5,0.25,35.0,1,1.0,3.0330999999999904
55,22,0.5,0.25,35.0,1,1.0,0.27249999999997954
56,22,0.5,0.0,35.0,1,1.0,0.45189999999999486
57,22,0.5,0.0625,35.0,1,1.0,0.4321999999999946
58,22,0.5,1.0,35.0,1,1.0,0.3955999999999733
59,22,0.5,0.0625,-35.0,1,0.0,0.7615999999999872
60,22,0.5,0.25,35.0,1,1.0,0.32550000000000523
61,22,0.5,0.0,35.0,1,1.0,0.36609999999996035
62,22,0.5,0.125,35.0,1,1.0,2.2035999999999945
63,22,0.5,0.0625,-35.0,1,0.0,0.44789999999997576
64,22,0.5,0.0625,35.0,1,1.0,0.3605009999999993
65,22,0.5,0.125,35.0,1,1.0,0.3267009999999573
66,22,0.5,1.0,-35.0,-1,1.0,0.3869009999999662
67,22,0.5,0.0,-35.0,1,0.0,1.5557009999999991
68,22,0.9,0.0,-35.0,1,0.0,0.318601000000001
69,22,0.5,1.0,-35.0,-1,1.0,0.20470099999994318
70,22,0.5,0.0,35.0,1,1.0,0.3002010000000155
71,22,0.5,0.125,35.0,1,1.0,0.2909010000000194
72,22,0.5,0.25,35.0,1,1.0,0.3312010000000214
73,22,0.5,0.0625,35.0,1,1.0,0.5164009999999166
74,22,0.5,0.125,-35.0,-1,1.0,0.5103010000000268
75,22,0.5,0.0,35.0,1,1.0,0.3456010000000447
76,22,0.5,0.25,35.0,1,1.0,0.35040099999997665
77,22,0.5,0.125,35.0,1,1.0,1.7697009999999977
78,22,0.5,0.125,35.0,1,1.0,0.32400100000000975
79,22,0.5,1.0,35.0,1,1.0,0.27860099999998056
80,22,0.5,0.0,35.0,1,1.0,0.43390099999999165
81,22,0.5,0.0,-35.0,1,0.0,0.7736009999999851
82,22,0.5,0.0625,35.0,1,1.0,0.2629009999999994
83,22,0.5,0.0,35.0,1,1.0,0.3431009999999901
84,22,0.5,0.0625,35.0,1,1.0,0.27710100000001603
85,22,0.5,0.0,35.0,1,1.0,0.3102010000000064
86,22,0.5,1.0,-35.0,-1,1.0,0.32890099999997346
87,22,0.5,0.0625,-35.0,-1,1.0,0.7641009999999824
88,22,0.5,1.0,35.0,1,1.0,0.1718010000000163
89,22,0.5,0.0625,-35.0,-1,1.0,1.9386010000000056
90,22,0.5,0.0625,-35.0,1,0.0,0.13550099999997656
91,22,0.5,0.125,-35.0,-1,1.0,0.34729999999996153
92,22,0.5,0.0,-35.0,1,0.0,0.3413009999999872
93,22,0.5,0.25,35.0,1,1.0,0.2660009999999602
94,22,0.5,0.25,-35.0,-1,1.0,0.2883009999999899
95,22,0.5,0.125,35.0,1,1.0,0.26940099999995937
96,22,0.5,1.0,35.0,1,1.0,0.5055009999999811
97,22,0.5,0.0625,-35.0,-1,1.0,0.2873010000000136
98,22,0.5,1.0,35.0,1,1.0,0.27650099999993927
99,22,0.5,0.0,35.0,1,1.0,0.31720099999995455
100,22,0.5,0.0625,35.0,1,1.0,2.1091010000000097
101,22,0.5,0.25,35.0,1,1.0,0.23100099999999202
102,22,0.5,0.0625,-35.0,1,0.0,0.2793010000000322
103,22,0.5,0.25,-35.0,-1,1.0,2.263101000000006
104,22,0.5,0.0625,-35.0,-1,1.0,0.21580099999999902
105,22,0.5,0.0625,35.0,1,1.0,1.3481009999999856
106,22,0.5,0.0,35.0,1,1.0,0.12400100000002112
107,22,0.5,1.0,-35.0,-1,1.0,0.25330100000002176
108,22,0.5,0.125,35.0,1,1.0,0.4108009999999922
109,22,0.5,0.0625,-35.0,-1,1.0,2.8277009999999905
110,22,0.5,0.25,-35.0,-1,1.0,0.6281010000000151
111,22,0.5,1.0,35.0,1,1.0,0.312300999999934
112,22,0.5,0.0625,35.0,1,1.0,1.4163010000000327
113,22,0.5,0.0625,-35.0,-1,1.0,0.24510099999997692
114,22,0.5,1.0,-35.0,-1,1.0,0.28210099999995464
115,22,0.5,0.125,35.0,1,1.0,0.2912009999999441
116,22,0.5,0.0625,-35.0,1,0.0,0.2958009999999831
117,22,0.5,0.25,-35.0,1,0.0,0.408600999999976
118,22,0.5,0.125,35.0,-1,0.0,1.4747009999999818
119,22,0.5,0.0625,-35.0,-1,1.0,0.776600999999971
120,22,0.5,1.0,-35.0,-1,1.0,0.4052010000000337
121,22,0.5,0.125,-35.0,-1,1.0,0.22080099999993763
122,22,0.5,1.0,-35.0,-1,1.0,0.23230100000000675
123,22,0.5,0.0625,-35.0,-1,1.0,0.4943010000000072
124,22,0.5,0.25,35.0,1,1.0,0.460000999999977
125,22,0.5,1.0,35.0,1,1.0,0.5182009999999764
126,22,0.5,0.25,35.0,1,1.0,0.32990100000000666
127,22,0.5,0.25,-35.0,-1,1.0,1.5585010000000352
128,22,0.5,0.0,-35.0,1,0.0,0.2702009999999859
129,22,0.5,0.25,35.0,1,1.0,0.3803010000000313
130,22,0.5,1.0,-35.0,-1,1.0,0.1519010000000094
131,22,0.5,0.125,-35.0,-1,1.0,0.2664010000000303
132,22,0.5,0.125,-35.0,-1,1.0,0.5122010000000046
133,22,0.5,1.0,35.0,1,1.0,0.28050100000007205
134,22,0.5,0.125,-35.0,-1,1.0,0.37590099999999893
135,22,0.5,0.0625,-35.0,1,0.0,0.4866010000001779
136,22,0.5,0.0625,-35.0,-1,1.0,0.8141010000000506
137,22,0.5,0.125,-35.0,-1,1.0,0.2817009999999982
138,22,0.5,0.125,35.0,1,1.0,0.29070100000012644
139,22,0.5,0.0,35.0,1,1.0,0.46780100000000857
140,22,0.5,0.25,35.0,1,1.0,3.6209010000000035
141,22,0.5,0.25,-35.0,-1,1.0,0.30690100000003895
142,22,0.5,0.125,-35.0,-1,1.0,0.6476010000001224
143,22,0.5,0.0625,-35.0,-1,1.0,0.18990100000007715
144,22,0.5,0.25,35.0,1,1.0,0.24200099999995928
145,22,0.5,1.0,-35.0,-1,1.0,0.3586010000001352
146,22,0.5,0.0625,-35.0,-1,1.0,0.31040100000006987
147,22,0.5,1.0,-35.0,-1,1.0,0.3098009999999931
148,22,0.5,0.0625,-35.0,-1,1.0,0.36760100000003604
149,22,0.5,0.125,-35.0,-1,1.0,0.47840100000007624
150,22,0.5,0.25,35.0,1,1.0,0.25810100000001057
151,22,0.5,0.125,35.0,1,1.0,0.28870100000006005
152,22,0.5,0.0625,-35.0,-1,1.0,0.5554010000000744
153,22,0.5,0.125,-35.0,-1,1.0,0.2551009999999678
154,22,0.5,0.25,35.0,1,1.0,0.09400100000004841
155,22,0.5,0.0,-35.0,-1,1.0,1.520701000000031
156,22,0.5,0.25,35.0,1,1.0,0.2634010000000444
157,22,0.5,0.25,-35.0,-1,1.0,0.25420099999996637
158,22,0.5,0.0625,-35.0,-1,1.0,0.8578009999999949
159,22,0.5,1.0,-35.0,-1,1.0,0.23410100000000966
160,22,0.5,1.0,-35.0,-1,1.0,0.23560100000008788
161,22,0.5,0.25,-35.0,-1,1.0,0.2729010000001608
162,22,0.5,0.25,35.0,1,1.0,0.13120100000014645
163,22,0.5,0.125,-35.0,-1,1.0,0.42510100000015427
164,22,0.5,1.0,35.0,1,1.0,0.23850100000004204
165,22,0.5,0.0625,35.0,1,1.0,0.27240100000005896
166,22,0.5,1.0,-35.0,-1,1.0,0.34300100000007205
167,22,0.5,1.0,-35.0,-1,1.0,0.20660100000009152
168,22,0.5,1.0,35.0,1,1.0,0.27060100000005605
169,22,0.5,0.0625,35.0,1,1.0,0.21370100000001457
170,22,0.5,0.125,-35.0,-1,1.0,0.539801000000125
171,22,0.5,0.0625,35.0,1,1.0,0.5892010000001164
172,22,0.5,0.0,35.0,1,1.0,0.8753010000001495
173,22,0.5,0.0625,-35.0,1,0.0,0.3765010000000757
174,22,0.5,0.0625,-35.0,-1,1.0,0.26700099999993654
175,22,0.5,0.0,35.0,-1,0.0,2.8294010000000753
176,22,0.5,0.0625,-35.0,1,0.0,0.2530010000001539
177,22,0.6,0.0625,-35.0,1,0.0,0.27020100000004277
178,22,0.5,1.0,35.0,1,1.0,0.2596009999999751
179,22,0.5,1.0,-35.0,-1,1.0,0.21550100000001748
180,22,0.5,1.0,-35.0,-1,1.0,0.23890100000005532
181,22,0.5,0.0,35.0,-1,0.0,0.44410100000004604
182,22,0.5,0.125,-35.0,-1,1.0,0.7014010000001463
183,22,0.5,0.125,35.0,1,1.0,0.2838010000000395
184,22,0.5,0.25,35.0,1,1.0,0.38900100000012117
185,22,0.5,0.0625,35.0,1,1.0,0.26090099999998984
186,22,0.5,1.0,35.0,1,1.0,0.3179010000000062
187,22,0.5,0.125,-35.0,-1,1.0,0.4490009999999529
188,22,0.5,1.0,35.0,1,1.0,0.26060100000006514
189,22,0.5,1.0,35.0,1,1.0,0.2919010000000526
190,22,0.5,0.0625,-35.0,1,0.0,0.34530099999994945
191,22,0.7,0.0625,-35.0,-1,1.0,0.5399010000000999
192,22,0.5,1.0,35.0,1,1.0,0.4164010000000644
193,22,0.5,0.0625,-35.0,1,0.0,0.2789010000001326
194,22,0.5,0.125,35.0,1,1.0,0.2772009999999909
195,22,0.5,0.0,35.0,-1,0.0,0.3622010000000273
196,22,0.5,0.25,-35.0,-1,1.0,0.43800099999998565
197,22,0.5,1.0,35.0,1,1.0,1.264901000000009
198,22,0.5,0.25,-35.0,-1,1.0,0.21470099999999093
