trial_num,session_num,stim_probability_left,contrast,position,response_choice,trial_correct,reaction_time
1,1,0.5,0.25,-35.0,-1,1.0,0.2576999999999998
2,1,0.5,0.125,-35.0,-1,1.0,0.31150000000000055
3,1,0.5,1.0,-35.0,-1,1.0,0.21179999999999932
4,1,0.5,0.0625,35.0,-1,0.0,1.2065999999999981
5,1,0.5,1.0,-35.0,-1,1.0,0.3954000000000004
6,1,0.5,0.125,35.0,1,1.0,4.5064999999999955
7,1,0.5,0.25,-35.0,-1,1.0,0.2554999999999943
8,1,0.5,0.25,35.0,1,1.0,0.6172999999999966
9,1,0.5,0.125,35.0,1,1.0,0.4490999999999943
10,1,0.5,1.0,35.0,1,1.0,6.409700000000001
11,1,0.5,0.0625,-35.0,1,0.0,0.2564999999999955
12,1,0.5,0.0,35.0,1,1.0,0.8864000000000019
13,1,0.5,1.0,35.0,1,1.0,1.0411000000000001
14,1,0.5,0.25,-35.0,-1,1.0,0.2598999999999947
15,1,0.5,0.125,35.0,1,1.0,4.038300000000007
16,1,0.5,1.0,35.0,-1,0.0,4.562300000000008
17,1,0.5,0.25,-35.0,-1,1.0,0.25
18,1,0.5,1.0,-35.0,-1,1.0,0.3486000000000189
19,1,0.5,0.0,-35.0,1,0.0,0.4883999999999986
20,1,0.5,0.0,35.0,1,1.0,2.7232000000000056
21,1,0.5,0.125,35.0,1,1.0,0.5387000000000057
22,1,0.5,0.25,35.0,1,1.0,1.7151000000000067
23,1,0.5,0.0625,35.0,1,1.0,2.6984000000000066
24,1,0.5,1.0,-35.0,-1,1.0,0.20319999999999538
25,1,0.5,0.0,35.0,1,1.0,0.6094000000000079
26,1,0.5,0.25,-35.0,-1,1.0,0.3129989999999907
27,1,0.5,0.0,35.0,1,1.0,0.7171000000000021
28,1,0.5,0.125,35.0,1,1.0,4.055900000000008
29,1,0.5,0.25,-35.0,-1,1.0,0.25620000000000687
30,1,0.5,0.0,35.0,1,1.0,3.763500000000022
31,1,0.5,0.0625,-35.0,-1,1.0,0.46340000000000714
32,1,0.5,0.25,35.0,1,1.0,0.42789999999999395
33,1,0.5,0.0625,-35.0,-1,1.0,2.642799999999994
34,1,0.5,0.0625,35.0,1,1.0,1.9575999999999851
35,1,0.5,1.0,35.0,1,1.0,0.5369000000000028
36,1,0.5,0.125,35.0,1,1.0,1.7759000000000356
37,1,0.5,0.0,-35.0,1,0.0,0.5185000000000173
38,1,0.5,1.0,35.0,1,1.0,0.5290999999999997
39,1,0.5,0.0625,-35.0,-1,1.0,0.9183999999999912
40,1,0.5,0.125,35.0,1,1.0,2.762900000000002
41,1,0.5,1.0,-35.0,-1,1.0,0.23560000000000514
42,1,0.5,0.0625,35.0,-1,0.0,1.3070999999999913
43,1,0.5,1.0,-35.0,-1,1.0,0.21690000000000964
44,1,0.5,0.25,-35.0,-1,1.0,0.3283000000000129
45,1,0.5,1.0,-35.0,-1,1.0,0.18899999999999295
46,1,0.5,0.25,35.0,-1,0.0,2.2497999999999934
47,1,0.5,0.0,35.0,1,1.0,0.5293000000000063
48,1,0.5,0.0,35.0,1,1.0,3.079100000000011
49,1,0.5,0.25,-35.0,-1,1.0,0.3598999999999819
50,1,0.5,0.0625,35.0,1,1.0,0.3551999999999964
51,1,0.5,0.0625,-35.0,1,0.0,0.6842000000000041
52,1,0.5,0.0,-35.0,-1,1.0,0.3095000000000141
53,1,0.5,0.0,-35.0,1,0.0,0.3234000000000208
54,1,0.5,0.0625,-35.0,-1,1.0,0.6640000000000157
55,1,0.5,1.0,-35.0,-1,1.0,0.22329999999999472
56,1,0.5,0.25,35.0,1,1.0,1.7416999999999803
57,1,0.5,0.125,35.0,1,1.0,0.3372999999999706
58,1,0.5,0.0,35.0,1,1.0,0.5321000000000708
59,1,0.5,0.0,35.0,1,1.0,0.31440000000003465
60,1,0.5,0.125,35.0,1,1.0,0.35520000000002483
61,1,0.5,0.125,-35.0,-1,1.0,0.4887000000000512
62,1,0.5,0.0625,35.0,1,1.0,0.44069999999999254
63,1,0.5,0.25,35.0,1,1.0,0.48509999999998854
64,1,0.5,0.0625,35.0,1,1.0,0.458500000000015
65,1,0.5,1.0,35.0,1,1.0,1.577699999999993
66,1,0.5,1.0,35.0,1,1.0,0.42470000000002983
67,1,0.5,0.0625,35.0,1,1.0,1.6243000000000052
68,1,0.5,0.125,-35.0,-1,1.0,0.29640000000000555
69,1,0.5,0.0,-35.0,1,0.0,0.456100000000049
70,1,0.5,0.125,35.0,1,1.0,1.5028999999999542
71,1,0.5,1.0,-35.0,-1,1.0,0.36939999999998463
72,1,0.5,0.0625,35.0,1,1.0,0.7625000000000455
73,1,0.5,0.0625,35.0,-1,0.0,3.2352000000000203
74,1,0.5,1.0,35.0,1,1.0,0.335200000000043
75,1,0.5,0.125,35.0,1,1.0,0.38740000000001373
76,1,0.5,0.125,-35.0,-1,1.0,0.363599000000022
77,1,0.5,1.0,35.0,1,1.0,0.3516999999999939
78,1,0.5,0.25,-35.0,-1,1.0,1.9519999999999982
79,1,0.5,0.125,35.0,1,1.0,0.2536000000000058
80,1,0.5,1.0,-35.0,-1,1.0,0.26589899999999034
81,1,0.5,0.0,-35.0,1,0.0,0.7435999999999581
82,1,0.5,1.0,35.0,1,1.0,1.8068000000000666
83,1,0.5,0.0,-35.0,1,0.0,2.4442999999999984
84,1,0.5,1.0,35.0,1,1.0,0.49960000000004356
85,1,0.5,0.25,35.0,-1,0.0,0.37770000000000437
86,1,0.5,0.25,35.0,1,1.0,0.22000000000002728
87,1,0.5,0.25,-35.0,-1,1.0,0.2802000000000362
88,1,0.5,0.0,35.0,1,1.0,1.9033000000000015
89,1,0.5,0.0,35.0,1,1.0,0.8493000000000279
90,1,0.5,0.0,-35.0,1,0.0,0.17660000000000764
91,1,0.2,0.125,-35.0,-1,1.0,0.3830000000000382
92,1,0.2,0.0,35.0,-1,0.0,0.29199999999997317
93,1,0.2,0.0625,35.0,1,1.0,0.5004000000000133
94,1,0.2,0.125,-35.0,-1,1.0,0.24930000000000518
95,1,0.2,0.25,35.0,1,1.0,0.41100000000000136
96,1,0.2,0.0,35.0,1,1.0,0.4422000000000139
97,1,0.2,0.25,35.0,1,1.0,3.039199999999994
98,1,0.2,1.0,35.0,1,1.0,0.3269000000000233
99,1,0.2,1.0,35.0,1,1.0,1.9167999999999665
100,1,0.2,0.25,35.0,1,1.0,0.3468000000000302
101,1,0.2,0.0,35.0,1,1.0,0.31210000000004356
102,1,0.2,0.125,35.0,1,1.0,2.8684000000000083
103,1,0.2,1.0,-35.0,-1,1.0,0.31370000000003984
104,1,0.2,0.0,-35.0,1,0.0,0.3805999999999585
105,1,0.2,0.0,35.0,1,1.0,0.39239999999995234
106,1,0.2,0.125,35.0,1,1.0,3.0609999999999786
107,1,0.2,0.0,35.0,1,1.0,0.334699999999998
108,1,0.2,0.0625,35.0,1,1.0,0.49610000000001264
109,1,0.2,0.0625,35.0,1,1.0,2.77679999999998
110,1,0.2,0.0,35.0,1,1.0,0.3281999999999812
111,1,0.2,0.25,35.0,1,1.0,1.1615000000000464
112,1,0.2,0.0,35.0,1,1.0,0.33569999999997435
113,1,0.2,1.0,35.0,1,1.0,0.22390000000001464
114,1,0.2,0.125,35.0,1,1.0,3.1293999999999755
115,1,0.2,0.0,35.0,1,1.0,1.3839999999999009
116,1,0.2,0.0625,35.0,1,1.0,0.39849900000001526
117,1,0.2,0.25,35.0,1,1.0,2.464599999999905
118,1,0.2,0.25,35.0,1,1.0,0.4432999999999083
119,1,0.2,1.0,35.0,1,1.0,1.3194999999999482
120,1,0.2,1.0,-35.0,-1,1.0,0.4995999999999867
121,1,0.2,0.25,35.0,1,1.0,0.14849999999989905
122,1,0.2,0.0,-35.0,-1,1.0,0.272199999999998
123,1,0.2,0.0625,35.0,1,1.0,1.2355999999999767
124,1,0.2,1.0,35.0,-1,0.0,1.3122999999999365
125,1,0.2,0.125,35.0,1,1.0,0.3867000000000189
126,1,0.2,0.25,35.0,1,1.0,0.5033999999999423
127,1,0.2,0.0625,35.0,1,1.0,1.0692990000000009
128,1,0.2,0.25,-35.0,-1,1.0,0.5965999999999667
129,1,0.2,0.0,35.0,-1,0.0,1.1491999999999507
130,1,0.2,0.0625,35.0,1,1.0,0.16289999999992233
131,1,0.2,0.0625,35.0,-1,0.0,0.4652999999999565
132,1,0.8,0.0,-35.0,1,0.0,0.2542999999998301
133,1,0.8,0.125,-35.0,-1,1.0,0.2679000000000542
134,1,0.8,0.0,-35.0,1,0.0,0.2436999999999898
135,1,0.8,0.0,-35.0,-1,1.0,0.2644999999998845
136,1,0.8,0.0,-35.0,-1,1.0,2.973600000000033
137,1,0.8,1.0,-35.0,-1,1.0,0.27099999999995816
138,1,0.8,0.0625,-35.0,-1,1.0,0.31119999999998527
139,1,0.8,1.0,-35.0,-1,1.0,0.2635999999999967
140,1,0.8,0.0625,-35.0,1,0.0,0.1758989999999585
141,1,0.8,1.0,35.0,1,1.0,0.3523000000000138
142,1,0.8,0.0625,35.0,1,1.0,1.4070990000000165
143,1,0.8,1.0,-35.0,-1,1.0,0.43619999999998527
144,1,0.8,1.0,-35.0,-1,1.0,0.2558999999998832
145,1,0.8,0.0625,-35.0,-1,1.0,0.563799999999901
146,1,0.8,0.25,-35.0,-1,1.0,0.23689999999987776
147,1,0.8,0.0,-35.0,1,0.0,0.32349999999996726
148,1,0.8,1.0,-35.0,-1,1.0,0.2520999999999276
149,1,0.8,0.0,-35.0,1,0.0,2.7596999999999525
150,1,0.8,0.125,35.0,1,1.0,0.32179999999993925
151,1,0.8,0.25,35.0,1,1.0,0.3107999999998583
152,1,0.8,0.25,-35.0,1,0.0,0.13379999999995107
153,1,0.8,0.25,-35.0,-1,1.0,0.2927999999999429
154,1,0.2,0.0625,35.0,1,1.0,0.47460000000000946
155,1,0.2,0.0,35.0,-1,0.0,3.448699999999917
156,1,0.2,0.0,35.0,1,1.0,0.30499999999995
157,1,0.2,0.0625,35.0,1,1.0,0.30160000000000764
158,1,0.2,0.125,-35.0,-1,1.0,0.33809999999994034
159,1,0.2,0.125,-35.0,-1,1.0,0.29729999999995016
160,1,0.2,0.0625,35.0,1,1.0,0.3082999999999174
161,1,0.2,1.0,35.0,1,1.0,0.7658999999998741
162,1,0.2,0.0,35.0,1,1.0,2.473799999999983
163,1,0.2,0.0,35.0,1,1.0,0.16480000000001382
164,1,0.2,0.125,35.0,1,1.0,2.2998000000000047
165,1,0.2,0.0,35.0,1,1.0,0.3488999999998441
166,1,0.2,1.0,35.0,1,1.0,0.3123999999999114
167,1,0.2,0.25,35.0,1,1.0,0.15210000000001855
168,1,0.2,0.25,35.0,1,1.0,1.1161999999999352
169,1,0.2,0.25,35.0,1,1.0,0.3161999999999807
170,1,0.2,0.25,-35.0,-1,1.0,1.815499999999929
171,1,0.2,0.125,35.0,1,1.0,0.3201999999999998
172,1,0.2,0.0625,35.0,1,1.0,0.18829999999991287
173,1,0.2,1.0,35.0,1,1.0,3.123598999999899
174,1,0.2,0.0,35.0,1,1.0,0.3328999999999951
175,1,0.2,0.125,35.0,1,1.0,0.18070000000000164
176,1,0.2,0.125,35.0,1,1.0,0.2737999999999374
177,1,0.2,1.0,-35.0,-1,1.0,0.20259999999996126
178,1,0.2,1.0,35.0,1,1.0,0.4188000000000329
179,1,0.2,0.0,35.0,1,1.0,0.22529999999994743
180,1,0.2,0.0,35.0,1,1.0,0.29119999999988977
181,1,0.2,0.0,35.0,1,1.0,1.0616999999999734
182,1,0.2,0.125,35.0,1,1.0,2.0422999999999547
183,1,0.2,1.0,35.0,1,1.0,0.46069999999986067
184,1,0.2,1.0,35.0,1,1.0,0.34389999999996235
185,1,0.2,0.0625,35.0,1,1.0,2.321999999999889
186,1,0.2,0.25,35.0,1,1.0,0.48329999999987194
187,1,0.2,0.125,-35.0,-1,1.0,0.33389999999997144
188,1,0.2,0.25,35.0,1,1.0,1.2292999999999665
189,1,0.2,0.0,-35.0,1,0.0,0.13160000000004857
190,1,0.2,0.0625,35.0,1,1.0,0.2261999999998352
191,1,0.2,1.0,35.0,1,1.0,0.13930000000004839
192,1,0.2,0.0,35.0,1,1.0,0.421799999999962
193,1,0.2,0.0,35.0,1,1.0,0.28489999999999327
194,1,0.2,1.0,35.0,1,1.0,0.36849999999992633
195,1,0.2,1.0,-35.0,-1,1.0,0.26400000000001
196,1,0.2,0.0625,35.0,-1,0.0,0.4198999999998705
197,1,0.2,0.125,35.0,1,1.0,0.5989999999999327
198,1,0.8,0.25,-35.0,-1,1.0,0.5054999999999836
199,1,0.8,0.0625,-35.0,-1,1.0,0.40619999999989886
200,1,0.8,0.125,-35.0,-1,1.0,0.407799999999952
201,1,0.8,0.0625,-35.0,-1,1.0,3.814200000000028
202,1,0.8,0.0,35.0,1,1.0,0.19509999999991123
203,1,0.8,0.0,-35.0,-1,1.0,0.2739999999998872
204,1,0.8,0.0,-35.0,-1,1.0,0.5463999999999487
205,1,0.8,0.0625,-35.0,-1,1.0,2.332499999999982
206,1,0.8,0.125,-35.0,1,0.0,0.13169999999990978
207,1,0.8,0.0,-35.0,1,0.0,0.31989999999996144
208,1,0.8,0.0,-35.0,1,0.0,0.7353999999999132
209,1,0.8,0.0625,35.0,1,1.0,0.32619999999985794
210,1,0.8,0.25,-35.0,-1,1.0,0.24979999999982283
211,1,0.8,1.0,35.0,1,1.0,0.2759999999999536
212,1,0.8,0.25,-35.0,-1,1.0,0.45429999999998927
213,1,0.8,0.0,35.0,1,1.0,0.8411999999998443
214,1,0.8,0.125,-35.0,-1,1.0,0.879799999999932
215,1,0.8,1.0,-35.0,-1,1.0,0.24109999999996035
216,1,0.8,0.25,-35.0,-1,1.0,0.2659999999999627
217,1,0.8,0.25,35.0,1,1.0,0.328899999999976
218,1,0.8,0.0,-35.0,1,0.0,1.9506000000000085
219,1,0.8,0.0,-35.0,1,0.0,0.12819999999987886
220,1,0.8,0.25,35.0,1,1.0,0.18370000000004438
221,1,0.8,0.0,35.0,1,1.0,0.25479999999993197
222,1,0.8,0.0625,35.0,1,1.0,0.5154999999998608
223,1,0.8,1.0,-35.0,-1,1.0,0.2580000000000382
224,1,0.8,0.0,-35.0,-1,1.0,2.254199999999969
225,1,0.8,0.0625,-35.0,1,0.0,0.314899999999966
226,1,0.8,1.0,-35.0,-1,1.0,0.23469999999997526
227,1,0.8,1.0,-35.0,-1,1.0,0.2718999999999596
228,1,0.8,0.25,35.0,1,1.0,0.3847999999999274
229,1,0.8,0.0,-35.0,1,0.0,0.3186000000000604
230,1,0.8,0.0,-35.0,-1,1.0,0.2518999999999778
231,1,0.8,0.0625,-35.0,-1,1.0,0.4557999999999538
232,1,0.8,0.0625,-35.0,-1,1.0,0.9852999999998246
233,1,0.8,1.0,-35.0,-1,1.0,0.30600000000004
234,1,0.8,1.0,-35.0,-1,1.0,0.2458000000001448
235,1,0.8,0.125,35.0,1,1.0,0.30300000000011096
236,1,0.8,0.0625,35.0,1,1.0,1.6058999999997923
237,1,0.8,0.0,-35.0,1,0.0,0.3432999999999993
238,1,0.8,0.25,-35.0,-1,1.0,0.25289999999995416
239,1,0.8,0.25,-35.0,1,0.0,0.12369999999987158
240,1,0.8,0.125,-35.0,-1,1.0,0.37649899999996705
241,1,0.8,0.0,35.0,1,1.0,0.21049999999991087
242,1,0.8,0.25,-35.0,-1,1.0,0.5534999999997581
243,1,0.8,1.0,-35.0,-1,1.0,0.6007999999999356
244,1,0.8,0.0,-35.0,1,0.0,0.4537000000000262
245,1,0.8,0.0,-35.0,1,0.0,0.38789999999994507
246,1,0.8,0.0625,-35.0,-1,1.0,0.3041000000000622
247,1,0.8,0.0625,-35.0,1,0.0,0.10130000000003747
248,1,0.8,0.125,-35.0,-1,1.0,0.2943999999997686
249,1,0.8,1.0,35.0,1,1.0,0.988399999999956
250,1,0.8,0.25,-35.0,-1,1.0,0.4945999999997639
251,1,0.8,1.0,-35.0,-1,1.0,0.27529999999978827
252,1,0.8,0.0625,-35.0,-1,1.0,0.13170000000013715
253,1,0.8,0.0625,-35.0,1,0.0,0.3024000000000342
254,1,0.8,0.0625,-35.0,1,0.0,0.5090000000000146
255,1,0.8,1.0,-35.0,-1,1.0,0.23289999999997235
256,1,0.8,0.0,-35.0,1,0.0,5.329099999999926
257,1,0.8,1.0,35.0,1,1.0,0.346599999999853
258,1,0.8,1.0,35.0,1,1.0,0.32310000000006767
259,1,0.8,0.0,-35.0,1,0.0,0.16689999999994143
260,1,0.8,0.0625,-35.0,-1,1.0,0.26319999999986976
261,1,0.8,0.125,35.0,-1,0.0,2.8373999999998887
262,1,0.8,0.0,-35.0,1,0.0,0.260300000000143
263,1,0.8,0.0,-35.0,1,0.0,0.40449999999987085
264,1,0.8,0.125,35.0,1,1.0,0.5441999999998188
265,1,0.8,0.25,-35.0,-1,1.0,0.29480000000012296
266,1,0.8,1.0,35.0,1,1.0,0.5877000000000407
267,1,0.8,0.0625,35.0,1,1.0,0.6715999999998985
268,1,0.8,1.0,35.0,1,1.0,0.9147999999997865
269,1,0.8,0.0625,-35.0,1,0.0,0.17859999999973297
270,1,0.8,0.0,-35.0,1,0.0,0.31159999999977117
271,1,0.8,1.0,35.0,1,1.0,0.4057000000000244
272,1,0.2,0.0,35.0,1,1.0,0.45859999999993306
273,1,0.2,0.0625,35.0,1,1.0,1.8460000000000036
274,1,0.2,0.0625,35.0,1,1.0,1.6423000000002048
275,1,0.2,0.0,35.0,1,1.0,0.3363999999999123
276,1,0.2,0.0,-35.0,-1,1.0,0.1327000000001135
277,1,0.2,0.0,-35.0,1,0.0,1.4267999999999574
278,1,0.2,0.0,35.0,1,1.0,0.43969999999967513
279,1,0.2,1.0,-35.0,-1,1.0,0.2502999999999247
280,1,0.2,0.0625,35.0,1,1.0,0.3266000000000986
281,1,0.2,0.0,35.0,1,1.0,0.3505999999999858
282,1,0.2,0.25,35.0,1,1.0,0.6938000000000102
283,1,0.2,0.0625,35.0,1,1.0,0.41430000000013933
284,1,0.2,1.0,35.0,1,1.0,0.3739999999997963
285,1,0.2,0.25,35.0,1,1.0,2.271099999999933
286,1,0.2,0.25,35.0,1,1.0,0.2541999999998552
287,1,0.2,0.0625,-35.0,1,0.0,3.4415999999998803
288,1,0.2,1.0,35.0,1,1.0,0.5247999999996864
289,1,0.2,1.0,35.0,1,1.0,0.19209999999998217
290,1,0.2,0.25,35.0,1,1.0,0.2317000000000462
291,1,0.2,1.0,35.0,1,1.0,2.31899999999996
292,1,0.2,1.0,-35.0,-1,1.0,0.21869999999989886
293,1,0.2,1.0,35.0,1,1.0,0.6960999999998876
294,1,0.2,1.0,35.0,1,1.0,0.4493999999999687
295,1,0.2,1.0,35.0,1,1.0,1.6230999999997948
296,1,0.2,1.0,35.0,1,1.0,0.26279999999997017
297,1,0.2,0.25,35.0,1,1.0,0.27350000000001273
298,1,0.2,0.25,35.0,1,1.0,0.30320000000006075
299,1,0.2,0.25,35.0,1,1.0,0.45719999999982974
300,1,0.2,1.0,35.0,1,1.0,0.986699999999928
301,1,0.2,0.0,35.0,1,1.0,0.2841000000000804
302,1,0.2,1.0,-35.0,-1,1.0,0.6372999999998683
303,1,0.2,0.25,-35.0,-1,1.0,0.5143999999997959
304,1,0.2,0.0625,35.0,-1,0.0,1.307399999999916
305,1,0.2,1.0,35.0,1,1.0,0.3047999999998865
306,1,0.2,1.0,35.0,1,1.0,0.35439999999994143
307,1,0.2,0.0,35.0,1,1.0,0.4718000000000302
308,1,0.2,0.0625,-35.0,-1,1.0,1.2013999999999214
309,1,0.2,0.125,-35.0,1,0.0,0.2320999999999458
310,1,0.2,1.0,35.0,1,1.0,0.33179900000004636
311,1,0.2,0.125,35.0,1,1.0,0.6123000000000047
312,1,0.2,0.0,35.0,1,1.0,0.3386999999997897
313,1,0.2,0.125,35.0,1,1.0,0.41620000000011714
314,1,0.2,0.125,35.0,1,1.0,0.6392000000000735
315,1,0.2,0.0,35.0,1,1.0,1.25979899999993
316,1,0.2,0.125,35.0,1,1.0,0.2929999999998927
317,1,0.2,0.0625,-35.0,-1,1.0,0.5235999999999876
318,1,0.2,0.125,35.0,-1,0.0,0.3166000000001077
319,1,0.2,1.0,35.0,-1,0.0,0.10059999999975844
320,1,0.2,0.0,-35.0,1,0.0,0.27369999999996253
321,1,0.2,0.25,35.0,-1,0.0,0.21449999999981628
322,1,0.2,0.125,35.0,1,1.0,0.3208999999999378
323,1,0.2,0.25,35.0,1,1.0,1.8916000000001532
324,1,0.2,0.25,35.0,1,1.0,0.4512999999999465
325,1,0.2,0.125,-35.0,-1,1.0,0.5018999999999778
326,1,0.2,0.0625,35.0,1,1.0,0.3714999999999691
327,1,0.2,1.0,35.0,1,1.0,0.3088999999997668
328,1,0.2,0.0625,-35.0,1,0.0,0.15190000000006876
329,1,0.2,0.125,35.0,1,1.0,0.3960999999997057
330,1,0.2,0.125,35.0,1,1.0,0.3089999999999691
331,1,0.2,0.125,35.0,1,1.0,0.393100000000004
332,1,0.2,0.25,35.0,1,1.0,0.302599999999984
333,1,0.2,0.25,35.0,1,1.0,0.2998999999999796
334,1,0.2,0.0,35.0,1,1.0,0.35619999999994434
335,1,0.2,0.0,35.0,1,1.0,0.17029999999977008
336,1,0.2,0.125,35.0,1,1.0,0.5565999999998894
337,1,0.2,0.0,35.0,1,1.0,0.5172000000000025
338,1,0.2,0.25,-35.0,-1,1.0,0.3001999999999043
339,1,0.2,0.25,35.0,1,1.0,0.22739999999998872
340,1,0.2,0.25,35.0,1,1.0,1.330600000000004
341,1,0.2,0.0625,35.0,1,1.0,0.2609999999997399
342,1,0.2,1.0,35.0,1,1.0,0.16749999999979082
343,1,0.2,0.125,35.0,1,1.0,0.18470000000002074
344,1,0.2,1.0,35.0,1,1.0,0.2778000000000702
345,1,0.2,0.125,35.0,1,1.0,0.18839999999977408
346,1,0.2,0.25,35.0,1,1.0,0.14489999999977954
347,1,0.2,1.0,35.0,1,1.0,0.3489999999997053
348,1,0.2,1.0,35.0,1,1.0,3.315399999999954
349,1,0.2,0.0,35.0,1,1.0,0.18269999999984066
350,1,0.2,0.25,35.0,1,1.0,0.38269999999988613
351,1,0.2,1.0,-35.0,-1,1.0,0.36969999999996617
352,1,0.2,0.0,35.0,1,1.0,0.12950000000000728
353,1,0.2,0.125,35.0,1,1.0,2.669900000000098
354,1,0.2,0.0,35.0,1,1.0,0.3264999999998963
355,1,0.2,0.0625,-35.0,-1,1.0,0.7003999999997177
356,1,0.2,0.25,-35.0,-1,1.0,0.32349999999996726
357,1,0.2,0.0625,35.0,1,1.0,0.19080000000008113
358,1,0.2,0.25,35.0,1,1.0,0.3672999999998865
359,1,0.2,1.0,35.0,1,1.0,0.48119999999994434
360,1,0.2,1.0,-35.0,-1,1.0,0.2575000000001637
361,1,0.2,0.0625,35.0,1,1.0,0.2681999999997515
362,1,0.2,0.25,35.0,1,1.0,0.27779999999984284
363,1,0.2,1.0,35.0,-1,0.0,0.41849999999999454
364,1,0.8,0.125,-35.0,-1,1.0,0.5615999999999985
365,1,0.8,1.0,-35.0,-1,1.0,0.4922999999998865
366,1,0.8,1.0,-35.0,-1,1.0,0.24540000000001783
367,1,0.8,0.0625,35.0,1,1.0,0.41609999999991487
368,1,0.8,0.0,-35.0,1,0.0,0.3625999999999294
369,1,0.8,0.25,-35.0,-1,1.0,0.240099999999984
370,1,0.8,0.25,-35.0,-1,1.0,0.27969999999982065
371,1,0.8,0.25,-35.0,-1,1.0,1.2900999999999385
372,1,0.8,0.0,-35.0,1,0.0,1.5732000000000426
373,1,0.8,1.0,35.0,1,1.0,0.4038999999997941
374,1,0.8,0.0625,-35.0,-1,1.0,0.4700999999997748
375,1,0.8,0.0625,-35.0,-1,1.0,0.7642000000000735
376,1,0.8,0.0,-35.0,1,0.0,0.3372999999999138
377,1,0.8,1.0,-35.0,-1,1.0,0.28440000000023247
378,1,0.8,0.0,-35.0,1,0.0,0.8108999999999469
379,1,0.8,0.25,-35.0,-1,1.0,0.2515000000000782
380,1,0.8,0.0,-35.0,-1,1.0,0.3343999999999596
381,1,0.8,1.0,-35.0,-1,1.0,0.4719000000000051
382,1,0.8,0.125,-35.0,-1,1.0,0.2581000000000131
383,1,0.8,0.25,35.0,1,1.0,0.3388999999997395
384,1,0.2,0.0,35.0,1,1.0,1.1452999999999065
385,1,0.2,0.25,-35.0,1,0.0,0.5192999999999302
386,1,0.2,0.125,35.0,1,1.0,0.3488999999999578
387,1,0.2,0.0,35.0,1,1.0,0.38279999999986103
388,1,0.2,0.25,-35.0,1,0.0,0.1594000000000051
389,1,0.2,0.0625,35.0,1,1.0,0.3064999999999145
390,1,0.2,0.0,35.0,1,1.0,0.19290000000000873
391,1,0.2,0.25,35.0,1,1.0,0.21369899999990594
392,1,0.2,0.125,35.0,1,1.0,0.21329999999989013
393,1,0.2,0.0625,35.0,1,1.0,0.1372999999998683
394,1,0.2,0.0625,35.0,1,1.0,0.7103999999997086
395,1,0.2,0.0,35.0,1,1.0,0.3844000000001415
396,1,0.2,0.0625,35.0,1,1.0,0.1640999999997348
397,1,0.2,0.0625,-35.0,-1,1.0,0.5880999999999403
398,1,0.2,1.0,35.0,1,1.0,0.5410999999999149
399,1,0.2,0.0,35.0,1,1.0,0.23169999999981883
400,1,0.2,0.125,35.0,1,1.0,2.538099999999986
401,1,0.2,0.125,35.0,1,1.0,0.3589999999999236
402,1,0.2,1.0,35.0,1,1.0,0.34189999999989595
403,1,0.2,0.125,35.0,1,1.0,0.13580000000001746
404,1,0.2,0.25,-35.0,-1,1.0,1.2689000000000306
405,1,0.2,1.0,35.0,1,1.0,0.7592999999999392
406,1,0.2,0.25,-35.0,-1,1.0,0.322400000000016
407,1,0.2,1.0,35.0,1,1.0,0.5864999999998872
408,1,0.2,1.0,35.0,1,1.0,0.3061999999999898
409,1,0.2,0.0625,35.0,1,1.0,1.106899999999996
410,1,0.2,0.125,35.0,1,1.0,0.3432999999999993
411,1,0.2,0.25,-35.0,-1,1.0,0.5873000000001412
412,1,0.2,1.0,35.0,1,1.0,0.6970000000001164
413,1,0.2,0.25,35.0,1,1.0,0.4076999999999771
414,1,0.2,0.0,35.0,1,1.0,0.25080000000002656
415,1,0.2,0.0,35.0,1,1.0,0.3580000000001746
416,1,0.2,1.0,-35.0,1,0.0,0.171100000000024
417,1,0.2,0.25,35.0,1,1.0,0.0884000000000924
418,1,0.2,0.25,35.0,1,1.0,0.2547999999997046
419,1,0.2,0.125,35.0,1,1.0,0.38210000000003674
420,1,0.2,0.125,35.0,1,1.0,0.34199999999987085
421,1,0.2,0.125,35.0,1,1.0,0.3524999999999636
422,1,0.2,0.25,35.0,1,1.0,0.44219999999995707
423,1,0.2,0.0625,35.0,1,1.0,0.20949999999993452
424,1,0.2,1.0,35.0,1,1.0,0.3762000000001535
425,1,0.2,1.0,35.0,1,1.0,0.36979999999994106
426,1,0.2,0.0625,-35.0,-1,1.0,1.2194999999999254
427,1,0.2,0.25,35.0,1,1.0,0.29339999999979227
428,1,0.2,0.125,35.0,1,1.0,1.5200999999999567
429,1,0.2,0.125,-35.0,-1,1.0,0.760300000000143
430,1,0.2,0.0,35.0,1,1.0,0.20369999999979882
431,1,0.2,1.0,35.0,1,1.0,1.2540999999998803
432,1,0.2,1.0,35.0,1,1.0,0.13380000000006476
433,1,0.2,0.0,35.0,1,1.0,0.1612999999999829
434,1,0.2,0.125,35.0,1,1.0,0.13089999999988322
435,1,0.2,0.0625,35.0,1,1.0,0.33819999999991524
436,1,0.2,0.25,-35.0,-1,1.0,0.7844000000000051
437,1,0.8,0.25,-35.0,1,0.0,0.1251999999999498
438,1,0.8,1.0,-35.0,-1,1.0,0.32819999999992433
439,1,0.8,0.25,-35.0,-1,1.0,0.23890000000005784
440,1,0.8,0.25,-35.0,-1,1.0,0.25529999999980646
441,1,0.8,0.25,35.0,1,1.0,0.33570000000008804
442,1,0.8,1.0,-35.0,-1,1.0,0.2823000000000775
443,1,0.8,1.0,-35.0,1,0.0,0.15609999999992397
444,1,0.8,1.0,-35.0,-1,1.0,0.2256999999999607
445,1,0.8,0.0625,-35.0,1,0.0,0.6965000000000146
446,1,0.8,0.0,-35.0,1,0.0,0.3193999999998596
447,1,0.8,1.0,-35.0,-1,1.0,0.31340000000000146
448,1,0.8,0.25,-35.0,-1,1.0,0.2863999999999578
449,1,0.8,0.0625,-35.0,1,0.0,0.3206000000000131
450,1,0.8,0.0,-35.0,1,0.0,0.3833999999997104
451,1,0.8,1.0,-35.0,-1,1.0,0.24410000000011678
452,1,0.8,0.0625,-35.0,-1,1.0,0.3170000000000073
453,1,0.8,1.0,35.0,1,1.0,0.2544000000000324
454,1,0.8,0.125,-35.0,-1,1.0,1.2839999999998781
455,1,0.8,1.0,-35.0,-1,1.0,0.25469999999995707
456,1,0.8,0.125,-35.0,-1,1.0,0.5277000000000953
457,1,0.8,0.0625,35.0,1,1.0,2.9747999999999593
458,1,0.8,1.0,-35.0,-1,1.0,0.26800000000048385
459,1,0.8,0.125,-35.0,1,0.0,0.11870000000044456
460,1,0.8,0.0,-35.0,1,0.0,0.3716000000003987
461,1,0.8,0.0625,-35.0,-1,1.0,0.4589000000005399
462,1,0.8,0.0625,35.0,-1,0.0,0.5621999999998479
463,1,0.2,0.25,35.0,1,1.0,0.3360000000002401
464,1,0.2,0.125,35.0,1,1.0,0.2757000000001426
465,1,0.2,0.0625,35.0,1,1.0,0.2962000000002263
466,1,0.2,1.0,35.0,1,1.0,1.1992000000004737
467,1,0.2,0.125,35.0,1,1.0,0.7863999999999578
468,1,0.2,0.0625,35.0,1,1.0,0.3198000000002139
469,1,0.2,0.0,35.0,1,1.0,0.18360000000029686
470,1,0.2,0.0625,35.0,1,1.0,0.2701000000001841
471,1,0.2,0.125,-35.0,-1,1.0,0.5071000000002641
472,1,0.2,0.0625,35.0,1,1.0,0.7204000000001543
473,1,0.2,0.25,35.0,1,1.0,0.35740000000032524
474,1,0.2,0.0,35.0,1,1.0,0.16380000000026484
475,1,0.2,0.0,35.0,1,1.0,0.3442000000000007
476,1,0.2,0.0625,-35.0,-1,1.0,0.6208000000001448
477,1,0.2,1.0,35.0,1,1.0,0.3148000000001048
478,1,0.2,0.0,35.0,1,1.0,0.38120000000026266
479,1,0.2,0.0,35.0,1,1.0,0.3886000000002241
480,1,0.2,0.25,35.0,1,1.0,0.5087000000003172
481,1,0.2,1.0,35.0,1,1.0,0.36570000000028813
482,1,0.2,1.0,35.0,1,1.0,0.3186000000000604
483,1,0.2,1.0,35.0,1,1.0,0.4126000000001113
484,1,0.2,0.125,35.0,1,1.0,0.4491000000002714
485,1,0.2,0.125,35.0,1,1.0,0.2430000000003929
486,1,0.2,1.0,35.0,1,1.0,0.21610000000009677
487,1,0.2,0.125,35.0,1,1.0,0.3466000000003078
488,1,0.2,0.0625,35.0,1,1.0,0.19949999999971624
489,1,0.2,0.0625,35.0,1,1.0,1.2067999999999302
490,1,0.2,1.0,35.0,1,1.0,0.5002000000004045
491,1,0.2,0.0625,35.0,1,1.0,0.34080000000039945
492,1,0.2,0.0,35.0,1,1.0,0.28700000000026193
493,1,0.2,1.0,35.0,1,1.0,0.6976000000004206
494,1,0.2,0.25,-35.0,1,0.0,0.21400000000039654
495,1,0.2,0.0625,-35.0,1,0.0,0.13810000000012224
496,1,0.2,0.0,-35.0,1,0.0,0.6444000000005872
497,1,0.2,0.25,35.0,1,1.0,0.24839999999994689
498,1,0.2,0.0,-35.0,1,0.0,0.3813999999997577
499,1,0.2,1.0,35.0,1,1.0,0.39190000000007785
500,1,0.2,0.0,35.0,1,1.0,0.31179999999994834
501,1,0.2,0.0,35.0,1,1.0,0.7355000000002292
502,1,0.2,1.0,35.0,1,1.0,0.37210000000004584
503,1,0.2,0.0625,35.0,1,1.0,0.38610000000016953
504,1,0.2,0.25,35.0,1,1.0,0.3627000000001317
505,1,0.2,0.0625,35.0,1,1.0,0.33650000000034197
506,1,0.2,0.0625,35.0,1,1.0,0.7626999999997679
507,1,0.2,0.0,-35.0,1,0.0,0.4335000000000946
508,1,0.2,1.0,35.0,-1,0.0,0.29349999999976717
509,1,0.2,0.125,35.0,-1,0.0,0.4141999999997097
510,1,0.2,0.0,35.0,-1,0.0,0.5071000000002641
511,1,0.2,0.0,-35.0,-1,1.0,0.7046000000000276
512,1,0.2,0.0625,35.0,1,1.0,0.5144000000000233
513,1,0.2,0.25,35.0,1,1.0,0.37510000000020227
514,1,0.2,0.0625,35.0,1,1.0,0.2780000000002474
515,1,0.2,0.125,35.0,1,1.0,0.345299999999952
516,1,0.2,0.125,35.0,1,1.0,0.3882000000003245
517,1,0.2,0.0,35.0,1,1.0,0.4623000000005959
518,1,0.2,0.125,35.0,1,1.0,0.442000000000462
519,1,0.2,0.0,-35.0,1,0.0,0.542699999999968
520,1,0.2,1.0,-35.0,1,0.0,0.11920000000009168
521,1,0.2,0.25,35.0,1,1.0,0.35290000000031796
522,1,0.2,0.25,-35.0,-1,1.0,0.4592999999999847
523,1,0.2,0.0625,35.0,1,1.0,1.2631000000001222
524,1,0.2,1.0,35.0,1,1.0,0.3196000000002641
525,1,0.2,0.0,-35.0,1,0.0,0.3170000000000073
526,1,0.2,0.25,35.0,1,1.0,0.3333000000006905
527,1,0.8,0.0,-35.0,1,0.0,0.3106999999999971
528,1,0.8,1.0,-35.0,-1,1.0,0.2669989999999416
529,1,0.8,0.25,-35.0,-1,1.0,0.2778000000002976
530,1,0.8,0.0625,-35.0,1,0.0,0.2470999999995911
531,1,0.8,0.0,35.0,1,1.0,0.47090000000071086
532,1,0.8,0.0625,35.0,1,1.0,0.4740999999999076
533,1,0.8,0.0,-35.0,1,0.0,0.1283000000003085
534,1,0.8,1.0,-35.0,-1,1.0,0.28800000000046566
535,1,0.8,1.0,-35.0,-1,1.0,0.25489999999990687
536,1,0.8,0.0,-35.0,-1,1.0,2.3416000000006534
537,1,0.8,0.0625,-35.0,1,0.0,0.38209999999980937
538,1,0.8,0.0,-35.0,1,0.0,3.1887000000006083
539,1,0.8,0.0,-35.0,1,0.0,0.4394000000002052
540,1,0.8,0.0,-35.0,1,0.0,0.3423999999999978
541,1,0.8,1.0,-35.0,-1,1.0,0.2696000000000822
542,1,0.8,0.25,-35.0,-1,1.0,0.31260000000020227
543,1,0.8,1.0,-35.0,-1,1.0,0.2464999999997417
544,1,0.8,0.25,35.0,1,1.0,0.3095000000002983
545,1,0.8,0.25,35.0,1,1.0,0.2802000000001499
546,1,0.8,0.0625,-35.0,1,0.0,0.32670000000052823
547,1,0.8,0.125,-35.0,-1,1.0,0.3305000000000291
548,1,0.8,0.0625,-35.0,-1,1.0,1.2737000000006446
549,1,0.8,0.0625,-35.0,-1,1.0,0.6774999999997817
550,1,0.8,0.0,-35.0,1,0.0,0.470400000000609
551,1,0.8,0.125,-35.0,-1,1.0,0.5312000000003536
552,1,0.8,0.125,-35.0,-1,1.0,0.3575000000005275
553,1,0.8,0.0625,-35.0,1,0.0,0.371599999999944
554,1,0.8,0.0,-35.0,1,0.0,3.354700000000321
555,1,0.8,0.25,-35.0,-1,1.0,0.2754000000004453
556,1,0.8,1.0,-35.0,-1,1.0,0.24860000000035143
557,1,0.8,1.0,-35.0,-1,1.0,0.322400000000016
558,1,0.8,0.25,35.0,1,1.0,0.2721999999998843
559,1,0.8,0.0,-35.0,1,0.0,0.4193000000000211
560,1,0.8,1.0,-35.0,-1,1.0,0.5325000000007094
561,1,0.8,0.0625,-35.0,-1,1.0,1.5130000000003747
562,1,0.8,0.0625,-35.0,-1,1.0,0.5227000000004409
563,1,0.8,0.0,-35.0,1,0.0,0.2935000000002219
564,1,0.8,0.125,-35.0,-1,1.0,0.2632000000003245
565,1,0.8,0.0625,35.0,1,1.0,0.25030000000015207
566,1,0.8,0.125,35.0,1,1.0,0.5669000000002598
567,1,0.8,0.0625,35.0,1,1.0,0.23070000000006985
568,1,0.8,1.0,-35.0,-1,1.0,0.24700000000029831
569,1,0.8,0.125,-35.0,-1,1.0,0.2776000000003478
570,1,0.8,0.0625,-35.0,-1,1.0,0.5109000000002197
571,1,0.8,1.0,-35.0,-1,1.0,0.23140000000057626
572,1,0.8,1.0,35.0,1,1.0,0.35760000000027503
573,1,0.8,0.0625,-35.0,-1,1.0,0.7449000000001433
574,1,0.8,1.0,-35.0,-1,1.0,0.19810000000006767
575,1,0.8,0.25,-35.0,-1,1.0,0.3251000000000204
576,1,0.8,0.25,-35.0,-1,1.0,1.0947999999998501
577,1,0.8,0.0625,-35.0,-1,1.0,0.2353000000002794
578,1,0.8,1.0,-35.0,-1,1.0,0.48830000000043583
579,1,0.8,1.0,-35.0,-1,1.0,0.2856000000001586
580,1,0.8,1.0,-35.0,-1,1.0,0.2820000000001528
581,1,0.8,0.125,-35.0,-1,1.0,0.2895000000003165
582,1,0.8,1.0,-35.0,-1,1.0,0.22560000000021319
583,1,0.8,0.0625,35.0,1,1.0,0.4362000000005537
584,1,0.8,0.0625,35.0,1,1.0,0.5961999999999534
585,1,0.8,0.25,-35.0,-1,1.0,0.38000000000010914
586,1,0.8,0.0625,-35.0,1,0.0,0.24630000000024665
587,1,0.8,0.0625,-35.0,-1,1.0,0.34360000000015134
588,1,0.8,0.25,-35.0,-1,1.0,0.3101999999998952
589,1,0.8,1.0,-35.0,-1,1.0,0.47040000000015425
590,1,0.8,0.125,-35.0,-1,1.0,0.9903000000003885
591,1,0.8,0.25,-35.0,-1,1.0,0.30070000000023356
592,1,0.8,0.125,-35.0,-1,1.0,0.34400000000005093
593,1,0.8,0.0625,35.0,1,1.0,0.6476990000001024
594,1,0.8,0.25,-35.0,-1,1.0,0.4540999999999258
595,1,0.8,0.0625,-35.0,-1,1.0,0.3848000000002685
596,1,0.8,0.0,-35.0,1,0.0,0.2479990000001635
597,1,0.8,1.0,-35.0,-1,1.0,0.24880000000030122
598,1,0.8,0.0625,35.0,1,1.0,0.17180000000007567
599,1,0.8,0.0,-35.0,1,0.0,0.25549999999975626
600,1,0.8,1.0,-35.0,-1,1.0,0.22539999999980864
601,1,0.8,0.125,-35.0,-1,1.0,0.21260000000029322
602,1,0.8,1.0,35.0,1,1.0,0.408900000000358
603,1,0.8,0.0625,-35.0,1,0.0,0.2294000000001688
604,1,0.8,1.0,-35.0,1,0.0,0.1528000000002976
605,1,0.8,0.25,35.0,1,1.0,0.3699000000005981
606,1,0.8,0.25,35.0,1,1.0,0.2998000000002321
607,1,0.8,0.125,-35.0,-1,1.0,0.5402000000003682
608,1,0.8,0.0,35.0,1,1.0,0.34320000000025175
609,1,0.8,1.0,35.0,1,1.0,0.3937999999998283
610,1,0.8,0.25,35.0,1,1.0,0.3470999999999549
611,1,0.2,0.125,35.0,1,1.0,0.10739999999987049
612,1,0.2,0.25,-35.0,-1,1.0,0.31710000000020955
613,1,0.2,0.0625,35.0,1,1.0,0.15450000000009823
614,1,0.2,0.0625,35.0,1,1.0,0.2007000000003245
615,1,0.2,0.0625,35.0,1,1.0,1.1280000000006112
616,1,0.2,1.0,35.0,1,1.0,0.3110999999998967
617,1,0.2,0.0625,35.0,1,1.0,0.4816000000000713
618,1,0.2,1.0,35.0,1,1.0,0.3317000000001826
619,1,0.2,0.0625,35.0,1,1.0,0.11860000000069704
620,1,0.2,0.125,35.0,1,1.0,0.4084000000002561
621,1,0.2,0.0625,35.0,1,1.0,0.2523000000001048
622,1,0.2,0.125,35.0,1,1.0,0.3055000000003929
623,1,0.2,0.125,35.0,1,1.0,1.1394000000000233
624,1,0.2,1.0,35.0,1,1.0,0.5261000000000422
625,1,0.2,1.0,-35.0,-1,1.0,0.4264000000002852
626,1,0.2,0.125,35.0,1,1.0,0.6327000000001135
627,1,0.2,0.125,35.0,1,1.0,0.39360000000033324
628,1,0.2,0.25,35.0,1,1.0,0.5664999999999054
629,1,0.2,0.125,-35.0,-1,1.0,0.6572000000001026
630,1,0.2,1.0,35.0,1,1.0,0.37370000000009895
631,1,0.2,0.0625,-35.0,1,0.0,0.11740000000008877
632,1,0.8,0.125,-35.0,-1,1.0,0.29710000000022774
633,1,0.8,0.125,-35.0,-1,1.0,0.2977000000005319
634,1,0.8,0.0,-35.0,1,0.0,0.4708000000005086
635,1,0.8,0.25,-35.0,-1,1.0,0.298200000000179
636,1,0.8,1.0,-35.0,-1,1.0,0.2246000000004642
637,1,0.8,0.0625,-35.0,-1,1.0,0.30820000000039727
638,1,0.8,0.25,35.0,1,1.0,0.5281000000004497
639,1,0.8,0.0625,-35.0,1,0.0,0.4619999999999891
640,1,0.8,0.0,-35.0,1,0.0,1.201799999999821
641,1,0.8,1.0,-35.0,-1,1.0,0.2824000000000524
642,1,0.8,0.25,-35.0,-1,1.0,0.30209999999988213
643,1,0.8,0.0625,-35.0,-1,1.0,0.13940000000047803
644,1,0.8,0.0625,-35.0,-1,1.0,0.239100000000235
645,1,0.8,0.125,-35.0,-1,1.0,0.5030000000001564
646,1,0.8,0.25,-35.0,-1,1.0,0.17610000000013315
647,1,0.8,1.0,-35.0,-1,1.0,0.3067000000000917
648,1,0.8,0.125,-35.0,-1,1.0,0.29650000000037835
649,1,0.8,0.0,35.0,-1,0.0,7.946900000000369
650,1,0.8,0.25,-35.0,-1,1.0,0.25050000000010186
651,1,0.8,0.0625,-35.0,-1,1.0,0.3207999999999629
652,1,0.8,0.0,35.0,-1,0.0,2.1908000000003085
653,1,0.8,1.0,-35.0,-1,1.0,0.2312000000001717
654,1,0.8,0.25,-35.0,-1,1.0,0.2476000000001477
655,1,0.8,0.0625,-35.0,-1,1.0,0.4016999999998916
656,1,0.8,0.125,-35.0,-1,1.0,0.29140000000006694
657,1,0.8,0.125,-35.0,1,0.0,0.2953000000002248
658,1,0.8,1.0,35.0,1,1.0,0.5583000000005995
659,1,0.8,0.0625,-35.0,-1,1.0,0.2921999999998661
660,1,0.8,0.0625,-35.0,-1,1.0,0.5486000000000786
661,1,0.8,0.125,-35.0,-1,1.0,0.8158000000003085
662,1,0.8,0.0625,-35.0,1,0.0,0.5524000000000342
663,1,0.8,0.0625,-35.0,-1,1.0,0.5629000000003543
664,1,0.8,1.0,-35.0,-1,1.0,0.25919999999996435
665,1,0.8,1.0,35.0,1,1.0,0.3898000000003776
666,1,0.8,0.0625,-35.0,-1,1.0,0.3463000000001557
667,1,0.8,1.0,-35.0,-1,1.0,0.2369000000003325
668,1,0.8,1.0,-35.0,-1,1.0,0.2232000000003609
669,1,0.8,1.0,35.0,1,1.0,0.8172000000004118
670,1,0.8,0.125,-35.0,-1,1.0,0.35690000000022337
671,1,0.8,0.25,-35.0,-1,1.0,0.5075000000001637
672,1,0.8,0.0625,-35.0,-1,1.0,0.2004000000006272
673,1,0.8,0.0625,-35.0,1,0.0,0.32110000000011496
674,1,0.8,0.0625,35.0,-1,0.0,1.2874000000001615
675,1,0.8,0.25,-35.0,-1,1.0,0.5416000000000167
676,1,0.8,0.25,-35.0,-1,1.0,0.28130000000010114
677,1,0.8,1.0,-35.0,-1,1.0,0.2554000000004635
678,1,0.8,0.0625,-35.0,1,0.0,4.8916000000003805
679,1,0.8,0.0625,-35.0,-1,1.0,0.43260000000009313
680,1,0.8,0.0,35.0,1,1.0,2.1689000000001215
681,1,0.8,0.25,-35.0,-1,1.0,0.2695000000003347
682,1,0.8,1.0,-35.0,-1,1.0,0.25260000000025684
683,1,0.8,0.125,35.0,1,1.0,0.3898000000003776
684,1,0.8,1.0,-35.0,-1,1.0,0.2596000000003187
685,1,0.8,0.125,-35.0,-1,1.0,0.28670000000010987
686,1,0.8,1.0,-35.0,-1,1.0,0.27320000000008804
687,1,0.8,1.0,-35.0,-1,1.0,0.3338000000003376
688,1,0.8,0.0625,-35.0,1,0.0,0.4634000000000924
689,1,0.8,0.25,-35.0,-1,1.0,0.25070000000005166
690,1,0.8,1.0,-35.0,-1,1.0,0.26040000000011787
691,1,0.8,0.0625,-35.0,-1,1.0,1.657600000000457
692,1,0.8,0.25,35.0,1,1.0,0.43739999999979773
693,1,0.8,0.0,-35.0,1,0.0,0.40830000000005384
694,1,0.8,1.0,-35.0,-1,1.0,0.3075999999996384
695,1,0.8,0.125,35.0,-1,0.0,0.3382000000001426
696,1,0.8,1.0,-35.0,-1,1.0,0.2647999999999229
697,1,0.8,0.125,-35.0,-1,1.0,0.44520000000056825
698,1,0.8,0.25,-35.0,-1,1.0,0.2582999999999629
699,1,0.2,0.0625,-35.0,-1,1.0,0.3821000000002641
700,1,0.2,0.125,35.0,1,1.0,0.5318999999999505
701,1,0.2,0.125,-35.0,-1,1.0,0.6891000000000531
702,1,0.2,0.25,35.0,1,1.0,0.41220000000021173
703,1,0.2,0.125,35.0,1,1.0,0.32280000000037035
704,1,0.2,0.0625,-35.0,-1,1.0,0.5325000000002547
705,1,0.2,0.0625,35.0,1,1.0,0.3564000000001215
706,1,0.2,0.0625,35.0,1,1.0,0.3461000000002059
707,1,0.2,0.125,35.0,1,1.0,0.3832999999999629
708,1,0.2,1.0,35.0,1,1.0,0.14970000000039363
709,1,0.2,0.25,35.0,1,1.0,0.36649999999963256
710,1,0.2,0.125,35.0,1,1.0,0.3170000000000073
711,1,0.2,0.0625,35.0,1,1.0,0.3236000000006243
712,1,0.2,1.0,35.0,1,1.0,0.27420000000029177
713,1,0.2,0.125,35.0,1,1.0,0.1704000000004271
714,1,0.2,0.0,35.0,1,1.0,4.477800000000116
715,1,0.2,1.0,35.0,1,1.0,0.3077000000002954
716,1,0.2,0.125,35.0,1,1.0,0.22820000000047003
717,1,0.2,1.0,35.0,1,1.0,0.25129999999990105
718,1,0.2,1.0,35.0,1,1.0,0.4351000000001477
719,1,0.2,0.125,35.0,1,1.0,0.18840000000000146
720,1,0.2,1.0,35.0,1,1.0,0.33870000000024447
721,1,0.2,0.25,-35.0,-1,1.0,0.3817000000003645
722,1,0.2,1.0,35.0,1,1.0,0.5291000000001986
723,1,0.2,0.0625,35.0,1,1.0,0.36879999999973734
724,1,0.2,0.125,-35.0,-1,1.0,0.3095000000002983
725,1,0.2,1.0,35.0,1,1.0,0.3824000000004162
726,1,0.2,1.0,35.0,1,1.0,0.40639999999984866
727,1,0.2,1.0,35.0,1,1.0,0.3627000000001317
728,1,0.2,0.0625,35.0,1,1.0,0.33660000000054424
729,1,0.2,1.0,-35.0,-1,1.0,0.31630000000041036
730,1,0.2,0.125,35.0,-1,0.0,4.277100000000246
731,1,0.2,0.0,35.0,1,1.0,0.45370000000048094
732,1,0.2,1.0,35.0,1,1.0,0.5443000000000211
733,1,0.2,0.25,-35.0,-1,1.0,0.3006999999997788
734,1,0.2,1.0,-35.0,-1,1.0,0.26099999999996726
735,1,0.2,0.0625,-35.0,-1,1.0,0.35090000000036525
736,1,0.2,0.0625,-35.0,1,0.0,0.4881000000000313
737,1,0.2,0.0,35.0,1,1.0,1.4579000000003361
738,1,0.2,0.125,35.0,-1,0.0,3.341899999999896
739,1,0.2,1.0,35.0,-1,0.0,0.38160000000016225
740,1,0.2,0.25,35.0,1,1.0,2.125600000000304
741,1,0.2,1.0,35.0,1,1.0,0.5286999999998443
742,1,0.2,0.0625,35.0,1,1.0,17.292699999999968
743,1,0.2,0.25,35.0,1,1.0,0.3829000000000633
744,1,0.2,0.0,35.0,1,1.0,0.3469000000000051
745,1,0.2,1.0,35.0,1,1.0,0.3500000000003638
746,1,0.2,0.25,-35.0,-1,1.0,0.45040000000017244
747,1,0.2,0.25,-35.0,-1,1.0,0.3036000000001877
748,1,0.2,0.25,35.0,1,1.0,0.40079999999989013
749,1,0.2,0.0,35.0,1,1.0,6.04050000000052
750,1,0.2,0.25,35.0,-1,0.0,1.9913000000001375
751,1,0.2,1.0,35.0,1,1.0,0.38770000000022264
752,1,0.2,0.0,35.0,1,1.0,2.1615999999999076
753,1,0.8,0.125,-35.0,-1,1.0,0.29830000000038126
754,1,0.8,0.125,-35.0,-1,1.0,0.44529999999986103
755,1,0.8,0.25,-35.0,-1,1.0,0.34520000000020445
756,1,0.8,0.0625,35.0,1,1.0,6.84230000000025
757,1,0.8,1.0,-35.0,-1,1.0,0.2889000000004671
758,1,0.8,0.0625,-35.0,1,0.0,0.7728000000001884
759,1,0.8,0.0,-35.0,1,0.0,0.5959000000002561
760,1,0.8,0.0625,-35.0,-1,1.0,0.3665000000000873
761,1,0.8,0.125,-35.0,-1,1.0,0.26310000000012224
762,1,0.8,0.0,-35.0,1,0.0,3.3301000000001295
763,1,0.8,0.125,-35.0,1,0.0,3.1635000000001128
764,1,0.8,0.0625,-35.0,1,0.0,9.994199000000208
765,1,0.8,0.125,-35.0,-1,1.0,0.41440000000011423
766,1,0.8,0.125,-35.0,-1,1.0,0.3249999999998181
767,1,0.8,0.0,-35.0,1,0.0,7.141500000000178
768,1,0.8,0.0,-35.0,1,0.0,9.51220000000012
769,1,0.8,0.0,-35.0,1,0.0,2.8623999999999796
770,1,0.8,0.0,-35.0,1,0.0,0.8229999999998654
771,1,0.8,0.0625,-35.0,1,0.0,6.089500000000044
772,1,0.8,0.0,-35.0,1,0.0,15.547000000000025
773,1,0.8,0.0625,-35.0,-1,1.0,10.334000000000287
774,1,0.8,0.25,-35.0,-1,1.0,0.3283000000001266
775,1,0.8,0.125,35.0,1,1.0,4.438000000000102
776,1,0.8,1.0,-35.0,-1,1.0,0.22870000000011714
777,1,0.8,0.0625,-35.0,1,0.0,6.721799999999803
778,1,0.8,0.0,35.0,-1,0.0,11.996000000000095
779,1,0.8,0.0,35.0,-1,0.0,6.409500000000662
780,1,0.8,0.25,-35.0,-1,1.0,9.960399999999936
781,1,0.8,0.125,-35.0,-1,1.0,2.790400000000318
782,1,0.8,0.25,-35.0,-1,1.0,0.2910000000006221
783,1,0.8,0.0,35.0,-1,0.0,0.5908000000003995
784,1,0.8,0.125,-35.0,-1,1.0,8.841499999999996
785,1,0.8,0.125,-35.0,-1,1.0,0.2681999999999789
786,1,0.8,0.125,-35.0,-1,1.0,0.27860000000009677
787,1,0.8,0.25,-35.0,-1,1.0,0.23829999999998108
788,1,0.8,1.0,-35.0,-1,1.0,0.23890000000028522
789,1,0.8,0.25,-35.0,-1,1.0,0.431999999999789
790,1,0.8,0.125,-35.0,-1,1.0,7.905899999999747
791,1,0.8,0.125,-35.0,-1,1.0,0.4194999999999709
792,1,0.8,0.0,35.0,1,1.0,19.95310000000063
793,1,0.8,0.0,-35.0,-1,1.0,1.0969000000004598
794,1,0.8,1.0,35.0,-1,0.0,0.4010000000002947
795,1,0.8,0.25,35.0,1,1.0,14.290799999999763
1,2,0.5,0.25,-35.0,-1,1.0,0.3046999999999995
2,2,0.5,1.0,35.0,1,1.0,0.44290000000000074
3,2,0.5,0.0,-35.0,1,0.0,0.3586999999999998
4,2,0.5,0.0625,-35.0,1,0.0,0.5030999999999981
5,2,0.5,1.0,35.0,1,1.0,0.348900000000004
6,2,0.5,0.125,35.0,1,1.0,0.5005000000000024
7,2,0.5,1.0,-35.0,-1,1.0,0.561200000000003
8,2,0.5,0.0,-35.0,1,0.0,0.37010000000000076
9,2,0.5,0.25,35.0,1,1.0,0.42120000000000246
10,2,0.5,0.0625,-35.0,-1,1.0,0.34880000000000067
11,2,0.5,0.0625,-35.0,1,0.0,2.6006
12,2,0.5,0.25,-35.0,-1,1.0,0.31809999999999405
13,2,0.5,0.25,35.0,1,1.0,0.3989999999999938
14,2,0.5,0.25,-35.0,-1,1.0,0.39980000000000615
15,2,0.5,0.0625,-35.0,1,0.0,0.435299999999998
16,2,0.5,0.125,-35.0,-1,1.0,0.5851999999999933
17,2,0.5,0.25,35.0,1,1.0,0.32279999999999376
18,2,0.5,0.0,35.0,1,1.0,0.4619999999999962
19,2,0.5,0.25,-35.0,-1,1.0,0.463799999999992
20,2,0.5,0.0625,35.0,1,1.0,0.3382999999999896
21,2,0.5,0.25,-35.0,-1,1.0,0.2868999999999886
22,2,0.5,1.0,-35.0,-1,1.0,0.3182000000000045
23,2,0.5,0.0625,35.0,1,1.0,0.1407000000000096
24,2,0.5,0.25,-35.0,-1,1.0,0.27899999999999636
25,2,0.5,0.25,35.0,1,1.0,0.38999999999998636
26,2,0.5,0.125,-35.0,-1,1.0,0.5375999999999976
27,2,0.5,0.0,-35.0,1,0.0,1.7179000000000002
28,2,0.5,1.0,-35.0,-1,1.0,0.5866000000000042
29,2,0.5,0.0625,-35.0,-1,1.0,0.5990999999999929
30,2,0.5,0.25,35.0,1,1.0,0.5645999999999987
31,2,0.5,1.0,35.0,1,1.0,0.3474999999999966
32,2,0.5,0.0625,35.0,1,1.0,0.3111999999999995
33,2,0.5,1.0,35.0,1,1.0,0.2822000000000031
34,2,0.5,1.0,35.0,1,1.0,2.056299999999993
35,2,0.5,0.125,35.0,1,1.0,0.3161000000000058
36,2,0.5,0.25,35.0,1,1.0,0.28659999999999286
37,2,0.5,0.25,-35.0,1,0.0,0.41209999999999525
38,2,0.5,0.0625,-35.0,1,0.0,0.13040000000003715
39,2,0.5,1.0,-35.0,-1,1.0,0.22910000000004516
40,2,0.5,0.0,-35.0,1,0.0,2.562300000000022
41,2,0.5,0.0625,35.0,1,1.0,0.7771000000000186
42,2,0.5,0.25,35.0,1,1.0,0.3306000000000324
43,2,0.5,0.125,35.0,1,1.0,1.6369000000000256
44,2,0.5,1.0,35.0,1,1.0,0.2679000000000258
45,2,0.5,0.125,-35.0,-1,1.0,1.391600000000011
46,2,0.5,1.0,35.0,-1,0.0,0.3370000000000175
47,2,0.5,0.0,35.0,-1,0.0,0.5869000000000142
48,2,0.5,0.25,-35.0,-1,1.0,0.27360000000001605
49,2,0.5,1.0,35.0,1,1.0,0.3818000000000268
50,2,0.5,1.0,-35.0,-1,1.0,0.3710000000000093
51,2,0.5,0.25,-35.0,-1,1.0,0.9953000000000145
52,2,0.5,0.125,-35.0,1,0.0,0.46750000000000114
53,2,0.5,0.125,35.0,1,1.0,0.36980000000002633
54,2,0.5,0.125,35.0,1,1.0,1.475100000000026
55,2,0.5,0.0625,-35.0,-1,1.0,0.5623999999999967
56,2,0.5,1.0,-35.0,-1,1.0,0.2539000000000158
57,2,0.5,0.0625,35.0,1,1.0,1.1591000000000236
58,2,0.5,1.0,35.0,1,1.0,0.2980000000000018
59,2,0.5,0.0,-35.0,1,0.0,4.015700000000038
60,2,0.5,0.25,35.0,1,1.0,0.315400000000011
61,2,0.5,0.125,35.0,1,1.0,0.14220000000000255
62,2,0.5,1.0,-35.0,-1,1.0,0.2796000000000163
63,2,0.5,1.0,-35.0,-1,1.0,0.5501000000000147
64,2,0.5,0.25,-35.0,-1,1.0,2.060800000000029
65,2,0.5,0.125,35.0,1,1.0,0.3837000000000046
66,2,0.5,0.0625,35.0,-1,0.0,0.4655999999999949
67,2,0.5,0.125,-35.0,1,0.0,0.30410000000000537
68,2,0.5,0.0625,-35.0,-1,1.0,0.5873000000000275
69,2,0.5,0.125,-35.0,-1,1.0,0.2790999999999997
70,2,0.5,1.0,35.0,1,1.0,2.166300000000035
71,2,0.5,1.0,-35.0,-1,1.0,0.22620000000000573
72,2,0.5,0.125,35.0,1,1.0,0.390199999999993
73,2,0.5,0.0625,35.0,1,1.0,0.2710999999999899
74,2,0.5,0.25,-35.0,-1,1.0,1.7076000000000136
75,2,0.5,0.0,-35.0,1,0.0,0.32920000000001437
76,2,0.5,0.0,-35.0,1,0.0,0.3202999999999747
77,2,0.5,0.0,-35.0,1,0.0,0.308400000000006
78,2,0.5,0.0,35.0,-1,0.0,0.31049999999999045
79,2,0.5,1.0,-35.0,-1,1.0,0.392599999999959
80,2,0.5,0.0625,35.0,1,1.0,2.658999999999935
81,2,0.5,0.0,-35.0,1,0.0,0.5045000000000073
82,2,0.5,0.0625,-35.0,1,0.0,0.47519999999997253
83,2,0.5,0.0625,-35.0,1,0.0,0.29309999999998126
84,2,0.5,0.0625,35.0,-1,0.0,6.168900000000008
85,2,0.5,1.0,-35.0,-1,1.0,0.33299999999997
86,2,0.5,0.125,-35.0,-1,1.0,0.5339000000000169
87,2,0.5,1.0,35.0,1,1.0,1.70089999999999
88,2,0.5,0.25,35.0,1,1.0,0.6662999999999784
89,2,0.5,1.0,35.0,1,1.0,0.49399999999997135
90,2,0.5,0.25,-35.0,-1,1.0,0.2656000000000063
91,2,0.8,0.0,-35.0,1,0.0,0.35619999999994434
92,2,0.8,1.0,35.0,1,1.0,0.39189999999996417
93,2,0.8,0.0,-35.0,1,0.0,0.32560000000000855
94,2,0.8,0.125,35.0,1,1.0,0.40929999999997335
95,2,0.8,1.0,-35.0,-1,1.0,0.45539999999999736
96,2,0.8,0.25,-35.0,-1,1.0,0.5147000000000048
97,2,0.8,0.0625,35.0,1,1.0,1.3693999999999846
98,2,0.8,0.0625,-35.0,-1,1.0,0.776299999999992
99,2,0.8,1.0,35.0,1,1.0,1.3502999999999474
100,2,0.8,0.25,35.0,1,1.0,0.433900000000051
101,2,0.8,0.25,-35.0,-1,1.0,0.5842999999999847
102,2,0.8,0.0625,-35.0,1,0.0,0.45849999999995816
103,2,0.8,0.0625,35.0,1,1.0,0.3721999999999639
104,2,0.8,0.25,-35.0,1,0.0,0.47989999999998645
105,2,0.8,0.125,-35.0,-1,1.0,0.4796000000000049
106,2,0.8,1.0,35.0,1,1.0,0.29169999999999163
107,2,0.8,0.0625,35.0,1,1.0,0.9037000000000148
108,2,0.8,0.0,35.0,1,1.0,0.34550000000001546
109,2,0.8,0.25,-35.0,-1,1.0,0.29249999999996135
110,2,0.8,0.125,35.0,1,1.0,0.29469999999997754
111,2,0.8,1.0,-35.0,-1,1.0,0.3769999999999527
112,2,0.2,0.0,-35.0,1,0.0,0.3272999999999229
113,2,0.2,0.0,35.0,1,1.0,0.33400000000006
114,2,0.2,0.0625,35.0,1,1.0,0.3332999999999515
115,2,0.2,0.125,35.0,1,1.0,0.22249999999996817
116,2,0.2,0.0,-35.0,1,0.0,3.189399999999978
117,2,0.2,0.125,35.0,1,1.0,0.22690000000000055
118,2,0.2,0.25,35.0,1,1.0,0.3132999999999697
119,2,0.2,0.0625,-35.0,-1,1.0,0.35810000000003583
120,2,0.2,0.125,35.0,1,1.0,0.2949999999999591
121,2,0.2,1.0,-35.0,-1,1.0,0.29059999999998354
122,2,0.2,0.125,35.0,1,1.0,1.068900000000042
123,2,0.2,0.25,35.0,1,1.0,0.3464000000000169
124,2,0.2,1.0,35.0,1,1.0,0.780399999999986
125,2,0.2,0.125,35.0,1,1.0,0.30570000000000164
126,2,0.2,1.0,35.0,1,1.0,0.3632000000000062
127,2,0.2,1.0,-35.0,1,0.0,0.11910000000000309
128,2,0.2,0.0,-35.0,-1,1.0,1.9862999999999715
129,2,0.2,0.25,35.0,1,1.0,0.31630000000001246
130,2,0.2,0.0625,35.0,1,1.0,0.36079999999998336
131,2,0.2,0.25,35.0,1,1.0,0.25840000000016516
132,2,0.2,1.0,35.0,1,1.0,0.300200000000018
133,2,0.2,0.25,35.0,1,1.0,0.5821000000000822
134,2,0.2,0.0625,35.0,1,1.0,0.32200000000000273
135,2,0.2,0.25,-35.0,-1,1.0,0.3065000000000282
136,2,0.2,0.25,35.0,1,1.0,0.25130000000001473
137,2,0.2,0.125,35.0,1,1.0,0.4479000000000042
138,2,0.2,0.25,35.0,1,1.0,0.41010000000017044
139,2,0.2,1.0,35.0,1,1.0,1.330000000000041
140,2,0.8,0.0,-35.0,1,0.0,0.23890000000017153
141,2,0.8,0.25,35.0,1,1.0,0.3120999999999867
142,2,0.8,0.0625,35.0,1,1.0,0.3284000000001015
143,2,0.8,0.125,-35.0,-1,1.0,0.551499999999919
144,2,0.8,1.0,-35.0,-1,1.0,0.4115000000000464
145,2,0.8,1.0,-35.0,-1,1.0,0.3389000000000806
146,2,0.8,0.0,35.0,1,1.0,0.3128000000000384
147,2,0.8,0.0,-35.0,1,0.0,0.45889999999997144
148,2,0.8,0.125,-35.0,-1,1.0,0.27740000000005693
149,2,0.8,0.0,-35.0,1,0.0,0.1532999999999447
150,2,0.8,0.0,-35.0,-1,1.0,0.2557000000000471
151,2,0.8,0.0,35.0,1,1.0,3.479000000000042
152,2,0.8,0.25,-35.0,-1,1.0,0.4712000000001808
153,2,0.8,0.0,-35.0,1,0.0,0.35019999999997253
154,2,0.8,1.0,-35.0,-1,1.0,0.21500000000014552
155,2,0.8,0.0625,-35.0,-1,1.0,0.30570000000000164
156,2,0.8,0.125,-35.0,-1,1.0,0.32590000000004693
157,2,0.8,0.125,-35.0,-1,1.0,0.48840000000006967
158,2,0.8,0.0,-35.0,1,0.0,3.01400000000001
159,2,0.8,0.125,-35.0,-1,1.0,0.2676999999999907
160,2,0.8,0.25,-35.0,-1,1.0,0.29690000000005057
161,2,0.8,0.25,-35.0,-1,1.0,0.32770000000004984
162,2,0.8,0.0,-35.0,1,0.0,0.18029999999998836
163,2,0.8,0.125,-35.0,-1,1.0,0.26930000000004384
164,2,0.8,1.0,-35.0,-1,1.0,0.21110000000010132
165,2,0.8,0.0,-35.0,1,0.0,0.3391000000000304
166,2,0.8,0.25,-35.0,-1,1.0,0.3281000000000631
167,2,0.8,0.0,-35.0,1,0.0,0.3748000000000502
168,2,0.8,0.25,35.0,1,1.0,0.3711999999999307
169,2,0.8,1.0,-35.0,-1,1.0,0.40589999999997417
170,2,0.8,0.0625,35.0,1,1.0,0.3853000000000293
171,2,0.8,0.125,-35.0,-1,1.0,0.72300000000007
172,2,0.2,0.25,35.0,1,1.0,0.4150000000000773
173,2,0.2,1.0,35.0,1,1.0,0.25329999999996744
174,2,0.2,1.0,35.0,1,1.0,0.12829999999996744
175,2,0.2,0.25,-35.0,-1,1.0,0.4840000000000373
176,2,0.2,0.125,35.0,1,1.0,0.28139999999996235
177,2,0.2,0.0,35.0,1,1.0,0.37020000000006803
178,2,0.2,1.0,35.0,1,1.0,0.23320000000012442
179,2,0.2,0.25,35.0,1,1.0,0.30169999999998254
180,2,0.2,0.25,35.0,1,1.0,0.3410999999999831
181,2,0.2,0.0,35.0,1,1.0,0.8676000000000386
182,2,0.2,0.125,35.0,1,1.0,0.22100000000011732
183,2,0.2,0.0625,35.0,1,1.0,0.3220000000001164
184,2,0.2,0.0,-35.0,1,0.0,0.34739999999999327
185,2,0.2,0.125,35.0,1,1.0,0.23530000000005202
186,2,0.2,0.0625,-35.0,1,0.0,0.22020000000009077
187,2,0.2,0.0,35.0,1,1.0,0.31330000000002656
188,2,0.2,0.0,-35.0,1,0.0,0.2905000000000655
189,2,0.2,0.0625,35.0,1,1.0,0.30330000000003565
190,2,0.2,0.0,35.0,1,1.0,0.2415000000000873
191,2,0.2,0.125,35.0,1,1.0,0.3086000000000695
192,2,0.2,1.0,35.0,1,1.0,0.2778000000000702
193,2,0.2,1.0,-35.0,-1,1.0,0.3626000000000431
194,2,0.2,0.0625,35.0,1,1.0,0.3239000000000942
195,2,0.2,0.125,35.0,1,1.0,0.19709999999997763
196,2,0.2,0.125,35.0,1,1.0,0.24860000000001037
197,2,0.2,0.0,35.0,1,1.0,0.3249000000000706
198,2,0.2,1.0,35.0,1,1.0,0.2758000000000038
199,2,0.2,0.0625,35.0,1,1.0,0.3038999999999987
200,2,0.2,0.125,35.0,1,1.0,2.340000000000032
201,2,0.2,0.25,-35.0,-1,1.0,0.3147000000000162
202,2,0.2,1.0,35.0,1,1.0,0.713799999999992
203,2,0.2,1.0,35.0,1,1.0,0.41250000000002274
204,2,0.2,0.0625,35.0,1,1.0,2.2241000000000213
205,2,0.2,0.25,35.0,1,1.0,0.3048999999999751
206,2,0.2,0.0625,-35.0,-1,1.0,0.7208000000000538
207,2,0.2,0.25,35.0,1,1.0,0.3444999999999254
208,2,0.2,0.25,35.0,1,1.0,0.3168000000000575
209,2,0.2,0.0,35.0,1,1.0,0.35130000000015116
210,2,0.2,0.0,35.0,1,1.0,0.32560000000000855
211,2,0.2,0.0,35.0,1,1.0,0.38790000000005875
212,2,0.2,0.25,35.0,1,1.0,0.2800000000000864
213,2,0.2,0.0625,-35.0,1,0.0,0.12549999999998818
214,2,0.2,1.0,35.0,1,1.0,0.11659999999994852
215,2,0.2,0.0625,35.0,1,1.0,0.2561000000000604
216,2,0.2,1.0,35.0,1,1.0,0.30709999999999127
217,2,0.2,0.125,-35.0,1,0.0,0.1409000000001015
218,2,0.2,0.0625,-35.0,-1,1.0,0.3305000000000291
219,2,0.2,0.0625,-35.0,1,0.0,2.7736000000001013
220,2,0.2,0.0625,35.0,1,1.0,0.3755999999999631
221,2,0.2,0.0625,35.0,1,1.0,0.3288000000000011
222,2,0.2,0.0,35.0,1,1.0,0.4551999999999907
223,2,0.2,0.0,35.0,1,1.0,0.3149999999999409
224,2,0.2,0.0,35.0,1,1.0,0.19620000000008986
225,2,0.2,0.0,35.0,1,1.0,0.3503000000000611
226,2,0.2,0.125,35.0,1,1.0,0.2961999999999989
227,2,0.2,1.0,35.0,1,1.0,0.3059000000000651
228,2,0.8,0.25,-35.0,-1,1.0,0.32710000000008677
229,2,0.8,0.0,-35.0,1,0.0,0.1549000000001115
230,2,0.8,1.0,-35.0,-1,1.0,0.265700000000038
231,2,0.8,1.0,35.0,1,1.0,0.3184999999999718
232,2,0.8,0.25,35.0,1,1.0,0.3693000000000666
233,2,0.8,0.25,-35.0,-1,1.0,0.4237000000000535
234,2,0.8,1.0,-35.0,-1,1.0,0.2744000000000142
235,2,0.8,1.0,-35.0,-1,1.0,0.4070000000000391
236,2,0.8,0.25,35.0,1,1.0,0.30100000000004457
237,2,0.8,0.0625,-35.0,1,0.0,0.32720000000006166
238,2,0.8,0.0625,35.0,1,1.0,0.6009000000000242
239,2,0.8,0.0,-35.0,1,0.0,0.2819000000000642
240,2,0.8,0.25,35.0,1,1.0,0.286200000000008
241,2,0.8,1.0,-35.0,-1,1.0,0.24510000000009313
242,2,0.8,0.0,-35.0,1,0.0,0.2702000000000453
243,2,0.8,1.0,-35.0,-1,1.0,0.20580000000006748
244,2,0.8,0.0,-35.0,1,0.0,0.20839999999998327
245,2,0.8,0.0625,-35.0,1,0.0,0.3584000000000742
246,2,0.8,0.25,-35.0,1,0.0,0.12120000000004438
247,2,0.8,0.0,-35.0,1,0.0,0.27089999999998327
248,2,0.8,0.25,-35.0,-1,1.0,0.29360000000008313
249,2,0.8,0.125,-35.0,1,0.0,0.19920000000001892
250,2,0.8,0.125,-35.0,-1,1.0,0.38030000000003383
251,2,0.8,0.0,35.0,1,1.0,0.3929000000000542
252,2,0.8,0.25,35.0,1,1.0,0.3166000000001077
253,2,0.8,1.0,-35.0,-1,1.0,0.3563000000000329
254,2,0.8,0.25,-35.0,-1,1.0,0.31370000000003984
255,2,0.8,0.25,-35.0,-1,1.0,0.2599999999999909
256,2,0.8,0.125,35.0,1,1.0,0.3207000000001017
257,2,0.8,0.0,-35.0,1,0.0,0.30369999999993524
258,2,0.8,0.25,-35.0,-1,1.0,0.28759999999988395
259,2,0.8,0.0625,-35.0,-1,1.0,0.3139000000001033
260,2,0.8,0.0,35.0,1,1.0,0.28109999999992397
261,2,0.8,1.0,-35.0,1,0.0,0.14109999999982392
262,2,0.8,0.0625,-35.0,1,0.0,0.31159999999999854
263,2,0.8,0.0625,-35.0,1,0.0,0.32809999999994943
264,2,0.8,0.25,-35.0,-1,1.0,0.2951999999997952
265,2,0.8,1.0,-35.0,-1,1.0,0.334999999999809
266,2,0.8,0.0,-35.0,1,0.0,0.3788999999999305
267,2,0.8,0.25,-35.0,-1,1.0,0.17869999999993524
268,2,0.8,0.125,-35.0,-1,1.0,0.269099999999753
269,2,0.8,0.0625,-35.0,-1,1.0,0.6421000000000276
270,2,0.8,0.125,35.0,1,1.0,0.2694000000001324
271,2,0.8,0.125,-35.0,-1,1.0,0.35570000000006985
272,2,0.8,0.125,-35.0,-1,1.0,0.25289999999995416
273,2,0.2,0.0,-35.0,1,0.0,0.3127999999999247
274,2,0.2,0.0625,35.0,1,1.0,0.2767999999996391
275,2,0.2,0.125,35.0,1,1.0,0.1429000000000542
276,2,0.2,0.0625,35.0,1,1.0,0.4134999999998854
277,2,0.2,1.0,35.0,1,1.0,0.32989999999972497
278,2,0.2,0.25,35.0,1,1.0,0.23720000000002983
279,2,0.2,1.0,35.0,1,1.0,0.28690000000005966
280,2,0.2,1.0,35.0,1,1.0,0.30749999999989086
281,2,0.2,1.0,35.0,1,1.0,0.35379999999986467
282,2,0.2,0.125,35.0,1,1.0,0.30799999999976535
283,2,0.2,1.0,35.0,1,1.0,0.3307999999999538
284,2,0.2,0.0625,35.0,1,1.0,0.3147999999998774
285,2,0.2,0.0625,35.0,1,1.0,0.3011999999998807
286,2,0.2,0.0,35.0,1,1.0,0.3248999999998432
287,2,0.2,0.25,35.0,1,1.0,0.20129999999994652
288,2,0.2,0.25,35.0,1,1.0,0.24859999999989668
289,2,0.2,0.125,35.0,1,1.0,0.3149999999998272
290,2,0.2,0.0625,35.0,1,1.0,0.2822999999998501
291,2,0.2,0.125,35.0,1,1.0,0.3186000000000604
292,2,0.2,0.0,35.0,1,1.0,0.33599999999978536
293,2,0.2,0.125,-35.0,-1,1.0,0.6557999999999993
294,2,0.2,0.125,35.0,-1,0.0,0.25289999999995416
295,2,0.8,0.0625,-35.0,-1,1.0,0.3426999999999225
296,2,0.8,0.125,35.0,1,1.0,0.23319999999989705
297,2,0.8,0.0,-35.0,1,0.0,0.24289999999996326
298,2,0.8,0.25,35.0,1,1.0,0.3068000000000666
299,2,0.8,0.0625,-35.0,-1,1.0,0.4431999999999334
300,2,0.8,0.0,35.0,1,1.0,0.3374999999998636
301,2,0.8,1.0,35.0,-1,0.0,0.36999999999989086
302,2,0.8,1.0,-35.0,-1,1.0,0.2607999999997901
303,2,0.8,0.0,35.0,1,1.0,0.27359999999998763
304,2,0.8,0.0,-35.0,1,0.0,0.09439999999995052
305,2,0.8,0.0,-35.0,1,0.0,0.4141999999997097
306,2,0.8,0.25,-35.0,-1,1.0,0.31809999999973115
307,2,0.8,0.0625,-35.0,1,0.0,0.44790000000011787
308,2,0.8,0.25,-35.0,-1,1.0,0.4517000000000735
309,2,0.8,0.0,-35.0,1,0.0,0.32140000000003965
310,2,0.8,0.0625,-35.0,-1,1.0,0.43859999999995125
311,2,0.8,0.25,-35.0,-1,1.0,0.19499999999993634
312,2,0.8,0.0,-35.0,-1,1.0,0.688799999999901
313,2,0.8,0.0625,-35.0,1,0.0,1.0284999999998945
314,2,0.8,1.0,-35.0,-1,1.0,0.24919999999997344
315,2,0.8,0.25,35.0,1,1.0,0.2723999999998341
316,2,0.8,0.125,-35.0,-1,1.0,0.3027999999999338
317,2,0.8,0.0,-35.0,1,0.0,0.21919999999977335
318,2,0.8,0.125,-35.0,-1,1.0,0.21640000000002146
319,2,0.8,0.25,-35.0,-1,1.0,0.24279999999998836
320,2,0.8,0.25,35.0,1,1.0,0.3267000000000735
321,2,0.8,0.0625,35.0,1,1.0,0.25309999999990396
322,2,0.8,0.0,-35.0,1,0.0,0.2402999999999338
323,2,0.8,1.0,-35.0,-1,1.0,0.2500999999999749
324,2,0.8,1.0,-35.0,-1,1.0,0.25719999999978427
325,2,0.8,0.125,-35.0,-1,1.0,0.6269999999999527
326,2,0.8,0.0,35.0,1,1.0,0.27759999999989304
327,2,0.8,0.125,-35.0,-1,1.0,0.3839989999999034
328,2,0.8,1.0,-35.0,-1,1.0,0.2945999999999458
329,2,0.8,0.0,35.0,-1,0.0,0.3308999999999287
330,2,0.8,0.0,-35.0,1,0.0,0.3214999999997872
331,2,0.8,0.0,-35.0,-1,1.0,0.2946999999999207
332,2,0.8,0.0625,35.0,1,1.0,0.31199999999989814
333,2,0.8,0.25,-35.0,-1,1.0,0.3848000000000411
334,2,0.8,1.0,35.0,1,1.0,0.23539999999979955
335,2,0.8,0.25,-35.0,-1,1.0,0.3651999999999589
336,2,0.8,1.0,35.0,1,1.0,0.3789999999999054
337,2,0.8,0.0,-35.0,1,0.0,0.23529999999982465
338,2,0.8,1.0,-35.0,-1,1.0,0.2660999999998239
339,2,0.8,0.25,35.0,1,1.0,0.3290999999999258
340,2,0.8,0.0625,-35.0,1,0.0,0.21620000000007167
341,2,0.8,0.125,-35.0,-1,1.0,0.30290000000013606
342,2,0.8,0.25,-35.0,-1,1.0,0.2965999999998985
343,2,0.8,0.0,-35.0,1,0.0,0.3327999999999065
344,2,0.8,0.0625,-35.0,-1,1.0,0.35019999999985885
345,2,0.8,0.0625,-35.0,-1,1.0,0.3365000000001146
346,2,0.8,1.0,-35.0,-1,1.0,0.2537999999999556
347,2,0.8,0.0,-35.0,1,0.0,0.2666999999999007
348,2,0.8,0.25,-35.0,-1,1.0,0.34079999999971733
349,2,0.8,0.0625,-35.0,-1,1.0,0.5770999999999731
350,2,0.8,0.25,-35.0,-1,1.0,0.28090000000020154
351,2,0.8,0.0,-35.0,1,0.0,0.3007999999999811
352,2,0.8,0.25,-35.0,-1,1.0,0.2678000000000793
353,2,0.8,0.0,-35.0,-1,1.0,0.13109999999983302
354,2,0.2,0.0625,35.0,-1,0.0,0.14829999999983556
355,2,0.2,0.0,35.0,-1,0.0,4.221399999999903
356,2,0.2,0.25,35.0,1,1.0,0.26539999999999964
357,2,0.2,0.25,35.0,1,1.0,0.3283999999998741
358,2,0.2,1.0,35.0,1,1.0,0.2757000000001426
359,2,0.2,0.0,35.0,1,1.0,0.2619999999999436
360,2,0.2,0.0,35.0,1,1.0,0.23259999999982028
361,2,0.2,1.0,-35.0,-1,1.0,0.3024999999997817
362,2,0.2,1.0,35.0,1,1.0,0.36969999999996617
363,2,0.2,0.0,35.0,1,1.0,0.6826999999998407
364,2,0.2,1.0,35.0,1,1.0,0.11319999999977881
365,2,0.2,0.0625,35.0,1,1.0,0.21620000000007167
366,2,0.2,1.0,35.0,1,1.0,1.826799999999821
367,2,0.2,0.125,35.0,1,1.0,0.20669999999995525
368,2,0.2,0.0,35.0,1,1.0,0.26729999999997744
369,2,0.2,0.0625,35.0,1,1.0,0.28369999999972606
370,2,0.2,0.25,35.0,1,1.0,0.3242000000000189
371,2,0.2,0.125,35.0,1,1.0,0.10739999999987049
372,2,0.2,0.0,-35.0,1,0.0,0.20129999999994652
373,2,0.2,0.25,35.0,1,1.0,0.3109999999996944
374,2,0.2,1.0,35.0,1,1.0,0.33829999999989013
375,2,0.2,1.0,35.0,1,1.0,0.3145999999999276
376,2,0.2,0.125,-35.0,-1,1.0,0.4152999999998883
377,2,0.2,0.125,35.0,1,1.0,0.2885000000001128
378,2,0.2,0.0625,35.0,1,1.0,0.22900000000004184
379,2,0.2,0.0,35.0,1,1.0,0.25540000000000873
380,2,0.2,0.125,-35.0,-1,1.0,0.6158000000000357
381,2,0.2,0.25,35.0,1,1.0,0.27549999999996544
382,2,0.2,1.0,35.0,1,1.0,0.2663999999997486
383,2,0.2,0.0,35.0,1,1.0,0.3325999999999567
384,2,0.2,0.0,35.0,1,1.0,0.25979999999981374
385,2,0.2,0.25,35.0,1,1.0,0.30970000000002074
386,2,0.2,0.0625,35.0,1,1.0,0.2666999999999007
387,2,0.2,0.0625,35.0,-1,0.0,0.1798999999998614
388,2,0.2,0.0,-35.0,1,0.0,0.29389999999989413
389,2,0.2,0.0625,35.0,1,1.0,0.32350000000019463
390,2,0.2,0.125,35.0,1,1.0,0.2606999999998152
391,2,0.2,0.25,35.0,1,1.0,0.7437999999999647
392,2,0.2,0.0625,-35.0,1,0.0,0.14430000000015752
393,2,0.2,0.25,35.0,1,1.0,0.2776000000001204
394,2,0.2,1.0,35.0,1,1.0,0.3011999999998807
395,2,0.2,1.0,35.0,1,1.0,0.2944999999999709
396,2,0.2,0.0625,35.0,1,1.0,0.32169999999996435
397,2,0.2,0.125,-35.0,-1,1.0,0.3145999999999276
398,2,0.2,0.125,-35.0,-1,1.0,0.558699999999817
399,2,0.2,0.0625,-35.0,-1,1.0,0.32809999999994943
400,2,0.2,0.0625,35.0,1,1.0,0.30549999999993815
401,2,0.2,0.0625,35.0,1,1.0,0.30179999999995744
402,2,0.2,0.0,35.0,1,1.0,0.30930000000012114
403,2,0.2,0.25,35.0,1,1.0,0.32209999999986394
404,2,0.2,0.0,35.0,1,1.0,0.29609999999979664
405,2,0.2,0.125,35.0,1,1.0,0.2890999999997348
406,2,0.2,0.25,35.0,1,1.0,0.26289999999994507
407,2,0.2,0.0625,-35.0,-1,1.0,0.28949999999986176
408,2,0.2,0.0625,35.0,1,1.0,0.33349999999995816
409,2,0.2,1.0,35.0,1,1.0,0.14329999999972642
410,2,0.2,0.0,35.0,1,1.0,0.28369999999972606
411,2,0.2,0.25,35.0,1,1.0,0.20359999999982392
412,2,0.2,1.0,35.0,1,1.0,0.3406999999999698
413,2,0.2,1.0,35.0,1,1.0,0.32369999999991705
414,2,0.2,0.125,-35.0,-1,1.0,0.7277999999998883
415,2,0.2,1.0,35.0,1,1.0,0.24430000000006658
416,2,0.2,0.0625,35.0,1,1.0,0.1714999999999236
417,2,0.2,1.0,35.0,1,1.0,0.48119999999994434
418,2,0.2,0.25,35.0,1,1.0,0.251700000000028
419,2,0.2,1.0,35.0,1,1.0,0.17809999999985848
420,2,0.2,0.0,35.0,1,1.0,0.25549999999998363
421,2,0.2,0.25,35.0,-1,0.0,0.19529999999986103
422,2,0.2,1.0,35.0,1,1.0,0.565900000000056
423,2,0.2,0.25,35.0,1,1.0,0.32219999999983884
424,2,0.2,1.0,35.0,1,1.0,0.2762000000000171
425,2,0.2,0.125,35.0,1,1.0,0.2358999999999014
426,2,0.2,0.0,35.0,1,1.0,0.21260000000006585
427,2,0.2,0.0,35.0,1,1.0,0.3032999999998083
428,2,0.2,0.25,-35.0,1,0.0,0.14989999999988868
429,2,0.2,0.0,-35.0,1,0.0,0.30369999999993524
430,2,0.2,0.25,35.0,1,1.0,0.2769999999998163
431,2,0.2,0.25,35.0,1,1.0,0.27719999999999345
432,2,0.2,0.125,35.0,1,1.0,0.33369999999990796
433,2,0.2,0.125,35.0,1,1.0,0.20100000000002183
434,2,0.2,0.0625,-35.0,-1,1.0,0.49070000000006075
435,2,0.2,1.0,35.0,1,1.0,0.274599999999964
436,2,0.2,0.25,35.0,1,1.0,0.3342000000000098
437,2,0.2,0.25,35.0,1,1.0,0.2780999999999949
438,2,0.2,1.0,35.0,1,1.0,0.27129999999988286
439,2,0.2,0.25,-35.0,-1,1.0,0.32169999999996435
440,2,0.2,0.25,35.0,1,1.0,0.32150000000001455
441,2,0.2,0.0,-35.0,1,0.0,0.26880000000005566
442,2,0.2,0.0,35.0,1,1.0,0.40859999999975116
443,2,0.2,0.25,35.0,1,1.0,0.23910000000000764
444,2,0.2,0.25,35.0,1,1.0,0.3222000000000662
445,2,0.2,0.0625,35.0,1,1.0,0.4725999999998294
446,2,0.2,0.125,35.0,1,1.0,0.2624999999998181
447,2,0.2,0.0,35.0,1,1.0,0.27939999999989595
448,2,0.2,0.125,35.0,1,1.0,0.26939999999990505
449,2,0.2,1.0,35.0,1,1.0,0.5832000000000335
450,2,0.2,0.0,35.0,1,1.0,4.959699999999884
451,2,0.2,0.0,35.0,1,1.0,0.3304000000000542
452,2,0.8,0.0,35.0,1,1.0,0.29339999999979227
453,2,0.8,1.0,35.0,1,1.0,0.2942000000000462
454,2,0.8,0.0625,-35.0,-1,1.0,0.8004000000000815
455,2,0.8,0.125,-35.0,1,0.0,0.39780000000018845
456,2,0.8,0.0,-35.0,1,0.0,0.3707999999999174
457,2,0.8,0.0,-35.0,1,0.0,0.3913000000000011
458,2,0.8,0.0,-35.0,-1,1.0,0.25759999999991123
459,2,0.8,0.0625,-35.0,-1,1.0,0.3350000000000364
460,2,0.8,0.25,35.0,1,1.0,0.27800000000002
461,2,0.8,1.0,-35.0,-1,1.0,0.22199999999998
462,2,0.8,0.0,-35.0,1,0.0,0.278400000000147
463,2,0.8,0.25,-35.0,-1,1.0,0.28549999999995634
464,2,0.8,0.0625,-35.0,-1,1.0,3.205500000000029
465,2,0.8,0.0,-35.0,1,0.0,0.2061999999998534
466,2,0.8,1.0,-35.0,-1,1.0,0.2359999999998763
467,2,0.8,0.25,35.0,1,1.0,0.23319999999989705
468,2,0.8,0.125,-35.0,-1,1.0,0.2661999999997988
469,2,0.8,0.25,-35.0,-1,1.0,0.2568999999998596
470,2,0.8,0.25,-35.0,-1,1.0,0.23339999999984684
471,2,0.8,0.0,35.0,1,1.0,0.2937000000001717
472,2,0.8,0.25,-35.0,-1,1.0,0.3266999999998461
473,2,0.8,0.0625,-35.0,-1,1.0,0.4072999999998501
474,2,0.8,0.125,-35.0,-1,1.0,0.32379999999989195
475,2,0.8,0.25,-35.0,-1,1.0,0.5509999999999309
476,2,0.8,0.25,-35.0,-1,1.0,0.40409999999997126
477,2,0.8,1.0,-35.0,-1,1.0,0.27109999999993306
478,2,0.8,1.0,-35.0,-1,1.0,0.19429999999988468
479,2,0.8,0.0,-35.0,1,0.0,0.26139999999986685
480,2,0.8,0.0625,-35.0,-1,1.0,0.3144000000002052
481,2,0.8,0.25,-35.0,-1,1.0,0.27510000000006585
482,2,0.8,0.0625,35.0,-1,0.0,0.4780000000000655
483,2,0.8,0.0625,-35.0,-1,1.0,0.27539999999999054
484,2,0.8,0.0625,-35.0,-1,1.0,4.881700000000137
485,2,0.8,0.25,-35.0,-1,1.0,0.5057999999999083
486,2,0.8,0.0,35.0,1,1.0,0.30559999999991305
487,2,0.8,0.25,35.0,1,1.0,0.3027999999999338
488,2,0.8,0.0625,-35.0,-1,1.0,0.4623999999998887
489,2,0.8,0.125,-35.0,-1,1.0,0.27299999999991087
490,2,0.8,0.0625,-35.0,-1,1.0,0.3391999999998916
491,2,0.8,1.0,-35.0,-1,1.0,0.26329999999984466
492,2,0.8,0.0,-35.0,1,0.0,0.2761999999997897
493,2,0.8,1.0,35.0,-1,0.0,0.480199999999968
494,2,0.8,0.0625,35.0,1,1.0,0.5199000000002343
495,2,0.8,0.0625,-35.0,-1,1.0,0.7672999999999774
496,2,0.8,0.125,-35.0,-1,1.0,0.3002000000001317
497,2,0.8,0.125,-35.0,-1,1.0,0.2807999999997719
498,2,0.8,0.125,-35.0,-1,1.0,0.2538999999999305
499,2,0.8,0.0,-35.0,1,0.0,0.171100000000024
500,2,0.8,0.0625,35.0,1,1.0,0.27089999999998327
501,2,0.8,0.125,35.0,1,1.0,0.2947999999998956
502,2,0.8,1.0,-35.0,-1,1.0,0.24459999999999127
503,2,0.8,0.125,-35.0,-1,1.0,0.27829999999971733
504,2,0.8,0.0,-35.0,1,0.0,0.27150000000006
505,2,0.8,0.0625,35.0,1,1.0,0.29529999999999745
506,2,0.8,1.0,-35.0,-1,1.0,0.3350999999997839
507,2,0.8,1.0,-35.0,-1,1.0,0.2622999999998683
508,2,0.8,0.25,-35.0,-1,1.0,0.45549999999980173
509,2,0.8,0.25,-35.0,-1,1.0,0.2593000000001666
510,2,0.8,0.125,-35.0,-1,1.0,0.26559999999994943
511,2,0.8,0.0625,35.0,1,1.0,0.3762999999996737
512,2,0.8,0.0,35.0,1,1.0,0.3526999999999134
513,2,0.2,0.0625,35.0,1,1.0,0.4864000000000033
514,2,0.2,0.0625,35.0,1,1.0,0.23949999999990723
515,2,0.2,1.0,35.0,1,1.0,0.363399999999956
516,2,0.2,0.125,35.0,1,1.0,0.2664999999997235
517,2,0.2,0.0,-35.0,1,0.0,0.28029999999967004
518,2,0.2,1.0,35.0,1,1.0,0.3437000000003536
519,2,0.2,1.0,-35.0,-1,1.0,0.3373999999998887
520,2,0.2,1.0,35.0,1,1.0,0.29700000000002547
521,2,0.2,0.0,35.0,1,1.0,0.26760000000058426
522,2,0.2,1.0,35.0,1,1.0,0.28749999999990905
523,2,0.2,0.0,35.0,1,1.0,0.29790000000048167
524,2,0.2,0.25,35.0,1,1.0,0.38110000000051514
525,2,0.2,0.125,35.0,1,1.0,0.23149999999986903
526,2,0.2,0.125,35.0,1,1.0,0.36799999999993815
527,2,0.2,0.0,35.0,1,1.0,0.24839999999994689
528,2,0.2,0.0,35.0,1,1.0,0.2782000000001972
529,2,0.2,0.25,35.0,1,1.0,0.25880000000006476
530,2,0.2,1.0,35.0,1,1.0,0.31539999999995416
531,2,0.2,1.0,35.0,1,1.0,0.18249900000000707
532,2,0.2,0.25,35.0,1,1.0,0.11889999999993961
533,2,0.2,0.25,35.0,1,1.0,0.3024000000000342
534,2,0.2,0.0625,35.0,1,1.0,0.22969999999986612
535,2,0.2,0.0625,35.0,1,1.0,0.24290000000019063
536,2,0.2,1.0,35.0,1,1.0,0.27670000000034634
537,2,0.2,0.0625,35.0,1,1.0,0.27640000000019427
538,2,0.8,0.125,-35.0,1,0.0,0.10040000000026339
539,2,0.8,0.0625,-35.0,-1,1.0,0.33339999999998327
540,2,0.8,0.125,-35.0,-1,1.0,0.31060000000024957
541,2,0.8,0.125,-35.0,1,0.0,0.3170000000000073
542,2,0.8,0.125,35.0,1,1.0,0.37429999999994834
543,2,0.8,1.0,-35.0,-1,1.0,0.32070000000021537
544,2,0.8,0.25,-35.0,-1,1.0,0.29129999999986467
545,2,0.8,0.25,-35.0,-1,1.0,0.260899999999765
546,2,0.8,1.0,-35.0,-1,1.0,0.23829999999998108
547,2,0.8,1.0,-35.0,-1,1.0,0.22119999999995343
548,2,0.8,0.0,-35.0,-1,1.0,0.5720000000001164
549,2,0.8,0.25,-35.0,-1,1.0,0.2617000000000189
550,2,0.8,0.0,-35.0,1,0.0,0.27880000000004657
551,2,0.8,1.0,-35.0,-1,1.0,0.2550000000005639
552,2,0.8,0.0625,-35.0,-1,1.0,0.38890000000037617
553,2,0.8,0.0,-35.0,1,0.0,0.2788999999997941
554,2,0.8,1.0,35.0,1,1.0,0.2861000000007152
555,2,0.8,0.25,-35.0,1,0.0,0.09259999999994761
556,2,0.8,0.25,-35.0,-1,1.0,0.23300000000017462
557,2,0.8,0.0625,-35.0,-1,1.0,0.29930000000013024
558,2,0.8,0.125,-35.0,-1,1.0,0.21669999999994616
559,2,0.8,0.0625,-35.0,-1,1.0,0.28290000000015425
560,2,0.8,0.0,-35.0,-1,1.0,0.2869999999998072
561,2,0.8,1.0,-35.0,-1,1.0,0.22670000000016444
562,2,0.8,0.125,-35.0,-1,1.0,0.2804000000000997
563,2,0.8,0.25,-35.0,-1,1.0,0.1969000000003689
564,2,0.8,1.0,-35.0,-1,1.0,0.23080000000027212
565,2,0.8,0.125,-35.0,-1,1.0,0.3270999999999731
566,2,0.8,0.0,-35.0,1,0.0,0.3910999999998239
567,2,0.8,0.125,-35.0,-1,1.0,0.5045999999997548
568,2,0.8,0.0625,-35.0,-1,1.0,0.45479999999997744
569,2,0.8,0.0,35.0,1,1.0,0.27779999999984284
570,2,0.8,0.0,-35.0,1,0.0,0.31179999999994834
571,2,0.8,0.125,-35.0,-1,1.0,0.404700000000048
572,2,0.8,0.0,-35.0,-1,1.0,0.5185999999998785
573,2,0.8,0.25,-35.0,-1,1.0,0.2551000000003114
574,2,0.8,0.0,-35.0,1,0.0,0.26900000000023283
575,2,0.8,0.0,-35.0,1,0.0,0.3553999999999178
576,2,0.8,0.0625,-35.0,-1,1.0,0.36300000000028376
577,2,0.8,1.0,-35.0,-1,1.0,0.2626000000000204
578,2,0.8,0.25,-35.0,-1,1.0,0.30310000000008586
579,2,0.8,0.125,-35.0,-1,1.0,0.2694000000001324
580,2,0.8,0.25,35.0,1,1.0,0.4366000000004533
581,2,0.8,0.125,-35.0,-1,1.0,0.3164999999999054
582,2,0.8,0.125,-35.0,-1,1.0,0.5368000000003121
583,2,0.8,0.0625,-35.0,-1,1.0,0.5399000000002161
584,2,0.8,0.0625,-35.0,-1,1.0,0.29710000000022774
585,2,0.8,1.0,-35.0,-1,1.0,0.1368000000002212
586,2,0.8,0.0,35.0,1,1.0,0.2907999999997628
587,2,0.8,0.0625,-35.0,-1,1.0,0.5735999999997148
588,2,0.8,1.0,-35.0,-1,1.0,0.11099999999987631
589,2,0.8,1.0,-35.0,-1,1.0,0.23440000000027794
590,2,0.8,0.125,35.0,1,1.0,0.2941000000000713
591,2,0.8,0.0625,-35.0,1,0.0,0.24460000000044602
592,2,0.8,1.0,-35.0,-1,1.0,0.2778000000002976
593,2,0.8,1.0,-35.0,-1,1.0,0.2448999999996886
594,2,0.8,1.0,-35.0,-1,1.0,0.23810000000048603
595,2,0.2,0.25,35.0,1,1.0,1.025300000000243
596,2,0.2,1.0,35.0,1,1.0,0.39820000000008804
597,2,0.2,1.0,-35.0,-1,1.0,0.09879999999975553
598,2,0.2,0.0625,35.0,1,1.0,0.29520000000002256
599,2,0.2,0.0,-35.0,1,0.0,0.4191000000000713
600,2,0.2,0.0,35.0,1,1.0,0.2554000000004635
601,2,0.2,0.0625,35.0,1,1.0,0.3161000000000058
602,2,0.2,0.0625,35.0,1,1.0,0.27590000000054715
603,2,0.2,0.0625,-35.0,-1,1.0,0.533100000000104
604,2,0.2,0.0,35.0,1,1.0,0.3429000000000997
605,2,0.2,0.0,-35.0,1,0.0,0.28670000000010987
606,2,0.2,0.0,35.0,1,1.0,0.3465000000001055
607,2,0.2,0.125,35.0,1,1.0,0.25030000000015207
608,2,0.2,1.0,35.0,1,1.0,0.2766999999998916
609,2,0.2,0.25,35.0,1,1.0,0.2206000000005588
610,2,0.2,1.0,-35.0,-1,1.0,0.40710000000035507
611,2,0.2,0.0625,-35.0,-1,1.0,0.3143000000000029
612,2,0.2,0.25,35.0,1,1.0,0.360700000000179
613,2,0.2,0.25,-35.0,-1,1.0,0.27790000000049986
614,2,0.2,1.0,35.0,1,1.0,0.3207999999999629
615,2,0.2,0.0,35.0,1,1.0,0.30820000000039727
616,2,0.2,0.0625,35.0,1,1.0,0.1811999999999898
617,2,0.8,0.0625,-35.0,-1,1.0,0.5749000000000706
618,2,0.8,0.0,-35.0,1,0.0,0.2650000000003274
619,2,0.8,0.0625,-35.0,-1,1.0,0.2854000000002088
620,2,0.8,1.0,-35.0,-1,1.0,0.23850000000038563
621,2,0.8,1.0,-35.0,-1,1.0,0.24899999999979627
622,2,0.8,1.0,-35.0,-1,1.0,0.26880000000028303
623,2,0.8,0.0,35.0,1,1.0,0.3193000000005668
624,2,0.8,0.0,35.0,1,1.0,0.25600000000031287
625,2,0.8,0.0625,-35.0,-1,1.0,0.5096000000003187
626,2,0.8,0.25,-35.0,-1,1.0,0.4760999999998603
627,2,0.8,1.0,-35.0,-1,1.0,0.3099000000001979
628,2,0.8,1.0,-35.0,-1,1.0,0.2296000000001186
629,2,0.8,1.0,-35.0,-1,1.0,0.34680000000025757
630,2,0.8,0.125,35.0,1,1.0,0.2699000000002343
631,2,0.8,0.125,-35.0,1,0.0,3.4939000000003944
632,2,0.8,0.125,35.0,1,1.0,0.34700000000020736
633,2,0.8,1.0,-35.0,-1,1.0,0.25749999999970896
634,2,0.8,0.0625,-35.0,1,0.0,0.43400000000019645
635,2,0.8,1.0,-35.0,-1,1.0,0.21469999999999345
636,2,0.8,0.125,-35.0,-1,1.0,0.24450000000024374
637,2,0.8,0.0625,35.0,1,1.0,0.31490000000030705
638,2,0.8,0.125,-35.0,-1,1.0,0.4313000000001921
639,2,0.8,0.125,35.0,1,1.0,0.2784999999998945
640,2,0.8,0.0625,35.0,1,1.0,0.33809999999994034
641,2,0.8,0.0625,-35.0,-1,1.0,0.5023000000001048
642,2,0.8,1.0,-35.0,-1,1.0,0.2551000000003114
643,2,0.8,0.0,-35.0,-1,1.0,0.3158000000003085
644,2,0.8,0.0,35.0,-1,0.0,0.44230000000015934
645,2,0.8,0.0625,-35.0,1,0.0,0.296100000000024
646,2,0.8,0.25,-35.0,-1,1.0,0.3492000000005646
647,2,0.8,0.0,-35.0,1,0.0,0.36970000000019354
648,2,0.8,0.0625,-35.0,-1,1.0,0.4563999999995758
649,2,0.8,0.25,-35.0,-1,1.0,0.42010000000027503
650,2,0.8,1.0,-35.0,-1,1.0,0.24000000000023647
651,2,0.8,0.0,35.0,1,1.0,0.32720000000017535
652,2,0.8,0.0625,-35.0,1,0.0,0.23019999999996799
653,2,0.8,0.0625,-35.0,-1,1.0,0.46410000000014406
654,2,0.8,0.0,-35.0,-1,1.0,0.2903999999998632
655,2,0.8,1.0,-35.0,-1,1.0,0.2577000000001135
656,2,0.8,0.125,-35.0,-1,1.0,0.33080000000018117
657,2,0.8,0.25,-35.0,-1,1.0,0.2713000000003376
658,2,0.8,0.25,-35.0,-1,1.0,0.43420000000014625
659,2,0.8,0.25,35.0,1,1.0,0.3047999999998865
660,2,0.8,0.25,-35.0,-1,1.0,0.22470000000021173
661,2,0.8,1.0,-35.0,-1,1.0,0.25860000000011496
662,2,0.8,0.0,35.0,1,1.0,0.2919000000001688
663,2,0.8,0.0625,-35.0,-1,1.0,0.9989000000005035
664,2,0.8,0.0625,-35.0,1,0.0,0.4885000000003856
665,2,0.8,1.0,35.0,1,1.0,0.32910000000038053
666,2,0.8,0.0,35.0,-1,0.0,0.3722000000002481
667,2,0.8,0.0,35.0,1,1.0,0.37279999999964275
668,2,0.8,0.0625,-35.0,-1,1.0,0.7858000000001084
669,2,0.8,0.0,-35.0,1,0.0,0.27300000000013824
670,2,0.8,0.0625,-35.0,1,0.0,0.5429000000003725
671,2,0.8,0.25,-35.0,-1,1.0,0.23669999999992797
672,2,0.8,0.25,35.0,1,1.0,0.4997000000003027
673,2,0.8,0.0,-35.0,1,0.0,0.3803000000002612
674,2,0.8,0.0625,-35.0,-1,1.0,0.32029999999986103
675,2,0.8,0.0,-35.0,1,0.0,0.37750000000005457
676,2,0.8,0.0,-35.0,1,0.0,0.3806000000004133
677,2,0.8,0.125,35.0,1,1.0,0.337800000000243
678,2,0.8,1.0,-35.0,-1,1.0,0.3243000000002212
679,2,0.8,0.0625,35.0,1,1.0,0.2980999999999767
680,2,0.8,0.125,-35.0,-1,1.0,0.33779999999978827
681,2,0.8,1.0,-35.0,-1,1.0,0.23500000000012733
682,2,0.8,0.125,-35.0,-1,1.0,0.3680000000003929
683,2,0.8,0.25,35.0,1,1.0,0.2885999999998603
684,2,0.2,0.0625,35.0,1,1.0,0.2254000000002634
685,2,0.2,0.125,35.0,1,1.0,0.3089000000004489
686,2,0.2,0.25,35.0,1,1.0,0.4186000000004242
687,2,0.2,0.25,35.0,1,1.0,0.3293999999996231
688,2,0.2,0.0625,35.0,1,1.0,0.38250000000061846
689,2,0.2,1.0,35.0,1,1.0,0.2197000000001026
690,2,0.2,0.0625,35.0,1,1.0,0.22960000000057335
691,2,0.2,0.0,35.0,1,1.0,0.38000000000010914
692,2,0.2,0.25,35.0,1,1.0,0.266399999999976
693,2,0.2,0.0,35.0,1,1.0,0.25050000000010186
694,2,0.2,0.25,35.0,1,1.0,0.31359999999995125
695,2,0.2,0.0625,-35.0,1,0.0,0.4442000000003645
696,2,0.2,1.0,35.0,1,1.0,0.25380000000041036
697,2,0.2,0.25,-35.0,-1,1.0,0.4778000000001157
698,2,0.2,0.25,35.0,1,1.0,0.14750000000003638
699,2,0.2,0.125,35.0,1,1.0,0.3348000000000866
700,2,0.2,0.0,-35.0,1,0.0,0.20119999999997162
701,2,0.2,0.25,35.0,1,1.0,0.30520000000024083
702,2,0.2,0.125,35.0,1,1.0,0.21820000000025175
703,2,0.2,1.0,-35.0,-1,1.0,0.36870000000044456
704,2,0.2,0.0,35.0,1,1.0,0.2820000000001528
705,2,0.2,1.0,-35.0,-1,1.0,0.3324000000002343
706,2,0.2,0.25,-35.0,-1,1.0,0.5354999999999563
707,2,0.2,0.0625,35.0,1,1.0,0.32630000000062864
708,2,0.2,0.0625,35.0,1,1.0,0.3258000000005268
709,2,0.2,0.25,35.0,1,1.0,0.2262999999998101
710,2,0.2,0.125,-35.0,1,0.0,0.46940000000040527
711,2,0.2,0.0,35.0,1,1.0,0.35680000000047585
712,2,0.2,1.0,35.0,1,1.0,0.24310000000014043
713,2,0.2,0.0,35.0,1,1.0,0.2770999999997912
714,2,0.2,0.0625,35.0,1,1.0,0.15670000000045547
715,2,0.2,0.0625,35.0,1,1.0,0.3006000000000313
716,2,0.2,0.0,-35.0,1,0.0,0.3805999999999585
717,2,0.2,1.0,35.0,1,1.0,0.3008999999997286
718,2,0.2,0.25,35.0,1,1.0,0.30400000000054206
719,2,0.2,0.0,35.0,1,1.0,0.41140000000041255
720,2,0.2,0.125,35.0,1,1.0,1.8342000000002372
721,2,0.2,0.25,35.0,1,1.0,0.36490000000048894
722,2,0.2,0.0625,35.0,1,1.0,0.30470000000013897
723,2,0.2,0.0625,35.0,1,1.0,0.4185000000002219
724,2,0.2,0.25,35.0,1,1.0,0.31500000000005457
725,2,0.2,0.125,35.0,1,1.0,0.37889999999970314
726,2,0.2,0.25,35.0,1,1.0,0.30189999999993233
727,2,0.2,0.0625,35.0,1,1.0,0.33910000000014406
728,2,0.2,0.0,35.0,1,1.0,0.2955000000001746
729,2,0.2,0.25,35.0,1,1.0,0.29959999999982756
730,2,0.2,0.25,-35.0,-1,1.0,0.3558000000002721
731,2,0.2,0.0,35.0,1,1.0,0.5497000000004846
732,2,0.2,0.0625,35.0,1,1.0,0.2760000000002947
733,2,0.2,0.125,35.0,1,1.0,0.3166999999998552
734,2,0.2,0.0,35.0,1,1.0,0.3631999999997788
735,2,0.2,0.0625,35.0,1,1.0,0.306999999999789
736,2,0.2,1.0,35.0,1,1.0,0.28670000000010987
737,2,0.2,0.25,35.0,1,1.0,0.30050000000028376
738,2,0.2,0.0625,35.0,1,1.0,0.3604000000000269
739,2,0.2,0.125,35.0,1,1.0,0.3207999999999629
740,2,0.2,0.0625,35.0,1,1.0,0.3342000000002372
741,2,0.2,0.0,35.0,1,1.0,0.37780000000020664
742,2,0.2,0.0,35.0,1,1.0,0.3609000000001288
743,2,0.2,0.125,35.0,1,1.0,0.3215000000004693
744,2,0.2,0.0,35.0,1,1.0,0.46780000000035216
745,2,0.2,1.0,35.0,1,1.0,0.3182999999999083
746,2,0.2,0.0,35.0,1,1.0,0.33150000000023283
747,2,0.2,1.0,35.0,1,1.0,0.34890000000041255
748,2,0.2,1.0,35.0,1,1.0,0.35840000000052896
749,2,0.2,0.0,-35.0,1,0.0,0.3723000000004504
750,2,0.2,1.0,35.0,1,1.0,0.36560000000008586
751,2,0.2,0.0,35.0,-1,0.0,0.732600000000275
752,2,0.2,1.0,35.0,1,1.0,0.3625000000001819
753,2,0.2,0.125,35.0,1,1.0,0.3397000000004482
754,2,0.2,1.0,-35.0,-1,1.0,0.27930000000014843
755,2,0.2,0.125,35.0,1,1.0,0.26650000000017826
756,2,0.2,1.0,35.0,1,1.0,0.54300000000012
757,2,0.2,0.25,-35.0,-1,1.0,0.406800000000203
758,2,0.2,0.125,35.0,1,1.0,0.33350000000018554
759,2,0.2,0.0,35.0,1,1.0,5.267100000000028
760,2,0.2,0.0,35.0,-1,0.0,10.827099999999973
761,2,0.8,0.0625,35.0,1,1.0,0.308100000000195
762,2,0.8,0.25,35.0,1,1.0,0.254500000000462
763,2,0.8,0.0,35.0,1,1.0,0.1550000000002001
764,2,0.8,0.125,-35.0,-1,1.0,0.4147000000002663
765,2,0.8,0.25,35.0,-1,0.0,0.4020000000004984
766,2,0.8,1.0,-35.0,-1,1.0,0.278400000000147
767,2,0.8,0.125,35.0,1,1.0,0.2824000000000524
768,2,0.8,0.0,-35.0,1,0.0,0.28210000000035507
769,2,0.8,1.0,-35.0,-1,1.0,0.25260000000025684
770,2,0.8,1.0,-35.0,-1,1.0,0.21909999999979846
771,2,0.8,0.125,-35.0,-1,1.0,0.45620000000008076
772,2,0.8,1.0,-35.0,-1,1.0,0.23949999999967986
773,2,0.8,0.0,35.0,1,1.0,0.3366000000000895
774,2,0.8,1.0,-35.0,-1,1.0,0.2464999999997417
775,2,0.8,1.0,-35.0,-1,1.0,0.5770000000002256
776,2,0.8,0.125,-35.0,-1,1.0,0.4499999999998181
777,2,0.8,0.25,35.0,1,1.0,0.3374000000003434
778,2,0.8,0.0625,-35.0,1,0.0,3.0736000000001695
779,2,0.8,0.125,-35.0,-1,1.0,0.8577000000000226
780,2,0.8,1.0,-35.0,-1,1.0,0.2208000000005086
781,2,0.8,0.0625,-35.0,1,0.0,0.29470000000037544
782,2,0.8,0.25,35.0,-1,0.0,0.32799999999997453
783,2,0.8,0.0625,-35.0,-1,1.0,0.4882999999999811
784,2,0.8,0.0625,35.0,1,1.0,0.35809999999992215
785,2,0.8,0.25,-35.0,-1,1.0,0.38209999999980937
786,2,0.8,0.25,-35.0,-1,1.0,0.2752000000004955
787,2,0.8,0.125,-35.0,-1,1.0,0.3089999999997417
788,2,0.8,0.125,-35.0,-1,1.0,0.2822000000001026
789,2,0.8,1.0,35.0,-1,0.0,0.32280000000037035
790,2,0.8,1.0,35.0,1,1.0,0.30250000000023647
791,2,0.8,0.0625,-35.0,-1,1.0,0.6067000000002736
792,2,0.8,0.0625,-35.0,1,0.0,0.35629999999991924
793,2,0.8,0.0625,35.0,-1,0.0,5.573500000000422
794,2,0.8,0.25,-35.0,-1,1.0,0.30030000000033397
795,2,0.8,0.125,-35.0,-1,1.0,0.33410000000048967
796,2,0.8,0.25,-35.0,-1,1.0,0.2842999999998028
797,2,0.8,0.0,-35.0,1,0.0,0.26110000000016953
798,2,0.8,0.125,-35.0,-1,1.0,0.2907000000000153
799,2,0.8,0.0,-35.0,1,0.0,0.401299999999992
800,2,0.8,0.25,-35.0,-1,1.0,0.24110000000018772
801,2,0.8,0.0625,-35.0,-1,1.0,0.44509999999991123
802,2,0.8,1.0,-35.0,-1,1.0,0.2415000000000873
803,2,0.8,1.0,-35.0,-1,1.0,0.3020000000001346
804,2,0.8,0.0625,-35.0,-1,1.0,4.918299999999817
805,2,0.8,0.0,-35.0,1,0.0,0.30920000000014625
806,2,0.8,0.125,-35.0,-1,1.0,0.3123000000000502
807,2,0.8,0.25,-35.0,-1,1.0,0.30280000000038854
808,2,0.8,0.0,-35.0,-1,1.0,0.37920000000030996
809,2,0.8,0.125,-35.0,-1,1.0,0.28960000000006403
810,2,0.8,0.125,-35.0,-1,1.0,0.24620000000049913
811,2,0.2,0.0625,35.0,1,1.0,0.2933000000002721
812,2,0.2,0.25,35.0,1,1.0,0.2731000000003405
813,2,0.2,0.125,35.0,1,1.0,0.3769999999999527
814,2,0.2,1.0,-35.0,-1,1.0,0.2867000000005646
815,2,0.2,0.125,35.0,1,1.0,0.2772000000004482
816,2,0.2,0.0,35.0,1,1.0,0.3002999999998792
817,2,0.2,0.25,35.0,1,1.0,0.3843000000001666
818,2,0.2,0.125,35.0,1,1.0,0.36730000000034124
819,2,0.2,0.25,-35.0,-1,1.0,0.5511000000001332
820,2,0.2,0.125,35.0,1,1.0,0.3609000000001288
821,2,0.2,0.0625,35.0,1,1.0,0.4183000000002721
822,2,0.2,0.125,35.0,1,1.0,0.2679000000002816
823,2,0.2,0.25,35.0,1,1.0,0.3318000000003849
824,2,0.2,0.0,35.0,1,1.0,0.308100000000195
825,2,0.2,0.0,35.0,1,1.0,0.3154000000004089
826,2,0.2,0.0625,-35.0,-1,1.0,0.7317000000002736
827,2,0.2,0.25,35.0,1,1.0,0.2658999999998741
828,2,0.2,0.125,35.0,1,1.0,0.3723000000004504
829,2,0.2,1.0,35.0,1,1.0,0.4393000000000029
830,2,0.2,0.25,-35.0,-1,1.0,0.4657999999999447
831,2,0.2,0.0625,-35.0,-1,1.0,0.6997000000001208
832,2,0.2,1.0,35.0,1,1.0,0.2994000000003325
833,2,0.2,1.0,-35.0,-1,1.0,0.3532000000000153
834,2,0.2,0.0,35.0,-1,0.0,9.463200000000143
835,2,0.2,0.125,35.0,-1,0.0,0.3175000000005639
836,2,0.8,0.25,35.0,-1,0.0,0.30039999999962674
837,2,0.8,0.25,35.0,1,1.0,0.33770000000004075
838,2,0.8,1.0,-35.0,-1,1.0,0.2840000000001055
839,2,0.8,1.0,35.0,1,1.0,0.2812000000003536
840,2,0.8,0.25,-35.0,-1,1.0,0.5313000000001011
841,2,0.8,0.125,-35.0,-1,1.0,0.3247999999998683
842,2,0.8,0.0,-35.0,1,0.0,0.2812000000003536
843,2,0.8,0.25,-35.0,-1,1.0,0.3652999999999338
844,2,0.8,1.0,35.0,1,1.0,0.33499999999958163
845,2,0.8,0.0625,-35.0,1,0.0,0.42870000000039
846,2,0.8,1.0,35.0,1,1.0,0.8852000000001681
847,2,0.8,1.0,-35.0,-1,1.0,0.33920000000034634
848,2,0.8,0.25,-35.0,-1,1.0,0.26569999999992433
849,2,0.8,0.0625,-35.0,-1,1.0,0.18280000000049768
850,2,0.8,0.125,-35.0,-1,1.0,0.27240000000028886
851,2,0.8,0.0,-35.0,-1,1.0,0.47960000000057335
852,2,0.8,0.125,-35.0,-1,1.0,0.35280000000057044
853,2,0.8,0.0625,-35.0,-1,1.0,0.3501000000001113
854,2,0.8,1.0,-35.0,-1,1.0,0.3263000000001739
855,2,0.8,1.0,-35.0,-1,1.0,0.3004000000000815
856,2,0.2,0.0,35.0,-1,0.0,1.1601000000005115
857,2,0.2,1.0,35.0,1,1.0,0.34389999999984866
858,2,0.2,0.25,35.0,1,1.0,0.30369999999993524
859,2,0.2,0.0,35.0,1,1.0,0.3010000000003856
860,2,0.2,1.0,35.0,1,1.0,0.4306000000001404
861,2,0.2,0.25,35.0,1,1.0,1.1178999999997359
862,2,0.2,0.0625,35.0,1,1.0,0.45109999999976935
863,2,0.2,0.125,35.0,1,1.0,0.2948999999998705
864,2,0.2,0.25,-35.0,-1,1.0,0.551300000000083
865,2,0.2,0.25,35.0,1,1.0,0.36209999999982756
866,2,0.2,0.0,-35.0,1,0.0,0.5084000000001652
867,2,0.2,0.25,35.0,-1,0.0,2.92890000000034
868,2,0.2,0.0,35.0,1,1.0,0.35230000000046857
869,2,0.2,0.0625,35.0,1,1.0,0.31260000000020227
870,2,0.2,0.25,35.0,1,1.0,0.3625000000001819
871,2,0.2,0.25,35.0,1,1.0,0.32620000000042637
872,2,0.2,1.0,-35.0,-1,1.0,0.33950000000004366
873,2,0.2,0.0,-35.0,1,0.0,0.34320000000025175
874,2,0.2,0.0625,-35.0,-1,1.0,3.7730000000001382
875,2,0.2,0.125,-35.0,-1,1.0,0.44039999999995416
876,2,0.2,0.0625,-35.0,-1,1.0,0.48040000000037253
877,2,0.8,0.0,-35.0,-1,1.0,0.4774000000002161
878,2,0.8,0.0,-35.0,1,0.0,0.40039999999999054
879,2,0.8,0.0625,-35.0,-1,1.0,0.32090000000016516
880,2,0.8,1.0,-35.0,-1,1.0,0.29419999999981883
881,2,0.8,0.0625,-35.0,-1,1.0,0.5613000000003012
882,2,0.8,0.25,-35.0,-1,1.0,0.2909000000004198
883,2,0.8,1.0,-35.0,-1,1.0,0.2782000000001972
884,2,0.8,0.125,35.0,1,1.0,0.42810000000008586
885,2,0.8,0.0,-35.0,1,0.0,0.5052000000005137
886,2,0.8,0.125,-35.0,-1,1.0,0.3550000000000182
887,2,0.8,0.0,-35.0,1,0.0,0.5954999999999018
888,2,0.8,0.0,-35.0,-1,1.0,5.11200000000008
889,2,0.8,0.0,-35.0,-1,1.0,0.4626000000002932
890,2,0.8,1.0,35.0,1,1.0,2.159099999999853
891,2,0.8,0.0625,-35.0,-1,1.0,0.48970000000053915
892,2,0.8,1.0,-35.0,-1,1.0,0.282799999999952
893,2,0.8,1.0,-35.0,-1,1.0,0.2932999999998174
894,2,0.8,0.125,-35.0,-1,1.0,1.6932000000001608
895,2,0.8,0.0,-35.0,1,0.0,18.853700000000117
896,2,0.8,0.125,-35.0,-1,1.0,0.5441999999998188
897,2,0.8,1.0,-35.0,-1,1.0,0.3481000000001586
898,2,0.8,0.25,-35.0,-1,1.0,0.2780000000002474
899,2,0.8,0.25,35.0,1,1.0,0.5217999999999847
900,2,0.8,0.125,-35.0,-1,1.0,0.3083999999998923
901,2,0.8,0.0625,-35.0,1,0.0,0.4588000000003376
902,2,0.2,0.0625,35.0,1,1.0,22.93190000000004
903,2,0.2,0.125,35.0,1,1.0,4.463300000000345
904,2,0.2,0.0,35.0,1,1.0,0.30330000000003565
905,2,0.2,1.0,35.0,1,1.0,0.3739000000005035
906,2,0.2,0.0,35.0,1,1.0,0.39350000000013097
907,2,0.2,0.125,35.0,1,1.0,0.33080000000018117
908,2,0.2,0.0625,-35.0,-1,1.0,0.38050000000066575
909,2,0.2,0.25,35.0,1,1.0,0.3342999999999847
910,2,0.2,0.125,-35.0,-1,1.0,0.36760000000003856
911,2,0.2,0.0,-35.0,1,0.0,0.4909000000002379
912,2,0.2,0.25,-35.0,-1,1.0,0.3344999999999345
913,2,0.2,1.0,35.0,1,1.0,0.4349000000001979
914,2,0.2,0.0625,35.0,1,1.0,0.3615999999997257
915,2,0.2,0.25,35.0,1,1.0,0.358600000000024
916,2,0.2,0.0,35.0,1,1.0,0.4149999999999636
917,2,0.2,0.25,-35.0,-1,1.0,0.4556000000002314
918,2,0.2,0.0,35.0,1,1.0,0.3455000000003565
919,2,0.2,1.0,-35.0,-1,1.0,0.39249999999992724
920,2,0.2,0.0625,35.0,1,1.0,8.925900000000183
921,2,0.2,1.0,-35.0,-1,1.0,0.2498000000000502
922,2,0.2,0.0625,-35.0,-1,1.0,0.7931000000003223
923,2,0.2,0.0625,35.0,1,1.0,0.36340000000018335
924,2,0.2,0.25,35.0,1,1.0,0.3666000000002896
925,2,0.2,0.0625,35.0,1,1.0,0.5471000000002277
926,2,0.2,0.125,-35.0,-1,1.0,0.6235999999998967
927,2,0.2,0.0,-35.0,-1,1.0,6.550899999999729
928,2,0.2,1.0,35.0,1,1.0,0.2607999999995627
929,2,0.2,0.25,-35.0,-1,1.0,0.2780999999999949
930,2,0.2,1.0,35.0,1,1.0,0.3178000000002612
931,2,0.2,1.0,-35.0,-1,1.0,0.2849999999998545
932,2,0.2,0.125,35.0,1,1.0,0.3449000000000524
933,2,0.2,0.25,-35.0,-1,1.0,0.4954000000002452
934,2,0.2,0.125,-35.0,-1,1.0,0.3017000000004373
935,2,0.2,1.0,35.0,1,1.0,0.6156000000005406
936,2,0.2,0.0,35.0,1,1.0,0.4454000000000633
937,2,0.2,0.0,35.0,1,1.0,0.44279999999980646
938,2,0.2,0.25,35.0,1,1.0,0.33910000000014406
939,2,0.2,0.0,35.0,1,1.0,0.30960000000004584
940,2,0.2,0.0625,35.0,1,1.0,0.4060999999996966
941,2,0.2,1.0,35.0,1,1.0,0.3164999999999054
942,2,0.2,0.0625,35.0,1,1.0,0.3097000000002481
943,2,0.2,0.25,35.0,1,1.0,0.47690000000011423
944,2,0.2,0.0625,35.0,1,1.0,0.5067000000003645
945,2,0.2,0.0625,35.0,1,1.0,6.563800000000356
946,2,0.2,0.0,35.0,1,1.0,0.4040000000004511
947,2,0.2,1.0,35.0,1,1.0,0.3010000000003856
948,2,0.2,0.0625,35.0,1,1.0,0.33410000000048967
949,2,0.2,0.0625,35.0,1,1.0,0.38140000000021246
950,2,0.2,1.0,35.0,1,1.0,0.34120000000029904
951,2,0.2,0.125,35.0,1,1.0,0.384900000000016
952,2,0.2,0.0,-35.0,1,0.0,6.504899999999907
953,2,0.2,1.0,35.0,1,1.0,0.3722000000002481
954,2,0.2,0.0,35.0,1,1.0,0.5987000000004628
955,2,0.2,0.125,35.0,1,1.0,0.3425000000002001
956,2,0.2,0.0,35.0,1,1.0,0.4492000000000189
957,2,0.2,0.125,35.0,1,1.0,10.966199999999844
958,2,0.2,0.25,35.0,1,1.0,3.946600000000217
959,2,0.8,0.0625,-35.0,-1,1.0,0.3538000000003194
960,2,0.8,1.0,-35.0,-1,1.0,0.25700000000006185
961,2,0.8,0.0625,-35.0,-1,1.0,0.3306999999999789
962,2,0.8,0.125,-35.0,-1,1.0,0.31060000000024957
963,2,0.8,0.25,35.0,1,1.0,0.4442000000003645
964,2,0.8,0.0,-35.0,1,0.0,3.2843000000002576
965,2,0.8,0.25,-35.0,-1,1.0,0.311500000000251
966,2,0.8,0.0625,-35.0,-1,1.0,4.184700000000248
967,2,0.8,0.0625,35.0,1,1.0,1.051900000000387
968,2,0.8,0.0625,-35.0,-1,1.0,2.581800000000385
969,2,0.8,0.25,-35.0,-1,1.0,0.2555999999999585
970,2,0.8,0.25,-35.0,-1,1.0,2.5887000000002445
971,2,0.8,0.25,-35.0,-1,1.0,0.9094000000000051
972,2,0.8,0.125,-35.0,-1,1.0,0.30260000000043874
973,2,0.8,0.25,-35.0,-1,1.0,0.32640000000037617
974,2,0.8,0.25,35.0,1,1.0,0.3895000000006803
975,2,0.8,1.0,-35.0,-1,1.0,0.26680000000033033
976,2,0.8,0.25,-35.0,-1,1.0,0.516399999999976
977,2,0.8,0.125,-35.0,-1,1.0,9.877000000000407
978,2,0.8,0.0,-35.0,1,0.0,23.927200000000084
979,2,0.8,0.0,-35.0,1,0.0,5.365299999999934
980,2,0.8,0.125,-35.0,-1,1.0,0.5454000000004271
981,2,0.8,0.0625,-35.0,1,0.0,0.6525000000001455
982,2,0.8,0.0625,-35.0,-1,1.0,0.8623999999999796
983,2,0.8,0.0,35.0,1,1.0,25.256200000000717
984,2,0.8,0.25,-35.0,-1,1.0,0.473599999999351
985,2,0.8,0.125,-35.0,-1,1.0,0.5108000000000175
986,2,0.8,0.0625,-35.0,1,0.0,5.360700000000179
987,2,0.8,0.0,-35.0,1,0.0,20.01810000000023
988,2,0.8,0.0625,-35.0,-1,1.0,12.652000000000044
989,2,0.8,0.125,-35.0,-1,1.0,9.289800000000469
990,2,0.8,0.0,-35.0,-1,1.0,21.199800000000323
991,2,0.8,1.0,-35.0,-1,1.0,0.2510000000002037
992,2,0.8,0.25,-35.0,-1,1.0,0.277499999999236
993,2,0.8,0.0,-35.0,1,0.0,2.1446999999998297
994,2,0.8,0.0625,-35.0,1,0.0,6.864699999999175
1,3,0.5,0.25,-35.0,-1,1.0,0.2909999999999997
2,3,0.5,1.0,-35.0,-1,1.0,0.25
3,3,0.5,1.0,35.0,1,1.0,0.3457000000000008
4,3,0.5,0.25,-35.0,-1,1.0,0.34639999999999915
5,3,0.5,0.25,35.0,1,1.0,0.7639000000000031
6,3,0.5,0.125,35.0,1,1.0,3.155999999999999
7,3,0.5,0.0625,-35.0,1,0.0,0.8444000000000038
8,3,0.5,0.0,35.0,-1,0.0,0.4353000000000016
9,3,0.5,1.0,35.0,1,1.0,0.5013999999999967
10,3,0.5,0.0,-35.0,1,0.0,0.7280999999999906
11,3,0.5,0.25,35.0,1,1.0,0.5056999999999974
12,3,0.5,1.0,35.0,1,1.0,0.3440000000000012
13,3,0.5,1.0,-35.0,-1,1.0,0.4042000000000101
14,3,0.5,0.0625,35.0,1,1.0,1.5776000000000039
15,3,0.5,0.0625,35.0,1,1.0,0.4007999999999967
16,3,0.5,0.25,-35.0,-1,1.0,0.30109999999999104
17,3,0.5,0.25,35.0,1,1.0,1.9328999999999894
18,3,0.5,0.25,-35.0,-1,1.0,0.3019999999999925
19,3,0.5,0.0625,35.0,1,1.0,0.6868999999999943
20,3,0.5,0.0625,-35.0,1,0.0,4.781500000000008
21,3,0.5,0.0625,-35.0,-1,1.0,0.43710000000000093
22,3,0.5,0.0,35.0,1,1.0,0.9723000000000184
23,3,0.5,0.0,-35.0,1,0.0,0.47210000000001173
24,3,0.5,0.0,35.0,1,1.0,0.488900000000001
25,3,0.5,0.25,-35.0,-1,1.0,0.3574000000000126
26,3,0.5,0.25,35.0,1,1.0,0.4247000000000014
27,3,0.5,0.25,-35.0,-1,1.0,0.6822000000000088
28,3,0.5,0.125,-35.0,-1,1.0,3.3739999999999952
29,3,0.5,0.25,-35.0,-1,1.0,0.3073000000000121
30,3,0.5,0.25,-35.0,-1,1.0,0.3592000000000013
31,3,0.5,0.25,-35.0,-1,1.0,0.43189999999999884
32,3,0.5,0.0625,35.0,1,1.0,0.36470000000001335
33,3,0.5,0.0625,-35.0,1,0.0,0.4560999999999922
34,3,0.5,1.0,-35.0,-1,1.0,0.3032000000000039
35,3,0.5,1.0,-35.0,-1,1.0,0.29460000000000264
36,3,0.5,0.0,-35.0,1,0.0,2.539999999999992
37,3,0.5,0.0,-35.0,1,0.0,0.7272000000000105
38,3,0.5,0.0,-35.0,1,0.0,0.5079000000000065
39,3,0.5,0.0625,35.0,1,1.0,0.37880000000001246
40,3,0.5,1.0,-35.0,-1,1.0,0.3175000000000239
41,3,0.5,1.0,-35.0,-1,1.0,0.29179999999999495
42,3,0.5,1.0,35.0,1,1.0,2.1750999999999863
43,3,0.5,0.0625,35.0,1,1.0,0.5886999999999887
44,3,0.5,1.0,35.0,1,1.0,2.0381000000000142
45,3,0.5,0.25,35.0,1,1.0,2.284200000000027
46,3,0.5,0.25,-35.0,-1,1.0,0.898699999999991
47,3,0.5,1.0,-35.0,-1,1.0,0.4444999999999766
48,3,0.5,0.125,-35.0,1,0.0,0.4747000000000128
49,3,0.5,0.125,-35.0,-1,1.0,0.2927999999999997
50,3,0.5,0.25,-35.0,-1,1.0,0.4435000000000002
51,3,0.5,0.0625,35.0,1,1.0,0.6244000000000085
52,3,0.5,1.0,35.0,1,1.0,0.8808999999999685
53,3,0.5,0.125,-35.0,1,0.0,0.40330000000000155
54,3,0.5,0.25,35.0,1,1.0,0.625
55,3,0.5,0.0625,35.0,1,1.0,0.41610000000000014
56,3,0.5,0.25,-35.0,1,0.0,2.0649999999999977
57,3,0.5,1.0,-35.0,-1,1.0,0.25669999999999504
58,3,0.5,0.25,-35.0,-1,1.0,0.7494000000000085
59,3,0.5,0.125,35.0,1,1.0,0.37770000000000437
60,3,0.5,0.0625,35.0,1,1.0,0.7796000000000163
61,3,0.5,0.0625,-35.0,1,0.0,0.551700000000011
62,3,0.5,0.25,35.0,1,1.0,0.47450000000000614
63,3,0.5,1.0,35.0,1,1.0,0.873500000000007
64,3,0.5,0.0,-35.0,1,0.0,2.937899999999985
65,3,0.5,0.25,35.0,1,1.0,0.3306999999999789
66,3,0.5,0.0,-35.0,1,0.0,0.3108000000000004
67,3,0.5,0.0,35.0,1,1.0,0.3091999999999757
68,3,0.5,1.0,-35.0,-1,1.0,0.25749999999993634
69,3,0.5,0.125,35.0,1,1.0,0.3717999999999506
70,3,0.5,0.125,35.0,1,1.0,0.4916999999999234
71,3,0.5,1.0,35.0,1,1.0,0.37489999999996826
72,3,0.5,1.0,35.0,1,1.0,0.8194000000000301
73,3,0.5,0.0625,35.0,1,1.0,0.3676999999999566
74,3,0.5,1.0,35.0,1,1.0,2.697399999999959
75,3,0.5,0.0625,-35.0,1,0.0,0.511099999999999
76,3,0.5,1.0,-35.0,-1,1.0,0.26209999999997535
77,3,0.5,0.0,-35.0,1,0.0,0.38040000000000873
78,3,0.5,0.125,-35.0,-1,1.0,0.2669999999999959
79,3,0.5,1.0,35.0,1,1.0,0.4054999999999609
80,3,0.5,0.0625,-35.0,1,0.0,0.5396999999999821
81,3,0.5,0.0625,35.0,-1,0.0,2.301899999999989
82,3,0.5,0.125,-35.0,-1,1.0,0.2907999999999902
83,3,0.5,0.0625,35.0,1,1.0,0.6365000000000123
84,3,0.5,1.0,35.0,1,1.0,2.034999999999968
85,3,0.5,0.0625,35.0,1,1.0,0.5938999999999623
86,3,0.5,1.0,-35.0,-1,1.0,0.26549999999997453
87,3,0.5,0.125,35.0,1,1.0,0.31229999999999336
88,3,0.5,0.0,35.0,1,1.0,0.4802999999999997
89,3,0.5,0.125,-35.0,-1,1.0,0.5564999999999714
90,3,0.5,0.25,35.0,-1,0.0,1.8824000000000183
91,3,0.8,0.25,-35.0,-1,1.0,0.34349999999994907
92,3,0.8,0.0,-35.0,1,0.0,0.14289999999999736
93,3,0.8,0.0,-35.0,1,0.0,0.3626999999999043
94,3,0.8,0.0625,-35.0,-1,1.0,1.1259999999999195
95,3,0.8,0.25,-35.0,-1,1.0,0.27769999999998163
96,3,0.8,0.25,-35.0,-1,1.0,0.24959999999998672
97,3,0.8,0.125,35.0,1,1.0,0.5145999999999731
98,3,0.8,0.0,-35.0,1,0.0,0.4761999999999489
99,3,0.8,0.125,35.0,1,1.0,0.32119999999997617
100,3,0.8,0.0,-35.0,1,0.0,2.564799999999991
101,3,0.8,0.125,35.0,1,1.0,0.8004000000000246
102,3,0.8,0.25,-35.0,-1,1.0,0.5021999999999593
103,3,0.8,1.0,-35.0,-1,1.0,0.24639999999999418
104,3,0.8,0.25,-35.0,-1,1.0,0.5889999999999986
105,3,0.8,1.0,-35.0,-1,1.0,0.27120000000002165
106,3,0.8,0.125,-35.0,-1,1.0,0.3129000000000133
107,3,0.8,1.0,-35.0,-1,1.0,0.35290000000003374
108,3,0.8,0.0,-35.0,1,0.0,0.6080999999999221
109,3,0.8,0.0,-35.0,1,0.0,5.764499999999998
110,3,0.8,0.25,35.0,1,1.0,0.5895999999999617
111,3,0.8,0.0625,-35.0,-1,1.0,0.2692000000000121
112,3,0.8,0.0,-35.0,1,0.0,0.44319999999999027
113,3,0.8,0.0,35.0,1,1.0,0.9902999999999906
114,3,0.8,0.25,35.0,1,1.0,0.34559999999999036
115,3,0.8,0.0625,-35.0,1,0.0,2.6655999999999835
116,3,0.2,0.125,-35.0,-1,1.0,0.3108999999999469
117,3,0.2,0.0625,35.0,1,1.0,0.39749999999997954
118,3,0.2,1.0,35.0,1,1.0,0.4035999999999831
119,3,0.2,0.25,35.0,1,1.0,0.364599999999939
120,3,0.2,0.0625,35.0,1,1.0,0.330099999999959
121,3,0.2,0.0625,35.0,1,1.0,0.3412000000000148
122,3,0.2,0.0625,-35.0,1,0.0,0.5946999999999321
123,3,0.2,0.125,35.0,1,1.0,0.3754000000000133
124,3,0.2,0.0625,35.0,-1,0.0,3.6006999999999607
125,3,0.2,1.0,35.0,1,1.0,0.48109999999996944
126,3,0.2,0.25,35.0,1,1.0,0.4841000000000122
127,3,0.2,0.125,35.0,1,1.0,0.41119999999995116
128,3,0.2,0.0,35.0,1,1.0,0.3023000000000593
129,3,0.2,0.125,35.0,1,1.0,0.3542000000001053
130,3,0.2,0.0,35.0,1,1.0,0.3365000000000009
131,3,0.2,0.25,-35.0,1,0.0,1.3359000000000378
132,3,0.2,1.0,35.0,1,1.0,0.2094000000000733
133,3,0.2,0.25,35.0,1,1.0,0.3792989999999463
134,3,0.2,1.0,35.0,1,1.0,0.33350000000007185
135,3,0.2,0.25,35.0,1,1.0,0.5568000000000666
136,3,0.2,0.125,35.0,1,1.0,0.3491000000000213
137,3,0.2,0.0,35.0,1,1.0,0.38850000000002183
138,3,0.2,0.0,35.0,1,1.0,0.30750000000000455
139,3,0.2,0.125,35.0,1,1.0,1.508799999999951
140,3,0.2,0.0625,35.0,1,1.0,3.456199999999967
141,3,0.2,0.125,35.0,1,1.0,0.3211000000000013
142,3,0.2,1.0,35.0,1,1.0,0.30730000000005475
143,3,0.2,0.125,35.0,1,1.0,0.32140000000003965
144,3,0.2,0.0,-35.0,1,0.0,5.548200000000065
145,3,0.2,0.125,35.0,1,1.0,0.2700999999999567
146,3,0.2,1.0,-35.0,-1,1.0,0.33780000000001564
147,3,0.2,0.25,-35.0,-1,1.0,0.6660000000000537
148,3,0.2,1.0,35.0,1,1.0,3.0328000000000657
149,3,0.2,0.0625,-35.0,1,0.0,0.47509999999999764
150,3,0.2,0.0625,35.0,1,1.0,0.38820000000009713
151,3,0.2,0.25,35.0,1,1.0,0.2922000000000935
152,3,0.2,0.125,35.0,1,1.0,0.2844000000000051
153,3,0.2,0.0625,35.0,1,1.0,0.3058000000000902
154,3,0.2,1.0,35.0,1,1.0,0.29670000000010077
155,3,0.2,0.25,35.0,1,1.0,1.547800000000052
156,3,0.2,1.0,-35.0,-1,1.0,0.25700000000006185
157,3,0.2,0.125,35.0,1,1.0,0.28950000000008913
158,3,0.2,0.0,35.0,1,1.0,0.2835000000001173
159,3,0.2,0.25,-35.0,-1,1.0,0.6046000000000049
160,3,0.2,0.0,35.0,1,1.0,0.36149999999997817
161,3,0.2,1.0,35.0,1,1.0,0.25750000000005
162,3,0.2,0.25,35.0,1,1.0,0.46460000000001855
163,3,0.2,0.25,35.0,1,1.0,0.2884999999999991
164,3,0.2,0.25,-35.0,-1,1.0,0.5218000000000984
165,3,0.2,0.125,35.0,1,1.0,0.3426000000000613
166,3,0.2,0.0625,35.0,1,1.0,0.43459999999993215
167,3,0.2,0.125,35.0,1,1.0,0.34920000000010987
168,3,0.2,0.0,-35.0,1,0.0,0.28110000000003765
169,3,0.2,0.125,35.0,1,1.0,0.3848000000000411
170,3,0.2,0.0625,35.0,1,1.0,0.3347999999999729
171,3,0.2,0.0625,-35.0,1,0.0,0.3106000000000222
172,3,0.2,0.0625,35.0,1,1.0,0.35140000000001237
173,3,0.2,0.125,35.0,1,1.0,0.35160000000007585
174,3,0.2,0.0,35.0,1,1.0,0.31389999999998963
175,3,0.2,0.25,35.0,1,1.0,0.29090000000007876
176,3,0.2,0.0,35.0,1,1.0,0.46260000000006585
177,3,0.2,0.125,35.0,1,1.0,0.4010000000000673
178,3,0.2,0.0,-35.0,1,0.0,0.3286000000000513
179,3,0.2,1.0,35.0,1,1.0,0.32970000000011623
180,3,0.2,0.25,-35.0,-1,1.0,0.8912000000000262
181,3,0.2,0.0625,35.0,1,1.0,0.3667000000001508
182,3,0.2,0.25,35.0,1,1.0,0.2948999999999842
183,3,0.2,0.25,35.0,1,1.0,0.27940000000000964
184,3,0.2,0.0625,35.0,1,1.0,0.26099999999996726
185,3,0.2,0.125,35.0,1,1.0,0.3243000000001075
186,3,0.2,1.0,-35.0,-1,1.0,0.4571000000000822
187,3,0.2,0.125,35.0,1,1.0,0.4191999999999325
188,3,0.2,0.0625,-35.0,-1,1.0,0.6960000000000264
189,3,0.2,1.0,35.0,1,1.0,0.2944000000001097
190,3,0.2,0.125,35.0,1,1.0,0.3021999999999707
191,3,0.2,0.125,35.0,1,1.0,0.3246000000000322
192,3,0.2,0.0,35.0,1,1.0,0.43260000000009313
193,3,0.2,0.25,35.0,1,1.0,0.30299999999999727
194,3,0.2,0.125,35.0,1,1.0,0.3544000000000551
195,3,0.2,0.125,35.0,1,1.0,0.2296999999999798
196,3,0.8,0.0,-35.0,1,0.0,0.31550000000004275
197,3,0.8,0.25,-35.0,-1,1.0,0.5774999999999864
198,3,0.8,0.125,-35.0,-1,1.0,1.4863000000000284
199,3,0.8,0.125,-35.0,-1,1.0,0.6027000000000271
200,3,0.8,1.0,-35.0,1,0.0,0.2941000000000713
201,3,0.8,0.0,-35.0,1,0.0,0.36099999999999
202,3,0.8,1.0,-35.0,-1,1.0,0.2195000000000391
203,3,0.8,1.0,-35.0,-1,1.0,0.26260000000013406
204,3,0.8,0.0625,-35.0,-1,1.0,0.8146000000000413
205,3,0.8,0.0625,-35.0,1,0.0,0.33730000000002747
206,3,0.8,0.125,35.0,1,1.0,0.2799000000001115
207,3,0.8,0.25,35.0,1,1.0,0.29730000000006385
208,3,0.8,0.125,-35.0,-1,1.0,0.4881000000000313
209,3,0.8,0.0625,-35.0,-1,1.0,0.7571000000001504
210,3,0.8,1.0,-35.0,-1,1.0,0.884200000000078
211,3,0.8,0.0,-35.0,1,0.0,0.3391000000000304
212,3,0.8,0.125,-35.0,-1,1.0,0.6451000000000704
213,3,0.8,0.0,-35.0,1,0.0,0.314899999999966
214,3,0.8,0.25,-35.0,-1,1.0,0.2804000000000997
215,3,0.8,0.0625,-35.0,-1,1.0,0.5720999999999776
216,3,0.8,1.0,35.0,1,1.0,0.39780000000007476
217,3,0.2,0.0,-35.0,1,0.0,0.3309000000000424
218,3,0.2,0.0,35.0,-1,0.0,7.254500000000121
219,3,0.2,0.125,-35.0,-1,1.0,0.6037000000001171
220,3,0.2,0.25,35.0,1,1.0,3.7753000000000156
221,3,0.2,0.25,35.0,1,1.0,0.35530000000005657
222,3,0.2,0.25,35.0,1,1.0,0.3286999999999125
223,3,0.2,0.0,35.0,1,1.0,0.34010000000000673
224,3,0.2,1.0,35.0,1,1.0,0.3285000000000764
225,3,0.2,0.25,35.0,1,1.0,0.3927000000001044
226,3,0.2,1.0,35.0,1,1.0,0.34379999999998745
227,3,0.2,1.0,35.0,1,1.0,0.262299999999982
228,3,0.2,0.0,35.0,1,1.0,0.3525000000000773
229,3,0.2,0.125,35.0,1,1.0,0.33130000000005566
230,3,0.2,0.0625,35.0,1,1.0,0.4292000000000371
231,3,0.2,0.0,35.0,1,1.0,0.393100000000004
232,3,0.2,0.0625,35.0,1,1.0,0.33579999999994925
233,3,0.2,0.0625,35.0,1,1.0,0.31520000000000437
234,3,0.2,1.0,35.0,1,1.0,0.36599999999998545
235,3,0.2,0.25,35.0,1,1.0,0.3109000000000606
236,3,0.2,0.125,35.0,1,1.0,0.2796000000000731
237,3,0.2,0.25,35.0,1,1.0,0.13829999999995835
238,3,0.2,1.0,35.0,1,1.0,0.3145000000000664
239,3,0.2,0.125,35.0,1,1.0,0.23299999999994725
240,3,0.2,0.25,35.0,1,1.0,0.31749999999999545
241,3,0.2,0.0,35.0,1,1.0,0.3548000000000684
242,3,0.2,1.0,-35.0,-1,1.0,0.574100000000044
243,3,0.2,1.0,35.0,1,1.0,0.26320000000009713
244,3,0.2,0.25,-35.0,-1,1.0,0.4977000000001226
245,3,0.2,0.0,35.0,1,1.0,0.30729999999994106
246,3,0.2,0.0625,35.0,1,1.0,0.25280000000009295
247,3,0.2,0.0,35.0,1,1.0,0.5076999999999998
248,3,0.2,0.0625,35.0,1,1.0,0.29070000000012897
249,3,0.2,0.0,35.0,1,1.0,0.29130000000009204
250,3,0.2,0.25,35.0,1,1.0,0.3124000000000251
251,3,0.2,0.125,-35.0,-1,1.0,0.7389000000000578
252,3,0.2,1.0,35.0,1,1.0,0.26300000000003365
253,3,0.2,0.0,35.0,1,1.0,0.41220000000009804
254,3,0.2,1.0,-35.0,-1,1.0,0.633199999999988
255,3,0.2,0.0625,35.0,1,1.0,0.35009999999999764
256,3,0.2,0.0,35.0,1,1.0,0.3161000000001195
257,3,0.2,0.25,35.0,1,1.0,0.34050000000002
258,3,0.2,0.25,35.0,1,1.0,0.2839000000000169
259,3,0.2,0.25,35.0,1,1.0,0.34739999999999327
260,3,0.2,1.0,35.0,1,1.0,0.27070000000003347
261,3,0.2,0.25,-35.0,-1,1.0,0.7711000000000467
262,3,0.2,0.0,-35.0,1,0.0,0.2678000000000793
263,3,0.2,0.125,35.0,1,1.0,0.3813000000000102
264,3,0.2,0.25,-35.0,-1,1.0,0.8480999999999312
265,3,0.2,0.0,-35.0,1,0.0,0.3183000000001357
266,3,0.2,0.25,35.0,1,1.0,0.2782999999999447
267,3,0.2,0.25,-35.0,-1,1.0,0.46860000000015134
268,3,0.2,0.0625,35.0,1,1.0,0.2818999999999505
269,3,0.2,0.125,-35.0,-1,1.0,0.5888000000002194
270,3,0.2,0.0625,35.0,1,1.0,1.25200000000018
271,3,0.2,0.25,35.0,1,1.0,0.29909999999995307
272,3,0.2,0.0625,35.0,1,1.0,0.2824000000000524
273,3,0.2,1.0,35.0,1,1.0,0.26939999999990505
274,3,0.2,0.125,35.0,1,1.0,0.3192999999998847
275,3,0.2,0.0,35.0,1,1.0,0.29290000000014516
276,3,0.2,0.0,35.0,1,1.0,0.322800000000143
277,3,0.2,0.0,35.0,1,1.0,0.21979999999985012
278,3,0.2,0.0625,35.0,1,1.0,0.27330000000006294
279,3,0.2,0.25,35.0,1,1.0,0.26680000000010295
280,3,0.2,0.0625,35.0,1,1.0,0.3967999999999847
281,3,0.2,0.0,35.0,1,1.0,0.29730000000017753
282,3,0.2,0.0,35.0,1,1.0,0.3105999999997948
283,3,0.2,0.0,-35.0,1,0.0,0.3708999999998923
284,3,0.2,0.0625,35.0,1,1.0,6.147300000000087
285,3,0.8,0.0,-35.0,1,0.0,0.3344999999999345
286,3,0.8,1.0,-35.0,-1,1.0,0.21800000000007458
287,3,0.8,1.0,-35.0,-1,1.0,0.24469999999996617
288,3,0.8,0.0,-35.0,1,0.0,9.79489999999987
289,3,0.8,0.0,-35.0,1,0.0,0.3056000000001404
290,3,0.8,0.0,-35.0,-1,1.0,0.6854000000002998
291,3,0.8,0.0,-35.0,1,0.0,0.3025000000000091
292,3,0.8,0.25,-35.0,-1,1.0,0.26910000000020773
293,3,0.8,1.0,35.0,1,1.0,0.3561000000001968
294,3,0.8,0.125,35.0,1,1.0,0.37629999999990105
295,3,0.8,0.0,-35.0,1,0.0,0.3265000000001237
296,3,0.8,0.0,-35.0,1,0.0,0.37300000000027467
297,3,0.8,0.0625,-35.0,-1,1.0,0.30340000000001055
298,3,0.8,0.0625,-35.0,-1,1.0,0.5634000000002288
299,3,0.8,1.0,-35.0,-1,1.0,0.33359999999993306
300,3,0.8,0.125,-35.0,-1,1.0,0.3105000000000473
301,3,0.8,0.125,-35.0,-1,1.0,0.35730000000012296
302,3,0.8,0.0625,-35.0,-1,1.0,0.5141000000000986
303,3,0.8,0.0625,-35.0,-1,1.0,5.557599999999866
304,3,0.8,1.0,-35.0,-1,1.0,0.23109999999996944
305,3,0.8,0.125,-35.0,-1,1.0,0.561200000000099
306,3,0.8,1.0,-35.0,-1,1.0,0.968199999999797
307,3,0.8,0.25,-35.0,-1,1.0,0.6955000000000382
308,3,0.8,1.0,-35.0,-1,1.0,0.32520000000022264
309,3,0.8,0.0,-35.0,-1,1.0,2.39870000000019
310,3,0.8,0.0625,35.0,1,1.0,0.7922000000000935
311,3,0.8,0.25,-35.0,-1,1.0,0.35580000000004475
312,3,0.8,0.125,35.0,1,1.0,4.682600000000093
313,3,0.8,0.0625,-35.0,-1,1.0,0.5595000000000709
314,3,0.8,0.125,-35.0,-1,1.0,0.6529000000000451
315,3,0.8,0.125,-35.0,-1,1.0,0.35639999999989413
316,3,0.8,0.0,-35.0,1,0.0,0.4099999999998545
317,3,0.8,0.0,-35.0,1,0.0,7.116999999999962
318,3,0.8,1.0,35.0,1,1.0,0.3572999999998956
319,3,0.8,0.0625,35.0,1,1.0,0.3041000000000622
320,3,0.8,0.0,-35.0,1,0.0,0.31750000000010914
321,3,0.8,1.0,-35.0,-1,1.0,0.24759999999992033
322,3,0.8,1.0,-35.0,-1,1.0,0.4477999999999156
323,3,0.8,0.0625,-35.0,1,0.0,5.834599999999909
324,3,0.8,0.125,-35.0,-1,1.0,0.2615000000000691
325,3,0.8,0.0,35.0,1,1.0,0.3816999999999098
326,3,0.8,0.25,35.0,1,1.0,0.39840000000003783
327,3,0.8,0.0625,-35.0,-1,1.0,0.6652999999998883
328,3,0.8,0.0625,-35.0,-1,1.0,0.9254000000000815
329,3,0.8,0.0625,-35.0,-1,1.0,0.5490999999999531
330,3,0.8,1.0,-35.0,-1,1.0,0.2723000000000866
331,3,0.8,0.125,35.0,1,1.0,0.34590000000002874
332,3,0.8,0.125,35.0,1,1.0,0.3893000000000484
