trial_num,session_num,stim_probability_left,contrast,position,response_choice,trial_correct,reaction_time
1,16,0.5,0.0,-35.0,-1,1.0,0.3206000000000002
2,16,0.5,1.0,35.0,-1,0.0,0.22609999999999886
3,16,0.5,0.0625,-35.0,-1,1.0,0.2284000000000006
4,16,0.5,0.0625,35.0,-1,0.0,0.16520000000000046
5,16,0.6,0.0625,35.0,-1,0.0,0.15880000000000116
6,16,0.5,1.0,-35.0,-1,1.0,0.2618000000000045
7,16,0.5,0.125,35.0,1,1.0,0.31339999999999435
8,16,0.5,0.0,-35.0,-1,1.0,0.20030000000000214
9,16,0.5,0.0625,35.0,-1,0.0,3.937599999999996
10,16,0.2,0.0625,35.0,1,1.0,3.1739999999999995
11,16,0.5,1.0,35.0,1,1.0,0.3842999999999961
12,16,0.5,0.25,-35.0,-1,1.0,1.1955999999999989
13,16,0.5,0.125,35.0,1,1.0,6.047499999999999
14,16,0.5,1.0,35.0,1,1.0,0.41029999999999944
15,16,0.5,0.25,35.0,1,1.0,0.4632999999999967
16,16,0.5,0.0,35.0,1,1.0,3.484900000000003
17,16,0.5,0.25,35.0,1,1.0,0.6702999999999975
18,16,0.5,0.0625,-35.0,-1,1.0,5.1791999999999945
19,16,0.5,0.125,-35.0,-1,1.0,0.5337999999999994
20,16,0.5,0.25,-35.0,-1,1.0,0.2739999999999867
21,16,0.5,0.25,35.0,-1,0.0,0.7055999999999898
22,16,0.5,0.25,35.0,-1,0.0,0.17079999999999984
23,16,0.5,0.25,35.0,-1,0.0,0.18529999999999802
24,16,0.5,0.125,-35.0,-1,1.0,0.29949999999999477
25,16,0.5,0.25,35.0,-1,0.0,0.6577999999999946
26,16,0.2,0.25,35.0,-1,0.0,0.3538999999999959
27,16,0.5,1.0,35.0,-1,0.0,0.1711999999999989
28,16,0.5,0.25,-35.0,-1,1.0,0.29299999999999216
29,16,0.5,0.25,-35.0,-1,1.0,0.13869999999998583
30,16,0.5,0.25,35.0,1,1.0,0.256299999999996
31,16,0.5,0.0625,-35.0,-1,1.0,0.4379000000000133
32,16,0.5,1.0,-35.0,-1,1.0,0.28059999999999263
33,16,0.5,1.0,35.0,-1,0.0,3.877900000000011
34,16,0.5,0.0,-35.0,-1,1.0,0.2312999999999903
35,16,0.5,0.125,35.0,1,1.0,0.5074999999999932
36,16,0.5,0.25,-35.0,-1,1.0,0.20170000000001664
37,16,0.5,0.125,-35.0,-1,1.0,0.248299999999972
38,16,0.5,0.25,35.0,1,1.0,3.2423
39,16,0.5,0.125,35.0,-1,0.0,0.237199999999973
40,16,0.5,0.0625,-35.0,-1,1.0,0.3719999999999857
41,16,0.5,0.0625,-35.0,-1,1.0,0.2481999999999971
42,16,0.5,1.0,35.0,1,1.0,1.072400000000016
43,16,0.5,0.25,-35.0,-1,1.0,0.4153999999999769
44,16,0.5,0.0,35.0,-1,0.0,6.566800000000001
45,16,0.3,0.0,35.0,1,1.0,0.1909989999999766
46,16,0.5,1.0,-35.0,-1,1.0,0.34549999999998704
47,16,0.5,1.0,-35.0,-1,1.0,0.18079999999997654
48,16,0.5,0.0,-35.0,1,0.0,0.29759999999998854
49,16,0.5,0.0,-35.0,-1,1.0,0.28469999999998663
50,16,0.5,0.125,35.0,-1,0.0,0.19499999999999318
51,16,0.5,0.25,-35.0,-1,1.0,0.16730000000001155
52,16,0.5,0.0625,-35.0,-1,1.0,0.21209999999996398
53,16,0.5,0.0625,-35.0,-1,1.0,0.5295999999999879
54,16,0.5,0.0625,-35.0,-1,1.0,6.565399999999983
55,16,0.5,1.0,-35.0,-1,1.0,0.5127999999999986
56,16,0.5,0.0,35.0,-1,0.0,0.31869999999997844
57,16,0.5,0.125,35.0,-1,0.0,0.16550000000000864
58,16,0.1,0.125,35.0,1,1.0,0.34719999999998663
59,16,0.5,1.0,35.0,1,1.0,0.2647999999999797
60,16,0.5,0.0625,35.0,-1,0.0,0.4118999999999744
61,16,0.5,0.125,35.0,1,1.0,0.2755999999999972
62,16,0.5,0.25,35.0,1,1.0,0.21320000000002892
63,16,0.5,0.125,35.0,1,1.0,0.2523999999999944
64,16,0.5,0.0625,35.0,1,1.0,0.4276000000000124
65,16,0.5,0.125,35.0,1,1.0,0.39629999999999654
66,16,0.5,0.0,-35.0,-1,1.0,2.965599999999995
67,16,0.5,1.0,35.0,1,1.0,0.6535000000000082
68,16,0.5,0.0625,35.0,1,1.0,0.24610000000001264
69,16,0.5,0.25,35.0,1,1.0,0.33619999999999095
70,16,0.5,1.0,35.0,1,1.0,0.4918999999999869
71,16,0.5,0.0625,35.0,1,1.0,0.48929999999998586
72,16,0.5,0.0625,35.0,1,1.0,0.5194000000000187
73,16,0.5,0.125,-35.0,-1,1.0,0.3684000000000083
74,16,0.5,0.25,35.0,1,1.0,0.2605000000000075
75,16,0.5,0.125,-35.0,-1,1.0,0.35870000000002733
76,16,0.5,0.25,35.0,1,1.0,0.8484000000000265
77,16,0.5,0.125,-35.0,-1,1.0,0.4630999999999972
78,16,0.5,1.0,35.0,1,1.0,0.3227000000000544
79,16,0.5,1.0,35.0,1,1.0,0.24680000000000746
80,16,0.5,0.125,-35.0,-1,1.0,0.38270000000005666
81,16,0.5,1.0,35.0,1,1.0,0.20489999999995234
82,16,0.5,1.0,-35.0,-1,1.0,0.24220000000002528
83,16,0.5,1.0,-35.0,-1,1.0,0.2736000000000445
84,16,0.5,0.0625,-35.0,1,0.0,0.6094000000000506
85,16,0.5,0.0625,-35.0,-1,1.0,0.45489999999995234
86,16,0.5,1.0,35.0,1,1.0,0.390199999999993
87,16,0.5,0.0625,35.0,-1,0.0,7.196899999999971
88,16,0.5,0.0625,-35.0,1,0.0,0.563199999999938
89,16,0.5,1.0,-35.0,-1,1.0,0.2961999999999989
90,16,0.5,1.0,-35.0,-1,1.0,0.36889999999999645
91,16,0.5,0.25,-35.0,-1,1.0,0.25540000000000873
92,16,0.5,0.125,-35.0,1,0.0,0.2048000000000343
93,16,0.5,0.125,-35.0,1,0.0,0.22459999999995262
94,16,0.5,0.25,-35.0,-1,1.0,0.2706999999999766
95,16,0.5,1.0,35.0,-1,0.0,14.206999999999994
96,16,0.5,0.0625,35.0,1,1.0,3.784999999999968
97,16,0.5,0.0625,35.0,-1,0.0,0.22369999999995116
98,16,0.4,0.0625,35.0,-1,0.0,0.20900000000000318
99,16,0.5,1.0,35.0,1,1.0,0.421799999999962
100,16,0.5,0.125,-35.0,-1,1.0,0.3583000000000425
101,16,0.5,0.125,35.0,1,1.0,0.4952000000000112
102,16,0.5,1.0,35.0,1,1.0,0.3106999999999971
103,16,0.5,1.0,35.0,1,1.0,0.22390000000001464
104,16,0.5,0.125,-35.0,-1,1.0,0.37079999999997426
105,16,0.5,0.25,-35.0,-1,1.0,0.48579999999998336
106,16,0.5,0.25,35.0,1,1.0,0.3351999999999862
107,16,0.5,0.0625,35.0,1,1.0,0.21200000000004593
108,16,0.5,0.0,-35.0,1,0.0,0.6655000000000086
109,16,0.7,0.0,-35.0,1,0.0,0.33569999999997435
110,16,0.5,1.0,35.0,1,1.0,0.25600000000002865
111,16,0.5,0.125,-35.0,-1,1.0,0.19530000000003156
112,16,0.5,0.25,35.0,1,1.0,0.5375999999999976
113,16,0.5,0.25,35.0,1,1.0,0.3007000000000062
114,16,0.5,1.0,-35.0,-1,1.0,0.24549999999999272
115,16,0.5,0.25,-35.0,-1,1.0,0.2336999999999989
116,16,0.5,0.0625,35.0,1,1.0,0.4241000000000099
117,16,0.5,0.125,35.0,-1,0.0,0.37210000000004584
118,16,0.6,0.125,-35.0,-1,1.0,0.4802999999999429
119,16,0.5,1.0,-35.0,-1,1.0,0.3144999999999527
120,16,0.5,0.125,-35.0,1,0.0,0.5687000000000353
121,16,0.5,0.0,35.0,-1,0.0,5.857899999999972
122,16,0.5,0.0,-35.0,1,0.0,0.2688999999999737
123,16,0.4,0.0,-35.0,-1,1.0,3.9254999999999427
124,16,0.5,1.0,-35.0,-1,1.0,0.6099999999999568
125,16,0.5,0.125,-35.0,1,0.0,6.069299999999998
126,16,0.4,0.125,-35.0,-1,1.0,0.31819999999999027
127,16,0.5,1.0,35.0,1,1.0,0.38060000000001537
128,16,0.5,1.0,-35.0,-1,1.0,0.18219999999996617
129,16,0.5,0.0625,35.0,1,1.0,0.2278999999999769
130,16,0.5,0.25,35.0,1,1.0,0.2855000000000132
131,16,0.5,0.125,-35.0,1,0.0,0.5287000000000148
132,16,0.5,0.125,35.0,1,1.0,0.23910000000000764
133,16,0.5,0.0,35.0,1,1.0,0.380299999999977
134,16,0.5,0.25,35.0,1,1.0,0.21519999999998163
135,16,0.5,0.125,-35.0,-1,1.0,0.41859999999996944
136,16,0.5,0.0,-35.0,1,0.0,0.4732999999999947
137,16,0.5,0.0625,35.0,-1,0.0,0.24169999999998026
138,16,0.5,0.25,-35.0,-1,1.0,0.21629999999998972
139,16,0.5,0.25,35.0,1,1.0,0.3120999999999867
140,16,0.5,0.125,35.0,1,1.0,0.24669999999997572
141,16,0.5,0.0625,-35.0,1,0.0,0.2767000000000621
142,16,0.5,0.125,-35.0,-1,1.0,0.19170000000002574
143,16,0.5,0.0625,35.0,1,1.0,5.738999999999976
144,16,0.5,1.0,-35.0,-1,1.0,0.642599999999959
145,16,0.5,0.25,-35.0,-1,1.0,0.9035999999999831
146,16,0.5,0.125,-35.0,-1,1.0,4.036200000000065
147,16,0.5,0.125,-35.0,1,0.0,1.7052999999999656
148,16,0.5,0.25,-35.0,-1,1.0,0.42950000000001864
149,16,0.5,0.25,35.0,1,1.0,0.3409000000000333
150,16,0.5,0.0,-35.0,1,0.0,0.3240000000000123
151,16,0.5,0.125,-35.0,-1,1.0,0.31589999999994234
152,16,0.5,0.0625,-35.0,-1,1.0,0.5235999999999876
153,16,0.5,1.0,-35.0,-1,1.0,0.09309999999993579
154,16,0.5,0.0,35.0,1,1.0,0.20450000000005275
155,16,0.5,1.0,35.0,1,1.0,0.2600999999999658
156,16,0.5,1.0,-35.0,-1,1.0,0.3547999999999547
157,16,0.5,1.0,-35.0,-1,1.0,0.3470999999999549
158,16,0.5,0.25,35.0,1,1.0,0.26300000000003365
159,16,0.5,0.125,-35.0,-1,1.0,0.35619999999994434
160,16,0.5,0.0625,-35.0,-1,1.0,0.5640000000000782
161,16,0.5,1.0,-35.0,-1,1.0,0.30989999999997053
162,16,0.5,0.0,35.0,-1,0.0,1.8652999999999338
163,16,0.5,0.125,-35.0,-1,1.0,0.27099999999995816
164,16,0.5,0.0625,35.0,-1,0.0,0.42820000000006075
165,16,0.2,0.0625,-35.0,1,0.0,0.25940000000002783
166,16,0.5,1.0,35.0,1,1.0,0.3246000000000322
167,16,0.5,0.25,-35.0,-1,1.0,4.454200000000014
168,16,0.5,0.0625,-35.0,1,0.0,0.3265999999999849
169,16,0.5,0.125,-35.0,-1,1.0,0.4229000000000269
170,16,0.5,0.0625,35.0,1,1.0,0.2658000000000129
171,16,0.5,0.0,35.0,1,1.0,0.28579999999988104
172,16,0.5,0.125,35.0,1,1.0,0.4174999999999045
173,16,0.5,0.0625,35.0,-1,0.0,0.3251000000000204
174,16,0.5,0.25,35.0,1,1.0,0.21119999999996253
175,16,0.5,0.125,-35.0,1,0.0,0.2056999999999789
176,16,0.5,0.0625,-35.0,-1,1.0,0.6086999999999989
177,16,0.5,0.0625,35.0,1,1.0,0.45309999999994943
178,16,0.5,0.125,-35.0,-1,1.0,4.004400000000032
179,16,0.5,0.125,35.0,1,1.0,0.2840000000001055
180,16,0.5,0.125,-35.0,-1,1.0,0.46690000000000964
181,16,0.5,1.0,35.0,1,1.0,0.19040000000006785
182,16,0.5,0.25,-35.0,-1,1.0,0.2515999999999394
183,16,0.5,0.0625,35.0,1,1.0,0.2803000000000111
184,16,0.5,0.25,-35.0,-1,1.0,0.26729999999986376
185,16,0.5,1.0,35.0,1,1.0,0.1977999999999156
186,16,0.5,0.125,-35.0,-1,1.0,0.3267999999999347
187,16,0.5,0.0625,-35.0,1,0.0,0.14639999999997144
188,16,0.5,0.0625,35.0,-1,0.0,0.19610000000000127
189,16,0.5,1.0,35.0,1,1.0,0.3229999999999791
190,16,0.5,0.25,35.0,1,1.0,0.5317999999999756
191,16,0.5,0.125,-35.0,-1,1.0,0.9057000000000244
192,16,0.5,1.0,35.0,1,1.0,0.22749999999996362
193,16,0.5,0.0,-35.0,-1,1.0,3.6696000000000595
194,16,0.5,0.0625,-35.0,-1,1.0,4.544999999999959
195,16,0.5,1.0,-35.0,-1,1.0,0.25070000000005166
196,16,0.5,1.0,35.0,1,1.0,0.22860000000002856
197,16,0.5,1.0,-35.0,-1,1.0,0.5299999999999727
198,16,0.5,0.125,-35.0,1,0.0,0.1894000000000915
199,16,0.5,0.0625,-35.0,1,0.0,0.18630000000007385
200,16,0.5,0.125,-35.0,-1,1.0,0.30150000000003274
201,16,0.5,0.0625,-35.0,1,0.0,0.2766000000000304
202,16,0.5,0.0625,-35.0,-1,1.0,0.17240000000003874
203,16,0.5,1.0,35.0,1,1.0,0.237700000000018
204,16,0.5,0.125,-35.0,-1,1.0,0.4511000000001104
205,16,0.5,1.0,35.0,1,1.0,0.22059999999999036
206,16,0.5,0.125,35.0,1,1.0,0.5663999999999305
207,16,0.5,1.0,35.0,1,1.0,0.0845000000000482
208,16,0.5,0.0625,35.0,1,1.0,1.2258000000000493
209,16,0.5,0.0625,35.0,1,1.0,0.29290000000003147
210,16,0.5,0.0,-35.0,-1,1.0,0.2880999999999858
211,16,0.5,0.25,35.0,1,1.0,0.21510000000000673
212,16,0.5,0.0,35.0,1,1.0,4.289700000000039
213,16,0.5,0.125,-35.0,1,0.0,0.31199999999989814
214,16,0.5,0.25,-35.0,-1,1.0,0.4560000000000173
215,16,0.5,0.25,35.0,1,1.0,0.5405999999999267
216,16,0.5,0.25,35.0,1,1.0,0.31550000000004275
217,16,0.5,0.125,-35.0,1,0.0,0.24680000000000746
218,16,0.5,0.0625,-35.0,-1,1.0,0.842899999999986
219,16,0.5,0.125,-35.0,-1,1.0,3.3478999999999814
220,16,0.5,0.25,35.0,1,1.0,0.23119999999994434
221,16,0.5,0.125,35.0,1,1.0,0.9233000000000402
222,16,0.5,0.25,-35.0,-1,1.0,0.33199999999999363
223,16,0.5,1.0,35.0,1,1.0,0.23109999999996944
224,16,0.5,0.125,-35.0,-1,1.0,0.4679999999999609
225,16,0.5,0.0625,-35.0,-1,1.0,0.3854000000000042
226,16,0.5,1.0,-35.0,-1,1.0,0.5893000000000939
227,16,0.5,0.25,-35.0,-1,1.0,0.3645999999999958
228,16,0.5,0.125,-35.0,-1,1.0,0.44460000000003674
229,16,0.5,0.125,-35.0,-1,1.0,0.4802999999999429
230,16,0.5,0.0625,-35.0,-1,1.0,3.872400000000084
231,16,0.5,0.0625,35.0,-1,0.0,0.40269999999998163
232,16,0.5,0.0,35.0,1,1.0,0.1712000000001126
233,16,0.5,0.125,-35.0,-1,1.0,0.32799999999997453
234,16,0.5,0.125,35.0,1,1.0,0.2719000000000733
235,16,0.5,1.0,35.0,1,1.0,0.3351000000000113
236,16,0.5,1.0,-35.0,-1,1.0,0.23320000000001073
237,16,0.5,1.0,-35.0,-1,1.0,0.25959899999998015
238,16,0.5,0.25,-35.0,-1,1.0,0.34750000000008185
239,16,0.5,1.0,-35.0,-1,1.0,0.261600000000044
240,16,0.5,1.0,-35.0,-1,1.0,0.5596000000000458
241,16,0.5,0.25,-35.0,-1,1.0,0.2581000000000131
242,16,0.5,0.0,35.0,-1,0.0,3.540300000000002
243,16,0.5,0.0,-35.0,-1,1.0,2.8822999999999865
244,16,0.5,0.125,35.0,1,1.0,0.6091999999999871
245,16,0.5,0.0625,-35.0,-1,1.0,0.4410000000000309
246,16,0.5,0.0,-35.0,-1,1.0,2.870700000000056
247,16,0.5,0.25,35.0,1,1.0,0.2695000000001073
248,16,0.5,0.125,35.0,1,1.0,0.3544999999999163
249,16,0.5,0.0,-35.0,-1,1.0,0.7018000000000484
250,16,0.5,1.0,35.0,1,1.0,0.2943000000000211
251,16,0.5,0.25,-35.0,-1,1.0,0.35530000000005657
252,16,0.5,0.25,35.0,1,1.0,0.36779999999998836
253,16,0.5,1.0,35.0,1,1.0,0.20460000000002765
254,16,0.5,0.0,-35.0,-1,1.0,0.4569000000001324
255,16,0.5,1.0,35.0,1,1.0,0.3669999999999618
256,16,0.5,1.0,-35.0,-1,1.0,0.30729999999994106
257,16,0.5,0.125,35.0,-1,0.0,0.10900000000003729
258,16,0.5,0.25,-35.0,-1,1.0,0.34740000000010696
259,16,0.5,0.0,35.0,-1,0.0,0.594600000000014
260,16,0.4,0.0,35.0,-1,0.0,0.33360000000004675
261,16,0.5,1.0,-35.0,-1,1.0,0.3202000000001135
262,16,0.5,0.125,-35.0,-1,1.0,1.1096999999999753
263,16,0.5,0.0625,-35.0,-1,1.0,7.00890000000004
264,16,0.5,1.0,-35.0,-1,1.0,0.560100000000034
265,16,0.5,0.0625,-35.0,-1,1.0,5.224599999999896
266,16,0.5,1.0,-35.0,-1,1.0,0.28759999999999764
267,16,0.5,0.125,35.0,1,1.0,0.2644999999999982
268,16,0.5,1.0,-35.0,-1,1.0,0.24049999999999727
269,16,0.5,0.25,35.0,1,1.0,0.30700000000001637
270,16,0.5,1.0,35.0,1,1.0,0.25739999999996144
271,16,0.5,1.0,35.0,1,1.0,0.8228999999998905
272,16,0.5,0.125,-35.0,-1,1.0,0.3390000000000555
273,16,0.5,0.0625,35.0,-1,0.0,3.716699999999946
274,16,0.5,0.25,35.0,1,1.0,0.10740000000009786
275,16,0.5,0.0,-35.0,1,0.0,0.2418999999999869
276,16,0.5,0.0,-35.0,1,0.0,0.32159999999998945
277,16,0.5,0.0,-35.0,-1,1.0,0.2802000000000362
278,16,0.5,0.125,35.0,1,1.0,0.2459999999999809
279,16,0.5,0.25,-35.0,-1,1.0,0.3614000000000033
280,16,0.5,0.125,35.0,1,1.0,0.7710000000000719
281,16,0.5,0.0625,-35.0,-1,1.0,0.5137999999999465
282,16,0.5,0.125,35.0,1,1.0,0.5459000000000742
283,16,0.5,0.0625,35.0,-1,0.0,0.35349999999994
284,16,0.5,0.125,35.0,-1,0.0,0.5430000000000064
285,16,0.5,0.25,35.0,-1,0.0,0.6488000000000511
286,16,0.5,0.25,-35.0,-1,1.0,0.6652000000000271
287,16,0.5,1.0,35.0,1,1.0,0.21649999999999636
288,16,0.5,1.0,35.0,1,1.0,0.18659999999999854
289,16,0.5,0.0625,35.0,-1,0.0,0.27480000000002747
290,16,0.4,0.0625,-35.0,-1,1.0,0.42299999999988813
291,16,0.5,1.0,-35.0,-1,1.0,0.5540999999999485
292,16,0.5,0.25,35.0,1,1.0,0.21339999999997872
293,16,0.5,0.125,-35.0,-1,1.0,0.4136999999998352
294,16,0.5,0.25,-35.0,-1,1.0,0.6544000000000096
295,16,0.5,0.0625,-35.0,-1,1.0,4.878900000000044
296,16,0.5,0.125,-35.0,-1,1.0,0.3645000000000209
297,16,0.5,1.0,-35.0,-1,1.0,0.79950000000008
298,16,0.5,0.25,-35.0,-1,1.0,0.32569999999998345
299,16,0.5,0.25,35.0,1,1.0,0.921799999999962
300,16,0.5,0.0625,35.0,-1,0.0,3.3198000000001002
301,16,0.2,0.0625,35.0,-1,0.0,0.39049999999997453
302,16,0.5,1.0,35.0,1,1.0,0.20240000000001146
303,16,0.5,1.0,35.0,1,1.0,0.24909999999999854
304,16,0.5,0.0625,35.0,-1,0.0,6.008000000000038
305,16,0.5,0.25,35.0,1,1.0,0.24480000000005475
306,16,0.5,1.0,35.0,1,1.0,0.3263999999999214
307,16,0.5,0.125,35.0,1,1.0,0.30750000000000455
308,16,0.5,0.0,35.0,1,1.0,0.20600000000001728
309,16,0.5,0.25,-35.0,-1,1.0,0.33990000000005693
310,16,0.5,0.25,-35.0,-1,1.0,10.984500000000025
311,16,0.5,0.25,-35.0,-1,1.0,0.34340000000008786
312,16,0.5,1.0,35.0,1,1.0,0.2986999999999398
313,16,0.5,0.0625,-35.0,-1,1.0,1.3177999999999201
314,16,0.5,0.0625,35.0,1,1.0,0.36379999999996926
315,16,0.5,1.0,-35.0,-1,1.0,0.2806000000000495
316,16,0.5,0.25,-35.0,-1,1.0,0.37409999999999854
317,16,0.5,0.25,35.0,1,1.0,0.3341000000000349
318,16,0.5,0.0,35.0,-1,0.0,0.9809999999999945
319,16,0.3,0.0,35.0,-1,0.0,0.3745999999999867
320,16,0.5,1.0,35.0,1,1.0,0.2478000000000975
321,16,0.5,1.0,35.0,1,1.0,0.20489999999995234
322,16,0.5,0.125,-35.0,1,0.0,0.2644000000000233
323,16,0.5,0.125,-35.0,-1,1.0,0.20790000000010878
324,16,0.5,1.0,35.0,1,1.0,0.2180999999998221
325,16,0.5,0.25,-35.0,-1,1.0,0.35809999999992215
326,16,0.5,0.0625,35.0,1,1.0,0.3848000000000411
327,16,0.5,0.0,-35.0,1,0.0,0.49500000000011823
328,16,0.5,0.0,-35.0,-1,1.0,0.3455999999998767
329,16,0.5,0.125,-35.0,1,0.0,0.26539999999999964
330,16,0.5,0.25,-35.0,-1,1.0,0.3183999999998832
331,16,0.5,1.0,35.0,1,1.0,0.45499999999992724
332,16,0.5,0.25,-35.0,-1,1.0,0.5488000000000284
333,16,0.5,0.0625,-35.0,-1,1.0,0.5083999999999378
334,16,0.5,1.0,-35.0,-1,1.0,0.34520000000020445
335,16,0.5,0.125,-35.0,-1,1.0,5.128500000000031
336,16,0.5,0.0625,35.0,-1,0.0,0.5688000000000102
337,16,0.5,0.0,35.0,-1,0.0,2.7123999999998887
338,16,0.2,0.0,35.0,-1,0.0,0.6492000000000644
339,16,0.5,1.0,-35.0,-1,1.0,0.4125000000001364
340,16,0.5,0.25,-35.0,-1,1.0,0.5996000000000095
341,16,0.5,0.0625,35.0,-1,0.0,5.862800000000107
342,16,0.0,0.0625,35.0,-1,0.0,0.342600000000175
343,16,0.5,1.0,35.0,1,1.0,0.24620000000004438
344,16,0.5,1.0,-35.0,-1,1.0,0.2566999999999098
345,16,0.5,0.0625,-35.0,-1,1.0,4.722999999999729
346,16,0.5,1.0,-35.0,-1,1.0,0.38639999999986685
347,16,0.5,0.0625,-35.0,1,0.0,3.9064999999998236
348,16,0.5,0.25,-35.0,-1,1.0,48.97700000000009
349,16,0.5,0.0625,-35.0,-1,1.0,2.1844999999998436
350,16,0.5,0.0,-35.0,1,0.0,0.4617000000000644
351,16,0.5,0.25,-35.0,-1,1.0,0.4454000000000633
352,16,0.5,0.125,35.0,1,1.0,0.4915000000000873
353,16,0.5,0.0,35.0,1,1.0,0.27149999999983265
354,16,0.5,0.0625,35.0,1,1.0,0.24539999999979045
355,16,0.5,0.0,-35.0,1,0.0,0.20860000000016043
356,16,0.5,0.125,35.0,1,1.0,0.24499999999989086
357,16,0.5,0.125,-35.0,1,0.0,0.8150999999998021
358,16,0.7,0.125,-35.0,1,0.0,0.2685999999998785
359,16,0.5,1.0,-35.0,-1,1.0,0.29549999999994725
360,16,0.5,0.125,35.0,-1,0.0,0.3588999999999487
361,16,0.5,0.125,35.0,-1,0.0,0.35200000000008913
362,16,0.7,0.125,-35.0,-1,1.0,0.3161999999999807
363,16,0.5,1.0,-35.0,-1,1.0,0.336100000000215
364,16,0.5,0.25,-35.0,-1,1.0,3.7554990000001
365,16,0.5,0.0,-35.0,1,0.0,0.33910000000014406
366,16,0.5,0.0625,-35.0,-1,1.0,3.059099999999944
367,16,0.5,0.0625,35.0,1,1.0,0.2296000000001186
368,16,0.5,0.125,35.0,1,1.0,0.44640000000003965
369,16,0.5,0.125,35.0,1,1.0,0.2861000000000331
370,16,0.5,0.125,35.0,1,1.0,0.23969999999985703
371,16,0.5,0.125,35.0,1,1.0,0.3328999999998814
372,16,0.5,0.25,35.0,1,1.0,0.22309999999993124
373,16,0.5,0.25,-35.0,1,0.0,0.22959999999989122
374,16,0.5,0.125,35.0,1,1.0,0.23989999999980682
375,16,0.5,0.0625,35.0,1,1.0,0.2235000000000582
376,16,0.5,1.0,35.0,1,1.0,0.23319999999989705
377,16,0.5,1.0,35.0,1,1.0,0.38019999999983156
378,16,0.5,1.0,-35.0,-1,1.0,0.21400000000016917
379,16,0.5,0.25,35.0,1,1.0,0.23720000000002983
380,16,0.5,1.0,35.0,1,1.0,0.1773000000000593
381,16,0.5,1.0,-35.0,-1,1.0,0.3170999999999822
382,16,0.5,0.0625,35.0,1,1.0,0.3442999999999756
383,16,0.5,0.25,35.0,1,1.0,0.30070000000023356
384,16,0.5,0.0625,-35.0,1,0.0,0.20109999999999673
385,16,0.5,0.0625,35.0,1,1.0,0.39390000000025793
386,16,0.5,0.125,35.0,1,1.0,0.2575000000001637
387,16,0.5,0.0,-35.0,1,0.0,0.17069999999989705
388,16,0.5,0.25,35.0,1,1.0,0.3278000000002521
389,16,0.5,1.0,35.0,1,1.0,0.31409999999982574
390,16,0.5,0.0625,-35.0,-1,1.0,0.9640999999999167
391,16,0.5,0.25,-35.0,-1,1.0,0.5180999999997766
392,16,0.5,0.25,35.0,1,1.0,0.20440000000007785
393,16,0.5,0.25,-35.0,-1,1.0,2.061200000000099
394,16,0.5,0.125,-35.0,-1,1.0,0.3342999999999847
395,16,0.5,0.25,35.0,1,1.0,0.5381999999999607
396,16,0.5,0.0,35.0,-1,0.0,0.32140000000003965
397,16,0.5,0.0,-35.0,-1,1.0,0.3249999999998181
398,16,0.5,1.0,35.0,1,1.0,0.2117000000000644
399,16,0.5,0.125,35.0,1,1.0,0.21820000000002437
400,16,0.5,0.125,-35.0,1,0.0,0.22840000000019245
401,16,0.5,0.125,-35.0,-1,1.0,0.44830000000001746
402,16,0.5,1.0,-35.0,-1,1.0,0.32910000000015316
403,16,0.5,0.0625,35.0,1,1.0,0.3183999999998832
404,16,0.5,0.125,-35.0,-1,1.0,0.7817000000000007
405,16,0.5,0.0625,-35.0,-1,1.0,4.078899999999976
406,16,0.5,0.0625,35.0,1,1.0,0.23530000000005202
407,16,0.5,1.0,-35.0,-1,1.0,0.30549999999993815
408,16,0.5,0.125,-35.0,-1,1.0,0.2621000000001459
409,16,0.5,0.125,35.0,1,1.0,0.38220000000001164
410,16,0.5,1.0,-35.0,-1,1.0,0.1791000000000622
411,16,0.5,1.0,-35.0,-1,1.0,0.2723999999998341
412,16,0.5,0.25,35.0,1,1.0,0.30939999999986867
413,16,0.5,0.0625,35.0,-1,0.0,0.26579999999989923
414,16,0.5,0.25,35.0,1,1.0,0.18650000000002365
415,16,0.5,0.0,-35.0,1,0.0,0.1994000000001961
416,16,0.5,0.125,-35.0,-1,1.0,0.5729000000001179
417,16,0.5,0.125,35.0,-1,0.0,0.48949999999990723
418,16,0.5,0.25,35.0,-1,0.0,0.3527999999998883
419,16,0.5,0.0625,-35.0,-1,1.0,0.2699999999999818
420,16,0.5,0.125,35.0,1,1.0,0.5033000000000811
421,16,0.5,0.0625,35.0,1,1.0,0.5769000000000233
422,16,0.5,1.0,-35.0,-1,1.0,0.2598000000000411
423,16,0.5,0.125,-35.0,-1,1.0,0.31989999999996144
424,16,0.5,1.0,35.0,1,1.0,0.2138999999999669
425,16,0.5,0.0625,-35.0,-1,1.0,3.766700000000128
426,16,0.5,0.25,35.0,1,1.0,0.22029999999995198
427,16,0.5,0.25,-35.0,-1,1.0,0.3307999999999538
428,16,0.5,0.125,-35.0,-1,1.0,0.35389999999983957
429,16,0.5,0.0,35.0,-1,0.0,0.3270999999999731
430,16,0.5,0.0625,35.0,-1,0.0,0.4338999999999942
431,16,0.3,0.0625,35.0,-1,0.0,0.5606999999997697
432,16,0.5,1.0,35.0,1,1.0,0.2675000000001546
433,16,0.5,0.0,-35.0,1,0.0,0.3008999999997286
434,16,0.5,0.0,35.0,-1,0.0,3.6879999999998745
435,16,0.3,0.0,35.0,1,1.0,0.47460000000000946
436,16,0.5,1.0,-35.0,-1,1.0,0.3246999999998934
437,16,0.5,0.125,35.0,1,1.0,0.328499999999849
438,16,0.5,0.25,-35.0,-1,1.0,4.671400000000176
439,16,0.5,1.0,35.0,1,1.0,0.20479999999997744
440,16,0.5,0.0,-35.0,-1,1.0,0.3449000000000524
441,16,0.5,0.0,35.0,1,1.0,0.2617000000000189
442,16,0.5,0.25,-35.0,-1,1.0,0.47519999999985885
443,16,0.5,0.0625,-35.0,1,0.0,0.14170000000012806
444,16,0.5,0.25,-35.0,-1,1.0,0.20659999999998035
445,16,0.5,0.25,35.0,1,1.0,0.2266999999997097
446,16,0.5,0.125,-35.0,-1,1.0,0.31340000000000146
447,16,0.5,0.125,35.0,1,1.0,0.21700000000009823
448,16,0.5,0.25,-35.0,-1,1.0,0.32349999999996726
449,16,0.5,0.0625,-35.0,-1,1.0,0.4301999999997861
450,16,0.5,0.125,35.0,-1,0.0,0.2905000000000655
451,16,0.5,0.0,35.0,-1,0.0,0.2338999999999487
452,16,0.5,0.125,-35.0,-1,1.0,0.14380000000005566
453,16,0.5,0.25,35.0,1,1.0,0.5138000000001739
454,16,0.5,0.125,35.0,1,1.0,0.31399999999985084
455,16,0.5,0.0,-35.0,1,0.0,0.2907000000000153
456,16,0.5,0.25,35.0,1,1.0,0.24739999999997053
457,16,0.5,0.0625,-35.0,1,0.0,0.24079999999980828
458,16,0.5,0.0625,-35.0,1,0.0,0.3408999999999196
459,16,0.5,1.0,35.0,1,1.0,0.19100000000003092
460,16,0.5,0.0625,-35.0,-1,1.0,5.970999999999776
461,16,0.5,0.0625,-35.0,1,0.0,0.21790000000009968
462,16,0.8,0.0625,35.0,1,1.0,0.537900000000036
463,16,0.5,1.0,-35.0,-1,1.0,0.46469999999999345
464,16,0.5,1.0,35.0,1,1.0,0.20469999999977517
465,16,0.5,0.125,-35.0,-1,1.0,0.32819999999992433
466,16,0.5,0.25,35.0,1,1.0,0.2115000000001146
467,16,0.5,1.0,35.0,1,1.0,0.20489999999995234
468,16,0.5,0.125,-35.0,-1,1.0,1.05170000000021
469,16,0.5,1.0,-35.0,-1,1.0,0.26850000000013097
470,16,0.5,0.125,-35.0,-1,1.0,0.39190000000007785
471,16,0.5,1.0,35.0,1,1.0,0.27520000000004075
472,16,0.5,0.0625,35.0,1,1.0,0.24880000000007385
473,16,0.5,0.0625,-35.0,-1,1.0,0.5486000000000786
474,16,0.5,0.0625,35.0,-1,0.0,1.2187999999998738
475,16,0.5,0.25,-35.0,-1,1.0,0.3887999999999465
476,16,0.5,1.0,35.0,1,1.0,0.26880000000005566
477,16,0.5,0.0625,-35.0,-1,1.0,0.31219999999984793
478,16,0.5,1.0,35.0,1,1.0,0.2422999999998865
479,16,0.5,0.0625,35.0,1,1.0,0.40229999999996835
480,16,0.5,1.0,-35.0,-1,1.0,0.2725000000000364
481,16,0.5,0.125,35.0,-1,0.0,3.9592999999999847
482,16,0.5,0.0,-35.0,-1,1.0,0.20610000000010587
483,16,0.5,1.0,35.0,1,1.0,0.2060999999998785
484,16,0.5,0.125,35.0,1,1.0,0.5162000000000262
485,16,0.5,0.0625,-35.0,1,0.0,0.35619999999994434
486,16,0.6,0.0625,-35.0,1,0.0,0.23650000000020555
487,16,0.5,1.0,-35.0,-1,1.0,0.2763999999999669
488,16,0.5,1.0,35.0,1,1.0,0.2563999999999851
489,16,0.5,0.0625,35.0,1,1.0,0.41980000000012296
490,16,0.5,0.0,35.0,1,1.0,0.3365000000001146
491,16,0.5,0.0625,-35.0,1,0.0,0.24329999999986285
492,16,0.5,0.125,35.0,1,1.0,0.2265999999997348
493,16,0.5,0.0625,-35.0,-1,1.0,1.1401999999998225
494,16,0.5,0.125,35.0,1,1.0,0.2401999999999589
495,16,0.5,0.0,-35.0,1,0.0,0.24679999999989377
496,16,0.5,0.25,-35.0,-1,1.0,0.32369999999991705
497,16,0.5,1.0,-35.0,-1,1.0,0.3270999999999731
498,16,0.5,1.0,-35.0,-1,1.0,0.42039999999997235
499,16,0.5,1.0,35.0,1,1.0,0.2338999999999487
500,16,0.5,1.0,35.0,-1,0.0,4.067299999999932
501,16,0.5,0.125,35.0,-1,0.0,0.3041000000002896
502,16,0.5,0.25,35.0,1,1.0,0.1974999999999909
503,16,0.5,0.0625,-35.0,1,0.0,0.2341999999998734
504,16,0.5,0.125,35.0,-1,0.0,0.20770000000015898
505,16,0.5,0.125,35.0,1,1.0,0.3644000000001597
506,16,0.5,1.0,35.0,1,1.0,0.44460000000003674
507,16,0.5,0.25,35.0,1,1.0,0.23469999999997526
508,16,0.5,0.25,-35.0,-1,1.0,0.4779999999998381
509,16,0.5,0.125,-35.0,-1,1.0,0.7080000000000837
510,16,0.5,0.0625,-35.0,-1,1.0,0.364699999999857
511,16,0.5,0.0625,35.0,1,1.0,0.19489999999996144
512,16,0.5,0.125,-35.0,-1,1.0,3.6915999999998803
513,16,0.5,0.0625,35.0,1,1.0,0.27510000000006585
514,16,0.5,0.125,35.0,1,1.0,0.3117000000002008
515,16,0.5,0.125,-35.0,-1,1.0,0.5217999999999847
516,16,0.5,0.125,-35.0,-1,1.0,0.3185000000000855
517,16,0.5,0.0625,35.0,1,1.0,0.581899999999905
518,16,0.5,0.0,35.0,-1,0.0,0.5087000000000899
519,16,0.5,0.0,-35.0,-1,1.0,0.4920999999997093
520,16,0.5,1.0,35.0,1,1.0,0.23890000000005784
521,16,0.5,0.125,-35.0,1,0.0,0.17889999999988504
522,16,0.5,0.25,-35.0,-1,1.0,0.31559999999990396
523,16,0.5,0.0,-35.0,1,0.0,0.49240000000008877
524,16,0.5,0.0625,35.0,-1,0.0,0.3690999999998894
525,16,0.5,0.125,35.0,1,1.0,0.22919999999999163
526,16,0.5,1.0,-35.0,-1,1.0,0.25260000000002947
527,16,0.5,1.0,-35.0,-1,1.0,0.2859000000000833
528,16,0.5,0.125,35.0,1,1.0,0.23279999999999745
529,16,0.5,1.0,-35.0,-1,1.0,0.33609999999998763
530,16,0.5,0.0,-35.0,-1,1.0,0.32950000000005275
531,16,0.5,0.0,35.0,-1,0.0,3.3496999999999844
532,16,0.5,0.0625,-35.0,1,0.0,0.40640000000007603
533,16,0.4,0.0625,-35.0,-1,1.0,0.3432000000000244
534,16,0.5,1.0,-35.0,-1,1.0,0.2699000000000069
535,16,0.5,0.25,-35.0,-1,1.0,0.40660000000002583
536,16,0.5,1.0,35.0,1,1.0,0.4299999999998363
537,16,0.5,0.25,-35.0,-1,1.0,0.5168999999998505
538,16,0.5,0.125,-35.0,-1,1.0,0.5535999999999603
539,16,0.5,0.25,-35.0,-1,1.0,5.3069000000000415
540,16,0.5,0.25,35.0,1,1.0,0.3269999999999982
541,16,0.5,0.125,35.0,1,1.0,0.6003999999998086
542,16,0.5,0.0625,-35.0,1,0.0,2.5371000000000095
543,16,0.5,0.25,35.0,1,1.0,0.2139999999999418
544,16,0.5,1.0,35.0,1,1.0,0.23069999999984248
545,16,0.5,0.125,-35.0,-1,1.0,0.3607999999999265
546,16,0.5,0.25,35.0,1,1.0,0.28089999999997417
547,16,0.5,0.25,35.0,1,1.0,0.22759999999993852
548,16,0.5,0.125,35.0,1,1.0,0.2544000000000324
549,16,0.5,0.0625,-35.0,-1,1.0,1.0643999999999778
550,16,0.5,0.125,-35.0,-1,1.0,5.467800000000125
551,16,0.5,0.25,-35.0,-1,1.0,0.49139999999988504
552,16,0.5,0.25,-35.0,-1,1.0,0.37469999999984793
553,16,0.5,1.0,-35.0,-1,1.0,0.38809999999989486
554,16,0.5,0.125,-35.0,-1,1.0,0.5815000000000055
555,16,0.5,1.0,-35.0,-1,1.0,0.3048999999998614
556,16,0.5,0.25,35.0,1,1.0,0.365099999999984
557,16,0.5,1.0,-35.0,-1,1.0,0.3084000000001197
558,16,0.5,0.0625,35.0,-1,0.0,0.3851999999999407
559,16,0.5,0.25,-35.0,-1,1.0,0.25520000000005894
560,16,0.5,0.25,-35.0,-1,1.0,0.5819000000001324
561,16,0.5,0.25,-35.0,-1,1.0,0.30530000000021573
562,16,0.5,0.0625,-35.0,-1,1.0,4.2922000000000935
563,16,0.5,1.0,35.0,1,1.0,0.21560000000022228
564,16,0.5,0.25,35.0,1,1.0,0.18559999999979482
565,16,0.5,0.0625,35.0,1,1.0,0.4757999999999356
566,16,0.5,1.0,-35.0,-1,1.0,0.2725000000000364
567,16,0.5,0.125,-35.0,-1,1.0,0.3391999999998916
568,16,0.5,0.125,35.0,1,1.0,0.23260000000004766
569,16,0.5,0.25,-35.0,-1,1.0,0.4893000000001848
570,16,0.5,0.0625,35.0,1,1.0,0.5595000000000709
571,16,0.5,0.0625,-35.0,-1,1.0,4.956199999999853
572,16,0.5,1.0,-35.0,-1,1.0,0.3495999999997821
573,16,0.5,0.0625,35.0,1,1.0,0.2563999999999851
574,16,0.5,1.0,35.0,1,1.0,0.6098000000001775
575,16,0.5,1.0,35.0,1,1.0,0.21659999999997126
576,16,0.5,0.0625,35.0,-1,0.0,7.733300000000099
577,16,0.5,0.0625,-35.0,-1,1.0,0.4468000000001666
578,16,0.5,0.25,35.0,1,1.0,0.25699999999983447
579,16,0.5,0.0625,35.0,1,1.0,0.3735999999998967
580,16,0.5,0.25,35.0,1,1.0,0.4737000000002354
581,16,0.5,0.125,-35.0,1,0.0,0.70049999999992
582,16,0.5,0.125,-35.0,-1,1.0,0.49720000000002074
583,16,0.5,0.0,35.0,1,1.0,0.21720000000004802
584,16,0.5,0.0625,35.0,1,1.0,0.23730000000000473
585,16,0.5,1.0,-35.0,-1,1.0,0.29399999999986903
586,16,0.5,0.0,35.0,1,1.0,0.6208000000001448
587,16,0.5,0.0,-35.0,1,0.0,0.284099999999853
588,16,0.5,0.0625,35.0,1,1.0,0.4110000000000582
589,16,0.5,1.0,35.0,1,1.0,0.20090000000004693
590,16,0.5,0.25,-35.0,-1,1.0,0.6077000000000226
591,16,0.5,0.0625,-35.0,1,0.0,0.2878000000000611
592,16,0.7,0.0625,-35.0,1,0.0,0.3612000000000535
593,16,0.5,1.0,35.0,1,1.0,0.33789999999999054
594,16,0.5,0.125,35.0,1,1.0,0.554700000000139
595,16,0.5,0.0625,-35.0,1,0.0,0.2480000000000473
596,16,0.5,0.0625,-35.0,-1,1.0,3.9480999999998403
597,16,0.5,0.0625,-35.0,-1,1.0,0.6048999999998159
598,16,0.5,1.0,-35.0,-1,1.0,5.008399999999938
599,16,0.5,0.125,-35.0,-1,1.0,0.5486000000000786
600,16,0.5,0.25,-35.0,-1,1.0,5.211900000000014
601,16,0.5,0.0,35.0,-1,0.0,5.225400000000036
602,16,0.5,0.125,-35.0,1,0.0,0.26900000000000546
603,16,0.5,0.25,35.0,1,1.0,0.5589999999999691
604,16,0.5,0.0,35.0,-1,0.0,5.339099999999917
605,16,0.5,0.0625,-35.0,-1,1.0,0.5026000000000295
606,16,0.5,1.0,-35.0,-1,1.0,0.5094000000001415
607,16,0.5,0.0625,35.0,-1,0.0,8.082800000000134
608,16,0.5,0.25,-35.0,-1,1.0,0.5729999999998654
609,16,0.5,0.25,35.0,1,1.0,0.8831000000000131
610,16,0.5,0.25,35.0,1,1.0,0.3198000000002139
611,16,0.5,0.0625,-35.0,1,0.0,0.24330000000009022
612,16,0.5,0.0625,-35.0,1,0.0,0.30340000000001055
613,16,0.5,1.0,-35.0,-1,1.0,0.3002999999998792
614,16,0.5,0.0625,-35.0,-1,1.0,0.7634000000000469
615,16,0.5,0.25,-35.0,-1,1.0,0.2636000000002241
616,16,0.5,1.0,-35.0,-1,1.0,0.42689999999993233
617,16,0.5,1.0,-35.0,-1,1.0,0.27359999999998763
618,16,0.5,0.0625,-35.0,-1,1.0,8.467100000000073
619,16,0.5,0.0625,35.0,1,1.0,0.49729999999999563
620,16,0.5,0.125,35.0,1,1.0,0.24070000000028813
621,16,0.5,1.0,35.0,1,1.0,0.26080000000001746
622,16,0.5,1.0,-35.0,-1,1.0,0.28749999999990905
623,16,0.5,0.0625,-35.0,1,0.0,0.2942000000000462
624,16,0.5,0.0625,-35.0,1,0.0,0.3342999999999847
625,16,0.5,0.25,35.0,-1,0.0,0.22779999999988831
626,16,0.5,0.25,35.0,-1,0.0,0.3710999999998421
627,16,0.5,0.125,35.0,1,1.0,0.42790000000013606
628,16,0.5,0.0625,35.0,1,1.0,0.22119999999995343
629,16,0.5,0.0625,35.0,1,1.0,0.1214999999997417
630,16,0.5,1.0,-35.0,-1,1.0,0.28129999999987376
631,16,0.5,0.125,-35.0,-1,1.0,0.404700000000048
632,16,0.5,0.25,35.0,1,1.0,0.4614000000001397
633,16,0.5,1.0,35.0,1,1.0,0.3683000000000902
634,16,0.5,0.25,-35.0,-1,1.0,0.2982999999999265
635,16,0.5,1.0,35.0,1,1.0,0.21829999999999927
636,16,0.5,0.25,35.0,1,1.0,0.18170000000009168
637,16,0.5,1.0,-35.0,-1,1.0,0.2717000000002372
638,16,0.5,0.25,35.0,1,1.0,0.2153000000002976
639,16,0.5,0.125,35.0,1,1.0,0.2418999999999869
640,16,0.5,0.125,-35.0,-1,1.0,0.5585000000000946
641,16,0.5,0.0625,-35.0,1,0.0,0.181999999999789
642,16,0.5,0.0625,35.0,-1,0.0,0.2921000000001186
643,16,0.5,0.0625,-35.0,-1,1.0,0.2954000000004271
644,16,0.5,0.25,35.0,1,1.0,0.25549999999975626
645,16,0.5,0.0625,35.0,1,1.0,0.4655999999999949
646,16,0.5,0.0625,-35.0,-1,1.0,0.40570000000025175
647,16,0.5,0.0,-35.0,1,0.0,0.19239999999990687
648,16,0.5,0.25,35.0,1,1.0,0.47250000000030923
649,16,0.5,0.125,35.0,1,1.0,0.315900000000056
650,16,0.5,0.25,35.0,1,1.0,0.4027000000000953
651,16,0.5,0.25,35.0,1,1.0,0.5492999999996755
652,16,0.5,1.0,-35.0,-1,1.0,0.2694000000001324
653,16,0.5,0.0,-35.0,1,0.0,0.22280000000000655
654,16,0.5,0.25,35.0,1,1.0,0.22620000000006257
655,16,0.5,0.0625,35.0,1,1.0,0.5162000000000262
656,16,0.5,1.0,35.0,1,1.0,0.2962999999999738
657,16,0.5,0.0,-35.0,1,0.0,0.26969999999982974
658,16,0.9,0.0,-35.0,-1,1.0,0.273099999999431
659,16,0.5,1.0,-35.0,-1,1.0,0.2699000000002343
660,16,0.5,0.25,-35.0,-1,1.0,0.45659999999998035
661,16,0.5,0.0625,-35.0,-1,1.0,0.28680000000031214
662,16,0.5,0.25,35.0,1,1.0,0.24999999999954525
663,16,0.5,1.0,-35.0,-1,1.0,0.326799999999821
664,16,0.5,1.0,-35.0,-1,1.0,0.2701999999999316
665,16,0.5,0.25,35.0,1,1.0,0.2568999999998596
666,16,0.5,0.25,35.0,1,1.0,0.3636999999998807
667,16,0.5,0.25,35.0,1,1.0,0.27040000000033615
668,16,0.5,0.0,-35.0,-1,1.0,0.2705000000000837
669,16,0.5,0.0625,35.0,1,1.0,0.24700000000029831
670,16,0.5,0.0625,-35.0,1,0.0,0.30389999999988504
671,16,0.5,0.0,-35.0,-1,1.0,0.28050000000030195
672,16,0.5,0.125,35.0,1,1.0,0.1938999999997577
673,16,0.5,0.125,35.0,1,1.0,0.2306999999996151
674,16,0.5,0.125,35.0,1,1.0,0.057400000000143336
675,16,0.5,0.0625,-35.0,-1,1.0,3.5740999999998166
676,16,0.5,0.0,-35.0,1,0.0,0.43089999999983775
677,16,0.5,0.0625,35.0,1,1.0,0.23759999999992942
678,16,0.5,0.125,-35.0,-1,1.0,0.5409999999997126
679,16,0.5,1.0,-35.0,-1,1.0,0.32110000000011496
680,16,0.5,0.125,-35.0,-1,1.0,0.4377999999996973
681,16,0.5,0.25,35.0,1,1.0,0.24459999999953652
682,16,0.5,1.0,-35.0,-1,1.0,0.3012999999996282
683,16,0.5,0.0625,-35.0,-1,1.0,0.39800000000013824
684,16,0.5,1.0,35.0,1,1.0,0.26139999999986685
685,16,0.5,0.25,-35.0,-1,1.0,0.31140000000004875
686,16,0.5,0.0625,-35.0,1,0.0,0.2715000000002874
687,16,0.5,0.0625,35.0,1,1.0,0.2481999999999971
688,16,0.5,0.0,35.0,-1,0.0,0.6815999999998894
689,16,0.5,0.125,-35.0,1,0.0,0.30179999999973006
690,16,0.5,0.0625,-35.0,1,0.0,0.26870000000008076
691,16,0.6,0.0625,-35.0,-1,1.0,0.631800000000112
692,16,0.5,1.0,-35.0,-1,1.0,0.42200000000002547
693,16,0.5,0.0625,35.0,1,1.0,0.41540000000031796
694,16,0.5,0.125,-35.0,-1,1.0,0.3686999999999898
695,16,0.5,0.0625,35.0,1,1.0,0.15210000000024593
696,16,0.5,0.0625,35.0,1,1.0,0.41229999999995925
697,16,0.5,0.25,-35.0,-1,1.0,0.37229999999999563
698,16,0.5,0.125,-35.0,-1,1.0,0.5722999999998137
699,16,0.5,0.125,35.0,1,1.0,0.4157999999997628
700,16,0.5,1.0,-35.0,-1,1.0,0.2590999999997621
701,16,0.5,0.25,-35.0,-1,1.0,0.302599999999984
702,16,0.5,0.125,35.0,1,1.0,0.33590000000003783
703,16,0.5,0.125,-35.0,1,0.0,0.27260000000023865
704,16,0.5,0.25,35.0,1,1.0,0.1993999999999687
705,16,0.5,0.0625,-35.0,-1,1.0,0.25280000000020664
706,16,0.5,0.0,35.0,1,1.0,0.22280000000000655
707,16,0.5,0.0,-35.0,1,0.0,0.3295000000002801
708,16,0.5,0.0625,-35.0,-1,1.0,0.3261999999995169
709,16,0.5,1.0,35.0,1,1.0,0.2429999999994834
710,16,0.5,0.25,35.0,1,1.0,0.30310000000008586
711,16,0.5,0.0625,35.0,-1,0.0,0.3164999999999054
712,16,0.5,0.0625,-35.0,1,0.0,0.2231999999994514
713,16,0.7,0.0625,-35.0,-1,1.0,0.2098999999998341
714,16,0.5,1.0,-35.0,-1,1.0,0.31999999999970896
715,16,0.5,1.0,-35.0,-1,1.0,0.31670000000030996
716,16,0.5,0.0625,35.0,1,1.0,0.26690000000007785
717,16,0.5,0.25,35.0,1,1.0,0.24679999999989377
718,16,0.5,0.125,-35.0,-1,1.0,0.303599999999733
719,16,0.5,0.0625,35.0,-1,0.0,0.27020000000038635
720,16,0.5,0.25,35.0,1,1.0,0.2569000000003143
721,16,0.5,0.25,35.0,1,1.0,0.25380000000041036
722,16,0.5,0.125,-35.0,-1,1.0,0.29379999999991924
723,16,0.5,1.0,-35.0,-1,1.0,0.2472000000002481
724,16,0.5,1.0,35.0,1,1.0,0.22060000000010405
725,16,0.5,1.0,35.0,1,1.0,0.2640000000001237
726,16,0.5,0.0625,35.0,1,1.0,0.24729999999999563
727,16,0.5,0.25,-35.0,-1,1.0,0.3273999999996704
728,16,0.5,0.0625,-35.0,1,0.0,0.4009000000000924
729,16,0.5,0.25,-35.0,-1,1.0,3.00420000000031
730,16,0.5,0.25,35.0,1,1.0,0.24440000000004147
731,16,0.5,0.125,-35.0,1,0.0,0.917699999999968
732,16,0.5,0.25,-35.0,-1,1.0,0.6811999999999898
733,16,0.5,0.25,35.0,1,1.0,0.3480000000004111
734,16,0.5,0.25,-35.0,-1,1.0,0.40459999999984575
735,16,0.5,0.0625,35.0,1,1.0,0.19459999999980937
736,16,0.5,1.0,35.0,1,1.0,0.2146999999995387
737,16,0.5,0.0625,35.0,1,1.0,0.30820000000039727
738,16,0.5,1.0,35.0,1,1.0,0.31479999999965
739,16,0.5,1.0,35.0,1,1.0,0.25489999999990687
740,16,0.5,1.0,-35.0,1,0.0,1.188300000000254
741,16,0.5,0.25,-35.0,-1,1.0,0.3283999999994194
742,16,0.5,0.125,35.0,1,1.0,0.29850000000033106
743,16,0.5,0.0625,35.0,-1,0.0,5.58849999999984
744,16,0.5,0.125,-35.0,-1,1.0,0.6952989999999772
745,16,0.5,1.0,-35.0,-1,1.0,0.2923000000000684
746,16,0.5,1.0,-35.0,-1,1.0,0.3587999999999738
747,16,0.5,1.0,35.0,1,1.0,0.31219999999984793
748,16,0.5,1.0,-35.0,-1,1.0,0.31559999999990396
749,16,0.5,0.25,35.0,1,1.0,1.31899999999996
750,16,0.5,0.25,-35.0,-1,1.0,0.8024999999997817
751,16,0.5,0.0625,-35.0,-1,1.0,0.4657999999999447
752,16,0.5,1.0,-35.0,-1,1.0,0.31599999999980355
753,16,0.5,0.0625,35.0,1,1.0,0.46270000000004075
754,16,0.5,0.0625,35.0,-1,0.0,8.986100000000079
755,16,0.3,0.0625,35.0,1,1.0,0.2964000000001761
756,16,0.5,1.0,35.0,1,1.0,0.2563999999997577
757,16,0.5,0.0625,35.0,-1,0.0,7.1965000000000146
758,16,0.5,0.0625,-35.0,1,0.0,0.2901000000001659
759,16,0.5,0.125,35.0,1,1.0,14.976799999999912
760,16,0.5,0.0625,-35.0,1,0.0,0.35720000000037544
761,16,0.5,0.125,35.0,-1,0.0,24.833999999999833
762,16,0.6,0.125,-35.0,-1,1.0,7.244799999999941
763,16,0.5,1.0,-35.0,-1,1.0,0.5549000000000888
764,16,0.5,0.25,35.0,1,1.0,7.69840000000022
765,16,0.5,1.0,-35.0,-1,1.0,0.26530000000002474
766,16,0.5,0.125,35.0,1,1.0,0.6154000000001361
767,16,0.5,0.25,35.0,1,1.0,0.20549900000014532
768,16,0.5,0.0625,35.0,-1,0.0,12.4054000000001
769,16,0.5,0.25,35.0,1,1.0,0.21920000000045547
770,16,0.5,0.125,-35.0,1,0.0,0.7225000000003092
771,16,0.5,0.125,-35.0,1,0.0,0.3293999999996231
772,16,0.5,1.0,-35.0,-1,1.0,0.366099999999733
773,16,0.5,1.0,-35.0,-1,1.0,0.2561000000000604
774,16,0.5,0.125,35.0,1,1.0,0.6329000000000633
775,16,0.5,0.0,35.0,-1,0.0,9.776499999999942
776,16,0.6,0.0,-35.0,1,0.0,0.336699999999837
777,16,0.5,1.0,35.0,1,1.0,0.23669999999992797
778,16,0.5,0.125,-35.0,1,0.0,0.2567999999996573
779,16,0.5,0.25,-35.0,-1,1.0,0.3868999999999687
780,16,0.5,0.125,-35.0,-1,1.0,7.546900000000278
781,16,0.5,0.0625,35.0,1,1.0,0.2937000000001717
782,16,0.5,0.125,-35.0,1,0.0,0.22390000000041255
783,16,0.6,0.125,35.0,1,1.0,0.3805999999999585
784,16,0.5,1.0,35.0,1,1.0,0.1307000000001608
785,16,0.5,0.125,-35.0,1,0.0,0.22280000000000655
786,16,0.5,0.0625,-35.0,-1,1.0,0.8099999999999454
787,16,0.5,0.25,35.0,1,1.0,0.2527999999997519
788,16,0.5,1.0,35.0,1,1.0,0.22679999999991196
789,16,0.5,0.0625,-35.0,-1,1.0,0.23319999999966967
790,16,0.5,0.25,35.0,1,1.0,0.23649999999997817
791,16,0.5,0.25,-35.0,-1,1.0,0.5763000000001739
792,16,0.5,0.125,35.0,1,1.0,0.45640000000003056
793,16,0.5,0.0625,35.0,1,1.0,0.4667000000004009
794,16,0.5,0.125,-35.0,-1,1.0,0.4531000000001768
795,16,0.5,0.25,35.0,1,1.0,0.2800000000002001
796,16,0.5,0.125,35.0,1,1.0,0.29419999999981883
797,16,0.5,1.0,35.0,1,1.0,0.20010000000002037
798,16,0.5,0.0,35.0,-1,0.0,0.473700000000008
799,16,0.5,0.0,-35.0,1,0.0,0.20690000000058717
800,16,0.5,0.0625,-35.0,1,0.0,0.36710000000039145
801,16,0.5,0.0625,-35.0,-1,1.0,3.8771999999999025
802,16,0.5,0.0,35.0,1,1.0,0.26729999999997744
803,16,0.5,0.25,-35.0,-1,1.0,0.4942000000000917
804,16,0.5,0.25,-35.0,-1,1.0,0.8240999999998166
805,16,0.5,1.0,-35.0,-1,1.0,0.3572990000002392
806,16,0.5,0.125,35.0,1,1.0,0.8172999999997046
807,16,0.5,0.0625,-35.0,-1,1.0,8.704600000000028
808,16,0.5,0.0,-35.0,1,0.0,18.5012999999999
809,16,0.5,0.25,-35.0,-1,1.0,0.6552000000001499
810,16,0.5,1.0,35.0,1,1.0,0.2519000000002052
811,16,0.5,0.25,35.0,1,1.0,0.29520000000002256
812,16,0.5,1.0,35.0,1,1.0,0.19869999999991705
813,16,0.5,0.125,-35.0,1,0.0,0.2323000000005777
814,16,0.5,0.0,35.0,-1,0.0,12.335599000000457
815,16,0.5,0.125,35.0,1,1.0,0.25250000000005457
816,16,0.5,0.125,35.0,1,1.0,0.21289999999999054
817,16,0.5,0.25,-35.0,1,0.0,3.9931000000001404
818,16,0.8,0.25,35.0,1,1.0,0.28960000000006403
819,16,0.5,1.0,-35.0,-1,1.0,0.35969999999997526
820,16,0.5,1.0,-35.0,-1,1.0,0.12980000000015934
821,16,0.5,0.25,-35.0,-1,1.0,0.34649999999965075
822,16,0.5,0.0,35.0,1,1.0,0.25309999999990396
823,16,0.5,0.125,35.0,1,1.0,0.2897000000002663
824,16,0.5,0.125,-35.0,-1,1.0,0.509900000000016
825,16,0.5,0.0,-35.0,1,0.0,0.22990000000027067
826,16,0.5,0.25,35.0,1,1.0,0.2300000000000182
827,16,0.5,0.125,-35.0,1,0.0,0.18069999999988795
828,16,0.5,0.125,35.0,1,1.0,0.24719999999979336
829,16,0.5,0.125,35.0,1,1.0,0.23680000000013024
830,16,0.5,0.0625,-35.0,-1,1.0,0.41360000000031505
831,16,0.5,0.0625,35.0,-1,0.0,0.4776000000001659
832,16,0.7,0.0625,35.0,-1,0.0,0.4837999999999738
833,16,0.5,1.0,-35.0,-1,1.0,0.3369999999999891
834,16,0.5,0.125,35.0,1,1.0,0.23099999999976717
835,16,0.5,0.25,35.0,1,1.0,1.1605999999997039
836,16,0.5,0.125,35.0,-1,0.0,7.867400000000089
837,16,0.5,0.25,35.0,1,1.0,0.3014000000002852
838,16,0.5,1.0,-35.0,-1,1.0,0.5278000000002976
839,16,0.5,0.0,-35.0,1,0.0,0.26779999999962456
840,16,0.4,0.0,-35.0,1,0.0,0.3613000000004831
841,16,0.5,1.0,35.0,1,1.0,0.2312000000001717
842,16,0.5,0.0,35.0,-1,0.0,4.438300000000254
843,16,0.5,0.125,35.0,1,1.0,0.2486999999996442
844,16,0.5,0.125,35.0,1,1.0,0.2151000000003478
845,16,0.5,0.0625,35.0,1,1.0,0.23549999999977445
846,16,0.5,0.0625,35.0,1,1.0,0.9483000000000175
847,16,0.5,0.125,35.0,1,1.0,0.2784999999998945
848,16,0.5,0.0625,35.0,1,1.0,0.29510000000027503
849,16,0.5,0.0625,-35.0,-1,1.0,4.3552999999997155
850,16,0.5,0.0625,-35.0,1,0.0,3.688799999999901
851,16,0.8,0.0625,-35.0,-1,1.0,0.5288999999997941
852,16,0.5,1.0,-35.0,1,0.0,0.23889999999983047
853,16,0.8,1.0,35.0,1,1.0,0.239100000000235
854,16,0.5,1.0,-35.0,-1,1.0,0.2921999999998661
855,16,0.5,0.25,35.0,1,1.0,0.39620000000013533
856,16,0.5,0.125,-35.0,-1,1.0,1.5125999999995656
857,16,0.5,0.25,-35.0,-1,1.0,0.6427000000003318
858,16,0.5,0.125,35.0,1,1.0,0.25919999999996435
859,16,0.5,0.0,35.0,1,1.0,13.189499999999953
860,16,0.5,0.0625,35.0,1,1.0,0.2432000000003427
861,16,0.5,1.0,-35.0,-1,1.0,0.5101999999997133
862,16,0.5,0.125,-35.0,1,0.0,0.2165999999997439
863,16,0.5,0.0625,35.0,1,1.0,0.2033000000001266
864,16,0.5,0.0,35.0,1,1.0,0.19679999999971187
865,16,0.5,1.0,-35.0,-1,1.0,0.2869000000005144
866,16,0.5,0.0625,-35.0,1,0.0,0.21030000000018845
867,16,0.5,0.125,35.0,-1,0.0,5.937199999999848
868,16,0.5,0.0,35.0,1,1.0,5.343800000000101
869,16,0.5,0.125,35.0,1,1.0,0.24389999999948486
870,16,0.5,0.25,35.0,1,1.0,0.22749999999996362
871,16,0.5,0.25,35.0,1,1.0,0.36409999999978027
872,16,0.5,0.125,-35.0,1,0.0,6.0273999999994885
873,16,0.5,0.25,35.0,1,1.0,0.37780000000020664
874,16,0.5,0.125,35.0,1,1.0,0.23769999999967695
875,16,0.5,0.0625,35.0,1,1.0,0.2878000000000611
876,16,0.5,0.0625,35.0,1,1.0,5.274499999999989
877,16,0.5,1.0,35.0,1,1.0,0.17819999999983338
878,16,0.5,0.25,-35.0,1,0.0,0.17180000000007567
879,16,1.0,0.25,-35.0,1,0.0,0.2745999999997366
880,16,0.5,1.0,-35.0,-1,1.0,0.42830000000003565
881,16,0.5,1.0,35.0,1,1.0,0.23830000000043583
882,16,0.5,0.125,-35.0,-1,1.0,5.538400000000365
883,16,0.5,0.0,-35.0,1,0.0,0.26549999999997453
884,16,0.5,0.25,-35.0,1,0.0,0.2986999999998261
885,16,0.5,0.125,35.0,1,1.0,0.34589999999980137
886,16,0.5,0.125,-35.0,1,0.0,8.682000000000244
887,16,0.5,0.125,35.0,1,1.0,0.18580000000019936
888,16,0.5,0.0,-35.0,1,0.0,0.3260009999999056
889,16,0.5,0.25,35.0,1,1.0,0.41620100000000093
890,16,0.5,0.25,35.0,1,1.0,0.24630100000013044
891,16,0.5,0.0625,-35.0,1,0.0,5.139500999999655
892,16,0.5,0.25,35.0,1,1.0,0.21630099999993035
893,16,0.5,0.0625,-35.0,1,0.0,16.90950100000009
894,16,1.0,0.0625,-35.0,1,0.0,4.820800999999847
895,16,0.5,1.0,-35.0,1,0.0,4.440300999999636
896,16,0.5,0.125,-35.0,1,0.0,7.80040100000042
897,16,0.5,0.125,-35.0,-1,1.0,0.5541010000001734
898,16,0.5,0.0625,-35.0,-1,1.0,39.05120100000022
899,16,0.5,0.125,35.0,1,1.0,0.4786010000002534
900,16,0.5,0.0625,-35.0,1,0.0,0.37570099999993545
901,16,0.5,0.125,-35.0,-1,1.0,1.5391010000003007
902,16,0.5,0.125,-35.0,1,0.0,44.006100999999944
903,16,0.5,0.0625,-35.0,-1,1.0,6.103301000000101
904,16,0.5,0.25,35.0,1,1.0,0.21690099999977974
905,16,0.5,1.0,35.0,1,1.0,0.2439009999998234
906,16,0.5,0.25,-35.0,-1,1.0,3.7671009999999114
907,16,0.5,1.0,-35.0,-1,1.0,0.3805010000000948
908,16,0.5,0.25,35.0,-1,0.0,8.627100999999584
909,16,0.5,0.0,35.0,1,1.0,0.274000999999771
910,16,0.5,1.0,-35.0,-1,1.0,0.4612010000000737
911,16,0.5,1.0,35.0,1,1.0,0.2811010000004899
912,16,0.5,0.25,35.0,1,1.0,0.2780009999996764
913,16,0.5,0.25,35.0,1,1.0,0.3345009999998183
914,16,0.5,0.125,35.0,1,1.0,1.1981009999999515
915,16,0.5,0.25,-35.0,1,0.0,9.304301000000123
916,16,0.5,0.0625,35.0,1,1.0,0.30820100000028106
917,16,0.5,0.25,35.0,1,1.0,0.23150100000020757
918,16,0.5,1.0,35.0,1,1.0,0.23490099999980885
919,16,0.5,0.0625,-35.0,1,0.0,12.601701000000048
920,16,0.5,0.25,-35.0,-1,1.0,0.4555009999999129
921,16,0.5,0.0625,-35.0,1,0.0,3.289400999999998
1,17,0.5,1.0,-35.0,-1,1.0,0.2888999999999997
2,17,0.5,0.0625,-35.0,1,0.0,0.2223999999999995
3,17,0.5,0.125,-35.0,1,0.0,1.383700000000001
4,17,0.5,0.125,35.0,1,1.0,0.2555000000000014
5,17,0.5,0.0625,-35.0,1,0.0,0.26480000000000103
6,17,0.5,0.125,-35.0,-1,1.0,0.35670000000000357
7,17,0.5,0.25,-35.0,-1,1.0,0.20110000000000028
8,17,0.5,0.125,-35.0,-1,1.0,0.24550000000000338
9,17,0.5,0.25,-35.0,-1,1.0,0.23579999999999046
10,17,0.5,0.25,35.0,1,1.0,0.2534999999999954
11,17,0.5,0.125,35.0,1,1.0,0.18959999999999866
12,17,0.5,1.0,35.0,1,1.0,0.27009999999999934
13,17,0.5,0.25,35.0,1,1.0,0.3070999999999984
14,17,0.5,0.125,35.0,-1,0.0,0.13229999999999364
15,17,0.5,0.25,-35.0,-1,1.0,0.22679999999999723
16,17,0.5,0.25,-35.0,-1,1.0,0.3253999999999948
17,17,0.5,0.0625,-35.0,1,0.0,0.3353999999999999
18,17,0.5,0.125,35.0,-1,0.0,0.33839999999999293
19,17,0.5,0.0625,-35.0,-1,1.0,0.3815999999999917
20,17,0.5,1.0,-35.0,-1,1.0,0.24289999999999168
21,17,0.5,1.0,35.0,1,1.0,0.19309999999998695
22,17,0.5,1.0,35.0,1,1.0,0.20409999999999684
23,17,0.5,0.0625,-35.0,-1,1.0,0.32739999999999725
24,17,0.5,1.0,-35.0,-1,1.0,0.2008000000000152
25,17,0.5,0.0,35.0,-1,0.0,0.2722000000000122
26,17,0.3,0.0,-35.0,-1,1.0,0.14700000000000557
27,17,0.5,1.0,35.0,1,1.0,0.1991999999999905
28,17,0.5,0.0625,35.0,1,1.0,0.6750999999999863
29,17,0.5,0.0625,35.0,1,1.0,0.17099999999999227
30,17,0.5,0.25,-35.0,-1,1.0,0.23229999999999507
31,17,0.5,0.25,-35.0,-1,1.0,0.25849999999999795
32,17,0.5,0.0625,35.0,1,1.0,0.40169999999999106
33,17,0.5,1.0,-35.0,-1,1.0,0.2015999999999849
34,17,0.5,1.0,35.0,1,1.0,0.17180000000000462
35,17,0.5,1.0,35.0,1,1.0,0.24750000000000227
36,17,0.5,1.0,35.0,1,1.0,0.20290000000001385
37,17,0.5,0.25,-35.0,-1,1.0,0.31510000000000105
38,17,0.5,0.25,-35.0,-1,1.0,0.2512999999999863
39,17,0.5,0.0625,35.0,1,1.0,0.23039999999998884
40,17,0.5,0.125,35.0,1,1.0,0.2797999999999803
41,17,0.5,0.25,35.0,-1,0.0,0.12590000000000146
42,17,0.5,0.25,35.0,1,1.0,0.5413000000000068
43,17,0.5,0.25,-35.0,-1,1.0,0.1022999999999854
44,17,0.5,1.0,35.0,1,1.0,0.15840000000001453
45,17,0.5,0.25,-35.0,1,0.0,0.17050000000003251
46,17,0.5,0.25,-35.0,-1,1.0,0.5394000000000005
47,17,0.5,1.0,35.0,1,1.0,0.46910000000002583
48,17,0.5,1.0,35.0,1,1.0,0.17430000000001655
49,17,0.5,1.0,35.0,1,1.0,0.2132000000000005
50,17,0.5,0.25,-35.0,-1,1.0,0.21550000000002
51,17,0.5,0.0625,-35.0,1,0.0,0.2892999999999972
52,17,0.5,0.0625,35.0,-1,0.0,0.24750000000000227
53,17,0.5,0.0,-35.0,-1,1.0,2.592300000000023
54,17,0.5,0.25,35.0,1,1.0,0.24969999999999004
55,17,0.5,0.25,-35.0,-1,1.0,0.273900000000026
56,17,0.5,0.0625,35.0,1,1.0,0.36600000000001387
57,17,0.5,0.0625,35.0,1,1.0,0.3032000000000039
58,17,0.5,1.0,-35.0,-1,1.0,0.3147000000000162
59,17,0.5,0.0625,-35.0,1,0.0,0.22849999999999682
60,17,0.5,0.125,35.0,1,1.0,0.46390000000002374
61,17,0.5,0.125,-35.0,-1,1.0,0.3439999999999941
62,17,0.5,1.0,35.0,1,1.0,0.182200000000023
63,17,0.5,0.125,35.0,1,1.0,0.4304000000000201
64,17,0.5,1.0,35.0,1,1.0,0.3264000000000067
65,17,0.5,1.0,-35.0,-1,1.0,0.24760000000003402
66,17,0.5,0.125,-35.0,1,0.0,0.31660000000005084
67,17,0.5,0.25,35.0,1,1.0,0.3558000000000163
68,17,0.5,1.0,-35.0,-1,1.0,0.22990000000001487
69,17,0.5,0.125,-35.0,-1,1.0,0.23220000000000596
70,17,0.5,1.0,-35.0,-1,1.0,0.2779999999999916
71,17,0.5,0.25,35.0,1,1.0,0.2634000000000185
72,17,0.5,0.125,35.0,1,1.0,0.2342000000000155
73,17,0.5,0.125,35.0,1,1.0,0.24109999999998877
74,17,0.5,0.125,-35.0,-1,1.0,0.9591000000000349
75,17,0.5,0.125,-35.0,-1,1.0,0.06610000000003424
76,17,0.5,0.25,-35.0,-1,1.0,0.2721000000000231
77,17,0.5,1.0,-35.0,-1,1.0,0.23500000000001364
78,17,0.5,0.25,35.0,1,1.0,0.314200000000028
79,17,0.5,0.25,-35.0,-1,1.0,0.17360000000002174
80,17,0.5,0.25,-35.0,-1,1.0,0.18200000000001637
81,17,0.5,0.0625,35.0,1,1.0,0.2394000000000176
82,17,0.5,0.125,35.0,1,1.0,0.2773000000000252
83,17,0.5,1.0,35.0,1,1.0,0.12270000000000891
84,17,0.5,0.0625,35.0,-1,0.0,0.3843000000000245
85,17,0.5,0.125,35.0,1,1.0,0.3873999999999853
86,17,0.5,0.25,35.0,1,1.0,0.20020000000005211
87,17,0.5,1.0,-35.0,-1,1.0,0.2725000000000364
88,17,0.5,0.0625,-35.0,1,0.0,0.1967000000000212
89,17,0.5,0.125,-35.0,-1,1.0,0.194500000000005
90,17,0.5,0.25,35.0,1,1.0,0.2850999999999999
91,17,0.5,0.125,-35.0,1,0.0,0.20920000000000982
92,17,0.5,0.0625,-35.0,1,0.0,0.18389999999999418
93,17,0.5,0.0625,-35.0,-1,1.0,0.21929999999997563
94,17,0.5,0.25,35.0,1,1.0,0.26600000000001955
95,17,0.5,0.25,35.0,1,1.0,0.4309000000000083
96,17,0.5,0.0,35.0,1,1.0,0.30930000000000746
97,17,0.5,0.0625,-35.0,1,0.0,0.2658000000000129
98,17,0.5,0.0625,-35.0,1,0.0,0.2577999999999747
99,17,0.5,0.25,-35.0,-1,1.0,0.109800000000007
100,17,0.5,1.0,-35.0,-1,1.0,0.2015999999999849
101,17,0.5,1.0,35.0,1,1.0,0.23710000000005493
102,17,0.5,0.0625,-35.0,-1,1.0,0.30630000000002156
103,17,0.5,0.125,-35.0,-1,1.0,0.29640000000000555
104,17,0.5,0.125,35.0,1,1.0,0.276800000000037
105,17,0.5,0.25,-35.0,-1,1.0,0.3532000000000721
106,17,0.5,0.125,-35.0,-1,1.0,0.2831000000000472
107,17,0.5,0.125,-35.0,-1,1.0,0.087600000000009
108,17,0.5,0.0625,-35.0,1,0.0,0.22570000000001755
109,17,0.3,0.0625,35.0,-1,0.0,-0.05040000000002465
110,17,0.5,1.0,-35.0,-1,1.0,0.38690000000002556
111,17,0.5,0.125,35.0,1,1.0,0.31740000000002055
112,17,0.5,0.25,35.0,1,1.0,0.24270000000001346
113,17,0.5,1.0,-35.0,-1,1.0,0.21410000000003038
114,17,0.5,0.25,-35.0,-1,1.0,0.23890000000005784
115,17,0.5,0.125,35.0,1,1.0,0.20100000000002183
116,17,0.5,0.0625,-35.0,-1,1.0,0.189200000000028
117,17,0.5,0.125,35.0,1,1.0,0.46589999999997644
118,17,0.5,0.0625,-35.0,-1,1.0,0.6475000000000364
119,17,0.5,0.125,-35.0,-1,1.0,0.2974999999999568
120,17,0.5,0.0,-35.0,1,0.0,0.1621979999999894
121,17,0.5,0.25,-35.0,-1,1.0,0.26789999999999736
122,17,0.5,0.125,-35.0,-1,1.0,0.23530000000005202
123,17,0.5,0.0625,35.0,-1,0.0,0.21469999999999345
124,17,0.3,0.0625,35.0,1,1.0,0.5651000000000295
125,17,0.5,1.0,35.0,1,1.0,0.18120000000004666
126,17,0.5,0.125,35.0,1,1.0,0.17519999999996116
127,17,0.5,1.0,35.0,1,1.0,0.2015999999999849
128,17,0.5,0.0625,35.0,1,1.0,0.23069999999995616
129,17,0.5,0.125,-35.0,1,0.0,0.1897999999999911
130,17,0.5,0.0625,-35.0,-1,1.0,0.36889999999999645
131,17,0.5,0.125,35.0,1,1.0,0.24450000000001637
132,17,0.5,0.0,35.0,-1,0.0,1.652400000000057
133,17,0.7,0.0,-35.0,1,0.0,0.24639999999999418
134,17,0.5,1.0,35.0,1,1.0,0.25010000000003174
135,17,0.5,0.0625,35.0,1,1.0,0.2074000000000069
136,17,0.5,0.25,35.0,1,1.0,0.16910000000001446
137,17,0.5,0.25,-35.0,1,0.0,0.2540000000000191
138,17,0.5,0.125,-35.0,-1,1.0,0.11220000000002983
139,17,0.5,0.125,-35.0,-1,1.0,0.33190000000001874
140,17,0.5,0.0625,-35.0,-1,1.0,0.2317000000000462
141,17,0.5,0.0625,-35.0,1,0.0,0.2106000000000563
142,17,0.5,0.125,-35.0,1,0.0,0.5905999999999949
143,17,0.5,0.125,-35.0,-1,1.0,0.24320000000000164
144,17,0.5,1.0,-35.0,-1,1.0,0.24130000000002383
145,17,0.5,0.125,-35.0,-1,1.0,0.3564000000000078
146,17,0.5,0.0625,-35.0,-1,1.0,0.24959999999998672
147,17,0.5,0.0625,35.0,-1,0.0,0.3550000000000182
148,17,0.5,0.0625,-35.0,1,0.0,0.35940000000005057
149,17,0.5,0.0,35.0,1,1.0,4.0896999999999935
150,17,0.5,0.0625,-35.0,1,0.0,1.4273999999999774
151,17,0.5,0.0,-35.0,1,0.0,0.4615999999999758
152,17,0.5,0.0625,35.0,1,1.0,0.5058999999999969
153,17,0.5,0.25,35.0,1,1.0,0.34489999999999554
154,17,0.5,0.125,35.0,1,1.0,0.18419999999997572
155,17,0.5,0.0625,35.0,1,1.0,0.1963000000000079
156,17,0.5,0.0625,-35.0,1,0.0,0.18659999999999854
157,17,0.5,0.25,35.0,1,1.0,0.3018000000000143
158,17,0.5,0.125,35.0,1,1.0,0.2639000000000351
159,17,0.5,0.25,35.0,1,1.0,0.19420000000002346
160,17,0.5,0.0625,-35.0,1,0.0,0.180499999999995
161,17,0.5,0.125,-35.0,1,0.0,0.17899999999997362
162,17,1.0,0.125,-35.0,-1,1.0,0.5053999999999519
163,17,0.5,1.0,-35.0,-1,1.0,0.3203000000000884
164,17,0.5,0.0625,-35.0,-1,1.0,0.3089999999999691
165,17,0.5,0.0,-35.0,1,0.0,0.17189999999993688
166,17,0.7,0.0,-35.0,1,0.0,0.2784000000000333
167,17,0.5,1.0,-35.0,-1,1.0,0.5346000000000686
168,17,0.5,0.125,-35.0,-1,1.0,0.4252999999999929
169,17,0.5,0.25,35.0,-1,0.0,0.2757000000000289
170,17,0.5,0.125,-35.0,1,0.0,0.2744000000000142
171,17,0.5,0.125,35.0,1,1.0,0.22100000000000364
172,17,0.5,0.125,35.0,1,1.0,0.20049900000003618
173,17,0.5,1.0,35.0,1,1.0,0.3342999999999847
174,17,0.5,0.125,35.0,1,1.0,0.24050000000011096
175,17,0.5,0.0625,-35.0,1,0.0,0.19129899999995814
176,17,0.5,0.0625,35.0,1,1.0,0.2194000000000642
177,17,0.5,0.0625,35.0,1,1.0,0.2013000000000602
178,17,0.5,0.0625,35.0,1,1.0,0.3388999999999669
179,17,0.5,0.0,35.0,1,1.0,3.2635999999999967
180,17,0.5,0.0625,-35.0,1,0.0,0.16060000000004493
181,17,0.5,0.25,35.0,1,1.0,0.2800000000000864
182,17,0.5,1.0,-35.0,-1,1.0,0.252399999999966
183,17,0.5,0.25,-35.0,-1,1.0,0.3826000000000249
184,17,0.5,0.125,-35.0,1,0.0,0.23320000000001073
185,17,0.5,0.25,-35.0,-1,1.0,0.3188000000000102
186,17,0.5,0.0625,35.0,1,1.0,0.2904000000000906
187,17,0.5,0.25,35.0,1,1.0,0.2461999999999307
188,17,0.5,0.25,35.0,1,1.0,0.21550000000002
189,17,0.5,0.125,-35.0,1,0.0,0.2016999999999598
190,17,0.5,0.125,35.0,1,1.0,0.19810000000006767
191,17,0.5,1.0,35.0,1,1.0,0.19799999999997908
192,17,0.5,0.0625,-35.0,-1,1.0,0.24169999999992342
193,17,0.5,1.0,-35.0,-1,1.0,0.24210000000005039
194,17,0.5,0.125,35.0,1,1.0,0.2158000000000584
195,17,0.5,0.0625,-35.0,1,0.0,0.19780000000002929
196,17,0.5,0.25,-35.0,-1,1.0,0.3712000000000444
197,17,0.5,0.0,35.0,1,1.0,2.58199999999988
198,17,0.5,0.0625,-35.0,-1,1.0,0.32130000000006476
199,17,0.5,0.125,35.0,1,1.0,0.1313000000000102
200,17,0.5,0.25,-35.0,-1,1.0,0.6662000000000035
201,17,0.5,0.125,35.0,1,1.0,0.42349999999999
202,17,0.5,0.125,35.0,1,1.0,0.24559999999996762
203,17,0.5,0.0625,35.0,1,1.0,0.30930000000000746
204,17,0.5,0.0625,35.0,1,1.0,0.2502999999999247
205,17,0.5,0.125,35.0,1,1.0,0.4178999999999178
206,17,0.5,0.25,-35.0,-1,1.0,0.6556000000000495
207,17,0.5,0.25,35.0,1,1.0,0.16540000000009059
208,17,0.5,0.25,-35.0,-1,1.0,0.3148000000001048
209,17,0.5,1.0,-35.0,-1,1.0,0.5925999999999476
210,17,0.5,0.125,-35.0,1,0.0,0.2257999999999356
211,17,0.5,0.0,-35.0,-1,1.0,0.34769999999991796
212,17,0.5,1.0,35.0,1,1.0,0.18910000000005311
213,17,0.5,1.0,-35.0,-1,1.0,0.2477000000000089
214,17,0.5,0.25,35.0,1,1.0,0.3143999999999778
215,17,0.5,0.0625,35.0,1,1.0,0.2215000000001055
216,17,0.5,0.0,-35.0,1,0.0,0.20899999999994634
217,17,0.5,0.0625,-35.0,-1,1.0,0.33179999999993015
218,17,0.5,0.125,35.0,1,1.0,0.19539999999994961
219,17,0.5,1.0,-35.0,-1,1.0,0.3272999999999229
220,17,0.5,0.0,35.0,-1,0.0,0.5349999999999682
221,17,0.5,0.0625,-35.0,1,0.0,0.19790000000011787
222,17,0.6,0.0625,-35.0,1,0.0,0.22339999999996962
223,17,0.5,1.0,-35.0,-1,1.0,0.20539999999994052
224,17,0.5,0.125,35.0,1,1.0,0.20830000000012205
225,17,0.5,1.0,-35.0,-1,1.0,0.29750000000001364
226,17,0.5,1.0,-35.0,-1,1.0,0.24720000000002074
227,17,0.5,0.125,35.0,1,1.0,0.20150000000001
228,17,0.5,0.125,-35.0,-1,1.0,0.32150000000001455
229,17,0.5,0.0625,-35.0,-1,1.0,0.13179999999999836
230,17,0.5,0.125,-35.0,-1,1.0,0.3471999999999298
231,17,0.5,1.0,-35.0,-1,1.0,0.23890000000017153
232,17,0.5,0.25,-35.0,-1,1.0,0.2766000000000304
233,17,0.5,0.0625,35.0,1,1.0,0.42439999999999145
234,17,0.5,1.0,-35.0,-1,1.0,0.46469999999999345
235,17,0.5,0.25,-35.0,-1,1.0,0.2941999999999325
236,17,0.5,0.125,-35.0,-1,1.0,2.3694000000000415
237,17,0.5,1.0,35.0,1,1.0,0.25919999999996435
238,17,0.5,0.125,-35.0,1,0.0,0.2436999999999898
239,17,0.5,0.0625,35.0,1,1.0,0.34340000000008786
240,17,0.5,0.25,-35.0,-1,1.0,0.2724000000000615
241,17,0.5,0.0625,35.0,1,1.0,0.2536999999999807
242,17,0.5,0.125,35.0,1,1.0,0.3607999999999265
243,17,0.5,0.0625,35.0,1,1.0,0.2362999999999147
244,17,0.5,0.0,35.0,1,1.0,0.3166000000001077
245,17,0.5,0.25,35.0,1,1.0,0.287900000000036
246,17,0.5,0.25,35.0,1,1.0,0.2296999999999798
247,17,0.5,0.0625,35.0,1,1.0,0.40230000000008204
248,17,0.5,0.25,35.0,1,1.0,0.21230000000002747
249,17,0.5,1.0,-35.0,-1,1.0,0.30779999999992924
250,17,0.5,0.0,35.0,1,1.0,0.25660000000004857
251,17,0.5,0.0625,35.0,1,1.0,0.33799999999996544
252,17,0.5,1.0,35.0,1,1.0,0.16019999999991796
253,17,0.5,1.0,-35.0,-1,1.0,0.16460000000006403
254,17,0.5,0.25,35.0,1,1.0,0.14550000000008367
255,17,0.5,0.125,-35.0,1,0.0,0.19529999999997472
256,17,0.5,0.25,35.0,1,1.0,0.15850000000000364
257,17,0.5,0.0,35.0,1,1.0,0.2663000000000011
258,17,0.5,1.0,35.0,1,1.0,0.23890000000005784
259,17,0.5,1.0,-35.0,-1,1.0,0.8467999999999165
260,17,0.5,0.0625,35.0,1,1.0,0.2075999999999567
261,17,0.5,0.125,35.0,1,1.0,0.20619999999996708
262,17,0.5,0.125,-35.0,-1,1.0,0.7004000000000588
263,17,0.5,0.125,-35.0,1,0.0,0.23670000000004165
264,17,0.8,0.125,-35.0,-1,1.0,0.6723000000000638
265,17,0.5,1.0,-35.0,-1,1.0,0.3222000000000662
266,17,0.5,1.0,35.0,1,1.0,0.19670000000007803
267,17,0.5,1.0,-35.0,-1,1.0,0.306699999999978
268,17,0.5,1.0,-35.0,-1,1.0,0.24040000000002237
269,17,0.5,0.0625,35.0,-1,0.0,0.7894999999998618
270,17,0.5,0.25,35.0,1,1.0,0.20180000000004839
271,17,0.5,0.0625,35.0,1,1.0,0.6754999999999427
272,17,0.5,0.25,-35.0,-1,1.0,1.0753000000000839
273,17,0.5,0.0625,35.0,1,1.0,0.3470999999999549
274,17,0.5,0.0,35.0,1,1.0,0.2157999999999447
275,17,0.5,0.0625,35.0,1,1.0,0.22280000000000655
276,17,0.5,1.0,35.0,1,1.0,0.18690000000003693
277,17,0.5,0.25,35.0,1,1.0,0.1919999999998936
278,17,0.5,0.0,-35.0,1,0.0,1.6358000000000175
279,17,0.5,0.25,35.0,1,1.0,0.24320000000000164
280,17,0.5,1.0,-35.0,-1,1.0,0.35989999999992506
281,17,0.5,1.0,35.0,1,1.0,0.3933000000000675
282,17,0.5,0.25,-35.0,-1,1.0,0.2603000000000293
283,17,0.5,0.25,-35.0,-1,1.0,0.8336000000000467
284,17,0.5,1.0,-35.0,-1,1.0,0.3038999999999987
285,17,0.5,0.25,-35.0,-1,1.0,0.25650000000007367
286,17,0.5,1.0,35.0,1,1.0,0.30110000000001946
287,17,0.5,0.25,35.0,1,1.0,0.22149999999999181
288,17,0.5,1.0,-35.0,1,0.0,0.1608000000001084
289,17,0.5,1.0,-35.0,-1,1.0,0.528699999999958
290,17,0.5,1.0,-35.0,-1,1.0,0.47849999999994
291,17,0.5,0.0625,-35.0,1,0.0,0.20330000000001291
292,17,0.5,0.25,-35.0,-1,1.0,0.4500000000000455
293,17,0.5,0.25,-35.0,-1,1.0,3.10570000000007
294,17,0.5,1.0,35.0,1,1.0,0.19110000000000582
295,17,0.5,0.25,35.0,1,1.0,0.1954000000000633
296,17,0.5,0.0625,-35.0,-1,1.0,0.14229999999997744
297,17,0.5,0.125,35.0,1,1.0,0.16849999999999454
298,17,0.5,1.0,-35.0,-1,1.0,0.29140000000006694
299,17,0.5,0.0,35.0,1,1.0,0.22930000000008022
300,17,0.5,0.0625,35.0,1,1.0,0.2300000000000182
301,17,0.5,0.125,-35.0,-1,1.0,0.9147000000000389
302,17,0.5,0.0,35.0,1,1.0,0.17839999999989686
303,17,0.5,0.25,35.0,1,1.0,0.1352000000000544
304,17,0.5,0.0625,-35.0,-1,1.0,0.2947000000000344
305,17,0.5,0.0625,35.0,-1,0.0,1.7240000000000464
306,17,0.5,0.0625,35.0,1,1.0,1.2889999999999873
307,17,0.5,0.125,35.0,1,1.0,0.32560000000000855
308,17,0.5,0.125,-35.0,-1,1.0,0.5475000000000136
309,17,0.5,0.0,35.0,1,1.0,0.195699999999988
310,17,0.5,0.0,35.0,1,1.0,0.17580000000009477
311,17,0.5,0.0625,-35.0,1,0.0,0.29909999999995307
312,17,0.5,0.25,-35.0,-1,1.0,0.41620000000011714
313,17,0.5,0.0625,-35.0,1,0.0,0.3894000000000233
314,17,0.5,0.0625,-35.0,-1,1.0,0.5457999999999856
315,17,0.5,1.0,-35.0,-1,1.0,0.3628000000001066
316,17,0.5,0.0625,-35.0,-1,1.0,1.0294000000000096
317,17,0.5,1.0,35.0,1,1.0,0.2561999999998079
318,17,0.5,0.25,-35.0,-1,1.0,0.3062999999999647
319,17,0.5,0.125,-35.0,1,0.0,0.16959999999971842
320,17,0.5,0.125,35.0,-1,0.0,0.12979999999993197
321,17,0.5,1.0,-35.0,-1,1.0,0.2401999999999589
322,17,0.5,0.0625,-35.0,1,0.0,0.42649999999980537
323,17,0.5,0.0,35.0,-1,0.0,4.70659999999998
324,17,0.5,0.0625,35.0,1,1.0,0.5837000000001353
325,17,0.5,0.0625,-35.0,-1,1.0,0.6336999999998625
326,17,0.5,0.0625,-35.0,1,0.0,0.233600000000024
327,17,0.5,0.125,35.0,1,1.0,0.2237999999999829
328,17,0.5,1.0,35.0,1,1.0,0.42099999999982174
329,17,0.5,0.0625,35.0,-1,0.0,0.5770999999999731
330,17,0.5,0.0625,-35.0,-1,1.0,0.4943999999998141
331,17,0.5,1.0,-35.0,-1,1.0,0.4406999999996515
332,17,0.5,0.0625,35.0,1,1.0,0.24759999999992033
333,17,0.5,0.125,-35.0,1,0.0,0.22769999999991342
334,17,0.5,0.125,35.0,1,1.0,0.2079999999998563
335,17,0.5,1.0,-35.0,-1,1.0,0.30429999999978463
336,17,0.5,0.25,35.0,1,1.0,0.2343999999998232
337,17,0.5,0.0625,35.0,1,1.0,0.05449999999973443
338,17,0.5,0.125,-35.0,1,0.0,0.19459999999980937
339,17,0.5,0.0625,35.0,1,1.0,0.9180999999998676
340,17,0.5,0.0625,35.0,1,1.0,0.4415999999998803
341,17,0.5,1.0,35.0,1,1.0,0.2518000000000029
342,17,0.5,0.0625,35.0,1,1.0,0.4714999999998781
343,17,0.5,0.25,-35.0,-1,1.0,0.29859999999962383
344,17,0.5,0.25,-35.0,1,0.0,0.1249000000000251
345,17,0.5,0.0625,-35.0,-1,1.0,0.3855999999998403
346,17,0.5,0.0625,35.0,1,1.0,0.2682999999999538
347,17,0.5,0.25,-35.0,-1,1.0,0.5583999999998923
348,17,0.5,0.125,35.0,1,1.0,0.40190000000006876
349,17,0.5,0.0625,-35.0,-1,1.0,0.6718999999998232
350,17,0.5,0.0,-35.0,1,0.0,0.23299999999994725
351,17,0.5,0.25,35.0,1,1.0,0.20209999999997308
352,17,0.5,0.125,-35.0,-1,1.0,0.37229999999976826
353,17,0.5,0.0625,-35.0,1,0.0,0.195699999999988
354,17,0.5,0.0625,35.0,1,1.0,0.24589999999989232
355,17,0.5,0.0,-35.0,1,0.0,0.20270000000004984
356,17,0.5,0.25,35.0,1,1.0,0.5058000000001357
357,17,0.5,1.0,35.0,1,1.0,0.31599999999980355
358,17,0.5,0.25,-35.0,-1,1.0,0.3995999999997366
359,17,0.5,0.0625,35.0,1,1.0,0.23939999999993233
360,17,0.5,0.125,-35.0,-1,1.0,0.18619999999987158
361,17,0.5,0.125,-35.0,1,0.0,0.06339999999977408
362,17,0.7,0.125,35.0,-1,0.0,0.6097999999997228
363,17,0.5,1.0,35.0,1,1.0,0.19699999999988904
364,17,0.5,0.0625,-35.0,1,0.0,0.22649999999998727
365,17,0.7,0.0625,-35.0,1,0.0,0.2102999999997337
366,17,0.5,1.0,-35.0,-1,1.0,0.25339999999982865
367,17,0.5,0.0625,-35.0,-1,1.0,0.5565999999998894
368,17,0.5,0.0,35.0,1,1.0,0.3374999999998636
369,17,0.5,0.0625,35.0,1,1.0,0.38019999999983156
370,17,0.5,0.0625,-35.0,1,0.0,0.2699000000000069
371,17,0.5,0.0625,-35.0,1,0.0,0.1902999999997519
372,17,0.7,0.0625,35.0,1,1.0,0.1740999999997257
373,17,0.5,1.0,-35.0,-1,1.0,0.9002999999997883
374,17,0.5,1.0,-35.0,-1,1.0,0.9904999999998836
375,17,0.5,0.0625,-35.0,1,0.0,0.29379999999969186
376,17,0.6,0.0625,-35.0,-1,1.0,0.2839999999998781
377,17,0.5,1.0,35.0,1,1.0,0.23089999999979227
378,17,0.5,0.0625,-35.0,-1,1.0,0.310799999999972
379,17,0.5,1.0,-35.0,-1,1.0,0.484599999999773
380,17,0.5,0.25,35.0,1,1.0,0.18439999999986867
381,17,0.5,0.125,-35.0,1,0.0,0.20470000000000255
382,17,0.5,0.0625,35.0,1,1.0,0.18849999999974898
383,17,0.5,0.0625,-35.0,1,0.0,0.19509999999991123
384,17,0.6,0.0625,35.0,1,1.0,0.2079999999998563
385,17,0.5,1.0,-35.0,-1,1.0,0.4179999999998927
386,17,0.5,1.0,35.0,1,1.0,0.08150000000000546
387,17,0.5,0.25,35.0,1,1.0,0.20830000000000837
388,17,0.5,0.125,-35.0,1,0.0,0.2182999999997719
389,17,0.5,0.0,35.0,1,1.0,0.9485999999999422
390,17,0.5,0.0625,35.0,1,1.0,0.2988000000000284
391,17,0.5,0.25,-35.0,-1,1.0,0.29199999999968895
392,17,0.5,0.125,-35.0,-1,1.0,0.6885999999999513
393,17,0.5,1.0,35.0,1,1.0,0.20209999999997308
394,17,0.5,1.0,35.0,1,1.0,0.1920999999997548
395,17,0.5,1.0,-35.0,-1,1.0,0.29899999999997817
396,17,0.5,1.0,-35.0,-1,1.0,0.28569999999990614
397,17,0.5,0.25,35.0,1,1.0,0.23249999999984539
398,17,0.5,0.125,-35.0,-1,1.0,0.9756999999999607
399,17,0.5,0.0,35.0,1,1.0,0.16579999999999018
400,17,0.5,1.0,35.0,1,1.0,0.3225999999999658
401,17,0.5,1.0,35.0,1,1.0,0.15609999999992397
402,17,0.5,0.25,35.0,1,1.0,0.17289999999979955
403,17,0.5,0.0625,35.0,1,1.0,0.1798999999998614
404,17,0.5,0.25,-35.0,-1,1.0,0.6261999999999261
405,17,0.5,1.0,-35.0,-1,1.0,0.5733999999999924
406,17,0.5,0.0,35.0,1,1.0,0.22969999999986612
407,17,0.5,0.125,-35.0,-1,1.0,0.45319999999992433
408,17,0.5,0.0625,-35.0,1,0.0,0.2964999999999236
409,17,0.5,0.0625,35.0,-1,0.0,0.326799999999821
410,17,0.5,0.25,35.0,1,1.0,0.1875
411,17,0.5,0.25,35.0,1,1.0,0.2100999999997839
412,17,0.5,1.0,35.0,1,1.0,0.29719999999997526
413,17,0.5,0.0,-35.0,-1,1.0,2.0169999999998254
414,17,0.5,0.0625,35.0,1,1.0,0.20389999999974862
415,17,0.5,0.125,35.0,1,1.0,0.1875
416,17,0.5,0.0,35.0,1,1.0,0.13740000000007058
417,17,0.5,1.0,35.0,1,1.0,0.28389999999990323
418,17,0.5,1.0,35.0,1,1.0,0.19110000000000582
419,17,0.5,0.0,35.0,1,1.0,0.447400000000016
420,17,0.5,0.0625,-35.0,-1,1.0,0.7245000000000346
421,17,0.5,1.0,35.0,1,1.0,0.1677999999997155
422,17,0.5,0.0625,35.0,1,1.0,0.18419999999991887
423,17,0.5,1.0,-35.0,-1,1.0,0.4779999999998381
424,17,0.5,0.25,-35.0,1,0.0,0.17809999999985848
425,17,0.5,0.0,-35.0,1,0.0,0.21129999999971005
426,17,0.5,0.0625,-35.0,1,0.0,0.17820000000006075
427,17,0.5,0.0,-35.0,1,0.0,0.15829999999982647
428,17,0.5,0.0,35.0,1,1.0,0.7052999999998519
429,17,0.5,0.25,-35.0,-1,1.0,0.621599999999944
430,17,0.5,1.0,35.0,1,1.0,0.21839999999997417
431,17,0.5,1.0,35.0,1,1.0,0.205600000000004
432,17,0.5,0.0625,35.0,1,1.0,0.42229999999995016
433,17,0.5,0.125,35.0,1,1.0,0.26209999999969114
434,17,0.5,1.0,35.0,1,1.0,0.22900000000004184
435,17,0.5,0.25,35.0,1,1.0,0.21909999999979846
436,17,0.5,1.0,35.0,1,1.0,0.226399999999785
437,17,0.5,0.125,-35.0,-1,1.0,0.48919999999998254
438,17,0.5,1.0,35.0,1,1.0,0.17949999999973443
439,17,0.5,0.25,-35.0,-1,1.0,0.3726999999998952
440,17,0.5,0.125,-35.0,-1,1.0,0.2925000000000182
441,17,0.5,0.0,-35.0,1,0.0,0.2440999999998894
442,17,0.5,0.125,35.0,1,1.0,0.22430000000008476
443,17,0.5,0.125,-35.0,1,0.0,0.18440000000009604
444,17,0.5,0.0625,-35.0,1,0.0,0.19110000000000582
445,17,0.5,0.125,35.0,1,1.0,0.24109999999996035
446,17,0.5,1.0,-35.0,-1,1.0,0.3346000000001368
447,17,0.5,0.0625,-35.0,-1,1.0,0.7713000000001102
448,17,0.5,0.0,-35.0,1,0.0,0.27139999999985776
449,17,0.5,0.25,-35.0,-1,1.0,0.9347999999999956
450,17,0.5,0.0625,35.0,1,1.0,0.24139999999988504
451,17,0.5,0.25,-35.0,-1,1.0,0.6515999999996893
452,17,0.5,0.125,35.0,1,1.0,0.19499999999993634
453,17,0.5,0.25,35.0,1,1.0,0.448399999999765
454,17,0.5,0.0,-35.0,1,0.0,0.19509999999991123
455,17,0.5,0.25,35.0,1,1.0,0.22849999999993997
456,17,0.5,0.25,-35.0,-1,1.0,0.6385999999999967
457,17,0.5,0.125,-35.0,1,0.0,0.22869999999988977
458,17,0.5,0.25,-35.0,-1,1.0,0.3587999999999738
459,17,0.5,0.25,-35.0,-1,1.0,0.39210000000002765
460,17,0.5,0.125,35.0,1,1.0,0.46889999999984866
461,17,0.5,0.25,-35.0,-1,1.0,0.7322999999998956
462,17,0.5,0.0625,35.0,1,1.0,0.27569999999991524
463,17,0.5,0.125,-35.0,-1,1.0,0.29579999999987194
464,17,0.5,1.0,-35.0,-1,1.0,0.29579999999987194
465,17,0.5,0.125,-35.0,1,0.0,0.42929999999978463
466,17,0.5,0.125,-35.0,-1,1.0,0.3027999999999338
467,17,0.5,1.0,-35.0,-1,1.0,0.7527999999999793
468,17,0.5,1.0,-35.0,-1,1.0,0.27289999999993597
469,17,0.5,0.0,-35.0,-1,1.0,0.609599999999773
470,17,0.5,0.0625,35.0,1,1.0,0.32970000000000255
471,17,0.5,0.125,35.0,1,1.0,0.21309999999994034
472,17,0.5,0.0,35.0,1,1.0,0.26309999999989486
473,17,0.5,0.125,-35.0,1,0.0,0.19990000000007058
474,17,0.5,0.125,35.0,1,1.0,0.2965999999998985
475,17,0.5,1.0,35.0,1,1.0,0.17669999999998254
476,17,0.5,0.25,35.0,1,1.0,0.24669999999991887
477,17,0.5,1.0,35.0,1,1.0,0.2267999999996846
478,17,0.5,0.25,-35.0,-1,1.0,0.38009999999985666
479,17,0.5,1.0,-35.0,-1,1.0,0.44029999999997926
480,17,0.5,1.0,35.0,1,1.0,0.3634999999999309
481,17,0.5,0.0625,35.0,-1,0.0,0.24029999999970642
482,17,0.7,0.0625,-35.0,1,0.0,0.20379999999977372
483,17,0.5,1.0,-35.0,-1,1.0,0.3105000000000473
484,17,0.5,0.25,-35.0,-1,1.0,0.7538999999999305
485,17,0.5,0.0,35.0,1,1.0,0.18399999999996908
486,17,0.5,1.0,35.0,1,1.0,0.2506999999998243
487,17,0.5,0.125,35.0,1,1.0,0.32080000000019027
488,17,0.5,0.25,35.0,1,1.0,0.29109999999991487
489,17,0.5,0.125,35.0,1,1.0,0.4276999999997315
490,17,0.5,0.25,35.0,1,1.0,0.24769999999989523
491,17,0.5,1.0,35.0,1,1.0,0.23769999999990432
492,17,0.5,0.125,-35.0,-1,1.0,0.3211999999998625
493,17,0.5,1.0,-35.0,-1,1.0,0.29120000000011714
494,17,0.5,1.0,-35.0,-1,1.0,0.40459999999984575
495,17,0.5,1.0,-35.0,-1,1.0,0.26799999999980173
496,17,0.5,0.25,-35.0,1,0.0,0.18479999999976826
497,17,0.5,0.0625,35.0,1,1.0,0.3548999999998159
498,17,0.5,0.25,35.0,1,1.0,0.21829999999999927
499,17,0.5,0.0625,-35.0,1,0.0,0.26499999999987267
500,17,0.5,0.125,35.0,1,1.0,0.2018999999997959
501,17,0.5,1.0,-35.0,-1,1.0,0.2984999999998763
502,17,0.5,0.0,35.0,1,1.0,1.335299999999961
503,17,0.5,1.0,35.0,1,1.0,0.2321999999999207
504,17,0.5,0.25,35.0,1,1.0,0.1955000000000382
505,17,0.5,0.125,-35.0,1,0.0,0.21900000000005093
506,17,0.5,0.0625,35.0,1,1.0,0.2155999999999949
507,17,0.5,0.125,35.0,1,1.0,0.24900000000002365
508,17,0.5,0.25,-35.0,-1,1.0,0.29569999999989705
509,17,0.5,0.125,-35.0,-1,1.0,0.29599999999982174
510,17,0.5,0.0,35.0,1,1.0,0.3127999999996973
511,17,0.5,1.0,35.0,1,1.0,0.2359999999998763
512,17,0.5,1.0,-35.0,-1,1.0,0.24939999999992324
513,17,0.5,0.0625,35.0,1,1.0,0.7362000000000535
514,17,0.5,0.0,-35.0,1,0.0,0.26959999999985484
515,17,0.7,0.0,-35.0,-1,1.0,0.3230999999998403
516,17,0.5,1.0,35.0,1,1.0,0.19649999999978718
517,17,0.5,0.25,-35.0,-1,1.0,0.34979999999995925
518,17,0.5,0.0625,-35.0,1,0.0,1.496599999999944
519,17,0.6,0.0625,35.0,1,1.0,0.21329999999989013
520,17,0.5,1.0,-35.0,-1,1.0,0.47669999999993706
521,17,0.5,0.0625,35.0,1,1.0,0.4435000000000855
522,17,0.5,0.0625,-35.0,1,0.0,0.20679999999993015
523,17,0.5,0.125,35.0,1,1.0,0.20359999999982392
524,17,0.5,1.0,35.0,1,1.0,0.19699999999988904
525,17,0.5,0.25,35.0,1,1.0,0.24699999999984357
526,17,0.5,0.125,-35.0,1,0.0,0.2337999999999738
527,17,0.5,0.0,35.0,1,1.0,0.22059999999987667
528,17,0.5,0.125,35.0,1,1.0,0.21730000000002292
529,17,0.5,0.125,-35.0,1,0.0,0.2439999999999145
530,17,0.5,0.125,35.0,1,1.0,0.19399999999995998
531,17,0.5,0.25,35.0,1,1.0,0.24749999999994543
532,17,0.5,0.25,35.0,1,1.0,0.22089999999980137
533,17,0.5,0.125,35.0,1,1.0,0.20089999999981956
534,17,0.5,1.0,-35.0,-1,1.0,0.3510999999998603
535,17,0.5,0.125,35.0,1,1.0,0.1976999999999407
536,17,0.5,0.0625,-35.0,1,0.0,0.34110000000009677
537,17,0.5,0.125,-35.0,-1,1.0,0.511199999999917
538,17,0.5,0.25,35.0,1,1.0,0.2980999999999767
539,17,0.5,0.0,35.0,1,1.0,0.25469999999995707
540,17,0.5,0.0625,35.0,1,1.0,0.3214999999997872
541,17,0.5,0.25,-35.0,1,0.0,0.19820000000004256
542,17,0.5,0.0,-35.0,1,0.0,0.28160000000002583
543,17,0.5,0.25,35.0,1,1.0,0.18499999999971806
544,17,0.5,0.125,35.0,1,1.0,0.28169999999977335
545,17,0.5,0.25,35.0,1,1.0,0.315199999999777
546,17,0.5,0.125,-35.0,-1,1.0,1.0084999999999127
547,17,0.5,0.125,-35.0,-1,1.0,0.4018999999998414
548,17,0.5,0.125,35.0,1,1.0,0.172099999999773
549,17,0.5,0.0625,-35.0,1,0.0,0.22199999999998
550,17,0.5,0.25,-35.0,-1,1.0,0.3288000000000011
551,17,0.5,0.0625,-35.0,1,0.0,0.33549999999991087
552,17,0.5,0.25,-35.0,-1,1.0,0.10549999999989268
553,17,0.5,0.25,35.0,1,1.0,0.21899999999982356
554,17,0.5,0.0,-35.0,1,0.0,0.23900000000003274
555,17,0.6,0.0,35.0,-1,0.0,0.6359009999998761
556,17,0.5,1.0,35.0,1,1.0,0.2558009999997921
557,17,0.5,0.0,35.0,1,1.0,0.16260099999976774
558,17,0.5,0.0625,-35.0,-1,1.0,0.4426009999999678
559,17,0.5,1.0,35.0,1,1.0,0.20270099999993363
560,17,0.5,0.125,35.0,1,1.0,0.2094009999998434
561,17,0.5,0.125,35.0,1,1.0,0.2694010000000162
562,17,0.5,0.125,35.0,-1,0.0,0.11950099999990016
563,17,0.5,0.0625,-35.0,1,0.0,0.26290099999982885
564,17,0.7,0.0625,-35.0,1,0.0,0.22630099999992126
565,17,0.5,1.0,-35.0,-1,1.0,0.2665009999998347
566,17,0.5,0.0625,35.0,1,1.0,0.20320099999980812
567,17,0.5,0.125,-35.0,-1,1.0,0.27320099999974445
568,17,0.5,0.125,-35.0,-1,1.0,0.33990099999982704
569,17,0.5,0.125,-35.0,-1,1.0,0.5501009999998132
570,17,0.5,1.0,35.0,1,1.0,0.21680099999980484
571,17,0.5,0.125,35.0,1,1.0,0.21690099999977974
572,17,0.5,0.25,35.0,1,1.0,0.23030099999982667
573,17,0.5,0.0625,-35.0,1,0.0,0.15030099999989943
574,17,0.5,0.125,35.0,1,1.0,0.23040099999980157
575,17,0.5,1.0,35.0,1,1.0,0.22710099999994782
576,17,0.5,0.125,-35.0,-1,1.0,0.5338009999998121
577,17,0.5,0.25,-35.0,-1,1.0,0.5673009999998158
578,17,0.5,0.25,-35.0,-1,1.0,0.32730099999980666
579,17,0.5,0.25,35.0,1,1.0,0.20070099999975355
580,17,0.5,0.125,-35.0,-1,1.0,0.3507009999998445
581,17,0.5,0.125,35.0,1,1.0,0.34080100000005586
582,17,0.5,0.0625,-35.0,1,0.0,0.3142009999999118
583,17,0.5,0.25,-35.0,-1,1.0,0.33090100000003986
584,17,0.5,0.0625,35.0,1,1.0,0.3176009999999678
585,17,0.5,0.0625,35.0,1,1.0,0.2877010000001974
586,17,0.5,0.25,-35.0,-1,1.0,0.817801000000145
587,17,0.5,0.0,-35.0,-1,1.0,0.7445009999999002
588,17,0.5,0.0625,-35.0,1,0.0,0.24130099999979393
589,17,0.6,0.0625,-35.0,1,0.0,0.2513010000000122
590,17,0.5,1.0,-35.0,-1,1.0,0.23810099999991508
591,17,0.5,0.0,35.0,1,1.0,0.2814009999999598
592,17,0.5,1.0,35.0,1,1.0,0.18480099999987942
593,17,0.5,0.125,35.0,1,1.0,0.24490099999979975
594,17,0.5,0.25,-35.0,-1,1.0,0.7783009999998285
595,17,0.5,0.25,-35.0,-1,1.0,0.5850009999999202
596,17,0.5,1.0,-35.0,-1,1.0,0.5184009999998125
597,17,0.5,1.0,-35.0,-1,1.0,0.32510099999990416
598,17,0.5,1.0,35.0,1,1.0,0.2052009999999882
599,17,0.5,0.25,-35.0,-1,1.0,0.948500999999851
600,17,0.5,0.0,35.0,-1,0.0,3.6653009999999995
601,17,0.4,0.0,35.0,-1,0.0,0.4355009999999311
602,17,0.5,1.0,-35.0,-1,1.0,0.33560099999999693
603,17,0.5,0.25,-35.0,-1,1.0,0.5956009999997605
604,17,0.5,0.0625,35.0,1,1.0,0.21900099999993472
605,17,0.5,0.25,35.0,1,1.0,0.20250099999998383
606,17,0.5,0.25,35.0,1,1.0,0.6060009999998783
607,17,0.5,0.125,35.0,1,1.0,0.23920099999986633
608,17,0.5,0.25,35.0,1,1.0,0.23600099999998747
609,17,0.5,0.125,35.0,1,1.0,0.2093009999998685
610,17,0.5,1.0,35.0,1,1.0,0.24270099999989725
611,17,0.5,0.25,-35.0,-1,1.0,2.9862009999999373
612,17,0.5,0.0,-35.0,1,0.0,0.21630099999993035
613,17,0.5,0.125,35.0,1,1.0,1.0464009999998325
614,17,0.5,0.25,35.0,1,1.0,0.29310099999975137
615,17,0.5,0.0,35.0,1,1.0,3.639801000000034
616,17,0.5,0.25,35.0,1,1.0,0.22330099999976483
617,17,0.5,0.0625,-35.0,1,0.0,0.22000099999991107
618,17,0.5,0.25,-35.0,1,0.0,0.21340099999974882
619,17,0.5,0.125,-35.0,1,0.0,0.22350100000016937
620,17,0.5,0.25,35.0,1,1.0,0.22680099999979575
621,17,0.5,0.0625,-35.0,-1,1.0,0.7602009999998245
622,17,0.5,0.0625,35.0,1,1.0,1.1703009999998812
623,17,0.5,0.125,-35.0,-1,1.0,0.970401000000038
624,17,0.5,1.0,35.0,1,1.0,0.19720099999995
625,17,0.5,0.25,35.0,1,1.0,0.21720099999970444
626,17,0.5,1.0,35.0,1,1.0,0.1872009999999591
627,17,0.5,1.0,-35.0,-1,1.0,0.270600999999715
628,17,0.5,0.125,-35.0,1,0.0,0.1875009999998838
629,17,0.5,0.25,35.0,1,1.0,0.2376009999998132
630,17,0.5,0.25,-35.0,-1,1.0,0.38760099999990416
631,17,0.5,1.0,-35.0,-1,1.0,0.43420100000003004
632,17,0.5,0.25,35.0,1,1.0,0.2876009999999951
633,17,0.5,1.0,35.0,1,1.0,0.25100099999963277
634,17,0.5,0.125,35.0,1,1.0,0.26450099999988197
635,17,0.5,0.125,-35.0,-1,1.0,0.9678010000000086
636,17,0.5,0.0625,-35.0,1,0.0,0.17460099999971135
637,17,0.5,0.125,35.0,1,1.0,0.22460100000012062
638,17,0.5,0.125,-35.0,-1,1.0,0.36140099999988706
639,17,0.5,0.25,-35.0,-1,1.0,0.32470100000000457
640,17,0.5,0.0625,-35.0,1,0.0,0.364900999999918
641,17,0.5,0.25,35.0,1,1.0,0.19500099999982012
642,17,0.5,0.25,35.0,1,1.0,0.27830100000005586
643,17,0.5,1.0,35.0,1,1.0,0.24510099999997692
644,17,0.5,0.0625,35.0,-1,0.0,0.5117009999999027
645,17,0.5,0.125,35.0,1,1.0,0.23190100000010716
646,17,0.5,0.125,35.0,1,1.0,0.19540099999971972
647,17,0.5,0.25,-35.0,-1,1.0,0.34190099999977974
648,17,0.5,0.0625,-35.0,1,0.0,0.24200099999961822
649,17,0.5,0.25,-35.0,-1,1.0,0.4954009999999016
650,17,0.5,0.25,-35.0,1,0.0,0.1489010000000235
651,17,0.5,0.0625,-35.0,-1,1.0,0.4756009999998696
652,17,0.5,0.0,35.0,1,1.0,0.24240099999997256
653,17,0.5,0.0625,-35.0,-1,1.0,0.5258009999997739
654,17,0.5,0.25,-35.0,-1,1.0,0.45250099999975646
655,17,0.5,1.0,35.0,1,1.0,0.23930099999984122
656,17,0.5,0.0625,-35.0,-1,1.0,1.02920099999983
657,17,0.5,1.0,35.0,1,1.0,0.18610100000000784
658,17,0.5,0.0625,-35.0,1,0.0,0.20280099999990853
659,17,0.5,0.125,-35.0,-1,1.0,0.31950099999994563
660,17,0.5,0.125,-35.0,-1,1.0,0.4296009999998205
661,17,0.5,0.125,35.0,1,1.0,0.37640099999975973
662,17,0.5,0.25,35.0,1,1.0,0.21630099999993035
663,17,0.5,1.0,-35.0,-1,1.0,0.40310100000010607
664,17,0.5,0.25,35.0,1,1.0,0.25310099999978775
665,17,0.5,0.0625,35.0,1,1.0,0.2198009999997339
666,17,0.5,0.0625,35.0,1,1.0,0.33990099999982704
667,17,0.5,1.0,35.0,1,1.0,0.22520099999974263
668,17,0.5,0.0625,35.0,1,1.0,0.3057010000002265
669,17,0.5,0.25,-35.0,-1,1.0,0.3221010000002025
670,17,0.5,0.125,-35.0,-1,1.0,0.3688010000000759
671,17,0.5,0.0625,35.0,-1,0.0,0.2022010000005139
672,17,0.5,0.0625,-35.0,1,0.0,0.31910100000004604
673,17,0.5,0.0625,-35.0,-1,1.0,2.87570100000039
674,17,0.5,0.0625,-35.0,1,0.0,0.2693010000002687
675,17,0.5,0.125,-35.0,-1,1.0,0.2793010000000322
676,17,0.5,0.0625,35.0,1,1.0,0.24930100000028688
677,17,0.5,0.125,35.0,1,1.0,0.33950099999992744
678,17,0.5,0.25,-35.0,-1,1.0,0.2628010000003087
679,17,0.5,0.0,35.0,-1,0.0,0.7760010000001785
680,17,0.5,0.125,35.0,1,1.0,0.48620100000016464
681,17,0.5,1.0,-35.0,-1,1.0,0.2864009999998416
682,17,0.5,1.0,-35.0,-1,1.0,0.38320100000009916
683,17,0.5,0.25,-35.0,-1,1.0,0.7498010000003887
684,17,0.5,1.0,-35.0,-1,1.0,0.3205009999996946
685,17,0.5,0.125,-35.0,-1,1.0,3.593101000000388
686,17,0.5,1.0,35.0,1,1.0,0.1733009999998103
687,17,0.5,0.0625,-35.0,-1,1.0,0.473500999999942
688,17,0.5,0.0,-35.0,1,0.0,0.20040100000051098
689,17,0.5,0.0625,-35.0,-1,1.0,0.44670099999984814
690,17,0.5,1.0,-35.0,-1,1.0,0.7538010000002942
691,17,0.5,1.0,-35.0,-1,1.0,0.39740100000017264
692,17,0.5,1.0,35.0,1,1.0,0.3172010000002956
693,17,0.5,1.0,-35.0,-1,1.0,0.4838009999998576
694,17,0.5,1.0,35.0,1,1.0,0.2840009999999893
695,17,0.5,0.25,-35.0,-1,1.0,0.2639009999998052
696,17,0.5,0.125,-35.0,1,0.0,0.3074010000000271
697,17,0.4,0.125,35.0,-1,0.0,1.1211010000001806
698,17,0.5,1.0,-35.0,-1,1.0,0.36150099999986196
699,17,0.5,0.125,35.0,-1,0.0,0.4409009999999398
700,17,0.3,0.125,-35.0,-1,1.0,0.591001000000233
701,17,0.5,1.0,35.0,1,1.0,0.17780099999981758
702,17,0.5,0.125,35.0,1,1.0,0.35460100000045713
703,17,0.5,0.125,-35.0,1,0.0,0.2913010000002032
704,17,0.5,0.125,35.0,1,1.0,0.44150100000024395
705,17,0.5,0.0625,-35.0,1,0.0,0.20200100000010934
706,17,0.6,0.0625,-35.0,1,0.0,0.2755010000000766
707,17,0.5,1.0,-35.0,-1,1.0,0.30220100000042294
708,17,0.5,0.125,35.0,1,1.0,0.2718009999998685
709,17,0.5,0.0625,-35.0,1,0.0,0.39170100000001185
710,17,0.5,0.125,-35.0,-1,1.0,0.4818009999999049
711,17,0.5,0.0625,35.0,1,1.0,0.1786010000000715
712,17,0.5,0.125,-35.0,-1,1.0,3.588401000000431
713,17,0.5,0.0,35.0,-1,0.0,0.6024010000005546
714,17,0.5,0.125,35.0,1,1.0,0.30570099999977174
715,17,0.5,0.25,35.0,1,1.0,0.20210100000031161
716,17,0.5,0.125,-35.0,1,0.0,0.24220100000002276
717,17,0.5,0.25,-35.0,-1,1.0,0.39570099999991726
718,17,0.5,0.125,35.0,1,1.0,0.2896009999999478
719,17,0.5,0.25,35.0,1,1.0,0.3224009999998998
720,17,0.5,0.0625,-35.0,1,0.0,0.3864010000002054
721,17,0.7,0.0625,-35.0,-1,1.0,0.39320100000031744
722,17,0.5,1.0,-35.0,-1,1.0,0.20600100000001476
723,17,0.5,0.0,-35.0,1,0.0,0.2262010000004011
724,17,0.5,0.25,-35.0,-1,1.0,0.27940099999977974
725,17,0.5,0.25,35.0,1,1.0,0.28600100000039674
726,17,0.5,0.125,-35.0,-1,1.0,0.3933009999996102
727,17,0.5,0.0,35.0,1,1.0,0.2664010000003145
728,17,0.5,0.125,35.0,1,1.0,0.4564010000003691
729,17,0.5,0.125,-35.0,-1,1.0,0.4499010000004091
730,17,0.5,0.125,-35.0,-1,1.0,0.47980100000040693
731,17,0.5,0.0625,35.0,1,1.0,0.22990100000015445
732,17,0.5,0.25,35.0,1,1.0,0.2533010000001923
733,17,0.5,0.0625,35.0,1,1.0,0.23710099999971135
734,17,0.5,0.0,35.0,1,1.0,0.2771010000001297
735,17,0.5,0.0625,-35.0,1,0.0,0.22010099999988597
736,17,0.5,0.0,-35.0,1,0.0,0.22360100000014427
737,17,0.5,0.25,-35.0,-1,1.0,0.23370100000011007
738,17,0.5,0.0,35.0,1,1.0,0.180800999999974
739,17,0.5,0.0,-35.0,1,0.0,1.3404010000003836
740,17,0.5,0.0625,-35.0,-1,1.0,0.47860099999979866
741,17,0.5,1.0,-35.0,1,0.0,0.08730100000002494
742,17,0.8,1.0,35.0,1,1.0,0.2207010000001901
743,17,0.5,1.0,-35.0,-1,1.0,0.26080099999990125
744,17,0.5,1.0,-35.0,-1,1.0,0.31440100000008897
745,17,0.5,0.125,35.0,1,1.0,0.05430100000012317
746,17,0.5,0.0625,-35.0,-1,1.0,0.4675010000000839
747,17,0.5,0.25,-35.0,-1,1.0,0.2945009999998547
748,17,0.5,0.25,-35.0,-1,1.0,0.3386000000000422
749,17,0.5,0.25,-35.0,-1,1.0,0.3617010000002665
750,17,0.5,0.0,-35.0,1,0.0,0.20600100000001476
751,17,0.5,0.125,35.0,1,1.0,0.32830099999955564
752,17,0.5,0.25,35.0,1,1.0,0.27120100000047387
753,17,0.5,0.0,-35.0,1,0.0,0.2814010000001872
754,17,0.5,0.125,35.0,1,1.0,0.1781010000004244
755,17,0.5,1.0,-35.0,-1,1.0,0.5847009999997681
756,17,0.5,0.25,-35.0,1,0.0,0.24800099999993108
757,17,0.6,0.25,-35.0,-1,1.0,0.2650010000002112
758,17,0.5,1.0,-35.0,-1,1.0,0.2990010000003167
759,17,0.5,0.0625,-35.0,1,0.0,0.20510100000046805
760,17,0.7,0.0625,-35.0,-1,1.0,0.3117010000000846
761,17,0.5,1.0,-35.0,-1,1.0,0.34520100000008824
762,17,0.5,0.125,-35.0,1,0.0,4.802101000000221
763,17,0.5,0.25,35.0,1,1.0,0.3354010000002745
764,17,0.5,0.0625,-35.0,1,0.0,0.2259010000007038
765,17,0.5,0.25,35.0,1,1.0,0.2826010000003407
766,17,0.5,0.25,35.0,1,1.0,0.3061010000001261
767,17,0.5,0.0625,35.0,1,1.0,0.31910100000004604
768,17,0.5,0.25,35.0,1,1.0,0.24920099999962986
769,17,0.5,0.25,35.0,1,1.0,0.3624009999998634
770,17,0.5,0.0625,35.0,1,1.0,0.30580100000042876
771,17,0.5,0.125,35.0,1,1.0,0.3829009999999471
772,17,0.5,1.0,-35.0,-1,1.0,0.2937010000000555
773,17,0.5,1.0,35.0,1,1.0,0.20040100000005623
774,17,0.5,0.0,-35.0,1,0.0,0.2093009999998685
775,17,0.5,0.125,-35.0,-1,1.0,0.406601000000137
776,17,0.5,0.25,-35.0,1,0.0,0.2730010000004768
777,17,0.8,0.25,35.0,1,1.0,0.27310099999976956
778,17,0.5,1.0,-35.0,-1,1.0,0.35670100000015736
779,17,0.5,0.125,-35.0,-1,1.0,0.9966010000002825
780,17,0.5,0.0,-35.0,-1,1.0,5.5064009999996415
781,17,0.5,0.25,35.0,1,1.0,0.20690100000047096
782,17,0.5,0.0625,-35.0,1,0.0,0.19670100000030288
783,17,0.6,0.0625,35.0,1,1.0,0.20710100000042075
784,17,0.5,1.0,35.0,1,1.0,0.21030100000007224
785,17,0.5,0.0625,35.0,-1,0.0,2.433701000000383
786,17,0.6,0.0625,-35.0,1,0.0,0.19380099999989397
787,17,0.5,1.0,35.0,1,1.0,0.3204009999999471
788,17,0.5,0.125,-35.0,1,0.0,0.19730100000015227
789,17,0.5,0.125,-35.0,-1,1.0,0.26060099999995145
790,17,0.5,0.25,35.0,1,1.0,0.20760100000006787
791,17,0.5,1.0,-35.0,-1,1.0,0.2877010000001974
792,17,0.5,0.125,-35.0,1,0.0,0.20460100000036618
793,17,0.5,0.0625,-35.0,1,0.0,0.18110100000012608
794,17,0.5,0.25,35.0,1,1.0,0.3676010000003771
795,17,0.5,0.0625,35.0,1,1.0,1.0778010000003633
796,17,0.5,1.0,35.0,1,1.0,0.28780100000039965
797,17,0.5,0.125,35.0,1,1.0,0.43120100000032835
798,17,0.5,1.0,35.0,1,1.0,0.28200100000049133
799,17,0.5,0.25,35.0,1,1.0,0.29460100000005696
800,17,0.5,0.0625,-35.0,1,0.0,6.325500999999804
801,17,0.5,0.0625,35.0,1,1.0,0.4283010000003742
802,17,0.5,0.25,-35.0,-1,1.0,11.669001000000208
803,17,0.5,1.0,-35.0,-1,1.0,0.3623010000001159
804,17,0.5,0.25,35.0,1,1.0,0.31560100000069724
805,17,0.5,1.0,35.0,1,1.0,15.949601000000257
806,17,0.5,1.0,-35.0,1,0.0,0.9531010000005153
807,17,0.5,0.0,35.0,1,1.0,11.276201000000128
808,17,0.5,1.0,-35.0,1,0.0,17.79710100000011
809,17,0.5,0.25,35.0,1,1.0,1.5906010000003334
810,17,0.5,0.25,35.0,1,1.0,5.380800999999792
811,17,0.5,0.0625,35.0,1,1.0,0.22430100000019593
812,17,0.5,0.0625,35.0,1,1.0,0.22740100000009988
813,17,0.5,0.0625,-35.0,1,0.0,0.4713010000000395
814,17,0.5,0.0625,-35.0,1,0.0,0.6408010000000104
815,17,0.5,0.0,35.0,-1,0.0,11.234301000000414
816,17,0.5,0.25,-35.0,1,0.0,0.19820100000015373
817,17,0.5,0.0,35.0,1,1.0,0.21130099999982122
818,17,0.5,0.0625,-35.0,-1,1.0,4.7148010000000795
819,17,0.5,0.0625,35.0,1,1.0,0.22190100000034363
820,17,0.5,1.0,35.0,1,1.0,0.19840100000010352
821,17,0.5,0.0,35.0,1,1.0,0.4052010000000337
822,17,0.5,0.25,35.0,1,1.0,0.21880100000043967
823,17,0.5,0.25,35.0,1,1.0,0.17540099999996528
824,17,0.5,0.125,-35.0,1,0.0,0.19900100000040766
825,17,0.8,0.125,-35.0,1,0.0,0.23180100000035964
826,17,0.5,1.0,-35.0,-1,1.0,0.30880100000013044
827,17,0.5,1.0,-35.0,-1,1.0,0.5791010000002643
828,17,0.5,1.0,35.0,1,1.0,5.015601000000061
829,17,0.5,0.0625,35.0,-1,0.0,0.6525010000000293
830,17,0.5,0.25,-35.0,-1,1.0,0.30940099999997983
831,17,0.5,0.25,35.0,1,1.0,0.5359010000001945
832,17,0.5,0.0,35.0,1,1.0,0.2062010000004193
833,17,0.5,0.25,35.0,1,1.0,0.2163010000003851
834,17,0.5,1.0,35.0,1,1.0,0.2428010000003269
835,17,0.5,0.125,35.0,1,1.0,0.3998010000004797
836,17,0.5,0.0625,35.0,1,1.0,0.24620099999992817
837,17,0.5,1.0,35.0,1,1.0,0.1766010000001188
838,17,0.5,0.125,35.0,1,1.0,0.19970100000000457
839,17,0.5,0.125,-35.0,-1,1.0,0.3467009999999391
840,17,0.5,1.0,-35.0,-1,1.0,0.33670100000017555
841,17,0.5,0.25,-35.0,-1,1.0,0.24410100000022794
842,17,0.5,0.125,35.0,1,1.0,0.25320100000044476
843,17,0.5,0.0,35.0,1,1.0,0.34350099999983286
844,17,0.5,0.25,35.0,1,1.0,0.383701000000201
845,17,0.5,0.25,35.0,1,1.0,0.29730100000051607
846,17,0.5,0.125,35.0,1,1.0,0.23350100000016027
847,17,0.5,0.125,35.0,1,1.0,0.19390100000009625
848,17,0.5,0.25,-35.0,-1,1.0,0.31360099999983504
849,17,0.5,1.0,-35.0,-1,1.0,0.29040100000020175
850,17,0.5,0.0,-35.0,-1,1.0,4.077600999999959
851,17,0.5,1.0,-35.0,-1,1.0,0.22410100000024613
852,17,0.5,0.25,35.0,1,1.0,0.2574009999998452
853,17,0.5,0.25,35.0,1,1.0,0.1909009999999398
854,17,0.5,1.0,-35.0,-1,1.0,0.30410100000017337
855,17,0.5,0.0,-35.0,1,0.0,0.23760100000026796
856,17,0.5,0.0625,-35.0,-1,1.0,0.42160100000000966
857,17,0.5,0.125,35.0,1,1.0,0.21820100000013554
858,17,0.5,0.125,35.0,1,1.0,0.1911009999998896
859,17,0.5,0.25,35.0,1,1.0,0.20440099999996164
860,17,0.5,0.125,35.0,1,1.0,0.2415009999999711
861,17,0.5,0.0625,-35.0,1,0.0,0.5314010000001872
862,17,0.5,0.125,35.0,-1,0.0,0.06510100000014063
863,17,0.5,0.0625,-35.0,1,0.0,0.3018010000000686
864,17,0.7,0.0625,35.0,-1,0.0,0.4482010000001537
865,17,0.5,1.0,35.0,1,1.0,0.30860100000018065
866,17,0.5,0.0,35.0,1,1.0,0.3948009999999158
867,17,0.5,0.125,-35.0,-1,1.0,0.36840099999972153
868,17,0.5,0.0625,-35.0,-1,1.0,0.29210100000045713
869,17,0.5,0.0625,35.0,1,1.0,0.2286010000002534
870,17,0.5,0.125,35.0,1,1.0,0.22850100000005114
871,17,0.5,0.0,35.0,1,1.0,0.09860099999968952
872,17,0.5,0.0,35.0,1,1.0,0.238901000000169
873,17,0.5,1.0,35.0,1,1.0,0.24580100000002858
874,17,0.5,0.125,-35.0,-1,1.0,0.725901000000249
875,17,0.5,0.25,35.0,1,1.0,0.22220100000004095
876,17,0.5,0.25,35.0,1,1.0,0.2757010000000264
877,17,0.5,1.0,35.0,1,1.0,0.17250100000001112
878,17,0.5,0.0625,35.0,1,1.0,0.23610099999996237
879,17,0.5,1.0,35.0,1,1.0,0.18580100000008315
880,17,0.5,0.125,35.0,1,1.0,0.219101000000137
881,17,0.5,0.0625,-35.0,1,0.0,0.27250099999992017
882,17,0.5,0.25,-35.0,-1,1.0,0.51620099999991
883,17,0.5,0.0625,35.0,1,1.0,0.3725009999998292
884,17,0.5,1.0,35.0,1,1.0,0.16970100000025923
885,17,0.5,0.25,35.0,1,1.0,0.186301000000185
886,17,0.5,0.125,35.0,1,1.0,0.24310100000047896
887,17,0.5,0.0625,35.0,-1,0.0,0.36690100000032544
888,17,0.5,0.25,-35.0,-1,1.0,0.5166009999998096
889,17,0.5,0.125,-35.0,1,0.0,0.2700009999998656
890,17,0.5,0.125,35.0,1,1.0,0.2831010000004426
891,17,0.5,0.125,35.0,1,1.0,0.1968010000000504
892,17,0.5,0.0625,-35.0,1,0.0,0.18700100000023667
893,17,0.5,0.25,-35.0,-1,1.0,0.3665009999999711
894,17,0.5,0.125,35.0,1,1.0,0.2266010000003007
895,17,0.5,0.0625,35.0,1,1.0,0.20340100000021266
896,17,0.5,0.0625,-35.0,1,0.0,0.2036009999997077
897,17,0.5,0.125,-35.0,-1,1.0,0.6307010000000446
898,17,0.5,1.0,35.0,1,1.0,0.1836009999997259
899,17,0.5,0.0625,35.0,1,1.0,3.9807010000004084
900,17,0.5,1.0,35.0,1,1.0,0.3075010000002294
901,17,0.5,1.0,-35.0,-1,1.0,0.48420100000021193
902,17,0.5,1.0,35.0,1,1.0,0.20790100000021994
903,17,0.5,1.0,35.0,1,1.0,0.22400100000004386
904,17,0.5,0.0625,35.0,1,1.0,0.3174010000002454
905,17,0.5,0.25,-35.0,1,0.0,0.2079009999997652
906,17,0.5,0.0625,-35.0,1,0.0,12.677600999999868
907,17,0.5,0.0625,-35.0,-1,1.0,0.7446009999998751
908,17,0.5,1.0,35.0,1,1.0,0.22790100000020175
909,17,0.5,0.0625,-35.0,1,0.0,0.28130100000043967
910,17,0.5,0.0,35.0,1,1.0,0.5380009999998947
911,17,0.5,0.0625,35.0,1,1.0,0.23810100000036982
912,17,0.5,0.0625,-35.0,1,0.0,0.21160099999997328
913,17,0.9,0.0625,-35.0,1,0.0,0.5815010000001166
914,17,0.5,1.0,-35.0,-1,1.0,0.2587009999997463
915,17,0.5,0.125,-35.0,1,0.0,0.27880099999993035
916,17,0.5,0.125,35.0,1,1.0,0.2452010000001792
917,17,0.5,0.0625,35.0,1,1.0,0.598500999999942
918,17,0.5,0.25,35.0,1,1.0,0.20870100000001912
919,17,0.5,0.25,35.0,-1,0.0,5.53550099999984
920,17,0.5,0.0625,35.0,1,1.0,0.44240099999979066
921,17,0.5,0.125,35.0,-1,0.0,4.475701000000299
922,17,0.5,0.125,-35.0,1,0.0,0.44230100000004313
923,17,0.7,0.125,-35.0,1,0.0,11.342600999999831
924,17,0.5,1.0,-35.0,-1,1.0,4.4463009999999485
925,17,0.5,0.25,-35.0,1,0.0,15.253901000000042
926,17,0.7,0.25,-35.0,-1,1.0,7.293601000000308
927,17,0.5,1.0,-35.0,-1,1.0,5.7073010000003705
928,17,0.5,0.125,-35.0,1,0.0,0.18090099999972153
929,17,0.5,0.25,-35.0,1,0.0,6.117701000000579
930,17,0.5,0.125,35.0,1,1.0,0.40830099999993763
931,17,0.5,0.25,-35.0,-1,1.0,0.40790100000003804
932,17,0.5,0.125,-35.0,1,0.0,0.2778010000001814
933,17,0.5,0.0625,35.0,1,1.0,0.298001000000113
934,17,0.5,0.0,35.0,1,1.0,4.985100999999759
935,17,0.5,0.0,35.0,1,1.0,0.22800100000040402
936,17,0.5,0.0625,-35.0,1,0.0,8.611801000000014
937,17,0.5,0.0625,-35.0,1,0.0,0.2284010000003036
938,17,0.5,0.25,-35.0,-1,1.0,3.545501000000513
939,17,0.5,1.0,-35.0,-1,1.0,0.5955010000002403
940,17,0.5,0.125,35.0,1,1.0,15.21230100000048
941,17,0.5,1.0,35.0,1,1.0,0.19270099999994272
942,17,0.5,0.0,35.0,1,1.0,6.279500999999982
943,17,0.5,0.0625,-35.0,1,0.0,0.512901000000511
1,18,0.5,0.0,35.0,1,1.0,0.41859999999999964
2,18,0.5,0.125,-35.0,-1,1.0,0.9025999999999996
3,18,0.5,0.0,-35.0,-1,1.0,0.18709999999999916
4,18,0.5,0.0625,-35.0,1,0.0,0.9019000000000013
5,18,0.5,0.125,-35.0,-1,1.0,0.3421999999999983
6,18,0.5,1.0,35.0,1,1.0,0.472999999999999
7,18,0.5,0.0,35.0,-1,0.0,1.4829000000000008
8,18,0.5,0.0625,-35.0,-1,1.0,0.45349999999999824
9,18,0.5,0.25,35.0,1,1.0,0.3948999999999998
10,18,0.5,0.0625,35.0,-1,0.0,0.3628
11,18,0.5,0.25,35.0,1,1.0,0.4082000000000008
12,18,0.5,0.0625,-35.0,-1,1.0,0.38240000000000407
13,18,0.5,0.25,35.0,-1,0.0,0.2779000000000025
14,18,0.5,0.0625,35.0,-1,0.0,0.29010000000000247
15,18,0.5,0.0625,35.0,1,1.0,0.39280000000000115
16,18,0.5,0.0,35.0,1,1.0,2.8844000000000065
17,18,0.5,0.0625,35.0,1,1.0,0.26950000000000784
18,18,0.5,0.125,-35.0,-1,1.0,4.568600000000018
19,18,0.5,0.25,-35.0,1,0.0,0.19670000000000698
20,18,0.5,0.0,35.0,-1,0.0,0.23909999999997922
21,18,0.5,0.25,35.0,1,1.0,0.32270000000001176
22,18,0.5,0.125,35.0,1,1.0,0.2715999999999923
23,18,0.5,0.25,-35.0,-1,1.0,0.43540000000001555
24,18,0.5,0.25,35.0,1,1.0,0.2793000000000063
25,18,0.5,0.25,-35.0,-1,1.0,0.4776999999999987
26,18,0.5,1.0,35.0,1,1.0,0.24169999999999447
27,18,0.5,0.0625,-35.0,1,0.0,0.31210000000000093
28,18,0.5,0.25,35.0,1,1.0,0.2575999999999965
29,18,0.5,0.125,35.0,1,1.0,0.2687999999999988
30,18,0.5,0.25,35.0,1,1.0,0.238900000000001
31,18,0.5,0.125,-35.0,1,0.0,0.22010000000000218
32,18,0.8,0.125,35.0,-1,0.0,0.4428999999999945
33,18,0.5,1.0,-35.0,-1,1.0,0.23969999999999914
34,18,0.5,1.0,-35.0,-1,1.0,0.31449999999998113
35,18,0.5,0.0625,-35.0,1,0.0,0.36529999999999063
36,18,0.5,0.0,-35.0,-1,1.0,3.241599999999977
37,18,0.5,1.0,-35.0,-1,1.0,0.32379899999997974
38,18,0.5,0.25,35.0,1,1.0,0.8200999999999965
39,18,0.5,0.25,35.0,1,1.0,0.297300000000007
40,18,0.5,0.125,-35.0,1,0.0,0.31460000000001287
41,18,0.5,0.0,35.0,1,1.0,0.3727999999999838
42,18,0.5,0.125,-35.0,1,0.0,0.2442999999999813
43,18,0.6,0.125,-35.0,-1,1.0,0.2371000000000265
44,18,0.5,1.0,-35.0,-1,1.0,0.25730000000001496
45,18,0.5,0.25,-35.0,-1,1.0,0.47459999999998104
46,18,0.5,0.0,-35.0,-1,1.0,0.27359999999998763
47,18,0.5,1.0,-35.0,-1,1.0,0.32280000000000086
48,18,0.5,0.0,35.0,-1,0.0,2.0757999999999868
49,18,0.5,0.0625,35.0,1,1.0,0.394299999999987
50,18,0.5,1.0,-35.0,-1,1.0,0.7196999999999889
51,18,0.5,0.25,35.0,1,1.0,0.5098000000000127
52,18,0.5,0.0,35.0,-1,0.0,0.4030999999999949
53,18,0.2,0.0,-35.0,1,0.0,0.4316000000000031
54,18,0.5,1.0,35.0,1,1.0,0.2565999999999917
55,18,0.5,0.0,-35.0,-1,1.0,0.2336999999999989
56,18,0.5,0.25,-35.0,1,0.0,0.1986999999999739
57,18,0.5,0.25,35.0,1,1.0,0.308400000000006
58,18,0.5,0.125,35.0,1,1.0,0.23610000000002174
59,18,0.5,0.0625,-35.0,1,0.0,0.46059999999997103
60,18,0.5,0.0625,35.0,1,1.0,0.19249999999999545
61,18,0.5,1.0,35.0,1,1.0,0.25909999999998945
62,18,0.5,0.0625,-35.0,-1,1.0,0.14269999999999072
63,18,0.5,0.125,-35.0,-1,1.0,0.5521999999999707
64,18,0.5,0.0,35.0,-1,0.0,0.20510000000001583
65,18,0.6,0.0,35.0,1,1.0,0.18559999999999377
66,18,0.5,1.0,-35.0,-1,1.0,0.2804000000000144
67,18,0.5,0.125,35.0,1,1.0,0.5126999999999953
68,18,0.5,0.125,-35.0,-1,1.0,0.31119999999998527
69,18,0.5,0.0625,-35.0,-1,1.0,0.231899999999996
70,18,0.5,0.0625,35.0,1,1.0,0.26149999999998386
71,18,0.5,0.0,-35.0,-1,1.0,0.23779999999996448
72,18,0.5,0.25,-35.0,-1,1.0,0.30419999999998026
73,18,0.5,0.0,35.0,-1,0.0,0.34799999999998477
74,18,0.5,0.25,-35.0,-1,1.0,0.2564999999999884
75,18,0.5,0.0625,35.0,1,1.0,0.5706999999999596
76,18,0.5,0.125,35.0,1,1.0,0.19009999999997262
77,18,0.5,0.0,-35.0,-1,1.0,2.2717999999999847
78,18,0.5,0.125,35.0,1,1.0,0.22500000000002274
79,18,0.5,0.0,35.0,1,1.0,0.400100000000009
80,18,0.5,0.125,-35.0,-1,1.0,0.40949999999998
81,18,0.5,0.25,35.0,1,1.0,0.25689999999997326
82,18,0.5,0.0625,-35.0,1,0.0,1.7507999999999697
83,18,0.5,0.0625,-35.0,1,0.0,0.21530000000001337
84,18,0.5,0.0625,-35.0,1,0.0,0.1938000000000102
85,18,0.5,0.125,-35.0,-1,1.0,0.449799999999982
86,18,0.5,0.25,-35.0,-1,1.0,0.27750000000003183
87,18,0.5,0.0,35.0,-1,0.0,0.24059999999997217
88,18,0.5,0.125,-35.0,-1,1.0,0.3576999999999657
89,18,0.5,0.25,-35.0,-1,1.0,1.101099999999974
90,18,0.5,0.0625,35.0,1,1.0,0.2647999999999797
91,18,0.5,0.125,-35.0,1,0.0,0.35309999999998354
92,18,0.5,0.0,35.0,1,1.0,0.31850000000002865
93,18,0.5,0.0,35.0,1,1.0,1.0890999999999167
94,18,0.5,0.125,35.0,1,1.0,3.289800000000014
95,18,0.5,1.0,35.0,1,1.0,0.6321999999999548
96,18,0.5,0.0625,35.0,1,1.0,2.2193999999999505
97,18,0.5,0.125,35.0,1,1.0,0.17859999999996035
98,18,0.5,0.0,-35.0,-1,1.0,2.4472000000000094
99,18,0.5,0.0,-35.0,-1,1.0,0.5350999999999999
100,18,0.5,1.0,-35.0,1,0.0,0.15179999999998017
101,18,0.5,0.0625,35.0,-1,0.0,0.25839999999999463
102,18,0.5,0.125,35.0,-1,0.0,0.45179999999999154
103,18,0.5,0.125,-35.0,-1,1.0,0.4009999999999536
104,18,0.5,0.125,35.0,1,1.0,0.24679999999995061
105,18,0.5,0.0625,-35.0,1,0.0,0.3968999999999596
106,18,0.5,0.0625,-35.0,-1,1.0,0.4516999999999598
107,18,0.5,0.0625,-35.0,-1,1.0,0.27780000000001337
108,18,0.5,0.0625,-35.0,-1,1.0,0.28329999999994016
109,18,0.5,1.0,-35.0,-1,1.0,0.21550000000002
110,18,0.5,0.0625,35.0,-1,0.0,0.339999999999975
111,18,0.2,0.0625,35.0,-1,0.0,0.29270000000002483
112,18,0.5,1.0,35.0,1,1.0,0.2229000000000383
113,18,0.5,0.0625,35.0,1,1.0,0.36129999999997153
114,18,0.5,1.0,35.0,1,1.0,0.4732999999999947
115,18,0.5,0.0625,-35.0,-1,1.0,0.2562000000000353
116,18,0.5,1.0,-35.0,-1,1.0,0.19390000000004193
117,18,0.5,0.25,-35.0,-1,1.0,0.6930999999999585
118,18,0.5,0.25,-35.0,-1,1.0,0.3007000000000062
119,18,0.5,0.0625,35.0,-1,0.0,0.5374999999999659
120,18,0.5,0.0625,35.0,1,1.0,0.268100000000004
121,18,0.5,0.0,35.0,1,1.0,0.2227999999999497
122,18,0.5,0.0,35.0,1,1.0,0.2027999999999679
123,18,0.5,0.125,-35.0,1,0.0,0.15449999999998454
124,18,0.5,0.25,35.0,1,1.0,0.2713000000000534
125,18,0.5,1.0,-35.0,-1,1.0,0.22579999999999245
126,18,0.5,0.125,-35.0,-1,1.0,0.7253000000000043
127,18,0.5,0.25,-35.0,-1,1.0,0.30740000000002965
128,18,0.5,1.0,-35.0,-1,1.0,0.379600000000039
129,18,0.5,0.125,-35.0,-1,1.0,0.6598999999999364
130,18,0.5,0.0625,-35.0,-1,1.0,0.10639999999995098
131,18,0.5,0.125,35.0,-1,0.0,0.2510000000000332
132,18,0.3,0.125,35.0,1,1.0,0.29300000000000637
133,18,0.5,1.0,35.0,1,1.0,0.17990000000003192
134,18,0.5,0.0625,-35.0,-1,1.0,0.44479999999998654
135,18,0.5,0.125,35.0,-1,0.0,0.22539999999997917
136,18,0.5,0.25,-35.0,-1,1.0,0.26319999999998345
137,18,0.5,0.0625,-35.0,-1,1.0,0.376199999999983
138,18,0.5,1.0,-35.0,-1,1.0,0.20479999999997744
139,18,0.5,0.0625,-35.0,-1,1.0,0.19490000000001828
140,18,0.5,0.25,35.0,1,1.0,0.33269999999998845
141,18,0.5,1.0,-35.0,-1,1.0,0.3713999999999942
142,18,0.5,0.125,-35.0,1,0.0,0.19249999999999545
143,18,0.5,0.125,35.0,1,1.0,0.23750000000001137
144,18,0.5,0.25,35.0,1,1.0,0.33150000000000546
145,18,0.5,0.25,35.0,1,1.0,0.18689999999998008
146,18,0.5,1.0,35.0,1,1.0,0.17070000000001073
147,18,0.5,0.0625,-35.0,1,0.0,0.20139999999997826
148,18,0.5,0.25,-35.0,-1,1.0,0.31469999999995935
149,18,0.5,0.0625,-35.0,1,0.0,0.19750000000004775
150,18,0.5,0.0625,-35.0,1,0.0,0.1986999999999739
151,18,0.5,0.125,35.0,1,1.0,0.09649999999999181
152,18,0.5,1.0,35.0,1,1.0,0.17569999999994934
153,18,0.5,0.125,35.0,1,1.0,0.4363999999999919
154,18,0.5,0.125,-35.0,-1,1.0,0.2036000000000513
155,18,0.5,0.125,35.0,1,1.0,0.2177000000000362
156,18,0.5,0.0625,35.0,1,1.0,0.2518000000000029
157,18,0.5,1.0,-35.0,-1,1.0,0.31100000000003547
158,18,0.5,0.25,-35.0,-1,1.0,0.2563989999999876
159,18,0.5,0.125,-35.0,1,0.0,0.18840000000000146
160,18,0.7,0.125,35.0,1,1.0,0.24749999999994543
161,18,0.5,1.0,-35.0,-1,1.0,0.27110000000004675
162,18,0.5,1.0,35.0,1,1.0,0.17650000000003274
163,18,0.5,1.0,-35.0,-1,1.0,0.543399999999906
164,18,0.5,1.0,35.0,1,1.0,0.2339999999999236
165,18,0.5,0.0625,35.0,1,1.0,0.17599999999993088
166,18,0.5,1.0,-35.0,-1,1.0,0.26779999999985193
167,18,0.5,0.0625,35.0,1,1.0,0.2740999999999758
168,18,0.5,0.0625,-35.0,1,0.0,0.23029999999994288
169,18,0.5,0.0625,35.0,1,1.0,0.2675000000000409
170,18,0.5,0.125,-35.0,1,0.0,0.18639999999993506
171,18,0.5,0.0625,-35.0,1,0.0,0.21500000000003183
172,18,0.5,0.0,-35.0,1,0.0,0.2400000000000091
173,18,0.5,0.0625,-35.0,1,0.0,0.25689999999997326
174,18,0.5,0.0625,35.0,1,1.0,0.21909999999991214
175,18,0.5,0.125,35.0,-1,0.0,0.14089999999987413
176,18,0.8,0.125,35.0,-1,0.0,0.084699999999998
177,18,0.5,1.0,-35.0,1,0.0,0.1875
178,18,0.5,0.125,-35.0,-1,1.0,0.36760000000003856
179,18,0.5,0.25,-35.0,-1,1.0,0.37369999999998527
180,18,0.5,0.25,35.0,1,1.0,0.21500000000003183
181,18,0.5,0.125,35.0,1,1.0,0.4257999999999811
182,18,0.5,1.0,-35.0,-1,1.0,1.0249999999999773
183,18,0.5,0.0625,-35.0,-1,1.0,0.2699999999999818
184,18,0.5,0.125,-35.0,-1,1.0,0.2807999999999993
185,18,0.5,0.125,-35.0,-1,1.0,0.16769999999996799
186,18,0.5,0.0625,35.0,1,1.0,1.6254999999998745
187,18,0.5,1.0,-35.0,-1,1.0,0.459699999999998
188,18,0.5,1.0,-35.0,-1,1.0,0.6656009999999242
189,18,0.5,0.25,-35.0,-1,1.0,0.5758010000000695
190,18,0.5,0.125,35.0,1,1.0,0.5894010000000662
191,18,0.5,0.25,35.0,1,1.0,0.19870100000002822
192,18,0.5,0.0625,-35.0,1,0.0,0.2296010000000024
193,18,0.5,0.0,35.0,1,1.0,0.1770010000000184
194,18,0.5,1.0,-35.0,-1,1.0,0.39190099999996164
195,18,0.5,0.0625,35.0,1,1.0,0.3726010000000315
196,18,0.5,0.0625,35.0,1,1.0,0.47630099999992126
197,18,0.5,0.125,-35.0,-1,1.0,0.1467010000000073
