trial_num,session_num,stim_probability_left,contrast,position,response_choice,trial_correct,reaction_time
1,1,0.5,0.25,-35.0,-1,1.0,1.5040000000000002
2,1,0.5,1.0,35.0,1,1.0,0.3616999999999999
3,1,0.5,0.25,35.0,1,1.0,4.4350000000000005
4,1,0.5,0.0625,35.0,-1,0.0,2.7254000000000005
5,1,0.5,0.0625,-35.0,-1,1.0,2.6876999999999995
6,1,0.5,0.25,-35.0,-1,1.0,1.8126999999999995
7,1,0.5,0.0,-35.0,-1,1.0,2.97529999999999
8,1,0.5,1.0,35.0,1,1.0,2.7460999999999984
9,1,0.5,0.125,-35.0,-1,1.0,4.7943
10,1,0.5,1.0,35.0,1,1.0,0.3322999999999965
11,1,0.5,1.0,35.0,1,1.0,0.3195999999999941
12,1,0.5,0.25,35.0,1,1.0,6.577000000000005
13,1,0.5,0.125,35.0,1,1.0,2.7627999999999986
14,1,0.5,0.0,-35.0,-1,1.0,4.210100000000011
15,1,0.5,0.25,35.0,1,1.0,4.370199999999997
16,1,0.5,0.125,35.0,-1,0.0,4.408799999999999
17,1,0.5,0.125,-35.0,-1,1.0,0.23559999999999093
18,1,0.5,0.25,-35.0,-1,1.0,3.625700000000009
19,1,0.5,1.0,35.0,1,1.0,0.19089999999999918
20,1,0.5,0.0625,35.0,1,1.0,0.848700000000008
21,1,0.5,0.125,35.0,1,1.0,4.241200000000006
22,1,0.5,0.125,35.0,-1,0.0,4.3145000000000095
23,1,0.5,1.0,35.0,1,1.0,1.9224000000000103
24,1,0.5,0.125,-35.0,-1,1.0,0.9873000000000047
25,1,0.5,0.0625,35.0,-1,0.0,4.020999999999987
26,1,0.5,0.125,35.0,1,1.0,0.4072000000000173
27,1,0.5,0.0625,-35.0,-1,1.0,0.4541990000000169
28,1,0.5,0.0625,-35.0,1,0.0,4.350500000000011
29,1,0.5,0.125,-35.0,-1,1.0,1.6363000000000056
30,1,0.5,0.125,-35.0,-1,1.0,3.907199999999989
31,1,0.5,0.25,-35.0,-1,1.0,0.5566000000000031
32,1,0.5,0.125,35.0,1,1.0,0.44880000000000564
33,1,0.5,0.0625,35.0,1,1.0,2.3140999999999963
34,1,0.5,0.25,35.0,1,1.0,0.31159999999999854
35,1,0.5,1.0,-35.0,-1,1.0,0.3534999999999968
36,1,0.5,0.25,35.0,1,1.0,3.741199999999992
37,1,0.5,1.0,35.0,1,1.0,0.45309999999997785
38,1,0.5,0.25,35.0,-1,0.0,5.50569999999999
39,1,0.5,0.25,-35.0,-1,1.0,0.4795000000000016
40,1,0.5,1.0,35.0,1,1.0,3.380899999999997
41,1,0.5,0.125,-35.0,-1,1.0,0.47110000000000696
42,1,0.5,0.0625,35.0,-1,0.0,2.657199999999989
43,1,0.5,1.0,35.0,1,1.0,0.2657000000000096
44,1,0.5,0.0625,-35.0,-1,1.0,2.7874999999999943
45,1,0.5,0.0,-35.0,1,0.0,3.5109999999999957
46,1,0.5,1.0,35.0,1,1.0,0.34339999999997417
47,1,0.5,0.25,35.0,-1,0.0,4.377499999999998
48,1,0.5,0.0,35.0,-1,0.0,1.5097000000000094
49,1,0.5,0.0625,35.0,-1,0.0,2.7822000000000457
50,1,0.5,0.25,-35.0,-1,1.0,0.5247999999999706
51,1,0.5,0.0625,35.0,1,1.0,6.197000000000003
52,1,0.5,0.0,-35.0,1,0.0,3.2795999999999594
53,1,0.5,0.125,35.0,1,1.0,0.7702999999999633
54,1,0.5,1.0,35.0,1,1.0,0.27729999999996835
55,1,0.5,1.0,35.0,1,1.0,0.2618999999999687
56,1,0.5,0.0625,35.0,1,1.0,6.562099999999987
57,1,0.5,0.0625,-35.0,-1,1.0,0.5858000000000061
58,1,0.5,1.0,35.0,1,1.0,0.30410000000000537
59,1,0.5,0.25,-35.0,-1,1.0,0.7998000000000047
60,1,0.5,0.25,35.0,1,1.0,0.2932999999999879
61,1,0.5,0.0,35.0,-1,0.0,5.932600000000036
62,1,0.5,0.0,-35.0,1,0.0,0.31770000000005894
63,1,0.5,0.125,35.0,1,1.0,0.32630000000000337
64,1,0.5,0.0,-35.0,-1,1.0,7.898799999999994
65,1,0.5,0.0,35.0,-1,0.0,0.2400000000000091
66,1,0.5,0.25,-35.0,-1,1.0,0.23310000000003583
67,1,0.5,1.0,-35.0,-1,1.0,0.2658000000000129
68,1,0.5,1.0,-35.0,-1,1.0,0.36259999999998627
69,1,0.5,0.0,35.0,-1,0.0,0.4596000000000231
70,1,0.5,0.125,35.0,1,1.0,0.3146000000000413
71,1,0.5,0.125,35.0,1,1.0,0.2947000000000344
72,1,0.5,0.25,35.0,1,1.0,0.3575000000000159
73,1,0.5,0.125,35.0,1,1.0,0.3140000000000214
74,1,0.5,1.0,35.0,1,1.0,0.2547999999999888
75,1,0.5,0.25,-35.0,-1,1.0,0.6259999999999764
76,1,0.5,0.0625,35.0,1,1.0,1.2006000000000085
77,1,0.5,0.25,-35.0,-1,1.0,4.115200000000016
78,1,0.5,0.125,-35.0,-1,1.0,0.41210000000000946
79,1,0.5,0.0625,35.0,-1,0.0,1.3740000000000236
80,1,0.5,0.125,-35.0,1,0.0,0.09530000000000882
81,1,0.5,0.0625,35.0,-1,0.0,0.3756000000000199
82,1,0.5,0.25,35.0,1,1.0,0.27690000000006876
83,1,0.5,0.25,35.0,1,1.0,0.23989999999997735
84,1,0.5,0.125,-35.0,1,0.0,0.6791999999999803
85,1,0.5,0.125,35.0,1,1.0,0.2985999999999649
86,1,0.5,1.0,35.0,1,1.0,0.20490000000000919
87,1,0.5,0.25,-35.0,-1,1.0,0.3439999999999941
88,1,0.5,0.125,-35.0,1,0.0,1.3138999999999896
89,1,0.5,1.0,-35.0,-1,1.0,1.2151999999999816
90,1,0.5,1.0,35.0,1,1.0,0.33250000000003865
91,1,0.8,0.0625,-35.0,-1,1.0,1.2014999999999532
92,1,0.8,0.25,-35.0,-1,1.0,0.38929999999999154
93,1,0.8,1.0,-35.0,-1,1.0,0.38030000000003383
94,1,0.8,1.0,-35.0,-1,1.0,0.9576999999999884
95,1,0.8,0.0625,-35.0,-1,1.0,4.1959999999999695
96,1,0.8,0.25,-35.0,-1,1.0,0.29740000000003874
97,1,0.8,1.0,-35.0,-1,1.0,0.48270000000002256
98,1,0.8,0.25,-35.0,-1,1.0,1.1482000000000312
99,1,0.8,0.0625,-35.0,-1,1.0,13.231100000000026
100,1,0.8,0.0,-35.0,-1,1.0,4.6906999999999925
101,1,0.8,0.0,-35.0,-1,1.0,0.20519999999999072
102,1,0.8,0.125,35.0,1,1.0,0.35070000000001755
103,1,0.8,0.0,35.0,1,1.0,3.2701000000000136
104,1,0.8,0.25,-35.0,-1,1.0,0.3280000000000314
105,1,0.8,0.0625,35.0,1,1.0,0.8629999999999427
106,1,0.8,0.25,35.0,-1,0.0,2.7404000000000224
107,1,0.8,0.0625,35.0,1,1.0,0.43600000000003547
108,1,0.8,0.0625,-35.0,-1,1.0,0.2481999999999971
109,1,0.8,0.0625,-35.0,1,0.0,4.419200000000046
110,1,0.8,0.25,-35.0,-1,1.0,0.1836999999999307
111,1,0.8,0.25,35.0,1,1.0,0.7685000000000173
112,1,0.8,0.25,-35.0,-1,1.0,0.4594000000000733
113,1,0.8,1.0,-35.0,-1,1.0,0.36749999999995
114,1,0.2,0.125,-35.0,-1,1.0,0.41899999999986903
115,1,0.2,0.0625,35.0,1,1.0,1.403299999999831
116,1,0.2,0.0625,-35.0,1,0.0,2.4529999999999745
117,1,0.2,1.0,35.0,1,1.0,0.29739999999992506
118,1,0.2,0.25,35.0,1,1.0,0.332599999999843
119,1,0.2,0.25,35.0,1,1.0,2.6451999999999316
120,1,0.2,0.125,35.0,-1,0.0,4.527299999999855
121,1,0.2,0.0625,-35.0,-1,1.0,2.8857999999999038
122,1,0.2,0.0625,35.0,-1,0.0,2.8232000000000426
123,1,0.2,0.125,35.0,1,1.0,0.6229999999999336
124,1,0.2,1.0,-35.0,-1,1.0,0.32989999999983866
125,1,0.2,0.0625,35.0,-1,0.0,4.389999999999873
126,1,0.2,0.0,35.0,-1,0.0,0.32749999999998636
127,1,0.2,1.0,35.0,1,1.0,0.34169999999994616
128,1,0.2,0.125,35.0,1,1.0,0.6050999999998794
129,1,0.2,1.0,35.0,1,1.0,0.2522999999999911
130,1,0.2,1.0,35.0,1,1.0,0.27979999999990923
131,1,0.2,0.0625,35.0,-1,0.0,0.2319999999999709
132,1,0.2,0.25,35.0,1,1.0,0.45099999999990814
133,1,0.2,0.125,35.0,1,1.0,3.606499999999869
134,1,0.2,0.0625,35.0,-1,0.0,0.6995999999998048
135,1,0.2,0.25,35.0,1,1.0,1.0342999999999165
136,1,0.2,1.0,35.0,1,1.0,4.550399999999968
137,1,0.2,0.0,35.0,-1,0.0,4.116999999999962
138,1,0.2,0.125,35.0,1,1.0,0.3122999999999365
139,1,0.2,0.0,35.0,1,1.0,3.4202999999999975
140,1,0.2,0.125,35.0,1,1.0,3.3881000000000085
141,1,0.2,0.125,35.0,1,1.0,0.6866999999999734
142,1,0.2,0.125,35.0,-1,0.0,4.26439999999991
143,1,0.2,0.25,35.0,1,1.0,0.466199999999958
144,1,0.2,0.25,35.0,1,1.0,3.8730000000000473
145,1,0.2,0.0625,-35.0,-1,1.0,2.794999999999959
146,1,0.2,0.25,35.0,1,1.0,0.324399999999855
147,1,0.2,0.0625,-35.0,-1,1.0,5.348599999999919
148,1,0.2,0.0,-35.0,-1,1.0,3.7031999999999243
149,1,0.2,0.125,35.0,1,1.0,0.4011000000000422
150,1,0.2,1.0,-35.0,-1,1.0,0.38639999999998054
151,1,0.2,1.0,35.0,1,1.0,0.3020000000000209
152,1,0.2,0.125,35.0,-1,0.0,4.743200000000002
153,1,0.2,0.0625,35.0,-1,0.0,2.1433999999999287
154,1,0.2,0.0,35.0,1,1.0,0.46690000000000964
155,1,0.2,0.125,35.0,1,1.0,0.34569999999996526
156,1,0.2,0.0625,35.0,1,1.0,1.3887999999998328
157,1,0.2,1.0,35.0,1,1.0,0.2828999999999269
158,1,0.2,0.0,35.0,-1,0.0,0.37619999999981246
159,1,0.2,0.0625,35.0,1,1.0,0.3564999999999827
160,1,0.2,0.0,35.0,1,1.0,3.33949999999993
161,1,0.2,0.125,-35.0,-1,1.0,0.9229999999998881
162,1,0.2,0.0625,35.0,1,1.0,3.3086999999999307
163,1,0.2,0.0625,35.0,-1,0.0,0.19509999999991123
164,1,0.2,0.0,35.0,1,1.0,0.5829999999998563
165,1,0.2,0.0,35.0,1,1.0,0.42840000000001055
166,1,0.2,0.0625,35.0,1,1.0,0.3350000000000364
167,1,0.2,1.0,35.0,1,1.0,0.3166999999999689
168,1,0.2,0.0,35.0,1,1.0,4.866599999999835
169,1,0.2,0.0625,35.0,1,1.0,0.3386999999999034
170,1,0.2,0.0625,35.0,-1,0.0,0.9710999999999785
171,1,0.2,0.25,35.0,1,1.0,0.3748000000000502
172,1,0.2,0.0625,-35.0,1,0.0,4.901899999999955
173,1,0.2,0.125,35.0,1,1.0,0.48269999999990887
174,1,0.2,0.125,-35.0,-1,1.0,0.3813999999999851
175,1,0.2,0.0625,35.0,-1,0.0,4.210799999999949
176,1,0.8,0.0,-35.0,1,0.0,0.4841999999999871
177,1,0.8,0.25,-35.0,-1,1.0,0.39249999999992724
178,1,0.8,0.25,-35.0,-1,1.0,0.31209999999987303
179,1,0.8,0.0625,-35.0,-1,1.0,0.6970999999999776
180,1,0.8,0.125,-35.0,-1,1.0,0.5032999999999674
181,1,0.8,0.0625,-35.0,-1,1.0,0.6154999999999973
182,1,0.8,0.125,-35.0,-1,1.0,1.6175999999999249
183,1,0.8,0.25,-35.0,-1,1.0,0.6574999999999136
184,1,0.8,0.125,-35.0,-1,1.0,3.8355999999998858
185,1,0.8,0.0,-35.0,-1,1.0,2.9133999999999105
186,1,0.8,0.25,-35.0,-1,1.0,0.3872000000000071
187,1,0.8,0.125,-35.0,-1,1.0,0.37409999999999854
188,1,0.8,0.0625,-35.0,-1,1.0,2.8550999999998794
189,1,0.8,1.0,-35.0,-1,1.0,0.29329999999993106
190,1,0.8,0.0,35.0,-1,0.0,0.5662999999999556
191,1,0.8,1.0,-35.0,-1,1.0,0.34209999999984575
192,1,0.8,0.0625,-35.0,-1,1.0,0.44010000000002947
193,1,0.8,1.0,-35.0,-1,1.0,0.3365000000000009
194,1,0.8,0.125,-35.0,-1,1.0,0.4375999999999749
195,1,0.8,1.0,-35.0,-1,1.0,0.25
196,1,0.8,1.0,-35.0,-1,1.0,0.24679999999989377
197,1,0.8,0.0625,-35.0,-1,1.0,0.4193999999998823
198,1,0.8,0.25,35.0,1,1.0,0.4600000000000364
199,1,0.8,0.0625,35.0,-1,0.0,2.501100000000065
200,1,0.8,0.0625,-35.0,-1,1.0,0.13839999999993324
201,1,0.8,0.25,-35.0,-1,1.0,0.2726000000000113
202,1,0.8,1.0,-35.0,-1,1.0,0.36229999999989104
203,1,0.8,0.25,35.0,1,1.0,0.5807999999999538
204,1,0.8,0.125,-35.0,-1,1.0,0.3290999999999258
205,1,0.8,0.0,-35.0,-1,1.0,5.454499999999939
206,1,0.8,0.25,35.0,1,1.0,0.3002999999998792
207,1,0.8,0.125,-35.0,-1,1.0,0.5595999999999322
208,1,0.8,0.0,-35.0,-1,1.0,4.481099999999969
209,1,0.8,0.0625,-35.0,-1,1.0,3.913699999999835
210,1,0.8,1.0,-35.0,1,0.0,0.46489999999994325
211,1,0.8,0.0625,-35.0,-1,1.0,2.9590999999999212
212,1,0.8,0.25,-35.0,-1,1.0,0.42799999999999727
213,1,0.8,1.0,-35.0,-1,1.0,4.439600000000041
214,1,0.8,0.125,-35.0,1,0.0,0.9106000000000449
215,1,0.2,0.25,35.0,1,1.0,0.3020999999999958
216,1,0.2,0.0,35.0,-1,0.0,2.3525999999999385
217,1,0.2,0.25,35.0,1,1.0,0.3048999999998614
218,1,0.2,0.0,35.0,1,1.0,2.493299999999863
219,1,0.2,0.25,35.0,-1,0.0,4.233899999999835
220,1,0.2,0.0,35.0,1,1.0,0.7078999999999951
221,1,0.2,0.0,35.0,-1,0.0,3.8672000000000253
222,1,0.2,0.125,35.0,1,1.0,0.2939999999999827
223,1,0.2,0.0,-35.0,1,0.0,5.803899999999885
224,1,0.2,0.0625,35.0,1,1.0,0.4375999999998612
225,1,0.2,0.125,35.0,1,1.0,0.2946999999999207
226,1,0.2,1.0,35.0,1,1.0,0.3044999999999618
227,1,0.2,0.0625,-35.0,-1,1.0,8.571500000000242
228,1,0.2,0.0625,-35.0,-1,1.0,0.8614000000000033
229,1,0.2,1.0,-35.0,-1,1.0,0.5321000000001277
230,1,0.2,0.25,35.0,1,1.0,0.5054000000002361
231,1,0.2,0.25,35.0,1,1.0,0.328899999999976
232,1,0.2,0.125,35.0,1,1.0,0.4454000000000633
233,1,0.2,0.25,35.0,1,1.0,1.118900000000167
234,1,0.2,0.125,-35.0,-1,1.0,1.89870000000019
235,1,0.2,1.0,35.0,1,1.0,0.45250000000010004
236,1,0.2,0.0625,35.0,-1,0.0,0.5188989999999194
237,1,0.2,1.0,35.0,1,1.0,0.5561000000002423
238,1,0.2,1.0,35.0,1,1.0,0.2961999999999989
239,1,0.2,0.0625,35.0,1,1.0,0.7593000000001666
240,1,0.2,0.0625,35.0,-1,0.0,0.662499999999909
241,1,0.2,0.0625,35.0,-1,0.0,6.90949999999998
242,1,0.2,0.0625,35.0,1,1.0,0.377100000000155
243,1,0.2,1.0,35.0,1,1.0,0.2438999999999396
244,1,0.2,0.125,-35.0,-1,1.0,0.33320000000003347
245,1,0.2,0.0,-35.0,-1,1.0,5.536900000000287
246,1,0.2,0.125,35.0,-1,0.0,0.28710000000023683
247,1,0.2,0.125,35.0,-1,0.0,0.5873000000001412
248,1,0.2,0.25,35.0,1,1.0,0.29740000000015243
249,1,0.2,0.25,-35.0,-1,1.0,0.39400000000023283
250,1,0.2,0.0,35.0,1,1.0,0.6271999999999025
251,1,0.2,0.0,35.0,-1,0.0,5.230600000000095
252,1,0.2,1.0,-35.0,-1,1.0,0.33740000000011605
253,1,0.2,0.125,35.0,1,1.0,0.5779999999999745
254,1,0.2,0.0625,35.0,1,1.0,0.4874999999999545
255,1,0.2,0.0625,35.0,-1,0.0,0.17090000000007421
256,1,0.2,0.0625,35.0,1,1.0,0.40780000000017935
257,1,0.2,0.125,35.0,1,1.0,0.34770000000003165
258,1,0.2,1.0,35.0,1,1.0,0.29129999999986467
259,1,0.2,0.0,35.0,-1,0.0,0.924900000000207
260,1,0.2,1.0,35.0,1,1.0,0.3080000000002201
261,1,0.2,1.0,35.0,-1,0.0,0.03510000000005675
262,1,0.2,0.25,35.0,1,1.0,0.3183999999998832
263,1,0.2,1.0,35.0,1,1.0,0.2718999999999596
264,1,0.2,0.25,-35.0,-1,1.0,0.45519999999987704
265,1,0.2,1.0,35.0,1,1.0,0.2618999999999687
266,1,0.2,0.0,-35.0,1,0.0,2.6852000000001226
267,1,0.2,0.0,35.0,1,1.0,0.4885999999999058
268,1,0.2,0.0,35.0,-1,0.0,0.6121000000000549
269,1,0.2,0.0,35.0,-1,0.0,4.419100000000299
270,1,0.2,0.25,-35.0,-1,1.0,0.36560000000031323
271,1,0.2,0.25,35.0,1,1.0,0.2495000000001255
272,1,0.2,0.0,35.0,-1,0.0,0.24929999999994834
273,1,0.2,0.0,35.0,-1,0.0,1.7427999999999884
274,1,0.2,0.0,35.0,1,1.0,0.3264999999998963
275,1,0.2,0.0,35.0,-1,0.0,1.0799000000001797
276,1,0.2,0.25,35.0,1,1.0,0.37320000000022446
277,1,0.2,1.0,35.0,1,1.0,1.4463000000000648
278,1,0.2,0.25,35.0,1,1.0,5.909800000000132
279,1,0.2,0.25,35.0,1,1.0,0.4334000000001197
280,1,0.2,0.125,35.0,1,1.0,4.466699999999946
281,1,0.2,0.0625,35.0,-1,0.0,0.6438000000000557
282,1,0.2,1.0,-35.0,-1,1.0,0.34050000000002
283,1,0.2,0.0625,35.0,1,1.0,5.017800000000079
284,1,0.2,0.25,35.0,1,1.0,0.3242000000002463
285,1,0.2,0.25,-35.0,-1,1.0,1.891300000000001
286,1,0.2,1.0,35.0,1,1.0,0.3845000000001164
287,1,0.2,1.0,35.0,1,1.0,0.41150000000016007
288,1,0.2,0.0625,-35.0,-1,1.0,6.658000000000129
289,1,0.2,0.25,-35.0,-1,1.0,4.254799999999932
290,1,0.2,0.25,35.0,1,1.0,0.9682999999999993
291,1,0.8,0.0,-35.0,1,0.0,5.485300000000052
292,1,0.8,1.0,35.0,1,1.0,0.25870000000008986
293,1,0.8,1.0,35.0,1,1.0,0.5522000000000844
294,1,0.8,1.0,-35.0,-1,1.0,0.4124000000001615
295,1,0.8,0.25,-35.0,-1,1.0,0.5623000000000502
296,1,0.8,0.0625,-35.0,-1,1.0,5.602399999999989
297,1,0.8,0.25,-35.0,-1,1.0,1.9966000000001713
298,1,0.8,0.0,-35.0,-1,1.0,5.296199999999999
299,1,0.8,0.125,-35.0,-1,1.0,3.4930000000001655
300,1,0.8,0.0625,-35.0,-1,1.0,0.49680000000012114
301,1,0.8,0.25,-35.0,-1,1.0,0.6200000000001182
302,1,0.8,0.0625,-35.0,-1,1.0,2.5333999999998014
303,1,0.8,1.0,-35.0,-1,1.0,0.6567000000002281
304,1,0.8,0.0625,-35.0,-1,1.0,2.2840000000001055
305,1,0.8,1.0,-35.0,-1,1.0,0.10030000000006112
306,1,0.8,1.0,-35.0,-1,1.0,0.3505000000002383
307,1,0.8,0.0,-35.0,-1,1.0,4.620599999999968
308,1,0.8,1.0,-35.0,-1,1.0,0.5074000000001888
309,1,0.8,1.0,-35.0,-1,1.0,3.29079999999999
310,1,0.8,0.0625,35.0,-1,0.0,1.5876000000000658
311,1,0.8,0.0,-35.0,-1,1.0,3.1645999999998367
312,1,0.8,0.125,35.0,1,1.0,5.124499999999898
313,1,0.8,0.0625,-35.0,-1,1.0,2.111900000000105
314,1,0.8,0.25,35.0,-1,0.0,0.7952000000002499
315,1,0.2,0.125,35.0,1,1.0,0.5317000000000007
316,1,0.2,0.0625,35.0,-1,0.0,4.732000000000198
317,1,0.2,1.0,35.0,1,1.0,0.435399999999845
318,1,0.2,1.0,-35.0,-1,1.0,0.32560000000012224
319,1,0.2,0.25,35.0,1,1.0,5.7590999999999894
320,1,0.2,0.25,35.0,1,1.0,4.335900000000038
321,1,0.2,0.0625,-35.0,-1,1.0,3.932800000000043
322,1,0.2,0.25,35.0,1,1.0,1.9062999999998738
323,1,0.2,0.25,35.0,1,1.0,3.40969999999993
324,1,0.2,0.0625,35.0,1,1.0,2.856899999999996
325,1,0.2,1.0,35.0,1,1.0,0.2769999999998163
326,1,0.2,0.0625,35.0,1,1.0,5.213500000000295
327,1,0.2,0.125,35.0,1,1.0,0.6869000000001506
328,1,0.2,0.125,35.0,-1,0.0,5.467399999999998
329,1,0.2,0.25,35.0,1,1.0,0.824100000000044
330,1,0.2,0.0625,-35.0,-1,1.0,5.847400000000107
331,1,0.2,0.0,35.0,-1,0.0,3.580999000000247
332,1,0.2,1.0,35.0,1,1.0,0.3143999999999778
333,1,0.2,0.0625,35.0,1,1.0,5.688600000000179
334,1,0.2,0.0625,35.0,1,1.0,3.4180999999998676
335,1,0.2,1.0,35.0,1,1.0,1.0648000000001048
336,1,0.2,0.25,-35.0,-1,1.0,1.6054000000001452
337,1,0.2,0.25,35.0,1,1.0,0.25530000000003383
338,1,0.2,0.0,-35.0,-1,1.0,9.382400000000189
339,1,0.2,0.25,-35.0,-1,1.0,0.3225000000002183
340,1,0.2,0.25,35.0,1,1.0,3.0027999999999793
341,1,0.2,0.25,35.0,1,1.0,0.4230999999999767
342,1,0.2,0.25,35.0,-1,0.0,6.399499999999989
343,1,0.2,0.0625,35.0,-1,0.0,7.19640000000004
344,1,0.2,0.25,35.0,1,1.0,7.1865999999999985
345,1,0.2,0.125,35.0,1,1.0,6.380300000000261
346,1,0.2,1.0,35.0,1,1.0,0.06099999999992178
347,1,0.2,0.125,35.0,-1,0.0,5.527399999999943
348,1,0.2,0.125,35.0,1,1.0,2.474100000000135
349,1,0.2,1.0,35.0,1,1.0,4.58439999999996
350,1,0.2,1.0,35.0,1,1.0,5.78469999999993
351,1,0.2,0.25,35.0,1,1.0,1.1015000000002146
352,1,0.2,0.125,-35.0,-1,1.0,4.414800000000014
353,1,0.2,0.0,35.0,-1,0.0,6.241800000000012
354,1,0.2,0.125,35.0,1,1.0,0.4452000000001135
355,1,0.8,0.0,-35.0,1,0.0,9.54600000000005
356,1,0.8,0.0625,-35.0,-1,1.0,2.825900000000047
357,1,0.8,1.0,35.0,1,1.0,3.295799999999872
358,1,0.8,0.0625,-35.0,-1,1.0,1.7230000000001837
359,1,0.8,0.125,-35.0,-1,1.0,0.13660000000004402
360,1,0.8,1.0,-35.0,-1,1.0,0.20970000000011169
361,1,0.8,0.0625,-35.0,-1,1.0,1.0265000000001692
362,1,0.8,0.25,-35.0,-1,1.0,1.0767000000000735
363,1,0.8,0.125,-35.0,-1,1.0,1.7199000000000524
364,1,0.8,1.0,-35.0,-1,1.0,0.3366000000000895
365,1,0.8,0.25,-35.0,-1,1.0,0.5934999999999491
366,1,0.8,1.0,-35.0,-1,1.0,0.4537000000000262
367,1,0.8,0.125,-35.0,-1,1.0,4.150300000000016
368,1,0.8,1.0,-35.0,-1,1.0,0.3773000000001048
369,1,0.8,0.0625,35.0,-1,0.0,4.233799999999974
370,1,0.8,1.0,-35.0,-1,1.0,0.49090000000001055
371,1,0.8,1.0,-35.0,-1,1.0,0.5308999999999742
372,1,0.8,0.25,-35.0,-1,1.0,0.7944999999999709
373,1,0.8,0.0,-35.0,-1,1.0,4.767800000000079
374,1,0.8,1.0,-35.0,-1,1.0,0.38180000000011205
375,1,0.8,0.125,35.0,-1,0.0,0.9646999999999935
376,1,0.8,0.125,35.0,1,1.0,0.4216000000001259
377,1,0.8,1.0,-35.0,-1,1.0,0.3581000000001495
378,1,0.8,0.125,-35.0,-1,1.0,0.42200000000002547
379,1,0.8,0.25,-35.0,-1,1.0,0.2522000000001299
380,1,0.8,0.25,-35.0,-1,1.0,0.5921000000000731
381,1,0.8,1.0,35.0,1,1.0,0.2656000000001768
382,1,0.8,0.25,-35.0,-1,1.0,1.518500000000131
383,1,0.8,1.0,-35.0,-1,1.0,0.2754000000002179
384,1,0.8,1.0,-35.0,-1,1.0,0.3124000000000251
385,1,0.8,0.0625,-35.0,-1,1.0,0.5726000000001932
386,1,0.2,1.0,-35.0,-1,1.0,0.38570000000026994
387,1,0.2,0.125,35.0,1,1.0,0.6490000000001146
388,1,0.2,0.125,-35.0,-1,1.0,0.32920000000012806
389,1,0.2,0.0,-35.0,-1,1.0,0.4692000000002281
390,1,0.2,0.25,35.0,1,1.0,0.28919999999993706
391,1,0.2,0.125,35.0,1,1.0,0.2860000000000582
392,1,0.2,0.25,35.0,1,1.0,0.31940000000008695
393,1,0.2,1.0,35.0,1,1.0,0.24959899999998925
394,1,0.2,0.125,-35.0,-1,1.0,1.0528000000001612
395,1,0.2,0.0625,-35.0,-1,1.0,0.513300000000072
396,1,0.2,0.25,35.0,1,1.0,0.43640000000004875
397,1,0.2,0.125,-35.0,-1,1.0,0.45709999999985484
398,1,0.2,1.0,35.0,1,1.0,0.23640000000000327
399,1,0.2,1.0,35.0,1,1.0,0.23340000000007421
400,1,0.2,0.0625,35.0,-1,0.0,0.2900999999999385
401,1,0.2,1.0,35.0,1,1.0,0.33360000000016043
402,1,0.2,1.0,35.0,1,1.0,0.28340000000002874
403,1,0.2,1.0,35.0,1,1.0,0.27700000000004366
404,1,0.2,0.125,-35.0,-1,1.0,5.057199999999966
405,1,0.2,1.0,35.0,1,1.0,0.20109999999999673
406,1,0.2,1.0,35.0,1,1.0,0.2674000000001797
407,1,0.2,0.0625,35.0,-1,0.0,4.047600000000102
408,1,0.2,0.0625,35.0,1,1.0,0.3242000000000189
409,1,0.2,0.25,35.0,1,1.0,4.391500000000178
410,1,0.2,1.0,-35.0,-1,1.0,0.33809999999994034
411,1,0.2,0.125,-35.0,-1,1.0,0.34780000000000655
412,1,0.2,0.25,-35.0,-1,1.0,0.6647000000002663
413,1,0.2,0.25,35.0,1,1.0,0.4113999999999578
414,1,0.2,0.25,35.0,1,1.0,0.32150000000001455
415,1,0.2,1.0,35.0,1,1.0,0.33209999999985484
416,1,0.2,1.0,35.0,1,1.0,0.285200000000259
417,1,0.2,0.0625,35.0,-1,0.0,3.6759000000001834
418,1,0.2,1.0,35.0,1,1.0,0.3227999999999156
419,1,0.2,0.25,35.0,1,1.0,6.302500000000009
420,1,0.2,0.25,35.0,1,1.0,4.705799999999954
421,1,0.2,0.125,35.0,1,1.0,3.5291000000001986
422,1,0.2,0.0625,35.0,1,1.0,4.686200000000326
423,1,0.2,0.125,35.0,1,1.0,9.326800000000048
424,1,0.2,0.0,35.0,-1,0.0,11.006599999999935
425,1,0.2,1.0,35.0,1,1.0,0.4068999999999505
426,1,0.2,0.125,35.0,1,1.0,5.667799000000059
427,1,0.2,1.0,35.0,1,1.0,2.810799999999972
428,1,0.2,0.25,35.0,1,1.0,6.024000000000115
429,1,0.2,0.125,35.0,1,1.0,0.9048000000000229
430,1,0.2,0.0625,35.0,1,1.0,15.52800000000002
431,1,0.2,0.125,35.0,1,1.0,4.36200000000008
432,1,0.2,0.0625,35.0,1,1.0,3.9684000000002015
433,1,0.2,0.0625,35.0,-1,0.0,4.755400000000009
434,1,0.2,0.0625,35.0,-1,0.0,6.0823999999997795
435,1,0.2,0.0,35.0,-1,0.0,3.669000000000324
436,1,0.2,0.125,35.0,-1,0.0,6.373099999999795
437,1,0.2,0.25,35.0,1,1.0,0.6368999999999687
438,1,0.2,1.0,-35.0,-1,1.0,2.2435999999997875
1,2,0.5,1.0,35.0,1,1.0,0.31920000000000015
2,2,0.5,1.0,35.0,1,1.0,0.33450000000000024
3,2,0.5,0.0625,35.0,1,1.0,0.8991999999999987
4,2,0.5,0.25,35.0,1,1.0,0.2928999999999995
5,2,0.5,0.25,-35.0,1,0.0,0.4038000000000004
6,2,0.5,0.25,35.0,1,1.0,2.509599999999999
7,2,0.5,0.0625,-35.0,-1,1.0,1.3552000000000035
8,2,0.5,0.25,-35.0,-1,1.0,0.7489999999999988
9,2,0.5,0.0,35.0,1,1.0,0.9345999999999997
10,2,0.5,0.0,35.0,-1,0.0,0.8001999999999967
11,2,0.5,0.125,35.0,1,1.0,0.3436000000000021
12,2,0.5,0.0,-35.0,-1,1.0,0.2665000000000006
13,2,0.5,0.0,-35.0,-1,1.0,0.09060000000000201
14,2,0.5,0.25,-35.0,-1,1.0,0.17559999999999576
15,2,0.5,0.0,-35.0,-1,1.0,0.19650000000000034
16,2,0.5,0.0,35.0,-1,0.0,0.2676000000000016
17,2,0.5,0.25,-35.0,-1,1.0,0.3158999999999992
18,2,0.5,0.125,-35.0,1,0.0,0.3894999999999982
19,2,0.5,0.0625,-35.0,1,0.0,0.5221000000000018
20,2,0.5,0.25,35.0,1,1.0,0.31640000000000157
21,2,0.5,0.25,35.0,-1,0.0,0.0426999999999822
22,2,0.5,0.125,35.0,1,1.0,0.4619999999999891
23,2,0.5,0.0625,35.0,-1,0.0,0.30700000000000216
24,2,0.5,0.125,-35.0,1,0.0,0.20130000000000337
25,2,0.5,0.25,-35.0,-1,1.0,0.2995999999999981
26,2,0.5,0.25,-35.0,-1,1.0,0.25
27,2,0.5,0.25,35.0,-1,0.0,0.3310999999999922
28,2,0.5,0.25,35.0,-1,0.0,2.1928000000000054
29,2,0.5,0.0,35.0,-1,0.0,0.25950000000000273
30,2,0.5,0.25,35.0,1,1.0,0.5300000000000011
31,2,0.5,1.0,-35.0,-1,1.0,0.3131000000000057
32,2,0.5,0.0625,-35.0,-1,1.0,0.19659999999998945
33,2,0.5,0.125,35.0,1,1.0,0.3135999999999939
34,2,0.5,0.0625,-35.0,-1,1.0,0.7009000000000043
35,2,0.5,1.0,35.0,1,1.0,0.2720999999999947
36,2,0.5,1.0,35.0,-1,0.0,0.18840000000000146
37,2,0.5,0.0625,35.0,1,1.0,0.3879000000000019
38,2,0.5,0.25,35.0,1,1.0,0.22970000000000823
39,2,0.5,0.25,-35.0,-1,1.0,0.18070000000000164
40,2,0.5,0.0625,35.0,1,1.0,0.4498999999999853
41,2,0.5,0.0625,35.0,1,1.0,0.18359999999998422
42,2,0.5,0.125,-35.0,1,0.0,0.22860000000000014
43,2,0.5,1.0,-35.0,1,0.0,0.6341000000000179
44,2,0.5,0.0625,35.0,1,1.0,0.26329999999998677
45,2,0.5,0.25,35.0,1,1.0,0.30740000000000123
46,2,0.5,0.25,-35.0,1,0.0,0.5098999999999876
47,2,0.5,1.0,35.0,1,1.0,0.2505999999999631
48,2,0.5,0.0625,35.0,1,1.0,0.6659999999999684
49,2,0.5,0.125,-35.0,1,0.0,0.41919999999998936
50,2,0.5,0.0625,-35.0,-1,1.0,0.30639999999999645
51,2,0.5,0.125,-35.0,-1,1.0,0.3486000000000047
52,2,0.5,0.0625,35.0,1,1.0,1.5364000000000146
53,2,0.5,1.0,-35.0,-1,1.0,0.28819999999998913
54,2,0.5,0.0625,35.0,1,1.0,0.24160000000000537
55,2,0.5,0.0625,35.0,-1,0.0,0.059900000000027376
56,2,0.5,0.125,35.0,1,1.0,0.6178999999999917
57,2,0.5,0.0,35.0,-1,0.0,0.2616000000000156
58,2,0.5,1.0,35.0,1,1.0,0.36580000000000723
59,2,0.5,0.25,35.0,1,1.0,0.30469999999999686
60,2,0.5,0.0625,-35.0,-1,1.0,0.33509999999998286
61,2,0.5,0.125,35.0,-1,0.0,0.801099999999991
62,2,0.5,0.25,35.0,1,1.0,0.34540000000001214
63,2,0.5,0.125,35.0,1,1.0,0.3143000000000029
64,2,0.5,0.0,35.0,-1,0.0,0.27379999999999427
65,2,0.5,0.125,35.0,-1,0.0,0.24080000000000723
66,2,0.5,0.0625,35.0,1,1.0,0.37640000000001805
67,2,0.5,0.0625,35.0,-1,0.0,0.2909999999999968
68,2,0.5,0.0625,-35.0,-1,1.0,0.2699000000000069
69,2,0.5,0.0625,35.0,1,1.0,0.3190999999999917
70,2,0.5,0.25,35.0,1,1.0,0.5490000000000066
71,2,0.5,1.0,-35.0,-1,1.0,0.6420999999999992
72,2,0.5,0.125,-35.0,-1,1.0,0.15059999999999718
73,2,0.5,0.0,-35.0,-1,1.0,0.37120000000001596
74,2,0.5,0.0625,-35.0,-1,1.0,0.015600000000006276
75,2,0.5,0.25,-35.0,-1,1.0,0.25569999999999027
76,2,0.5,0.0625,-35.0,-1,1.0,0.3468000000000302
77,2,0.5,0.0625,35.0,-1,0.0,0.8845000000000027
78,2,0.5,0.0625,-35.0,-1,1.0,0.31719999999995707
79,2,0.5,0.125,35.0,-1,0.0,0.2728999999999928
80,2,0.5,0.0625,-35.0,-1,1.0,0.3967999999999279
81,2,0.5,1.0,35.0,1,1.0,0.15020000000004075
82,2,0.5,0.125,35.0,1,1.0,0.37649999999996453
83,2,0.5,1.0,-35.0,-1,1.0,0.2697000000000003
84,2,0.5,1.0,-35.0,-1,1.0,0.31510000000002947
85,2,0.5,1.0,-35.0,-1,1.0,0.2674000000000092
86,2,0.5,1.0,-35.0,-1,1.0,0.12160000000000082
87,2,0.5,1.0,35.0,1,1.0,0.2460999999999558
88,2,0.5,0.0625,-35.0,-1,1.0,0.2744999999999891
89,2,0.5,0.125,35.0,1,1.0,0.32330000000001746
90,2,0.5,0.125,35.0,-1,0.0,0.03719999999998436
91,2,0.8,1.0,-35.0,1,0.0,0.31639999999998736
92,2,0.8,1.0,-35.0,-1,1.0,0.20319999999998117
93,2,0.8,0.25,-35.0,1,0.0,0.28340000000002874
94,2,0.8,0.0625,35.0,1,1.0,0.3353000000000179
95,2,0.8,0.0,-35.0,1,0.0,0.6585000000000036
96,2,0.8,0.25,-35.0,-1,1.0,0.22419999999999618
97,2,0.8,0.25,35.0,1,1.0,0.26539999999999964
98,2,0.8,0.25,-35.0,-1,1.0,0.23520000000002028
99,2,0.8,0.0625,-35.0,-1,1.0,0.09229999999996608
100,2,0.8,0.0,-35.0,1,0.0,0.9784000000000219
101,2,0.8,0.0625,-35.0,-1,1.0,0.37889999999998736
102,2,0.8,1.0,-35.0,-1,1.0,0.20530000000002246
103,2,0.8,0.25,-35.0,-1,1.0,0.283299999999997
104,2,0.8,0.25,-35.0,-1,1.0,0.25790000000000646
105,2,0.8,0.25,-35.0,-1,1.0,0.26679999999998927
106,2,0.8,0.25,-35.0,-1,1.0,0.14369999999996708
107,2,0.8,0.0,-35.0,-1,1.0,0.1705000000000041
108,2,0.8,1.0,-35.0,1,0.0,0.275100000000009
109,2,0.8,0.125,-35.0,-1,1.0,0.10379999999997835
110,2,0.8,0.25,35.0,1,1.0,0.38749999999998863
111,2,0.8,1.0,-35.0,-1,1.0,0.07839999999998781
112,2,0.8,1.0,-35.0,-1,1.0,0.19610000000000127
113,2,0.8,0.0,-35.0,-1,1.0,0.19499999999999318
114,2,0.8,0.25,35.0,-1,0.0,0.20769999999998845
115,2,0.8,0.25,-35.0,-1,1.0,1.6902000000000044
116,2,0.8,0.25,35.0,1,1.0,0.4289999999999736
117,2,0.8,0.25,-35.0,-1,1.0,1.2033999999999878
118,2,0.8,0.125,-35.0,-1,1.0,0.237199999999973
119,2,0.8,0.25,-35.0,-1,1.0,0.09329999999999927
120,2,0.8,0.25,-35.0,-1,1.0,0.6865000000000236
121,2,0.8,1.0,-35.0,-1,1.0,0.2256999999999607
122,2,0.8,0.0625,35.0,-1,0.0,0.30299999999999727
123,2,0.8,0.25,-35.0,1,0.0,0.6118999999999915
124,2,0.8,0.25,-35.0,-1,1.0,0.3328999999999951
125,2,0.8,0.0625,-35.0,-1,1.0,3.9698000000000206
126,2,0.8,0.0,-35.0,-1,1.0,1.8251999999999953
127,2,0.8,0.0625,-35.0,-1,1.0,0.24049999999999727
128,2,0.8,0.0625,-35.0,-1,1.0,0.5218000000000416
129,2,0.8,0.0,-35.0,1,0.0,0.5089999999999577
130,2,0.8,0.125,-35.0,1,0.0,0.47100000000000364
131,2,0.8,0.0625,-35.0,-1,1.0,0.35530000000005657
132,2,0.8,0.125,-35.0,-1,1.0,0.523900000000026
133,2,0.8,0.25,-35.0,-1,1.0,0.272700000000043
134,2,0.2,0.25,35.0,1,1.0,1.694500000000005
135,2,0.2,0.25,35.0,1,1.0,0.447400000000016
136,2,0.2,0.25,35.0,1,1.0,0.4327000000000112
137,2,0.2,0.25,35.0,1,1.0,0.2436999999999898
138,2,0.2,0.25,35.0,1,1.0,0.6739000000000033
139,2,0.2,1.0,35.0,1,1.0,0.3801000000000272
140,2,0.2,0.0625,35.0,-1,0.0,0.3043999999999869
141,2,0.2,0.0625,35.0,1,1.0,0.33939999999995507
142,2,0.2,0.0625,35.0,1,1.0,0.44429999999999836
143,2,0.2,0.25,-35.0,-1,1.0,0.19120000000003756
144,2,0.2,0.0,35.0,-1,0.0,0.24629999999996244
145,2,0.2,0.125,35.0,1,1.0,0.35360000000002856
146,2,0.2,1.0,35.0,1,1.0,0.265700000000038
147,2,0.2,0.125,35.0,-1,0.0,2.1110000000001037
148,2,0.2,0.0625,-35.0,-1,1.0,3.2912000000000035
149,2,0.2,0.125,35.0,1,1.0,0.3648000000000593
150,2,0.2,0.0625,35.0,1,1.0,0.2544000000000324
151,2,0.2,0.0625,35.0,-1,0.0,0.3849999999999909
152,2,0.2,0.0625,35.0,-1,0.0,0.306699999999978
153,2,0.2,0.25,35.0,1,1.0,0.3370000000001028
154,2,0.2,0.125,-35.0,-1,1.0,0.34790000000009513
155,2,0.2,1.0,35.0,1,1.0,0.3363000000000511
156,2,0.2,0.125,-35.0,-1,1.0,0.32130000000006476
157,2,0.2,0.0625,35.0,1,1.0,3.9370999999999867
158,2,0.2,0.0,35.0,-1,0.0,0.6833000000000311
159,2,0.2,1.0,35.0,1,1.0,0.2921000000000049
160,2,0.2,0.125,35.0,1,1.0,0.3085000000002083
161,2,0.2,0.0625,-35.0,-1,1.0,0.608600000000024
162,2,0.8,0.25,-35.0,-1,1.0,0.2358000000000402
163,2,0.8,0.25,-35.0,-1,1.0,0.2401999999999589
164,2,0.8,0.0,-35.0,-1,1.0,0.1249000000000251
165,2,0.8,0.125,-35.0,-1,1.0,1.7508000000000266
166,2,0.8,0.25,-35.0,1,0.0,0.17349999999999
167,2,0.8,0.25,-35.0,1,0.0,2.903500000000122
168,2,0.8,0.25,-35.0,-1,1.0,0.2601000000000795
169,2,0.8,1.0,-35.0,-1,1.0,0.16200000000003456
170,2,0.8,0.125,-35.0,-1,1.0,0.23000000000013188
171,2,0.8,0.125,-35.0,-1,1.0,0.3768000000000029
172,2,0.8,0.25,-35.0,-1,1.0,0.30080000000009477
173,2,0.8,0.0,-35.0,-1,1.0,3.2285000000001673
174,2,0.8,0.0625,-35.0,-1,1.0,0.19820000000004256
175,2,0.8,1.0,35.0,1,1.0,0.23550000000000182
176,2,0.8,0.25,-35.0,-1,1.0,0.2522999999999911
177,2,0.8,0.25,-35.0,-1,1.0,0.21450000000004366
178,2,0.8,0.125,-35.0,-1,1.0,0.1613000000000966
179,2,0.8,0.0625,-35.0,1,0.0,0.3444999999999254
180,2,0.8,1.0,35.0,1,1.0,0.26490000000001146
181,2,0.8,1.0,35.0,-1,0.0,0.22500000000002274
182,2,0.8,0.25,-35.0,1,0.0,0.24509999999997945
183,2,0.8,0.0625,-35.0,-1,1.0,0.20119999999997162
184,2,0.8,0.25,-35.0,-1,1.0,0.020000000000095497
185,2,0.8,0.0625,-35.0,-1,1.0,0.20890000000008513
186,2,0.2,1.0,35.0,1,1.0,0.2785999999999831
187,2,0.2,0.25,-35.0,-1,1.0,1.4805999999999813
188,2,0.2,0.125,35.0,1,1.0,0.30720000000007985
189,2,0.2,0.25,35.0,1,1.0,0.29750000000012733
190,2,0.2,1.0,35.0,1,1.0,0.23140000000000782
191,2,0.2,0.25,-35.0,-1,1.0,0.5049000000000206
192,2,0.2,1.0,-35.0,-1,1.0,0.271900000000187
193,2,0.2,0.0625,35.0,1,1.0,0.2824000000001661
194,2,0.2,1.0,35.0,1,1.0,0.22410000000002128
195,2,0.2,0.125,-35.0,1,0.0,0.22210000000018226
196,2,0.2,0.25,-35.0,-1,1.0,0.248299999999972
197,2,0.2,1.0,35.0,-1,0.0,0.21660000000019863
198,2,0.2,1.0,35.0,1,1.0,0.28310000000010405
199,2,0.2,0.0,35.0,-1,0.0,0.27729999999996835
200,2,0.2,1.0,35.0,1,1.0,0.2215999999999667
201,2,0.2,0.0625,35.0,1,1.0,0.4188000000001466
202,2,0.2,0.0,35.0,-1,0.0,0.29110000000014224
203,2,0.2,0.25,-35.0,1,0.0,0.27090000000009695
204,2,0.2,1.0,35.0,1,1.0,0.2538000000000693
205,2,0.2,0.125,35.0,-1,0.0,0.06690000000014606
206,2,0.2,0.25,35.0,1,1.0,0.30960000000004584
207,2,0.2,1.0,-35.0,-1,1.0,0.3044000000001006
208,2,0.2,0.25,35.0,1,1.0,0.5069999999999482
209,2,0.2,0.25,-35.0,-1,1.0,0.6989000000000942
210,2,0.2,0.125,-35.0,-1,1.0,0.23720000000002983
211,2,0.2,0.0,35.0,-1,0.0,0.2522000000000162
212,2,0.2,0.125,35.0,1,1.0,0.36630000000002383
213,2,0.2,0.25,35.0,1,1.0,0.25950000000000273
214,2,0.2,0.0,35.0,1,1.0,0.7282999999999902
215,2,0.2,0.0625,35.0,1,1.0,0.7961000000001377
216,2,0.2,1.0,35.0,1,1.0,0.2440000000000282
217,2,0.8,0.25,-35.0,1,0.0,0.26509999999996126
218,2,0.8,0.25,-35.0,1,0.0,0.14120000000013988
219,2,0.8,0.125,-35.0,1,0.0,0.17409999999995307
220,2,0.8,1.0,-35.0,-1,1.0,0.2535000000001446
221,2,0.8,1.0,-35.0,-1,1.0,0.26880000000005566
222,2,0.8,0.0625,-35.0,-1,1.0,0.009999999999990905
223,2,0.8,0.0,-35.0,1,0.0,0.09100000000012187
224,2,0.8,0.125,35.0,-1,0.0,0.2602000000001681
225,2,0.8,0.25,-35.0,-1,1.0,0.2675000000000409
226,2,0.8,0.125,35.0,1,1.0,0.3306000000001177
227,2,0.8,0.0625,-35.0,-1,1.0,0.3080000000001064
228,2,0.8,0.25,-35.0,-1,1.0,0.6094000000000506
229,2,0.8,0.0625,-35.0,-1,1.0,3.4026999999999816
230,2,0.8,1.0,-35.0,-1,1.0,0.12410000000011223
231,2,0.8,0.0625,35.0,1,1.0,1.4026000000000067
232,2,0.8,1.0,-35.0,-1,1.0,0.21820000000002437
233,2,0.8,1.0,-35.0,-1,1.0,0.5240000000000009
234,2,0.8,0.25,-35.0,-1,1.0,0.2716000000001486
235,2,0.8,0.125,-35.0,-1,1.0,0.18190000000004147
236,2,0.8,1.0,-35.0,-1,1.0,0.1917999999999438
237,2,0.8,0.0625,35.0,-1,0.0,1.4997000000000753
238,2,0.8,0.0625,35.0,1,1.0,0.3298000000002048
239,2,0.8,0.0625,-35.0,1,0.0,3.5393000000000256
240,2,0.8,1.0,35.0,1,1.0,0.3692999999999529
241,2,0.8,0.125,-35.0,-1,1.0,0.4499000000000706
242,2,0.8,0.25,-35.0,-1,1.0,0.39970000000005257
243,2,0.8,0.25,-35.0,-1,1.0,1.708300000000122
244,2,0.8,0.0,35.0,1,1.0,1.281500000000051
245,2,0.8,0.125,-35.0,-1,1.0,0.2822000000001026
246,2,0.8,0.25,-35.0,-1,1.0,0.21640000000013515
247,2,0.8,0.125,35.0,1,1.0,0.04860000000007858
248,2,0.8,1.0,-35.0,-1,1.0,0.2662000000000262
249,2,0.8,0.25,-35.0,-1,1.0,0.27740000000005693
250,2,0.8,0.0,35.0,-1,0.0,0.28100000000006276
251,2,0.8,1.0,-35.0,1,0.0,0.5411000000000286
252,2,0.8,0.0,-35.0,1,0.0,0.3300000000001546
253,2,0.8,1.0,-35.0,-1,1.0,0.2563000000001239
254,2,0.8,0.0,-35.0,-1,1.0,0.24310000000002674
255,2,0.8,0.25,-35.0,-1,1.0,0.2718000000000984
256,2,0.8,0.0625,-35.0,-1,1.0,0.2695000000001073
257,2,0.8,0.0625,-35.0,-1,1.0,0.21260000000006585
258,2,0.8,0.125,-35.0,-1,1.0,0.27540000000010423
259,2,0.8,0.125,-35.0,-1,1.0,0.15250000000003183
260,2,0.8,0.0625,-35.0,-1,1.0,0.46079999999994925
261,2,0.8,0.0,35.0,-1,0.0,0.24730000000010932
262,2,0.8,0.125,-35.0,1,0.0,3.941500000000019
263,2,0.8,0.25,35.0,1,1.0,0.44390000000009877
264,2,0.8,1.0,-35.0,-1,1.0,0.35300000000017917
265,2,0.8,0.125,35.0,-1,0.0,0.24110000000018772
266,2,0.8,0.25,-35.0,-1,1.0,0.29560000000003583
267,2,0.8,1.0,-35.0,-1,1.0,0.34120000000007167
268,2,0.8,0.25,-35.0,-1,1.0,0.2927000000000817
269,2,0.8,0.25,-35.0,-1,1.0,0.28740000000004784
270,2,0.8,1.0,-35.0,-1,1.0,0.26520000000004984
271,2,0.8,1.0,35.0,1,1.0,0.475400000000036
272,2,0.8,0.25,-35.0,-1,1.0,2.604000000000042
273,2,0.8,0.0,-35.0,1,0.0,0.3872000000000071
274,2,0.2,0.25,-35.0,1,0.0,6.991900000000101
275,2,0.2,0.125,-35.0,-1,1.0,0.28890000000001237
276,2,0.2,1.0,35.0,-1,0.0,0.21220000000005257
277,2,0.2,0.125,-35.0,-1,1.0,0.31900000000007367
278,2,0.2,0.0625,35.0,-1,0.0,0.24240000000008877
279,2,0.2,0.0625,35.0,1,1.0,0.582700000000159
280,2,0.2,0.0625,35.0,-1,0.0,0.23260000000004766
281,2,0.2,0.25,35.0,-1,0.0,0.20269999999982247
282,2,0.2,1.0,35.0,1,1.0,0.21280000000001564
283,2,0.2,0.125,35.0,1,1.0,0.2862999999999829
284,2,0.2,0.0625,-35.0,1,0.0,0.5963999999999032
285,2,0.2,0.0625,-35.0,1,0.0,0.5663999999999305
286,2,0.2,0.0625,-35.0,1,0.0,0.5733000000000175
287,2,0.2,1.0,-35.0,-1,1.0,0.3732999999997446
288,2,0.2,0.0625,35.0,-1,0.0,0.12340000000017426
289,2,0.2,0.25,-35.0,-1,1.0,0.3203000000000884
290,2,0.2,0.25,35.0,1,1.0,0.3635999999999058
291,2,0.2,1.0,-35.0,-1,1.0,0.2536000000000058
292,2,0.2,0.125,35.0,-1,0.0,0.19700000000011642
293,2,0.2,0.125,35.0,-1,0.0,0.3571999999996933
294,2,0.2,0.25,35.0,1,1.0,0.3839999999997872
295,2,0.2,0.125,35.0,1,1.0,0.29389999999989413
296,2,0.2,0.0625,35.0,1,1.0,0.26739999999995234
297,2,0.2,0.25,-35.0,-1,1.0,0.30749999999989086
298,2,0.2,0.0,35.0,-1,0.0,0.8442000000000007
299,2,0.2,0.25,-35.0,-1,1.0,0.5910999999998694
300,2,0.8,0.125,-35.0,-1,1.0,0.19439999999985957
301,2,0.8,1.0,35.0,1,1.0,0.19119899999986956
302,2,0.8,0.125,-35.0,-1,1.0,0.2279999999998381
303,2,0.8,0.0625,35.0,1,1.0,0.24129999999991014
304,2,0.8,0.25,-35.0,-1,1.0,0.3714999999997417
305,2,0.8,0.0625,-35.0,-1,1.0,0.28150000000005093
306,2,0.8,0.125,-35.0,-1,1.0,0.20830000000000837
307,2,0.8,0.0625,-35.0,-1,1.0,0.26499999999987267
308,2,0.8,0.0625,-35.0,-1,1.0,0.2184999999997217
309,2,0.8,1.0,-35.0,-1,1.0,0.4053000000001248
310,2,0.8,0.125,-35.0,-1,1.0,0.30539999999996326
311,2,0.8,0.0625,-35.0,-1,1.0,0.3453999999999269
312,2,0.8,0.0625,-35.0,-1,1.0,0.2853999999997541
313,2,0.8,1.0,-35.0,-1,1.0,0.3522000000000389
314,2,0.8,0.0625,-35.0,-1,1.0,0.2823000000000775
315,2,0.8,0.125,-35.0,-1,1.0,0.41239999999993415
316,2,0.8,0.0625,-35.0,1,0.0,2.0026000000000295
317,2,0.8,0.0625,-35.0,-1,1.0,0.20270000000004984
318,2,0.8,0.25,-35.0,-1,1.0,0.23600000000010368
319,2,0.8,0.125,-35.0,-1,1.0,0.3727999999998701
320,2,0.8,0.25,-35.0,-1,1.0,0.2595000000001164
321,2,0.8,0.125,-35.0,-1,1.0,0.5928999999998723
322,2,0.8,0.125,-35.0,-1,1.0,0.2597000000000662
323,2,0.8,0.0625,-35.0,-1,1.0,0.30310000000008586
324,2,0.8,0.25,-35.0,-1,1.0,0.5130999999998949
325,2,0.8,0.25,-35.0,-1,1.0,0.23989999999980682
326,2,0.8,0.125,-35.0,-1,1.0,0.38009999999985666
327,2,0.8,0.125,-35.0,-1,1.0,0.23679999999990287
328,2,0.8,1.0,35.0,1,1.0,0.34019999999986794
329,2,0.8,0.0625,-35.0,-1,1.0,0.03699999999980719
330,2,0.8,0.125,-35.0,-1,1.0,0.3170999999999822
331,2,0.2,0.25,35.0,1,1.0,0.41049999999995634
332,2,0.2,0.125,35.0,1,1.0,0.6337999999998374
333,2,0.2,1.0,-35.0,-1,1.0,0.3208999999999378
334,2,0.2,0.125,-35.0,1,0.0,2.44419999999991
335,2,0.2,0.0625,35.0,1,1.0,0.45430000000010295
336,2,0.2,0.25,35.0,-1,0.0,0.24769999999989523
337,2,0.2,0.125,35.0,1,1.0,0.32110000000011496
338,2,0.2,0.125,35.0,1,1.0,0.2845999999999549
339,2,0.2,0.125,-35.0,-1,1.0,0.28139999999984866
340,2,0.2,1.0,35.0,1,1.0,0.2880999999999858
341,2,0.2,1.0,35.0,1,1.0,0.28150000000005093
342,2,0.2,0.125,35.0,-1,0.0,2.4383000000000266
343,2,0.2,1.0,-35.0,-1,1.0,0.5117000000000189
344,2,0.2,0.125,35.0,1,1.0,0.2617999999999938
345,2,0.2,0.125,35.0,1,1.0,0.3752999999999247
346,2,0.2,0.125,35.0,1,1.0,0.31219999999984793
347,2,0.2,0.0625,35.0,1,1.0,0.3322000000000571
348,2,0.2,0.125,35.0,1,1.0,1.1621999999999844
349,2,0.2,1.0,35.0,1,1.0,0.25900000000001455
350,2,0.2,0.0,35.0,1,1.0,0.32910000000015316
351,2,0.8,0.0,-35.0,-1,1.0,0.3125
352,2,0.8,0.0625,-35.0,1,0.0,4.2159999999998945
353,2,0.8,0.0625,-35.0,-1,1.0,0.24289999999996326
354,2,0.8,0.25,-35.0,-1,1.0,0.5295999999998457
355,2,0.8,1.0,-35.0,-1,1.0,0.40299999999979264
356,2,0.8,0.25,35.0,1,1.0,0.26309999999989486
357,2,0.8,0.25,-35.0,1,0.0,0.05989999999974316
358,2,0.8,0.125,-35.0,-1,1.0,4.519900000000007
359,2,0.8,0.0625,35.0,1,1.0,0.4134999999998854
360,2,0.8,0.0,-35.0,1,0.0,1.2368999999998778
361,2,0.8,0.0625,-35.0,-1,1.0,0.43050000000016553
362,2,0.8,0.25,35.0,1,1.0,0.3773000000001048
363,2,0.8,0.25,35.0,-1,0.0,0.5005999999998494
364,2,0.8,1.0,-35.0,-1,1.0,0.46080000000006294
365,2,0.8,1.0,-35.0,-1,1.0,0.3407999999999447
366,2,0.8,1.0,35.0,1,1.0,0.2642000000000735
367,2,0.8,0.0625,-35.0,-1,1.0,0.5842999999997573
368,2,0.8,1.0,-35.0,-1,1.0,0.3243999999999687
369,2,0.8,0.25,-35.0,-1,1.0,0.31779999999980646
370,2,0.8,0.125,-35.0,-1,1.0,0.40459999999984575
371,2,0.8,0.0625,-35.0,-1,1.0,4.531199999999899
372,2,0.8,0.0625,-35.0,-1,1.0,2.684899999999743
373,2,0.8,0.125,-35.0,-1,1.0,0.4716000000000804
374,2,0.8,0.0625,-35.0,-1,1.0,0.5183999999999287
375,2,0.8,0.0625,-35.0,-1,1.0,0.4151999999999134
376,2,0.8,0.25,-35.0,-1,1.0,0.49530000000004293
377,2,0.8,0.0625,35.0,1,1.0,0.34199999999987085
378,2,0.8,0.125,35.0,1,1.0,0.23869999999988067
379,2,0.8,0.125,-35.0,-1,1.0,0.45880000000011023
380,2,0.8,0.125,-35.0,-1,1.0,0.3888999999999214
381,2,0.8,0.0625,-35.0,-1,1.0,0.3389999999999418
382,2,0.8,0.0625,-35.0,1,0.0,0.26909999999998035
383,2,0.8,0.125,-35.0,-1,1.0,0.44239999999990687
384,2,0.8,0.0625,35.0,1,1.0,0.39599999999995816
385,2,0.8,0.125,-35.0,-1,1.0,0.47939999999994143
386,2,0.8,1.0,35.0,1,1.0,0.29959999999982756
387,2,0.8,1.0,35.0,1,1.0,0.8529000000000906
388,2,0.8,0.0625,-35.0,1,0.0,0.3030999999998585
389,2,0.8,1.0,-35.0,-1,1.0,0.7797999999997955
390,2,0.8,0.0,-35.0,-1,1.0,0.32310000000006767
391,2,0.8,1.0,-35.0,-1,1.0,0.4232999999999265
392,2,0.8,0.125,-35.0,-1,1.0,0.4534000000001015
393,2,0.8,1.0,-35.0,-1,1.0,0.29349999999999454
394,2,0.8,0.25,-35.0,-1,1.0,0.2801999999999225
395,2,0.8,0.125,-35.0,-1,1.0,0.39039999999977226
396,2,0.8,0.0625,-35.0,-1,1.0,0.2737999999999374
397,2,0.8,0.25,-35.0,-1,1.0,0.35720000000014807
398,2,0.2,0.0,35.0,1,1.0,0.5106000000000677
399,2,0.2,0.125,35.0,1,1.0,3.5340000000001055
400,2,0.2,1.0,35.0,1,1.0,0.5842999999999847
401,2,0.2,1.0,-35.0,-1,1.0,0.35770000000002256
402,2,0.2,1.0,35.0,1,1.0,0.35770000000002256
403,2,0.2,0.0,35.0,1,1.0,0.3577999999997701
404,2,0.2,0.25,35.0,1,1.0,0.4312999999999647
405,2,0.2,0.125,35.0,1,1.0,1.9881000000000313
406,2,0.2,1.0,35.0,1,1.0,0.1549000000002252
407,2,0.2,0.125,35.0,1,1.0,0.4381999999998243
408,2,0.2,1.0,35.0,1,1.0,0.21849999999994907
409,2,0.2,1.0,-35.0,-1,1.0,0.3182999999999083
410,2,0.2,0.0,35.0,-1,0.0,0.38499999999976353
411,2,0.2,0.125,-35.0,1,0.0,1.501800000000003
412,2,0.2,1.0,-35.0,-1,1.0,0.3419000000001233
413,2,0.2,0.125,35.0,1,1.0,3.0421000000001186
414,2,0.2,0.0625,35.0,1,1.0,0.2929999999998927
415,2,0.2,0.125,35.0,1,1.0,0.3189999999997326
416,2,0.2,0.25,35.0,1,1.0,0.27299999999991087
417,2,0.2,0.25,35.0,1,1.0,0.2426999999997861
418,2,0.2,0.0625,35.0,1,1.0,0.33960000000001855
419,2,0.2,0.0,35.0,1,1.0,0.31989999999973406
420,2,0.2,0.0,35.0,1,1.0,0.3260999999999967
421,2,0.2,0.25,-35.0,1,0.0,0.19270000000005894
422,2,0.2,0.0625,35.0,1,1.0,0.8532999999999902
423,2,0.2,1.0,35.0,1,1.0,0.38980000000015025
424,2,0.2,0.0,-35.0,1,0.0,0.3032999999998083
425,2,0.2,0.0,35.0,1,1.0,2.4202999999999975
426,2,0.2,0.0625,35.0,1,1.0,0.9406999999998789
427,2,0.2,0.0625,35.0,1,1.0,0.39020000000004984
428,2,0.2,0.0625,35.0,1,1.0,0.5135999999999967
429,2,0.2,0.125,35.0,1,1.0,0.310399999999845
430,2,0.2,0.125,-35.0,-1,1.0,0.23369999999977153
431,2,0.2,0.125,35.0,1,1.0,0.28389999999967586
432,2,0.2,0.25,35.0,1,1.0,0.3212999999998374
433,2,0.2,0.25,35.0,-1,0.0,0.17069999999989705
434,2,0.2,0.25,35.0,1,1.0,0.4744999999998072
435,2,0.2,0.25,35.0,1,1.0,0.3511000000000877
436,2,0.2,1.0,35.0,1,1.0,0.22769999999991342
437,2,0.2,0.0625,35.0,1,1.0,0.47109999999997854
438,2,0.2,0.25,35.0,1,1.0,0.30799999999976535
439,2,0.2,0.0625,-35.0,1,0.0,0.441899999999805
440,2,0.2,1.0,-35.0,-1,1.0,0.4112999999999829
441,2,0.2,0.0625,35.0,1,1.0,0.7717999999997573
442,2,0.2,1.0,35.0,1,1.0,0.2314000000001215
443,2,0.2,0.125,35.0,1,1.0,0.6782999999998083
444,2,0.2,0.25,35.0,1,1.0,0.47859999999991487
445,2,0.2,0.0625,35.0,1,1.0,4.508799999999837
446,2,0.2,0.25,35.0,1,1.0,0.37259999999992033
447,2,0.2,0.125,35.0,1,1.0,0.3328000000001339
448,2,0.2,0.25,35.0,1,1.0,0.2986999999998261
449,2,0.2,0.0625,35.0,1,1.0,0.39229999999975007
450,2,0.2,0.0625,35.0,-1,0.0,0.7629000000001724
451,2,0.2,0.0,35.0,1,1.0,0.3329999999998563
452,2,0.2,0.25,35.0,1,1.0,3.2560000000000855
453,2,0.2,1.0,35.0,1,1.0,0.5529999999998836
454,2,0.2,0.125,35.0,1,1.0,0.3363000000001648
455,2,0.2,0.0625,35.0,1,1.0,0.6097999999999502
456,2,0.2,0.0625,35.0,1,1.0,4.102900000000091
457,2,0.2,1.0,35.0,1,1.0,0.6701000000000477
458,2,0.2,0.0625,35.0,-1,0.0,1.7304999999998927
459,2,0.8,0.125,35.0,1,1.0,0.5834999999999582
460,2,0.8,0.0625,-35.0,-1,1.0,2.3670999999999367
461,2,0.8,0.0625,-35.0,-1,1.0,0.05029999999987922
462,2,0.8,0.0625,-35.0,-1,1.0,1.7771000000000186
463,2,0.8,1.0,-35.0,-1,1.0,0.3203999999998359
464,2,0.8,0.0,35.0,1,1.0,0.654399999999896
465,2,0.8,1.0,-35.0,-1,1.0,0.3007000000000062
466,2,0.8,0.25,-35.0,-1,1.0,0.36410000000000764
467,2,0.8,0.25,-35.0,-1,1.0,0.7241999999996551
468,2,0.8,1.0,-35.0,-1,1.0,0.6442999999999302
469,2,0.8,1.0,-35.0,-1,1.0,0.2945999999999458
470,2,0.8,0.0625,-35.0,1,0.0,1.6812999999997373
471,2,0.8,0.0,-35.0,-1,1.0,0.36199999999985266
472,2,0.8,0.25,35.0,1,1.0,0.29119999999988977
473,2,0.8,0.125,35.0,-1,0.0,0.2782999999999447
474,2,0.8,0.25,-35.0,-1,1.0,4.881599999999935
475,2,0.8,0.0625,-35.0,-1,1.0,0.3654999999998836
476,2,0.8,1.0,-35.0,-1,1.0,0.3585000000000491
477,2,0.8,0.125,-35.0,-1,1.0,0.2684999999999036
478,2,0.8,0.0625,-35.0,-1,1.0,0.5319999999999254
479,2,0.8,0.25,-35.0,-1,1.0,0.3889000000001488
480,2,0.8,0.0625,-35.0,-1,1.0,0.23550000000000182
481,2,0.8,0.25,-35.0,-1,1.0,0.41600000000016735
482,2,0.8,0.25,35.0,1,1.0,0.2923999999998159
483,2,0.8,0.0625,-35.0,1,0.0,0.5298000000000229
484,2,0.8,0.0625,-35.0,-1,1.0,2.1225999999999203
485,2,0.8,0.25,35.0,1,1.0,0.24299999999993815
486,2,0.8,1.0,-35.0,-1,1.0,0.3567000000000462
487,2,0.8,1.0,35.0,-1,0.0,0.6730000000000018
488,2,0.8,0.25,-35.0,-1,1.0,0.9533999999998741
489,2,0.8,0.0625,-35.0,-1,1.0,0.5702000000001135
490,2,0.8,0.125,-35.0,-1,1.0,2.7300999999997657
491,2,0.8,0.25,-35.0,-1,1.0,0.9966999999999189
492,2,0.2,0.25,35.0,1,1.0,0.3236999999996897
493,2,0.2,0.0,-35.0,1,0.0,2.0039010000000417
494,2,0.2,0.0,35.0,1,1.0,1.0773009999998067
495,2,0.2,0.25,35.0,1,1.0,0.3505010000001221
496,2,0.2,1.0,-35.0,-1,1.0,-0.035998999999947046
497,2,0.2,1.0,35.0,1,1.0,0.8480010000000675
498,2,0.2,0.125,35.0,1,1.0,0.574301000000105
499,2,0.2,1.0,35.0,1,1.0,0.14100099999996019
500,2,0.2,0.25,-35.0,-1,1.0,0.42470099999968625
501,2,0.2,0.0625,35.0,1,1.0,0.31110100000000784
502,2,0.2,0.25,35.0,1,1.0,0.30460100000004786
503,2,0.2,0.0,35.0,1,1.0,1.70150099999978
504,2,0.2,1.0,35.0,1,1.0,0.3184009999999944
505,2,0.2,0.0,35.0,-1,0.0,0.3082010000000537
506,2,0.2,0.125,-35.0,-1,1.0,1.228300999999874
507,2,0.2,0.0,35.0,1,1.0,0.631601000000046
508,2,0.2,0.125,35.0,1,1.0,0.051901000000043496
509,2,0.2,0.125,-35.0,-1,1.0,1.4487009999998008
510,2,0.2,0.0625,35.0,-1,0.0,1.8520009999997455
511,2,0.2,0.25,35.0,1,1.0,0.26930099999981394
512,2,0.2,1.0,-35.0,-1,1.0,0.3689009999998234
513,2,0.2,1.0,35.0,1,1.0,0.3324009999998907
514,2,0.2,1.0,35.0,1,1.0,0.27280099999984486
515,2,0.2,0.125,35.0,1,1.0,0.6191010000000006
516,2,0.2,0.0,-35.0,-1,1.0,0.30940099999997983
517,2,0.2,0.25,35.0,1,1.0,0.396300999999994
518,2,0.2,0.25,35.0,-1,0.0,0.20930100000009588
519,2,0.2,0.0625,-35.0,-1,1.0,0.5099010000001272
520,2,0.8,0.125,-35.0,-1,1.0,0.36330099999986487
521,2,0.8,0.25,-35.0,-1,1.0,0.0663009999998394
522,2,0.8,0.0625,-35.0,-1,1.0,0.33970099999987724
523,2,0.8,0.25,35.0,1,1.0,0.2699010000001181
524,2,0.8,0.125,-35.0,-1,1.0,0.5000009999998838
525,2,0.8,0.0,-35.0,1,0.0,1.6966010000001006
526,2,0.8,0.0,-35.0,-1,1.0,10.603601000000026
527,2,0.8,1.0,-35.0,-1,1.0,2.540600999999924
528,2,0.8,0.25,-35.0,-1,1.0,0.8709010000000035
529,2,0.8,0.25,-35.0,-1,1.0,0.31750099999999293
530,2,0.8,1.0,-35.0,-1,1.0,0.2642009999999573
531,2,0.8,0.125,-35.0,-1,1.0,0.05080099999986487
532,2,0.8,0.0,-35.0,-1,1.0,0.29100100000005114
533,2,0.8,0.0625,-35.0,-1,1.0,0.3949009999998907
534,2,0.8,0.125,-35.0,-1,1.0,0.5383010000000468
535,2,0.8,0.0,35.0,-1,0.0,1.1418009999997594
536,2,0.8,0.0625,-35.0,-1,1.0,8.11470099999974
537,2,0.8,0.0625,-35.0,-1,1.0,1.4721009999998387
538,2,0.8,1.0,-35.0,-1,1.0,0.25860099999999875
539,2,0.8,0.0625,35.0,1,1.0,0.3018010000000686
540,2,0.8,1.0,-35.0,-1,1.0,0.2824009999999362
541,2,0.8,0.125,-35.0,-1,1.0,0.2720010000000457
542,2,0.8,0.0625,-35.0,-1,1.0,0.4753010000001723
543,2,0.8,0.0625,35.0,1,1.0,0.342000999999982
544,2,0.8,1.0,-35.0,-1,1.0,0.49620099999992817
545,2,0.8,0.125,35.0,1,1.0,0.3989010000000235
546,2,0.8,0.0625,-35.0,1,0.0,0.5596009999999296
547,2,0.8,0.0625,-35.0,-1,1.0,0.299701000000141
548,2,0.8,1.0,-35.0,-1,1.0,0.8560010000001057
549,2,0.8,0.125,-35.0,-1,1.0,0.6828009999999267
550,2,0.8,1.0,-35.0,-1,1.0,0.4426009999999678
551,2,0.8,0.0625,35.0,-1,0.0,0.5727010000000519
552,2,0.8,1.0,-35.0,-1,1.0,1.269600999999966
553,2,0.8,0.125,35.0,-1,0.0,2.4270010000000184
554,2,0.8,0.0625,-35.0,-1,1.0,3.8598010000002887
555,2,0.8,0.125,-35.0,-1,1.0,1.513401000000158
556,2,0.8,1.0,-35.0,-1,1.0,0.41010099999994054
557,2,0.8,0.125,-35.0,-1,1.0,0.39410099999986414
558,2,0.8,0.0625,-35.0,-1,1.0,3.2705009999999675
559,2,0.8,0.125,-35.0,-1,1.0,0.38790100000005623
560,2,0.8,0.125,35.0,1,1.0,0.31050100000038583
561,2,0.8,0.125,-35.0,-1,1.0,0.5507010000001173
562,2,0.8,1.0,-35.0,-1,1.0,0.2907010000003538
563,2,0.8,0.0625,-35.0,-1,1.0,1.7547010000002956
564,2,0.8,0.125,-35.0,-1,1.0,0.35800100000051316
565,2,0.8,1.0,-35.0,-1,1.0,0.474601000000348
566,2,0.8,1.0,-35.0,-1,1.0,0.46110100000032617
567,2,0.8,1.0,-35.0,-1,1.0,0.404500999999982
568,2,0.8,0.25,-35.0,-1,1.0,3.981101000000308
569,2,0.8,1.0,-35.0,-1,1.0,3.5982010000006994
570,2,0.8,0.0,-35.0,-1,1.0,2.648601000000326
571,2,0.8,0.0625,35.0,-1,0.0,0.7620010000000548
572,2,0.8,1.0,-35.0,-1,1.0,1.2917010000005575
573,2,0.8,0.25,-35.0,-1,1.0,10.47260099999994
574,2,0.8,0.125,-35.0,1,0.0,7.212500999999975
575,2,0.8,0.25,-35.0,1,0.0,1.2729009999998198
576,2,0.8,0.125,-35.0,-1,1.0,3.8732010000003356
577,2,0.8,1.0,-35.0,-1,1.0,0.43640099999993254
578,2,0.8,0.0625,-35.0,-1,1.0,3.5265009999998256
579,2,0.8,0.25,-35.0,-1,1.0,5.497301000000334
580,2,0.8,0.0625,-35.0,-1,1.0,8.0103009999998
581,2,0.8,1.0,-35.0,-1,1.0,3.737301000000116
582,2,0.8,0.0625,-35.0,-1,1.0,3.7479010000006383
583,2,0.8,1.0,-35.0,-1,1.0,0.3344010000000708
584,2,0.8,0.125,-35.0,-1,1.0,3.027801000000636
585,2,0.8,1.0,-35.0,-1,1.0,0.474500999999691
586,2,0.8,0.0,35.0,-1,0.0,4.444700999999895
587,2,0.8,0.125,35.0,-1,0.0,0.2984010000000126
588,2,0.8,0.125,-35.0,-1,1.0,12.708401000000322
589,2,0.8,0.125,-35.0,-1,1.0,2.1190010000004804
590,2,0.8,0.0625,-35.0,1,0.0,3.0924010000003364
1,3,0.5,0.125,35.0,1,1.0,0.31730000000000014
2,3,0.5,0.25,-35.0,-1,1.0,0.47889999999999944
3,3,0.5,0.125,-35.0,-1,1.0,3.095700000000001
4,3,0.5,0.125,35.0,1,1.0,0.3189989999999998
5,3,0.5,0.25,35.0,1,1.0,0.33750000000000213
6,3,0.5,1.0,35.0,1,1.0,0.4521000000000015
7,3,0.5,0.25,-35.0,-1,1.0,0.27090000000000103
8,3,0.5,0.25,35.0,1,1.0,0.30150000000000077
9,3,0.5,0.125,35.0,-1,0.0,0.3977000000000004
10,3,0.5,1.0,35.0,1,1.0,0.27130000000000365
11,3,0.5,1.0,35.0,1,1.0,0.24349999999999028
12,3,0.5,0.25,35.0,1,1.0,0.30169999999999675
13,3,0.5,0.25,35.0,1,1.0,0.30979999999999563
14,3,0.5,0.125,-35.0,-1,1.0,0.329899999999995
15,3,0.5,0.0,35.0,1,1.0,2.3202
16,3,0.5,0.0625,35.0,-1,0.0,0.31569999999999965
17,3,0.5,0.125,-35.0,-1,1.0,2.0001999999999995
18,3,0.5,0.0625,-35.0,1,0.0,2.266999999999996
19,3,0.5,1.0,-35.0,-1,1.0,0.3096999999999994
20,3,0.5,0.125,-35.0,-1,1.0,2.458299999999994
21,3,0.5,0.25,-35.0,-1,1.0,0.4288999999999987
22,3,0.5,0.125,-35.0,-1,1.0,2.8508000000000067
23,3,0.5,0.25,-35.0,-1,1.0,0.43550000000000466
24,3,0.5,0.25,-35.0,-1,1.0,0.3382000000000005
25,3,0.5,0.0625,-35.0,-1,1.0,2.607600000000005
26,3,0.5,0.0,35.0,1,1.0,0.37590000000000146
27,3,0.5,0.25,35.0,1,1.0,8.159300000000002
28,3,0.5,0.0625,-35.0,1,0.0,3.132000000000005
29,3,0.5,1.0,35.0,1,1.0,0.28240000000000975
30,3,0.5,0.25,35.0,1,1.0,2.1310000000000002
31,3,0.5,1.0,35.0,1,1.0,0.38930000000000575
32,3,0.5,0.125,35.0,-1,0.0,2.6489999999999867
33,3,0.5,0.0625,-35.0,-1,1.0,0.5050999999999988
34,3,0.5,1.0,-35.0,-1,1.0,0.3208000000000055
35,3,0.5,1.0,-35.0,-1,1.0,0.34550000000001546
36,3,0.5,0.125,-35.0,-1,1.0,3.91700000000003
37,3,0.5,1.0,-35.0,-1,1.0,0.4561000000000206
38,3,0.5,0.0625,-35.0,1,0.0,0.38169999999999504
39,3,0.5,0.125,35.0,1,1.0,0.830900000000014
40,3,0.5,0.0625,-35.0,-1,1.0,0.3772999999999911
41,3,0.5,1.0,35.0,1,1.0,0.27899999999999636
42,3,0.5,0.125,-35.0,1,0.0,3.173400000000015
43,3,0.5,0.25,35.0,1,1.0,0.29050000000003706
44,3,0.5,1.0,35.0,1,1.0,0.4403000000000077
45,3,0.5,0.0625,35.0,1,1.0,0.934599999999989
46,3,0.5,0.0625,-35.0,-1,1.0,0.32380000000003406
47,3,0.5,0.25,35.0,1,1.0,0.2639000000000351
48,3,0.5,0.25,-35.0,-1,1.0,0.5545000000000186
49,3,0.5,0.25,35.0,1,1.0,0.34729999999998995
50,3,0.5,0.0625,35.0,-1,0.0,0.30570000000000164
51,3,0.5,0.0,-35.0,1,0.0,0.3937000000000239
52,3,0.5,0.25,35.0,-1,0.0,0.15420000000003142
53,3,0.5,1.0,-35.0,-1,1.0,0.3348000000000013
54,3,0.5,0.125,-35.0,-1,1.0,0.4317999999999813
55,3,0.5,0.125,-35.0,-1,1.0,0.2744000000000142
56,3,0.5,0.125,-35.0,-1,1.0,0.2931000000000381
57,3,0.5,1.0,35.0,1,1.0,0.23439999999999372
58,3,0.5,0.0,35.0,-1,0.0,0.3456999999999937
59,3,0.5,0.25,35.0,1,1.0,0.41909999999998604
60,3,0.5,0.25,35.0,1,1.0,0.4148000000000138
61,3,0.5,0.0625,35.0,1,1.0,1.3153010000000052
62,3,0.5,0.125,35.0,1,1.0,0.5160009999999886
63,3,0.5,0.0625,-35.0,-1,1.0,0.3810009999999977
64,3,0.5,0.25,-35.0,-1,1.0,0.47120100000000775
65,3,0.5,1.0,35.0,1,1.0,0.6124010000000055
66,3,0.5,1.0,-35.0,-1,1.0,0.32030100000002903
67,3,0.5,0.0625,35.0,1,1.0,3.2668009999999867
68,3,0.5,0.25,-35.0,-1,1.0,0.2862010000000339
69,3,0.5,0.0,35.0,1,1.0,3.7090010000000007
70,3,0.5,1.0,-35.0,-1,1.0,0.20610099999998965
71,3,0.5,1.0,35.0,-1,0.0,0.10320100000001275
72,3,0.5,0.125,35.0,-1,0.0,0.13210100000003422
73,3,0.5,0.0,35.0,1,1.0,0.30600100000000907
74,3,0.5,0.125,35.0,1,1.0,1.127601000000027
75,3,0.5,0.25,-35.0,-1,1.0,0.26490100000000893
76,3,0.5,0.0625,35.0,1,1.0,0.3018009999999549
77,3,0.5,1.0,35.0,1,1.0,0.2928009999999972
78,3,0.5,1.0,35.0,1,1.0,0.29790099999996755
79,3,0.5,0.0625,-35.0,-1,1.0,3.6390010000000075
80,3,0.5,0.0,35.0,-1,0.0,0.21910099999996646
81,3,0.5,0.25,-35.0,-1,1.0,0.2843009999999708
82,3,0.5,0.0625,-35.0,1,0.0,2.4661009999999237
83,3,0.5,0.0,35.0,-1,0.0,0.3075009999999452
84,3,0.5,0.0625,35.0,1,1.0,0.44260100000002467
85,3,0.5,1.0,35.0,1,1.0,0.5317009999999982
86,3,0.5,0.25,35.0,1,1.0,0.3717009999999732
87,3,0.5,1.0,35.0,1,1.0,0.49050099999999475
88,3,0.5,0.0,-35.0,1,0.0,0.5900009999999725
89,3,0.5,0.25,35.0,1,1.0,0.31670099999996637
90,3,0.5,0.0625,-35.0,-1,1.0,0.41810099999997874
91,3,0.8,1.0,-35.0,-1,1.0,0.43280099999998356
92,3,0.8,1.0,-35.0,-1,1.0,0.32500099999992926
93,3,0.8,1.0,-35.0,-1,1.0,0.372400999999968
94,3,0.8,0.0,-35.0,1,0.0,3.8588009999999713
95,3,0.8,1.0,35.0,-1,0.0,0.20760099999995418
96,3,0.8,0.25,-35.0,-1,1.0,0.483901000000003
97,3,0.8,1.0,-35.0,-1,1.0,0.310401000000013
98,3,0.8,0.125,-35.0,-1,1.0,4.236500999999976
99,3,0.8,0.25,-35.0,-1,1.0,0.24830099999996946
100,3,0.8,0.125,-35.0,-1,1.0,0.4804009999999721
101,3,0.8,0.0,-35.0,-1,1.0,2.585500999999965
102,3,0.8,0.0625,-35.0,-1,1.0,0.27560099999999466
103,3,0.8,0.125,35.0,1,1.0,0.2980009999999993
104,3,0.8,0.0625,-35.0,-1,1.0,0.30940099999997983
105,3,0.8,0.25,-35.0,-1,1.0,0.5132009999999809
106,3,0.8,0.0625,-35.0,-1,1.0,3.4245010000000207
107,3,0.8,0.25,-35.0,-1,1.0,0.29050099999994927
108,3,0.8,0.125,-35.0,-1,1.0,0.2871009999999501
109,3,0.8,0.125,-35.0,-1,1.0,0.265500999999972
110,3,0.8,0.125,-35.0,-1,1.0,0.27610099999998283
111,3,0.8,0.125,35.0,1,1.0,0.45250099999998383
112,3,0.8,1.0,-35.0,-1,1.0,0.06160099999999602
113,3,0.8,0.125,-35.0,-1,1.0,0.3754009999999539
114,3,0.8,0.0625,-35.0,-1,1.0,0.20890100000002576
115,3,0.8,1.0,-35.0,-1,1.0,0.4837009999999964
116,3,0.8,0.125,35.0,1,1.0,0.3336009999999874
117,3,0.8,0.0625,35.0,-1,0.0,0.2661009999999919
118,3,0.8,0.0,35.0,-1,0.0,0.23600099999998747
119,3,0.8,0.25,-35.0,1,0.0,0.3988009999999349
120,3,0.8,1.0,-35.0,-1,1.0,0.2838009999999258
121,3,0.8,0.0625,35.0,1,1.0,0.40070099999996955
122,3,0.8,0.25,35.0,-1,0.0,3.3796010000000365
123,3,0.8,1.0,-35.0,-1,1.0,0.2822009999999864
124,3,0.8,0.0,35.0,-1,0.0,0.6249009999999657
125,3,0.8,1.0,-35.0,-1,1.0,0.08580099999994673
126,3,0.8,0.0625,35.0,-1,0.0,0.7081009999999424
127,3,0.8,0.125,-35.0,-1,1.0,0.2772009999999909
128,3,0.8,1.0,-35.0,-1,1.0,0.34930099999996855
129,3,0.8,0.125,-35.0,-1,1.0,0.5076009999999656
130,3,0.8,0.0625,35.0,1,1.0,0.6157010000000014
131,3,0.8,0.125,-35.0,-1,1.0,3.533501000000001
132,3,0.8,0.25,-35.0,-1,1.0,0.2710010000000125
133,3,0.8,0.0625,35.0,1,1.0,0.38450099999994336
134,3,0.8,0.125,-35.0,-1,1.0,0.3011009999999601
135,3,0.8,1.0,-35.0,-1,1.0,0.5328009999999495
136,3,0.8,0.25,-35.0,-1,1.0,0.48720099999997046
137,3,0.8,1.0,-35.0,1,0.0,0.5011009999999487
138,3,0.8,0.0625,-35.0,1,0.0,0.4492010000000164
139,3,0.8,0.25,35.0,1,1.0,0.30790099999995846
140,3,0.8,0.0625,-35.0,-1,1.0,0.32000099999999065
141,3,0.8,1.0,-35.0,-1,1.0,0.3484009999999671
142,3,0.8,0.0,-35.0,-1,1.0,2.8844009999999685
143,3,0.8,0.25,-35.0,-1,1.0,0.6382009999999809
144,3,0.8,1.0,-35.0,-1,1.0,0.7353009999999927
145,3,0.8,1.0,-35.0,-1,1.0,0.5668009999999981
146,3,0.8,1.0,-35.0,-1,1.0,0.2615009999999529
147,3,0.8,0.0625,-35.0,1,0.0,0.3950009999999793
148,3,0.8,0.125,-35.0,-1,1.0,0.42610100000001694
149,3,0.8,0.125,-35.0,-1,1.0,0.36150099999997565
150,3,0.8,0.125,-35.0,1,0.0,0.959500999999932
151,3,0.8,0.25,35.0,1,1.0,0.31740100000001803
152,3,0.8,0.25,-35.0,-1,1.0,0.3463010000000395
153,3,0.2,0.125,-35.0,-1,1.0,0.26510099999995873
154,3,0.2,0.0625,35.0,1,1.0,0.43000100000006114
155,3,0.2,0.125,35.0,1,1.0,0.3283000000000129
156,3,0.2,0.0625,35.0,1,1.0,0.35340000000007876
157,3,0.2,1.0,35.0,1,1.0,0.2755009999999629
158,3,0.2,0.125,35.0,1,1.0,0.8225009999999884
159,3,0.2,0.0,35.0,1,1.0,3.7410010000000966
160,3,0.2,0.0625,-35.0,-1,1.0,0.3038010000000213
161,3,0.2,0.0625,35.0,1,1.0,0.2855010000000675
162,3,0.2,0.0625,35.0,1,1.0,0.3296010000000251
163,3,0.2,0.0625,35.0,-1,0.0,0.25470100000006823
164,3,0.2,1.0,35.0,1,1.0,0.2772010000001046
165,3,0.2,0.0625,35.0,1,1.0,0.6484010000000353
166,3,0.2,0.0625,35.0,1,1.0,0.30860100000006696
167,3,0.2,0.25,-35.0,-1,1.0,0.5363009999999804
168,3,0.2,0.125,35.0,1,1.0,0.2842010000000528
169,3,0.2,0.0625,35.0,-1,0.0,1.2598010000000386
170,3,0.2,0.0625,35.0,1,1.0,0.28120100000001
171,3,0.2,0.125,35.0,1,1.0,0.32240100000012717
172,3,0.2,0.25,35.0,1,1.0,0.30640100000005077
173,3,0.2,0.25,35.0,1,1.0,0.49410100000000057
174,3,0.2,0.0625,35.0,-1,0.0,0.4026010000000042
175,3,0.2,0.0625,35.0,1,1.0,0.3197010000000091
176,3,0.2,0.125,35.0,1,1.0,0.2857010000000173
177,3,0.2,0.125,35.0,1,1.0,0.5641010000000506
178,3,0.2,0.25,35.0,1,1.0,0.37320099999999456
179,3,0.2,1.0,-35.0,-1,1.0,0.3203010000000859
180,3,0.2,0.125,35.0,1,1.0,0.996101000000067
181,3,0.2,1.0,35.0,1,1.0,0.2528010000000904
182,3,0.2,0.125,-35.0,-1,1.0,0.5928010000001223
183,3,0.2,0.0625,-35.0,-1,1.0,0.448900999999978
184,3,0.2,0.0,35.0,1,1.0,0.3863010000001168
185,3,0.2,0.125,-35.0,-1,1.0,0.3485010000000557
186,3,0.2,0.0625,-35.0,1,0.0,0.2799009999999953
187,3,0.2,0.125,-35.0,-1,1.0,0.35130099999992126
188,3,0.2,1.0,35.0,1,1.0,0.3257010000000946
189,3,0.2,0.125,35.0,1,1.0,0.271701000000121
190,3,0.2,1.0,35.0,1,1.0,1.296901000000048
191,3,0.2,0.0625,35.0,1,1.0,4.099601000000007
192,3,0.2,0.125,35.0,1,1.0,0.829101000000037
193,3,0.2,0.125,35.0,1,1.0,0.26050100000009024
194,3,0.2,0.0,35.0,1,1.0,0.32330100000001494
195,3,0.2,0.0625,35.0,1,1.0,0.30670100000008915
196,3,0.2,1.0,35.0,1,1.0,0.2737010000000737
197,3,0.2,0.0625,35.0,1,1.0,0.5518010000000686
198,3,0.2,0.0625,35.0,-1,0.0,3.2839010000000144
199,3,0.2,0.0625,-35.0,-1,1.0,0.3788010000000668
200,3,0.8,1.0,-35.0,-1,1.0,0.35590099999990343
201,3,0.8,0.0625,-35.0,1,0.0,0.5813009999999394
202,3,0.8,0.0625,-35.0,-1,1.0,0.2720010000000457
203,3,0.8,0.0,-35.0,-1,1.0,0.2592009999999618
204,3,0.8,0.0625,-35.0,-1,1.0,0.3742010000000846
205,3,0.8,1.0,-35.0,-1,1.0,0.5660010000000284
206,3,0.8,0.25,-35.0,-1,1.0,0.3073010000000522
207,3,0.8,0.125,-35.0,-1,1.0,0.3340010000000575
208,3,0.8,0.0,-35.0,-1,1.0,0.31710099999997965
209,3,0.8,0.25,-35.0,-1,1.0,0.48420100000009825
210,3,0.8,1.0,35.0,1,1.0,0.2394010000000435
211,3,0.8,1.0,-35.0,-1,1.0,0.2633010000000695
212,3,0.8,1.0,-35.0,-1,1.0,0.31250100000011116
213,3,0.8,0.125,-35.0,-1,1.0,0.6551010000000588
214,3,0.8,0.125,-35.0,-1,1.0,0.4910010000000966
215,3,0.8,0.0625,-35.0,-1,1.0,0.34120100000006914
216,3,0.8,0.0,-35.0,-1,1.0,0.41370100000006005
217,3,0.8,0.125,-35.0,-1,1.0,0.6116010000000642
218,3,0.8,1.0,-35.0,-1,1.0,0.513101000000006
219,3,0.8,1.0,-35.0,-1,1.0,0.5421010000001161
220,3,0.8,0.0,-35.0,-1,1.0,0.43630099999995764
221,3,0.8,0.0,35.0,-1,0.0,0.5695009999999456
222,3,0.8,0.0625,-35.0,-1,1.0,0.40380100000015773
223,3,0.8,1.0,-35.0,-1,1.0,0.2855010000000675
224,3,0.8,1.0,-35.0,-1,1.0,0.2653010000001359
225,3,0.8,0.125,-35.0,-1,1.0,0.31860100000005787
226,3,0.8,0.0625,-35.0,1,0.0,0.937701000000061
227,3,0.8,0.25,-35.0,-1,1.0,0.2231010000000424
228,3,0.8,0.0625,-35.0,-1,1.0,0.31100100000003295
229,3,0.8,0.25,-35.0,-1,1.0,0.328401000000099
230,3,0.8,0.0625,35.0,1,1.0,2.9878009999999904
231,3,0.8,0.0,-35.0,1,0.0,0.36290100000007897
232,3,0.8,0.25,-35.0,-1,1.0,0.4505010000001448
233,3,0.8,0.25,35.0,1,1.0,0.2939010000000053
234,3,0.8,0.125,-35.0,-1,1.0,0.6312010000000328
235,3,0.8,0.125,-35.0,-1,1.0,0.603601000000026
236,3,0.8,1.0,-35.0,-1,1.0,0.2938010000000304
237,3,0.8,1.0,35.0,1,1.0,0.2750010000000884
238,3,0.8,0.25,-35.0,-1,1.0,0.5962009999999509
239,3,0.8,0.125,-35.0,-1,1.0,0.5074009999999589
240,3,0.8,0.125,-35.0,-1,1.0,3.7277010000000246
241,3,0.8,0.0625,-35.0,1,0.0,0.34370100000001
242,3,0.8,0.0625,-35.0,-1,1.0,0.6122010000000273
243,3,0.8,0.125,-35.0,1,0.0,0.35950100000013663
244,3,0.8,0.125,-35.0,-1,1.0,0.2880010000000084
245,3,0.8,0.0,-35.0,-1,1.0,0.40590100000008533
246,3,0.8,0.0,-35.0,-1,1.0,0.2531010000000151
247,3,0.8,1.0,-35.0,-1,1.0,1.1990010000000666
248,3,0.8,0.25,-35.0,-1,1.0,4.352701000000025
249,3,0.8,0.0,35.0,1,1.0,0.3319010000000162
250,3,0.8,0.0625,-35.0,-1,1.0,3.6306010000000697
251,3,0.8,0.0625,-35.0,-1,1.0,0.2637010000000828
252,3,0.8,0.0625,-35.0,-1,1.0,0.4889010000000553
253,3,0.8,0.125,-35.0,1,0.0,0.3806010000000697
254,3,0.8,0.0625,-35.0,-1,1.0,0.34060100000010607
255,3,0.8,0.25,-35.0,-1,1.0,0.3477010000000291
256,3,0.8,0.25,-35.0,-1,1.0,0.41610099999991235
257,3,0.8,0.25,-35.0,-1,1.0,0.6080009999999447
258,3,0.8,0.0625,-35.0,1,0.0,3.3170000000000073
259,3,0.8,0.0625,-35.0,-1,1.0,0.2819010000000617
260,3,0.8,0.125,-35.0,-1,1.0,0.27010100000006787
261,3,0.8,0.125,-35.0,-1,1.0,0.43410100000005514
262,3,0.8,0.25,-35.0,-1,1.0,0.34110099999998056
263,3,0.8,0.25,-35.0,-1,1.0,0.3563010000000304
264,3,0.8,1.0,-35.0,-1,1.0,0.38350100000002385
265,3,0.8,0.125,-35.0,-1,1.0,0.293500999999992
266,3,0.8,0.125,-35.0,-1,1.0,3.458001000000081
267,3,0.8,0.25,-35.0,-1,1.0,0.23260100000004513
268,3,0.8,1.0,-35.0,-1,1.0,0.4917010000000346
269,3,0.8,0.0625,-35.0,-1,1.0,0.5663010000000668
270,3,0.8,1.0,-35.0,-1,1.0,0.31290100000001075
271,3,0.8,0.0625,-35.0,-1,1.0,0.22810100000003786
272,3,0.8,0.125,-35.0,-1,1.0,0.5001010000000861
273,3,0.8,0.0,-35.0,-1,1.0,0.6195010000000138
274,3,0.8,1.0,35.0,1,1.0,0.2678009999999631
275,3,0.8,0.125,-35.0,-1,1.0,0.4969010000000935
276,3,0.8,0.125,-35.0,-1,1.0,0.5380010000001221
277,3,0.8,0.125,-35.0,-1,1.0,5.896201000000019
278,3,0.8,0.0625,-35.0,-1,1.0,0.5079010000000608
279,3,0.8,0.25,-35.0,-1,1.0,0.05720100000007733
280,3,0.8,1.0,-35.0,-1,1.0,0.2773009999999658
281,3,0.8,0.25,-35.0,-1,1.0,0.2944009999999935
282,3,0.8,0.0,-35.0,-1,1.0,0.5914010000000189
283,3,0.8,0.25,-35.0,-1,1.0,0.4048010000000204
284,3,0.8,0.125,35.0,1,1.0,0.39740100000005896
285,3,0.2,0.25,-35.0,-1,1.0,0.4911009999999578
286,3,0.2,0.0625,35.0,1,1.0,0.48030100000005405
287,3,0.2,0.0625,35.0,1,1.0,0.2980009999999993
288,3,0.2,0.0625,-35.0,-1,1.0,3.542201000000091
289,3,0.2,0.0625,-35.0,-1,1.0,0.34340100000008533
290,3,0.2,1.0,35.0,1,1.0,0.12810100000001512
291,3,0.2,0.0625,35.0,-1,0.0,0.5450010000000702
292,3,0.2,0.0,35.0,-1,0.0,0.37300100000004477
293,3,0.2,0.25,35.0,1,1.0,0.3304010000000517
294,3,0.2,0.125,-35.0,-1,1.0,0.05070100000000366
295,3,0.2,0.0625,-35.0,1,0.0,0.28050100000007205
296,3,0.2,1.0,35.0,1,1.0,0.31720099999995455
297,3,0.2,0.125,35.0,1,1.0,0.29060100000003786
298,3,0.2,0.0625,-35.0,-1,1.0,0.4007010000000264
299,3,0.2,0.0,35.0,-1,0.0,0.2608010000001286
300,3,0.2,0.25,35.0,1,1.0,0.35120100000006005
301,3,0.2,0.25,35.0,1,1.0,0.2642009999999573
302,3,0.2,0.0625,35.0,1,1.0,0.6044009999998252
303,3,0.2,0.0625,35.0,1,1.0,0.40810099999998783
304,3,0.2,0.25,35.0,1,1.0,0.32130099999994854
305,3,0.2,0.0625,35.0,1,1.0,0.6281010000000151
306,3,0.2,1.0,35.0,1,1.0,0.2552009999999427
307,3,0.2,0.0,35.0,1,1.0,0.41160100000001876
308,3,0.2,0.0625,35.0,-1,0.0,1.2323010000000068
309,3,0.2,0.0,35.0,1,1.0,0.3488009999998667
310,3,0.2,0.25,35.0,1,1.0,0.275101000000177
311,3,0.2,0.125,35.0,1,1.0,0.5891010000000279
312,3,0.2,0.25,35.0,1,1.0,0.258701000000201
313,3,0.2,0.125,-35.0,-1,1.0,0.49230099999999766
314,3,0.2,1.0,35.0,1,1.0,0.28890100000012353
315,3,0.2,0.25,35.0,1,1.0,0.276100999999926
316,3,0.2,0.25,35.0,1,1.0,0.6092010000002119
317,3,0.2,0.25,35.0,1,1.0,0.24290100000007442
318,3,0.2,0.25,35.0,1,1.0,0.305800999999974
319,3,0.2,0.0625,35.0,-1,0.0,0.5625010000001112
320,3,0.2,0.0,35.0,-1,0.0,0.3460010000001148
321,3,0.2,1.0,35.0,1,1.0,0.30940099999997983
322,3,0.2,0.0,35.0,-1,0.0,0.18950100000006387
323,3,0.2,0.25,35.0,1,1.0,0.32630100000028506
324,3,0.2,1.0,-35.0,-1,1.0,0.186301000000185
325,3,0.2,1.0,35.0,1,1.0,0.01310099999977865
326,3,0.2,0.25,35.0,1,1.0,0.27020100000004277
327,3,0.2,1.0,35.0,1,1.0,0.4832010000000082
328,3,0.2,1.0,-35.0,-1,1.0,0.23350100000016027
329,3,0.2,1.0,35.0,1,1.0,0.22330100000021957
330,3,0.2,0.125,35.0,1,1.0,0.5235010000001239
331,3,0.2,0.125,35.0,1,1.0,0.5837010000000191
332,3,0.2,1.0,-35.0,-1,1.0,0.27040099999999256
333,3,0.8,0.125,35.0,1,1.0,0.0939010000001872
334,3,0.8,0.0625,-35.0,-1,1.0,0.2537010000000919
335,3,0.8,0.0,-35.0,-1,1.0,0.14700100000004568
336,3,0.8,1.0,-35.0,-1,1.0,0.7773010000000795
337,3,0.8,0.25,-35.0,-1,1.0,0.3740010000001348
338,3,0.8,1.0,35.0,1,1.0,0.2776010000002316
339,3,0.8,0.0625,35.0,1,1.0,0.33130099999993945
340,3,0.8,0.125,35.0,1,1.0,0.4080010000002403
341,3,0.8,0.0,-35.0,-1,1.0,0.06090100000005805
342,3,0.8,0.0625,-35.0,-1,1.0,0.2477010000000064
343,3,0.8,1.0,35.0,1,1.0,0.3346010000000206
344,3,0.8,0.0,-35.0,-1,1.0,0.4248009999998885
345,3,0.8,1.0,-35.0,-1,1.0,0.2813009999999849
346,3,0.8,0.125,-35.0,-1,1.0,0.26830100000006496
347,3,0.8,1.0,-35.0,-1,1.0,0.2815009999999347
348,3,0.8,0.0625,35.0,-1,0.0,0.24170100000014827
349,3,0.8,0.0,-35.0,1,0.0,0.3882009999999809
350,3,0.8,1.0,-35.0,-1,1.0,2.5851010000001224
351,3,0.8,0.125,-35.0,-1,1.0,0.20870100000001912
352,3,0.8,0.0625,-35.0,1,0.0,0.351900999999998
353,3,0.8,0.0625,-35.0,-1,1.0,0.0357010000000173
354,3,0.8,0.125,-35.0,-1,1.0,0.22210100000006605
355,3,0.8,1.0,-35.0,-1,1.0,0.2655009999998583
356,3,0.8,1.0,-35.0,-1,1.0,0.605701000000181
357,3,0.8,0.0,-35.0,-1,1.0,3.5158010000000104
358,3,0.8,0.125,-35.0,-1,1.0,0.2892010000000482
359,3,0.2,0.125,35.0,1,1.0,0.3426010000000588
360,3,0.2,0.125,35.0,1,1.0,0.26610100000016246
361,3,0.2,0.25,-35.0,-1,1.0,0.26000100000010207
362,3,0.2,1.0,35.0,1,1.0,0.24620099999992817
363,3,0.2,0.25,35.0,1,1.0,0.49630099999990307
364,3,0.2,0.0625,35.0,1,1.0,0.37980100000004313
365,3,0.2,0.25,35.0,1,1.0,0.7230010000000675
366,3,0.2,0.25,-35.0,-1,1.0,0.26670100000001185
367,3,0.2,0.0625,35.0,-1,0.0,0.2333009999999831
368,3,0.2,0.125,35.0,1,1.0,0.47030100000006314
369,3,0.2,1.0,35.0,1,1.0,0.43370099999992817
370,3,0.2,1.0,35.0,1,1.0,0.2540010000000166
371,3,0.2,0.125,35.0,1,1.0,0.35710100000028433
372,3,0.2,0.125,-35.0,-1,1.0,0.42380099999991216
373,3,0.2,1.0,35.0,1,1.0,0.2738010000000486
374,3,0.2,0.25,35.0,-1,0.0,0.14390100000014172
375,3,0.2,1.0,35.0,1,1.0,0.2641009999999824
376,3,0.2,0.0625,35.0,1,1.0,0.3543010000000777
377,3,0.2,0.125,-35.0,1,0.0,0.24440099999992526
378,3,0.2,0.0625,35.0,1,1.0,0.5143010000001595
379,3,0.2,0.25,-35.0,-1,1.0,0.17150100000003476
380,3,0.2,1.0,-35.0,-1,1.0,0.311301000000185
381,3,0.2,1.0,35.0,1,1.0,0.2613010000002305
382,3,0.2,0.125,35.0,1,1.0,0.2918010000000777
383,3,0.2,0.25,35.0,1,1.0,0.511801000000105
384,3,0.2,0.25,35.0,1,1.0,0.43200100000012753
385,3,0.2,0.125,-35.0,-1,1.0,0.3482010000000173
386,3,0.2,0.0,35.0,-1,0.0,0.4150010000000748
387,3,0.2,0.0,-35.0,-1,1.0,0.2820010000000366
388,3,0.2,0.125,35.0,1,1.0,0.22190099999988888
389,3,0.2,0.125,35.0,1,1.0,0.33530099999984486
390,3,0.2,0.0625,35.0,1,1.0,1.8823010000000977
391,3,0.2,0.125,-35.0,-1,1.0,0.3056010000002516
392,3,0.2,0.25,35.0,1,1.0,0.27280100000007224
393,3,0.2,0.25,35.0,1,1.0,0.30890100000010534
394,3,0.2,1.0,-35.0,-1,1.0,0.1523010000000795
395,3,0.2,0.125,35.0,1,1.0,0.8763010000000122
396,3,0.2,1.0,35.0,1,1.0,0.26630100000011225
397,3,0.2,0.0625,-35.0,-1,1.0,0.10970100000008642
398,3,0.2,0.125,-35.0,-1,1.0,0.44980099999997947
399,3,0.2,1.0,35.0,1,1.0,0.2561009999999442
400,3,0.2,0.0625,35.0,1,1.0,0.1728009999999358
401,3,0.2,0.0625,35.0,-1,0.0,0.19620099999997365
402,3,0.2,1.0,35.0,1,1.0,0.2698010000001432
403,3,0.2,0.125,35.0,1,1.0,0.3032010000001719
404,3,0.2,1.0,35.0,1,1.0,0.22710099999994782
405,3,0.2,0.0,35.0,-1,0.0,0.2933010000001559
406,3,0.2,0.125,35.0,1,1.0,0.25000100000011116
407,3,0.2,1.0,35.0,1,1.0,0.26010100000007697
408,3,0.2,0.25,-35.0,-1,1.0,0.380301000000145
409,3,0.2,0.0625,35.0,1,1.0,0.3238010000000031
410,3,0.2,0.25,-35.0,-1,1.0,0.48370100000033744
411,3,0.2,1.0,35.0,1,1.0,0.4872009999999136
412,3,0.2,1.0,35.0,1,1.0,0.2639010000000326
413,3,0.2,0.125,35.0,1,1.0,0.4541010000002643
414,3,0.2,1.0,35.0,1,1.0,0.2741009999999733
415,3,0.2,0.0,35.0,-1,0.0,0.7945010000000821
416,3,0.2,0.25,35.0,1,1.0,0.30480099999999766
417,3,0.2,0.0625,35.0,1,1.0,0.27800100000013117
418,3,0.2,0.0,35.0,1,1.0,0.53120100000001
419,3,0.2,1.0,-35.0,-1,1.0,0.2514009999999871
420,3,0.2,0.25,35.0,1,1.0,0.2677009999999882
421,3,0.2,1.0,35.0,1,1.0,0.22830100000010134
422,3,0.2,0.125,35.0,1,1.0,0.6082010000000082
423,3,0.2,1.0,-35.0,-1,1.0,0.36140100000011444
424,3,0.2,0.25,35.0,1,1.0,0.34150099999988015
425,3,0.2,0.25,35.0,1,1.0,0.6550010000000839
426,3,0.2,0.0,35.0,-1,0.0,2.9186009999998532
427,3,0.2,0.125,35.0,1,1.0,0.5085010000000239
428,3,0.2,0.25,-35.0,-1,1.0,0.37530100000003586
429,3,0.2,0.0625,35.0,1,1.0,0.27870100000018283
430,3,0.8,0.25,-35.0,-1,1.0,0.6820009999999002
431,3,0.8,0.0,35.0,1,1.0,0.24270099999989725
432,3,0.8,0.25,-35.0,-1,1.0,0.38550099999997656
433,3,0.8,1.0,-35.0,-1,1.0,0.3257010000002083
434,3,0.8,0.0625,35.0,1,1.0,0.24580100000002858
435,3,0.8,0.0625,35.0,-1,0.0,-0.0370989999998983
436,3,0.8,0.125,-35.0,1,0.0,0.2694010000002436
437,3,0.8,0.0625,35.0,1,1.0,0.29270100000007915
438,3,0.8,0.0625,35.0,1,1.0,0.3361010000000988
439,3,0.8,0.0625,-35.0,-1,1.0,0.08970099999987724
440,3,0.8,1.0,-35.0,-1,1.0,0.49630100000013044
441,3,0.8,0.125,-35.0,-1,1.0,0.2534010000001672
442,3,0.8,0.0625,-35.0,-1,1.0,0.29650100000003476
443,3,0.8,0.125,-35.0,-1,1.0,4.976600999999846
444,3,0.8,0.0,-35.0,1,0.0,0.4366010000001097
445,3,0.8,0.25,35.0,1,1.0,0.37690100000008897
446,3,0.8,0.25,-35.0,-1,1.0,0.257001000000173
447,3,0.8,1.0,-35.0,-1,1.0,0.37370099999998274
448,3,0.8,0.125,-35.0,-1,1.0,0.24050099999999475
449,3,0.8,1.0,-35.0,-1,1.0,0.2671010000001388
450,3,0.8,0.25,35.0,1,1.0,0.3439010000001872
451,3,0.8,0.25,35.0,1,1.0,0.37740099999996346
452,3,0.8,0.25,-35.0,-1,1.0,0.3245010000000548
453,3,0.8,0.0625,35.0,-1,0.0,0.38420099999984814
454,3,0.8,1.0,-35.0,-1,1.0,0.4310010000001512
455,3,0.8,0.0625,-35.0,1,0.0,0.327701000000161
456,3,0.8,0.0625,-35.0,1,0.0,0.31100100000003295
457,3,0.8,0.125,-35.0,1,0.0,0.22520000000008622
458,3,0.8,1.0,-35.0,-1,1.0,0.23810099999991508
459,3,0.8,1.0,-35.0,-1,1.0,0.23550100000011298
460,3,0.8,0.25,-35.0,-1,1.0,0.22870100000000093
461,3,0.8,1.0,-35.0,-1,1.0,0.2619010000000799
462,3,0.8,1.0,-35.0,-1,1.0,0.37160100000005514
463,3,0.8,1.0,-35.0,-1,1.0,0.2853010000003451
464,3,0.8,0.0625,-35.0,-1,1.0,0.271701000000121
465,3,0.8,1.0,-35.0,-1,1.0,0.4852010000001883
466,3,0.8,1.0,35.0,1,1.0,0.29920099999981176
467,3,0.8,0.125,-35.0,-1,1.0,0.1891009999999369
468,3,0.8,0.125,35.0,1,1.0,0.29890100000011444
469,3,0.8,0.125,-35.0,-1,1.0,0.3224009999998998
470,3,0.8,0.25,-35.0,-1,1.0,0.18560100000013335
471,3,0.8,1.0,-35.0,-1,1.0,0.5093010000000504
472,3,0.8,0.0,35.0,-1,0.0,0.5458009999999831
473,3,0.8,0.25,-35.0,-1,1.0,0.27250099999992017
474,3,0.8,0.25,-35.0,-1,1.0,0.31270100000006096
475,3,0.8,0.25,-35.0,-1,1.0,0.2661009999999351
476,3,0.8,0.25,35.0,1,1.0,0.2999010000000908
477,3,0.8,0.25,35.0,1,1.0,0.27290100000004713
478,3,0.8,0.0625,35.0,-1,0.0,0.20990099999994527
479,3,0.8,0.0625,-35.0,1,0.0,0.4535009999999602
480,3,0.8,0.25,-35.0,-1,1.0,0.5268009999999776
481,3,0.8,0.125,-35.0,-1,1.0,0.3133010000001377
482,3,0.8,0.25,-35.0,-1,1.0,0.376500999999962
483,3,0.8,0.125,35.0,1,1.0,0.27060100000016973
484,3,0.8,0.125,-35.0,-1,1.0,0.320500999999922
485,3,0.8,0.25,-35.0,-1,1.0,0.3440009999999347
486,3,0.8,1.0,-35.0,-1,1.0,0.2742009999999482
487,3,0.8,0.0625,35.0,1,1.0,0.747101000000157
488,3,0.8,0.0625,-35.0,1,0.0,0.29060100000015154
489,3,0.8,0.125,-35.0,1,0.0,0.27080100000011953
490,3,0.8,1.0,-35.0,-1,1.0,0.350601000000097
491,3,0.8,0.25,35.0,1,1.0,0.35090100000002167
492,3,0.8,0.0625,-35.0,-1,1.0,0.44420100000002094
493,3,0.8,1.0,-35.0,-1,1.0,0.26480100000003404
494,3,0.8,0.0625,-35.0,1,0.0,0.3279009999998834
495,3,0.8,1.0,-35.0,-1,1.0,0.52470100000005
496,3,0.8,0.0625,35.0,1,1.0,0.30480100000022503
497,3,0.8,0.25,35.0,1,1.0,0.2549010000002454
498,3,0.8,0.25,-35.0,-1,1.0,0.26830100000006496
499,3,0.8,0.0625,-35.0,-1,1.0,0.6083010000002105
500,3,0.8,0.0625,-35.0,-1,1.0,0.47180100000014136
501,3,0.8,0.25,35.0,1,1.0,0.2585010000002512
502,3,0.8,1.0,-35.0,-1,1.0,0.44530100000019956
503,3,0.8,0.25,-35.0,-1,1.0,0.28870099999994636
504,3,0.8,1.0,35.0,1,1.0,0.2655010000000857
505,3,0.8,1.0,-35.0,-1,1.0,0.15560100000016064
506,3,0.8,0.0625,-35.0,-1,1.0,0.20220100000005914
507,3,0.8,1.0,-35.0,-1,1.0,0.3657010000001719
508,3,0.8,0.0,-35.0,1,0.0,0.45580100000006496
509,3,0.8,0.0625,-35.0,-1,1.0,0.2493010000000595
510,3,0.8,0.125,-35.0,-1,1.0,0.3659010000001217
511,3,0.8,1.0,35.0,1,1.0,0.2393010000000686
512,3,0.2,1.0,35.0,1,1.0,0.23610100000018974
513,3,0.2,0.0,35.0,1,1.0,0.36290100000019265
514,3,0.2,0.125,35.0,1,1.0,0.26640100000008715
515,3,0.2,1.0,35.0,1,1.0,0.26640100000008715
516,3,0.2,0.25,35.0,1,1.0,0.499800999999934
517,3,0.2,1.0,35.0,1,1.0,0.24640100000010534
518,3,0.2,1.0,35.0,1,1.0,0.15330100000005586
519,3,0.2,1.0,35.0,1,1.0,0.26000100000010207
520,3,0.2,0.0625,35.0,1,1.0,0.3736010000002352
521,3,0.2,1.0,-35.0,-1,1.0,0.29680100000018683
522,3,0.2,1.0,35.0,1,1.0,0.21020099999986996
523,3,0.2,1.0,35.0,1,1.0,0.25370100000031925
524,3,0.2,0.25,35.0,1,1.0,0.40390099999990525
525,3,0.2,0.125,35.0,1,1.0,0.28070100000013554
526,3,0.2,0.0625,35.0,1,1.0,0.4173009999999522
527,3,0.2,0.25,35.0,1,1.0,0.5474010000002636
528,3,0.2,0.0625,35.0,1,1.0,0.24760100000025886
529,3,0.2,1.0,35.0,1,1.0,0.2309010000001308
530,3,0.2,0.125,35.0,1,1.0,0.31090100000005805
531,3,0.2,0.0625,-35.0,-1,1.0,1.277800999999954
532,3,0.2,0.0625,35.0,-1,0.0,0.3312010000001919
533,3,0.2,0.25,35.0,1,1.0,0.32130099999994854
534,3,0.2,1.0,35.0,1,1.0,0.23480100000006132
535,3,0.2,1.0,35.0,1,1.0,0.22810100000015154
536,3,0.2,0.25,35.0,1,1.0,0.31160099999988233
537,3,0.2,0.0,-35.0,-1,1.0,0.37160100000005514
538,3,0.2,0.25,35.0,1,1.0,0.2417009999999209
539,3,0.2,0.125,35.0,1,1.0,0.2819010000000617
540,3,0.2,0.125,-35.0,-1,1.0,0.3586010000001352
541,3,0.2,0.125,35.0,1,1.0,0.25860099999999875
542,3,0.2,1.0,35.0,1,1.0,0.24870099999998274
543,3,0.2,0.25,35.0,1,1.0,0.238901000000169
544,3,0.2,0.125,35.0,1,1.0,0.2756010000000515
545,3,0.2,1.0,35.0,1,1.0,0.2457009999998263
546,3,0.2,1.0,-35.0,-1,1.0,0.4492010000001301
547,3,0.2,1.0,35.0,1,1.0,0.22260100000016791
548,3,0.2,0.25,35.0,1,1.0,0.2960010000001603
549,3,0.2,0.125,-35.0,1,0.0,0.6194010000001526
550,3,0.2,0.0625,35.0,1,1.0,0.2895009999999729
551,3,0.2,0.125,-35.0,1,0.0,0.24290100000007442
552,3,0.2,0.125,35.0,-1,0.0,0.019700999999940905
553,3,0.2,0.0,35.0,-1,0.0,0.24320100000022649
554,3,0.2,0.25,35.0,1,1.0,0.20660100000009152
555,3,0.2,0.25,35.0,1,1.0,0.22660100000007333
556,3,0.2,1.0,35.0,1,1.0,0.2034009999999853
557,3,0.2,0.0625,35.0,1,1.0,0.2601009999998496
558,3,0.2,0.25,35.0,1,1.0,0.22020100000008824
559,3,0.2,0.125,35.0,1,1.0,0.26700099999993654
560,3,0.2,0.125,35.0,1,1.0,0.36720100000002276
561,3,0.2,0.125,35.0,1,1.0,0.2872010000000955
562,3,0.2,0.0625,-35.0,-1,1.0,0.43390100000010534
563,3,0.2,0.125,35.0,-1,0.0,0.4806010000002061
564,3,0.2,0.0625,35.0,1,1.0,0.334201000000121
565,3,0.2,1.0,-35.0,-1,1.0,0.2108010000001741
566,3,0.2,1.0,35.0,1,1.0,0.5010010000003149
567,3,0.2,0.25,-35.0,-1,1.0,0.3210010000002512
568,3,0.2,0.25,35.0,1,1.0,0.3078010000001541
569,3,0.2,0.0625,35.0,1,1.0,0.7879010000001472
570,3,0.8,0.0625,-35.0,-1,1.0,0.298001000000113
571,3,0.8,0.25,-35.0,-1,1.0,0.6113010000001395
572,3,0.8,0.25,-35.0,-1,1.0,0.024801000000024942
573,3,0.8,0.125,-35.0,1,0.0,0.2551009999999678
574,3,0.8,1.0,-35.0,-1,1.0,0.5048009999998158
575,3,0.8,1.0,35.0,1,1.0,0.2919010000000526
576,3,0.8,0.0625,35.0,-1,0.0,0.5286009999999806
577,3,0.8,0.0625,35.0,-1,0.0,0.7125010000002021
578,3,0.8,0.0625,-35.0,-1,1.0,0.3757010000001628
579,3,0.8,0.0,35.0,1,1.0,1.3218010000000504
580,3,0.8,0.0625,-35.0,1,0.0,0.3621010000001661
581,3,0.8,0.125,-35.0,-1,1.0,0.33540100000004713
582,3,0.8,0.0625,35.0,1,1.0,0.25880000000006476
583,3,0.8,0.0625,-35.0,-1,1.0,4.42610099999979
584,3,0.8,0.125,-35.0,-1,1.0,2.932401000000027
585,3,0.8,1.0,-35.0,-1,1.0,0.3659010000001217
586,3,0.8,1.0,-35.0,-1,1.0,0.28290100000003804
587,3,0.8,0.125,-35.0,-1,1.0,0.5231009999999969
588,3,0.8,0.0,-35.0,-1,1.0,0.3427010000000337
589,3,0.8,1.0,-35.0,-1,1.0,3.723300999999992
590,3,0.2,0.0625,35.0,1,1.0,0.7732010000001992
591,3,0.2,1.0,35.0,1,1.0,0.3268009999999322
592,3,0.2,0.0625,35.0,1,1.0,0.34350100000006023
593,3,0.2,0.25,35.0,1,1.0,0.3000010000000657
594,3,0.2,1.0,35.0,1,1.0,0.34340100000008533
595,3,0.2,0.0625,35.0,1,1.0,0.80720099999985
596,3,0.2,0.0625,35.0,1,1.0,0.6676010000001042
597,3,0.2,0.25,35.0,1,1.0,0.4872009999999136
598,3,0.2,0.125,35.0,1,1.0,0.2973010000000613
599,3,0.2,0.125,35.0,1,1.0,0.41780100000005405
600,3,0.2,1.0,35.0,1,1.0,0.24420099999997547
601,3,0.2,0.25,35.0,1,1.0,0.24410100000000057
602,3,0.2,0.125,35.0,1,1.0,0.687701000000061
603,3,0.2,0.0,35.0,-1,0.0,0.031300999999984924
604,3,0.2,1.0,-35.0,-1,1.0,0.31440100000031634
605,3,0.2,1.0,35.0,1,1.0,0.33130099999993945
606,3,0.2,0.0625,35.0,1,1.0,0.7380009999999402
607,3,0.2,0.0,35.0,1,1.0,0.6619009999999435
608,3,0.2,0.125,35.0,1,1.0,0.04190099999959784
609,3,0.2,0.125,-35.0,-1,1.0,1.8718009999997776
610,3,0.2,1.0,-35.0,-1,1.0,0.20520099999976082
611,3,0.2,1.0,35.0,1,1.0,0.22530099999949016
612,3,0.2,0.125,35.0,1,1.0,0.2821009999997841
613,3,0.2,0.125,35.0,1,1.0,0.27880099999993035
614,3,0.2,0.125,35.0,1,1.0,0.2823009999997339
615,3,0.2,0.125,35.0,1,1.0,0.2090010000001712
616,3,0.2,1.0,35.0,1,1.0,0.23570100000006278
617,3,0.2,0.125,-35.0,-1,1.0,7.435800999999628
618,3,0.2,0.0,35.0,1,1.0,0.4162009999995462
619,3,0.2,0.0,-35.0,-1,1.0,0.6362009999998008
620,3,0.2,0.0625,35.0,1,1.0,0.34300100000018574
621,3,0.2,1.0,35.0,1,1.0,0.016400999999859778
622,3,0.2,0.0,35.0,-1,0.0,0.50320099999999
623,3,0.2,1.0,35.0,1,1.0,0.24000100000012026
624,3,0.2,0.25,35.0,1,1.0,0.226800999999341
625,3,0.2,0.125,35.0,1,1.0,0.3103009999999813
626,3,0.2,1.0,35.0,1,1.0,0.2669009999995069
627,3,0.2,1.0,35.0,1,1.0,0.18030099999987215
628,3,0.8,0.25,-35.0,-1,1.0,0.3706010000000788
629,3,0.8,0.125,-35.0,-1,1.0,0.31390099999953236
630,3,0.8,0.0625,-35.0,1,0.0,0.9540009999996073
631,3,0.8,0.25,-35.0,-1,1.0,0.32740100000000893
632,3,0.8,0.0625,35.0,1,1.0,0.36410099999966405
633,3,0.8,0.0625,-35.0,1,0.0,1.3541009999994458
634,3,0.8,0.0,-35.0,-1,1.0,0.42770100000007005
635,3,0.8,1.0,-35.0,-1,1.0,0.4513010000000577
636,3,0.8,0.0,35.0,-1,0.0,2.334501000000273
637,3,0.8,0.25,-35.0,-1,1.0,0.3080009999998765
638,3,0.8,0.0625,35.0,1,1.0,0.4481009999994967
639,3,0.8,0.125,-35.0,-1,1.0,0.4150009999998474
640,3,0.8,0.125,-35.0,-1,1.0,5.082000999999764
641,3,0.8,1.0,-35.0,-1,1.0,0.38210099999969316
642,3,0.8,0.0625,-35.0,-1,1.0,2.2421009999998205
643,3,0.8,0.125,-35.0,-1,1.0,4.018800999999712
644,3,0.8,0.0625,-35.0,-1,1.0,3.3924009999996088
645,3,0.8,0.125,-35.0,-1,1.0,0.34250099999962913
646,3,0.8,0.25,-35.0,-1,1.0,0.45270099999970626
647,3,0.8,0.0625,-35.0,-1,1.0,0.44930099999965023
648,3,0.8,0.0,-35.0,-1,1.0,2.982800999999654
649,3,0.8,0.125,-35.0,-1,1.0,0.28630099999918457
650,3,0.8,0.125,-35.0,-1,1.0,0.346400999999787
651,3,0.8,0.125,-35.0,-1,1.0,0.4864009999996597
652,3,0.8,0.25,35.0,1,1.0,0.28650100000004386
653,3,0.8,0.25,35.0,1,1.0,0.5366009999997914
654,3,0.8,0.25,35.0,1,1.0,0.2500009999998838
655,3,0.8,0.0625,35.0,1,1.0,0.3535009999995964
656,3,0.8,0.0,-35.0,1,0.0,10.77350099999967
657,3,0.8,0.125,-35.0,-1,1.0,0.4372009999997317
658,3,0.8,0.0625,-35.0,-1,1.0,0.3774009999997361
659,3,0.8,0.25,35.0,1,1.0,0.5441009999999551
660,3,0.8,0.0625,-35.0,-1,1.0,0.674200999999357
661,3,0.8,0.0625,-35.0,1,0.0,0.7909009999998489
662,3,0.8,0.125,-35.0,-1,1.0,0.45440099999996164
663,3,0.8,0.0625,-35.0,-1,1.0,0.47440099999994345
664,3,0.8,0.125,-35.0,-1,1.0,0.657901000000038
665,3,0.8,1.0,-35.0,-1,1.0,0.48800099999925806
666,3,0.8,0.0,-35.0,-1,1.0,4.974700999999641
667,3,0.8,0.0,-35.0,1,0.0,0.35830099999975573
668,3,0.8,0.0625,-35.0,1,0.0,3.641701000000012
669,3,0.8,0.125,-35.0,-1,1.0,3.191900999999689
670,3,0.8,0.125,-35.0,-1,1.0,0.8456009999999878
671,3,0.8,0.0625,-35.0,-1,1.0,0.31570099999999
672,3,0.8,0.125,-35.0,-1,1.0,0.35570099999995364
673,3,0.8,0.25,35.0,1,1.0,0.3524999999995089
674,3,0.8,1.0,-35.0,-1,1.0,0.6225009999993745
675,3,0.8,1.0,-35.0,-1,1.0,0.3559009999994487
676,3,0.8,0.0625,-35.0,-1,1.0,1.3361009999998714
677,3,0.8,1.0,-35.0,-1,1.0,0.4128009999999449
678,3,0.8,0.25,-35.0,-1,1.0,6.149601000000075
679,3,0.8,1.0,-35.0,-1,1.0,0.6065009999997528
680,3,0.8,1.0,-35.0,-1,1.0,0.5266010000000279
681,3,0.8,0.125,-35.0,-1,1.0,2.7668009999997594
682,3,0.8,0.25,35.0,1,1.0,0.37360099999978047
683,3,0.8,1.0,-35.0,-1,1.0,0.3869009999998525
684,3,0.8,0.125,-35.0,-1,1.0,0.48360099999945305
685,3,0.8,0.125,-35.0,-1,1.0,0.7803009999997812
686,3,0.8,0.25,35.0,1,1.0,0.4338009999996757
687,3,0.8,0.125,35.0,1,1.0,2.3507009999993898
688,3,0.8,0.0625,-35.0,1,0.0,0.4907010000001719
689,3,0.8,0.25,-35.0,-1,1.0,0.29100100000005114
690,3,0.8,1.0,-35.0,-1,1.0,0.3043009999996684
691,3,0.8,1.0,35.0,1,1.0,0.2910009999995964
692,3,0.8,0.25,-35.0,-1,1.0,0.4012009999996735
693,3,0.8,1.0,35.0,1,1.0,0.23790099999996528
694,3,0.8,0.25,-35.0,-1,1.0,0.534701000000041
695,3,0.2,1.0,35.0,1,1.0,0.2614010000002054
696,3,0.2,0.125,35.0,1,1.0,0.25820100000009916
697,3,0.2,0.125,35.0,1,1.0,0.798200999999608
698,3,0.2,1.0,35.0,1,1.0,0.26160099999970043
699,3,0.2,1.0,35.0,1,1.0,0.26840099999935774
700,3,0.2,0.125,-35.0,-1,1.0,0.28850099999999657
701,3,0.2,0.25,-35.0,1,0.0,0.21860099999958038
702,3,0.2,0.125,-35.0,1,0.0,0.19200099999989106
703,3,0.2,1.0,35.0,1,1.0,0.18560100000013335
704,3,0.2,1.0,35.0,1,1.0,0.21880099999998492
705,3,0.2,0.0625,35.0,1,1.0,0.22560099999964223
706,3,0.2,0.125,35.0,1,1.0,0.24920099999962986
707,3,0.2,0.25,-35.0,1,0.0,0.31580099999973754
708,3,0.2,1.0,35.0,1,1.0,0.2459009999997761
709,3,0.2,0.0625,35.0,1,1.0,0.24600099999952363
710,3,0.2,0.0,35.0,1,1.0,0.4494009999998525
711,3,0.2,0.125,35.0,1,1.0,0.3028009999998176
712,3,0.2,0.0625,35.0,1,1.0,0.32950099999970917
713,3,0.2,0.0,35.0,-1,0.0,0.34630099999958475
714,3,0.2,0.0625,35.0,1,1.0,0.263101000000006
715,3,0.2,0.125,35.0,1,1.0,0.28320099999973536
716,3,0.2,0.0,-35.0,1,0.0,0.3598009999996066
717,3,0.2,1.0,35.0,1,1.0,0.2767009999997754
718,3,0.2,1.0,-35.0,-1,1.0,0.12680099999943195
719,3,0.2,0.125,-35.0,1,0.0,0.3335010000000693
720,3,0.2,0.0625,35.0,1,1.0,0.3370009999998729
721,3,0.2,0.0,35.0,-1,0.0,0.40040099999987433
722,3,0.2,0.0625,35.0,1,1.0,0.2638010000000577
723,3,0.2,0.125,35.0,1,1.0,0.3172009999993861
724,3,0.2,0.0,-35.0,-1,1.0,3.707300999999916
725,3,0.8,0.0,-35.0,1,0.0,0.664100999999846
726,3,0.8,0.0625,-35.0,-1,1.0,0.3009009999996124
727,3,0.8,0.0625,-35.0,1,0.0,0.337601000000177
728,3,0.8,1.0,-35.0,-1,1.0,0.33780099999967206
729,3,0.8,0.25,-35.0,-1,1.0,1.8812009999996917
730,3,0.8,0.25,-35.0,-1,1.0,0.2647009999996044
731,3,0.8,0.125,-35.0,-1,1.0,2.504801000000043
732,3,0.8,1.0,-35.0,-1,1.0,0.2150010000000293
733,3,0.8,0.0625,-35.0,-1,1.0,0.4184009999994487
734,3,0.8,0.25,-35.0,-1,1.0,0.46860100000003513
735,3,0.8,0.125,-35.0,-1,1.0,2.3353010000000722
736,3,0.8,0.0625,35.0,1,1.0,0.2687009999995098
737,3,0.8,1.0,-35.0,-1,1.0,0.4255009999997128
738,3,0.8,0.125,-35.0,-1,1.0,0.5957009999997354
739,3,0.8,1.0,35.0,1,1.0,0.4656009999998787
740,3,0.8,1.0,-35.0,-1,1.0,0.46240099999977247
741,3,0.8,0.125,-35.0,-1,1.0,0.5958009999999376
742,3,0.8,0.25,-35.0,-1,1.0,1.6426010000000133
743,3,0.8,0.125,-35.0,-1,1.0,0.6059009999999034
744,3,0.8,0.125,-35.0,-1,1.0,0.5327009999996335
745,3,0.8,0.25,-35.0,-1,1.0,0.5728009999997994
746,3,0.8,0.125,-35.0,-1,1.0,0.07290100000000166
747,3,0.8,0.125,35.0,1,1.0,2.0962009999998372
748,3,0.8,1.0,-35.0,-1,1.0,2.157000999999582
749,3,0.8,0.0625,35.0,1,1.0,0.6733009999998103
750,3,0.8,0.25,-35.0,-1,1.0,0.07020099999954255
751,3,0.8,0.125,35.0,1,1.0,0.2835009999998874
752,3,0.8,0.25,-35.0,-1,1.0,0.18680099999983213
753,3,0.8,1.0,-35.0,-1,1.0,0.23680100000001403
754,3,0.8,0.0,-35.0,-1,1.0,0.2575010000000475
755,3,0.8,0.25,-35.0,-1,1.0,0.3306009999996604
756,3,0.8,0.0625,-35.0,-1,1.0,3.5439010000000053
757,3,0.8,0.0625,-35.0,-1,1.0,0.5806009999996604
758,3,0.8,0.0,-35.0,1,0.0,0.3407009999996262
759,3,0.8,1.0,35.0,1,1.0,0.2976009999993039
760,3,0.8,0.25,-35.0,-1,1.0,1.1645009999997455
761,3,0.8,0.125,-35.0,-1,1.0,0.4549010000000635
762,3,0.8,0.0625,-35.0,-1,1.0,0.7547009999998409
763,3,0.8,0.125,-35.0,-1,1.0,0.33450100000027305
764,3,0.8,1.0,-35.0,-1,1.0,0.41150100000004386
765,3,0.8,0.25,-35.0,-1,1.0,0.43800099999998565
766,3,0.8,0.25,-35.0,-1,1.0,0.52500099999952
767,3,0.8,0.125,-35.0,-1,1.0,0.008800999999948544
768,3,0.8,1.0,-35.0,-1,1.0,0.4484009999996488
769,3,0.8,0.0625,-35.0,-1,1.0,0.20170099999995728
770,3,0.8,0.0625,-35.0,-1,1.0,0.20850100000006933
771,3,0.8,1.0,-35.0,-1,1.0,0.47850100000005114
772,3,0.8,1.0,-35.0,-1,1.0,3.0555010000002767
773,3,0.8,0.25,35.0,1,1.0,0.28870099999994636
774,3,0.8,0.25,-35.0,-1,1.0,2.7423009999997703
775,3,0.8,0.0625,-35.0,-1,1.0,0.27620100000012826
776,3,0.8,0.0625,-35.0,-1,1.0,0.7958010000002105
777,3,0.8,0.25,-35.0,-1,1.0,0.25290099999983795
778,3,0.8,0.25,-35.0,-1,1.0,0.333100999999715
779,3,0.8,0.0625,35.0,-1,0.0,0.3394009999997252
780,3,0.8,0.25,35.0,-1,0.0,4.106701000000157
781,3,0.8,1.0,35.0,1,1.0,0.30340099999966696
782,3,0.8,0.0,-35.0,-1,1.0,3.286801000000196
783,3,0.8,0.125,-35.0,-1,1.0,0.08680099999946833
784,3,0.8,0.125,35.0,-1,0.0,3.0074009999998452
785,3,0.8,0.125,-35.0,-1,1.0,0.3541009999999005
786,3,0.8,0.25,-35.0,-1,1.0,2.950300999999854
787,3,0.8,0.125,-35.0,-1,1.0,3.664100999999846
788,3,0.8,0.125,-35.0,-1,1.0,2.990700999999717
789,3,0.8,0.25,-35.0,-1,1.0,8.244100999999773
790,3,0.8,0.25,-35.0,-1,1.0,3.6116009999996095
791,3,0.8,0.125,-35.0,-1,1.0,1.2282010000003538
792,3,0.8,1.0,-35.0,-1,1.0,0.7253009999999449
793,3,0.8,0.0625,-35.0,-1,1.0,8.291700999999648
794,3,0.8,1.0,-35.0,-1,1.0,0.35840099999950326
795,3,0.8,0.125,-35.0,-1,1.0,2.699200999999448
796,3,0.8,1.0,-35.0,-1,1.0,3.049000999999862
797,3,0.8,0.25,-35.0,-1,1.0,0.4391009999999369
798,3,0.8,1.0,35.0,1,1.0,0.3258009999995011
799,3,0.8,1.0,-35.0,-1,1.0,1.159100999999282
800,3,0.8,0.0625,35.0,-1,0.0,3.036200999999892
801,3,0.8,0.0625,-35.0,-1,1.0,9.69300099999964
802,3,0.8,0.125,-35.0,-1,1.0,4.1301009999997405
803,3,0.8,0.0,-35.0,-1,1.0,7.030100999999831
804,3,0.8,0.25,-35.0,-1,1.0,1.2470009999997274
805,3,0.8,0.25,35.0,1,1.0,0.5145010000001093
806,3,0.8,0.125,-35.0,-1,1.0,0.8674009999999726
807,3,0.8,0.0625,-35.0,-1,1.0,3.1077009999999063
808,3,0.8,0.125,-35.0,-1,1.0,1.9975009999998292
809,3,0.8,0.25,-35.0,-1,1.0,4.007700999999997
810,3,0.8,0.0625,35.0,1,1.0,8.347900999999638
811,3,0.8,0.125,-35.0,-1,1.0,2.348500999999942
812,3,0.8,0.0,-35.0,-1,1.0,4.391501000000062
1,4,0.5,1.0,35.0,1,1.0,0.3276999999999999
2,4,0.5,0.25,35.0,1,1.0,0.006899999999999462
3,4,0.5,0.25,-35.0,-1,1.0,0.2744
4,4,0.5,0.25,-35.0,-1,1.0,0.3493000000000013
5,4,0.5,0.125,35.0,1,1.0,0.3218999999999994
6,4,0.5,0.125,35.0,-1,0.0,0.1919000000000004
7,4,0.5,1.0,35.0,1,1.0,0.2582000000000022
8,4,0.5,0.125,-35.0,-1,1.0,0.5820000000000007
9,4,0.5,0.125,-35.0,-1,1.0,0.22030000000000172
10,4,0.5,1.0,-35.0,-1,1.0,0.9851999999999954
11,4,0.5,0.25,-35.0,-1,1.0,0.4143000000000008
12,4,0.5,0.0625,35.0,1,1.0,-0.0081999999999951
13,4,0.5,0.0,35.0,1,1.0,0.3282000000000025
14,4,0.5,0.0625,-35.0,-1,1.0,0.41040000000000276
15,4,0.5,1.0,35.0,1,1.0,0.21640000000000015
16,4,0.5,0.125,-35.0,-1,1.0,0.43130000000000024
17,4,0.5,1.0,35.0,1,1.0,0.21289999999999765
18,4,0.5,0.125,35.0,1,1.0,0.2511000000000081
19,4,0.5,0.0625,35.0,1,1.0,0.3778000000000006
20,4,0.5,0.25,35.0,1,1.0,0.154200000000003
21,4,0.5,0.0625,35.0,1,1.0,0.653100000000002
22,4,0.5,0.125,35.0,1,1.0,0.4416000000000011
23,4,0.5,0.0,-35.0,-1,1.0,0.13120000000000687
24,4,0.5,1.0,-35.0,1,0.0,0.20420000000000016
25,4,0.5,0.25,-35.0,-1,1.0,1.508499999999998
26,4,0.5,1.0,35.0,-1,0.0,-0.026199999999988677
27,4,0.5,0.125,35.0,1,1.0,0.26670000000000016
28,4,0.5,0.0625,-35.0,-1,1.0,2.2774
29,4,0.5,0.25,-35.0,-1,1.0,0.27240000000000464
30,4,0.5,0.25,35.0,1,1.0,0.2938999999999936
31,4,0.5,0.0625,-35.0,-1,1.0,0.4141000000000048
32,4,0.5,0.25,35.0,-1,0.0,0.377200000000002
33,4,0.5,0.0,-35.0,-1,1.0,1.768400000000014
34,4,0.5,1.0,-35.0,-1,1.0,0.23340000000000316
35,4,0.5,0.0625,35.0,-1,0.0,3.987099999999998
36,4,0.5,0.25,35.0,1,1.0,0.2710999999999899
37,4,0.5,0.0625,35.0,-1,0.0,0.22169999999999845
38,4,0.5,0.25,35.0,1,1.0,0.2583000000000055
39,4,0.5,0.125,35.0,1,1.0,0.4373999999999967
40,4,0.5,0.125,-35.0,-1,1.0,0.2787999999999613
41,4,0.5,0.125,-35.0,-1,1.0,0.21479999999996835
42,4,0.5,0.25,35.0,1,1.0,0.2675999999999874
43,4,0.5,0.25,35.0,1,1.0,0.252399999999966
44,4,0.5,0.0625,-35.0,-1,1.0,0.4683989999999767
45,4,0.5,0.125,35.0,-1,0.0,0.25499999999996703
46,4,0.5,0.125,-35.0,1,0.0,0.3188000000000102
47,4,0.5,0.25,-35.0,-1,1.0,0.2571999999999832
48,4,0.5,0.0625,-35.0,-1,1.0,0.2646000000000015
49,4,0.5,1.0,-35.0,-1,1.0,0.14649999999997476
50,4,0.5,0.0625,-35.0,-1,1.0,0.21779999999995425
51,4,0.5,0.25,-35.0,-1,1.0,0.23459999999997194
52,4,0.5,0.25,35.0,1,1.0,0.40149999999999864
53,4,0.5,0.125,-35.0,-1,1.0,0.4263999999999726
54,4,0.5,0.125,35.0,1,1.0,0.3442999999999756
55,4,0.5,0.25,35.0,1,1.0,0.3109999999999786
56,4,0.5,0.125,35.0,-1,0.0,2.6677999999999997
57,4,0.5,0.25,-35.0,-1,1.0,0.16480000000001382
58,4,0.5,0.25,-35.0,-1,1.0,0.7811999999999841
59,4,0.5,0.0625,-35.0,-1,1.0,4.13979999999998
60,4,0.5,1.0,35.0,1,1.0,0.3421999999999912
61,4,0.5,0.25,-35.0,-1,1.0,0.41799999999997794
62,4,0.5,0.0625,35.0,1,1.0,0.6383999999999901
63,4,0.5,0.25,35.0,1,1.0,0.24279999999998836
64,4,0.5,0.0,-35.0,-1,1.0,2.0919999999999845
65,4,0.5,0.0625,-35.0,-1,1.0,0.2102999999999895
66,4,0.5,1.0,35.0,1,1.0,0.21649999999999636
67,4,0.5,0.0625,-35.0,-1,1.0,0.44309999999998695
68,4,0.5,0.25,35.0,1,1.0,0.22649999999998727
69,4,0.5,0.125,35.0,1,1.0,0.29189999999999827
70,4,0.5,0.0625,35.0,-1,0.0,0.21109999999998763
71,4,0.5,0.125,-35.0,1,0.0,0.2779999999999916
72,4,0.5,0.125,-35.0,-1,1.0,4.078999999999979
73,4,0.5,1.0,35.0,1,1.0,0.2225999999999715
74,4,0.5,0.0625,-35.0,-1,1.0,0.567499999999967
75,4,0.5,0.125,35.0,1,1.0,0.3055999999999983
76,4,0.5,0.25,-35.0,-1,1.0,0.19769999999999754
77,4,0.5,1.0,35.0,1,1.0,0.2207000000000221
78,4,0.5,0.25,-35.0,-1,1.0,0.14279999999996562
79,4,0.5,1.0,35.0,1,1.0,0.2547999999999888
80,4,0.5,1.0,-35.0,-1,1.0,0.17790000000002237
81,4,0.5,0.25,35.0,1,1.0,0.2512999999999579
82,4,0.5,0.0625,35.0,-1,0.0,0.186300000000017
83,4,0.5,0.25,-35.0,-1,1.0,0.094600000000014
84,4,0.5,0.25,-35.0,-1,1.0,0.27580000000006066
85,4,0.5,1.0,-35.0,-1,1.0,0.1412000000000262
86,4,0.5,0.0,35.0,1,1.0,0.3455000000000723
87,4,0.5,0.125,35.0,1,1.0,0.25560000000001537
88,4,0.5,0.125,-35.0,-1,1.0,0.2486000000000672
89,4,0.5,0.0,35.0,1,1.0,0.275600000000054
90,4,0.5,1.0,35.0,1,1.0,0.22430000000002792
91,4,0.8,1.0,-35.0,-1,1.0,0.18590000000000373
92,4,0.8,0.0,-35.0,-1,1.0,0.13519999999999754
93,4,0.8,0.125,-35.0,-1,1.0,0.13949999999999818
94,4,0.8,0.125,-35.0,1,0.0,0.17700000000002092
95,4,0.8,0.25,-35.0,-1,1.0,0.39890000000008285
96,4,0.8,0.25,-35.0,-1,1.0,0.15190000000001191
97,4,0.8,1.0,-35.0,-1,1.0,0.23599999999999
98,4,0.8,0.25,35.0,1,1.0,0.2884000000000242
99,4,0.8,0.25,-35.0,-1,1.0,0.20420000000001437
100,4,0.8,0.25,35.0,-1,0.0,0.17490000000003647
101,4,0.8,0.0625,35.0,-1,0.0,0.350400000000036
102,4,0.8,0.125,-35.0,-1,1.0,0.25020000000000664
103,4,0.8,0.125,-35.0,-1,1.0,0.22640000000001237
104,4,0.8,1.0,-35.0,-1,1.0,0.20659999999998035
105,4,0.8,0.125,-35.0,-1,1.0,0.17480000000000473
106,4,0.8,0.125,-35.0,-1,1.0,0.18900000000002137
107,4,0.8,0.0625,35.0,-1,0.0,0.20610000000004902
108,4,0.8,0.125,35.0,-1,0.0,0.18890000000004648
109,4,0.8,0.125,35.0,1,1.0,0.6152999999999906
110,4,0.8,1.0,-35.0,-1,1.0,0.18310000000002447
111,4,0.8,0.25,-35.0,-1,1.0,0.2784000000000333
112,4,0.8,0.0625,-35.0,-1,1.0,0.2446000000000481
113,4,0.8,0.0,-35.0,-1,1.0,0.11650000000003047
114,4,0.8,0.0625,-35.0,-1,1.0,0.1541000000000281
115,4,0.8,1.0,-35.0,-1,1.0,0.28010000000000446
116,4,0.8,0.125,-35.0,-1,1.0,0.2276000000000522
117,4,0.8,0.0625,35.0,-1,0.0,0.23380000000003065
118,4,0.8,1.0,-35.0,-1,1.0,0.25430000000000064
119,4,0.8,0.25,-35.0,-1,1.0,0.29570000000001073
120,4,0.8,0.125,-35.0,-1,1.0,0.26240000000001373
121,4,0.8,0.25,-35.0,-1,1.0,0.24760000000003402
122,4,0.8,0.125,-35.0,-1,1.0,0.24139999999999873
123,4,0.8,0.0,35.0,-1,0.0,0.20889999999997144
124,4,0.8,0.0,-35.0,-1,1.0,0.3157000000000494
125,4,0.8,0.25,-35.0,-1,1.0,0.20420000000001437
126,4,0.8,1.0,-35.0,-1,1.0,0.2277000000000271
127,4,0.8,0.25,-35.0,-1,1.0,0.2574000000000183
128,4,0.8,0.125,35.0,1,1.0,0.4309000000000083
129,4,0.8,0.25,-35.0,-1,1.0,0.209699999999998
130,4,0.8,0.0,-35.0,-1,1.0,0.24640000000005102
131,4,0.8,0.0625,-35.0,-1,1.0,0.36850000000004
132,4,0.8,0.25,-35.0,-1,1.0,0.5277000000000385
133,4,0.8,0.25,-35.0,-1,1.0,0.26130000000000564
134,4,0.8,0.25,-35.0,-1,1.0,0.020400000000051932
135,4,0.8,0.0625,-35.0,-1,1.0,0.29620000000005575
136,4,0.2,0.125,35.0,-1,0.0,0.46150000000005775
137,4,0.2,1.0,-35.0,-1,1.0,0.26000000000004775
138,4,0.2,0.125,35.0,1,1.0,0.37510000000003174
139,4,0.2,0.125,35.0,-1,0.0,0.204400000000021
140,4,0.2,0.0625,35.0,1,1.0,0.3204000000000633
141,4,0.2,0.125,35.0,-1,0.0,0.2066000000000372
142,4,0.2,1.0,35.0,1,1.0,1.1058000000000447
143,4,0.2,0.125,35.0,1,1.0,0.5474000000000387
144,4,0.2,0.0,35.0,-1,0.0,2.529699999999991
145,4,0.2,0.0,35.0,-1,0.0,0.11469999999997071
146,4,0.2,0.0,35.0,1,1.0,1.2012999999999465
147,4,0.2,1.0,35.0,1,1.0,0.2606999999999857
148,4,0.2,0.25,35.0,1,1.0,0.4747000000000412
149,4,0.2,0.0625,-35.0,-1,1.0,4.264800000000037
150,4,0.2,0.0625,35.0,-1,0.0,0.09409899999997151
151,4,0.2,0.0625,35.0,-1,0.0,0.18279999999998608
152,4,0.2,0.0,35.0,-1,0.0,0.18950000000000955
153,4,0.2,0.0,35.0,-1,0.0,0.5047000000000139
154,4,0.2,0.0,35.0,-1,0.0,1.4680000000000746
155,4,0.2,0.0625,-35.0,-1,1.0,0.3257000000000403
156,4,0.2,0.0625,-35.0,-1,1.0,0.18189999999992779
157,4,0.2,0.0,35.0,-1,0.0,0.1836999999999307
158,4,0.2,0.125,35.0,1,1.0,0.2604999999998654
159,4,0.2,0.0625,35.0,1,1.0,0.296100000000024
160,4,0.2,0.125,35.0,1,1.0,0.2767999999999802
161,4,0.2,1.0,35.0,1,1.0,0.24899999999990996
162,4,0.2,0.125,35.0,1,1.0,0.43499999999994543
163,4,0.2,0.25,35.0,1,1.0,0.3409000000000333
164,4,0.2,0.0625,35.0,-1,0.0,2.603399999999965
165,4,0.2,1.0,35.0,1,1.0,0.2705999999999449
166,4,0.2,0.25,35.0,1,1.0,0.24259999999992488
167,4,0.2,0.0625,35.0,1,1.0,0.2903999999999769
168,4,0.2,0.125,35.0,1,1.0,0.8701999999999543
169,4,0.2,1.0,35.0,1,1.0,0.2545999999999822
170,4,0.2,1.0,-35.0,-1,1.0,0.2946000000000595
171,4,0.2,1.0,35.0,1,1.0,0.27499999999997726
172,4,0.2,0.0,35.0,-1,0.0,3.5116999999999052
173,4,0.2,0.125,-35.0,-1,1.0,0.20849999999995816
174,4,0.2,0.125,-35.0,-1,1.0,0.15059999999994034
175,4,0.2,0.25,35.0,1,1.0,0.2525989999999183
176,4,0.2,1.0,-35.0,-1,1.0,0.2748999999998887
177,4,0.2,0.0625,35.0,1,1.0,3.3611000000000786
178,4,0.2,0.25,35.0,-1,0.0,0.23749999999984084
179,4,0.2,0.125,35.0,1,1.0,0.27689999999995507
180,4,0.2,0.25,-35.0,-1,1.0,0.23119999999994434
181,4,0.2,1.0,35.0,1,1.0,0.24719999999990705
182,4,0.2,0.25,35.0,-1,0.0,0.24069999999994707
183,4,0.2,0.0625,-35.0,-1,1.0,0.2562000000000353
184,4,0.2,0.0625,35.0,-1,0.0,2.1965000000000146
185,4,0.2,1.0,35.0,1,1.0,0.2527999999998656
186,4,0.2,1.0,35.0,1,1.0,0.2606999999999289
187,4,0.2,0.25,35.0,1,1.0,0.3886999999999716
188,4,0.2,1.0,-35.0,-1,1.0,0.24439999999992779
189,4,0.2,1.0,-35.0,-1,1.0,0.29920000000004165
190,4,0.2,1.0,35.0,1,1.0,0.20819999999991978
191,4,0.2,0.125,35.0,-1,0.0,0.19899999999995543
192,4,0.8,1.0,35.0,1,1.0,0.3006000000000313
193,4,0.8,0.0625,-35.0,-1,1.0,0.19829999999990378
194,4,0.8,1.0,-35.0,-1,1.0,0.17869999999993524
195,4,0.8,1.0,35.0,1,1.0,0.5531999999999471
196,4,0.8,1.0,-35.0,-1,1.0,0.165300000000002
197,4,0.8,0.0625,-35.0,-1,1.0,0.3651999999998452
198,4,0.8,0.125,-35.0,1,0.0,0.17419999999992797
199,4,0.8,0.0625,-35.0,-1,1.0,0.5831000000000586
200,4,0.8,1.0,35.0,1,1.0,0.296799999999962
201,4,0.8,0.25,-35.0,-1,1.0,0.24729999999999563
202,4,0.8,0.0625,35.0,-1,0.0,0.36779999999998836
203,4,0.8,0.125,-35.0,-1,1.0,0.5132999999998447
204,4,0.8,0.125,-35.0,-1,1.0,0.22050000000001546
205,4,0.8,1.0,-35.0,-1,1.0,0.29509999999993397
206,4,0.8,0.25,-35.0,-1,1.0,0.28919999999993706
207,4,0.8,1.0,35.0,1,1.0,0.3663999999999987
208,4,0.8,0.0625,-35.0,-1,1.0,0.18899999999985084
209,4,0.8,0.125,-35.0,-1,1.0,0.21719999999993433
210,4,0.8,0.0625,-35.0,-1,1.0,0.21249999999986358
211,4,0.8,0.25,-35.0,-1,1.0,0.09679999999991651
212,4,0.8,1.0,-35.0,-1,1.0,0.056500000000028194
213,4,0.2,1.0,-35.0,-1,1.0,0.17099999999993543
214,4,0.2,0.125,35.0,-1,0.0,0.3102999999999838
215,4,0.2,0.25,35.0,1,1.0,0.42029999999999745
216,4,0.2,0.0625,35.0,-1,0.0,0.20639999999991687
217,4,0.2,0.25,35.0,1,1.0,0.24169999999992342
218,4,0.2,0.0,35.0,-1,0.0,0.24989999999991142
219,4,0.2,0.125,35.0,-1,0.0,0.19050000000004275
220,4,0.2,0.25,35.0,-1,0.0,0.047700000000077125
221,4,0.2,0.125,35.0,1,1.0,0.3004999999999427
222,4,0.2,1.0,35.0,1,1.0,0.10989999999992506
223,4,0.2,1.0,35.0,1,1.0,0.23500000000001364
224,4,0.2,0.125,-35.0,-1,1.0,0.1960999999998876
225,4,0.2,0.125,-35.0,1,0.0,0.2439999999999145
226,4,0.2,0.0625,35.0,-1,0.0,0.22419999999999618
227,4,0.2,0.25,35.0,1,1.0,0.2180999999999358
228,4,0.2,0.125,35.0,1,1.0,0.393799999999942
229,4,0.2,1.0,35.0,1,1.0,0.22519999999997253
230,4,0.2,1.0,35.0,1,1.0,0.21730000000002292
231,4,0.2,0.125,35.0,1,1.0,0.22439999999994598
232,4,0.2,0.125,35.0,1,1.0,0.24349999999992633
233,4,0.2,0.0625,-35.0,1,0.0,0.22499999999990905
234,4,0.2,0.125,35.0,1,1.0,0.2980000000000018
235,4,0.2,0.25,35.0,1,1.0,0.2421999999999116
236,4,0.2,0.125,35.0,1,1.0,0.35560000000009495
237,4,0.2,0.0,35.0,1,1.0,0.24859999999989668
238,4,0.2,0.0,-35.0,1,0.0,0.19209999999998217
239,4,0.2,0.125,35.0,1,1.0,0.25309999999990396
240,4,0.2,0.125,35.0,-1,0.0,0.23340000000007421
241,4,0.2,0.125,-35.0,-1,1.0,0.24139999999999873
242,4,0.2,0.0625,-35.0,-1,1.0,0.3585999999999103
243,4,0.2,0.125,-35.0,-1,1.0,0.2518000000000029
244,4,0.2,0.0625,-35.0,-1,1.0,0.25530000000003383
245,4,0.2,0.25,35.0,1,1.0,0.42709999999988213
246,4,0.2,1.0,35.0,1,1.0,0.23649999999986449
247,4,0.2,0.25,35.0,1,1.0,0.25
248,4,0.2,0.0,35.0,1,1.0,0.2278999999999769
249,4,0.2,0.125,35.0,-1,0.0,0.18709999999998672
250,4,0.2,0.0625,35.0,1,1.0,0.3736999999998716
251,4,0.2,0.0625,35.0,1,1.0,0.3085999999999558
252,4,0.2,0.125,35.0,1,1.0,0.45299999999997453
253,4,0.2,0.25,35.0,1,1.0,0.23349999999993543
254,4,0.2,0.125,-35.0,-1,1.0,0.16109999999991942
255,4,0.8,0.25,35.0,1,1.0,0.2502999999999247
256,4,0.8,0.25,-35.0,-1,1.0,0.24080000000003565
257,4,0.8,0.0625,-35.0,-1,1.0,0.26569999999992433
258,4,0.8,0.0,-35.0,-1,1.0,0.18289999999990414
259,4,0.8,0.0625,-35.0,1,0.0,0.36009999999987485
260,4,0.8,0.0625,-35.0,-1,1.0,0.2716000000000349
261,4,0.8,0.25,-35.0,-1,1.0,0.2623999999999569
262,4,0.8,0.0,35.0,-1,0.0,0.19539999999994961
263,4,0.8,0.25,-35.0,-1,1.0,0.22650000000010095
264,4,0.8,1.0,35.0,1,1.0,0.26350000000002183
265,4,0.8,0.0625,-35.0,-1,1.0,0.12269999999989523
266,4,0.8,1.0,-35.0,-1,1.0,0.2296000000000049
267,4,0.8,0.0625,-35.0,-1,1.0,0.15200000000004366
268,4,0.8,0.25,-35.0,-1,1.0,0.2727999999999611
