trial_num,session_num,stim_probability_left,contrast,position,response_choice,trial_correct,reaction_time
1,31,0.5,0.0,35.0,-1,0.0,9.7653
2,31,0.5,0.0625,-35.0,-1,1.0,0.472999999999999
3,31,0.5,0.25,-35.0,-1,1.0,0.25209999999999866
4,31,0.5,0.125,35.0,1,1.0,0.4049999999999976
5,31,0.5,0.0625,35.0,-1,0.0,0.1135999999999946
6,31,0.5,0.125,35.0,1,1.0,0.3104000000000049
7,31,0.5,0.125,-35.0,-1,1.0,0.19899999999999807
8,31,0.5,0.25,-35.0,-1,1.0,0.20879999999999654
9,31,0.5,0.125,-35.0,-1,1.0,0.25909999999999656
10,31,0.5,0.25,35.0,-1,0.0,0.154200000000003
11,31,0.5,0.25,-35.0,-1,1.0,0.12529999999999575
12,31,0.5,0.25,35.0,1,1.0,0.2907999999999973
13,31,0.5,0.0,35.0,1,1.0,0.3522999999999996
14,31,0.5,0.0625,-35.0,-1,1.0,0.2978000000000023
15,31,0.5,0.25,-35.0,-1,1.0,0.6115999999999957
16,31,0.5,0.0,-35.0,1,0.0,0.3941999999999979
17,31,0.5,0.125,-35.0,-1,1.0,1.7188000000000017
18,31,0.5,0.0625,35.0,1,1.0,0.40040000000000475
19,31,0.5,1.0,35.0,1,1.0,0.11459999999999582
20,31,0.5,0.0625,35.0,1,1.0,0.18700000000001182
21,31,0.5,1.0,-35.0,-1,1.0,0.248800000000017
22,31,0.5,0.125,35.0,1,1.0,0.3382000000000005
23,31,0.5,0.25,35.0,1,1.0,0.10200000000000387
24,31,0.5,1.0,-35.0,-1,1.0,0.3078000000000003
25,31,0.5,0.125,-35.0,-1,1.0,0.18150000000001398
26,31,0.5,0.125,-35.0,-1,1.0,0.24090000000001055
27,31,0.5,0.0,-35.0,1,0.0,0.4386000000000081
28,31,0.6,0.0,35.0,-1,0.0,0.17790000000000816
29,31,0.5,1.0,35.0,1,1.0,0.33270000000001687
30,31,0.5,0.25,35.0,1,1.0,0.4046999999999912
31,31,0.5,0.0625,-35.0,-1,1.0,0.34610000000000696
32,31,0.5,0.25,-35.0,-1,1.0,0.2944999999999993
33,31,0.5,0.125,35.0,1,1.0,0.41800000000000637
34,31,0.5,0.25,-35.0,-1,1.0,0.27189999999998804
35,31,0.5,0.25,35.0,1,1.0,0.41379999999998063
36,31,0.5,0.125,35.0,1,1.0,0.2342999999999904
37,31,0.5,0.0,-35.0,1,0.0,0.9408999999999992
38,31,0.5,0.0,35.0,1,1.0,0.342899999999986
39,31,0.5,0.25,35.0,1,1.0,0.2796999999999912
40,31,0.5,0.125,35.0,1,1.0,0.29189999999999827
41,31,0.5,0.25,-35.0,-1,1.0,0.19149999999999068
42,31,0.5,1.0,35.0,1,1.0,0.45810000000000173
43,31,0.5,0.0625,-35.0,-1,1.0,0.2798999999999978
44,31,0.5,0.0625,35.0,-1,0.0,0.12000000000000455
45,31,0.5,0.25,35.0,1,1.0,0.5178000000000225
46,31,0.5,1.0,-35.0,-1,1.0,0.16249999999999432
47,31,0.5,1.0,-35.0,-1,1.0,0.22069999999996526
48,31,0.5,1.0,35.0,1,1.0,0.40279999999998495
49,31,0.5,0.25,-35.0,-1,1.0,0.27600000000001046
50,31,0.5,1.0,-35.0,-1,1.0,0.1384999999999934
51,31,0.5,0.125,35.0,1,1.0,0.2180999999999642
52,31,0.5,0.0625,35.0,1,1.0,0.21889999999999077
53,31,0.5,0.0,-35.0,-1,1.0,0.10810000000000741
54,31,0.5,0.125,35.0,1,1.0,0.3976000000000113
55,31,0.5,0.0625,-35.0,-1,1.0,0.1039000000000101
56,31,0.5,0.25,35.0,-1,0.0,0.11000000000001364
57,31,0.4,0.25,35.0,1,1.0,0.32740000000001146
58,31,0.5,1.0,35.0,1,1.0,0.23109999999999786
59,31,0.5,0.25,-35.0,-1,1.0,0.22649999999998727
60,31,0.5,0.125,35.0,1,1.0,0.3819999999999766
61,31,0.5,0.125,-35.0,1,0.0,0.16059999999998809
62,31,0.6,0.125,35.0,1,1.0,0.2289000000000101
63,31,0.5,1.0,-35.0,-1,1.0,0.23339999999998895
64,31,0.5,0.25,-35.0,-1,1.0,0.6085999999999956
65,31,0.5,0.25,35.0,1,1.0,0.29340000000001965
66,31,0.5,0.0,35.0,1,1.0,0.42460000000005493
67,31,0.5,0.25,-35.0,-1,1.0,0.16430000000002565
68,31,0.5,0.0,-35.0,1,0.0,0.5030999999999608
69,31,0.5,0.25,35.0,1,1.0,0.3761000000000081
70,31,0.5,1.0,35.0,1,1.0,0.20500000000004093
71,31,0.5,0.25,35.0,1,1.0,0.24600000000003774
72,31,0.5,0.125,-35.0,-1,1.0,0.10330000000004702
73,31,0.5,0.25,-35.0,-1,1.0,0.2848000000000752
74,31,0.5,0.0625,35.0,1,1.0,1.6157999999999788
75,31,0.5,0.125,-35.0,-1,1.0,0.211400000000026
76,31,0.5,0.0,-35.0,1,0.0,0.255800000000022
77,31,0.5,0.125,-35.0,-1,1.0,0.26890000000003056
78,31,0.5,1.0,35.0,1,1.0,0.21920000000000073
79,31,0.5,0.0625,35.0,1,1.0,0.620900000000006
80,31,0.5,0.25,-35.0,-1,1.0,0.1967999999999961
81,31,0.5,1.0,-35.0,-1,1.0,0.26740000000006603
82,31,0.5,0.125,-35.0,-1,1.0,0.2830000000000723
83,31,0.5,0.0,-35.0,1,0.0,0.18259999999997945
84,31,0.5,0.0,-35.0,1,0.0,0.35370000000000346
85,31,0.5,1.0,-35.0,-1,1.0,0.2084000000000401
86,31,0.5,0.0,-35.0,-1,1.0,0.6899000000000228
87,31,0.5,0.125,-35.0,-1,1.0,0.35000000000002274
88,31,0.5,0.0625,35.0,1,1.0,3.3951000000000136
89,31,0.5,1.0,35.0,1,1.0,0.467899999999986
90,31,0.5,0.25,-35.0,-1,1.0,0.12130000000001928
91,31,0.5,0.25,-35.0,-1,1.0,0.3363000000000511
92,31,0.5,1.0,-35.0,1,0.0,0.468400000000031
93,31,0.5,0.25,35.0,1,1.0,0.3293000000000461
94,31,0.5,0.125,-35.0,-1,1.0,0.3682000000000585
95,31,0.5,0.25,35.0,1,1.0,0.5600000000000591
96,31,0.5,0.25,-35.0,-1,1.0,0.27290000000004966
97,31,0.5,1.0,35.0,-1,0.0,0.21949999999998226
98,31,0.5,1.0,35.0,1,1.0,0.2746999999999957
99,31,0.5,1.0,-35.0,-1,1.0,0.4654000000000451
100,31,0.5,0.0625,-35.0,-1,1.0,0.42730000000000246
101,31,0.5,0.0625,-35.0,1,0.0,0.27019999999998845
102,31,0.5,0.25,-35.0,-1,1.0,0.2948000000000093
103,31,0.5,0.0625,-35.0,-1,1.0,0.31340000000000146
104,31,0.5,0.0625,-35.0,-1,1.0,0.29330000000004475
105,31,0.5,1.0,-35.0,-1,1.0,0.14570000000003347
106,31,0.5,0.125,-35.0,1,0.0,2.7565999999999917
107,31,0.5,0.125,-35.0,-1,1.0,0.2317000000000462
108,31,0.5,0.0625,-35.0,-1,1.0,0.42140000000000555
109,31,0.5,1.0,35.0,1,1.0,0.29430000000007794
110,31,0.5,0.0625,35.0,-1,0.0,0.1218000000000643
111,31,0.5,0.125,-35.0,-1,1.0,0.3421000000000163
112,31,0.5,0.0625,-35.0,-1,1.0,0.32840000000004466
113,31,0.5,0.25,35.0,-1,0.0,0.11089999999995825
114,31,0.5,0.125,35.0,1,1.0,0.34159999999997126
115,31,0.5,0.125,-35.0,-1,1.0,0.1208000000000311
116,31,0.5,0.125,-35.0,-1,1.0,0.13100000000002865
117,31,0.5,1.0,35.0,1,1.0,0.2329000000000292
118,31,0.5,1.0,-35.0,1,0.0,0.15379999999998972
119,31,0.5,0.25,35.0,1,1.0,0.36280000000004975
120,31,0.5,0.0,35.0,1,1.0,0.2909999999999968
121,31,0.5,0.125,35.0,1,1.0,0.502200000000073
122,31,0.5,1.0,35.0,1,1.0,0.3797000000000139
123,31,0.5,1.0,35.0,1,1.0,0.17379999999997153
124,31,0.5,0.25,35.0,1,1.0,0.6217000000000326
125,31,0.5,0.125,-35.0,-1,1.0,0.26590000000004466
126,31,0.5,0.125,35.0,1,1.0,0.22430000000002792
127,31,0.5,0.0625,35.0,-1,0.0,1.7305000000000064
128,31,0.8,0.0625,-35.0,-1,1.0,0.2995000000000232
129,31,0.5,1.0,-35.0,-1,1.0,0.30299999999999727
130,31,0.5,1.0,-35.0,-1,1.0,0.13779999999997017
131,31,0.5,1.0,-35.0,-1,1.0,0.3447999999999638
132,31,0.5,1.0,35.0,1,1.0,0.6617999999998574
133,31,0.5,0.0625,35.0,-1,0.0,0.11599999999998545
134,31,0.3,0.0625,35.0,-1,0.0,0.16669999999987795
135,31,0.5,1.0,35.0,1,1.0,0.2864999999999327
136,31,0.5,0.0,35.0,-1,0.0,0.3485999999999194
137,31,0.5,0.25,35.0,1,1.0,0.49320000000000164
138,31,0.5,0.0,35.0,-1,0.0,3.045599999999922
139,31,0.5,0.0,35.0,1,1.0,0.1027000000000271
140,31,0.5,0.0,-35.0,1,0.0,0.9138999999998987
141,31,0.5,0.25,-35.0,1,0.0,0.3264999999998963
142,31,0.6,0.25,35.0,1,1.0,0.38819999999998345
143,31,0.5,1.0,35.0,1,1.0,0.21739999999999782
144,31,0.5,0.0,35.0,1,1.0,1.6184000000000651
145,31,0.5,0.125,-35.0,1,0.0,0.5427999999999429
146,31,0.5,0.0625,35.0,1,1.0,0.37819999999999254
147,31,0.5,0.0625,35.0,1,1.0,0.30299999999999727
148,31,0.5,0.0625,35.0,1,1.0,0.43479999999988195
149,31,0.5,1.0,-35.0,-1,1.0,0.2640999999999849
150,31,0.5,0.125,-35.0,-1,1.0,0.2806000000000495
151,31,0.5,0.0625,35.0,1,1.0,0.3649000000000342
152,31,0.5,0.125,35.0,1,1.0,0.28919999999993706
153,31,0.5,0.125,35.0,-1,0.0,0.10099999999999909
154,31,0.5,0.0625,-35.0,-1,1.0,0.2845999999999549
155,31,0.5,0.125,-35.0,-1,1.0,0.1778999999999087
156,31,0.5,1.0,35.0,1,1.0,0.40079999999989013
157,31,0.5,0.0,35.0,1,1.0,0.33539999999993597
158,31,0.5,0.125,35.0,-1,0.0,0.12869999999986703
159,31,0.5,0.25,-35.0,-1,1.0,0.5407999999998765
160,31,0.5,0.0625,35.0,-1,0.0,0.8567999999999074
161,31,0.5,0.125,-35.0,-1,1.0,0.3342000000000098
162,31,0.5,0.25,-35.0,-1,1.0,0.21310000000005402
163,31,0.5,0.25,-35.0,-1,1.0,0.14689999999995962
164,31,0.5,0.0625,-35.0,-1,1.0,0.48880000000008295
165,31,0.5,1.0,-35.0,1,0.0,0.1332999999999629
166,31,0.5,0.25,35.0,1,1.0,0.24680000000000746
167,31,0.5,0.125,-35.0,-1,1.0,0.5448999999998705
168,31,0.5,0.0,-35.0,-1,1.0,2.0979999999999563
169,31,0.5,0.0,35.0,1,1.0,0.24069999999994707
170,31,0.5,0.0,-35.0,-1,1.0,0.10789999999997235
171,31,0.5,0.0625,-35.0,1,0.0,0.2780999999998812
172,31,0.5,0.25,-35.0,-1,1.0,0.09570000000007894
173,31,0.5,0.0625,35.0,-1,0.0,0.098700000000008
174,31,0.5,0.25,35.0,-1,0.0,0.38049999999998363
175,31,0.5,0.25,35.0,-1,0.0,0.4679999999999609
176,31,0.5,0.25,35.0,1,1.0,0.33789999999999054
177,31,0.5,1.0,35.0,1,1.0,0.40259999999989304
178,31,0.5,0.125,-35.0,-1,1.0,0.5099999999999909
179,31,0.5,0.0625,35.0,1,1.0,2.1650999999999385
180,31,0.5,0.0625,35.0,1,1.0,0.7242999999999711
181,31,0.5,0.0625,-35.0,-1,1.0,0.10529999999994288
182,31,0.5,1.0,35.0,-1,0.0,0.12409999999999854
183,31,0.5,0.0625,35.0,1,1.0,0.4014999999999418
184,31,0.5,0.25,-35.0,-1,1.0,0.47319999999990614
185,31,0.5,0.0,-35.0,1,0.0,0.3854999999998654
186,31,0.6,0.0,35.0,1,1.0,2.126399999999876
187,31,0.5,1.0,-35.0,-1,1.0,0.2665999999999258
188,31,0.5,0.0625,-35.0,-1,1.0,3.318399999999997
189,31,0.5,0.0,35.0,1,1.0,0.21270000000004075
190,31,0.5,0.125,35.0,1,1.0,0.1713999999999487
191,31,0.5,0.0,35.0,1,1.0,0.5871999999999389
192,31,0.5,0.0625,-35.0,-1,1.0,0.2703999999998814
193,31,0.5,0.125,-35.0,-1,1.0,0.1293999999999187
194,31,0.5,0.25,-35.0,-1,1.0,0.6671999999999798
195,31,0.5,0.125,-35.0,-1,1.0,0.18430000000000746
196,31,0.5,1.0,35.0,1,1.0,0.375699999999938
197,31,0.5,0.0625,-35.0,-1,1.0,0.4640999999999167
198,31,0.5,0.125,35.0,1,1.0,0.3066000000000031
199,31,0.5,1.0,-35.0,-1,1.0,0.2822999999998501
200,31,0.5,0.25,35.0,1,1.0,0.175200000000018
201,31,0.5,1.0,35.0,-1,0.0,0.14189999999996417
202,31,0.5,0.25,35.0,1,1.0,0.18859999999983756
203,31,0.5,0.25,-35.0,-1,1.0,0.3125999999999749
204,31,0.5,0.25,-35.0,-1,1.0,0.5110999999999422
205,31,0.5,0.0,35.0,-1,0.0,0.987299999999891
206,31,0.4,0.0,35.0,1,1.0,0.15949999999998
207,31,0.5,1.0,35.0,1,1.0,0.14379999999994197
208,31,0.5,0.0625,35.0,-1,0.0,1.9393999999999778
209,31,0.5,0.0,35.0,1,1.0,0.20330000000001291
210,31,0.5,0.0,35.0,-1,0.0,0.10399999999992815
211,31,0.5,0.25,-35.0,-1,1.0,0.2962999999999738
212,31,0.5,0.0,-35.0,-1,1.0,0.23649999999986449
213,31,0.5,0.25,-35.0,-1,1.0,0.3488999999999578
214,31,0.5,0.25,35.0,1,1.0,0.2320999999999458
215,31,0.5,0.125,-35.0,-1,1.0,0.2908999999999651
216,31,0.5,0.125,35.0,1,1.0,0.4015000000000555
217,31,0.5,1.0,35.0,1,1.0,0.2885999999998603
218,31,0.5,0.25,-35.0,1,0.0,0.21329999999989013
219,31,0.5,0.0625,-35.0,1,0.0,0.10839999999996053
220,31,0.5,0.0625,-35.0,1,0.0,1.6205999999999676
221,31,0.5,1.0,-35.0,-1,1.0,0.23489999999992506
222,31,0.5,1.0,35.0,1,1.0,0.6476999999999862
223,31,0.5,0.0625,-35.0,-1,1.0,0.5884999999999536
224,31,0.5,0.25,35.0,1,1.0,0.31560000000001764
225,31,0.5,0.0625,35.0,1,1.0,0.5076000000000249
226,31,0.5,0.125,35.0,1,1.0,1.0837999999999965
227,31,0.5,1.0,35.0,1,1.0,0.43899999999996453
228,31,0.5,0.0625,35.0,1,1.0,1.3535999999999149
229,31,0.5,0.0,-35.0,1,0.0,0.9024999999999181
230,31,0.5,0.125,35.0,1,1.0,0.3024999999998954
231,31,0.5,0.25,-35.0,-1,1.0,0.6162999999999101
232,31,0.5,0.125,35.0,1,1.0,0.5263999999998532
233,31,0.5,0.125,-35.0,-1,1.0,0.2806000000000495
234,31,0.5,0.0625,35.0,-1,0.0,0.35209999999995034
235,31,0.5,0.25,-35.0,-1,1.0,0.1247000000000753
236,31,0.5,1.0,35.0,1,1.0,0.3407999999999447
237,31,0.5,1.0,-35.0,-1,1.0,0.552199999999857
238,31,0.5,0.0625,-35.0,-1,1.0,0.9968999999998687
239,31,0.5,0.0625,-35.0,-1,1.0,0.16009999999994307
240,31,0.5,0.0,35.0,1,1.0,0.17219999999997526
241,31,0.5,1.0,-35.0,-1,1.0,0.22490000000004784
242,31,0.5,0.125,-35.0,-1,1.0,0.39649999999994634
243,31,0.5,0.0625,35.0,1,1.0,0.3105999999999085
244,31,0.5,0.25,-35.0,-1,1.0,0.3187000000000353
245,31,0.5,0.125,35.0,1,1.0,0.4835999999999103
246,31,0.5,0.0625,-35.0,-1,1.0,0.1592000000000553
247,31,0.5,0.125,35.0,1,1.0,0.4922999999998865
248,31,0.5,0.25,-35.0,-1,1.0,0.24559999999996762
249,31,0.5,0.0625,-35.0,-1,1.0,0.24079999999992197
250,31,0.5,0.25,35.0,1,1.0,0.24889999999993506
251,31,0.5,0.125,-35.0,1,0.0,0.1653999999998632
252,31,0.5,0.125,35.0,1,1.0,0.2801000000000613
253,31,0.5,1.0,35.0,1,1.0,0.13209999999992306
254,31,0.5,1.0,-35.0,-1,1.0,0.27359999999998763
255,31,0.5,0.25,35.0,1,1.0,0.19249999999988177
256,31,0.5,0.0,-35.0,1,0.0,1.7438000000000784
257,31,0.7,0.0,-35.0,1,0.0,1.1826000000000931
258,31,0.5,1.0,-35.0,1,0.0,0.35770000000002256
259,31,0.5,0.125,35.0,1,1.0,0.3928000000000793
260,31,0.5,0.25,-35.0,-1,1.0,0.17440000000010514
261,31,0.5,0.0,-35.0,1,0.0,0.3262999999999465
262,31,0.5,0.25,35.0,1,1.0,0.6779000000001361
263,31,0.5,0.25,-35.0,-1,1.0,0.3398000000001957
264,31,0.5,0.25,-35.0,-1,1.0,1.3782999999998538
265,31,0.5,0.0625,-35.0,-1,1.0,0.22010000000000218
266,31,0.5,1.0,-35.0,-1,1.0,0.10809999999992215
267,31,0.5,0.0625,-35.0,-1,1.0,0.24690000000009604
268,31,0.5,0.0625,35.0,1,1.0,0.23829999999998108
269,31,0.5,0.0625,35.0,1,1.0,0.2904000000000906
270,31,0.5,1.0,35.0,1,1.0,0.21199999999998909
271,31,0.5,1.0,-35.0,-1,1.0,0.27710000000001855
272,31,0.5,0.0625,35.0,1,1.0,0.5087999999998374
273,31,0.5,0.25,35.0,1,1.0,0.2440999999998894
274,31,0.5,0.0,-35.0,1,0.0,0.6020999999998367
275,31,0.6,0.0,-35.0,1,0.0,0.4010000000000673
276,31,0.5,1.0,-35.0,-1,1.0,0.15599999999994907
277,31,0.5,0.0,35.0,-1,0.0,3.0010999999999513
278,31,0.7,0.0,-35.0,1,0.0,0.8391999999998916
279,31,0.5,1.0,35.0,1,1.0,0.5346999999999298
280,31,0.5,1.0,35.0,1,1.0,0.266399999999976
281,31,0.5,0.125,-35.0,-1,1.0,0.14819999999986067
282,31,0.5,0.25,35.0,1,1.0,0.24989999999979773
283,31,0.5,1.0,35.0,-1,0.0,0.10179999999991196
284,31,0.5,0.0625,-35.0,-1,1.0,0.6032999999997628
285,31,0.5,1.0,-35.0,-1,1.0,0.5087000000000899
286,31,0.5,0.25,-35.0,-1,1.0,0.4134000000001379
287,31,0.5,0.0625,35.0,-1,0.0,0.49890000000004875
288,31,0.4,0.0625,-35.0,-1,1.0,0.3570999999997184
289,31,0.5,1.0,35.0,1,1.0,0.3924000000001797
290,31,0.5,0.125,35.0,1,1.0,0.29730000000017753
291,31,0.5,1.0,-35.0,-1,1.0,0.1092999999998483
292,31,0.5,1.0,-35.0,-1,1.0,0.22090000000002874
293,31,0.5,0.0625,-35.0,-1,1.0,0.36609999999996035
294,31,0.5,1.0,-35.0,-1,1.0,0.24090000000001055
295,31,0.5,1.0,35.0,1,1.0,0.30970000000002074
296,31,0.5,1.0,-35.0,-1,1.0,0.27139999999985776
297,31,0.5,0.125,-35.0,-1,1.0,1.1266000000000531
298,31,0.5,1.0,-35.0,-1,1.0,0.30140000000005784
299,31,0.5,0.25,35.0,1,1.0,0.23019999999996799
300,31,0.5,0.25,35.0,1,1.0,0.2782999999999447
301,31,0.5,0.125,-35.0,-1,1.0,0.40039999999999054
302,31,0.5,0.125,-35.0,-1,1.0,0.24520000000006803
303,31,0.5,0.25,35.0,1,1.0,0.19719999999983884
304,31,0.5,1.0,35.0,1,1.0,0.45879999999988286
305,31,0.5,0.0625,-35.0,-1,1.0,0.9206000000001495
306,31,0.5,1.0,-35.0,-1,1.0,0.21240000000011605
307,31,0.5,0.0625,-35.0,1,0.0,0.15430000000014843
308,31,0.5,0.0,35.0,-1,0.0,0.18909999999982574
309,31,0.5,0.0,-35.0,-1,1.0,0.5945999999999003
310,31,0.5,0.0625,35.0,1,1.0,0.6092999999998483
311,31,0.5,0.125,35.0,1,1.0,0.7011999999999716
312,31,0.5,0.125,35.0,1,1.0,0.372899999999845
313,31,0.5,0.125,-35.0,-1,1.0,0.6947999999999865
314,31,0.5,0.125,-35.0,-1,1.0,0.2828999999999269
315,31,0.5,0.25,35.0,1,1.0,0.6617999999998574
316,31,0.5,0.0,-35.0,1,0.0,1.259999999999991
317,31,0.5,0.125,35.0,1,1.0,0.6020000000000891
318,31,0.5,0.125,-35.0,-1,1.0,0.573399999999765
319,31,0.5,0.0,-35.0,-1,1.0,0.6787999999999101
320,31,0.5,0.125,35.0,1,1.0,0.29359999999996944
321,31,0.5,1.0,-35.0,-1,1.0,0.32580000000007203
322,31,0.5,1.0,35.0,1,1.0,0.31729999999993197
323,31,0.5,0.125,35.0,1,1.0,0.3792999999998301
324,31,0.5,1.0,-35.0,-1,1.0,1.174099999999953
325,31,0.5,0.0,35.0,1,1.0,0.8026999999999589
326,31,0.5,0.0625,35.0,-1,0.0,0.14419999999995525
327,31,0.5,0.0625,-35.0,-1,1.0,0.4795999999998912
328,31,0.5,1.0,-35.0,-1,1.0,0.2644999999999982
329,31,0.5,0.0625,35.0,1,1.0,0.8330999999998312
330,31,0.5,0.125,-35.0,-1,1.0,0.4778999999998632
331,31,0.5,0.0625,-35.0,-1,1.0,0.3766000000000531
332,31,0.5,1.0,35.0,1,1.0,0.2681999999999789
333,31,0.5,0.125,35.0,-1,0.0,0.2033000000001266
334,31,0.5,0.0625,-35.0,1,0.0,0.508600000000115
335,31,0.5,0.125,35.0,1,1.0,0.3369000000000142
336,31,0.5,0.125,-35.0,-1,1.0,0.18849999999997635
337,31,0.5,0.125,-35.0,-1,1.0,0.16059999999993124
338,31,0.5,1.0,35.0,1,1.0,0.16540000000009059
339,31,0.5,0.125,35.0,-1,0.0,0.10050000000001091
340,31,0.4,0.125,-35.0,-1,1.0,1.6357000000000426
341,31,0.5,1.0,-35.0,-1,1.0,0.5242000000000644
342,31,0.5,0.0625,35.0,1,1.0,0.5224000000000615
343,31,0.5,0.25,35.0,1,1.0,0.32770000000004984
344,31,0.5,0.0625,-35.0,-1,1.0,0.13440000000014152
345,31,0.5,0.125,-35.0,-1,1.0,0.39580000000000837
346,31,0.5,0.25,-35.0,1,0.0,0.13449999999988904
347,31,0.5,0.0,-35.0,1,0.0,1.2462000000000444
348,31,0.5,0.125,-35.0,-1,1.0,0.16810000000009495
349,31,0.5,0.125,-35.0,-1,1.0,0.48319999999989705
350,31,0.5,0.0,35.0,-1,0.0,0.21829999999999927
351,31,0.5,0.0,-35.0,-1,1.0,1.5697999999999865
352,31,0.5,0.125,-35.0,-1,1.0,0.3020000000001346
353,31,0.5,0.0,35.0,-1,0.0,0.22200000000020736
354,31,0.5,0.0625,35.0,1,1.0,0.3935999999998785
355,31,0.5,0.0625,35.0,-1,0.0,0.11549999999988358
356,31,0.5,0.0,-35.0,-1,1.0,0.5203999999998814
357,31,0.5,0.0625,-35.0,-1,1.0,0.4356999999997697
358,31,0.5,0.0625,-35.0,-1,1.0,0.39400000000000546
359,31,0.5,0.0,35.0,-1,0.0,1.9026000000001204
360,31,0.5,0.125,-35.0,1,0.0,0.19089999999982865
361,31,0.5,0.25,35.0,1,1.0,0.5661000000000058
362,31,0.5,0.25,-35.0,-1,1.0,0.4742999999998574
363,31,0.5,0.125,-35.0,-1,1.0,0.33960000000001855
364,31,0.5,0.0,-35.0,-1,1.0,0.3846000000000913
365,31,0.5,0.25,35.0,1,1.0,0.2864999999999327
366,31,0.5,0.125,35.0,1,1.0,0.401299999999992
367,31,0.5,0.0625,35.0,-1,0.0,0.22010000000000218
368,31,0.5,0.25,35.0,1,1.0,0.3417999999996937
369,31,0.5,1.0,35.0,1,1.0,0.2801999999999225
370,31,0.5,0.0,-35.0,-1,1.0,0.7282999999999902
371,31,0.5,0.25,-35.0,-1,1.0,0.7936999999999443
372,31,0.5,0.0,-35.0,-1,1.0,0.40190000000006876
373,31,0.5,1.0,35.0,1,1.0,0.24049999999988358
374,31,0.5,1.0,-35.0,-1,1.0,0.12879999999972824
375,31,0.5,0.125,35.0,1,1.0,0.1875
376,31,0.5,0.125,-35.0,-1,1.0,0.968900000000076
377,31,0.5,0.125,-35.0,-1,1.0,0.1710000000000491
378,31,0.5,0.0625,35.0,-1,0.0,0.3892000000000735
379,31,0.5,0.0625,35.0,1,1.0,0.33789999999999054
380,31,0.5,0.125,35.0,1,1.0,0.21929999999997563
381,31,0.5,1.0,-35.0,-1,1.0,0.52800000000002
382,31,0.5,0.25,35.0,1,1.0,0.4829000000001997
383,31,0.5,0.25,35.0,-1,0.0,0.6916000000001077
384,31,0.5,0.0625,35.0,1,1.0,0.4597999999998592
385,31,0.5,1.0,35.0,1,1.0,0.10169999999993706
386,31,0.5,0.125,-35.0,-1,1.0,0.6300000000001091
387,31,0.5,0.0625,-35.0,-1,1.0,0.6485999999999876
388,31,0.5,0.0,-35.0,-1,1.0,0.17689999999993233
389,31,0.5,0.25,-35.0,-1,1.0,0.30560099999979684
390,31,0.5,0.25,35.0,1,1.0,0.19370100000014645
391,31,0.5,1.0,-35.0,1,0.0,0.13570099999992635
392,31,0.5,0.0625,35.0,1,1.0,0.5906010000001061
393,31,0.5,0.0625,35.0,1,1.0,0.27930099999980484
394,31,0.5,0.125,35.0,1,1.0,0.4475009999998747
395,31,0.5,1.0,35.0,1,1.0,0.24270100000012462
396,31,0.5,0.25,-35.0,-1,1.0,0.42430099999978665
397,31,0.5,0.0,35.0,-1,0.0,0.18960100000003877
398,31,0.5,0.25,35.0,1,1.0,0.534601000000066
399,31,0.5,0.25,35.0,1,1.0,0.44980099999997947
400,31,0.5,1.0,-35.0,-1,1.0,0.26810100000011516
401,31,0.5,1.0,35.0,1,1.0,0.323200999999699
402,31,0.5,0.125,-35.0,-1,1.0,0.2984010000000126
403,31,0.5,1.0,35.0,1,1.0,0.21020100000009734
404,31,0.5,0.0625,35.0,1,1.0,1.255000999999993
405,31,0.5,0.0625,35.0,1,1.0,0.4538009999998849
406,31,0.5,0.0625,35.0,1,1.0,0.30880099999990307
407,31,0.5,1.0,-35.0,-1,1.0,0.6407009999998081
408,31,0.5,0.0625,-35.0,1,0.0,0.4689009999999598
409,31,0.5,0.0,35.0,-1,0.0,0.6207009999998263
410,31,0.5,0.25,35.0,1,1.0,0.3459010000001399
411,31,0.5,0.25,-35.0,-1,1.0,0.6077009999999063
412,31,0.5,0.0625,35.0,1,1.0,0.4959009999997761
413,31,0.5,1.0,35.0,1,1.0,0.3145009999998365
414,31,0.5,0.125,-35.0,-1,1.0,0.2395010000000184
415,31,0.5,0.125,-35.0,-1,1.0,0.3548009999999522
416,31,0.5,0.0,35.0,1,1.0,0.5595010000001821
417,31,0.5,0.25,35.0,1,1.0,0.28490099999999074
418,31,0.5,1.0,35.0,-1,0.0,0.09310100000016064
419,31,0.5,0.0625,-35.0,1,0.0,0.20850099999984195
420,31,0.6,0.0625,-35.0,1,0.0,0.10660099999995509
421,31,0.5,1.0,-35.0,-1,1.0,0.3586009999996804
422,31,0.5,0.25,-35.0,-1,1.0,0.5336009999998623
423,31,0.5,0.0625,-35.0,-1,1.0,0.4255009999999402
424,31,0.5,0.25,-35.0,-1,1.0,0.617001000000073
425,31,0.5,0.125,-35.0,-1,1.0,0.34900100000004386
426,31,0.5,1.0,35.0,1,1.0,0.32710100000008424
427,31,0.5,0.0625,35.0,1,1.0,0.2558009999997921
428,31,0.5,0.25,35.0,1,1.0,0.3407009999998536
429,31,0.5,1.0,35.0,1,1.0,0.4575009999998656
430,31,0.5,0.125,35.0,1,1.0,0.6142009999998663
431,31,0.5,1.0,-35.0,1,0.0,0.15630099999998492
432,31,0.6,1.0,35.0,1,1.0,0.46450099999970007
433,31,0.5,1.0,-35.0,-1,1.0,0.29640100000005987
434,31,0.5,0.0625,35.0,1,1.0,0.7013010000000577
435,31,0.5,0.125,35.0,1,1.0,0.3566009999999551
436,31,0.5,1.0,35.0,1,1.0,0.30490099999997256
437,31,0.5,0.125,-35.0,-1,1.0,0.29340099999990343
438,31,0.5,0.25,35.0,1,1.0,0.20170099999995728
439,31,0.5,0.25,35.0,1,1.0,0.35370100000000093
440,31,0.5,0.25,-35.0,-1,1.0,0.33530099999984486
441,31,0.5,0.125,35.0,1,1.0,0.3439009999999598
442,31,0.5,0.0625,-35.0,-1,1.0,0.22230100000001585
443,31,0.5,0.0625,35.0,1,1.0,0.38430099999982303
444,31,0.5,1.0,-35.0,-1,1.0,0.2626009999996768
445,31,0.5,1.0,35.0,1,1.0,0.3710009999999784
446,31,0.5,0.0625,35.0,1,1.0,0.3926010000000133
447,31,0.5,0.0625,35.0,1,1.0,0.5481010000000879
448,31,0.5,1.0,35.0,1,1.0,0.1430009999999129
449,31,0.5,1.0,-35.0,-1,1.0,0.26470100000005914
450,31,0.5,1.0,35.0,1,1.0,0.2898009999998976
451,31,0.5,0.25,35.0,1,1.0,0.3516010000000733
452,31,0.5,1.0,-35.0,-1,1.0,0.22340100000019447
453,31,0.5,1.0,-35.0,-1,1.0,0.3285009999999602
454,31,0.5,0.0625,-35.0,-1,1.0,0.34330099999988306
455,31,0.5,0.125,-35.0,-1,1.0,0.23200100000008206
456,31,0.5,0.0625,-35.0,1,0.0,0.997101000000157
457,31,0.5,0.0,-35.0,1,0.0,0.7090009999999438
458,31,0.5,0.0625,35.0,1,1.0,0.4972009999999045
459,31,0.5,1.0,35.0,1,1.0,0.4091009999999642
460,31,0.5,0.25,-35.0,-1,1.0,0.5675009999999929
461,31,0.5,0.125,35.0,1,1.0,0.3926010000000133
462,31,0.5,0.0625,-35.0,1,0.0,2.9609009999999216
463,31,0.5,0.125,-35.0,-1,1.0,0.306201000000101
464,31,0.5,0.0625,35.0,1,1.0,0.6111009999999624
465,31,0.5,0.0625,-35.0,1,0.0,0.48640100000011444
466,31,0.5,0.125,35.0,1,1.0,0.4247009999999136
467,31,0.5,0.25,35.0,1,1.0,0.6601009999999405
468,31,0.5,0.25,-35.0,-1,1.0,0.37160100000005514
469,31,0.5,0.125,35.0,1,1.0,0.3102010000000064
470,31,0.5,0.25,-35.0,-1,1.0,0.4518009999997048
471,31,0.5,1.0,35.0,1,1.0,0.32710100000008424
472,31,0.5,1.0,-35.0,-1,1.0,0.35530099999982667
473,31,0.5,1.0,-35.0,-1,1.0,0.22060099999998783
474,31,0.5,0.0,35.0,1,1.0,0.28560099999981503
475,31,0.5,0.125,-35.0,-1,1.0,0.3540009999999256
476,31,0.5,0.0,-35.0,-1,1.0,1.9989009999999325
477,31,0.5,0.125,35.0,1,1.0,0.4476009999998496
478,31,0.5,0.125,-35.0,-1,1.0,0.2960010000001603
479,31,0.5,0.0625,35.0,-1,0.0,1.0845009999998183
480,31,0.5,0.25,35.0,1,1.0,0.3527010000000246
481,31,0.5,1.0,-35.0,-1,1.0,0.44600100000002385
482,31,0.5,0.125,-35.0,-1,1.0,0.42810099999974227
483,31,0.5,0.0,35.0,1,1.0,0.7365010000000893
484,31,0.5,0.0625,-35.0,-1,1.0,0.9183010000001559
485,31,0.5,1.0,-35.0,-1,1.0,0.483400999999958
486,31,0.5,0.125,-35.0,-1,1.0,0.5118009999998776
487,31,0.5,0.0625,-35.0,-1,1.0,0.9468010000000504
488,31,0.5,0.25,-35.0,-1,1.0,0.5786009999997077
489,31,0.5,0.25,-35.0,-1,1.0,0.5136009999998805
490,31,0.5,0.25,35.0,1,1.0,0.602301000000125
491,31,0.5,0.0625,35.0,-1,0.0,2.8739009999999325
492,31,0.5,0.0625,35.0,1,1.0,0.3625010000000657
493,31,0.5,1.0,35.0,1,1.0,0.6342010000000755
494,31,0.5,0.125,35.0,1,1.0,0.7061009999999897
495,31,0.5,1.0,-35.0,-1,1.0,0.25450099999989106
496,31,0.5,1.0,-35.0,-1,1.0,0.5662009999998645
497,31,0.5,0.125,35.0,1,1.0,0.5645010000000639
498,31,0.5,0.25,35.0,1,1.0,0.7997009999999136
499,31,0.5,0.125,35.0,-1,0.0,0.3480010000000675
500,31,0.5,0.125,-35.0,-1,1.0,0.4466010000001006
501,31,0.5,0.125,-35.0,-1,1.0,0.1582010000001901
502,31,0.5,1.0,-35.0,-1,1.0,0.5334009999999125
503,31,0.5,0.0625,35.0,1,1.0,0.37180100000000493
504,31,0.5,1.0,-35.0,-1,1.0,0.370401000000129
505,31,0.5,0.125,-35.0,-1,1.0,3.645101000000068
506,31,0.5,1.0,-35.0,-1,1.0,0.3271010000003116
507,31,0.5,0.125,35.0,1,1.0,0.2621009999998023
508,31,0.5,0.125,-35.0,-1,1.0,0.2940009999997528
509,31,0.5,0.125,-35.0,-1,1.0,0.34900100000004386
510,31,0.5,0.0625,-35.0,-1,1.0,2.3409010000000308
511,31,0.5,1.0,-35.0,-1,1.0,0.29930100000001403
512,31,0.5,0.125,35.0,1,1.0,0.3245010000000548
513,31,0.5,0.25,35.0,1,1.0,0.36950100000012753
514,31,0.5,0.25,-35.0,1,0.0,0.15150099999982558
515,31,0.5,0.25,35.0,1,1.0,0.4096009999998387
516,31,0.5,1.0,-35.0,-1,1.0,0.3849009999998998
517,31,0.5,0.125,-35.0,-1,1.0,0.6330009999996946
518,31,0.5,0.25,35.0,1,1.0,0.4266010000001188
519,31,0.5,0.25,35.0,1,1.0,0.4133010000005015
520,31,0.5,0.125,-35.0,-1,1.0,0.2952010000003611
521,31,0.5,0.0,-35.0,1,0.0,0.7768009999999776
522,31,0.5,0.0625,-35.0,-1,1.0,0.37220099999967715
523,31,0.5,0.125,35.0,1,1.0,6.097001000000091
524,31,0.5,0.125,-35.0,-1,1.0,0.1073010000004615
525,31,0.5,1.0,35.0,1,1.0,0.25250099999993836
526,31,0.5,1.0,-35.0,-1,1.0,0.3040009999999711
527,31,0.5,0.0,35.0,1,1.0,0.9793010000003051
528,31,0.5,0.125,-35.0,-1,1.0,0.44090099999948507
529,31,0.5,0.25,35.0,1,1.0,0.28620100000034654
530,31,0.5,0.0625,35.0,-1,0.0,0.09430100000008679
531,31,0.5,0.0625,35.0,1,1.0,0.4298009999997703
532,31,0.5,1.0,35.0,1,1.0,0.2813009999999849
533,31,0.5,0.25,35.0,1,1.0,0.5465009999998074
534,31,0.5,0.25,-35.0,-1,1.0,0.07490099999995437
535,31,0.5,0.0625,-35.0,-1,1.0,0.6733009999998103
536,31,0.5,0.0625,-35.0,-1,1.0,0.358400999999958
537,31,0.5,0.25,-35.0,-1,1.0,0.2801009999998314
538,31,0.5,1.0,-35.0,-1,1.0,0.5550010000001748
539,31,0.5,0.125,-35.0,-1,1.0,0.3103009999999813
540,31,0.5,0.125,35.0,-1,0.0,3.521901000000071
541,31,0.5,0.125,-35.0,-1,1.0,2.4073010000001887
542,31,0.5,0.25,35.0,-1,0.0,1.4324010000000271
543,31,0.1,0.25,35.0,1,1.0,2.347801000000345
544,31,0.5,1.0,35.0,-1,0.0,1.942801000000145
545,31,0.5,0.25,35.0,-1,0.0,10.101501000000098
546,31,0.1,0.25,35.0,-1,0.0,4.92330099999981
547,31,0.5,1.0,35.0,-1,0.0,1.892001000000164
548,31,0.5,0.125,35.0,-1,0.0,0.980301000000054
549,31,0.5,0.25,35.0,-1,0.0,8.275701000000026
550,31,0.5,0.125,35.0,-1,0.0,6.090801000000283
551,31,0.5,0.25,35.0,-1,0.0,6.806101000000126
552,31,0.1,0.25,-35.0,-1,1.0,5.214700999999877
553,31,0.5,1.0,35.0,-1,0.0,1.3400010000000293
554,31,0.5,0.25,35.0,-1,0.0,3.8984010000003764
555,31,0.5,0.125,-35.0,-1,1.0,3.9370010000002367
556,31,0.5,1.0,35.0,-1,0.0,3.751901000000089
557,31,0.5,0.0625,-35.0,-1,1.0,15.250600999999733
558,31,0.5,0.0625,35.0,-1,0.0,6.826200999999855
559,31,0.5,0.0625,35.0,1,1.0,5.194800999999643
1,32,0.5,0.125,-35.0,-1,1.0,0.22669999999999968
2,32,0.5,0.125,35.0,1,1.0,0.6313999999999993
3,32,0.5,0.0625,-35.0,-1,1.0,0.4884000000000004
4,32,0.5,1.0,-35.0,-1,1.0,0.28770000000000095
5,32,0.5,0.125,-35.0,-1,1.0,0.3204999999999991
6,32,0.5,0.0625,35.0,1,1.0,0.5829999999999984
7,32,0.5,0.0,35.0,-1,0.0,2.5656999999999996
8,32,0.5,0.125,35.0,1,1.0,0.404200000000003
9,32,0.5,1.0,35.0,1,1.0,0.24210000000000065
10,32,0.5,0.125,35.0,1,1.0,0.31400000000000006
11,32,0.5,0.125,-35.0,-1,1.0,0.29630000000000223
12,32,0.5,0.125,-35.0,-1,1.0,0.29520000000000124
13,32,0.5,1.0,-35.0,-1,1.0,0.2033000000000058
14,32,0.5,1.0,35.0,1,1.0,0.3526999999999987
15,32,0.5,1.0,35.0,1,1.0,0.3999999999999986
16,32,0.5,0.25,-35.0,-1,1.0,0.15909999999999513
17,32,0.5,1.0,35.0,1,1.0,0.27189999999998804
18,32,0.5,0.0625,35.0,-1,0.0,1.2931999999999988
19,32,0.5,0.0,35.0,1,1.0,0.34669999999999845
20,32,0.5,0.25,-35.0,-1,1.0,0.3550999999999931
21,32,0.5,0.0,-35.0,-1,1.0,1.02409999999999
22,32,0.5,0.0625,-35.0,-1,1.0,0.337600000000009
23,32,0.5,0.25,-35.0,-1,1.0,0.4469999999999885
24,32,0.5,0.0625,35.0,1,1.0,4.245200000000011
25,32,0.5,0.0625,35.0,1,1.0,0.39929999999999666
26,32,0.5,0.125,35.0,1,1.0,0.29340000000000543
27,32,0.5,1.0,-35.0,-1,1.0,0.08509999999999707
28,32,0.5,1.0,35.0,1,1.0,0.279200000000003
29,32,0.5,0.25,-35.0,-1,1.0,0.2477000000000089
30,32,0.5,0.25,-35.0,-1,1.0,0.20410000000001105
31,32,0.5,0.25,35.0,1,1.0,0.4414999999999907
32,32,0.5,0.25,-35.0,-1,1.0,0.22529999999997585
33,32,0.5,0.25,-35.0,-1,1.0,0.2516999999999996
34,32,0.5,0.0625,-35.0,-1,1.0,0.10349999999999682
35,32,0.5,0.125,35.0,1,1.0,0.29579999999998563
36,32,0.5,1.0,35.0,-1,0.0,0.0922000000000196
37,32,0.5,0.25,35.0,-1,0.0,1.5493999999999915
38,32,0.5,0.25,-35.0,-1,1.0,0.38169999999999504
39,32,0.5,0.0625,-35.0,-1,1.0,0.27849999999997976
40,32,0.5,0.125,35.0,1,1.0,0.26599999999999113
41,32,0.5,0.25,-35.0,-1,1.0,0.2950999999999908
42,32,0.5,0.0625,35.0,1,1.0,0.23980000000000246
43,32,0.5,0.125,-35.0,-1,1.0,0.4119999999999777
44,32,0.5,0.25,-35.0,-1,1.0,0.31320000000002324
45,32,0.5,0.0625,35.0,1,1.0,0.1717999999999904
46,32,0.5,1.0,35.0,1,1.0,0.17240000000001032
47,32,0.5,0.125,-35.0,-1,1.0,0.27830000000000155
48,32,0.5,0.0625,-35.0,1,0.0,0.7012999999999749
49,32,0.5,0.0625,-35.0,1,0.0,0.21320000000002892
50,32,0.6,0.0625,-35.0,1,0.0,0.35960000000000036
51,32,0.5,1.0,35.0,1,1.0,0.31500000000002615
52,32,0.5,0.125,-35.0,1,0.0,0.375
53,32,0.5,0.0625,-35.0,-1,1.0,0.33310000000000173
54,32,0.5,0.125,-35.0,-1,1.0,0.2394000000000176
55,32,0.5,0.125,35.0,1,1.0,0.29709999999997194
56,32,0.5,0.0625,35.0,1,1.0,0.3311999999999955
57,32,0.5,0.0,-35.0,1,0.0,0.3476999999999748
58,32,0.5,0.0,35.0,1,1.0,0.23930000000001428
59,32,0.5,1.0,35.0,1,1.0,0.15810000000001878
60,32,0.5,0.25,35.0,1,1.0,0.3172999999999888
61,32,0.5,0.25,-35.0,-1,1.0,0.20179999999999154
62,32,0.5,0.125,-35.0,1,0.0,0.16969999999997754
63,32,0.5,0.25,35.0,1,1.0,0.26539999999999964
64,32,0.5,0.25,35.0,1,1.0,0.11420000000003938
65,32,0.5,0.25,-35.0,-1,1.0,0.16440000000000055
66,32,0.5,0.25,-35.0,-1,1.0,0.4353999999999587
67,32,0.5,1.0,-35.0,-1,1.0,0.3010999999999626
68,32,0.5,0.0625,-35.0,-1,1.0,0.358600000000024
69,32,0.5,0.25,35.0,1,1.0,0.2692000000000121
70,32,0.5,0.125,35.0,1,1.0,0.34489999999999554
71,32,0.5,0.25,35.0,1,1.0,0.5097000000000094
72,32,0.5,0.0,35.0,-1,0.0,0.08499999999997954
73,32,0.5,0.0,35.0,1,1.0,0.47359999999997626
74,32,0.5,1.0,-35.0,-1,1.0,0.26420000000001664
75,32,0.5,0.125,-35.0,-1,1.0,0.17189999999999372
76,32,0.5,1.0,35.0,1,1.0,0.2703999999999951
77,32,0.5,0.25,-35.0,-1,1.0,0.2378999999999678
78,32,0.5,1.0,-35.0,-1,1.0,0.13360000000000127
79,32,0.5,0.0625,35.0,1,1.0,0.33590000000003783
80,32,0.5,0.0625,-35.0,1,0.0,0.2898000000000138
81,32,0.5,0.0625,-35.0,-1,1.0,0.36700000000001864
82,32,0.5,0.0625,-35.0,-1,1.0,0.27760000000000673
83,32,0.5,0.0625,35.0,-1,0.0,0.5142000000000166
84,32,0.5,0.25,35.0,1,1.0,0.28600000000000136
85,32,0.5,0.25,35.0,1,1.0,0.7459999999999809
86,32,0.5,1.0,-35.0,-1,1.0,0.3190000000000168
87,32,0.5,0.25,-35.0,-1,1.0,0.08240000000000691
88,32,0.5,0.125,-35.0,-1,1.0,0.1612999999999829
89,32,0.5,0.125,-35.0,-1,1.0,0.27309999999999945
90,32,0.5,0.25,-35.0,-1,1.0,0.25530000000003383
91,32,0.5,0.125,-35.0,-1,1.0,0.3226999999999407
92,32,0.5,0.125,-35.0,-1,1.0,0.3865999999999872
93,32,0.5,0.125,-35.0,-1,1.0,0.12580000000002656
94,32,0.5,1.0,35.0,1,1.0,0.30169999999998254
95,32,0.5,0.25,35.0,1,1.0,0.24450000000001637
96,32,0.5,0.0625,35.0,1,1.0,0.10160000000001901
97,32,0.5,0.25,-35.0,-1,1.0,0.21819999999996753
98,32,0.5,0.25,35.0,1,1.0,0.1270999999999276
99,32,0.5,1.0,35.0,1,1.0,0.2261999999999489
100,32,0.5,0.125,-35.0,1,0.0,0.11559999999997217
101,32,0.5,0.0,-35.0,1,0.0,0.38900000000001
102,32,0.5,0.25,-35.0,-1,1.0,0.20239999999995462
103,32,0.5,1.0,35.0,-1,0.0,0.3008000000000379
104,32,0.5,0.0625,-35.0,-1,1.0,0.5267999999999802
105,32,0.5,0.0,35.0,-1,0.0,0.11169999999998481
106,32,0.5,0.125,35.0,1,1.0,0.3228000000000293
107,32,0.5,0.25,35.0,-1,0.0,0.09510000000000218
108,32,0.5,0.25,35.0,1,1.0,0.44339999999994006
109,32,0.5,0.125,-35.0,-1,1.0,0.33440000000001646
110,32,0.5,0.25,35.0,-1,0.0,0.0977999999999497
111,32,0.5,0.0625,-35.0,1,0.0,0.2633000000000152
112,32,0.5,0.0,35.0,1,1.0,0.30730000000005475
113,32,0.5,0.25,-35.0,-1,1.0,0.17430000000001655
114,32,0.5,0.0,-35.0,-1,1.0,0.45650000000000546
115,32,0.5,0.0625,35.0,1,1.0,0.32759999999996126
116,32,0.5,0.125,35.0,1,1.0,0.2939999999999827
117,32,0.5,0.125,-35.0,1,0.0,0.21310000000005402
118,32,0.6,0.125,35.0,1,1.0,0.28010000000000446
119,32,0.5,1.0,-35.0,-1,1.0,0.2605000000000359
120,32,0.5,0.0,-35.0,1,0.0,0.23970000000002756
121,32,0.5,0.25,-35.0,-1,1.0,0.19200000000000728
122,32,0.5,0.0625,-35.0,-1,1.0,0.23849999999998772
123,32,0.5,1.0,35.0,1,1.0,0.19999999999998863
124,32,0.5,1.0,-35.0,-1,1.0,0.17980000000005703
125,32,0.5,0.0625,35.0,-1,0.0,0.10360000000002856
126,32,0.5,0.0625,-35.0,-1,1.0,0.3120000000001255
127,32,0.5,1.0,-35.0,-1,1.0,0.13869999999997162
128,32,0.5,1.0,35.0,1,1.0,0.3250000000000455
129,32,0.5,1.0,-35.0,-1,1.0,0.24659999999994398
130,32,0.5,1.0,35.0,1,1.0,0.2402999999999338
131,32,0.5,0.125,-35.0,-1,1.0,0.23959999999999582
132,32,0.5,0.0625,-35.0,1,0.0,1.0165999999999258
133,32,0.5,0.25,35.0,1,1.0,0.31799999999998363
134,32,0.5,0.0625,35.0,1,1.0,0.21600000000000819
135,32,0.5,0.25,-35.0,-1,1.0,0.21650000000011005
136,32,0.5,0.125,35.0,1,1.0,0.11599999999998545
137,32,0.5,0.25,35.0,1,1.0,0.1855000000000473
138,32,0.5,1.0,35.0,1,1.0,0.32579999999995835
139,32,0.5,1.0,35.0,1,1.0,0.19830000000013115
140,32,0.5,0.25,35.0,1,1.0,0.3120000000000118
141,32,0.5,1.0,35.0,1,1.0,0.24910000000011223
142,32,0.5,0.25,-35.0,-1,1.0,0.25319999999999254
143,32,0.5,0.25,35.0,1,1.0,0.3546000000000049
144,32,0.5,0.125,35.0,1,1.0,0.20459999999991396
145,32,0.5,1.0,35.0,1,1.0,0.3341000000000349
146,32,0.5,0.25,-35.0,1,0.0,0.3380000000000791
147,32,0.9,0.25,-35.0,-1,1.0,0.23349999999993543
148,32,0.5,1.0,-35.0,-1,1.0,0.21209999999996398
149,32,0.5,0.25,-35.0,-1,1.0,0.22860000000002856
150,32,0.5,0.0625,35.0,1,1.0,0.24900000000002365
151,32,0.5,0.25,-35.0,-1,1.0,0.24879999999996016
152,32,0.5,1.0,35.0,1,1.0,0.16550000000006548
153,32,0.5,1.0,35.0,1,1.0,0.3508000000000493
154,32,0.5,0.125,-35.0,-1,1.0,0.29799999999988813
155,32,0.5,0.0625,35.0,1,1.0,0.28789999999992233
156,32,0.5,0.25,35.0,1,1.0,0.2398000000000593
157,32,0.5,1.0,35.0,1,1.0,0.26310000000000855
158,32,0.5,0.125,-35.0,-1,1.0,0.3026999999999589
159,32,0.5,0.125,35.0,1,1.0,0.29949999999996635
160,32,0.5,1.0,-35.0,-1,1.0,0.5971999999999298
161,32,0.5,0.0625,35.0,-1,0.0,0.11969999999996617
162,32,0.5,0.25,35.0,1,1.0,0.2907000000000153
163,32,0.5,1.0,35.0,1,1.0,0.11359999999990578
164,32,0.5,0.125,35.0,1,1.0,0.34790000000009513
165,32,0.5,1.0,-35.0,-1,1.0,0.14379999999994197
166,32,0.5,0.0,35.0,1,1.0,0.29579999999998563
167,32,0.5,0.25,35.0,1,1.0,0.1553000000000111
168,32,0.5,0.25,-35.0,1,0.0,0.1790000000000873
169,32,0.5,0.0625,-35.0,-1,1.0,0.4880999999999176
170,32,0.5,1.0,-35.0,-1,1.0,0.1872000000000753
171,32,0.5,0.0625,-35.0,-1,1.0,0.3020000000000209
172,32,0.5,0.25,35.0,1,1.0,0.24340000000006512
173,32,0.5,1.0,35.0,1,1.0,0.11550000000011096
174,32,0.5,0.0,-35.0,-1,1.0,0.2135000000000673
175,32,0.5,0.25,-35.0,1,0.0,0.16060000000004493
176,32,0.5,0.0625,35.0,1,1.0,0.3044000000001006
177,32,0.5,0.0625,35.0,-1,0.0,0.12089999999989232
178,32,0.5,0.0625,-35.0,-1,1.0,0.3107000000001108
179,32,0.5,1.0,35.0,1,1.0,0.1289000000000442
180,32,0.5,0.0,-35.0,1,0.0,0.25260000000002947
181,32,0.5,0.25,35.0,1,1.0,0.34180000000003474
182,32,0.5,0.125,-35.0,-1,1.0,0.22630000000003747
183,32,0.5,0.0625,35.0,1,1.0,0.4055999999999358
184,32,0.5,0.0625,-35.0,-1,1.0,0.2259999999999991
185,32,0.5,0.125,35.0,1,1.0,0.1896999999999025
186,32,0.5,0.25,-35.0,-1,1.0,0.35130000000003747
187,32,0.5,0.125,35.0,1,1.0,0.2078999999999951
188,32,0.5,0.25,35.0,1,1.0,0.17240000000003874
189,32,0.5,0.0,35.0,1,1.0,0.41409999999996217
190,32,0.5,0.125,35.0,1,1.0,0.28300000000001546
191,32,0.5,0.125,-35.0,-1,1.0,0.2635999999999967
192,32,0.5,0.125,-35.0,1,0.0,0.16210000000000946
193,32,0.5,0.125,-35.0,-1,1.0,0.09760000000005675
194,32,0.5,0.25,35.0,1,1.0,0.3544000000000551
195,32,0.5,0.125,-35.0,-1,1.0,0.2744000000000142
196,32,0.5,0.25,-35.0,-1,1.0,0.19389999999998508
197,32,0.5,0.0625,-35.0,-1,1.0,0.568300000000022
198,32,0.5,0.0625,-35.0,-1,1.0,0.4777000000000271
199,32,0.5,0.25,35.0,1,1.0,0.39560000000005857
200,32,0.5,0.0625,-35.0,-1,1.0,0.3625000000000682
201,32,0.5,0.0625,35.0,1,1.0,0.21420000000000528
202,32,0.5,0.0625,-35.0,-1,1.0,0.09199999999998454
203,32,0.5,1.0,35.0,-1,0.0,0.1468000000000984
204,32,0.5,0.0,-35.0,-1,1.0,1.2972999999999502
205,32,0.5,0.125,35.0,1,1.0,0.45680000000004384
206,32,0.5,0.25,35.0,-1,0.0,0.14379999999994197
207,32,0.5,0.25,-35.0,-1,1.0,0.2697999999999183
208,32,0.5,1.0,35.0,1,1.0,0.213799999999992
209,32,0.5,1.0,35.0,1,1.0,0.2502999999999247
210,32,0.5,1.0,35.0,1,1.0,0.2636999999999716
211,32,0.5,0.0625,-35.0,-1,1.0,0.09820000000001983
212,32,0.5,0.125,-35.0,1,0.0,0.1711999999999989
213,32,0.5,0.25,-35.0,-1,1.0,0.31599999999991724
214,32,0.5,1.0,-35.0,-1,1.0,0.2539000000000442
215,32,0.5,0.25,35.0,1,1.0,0.4612999999999374
216,32,0.5,0.125,-35.0,-1,1.0,0.30979999999999563
217,32,0.5,0.0625,35.0,1,1.0,0.26740000000006603
218,32,0.5,1.0,-35.0,-1,1.0,0.13869999999997162
219,32,0.5,0.25,35.0,1,1.0,0.26880000000005566
220,32,0.5,0.0625,-35.0,-1,1.0,0.22450000000003456
221,32,0.5,1.0,-35.0,-1,1.0,0.13660000000004402
222,32,0.5,1.0,-35.0,-1,1.0,0.2543000000000575
223,32,0.5,0.25,35.0,1,1.0,0.4375999999999749
224,32,0.5,0.25,35.0,1,1.0,0.315900000000056
225,32,0.5,0.125,35.0,1,1.0,0.23020000000008167
226,32,0.5,0.0,-35.0,1,0.0,0.4313000000000784
227,32,0.5,0.0,35.0,1,1.0,0.3341000000000349
228,32,0.5,0.125,-35.0,-1,1.0,0.324100000000044
229,32,0.5,0.25,-35.0,-1,1.0,0.55499999999995
230,32,0.5,0.125,-35.0,1,0.0,0.12419999999997344
231,32,0.5,0.125,-35.0,1,0.0,0.10550000000000637
232,32,0.5,0.0,35.0,1,1.0,0.28979999999990014
233,32,0.5,0.0,35.0,1,1.0,0.7957000000000107
234,32,0.5,1.0,35.0,1,1.0,0.3020999999999958
235,32,0.5,0.25,35.0,1,1.0,0.1005000000001246
236,32,0.5,0.25,-35.0,-1,1.0,0.08240000000000691
237,32,0.5,0.0625,35.0,1,1.0,0.26699999999993906
238,32,0.5,0.25,35.0,1,1.0,0.3649000000000342
239,32,0.5,0.0625,-35.0,-1,1.0,0.10500000000001819
240,32,0.5,0.125,35.0,-1,0.0,0.11400000000003274
241,32,0.5,0.125,35.0,1,1.0,0.30780000000004293
242,32,0.5,0.125,35.0,1,1.0,0.323099999999954
243,32,0.5,0.25,35.0,-1,0.0,0.143100000000004
244,32,0.5,0.0625,35.0,1,1.0,0.4173999999999296
245,32,0.5,0.125,-35.0,-1,1.0,0.31339999999988777
246,32,0.5,0.0625,35.0,1,1.0,0.33549999999991087
247,32,0.5,0.0625,35.0,1,1.0,0.2970999999998867
248,32,0.5,1.0,35.0,1,1.0,0.5856999999999744
249,32,0.5,1.0,-35.0,-1,1.0,0.2637000000000853
250,32,0.5,0.125,35.0,1,1.0,0.315900000000056
251,32,0.5,0.125,-35.0,1,0.0,0.12079999999969004
252,32,0.5,0.0625,-35.0,-1,1.0,0.26289999999994507
253,32,0.5,0.25,35.0,1,1.0,0.17089999999984684
254,32,0.5,0.0625,-35.0,-1,1.0,0.2830999999998767
255,32,0.5,0.0,-35.0,-1,1.0,0.16439999999988686
256,32,0.5,0.0625,-35.0,-1,1.0,0.11979999999971369
257,32,0.5,0.0625,-35.0,-1,1.0,0.10459999999989122
258,32,0.5,0.0625,35.0,-1,0.0,0.10799999999994725
259,32,0.5,0.25,35.0,1,1.0,0.38669999999979154
260,32,0.5,0.0625,35.0,1,1.0,0.2883999999999105
261,32,0.5,1.0,-35.0,-1,1.0,0.20699999999987995
262,32,0.5,0.125,-35.0,-1,1.0,0.321699999999737
263,32,0.5,1.0,35.0,-1,0.0,0.29379999999991924
264,32,0.5,0.25,35.0,-1,0.0,0.07880000000000109
265,32,0.5,0.0625,-35.0,-1,1.0,0.29739999999992506
266,32,0.5,1.0,-35.0,-1,1.0,0.1354999999998654
267,32,0.5,1.0,35.0,1,1.0,0.19419999999990978
268,32,0.5,0.25,-35.0,-1,1.0,0.2790999999997439
269,32,0.5,1.0,-35.0,-1,1.0,0.2744000000000142
270,32,0.5,1.0,35.0,1,1.0,0.32579999999984466
271,32,0.5,0.0625,35.0,1,1.0,0.4178999999999178
272,32,0.5,0.0,-35.0,1,0.0,0.6161999999999352
273,32,0.5,0.125,-35.0,-1,1.0,0.3082999999999174
274,32,0.5,0.125,-35.0,-1,1.0,0.21309999999994034
275,32,0.5,0.0625,-35.0,-1,1.0,0.17829999999980828
276,32,0.5,0.125,35.0,1,1.0,0.2097999999998592
277,32,0.5,0.125,-35.0,-1,1.0,0.11849999999981264
278,32,0.5,0.0625,35.0,1,1.0,0.20679999999993015
279,32,0.5,0.0625,35.0,-1,0.0,0.08230000000003201
280,32,0.5,0.0625,-35.0,-1,1.0,0.36019999999984975
281,32,0.5,1.0,-35.0,-1,1.0,0.27549999999973807
282,32,0.5,0.25,35.0,1,1.0,0.350400000000036
283,32,0.5,1.0,35.0,1,1.0,0.1858999999997195
284,32,0.5,1.0,-35.0,-1,1.0,0.22739999999976135
285,32,0.5,1.0,35.0,1,1.0,0.4558999999997013
286,32,0.5,0.25,35.0,1,1.0,0.4739999999999327
287,32,0.5,0.0625,35.0,1,1.0,0.7061999999998534
288,32,0.5,0.125,35.0,1,1.0,0.28099999999994907
289,32,0.5,1.0,35.0,1,1.0,0.18309999999974025
290,32,0.5,0.0625,-35.0,-1,1.0,0.14449999999987995
291,32,0.5,1.0,35.0,1,1.0,0.1998999999998432
292,32,0.5,0.0625,35.0,1,1.0,0.4412999999999556
293,32,0.5,0.0625,35.0,1,1.0,1.5167999999998756
294,32,0.5,0.125,35.0,1,1.0,0.2016999999998461
295,32,0.5,0.0,35.0,1,1.0,0.1801999999997861
296,32,0.5,1.0,-35.0,-1,1.0,0.2884999999998854
297,32,0.5,0.125,-35.0,1,0.0,0.21029999999996107
298,32,0.5,0.0,-35.0,1,0.0,0.1718999999998232
299,32,0.5,0.0625,35.0,1,1.0,0.2639999999998963
300,32,0.5,0.0625,35.0,1,1.0,0.18849999999974898
301,32,0.5,0.0625,-35.0,-1,1.0,0.8040999999998348
302,32,0.5,0.125,35.0,1,1.0,0.20239999999989777
303,32,0.5,0.25,35.0,1,1.0,0.34760000000005675
304,32,0.5,1.0,-35.0,-1,1.0,0.21239999999988868
305,32,0.5,1.0,35.0,1,1.0,0.20459999999980027
306,32,0.5,0.125,35.0,1,1.0,0.14269999999987704
307,32,0.5,1.0,-35.0,-1,1.0,0.23469999999997526
308,32,0.5,0.0,35.0,-1,0.0,0.26269999999999527
309,32,0.6,0.0,-35.0,-1,1.0,0.29149999999981446
310,32,0.5,1.0,-35.0,-1,1.0,0.3030999999998585
311,32,0.5,0.25,-35.0,-1,1.0,0.3184999999998581
312,32,0.5,0.125,35.0,1,1.0,0.23989999999980682
313,32,0.5,0.25,-35.0,-1,1.0,0.3452999999997246
314,32,0.5,0.0,35.0,-1,0.0,0.606899999999996
315,32,0.5,0.25,35.0,1,1.0,0.36219999999980246
316,32,0.5,0.0625,35.0,1,1.0,0.3004000000000815
317,32,0.5,0.25,-35.0,-1,1.0,0.47910000000001673
318,32,0.5,0.0625,35.0,1,1.0,0.22379999999975553
319,32,0.5,0.0625,35.0,-1,0.0,0.24250000000006366
320,32,0.5,0.0625,-35.0,1,0.0,0.2039999999999509
321,32,0.5,0.125,35.0,1,1.0,0.6761000000001332
322,32,0.5,0.125,-35.0,-1,1.0,0.36429999999973006
323,32,0.5,1.0,-35.0,-1,1.0,0.12969999999995707
324,32,0.5,0.25,35.0,-1,0.0,0.47089999999980137
325,32,0.5,0.125,35.0,1,1.0,0.2865999999999076
326,32,0.5,0.25,-35.0,-1,1.0,0.244499999999789
327,32,0.5,0.0,-35.0,1,0.0,0.7432999999998628
328,32,0.5,0.0625,-35.0,-1,1.0,0.4048000000000229
329,32,0.5,0.0,35.0,1,1.0,0.3468999999997777
330,32,0.5,0.25,35.0,1,1.0,0.24159999999983484
331,32,0.5,0.125,35.0,1,1.0,0.570299999999861
332,32,0.5,0.0625,35.0,1,1.0,0.422099999999773
333,32,0.5,0.25,35.0,1,1.0,0.37049999999976535
334,32,0.5,0.0,35.0,1,1.0,0.23540000000002692
335,32,0.5,0.0625,35.0,1,1.0,0.3407999999999447
336,32,0.5,1.0,-35.0,-1,1.0,0.165599999999813
337,32,0.5,0.25,-35.0,-1,1.0,0.2708999999997559
338,32,0.5,1.0,35.0,1,1.0,0.2723000000000866
339,32,0.5,0.125,35.0,1,1.0,0.33120000000008076
340,32,0.5,0.0625,-35.0,-1,1.0,0.24609999999961474
341,32,0.5,0.0625,35.0,1,1.0,0.15809999999987667
342,32,0.5,0.25,-35.0,-1,1.0,0.24299999999971078
343,32,0.5,0.0625,35.0,1,1.0,0.2880999999999858
344,32,0.5,0.0,-35.0,1,0.0,0.18640000000004875
345,32,0.5,0.125,-35.0,-1,1.0,0.16840000000001965
346,32,0.5,0.125,35.0,1,1.0,0.3631000000000313
347,32,0.5,0.0,-35.0,1,0.0,0.33199999999987995
348,32,0.5,0.25,35.0,1,1.0,0.3036000000001877
349,32,0.5,1.0,-35.0,-1,1.0,0.18879999999990105
350,32,0.5,0.125,35.0,1,1.0,0.30369999999993524
351,32,0.5,1.0,35.0,1,1.0,0.23569999999995161
352,32,0.5,0.25,35.0,1,1.0,0.21389999999973952
353,32,0.5,0.125,-35.0,1,0.0,0.11589999999978318
354,32,0.8,0.125,35.0,1,1.0,0.19409999999993488
355,32,0.5,1.0,35.0,1,1.0,0.1993999999999687
356,32,0.5,0.25,35.0,1,1.0,0.23759999999992942
357,32,0.5,0.125,-35.0,-1,1.0,0.2763999999997395
358,32,0.5,0.25,35.0,1,1.0,0.27789999999981774
359,32,0.5,1.0,-35.0,-1,1.0,0.23979999999983193
360,32,0.5,0.0625,-35.0,-1,1.0,0.15150000000016917
361,32,0.5,1.0,35.0,1,1.0,0.21359999999981483
362,32,0.5,0.0625,-35.0,-1,1.0,0.378400000000056
363,32,0.5,0.0,-35.0,1,0.0,0.4269000000001597
364,32,0.5,0.25,-35.0,1,0.0,0.30179999999973006
365,32,0.5,0.125,-35.0,-1,1.0,0.2306999999996151
366,32,0.5,0.25,35.0,1,1.0,0.2418999999999869
367,32,0.5,0.25,-35.0,1,0.0,0.12069999999994252
368,32,0.5,0.0625,-35.0,1,0.0,0.22229999999990468
369,32,0.5,0.0625,-35.0,-1,1.0,0.25759999999991123
370,32,0.5,0.25,-35.0,-1,1.0,0.2521999999999025
371,32,0.5,0.25,35.0,1,1.0,0.2076999999999316
372,32,0.5,1.0,-35.0,1,0.0,0.16260000000011132
373,32,0.7,1.0,-35.0,-1,1.0,0.2645999999999731
374,32,0.5,1.0,-35.0,-1,1.0,0.21289999999999054
375,32,0.5,0.0625,-35.0,1,0.0,0.16610000000014224
376,32,0.5,0.0,35.0,1,1.0,1.5214999999998327
377,32,0.5,0.0,-35.0,1,0.0,0.12309999999979482
378,32,0.5,0.0625,-35.0,-1,1.0,0.10829999999987194
379,32,0.5,0.125,35.0,1,1.0,0.12649999999985084
380,32,0.5,1.0,35.0,1,1.0,0.3386000000000422
381,32,0.5,1.0,35.0,-1,0.0,0.12019999999984066
382,32,0.5,0.0625,35.0,1,1.0,0.21529999999984284
383,32,0.5,1.0,-35.0,-1,1.0,0.30709999999999127
384,32,0.5,1.0,-35.0,-1,1.0,0.38560000000006767
385,32,0.5,0.0,-35.0,-1,1.0,1.1238999999998214
386,32,0.5,1.0,35.0,-1,0.0,0.28579999999988104
387,32,0.4,1.0,-35.0,-1,1.0,0.19069999999987886
388,32,0.5,1.0,35.0,1,1.0,0.21929999999997563
389,32,0.5,0.125,35.0,1,1.0,0.2807999999997719
390,32,0.5,0.0625,35.0,1,1.0,0.1795999999999367
391,32,0.5,0.0625,-35.0,-1,1.0,0.2976000000001022
392,32,0.5,0.125,35.0,1,1.0,0.3430999999998221
393,32,0.5,0.25,-35.0,-1,1.0,0.17460000000005493
394,32,0.5,1.0,-35.0,-1,1.0,0.25969999999983884
395,32,0.5,0.0625,-35.0,-1,1.0,0.09449999999992542
396,32,0.5,0.125,-35.0,1,0.0,0.19680000000016662
397,32,0.5,0.25,35.0,1,1.0,0.1716999999998734
398,32,0.5,1.0,35.0,-1,0.0,0.08699999999998909
399,32,0.5,1.0,-35.0,-1,1.0,0.29510000000004766
400,32,0.5,1.0,35.0,-1,0.0,0.10719999999969332
401,32,0.5,0.0625,-35.0,-1,1.0,0.39220000000000255
402,32,0.5,0.125,-35.0,-1,1.0,0.27070000000003347
403,32,0.5,1.0,35.0,1,1.0,0.27909999999997126
404,32,0.5,0.25,-35.0,-1,1.0,0.26089999999999236
405,32,0.5,0.125,35.0,-1,0.0,0.14919999999983702
406,32,0.5,0.0625,35.0,-1,0.0,0.2076999999999316
407,32,0.5,0.0,35.0,1,1.0,0.16279999999983374
408,32,0.5,0.0625,35.0,1,1.0,0.3679999999997108
409,32,0.5,1.0,35.0,1,1.0,0.31629999999972824
410,32,0.5,0.0,-35.0,-1,1.0,0.4180999999998676
411,32,0.5,0.25,-35.0,-1,1.0,0.09959999999978209
412,32,0.5,0.25,-35.0,-1,1.0,0.28189999999972315
413,32,0.5,0.0625,35.0,1,1.0,0.2965999999998985
414,32,0.5,1.0,35.0,1,1.0,0.2985000000001037
415,32,0.5,0.0,35.0,1,1.0,0.48349999999982174
416,32,0.5,0.0625,-35.0,-1,1.0,0.2720999999999094
417,32,0.5,0.125,35.0,1,1.0,0.11359999999990578
418,32,0.5,0.25,-35.0,-1,1.0,0.16239999999993415
419,32,0.5,0.0,35.0,-1,0.0,1.2739999999996598
420,32,0.4,0.0,35.0,1,1.0,0.1792000000000371
421,32,0.5,1.0,-35.0,-1,1.0,0.1974999999999909
422,32,0.5,0.25,35.0,1,1.0,0.1292999999998301
423,32,0.5,1.0,35.0,1,1.0,0.2878000000000611
424,32,0.5,0.0625,35.0,-1,0.0,0.16289999999980864
425,32,0.5,0.0625,35.0,-1,0.0,0.5745999999999185
426,32,0.5,0.125,35.0,-1,0.0,0.6965999999999894
427,32,0.5,0.125,35.0,1,1.0,6.641499999999951
428,32,0.5,1.0,35.0,1,1.0,0.25359999999977845
429,32,0.5,0.25,-35.0,-1,1.0,0.21179999999981192
430,32,0.5,0.125,-35.0,-1,1.0,0.1937000000000353
431,32,0.5,1.0,-35.0,-1,1.0,0.18859999999995125
432,32,0.5,0.125,-35.0,-1,1.0,0.21050000000013824
433,32,0.5,0.25,-35.0,-1,1.0,0.2055000000000291
434,32,0.5,1.0,35.0,1,1.0,0.24739999999997053
435,32,0.5,0.25,35.0,1,1.0,0.2556999999999334
436,32,0.5,0.25,35.0,1,1.0,0.23769999999990432
437,32,0.5,1.0,35.0,1,1.0,0.27909999999997126
438,32,0.5,0.0,-35.0,1,0.0,0.3211999999998625
439,32,0.5,0.0,-35.0,-1,1.0,0.13940000000002328
440,32,0.5,1.0,-35.0,-1,1.0,0.22469999999998436
441,32,0.5,0.0625,-35.0,-1,1.0,0.26299999999991996
442,32,0.5,0.0625,35.0,1,1.0,0.3082999999999174
443,32,0.5,0.0625,35.0,1,1.0,0.27979999999979555
444,32,0.5,0.125,35.0,1,1.0,0.6319999999998345
445,32,0.5,0.125,-35.0,-1,1.0,0.29989999999975225
446,32,0.5,1.0,35.0,1,1.0,0.3453999999999269
447,32,0.5,0.0625,35.0,1,1.0,0.4070999999999003
448,32,0.5,0.25,-35.0,-1,1.0,0.24549999999999272
449,32,0.5,1.0,-35.0,1,0.0,0.16039999999975407
450,32,0.5,0.0,-35.0,-1,1.0,0.30579999999986285
451,32,0.5,0.125,35.0,1,1.0,0.34409999999979846
452,32,0.5,1.0,-35.0,-1,1.0,0.2459999999998672
453,32,0.5,0.0625,-35.0,1,0.0,1.5442000000000462
454,32,0.5,0.0,35.0,-1,0.0,0.1994999999999436
455,32,0.5,0.25,-35.0,-1,1.0,0.3443999999999505
456,32,0.5,0.125,-35.0,-1,1.0,0.2363999999997759
457,32,0.5,0.25,35.0,1,1.0,0.2447999999997137
458,32,0.5,0.25,-35.0,-1,1.0,0.28339999999980137
459,32,0.5,0.125,-35.0,1,0.0,0.14829999999983556
460,32,0.4,0.125,35.0,1,1.0,0.43679999999972097
461,32,0.5,1.0,-35.0,-1,1.0,0.13169999999990978
462,32,0.5,0.0625,-35.0,-1,1.0,0.36039999999979955
463,32,0.5,0.125,-35.0,-1,1.0,0.24189899999987574
464,32,0.5,1.0,-35.0,-1,1.0,0.3805999999999585
465,32,0.5,1.0,-35.0,-1,1.0,0.28559999999993124
466,32,0.5,0.125,35.0,1,1.0,0.6074999999998454
467,32,0.5,0.125,-35.0,-1,1.0,0.28919999999993706
468,32,0.5,1.0,-35.0,-1,1.0,0.45109999999976935
469,32,0.5,0.125,35.0,-1,0.0,0.4959999999998672
470,32,0.5,0.0625,-35.0,-1,1.0,0.5712999999998374
471,32,0.5,0.25,-35.0,-1,1.0,0.1994999999999436
472,32,0.5,0.0625,35.0,1,1.0,0.4148999999999887
473,32,0.5,0.125,35.0,1,1.0,0.43309999999974025
474,32,0.5,1.0,35.0,1,1.0,0.34839999999985594
475,32,0.5,0.25,35.0,1,1.0,0.26009999999973843
476,32,0.5,0.125,-35.0,-1,1.0,0.24519999999984066
477,32,0.5,0.125,35.0,1,1.0,0.326799999999821
478,32,0.5,0.0625,-35.0,-1,1.0,0.47220000000015716
479,32,0.5,0.125,-35.0,-1,1.0,0.21359999999981483
480,32,0.5,1.0,35.0,1,1.0,0.28559999999993124
481,32,0.5,0.0625,35.0,1,1.0,0.24699999999984357
482,32,0.5,0.125,-35.0,-1,1.0,0.20240000000012515
483,32,0.5,0.0625,35.0,1,1.0,0.27719999999999345
484,32,0.5,0.0625,35.0,-1,0.0,0.15269999999986794
485,32,0.5,0.25,-35.0,-1,1.0,0.28739999999993415
486,32,0.5,0.0625,35.0,1,1.0,0.466099999999642
487,32,0.5,1.0,-35.0,-1,1.0,0.3574999999998454
488,32,0.5,1.0,35.0,1,1.0,0.2929999999998927
489,32,0.5,1.0,-35.0,-1,1.0,0.23099999999999454
490,32,0.5,1.0,-35.0,-1,1.0,0.22309999999970387
491,32,0.5,0.25,35.0,1,1.0,0.3713999999999942
492,32,0.5,0.0625,-35.0,1,0.0,0.7665999999999258
493,32,0.5,0.0625,-35.0,-1,1.0,0.8214999999997872
494,32,0.5,1.0,35.0,1,1.0,0.30680000000029395
495,32,0.5,0.25,-35.0,-1,1.0,0.24510000000009313
496,32,0.5,0.125,35.0,1,1.0,0.25700000000006185
497,32,0.5,0.25,-35.0,-1,1.0,0.3454999999999018
498,32,0.5,0.0625,35.0,-1,0.0,0.09400000000005093
499,32,0.4,0.0625,35.0,1,1.0,0.5021999999999025
500,32,0.5,1.0,35.0,1,1.0,0.19079999999985375
501,32,0.5,0.25,-35.0,-1,1.0,0.31910000000016225
502,32,0.5,0.25,-35.0,-1,1.0,0.2011000000002241
503,32,0.5,0.25,35.0,1,1.0,0.2826000000000022
504,32,0.5,0.0,-35.0,1,0.0,0.10470000000032087
505,32,0.5,0.0625,-35.0,-1,1.0,0.5462000000002263
506,32,0.5,0.125,35.0,-1,0.0,0.12150000000019645
507,32,0.5,0.125,-35.0,-1,1.0,0.30310000000008586
508,32,0.5,0.125,-35.0,1,0.0,0.13499999999976353
509,32,0.5,0.0625,-35.0,-1,1.0,0.35669999999981883
510,32,0.5,0.125,35.0,1,1.0,0.33179999999993015
511,32,0.5,0.25,35.0,1,1.0,0.34349999999994907
512,32,0.5,1.0,-35.0,-1,1.0,0.16220000000021173
513,32,0.5,0.0625,35.0,1,1.0,0.39700000000038926
514,32,0.5,1.0,35.0,1,1.0,0.2191000000002532
515,32,0.5,1.0,-35.0,-1,1.0,0.203899999999976
516,32,0.5,0.125,-35.0,1,0.0,0.13590000000021973
517,32,0.5,0.0625,-35.0,1,0.0,0.14760000000023865
518,32,0.5,0.0625,-35.0,-1,1.0,0.3292999999998756
519,32,0.5,0.125,35.0,1,1.0,0.29100000000016735
520,32,0.5,0.0625,35.0,1,1.0,0.15990000000010696
521,32,0.5,0.0625,-35.0,-1,1.0,0.13459999999986394
522,32,0.5,0.0625,-35.0,-1,1.0,0.3565000000003238
523,32,0.5,1.0,35.0,1,1.0,0.34809999999970387
524,32,0.5,0.125,35.0,1,1.0,0.4800000000000182
525,32,0.5,1.0,35.0,1,1.0,0.1550999999999476
526,32,0.5,1.0,-35.0,-1,1.0,0.24680000000034852
527,32,0.5,1.0,35.0,1,1.0,0.25840000000016516
528,32,0.5,0.25,-35.0,-1,1.0,0.3004000000000815
529,32,0.5,0.25,35.0,1,1.0,0.18190000000004147
530,32,0.5,0.125,-35.0,-1,1.0,0.25060000000030414
531,32,0.5,1.0,35.0,1,1.0,0.37550000000010186
532,32,0.5,0.0,35.0,-1,0.0,1.3208000000004176
533,32,0.6,0.0,35.0,1,1.0,0.5090000000000146
534,32,0.5,1.0,35.0,1,1.0,0.20089999999981956
535,32,0.5,0.0,-35.0,-1,1.0,0.24240000000008877
536,32,0.5,0.25,35.0,1,1.0,0.5513000000005377
537,32,0.5,0.0,35.0,-1,0.0,1.3661000000001877
538,32,0.5,0.0,35.0,1,1.0,0.13140000000021246
539,32,0.5,1.0,-35.0,-1,1.0,0.22299999999995634
540,32,0.5,0.0625,35.0,1,1.0,0.4082000000003063
541,32,0.5,0.25,-35.0,-1,1.0,0.17970000000013897
542,32,0.5,1.0,-35.0,-1,1.0,0.29839999999967404
543,32,0.5,0.25,-35.0,-1,1.0,0.2765999999996893
544,32,0.5,1.0,35.0,1,1.0,0.2887999999998101
545,32,0.5,0.125,35.0,1,1.0,0.30700000000024374
546,32,0.5,1.0,35.0,1,1.0,0.42590000000018335
547,32,0.5,0.0,-35.0,1,0.0,0.8040000000000873
548,32,0.5,0.125,-35.0,-1,1.0,0.2559000000001106
549,32,0.5,0.25,35.0,1,1.0,0.2739999999998872
550,32,0.5,0.0625,35.0,1,1.0,0.22270000000025902
551,32,0.5,0.0625,35.0,1,1.0,0.5774000000001251
552,32,0.5,0.25,-35.0,-1,1.0,0.292800000000625
553,32,0.5,1.0,-35.0,-1,1.0,0.6612999999997555
554,32,0.5,0.125,-35.0,-1,1.0,0.45640000000003056
555,32,0.5,0.125,35.0,1,1.0,0.15799999999990177
556,32,0.5,0.25,-35.0,-1,1.0,0.2399000000000342
557,32,0.5,0.0,35.0,-1,0.0,1.4216999999998734
558,32,0.5,0.0,-35.0,-1,1.0,0.5203000000001339
559,32,0.5,0.25,-35.0,-1,1.0,0.18849999999974898
560,32,0.5,0.125,35.0,1,1.0,0.31379999999990105
561,32,0.5,0.25,35.0,1,1.0,0.19520000000056825
562,32,0.5,0.125,35.0,1,1.0,0.16719999999986612
563,32,0.5,0.25,-35.0,-1,1.0,0.16560000000026776
564,32,0.5,0.125,35.0,1,1.0,0.3075000000003456
565,32,0.5,1.0,35.0,1,1.0,0.16889999999966676
566,32,0.5,0.125,35.0,1,1.0,0.340900000000147
567,32,0.5,0.25,35.0,1,1.0,0.1893000000000029
568,32,0.5,1.0,35.0,1,1.0,0.3112999999998465
569,32,0.5,0.0625,-35.0,-1,1.0,0.1392000000000735
570,32,0.5,1.0,35.0,1,1.0,0.2480000000000473
571,32,0.5,0.125,35.0,1,1.0,0.2129000000004453
572,32,0.5,0.25,-35.0,-1,1.0,0.6916000000001077
573,32,0.5,0.125,-35.0,-1,1.0,0.30669999999963693
574,32,0.5,0.25,35.0,1,1.0,0.25180000000045766
575,32,0.5,1.0,-35.0,-1,1.0,0.08989999999994325
576,32,0.5,0.125,35.0,1,1.0,0.4453000000003158
577,32,0.5,0.25,-35.0,1,0.0,0.17689999999993233
578,32,0.5,0.125,-35.0,-1,1.0,0.2921999999998661
579,32,0.5,0.0625,35.0,1,1.0,0.23389999999972133
580,32,0.5,0.125,-35.0,1,0.0,0.16239999999970678
581,32,0.5,0.0625,35.0,1,1.0,0.41400000000021464
582,32,0.5,0.125,-35.0,-1,1.0,0.2058999999999287
583,32,0.5,0.25,35.0,1,1.0,0.3042000000000371
584,32,0.5,0.25,-35.0,-1,1.0,0.19279999999980646
585,32,0.5,0.0625,35.0,1,1.0,0.29430000000047585
586,32,0.5,0.0,-35.0,-1,1.0,1.8797000000004118
587,32,0.5,0.25,-35.0,-1,1.0,0.2278000000001157
588,32,0.5,0.125,35.0,1,1.0,0.403400000000147
589,32,0.5,0.0625,35.0,-1,0.0,0.125
590,32,0.5,0.0625,35.0,1,1.0,0.6535000000003492
591,32,0.5,1.0,-35.0,-1,1.0,0.2885000000001128
592,32,0.5,0.125,35.0,1,1.0,0.13700000000017099
593,32,0.5,0.125,-35.0,-1,1.0,0.40850000000000364
594,32,0.5,0.25,-35.0,-1,1.0,0.27719999999999345
595,32,0.5,0.0,35.0,1,1.0,0.4720999999999549
596,32,0.5,0.125,-35.0,-1,1.0,0.3708000000001448
597,32,0.5,0.25,35.0,-1,0.0,0.12900000000036016
598,32,0.5,0.0625,-35.0,-1,1.0,0.1344000000003689
599,32,0.5,0.125,-35.0,-1,1.0,0.2692000000001826
600,32,0.5,1.0,-35.0,-1,1.0,0.30460000000039145
601,32,0.5,0.0625,-35.0,1,0.0,1.4361000000003514
602,32,0.5,0.25,35.0,1,1.0,0.4946999999997388
603,32,0.5,0.125,35.0,1,1.0,0.5830000000000837
604,32,0.5,0.0625,-35.0,-1,1.0,0.25820000000021537
605,32,0.5,0.25,35.0,1,1.0,0.21010000000023865
606,32,0.5,0.125,-35.0,1,0.0,0.41190000000005966
607,32,0.5,0.25,35.0,1,1.0,0.3568000000000211
608,32,0.5,1.0,35.0,1,1.0,0.2319999999999709
609,32,0.5,1.0,35.0,1,1.0,0.27690000000029613
610,32,0.5,0.0,-35.0,1,0.0,0.3554999999996653
611,32,0.5,0.25,35.0,1,1.0,0.27700000000004366
612,32,0.5,0.0625,35.0,1,1.0,0.16229999999995925
613,32,0.5,0.25,-35.0,-1,1.0,0.2739000000001397
614,32,0.5,0.25,35.0,-1,0.0,0.3358000000002903
615,32,0.5,0.125,-35.0,-1,1.0,0.34760000000005675
616,32,0.5,0.125,35.0,1,1.0,0.3261999999999716
617,32,0.5,0.0625,35.0,1,1.0,0.3644000000003871
618,32,0.5,0.125,35.0,1,1.0,0.24309999999968568
619,32,0.5,0.25,35.0,-1,0.0,0.1180000000003929
620,32,0.5,0.0625,-35.0,-1,1.0,0.4431000000004133
621,32,0.5,0.25,-35.0,1,0.0,0.46660000000019863
622,32,0.5,0.0625,35.0,1,1.0,0.38350000000036744
623,32,0.5,0.25,35.0,1,1.0,0.2015000000001237
624,32,0.5,0.125,35.0,1,1.0,0.1301999999996042
625,32,0.5,0.0,-35.0,1,0.0,0.14190000000007785
626,32,0.5,0.0,-35.0,1,0.0,0.8374000000003434
627,32,0.5,0.0625,35.0,1,1.0,0.4520999999999731
628,32,0.5,1.0,-35.0,-1,1.0,0.1538999999997941
629,32,0.5,1.0,-35.0,-1,1.0,0.20240000000012515
630,32,0.5,0.25,-35.0,-1,1.0,0.2341999999998734
631,32,0.5,0.0,-35.0,-1,1.0,2.2325000000000728
632,32,0.5,0.125,35.0,1,1.0,0.2478000000000975
633,32,0.5,0.125,35.0,1,1.0,0.13599999999996726
634,32,0.5,1.0,-35.0,-1,1.0,0.29140000000006694
635,32,0.5,1.0,35.0,1,1.0,0.16290000000071814
636,32,0.5,0.125,-35.0,1,0.0,0.15489999999999782
637,32,0.5,0.0625,35.0,1,1.0,0.339900000000398
638,32,0.5,0.0625,-35.0,-1,1.0,0.30500000000029104
639,32,0.5,0.0625,35.0,-1,0.0,0.12659999999959837
640,32,0.5,0.0625,-35.0,-1,1.0,0.3186000000000604
641,32,0.5,1.0,35.0,1,1.0,0.27020000000038635
642,32,0.5,0.25,35.0,1,1.0,0.35210000000006403
643,32,0.5,0.0625,35.0,1,1.0,0.15689999999995052
644,32,0.5,1.0,35.0,1,1.0,0.09910000000036234
645,32,0.5,0.125,-35.0,1,0.0,0.14730000000054133
646,32,0.5,0.125,35.0,1,1.0,0.38249999999970896
647,32,0.5,0.125,35.0,1,1.0,0.14390000000003056
648,32,0.5,1.0,-35.0,-1,1.0,0.2626000000000204
649,32,0.5,0.25,35.0,1,1.0,0.21109999999998763
650,32,0.5,0.0625,-35.0,-1,1.0,0.2794999999996435
651,32,0.5,0.0625,35.0,-1,0.0,0.12449999999989814
652,32,0.5,0.25,-35.0,-1,1.0,0.1864000000005035
653,32,0.5,0.0,35.0,1,1.0,0.8580000000001746
654,32,0.5,0.0,35.0,-1,0.0,0.16010000000005675
655,32,0.5,0.25,-35.0,-1,1.0,0.3514999999997599
656,32,0.5,0.25,-35.0,-1,1.0,0.35019999999985885
657,32,0.5,0.125,35.0,1,1.0,0.2820000000001528
658,32,0.5,1.0,-35.0,-1,1.0,0.23050000000012005
659,32,0.5,0.25,-35.0,-1,1.0,0.25880000000006476
660,32,0.5,0.25,35.0,1,1.0,0.4238999999997759
661,32,0.5,0.0625,-35.0,-1,1.0,0.3456000000005588
662,32,0.5,0.0625,35.0,-1,0.0,0.47080000000005384
663,32,0.5,0.0625,-35.0,-1,1.0,0.33920000000034634
664,32,0.5,0.0,-35.0,-1,1.0,0.7409999999999854
665,32,0.5,0.0625,35.0,1,1.0,0.39920000000029177
666,32,0.5,0.0,-35.0,1,0.0,0.5712000000003172
667,32,0.5,0.0625,-35.0,-1,1.0,0.30290000000013606
668,32,0.5,0.0,35.0,-1,0.0,0.1548000000002503
669,32,0.5,0.25,35.0,-1,0.0,0.40980000000035943
670,32,0.5,0.0625,35.0,-1,0.0,0.7251000000001113
671,32,0.5,0.25,35.0,1,1.0,0.4131999999999607
672,32,0.5,1.0,-35.0,-1,1.0,0.26510000000007494
673,32,0.5,0.25,35.0,1,1.0,0.2569000000003143
674,32,0.5,0.25,35.0,1,1.0,0.3053000000004431
675,32,0.5,0.0625,-35.0,-1,1.0,0.25360000000046057
676,32,0.5,0.25,-35.0,1,0.0,0.1089999999999236
677,32,0.5,0.25,-35.0,1,0.0,0.17709999999988213
678,32,0.5,0.25,-35.0,-1,1.0,0.309200000000601
679,32,0.5,1.0,-35.0,-1,1.0,0.13079999999990832
680,32,0.5,1.0,-35.0,-1,1.0,0.30270000000018626
681,32,0.5,0.0625,-35.0,-1,1.0,0.44430000000011205
682,32,0.5,0.0625,-35.0,1,0.0,0.37290000000029977
683,32,0.5,0.0,35.0,-1,0.0,0.6912000000002081
684,32,0.4,0.0,35.0,-1,0.0,0.8132999999997992
685,32,0.5,1.0,35.0,1,1.0,0.4212999999999738
686,32,0.5,0.0,-35.0,-1,1.0,0.37340000000040163
687,32,0.5,0.25,35.0,1,1.0,0.24479999999994106
688,32,0.5,0.0,35.0,1,1.0,0.3301000000001295
689,32,0.5,0.25,-35.0,-1,1.0,0.2784999999998945
690,32,0.5,1.0,35.0,-1,0.0,2.4671000000003005
691,32,0.4,1.0,35.0,1,1.0,2.792000000000371
692,32,0.5,1.0,35.0,1,1.0,1.2274999999999636
693,32,0.5,0.25,-35.0,-1,1.0,0.24920000000020082
694,32,0.5,0.0,35.0,1,1.0,0.3308999999999287
695,32,0.5,0.25,-35.0,-1,1.0,0.5291999999999462
696,32,0.5,1.0,35.0,1,1.0,0.5477999999998246
697,32,0.5,0.0,35.0,1,1.0,0.6897000000003572
698,32,0.5,0.125,35.0,1,1.0,0.3380000000001928
699,32,0.5,0.25,35.0,1,1.0,0.33290000000033615
700,32,0.5,1.0,-35.0,1,0.0,0.11819999999988795
701,32,0.5,0.25,-35.0,-1,1.0,0.2199000000000524
702,32,0.5,1.0,-35.0,-1,1.0,0.26170000000047366
703,32,0.5,1.0,-35.0,-1,1.0,0.17000000000007276
704,32,0.5,1.0,35.0,1,1.0,0.1653000000001157
705,32,0.5,0.125,-35.0,1,0.0,0.2270000000003165
706,32,0.5,0.0,-35.0,1,0.0,2.518999999999778
707,32,0.5,0.25,-35.0,-1,1.0,0.2705000000000837
708,32,0.5,0.25,-35.0,1,0.0,0.1823999999996886
709,32,0.6,0.25,-35.0,-1,1.0,0.30070000000023356
710,32,0.5,1.0,35.0,1,1.0,0.21600000000034925
711,32,0.5,0.0,35.0,1,1.0,0.4110000000000582
712,32,0.5,0.25,35.0,1,1.0,0.31280000000015207
713,32,0.5,0.25,35.0,1,1.0,0.2677000000003318
714,32,0.5,0.125,-35.0,-1,1.0,0.3364000000001397
715,32,0.5,1.0,-35.0,-1,1.0,0.22139999999990323
716,32,0.5,1.0,-35.0,-1,1.0,0.22319999999990614
717,32,0.5,0.0,35.0,-1,0.0,0.24150000000054206
718,32,0.5,0.0625,35.0,1,1.0,0.2068000000003849
719,32,0.5,1.0,35.0,1,1.0,0.16520000000036816
720,32,0.5,0.0,-35.0,-1,1.0,0.09040000000004511
721,32,0.5,1.0,-35.0,1,0.0,0.10210000000006403
722,32,0.5,1.0,-35.0,-1,1.0,0.20049999999991996
723,32,0.5,1.0,35.0,1,1.0,0.30209999999988213
724,32,0.5,0.0625,35.0,-1,0.0,0.14409999999998035
725,32,0.5,0.0625,35.0,1,1.0,0.505699999999706
726,32,0.5,1.0,-35.0,-1,1.0,0.21450000000004366
727,32,0.5,0.0,-35.0,1,0.0,0.5758000000005268
728,32,0.5,0.25,-35.0,-1,1.0,0.4877999999998792
729,32,0.5,0.0,35.0,-1,0.0,0.8461000000002059
730,32,0.5,0.125,35.0,1,1.0,0.32799999999997453
731,32,0.5,0.0625,35.0,1,1.0,0.14620000000013533
732,32,0.5,0.25,-35.0,-1,1.0,0.22820000000001528
733,32,0.5,0.125,35.0,1,1.0,0.20980000000008658
734,32,0.5,0.0,35.0,-1,0.0,0.4050999999999476
735,32,0.5,0.125,35.0,1,1.0,0.2566999999999098
736,32,0.5,0.125,-35.0,-1,1.0,0.2519999999999527
737,32,0.5,0.0,-35.0,1,0.0,0.14699999999993452
738,32,0.5,0.0625,-35.0,-1,1.0,1.0504000000000815
739,32,0.5,0.125,35.0,1,1.0,0.38229999999975917
740,32,0.5,0.125,-35.0,-1,1.0,0.32090000000016516
741,32,0.5,0.25,35.0,1,1.0,0.19610000000011496
742,32,0.5,0.25,-35.0,-1,1.0,0.17090000000007421
743,32,0.5,1.0,35.0,1,1.0,0.14270000000033178
744,32,0.5,0.0,-35.0,1,0.0,0.19439999999985957
745,32,0.5,0.0625,-35.0,-1,1.0,0.27300000000013824
746,32,0.5,1.0,35.0,1,1.0,0.3380000000001928
747,32,0.5,0.125,35.0,1,1.0,0.3832999999999629
748,32,0.5,0.25,35.0,1,1.0,0.32470000000057553
749,32,0.5,0.0625,-35.0,1,0.0,0.14680000000043947
750,32,0.7,0.0625,35.0,1,1.0,0.4283000000004904
751,32,0.5,1.0,-35.0,-1,1.0,0.1570000000001528
752,32,0.5,1.0,35.0,1,1.0,0.1653000000001157
753,32,0.5,0.125,35.0,1,1.0,0.2937000000001717
754,32,0.5,0.125,-35.0,-1,1.0,0.23880000000008295
755,32,0.5,0.0625,35.0,1,1.0,0.24390000000039436
756,32,0.5,0.125,35.0,1,1.0,0.28890000000001237
757,32,0.5,0.0625,35.0,-1,0.0,0.3510000000001128
758,32,0.7,0.0625,-35.0,1,0.0,0.2559000000001106
759,32,0.5,1.0,-35.0,-1,1.0,0.31100000000014916
760,32,0.5,1.0,-35.0,-1,1.0,0.1993000000002212
761,32,0.5,0.125,-35.0,-1,1.0,0.2814000000003034
762,32,0.5,0.0625,35.0,1,1.0,0.3528999999998632
763,32,0.5,0.125,35.0,1,1.0,0.2681000000002314
764,32,0.5,0.25,35.0,1,1.0,0.2798999999999978
765,32,0.5,0.125,35.0,1,1.0,0.29850000000033106
766,32,0.5,0.25,35.0,1,1.0,0.15980000000035943
767,32,0.5,0.25,35.0,1,1.0,0.35499999999956344
768,32,0.5,0.0625,-35.0,-1,1.0,0.3067000000000917
769,32,0.5,1.0,35.0,1,1.0,0.22870000000011714
770,32,0.5,1.0,35.0,1,1.0,0.17020099999990634
771,32,0.5,0.0625,35.0,1,1.0,0.49890099999993254
772,32,0.5,1.0,35.0,1,1.0,0.3004009999999653
773,32,0.5,0.125,-35.0,1,0.0,0.17910100000017337
774,32,0.9,0.125,-35.0,-1,1.0,0.21400100000028033
775,32,0.5,1.0,-35.0,-1,1.0,0.23260100000015882
776,32,0.5,0.25,35.0,1,1.0,0.3244009999998525
777,32,0.5,0.0,-35.0,1,0.0,1.2194009999998343
778,32,0.5,0.25,35.0,1,1.0,0.4078010000002905
779,32,0.5,0.25,35.0,1,1.0,0.17630099999996673
780,32,0.5,0.0625,-35.0,-1,1.0,0.2680009999999129
781,32,0.5,0.25,35.0,1,1.0,0.29660100000000966
782,32,0.5,0.125,35.0,1,1.0,0.16490100000009988
783,32,0.5,0.0625,35.0,1,1.0,0.11670100000037564
784,32,0.5,0.125,-35.0,1,0.0,0.1716010000004644
785,32,0.5,0.125,35.0,1,1.0,0.30690099999992526
786,32,0.5,0.125,35.0,1,1.0,0.1318009999995411
787,32,0.5,0.125,-35.0,1,0.0,0.5571009999998751
788,32,0.5,0.25,35.0,1,1.0,0.2789010000001326
789,32,0.5,0.0625,-35.0,-1,1.0,0.2973010000000613
790,32,0.5,0.25,35.0,1,1.0,0.1625010000002476
791,32,0.5,0.0,-35.0,1,0.0,0.20750100000032035
792,32,0.5,0.0,35.0,1,1.0,0.3859009999996488
793,32,0.5,0.125,-35.0,1,0.0,0.17100100000016027
794,32,0.5,0.0625,-35.0,1,0.0,0.29590100000041275
795,32,0.5,0.25,-35.0,-1,1.0,0.24470100000007733
796,32,0.5,0.0625,-35.0,-1,1.0,0.3395010000003822
797,32,0.5,1.0,35.0,1,1.0,0.23820100000011735
798,32,0.5,1.0,35.0,1,1.0,0.44300099999964004
799,32,0.5,1.0,-35.0,-1,1.0,0.2250010000002476
800,32,0.5,0.25,35.0,1,1.0,0.28660100000024613
801,32,0.5,0.0625,35.0,1,1.0,0.2719010000000708
802,32,0.5,0.25,-35.0,-1,1.0,0.2501009999996313
803,32,0.5,1.0,-35.0,-1,1.0,0.21210100000007515
804,32,0.5,0.25,35.0,1,1.0,0.2639010000007147
805,32,0.5,0.25,35.0,1,1.0,0.2824010000003909
806,32,0.5,0.0625,-35.0,-1,1.0,0.4306010000000242
807,32,0.5,0.0,35.0,1,1.0,0.4657009999996262
808,32,0.5,1.0,-35.0,-1,1.0,0.2507010000003902
809,32,0.5,0.0,35.0,1,1.0,0.14930099999992308
810,32,0.5,0.25,35.0,1,1.0,0.24770099999977901
811,32,0.5,0.125,35.0,1,1.0,0.3029010000004746
812,32,0.5,0.25,-35.0,1,0.0,0.0911010000004353
813,32,0.7,0.25,-35.0,-1,1.0,0.15970100000004095
814,32,0.5,1.0,35.0,1,1.0,0.17470100000036837
815,32,0.5,0.25,35.0,1,1.0,0.35010100000044986
816,32,0.5,1.0,35.0,1,1.0,0.3083010000000286
817,32,0.5,0.0,-35.0,-1,1.0,0.6569009999998343
818,32,0.5,1.0,-35.0,-1,1.0,0.18850100000008752
819,32,0.5,0.125,-35.0,-1,1.0,0.25050099999998565
820,32,0.5,0.0625,35.0,1,1.0,0.2053009999999631
821,32,0.5,1.0,35.0,1,1.0,0.2273009999998976
822,32,0.5,0.0,-35.0,1,0.0,4.035601000000042
823,32,0.5,0.125,35.0,1,1.0,1.3143009999998867
824,32,0.5,0.0625,35.0,-1,0.0,0.7662010000003647
825,32,0.5,0.0,35.0,-1,0.0,3.9617010000001756
826,32,0.5,0.125,35.0,-1,0.0,6.523200999999972
827,32,0.5,0.125,-35.0,-1,1.0,1.415400999999747
828,32,0.5,1.0,-35.0,-1,1.0,2.9937010000003283
829,32,0.5,0.125,-35.0,-1,1.0,1.2791010000000824
830,32,0.5,0.0625,-35.0,-1,1.0,3.0842010000005757
831,32,0.5,0.125,35.0,-1,0.0,2.662600999999995
832,32,0.2,0.125,35.0,-1,0.0,3.7477010000002338
833,32,0.5,1.0,35.0,-1,0.0,2.6063010000002578
834,32,0.0,1.0,35.0,-1,0.0,0.7947010000002592
835,32,0.0,1.0,35.0,-1,0.0,12.750101000000086
836,32,0.0,1.0,35.0,1,1.0,1.8687010000003283
837,32,0.5,1.0,35.0,-1,0.0,3.210700999999517
838,32,0.1,1.0,35.0,-1,0.0,3.0890010000002803
839,32,0.1,1.0,35.0,-1,0.0,3.057600999999977
840,32,0.1,1.0,35.0,-1,0.0,5.202600999999959
841,32,0.1,1.0,35.0,1,1.0,3.1446010000004208
842,32,0.5,1.0,35.0,1,1.0,0.9297010000000228
843,32,0.5,1.0,-35.0,1,0.0,1.1949009999998452
844,32,0.5,0.0625,35.0,-1,0.0,4.8133010000005925
845,32,0.5,0.0,35.0,-1,0.0,0.7920009999998001
846,32,0.5,0.25,-35.0,-1,1.0,2.047001000000364
847,32,0.5,0.25,35.0,-1,0.0,2.8089010000003327
848,32,0.5,0.0625,-35.0,1,0.0,5.30060100000037
849,32,0.4,0.0625,35.0,1,1.0,7.842801000000691
850,32,0.5,1.0,35.0,1,1.0,7.964700999999877
851,32,0.5,0.0625,35.0,1,1.0,3.8199010000003
852,32,0.5,0.125,-35.0,1,0.0,7.275000999999975
853,32,0.6,0.125,35.0,1,1.0,4.343800999999985
854,32,0.5,1.0,-35.0,1,0.0,8.905701000000136
855,32,0.7,1.0,35.0,1,1.0,3.3843010000000504
856,32,0.5,1.0,-35.0,-1,1.0,5.83270100000027
857,32,0.5,0.25,-35.0,-1,1.0,8.62150100000008
858,32,0.5,0.25,35.0,1,1.0,26.879801000000498
859,32,0.5,0.125,35.0,1,1.0,1.4924009999999726
860,32,0.5,1.0,35.0,1,1.0,0.47730100000035236
861,32,0.5,1.0,35.0,1,1.0,2.3760010000000875
862,32,0.5,0.125,-35.0,-1,1.0,1.7509009999998852
863,32,0.5,0.0,35.0,1,1.0,1.33290100000022
1,33,0.5,0.125,35.0,1,1.0,53.4949
2,33,0.5,0.0625,35.0,1,1.0,0.2697999999999965
3,33,0.5,0.25,35.0,1,1.0,0.23470000000000368
4,33,0.5,0.0625,35.0,-1,0.0,0.4890000000000043
5,33,0.9,0.0625,-35.0,-1,1.0,0.5028999999999968
6,33,0.5,1.0,-35.0,-1,1.0,0.21270000000001232
7,33,0.5,0.125,35.0,1,1.0,0.6350000000000051
8,33,0.5,0.0625,-35.0,-1,1.0,0.6280000000000001
9,33,0.5,0.25,-35.0,-1,1.0,1.42710000000001
10,33,0.5,0.0625,35.0,1,1.0,0.6328000000000031
11,33,0.5,0.25,-35.0,-1,1.0,0.2640999999999991
12,33,0.5,1.0,35.0,1,1.0,0.5058999999999969
13,33,0.5,0.25,-35.0,-1,1.0,0.14300000000000068
14,33,0.5,0.0625,-35.0,-1,1.0,0.3445000000000107
15,33,0.5,1.0,35.0,1,1.0,0.3194000000000017
16,33,0.5,0.0625,-35.0,-1,1.0,0.2524999999999977
17,33,0.5,0.0625,35.0,1,1.0,0.5828999999999951
18,33,0.5,0.25,35.0,1,1.0,0.5751000000000204
19,33,0.5,0.125,35.0,1,1.0,0.5976000000000283
20,33,0.5,0.125,35.0,1,1.0,0.5038000000000125
21,33,0.5,0.0625,-35.0,-1,1.0,0.3631000000000313
22,33,0.5,0.125,35.0,1,1.0,0.5271999999999935
23,33,0.5,1.0,-35.0,-1,1.0,0.24669999999997572
24,33,0.5,0.0625,35.0,1,1.0,0.9036999999999864
25,33,0.5,0.125,-35.0,-1,1.0,0.36940000000001305
26,33,0.5,0.125,35.0,1,1.0,0.36110000000002174
27,33,0.5,1.0,-35.0,1,0.0,0.11209999999999809
28,33,0.5,0.25,-35.0,-1,1.0,0.6024000000000171
29,33,0.5,1.0,35.0,1,1.0,0.3352000000000146
30,33,0.5,0.25,-35.0,-1,1.0,0.5609000000000037
31,33,0.5,0.125,-35.0,-1,1.0,1.9887999999999977
32,33,0.5,0.0625,-35.0,-1,1.0,1.2190999999999974
33,33,0.5,0.25,-35.0,-1,1.0,4.333200000000005
34,33,0.5,0.125,35.0,1,1.0,0.5039999999999907
35,33,0.5,1.0,-35.0,-1,1.0,0.4218999999999937
36,33,0.5,0.125,35.0,1,1.0,1.629700000000014
37,33,0.5,0.0,35.0,1,1.0,1.5243999999999858
38,33,0.5,0.25,-35.0,-1,1.0,0.29240000000001487
39,33,0.5,1.0,-35.0,-1,1.0,0.3879000000000019
40,33,0.5,0.125,35.0,1,1.0,0.26530000000002474
41,33,0.5,0.0625,-35.0,-1,1.0,0.3921999999999741
42,33,0.5,0.25,35.0,1,1.0,0.24240000000003192
43,33,0.5,0.25,35.0,1,1.0,0.5268000000000086
44,33,0.5,1.0,35.0,1,1.0,0.43420000000000414
45,33,0.5,0.0625,-35.0,-1,1.0,0.4119000000000028
46,33,0.5,0.25,35.0,1,1.0,0.3386000000000138
47,33,0.5,1.0,35.0,1,1.0,0.370900000000006
48,33,0.5,0.0625,35.0,1,1.0,0.6846000000000174
49,33,0.5,0.25,-35.0,-1,1.0,0.440400000000011
50,33,0.5,0.0625,35.0,1,1.0,0.7740000000000293
51,33,0.5,0.125,-35.0,-1,1.0,0.2078999999999951
52,33,0.5,0.0,35.0,-1,0.0,4.433899999999994
53,33,0.6,0.0,35.0,-1,0.0,0.6992999999999938
54,33,0.5,1.0,-35.0,-1,1.0,0.25549999999998363
55,33,0.5,0.0,-35.0,-1,1.0,0.35250000000002046
56,33,0.5,0.0,-35.0,-1,1.0,1.484800000000007
57,33,0.5,0.125,-35.0,-1,1.0,0.5004999999999882
58,33,0.5,0.125,35.0,1,1.0,0.8702000000000112
59,33,0.5,1.0,-35.0,-1,1.0,0.2389999999999759
60,33,0.5,0.125,-35.0,-1,1.0,0.4270000000000209
61,33,0.5,1.0,35.0,1,1.0,0.2805999999999358
62,33,0.5,1.0,-35.0,-1,1.0,0.2675000000000409
63,33,0.5,0.25,35.0,1,1.0,0.5305000000000177
64,33,0.5,0.0625,-35.0,-1,1.0,0.3550999999999931
65,33,0.5,1.0,-35.0,-1,1.0,0.2299000000000433
66,33,0.5,0.0625,35.0,-1,0.0,0.48190000000005284
67,33,0.5,0.0625,35.0,-1,0.0,0.5545000000000186
68,33,0.5,0.125,35.0,1,1.0,1.2024000000000115
69,33,0.5,0.25,35.0,1,1.0,0.4852999999999952
70,33,0.5,0.125,-35.0,1,0.0,1.5294000000000096
71,33,0.5,0.25,35.0,1,1.0,0.3675000000000068
72,33,0.5,0.0625,-35.0,-1,1.0,0.12010000000003629
73,33,0.5,0.0625,35.0,1,1.0,0.4268000000000143
74,33,0.5,0.0625,35.0,-1,0.0,0.4475999999999658
75,33,0.5,0.25,35.0,1,1.0,0.1560000000000059
76,33,0.5,0.25,35.0,1,1.0,0.4434999999999718
77,33,0.5,0.0625,35.0,1,1.0,3.249900000000025
78,33,0.5,0.0,35.0,1,1.0,4.377800000000036
79,33,0.5,0.0625,-35.0,1,0.0,1.755200000000002
80,33,0.5,0.0,-35.0,1,0.0,1.1505000000000791
81,33,0.5,0.0,35.0,-1,0.0,2.8648999999999774
82,33,0.5,0.0625,-35.0,-1,1.0,7.577699999999993
83,33,0.5,1.0,-35.0,1,0.0,1.205699999999979
84,33,0.7,1.0,-35.0,-1,1.0,0.2627000000000521
85,33,0.5,1.0,-35.0,-1,1.0,0.2850999999999999
86,33,0.5,0.125,-35.0,-1,1.0,0.4249999999999545
87,33,0.5,0.0625,35.0,1,1.0,0.5228000000000179
88,33,0.5,0.125,35.0,1,1.0,0.5681999999999903
89,33,0.5,0.25,35.0,1,1.0,0.31799999999998363
90,33,0.5,0.0625,-35.0,-1,1.0,0.3730000000000473
91,33,0.5,0.125,35.0,1,1.0,0.5047999999999888
92,33,0.5,0.125,35.0,1,1.0,0.30400000000003047
93,33,0.5,0.25,35.0,1,1.0,0.6282999999999674
94,33,0.5,0.0625,-35.0,-1,1.0,0.233600000000024
95,33,0.5,0.0625,-35.0,-1,1.0,1.1517999999999802
96,33,0.5,1.0,-35.0,-1,1.0,0.36079999999998336
97,33,0.5,0.125,35.0,1,1.0,0.26659999999998263
98,33,0.5,0.25,35.0,-1,0.0,0.27209999999996626
99,33,0.5,0.0625,-35.0,-1,1.0,0.3223000000000411
100,33,0.5,0.25,35.0,1,1.0,0.3136000000000081
101,33,0.5,0.125,35.0,1,1.0,0.43250000000000455
102,33,0.5,0.0625,35.0,1,1.0,1.9507000000000403
103,33,0.5,1.0,-35.0,-1,1.0,0.23540000000002692
104,33,0.5,0.25,-35.0,-1,1.0,0.14690000000001646
105,33,0.5,0.125,35.0,1,1.0,0.2884999999999991
106,33,0.5,0.0,35.0,-1,0.0,0.18830000000002656
107,33,0.5,0.0,-35.0,-1,1.0,0.6063000000000329
108,33,0.5,1.0,35.0,1,1.0,0.1290000000000191
109,33,0.5,0.125,-35.0,-1,1.0,0.29849999999999
110,33,0.5,1.0,-35.0,-1,1.0,0.22280000000000655
111,33,0.5,1.0,-35.0,-1,1.0,0.3109999999999786
112,33,0.5,0.0625,-35.0,-1,1.0,0.5853999999999928
113,33,0.5,0.125,-35.0,-1,1.0,0.8881000000000085
114,33,0.5,0.25,-35.0,-1,1.0,0.49950000000006867
115,33,0.5,0.25,35.0,-1,0.0,0.475400000000036
116,33,0.5,0.125,-35.0,-1,1.0,0.20229999999992287
117,33,0.5,0.0625,35.0,1,1.0,0.34369999999989886
118,33,0.5,0.0625,-35.0,1,0.0,5.196199999999976
119,33,0.5,0.25,35.0,1,1.0,0.3369999999999891
120,33,0.5,0.0625,-35.0,-1,1.0,1.813099999999963
121,33,0.5,0.0625,-35.0,-1,1.0,0.2766000000000304
122,33,0.5,0.0,35.0,-1,0.0,3.6317999999998847
123,33,0.5,0.25,-35.0,-1,1.0,0.2921999999999798
124,33,0.5,0.25,35.0,1,1.0,0.3564000000000078
125,33,0.5,0.0,-35.0,-1,1.0,1.4535999999999376
126,33,0.5,0.0625,35.0,-1,0.0,3.590400000000045
127,33,0.5,0.25,35.0,1,1.0,0.716199999999958
128,33,0.5,0.25,-35.0,-1,1.0,0.7970990000000029
129,33,0.5,0.0,35.0,-1,0.0,0.6820999999999913
130,33,0.2,0.0,35.0,-1,0.0,0.9565000000000055
131,33,0.5,1.0,-35.0,-1,1.0,0.33770000000004075
132,33,0.5,0.25,35.0,1,1.0,0.4410000000000309
133,33,0.5,1.0,-35.0,-1,1.0,0.22869999999988977
134,33,0.5,0.0625,35.0,1,1.0,0.33789999999999054
135,33,0.5,0.0,35.0,1,1.0,2.598899999999958
136,33,0.5,0.125,-35.0,1,0.0,2.384100000000103
137,33,0.5,0.125,35.0,1,1.0,2.862199999999916
138,33,0.5,1.0,-35.0,-1,1.0,0.288599999999974
139,33,0.5,0.125,35.0,1,1.0,0.377399999999966
140,33,0.5,1.0,-35.0,-1,1.0,0.2220999999999549
141,33,0.5,0.0,35.0,1,1.0,0.36809999999991305
142,33,0.5,0.25,35.0,1,1.0,0.47090000000002874
143,33,0.5,0.25,-35.0,-1,1.0,0.2500999999999749
144,33,0.5,0.125,-35.0,-1,1.0,0.5096999999999525
145,33,0.5,0.0625,-35.0,-1,1.0,0.2685000000000173
146,33,0.5,1.0,-35.0,-1,1.0,0.25120000000003984
147,33,0.5,0.0,-35.0,-1,1.0,6.291399999999953
148,33,0.5,1.0,-35.0,-1,1.0,0.27319999999997435
149,33,0.5,0.0625,-35.0,-1,1.0,1.7373000000000047
150,33,0.5,0.125,35.0,1,1.0,0.35779999999999745
151,33,0.5,1.0,35.0,1,1.0,0.26890000000003056
152,33,0.5,0.0625,35.0,1,1.0,0.6098999999999251
153,33,0.5,0.0625,-35.0,-1,1.0,0.2699999999999818
154,33,0.5,1.0,35.0,1,1.0,0.2826999999999771
155,33,0.5,0.0625,35.0,-1,0.0,0.4821000000000595
156,33,0.5,0.25,-35.0,-1,1.0,0.20100000000002183
157,33,0.5,0.125,-35.0,-1,1.0,0.35769999999990887
158,33,0.5,0.0625,35.0,1,1.0,1.2485000000000355
159,33,0.5,0.125,35.0,1,1.0,0.8735999999998967
160,33,0.5,1.0,35.0,1,1.0,0.30090000000006967
161,33,0.5,0.25,35.0,1,1.0,0.45479999999997744
162,33,0.5,1.0,35.0,1,1.0,0.4940999999998894
163,33,0.5,1.0,-35.0,-1,1.0,0.2685999999999922
164,33,0.5,0.0625,35.0,1,1.0,3.4705000000000155
165,33,0.5,0.0625,-35.0,-1,1.0,0.19670000000007803
166,33,0.5,0.0625,35.0,-1,0.0,0.4274000000000342
167,33,0.6,0.0625,35.0,1,1.0,0.3587999999999738
168,33,0.5,1.0,35.0,1,1.0,0.25500000000010914
169,33,0.5,0.0625,35.0,1,1.0,3.185899999999947
170,33,0.5,0.0,-35.0,-1,1.0,0.7160999999999831
171,33,0.5,1.0,35.0,1,1.0,0.3143000000000029
172,33,0.5,1.0,35.0,1,1.0,0.27070000000003347
173,33,0.5,0.0,-35.0,-1,1.0,0.4954999999999927
174,33,0.5,0.125,35.0,1,1.0,0.14210000000002765
175,33,0.5,1.0,-35.0,-1,1.0,0.2604999999999791
176,33,0.5,0.125,35.0,1,1.0,0.636000000000081
177,33,0.5,0.25,35.0,1,1.0,0.4660000000000082
178,33,0.5,0.125,35.0,1,1.0,0.2379000000000815
179,33,0.5,0.25,35.0,1,1.0,0.42399999999997817
180,33,0.5,1.0,35.0,1,1.0,0.359299999999962
181,33,0.5,1.0,-35.0,-1,1.0,0.9995000000000118
182,33,0.5,0.125,-35.0,-1,1.0,0.30550000000005184
183,33,0.5,0.0625,-35.0,1,0.0,0.24639999999999418
184,33,0.5,0.0625,35.0,1,1.0,1.4200000000000728
185,33,0.5,0.125,35.0,1,1.0,0.1935000000000855
186,33,0.5,1.0,-35.0,-1,1.0,0.17709999999999582
187,33,0.5,0.0625,-35.0,-1,1.0,0.43829999999991287
188,33,0.5,0.125,-35.0,-1,1.0,2.823099999999954
189,33,0.5,0.0625,35.0,1,1.0,0.3351999999999862
190,33,0.5,0.0,35.0,1,1.0,1.0422000000000935
191,33,0.5,0.0625,-35.0,-1,1.0,0.4932000000001153
192,33,0.5,0.0625,-35.0,-1,1.0,0.19069999999999254
193,33,0.5,0.0,-35.0,-1,1.0,0.976500000000101
194,33,0.5,0.0625,-35.0,-1,1.0,0.3673000000000002
195,33,0.5,0.125,35.0,1,1.0,0.24740000000008422
196,33,0.5,1.0,-35.0,-1,1.0,0.3160000000000309
197,33,0.5,0.0,-35.0,1,0.0,0.5000999999999749
198,33,0.5,0.25,35.0,1,1.0,0.39789999999993597
199,33,0.5,0.25,35.0,1,1.0,0.44870000000003074
200,33,0.5,0.0625,-35.0,-1,1.0,0.1651000000000522
201,33,0.5,0.125,-35.0,1,0.0,0.31710000000009586
202,33,0.5,0.0625,35.0,1,1.0,0.36390000000005784
203,33,0.5,1.0,35.0,1,1.0,0.3711000000000695
204,33,0.5,0.0625,-35.0,-1,1.0,0.36379999999996926
205,33,0.5,0.125,-35.0,1,0.0,0.45640000000003056
206,33,0.5,0.0,-35.0,1,0.0,0.8039000000001124
207,33,0.8,0.0,-35.0,1,0.0,0.39009999999996126
208,33,0.5,1.0,-35.0,-1,1.0,0.24510000000009313
209,33,0.5,1.0,-35.0,-1,1.0,0.20909999999992124
210,33,0.5,0.0625,35.0,1,1.0,0.32419999999990523
211,33,0.5,0.125,-35.0,-1,1.0,0.7967000000001008
212,33,0.5,1.0,35.0,1,1.0,0.15970000000004347
213,33,0.5,1.0,-35.0,-1,1.0,0.22199999999998
214,33,0.5,0.25,35.0,1,1.0,0.21879999999998745
215,33,0.5,0.0625,-35.0,1,0.0,0.5048000000000457
216,33,0.5,0.125,-35.0,1,0.0,2.067099999999982
217,33,0.6,0.125,-35.0,-1,1.0,0.3201000000000249
218,33,0.5,1.0,-35.0,-1,1.0,0.3061000000000149
219,33,0.5,0.0625,35.0,1,1.0,0.37760000000002947
220,33,0.5,0.125,-35.0,-1,1.0,0.274599999999964
221,33,0.5,0.125,35.0,1,1.0,0.3663999999999987
222,33,0.5,0.0625,35.0,1,1.0,2.5799999999999272
223,33,0.5,0.125,35.0,1,1.0,0.35960000000000036
224,33,0.5,0.0625,-35.0,1,0.0,0.1452000000000453
225,33,0.7,0.0625,-35.0,1,0.0,0.6741000000000668
226,33,0.5,1.0,35.0,1,1.0,0.28739999999993415
227,33,0.5,1.0,-35.0,-1,1.0,0.2624999999999318
228,33,0.5,0.0,-35.0,1,0.0,0.3260999999999967
229,33,0.5,0.25,-35.0,-1,1.0,0.29969999999991614
230,33,0.5,0.0625,35.0,1,1.0,0.30159999999989395
231,33,0.5,0.0625,35.0,1,1.0,0.7323000000000093
232,33,0.5,0.125,-35.0,-1,1.0,0.5548999999999751
233,33,0.5,0.125,35.0,1,1.0,0.42849999999998545
234,33,0.5,0.125,35.0,1,1.0,0.34999999999990905
235,33,0.5,0.0625,-35.0,1,0.0,0.21720000000004802
236,33,0.5,0.0625,35.0,1,1.0,0.33330000000000837
237,33,0.5,0.0625,35.0,1,1.0,0.6594000000000051
238,33,0.5,0.25,-35.0,-1,1.0,0.27510000000006585
239,33,0.5,0.25,-35.0,-1,1.0,0.4108999999999696
240,33,0.5,0.125,-35.0,-1,1.0,0.29970000000002983
241,33,0.5,0.125,-35.0,-1,1.0,0.45259999999996126
242,33,0.5,0.0625,-35.0,1,0.0,3.870700000000056
243,33,0.5,0.125,35.0,1,1.0,0.39980000000002747
244,33,0.5,0.0625,35.0,1,1.0,0.7077000000000453
245,33,0.5,0.125,35.0,1,1.0,0.2701000000000704
246,33,0.5,0.125,35.0,1,1.0,0.5979000000000951
247,33,0.5,0.0625,35.0,1,1.0,0.7635000000000218
248,33,0.5,1.0,-35.0,-1,1.0,0.2980000000000018
249,33,0.5,0.0625,-35.0,1,0.0,1.071399999999926
250,33,0.7,0.0625,-35.0,-1,1.0,1.4014999999999418
251,33,0.5,1.0,35.0,1,1.0,2.55399999999986
252,33,0.5,1.0,-35.0,-1,1.0,0.4954000000000178
253,33,0.5,0.25,35.0,1,1.0,0.697400000000016
254,33,0.5,0.25,35.0,1,1.0,0.4053999999998723
255,33,0.5,0.0,-35.0,1,0.0,0.9208999999998468
256,33,0.7,0.0,-35.0,-1,1.0,2.6922999999997046
257,33,0.5,1.0,-35.0,-1,1.0,0.234599999999773
258,33,0.5,0.25,-35.0,-1,1.0,0.8325999999999567
259,33,0.5,0.0625,35.0,-1,0.0,1.261299999999892
260,33,0.5,0.25,-35.0,-1,1.0,0.3292999999998756
261,33,0.5,0.0625,35.0,-1,0.0,1.6015999999999622
262,33,0.5,0.0625,35.0,1,1.0,0.7394999999999072
263,33,0.5,0.125,-35.0,-1,1.0,1.3716999999999189
264,33,0.5,0.0625,35.0,1,1.0,0.9763000000000375
265,33,0.5,0.25,35.0,1,1.0,0.36849999999981264
266,33,0.5,0.25,-35.0,-1,1.0,0.3398999999997159
267,33,0.5,0.25,-35.0,-1,1.0,0.2620999999999185
268,33,0.5,0.125,-35.0,-1,1.0,0.4900999999997566
269,33,0.5,0.125,-35.0,-1,1.0,0.40029999999978827
270,33,0.5,0.0625,-35.0,-1,1.0,0.3389999999999418
271,33,0.5,0.125,35.0,-1,0.0,0.12019999999984066
272,33,0.5,0.125,-35.0,-1,1.0,0.9290999999998348
273,33,0.5,1.0,35.0,1,1.0,0.2703999999998814
274,33,0.5,0.125,35.0,1,1.0,0.656099999999924
275,33,0.5,0.125,35.0,1,1.0,0.3704999999999927
276,33,0.5,0.125,-35.0,-1,1.0,0.36959999999999127
277,33,0.5,0.125,-35.0,-1,1.0,0.2242999999998574
278,33,0.5,0.25,35.0,1,1.0,0.4862000000000535
279,33,0.5,1.0,-35.0,-1,1.0,0.6209999999998672
280,33,0.5,0.0625,-35.0,1,0.0,2.376399999999876
281,33,0.5,0.0625,-35.0,-1,1.0,3.787699999999859
282,33,0.5,1.0,-35.0,-1,1.0,0.2700999999999567
283,33,0.5,0.25,-35.0,-1,1.0,0.5546999999999116
284,33,0.5,0.25,35.0,1,1.0,0.2701999999999316
285,33,0.5,0.0625,35.0,1,1.0,0.5480999999997493
286,33,0.5,0.25,35.0,1,1.0,0.3203999999998359
287,33,0.5,0.25,-35.0,-1,1.0,0.42859999999996035
288,33,0.5,1.0,-35.0,-1,1.0,0.3570999999999458
289,33,0.5,0.125,35.0,1,1.0,0.35849999999982174
290,33,0.5,0.25,-35.0,-1,1.0,0.2907000000000153
291,33,0.5,1.0,-35.0,-1,1.0,0.34199999999987085
292,33,0.5,0.0,35.0,1,1.0,2.1674000000000433
293,33,0.5,0.25,35.0,1,1.0,0.5054999999999836
294,33,0.5,0.125,-35.0,-1,1.0,0.3744000000001506
295,33,0.5,1.0,35.0,1,1.0,0.36249999999972715
296,33,0.5,0.0,35.0,-1,0.0,1.4843999999998232
297,33,0.5,0.125,-35.0,-1,1.0,0.7157999999999447
298,33,0.5,1.0,35.0,1,1.0,0.49139999999988504
299,33,0.5,0.0,-35.0,-1,1.0,3.1693999999997686
300,33,0.5,1.0,35.0,1,1.0,0.48489999999992506
301,33,0.5,0.0625,-35.0,-1,1.0,0.51949999999988
302,33,0.5,0.0625,-35.0,-1,1.0,0.5184999999999036
303,33,0.5,0.125,-35.0,-1,1.0,0.32320000000004256
304,33,0.5,0.125,35.0,1,1.0,0.6420999999998003
305,33,0.5,0.125,-35.0,-1,1.0,0.16669999999999163
306,33,0.5,0.25,35.0,1,1.0,0.24540000000001783
307,33,0.5,0.0,35.0,1,1.0,0.33359999999993306
308,33,0.5,0.125,-35.0,-1,1.0,0.22550000000001091
309,33,0.5,0.25,-35.0,-1,1.0,0.3135999999997239
310,33,0.5,0.0625,35.0,1,1.0,0.8389999999999418
311,33,0.5,1.0,35.0,1,1.0,0.29369999999971697
312,33,0.5,0.0625,-35.0,-1,1.0,0.3658999999997832
313,33,0.5,0.0,-35.0,-1,1.0,3.2072999999998046
314,33,0.5,0.0,-35.0,1,0.0,0.4227000000000771
315,33,0.5,0.0625,35.0,1,1.0,0.28759999999988395
316,33,0.5,0.25,-35.0,-1,1.0,0.3162999999999556
317,33,0.5,0.0,-35.0,-1,1.0,1.6476999999997588
318,33,0.5,1.0,35.0,1,1.0,0.5131999999998698
319,33,0.5,0.0625,35.0,1,1.0,0.40469999999982065
320,33,0.5,0.0,35.0,-1,0.0,2.733400000000074
321,33,0.5,0.0625,35.0,-1,0.0,3.0613999999998214
322,33,0.5,0.25,35.0,1,1.0,0.33369999999990796
323,33,0.5,0.0625,-35.0,-1,1.0,0.3915999999999258
324,33,0.5,1.0,-35.0,-1,1.0,0.48719999999980246
325,33,0.5,0.0625,-35.0,-1,1.0,2.398400000000038
326,33,0.5,0.0625,-35.0,-1,1.0,3.063999999999851
327,33,0.5,0.0625,35.0,1,1.0,0.4721999999999298
328,33,0.5,1.0,35.0,1,1.0,0.2907999999997628
329,33,0.5,0.25,35.0,1,1.0,0.2988999999997759
330,33,0.5,1.0,35.0,1,1.0,0.5944999999999254
331,33,0.5,0.25,35.0,1,1.0,0.4723999999998796
332,33,0.5,0.125,35.0,1,1.0,0.29119999999988977
333,33,0.5,1.0,35.0,1,1.0,0.35920000000010077
334,33,0.5,0.0,-35.0,-1,1.0,0.8278999999997723
335,33,0.5,0.0625,35.0,1,1.0,0.3126999999999498
336,33,0.5,0.125,35.0,1,1.0,0.36159999999995307
337,33,0.5,0.125,35.0,1,1.0,0.4294999999999618
338,33,0.5,0.0625,-35.0,-1,1.0,0.4783999999997377
339,33,0.5,0.0625,35.0,1,1.0,0.37639999999987594
340,33,0.5,0.25,35.0,1,1.0,0.5651000000000295
341,33,0.5,1.0,-35.0,-1,1.0,0.24319999999988795
342,33,0.5,0.0,-35.0,1,0.0,3.988600000000133
343,33,0.7,0.0,-35.0,-1,1.0,5.510300000000143
344,33,0.5,1.0,-35.0,-1,1.0,0.30569999999988795
345,33,0.5,0.0,35.0,1,1.0,1.5371999999999844
346,33,0.5,0.25,35.0,1,1.0,0.7757999999998901
347,33,0.5,1.0,35.0,1,1.0,0.4338999999999942
348,33,0.5,1.0,35.0,1,1.0,0.29939999999987776
349,33,0.5,1.0,-35.0,-1,1.0,0.2872999999997319
350,33,0.5,0.0625,35.0,1,1.0,0.48289999999997235
351,33,0.5,0.125,35.0,1,1.0,0.35089999999968313
352,33,0.5,0.0625,-35.0,-1,1.0,0.3963999999996304
353,33,0.5,0.125,35.0,1,1.0,0.4177999999999429
354,33,0.5,0.25,-35.0,-1,1.0,0.36979999999994106
355,33,0.5,0.125,35.0,1,1.0,0.39809999999988577
356,33,0.5,0.25,35.0,1,1.0,0.326799999999821
357,33,0.5,0.0625,-35.0,-1,1.0,0.4479999999998654
358,33,0.5,0.0625,35.0,1,1.0,0.2801999999999225
359,33,0.5,0.125,-35.0,-1,1.0,0.3181999999999334
360,33,0.5,0.0,35.0,1,1.0,3.2368999999998778
361,33,0.5,0.125,35.0,-1,0.0,0.7483999999999469
362,33,0.5,0.125,35.0,1,1.0,0.5137999999999465
363,33,0.5,0.125,-35.0,-1,1.0,0.23859999999990578
364,33,0.5,0.125,-35.0,-1,1.0,0.3007999999999811
365,33,0.5,1.0,35.0,1,1.0,0.3187999999997828
366,33,0.5,0.0625,35.0,1,1.0,0.5042999999998301
367,33,0.5,0.125,35.0,1,1.0,0.5489999999999782
368,33,0.5,1.0,35.0,1,1.0,0.1710000000000491
369,33,0.5,0.25,35.0,1,1.0,0.39229999999975007
370,33,0.5,1.0,35.0,1,1.0,0.2679000000000542
371,33,0.5,1.0,-35.0,-1,1.0,0.5259999999998399
372,33,0.5,0.25,35.0,1,1.0,0.518100000000004
373,33,0.5,0.0625,-35.0,-1,1.0,0.44280000000003383
374,33,0.5,0.125,35.0,1,1.0,0.39810000000011314
375,33,0.5,1.0,35.0,1,1.0,0.27299999999991087
376,33,0.5,0.0,35.0,-1,0.0,2.05829999999969
377,33,0.5,0.25,35.0,1,1.0,1.9128999999998086
378,33,0.5,0.125,35.0,1,1.0,1.08849999999984
379,33,0.5,0.0,35.0,1,1.0,3.876600000000053
380,33,0.5,0.25,-35.0,-1,1.0,0.31549999999992906
381,33,0.5,1.0,35.0,1,1.0,0.3067999999998392
382,33,0.5,0.0625,-35.0,1,0.0,5.42899999999986
383,33,0.5,0.25,35.0,1,1.0,0.6237999999998465
384,33,0.5,1.0,-35.0,-1,1.0,0.3192999999998847
385,33,0.5,0.25,35.0,-1,0.0,4.750799999999799
386,33,0.6,0.25,-35.0,-1,1.0,1.4495999999996911
387,33,0.5,1.0,35.0,1,1.0,0.5610999999998967
388,33,0.5,0.25,35.0,1,1.0,2.0530999999998585
389,33,0.5,0.125,-35.0,1,0.0,3.897699999999986
390,33,0.5,0.0625,35.0,-1,0.0,6.75
391,33,0.5,0.0,35.0,-1,0.0,10.441699999999855
392,33,0.5,0.25,-35.0,-1,1.0,0.29719999999997526
393,33,0.5,0.0625,-35.0,-1,1.0,4.151999999999816
394,33,0.5,0.0,-35.0,-1,1.0,7.8508999999999105
395,33,0.5,0.25,-35.0,-1,1.0,2.649099999999862
396,33,0.5,0.0625,-35.0,-1,1.0,8.167900000000145
397,33,0.5,0.125,35.0,-1,0.0,1.5028999999999542
398,33,0.5,0.0,35.0,1,1.0,8.748499999999922
399,33,0.5,0.0,-35.0,-1,1.0,1.1634999999998854
400,33,0.5,0.0625,-35.0,1,0.0,2.685399999999845
401,33,0.5,0.0625,-35.0,1,0.0,5.82369999999969
402,33,0.3,0.0625,35.0,-1,0.0,5.279099999999971
403,33,0.5,1.0,-35.0,-1,1.0,2.1705999999996948
404,33,0.5,0.0625,-35.0,-1,1.0,0.8527999999998883
405,33,0.5,0.0,-35.0,-1,1.0,1.4544000000000779
406,33,0.5,0.0625,35.0,-1,0.0,1.6196999999999662
407,33,0.5,0.25,-35.0,1,0.0,0.17469999999980246
