trial_num,session_num,stim_probability_left,contrast,position,response_choice,trial_correct,reaction_time
1,12,0.5,0.0,-35.0,-1,1.0,4.1451
2,12,0.5,0.0625,35.0,1,1.0,0.1667999999999985
3,12,0.5,1.0,-35.0,-1,1.0,0.47550000000000026
4,12,0.5,0.0,35.0,1,1.0,1.8028000000000013
5,12,0.5,0.25,35.0,1,1.0,1.5352000000000032
6,12,0.5,1.0,35.0,1,1.0,0.38209999999999766
7,12,0.5,0.125,-35.0,-1,1.0,0.43159999999999954
8,12,0.5,0.0625,-35.0,1,0.0,0.8703000000000003
9,12,0.5,0.0625,-35.0,1,0.0,1.7216999999999985
10,12,0.7,0.0625,-35.0,-1,1.0,0.6213999999999942
11,12,0.5,1.0,-35.0,-1,1.0,0.26950000000000074
12,12,0.5,0.25,-35.0,-1,1.0,0.5050000000000026
13,12,0.5,0.25,-35.0,-1,1.0,0.018800000000005923
14,12,0.5,0.25,-35.0,-1,1.0,0.1220999999999961
15,12,0.5,0.125,-35.0,1,0.0,0.14120000000000488
16,12,0.4,0.125,-35.0,1,0.0,0.32270000000000465
17,12,0.5,1.0,35.0,1,1.0,0.24600000000000222
18,12,0.5,1.0,35.0,1,1.0,0.24989999999999668
19,12,0.5,0.0625,-35.0,-1,1.0,0.41850000000000165
20,12,0.5,0.25,35.0,1,1.0,0.20009999999999195
21,12,0.5,0.125,35.0,1,1.0,0.321399999999997
22,12,0.5,0.25,35.0,1,1.0,0.3195999999999941
23,12,0.5,1.0,35.0,1,1.0,0.19350000000000023
24,12,0.5,0.0,-35.0,1,0.0,0.19420000000000925
25,12,0.5,0.0625,-35.0,1,0.0,0.2909000000000077
26,12,0.5,0.125,-35.0,-1,1.0,0.5037000000000091
27,12,0.5,0.125,-35.0,-1,1.0,0.18840000000000146
28,12,0.5,0.125,35.0,1,1.0,0.33910000000000196
29,12,0.5,1.0,-35.0,-1,1.0,0.23609999999999332
30,12,0.5,0.125,35.0,1,1.0,0.292199999999994
31,12,0.5,0.25,35.0,1,1.0,0.3944000000000045
32,12,0.5,1.0,-35.0,-1,1.0,0.3995999999999924
33,12,0.5,1.0,-35.0,-1,1.0,0.27949999999999875
34,12,0.5,0.0625,-35.0,-1,1.0,0.4309999999999832
35,12,0.5,0.0625,-35.0,-1,1.0,0.3622000000000014
36,12,0.5,0.0625,-35.0,-1,1.0,0.3552000000000106
37,12,0.5,0.125,35.0,1,1.0,0.21890000000000498
38,12,0.5,0.125,-35.0,1,0.0,0.22399999999998954
39,12,0.5,0.25,35.0,1,1.0,0.22279999999997813
40,12,0.5,0.0625,-35.0,1,0.0,0.23860000000000525
41,12,0.5,0.125,-35.0,-1,1.0,0.3015000000000043
42,12,0.5,1.0,-35.0,-1,1.0,0.2816999999999865
43,12,0.5,0.0625,35.0,-1,0.0,0.49029999999999063
44,12,0.5,0.125,-35.0,1,0.0,0.2558999999999969
45,12,0.5,0.0625,-35.0,-1,1.0,0.38339999999999463
46,12,0.5,0.25,35.0,1,1.0,0.21699999999999875
47,12,0.5,0.0625,35.0,1,1.0,0.34319999999999595
48,12,0.5,0.125,-35.0,-1,1.0,0.2453999999999894
49,12,0.5,0.125,35.0,1,1.0,0.449799999999982
50,12,0.5,1.0,-35.0,-1,1.0,0.27400000000002933
51,12,0.5,0.25,-35.0,1,0.0,0.2377999999999929
52,12,0.5,0.125,-35.0,-1,1.0,0.31090000000000373
53,12,0.5,0.125,-35.0,1,0.0,0.19370000000000687
54,12,0.6,0.125,-35.0,1,0.0,0.1869000000000085
55,12,0.5,1.0,-35.0,-1,1.0,0.22710000000000719
56,12,0.5,0.0625,35.0,1,1.0,0.23419999999998709
57,12,0.5,0.0625,-35.0,-1,1.0,1.4621000000000208
58,12,0.5,0.25,35.0,1,1.0,0.2786000000000115
59,12,0.5,0.25,35.0,1,1.0,0.24200000000001864
60,12,0.5,0.25,35.0,1,1.0,0.18999999999999773
61,12,0.5,0.0625,35.0,1,1.0,0.2079999999999984
62,12,0.5,0.25,35.0,1,1.0,0.35060000000001423
63,12,0.5,0.125,35.0,-1,0.0,0.07210000000000605
64,12,0.5,0.125,35.0,1,1.0,0.1821999999999946
65,12,0.5,0.0,-35.0,1,0.0,0.3087000000000444
66,12,0.8,0.0,-35.0,1,0.0,0.16430000000002565
67,12,0.5,1.0,35.0,1,1.0,0.24380000000002156
68,12,0.5,0.125,35.0,1,1.0,0.19419999999999504
69,12,0.5,0.125,35.0,1,1.0,0.2043000000000177
70,12,0.5,0.0,35.0,1,1.0,0.17799999999999727
71,12,0.5,1.0,-35.0,1,0.0,0.1781000000000006
72,12,0.5,0.0625,-35.0,1,0.0,1.5208000000000084
73,12,0.5,0.25,35.0,1,1.0,0.4958999999999776
74,12,0.5,0.0625,35.0,1,1.0,0.194500000000005
75,12,0.5,0.0,-35.0,1,0.0,0.19610000000000127
76,12,0.5,0.25,35.0,1,1.0,0.21340000000000714
77,12,0.5,0.0625,-35.0,1,0.0,0.22409999999999286
78,12,0.5,0.0625,-35.0,1,0.0,0.16689999999999827
79,12,0.5,0.25,35.0,1,1.0,0.3854999999999791
80,12,0.5,0.0,-35.0,1,0.0,0.18440000000001078
81,12,0.5,0.25,35.0,1,1.0,0.23460000000000036
82,12,0.5,0.125,35.0,1,1.0,0.23450000000002547
83,12,0.5,1.0,35.0,1,1.0,0.1914000000000442
84,12,0.5,0.0625,-35.0,1,0.0,0.23160000000001446
85,12,1.0,0.0625,35.0,-1,0.0,2.165600000000012
86,12,0.5,1.0,-35.0,-1,1.0,0.36990000000000123
87,12,0.5,0.0,-35.0,1,0.0,0.24430000000000973
88,12,0.5,0.25,-35.0,1,0.0,0.4113999999999862
89,12,0.5,0.0625,35.0,1,1.0,0.4806000000000097
90,12,0.5,1.0,-35.0,-1,1.0,0.16650000000004184
91,12,0.5,0.25,-35.0,1,0.0,1.9259000000000128
92,12,0.5,0.25,35.0,1,1.0,0.20629999999999882
93,12,0.5,0.0625,-35.0,1,0.0,0.27129999999999654
94,12,0.5,0.25,35.0,1,1.0,0.17830000000003565
95,12,0.5,0.25,35.0,1,1.0,0.31899999999996
96,12,0.5,0.0625,-35.0,1,0.0,0.34719999999998663
97,12,0.5,0.25,35.0,1,1.0,0.44069999999999254
98,12,0.5,0.125,-35.0,-1,1.0,0.11229999999994789
99,12,0.5,0.0625,-35.0,1,0.0,0.29000000000002046
100,12,0.5,0.25,-35.0,-1,1.0,0.273900000000026
101,12,0.5,1.0,35.0,1,1.0,0.226600000000019
102,12,0.5,0.25,-35.0,-1,1.0,0.3041000000000622
103,12,0.5,0.25,-35.0,-1,1.0,0.2673000000000343
104,12,0.5,0.25,35.0,1,1.0,0.16830000000004475
105,12,0.5,1.0,35.0,1,1.0,0.2074000000000069
106,12,0.5,0.125,-35.0,1,0.0,0.2066000000000372
107,12,0.5,0.0,-35.0,1,0.0,0.2504999999999882
108,12,0.6,0.0,-35.0,1,0.0,0.21330000000006066
109,12,0.5,1.0,-35.0,-1,1.0,0.20650000000000546
110,12,0.5,0.25,35.0,1,1.0,0.170599999999979
111,12,0.5,0.0625,35.0,1,1.0,0.8777999999999793
112,12,0.5,1.0,-35.0,-1,1.0,0.21900000000005093
113,12,0.5,0.125,-35.0,1,0.0,0.23020000000002483
114,12,0.5,0.0625,35.0,1,1.0,0.3257000000000403
115,12,0.5,1.0,35.0,1,1.0,0.17900000000003047
116,12,0.5,0.25,35.0,1,1.0,0.22380000000003974
117,12,0.5,0.0625,35.0,1,1.0,0.32229999999998427
118,12,0.5,0.125,-35.0,1,0.0,0.25890000000003965
119,12,0.5,0.0625,-35.0,1,0.0,0.2592000000000212
120,12,0.5,0.0625,35.0,1,1.0,0.174699999999973
121,12,0.5,0.25,-35.0,1,0.0,0.2891999999999939
122,12,0.9,0.25,35.0,1,1.0,0.27420000000000755
123,12,0.5,1.0,-35.0,-1,1.0,0.2817999999999756
124,12,0.5,0.0625,35.0,1,1.0,0.3419000000000665
125,12,0.5,1.0,35.0,1,1.0,0.233600000000024
126,12,0.5,0.0,35.0,1,1.0,0.18629999999996016
127,12,0.5,1.0,35.0,1,1.0,0.19950000000000045
128,12,0.5,0.125,35.0,1,1.0,0.307899999999961
129,12,0.5,0.0,35.0,1,1.0,0.22980000000001155
130,12,0.5,0.125,35.0,1,1.0,0.23490000000003874
131,12,0.5,0.125,35.0,1,1.0,0.19839999999999236
132,12,0.5,0.0,-35.0,1,0.0,0.205600000000004
133,12,0.5,0.25,35.0,1,1.0,0.30140000000005784
134,12,0.5,0.0,35.0,1,1.0,1.348600000000033
135,12,0.5,0.25,-35.0,1,0.0,0.2370000000000232
136,12,1.0,0.25,-35.0,1,0.0,0.17950000000001864
137,12,0.5,1.0,-35.0,-1,1.0,-0.017400000000009186
138,12,0.5,0.25,-35.0,1,0.0,0.20509999999995898
139,12,0.5,0.0,-35.0,-1,1.0,0.2278999999999769
140,12,0.5,0.25,-35.0,-1,1.0,0.31090000000000373
141,12,0.5,1.0,-35.0,1,0.0,0.09219999999999118
142,12,0.5,0.125,35.0,1,1.0,0.3476999999999748
143,12,0.5,0.0625,35.0,1,1.0,0.4812000000000012
144,12,0.5,0.0625,35.0,1,1.0,0.25
145,12,0.5,0.25,-35.0,-1,1.0,0.5146000000000299
146,12,0.5,0.25,35.0,1,1.0,0.32970000000000255
147,12,0.5,0.0625,-35.0,1,0.0,0.23500000000001364
148,12,0.5,0.25,-35.0,-1,1.0,0.24869999999998527
149,12,0.5,1.0,35.0,-1,0.0,0.10089999999996735
150,12,0.5,0.25,35.0,1,1.0,0.27890000000002146
151,12,0.5,0.0625,35.0,1,1.0,0.3627999999999929
152,12,0.5,0.125,-35.0,-1,1.0,1.6199000000000296
153,12,0.5,0.25,-35.0,-1,1.0,0.3445000000000391
154,12,0.5,0.0,35.0,-1,0.0,2.649499999999989
155,12,0.4,0.0,-35.0,1,0.0,0.22989999999998645
156,12,0.5,1.0,35.0,1,1.0,0.2645999999999731
157,12,0.5,0.0,35.0,1,1.0,0.188699999999983
158,12,0.5,0.0625,-35.0,1,0.0,0.2536000000000058
159,12,0.5,0.125,-35.0,1,0.0,0.2744000000000142
160,12,0.5,0.0625,-35.0,1,0.0,0.18300000000004957
161,12,0.5,0.0625,35.0,1,1.0,0.2506999999999948
162,12,0.5,0.0,35.0,1,1.0,0.23120000000005803
163,12,0.5,0.125,-35.0,1,0.0,0.34070000000002665
164,12,0.5,0.125,-35.0,1,0.0,0.3030000000000541
165,12,1.0,0.125,-35.0,1,0.0,0.33850000000001046
166,12,0.5,1.0,-35.0,-1,1.0,0.22730000000001382
167,12,0.5,1.0,35.0,1,1.0,0.44040000000006785
168,12,0.5,0.125,35.0,-1,0.0,0.06999999999999318
169,12,0.8,0.125,-35.0,1,0.0,0.17899999999997362
170,12,0.5,1.0,-35.0,-1,1.0,0.3017000000000394
171,12,0.5,0.0625,35.0,1,1.0,0.20710000000002537
172,12,0.5,0.25,-35.0,-1,1.0,0.2511000000000081
173,12,0.5,0.0,35.0,1,1.0,0.31639999999998736
174,12,0.5,0.0,35.0,-1,0.0,1.3401999999999816
175,12,0.5,0.0625,35.0,1,1.0,0.29570000000001073
176,12,0.5,0.25,-35.0,-1,1.0,0.3964000000000283
177,12,0.5,0.25,35.0,1,1.0,0.2897000000000389
178,12,0.5,0.125,-35.0,-1,1.0,0.06690000000003238
179,12,0.5,1.0,35.0,1,1.0,0.1973000000000411
180,12,0.5,1.0,35.0,-1,0.0,0.027000000000043656
181,12,0.5,0.0625,-35.0,1,0.0,0.18379999999996244
182,12,0.5,0.25,-35.0,-1,1.0,0.2259999999999991
183,12,0.5,1.0,-35.0,-1,1.0,0.27499999999997726
184,12,0.5,0.125,35.0,1,1.0,0.3532000000000153
185,12,0.5,0.0,35.0,1,1.0,0.26070000000004256
186,12,0.5,0.25,-35.0,-1,1.0,0.10760000000004766
187,12,0.5,0.0625,-35.0,-1,1.0,0.29700000000002547
188,12,0.5,0.25,35.0,1,1.0,0.41610000000002856
189,12,0.5,1.0,35.0,-1,0.0,0.10510000000010677
190,12,0.5,0.0,35.0,1,1.0,0.20970000000011169
191,12,0.5,0.0,35.0,1,1.0,0.29769999999996344
192,12,0.5,1.0,-35.0,-1,1.0,0.23079999999993106
193,12,0.5,0.0625,35.0,1,1.0,0.43039999999996326
194,12,0.5,0.125,35.0,1,1.0,0.4057999999999993
195,12,0.5,0.0,-35.0,-1,1.0,0.5168999999999642
196,12,0.5,0.0625,-35.0,-1,1.0,0.46210000000007767
197,12,0.5,0.0625,-35.0,-1,1.0,0.4835000000000491
198,12,0.5,0.25,35.0,1,1.0,0.33940000000006876
199,12,0.5,0.25,-35.0,-1,1.0,0.37170000000003256
200,12,0.5,0.25,-35.0,-1,1.0,0.33789999999999054
201,12,0.5,1.0,-35.0,-1,1.0,0.4015000000000555
202,12,0.5,0.125,-35.0,1,0.0,0.3127000000000635
203,12,0.4,0.125,-35.0,1,0.0,0.2760000000000673
204,12,0.5,1.0,35.0,1,1.0,0.40819999999996526
205,12,0.5,0.125,-35.0,-1,1.0,0.2840999999999667
206,12,0.5,0.25,35.0,1,1.0,0.17309999999997672
207,12,0.5,0.0625,35.0,-1,0.0,0.006300000000010186
208,12,0.5,0.125,-35.0,1,0.0,0.17439999999999145
209,12,0.5,0.0625,-35.0,1,0.0,0.286200000000008
210,12,0.5,0.25,35.0,1,1.0,0.29779999999993834
211,12,0.5,1.0,35.0,-1,0.0,0.10009999999999764
212,12,0.5,0.125,35.0,1,1.0,0.17630000000008295
213,12,0.5,0.0625,-35.0,-1,1.0,0.42430000000001655
214,12,0.5,0.25,-35.0,-1,1.0,0.31369999999992615
215,12,0.5,0.125,-35.0,-1,1.0,0.28899999999998727
216,12,0.5,0.0625,-35.0,1,0.0,0.24830000000008567
217,12,0.5,0.0625,-35.0,-1,1.0,0.5151999999999362
218,12,0.5,1.0,35.0,1,1.0,0.28750000000002274
219,12,0.5,0.125,35.0,1,1.0,0.32340000000010605
220,12,0.5,0.0625,35.0,1,1.0,0.233600000000024
221,12,0.5,0.125,35.0,1,1.0,0.28270000000009077
222,12,0.5,0.0625,35.0,1,1.0,0.22000000000014097
223,12,0.5,0.25,-35.0,1,0.0,0.197400000000016
224,12,0.5,0.25,35.0,1,1.0,0.16470000000003893
225,12,0.5,1.0,35.0,1,1.0,0.18580000000008567
226,12,0.5,0.25,-35.0,1,0.0,0.28070000000013806
227,12,0.5,0.0625,35.0,-1,0.0,0.18449999999995725
228,12,0.5,0.25,-35.0,-1,1.0,0.2642999999999347
229,12,0.5,1.0,-35.0,-1,1.0,0.1574000000000524
230,12,0.5,0.25,35.0,-1,0.0,0.1373999999999569
231,12,0.6,0.25,-35.0,-1,1.0,0.22149999999999181
232,12,0.5,1.0,-35.0,-1,1.0,0.18880000000001473
233,12,0.5,1.0,35.0,1,1.0,0.28159900000002835
234,12,0.5,1.0,35.0,1,1.0,0.24680000000000746
235,12,0.5,0.25,35.0,1,1.0,0.28330000000005384
236,12,0.5,1.0,35.0,1,1.0,0.2963999999999487
237,12,0.5,0.25,-35.0,-1,1.0,0.24489999999991596
238,12,0.5,0.0625,-35.0,-1,1.0,3.0386000000000877
239,12,0.5,0.125,-35.0,-1,1.0,0.4736000000000331
240,12,0.5,1.0,35.0,1,1.0,0.21490000000005693
241,12,0.5,0.25,35.0,1,1.0,0.3022999999999456
242,12,0.5,0.0625,-35.0,1,0.0,0.2897000000001526
243,12,0.7,0.0625,35.0,1,1.0,0.2662000000000262
244,12,0.5,1.0,-35.0,-1,1.0,0.297800000000052
245,12,0.5,0.0,-35.0,-1,1.0,3.4610999999999876
246,12,0.5,0.0625,35.0,1,1.0,0.35360000000002856
247,12,0.5,1.0,-35.0,-1,1.0,0.21479999999996835
248,12,0.5,0.125,-35.0,-1,1.0,0.23270000000002256
249,12,0.5,0.25,-35.0,-1,1.0,0.25869999999997617
250,12,0.5,0.0625,-35.0,-1,1.0,0.31539999999995416
251,12,0.5,0.25,-35.0,-1,1.0,0.3445000000000391
252,12,0.5,0.125,-35.0,-1,1.0,0.26509999999996126
253,12,0.5,0.0625,-35.0,1,0.0,0.3310999999999922
254,12,0.5,0.25,-35.0,-1,1.0,0.25120000000003984
255,12,0.5,0.125,35.0,1,1.0,0.22010000000000218
256,12,0.5,0.125,35.0,1,1.0,0.20920000000000982
257,12,0.5,1.0,-35.0,1,0.0,0.2033999999999878
258,12,0.4,1.0,35.0,1,1.0,0.3324999999999818
259,12,0.5,1.0,-35.0,-1,1.0,0.2237999999999829
260,12,0.5,0.125,-35.0,-1,1.0,0.3472000000000435
261,12,0.5,1.0,35.0,1,1.0,0.33170000000006894
262,12,0.5,0.0625,-35.0,1,0.0,0.3188000000000102
263,12,0.7,0.0625,-35.0,-1,1.0,0.08730000000002747
264,12,0.5,1.0,-35.0,-1,1.0,0.18459999999993215
265,12,0.5,0.0,-35.0,-1,1.0,0.1268000000000029
266,12,0.5,1.0,35.0,1,1.0,0.2746999999999389
267,12,0.5,1.0,35.0,1,1.0,0.17439999999999145
268,12,0.5,0.125,35.0,1,1.0,0.3309000000000424
269,12,0.5,0.125,-35.0,1,0.0,2.6158000000000357
270,12,0.5,0.125,-35.0,-1,1.0,0.2638999999999214
271,12,0.5,0.0,35.0,1,1.0,3.668199999999956
272,12,0.5,1.0,-35.0,-1,1.0,0.15049999999996544
273,12,0.5,0.0625,-35.0,1,0.0,0.24439999999992779
274,12,0.6,0.0625,-35.0,1,0.0,0.3806999999999334
275,12,0.5,1.0,-35.0,-1,1.0,0.26350000000002183
276,12,0.5,0.0,35.0,1,1.0,0.2778999999999314
277,12,0.5,0.0,-35.0,-1,1.0,1.3146000000000413
278,12,0.5,0.125,-35.0,-1,1.0,0.36599999999998545
279,12,0.5,1.0,-35.0,-1,1.0,0.1974999999999909
280,12,0.5,1.0,35.0,1,1.0,0.2719999999999345
281,12,0.5,1.0,-35.0,-1,1.0,0.22329999999999472
282,12,0.5,0.0625,-35.0,1,0.0,0.3548999999999296
283,12,0.5,0.0625,35.0,1,1.0,0.22820000000001528
284,12,0.5,1.0,35.0,1,1.0,0.2903999999999769
285,12,0.5,0.0625,35.0,-1,0.0,1.419499999999971
286,12,0.5,0.0625,35.0,1,1.0,0.3857999999999038
287,12,0.5,1.0,-35.0,-1,1.0,0.3170000000000073
288,12,0.5,0.0,35.0,-1,0.0,3.446499999999901
289,12,0.5,0.0,-35.0,-1,1.0,2.510099999999966
290,12,0.5,1.0,35.0,1,1.0,0.2959999999999354
291,12,0.5,0.125,-35.0,-1,1.0,0.26739999999995234
292,12,0.5,1.0,-35.0,-1,1.0,0.2518999999999778
293,12,0.5,1.0,35.0,1,1.0,0.21220000000005257
294,12,0.5,0.0625,-35.0,1,0.0,0.21640000000002146
295,12,0.5,0.25,-35.0,-1,1.0,0.3591999999999871
296,12,0.5,0.0625,35.0,1,1.0,0.3588999999999487
297,12,0.5,0.125,-35.0,1,0.0,0.22899999999992815
298,12,0.5,0.25,-35.0,-1,1.0,0.27870000000007167
299,12,0.5,1.0,-35.0,-1,1.0,0.1814000000000533
300,12,0.5,0.25,35.0,1,1.0,0.21240000000000236
301,12,0.5,0.0625,35.0,-1,0.0,0.06079999999997199
302,12,0.5,0.125,-35.0,1,0.0,1.589900000000057
303,12,0.5,0.25,35.0,-1,0.0,0.039099999999962165
304,12,0.5,0.0,-35.0,1,0.0,0.2798000000000229
305,12,0.5,0.0625,35.0,1,1.0,0.2824999999999136
306,12,0.5,0.0625,-35.0,-1,1.0,0.3967999999999847
307,12,0.5,0.0625,35.0,1,1.0,0.4009999999999536
308,12,0.5,0.0,-35.0,-1,1.0,0.27710000000001855
309,12,0.5,0.0625,-35.0,-1,1.0,0.37020000000006803
310,12,0.5,0.0,35.0,1,1.0,0.12639999999998963
311,12,0.5,1.0,35.0,1,1.0,0.24139999999999873
312,12,0.5,0.0625,-35.0,-1,1.0,0.4420999999999822
313,12,0.5,0.0,35.0,1,1.0,0.21730000000002292
314,12,0.5,0.125,35.0,-1,0.0,0.20180000000004839
315,12,0.5,0.0625,-35.0,-1,1.0,0.39209999999991396
316,12,0.5,0.25,-35.0,-1,1.0,0.2556999999999334
317,12,0.5,0.0,-35.0,1,0.0,0.18849999999997635
318,12,0.4,0.0,-35.0,1,0.0,0.3129000000000133
319,12,0.5,1.0,35.0,1,1.0,0.28169999999988704
320,12,0.5,0.0625,35.0,1,1.0,0.22929999999996653
321,12,0.5,0.125,-35.0,-1,1.0,0.023500000000012733
322,12,0.5,1.0,35.0,1,1.0,0.3483999999999696
323,12,0.5,0.0625,35.0,1,1.0,1.1087989999999763
324,12,0.5,1.0,35.0,1,1.0,0.22620000000006257
325,12,0.5,1.0,35.0,1,1.0,0.19440000000008695
326,12,0.5,0.25,35.0,1,1.0,0.22240000000010696
327,12,0.5,0.25,35.0,1,1.0,0.2255999999999858
328,12,0.5,1.0,35.0,1,1.0,0.15870000000006712
329,12,0.5,0.25,35.0,1,1.0,0.32569999999998345
330,12,0.5,0.125,-35.0,-1,1.0,0.42349999999999
331,12,0.5,0.0,-35.0,-1,1.0,1.4805000000000064
332,12,0.5,0.0,35.0,-1,0.0,0.09159999999997126
333,12,0.5,0.0625,-35.0,1,0.0,0.19280000000003383
334,12,0.5,0.125,35.0,1,1.0,0.22820000000001528
335,12,0.5,0.0625,35.0,1,1.0,0.19020000000011805
336,12,0.5,1.0,35.0,1,1.0,0.18499999999994543
337,12,0.5,0.0,-35.0,1,0.0,0.2118990000001304
338,12,0.5,0.0625,35.0,1,1.0,0.25250000000005457
339,12,0.5,0.0625,-35.0,-1,1.0,0.4194999999999709
340,12,0.5,0.125,-35.0,-1,1.0,0.4352999999999838
341,12,0.5,0.25,-35.0,-1,1.0,0.22689999999988686
342,12,0.5,0.125,35.0,1,1.0,0.28100000000006276
343,12,0.5,1.0,-35.0,-1,1.0,0.30500000000006366
344,12,0.5,0.125,-35.0,1,0.0,0.1592000000000553
345,12,0.5,0.0625,35.0,1,1.0,0.34360000000003765
346,12,0.5,0.0625,-35.0,1,0.0,0.20060000000000855
347,12,0.5,0.0625,35.0,1,1.0,0.2638000000000602
348,12,0.5,0.25,35.0,1,1.0,0.2481000000000222
349,12,0.5,0.0625,-35.0,1,0.0,0.19810000000006767
350,12,0.5,0.125,35.0,1,1.0,0.3445000000000391
351,12,0.5,0.0625,-35.0,-1,1.0,0.47090000000002874
352,12,0.5,0.125,35.0,1,1.0,0.30769899999995687
353,12,0.5,0.25,35.0,1,1.0,0.259900000000016
354,12,0.5,0.0,-35.0,1,0.0,0.24079999999992197
355,12,0.5,0.0,-35.0,-1,1.0,0.1430000000000291
356,12,0.5,1.0,35.0,1,1.0,0.22840000000007876
357,12,0.5,1.0,-35.0,-1,1.0,0.24450000000001637
358,12,0.5,0.25,35.0,1,1.0,0.3147000000000162
359,12,0.5,0.25,35.0,1,1.0,0.2881999999999607
360,12,0.5,0.0,35.0,-1,0.0,1.7948000000000093
361,12,0.5,0.25,35.0,1,1.0,0.18470000000002074
362,12,0.5,0.0625,35.0,1,1.0,0.15469999999993433
363,12,0.5,1.0,-35.0,1,0.0,0.148900000000026
364,12,0.7,1.0,-35.0,-1,1.0,0.31159999999999854
365,12,0.5,1.0,-35.0,-1,1.0,0.36869999999976244
366,12,0.5,0.125,35.0,1,1.0,0.22169999999982792
367,12,0.5,0.125,-35.0,1,0.0,0.21889999999984866
368,12,0.5,0.0,35.0,1,1.0,0.26189999999974134
369,12,0.5,0.25,35.0,1,1.0,0.3489999999997053
370,12,0.5,0.0625,35.0,1,1.0,0.23540000000002692
371,12,0.5,0.0,35.0,1,1.0,0.2221999999999298
372,12,0.5,1.0,-35.0,-1,1.0,0.2989000000000033
373,12,0.5,0.0625,-35.0,1,0.0,0.25890000000003965
374,12,0.5,0.0625,-35.0,-1,1.0,0.6798999999998614
375,12,0.5,0.125,-35.0,1,0.0,0.12329999999997199
376,12,0.5,0.0625,35.0,1,1.0,0.606300999999803
377,12,0.5,0.125,-35.0,-1,1.0,0.3365009999999984
378,12,0.5,0.25,-35.0,-1,1.0,0.2396009999999933
379,12,0.5,0.0,-35.0,1,0.0,0.3159009999999398
380,12,0.5,0.125,35.0,1,1.0,0.2534009999999398
381,12,0.5,0.0625,35.0,1,1.0,0.2861009999999169
382,12,0.5,0.0,-35.0,-1,1.0,2.7963009999998576
383,12,0.5,1.0,-35.0,-1,1.0,0.22040099999981067
384,12,0.5,0.125,35.0,1,1.0,0.4199009999997543
385,12,0.5,0.0625,-35.0,-1,1.0,0.21010099999989507
386,12,0.5,1.0,-35.0,-1,1.0,0.23000100000012935
387,12,0.5,0.0625,35.0,1,1.0,0.33340099999986705
388,12,0.5,0.125,35.0,1,1.0,0.4975009999998292
389,12,0.5,1.0,35.0,1,1.0,0.2768009999997503
390,12,0.5,0.25,35.0,1,1.0,0.28340099999968515
391,12,0.5,0.0625,-35.0,1,0.0,0.2436009999998987
392,12,0.5,0.25,-35.0,-1,1.0,0.19700099999977283
393,12,0.5,1.0,-35.0,-1,1.0,0.1471009999997932
394,12,0.5,1.0,35.0,1,1.0,0.3077009999999518
395,12,0.5,0.25,-35.0,-1,1.0,0.33730099999979757
396,12,0.5,0.0625,35.0,1,1.0,0.26710099999991144
397,12,0.5,0.125,35.0,1,1.0,0.3007009999996626
398,12,0.5,0.0,-35.0,1,0.0,0.33790099999987433
399,12,0.7,0.0,35.0,-1,0.0,0.3648009999997157
400,12,0.5,1.0,-35.0,-1,1.0,0.18100099999969643
401,12,0.5,0.25,35.0,1,1.0,0.2281009999996968
402,12,0.5,0.25,-35.0,-1,1.0,0.19780100000002676
403,12,0.5,1.0,-35.0,-1,1.0,0.20440099999973427
404,12,0.5,0.125,35.0,-1,0.0,3.3215009999998983
405,12,0.5,0.0625,-35.0,-1,1.0,0.44870099999980084
406,12,0.5,0.125,-35.0,-1,1.0,0.14210099999991144
407,12,0.5,0.0625,35.0,1,1.0,0.37160099999982776
408,12,0.5,0.25,-35.0,-1,1.0,0.22140099999978702
409,12,0.5,0.0625,35.0,1,1.0,0.18170099999997547
410,12,0.5,0.25,-35.0,-1,1.0,0.19860100000005332
411,12,0.5,1.0,35.0,1,1.0,0.20860099999981685
412,12,0.5,1.0,-35.0,-1,1.0,0.13220099999989543
413,12,0.5,0.25,35.0,1,1.0,0.3392009999997754
414,12,0.5,0.0,-35.0,-1,1.0,0.41270099999974263
415,12,0.5,0.25,35.0,1,1.0,0.2623009999997521
416,12,0.5,0.25,35.0,1,1.0,0.23610099999996237
417,12,0.5,0.125,35.0,1,1.0,0.2962009999996553
418,12,0.5,1.0,35.0,1,1.0,0.21900099999993472
419,12,0.5,0.125,-35.0,-1,1.0,0.29890099999988706
420,12,0.5,0.25,-35.0,-1,1.0,0.22260099999971317
421,12,0.5,0.0625,-35.0,-1,1.0,0.28270099999986087
422,12,0.5,0.25,-35.0,-1,1.0,0.3629009999999653
423,12,0.5,1.0,-35.0,-1,1.0,0.4224010000000362
424,12,0.5,1.0,35.0,1,1.0,0.2626009999996768
425,12,0.5,1.0,35.0,1,1.0,0.3164009999998143
426,12,0.5,0.0625,-35.0,1,0.0,0.279500999999982
427,12,0.5,0.0,-35.0,1,0.0,0.16970099999980448
428,12,0.5,0.0,-35.0,1,0.0,0.29300100000000384
429,12,0.5,1.0,35.0,1,1.0,0.4032009999998536
430,12,0.5,1.0,-35.0,-1,1.0,0.20640099999991435
431,12,0.5,0.25,-35.0,-1,1.0,0.2865009999998165
432,12,0.5,0.0,-35.0,1,0.0,0.376500999999962
433,12,0.7,0.0,-35.0,-1,1.0,0.013200999999980922
434,12,0.5,1.0,35.0,1,1.0,0.28330099999993763
435,12,0.5,0.25,-35.0,-1,1.0,0.20660099999986414
436,12,0.5,0.0625,-35.0,-1,1.0,1.8906009999998332
437,12,0.5,0.25,-35.0,-1,1.0,0.48000100000012935
438,12,0.5,0.0,35.0,-1,0.0,0.41370099999994636
439,12,0.3,0.0,35.0,-1,0.0,0.39360099999998965
440,12,0.5,1.0,35.0,1,1.0,0.2174009999998816
441,12,0.5,0.25,35.0,-1,0.0,0.2073009999999158
442,12,0.5,0.25,35.0,1,1.0,0.2842009999997117
443,12,0.5,0.25,-35.0,-1,1.0,0.32070100000009916
444,12,0.5,0.0625,-35.0,-1,1.0,1.884000999999671
445,12,0.5,0.0625,-35.0,-1,1.0,-0.022498999999925218
446,12,0.5,0.125,35.0,1,1.0,0.26440099999990707
447,12,0.5,0.0625,-35.0,-1,1.0,0.4915009999997437
448,12,0.5,0.125,-35.0,-1,1.0,0.354600999999775
449,12,0.5,0.25,-35.0,-1,1.0,0.42810099999996964
450,12,0.5,0.125,-35.0,-1,1.0,0.24820099999988088
451,12,0.5,0.0625,-35.0,-1,1.0,3.361300999999912
452,12,0.5,0.125,-35.0,-1,1.0,0.2613010000000031
453,12,0.5,1.0,-35.0,-1,1.0,0.15810099999976046
454,12,0.5,1.0,-35.0,-1,1.0,0.19220099999984086
455,12,0.5,0.125,-35.0,-1,1.0,0.18520099999977901
456,12,0.5,0.125,-35.0,-1,1.0,0.3021009999999933
457,12,0.5,1.0,35.0,1,1.0,0.28500099999973827
458,12,0.5,0.0,35.0,-1,0.0,2.3519009999997706
459,12,0.5,0.0625,35.0,1,1.0,0.6052009999998518
460,12,0.5,0.125,35.0,-1,0.0,0.05210099999999329
461,12,0.5,0.125,-35.0,-1,1.0,0.28890100000012353
462,12,0.5,0.0625,35.0,1,1.0,0.4288010000000213
463,12,0.5,0.0,35.0,-1,0.0,4.4326009999997495
464,12,0.3,0.0,35.0,-1,0.0,4.005600999999842
465,12,0.5,1.0,35.0,1,1.0,0.38600099999985105
466,12,0.5,0.125,35.0,-1,0.0,0.22650099999987106
467,12,0.5,0.0625,-35.0,-1,1.0,0.2561009999997168
468,12,0.5,0.25,-35.0,-1,1.0,0.2596000000000913
469,12,0.5,0.125,35.0,1,1.0,0.21620099999972808
470,12,0.5,0.25,-35.0,-1,1.0,0.25290099999983795
471,12,0.5,0.25,-35.0,-1,1.0,0.22010099999988597
472,12,0.5,0.0625,35.0,1,1.0,0.30320099999994454
473,12,0.5,0.125,35.0,1,1.0,0.2898009999998976
474,12,0.5,0.0625,35.0,1,1.0,0.27700099999992744
475,12,0.5,1.0,-35.0,1,0.0,0.2097009999997681
476,12,0.5,0.0625,35.0,1,1.0,0.4366010000001097
477,12,0.5,0.125,35.0,1,1.0,0.3802009999999427
478,12,0.5,0.0,35.0,-1,0.0,3.0534009999998943
479,12,0.5,0.0625,35.0,1,1.0,0.3668009999998958
480,12,0.5,0.0625,35.0,1,1.0,0.28030100000000857
481,12,0.5,0.125,35.0,1,1.0,0.26730099999986123
482,12,0.5,0.125,35.0,1,1.0,0.3804009999998925
483,12,0.5,0.125,-35.0,-1,1.0,0.7044009999999616
484,12,0.5,1.0,35.0,1,1.0,0.2571010000001479
485,12,0.5,1.0,-35.0,-1,1.0,0.361100999999735
486,12,0.5,0.0625,-35.0,-1,1.0,0.9073009999997339
487,12,0.5,0.0625,35.0,1,1.0,0.427400999999918
488,12,0.5,0.0,35.0,-1,0.0,3.7309009999999034
489,12,0.5,0.25,35.0,1,1.0,0.38440099999979793
490,12,0.5,0.0,-35.0,1,0.0,0.18780099999980848
491,12,0.6,0.0,35.0,1,1.0,0.44130099999961203
492,12,0.5,1.0,35.0,1,1.0,0.211500999999771
493,12,0.5,0.125,35.0,1,1.0,0.3286009999997077
494,12,0.5,0.125,-35.0,1,0.0,0.28500099999973827
495,12,0.5,0.0625,35.0,1,1.0,0.261400999999978
496,12,0.5,0.0,-35.0,1,0.0,0.14830099999994673
497,12,0.9,0.0,35.0,1,1.0,0.39570099999991726
498,12,0.5,1.0,-35.0,-1,1.0,0.21220099999982267
499,12,0.5,0.125,35.0,1,1.0,0.28500099999996564
500,12,0.5,0.25,35.0,1,1.0,0.23870099999976446
501,12,0.5,0.125,-35.0,-1,1.0,0.3588009999998576
502,12,0.5,0.0625,35.0,1,1.0,0.26940099999978884
503,12,0.5,1.0,-35.0,-1,1.0,0.31900099999984377
504,12,0.5,0.0625,-35.0,-1,1.0,0.22550100000012208
505,12,0.5,1.0,-35.0,-1,1.0,0.36550099999999475
506,12,0.5,1.0,-35.0,-1,1.0,0.23580100000003767
507,12,0.5,0.125,35.0,1,1.0,0.3861010000000533
508,12,0.5,0.0625,-35.0,-1,1.0,0.2556009999998423
509,12,0.5,1.0,-35.0,-1,1.0,0.15910099999973681
510,12,0.5,0.125,-35.0,-1,1.0,0.25250099999993836
511,12,0.5,0.25,35.0,1,1.0,0.2499009999999089
512,12,0.5,0.125,35.0,1,1.0,0.36920099999997547
513,12,0.5,0.125,-35.0,-1,1.0,0.286000999999942
514,12,0.5,0.0625,35.0,-1,0.0,0.04980099999988852
515,12,0.5,0.125,-35.0,1,0.0,0.2996009999999387
516,12,0.5,0.125,35.0,1,1.0,0.44610099999999875
517,12,0.5,0.25,-35.0,1,0.0,0.7099009999999453
518,12,0.5,0.25,-35.0,-1,1.0,0.19960100000002967
519,12,0.5,0.0,-35.0,1,0.0,0.323200999999699
520,12,0.5,0.0,35.0,1,1.0,0.201600999999755
521,12,0.5,0.25,35.0,1,1.0,0.18330100000002858
522,12,0.5,0.0,35.0,-1,0.0,2.2203009999998358
523,12,0.5,0.25,35.0,1,1.0,0.25680099999976846
524,12,0.5,0.125,-35.0,1,0.0,0.2274009999998725
525,12,0.5,0.0,35.0,-1,0.0,3.2740009999999984
526,12,0.7,0.0,35.0,-1,0.0,0.4171010000000024
527,12,0.5,1.0,-35.0,-1,1.0,0.18050099999982194
528,12,0.5,0.125,-35.0,-1,1.0,0.4173009999999522
529,12,0.5,0.0625,35.0,1,1.0,0.39390099999991435
530,12,0.5,0.0625,35.0,1,1.0,0.2574009999998452
531,12,0.5,0.25,35.0,1,1.0,0.35750000000007276
532,12,0.5,0.25,35.0,1,1.0,0.32780099999968115
533,12,0.5,0.125,-35.0,1,0.0,0.46450000000004366
534,12,0.5,0.25,35.0,1,1.0,0.09150100000010752
535,12,0.5,0.25,35.0,1,1.0,0.3027009999998427
536,12,0.5,1.0,-35.0,-1,1.0,0.2360009999997601
537,12,0.5,0.125,35.0,1,1.0,0.2561009999997168
538,12,0.5,0.25,-35.0,1,0.0,0.3129009999997834
539,12,0.9,0.25,-35.0,-1,1.0,0.3129009999997834
540,12,0.5,1.0,-35.0,-1,1.0,0.3164009999998143
541,12,0.5,0.0625,35.0,1,1.0,0.2763009999998758
542,12,0.5,0.0625,35.0,1,1.0,0.209800999999743
543,12,0.5,0.125,35.0,1,1.0,0.27640100000007806
544,12,0.5,0.25,-35.0,-1,1.0,0.34320099999990816
545,12,0.5,0.0625,35.0,1,1.0,0.2666009999998096
546,12,0.5,0.0,-35.0,1,0.0,0.28330099999993763
547,12,0.7,0.0,-35.0,1,0.0,0.29660100000000966
548,12,0.5,1.0,-35.0,-1,1.0,0.17680099999984122
549,12,0.5,1.0,35.0,1,1.0,0.22020099999986087
550,12,0.5,0.0,35.0,-1,0.0,3.9802009999998518
551,12,0.5,0.0,35.0,-1,0.0,2.540400999999747
552,12,0.5,0.125,35.0,1,1.0,0.2539009999998143
553,12,0.5,1.0,-35.0,-1,1.0,0.3973009999999704
554,12,0.5,1.0,35.0,1,1.0,0.24740099999985432
555,12,0.5,1.0,35.0,1,1.0,0.3808009999997921
556,12,0.5,0.0625,-35.0,-1,1.0,0.5410009999998238
557,12,0.5,0.25,35.0,1,1.0,0.30760099999974955
558,12,0.5,0.125,35.0,1,1.0,0.2377009999997881
559,12,0.5,0.0,35.0,1,1.0,0.3911009999997077
560,12,0.5,0.0,-35.0,1,0.0,0.24440099999992526
561,12,0.5,0.25,-35.0,-1,1.0,0.03450099999986378
562,12,0.5,0.125,35.0,1,1.0,0.3312009999997372
563,12,0.5,0.0625,35.0,1,1.0,0.3948010000001432
564,12,0.5,1.0,-35.0,-1,1.0,0.22810099999992417
565,12,0.5,0.25,-35.0,-1,1.0,0.2414009999999962
566,12,0.5,0.0625,35.0,1,1.0,0.24480100000005223
567,12,0.5,0.0,35.0,1,1.0,0.23820099999988997
568,12,0.5,0.125,-35.0,1,0.0,0.30490099999997256
569,12,0.5,0.125,35.0,1,1.0,0.318400999999767
570,12,0.5,0.125,35.0,1,1.0,0.26520099999993363
571,12,0.5,1.0,35.0,1,1.0,0.47520099999997
572,12,0.5,0.125,-35.0,1,0.0,0.2553009999999176
573,12,0.8,0.125,-35.0,-1,1.0,0.11210099999993872
574,12,0.5,1.0,-35.0,-1,1.0,0.31540099999983795
575,12,0.5,0.0625,35.0,1,1.0,0.24220099999979539
576,12,0.5,0.0,-35.0,1,0.0,0.29550099999983104
577,12,0.5,0.0,-35.0,1,0.0,0.25250099999993836
578,12,0.5,0.125,35.0,1,1.0,0.26900099999988925
579,12,0.5,1.0,-35.0,-1,1.0,0.3625009999998383
580,12,0.5,0.0625,35.0,1,1.0,0.30920099999980266
581,12,0.5,1.0,35.0,1,1.0,0.2359009999997852
582,12,0.5,0.125,35.0,1,1.0,0.43940100000008897
583,12,0.5,0.25,35.0,1,1.0,0.40610099999980775
584,12,0.5,0.125,-35.0,1,0.0,0.2595010000000002
585,12,0.9,0.125,-35.0,-1,1.0,0.3763010000000122
586,12,0.5,1.0,35.0,-1,0.0,1.0497009999999136
587,12,0.5,0.125,-35.0,1,0.0,0.5197009999999409
588,12,0.7,0.125,35.0,1,1.0,0.4266010000001188
589,12,0.5,1.0,-35.0,-1,1.0,0.20990099999994527
590,12,0.5,0.25,-35.0,-1,1.0,0.32320099999992635
591,12,0.5,0.125,35.0,1,1.0,0.24670099999980266
592,12,0.5,0.125,35.0,1,1.0,0.23010099999987688
593,12,0.5,0.0625,35.0,1,1.0,0.223500999999942
594,12,0.5,1.0,35.0,1,1.0,0.2502009999998336
595,12,0.5,0.125,-35.0,-1,1.0,0.5370009999999183
596,12,0.5,1.0,35.0,1,1.0,0.3504009999999198
597,12,0.5,0.0625,-35.0,1,0.0,0.2238009999998667
598,12,0.5,0.25,-35.0,1,0.0,0.25720099999989543
599,12,0.7,0.25,-35.0,-1,1.0,0.3440009999999347
600,12,0.5,1.0,-35.0,-1,1.0,0.22070099999996273
601,12,0.5,0.0625,35.0,1,1.0,0.2608009999996739
602,12,0.5,0.125,35.0,1,1.0,0.2375009999998383
603,12,0.5,1.0,35.0,1,1.0,0.19430099999999584
604,12,0.5,0.0,-35.0,1,0.0,0.28770099999974263
605,12,0.7,0.0,-35.0,-1,1.0,0.33770099999969716
606,12,0.5,1.0,-35.0,-1,1.0,0.20440099999996164
607,12,0.5,1.0,-35.0,-1,1.0,0.25450099999989106
608,12,0.5,0.25,35.0,1,1.0,0.3211999999996351
609,12,0.5,1.0,35.0,1,1.0,0.4112009999998918
610,12,0.5,1.0,-35.0,-1,1.0,0.35800099999983104
611,12,0.5,0.125,-35.0,-1,1.0,0.38140100000009625
612,12,0.5,0.25,-35.0,1,0.0,0.31150099999968006
613,12,0.5,0.25,35.0,1,1.0,0.3316010000000915
614,12,0.5,1.0,35.0,1,1.0,0.27500099999997474
615,12,0.5,1.0,-35.0,-1,1.0,0.2617010000001301
616,12,0.5,1.0,-35.0,-1,1.0,0.2151010000000042
617,12,0.5,0.25,35.0,1,1.0,0.35190099999977065
618,12,0.5,0.125,35.0,1,1.0,0.3186009999997168
619,12,0.5,0.0625,35.0,-1,0.0,5.12860099999989
620,12,0.5,0.0,35.0,1,1.0,0.32890100000008715
621,12,0.5,0.0625,35.0,1,1.0,0.2655009999998583
622,12,0.5,0.25,-35.0,-1,1.0,0.6888010000000122
623,12,0.5,0.125,35.0,1,1.0,0.30890100000010534
624,12,0.5,1.0,-35.0,-1,1.0,0.2756009999998241
625,12,0.5,0.0,35.0,1,1.0,0.19250099999999293
626,12,0.5,1.0,35.0,1,1.0,0.25250099999993836
627,12,0.5,0.0,-35.0,-1,1.0,3.152500999999802
628,12,0.5,0.25,-35.0,-1,1.0,0.14590100000009443
629,12,0.5,1.0,35.0,1,1.0,0.32270100000005186
630,12,0.5,0.25,-35.0,-1,1.0,0.5160009999999602
631,12,0.5,0.0,35.0,1,1.0,0.3261009999998805
632,12,0.5,0.25,35.0,-1,0.0,0.17290099999968334
633,12,0.5,0.25,35.0,1,1.0,0.2996009999999387
634,12,0.5,1.0,-35.0,-1,1.0,0.2997009999999136
635,12,0.5,0.0625,35.0,1,1.0,2.7164009999999053
636,12,0.5,0.125,35.0,1,1.0,0.2199009999997088
637,12,0.5,1.0,-35.0,-1,1.0,0.2599009999998998
638,12,0.5,0.125,-35.0,-1,1.0,0.36320099999989
639,12,0.5,0.0,35.0,-1,0.0,3.443300999999792
640,12,0.5,0.125,-35.0,-1,1.0,0.22020099999986087
641,12,0.5,0.0625,-35.0,-1,1.0,0.21690099999977974
642,12,0.5,1.0,-35.0,-1,1.0,0.22030099999983577
643,12,0.5,1.0,-35.0,-1,1.0,0.2238009999998667
644,12,0.5,0.0625,35.0,1,1.0,0.24050099999976737
645,12,0.5,1.0,35.0,1,1.0,0.2338009999998576
646,12,0.5,0.0625,-35.0,-1,1.0,0.3105009999999311
647,12,0.5,0.0625,-35.0,-1,1.0,0.6105009999998856
648,12,0.5,0.0,35.0,1,1.0,0.3574009999997543
649,12,0.5,0.125,35.0,1,1.0,0.3242009999999027
650,12,0.5,0.25,35.0,1,1.0,0.37430099999983213
651,12,0.5,0.25,35.0,1,1.0,0.29080099999987397
652,12,0.5,0.0,35.0,-1,0.0,0.5443009999999049
653,12,0.5,0.125,-35.0,-1,1.0,0.3511009999997441
654,12,0.5,0.0,35.0,1,1.0,0.29770099999973354
655,12,0.5,0.0625,35.0,1,1.0,0.5611009999997805
656,12,0.5,0.25,-35.0,-1,1.0,0.33790099999987433
657,12,0.5,0.25,35.0,1,1.0,0.6281009999997877
658,12,0.5,0.0,-35.0,-1,1.0,0.14150099999983468
659,12,0.5,0.125,35.0,-1,0.0,0.19820099999969898
660,12,0.5,0.25,-35.0,-1,1.0,0.41170099999999366
661,12,0.5,0.0,-35.0,-1,1.0,0.08170100000006641
662,12,0.5,0.125,-35.0,-1,1.0,0.2352009999999609
663,12,0.5,0.0625,35.0,1,1.0,0.32510100000013153
664,12,0.5,0.125,35.0,1,1.0,0.3220010000000002
665,12,0.5,1.0,-35.0,1,0.0,0.2053009999999631
666,12,0.5,0.0,-35.0,-1,1.0,6.085401000000047
667,12,0.5,0.0,35.0,1,1.0,1.3790010000000166
668,12,0.5,0.0625,35.0,1,1.0,0.3323009999999158
669,12,0.5,0.125,-35.0,-1,1.0,0.2257009999998445
670,12,0.5,0.25,-35.0,-1,1.0,0.11580099999969207
671,12,0.5,0.125,-35.0,-1,1.0,0.3660010000000966
672,12,0.5,0.125,-35.0,-1,1.0,0.6293009999999413
673,12,0.5,1.0,-35.0,-1,1.0,0.2693010000000413
674,12,0.5,0.0,35.0,1,1.0,0.28610100000014427
675,12,0.5,0.25,35.0,-1,0.0,0.04300100000000384
676,12,0.5,0.25,-35.0,-1,1.0,0.20300099999985832
677,12,0.5,1.0,-35.0,-1,1.0,0.25650100000007114
678,12,0.5,0.0,-35.0,-1,1.0,0.5998010000000704
679,12,0.5,1.0,-35.0,-1,1.0,0.32320099999992635
680,12,0.5,0.0,-35.0,1,0.0,1.5768009999999322
681,12,0.5,0.0625,35.0,-1,0.0,0.22010099999988597
682,12,0.5,0.0625,-35.0,-1,1.0,0.21690100000000712
683,12,0.5,0.125,35.0,1,1.0,0.3602009999999609
684,12,0.5,0.0625,-35.0,1,0.0,0.3570009999998547
685,12,0.5,0.0625,-35.0,-1,1.0,0.30720099999984996
686,12,0.5,0.0625,-35.0,-1,1.0,0.09700099999986378
687,12,0.5,0.0,35.0,-1,0.0,1.2572009999998954
688,12,0.5,0.125,35.0,1,1.0,0.3207009999998718
689,12,0.5,1.0,-35.0,-1,1.0,0.22400100000004386
690,12,0.5,0.25,-35.0,-1,1.0,0.16750099999990198
691,12,0.5,0.0,35.0,-1,0.0,0.4276009999998678
692,12,0.5,0.0,-35.0,-1,1.0,5.130900999999994
693,12,0.5,0.0,-35.0,1,0.0,2.8777010000001155
694,12,0.5,0.0625,35.0,-1,0.0,0.08120099999996455
695,12,0.2,0.0625,35.0,1,1.0,0.381300999999894
696,12,0.5,1.0,35.0,1,1.0,0.26470100000005914
697,12,0.5,0.25,-35.0,-1,1.0,0.19470099999989543
698,12,0.5,0.0,35.0,-1,0.0,0.2114009999997961
699,12,0.3,0.0,35.0,1,1.0,0.32150099999989834
700,12,0.5,1.0,35.0,1,1.0,0.23820099999988997
701,12,0.5,0.25,-35.0,-1,1.0,0.2916010000001279
702,12,0.5,0.25,35.0,1,1.0,0.718400999999858
703,12,0.5,0.0,35.0,-1,0.0,0.42850099999986924
704,12,0.5,0.0625,35.0,1,1.0,0.24520099999995182
705,12,0.5,0.0,-35.0,1,0.0,0.3886009999998805
706,12,0.5,0.25,35.0,1,1.0,0.30530099999987215
707,12,0.5,0.0625,-35.0,-1,1.0,0.44870099999980084
708,12,0.5,1.0,-35.0,-1,1.0,0.06890100000009625
709,12,0.5,1.0,-35.0,-1,1.0,0.1990009999999529
710,12,0.5,0.0625,-35.0,-1,1.0,0.4490009999999529
711,12,0.5,1.0,35.0,1,1.0,0.3391009999995731
712,12,0.5,0.125,-35.0,-1,1.0,0.6024010000000999
713,12,0.5,0.0625,-35.0,-1,1.0,0.4892009999998663
714,12,0.5,1.0,35.0,1,1.0,0.33600099999966915
715,12,0.5,0.125,-35.0,-1,1.0,0.25920099999984814
716,12,0.5,0.125,35.0,1,1.0,0.5360009999994872
717,12,0.5,1.0,-35.0,-1,1.0,0.21270099999992453
718,12,0.5,0.0625,-35.0,-1,1.0,0.2828010000002905
719,12,0.5,0.0,35.0,-1,0.0,0.16620099999954618
720,12,0.5,0.25,35.0,1,1.0,0.35290100000020175
721,12,0.5,0.0625,-35.0,-1,1.0,0.43640099999993254
722,12,0.5,0.125,35.0,1,1.0,0.3198010000000977
723,12,0.5,0.125,-35.0,-1,1.0,0.19650099999989834
724,12,0.5,0.125,35.0,1,1.0,0.2965009999998074
725,12,0.5,0.0625,35.0,1,1.0,0.5534010000001217
726,12,0.5,0.0,-35.0,1,0.0,0.3400010000000293
727,12,0.5,0.0625,35.0,1,1.0,0.4267010000003211
728,12,0.5,0.125,35.0,1,1.0,0.2501009999996313
729,12,0.5,1.0,35.0,1,1.0,0.2736009999998714
730,12,0.5,1.0,-35.0,-1,1.0,0.21030100000007224
731,12,0.5,1.0,35.0,1,1.0,0.25030100000003586
732,12,0.5,1.0,-35.0,-1,1.0,0.19710099999974773
733,12,0.5,0.0,-35.0,-1,1.0,0.19710099999974773
734,12,0.5,0.125,35.0,1,1.0,0.22720099999969534
735,12,0.5,1.0,35.0,1,1.0,0.26060099999995145
736,12,0.5,0.25,-35.0,1,0.0,0.3572009999998045
737,12,0.5,0.0625,35.0,1,1.0,0.26730099999986123
738,12,0.5,0.125,35.0,1,1.0,0.2541009999999915
739,12,0.5,0.0625,-35.0,-1,1.0,0.4142010000000482
740,12,0.5,1.0,35.0,1,1.0,0.27090099999986705
741,12,0.5,0.125,35.0,1,1.0,0.6177010000001246
742,12,0.5,0.125,-35.0,-1,1.0,0.4244010000002163
743,12,0.5,0.0,-35.0,-1,1.0,0.24120099999981903
744,12,0.5,0.0,-35.0,1,0.0,0.6078010000001086
745,12,0.7,0.0,-35.0,-1,1.0,0.6345010000000002
746,12,0.5,1.0,35.0,1,1.0,0.2647009999996044
747,12,0.5,1.0,-35.0,-1,1.0,0.2681009999996604
748,12,0.5,0.0625,-35.0,-1,1.0,0.32480100000020684
749,12,0.5,0.0625,35.0,1,1.0,0.27820100000008097
750,12,0.5,0.125,35.0,1,1.0,0.5082009999996444
751,12,0.5,1.0,-35.0,-1,1.0,0.1636009999997441
752,12,0.5,0.125,35.0,1,1.0,0.27170099999966624
753,12,0.5,0.25,-35.0,-1,1.0,0.32510099999990416
754,12,0.5,1.0,35.0,1,1.0,0.3787010000000919
755,12,0.5,0.0625,35.0,-1,0.0,0.4820009999998547
756,12,0.5,0.0625,35.0,1,1.0,0.5020009999998365
757,12,0.5,1.0,-35.0,-1,1.0,0.19210100000009334
758,12,0.5,0.125,-35.0,-1,1.0,0.13880100000005768
759,12,0.5,0.125,35.0,1,1.0,0.2522009999997863
760,12,0.5,0.0,-35.0,-1,1.0,0.5090009999998983
761,12,0.5,0.0625,35.0,1,1.0,0.2557010000000446
762,12,0.5,0.125,35.0,1,1.0,0.2358009999998103
763,12,0.5,0.125,-35.0,-1,1.0,0.11920099999952072
764,12,0.5,1.0,35.0,1,1.0,0.2992010000002665
765,12,0.5,0.25,-35.0,-1,1.0,0.22590099999933955
766,12,0.5,0.0625,-35.0,-1,1.0,0.7460009999999784
767,12,0.5,1.0,-35.0,-1,1.0,0.3093010000002323
768,12,0.5,1.0,35.0,1,1.0,0.3261010000001079
769,12,0.5,0.25,-35.0,-1,1.0,0.3262009999998554
770,12,0.5,1.0,-35.0,-1,1.0,0.20630100000016682
771,12,0.5,0.125,-35.0,-1,1.0,0.3963010000002214
772,12,0.5,0.125,35.0,-1,0.0,3.743000999999822
773,12,0.5,0.25,-35.0,-1,1.0,0.2965009999998074
774,12,0.5,0.0625,35.0,-1,0.0,0.4599009999997179
775,12,0.5,0.0,-35.0,1,0.0,3.026601000000028
776,12,0.5,0.0625,-35.0,-1,1.0,0.25680099999999584
777,12,0.5,0.125,-35.0,1,0.0,0.21690099999977974
778,12,0.3,0.125,-35.0,-1,1.0,0.04360099999985323
779,12,0.5,1.0,35.0,1,1.0,0.2603009999997994
780,12,0.5,0.0625,35.0,-1,0.0,0.47040100000003804
781,12,0.5,0.125,-35.0,-1,1.0,0.2806009999994785
782,12,0.5,0.0,35.0,-1,0.0,1.7039009999998598
783,12,0.5,0.25,-35.0,-1,1.0,0.21400099999982558
784,12,0.5,0.0625,35.0,1,1.0,0.22070099999973536
785,12,0.5,0.125,35.0,1,1.0,0.24420099999997547
786,12,0.5,0.0625,35.0,1,1.0,0.4809010000003582
787,12,0.5,0.0625,35.0,1,1.0,0.1376010000003589
788,12,0.5,0.125,35.0,1,1.0,0.3244009999998525
789,12,0.5,0.25,-35.0,-1,1.0,0.2778009999997266
790,12,0.5,0.125,-35.0,-1,1.0,0.23130099999980303
791,12,0.5,0.125,35.0,-1,0.0,0.3513009999996939
792,12,0.5,0.125,-35.0,-1,1.0,0.33150099999966187
793,12,0.5,0.125,35.0,1,1.0,0.27470099999982267
794,12,0.5,0.125,35.0,1,1.0,0.2782009999996262
795,12,0.5,0.25,-35.0,-1,1.0,0.46170100000017555
796,12,0.5,0.25,-35.0,-1,1.0,0.3749009999996815
797,12,0.5,0.125,-35.0,-1,1.0,0.36840099999972153
798,12,0.5,0.125,35.0,1,1.0,0.32510099999990416
799,12,0.5,0.0625,-35.0,-1,1.0,0.33510100000012244
800,12,0.5,0.0,35.0,-1,0.0,0.2819009999998343
801,12,0.5,0.0625,35.0,1,1.0,0.4786010000002534
802,12,0.5,1.0,35.0,1,1.0,0.2520009999998365
803,12,0.5,0.25,-35.0,-1,1.0,0.2522009999997863
804,12,0.5,0.0625,-35.0,1,0.0,0.3388009999998758
805,12,0.4,0.0625,-35.0,-1,1.0,0.43900099999973463
806,12,0.5,1.0,-35.0,-1,1.0,0.2257009999998445
807,12,0.5,0.25,-35.0,-1,1.0,0.19900100000040766
808,12,0.5,0.0,35.0,1,1.0,0.41240099999959057
809,12,0.5,0.0,-35.0,-1,1.0,0.545900999999958
810,12,0.5,1.0,-35.0,-1,1.0,0.20260099999995873
811,12,0.5,0.125,35.0,1,1.0,0.2727010000003247
812,12,0.5,0.125,-35.0,-1,1.0,0.22280099999989034
813,12,0.5,0.125,35.0,1,1.0,0.3995009999998729
814,12,0.5,0.25,-35.0,-1,1.0,0.3063010000000759
815,12,0.5,1.0,35.0,1,1.0,0.2629009999996015
816,12,0.5,0.125,35.0,1,1.0,0.31630100000029415
817,12,0.5,0.0625,35.0,1,1.0,0.36980099999982485
818,12,0.5,0.25,-35.0,-1,1.0,0.2765009999998256
819,12,0.5,0.125,35.0,-1,0.0,0.21990099999993618
820,12,0.5,0.0625,-35.0,-1,1.0,0.2967009999997572
821,12,0.5,0.25,-35.0,-1,1.0,0.3268009999997048
822,12,0.5,0.25,-35.0,-1,1.0,0.2800010000000839
823,12,0.5,1.0,-35.0,-1,1.0,0.2101009999996677
824,12,0.5,0.125,35.0,1,1.0,0.32020099999954255
825,12,0.5,0.125,-35.0,-1,1.0,0.216900999999325
826,12,0.5,0.25,-35.0,-1,1.0,0.26040100000000166
827,12,0.5,0.25,35.0,-1,0.0,0.21050100000002203
828,12,0.1,0.25,35.0,1,1.0,0.2871009999994385
829,12,0.5,1.0,35.0,1,1.0,0.23390099999960512
830,12,0.5,0.125,35.0,1,1.0,0.28730099999984304
831,12,0.5,0.125,35.0,1,1.0,0.3773009999995338
832,12,0.5,0.0,-35.0,1,0.0,0.3541009999999005
833,12,0.5,0.0625,35.0,1,1.0,0.2509009999994305
834,12,0.5,0.125,-35.0,-1,1.0,0.3509009999997943
835,12,0.5,0.25,35.0,-1,0.0,0.161000999999942
836,12,0.6,0.25,35.0,-1,0.0,0.17780099999981758
837,12,0.5,1.0,35.0,1,1.0,0.23110099999985323
838,12,0.5,1.0,-35.0,-1,1.0,1.0513009999999667
839,12,0.5,0.25,-35.0,-1,1.0,0.30130099999996673
840,12,0.5,0.0,-35.0,1,0.0,3.4247009999999136
841,12,0.5,0.0,35.0,1,1.0,0.3248009999997521
842,12,0.5,0.0625,35.0,1,1.0,0.21490099999982704
843,12,0.5,0.25,-35.0,-1,1.0,0.3517010000000482
844,12,0.5,0.0625,35.0,1,1.0,0.3351009999996677
845,12,0.5,0.125,-35.0,-1,1.0,0.25180099999943195
846,12,0.5,0.0625,-35.0,1,0.0,0.32520100000010643
847,12,0.5,0.0625,35.0,1,1.0,0.4387010000000373
848,12,0.5,0.25,35.0,1,1.0,0.22870100000000093
849,12,0.5,0.25,-35.0,-1,1.0,0.3120009999997819
850,12,0.5,0.0625,-35.0,1,0.0,0.23220099999980448
851,12,0.5,0.25,35.0,1,1.0,0.33220099999971353
852,12,0.5,0.0625,35.0,1,1.0,0.45230099999980666
853,12,0.5,1.0,35.0,1,1.0,0.2856010000000424
854,12,0.5,0.25,-35.0,-1,1.0,0.2623009999997521
855,12,0.5,0.125,35.0,1,1.0,0.27900099999988015
856,12,0.5,1.0,-35.0,-1,1.0,0.2791009999996277
857,12,0.5,1.0,35.0,1,1.0,0.3459010000001399
858,12,0.5,0.0625,-35.0,-1,1.0,0.27580100000022867
859,12,0.5,0.25,-35.0,-1,1.0,0.2660009999999602
860,12,0.5,0.125,35.0,1,1.0,0.3393999999998414
861,12,0.5,0.0625,-35.0,1,0.0,0.5595009999997274
862,12,0.5,0.0,35.0,1,1.0,0.31950099999994563
863,12,0.5,0.125,-35.0,-1,1.0,1.119600999999875
864,12,0.5,0.125,35.0,1,1.0,0.41960100000005696
865,12,0.5,0.0625,-35.0,1,0.0,0.27980099999967933
866,12,0.5,0.125,35.0,1,1.0,0.44980100000020684
867,12,0.5,0.125,-35.0,-1,1.0,0.25320099999999
868,12,0.5,0.25,35.0,1,1.0,0.3699010000000271
869,12,0.5,1.0,-35.0,-1,1.0,0.22000100000013845
870,12,0.5,0.125,-35.0,1,0.0,0.27660100000002785
871,12,0.5,0.0625,35.0,-1,0.0,0.3534009999993941
872,12,0.5,0.25,35.0,1,1.0,0.3368009999999231
873,12,0.5,1.0,35.0,1,1.0,0.3236010000000533
874,12,0.5,1.0,-35.0,-1,1.0,0.24360100000012608
875,12,0.5,0.0625,-35.0,-1,1.0,0.34360100000003513
876,12,0.5,0.0625,-35.0,1,0.0,0.2704009999997652
877,12,0.5,0.0625,-35.0,-1,1.0,1.3937009999999646
878,12,0.5,0.25,-35.0,-1,1.0,0.27060100000016973
879,12,0.5,1.0,-35.0,-1,1.0,0.1406010000000606
880,12,0.5,0.0625,35.0,1,1.0,0.43400100000008024
881,12,0.5,1.0,-35.0,-1,1.0,0.2775010000000293
882,12,0.5,0.0625,-35.0,1,0.0,0.30750099999977465
883,12,0.4,0.0625,35.0,-1,0.0,0.25430099999994127
884,12,0.5,1.0,35.0,1,1.0,0.4610010000001239
885,12,0.5,1.0,35.0,-1,0.0,0.2577009999999973
886,12,0.5,0.25,35.0,-1,0.0,0.39120099999991
887,12,0.5,0.125,-35.0,-1,1.0,0.2813009999995302
888,12,0.5,1.0,35.0,-1,0.0,21.00800100000015
889,12,0.5,0.0625,-35.0,-1,1.0,0.17200099999990925
890,12,0.5,0.0625,35.0,1,1.0,1.0220009999998183
891,12,0.5,0.0,35.0,1,1.0,3.4988009999997303
892,12,0.5,0.25,-35.0,-1,1.0,0.49230100000022503
893,12,0.5,1.0,35.0,1,1.0,0.27900099999988015
894,12,0.5,0.125,35.0,1,1.0,0.22910099999990052
895,12,0.5,1.0,35.0,1,1.0,0.3691009999997732
896,12,0.5,1.0,-35.0,-1,1.0,0.21250099999997474
897,12,0.5,0.25,35.0,-1,0.0,5.212600999999722
898,12,0.5,0.0625,-35.0,-1,1.0,0.30610099999967133
899,12,0.5,0.0,35.0,1,1.0,0.28950099999974555
900,12,0.5,1.0,-35.0,-1,1.0,0.18950100000029124
901,12,0.5,0.0,35.0,-1,0.0,0.37630099999978484
902,12,0.5,0.0625,-35.0,-1,1.0,0.5830009999995127
903,12,0.5,0.0625,35.0,1,1.0,0.2664009999998598
904,12,0.5,0.125,35.0,1,1.0,0.44650099999989834
905,12,0.5,0.0625,35.0,1,1.0,0.35320099999989907
906,12,0.5,0.125,-35.0,-1,1.0,0.33660099999951854
907,12,0.5,0.25,35.0,1,1.0,0.243300999999974
908,12,0.5,1.0,-35.0,-1,1.0,0.2233009999999922
909,12,0.5,1.0,35.0,1,1.0,0.2803009999997812
910,12,0.5,1.0,35.0,1,1.0,0.22680099999979575
911,12,0.5,0.0625,35.0,1,1.0,0.19360099999994418
912,12,0.5,0.0625,-35.0,1,0.0,0.2169010000002345
913,12,0.5,0.0,35.0,1,1.0,0.24040100000001985
914,12,0.5,0.0,-35.0,1,0.0,0.21370100000012826
915,12,0.8,0.0,35.0,1,1.0,0.2738009999998212
916,12,0.5,1.0,-35.0,-1,1.0,0.23390100000005987
917,12,0.5,1.0,-35.0,-1,1.0,0.22720099999969534
918,12,0.5,0.125,-35.0,-1,1.0,0.44730100000015227
919,12,0.5,0.0625,35.0,1,1.0,0.2807009999996808
920,12,0.5,0.0,-35.0,1,0.0,0.2973009999996066
921,12,0.5,0.125,-35.0,1,0.0,0.35080100000004677
922,12,0.5,0.25,35.0,1,1.0,0.29430100000035964
923,12,0.5,0.0625,-35.0,1,0.0,0.257600999999795
924,12,0.7,0.0625,35.0,-1,0.0,0.16110099999968952
925,12,0.5,1.0,-35.0,-1,1.0,0.21790099999998347
926,12,0.5,0.0625,-35.0,-1,1.0,0.2647009999996044
927,12,0.5,0.0625,-35.0,-1,1.0,0.3081010000000788
928,12,0.5,0.125,35.0,1,1.0,0.21810099999993326
929,12,0.5,0.0625,35.0,1,1.0,0.24490099999957238
930,12,0.5,1.0,35.0,1,1.0,0.30820100000028106
931,12,0.5,0.0625,-35.0,-1,1.0,0.2684009999998125
932,12,0.5,0.25,35.0,-1,0.0,0.0950009999996837
933,12,0.5,0.125,-35.0,-1,1.0,0.2551010000001952
934,12,0.5,0.25,-35.0,-1,1.0,0.18190099999992526
935,12,0.5,1.0,35.0,1,1.0,0.28190100000028906
936,12,0.5,0.25,-35.0,-1,1.0,0.21530099999972663
937,12,0.5,0.0625,-35.0,-1,1.0,0.26870099999996455
938,12,0.5,0.25,-35.0,-1,1.0,0.20880099999976665
939,12,0.5,1.0,-35.0,-1,1.0,0.21550099999967642
940,12,0.5,0.25,35.0,1,1.0,0.2722009999997681
941,12,0.5,0.25,-35.0,-1,1.0,0.16900099999975282
942,12,0.5,0.125,-35.0,-1,1.0,0.34250099999962913
943,12,0.5,0.0625,-35.0,-1,1.0,0.21570100000008097
944,12,0.5,0.125,35.0,1,1.0,0.2091009999999187
945,12,0.5,0.0625,-35.0,-1,1.0,0.20920099999966624
946,12,0.5,0.25,35.0,-1,0.0,0.4893010000000686
947,12,0.5,0.0625,35.0,-1,0.0,0.25940099999979793
948,12,0.2,0.0625,35.0,-1,0.0,0.35610099999985323
949,12,0.5,1.0,35.0,1,1.0,0.35290100000020175
950,12,0.5,0.125,-35.0,-1,1.0,0.3962009999995644
951,12,0.5,1.0,35.0,1,1.0,0.6163009999995666
952,12,0.5,0.0625,35.0,1,1.0,0.2764009999996233
953,12,0.5,0.0,35.0,-1,0.0,16.789800999999898
954,12,0.5,0.0,35.0,-1,0.0,12.217000999999982
955,12,0.3,0.0,-35.0,-1,1.0,8.89080100000001
956,12,0.5,1.0,35.0,1,1.0,0.2911010000002534
957,12,0.5,0.125,35.0,1,1.0,0.237800999999763
958,12,0.5,0.0625,-35.0,1,0.0,0.2479009999997288
959,12,0.5,0.125,35.0,1,1.0,0.23460100000011153
960,12,0.5,0.125,-35.0,1,0.0,0.29470100000025923
961,12,0.5,0.125,-35.0,1,0.0,0.3180010000000948
962,12,0.5,0.25,35.0,1,1.0,0.2548009999995884
963,12,0.5,0.25,35.0,1,1.0,0.19490100000029997
964,12,0.5,0.0625,-35.0,1,0.0,0.18500099999982922
965,12,0.5,0.0625,-35.0,1,0.0,0.25500099999999293
966,12,0.5,0.125,-35.0,-1,1.0,0.2884009999997943
967,12,0.5,0.0,-35.0,1,0.0,0.691801000000396
968,12,0.5,0.25,-35.0,-1,1.0,0.2519009999996342
969,12,0.5,0.0625,35.0,1,1.0,0.2053009999999631
970,12,0.5,1.0,35.0,1,1.0,0.1987010000002556
971,12,0.5,1.0,35.0,1,1.0,0.20540100000016537
972,12,0.5,0.25,35.0,1,1.0,0.3155010000000402
973,12,0.5,0.125,35.0,1,1.0,0.2055009999999129
974,12,0.5,0.0625,35.0,1,1.0,0.21220099999982267
975,12,0.5,0.0625,35.0,1,1.0,0.238901000000169
976,12,0.5,0.0625,35.0,1,1.0,0.18900100000018938
977,12,0.5,0.0,35.0,1,1.0,0.2923009999999522
978,12,0.5,1.0,35.0,1,1.0,0.23570100000006278
979,12,0.5,0.25,35.0,1,1.0,0.20590099999981248
980,12,0.5,0.0,35.0,1,1.0,0.26590099999930317
981,12,0.5,1.0,35.0,1,1.0,0.18270099999972444
982,12,0.5,0.125,-35.0,1,0.0,0.23600100000021484
983,12,0.5,0.25,-35.0,1,0.0,0.24940099999957965
984,12,0.5,0.25,35.0,1,1.0,0.24280099999987215
985,12,0.5,0.25,-35.0,-1,1.0,0.31280100000003586
986,12,0.5,0.0625,35.0,1,1.0,0.17630100000042148
987,12,0.5,0.25,-35.0,-1,1.0,0.28630100000009406
988,12,0.5,0.25,35.0,-1,0.0,0.1297010000002956
989,12,0.5,0.125,35.0,1,1.0,0.2398009999997157
990,12,0.5,0.125,-35.0,-1,1.0,0.25640100000009625
991,12,0.5,0.0625,-35.0,-1,1.0,0.38990100000000893
992,12,0.5,0.25,-35.0,-1,1.0,0.22990100000015445
993,12,0.5,0.0,-35.0,1,0.0,0.29670100000021193
994,12,0.5,0.25,-35.0,-1,1.0,0.29340099999990343
995,12,0.5,0.0625,35.0,1,1.0,0.31680099999994127
996,12,0.5,0.125,35.0,1,1.0,0.2202009999996335
997,12,0.5,0.25,35.0,1,1.0,0.2103009999996175
998,12,0.5,0.25,35.0,1,1.0,0.19360099999948943
999,12,0.5,0.25,35.0,1,1.0,0.2338009999998576
1000,12,0.5,0.25,35.0,1,1.0,0.25050099999998565
1001,12,0.5,0.0625,-35.0,1,0.0,0.21390100000007806
1002,12,0.8,0.0625,-35.0,1,0.0,0.23720099999991362
1003,12,0.5,1.0,-35.0,-1,1.0,0.20400100000006205
1004,12,0.5,0.0625,-35.0,-1,1.0,0.24080099999991944
1005,12,0.5,0.0625,35.0,-1,0.0,0.29090099999984886
1006,12,0.5,0.0,-35.0,1,0.0,0.20090099999970334
1007,12,0.7,0.0,35.0,-1,0.0,0.3044009999998707
1008,12,0.5,1.0,-35.0,-1,1.0,0.2277009999997972
1009,12,0.5,1.0,35.0,1,1.0,0.2712010000000191
1010,12,0.5,0.0,-35.0,-1,1.0,0.3712010000003829
1011,12,0.5,0.0625,35.0,1,1.0,0.36120100000016464
1012,12,0.5,0.0625,-35.0,-1,1.0,0.3414010000001326
1013,12,0.5,0.125,35.0,1,1.0,0.2248010000002978
1014,12,0.5,0.0,35.0,1,1.0,0.26480099999980666
1015,12,0.5,0.25,35.0,1,1.0,0.4217009999997572
1016,12,0.5,0.125,-35.0,-1,1.0,0.23830100000031962
1017,12,0.5,0.0625,-35.0,-1,1.0,0.3017009999998663
1018,12,0.5,0.0625,35.0,1,1.0,0.31520099999988815
1019,12,0.5,0.0,35.0,1,1.0,0.28180099999963204
1020,12,0.5,0.0625,-35.0,-1,1.0,0.36860099999967133
1021,12,0.5,0.0625,35.0,1,1.0,0.26520099999970626
1022,12,0.5,1.0,-35.0,-1,1.0,0.1786010000000715
1023,12,0.5,1.0,35.0,1,1.0,0.29530099999965387
1024,12,0.5,0.0625,35.0,-1,0.0,6.882000999999491
1025,12,0.5,0.125,35.0,-1,0.0,0.4489010000002054
1026,12,0.4,0.125,-35.0,-1,1.0,0.26580099999955564
1027,12,0.5,1.0,35.0,1,1.0,0.29900099999986196
1028,12,0.5,1.0,35.0,1,1.0,0.31240100000013626
1029,12,0.5,0.0625,35.0,-1,0.0,1.149300999999923
1030,12,0.5,0.25,35.0,-1,0.0,0.3059010000001763
1031,12,0.5,0.125,-35.0,-1,1.0,0.32610099999965314
1032,12,0.5,0.25,35.0,1,1.0,0.26610100000016246
1033,12,0.5,0.25,35.0,1,1.0,0.3428009999997812
1034,12,0.5,0.25,-35.0,-1,1.0,0.2095009999998183
1035,12,0.5,0.25,35.0,-1,0.0,0.21620100000018283
1036,12,0.5,0.125,35.0,1,1.0,0.3030009999997674
1037,12,0.5,0.125,35.0,1,1.0,0.21970099999998638
1038,12,0.5,0.125,35.0,1,1.0,0.29980099999966114
1039,12,0.5,0.125,-35.0,-1,1.0,0.419901000000209
1040,12,0.5,0.25,-35.0,-1,1.0,0.25320099999999
1041,12,0.5,0.0625,35.0,-1,0.0,2.6299009999997907
1042,12,0.5,0.125,-35.0,-1,1.0,0.21670099999982995
1043,12,0.5,0.125,35.0,1,1.0,0.19350100000019665
1044,12,0.5,0.25,35.0,1,1.0,0.2669009999995069
1045,12,0.5,0.125,35.0,-1,0.0,27.08360100000027
1046,12,0.5,0.0,-35.0,-1,1.0,27.49780099999998
1047,12,0.5,0.25,35.0,1,1.0,0.3285009999999602
1048,12,0.5,0.0625,-35.0,1,0.0,0.3319010000000162
1049,12,0.5,0.25,-35.0,-1,1.0,0.19530099999974482
1050,12,0.5,0.0625,-35.0,1,0.0,0.18890099999953236
1051,12,0.5,0.0625,-35.0,-1,1.0,1.8888010000000577
1052,12,0.5,0.25,-35.0,-1,1.0,7.339200999999775
1053,12,0.5,0.25,-35.0,-1,1.0,0.24260099999992235
1054,12,0.5,0.0625,-35.0,-1,1.0,0.18940100000008897
1055,12,0.5,0.0625,-35.0,-1,1.0,0.3861010000000533
1056,12,0.5,0.125,35.0,1,1.0,0.263101000000006
1057,12,0.5,1.0,35.0,1,1.0,0.4063009999999849
1058,12,0.5,0.0625,35.0,-1,0.0,19.072900999999547
1059,12,0.5,0.0,35.0,-1,0.0,31.717000999999982
1060,12,0.5,0.25,35.0,-1,0.0,6.237800999999763
1061,12,0.5,0.0625,35.0,-1,0.0,35.681501000000026
1062,12,0.5,0.25,35.0,-1,0.0,0.13940099999990707
1063,12,0.5,0.25,-35.0,-1,1.0,4.629500999999891
1064,12,0.5,0.25,-35.0,-1,1.0,5.499600999999984
1065,12,0.5,0.0625,35.0,-1,0.0,18.683200999999826
1066,12,0.2,0.0625,35.0,0,0.0,59.94020099999989
1067,12,0.5,1.0,-35.0,-1,1.0,0.10400099999969825
1068,12,0.5,0.0,-35.0,-1,1.0,37.861801000000014
1069,12,0.5,0.0,35.0,-1,0.0,0.3896010000003116
1,13,0.5,1.0,-35.0,-1,1.0,0.18130000000000024
2,13,0.5,0.25,35.0,1,1.0,0.22710000000000008
3,13,0.5,1.0,-35.0,-1,1.0,0.16540000000000177
4,13,0.5,0.0,35.0,1,1.0,0.2154000000000007
5,13,0.5,1.0,-35.0,-1,1.0,0.23500000000000298
6,13,0.5,1.0,35.0,1,1.0,0.19169999999999732
7,13,0.5,0.0625,-35.0,1,0.0,0.20230000000000103
8,13,0.5,0.25,35.0,1,1.0,0.19209999999999994
9,13,0.5,0.125,35.0,1,1.0,0.15989999999999682
10,13,0.5,1.0,35.0,1,1.0,0.17559999999999576
11,13,0.5,0.0,-35.0,1,0.0,0.25390000000000157
12,13,0.5,0.0625,35.0,-1,0.0,0.11670000000000158
13,13,0.5,0.125,35.0,1,1.0,0.29459999999999553
14,13,0.5,1.0,35.0,1,1.0,0.15729999999999933
15,13,0.5,0.25,35.0,1,1.0,0.15460000000000207
16,13,0.5,0.0625,-35.0,1,0.0,0.1565000000000012
17,13,0.5,0.25,-35.0,-1,1.0,0.22860000000000014
18,13,0.5,0.125,35.0,1,1.0,0.197499999999998
19,13,0.5,0.125,35.0,1,1.0,0.15510000000000446
20,13,0.5,0.0625,35.0,1,1.0,0.1553999999999931
21,13,0.5,0.0625,35.0,1,1.0,0.1892000000000067
22,13,0.5,1.0,-35.0,-1,1.0,0.25670000000000925
23,13,0.5,0.125,35.0,1,1.0,0.14820000000000277
24,13,0.5,0.0625,-35.0,1,0.0,0.1693000000000069
25,13,0.5,0.0625,-35.0,1,0.0,0.18139999999999645
26,13,0.5,0.125,35.0,-1,0.0,0.10639999999999361
27,13,0.5,0.0625,-35.0,1,0.0,0.18710000000000093
28,13,0.8,0.0625,35.0,-1,0.0,0.3166999999999973
29,13,0.5,1.0,-35.0,-1,1.0,0.19290000000000873
30,13,0.5,0.125,35.0,1,1.0,0.1844999999999999
31,13,0.5,0.0625,-35.0,1,0.0,0.17709999999999582
32,13,0.6,0.0625,-35.0,-1,1.0,0.2043999999999926
33,13,0.5,1.0,35.0,1,1.0,0.19240000000000634
34,13,0.5,0.125,-35.0,-1,1.0,0.23990000000000578
35,13,0.5,0.25,-35.0,-1,1.0,0.2717999999999847
36,13,0.5,0.0625,-35.0,-1,1.0,0.08639999999998338
37,13,0.5,0.0625,35.0,1,1.0,0.2939999999999827
38,13,0.5,0.25,-35.0,-1,1.0,0.2610000000000099
39,13,0.5,0.125,35.0,1,1.0,0.4218000000000046
40,13,0.5,0.125,-35.0,-1,1.0,0.18659999999998433
41,13,0.5,0.0625,-35.0,1,0.0,0.23430000000000462
42,13,0.4,0.0625,35.0,1,1.0,0.36880000000000734
43,13,0.5,1.0,-35.0,-1,1.0,0.1950999999999823
44,13,0.5,1.0,35.0,1,1.0,0.177599999999984
45,13,0.5,0.25,35.0,1,1.0,0.42199999999999704
46,13,0.5,0.0,-35.0,-1,1.0,0.12530000000000996
47,13,0.5,0.25,-35.0,-1,1.0,0.15660000000002583
48,13,0.5,1.0,-35.0,-1,1.0,0.1536000000000115
49,13,0.5,1.0,35.0,1,1.0,0.2819000000000358
50,13,0.5,0.125,35.0,1,1.0,0.20409999999998263
51,13,0.5,0.0625,35.0,-1,0.0,0.07320000000004256
52,13,0.5,0.125,35.0,1,1.0,0.24699999999998568
53,13,0.5,1.0,35.0,1,1.0,0.17530000000002133
54,13,0.5,0.25,35.0,1,1.0,0.1740000000000066
55,13,0.5,0.0,35.0,1,1.0,0.23040000000000305
56,13,0.5,0.25,-35.0,1,0.0,0.17780000000001905
57,13,0.5,0.25,35.0,1,1.0,0.22040000000001214
58,13,0.5,0.0,-35.0,1,0.0,0.2809000000000026
59,13,0.5,0.0625,35.0,-1,0.0,0.4870999999999981
60,13,0.8,0.0625,-35.0,-1,1.0,0.285000000000025
61,13,0.5,1.0,-35.0,-1,1.0,0.20930000000001314
62,13,0.5,1.0,35.0,1,1.0,0.1704000000000292
63,13,0.5,0.25,35.0,1,1.0,0.21880000000001587
64,13,0.5,0.0625,-35.0,-1,1.0,0.2767000000000053
65,13,0.5,0.0,-35.0,1,0.0,0.16480000000001382
66,13,0.5,0.125,35.0,1,1.0,0.21010000000001128
67,13,0.5,0.125,-35.0,1,0.0,0.19419999999999504
68,13,0.6,0.125,35.0,1,1.0,3.2352000000000203
69,13,0.5,1.0,-35.0,-1,1.0,0.26420000000001664
70,13,0.5,0.125,35.0,1,1.0,0.19710000000000605
71,13,0.5,0.0625,-35.0,1,0.0,0.1645000000000323
72,13,0.5,0.125,-35.0,-1,1.0,0.5120000000000005
73,13,0.5,0.125,35.0,1,1.0,0.17890000000002715
74,13,0.5,0.0,-35.0,1,0.0,0.1645000000000323
75,13,0.5,0.25,35.0,1,1.0,0.25660000000002015
76,13,0.5,0.25,-35.0,-1,1.0,0.4386000000000081
77,13,0.5,1.0,-35.0,-1,1.0,0.2002999999999986
78,13,0.5,0.125,-35.0,1,0.0,0.05109999999999104
79,13,0.5,0.0625,-35.0,-1,1.0,0.24040000000002237
80,13,0.5,0.125,-35.0,1,0.0,0.1973000000000127
81,13,0.5,0.125,-35.0,-1,1.0,0.15399999999999636
82,13,0.5,0.0,-35.0,-1,1.0,0.17710000000002424
83,13,0.5,0.25,-35.0,-1,1.0,0.21110000000004447
84,13,0.5,1.0,35.0,1,1.0,0.059399999999982356
85,13,0.5,0.125,-35.0,-1,1.0,0.08560000000002788
86,13,0.5,0.125,-35.0,-1,1.0,0.11530000000001905
87,13,0.5,0.25,35.0,-1,0.0,0.18010000000001014
88,13,0.5,0.0625,-35.0,-1,1.0,0.27780000000001337
89,13,0.5,0.125,35.0,1,1.0,0.2411000000000172
90,13,0.5,0.25,35.0,1,1.0,0.2641000000000133
91,13,0.5,1.0,35.0,-1,0.0,0.16240000000001942
92,13,0.3,1.0,-35.0,-1,1.0,0.066599999999994
93,13,0.5,1.0,-35.0,-1,1.0,0.14419999999995525
94,13,0.5,1.0,35.0,1,1.0,0.2892999999999688
95,13,0.5,0.125,35.0,-1,0.0,0.20409999999998263
96,13,0.5,0.25,-35.0,-1,1.0,0.1741999999999848
97,13,0.5,0.0625,-35.0,1,0.0,0.16339899999996987
98,13,0.4,0.0625,-35.0,1,0.0,0.18029999999998836
99,13,0.5,1.0,35.0,1,1.0,0.190400000000011
100,13,0.5,0.25,-35.0,-1,1.0,0.29419999999998936
101,13,0.5,0.0625,-35.0,-1,1.0,0.41229999999995925
102,13,0.5,0.125,-35.0,-1,1.0,0.1893999999999778
103,13,0.5,1.0,-35.0,-1,1.0,0.0916000000000281
104,13,0.5,0.125,-35.0,-1,1.0,0.18679999999994834
105,13,0.5,1.0,35.0,-1,0.0,0.08199999999999363
106,13,0.5,0.25,35.0,-1,0.0,0.17559999999997444
107,13,0.5,0.125,-35.0,-1,1.0,0.22469999999998436
108,13,0.5,0.125,35.0,1,1.0,0.23289999999997235
109,13,0.5,0.125,-35.0,-1,1.0,0.17599999999998772
110,13,0.5,0.0,35.0,1,1.0,0.19189999999997553
111,13,0.5,0.0,35.0,1,1.0,0.07650000000001
112,13,0.5,0.25,35.0,1,1.0,0.21249999999997726
113,13,0.5,1.0,-35.0,-1,1.0,0.2144999999999868
114,13,0.5,0.0625,-35.0,1,0.0,0.11299999999999955
115,13,0.5,0.125,-35.0,-1,1.0,0.1250999999999749
116,13,0.5,0.0625,-35.0,1,0.0,0.194500000000005
117,13,0.5,0.0625,-35.0,1,0.0,0.21619999999995798
118,13,0.5,0.0625,-35.0,1,0.0,0.21649999999999636
119,13,0.5,0.25,35.0,1,1.0,0.18549999999999045
120,13,0.5,0.0625,-35.0,1,0.0,0.22399999999998954
121,13,0.5,0.0625,35.0,1,1.0,0.21730000000002292
122,13,0.5,1.0,35.0,1,1.0,0.25799999999998136
123,13,0.5,0.125,-35.0,-1,1.0,0.014499999999998181
124,13,0.5,0.25,-35.0,-1,1.0,0.18460000000004584
125,13,0.5,0.125,-35.0,-1,1.0,0.23879999999996926
126,13,0.5,0.0625,35.0,1,1.0,0.30359999999996035
127,13,0.5,0.0625,35.0,-1,0.0,0.2810999999999808
128,13,0.6,0.0625,-35.0,1,0.0,0.22949999999997317
129,13,0.5,1.0,-35.0,-1,1.0,0.11980000000005475
130,13,0.5,0.125,-35.0,-1,1.0,0.227800000000002
131,13,0.5,0.25,35.0,-1,0.0,0.1530999999999949
132,13,0.5,0.0,35.0,-1,0.0,0.052199999999970714
133,13,0.2,0.0,-35.0,-1,1.0,0.17130000000003065
134,13,0.5,1.0,35.0,1,1.0,0.1856000000000222
135,13,0.5,0.0,-35.0,-1,1.0,2.18059999999997
136,13,0.5,1.0,35.0,1,1.0,0.3324000000000069
137,13,0.5,0.0,35.0,1,1.0,0.19079999999996744
138,13,0.5,0.125,35.0,1,1.0,0.3065000000000282
139,13,0.5,1.0,-35.0,-1,1.0,0.22749999999996362
140,13,0.5,0.125,35.0,1,1.0,0.2045999999999708
141,13,0.5,0.0625,35.0,1,1.0,0.17039999999997235
142,13,0.5,1.0,-35.0,1,0.0,0.12289999999995871
143,13,0.5,0.0625,35.0,1,1.0,0.2075999999999567
144,13,0.5,0.25,35.0,1,1.0,0.17730000000000246
145,13,0.5,0.125,-35.0,1,0.0,0.15850000000000364
146,13,0.5,0.0625,-35.0,1,0.0,0.19669999999996435
147,13,0.5,0.125,35.0,1,1.0,0.24349999999998317
148,13,0.5,0.25,-35.0,-1,1.0,0.2741999999999507
149,13,0.5,0.25,-35.0,-1,1.0,0.23640000000000327
150,13,0.5,0.25,-35.0,1,0.0,0.11259999999998627
151,13,0.5,0.0625,-35.0,1,0.0,0.08999999999997499
152,13,0.5,0.0,-35.0,-1,1.0,0.26080000000001746
153,13,0.5,0.0625,-35.0,1,0.0,0.134900000000016
154,13,0.5,0.0625,35.0,-1,0.0,0.09839999999996962
155,13,0.5,0.0625,-35.0,-1,1.0,0.2726999999999862
156,13,0.5,0.25,35.0,-1,0.0,0.19719999999995252
157,13,0.5,0.25,35.0,-1,0.0,0.14909899999997833
158,13,0.5,0.125,-35.0,-1,1.0,0.25519999999994525
159,13,0.5,0.0,35.0,-1,0.0,0.22030000000000882
160,13,0.5,0.125,35.0,1,1.0,0.12759999999997262
161,13,0.5,0.0,-35.0,-1,1.0,0.1338000000000079
162,13,0.5,0.125,-35.0,-1,1.0,0.2645989999999756
163,13,0.5,0.125,35.0,1,1.0,0.12709899999998697
164,13,0.5,0.125,-35.0,-1,1.0,0.3062999999999647
165,13,0.5,0.125,35.0,1,1.0,0.14080000000001291
166,13,0.5,0.125,35.0,1,1.0,0.19509999999996808
167,13,0.5,0.0625,-35.0,1,0.0,0.12709999999998445
168,13,0.5,0.25,35.0,1,1.0,0.27019999999998845
169,13,0.5,1.0,35.0,1,1.0,0.1933999999999969
170,13,0.5,0.125,-35.0,-1,1.0,0.2370999999999981
171,13,0.5,1.0,35.0,1,1.0,0.1922999999999888
172,13,0.5,0.0,35.0,-1,0.0,0.19049999999992906
173,13,0.5,0.0,35.0,-1,0.0,0.17300000000000182
174,13,0.5,0.25,-35.0,-1,1.0,0.09639999999996007
175,13,0.5,0.25,35.0,1,1.0,0.05139999999994416
176,13,0.5,0.0625,35.0,1,1.0,0.11199999999996635
177,13,0.5,1.0,35.0,1,1.0,0.1269999999999527
178,13,0.5,0.0625,-35.0,1,0.0,0.20819999999997663
179,13,0.6,0.0625,35.0,-1,0.0,0.08930000000003702
180,13,0.5,1.0,-35.0,-1,1.0,0.18460000000004584
181,13,0.5,0.0625,35.0,1,1.0,0.28449999999998
182,13,0.5,0.0625,35.0,1,1.0,0.17889999999988504
183,13,0.5,0.125,-35.0,1,0.0,0.24199999999984811
184,13,0.5,0.25,35.0,1,1.0,0.2645999999999731
185,13,0.5,0.125,35.0,-1,0.0,0.055399999999963256
186,13,0.5,0.125,-35.0,1,0.0,0.22490000000004784
187,13,0.5,0.0625,35.0,1,1.0,0.369199999999978
188,13,0.5,0.125,-35.0,-1,1.0,0.20929999999998472
189,13,0.5,0.125,-35.0,-1,1.0,0.2979000000000269
190,13,0.5,0.0,35.0,-1,0.0,0.19660000000010314
191,13,0.5,0.125,35.0,1,1.0,0.32710000000008677
192,13,0.5,0.125,35.0,1,1.0,0.2378999999999678
193,13,0.5,0.25,-35.0,-1,1.0,0.23239999999998417
194,13,0.5,0.125,-35.0,1,0.0,0.2057999999999538
195,13,0.5,0.125,35.0,1,1.0,0.14030000000002474
196,13,0.5,0.0,-35.0,1,0.0,0.24159999999994852
197,13,0.5,0.0625,35.0,1,1.0,0.2381000000000313
198,13,0.5,0.0625,35.0,1,1.0,0.2039999999999509
199,13,0.5,1.0,35.0,1,1.0,0.19709999999997763
200,13,0.5,0.0,-35.0,1,0.0,0.15819999999996526
201,13,0.9,0.0,-35.0,1,0.0,0.1835999999999558
202,13,0.5,1.0,-35.0,-1,1.0,0.24070000000006075
203,13,0.5,0.0625,35.0,-1,0.0,0.16690000000005512
204,13,0.5,0.25,35.0,1,1.0,0.43029999999987467
205,13,0.5,0.0625,35.0,1,1.0,0.28449999999998
206,13,0.5,0.25,35.0,1,1.0,0.3123999999999114
207,13,0.5,1.0,-35.0,-1,1.0,0.21010000000001128
208,13,0.5,1.0,35.0,-1,0.0,0.04769999999996344
209,13,0.5,0.0625,-35.0,-1,1.0,0.14049999999986085
210,13,0.5,0.0,-35.0,-1,1.0,0.14400000000000546
211,13,0.5,0.125,35.0,-1,0.0,0.18389999999999418
212,13,0.5,0.25,-35.0,-1,1.0,0.17860000000007403
213,13,0.5,0.125,-35.0,-1,1.0,0.213799999999992
214,13,0.5,1.0,-35.0,-1,1.0,0.18919999999991433
215,13,0.5,1.0,35.0,1,1.0,0.23109999999996944
216,13,0.5,1.0,-35.0,-1,1.0,0.14050000000008822
217,13,0.5,0.25,35.0,1,1.0,0.25640000000009877
218,13,0.5,0.0,-35.0,-1,1.0,0.40810000000010405
219,13,0.5,0.125,-35.0,-1,1.0,0.14869999999996253
220,13,0.5,0.0625,-35.0,-1,1.0,0.16009999999994307
221,13,0.5,0.25,35.0,1,1.0,0.30360000000007403
222,13,0.5,1.0,-35.0,-1,1.0,0.11949999999990268
223,13,0.5,0.0625,-35.0,-1,1.0,0.2098999999999478
224,13,0.5,1.0,-35.0,-1,1.0,0.20879999999999654
225,13,0.5,0.25,-35.0,-1,1.0,0.18089999999995143
226,13,0.5,0.0,35.0,-1,0.0,0.0543999999999869
227,13,0.5,0.0625,-35.0,-1,1.0,0.10559999999998126
228,13,0.5,0.125,-35.0,-1,1.0,0.20099999999990814
229,13,0.5,0.0625,-35.0,-1,1.0,0.017900000000054206
230,13,0.5,0.25,-35.0,-1,1.0,0.24299999999993815
231,13,0.5,0.0,35.0,-1,0.0,0.18329999999991742
232,13,0.5,0.125,35.0,1,1.0,0.4356000000000222
233,13,0.5,0.0625,-35.0,-1,1.0,0.17620099999999184
234,13,0.5,0.125,35.0,1,1.0,0.2414009999999962
235,13,0.5,0.125,-35.0,1,0.0,0.19370099999991908
236,13,0.5,0.0,-35.0,1,0.0,0.4528009999999085
237,13,0.5,0.0,-35.0,1,0.0,0.3590009999999211
238,13,0.5,0.125,-35.0,-1,1.0,0.24600099999997838
239,13,0.5,0.0625,35.0,-1,0.0,0.21240099999999984
240,13,0.5,0.0625,35.0,-1,0.0,0.010600999999951455
241,13,0.5,0.0625,35.0,-1,0.0,-0.00519900000006146
242,13,0.5,0.25,-35.0,-1,1.0,0.15350100000000566
243,13,0.5,0.0625,-35.0,1,0.0,0.2092010000000073
244,13,0.5,0.0625,35.0,1,1.0,0.2933010000000422
245,13,0.5,1.0,-35.0,-1,1.0,0.1874009999999089
246,13,0.5,0.0,35.0,1,1.0,0.3711009999999533
247,13,0.5,0.0,35.0,1,1.0,0.20050100000003113
248,13,0.5,0.25,35.0,1,1.0,0.2939009999998916
249,13,0.5,0.125,-35.0,1,0.0,0.18030099999998583
250,13,0.5,0.25,35.0,1,1.0,0.2822009999998727
251,13,0.5,0.25,-35.0,-1,1.0,0.25460099999997965
252,13,0.5,0.0625,35.0,1,1.0,0.22880099999986214
253,13,0.5,0.0625,35.0,1,1.0,0.23080100000004222
254,13,0.5,1.0,35.0,1,1.0,0.20800099999996746
255,13,0.5,1.0,35.0,1,1.0,0.22060099999998783
256,13,0.5,0.0625,35.0,-1,0.0,0.138800999999944
257,13,0.5,0.25,-35.0,-1,1.0,0.18610100000000784
258,13,0.5,0.0625,-35.0,-1,1.0,0.21090099999992162
259,13,0.5,0.25,35.0,1,1.0,0.29880100000002585
260,13,0.5,0.0,35.0,1,1.0,0.28290099999992435
261,13,0.5,0.25,35.0,1,1.0,0.16870099999994181
262,13,0.5,1.0,35.0,1,1.0,0.20460100000002512
263,13,0.5,0.25,35.0,1,1.0,0.19450099999994563
264,13,0.5,1.0,35.0,1,1.0,0.2109010000000353
265,13,0.5,0.125,-35.0,1,0.0,0.19230099999992945
266,13,0.5,0.25,35.0,1,1.0,0.3643010000000686
267,13,0.5,1.0,-35.0,-1,1.0,0.20060100000000602
268,13,0.5,0.25,35.0,1,1.0,0.23990099999991799
269,13,0.5,0.0,35.0,1,1.0,0.2574009999999589
270,13,0.5,0.125,35.0,1,1.0,0.2171010000000706
271,13,0.5,0.25,35.0,1,1.0,0.2477010000000064
272,13,0.5,1.0,-35.0,-1,1.0,0.3307009999999764
273,13,0.5,0.125,-35.0,-1,1.0,0.28690100000005714
274,13,0.5,1.0,35.0,1,1.0,0.22580100000004677
275,13,0.5,0.125,35.0,1,1.0,0.3077009999999518
276,13,0.5,0.0625,-35.0,-1,1.0,0.26250099999992926
277,13,0.5,0.125,-35.0,-1,1.0,0.27290100000004713
278,13,0.5,0.0,-35.0,1,0.0,0.22030100000006314
279,13,0.5,0.0625,35.0,-1,0.0,0.21210100000007515
280,13,0.5,0.25,-35.0,-1,1.0,0.24590100000000348
281,13,0.5,1.0,35.0,1,1.0,0.13480100000003858
282,13,0.5,0.0625,-35.0,1,0.0,0.04160100000001421
283,13,0.5,0.25,-35.0,-1,1.0,0.13960099999997055
284,13,0.5,0.125,35.0,1,1.0,0.2879009999999198
285,13,0.5,0.25,-35.0,-1,1.0,0.18800099999987196
286,13,0.5,0.125,-35.0,-1,1.0,0.32940099999996164
287,13,0.5,1.0,-35.0,-1,1.0,0.28450099999997747
288,13,0.5,0.125,-35.0,1,0.0,0.12560100000007424
289,13,0.5,0.0,35.0,-1,0.0,0.04600100000004659
290,13,0.5,0.25,35.0,1,1.0,0.7369009999999889
291,13,0.5,0.125,35.0,1,1.0,0.154500999999982
292,13,0.5,0.125,35.0,1,1.0,0.29070100000001275
293,13,0.5,0.0625,-35.0,1,0.0,0.1868010000000595
294,13,0.6,0.0625,-35.0,-1,1.0,0.26400100000012117
295,13,0.5,1.0,-35.0,-1,1.0,0.184900999999968
296,13,0.5,0.125,-35.0,-1,1.0,0.18610099999989416
297,13,0.5,0.0,-35.0,-1,1.0,0.17620099999999184
298,13,0.5,0.0625,35.0,-1,0.0,0.19790100000000166
299,13,0.5,0.0625,-35.0,-1,1.0,0.21890099999995982
300,13,0.5,0.0,-35.0,-1,1.0,0.03740099999993163
301,13,0.5,0.125,35.0,-1,0.0,0.07810099999994691
302,13,0.5,0.0625,35.0,-1,0.0,0.16820100000006732
303,13,0.1,0.0625,35.0,-1,0.0,0.1949009999999589
304,13,0.5,1.0,35.0,1,1.0,0.43320099999994
305,13,0.5,0.0625,-35.0,-1,1.0,0.29690099999993436
306,13,0.5,0.25,-35.0,-1,1.0,0.3301010000000133
307,13,0.5,0.0625,35.0,-1,0.0,0.42180099999995946
308,13,0.5,0.0625,35.0,-1,0.0,0.4396009999999251
309,13,0.5,0.125,-35.0,-1,1.0,0.23720099999991362
310,13,0.5,0.125,35.0,1,1.0,0.35960099999999784
311,13,0.5,1.0,35.0,1,1.0,0.2572010000000091
312,13,0.5,0.125,35.0,1,1.0,0.19970100000000457
313,13,0.5,0.25,-35.0,-1,1.0,0.25700099999994563
314,13,0.5,1.0,35.0,1,1.0,0.2395009999999047
315,13,0.5,0.25,35.0,1,1.0,0.23860100000001694
316,13,0.5,0.125,-35.0,1,0.0,0.23500099999989743
317,13,0.5,0.0625,35.0,1,1.0,0.21260099999994964
318,13,0.5,0.25,35.0,1,1.0,0.25320099999999
319,13,0.5,0.25,35.0,1,1.0,0.27640099999996437
320,13,0.5,0.25,-35.0,-1,1.0,0.23480100000006132
321,13,0.5,0.125,-35.0,-1,1.0,0.1911009999998896
322,13,0.5,0.125,-35.0,-1,1.0,0.1930009999999811
323,13,0.5,0.25,35.0,1,1.0,0.21050100000013572
324,13,0.5,1.0,-35.0,-1,1.0,0.23830099999997856
325,13,0.5,0.125,35.0,-1,0.0,0.14570099999991726
326,13,0.5,0.25,-35.0,-1,1.0,0.1632009999998445
327,13,0.5,0.0625,-35.0,1,0.0,0.2274009999999862
328,13,0.5,0.0,35.0,-1,0.0,0.16220099999998183
329,13,0.5,0.25,-35.0,-1,1.0,0.15750099999991107
330,13,0.5,0.0,-35.0,1,0.0,0.08170100000006641
331,13,0.5,0.0625,-35.0,-1,1.0,0.23390100000005987
332,13,0.5,0.25,35.0,1,1.0,0.44630099999994854
333,13,0.5,0.125,35.0,1,1.0,0.19480099999998401
334,13,0.5,0.0625,35.0,1,1.0,0.2357009999999491
335,13,0.5,0.25,35.0,1,1.0,0.16860099999996692
336,13,0.5,1.0,35.0,1,1.0,0.24570099999994
337,13,0.5,0.25,35.0,1,1.0,0.1828010000000404
338,13,0.5,0.125,-35.0,1,0.0,0.263101000000006
339,13,0.8,0.125,35.0,-1,0.0,0.15600099999994654
340,13,0.5,1.0,35.0,1,1.0,0.9287009999999327
341,13,0.5,0.125,35.0,1,1.0,0.21030099999984486
342,13,0.5,0.125,35.0,1,1.0,0.3761009999999487
343,13,0.5,0.0,-35.0,1,0.0,0.2472010000000182
344,13,0.5,0.25,35.0,1,1.0,0.3156010000000151
345,13,0.5,0.0625,35.0,1,1.0,0.20460099999991144
346,13,0.5,0.125,35.0,1,1.0,0.4412010000000919
347,13,0.5,1.0,-35.0,-1,1.0,0.1911010000000033
348,13,0.5,0.125,35.0,1,1.0,0.2777009999999791
349,13,0.5,0.0625,35.0,1,1.0,0.3547009999999773
350,13,0.5,0.125,-35.0,1,0.0,0.2212009999999509
351,13,0.9,0.125,-35.0,-1,1.0,0.4049009999999953
352,13,0.5,1.0,-35.0,-1,1.0,0.271300999999994
353,13,0.5,0.0625,35.0,1,1.0,0.3422009999999318
354,13,0.5,0.0625,-35.0,-1,1.0,0.3386010000000397
355,13,0.5,0.25,-35.0,-1,1.0,0.27810100000010607
356,13,0.5,0.125,35.0,-1,0.0,0.13160100000004604
357,13,0.5,0.0625,-35.0,1,0.0,0.261801000000105
358,13,0.5,0.125,-35.0,-1,1.0,0.14850099999989652
359,13,0.5,0.125,35.0,-1,0.0,0.21220099999982267
360,13,0.5,0.0625,35.0,-1,0.0,2.728701000000001
361,13,0.5,0.125,-35.0,-1,1.0,0.19220100000006823
362,13,0.5,0.125,-35.0,-1,1.0,0.1588010000000395
363,13,0.5,0.0625,35.0,-1,0.0,0.07640100000025996
364,13,0.1,0.0625,-35.0,-1,1.0,0.16560099999992417
365,13,0.5,1.0,35.0,1,1.0,0.23630099999991216
366,13,0.5,0.125,-35.0,-1,1.0,0.4189010000000053
367,13,0.5,0.125,-35.0,-1,1.0,0.30930100000000493
368,13,0.5,0.0,-35.0,-1,1.0,0.21240099999999984
369,13,0.5,0.0,35.0,-1,0.0,0.16960100000005696
370,13,0.5,0.0625,35.0,-1,0.0,0.2559009999999944
371,13,0.5,0.25,35.0,-1,0.0,0.036100999999916894
372,13,0.5,0.0625,-35.0,-1,1.0,0.15990099999976337
373,13,0.5,0.0625,35.0,-1,0.0,0.17640099999994163
374,13,0.5,0.125,-35.0,-1,1.0,0.20960100000002058
375,13,0.5,0.0625,35.0,-1,0.0,0.19970100000000457
376,13,0.0,0.0625,35.0,-1,0.0,0.1864010000001599
377,13,0.5,1.0,35.0,1,1.0,0.16720100000020466
378,13,0.5,0.125,-35.0,-1,1.0,0.2373010000001159
379,13,0.5,0.0625,-35.0,-1,1.0,0.4766010000000733
380,13,0.5,0.25,35.0,1,1.0,0.25090099999988524
381,13,0.5,1.0,35.0,1,1.0,0.19690099999979793
382,13,0.5,0.0625,35.0,-1,0.0,0.217000999999982
383,13,0.5,0.125,35.0,1,1.0,0.16040099999986523
384,13,0.5,0.25,35.0,1,1.0,0.28700099999991835
385,13,0.5,0.125,35.0,1,1.0,0.25090099999988524
386,13,0.5,0.0625,-35.0,1,0.0,0.1711009999999078
387,13,0.7,0.0625,-35.0,-1,1.0,0.22750100000007478
388,13,0.5,1.0,35.0,1,1.0,0.26450099999988197
389,13,0.5,0.0,-35.0,1,0.0,0.18770100000028833
390,13,0.5,0.25,-35.0,-1,1.0,0.1876009999998587
391,13,0.5,0.0,-35.0,1,0.0,0.277800999999954
392,13,0.5,0.125,-35.0,1,0.0,0.23450100000013663
393,13,0.5,0.25,35.0,1,1.0,0.3945009999999911
394,13,0.5,0.0625,35.0,-1,0.0,0.3746009999999842
395,13,0.5,0.125,-35.0,-1,1.0,0.23480100000006132
396,13,0.5,1.0,-35.0,-1,1.0,0.13190099999997074
397,13,0.5,0.125,-35.0,-1,1.0,0.1713009999998576
398,13,0.5,0.125,-35.0,-1,1.0,0.2717009999998936
399,13,0.5,1.0,35.0,1,1.0,0.2415009999999711
400,13,0.5,0.0,-35.0,1,0.0,2.1982009999999264
401,13,0.5,0.25,-35.0,-1,1.0,0.16170099999999366
402,13,0.5,0.125,-35.0,-1,1.0,0.2756010000000515
403,13,0.5,0.0625,35.0,1,1.0,0.18550099999993108
404,13,0.5,0.125,35.0,1,1.0,0.2157009999998536
405,13,0.5,0.125,-35.0,-1,1.0,0.22870100000000093
406,13,0.5,0.25,35.0,1,1.0,0.23300099999983104
407,13,0.5,1.0,-35.0,-1,1.0,0.19230100000004313
408,13,0.5,0.25,-35.0,1,0.0,0.19230099999981576
409,13,0.5,0.0,-35.0,1,0.0,0.21240099999999984
410,13,0.6,0.0,-35.0,-1,1.0,0.07270100000005186
411,13,0.5,1.0,35.0,1,1.0,0.26260099999990416
412,13,0.5,0.0625,-35.0,-1,1.0,0.295900999999958
413,13,0.5,0.0625,-35.0,1,0.0,0.22250100000019302
414,13,0.6,0.0625,-35.0,1,0.0,0.19300099999986742
415,13,0.5,1.0,-35.0,-1,1.0,0.20960100000002058
416,13,0.5,1.0,-35.0,1,0.0,0.17980099999999766
417,13,0.5,0.125,35.0,1,1.0,1.0829009999999926
418,13,0.5,1.0,35.0,1,1.0,0.2031010000000606
419,13,0.5,1.0,-35.0,-1,1.0,0.21620099999972808
420,13,0.5,1.0,35.0,-1,0.0,0.15970100000004095
421,13,0.5,0.0625,35.0,1,1.0,0.3597010000000864
422,13,0.5,1.0,35.0,1,1.0,0.24390100000005077
423,13,0.5,0.125,35.0,1,1.0,0.33700100000010025
424,13,0.5,1.0,-35.0,-1,1.0,0.21020099999986996
425,13,0.5,1.0,-35.0,-1,1.0,0.24030100000004495
426,13,0.5,0.0,35.0,1,1.0,0.3006009999999151
427,13,0.5,0.0,35.0,1,1.0,0.40000099999997474
428,13,0.5,0.125,35.0,1,1.0,0.1769010000000435
429,13,0.5,0.25,35.0,1,1.0,0.2536009999998896
430,13,0.5,0.125,-35.0,-1,1.0,0.340300999999954
431,13,0.5,0.0625,-35.0,-1,1.0,0.38710100000002967
432,13,0.5,0.0625,35.0,1,1.0,0.3438009999999849
433,13,0.5,0.0,35.0,-1,0.0,0.2437009999998736
434,13,0.5,0.0,35.0,-1,0.0,0.20050100000003113
435,13,0.5,1.0,35.0,1,1.0,0.15420099999982995
436,13,0.5,1.0,-35.0,-1,1.0,0.28060100000016064
437,13,0.5,0.0625,35.0,1,1.0,0.33080100000006496
438,13,0.5,1.0,-35.0,-1,1.0,0.23760100000004059
439,13,0.5,1.0,35.0,1,1.0,0.26440099999990707
440,13,0.5,0.0625,35.0,1,1.0,2.414500999999973
441,13,0.5,0.0625,-35.0,-1,1.0,1.2477010000000064
442,13,0.5,0.125,35.0,-1,0.0,0.3746009999999842
443,13,0.5,0.125,-35.0,-1,1.0,0.24150100000019847
444,13,0.5,0.25,35.0,1,1.0,0.24480099999982485
445,13,0.5,1.0,35.0,1,1.0,0.2415009999999711
446,13,0.5,1.0,35.0,1,1.0,0.2750010000002021
447,13,0.5,1.0,-35.0,-1,1.0,0.1625010000000202
448,13,0.5,1.0,35.0,1,1.0,0.19860099999982594
449,13,0.5,0.25,-35.0,-1,1.0,0.2049010000000635
450,13,0.5,1.0,35.0,1,1.0,0.23830100000009224
451,13,0.5,0.125,35.0,1,1.0,0.28850100000022394
452,13,0.5,0.0625,35.0,1,1.0,0.18190099999992526
453,13,0.5,1.0,35.0,-1,0.0,0.07180100000005041
454,13,0.5,0.0625,35.0,1,1.0,1.4952009999999518
455,13,0.5,0.25,35.0,1,1.0,0.25880099999994854
456,13,0.5,0.125,35.0,1,1.0,0.30890100000010534
457,13,0.5,0.125,-35.0,-1,1.0,0.4630009999998492
458,13,0.5,0.0625,35.0,1,1.0,0.6094010000001617
459,13,0.5,0.0,35.0,-1,0.0,0.488901000000169
460,13,0.5,0.125,-35.0,-1,1.0,0.48610100000018974
461,13,0.5,0.0625,-35.0,-1,1.0,0.2593010000000504
462,13,0.5,1.0,-35.0,-1,1.0,0.22640099999989616
463,13,0.5,0.25,-35.0,-1,1.0,0.38020099999971535
464,13,0.5,0.125,-35.0,-1,1.0,0.28690099999994345
465,13,0.5,0.0625,-35.0,-1,1.0,0.21990099999993618
466,13,0.5,0.0,35.0,1,1.0,0.17630099999996673
467,13,0.5,0.0,35.0,1,1.0,0.28300100000001294
468,13,0.5,0.0625,35.0,1,1.0,0.22650100000009843
469,13,0.5,0.25,-35.0,-1,1.0,0.20650100000011662
470,13,0.5,0.25,-35.0,-1,1.0,0.2699009999998907
471,13,0.5,0.25,35.0,1,1.0,0.18370099999992817
472,13,0.5,1.0,35.0,1,1.0,0.26670100000001185
473,13,0.5,0.0625,-35.0,1,0.0,0.22000099999991107
474,13,0.5,0.0625,-35.0,-1,1.0,0.24680099999977756
475,13,0.5,1.0,35.0,1,1.0,0.2437009999998736
476,13,0.5,1.0,35.0,1,1.0,0.22370100000011917
477,13,0.5,0.25,35.0,1,1.0,0.3705009999998765
478,13,0.5,1.0,35.0,1,1.0,0.17710100000022067
479,13,0.5,0.0625,35.0,-1,0.0,0.1706010000000333
480,13,0.7,0.0625,35.0,1,1.0,0.22080099999993763
481,13,0.5,1.0,35.0,-1,0.0,0.12060100000007878
482,13,0.7,1.0,35.0,1,1.0,0.28120100000001
483,13,0.5,1.0,35.0,1,1.0,0.20150100000023485
484,13,0.5,0.25,35.0,1,1.0,0.17770100000007005
485,13,0.5,0.0625,35.0,-1,0.0,0.5977010000001428
486,13,0.5,0.25,-35.0,-1,1.0,0.2380009999997128
487,13,0.5,0.0625,-35.0,-1,1.0,0.35140100000012353
488,13,0.5,0.125,35.0,1,1.0,0.17210099999988415
489,13,0.5,0.125,-35.0,-1,1.0,0.12480100000016137
490,13,0.5,0.25,35.0,1,1.0,0.19530100000019956
491,13,0.5,0.125,35.0,1,1.0,0.18820099999993545
492,13,0.5,0.0625,35.0,1,1.0,0.22170100000016646
493,13,0.5,1.0,-35.0,-1,1.0,0.18520099999977901
494,13,0.5,1.0,-35.0,-1,1.0,0.2557010000000446
495,13,0.5,0.25,35.0,1,1.0,0.27840100000003076
496,13,0.5,0.125,-35.0,-1,1.0,1.208800999999994
497,13,0.5,0.25,35.0,1,1.0,0.2856010000000424
498,13,0.5,0.125,-35.0,-1,1.0,0.23890099999994163
499,13,0.5,0.0625,-35.0,1,0.0,0.33920100000000275
500,13,0.5,0.125,-35.0,-1,1.0,0.17930100000012317
501,13,0.5,0.0,35.0,1,1.0,0.21600100000000566
502,13,0.5,0.125,-35.0,-1,1.0,0.2593010000000504
503,13,0.5,1.0,-35.0,-1,1.0,0.2697009999999409
504,13,0.5,0.0625,-35.0,1,0.0,0.2193010000000868
505,13,0.5,0.0,35.0,1,1.0,0.17960100000004786
506,13,0.5,0.125,35.0,1,1.0,0.2961009999999078
507,13,0.5,0.0625,-35.0,1,0.0,0.2495010000000093
508,13,0.6,0.0625,35.0,1,1.0,0.20960100000002058
509,13,0.5,1.0,35.0,-1,0.0,0.12370099999998274
510,13,0.6,1.0,35.0,1,1.0,0.36960100000010243
511,13,0.5,1.0,-35.0,-1,1.0,0.1867010000000846
512,13,0.5,0.0,35.0,1,1.0,0.150101000000177
513,13,0.5,1.0,-35.0,-1,1.0,0.2434009999999489
514,13,0.5,0.0,-35.0,-1,1.0,0.25710099999992053
515,13,0.5,0.0,35.0,1,1.0,0.21340099999974882
516,13,0.5,0.25,-35.0,-1,1.0,0.20360099999993508
517,13,0.5,1.0,-35.0,-1,1.0,0.19070099999999002
518,13,0.5,0.25,-35.0,-1,1.0,0.16700099999980011
519,13,0.5,1.0,-35.0,-1,1.0,0.22720099999992271
520,13,0.5,1.0,-35.0,-1,1.0,0.36720100000002276
521,13,0.5,1.0,-35.0,-1,1.0,0.1872009999999591
522,13,0.5,0.125,-35.0,-1,1.0,0.35080100000004677
523,13,0.5,0.25,-35.0,1,0.0,0.19390100000009625
524,13,0.5,0.125,35.0,1,1.0,0.10120099999994636
525,13,0.5,0.0625,35.0,-1,0.0,0.33080100000006496
526,13,0.5,0.0625,-35.0,1,0.0,0.21820099999990816
527,13,0.5,0.0,-35.0,1,0.0,0.46430099999997765
528,13,0.4,0.0,-35.0,-1,1.0,0.2779009999999289
529,13,0.5,1.0,35.0,-1,0.0,0.15790099999981067
530,13,0.5,0.25,35.0,1,1.0,0.2516010000001643
531,13,0.5,0.0625,-35.0,-1,1.0,0.22850099999982376
532,13,0.5,0.125,35.0,1,1.0,0.7578009999997448
533,13,0.5,0.125,35.0,1,1.0,0.3201010000000224
534,13,0.5,0.0,-35.0,1,0.0,0.18670099999985723
535,13,0.5,0.125,-35.0,-1,1.0,0.26680099999998674
536,13,0.5,0.25,-35.0,-1,1.0,0.2335009999999329
537,13,0.5,0.0625,-35.0,-1,1.0,0.26690099999996164
538,13,0.5,0.125,35.0,1,1.0,0.2636009999998805
539,13,0.5,1.0,-35.0,-1,1.0,0.1937009999996917
540,13,0.5,0.125,35.0,-1,0.0,0.1704010000000835
541,13,0.5,0.0625,-35.0,-1,1.0,0.26050099999997656
542,13,0.5,1.0,35.0,1,1.0,0.0539009999999962
543,13,0.5,0.125,-35.0,-1,1.0,0.23400100000003476
544,13,0.5,0.0,-35.0,-1,1.0,0.2275009999998474
545,13,0.5,0.0625,-35.0,-1,1.0,0.18430100000000493
546,13,0.5,0.0,-35.0,-1,1.0,2.0309010000000853
547,13,0.5,0.25,35.0,1,1.0,0.244300999999723
548,13,0.5,0.0625,-35.0,1,0.0,0.627800999999863
549,13,0.3,0.0625,-35.0,-1,1.0,4.151400999999851
550,13,0.5,1.0,35.0,1,1.0,0.2314010000000053
551,13,0.5,1.0,-35.0,-1,1.0,0.261400999999978
552,13,0.5,0.125,-35.0,-1,1.0,0.1449009999998907
553,13,0.5,0.125,35.0,1,1.0,0.22830099999987397
554,13,0.5,0.125,-35.0,-1,1.0,0.2750010000002021
555,13,0.5,1.0,35.0,1,1.0,0.25510099999974045
556,13,0.5,0.125,-35.0,1,0.0,0.18190099999992526
557,13,0.5,0.25,-35.0,-1,1.0,0.2619010000000799
558,13,0.5,0.25,-35.0,1,0.0,0.22200099999986378
559,13,0.5,0.125,-35.0,-1,1.0,0.2455009999998765
560,13,0.5,1.0,35.0,1,1.0,0.2554009999998925
561,13,0.5,1.0,35.0,1,1.0,0.29900100000008933
562,13,0.5,0.25,35.0,1,1.0,0.28220100000021375
563,13,0.5,0.0625,35.0,-1,0.0,6.2422999999998865
564,13,0.5,0.125,35.0,1,1.0,0.24920099999985723
565,13,0.5,0.0,-35.0,-1,1.0,0.5960010000001148
566,13,0.5,0.125,35.0,-1,0.0,0.4361010000002352
567,13,0.5,0.125,35.0,1,1.0,0.3460009999998874
568,13,0.5,1.0,35.0,1,1.0,0.24270099999989725
569,13,0.5,0.25,35.0,1,1.0,0.2329010000000835
570,13,0.5,1.0,-35.0,1,0.0,0.20630099999993945
571,13,0.5,0.0,35.0,1,1.0,0.31310099999996055
572,13,0.5,0.25,35.0,1,1.0,0.44660099999987324
573,13,0.5,0.0625,-35.0,-1,1.0,0.2633009999999558
574,13,0.5,0.0625,35.0,-1,0.0,0.23330099999975573
575,13,0.5,0.0,-35.0,1,0.0,0.3903010000001359
576,13,0.7,0.0,-35.0,1,0.0,0.2835009999998874
577,13,0.5,1.0,-35.0,-1,1.0,0.2037009999996826
578,13,0.5,0.0625,-35.0,-1,1.0,0.4870010000001912
579,13,0.5,0.0625,35.0,-1,0.0,0.05040100000019265
580,13,0.5,0.0625,35.0,-1,0.0,0.28040099999998347
581,13,0.5,1.0,35.0,1,1.0,0.3340009999999438
582,13,0.5,0.125,-35.0,-1,1.0,0.20070099999998092
583,13,0.5,0.125,-35.0,-1,1.0,0.6707009999997808
584,13,0.5,0.0625,-35.0,-1,1.0,0.264100999999755
585,13,0.5,0.0,-35.0,-1,1.0,0.31080100000008315
586,13,0.5,0.25,35.0,1,1.0,0.4176009999998769
587,13,0.5,0.125,35.0,1,1.0,0.5277009999999791
588,13,0.5,0.0625,35.0,1,1.0,0.3644010000000435
589,13,0.5,1.0,35.0,1,1.0,0.2577009999999973
590,13,0.5,0.125,35.0,1,1.0,0.3244010000000799
591,13,0.5,1.0,35.0,1,1.0,0.2578009999999722
592,13,0.5,0.0,35.0,-1,0.0,0.1512009999999009
593,13,0.5,0.0625,-35.0,-1,1.0,0.2813010000002123
594,13,0.5,0.125,35.0,-1,0.0,0.19810099999972408
595,13,0.6,0.125,-35.0,-1,1.0,0.32500099999992926
596,13,0.5,1.0,-35.0,-1,1.0,0.201600999999755
597,13,0.5,0.0625,35.0,-1,0.0,0.4349010000000817
598,13,0.5,0.0,-35.0,-1,1.0,0.14190099999996164
599,13,0.5,0.0625,35.0,-1,0.0,0.20520100000021557
600,13,0.5,0.0625,35.0,1,1.0,0.4386010000000624
601,13,0.5,0.0625,35.0,1,1.0,0.2654010000001108
602,13,0.5,0.0625,-35.0,-1,1.0,0.31870100000014645
603,13,0.5,0.0625,35.0,1,1.0,1.1821010000001024
604,13,0.5,0.125,-35.0,-1,1.0,0.2457009999998263
605,13,0.5,0.0625,35.0,1,1.0,0.34900100000004386
606,13,0.5,0.125,-35.0,-1,1.0,0.4458009999998467
607,13,0.5,0.125,35.0,1,1.0,0.10920099999998456
608,13,0.5,0.0,-35.0,-1,1.0,0.2558009999997921
609,13,0.5,1.0,35.0,1,1.0,0.23270099999990634
610,13,0.5,1.0,35.0,1,1.0,0.26270100000010643
611,13,0.5,0.0625,-35.0,-1,1.0,0.26610100000016246
612,13,0.5,1.0,-35.0,-1,1.0,0.07950099999993654
613,13,0.5,0.0,35.0,-1,0.0,2.642800999999963
614,13,0.5,0.25,-35.0,-1,1.0,0.18960100000003877
615,13,0.5,0.125,-35.0,-1,1.0,0.2497009999999591
616,13,0.5,0.25,35.0,1,1.0,0.33980099999985214
617,13,0.5,1.0,35.0,1,1.0,0.23650100000008933
618,13,0.5,1.0,35.0,1,1.0,0.26660100000003695
619,13,0.5,0.0,-35.0,1,0.0,0.3801009999999678
620,13,0.5,0.0625,-35.0,-1,1.0,0.11340100000006714
621,13,0.5,0.125,-35.0,-1,1.0,0.22020100000008824
622,13,0.5,0.0,35.0,1,1.0,0.19020100000011553
623,13,0.5,0.0,-35.0,-1,1.0,0.24700099999995473
624,13,0.5,0.0,-35.0,1,0.0,0.2137009999999009
625,13,0.5,0.125,35.0,-1,0.0,0.18710099999975682
626,13,0.5,0.0625,35.0,-1,0.0,0.1505010000000766
627,13,0.5,0.25,35.0,1,1.0,0.2875010000000202
628,13,0.5,0.0625,35.0,1,1.0,0.5809010000000399
629,13,0.5,0.0625,-35.0,-1,1.0,0.29440100000010716
630,13,0.5,0.125,-35.0,1,0.0,0.1944010000001981
631,13,0.5,0.0625,-35.0,-1,1.0,0.2878010000001723
632,13,0.5,0.25,-35.0,-1,1.0,0.2880010000001221
633,13,0.5,0.0,35.0,-1,0.0,0.2047010000001137
634,13,0.5,0.25,-35.0,-1,1.0,0.3213010000001759
635,13,0.5,0.125,-35.0,-1,1.0,0.22800099999994927
636,13,0.5,0.125,35.0,1,1.0,0.25490100000001803
637,13,0.5,0.25,35.0,1,1.0,0.19830100000012862
638,13,0.5,0.0625,35.0,1,1.0,0.2916009999999005
639,13,0.5,1.0,35.0,1,1.0,0.20490099999983613
640,13,0.5,0.25,-35.0,1,0.0,0.19840099999987615
641,13,0.5,0.0625,-35.0,1,0.0,0.3418010000000322
642,13,0.5,0.25,-35.0,-1,1.0,0.6085009999999329
643,13,0.5,0.0625,-35.0,-1,1.0,0.3153010000000904
644,13,0.5,0.0625,-35.0,-1,1.0,0.2353009999999358
645,13,0.5,0.25,35.0,1,1.0,0.6620009999999183
646,13,0.5,0.0625,-35.0,-1,1.0,0.29890099999988706
647,13,0.5,0.25,-35.0,-1,1.0,0.972201000000041
648,13,0.5,1.0,35.0,1,1.0,0.20230100000003404
649,13,0.5,0.125,35.0,1,1.0,0.22910099999990052
650,13,0.5,1.0,-35.0,-1,1.0,0.1891009999999369
651,13,0.5,0.125,35.0,1,1.0,0.28920099999982085
652,13,0.5,1.0,-35.0,-1,1.0,0.19260099999996783
653,13,0.5,0.0625,35.0,-1,0.0,0.5660010000001421
654,13,0.5,0.0,-35.0,1,0.0,3.672800999999936
655,13,0.5,0.0,35.0,-1,0.0,0.19620100000020102
656,13,0.5,1.0,-35.0,-1,1.0,0.19630099999994854
657,13,0.5,0.25,35.0,1,1.0,0.3698010000000522
658,13,0.5,0.0625,-35.0,1,0.0,0.09980099999984304
659,13,0.5,0.25,35.0,1,1.0,0.33670100000017555
660,13,0.5,0.0,35.0,-1,0.0,0.49330099999974664
661,13,0.5,0.125,35.0,1,1.0,0.2901010000000497
662,13,0.5,0.0625,35.0,-1,0.0,1.8968009999998685
663,13,0.5,0.25,-35.0,-1,1.0,0.2369010000002163
664,13,0.5,1.0,-35.0,-1,1.0,0.3370009999998729
665,13,0.5,0.0,-35.0,1,0.0,1.1404009999998834
666,13,0.5,0.0625,-35.0,-1,1.0,0.23720099999991362
667,13,0.5,1.0,35.0,-1,0.0,0.06720100000006823
668,13,0.5,0.0625,-35.0,-1,1.0,0.2474010000000817
669,13,0.5,0.125,35.0,1,1.0,0.2207010000001901
670,13,0.5,0.0,35.0,-1,0.0,0.42410100000006423
671,13,0.3,0.0,35.0,-1,0.0,0.2675010000000384
672,13,0.5,1.0,35.0,1,1.0,0.3010010000002694
673,13,0.5,0.25,-35.0,-1,1.0,0.3343009999998685
674,13,0.5,1.0,-35.0,-1,1.0,0.2210010000001148
675,13,0.5,0.25,-35.0,-1,1.0,0.25440099999991617
676,13,0.5,0.125,-35.0,1,0.0,0.2777009999999791
677,13,0.5,0.125,35.0,1,1.0,0.31120099999975537
678,13,0.5,0.125,35.0,1,1.0,0.22120099999983722
679,13,0.5,1.0,-35.0,-1,1.0,0.19790100000000166
680,13,0.5,1.0,35.0,1,1.0,0.2213010000000395
681,13,0.5,0.125,35.0,1,1.0,0.27150099999971644
682,13,0.5,1.0,35.0,1,1.0,0.22480100000007042
683,13,0.5,0.0625,-35.0,-1,1.0,0.4048009999999067
684,13,0.5,1.0,35.0,1,1.0,0.21160099999997328
685,13,0.5,1.0,35.0,1,1.0,0.16500100000007478
686,13,0.5,1.0,35.0,1,1.0,0.2050010000000384
687,13,0.5,0.125,-35.0,-1,1.0,0.25850100000002385
688,13,0.5,0.0,-35.0,-1,1.0,0.40190099999995255
689,13,0.5,0.125,35.0,1,1.0,0.26860099999998965
690,13,0.5,1.0,35.0,1,1.0,0.258701000000201
691,13,0.5,0.0,35.0,1,1.0,0.13880100000005768
692,13,0.5,1.0,35.0,1,1.0,0.3055010000002767
693,13,0.5,1.0,35.0,1,1.0,0.29550100000051316
694,13,0.5,0.0625,-35.0,1,0.0,0.30560100000047896
695,13,0.8,0.0625,35.0,-1,0.0,0.3591010000004644
696,13,0.5,1.0,-35.0,-1,1.0,0.18580100000008315
697,13,0.5,1.0,-35.0,-1,1.0,0.21250099999997474
698,13,0.5,0.25,-35.0,-1,1.0,0.24930100000028688
699,13,0.5,0.25,-35.0,-1,1.0,0.23260100000061357
700,13,0.5,0.25,35.0,1,1.0,0.23600100000021484
701,13,0.5,0.25,35.0,1,1.0,0.17610100000047169
702,13,0.5,0.25,35.0,1,1.0,0.28960100000040256
703,13,0.5,1.0,35.0,1,1.0,0.23310099999980594
704,13,0.5,0.0625,-35.0,-1,1.0,0.5465010000002621
705,13,0.5,0.125,35.0,1,1.0,0.21990099999993618
706,13,0.5,0.125,35.0,-1,0.0,0.14660100000037346
707,13,0.5,0.125,35.0,-1,0.0,0.42330100000026505
708,13,0.5,1.0,-35.0,-1,1.0,0.22010100000034072
709,13,0.5,0.0625,35.0,1,1.0,0.2268010000002505
710,13,0.5,0.25,-35.0,1,0.0,0.2669010000004164
711,13,0.5,0.125,-35.0,-1,1.0,0.2503010000004906
712,13,0.5,1.0,35.0,1,1.0,0.24370100000032835
713,13,0.5,0.0625,-35.0,1,0.0,0.18710100000043894
714,13,0.5,0.0625,-35.0,-1,1.0,0.44390100000009625
715,13,0.5,1.0,35.0,1,1.0,0.27720099999987724
716,13,0.5,0.25,-35.0,-1,1.0,0.23070100000040838
717,13,0.5,0.0625,35.0,1,1.0,0.3107009999998809
718,13,0.5,0.125,-35.0,-1,1.0,2.404101000000537
719,13,0.5,0.125,35.0,1,1.0,0.22430100000019593
720,13,0.5,1.0,35.0,1,1.0,0.6411010000001625
721,13,0.5,0.0,-35.0,1,0.0,2.497801000000436
722,13,0.5,0.125,35.0,1,1.0,0.2014010000007147
723,13,0.5,1.0,-35.0,-1,1.0,0.23470099999985905
724,13,0.5,0.125,35.0,1,1.0,0.29480100000000675
725,13,0.5,0.25,35.0,1,1.0,0.2547010000002956
726,13,0.5,0.0,35.0,1,1.0,0.2148010000000795
727,13,0.5,0.0625,-35.0,-1,1.0,0.3882010000002083
728,13,0.5,1.0,35.0,1,1.0,0.22500099999979284
729,13,0.5,0.125,-35.0,1,0.0,0.21500100000048405
730,13,0.5,0.0,35.0,1,1.0,0.31510100000014063
731,13,0.5,0.25,-35.0,-1,1.0,0.2452010000001792
732,13,0.5,0.0,35.0,1,1.0,0.2152009999999791
733,13,0.5,0.0,35.0,1,1.0,0.2220010000005459
734,13,0.5,1.0,35.0,1,1.0,0.25860099999999875
735,13,0.5,0.0625,35.0,1,1.0,0.2088010000002214
736,13,0.5,0.25,-35.0,-1,1.0,0.29880100000082166
737,13,0.5,1.0,-35.0,-1,1.0,0.36890100000027815
738,13,0.5,0.0625,35.0,1,1.0,0.3789010000000417
739,13,0.5,0.125,-35.0,-1,1.0,0.6857009999998809
740,13,0.5,0.25,35.0,1,1.0,0.26240099999995437
741,13,0.5,0.0,35.0,-1,0.0,0.31580100000064704
742,13,0.6,0.0,-35.0,1,0.0,0.4659010000004855
743,13,0.5,1.0,-35.0,-1,1.0,0.21270100000037928
744,13,0.5,0.125,-35.0,-1,1.0,0.35940100000016173
745,13,0.5,0.25,-35.0,-1,1.0,0.5260010000001785
746,13,0.5,0.0625,35.0,1,1.0,0.32280100000025413
747,13,0.5,0.125,-35.0,1,0.0,0.29630100000031234
748,13,0.5,0.125,35.0,1,1.0,0.35620100000051025
749,13,0.5,1.0,-35.0,-1,1.0,0.13300100000014936
750,13,0.5,1.0,-35.0,-1,1.0,0.21640100000013263
751,13,0.5,0.125,-35.0,1,0.0,0.33650100000022576
752,13,0.5,0.125,-35.0,1,0.0,0.4298010000006798
753,13,0.5,0.125,35.0,1,1.0,0.38330100000030143
754,13,0.5,1.0,35.0,1,1.0,0.25000100000033854
755,13,0.5,0.25,35.0,1,1.0,0.2634010000001581
756,13,0.5,1.0,-35.0,-1,1.0,0.21350100000017846
757,13,0.5,1.0,35.0,1,1.0,0.303501000000324
758,13,0.5,0.0625,35.0,1,1.0,0.33360099999981685
759,13,0.5,0.25,-35.0,-1,1.0,0.6703010000001086
760,13,0.5,0.25,35.0,1,1.0,0.2604010000004564
761,13,0.5,0.0625,-35.0,-1,1.0,0.28370100000029197
762,13,0.5,1.0,35.0,1,1.0,0.42050100000051316
763,13,0.5,0.125,-35.0,-1,1.0,0.35720100000025923
764,13,0.5,0.0625,-35.0,-1,1.0,0.5205010000004222
765,13,0.5,0.0625,-35.0,-1,1.0,0.34740099999999074
766,13,0.5,1.0,-35.0,-1,1.0,0.22400100000004386
767,13,0.5,0.25,-35.0,-1,1.0,0.17070100000046295
768,13,0.5,0.125,-35.0,-1,1.0,0.48420100000021193
769,13,0.5,0.25,35.0,1,1.0,0.14760100000012244
770,13,0.5,0.0,35.0,1,1.0,0.3276010000004135
771,13,0.5,1.0,-35.0,-1,1.0,0.20100100000036036
772,13,0.5,0.25,35.0,-1,0.0,0.1444010000000162
773,13,0.5,0.25,35.0,1,1.0,1.1245010000002367
774,13,0.5,1.0,35.0,1,1.0,0.2513010000002396
775,13,0.5,0.125,-35.0,-1,1.0,0.19140100000049642
776,13,0.5,0.0,-35.0,-1,1.0,0.20140100000025996
777,13,0.5,1.0,35.0,1,1.0,0.25150099999973463
778,13,0.5,0.0625,-35.0,1,0.0,0.28820100000029925
779,13,0.5,0.25,-35.0,-1,1.0,0.47160100000019156
780,13,0.5,0.25,35.0,1,1.0,0.22500100000070233
781,13,0.5,0.25,-35.0,-1,1.0,0.24510100000043167
782,13,0.5,0.125,35.0,1,1.0,0.29510100000061357
783,13,0.5,0.125,35.0,-1,0.0,0.4019010000001799
784,13,0.5,0.125,-35.0,-1,1.0,0.172001000000364
785,13,0.5,0.125,35.0,1,1.0,0.258701000000201
786,13,0.5,0.25,-35.0,-1,1.0,0.1788010000000213
787,13,0.5,0.25,-35.0,-1,1.0,0.22220100000004095
788,13,0.5,1.0,-35.0,-1,1.0,0.18570100000033563
789,13,0.5,0.0625,35.0,-1,0.0,3.7190010000003895
790,13,0.5,0.125,35.0,1,1.0,0.21920099999988452
791,13,0.5,1.0,35.0,1,1.0,0.2558009999997921
792,13,0.5,0.0625,35.0,1,1.0,0.3393010000004324
793,13,0.5,0.0625,35.0,1,1.0,0.2626010000003589
794,13,0.5,0.125,-35.0,-1,1.0,0.2193010000000868
795,13,0.5,0.125,35.0,1,1.0,0.356101000000308
796,13,0.5,1.0,-35.0,-1,1.0,0.20960100000002058
797,13,0.5,0.25,35.0,-1,0.0,0.16290100000014718
798,13,0.5,0.0625,-35.0,-1,1.0,0.2596010000002025
799,13,0.5,0.25,35.0,1,1.0,0.1898010000004433
800,13,0.5,0.125,-35.0,-1,1.0,0.14320100000031744
801,13,0.5,0.25,-35.0,-1,1.0,0.38320100000009916
802,13,0.5,1.0,35.0,1,1.0,0.07660100000020975
803,13,0.5,1.0,35.0,1,1.0,0.25990100000035454
804,13,0.5,0.0625,-35.0,-1,1.0,0.22330100000044695
805,13,0.5,0.0,35.0,-1,0.0,0.47340100000019447
806,13,0.3,0.0,35.0,-1,0.0,0.5069009999997434
807,13,0.5,1.0,35.0,1,1.0,0.37360100000068996
808,13,0.5,0.125,-35.0,-1,1.0,0.17380099999991216
809,13,0.5,0.0625,-35.0,1,0.0,0.19380100000034872
810,13,0.4,0.0625,35.0,-1,0.0,0.22060100000044258
811,13,0.5,1.0,35.0,1,1.0,0.23720100000036837
812,13,0.5,0.25,-35.0,-1,1.0,0.450601000000006
813,13,0.5,0.0,-35.0,1,0.0,2.734001000000262
814,13,0.5,0.0625,35.0,1,1.0,0.26410100000020975
815,13,0.5,0.0625,35.0,1,1.0,0.39430099999981394
816,13,0.5,0.125,-35.0,-1,1.0,0.29770100000041566
817,13,0.5,0.125,35.0,1,1.0,0.2977009999999609
818,13,0.5,0.0625,-35.0,-1,1.0,0.26790100000016537
819,13,0.5,1.0,-35.0,-1,1.0,0.20120100000031016
820,13,0.5,0.25,-35.0,-1,1.0,0.24790100000018356
821,13,0.5,0.0,35.0,1,1.0,0.3480010000002949
822,13,0.5,1.0,35.0,1,1.0,0.2614010000002054
823,13,0.5,0.0625,35.0,1,1.0,0.2448010000002796
824,13,0.5,1.0,-35.0,-1,1.0,0.2448010000002796
825,13,0.5,0.125,35.0,-1,0.0,0.2049010000000635
826,13,0.5,0.25,35.0,1,1.0,0.15170100000023012
827,13,0.5,0.25,35.0,1,1.0,0.32500100000015664
828,13,0.5,0.25,35.0,1,1.0,0.29180100000030507
829,13,0.5,0.125,-35.0,1,0.0,0.275101000000177
830,13,0.5,0.0625,35.0,1,1.0,0.2086010000002716
831,13,0.5,1.0,35.0,1,1.0,0.268601000000217
832,13,0.5,0.25,35.0,1,1.0,0.37870100000054663
833,13,0.5,0.125,35.0,1,1.0,2.392001000000164
834,13,0.5,0.0625,35.0,-1,0.0,0.4189010000000053
835,13,0.5,0.125,35.0,1,1.0,0.2023010000002614
836,13,0.5,0.25,35.0,1,1.0,0.32560100000046077
837,13,0.5,0.0625,35.0,1,1.0,0.32570100000066304
838,13,0.5,0.125,35.0,1,1.0,0.2624010000004091
839,13,0.5,0.0625,-35.0,-1,1.0,0.2624010000004091
840,13,0.5,1.0,-35.0,-1,1.0,0.24590100000023085
841,13,0.5,0.25,-35.0,-1,1.0,0.23930100000052335
842,13,0.5,0.125,35.0,-1,0.0,0.18610100000023522
843,13,0.5,0.0625,-35.0,-1,1.0,0.24280100000078164
844,13,0.5,1.0,-35.0,-1,1.0,0.2528010000000904
845,13,0.5,0.0,-35.0,-1,1.0,0.4262010000002192
846,13,0.5,0.25,35.0,-1,0.0,0.1963010000004033
847,13,0.2,0.25,35.0,1,1.0,0.30980100000033417
848,13,0.5,1.0,35.0,1,1.0,0.19980100000020684
849,13,0.5,0.125,-35.0,-1,1.0,0.26650100000006205
850,13,0.5,0.25,-35.0,-1,1.0,0.17650100000037128
851,13,0.5,0.0625,35.0,1,1.0,0.36670100000037564
852,13,0.5,1.0,35.0,1,1.0,0.24670100000003004
853,13,0.5,0.25,-35.0,-1,1.0,0.18680100000028688
854,13,0.5,0.0,-35.0,-1,1.0,0.19030100000054517
855,13,0.5,0.125,35.0,-1,0.0,0.18020100000012462
856,13,0.5,0.0625,-35.0,-1,1.0,3.273601000000326
857,13,0.5,0.125,35.0,-1,0.0,0.6271010000000388
858,13,0.5,0.125,35.0,-1,0.0,0.4806010000002061
859,13,0.5,0.0,-35.0,-1,1.0,0.28070100000013554
860,13,0.5,0.0625,-35.0,-1,1.0,0.2308010000001559
861,13,0.5,1.0,35.0,1,1.0,0.12080100000002858
862,13,0.5,0.0625,35.0,-1,0.0,0.33100100000001476
863,13,0.5,0.0625,-35.0,-1,1.0,0.5377010000001974
864,13,0.5,0.25,-35.0,-1,1.0,0.19770100000005186
865,13,0.5,0.25,35.0,1,1.0,0.24110100000052626
866,13,0.5,0.125,35.0,1,1.0,0.317801000000145
867,13,0.5,0.25,35.0,-1,0.0,0.22780099999999948
868,13,0.5,0.125,-35.0,-1,1.0,0.25460100000009334
869,13,0.5,0.25,35.0,1,1.0,0.7814010000001872
870,13,0.5,0.0,35.0,1,1.0,0.43480100000033417
871,13,0.5,1.0,-35.0,-1,1.0,0.041501000000153
872,13,0.5,1.0,-35.0,-1,1.0,0.2616010000001552
873,13,0.5,0.0,-35.0,1,0.0,0.26820100000031744
874,13,0.5,0.0,-35.0,-1,1.0,0.31830100000024686
875,13,0.5,1.0,35.0,1,1.0,0.4750010000002476
876,13,0.5,0.125,35.0,-1,0.0,0.2283010000005561
877,13,0.5,0.125,-35.0,-1,1.0,0.27850100000023303
878,13,0.5,0.0625,-35.0,1,0.0,0.3352010000003247
879,13,0.5,0.0625,35.0,-1,0.0,4.788701000000401
880,13,0.5,0.125,35.0,-1,0.0,0.23220100000025923
881,13,0.5,0.125,-35.0,-1,1.0,0.238901000000169
882,13,0.5,0.125,35.0,1,1.0,0.3057010000002265
883,13,0.5,0.125,35.0,-1,0.0,0.22570100000029925
884,13,0.3,0.125,35.0,1,1.0,0.5992010000004484
885,13,0.5,1.0,35.0,1,1.0,0.29920099999981176
886,13,0.5,0.0625,-35.0,1,0.0,0.3059010000001763
887,13,0.5,0.0,35.0,1,1.0,0.2294010000000526
888,13,0.5,0.125,-35.0,1,0.0,0.3360010000001239
889,13,0.5,0.0625,35.0,1,1.0,0.24610100000018065
890,13,0.5,1.0,-35.0,-1,1.0,0.22950099999980011
891,13,0.5,0.0625,35.0,1,1.0,0.24630100000013044
892,13,0.5,0.0,-35.0,-1,1.0,0.3030010000002221
893,13,0.5,0.0625,-35.0,-1,1.0,0.2364009999996597
894,13,0.5,0.125,-35.0,-1,1.0,0.6565009999999347
895,13,0.5,0.125,35.0,1,1.0,0.7033010000000104
896,13,0.5,1.0,-35.0,-1,1.0,0.1832010000007358
897,13,0.5,0.0,35.0,-1,0.0,2.0166010000002643
898,13,0.5,0.0625,-35.0,1,0.0,0.20670100000006641
899,13,0.5,0.25,35.0,1,1.0,0.31350100000054226
900,13,0.5,0.0625,-35.0,1,0.0,0.28030100000023594
901,13,0.5,0.25,-35.0,-1,1.0,0.22030099999983577
902,13,0.5,0.125,35.0,1,1.0,0.23370100000056482
903,13,0.5,1.0,-35.0,-1,1.0,0.12380100000063976
904,13,0.5,0.25,35.0,1,1.0,0.4606010000002243
905,13,0.5,0.125,-35.0,-1,1.0,0.28390100000024177
906,13,0.5,0.0625,-35.0,-1,1.0,0.24730100000033417
907,13,0.5,0.0625,35.0,-1,0.0,0.44410100000004604
908,13,0.5,0.125,35.0,-1,0.0,0.23420100000021193
909,13,0.4,0.125,-35.0,-1,1.0,0.3109010000002854
910,13,0.5,1.0,-35.0,-1,1.0,0.2110010000001239
911,13,0.5,1.0,35.0,1,1.0,0.23770100000047023
912,13,0.5,1.0,-35.0,-1,1.0,0.20110100000056264
913,13,0.5,0.25,35.0,1,1.0,0.28450100000009115
914,13,0.5,0.25,35.0,1,1.0,0.33450100000027305
915,13,0.5,1.0,35.0,1,1.0,0.27460100000007515
916,13,0.5,1.0,35.0,1,1.0,0.2880000000000109
917,13,0.5,0.0625,-35.0,-1,1.0,0.5114010000006601
918,13,0.5,1.0,-35.0,-1,1.0,0.208201000000372
919,13,0.5,0.25,35.0,1,1.0,0.31830100000024686
920,13,0.5,0.0625,35.0,-1,0.0,0.2283010000005561
921,13,0.5,0.25,35.0,1,1.0,0.2951010000001588
922,13,0.5,0.125,35.0,1,1.0,0.3284010000006674
923,13,0.5,0.125,-35.0,-1,1.0,0.12180099999977756
924,13,0.5,0.25,35.0,1,1.0,0.25860099999999875
925,13,0.5,0.25,35.0,1,1.0,0.3987010000000737
926,13,0.5,0.0625,35.0,1,1.0,0.2887010000004011
927,13,0.5,0.25,-35.0,-1,1.0,0.3322010000001683
928,13,0.5,0.25,-35.0,-1,1.0,0.25900099999989834
929,13,0.5,0.0,35.0,1,1.0,0.2822010000004411
930,13,0.5,0.25,-35.0,1,0.0,0.2189010000001872
931,13,0.5,0.25,-35.0,-1,1.0,0.23240100000020902
932,13,0.5,0.125,-35.0,1,0.0,0.20240100000000893
933,13,0.6,0.125,-35.0,-1,1.0,0.19600100000025122
934,13,0.5,1.0,-35.0,-1,1.0,0.22600099999999657
935,13,0.5,0.25,35.0,1,1.0,0.18610099999978047
936,13,0.5,0.25,-35.0,-1,1.0,0.23940100000027087
937,13,0.5,0.0625,-35.0,-1,1.0,0.29610100000036255
938,13,0.5,0.0625,-35.0,-1,1.0,0.2729010000002745
939,13,0.5,0.25,35.0,1,1.0,0.21960100000023886
940,13,0.5,0.0625,-35.0,-1,1.0,0.3596010000001115
941,13,0.5,0.25,-35.0,-1,1.0,1.2097010000002228
942,13,0.5,0.0625,35.0,-1,0.0,0.23980100000017046
943,13,0.5,0.0,-35.0,-1,1.0,0.1432009999998627
944,13,0.5,0.25,35.0,-1,0.0,0.24660099999982776
945,13,0.5,0.0,-35.0,1,0.0,0.4602010000003247
946,13,0.5,0.0,-35.0,-1,1.0,0.23670099999981176
947,13,0.5,1.0,35.0,1,1.0,0.24680100000068705
948,13,0.5,0.125,-35.0,-1,1.0,0.5602010000002338
949,13,0.5,0.0625,-35.0,1,0.0,0.5469010000001617
950,13,0.5,0.0,35.0,-1,0.0,0.3736010000002352
951,13,0.5,0.25,35.0,1,1.0,0.31730100000004313
952,13,0.5,1.0,-35.0,-1,1.0,0.2005010000002585
953,13,0.5,0.125,-35.0,-1,1.0,1.6339010000001508
954,13,0.5,1.0,-35.0,-1,1.0,0.33070100000031744
955,13,0.5,0.125,-35.0,-1,1.0,0.36740099999997256
956,13,0.5,1.0,35.0,1,1.0,0.4875010000000657
957,13,0.5,0.0625,35.0,1,1.0,7.267501000000266
958,13,0.5,0.125,35.0,1,1.0,0.27440100000012535
959,13,0.5,0.0625,35.0,1,1.0,0.32110099999999875
960,13,0.5,0.0,35.0,-1,0.0,0.24440099999992526
961,13,0.5,0.125,35.0,1,1.0,0.18460099999992963
962,13,0.5,1.0,35.0,1,1.0,0.22790100000020175
963,13,0.5,0.25,-35.0,-1,1.0,0.2648010000002614
964,13,0.5,0.125,-35.0,-1,1.0,3.6747009999999136
965,13,0.5,0.25,35.0,1,1.0,0.7916009999999005
966,13,0.5,1.0,-35.0,-1,1.0,0.21510100000068633
967,13,0.5,0.0,-35.0,1,0.0,0.24830100000008315
968,13,0.6,0.0,-35.0,-1,1.0,6.378501000000142
969,13,0.5,1.0,35.0,-1,0.0,0.11200100000041857
970,13,0.4,1.0,35.0,1,1.0,0.3389010000005328
971,13,0.5,1.0,35.0,1,1.0,0.2490010000001348
972,13,0.5,0.25,35.0,1,1.0,0.25890099999969607
973,13,0.5,0.25,-35.0,-1,1.0,0.24570100000028106
974,13,0.5,1.0,-35.0,-1,1.0,0.2124010000002272
975,13,0.5,1.0,35.0,1,1.0,0.17570100000011735
976,13,0.5,0.0625,35.0,1,1.0,0.6058010000001559
977,13,0.5,0.125,35.0,1,1.0,0.2727010000003247
978,13,0.5,1.0,-35.0,-1,1.0,0.46940100000028906
979,13,0.5,0.0625,35.0,1,1.0,0.32280100000025413
980,13,0.5,0.0,35.0,1,1.0,0.26960100000042075
981,13,0.5,0.0625,-35.0,1,0.0,0.31620100000054663
