trial_num,session_num,stim_probability_left,contrast,position,response_choice,trial_correct,reaction_time
1,1,0.2,0.25,-35.0,-1,1.0,0.6217999999999999
2,1,0.2,0.25,-35.0,-1,1.0,0.5183999999999997
3,1,0.2,0.125,35.0,1,1.0,0.7288999999999977
4,1,0.2,0.25,35.0,1,1.0,0.4279989999999998
5,1,0.2,0.0,35.0,-1,0.0,0.6389989999999983
6,1,0.2,0.0625,-35.0,-1,1.0,0.36529999999999774
7,1,0.2,1.0,35.0,1,1.0,0.37000000000000455
8,1,0.2,1.0,35.0,1,1.0,0.3171989999999987
9,1,0.2,1.0,35.0,1,1.0,0.27529900000000396
10,1,0.2,0.125,35.0,1,1.0,0.4354990000000001
11,1,0.2,0.125,35.0,1,1.0,0.27329899999999796
12,1,0.2,0.0625,35.0,1,1.0,0.33169900000000396
13,1,0.2,0.125,35.0,1,1.0,0.27339900000000483
14,1,0.2,0.0625,35.0,1,1.0,0.31379899999999594
15,1,0.2,0.0625,35.0,1,1.0,0.5064990000000051
16,1,0.2,1.0,35.0,1,1.0,0.21459899999999976
17,1,0.2,0.25,35.0,1,1.0,0.22019899999999382
18,1,0.2,1.0,35.0,1,1.0,0.2241989999999987
19,1,0.2,0.0,35.0,1,1.0,0.3164999999999978
20,1,0.2,0.0625,35.0,1,1.0,0.5129990000000006
21,1,0.2,0.125,35.0,1,1.0,0.4251999999999967
22,1,0.2,0.0625,35.0,1,1.0,0.22149899999999434
23,1,0.2,0.125,35.0,1,1.0,0.1966989999999953
24,1,0.2,0.25,35.0,1,1.0,0.23139899999999614
25,1,0.2,0.0625,35.0,-1,0.0,2.898198999999991
26,1,0.2,0.0625,35.0,1,1.0,0.9780999999999977
27,1,0.2,1.0,35.0,1,1.0,0.33839999999999293
28,1,0.2,0.0625,35.0,1,1.0,0.3106989999999996
29,1,0.2,0.25,35.0,1,1.0,0.30409999999999116
30,1,0.2,0.0,35.0,1,1.0,0.590098999999995
31,1,0.2,0.25,35.0,1,1.0,0.23080000000000211
32,1,0.2,0.0625,35.0,1,1.0,0.33079899999999895
33,1,0.2,0.125,35.0,1,1.0,0.2257990000000092
34,1,0.2,0.0625,-35.0,-1,1.0,0.3850000000000051
35,1,0.2,0.125,35.0,1,1.0,0.3624989999999997
36,1,0.2,1.0,35.0,1,1.0,0.2929989999999947
37,1,0.2,1.0,-35.0,-1,1.0,0.49619899999999006
38,1,0.2,0.125,35.0,1,1.0,4.733499000000009
39,1,0.2,0.0625,-35.0,-1,1.0,1.381099000000006
40,1,0.2,0.25,35.0,1,1.0,0.2502990000000125
41,1,0.2,1.0,-35.0,-1,1.0,0.39679899999998725
42,1,0.2,0.0625,35.0,1,1.0,0.2323990000000009
43,1,0.2,0.0625,35.0,1,1.0,1.5264999999999844
44,1,0.2,0.0,35.0,-1,0.0,5.864000000000004
45,1,0.2,0.0625,35.0,1,1.0,0.2868989999999769
46,1,0.2,0.125,35.0,1,1.0,0.22949900000000412
47,1,0.2,0.25,35.0,1,1.0,0.25489899999999466
48,1,0.2,0.125,35.0,1,1.0,0.5229989999999987
49,1,0.2,0.25,35.0,1,1.0,0.16999899999999002
50,1,0.2,0.0,35.0,1,1.0,0.5047999999999888
51,1,0.2,0.125,35.0,-1,0.0,7.487299000000007
52,1,0.2,1.0,-35.0,-1,1.0,0.25649900000001935
53,1,0.2,0.25,35.0,1,1.0,0.3089989999999716
54,1,0.2,0.25,35.0,1,1.0,0.1891999999999996
55,1,0.2,0.125,35.0,1,1.0,0.6237989999999911
56,1,0.2,0.0,35.0,-1,0.0,6.481398999999982
57,1,0.2,0.25,35.0,1,1.0,0.21449899999998934
58,1,0.2,0.0,35.0,1,1.0,0.3089989999999716
59,1,0.2,0.0625,-35.0,1,0.0,0.34059899999999743
60,1,0.2,1.0,-35.0,-1,1.0,0.3426989999999819
61,1,0.2,0.0625,35.0,1,1.0,0.2544989999999814
62,1,0.2,1.0,35.0,1,1.0,0.22919899999996574
63,1,0.2,1.0,35.0,1,1.0,0.20259900000002062
64,1,0.2,0.125,35.0,1,1.0,0.22360000000000468
65,1,0.2,1.0,35.0,1,1.0,0.23239999999998417
66,1,0.2,0.25,-35.0,-1,1.0,0.8182999999999936
67,1,0.2,0.25,35.0,1,1.0,0.4560989999999947
68,1,0.2,1.0,-35.0,-1,1.0,0.5051990000000046
69,1,0.2,0.125,-35.0,-1,1.0,0.7545000000000073
70,1,0.2,1.0,-35.0,-1,1.0,0.4093990000000076
71,1,0.2,0.0,35.0,-1,0.0,6.961999999999989
72,1,0.2,1.0,-35.0,-1,1.0,0.30909900000000334
73,1,0.8,0.25,35.0,1,1.0,0.27049900000000093
74,1,0.8,0.0625,-35.0,-1,1.0,3.1468989999999906
75,1,0.8,0.0,-35.0,1,0.0,3.9910999999999888
76,1,0.8,0.25,-35.0,-1,1.0,0.26380000000000337
77,1,0.8,0.125,35.0,1,1.0,0.4169989999999757
78,1,0.8,0.125,-35.0,-1,1.0,0.741499000000033
79,1,0.8,0.25,-35.0,-1,1.0,0.32459999999997535
80,1,0.8,0.0,-35.0,1,0.0,3.038898999999958
81,1,0.8,0.125,-35.0,-1,1.0,0.04719900000003463
82,1,0.8,0.0,-35.0,1,0.0,0.22859900000003108
83,1,0.8,0.125,-35.0,-1,1.0,0.7635999999999967
84,1,0.8,1.0,-35.0,-1,1.0,0.4845990000000029
85,1,0.8,0.0,-35.0,1,0.0,0.2130989999999997
86,1,0.8,0.25,35.0,1,1.0,0.14309900000000653
87,1,0.8,0.0,-35.0,-1,1.0,4.122600000000034
88,1,0.8,0.25,-35.0,-1,1.0,1.128499999999974
89,1,0.8,0.25,-35.0,-1,1.0,0.39509899999995923
90,1,0.8,0.125,-35.0,-1,1.0,0.4834989999999948
91,1,0.8,0.0625,35.0,1,1.0,0.3712990000000218
92,1,0.8,0.125,-35.0,-1,1.0,1.1086990000000014
93,1,0.8,0.125,-35.0,-1,1.0,1.0465990000000147
94,1,0.8,0.0625,-35.0,-1,1.0,3.7277990000000045
95,1,0.8,1.0,35.0,1,1.0,0.1862989999999627
96,1,0.8,0.25,-35.0,-1,1.0,0.5432989999999904
97,1,0.8,0.0625,-35.0,1,0.0,0.5688990000000445
98,1,0.8,0.125,-35.0,-1,1.0,0.41709900000000744
99,1,0.8,0.0,-35.0,-1,1.0,3.3428989999999317
100,1,0.8,0.125,35.0,1,1.0,0.18639899999999443
101,1,0.8,0.0,-35.0,1,0.0,0.23849899999999025
102,1,0.8,1.0,-35.0,-1,1.0,0.5257000000000289
103,1,0.8,0.0625,-35.0,-1,1.0,0.6157989999999245
104,1,0.8,0.0625,-35.0,1,0.0,0.3654989999999998
105,1,0.8,0.0,35.0,1,1.0,0.6571990000000483
106,1,0.8,0.125,35.0,1,1.0,0.4969990000000166
107,1,0.8,1.0,-35.0,-1,1.0,1.5409989999999993
108,1,0.8,0.0,-35.0,1,0.0,0.27799900000002253
109,1,0.8,1.0,-35.0,-1,1.0,0.3503989999999817
110,1,0.8,0.125,35.0,1,1.0,0.29599999999999227
111,1,0.8,0.0625,35.0,1,1.0,0.2078989999999976
112,1,0.8,1.0,-35.0,-1,1.0,0.49779899999998634
113,1,0.8,0.0625,-35.0,-1,1.0,4.34299900000002
114,1,0.8,1.0,-35.0,-1,1.0,0.5432989999999904
115,1,0.8,0.0625,-35.0,-1,1.0,0.4685000000000059
116,1,0.8,0.125,-35.0,-1,1.0,0.3481989999999655
117,1,0.8,1.0,-35.0,-1,1.0,0.32939900000002353
118,1,0.8,1.0,35.0,1,1.0,0.31099899999998115
119,1,0.8,0.0625,-35.0,-1,1.0,2.2616989999999646
120,1,0.8,1.0,35.0,1,1.0,0.19409899999999425
121,1,0.8,0.125,35.0,1,1.0,0.1750989999999888
122,1,0.8,0.0625,35.0,1,1.0,0.23289899999997488
123,1,0.8,0.125,-35.0,-1,1.0,0.3440989999999715
124,1,0.8,0.25,-35.0,-1,1.0,0.2942990000000236
125,1,0.8,0.0625,-35.0,-1,1.0,3.0716990000000237
126,1,0.8,0.25,-35.0,-1,1.0,0.37839899999994486
127,1,0.8,0.0,-35.0,-1,1.0,0.3537989999999809
128,1,0.8,0.125,35.0,1,1.0,0.36159900000001244
129,1,0.8,0.125,-35.0,-1,1.0,0.6272989999999936
130,1,0.8,0.25,-35.0,-1,1.0,0.3313999999999737
131,1,0.8,0.0,-35.0,1,0.0,0.2173989999999435
132,1,0.8,0.0,-35.0,1,0.0,0.15969899999998916
133,1,0.8,0.25,-35.0,1,0.0,0.32779900000002726
134,1,0.8,0.0,-35.0,-1,1.0,2.0694989999999507
135,1,0.8,1.0,35.0,1,1.0,0.7909989999999993
136,1,0.8,0.0625,-35.0,-1,1.0,0.6767990000000168
137,1,0.8,0.0625,-35.0,-1,1.0,0.8983000000000061
138,1,0.8,0.0625,-35.0,1,0.0,0.6290990000000534
139,1,0.8,0.25,-35.0,-1,1.0,0.9965990000000602
140,1,0.8,0.0625,-35.0,-1,1.0,0.8602989999999977
141,1,0.8,0.125,-35.0,-1,1.0,0.5013000000000147
142,1,0.8,0.25,-35.0,-1,1.0,0.4993989999999826
143,1,0.8,0.25,-35.0,-1,1.0,5.505799999999965
144,1,0.8,0.125,35.0,1,1.0,0.21959900000001653
145,1,0.8,1.0,-35.0,-1,1.0,0.2604989999999816
146,1,0.8,0.0625,-35.0,1,0.0,0.5566989999999805
147,1,0.8,0.0625,-35.0,1,0.0,0.36879899999996724
148,1,0.8,0.0625,-35.0,-1,1.0,4.2089990000000626
149,1,0.8,0.0,35.0,1,1.0,0.17109900000002654
150,1,0.8,0.0625,-35.0,-1,1.0,0.501899000000094
151,1,0.8,0.0625,-35.0,-1,1.0,2.68970000000013
152,1,0.2,1.0,35.0,1,1.0,0.3694990000001326
153,1,0.2,0.125,-35.0,-1,1.0,0.30549900000005437
154,1,0.2,0.25,35.0,1,1.0,0.23050000000000637
155,1,0.2,0.0,-35.0,-1,1.0,3.366999000000078
156,1,0.2,0.0,-35.0,1,0.0,0.3951990000000478
157,1,0.2,0.25,35.0,1,1.0,0.24529900000004545
158,1,0.2,0.25,-35.0,-1,1.0,3.3204990000000407
159,1,0.2,1.0,35.0,1,1.0,0.354699000000096
160,1,0.2,0.0,35.0,1,1.0,0.213999000000058
161,1,0.2,0.0,35.0,-1,0.0,4.197599000000082
162,1,0.2,0.0,35.0,-1,0.0,0.626498999999967
163,1,0.2,0.125,35.0,1,1.0,0.20089900000004945
164,1,0.2,0.0625,35.0,1,1.0,0.4135990000000902
165,1,0.2,0.0625,35.0,1,1.0,0.23549900000000434
166,1,0.2,1.0,35.0,1,1.0,0.21460000000013224
167,1,0.2,0.25,35.0,1,1.0,0.26279999999997017
168,1,0.2,0.25,35.0,1,1.0,0.2098990000001777
169,1,0.2,0.125,35.0,1,1.0,0.20489899999995487
170,1,0.2,1.0,-35.0,-1,1.0,0.2863989999999603
171,1,0.2,0.125,35.0,1,1.0,0.1754990000000589
172,1,0.2,1.0,35.0,1,1.0,0.24559899999997015
173,1,0.2,0.25,35.0,1,1.0,0.1919990000001235
174,1,0.2,0.0625,35.0,1,1.0,0.2462990000001355
175,1,0.2,1.0,35.0,1,1.0,0.20839900000009948
176,1,0.2,0.25,-35.0,-1,1.0,0.8494990000000371
177,1,0.2,0.0625,35.0,1,1.0,0.26920000000006894
178,1,0.2,1.0,35.0,1,1.0,0.22149899999999434
179,1,0.2,0.0625,35.0,1,1.0,0.7539000000000442
180,1,0.2,0.0625,35.0,1,1.0,0.3008990000000722
181,1,0.2,1.0,35.0,1,1.0,0.8113990000000513
182,1,0.2,0.0625,35.0,1,1.0,0.5086990000000924
183,1,0.2,0.125,35.0,1,1.0,0.2663000000001148
184,1,0.2,0.0625,35.0,1,1.0,0.3551990000000842
185,1,0.2,0.0,35.0,-1,0.0,3.728699000000006
186,1,0.2,0.125,35.0,1,1.0,0.1495990000000802
187,1,0.2,0.0,-35.0,1,0.0,0.220499000000018
188,1,0.2,0.25,35.0,1,1.0,0.20669900000007146
189,1,0.2,0.0625,35.0,1,1.0,0.2420990000001666
190,1,0.2,0.0,35.0,-1,0.0,4.240899000000127
191,1,0.2,0.125,35.0,1,1.0,0.20509900000001835
192,1,0.2,0.125,35.0,1,1.0,0.03550000000007003
193,1,0.2,0.0,35.0,1,1.0,0.349299000000201
194,1,0.2,0.0,35.0,-1,0.0,4.851799000000142
195,1,0.2,0.0,35.0,-1,0.0,2.7871990000001006
196,1,0.2,0.25,35.0,1,1.0,0.1858990000000631
197,1,0.2,0.25,35.0,1,1.0,0.19479899999998906
198,1,0.2,0.0,35.0,-1,0.0,3.286000000000058
199,1,0.2,0.25,35.0,1,1.0,0.1914000000000442
200,1,0.2,0.125,35.0,1,1.0,0.20250000000010004
201,1,0.2,1.0,35.0,1,1.0,0.4317000000000917
202,1,0.2,0.0,35.0,1,1.0,0.3872000000001208
203,1,0.2,0.25,35.0,1,1.0,0.21749900000008893
204,1,0.2,0.125,35.0,1,1.0,0.2581990000001042
205,1,0.2,0.0,35.0,1,1.0,0.23779899999999543
206,1,0.2,1.0,35.0,1,1.0,0.16109900000003563
207,1,0.2,0.125,35.0,1,1.0,0.20319900000004054
208,1,0.2,1.0,35.0,1,1.0,0.1855990000001384
209,1,0.8,0.0625,-35.0,-1,1.0,0.5020990000000438
210,1,0.8,0.125,-35.0,1,0.0,2.2313990000000103
211,1,0.8,0.25,-35.0,-1,1.0,0.6352989999999181
212,1,0.8,0.0625,-35.0,-1,1.0,0.4986989999999878
213,1,0.8,1.0,35.0,1,1.0,0.17069900000001326
214,1,0.8,1.0,35.0,1,1.0,0.16270000000008622
215,1,0.8,0.0,-35.0,1,0.0,0.20610000000010587
216,1,0.8,0.25,-35.0,-1,1.0,0.3350990000000138
217,1,0.8,0.0,-35.0,-1,1.0,3.9130989999999883
218,1,0.8,0.25,-35.0,-1,1.0,0.2929990000001226
219,1,0.8,0.0625,-35.0,-1,1.0,3.6514989999999443
220,1,0.8,0.125,35.0,1,1.0,0.21879900000010366
221,1,0.8,0.0625,-35.0,-1,1.0,0.41719899999998233
222,1,0.8,0.25,-35.0,-1,1.0,0.3254989999999225
223,1,0.8,0.0625,35.0,1,1.0,0.31149900000002617
224,1,0.8,0.125,-35.0,-1,1.0,1.0064989999999625
225,1,0.8,0.25,-35.0,-1,1.0,0.5114000000000942
226,1,0.8,1.0,35.0,1,1.0,0.21739900000011403
227,1,0.8,0.125,35.0,1,1.0,0.28369900000006965
228,1,0.8,0.125,-35.0,-1,1.0,0.349599000000012
229,1,0.8,0.0,-35.0,-1,1.0,3.612899000000084
230,1,0.8,0.0625,-35.0,-1,1.0,0.6776990000000751
231,1,0.8,0.125,-35.0,-1,1.0,0.9085990000000947
232,1,0.8,1.0,-35.0,-1,1.0,0.8327990000000227
233,1,0.8,0.125,-35.0,-1,1.0,0.4300990000000411
234,1,0.2,0.25,35.0,1,1.0,0.24669900000003508
235,1,0.2,0.125,35.0,1,1.0,0.23499900000001617
236,1,0.2,0.0625,35.0,1,1.0,0.18489900000008674
237,1,0.2,0.0625,35.0,1,1.0,0.22769900000002963
238,1,0.2,0.0,35.0,1,1.0,0.4137999999999238
239,1,0.2,0.25,35.0,1,1.0,0.6106990000000678
240,1,0.2,0.125,35.0,1,1.0,0.18709899999998925
241,1,0.2,0.125,35.0,1,1.0,0.20679900000004636
242,1,0.2,0.125,35.0,1,1.0,0.19279900000015004
243,1,0.2,0.125,-35.0,-1,1.0,0.9161990000001197
244,1,0.2,0.125,35.0,1,1.0,0.1858990000000631
245,1,0.2,0.125,35.0,1,1.0,0.19509900000002744
246,1,0.2,0.0,35.0,-1,0.0,4.918399000000136
247,1,0.2,0.0625,35.0,1,1.0,0.20479900000009366
248,1,0.2,1.0,35.0,1,1.0,0.3269990000001144
249,1,0.2,0.25,-35.0,1,0.0,0.5441990000000487
250,1,0.2,0.125,35.0,1,1.0,0.14049999999997453
251,1,0.2,0.0,35.0,1,1.0,0.20349900000007892
252,1,0.2,1.0,35.0,1,1.0,0.1831000000000813
253,1,0.2,0.0625,35.0,1,1.0,0.47689900000000307
254,1,0.2,0.25,35.0,1,1.0,0.16309900000010202
255,1,0.2,0.125,-35.0,-1,1.0,0.4078990000000431
256,1,0.2,0.0625,35.0,1,1.0,0.41089899999997215
257,1,0.2,0.0625,35.0,1,1.0,0.6395990000000893
258,1,0.2,0.125,35.0,1,1.0,0.1721989999999778
259,1,0.2,0.25,35.0,1,1.0,0.4534000000001015
260,1,0.2,0.0625,35.0,1,1.0,0.3082990000001473
261,1,0.2,0.25,35.0,1,1.0,0.18559900000002472
262,1,0.2,1.0,-35.0,-1,1.0,0.30310000000008586
263,1,0.2,1.0,35.0,1,1.0,0.16369900000017878
264,1,0.2,0.25,35.0,1,1.0,0.19489900000007765
265,1,0.2,0.0625,35.0,1,1.0,0.16620000000011714
266,1,0.2,1.0,35.0,1,1.0,0.09059900000011112
267,1,0.2,0.125,35.0,1,1.0,0.258399000000054
268,1,0.2,0.0625,-35.0,-1,1.0,0.5027989999999818
269,1,0.2,0.25,35.0,1,1.0,0.2097990000000891
270,1,0.2,0.125,35.0,1,1.0,0.21899900000005346
271,1,0.2,0.25,35.0,1,1.0,0.21220000000005257
272,1,0.2,1.0,35.0,1,1.0,0.19549900000004072
273,1,0.2,0.0625,-35.0,-1,1.0,0.7127990000001319
274,1,0.2,1.0,35.0,1,1.0,0.5759990000000244
275,1,0.2,0.0625,35.0,1,1.0,0.7782000000000835
276,1,0.2,0.125,-35.0,-1,1.0,0.6330990000000156
277,1,0.2,0.0625,-35.0,-1,1.0,0.32419900000013513
278,1,0.2,0.125,35.0,1,1.0,0.18679900000006455
279,1,0.2,0.125,35.0,1,1.0,0.19049900000004527
280,1,0.2,0.0625,35.0,1,1.0,0.20849900000007437
281,1,0.2,0.25,35.0,1,1.0,0.07689900000002581
282,1,0.2,0.0625,35.0,1,1.0,0.1981989999999314
283,1,0.2,0.125,35.0,1,1.0,0.16219900000010057
284,1,0.2,0.0625,35.0,1,1.0,0.2016000000000986
285,1,0.8,0.125,-35.0,1,0.0,0.15859900000009475
286,1,0.8,0.0,-35.0,-1,1.0,5.439399000000094
287,1,0.8,0.0625,-35.0,-1,1.0,0.6865990000001148
288,1,0.8,0.125,-35.0,-1,1.0,0.6133989999999585
289,1,0.8,0.25,-35.0,-1,1.0,0.2867990000000873
290,1,0.8,0.125,-35.0,-1,1.0,0.37009900000009566
291,1,0.8,1.0,-35.0,-1,1.0,0.2601990000001706
292,1,0.8,0.125,-35.0,-1,1.0,0.5069989999999507
293,1,0.8,1.0,-35.0,-1,1.0,0.3004989999999452
294,1,0.8,0.25,-35.0,-1,1.0,0.2603990000000067
295,1,0.8,0.0625,35.0,1,1.0,0.34049899999990885
296,1,0.8,1.0,-35.0,-1,1.0,1.1371990000000096
297,1,0.8,0.25,-35.0,-1,1.0,0.2672989999998663
298,1,0.8,0.0625,35.0,1,1.0,0.6806990000000042
299,1,0.8,0.0625,-35.0,-1,1.0,0.2940990000001875
300,1,0.8,0.0,-35.0,-1,1.0,0.9139990000001035
301,1,0.8,0.25,-35.0,-1,1.0,0.36429900000007365
302,1,0.8,1.0,-35.0,-1,1.0,0.2641989999999623
303,1,0.8,0.125,-35.0,-1,1.0,0.7309999999999945
304,1,0.8,0.125,-35.0,-1,1.0,0.4343989999999849
305,1,0.8,0.0625,-35.0,-1,1.0,0.6210989999999583
306,1,0.8,0.0625,-35.0,-1,1.0,0.37439900000003945
307,1,0.8,0.125,35.0,1,1.0,0.32780000000002474
308,1,0.8,1.0,-35.0,-1,1.0,0.29109900000025846
309,1,0.8,1.0,-35.0,-1,1.0,0.42129900000009
310,1,0.8,0.25,35.0,1,1.0,0.2145989999999074
311,1,0.8,0.0625,35.0,1,1.0,0.2847990000000209
312,1,0.8,0.25,-35.0,-1,1.0,0.3513990000001286
313,1,0.2,0.25,35.0,1,1.0,0.19479900000010275
314,1,0.2,1.0,35.0,1,1.0,0.17469899999991867
315,1,0.2,1.0,35.0,1,1.0,0.16829899999993359
316,1,0.2,1.0,-35.0,-1,1.0,0.5317000000002281
317,1,0.2,1.0,-35.0,-1,1.0,0.4584990000000744
318,1,0.2,0.125,35.0,1,1.0,0.20189899999991212
319,1,0.2,1.0,35.0,1,1.0,0.19509900000025482
320,1,0.2,0.125,35.0,1,1.0,0.21859900000004018
321,1,0.2,0.125,-35.0,-1,1.0,0.50529900000015
322,1,0.2,0.125,35.0,1,1.0,0.2319999999999709
323,1,0.2,1.0,35.0,1,1.0,0.20889899999997397
324,1,0.2,0.25,35.0,1,1.0,0.22899899999993067
325,1,0.2,0.25,35.0,1,1.0,0.3955990000001748
326,1,0.2,1.0,35.0,1,1.0,0.23889899999994668
327,1,0.2,0.0625,35.0,1,1.0,0.4522990000000391
328,1,0.2,0.25,35.0,1,1.0,0.22919900000010784
329,1,0.2,0.25,35.0,1,1.0,0.4090990000001966
330,1,0.2,0.0,-35.0,1,0.0,0.42239900000004127
331,1,0.2,0.0625,35.0,1,1.0,0.25929999999993925
332,1,0.2,1.0,35.0,1,1.0,0.28589899999997215
333,1,0.2,0.0625,35.0,1,1.0,0.5225990000001275
334,1,0.2,1.0,35.0,1,1.0,0.20269899999993868
335,1,0.2,0.0625,35.0,1,1.0,0.20279900000014095
336,1,0.2,1.0,35.0,1,1.0,0.5495989999999438
337,1,0.2,0.125,35.0,1,1.0,0.18629999999984648
338,1,0.2,1.0,-35.0,-1,1.0,0.40629899999999
339,1,0.2,1.0,-35.0,-1,1.0,0.29979900000012094
340,1,0.2,0.0625,-35.0,-1,1.0,0.40640000000007603
341,1,0.2,0.0,35.0,-1,0.0,0.699699000000237
342,1,0.2,0.125,35.0,1,1.0,0.25319899999999507
343,1,0.2,0.125,35.0,1,1.0,0.23319900000001326
344,1,0.2,0.125,35.0,1,1.0,0.20000000000004547
345,1,0.2,0.0625,35.0,1,1.0,0.3567990000001373
346,1,0.2,0.0625,35.0,1,1.0,0.26349900000013804
347,1,0.2,0.25,35.0,1,1.0,0.12019899999995687
348,1,0.2,0.25,35.0,1,1.0,0.18709899999998925
349,1,0.2,1.0,35.0,1,1.0,0.20039900000006128
350,1,0.2,0.0625,35.0,1,1.0,0.17709899999999834
351,1,0.2,0.0,35.0,1,1.0,0.19049999999992906
352,1,0.2,0.0625,35.0,1,1.0,0.20049900000003618
353,1,0.2,0.0625,35.0,1,1.0,0.21049900000002708
354,1,0.2,0.25,35.0,1,1.0,0.17399900000009438
355,1,0.2,0.25,35.0,1,1.0,0.37409900000011476
356,1,0.2,1.0,35.0,1,1.0,0.20749899999987065
357,1,0.2,0.0,35.0,-1,0.0,3.5207990000001246
358,1,0.2,0.0,-35.0,-1,1.0,0.36769900000012967
359,1,0.2,0.25,35.0,1,1.0,0.19100000000003092
360,1,0.2,0.125,35.0,1,1.0,0.2043989999999667
361,1,0.2,0.0625,35.0,1,1.0,0.21449900000015987
362,1,0.2,0.125,35.0,1,1.0,0.22119900000006965
363,1,0.2,0.25,35.0,1,1.0,0.1778990000000249
364,1,0.2,0.125,35.0,1,1.0,0.5046990000003007
365,1,0.2,1.0,35.0,1,1.0,0.19139900000004673
366,1,0.2,1.0,-35.0,-1,1.0,1.2681989999998677
367,1,0.2,0.0625,35.0,1,1.0,0.20499900000027083
368,1,0.2,0.125,35.0,1,1.0,0.23489900000004127
369,1,0.2,1.0,35.0,1,1.0,0.21829900000011548
370,1,0.2,0.25,35.0,1,1.0,0.2549989999997706
371,1,0.2,0.25,35.0,1,1.0,0.45499900000004345
372,1,0.2,0.0,-35.0,1,0.0,0.44509900000002744
373,1,0.2,1.0,35.0,1,1.0,0.17870000000016262
374,1,0.2,0.125,35.0,1,1.0,0.45519899999999325
375,1,0.8,0.0625,35.0,1,1.0,0.3752990000002683
376,1,0.8,0.0,35.0,-1,0.0,1.0486990000001697
377,1,0.8,1.0,-35.0,-1,1.0,0.2887990000001537
378,1,0.8,0.25,-35.0,-1,1.0,0.4754990000001271
379,1,0.8,1.0,-35.0,-1,1.0,0.30569900000023154
380,1,0.8,1.0,-35.0,-1,1.0,0.23899900000014895
381,1,0.8,0.125,35.0,1,1.0,0.46249900000020716
382,1,0.8,1.0,-35.0,-1,1.0,0.2890990000000784
383,1,0.8,0.25,-35.0,-1,1.0,1.8059989999999289
384,1,0.8,1.0,-35.0,-1,1.0,0.31609900000012203
385,1,0.8,0.0625,35.0,1,1.0,0.18939900000009402
386,1,0.8,0.25,-35.0,-1,1.0,0.5027990000000955
387,1,0.8,0.25,35.0,1,1.0,0.5427990000000591
388,1,0.8,0.25,-35.0,-1,1.0,1.0127990000003138
389,1,0.8,0.25,-35.0,1,0.0,0.9862989999999172
390,1,0.8,1.0,-35.0,-1,1.0,0.2862990000000991
391,1,0.8,1.0,-35.0,-1,1.0,0.2728990000000522
392,1,0.8,0.0625,-35.0,-1,1.0,3.283098999999993
393,1,0.8,0.25,35.0,1,1.0,0.4498989999999594
394,1,0.8,0.125,35.0,1,1.0,0.3733990000000631
395,1,0.8,0.25,-35.0,-1,1.0,0.516599000000042
396,1,0.8,0.0625,35.0,1,1.0,0.21339899999998124
397,1,0.8,0.25,-35.0,-1,1.0,0.48339899999996305
398,1,0.8,0.0,-35.0,-1,1.0,3.1301989999999478
399,1,0.8,0.25,-35.0,-1,1.0,0.480399000000034
400,1,0.8,0.0,35.0,-1,0.0,1.347199000000046
401,1,0.8,0.0625,-35.0,-1,1.0,3.140600000000177
402,1,0.8,1.0,35.0,1,1.0,0.18719899999996414
403,1,0.8,0.25,-35.0,-1,1.0,0.27729900000031193
404,1,0.8,0.0625,-35.0,1,0.0,0.11069999999995161
405,1,0.8,0.0625,35.0,1,1.0,0.9040989999998601
406,1,0.8,0.125,-35.0,1,0.0,2.557499000000007
407,1,0.8,0.0625,-35.0,-1,1.0,0.6609990000001744
408,1,0.8,1.0,35.0,1,1.0,0.6209989999999834
409,1,0.8,1.0,-35.0,-1,1.0,0.33449900000005073
410,1,0.8,0.0,-35.0,-1,1.0,2.6144990000000234
411,1,0.8,1.0,-35.0,-1,1.0,0.3179990000003272
412,1,0.8,1.0,-35.0,-1,1.0,0.5213999999998578
413,1,0.8,1.0,35.0,1,1.0,0.2080989999999474
414,1,0.8,0.0625,-35.0,-1,1.0,0.36479899999994814
415,1,0.8,0.0625,-35.0,-1,1.0,5.354898999999932
416,1,0.8,0.125,-35.0,1,0.0,1.2916989999998805
417,1,0.8,0.0625,-35.0,-1,1.0,0.3551989999998568
418,1,0.8,0.0625,-35.0,-1,1.0,0.3550989999998819
419,1,0.8,0.0625,-35.0,-1,1.0,3.8318990000000213
420,1,0.8,0.125,35.0,1,1.0,0.5153990000001158
421,1,0.8,0.125,-35.0,-1,1.0,0.6255989999999656
422,1,0.8,1.0,-35.0,-1,1.0,0.2887989999999263
423,1,0.8,0.0625,-35.0,-1,1.0,0.622199000000137
424,1,0.8,0.25,-35.0,-1,1.0,3.4322990000000573
425,1,0.8,0.0,-35.0,-1,1.0,0.9357990000000882
426,1,0.8,0.0625,-35.0,-1,1.0,0.9225989999999911
427,1,0.8,1.0,-35.0,-1,1.0,0.42249900000001617
428,1,0.8,0.0625,-35.0,1,0.0,0.5525990000001002
429,1,0.8,0.0625,-35.0,-1,1.0,0.28609899999992194
430,1,0.8,1.0,-35.0,-1,1.0,0.23939899999982117
431,1,0.8,0.25,-35.0,-1,1.0,1.0595000000002983
432,1,0.8,0.125,35.0,1,1.0,0.2661990000001424
433,1,0.8,0.0,-35.0,-1,1.0,3.2828989999998157
434,1,0.8,0.25,-35.0,-1,1.0,0.3596989999998641
435,1,0.8,0.0625,-35.0,-1,1.0,3.043199000000186
436,1,0.8,0.25,35.0,1,1.0,0.21649900000011257
437,1,0.8,1.0,-35.0,-1,1.0,0.2865990000000238
438,1,0.8,0.0,-35.0,-1,1.0,0.2500990000000911
439,1,0.8,0.25,-35.0,-1,1.0,0.2733989999999267
440,1,0.2,0.25,35.0,1,1.0,0.2701990000000478
441,1,0.2,0.125,35.0,1,1.0,0.25369900000009693
442,1,0.2,0.25,35.0,1,1.0,0.24699899999995978
443,1,0.2,0.25,35.0,1,1.0,0.2401990000000751
444,1,0.2,0.0,35.0,-1,0.0,3.750299000000041
445,1,0.2,0.125,35.0,1,1.0,0.28389999999990323
446,1,0.2,0.0,35.0,1,1.0,0.21719900000016423
447,1,0.2,0.0625,35.0,1,1.0,0.2905990000001566
448,1,0.2,0.25,35.0,1,1.0,0.20739900000012312
449,1,0.2,1.0,35.0,1,1.0,0.18729900000016642
450,1,0.2,0.25,35.0,1,1.0,0.21079899999995177
451,1,0.2,0.25,35.0,1,1.0,0.2540990000002239
452,1,0.2,0.125,35.0,1,1.0,0.25089900000011767
453,1,0.2,0.25,35.0,1,1.0,0.22090000000002874
454,1,0.2,0.125,35.0,1,1.0,0.21099900000012894
455,1,0.2,0.25,-35.0,-1,1.0,0.82429900000011
456,1,0.2,0.25,35.0,1,1.0,0.19439899999997579
457,1,0.2,1.0,35.0,1,1.0,0.19459900000015296
458,1,0.2,0.25,-35.0,-1,1.0,0.5344990000000962
459,1,0.2,0.0,35.0,-1,0.0,0.5644990000000689
460,1,0.2,0.25,35.0,1,1.0,0.38459899999998015
461,1,0.2,0.125,35.0,1,1.0,0.4279989999999998
462,1,0.2,1.0,35.0,1,1.0,0.10809900000026573
463,1,0.2,0.125,35.0,1,1.0,0.1915990000002239
464,1,0.2,0.25,35.0,1,1.0,0.22149999999987813
465,1,0.2,1.0,35.0,1,1.0,0.5549990000001799
466,1,0.2,1.0,35.0,1,1.0,0.2850989999999456
467,1,0.2,0.0625,35.0,1,1.0,0.20169899999996233
468,1,0.2,0.0,35.0,1,1.0,0.6650990000002821
469,1,0.2,0.25,35.0,1,1.0,0.22860000000014224
470,1,0.2,0.0,35.0,-1,0.0,3.0886990000001333
471,1,0.2,0.25,35.0,1,1.0,0.1853990000001886
472,1,0.2,0.0625,35.0,1,1.0,0.3186989999999241
473,1,0.2,0.0625,35.0,1,1.0,0.5887989999998808
474,1,0.2,0.125,-35.0,-1,1.0,0.3222000000000662
475,1,0.2,1.0,35.0,1,1.0,0.8356989999999769
476,1,0.2,0.25,35.0,1,1.0,0.21899900000016714
477,1,0.2,0.25,35.0,1,1.0,0.2623989999999594
478,1,0.2,0.25,35.0,1,1.0,0.34910000000013497
479,1,0.2,0.125,35.0,1,1.0,0.3189990000000762
480,1,0.2,0.125,35.0,1,1.0,0.2590989999998783
481,1,0.2,0.0625,35.0,1,1.0,0.4057989999998881
482,1,0.2,0.125,35.0,1,1.0,0.11929899999995541
483,1,0.2,0.125,35.0,1,1.0,0.36619900000005146
484,1,0.2,0.0625,35.0,1,1.0,0.5892990000002101
485,1,0.2,0.0,35.0,-1,0.0,2.8960990000000493
486,1,0.2,0.125,35.0,1,1.0,0.4262989999999718
487,1,0.2,0.125,35.0,1,1.0,0.24289900000007947
488,1,0.2,1.0,35.0,1,1.0,0.20959999999990941
489,1,0.2,0.25,35.0,1,1.0,0.2697000000000571
490,1,0.2,0.0,35.0,-1,0.0,0.8164990000000216
491,1,0.2,0.25,35.0,1,1.0,0.653199000000086
492,1,0.2,0.0625,35.0,-1,0.0,2.3265989999999874
493,1,0.2,0.125,35.0,1,1.0,0.23680000000013024
494,1,0.2,1.0,35.0,1,1.0,0.18689900000003945
495,1,0.2,0.0625,35.0,1,1.0,0.22359900000014932
496,1,0.2,0.125,35.0,1,1.0,0.2667989999999918
497,1,0.2,0.0,35.0,-1,0.0,0.673600000000306
498,1,0.2,1.0,35.0,1,1.0,0.17359899999996742
499,1,0.2,0.0625,35.0,-1,0.0,0.4037989999999354
500,1,0.2,0.125,35.0,1,1.0,0.2804989999999634
501,1,0.2,0.25,35.0,1,1.0,0.1938990000001013
502,1,0.2,0.25,35.0,1,1.0,-0.042801000000054046
503,1,0.2,0.0625,35.0,1,1.0,0.1939990000000762
504,1,0.2,0.25,35.0,1,1.0,0.09409900000014204
505,1,0.2,0.25,35.0,1,1.0,0.2640989999999874
506,1,0.2,1.0,35.0,1,1.0,0.6473989999999503
507,1,0.2,0.0625,35.0,1,1.0,0.4642989999999827
508,1,0.2,0.0625,35.0,1,1.0,0.35749900000018897
509,1,0.2,0.125,35.0,1,1.0,0.18429900000023736
510,1,0.2,0.125,35.0,1,1.0,0.1876999999999498
511,1,0.2,0.125,35.0,1,1.0,0.45439900000019406
512,1,0.2,0.25,35.0,1,1.0,0.28449899999986883
513,1,0.2,0.25,35.0,1,1.0,0.16119900000012422
514,1,0.2,0.0625,-35.0,-1,1.0,0.41469899999992776
515,1,0.2,1.0,-35.0,-1,1.0,0.26129900000000816
516,1,0.8,0.25,35.0,1,1.0,0.411399000000074
517,1,0.8,0.0625,-35.0,-1,1.0,0.38139900000032867
518,1,0.8,0.25,35.0,1,1.0,0.01829900000007001
519,1,0.8,0.125,-35.0,-1,1.0,0.5815990000000966
520,1,0.8,0.0625,-35.0,1,0.0,0.20489999999995234
521,1,0.8,0.125,-35.0,-1,1.0,0.26159899999993286
522,1,0.8,0.25,-35.0,-1,1.0,0.26169900000013513
523,1,0.8,0.0625,-35.0,-1,1.0,0.3350989999999001
524,1,0.8,0.25,-35.0,-1,1.0,4.498599000000013
525,1,0.8,0.25,-35.0,-1,1.0,0.4518990000001395
526,1,0.8,0.0625,35.0,1,1.0,0.5887990000001082
527,1,0.8,1.0,-35.0,-1,1.0,0.18869900000004236
528,1,0.8,1.0,35.0,1,1.0,0.16879900000003545
529,1,0.8,0.125,-35.0,-1,1.0,0.2621990000000096
530,1,0.8,1.0,35.0,1,1.0,0.27890000000002146
531,1,0.8,0.125,-35.0,-1,1.0,0.29559900000003836
532,1,0.8,1.0,35.0,1,1.0,0.1856990000001133
533,1,0.8,1.0,35.0,1,1.0,0.19579899999985173
534,1,0.8,0.25,-35.0,-1,1.0,0.25919900000008056
535,1,0.8,0.0625,-35.0,-1,1.0,0.2826000000000022
536,1,0.8,0.0,-35.0,-1,1.0,0.582499000000098
537,1,0.8,0.125,-35.0,-1,1.0,0.2860000000000582
538,1,0.8,0.0625,-35.0,-1,1.0,0.4760000000001128
539,1,0.8,1.0,-35.0,-1,1.0,0.7660990000001675
540,1,0.8,0.0,-35.0,-1,1.0,4.062799000000268
541,1,0.8,0.0,-35.0,-1,1.0,1.409699000000046
542,1,0.8,0.0625,-35.0,-1,1.0,0.44299899999987247
543,1,0.8,0.0,-35.0,-1,1.0,5.816399000000274
544,1,0.8,1.0,35.0,1,1.0,0.2731989999999769
545,1,0.8,0.0625,-35.0,-1,1.0,5.170099000000164
546,1,0.8,0.125,-35.0,-1,1.0,0.5167990000002192
547,1,0.8,0.25,-35.0,-1,1.0,0.4635990000001584
548,1,0.8,0.0625,-35.0,-1,1.0,0.38029900000015004
549,1,0.2,0.0,35.0,-1,0.0,0.7935990000000857
550,1,0.2,0.125,-35.0,-1,1.0,0.353699000000006
551,1,0.2,0.25,35.0,1,1.0,0.4539990000000671
552,1,0.2,1.0,35.0,1,1.0,0.37059900000008383
553,1,0.2,1.0,35.0,1,1.0,0.19729900000015732
554,1,0.2,0.0625,35.0,1,1.0,0.3139000000001033
555,1,0.2,0.0,-35.0,1,0.0,0.6306990000000496
556,1,0.2,1.0,35.0,1,1.0,0.2542989999999463
557,1,0.2,0.125,35.0,1,1.0,0.1674990000001344
558,1,0.2,0.0,35.0,-1,0.0,0.2709990000000744
559,1,0.2,0.125,35.0,-1,0.0,0.31759900000020025
560,1,0.2,0.25,35.0,1,1.0,0.35759900000016387
561,1,0.2,1.0,35.0,1,1.0,0.5745990000000347
562,1,0.2,0.25,35.0,1,1.0,0.3413990000001377
563,1,0.2,1.0,35.0,1,1.0,0.17129900000009002
564,1,0.2,0.0625,35.0,-1,0.0,2.928000000000111
565,1,0.2,0.25,35.0,1,1.0,0.501399999999876
566,1,0.2,0.25,35.0,1,1.0,0.07479899999998452
567,1,0.2,0.0625,-35.0,-1,1.0,0.3448990000001686
568,1,0.2,0.0,35.0,-1,0.0,3.0781990000000405
569,1,0.2,0.0625,35.0,-1,0.0,0.1882989999999154
570,1,0.2,0.25,35.0,1,1.0,0.31520000000000437
571,1,0.2,0.0625,35.0,1,1.0,0.5117999999999938
572,1,0.2,0.25,35.0,1,1.0,0.17860000000018772
573,1,0.2,0.0,35.0,1,1.0,0.5320000000001528
574,1,0.2,0.0625,35.0,1,1.0,0.35200000000008913
575,1,0.2,0.25,35.0,1,1.0,0.21200100000010025
576,1,0.2,0.0,35.0,1,1.0,0.15550000000007458
577,1,0.2,0.0625,-35.0,-1,1.0,0.3422000000002754
578,1,0.2,1.0,35.0,1,1.0,0.13890100000003258
579,1,0.2,0.0,35.0,1,1.0,0.3523999999999887
580,1,0.2,1.0,35.0,1,1.0,0.7924000000002707
581,1,0.2,0.0625,35.0,1,1.0,0.20910000000003492
582,1,0.2,1.0,35.0,1,1.0,0.11030000000005202
583,1,0.2,1.0,35.0,1,1.0,0.21590100000003076
584,1,0.2,0.25,35.0,1,1.0,0.22590100000002167
585,1,0.2,0.25,35.0,1,1.0,0.26270000000022264
586,1,0.2,0.0,35.0,1,1.0,0.12590100000011262
587,1,0.2,1.0,35.0,1,1.0,0.18610000000012406
588,1,0.8,0.25,-35.0,-1,1.0,0.29940000000010514
589,1,0.8,1.0,-35.0,-1,1.0,0.5461009999999078
590,1,0.8,0.125,-35.0,-1,1.0,0.3328000000001339
591,1,0.8,0.0,-35.0,-1,1.0,8.079600000000028
592,1,0.8,0.125,-35.0,-1,1.0,0.33969999999999345
593,1,0.8,0.125,-35.0,-1,1.0,0.3564000000001215
594,1,0.8,0.0,35.0,-1,0.0,4.9365999999999985
595,1,0.8,1.0,-35.0,-1,1.0,0.2367010000002665
596,1,0.8,0.25,-35.0,-1,1.0,0.6435010000002421
597,1,0.8,0.0625,-35.0,-1,1.0,0.4701999999999771
598,1,0.8,0.125,-35.0,-1,1.0,0.34359999999992397
599,1,0.8,0.0,-35.0,-1,1.0,4.623600000000124
600,1,0.8,0.125,-35.0,-1,1.0,0.3004000000000815
601,1,0.8,1.0,35.0,1,1.0,0.46050000000013824
602,1,0.8,0.125,35.0,1,1.0,0.24720099999990452
603,1,0.8,0.125,-35.0,-1,1.0,0.5072000000000116
604,1,0.8,0.25,-35.0,-1,1.0,0.31080000000019936
605,1,0.8,0.125,-35.0,-1,1.0,0.5440999999998439
606,1,0.8,0.0625,-35.0,-1,1.0,0.5408000000002176
607,1,0.8,0.125,-35.0,-1,1.0,3.2642000000000735
608,1,0.8,0.125,-35.0,-1,1.0,0.344300000000203
609,1,0.8,0.125,-35.0,-1,1.0,0.43109999999978754
610,1,0.8,1.0,-35.0,-1,1.0,0.2877000000003136
611,1,0.8,0.0,-35.0,-1,1.0,4.827900000000227
612,1,0.8,1.0,-35.0,-1,1.0,0.3213000000005195
613,1,0.8,1.0,-35.0,-1,1.0,0.2681000000002314
614,1,0.2,1.0,35.0,1,1.0,0.18479999999999563
615,1,0.2,0.0,-35.0,-1,1.0,5.261400000000322
616,1,0.2,0.25,-35.0,-1,1.0,0.47169999999960055
617,1,0.2,0.125,35.0,1,1.0,0.2450000000003456
618,1,0.2,1.0,35.0,1,1.0,0.24200000000018917
619,1,0.2,0.25,-35.0,-1,1.0,0.46170000000029177
620,1,0.2,0.0625,35.0,1,1.0,0.8018000000006396
621,1,0.2,0.0625,-35.0,-1,1.0,0.44529999999986103
622,1,0.2,0.25,35.0,1,1.0,1.2186999999998989
623,1,0.2,0.25,-35.0,-1,1.0,5.451999999999771
624,1,0.2,0.0,35.0,-1,0.0,0.6856000000002496
625,1,0.2,0.0625,35.0,1,1.0,0.3756999999995969
626,1,0.2,0.25,35.0,1,1.0,0.5823999999997795
627,1,0.2,1.0,35.0,1,1.0,0.2624000000000706
628,1,0.2,0.0625,35.0,1,1.0,0.5157999999996719
629,1,0.2,0.25,35.0,1,1.0,0.135899999999765
630,1,0.2,0.25,35.0,1,1.0,0.2758000000003449
631,1,0.2,1.0,35.0,1,1.0,0.23929999999973006
632,1,0.2,0.25,-35.0,-1,1.0,6.985999999999876
633,1,0.2,0.125,35.0,1,1.0,0.2995000000005348
634,1,0.2,0.125,35.0,1,1.0,0.8029000000001361
635,1,0.2,0.0,35.0,-1,0.0,6.38799999999992
636,1,0.8,1.0,35.0,1,1.0,0.18749999999954525
637,1,0.8,0.125,-35.0,-1,1.0,0.3308999999999287
638,1,0.8,0.0625,-35.0,-1,1.0,6.707699999999932
639,1,0.8,1.0,35.0,1,1.0,0.21149999999988722
640,1,0.8,0.25,-35.0,-1,1.0,0.25139999999964857
641,1,0.8,0.125,-35.0,-1,1.0,0.25469999999995707
642,1,0.8,0.25,-35.0,-1,1.0,0.4481999999998152
643,1,0.8,0.125,-35.0,-1,1.0,0.5480999999999767
644,1,0.8,1.0,-35.0,-1,1.0,0.6919000000002598
645,1,0.8,0.0625,-35.0,-1,1.0,1.248199999999997
646,1,0.8,0.125,-35.0,-1,1.0,3.258400000000165
647,1,0.8,0.0625,35.0,1,1.0,0.9551000000001295
648,1,0.8,1.0,35.0,1,1.0,0.2319999999999709
649,1,0.8,0.0625,-35.0,-1,1.0,4.138499999999567
650,1,0.8,0.125,-35.0,1,0.0,0.12220000000024811
651,1,0.8,0.25,35.0,1,1.0,0.4687000000003536
652,1,0.8,0.0625,-35.0,-1,1.0,0.6289000000001579
653,1,0.8,0.0625,35.0,1,1.0,0.6291000000001077
654,1,0.8,0.0625,-35.0,-1,1.0,0.342200000000048
655,1,0.8,0.125,-35.0,-1,1.0,0.28250000000025466
656,1,0.8,0.25,-35.0,-1,1.0,0.42570100000011735
657,1,0.8,0.125,35.0,1,1.0,0.2925000000000182
658,1,0.8,0.0,-35.0,-1,1.0,5.965900000000147
659,1,0.8,0.25,35.0,1,1.0,0.6627999999996064
660,1,0.8,1.0,-35.0,-1,1.0,0.37940100000014354
661,1,0.8,0.25,-35.0,-1,1.0,0.03940000000011423
662,1,0.8,1.0,-35.0,-1,1.0,0.25320000000010623
663,1,0.8,0.25,-35.0,-1,1.0,0.49330000000054497
664,1,0.8,0.0625,-35.0,-1,1.0,0.2764999999999418
665,1,0.8,0.125,-35.0,-1,1.0,0.416700000000219
666,1,0.8,0.125,-35.0,-1,1.0,0.5839000000000851
667,1,0.8,1.0,-35.0,-1,1.0,0.2737999999999374
668,1,0.8,1.0,-35.0,-1,1.0,0.2733010000001741
669,1,0.8,0.0,-35.0,-1,1.0,5.320700000000215
670,1,0.8,1.0,-35.0,-1,1.0,0.2207010000001901
671,1,0.8,0.25,-35.0,-1,1.0,5.5439000000001215
672,1,0.8,1.0,-35.0,-1,1.0,0.2070000000003347
673,1,0.8,0.25,35.0,1,1.0,0.33750000000009095
674,1,0.8,0.125,35.0,1,1.0,0.7937000000001717
675,1,0.8,0.125,35.0,1,1.0,1.1745999999998276
676,1,0.8,0.25,-35.0,-1,1.0,0.4341000000003987
677,1,0.8,1.0,-35.0,-1,1.0,0.4942000000000917
678,1,0.8,0.125,-35.0,-1,1.0,10.63740000000007
679,1,0.8,0.0625,-35.0,-1,1.0,0.35419999999976426
680,1,0.8,0.25,-35.0,-1,1.0,0.46440000000029613
681,1,0.8,0.25,-35.0,-1,1.0,6.424399999999878
682,1,0.8,1.0,35.0,1,1.0,0.41450100000065504
683,1,0.8,0.25,-35.0,-1,1.0,0.2782000000001972
684,1,0.8,0.125,-35.0,-1,1.0,0.2613000000001193
685,1,0.8,0.25,35.0,1,1.0,0.4679999999998472
686,1,0.8,0.125,-35.0,-1,1.0,0.3682000000003427
687,1,0.8,1.0,-35.0,-1,1.0,0.24810000000024957
688,1,0.8,0.0625,-35.0,-1,1.0,0.5485999999996238
689,1,0.2,0.125,35.0,1,1.0,0.3018010000000686
690,1,0.2,0.125,35.0,1,1.0,0.1952000000001135
691,1,0.2,0.0,35.0,-1,0.0,0.3215999999997621
692,1,0.2,0.25,-35.0,-1,1.0,0.3219000000003689
693,1,0.2,0.25,35.0,1,1.0,0.2518000000000029
694,1,0.2,0.0625,35.0,1,1.0,0.2719999999999345
695,1,0.2,0.0625,35.0,1,1.0,0.3318999999996777
696,1,0.2,0.25,35.0,1,1.0,0.832300000000032
697,1,0.2,0.25,35.0,1,1.0,0.23770100000001548
698,1,0.2,0.0,-35.0,-1,1.0,5.791099999999915
699,1,0.2,0.0625,35.0,1,1.0,0.3344999999999345
700,1,0.2,1.0,35.0,1,1.0,0.20470000000022992
701,1,0.2,0.0625,-35.0,-1,1.0,0.4279999999998836
702,1,0.2,1.0,35.0,1,1.0,0.7546000000002095
703,1,0.2,1.0,35.0,1,1.0,0.2349000000003798
704,1,0.2,0.25,35.0,1,1.0,0.23480000000017753
705,1,0.2,0.25,-35.0,-1,1.0,3.7214999999996508
706,1,0.2,1.0,35.0,1,1.0,0.3384000000000924
707,1,0.2,1.0,-35.0,-1,1.0,0.2717999999999847
708,1,0.2,0.0,35.0,-1,0.0,3.295100000000275
709,1,0.2,1.0,35.0,1,1.0,0.3920000000002801
710,1,0.2,0.0,35.0,-1,0.0,2.7554000000000087
711,1,0.2,0.0625,35.0,1,1.0,0.4586999999996806
712,1,0.8,0.25,-35.0,-1,1.0,0.23880000000008295
713,1,0.8,0.25,-35.0,-1,1.0,0.2655000000004293
714,1,0.8,0.25,-35.0,-1,1.0,0.26230000000032305
715,1,0.8,0.125,-35.0,-1,1.0,0.44889999999986685
716,1,0.8,0.25,-35.0,-1,1.0,0.43570000000045184
717,1,0.8,0.0625,-35.0,-1,1.0,3.7222999999999047
718,1,0.8,1.0,-35.0,-1,1.0,0.2159999999998945
719,1,0.8,0.25,-35.0,-1,1.0,0.30260100000032253
720,1,0.8,0.25,35.0,1,1.0,0.2760000000002947
721,1,0.8,0.125,-35.0,-1,1.0,6.6293000000000575
722,1,0.8,0.0,-35.0,-1,1.0,6.842800000000352
723,1,0.8,0.0625,-35.0,-1,1.0,0.2563999999997577
724,1,0.8,0.0625,-35.0,-1,1.0,0.4998000000000502
725,1,0.8,1.0,35.0,1,1.0,0.4497999999998683
726,1,0.8,1.0,-35.0,-1,1.0,0.24989999999979773
727,1,0.8,0.125,-35.0,-1,1.0,7.953300000000127
728,1,0.8,0.125,-35.0,-1,1.0,4.076799999999821
729,1,0.8,1.0,-35.0,-1,1.0,0.3103000000000975
730,1,0.8,0.125,35.0,1,1.0,0.6736010000004171
731,1,0.8,0.25,-35.0,-1,1.0,0.25709999999980937
732,1,0.8,0.125,-35.0,-1,1.0,0.29040000000031796
733,1,0.8,1.0,-35.0,1,0.0,0.3139000000001033
734,1,0.8,0.0625,35.0,1,1.0,0.2272000000002663
735,1,0.8,0.25,35.0,1,1.0,0.4638999999997395
736,1,0.8,0.25,35.0,1,1.0,0.367399999999634
737,1,0.2,0.0,35.0,-1,0.0,6.084201000000121
738,1,0.2,0.125,35.0,1,1.0,0.43429999999989377
739,1,0.2,1.0,35.0,1,1.0,0.2909000000004198
740,1,0.2,1.0,-35.0,-1,1.0,0.37770099999988815
741,1,0.2,1.0,-35.0,-1,1.0,0.2610999999997148
742,1,0.2,1.0,35.0,1,1.0,0.2011000000002241
743,1,0.2,1.0,35.0,1,1.0,0.9178000000001703
744,1,0.2,0.125,35.0,1,1.0,0.6347000000000662
745,1,0.2,1.0,35.0,1,1.0,0.18129999999973734
746,1,0.2,0.25,35.0,1,1.0,0.29140000000006694
747,1,0.2,0.125,35.0,1,1.0,0.5080009999996946
748,1,0.2,0.25,35.0,1,1.0,0.2814000000003034
749,1,0.2,0.25,35.0,1,1.0,0.20280000000002474
750,1,0.2,0.0625,35.0,1,1.0,0.6494000000002416
751,1,0.2,0.25,35.0,1,1.0,0.2197000000001026
752,1,0.2,0.0,35.0,-1,0.0,17.846100000000206
753,1,0.2,1.0,35.0,1,1.0,0.22050000000035652
754,1,0.2,0.125,35.0,1,1.0,0.4736000000002605
755,1,0.2,0.125,35.0,1,1.0,0.6432000000004336
756,1,0.2,1.0,35.0,1,1.0,0.2266999999997097
757,1,0.2,0.125,35.0,1,1.0,0.5035000000002583
758,1,0.2,0.25,-35.0,-1,1.0,0.5468999999998232
759,1,0.2,0.0,35.0,-1,0.0,6.127400000000307
760,1,0.2,1.0,35.0,1,1.0,0.23050000000012005
761,1,0.2,0.125,35.0,-1,0.0,10.31750000000011
762,1,0.2,1.0,35.0,-1,0.0,6.747400000000198
763,1,0.2,0.0625,35.0,-1,0.0,21.35759999999982
764,1,0.2,1.0,-35.0,-1,1.0,0.25800100000014936
765,1,0.2,0.125,35.0,-1,0.0,17.175001000000066
766,1,0.2,0.125,-35.0,-1,1.0,0.4954999999999927
767,1,0.2,1.0,-35.0,-1,1.0,0.32580000000007203
768,1,0.2,0.25,-35.0,-1,1.0,0.35910100000000966
769,1,0.2,1.0,35.0,1,1.0,0.3787000000002081
770,1,0.2,1.0,35.0,1,1.0,0.16229999999995925
771,1,0.2,0.0,35.0,1,1.0,1.3220000000001164
772,1,0.2,0.125,35.0,1,1.0,1.4621999999999389
773,1,0.2,0.25,35.0,1,1.0,0.422099999999773
774,1,0.8,0.25,-35.0,-1,1.0,11.795599999999922
775,1,0.8,0.25,-35.0,-1,1.0,0.25260000000025684
776,1,0.8,0.25,-35.0,-1,1.0,0.24979999999959546
777,1,0.8,0.25,-35.0,-1,1.0,0.5827009999998154
778,1,0.8,1.0,-35.0,-1,1.0,0.36930000000029395
779,1,0.8,0.25,-35.0,1,0.0,0.16629999999986467
780,1,0.8,1.0,-35.0,-1,1.0,0.28319999999985157
781,1,0.8,0.125,-35.0,-1,1.0,5.863100000000031
782,1,0.8,0.25,35.0,-1,0.0,6.109799999999723
783,1,0.8,0.0625,-35.0,-1,1.0,11.933300000000145
784,1,0.8,0.125,35.0,1,1.0,1.5934000000002015
785,1,0.8,0.0625,-35.0,-1,1.0,4.220300000000407
786,1,0.8,0.0625,-35.0,-1,1.0,4.670300000000225
787,1,0.8,1.0,-35.0,-1,1.0,3.2541000000001077
788,1,0.8,1.0,-35.0,-1,1.0,0.29739999999992506
789,1,0.8,0.25,-35.0,-1,1.0,6.780999999999949
790,1,0.8,0.25,-35.0,-1,1.0,0.22510000000011132
791,1,0.8,1.0,-35.0,-1,1.0,0.2645999999999731
792,1,0.8,0.25,-35.0,-1,1.0,2.307499999999891
793,1,0.8,0.0625,-35.0,-1,1.0,0.3977000000004409
794,1,0.8,0.125,-35.0,-1,1.0,0.23470000000043
795,1,0.8,0.125,-35.0,-1,1.0,0.23430000000007567
796,1,0.8,1.0,-35.0,-1,1.0,0.1979999999998654
797,1,0.8,0.25,-35.0,-1,1.0,0.29820099999960803
798,1,0.8,0.0625,-35.0,-1,1.0,1.4884000000001834
799,1,0.8,0.0,35.0,-1,0.0,6.264700000000175
800,1,0.8,0.125,-35.0,-1,1.0,0.27209999999968204
801,1,0.8,0.25,-35.0,-1,1.0,0.24890000000004875
802,1,0.8,1.0,-35.0,-1,1.0,0.22830000000021755
803,1,0.8,0.125,-35.0,-1,1.0,5.735199999999622
804,1,0.8,1.0,-35.0,-1,1.0,0.21529999999984284
805,1,0.2,1.0,35.0,1,1.0,0.2484999999996944
806,1,0.2,0.25,-35.0,-1,1.0,0.26550100000031307
807,1,0.2,0.0625,35.0,-1,0.0,0.45519999999987704
808,1,0.2,0.125,35.0,1,1.0,0.3119000000001506
809,1,0.2,0.0625,35.0,-1,0.0,0.21880000000010114
810,1,0.2,0.0625,35.0,-1,0.0,0.3888000000001739
811,1,0.2,0.25,35.0,1,1.0,0.28210000000035507
812,1,0.2,0.25,35.0,1,1.0,0.24559999999974025
813,1,0.2,1.0,35.0,1,1.0,0.17920000000049185
814,1,0.2,0.25,35.0,1,1.0,0.24949999999989814
815,1,0.2,0.0625,35.0,1,1.0,0.33900000000039654
816,1,0.2,0.25,35.0,1,1.0,0.4591000000000349
817,1,0.2,0.0625,35.0,1,1.0,0.8766000000005079
818,1,0.2,0.0625,35.0,-1,0.0,5.059500000000298
819,1,0.2,0.125,35.0,1,1.0,0.18610000000035143
820,1,0.2,1.0,-35.0,-1,1.0,0.282799999999952
821,1,0.2,0.0,35.0,-1,0.0,8.363201000000117
822,1,0.2,0.125,35.0,1,1.0,0.39320100000031744
823,1,0.2,0.125,35.0,1,1.0,1.223000000000411
824,1,0.2,0.25,-35.0,-1,1.0,0.2462999999997919
825,1,0.2,1.0,35.0,1,1.0,0.22660099999984595
826,1,0.2,1.0,-35.0,-1,1.0,0.21729999999979555
827,1,0.2,0.0,35.0,-1,0.0,0.9998999999997977
828,1,0.2,0.0625,35.0,-1,0.0,11.20049999999992
829,1,0.2,0.125,35.0,1,1.0,0.33039999999982683
830,1,0.2,0.25,-35.0,-1,1.0,0.2505999999998494
831,1,0.2,0.25,35.0,1,1.0,5.940700000000106
832,1,0.2,0.125,-35.0,-1,1.0,24.60380000000032
833,1,0.2,1.0,35.0,1,1.0,0.18779999999969732
834,1,0.2,0.0,35.0,-1,0.0,0.37780000000020664
835,1,0.2,0.125,35.0,1,1.0,0.3146999999999025
836,1,0.2,0.125,-35.0,-1,1.0,0.3848000000002685
837,1,0.2,1.0,35.0,1,1.0,0.19510100000024977
838,1,0.2,0.0,35.0,1,1.0,4.081800999999814
839,1,0.8,0.25,-35.0,-1,1.0,0.3485000000000582
840,1,0.8,0.25,-35.0,-1,1.0,7.67830000000049
841,1,0.8,1.0,35.0,1,1.0,0.1851000000001477
842,1,0.8,0.125,35.0,-1,0.0,9.545000000000073
843,1,0.8,1.0,-35.0,-1,1.0,0.2556009999998423
844,1,0.8,0.125,35.0,1,1.0,6.348899999999958
845,1,0.8,0.0625,35.0,-1,0.0,8.429399999999987
846,1,0.8,1.0,35.0,1,1.0,0.26250000000027285
847,1,0.8,1.0,-35.0,-1,1.0,0.18899999999985084
848,1,0.8,1.0,-35.0,-1,1.0,0.25300000000015643
849,1,0.8,0.25,-35.0,-1,1.0,11.186199999999644
850,1,0.8,0.0,-35.0,-1,1.0,17.9366
851,1,0.8,1.0,-35.0,-1,1.0,0.20659999999998035
852,1,0.8,0.25,-35.0,-1,1.0,0.26350000000002183
853,1,0.8,0.125,35.0,-1,0.0,4.3400000000001455
854,1,0.8,0.0625,-35.0,-1,1.0,5.007099999999809
855,1,0.8,0.125,-35.0,1,0.0,0.22369999999955326
856,1,0.8,0.25,-35.0,-1,1.0,0.370600000000195
857,1,0.8,0.125,-35.0,1,0.0,6.070499999999811
858,1,0.8,0.0,-35.0,-1,1.0,0.6640000000002146
859,1,0.8,1.0,-35.0,-1,1.0,0.22420099999999366
860,1,0.8,0.0625,-35.0,-1,1.0,0.6106999999997242
861,1,0.8,1.0,35.0,1,1.0,0.20100000000047658
862,1,0.8,1.0,-35.0,-1,1.0,0.20420000000012806
863,1,0.8,0.25,-35.0,-1,1.0,12.078201000000263
864,1,0.8,0.0625,-35.0,-1,1.0,0.35809999999992215
865,1,0.8,0.0625,-35.0,-1,1.0,5.687900000000354
866,1,0.8,0.0625,-35.0,-1,1.0,0.3447000000001026
867,1,0.8,1.0,-35.0,1,0.0,0.9148009999998976
868,1,0.8,0.25,-35.0,-1,1.0,8.918200999999954
1,2,0.8,0.0625,-35.0,1,0.0,0.6543000000000001
2,2,0.8,0.25,-35.0,-1,1.0,0.48660000000000014
3,2,0.8,0.0625,-35.0,-1,1.0,0.47359999999999935
4,2,0.8,0.25,-35.0,-1,1.0,0.2904
5,2,0.8,0.0,-35.0,-1,1.0,2.2737
6,2,0.8,1.0,-35.0,-1,1.0,0.2592010000000009
7,2,0.8,1.0,-35.0,-1,1.0,0.20340100000000305
8,2,0.8,0.25,-35.0,-1,1.0,0.4045999999999985
9,2,0.8,0.0625,-35.0,-1,1.0,0.689700000000002
10,2,0.8,0.25,-35.0,-1,1.0,0.36939999999999884
11,2,0.8,0.25,-35.0,-1,1.0,0.15930000000000177
12,2,0.8,0.125,-35.0,-1,1.0,0.43070000000000164
13,2,0.8,1.0,-35.0,-1,1.0,0.3884010000000018
14,2,0.8,0.125,35.0,1,1.0,0.24110000000000298
15,2,0.8,0.0625,35.0,1,1.0,0.3873000000000033
16,2,0.8,0.0,-35.0,1,0.0,3.1438010000000105
17,2,0.8,0.0625,-35.0,-1,1.0,0.6965009999999978
18,2,0.8,0.125,-35.0,-1,1.0,0.30180000000000007
19,2,0.8,1.0,-35.0,-1,1.0,0.261099999999999
20,2,0.8,0.25,-35.0,-1,1.0,0.4316000000000031
21,2,0.8,0.25,-35.0,-1,1.0,0.2949000000000055
22,2,0.8,0.25,-35.0,-1,1.0,0.4894000000000105
23,2,0.8,0.125,-35.0,-1,1.0,0.7275999999999954
24,2,0.8,0.0625,-35.0,-1,1.0,0.6473000000000013
25,2,0.2,0.125,35.0,1,1.0,0.043400000000005434
26,2,0.2,0.125,35.0,1,1.0,0.2336000000000098
27,2,0.2,1.0,-35.0,-1,1.0,2.4317999999999955
28,2,0.2,0.0,35.0,-1,0.0,0.6170000000000044
29,2,0.2,0.125,35.0,1,1.0,0.3130000000000024
30,2,0.2,0.125,35.0,1,1.0,0.39639999999999986
31,2,0.2,1.0,35.0,1,1.0,0.24230099999999766
32,2,0.2,0.0625,35.0,1,1.0,0.4013999999999953
33,2,0.2,0.25,35.0,1,1.0,0.25369999999999493
34,2,0.2,0.0625,35.0,1,1.0,0.39630000000001075
35,2,0.2,0.25,35.0,1,1.0,0.18619999999999948
36,2,0.2,0.125,35.0,1,1.0,0.21290000000000475
37,2,0.2,0.25,35.0,1,1.0,0.2563999999999993
38,2,0.2,1.0,35.0,1,1.0,0.20130000000000337
39,2,0.2,0.25,35.0,1,1.0,0.2085000000000008
40,2,0.2,1.0,35.0,1,1.0,0.22990100000001235
41,2,0.2,1.0,35.0,1,1.0,0.41500000000000625
42,2,0.2,0.125,35.0,1,1.0,0.3650999999999982
43,2,0.2,1.0,-35.0,-1,1.0,0.3593010000000021
44,2,0.2,0.125,35.0,1,1.0,0.39679999999999893
45,2,0.2,1.0,35.0,1,1.0,0.19210100000002228
46,2,0.2,0.125,35.0,1,1.0,1.8995999999999924
47,2,0.2,0.125,35.0,1,1.0,0.25780000000000314
48,2,0.2,0.25,35.0,1,1.0,0.2383999999999844
49,2,0.2,1.0,35.0,-1,0.0,0.11549999999999727
50,2,0.2,0.0,-35.0,-1,1.0,0.4625000000000057
51,2,0.2,0.0,35.0,-1,0.0,0.3504999999999825
52,2,0.2,0.0,35.0,1,1.0,0.21259999999998058
53,2,0.2,0.25,35.0,1,1.0,0.2372999999999763
54,2,0.2,0.0625,35.0,1,1.0,4.392699999999962
55,2,0.2,1.0,35.0,1,1.0,0.31529999999997926
56,2,0.2,1.0,35.0,1,1.0,0.26609999999996603
57,2,0.2,0.0625,35.0,1,1.0,0.32390000000000896
58,2,0.2,1.0,35.0,1,1.0,0.22839999999996508
59,2,0.2,0.25,35.0,1,1.0,0.24179999999998358
60,2,0.2,0.0625,35.0,1,1.0,0.5475000000000136
61,2,0.2,1.0,35.0,1,1.0,0.22989999999998645
62,2,0.2,0.25,35.0,1,1.0,0.1898999999999944
63,2,0.2,0.0,35.0,1,1.0,0.342899999999986
64,2,0.2,0.0,35.0,-1,0.0,3.7013009999999724
65,2,0.2,0.25,-35.0,-1,1.0,0.40709999999995716
66,2,0.2,0.125,35.0,1,1.0,0.2447999999999979
67,2,0.2,0.25,35.0,1,1.0,0.22019999999997708
68,2,0.2,1.0,-35.0,-1,1.0,0.3094999999999857
69,2,0.2,0.125,35.0,1,1.0,0.32329999999998904
70,2,0.2,0.25,35.0,1,1.0,0.30639999999999645
71,2,0.2,0.0625,-35.0,-1,1.0,4.260000999999988
72,2,0.2,0.0,35.0,-1,0.0,0.5060009999999977
73,2,0.2,1.0,-35.0,-1,1.0,0.26899999999997704
74,2,0.2,0.0625,-35.0,1,0.0,0.19099999999997408
75,2,0.2,0.125,35.0,1,1.0,0.20820000000000505
76,2,0.2,0.25,35.0,1,1.0,0.11219999999997299
77,2,0.2,0.125,35.0,1,1.0,0.2908999999999935
78,2,0.2,0.25,35.0,1,1.0,0.21759999999997603
79,2,0.2,1.0,35.0,1,1.0,0.19640000000001123
80,2,0.2,0.0625,35.0,1,1.0,0.393100000000004
81,2,0.2,0.125,35.0,1,1.0,0.4831000000000074
82,2,0.2,0.125,35.0,1,1.0,0.21389999999999532
83,2,0.2,0.0625,-35.0,1,0.0,0.25089999999997303
84,2,0.2,0.0,35.0,-1,0.0,2.7269999999999754
85,2,0.2,0.125,-35.0,-1,1.0,0.2991010000000074
86,2,0.2,0.0,35.0,-1,0.0,0.4496000000000322
87,2,0.2,0.0625,35.0,1,1.0,0.2972000000000321
88,2,0.2,0.0,35.0,-1,0.0,0.77800000000002
89,2,0.2,1.0,-35.0,-1,1.0,0.25240000000002283
90,2,0.2,0.25,35.0,1,1.0,0.2048000000000343
91,2,0.8,1.0,-35.0,-1,1.0,0.260599999999954
92,2,0.8,0.25,-35.0,1,0.0,0.2611999999999739
93,2,0.8,1.0,-35.0,-1,1.0,0.24529999999998608
94,2,0.8,1.0,-35.0,-1,1.0,0.2729999999999677
95,2,0.8,0.0625,-35.0,-1,1.0,0.7181999999999675
96,2,0.8,0.25,-35.0,-1,1.0,0.2818999999999505
97,2,0.8,0.125,-35.0,-1,1.0,2.0965999999999667
98,2,0.8,0.125,-35.0,-1,1.0,0.34789999999998145
99,2,0.8,0.125,-35.0,-1,1.0,0.39170000000001437
100,2,0.8,0.25,-35.0,-1,1.0,0.2560010000000261
101,2,0.8,1.0,-35.0,-1,1.0,0.29850099999998747
102,2,0.8,0.125,-35.0,-1,1.0,0.28719999999998436
103,2,0.8,1.0,-35.0,-1,1.0,0.22580099999998993
104,2,0.8,0.25,-35.0,-1,1.0,0.2798999999999978
105,2,0.8,0.25,-35.0,-1,1.0,0.25660099999993236
106,2,0.8,0.0625,-35.0,-1,1.0,0.2984010000000126
107,2,0.8,0.25,35.0,1,1.0,0.20009999999996353
108,2,0.8,1.0,-35.0,-1,1.0,0.2640999999999849
109,2,0.8,0.125,-35.0,-1,1.0,0.65620100000001
110,2,0.8,1.0,-35.0,-1,1.0,0.25090099999999893
111,2,0.8,1.0,-35.0,-1,1.0,0.21659999999997126
112,2,0.8,0.125,-35.0,-1,1.0,0.2224010000000476
113,2,0.8,0.25,-35.0,-1,1.0,0.31210000000004356
114,2,0.8,0.0,-35.0,1,0.0,0.6449000000000069
115,2,0.8,0.125,-35.0,-1,1.0,0.32560000000000855
116,2,0.8,0.125,35.0,1,1.0,0.22969999999992297
117,2,0.8,0.125,-35.0,1,0.0,0.1823999999999728
118,2,0.8,0.0,-35.0,-1,1.0,1.8321000000000254
119,2,0.8,0.25,35.0,1,1.0,0.22919999999999163
120,2,0.8,1.0,-35.0,-1,1.0,0.2898010000000113
121,2,0.8,0.25,35.0,1,1.0,0.1846999999999639
122,2,0.8,1.0,35.0,1,1.0,0.18780000000003838
123,2,0.8,0.25,-35.0,-1,1.0,0.34700000000003683
124,2,0.8,0.0625,-35.0,-1,1.0,0.5463000000000306
125,2,0.8,0.25,-35.0,-1,1.0,0.355199999999968
126,2,0.8,0.0,35.0,-1,0.0,0.6435999999999922
127,2,0.8,0.125,-35.0,-1,1.0,0.26590100000004213
128,2,0.8,0.0625,-35.0,-1,1.0,3.20029999999997
129,2,0.8,0.125,-35.0,-1,1.0,0.4001999999999839
130,2,0.8,0.125,-35.0,-1,1.0,0.33320000000003347
131,2,0.8,0.0625,35.0,1,1.0,0.42070000000001073
132,2,0.8,0.0625,-35.0,-1,1.0,0.579400000000021
133,2,0.8,0.0625,-35.0,-1,1.0,0.46170000000000755
134,2,0.8,0.125,-35.0,-1,1.0,0.255299999999977
135,2,0.8,0.0625,-35.0,1,0.0,0.2125000000000341
136,2,0.8,0.0625,-35.0,-1,1.0,0.4463000000000079
137,2,0.8,1.0,-35.0,-1,1.0,0.26799999999997226
138,2,0.8,0.0625,-35.0,-1,1.0,2.253500000000031
139,2,0.8,0.125,-35.0,-1,1.0,0.3772000000000162
140,2,0.8,1.0,-35.0,-1,1.0,0.300899999999956
141,2,0.8,0.125,-35.0,-1,1.0,0.4565999999999235
142,2,0.8,1.0,-35.0,-1,1.0,0.27480100000002494
143,2,0.8,0.25,35.0,1,1.0,0.2420999999999367
144,2,0.8,0.0625,-35.0,-1,1.0,1.2747999999999706
145,2,0.8,0.0625,-35.0,-1,1.0,0.7257999999999925
146,2,0.8,1.0,-35.0,-1,1.0,0.24690099999997983
147,2,0.8,1.0,-35.0,-1,1.0,0.17110099999996464
148,2,0.8,0.0625,-35.0,-1,1.0,0.7973010000000045
149,2,0.8,0.25,-35.0,-1,1.0,0.9188009999999736
150,2,0.8,1.0,-35.0,-1,1.0,0.172300000000007
151,2,0.8,0.0625,-35.0,-1,1.0,0.3727010000000064
152,2,0.8,0.0,35.0,-1,0.0,1.2567999999999984
153,2,0.8,1.0,-35.0,-1,1.0,0.21470100000004777
154,2,0.8,0.0625,-35.0,-1,1.0,0.533299999999997
155,2,0.8,1.0,-35.0,-1,1.0,0.2900999999999385
156,2,0.8,1.0,-35.0,-1,1.0,0.25040100000001075
157,2,0.8,0.25,-35.0,-1,1.0,0.3173999999999637
158,2,0.8,0.125,-35.0,-1,1.0,0.3125999999999749
159,2,0.2,0.25,35.0,1,1.0,0.4796000000000049
160,2,0.2,0.0625,-35.0,-1,1.0,0.5059999999999718
161,2,0.2,0.0625,35.0,1,1.0,0.21910000000002583
162,2,0.2,0.25,35.0,1,1.0,0.19280000000003383
163,2,0.2,1.0,35.0,1,1.0,0.17509999999998627
164,2,0.2,0.25,35.0,1,1.0,0.21690000000000964
165,2,0.2,0.25,35.0,1,1.0,0.2397999999999456
166,2,0.2,0.25,35.0,1,1.0,0.23529999999999518
167,2,0.2,0.125,-35.0,-1,1.0,0.23809999999997444
168,2,0.2,0.25,35.0,1,1.0,0.18489999999997053
169,2,0.2,0.125,35.0,1,1.0,0.48310000000003583
170,2,0.2,0.25,-35.0,-1,1.0,0.48840000000006967
171,2,0.2,0.0,35.0,1,1.0,0.19249999999999545
172,2,0.2,1.0,35.0,1,1.0,0.20190000000002328
173,2,0.2,0.25,35.0,1,1.0,0.31460100000003877
174,2,0.2,0.125,35.0,1,1.0,0.2716000000000349
175,2,0.2,0.125,35.0,1,1.0,0.11840000000006512
176,2,0.2,0.125,-35.0,-1,1.0,0.36200000000008004
177,2,0.2,1.0,35.0,1,1.0,0.25080000000014024
178,2,0.2,0.125,-35.0,-1,1.0,0.2338000000000875
179,2,0.2,0.0625,35.0,1,1.0,0.26880000000005566
180,2,0.2,1.0,35.0,1,1.0,0.1673000000000684
181,2,0.2,0.25,35.0,1,1.0,0.1573999999999387
182,2,0.2,0.125,35.0,1,1.0,0.24239999999997508
183,2,0.2,0.125,35.0,1,1.0,0.21820000000002437
184,2,0.2,0.25,35.0,1,1.0,0.18210099999998874
185,2,0.2,0.0625,35.0,1,1.0,0.23920099999998
186,2,0.2,1.0,-35.0,-1,1.0,0.2476000000001477
187,2,0.2,0.0625,35.0,1,1.0,1.1213000000000193
188,2,0.2,0.125,-35.0,-1,1.0,0.17630000000008295
189,2,0.2,0.125,35.0,1,1.0,0.3067999999999529
190,2,0.2,1.0,35.0,1,1.0,0.14279999999996562
191,2,0.2,0.0625,-35.0,-1,1.0,0.3248000000000957
192,2,0.2,0.0625,35.0,1,1.0,0.5398000000001275
193,2,0.2,0.125,35.0,1,1.0,0.16039999999998145
194,2,0.2,0.125,35.0,1,1.0,0.13440000000014152
195,2,0.2,0.25,35.0,1,1.0,0.2235000000000582
196,2,0.2,0.25,35.0,1,1.0,0.25080000000002656
197,2,0.2,0.125,35.0,1,1.0,0.22890000000006694
198,2,0.2,0.25,35.0,1,1.0,0.14630000000011023
199,2,0.2,0.25,-35.0,-1,1.0,1.9173999999999296
200,2,0.2,0.25,-35.0,-1,1.0,0.7321000000000595
201,2,0.2,0.0625,35.0,1,1.0,0.20150100000000748
202,2,0.2,0.0625,-35.0,1,0.0,0.0906000000001086
203,2,0.2,1.0,35.0,1,1.0,0.2716010000000324
204,2,0.2,0.0625,-35.0,1,0.0,0.21640000000002146
205,2,0.2,0.125,35.0,1,1.0,0.428801000000135
206,2,0.2,0.0625,35.0,1,1.0,0.3526000000000522
207,2,0.8,0.0625,-35.0,-1,1.0,0.6895000000000664
208,2,0.8,1.0,-35.0,1,0.0,0.19089999999994234
209,2,0.8,0.0,-35.0,1,0.0,0.42870000000004893
210,2,0.8,0.125,-35.0,-1,1.0,0.2598009999999249
211,2,0.8,1.0,-35.0,-1,1.0,0.23080100000004222
212,2,0.8,1.0,-35.0,-1,1.0,0.3339009999999689
213,2,0.8,1.0,35.0,1,1.0,0.241600999999946
214,2,0.8,0.25,35.0,1,1.0,0.21630100000015773
215,2,0.8,0.25,-35.0,-1,1.0,0.50649999999996
216,2,0.8,0.25,-35.0,-1,1.0,0.5888009999999895
217,2,0.8,0.0625,-35.0,1,0.0,0.244199999999978
218,2,0.8,1.0,-35.0,-1,1.0,0.37220000000002074
219,2,0.8,0.125,35.0,1,1.0,0.23340000000007421
220,2,0.8,0.25,-35.0,-1,1.0,0.33870100000012826
221,2,0.8,0.125,-35.0,-1,1.0,0.1792000000000371
222,2,0.8,0.0625,-35.0,-1,1.0,0.4090000000001055
223,2,0.8,0.125,-35.0,-1,1.0,0.543500999999992
224,2,0.8,1.0,-35.0,-1,1.0,0.21289999999999054
225,2,0.8,0.25,-35.0,-1,1.0,0.47700000000008913
226,2,0.8,0.0625,-35.0,-1,1.0,0.3161999999999807
227,2,0.8,0.25,-35.0,-1,1.0,0.25120000000003984
228,2,0.8,0.25,35.0,1,1.0,0.2985999999999649
229,2,0.8,0.25,-35.0,-1,1.0,0.24460000000010496
230,2,0.8,0.25,-35.0,-1,1.0,0.26090099999998984
231,2,0.8,0.25,-35.0,-1,1.0,0.2544000000000324
232,2,0.8,0.0625,-35.0,-1,1.0,0.25670000000013715
233,2,0.8,1.0,-35.0,-1,1.0,0.25850000000014006
234,2,0.8,1.0,-35.0,-1,1.0,0.21860000000003765
235,2,0.8,1.0,-35.0,-1,1.0,0.21289999999999054
236,2,0.8,0.125,-35.0,-1,1.0,0.5066000000000486
237,2,0.8,0.0625,-35.0,-1,1.0,0.26040000000011787
238,2,0.8,0.25,-35.0,-1,1.0,0.22110000000009222
239,2,0.8,0.0625,-35.0,-1,1.0,0.5853000000000748
240,2,0.8,0.0625,-35.0,-1,1.0,0.49070000000006075
241,2,0.8,0.125,-35.0,-1,1.0,0.5914000000000215
242,2,0.8,0.25,-35.0,-1,1.0,0.33559999999988577
243,2,0.8,0.125,-35.0,-1,1.0,0.5358000000001084
244,2,0.8,0.0,35.0,-1,0.0,0.3269000000000233
245,2,0.8,0.25,35.0,1,1.0,0.18430000000000746
246,2,0.8,1.0,-35.0,-1,1.0,0.21900000000005093
247,2,0.8,0.0625,-35.0,1,0.0,0.20680000000004384
248,2,0.8,0.25,-35.0,-1,1.0,0.4592010000000073
249,2,0.8,0.125,35.0,1,1.0,0.23320000000001073
250,2,0.8,0.0,-35.0,1,0.0,0.6381999999999834
251,2,0.8,0.0625,-35.0,-1,1.0,0.27410100000008697
252,2,0.8,0.25,-35.0,-1,1.0,0.25240000000007967
253,2,0.8,0.125,35.0,1,1.0,0.22220000000004347
254,2,0.8,0.0625,-35.0,-1,1.0,0.41219999999998436
255,2,0.8,0.0625,-35.0,-1,1.0,0.4620000000001028
256,2,0.8,0.25,-35.0,-1,1.0,0.2516000000000531
257,2,0.8,0.0,-35.0,-1,1.0,0.4943000000000666
258,2,0.8,0.25,-35.0,-1,1.0,0.21609999999998308
259,2,0.8,1.0,-35.0,-1,1.0,0.24810000000013588
260,2,0.8,0.0625,-35.0,-1,1.0,0.24220000000002528
261,2,0.8,0.25,-35.0,-1,1.0,0.2980000000001155
262,2,0.8,0.25,-35.0,-1,1.0,0.23610099999996237
263,2,0.8,1.0,-35.0,-1,1.0,0.3573000000000093
264,2,0.8,0.0625,-35.0,-1,1.0,0.3205000000000382
265,2,0.8,0.125,-35.0,-1,1.0,0.27979999999990923
266,2,0.8,0.0,-35.0,-1,1.0,0.36790000000007694
267,2,0.8,1.0,-35.0,-1,1.0,0.23530000000005202
268,2,0.8,1.0,-35.0,-1,1.0,0.28300000000012915
269,2,0.8,0.125,35.0,1,1.0,0.5621999999999616
270,2,0.8,0.125,-35.0,-1,1.0,0.2946000000000595
271,2,0.8,0.0,-35.0,1,0.0,0.36310100000014245
272,2,0.8,0.0625,-35.0,1,0.0,0.21230100000002494
273,2,0.8,0.25,-35.0,-1,1.0,0.32560000000012224
274,2,0.8,0.125,-35.0,-1,1.0,0.24240100000008624
275,2,0.8,0.0,35.0,1,1.0,0.13710100000002967
276,2,0.8,0.25,-35.0,-1,1.0,0.2966000000000122
277,2,0.8,0.0625,-35.0,1,0.0,0.25880000000006476
278,2,0.8,1.0,-35.0,-1,1.0,0.25530000000003383
279,2,0.8,0.25,-35.0,-1,1.0,0.24630000000013297
280,2,0.8,0.0625,-35.0,-1,1.0,0.4191010000000688
281,2,0.8,0.125,-35.0,-1,1.0,0.3245009999999411
282,2,0.8,0.25,-35.0,-1,1.0,0.27060000000005857
283,2,0.2,0.125,-35.0,-1,1.0,0.43640000000004875
284,2,0.2,0.0,35.0,-1,0.0,0.5957000000000789
285,2,0.2,0.0625,35.0,1,1.0,0.18669999999997344
286,2,0.2,1.0,35.0,1,1.0,0.24850000000014916
287,2,0.2,0.0,35.0,-1,0.0,0.2317000000000462
288,2,0.2,0.125,35.0,1,1.0,0.19110000000000582
289,2,0.2,0.0625,-35.0,-1,1.0,0.3102000000000089
290,2,0.2,0.0625,35.0,1,1.0,0.336400000000026
291,2,0.2,0.0625,35.0,1,1.0,0.46460000000001855
292,2,0.2,1.0,-35.0,-1,1.0,0.3518010000000231
293,2,0.2,0.25,-35.0,-1,1.0,0.4487010000000282
294,2,0.2,0.25,35.0,1,1.0,0.24670000000014625
295,2,0.2,0.25,35.0,1,1.0,0.16170000000010987
296,2,0.2,0.0625,35.0,1,1.0,0.17619999999999436
297,2,0.2,0.0,35.0,1,1.0,0.22060100000010152
298,2,0.2,0.125,-35.0,-1,1.0,0.32360000000005584
299,2,0.2,0.0,35.0,1,1.0,0.5173000000000911
300,2,0.2,0.125,35.0,1,1.0,0.603800000000092
301,2,0.2,0.0,35.0,1,1.0,0.22890000000006694
302,2,0.2,1.0,-35.0,-1,1.0,0.25119999999992615
303,2,0.2,0.25,35.0,1,1.0,0.4793000000000802
304,2,0.2,1.0,35.0,1,1.0,0.1523010000000795
305,2,0.2,1.0,35.0,1,1.0,0.2237999999999829
306,2,0.2,0.0625,35.0,1,1.0,0.20620100000007824
307,2,0.2,0.25,35.0,1,1.0,0.21370100000001457
308,2,0.2,1.0,35.0,1,1.0,0.19070000000010623
309,2,0.2,0.25,35.0,1,1.0,0.17420000000004165
310,2,0.2,0.125,-35.0,-1,1.0,0.33760000000006585
311,2,0.2,0.25,35.0,1,1.0,0.3713000000000193
312,2,0.2,0.0625,35.0,1,1.0,0.21370000000013079
313,2,0.2,1.0,35.0,1,1.0,0.2375000000000682
314,2,0.2,1.0,35.0,1,1.0,0.8428000000000111
315,2,0.2,0.125,35.0,1,1.0,0.18790000000001328
316,2,0.2,0.125,35.0,1,1.0,0.19299999999998363
317,2,0.2,1.0,35.0,1,1.0,0.1530999999999949
318,2,0.2,0.125,35.0,1,1.0,0.2458000000000311
319,2,0.2,0.125,-35.0,-1,1.0,0.39210000000002765
320,2,0.2,0.0625,35.0,1,1.0,0.3106000000000222
321,2,0.2,0.0,35.0,-1,0.0,1.3531000000000404
322,2,0.2,0.0625,35.0,1,1.0,0.6023999999999887
323,2,0.2,0.25,35.0,1,1.0,0.19920000000001892
324,2,0.2,0.25,-35.0,-1,1.0,0.24250000000006366
325,2,0.2,0.0,35.0,1,1.0,0.20260000000007494
326,2,0.2,0.0625,-35.0,-1,1.0,0.3027000000000726
327,2,0.2,0.25,35.0,1,1.0,0.2194000000000642
328,2,0.2,0.25,35.0,1,1.0,0.20269999999993615
329,2,0.2,0.0,35.0,1,1.0,0.2562999999997828
330,2,0.2,0.125,35.0,1,1.0,0.1694999999999709
331,2,0.2,0.0,35.0,1,1.0,0.22289999999998145
332,2,0.2,0.25,35.0,1,1.0,0.24309999999991305
333,2,0.2,0.25,35.0,1,1.0,0.20650000000000546
334,2,0.2,0.25,35.0,1,1.0,0.21309999999994034
335,2,0.2,0.0,35.0,1,1.0,0.3731999999997697
336,2,0.2,0.125,35.0,1,1.0,0.3632999999999811
337,2,0.2,0.25,35.0,1,1.0,0.21670099999982995
338,2,0.2,0.125,35.0,1,1.0,0.2135000000000673
339,2,0.2,0.125,35.0,1,1.0,0.1935000000000855
340,2,0.2,1.0,35.0,1,1.0,0.19729999999981374
341,2,0.2,0.0625,35.0,1,1.0,0.1736999999998261
342,2,0.2,0.125,35.0,1,1.0,0.2806000000000495
343,2,0.2,0.0,35.0,1,1.0,0.2540009999997892
344,2,0.2,1.0,35.0,1,1.0,0.18049999999993815
345,2,0.2,0.0625,35.0,1,1.0,0.36069999999972424
346,2,0.2,0.0,35.0,1,1.0,0.8174009999997907
347,2,0.2,0.125,35.0,1,1.0,0.2907000000000153
348,2,0.2,0.125,-35.0,1,0.0,-0.0658000000003085
349,2,0.2,0.125,35.0,1,1.0,0.1675999999999931
350,2,0.2,0.0,35.0,1,1.0,0.4643009999997503
351,2,0.2,0.0625,-35.0,-1,1.0,0.5609999999999218
352,2,0.2,0.0625,35.0,1,1.0,0.27110000000016043
353,2,0.2,0.125,35.0,1,1.0,0.28109999999992397
354,2,0.2,0.0625,-35.0,-1,1.0,0.32799999999997453
355,2,0.2,0.25,35.0,1,1.0,0.3512000000000626
356,2,0.2,0.25,35.0,1,1.0,0.2381000000000313
357,2,0.2,0.0,35.0,-1,0.0,3.0247009999998227
358,2,0.2,0.0,35.0,-1,0.0,0.03809999999998581
359,2,0.8,0.125,-35.0,-1,1.0,0.27490099999977247
360,2,0.8,0.125,-35.0,-1,1.0,0.26159999999981665
361,2,0.8,0.25,-35.0,-1,1.0,0.25169999999980064
362,2,0.8,0.25,-35.0,-1,1.0,0.2051010000000133
363,2,0.8,0.0,35.0,-1,0.0,3.0384010000000217
364,2,0.8,0.125,-35.0,-1,1.0,0.3951999999999316
365,2,0.8,0.25,-35.0,-1,1.0,0.35859999999979664
366,2,0.8,0.0625,-35.0,-1,1.0,2.4720000000002074
367,2,0.8,0.125,-35.0,-1,1.0,0.2722009999999955
368,2,0.8,1.0,-35.0,-1,1.0,0.48899999999980537
369,2,0.8,1.0,-35.0,-1,1.0,0.24899999999979627
370,2,0.8,0.25,-35.0,-1,1.0,0.2623999999998432
371,2,0.8,0.0625,-35.0,-1,1.0,0.34259999999972024
372,2,0.8,0.0625,-35.0,-1,1.0,2.1959009999998216
373,2,0.8,1.0,-35.0,-1,1.0,0.2726999999999862
374,2,0.8,1.0,-35.0,-1,1.0,0.32600000000002183
375,2,0.8,0.25,-35.0,-1,1.0,0.33600000000001273
376,2,0.8,0.0625,-35.0,-1,1.0,0.47939999999994143
377,2,0.8,0.25,-35.0,-1,1.0,0.2662999999997737
378,2,0.8,0.0,35.0,1,1.0,0.9595999999999094
379,2,0.8,0.125,-35.0,-1,1.0,0.3529999999998381
380,2,0.8,0.125,-35.0,-1,1.0,0.35639999999966676
381,2,0.8,0.0,35.0,-1,0.0,0.3630999999998039
382,2,0.8,0.0,35.0,-1,0.0,0.25989999999978863
383,2,0.8,1.0,-35.0,-1,1.0,0.20990000000006148
384,2,0.2,0.125,-35.0,1,0.0,0.13670000000001892
385,2,0.2,0.0,35.0,1,1.0,0.5899999999999181
386,2,0.2,0.0625,35.0,1,1.0,0.7235000000000582
387,2,0.2,0.0625,35.0,1,1.0,0.22690000000011423
388,2,0.2,1.0,35.0,1,1.0,0.23019999999996799
389,2,0.2,0.0625,35.0,1,1.0,0.49690099999975246
390,2,0.2,0.0,35.0,-1,0.0,0.23700099999996382
391,2,0.2,0.0,-35.0,1,0.0,0.47710000000006403
392,2,0.2,0.0625,35.0,1,1.0,1.0536999999999352
393,2,0.2,0.125,35.0,1,1.0,0.2538999999999305
394,2,0.2,0.0625,35.0,1,1.0,0.26720000000000255
395,2,0.2,0.0,35.0,-1,0.0,2.577301000000034
396,2,0.2,0.125,35.0,1,1.0,0.23760100000004059
397,2,0.2,0.125,35.0,1,1.0,0.20749999999975444
398,2,0.2,0.0,35.0,-1,0.0,3.5042000000000826
399,2,0.2,0.125,35.0,-1,0.0,0.23099999999999454
400,2,0.2,1.0,35.0,1,1.0,0.24769999999989523
401,2,0.2,0.25,35.0,1,1.0,0.14779999999996107
402,2,0.2,0.25,35.0,1,1.0,0.18450000000007094
403,2,0.2,0.0625,35.0,1,1.0,0.35789999999997235
404,2,0.2,1.0,-35.0,-1,1.0,0.24459999999999127
405,2,0.2,1.0,-35.0,-1,1.0,0.2514000000001033
406,2,0.2,0.125,35.0,1,1.0,0.3246999999998934
407,2,0.2,0.0625,-35.0,-1,1.0,0.3548999999998159
408,2,0.2,0.0625,35.0,1,1.0,0.4314999999999145
409,2,0.2,0.125,35.0,1,1.0,0.45820000000003347
410,2,0.2,1.0,35.0,1,1.0,0.6082999999998719
411,2,0.2,0.25,35.0,1,1.0,0.4716999999998279
412,2,0.2,0.125,35.0,1,1.0,0.30169999999998254
413,2,0.8,0.25,-35.0,-1,1.0,0.29510000000004766
414,2,0.8,0.0,-35.0,1,0.0,0.8586009999999078
415,2,0.8,1.0,-35.0,-1,1.0,0.20849999999995816
416,2,0.8,0.25,-35.0,-1,1.0,0.6386010000001079
417,2,0.8,1.0,-35.0,-1,1.0,0.265400000000227
418,2,0.8,0.0,-35.0,-1,1.0,3.6487010000000737
419,2,0.8,0.0625,-35.0,-1,1.0,0.2421999999999116
420,2,0.8,1.0,35.0,1,1.0,0.1955000000000382
421,2,0.8,0.0625,-35.0,-1,1.0,0.23890099999994163
422,2,0.8,1.0,-35.0,-1,1.0,0.362400000000207
423,2,0.8,1.0,-35.0,-1,1.0,0.23910000000000764
424,2,0.8,0.0,-35.0,-1,1.0,1.1758999999997286
425,2,0.8,1.0,-35.0,-1,1.0,0.2259999999998854
426,2,0.8,0.25,-35.0,-1,1.0,0.3893000000000484
427,2,0.8,1.0,-35.0,-1,1.0,0.22939999999994143
428,2,0.8,0.25,-35.0,-1,1.0,0.2661999999997988
429,2,0.8,0.0,-35.0,1,0.0,0.23289999999997235
430,2,0.8,1.0,-35.0,-1,1.0,0.2096000000001368
431,2,0.8,1.0,-35.0,-1,1.0,0.23959999999988213
432,2,0.8,0.0,-35.0,-1,1.0,0.4630009999998492
433,2,0.8,0.0625,-35.0,-1,1.0,0.2964009999998325
434,2,0.8,0.25,35.0,1,1.0,0.643100000000004
435,2,0.8,1.0,35.0,1,1.0,0.259900000000016
436,2,0.8,0.125,-35.0,-1,1.0,0.3032999999998083
437,2,0.8,0.0625,-35.0,-1,1.0,0.3132999999997992
438,2,0.8,0.125,-35.0,-1,1.0,0.2533000000000811
439,2,0.8,0.0,-35.0,-1,1.0,0.29369999999994434
440,2,0.8,0.125,-35.0,-1,1.0,0.4634009999999762
441,2,0.8,0.125,-35.0,-1,1.0,0.3569999999997435
442,2,0.8,0.0625,35.0,-1,0.0,0.27359999999998763
443,2,0.8,1.0,-35.0,-1,1.0,0.3204000000000633
444,2,0.8,0.0625,-35.0,-1,1.0,0.3269999999999982
445,2,0.8,0.125,-35.0,-1,1.0,0.600400000000036
446,2,0.8,0.0,-35.0,1,0.0,0.3470999999999549
447,2,0.8,0.125,35.0,-1,0.0,0.2541009999997641
448,2,0.8,0.125,-35.0,-1,1.0,0.20729999999980464
449,2,0.8,0.0625,-35.0,-1,1.0,0.31389999999987594
450,2,0.8,0.125,35.0,-1,0.0,0.5406999999997879
451,2,0.8,0.25,-35.0,-1,1.0,0.25739999999973406
452,2,0.8,0.25,35.0,1,1.0,0.2241999999998825
453,2,0.8,0.0625,-35.0,-1,1.0,2.1375000000000455
454,2,0.8,0.0625,-35.0,-1,1.0,4.010999999999967
455,2,0.8,0.25,-35.0,-1,1.0,0.32780000000002474
456,2,0.8,0.25,-35.0,-1,1.0,0.3511999999998352
457,2,0.8,1.0,35.0,1,1.0,0.3345999999999094
458,2,0.2,1.0,35.0,1,1.0,0.3145999999999276
459,2,0.2,1.0,-35.0,-1,1.0,0.28460000000018226
460,2,0.2,0.25,35.0,1,1.0,0.3313999999998032
461,2,0.2,0.125,35.0,1,1.0,0.2880999999999858
462,2,0.2,0.25,35.0,1,1.0,0.25500000000010914
463,2,0.2,0.0625,35.0,1,1.0,0.3815999999999349
464,2,0.2,1.0,35.0,1,1.0,0.17499999999995453
465,2,0.2,0.0625,35.0,1,1.0,0.21499999999991815
466,2,0.2,0.0,35.0,1,1.0,0.358400999999958
467,2,0.2,0.25,-35.0,-1,1.0,0.2783999999999196
468,2,0.2,1.0,35.0,1,1.0,0.23849999999993088
469,2,0.2,1.0,35.0,1,1.0,0.21210099999984777
470,2,0.2,0.25,35.0,1,1.0,0.565199999999777
471,2,0.2,0.25,35.0,1,1.0,0.3653009999998176
472,2,0.2,0.0625,35.0,1,1.0,0.308699999999817
473,2,0.2,1.0,35.0,1,1.0,0.21199999999998909
474,2,0.2,0.25,35.0,1,1.0,0.3187999999997828
475,2,0.2,1.0,35.0,1,1.0,0.07570099999998092
476,2,0.2,0.125,35.0,1,1.0,0.71550000000002
477,2,0.2,0.125,35.0,1,1.0,0.47900000000004184
478,2,0.2,0.25,35.0,1,1.0,0.5823999999997795
479,2,0.2,0.125,35.0,1,1.0,1.6925000000001091
480,2,0.2,1.0,35.0,1,1.0,0.2924000000000433
481,2,0.2,1.0,35.0,1,1.0,0.27920099999982995
482,2,0.2,0.125,35.0,-1,0.0,4.352499999999964
483,2,0.2,1.0,35.0,1,1.0,0.3361009999998714
484,2,0.2,0.25,-35.0,-1,1.0,0.33600000000001273
485,2,0.2,0.0625,35.0,-1,0.0,4.362799999999879
486,2,0.2,0.25,35.0,1,1.0,0.6529000000000451
487,2,0.2,0.0625,-35.0,-1,1.0,0.2863999999999578
488,2,0.2,1.0,35.0,1,1.0,0.44650000000001455
489,2,0.2,0.0,-35.0,-1,1.0,3.839799999999741
490,2,0.2,0.125,35.0,1,1.0,0.34989999999993415
491,2,0.2,0.25,35.0,1,1.0,1.3065000000001419
492,2,0.2,0.0625,35.0,-1,0.0,0.5698999999999614
493,2,0.2,0.125,35.0,-1,0.0,0.24350000000004002
494,2,0.2,0.0625,35.0,-1,0.0,0.08009999999990214
495,2,0.2,0.125,-35.0,-1,1.0,0.223500999999942
496,2,0.2,0.125,35.0,1,1.0,0.43029999999998836
497,2,0.2,1.0,35.0,1,1.0,0.22699999999986176
498,2,0.2,0.125,-35.0,-1,1.0,0.3169999999997799
499,2,0.2,0.125,-35.0,-1,1.0,0.4537000000000262
500,2,0.2,0.25,-35.0,-1,1.0,0.2603999999998905
501,2,0.2,0.125,-35.0,-1,1.0,0.46720099999970444
502,2,0.2,0.125,35.0,1,1.0,0.08719999999993888
503,2,0.2,0.0,35.0,-1,0.0,0.38390000000003965
504,2,0.2,0.25,35.0,1,1.0,0.5639999999998508
505,2,0.2,1.0,35.0,1,1.0,0.18420000000014625
506,2,0.2,0.0,35.0,-1,0.0,4.654099999999971
507,2,0.2,0.125,35.0,1,1.0,0.3143000000000029
508,2,0.8,0.0625,-35.0,-1,1.0,0.48440000000005057
509,2,0.8,0.0,-35.0,-1,1.0,1.6211000000000695
510,2,0.8,0.25,-35.0,-1,1.0,0.23460000000000036
511,2,0.8,1.0,-35.0,-1,1.0,0.23119999999994434
512,2,0.8,0.0,-35.0,-1,1.0,4.6612999999997555
513,2,0.8,0.25,-35.0,-1,1.0,0.351399999999785
514,2,0.8,1.0,-35.0,-1,1.0,0.24799999999981992
515,2,0.8,0.25,35.0,1,1.0,0.9648999999999432
516,2,0.8,0.25,35.0,1,1.0,0.2481999999999971
517,2,0.8,1.0,-35.0,-1,1.0,0.5381999999999607
518,2,0.8,0.0625,35.0,1,1.0,0.3149999999998272
519,2,0.8,1.0,-35.0,-1,1.0,0.2883999999999105
520,2,0.8,0.25,-35.0,-1,1.0,5.511799999999766
521,2,0.8,0.125,-35.0,-1,1.0,0.23519999999984975
522,2,0.8,0.25,-35.0,-1,1.0,0.2518999999999778
523,2,0.8,0.25,35.0,1,1.0,0.4886999999998807
524,2,0.8,0.0625,-35.0,-1,1.0,3.408700000000181
525,2,0.8,0.0,-35.0,-1,1.0,0.12879999999995562
526,2,0.8,1.0,35.0,1,1.0,0.20890099999974154
527,2,0.8,0.125,35.0,1,1.0,0.41229999999995925
528,2,0.8,0.0625,-35.0,-1,1.0,0.4356999999999971
529,2,0.8,0.0625,-35.0,-1,1.0,4.789000000000215
530,2,0.8,0.25,-35.0,-1,1.0,0.23920099999986633
531,2,0.8,0.125,35.0,-1,0.0,0.45600000000013097
532,2,0.8,0.25,-35.0,-1,1.0,0.20929999999998472
533,2,0.8,0.25,35.0,1,1.0,0.3626999999999043
534,2,0.8,1.0,-35.0,-1,1.0,5.87279999999987
535,2,0.8,0.0625,-35.0,-1,1.0,0.359599999999773
536,2,0.8,0.0625,-35.0,-1,1.0,0.5362999999999829
537,2,0.8,0.0,-35.0,-1,1.0,0.29310099999997874
538,2,0.8,0.0,35.0,-1,0.0,0.5498000000000047
539,2,0.8,0.25,-35.0,-1,1.0,3.5364999999999327
540,2,0.8,0.0,-35.0,-1,1.0,0.2700009999998656
541,2,0.8,0.125,-35.0,-1,1.0,0.26670100000001185
542,2,0.8,0.25,35.0,1,1.0,0.32359999999994216
543,2,0.8,1.0,35.0,1,1.0,0.2801010000000588
544,2,0.8,0.25,-35.0,-1,1.0,0.2702999999999065
545,2,0.8,0.0625,35.0,-1,0.0,0.28369999999995343
546,2,0.8,0.25,-35.0,-1,1.0,0.2902999999998883
547,2,0.8,1.0,-35.0,-1,1.0,0.21690100000000712
548,2,0.8,0.0625,-35.0,-1,1.0,4.607099999999946
549,2,0.8,0.25,-35.0,-1,1.0,0.23719999999980246
550,2,0.8,0.125,-35.0,-1,1.0,0.3071999999997388
551,2,0.8,0.125,-35.0,-1,1.0,0.3671999999999116
552,2,0.8,1.0,-35.0,-1,1.0,0.19389999999998508
553,2,0.8,1.0,-35.0,-1,1.0,0.24739999999997053
554,2,0.8,1.0,-35.0,-1,1.0,0.30729999999994106
555,2,0.8,0.0,35.0,-1,0.0,0.3740010000001348
556,2,0.8,0.0,-35.0,-1,1.0,0.23409999999967113
557,2,0.8,0.125,-35.0,-1,1.0,2.4142000000001644
558,2,0.8,1.0,35.0,1,1.0,1.0510000000001583
559,2,0.8,0.25,35.0,1,1.0,0.3245010000000548
560,2,0.8,0.25,-35.0,-1,1.0,6.464300000000094
561,2,0.8,0.0,-35.0,-1,1.0,1.2679000000000542
562,2,0.8,1.0,-35.0,-1,1.0,0.28139999999984866
563,2,0.8,1.0,-35.0,-1,1.0,0.2213000000001557
564,2,0.8,0.25,-35.0,-1,1.0,0.1915000000001328
565,2,0.8,0.0625,-35.0,-1,1.0,3.5848000000000866
566,2,0.8,0.25,35.0,1,1.0,0.8147999999998774
567,2,0.8,1.0,35.0,1,1.0,0.36159999999995307
568,2,0.8,0.125,-35.0,-1,1.0,3.0782999999998992
569,2,0.8,0.0625,-35.0,-1,1.0,0.34169999999994616
570,2,0.8,0.125,-35.0,-1,1.0,0.26510000000007494
571,2,0.8,0.0,-35.0,-1,1.0,0.33520100000009734
572,2,0.8,1.0,-35.0,-1,1.0,0.051901000000043496
573,2,0.8,0.0,-35.0,-1,1.0,5.205202000000099
574,2,0.8,0.25,-35.0,-1,1.0,0.2420009999998456
575,2,0.8,0.125,-35.0,-1,1.0,3.6820009999999
576,2,0.8,0.0,-35.0,-1,1.0,0.2722009999999955
577,2,0.8,0.25,-35.0,-1,1.0,0.2756019999999353
578,2,0.8,0.0625,-35.0,-1,1.0,3.1223009999998794
579,2,0.8,0.125,-35.0,-1,1.0,0.2657019999999193
580,2,0.8,1.0,-35.0,-1,1.0,0.3258019999998396
581,2,0.8,0.0,-35.0,-1,1.0,3.512400999999727
582,2,0.8,1.0,35.0,1,1.0,0.9626009999999496
583,2,0.8,0.0625,-35.0,-1,1.0,0.31280100000003586
584,2,0.8,0.25,-35.0,-1,1.0,0.25270199999977194
585,2,0.8,0.0,-35.0,-1,1.0,0.3761010000000624
586,2,0.8,1.0,-35.0,-1,1.0,0.2562009999999191
587,2,0.8,0.125,-35.0,-1,1.0,0.2731019999998807
588,2,0.8,0.25,-35.0,-1,1.0,0.32290100000000166
589,2,0.8,0.125,35.0,-1,0.0,0.50640199999998
590,2,0.8,1.0,35.0,1,1.0,0.2797009999999318
591,2,0.8,0.0625,-35.0,-1,1.0,0.2397009999999682
592,2,0.8,0.25,-35.0,-1,1.0,0.2898009999998976
593,2,0.8,0.125,-35.0,-1,1.0,0.4132009999998445
594,2,0.8,0.25,-35.0,-1,1.0,0.25650199999972756
595,2,0.2,0.25,35.0,1,1.0,0.5699009999998452
596,2,0.2,1.0,-35.0,-1,1.0,0.2499009999999089
597,2,0.2,1.0,35.0,1,1.0,0.9534009999999853
598,2,0.2,0.125,35.0,-1,0.0,0.30340099999989434
599,2,0.2,0.25,35.0,-1,0.0,0.9235009999997601
600,2,0.2,0.0,35.0,-1,0.0,0.2803009999997812
601,2,0.2,0.125,35.0,-1,0.0,7.330300999999963
602,2,0.2,0.0625,35.0,-1,0.0,2.3639009999999416
603,2,0.2,0.125,35.0,1,1.0,0.46060099999976956
604,2,0.2,1.0,-35.0,-1,1.0,0.24070099999994454
605,2,0.2,0.25,35.0,1,1.0,0.4174009999999271
606,2,0.2,0.25,35.0,1,1.0,0.8741009999998823
607,2,0.2,0.25,35.0,1,1.0,0.3176009999999678
608,2,0.2,0.125,35.0,-1,0.0,6.104301000000078
609,2,0.2,0.125,-35.0,-1,1.0,0.4145020000000841
610,2,0.2,0.125,35.0,-1,0.0,6.907800999999836
611,2,0.2,0.25,35.0,1,1.0,1.0846010000000206
612,2,0.2,1.0,35.0,1,1.0,0.22800099999994927
613,2,0.2,1.0,35.0,1,1.0,0.3180009999998674
614,2,0.2,0.25,35.0,-1,0.0,13.01810099999966
615,2,0.2,0.25,-35.0,-1,1.0,0.2484020000001692
616,2,0.2,0.0,35.0,-1,0.0,5.5451009999999314
617,2,0.2,0.0625,35.0,-1,0.0,0.6586010000000897
618,2,0.2,0.25,35.0,-1,0.0,1.3021009999999933
619,2,0.2,0.0625,35.0,-1,0.0,0.3488009999998667
620,2,0.2,0.25,35.0,-1,0.0,7.1256009999999605
621,2,0.2,0.0625,35.0,-1,0.0,27.67240099999981
622,2,0.2,0.0625,35.0,-1,0.0,0.4331009999998514
623,2,0.2,0.0,-35.0,-1,1.0,0.23640100000011444
624,2,0.2,0.0625,35.0,-1,0.0,0.2731010000002243
625,2,0.2,0.125,35.0,-1,0.0,0.22640099999989616
626,2,0.2,0.0625,35.0,-1,0.0,0.23330099999975573
627,2,0.2,0.125,-35.0,-1,1.0,0.3633010000003196
628,2,0.2,0.25,35.0,1,1.0,0.3200010000000475
629,2,0.2,0.125,35.0,1,1.0,0.44020099999988815
630,2,0.2,0.25,35.0,1,1.0,0.2934010000003582
631,2,0.2,0.0625,35.0,1,1.0,0.6036010000002534
632,2,0.2,0.0625,35.0,-1,0.0,1.6868009999998321
633,2,0.2,1.0,35.0,1,1.0,0.26040100000000166
634,2,0.2,0.0625,35.0,-1,0.0,4.6437009999999646
635,2,0.2,0.25,35.0,1,1.0,0.46400100000028033
636,2,0.2,0.0625,35.0,-1,0.0,5.620502000000215
637,2,0.2,0.0625,-35.0,-1,1.0,0.6174019999998563
638,2,0.2,0.0625,35.0,-1,0.0,0.22750200000018594
639,2,0.2,1.0,35.0,1,1.0,0.2709010000003218
640,2,0.2,1.0,35.0,1,1.0,0.26090100000055827
641,2,0.2,1.0,35.0,1,1.0,0.26430100000015955
642,2,0.2,1.0,35.0,1,1.0,0.9510009999999056
643,2,0.2,0.0625,35.0,1,1.0,0.5410010000000511
644,2,0.2,0.25,35.0,1,1.0,0.32440100000030725
645,2,0.2,0.0,35.0,-1,0.0,5.017701000000216
646,2,0.2,0.25,-35.0,-1,1.0,0.24800200000026962
647,2,0.2,0.25,35.0,1,1.0,0.29800100000056773
648,2,0.2,0.125,35.0,1,1.0,0.7982010000005175
649,2,0.2,0.0,35.0,-1,0.0,3.5548009999997703
650,2,0.2,0.0625,35.0,1,1.0,0.47820099999989907
651,2,0.2,0.125,35.0,1,1.0,0.32490099999995437
652,2,0.2,0.0625,35.0,1,1.0,0.44170100000019374
653,2,0.2,0.125,35.0,1,1.0,0.4051009999998314
654,2,0.2,0.0625,35.0,-1,0.0,5.275000999999975
655,2,0.2,1.0,35.0,1,1.0,0.38520199999993565
656,2,0.2,0.25,-35.0,-1,1.0,0.30860100000018065
657,2,0.2,1.0,35.0,1,1.0,0.32540100000005623
658,2,0.2,1.0,-35.0,-1,1.0,0.24220100000002276
659,2,0.2,1.0,35.0,1,1.0,0.24210100000027523
660,2,0.2,0.0625,35.0,1,1.0,0.5189009999999143
661,2,0.2,0.0625,35.0,-1,0.0,0.3789010000000417
662,2,0.2,0.25,35.0,1,1.0,0.325601000000006
663,2,0.2,0.25,35.0,1,1.0,0.3057010000002265
664,2,0.2,0.0625,-35.0,1,0.0,0.6856010000001334
665,2,0.2,1.0,-35.0,-1,1.0,0.23240099999975428
666,2,0.2,0.0,35.0,-1,0.0,6.039101000000301
667,2,0.2,0.125,35.0,1,1.0,0.28590200000007826
668,2,0.2,0.125,35.0,-1,0.0,1.5094010000002527
669,2,0.2,0.0625,35.0,1,1.0,0.7694010000000162
670,2,0.2,0.25,35.0,1,1.0,0.3728009999999813
671,2,0.2,0.0625,35.0,1,1.0,0.2730010000004768
672,2,0.2,1.0,35.0,1,1.0,0.3896010000003116
673,2,0.2,1.0,-35.0,1,0.0,0.3596010000001115
674,2,0.2,0.125,-35.0,-1,1.0,6.943001999999979
675,2,0.2,0.25,-35.0,-1,1.0,0.21000099999992017
676,2,0.2,0.0,35.0,-1,0.0,5.836602000000312
677,2,0.2,0.0,35.0,-1,0.0,0.4367010000000846
678,2,0.2,1.0,35.0,1,1.0,0.25670099999979357
679,2,0.2,0.125,35.0,1,1.0,0.3602009999999609
680,2,0.2,0.125,35.0,1,1.0,0.38710100000025705
681,2,0.2,0.125,35.0,1,1.0,0.23690200000055484
682,2,0.2,0.125,-35.0,-1,1.0,4.6805020000001605
683,2,0.2,0.125,-35.0,-1,1.0,0.32070100000009916
684,2,0.2,0.25,-35.0,-1,1.0,0.2272010000001501
685,2,0.2,1.0,-35.0,-1,1.0,0.25720099999989543
686,2,0.2,0.125,35.0,1,1.0,0.28410200000007535
687,2,0.2,0.0625,35.0,1,1.0,0.27720099999987724
688,2,0.2,0.0625,35.0,1,1.0,0.5073010000000977
689,2,0.2,1.0,35.0,1,1.0,0.22760100000050443
690,2,0.2,0.0,-35.0,1,0.0,0.504001000000244
691,2,0.2,1.0,35.0,1,1.0,0.29430100000035964
692,2,0.2,0.125,-35.0,-1,1.0,0.34090100000003076
693,2,0.2,1.0,35.0,1,1.0,0.2075009999998656
694,2,0.8,1.0,-35.0,-1,1.0,0.2376009999998132
695,2,0.8,0.125,-35.0,-1,1.0,5.521001000000069
696,2,0.8,0.125,-35.0,-1,1.0,0.2411019999999553
697,2,0.8,0.0,-35.0,-1,1.0,2.4745010000001457
698,2,0.8,0.125,-35.0,-1,1.0,1.7146020000000135
699,2,0.8,1.0,-35.0,-1,1.0,0.23130100000025777
700,2,0.8,0.25,-35.0,-1,1.0,0.21810099999993326
701,2,0.8,0.0625,35.0,-1,0.0,0.3781010000002425
702,2,0.8,0.125,-35.0,-1,1.0,0.2448010000002796
703,2,0.8,0.0625,-35.0,-1,1.0,0.27150100000062594
704,2,0.8,0.125,-35.0,-1,1.0,5.094801000000189
705,2,0.8,1.0,-35.0,-1,1.0,0.25500099999999293
706,2,0.8,0.0625,-35.0,-1,1.0,0.23840100000006714
707,2,0.8,0.25,-35.0,-1,1.0,0.23180100000035964
708,2,0.8,0.125,-35.0,-1,1.0,0.31850100000019665
709,2,0.8,0.125,-35.0,-1,1.0,2.1952009999999973
710,2,0.8,1.0,35.0,1,1.0,0.2719010000000708
711,2,0.8,0.125,-35.0,-1,1.0,0.23540100000036546
712,2,0.8,0.0,-35.0,-1,1.0,1.905402000000322
713,2,0.8,0.125,-35.0,-1,1.0,0.25540100000034727
714,2,0.2,0.25,35.0,1,1.0,0.48540100000036546
715,2,0.2,0.125,35.0,-1,0.0,0.31550100000049497
716,2,0.2,1.0,35.0,1,1.0,0.30230100000017046
717,2,0.2,0.125,35.0,1,1.0,0.3356010000002243
718,2,0.2,0.0625,35.0,-1,0.0,5.179000999999971
719,2,0.2,0.0625,35.0,-1,0.0,6.735901000000013
720,2,0.2,1.0,35.0,1,1.0,0.23930100000052335
721,2,0.2,0.0625,35.0,-1,0.0,5.412800999999945
722,2,0.2,0.0,35.0,-1,0.0,0.37620100000049206
723,2,0.2,0.0625,35.0,-1,0.0,5.453201000000263
724,2,0.2,1.0,35.0,1,1.0,0.29320099999995364
725,2,0.2,0.125,-35.0,-1,1.0,0.26980200000025434
726,2,0.2,0.25,35.0,1,1.0,0.4265019999998003
727,2,0.2,0.25,35.0,1,1.0,0.2933010000001559
728,2,0.2,0.0625,35.0,1,1.0,0.7033020000003489
729,2,0.2,0.0,35.0,-1,0.0,6.4833010000002105
730,2,0.2,1.0,35.0,1,1.0,0.19690100000025268
731,2,0.2,0.0625,35.0,1,1.0,0.27020100000027014
732,2,0.2,0.25,-35.0,-1,1.0,0.26710200000025
733,2,0.2,0.0,-35.0,-1,1.0,5.543601000000308
734,2,0.8,0.25,-35.0,-1,1.0,0.24710099999992963
735,2,0.8,0.0,-35.0,-1,1.0,4.107101000000057
736,2,0.8,0.125,-35.0,-1,1.0,1.6840010000000802
737,2,0.8,0.125,-35.0,-1,1.0,0.32070100000009916
738,2,0.8,0.125,-35.0,-1,1.0,0.30080099999986487
739,2,0.8,1.0,35.0,1,1.0,0.23420200000009572
740,2,0.8,0.125,-35.0,-1,1.0,0.41420200000038676
741,2,0.8,0.25,35.0,1,1.0,0.34440100000028906
742,2,0.8,0.0625,-35.0,-1,1.0,5.304200999999921
743,2,0.8,0.125,-35.0,-1,1.0,2.494402000000264
744,2,0.8,0.125,-35.0,-1,1.0,2.261101999999937
745,2,0.8,0.25,-35.0,-1,1.0,6.35450100000071
746,2,0.8,0.0625,-35.0,-1,1.0,6.268000999999913
747,2,0.8,0.0,-35.0,-1,1.0,0.28820100000029925
748,2,0.8,0.25,-35.0,-1,1.0,0.2683010000005197
749,2,0.8,0.0625,-35.0,-1,1.0,0.5950010000001384
750,2,0.8,0.125,-35.0,-1,1.0,0.24840099999983067
751,2,0.8,0.125,35.0,1,1.0,0.44510100000024977
752,2,0.8,0.0625,-35.0,-1,1.0,0.34170100000073944
753,2,0.8,0.125,-35.0,-1,1.0,0.5386010000001988
754,2,0.8,0.25,35.0,1,1.0,0.27850100000023303
755,2,0.8,0.25,-35.0,-1,1.0,0.3219010000002527
756,2,0.8,0.0,-35.0,-1,1.0,4.3286010000001625
757,2,0.8,1.0,-35.0,-1,1.0,0.11550099999976737
758,2,0.8,0.125,-35.0,-1,1.0,0.28210100000023886
759,2,0.8,0.0625,35.0,1,1.0,0.3089010000003327
760,2,0.8,0.0625,35.0,-1,0.0,3.6222010000005866
761,2,0.8,0.0,-35.0,-1,1.0,0.32900100000006205
762,2,0.8,1.0,-35.0,-1,1.0,0.2224010000004455
763,2,0.8,0.25,-35.0,-1,1.0,0.30910099999982776
764,2,0.8,0.0625,-35.0,-1,1.0,0.36910100000022794
765,2,0.8,0.0625,-35.0,-1,1.0,0.3659010000001217
766,2,0.8,0.0625,-35.0,-1,1.0,0.2927010000003065
767,2,0.8,0.25,35.0,1,1.0,0.3193020000003344
768,2,0.8,1.0,-35.0,-1,1.0,0.27260100000012244
769,2,0.8,0.0625,-35.0,-1,1.0,2.8660009999998692
770,2,0.8,0.25,-35.0,-1,1.0,0.27610100000038074
771,2,0.8,1.0,35.0,1,1.0,0.8128010000000359
772,2,0.8,0.125,-35.0,-1,1.0,0.32290100000000166
773,2,0.8,0.125,-35.0,-1,1.0,0.3062009999998736
774,2,0.8,1.0,-35.0,-1,1.0,0.24960200000032273
775,2,0.8,1.0,-35.0,-1,1.0,0.19640100000015082
776,2,0.8,0.25,-35.0,-1,1.0,0.40310100000033344
777,2,0.8,0.125,-35.0,-1,1.0,5.106401000000005
778,2,0.8,0.25,-35.0,-1,1.0,0.5467010000002119
779,2,0.8,0.0,-35.0,-1,1.0,6.166701000000103
780,2,0.8,0.125,-35.0,-1,1.0,5.29010100000005
781,2,0.8,0.25,-35.0,-1,1.0,0.31030100000043603
782,2,0.8,0.25,-35.0,-1,1.0,0.2371010000001661
783,2,0.8,0.0,-35.0,-1,1.0,6.203701000000365
784,2,0.8,0.125,-35.0,-1,1.0,11.173901999999998
785,2,0.8,0.25,-35.0,-1,1.0,0.24750100000028397
786,2,0.8,1.0,-35.0,-1,1.0,0.2709010000003218
787,2,0.2,0.0,35.0,-1,0.0,0.27760099999977683
788,2,0.2,0.0,-35.0,-1,1.0,0.26750099999981103
789,2,0.2,0.25,35.0,1,1.0,0.35430100000030507
790,2,0.2,0.0625,35.0,1,1.0,3.4210010000001603
791,2,0.2,0.0625,-35.0,1,0.0,0.05790200000001278
792,2,0.2,0.0625,35.0,-1,0.0,7.098001000000295
793,2,0.2,0.0625,35.0,-1,0.0,4.921502000000601
794,2,0.2,0.25,35.0,1,1.0,0.30820200000016484
795,2,0.2,0.25,35.0,1,1.0,0.7783010000002832
796,2,0.2,0.0625,-35.0,-1,1.0,1.5383010000005015
797,2,0.2,1.0,35.0,1,1.0,0.20850100000052407
798,2,0.2,0.0,35.0,1,1.0,0.7551010000001952
799,2,0.2,0.0625,-35.0,1,0.0,4.1919010000001435
800,2,0.2,0.25,35.0,-1,0.0,0.42190100000016173
801,2,0.2,0.0625,35.0,-1,0.0,2.2487009999999827
802,2,0.2,0.125,35.0,-1,0.0,0.21550100000013117
803,2,0.2,0.25,35.0,1,1.0,0.24900099999968006
804,2,0.2,0.0625,-35.0,-1,1.0,8.342301000000134
805,2,0.2,0.0,35.0,-1,0.0,4.372501000000284
806,2,0.2,0.0625,35.0,-1,0.0,5.6260010000000875
807,2,0.2,1.0,35.0,1,1.0,0.29610200000024633
808,2,0.2,1.0,35.0,-1,0.0,0.5497010000003684
809,2,0.2,0.25,35.0,-1,0.0,0.39300200000025143
810,2,0.2,0.125,35.0,1,1.0,1.0532020000000557
811,2,0.2,0.0625,35.0,-1,0.0,20.21980100000019
812,2,0.2,0.125,35.0,-1,0.0,6.040200999999797
813,2,0.2,1.0,-35.0,-1,1.0,0.26060099999995145
814,2,0.2,0.125,35.0,-1,0.0,24.25390100000004
815,2,0.2,0.0625,35.0,-1,0.0,0.34110099999998056
816,2,0.2,0.0625,35.0,-1,0.0,3.9778010000004542
817,2,0.2,1.0,-35.0,-1,1.0,6.404601000000184
818,2,0.2,0.25,35.0,-1,0.0,4.008100999999897
819,2,0.2,0.0,35.0,-1,0.0,0.22820099999989907
820,2,0.2,0.0625,35.0,-1,0.0,7.95500200000015
821,2,0.2,0.25,35.0,1,1.0,0.515201000000161
822,2,0.2,0.0625,35.0,1,1.0,8.295202000000245
823,2,0.2,0.125,35.0,1,1.0,0.4754010000006019
824,2,0.2,0.0,35.0,1,1.0,1.7954010000003109
825,2,0.2,0.125,35.0,1,1.0,0.38890100000025996
826,2,0.2,0.25,35.0,1,1.0,0.4489010000002054
827,2,0.2,0.125,-35.0,-1,1.0,4.8023010000001705
828,2,0.2,1.0,35.0,1,1.0,0.1691009999999551
829,2,0.2,0.125,35.0,1,1.0,0.4292009999999209
830,2,0.8,0.125,-35.0,-1,1.0,4.942501000000448
831,2,0.8,0.125,-35.0,-1,1.0,0.37270100000023376
832,2,0.8,0.125,-35.0,-1,1.0,4.242800999999872
833,2,0.8,0.0625,-35.0,-1,1.0,3.059801000000789
834,2,0.8,0.0,35.0,-1,0.0,0.26620100000036473
835,2,0.8,0.0625,-35.0,-1,1.0,10.939701000000241
836,2,0.8,0.25,-35.0,-1,1.0,0.2500009999998838
837,2,0.8,0.125,35.0,1,1.0,0.29670100000021193
838,2,0.8,0.0625,-35.0,-1,1.0,2.216801000000032
839,2,0.8,1.0,35.0,1,1.0,0.47350100000039674
1,3,0.8,0.0625,-35.0,-1,1.0,0.5511999999999997
2,3,0.8,0.125,-35.0,-1,1.0,0.274
3,3,0.8,0.0625,35.0,1,1.0,0.2947009999999999
4,3,0.8,1.0,-35.0,-1,1.0,0.32209999999999894
5,3,0.8,0.125,-35.0,-1,1.0,0.33619999999999806
6,3,0.8,1.0,-35.0,-1,1.0,0.31489999999999974
7,3,0.8,0.0,-35.0,1,0.0,1.146801
8,3,0.8,0.0,-35.0,-1,1.0,0.2684010000000008
9,3,0.8,0.125,-35.0,-1,1.0,0.30070000000000263
10,3,0.8,0.0625,-35.0,-1,1.0,2.2890010000000025
11,3,0.8,0.125,35.0,1,1.0,0.2552999999999983
12,3,0.8,1.0,-35.0,-1,1.0,0.2353999999999985
13,3,0.8,0.125,-35.0,-1,1.0,0.4089000000000027
14,3,0.8,0.125,35.0,1,1.0,0.5383999999999958
15,3,0.8,0.0625,-35.0,1,0.0,0.27360000000000184
16,3,0.8,1.0,-35.0,-1,1.0,0.21589999999999776
17,3,0.8,1.0,-35.0,-1,1.0,0.2231999999999985
18,3,0.8,0.0625,35.0,-1,0.0,0.39630100000000823
19,3,0.8,0.0625,-35.0,1,0.0,0.2714999999999961
20,3,0.8,0.0625,-35.0,-1,1.0,0.22529999999999717
21,3,0.8,0.125,-35.0,-1,1.0,0.2868000000000066
22,3,0.8,0.25,-35.0,-1,1.0,0.23750099999999463
23,3,0.8,0.0,-35.0,-1,1.0,0.2837999999999994
24,3,0.8,0.25,-35.0,-1,1.0,0.22209999999999752
25,3,0.8,0.0625,-35.0,-1,1.0,1.461701000000005
26,3,0.8,1.0,35.0,1,1.0,0.2202000000000055
27,3,0.8,0.125,-35.0,-1,1.0,0.22470100000001025
28,3,0.8,0.0,-35.0,-1,1.0,0.24480000000001212
29,3,0.8,0.25,-35.0,-1,1.0,0.23269999999999413
30,3,0.8,0.125,-35.0,-1,1.0,0.22010099999999966
31,3,0.8,0.25,-35.0,-1,1.0,0.2347999999999928
32,3,0.8,0.0,-35.0,-1,1.0,0.16570100000001275
33,3,0.8,0.125,-35.0,-1,1.0,0.13069999999999027
34,3,0.8,0.0,35.0,-1,0.0,0.5817009999999954
35,3,0.8,0.0,-35.0,-1,1.0,0.25950000000000273
36,3,0.8,0.125,35.0,1,1.0,0.3060999999999865
37,3,0.2,0.25,-35.0,-1,1.0,0.3550999999999931
38,3,0.2,1.0,35.0,1,1.0,0.21429999999999438
39,3,0.2,1.0,-35.0,-1,1.0,0.30349999999999966
40,3,0.2,1.0,-35.0,-1,1.0,0.25679999999999836
41,3,0.2,0.0625,35.0,-1,0.0,2.983699999999999
42,3,0.2,0.0625,35.0,-1,0.0,2.3419999999999987
43,3,0.2,1.0,35.0,1,1.0,0.32630000000000337
44,3,0.2,0.125,35.0,1,1.0,0.2728010000000154
45,3,0.2,1.0,35.0,1,1.0,0.2866999999999962
46,3,0.2,1.0,35.0,1,1.0,0.13309999999998468
47,3,0.2,0.25,35.0,1,1.0,0.286200000000008
48,3,0.2,0.0625,35.0,1,1.0,0.2646000000000015
49,3,0.2,0.0625,-35.0,-1,1.0,0.6754999999999995
50,3,0.2,0.125,35.0,1,1.0,0.5956999999999937
51,3,0.2,0.25,-35.0,-1,1.0,0.9104010000000073
52,3,0.2,1.0,35.0,1,1.0,0.23490000000001032
53,3,0.2,0.125,35.0,1,1.0,0.2661009999999919
54,3,0.2,1.0,35.0,1,1.0,0.2185999999999808
55,3,0.2,0.25,35.0,1,1.0,0.28030100000000857
56,3,0.2,0.25,35.0,1,1.0,0.7742999999999824
57,3,0.2,0.0625,35.0,1,1.0,0.47869999999997503
58,3,0.2,0.0,35.0,-1,0.0,4.026800000000009
59,3,0.2,0.125,35.0,1,1.0,0.2495010000000093
60,3,0.2,0.0625,35.0,1,1.0,0.26490100000000893
61,3,0.2,0.125,35.0,1,1.0,0.507899999999978
62,3,0.2,0.125,35.0,1,1.0,0.23860099999998852
63,3,0.2,0.125,35.0,1,1.0,0.26080000000001746
64,3,0.2,0.125,35.0,1,1.0,0.2925999999999931
65,3,0.2,0.25,35.0,1,1.0,0.6135000000000161
66,3,0.2,1.0,35.0,1,1.0,0.2464999999999975
67,3,0.2,0.125,35.0,1,1.0,0.24430000000000973
68,3,0.2,0.25,35.0,1,1.0,0.22460000000000946
69,3,0.2,1.0,-35.0,-1,1.0,0.24910000000002697
70,3,0.2,0.125,35.0,1,1.0,0.3697999999999979
71,3,0.2,0.0625,35.0,1,1.0,0.2994000000000199
72,3,0.2,1.0,35.0,1,1.0,0.23580100000000925
73,3,0.2,1.0,-35.0,-1,1.0,0.32269999999999754
74,3,0.2,0.0,35.0,1,1.0,1.4455010000000073
75,3,0.2,1.0,35.0,1,1.0,0.18960000000001287
76,3,0.2,1.0,35.0,1,1.0,0.19490000000001828
77,3,0.2,0.125,35.0,1,1.0,0.3791010000000199
78,3,0.2,0.125,35.0,1,1.0,0.5438000000000045
79,3,0.8,1.0,35.0,1,1.0,0.19530000000000314
80,3,0.8,1.0,-35.0,-1,1.0,0.2537010000000066
81,3,0.8,0.125,-35.0,-1,1.0,0.3364999999999725
82,3,0.8,0.125,35.0,1,1.0,0.2540000000000191
83,3,0.8,0.125,-35.0,-1,1.0,0.4544999999999959
84,3,0.8,0.25,-35.0,-1,1.0,1.1972010000000068
85,3,0.8,0.125,-35.0,-1,1.0,0.643400000000014
86,3,0.8,0.0625,-35.0,-1,1.0,0.24559999999999604
87,3,0.8,1.0,-35.0,-1,1.0,0.20559999999997558
88,3,0.8,1.0,-35.0,-1,1.0,0.2810010000000034
89,3,0.8,0.25,35.0,1,1.0,0.2879000000000076
90,3,0.8,0.125,35.0,1,1.0,0.45420000000001437
91,3,0.8,0.0625,-35.0,-1,1.0,0.42560100000002876
92,3,0.8,0.125,35.0,1,1.0,0.455600000000004
93,3,0.8,0.125,-35.0,-1,1.0,0.48059999999998126
94,3,0.8,0.0,-35.0,1,0.0,0.9316000000000031
95,3,0.8,0.25,-35.0,-1,1.0,0.27490099999999984
96,3,0.8,0.0625,-35.0,-1,1.0,0.37740000000002283
97,3,0.8,0.25,-35.0,-1,1.0,0.31479999999993424
98,3,0.8,0.0625,-35.0,-1,1.0,0.36690000000004375
99,3,0.8,0.0,-35.0,-1,1.0,0.7924999999999613
100,3,0.8,0.0,-35.0,-1,1.0,0.5516999999999825
101,3,0.8,0.0625,-35.0,-1,1.0,0.3562010000000555
102,3,0.8,0.125,-35.0,-1,1.0,0.3225999999999658
103,3,0.8,0.125,-35.0,-1,1.0,0.2268999999999437
104,3,0.8,0.0625,-35.0,-1,1.0,2.52800000000002
105,3,0.8,1.0,-35.0,-1,1.0,0.3447999999999638
106,3,0.8,0.25,-35.0,-1,1.0,0.1735999999999649
107,3,0.8,0.0625,-35.0,-1,1.0,0.5604000000000156
108,3,0.8,0.125,-35.0,-1,1.0,0.3092009999999732
109,3,0.8,0.0625,-35.0,-1,1.0,0.34729999999996153
110,3,0.8,0.25,-35.0,-1,1.0,0.3199999999999932
111,3,0.8,0.25,35.0,1,1.0,0.3229000000000042
112,3,0.8,0.0625,-35.0,-1,1.0,4.047800999999993
113,3,0.8,0.125,-35.0,-1,1.0,0.4655999999999949
114,3,0.8,0.0,35.0,-1,0.0,3.1524
115,3,0.8,1.0,-35.0,-1,1.0,0.23790000000002465
116,3,0.8,0.0625,-35.0,-1,1.0,0.3540999999999599
117,3,0.8,0.25,-35.0,-1,1.0,0.4149009999999862
118,3,0.8,0.0625,-35.0,-1,1.0,2.072999999999979
119,3,0.8,1.0,-35.0,-1,1.0,0.07840099999998529
120,3,0.8,1.0,-35.0,-1,1.0,0.21880099999998492
121,3,0.8,0.0625,-35.0,-1,1.0,0.473700000000008
122,3,0.8,0.25,-35.0,-1,1.0,0.22199999999998
123,3,0.8,0.0625,-35.0,-1,1.0,2.5720000000000027
124,3,0.8,0.0,-35.0,-1,1.0,0.509900000000016
125,3,0.8,0.125,-35.0,-1,1.0,0.41760000000004993
126,3,0.8,1.0,-35.0,-1,1.0,0.24209999999999354
127,3,0.8,0.125,-35.0,-1,1.0,0.4067999999999756
128,3,0.8,0.0625,-35.0,-1,1.0,0.5505999999999744
129,3,0.8,0.125,-35.0,-1,1.0,0.34609999999997854
130,3,0.8,0.25,-35.0,-1,1.0,3.4943000000000097
131,3,0.8,0.25,-35.0,-1,1.0,0.23790099999996528
132,3,0.8,0.25,35.0,1,1.0,0.29400000000003956
133,3,0.8,0.0625,-35.0,-1,1.0,0.6340009999999552
134,3,0.8,0.25,-35.0,-1,1.0,0.08890000000002374
135,3,0.8,0.125,-35.0,-1,1.0,1.040300000000002
136,3,0.8,1.0,-35.0,-1,1.0,0.22440000000000282
137,3,0.8,0.125,-35.0,-1,1.0,0.30670000000003483
138,3,0.8,0.25,-35.0,-1,1.0,0.31409999999999627
139,3,0.8,1.0,-35.0,-1,1.0,0.22179999999997335
140,3,0.8,0.125,35.0,1,1.0,0.4368999999999801
141,3,0.8,0.125,-35.0,-1,1.0,3.4764000000000124
142,3,0.8,0.125,35.0,1,1.0,0.24760000000003402
143,3,0.8,0.25,-35.0,-1,1.0,0.29450000000002774
144,3,0.8,0.25,-35.0,-1,1.0,0.7260009999999397
145,3,0.8,0.25,-35.0,-1,1.0,3.0177999999999656
146,3,0.8,1.0,-35.0,-1,1.0,0.2495010000000093
147,3,0.8,0.25,-35.0,-1,1.0,3.2706000000000017
148,3,0.8,0.0625,-35.0,-1,1.0,0.34269999999997935
149,3,0.8,0.0,35.0,-1,0.0,1.2240000000000464
150,3,0.8,0.0,-35.0,-1,1.0,0.400600000000054
151,3,0.8,0.25,35.0,1,1.0,0.24639999999999418
152,3,0.8,0.25,-35.0,-1,1.0,0.3072999999999979
153,3,0.8,0.0625,-35.0,-1,1.0,2.5658999999999423
154,3,0.8,0.0625,-35.0,-1,1.0,0.42739999999997735
155,3,0.8,0.125,35.0,1,1.0,0.32260000000002265
156,3,0.8,1.0,-35.0,-1,1.0,0.309599999999989
157,3,0.8,0.25,-35.0,-1,1.0,0.2895000000000323
158,3,0.2,0.0,-35.0,-1,1.0,3.408200000000022
159,3,0.2,0.0625,-35.0,-1,1.0,0.3380999999999972
160,3,0.2,0.0625,35.0,1,1.0,0.5481000000000336
161,3,0.2,1.0,35.0,1,1.0,0.23230000000000928
162,3,0.2,0.125,35.0,1,1.0,0.4878999999999678
163,3,0.2,1.0,35.0,1,1.0,0.25509999999997035
164,3,0.2,0.25,35.0,1,1.0,0.6037000000000035
165,3,0.2,0.25,35.0,1,1.0,0.2732000000000312
166,3,0.2,0.0,35.0,1,1.0,0.48299999999994725
167,3,0.2,0.0625,35.0,1,1.0,0.46530000000001337
168,3,0.2,0.0,35.0,-1,0.0,0.36419999999998254
169,3,0.2,0.0625,35.0,-1,0.0,0.5341009999999642
170,3,0.2,0.125,35.0,1,1.0,0.436600999999996
171,3,0.2,0.0625,-35.0,-1,1.0,0.328899999999976
172,3,0.2,1.0,35.0,1,1.0,0.21500000000003183
173,3,0.2,0.0625,35.0,1,1.0,0.29019999999997026
174,3,0.2,0.25,35.0,1,1.0,0.3761000000000081
175,3,0.2,0.25,-35.0,-1,1.0,0.22749999999990678
176,3,0.2,0.25,-35.0,-1,1.0,0.6836000000000695
177,3,0.2,0.0625,35.0,1,1.0,0.30720099999996364
178,3,0.2,0.25,35.0,1,1.0,0.233101000000147
179,3,0.2,1.0,35.0,1,1.0,0.6146009999999933
180,3,0.2,1.0,35.0,1,1.0,0.16270000000008622
181,3,0.2,0.125,35.0,-1,0.0,4.605699999999956
182,3,0.2,0.25,35.0,1,1.0,0.46480000000008204
183,3,0.2,0.0,35.0,1,1.0,0.2420000000000755
184,3,0.2,1.0,35.0,1,1.0,0.6340999999999894
185,3,0.2,1.0,35.0,1,1.0,0.2013000000001739
186,3,0.2,0.0625,35.0,1,1.0,0.40980000000013206
187,3,0.2,0.125,35.0,1,1.0,0.4048000000000229
188,3,0.2,0.125,35.0,1,1.0,0.48290000000008604
189,3,0.2,0.25,35.0,1,1.0,0.270099999999843
190,3,0.2,0.125,35.0,1,1.0,0.3816999999999098
191,3,0.2,0.25,-35.0,-1,1.0,0.37579999999991287
192,3,0.2,0.0625,35.0,1,1.0,0.2338999999999487
193,3,0.2,0.125,35.0,1,1.0,0.36169999999992797
194,3,0.2,0.125,35.0,1,1.0,0.27289999999993597
195,3,0.2,0.0625,-35.0,-1,1.0,0.6689000000000078
196,3,0.2,0.25,35.0,1,1.0,0.1914999999999054
197,3,0.2,0.0,-35.0,-1,1.0,2.923501000000101
198,3,0.2,0.25,35.0,1,1.0,0.19990099999995437
199,3,0.2,0.25,35.0,1,1.0,0.21719999999993433
200,3,0.2,0.0625,35.0,1,1.0,0.41819999999995616
201,3,0.2,0.125,35.0,1,1.0,0.32320000000004256
202,3,0.8,0.125,-35.0,-1,1.0,0.3686999999998761
203,3,0.8,1.0,-35.0,-1,1.0,0.39239999999995234
204,3,0.8,0.125,35.0,1,1.0,0.45440099999996164
205,3,0.8,0.25,-35.0,-1,1.0,0.29730000000006385
206,3,0.8,0.0,-35.0,-1,1.0,0.4793009999998503
207,3,0.8,1.0,35.0,1,1.0,0.2943000000000211
208,3,0.8,1.0,-35.0,-1,1.0,0.29520000000002256
209,3,0.8,0.25,35.0,1,1.0,0.4755000000000109
210,3,0.8,0.125,-35.0,-1,1.0,3.766200000000026
211,3,0.8,0.0625,-35.0,-1,1.0,0.4330010000001039
212,3,0.8,1.0,-35.0,-1,1.0,0.22820000000001528
213,3,0.8,1.0,-35.0,-1,1.0,0.2096000000000231
214,3,0.8,0.125,-35.0,-1,1.0,0.26749999999992724
215,3,0.8,0.0625,-35.0,-1,1.0,4.198299999999904
216,3,0.8,0.25,-35.0,-1,1.0,0.2570010000000593
217,3,0.8,0.25,-35.0,-1,1.0,0.5567000000000917
218,3,0.8,0.0,35.0,-1,0.0,1.2736999999999625
219,3,0.8,1.0,-35.0,-1,1.0,0.24069999999994707
220,3,0.8,0.25,-35.0,-1,1.0,0.2882000000000744
221,3,0.8,1.0,35.0,1,1.0,0.6287999999999556
222,3,0.8,1.0,-35.0,-1,1.0,0.24200100000007296
223,3,0.8,0.125,-35.0,-1,1.0,0.44010000000014315
224,3,0.8,0.0,-35.0,-1,1.0,3.9510999999999967
225,3,0.8,1.0,-35.0,-1,1.0,0.2056999999999789
226,3,0.8,0.0,-35.0,-1,1.0,3.2653999999999996
227,3,0.8,0.125,-35.0,-1,1.0,2.4102000000000317
228,3,0.8,1.0,-35.0,-1,1.0,0.24350000000004002
229,3,0.8,1.0,35.0,1,1.0,0.27520000000004075
230,3,0.8,0.0625,35.0,1,1.0,0.28710000000000946
231,3,0.8,1.0,-35.0,-1,1.0,0.24100000000009913
232,3,0.8,0.125,-35.0,-1,1.0,2.5594999999999573
233,3,0.8,0.125,-35.0,-1,1.0,0.2984999999998763
234,3,0.8,0.125,-35.0,-1,1.0,0.5106000000000677
235,3,0.8,0.0625,-35.0,-1,1.0,3.0224999999999227
236,3,0.8,0.25,-35.0,-1,1.0,0.2726000000000113
237,3,0.8,1.0,-35.0,-1,1.0,0.23680100000012771
238,3,0.8,0.0,-35.0,-1,1.0,2.056500000000028
239,3,0.8,0.0625,-35.0,-1,1.0,0.38409999999987576
240,3,0.8,0.25,35.0,1,1.0,0.25339999999994234
241,3,0.2,1.0,35.0,1,1.0,0.2927000000000817
242,3,0.2,0.125,35.0,1,1.0,0.2585000000000264
243,3,0.2,0.125,35.0,1,1.0,0.6159999999999854
244,3,0.2,0.0625,35.0,1,1.0,0.7895000000000891
245,3,0.2,0.0,35.0,-1,0.0,3.3372009999999364
246,3,0.2,0.0,35.0,1,1.0,0.9934999999999263
247,3,0.2,0.0625,35.0,1,1.0,0.29750000000001364
248,3,0.2,0.0625,35.0,1,1.0,0.2403999999999087
249,3,0.2,0.125,35.0,1,1.0,0.23480000000006385
250,3,0.2,0.125,35.0,1,1.0,0.19869999999991705
251,3,0.2,1.0,35.0,1,1.0,0.20729999999991833
252,3,0.2,0.25,35.0,1,1.0,0.0007999999999128704
253,3,0.2,0.0625,-35.0,-1,1.0,0.935301000000095
254,3,0.2,0.125,35.0,1,1.0,0.24100099999998292
255,3,0.2,1.0,35.0,1,1.0,0.29140000000006694
256,3,0.2,0.25,-35.0,-1,1.0,0.3061000000000149
257,3,0.2,1.0,-35.0,-1,1.0,0.28330000000005384
258,3,0.2,1.0,35.0,1,1.0,0.21129999999993743
259,3,0.2,0.125,35.0,1,1.0,0.30820099999994
260,3,0.2,0.125,35.0,1,1.0,0.4026000000001204
261,3,0.2,0.25,35.0,1,1.0,0.2545999999999822
262,3,0.2,0.0625,35.0,1,1.0,0.2658010000000104
263,3,0.2,0.125,35.0,1,1.0,0.2178000000000111
264,3,0.2,0.125,35.0,1,1.0,0.24310000000002674
265,3,0.2,1.0,35.0,1,1.0,0.181699999999978
266,3,0.2,1.0,35.0,1,1.0,0.18230000000005475
267,3,0.2,0.0625,35.0,1,1.0,0.13869999999997162
268,3,0.2,0.0,35.0,-1,0.0,6.427999999999997
269,3,0.2,0.125,35.0,1,1.0,0.28109999999992397
270,3,0.2,0.0,-35.0,-1,1.0,2.8986000000001013
271,3,0.2,0.0625,-35.0,-1,1.0,0.4756009999999833
272,3,0.2,1.0,35.0,1,1.0,0.20519999999987704
273,3,0.2,0.125,-35.0,-1,1.0,0.30599999999992633
274,3,0.2,0.0,35.0,-1,0.0,4.6340999999999894
275,3,0.2,0.0,35.0,-1,0.0,1.0258000000001175
276,3,0.2,0.125,35.0,1,1.0,0.26720000000000255
277,3,0.2,0.0625,35.0,-1,0.0,4.321899999999914
278,3,0.2,1.0,35.0,1,1.0,0.19539999999994961
279,3,0.2,1.0,35.0,1,1.0,0.29520000000002256
280,3,0.2,0.25,35.0,1,1.0,0.17770099999995637
281,3,0.2,0.125,-35.0,-1,1.0,0.30110000000013315
282,3,0.2,0.0,35.0,-1,0.0,0.560100000000034
283,3,0.2,0.0625,35.0,1,1.0,0.3667999999998983
284,3,0.2,0.125,35.0,1,1.0,0.45639999999991687
285,3,0.2,0.25,35.0,1,1.0,0.20069999999998345
286,3,0.2,0.0625,35.0,1,1.0,0.23279999999999745
287,3,0.2,0.25,35.0,1,1.0,0.16260099999988142
288,3,0.2,1.0,-35.0,-1,1.0,0.2581000000000131
289,3,0.2,0.0,-35.0,1,0.0,0.5698010000000977
290,3,0.2,0.125,35.0,1,1.0,0.35369999999988977
291,3,0.2,0.125,35.0,1,1.0,0.2539010000000417
292,3,0.2,1.0,35.0,1,1.0,0.24810099999990598
293,3,0.2,0.0,35.0,-1,0.0,0.41840099999990343
294,3,0.2,1.0,35.0,1,1.0,0.2513000000001284
295,3,0.2,1.0,35.0,1,1.0,0.30930000000000746
296,3,0.2,0.0,35.0,-1,0.0,3.5932000000000244
297,3,0.2,1.0,-35.0,-1,1.0,0.20510000000001583
298,3,0.2,0.125,35.0,1,1.0,0.21449999999992997
299,3,0.2,0.0,35.0,-1,0.0,0.553000000000111
300,3,0.2,1.0,35.0,1,1.0,0.21859999999992397
301,3,0.2,1.0,35.0,1,1.0,0.24899999999990996
302,3,0.2,0.125,35.0,1,1.0,0.23900099999991653
303,3,0.2,0.125,35.0,1,1.0,0.21439999999995507
304,3,0.2,0.0625,35.0,-1,0.0,3.264699999999948
305,3,0.2,0.0625,35.0,-1,0.0,0.31399999999996453
306,3,0.8,0.125,-35.0,-1,1.0,0.27090000000009695
307,3,0.8,0.125,-35.0,-1,1.0,0.2440000000000282
308,3,0.8,0.25,-35.0,-1,1.0,0.2773009999999658
309,3,0.8,0.0,-35.0,-1,1.0,4.914300999999909
310,3,0.8,0.0625,-35.0,-1,1.0,4.256401000000096
311,3,0.8,0.25,-35.0,-1,1.0,0.2391010000001188
312,3,0.8,0.0625,-35.0,-1,1.0,0.33730100000013863
313,3,0.8,0.125,-35.0,-1,1.0,0.2516009999999369
314,3,0.8,1.0,35.0,1,1.0,0.4935010000000375
315,3,0.8,0.125,35.0,1,1.0,0.24520099999995182
316,3,0.8,0.25,-35.0,-1,1.0,0.29480099999989307
317,3,0.8,0.0625,-35.0,-1,1.0,0.4164010000000644
318,3,0.8,0.25,35.0,1,1.0,0.2632010000000946
319,3,0.8,0.125,-35.0,-1,1.0,0.6262009999999236
320,3,0.8,0.125,35.0,1,1.0,0.173300999999924
321,3,0.8,0.25,35.0,1,1.0,0.2675010000000384
322,3,0.8,0.0625,-35.0,-1,1.0,4.309200999999916
323,3,0.8,0.0,-35.0,1,0.0,2.7102010000000973
324,3,0.8,0.25,35.0,1,1.0,0.22360100000003058
325,3,0.8,0.125,-35.0,-1,1.0,0.27040199999987635
326,3,0.8,0.0,-35.0,-1,1.0,3.562800999999922
327,3,0.8,0.0,-35.0,-1,1.0,3.629600999999866
328,3,0.8,0.0625,-35.0,-1,1.0,0.31300100000009934
329,3,0.8,0.125,-35.0,-1,1.0,0.2830019999998967
330,3,0.8,0.125,35.0,1,1.0,0.41340100000002167
331,3,0.8,0.125,-35.0,-1,1.0,0.8633010000000922
332,3,0.8,1.0,-35.0,-1,1.0,0.2234009999999671
333,3,0.8,0.125,35.0,1,1.0,0.3438020000000961
334,3,0.8,1.0,-35.0,-1,1.0,0.26690099999973427
335,3,0.8,0.25,-35.0,-1,1.0,0.30690099999992526
336,3,0.8,0.125,-35.0,-1,1.0,0.4435009999999693
337,3,0.8,1.0,-35.0,-1,1.0,0.2836009999998623
338,3,0.8,0.0,-35.0,-1,1.0,3.34370100000001
339,3,0.8,1.0,35.0,1,1.0,0.20710200000007717
340,3,0.8,0.0625,-35.0,-1,1.0,0.8344009999998434
341,3,0.8,1.0,-35.0,-1,1.0,0.23820100000011735
342,3,0.8,0.0625,-35.0,-1,1.0,0.4608009999999467
343,3,0.8,1.0,-35.0,-1,1.0,0.29080099999987397
344,3,0.8,0.25,-35.0,-1,1.0,0.3076010000002043
345,3,0.8,0.0625,-35.0,1,0.0,0.2411010000000715
346,3,0.8,1.0,-35.0,-1,1.0,0.22750100000007478
347,3,0.8,1.0,-35.0,-1,1.0,0.23470099999985905
348,3,0.8,0.25,35.0,1,1.0,0.21760199999994256
349,3,0.8,1.0,-35.0,-1,1.0,0.6548009999999067
350,3,0.8,0.125,-35.0,-1,1.0,4.044601000000057
351,3,0.8,0.25,35.0,1,1.0,0.23790099999996528
352,3,0.8,0.125,-35.0,-1,1.0,3.728100999999924
353,3,0.8,0.25,-35.0,-1,1.0,6.214701000000105
354,3,0.8,0.25,35.0,1,1.0,0.5417009999998754
355,3,0.8,0.0625,35.0,1,1.0,0.4015009999998256
356,3,0.8,0.25,-35.0,-1,1.0,7.581601999999975
357,3,0.8,0.125,35.0,1,1.0,0.4025019999999131
358,3,0.8,0.0,-35.0,1,0.0,0.5252009999999245
359,3,0.8,0.0625,-35.0,-1,1.0,0.3887019999997392
360,3,0.8,0.125,-35.0,-1,1.0,3.815301999999974
361,3,0.8,0.125,-35.0,-1,1.0,5.502600999999913
362,3,0.8,1.0,-35.0,-1,1.0,0.26910099999986414
363,3,0.8,0.0625,-35.0,-1,1.0,5.4962010000001555
364,3,0.8,0.0,-35.0,-1,1.0,4.139800999999807
365,3,0.8,0.125,-35.0,-1,1.0,0.3025009999998929
366,3,0.8,0.125,-35.0,-1,1.0,3.166402000000062
367,3,0.8,0.0625,-35.0,-1,1.0,0.27970099999970444
368,3,0.8,0.0,-35.0,-1,1.0,2.539500999999973
369,3,0.8,0.125,-35.0,-1,1.0,0.2799009999998816
370,3,0.8,0.125,-35.0,-1,1.0,0.26310099999977865
371,3,0.2,0.125,35.0,1,1.0,0.3801009999999678
372,3,0.2,0.0625,35.0,1,1.0,0.6534010000000308
373,3,0.2,0.0625,35.0,1,1.0,0.29650100000003476
374,3,0.2,0.0625,35.0,1,1.0,0.3866019999998116
375,3,0.2,0.25,-35.0,-1,1.0,4.383100999999897
376,3,0.2,0.0625,35.0,-1,0.0,8.640201999999817
377,3,0.2,0.125,35.0,1,1.0,0.4669010000000071
378,3,0.2,1.0,35.0,1,1.0,0.22400099999981649
379,3,0.2,0.125,35.0,1,1.0,0.3341020000000299
380,3,0.2,0.125,35.0,1,1.0,0.25040199999989454
381,3,0.2,0.25,-35.0,-1,1.0,0.3309009999998125
382,3,0.2,0.125,35.0,1,1.0,0.3037019999999302
383,3,0.2,0.0625,35.0,-1,0.0,4.207200999999941
384,3,0.2,0.0625,35.0,-1,0.0,5.384101999999984
385,3,0.2,1.0,35.0,1,1.0,0.3808009999997921
386,3,0.2,0.0625,35.0,1,1.0,0.5944010000000617
387,3,0.2,0.0625,35.0,1,1.0,0.5209010000000944
388,3,0.2,0.25,35.0,1,1.0,0.26750200000014956
389,3,0.2,0.125,35.0,1,1.0,0.381300999999894
390,3,0.2,0.0625,35.0,1,1.0,0.40150100000005295
391,3,0.2,0.25,35.0,1,1.0,0.6677010000000791
392,3,0.2,0.25,35.0,-1,0.0,0.12820099999999002
393,3,0.2,0.0625,35.0,1,1.0,7.3511009999999715
394,3,0.2,0.125,35.0,1,1.0,0.8848010000001523
395,3,0.2,1.0,35.0,1,1.0,0.3448009999999613
396,3,0.2,1.0,-35.0,-1,1.0,0.23810099999991508
397,3,0.2,0.25,35.0,1,1.0,0.46170100000017555
398,3,0.2,0.25,35.0,1,1.0,0.2716009999999187
399,3,0.2,0.25,35.0,1,1.0,0.4281020000000808
