trial_num,session_num,stim_probability_left,contrast,position,response_choice,trial_correct,reaction_time
1,1,0.2,1.0,-35.0,-1,1.0,0.23299999999999998
2,1,0.2,0.0625,-35.0,-1,1.0,1.3023999999999991
3,1,0.2,0.0,35.0,-1,0.0,0.6953000000000005
4,1,0.2,0.125,-35.0,-1,1.0,0.3605999999999998
5,1,0.2,1.0,-35.0,-1,1.0,0.21829999999999927
6,1,0.2,0.0,35.0,1,1.0,0.6217000000000006
7,1,0.2,1.0,35.0,1,1.0,0.2875000000000014
8,1,0.2,1.0,-35.0,-1,1.0,0.18349999999999866
9,1,0.2,1.0,-35.0,-1,1.0,0.30420000000000513
10,1,0.2,0.0625,35.0,1,1.0,0.8031000000000006
11,1,0.2,1.0,35.0,1,1.0,0.22410099999999744
12,1,0.2,0.0625,-35.0,1,0.0,0.5556000000000054
13,1,0.2,0.125,35.0,-1,0.0,0.10779999999999745
14,1,0.2,0.125,35.0,1,1.0,0.40789999999999793
15,1,0.2,1.0,35.0,1,1.0,0.30400000000000205
16,1,0.2,1.0,35.0,1,1.0,0.3543009999999924
17,1,0.2,0.25,35.0,1,1.0,0.4123000000000019
18,1,0.2,0.125,-35.0,-1,1.0,2.3811999999999998
19,1,0.2,0.0625,35.0,-1,0.0,0.2862000000000009
20,1,0.2,0.0625,35.0,1,1.0,0.4912999999999954
21,1,0.2,0.25,35.0,1,1.0,0.45360000000000866
22,1,0.2,1.0,35.0,1,1.0,0.29710100000001205
23,1,0.2,0.25,35.0,1,1.0,0.45710000000001116
24,1,0.2,0.0625,35.0,1,1.0,0.5176000000000016
25,1,0.2,1.0,35.0,1,1.0,0.3131999999999948
26,1,0.2,0.25,35.0,1,1.0,0.3088000000000193
27,1,0.2,0.25,35.0,1,1.0,0.255100000000013
28,1,0.2,1.0,35.0,1,1.0,0.3003000000000071
29,1,0.2,0.125,-35.0,1,0.0,0.23620000000001085
30,1,0.2,0.0,35.0,1,1.0,0.24210000000000775
31,1,0.2,0.125,-35.0,-1,1.0,0.4625000000000199
32,1,0.2,0.0625,35.0,1,1.0,0.33040100000000905
33,1,0.2,0.0625,35.0,1,1.0,0.503200000000021
34,1,0.2,0.125,35.0,1,1.0,0.23930000000000007
35,1,0.2,0.0625,35.0,1,1.0,0.36050000000001603
36,1,0.2,0.25,35.0,1,1.0,0.26959999999999695
37,1,0.8,0.0,-35.0,1,0.0,0.5771010000000132
38,1,0.8,0.125,-35.0,-1,1.0,0.6712000000000131
39,1,0.8,0.25,35.0,1,1.0,0.5004010000000108
40,1,0.8,1.0,35.0,1,1.0,0.24399999999999977
41,1,0.8,0.125,-35.0,-1,1.0,0.31380000000001473
42,1,0.8,1.0,-35.0,-1,1.0,0.3773999999999944
43,1,0.8,1.0,-35.0,-1,1.0,0.3059999999999974
44,1,0.8,1.0,-35.0,-1,1.0,0.540101000000007
45,1,0.8,0.0625,-35.0,-1,1.0,0.4778000000000162
46,1,0.8,0.25,-35.0,-1,1.0,0.33099999999998886
47,1,0.8,0.0,-35.0,-1,1.0,0.3523999999999887
48,1,0.8,0.25,35.0,-1,0.0,0.6503999999999905
49,1,0.8,1.0,-35.0,-1,1.0,0.3716000000000008
50,1,0.8,0.0625,-35.0,1,0.0,2.7517999999999745
51,1,0.8,0.25,-35.0,-1,1.0,0.4029000000000167
52,1,0.8,0.0,-35.0,-1,1.0,0.44820000000001414
53,1,0.8,1.0,35.0,1,1.0,0.3177000000000021
54,1,0.8,1.0,-35.0,-1,1.0,0.3071999999999946
55,1,0.8,0.25,-35.0,-1,1.0,0.4535009999999886
56,1,0.8,1.0,-35.0,-1,1.0,0.3722009999999898
57,1,0.8,1.0,-35.0,-1,1.0,0.38390000000001123
58,1,0.8,0.0625,35.0,-1,0.0,0.2903009999999995
59,1,0.8,0.0,-35.0,1,0.0,0.2569999999999766
60,1,0.8,0.25,-35.0,-1,1.0,0.26030000000000086
61,1,0.8,0.125,-35.0,-1,1.0,0.28849999999997067
62,1,0.8,1.0,-35.0,-1,1.0,0.459699999999998
63,1,0.8,1.0,-35.0,-1,1.0,0.4741999999999962
64,1,0.8,0.25,35.0,1,1.0,0.4228999999999985
65,1,0.8,0.125,-35.0,1,0.0,0.24609999999998422
66,1,0.8,0.125,-35.0,-1,1.0,0.6097000000000037
67,1,0.8,0.0625,-35.0,1,0.0,3.700601000000006
68,1,0.8,1.0,-35.0,-1,1.0,0.2682000000000073
69,1,0.8,0.125,-35.0,-1,1.0,2.7235999999999763
70,1,0.8,0.0,-35.0,-1,1.0,0.28059999999999263
71,1,0.8,0.25,-35.0,-1,1.0,0.5252000000000123
72,1,0.8,0.125,-35.0,-1,1.0,0.3025000000000091
73,1,0.8,1.0,-35.0,-1,1.0,0.9672999999999945
74,1,0.8,0.125,-35.0,-1,1.0,0.42719999999999914
75,1,0.8,1.0,-35.0,-1,1.0,0.5314999999999941
76,1,0.8,0.0,-35.0,-1,1.0,0.42049999999997567
77,1,0.8,1.0,-35.0,-1,1.0,0.5246000000000208
78,1,0.8,0.125,-35.0,-1,1.0,0.4227000000000203
79,1,0.8,0.0,-35.0,-1,1.0,0.5127999999999702
80,1,0.8,0.125,35.0,-1,0.0,0.2949999999999875
81,1,0.8,0.0,-35.0,-1,1.0,0.6158009999999763
82,1,0.8,1.0,-35.0,-1,1.0,0.42080000000001405
83,1,0.8,0.125,-35.0,-1,1.0,0.23199999999999932
84,1,0.8,1.0,35.0,1,1.0,0.2937000000000012
85,1,0.8,0.0,-35.0,-1,1.0,0.6591999999999985
86,1,0.8,0.0625,-35.0,-1,1.0,0.4467999999999961
87,1,0.8,1.0,-35.0,-1,1.0,0.555199999999985
88,1,0.8,0.25,-35.0,-1,1.0,0.40059999999996876
89,1,0.8,0.0625,-35.0,-1,1.0,0.5164999999999509
90,1,0.8,0.125,-35.0,-1,1.0,0.4377009999999757
91,1,0.8,0.0,-35.0,-1,1.0,0.6140000000000327
92,1,0.8,0.25,-35.0,-1,1.0,0.3281000000000631
93,1,0.8,0.0,-35.0,-1,1.0,0.5450000000000728
94,1,0.8,0.125,-35.0,-1,1.0,0.36079999999998336
95,1,0.8,1.0,-35.0,-1,1.0,0.2542010000000232
96,1,0.8,0.0625,35.0,-1,0.0,1.4968999999999824
97,1,0.8,0.25,-35.0,-1,1.0,0.19899999999995543
98,1,0.8,1.0,-35.0,-1,1.0,0.47980000000001155
99,1,0.8,1.0,35.0,1,1.0,0.45110000000005357
100,1,0.8,0.125,35.0,-1,0.0,0.47179999999997335
101,1,0.2,0.25,-35.0,-1,1.0,0.300200000000018
102,1,0.2,0.0625,35.0,-1,0.0,0.45100000000002183
103,1,0.2,0.125,-35.0,-1,1.0,0.19930000000005066
104,1,0.2,0.0625,35.0,1,1.0,3.8909000000000447
105,1,0.2,0.25,-35.0,-1,1.0,0.2961999999999989
106,1,0.2,0.125,-35.0,-1,1.0,0.3422999999999661
107,1,0.2,0.125,-35.0,-1,1.0,0.2780999999999949
108,1,0.2,0.25,35.0,1,1.0,0.6380010000000311
109,1,0.2,0.0625,-35.0,-1,1.0,0.581799999999987
110,1,0.2,0.0625,35.0,1,1.0,0.9031000000000518
111,1,0.2,0.25,35.0,1,1.0,0.32420000000007576
112,1,0.2,0.0625,35.0,1,1.0,0.5160000000000196
113,1,0.2,0.25,35.0,1,1.0,0.3036000000000172
114,1,0.2,0.125,35.0,1,1.0,2.3380000000000223
115,1,0.2,0.0625,-35.0,1,0.0,0.3761000000000081
116,1,0.2,0.0,-35.0,-1,1.0,0.47340000000002647
117,1,0.2,0.25,35.0,1,1.0,0.3147999999999911
118,1,0.2,0.125,35.0,1,1.0,0.39130000000005793
119,1,0.2,1.0,35.0,1,1.0,0.3795999999999822
120,1,0.2,0.125,35.0,1,1.0,0.30979999999999563
121,1,0.2,0.25,35.0,1,1.0,0.5034009999999967
122,1,0.2,0.25,35.0,1,1.0,0.2585000000000264
123,1,0.2,1.0,35.0,1,1.0,0.22820000000001528
124,1,0.2,0.0625,35.0,1,1.0,0.24710000000004584
125,1,0.2,0.0625,-35.0,1,0.0,0.22190000000006194
126,1,0.8,0.0625,-35.0,-1,1.0,0.44779999999997244
127,1,0.8,0.0625,-35.0,1,0.0,1.932800000000043
128,1,0.8,0.125,35.0,-1,0.0,0.10290100000003122
129,1,0.8,1.0,-35.0,-1,1.0,0.2185000000000059
130,1,0.8,0.0625,-35.0,1,0.0,0.2027999999999679
131,1,0.8,0.125,-35.0,-1,1.0,0.5074000000000183
132,1,0.8,0.25,-35.0,-1,1.0,0.299000000000035
133,1,0.8,0.0625,-35.0,-1,1.0,0.4941000000000031
134,1,0.8,0.0625,-35.0,-1,1.0,0.31490000000002283
135,1,0.8,1.0,-35.0,-1,1.0,0.2785999999999831
136,1,0.8,0.125,-35.0,-1,1.0,0.5130000000000337
137,1,0.8,0.25,-35.0,-1,1.0,0.2697000000000571
138,1,0.8,1.0,-35.0,-1,1.0,0.36480000000000246
139,1,0.8,0.0,-35.0,-1,1.0,0.39150000000000773
140,1,0.8,1.0,35.0,1,1.0,0.3396000000000754
141,1,0.8,0.0,35.0,-1,0.0,0.544900000000041
142,1,0.8,0.125,-35.0,-1,1.0,0.21410000000003038
143,1,0.8,0.125,35.0,1,1.0,0.15770000000003392
144,1,0.8,0.125,-35.0,-1,1.0,0.26780000000002246
145,1,0.8,0.0625,35.0,1,1.0,0.9419000000000324
146,1,0.8,0.0625,-35.0,-1,1.0,0.261600000000044
147,1,0.8,0.25,-35.0,-1,1.0,0.28520000000003165
148,1,0.8,0.0625,-35.0,-1,1.0,0.4496000000000322
149,1,0.8,0.125,-35.0,-1,1.0,0.5134010000000444
150,1,0.8,0.0625,35.0,-1,0.0,0.33770000000004075
151,1,0.8,0.125,35.0,-1,0.0,0.19490100000001576
152,1,0.8,0.0625,-35.0,-1,1.0,0.2738010000000486
153,1,0.8,0.0625,-35.0,-1,1.0,0.08830000000000382
154,1,0.8,0.25,-35.0,-1,1.0,0.5323999999999955
155,1,0.8,0.125,-35.0,-1,1.0,0.21410000000008722
156,1,0.8,0.0,35.0,-1,0.0,0.4086000000000354
157,1,0.8,1.0,-35.0,-1,1.0,0.22550000000001091
158,1,0.8,0.0,-35.0,-1,1.0,1.1650000000000205
159,1,0.8,0.25,-35.0,-1,1.0,0.33240000000006376
160,1,0.8,0.25,-35.0,-1,1.0,0.3534000000000219
161,1,0.8,0.25,-35.0,-1,1.0,0.35810099999997647
162,1,0.8,0.125,-35.0,-1,1.0,0.348199999999963
163,1,0.8,0.0625,-35.0,-1,1.0,0.5349010000000476
164,1,0.8,0.0625,35.0,-1,0.0,0.19890000000003738
165,1,0.8,0.0625,-35.0,-1,1.0,0.3823000000000434
166,1,0.8,0.25,-35.0,-1,1.0,0.6237000000000421
167,1,0.8,1.0,-35.0,-1,1.0,0.17779999999999063
168,1,0.8,0.125,-35.0,-1,1.0,0.3619000000000483
169,1,0.8,1.0,35.0,1,1.0,1.1251000000000317
170,1,0.2,1.0,35.0,1,1.0,0.3165000000000191
171,1,0.2,1.0,35.0,1,1.0,0.2791000000000281
172,1,0.2,0.125,35.0,1,1.0,0.3650000000000091
173,1,0.2,1.0,-35.0,-1,1.0,0.43070000000000164
174,1,0.2,0.0,35.0,-1,0.0,0.6073999999999842
175,1,0.2,0.0625,35.0,1,1.0,0.39920000000000755
176,1,0.2,0.25,35.0,1,1.0,0.17270000000002028
177,1,0.2,0.0625,35.0,1,1.0,0.356000999999992
178,1,0.2,0.0,35.0,1,1.0,1.8648010000000568
179,1,0.2,0.0,35.0,1,1.0,3.3262000000000853
180,1,0.2,0.0625,35.0,1,1.0,0.21330000000000382
181,1,0.2,0.0625,35.0,1,1.0,0.37009999999997945
182,1,0.2,0.125,35.0,1,1.0,0.24020100000007005
183,1,0.2,0.0625,35.0,1,1.0,1.4314000000000533
184,1,0.2,0.25,35.0,1,1.0,0.29670099999998456
185,1,0.2,0.125,35.0,1,1.0,0.30160000000000764
186,1,0.2,1.0,35.0,1,1.0,0.2594009999999116
187,1,0.2,0.25,35.0,1,1.0,1.2006999999999834
188,1,0.2,0.25,-35.0,1,0.0,0.5655000000000427
189,1,0.2,1.0,35.0,1,1.0,0.2159000000000333
190,1,0.2,0.0625,35.0,1,1.0,0.2985999999999649
191,1,0.2,0.125,35.0,1,1.0,0.22440000000005966
192,1,0.2,1.0,35.0,1,1.0,0.2256999999999607
193,1,0.2,1.0,35.0,1,1.0,0.3005000000001701
194,1,0.2,0.25,-35.0,-1,1.0,0.5252000000000407
195,1,0.2,1.0,-35.0,-1,1.0,0.34320100000002185
196,1,0.2,0.125,35.0,1,1.0,0.3569999999999709
197,1,0.2,0.125,-35.0,1,0.0,0.29309999999998126
198,1,0.2,0.25,-35.0,-1,1.0,0.4198000000000093
199,1,0.2,1.0,35.0,1,1.0,0.324799999999982
200,1,0.2,1.0,35.0,1,1.0,0.28119999999989886
201,1,0.2,0.0,35.0,1,1.0,0.5112000000001444
202,1,0.2,1.0,35.0,1,1.0,0.306699999999978
203,1,0.2,0.25,35.0,1,1.0,0.2857000000000198
204,1,0.2,0.125,35.0,1,1.0,0.2865000000000464
205,1,0.2,1.0,35.0,1,1.0,0.2158000000000584
206,1,0.2,0.0625,35.0,1,1.0,0.23850099999992835
207,1,0.2,0.25,35.0,1,1.0,0.23230000000000928
208,1,0.2,1.0,35.0,1,1.0,0.3064000000000533
209,1,0.2,0.0625,35.0,1,1.0,0.2502000000000635
210,1,0.2,0.125,35.0,1,1.0,0.18220099999996364
211,1,0.2,0.25,35.0,1,1.0,0.2656010000000606
212,1,0.2,0.0625,-35.0,-1,1.0,0.874100999999996
213,1,0.2,0.0,35.0,-1,0.0,0.21430099999997765
214,1,0.2,0.25,35.0,1,1.0,0.3007000000000062
215,1,0.2,1.0,35.0,1,1.0,0.28369999999995343
216,1,0.2,0.0,35.0,-1,0.0,0.3649000000000342
217,1,0.2,0.125,35.0,1,1.0,2.47320000000002
218,1,0.2,0.0,-35.0,1,0.0,0.2617000000000189
219,1,0.2,0.25,35.0,1,1.0,0.23220100000014554
220,1,0.2,0.0625,35.0,1,1.0,0.2013000000000602
221,1,0.2,0.0625,-35.0,1,0.0,0.1936000000000604
222,1,0.2,1.0,-35.0,-1,1.0,0.38820000000009713
223,1,0.2,0.0,-35.0,-1,1.0,0.4570009999999911
224,1,0.2,0.25,-35.0,-1,1.0,0.27470000000005257
225,1,0.2,0.25,35.0,-1,0.0,0.3872000000001208
226,1,0.2,0.0625,35.0,-1,0.0,0.19060000000001764
227,1,0.2,1.0,35.0,1,1.0,0.21120099999996
228,1,0.8,1.0,35.0,1,1.0,0.19670000000007803
229,1,0.8,0.125,-35.0,-1,1.0,0.35170000000005075
230,1,0.8,1.0,-35.0,-1,1.0,0.2984000000000151
231,1,0.8,0.0625,35.0,-1,0.0,0.4751009999999951
232,1,0.8,0.25,35.0,1,1.0,0.2762000000000171
233,1,0.8,0.125,-35.0,-1,1.0,0.33999999999991815
234,1,0.8,0.125,-35.0,-1,1.0,1.2773999999999432
235,1,0.8,0.0625,-35.0,-1,1.0,0.30750000000011823
236,1,0.8,0.25,35.0,1,1.0,0.3033010000000331
237,1,0.8,0.25,35.0,1,1.0,0.24759999999992033
238,1,0.8,0.0625,-35.0,-1,1.0,0.8553000000000566
239,1,0.8,0.25,-35.0,-1,1.0,0.35510100000010425
240,1,0.8,0.0625,-35.0,-1,1.0,0.13679999999999382
241,1,0.8,0.0625,-35.0,-1,1.0,0.351900999999998
242,1,0.8,0.125,-35.0,-1,1.0,0.3125999999999749
243,1,0.8,0.25,-35.0,-1,1.0,0.16620000000000346
244,1,0.8,1.0,35.0,-1,0.0,0.4270999999999958
245,1,0.8,0.0625,-35.0,-1,1.0,0.25190100000008897
246,1,0.8,0.0625,-35.0,-1,1.0,0.300899999999956
247,1,0.8,0.125,-35.0,-1,1.0,1.2712000000001353
248,1,0.8,0.0625,-35.0,-1,1.0,0.4955999999999676
249,1,0.8,0.0625,-35.0,-1,1.0,0.5383010000000468
250,1,0.8,0.0,-35.0,1,0.0,2.6237009999999827
251,1,0.8,1.0,-35.0,-1,1.0,0.4877999999999929
252,1,0.8,0.25,-35.0,-1,1.0,0.23880000000008295
253,1,0.2,0.25,-35.0,-1,1.0,0.26329999999995835
254,1,0.2,0.125,35.0,1,1.0,1.2346009999999978
255,1,0.2,0.0625,35.0,-1,0.0,0.22309999999993124
256,1,0.2,0.25,35.0,1,1.0,0.18669999999997344
257,1,0.2,0.0,35.0,-1,0.0,0.30520000000001346
258,1,0.2,0.0625,35.0,-1,0.0,0.15769999999997708
259,1,0.2,0.25,35.0,1,1.0,0.24060000000008586
260,1,0.2,1.0,35.0,1,1.0,2.2351000000001022
261,1,0.2,0.125,35.0,1,1.0,0.17060000000003583
262,1,0.2,0.0625,35.0,1,1.0,0.28820100000007187
263,1,0.2,0.25,-35.0,-1,1.0,0.6110000000001037
264,1,0.2,0.125,35.0,1,1.0,0.3544000000000551
265,1,0.2,0.0,35.0,1,1.0,8.194900999999959
266,1,0.2,0.0625,35.0,1,1.0,0.31759999999997035
267,1,0.2,0.25,35.0,1,1.0,6.0368009999999686
268,1,0.2,1.0,35.0,1,1.0,0.24050000000011096
269,1,0.2,0.0,35.0,1,1.0,2.899599999999964
270,1,0.2,0.125,-35.0,1,0.0,0.26350000000002183
271,1,0.2,0.0,35.0,-1,0.0,3.771099999999933
272,1,0.2,0.25,35.0,1,1.0,0.22690000000000055
273,1,0.2,0.25,35.0,1,1.0,2.886000000000081
274,1,0.2,0.125,-35.0,1,0.0,2.6680999999999813
275,1,0.2,1.0,35.0,1,1.0,0.20460100000002512
276,1,0.2,1.0,35.0,1,1.0,0.17790000000013606
277,1,0.2,0.125,-35.0,-1,1.0,0.6008000000000493
278,1,0.2,1.0,35.0,1,1.0,0.4420999999999822
279,1,0.2,0.0625,35.0,1,1.0,5.105099999999993
280,1,0.2,0.25,35.0,1,1.0,0.2197000000001026
281,1,0.2,0.0,35.0,-1,0.0,3.248301000000083
282,1,0.2,1.0,35.0,1,1.0,0.19619999999997617
283,1,0.2,0.0625,35.0,1,1.0,0.17760000000009768
284,1,0.2,0.125,-35.0,1,0.0,0.23699999999996635
285,1,0.2,0.0625,35.0,1,1.0,0.2197999999999638
286,1,0.2,0.25,35.0,1,1.0,0.1734000000000151
287,1,0.2,1.0,35.0,1,1.0,0.320699999999988
288,1,0.2,0.125,35.0,1,1.0,0.2796000000000731
289,1,0.2,1.0,35.0,1,1.0,0.17300000000000182
290,1,0.2,0.25,-35.0,-1,1.0,0.4298000000000002
291,1,0.2,0.0,35.0,-1,0.0,1.7975999999999885
292,1,0.2,0.0,35.0,1,1.0,0.23250000000007276
293,1,0.2,1.0,35.0,1,1.0,0.18400099999996655
294,1,0.2,0.125,35.0,1,1.0,0.22710099999994782
295,1,0.2,0.125,35.0,1,1.0,0.0987999999999829
296,1,0.2,0.25,35.0,1,1.0,0.25739999999996144
297,1,0.2,0.25,35.0,1,1.0,0.2685999999999922
298,1,0.2,0.25,35.0,1,1.0,0.21699999999998454
299,1,0.2,0.25,35.0,1,1.0,0.21069999999997435
300,1,0.2,0.25,35.0,1,1.0,0.21030000000007476
301,1,0.2,1.0,35.0,1,1.0,0.22059999999999036
302,1,0.2,0.125,35.0,-1,0.0,0.3169000000000324
303,1,0.2,0.0625,35.0,1,1.0,0.2237999999999829
304,1,0.2,1.0,35.0,1,1.0,0.26139999999998054
305,1,0.2,1.0,35.0,1,1.0,0.22820000000012897
306,1,0.2,0.25,35.0,1,1.0,0.2779000000000451
307,1,0.2,0.0625,-35.0,1,0.0,0.2399000000000342
308,1,0.2,1.0,35.0,1,1.0,0.23269999999990887
309,1,0.2,1.0,35.0,1,1.0,0.21199999999998909
310,1,0.8,0.25,-35.0,-1,1.0,0.40219999999999345
311,1,0.8,0.125,-35.0,-1,1.0,0.7957999999999856
312,1,0.8,0.125,-35.0,-1,1.0,0.32389999999998054
313,1,0.8,1.0,35.0,-1,0.0,0.448900999999978
314,1,0.8,1.0,-35.0,-1,1.0,0.5353999999999814
315,1,0.8,0.25,-35.0,-1,1.0,0.31780000000003383
316,1,0.8,0.125,35.0,1,1.0,0.7207000000000789
317,1,0.8,0.0,-35.0,1,0.0,3.78790099999992
318,1,0.8,1.0,-35.0,-1,1.0,0.3204000000000633
319,1,0.8,0.0625,-35.0,-1,1.0,0.5881010000000515
320,1,0.8,0.125,-35.0,1,0.0,0.43590100000005805
321,1,0.8,0.0625,-35.0,-1,1.0,0.2778999999999314
322,1,0.8,0.25,35.0,1,1.0,0.3146000000000413
323,1,0.8,0.25,35.0,1,1.0,0.30470100000002276
324,1,0.8,0.25,-35.0,-1,1.0,0.3748000000000502
325,1,0.8,0.0,-35.0,-1,1.0,0.2948000000000093
326,1,0.8,1.0,-35.0,-1,1.0,0.10490000000004329
327,1,0.8,0.0625,-35.0,-1,1.0,-0.008400000000051477
328,1,0.8,0.125,-35.0,-1,1.0,0.6583010000000513
329,1,0.8,0.0625,-35.0,1,0.0,3.115000000000009
330,1,0.8,0.25,-35.0,-1,1.0,0.29529999999999745
331,1,0.8,0.25,-35.0,-1,1.0,0.4052000000001499
332,1,0.8,0.0625,-35.0,-1,1.0,1.9753000000002885
333,1,0.8,1.0,-35.0,-1,1.0,0.37199999999984357
334,1,0.8,1.0,-35.0,-1,1.0,0.2754000000002179
335,1,0.8,1.0,35.0,1,1.0,0.3487999999999829
336,1,0.8,1.0,35.0,1,1.0,0.20879999999988286
337,1,0.8,1.0,35.0,1,1.0,0.2522000000001299
338,1,0.8,0.125,-35.0,-1,1.0,0.19239999999990687
339,1,0.8,0.125,-35.0,-1,1.0,0.24570100000028106
340,1,0.8,0.125,-35.0,-1,1.0,0.24580100000002858
341,1,0.8,0.25,-35.0,-1,1.0,0.9158999999997377
342,1,0.8,0.0,-35.0,1,0.0,0.32580000000007203
343,1,0.8,0.125,-35.0,-1,1.0,0.2925000000000182
344,1,0.8,0.125,-35.0,-1,1.0,0.7427000000000135
345,1,0.8,0.25,-35.0,-1,1.0,1.5993000000000848
346,1,0.8,0.0,-35.0,-1,1.0,0.3126999999999498
347,1,0.8,0.0625,-35.0,-1,1.0,0.2595000000001164
348,1,0.8,0.125,-35.0,-1,1.0,0.5561999999999898
349,1,0.8,0.125,-35.0,-1,1.0,0.279700000000048
350,1,0.8,0.25,35.0,-1,0.0,0.24630000000001928
351,1,0.8,0.0625,-35.0,-1,1.0,0.2863000000002103
352,1,0.8,0.25,35.0,1,1.0,0.4296999999999116
353,1,0.8,0.125,-35.0,-1,1.0,0.32979999999997744
354,1,0.8,0.25,-35.0,-1,1.0,0.27319999999986067
355,1,0.8,0.0,-35.0,-1,1.0,0.6367000000000189
356,1,0.8,0.125,35.0,-1,0.0,0.2199000000000524
357,1,0.8,1.0,-35.0,-1,1.0,0.17000000000007276
358,1,0.8,0.25,-35.0,-1,1.0,0.26010100000007697
359,1,0.8,0.125,35.0,1,1.0,1.2733999999998105
360,1,0.8,0.125,-35.0,-1,1.0,0.6203000000000429
361,1,0.8,0.125,-35.0,-1,1.0,0.2401999999999589
362,1,0.8,0.0625,-35.0,-1,1.0,0.39360000000010587
363,1,0.8,0.125,-35.0,-1,1.0,0.36360100000001694
364,1,0.8,0.0625,-35.0,-1,1.0,0.33049999999980173
365,1,0.8,1.0,-35.0,-1,1.0,0.2038000000000011
366,1,0.8,1.0,35.0,1,1.0,0.28710000000000946
367,1,0.2,1.0,35.0,1,1.0,0.2773010000000795
368,1,0.2,0.125,35.0,1,1.0,0.4841000000001259
369,1,0.2,0.125,35.0,1,1.0,0.300899999999956
370,1,0.2,0.25,-35.0,-1,1.0,0.26099999999996726
371,1,0.2,0.0625,35.0,-1,0.0,0.3442000000002281
372,1,0.2,0.0,35.0,-1,0.0,0.25769999999988613
373,1,0.2,0.125,35.0,-1,0.0,0.21090099999992162
374,1,0.2,0.25,35.0,1,1.0,0.21780000000012478
375,1,0.2,0.25,35.0,1,1.0,1.2277999999998883
376,1,0.2,0.25,35.0,1,1.0,0.19460000000003674
377,1,0.2,0.0,35.0,-1,0.0,0.3079000000000178
378,1,0.2,1.0,35.0,1,1.0,0.22480000000018663
379,1,0.2,0.125,35.0,1,1.0,0.2616000000002714
380,1,0.2,0.0,35.0,1,1.0,0.2417009999999209
381,1,0.2,0.125,35.0,1,1.0,0.19489999999996144
382,1,0.2,0.0,35.0,1,1.0,0.3417010000000573
383,1,0.2,0.0625,35.0,1,1.0,0.21180100000015045
384,1,0.2,0.125,35.0,1,1.0,0.24180000000023938
385,1,0.2,1.0,35.0,1,1.0,0.3084000000001197
386,1,0.2,0.0625,-35.0,1,0.0,0.27530000000001564
387,1,0.2,0.125,35.0,1,1.0,0.32539999999994507
388,1,0.2,0.0625,35.0,1,1.0,0.3021000000001095
389,1,0.2,0.0625,35.0,1,1.0,4.892100000000028
390,1,0.2,1.0,35.0,1,1.0,0.1989000000003216
391,1,0.2,0.25,-35.0,-1,1.0,0.5523000000000593
392,1,0.2,0.0625,-35.0,-1,1.0,0.6557000000000244
393,1,0.2,0.0625,35.0,-1,0.0,0.3690999999998894
394,1,0.2,0.25,35.0,1,1.0,0.21920000000000073
395,1,0.2,1.0,35.0,1,1.0,0.7760000000000673
396,1,0.2,0.0625,35.0,1,1.0,0.5360000000000582
397,1,0.2,1.0,35.0,1,1.0,0.1993999999999687
398,1,0.2,1.0,35.0,1,1.0,0.2960009999999329
399,1,0.2,0.0,35.0,1,1.0,0.2195000000001528
400,1,0.2,1.0,-35.0,-1,1.0,0.3329000000001088
401,1,0.2,1.0,35.0,1,1.0,0.21289999999976317
402,1,0.2,0.25,35.0,1,1.0,0.2928999999999178
403,1,0.2,0.25,35.0,1,1.0,0.3063999999999396
404,1,0.2,0.25,35.0,1,1.0,0.29310000000009495
405,1,0.2,0.0,35.0,1,1.0,5.573100000000068
406,1,0.2,1.0,35.0,1,1.0,0.18329999999991742
407,1,0.8,1.0,35.0,1,1.0,0.3101000000001477
408,1,0.8,0.25,-35.0,-1,1.0,1.3902000000000498
409,1,0.8,0.125,-35.0,-1,1.0,0.21019999999998618
410,1,0.8,0.25,-35.0,-1,1.0,0.42020000000002256
411,1,0.8,0.125,-35.0,-1,1.0,0.3104000000000724
412,1,0.8,0.0,-35.0,-1,1.0,0.3404000000000451
413,1,0.8,0.125,-35.0,-1,1.0,0.1671000000001186
414,1,0.8,0.25,-35.0,-1,1.0,0.5373010000000704
415,1,0.8,0.25,-35.0,-1,1.0,0.2419999999999618
416,1,0.8,0.0625,-35.0,-1,1.0,0.31520000000000437
417,1,0.8,0.0625,-35.0,-1,1.0,0.25870000000008986
418,1,0.8,0.125,-35.0,-1,1.0,1.2887010000001737
419,1,0.8,0.0625,-35.0,-1,1.0,0.6754000000000815
420,1,0.8,0.0625,-35.0,-1,1.0,0.3320000000001073
421,1,0.8,1.0,-35.0,-1,1.0,0.1691000000000713
422,1,0.8,0.125,-35.0,-1,1.0,0.3653999999999087
423,1,0.8,1.0,-35.0,-1,1.0,0.24559999999996762
424,1,0.8,1.0,-35.0,-1,1.0,0.3191999999999098
425,1,0.8,0.25,-35.0,-1,1.0,0.422800000000052
426,1,0.8,0.0625,35.0,1,1.0,0.8963000000001102
427,1,0.8,0.0625,-35.0,-1,1.0,0.2897000000000389
428,1,0.8,0.25,-35.0,-1,1.0,0.6493010000001505
429,1,0.8,0.25,35.0,-1,0.0,0.3528000000001157
430,1,0.8,0.25,-35.0,-1,1.0,0.2727999999999611
431,1,0.8,1.0,-35.0,-1,1.0,0.2499000000000251
432,1,0.8,1.0,-35.0,-1,1.0,0.2862999999999829
433,1,0.8,0.0625,-35.0,-1,1.0,0.4933000000000902
434,1,0.8,0.125,-35.0,-1,1.0,0.2617000000000189
435,1,0.8,1.0,-35.0,-1,1.0,0.24520000000006803
436,1,0.8,1.0,-35.0,-1,1.0,0.25840000000016516
437,1,0.8,0.25,-35.0,-1,1.0,0.21189999999978681
438,1,0.8,0.0625,-35.0,-1,1.0,0.3785000000000309
439,1,0.8,0.0,-35.0,-1,1.0,0.25540000000000873
440,1,0.8,1.0,-35.0,-1,1.0,0.38540000000011787
441,1,0.8,1.0,35.0,1,1.0,0.2966000000001259
442,1,0.8,1.0,-35.0,-1,1.0,0.46060000000011314
443,1,0.8,0.125,-35.0,-1,1.0,0.23080000000004475
444,1,0.8,1.0,-35.0,-1,1.0,0.41030000000000655
445,1,0.8,1.0,-35.0,-1,1.0,0.4205000000001746
446,1,0.2,1.0,35.0,1,1.0,1.0073999999999614
447,1,0.2,1.0,35.0,1,1.0,0.3140000000000782
448,1,0.2,0.125,35.0,-1,0.0,0.463799999999992
449,1,0.2,0.125,35.0,1,1.0,0.4338000000000193
450,1,0.2,0.25,35.0,1,1.0,0.20730100000014318
451,1,0.2,1.0,35.0,1,1.0,0.19750100000010207
452,1,0.2,0.125,35.0,1,1.0,0.15069999999991524
453,1,0.2,1.0,-35.0,-1,1.0,0.44089999999982865
454,1,0.2,0.0,35.0,-1,0.0,0.09760000000005675
455,1,0.2,0.0,-35.0,1,0.0,7.187599999999975
456,1,0.2,1.0,35.0,1,1.0,0.43790000000012697
457,1,0.2,0.0,35.0,1,1.0,2.8385000000000673
458,1,0.2,0.25,35.0,1,1.0,0.17480000000000473
459,1,0.2,0.0,35.0,1,1.0,0.03160000000002583
460,1,0.2,1.0,35.0,1,1.0,0.21499999999991815
461,1,0.2,0.0625,35.0,1,1.0,0.20820000000003347
462,1,0.2,1.0,35.0,1,1.0,0.15810000000010405
463,1,0.2,0.125,35.0,1,1.0,0.22519999999985885
464,1,0.2,0.125,35.0,1,1.0,0.20199999999999818
465,1,0.2,0.0,35.0,1,1.0,0.38510100000007697
466,1,0.2,1.0,35.0,1,1.0,0.20899999999983265
467,1,0.2,1.0,35.0,1,1.0,0.18219999999996617
468,1,0.2,0.125,35.0,1,1.0,0.21560100000010607
469,1,0.2,0.0625,35.0,1,1.0,0.0626999999999498
470,1,0.2,0.25,35.0,1,1.0,0.195699999999988
471,1,0.2,0.25,35.0,1,1.0,0.23890000000005784
472,1,0.2,0.0625,35.0,1,1.0,0.21210000000019136
473,1,0.2,0.25,35.0,1,1.0,2.3693009999999504
474,1,0.2,0.25,35.0,1,1.0,0.205600000000004
475,1,0.2,0.0,-35.0,-1,1.0,0.3524999999999636
476,1,0.2,0.0625,35.0,-1,0.0,4.282699999999977
477,1,0.2,1.0,35.0,1,1.0,0.19309999999995853
478,1,0.2,1.0,35.0,1,1.0,0.2796000000000731
479,1,0.2,1.0,-35.0,-1,1.0,0.5630009999999857
480,1,0.2,0.25,35.0,1,1.0,0.2898000000000138
481,1,0.2,1.0,35.0,1,1.0,0.22299999999995634
482,1,0.2,0.0625,-35.0,1,0.0,0.1532999999999447
483,1,0.2,0.0625,-35.0,-1,1.0,0.26310000000012224
484,1,0.2,0.125,35.0,1,1.0,0.2131000000001677
485,1,0.2,0.0625,35.0,1,1.0,2.6298000000001593
486,1,0.2,0.0625,-35.0,1,0.0,0.1771009999999933
487,1,0.2,0.125,35.0,1,1.0,0.2804999999998472
488,1,0.2,0.125,-35.0,1,0.0,0.1999999999998181
489,1,0.2,0.125,35.0,1,1.0,0.2237009999998918
490,1,0.2,0.25,35.0,1,1.0,1.373600000000124
491,1,0.2,0.125,35.0,1,1.0,3.1771010000002207
492,1,0.2,0.125,35.0,1,1.0,0.5007000000000517
493,1,0.2,1.0,35.0,1,1.0,0.18380000000024665
494,1,0.2,0.0,35.0,1,1.0,0.223700000000008
495,1,0.2,0.0625,35.0,1,1.0,0.2438999999999396
496,1,0.2,0.0625,-35.0,1,0.0,0.21739999999999782
497,1,0.2,0.0625,35.0,1,1.0,0.25729999999998654
498,1,0.2,0.125,35.0,1,1.0,0.29100000000016735
499,1,0.2,0.125,35.0,1,1.0,3.364599999999882
500,1,0.2,1.0,35.0,1,1.0,0.19420100000002094
501,1,0.2,0.25,35.0,1,1.0,0.304300000000012
502,1,0.2,1.0,35.0,1,1.0,0.2477000000001226
503,1,0.2,0.25,35.0,1,1.0,0.09830000000010841
504,1,0.2,0.125,35.0,1,1.0,0.4977000000001226
505,1,0.2,0.125,-35.0,-1,1.0,0.3448009999999613
506,1,0.2,0.0625,35.0,-1,0.0,0.19479999999998654
507,1,0.2,0.0625,-35.0,1,0.0,3.8113999999998214
508,1,0.2,1.0,-35.0,-1,1.0,0.38839999999981956
509,1,0.2,1.0,35.0,1,1.0,2.1286009999998896
510,1,0.2,1.0,35.0,1,1.0,0.09810000000015862
511,1,0.2,0.25,35.0,1,1.0,0.2481999999999971
512,1,0.2,1.0,35.0,1,1.0,0.4815000000000964
513,1,0.2,0.0625,-35.0,-1,1.0,0.4755000000000109
514,1,0.2,0.0625,35.0,1,1.0,3.841699999999946
515,1,0.2,0.125,-35.0,-1,1.0,0.4257000000000062
516,1,0.2,1.0,-35.0,-1,1.0,0.37220000000002074
517,1,0.2,0.25,-35.0,-1,1.0,0.3454999999999018
518,1,0.2,0.0,35.0,-1,0.0,0.738800000000083
519,1,0.2,0.0625,35.0,1,1.0,0.25210100000003877
520,1,0.2,0.0625,35.0,1,1.0,0.29290000000014516
521,1,0.2,0.0625,-35.0,1,0.0,0.19590000000016516
522,1,0.2,0.0,35.0,-1,0.0,0.506099999999833
523,1,0.2,0.125,35.0,1,1.0,0.2758000000001175
524,1,0.2,1.0,35.0,1,1.0,0.17580100000009224
525,1,0.2,0.0625,35.0,1,1.0,0.22280000000000655
526,1,0.2,0.0,35.0,1,1.0,5.935900000000174
527,1,0.2,0.0,35.0,1,1.0,0.20970000000011169
528,1,0.8,0.125,-35.0,-1,1.0,0.47640000000001237
529,1,0.8,0.125,-35.0,-1,1.0,0.46970100000021375
530,1,0.8,0.125,-35.0,-1,1.0,0.2969999999997981
531,1,0.8,1.0,-35.0,-1,1.0,0.2134000000000924
532,1,0.8,0.0625,35.0,1,1.0,2.756501000000071
533,1,0.8,1.0,-35.0,-1,1.0,0.26320000000009713
534,1,0.8,1.0,35.0,1,1.0,0.213799999999992
535,1,0.8,1.0,-35.0,-1,1.0,0.3567000000000462
536,1,0.8,0.0625,-35.0,-1,1.0,0.3733999999999469
537,1,0.8,1.0,-35.0,-1,1.0,0.3969999999999345
538,1,0.8,0.125,-35.0,-1,1.0,0.48690000000010514
539,1,0.8,0.0625,35.0,1,1.0,2.463700000000017
540,1,0.8,0.125,35.0,1,1.0,2.417100000000346
541,1,0.8,0.0,-35.0,1,0.0,0.36059900000009293
542,1,0.8,0.0625,-35.0,-1,1.0,0.4339999999999691
543,1,0.8,0.25,35.0,1,1.0,1.657399999999825
544,1,0.8,1.0,-35.0,-1,1.0,0.27739999999994325
545,1,0.8,0.0625,-35.0,-1,1.0,0.45100000000002183
546,1,0.8,1.0,-35.0,-1,1.0,0.24739999999997053
547,1,0.8,0.25,-35.0,-1,1.0,0.21100000000001273
548,1,0.8,0.25,-35.0,-1,1.0,0.20090000000004693
549,1,0.8,0.0625,-35.0,-1,1.0,0.2481999999999971
550,1,0.8,0.125,-35.0,-1,1.0,0.22810000000004038
551,1,0.2,0.125,35.0,-1,0.0,0.154500999999982
552,1,0.2,0.0625,35.0,1,1.0,0.7248999999999342
553,1,0.2,0.125,35.0,1,1.0,2.544800000000123
554,1,0.2,1.0,35.0,1,1.0,0.20840000000021064
555,1,0.2,0.125,35.0,1,1.0,0.20900099999994382
556,1,0.2,0.0,35.0,1,1.0,0.24480000000016844
557,1,0.2,0.0625,35.0,1,1.0,0.6082999999998719
558,1,0.2,0.0625,35.0,1,1.0,1.644900000000007
559,1,0.2,0.125,35.0,-1,0.0,2.3220000000001164
560,1,0.2,0.0625,35.0,1,1.0,0.6052999999999429
561,1,0.2,0.125,35.0,1,1.0,0.19529999999986103
562,1,0.2,0.0,-35.0,1,0.0,3.1854000000000724
563,1,0.2,1.0,35.0,1,1.0,0.1820999999997639
564,1,0.2,0.0625,-35.0,-1,1.0,0.5222000000001117
565,1,0.2,0.25,35.0,1,1.0,0.368900000000167
566,1,0.2,0.125,-35.0,-1,1.0,0.33920100000000275
567,1,0.2,0.25,35.0,1,1.0,0.24260000000003856
568,1,0.2,0.0,35.0,1,1.0,3.470000999999911
569,1,0.2,0.25,35.0,1,1.0,0.20269999999982247
570,1,0.2,1.0,-35.0,-1,1.0,0.29949999999985266
571,1,0.2,1.0,-35.0,-1,1.0,0.21260000000006585
572,1,0.2,0.125,-35.0,-1,1.0,0.3530000000000655
573,1,0.2,0.0625,35.0,1,1.0,3.4928999999999633
574,1,0.2,0.25,35.0,1,1.0,0.20280000000002474
575,1,0.2,0.0,35.0,-1,0.0,0.3695999999997639
576,1,0.2,0.0,35.0,1,1.0,5.042899999999918
577,1,0.2,1.0,35.0,1,1.0,0.11330100000009224
578,1,0.2,0.25,35.0,1,1.0,0.2298000000000684
579,1,0.2,0.25,-35.0,-1,1.0,0.5435999999999694
580,1,0.2,0.25,35.0,1,1.0,0.29340000000001965
581,1,0.2,0.125,35.0,1,1.0,0.6501000000000658
582,1,0.2,0.0625,35.0,1,1.0,0.7502999999999247
583,1,0.2,0.125,35.0,1,1.0,0.3304000000000542
584,1,0.2,0.0625,35.0,1,1.0,0.45029999999997017
585,1,0.2,1.0,-35.0,-1,1.0,0.3138010000000122
586,1,0.2,1.0,35.0,1,1.0,0.6504000000002179
587,1,0.2,0.125,35.0,1,1.0,2.7372999999997774
588,1,0.2,0.0625,35.0,1,1.0,0.20059999999989486
589,1,0.2,0.25,35.0,1,1.0,1.874000000000251
590,1,0.2,0.125,35.0,1,1.0,0.18480099999987942
591,1,0.2,0.0625,-35.0,-1,1.0,2.2540999999998803
592,1,0.2,1.0,35.0,1,1.0,0.3977999999999611
593,1,0.2,0.0625,35.0,-1,0.0,0.3143999999999778
594,1,0.2,0.0,35.0,-1,0.0,0.43780000000015207
595,1,0.2,0.125,-35.0,-1,1.0,0.24120000000016262
596,1,0.2,0.125,35.0,-1,0.0,0.1613999999999578
597,1,0.2,0.25,35.0,1,1.0,0.2418999999999869
598,1,0.2,0.0625,35.0,1,1.0,0.5317000000000007
599,1,0.2,0.25,35.0,1,1.0,1.9418000000000575
600,1,0.2,0.125,35.0,1,1.0,0.26559999999994943
601,1,0.2,1.0,35.0,1,1.0,0.1915999999998803
602,1,0.2,1.0,35.0,1,1.0,0.19830100000012862
603,1,0.2,0.0625,35.0,1,1.0,0.21870000000012624
604,1,0.2,0.0625,35.0,1,1.0,0.36879999999973734
605,1,0.2,0.25,35.0,1,1.0,0.29520000000002256
606,1,0.2,0.25,-35.0,-1,1.0,0.355199999999968
607,1,0.2,0.0,35.0,-1,0.0,0.4319000000000415
608,1,0.2,0.0625,35.0,1,1.0,0.20879999999988286
609,1,0.2,0.25,35.0,1,1.0,0.22879999999986467
610,1,0.2,0.0625,35.0,1,1.0,0.17219999999997526
611,1,0.2,0.0625,35.0,1,1.0,0.21550000000002
612,1,0.2,0.25,35.0,1,1.0,0.2660999999998239
613,1,0.2,0.125,35.0,1,1.0,0.26900099999988925
614,1,0.2,0.25,35.0,1,1.0,0.21570100000008097
615,1,0.2,0.0,35.0,1,1.0,3.4728999999999814
616,1,0.2,0.0625,-35.0,-1,1.0,0.38249999999993634
617,1,0.2,0.0625,35.0,-1,0.0,0.15949999999998
618,1,0.2,0.125,-35.0,-1,1.0,0.38970100000005914
619,1,0.2,1.0,35.0,1,1.0,0.1866010000001097
620,1,0.8,0.0625,-35.0,1,0.0,0.33609999999998763
621,1,0.8,0.125,-35.0,-1,1.0,0.34629999999992833
622,1,0.8,0.0,-35.0,-1,1.0,0.5596000000000458
623,1,0.8,0.125,-35.0,-1,1.0,0.42970100000002276
624,1,0.8,0.125,-35.0,-1,1.0,0.4437000000000353
625,1,0.8,0.25,-35.0,-1,1.0,0.4963999999997668
626,1,0.8,0.0625,-35.0,-1,1.0,0.506900000000087
627,1,0.8,0.125,-35.0,-1,1.0,0.2905000000000655
628,1,0.8,0.25,-35.0,-1,1.0,0.2134000000000924
629,1,0.8,0.0,-35.0,-1,1.0,0.5867009999999482
630,1,0.8,0.0,-35.0,-1,1.0,0.21389999999973952
631,1,0.8,0.0625,-35.0,-1,1.0,0.6568999999999505
632,1,0.8,1.0,35.0,1,1.0,2.4170000000001437
633,1,0.8,0.0625,-35.0,-1,1.0,0.42699999999990723
634,1,0.8,0.0625,35.0,-1,0.0,1.4472000000000662
635,1,0.8,0.0,-35.0,-1,1.0,5.574399999999969
636,1,0.8,0.25,-35.0,-1,1.0,0.3142000000002554
637,1,0.8,0.125,-35.0,-1,1.0,0.27070000000003347
638,1,0.8,0.0625,35.0,-1,0.0,0.2678000000000793
639,1,0.8,0.25,-35.0,-1,1.0,0.24810000000024957
640,1,0.8,0.125,-35.0,-1,1.0,0.528400000000147
641,1,0.8,1.0,35.0,1,1.0,0.23460000000022774
642,1,0.8,0.0,-35.0,1,0.0,0.32799999999997453
643,1,0.8,1.0,35.0,1,1.0,0.28809999999975844
644,1,0.8,0.0,-35.0,-1,1.0,0.4380999999998494
645,1,0.8,0.25,35.0,1,1.0,0.2645999999999731
646,1,0.8,0.125,-35.0,-1,1.0,0.2980999999999767
647,1,0.8,0.125,-35.0,-1,1.0,0.3049999999998363
648,1,0.8,0.0625,-35.0,-1,1.0,0.21220000000039363
649,1,0.8,0.0625,-35.0,-1,1.0,0.28159999999979846
650,1,0.8,1.0,-35.0,-1,1.0,0.10179999999991196
651,1,0.8,0.0,-35.0,-1,1.0,0.5783999999998741
652,1,0.8,0.0,35.0,-1,0.0,0.2851999999998043
653,1,0.8,0.0625,-35.0,-1,1.0,0.5221000000001368
654,1,0.8,0.0625,-35.0,-1,1.0,0.29530099999965387
655,1,0.8,0.125,-35.0,-1,1.0,0.12529999999969732
656,1,0.8,0.125,-35.0,-1,1.0,0.19859999999971478
657,1,0.8,0.125,-35.0,-1,1.0,0.28900000000021464
658,1,0.8,0.25,-35.0,-1,1.0,0.32569999999986976
659,1,0.8,0.0625,-35.0,-1,1.0,0.2755010000000766
660,1,0.8,0.25,35.0,1,1.0,0.27900099999988015
661,1,0.8,0.125,35.0,-1,0.0,0.22240000000010696
662,1,0.8,0.125,-35.0,-1,1.0,0.43600000000014916
663,1,0.8,0.0625,-35.0,-1,1.0,0.38320100000009916
664,1,0.8,0.0625,-35.0,-1,1.0,0.32600000000002183
665,1,0.8,0.25,-35.0,-1,1.0,0.3494999999998072
666,1,0.8,0.0625,-35.0,-1,1.0,0.4928010000003269
667,1,0.8,0.0625,-35.0,-1,1.0,0.36599999999998545
668,1,0.8,0.0625,35.0,-1,0.0,0.45299999999997453
669,1,0.8,0.125,-35.0,-1,1.0,0.2865009999995891
670,1,0.8,0.125,-35.0,-1,1.0,0.28310000000010405
671,1,0.8,0.125,-35.0,-1,1.0,0.8132000000000517
672,1,0.8,0.25,-35.0,-1,1.0,0.3053000000004431
673,1,0.8,0.0625,-35.0,-1,1.0,0.3121000000001004
674,1,0.8,0.25,-35.0,-1,1.0,0.30540000000019063
675,1,0.8,1.0,-35.0,-1,1.0,0.22890000000006694
676,1,0.8,0.125,-35.0,-1,1.0,0.37219999999979336
677,1,0.8,0.25,-35.0,-1,1.0,0.2856000000001586
678,1,0.8,0.125,-35.0,-1,1.0,0.3122000000003027
679,1,0.8,0.0,35.0,-1,0.0,1.8591000000001259
680,1,0.8,0.0625,-35.0,-1,1.0,6.195900000000165
681,1,0.8,0.25,-35.0,-1,1.0,0.6126000000003842
682,1,0.8,1.0,-35.0,-1,1.0,0.20610000000033324
683,1,0.8,0.0625,35.0,1,1.0,0.8528999999998632
684,1,0.8,1.0,-35.0,-1,1.0,0.32960000000002765
685,1,0.8,0.0,-35.0,-1,1.0,1.2829000000001543
686,1,0.8,1.0,-35.0,-1,1.0,0.08310000000028595
687,1,0.2,1.0,-35.0,-1,1.0,0.17970000000013897
688,1,0.2,0.25,35.0,1,1.0,0.4297999999998865
689,1,0.2,1.0,35.0,1,1.0,0.27650000000039654
690,1,0.2,1.0,35.0,1,1.0,0.4465000000004693
691,1,0.2,0.25,-35.0,-1,1.0,0.18329999999969004
692,1,0.2,0.0625,35.0,-1,0.0,0.30680000000029395
693,1,0.2,0.25,35.0,1,1.0,0.3501000000001113
694,1,0.2,0.125,35.0,-1,0.0,0.13360000000011496
695,1,0.2,0.0625,35.0,-1,0.0,0.2535000000002583
696,1,0.2,1.0,35.0,1,1.0,0.23020099999985177
697,1,0.2,0.0625,35.0,1,1.0,0.6203999999997905
698,1,0.2,0.125,35.0,1,1.0,2.5504000000000815
699,1,0.2,0.0,35.0,-1,0.0,3.390700000000379
700,1,0.2,0.0625,35.0,-1,0.0,0.3241000000002714
701,1,0.2,0.25,35.0,1,1.0,0.45760100000006787
702,1,0.2,0.25,35.0,1,1.0,0.2075009999998656
703,1,0.2,0.25,-35.0,1,0.0,1.9143010000002505
704,1,0.2,0.125,35.0,1,1.0,0.19440000000031432
705,1,0.2,0.0625,35.0,1,1.0,0.21770000000060463
706,1,0.2,0.125,35.0,1,1.0,0.23450000000002547
707,1,0.2,0.0,35.0,1,1.0,0.3645000000001346
708,1,0.2,0.25,-35.0,-1,1.0,0.5412000000001171
709,1,0.2,0.25,-35.0,-1,1.0,0.2779000000000451
710,1,0.8,0.0,-35.0,-1,1.0,0.4147000000002663
711,1,0.8,0.125,35.0,1,1.0,0.2048000000004322
712,1,0.8,0.0625,35.0,1,1.0,1.398000000000593
713,1,0.8,0.125,-35.0,-1,1.0,0.35159999999996217
714,1,0.8,1.0,-35.0,-1,1.0,0.23829999999998108
715,1,0.8,0.25,-35.0,-1,1.0,0.40160000000014406
716,1,0.8,0.0625,-35.0,-1,1.0,0.3217000000004191
717,1,0.8,0.125,-35.0,-1,1.0,0.3718000000003485
718,1,0.8,0.25,-35.0,-1,1.0,0.35190000000011423
719,1,0.8,0.125,-35.0,-1,1.0,0.24520099999972444
720,1,0.8,0.125,-35.0,-1,1.0,0.23860000000013315
721,1,0.8,0.25,35.0,-1,0.0,0.348700000000008
722,1,0.8,0.0625,-35.0,-1,1.0,0.29539999999997235
723,1,0.8,0.0625,-35.0,-1,1.0,0.17549999999982901
724,1,0.8,0.125,35.0,1,1.0,0.6954009999994923
725,1,0.8,0.25,-35.0,-1,1.0,0.26890099999991435
726,1,0.8,0.125,-35.0,-1,1.0,0.6389009999998052
727,1,0.8,0.125,-35.0,-1,1.0,0.29580099999975573
728,1,0.8,1.0,-35.0,-1,1.0,0.3124000000002525
729,1,0.8,0.25,-35.0,-1,1.0,0.26569999999992433
730,1,0.8,0.0625,-35.0,1,0.0,0.33270100000027014
731,1,0.8,0.125,-35.0,-1,1.0,0.4294999999997344
732,1,0.8,1.0,-35.0,-1,1.0,0.1693000000000211
733,1,0.8,1.0,35.0,1,1.0,1.0628999999998996
734,1,0.8,1.0,-35.0,-1,1.0,0.23280000000022483
735,1,0.8,1.0,-35.0,-1,1.0,0.44630000000006476
736,1,0.8,0.0,35.0,-1,0.0,0.17969999999968422
737,1,0.8,1.0,-35.0,-1,1.0,0.19640000000026703
738,1,0.8,0.125,-35.0,-1,1.0,0.47319999999990614
739,1,0.8,0.0625,35.0,-1,0.0,0.6066010000004098
740,1,0.8,1.0,35.0,1,1.0,0.2932999999998174
741,1,0.8,1.0,35.0,1,1.0,0.12010099999997692
742,1,0.8,0.0625,35.0,-1,0.0,0.23009999999976571
743,1,0.8,0.125,-35.0,-1,1.0,0.29690000000027794
744,1,0.8,0.0625,-35.0,-1,1.0,0.4371000000001004
745,1,0.8,1.0,-35.0,-1,1.0,0.306999999999789
746,1,0.8,0.125,35.0,1,1.0,2.063799999999901
747,1,0.8,0.125,-35.0,-1,1.0,0.15060000000039508
748,1,0.8,0.0625,35.0,-1,0.0,0.29730000000017753
749,1,0.8,0.25,-35.0,-1,1.0,0.277400000000398
750,1,0.8,0.125,-35.0,-1,1.0,0.3341000000000349
751,1,0.8,1.0,-35.0,-1,1.0,0.22100000000000364
752,1,0.8,0.25,-35.0,-1,1.0,0.31419999999980064
753,1,0.8,1.0,-35.0,-1,1.0,0.3508999999999105
754,1,0.8,0.0625,-35.0,-1,1.0,0.7678000000000793
755,1,0.8,1.0,-35.0,-1,1.0,0.25450099999989106
756,1,0.8,1.0,-35.0,-1,1.0,0.3211999999998625
757,1,0.8,0.25,-35.0,-1,1.0,0.20460000000002765
758,1,0.8,0.0625,-35.0,-1,1.0,0.25460000000020955
759,1,0.8,0.125,-35.0,-1,1.0,1.6480000000001382
760,1,0.8,1.0,-35.0,-1,1.0,0.17140000000017608
761,1,0.8,0.25,-35.0,-1,1.0,0.38810000000012224
762,1,0.8,0.25,-35.0,-1,1.0,0.30820100000028106
763,1,0.8,0.25,35.0,1,1.0,1.048200000000179
764,1,0.8,0.125,-35.0,-1,1.0,0.45499999999992724
765,1,0.8,1.0,-35.0,-1,1.0,0.45169999999961874
766,1,0.8,0.0625,-35.0,-1,1.0,0.2650999999996202
767,1,0.8,0.125,-35.0,-1,1.0,0.5120010000000548
768,1,0.8,1.0,-35.0,-1,1.0,0.1954000000000633
769,1,0.8,0.0,-35.0,-1,1.0,7.158800000000156
770,1,0.8,0.125,-35.0,-1,1.0,0.2921999999998661
771,1,0.8,0.25,35.0,1,1.0,0.5723000000002685
772,1,0.8,0.125,35.0,1,1.0,0.3423000000002503
773,1,0.8,0.0,-35.0,-1,1.0,0.19920000000001892
774,1,0.8,0.125,-35.0,-1,1.0,0.29599999999982174
775,1,0.8,0.25,35.0,1,1.0,0.3694000000000415
776,1,0.8,0.0,-35.0,-1,1.0,2.1493000000000393
777,1,0.8,0.25,35.0,1,1.0,0.35969999999997526
778,1,0.8,0.0625,-35.0,-1,1.0,0.5462999999995191
779,1,0.8,0.125,-35.0,-1,1.0,0.18630000000030122
780,1,0.8,0.25,-35.0,-1,1.0,0.2863999999999578
781,1,0.8,1.0,-35.0,-1,1.0,0.2400009999996655
782,1,0.8,1.0,35.0,1,1.0,0.27999999999974534
783,1,0.8,1.0,-35.0,-1,1.0,0.24350000000004002
784,1,0.8,0.25,-35.0,1,0.0,0.13020000000005894
785,1,0.8,0.125,-35.0,-1,1.0,0.3868999999999687
786,1,0.8,0.125,-35.0,-1,1.0,0.41360000000031505
787,1,0.8,0.0625,-35.0,1,0.0,3.3236000000001695
788,1,0.8,0.125,-35.0,-1,1.0,0.21389999999973952
789,1,0.8,0.125,-35.0,-1,1.0,0.2571000000002641
790,1,0.8,0.125,-35.0,-1,1.0,0.967200000000048
791,1,0.8,1.0,35.0,1,1.0,0.28710000000000946
792,1,0.8,0.125,-35.0,-1,1.0,1.3440009999999347
793,1,0.8,0.0625,-35.0,-1,1.0,0.4074000000000524
794,1,0.8,0.0625,-35.0,-1,1.0,0.24080000000003565
795,1,0.8,1.0,-35.0,-1,1.0,0.2575000000001637
796,1,0.8,0.0,35.0,-1,0.0,0.22430000000031214
797,1,0.8,0.0625,-35.0,-1,1.0,0.13110099999994418
798,1,0.2,1.0,35.0,1,1.0,0.26430000000027576
799,1,0.2,0.25,35.0,1,1.0,0.31120000000009895
800,1,0.2,0.0,35.0,1,1.0,0.29120000000011714
801,1,0.2,1.0,-35.0,-1,1.0,0.4147000000002663
802,1,0.2,1.0,35.0,1,1.0,0.2545999999997548
803,1,0.2,1.0,35.0,1,1.0,0.28130000000010114
804,1,0.2,0.0,35.0,-1,0.0,0.4580000000000837
805,1,0.2,0.0,35.0,1,1.0,0.464900000000398
806,1,0.2,1.0,-35.0,-1,1.0,0.2349010000002636
807,1,0.2,0.125,35.0,1,1.0,0.3483000000001084
808,1,0.2,1.0,35.0,1,1.0,0.3083000000001448
809,1,0.2,0.0625,-35.0,-1,1.0,0.4818999999997686
810,1,0.2,0.125,35.0,-1,0.0,0.3983999999995831
811,1,0.2,0.0625,35.0,-1,0.0,0.25509999999985666
812,1,0.2,0.0,35.0,-1,0.0,0.31190100000048915
813,1,0.2,0.0625,35.0,1,1.0,0.34530099999983577
814,1,0.2,0.125,35.0,1,1.0,0.18869999999969878
815,1,0.2,1.0,35.0,1,1.0,0.18220000000019354
816,1,0.2,0.125,35.0,1,1.0,1.09900000000016
817,1,0.2,0.25,-35.0,-1,1.0,0.38239999999996144
818,1,0.2,0.125,35.0,1,1.0,1.7956999999996697
819,1,0.2,0.25,35.0,1,1.0,2.5956999999998516
820,1,0.2,0.0625,35.0,1,1.0,0.24250000000029104
821,1,0.2,1.0,35.0,1,1.0,0.2760000000002947
822,1,0.2,1.0,35.0,1,1.0,0.2593000000001666
823,1,0.2,1.0,-35.0,-1,1.0,0.30270100000007005
824,1,0.2,0.0625,35.0,-1,0.0,0.952701000000161
825,1,0.2,0.25,35.0,1,1.0,0.31280100000003586
826,1,0.2,0.0625,35.0,-1,0.0,0.2262010000004011
827,1,0.2,1.0,35.0,1,1.0,0.27620100000012826
828,1,0.2,1.0,35.0,1,1.0,0.20300099999985832
829,1,0.2,0.0625,35.0,1,1.0,2.4330010000003313
830,1,0.2,0.0625,35.0,1,1.0,0.22650199999998222
831,1,0.2,0.25,-35.0,-1,1.0,0.2899010000000999
832,1,0.2,0.125,35.0,1,1.0,0.6199010000000271
833,1,0.2,1.0,35.0,1,1.0,0.2799009999998816
834,1,0.2,0.125,35.0,1,1.0,0.3967020000000048
835,1,0.2,0.0,35.0,1,1.0,5.750200999999834
836,1,0.2,1.0,35.0,1,1.0,0.4904019999994489
837,1,0.2,0.25,-35.0,-1,1.0,0.3073010000002796
838,1,0.2,0.125,35.0,1,1.0,5.920400999999856
839,1,0.2,0.0,35.0,1,1.0,1.937300999999934
840,1,0.2,0.25,35.0,1,1.0,4.630801000000247
841,1,0.2,0.25,35.0,1,1.0,0.24760100000048624
842,1,0.2,1.0,35.0,1,1.0,0.23430099999995946
843,1,0.2,0.125,35.0,1,1.0,0.4910020000002078
844,1,0.2,1.0,35.0,1,1.0,0.2710019999999531
845,1,0.2,0.125,35.0,1,1.0,0.46770199999991746
846,1,0.2,0.125,35.0,1,1.0,0.35120099999994636
847,1,0.2,1.0,35.0,1,1.0,0.2012019999997392
848,1,0.2,1.0,35.0,1,1.0,0.3414010000001326
849,1,0.2,0.25,35.0,1,1.0,5.738000999999713
850,1,0.2,0.125,35.0,1,1.0,0.43160200000011173
851,1,0.2,0.25,35.0,1,1.0,0.3349009999997179
852,1,0.2,0.25,35.0,1,1.0,0.18500100000028397
853,1,0.2,0.25,35.0,1,1.0,10.945000999999593
854,1,0.2,0.0,35.0,1,1.0,0.30870099999992817
855,1,0.2,1.0,35.0,1,1.0,0.2586010000004535
856,1,0.2,1.0,-35.0,-1,1.0,0.39200099999970917
857,1,0.2,0.0625,-35.0,1,0.0,6.3854019999998854
858,1,0.2,0.25,35.0,1,1.0,0.26560099999960585
859,1,0.2,0.0625,35.0,1,1.0,0.4190009999997528
860,1,0.2,0.125,35.0,1,1.0,0.3158010000001923
861,1,0.2,1.0,35.0,1,1.0,0.22910200000023906
862,1,0.2,0.25,35.0,1,1.0,6.3791009999999915
863,1,0.2,0.0625,35.0,1,1.0,1.282701000000543
864,1,0.2,0.125,35.0,1,1.0,2.9593010000003233
865,1,0.2,0.25,35.0,1,1.0,5.306200999999874
866,1,0.2,0.0625,35.0,1,1.0,0.5332019999996191
867,1,0.2,0.0625,35.0,1,1.0,4.126500999999735
868,1,0.2,0.125,-35.0,-1,1.0,0.28990099999964514
869,1,0.2,0.25,35.0,1,1.0,0.419901000000209
870,1,0.2,0.125,35.0,1,1.0,6.060000999999829
871,1,0.2,0.25,-35.0,-1,1.0,0.22020199999997203
872,1,0.2,1.0,35.0,1,1.0,0.20020099999965169
873,1,0.2,0.0625,35.0,1,1.0,7.2270010000002
874,1,0.2,1.0,35.0,1,1.0,0.21720100000038656
875,1,0.2,0.125,-35.0,-1,1.0,7.150600999999824
876,1,0.2,0.25,35.0,1,1.0,0.510801000000356
877,1,0.2,0.125,35.0,1,1.0,5.797600999999759
878,1,0.8,0.125,-35.0,-1,1.0,0.420900999999958
879,1,0.8,0.125,-35.0,-1,1.0,0.9611010000003262
880,1,0.8,0.0625,35.0,1,1.0,4.941201000000092
881,1,0.8,0.0,-35.0,-1,1.0,0.5813010000001668
882,1,0.8,0.0625,-35.0,-1,1.0,0.26800100000036764
883,1,0.8,1.0,-35.0,-1,1.0,0.24130099999956656
884,1,0.8,0.0,-35.0,-1,1.0,0.24140099999976883
885,1,0.8,0.125,-35.0,-1,1.0,0.218101000000388
886,1,0.8,0.25,-35.0,-1,1.0,0.2816020000000208
887,1,0.8,0.0625,-35.0,-1,1.0,0.611500999999862
888,1,0.8,1.0,35.0,1,1.0,1.581601000000319
889,1,0.8,0.25,-35.0,-1,1.0,0.22840099999984886
890,1,0.8,0.25,-35.0,-1,1.0,0.28510099999994054
891,1,0.8,0.25,-35.0,-1,1.0,0.08510100000012244
892,1,0.8,1.0,-35.0,-1,1.0,0.1253010000004906
893,1,0.8,0.0625,-35.0,-1,1.0,0.511801000000105
894,1,0.8,0.0,-35.0,-1,1.0,0.33200099999976374
895,1,0.8,0.125,-35.0,-1,1.0,0.6854009999997288
896,1,0.8,0.0625,-35.0,-1,1.0,0.33540199999970355
897,1,0.8,0.125,-35.0,-1,1.0,0.1955009999996946
898,1,0.8,0.125,-35.0,-1,1.0,0.3489009999998416
899,1,0.2,0.125,35.0,1,1.0,0.46230100000002494
900,1,0.2,0.25,35.0,-1,0.0,1.1089010000000599
901,1,0.2,0.0625,35.0,1,1.0,2.6724020000001474
902,1,0.2,0.125,35.0,1,1.0,0.32240100000035454
903,1,0.2,0.125,35.0,1,1.0,2.6692009999997026
904,1,0.2,0.0625,35.0,1,1.0,0.612601000000268
905,1,0.2,0.0625,35.0,-1,0.0,3.4461009999999987
906,1,0.2,0.25,35.0,1,1.0,0.42960100000027523
907,1,0.2,0.0,35.0,-1,0.0,0.24950100000023667
908,1,0.2,1.0,35.0,1,1.0,0.27290099999981976
909,1,0.2,0.0625,35.0,1,1.0,3.1996009999998023
910,1,0.2,0.25,35.0,1,1.0,0.33980200000041805
911,1,0.2,0.0625,35.0,1,1.0,6.249801999999818
912,1,0.2,0.0625,35.0,-1,0.0,0.16000100000019302
913,1,0.2,0.0625,35.0,-1,0.0,0.35350100000005114
914,1,0.2,1.0,-35.0,-1,1.0,0.24000100000012026
915,1,0.2,0.0,35.0,-1,0.0,0.3236010000000533
916,1,0.2,0.0625,35.0,1,1.0,0.33020100000021557
917,1,0.2,1.0,35.0,1,1.0,0.24690099999997983
918,1,0.2,0.25,35.0,1,1.0,0.41050200000017867
919,1,0.2,0.0625,35.0,1,1.0,8.757100999999693
920,1,0.2,1.0,-35.0,-1,1.0,0.21400100000028033
921,1,0.2,0.25,35.0,1,1.0,0.4674009999998816
922,1,0.2,1.0,35.0,1,1.0,0.3974009999997179
923,1,0.2,0.125,35.0,1,1.0,0.5507020000004559
924,1,0.2,0.125,35.0,-1,0.0,0.4708010000003924
925,1,0.2,0.0625,35.0,1,1.0,5.894300999999814
926,1,0.2,0.125,-35.0,-1,1.0,3.1779019999999036
927,1,0.2,0.0625,35.0,1,1.0,3.814701000000241
928,1,0.2,0.0625,35.0,1,1.0,4.254601000000093
929,1,0.2,0.0625,35.0,1,1.0,2.2715009999997164
930,1,0.2,0.0,-35.0,-1,1.0,0.23150099999975282
931,1,0.2,1.0,35.0,1,1.0,0.34830200000033074
932,1,0.2,1.0,-35.0,-1,1.0,0.25840100000004895
933,1,0.2,1.0,35.0,1,1.0,0.2617009999999027
934,1,0.2,0.0625,35.0,-1,0.0,6.601900999999998
935,1,0.2,0.25,35.0,-1,0.0,2.8921009999999114
936,1,0.2,1.0,-35.0,-1,1.0,0.25220100000024104
937,1,0.2,0.0,35.0,1,1.0,0.8723009999998794
938,1,0.2,0.25,35.0,1,1.0,0.4056020000002718
939,1,0.2,0.25,35.0,1,1.0,0.3390009999998256
940,1,0.2,0.125,35.0,-1,0.0,4.262501000000157
941,1,0.2,0.25,35.0,1,1.0,0.26920099999961167
942,1,0.2,0.0,35.0,1,1.0,8.21610099999998
943,1,0.2,1.0,35.0,1,1.0,0.33970099999987724
944,1,0.2,0.125,-35.0,-1,1.0,0.03970200000003388
945,1,0.2,0.0625,-35.0,1,0.0,7.4099019999998745
946,1,0.2,0.0625,35.0,1,1.0,0.7998010000001159
947,1,0.2,0.0625,35.0,1,1.0,18.49320099999977
948,1,0.2,0.25,-35.0,-1,1.0,0.5937010000002374
949,1,0.2,1.0,-35.0,-1,1.0,0.1871009999999842
950,1,0.2,0.0,35.0,1,1.0,2.673800999999912
951,1,0.2,0.125,-35.0,-1,1.0,0.4507010000002083
952,1,0.2,0.25,35.0,1,1.0,6.487201000000368
953,1,0.2,0.125,-35.0,-1,1.0,0.2809019999995144
954,1,0.2,0.25,35.0,1,1.0,9.847500999999738
955,1,0.2,1.0,35.0,1,1.0,0.2478009999999813
956,1,0.2,0.125,35.0,1,1.0,6.461100999999871
957,1,0.2,0.0,35.0,-1,0.0,0.32460100000025705
958,1,0.2,1.0,-35.0,-1,1.0,0.3047010000004775
959,1,0.2,0.25,35.0,1,1.0,0.4814010000000053
960,1,0.2,0.125,35.0,1,1.0,1.5981010000000424
961,1,0.2,1.0,35.0,1,1.0,0.2249019999999291
962,1,0.2,0.125,35.0,1,1.0,8.06830200000013
963,1,0.2,0.0625,35.0,1,1.0,0.4119010000003982
964,1,0.2,1.0,35.0,1,1.0,0.24190100000032544
965,1,0.8,0.0625,-35.0,-1,1.0,0.5387009999999464
966,1,0.8,0.125,-35.0,-1,1.0,0.7687019999998483
967,1,0.8,0.0625,-35.0,-1,1.0,0.4721009999998387
968,1,0.8,1.0,-35.0,-1,1.0,0.23550100000011298
969,1,0.8,0.0625,-35.0,-1,1.0,0.2655009999998583
970,1,0.8,1.0,-35.0,-1,1.0,0.5724009999998998
971,1,0.8,1.0,35.0,1,1.0,0.4956010000000788
972,1,0.8,0.125,35.0,1,1.0,5.599001000000044
973,1,0.8,0.125,-35.0,-1,1.0,0.24580100000002858
974,1,0.8,1.0,-35.0,-1,1.0,0.22580099999959202
975,1,0.8,1.0,-35.0,-1,1.0,0.6158009999999194
976,1,0.8,0.125,-35.0,-1,1.0,0.26270100000010643
977,1,0.8,1.0,35.0,1,1.0,0.30950099999972736
978,1,0.8,0.0625,35.0,-1,0.0,9.39620100000002
979,1,0.8,0.0625,35.0,1,1.0,13.32640100000026
980,1,0.8,0.0,-35.0,1,0.0,6.933400999999776
981,1,0.8,0.125,-35.0,-1,1.0,0.37710100000003877
982,1,0.8,0.25,-35.0,-1,1.0,4.093800999999985
983,1,0.8,0.125,-35.0,-1,1.0,0.2605020000000877
984,1,0.8,0.0,35.0,1,1.0,11.68720200000007
985,1,0.2,0.0625,35.0,1,1.0,0.7175009999996291
986,1,0.2,0.0625,35.0,1,1.0,0.25750099999959275
987,1,0.2,0.25,35.0,1,1.0,8.537600999999995
988,1,0.2,0.0,35.0,1,1.0,5.497800999999981
989,1,0.2,0.0625,35.0,1,1.0,6.704901999999947
990,1,0.2,0.0625,35.0,1,1.0,10.354902000000038
991,1,0.2,0.0,35.0,1,1.0,1.9886009999995622
992,1,0.2,1.0,35.0,1,1.0,0.22210099999983868
993,1,0.2,1.0,35.0,1,1.0,0.38540100000000166
994,1,0.2,0.25,35.0,1,1.0,1.5354010000000926
995,1,0.2,0.25,35.0,1,1.0,1.449000999999953
1,2,0.8,0.125,-35.0,1,0.0,0.9144999999999999
2,2,0.8,0.25,-35.0,-1,1.0,1.883700000000001
3,2,0.8,0.25,-35.0,-1,1.0,0.2735010000000013
4,2,0.8,0.25,-35.0,1,0.0,0.6790009999999995
5,2,0.8,0.0625,-35.0,-1,1.0,0.2586999999999975
6,2,0.8,1.0,35.0,1,1.0,0.2536999999999985
7,2,0.8,0.125,-35.0,-1,1.0,0.26569999999999894
8,2,0.8,0.125,-35.0,-1,1.0,0.304199999999998
9,2,0.8,0.0625,-35.0,-1,1.0,0.6720009999999981
10,2,0.8,1.0,35.0,1,1.0,0.21119999999999806
11,2,0.8,1.0,35.0,1,1.0,0.2775000000000105
12,2,0.8,0.0,-35.0,-1,1.0,1.2789000000000073
13,2,0.8,1.0,-35.0,-1,1.0,0.2394999999999996
14,2,0.8,0.0625,-35.0,-1,1.0,0.3019999999999996
15,2,0.8,0.25,-35.0,-1,1.0,0.32550000000000523
16,2,0.8,1.0,-35.0,-1,1.0,0.24519999999999698
17,2,0.8,0.25,-35.0,-1,1.0,0.2837999999999994
18,2,0.8,0.125,35.0,1,1.0,0.4217000000000013
19,2,0.8,0.25,-35.0,-1,1.0,6.193801000000008
20,2,0.8,0.0,35.0,1,1.0,1.0429999999999922
21,2,0.8,1.0,35.0,1,1.0,0.23649999999999238
22,2,0.8,0.25,-35.0,-1,1.0,0.29260099999999056
23,2,0.8,0.125,-35.0,-1,1.0,0.2820999999999998
24,2,0.8,0.25,-35.0,-1,1.0,0.22539999999999338
25,2,0.8,1.0,-35.0,-1,1.0,0.31159999999999854
26,2,0.8,0.0625,-35.0,-1,1.0,0.393700999999993
27,2,0.8,0.0625,-35.0,-1,1.0,2.5194000000000045
28,2,0.8,0.0625,-35.0,-1,1.0,0.32089999999999463
29,2,0.8,0.125,-35.0,-1,1.0,0.265199999999993
30,2,0.8,0.125,-35.0,-1,1.0,0.2179999999999893
31,2,0.8,0.25,-35.0,-1,1.0,0.1997999999999962
32,2,0.8,0.25,-35.0,-1,1.0,4.216200000000001
33,2,0.8,0.0625,35.0,1,1.0,0.3125999999999891
34,2,0.8,0.0625,-35.0,-1,1.0,0.21769999999999357
35,2,0.8,0.125,35.0,-1,0.0,2.780799999999985
36,2,0.8,1.0,-35.0,-1,1.0,0.17440100000000314
37,2,0.8,0.25,-35.0,-1,1.0,3.6083
38,2,0.8,1.0,-35.0,-1,1.0,0.2371999999999872
39,2,0.8,0.125,-35.0,-1,1.0,7.2826009999999854
40,2,0.8,0.25,-35.0,-1,1.0,3.1912010000000066
41,2,0.8,0.0625,-35.0,-1,1.0,0.2658000000000129
42,2,0.8,0.0,-35.0,-1,1.0,2.4519000000000233
43,2,0.8,0.0625,-35.0,-1,1.0,3.0944010000000333
44,2,0.8,0.0,-35.0,-1,1.0,0.3201000000000249
45,2,0.8,0.0625,35.0,-1,0.0,0.30640100000002235
46,2,0.8,0.125,-35.0,-1,1.0,0.4687009999999816
47,2,0.8,1.0,-35.0,-1,1.0,0.1997000000000071
48,2,0.8,0.0625,-35.0,-1,1.0,4.163700000000034
49,2,0.8,0.0625,-35.0,-1,1.0,0.268100000000004
50,2,0.8,0.125,35.0,1,1.0,0.5585000000000093
51,2,0.8,0.25,-35.0,-1,1.0,0.24840000000003215
52,2,0.8,0.125,35.0,1,1.0,1.8477000000000032
53,2,0.8,0.0,35.0,-1,0.0,0.33569999999997435
54,2,0.8,0.125,-35.0,-1,1.0,0.26940000000001874
55,2,0.8,0.25,-35.0,-1,1.0,0.23279999999999745
56,2,0.8,1.0,-35.0,-1,1.0,0.20990000000000464
57,2,0.8,1.0,-35.0,-1,1.0,2.7657010000000355
58,2,0.8,0.25,-35.0,-1,1.0,0.251700000000028
59,2,0.8,0.0625,-35.0,-1,1.0,4.981799999999993
60,2,0.8,0.125,-35.0,-1,1.0,0.2640000000000384
61,2,0.8,1.0,35.0,1,1.0,0.6269000000000062
62,2,0.8,0.25,-35.0,-1,1.0,0.2015999999999849
63,2,0.8,1.0,-35.0,-1,1.0,0.20660000000000878
64,2,0.8,1.0,-35.0,-1,1.0,0.19870000000000232
65,2,0.8,1.0,35.0,1,1.0,0.8663019999999904
66,2,0.8,0.25,-35.0,-1,1.0,0.188902000000013
67,2,0.8,0.0,-35.0,-1,1.0,3.7292010000000175
68,2,0.8,0.125,-35.0,-1,1.0,0.8985010000000386
69,2,0.8,0.25,-35.0,-1,1.0,1.4946009999999887
70,2,0.8,0.0625,-35.0,1,0.0,1.5098010000000102
71,2,0.8,0.25,-35.0,-1,1.0,0.17800100000002317
72,2,0.8,0.125,-35.0,-1,1.0,0.29130100000000425
73,2,0.8,0.125,35.0,-1,0.0,1.1253010000000074
74,2,0.8,0.25,-35.0,-1,1.0,0.1805010000000209
75,2,0.8,1.0,-35.0,-1,1.0,0.16990100000001007
76,2,0.8,0.25,-35.0,-1,1.0,3.3203010000000006
77,2,0.2,0.0625,-35.0,-1,1.0,3.109002000000004
78,2,0.2,0.0625,-35.0,-1,1.0,1.6639010000000098
79,2,0.2,1.0,35.0,1,1.0,0.24210100000004786
80,2,0.2,0.0625,-35.0,-1,1.0,0.20190099999996391
81,2,0.2,0.25,35.0,1,1.0,2.353901999999948
82,2,0.2,1.0,-35.0,-1,1.0,0.17770099999995637
83,2,0.2,1.0,-35.0,-1,1.0,0.17850100000003977
84,2,0.2,0.0625,35.0,-1,0.0,1.9405009999999834
85,2,0.2,0.125,35.0,-1,0.0,6.576100999999994
86,2,0.2,0.125,35.0,-1,0.0,0.3672009999999659
87,2,0.2,0.125,35.0,1,1.0,0.7656009999999469
88,2,0.2,1.0,-35.0,-1,1.0,0.21580099999999902
89,2,0.2,0.125,35.0,-1,0.0,0.4734019999999646
90,2,0.2,0.125,-35.0,-1,1.0,0.2940009999999802
91,2,0.2,0.0,35.0,-1,0.0,0.30810100000002194
92,2,0.2,0.0625,35.0,-1,0.0,1.5375020000000177
93,2,0.2,0.125,35.0,-1,0.0,0.40970099999992726
94,2,0.2,0.0,35.0,-1,0.0,0.3150009999999952
95,2,0.2,0.25,35.0,-1,0.0,4.296600999999953
96,2,0.2,0.125,35.0,-1,0.0,2.1005009999999515
97,2,0.8,1.0,35.0,1,1.0,0.2463009999999599
98,2,0.8,0.0625,-35.0,-1,1.0,0.2121010000000183
99,2,0.8,0.25,-35.0,-1,1.0,6.35730099999995
100,2,0.8,0.125,-35.0,-1,1.0,1.5635019999999713
101,2,0.8,0.0625,-35.0,-1,1.0,0.23680100000001403
102,2,0.8,0.25,-35.0,-1,1.0,0.27370099999996
103,2,0.8,0.25,35.0,-1,0.0,4.282901999999979
104,2,0.8,0.0,-35.0,-1,1.0,0.20070099999998092
105,2,0.8,0.0625,-35.0,-1,1.0,0.3153019999999742
106,2,0.8,0.0,-35.0,-1,1.0,0.3552010000000223
107,2,0.8,1.0,-35.0,-1,1.0,0.1802009999999541
108,2,0.8,0.0,-35.0,-1,1.0,2.696201999999971
109,2,0.8,1.0,-35.0,-1,1.0,0.17240099999997938
110,2,0.8,0.25,-35.0,-1,1.0,0.25750099999999065
111,2,0.8,0.25,-35.0,-1,1.0,2.2957009999999514
112,2,0.8,0.125,35.0,-1,0.0,0.4573010000000295
113,2,0.8,0.125,-35.0,-1,1.0,0.22380099999998038
114,2,0.8,0.0,-35.0,-1,1.0,0.2677009999999882
115,2,0.8,0.25,-35.0,-1,1.0,0.3267010000000141
116,2,0.8,0.25,-35.0,-1,1.0,0.05640099999999393
117,2,0.8,0.125,-35.0,-1,1.0,2.981000999999992
118,2,0.8,0.125,-35.0,-1,1.0,0.2496009999999842
119,2,0.8,1.0,-35.0,-1,1.0,0.17950099999995928
120,2,0.8,0.125,35.0,1,1.0,0.3035019999999804
121,2,0.8,0.25,35.0,1,1.0,0.8638010000000236
122,2,0.8,0.125,35.0,-1,0.0,1.6014010000000098
123,2,0.8,0.0625,-35.0,-1,1.0,0.2711010000000442
124,2,0.8,0.125,-35.0,-1,1.0,1.409700999999984
125,2,0.8,0.25,-35.0,-1,1.0,0.998600999999951
126,2,0.8,0.25,-35.0,-1,1.0,0.31670099999996637
127,2,0.8,0.125,-35.0,-1,1.0,4.6752010000000155
128,2,0.8,0.25,-35.0,-1,1.0,0.22500099999996337
129,2,0.8,0.0625,-35.0,-1,1.0,0.26400099999995064
130,2,0.8,0.25,-35.0,-1,1.0,2.738802000000021
131,2,0.8,0.25,35.0,-1,0.0,7.277601000000004
132,2,0.8,0.0,-35.0,-1,1.0,0.48710199999999304
133,2,0.8,0.0,-35.0,-1,1.0,4.0398009999999545
134,2,0.8,1.0,-35.0,-1,1.0,0.2210010000000011
135,2,0.8,0.125,-35.0,-1,1.0,4.173800999999969
136,2,0.8,0.0625,35.0,-1,0.0,11.314002000000016
137,2,0.8,0.25,-35.0,-1,1.0,0.21110200000003942
138,2,0.8,0.125,-35.0,-1,1.0,0.20760100000001103
139,2,0.8,0.0,-35.0,-1,1.0,4.192501999999934
140,2,0.8,0.25,-35.0,-1,1.0,0.30120099999999184
141,2,0.8,0.0625,35.0,-1,0.0,0.36710199999993165
142,2,0.8,0.25,-35.0,-1,1.0,0.3202009999999973
143,2,0.8,1.0,-35.0,-1,1.0,0.18590099999994436
144,2,0.8,0.25,-35.0,-1,1.0,2.4148010000000113
145,2,0.8,0.25,-35.0,-1,1.0,0.22020099999997456
146,2,0.8,0.25,-35.0,-1,1.0,0.28100100000006023
147,2,0.8,0.25,35.0,-1,0.0,11.058600999999953
148,2,0.8,0.0625,35.0,-1,0.0,0.2174009999999953
149,2,0.8,1.0,-35.0,-1,1.0,0.2031010000000606
150,2,0.8,0.0625,-35.0,-1,1.0,0.8930010000000266
151,2,0.8,1.0,-35.0,-1,1.0,4.273702000000071
152,2,0.8,1.0,-35.0,-1,1.0,0.1812009999999873
153,2,0.8,0.0625,-35.0,-1,1.0,0.198900999999978
154,2,0.8,0.125,-35.0,-1,1.0,0.30500100000006114
155,2,0.8,1.0,-35.0,-1,1.0,0.20960100000002058
156,2,0.8,0.0625,35.0,-1,0.0,0.2574009999999589
157,2,0.8,0.125,-35.0,1,0.0,4.83090100000004
158,2,0.8,1.0,-35.0,-1,1.0,0.21330000000000382
159,2,0.8,1.0,-35.0,-1,1.0,0.20820200000002842
160,2,0.8,0.0625,-35.0,-1,1.0,0.2915010000000393
161,2,0.8,0.25,-35.0,-1,1.0,0.21750200000008135
162,2,0.8,0.25,-35.0,-1,1.0,0.35070100000007187
163,2,0.8,0.25,-35.0,-1,1.0,0.3098010000001068
164,2,0.8,1.0,-35.0,-1,1.0,0.17990100000008624
165,2,0.8,1.0,-35.0,-1,1.0,0.2070009999999911
166,2,0.8,0.0,35.0,1,1.0,0.813301000000024
167,2,0.8,0.25,35.0,-1,0.0,5.329701
168,2,0.8,1.0,-35.0,-1,1.0,0.3642019999999775
169,2,0.8,0.25,-35.0,-1,1.0,3.4181010000000924
170,2,0.8,0.0,-35.0,-1,1.0,5.708201000000031
171,2,0.8,0.125,-35.0,-1,1.0,1.7324009999999817
172,2,0.8,0.25,-35.0,-1,1.0,0.01280100000008133
173,2,0.8,1.0,35.0,1,1.0,0.9217009999999846
174,2,0.8,0.0625,35.0,-1,0.0,3.4451010000000224
175,2,0.8,0.25,-35.0,-1,1.0,17.942101000000093
176,2,0.8,0.25,-35.0,-1,1.0,5.272801000000072
177,2,0.8,0.25,-35.0,-1,1.0,0.2837010000000646
178,2,0.8,0.0625,-35.0,-1,1.0,2.7780010000000175
179,2,0.8,0.0625,-35.0,-1,1.0,0.1661020000000235
180,2,0.8,0.0625,-35.0,-1,1.0,0.20420100000001185
181,2,0.8,1.0,35.0,1,1.0,0.31730100000004313
182,2,0.8,0.125,-35.0,-1,1.0,0.7996009999999387
183,2,0.8,0.0,-35.0,-1,1.0,3.7739020000001346
184,2,0.8,0.125,35.0,-1,0.0,0.18120200000009845
185,2,0.8,0.0625,-35.0,-1,1.0,0.18780100000003586
186,2,0.8,1.0,-35.0,-1,1.0,0.25030100000003586
187,2,0.8,0.125,-35.0,-1,1.0,0.22230100000001585
188,2,0.2,0.0625,35.0,-1,0.0,5.6424010000000635
189,2,0.2,0.125,-35.0,-1,1.0,0.15290100000015627
190,2,0.2,0.25,35.0,1,1.0,0.5129009999999425
191,2,0.2,0.0625,-35.0,-1,1.0,6.271101000000044
192,2,0.2,0.125,-35.0,-1,1.0,5.360200999999961
193,2,0.2,0.0625,35.0,-1,0.0,0.17610099999990325
194,2,0.2,1.0,-35.0,-1,1.0,0.20810100000005605
195,2,0.2,0.125,35.0,-1,0.0,0.34110100000009425
196,2,0.2,0.125,35.0,-1,0.0,3.8356010000001106
197,2,0.2,0.0,35.0,-1,0.0,0.21970099999998638
198,2,0.2,0.25,35.0,1,1.0,0.37290200000006735
199,2,0.2,0.0,35.0,-1,0.0,0.2942010000000437
200,2,0.2,0.0625,35.0,-1,0.0,10.963402000000087
201,2,0.2,0.0,-35.0,-1,1.0,0.27870099999995546
202,2,0.2,0.0,35.0,-1,0.0,0.2617010000000164
203,2,0.2,0.25,35.0,1,1.0,0.4572009999999409
204,2,0.2,1.0,35.0,1,1.0,0.2144020000000637
205,2,0.2,0.25,35.0,-1,0.0,2.9484010000001035
206,2,0.2,0.25,35.0,1,1.0,0.36680200000000696
207,2,0.2,0.25,35.0,1,1.0,0.4147009999999227
208,2,0.2,0.25,-35.0,-1,1.0,12.709802000000082
209,2,0.2,0.0625,35.0,-1,0.0,0.22410200000001623
210,2,0.2,0.125,35.0,-1,0.0,0.2413010000000213
211,2,0.2,0.125,35.0,1,1.0,0.47560199999998076
212,2,0.2,1.0,35.0,1,1.0,0.28030100000000857
213,2,0.2,0.0,35.0,-1,0.0,10.239501000000018
214,2,0.2,0.125,35.0,1,1.0,0.6562010000001237
215,2,0.2,0.25,35.0,1,1.0,0.38360099999999875
216,2,0.2,0.125,-35.0,-1,1.0,0.2009010000000444
217,2,0.2,1.0,35.0,1,1.0,4.6793010000000095
218,2,0.2,0.125,35.0,1,1.0,0.46420100000011644
219,2,0.2,0.125,35.0,-1,0.0,9.139302000000043
220,2,0.2,0.125,35.0,-1,0.0,7.174801000000002
221,2,0.2,0.125,35.0,-1,0.0,0.25240100000007715
222,2,0.2,0.25,35.0,-1,0.0,0.28870100000006005
223,2,0.2,1.0,35.0,1,1.0,0.35290100000008806
224,2,0.2,0.25,35.0,1,1.0,0.38730100000009315
225,2,0.2,0.0625,-35.0,-1,1.0,7.30920100000003
226,2,0.2,0.25,-35.0,-1,1.0,0.22380100000009406
227,2,0.2,0.25,35.0,1,1.0,4.022700999999984
228,2,0.2,0.125,35.0,-1,0.0,0.16160100000001876
229,2,0.2,0.0625,35.0,1,1.0,0.6629010000000335
230,2,0.2,0.0625,35.0,-1,0.0,10.665200999999911
231,2,0.2,0.0625,-35.0,-1,1.0,0.25140200000009827
232,2,0.8,0.25,-35.0,-1,1.0,0.25840200000004643
233,2,0.8,0.125,-35.0,-1,1.0,0.4413009999999531
234,2,0.8,0.125,-35.0,-1,1.0,0.4110010000000557
235,2,0.8,0.25,35.0,-1,0.0,4.021301000000108
236,2,0.8,1.0,35.0,1,1.0,0.532901000000038
237,2,0.8,0.0625,-35.0,-1,1.0,15.548600999999962
238,2,0.8,0.125,-35.0,-1,1.0,0.3164010000000417
239,2,0.8,0.0625,-35.0,-1,1.0,0.28040099999998347
240,2,0.8,0.0625,35.0,-1,0.0,0.28280100000006314
241,2,0.8,0.25,-35.0,-1,1.0,0.20200100000010934
242,2,0.8,0.0,-35.0,-1,1.0,0.30900100000008024
243,2,0.8,0.0625,35.0,-1,0.0,5.059701000000018
244,2,0.8,1.0,-35.0,-1,1.0,0.18020100000001094
245,2,0.8,0.0,-35.0,-1,1.0,4.508900999999923
246,2,0.8,1.0,35.0,1,1.0,0.30320100000005823
247,2,0.8,0.125,-35.0,-1,1.0,0.18160100000000057
248,2,0.8,1.0,-35.0,-1,1.0,0.2312010000000555
249,2,0.8,0.0625,-35.0,-1,1.0,0.40960100000017974
250,2,0.8,0.0625,-35.0,-1,1.0,0.8146010000000388
251,2,0.8,0.0625,-35.0,-1,1.0,0.501901000000089
252,2,0.8,0.25,-35.0,-1,1.0,0.2050010000000384
253,2,0.8,1.0,-35.0,-1,1.0,0.2511009999999487
254,2,0.8,0.0,-35.0,-1,1.0,2.306701000000089
255,2,0.8,0.0625,35.0,-1,0.0,0.2172010000000455
256,2,0.8,0.125,-35.0,-1,1.0,0.21200099999998656
257,2,0.8,0.25,-35.0,-1,1.0,0.20380099999999857
258,2,0.8,0.125,-35.0,-1,1.0,0.19560100000001057
259,2,0.8,0.0,-35.0,-1,1.0,0.27040100000010625
260,2,0.8,0.0,-35.0,-1,1.0,14.693201000000045
261,2,0.8,0.25,-35.0,-1,1.0,0.2563020000001188
262,2,0.8,0.125,-35.0,-1,1.0,0.22940200000005007
263,2,0.8,0.25,-35.0,-1,1.0,0.2729010000001608
264,2,0.8,0.0,-35.0,-1,1.0,10.469401000000062
265,2,0.8,0.0625,-35.0,-1,1.0,0.32690099999990707
266,2,0.8,0.25,-35.0,-1,1.0,0.25650100000007114
267,2,0.8,0.25,35.0,1,1.0,0.4831010000000333
268,2,0.8,0.25,-35.0,-1,1.0,0.23650199999974575
269,2,0.8,0.25,-35.0,-1,1.0,0.2866009999997914
270,2,0.8,0.25,-35.0,-1,1.0,0.28650100000004386
271,2,0.8,0.0625,-35.0,-1,1.0,0.27670100000000275
272,2,0.8,0.0,-35.0,-1,1.0,0.21340099999974882
273,2,0.8,1.0,35.0,1,1.0,0.33020100000021557
274,2,0.8,0.0,-35.0,-1,1.0,0.1871009999999842
275,2,0.8,1.0,-35.0,-1,1.0,0.17020099999990634
276,2,0.8,0.25,-35.0,-1,1.0,0.22030199999994693
277,2,0.8,1.0,-35.0,-1,1.0,0.2169019999998909
278,2,0.8,0.0625,35.0,-1,0.0,13.270502000000079
279,2,0.8,0.0625,-35.0,-1,1.0,0.19370099999991908
280,2,0.8,0.125,-35.0,-1,1.0,0.18760100000008606
281,2,0.8,0.125,-35.0,-1,1.0,6.530900999999858
282,2,0.8,0.125,-35.0,-1,1.0,0.2874010000000453
283,2,0.8,0.0625,-35.0,-1,1.0,0.26470100000005914
284,2,0.8,0.0,35.0,-1,0.0,0.27450100000010025
285,2,0.8,1.0,-35.0,-1,1.0,0.17460200000004988
286,2,0.8,0.125,-35.0,-1,1.0,0.35770099999990634
287,2,0.8,0.0625,-35.0,-1,1.0,0.5781010000000606
288,2,0.8,0.25,-35.0,-1,1.0,0.26110099999982594
289,2,0.8,0.0625,-35.0,-1,1.0,4.844500999999809
290,2,0.8,0.25,35.0,1,1.0,0.5285009999997783
291,2,0.8,0.0625,-35.0,-1,1.0,0.18790100000001075
292,2,0.8,0.25,-35.0,-1,1.0,0.24130099999979393
293,2,0.8,0.25,-35.0,-1,1.0,0.5347009999998136
294,2,0.8,0.0625,-35.0,-1,1.0,0.24820099999988088
295,2,0.8,0.0625,35.0,-1,0.0,0.2881009999998696
296,2,0.8,0.25,-35.0,-1,1.0,0.3384009999997488
297,2,0.8,1.0,-35.0,-1,1.0,0.18510099999980412
298,2,0.8,0.25,-35.0,-1,1.0,0.19530099999974482
299,2,0.8,1.0,-35.0,-1,1.0,0.20170099999995728
300,2,0.8,0.25,35.0,1,1.0,4.998601000000008
301,2,0.8,0.0625,-35.0,-1,1.0,0.24520200000006298
302,2,0.8,0.0,-35.0,-1,1.0,0.31530099999986305
303,2,0.8,1.0,-35.0,-1,1.0,0.16540099999997437
304,2,0.8,0.25,-35.0,-1,1.0,0.3521019999998316
305,2,0.8,0.25,-35.0,-1,1.0,0.33190099999978884
306,2,0.8,1.0,-35.0,-1,1.0,0.19580100000007405
307,2,0.8,0.0625,-35.0,-1,1.0,0.25900099999989834
308,2,0.8,0.0625,-35.0,-1,1.0,0.4821009999998296
309,2,0.8,0.25,35.0,-1,0.0,5.732101000000057
310,2,0.8,0.0625,-35.0,-1,1.0,5.558901000000105
311,2,0.8,1.0,-35.0,-1,1.0,0.19610199999988254
312,2,0.8,0.25,-35.0,-1,1.0,0.3859010000001035
313,2,0.8,0.25,-35.0,-1,1.0,6.3292009999997845
314,2,0.8,0.25,-35.0,-1,1.0,0.46630099999993035
315,2,0.2,0.125,35.0,-1,0.0,3.9893010000000686
316,2,0.2,0.125,35.0,-1,0.0,1.0763010000000577
317,2,0.2,1.0,35.0,-1,0.0,3.499900999999909
318,2,0.2,0.0625,35.0,1,1.0,0.37010099999974955
319,2,0.2,0.0625,35.0,-1,0.0,3.46000099999992
320,2,0.2,0.0625,35.0,-1,0.0,3.0005009999999857
321,2,0.2,0.125,35.0,-1,0.0,2.4902009999998427
322,2,0.2,0.25,35.0,-1,0.0,3.2275009999998474
323,2,0.2,0.0625,35.0,-1,0.0,0.8305010000001403
324,2,0.2,0.125,-35.0,-1,1.0,4.854200999999875
325,2,0.2,0.125,35.0,-1,0.0,3.4110010000001694
326,2,0.2,0.0625,35.0,-1,0.0,7.964400999999725
327,2,0.2,0.0625,35.0,-1,0.0,35.88440199999991
328,2,0.2,0.0625,35.0,-1,0.0,9.058700999999928
329,2,0.2,0.0625,35.0,-1,0.0,8.44220099999984
330,2,0.2,0.0625,-35.0,-1,1.0,11.909300999999687
331,2,0.2,0.125,35.0,-1,0.0,16.66000199999985
332,2,0.2,0.125,-35.0,-1,1.0,2.2502009999998336
333,2,0.2,0.25,35.0,-1,0.0,8.023601999999983
334,2,0.2,0.125,35.0,-1,0.0,13.617000999999846
335,2,0.2,1.0,35.0,1,1.0,0.5242009999999482
336,2,0.2,0.25,35.0,1,1.0,0.4673009999999067
337,2,0.2,1.0,35.0,1,1.0,0.254200999999739
338,2,0.2,1.0,-35.0,-1,1.0,0.22050199999989673
339,2,0.2,1.0,35.0,1,1.0,0.6606010000000424
340,2,0.2,0.25,-35.0,-1,1.0,5.351200999999719
341,2,0.2,1.0,-35.0,-1,1.0,0.20410100000003695
342,2,0.2,0.0625,-35.0,-1,1.0,3.267400999999836
343,2,0.2,0.125,35.0,-1,0.0,4.874501000000009
344,2,0.2,0.0625,35.0,-1,0.0,0.33110099999998965
345,2,0.2,0.25,-35.0,-1,1.0,0.23460100000011153
346,2,0.2,1.0,35.0,1,1.0,0.257801999999856
347,2,0.2,0.0625,35.0,-1,0.0,0.19440099999997074
348,2,0.2,0.0625,35.0,-1,0.0,5.391500999999835
349,2,0.2,1.0,35.0,1,1.0,0.2882009999998445
350,2,0.2,0.0,35.0,-1,0.0,0.1852010000000064
351,2,0.2,1.0,35.0,1,1.0,0.24830099999985578
352,2,0.2,0.0,35.0,-1,0.0,0.1789009999999962
353,2,0.2,0.0625,35.0,-1,0.0,0.4187009999998281
354,2,0.2,0.0625,35.0,-1,0.0,0.2519009999998616
355,2,0.2,0.0625,-35.0,-1,1.0,2.4152010000000246
356,2,0.2,0.0,35.0,-1,0.0,0.20230100000003404
357,2,0.2,0.125,35.0,-1,0.0,5.178501999999753
358,2,0.2,0.0625,35.0,-1,0.0,10.006100999999944
359,2,0.2,1.0,35.0,1,1.0,0.3689009999998234
360,2,0.2,1.0,-35.0,-1,1.0,0.2196009999997841
361,2,0.2,1.0,35.0,1,1.0,0.252500999999711
362,2,0.2,0.0625,35.0,-1,0.0,5.0231009999997696
363,2,0.2,0.0625,35.0,-1,0.0,1.0400010000000748
364,2,0.2,0.25,35.0,-1,0.0,6.259502000000111
365,2,0.2,0.125,35.0,1,1.0,4.356401000000005
366,2,0.2,1.0,35.0,1,1.0,6.029800999999679
367,2,0.2,1.0,35.0,1,1.0,0.2867009999997663
368,2,0.2,0.125,35.0,1,1.0,0.5134010000001581
369,2,0.2,0.25,35.0,-1,0.0,7.91680099999985
370,2,0.2,0.0625,35.0,1,1.0,6.900400999999874
371,2,0.2,0.0,-35.0,1,0.0,0.49060099999974227
372,2,0.2,1.0,35.0,1,1.0,0.2477010000000064
373,2,0.2,0.0625,35.0,1,1.0,4.531001999999717
374,2,0.2,0.0625,35.0,1,1.0,11.300601999999799
375,2,0.2,0.0625,-35.0,-1,1.0,32.56770099999994
376,2,0.2,0.0,35.0,1,1.0,0.7384009999998398
377,2,0.8,0.25,-35.0,-1,1.0,3.9217009999999846
378,2,0.8,0.125,-35.0,1,0.0,6.091800999999805
379,2,0.8,1.0,-35.0,-1,1.0,0.20590100000003986
380,2,0.8,0.0,-35.0,-1,1.0,0.34550100000001294
381,2,0.8,0.25,35.0,-1,0.0,14.66210100000012
382,2,0.8,0.0,-35.0,-1,1.0,0.2026010000001861
383,2,0.8,0.125,-35.0,-1,1.0,4.276100999999926
384,2,0.8,1.0,-35.0,-1,1.0,0.15600099999983286
385,2,0.8,1.0,35.0,1,1.0,0.4098009999997885
386,2,0.8,0.25,-35.0,-1,1.0,10.815901000000167
387,2,0.8,0.0,-35.0,-1,1.0,5.076101999999992
388,2,0.8,0.25,-35.0,-1,1.0,0.15990099999999074
389,2,0.8,0.125,35.0,-1,0.0,0.2600009999998747
390,2,0.8,0.0625,-35.0,-1,1.0,0.24680100000000493
391,2,0.8,0.0625,35.0,-1,0.0,3.3539009999999507
392,2,0.8,0.0625,-35.0,-1,1.0,0.07000199999993129
393,2,0.8,0.125,-35.0,-1,1.0,5.823400999999876
394,2,0.8,1.0,-35.0,-1,1.0,0.19390100000009625
395,2,0.8,0.125,-35.0,-1,1.0,5.630100999999968
396,2,0.8,0.25,-35.0,-1,1.0,0.3004009999999653
397,2,0.8,0.0625,-35.0,-1,1.0,0.3438009999999849
398,2,0.8,0.125,-35.0,-1,1.0,0.2977019999998447
399,2,0.8,1.0,35.0,1,1.0,0.4172019999998611
400,2,0.8,0.125,-35.0,-1,1.0,9.600900999999794
401,2,0.8,1.0,-35.0,-1,1.0,0.2114010000000235
402,2,0.8,0.25,-35.0,-1,1.0,0.30460100000004786
403,2,0.8,1.0,-35.0,-1,1.0,0.23450100000013663
404,2,0.8,0.125,-35.0,-1,1.0,3.4774019999997563
405,2,0.8,0.125,-35.0,-1,1.0,0.5142009999999573
406,2,0.8,0.0,-35.0,-1,1.0,16.54810199999997
407,2,0.8,0.0625,-35.0,-1,1.0,10.551502000000028
408,2,0.8,1.0,-35.0,-1,1.0,0.23830099999986487
409,2,0.8,0.0625,-35.0,-1,1.0,20.372400999999854
410,2,0.2,1.0,-35.0,-1,1.0,0.23270099999990634
411,2,0.2,0.0625,-35.0,-1,1.0,5.3357009999997445
412,2,0.2,0.0,35.0,-1,0.0,0.5022009999997863
413,2,0.2,0.125,-35.0,-1,1.0,0.24950099999978192
414,2,0.2,0.25,35.0,-1,0.0,7.67570099999989
415,2,0.2,0.125,35.0,-1,0.0,0.2062020000000757
416,2,0.2,1.0,35.0,1,1.0,0.4193009999999049
417,2,0.2,0.0625,35.0,-1,0.0,6.353501000000051
418,2,0.2,0.0625,-35.0,-1,1.0,0.2896009999999478
419,2,0.2,0.125,-35.0,-1,1.0,4.473101000000042
420,2,0.2,0.125,-35.0,-1,1.0,6.179800999999998
421,2,0.2,0.25,35.0,-1,0.0,10.646500999999944
422,2,0.2,1.0,35.0,1,1.0,0.3401010000000042
423,2,0.2,0.0,-35.0,-1,1.0,18.8070009999999
424,2,0.2,1.0,35.0,1,1.0,0.4128009999999449
425,2,0.2,0.25,35.0,1,1.0,8.946300999999721
426,2,0.2,0.0625,35.0,1,1.0,0.3231020000000626
427,2,0.2,0.0625,-35.0,-1,1.0,0.5232009999999718
428,2,0.2,0.125,35.0,1,1.0,0.44000099999993836
429,2,0.2,0.25,35.0,1,1.0,7.726700999999821
1,3,0.2,0.125,35.0,1,1.0,0.2879999999999999
2,3,0.2,1.0,35.0,1,1.0,0.4637009999999999
3,3,0.2,1.0,35.0,1,1.0,0.4509999999999996
4,3,0.2,0.125,35.0,1,1.0,0.3681999999999981
5,3,0.2,0.25,35.0,1,1.0,0.17039999999999722
6,3,0.2,0.125,-35.0,-1,1.0,0.5095999999999989
7,3,0.2,1.0,35.0,1,1.0,0.43340000000000245
8,3,0.2,1.0,35.0,1,1.0,0.44069999999999965
9,3,0.2,0.125,35.0,1,1.0,0.3514000000000017
10,3,0.2,1.0,35.0,1,1.0,0.45339999999999847
11,3,0.2,0.25,-35.0,-1,1.0,0.33560000000000656
12,3,0.2,0.25,35.0,1,1.0,0.4820009999999968
13,3,0.2,0.0625,35.0,1,1.0,0.2488000000000028
14,3,0.2,1.0,35.0,1,1.0,0.26619999999999777
15,3,0.2,0.0,35.0,-1,0.0,2.691199999999995
16,3,0.2,1.0,35.0,1,1.0,0.27259999999999707
17,3,0.2,0.125,35.0,1,1.0,0.5507009999999966
18,3,0.2,0.0,35.0,1,1.0,1.998599999999989
19,3,0.2,0.0625,-35.0,1,0.0,3.4344000000000108
20,3,0.2,0.25,-35.0,-1,1.0,0.4724000000000075
21,3,0.2,0.125,35.0,1,1.0,0.4902000000000015
22,3,0.2,0.0625,35.0,-1,0.0,0.16249999999999432
23,3,0.2,0.0,35.0,-1,0.0,11.978500000000011
24,3,0.2,0.25,35.0,1,1.0,0.28060000000000684
25,3,0.2,1.0,35.0,1,1.0,0.24930000000000518
26,3,0.2,0.125,-35.0,-1,1.0,1.126800000000003
27,3,0.8,0.25,-35.0,-1,1.0,0.28710000000000946
28,3,0.8,0.25,35.0,1,1.0,4.391100000000009
29,3,0.8,0.0,-35.0,-1,1.0,0.2645000000000124
30,3,0.8,0.0,-35.0,-1,1.0,2.0649000000000086
31,3,0.8,0.0625,-35.0,-1,1.0,1.412501000000006
32,3,0.8,0.125,35.0,1,1.0,5.0265010000000245
33,3,0.8,0.0625,-35.0,-1,1.0,0.4011000000000138
34,3,0.8,0.0625,-35.0,-1,1.0,0.5774999999999864
35,3,0.8,1.0,-35.0,-1,1.0,0.5106999999999857
36,3,0.8,0.0625,35.0,1,1.0,6.095199999999977
37,3,0.8,0.125,35.0,-1,0.0,0.7787000000000148
38,3,0.8,1.0,-35.0,-1,1.0,0.40989999999999327
39,3,0.8,0.0625,-35.0,1,0.0,3.1991999999999905
40,3,0.8,0.0625,-35.0,-1,1.0,0.40919999999997003
41,3,0.8,0.0,-35.0,-1,1.0,6.524999999999977
42,3,0.8,1.0,35.0,1,1.0,0.3557999999999879
43,3,0.8,0.0625,-35.0,-1,1.0,0.6811999999999898
44,3,0.8,0.0,-35.0,-1,1.0,4.890299999999996
45,3,0.8,0.125,-35.0,-1,1.0,0.46489999999997167
46,3,0.8,0.0,35.0,1,1.0,5.128200000000021
47,3,0.8,0.25,-35.0,-1,1.0,0.43139999999996803
48,3,0.8,0.0625,-35.0,-1,1.0,2.279500000000013
49,3,0.2,1.0,35.0,1,1.0,2.3057999999999765
50,3,0.2,0.25,35.0,1,1.0,5.792999999999978
51,3,0.2,0.0625,35.0,-1,0.0,0.30819999999999936
52,3,0.2,0.25,35.0,1,1.0,0.3178000000000054
53,3,0.2,1.0,35.0,1,1.0,4.51909999999998
54,3,0.2,0.0625,35.0,1,1.0,5.654599999999988
55,3,0.2,1.0,35.0,1,1.0,0.8078000000000145
56,3,0.2,0.0625,35.0,1,1.0,4.7791
57,3,0.2,0.125,35.0,1,1.0,0.8605999999999767
58,3,0.2,0.0625,-35.0,1,0.0,4.452301000000034
59,3,0.2,0.25,35.0,1,1.0,0.5884999999999536
60,3,0.2,0.25,35.0,1,1.0,0.49569999999999936
61,3,0.2,0.125,35.0,-1,0.0,0.5094000000000278
62,3,0.2,1.0,35.0,1,1.0,0.265700000000038
63,3,0.2,0.25,35.0,1,1.0,0.5686000000000035
64,3,0.2,0.125,-35.0,-1,1.0,4.9821999999999775
65,3,0.2,0.0625,35.0,1,1.0,0.6195999999999913
66,3,0.2,0.25,35.0,1,1.0,5.222699999999975
67,3,0.2,0.0,-35.0,-1,1.0,0.4609999999999559
68,3,0.2,0.0625,35.0,-1,0.0,7.249900000000025
69,3,0.2,0.125,35.0,-1,0.0,0.5796000000000276
70,3,0.2,0.0625,35.0,-1,0.0,3.9090999999999667
71,3,0.2,0.0625,35.0,1,1.0,0.323900999999978
72,3,0.2,0.125,-35.0,-1,1.0,0.26099999999996726
73,3,0.2,0.25,35.0,1,1.0,0.6985010000000216
74,3,0.2,1.0,-35.0,-1,1.0,0.3301000000000158
75,3,0.2,1.0,-35.0,-1,1.0,8.774500999999987
76,3,0.2,0.25,-35.0,-1,1.0,0.25099999999997635
77,3,0.2,1.0,35.0,1,1.0,2.0702
78,3,0.2,1.0,35.0,1,1.0,0.9115000000000464
79,3,0.2,0.0625,35.0,-1,0.0,5.951900000000023
80,3,0.2,0.25,35.0,1,1.0,0.44610099999999875
81,3,0.2,0.0,35.0,-1,0.0,0.22020000000003392
82,3,0.2,0.0625,35.0,-1,0.0,0.7355999999999767
83,3,0.2,1.0,-35.0,-1,1.0,0.2878999999999792
84,3,0.2,1.0,35.0,1,1.0,0.37119999999998754
85,3,0.2,0.0625,-35.0,-1,1.0,0.5778999999999996
86,3,0.2,1.0,35.0,1,1.0,0.542301000000009
87,3,0.2,0.125,35.0,-1,0.0,2.386699999999962
88,3,0.2,0.0625,35.0,1,1.0,1.0215000000000032
89,3,0.2,0.0625,35.0,-1,0.0,0.35000000000002274
90,3,0.2,1.0,35.0,1,1.0,0.11619999999999209
91,3,0.2,0.0,35.0,1,1.0,7.007999999999981
92,3,0.2,0.0625,35.0,1,1.0,5.145699999999977
93,3,0.2,0.0625,-35.0,-1,1.0,0.341199999999958
94,3,0.2,1.0,-35.0,-1,1.0,0.20800000000002683
95,3,0.2,0.125,35.0,1,1.0,4.982399999999984
96,3,0.2,0.25,-35.0,-1,1.0,0.1280999999999608
97,3,0.2,1.0,35.0,1,1.0,0.5101000000000226
98,3,0.2,1.0,35.0,1,1.0,0.2613999999999237
99,3,0.2,1.0,35.0,1,1.0,1.015199999999993
100,3,0.2,1.0,35.0,1,1.0,0.7346999999999753
101,3,0.2,0.0,35.0,-1,0.0,0.16950099999996837
102,3,0.2,0.0,-35.0,1,0.0,4.8448999999999955
103,3,0.2,0.0,35.0,-1,0.0,0.5407999999999902
104,3,0.2,0.0,35.0,-1,0.0,0.3657000000000039
105,3,0.2,0.125,35.0,1,1.0,0.4959999999999809
106,3,0.2,1.0,-35.0,-1,1.0,0.32339999999999236
107,3,0.2,0.25,35.0,1,1.0,2.1981009999999515
108,3,0.2,0.125,35.0,1,1.0,5.179501000000016
109,3,0.8,0.0,-35.0,-1,1.0,0.17889999999999873
110,3,0.8,0.125,-35.0,-1,1.0,1.3659999999999854
111,3,0.8,0.0625,-35.0,-1,1.0,0.7243009999999686
112,3,0.8,0.25,-35.0,-1,1.0,0.5190010000000029
113,3,0.8,1.0,-35.0,-1,1.0,0.26680099999998674
114,3,0.8,0.25,-35.0,-1,1.0,0.39920000000000755
115,3,0.8,0.0625,-35.0,-1,1.0,7.417199999999923
116,3,0.8,0.0625,-35.0,-1,1.0,0.6408000000001266
117,3,0.8,0.0,-35.0,-1,1.0,6.250700000000052
118,3,0.8,1.0,-35.0,-1,1.0,0.3224999999999909
119,3,0.8,0.125,35.0,-1,0.0,3.485200000000077
120,3,0.8,1.0,-35.0,-1,1.0,0.2259999999999991
121,3,0.8,0.0625,-35.0,-1,1.0,0.16919999999993252
122,3,0.8,1.0,35.0,-1,0.0,0.4734000000000833
123,3,0.8,1.0,-35.0,-1,1.0,0.11159999999995307
124,3,0.8,0.0,-35.0,1,0.0,5.794399999999996
125,3,0.8,0.0625,-35.0,-1,1.0,0.3786000000000058
126,3,0.8,0.0625,-35.0,-1,1.0,0.2844000000000051
127,3,0.8,0.125,-35.0,-1,1.0,0.28550000000007003
128,3,0.8,0.25,-35.0,-1,1.0,0.5163000000000011
129,3,0.8,0.125,35.0,1,1.0,6.8121000000001
130,3,0.8,1.0,-35.0,-1,1.0,0.3989000000001397
131,3,0.8,0.0,-35.0,-1,1.0,0.3873000000000957
132,3,0.8,0.125,-35.0,-1,1.0,0.5803999999999405
133,3,0.2,0.25,35.0,-1,0.0,3.2644000000000233
134,3,0.2,0.125,35.0,1,1.0,0.9405000000001564
135,3,0.2,1.0,35.0,1,1.0,0.24850000000003547
136,3,0.2,1.0,35.0,1,1.0,5.619001000000026
137,3,0.2,0.125,35.0,1,1.0,0.5582000000000562
138,3,0.2,1.0,35.0,1,1.0,0.568700000000149
139,3,0.2,0.125,35.0,1,1.0,5.363500000000045
140,3,0.2,0.125,-35.0,-1,1.0,0.44200100000000475
141,3,0.2,0.25,35.0,1,1.0,0.6666999999999916
142,3,0.2,1.0,35.0,1,1.0,0.5647000000000162
143,3,0.2,0.125,35.0,-1,0.0,0.4192000000000462
144,3,0.2,0.0625,35.0,1,1.0,6.158301000000051
145,3,0.2,1.0,35.0,1,1.0,0.5696000000001504
146,3,0.2,0.0,-35.0,-1,1.0,0.3342000000000098
147,3,0.2,0.25,-35.0,-1,1.0,0.2580000000000382
148,3,0.2,0.25,-35.0,-1,1.0,7.1603000000000065
149,3,0.2,0.0625,-35.0,-1,1.0,0.20000000000004547
150,3,0.2,0.125,35.0,1,1.0,5.59190000000001
151,3,0.2,1.0,35.0,1,1.0,0.26060000000006767
152,3,0.2,0.125,35.0,1,1.0,3.189901000000077
153,3,0.2,0.25,35.0,1,1.0,7.27900000000011
154,3,0.2,0.125,35.0,1,1.0,0.5527000000000726
155,3,0.2,0.125,35.0,1,1.0,0.440900000000056
156,3,0.2,0.25,35.0,1,1.0,11.964101000000028
157,3,0.2,0.0625,35.0,-1,0.0,1.1965000000000146
158,3,0.2,0.25,35.0,1,1.0,9.063101000000074
159,3,0.2,0.125,35.0,-1,0.0,0.79849999999999
160,3,0.2,0.125,35.0,-1,0.0,7.57630000000006
161,3,0.2,0.0625,35.0,1,1.0,8.595201000000088
162,3,0.2,1.0,35.0,1,1.0,0.8975000000000364
163,3,0.2,0.25,35.0,1,1.0,7.272800000000075
164,3,0.2,1.0,35.0,1,1.0,0.36829999999997654
165,3,0.2,1.0,35.0,1,1.0,5.655001000000084
166,3,0.2,0.125,-35.0,-1,1.0,0.22420099999999366
167,3,0.2,0.0,35.0,-1,0.0,4.730599999999981
168,3,0.2,0.25,35.0,1,1.0,0.5122000000000071
169,3,0.2,0.25,35.0,1,1.0,1.1353000000000293
170,3,0.2,0.0625,35.0,-1,0.0,0.4429010000001199
171,3,0.2,0.25,-35.0,-1,1.0,0.513300000000072
172,3,0.2,0.0,-35.0,-1,1.0,0.4374000000001388
173,3,0.2,0.125,35.0,-1,0.0,8.117500000000064
174,3,0.2,0.25,35.0,1,1.0,0.4285009999999829
175,3,0.2,0.25,35.0,-1,0.0,0.27940000000000964
176,3,0.2,0.125,35.0,-1,0.0,4.419500000000085
177,3,0.2,0.0625,35.0,1,1.0,0.7335000000000491
178,3,0.2,0.25,35.0,1,1.0,0.5052000000000589
179,3,0.2,0.125,35.0,1,1.0,8.10630100000003
180,3,0.2,0.0625,35.0,-1,0.0,12.353500000000054
181,3,0.2,0.0625,35.0,-1,0.0,5.191699999999969
182,3,0.8,0.125,-35.0,-1,1.0,0.3546000000000049
183,3,0.8,0.25,-35.0,-1,1.0,0.41460000000006403
184,3,0.8,1.0,-35.0,-1,1.0,0.3129000000000133
185,3,0.8,0.25,35.0,1,1.0,3.852999999999952
186,3,0.8,0.0625,-35.0,-1,1.0,0.3105000000000473
187,3,0.8,0.0625,-35.0,-1,1.0,0.6766000000000076
188,3,0.8,0.125,-35.0,-1,1.0,0.2778010000000677
189,3,0.8,0.0,35.0,-1,0.0,0.248299999999972
190,3,0.8,0.0,-35.0,-1,1.0,6.167299999999955
191,3,0.8,1.0,-35.0,-1,1.0,0.18790000000001328
192,3,0.8,0.0,-35.0,-1,1.0,6.308800000000019
193,3,0.8,0.125,-35.0,-1,1.0,0.28530000000012024
194,3,0.8,0.25,-35.0,-1,1.0,0.2584000000000515
195,3,0.8,0.0625,35.0,-1,0.0,0.27800000000002
196,3,0.8,0.0625,-35.0,1,0.0,6.820701000000099
197,3,0.8,0.125,-35.0,-1,1.0,0.563301000000024
198,3,0.8,0.125,-35.0,-1,1.0,0.9464010000000371
199,3,0.8,0.0625,-35.0,-1,1.0,0.6008000000000493
200,3,0.8,0.25,-35.0,-1,1.0,0.3829000000000633
201,3,0.8,0.0625,-35.0,-1,1.0,1.6907010000001037
202,3,0.8,1.0,35.0,1,1.0,2.2712000000000216
203,3,0.8,0.0625,-35.0,-1,1.0,0.3463010000000395
204,3,0.8,0.0,-35.0,-1,1.0,0.5774999999999864
205,3,0.8,1.0,-35.0,-1,1.0,0.4367010000000846
206,3,0.8,0.25,-35.0,-1,1.0,0.2198000000000775
207,3,0.8,0.25,-35.0,-1,1.0,0.25650000000007367
208,3,0.8,0.125,-35.0,-1,1.0,0.3506000000000995
209,3,0.8,0.0625,-35.0,-1,1.0,0.8733999999999469
210,3,0.8,0.25,-35.0,-1,1.0,0.18189999999992779
211,3,0.8,0.0625,-35.0,-1,1.0,1.2182999999999993
212,3,0.8,0.125,-35.0,-1,1.0,0.20080000000007203
213,3,0.8,1.0,-35.0,-1,1.0,0.18390000000010787
214,3,0.8,0.25,-35.0,-1,1.0,0.9942010000000892
215,3,0.8,0.25,-35.0,-1,1.0,0.3074010000000271
216,3,0.2,0.25,35.0,-1,0.0,2.570899999999938
217,3,0.2,0.25,35.0,-1,0.0,0.24790100000006987
218,3,0.2,0.0625,35.0,1,1.0,0.2014000000001488
219,3,0.2,0.0625,35.0,1,1.0,0.4079999999999018
220,3,0.2,0.0625,35.0,-1,0.0,0.2510999999997239
221,3,0.2,0.0625,35.0,1,1.0,0.5451000000000477
222,3,0.2,1.0,35.0,1,1.0,0.2981999999999516
223,3,0.2,0.25,-35.0,-1,1.0,0.45800099999996746
224,3,0.2,0.125,35.0,-1,0.0,1.66800000000012
225,3,0.2,0.0625,35.0,1,1.0,0.3249999999998181
226,3,0.2,0.0625,35.0,1,1.0,0.3751999999999498
227,3,0.2,0.0,35.0,-1,0.0,0.19870000000014443
228,3,0.2,1.0,35.0,1,1.0,0.2456009999998514
229,3,0.2,0.0625,35.0,-1,0.0,0.32249999999976353
230,3,0.2,0.125,35.0,1,1.0,0.2986000000000786
231,3,0.2,0.0625,35.0,-1,0.0,6.218599999999924
232,3,0.2,0.125,35.0,1,1.0,0.23279999999999745
233,3,0.2,0.0,35.0,1,1.0,0.26309999999989486
234,3,0.2,0.0625,35.0,-1,0.0,7.569300999999996
235,3,0.2,0.25,35.0,1,1.0,0.31930099999999584
236,3,0.2,0.125,35.0,1,1.0,0.7232010000000173
237,3,0.2,0.25,35.0,-1,0.0,10.756200000000035
238,3,0.2,0.125,35.0,1,1.0,11.303399999999783
239,3,0.2,0.0625,35.0,-1,0.0,18.1570999999999
240,3,0.2,0.125,35.0,1,1.0,0.3305000000000291
241,3,0.2,0.125,-35.0,-1,1.0,0.20719999999982974
242,3,0.2,0.0625,-35.0,-1,1.0,0.524199999999837
243,3,0.2,0.125,35.0,-1,0.0,6.440599999999904
244,3,0.2,0.0,35.0,-1,0.0,5.4314999999999145
245,3,0.2,0.25,35.0,1,1.0,0.46440000000006876
246,3,0.2,0.25,-35.0,-1,1.0,0.10110000000008768
247,3,0.2,1.0,-35.0,-1,1.0,0.2982009999998354
248,3,0.2,0.25,35.0,-1,0.0,4.5315999999997985
249,3,0.2,1.0,35.0,-1,0.0,0.9312999999999647
250,3,0.2,1.0,35.0,1,1.0,10.718599999999924
251,3,0.2,0.125,35.0,1,1.0,0.4350010000000566
252,3,0.2,1.0,35.0,1,1.0,0.29179999999996653
253,3,0.2,0.25,35.0,-1,0.0,0.7219000000000051
254,3,0.2,1.0,35.0,1,1.0,9.342000999999755
255,3,0.2,0.125,35.0,-1,0.0,6.808999999999969
256,3,0.2,0.25,35.0,1,1.0,0.4259999999999309
257,3,0.2,1.0,35.0,1,1.0,0.36940099999992526
258,3,0.2,0.0625,35.0,1,1.0,10.942399999999907
259,3,0.2,0.125,35.0,-1,0.0,1.3563010000000304
260,3,0.2,0.0625,35.0,1,1.0,0.8230999999998403
261,3,0.2,0.125,35.0,1,1.0,5.159799999999905
262,3,0.2,0.0,-35.0,1,0.0,0.5303000000001248
263,3,0.2,0.0,35.0,-1,0.0,7.4698000000000775
264,3,0.2,0.0,35.0,1,1.0,7.760099999999966
265,3,0.2,0.125,-35.0,-1,1.0,0.23700099999996382
266,3,0.2,0.125,-35.0,-1,1.0,0.35720100000003185
267,3,0.2,0.125,35.0,-1,0.0,0.30399999999985994
268,3,0.2,0.0625,-35.0,-1,1.0,0.32320000000004256
269,3,0.2,1.0,35.0,1,1.0,0.4699009999999362
270,3,0.2,0.25,-35.0,-1,1.0,6.423201000000063
271,3,0.2,0.125,35.0,-1,0.0,7.9365999999999985
272,3,0.2,0.0625,-35.0,-1,1.0,0.6736000000000786
273,3,0.2,1.0,35.0,1,1.0,0.5670009999998911
274,3,0.2,0.0625,35.0,-1,0.0,8.387100000000146
275,3,0.2,1.0,35.0,1,1.0,1.447300000000041
276,3,0.2,0.0625,35.0,1,1.0,0.3607999999999265
277,3,0.2,0.0,35.0,1,1.0,5.0974999999998545
278,3,0.2,0.0,35.0,1,1.0,7.2243009999999686
279,3,0.2,0.0625,35.0,-1,0.0,7.037900000000036
280,3,0.8,0.0625,35.0,1,1.0,0.3546999999998661
281,3,0.8,0.0,-35.0,-1,1.0,0.2314000000001215
282,3,0.8,0.125,-35.0,-1,1.0,0.2747999999999138
283,3,0.8,0.125,-35.0,-1,1.0,0.3248999999998432
284,3,0.8,0.25,-35.0,-1,1.0,0.4114999999999327
285,3,0.8,0.25,35.0,1,1.0,0.2182999999997719
286,3,0.8,0.0625,35.0,-1,0.0,0.21159999999986212
287,3,0.8,0.25,-35.0,1,0.0,1.6217999999998938
288,3,0.8,1.0,-35.0,-1,1.0,0.4150999999999385
289,3,0.8,0.0625,-35.0,-1,1.0,0.48190100000010716
290,3,0.8,0.25,-35.0,-1,1.0,0.6317999999998847
291,3,0.8,1.0,-35.0,-1,1.0,0.22849999999993997
292,3,0.8,0.25,35.0,1,1.0,6.76299999999992
293,3,0.8,0.25,-35.0,-1,1.0,0.4695999999999003
294,3,0.8,0.0,-35.0,1,0.0,5.539700999999923
295,3,0.8,1.0,-35.0,-1,1.0,0.3163999999999305
296,3,0.8,0.0625,-35.0,-1,1.0,1.1503999999999905
297,3,0.8,0.0625,-35.0,-1,1.0,1.0765999999998712
298,3,0.8,0.25,-35.0,-1,1.0,0.2499000000000251
299,3,0.8,0.25,-35.0,-1,1.0,0.2638999999999214
300,3,0.8,1.0,-35.0,-1,1.0,0.5701010000000224
301,3,0.8,0.125,35.0,-1,0.0,0.25710000000003674
302,3,0.8,0.25,-35.0,-1,1.0,0.4033999999999196
303,3,0.8,0.25,-35.0,-1,1.0,0.26350000000002183
304,3,0.8,0.125,-35.0,-1,1.0,0.3805999999999585
305,3,0.8,0.125,-35.0,-1,1.0,0.3206999999997606
306,3,0.8,0.125,-35.0,-1,1.0,0.8528999999998632
307,3,0.8,0.25,-35.0,-1,1.0,4.767300999999861
308,3,0.8,1.0,-35.0,-1,1.0,0.20729999999980464
309,3,0.8,0.125,-35.0,-1,1.0,4.970599999999877
310,3,0.8,0.125,35.0,-1,0.0,1.8309999999999036
311,3,0.8,0.0625,35.0,-1,0.0,0.2640999999998712
312,3,0.8,0.0625,-35.0,-1,1.0,0.15450000000009823
313,3,0.8,0.25,-35.0,-1,1.0,0.38449999999988904
314,3,0.8,0.125,-35.0,-1,1.0,0.3443999999999505
315,3,0.8,0.0625,35.0,-1,0.0,4.291500000000042
316,3,0.8,0.0625,-35.0,1,0.0,0.16769999999996799
317,3,0.8,0.125,35.0,1,1.0,0.3381009999998241
318,3,0.8,0.25,-35.0,-1,1.0,0.4916000000000622
319,3,0.8,1.0,-35.0,-1,1.0,0.4048999999999978
320,3,0.8,1.0,-35.0,-1,1.0,0.5851999999999862
321,3,0.2,0.125,35.0,1,1.0,4.621499999999742
322,3,0.2,0.0,35.0,1,1.0,5.4517000000000735
323,3,0.2,0.0,35.0,1,1.0,3.959100000000035
324,3,0.2,0.25,35.0,1,1.0,0.3687009999998736
325,3,0.2,0.25,-35.0,-1,1.0,0.3321000000000822
326,3,0.2,0.0,-35.0,1,0.0,6.602300000000014
327,3,0.2,0.25,35.0,1,1.0,0.5089999999997872
328,3,0.2,0.0625,35.0,-1,0.0,1.2759000000000924
329,3,0.2,0.125,-35.0,1,0.0,3.899400000000014
330,3,0.2,0.0625,-35.0,1,0.0,0.6727009999999609
331,3,0.2,1.0,35.0,1,1.0,0.2059999999999036
332,3,0.2,0.25,35.0,1,1.0,0.5196999999998297
333,3,0.2,0.125,35.0,1,1.0,5.773199999999861
334,3,0.2,0.0625,35.0,-1,0.0,8.149800999999798
335,3,0.2,0.0,35.0,-1,0.0,1.1537999999998192
336,3,0.2,0.0,35.0,-1,0.0,1.459999999999809
337,3,0.2,0.0625,35.0,1,1.0,0.5868999999997868
338,3,0.2,0.125,35.0,-1,0.0,1.0101000000001932
339,3,0.2,0.0,35.0,1,1.0,0.4602999999999611
340,3,0.2,0.25,35.0,-1,0.0,2.3937000000000808
341,3,0.2,0.25,35.0,1,1.0,0.337099999999964
342,3,0.2,0.125,-35.0,-1,1.0,0.47040100000003804
343,3,0.2,0.0,35.0,-1,0.0,0.3769999999999527
344,3,0.2,0.0625,35.0,1,1.0,6.434099999999944
345,3,0.2,0.0625,35.0,-1,0.0,2.190699999999879
346,3,0.2,0.125,35.0,1,1.0,0.40439999999989595
347,3,0.2,0.125,-35.0,-1,1.0,0.42430000000013024
348,3,0.2,0.25,35.0,-1,0.0,9.474699999999757
349,3,0.2,1.0,35.0,1,1.0,0.3512000000000626
350,3,0.2,0.0625,35.0,1,1.0,13.884600000000091
351,3,0.2,0.125,35.0,1,1.0,0.6183999999998377
352,3,0.2,0.0625,35.0,1,1.0,0.5550000000000637
353,3,0.2,0.25,35.0,1,1.0,1.5088999999998123
354,3,0.2,0.25,35.0,1,1.0,6.725500000000011
355,3,0.2,0.0,35.0,-1,0.0,0.47199999999998
356,3,0.2,1.0,-35.0,-1,1.0,1.262300999999752
357,3,0.2,0.0625,35.0,1,1.0,15.335701999999856
358,3,0.2,0.0,35.0,-1,0.0,0.24240099999997256
359,3,0.2,0.0625,35.0,1,1.0,0.40250099999980193
360,3,0.2,0.125,-35.0,-1,1.0,0.26260099999990416
361,3,0.2,1.0,35.0,1,1.0,2.9663009999999304
362,3,0.2,0.0,-35.0,-1,1.0,8.089501000000155
363,3,0.2,0.125,35.0,-1,0.0,5.346500999999989
364,3,0.8,0.0,-35.0,1,0.0,4.933301000000029
365,3,0.8,0.25,-35.0,-1,1.0,0.2835009999998874
366,3,0.8,0.0,-35.0,-1,1.0,1.823500999999851
367,3,0.8,1.0,-35.0,-1,1.0,0.2533009999999649
368,3,0.8,1.0,-35.0,-1,1.0,0.31700099999989106
369,3,0.8,0.0,-35.0,-1,1.0,3.987000999999964
370,3,0.8,0.0,-35.0,-1,1.0,0.8173019999999269
371,3,0.8,1.0,-35.0,-1,1.0,0.3044009999998707
372,3,0.8,0.0625,-35.0,-1,1.0,0.2637019999997392
373,3,0.8,0.25,-35.0,-1,1.0,0.1772009999999682
374,3,0.8,0.0625,-35.0,-1,1.0,0.8070020000000113
375,3,0.8,0.0,35.0,-1,0.0,0.5205009999999675
376,3,0.8,0.0,-35.0,-1,1.0,4.970401000000038
377,3,0.8,0.25,-35.0,-1,1.0,0.3279010000001108
378,3,0.8,0.25,-35.0,-1,1.0,0.34740099999999074
379,3,0.8,0.125,-35.0,-1,1.0,0.5474009999998088
380,3,0.8,0.0625,-35.0,-1,1.0,0.37760099999991326
381,3,0.8,0.125,35.0,-1,0.0,1.7867009999999937
382,3,0.8,1.0,-35.0,-1,1.0,0.2635009999999056
383,3,0.8,1.0,-35.0,-1,1.0,0.3202009999999973
384,3,0.8,1.0,-35.0,-1,1.0,0.3402009999999791
385,3,0.8,1.0,35.0,1,1.0,2.0937009999997827
386,3,0.8,1.0,35.0,1,1.0,0.5003009999998085
387,3,0.8,1.0,-35.0,-1,1.0,0.28050099999995837
388,3,0.8,0.125,-35.0,-1,1.0,0.44720099999995
389,3,0.8,1.0,-35.0,-1,1.0,0.23050100000000384
390,3,0.8,1.0,-35.0,-1,1.0,0.2740009999999984
391,3,0.8,0.0625,-35.0,-1,1.0,0.5106009999997241
392,3,0.8,0.125,-35.0,-1,1.0,0.4773009999998976
393,3,0.8,0.125,35.0,-1,0.0,0.7341010000000097
394,3,0.8,0.25,-35.0,-1,1.0,0.3442009999998845
395,3,0.8,0.0625,-35.0,-1,1.0,0.7743009999999231
396,3,0.8,0.0625,-35.0,-1,1.0,0.9143009999997957
397,3,0.8,0.0625,35.0,-1,0.0,2.601100999999744
398,3,0.8,0.25,-35.0,-1,1.0,0.24110099999984413
399,3,0.8,0.0625,-35.0,-1,1.0,0.26470099999983177
400,3,0.8,0.0,-35.0,-1,1.0,0.2979009999999107
401,3,0.8,0.25,-35.0,-1,1.0,0.2780009999999038
402,3,0.8,0.125,-35.0,-1,1.0,0.47480099999984304
403,3,0.8,0.25,-35.0,-1,1.0,0.20470099999988633
404,3,0.8,0.25,-35.0,-1,1.0,0.3949009999998907
405,3,0.8,0.125,-35.0,-1,1.0,0.5015019999998458
406,3,0.8,0.25,-35.0,-1,1.0,0.43820099999993545
407,3,0.8,0.0625,-35.0,-1,1.0,0.6450009999998656
408,3,0.8,0.0625,35.0,-1,0.0,2.12840099999994
409,3,0.8,0.125,-35.0,-1,1.0,0.29850199999987126
410,3,0.8,0.25,-35.0,-1,1.0,0.2818009999998594
411,3,0.8,0.25,-35.0,-1,1.0,0.29520099999990634
412,3,0.2,0.0625,35.0,-1,0.0,6.6519009999999525
413,3,0.2,0.0,-35.0,-1,1.0,1.2521010000000388
414,3,0.2,0.0625,35.0,-1,0.0,0.5689009999998689
415,3,0.2,0.25,35.0,1,1.0,0.6956009999998969
416,3,0.2,0.125,35.0,1,1.0,0.352301000000125
417,3,0.2,0.125,35.0,-1,0.0,0.10910099999978229
418,3,0.2,1.0,35.0,1,1.0,0.2892010000000482
419,3,0.2,0.0,35.0,-1,0.0,0.4358009999998558
420,3,0.2,1.0,35.0,1,1.0,0.25260099999991326
421,3,0.2,0.125,35.0,1,1.0,0.4993010000000595
422,3,0.2,0.0,35.0,1,1.0,6.429401000000098
423,3,0.2,0.0625,35.0,1,1.0,0.46620099999995546
424,3,0.2,0.125,35.0,1,1.0,0.7098009999999704
425,3,0.2,0.0625,35.0,1,1.0,6.173200999999835
426,3,0.2,0.25,35.0,1,1.0,0.5967009999999391
427,3,0.2,0.25,35.0,-1,0.0,0.24010099999986778
428,3,0.2,0.125,35.0,1,1.0,0.8235009999996237
429,3,0.2,0.125,35.0,1,1.0,5.833400999999867
430,3,0.2,0.0625,-35.0,-1,1.0,0.7436009999998987
431,3,0.2,0.25,35.0,1,1.0,0.6237009999997554
432,3,0.2,0.25,35.0,-1,0.0,0.20380099999988488
433,3,0.2,0.25,35.0,1,1.0,0.4938010000000759
434,3,0.2,1.0,35.0,1,1.0,0.2973010000000613
435,3,0.2,0.0,35.0,-1,0.0,7.027400999999827
436,3,0.2,1.0,35.0,1,1.0,0.37420100000053935
437,3,0.8,0.0,-35.0,1,0.0,0.6242010000005394
438,3,0.8,0.25,-35.0,-1,1.0,0.41440100000045277
439,3,0.8,0.0625,35.0,-1,0.0,3.514401000000362
440,3,0.8,0.25,35.0,-1,0.0,0.42880100000047605
441,3,0.8,1.0,-35.0,-1,1.0,0.321201000000201
442,3,0.8,0.25,-35.0,-1,1.0,0.2713010000002214
443,3,0.8,0.125,35.0,-1,0.0,4.94470100000035
444,3,0.8,1.0,35.0,1,1.0,0.49160100000017337
445,3,0.8,1.0,-35.0,-1,1.0,0.4549010000000635
446,3,0.8,0.0625,-35.0,-1,1.0,7.898201000000427
447,3,0.8,0.125,-35.0,-1,1.0,0.20850100000052407
448,3,0.8,0.25,-35.0,-1,1.0,0.34180200000037075
449,3,0.8,0.0625,-35.0,-1,1.0,0.2220010000005459
450,3,0.8,0.25,-35.0,-1,1.0,0.238702000000103
451,3,0.8,0.0625,-35.0,-1,1.0,0.9823010000004615
452,3,0.8,0.0625,-35.0,-1,1.0,0.1920010000003458
453,3,0.8,1.0,-35.0,-1,1.0,0.45870100000047387
454,3,0.8,0.0,35.0,-1,0.0,1.9822010000002592
455,3,0.8,1.0,-35.0,-1,1.0,0.23560100000031525
456,3,0.8,0.125,-35.0,-1,1.0,0.22560100000009697
457,3,0.8,0.25,-35.0,-1,1.0,0.3692010000004302
458,3,0.8,0.125,-35.0,-1,1.0,0.23590100000046732
459,3,0.8,0.25,35.0,-1,0.0,7.969401000000289
460,3,0.8,0.0,-35.0,-1,1.0,0.26280099999985396
461,3,0.8,0.0625,35.0,1,1.0,0.7729009999998198
462,3,0.8,1.0,-35.0,-1,1.0,0.3795010000003458
463,3,0.8,1.0,-35.0,-1,1.0,0.43630100000063976
464,3,0.8,0.125,-35.0,-1,1.0,0.5805009999999129
465,3,0.8,1.0,-35.0,-1,1.0,0.3981010000002243
466,3,0.8,0.25,-35.0,-1,1.0,0.5611010000002352
467,3,0.8,0.125,-35.0,-1,1.0,0.3709009999997761
468,3,0.8,0.25,35.0,1,1.0,4.930901000000176
469,3,0.8,0.0625,35.0,-1,0.0,6.611301000000367
470,3,0.8,0.125,-35.0,-1,1.0,0.3349009999997179
471,3,0.8,0.25,-35.0,-1,1.0,0.6581009999999878
472,3,0.8,0.25,-35.0,-1,1.0,0.3982009999999718
473,3,0.8,0.0625,35.0,-1,0.0,1.351401000000351
474,3,0.8,1.0,35.0,1,1.0,0.4485010000003058
475,3,0.8,0.0625,-35.0,-1,1.0,0.45490100000051825
476,3,0.2,0.125,35.0,1,1.0,12.545101000000159
477,3,0.2,0.25,35.0,1,1.0,0.6485010000001239
478,3,0.2,0.0625,-35.0,-1,1.0,1.2453020000002653
479,3,0.2,0.0,35.0,-1,0.0,0.8920010000001639
480,3,0.2,0.0625,35.0,1,1.0,0.7757020000003649
481,3,0.2,1.0,35.0,1,1.0,0.5323020000000724
482,3,0.2,0.0625,35.0,1,1.0,6.289101000000301
483,3,0.2,0.125,-35.0,-1,1.0,0.3028010000002723
484,3,0.2,0.0625,35.0,-1,0.0,7.305001000000175
485,3,0.2,0.125,-35.0,-1,1.0,0.5661009999998896
486,3,0.2,1.0,35.0,1,1.0,0.5797010000001137
487,3,0.2,1.0,35.0,1,1.0,1.3828010000001996
488,3,0.2,0.0625,35.0,1,1.0,0.33310100000016973
489,3,0.2,1.0,35.0,1,1.0,0.4731010000000424
490,3,0.2,1.0,35.0,1,1.0,8.42960099999982
491,3,0.2,0.25,35.0,1,1.0,0.9502010000001064
492,3,0.2,0.125,35.0,-1,0.0,8.246600999999828
493,3,0.2,0.25,-35.0,-1,1.0,0.7469009999999798
494,3,0.2,1.0,-35.0,-1,1.0,0.48740100000031816
495,3,0.2,0.0625,35.0,-1,0.0,15.467101000000184
496,3,0.2,0.25,-35.0,-1,1.0,0.5176010000000133
497,3,0.2,0.25,35.0,1,1.0,9.08780200000001
498,3,0.2,0.0,35.0,-1,0.0,0.534701000000041
499,3,0.2,1.0,35.0,1,1.0,0.7312010000005102
500,3,0.2,1.0,35.0,1,1.0,0.7546010000000933
501,3,0.2,1.0,-35.0,-1,1.0,8.57500200000004
502,3,0.2,1.0,35.0,1,1.0,0.9182010000004084
503,3,0.2,0.0625,35.0,-1,0.0,24.791601000000355
504,3,0.2,1.0,35.0,1,1.0,0.488901000000169
505,3,0.2,1.0,35.0,1,1.0,0.5229010000002745
506,3,0.2,0.25,35.0,1,1.0,8.849001000000044
507,3,0.2,0.0625,35.0,-1,0.0,13.512801000000309
508,3,0.2,0.125,35.0,1,1.0,0.6164020000001074
509,3,0.2,0.0625,35.0,-1,0.0,0.0630010000004404
510,3,0.2,0.125,35.0,1,1.0,4.686701000000085
511,3,0.2,0.125,35.0,1,1.0,5.889701000000059
512,3,0.2,0.125,35.0,1,1.0,11.526601000000028
513,3,0.2,0.0,35.0,-1,0.0,9.85010100000045
514,3,0.2,1.0,35.0,1,1.0,0.3804009999998925
515,3,0.2,0.25,35.0,-1,0.0,3.2837020000006305
516,3,0.2,1.0,35.0,1,1.0,11.301101000000472
517,3,0.2,0.25,35.0,-1,0.0,0.3710010000004331
518,3,0.2,0.25,35.0,1,1.0,0.5879010000003291
519,3,0.2,0.0,35.0,-1,0.0,10.7882010000003
520,3,0.2,0.125,35.0,1,1.0,8.225001000000248
1,4,0.2,0.0625,35.0,1,1.0,0.7698999999999998
2,4,0.2,0.25,35.0,1,1.0,0.2745000000000002
3,4,0.2,0.25,-35.0,-1,1.0,0.3241999999999994
4,4,0.2,0.25,35.0,1,1.0,0.8255999999999997
5,4,0.2,0.0625,35.0,1,1.0,8.125600000000002
6,4,0.2,0.25,35.0,1,1.0,0.2668999999999997
7,4,0.2,0.0,35.0,1,1.0,2.7890000000000015
8,4,0.2,0.0625,35.0,1,1.0,4.123699999999992
9,4,0.2,0.125,35.0,1,1.0,4.935200000000002
10,4,0.2,0.125,-35.0,-1,1.0,0.41510100000000705
11,4,0.2,1.0,35.0,1,1.0,0.32740100000000183
12,4,0.2,0.125,35.0,1,1.0,0.6655999999999977
13,4,0.2,0.25,35.0,1,1.0,0.31600099999999287
14,4,0.2,0.0625,35.0,1,1.0,3.4099999999999966
15,4,0.2,1.0,-35.0,-1,1.0,0.32869999999999777
16,4,0.2,0.125,35.0,1,1.0,5.55019999999999
17,4,0.2,1.0,35.0,1,1.0,0.5675999999999846
18,4,0.2,0.0625,-35.0,-1,1.0,0.3376999999999981
19,4,0.2,0.0625,35.0,1,1.0,1.115399999999994
20,4,0.2,1.0,35.0,1,1.0,0.3885009999999909
21,4,0.2,0.25,35.0,1,1.0,5.846500999999989
22,4,0.2,0.0625,35.0,1,1.0,5.4325000000000045
23,4,0.2,0.125,35.0,1,1.0,0.620001000000002
24,4,0.2,0.125,35.0,1,1.0,6.47829999999999
25,4,0.2,1.0,35.0,1,1.0,0.2839010000000002
26,4,0.2,0.125,-35.0,-1,1.0,0.3394999999999868
27,4,0.2,0.125,35.0,1,1.0,0.8469009999999741
28,4,0.2,0.125,35.0,1,1.0,3.826999999999998
29,4,0.2,0.0,35.0,-1,0.0,5.305100999999979
30,4,0.2,0.0625,-35.0,-1,1.0,0.351600000000019
31,4,0.2,0.0625,-35.0,-1,1.0,0.6520999999999901
32,4,0.2,0.125,35.0,1,1.0,0.6821009999999887
33,4,0.2,1.0,35.0,1,1.0,1.1000999999999692
34,4,0.2,1.0,-35.0,-1,1.0,0.23730000000000473
35,4,0.2,0.0625,35.0,1,1.0,3.2424000000000035
36,4,0.2,1.0,35.0,1,1.0,0.2446999999999946
37,4,0.2,1.0,35.0,1,1.0,0.23079999999995948
38,4,0.2,0.0625,-35.0,1,0.0,2.966901000000007
39,4,0.8,0.0625,-35.0,-1,1.0,0.565400000000011
40,4,0.8,0.125,35.0,1,1.0,0.2296000000000049
41,4,0.8,0.0,-35.0,-1,1.0,2.287000000000006
42,4,0.8,0.0625,-35.0,-1,1.0,0.6877010000000041
43,4,0.8,0.25,-35.0,-1,1.0,0.22470000000001278
44,4,0.8,1.0,-35.0,-1,1.0,0.2920999999999765
45,4,0.8,0.25,-35.0,-1,1.0,0.449799999999982
46,4,0.8,0.0625,-35.0,-1,1.0,0.8571000000000026
47,4,0.8,0.125,-35.0,-1,1.0,0.6952000000000282
48,4,0.8,1.0,-35.0,-1,1.0,0.4300999999999817
49,4,0.8,0.0625,35.0,-1,0.0,3.321300000000008
50,4,0.8,0.0625,-35.0,-1,1.0,0.1203000000000145
51,4,0.8,0.125,-35.0,-1,1.0,0.5748999999999853
52,4,0.8,0.0,-35.0,-1,1.0,0.8936999999999671
53,4,0.8,0.125,35.0,1,1.0,0.5176000000000158
54,4,0.8,0.0,-35.0,-1,1.0,2.449399999999997
55,4,0.8,0.0625,-35.0,-1,1.0,0.6514999999999986
56,4,0.8,0.25,-35.0,-1,1.0,0.22859999999997171
57,4,0.8,1.0,35.0,1,1.0,0.3463999999999885
58,4,0.8,0.25,-35.0,-1,1.0,0.24750000000000227
59,4,0.8,1.0,-35.0,-1,1.0,0.20500100000000998
60,4,0.8,0.0625,-35.0,-1,1.0,0.498299999999972
61,4,0.8,0.25,-35.0,-1,1.0,0.35129999999998063
62,4,0.2,0.0625,35.0,1,1.0,0.4090999999999667
63,4,0.2,0.25,35.0,1,1.0,1.0942000000000007
64,4,0.2,1.0,-35.0,-1,1.0,0.26530000000002474
65,4,0.2,1.0,35.0,1,1.0,0.535699999999963
66,4,0.2,0.125,35.0,-1,0.0,0.49010000000004084
67,4,0.2,0.0625,35.0,1,1.0,0.31349999999997635
68,4,0.2,0.125,35.0,1,1.0,0.35970099999997274
69,4,0.2,0.125,-35.0,-1,1.0,0.38740000000001373
70,4,0.2,0.0,35.0,-1,0.0,0.35599999999999454
71,4,0.2,0.125,35.0,1,1.0,0.4964999999999691
72,4,0.2,0.25,35.0,1,1.0,0.499100999999996
73,4,0.2,0.25,35.0,1,1.0,0.29589999999996053
74,4,0.2,0.125,35.0,1,1.0,0.5656999999999357
75,4,0.2,0.0625,35.0,1,1.0,6.515100000000018
76,4,0.2,0.0625,-35.0,-1,1.0,0.3772999999999911
77,4,0.2,1.0,35.0,1,1.0,0.3483009999999922
78,4,0.2,0.25,35.0,1,1.0,1.078000999999972
79,4,0.2,1.0,35.0,1,1.0,0.5552000000000135
80,4,0.2,0.25,35.0,1,1.0,4.7006000000000085
81,4,0.2,1.0,35.0,1,1.0,0.2219000000000051
82,4,0.2,0.0625,35.0,1,1.0,0.29160000000001673
83,4,0.2,0.125,-35.0,-1,1.0,0.05030000000004975
84,4,0.2,0.25,35.0,-1,0.0,1.0640999999999963
85,4,0.2,0.125,35.0,1,1.0,0.2883000000000493
86,4,0.2,0.125,35.0,-1,0.0,3.51339999999999
87,4,0.2,0.0625,35.0,1,1.0,0.7738009999999349
88,4,0.2,0.125,35.0,1,1.0,0.39449999999999363
89,4,0.2,0.25,-35.0,-1,1.0,0.3073999999999728
90,4,0.2,0.0625,-35.0,-1,1.0,0.247400999999968
91,4,0.2,1.0,35.0,1,1.0,0.3447010000000432
92,4,0.8,0.125,-35.0,-1,1.0,0.6656999999999584
93,4,0.8,0.0625,-35.0,-1,1.0,0.31389999999998963
94,4,0.8,0.25,-35.0,-1,1.0,0.2317000000000462
95,4,0.8,0.25,-35.0,-1,1.0,0.4741999999999962
96,4,0.8,0.125,-35.0,-1,1.0,0.7085999999999899
97,4,0.8,0.125,35.0,-1,0.0,4.046999999999969
98,4,0.8,0.0625,-35.0,1,0.0,0.49619999999998754
99,4,0.8,1.0,-35.0,-1,1.0,0.26010000000002265
100,4,0.8,0.125,-35.0,-1,1.0,0.9474999999999909
101,4,0.8,1.0,-35.0,-1,1.0,0.2529999999999859
102,4,0.8,0.0,-35.0,1,0.0,8.532699999999977
103,4,0.8,0.125,-35.0,-1,1.0,0.40949999999998
104,4,0.8,1.0,-35.0,-1,1.0,0.2266999999999939
105,4,0.8,0.125,-35.0,-1,1.0,0.3704000000000178
106,4,0.8,1.0,35.0,1,1.0,0.25099999999997635
107,4,0.8,0.0,-35.0,-1,1.0,3.30439999999993
108,4,0.8,0.0625,-35.0,-1,1.0,0.6361010000000533
109,4,0.8,0.0625,-35.0,-1,1.0,0.5434000000000196
110,4,0.8,0.0,-35.0,-1,1.0,7.078001000000029
111,4,0.8,1.0,35.0,1,1.0,1.176499999999976
112,4,0.8,0.25,-35.0,-1,1.0,0.3018000000000143
113,4,0.8,1.0,35.0,1,1.0,0.4779999999999518
114,4,0.8,0.25,35.0,1,1.0,0.2762010000000146
115,4,0.8,0.125,35.0,-1,0.0,0.4408000000000243
116,4,0.8,0.0625,-35.0,-1,1.0,0.803600000000074
117,4,0.8,0.0,-35.0,-1,1.0,6.211900000000014
118,4,0.8,0.0625,35.0,1,1.0,0.4572000000000003
119,4,0.8,0.0,35.0,1,1.0,8.104399999999998
120,4,0.8,1.0,-35.0,-1,1.0,0.24979999999999336
121,4,0.8,0.125,-35.0,-1,1.0,0.26200000000000045
122,4,0.8,1.0,35.0,1,1.0,0.23339999999996053
123,4,0.8,1.0,35.0,1,1.0,0.21390000000002374
124,4,0.8,0.25,-35.0,-1,1.0,0.4288999999999987
125,4,0.8,1.0,-35.0,-1,1.0,0.7139999999999986
126,4,0.8,0.0625,-35.0,-1,1.0,0.28920000000005075
127,4,0.8,1.0,-35.0,-1,1.0,0.2881000000000995
128,4,0.8,1.0,-35.0,-1,1.0,0.4638000000001057
129,4,0.8,1.0,35.0,1,1.0,0.8199000000000751
130,4,0.2,0.0625,35.0,1,1.0,4.740299999999934
131,4,0.2,0.25,35.0,1,1.0,0.2818010000000868
132,4,0.2,0.0625,35.0,-1,0.0,4.928900000000112
133,4,0.2,0.25,35.0,1,1.0,0.6708000000000993
134,4,0.2,0.125,35.0,1,1.0,0.39360000000010587
135,4,0.2,1.0,35.0,1,1.0,1.183400000000006
136,4,0.2,1.0,35.0,1,1.0,0.27680000000009386
137,4,0.2,0.0625,35.0,-1,0.0,5.207000000000107
138,4,0.2,0.0625,-35.0,1,0.0,0.5054000000000087
139,4,0.2,1.0,35.0,1,1.0,0.4252999999999929
140,4,0.2,1.0,35.0,1,1.0,1.0738000000000056
141,4,0.2,0.125,35.0,1,1.0,0.863100000000145
142,4,0.2,0.125,35.0,1,1.0,0.4108009999999922
143,4,0.2,1.0,35.0,1,1.0,0.304300000000012
144,4,0.2,0.125,35.0,1,1.0,5.682100000000105
145,4,0.2,1.0,35.0,1,1.0,0.46550000000002
146,4,0.2,1.0,-35.0,-1,1.0,0.6915010000001303
147,4,0.2,0.0625,35.0,1,1.0,3.965001000000143
148,4,0.2,0.0625,35.0,-1,0.0,0.18560100000013335
149,4,0.2,1.0,35.0,1,1.0,0.2665000000000646
150,4,0.2,1.0,-35.0,-1,1.0,0.1856000000000222
151,4,0.2,0.125,35.0,1,1.0,4.779899999999998
152,4,0.2,0.125,35.0,1,1.0,0.5212999999999965
153,4,0.2,0.0625,35.0,-1,0.0,0.3104000000000724
154,4,0.2,0.25,35.0,1,1.0,0.8964999999999463
155,4,0.2,0.125,-35.0,-1,1.0,0.2804000000000997
156,4,0.2,1.0,35.0,1,1.0,0.3623010000000022
157,4,0.2,0.125,35.0,1,1.0,6.270400000000109
158,4,0.2,0.25,35.0,1,1.0,4.972700000000145
159,4,0.2,0.25,35.0,1,1.0,5.821601000000101
160,4,0.2,0.25,35.0,1,1.0,0.8554000000000315
161,4,0.2,0.125,35.0,1,1.0,4.996300000000019
162,4,0.2,0.125,35.0,1,1.0,0.5448010000000068
163,4,0.2,0.125,35.0,1,1.0,13.705600000000118
164,4,0.2,0.125,35.0,1,1.0,0.8061000000001286
165,4,0.2,0.0625,35.0,1,1.0,6.799600000000055
166,4,0.2,0.0625,35.0,1,1.0,6.826099999999997
