trial_num,session_num,stim_probability_left,contrast,position,response_choice,trial_correct,reaction_time
1,1,0.8,0.25,35.0,-1,0.0,0.2304999999999997
2,1,0.8,0.25,-35.0,-1,1.0,0.3423000000000007
3,1,0.8,0.125,35.0,1,1.0,0.35029999999999895
4,1,0.8,0.125,-35.0,-1,1.0,0.6021000000000019
5,1,0.8,0.0,-35.0,-1,1.0,3.5096000000000007
6,1,0.8,1.0,-35.0,-1,1.0,0.35260000000000247
7,1,0.8,1.0,-35.0,-1,1.0,0.2798000000000016
8,1,0.8,1.0,-35.0,-1,1.0,0.26899999999999835
9,1,0.8,1.0,-35.0,-1,1.0,0.21250000000000213
10,1,0.8,0.0625,-35.0,-1,1.0,0.2942999999999998
11,1,0.8,0.125,35.0,1,1.0,0.36810000000000187
12,1,0.8,0.125,-35.0,-1,1.0,0.30159999999999343
13,1,0.8,1.0,-35.0,-1,1.0,0.2458999999999989
14,1,0.8,0.125,-35.0,-1,1.0,3.0841999999999956
15,1,0.8,1.0,-35.0,-1,1.0,0.24139999999999873
16,1,0.8,0.25,35.0,1,1.0,0.5315999999999974
17,1,0.8,1.0,35.0,1,1.0,0.6204000000000036
18,1,0.8,0.25,35.0,1,1.0,0.5521000000000029
19,1,0.8,0.125,-35.0,-1,1.0,0.8455000000000013
20,1,0.8,1.0,-35.0,-1,1.0,1.6505999999999972
21,1,0.8,0.25,-35.0,-1,1.0,0.22149999999999892
22,1,0.8,0.0,-35.0,-1,1.0,3.7805000000000106
23,1,0.8,0.0,35.0,-1,0.0,2.7356000000000193
24,1,0.8,0.25,-35.0,-1,1.0,0.21120000000000516
25,1,0.8,0.25,35.0,1,1.0,0.32100000000001216
26,1,0.8,0.0,-35.0,-1,1.0,2.8981000000000137
27,1,0.8,0.125,-35.0,-1,1.0,0.4825000000000017
28,1,0.8,0.0,35.0,-1,0.0,3.772899999999993
29,1,0.8,0.0,-35.0,1,0.0,0.2809000000000026
30,1,0.8,0.125,-35.0,-1,1.0,0.5341000000000093
31,1,0.8,0.25,35.0,-1,0.0,1.4196999999999917
32,1,0.8,0.125,-35.0,-1,1.0,0.1728999999999843
33,1,0.8,0.125,-35.0,-1,1.0,0.3001999999999896
34,1,0.8,0.0625,-35.0,-1,1.0,0.6627000000000152
35,1,0.8,0.0625,-35.0,-1,1.0,0.22759999999999536
36,1,0.8,0.0625,-35.0,-1,1.0,0.38989999999999725
37,1,0.8,0.125,-35.0,-1,1.0,0.3263999999999925
38,1,0.8,0.125,-35.0,-1,1.0,0.6041999999999916
39,1,0.8,0.0,-35.0,-1,1.0,0.520300000000006
40,1,0.8,0.125,-35.0,-1,1.0,0.38590000000000657
41,1,0.8,0.25,-35.0,-1,1.0,0.3423000000000229
42,1,0.8,0.25,-35.0,-1,1.0,0.7432000000000016
43,1,0.8,0.0625,-35.0,-1,1.0,0.5104000000000042
44,1,0.8,0.25,35.0,1,1.0,0.535899999999998
45,1,0.8,1.0,-35.0,-1,1.0,0.45359999999999445
46,1,0.8,0.125,35.0,1,1.0,0.8607000000000085
47,1,0.8,0.0,35.0,-1,0.0,3.5472999999999786
48,1,0.8,0.0625,-35.0,-1,1.0,0.41090000000002647
49,1,0.8,0.25,-35.0,-1,1.0,0.5472000000000037
50,1,0.8,0.0625,-35.0,-1,1.0,3.647500000000008
51,1,0.8,0.25,-35.0,-1,1.0,0.4328000000000145
52,1,0.8,0.25,-35.0,-1,1.0,0.7875999999999976
53,1,0.8,0.25,35.0,1,1.0,0.551400000000001
54,1,0.8,1.0,-35.0,-1,1.0,0.48740000000000805
55,1,0.8,0.25,-35.0,-1,1.0,0.4176000000000215
56,1,0.8,0.0,-35.0,-1,1.0,0.42369999999999663
57,1,0.8,0.25,-35.0,-1,1.0,0.5178999999999974
58,1,0.8,0.0,-35.0,-1,1.0,2.0320999999999856
59,1,0.8,0.0625,-35.0,-1,1.0,0.4417999999999722
60,1,0.8,0.25,-35.0,-1,1.0,0.5498000000000047
61,1,0.8,0.0625,35.0,-1,0.0,0.4198000000000093
62,1,0.8,1.0,-35.0,-1,1.0,0.24660000000000082
63,1,0.8,0.25,-35.0,-1,1.0,0.2902000000000271
64,1,0.8,1.0,-35.0,-1,1.0,0.3185999999999751
65,1,0.8,1.0,-35.0,-1,1.0,0.257000000000005
66,1,0.8,0.0625,-35.0,-1,1.0,1.4587999999999965
67,1,0.2,0.125,35.0,1,1.0,0.5180000000000007
68,1,0.2,0.0625,35.0,-1,0.0,2.6484999999999843
69,1,0.2,1.0,35.0,1,1.0,0.23959999999999582
70,1,0.2,0.0625,35.0,1,1.0,0.6162000000000205
71,1,0.2,0.0625,35.0,1,1.0,0.5584999999999809
72,1,0.2,0.25,35.0,1,1.0,0.36429999999998586
73,1,0.2,1.0,35.0,1,1.0,0.2838999999999885
74,1,0.2,1.0,35.0,1,1.0,0.38339999999999463
75,1,0.2,0.0,35.0,-1,0.0,0.22630000000000905
76,1,0.2,0.25,35.0,1,1.0,0.21600000000000819
77,1,0.2,0.0625,-35.0,1,0.0,0.3521999999999821
78,1,0.2,0.125,35.0,1,1.0,0.2552000000000021
79,1,0.2,0.125,35.0,1,1.0,0.2503000000000384
80,1,0.2,0.125,35.0,1,1.0,0.4134999999999991
81,1,0.2,0.125,-35.0,-1,1.0,0.25260000000002947
82,1,0.2,0.125,35.0,1,1.0,0.1828999999999894
83,1,0.2,0.25,35.0,1,1.0,0.23099999999999454
84,1,0.2,0.125,35.0,1,1.0,0.26940000000001874
85,1,0.2,0.125,35.0,1,1.0,0.321200000000033
86,1,0.2,0.0625,-35.0,-1,1.0,0.6363999999999805
87,1,0.2,0.0,35.0,1,1.0,0.32049999999998136
88,1,0.2,0.125,-35.0,-1,1.0,0.404200000000003
89,1,0.2,1.0,35.0,1,1.0,0.2693999999999619
90,1,0.2,0.25,35.0,1,1.0,0.2064999999999486
91,1,0.2,0.0625,35.0,1,1.0,0.4578999999999951
92,1,0.2,0.25,-35.0,-1,1.0,0.32749999999998636
93,1,0.2,0.25,35.0,1,1.0,0.3040999999999485
94,1,0.2,1.0,35.0,1,1.0,0.3039999999999736
95,1,0.2,0.125,-35.0,-1,1.0,0.3806999999999334
96,1,0.2,0.0625,35.0,-1,0.0,0.19819999999998572
97,1,0.2,0.0625,35.0,1,1.0,0.3172999999999888
98,1,0.2,0.25,-35.0,-1,1.0,0.3436999999999557
99,1,0.2,0.125,35.0,1,1.0,0.2780999999999949
100,1,0.2,0.125,35.0,1,1.0,0.5120999999999754
101,1,0.2,0.125,-35.0,-1,1.0,3.5189000000000306
102,1,0.2,0.25,35.0,1,1.0,0.28129999999998745
103,1,0.2,0.25,-35.0,-1,1.0,0.47819999999995844
104,1,0.2,0.25,35.0,1,1.0,0.4247999999999479
105,1,0.2,0.0,35.0,1,1.0,0.5081000000000131
106,1,0.2,0.125,-35.0,-1,1.0,0.5760999999999399
107,1,0.2,1.0,35.0,1,1.0,0.3532999999999902
108,1,0.2,0.125,35.0,-1,0.0,0.2844000000000051
109,1,0.2,0.25,35.0,-1,0.0,2.7910999999999717
110,1,0.2,0.0625,35.0,-1,0.0,0.636099999999999
111,1,0.2,0.0625,35.0,-1,0.0,0.5313999999999623
112,1,0.2,0.25,-35.0,-1,1.0,0.23829999999998108
113,1,0.2,0.0,35.0,1,1.0,1.2918999999999983
114,1,0.2,0.25,35.0,1,1.0,0.615099999999984
115,1,0.2,0.0625,35.0,-1,0.0,0.684099999999944
116,1,0.2,0.125,-35.0,-1,1.0,0.3996000000000208
117,1,0.2,0.25,-35.0,-1,1.0,0.3946000000000254
118,1,0.2,0.25,35.0,1,1.0,0.49850000000003547
119,1,0.2,0.0625,-35.0,-1,1.0,0.8124000000000251
120,1,0.2,0.125,35.0,-1,0.0,0.45830000000000837
121,1,0.2,0.25,35.0,1,1.0,0.5919000000000096
122,1,0.2,0.125,35.0,1,1.0,0.3920999999999708
123,1,0.2,0.0625,35.0,1,1.0,1.0355999999999312
124,1,0.2,1.0,35.0,1,1.0,0.29300000000000637
125,1,0.2,0.125,35.0,-1,0.0,2.986099999999965
126,1,0.2,0.0625,35.0,1,1.0,0.22719999999998208
127,1,0.2,0.125,35.0,1,1.0,0.32109999999994443
128,1,0.2,0.125,-35.0,1,0.0,0.38369999999997617
129,1,0.2,0.0625,35.0,1,1.0,0.30689999999998463
130,1,0.2,0.0,35.0,1,1.0,0.43360000000001264
131,1,0.2,0.0625,-35.0,-1,1.0,0.3295999999999708
132,1,0.2,0.25,35.0,1,1.0,0.5983999999999696
133,1,0.2,0.25,35.0,1,1.0,0.2658999999999878
134,1,0.2,0.25,35.0,1,1.0,0.38769999999999527
135,1,0.2,0.0625,35.0,-1,0.0,0.26979999999997517
136,1,0.2,0.125,35.0,1,1.0,0.2431999999999448
137,1,0.2,0.25,-35.0,-1,1.0,0.15089999999997872
138,1,0.2,0.125,-35.0,1,0.0,0.5946999999999889
139,1,0.2,0.25,35.0,1,1.0,0.20359999999999445
140,1,0.2,0.0625,35.0,1,1.0,1.7420000000000186
141,1,0.2,1.0,35.0,1,1.0,0.29779999999993834
142,1,0.2,0.0,35.0,1,1.0,0.3762999999999579
143,1,0.2,0.25,35.0,1,1.0,0.21059999999999945
144,1,0.2,0.0625,35.0,1,1.0,0.2401999999999589
145,1,0.2,0.25,35.0,1,1.0,0.22859999999997171
146,1,0.2,0.0625,35.0,-1,0.0,3.6850000000000023
147,1,0.2,0.0625,-35.0,1,0.0,0.2796000000000163
148,1,0.2,0.25,35.0,1,1.0,0.17159999999995534
149,1,0.2,1.0,35.0,1,1.0,0.20369999999996935
150,1,0.2,1.0,-35.0,-1,1.0,0.30499999999995
151,1,0.2,0.25,35.0,1,1.0,0.2471999999999639
152,1,0.2,0.0,35.0,-1,0.0,1.9855999999999767
153,1,0.2,0.125,35.0,1,1.0,0.5407000000000153
154,1,0.2,0.125,35.0,1,1.0,0.261099999999999
155,1,0.2,0.0,-35.0,1,0.0,0.1964999999999577
156,1,0.2,0.0625,35.0,1,1.0,0.20949999999999136
157,1,0.2,0.0625,35.0,1,1.0,0.2519999999999527
158,1,0.2,0.25,35.0,1,1.0,0.25670000000002346
159,1,0.2,0.125,35.0,1,1.0,0.22749999999996362
160,1,0.2,0.25,35.0,1,1.0,0.2530999999999608
161,1,0.2,0.125,35.0,1,1.0,0.2932999999999879
162,1,0.2,0.125,35.0,1,1.0,0.46179999999998245
163,1,0.8,1.0,-35.0,-1,1.0,0.7176000000000045
164,1,0.8,1.0,-35.0,-1,1.0,0.3324999999999818
165,1,0.8,0.25,-35.0,-1,1.0,0.47239999999999327
166,1,0.8,0.25,-35.0,-1,1.0,0.904200000000003
167,1,0.8,0.0625,-35.0,-1,1.0,3.609199999999987
168,1,0.8,0.0625,-35.0,-1,1.0,0.6944999999999482
169,1,0.8,0.25,-35.0,-1,1.0,0.29990000000003647
170,1,0.8,0.0625,-35.0,-1,1.0,0.46729999999990923
171,1,0.8,0.0,-35.0,-1,1.0,0.5324999999999136
172,1,0.8,0.0,-35.0,1,0.0,0.22320000000001983
173,1,0.8,0.0625,-35.0,-1,1.0,2.5872000000000526
174,1,0.8,0.0625,-35.0,-1,1.0,0.46460000000013224
175,1,0.8,0.25,35.0,1,1.0,0.21640000000002146
176,1,0.8,0.125,-35.0,-1,1.0,0.40260000000000673
177,1,0.8,0.25,-35.0,-1,1.0,0.4230999999999767
178,1,0.8,1.0,-35.0,-1,1.0,0.2583000000000766
179,1,0.8,0.25,-35.0,-1,1.0,0.5893999999999551
180,1,0.8,0.25,-35.0,-1,1.0,0.36810000000002674
181,1,0.8,0.0,-35.0,-1,1.0,0.34150000000011005
182,1,0.8,0.125,-35.0,-1,1.0,0.6096000000000004
183,1,0.8,0.125,-35.0,-1,1.0,0.5201000000000704
184,1,0.8,0.25,-35.0,-1,1.0,0.40810000000010405
185,1,0.8,1.0,35.0,1,1.0,0.2556000000000722
186,1,0.8,1.0,-35.0,-1,1.0,0.5475000000001273
187,1,0.8,0.125,-35.0,-1,1.0,0.5290999999999713
188,1,0.8,0.0,-35.0,-1,1.0,0.38250000000005
189,1,0.8,0.0625,-35.0,-1,1.0,3.91579999999999
190,1,0.8,0.0,-35.0,1,0.0,0.45840000000009695
191,1,0.8,0.25,-35.0,-1,1.0,0.23540000000002692
192,1,0.8,0.0625,-35.0,-1,1.0,0.6636999999999489
193,1,0.8,0.0625,35.0,1,1.0,1.2461000000000695
194,1,0.8,1.0,-35.0,-1,1.0,0.47300000000007003
195,1,0.8,1.0,-35.0,-1,1.0,0.4737999999999829
196,1,0.8,0.0625,-35.0,-1,1.0,0.3714999999999691
197,1,0.8,0.0625,-35.0,-1,1.0,0.42220000000008895
198,1,0.8,0.25,-35.0,-1,1.0,0.42880000000002383
199,1,0.8,0.0625,-35.0,-1,1.0,5.885900000000106
200,1,0.8,1.0,-35.0,-1,1.0,0.4716000000000804
201,1,0.8,0.0625,-35.0,-1,1.0,3.7976000000001022
202,1,0.8,1.0,35.0,1,1.0,0.2154000000000451
203,1,0.8,0.0625,-35.0,-1,1.0,0.5262000000000171
204,1,0.8,0.25,-35.0,-1,1.0,0.4134999999999991
205,1,0.8,0.25,-35.0,-1,1.0,0.45650000000000546
206,1,0.8,0.25,35.0,1,1.0,0.4679000000000997
207,1,0.8,0.25,35.0,1,1.0,0.21109999999998763
208,1,0.8,0.25,-35.0,-1,1.0,0.23099999999999454
209,1,0.8,0.0625,-35.0,-1,1.0,0.4536000000000513
210,1,0.8,1.0,-35.0,-1,1.0,0.5058999999999969
211,1,0.8,1.0,-35.0,-1,1.0,0.24480000000005475
212,1,0.8,1.0,-35.0,-1,1.0,0.23480000000006385
213,1,0.8,0.0625,-35.0,-1,1.0,3.447200000000066
214,1,0.8,0.125,-35.0,-1,1.0,0.27690000000018244
215,1,0.8,0.0625,-35.0,1,0.0,0.35950000000002547
216,1,0.8,0.0,35.0,-1,0.0,0.35429999999996653
217,1,0.8,1.0,-35.0,-1,1.0,0.1674000000000433
218,1,0.8,1.0,-35.0,-1,1.0,0.31570000000010623
219,1,0.8,1.0,-35.0,-1,1.0,0.28319999999996526
220,1,0.8,0.0625,-35.0,-1,1.0,0.5624000000001388
221,1,0.8,0.0625,-35.0,-1,1.0,0.27569999999991524
222,1,0.8,1.0,-35.0,-1,1.0,0.2847000000000435
223,1,0.8,0.0,-35.0,-1,1.0,3.4225000000000136
224,1,0.8,1.0,-35.0,-1,1.0,0.673900000000117
225,1,0.8,0.125,-35.0,1,0.0,0.19480000000010023
226,1,0.8,0.25,35.0,1,1.0,0.3203999999999496
227,1,0.8,0.0625,-35.0,1,0.0,0.23870000000010805
228,1,0.8,1.0,-35.0,-1,1.0,0.3709000000001197
229,1,0.8,0.125,-35.0,-1,1.0,0.45039999999994507
230,1,0.8,0.0,-35.0,-1,1.0,0.4008999999999787
231,1,0.8,0.125,-35.0,-1,1.0,2.937400000000139
232,1,0.8,1.0,-35.0,-1,1.0,0.3366999999999507
233,1,0.8,0.0625,-35.0,-1,1.0,3.8011999999999944
234,1,0.8,0.25,-35.0,-1,1.0,0.48320000000001073
235,1,0.8,0.125,-35.0,-1,1.0,0.6059999999999945
236,1,0.8,0.0625,-35.0,-1,1.0,0.35159999999996217
237,1,0.8,0.0625,-35.0,-1,1.0,0.35180000000002565
238,1,0.8,1.0,-35.0,-1,1.0,0.30500000000006366
239,1,0.8,0.0625,35.0,-1,0.0,0.41839999999990596
240,1,0.8,0.0625,-35.0,-1,1.0,0.20730000000003201
241,1,0.8,0.0625,-35.0,-1,1.0,0.14570000000003347
242,1,0.8,1.0,-35.0,-1,1.0,0.49490000000002965
243,1,0.8,0.25,-35.0,-1,1.0,0.2815000000001646
244,1,0.8,0.25,-35.0,-1,1.0,0.29549999999994725
245,1,0.8,1.0,-35.0,-1,1.0,0.4774000000001024
246,1,0.8,0.0625,-35.0,-1,1.0,0.5453000000001111
247,1,0.8,0.125,-35.0,-1,1.0,0.45089999999993324
248,1,0.8,0.125,-35.0,-1,1.0,0.3611000000000786
249,1,0.8,0.25,-35.0,-1,1.0,0.45699999999999363
250,1,0.8,1.0,-35.0,-1,1.0,0.24069999999994707
251,1,0.8,0.125,35.0,1,1.0,0.7784000000000333
252,1,0.8,0.125,-35.0,-1,1.0,0.9210999999999103
253,1,0.8,0.25,-35.0,-1,1.0,0.5324999999999136
254,1,0.8,1.0,-35.0,-1,1.0,0.7243000000000848
255,1,0.2,0.125,-35.0,-1,1.0,5.381899999999973
256,1,0.2,0.25,35.0,1,1.0,0.5328000000000657
257,1,0.2,0.125,-35.0,-1,1.0,0.15300000000002
258,1,0.2,1.0,35.0,1,1.0,0.4759000000001379
259,1,0.2,0.125,-35.0,-1,1.0,1.2223000000000184
260,1,0.2,1.0,35.0,1,1.0,0.2586000000000013
261,1,0.2,1.0,35.0,1,1.0,0.29129999999997835
262,1,0.2,1.0,35.0,1,1.0,0.22100000000000364
263,1,0.2,0.0625,35.0,-1,0.0,3.49450000000013
264,1,0.2,0.0625,35.0,-1,0.0,0.6236999999999853
265,1,0.2,0.125,-35.0,-1,1.0,0.338799999999992
266,1,0.2,0.0625,35.0,-1,0.0,0.29189999999994143
267,1,0.2,0.125,35.0,1,1.0,0.25860000000011496
268,1,0.2,0.25,35.0,1,1.0,0.20280000000002474
269,1,0.2,0.0,35.0,-1,0.0,0.37360000000001037
270,1,0.2,0.125,35.0,1,1.0,0.2613000000001193
271,1,0.2,0.0625,35.0,1,1.0,0.26670000000012806
272,1,0.2,0.25,35.0,1,1.0,0.2233000000001084
273,1,0.2,0.125,35.0,1,1.0,0.628400000000056
274,1,0.2,1.0,-35.0,-1,1.0,0.3165000000000191
275,1,0.2,0.125,35.0,1,1.0,0.2117000000000644
276,1,0.2,1.0,35.0,1,1.0,0.22320000000001983
277,1,0.2,0.25,35.0,1,1.0,0.46889999999996235
278,1,0.2,0.125,35.0,1,1.0,0.269800000000032
279,1,0.2,0.25,35.0,1,1.0,0.23720000000002983
280,1,0.2,0.125,35.0,1,1.0,0.26040000000011787
281,1,0.2,0.0625,35.0,1,1.0,0.2636000000001104
282,1,0.2,0.0,35.0,-1,0.0,0.47880000000009204
283,1,0.2,0.125,35.0,1,1.0,0.30759999999997945
284,1,0.2,0.0625,35.0,1,1.0,0.6032999999999902
285,1,0.2,0.125,35.0,1,1.0,0.5973000000000184
286,1,0.2,1.0,35.0,1,1.0,0.26670000000001437
287,1,0.2,0.25,35.0,1,1.0,0.27680000000009386
288,1,0.2,1.0,-35.0,-1,1.0,0.3301999999999907
289,1,0.2,1.0,35.0,1,1.0,0.3470000000000937
290,1,0.2,0.0625,35.0,-1,0.0,0.5130000000000337
291,1,0.2,1.0,35.0,1,1.0,0.2255000000001246
292,1,0.2,0.0625,35.0,1,1.0,1.4417000000000826
293,1,0.2,0.125,35.0,1,1.0,0.44899999999995543
294,1,0.2,1.0,35.0,1,1.0,0.31530000000009295
295,1,0.2,1.0,35.0,1,1.0,0.20890000000008513
296,1,0.2,0.25,35.0,1,1.0,0.2963999999999487
297,1,0.2,0.0,35.0,-1,0.0,2.699299999999994
298,1,0.2,1.0,35.0,1,1.0,0.3669000000001006
299,1,0.2,0.0,35.0,1,1.0,0.29930000000001655
300,1,0.2,0.0,35.0,1,1.0,0.3180999999999585
301,1,0.8,0.125,-35.0,-1,1.0,0.4108999999999696
302,1,0.8,0.0625,-35.0,-1,1.0,4.247100000000046
303,1,0.8,1.0,-35.0,-1,1.0,0.6942999999999984
304,1,0.8,0.25,-35.0,-1,1.0,0.22829999999999018
305,1,0.8,0.25,-35.0,-1,1.0,0.3306999999999789
306,1,0.8,0.0625,-35.0,-1,1.0,0.33939999999995507
307,1,0.8,1.0,35.0,1,1.0,0.22250000000008185
308,1,0.8,0.0625,-35.0,1,0.0,0.19880000000000564
309,1,0.8,0.125,-35.0,-1,1.0,0.20410000000003947
310,1,0.8,0.125,35.0,-1,0.0,3.1994000000000824
311,1,0.8,0.0,-35.0,-1,1.0,0.30570000000000164
312,1,0.8,1.0,-35.0,-1,1.0,0.5236000000001013
313,1,0.8,1.0,-35.0,-1,1.0,0.42809999999997217
314,1,0.8,0.125,-35.0,-1,1.0,0.4981999999999971
315,1,0.8,0.0625,-35.0,-1,1.0,0.25469999999995707
316,1,0.8,1.0,35.0,1,1.0,0.3324000000000069
317,1,0.8,1.0,-35.0,-1,1.0,0.3449000000000524
318,1,0.8,0.0625,-35.0,-1,1.0,0.441599999999994
319,1,0.8,1.0,-35.0,-1,1.0,0.25499999999999545
320,1,0.8,0.0625,-35.0,-1,1.0,0.11650000000008731
321,1,0.8,0.125,-35.0,-1,1.0,0.49440000000015516
322,1,0.8,0.0625,-35.0,-1,1.0,0.30280000000016116
323,1,0.8,0.0,35.0,-1,0.0,0.5382000000000744
324,1,0.8,1.0,-35.0,-1,1.0,0.3259000000001606
325,1,0.8,1.0,-35.0,-1,1.0,0.233600000000024
326,1,0.8,0.25,-35.0,-1,1.0,0.080600000000004
327,1,0.8,1.0,-35.0,-1,1.0,0.2533000000000811
328,1,0.8,1.0,-35.0,-1,1.0,0.2898999999999887
329,1,0.8,0.125,35.0,1,1.0,0.6467000000000098
330,1,0.8,0.125,35.0,-1,0.0,1.8000000000000682
331,1,0.8,0.125,-35.0,-1,1.0,0.3634999999999309
332,1,0.8,1.0,-35.0,-1,1.0,0.24360000000001492
333,1,0.8,1.0,-35.0,-1,1.0,0.41040000000009513
334,1,0.8,0.125,-35.0,-1,1.0,0.4840000000000373
335,1,0.8,0.0625,-35.0,-1,1.0,0.3606999999999516
336,1,0.8,1.0,35.0,1,1.0,1.0570999999999913
337,1,0.8,0.0625,-35.0,-1,1.0,0.4244999999996253
338,1,0.8,0.0,-35.0,-1,1.0,4.407199999999875
339,1,0.8,0.25,35.0,1,1.0,0.35379999999986467
340,1,0.8,0.125,-35.0,-1,1.0,0.5839999999998327
341,1,0.8,0.0,-35.0,-1,1.0,1.0278000000000702
342,1,0.8,0.0625,-35.0,-1,1.0,0.25759999999991123
343,1,0.8,1.0,-35.0,-1,1.0,0.5195999999998548
344,1,0.8,0.0625,-35.0,-1,1.0,3.0165000000001783
345,1,0.8,0.0,-35.0,-1,1.0,0.4032999999999447
346,1,0.8,0.0,-35.0,-1,1.0,0.1332999999999629
347,1,0.8,1.0,-35.0,-1,1.0,0.3932999999999538
348,1,0.8,1.0,-35.0,-1,1.0,0.363399999999956
349,1,0.8,1.0,-35.0,-1,1.0,0.45019999999999527
350,1,0.8,0.25,-35.0,-1,1.0,0.23689999999987776
351,1,0.8,0.125,-35.0,-1,1.0,0.43040000000019063
352,1,0.8,0.0625,-35.0,-1,1.0,0.5136999999999716
353,1,0.8,1.0,-35.0,-1,1.0,0.32369900000003327
354,1,0.8,1.0,-35.0,-1,1.0,0.4437999999997828
355,1,0.8,1.0,35.0,1,1.0,0.3006000000000313
356,1,0.8,0.125,-35.0,-1,1.0,0.35730000000012296
357,1,0.8,0.125,35.0,1,1.0,0.29739999999992506
358,1,0.8,0.0625,-35.0,1,0.0,0.30409999999983484
359,1,0.8,1.0,-35.0,-1,1.0,0.5174999999999272
360,1,0.8,0.25,35.0,1,1.0,0.30749999999989086
361,1,0.8,0.125,-35.0,-1,1.0,0.8941999999999553
362,1,0.8,0.125,-35.0,-1,1.0,2.6776989999998477
363,1,0.8,0.0625,-35.0,-1,1.0,0.4777999999998883
364,1,0.8,0.0625,35.0,1,1.0,0.24119999999993524
365,1,0.8,0.125,-35.0,-1,1.0,0.37799999999992906
366,1,0.8,0.0625,-35.0,-1,1.0,0.5313999999998487
367,1,0.8,0.0,35.0,1,1.0,0.4379999999998745
368,1,0.8,0.25,35.0,1,1.0,0.23469999999997526
369,1,0.8,0.25,-35.0,-1,1.0,0.2781999999999698
370,1,0.8,0.0,-35.0,1,0.0,0.6683000000000447
371,1,0.8,0.125,-35.0,-1,1.0,0.39160000000015316
372,1,0.8,0.0625,-35.0,-1,1.0,0.41839999999979227
373,1,0.8,0.25,-35.0,-1,1.0,0.5884999999998399
374,1,0.8,0.0625,35.0,1,1.0,0.2785000000001219
375,1,0.8,0.0625,-35.0,-1,1.0,0.3186000000000604
376,1,0.2,0.25,-35.0,-1,1.0,0.2919999999999163
377,1,0.2,0.0625,35.0,-1,0.0,0.571999999999889
378,1,0.2,0.125,35.0,1,1.0,3.022100000000137
379,1,0.2,1.0,35.0,1,1.0,0.28890000000001237
380,1,0.2,0.125,35.0,1,1.0,0.2988999999997759
381,1,0.2,0.25,35.0,1,1.0,0.2323999999998705
382,1,0.2,1.0,35.0,1,1.0,0.435799999999972
383,1,0.2,0.125,35.0,1,1.0,0.1957999999999629
384,1,0.2,1.0,35.0,1,1.0,0.185799999999972
385,1,0.2,0.0625,35.0,1,1.0,0.23269999999979518
386,1,0.2,0.0,35.0,-1,0.0,0.7793000000001484
387,1,0.2,0.25,-35.0,-1,1.0,0.40269999999986794
388,1,0.2,0.125,-35.0,-1,1.0,0.28609999999980573
389,1,0.2,0.0,35.0,-1,0.0,0.4896000000001095
390,1,0.2,0.125,35.0,-1,0.0,0.8895999999999731
391,1,0.2,0.0,35.0,1,1.0,0.2397000000000844
392,1,0.2,0.25,35.0,1,1.0,0.22299999999995634
393,1,0.2,0.0625,35.0,1,1.0,0.24979999999982283
394,1,0.2,0.125,35.0,1,1.0,0.3264999999998963
395,1,0.2,0.0625,35.0,1,1.0,0.3164999999999054
396,1,0.2,0.25,35.0,1,1.0,0.3999999999998636
397,1,0.2,0.25,35.0,1,1.0,0.5300999999999476
398,1,0.2,1.0,35.0,1,1.0,0.24679999999989377
399,1,0.2,1.0,-35.0,-1,1.0,0.28339999999980137
400,1,0.2,0.25,35.0,1,1.0,0.3169999999997799
401,1,0.2,0.0625,-35.0,-1,1.0,0.47369999999978063
402,1,0.2,0.125,35.0,-1,0.0,0.44029999999997926
403,1,0.8,0.0625,-35.0,-1,1.0,0.04379999999991924
404,1,0.8,0.25,-35.0,-1,1.0,0.30389999999988504
405,1,0.8,0.25,35.0,1,1.0,0.4171999999998661
406,1,0.8,0.0,-35.0,-1,1.0,0.8040000000000873
407,1,0.8,0.125,-35.0,-1,1.0,0.37059999999974025
408,1,0.8,0.125,-35.0,-1,1.0,0.2075999999999567
409,1,0.8,0.25,-35.0,-1,1.0,0.5407999999999902
410,1,0.8,0.25,-35.0,-1,1.0,0.41760000000022046
411,1,0.8,0.0625,-35.0,-1,1.0,0.47089999999980137
412,1,0.8,0.0,-35.0,-1,1.0,0.7177000000001499
413,1,0.8,0.0,-35.0,-1,1.0,0.23099999999976717
414,1,0.8,0.125,-35.0,-1,1.0,0.43109999999978754
415,1,0.8,0.0625,-35.0,-1,1.0,0.28789999999980864
416,1,0.8,0.0,-35.0,1,0.0,0.19119999999998072
417,1,0.8,1.0,-35.0,-1,1.0,0.2947999999998956
418,1,0.8,0.125,-35.0,1,0.0,0.5380999999997584
419,1,0.8,0.25,35.0,1,1.0,0.5781999999999243
420,1,0.8,0.25,-35.0,-1,1.0,0.21489999999994325
421,1,0.8,0.0,-35.0,-1,1.0,3.2349999999999
422,1,0.8,0.25,-35.0,-1,1.0,0.36839999999983775
423,1,0.8,0.125,-35.0,-1,1.0,0.3751999999999498
424,1,0.8,0.0625,-35.0,-1,1.0,2.428599999999733
425,1,0.8,0.0,-35.0,-1,1.0,0.5220999999999094
426,1,0.8,1.0,35.0,1,1.0,0.23540000000002692
427,1,0.8,0.25,-35.0,-1,1.0,0.41879999999991924
428,1,0.8,0.125,35.0,-1,0.0,0.34229999999979555
429,1,0.8,0.125,-35.0,-1,1.0,0.31579999999985375
430,1,0.8,0.25,-35.0,-1,1.0,0.3690999999998894
431,1,0.8,0.125,-35.0,-1,1.0,0.4856999999999516
432,1,0.8,1.0,35.0,1,1.0,0.41239999999993415
433,1,0.8,0.25,-35.0,-1,1.0,0.4758999999999105
434,1,0.8,1.0,35.0,1,1.0,0.08919999999989159
435,1,0.8,0.0,-35.0,-1,1.0,0.5759000000000469
436,1,0.8,0.125,-35.0,1,0.0,0.19260000000008404
437,1,0.8,1.0,-35.0,-1,1.0,0.49270000000001346
438,1,0.8,0.0,-35.0,-1,1.0,0.3694000000000415
439,1,0.8,0.25,-35.0,-1,1.0,1.5461999999997715
440,1,0.8,0.0625,-35.0,-1,1.0,0.4362999999998465
441,1,0.8,0.125,-35.0,-1,1.0,0.3897999999999229
442,1,0.8,0.25,-35.0,-1,1.0,3.019800000000032
443,1,0.8,0.125,-35.0,1,0.0,0.2764999999999418
444,1,0.8,0.125,-35.0,-1,1.0,5.519999999999982
445,1,0.8,0.25,-35.0,-1,1.0,0.23680000000013024
446,1,0.8,0.0625,35.0,1,1.0,0.6367989999998827
447,1,0.8,0.25,-35.0,-1,1.0,0.24360000000001492
448,1,0.8,0.0625,-35.0,-1,1.0,0.8269999999997708
449,1,0.8,1.0,35.0,1,1.0,0.3569999999999709
450,1,0.8,0.0625,35.0,-1,0.0,0.48719999999980246
451,1,0.8,1.0,-35.0,-1,1.0,0.3271999999997206
452,1,0.8,0.25,-35.0,-1,1.0,0.3472999999999047
453,1,0.8,0.0625,-35.0,-1,1.0,0.5373999999999342
454,1,0.8,0.125,-35.0,-1,1.0,0.3675999999998112
455,1,0.8,1.0,-35.0,-1,1.0,0.43739999999979773
456,1,0.8,1.0,-35.0,-1,1.0,0.24090000000001055
457,1,0.8,0.125,35.0,1,1.0,0.5041999999998552
458,1,0.8,1.0,-35.0,-1,1.0,0.4242999999996755
459,1,0.8,0.0,-35.0,-1,1.0,3.300999999999931
460,1,0.8,0.125,-35.0,-1,1.0,0.4543999999998505
461,1,0.8,0.0625,-35.0,-1,1.0,0.42449999999985266
462,1,0.8,0.0625,35.0,1,1.0,0.5045999999999822
463,1,0.8,0.25,-35.0,-1,1.0,0.19139999999993051
464,1,0.8,1.0,-35.0,-1,1.0,0.4680999999998221
465,1,0.8,0.125,-35.0,-1,1.0,0.38809999999989486
466,1,0.8,0.0,-35.0,-1,1.0,0.5214999999998327
467,1,0.8,1.0,-35.0,-1,1.0,0.5181999999999789
468,1,0.8,1.0,-35.0,-1,1.0,0.30160000000000764
469,1,0.8,0.0625,-35.0,-1,1.0,3.0150999999998476
470,1,0.8,0.0625,35.0,1,1.0,0.2617999999999938
471,1,0.8,0.0625,-35.0,-1,1.0,0.31189999999992324
472,1,0.2,1.0,35.0,1,1.0,0.2685999999998785
473,1,0.2,0.0,35.0,1,1.0,1.108699999999999
474,1,0.2,0.25,35.0,1,1.0,0.2419999999999618
475,1,0.2,0.25,35.0,1,1.0,0.7788000000000466
476,1,0.2,0.25,35.0,1,1.0,0.2256999999999607
477,1,0.2,0.125,-35.0,-1,1.0,0.3522000000000389
478,1,0.2,0.125,35.0,1,1.0,0.28569999999990614
479,1,0.2,0.25,-35.0,-1,1.0,0.6557000000000244
480,1,0.2,0.125,35.0,1,1.0,3.672599999999875
481,1,0.2,1.0,35.0,1,1.0,0.14939999999978681
482,1,0.2,0.125,-35.0,1,0.0,2.6826999999998407
483,1,0.2,0.125,-35.0,1,0.0,3.019600000000082
484,1,0.2,0.0625,35.0,-1,0.0,3.009699999999839
485,1,0.2,0.25,35.0,1,1.0,0.633199999999988
486,1,0.2,0.125,35.0,1,1.0,2.749900000000025
487,1,0.2,0.125,35.0,1,1.0,0.6099000000001524
488,1,0.2,0.25,35.0,1,1.0,0.3369000000000142
489,1,0.2,0.125,35.0,1,1.0,0.9301999999997861
490,1,0.2,0.125,35.0,1,1.0,0.803599999999733
491,1,0.2,0.25,35.0,1,1.0,1.3602999999998246
492,1,0.2,0.125,-35.0,-1,1.0,5.7569999999998345
493,1,0.2,0.25,35.0,1,1.0,1.807399999999916
494,1,0.2,0.0625,35.0,1,1.0,0.3506999999999607
495,1,0.2,0.0,-35.0,1,0.0,0.2440999999998894
496,1,0.2,0.0625,35.0,1,1.0,0.35410000000001673
497,1,0.2,1.0,-35.0,-1,1.0,0.3209999999999127
498,1,0.2,0.25,-35.0,-1,1.0,1.1643000000001393
499,1,0.2,0.25,-35.0,1,0.0,0.22769999999991342
500,1,0.2,0.0625,35.0,1,1.0,0.16780000000017026
501,1,0.2,0.0,35.0,-1,0.0,3.4576999999999316
502,1,0.2,0.0625,35.0,1,1.0,0.46119999999973516
503,1,0.2,0.25,35.0,1,1.0,0.3145999999999276
504,1,0.2,1.0,35.0,1,1.0,0.27129999999988286
505,1,0.2,0.0625,35.0,1,1.0,0.588099999999713
506,1,0.2,0.0625,-35.0,-1,1.0,3.031600000000026
507,1,0.2,1.0,35.0,1,1.0,0.26499999999987267
508,1,0.2,0.25,35.0,1,1.0,0.4716999999998279
509,1,0.2,1.0,-35.0,-1,1.0,0.2886000000000877
510,1,0.2,0.0,-35.0,-1,1.0,0.21189999999978681
511,1,0.2,0.125,35.0,-1,0.0,0.9586000000001604
512,1,0.2,0.125,35.0,1,1.0,0.28880000000003747
513,1,0.2,0.0,35.0,-1,0.0,3.032000000000153
514,1,0.2,0.125,35.0,1,1.0,0.4820999999999458
515,1,0.2,0.125,35.0,1,1.0,6.285699999999906
516,1,0.2,0.25,-35.0,-1,1.0,0.40589999999997417
517,1,0.2,0.25,35.0,1,1.0,0.5726999999999407
518,1,0.2,0.0,35.0,-1,0.0,0.4958999999998923
519,1,0.2,0.0625,-35.0,1,0.0,3.119299999999839
520,1,0.2,0.0,-35.0,1,0.0,0.29959999999982756
521,1,0.2,0.25,35.0,1,1.0,0.2663000000000011
522,1,0.2,1.0,35.0,1,1.0,0.23640000000000327
523,1,0.8,0.125,-35.0,-1,1.0,0.25309999999990396
524,1,0.8,0.25,-35.0,-1,1.0,1.0564999999999145
525,1,0.8,1.0,-35.0,-1,1.0,0.35979999999995016
526,1,0.8,0.125,-35.0,-1,1.0,0.38999999999987267
527,1,0.8,1.0,35.0,1,1.0,0.21659999999997126
528,1,0.8,0.0,-35.0,-1,1.0,4.696699999999964
529,1,0.8,1.0,-35.0,-1,1.0,0.3868999999999687
530,1,0.8,0.0,-35.0,-1,1.0,3.796999999999798
531,1,0.8,0.125,35.0,-1,0.0,1.5839000000000851
532,1,0.8,0.125,-35.0,-1,1.0,0.6570999999999003
533,1,0.8,1.0,-35.0,-1,1.0,0.4272999999998319
534,1,0.8,0.0625,-35.0,-1,1.0,0.7439999999999145
535,1,0.8,0.0625,-35.0,-1,1.0,2.7307999999998174
536,1,0.8,1.0,-35.0,-1,1.0,0.32409999999981665
537,1,0.8,0.125,-35.0,-1,1.0,0.7308000000000447
538,1,0.8,0.25,-35.0,-1,1.0,0.49759999999992033
539,1,0.8,0.0625,-35.0,-1,1.0,1.7344000000000506
540,1,0.8,0.25,-35.0,-1,1.0,3.0943999999999505
541,1,0.8,0.25,-35.0,-1,1.0,0.5045000000000073
542,1,0.8,0.25,-35.0,-1,1.0,0.28129999999987376
543,1,0.8,1.0,-35.0,-1,1.0,0.34809999999993124
544,1,0.8,0.125,-35.0,-1,1.0,2.868099999999913
545,1,0.8,0.25,-35.0,-1,1.0,3.564999999999827
546,1,0.8,0.0625,-35.0,-1,1.0,4.265100000000075
547,1,0.8,0.125,35.0,1,1.0,0.36849999999981264
548,1,0.8,0.0625,-35.0,-1,1.0,0.46859999999992397
549,1,0.8,0.125,-35.0,-1,1.0,0.3653999999999087
550,1,0.8,1.0,35.0,1,1.0,0.27539999999999054
551,1,0.8,1.0,-35.0,-1,1.0,0.4255000000000564
552,1,0.8,0.0625,-35.0,-1,1.0,0.6757999999997537
553,1,0.8,0.0625,-35.0,-1,1.0,4.792299999999841
554,1,0.8,0.125,-35.0,-1,1.0,0.5024999999998272
555,1,0.8,0.25,-35.0,-1,1.0,0.24589999999989232
556,1,0.8,0.125,-35.0,-1,1.0,5.26929999999993
557,1,0.8,0.0,-35.0,-1,1.0,3.76949999999988
558,1,0.8,0.25,-35.0,-1,1.0,0.30960000000004584
559,1,0.8,0.0,-35.0,-1,1.0,1.5497000000000298
560,1,0.8,0.125,-35.0,1,0.0,12.173199999999952
561,1,0.8,1.0,35.0,1,1.0,0.470299999999952
562,1,0.8,0.25,-35.0,-1,1.0,0.3935999999998785
563,1,0.8,0.25,35.0,1,1.0,2.2902999999998883
564,1,0.8,0.125,35.0,1,1.0,6.463799999999992
565,1,0.8,0.0625,-35.0,-1,1.0,3.787400999999818
566,1,0.8,0.25,-35.0,-1,1.0,0.5742010000001301
567,1,0.8,1.0,-35.0,-1,1.0,0.4775009999998474
568,1,0.8,0.25,-35.0,-1,1.0,0.30090100000006714
569,1,0.8,0.125,35.0,-1,0.0,0.3644009999998161
570,1,0.8,0.0,-35.0,-1,1.0,0.6710009999999329
571,1,0.8,1.0,-35.0,-1,1.0,3.9245009999997365
572,1,0.8,0.25,-35.0,-1,1.0,0.53120100000001
573,1,0.8,0.125,-35.0,-1,1.0,0.9246010000001661
574,1,0.8,0.0,-35.0,-1,1.0,0.5714009999999234
575,1,0.8,0.125,-35.0,-1,1.0,3.534801000000016
576,1,0.2,0.125,35.0,1,1.0,0.3749009999999089
577,1,0.2,0.0625,35.0,1,1.0,0.28840100000002167
578,1,0.2,1.0,35.0,1,1.0,0.5250009999999747
579,1,0.2,0.0625,35.0,-1,0.0,0.3284009999997579
580,1,0.2,0.125,35.0,1,1.0,0.3351009999996677
581,1,0.2,0.25,35.0,1,1.0,0.2418009999998958
582,1,0.2,0.125,35.0,-1,0.0,2.331900999999789
583,1,0.2,0.125,35.0,-1,0.0,2.1654009999999744
584,1,0.2,1.0,35.0,1,1.0,0.3122009999999591
585,1,0.2,0.0625,35.0,-1,0.0,0.48890099999994163
586,1,0.2,0.125,-35.0,1,0.0,2.0123009999999795
587,1,0.2,0.0625,35.0,1,1.0,0.3258009999999558
588,1,0.2,1.0,35.0,1,1.0,0.2458009999998012
589,1,0.2,0.25,35.0,1,1.0,0.24260099999992235
590,1,0.2,1.0,-35.0,-1,1.0,0.4894010000000435
591,1,0.2,0.0,35.0,-1,0.0,3.7160010000000057
592,1,0.2,0.125,35.0,1,1.0,0.18940100000008897
593,1,0.2,0.0625,35.0,1,1.0,1.892800999999963
594,1,0.2,1.0,35.0,1,1.0,0.27300100000002203
595,1,0.2,0.125,35.0,1,1.0,0.24300099999982194
596,1,0.2,0.125,35.0,-1,0.0,3.9597009999999955
597,1,0.2,1.0,35.0,1,1.0,0.2732009999999718
598,1,0.2,0.25,-35.0,-1,1.0,0.7833009999997103
599,1,0.2,1.0,-35.0,-1,1.0,0.3833009999998467
600,1,0.2,1.0,-35.0,-1,1.0,0.3769009999998616
601,1,0.2,0.0,-35.0,-1,1.0,0.5402010000000246
602,1,0.2,1.0,35.0,1,1.0,0.4135009999997692
603,1,0.2,1.0,-35.0,-1,1.0,0.24030099999981758
604,1,0.2,0.125,35.0,1,1.0,0.6337009999999736
605,1,0.2,0.0625,35.0,-1,0.0,0.47030099999983577
606,1,0.2,0.25,35.0,1,1.0,0.20050100000003113
607,1,0.2,1.0,35.0,1,1.0,0.2739010000000235
608,1,0.2,0.0625,35.0,-1,0.0,0.3972009999997681
609,1,0.2,0.125,35.0,1,1.0,0.23070099999995364
610,1,0.2,1.0,35.0,1,1.0,0.4740009999998165
611,1,0.2,0.125,35.0,1,1.0,0.3807010000000446
612,1,0.2,1.0,-35.0,-1,1.0,0.3241009999999278
613,1,0.2,0.0,35.0,1,1.0,3.8543009999998503
614,1,0.2,0.125,35.0,1,1.0,0.31100100000003295
615,1,0.2,1.0,35.0,1,1.0,0.18770100000006096
616,1,0.2,0.0625,-35.0,1,0.0,3.3611009999999624
617,1,0.2,0.25,35.0,1,1.0,0.3346010000000206
618,1,0.2,1.0,35.0,1,1.0,0.44470099999989543
619,1,0.2,0.25,35.0,1,1.0,0.3381009999998241
620,1,0.2,0.125,35.0,1,1.0,0.40150100000005295
621,1,0.2,0.0625,35.0,1,1.0,0.5181009999998878
622,1,0.2,0.0625,-35.0,1,0.0,0.5116009999997004
623,1,0.2,1.0,35.0,1,1.0,0.25840100000004895
624,1,0.2,0.25,35.0,1,1.0,6.19500099999982
625,1,0.2,0.25,35.0,1,1.0,0.37190099999997983
626,1,0.2,0.125,-35.0,-1,1.0,0.342000999999982
627,1,0.2,0.25,35.0,1,1.0,0.42870099999981903
628,1,0.2,1.0,-35.0,-1,1.0,0.3788009999998394
629,1,0.2,0.0,35.0,1,1.0,0.3322009999999409
630,1,0.2,0.25,35.0,1,1.0,0.31890100000009625
631,1,0.2,0.125,35.0,1,1.0,4.482300999999779
632,1,0.2,0.25,35.0,1,1.0,0.3258009999999558
633,1,0.2,0.25,-35.0,-1,1.0,0.6826009999997495
634,1,0.2,1.0,-35.0,-1,1.0,0.29280099999982667
635,1,0.2,0.0625,-35.0,-1,1.0,0.3527009999997972
636,1,0.8,0.0,-35.0,-1,1.0,2.756200999999919
637,1,0.8,0.0625,-35.0,-1,1.0,0.45620099999996455
638,1,0.8,0.25,35.0,1,1.0,0.23620099999993727
639,1,0.8,0.125,-35.0,-1,1.0,0.7663009999996575
640,1,0.8,0.125,35.0,1,1.0,0.333100999999715
641,1,0.8,0.125,-35.0,-1,1.0,2.9398009999999886
642,1,0.8,0.0625,-35.0,1,0.0,0.3500010000000202
643,1,0.8,0.25,-35.0,-1,1.0,0.7199009999999362
644,1,0.8,0.25,-35.0,-1,1.0,0.4934010000001763
645,1,0.8,1.0,-35.0,-1,1.0,0.5202009999998154
646,1,0.8,1.0,-35.0,-1,1.0,0.360100999999986
647,1,0.8,0.0625,-35.0,-1,1.0,0.5368009999999686
648,1,0.8,0.25,35.0,1,1.0,0.3835009999997965
649,1,0.8,0.125,-35.0,-1,1.0,0.2637009999998554
650,1,0.8,0.125,-35.0,-1,1.0,4.327000999999882
651,1,0.8,0.125,-35.0,-1,1.0,0.40380099999993035
652,1,0.8,0.0625,-35.0,-1,1.0,0.7505009999999857
653,1,0.8,0.25,-35.0,-1,1.0,0.6073010000000068
654,1,0.8,0.25,35.0,1,1.0,0.4340009999996255
655,1,0.8,0.25,-35.0,1,0.0,4.137400999999954
656,1,0.8,0.0625,-35.0,-1,1.0,0.3042009999999209
657,1,0.8,0.0625,35.0,-1,0.0,0.7610010000003058
658,1,0.8,0.25,-35.0,1,0.0,4.457801000000018
659,1,0.8,0.25,-35.0,-1,1.0,0.404500999999982
660,1,0.8,0.0,-35.0,-1,1.0,5.004500999999436
661,1,0.8,0.25,-35.0,-1,1.0,0.4314009999998234
662,1,0.8,0.25,-35.0,-1,1.0,0.7514009999999871
663,1,0.8,0.25,-35.0,-1,1.0,0.2682009999998627
664,1,0.8,0.0,-35.0,-1,1.0,5.368300999999974
665,1,0.8,0.25,35.0,-1,0.0,3.6286010000003444
666,1,0.8,0.25,-35.0,-1,1.0,4.072001
667,1,0.8,0.25,35.0,-1,0.0,3.9721009999998387
668,1,0.8,0.25,-35.0,-1,1.0,0.37220099999967715
669,1,0.8,0.125,-35.0,-1,1.0,0.43900099999973463
670,1,0.8,0.125,-35.0,-1,1.0,7.7924010000001545
671,1,0.8,0.0625,-35.0,-1,1.0,0.44260099999974045
672,1,0.8,0.25,-35.0,-1,1.0,0.379301000000396
673,1,0.8,0.125,35.0,1,1.0,0.3794009999996888
674,1,0.8,0.0625,-35.0,-1,1.0,0.5094009999997979
675,1,0.8,1.0,35.0,1,1.0,1.2662010000003647
676,1,0.8,0.25,-35.0,-1,1.0,3.7729009999998198
677,1,0.8,0.25,-35.0,-1,1.0,0.3596010000001115
678,1,0.8,0.0625,-35.0,-1,1.0,7.453101000000061
679,1,0.8,0.25,-35.0,-1,1.0,0.40000099999997474
680,1,0.8,0.0,-35.0,-1,1.0,13.846800999999687
681,1,0.8,0.125,-35.0,-1,1.0,0.8438009999999849
682,1,0.8,0.0625,-35.0,-1,1.0,5.68400100000008
683,1,0.8,0.25,-35.0,-1,1.0,0.3707009999998263
684,1,0.8,0.125,-35.0,-1,1.0,0.5074009999998452
685,1,0.8,1.0,-35.0,-1,1.0,0.6341010000001006
686,1,0.8,1.0,35.0,1,1.0,10.647600999999668
687,1,0.8,0.0625,-35.0,1,0.0,5.741201000000274
688,1,0.8,0.0,35.0,-1,0.0,2.2614009999997506
689,1,0.8,1.0,35.0,-1,0.0,14.2582010000001
690,1,0.8,1.0,-35.0,-1,1.0,0.35530100000005405
691,1,0.8,0.0625,-35.0,-1,1.0,4.295300999999654
692,1,0.8,1.0,-35.0,-1,1.0,0.41370099999994636
693,1,0.8,0.0,-35.0,1,0.0,2.54220099999975
694,1,0.8,1.0,-35.0,-1,1.0,0.24230099999977028
695,1,0.8,0.125,-35.0,1,0.0,32.86580099999992
696,1,0.8,0.25,-35.0,-1,1.0,6.373200999999881
697,1,0.8,0.0625,35.0,1,1.0,2.7401010000003225
1,2,0.8,0.0625,35.0,-1,0.0,0.2892999999999998
2,2,0.8,1.0,-35.0,-1,1.0,0.2674999999999996
3,2,0.8,0.0625,-35.0,-1,1.0,0.18880000000000052
4,2,0.8,0.25,-35.0,-1,1.0,0.4612999999999996
5,2,0.8,0.25,-35.0,-1,1.0,0.23100000000000165
6,2,0.8,0.0625,35.0,-1,0.0,0.21869999999999834
7,2,0.8,0.0625,-35.0,-1,1.0,0.16050000000000253
8,2,0.8,0.25,-35.0,-1,1.0,0.26940000000000097
9,2,0.8,1.0,-35.0,-1,1.0,0.3534999999999968
10,2,0.8,0.0625,-35.0,-1,1.0,0.1752000000000038
11,2,0.8,0.0625,-35.0,-1,1.0,0.3142999999999958
12,2,0.8,0.125,-35.0,-1,1.0,0.2726000000000042
13,2,0.8,0.25,-35.0,-1,1.0,0.2598000000000056
14,2,0.8,0.0625,-35.0,-1,1.0,0.23289999999999367
15,2,0.8,0.25,-35.0,-1,1.0,0.4096000000000046
16,2,0.8,0.0625,-35.0,-1,1.0,0.2378
17,2,0.8,0.25,-35.0,-1,1.0,0.23140000000000072
18,2,0.8,0.25,-35.0,-1,1.0,0.28179999999999694
19,2,0.8,0.25,35.0,1,1.0,0.3592000000000084
20,2,0.8,0.125,-35.0,-1,1.0,0.1460000000000008
21,2,0.8,1.0,-35.0,-1,1.0,0.23159999999998604
22,2,0.8,1.0,35.0,1,1.0,0.3048000000000002
23,2,0.8,0.125,-35.0,-1,1.0,0.2295999999999907
24,2,0.8,1.0,-35.0,-1,1.0,0.22279999999997813
25,2,0.8,1.0,-35.0,-1,1.0,0.40269999999999584
26,2,0.8,0.0,-35.0,1,0.0,0.27309999999999945
27,2,0.8,0.0625,-35.0,-1,1.0,0.2179999999999893
28,2,0.8,0.0625,-35.0,-1,1.0,0.21459999999999013
29,2,0.8,0.0625,-35.0,-1,1.0,1.8599000000000103
30,2,0.8,1.0,-35.0,-1,1.0,0.24209999999999354
31,2,0.8,0.0625,-35.0,-1,1.0,0.4017999999999944
32,2,0.8,0.0625,-35.0,-1,1.0,0.1985999999999848
33,2,0.8,0.25,-35.0,-1,1.0,0.31219999999999004
34,2,0.8,0.0625,-35.0,-1,1.0,0.22709999999999297
35,2,0.2,0.25,35.0,-1,0.0,0.2583999999999804
36,2,0.2,0.25,35.0,1,1.0,0.5599999999999881
37,2,0.2,0.0,35.0,-1,0.0,1.9738000000000113
38,2,0.2,0.125,-35.0,-1,1.0,0.6450999999999851
39,2,0.2,0.25,35.0,-1,0.0,0.21229999999999905
40,2,0.2,0.0,35.0,-1,0.0,0.18939999999999202
41,2,0.2,1.0,-35.0,-1,1.0,2.381299999999996
42,2,0.2,0.125,35.0,1,1.0,2.4307999999999907
43,2,0.2,0.25,35.0,1,1.0,0.4324999999999761
44,2,0.2,0.125,-35.0,-1,1.0,0.4375
45,2,0.2,0.25,35.0,1,1.0,0.26839999999998554
46,2,0.2,0.25,-35.0,-1,1.0,0.4790999999999883
47,2,0.2,0.25,35.0,1,1.0,0.25329999999999586
48,2,0.2,0.0,-35.0,1,0.0,3.8330999999999733
49,2,0.2,0.125,-35.0,-1,1.0,0.6000999999999976
50,2,0.2,0.0,35.0,-1,0.0,0.3667999999999836
51,2,0.2,1.0,-35.0,-1,1.0,0.25569999999999027
52,2,0.2,0.25,35.0,-1,0.0,0.4198999999999842
53,2,0.2,0.125,35.0,-1,0.0,0.5371999999999844
54,2,0.2,0.0625,35.0,-1,0.0,0.2504000000000133
55,2,0.2,1.0,35.0,1,1.0,0.5836999999999932
56,2,0.2,0.0625,-35.0,1,0.0,1.1482000000000028
57,2,0.2,0.0625,35.0,1,1.0,0.39289999999999736
58,2,0.2,0.25,35.0,1,1.0,0.21119999999999095
59,2,0.2,0.125,-35.0,-1,1.0,0.4644000000000119
60,2,0.2,0.25,-35.0,-1,1.0,0.5082999999999913
61,2,0.2,1.0,35.0,1,1.0,0.24529999999998608
62,2,0.2,0.125,35.0,1,1.0,0.5515000000000043
63,2,0.2,0.125,35.0,1,1.0,0.18479999999999563
64,2,0.2,1.0,35.0,1,1.0,0.02939999999998122
65,2,0.2,0.0,35.0,-1,0.0,0.33549999999999613
66,2,0.2,0.0,35.0,1,1.0,0.2191999999999723
67,2,0.2,0.25,35.0,1,1.0,0.22270000000000323
68,2,0.2,0.0625,35.0,1,1.0,0.2307999999999879
69,2,0.2,0.25,-35.0,-1,1.0,0.8206999999999596
70,2,0.2,0.0625,35.0,1,1.0,0.23779999999996448
71,2,0.8,0.125,35.0,1,1.0,0.22730000000001382
72,2,0.8,0.125,-35.0,-1,1.0,0.6863999999999635
73,2,0.8,1.0,-35.0,-1,1.0,0.30819999999999936
74,2,0.8,0.125,-35.0,-1,1.0,0.6177999999999884
75,2,0.8,1.0,-35.0,-1,1.0,0.47690000000000055
76,2,0.8,0.0625,-35.0,1,0.0,0.4341000000000008
77,2,0.8,0.25,-35.0,1,0.0,0.33250000000001023
78,2,0.8,0.25,-35.0,-1,1.0,0.2300999999999931
79,2,0.8,0.25,-35.0,-1,1.0,2.3578999999999724
80,2,0.8,0.25,-35.0,-1,1.0,0.20309999999997785
81,2,0.8,0.125,-35.0,-1,1.0,0.2615000000000123
82,2,0.8,0.25,-35.0,-1,1.0,0.3400999999999783
83,2,0.8,0.0625,-35.0,-1,1.0,0.2967999999999904
84,2,0.8,0.0625,-35.0,-1,1.0,0.747099999999989
85,2,0.8,0.25,35.0,1,1.0,0.28299999999998704
86,2,0.8,0.25,-35.0,-1,1.0,0.29990000000000805
87,2,0.8,0.125,-35.0,-1,1.0,0.4194999999999993
88,2,0.8,0.0625,-35.0,1,0.0,0.4923999999999751
89,2,0.8,0.25,-35.0,-1,1.0,0.21510000000000673
90,2,0.8,0.25,-35.0,-1,1.0,0.23910000000006448
91,2,0.8,0.0625,-35.0,-1,1.0,0.3578000000000543
92,2,0.8,1.0,35.0,1,1.0,0.25380000000001246
93,2,0.8,0.25,-35.0,-1,1.0,0.30970000000002074
94,2,0.8,0.0625,-35.0,-1,1.0,0.17390000000000327
95,2,0.2,0.0625,35.0,1,1.0,0.4739000000000715
96,2,0.2,1.0,35.0,-1,0.0,1.0670000000000073
97,2,0.2,0.25,35.0,-1,0.0,0.4077000000000339
98,2,0.2,0.0,35.0,1,1.0,0.2270000000000323
99,2,0.2,0.125,35.0,1,1.0,0.48260000000004766
100,2,0.2,0.0,35.0,-1,0.0,0.3761000000000081
101,2,0.2,0.125,35.0,1,1.0,0.30309999999997217
102,2,0.2,1.0,-35.0,-1,1.0,0.2898000000000138
103,2,0.2,0.125,-35.0,-1,1.0,0.6236000000000104
104,2,0.2,0.25,35.0,1,1.0,0.7737000000000194
105,2,0.2,0.25,35.0,1,1.0,0.5918000000000916
106,2,0.2,0.25,35.0,1,1.0,0.44460000000003674
107,2,0.2,0.0,35.0,-1,0.0,0.6796000000000504
108,2,0.2,0.25,35.0,1,1.0,0.22230000000001837
109,2,0.2,0.0625,35.0,1,1.0,1.0797000000000594
110,2,0.2,0.25,35.0,1,1.0,0.3595000000000823
111,2,0.2,0.0625,35.0,1,1.0,0.4591000000000349
112,2,0.2,0.125,35.0,1,1.0,0.2754000000000474
113,2,0.2,1.0,35.0,1,1.0,0.2026000000000181
114,2,0.2,0.25,35.0,1,1.0,0.08520000000009986
115,2,0.2,0.0625,35.0,1,1.0,0.26830000000001064
116,2,0.2,0.25,35.0,1,1.0,0.35090000000008104
117,2,0.2,0.125,35.0,1,1.0,0.3996000000000208
118,2,0.2,0.0625,35.0,1,1.0,0.47870000000000346
119,2,0.2,1.0,35.0,1,1.0,0.20289999999999964
120,2,0.2,0.0,35.0,1,1.0,0.446200000000033
121,2,0.2,0.0625,35.0,1,1.0,0.31239999999996826
122,2,0.2,0.125,35.0,-1,0.0,0.19139999999998736
123,2,0.2,0.25,-35.0,-1,1.0,0.24380000000002156
124,2,0.2,0.25,-35.0,-1,1.0,0.6239000000000487
125,2,0.2,0.0625,35.0,1,1.0,0.5603000000000407
126,2,0.2,0.125,35.0,1,1.0,0.17380000000002838
127,2,0.2,0.0625,35.0,1,1.0,0.4812000000000012
128,2,0.2,0.0625,35.0,1,1.0,0.542699999999968
129,2,0.2,0.0,35.0,-1,0.0,5.116600000000005
130,2,0.2,0.125,35.0,1,1.0,0.2599999999999909
131,2,0.2,0.0,35.0,1,1.0,0.26180000000005066
132,2,0.2,0.125,-35.0,1,0.0,0.2643000000000484
133,2,0.2,0.125,35.0,1,1.0,0.3725000000000023
134,2,0.2,1.0,35.0,1,1.0,0.31070000000005393
135,2,0.2,0.0625,35.0,1,1.0,0.4848999999999819
136,2,0.2,1.0,35.0,1,1.0,0.16480000000001382
137,2,0.2,0.125,35.0,1,1.0,0.2037000000000262
138,2,0.2,0.125,35.0,1,1.0,0.22970000000003665
139,2,0.2,0.0625,-35.0,1,0.0,0.3926999999999907
140,2,0.2,0.25,35.0,1,1.0,0.5319000000000642
141,2,0.2,0.0625,35.0,1,1.0,0.3501000000000545
142,2,0.2,0.0625,35.0,1,1.0,0.3653000000000475
143,2,0.2,0.125,35.0,1,1.0,0.22230000000001837
144,2,0.2,0.125,-35.0,-1,1.0,0.3025000000000091
145,2,0.2,0.125,35.0,1,1.0,0.15940000000006194
146,2,0.2,1.0,35.0,1,1.0,0.841700000000003
147,2,0.2,0.0625,35.0,1,1.0,0.40090000000003556
148,2,0.2,0.25,35.0,1,1.0,0.15250000000003183
149,2,0.2,0.0625,35.0,-1,0.0,0.3342000000000098
150,2,0.2,0.125,35.0,1,1.0,0.35060000000004266
151,2,0.2,1.0,35.0,1,1.0,0.25600000000002865
152,2,0.2,0.25,35.0,1,1.0,0.2868000000000279
153,2,0.2,1.0,35.0,1,1.0,0.20220000000006166
154,2,0.2,1.0,-35.0,-1,1.0,0.262299999999982
155,2,0.2,0.0625,35.0,1,1.0,0.5704000000000065
156,2,0.2,1.0,35.0,1,1.0,0.2166000000000281
157,2,0.2,0.25,35.0,1,1.0,0.21280000000001564
158,2,0.2,0.0625,-35.0,-1,1.0,0.45100000000002183
159,2,0.2,0.0625,35.0,1,1.0,0.23799999999999955
160,2,0.2,0.25,35.0,1,1.0,0.2033999999999878
161,2,0.2,0.25,35.0,1,1.0,0.11290000000002465
162,2,0.2,0.25,35.0,1,1.0,0.2429000000000201
163,2,0.2,0.125,35.0,1,1.0,0.23610000000002174
164,2,0.2,0.125,35.0,1,1.0,0.2154000000000451
165,2,0.2,1.0,-35.0,-1,1.0,0.28300000000001546
166,2,0.2,0.125,-35.0,-1,1.0,0.38939999999996644
167,2,0.2,1.0,-35.0,-1,1.0,0.06380000000001473
168,2,0.2,0.0625,-35.0,-1,1.0,0.26120000000003074
169,2,0.2,0.125,35.0,1,1.0,0.245900000000006
170,2,0.2,1.0,-35.0,-1,1.0,0.35460000000006175
171,2,0.2,1.0,35.0,1,1.0,0.17880000000002383
172,2,0.2,1.0,35.0,1,1.0,0.20199999999999818
173,2,0.2,0.125,35.0,1,1.0,0.08260000000001355
174,2,0.2,1.0,35.0,1,1.0,0.2845999999999549
175,2,0.2,1.0,35.0,1,1.0,0.2574000000000183
176,2,0.2,0.25,35.0,1,1.0,0.1704000000000292
177,2,0.2,1.0,35.0,1,1.0,0.3251000000000204
178,2,0.2,0.0,35.0,-1,0.0,0.24649999999996908
179,2,0.2,0.125,35.0,1,1.0,0.18830000000002656
180,2,0.8,1.0,35.0,1,1.0,0.1938000000000102
181,2,0.8,0.0625,-35.0,-1,1.0,0.6730000000001155
182,2,0.8,0.125,-35.0,-1,1.0,0.44899999999995543
183,2,0.8,1.0,-35.0,-1,1.0,0.3465999999999667
184,2,0.8,0.0,35.0,-1,0.0,0.8061999999999898
185,2,0.8,0.25,-35.0,-1,1.0,0.3823000000001002
186,2,0.8,0.0625,-35.0,1,0.0,0.16009999999994307
187,2,0.8,1.0,-35.0,-1,1.0,0.328200000000038
188,2,0.8,0.25,-35.0,-1,1.0,0.07770000000004984
189,2,0.8,0.0625,35.0,1,1.0,0.22890000000006694
190,2,0.8,0.0625,-35.0,-1,1.0,0.3926000000000158
191,2,0.8,0.0,-35.0,1,0.0,0.2341000000000122
192,2,0.8,0.125,-35.0,1,0.0,0.22280000000000655
193,2,0.8,1.0,-35.0,-1,1.0,0.4148000000000138
194,2,0.8,0.125,-35.0,-1,1.0,0.48440000000005057
195,2,0.8,1.0,-35.0,-1,1.0,0.39049999999997453
196,2,0.8,0.0625,35.0,1,1.0,0.34580000000005384
197,2,0.8,0.25,-35.0,-1,1.0,1.2653999999999996
198,2,0.8,0.125,-35.0,-1,1.0,0.24469999999996617
199,2,0.8,0.125,-35.0,-1,1.0,0.3572000000000344
200,2,0.8,0.0625,-35.0,1,0.0,0.279700000000048
201,2,0.8,0.0625,-35.0,-1,1.0,0.45440000000007785
202,2,0.8,0.0625,-35.0,-1,1.0,0.320699999999988
203,2,0.8,0.25,-35.0,-1,1.0,0.4378000000000384
204,2,0.8,0.0625,-35.0,1,0.0,0.1550999999999476
205,2,0.8,0.0,-35.0,-1,1.0,0.5307999999999993
206,2,0.8,0.0625,35.0,-1,0.0,0.22919999999999163
207,2,0.8,0.0625,35.0,-1,0.0,0.15870000000006712
208,2,0.8,0.25,-35.0,-1,1.0,0.2113000000000511
209,2,0.8,1.0,-35.0,-1,1.0,0.3527000000001408
210,2,0.8,0.0625,-35.0,-1,1.0,2.7257000000000744
211,2,0.8,0.125,35.0,1,1.0,0.2765000000000555
212,2,0.8,1.0,35.0,1,1.0,0.4107999999999947
213,2,0.8,0.0,-35.0,-1,1.0,2.1784000000000106
214,2,0.8,1.0,35.0,1,1.0,0.21829999999999927
215,2,0.2,1.0,-35.0,-1,1.0,0.27930000000014843
216,2,0.2,0.0625,-35.0,1,0.0,0.1874000000000251
217,2,0.2,0.25,35.0,1,1.0,0.5507999999999811
218,2,0.2,0.25,35.0,1,1.0,0.21109999999998763
219,2,0.2,0.25,35.0,1,1.0,0.29189999999994143
220,2,0.2,1.0,35.0,1,1.0,0.24240000000008877
221,2,0.2,0.25,35.0,1,1.0,0.24749999999994543
222,2,0.2,0.125,35.0,1,1.0,0.20440000000007785
223,2,0.2,0.0625,35.0,1,1.0,0.3069000000000415
224,2,0.2,1.0,35.0,1,1.0,0.1999999999999318
225,2,0.2,0.0,35.0,-1,0.0,0.3158000000000811
226,2,0.2,0.0625,35.0,-1,0.0,0.1574000000000524
227,2,0.2,1.0,35.0,1,1.0,0.36610000000007403
228,2,0.2,1.0,35.0,1,1.0,0.21510000000012042
229,2,0.2,0.0,35.0,1,1.0,2.931699999999978
230,2,0.2,0.0625,-35.0,1,0.0,0.15610000000003765
231,2,0.2,0.125,35.0,1,1.0,2.4623000000000275
232,2,0.2,1.0,35.0,1,1.0,0.2419000000001006
233,2,0.2,0.25,35.0,-1,0.0,0.41809999999998126
234,2,0.2,0.125,35.0,1,1.0,0.4759999999999991
235,2,0.2,0.125,35.0,1,1.0,0.3607000000000653
236,2,0.2,0.25,35.0,1,1.0,0.1951000000001386
237,2,0.2,0.25,35.0,1,1.0,0.04809999999997672
238,2,0.2,0.0625,35.0,1,1.0,0.5130999999998949
239,2,0.2,1.0,35.0,1,1.0,0.23550000000000182
240,2,0.2,0.0625,-35.0,-1,1.0,0.31549999999992906
241,2,0.2,0.125,35.0,1,1.0,0.2817000000000007
242,2,0.2,1.0,-35.0,-1,1.0,0.26340000000004693
243,2,0.2,0.125,35.0,1,1.0,0.5490999999999531
244,2,0.2,0.125,35.0,1,1.0,0.22310000000015862
245,2,0.2,0.125,35.0,1,1.0,0.23900000000003274
246,2,0.2,0.0625,35.0,-1,0.0,0.46699999999998454
247,2,0.2,0.0625,-35.0,-1,1.0,0.29129999999997835
248,2,0.2,0.0625,35.0,-1,0.0,0.3140000000000782
249,2,0.2,0.0,35.0,1,1.0,0.19119999999998072
250,2,0.2,0.125,-35.0,1,0.0,0.24649999999996908
251,2,0.2,0.0,35.0,1,1.0,0.3565999999999576
252,2,0.2,0.125,35.0,1,1.0,0.23039999999991778
253,2,0.2,0.25,35.0,1,1.0,0.4841999999999871
254,2,0.2,0.0,35.0,1,1.0,3.875500000000102
255,2,0.2,1.0,35.0,1,1.0,0.23890000000005784
256,2,0.2,0.0625,35.0,1,1.0,1.2888000000000375
257,2,0.2,1.0,-35.0,-1,1.0,0.26710000000014134
258,2,0.2,0.0625,35.0,1,1.0,0.20150000000001
259,2,0.2,0.25,35.0,1,1.0,0.22460000000012315
260,2,0.2,0.25,-35.0,-1,1.0,0.25749999999993634
261,2,0.2,0.125,-35.0,-1,1.0,0.4028999999999314
262,2,0.2,1.0,-35.0,-1,1.0,0.2415000000000873
263,2,0.2,0.25,-35.0,-1,1.0,0.268799999999942
264,2,0.2,0.125,-35.0,-1,1.0,0.32779999999991105
265,2,0.2,0.125,-35.0,-1,1.0,0.2966000000000122
266,2,0.2,1.0,35.0,1,1.0,0.2706999999999198
267,2,0.8,0.125,-35.0,-1,1.0,0.3488999999999578
268,2,0.8,0.125,35.0,-1,0.0,0.3990000000000009
269,2,0.8,0.25,-35.0,1,0.0,0.16300000000001091
270,2,0.8,0.0625,-35.0,1,0.0,0.18510000000003402
271,2,0.8,0.25,35.0,1,1.0,0.3894999999999982
272,2,0.8,0.25,-35.0,-1,1.0,0.3325000000000955
273,2,0.8,0.0,-35.0,1,0.0,0.3342000000000098
274,2,0.8,0.25,-35.0,-1,1.0,0.18220000000007985
275,2,0.8,0.0,-35.0,-1,1.0,0.28290000000004056
276,2,0.8,1.0,-35.0,-1,1.0,0.26320000000009713
277,2,0.8,0.0625,-35.0,-1,1.0,0.3549000000000433
278,2,0.8,1.0,-35.0,-1,1.0,0.324100000000044
279,2,0.8,1.0,-35.0,-1,1.0,0.2134000000000924
280,2,0.8,0.25,-35.0,-1,1.0,0.2981999999999516
281,2,0.8,0.125,35.0,1,1.0,0.2561000000000604
282,2,0.8,0.0625,-35.0,-1,1.0,0.24650000000008276
283,2,0.8,1.0,-35.0,-1,1.0,0.2539000000000442
284,2,0.8,1.0,-35.0,-1,1.0,0.26500000000010004
285,2,0.8,0.0,-35.0,-1,1.0,0.26269999999999527
286,2,0.8,0.0,-35.0,1,0.0,0.35950000000002547
287,2,0.8,0.125,-35.0,-1,1.0,0.29560000000003583
288,2,0.8,0.25,-35.0,-1,1.0,0.023000000000024556
289,2,0.8,0.0625,-35.0,-1,1.0,0.30090000000006967
290,2,0.8,1.0,-35.0,-1,1.0,0.24099999999998545
291,2,0.8,1.0,-35.0,-1,1.0,0.39030000000002474
292,2,0.8,1.0,-35.0,-1,1.0,0.304300000000012
293,2,0.8,0.125,-35.0,-1,1.0,0.2825000000000273
294,2,0.8,1.0,-35.0,-1,1.0,0.18890000000010332
295,2,0.8,0.0,35.0,-1,0.0,0.35770000000002256
296,2,0.8,0.125,-35.0,-1,1.0,0.33569999999997435
297,2,0.8,0.125,-35.0,-1,1.0,0.6199000000000296
298,2,0.8,0.0625,35.0,-1,0.0,0.3023000000000593
299,2,0.8,0.0625,-35.0,-1,1.0,0.314899999999966
300,2,0.8,0.125,-35.0,-1,1.0,0.1973000000000411
301,2,0.8,0.0625,-35.0,-1,1.0,0.10509999999999309
302,2,0.8,0.25,-35.0,-1,1.0,0.37019999999995434
303,2,0.8,1.0,-35.0,-1,1.0,0.43650000000013733
304,2,0.8,1.0,-35.0,-1,1.0,0.24739999999997053
305,2,0.8,0.0,35.0,-1,0.0,0.29959999999994125
306,2,0.8,0.0625,-35.0,-1,1.0,0.3809999999999718
307,2,0.8,0.25,-35.0,-1,1.0,0.07700000000011187
308,2,0.8,0.0625,-35.0,-1,1.0,0.46119999999996253
309,2,0.8,1.0,-35.0,-1,1.0,0.19839999999999236
310,2,0.8,1.0,-35.0,-1,1.0,0.3509000000001379
311,2,0.8,1.0,-35.0,-1,1.0,0.2498000000000502
312,2,0.8,0.0,-35.0,-1,1.0,0.33199999999999363
313,2,0.8,0.0625,-35.0,-1,1.0,0.44810000000006767
314,2,0.8,1.0,-35.0,-1,1.0,0.3081000000000813
315,2,0.8,1.0,35.0,1,1.0,0.3264000000000351
316,2,0.8,0.125,-35.0,-1,1.0,0.32150000000012824
317,2,0.8,0.25,-35.0,-1,1.0,0.15479999999990923
318,2,0.8,0.0625,-35.0,-1,1.0,0.4089000000000169
319,2,0.8,1.0,-35.0,-1,1.0,0.2761000000000422
320,2,0.8,0.25,35.0,1,1.0,0.19119999999998072
321,2,0.8,1.0,-35.0,-1,1.0,0.07920000000001437
322,2,0.8,0.0,-35.0,-1,1.0,0.3914000000000897
323,2,0.8,0.0,-35.0,-1,1.0,0.35180000000002565
324,2,0.8,0.25,-35.0,-1,1.0,0.30349999999998545
325,2,0.8,0.0625,-35.0,-1,1.0,0.3066000000000031
326,2,0.8,0.0625,-35.0,1,0.0,0.2775000000001455
327,2,0.8,0.125,-35.0,-1,1.0,0.27549999999996544
328,2,0.8,1.0,-35.0,-1,1.0,0.19900000000006912
329,2,0.8,0.25,-35.0,-1,1.0,0.21429999999998017
330,2,0.8,1.0,-35.0,-1,1.0,0.18729999999993652
331,2,0.8,0.0,-35.0,-1,1.0,0.5062999999998965
332,2,0.8,1.0,-35.0,-1,1.0,0.3181000000000722
333,2,0.8,0.25,-35.0,-1,1.0,0.2545999999999822
334,2,0.8,0.125,-35.0,-1,1.0,0.36770000000001346
335,2,0.8,1.0,-35.0,-1,1.0,0.2766000000000304
336,2,0.8,0.0625,-35.0,-1,1.0,0.2722999999999729
337,2,0.8,1.0,-35.0,-1,1.0,0.29179999999996653
338,2,0.8,0.0625,-35.0,-1,1.0,0.24450000000001637
339,2,0.8,0.0625,-35.0,-1,1.0,2.8360000000000127
340,2,0.8,0.0625,35.0,-1,0.0,0.25499999999999545
341,2,0.8,1.0,-35.0,-1,1.0,0.22919999999999163
342,2,0.8,0.0625,-35.0,-1,1.0,0.25250000000005457
343,2,0.8,0.25,-35.0,-1,1.0,0.29510000000004766
344,2,0.8,0.0625,-35.0,-1,1.0,0.4782000000000153
345,2,0.8,0.25,-35.0,-1,1.0,0.35400000000004184
346,2,0.8,0.25,-35.0,-1,1.0,0.4700000000000273
347,2,0.8,0.0625,35.0,-1,0.0,0.39830000000006294
348,2,0.8,0.0,35.0,1,1.0,0.34570000000007894
349,2,0.8,0.0625,35.0,1,1.0,0.5274000000000569
350,2,0.8,0.125,-35.0,-1,1.0,0.2681999999999789
351,2,0.8,1.0,-35.0,-1,1.0,0.24540000000001783
352,2,0.8,0.125,35.0,1,1.0,0.24119999999993524
353,2,0.8,0.0,-35.0,1,0.0,0.3509999999999991
354,2,0.8,0.0625,-35.0,1,0.0,0.23440000000005057
355,2,0.2,0.125,35.0,1,1.0,0.34810000000004493
356,2,0.2,0.0,35.0,1,1.0,0.21450000000004366
357,2,0.2,1.0,35.0,1,1.0,0.17820000000006075
358,2,0.2,0.0625,35.0,-1,0.0,0.26490000000001146
359,2,0.2,1.0,35.0,1,1.0,0.22800000000006548
360,2,0.2,0.0625,-35.0,1,0.0,0.4516999999998461
361,2,0.2,1.0,-35.0,-1,1.0,0.24809999999979482
362,2,0.2,0.0625,35.0,1,1.0,0.23829999999998108
363,2,0.2,1.0,35.0,1,1.0,0.21839999999997417
364,2,0.2,0.25,35.0,1,1.0,0.23569999999995161
365,2,0.2,0.0625,35.0,-1,0.0,0.19559999999978572
366,2,0.2,0.125,35.0,1,1.0,0.1718999999998232
367,2,0.2,0.125,35.0,1,1.0,0.23889999999983047
368,2,0.2,0.0,35.0,1,1.0,0.3851999999999407
369,2,0.2,0.0625,35.0,1,1.0,0.3888999999999214
370,2,0.2,1.0,35.0,1,1.0,0.25549999999998363
371,2,0.2,0.0625,35.0,-1,0.0,0.19209999999998217
372,2,0.2,0.0625,35.0,1,1.0,0.27289999999993597
373,2,0.2,0.125,35.0,1,1.0,0.20900000000006003
374,2,0.2,0.0625,35.0,1,1.0,0.3692000000000917
375,2,0.2,1.0,35.0,1,1.0,0.129399999999805
376,2,0.2,0.25,35.0,1,1.0,0.5156999999999243
377,2,0.2,0.0625,35.0,1,1.0,0.22299999999995634
378,2,0.2,0.25,35.0,1,1.0,0.22939999999994143
379,2,0.2,0.0625,-35.0,-1,1.0,0.4394999999999527
380,2,0.2,0.125,-35.0,1,0.0,0.11329999999998108
381,2,0.2,0.125,35.0,1,1.0,0.37969999999995707
382,2,0.2,0.25,35.0,1,1.0,0.2765999999999167
383,2,0.2,1.0,35.0,1,1.0,0.21699999999987085
384,2,0.2,1.0,35.0,1,1.0,0.2763999999999669
385,2,0.2,1.0,-35.0,-1,1.0,0.29029999999966094
386,2,0.2,0.0625,35.0,1,1.0,0.19990000000007058
387,2,0.2,0.0625,-35.0,1,0.0,0.43659999999999854
388,2,0.2,0.0625,35.0,-1,0.0,2.703699999999799
389,2,0.2,0.25,-35.0,-1,1.0,0.2601999999999407
390,2,0.2,1.0,-35.0,-1,1.0,0.300499999999829
391,2,0.2,0.0625,35.0,1,1.0,0.3206999999997606
392,2,0.2,0.0625,35.0,1,1.0,0.606899999999996
393,2,0.2,1.0,35.0,1,1.0,0.20389999999974862
394,2,0.2,0.0625,35.0,-1,0.0,0.3570999999999458
395,2,0.2,0.0,35.0,1,1.0,0.45059999999989486
396,2,0.2,0.0625,-35.0,1,0.0,0.5044000000000324
397,2,0.2,0.0,35.0,1,1.0,0.3840999999997621
398,2,0.2,0.25,-35.0,1,0.0,0.3406999999999698
399,2,0.2,0.0625,35.0,1,1.0,0.510899999999765
400,2,0.2,1.0,35.0,1,1.0,0.21109999999998763
401,2,0.2,0.25,35.0,1,1.0,0.29759999999987485
402,2,0.2,0.125,35.0,1,1.0,0.4175999999999931
403,2,0.2,0.125,35.0,1,1.0,0.2746999999997115
404,2,0.2,1.0,35.0,1,1.0,0.18460000000004584
405,2,0.2,0.0,-35.0,1,0.0,0.42099999999982174
406,2,0.2,0.25,35.0,1,1.0,0.3911000000000513
407,2,0.2,0.25,35.0,1,1.0,0.23839999999995598
408,2,0.2,0.0625,35.0,1,1.0,0.18509999999992033
409,2,0.2,0.25,35.0,1,1.0,0.21459999999979118
410,2,0.2,0.25,-35.0,-1,1.0,0.5050999999998567
411,2,0.2,0.25,35.0,1,1.0,0.39869999999996253
412,2,0.2,0.25,35.0,1,1.0,0.24489999999991596
413,2,0.2,0.125,35.0,1,1.0,0.3084999999998672
414,2,0.2,0.0625,35.0,1,1.0,0.4251000000001568
415,2,0.2,0.125,35.0,1,1.0,0.37829999999985375
416,2,0.2,1.0,35.0,1,1.0,0.22169999999960055
417,2,0.8,0.125,35.0,1,1.0,0.36550000000011096
418,2,0.8,0.125,-35.0,1,0.0,0.25189999999975043
419,2,0.8,0.25,-35.0,1,0.0,0.35859999999979664
420,2,0.8,0.125,-35.0,-1,1.0,0.30529999999998836
421,2,0.8,1.0,35.0,1,1.0,0.19569999999976062
422,2,0.8,0.125,-35.0,-1,1.0,0.40229999999996835
423,2,0.8,0.125,-35.0,1,0.0,0.2727999999999611
424,2,0.8,0.125,-35.0,-1,1.0,0.695699999999988
425,2,0.8,0.25,-35.0,-1,1.0,0.27929999999992106
426,2,0.8,0.0625,-35.0,-1,1.0,0.4057999999997719
427,2,0.8,0.0625,-35.0,1,0.0,0.33920000000011896
428,2,0.8,0.0,-35.0,-1,1.0,0.26919999999995525
429,2,0.8,0.25,-35.0,-1,1.0,0.43949999999972533
430,2,0.8,0.0625,-35.0,-1,1.0,0.315900000000056
431,2,0.8,0.0625,-35.0,1,0.0,19.70589999999993
432,2,0.8,1.0,-35.0,-1,1.0,0.336699999999837
433,2,0.8,0.0,-35.0,-1,1.0,1.1266999999998006
434,2,0.8,0.125,35.0,1,1.0,0.726799999999912
435,2,0.8,0.125,-35.0,-1,1.0,0.2504999999998745
436,2,0.8,0.0625,-35.0,-1,1.0,2.9771999999998116
437,2,0.8,1.0,35.0,1,1.0,0.2704999999998563
438,2,0.8,0.25,-35.0,-1,1.0,2.070600000000013
439,2,0.8,0.25,-35.0,-1,1.0,4.583799999999883
440,2,0.8,0.125,-35.0,-1,1.0,0.41390000000001237
441,2,0.8,0.0,-35.0,-1,1.0,3.290899999999965
442,2,0.8,0.125,35.0,1,1.0,0.45090000000004693
443,2,0.8,0.0625,35.0,-1,0.0,3.111199999999826
444,2,0.8,0.0,-35.0,1,0.0,0.5177999999996246
445,2,0.8,0.0625,-35.0,-1,1.0,0.3415999999997439
446,2,0.8,0.125,-35.0,-1,1.0,0.6549999999997453
447,2,0.8,0.25,-35.0,-1,1.0,0.3919999999998254
448,2,0.8,1.0,-35.0,-1,1.0,0.4381999999998243
449,2,0.8,0.25,-35.0,-1,1.0,0.5747999999998683
450,2,0.8,1.0,-35.0,-1,1.0,0.33150000000000546
451,2,0.8,0.125,35.0,-1,0.0,3.228800000000092
452,2,0.8,0.25,-35.0,-1,1.0,0.5215999999998076
453,2,0.8,0.125,-35.0,-1,1.0,2.4983999999997195
454,2,0.8,0.0,35.0,1,1.0,0.46850000000017644
455,2,0.8,1.0,-35.0,-1,1.0,0.44239999999990687
456,2,0.8,0.0625,-35.0,-1,1.0,3.1219999999998436
457,2,0.8,0.125,35.0,1,1.0,0.43219999999996617
458,2,0.8,1.0,-35.0,-1,1.0,0.24929999999972097
459,2,0.8,0.0625,-35.0,-1,1.0,0.11269999999990432
460,2,0.8,0.125,-35.0,-1,1.0,0.4388000000001284
461,2,0.8,1.0,35.0,1,1.0,0.19900000000006912
462,2,0.8,1.0,-35.0,-1,1.0,0.24559999999996762
463,2,0.8,0.125,-35.0,-1,1.0,0.28909999999996217
464,2,0.8,0.0625,-35.0,-1,1.0,0.48319999999989705
465,2,0.8,0.25,35.0,-1,0.0,0.24949999999989814
466,2,0.8,0.125,-35.0,-1,1.0,0.2864999999999327
467,2,0.8,0.0625,-35.0,-1,1.0,3.0299999999999727
468,2,0.8,0.125,-35.0,-1,1.0,0.3795999999997548
469,2,0.8,1.0,-35.0,-1,1.0,0.3529000000000906
470,2,0.8,0.0,-35.0,-1,1.0,2.893000000000029
471,2,0.8,0.125,-35.0,-1,1.0,0.3331999999998061
472,2,0.8,0.0,-35.0,-1,1.0,3.8230999999998403
473,2,0.8,0.0,35.0,-1,0.0,0.6433999999997013
474,2,0.8,0.25,-35.0,-1,1.0,0.6037000000001171
475,2,0.8,0.25,-35.0,1,0.0,0.3202000000001135
476,2,0.8,0.0,-35.0,-1,1.0,1.094000000000051
477,2,0.8,0.25,35.0,1,1.0,0.21349999999983993
478,2,0.8,0.25,-35.0,-1,1.0,6.180299999999761
479,2,0.2,0.0625,-35.0,-1,1.0,0.48080000000004475
480,2,0.2,1.0,35.0,1,1.0,0.2438999999999396
481,2,0.2,0.125,35.0,1,1.0,0.22059999999987667
482,2,0.2,0.125,35.0,1,1.0,0.517399999999725
483,2,0.2,0.125,35.0,1,1.0,0.2478000000000975
484,2,0.2,0.125,35.0,1,1.0,0.22410000000013497
485,2,0.2,1.0,35.0,1,1.0,0.43129999999973734
486,2,0.2,0.125,35.0,-1,0.0,1.924199999999928
487,2,0.2,0.25,-35.0,-1,1.0,0.250999999999749
488,2,0.2,1.0,35.0,1,1.0,0.20139999999992142
489,2,0.2,0.125,35.0,1,1.0,0.21460000000001855
490,2,0.2,1.0,-35.0,-1,1.0,0.28109999999992397
491,2,0.2,0.125,-35.0,-1,1.0,0.3212999999998374
492,2,0.2,0.0,35.0,1,1.0,0.22510000000011132
493,2,0.2,0.25,35.0,1,1.0,0.42480000000000473
494,2,0.2,0.0625,35.0,1,1.0,0.6081000000001495
495,2,0.2,0.0625,-35.0,1,0.0,0.4050999999999476
496,2,0.2,0.125,35.0,1,1.0,0.455600000000004
497,2,0.2,0.25,-35.0,-1,1.0,0.40219999999999345
498,2,0.2,0.25,-35.0,-1,1.0,0.38209999999980937
499,2,0.2,0.0,35.0,-1,0.0,0.7483999999997195
500,2,0.2,1.0,-35.0,-1,1.0,0.3917999999998756
501,2,0.2,0.25,35.0,1,1.0,0.2887000000000626
502,2,0.2,0.125,35.0,1,1.0,0.19269999999983156
503,2,0.2,0.0625,35.0,1,1.0,0.24589999999989232
504,2,0.2,0.125,35.0,1,1.0,0.4954999999999927
505,2,0.2,0.125,35.0,1,1.0,0.26919999999995525
506,2,0.2,0.0625,35.0,1,1.0,0.5089999999997872
507,2,0.2,1.0,35.0,1,1.0,0.209400000000187
508,2,0.2,0.125,35.0,1,1.0,0.5656999999998789
509,2,0.2,0.25,-35.0,-1,1.0,0.30589999999983775
510,2,0.2,0.25,35.0,1,1.0,0.2660000000000764
511,2,0.2,1.0,35.0,1,1.0,0.22909999999978936
512,2,0.2,0.25,35.0,-1,0.0,0.3895999999999731
513,2,0.2,0.125,35.0,1,1.0,0.3363999999999123
514,2,0.2,0.0,35.0,1,1.0,0.246199999999817
515,2,0.2,0.0,35.0,1,1.0,0.19600000000014006
516,2,0.2,1.0,35.0,1,1.0,0.22269999999980428
517,2,0.2,0.0,35.0,-1,0.0,2.2831999999998516
518,2,0.2,0.125,35.0,1,1.0,0.20649999999977808
519,2,0.2,1.0,35.0,1,1.0,0.15669999999977335
520,2,0.8,0.0,-35.0,1,0.0,0.5295999999998457
521,2,0.8,1.0,-35.0,-1,1.0,0.29330000000004475
522,2,0.8,0.25,35.0,1,1.0,0.30989999999997053
523,2,0.8,1.0,-35.0,-1,1.0,0.32019999999965876
524,2,0.8,0.125,35.0,-1,0.0,4.033699999999953
525,2,0.8,1.0,-35.0,-1,1.0,0.39669999999978245
526,2,0.8,1.0,35.0,1,1.0,0.21679999999992106
527,2,0.8,0.0,35.0,1,1.0,0.4502999999997428
528,2,0.8,0.0,-35.0,-1,1.0,2.563599999999724
529,2,0.8,0.25,35.0,1,1.0,0.23369999999977153
530,2,0.8,1.0,-35.0,-1,1.0,0.41419999999993706
531,2,0.8,0.25,-35.0,-1,1.0,0.5174999999996999
532,2,0.8,0.125,-35.0,-1,1.0,0.7944999999997435
533,2,0.8,0.0,-35.0,-1,1.0,0.6675000000000182
534,2,0.8,0.0625,-35.0,-1,1.0,1.1071999999999207
535,2,0.8,0.25,-35.0,-1,1.0,3.311599999999771
536,2,0.8,0.0625,-35.0,-1,1.0,0.4879000000000815
537,2,0.8,0.0625,-35.0,1,0.0,0.21100000000001273
538,2,0.8,0.25,-35.0,-1,1.0,0.3010999999999058
539,2,0.8,0.0,-35.0,1,0.0,0.21829999999999927
540,2,0.8,0.25,-35.0,-1,1.0,0.421100000000024
541,2,0.2,0.0625,35.0,1,1.0,0.2746999999999389
542,2,0.2,0.0,35.0,-1,0.0,0.3146999999999025
543,2,0.2,0.0625,35.0,-1,0.0,0.35819999999989705
544,2,0.2,0.25,-35.0,-1,1.0,0.4213999999999487
545,2,0.2,0.125,-35.0,-1,1.0,0.5182999999997264
546,2,0.2,0.0625,35.0,1,1.0,0.34160000000019863
547,2,0.2,1.0,35.0,1,1.0,0.23479999999995016
548,2,0.2,0.25,-35.0,-1,1.0,0.2221999999999298
549,2,0.2,0.125,35.0,1,1.0,0.5150999999998476
550,2,0.2,1.0,-35.0,-1,1.0,0.24509999999986576
551,2,0.2,0.125,-35.0,-1,1.0,0.27569999999991524
552,2,0.2,0.0,-35.0,-1,1.0,0.44849999999996726
553,2,0.2,1.0,35.0,1,1.0,0.22520000000008622
554,2,0.2,1.0,-35.0,-1,1.0,0.5286000000000968
555,2,0.2,0.0625,35.0,1,1.0,0.3158000000000811
556,2,0.2,0.25,35.0,-1,0.0,0.2951999999997952
557,2,0.2,1.0,35.0,-1,0.0,2.363099999999804
558,2,0.2,0.0625,35.0,1,1.0,0.5553999999999633
559,2,0.2,0.0625,35.0,1,1.0,0.2723999999998341
560,2,0.2,0.0625,35.0,1,1.0,2.6089999999999236
561,2,0.2,0.25,35.0,1,1.0,0.2522999999998774
562,2,0.2,0.25,35.0,1,1.0,0.24919999999997344
563,2,0.2,0.0625,35.0,1,1.0,0.23929999999995744
564,2,0.2,0.25,35.0,1,1.0,0.3167999999998301
565,2,0.8,0.0625,-35.0,1,0.0,0.6827999999998156
566,2,0.8,0.25,-35.0,-1,1.0,1.9527999999997974
567,2,0.8,0.0625,-35.0,-1,1.0,0.730199999999968
568,2,0.8,0.0625,35.0,-1,0.0,4.909799999999905
569,2,0.8,1.0,35.0,1,1.0,0.3572999999998956
570,2,0.8,0.25,-35.0,-1,1.0,0.17339999999967404
571,2,0.8,1.0,-35.0,-1,1.0,0.3166999999998552
572,2,0.8,0.0625,-35.0,1,0.0,0.3303000000000793
573,2,0.8,0.125,35.0,1,1.0,0.5606999999999971
574,2,0.8,0.0,-35.0,-1,1.0,2.7403999999999087
575,2,0.8,0.125,35.0,1,1.0,0.2769999999998163
576,2,0.8,0.125,35.0,1,1.0,0.2501999999999498
577,2,0.8,0.0625,-35.0,-1,1.0,0.5002999999999247
578,2,0.8,0.0,-35.0,1,0.0,0.7670999999998003
579,2,0.8,0.0625,-35.0,-1,1.0,0.4174000000000433
580,2,0.8,1.0,-35.0,-1,1.0,0.3875000000000455
581,2,0.8,0.0625,-35.0,-1,1.0,3.8209999999999127
582,2,0.8,0.125,-35.0,-1,1.0,0.33439999999973224
583,2,0.8,0.0625,35.0,1,1.0,0.44449999999983447
584,2,0.8,0.25,-35.0,-1,1.0,5.794199999999819
585,2,0.8,1.0,-35.0,-1,1.0,0.34829999999965366
586,2,0.8,1.0,-35.0,-1,1.0,0.5178000000000793
587,2,0.8,0.0,-35.0,-1,1.0,5.0978999999999814
588,2,0.8,0.0625,-35.0,-1,1.0,0.4814000000001215
589,2,0.8,0.0625,35.0,1,1.0,0.6980999999998403
590,2,0.8,0.0625,-35.0,-1,1.0,0.46509999999989304
591,2,0.8,0.0625,-35.0,-1,1.0,4.38189999999986
592,2,0.8,1.0,-35.0,-1,1.0,0.29179999999996653
593,2,0.8,0.0625,-35.0,-1,1.0,0.3088999999999942
594,2,0.8,0.25,-35.0,-1,1.0,0.3351000000000113
595,2,0.8,0.0625,-35.0,-1,1.0,0.9884999999999309
596,2,0.8,0.125,35.0,-1,0.0,4.378699999999753
597,2,0.8,1.0,-35.0,-1,1.0,0.36210000000005493
598,2,0.8,0.25,-35.0,-1,1.0,0.32199999999988904
599,2,0.8,0.0625,-35.0,-1,1.0,6.8853999999998905
600,2,0.8,1.0,35.0,1,1.0,0.38889999999969405
601,2,0.8,1.0,-35.0,-1,1.0,0.4091999999998279
602,2,0.8,0.0625,-35.0,-1,1.0,5.076000000000022
603,2,0.8,1.0,-35.0,-1,1.0,0.3294999999998254
604,2,0.8,0.25,-35.0,-1,1.0,3.8264999999998963
605,2,0.8,0.0,-35.0,-1,1.0,2.2565000000001874
606,2,0.2,0.125,35.0,1,1.0,1.6363999999998668
607,2,0.2,0.0625,35.0,-1,0.0,5.483699999999999
608,2,0.2,1.0,35.0,1,1.0,0.7333999999998468
609,2,0.2,0.25,-35.0,-1,1.0,5.873499999999922
610,2,0.2,0.0625,35.0,-1,0.0,3.570699999999988
611,2,0.2,0.125,35.0,1,1.0,0.5503000000001066
612,2,0.2,1.0,35.0,1,1.0,0.6174999999998363
613,2,0.2,1.0,-35.0,-1,1.0,2.3905999999999494
614,2,0.2,1.0,35.0,1,1.0,0.36439999999993233
615,2,0.2,0.0625,35.0,-1,0.0,0.24109999999996035
616,2,0.2,0.0625,35.0,-1,0.0,18.824299999999766
617,2,0.2,0.25,35.0,-1,0.0,44.968399999999974
618,2,0.2,0.125,35.0,1,1.0,5.033199999999852
619,2,0.2,0.0,35.0,-1,0.0,1.9230999999999767
620,2,0.2,0.25,35.0,1,1.0,9.90969999999993
1,3,0.5,1.0,35.0,-1,0.0,0.23769999999999936
2,3,0.5,0.125,-35.0,-1,1.0,0.27020000000000177
3,3,0.5,0.0,35.0,-1,0.0,0.12650000000000006
4,3,0.5,0.0,35.0,-1,0.0,5.0439000000000025
5,3,0.5,0.125,35.0,-1,0.0,0.1973999999999947
6,3,0.5,1.0,-35.0,-1,1.0,0.26559999999999917
7,3,0.5,0.25,-35.0,-1,1.0,0.24309999999999832
8,3,0.5,0.25,-35.0,-1,1.0,0.17219999999999658
9,3,0.5,1.0,-35.0,-1,1.0,0.2668000000000035
10,3,0.5,0.25,-35.0,-1,1.0,0.21280000000000143
11,3,0.5,0.25,35.0,-1,0.0,0.15990000000000038
12,3,0.5,1.0,35.0,1,1.0,0.3580000000000041
13,3,0.5,1.0,-35.0,-1,1.0,0.2693999999999974
14,3,0.5,0.0,-35.0,1,0.0,2.8430000000000035
15,3,0.5,0.0625,-35.0,-1,1.0,0.19819999999999993
16,3,0.5,0.25,-35.0,-1,1.0,0.2587000000000046
17,3,0.5,0.125,-35.0,-1,1.0,0.06889999999999219
18,3,0.5,0.125,35.0,-1,0.0,0.2039000000000044
19,3,0.5,1.0,35.0,1,1.0,0.47169999999999845
20,3,0.5,0.25,35.0,1,1.0,0.2879999999999967
21,3,0.5,1.0,35.0,-1,0.0,0.12720000000000198
22,3,0.5,0.125,35.0,1,1.0,0.2074999999999818
23,3,0.5,0.0625,35.0,-1,0.0,0.2843000000000018
24,3,0.5,0.0625,-35.0,-1,1.0,0.2757999999999896
25,3,0.5,0.25,35.0,1,1.0,0.31159999999999854
26,3,0.5,1.0,35.0,-1,0.0,0.35320000000000107
27,3,0.5,0.0,-35.0,-1,1.0,0.143100000000004
28,3,0.5,0.25,-35.0,-1,1.0,0.24969999999999004
29,3,0.5,0.125,35.0,1,1.0,0.45599999999998886
30,3,0.5,1.0,-35.0,-1,1.0,0.20669999999998367
31,3,0.5,0.25,35.0,1,1.0,0.38469999999999516
32,3,0.5,0.25,35.0,1,1.0,0.521499999999989
33,3,0.5,0.0625,-35.0,1,0.0,0.2512000000000114
34,3,0.5,0.0,35.0,-1,0.0,0.4415000000000049
35,3,0.5,0.0,35.0,-1,0.0,0.5594999999999999
36,3,0.5,1.0,35.0,1,1.0,0.19790000000000418
37,3,0.5,0.25,35.0,1,1.0,0.2412999999999812
38,3,0.5,1.0,-35.0,-1,1.0,0.18039999999999168
39,3,0.5,0.0625,35.0,1,1.0,0.22999999999997556
40,3,0.5,1.0,35.0,1,1.0,0.31699999999997885
41,3,0.5,0.25,35.0,1,1.0,0.22599999999997067
42,3,0.5,0.125,-35.0,1,0.0,0.6184999999999832
43,3,0.5,0.0,35.0,1,1.0,0.4380999999999915
44,3,0.5,0.0,35.0,1,1.0,0.22569999999998913
45,3,0.5,0.125,-35.0,1,0.0,1.762599999999992
46,3,0.5,0.0625,-35.0,1,0.0,0.6590999999999667
47,3,0.5,1.0,35.0,1,1.0,0.2442999999999813
48,3,0.5,0.25,35.0,1,1.0,0.21949999999998226
49,3,0.5,0.0,-35.0,1,0.0,0.2424999999999784
50,3,0.5,1.0,-35.0,-1,1.0,0.30879999999999086
51,3,0.5,0.125,-35.0,-1,1.0,0.22769999999999868
52,3,0.5,0.25,-35.0,-1,1.0,0.19759999999999422
53,3,0.5,0.25,35.0,1,1.0,0.2937000000000012
54,3,0.5,1.0,35.0,1,1.0,0.24099999999998545
55,3,0.5,1.0,35.0,1,1.0,0.28409999999999513
56,3,0.5,1.0,35.0,1,1.0,0.2686999999999671
57,3,0.5,0.25,-35.0,-1,1.0,0.1466000000000065
58,3,0.5,0.125,-35.0,-1,1.0,0.32570000000001187
59,3,0.5,0.25,-35.0,-1,1.0,0.17209999999997194
60,3,0.5,0.0625,35.0,1,1.0,0.2681999999999789
61,3,0.5,1.0,-35.0,-1,1.0,0.19649999999998613
62,3,0.5,0.0,-35.0,-1,1.0,0.4773999999999603
63,3,0.5,0.125,-35.0,-1,1.0,0.31469999999998777
64,3,0.5,0.0,35.0,-1,0.0,0.4064999999999941
65,3,0.5,1.0,-35.0,-1,1.0,0.35360000000000014
66,3,0.5,0.0625,-35.0,-1,1.0,0.16099999999997294
67,3,0.5,0.25,-35.0,-1,1.0,0.16199999999997772
68,3,0.5,0.25,35.0,1,1.0,0.28819999999998913
69,3,0.5,0.0625,-35.0,-1,1.0,0.2446999999999946
70,3,0.5,0.25,35.0,-1,0.0,0.15449999999998454
71,3,0.5,0.25,35.0,1,1.0,0.3482999999999947
72,3,0.5,1.0,35.0,1,1.0,0.18350000000000932
73,3,0.5,0.25,35.0,1,1.0,0.20029999999997017
74,3,0.5,0.25,-35.0,-1,1.0,0.44000000000002615
75,3,0.5,0.0625,-35.0,-1,1.0,0.4747999999999877
76,3,0.5,1.0,35.0,1,1.0,0.28710000000000946
77,3,0.5,1.0,-35.0,-1,1.0,0.5326000000000022
78,3,0.5,0.0625,-35.0,-1,1.0,0.14939999999995734
79,3,0.5,0.0625,-35.0,1,0.0,0.2338000000000875
80,3,0.5,0.25,-35.0,-1,1.0,0.2635999999999967
81,3,0.5,0.0625,35.0,1,1.0,0.22920000000004848
82,3,0.5,0.0625,35.0,1,1.0,0.5555000000000518
83,3,0.5,0.125,-35.0,-1,1.0,0.6829999999999927
84,3,0.5,0.125,35.0,-1,0.0,0.27480000000002747
85,3,0.5,0.125,-35.0,-1,1.0,0.23799999999999955
86,3,0.5,0.0625,-35.0,-1,1.0,0.2914000000000101
87,3,0.5,0.0,35.0,-1,0.0,0.5204000000000519
88,3,0.5,0.25,35.0,1,1.0,0.20620000000002392
89,3,0.5,0.125,-35.0,-1,1.0,0.2398000000000593
90,3,0.5,0.0625,35.0,-1,0.0,0.17020000000002256
91,3,0.8,1.0,-35.0,-1,1.0,0.23740000000003647
92,3,0.8,0.0,-35.0,-1,1.0,0.34600000000000364
93,3,0.8,1.0,-35.0,-1,1.0,0.1633000000000493
94,3,0.8,0.25,35.0,-1,0.0,0.179300000000012
95,3,0.8,0.0,-35.0,-1,1.0,0.26820000000003574
96,3,0.8,0.0,-35.0,-1,1.0,0.18989999999996598
97,3,0.8,0.125,35.0,1,1.0,0.3211000000000013
98,3,0.8,1.0,-35.0,-1,1.0,0.209699999999998
99,3,0.8,0.0,-35.0,-1,1.0,1.0325000000000273
100,3,0.8,0.125,-35.0,-1,1.0,0.3254999999999768
101,3,0.8,0.25,-35.0,-1,1.0,0.4139000000000692
102,3,0.8,0.25,-35.0,-1,1.0,0.2799999999999727
103,3,0.8,0.0625,-35.0,-1,1.0,0.2236000000000331
104,3,0.8,0.25,-35.0,-1,1.0,0.17370000000005348
105,3,0.8,1.0,-35.0,-1,1.0,0.14240000000000919
106,3,0.8,0.25,-35.0,-1,1.0,0.14060000000006312
107,3,0.8,1.0,-35.0,-1,1.0,0.10249999999996362
108,3,0.8,0.0625,-35.0,-1,1.0,0.24220000000002528
109,3,0.8,0.0,-35.0,-1,1.0,0.1622000000000412
110,3,0.8,0.0,-35.0,1,0.0,0.21710000000001628
111,3,0.8,1.0,-35.0,-1,1.0,0.2157000000000835
112,3,0.8,0.0625,-35.0,-1,1.0,0.34300000000001774
113,3,0.8,1.0,-35.0,-1,1.0,0.18410000000005766
114,3,0.8,0.125,35.0,-1,0.0,0.20970000000005484
115,3,0.8,0.25,-35.0,-1,1.0,0.19130000000001246
116,3,0.8,0.125,-35.0,-1,1.0,0.2716000000000349
117,3,0.8,0.0625,-35.0,-1,1.0,0.3431000000000495
118,3,0.8,0.0,35.0,-1,0.0,0.23529999999999518
119,3,0.8,0.0625,-35.0,-1,1.0,0.17090000000001737
120,3,0.8,0.25,-35.0,-1,1.0,0.1855000000000473
121,3,0.8,0.25,35.0,-1,0.0,0.09790000000003829
122,3,0.8,1.0,-35.0,-1,1.0,0.23440000000005057
123,3,0.8,0.0625,-35.0,-1,1.0,0.1863999999999919
124,3,0.8,0.0625,35.0,-1,0.0,0.34679999999997335
125,3,0.8,0.0625,-35.0,-1,1.0,0.15370000000001482
126,3,0.8,0.25,-35.0,-1,1.0,0.15730000000002065
127,3,0.8,0.125,-35.0,-1,1.0,0.23420000000004393
128,3,0.8,0.25,-35.0,-1,1.0,0.20319999999998117
129,3,0.2,0.25,-35.0,-1,1.0,0.18110000000007176
130,3,0.2,1.0,35.0,1,1.0,0.6881999999999948
131,3,0.2,1.0,35.0,1,1.0,0.29230000000001155
132,3,0.2,0.25,35.0,1,1.0,0.3342000000000098
133,3,0.2,0.0625,35.0,1,1.0,0.623800000000017
134,3,0.2,1.0,35.0,1,1.0,0.5409999999999968
135,3,0.2,0.0625,35.0,-1,0.0,0.24279999999998836
136,3,0.2,0.0625,35.0,1,1.0,0.7225999999999999
137,3,0.2,0.25,-35.0,-1,1.0,0.28489999999999327
138,3,0.2,0.0,-35.0,-1,1.0,0.22440000000000282
139,3,0.2,0.0625,-35.0,1,0.0,0.27620000000007394
140,3,0.2,0.25,35.0,-1,0.0,0.14279999999996562
141,3,0.2,1.0,35.0,1,1.0,1.350500000000011
142,3,0.2,0.0625,-35.0,-1,1.0,0.7993000000000734
143,3,0.2,0.0625,35.0,1,1.0,1.345799999999997
144,3,0.2,1.0,-35.0,-1,1.0,0.3937000000000239
145,3,0.2,0.25,35.0,1,1.0,0.5611999999999853
146,3,0.2,0.125,35.0,-1,0.0,0.3542000000000485
147,3,0.2,1.0,35.0,1,1.0,0.5315000000000509
148,3,0.2,1.0,-35.0,-1,1.0,0.20359999999999445
149,3,0.2,0.25,-35.0,-1,1.0,0.24940000000003693
150,3,0.2,0.0,-35.0,1,0.0,2.967900000000043
151,3,0.2,0.0625,-35.0,1,0.0,3.5536999999999352
152,3,0.2,0.0,35.0,1,1.0,0.5711999999999762
153,3,0.2,0.125,35.0,1,1.0,0.4414000000000442
154,3,0.2,0.125,35.0,1,1.0,0.24199999999984811
155,3,0.2,0.25,-35.0,-1,1.0,0.4479999999999791
156,3,0.2,0.0625,35.0,1,1.0,0.25879999999995107
157,3,0.2,0.0625,-35.0,-1,1.0,0.20580000000006748
158,3,0.2,0.25,35.0,1,1.0,0.4017000000000053
159,3,0.2,0.0625,35.0,1,1.0,0.4742999999999711
160,3,0.2,0.125,-35.0,-1,1.0,0.3611999999999398
161,3,0.2,0.25,35.0,-1,0.0,0.06299999999987449
162,3,0.2,0.25,35.0,-1,0.0,0.11730000000000018
163,3,0.8,0.25,-35.0,-1,1.0,0.29939999999999145
164,3,0.8,0.25,-35.0,-1,1.0,0.2922999999999547
165,3,0.8,0.0,35.0,1,1.0,0.30989999999997053
166,3,0.8,0.125,35.0,1,1.0,0.24649999999996908
167,3,0.8,0.0625,-35.0,-1,1.0,0.34209999999984575
168,3,0.8,0.125,35.0,1,1.0,0.20650000000000546
169,3,0.8,0.0625,-35.0,1,0.0,0.19060000000001764
170,3,0.8,1.0,35.0,1,1.0,0.22479999999995925
171,3,0.8,1.0,35.0,1,1.0,0.23899899999992158
172,3,0.8,1.0,35.0,1,1.0,0.11429999999995744
173,3,0.8,0.0625,-35.0,-1,1.0,0.3491000000000213
174,3,0.8,0.0625,-35.0,-1,1.0,0.36789999999996326
175,3,0.8,0.25,35.0,-1,0.0,0.19529999999997472
176,3,0.8,0.0625,35.0,1,1.0,0.19899999999995543
177,3,0.8,0.125,-35.0,-1,1.0,0.4431999999999334
178,3,0.8,1.0,-35.0,-1,1.0,0.19109999999989213
179,3,0.8,0.25,-35.0,-1,1.0,0.17079999999998563
180,3,0.8,0.0625,-35.0,-1,1.0,0.14659999999992124
181,3,0.8,0.0625,-35.0,-1,1.0,0.13259999999991123
182,3,0.8,0.0625,-35.0,-1,1.0,0.411899999999946
183,3,0.8,0.125,-35.0,-1,1.0,0.18669999999985976
184,3,0.8,0.0,-35.0,-1,1.0,0.15999999999996817
185,3,0.8,0.0625,-35.0,-1,1.0,0.28329999999994016
186,3,0.8,0.25,35.0,1,1.0,0.21659999999997126
187,3,0.8,1.0,-35.0,-1,1.0,0.19069999999999254
188,3,0.8,0.0625,35.0,-1,0.0,0.1470000000000482
189,3,0.8,0.0625,-35.0,1,0.0,0.9062000000000126
190,3,0.8,0.25,-35.0,-1,1.0,0.3364999999998872
191,3,0.8,0.125,-35.0,1,0.0,0.1935999999999467
192,3,0.8,0.125,35.0,1,1.0,0.5018999999999778
193,3,0.8,0.125,-35.0,-1,1.0,0.13440000000002783
194,3,0.8,1.0,-35.0,-1,1.0,0.21059999999999945
195,3,0.2,0.25,35.0,1,1.0,0.18269999999995434
196,3,0.2,1.0,35.0,1,1.0,0.47299999999984266
197,3,0.2,0.0625,35.0,-1,0.0,0.12389999999993506
198,3,0.2,0.125,35.0,1,1.0,0.3125
199,3,0.2,0.0625,35.0,1,1.0,0.3727000000000089
200,3,0.2,0.125,-35.0,1,0.0,0.5215989999999238
201,3,0.2,0.0,-35.0,1,0.0,0.26340000000004693
202,3,0.2,0.0,35.0,-1,0.0,0.43279999999992924
203,3,0.2,1.0,-35.0,-1,1.0,0.30789999999990414
204,3,0.2,0.0,35.0,-1,0.0,0.36989999999991596
205,3,0.2,1.0,35.0,1,1.0,0.17579999999998108
206,3,0.2,1.0,35.0,1,1.0,0.19889999999998054
207,3,0.2,0.0625,-35.0,1,0.0,0.2442999999999529
208,3,0.2,0.0625,-35.0,1,0.0,0.3308999999999287
209,3,0.2,0.0,-35.0,1,0.0,0.2178000000000111
210,3,0.2,0.125,35.0,1,1.0,0.24469999999996617
211,3,0.2,1.0,35.0,1,1.0,0.32140000000003965
212,3,0.2,0.25,35.0,-1,0.0,0.21749999999997272
213,3,0.2,0.0625,35.0,1,1.0,0.34389999999996235
214,3,0.2,0.125,35.0,-1,0.0,0.1720990000000029
215,3,0.2,0.125,35.0,1,1.0,0.255800000000022
216,3,0.2,0.25,-35.0,-1,1.0,0.3026999999999589
217,3,0.2,0.125,35.0,1,1.0,0.9028999999999314
218,3,0.2,0.125,35.0,1,1.0,0.2703999999998814
219,3,0.2,0.25,35.0,1,1.0,0.22140000000001692
220,3,0.2,1.0,-35.0,-1,1.0,0.06559999999990396
221,3,0.2,0.0625,35.0,1,1.0,0.25499999999988177
222,3,0.2,0.125,-35.0,1,0.0,0.18669999999985976
223,3,0.2,0.125,35.0,1,1.0,0.2697999999999183
224,3,0.2,0.0,35.0,1,1.0,0.42240000000003874
225,3,0.2,0.25,35.0,1,1.0,0.23249999999995907
226,3,0.2,1.0,35.0,1,1.0,0.3449999999999136
227,3,0.2,1.0,35.0,1,1.0,0.21549999999990632
228,3,0.2,0.125,35.0,1,1.0,0.17459999999982756
229,3,0.2,0.125,35.0,1,1.0,0.3390999999999167
230,3,0.2,1.0,35.0,1,1.0,0.23299999999994725
231,3,0.2,0.0,35.0,-1,0.0,0.2884999999999991
232,3,0.2,1.0,35.0,1,1.0,0.24929999999994834
233,3,0.2,0.0,35.0,1,1.0,0.26400000000001
234,3,0.2,1.0,35.0,1,1.0,0.22059999999987667
235,3,0.2,0.125,35.0,-1,0.0,0.40819999999996526
236,3,0.2,0.25,-35.0,-1,1.0,0.28139999999984866
237,3,0.2,0.125,-35.0,-1,1.0,0.3066999999998643
238,3,0.2,0.125,35.0,1,1.0,0.3894000000000233
239,3,0.2,0.25,35.0,1,1.0,0.27519999999992706
240,3,0.2,1.0,-35.0,-1,1.0,0.23649999999997817
241,3,0.2,0.0625,35.0,1,1.0,0.2719999999999345
242,3,0.2,0.0625,-35.0,-1,1.0,0.13439999999991414
243,3,0.2,0.25,35.0,1,1.0,0.2785999999999831
244,3,0.2,1.0,35.0,1,1.0,0.46499999999991815
245,3,0.2,0.0625,35.0,1,1.0,0.2255999999999858
246,3,0.2,0.0,-35.0,-1,1.0,2.187000000000012
247,3,0.2,0.125,35.0,1,1.0,0.6008000000000493
248,3,0.2,0.0625,35.0,1,1.0,0.5876999999999271
249,3,0.2,0.25,-35.0,-1,1.0,0.23969999999997071
250,3,0.2,0.0625,35.0,1,1.0,0.4073000000000775
251,3,0.2,1.0,-35.0,-1,1.0,0.17200000000002547
252,3,0.2,0.25,35.0,1,1.0,0.4518999999999096
253,3,0.2,0.25,35.0,1,1.0,0.4076000000000022
254,3,0.2,0.0625,35.0,1,1.0,0.2563000000000102
255,3,0.2,0.0625,35.0,-1,0.0,0.13049999999986994
256,3,0.2,0.0625,-35.0,1,0.0,0.33999999999991815
257,3,0.2,0.0,35.0,-1,0.0,0.3268999999999096
258,3,0.2,0.125,35.0,1,1.0,0.2481999999998834
259,3,0.2,0.125,-35.0,-1,1.0,0.7370999999999412
260,3,0.2,0.0625,-35.0,-1,1.0,0.31780000000003383
261,3,0.2,1.0,35.0,1,1.0,0.25290000000006785
262,3,0.2,0.125,35.0,1,1.0,0.49700000000007094
263,3,0.2,0.0625,-35.0,-1,1.0,0.39459999999996853
264,3,0.2,0.0,35.0,1,1.0,0.5298999999999978
265,3,0.2,1.0,35.0,1,1.0,0.21669999999994616
266,3,0.2,0.0625,35.0,1,1.0,0.38440000000002783
267,3,0.2,0.125,35.0,1,1.0,0.27509999999995216
268,3,0.2,0.25,35.0,1,1.0,0.3415999999998576
269,3,0.2,0.125,35.0,1,1.0,0.33839999999986503
270,3,0.2,0.125,35.0,1,1.0,0.19869999999991705
271,3,0.8,0.0625,-35.0,1,0.0,0.08690000000001419
272,3,0.8,1.0,-35.0,-1,1.0,0.26099999999996726
273,3,0.8,0.0,-35.0,1,0.0,0.3833999999999378
274,3,0.8,1.0,35.0,1,1.0,0.44290000000000873
275,3,0.8,1.0,-35.0,-1,1.0,0.3048999999999751
276,3,0.8,0.0,-35.0,-1,1.0,0.33419999999989614
277,3,0.8,0.0625,-35.0,-1,1.0,0.7717000000000098
278,3,0.8,0.125,-35.0,-1,1.0,0.27959999999995944
279,3,0.8,0.125,-35.0,-1,1.0,0.24169999999992342
280,3,0.8,0.125,-35.0,-1,1.0,0.2178000000000111
281,3,0.8,0.125,-35.0,-1,1.0,0.421100000000024
282,3,0.8,0.0625,-35.0,-1,1.0,0.5666999999999689
283,3,0.8,0.0625,-35.0,-1,1.0,0.29179999999996653
284,3,0.8,1.0,-35.0,-1,1.0,0.2839000000000169
285,3,0.8,0.25,-35.0,-1,1.0,0.17209999999988668
286,3,0.8,0.0625,-35.0,-1,1.0,0.4455990000000156
287,3,0.8,1.0,-35.0,-1,1.0,0.21909999999991214
288,3,0.8,0.0625,-35.0,-1,1.0,0.2924999999999045
289,3,0.8,1.0,-35.0,-1,1.0,0.19260000000008404
290,3,0.8,0.25,35.0,1,1.0,0.45270000000004984
291,3,0.8,0.125,-35.0,-1,1.0,0.3328000000001339
292,3,0.8,1.0,-35.0,-1,1.0,0.2828999999996995
293,3,0.8,0.0625,-35.0,-1,1.0,0.15640000000007603
294,3,0.8,0.0625,-35.0,-1,1.0,0.20299900000009075
295,3,0.8,0.125,-35.0,-1,1.0,0.3030999999998585
296,3,0.8,0.0625,-35.0,-1,1.0,0.25319999999987886
297,3,0.8,0.125,-35.0,-1,1.0,0.22339999999985594
298,3,0.8,0.0625,-35.0,-1,1.0,0.19339999999988322
299,3,0.8,1.0,-35.0,-1,1.0,0.3833999999999378
300,3,0.8,0.0625,-35.0,-1,1.0,0.3001999999999043
301,3,0.8,0.25,-35.0,-1,1.0,0.1936000000000604
302,3,0.8,0.125,-35.0,-1,1.0,0.26700000000005275
303,3,0.8,0.0,35.0,-1,0.0,0.4637999999997646
304,3,0.8,0.0625,35.0,-1,0.0,0.300499999999829
305,3,0.8,0.25,35.0,-1,0.0,0.19059999999990396
306,3,0.8,0.25,-35.0,-1,1.0,0.25080000000002656
307,3,0.8,0.0625,-35.0,-1,1.0,0.23080000000004475
308,3,0.8,0.0,-35.0,-1,1.0,0.31760000000008404
309,3,0.8,0.0625,-35.0,-1,1.0,0.29759999999987485
310,3,0.8,1.0,-35.0,-1,1.0,0.20770000000015898
311,3,0.8,0.25,-35.0,-1,1.0,0.28449999999998
312,3,0.8,1.0,-35.0,-1,1.0,0.2578000000000884
313,3,0.8,0.25,-35.0,-1,1.0,0.1878999999998996
314,3,0.8,0.25,-35.0,-1,1.0,0.264699999999948
315,3,0.8,0.0625,-35.0,-1,1.0,0.1613999999999578
316,3,0.8,0.0625,-35.0,-1,1.0,0.1449000000000069
317,3,0.8,0.0,-35.0,-1,1.0,0.32159999999998945
318,3,0.8,0.0625,35.0,-1,0.0,0.1917999999998301
319,3,0.8,0.0625,-35.0,-1,1.0,0.4518000000000484
320,3,0.8,0.25,-35.0,-1,1.0,0.22179999999980282
321,3,0.8,0.0625,-35.0,-1,1.0,0.29189999999994143
322,3,0.8,0.0625,-35.0,-1,1.0,0.20529999999985193
323,3,0.8,0.25,-35.0,-1,1.0,0.28539999999998145
324,3,0.8,0.0625,-35.0,-1,1.0,0.1255999999998494
325,3,0.8,0.0625,-35.0,-1,1.0,0.24559999999996762
326,3,0.8,0.125,-35.0,-1,1.0,0.2591000000002168
327,3,0.8,0.0625,35.0,1,1.0,0.4157999999999902
328,3,0.8,0.125,-35.0,-1,1.0,0.34579999999982647
329,3,0.8,0.25,35.0,1,1.0,0.5326999999999771
330,3,0.8,0.0625,-35.0,-1,1.0,0.4693999999999505
331,3,0.8,0.0625,-35.0,-1,1.0,0.18610000000012406
332,3,0.8,0.25,35.0,1,1.0,0.38620000000014443
333,3,0.8,1.0,-35.0,-1,1.0,0.2962999999999738
334,3,0.8,1.0,-35.0,-1,1.0,0.27969999999982065
335,3,0.8,0.125,-35.0,-1,1.0,0.6398999999998978
336,3,0.8,0.25,35.0,1,1.0,0.3666000000000622
337,3,0.8,1.0,-35.0,-1,1.0,0.22339999999985594
338,3,0.8,0.25,-35.0,-1,1.0,0.3469000000000051
339,3,0.8,0.125,-35.0,-1,1.0,0.5001999999999498
340,3,0.8,0.25,-35.0,-1,1.0,0.2869999999998072
341,3,0.8,0.125,-35.0,-1,1.0,0.4836999999999989
342,3,0.8,0.0625,-35.0,-1,1.0,0.223700000000008
343,3,0.8,0.0,-35.0,-1,1.0,0.4136999999998352
344,3,0.8,0.25,-35.0,-1,1.0,0.16380000000003747
345,3,0.8,0.0,-35.0,-1,1.0,0.48080000000004475
346,3,0.8,0.125,-35.0,-1,1.0,0.4675000000002001
347,3,0.8,0.25,35.0,1,1.0,0.5742000000000189
348,3,0.8,0.125,-35.0,1,0.0,0.2643000000000484
349,3,0.8,1.0,-35.0,-1,1.0,0.22119999999995343
350,3,0.8,0.125,-35.0,-1,1.0,0.2479000000000724
351,3,0.8,1.0,-35.0,-1,1.0,0.2314000000001215
352,3,0.8,0.25,35.0,1,1.0,0.27139999999985776
353,3,0.8,0.0625,-35.0,1,0.0,0.5214999999998327
354,3,0.8,0.0,-35.0,-1,1.0,0.24500000000011823
355,3,0.8,0.125,-35.0,-1,1.0,0.248299999999972
356,3,0.8,0.125,-35.0,-1,1.0,0.241800000000012
357,3,0.8,0.0625,35.0,1,1.0,0.3951000000001841
358,3,0.8,0.0,-35.0,1,0.0,0.3285000000000764
359,3,0.8,0.25,35.0,1,1.0,0.4919999999999618
360,3,0.8,0.0625,35.0,1,1.0,0.2519999999999527
361,3,0.8,0.0625,-35.0,-1,1.0,0.3553999999999178
362,3,0.8,0.125,-35.0,-1,1.0,0.31549999999992906
363,3,0.8,0.0,35.0,1,1.0,0.34569999999985157
364,3,0.8,0.25,-35.0,-1,1.0,0.19249999999988177
365,3,0.8,0.25,-35.0,-1,1.0,0.4191000000000713
366,3,0.8,1.0,-35.0,-1,1.0,0.2726000000000113
367,3,0.8,1.0,-35.0,-1,1.0,0.17260000000010223
368,3,0.2,0.125,35.0,1,1.0,0.4560999999998785
369,3,0.2,0.125,35.0,1,1.0,0.3027999999999338
370,3,0.2,0.0625,35.0,1,1.0,0.22949999999991633
371,3,0.2,0.0625,35.0,1,1.0,0.2962999999999738
372,3,0.2,1.0,35.0,1,1.0,0.4130999999999858
373,3,0.2,0.0,35.0,1,1.0,0.19980000000009568
374,3,0.2,0.25,35.0,1,1.0,0.37649999999985084
375,3,0.2,1.0,35.0,1,1.0,0.3301000000001295
376,3,0.2,0.25,35.0,1,1.0,0.39009999999984757
377,3,0.2,0.25,-35.0,-1,1.0,0.5533999999997832
378,3,0.2,1.0,35.0,1,1.0,0.2535000000000309
379,3,0.2,0.0625,-35.0,-1,1.0,0.36370000000010805
380,3,0.2,0.0,35.0,-1,0.0,0.5171000000000276
381,3,0.2,0.0625,-35.0,-1,1.0,0.52379999999971
382,3,0.2,0.25,35.0,1,1.0,0.42059999999992215
383,3,0.2,0.0,35.0,-1,0.0,0.3573999999998705
384,3,0.2,0.0625,35.0,1,1.0,0.9808000000000447
385,3,0.2,0.0625,35.0,1,1.0,0.24759999999992033
386,3,0.2,0.25,-35.0,-1,1.0,0.41429999999991196
387,3,0.2,0.125,35.0,1,1.0,0.46099999999978536
388,3,0.8,1.0,35.0,1,1.0,0.894399999999905
389,3,0.8,0.25,35.0,-1,0.0,0.2544999999997799
390,3,0.8,0.25,-35.0,-1,1.0,0.26120000000014443
391,3,0.8,0.0625,-35.0,1,0.0,0.2380000000000564
392,3,0.8,1.0,-35.0,-1,1.0,0.2516000000000531
393,3,0.8,0.125,-35.0,-1,1.0,0.2782999999999447
394,3,0.8,1.0,-35.0,-1,1.0,0.14170000000012806
395,3,0.8,0.25,-35.0,-1,1.0,0.3184000000001106
396,3,0.8,1.0,-35.0,-1,1.0,0.2218000000000302
397,3,0.8,0.0625,-35.0,-1,1.0,0.2685999999998785
398,3,0.8,0.25,-35.0,-1,1.0,0.44869999999991705
399,3,0.8,0.25,-35.0,-1,1.0,0.6954000000000633
400,3,0.8,0.125,-35.0,-1,1.0,0.26890000000003056
401,3,0.8,0.125,35.0,-1,0.0,0.4290000000000873
402,3,0.8,1.0,-35.0,-1,1.0,0.2723999999998341
403,3,0.8,0.0625,-35.0,-1,1.0,0.272499999999809
404,3,0.8,1.0,-35.0,-1,1.0,0.2558000000001357
405,3,0.8,0.25,-35.0,-1,1.0,0.2158999999999196
406,3,0.8,0.125,-35.0,-1,1.0,0.2726000000000113
407,3,0.8,0.25,35.0,1,1.0,0.27280000000018845
408,3,0.8,0.25,-35.0,-1,1.0,0.22289999999998145
409,3,0.8,0.125,-35.0,-1,1.0,0.5496000000000549
410,3,0.8,1.0,-35.0,-1,1.0,0.24299999999993815
411,3,0.8,1.0,-35.0,-1,1.0,0.47299999999995634
412,3,0.8,0.0,-35.0,-1,1.0,0.2898000000000138
413,3,0.8,1.0,-35.0,-1,1.0,0.24320000000011532
414,3,0.8,0.0625,-35.0,-1,1.0,0.3167000000000826
415,3,0.8,0.0625,-35.0,-1,1.0,0.2667999999998756
416,3,0.8,0.125,-35.0,-1,1.0,0.6467999999999847
417,3,0.8,0.0625,-35.0,-1,1.0,0.37029999999981555
418,3,0.8,0.0625,-35.0,-1,1.0,0.29369999999971697
419,3,0.8,0.125,35.0,1,1.0,0.33029999999985193
420,3,0.2,0.0625,-35.0,-1,1.0,0.24710000000004584
421,3,0.2,0.0625,35.0,-1,0.0,0.46049999999991087
422,3,0.2,1.0,35.0,1,1.0,0.21060000000011314
423,3,0.2,1.0,35.0,1,1.0,0.3306999999999789
424,3,0.2,1.0,35.0,1,1.0,0.3907000000001517
425,3,0.2,0.0625,-35.0,-1,1.0,0.9075000000000273
426,3,0.2,0.0625,35.0,1,1.0,0.7576000000001386
427,3,0.2,1.0,35.0,1,1.0,0.3809999999998581
428,3,0.2,1.0,-35.0,-1,1.0,0.2577000000001135
429,3,0.2,0.0,35.0,-1,0.0,0.29110000000014224
430,3,0.2,0.25,35.0,1,1.0,0.4678999999998723
431,3,0.2,0.25,35.0,1,1.0,0.511199999999917
432,3,0.2,0.25,35.0,1,1.0,0.5380000000000109
433,3,0.2,0.125,35.0,1,1.0,0.2481000000000222
434,3,0.2,1.0,35.0,1,1.0,0.37820000000010623
435,3,0.2,0.0,35.0,-1,0.0,4.221499999999878
436,3,0.2,1.0,35.0,1,1.0,0.29169999999999163
437,3,0.2,1.0,35.0,1,1.0,0.3550999999999931
438,3,0.2,1.0,35.0,1,1.0,0.22839999999996508
439,3,0.2,0.125,-35.0,-1,1.0,0.26520000000004984
440,3,0.2,0.0,-35.0,-1,1.0,0.3818999999998596
441,3,0.2,0.0625,-35.0,-1,1.0,0.6253999999998996
442,3,0.2,0.0,35.0,-1,0.0,0.43879999999990105
443,3,0.2,0.0,35.0,1,1.0,0.18889999999987594
444,3,0.2,1.0,35.0,1,1.0,0.37239999999997053
445,3,0.2,0.125,35.0,1,1.0,0.5589999999999691
446,3,0.2,0.0625,35.0,1,1.0,0.21579999999971733
447,3,0.2,1.0,35.0,1,1.0,0.2559000000001106
448,3,0.2,0.125,35.0,1,1.0,0.21920000000000073
449,3,0.2,0.0625,35.0,1,1.0,0.2594000000001415
450,3,0.2,0.0625,35.0,1,1.0,0.5061000000000604
451,3,0.2,0.0625,35.0,1,1.0,0.4094000000000051
452,3,0.2,0.0,35.0,1,1.0,2.26299999999992
453,3,0.2,0.0,35.0,-1,0.0,0.45309999999994943
454,3,0.2,0.125,-35.0,-1,1.0,0.32970000000000255
455,3,0.2,0.25,-35.0,-1,1.0,0.35989999999992506
456,3,0.2,0.25,-35.0,-1,1.0,0.2232000000001335
457,3,0.2,0.125,35.0,1,1.0,0.5566000000001168
458,3,0.2,0.25,35.0,1,1.0,0.27329999999983556
459,3,0.2,0.125,35.0,1,1.0,0.43669999999997344
460,3,0.8,1.0,-35.0,-1,1.0,0.19679999999971187
461,3,0.8,0.25,-35.0,-1,1.0,0.733600000000024
462,3,0.8,0.125,-35.0,-1,1.0,0.1835999999998421
463,3,0.8,1.0,35.0,1,1.0,0.23040000000014516
464,3,0.8,0.25,-35.0,-1,1.0,0.24720000000002074
465,3,0.8,1.0,-35.0,-1,1.0,0.23719999999980246
466,3,0.8,1.0,35.0,1,1.0,0.3005999999998039
467,3,0.8,0.25,-35.0,-1,1.0,0.3007000000000062
468,3,0.8,0.25,-35.0,-1,1.0,0.31739999999990687
469,3,0.8,0.0,-35.0,-1,1.0,0.2841000000000804
470,3,0.8,0.0625,-35.0,-1,1.0,0.2277000000001408
471,3,0.8,0.25,35.0,1,1.0,0.24110000000018772
472,3,0.8,0.0,-35.0,-1,1.0,0.28449999999998
473,3,0.8,0.0625,-35.0,1,0.0,0.29789999999979955
474,3,0.8,0.0625,-35.0,-1,1.0,0.47479999999995925
475,3,0.8,0.0,-35.0,-1,1.0,0.3813999999999851
476,3,0.8,1.0,35.0,1,1.0,0.2481999999999971
477,3,0.8,1.0,-35.0,-1,1.0,0.3914999999999509
478,3,0.8,0.25,-35.0,-1,1.0,0.18499999999994543
479,3,0.8,0.0625,-35.0,-1,1.0,0.27490000000011605
480,3,0.8,0.25,-35.0,-1,1.0,0.3850000000002183
481,3,0.8,0.25,-35.0,-1,1.0,0.35179999999991196
482,3,0.8,0.0625,-35.0,-1,1.0,0.2786999999998443
483,3,0.8,1.0,35.0,1,1.0,0.2619999999999436
484,3,0.8,0.0625,35.0,-1,0.0,0.36219999999980246
485,3,0.8,1.0,-35.0,-1,1.0,0.0988999999999578
486,3,0.8,0.125,35.0,-1,0.0,0.22229999999990468
487,3,0.8,0.0625,35.0,1,1.0,0.3388999999999669
488,3,0.8,0.25,-35.0,-1,1.0,0.2422999999998865
489,3,0.8,0.0625,-35.0,-1,1.0,0.3191999999999098
490,3,0.8,0.25,-35.0,-1,1.0,0.14909999999986212
491,3,0.8,0.0,-35.0,-1,1.0,0.3425999999999476
492,3,0.8,1.0,35.0,1,1.0,0.37259999999992033
493,3,0.8,0.25,-35.0,-1,1.0,0.49949999999989814
494,3,0.8,1.0,-35.0,-1,1.0,0.4294999999999618
495,3,0.8,0.125,35.0,1,1.0,0.6565000000000509
496,3,0.8,1.0,-35.0,-1,1.0,0.269800000000032
497,3,0.8,0.0625,-35.0,1,0.0,0.21649999999999636
498,3,0.8,0.0625,-35.0,-1,1.0,0.3000999999999294
499,3,0.8,0.0625,35.0,1,1.0,0.3466999999998279
500,3,0.2,0.25,35.0,1,1.0,0.3468000000000302
501,3,0.2,1.0,-35.0,-1,1.0,0.3135999999997239
502,3,0.2,0.0625,35.0,1,1.0,0.3170000000000073
503,3,0.2,0.0625,35.0,1,1.0,0.2702999999999065
504,3,0.2,0.0,35.0,1,1.0,0.3670999999999367
505,3,0.2,0.125,35.0,1,1.0,0.2704000000001088
506,3,0.2,1.0,35.0,1,1.0,0.2637999999999465
507,3,0.2,0.0625,35.0,1,1.0,0.3038000000001375
508,3,0.2,1.0,35.0,1,1.0,0.26720000000000255
509,3,0.2,0.125,-35.0,-1,1.0,0.25060000000007676
510,3,0.2,0.125,-35.0,-1,1.0,0.4741999999998825
511,3,0.2,0.125,35.0,1,1.0,0.24430000000006658
512,3,0.2,0.0,35.0,1,1.0,0.1775000000000091
513,3,0.2,0.125,-35.0,-1,1.0,0.3409999999998945
514,3,0.2,0.25,35.0,1,1.0,0.3210999999998876
515,3,0.2,1.0,35.0,1,1.0,0.2944999999999709
516,3,0.2,0.25,35.0,-1,0.0,0.47450000000003456
517,3,0.2,0.0,35.0,1,1.0,0.747899999999845
518,3,0.2,0.25,35.0,1,1.0,0.29130000000009204
519,3,0.2,1.0,35.0,1,1.0,0.25139999999987594
520,3,0.2,1.0,-35.0,-1,1.0,0.2780999999999949
521,3,0.2,0.125,35.0,1,1.0,0.42480000000000473
522,3,0.2,0.0,35.0,1,1.0,3.0881999999999152
523,3,0.2,0.125,35.0,1,1.0,0.3649999999997817
524,3,0.2,1.0,35.0,1,1.0,0.28179999999974825
525,3,0.2,0.25,35.0,1,1.0,0.6250999999999749
526,3,0.2,0.0625,35.0,1,1.0,0.3185000000000855
527,3,0.2,0.125,35.0,1,1.0,0.39190000000007785
528,3,0.2,1.0,35.0,1,1.0,0.2418999999999869
529,3,0.2,0.0,35.0,-1,0.0,1.7219999999997526
530,3,0.2,1.0,35.0,1,1.0,0.33539999999993597
531,3,0.2,0.0625,35.0,1,1.0,0.09559999999987667
532,3,0.2,0.25,35.0,1,1.0,0.31219999999984793
533,3,0.2,0.25,35.0,1,1.0,0.2255999999999858
534,3,0.2,0.0,35.0,1,1.0,0.0289989999998852
535,3,0.2,0.0625,35.0,1,1.0,0.4656999999999698
536,3,0.2,0.25,-35.0,-1,1.0,0.34580000000005384
537,3,0.2,0.125,-35.0,-1,1.0,0.4458999999999378
538,3,0.2,0.25,35.0,1,1.0,0.22600000000011278
539,3,0.2,0.0625,35.0,1,1.0,0.3325999999999567
540,3,0.2,0.125,35.0,1,1.0,0.5561000000000149
541,3,0.2,0.0625,35.0,1,1.0,0.3827000000001135
542,3,0.2,0.25,-35.0,-1,1.0,0.38609999999994216
543,3,0.2,0.25,35.0,1,1.0,0.17620000000010805
544,3,0.2,0.125,35.0,1,1.0,0.3830000000000382
545,3,0.2,0.0625,-35.0,-1,1.0,0.40970000000015716
546,3,0.2,1.0,35.0,1,1.0,0.19639999999981228
547,3,0.2,0.0,35.0,1,1.0,0.27319999999986067
548,3,0.2,0.25,35.0,1,1.0,0.36659999999983484
549,3,0.2,0.125,-35.0,1,0.0,0.1934000000001106
550,3,0.2,1.0,-35.0,-1,1.0,0.4233999999999014
551,3,0.2,1.0,35.0,1,1.0,0.3867999999999938
552,3,0.8,0.0,-35.0,-1,1.0,0.5269000000000688
553,3,0.8,0.0625,-35.0,-1,1.0,0.3869999999999436
554,3,0.8,1.0,-35.0,-1,1.0,0.43029999999998836
555,3,0.8,1.0,-35.0,-1,1.0,0.3971000000001368
556,3,0.8,0.25,-35.0,-1,1.0,0.23720000000002983
557,3,0.8,0.0,-35.0,-1,1.0,0.2438999999999396
558,3,0.8,0.0,-35.0,-1,1.0,0.6173000000001139
559,3,0.8,0.25,-35.0,-1,1.0,1.837500000000091
560,3,0.8,0.125,-35.0,-1,1.0,0.49749999999994543
561,3,0.8,0.0625,35.0,1,1.0,0.3374999999998636
562,3,0.8,0.25,-35.0,-1,1.0,0.4442999999998847
563,3,0.8,0.0625,-35.0,1,0.0,0.2742000000000644
564,3,0.8,0.25,35.0,1,1.0,0.30769999999984066
565,3,0.8,0.25,-35.0,1,0.0,0.23779999999987922
566,3,0.8,1.0,-35.0,-1,1.0,0.5180000000000291
567,3,0.8,1.0,35.0,1,1.0,0.3346999999998843
568,3,0.8,0.25,-35.0,-1,1.0,0.3347989999999754
569,3,0.8,0.25,-35.0,-1,1.0,0.30480000000011387
570,3,0.8,1.0,-35.0,-1,1.0,0.5781000000001768
571,3,0.8,0.0,35.0,-1,0.0,0.7816000000000258
572,3,0.8,0.25,-35.0,-1,1.0,0.46849999999994907
573,3,0.8,0.125,-35.0,1,0.0,0.4149999999999636
574,3,0.8,0.0,-35.0,-1,1.0,0.4918999999999869
575,3,0.8,0.0,35.0,1,1.0,0.28510000000005675
576,3,0.8,0.25,-35.0,-1,1.0,0.4118999999998323
577,3,0.8,0.25,-35.0,-1,1.0,0.4985999999998967
578,3,0.8,0.25,35.0,-1,0.0,0.21869999999989886
579,3,0.8,0.125,35.0,1,1.0,0.18880000000012842
580,3,0.8,0.25,35.0,1,1.0,0.3554999999998927
581,3,0.8,0.125,-35.0,-1,1.0,0.205600000000004
582,3,0.2,0.0,-35.0,1,0.0,0.415599999999813
583,3,0.2,0.0625,35.0,1,1.0,0.4457999999999629
584,3,0.2,0.25,35.0,1,1.0,0.195699999999988
585,3,0.2,0.0,35.0,1,1.0,3.5891999999998916
586,3,0.2,0.25,35.0,1,1.0,0.4760000000001128
587,3,0.2,0.0625,35.0,1,1.0,0.45600000000013097
588,3,0.2,0.125,35.0,1,1.0,0.26939999999990505
589,3,0.2,1.0,35.0,1,1.0,0.3626999999999043
590,3,0.2,0.0625,35.0,1,1.0,0.26289999999994507
591,3,0.2,0.125,35.0,1,1.0,0.2062999999998283
592,3,0.2,0.125,35.0,1,1.0,0.2463990000001104
593,3,0.2,1.0,35.0,1,1.0,0.22309999999993124
594,3,0.2,0.0,35.0,1,1.0,0.29979999999977736
595,3,0.2,0.0625,35.0,-1,0.0,0.509900000000016
596,3,0.2,1.0,35.0,1,1.0,0.16999999999984539
597,3,0.2,0.0625,35.0,-1,0.0,0.29670000000010077
598,3,0.2,0.25,35.0,1,1.0,0.21010000000001128
599,3,0.2,0.0625,35.0,1,1.0,0.7834000000002561
600,3,0.2,0.125,35.0,1,1.0,0.3202000000001135
601,3,0.2,0.25,35.0,1,1.0,0.18699999999989814
602,3,0.2,0.125,35.0,1,1.0,0.2602999999999156
603,3,0.2,0.25,35.0,1,1.0,0.38030000000003383
604,3,0.2,1.0,35.0,1,1.0,0.23710000000005493
605,3,0.2,0.0625,35.0,-1,0.0,3.1471999999998843
606,3,0.2,0.0625,35.0,1,1.0,2.8505999999997584
607,3,0.2,0.0625,35.0,1,1.0,0.7274999999997362
608,3,0.2,0.125,35.0,1,1.0,0.4275000000000091
609,3,0.2,0.0625,35.0,1,1.0,1.4110000000000582
610,3,0.2,0.125,35.0,1,1.0,0.3343999999999596
611,3,0.2,0.0625,-35.0,1,0.0,0.36770000000001346
612,3,0.2,1.0,35.0,1,1.0,0.2910999999996875
613,3,0.2,0.0625,-35.0,1,0.0,0.161200000000008
614,3,0.2,0.25,35.0,1,1.0,0.2812999999996464
615,3,0.2,0.25,35.0,1,1.0,0.39800000000013824
616,3,0.8,0.25,-35.0,-1,1.0,0.6913999999997031
617,3,0.8,0.125,-35.0,-1,1.0,1.6179999999999382
618,3,0.8,1.0,-35.0,-1,1.0,3.4614999999998872
619,3,0.8,0.0625,35.0,-1,0.0,0.2750999999998385
620,3,0.8,0.0625,-35.0,1,0.0,0.541899999999714
621,3,0.8,0.125,35.0,1,1.0,2.9151990000004844
622,3,0.8,0.25,35.0,1,1.0,0.4386999999996988
623,3,0.8,0.0625,-35.0,-1,1.0,3.4120999999995547
624,3,0.8,0.125,-35.0,-1,1.0,1.3688990000000558
625,3,0.8,0.25,-35.0,-1,1.0,2.015599999999722
626,3,0.8,0.0,-35.0,-1,1.0,1.4123999999997068
627,3,0.8,0.125,35.0,1,1.0,14.135800000000017
628,3,0.8,1.0,-35.0,-1,1.0,0.6727999999998246
629,3,0.8,0.125,-35.0,-1,1.0,0.2829999999999018
630,3,0.8,0.0625,35.0,-1,0.0,0.8063000000001921
631,3,0.8,0.125,-35.0,-1,1.0,0.8730000000000473
632,3,0.8,1.0,-35.0,-1,1.0,0.5697999999997592
633,3,0.8,1.0,-35.0,-1,1.0,0.4598000000000866
634,3,0.8,0.25,35.0,1,1.0,0.5331999999998516
635,3,0.8,0.25,-35.0,-1,1.0,0.606600000000526
636,3,0.8,0.125,-35.0,1,0.0,0.3500000000003638
637,3,0.8,0.25,-35.0,-1,1.0,0.4434000000001106
638,3,0.8,0.0625,-35.0,-1,1.0,0.43010000000003856
639,3,0.8,0.25,35.0,1,1.0,0.2270000000003165
640,3,0.8,1.0,-35.0,-1,1.0,0.29359999999996944
641,3,0.8,1.0,-35.0,-1,1.0,1.0836999999996806
642,3,0.8,0.0625,35.0,1,1.0,0.22369999999955326
643,3,0.8,0.25,-35.0,-1,1.0,0.783799999999701
644,3,0.8,0.25,35.0,1,1.0,0.20379999999977372
645,3,0.8,0.0625,-35.0,1,0.0,0.21059999999988577
646,3,0.8,1.0,-35.0,-1,1.0,0.5639999999998508
647,3,0.8,0.125,-35.0,-1,1.0,0.7573999999999614
648,3,0.8,1.0,-35.0,-1,1.0,0.4175000000000182
649,3,0.8,0.0625,-35.0,-1,1.0,5.264199999999619
650,3,0.8,0.25,-35.0,-1,1.0,0.3342999999999847
651,3,0.8,0.0625,-35.0,-1,1.0,5.404500000000098
652,3,0.8,1.0,-35.0,-1,1.0,0.28119999999989886
653,3,0.8,0.125,-35.0,-1,1.0,0.4580000000000837
654,3,0.8,1.0,-35.0,-1,1.0,0.5280999999999949
655,3,0.8,1.0,-35.0,-1,1.0,0.3314999999997781
656,3,0.8,0.125,-35.0,-1,1.0,3.731499999999869
657,3,0.8,1.0,-35.0,-1,1.0,0.378400000000056
658,3,0.8,0.125,35.0,-1,0.0,0.4151000000001659
659,3,0.8,0.125,-35.0,-1,1.0,0.3985000000002401
660,3,0.8,1.0,-35.0,-1,1.0,0.40519899999981135
661,3,0.8,0.0625,-35.0,-1,1.0,0.32189999999991414
662,3,0.8,0.0,-35.0,1,0.0,0.358600000000024
663,3,0.8,1.0,-35.0,-1,1.0,0.2919999999999163
664,3,0.8,0.0625,-35.0,-1,1.0,3.665399999999863
665,3,0.8,0.0625,-35.0,-1,1.0,0.2856000000001586
666,3,0.8,0.0625,35.0,1,1.0,3.122200000000248
667,3,0.8,0.25,-35.0,-1,1.0,0.5390999999999622
668,3,0.8,0.0625,-35.0,1,0.0,0.385899999999765
669,3,0.8,0.25,-35.0,-1,1.0,0.30260000000043874
670,3,0.8,0.25,-35.0,-1,1.0,0.3125999999997475
671,3,0.8,0.0625,-35.0,-1,1.0,0.2593000000001666
672,3,0.8,0.25,35.0,-1,0.0,0.21929999999974825
673,3,0.8,0.125,-35.0,-1,1.0,0.2460999999998421
674,3,0.8,0.25,35.0,1,1.0,0.3896999999997206
675,3,0.8,0.25,-35.0,-1,1.0,0.4295999999999367
676,3,0.8,0.0625,35.0,-1,0.0,2.439600000000155
677,3,0.8,1.0,35.0,1,1.0,0.2397000000000844
678,3,0.8,0.25,35.0,1,1.0,0.21980000000030486
679,3,0.8,0.0625,-35.0,-1,1.0,0.32979999999997744
680,3,0.8,0.25,-35.0,-1,1.0,0.23329999999987194
681,3,0.8,1.0,-35.0,-1,1.0,0.2798999999999978
682,3,0.8,0.0,35.0,1,1.0,0.3900000000003274
683,3,0.8,1.0,35.0,1,1.0,0.22329999999965366
684,3,0.8,1.0,35.0,1,1.0,0.24019999999973152
685,3,0.8,0.25,-35.0,-1,1.0,0.1433990000000449
686,3,0.8,0.125,-35.0,-1,1.0,0.4268999999994776
687,3,0.8,1.0,35.0,1,1.0,0.24019999999973152
688,3,0.8,0.0,-35.0,-1,1.0,0.19699999999966167
689,3,0.8,1.0,35.0,1,1.0,0.2537000000002081
690,3,0.8,0.25,-35.0,-1,1.0,0.9039000000002488
691,3,0.8,0.25,-35.0,1,0.0,0.20390000000043074
692,3,0.8,1.0,-35.0,-1,1.0,0.40399999999999636
693,3,0.8,1.0,-35.0,-1,1.0,0.27400000000034197
694,3,0.8,0.25,35.0,1,1.0,0.3306999999999789
695,3,0.8,0.25,-35.0,-1,1.0,0.3142000000002554
696,3,0.8,0.0,-35.0,-1,1.0,0.5441000000000713
697,3,0.8,0.0625,-35.0,-1,1.0,2.404200000000401
698,3,0.8,0.0625,-35.0,-1,1.0,0.6109999999998763
699,3,0.8,0.25,-35.0,-1,1.0,0.3510999999998603
700,3,0.8,0.0625,-35.0,-1,1.0,4.974499999999807
701,3,0.8,0.25,-35.0,-1,1.0,0.3546000000001186
702,3,0.8,0.125,-35.0,-1,1.0,0.35809999999992215
703,3,0.8,0.0,-35.0,1,0.0,0.7814000000003034
704,3,0.8,0.25,-35.0,-1,1.0,0.29160000000001673
705,3,0.8,1.0,-35.0,-1,1.0,0.25149999999985084
706,3,0.8,0.0625,35.0,1,1.0,0.39489999999977954
707,3,0.8,0.125,-35.0,1,0.0,0.20850000000018554
708,3,0.8,0.0625,-35.0,1,0.0,0.4250999999999294
709,3,0.8,0.25,-35.0,-1,1.0,0.25189999999975043
710,3,0.8,0.25,-35.0,-1,1.0,0.2719999999999345
711,3,0.8,0.25,35.0,1,1.0,0.441899999999805
712,3,0.8,1.0,-35.0,-1,1.0,0.34529899999961344
713,3,0.8,0.0,35.0,-1,0.0,10.538700000000063
714,3,0.8,0.25,-35.0,-1,1.0,3.9457000000002154
715,3,0.2,0.25,-35.0,-1,1.0,0.24909999999999854
716,3,0.2,0.0625,35.0,1,1.0,0.7592000000004191
717,3,0.2,0.25,35.0,1,1.0,0.21929999999974825
718,3,0.2,0.0625,-35.0,-1,1.0,0.4159999999997126
719,3,0.2,0.25,-35.0,-1,1.0,6.655999999999949
720,3,0.2,0.125,35.0,1,1.0,0.36629999999968277
721,3,0.2,0.0625,35.0,1,1.0,0.5896999999999935
722,3,0.2,0.0625,35.0,1,1.0,2.6897000000003572
723,3,0.2,0.125,35.0,1,1.0,0.18979999999965003
724,3,0.2,0.0625,35.0,1,1.0,0.36990000000014334
725,3,0.2,0.25,35.0,1,1.0,0.25999999999976353
726,3,0.2,0.25,35.0,1,1.0,0.3533999999999651
727,3,0.2,0.25,35.0,1,1.0,0.2434000000002925
728,3,0.2,0.125,35.0,1,1.0,0.3533999999999651
729,3,0.2,0.0,35.0,1,1.0,0.316899999999805
730,3,0.2,0.25,35.0,1,1.0,0.28690000000005966
731,3,0.2,0.0625,35.0,1,1.0,0.26030000000037035
732,3,0.2,1.0,35.0,1,1.0,0.223700000000008
733,3,0.2,0.125,35.0,1,1.0,0.4070000000001528
734,3,0.2,0.0625,35.0,1,1.0,0.6004999999995562
735,3,0.2,1.0,35.0,1,1.0,0.25709999999980937
736,3,0.2,0.125,35.0,1,1.0,0.27719999999999345
737,3,0.2,0.0625,35.0,1,1.0,2.4471999999996115
738,3,0.2,0.0,35.0,1,1.0,4.134100000000217
739,3,0.2,0.125,35.0,1,1.0,0.2209000000002561
740,3,0.2,0.0,35.0,1,1.0,0.8442000000000007
741,3,0.2,1.0,-35.0,-1,1.0,0.2909000000004198
742,3,0.2,1.0,35.0,1,1.0,0.2310010000001057
743,3,0.2,1.0,35.0,1,1.0,0.2677009999997608
744,3,0.2,1.0,-35.0,-1,1.0,0.29110099999979866
745,3,0.2,1.0,35.0,1,1.0,0.23120099999960075
746,3,0.2,0.125,-35.0,-1,1.0,0.481300999999803
747,3,0.2,0.25,35.0,1,1.0,0.24460099999987506
748,3,0.2,1.0,-35.0,-1,1.0,0.27130099999976665
749,3,0.2,0.125,35.0,-1,0.0,3.2648009999998067
750,3,0.2,1.0,-35.0,-1,1.0,0.35160099999984595
751,3,0.2,0.0625,35.0,1,1.0,0.6716010000000097
752,3,0.2,0.125,-35.0,-1,1.0,6.1150009999996655
753,3,0.2,1.0,-35.0,-1,1.0,0.27850100000023303
754,3,0.2,1.0,35.0,1,1.0,0.30190100000027087
755,3,0.2,0.125,35.0,1,1.0,0.4286010000000715
756,3,0.2,1.0,35.0,1,1.0,0.26540100000056555
757,3,0.2,0.25,35.0,1,1.0,0.3155010000000402
758,3,0.2,0.25,35.0,1,1.0,0.38550100000020393
759,3,0.2,0.125,35.0,1,1.0,0.2855010000002949
760,3,0.2,0.125,-35.0,1,0.0,4.125500999999986
761,3,0.2,0.25,35.0,-1,0.0,4.522501000000375
762,3,0.2,1.0,35.0,1,1.0,0.3159009999999398
763,3,0.2,0.0625,35.0,1,1.0,0.37270100000023376
764,3,0.2,1.0,35.0,1,1.0,0.3093010000002323
765,3,0.2,1.0,35.0,1,1.0,0.31940099999974336
766,3,0.2,0.0,35.0,-1,0.0,6.5262009999996735
767,3,0.2,0.0625,35.0,1,1.0,0.2997009999994589
768,3,0.2,0.0,-35.0,1,0.0,0.6297009999998409
769,3,0.2,0.0625,35.0,1,1.0,0.2798010000001341
770,3,0.2,0.125,35.0,1,1.0,5.96650099999988
771,3,0.2,1.0,35.0,1,1.0,0.2134009999999762
772,3,0.2,1.0,35.0,1,1.0,0.24010099999986778
773,3,0.2,0.125,35.0,1,1.0,0.4836009999999078
774,3,0.2,0.25,35.0,1,1.0,3.2903009999999995
775,3,0.2,0.0625,-35.0,1,0.0,1.9903010000002723
776,3,0.2,0.0625,-35.0,-1,1.0,3.3838009999999485
777,3,0.2,1.0,35.0,1,1.0,0.5739009999997506
778,3,0.2,0.0625,-35.0,-1,1.0,0.527400999999827
779,3,0.2,0.125,35.0,1,1.0,0.2574009999998452
780,3,0.2,0.25,35.0,1,1.0,0.22410100000024613
781,3,0.2,0.25,35.0,1,1.0,0.22410100000024613
782,3,0.2,1.0,35.0,1,1.0,0.2409010000001217
