trial_num,session_num,stim_probability_left,contrast,position,response_choice,trial_correct,reaction_time
1,1,0.5,0.125,35.0,1,1.0,0.4105000000000003
2,1,0.5,0.0625,-35.0,-1,1.0,0.39669999999999916
3,1,0.5,0.125,-35.0,-1,1.0,0.5786999999999995
4,1,0.5,0.0625,35.0,-1,0.0,0.7250999999999994
5,1,0.5,1.0,-35.0,-1,1.0,0.2873000000000019
6,1,0.5,0.25,35.0,-1,0.0,0.48870000000000147
7,1,0.5,0.0625,-35.0,-1,1.0,0.23910000000000053
8,1,0.5,0.25,35.0,1,1.0,0.28619999999999735
9,1,0.5,0.125,-35.0,-1,1.0,5.582599999999996
10,1,0.5,1.0,35.0,1,1.0,0.23470000000000368
11,1,0.5,0.0625,35.0,1,1.0,0.17009999999999792
12,1,0.5,0.0,-35.0,-1,1.0,0.4089999999999989
13,1,0.5,0.0,35.0,-1,0.0,0.3160000000000025
14,1,0.5,0.25,35.0,1,1.0,0.2120999999999995
15,1,0.5,0.0625,-35.0,-1,1.0,0.22700000000000387
16,1,0.5,0.25,35.0,1,1.0,0.24909999999999144
17,1,0.5,0.125,35.0,-1,0.0,0.2972999999999999
18,1,0.5,0.125,-35.0,-1,1.0,0.3183000000000078
19,1,0.5,1.0,-35.0,-1,1.0,0.411200000000008
20,1,0.5,0.125,35.0,1,1.0,1.396799999999999
21,1,0.5,0.25,-35.0,-1,1.0,0.44490000000000407
22,1,0.5,1.0,35.0,1,1.0,0.2091000000000065
23,1,0.5,1.0,35.0,1,1.0,0.2283000000000044
24,1,0.5,1.0,35.0,1,1.0,0.7841999999999985
25,1,0.5,1.0,-35.0,-1,1.0,0.41390000000001237
26,1,0.5,0.25,35.0,1,1.0,0.19089999999999918
27,1,0.5,0.125,35.0,1,1.0,0.4211999999999989
28,1,0.5,0.25,35.0,1,1.0,1.0153999999999996
29,1,0.5,0.25,35.0,1,1.0,1.0317000000000007
30,1,0.5,0.0,35.0,-1,0.0,0.40920000000001266
31,1,0.5,1.0,-35.0,-1,1.0,0.4328000000000145
32,1,0.5,0.0625,-35.0,-1,1.0,0.41840000000000543
33,1,0.5,0.25,35.0,1,1.0,0.23490000000001032
34,1,0.5,1.0,35.0,-1,0.0,0.5185000000000031
35,1,0.5,0.25,-35.0,-1,1.0,0.6051000000000073
36,1,0.5,1.0,35.0,1,1.0,0.2150000000000034
37,1,0.5,0.0625,35.0,-1,0.0,6.0552000000000135
38,1,0.5,0.0625,-35.0,1,0.0,0.1897999999999911
39,1,0.5,1.0,-35.0,-1,1.0,0.4259999999999877
40,1,0.5,0.25,35.0,-1,0.0,0.33619999999999095
41,1,0.5,0.0625,-35.0,-1,1.0,7.998599999999982
42,1,0.5,0.25,35.0,1,1.0,0.4590999999999781
43,1,0.5,1.0,35.0,1,1.0,1.0549999999999784
44,1,0.5,0.125,35.0,1,1.0,1.30559999999997
45,1,0.5,0.0,-35.0,-1,1.0,1.0842999999999847
46,1,0.5,0.125,35.0,-1,0.0,3.0627000000000066
47,1,0.5,0.0625,-35.0,-1,1.0,2.5619000000000085
48,1,0.5,1.0,-35.0,-1,1.0,0.2845999999999833
49,1,0.5,0.0625,35.0,-1,0.0,0.3130999999999915
50,1,0.5,0.0625,35.0,1,1.0,0.24399999999999977
51,1,0.5,0.0625,-35.0,-1,1.0,0.3007000000000062
52,1,0.5,1.0,35.0,1,1.0,0.202699999999993
53,1,0.5,0.0,35.0,-1,0.0,0.22919999999999163
54,1,0.5,0.125,-35.0,1,0.0,0.19319999999996185
55,1,0.5,1.0,35.0,1,1.0,0.1677999999999713
56,1,0.5,0.125,-35.0,-1,1.0,0.29849999999999
57,1,0.5,0.125,35.0,1,1.0,0.2557999999999936
58,1,0.5,0.25,-35.0,-1,1.0,0.6039000000000101
59,1,0.5,0.25,35.0,1,1.0,0.2494999999999834
60,1,0.5,0.125,-35.0,-1,1.0,0.6663999999999817
61,1,0.5,0.0625,35.0,1,1.0,0.25219999999998777
62,1,0.5,1.0,35.0,1,1.0,0.2010999999999683
63,1,0.5,1.0,35.0,1,1.0,0.4152999999999736
64,1,0.5,1.0,35.0,1,1.0,7.858499999999992
65,1,0.5,0.125,-35.0,-1,1.0,0.8328999999999951
66,1,0.5,0.0625,-35.0,-1,1.0,0.5870999999999924
67,1,0.5,0.25,35.0,-1,0.0,0.4759999999999991
68,1,0.5,0.0,-35.0,-1,1.0,0.8319000000000187
69,1,0.5,0.125,-35.0,-1,1.0,0.2604000000000042
70,1,0.5,0.0625,-35.0,-1,1.0,0.484299999999962
71,1,0.5,0.125,-35.0,-1,1.0,0.44189999999997553
72,1,0.5,0.0625,35.0,-1,0.0,0.617999999999995
73,1,0.5,0.0625,-35.0,-1,1.0,0.56899999999996
74,1,0.5,1.0,-35.0,-1,1.0,1.0209999999999582
75,1,0.5,0.125,-35.0,-1,1.0,4.195899999999995
76,1,0.5,1.0,-35.0,-1,1.0,0.290300000000002
77,1,0.5,0.0625,35.0,-1,0.0,0.411200000000008
78,1,0.5,1.0,-35.0,-1,1.0,0.30049999999999955
79,1,0.5,0.25,-35.0,-1,1.0,0.43559999999996535
80,1,0.5,0.125,-35.0,-1,1.0,0.3795000000000073
81,1,0.5,0.25,-35.0,-1,1.0,0.4647000000000503
82,1,0.5,0.125,35.0,-1,0.0,0.7046000000000276
83,1,0.5,0.0,35.0,-1,0.0,0.5474999999999568
84,1,0.5,1.0,35.0,1,1.0,0.5706000000000131
85,1,0.5,0.25,-35.0,-1,1.0,4.825799999999958
86,1,0.5,0.25,35.0,-1,0.0,0.4685999999999808
87,1,0.5,0.0625,35.0,-1,0.0,0.3097999999999388
88,1,0.5,0.25,-35.0,-1,1.0,0.39939999999995734
89,1,0.5,1.0,-35.0,-1,1.0,0.39229999999997744
90,1,0.5,1.0,35.0,1,1.0,0.28309999999999036
91,1,0.2,0.0625,35.0,-1,0.0,0.5943000000000325
92,1,0.2,0.125,35.0,1,1.0,0.1893000000000029
93,1,0.2,0.0625,35.0,-1,0.0,0.37409999999999854
94,1,0.2,0.125,-35.0,1,0.0,3.786699999999996
95,1,0.2,1.0,-35.0,-1,1.0,0.472500000000025
96,1,0.2,0.125,35.0,-1,0.0,0.7116999999999507
97,1,0.2,0.25,35.0,1,1.0,0.2259999999999991
98,1,0.2,0.25,35.0,1,1.0,0.5608000000000288
99,1,0.2,0.0625,-35.0,1,0.0,0.5400000000000205
100,1,0.2,0.125,35.0,1,1.0,0.40809999999999036
101,1,0.2,0.0625,35.0,-1,0.0,3.2533999999999423
102,1,0.2,0.25,35.0,1,1.0,0.27080000000000837
103,1,0.2,0.125,35.0,1,1.0,0.6480000000000246
104,1,0.2,0.125,35.0,1,1.0,0.8380000000000223
105,1,0.2,0.125,-35.0,-1,1.0,33.06909999999999
106,1,0.2,0.0,35.0,-1,0.0,0.4371999999999616
107,1,0.2,0.125,35.0,1,1.0,0.17379999999997153
108,1,0.2,0.125,35.0,1,1.0,0.1856000000000222
109,1,0.2,0.0625,35.0,1,1.0,0.22610000000003083
110,1,0.2,0.125,-35.0,-1,1.0,0.8696999999999662
111,1,0.2,0.125,35.0,1,1.0,0.18490000000002738
112,1,0.2,0.0625,35.0,1,1.0,0.7837999999999283
113,1,0.2,1.0,-35.0,-1,1.0,0.7717999999999847
114,1,0.2,0.25,-35.0,-1,1.0,5.368300000000033
115,1,0.2,1.0,35.0,1,1.0,0.2575999999999681
116,1,0.2,0.0625,35.0,1,1.0,0.4686999999999557
117,1,0.2,1.0,35.0,1,1.0,0.24929999999994834
118,1,0.2,0.25,35.0,1,1.0,0.2477000000000089
119,1,0.2,0.25,35.0,1,1.0,0.210899999999981
120,1,0.2,1.0,35.0,1,1.0,0.22519999999997253
121,1,0.2,1.0,-35.0,-1,1.0,8.449399999999969
122,1,0.2,0.125,35.0,1,1.0,0.26710000000002765
123,1,0.2,0.0625,35.0,1,1.0,7.030300000000125
124,1,0.2,0.25,35.0,1,1.0,0.18160000000011678
125,1,0.2,0.0625,35.0,1,1.0,0.5645000000000664
126,1,0.2,0.125,35.0,1,1.0,0.372600000000034
127,1,0.2,1.0,35.0,1,1.0,0.19190000000003238
128,1,0.2,0.125,35.0,1,1.0,0.3630000000001701
129,1,0.2,0.25,35.0,1,1.0,0.27090000000009695
130,1,0.2,0.125,35.0,1,1.0,0.17410000000006676
131,1,0.2,1.0,-35.0,-1,1.0,1.1217000000000326
132,1,0.2,0.0625,35.0,1,1.0,0.21829999999999927
133,1,0.2,0.0625,35.0,1,1.0,1.9371000000001004
134,1,0.2,0.25,35.0,1,1.0,0.2375000000000682
135,1,0.2,1.0,35.0,1,1.0,0.20000000000004547
136,1,0.2,0.25,35.0,1,1.0,0.46910000000002583
137,1,0.2,0.125,35.0,1,1.0,0.5953000000000657
138,1,0.2,0.125,35.0,1,1.0,0.22790000000009059
139,1,0.2,0.0625,35.0,1,1.0,0.24620000000004438
140,1,0.2,0.0625,35.0,1,1.0,0.5650000000000546
141,1,0.2,0.0625,35.0,1,1.0,10.368500000000154
142,1,0.2,1.0,35.0,1,1.0,0.2057999999999538
143,1,0.2,1.0,35.0,1,1.0,0.22260000000005675
144,1,0.2,0.0625,35.0,-1,0.0,14.698499999999967
145,1,0.8,0.0625,35.0,1,1.0,0.18980099999998856
146,1,0.8,0.25,-35.0,-1,1.0,3.531101000000035
147,1,0.8,0.0,35.0,-1,0.0,5.348101000000042
148,1,0.8,0.25,-35.0,-1,1.0,0.32530099999996764
149,1,0.8,1.0,-35.0,-1,1.0,0.4089010000001281
150,1,0.8,0.25,-35.0,-1,1.0,0.30020100000012917
151,1,0.8,0.125,-35.0,-1,1.0,5.826401000000033
152,1,0.8,0.25,-35.0,-1,1.0,3.1193009999999504
153,1,0.8,0.0,-35.0,-1,1.0,3.190001000000052
154,1,0.8,0.0,35.0,-1,0.0,0.277800999999954
155,1,0.8,1.0,35.0,1,1.0,0.22570100000018556
156,1,0.8,1.0,-35.0,-1,1.0,0.611201000000051
157,1,0.8,0.25,35.0,1,1.0,0.2751010000000633
158,1,0.8,0.125,-35.0,-1,1.0,0.5630010000000993
159,1,0.8,0.0,35.0,-1,0.0,0.5619010000000344
160,1,0.8,0.0625,-35.0,-1,1.0,1.3672010000001364
161,1,0.8,0.0625,-35.0,-1,1.0,0.6041010000000142
162,1,0.8,0.125,-35.0,-1,1.0,0.42670099999998
163,1,0.8,1.0,35.0,1,1.0,0.23550100000011298
164,1,0.8,0.125,-35.0,-1,1.0,0.4407010000001037
165,1,0.8,0.0625,-35.0,-1,1.0,0.46830099999999675
166,1,0.8,1.0,-35.0,-1,1.0,0.6534009999999171
167,1,0.8,1.0,-35.0,-1,1.0,0.4251010000000406
168,1,0.8,0.25,-35.0,-1,1.0,0.4589009999999689
169,1,0.8,0.0625,-35.0,-1,1.0,0.5284010000000308
170,1,0.8,0.25,-35.0,-1,1.0,0.4953010000000404
171,1,0.8,0.125,-35.0,-1,1.0,1.046000999999933
172,1,0.8,0.0625,35.0,1,1.0,0.3055010000000493
173,1,0.8,0.25,-35.0,-1,1.0,0.44970100000000457
174,1,0.8,1.0,-35.0,-1,1.0,0.44190099999991617
175,1,0.8,0.125,-35.0,-1,1.0,0.4268009999999549
176,1,0.8,0.0625,-35.0,-1,1.0,0.3707010000000537
177,1,0.8,0.0,-35.0,-1,1.0,0.5456010000000333
178,1,0.8,0.125,35.0,1,1.0,0.4162010000001146
179,1,0.8,0.25,-35.0,-1,1.0,0.5927010000000337
180,1,0.8,0.125,35.0,1,1.0,0.3565010000000939
181,1,0.8,1.0,35.0,1,1.0,0.24580100000002858
182,1,0.8,0.0,-35.0,-1,1.0,0.7760010000000648
183,1,0.8,1.0,-35.0,-1,1.0,3.733601000000135
184,1,0.8,0.0625,-35.0,1,0.0,0.6331010000000106
185,1,0.8,0.125,-35.0,-1,1.0,0.4510010000000193
186,1,0.8,1.0,-35.0,-1,1.0,0.47420099999999366
187,1,0.8,0.25,-35.0,-1,1.0,0.36680100000012317
188,1,0.8,0.0,35.0,-1,0.0,0.768301000000065
189,1,0.8,0.125,-35.0,-1,1.0,0.39760100000000875
190,1,0.8,1.0,-35.0,-1,1.0,0.44410100000004604
191,1,0.8,0.125,-35.0,-1,1.0,0.38340100000004895
192,1,0.8,0.125,-35.0,-1,1.0,0.4696010000000115
193,1,0.8,0.125,-35.0,-1,1.0,0.5221010000000206
194,1,0.8,1.0,-35.0,-1,1.0,0.34900100000004386
195,1,0.8,1.0,-35.0,-1,1.0,0.6052010000000791
196,1,0.8,0.0625,35.0,-1,0.0,0.36920099999997547
197,1,0.8,0.0625,-35.0,-1,1.0,0.4010010000000648
198,1,0.8,0.25,-35.0,-1,1.0,0.3402009999999791
199,1,0.8,0.0,-35.0,-1,1.0,0.3609010000000126
200,1,0.8,1.0,-35.0,-1,1.0,0.36530100000004495
201,1,0.8,1.0,-35.0,-1,1.0,0.7439010000000508
202,1,0.8,0.125,-35.0,-1,1.0,0.24910099999999602
203,1,0.8,0.125,-35.0,-1,1.0,0.2473009999999931
204,1,0.8,0.25,35.0,1,1.0,0.27690099999995255
205,1,0.8,0.0625,35.0,1,1.0,0.7320010000000821
206,1,0.8,0.125,-35.0,1,0.0,0.674301000000014
207,1,0.8,1.0,-35.0,1,0.0,17.735600999999974
208,1,0.8,0.0625,-35.0,1,0.0,9.994301000000064
209,1,0.8,0.0625,-35.0,1,0.0,0.7247009999999818
210,1,0.8,0.125,35.0,1,1.0,0.21820100000002185
211,1,0.8,0.25,-35.0,1,0.0,0.2008010000000695
212,1,0.2,0.0625,35.0,1,1.0,0.41610100000002603
213,1,0.2,0.25,35.0,1,1.0,0.23600100000010116
214,1,0.2,0.25,35.0,1,1.0,14.493501000000037
215,1,0.2,0.0625,35.0,1,1.0,2.168700999999942
216,1,0.2,0.25,35.0,1,1.0,0.25670100000002094
217,1,0.2,0.0625,-35.0,-1,1.0,9.392301000000089
218,1,0.2,1.0,35.0,1,1.0,0.24640100000010534
219,1,0.2,0.0625,35.0,1,1.0,5.262000999999941
220,1,0.2,0.0625,-35.0,1,0.0,0.19820100000004004
221,1,0.2,1.0,35.0,1,1.0,1.051101000000017
222,1,0.2,0.125,35.0,-1,0.0,3.2967009999999846
223,1,0.2,0.25,35.0,1,1.0,0.2356009999999742
224,1,0.2,0.0,35.0,-1,0.0,4.761001000000078
225,1,0.2,1.0,35.0,-1,0.0,1.8352009999999837
226,1,0.2,0.25,-35.0,-1,1.0,0.3546010000001161
227,1,0.2,0.125,35.0,1,1.0,4.090800999999942
228,1,0.2,0.0625,35.0,-1,0.0,5.5454010000000835
229,1,0.2,0.0,-35.0,1,0.0,0.2960010000000466
230,1,0.2,0.0,35.0,-1,0.0,0.5830010000000811
231,1,0.2,0.125,35.0,1,1.0,0.27660100000014154
232,1,0.2,0.25,-35.0,-1,1.0,0.7768009999999776
233,1,0.2,0.25,35.0,1,1.0,0.4870009999999638
234,1,0.2,0.125,35.0,1,1.0,0.22720099999992271
235,1,0.2,0.0625,35.0,1,1.0,8.940801000000192
236,1,0.2,0.25,35.0,1,1.0,0.8982010000001992
237,1,0.2,0.0625,-35.0,1,0.0,7.535200999999915
238,1,0.2,1.0,35.0,1,1.0,2.4693009999998594
239,1,0.2,0.25,-35.0,-1,1.0,8.779700999999932
240,1,0.2,1.0,35.0,1,1.0,0.2237009999998918
241,1,0.2,0.125,35.0,1,1.0,0.2272010000001501
242,1,0.2,1.0,35.0,1,1.0,0.8641010000001188
243,1,0.2,1.0,35.0,1,1.0,1.461001000000124
244,1,0.2,0.25,-35.0,-1,1.0,5.651401000000078
245,1,0.2,0.0625,35.0,-1,0.0,0.6652009999997972
246,1,0.2,1.0,35.0,1,1.0,0.2256009999998696
247,1,0.2,0.125,35.0,1,1.0,0.2292010000001028
248,1,0.2,0.25,35.0,1,1.0,0.15930100000014136
249,1,0.2,1.0,35.0,1,1.0,0.21290099999987433
250,1,0.2,1.0,35.0,1,1.0,0.176401000000169
251,1,0.2,0.0625,35.0,1,1.0,0.16320100000007187
252,1,0.2,0.0,-35.0,1,0.0,0.1634009999997943
253,1,0.8,0.25,-35.0,-1,1.0,0.39370099999996455
254,1,0.8,0.125,-35.0,1,0.0,0.20390100000008715
255,1,0.8,0.25,-35.0,-1,1.0,0.46420100000000275
256,1,0.8,0.0625,-35.0,-1,1.0,0.36780099999987215
257,1,0.8,0.0625,-35.0,-1,1.0,0.521300999999994
258,1,0.8,0.25,-35.0,-1,1.0,0.7215009999999893
259,1,0.8,0.0625,-35.0,-1,1.0,0.3117010000000846
260,1,0.8,0.25,-35.0,-1,1.0,0.9155009999999493
261,1,0.8,0.125,-35.0,-1,1.0,5.672301000000061
262,1,0.8,0.25,-35.0,-1,1.0,0.3396010000001297
263,1,0.8,0.0625,-35.0,-1,1.0,0.4631009999998241
264,1,0.8,0.0625,-35.0,-1,1.0,0.40340100000003076
265,1,0.8,1.0,-35.0,-1,1.0,0.60020099999997
266,1,0.8,1.0,-35.0,-1,1.0,0.3238010000002305
267,1,0.8,0.125,-35.0,-1,1.0,0.310600999999906
268,1,0.8,0.0,-35.0,1,0.0,0.2709010000000944
269,1,0.8,1.0,-35.0,-1,1.0,0.38780100000008133
270,1,0.8,1.0,-35.0,-1,1.0,0.25810100000012426
271,1,0.8,0.0625,-35.0,-1,1.0,0.25820100000009916
272,1,0.8,0.0,-35.0,1,0.0,7.015100999999959
273,1,0.8,1.0,-35.0,-1,1.0,0.5692010000002483
274,1,0.8,0.25,35.0,1,1.0,0.2594010000000253
275,1,0.8,0.25,-35.0,1,0.0,0.4696009999997841
276,1,0.8,0.0625,-35.0,-1,1.0,0.4066009999999096
277,1,0.8,0.0625,-35.0,-1,1.0,0.35350100000005114
278,1,0.8,1.0,-35.0,-1,1.0,0.6337009999999736
279,1,0.8,0.0,-35.0,-1,1.0,0.41390100000012353
280,1,0.2,1.0,35.0,1,1.0,0.31750099999999293
281,1,0.2,1.0,35.0,1,1.0,0.18440099999997983
282,1,0.2,0.125,35.0,1,1.0,0.22120099999983722
283,1,0.2,0.25,35.0,1,1.0,1.514801000000034
284,1,0.2,0.0,35.0,-1,0.0,6.175100999999813
285,1,0.2,0.0,35.0,-1,0.0,0.305800999999974
286,1,0.2,0.0625,35.0,-1,0.0,0.399400999999898
287,1,0.2,1.0,35.0,1,1.0,0.22640100000012353
288,1,0.2,1.0,35.0,1,1.0,0.2132010000000264
289,1,0.2,1.0,-35.0,-1,1.0,0.7868009999999686
290,1,0.2,1.0,35.0,1,1.0,0.217000999999982
291,1,0.2,0.25,35.0,1,1.0,2.2507009999999354
292,1,0.2,0.125,35.0,1,1.0,0.24090099999989434
293,1,0.2,0.25,35.0,1,1.0,0.1845010000001821
294,1,0.2,0.25,35.0,1,1.0,0.3281009999998332
295,1,0.2,1.0,-35.0,-1,1.0,0.5883010000000013
296,1,0.2,0.25,35.0,1,1.0,0.18850100000008752
297,1,0.2,0.0625,35.0,-1,0.0,0.4586010000000442
298,1,0.2,0.25,35.0,1,1.0,0.14900099999999838
299,1,0.2,0.0,35.0,1,1.0,1.2658010000002378
300,1,0.2,0.0,35.0,-1,0.0,18.24610100000018
301,1,0.2,0.0625,35.0,1,1.0,0.2876009999999951
302,1,0.2,1.0,35.0,1,1.0,1.1612009999998918
303,1,0.2,0.0,35.0,-1,0.0,7.104700999999977
304,1,0.2,0.125,35.0,1,1.0,0.3121009999999842
305,1,0.2,0.0,35.0,-1,0.0,0.475601000000097
306,1,0.2,1.0,-35.0,-1,1.0,0.7226009999999405
307,1,0.2,0.0,35.0,-1,0.0,0.42970100000002276
308,1,0.2,0.125,35.0,1,1.0,0.1866010000001097
309,1,0.2,1.0,35.0,1,1.0,0.20680099999981394
310,1,0.2,0.25,35.0,1,1.0,0.213600999999926
311,1,0.2,0.0625,35.0,-1,0.0,0.4471009999999751
312,1,0.2,0.0,35.0,-1,0.0,44.46750099999986
313,1,0.2,0.0625,-35.0,1,0.0,0.3406009999998787
314,1,0.2,0.25,35.0,1,1.0,0.17760100000009515
315,1,0.2,1.0,-35.0,-1,1.0,0.4278010000002723
316,1,0.2,0.125,35.0,1,1.0,0.25810100000012426
317,1,0.2,1.0,-35.0,-1,1.0,0.44820099999992635
318,1,0.2,0.0625,35.0,-1,0.0,0.7551010000001952
319,1,0.2,0.25,35.0,1,1.0,0.22880099999997583
320,1,0.2,1.0,35.0,1,1.0,1.3824010000000726
321,1,0.2,1.0,35.0,1,1.0,0.7293010000000777
322,1,0.2,1.0,35.0,1,1.0,0.6028009999999995
323,1,0.8,0.125,-35.0,-1,1.0,9.149801000000025
324,1,0.8,0.125,-35.0,-1,1.0,0.6738010000001395
325,1,0.8,1.0,-35.0,-1,1.0,0.3275010000002112
326,1,0.8,0.0,-35.0,-1,1.0,0.36110100000018974
327,1,0.8,1.0,-35.0,-1,1.0,0.7480010000001585
328,1,0.8,1.0,-35.0,-1,1.0,0.4849010000000362
329,1,0.8,0.25,-35.0,-1,1.0,28.285101000000168
330,1,0.8,0.25,-35.0,-1,1.0,10.520500999999967
331,1,0.8,0.125,-35.0,-1,1.0,0.6181010000000242
332,1,0.8,0.0625,-35.0,-1,1.0,0.3583010000002105
333,1,0.8,1.0,-35.0,-1,1.0,0.5119010000000799
334,1,0.8,0.0625,-35.0,-1,1.0,0.41550099999994927
335,1,0.8,0.125,-35.0,-1,1.0,0.8157010000002174
336,1,0.8,0.25,-35.0,-1,1.0,0.3526010000000497
337,1,0.8,0.0625,35.0,-1,0.0,0.792801000000054
338,1,0.8,1.0,-35.0,-1,1.0,0.49650100000008024
339,1,0.8,0.25,35.0,1,1.0,0.27680099999997765
340,1,0.8,0.0,-35.0,-1,1.0,0.32690099999990707
341,1,0.8,0.125,-35.0,-1,1.0,0.5404009999999744
342,1,0.8,0.25,35.0,1,1.0,0.2540010000000166
343,1,0.8,0.0625,-35.0,-1,1.0,0.3442009999998845
344,1,0.8,0.0,35.0,-1,0.0,0.5144010000001344
345,1,0.8,1.0,-35.0,-1,1.0,0.6981009999999515
346,1,0.8,0.0625,-35.0,-1,1.0,12.281601000000137
347,1,0.8,0.0625,-35.0,-1,1.0,0.28600100000016937
348,1,0.8,0.0,-35.0,-1,1.0,0.32290100000022903
349,1,0.8,0.0,35.0,-1,0.0,0.766501000000062
350,1,0.8,0.0,-35.0,-1,1.0,0.4300010000001748
351,1,0.8,1.0,-35.0,-1,1.0,0.5369009999999435
352,1,0.8,0.0625,-35.0,-1,1.0,0.3071010000003298
353,1,0.8,0.0625,35.0,1,1.0,0.4508009999999558
354,1,0.8,0.0625,-35.0,-1,1.0,31.21760100000006
355,1,0.8,0.0625,-35.0,-1,1.0,0.7566010000002734
356,1,0.8,0.0625,35.0,-1,0.0,7.083501000000069
357,1,0.8,0.0625,-35.0,-1,1.0,0.674301000000014
358,1,0.8,0.25,35.0,1,1.0,0.23450100000013663
359,1,0.8,1.0,-35.0,-1,1.0,0.4049009999998816
360,1,0.8,0.25,-35.0,-1,1.0,2.8717010000002574
361,1,0.8,1.0,-35.0,-1,1.0,0.4387010000002647
362,1,0.8,0.25,-35.0,-1,1.0,0.5256010000002789
363,1,0.8,0.125,-35.0,-1,1.0,0.3325009999998656
364,1,0.8,0.25,-35.0,-1,1.0,0.7327009999999063
365,1,0.8,0.25,-35.0,-1,1.0,13.663001000000122
366,1,0.8,0.0625,-35.0,-1,1.0,0.354001000000153
367,1,0.8,1.0,-35.0,-1,1.0,0.44430099999999584
368,1,0.8,1.0,-35.0,-1,1.0,0.6112009999999373
369,1,0.8,1.0,-35.0,-1,1.0,0.5215010000001712
370,1,0.8,0.25,-35.0,-1,1.0,0.3883010000001832
371,1,0.8,0.25,35.0,1,1.0,0.27510099999994964
372,1,0.8,0.0625,35.0,1,1.0,8.215400999999929
373,1,0.8,1.0,-35.0,-1,1.0,0.8061010000001261
374,1,0.8,1.0,-35.0,-1,1.0,7.066401000000042
375,1,0.8,0.0625,-35.0,-1,1.0,0.543800999999803
376,1,0.8,0.0625,35.0,1,1.0,0.5389010000001235
377,1,0.8,0.0625,35.0,-1,0.0,0.6257009999999354
378,1,0.8,0.0,-35.0,-1,1.0,23.512701000000106
379,1,0.8,0.0625,-35.0,1,0.0,0.44770100000005186
380,1,0.8,1.0,-35.0,-1,1.0,0.5666010000002188
381,1,0.8,0.125,-35.0,-1,1.0,0.3401010000002316
382,1,0.8,0.25,35.0,1,1.0,5.3937009999999646
383,1,0.8,0.0625,-35.0,1,0.0,17.144201000000066
384,1,0.8,1.0,35.0,1,1.0,0.21570100000008097
385,1,0.8,1.0,-35.0,1,0.0,37.515900999999985
386,1,0.8,1.0,-35.0,-1,1.0,0.6854010000001836
387,1,0.8,1.0,-35.0,0,0.0,60.00230099999999
388,1,0.8,0.125,-35.0,0,0.0,60.00500099999999
389,1,0.8,0.125,35.0,0,0.0,60.005499999999984
390,1,0.8,0.25,-35.0,-1,1.0,34.56620100000009
391,1,0.8,1.0,35.0,1,1.0,0.5274009999993723
392,1,0.8,0.0625,-35.0,0,0.0,60.00420099999974
393,1,0.8,1.0,-35.0,1,0.0,2.6732010000000628
394,1,0.8,0.0625,35.0,-1,0.0,12.718800999999985
395,1,0.8,0.25,-35.0,-1,1.0,16.643200999999408
396,1,0.8,0.0,-35.0,1,0.0,18.4779010000002
397,1,0.8,0.125,35.0,1,1.0,3.2760010000001785
398,1,0.8,0.25,-35.0,-1,1.0,35.14980099999957
399,1,0.8,0.25,-35.0,-1,1.0,2.85890100000006
400,1,0.8,0.25,-35.0,1,0.0,22.959400999999616
401,1,0.8,1.0,-35.0,-1,1.0,14.777700999999979
402,1,0.8,0.25,-35.0,-1,1.0,11.359000999999807
403,1,0.8,1.0,35.0,1,1.0,0.4799009999996997
404,1,0.8,0.125,-35.0,-1,1.0,54.99010099999987
405,1,0.2,1.0,35.0,1,1.0,0.21400099999982558
406,1,0.2,1.0,35.0,1,1.0,0.2808009999994283
407,1,0.2,1.0,35.0,1,1.0,0.9711010000000897
408,1,0.2,0.0,35.0,-1,0.0,20.008000999999695
409,1,0.2,0.0625,35.0,1,1.0,0.29290099999980157
1,2,0.5,0.0625,35.0,1,1.0,5.5383000000000004
2,2,0.5,0.125,-35.0,-1,1.0,0.4286999999999992
3,2,0.5,1.0,35.0,1,1.0,0.30809999999999604
4,2,0.5,0.0,-35.0,-1,1.0,0.42409999999999926
5,2,0.5,0.25,-35.0,-1,1.0,0.24739999999999895
6,2,0.5,0.125,35.0,-1,0.0,4.426200000000005
7,2,0.5,0.0,-35.0,-1,1.0,0.5702000000000069
8,2,0.5,0.25,35.0,1,1.0,0.6648999999999958
9,2,0.5,0.0625,35.0,-1,0.0,0.287300000000009
10,2,0.5,0.0625,35.0,-1,0.0,0.3932000000000002
11,2,0.5,0.25,-35.0,-1,1.0,0.2219000000000051
12,2,0.5,0.25,35.0,1,1.0,0.4696000000000069
13,2,0.5,1.0,-35.0,-1,1.0,0.24989999999998957
14,2,0.5,0.0625,35.0,-1,0.0,0.26729999999999876
15,2,0.5,0.125,-35.0,-1,1.0,6.88900000000001
16,2,0.5,1.0,35.0,1,1.0,0.8856999999999999
17,2,0.5,0.25,-35.0,-1,1.0,11.430700000000002
18,2,0.5,0.125,-35.0,-1,1.0,5.100999999999999
19,2,0.5,1.0,-35.0,-1,1.0,0.46819999999999595
20,2,0.5,0.25,-35.0,-1,1.0,0.41140000000001464
21,2,0.5,0.0625,-35.0,-1,1.0,0.3561000000000121
22,2,0.5,0.25,-35.0,-1,1.0,0.6607999999999947
23,2,0.5,0.0625,-35.0,-1,1.0,0.23840000000001282
24,2,0.5,0.0,-35.0,-1,1.0,0.45190000000000907
25,2,0.5,0.125,35.0,-1,0.0,0.8611000000000075
26,2,0.5,0.25,35.0,1,1.0,0.7414999999999878
27,2,0.5,0.125,35.0,-1,0.0,0.36139999999997485
28,2,0.5,0.0625,-35.0,-1,1.0,0.3043999999999869
29,2,0.5,0.125,35.0,-1,0.0,0.24920000000000186
30,2,0.5,0.0625,35.0,-1,0.0,0.22469999999998436
31,2,0.5,0.125,35.0,1,1.0,0.2986999999999682
32,2,0.5,0.0625,35.0,-1,0.0,0.3667999999999836
33,2,0.5,0.25,-35.0,-1,1.0,0.7394000000000176
34,2,0.5,0.25,35.0,1,1.0,0.23929999999998586
35,2,0.5,0.125,-35.0,-1,1.0,1.2752999999999872
36,2,0.5,0.0,35.0,-1,0.0,0.22419999999996776
37,2,0.5,0.25,-35.0,-1,1.0,0.8053999999999633
38,2,0.5,0.25,35.0,1,1.0,0.5572999999999979
39,2,0.5,1.0,35.0,1,1.0,0.22860000000000014
40,2,0.5,0.0,35.0,1,1.0,0.7849999999999966
41,2,0.5,0.125,-35.0,-1,1.0,0.33159999999998035
42,2,0.5,0.0625,-35.0,-1,1.0,0.2948000000000093
43,2,0.5,0.0,-35.0,-1,1.0,0.44129999999998404
44,2,0.5,0.25,35.0,1,1.0,0.24979999999999336
45,2,0.5,0.125,35.0,-1,0.0,2.0883999999999787
46,2,0.5,0.125,35.0,1,1.0,0.4795000000000016
47,2,0.5,1.0,-35.0,-1,1.0,0.2510000000000048
48,2,0.5,0.0,35.0,-1,0.0,0.48459999999997194
49,2,0.5,0.0625,-35.0,-1,1.0,0.9685000000000059
50,2,0.5,0.25,-35.0,-1,1.0,0.6133999999999844
51,2,0.5,0.0625,-35.0,-1,1.0,0.5209999999999866
52,2,0.5,1.0,35.0,1,1.0,0.4059000000000026
53,2,0.5,0.125,35.0,-1,0.0,0.47939999999999827
54,2,0.5,0.125,-35.0,1,0.0,6.13239999999999
55,2,0.5,0.0625,-35.0,-1,1.0,0.5557000000000016
56,2,0.5,0.125,35.0,-1,0.0,0.606899999999996
57,2,0.5,0.25,35.0,1,1.0,0.22990000000001487
58,2,0.5,0.0625,35.0,-1,0.0,0.15469999999999118
59,2,0.5,0.125,-35.0,1,0.0,0.23069999999998458
60,2,0.5,0.125,35.0,1,1.0,0.25729999999998654
61,2,0.5,0.125,35.0,-1,0.0,0.7804000000000428
62,2,0.5,0.125,35.0,1,1.0,0.26310000000000855
63,2,0.5,1.0,-35.0,-1,1.0,0.24420000000003483
64,2,0.5,0.25,35.0,1,1.0,0.18480000000005248
65,2,0.5,0.0625,-35.0,-1,1.0,0.2230000000000132
66,2,0.5,0.25,-35.0,-1,1.0,0.37690000000003465
67,2,0.5,0.0625,-35.0,-1,1.0,0.5945000000000391
68,2,0.5,0.0625,-35.0,-1,1.0,0.387299999999982
69,2,0.5,0.0,-35.0,-1,1.0,1.2580000000000382
70,2,0.5,0.0,35.0,-1,0.0,0.4551000000000158
71,2,0.5,1.0,35.0,1,1.0,0.20750000000003865
72,2,0.5,1.0,-35.0,-1,1.0,0.2603000000000293
73,2,0.5,0.0625,-35.0,-1,1.0,0.700800000000072
74,2,0.5,0.125,35.0,1,1.0,1.25709999999998
75,2,0.5,1.0,35.0,1,1.0,0.6958000000000197
76,2,0.5,0.25,-35.0,-1,1.0,0.25610000000000355
77,2,0.5,0.125,-35.0,-1,1.0,0.5972000000000435
78,2,0.5,0.125,-35.0,-1,1.0,0.6248999999999683
79,2,0.5,0.0625,-35.0,-1,1.0,0.456799999999987
80,2,0.5,0.0,35.0,-1,0.0,0.4772000000000389
81,2,0.5,0.0,-35.0,-1,1.0,0.6562999999999874
82,2,0.5,1.0,35.0,1,1.0,0.36529999999999063
83,2,0.5,0.0,35.0,-1,0.0,0.37229999999999563
84,2,0.5,0.0625,-35.0,-1,1.0,0.6087999999999738
85,2,0.5,0.125,-35.0,-1,1.0,0.220799999999997
86,2,0.5,0.125,35.0,-1,0.0,0.48470000000008895
87,2,0.5,0.0625,35.0,1,1.0,0.323599999999999
88,2,0.5,0.125,-35.0,-1,1.0,0.3246000000000322
89,2,0.5,1.0,-35.0,-1,1.0,0.28419999999999845
90,2,0.5,0.0625,35.0,-1,0.0,0.9156000000000404
91,2,0.8,1.0,35.0,-1,0.0,2.0136000000000536
92,2,0.8,0.125,-35.0,-1,1.0,0.9626999999999839
93,2,0.8,0.25,-35.0,-1,1.0,1.088700000000074
94,2,0.8,0.125,-35.0,-1,1.0,3.6639999999999873
95,2,0.8,0.25,-35.0,-1,1.0,0.1971000000000913
96,2,0.8,0.25,-35.0,-1,1.0,0.31730000000004566
97,2,0.8,0.25,-35.0,-1,1.0,0.4268000000000143
98,2,0.8,0.25,-35.0,-1,1.0,0.5889999999999986
99,2,0.8,0.125,-35.0,-1,1.0,0.3532000000000153
100,2,0.8,1.0,-35.0,-1,1.0,0.2669999999999959
101,2,0.8,0.0625,-35.0,-1,1.0,0.32600000000002183
102,2,0.8,1.0,-35.0,-1,1.0,0.4632000000000289
103,2,0.8,1.0,-35.0,-1,1.0,0.33550000000002456
104,2,0.8,0.0625,-35.0,-1,1.0,5.880600000000015
105,2,0.8,0.25,-35.0,-1,1.0,0.22870000000000346
106,2,0.8,1.0,-35.0,-1,1.0,0.3982000000000312
107,2,0.8,1.0,35.0,1,1.0,0.7699000000000069
108,2,0.8,1.0,-35.0,-1,1.0,0.24430000000006658
109,2,0.8,0.0,-35.0,-1,1.0,0.5217000000000098
110,2,0.8,0.25,-35.0,-1,1.0,0.2447999999999979
111,2,0.8,0.125,-35.0,-1,1.0,0.34979999999995925
112,2,0.8,0.125,35.0,1,1.0,1.309500000000014
113,2,0.8,0.125,-35.0,-1,1.0,0.4980000000000473
114,2,0.8,0.25,-35.0,-1,1.0,0.7155990000000543
115,2,0.8,0.125,-35.0,-1,1.0,0.22620000000006257
116,2,0.8,0.0625,-35.0,-1,1.0,0.3556000000000381
117,2,0.8,0.0625,-35.0,-1,1.0,0.47370000000006485
118,2,0.8,0.25,-35.0,-1,1.0,0.35110000000003083
119,2,0.8,0.25,-35.0,-1,1.0,0.46150000000005775
120,2,0.8,0.0625,-35.0,-1,1.0,0.5837999999999965
121,2,0.8,1.0,-35.0,-1,1.0,0.7927000000000248
122,2,0.8,0.125,-35.0,-1,1.0,0.36189999999999145
123,2,0.8,0.125,-35.0,-1,1.0,0.3242999999999938
124,2,0.8,0.0625,-35.0,-1,1.0,0.21620000000001482
125,2,0.8,0.0625,-35.0,-1,1.0,0.3129999999999882
126,2,0.8,0.125,-35.0,-1,1.0,0.401800000000037
127,2,0.8,0.125,-35.0,-1,1.0,0.9791000000000167
128,2,0.8,0.25,-35.0,-1,1.0,0.28320000000007894
129,2,0.2,0.0625,35.0,-1,0.0,0.43630000000007385
130,2,0.2,0.25,35.0,1,1.0,0.40409999999997126
131,2,0.2,1.0,-35.0,-1,1.0,0.28080000000011296
132,2,0.2,0.125,35.0,1,1.0,0.25889999999992597
133,2,0.2,0.0,-35.0,-1,1.0,3.193200000000047
134,2,0.2,0.125,35.0,1,1.0,0.22880000000009204
135,2,0.2,1.0,35.0,1,1.0,0.19200000000000728
136,2,0.2,0.125,-35.0,-1,1.0,0.35380000000009204
137,2,0.2,1.0,35.0,1,1.0,0.2576999999999998
138,2,0.2,0.125,-35.0,-1,1.0,1.092300000000023
139,2,0.2,0.0,35.0,-1,0.0,0.1937999999998965
140,2,0.2,1.0,35.0,1,1.0,0.14850000000001273
141,2,0.2,0.0625,-35.0,-1,1.0,0.8009000000000697
142,2,0.2,1.0,35.0,1,1.0,0.19079999999996744
143,2,0.2,1.0,35.0,1,1.0,0.21339999999997872
144,2,0.2,0.0,35.0,-1,0.0,0.39400000000000546
145,2,0.2,1.0,35.0,1,1.0,0.1729000000001406
146,2,0.2,0.125,35.0,1,1.0,0.2355000000001155
147,2,0.2,0.25,35.0,1,1.0,0.6619999999999209
148,2,0.2,0.0625,35.0,1,1.0,0.42790000000013606
149,2,0.2,0.0625,-35.0,1,0.0,0.7458000000000311
150,2,0.2,0.0,35.0,-1,0.0,0.46850000000006276
151,2,0.2,0.0625,-35.0,1,0.0,0.2903999999999769
152,2,0.2,0.25,35.0,1,1.0,0.19470000000001164
153,2,0.2,1.0,35.0,1,1.0,0.1732000000000653
154,2,0.2,0.125,35.0,1,1.0,0.29110000000002856
155,2,0.2,0.125,35.0,1,1.0,0.2626000000000204
156,2,0.2,0.125,35.0,-1,0.0,0.19619999999997617
157,2,0.2,0.0625,35.0,-1,0.0,0.30090000000006967
158,2,0.2,1.0,35.0,1,1.0,0.24630000000001928
159,2,0.2,1.0,35.0,1,1.0,0.3935000000000173
160,2,0.2,0.0,35.0,-1,0.0,0.6210000000000946
161,2,0.2,1.0,35.0,1,1.0,0.1753999999999678
162,2,0.2,0.0625,35.0,-1,0.0,0.8359000000000378
163,2,0.2,0.0,-35.0,1,0.0,0.23490000000003874
164,2,0.2,0.0,35.0,-1,0.0,0.41289999999992233
165,2,0.2,0.125,35.0,-1,0.0,0.16790000000003147
166,2,0.2,0.125,35.0,-1,0.0,0.3050999999999249
167,2,0.2,0.25,-35.0,-1,1.0,0.542400000000157
168,2,0.2,0.0625,35.0,-1,0.0,6.7146000000000186
169,2,0.2,1.0,35.0,1,1.0,0.20899999999994634
170,2,0.2,0.0625,-35.0,-1,1.0,0.4499000000000706
171,2,0.2,1.0,-35.0,-1,1.0,0.39440000000001874
172,2,0.2,0.25,35.0,-1,0.0,0.3106000000000222
173,2,0.2,0.0625,35.0,-1,0.0,0.3850999999999658
174,2,0.2,1.0,35.0,1,1.0,0.20929999999998472
175,2,0.2,0.0625,35.0,-1,0.0,0.2755000000000791
176,2,0.2,0.125,-35.0,-1,1.0,0.54950000000008
177,2,0.2,1.0,35.0,1,1.0,0.18600000000003547
178,2,0.2,1.0,-35.0,-1,1.0,0.3525999999999385
179,2,0.2,0.0625,35.0,-1,0.0,0.4031999999999698
180,2,0.2,0.0625,35.0,-1,0.0,0.4035000000000082
181,2,0.2,0.25,-35.0,-1,1.0,0.5471000000000004
182,2,0.2,0.0625,-35.0,-1,1.0,0.32200000000000273
183,2,0.2,0.25,35.0,-1,0.0,0.33780000000001564
184,2,0.2,0.0625,35.0,-1,0.0,0.5819000000000187
185,2,0.2,1.0,35.0,1,1.0,0.36990000000002965
186,2,0.2,1.0,-35.0,-1,1.0,0.2738000000000511
187,2,0.2,0.0625,-35.0,-1,1.0,0.4352999999999838
188,2,0.2,0.0,35.0,-1,0.0,0.27890000000002146
189,2,0.2,0.125,35.0,1,1.0,0.2117999999999256
190,2,0.2,0.25,-35.0,1,0.0,0.19610000000000127
191,2,0.2,0.0625,35.0,1,1.0,0.262299999999982
192,2,0.2,1.0,35.0,1,1.0,0.8236000000000558
193,2,0.2,0.25,35.0,1,1.0,0.29189999999994143
194,2,0.2,0.125,35.0,1,1.0,0.2804000000000997
195,2,0.2,0.0625,35.0,1,1.0,0.24349900000004254
196,2,0.2,1.0,-35.0,-1,1.0,0.38990000000001146
197,2,0.2,0.25,-35.0,1,0.0,1.0332999999999402
198,2,0.2,0.25,35.0,1,1.0,0.27049999999997
199,2,0.2,1.0,-35.0,-1,1.0,0.4113999999999578
200,2,0.2,1.0,-35.0,-1,1.0,0.4074000000000524
201,2,0.2,0.125,35.0,-1,0.0,5.412000000000035
202,2,0.2,0.0625,35.0,-1,0.0,0.4045000000000982
203,2,0.2,0.25,-35.0,-1,1.0,0.3505000000000109
204,2,0.2,0.25,35.0,1,1.0,0.24110000000007403
205,2,0.2,1.0,-35.0,-1,1.0,0.4193000000000211
206,2,0.8,0.125,-35.0,-1,1.0,0.3875000000000455
207,2,0.8,0.0625,-35.0,-1,1.0,0.3651000000000977
208,2,0.8,0.0,-35.0,-1,1.0,0.4227000000000771
209,2,0.8,1.0,-35.0,-1,1.0,0.31520000000000437
210,2,0.8,0.0,-35.0,-1,1.0,0.3905000000000882
211,2,0.8,0.125,35.0,1,1.0,0.33370000000002165
212,2,0.8,0.125,-35.0,-1,1.0,0.34749999999996817
213,2,0.8,0.125,35.0,-1,0.0,0.2927999999999429
214,2,0.8,0.125,-35.0,-1,1.0,0.6528000000000702
215,2,0.8,0.125,-35.0,-1,1.0,0.3023999999999205
216,2,0.8,0.125,-35.0,-1,1.0,0.322400000000016
217,2,0.8,0.25,-35.0,-1,1.0,0.4494000000000824
218,2,0.8,0.0625,-35.0,-1,1.0,0.5383000000000493
219,2,0.8,1.0,-35.0,-1,1.0,0.23679999999990287
220,2,0.8,0.25,-35.0,-1,1.0,0.35409999999990305
221,2,0.8,0.125,-35.0,-1,1.0,0.3018000000000711
222,2,0.8,1.0,-35.0,-1,1.0,0.43420000000003256
223,2,0.8,0.0,-35.0,-1,1.0,0.7912000000000035
224,2,0.8,1.0,-35.0,-1,1.0,0.2218000000000302
225,2,0.8,1.0,-35.0,-1,1.0,0.28940000000000055
226,2,0.8,1.0,35.0,1,1.0,0.2598000000000411
227,2,0.8,0.0,-35.0,-1,1.0,0.1835999999999558
228,2,0.8,0.25,-35.0,-1,1.0,4.76360000000011
229,2,0.8,0.25,-35.0,-1,1.0,0.4270999999999958
230,2,0.8,0.25,-35.0,-1,1.0,0.5067999999999984
231,2,0.8,0.125,-35.0,-1,1.0,0.7419000000001006
232,2,0.8,0.125,35.0,-1,0.0,0.3611999999999398
233,2,0.8,0.0625,35.0,-1,0.0,0.4017999999999802
234,2,0.8,0.125,-35.0,-1,1.0,0.4864000000000033
235,2,0.8,0.0,-35.0,-1,1.0,0.2540000000000191
236,2,0.8,0.0625,-35.0,-1,1.0,0.2825000000000273
237,2,0.8,1.0,-35.0,-1,1.0,0.2757000000000289
238,2,0.8,1.0,-35.0,-1,1.0,0.37960000000009586
239,2,0.8,0.0625,-35.0,1,0.0,0.2460000000000946
240,2,0.8,1.0,35.0,1,1.0,0.2236000000000331
241,2,0.8,0.0625,-35.0,-1,1.0,0.1835000000000946
242,2,0.8,1.0,-35.0,-1,1.0,0.2897000000000389
243,2,0.8,0.0,-35.0,1,0.0,0.18500000000005912
244,2,0.8,0.125,-35.0,-1,1.0,0.39420000000006894
245,2,0.8,1.0,35.0,1,1.0,0.6041000000000167
246,2,0.8,0.0625,-35.0,-1,1.0,0.40300000000002
247,2,0.8,0.125,-35.0,-1,1.0,0.40390000000002146
248,2,0.8,1.0,-35.0,-1,1.0,0.3871000000001459
249,2,0.8,1.0,-35.0,-1,1.0,0.3994000000000142
250,2,0.8,0.0625,-35.0,1,0.0,0.276299999999992
251,2,0.8,0.25,-35.0,-1,1.0,0.7699000000000069
252,2,0.8,0.0625,-35.0,-1,1.0,0.32009999999991123
253,2,0.8,1.0,-35.0,-1,1.0,0.26700000000005275
254,2,0.8,0.25,-35.0,-1,1.0,0.6807000000000016
255,2,0.8,0.125,35.0,1,1.0,0.2675000000000409
256,2,0.8,0.25,-35.0,-1,1.0,0.5643999999999778
257,2,0.8,0.25,-35.0,-1,1.0,0.4780000000000655
258,2,0.8,0.125,-35.0,-1,1.0,0.5648000000001048
259,2,0.8,0.125,-35.0,-1,1.0,0.8384000000000924
260,2,0.8,0.0625,-35.0,-1,1.0,0.2720000000001619
261,2,0.8,1.0,-35.0,-1,1.0,0.3423000000000229
262,2,0.8,0.0,-35.0,-1,1.0,0.2658999999998741
263,2,0.8,1.0,-35.0,-1,1.0,0.5195000000001073
264,2,0.8,0.25,35.0,1,1.0,0.23299999999994725
265,2,0.8,0.25,-35.0,-1,1.0,0.30979999999976826
266,2,0.8,0.25,-35.0,-1,1.0,0.26340000000004693
267,2,0.8,0.25,-35.0,-1,1.0,0.22690000000011423
268,2,0.8,0.0,-35.0,-1,1.0,0.6239000000000487
269,2,0.2,0.125,-35.0,-1,1.0,0.24739999999997053
270,2,0.2,0.25,35.0,-1,0.0,0.2677000000001044
271,2,0.2,0.25,35.0,1,1.0,0.2479000000000724
272,2,0.2,0.125,35.0,1,1.0,0.25479999999993197
273,2,0.2,1.0,-35.0,-1,1.0,0.3283999999998741
274,2,0.2,1.0,35.0,1,1.0,0.21550000000002
275,2,0.2,0.0625,35.0,-1,0.0,0.6621999999999844
276,2,0.2,0.0625,-35.0,-1,1.0,0.37249999999994543
277,2,0.2,0.25,35.0,1,1.0,1.2327000000000226
278,2,0.2,0.25,35.0,1,1.0,0.26969999999982974
279,2,0.2,0.125,-35.0,-1,1.0,0.23319999999989705
280,2,0.2,0.0625,35.0,-1,0.0,0.4834000000000742
281,2,0.2,0.25,35.0,1,1.0,0.3770999999999276
282,2,0.2,0.25,-35.0,-1,1.0,1.1075000000000728
283,2,0.2,1.0,35.0,1,1.0,1.8777999999999793
284,2,0.2,0.0,35.0,-1,0.0,0.6780989999999747
285,2,0.2,1.0,35.0,-1,0.0,1.9418000000000575
286,2,0.2,0.0625,-35.0,-1,1.0,0.3222000000000662
287,2,0.2,0.25,-35.0,-1,1.0,0.27899999999999636
288,2,0.2,1.0,35.0,1,1.0,0.4358999999999469
289,2,0.2,0.125,35.0,-1,0.0,0.5595000000000709
290,2,0.2,0.0625,35.0,-1,0.0,0.2664999999999509
291,2,0.2,0.0,35.0,-1,0.0,0.25670000000013715
292,2,0.2,1.0,35.0,1,1.0,0.21700000000009823
293,2,0.2,1.0,35.0,1,1.0,0.4704999999999018
294,2,0.2,0.125,35.0,1,1.0,0.2175999999999476
295,2,0.2,0.125,-35.0,1,0.0,0.19110000000000582
296,2,0.2,1.0,35.0,1,1.0,0.258199999999988
297,2,0.2,0.0625,35.0,1,1.0,0.2117000000000644
298,2,0.2,0.125,35.0,1,1.0,0.19529999999986103
299,2,0.2,0.25,35.0,1,1.0,0.26559999999994943
300,2,0.2,0.0,35.0,1,1.0,0.18909999999982574
301,2,0.2,1.0,35.0,1,1.0,0.22260000000005675
302,2,0.2,0.125,35.0,1,1.0,0.6195999999999913
303,2,0.2,0.125,35.0,1,1.0,0.27650000000016917
304,2,0.2,1.0,35.0,1,1.0,0.26680000000010295
305,2,0.2,1.0,-35.0,1,0.0,0.260300000000143
306,2,0.2,0.25,35.0,1,1.0,0.20720000000005712
307,2,0.2,0.125,35.0,1,1.0,0.25070000000005166
308,2,0.2,0.0625,-35.0,-1,1.0,1.6077000000000226
309,2,0.2,0.0,35.0,-1,0.0,0.7414000000001124
310,2,0.2,0.125,35.0,1,1.0,0.18180000000006658
311,2,0.2,0.125,-35.0,-1,1.0,1.0352000000000317
312,2,0.2,0.0,35.0,1,1.0,4.448800000000119
313,2,0.2,1.0,35.0,1,1.0,0.23620000000005348
314,2,0.2,0.0625,35.0,1,1.0,0.18299999999999272
315,2,0.2,0.0625,35.0,-1,0.0,0.6164999999998599
316,2,0.2,0.125,35.0,1,1.0,0.1834999999998672
317,2,0.2,1.0,35.0,1,1.0,0.20029999999997017
318,2,0.2,0.0625,35.0,1,1.0,0.5972000000001572
319,2,0.2,1.0,35.0,1,1.0,0.2142999999998665
320,2,0.2,1.0,35.0,1,1.0,0.21109999999998763
321,2,0.2,0.0625,35.0,1,1.0,1.0613000000000739
322,2,0.2,1.0,35.0,1,1.0,0.23820000000000618
323,2,0.2,0.125,-35.0,-1,1.0,4.248399999999947
324,2,0.8,0.0625,-35.0,-1,1.0,0.4189000000001215
325,2,0.8,0.25,-35.0,-1,1.0,0.42240000000015243
326,2,0.8,1.0,35.0,1,1.0,0.25270000000000437
327,2,0.8,0.125,-35.0,-1,1.0,0.5128999999999451
328,2,0.8,0.0,-35.0,-1,1.0,0.2598000000000411
329,2,0.8,0.25,35.0,1,1.0,0.2701000000001841
330,2,0.8,0.25,-35.0,1,0.0,0.20710000000008222
331,2,0.8,0.0,35.0,-1,0.0,0.7973000000001775
332,2,0.8,0.125,35.0,1,1.0,0.18439999999986867
333,2,0.8,0.25,-35.0,-1,1.0,0.3445999999999003
334,2,0.8,0.125,-35.0,-1,1.0,0.5649000000000797
335,2,0.8,1.0,-35.0,-1,1.0,0.2283999999997377
336,2,0.8,0.25,-35.0,-1,1.0,0.5033999999998287
337,2,0.8,0.0,-35.0,-1,1.0,0.35029999999983374
338,2,0.8,0.125,-35.0,-1,1.0,1.1506999999999152
339,2,0.8,0.0,-35.0,-1,1.0,0.2777000000000953
340,2,0.8,0.0625,-35.0,-1,1.0,0.3847000000000662
341,2,0.8,1.0,-35.0,-1,1.0,0.25489999999990687
342,2,0.8,1.0,-35.0,-1,1.0,0.23210000000017317
343,2,0.8,0.0625,-35.0,-1,1.0,0.19200000000000728
344,2,0.8,0.0625,-35.0,-1,1.0,0.24900000000002365
345,2,0.2,0.125,-35.0,-1,1.0,0.32930000000010295
346,2,0.2,0.125,35.0,-1,0.0,0.33609999999998763
347,2,0.2,1.0,35.0,1,1.0,0.19000000000005457
348,2,0.2,0.0625,-35.0,-1,1.0,0.5471000000002277
349,2,0.2,1.0,-35.0,-1,1.0,0.28350000000000364
350,2,0.2,1.0,-35.0,-1,1.0,0.4105000000001837
351,2,0.2,1.0,35.0,1,1.0,0.20440000000007785
352,2,0.2,1.0,35.0,1,1.0,0.1711999999999989
353,2,0.2,0.125,35.0,1,1.0,0.30490000000008877
354,2,0.2,0.25,35.0,1,1.0,0.17180000000007567
355,2,0.2,0.0,35.0,1,1.0,0.25540000000000873
356,2,0.2,0.25,35.0,1,1.0,0.22900000000004184
357,2,0.2,0.25,35.0,1,1.0,0.22240000000010696
358,2,0.2,0.0,35.0,1,1.0,0.6626000000001113
359,2,0.2,0.0625,35.0,1,1.0,0.4496999999998934
360,2,0.2,0.25,35.0,1,1.0,0.1733999999999014
361,2,0.2,0.125,35.0,1,1.0,0.21680000000014843
362,2,0.2,0.125,-35.0,1,0.0,0.21019999999998618
363,2,0.2,0.0625,35.0,1,1.0,0.22059999999987667
364,2,0.2,1.0,35.0,1,1.0,0.1574000000000524
365,2,0.2,1.0,-35.0,1,0.0,0.19780000000014297
366,2,0.2,1.0,35.0,1,1.0,0.14810000000011314
367,2,0.2,0.125,35.0,1,1.0,0.2117000000000644
368,2,0.2,0.0,35.0,1,1.0,0.16519999999991342
369,2,0.2,0.0,35.0,1,1.0,1.5455999999999221
370,2,0.2,1.0,35.0,1,1.0,0.179300000000012
371,2,0.2,0.125,35.0,1,1.0,8.479599999999891
372,2,0.2,0.0,35.0,-1,0.0,0.7236000000000331
373,2,0.2,0.0625,35.0,1,1.0,0.2739000000001397
374,2,0.2,0.125,35.0,1,1.0,0.32750000000010004
375,2,0.8,1.0,-35.0,-1,1.0,0.6411000000000513
376,2,0.8,0.25,-35.0,-1,1.0,0.4614000000001397
377,2,0.8,1.0,35.0,1,1.0,0.19209999999998217
378,2,0.8,0.0625,-35.0,-1,1.0,0.4186000000001968
379,2,0.8,0.25,-35.0,-1,1.0,0.25900000000001455
380,2,0.8,0.125,-35.0,-1,1.0,0.6494999999999891
381,2,0.8,1.0,-35.0,-1,1.0,0.49279999999998836
382,2,0.8,1.0,-35.0,-1,1.0,0.2897000000000389
383,2,0.8,0.0,-35.0,-1,1.0,0.5931000000000495
384,2,0.8,0.0625,-35.0,-1,1.0,0.40380000000004657
385,2,0.8,0.0625,-35.0,-1,1.0,0.9072999999998501
386,2,0.8,1.0,-35.0,-1,1.0,0.27109999999993306
387,2,0.8,0.0625,-35.0,-1,1.0,0.4012000000000171
388,2,0.8,0.0,-35.0,-1,1.0,0.38160000000016225
389,2,0.8,0.0625,-35.0,-1,1.0,0.3949999999999818
390,2,0.8,0.25,35.0,-1,0.0,0.30209999999988213
391,2,0.8,0.25,-35.0,-1,1.0,0.47900000000004184
392,2,0.8,0.125,-35.0,-1,1.0,0.44640000000003965
393,2,0.8,0.125,-35.0,-1,1.0,7.66599999999994
394,2,0.8,0.25,-35.0,-1,1.0,0.2500999999999749
395,2,0.8,0.125,-35.0,-1,1.0,0.28700000000003456
396,2,0.8,0.25,-35.0,-1,1.0,0.2704000000001088
397,2,0.8,0.0,-35.0,-1,1.0,0.2341999999998734
398,2,0.8,0.25,-35.0,-1,1.0,0.24120000000016262
399,2,0.8,1.0,35.0,1,1.0,0.24139999999988504
400,2,0.8,0.0625,-35.0,-1,1.0,0.3183999999998832
401,2,0.8,0.125,-35.0,-1,1.0,0.10239999999976135
402,2,0.8,0.0,-35.0,-1,1.0,0.495600000000195
403,2,0.8,0.25,35.0,1,1.0,0.22229999999990468
404,2,0.8,1.0,-35.0,-1,1.0,0.16920000000027358
405,2,0.8,0.0,-35.0,-1,1.0,0.686100000000124
406,2,0.8,0.25,-35.0,-1,1.0,0.306400000000167
407,2,0.8,0.0625,-35.0,-1,1.0,0.4034999999998945
408,2,0.8,0.0625,35.0,-1,0.0,0.587099999999964
409,2,0.8,1.0,-35.0,-1,1.0,0.3407999999999447
410,2,0.8,0.125,-35.0,-1,1.0,0.390999999999849
411,2,0.8,1.0,-35.0,-1,1.0,0.23469999999997526
412,2,0.8,0.125,-35.0,-1,1.0,0.2182999999997719
413,2,0.8,0.125,-35.0,-1,1.0,1.0051999999998316
414,2,0.8,0.0625,-35.0,-1,1.0,0.30209999999988213
415,2,0.8,0.0,-35.0,-1,1.0,0.362400000000207
416,2,0.8,0.0625,-35.0,-1,1.0,0.3927000000001044
417,2,0.8,0.0625,-35.0,-1,1.0,0.3729000000000724
418,2,0.8,0.25,-35.0,-1,1.0,0.37019999999984066
419,2,0.2,0.25,35.0,-1,0.0,0.32349999999996726
420,2,0.2,0.25,-35.0,-1,1.0,0.30359999999996035
421,2,0.2,0.125,35.0,1,1.0,0.29450000000019827
422,2,0.2,0.25,35.0,1,1.0,0.22450000000003456
423,2,0.2,0.125,35.0,1,1.0,0.2213000000001557
424,2,0.2,0.0,35.0,-1,0.0,0.2948999999998705
425,2,0.2,0.25,35.0,1,1.0,0.18200000000001637
426,2,0.2,0.125,35.0,1,1.0,0.4619999999999891
427,2,0.2,1.0,35.0,1,1.0,0.26900000000000546
428,2,0.2,1.0,35.0,1,1.0,0.2057999999999538
429,2,0.2,0.0,35.0,1,1.0,0.24939999999992324
430,2,0.2,0.125,35.0,1,1.0,0.22620000000028995
431,2,0.2,0.0625,35.0,1,1.0,0.2635000000002492
432,2,0.2,0.25,-35.0,1,0.0,0.6103999999997995
433,2,0.2,0.25,35.0,1,1.0,0.18699999999989814
434,2,0.2,1.0,35.0,1,1.0,0.23080000000004475
435,2,0.2,0.0625,-35.0,-1,1.0,10.380800000000136
436,2,0.2,0.125,35.0,1,1.0,0.18859999999995125
437,2,0.2,1.0,35.0,1,1.0,0.20190000000002328
438,2,0.2,1.0,35.0,1,1.0,0.17229999999995016
439,2,0.2,0.125,-35.0,-1,1.0,0.49919999999997344
440,2,0.2,0.0625,35.0,-1,0.0,0.43259999999986576
441,2,0.2,0.0625,35.0,-1,0.0,0.3448000000000775
442,2,0.2,0.0,-35.0,-1,1.0,0.43849999999997635
443,2,0.2,1.0,35.0,1,1.0,0.20200000000022555
444,2,0.2,0.125,35.0,1,1.0,0.24890000000004875
445,2,0.2,0.0,35.0,1,1.0,0.2158999999999196
446,2,0.2,0.25,-35.0,1,0.0,0.3161000000000058
447,2,0.2,0.0,-35.0,1,0.0,0.6530999999997675
448,2,0.2,0.0625,35.0,1,1.0,0.3869000000001961
449,2,0.2,0.125,-35.0,-1,1.0,0.94720099999995
450,2,0.2,0.25,-35.0,-1,1.0,0.5841010000001461
451,2,0.2,0.0,-35.0,-1,1.0,0.2676010000000133
452,2,0.2,0.0,35.0,-1,0.0,0.31120099999998274
453,2,0.2,0.0,35.0,1,1.0,0.23820100000011735
454,2,0.2,0.125,35.0,1,1.0,1.2617009999999027
455,2,0.2,0.125,35.0,1,1.0,0.32870099999991
456,2,0.2,1.0,35.0,1,1.0,0.1922010000002956
457,2,0.2,0.0625,35.0,1,1.0,0.21910099999990962
458,2,0.2,0.0,-35.0,-1,1.0,0.2961009999999078
459,2,0.2,0.25,35.0,1,1.0,0.2330010000000584
460,2,0.2,1.0,35.0,1,1.0,0.20980099999997037
461,2,0.2,0.0,35.0,-1,0.0,0.8400010000000293
462,2,0.2,0.25,35.0,1,1.0,0.1704010000000835
463,2,0.2,0.0625,35.0,-1,0.0,0.3706009999998514
464,2,0.2,0.0625,35.0,1,1.0,0.21750100000008388
465,2,0.2,0.25,-35.0,-1,1.0,0.6211009999999533
466,2,0.2,0.125,35.0,1,1.0,0.4414010000000417
467,2,0.2,0.125,-35.0,-1,1.0,0.31500099999993836
468,2,0.2,0.125,35.0,1,1.0,0.3585010000001603
469,2,0.2,0.0625,-35.0,-1,1.0,1.0621009999999842
470,2,0.2,0.125,35.0,1,1.0,0.18910100000016428
471,2,0.2,0.125,35.0,1,1.0,0.25270099999988815
472,2,0.2,0.125,35.0,1,1.0,0.28290100000003804
473,2,0.2,0.125,35.0,1,1.0,0.21310099999982413
474,2,0.2,0.25,35.0,1,1.0,0.23660100000006423
475,2,0.2,0.0625,35.0,1,1.0,0.2903009999999995
476,2,0.2,0.125,35.0,1,1.0,0.1807009999999991
477,2,0.2,0.25,35.0,1,1.0,0.20080099999995582
478,2,0.2,0.125,35.0,1,1.0,0.21770100000003367
479,2,0.2,0.125,-35.0,1,0.0,0.31460100000003877
480,2,0.2,0.25,35.0,1,1.0,0.20160099999998238
481,2,0.2,1.0,35.0,1,1.0,0.16520100000002458
482,2,0.2,0.0625,35.0,1,1.0,0.5787010000001374
483,2,0.2,0.125,35.0,1,1.0,0.22230100000024322
484,2,0.2,0.0,-35.0,1,0.0,0.3226009999998496
485,2,0.2,0.25,35.0,1,1.0,0.2296010000000024
486,2,0.2,1.0,35.0,1,1.0,0.2432009999999991
487,2,0.2,0.0625,35.0,-1,0.0,6.646700999999894
488,2,0.2,0.0625,-35.0,-1,1.0,0.7474009999998543
489,2,0.2,0.0,35.0,1,1.0,0.23780099999999038
490,2,0.2,0.125,35.0,1,1.0,0.30130099999996673
491,2,0.2,0.125,35.0,1,1.0,0.3583009999999831
492,2,0.2,0.0,35.0,-1,0.0,0.501901000000089
493,2,0.2,1.0,35.0,1,1.0,0.23220100000003185
494,2,0.2,0.0,35.0,-1,0.0,0.4491009999999278
495,2,0.2,1.0,35.0,1,1.0,0.1827010000001792
496,2,0.2,0.0625,35.0,1,1.0,0.2397009999999682
497,2,0.2,0.125,35.0,1,1.0,0.19330100000001949
498,2,0.2,0.25,35.0,1,1.0,0.4802009999998518
499,2,0.8,0.25,-35.0,-1,1.0,0.8037010000000464
500,2,0.8,0.0625,-35.0,-1,1.0,0.854001000000153
501,2,0.8,0.125,-35.0,-1,1.0,0.297600999999986
502,2,0.8,1.0,-35.0,-1,1.0,0.38440099999979793
503,2,0.8,0.25,-35.0,-1,1.0,0.3915010000002894
504,2,0.8,0.125,-35.0,-1,1.0,0.28500099999996564
505,2,0.8,0.25,-35.0,-1,1.0,0.41190099999994345
506,2,0.8,1.0,-35.0,-1,1.0,0.3888010000000577
507,2,0.8,0.125,-35.0,-1,1.0,0.29250100000012935
508,2,0.8,0.0625,-35.0,-1,1.0,0.38610099999982594
509,2,0.8,0.0625,35.0,-1,0.0,0.42640099999994163
510,2,0.8,0.0625,-35.0,-1,1.0,0.5266010000000279
511,2,0.8,0.25,-35.0,-1,1.0,0.3402009999999791
512,2,0.8,1.0,-35.0,-1,1.0,0.3404009999999289
513,2,0.8,1.0,-35.0,-1,1.0,0.7407009999997172
514,2,0.8,1.0,35.0,1,1.0,0.2343009999995047
515,2,0.8,0.25,-35.0,-1,1.0,0.31780099999969025
516,2,0.8,0.125,-35.0,-1,1.0,0.6314009999996415
517,2,0.8,0.25,-35.0,-1,1.0,0.4317009999995207
518,2,0.8,0.125,-35.0,-1,1.0,0.3520010000002003
519,2,0.8,1.0,35.0,1,1.0,0.25550099999964004
520,2,0.8,1.0,-35.0,-1,1.0,0.635700999999699
521,2,0.8,1.0,35.0,1,1.0,0.3160009999992326
522,2,0.8,1.0,-35.0,-1,1.0,0.24290099999961967
523,2,0.8,0.0625,-35.0,1,0.0,0.30640100000027815
524,2,0.8,0.125,35.0,1,1.0,0.2101009999996677
525,2,0.8,0.125,-35.0,-1,1.0,0.5203010000000177
526,2,0.8,0.125,-35.0,-1,1.0,0.48050100000000384
527,2,0.8,0.125,-35.0,-1,1.0,0.17740099999946324
528,2,0.8,0.0,-35.0,-1,1.0,0.6276009999996859
529,2,0.8,0.25,-35.0,-1,1.0,0.4414010000000417
530,2,0.8,0.25,-35.0,-1,1.0,0.2815009999999347
531,2,0.8,0.25,-35.0,-1,1.0,0.4785009999995964
532,2,0.8,0.0625,-35.0,-1,1.0,0.4454009999999471
533,2,0.8,0.125,-35.0,-1,1.0,0.57220099999995
534,2,0.8,0.25,-35.0,-1,1.0,0.31920099999979357
535,2,0.8,0.125,-35.0,-1,1.0,0.35610099999985323
536,2,0.8,0.25,35.0,1,1.0,0.21290099999941958
537,2,0.8,0.125,-35.0,-1,1.0,0.3165009999997892
538,2,0.8,1.0,-35.0,-1,1.0,0.32350099999985105
539,2,0.8,0.0,35.0,-1,0.0,0.5770010000001093
540,2,0.8,1.0,-35.0,-1,1.0,0.4640009999998256
541,2,0.8,0.25,-35.0,-1,1.0,0.9642009999997754
542,2,0.8,0.0,-35.0,-1,1.0,9.881199999999353
543,2,0.8,0.125,-35.0,-1,1.0,16.675301000000218
544,2,0.8,0.0625,-35.0,-1,1.0,0.8468009999996866
545,2,0.8,1.0,-35.0,-1,1.0,0.5003009999995811
546,2,0.8,0.0625,-35.0,1,0.0,0.4473009999996975
547,2,0.8,1.0,-35.0,-1,1.0,0.5475009999995564
548,2,0.8,1.0,-35.0,-1,1.0,0.834400999999616
549,2,0.8,0.0,-35.0,-1,1.0,0.5514009999997143
550,2,0.8,0.25,35.0,1,1.0,0.27170099999966624
551,2,0.8,0.125,35.0,1,1.0,19.131901000000198
552,2,0.8,1.0,35.0,1,1.0,0.19010099999968588
553,2,0.8,0.0625,-35.0,-1,1.0,22.183600999999726
554,2,0.8,0.125,-35.0,1,0.0,0.47880099999974846
555,2,0.2,1.0,35.0,1,1.0,0.42240099999980885
556,2,0.2,1.0,35.0,1,1.0,0.2727009999994152
557,2,0.2,0.125,-35.0,1,0.0,0.5328009999998358
558,2,0.2,0.125,35.0,1,1.0,0.5231009999997696
559,2,0.2,0.0625,-35.0,1,0.0,18.0436009999994
560,2,0.2,1.0,35.0,1,1.0,0.26500099999975646
561,2,0.2,1.0,-35.0,-1,1.0,0.7086009999998168
562,2,0.2,0.25,35.0,1,1.0,0.26870099999996455
563,2,0.2,0.125,35.0,1,1.0,0.5556009999995695
564,2,0.2,1.0,35.0,1,1.0,0.21260099999972226
565,2,0.2,0.0,35.0,1,1.0,0.2762009999996735
566,2,0.2,0.0625,35.0,-1,0.0,0.6165009999999711
567,2,0.2,0.25,35.0,1,1.0,0.26340099999970334
568,2,0.2,0.125,-35.0,1,0.0,33.730301000000054
569,2,0.2,0.0625,35.0,1,1.0,0.8628010000002178
570,2,0.2,1.0,-35.0,-1,1.0,19.47640100000035
571,2,0.2,0.0625,-35.0,-1,1.0,1.0447009999998045
572,2,0.2,0.125,-35.0,-1,1.0,0.5850009999994654
573,2,0.2,0.25,35.0,1,1.0,0.2653009999999085
574,2,0.2,0.0625,35.0,1,1.0,0.2688009999997121
575,2,0.2,1.0,35.0,1,1.0,0.2492010000000846
576,2,0.2,0.0625,-35.0,1,0.0,0.6192009999999755
577,2,0.2,1.0,-35.0,-1,1.0,18.313000999999986
578,2,0.2,0.125,35.0,1,1.0,0.5778009999999085
579,2,0.2,0.0625,-35.0,-1,1.0,31.044700999999804
580,2,0.2,1.0,35.0,1,1.0,0.21370100000012826
581,2,0.2,0.25,35.0,1,1.0,0.2439009999998234
582,2,0.2,0.25,35.0,1,1.0,0.34740099999999074
583,2,0.2,1.0,-35.0,-1,1.0,17.694300999999996
584,2,0.2,1.0,35.0,1,1.0,0.21910099999968224
585,2,0.2,0.125,35.0,1,1.0,0.8876009999999042
586,2,0.2,1.0,35.0,1,1.0,0.29800099999965823
587,2,0.2,0.25,-35.0,-1,1.0,18.228100999999697
588,2,0.2,0.25,35.0,1,1.0,0.3729009999997288
589,2,0.2,0.125,35.0,1,1.0,0.5599010000000817
590,2,0.2,0.25,35.0,1,1.0,2.1434009999998125
591,2,0.2,0.25,-35.0,0,0.0,59.99720100000013
592,2,0.2,0.0,35.0,-1,0.0,43.121500999999625
593,2,0.2,1.0,35.0,1,1.0,0.2865009999995891
594,2,0.2,0.125,35.0,-1,0.0,4.313301000000138
595,2,0.2,0.0625,35.0,1,1.0,0.44400099999984377
596,2,0.2,0.0625,35.0,1,1.0,0.1674009999996997
597,2,0.2,0.125,35.0,1,1.0,0.4410010000001421
598,2,0.2,0.25,35.0,1,1.0,0.29800099999965823
599,2,0.2,0.25,35.0,1,1.0,0.35160099999984595
600,2,0.2,0.25,-35.0,1,0.0,0.19850099999985105
601,2,0.2,0.25,35.0,1,1.0,0.1788010000000213
602,2,0.2,0.0,35.0,-1,0.0,0.8524010000000999
603,2,0.2,0.125,35.0,1,1.0,4.6161010000000715
604,2,0.8,0.25,-35.0,1,0.0,0.22660099999984595
605,2,0.8,0.125,35.0,1,1.0,0.2636010000001079
606,2,0.8,0.0625,-35.0,-1,1.0,14.22380099999964
607,2,0.8,0.0625,-35.0,-1,1.0,23.791701000000103
608,2,0.8,1.0,35.0,1,1.0,0.255200999999488
609,2,0.8,0.25,-35.0,-1,1.0,33.49720099999968
610,2,0.8,0.25,-35.0,-1,1.0,0.5196009999995113
611,2,0.8,1.0,-35.0,-1,1.0,0.44310099999938757
612,2,0.8,1.0,-35.0,-1,1.0,0.5734009999996488
613,2,0.8,1.0,-35.0,-1,1.0,9.407001000000037
614,2,0.8,0.25,-35.0,1,0.0,0.3145009999998365
615,2,0.8,0.125,-35.0,-1,1.0,0.724800999999843
616,2,0.8,0.125,-35.0,1,0.0,15.37840099999994
617,2,0.8,0.0625,35.0,1,1.0,0.36640099999976883
618,2,0.8,1.0,-35.0,-1,1.0,20.493601000000126
619,2,0.8,0.125,-35.0,-1,1.0,9.515100999999959
620,2,0.8,1.0,-35.0,1,0.0,15.58600099999967
621,2,0.8,0.0625,-35.0,-1,1.0,59.96080099999972
622,2,0.8,0.25,-35.0,-1,1.0,0.9717009999994843
623,2,0.8,1.0,-35.0,1,0.0,3.86520100000007
1,3,0.5,0.0,-35.0,-1,1.0,
2,3,0.5,1.0,-35.0,-1,1.0,
3,3,0.5,0.0625,35.0,-1,0.0,
4,3,0.5,0.125,-35.0,-1,1.0,
5,3,0.5,0.0,-35.0,-1,1.0,-0.925100999999998
6,3,0.5,0.0625,-35.0,-1,1.0,0.25230000000000175
7,3,0.5,0.0625,35.0,-1,0.0,0.19320000000000093
8,3,0.5,0.0,-35.0,-1,1.0,0.20660000000000167
9,3,0.5,1.0,-35.0,-1,1.0,0.18660000000000565
10,3,0.5,0.125,-35.0,-1,1.0,0.18780000000000285
11,3,0.5,1.0,-35.0,-1,1.0,5.291400000000003
12,3,0.5,0.25,-35.0,-1,1.0,0.4333999999999989
13,3,0.5,1.0,35.0,1,1.0,0.2892999999999972
14,3,0.5,1.0,-35.0,-1,1.0,0.5135000000000076
15,3,0.5,0.0625,-35.0,-1,1.0,0.1717999999999975
16,3,0.5,0.25,-35.0,-1,1.0,0.2138999999999811
17,3,0.5,0.125,35.0,-1,0.0,0.191599999999994
18,3,0.5,0.25,-35.0,-1,1.0,0.18719999999999004
19,3,0.5,0.0625,-35.0,-1,1.0,0.18489999999998474
20,3,0.5,0.0,35.0,-1,0.0,0.5781999999999954
21,3,0.5,0.0625,35.0,-1,0.0,0.2079999999999984
22,3,0.5,0.0625,35.0,-1,0.0,0.2078999999999951
23,3,0.5,0.0,-35.0,-1,1.0,2.1706999999999823
24,3,0.5,0.0,-35.0,-1,1.0,0.8797999999999888
25,3,0.5,0.125,-35.0,-1,1.0,0.2529999999999859
26,3,0.5,0.125,-35.0,-1,1.0,0.18909999999999627
27,3,0.5,1.0,-35.0,-1,1.0,0.2278999999999911
28,3,0.5,1.0,35.0,1,1.0,0.6041000000000025
29,3,0.5,0.25,35.0,1,1.0,0.41669999999999163
30,3,0.5,0.125,-35.0,-1,1.0,0.24960000000000093
31,3,0.5,0.125,35.0,1,1.0,0.4059999999999917
32,3,0.5,0.25,35.0,1,1.0,0.4391000000000247
33,3,0.5,0.0625,35.0,-1,0.0,0.651299999999992
34,3,0.5,0.125,35.0,1,1.0,0.4778999999999769
35,3,0.5,0.125,-35.0,-1,1.0,0.18110000000001492
36,3,0.5,1.0,-35.0,-1,1.0,0.1921000000000106
37,3,0.5,0.0625,-35.0,-1,1.0,0.39289999999999736
38,3,0.5,0.0625,-35.0,-1,1.0,0.18739999999999668
39,3,0.5,0.0625,35.0,-1,0.0,0.3674000000000319
40,3,0.5,0.25,-35.0,-1,1.0,0.17180000000001883
41,3,0.5,0.25,35.0,-1,0.0,0.16970000000000596
42,3,0.5,1.0,35.0,1,1.0,0.7882000000000176
43,3,0.5,1.0,-35.0,-1,1.0,0.3359999999999843
44,3,0.5,0.125,35.0,-1,0.0,0.191599999999994
45,3,0.5,0.0,35.0,-1,0.0,0.25950000000000273
46,3,0.5,0.125,-35.0,-1,1.0,0.40620000000001255
47,3,0.5,0.25,-35.0,-1,1.0,0.17420000000001323
48,3,0.5,1.0,-35.0,-1,1.0,0.4106000000000165
49,3,0.5,0.0625,-35.0,-1,1.0,0.19750000000001933
50,3,0.5,0.0625,35.0,-1,0.0,0.22339999999999804
51,3,0.5,0.0625,-35.0,-1,1.0,0.3100000000000023
52,3,0.5,0.0625,-35.0,-1,1.0,0.16789999999997463
53,3,0.5,0.125,35.0,-1,0.0,0.45470000000000255
54,3,0.5,0.125,35.0,1,1.0,0.32160000000001787
55,3,0.5,0.0,35.0,-1,0.0,0.1634999999999991
56,3,0.5,1.0,35.0,1,1.0,0.18670000000000186
57,3,0.5,0.125,35.0,1,1.0,0.3734999999999786
58,3,0.5,0.25,-35.0,-1,1.0,0.20120000000000005
59,3,0.5,0.125,-35.0,-1,1.0,0.523699999999991
60,3,0.5,0.0,35.0,-1,0.0,0.13990000000001146
61,3,0.5,1.0,-35.0,-1,1.0,1.4078000000000088
62,3,0.5,0.25,35.0,1,1.0,2.0467999999999904
63,3,0.5,0.125,35.0,1,1.0,0.8654999999999973
64,3,0.5,0.125,-35.0,-1,1.0,0.38220000000001164
65,3,0.5,0.125,35.0,-1,0.0,0.3961999999999648
66,3,0.5,0.25,35.0,1,1.0,0.2125000000000341
67,3,0.5,1.0,-35.0,-1,1.0,0.2946999999999207
68,3,0.5,1.0,-35.0,-1,1.0,0.4631999999999721
69,3,0.5,0.0625,-35.0,-1,1.0,0.6723999999999819
70,3,0.5,0.0,35.0,1,1.0,0.23020000000002483
71,3,0.5,0.125,35.0,1,1.0,0.4530000000000314
72,3,0.5,0.125,-35.0,1,0.0,0.503599999999949
73,3,0.5,0.125,-35.0,-1,1.0,0.297300000000007
74,3,0.5,1.0,35.0,1,1.0,0.45339999999993097
75,3,0.5,0.0625,-35.0,-1,1.0,0.714300000000037
76,3,0.5,0.125,-35.0,1,0.0,0.22719999999998208
77,3,0.5,0.125,35.0,1,1.0,0.21639999999996462
78,3,0.5,0.125,-35.0,-1,1.0,0.4619999999999891
79,3,0.5,0.0625,-35.0,-1,1.0,0.4008999999999787
80,3,0.5,0.0,-35.0,-1,1.0,0.8554999999999495
81,3,0.5,0.125,-35.0,-1,1.0,0.5441000000000145
82,3,0.5,0.0625,-35.0,-1,1.0,0.23839999999995598
83,3,0.5,0.0,-35.0,-1,1.0,0.3588999999999487
84,3,0.5,0.25,35.0,1,1.0,0.49979999999999336
85,3,0.5,1.0,35.0,1,1.0,0.9137000000000057
86,3,0.5,1.0,35.0,1,1.0,0.5346000000000117
87,3,0.5,0.25,35.0,1,1.0,0.7771000000000186
88,3,0.5,0.125,35.0,-1,0.0,0.18609999999995352
89,3,0.5,1.0,35.0,1,1.0,0.26439999999996644
90,3,0.5,0.25,35.0,1,1.0,0.4882999999999811
91,3,0.8,1.0,-35.0,-1,1.0,0.2565999999999917
92,3,0.8,1.0,35.0,1,1.0,0.28969999999992524
93,3,0.8,1.0,-35.0,-1,1.0,0.38769999999999527
94,3,0.8,0.25,-35.0,-1,1.0,0.3924999999999841
95,3,0.8,0.25,-35.0,-1,1.0,0.4079999999999586
96,3,0.8,1.0,35.0,1,1.0,0.33859999999998536
97,3,0.8,0.125,-35.0,-1,1.0,0.37239999999997053
98,3,0.8,0.0625,-35.0,-1,1.0,0.15059999999994034
99,3,0.8,0.125,-35.0,-1,1.0,0.5921000000000163
100,3,0.8,0.25,35.0,1,1.0,0.3856999999999857
101,3,0.8,0.0625,35.0,-1,0.0,0.5579000000000178
102,3,0.8,0.0625,-35.0,-1,1.0,0.3018999999999892
103,3,0.8,0.0625,35.0,-1,0.0,0.18669999999997344
104,3,0.8,1.0,-35.0,-1,1.0,0.5852999999999611
105,3,0.8,0.25,-35.0,-1,1.0,0.462600000000009
106,3,0.8,1.0,35.0,1,1.0,0.2521999999999025
107,3,0.8,0.125,35.0,-1,0.0,0.1443999999999619
108,3,0.8,0.125,-35.0,-1,1.0,0.16799999999994952
109,3,0.8,0.0625,-35.0,-1,1.0,0.43159999999994625
110,3,0.8,1.0,-35.0,-1,1.0,0.2218000000000302
111,3,0.8,0.25,-35.0,-1,1.0,0.3687999999999647
112,3,0.8,0.25,-35.0,-1,1.0,0.43899999999996453
113,3,0.8,0.25,-35.0,-1,1.0,0.19719999999995252
114,3,0.8,0.0,35.0,-1,0.0,0.7752999999999588
115,3,0.8,1.0,-35.0,-1,1.0,0.22199999999998
116,3,0.8,0.25,35.0,1,1.0,0.43749999999994316
117,3,0.8,0.125,-35.0,-1,1.0,0.20429999999998927
118,3,0.8,0.25,-35.0,-1,1.0,0.4732999999999379
119,3,0.8,1.0,-35.0,-1,1.0,0.2658000000000129
120,3,0.8,0.0,35.0,-1,0.0,0.2757000000000289
121,3,0.8,0.0,-35.0,-1,1.0,0.30769999999995434
122,3,0.8,0.125,-35.0,-1,1.0,0.2677999999999656
123,3,0.8,0.25,-35.0,-1,1.0,0.3733999999999469
124,3,0.8,0.0,-35.0,1,0.0,0.36599999999998545
125,3,0.8,0.0625,-35.0,-1,1.0,0.448599999999999
126,3,0.8,0.0625,-35.0,-1,1.0,0.32450000000000045
127,3,0.8,0.25,-35.0,-1,1.0,0.48900000000003274
128,3,0.8,0.0625,-35.0,-1,1.0,0.34199999999998454
129,3,0.8,0.125,-35.0,-1,1.0,0.33499999999997954
130,3,0.8,0.0625,35.0,-1,0.0,0.4645999999999617
131,3,0.8,0.0625,-35.0,-1,1.0,0.23349999999999227
132,3,0.8,1.0,35.0,1,1.0,0.20010000000002037
133,3,0.8,1.0,-35.0,-1,1.0,0.5079999999999814
134,3,0.8,0.25,-35.0,-1,1.0,0.23329999999998563
135,3,0.8,1.0,35.0,1,1.0,0.4638999999999669
136,3,0.8,1.0,-35.0,-1,1.0,0.27340000000003783
137,3,0.8,0.125,-35.0,-1,1.0,0.2857000000000198
138,3,0.8,1.0,35.0,1,1.0,0.21199999999998909
139,3,0.8,0.0625,-35.0,1,0.0,0.3285000000000764
140,3,0.8,0.25,-35.0,1,0.0,0.24650000000008276
141,3,0.8,0.0,-35.0,-1,1.0,0.364400000000046
142,3,0.8,0.125,-35.0,-1,1.0,0.2545999999999822
143,3,0.8,1.0,-35.0,-1,1.0,0.5167000000001281
144,3,0.8,0.25,-35.0,-1,1.0,0.2218999999998914
145,3,0.8,1.0,-35.0,-1,1.0,0.3728000000000975
146,3,0.8,1.0,-35.0,-1,1.0,0.28449999999998
147,3,0.8,0.25,-35.0,-1,1.0,0.3976000000000113
148,3,0.8,0.25,35.0,-1,0.0,0.3662000000001626
149,3,0.8,0.125,35.0,-1,0.0,0.20710000000008222
150,3,0.8,0.0,-35.0,-1,1.0,0.21870000000012624
151,3,0.8,0.25,-35.0,-1,1.0,0.2356000000000904
152,3,0.2,0.125,35.0,-1,0.0,0.5496000000000549
153,3,0.2,1.0,-35.0,-1,1.0,0.33219999999994343
154,3,0.2,0.0625,35.0,-1,0.0,0.4152000000000271
155,3,0.2,0.0,35.0,-1,0.0,0.30720000000007985
156,3,0.2,1.0,35.0,1,1.0,0.18079999999997654
157,3,0.2,0.0,35.0,-1,0.0,0.11000000000001364
158,3,0.2,0.0625,35.0,1,1.0,0.2557000000000471
159,3,0.2,1.0,35.0,1,1.0,0.26670000000001437
160,3,0.2,0.25,35.0,1,1.0,0.28150000000005093
161,3,0.2,0.25,35.0,1,1.0,0.2297000000000935
162,3,0.2,0.125,-35.0,1,0.0,0.28500000000008185
163,3,0.2,1.0,35.0,1,1.0,0.1995000000000573
164,3,0.2,0.0625,35.0,-1,0.0,11.755200000000173
165,3,0.2,0.25,35.0,1,1.0,0.1977000000000544
166,3,0.2,0.0625,-35.0,-1,1.0,0.2339000000000624
167,3,0.2,0.25,35.0,1,1.0,0.20949999999993452
168,3,0.2,0.125,35.0,1,1.0,0.21510000000000673
169,3,0.2,0.125,35.0,1,1.0,0.19860000000016953
170,3,0.2,0.25,35.0,1,1.0,0.2516000000000531
171,3,0.2,1.0,-35.0,1,0.0,0.16250000000002274
172,3,0.2,0.125,35.0,1,1.0,0.15800000000001546
173,3,0.2,0.25,-35.0,1,0.0,0.23089999999990596
174,3,0.2,0.0,35.0,1,1.0,0.2157999999999447
175,3,0.2,0.125,-35.0,-1,1.0,7.483500000000049
176,3,0.2,0.125,35.0,-1,0.0,0.2581000000000131
177,3,0.2,1.0,-35.0,-1,1.0,0.23640000000000327
178,3,0.2,0.25,35.0,1,1.0,0.26120000000003074
179,3,0.2,1.0,35.0,1,1.0,1.1358000000000175
180,3,0.2,0.0,35.0,1,1.0,0.6592000000000553
181,3,0.2,0.25,-35.0,-1,1.0,0.8927999999999656
182,3,0.2,0.0625,-35.0,-1,1.0,0.3530000000000655
183,3,0.2,0.25,35.0,1,1.0,0.23530000000005202
184,3,0.2,0.25,35.0,1,1.0,0.22000000000002728
185,3,0.2,0.0625,35.0,-1,0.0,0.3421000000000731
186,3,0.2,0.125,-35.0,-1,1.0,0.28880000000003747
187,3,0.2,1.0,35.0,1,1.0,0.21869999999989886
188,3,0.8,0.25,-35.0,-1,1.0,0.4088000000001557
189,3,0.8,0.0,-35.0,-1,1.0,0.467200000000048
190,3,0.8,0.25,-35.0,-1,1.0,0.4981000000001359
191,3,0.8,1.0,-35.0,-1,1.0,0.4066000000001395
192,3,0.8,0.125,-35.0,-1,1.0,0.6195000000000164
193,3,0.8,0.25,-35.0,-1,1.0,0.20580000000006748
194,3,0.8,1.0,-35.0,-1,1.0,0.28110000000015134
195,3,0.8,1.0,-35.0,-1,1.0,0.3170999999999822
196,3,0.8,0.125,-35.0,-1,1.0,0.2964000000000624
197,3,0.8,0.125,-35.0,-1,1.0,0.23900000000003274
198,3,0.8,0.25,35.0,1,1.0,0.3141000000000531
199,3,0.8,1.0,-35.0,-1,1.0,0.22840000000007876
200,3,0.8,0.25,-35.0,1,0.0,0.2949999999999591
201,3,0.8,0.0625,-35.0,-1,1.0,0.25490000000013424
202,3,0.8,0.0,35.0,-1,0.0,0.5018000000001166
203,3,0.8,0.0,-35.0,-1,1.0,0.3584999999999354
204,3,0.8,0.0625,-35.0,-1,1.0,0.6543000000000347
205,3,0.8,0.25,-35.0,-1,1.0,0.3946000000000822
206,3,0.8,0.25,-35.0,-1,1.0,0.3026000000000977
207,3,0.8,0.0,35.0,-1,0.0,0.3067000000000917
208,3,0.8,0.125,-35.0,-1,1.0,0.34149999999999636
209,3,0.8,0.0625,-35.0,-1,1.0,0.3088999999999942
210,3,0.8,0.125,-35.0,-1,1.0,0.551900000000046
211,3,0.8,0.25,-35.0,-1,1.0,0.6462000000000216
212,3,0.8,0.125,-35.0,-1,1.0,0.17040000000008604
213,3,0.8,0.0625,35.0,1,1.0,1.9230000000001155
214,3,0.8,0.0625,-35.0,-1,1.0,1.2991000000000668
215,3,0.8,1.0,-35.0,-1,1.0,0.4941000000001168
216,3,0.8,0.0625,-35.0,-1,1.0,0.35149999999998727
217,3,0.8,0.0,-35.0,-1,1.0,0.2296000000001186
218,3,0.8,0.25,-35.0,-1,1.0,0.37770000000000437
219,3,0.8,1.0,35.0,1,1.0,0.23510000000010223
220,3,0.8,0.0625,-35.0,-1,1.0,0.7225999999999431
221,3,0.8,0.25,-35.0,-1,1.0,0.36760000000003856
222,3,0.8,1.0,-35.0,-1,1.0,0.4251000000000431
223,3,0.8,0.0625,-35.0,-1,1.0,0.3711999999999307
224,3,0.8,1.0,-35.0,1,0.0,0.22319999999990614
225,3,0.8,0.0625,35.0,-1,0.0,0.19420000000002346
226,3,0.8,0.0625,-35.0,-1,1.0,0.40990000000010696
227,3,0.2,0.125,35.0,1,1.0,2.4881000000000313
228,3,0.2,0.125,35.0,1,1.0,0.20850000000007185
229,3,0.2,0.125,-35.0,-1,1.0,0.5424000000000433
230,3,0.2,1.0,35.0,1,1.0,0.6977000000001681
231,3,0.2,0.0,35.0,-1,0.0,0.40780000000006567
232,3,0.2,0.0625,35.0,-1,0.0,0.5235000000000127
233,3,0.2,1.0,35.0,1,1.0,0.3222000000000662
234,3,0.2,0.25,35.0,1,1.0,1.1754000000000815
235,3,0.2,0.0625,35.0,-1,0.0,0.27339999999992415
236,3,0.2,0.0625,-35.0,-1,1.0,0.5072999999999865
237,3,0.2,1.0,-35.0,-1,1.0,0.20849999999995816
238,3,0.2,0.25,35.0,1,1.0,0.21610000000009677
239,3,0.2,0.0625,35.0,-1,0.0,0.6490000000000009
240,3,0.2,0.25,35.0,1,1.0,0.2317999999999074
241,3,0.2,1.0,35.0,1,1.0,1.0224000000000615
242,3,0.2,0.0625,35.0,-1,0.0,0.23569999999995161
243,3,0.2,0.0,-35.0,1,0.0,0.2219000000000051
244,3,0.2,0.25,35.0,1,1.0,0.27070000000003347
245,3,0.2,0.125,35.0,-1,0.0,0.24090000000012424
246,3,0.2,1.0,35.0,1,1.0,0.29849999999999
247,3,0.2,0.0625,-35.0,-1,1.0,0.2637000000000853
248,3,0.2,0.125,35.0,-1,0.0,0.35419999999999163
249,3,0.2,0.125,35.0,1,1.0,0.4841000000000122
250,3,0.2,0.0625,35.0,-1,0.0,0.4171000000000049
251,3,0.2,0.25,35.0,1,1.0,0.17629999999996926
252,3,0.2,0.0625,-35.0,-1,1.0,0.20320000000003802
253,3,0.2,0.0625,35.0,1,1.0,4.403500000000008
254,3,0.2,0.25,35.0,1,1.0,0.2074000000000069
255,3,0.2,0.25,-35.0,-1,1.0,0.45090000000004693
256,3,0.2,0.0625,35.0,-1,0.0,0.5711000000000013
257,3,0.2,1.0,35.0,1,1.0,0.2116000000000895
258,3,0.2,0.0,35.0,-1,0.0,0.5117000000000189
259,3,0.2,1.0,35.0,1,1.0,0.20199999999999818
260,3,0.2,0.0625,-35.0,-1,1.0,0.3188999999999851
261,3,0.2,0.125,35.0,-1,0.0,0.33910000000014406
262,3,0.2,0.0625,35.0,1,1.0,0.23939999999993233
263,3,0.2,0.25,35.0,1,1.0,0.9596000000001368
264,3,0.2,0.0625,35.0,1,1.0,1.8532000000000153
265,3,0.2,0.0625,35.0,1,1.0,0.3768999999999778
266,3,0.2,0.125,35.0,1,1.0,1.203800000000001
267,3,0.2,0.0,35.0,1,1.0,0.37419999999997344
268,3,0.2,0.0625,35.0,1,1.0,0.3944000000001324
269,3,0.2,0.125,35.0,1,1.0,0.24470000000019354
270,3,0.2,0.0625,35.0,1,1.0,0.21149999999988722
271,3,0.2,0.125,-35.0,-1,1.0,0.7783999999999196
272,3,0.2,0.0625,35.0,-1,0.0,1.1585999999997512
273,3,0.2,0.0625,35.0,1,1.0,0.2623000000000957
274,3,0.2,0.25,35.0,1,1.0,0.22580000000016298
275,3,0.2,0.125,35.0,1,1.0,0.25270000000000437
276,3,0.2,1.0,35.0,1,1.0,0.2062999999998283
277,3,0.2,0.0,35.0,-1,0.0,0.559800000000223
278,3,0.2,0.125,35.0,1,1.0,0.19010000000002947
279,3,0.2,0.0,-35.0,1,0.0,0.2601999999999407
280,3,0.2,0.25,35.0,1,1.0,0.1607000000001335
281,3,0.2,0.125,35.0,1,1.0,0.25739999999996144
282,3,0.2,1.0,35.0,1,1.0,0.20430000000033033
283,3,0.2,0.125,35.0,1,1.0,0.3611000000000786
284,3,0.2,0.125,35.0,1,1.0,0.5446999999999207
285,3,0.2,1.0,35.0,1,1.0,0.20159999999987122
286,3,0.2,0.125,35.0,1,1.0,1.6517999999998665
287,3,0.2,0.25,-35.0,1,0.0,0.20210000000020045
288,3,0.2,0.125,35.0,1,1.0,0.21920000000000073
289,3,0.2,0.125,35.0,1,1.0,0.1793999999999869
290,3,0.2,0.25,35.0,1,1.0,0.20630000000005566
291,3,0.2,0.125,-35.0,1,0.0,0.19980000000009568
292,3,0.2,0.125,35.0,1,1.0,0.42360000000030595
293,3,0.2,0.0625,35.0,1,1.0,0.3370999999997366
294,3,0.2,1.0,35.0,1,1.0,0.18410000000017135
295,3,0.2,0.25,35.0,1,1.0,0.43429999999989377
296,3,0.8,0.25,35.0,1,1.0,0.2077999999999065
297,3,0.8,0.0,-35.0,-1,1.0,9.198000000000093
298,3,0.8,0.0,-35.0,-1,1.0,0.378800000000183
299,3,0.8,0.25,-35.0,-1,1.0,0.449100000000044
300,3,0.8,0.0625,-35.0,-1,1.0,0.55600000000004
301,3,0.8,0.0,-35.0,-1,1.0,0.3661000000001877
302,3,0.8,0.0625,-35.0,-1,1.0,0.26969999999982974
303,3,0.8,0.125,-35.0,-1,1.0,0.28340000000002874
304,3,0.8,0.0625,-35.0,-1,1.0,0.396900000000187
305,3,0.8,0.0,-35.0,-1,1.0,0.5803999999998268
306,3,0.8,0.0625,-35.0,-1,1.0,0.35410000000001673
307,3,0.8,1.0,-35.0,-1,1.0,0.3510000000001128
308,3,0.8,0.0625,35.0,1,1.0,0.5479000000000269
309,3,0.8,1.0,-35.0,-1,1.0,0.4615000000001146
310,3,0.8,0.25,-35.0,-1,1.0,0.7483999999999469
311,3,0.8,0.125,-35.0,-1,1.0,0.5253999999999905
312,3,0.8,0.0,-35.0,-1,1.0,0.3588999999999487
313,3,0.8,0.25,-35.0,-1,1.0,0.3328000000001339
314,3,0.8,0.0625,-35.0,-1,1.0,0.2829999999999018
315,3,0.8,0.125,-35.0,-1,1.0,0.42000000000007276
316,3,0.8,1.0,-35.0,-1,1.0,0.3970000000001619
317,3,0.8,0.0,-35.0,-1,1.0,0.21720000000004802
318,3,0.8,0.0625,-35.0,-1,1.0,0.6406999999999243
319,3,0.8,0.25,-35.0,-1,1.0,0.4778000000001157
320,3,0.8,0.0625,-35.0,-1,1.0,0.4680000000000746
321,3,0.8,0.0625,-35.0,-1,1.0,0.5150000000001
322,3,0.8,0.0625,-35.0,-1,1.0,0.33530000000018845
323,3,0.8,0.125,-35.0,-1,1.0,0.31560000000013133
324,3,0.8,0.25,-35.0,-1,1.0,0.4125000000001364
325,3,0.8,0.0,-35.0,-1,1.0,2.675999999999931
326,3,0.8,1.0,-35.0,-1,1.0,0.45650000000000546
327,3,0.8,0.0625,-35.0,-1,1.0,0.42010000000004766
328,3,0.8,0.0,-35.0,-1,1.0,0.25700000000006185
329,3,0.8,0.25,-35.0,-1,1.0,0.33390000000008513
330,3,0.8,0.125,-35.0,-1,1.0,0.32749999999987267
331,3,0.8,1.0,-35.0,1,0.0,0.18770000000017717
332,3,0.8,1.0,35.0,1,1.0,0.24809999999979482
333,3,0.8,0.25,35.0,1,1.0,0.2217000000000553
334,3,0.8,0.0625,-35.0,-1,1.0,0.4151000000001659
335,3,0.8,0.0625,-35.0,-1,1.0,0.2920999999998912
336,3,0.8,1.0,-35.0,-1,1.0,0.6190000000001419
337,3,0.8,0.0625,-35.0,-1,1.0,0.31599999999980355
338,3,0.8,0.0625,-35.0,-1,1.0,0.45280000000002474
339,3,0.8,0.0625,-35.0,-1,1.0,0.4231000000002041
340,3,0.8,0.0,35.0,-1,0.0,3.8233000000000175
341,3,0.8,0.25,-35.0,-1,1.0,0.4538000000000011
342,3,0.8,0.0625,-35.0,-1,1.0,0.31729999999993197
343,3,0.8,0.0,-35.0,-1,1.0,0.3143000000000029
344,3,0.8,1.0,-35.0,-1,1.0,0.4678999999998723
345,3,0.8,1.0,-35.0,-1,1.0,0.2880999999999858
346,3,0.8,0.0,-35.0,-1,1.0,0.42830000000003565
347,3,0.8,0.0,-35.0,-1,1.0,0.1752000000001317
348,3,0.8,0.125,-35.0,-1,1.0,0.9787999999998647
349,3,0.8,0.25,-35.0,-1,1.0,0.4391000000002805
350,3,0.8,0.0625,-35.0,1,0.0,0.1959999999999127
351,3,0.8,0.125,35.0,1,1.0,0.24969999999984793
352,3,0.8,0.25,-35.0,-1,1.0,0.42650000000003274
353,3,0.8,0.125,-35.0,-1,1.0,0.533500000000231
354,3,0.8,1.0,-35.0,-1,1.0,0.25700000000006185
355,3,0.8,1.0,35.0,1,1.0,0.24719999999979336
356,3,0.8,0.25,-35.0,-1,1.0,0.3007999999999811
357,3,0.8,0.0625,-35.0,1,0.0,0.28099999999994907
358,3,0.8,0.125,35.0,1,1.0,0.2214000000001306
359,3,0.8,0.25,-35.0,-1,1.0,0.6282000000001062
360,3,0.8,0.25,-35.0,-1,1.0,0.25510000000008404
361,3,0.8,0.125,-35.0,-1,1.0,0.3952999999999065
362,3,0.8,0.25,-35.0,-1,1.0,0.56899999999996
363,3,0.8,1.0,-35.0,1,0.0,4.382500000000164
364,3,0.8,0.125,-35.0,-1,1.0,0.6066000000000713
365,3,0.8,0.125,-35.0,-1,1.0,0.5467000000001008
366,3,0.8,0.125,-35.0,-1,1.0,0.19700000000011642
367,3,0.8,0.125,-35.0,-1,1.0,0.3605000000000018
368,3,0.8,0.0625,-35.0,-1,1.0,0.3606999999999516
369,3,0.8,0.125,-35.0,-1,1.0,0.3509000000001379
370,3,0.8,0.125,-35.0,-1,1.0,0.6111000000000786
371,3,0.8,0.125,35.0,1,1.0,0.22479999999995925
372,3,0.8,0.125,-35.0,-1,1.0,0.4816000000000713
373,3,0.8,0.0625,-35.0,-1,1.0,0.31520000000023174
374,3,0.8,0.0625,-35.0,-1,1.0,0.4088000000001557
375,3,0.8,1.0,-35.0,-1,1.0,0.3589999999999236
376,3,0.8,0.0625,35.0,-1,0.0,0.9325999999998658
377,3,0.8,1.0,35.0,1,1.0,0.236299999999801
378,3,0.8,0.0,-35.0,-1,1.0,0.2863999999999578
379,3,0.8,0.125,-35.0,-1,1.0,0.38669999999979154
380,3,0.8,0.25,-35.0,-1,1.0,0.31349999999997635
381,3,0.8,0.25,-35.0,-1,1.0,0.1971000000000913
382,3,0.8,0.25,-35.0,-1,1.0,0.15059999999994034
383,3,0.8,0.25,-35.0,-1,1.0,0.3427000000001499
384,3,0.2,0.0,-35.0,-1,1.0,0.4377999999999247
385,3,0.2,0.0625,35.0,-1,0.0,0.3147000000001299
386,3,0.2,1.0,35.0,1,1.0,0.25830000000019027
387,3,0.2,0.125,-35.0,-1,1.0,0.2219000000000051
388,3,0.2,1.0,35.0,1,1.0,0.32539999999994507
389,3,0.2,0.125,35.0,1,1.0,0.26900000000023283
390,3,0.2,1.0,35.0,1,1.0,0.2258999999999105
391,3,0.2,0.125,35.0,1,1.0,0.2595000000001164
392,3,0.2,0.25,35.0,1,1.0,0.5330000000001291
393,3,0.2,1.0,-35.0,-1,1.0,2.9365000000000236
394,3,0.2,0.125,35.0,1,1.0,0.30700000000024374
395,3,0.2,1.0,35.0,1,1.0,0.4738999999999578
396,3,0.2,0.25,35.0,1,1.0,0.4841000000001259
397,3,0.2,0.25,35.0,1,1.0,0.45440000000007785
398,3,0.2,0.0625,35.0,-1,0.0,0.44790000000011787
399,3,0.2,0.0,35.0,-1,0.0,22.4516000000001
400,3,0.2,0.0,35.0,-1,0.0,0.4599000000000615
401,3,0.2,0.125,35.0,1,1.0,0.7101999999999862
402,3,0.2,0.125,35.0,-1,0.0,0.21710000000007312
403,3,0.2,1.0,35.0,1,1.0,0.23739999999997963
404,3,0.2,0.25,-35.0,1,0.0,9.901000000000067
405,3,0.2,1.0,35.0,1,1.0,0.1953000000000884
406,3,0.2,1.0,35.0,1,1.0,0.2920000000001437
407,3,0.2,1.0,-35.0,-1,1.0,0.32900000000017826
408,3,0.2,0.25,35.0,1,1.0,0.2825000000000273
409,3,0.2,0.25,35.0,1,1.0,0.2595000000001164
410,3,0.2,0.25,35.0,1,1.0,0.47289999999998145
411,3,0.2,0.0625,-35.0,1,0.0,0.18980000000010477
412,3,0.2,0.0,35.0,-1,0.0,6.860100000000102
413,3,0.2,1.0,35.0,1,1.0,0.30080000000020846
414,3,0.2,1.0,35.0,1,1.0,0.31780000000003383
415,3,0.2,1.0,35.0,1,1.0,0.4046000000000731
416,3,0.2,0.25,35.0,1,1.0,0.25810000000024047
417,3,0.2,0.25,-35.0,-1,1.0,0.6616999999998825
418,3,0.2,0.0625,35.0,-1,0.0,0.6486999999999625
419,3,0.2,0.25,35.0,1,1.0,0.23230000000012296
420,3,0.2,0.0,35.0,1,1.0,2.435899999999947
421,3,0.2,0.25,-35.0,-1,1.0,0.4829000000001997
422,3,0.2,1.0,35.0,1,1.0,0.4197999999998956
423,3,0.2,0.0625,35.0,-1,0.0,0.26340000000004693
424,3,0.2,0.25,35.0,1,1.0,1.5503000000001066
425,3,0.2,0.0625,35.0,-1,0.0,0.5740000000000691
426,3,0.2,0.0,35.0,1,1.0,0.2476000000001477
427,3,0.2,0.0625,-35.0,-1,1.0,0.37779999999997926
428,3,0.2,0.0625,35.0,-1,0.0,1.1014000000000124
429,3,0.2,0.0,35.0,1,1.0,0.24839999999994689
430,3,0.2,0.0625,-35.0,-1,1.0,0.4553000000000793
431,3,0.2,0.25,35.0,-1,0.0,0.16560000000004038
432,3,0.2,0.0625,35.0,-1,0.0,0.699100000000044
433,3,0.2,1.0,35.0,1,1.0,0.19420000000013715
434,3,0.2,0.25,35.0,1,1.0,0.34960000000000946
435,3,0.2,0.0,35.0,-1,0.0,0.5132000000000971
436,3,0.2,0.125,35.0,1,1.0,0.45679999999993015
437,3,0.2,1.0,35.0,1,1.0,0.22710000000006403
438,3,0.2,0.125,35.0,1,1.0,3.1440000000000055
439,3,0.2,0.0625,35.0,1,1.0,0.34760000000005675
440,3,0.2,1.0,35.0,1,1.0,0.18460000000004584
441,3,0.8,0.125,-35.0,-1,1.0,0.768100000000004
442,3,0.8,0.25,-35.0,-1,1.0,0.33169999999995525
443,3,0.8,0.125,-35.0,-1,1.0,0.6019000000001142
444,3,0.8,0.0625,-35.0,-1,1.0,0.47880000000009204
445,3,0.8,0.25,35.0,1,1.0,0.2658000000001266
446,3,0.8,1.0,-35.0,1,0.0,0.22590000000013788
447,3,0.8,0.0,-35.0,-1,1.0,0.4761999999998352
448,3,0.8,1.0,35.0,1,1.0,0.22309999999993124
449,3,0.8,0.125,-35.0,-1,1.0,0.7300000000000182
450,3,0.8,0.0625,-35.0,1,0.0,0.27710000000001855
451,3,0.8,0.25,-35.0,-1,1.0,0.5239000000001397
452,3,0.8,0.125,-35.0,-1,1.0,0.8742999999999483
453,3,0.8,0.125,-35.0,-1,1.0,0.547800000000052
454,3,0.8,0.25,-35.0,-1,1.0,0.31790000000000873
455,3,0.8,1.0,-35.0,-1,1.0,0.27480000000014115
456,3,0.8,0.25,-35.0,-1,1.0,0.2717999999999847
457,3,0.8,0.0625,-35.0,-1,1.0,0.41869999999994434
458,3,0.8,1.0,-35.0,-1,1.0,11.399000000000115
459,3,0.8,0.0625,-35.0,-1,1.0,0.6901000000002568
460,3,0.8,0.0,-35.0,1,0.0,0.22680000000013933
461,3,0.8,0.125,35.0,1,1.0,0.23040000000014516
462,3,0.8,0.125,-35.0,1,0.0,1.337400000000116
463,3,0.8,1.0,-35.0,1,0.0,0.4711000000002059
464,3,0.8,0.0,35.0,-1,0.0,18.847999999999956
465,3,0.8,1.0,-35.0,-1,1.0,0.29290000000014516
466,3,0.8,0.0625,-35.0,-1,1.0,0.36320000000023356
467,3,0.8,0.0,-35.0,-1,1.0,0.900000000000091
468,3,0.8,0.0625,-35.0,-1,1.0,0.7704000000001088
469,3,0.8,0.0625,-35.0,-1,1.0,1.6239000000000487
470,3,0.8,0.125,-35.0,-1,1.0,0.6510000000000673
471,3,0.8,0.0,-35.0,-1,1.0,0.7644999999999982
472,3,0.8,0.0625,35.0,-1,0.0,0.3681000000001404
473,3,0.8,0.0625,-35.0,1,0.0,0.2583999999999378
474,3,0.8,0.25,-35.0,-1,1.0,1.2920000000001437
475,3,0.8,0.25,-35.0,-1,1.0,10.02559999999994
476,3,0.8,0.0625,-35.0,-1,1.0,0.35980000000017753
477,3,0.8,1.0,35.0,1,1.0,0.29680000000007567
478,3,0.8,0.0625,-35.0,-1,1.0,23.25689999999986
479,3,0.8,0.0,35.0,-1,0.0,2.5720000000001164
480,3,0.8,0.25,-35.0,1,0.0,20.569099999999935
481,3,0.8,0.125,-35.0,-1,1.0,23.51090000000022
482,3,0.8,0.125,-35.0,1,0.0,12.192499999999654
483,3,0.8,0.25,-35.0,-1,1.0,1.5369999999998072
484,3,0.8,0.125,-35.0,-1,1.0,1.0704999999998108
485,3,0.8,0.0,-35.0,-1,1.0,4.427499999999782
486,3,0.8,0.25,-35.0,-1,1.0,17.674599999999828
487,3,0.8,0.0625,-35.0,1,0.0,0.212699999999586
488,3,0.8,0.0,35.0,1,1.0,6.376299999999901
489,3,0.8,0.0625,-35.0,-1,1.0,5.827099999999518
490,3,0.2,0.0625,35.0,1,1.0,0.4642999999996391
491,3,0.2,1.0,35.0,1,1.0,0.21119999999973516
492,3,0.2,0.0625,35.0,1,1.0,12.544799999999668
493,3,0.2,1.0,35.0,1,1.0,0.2091999999993277
494,3,0.2,0.0625,35.0,1,1.0,18.58939999999984
495,3,0.2,0.0625,-35.0,-1,1.0,26.690799999999854
1,4,0.5,1.0,35.0,-1,0.0,3.1734
2,4,0.5,0.0,35.0,-1,0.0,1.3843999999999994
3,4,0.5,1.0,35.0,1,1.0,0.7033999999999985
4,4,0.5,0.0,-35.0,-1,1.0,5.0426
5,4,0.5,0.25,35.0,-1,0.0,4.137699999999999
6,4,0.5,0.0,35.0,-1,0.0,1.3266999999999953
7,4,0.5,0.0,-35.0,-1,1.0,4.840700000000005
8,4,0.5,0.0625,-35.0,-1,1.0,6.275800000000004
9,4,0.5,1.0,-35.0,-1,1.0,1.058799999999998
10,4,0.5,0.25,35.0,-1,0.0,2.5738000000000056
11,4,0.5,0.125,-35.0,-1,1.0,3.276699999999991
12,4,0.5,0.0625,-35.0,-1,1.0,0.3008999999999986
13,4,0.5,0.25,35.0,-1,0.0,0.24150000000000205
14,4,0.5,0.25,-35.0,-1,1.0,0.8149000000000086
15,4,0.5,1.0,-35.0,-1,1.0,0.7544999999999931
16,4,0.5,0.25,35.0,-1,0.0,0.7434000000000083
17,4,0.5,0.25,-35.0,-1,1.0,4.180099999999996
18,4,0.5,0.0,35.0,-1,0.0,0.31929999999999836
19,4,0.5,0.0,35.0,-1,0.0,0.4002000000000123
20,4,0.5,0.0625,-35.0,-1,1.0,2.9537990000000036
21,4,0.5,0.0,35.0,-1,0.0,0.509900000000016
22,4,0.5,0.25,-35.0,-1,1.0,0.3609000000000009
23,4,0.5,0.0,-35.0,-1,1.0,0.8079000000000036
24,4,0.5,1.0,35.0,-1,0.0,0.394999999999996
25,4,0.5,0.25,35.0,1,1.0,1.1000999999999976
26,4,0.5,0.125,35.0,-1,0.0,0.4747999999999877
27,4,0.5,0.0,-35.0,-1,1.0,0.2540000000000191
28,4,0.5,0.0625,35.0,-1,0.0,1.2001999999999953
29,4,0.5,0.0,35.0,-1,0.0,2.088300000000004
30,4,0.5,1.0,35.0,1,1.0,0.3067000000000064
31,4,0.5,0.25,-35.0,-1,1.0,1.72569900000002
32,4,0.5,1.0,-35.0,1,0.0,0.4315990000000056
33,4,0.5,0.25,35.0,1,1.0,1.0767000000000166
34,4,0.5,0.0,35.0,1,1.0,1.8068000000000097
35,4,0.5,0.125,-35.0,-1,1.0,1.1912000000000091
36,4,0.5,0.25,-35.0,1,0.0,2.3825000000000216
37,4,0.5,0.125,-35.0,-1,1.0,1.5862999999999943
38,4,0.5,0.0625,-35.0,1,0.0,1.7580999999999847
39,4,0.5,0.25,35.0,1,1.0,3.3892000000000166
40,4,0.5,1.0,35.0,1,1.0,0.670599999999979
41,4,0.5,1.0,35.0,1,1.0,0.6612999999999829
42,4,0.5,1.0,35.0,1,1.0,2.123199000000028
43,4,0.5,0.0625,-35.0,1,0.0,0.6706990000000133
44,4,0.5,0.0,35.0,1,1.0,0.17839999999998213
45,4,0.5,0.125,35.0,1,1.0,0.4636000000000138
46,4,0.5,1.0,35.0,1,1.0,0.8428000000000395
47,4,0.5,0.125,35.0,1,1.0,0.6007999999999925
48,4,0.5,0.0,-35.0,-1,1.0,1.3618999999999915
49,4,0.5,0.0,35.0,1,1.0,0.6275999999999726
50,4,0.5,0.125,-35.0,1,0.0,1.7066000000000088
51,4,0.5,0.25,35.0,-1,0.0,0.65330000000003
52,4,0.5,0.0,35.0,1,1.0,0.8993999999999858
53,4,0.5,0.125,35.0,-1,0.0,1.5399999999999636
54,4,0.5,0.0625,35.0,-1,0.0,1.4173999999999296
55,4,0.5,0.25,35.0,1,1.0,0.509399999999971
56,4,0.5,1.0,-35.0,-1,1.0,0.24139999999999873
57,4,0.5,0.125,-35.0,1,0.0,6.064099999999996
58,4,0.5,0.25,35.0,-1,0.0,1.2794000000000096
59,4,0.5,0.125,-35.0,-1,1.0,0.909798999999964
60,4,0.5,1.0,35.0,-1,0.0,1.615600000000029
61,4,0.5,0.0,35.0,-1,0.0,0.6268999999999778
62,4,0.5,1.0,35.0,1,1.0,0.5471999999999753
63,4,0.5,0.0,-35.0,1,0.0,1.2181999999999675
64,4,0.5,0.0,-35.0,-1,1.0,2.081200000000024
65,4,0.5,0.0,-35.0,-1,1.0,2.1751990000000205
66,4,0.5,0.125,35.0,1,1.0,0.48069999999995616
67,4,0.5,1.0,-35.0,-1,1.0,2.151699000000008
68,4,0.5,0.125,35.0,1,1.0,0.31450000000000955
69,4,0.5,0.125,-35.0,-1,1.0,0.5866999999999507
70,4,0.5,0.0625,-35.0,-1,1.0,2.409400000000005
71,4,0.5,0.125,-35.0,1,0.0,1.032699999999977
72,4,0.5,0.125,35.0,1,1.0,1.5731000000000108
73,4,0.5,0.25,35.0,1,1.0,0.23259999999993397
74,4,0.5,0.25,-35.0,1,0.0,0.5752999999999133
75,4,0.5,0.25,35.0,1,1.0,1.1354000000000042
76,4,0.5,0.0,35.0,1,1.0,0.9450999999999681
77,4,0.5,1.0,35.0,1,1.0,0.5809999999999604
78,4,0.5,0.25,-35.0,1,0.0,1.856899999999996
79,4,0.5,1.0,-35.0,1,0.0,1.42289999999997
80,4,0.5,1.0,-35.0,1,0.0,2.366299999999967
81,4,0.5,0.0,-35.0,1,0.0,0.306699999999978
82,4,0.5,1.0,35.0,-1,0.0,1.1677000000000248
83,4,0.5,1.0,-35.0,-1,1.0,3.3881000000000085
84,4,0.5,0.0,35.0,1,1.0,0.431699999999978
85,4,0.5,1.0,-35.0,1,0.0,0.8702999999999861
86,4,0.5,0.125,-35.0,1,0.0,2.5756000000000085
87,4,0.5,0.0625,-35.0,-1,1.0,1.8567989999999668
88,4,0.5,0.125,35.0,-1,0.0,0.8141999999999712
89,4,0.5,0.125,35.0,-1,0.0,0.32539900000000443
90,4,0.5,0.25,35.0,-1,0.0,0.22140000000001692
91,4,0.8,0.25,35.0,-1,0.0,0.20169900000001917
92,4,0.8,0.125,-35.0,-1,1.0,2.508199999999931
93,4,0.8,0.0,-35.0,-1,1.0,0.9621000000000208
94,4,0.8,0.0625,-35.0,-1,1.0,0.4585999999999899
95,4,0.8,1.0,-35.0,-1,1.0,1.7547999999999888
96,4,0.8,0.0,-35.0,-1,1.0,0.557598999999982
97,4,0.8,0.25,-35.0,-1,1.0,0.3937999999999988
98,4,0.8,1.0,-35.0,-1,1.0,2.164600000000007
99,4,0.8,0.25,-35.0,-1,1.0,0.23259999999999081
100,4,0.8,0.25,-35.0,-1,1.0,1.7479999999999336
101,4,0.8,0.0625,-35.0,-1,1.0,1.8591000000000122
102,4,0.8,0.0625,-35.0,-1,1.0,1.6307999999999652
103,4,0.8,0.25,-35.0,1,0.0,1.869700000000023
104,4,0.8,0.25,35.0,1,1.0,2.049599999999998
105,4,0.8,0.0,-35.0,-1,1.0,1.4834999999999354
106,4,0.8,1.0,-35.0,1,0.0,0.29820000000000846
107,4,0.8,1.0,-35.0,1,0.0,0.7337999999999738
108,4,0.8,1.0,-35.0,1,0.0,0.2750989999999547
109,4,0.8,0.25,-35.0,-1,1.0,0.6565999999999121
110,4,0.8,0.125,-35.0,-1,1.0,0.7081989999999223
111,4,0.8,0.125,-35.0,-1,1.0,0.7671000000000276
112,4,0.8,1.0,-35.0,-1,1.0,1.1211000000000695
113,4,0.8,1.0,35.0,1,1.0,0.6413989999999785
114,4,0.8,0.0625,-35.0,-1,1.0,0.7392000000000962
115,4,0.8,0.125,-35.0,1,0.0,2.111799000000019
116,4,0.8,0.0,35.0,1,1.0,0.7168000000000347
117,4,0.8,0.125,-35.0,1,0.0,0.4619999999999891
118,4,0.8,1.0,35.0,1,1.0,0.6111999999999398
119,4,0.8,0.0,-35.0,-1,1.0,1.4835000000000491
120,4,0.8,1.0,-35.0,1,0.0,0.7984000000000151
121,4,0.8,0.125,35.0,1,1.0,2.106100000000083
122,4,0.8,0.125,-35.0,-1,1.0,0.7201000000000022
123,4,0.8,0.0625,-35.0,-1,1.0,1.1411990000000287
124,4,0.8,0.125,-35.0,-1,1.0,1.3613989999998921
125,4,0.8,1.0,-35.0,-1,1.0,1.5287999999999329
126,4,0.8,1.0,-35.0,-1,1.0,0.1710000000000491
127,4,0.8,0.125,-35.0,-1,1.0,0.580199999999877
128,4,0.8,0.125,-35.0,-1,1.0,0.7860999999999194
129,4,0.8,0.0625,35.0,-1,0.0,0.9618000000000393
130,4,0.8,0.25,-35.0,-1,1.0,0.2787999999999329
131,4,0.8,0.0,35.0,-1,0.0,1.0283989999999221
132,4,0.8,0.25,35.0,-1,0.0,1.7563000000000102
133,4,0.8,0.25,-35.0,1,0.0,2.4769999999999754
134,4,0.8,1.0,-35.0,1,0.0,1.909099999999853
135,4,0.8,0.0,-35.0,-1,1.0,0.1795990000000529
136,4,0.8,0.0625,-35.0,-1,1.0,2.204298999999992
137,4,0.8,1.0,-35.0,-1,1.0,0.2866999999998825
138,4,0.8,0.125,-35.0,-1,1.0,1.0472999999999502
139,4,0.8,0.0,-35.0,-1,1.0,0.126700000000028
140,4,0.8,0.25,-35.0,-1,1.0,0.5969989999999825
141,4,0.8,0.25,35.0,-1,0.0,0.6347990000000436
142,4,0.8,0.125,35.0,1,1.0,1.2865999999999076
143,4,0.8,0.25,-35.0,-1,1.0,0.32639900000003763
144,4,0.2,0.0,35.0,-1,0.0,2.398400000000038
145,4,0.2,0.125,35.0,1,1.0,0.5412000000000035
146,4,0.2,0.25,-35.0,-1,1.0,1.179399999999987
147,4,0.2,0.125,35.0,1,1.0,0.5438000000000329
148,4,0.2,1.0,35.0,1,1.0,0.9861000000000786
149,4,0.2,0.0625,35.0,-1,0.0,1.3110999999998967
150,4,0.2,0.125,35.0,1,1.0,0.5614000000000487
151,4,0.2,0.0,35.0,1,1.0,2.8297000000000025
152,4,0.2,1.0,-35.0,1,0.0,0.5693989999999758
153,4,0.2,1.0,35.0,1,1.0,0.4855999999999767
154,4,0.2,0.125,35.0,1,1.0,2.3958000000000084
155,4,0.2,0.0,-35.0,-1,1.0,0.7397999999999456
156,4,0.2,0.25,-35.0,1,0.0,0.879099999999994
157,4,0.2,0.25,35.0,1,1.0,1.8669999999999618
158,4,0.2,1.0,35.0,1,1.0,0.713799999999992
159,4,0.2,0.125,35.0,1,1.0,0.7487999999999602
160,4,0.2,0.0,35.0,-1,0.0,0.4301999999998998
161,4,0.2,0.0625,35.0,-1,0.0,2.353399999999965
162,4,0.2,0.125,35.0,-1,0.0,0.4561999999998534
163,4,0.2,1.0,35.0,1,1.0,1.066500000000019
164,4,0.2,0.25,35.0,1,1.0,1.7524000000000797
165,4,0.2,0.0,35.0,-1,0.0,3.050599000000034
166,4,0.2,0.25,35.0,-1,0.0,0.5073990000000776
167,4,0.2,0.125,35.0,-1,0.0,1.9399999999999409
168,4,0.2,1.0,-35.0,1,0.0,1.6716999999998734
169,4,0.2,0.25,35.0,1,1.0,3.662599999999884
170,4,0.2,0.25,35.0,1,1.0,3.1080990000000384
171,4,0.2,0.0,35.0,1,1.0,1.4466999999999643
172,4,0.2,1.0,-35.0,-1,1.0,3.4408999999999423
173,4,0.2,0.0,35.0,1,1.0,7.1898989999999685
174,4,0.2,0.25,-35.0,1,0.0,1.4693000000000893
175,4,0.2,0.125,35.0,1,1.0,14.723698999999897
176,4,0.2,0.125,35.0,-1,0.0,1.94399999999996
177,4,0.2,0.125,35.0,-1,0.0,0.9362989999999627
178,4,0.8,1.0,-35.0,-1,1.0,18.62009999999998
179,4,0.8,0.25,-35.0,-1,1.0,12.05379999999991
180,4,0.8,0.0625,35.0,1,1.0,1.1575999999998885
181,4,0.8,0.0,-35.0,1,0.0,12.898599999999988
182,4,0.8,0.25,-35.0,-1,1.0,2.110098999999991
183,4,0.8,0.0625,-35.0,1,0.0,1.2789999999999964
184,4,0.8,0.125,-35.0,1,0.0,2.7896989999999278
185,4,0.8,0.125,-35.0,-1,1.0,8.403800000000047
186,4,0.8,0.0625,-35.0,-1,1.0,2.803700000000049
187,4,0.8,0.25,-35.0,1,0.0,1.5789000000000897
188,4,0.8,0.0625,35.0,1,1.0,1.0003999999998996
189,4,0.8,0.125,35.0,-1,0.0,5.4325000000000045
190,4,0.8,0.0625,35.0,1,1.0,1.238599000000022
191,4,0.8,0.0,-35.0,-1,1.0,2.3887999999999465
192,4,0.8,0.25,-35.0,1,0.0,0.5959000000000287
193,4,0.8,0.125,-35.0,1,0.0,3.1894999999999527
194,4,0.8,0.0,35.0,-1,0.0,1.0253999999998769
195,4,0.8,0.25,35.0,1,1.0,0.7131999999999152
196,4,0.8,0.0625,-35.0,1,0.0,1.1989990000000716
197,4,0.8,0.0,-35.0,1,0.0,1.9699999999999136
198,4,0.2,1.0,35.0,1,1.0,0.38269999999988613
199,4,0.2,0.0625,35.0,1,1.0,0.22680000000013933
200,4,0.2,0.25,-35.0,1,0.0,2.2059999999999036
201,4,0.2,0.25,35.0,1,1.0,0.4572000000000571
202,4,0.2,1.0,-35.0,1,0.0,0.6928000000000338
203,4,0.2,0.125,35.0,-1,0.0,2.0342000000000553
204,4,0.2,0.25,35.0,-1,0.0,3.400100000000066
205,4,0.2,0.0625,35.0,1,1.0,3.761098999999831
206,4,0.2,0.0,-35.0,1,0.0,4.710599000000002
207,4,0.2,0.25,35.0,1,1.0,0.7914989999999307
208,4,0.2,1.0,35.0,1,1.0,1.8476990000001479
209,4,0.2,0.25,-35.0,-1,1.0,1.4448999999999614
210,4,0.2,1.0,35.0,1,1.0,0.4341999999999189
211,4,0.2,0.0625,-35.0,-1,1.0,2.9618000000000393
212,4,0.2,0.0625,35.0,1,1.0,0.78779899999995
213,4,0.2,0.0,35.0,1,1.0,0.5919000000001233
214,4,0.2,0.0,35.0,1,1.0,2.5678989999998976
215,4,0.2,0.0625,-35.0,1,0.0,2.3855999999998403
216,4,0.2,1.0,35.0,1,1.0,0.3686999999999898
217,4,0.2,0.0625,35.0,1,1.0,1.545898999999963
218,4,0.2,1.0,35.0,1,1.0,0.44499999999993634
219,4,0.2,0.25,35.0,1,1.0,0.7326000000000477
220,4,0.8,1.0,-35.0,1,0.0,1.1650999999999385
221,4,0.8,0.125,-35.0,-1,1.0,0.7194999999999254
222,4,0.8,0.125,-35.0,1,0.0,2.6923999999996795
223,4,0.8,1.0,-35.0,-1,1.0,1.369599999999764
224,4,0.8,0.125,-35.0,1,0.0,0.5190999999999804
225,4,0.8,1.0,-35.0,-1,1.0,1.6864999999997963
226,4,0.8,1.0,35.0,1,1.0,1.6256989999999405
227,4,0.8,0.125,-35.0,1,0.0,0.590099999999893
228,4,0.8,0.25,-35.0,1,0.0,0.3693000000000666
229,4,0.8,0.125,-35.0,-1,1.0,1.8036000000001877
230,4,0.8,0.125,-35.0,-1,1.0,1.6162999999999101
231,4,0.8,1.0,-35.0,-1,1.0,0.3971000000001368
232,4,0.8,0.0625,-35.0,-1,1.0,2.293399000000136
233,4,0.8,1.0,-35.0,-1,1.0,1.070600000000013
234,4,0.8,0.25,-35.0,-1,1.0,2.730000000000018
235,4,0.8,0.25,35.0,-1,0.0,0.6975999999999658
236,4,0.8,1.0,35.0,-1,0.0,0.42010000000004766
237,4,0.8,0.0,-35.0,-1,1.0,1.507998999999927
238,4,0.8,0.25,-35.0,-1,1.0,2.3906999999999243
239,4,0.8,0.0,-35.0,-1,1.0,1.6579000000001543
240,4,0.8,0.0,-35.0,-1,1.0,1.4471999999998388
241,4,0.8,1.0,-35.0,-1,1.0,0.3148990000001959
242,4,0.8,0.25,-35.0,-1,1.0,0.49129999999991014
243,4,0.8,0.25,-35.0,-1,1.0,1.6883990000001177
244,4,0.8,0.0625,35.0,-1,0.0,0.8313000000000557
245,4,0.8,1.0,-35.0,-1,1.0,0.6117990000000191
246,4,0.8,0.25,-35.0,-1,1.0,0.4278999999999087
247,4,0.8,0.0,-35.0,-1,1.0,2.768600000000106
248,4,0.8,0.0625,35.0,-1,0.0,1.9680000000000746
249,4,0.8,1.0,-35.0,-1,1.0,1.8657000000000608
250,4,0.8,0.125,-35.0,-1,1.0,1.2616990000001351
251,4,0.8,0.25,-35.0,-1,1.0,2.6058000000000447
252,4,0.8,1.0,-35.0,-1,1.0,0.31839899999977206
253,4,0.8,0.25,35.0,1,1.0,0.6992999999999938
1,5,0.5,1.0,-35.0,-1,1.0,7.4331
2,5,0.5,0.25,35.0,1,1.0,0.5334989999999973
3,5,0.5,0.25,35.0,1,1.0,0.5253999999999976
4,5,0.5,0.0625,35.0,-1,0.0,6.753999999999998
5,5,0.5,0.25,-35.0,-1,1.0,3.6369000000000042
6,5,0.5,1.0,-35.0,-1,1.0,3.3155
7,5,0.5,1.0,-35.0,-1,1.0,8.314600000000006
8,5,0.5,0.0625,35.0,-1,0.0,3.214100000000002
9,5,0.5,0.0625,35.0,-1,0.0,13.978700000000003
10,5,0.5,0.0625,-35.0,-1,1.0,3.3893000000000058
11,5,0.5,1.0,35.0,1,1.0,0.4028989999999908
12,5,0.5,0.125,35.0,1,1.0,0.4233000000000118
13,5,0.5,0.125,-35.0,-1,1.0,0.47979999999999734
14,5,0.5,0.25,35.0,1,1.0,0.3457000000000079
15,5,0.5,0.0,35.0,-1,0.0,1.732600000000005
16,5,0.5,0.0,35.0,1,1.0,10.999800000000008
17,5,0.5,1.0,35.0,1,1.0,0.296599999999998
18,5,0.5,0.0625,-35.0,-1,1.0,3.206099999999992
19,5,0.5,0.125,35.0,1,1.0,0.5150000000000148
20,5,0.5,0.25,-35.0,-1,1.0,1.7735999999999876
21,5,0.5,1.0,-35.0,-1,1.0,3.9157989999999927
22,5,0.5,1.0,-35.0,-1,1.0,3.511599999999987
23,5,0.5,0.0,-35.0,-1,1.0,5.0434999999999945
24,5,0.5,0.0625,-35.0,-1,1.0,5.152900000000017
25,5,0.5,0.25,35.0,1,1.0,0.6286000000000058
26,5,0.5,1.0,-35.0,-1,1.0,3.408799999999985
27,5,0.5,0.125,-35.0,-1,1.0,4.3160000000000025
28,5,0.5,1.0,35.0,1,1.0,0.8015999999999792
29,5,0.5,1.0,35.0,1,1.0,0.9123000000000161
30,5,0.5,1.0,35.0,1,1.0,0.3640000000000043
31,5,0.5,0.125,-35.0,1,0.0,3.663400000000024
32,5,0.5,0.25,35.0,1,1.0,0.9299000000000035
33,5,0.5,0.0,35.0,-1,0.0,5.673599999999993
34,5,0.5,1.0,35.0,1,1.0,0.4266990000000419
35,5,0.5,1.0,-35.0,-1,1.0,2.331198999999998
36,5,0.5,0.125,-35.0,-1,1.0,3.8696999999999946
37,5,0.5,0.25,-35.0,-1,1.0,1.8337999999999965
38,5,0.5,1.0,-35.0,-1,1.0,2.1742989999999907
39,5,0.5,0.0625,-35.0,-1,1.0,3.953800000000001
40,5,0.5,0.125,-35.0,-1,1.0,1.7811989999999867
41,5,0.5,0.125,35.0,1,1.0,0.6885999999999797
42,5,0.5,0.0,-35.0,-1,1.0,1.0925000000000011
43,5,0.5,0.125,35.0,1,1.0,0.4375000000000284
44,5,0.5,0.125,-35.0,-1,1.0,3.5989999999999327
45,5,0.5,0.25,-35.0,-1,1.0,1.0755999999999517
46,5,0.5,0.25,-35.0,-1,1.0,1.200999999999965
47,5,0.5,1.0,-35.0,-1,1.0,0.39749999999997954
48,5,0.5,0.125,35.0,1,1.0,0.6269000000000347
49,5,0.5,1.0,-35.0,-1,1.0,0.44069899999999507
50,5,0.5,0.0,35.0,-1,0.0,0.9655999999999381
51,5,0.5,1.0,35.0,1,1.0,0.32850000000001955
52,5,0.5,0.25,-35.0,-1,1.0,0.6904999999999859
53,5,0.5,0.25,35.0,1,1.0,0.3720989999999915
54,5,0.5,1.0,-35.0,-1,1.0,2.4551999999999907
55,5,0.5,0.25,35.0,1,1.0,0.38129999999995334
56,5,0.5,0.0,-35.0,-1,1.0,0.4914999999999736
57,5,0.5,0.25,-35.0,-1,1.0,0.28659999999996444
58,5,0.5,0.0,-35.0,-1,1.0,3.3746999999999616
59,5,0.5,0.125,35.0,-1,0.0,0.7133999999999787
60,5,0.5,0.25,-35.0,-1,1.0,0.7974989999999593
61,5,0.5,0.125,35.0,1,1.0,0.7328999999999724
62,5,0.5,0.125,35.0,1,1.0,1.6835999999999558
63,5,0.5,0.25,35.0,1,1.0,0.632699999999943
64,5,0.5,0.125,-35.0,1,0.0,3.073498999999913
65,5,0.5,0.0625,-35.0,-1,1.0,4.978399999999965
66,5,0.5,0.0625,35.0,1,1.0,0.6815999999999462
67,5,0.5,0.125,35.0,1,1.0,0.4409999999999741
68,5,0.5,0.125,35.0,1,1.0,0.38229999999998654
69,5,0.5,0.0,-35.0,-1,1.0,1.788099999999929
70,5,0.5,1.0,-35.0,-1,1.0,0.27799999999996317
71,5,0.5,0.25,35.0,1,1.0,0.3463999999999601
72,5,0.5,0.25,35.0,1,1.0,0.3000999999999294
73,5,0.5,0.0625,35.0,1,1.0,0.33619999999996253
74,5,0.5,0.0,-35.0,-1,1.0,1.4218999999999937
75,5,0.5,0.0,-35.0,1,0.0,0.4923999999999751
76,5,0.5,0.0625,35.0,-1,0.0,0.781599999999969
77,5,0.5,0.0,-35.0,1,0.0,0.3657000000000039
78,5,0.5,0.125,-35.0,-1,1.0,3.2701999999999884
79,5,0.5,0.125,35.0,1,1.0,0.31369999999992615
80,5,0.5,0.125,35.0,1,1.0,0.5493000000000166
81,5,0.5,0.0,35.0,-1,0.0,0.9490999999999303
82,5,0.5,0.0,35.0,-1,0.0,4.149798999999973
83,5,0.5,0.0625,35.0,1,1.0,0.3422999999999661
84,5,0.5,0.0625,35.0,-1,0.0,0.6167989999999577
85,5,0.5,0.0625,35.0,1,1.0,0.36729999999994334
86,5,0.5,0.0625,35.0,-1,0.0,1.8788999999999874
87,5,0.5,1.0,35.0,1,1.0,0.27959899999996196
88,5,0.5,1.0,-35.0,-1,1.0,1.8015989999999533
89,5,0.5,0.125,35.0,1,1.0,0.40979999999996153
90,5,0.5,1.0,-35.0,-1,1.0,0.4512999999999465
91,5,0.8,0.0,-35.0,-1,1.0,0.47970000000003665
92,5,0.8,0.0,-35.0,-1,1.0,0.5266999999999484
93,5,0.8,1.0,-35.0,-1,1.0,0.5577999999999861
94,5,0.8,0.25,-35.0,-1,1.0,0.6310990000000061
95,5,0.8,1.0,-35.0,-1,1.0,0.9499000000000137
96,5,0.8,0.0625,-35.0,-1,1.0,1.6218999999999824
97,5,0.8,0.25,-35.0,-1,1.0,2.4073999999999955
98,5,0.8,0.0,-35.0,-1,1.0,1.0250990000000115
99,5,0.8,0.0625,-35.0,-1,1.0,0.3877989999999727
100,5,0.8,0.0625,-35.0,-1,1.0,1.119799999999941
101,5,0.8,0.125,-35.0,-1,1.0,0.5677989999999795
102,5,0.8,1.0,-35.0,-1,1.0,0.7255999999999858
103,5,0.8,0.125,35.0,1,1.0,0.3379989999999111
104,5,0.8,0.25,35.0,-1,0.0,2.990299999999934
105,5,0.8,0.125,-35.0,-1,1.0,2.7257000000000176
106,5,0.8,0.25,-35.0,-1,1.0,0.49939999999992324
107,5,0.8,0.25,-35.0,-1,1.0,1.575999999999965
108,5,0.8,0.125,35.0,-1,0.0,0.5169989999999416
109,5,0.8,0.25,-35.0,-1,1.0,1.1606000000001586
110,5,0.8,0.125,-35.0,-1,1.0,1.091299000000049
111,5,0.8,0.0,-35.0,-1,1.0,0.7442989999999554
112,5,0.8,1.0,-35.0,-1,1.0,0.35360000000002856
113,5,0.8,0.0625,-35.0,-1,1.0,0.5909000000000333
114,5,0.8,0.0,-35.0,-1,1.0,1.370900000000006
115,5,0.8,0.0,35.0,-1,0.0,1.032000000000039
116,5,0.8,0.0,-35.0,-1,1.0,0.9875000000000682
117,5,0.8,0.25,-35.0,-1,1.0,0.4198999999999842
118,5,0.8,0.0,-35.0,-1,1.0,0.5064000000000988
119,5,0.8,0.25,-35.0,-1,1.0,0.6198000000000548
120,5,0.8,0.125,35.0,1,1.0,0.3548000000000684
121,5,0.8,0.25,-35.0,-1,1.0,1.0489000000000033
122,5,0.8,0.25,35.0,1,1.0,0.3001000000000431
123,5,0.8,0.125,-35.0,-1,1.0,0.7597000000000662
124,5,0.8,0.25,35.0,1,1.0,0.3805000000000973
125,5,0.8,0.25,-35.0,-1,1.0,0.4277000000000726
126,5,0.8,1.0,-35.0,-1,1.0,0.693198999999936
127,5,0.8,1.0,35.0,1,1.0,0.3638989999999467
128,5,0.8,0.125,-35.0,-1,1.0,0.6237990000000764
129,5,0.8,0.25,-35.0,-1,1.0,0.4854000000000269
130,5,0.8,0.25,-35.0,-1,1.0,1.6536000000000968
131,5,0.8,1.0,-35.0,-1,1.0,0.8857000000000426
132,5,0.8,0.125,35.0,1,1.0,0.32110000000011496
133,5,0.8,0.0,-35.0,-1,1.0,0.64429900000016
134,5,0.8,0.25,-35.0,-1,1.0,0.35550000000000637
135,5,0.8,1.0,-35.0,-1,1.0,0.5691000000000486
136,5,0.8,0.125,-35.0,-1,1.0,0.7563000000000102
137,5,0.8,0.0,-35.0,-1,1.0,0.3693989999999303
138,5,0.2,0.0625,-35.0,-1,1.0,0.5085000000000264
139,5,0.2,1.0,35.0,1,1.0,0.25670000000002346
140,5,0.2,1.0,35.0,1,1.0,0.23610000000007858
141,5,0.2,0.125,-35.0,1,0.0,0.7716000000000349
142,5,0.2,0.0625,35.0,-1,0.0,0.4192000000000462
143,5,0.2,1.0,35.0,1,1.0,0.25379900000007183
144,5,0.2,0.125,-35.0,-1,1.0,1.6976000000000795
145,5,0.2,0.0625,35.0,1,1.0,0.3908999999999878
146,5,0.2,0.0625,35.0,1,1.0,0.34140000000002146
147,5,0.2,0.125,35.0,1,1.0,0.4677990000000136
148,5,0.2,0.25,35.0,-1,0.0,0.47640000000012606
149,5,0.2,0.0625,35.0,-1,0.0,0.7499990000000025
150,5,0.2,0.125,35.0,-1,0.0,0.5422999999999547
151,5,0.2,0.0625,35.0,-1,0.0,0.6616000000000213
152,5,0.2,0.0,35.0,-1,0.0,0.5441000000000713
153,5,0.2,0.25,35.0,1,1.0,0.2644990000000007
154,5,0.2,0.0,35.0,-1,0.0,3.148400000000038
155,5,0.2,0.125,35.0,1,1.0,0.27919999999994616
156,5,0.2,1.0,35.0,1,1.0,0.6655000000000655
157,5,0.2,0.25,35.0,1,1.0,0.6731999999999516
158,5,0.2,0.25,35.0,1,1.0,0.44249999999999545
159,5,0.2,0.0625,-35.0,-1,1.0,0.4766990000000533
160,5,0.2,1.0,35.0,1,1.0,0.3988000000000511
161,5,0.2,0.25,35.0,1,1.0,0.3990999999999758
162,5,0.2,1.0,-35.0,-1,1.0,2.0410000000000537
163,5,0.2,0.0625,35.0,-1,0.0,0.6016000000000759
164,5,0.2,0.25,35.0,1,1.0,0.422800000000052
165,5,0.2,0.125,35.0,1,1.0,0.4414000000000442
166,5,0.2,0.25,35.0,1,1.0,0.3453989999999294
167,5,0.2,0.125,35.0,1,1.0,0.37390000000004875
168,5,0.2,0.125,35.0,1,1.0,0.4337000000000444
169,5,0.2,0.125,35.0,1,1.0,0.2900000000000773
170,5,0.2,0.0,35.0,1,1.0,1.0827000000000453
171,5,0.2,1.0,35.0,1,1.0,0.32580000000007203
172,5,0.2,0.0625,35.0,-1,0.0,3.7670000000000528
173,5,0.2,1.0,35.0,1,1.0,0.3265999999999849
174,5,0.2,0.25,35.0,1,1.0,0.8034000000000106
175,5,0.2,0.125,35.0,1,1.0,0.6190000000000282
176,5,0.2,0.0,35.0,-1,0.0,2.8631000000000313
177,5,0.2,1.0,35.0,1,1.0,0.37839899999994486
178,5,0.2,0.125,35.0,1,1.0,0.46859900000015386
179,5,0.2,1.0,35.0,1,1.0,0.38419999999996435
180,5,0.2,0.0,35.0,-1,0.0,1.9993999999999232
181,5,0.2,0.125,35.0,1,1.0,0.36580000000003565
182,5,0.2,0.0625,35.0,-1,0.0,2.793600000000083
183,5,0.2,0.125,35.0,1,1.0,0.38029900000003636
184,5,0.2,0.0,35.0,-1,0.0,2.0346000000000686
185,5,0.2,0.125,35.0,1,1.0,0.9512999999999465
186,5,0.2,0.25,-35.0,-1,1.0,0.580600000000004
187,5,0.2,0.0,35.0,-1,0.0,0.9391000000000531
188,5,0.2,0.125,35.0,1,1.0,0.26529999999991105
189,5,0.2,1.0,35.0,1,1.0,0.6364999999999554
190,5,0.2,1.0,-35.0,-1,1.0,0.70049999999992
191,5,0.2,0.0,35.0,-1,0.0,0.7963000000000875
192,5,0.2,1.0,35.0,1,1.0,0.44129900000007183
193,5,0.2,0.25,35.0,1,1.0,0.42180000000007567
194,5,0.2,1.0,35.0,1,1.0,0.6676000000001068
195,5,0.2,0.25,-35.0,-1,1.0,3.663000000000011
196,5,0.2,0.125,-35.0,1,0.0,1.0096999999999525
197,5,0.2,0.125,-35.0,-1,1.0,0.5860000000000127
198,5,0.2,0.25,-35.0,-1,1.0,0.3612999999999147
199,5,0.2,0.125,35.0,-1,0.0,0.7190990000000284
200,5,0.2,0.25,-35.0,-1,1.0,0.5819999999999936
201,5,0.2,0.25,35.0,-1,0.0,1.0644999999999527
202,5,0.2,0.25,35.0,1,1.0,0.3429989999999634
203,5,0.2,1.0,35.0,1,1.0,0.5019000000000915
204,5,0.2,1.0,-35.0,-1,1.0,0.5083000000000766
205,5,0.2,0.0,35.0,-1,0.0,3.4464000000000397
206,5,0.2,0.125,35.0,1,1.0,0.3312990000000582
207,5,0.2,0.0,35.0,1,1.0,0.42849999999998545
208,5,0.2,0.0625,35.0,-1,0.0,0.9463000000000648
209,5,0.2,0.0625,-35.0,1,0.0,0.44899900000007165
210,5,0.2,0.0,35.0,-1,0.0,0.22620000000006257
211,5,0.2,0.0,35.0,-1,0.0,0.4727990000000091
212,5,0.2,0.25,35.0,1,1.0,0.11249999999995453
213,5,0.2,0.0625,35.0,-1,0.0,3.321199999999976
214,5,0.2,0.125,35.0,1,1.0,0.49719999999990705
215,5,0.8,0.25,-35.0,-1,1.0,3.068999000000076
216,5,0.8,1.0,-35.0,-1,1.0,0.7223999999999933
217,5,0.8,0.25,35.0,1,1.0,0.34579999999994016
218,5,0.8,1.0,-35.0,-1,1.0,0.38040000000000873
219,5,0.8,0.0625,-35.0,-1,1.0,0.3617989999999054
220,5,0.8,0.125,-35.0,-1,1.0,1.011398999999983
221,5,0.8,0.0625,-35.0,-1,1.0,2.717899000000102
222,5,0.8,0.0,-35.0,-1,1.0,0.4472000000000662
223,5,0.8,0.0625,-35.0,-1,1.0,0.39610000000004675
224,5,0.8,0.0,-35.0,1,0.0,0.3305000000000291
225,5,0.8,0.25,-35.0,-1,1.0,0.6020990000000666
226,5,0.8,1.0,35.0,1,1.0,0.3871000000000322
227,5,0.8,0.125,-35.0,-1,1.0,0.5150990000000775
228,5,0.8,0.125,-35.0,-1,1.0,1.0049999999999955
229,5,0.8,0.125,-35.0,-1,1.0,0.6179990000000544
230,5,0.8,0.125,-35.0,-1,1.0,0.45050000000003365
231,5,0.8,0.0625,-35.0,-1,1.0,0.7974989999999025
232,5,0.8,0.0625,-35.0,-1,1.0,2.418498999999997
233,5,0.8,0.25,-35.0,-1,1.0,0.6843999999999824
234,5,0.8,0.125,-35.0,-1,1.0,0.4936999999999898
235,5,0.8,0.0,35.0,-1,0.0,0.5531000000000859
236,5,0.8,0.0,-35.0,1,0.0,1.0696990000000142
237,5,0.8,0.25,35.0,1,1.0,0.22190000000011878
238,5,0.8,0.0,35.0,-1,0.0,1.1631000000000995
239,5,0.8,0.0625,-35.0,-1,1.0,2.4420000000000073
240,5,0.8,0.125,-35.0,-1,1.0,0.37999999999999545
241,5,0.8,1.0,35.0,1,1.0,0.315900000000056
242,5,0.8,0.0625,-35.0,-1,1.0,0.15360000000009677
243,5,0.8,0.0625,-35.0,-1,1.0,1.829099000000042
244,5,0.8,0.0625,-35.0,-1,1.0,1.0137999999997191
245,5,0.8,0.125,-35.0,-1,1.0,0.14949999999998909
246,5,0.8,0.0,-35.0,-1,1.0,2.550999999999931
247,5,0.8,0.0,-35.0,-1,1.0,0.5128990000000613
248,5,0.8,0.0625,-35.0,-1,1.0,1.2675000000001546
249,5,0.8,0.25,-35.0,-1,1.0,0.5766000000000986
250,5,0.8,0.0625,-35.0,-1,1.0,0.28099999999994907
251,5,0.8,0.125,-35.0,-1,1.0,2.4978000000000975
252,5,0.8,0.125,-35.0,-1,1.0,0.42460000000005493
253,5,0.8,0.25,-35.0,-1,1.0,0.5235000000002401
254,5,0.8,1.0,-35.0,-1,1.0,0.4112999999999829
255,5,0.8,0.125,-35.0,-1,1.0,0.6368999999999687
256,5,0.8,0.0,35.0,-1,0.0,0.6050000000000182
257,5,0.8,1.0,-35.0,-1,1.0,0.28389999999990323
258,5,0.8,0.25,-35.0,-1,1.0,0.9250000000001819
259,5,0.8,0.0,35.0,-1,0.0,2.850599999999986
260,5,0.8,0.125,-35.0,-1,1.0,0.4054000000000997
261,5,0.8,0.125,-35.0,-1,1.0,0.49749999999994543
262,5,0.8,0.0625,-35.0,-1,1.0,0.7019999999997708
263,5,0.8,0.0625,-35.0,-1,1.0,0.4477999999999156
264,5,0.8,0.125,-35.0,-1,1.0,0.9188990000000103
265,5,0.8,0.0625,35.0,1,1.0,0.43470000000002074
266,5,0.8,1.0,-35.0,1,0.0,0.7058000000001812
267,5,0.8,1.0,-35.0,-1,1.0,0.1314990000000762
268,5,0.8,0.0625,-35.0,-1,1.0,0.4358999999999469
269,5,0.8,1.0,-35.0,-1,1.0,0.4148999999999887
270,5,0.8,0.0625,35.0,1,1.0,0.40600000000017644
271,5,0.8,0.0625,35.0,1,1.0,1.101699999999937
272,5,0.8,0.0,-35.0,-1,1.0,6.042899999999918
273,5,0.8,0.0625,-35.0,-1,1.0,0.7154000000000451
274,5,0.8,0.125,-35.0,-1,1.0,2.9699000000000524
275,5,0.8,0.25,-35.0,-1,1.0,0.7656999999999243
276,5,0.8,1.0,-35.0,-1,1.0,0.5199999999999818
277,5,0.8,0.25,-35.0,-1,1.0,0.7921989999999823
278,5,0.2,0.25,-35.0,-1,1.0,0.5833999999999833
279,5,0.2,0.0625,35.0,1,1.0,0.35580000000004475
280,5,0.2,0.0625,35.0,-1,0.0,0.46689900000001217
281,5,0.2,0.0625,35.0,1,1.0,0.33949900000015987
282,5,0.2,1.0,35.0,1,1.0,0.370600000000195
283,5,0.2,0.0625,-35.0,-1,1.0,2.2561000000000604
284,5,0.2,1.0,35.0,1,1.0,0.30409899999995105
285,5,0.2,0.0,35.0,-1,0.0,2.6129000000000815
286,5,0.2,0.125,35.0,1,1.0,0.24440000000026885
287,5,0.2,0.0625,35.0,1,1.0,0.6464989999999489
288,5,0.2,0.25,-35.0,-1,1.0,0.5345000000002074
289,5,0.2,0.25,35.0,1,1.0,0.27350000000001273
290,5,0.2,0.125,35.0,1,1.0,0.3544999999999163
291,5,0.2,0.0,35.0,-1,0.0,0.7736990000000787
292,5,0.2,0.0,35.0,-1,0.0,5.611499999999978
293,5,0.2,0.0625,35.0,1,1.0,0.3272999999999229
294,5,0.2,0.0625,35.0,-1,0.0,0.7151999999998679
295,5,0.2,0.25,35.0,1,1.0,0.2640000000001237
296,5,0.2,0.125,35.0,-1,0.0,0.6685999999999694
297,5,0.2,0.25,35.0,1,1.0,0.2841999999998279
298,5,0.2,0.0,35.0,-1,0.0,1.08199999999988
299,5,0.2,0.0,35.0,1,1.0,0.45420000000012806
300,5,0.2,0.0625,-35.0,-1,1.0,1.0588000000002467
301,5,0.2,0.25,35.0,1,1.0,0.36779999999998836
302,5,0.2,0.125,35.0,1,1.0,0.6059000000000196
303,5,0.2,0.0,35.0,-1,0.0,2.637899999999945
304,5,0.2,0.0,35.0,-1,0.0,8.306000000000267
305,5,0.2,0.25,35.0,1,1.0,0.3186000000000604
306,5,0.2,1.0,35.0,1,1.0,0.30950000000007094
307,5,0.2,0.25,35.0,1,1.0,0.31539999999995416
308,5,0.2,0.125,35.0,1,1.0,0.3530000000000655
309,5,0.2,1.0,35.0,1,1.0,0.2887000000000626
310,5,0.8,0.0625,-35.0,-1,1.0,5.3034000000000106
311,5,0.8,0.25,-35.0,-1,1.0,0.41889900000001035
312,5,0.8,0.0625,-35.0,-1,1.0,0.6868990000000395
313,5,0.8,0.125,35.0,1,1.0,0.6858999999999469
314,5,0.8,0.0625,-35.0,-1,1.0,0.43370000000027176
315,5,0.8,0.0625,-35.0,-1,1.0,1.1159990000001017
316,5,0.8,0.0625,-35.0,-1,1.0,2.233899000000065
317,5,0.8,0.0,-35.0,-1,1.0,0.6227989999999863
318,5,0.8,0.0,35.0,-1,0.0,1.016300000000001
319,5,0.8,0.0,-35.0,-1,1.0,4.186399999999821
320,5,0.8,0.25,-35.0,-1,1.0,0.36750000000006366
321,5,0.8,0.0,-35.0,-1,1.0,0.8899000000001251
322,5,0.8,0.125,35.0,1,1.0,0.3210999999998876
323,5,0.8,0.25,-35.0,-1,1.0,0.5799999999999272
324,5,0.8,0.0625,-35.0,-1,1.0,0.5079990000001544
325,5,0.8,0.125,-35.0,-1,1.0,0.4971000000002732
326,5,0.8,0.0625,35.0,1,1.0,0.40469999999982065
327,5,0.8,0.125,-35.0,-1,1.0,2.8138000000001284
328,5,0.8,0.0625,-35.0,-1,1.0,0.44509999999991123
329,5,0.8,1.0,-35.0,-1,1.0,0.3605000000000018
330,5,0.8,1.0,-35.0,-1,1.0,0.8151000000000295
331,5,0.8,0.0625,-35.0,-1,1.0,0.4677000000001499
332,5,0.8,0.0625,-35.0,-1,1.0,0.6185989999999038
333,5,0.8,0.125,-35.0,-1,1.0,0.8376000000000658
334,5,0.8,0.0625,-35.0,-1,1.0,0.48230000000012296
