trial_num,session_num,stim_probability_left,contrast,position,response_choice,trial_correct,reaction_time
1,1,0.8,1.0,35.0,1,1.0,0.4388000000000001
2,1,0.8,0.0625,-35.0,1,0.0,3.5919999999999996
3,1,0.8,0.125,-35.0,-1,1.0,0.32569999999999943
4,1,0.8,0.0625,-35.0,1,0.0,0.2677000000000014
5,1,0.8,1.0,-35.0,-1,1.0,0.24220000000000397
6,1,0.8,0.0625,-35.0,-1,1.0,2.6919000000000004
7,1,0.8,0.0625,-35.0,1,0.0,0.24380000000000024
8,1,0.8,0.25,-35.0,-1,1.0,0.26069999999999993
9,1,0.8,0.125,-35.0,-1,1.0,0.6719000000000044
10,1,0.8,0.125,-35.0,-1,1.0,2.875
11,1,0.8,0.125,-35.0,-1,1.0,0.5778999999999996
12,1,0.8,0.125,-35.0,-1,1.0,0.9876000000000005
13,1,0.8,0.0625,-35.0,-1,1.0,1.200800000000001
14,1,0.8,1.0,-35.0,-1,1.0,0.3044999999999902
15,1,0.8,0.125,-35.0,-1,1.0,0.5668000000000006
16,1,0.8,0.25,-35.0,-1,1.0,0.4285999999999959
17,1,0.8,0.0625,-35.0,-1,1.0,0.47809999999999775
18,1,0.8,0.25,-35.0,-1,1.0,1.6483999999999952
19,1,0.8,1.0,-35.0,-1,1.0,0.3884999999999934
20,1,0.8,0.25,-35.0,-1,1.0,0.36879999999999313
21,1,0.8,0.125,-35.0,1,0.0,0.9808999999999912
22,1,0.8,0.25,-35.0,-1,1.0,0.2481999999999971
23,1,0.8,0.0625,-35.0,-1,1.0,2.5615999999999985
24,1,0.8,0.125,-35.0,-1,1.0,0.25209999999999866
25,1,0.8,0.125,-35.0,-1,1.0,0.33789999999999054
26,1,0.8,1.0,-35.0,-1,1.0,0.27769999999999584
27,1,0.8,0.0625,-35.0,-1,1.0,3.6130999999999887
28,1,0.8,0.25,35.0,1,1.0,0.29589999999998895
29,1,0.8,0.125,-35.0,-1,1.0,2.8652000000000015
30,1,0.8,0.25,35.0,1,1.0,0.25099999999999056
31,1,0.8,0.0,-35.0,1,0.0,0.2563999999999993
32,1,0.8,0.0625,-35.0,1,0.0,0.254800000000003
33,1,0.8,1.0,-35.0,-1,1.0,0.2236999999999938
34,1,0.8,0.125,-35.0,1,0.0,3.9706999999999937
35,1,0.8,0.0625,35.0,-1,0.0,0.09089999999999065
36,1,0.8,1.0,35.0,1,1.0,0.23220000000000596
37,1,0.2,1.0,-35.0,-1,1.0,0.20660000000000878
38,1,0.2,1.0,35.0,1,1.0,0.20600000000001728
39,1,0.2,0.25,35.0,1,1.0,0.22710000000000719
40,1,0.2,0.25,35.0,1,1.0,0.222500000000025
41,1,0.2,0.0625,35.0,1,1.0,0.21980000000002065
42,1,0.2,1.0,35.0,1,1.0,0.19490000000001828
43,1,0.2,0.0625,35.0,-1,0.0,2.2999000000000365
44,1,0.2,0.25,-35.0,-1,1.0,0.49670000000000414
45,1,0.2,0.25,35.0,1,1.0,0.22809900000001448
46,1,0.2,0.125,-35.0,-1,1.0,0.8008000000000095
47,1,0.2,0.25,35.0,1,1.0,0.2189000000000192
48,1,0.2,1.0,35.0,1,1.0,0.21829999999999927
49,1,0.2,1.0,-35.0,-1,1.0,0.2795990000000188
50,1,0.2,0.25,35.0,1,1.0,0.2353999999999985
51,1,0.2,1.0,35.0,1,1.0,0.26609999999999445
52,1,0.2,0.125,-35.0,-1,1.0,0.33780000000001564
53,1,0.2,0.25,35.0,1,1.0,0.26720000000003097
54,1,0.2,0.125,35.0,1,1.0,0.24490000000000123
55,1,0.2,0.25,-35.0,-1,1.0,0.5737000000000307
56,1,0.2,1.0,-35.0,-1,1.0,0.3588999999999771
57,1,0.2,1.0,35.0,1,1.0,0.22140000000001692
58,1,0.2,0.0625,35.0,1,1.0,0.3037999999999954
59,1,0.2,1.0,35.0,1,1.0,0.5199000000000069
60,1,0.2,0.0625,-35.0,1,0.0,0.23730000000003315
61,1,0.2,0.25,35.0,1,1.0,0.2907000000000153
62,1,0.2,0.0625,35.0,1,1.0,0.20950000000001978
63,1,0.2,1.0,35.0,1,1.0,0.16450000000000387
64,1,0.2,0.125,35.0,1,1.0,0.23250000000001592
65,1,0.2,0.25,35.0,1,1.0,0.21059999999999945
66,1,0.2,0.25,35.0,1,1.0,0.21070000000000277
67,1,0.2,0.0625,35.0,1,1.0,0.2067000000000121
68,1,0.8,1.0,-35.0,-1,1.0,0.49330000000000496
69,1,0.8,0.125,-35.0,-1,1.0,2.3507000000000176
70,1,0.8,1.0,-35.0,-1,1.0,0.337600000000009
71,1,0.8,0.125,-35.0,1,0.0,0.23860000000001946
72,1,0.8,0.25,35.0,1,1.0,0.23040000000000305
73,1,0.8,0.125,35.0,1,1.0,0.21700000000001296
74,1,0.8,0.0625,-35.0,-1,1.0,0.9362000000000137
75,1,0.8,1.0,-35.0,-1,1.0,0.23390000000000555
76,1,0.8,0.0,35.0,1,1.0,0.3066000000000315
77,1,0.8,0.125,35.0,1,1.0,0.24600000000000932
78,1,0.8,0.125,-35.0,-1,1.0,0.3634000000000128
79,1,0.8,0.25,35.0,1,1.0,0.21570000000002665
80,1,0.8,1.0,-35.0,-1,1.0,0.22840000000002192
81,1,0.8,0.125,-35.0,1,0.0,0.20700000000002206
82,1,0.8,0.0625,-35.0,1,0.0,0.18700000000001182
83,1,0.8,0.0625,-35.0,-1,1.0,3.3646000000000242
84,1,0.8,0.125,-35.0,-1,1.0,0.27350000000001273
85,1,0.8,0.0625,35.0,1,1.0,0.4709000000000003
86,1,0.8,1.0,-35.0,-1,1.0,0.3450000000000273
87,1,0.8,0.0,-35.0,-1,1.0,0.6346000000000345
88,1,0.8,0.0625,-35.0,-1,1.0,0.2787999999999897
89,1,0.8,0.0625,-35.0,-1,1.0,0.536200000000008
90,1,0.8,0.25,-35.0,-1,1.0,0.29019999999997026
91,1,0.8,0.25,-35.0,-1,1.0,1.8245000000000573
92,1,0.8,0.125,-35.0,-1,1.0,0.3274000000000683
93,1,0.8,0.0,-35.0,-1,1.0,0.4035000000000082
94,1,0.8,0.0625,-35.0,-1,1.0,1.9850000000000136
95,1,0.8,0.0625,-35.0,-1,1.0,0.3645999999999958
96,1,0.8,0.125,-35.0,-1,1.0,0.06900000000001683
97,1,0.2,1.0,35.0,1,1.0,0.3211000000000013
98,1,0.2,0.25,35.0,1,1.0,0.6333000000000197
99,1,0.2,0.0,-35.0,-1,1.0,0.5711000000000013
100,1,0.2,0.25,35.0,1,1.0,0.24579999999997426
101,1,0.2,0.125,35.0,1,1.0,0.2869000000000028
102,1,0.2,0.0625,-35.0,-1,1.0,0.4286000000000172
103,1,0.2,0.0625,-35.0,-1,1.0,0.2957000000000676
104,1,0.2,0.125,35.0,1,1.0,0.3597000000000321
105,1,0.2,1.0,35.0,1,1.0,0.2388000000000261
106,1,0.2,0.0625,35.0,1,1.0,0.2515000000000214
107,1,0.2,1.0,35.0,1,1.0,0.18590000000000373
108,1,0.2,0.125,35.0,1,1.0,0.22330000000005157
109,1,0.2,0.0,-35.0,1,0.0,0.2633999999999901
110,1,0.2,0.125,35.0,-1,0.0,2.6001999999999725
111,1,0.2,0.0625,-35.0,-1,1.0,0.406599999999969
112,1,0.2,0.0625,35.0,1,1.0,0.28079999999994243
113,1,0.2,0.25,35.0,1,1.0,0.2581000000000131
114,1,0.2,0.25,35.0,1,1.0,0.24640000000005102
115,1,0.2,0.0,35.0,-1,0.0,2.488200000000006
116,1,0.2,0.125,-35.0,-1,1.0,0.2226999999999748
117,1,0.2,0.0,35.0,1,1.0,0.29630000000003065
118,1,0.2,1.0,35.0,1,1.0,0.19909999999998718
119,1,0.2,0.0625,35.0,1,1.0,0.23739999999997963
120,1,0.2,0.0625,35.0,1,1.0,0.23480000000006385
121,1,0.2,0.0,35.0,1,1.0,0.21530000000001337
122,1,0.2,0.0625,35.0,1,1.0,0.2155999999999949
123,1,0.2,0.0625,35.0,1,1.0,0.9612999999999943
124,1,0.2,0.125,-35.0,-1,1.0,0.28839999999996735
125,1,0.2,0.0625,35.0,1,1.0,0.3842000000000212
126,1,0.2,1.0,35.0,1,1.0,0.2767999999999802
127,1,0.2,0.0625,-35.0,-1,1.0,0.9115999999999644
128,1,0.2,0.0,-35.0,1,0.0,1.2800000000000296
129,1,0.2,0.0,35.0,1,1.0,0.3251000000000772
130,1,0.2,0.0625,-35.0,1,0.0,0.21450000000004366
131,1,0.2,0.125,35.0,1,1.0,0.23179999999996426
132,1,0.2,0.125,35.0,1,1.0,0.2569000000000301
133,1,0.2,0.25,-35.0,-1,1.0,0.35499999999996135
134,1,0.2,0.0625,35.0,1,1.0,0.22380000000003974
135,1,0.2,1.0,35.0,1,1.0,0.2347000000000321
136,1,0.2,1.0,35.0,1,1.0,0.2658000000000129
137,1,0.2,0.25,35.0,1,1.0,0.23520000000002028
138,1,0.2,0.125,-35.0,-1,1.0,0.6652000000000271
139,1,0.2,1.0,35.0,1,1.0,0.253400000000056
140,1,0.2,0.0625,35.0,-1,0.0,6.727000000000032
141,1,0.2,0.0625,35.0,1,1.0,0.33629999999999427
142,1,0.2,1.0,35.0,1,1.0,0.28190000000000737
143,1,0.2,0.25,35.0,1,1.0,0.1210999999999558
144,1,0.2,0.25,35.0,1,1.0,0.213799999999992
145,1,0.2,1.0,-35.0,-1,1.0,0.3077000000000112
146,1,0.2,0.125,35.0,1,1.0,0.28480000000001837
147,1,0.2,0.25,35.0,1,1.0,0.2226999999999748
148,1,0.2,0.25,35.0,1,1.0,0.31510000000002947
149,1,0.2,0.25,35.0,1,1.0,0.20170000000001664
150,1,0.2,0.0625,35.0,1,1.0,0.22440000000000282
151,1,0.2,0.25,35.0,1,1.0,0.21989999999999554
152,1,0.2,1.0,35.0,1,1.0,0.21259999999995216
153,1,0.2,0.25,35.0,1,1.0,0.19799999999997908
154,1,0.2,0.125,35.0,1,1.0,0.22930000000002337
155,1,0.2,1.0,35.0,1,1.0,0.17329999999998336
156,1,0.2,0.25,35.0,1,1.0,0.20730000000003201
157,1,0.2,0.0625,35.0,1,1.0,0.17980000000000018
158,1,0.2,0.0625,35.0,1,1.0,0.4403000000000361
159,1,0.8,0.0625,35.0,1,1.0,0.22730000000001382
160,1,0.8,0.25,35.0,1,1.0,0.20249999999998636
161,1,0.8,0.125,35.0,1,1.0,0.1904999999999859
162,1,0.8,0.0625,35.0,1,1.0,0.25780000000003156
163,1,0.8,1.0,-35.0,-1,1.0,0.238900000000001
164,1,0.8,0.0625,-35.0,1,0.0,0.6793000000000688
165,1,0.8,0.25,35.0,1,1.0,0.25
166,1,0.8,0.25,-35.0,-1,1.0,0.2377999999999929
167,1,0.8,0.0625,35.0,1,1.0,0.303100000000029
168,1,0.8,1.0,-35.0,-1,1.0,0.18350000000003774
169,1,0.8,0.25,-35.0,-1,1.0,0.5428999999999746
170,1,0.8,0.25,-35.0,-1,1.0,0.8937000000000239
171,1,0.8,0.0,-35.0,1,0.0,6.700999999999965
172,1,0.8,0.25,35.0,1,1.0,0.19519999999999982
173,1,0.8,1.0,-35.0,-1,1.0,0.2545999999999822
174,1,0.8,0.0625,-35.0,-1,1.0,0.7509000000000015
175,1,0.8,1.0,-35.0,-1,1.0,0.4023000000000252
176,1,0.8,1.0,-35.0,-1,1.0,0.21440000000001191
177,1,0.8,0.0625,35.0,1,1.0,0.21879999999998745
178,1,0.8,1.0,35.0,1,1.0,0.19549999999998136
179,1,0.8,0.0625,-35.0,1,0.0,0.330600000000004
180,1,0.8,1.0,-35.0,-1,1.0,0.27490000000000236
181,1,0.8,0.125,-35.0,1,0.0,0.2477999999999838
182,1,0.8,0.125,35.0,1,1.0,0.21420000000000528
183,1,0.8,0.0,35.0,1,1.0,0.23590000000007194
184,1,0.8,0.25,-35.0,-1,1.0,0.2439000000000533
185,1,0.8,0.25,-35.0,-1,1.0,0.30130000000008295
186,1,0.8,0.0625,-35.0,1,0.0,0.22230000000001837
187,1,0.8,0.0,-35.0,1,0.0,0.5778000000000247
188,1,0.8,0.25,-35.0,-1,1.0,0.2635999999999967
189,1,0.8,1.0,-35.0,-1,1.0,0.2720000000000482
190,1,0.8,1.0,-35.0,-1,1.0,0.23509999999998854
191,1,0.8,0.125,35.0,1,1.0,0.296100000000024
192,1,0.8,1.0,-35.0,-1,1.0,0.22910000000001673
193,1,0.2,0.0625,35.0,1,1.0,0.2495000000001255
194,1,0.2,1.0,35.0,1,1.0,0.20450000000005275
195,1,0.2,0.0625,35.0,1,1.0,0.2138999999999669
196,1,0.2,0.125,35.0,1,1.0,0.22939999999994143
197,1,0.2,0.0625,-35.0,1,0.0,4.382399999999961
198,1,0.2,1.0,35.0,1,1.0,0.2879999999998972
199,1,0.2,0.25,35.0,1,1.0,0.21669999999994616
200,1,0.2,0.25,35.0,1,1.0,0.27100000000007185
201,1,0.2,1.0,35.0,1,1.0,0.29140000000006694
202,1,0.2,0.0,-35.0,-1,1.0,2.7473000000001093
203,1,0.2,0.125,-35.0,-1,1.0,0.2759999999999536
204,1,0.2,0.125,35.0,1,1.0,0.2767000000000053
205,1,0.2,1.0,-35.0,-1,1.0,0.2441000000000031
206,1,0.2,0.25,35.0,1,1.0,0.1897999999998774
207,1,0.2,0.125,-35.0,-1,1.0,0.6238999999999351
208,1,0.2,0.125,35.0,1,1.0,0.6022000000000389
209,1,0.2,0.125,35.0,1,1.0,0.2822999999999638
210,1,0.2,0.25,35.0,1,1.0,0.24030000000004748
211,1,0.2,0.0,35.0,1,1.0,0.21639999999990778
212,1,0.2,0.0625,-35.0,1,0.0,0.6761000000000195
213,1,0.2,1.0,-35.0,-1,1.0,0.15709999999990032
214,1,0.2,0.125,35.0,1,1.0,0.566599999999994
215,1,0.2,0.125,-35.0,-1,1.0,0.25109999999995125
216,1,0.2,1.0,35.0,1,1.0,0.19739999999990232
217,1,0.2,0.0625,-35.0,-1,1.0,0.33350000000007185
218,1,0.2,0.0625,35.0,1,1.0,0.6192000000000917
219,1,0.2,0.0625,35.0,1,1.0,0.2777999999999565
220,1,0.2,0.0625,35.0,1,1.0,0.8686999999999898
221,1,0.2,0.125,35.0,1,1.0,0.3120999999999867
222,1,0.2,0.125,-35.0,-1,1.0,0.40820000000007894
223,1,0.2,0.0625,35.0,1,1.0,7.320500000000038
224,1,0.2,1.0,35.0,1,1.0,0.4274000000000342
225,1,0.2,0.0625,35.0,1,1.0,0.8337000000000216
226,1,0.2,1.0,35.0,1,1.0,0.344600000000014
227,1,0.2,0.0625,35.0,1,1.0,0.6362000000000307
228,1,0.2,1.0,35.0,1,1.0,0.4773999999999887
229,1,0.2,0.125,35.0,1,1.0,0.5083000000000766
230,1,0.2,1.0,35.0,1,1.0,0.2355000000001155
231,1,0.2,1.0,35.0,1,1.0,0.23050000000000637
232,1,0.2,1.0,35.0,1,1.0,0.23359999999991032
233,1,0.2,0.0,35.0,-1,0.0,2.06899999999996
234,1,0.2,1.0,-35.0,-1,1.0,0.2297000000000935
235,1,0.2,0.0,35.0,1,1.0,0.5001000000000886
236,1,0.2,0.125,35.0,1,1.0,0.2221999999999298
237,1,0.2,0.0625,35.0,1,1.0,0.28759999999999764
238,1,0.2,0.125,35.0,1,1.0,0.31929999999999836
239,1,0.2,1.0,35.0,1,1.0,0.21069999999997435
240,1,0.2,1.0,35.0,1,1.0,0.2039999999999509
241,1,0.2,0.125,35.0,1,1.0,0.3188000000000102
242,1,0.2,0.125,35.0,1,1.0,0.26709999999991396
243,1,0.2,0.25,35.0,1,1.0,0.22519999999997253
244,1,0.2,0.0625,35.0,1,1.0,0.2379000000000815
245,1,0.2,0.25,-35.0,-1,1.0,0.28160000000002583
246,1,0.2,0.125,35.0,1,1.0,0.18600000000003547
247,1,0.2,0.125,-35.0,-1,1.0,0.49320000000000164
248,1,0.2,0.25,35.0,1,1.0,0.2542000000000826
249,1,0.2,0.0625,35.0,1,1.0,0.23259999999993397
250,1,0.2,0.25,35.0,1,1.0,0.2198999999999387
251,1,0.2,0.0625,35.0,1,1.0,0.4251000000000431
252,1,0.2,1.0,35.0,1,1.0,0.22479999999995925
253,1,0.2,0.25,35.0,1,1.0,0.2798000000000229
254,1,0.2,0.25,35.0,1,1.0,0.2659000000001015
255,1,0.2,0.125,-35.0,-1,1.0,0.5434000000000196
256,1,0.2,0.0625,35.0,1,1.0,0.2767000000000053
257,1,0.2,0.0625,-35.0,1,0.0,0.39390000000003056
258,1,0.2,0.0,35.0,1,1.0,0.31719999999995707
259,1,0.2,0.0,-35.0,1,0.0,4.663599999999974
260,1,0.2,0.0625,35.0,1,1.0,0.19830000000001746
261,1,0.2,0.125,-35.0,-1,1.0,0.3566000000000713
262,1,0.2,0.0625,35.0,1,1.0,0.20410000000003947
263,1,0.2,0.0625,35.0,1,1.0,0.23879999999996926
264,1,0.2,0.25,35.0,1,1.0,0.05880000000001928
265,1,0.2,0.0625,35.0,1,1.0,0.2399000000000342
266,1,0.2,0.0,35.0,1,1.0,0.2520000000000664
267,1,0.2,0.0,35.0,1,1.0,0.2173000000001366
268,1,0.2,0.0,35.0,1,1.0,0.25070000000005166
269,1,0.2,0.0625,35.0,1,1.0,0.6326999999998861
270,1,0.2,0.25,35.0,1,1.0,0.2034000000001015
271,1,0.2,0.25,35.0,1,1.0,0.231899999999996
272,1,0.2,0.0625,35.0,1,1.0,0.23329999999998563
273,1,0.2,0.0625,35.0,1,1.0,0.25710000000003674
274,1,0.2,0.125,-35.0,1,0.0,0.4753000000000611
275,1,0.2,1.0,35.0,1,1.0,0.1571999999999889
276,1,0.2,1.0,35.0,1,1.0,0.2155999999999949
277,1,0.2,0.125,35.0,1,1.0,3.20049999999992
278,1,0.2,0.0625,-35.0,1,0.0,0.2137000000000171
279,1,0.2,0.125,35.0,1,1.0,0.2598000000000411
280,1,0.2,0.0625,35.0,1,1.0,0.28930000000002565
281,1,0.2,0.25,35.0,1,1.0,0.1752999999999929
282,1,0.2,0.0,35.0,1,1.0,0.22689900000000307
283,1,0.2,0.25,35.0,1,1.0,0.34370000000001255
284,1,0.2,0.25,35.0,1,1.0,0.262299999999982
285,1,0.2,0.0625,-35.0,1,0.0,0.5874000000000024
286,1,0.2,1.0,35.0,1,1.0,0.24480000000005475
287,1,0.2,0.25,35.0,1,1.0,0.24889999999993506
288,1,0.2,0.0625,35.0,1,1.0,0.6960000000000264
289,1,0.2,0.25,35.0,1,1.0,0.22500000000002274
290,1,0.2,0.25,35.0,1,1.0,0.1373999999999569
291,1,0.8,0.25,-35.0,-1,1.0,0.2298999999999296
292,1,0.8,1.0,-35.0,-1,1.0,0.5285000000000082
293,1,0.8,0.25,-35.0,-1,1.0,0.41019999999991796
294,1,0.8,0.125,-35.0,1,0.0,2.289700000000039
295,1,0.8,1.0,35.0,1,1.0,0.25650000000007367
296,1,0.8,0.125,35.0,1,1.0,0.29500000000007276
297,1,0.8,0.0,-35.0,-1,1.0,0.32769999999993615
298,1,0.8,0.125,-35.0,-1,1.0,0.736400000000117
299,1,0.8,1.0,-35.0,-1,1.0,0.241800000000012
300,1,0.8,0.125,-35.0,-1,1.0,0.31119999999998527
301,1,0.8,0.0625,-35.0,1,0.0,0.23670000000004165
302,1,0.8,1.0,-35.0,-1,1.0,0.2685999999999922
303,1,0.8,0.0625,-35.0,1,0.0,2.5611000000000104
304,1,0.8,1.0,-35.0,-1,1.0,3.320699999999988
305,1,0.8,0.125,-35.0,-1,1.0,4.110500000000002
306,1,0.8,0.125,-35.0,-1,1.0,0.7473999999999705
307,1,0.8,0.125,-35.0,-1,1.0,0.130800000000022
308,1,0.8,0.125,-35.0,-1,1.0,0.28920000000005075
309,1,0.8,0.0625,-35.0,-1,1.0,0.7119000000000142
310,1,0.8,1.0,-35.0,-1,1.0,0.27530000000012933
311,1,0.8,0.125,-35.0,-1,1.0,5.769700000000057
312,1,0.8,0.0,-35.0,-1,1.0,0.3460000000001173
313,1,0.8,1.0,35.0,1,1.0,0.24220000000002528
314,1,0.8,0.0625,-35.0,-1,1.0,0.5987000000001217
315,1,0.8,0.25,-35.0,-1,1.0,0.11169999999992797
316,1,0.8,0.0625,-35.0,-1,1.0,0.6502000000000407
317,1,0.8,0.25,-35.0,-1,1.0,0.30100000000004457
318,1,0.8,0.25,-35.0,-1,1.0,0.31930000000011205
319,1,0.8,0.0625,-35.0,-1,1.0,0.5770999999999731
320,1,0.8,0.0625,-35.0,1,0.0,2.7473999999999705
321,1,0.8,1.0,-35.0,-1,1.0,0.32189999999991414
322,1,0.8,0.125,-35.0,1,0.0,0.20330000000001291
323,1,0.8,0.0625,35.0,1,1.0,0.3219000000001415
324,1,0.8,0.125,-35.0,-1,1.0,0.23730000000000473
325,1,0.8,0.25,35.0,1,1.0,0.2966000000000122
326,1,0.8,0.125,35.0,1,1.0,0.24739999999997053
327,1,0.8,0.0625,-35.0,-1,1.0,0.5579999999999927
328,1,0.2,0.125,-35.0,-1,1.0,1.7644000000000233
329,1,0.2,0.0625,35.0,1,1.0,0.484299999999962
330,1,0.2,0.0,35.0,-1,0.0,0.266399999999976
331,1,0.2,1.0,35.0,1,1.0,0.2986999999999398
332,1,0.2,0.0625,-35.0,1,0.0,0.19880000000000564
333,1,0.2,1.0,35.0,1,1.0,0.22460000000000946
334,1,0.2,0.125,35.0,1,1.0,0.32560000000000855
335,1,0.2,0.0,35.0,1,1.0,0.2460000000000946
336,1,0.2,0.125,35.0,1,1.0,0.2538999999999305
337,1,0.2,0.0625,35.0,1,1.0,0.258199999999988
338,1,0.2,1.0,35.0,1,1.0,0.20590000000004238
339,1,0.2,0.125,-35.0,1,0.0,0.22659999999996217
340,1,0.2,1.0,-35.0,-1,1.0,0.2173000000001366
341,1,0.2,0.0,35.0,1,1.0,0.21209999999996398
342,1,0.2,1.0,35.0,1,1.0,0.1994000000000824
343,1,0.2,0.25,35.0,1,1.0,0.19590000000005148
344,1,0.2,1.0,35.0,1,1.0,0.18299999999999272
345,1,0.2,0.0,35.0,1,1.0,0.20030000000008386
346,1,0.2,1.0,35.0,1,1.0,0.1754000000000815
347,1,0.2,0.0,35.0,1,1.0,0.2767999999999802
348,1,0.2,0.0,35.0,1,1.0,0.831600000000094
349,1,0.2,0.0,35.0,1,1.0,0.12160000000005766
350,1,0.2,0.125,35.0,1,1.0,0.19489999999996144
351,1,0.2,0.125,35.0,1,1.0,0.2584000000000515
352,1,0.2,1.0,35.0,1,1.0,0.20849999999995816
353,1,0.8,1.0,35.0,1,1.0,0.18510000000003402
354,1,0.8,0.0625,-35.0,1,0.0,0.20870000000002165
355,1,0.8,0.0625,-35.0,1,0.0,0.20860000000016043
356,1,0.8,0.125,-35.0,-1,1.0,0.2121999999997115
357,1,0.8,0.25,35.0,1,1.0,0.21549999999979264
358,1,0.8,0.0625,-35.0,1,0.0,0.24549999999999272
359,1,0.8,0.125,-35.0,-1,1.0,0.4522999999999229
360,1,0.8,0.25,-35.0,-1,1.0,0.2623999999998432
361,1,0.8,0.125,-35.0,1,0.0,0.26919999999995525
362,1,0.8,1.0,35.0,1,1.0,0.17909999999983484
363,1,0.8,0.125,-35.0,1,0.0,0.2626000000000204
364,1,0.8,0.0625,-35.0,-1,1.0,0.3026999999997315
365,1,0.8,0.0,-35.0,1,0.0,0.27599999999983993
366,1,0.8,0.0,-35.0,1,0.0,0.1960999999998876
367,1,0.8,0.0625,-35.0,1,0.0,0.28949999999986176
368,1,0.8,0.125,-35.0,-1,1.0,0.2597000000000662
369,1,0.8,0.25,-35.0,-1,1.0,0.2562999999997828
370,1,0.8,1.0,-35.0,-1,1.0,0.226399999999785
371,1,0.8,0.0625,-35.0,-1,1.0,0.5230999999998858
372,1,0.8,0.0625,-35.0,-1,1.0,0.36659999999983484
373,1,0.8,0.25,-35.0,-1,1.0,4.549899999999752
374,1,0.2,0.0625,-35.0,1,0.0,0.3169000000000324
375,1,0.2,0.0625,35.0,1,1.0,2.8835999999998876
376,1,0.2,1.0,35.0,1,1.0,0.2502999999999247
377,1,0.2,0.125,35.0,1,1.0,0.26379999999971915
378,1,0.2,0.125,35.0,1,1.0,0.21049999999991087
379,1,0.2,0.125,-35.0,1,0.0,0.16049999999995634
380,1,0.2,0.125,35.0,1,1.0,0.287199999999757
381,1,0.2,0.0,35.0,-1,0.0,0.290599999999813
382,1,0.2,0.125,35.0,1,1.0,0.2506999999998243
383,1,0.2,0.0625,35.0,1,1.0,3.580699999999979
384,1,0.2,0.25,35.0,1,1.0,0.2508999999997741
385,1,0.2,0.25,35.0,1,1.0,0.19419999999990978
386,1,0.2,1.0,35.0,1,1.0,0.18429999999989377
387,1,0.2,0.0625,35.0,1,1.0,0.22109999999975116
388,1,0.2,1.0,35.0,1,1.0,0.21449999999981628
389,1,0.2,0.0,35.0,1,1.0,0.22109999999997854
390,1,0.2,0.125,-35.0,1,0.0,0.5778000000000247
391,1,0.2,0.125,35.0,1,1.0,0.23460000000000036
392,1,0.2,0.0625,35.0,1,1.0,0.20470000000000255
393,1,0.2,0.0625,35.0,1,1.0,0.21129999999993743
394,1,0.2,0.125,35.0,1,1.0,0.23799999999982901
395,1,0.2,0.125,-35.0,-1,1.0,0.6947999999997592
396,1,0.2,0.125,-35.0,1,0.0,0.20489999999995234
397,1,0.2,1.0,35.0,1,1.0,0.22499999999990905
398,1,0.2,0.0625,35.0,1,1.0,0.22829999999999018
399,1,0.2,0.0625,35.0,1,1.0,0.4317989999999554
400,1,0.2,0.125,-35.0,1,0.0,0.15840000000002874
401,1,0.2,0.125,35.0,1,1.0,0.1917999999998301
402,1,0.2,0.0,35.0,1,1.0,0.2219000000000051
403,1,0.2,0.0,35.0,1,1.0,1.4986999999998716
404,1,0.2,1.0,35.0,1,1.0,0.26549999999974716
405,1,0.2,0.25,35.0,1,1.0,0.19879999999989195
406,1,0.2,0.25,35.0,1,1.0,0.24559999999996762
407,1,0.2,1.0,35.0,1,1.0,0.21900000000005093
408,1,0.2,1.0,35.0,1,1.0,0.18899999999985084
409,1,0.2,0.25,35.0,1,1.0,0.1756999999997788
410,1,0.2,0.0625,35.0,1,1.0,0.19239999999990687
411,1,0.2,1.0,35.0,1,1.0,0.18919999999980064
412,1,0.2,0.25,35.0,1,1.0,0.2258999999999105
413,1,0.2,0.125,-35.0,1,0.0,0.20589999999970132
414,1,0.2,1.0,35.0,1,1.0,0.18939999999975043
415,1,0.2,0.0625,-35.0,1,0.0,0.20939999999973224
416,1,0.2,0.0625,-35.0,-1,1.0,0.2596000000000913
417,1,0.2,0.0625,35.0,-1,0.0,2.6995999999999185
418,1,0.2,1.0,35.0,1,1.0,0.21309999999994034
419,1,0.2,0.125,35.0,1,1.0,0.3064999999999145
420,1,0.2,0.25,-35.0,-1,1.0,0.2564999999997326
421,1,0.2,0.0,35.0,1,1.0,0.25329999999985375
422,1,0.2,0.25,35.0,1,1.0,0.21000000000003638
423,1,0.2,0.25,35.0,1,1.0,0.22329999999965366
424,1,0.2,0.25,35.0,1,1.0,0.23680000000013024
425,1,0.2,0.125,-35.0,1,0.0,0.2235000000000582
426,1,0.2,0.0625,35.0,1,1.0,0.19349999999985812
427,1,0.2,1.0,35.0,1,1.0,0.21689999999989595
428,1,0.2,0.0,35.0,1,1.0,0.18029999999998836
429,1,0.2,1.0,-35.0,-1,1.0,0.24379999999973734
430,1,0.2,0.0625,35.0,1,1.0,0.16050000000018372
431,1,0.2,0.25,35.0,1,1.0,0.20049999999991996
432,1,0.2,1.0,-35.0,-1,1.0,0.35059999999975844
433,1,0.2,1.0,-35.0,-1,1.0,0.2906000000000404
434,1,0.2,0.125,-35.0,1,0.0,3.4873999999997523
435,1,0.2,1.0,35.0,1,1.0,0.1841989999998077
436,1,0.2,1.0,35.0,1,1.0,0.23769999999990432
437,1,0.2,0.25,35.0,1,1.0,0.21439999999984138
438,1,0.2,0.0625,35.0,1,1.0,0.38439999999991414
439,1,0.2,0.25,-35.0,-1,1.0,0.15449999999987085
440,1,0.2,0.25,35.0,1,1.0,0.20119999999974425
441,1,0.2,1.0,35.0,1,1.0,0.2179999999998472
442,1,0.2,1.0,35.0,1,1.0,0.19470000000001164
443,1,0.2,0.125,35.0,1,1.0,0.15129999999976462
444,1,0.2,1.0,35.0,1,1.0,0.21489999999994325
445,1,0.2,0.125,35.0,1,1.0,0.36819999999988795
446,1,0.2,0.25,-35.0,-1,1.0,0.24159999999983484
447,1,0.2,0.0625,35.0,1,1.0,0.23500000000012733
448,1,0.2,0.25,35.0,1,1.0,0.21839999999997417
449,1,0.2,0.0625,35.0,1,1.0,0.18839999999977408
450,1,0.2,0.0625,-35.0,1,0.0,0.26179999999976644
451,1,0.2,0.25,35.0,1,1.0,0.19190000000003238
452,1,0.2,1.0,35.0,1,1.0,0.16879999999991924
453,1,0.2,0.125,35.0,1,1.0,0.07529999999997017
454,1,0.2,1.0,35.0,1,1.0,0.20539999999982683
455,1,0.2,0.0625,35.0,-1,0.0,0.6420999999998003
456,1,0.2,0.125,35.0,1,1.0,0.14220000000000255
457,1,0.2,0.0625,-35.0,1,0.0,0.16889999999989413
458,1,0.2,0.0625,-35.0,-1,1.0,0.2423999999998614
459,1,0.2,0.0625,35.0,1,1.0,0.21910000000002583
460,1,0.2,0.25,35.0,1,1.0,0.2358000000001539
461,1,0.2,0.25,-35.0,-1,1.0,0.4825999999998203
462,1,0.2,0.0,35.0,1,1.0,0.24260000000003856
463,1,0.2,0.25,35.0,1,1.0,0.27589999999963766
464,1,0.2,0.0,35.0,1,1.0,0.2059999999999036
465,1,0.2,0.0625,35.0,1,1.0,0.21939999999995052
466,1,0.2,0.25,35.0,1,1.0,0.2261999999998352
467,1,0.2,0.125,35.0,1,1.0,0.1994999999999436
468,1,0.2,0.25,35.0,1,1.0,0.3895999999999731
469,1,0.2,0.25,-35.0,1,0.0,0.2096999999998843
470,1,0.8,0.0625,35.0,1,1.0,0.1896999999999025
471,1,0.8,0.0625,-35.0,1,0.0,0.26979999999980464
472,1,0.8,0.125,-35.0,1,0.0,0.20319999999992433
473,1,0.8,0.125,-35.0,1,0.0,2.956599999999753
474,1,0.8,0.0625,-35.0,-1,1.0,0.26340000000004693
475,1,0.8,0.125,-35.0,1,0.0,0.2601999999999407
476,1,0.8,0.0,-35.0,1,0.0,0.43359999999961474
477,1,0.8,0.125,-35.0,-1,1.0,0.2437999999999647
478,1,0.8,0.0,-35.0,-1,1.0,0.36049999999977445
479,1,0.8,1.0,-35.0,-1,1.0,0.22379999999975553
480,1,0.8,1.0,-35.0,-1,1.0,0.22719999999981155
481,1,0.8,1.0,-35.0,-1,1.0,0.2541000000001077
482,1,0.8,0.25,-35.0,-1,1.0,0.2739999999998872
483,1,0.8,0.0625,-35.0,-1,1.0,0.42399999999997817
484,1,0.8,1.0,-35.0,-1,1.0,0.24080000000003565
485,1,0.8,1.0,-35.0,-1,1.0,0.22749999999996362
486,1,0.8,0.25,-35.0,-1,1.0,0.5408999999999651
487,1,0.8,0.25,-35.0,-1,1.0,0.3611000000000786
488,1,0.8,0.125,-35.0,-1,1.0,0.39439999999990505
489,1,0.8,0.25,-35.0,-1,1.0,0.5244999999999891
490,1,0.8,0.25,-35.0,-1,1.0,3.904499999999871
491,1,0.8,0.0625,-35.0,1,0.0,0.30139999999983047
492,1,0.8,0.0625,-35.0,-1,1.0,0.25469999999995707
493,1,0.8,1.0,-35.0,-1,1.0,0.05809999999974025
494,1,0.8,0.125,-35.0,-1,1.0,0.4782999999999902
495,1,0.8,0.125,-35.0,-1,1.0,3.1351999999999407
496,1,0.8,1.0,-35.0,-1,1.0,0.20519999999987704
497,1,0.8,0.25,-35.0,-1,1.0,0.8985999999999876
498,1,0.8,0.0625,-35.0,1,0.0,5.455399999999827
499,1,0.8,0.0625,-35.0,-1,1.0,0.2821999999998752
500,1,0.8,0.25,-35.0,-1,1.0,0.2523999999998523
501,1,0.8,0.125,-35.0,-1,1.0,0.2824999999997999
502,1,0.8,1.0,-35.0,-1,1.0,0.28919999999993706
503,1,0.8,1.0,35.0,1,1.0,0.28919999999993706
504,1,0.8,0.25,-35.0,-1,1.0,0.27929999999992106
505,1,0.2,0.125,35.0,1,1.0,0.25289999999995416
506,1,0.2,1.0,35.0,1,1.0,0.21269999999981337
507,1,0.2,0.125,35.0,1,1.0,0.3328999999998814
508,1,0.2,1.0,35.0,1,1.0,0.2163999999997941
509,1,0.2,0.25,35.0,1,1.0,0.24299999999971078
510,1,0.2,0.0625,35.0,1,1.0,0.20639999999980319
511,1,0.2,0.125,35.0,1,1.0,0.269800000000032
512,1,0.2,0.0,-35.0,-1,1.0,5.863199999999779
513,1,0.2,1.0,35.0,1,1.0,0.23349999999982174
514,1,0.2,0.125,35.0,1,1.0,0.22679999999991196
515,1,0.2,0.125,35.0,1,1.0,0.5434999999997672
516,1,0.2,0.0625,35.0,1,1.0,0.2036000000000513
517,1,0.2,1.0,35.0,1,1.0,0.20369999999979882
518,1,0.2,0.25,35.0,1,1.0,0.2904000000000906
519,1,0.2,1.0,35.0,1,1.0,0.2504999999998745
520,1,0.2,1.0,35.0,1,1.0,0.23720000000002983
521,1,0.2,0.125,-35.0,1,0.0,0.26720000000000255
522,1,0.2,0.25,-35.0,-1,1.0,1.8339999999998327
523,1,0.2,0.125,35.0,1,1.0,0.7375999999999294
524,1,0.2,0.125,35.0,1,1.0,0.21769999999969514
525,1,0.2,0.125,-35.0,-1,1.0,0.37439999999969586
526,1,0.2,0.125,35.0,1,1.0,0.2643999999997959
527,1,0.2,0.0625,-35.0,1,0.0,0.21450000000004366
528,1,0.2,0.0,35.0,1,1.0,0.35779999999999745
529,1,0.2,0.25,35.0,1,1.0,0.2078999999998814
530,1,0.2,1.0,35.0,1,1.0,0.27140000000008513
531,1,0.2,0.25,35.0,1,1.0,0.2580999999997857
532,1,0.2,0.0,35.0,1,1.0,3.021400000000085
533,1,0.2,0.25,35.0,1,1.0,0.11830000000009022
534,1,0.2,0.125,35.0,1,1.0,0.2817000000000007
535,1,0.2,0.125,35.0,1,1.0,0.21499999999991815
536,1,0.2,0.0,35.0,1,1.0,0.21519999999986794
537,1,0.2,0.0625,35.0,1,1.0,0.5150999999998476
538,1,0.2,0.25,-35.0,-1,1.0,0.35179999999991196
539,1,0.2,0.125,35.0,1,1.0,0.22529999999983374
540,1,0.2,0.125,-35.0,-1,1.0,5.661899999999832
541,1,0.2,0.25,35.0,1,1.0,0.27890000000002146
542,1,0.2,0.0625,35.0,-1,0.0,0.6022000000000389
543,1,0.2,0.25,35.0,1,1.0,0.7023999999998978
544,1,0.2,0.0,35.0,-1,0.0,0.3089999999999691
545,1,0.2,0.25,35.0,1,1.0,0.43249999999989086
546,1,0.2,0.0625,35.0,1,1.0,0.269298999999819
547,1,0.2,0.0625,35.0,1,1.0,0.21929999999997563
548,1,0.2,1.0,35.0,1,1.0,0.21259999999983847
549,1,0.2,0.125,35.0,1,1.0,0.3426999999999225
550,1,0.2,1.0,35.0,1,1.0,0.23270000000002256
551,1,0.2,0.0625,35.0,1,1.0,0.48279999999999745
552,1,0.2,0.0625,35.0,1,1.0,0.22289999999975407
553,1,0.2,0.0625,35.0,1,1.0,0.29629999999974643
554,1,0.2,0.25,35.0,1,1.0,0.05629999999996471
555,1,0.2,1.0,-35.0,1,0.0,0.38649999999984175
556,1,0.2,0.0,-35.0,1,0.0,0.2132000000001426
557,1,0.2,0.125,35.0,1,1.0,0.25319999999987886
558,1,0.2,1.0,35.0,1,1.0,0.16989999999964311
559,1,0.2,0.0625,35.0,1,1.0,0.20000000000004547
560,1,0.2,0.25,35.0,1,1.0,0.2500999999997475
561,1,0.2,0.125,-35.0,1,0.0,0.240099999999984
562,1,0.2,0.0625,35.0,1,1.0,0.5301999999999225
563,1,0.2,0.25,35.0,1,1.0,0.2801999999999225
564,1,0.2,0.0625,-35.0,1,0.0,0.23359999999979664
565,1,0.2,0.125,35.0,1,1.0,0.2804999999998472
566,1,0.2,0.0625,35.0,1,1.0,0.28379999999992833
567,1,0.2,0.125,35.0,1,1.0,0.44059999999990396
568,1,0.2,0.0,35.0,1,1.0,0.23049999999989268
569,1,0.2,0.125,-35.0,1,0.0,0.2138999999999669
570,1,0.2,0.0625,35.0,1,1.0,0.4806999999998425
571,1,0.2,1.0,-35.0,-1,1.0,0.1775000000000091
572,1,0.2,0.0625,35.0,1,1.0,0.2907999999999902
573,1,0.2,1.0,35.0,1,1.0,0.16749999999979082
574,1,0.2,1.0,35.0,1,1.0,0.16419999999993706
575,1,0.2,0.125,35.0,1,1.0,0.1776999999999589
576,1,0.2,0.0,35.0,1,1.0,0.15099999999983993
577,1,0.2,0.0,35.0,1,1.0,0.27109999999993306
578,1,0.2,0.25,35.0,1,1.0,0.26119999999991705
579,1,0.2,0.125,-35.0,1,0.0,0.287900000000036
580,1,0.2,0.0,35.0,1,1.0,0.31799999999998363
581,1,0.2,0.125,-35.0,1,0.0,0.25139999999987594
582,1,0.2,1.0,-35.0,-1,1.0,0.4413999999999305
583,1,0.2,0.0625,-35.0,1,0.0,0.24149999999985994
584,1,0.2,0.25,35.0,1,1.0,0.23499999999989996
585,1,0.2,0.125,35.0,1,1.0,0.288300000000163
586,1,0.2,0.0,-35.0,1,0.0,0.18840000000000146
587,1,0.2,0.25,-35.0,-1,1.0,0.2318000000000211
588,1,0.2,0.125,35.0,1,1.0,0.29520000000002256
589,1,0.2,1.0,-35.0,-1,1.0,0.4151999999999134
590,1,0.2,0.25,35.0,1,1.0,0.2719999999999345
591,1,0.2,1.0,35.0,1,1.0,0.29529999999999745
592,1,0.2,0.125,35.0,1,1.0,0.33559999999988577
593,1,0.2,0.125,-35.0,1,0.0,0.22879999999986467
594,1,0.2,0.125,35.0,1,1.0,0.17889999999988504
595,1,0.2,1.0,35.0,1,1.0,0.09230000000002292
596,1,0.2,0.125,-35.0,1,0.0,0.20899999999983265
597,1,0.2,0.0,35.0,1,1.0,0.2689999999997781
598,1,0.2,1.0,-35.0,-1,1.0,0.19909999999981665
599,1,0.2,0.0,35.0,-1,0.0,11.402599999999893
600,1,0.8,0.125,-35.0,-1,1.0,0.6195999999997639
601,1,0.8,0.0,35.0,-1,0.0,1.9096999999999298
602,1,0.8,1.0,-35.0,-1,1.0,0.2898999999999887
603,1,0.8,0.0625,-35.0,1,0.0,5.159799999999905
604,1,0.8,0.0625,-35.0,-1,1.0,6.120099999999866
605,1,0.8,1.0,-35.0,-1,1.0,0.2001999999997679
606,1,0.8,1.0,-35.0,-1,1.0,14.123699999999872
607,1,0.8,0.0625,-35.0,-1,1.0,0.5506999999997788
608,1,0.8,0.125,-35.0,1,0.0,0.31419999999980064
609,1,0.8,1.0,35.0,1,1.0,8.794199999999591
610,1,0.8,0.0,-35.0,1,0.0,3.6877999999999247
611,1,0.8,1.0,-35.0,-1,1.0,0.3046999999999116
612,1,0.8,1.0,-35.0,-1,1.0,0.3080999999999676
613,1,0.8,0.0,-35.0,1,0.0,5.94159999999988
614,1,0.8,0.0625,-35.0,-1,1.0,1.4184999999999945
615,1,0.8,0.0625,-35.0,-1,1.0,1.3485999999998057
616,1,0.8,0.25,-35.0,-1,1.0,0.41190000000005966
617,1,0.8,0.25,-35.0,-1,1.0,5.845299999999725
618,1,0.8,0.25,-35.0,-1,1.0,0.43889999999987594
619,1,0.8,1.0,-35.0,-1,1.0,0.2788999999997941
620,1,0.8,0.125,-35.0,-1,1.0,0.5222999999998592
621,1,0.8,0.125,-35.0,-1,1.0,5.9690999999997985
622,1,0.8,0.0625,-35.0,-1,1.0,4.762699999999768
623,1,0.8,0.0,-35.0,1,0.0,0.3161999999999807
624,1,0.8,0.0625,-35.0,-1,1.0,4.3228999999998905
625,1,0.8,1.0,-35.0,-1,1.0,0.2563999999999851
626,1,0.8,0.125,-35.0,1,0.0,0.36979999999994106
627,1,0.8,0.25,-35.0,-1,1.0,0.21319999999991524
628,1,0.8,1.0,35.0,1,1.0,0.23329999999987194
629,1,0.8,1.0,-35.0,-1,1.0,0.31340000000000146
630,1,0.8,0.25,-35.0,-1,1.0,0.7268999999998869
631,1,0.8,0.25,35.0,1,1.0,0.2668999999998505
632,1,0.8,0.125,-35.0,1,0.0,0.2602999999999156
633,1,0.8,0.25,-35.0,-1,1.0,0.33369999999990796
634,1,0.8,1.0,-35.0,-1,1.0,0.31369999999992615
635,1,0.8,0.0625,-35.0,-1,1.0,0.280699999999797
636,1,0.8,0.25,35.0,1,1.0,0.3471999999999298
637,1,0.8,0.0625,-35.0,1,0.0,0.2339999999999236
638,1,0.8,0.0,-35.0,-1,1.0,0.2973999999996977
639,1,0.8,0.125,-35.0,-1,1.0,0.5107000000000426
640,1,0.8,0.125,-35.0,-1,1.0,0.300899999999956
641,1,0.8,0.25,35.0,1,1.0,0.23099999999976717
642,1,0.8,0.125,-35.0,-1,1.0,0.39439999999990505
643,1,0.8,0.125,-35.0,-1,1.0,8.974499999999807
644,1,0.8,0.25,-35.0,-1,1.0,0.25469999999995707
645,1,0.8,1.0,-35.0,-1,1.0,0.21829999999999927
646,1,0.8,0.0625,-35.0,1,0.0,0.27159999999980755
647,1,0.8,1.0,-35.0,-1,1.0,0.25499999999988177
648,1,0.8,0.25,-35.0,1,0.0,0.5482999999996991
649,1,0.8,0.125,-35.0,-1,1.0,0.2617999999999938
650,1,0.8,0.0625,-35.0,1,0.0,0.23519999999984975
651,1,0.8,0.0,-35.0,1,0.0,0.32519999999999527
652,1,0.8,0.125,-35.0,-1,1.0,0.46529999999984284
653,1,0.8,0.25,-35.0,1,0.0,0.4885999999999058
654,1,0.8,1.0,-35.0,-1,1.0,0.24869999999987158
655,1,0.2,0.25,35.0,1,1.0,0.6721999999999753
656,1,0.2,0.125,35.0,1,1.0,3.1388999999999214
657,1,0.2,1.0,35.0,1,1.0,0.21899999999982356
658,1,0.2,1.0,35.0,1,1.0,0.20910000000003492
659,1,0.2,1.0,35.0,1,1.0,0.19919999999979154
660,1,0.2,0.25,35.0,1,1.0,0.24579999999991742
661,1,0.2,1.0,35.0,1,1.0,0.1958999999999378
662,1,0.2,0.0625,35.0,1,1.0,0.27930000000014843
663,1,0.2,0.0,35.0,1,1.0,5.882699999999659
664,1,0.2,0.125,35.0,1,1.0,0.246199999999817
665,1,0.2,1.0,35.0,1,1.0,0.21959999999990032
666,1,0.2,1.0,35.0,1,1.0,0.26969999999982974
667,1,0.2,0.125,35.0,1,1.0,0.25309999999990396
668,1,0.2,0.0625,35.0,1,1.0,0.5031000000001313
669,1,0.2,0.125,-35.0,1,0.0,0.26989999999977954
670,1,0.2,0.0625,35.0,1,1.0,0.27999999999974534
671,1,0.2,0.25,35.0,1,1.0,0.2666999999999007
672,1,0.2,0.25,35.0,1,1.0,0.240099999999984
673,1,0.2,0.25,35.0,1,1.0,0.22679999999991196
674,1,0.2,1.0,35.0,1,1.0,0.19679999999993925
675,1,0.2,0.125,35.0,1,1.0,0.22690000000011423
676,1,0.2,1.0,-35.0,-1,1.0,0.28359999999997854
677,1,0.2,0.0625,35.0,1,1.0,0.22039999999992688
678,1,0.2,0.125,35.0,1,1.0,0.18049999999993815
679,1,0.2,0.0625,35.0,1,1.0,0.21049999999991087
680,1,0.2,0.25,35.0,1,1.0,0.20060000000012224
681,1,0.2,0.25,35.0,1,1.0,0.3472999999999047
682,1,0.2,0.0625,35.0,1,1.0,0.5205999999998312
683,1,0.2,0.0625,-35.0,1,0.0,0.20409999999992579
684,1,0.2,0.0,35.0,1,1.0,0.4675000000002001
685,1,0.2,0.125,35.0,1,1.0,0.40750000000025466
686,1,0.2,0.125,-35.0,-1,1.0,0.2577000000001135
687,1,0.2,0.25,35.0,1,1.0,0.18429999999989377
688,1,0.2,0.25,35.0,1,1.0,4.844499999999698
689,1,0.2,0.125,35.0,1,1.0,0.3382000000001426
690,1,0.2,0.0,35.0,1,1.0,0.29809999999952197
691,1,0.2,0.25,35.0,1,1.0,0.2681999999999789
692,1,0.2,0.0625,35.0,1,1.0,0.31500000000005457
693,1,0.2,0.25,35.0,1,1.0,0.25500000000010914
694,1,0.2,0.25,35.0,1,1.0,0.32169999999996435
695,1,0.2,0.0,35.0,-1,0.0,43.85839999999962
696,1,0.2,0.125,35.0,1,1.0,31.602899999999863
697,1,0.2,0.0625,-35.0,-1,1.0,1.550300000000334
698,1,0.2,0.125,35.0,-1,0.0,35.877300000000105
699,1,0.2,0.25,35.0,1,1.0,43.76159999999936
700,1,0.2,1.0,35.0,1,1.0,33.3792999999996
701,1,0.2,0.0625,35.0,-1,0.0,0.6467999999999847
702,1,0.2,0.0625,35.0,-1,0.0,10.86700000000019
703,1,0.2,0.25,35.0,1,1.0,24.93409999999949
704,1,0.8,0.125,-35.0,-1,1.0,0.4480999999996129
705,1,0.8,0.25,-35.0,0,0.0,59.95479999999998
706,1,0.8,0.0625,-35.0,-1,1.0,1.646600000000035
1,2,0.2,1.0,35.0,1,1.0,0.2921999999999998
2,2,0.2,0.0625,35.0,-1,0.0,5.7451
3,2,0.2,0.0,35.0,1,1.0,0.313699999999999
4,2,0.2,0.0625,35.0,-1,0.0,3.3721999999999994
5,2,0.2,1.0,35.0,1,1.0,0.3073999999999977
6,2,0.2,0.0,-35.0,-1,1.0,4.447800000000001
7,2,0.2,0.0625,35.0,-1,0.0,11.881799999999995
8,2,0.2,0.25,-35.0,-1,1.0,0.2980000000000018
9,2,0.2,0.125,35.0,1,1.0,0.32099999999999795
10,2,0.2,0.0625,35.0,1,1.0,0.2687000000000097
11,2,0.2,0.25,-35.0,1,0.0,0.19749900000000054
12,2,0.2,0.125,35.0,1,1.0,0.29879999999999285
13,2,0.2,0.125,35.0,1,1.0,0.26780000000000115
14,2,0.2,0.125,-35.0,-1,1.0,1.1280999999999963
15,2,0.2,0.0,-35.0,1,0.0,2.4498999999999995
16,2,0.2,0.125,35.0,1,1.0,0.2931999999999988
17,2,0.2,0.0625,-35.0,-1,1.0,0.595099999999988
18,2,0.2,0.125,35.0,1,1.0,0.340999999999994
19,2,0.2,0.25,35.0,1,1.0,0.08799999999999386
20,2,0.2,0.0625,35.0,1,1.0,0.23649999999999238
21,2,0.2,1.0,35.0,1,1.0,0.30559900000000084
22,2,0.2,0.25,35.0,1,1.0,0.26080000000000325
23,2,0.2,0.25,35.0,1,1.0,0.24020000000000152
24,2,0.2,0.0625,-35.0,1,0.0,0.2524000000000086
25,2,0.2,0.125,35.0,1,1.0,0.16949999999999932
26,2,0.2,0.25,35.0,1,1.0,0.22449999999999193
27,2,0.2,0.0,35.0,1,1.0,0.19169999999999732
28,2,0.2,0.25,35.0,1,1.0,0.2634999999999934
29,2,0.2,1.0,-35.0,-1,1.0,0.31919999999999504
30,2,0.2,0.25,35.0,1,1.0,0.245900000000006
31,2,0.2,0.0625,35.0,1,1.0,0.2802999999999969
32,2,0.2,0.0625,35.0,-1,0.0,0.3586999999999989
33,2,0.2,0.125,35.0,1,1.0,0.25549999999999784
34,2,0.8,0.25,-35.0,1,0.0,0.22949999999998738
35,2,0.8,0.25,-35.0,-1,1.0,0.4800999999999931
36,2,0.8,0.25,-35.0,-1,1.0,0.4923000000000002
37,2,0.8,0.0,-35.0,1,0.0,2.442099999999982
38,2,0.8,0.0625,-35.0,-1,1.0,2.418500000000023
39,2,0.8,0.25,35.0,1,1.0,0.257000000000005
40,2,0.8,1.0,-35.0,-1,1.0,0.2758000000000038
41,2,0.8,0.0,-35.0,1,0.0,0.28770000000000095
42,2,0.8,0.0,-35.0,1,0.0,0.2501999999999782
43,2,0.8,0.0,-35.0,1,0.0,0.24320000000000164
44,2,0.8,0.125,-35.0,-1,1.0,0.4327000000000112
45,2,0.8,0.125,35.0,-1,0.0,0.30400000000000205
46,2,0.8,0.25,35.0,1,1.0,0.27410000000000423
47,2,0.8,0.0,-35.0,1,0.0,0.22979999999998313
48,2,0.8,0.125,35.0,-1,0.0,7.412599999999969
49,2,0.8,0.25,-35.0,-1,1.0,0.3515999999999906
50,2,0.8,0.0,35.0,-1,0.0,1.6072999999999809
51,2,0.8,0.25,-35.0,-1,1.0,0.26130000000000564
52,2,0.8,1.0,35.0,1,1.0,0.3300999999999874
53,2,0.8,0.125,-35.0,-1,1.0,0.8468000000000018
54,2,0.8,0.25,-35.0,-1,1.0,0.5919000000000096
55,2,0.8,0.25,-35.0,-1,1.0,0.23990000000000578
56,2,0.8,0.0625,35.0,1,1.0,0.19460000000000832
57,2,0.8,1.0,-35.0,-1,1.0,0.07019999999999982
58,2,0.8,0.25,-35.0,-1,1.0,1.4630999999999688
59,2,0.8,0.0625,-35.0,1,0.0,0.2955000000000041
60,2,0.8,0.125,-35.0,-1,1.0,0.29659999999998377
61,2,0.8,0.25,-35.0,-1,1.0,0.2540000000000191
62,2,0.8,0.0,-35.0,-1,1.0,2.522699999999986
63,2,0.8,0.0625,35.0,-1,0.0,0.4481999999999857
64,2,0.8,0.0,-35.0,1,0.0,1.2065000000000055
65,2,0.8,0.0625,-35.0,-1,1.0,0.2635999999999967
66,2,0.8,1.0,-35.0,-1,1.0,0.24710000000001742
67,2,0.8,0.0625,-35.0,-1,1.0,0.5073999999999899
68,2,0.8,1.0,-35.0,-1,1.0,0.2078999999999951
69,2,0.8,0.25,-35.0,-1,1.0,0.767799999999994
70,2,0.8,0.25,-35.0,-1,1.0,0.21289999999996212
71,2,0.8,0.125,35.0,1,1.0,0.327699999999993
72,2,0.8,1.0,-35.0,-1,1.0,0.23509999999998854
73,2,0.8,0.0,35.0,-1,0.0,0.3789000000000158
74,2,0.8,0.0625,-35.0,-1,1.0,0.3644999999999925
75,2,0.8,0.0625,-35.0,-1,1.0,0.5579999999999927
76,2,0.8,0.25,-35.0,-1,1.0,0.35659999999998604
77,2,0.8,0.0,-35.0,1,0.0,0.32040000000000646
78,2,0.8,0.0625,35.0,1,1.0,0.338799999999992
79,2,0.8,1.0,-35.0,-1,1.0,0.32749999999998636
80,2,0.8,0.25,-35.0,-1,1.0,0.6252999999999815
81,2,0.8,0.25,-35.0,-1,1.0,0.27760000000000673
82,2,0.8,0.0,-35.0,1,0.0,0.372099999999989
83,2,0.8,0.0625,-35.0,1,0.0,0.3149999999999977
84,2,0.8,1.0,-35.0,-1,1.0,0.20490000000000919
85,2,0.8,0.125,-35.0,-1,1.0,0.3383000000000038
86,2,0.8,0.0,-35.0,-1,1.0,0.3188000000000102
87,2,0.8,0.125,-35.0,-1,1.0,0.28000000000002956
88,2,0.8,0.125,-35.0,-1,1.0,0.2651000000000181
89,2,0.8,0.0,-35.0,-1,1.0,0.28489999999999327
90,2,0.8,0.125,-35.0,-1,1.0,0.32970000000000255
91,2,0.2,0.25,35.0,1,1.0,0.3077000000000112
92,2,0.2,0.0,-35.0,-1,1.0,0.6205000000000496
93,2,0.2,0.0,-35.0,1,0.0,0.347500000000025
94,2,0.2,1.0,-35.0,-1,1.0,0.21429999999998017
95,2,0.2,0.0,-35.0,1,0.0,0.24960000000004356
96,2,0.2,1.0,35.0,1,1.0,0.26849999999996044
97,2,0.2,0.25,-35.0,-1,1.0,0.2647000000000048
98,2,0.2,0.0625,35.0,-1,0.0,0.27319999999997435
99,2,0.2,0.25,35.0,1,1.0,0.2459999999999809
100,2,0.2,0.0625,35.0,-1,0.0,2.3476
101,2,0.2,0.0,35.0,1,1.0,0.3617999999999597
102,2,0.2,0.0,-35.0,1,0.0,0.33159999999998035
103,2,0.2,1.0,35.0,1,1.0,0.305499999999995
104,2,0.2,0.125,35.0,1,1.0,0.21959999999995716
105,2,0.2,0.125,35.0,1,1.0,0.28120000000001255
106,2,0.2,0.0625,35.0,1,1.0,0.7249999999999659
107,2,0.2,0.0,35.0,1,1.0,0.2991999999999848
108,2,0.2,1.0,-35.0,1,0.0,4.3688000000000216
109,2,0.2,0.0625,35.0,1,1.0,0.7091000000000349
110,2,0.2,1.0,35.0,1,1.0,0.20240000000001146
111,2,0.2,0.0,35.0,1,1.0,0.2267999999999688
112,2,0.2,0.0,35.0,1,1.0,0.2085999999999899
113,2,0.2,0.25,35.0,1,1.0,0.23460000000000036
114,2,0.2,0.0625,35.0,1,1.0,0.24560000000002447
115,2,0.2,1.0,35.0,1,1.0,0.2600999999999658
116,2,0.2,0.25,35.0,1,1.0,0.24740000000002738
117,2,0.2,0.125,-35.0,1,0.0,0.24250000000000682
118,2,0.2,1.0,35.0,1,1.0,0.20990000000000464
119,2,0.2,0.0625,35.0,1,1.0,0.21399999999999864
120,2,0.2,0.0625,35.0,1,1.0,0.2533000000000243
121,2,0.2,0.125,35.0,1,1.0,0.21429999999998017
122,2,0.2,0.125,35.0,1,1.0,0.5052000000000021
123,2,0.2,0.125,35.0,1,1.0,0.2095000000000482
124,2,0.8,0.125,35.0,1,1.0,0.26530000000002474
125,2,0.8,0.125,-35.0,1,0.0,0.24300000000005184
126,2,0.8,1.0,35.0,1,1.0,0.26269999999999527
127,2,0.8,0.125,-35.0,-1,1.0,0.4411000000000058
128,2,0.8,0.25,-35.0,-1,1.0,0.6698000000000093
129,2,0.8,1.0,-35.0,-1,1.0,0.3616000000000099
130,2,0.8,0.125,35.0,1,1.0,0.25090000000000146
131,2,0.8,1.0,-35.0,-1,1.0,0.31430000000005975
132,2,0.8,0.25,-35.0,1,0.0,0.18489999999997053
133,2,0.8,1.0,35.0,1,1.0,0.2227999999999497
134,2,0.8,0.0,35.0,1,1.0,0.18339999999994916
135,2,0.8,1.0,-35.0,-1,1.0,0.26969999999994343
136,2,0.8,0.125,35.0,1,1.0,0.2717000000000098
137,2,0.8,1.0,-35.0,1,0.0,0.22140000000001692
138,2,0.8,1.0,-35.0,-1,1.0,0.45380000000005793
139,2,0.8,0.25,-35.0,1,0.0,0.22929999999996653
140,2,0.8,0.0625,-35.0,1,0.0,0.026599999999973534
141,2,0.8,0.25,-35.0,1,0.0,0.17770000000001573
142,2,0.8,0.0625,-35.0,-1,1.0,0.24550000000004957
143,2,0.8,1.0,-35.0,-1,1.0,0.24529999999998608
144,2,0.8,1.0,-35.0,-1,1.0,0.20390000000003283
145,2,0.8,0.0,35.0,-1,0.0,0.707300000000032
146,2,0.8,0.125,35.0,1,1.0,0.2787999999999897
147,2,0.8,0.25,35.0,1,1.0,0.25209999999998445
148,2,0.8,0.125,-35.0,-1,1.0,0.7605000000000359
149,2,0.8,1.0,-35.0,-1,1.0,0.2550000000000523
150,2,0.8,0.0,-35.0,1,0.0,0.27300000000002456
151,2,0.8,1.0,-35.0,-1,1.0,0.5696999999999548
152,2,0.8,0.0625,-35.0,1,0.0,0.2196999999999889
153,2,0.8,0.0,-35.0,-1,1.0,0.29050000000000864
154,2,0.8,0.0,-35.0,1,0.0,0.30419999999998026
155,2,0.8,1.0,35.0,1,1.0,0.22739999999998872
156,2,0.8,0.0625,35.0,-1,0.0,1.2416000000000054
157,2,0.8,0.0,-35.0,1,0.0,0.21589999999997644
158,2,0.8,1.0,-35.0,-1,1.0,0.31490000000002283
159,2,0.8,0.0625,-35.0,1,0.0,0.25560000000001537
160,2,0.8,0.25,-35.0,-1,1.0,0.17300000000000182
161,2,0.8,0.125,-35.0,-1,1.0,0.5129999999999768
162,2,0.8,0.0625,35.0,1,1.0,0.3784999999999741
163,2,0.8,0.0,-35.0,1,0.0,0.4368999999999801
164,2,0.8,1.0,-35.0,-1,1.0,0.22500000000002274
165,2,0.8,0.0625,-35.0,-1,1.0,0.27129999999999654
166,2,0.8,0.0625,-35.0,-1,1.0,0.907100000000014
167,2,0.8,0.125,-35.0,-1,1.0,1.074199999999962
168,2,0.8,0.125,35.0,1,1.0,0.2907999999999902
169,2,0.8,0.25,-35.0,-1,1.0,0.6656000000001541
170,2,0.8,0.0625,-35.0,1,0.0,0.22420000000010987
171,2,0.8,0.125,-35.0,1,0.0,0.3147999999999911
172,2,0.8,0.125,-35.0,-1,1.0,0.4256000000000313
173,2,0.8,0.0625,-35.0,-1,1.0,0.3105000000000473
174,2,0.8,1.0,-35.0,-1,1.0,0.24739999999997053
175,2,0.8,1.0,-35.0,-1,1.0,0.19650000000001455
176,2,0.8,0.125,-35.0,-1,1.0,0.268799999999942
177,2,0.8,0.125,-35.0,-1,1.0,0.33299999999997
178,2,0.8,0.125,-35.0,-1,1.0,0.4776000000000522
179,2,0.8,0.25,-35.0,-1,1.0,0.3223000000000411
180,2,0.8,0.0625,-35.0,-1,1.0,0.4539999999999509
181,2,0.8,1.0,-35.0,-1,1.0,0.44399999999996
182,2,0.8,0.0625,-35.0,1,0.0,0.31949999999994816
183,2,0.8,1.0,-35.0,-1,1.0,0.417699999999968
184,2,0.8,0.0625,-35.0,-1,1.0,0.35140000000001237
185,2,0.8,0.25,-35.0,-1,1.0,0.27909999999997126
186,2,0.8,0.0625,-35.0,-1,1.0,0.32349999999996726
187,2,0.8,0.125,35.0,1,1.0,0.6559999999999491
188,2,0.8,0.125,35.0,1,1.0,0.2584999999999127
189,2,0.8,0.125,-35.0,1,0.0,0.47109999999997854
190,2,0.8,1.0,-35.0,-1,1.0,0.16859999999996944
191,2,0.8,0.0,-35.0,1,0.0,0.27920000000005984
192,2,0.2,0.25,35.0,1,1.0,0.2515999999999394
193,2,0.2,1.0,35.0,1,1.0,0.23890000000005784
194,2,0.2,0.125,35.0,-1,0.0,0.19690000000002783
195,2,0.2,1.0,35.0,1,1.0,0.2261999999999489
196,2,0.2,0.0,35.0,1,1.0,0.22730000000001382
197,2,0.2,0.25,35.0,1,1.0,0.20849999999995816
198,2,0.2,0.0625,35.0,1,1.0,0.241800000000012
199,2,0.2,0.25,35.0,1,1.0,0.2359000000000151
200,2,0.2,0.125,35.0,1,1.0,0.24339999999995143
201,2,0.2,0.0625,35.0,1,1.0,0.5547000000000253
202,2,0.2,0.0,-35.0,1,0.0,0.20839999999998327
203,2,0.2,0.25,35.0,1,1.0,0.28280000000006567
204,2,0.2,0.0,35.0,1,1.0,0.2119000000000142
205,2,0.2,0.25,35.0,1,1.0,0.2155999999999949
206,2,0.2,0.125,35.0,1,1.0,0.24479999999994106
207,2,0.2,0.0625,35.0,1,1.0,0.20370000000013988
208,2,0.2,0.125,-35.0,-1,1.0,1.2977000000000771
209,2,0.2,0.25,35.0,1,1.0,0.22400000000004638
210,2,0.2,0.125,35.0,1,1.0,0.2160999999998694
211,2,0.2,0.25,35.0,1,1.0,0.21429999999998017
212,2,0.2,0.125,35.0,1,1.0,0.24139999999999873
213,2,0.2,1.0,35.0,1,1.0,0.2959999999999354
214,2,0.2,0.25,-35.0,-1,1.0,0.3048000000000002
215,2,0.2,0.25,-35.0,1,0.0,0.49660000000005766
216,2,0.2,0.125,35.0,1,1.0,0.469600000000014
217,2,0.2,0.125,35.0,1,1.0,0.28959999999995034
218,2,0.2,0.25,35.0,1,1.0,0.2257999999999356
219,2,0.2,0.0625,35.0,1,1.0,0.4660000000000082
220,2,0.2,0.0625,35.0,1,1.0,0.39189999999996417
221,2,0.2,0.0625,35.0,1,1.0,0.10939999999993688
222,2,0.2,0.0625,35.0,1,1.0,0.4175000000000182
223,2,0.2,0.25,35.0,1,1.0,0.24270000000001346
224,2,0.2,0.125,35.0,1,1.0,0.23200000000008458
225,2,0.2,0.0625,35.0,1,1.0,0.7888999999998987
226,2,0.2,0.125,-35.0,1,0.0,0.4418000000000575
227,2,0.2,0.25,-35.0,-1,1.0,0.22410000000002128
228,2,0.2,1.0,35.0,1,1.0,0.2318000000000211
229,2,0.2,0.25,35.0,1,1.0,0.2618999999999687
230,2,0.2,0.0625,35.0,1,1.0,0.7351000000001022
231,2,0.2,0.125,35.0,1,1.0,0.24860000000001037
232,2,0.2,1.0,-35.0,-1,1.0,0.12340000000006057
233,2,0.2,0.25,35.0,1,1.0,0.23289999999997235
234,2,0.2,0.0,35.0,1,1.0,0.3059000000000651
235,2,0.2,0.0625,35.0,1,1.0,0.46670000000005984
236,2,0.2,0.0,-35.0,1,0.0,0.3950999999999567
237,2,0.2,1.0,35.0,1,1.0,0.21710000000007312
238,2,0.8,0.25,-35.0,-1,1.0,0.5813000000000557
239,2,0.8,0.125,-35.0,1,0.0,2.9774999999999636
240,2,0.8,0.125,35.0,1,1.0,0.21289999999999054
241,2,0.8,1.0,-35.0,-1,1.0,0.34219999999993433
242,2,0.8,1.0,-35.0,-1,1.0,0.7289000000000669
243,2,0.8,1.0,-35.0,-1,1.0,0.3484000000000833
244,2,0.8,0.25,-35.0,-1,1.0,0.5685999999999467
245,2,0.8,0.0625,35.0,1,1.0,0.25470000000007076
246,2,0.8,0.125,-35.0,-1,1.0,1.0518999999999323
247,2,0.8,1.0,-35.0,-1,1.0,0.2921000000001186
248,2,0.8,0.0,-35.0,1,0.0,0.2644999999999982
249,2,0.8,0.25,-35.0,-1,1.0,0.28159999999991214
250,2,0.8,0.25,-35.0,-1,1.0,0.23969999999997071
251,2,0.8,0.125,-35.0,-1,1.0,0.4845999999998867
252,2,0.8,0.25,-35.0,-1,1.0,0.38400000000001455
253,2,0.8,1.0,-35.0,-1,1.0,0.27490000000000236
254,2,0.8,0.0625,-35.0,1,0.0,1.497700000000009
255,2,0.8,0.0625,35.0,-1,0.0,0.20629999999994197
256,2,0.8,1.0,-35.0,-1,1.0,0.2782999999999447
257,2,0.8,0.25,-35.0,-1,1.0,0.2624000000000706
258,2,0.8,1.0,-35.0,-1,1.0,0.261600000000044
259,2,0.8,0.0625,-35.0,1,0.0,3.3618000000000166
260,2,0.8,1.0,-35.0,-1,1.0,1.9533999999999878
261,2,0.8,0.0,-35.0,-1,1.0,0.4880999999999176
262,2,0.8,0.0,35.0,1,1.0,4.21429999999998
263,2,0.8,0.125,-35.0,1,0.0,0.36779999999998836
264,2,0.8,1.0,-35.0,-1,1.0,0.2887999999999238
265,2,0.8,0.25,-35.0,-1,1.0,0.4656999999998561
266,2,0.8,0.0,-35.0,-1,1.0,9.73339999999996
267,2,0.8,0.0625,-35.0,-1,1.0,1.0670000000000073
268,2,0.8,0.125,-35.0,1,0.0,0.3858999999998787
269,2,0.8,0.0,-35.0,1,0.0,0.3571000000000595
270,2,0.8,0.0625,-35.0,-1,1.0,0.19650000000001455
271,2,0.8,0.0625,-35.0,1,0.0,0.26929999999993015
272,2,0.8,0.25,-35.0,-1,1.0,0.2036999999999125
273,2,0.8,0.0625,-35.0,1,0.0,0.27769999999998163
274,2,0.8,1.0,-35.0,-1,1.0,0.22289999999998145
275,2,0.8,0.0625,-35.0,-1,1.0,5.022100000000023
276,2,0.8,0.0625,-35.0,-1,1.0,0.2961999999999989
277,2,0.8,0.125,-35.0,-1,1.0,0.2579000000000633
278,2,0.8,0.25,-35.0,-1,1.0,0.30129999999996926
279,2,0.8,0.125,-35.0,-1,1.0,0.29939999999999145
280,2,0.8,0.125,-35.0,-1,1.0,0.31159999999999854
281,2,0.8,0.125,-35.0,-1,1.0,0.41689999999994143
282,2,0.8,0.25,-35.0,-1,1.0,0.2477000000000089
283,2,0.8,0.0,-35.0,-1,1.0,0.42409999999995307
284,2,0.8,1.0,-35.0,-1,1.0,0.47100000000000364
285,2,0.8,0.25,-35.0,-1,1.0,0.5663999999999305
286,2,0.8,1.0,-35.0,-1,1.0,0.4195000000000846
287,2,0.8,0.25,-35.0,-1,1.0,0.30769999999995434
288,2,0.8,0.25,-35.0,-1,1.0,0.2939999999999827
289,2,0.8,0.125,-35.0,-1,1.0,1.1361000000000558
290,2,0.8,0.0625,35.0,-1,0.0,3.018100000000004
291,2,0.8,1.0,-35.0,-1,1.0,0.21670000000005984
292,2,0.8,0.25,35.0,1,1.0,0.29729999999995016
293,2,0.8,0.125,-35.0,-1,1.0,0.22929999999996653
294,2,0.8,0.0,-35.0,-1,1.0,0.34530000000006567
295,2,0.8,0.0,-35.0,1,0.0,0.6178999999999633
296,2,0.8,0.125,35.0,1,1.0,0.5199999999999818
297,2,0.8,0.25,-35.0,-1,1.0,0.3321000000000822
298,2,0.8,0.25,-35.0,-1,1.0,0.44919999999990523
299,2,0.8,0.0,-35.0,1,0.0,0.27729999999996835
300,2,0.8,1.0,-35.0,-1,1.0,0.19069999999999254
301,2,0.8,0.0,-35.0,1,0.0,0.2678999999999405
302,2,0.8,0.0625,35.0,-1,0.0,0.21050000000002456
303,2,0.8,0.25,-35.0,-1,1.0,0.8565999999999576
304,2,0.8,0.25,-35.0,1,0.0,0.596300000000042
305,2,0.8,0.0,-35.0,1,0.0,7.5844999999999345
306,2,0.8,0.0625,-35.0,1,0.0,0.28110000000003765
307,2,0.8,0.125,35.0,1,1.0,0.245900000000006
308,2,0.8,0.125,-35.0,-1,1.0,2.4965000000000828
309,2,0.8,0.0,-35.0,1,0.0,0.10019999999997253
310,2,0.8,1.0,-35.0,-1,1.0,0.22929999999996653
311,2,0.8,0.0,-35.0,-1,1.0,0.30119999999999436
312,2,0.8,0.0625,-35.0,-1,1.0,0.5287000000000717
313,2,0.8,1.0,-35.0,-1,1.0,0.2156999999999698
314,2,0.8,1.0,-35.0,-1,1.0,0.2598000000000411
315,2,0.8,0.0625,-35.0,-1,1.0,0.3128000000000384
316,2,0.8,1.0,-35.0,-1,1.0,0.25900000000001455
317,2,0.2,0.0625,35.0,1,1.0,0.21749999999997272
318,2,0.2,0.0625,-35.0,1,0.0,1.3420999999999594
319,2,0.2,0.25,35.0,1,1.0,0.25079999999991287
320,2,0.2,0.125,35.0,1,1.0,0.2666999999999007
321,2,0.2,0.25,35.0,1,1.0,0.23739999999986594
322,2,0.2,1.0,35.0,1,1.0,0.22719999999992524
323,2,0.2,1.0,-35.0,-1,1.0,0.24099999999998545
324,2,0.2,0.25,-35.0,-1,1.0,0.26139999999998054
325,2,0.2,0.0625,35.0,1,1.0,0.30769999999995434
326,2,0.2,0.0625,-35.0,-1,1.0,2.5347999999999047
327,2,0.2,0.25,-35.0,-1,1.0,0.5513999999999442
328,2,0.2,0.25,35.0,1,1.0,0.3044999999999618
329,2,0.2,0.125,-35.0,1,0.0,0.584699999999998
330,2,0.2,0.125,35.0,1,1.0,0.35149999999998727
331,2,0.2,0.25,35.0,1,1.0,0.2117000000000644
332,2,0.2,0.25,35.0,1,1.0,0.29189999999994143
333,2,0.2,0.125,35.0,1,1.0,0.24149999999985994
334,2,0.2,0.0,35.0,1,1.0,0.44849999999996726
335,2,0.2,0.125,35.0,1,1.0,0.20489999999995234
336,2,0.2,0.0,35.0,1,1.0,0.2516000000000531
337,2,0.8,0.125,-35.0,1,0.0,0.35839999999984684
338,2,0.8,1.0,-35.0,-1,1.0,0.23849999999993088
339,2,0.8,0.0,-35.0,1,0.0,5.678699999999935
340,2,0.8,0.0,-35.0,-1,1.0,0.37209999999981846
341,2,0.8,0.0625,-35.0,-1,1.0,0.315900000000056
342,2,0.8,1.0,-35.0,-1,1.0,0.1893999999999778
343,2,0.8,1.0,-35.0,-1,1.0,0.21280000000001564
344,2,0.8,0.25,-35.0,-1,1.0,0.2724000000000615
345,2,0.8,1.0,-35.0,-1,1.0,0.0991999999998825
346,2,0.8,0.0625,-35.0,-1,1.0,0.24919999999997344
347,2,0.8,0.0625,-35.0,-1,1.0,0.40599999999994907
348,2,0.8,0.0625,35.0,1,1.0,0.4094000000000051
349,2,0.8,1.0,-35.0,-1,1.0,0.2765999999999167
350,2,0.8,0.125,-35.0,1,0.0,0.28959999999983665
351,2,0.8,0.0625,35.0,1,1.0,0.33029999999985193
352,2,0.8,0.125,35.0,1,1.0,0.26959999999985484
353,2,0.8,0.0625,-35.0,1,0.0,0.2669000000003052
354,2,0.8,0.25,-35.0,-1,1.0,0.3166999999998552
355,2,0.8,0.125,-35.0,-1,1.0,1.1331999999997606
356,2,0.8,0.0625,35.0,1,1.0,0.29310000000009495
357,2,0.8,1.0,35.0,1,1.0,0.20019999999999527
358,2,0.8,0.0625,-35.0,1,0.0,0.3667000000000371
359,2,0.8,1.0,35.0,1,1.0,0.23060000000009495
360,2,0.8,0.25,-35.0,-1,1.0,0.28710000000000946
361,2,0.8,0.25,-35.0,-1,1.0,0.2701999999999316
362,2,0.8,0.25,-35.0,-1,1.0,0.24710000000004584
363,2,0.8,1.0,-35.0,-1,1.0,0.6039000000002943
364,2,0.8,0.125,-35.0,-1,1.0,0.2703999999998814
365,2,0.8,0.125,-35.0,-1,1.0,0.25720000000001164
366,2,0.8,1.0,-35.0,-1,1.0,0.23070000000006985
367,2,0.8,0.25,-35.0,-1,1.0,0.5940000000000509
368,2,0.8,0.25,-35.0,-1,1.0,0.25729999999998654
369,2,0.8,1.0,-35.0,-1,1.0,0.4576000000001841
370,2,0.8,0.25,-35.0,1,0.0,5.111100000000079
371,2,0.8,0.125,-35.0,-1,1.0,0.24779999999987012
372,2,0.8,1.0,-35.0,-1,1.0,0.47840000000019245
373,2,0.8,0.0625,-35.0,1,0.0,0.2318000000000211
374,2,0.8,0.125,-35.0,1,0.0,0.22790000000009059
375,2,0.8,0.0,35.0,-1,0.0,3.5718000000001666
376,2,0.8,0.25,-35.0,-1,1.0,0.31169999999997344
377,2,0.8,0.0,-35.0,-1,1.0,4.868199999999888
378,2,0.8,0.0625,-35.0,1,0.0,3.0188000000000557
379,2,0.8,0.125,-35.0,-1,1.0,0.23569999999995161
380,2,0.8,0.25,35.0,1,1.0,0.42200000000002547
381,2,0.8,1.0,-35.0,-1,1.0,0.43899999999985084
382,2,0.8,0.0625,-35.0,-1,1.0,0.3289999999999509
383,2,0.8,0.25,-35.0,1,0.0,0.24630000000001928
384,2,0.8,1.0,-35.0,-1,1.0,0.33570000000008804
385,2,0.8,0.125,-35.0,-1,1.0,0.4558999999999287
386,2,0.8,0.25,-35.0,-1,1.0,0.48929999999995744
387,2,0.8,1.0,-35.0,-1,1.0,0.2195000000001528
388,2,0.8,0.125,-35.0,-1,1.0,0.2658999999998741
389,2,0.8,0.125,-35.0,-1,1.0,0.3794989999998961
390,2,0.8,0.0625,-35.0,-1,1.0,0.553000000000111
391,2,0.8,0.25,-35.0,-1,1.0,0.24279999999998836
392,2,0.8,0.125,-35.0,-1,1.0,0.4864000000000033
393,2,0.8,1.0,-35.0,-1,1.0,0.24710000000004584
394,2,0.8,0.25,-35.0,-1,1.0,0.3369999999999891
395,2,0.8,0.0625,35.0,1,1.0,0.3730000000000473
396,2,0.8,0.0625,35.0,1,1.0,0.3369000000000142
397,2,0.8,0.25,-35.0,1,0.0,0.3202000000001135
398,2,0.8,0.125,-35.0,-1,1.0,0.22019999999997708
399,2,0.8,0.25,-35.0,-1,1.0,0.32370000000014443
400,2,0.8,0.125,35.0,1,1.0,0.23749999999995453
401,2,0.8,0.125,-35.0,1,0.0,0.15009999999983847
402,2,0.8,0.0625,-35.0,1,0.0,0.2704000000001088
403,2,0.8,0.125,35.0,1,1.0,0.2771000000002459
404,2,0.8,0.0625,-35.0,1,0.0,0.4739999999999327
405,2,0.8,1.0,35.0,1,1.0,0.2537999999999556
406,2,0.8,0.125,-35.0,-1,1.0,1.0340000000001055
407,2,0.8,0.0625,-35.0,-1,1.0,0.26070000000004256
408,2,0.8,0.25,-35.0,-1,1.0,0.24430000000006658
409,2,0.8,0.25,-35.0,-1,1.0,0.26089999999999236
410,2,0.8,0.125,-35.0,-1,1.0,0.2876000000001113
411,2,0.8,1.0,-35.0,-1,1.0,0.17420000000015534
412,2,0.8,0.125,-35.0,-1,1.0,0.23470000000020264
413,2,0.8,1.0,-35.0,-1,1.0,0.7443000000000666
414,2,0.8,0.0625,-35.0,1,0.0,0.5082999999999629
415,2,0.8,0.0625,-35.0,-1,1.0,2.767899999999827
416,2,0.2,0.0,-35.0,1,0.0,0.2781999999999698
417,2,0.2,0.0625,35.0,1,1.0,0.29539999999997235
418,2,0.2,0.0625,35.0,1,1.0,0.26559999999994943
419,2,0.2,0.125,35.0,1,1.0,0.24489999999991596
420,2,0.2,1.0,35.0,1,1.0,0.2418999999999869
421,2,0.2,0.125,35.0,1,1.0,0.26500000000010004
422,2,0.2,0.25,35.0,1,1.0,0.21219999999993888
423,2,0.2,1.0,35.0,1,1.0,0.19190000000003238
424,2,0.2,0.0625,-35.0,1,0.0,0.29179999999996653
425,2,0.2,0.25,35.0,1,1.0,0.23870000000010805
426,2,0.2,1.0,-35.0,-1,1.0,0.2058999999999287
427,2,0.2,0.125,-35.0,-1,1.0,0.9254000000000815
428,2,0.2,0.0625,35.0,1,1.0,0.4457999999999629
429,2,0.2,0.25,35.0,1,1.0,0.22910000000001673
430,2,0.2,0.0,35.0,1,1.0,0.3623999999999796
431,2,0.2,0.25,35.0,1,1.0,0.24649999999996908
432,2,0.2,0.0625,35.0,1,1.0,0.2624999999998181
433,2,0.2,0.0625,35.0,1,1.0,0.419399999999996
434,2,0.2,0.25,35.0,1,1.0,0.20590000000015607
435,2,0.2,1.0,35.0,1,1.0,0.22270000000003165
436,2,0.2,0.125,35.0,1,1.0,0.09940000000005966
437,2,0.2,0.25,-35.0,1,0.0,0.4694999999999254
438,2,0.2,0.25,35.0,1,1.0,0.2198990000001686
439,2,0.2,0.0625,35.0,1,1.0,0.2897000000000389
440,2,0.2,0.25,35.0,1,1.0,0.3029999999998836
441,2,0.8,0.0,-35.0,-1,1.0,4.29970000000003
442,2,0.8,0.0,-35.0,1,0.0,0.6032000000000153
443,2,0.8,1.0,-35.0,-1,1.0,0.23359999999979664
444,2,0.8,0.0625,-35.0,1,0.0,0.25369999999975335
445,2,0.8,0.125,35.0,1,1.0,0.2771000000002459
446,2,0.8,0.0625,35.0,1,1.0,0.25729999999998654
447,2,0.8,0.25,-35.0,1,0.0,0.5206000000000586
448,2,0.8,0.125,-35.0,-1,1.0,4.4404000000001815
449,2,0.8,0.25,-35.0,-1,1.0,0.48080000000004475
450,2,0.8,1.0,-35.0,-1,1.0,0.4440999999999349
451,2,0.8,0.0625,-35.0,-1,1.0,0.5174999999999272
452,2,0.8,1.0,35.0,1,1.0,0.2944999999999709
453,2,0.8,0.25,-35.0,-1,1.0,0.93100000000004
454,2,0.8,0.125,-35.0,1,0.0,2.791400000000067
455,2,0.8,0.25,-35.0,-1,1.0,0.294399999999996
456,2,0.8,1.0,-35.0,-1,1.0,0.37809999999990396
457,2,0.8,0.25,-35.0,-1,1.0,0.8913000000000011
458,2,0.8,1.0,-35.0,-1,1.0,0.25489999999990687
459,2,0.8,1.0,-35.0,-1,1.0,0.17810000000008586
460,2,0.8,0.125,-35.0,-1,1.0,0.33819999999991524
461,2,0.8,0.0625,-35.0,-1,1.0,0.6747000000000298
462,2,0.8,0.25,35.0,1,1.0,0.2947999999998956
463,2,0.8,0.125,-35.0,-1,1.0,1.3450000000000273
464,2,0.8,0.25,35.0,1,1.0,0.34199999999987085
465,2,0.8,0.25,35.0,1,1.0,0.45839999999998327
466,2,0.8,0.0625,-35.0,1,0.0,4.228500000000167
467,2,0.8,1.0,-35.0,-1,1.0,0.21579999999971733
468,2,0.8,0.125,-35.0,-1,1.0,0.6521000000002459
469,2,0.8,1.0,-35.0,-1,1.0,0.2826000000000022
470,2,0.8,1.0,-35.0,-1,1.0,0.2256999999999607
471,2,0.8,0.125,-35.0,-1,1.0,0.22560000000021319
472,2,0.2,0.125,35.0,1,1.0,0.3889999999998963
473,2,0.2,0.125,35.0,1,1.0,0.3590999999998985
474,2,0.2,0.0,35.0,1,1.0,0.7293999999999414
475,2,0.2,0.0625,35.0,1,1.0,0.3025999999997566
476,2,0.2,0.0625,-35.0,1,0.0,0.2664999999999509
477,2,0.2,1.0,35.0,1,1.0,0.2661999999997988
478,2,0.2,0.0625,35.0,1,1.0,0.2562000000000353
479,2,0.2,1.0,35.0,1,1.0,0.2294000000001688
480,2,0.2,0.25,35.0,1,1.0,0.14970000000016626
481,2,0.2,1.0,35.0,1,1.0,0.10639999999989413
482,2,0.2,0.0625,35.0,1,1.0,0.21659999999997126
483,2,0.2,0.125,-35.0,1,0.0,0.5767000000000735
484,2,0.2,0.0625,35.0,1,1.0,0.18050000000016553
485,2,0.2,0.0625,35.0,1,1.0,0.25020000000017717
486,2,0.2,0.25,35.0,1,1.0,0.20039999999994507
487,2,0.2,0.25,35.0,1,1.0,0.21749999999997272
488,2,0.2,1.0,35.0,1,1.0,0.1635999999998603
489,2,0.2,0.25,35.0,1,1.0,0.1973000000000411
490,2,0.2,0.0625,35.0,1,1.0,0.3601000000001022
491,2,0.2,0.25,35.0,1,1.0,0.2637999999999465
492,2,0.2,0.125,35.0,1,1.0,0.21359999999981483
493,2,0.2,0.125,35.0,1,1.0,0.43049999999993815
494,2,0.8,0.0,35.0,1,1.0,0.30379999999991014
495,2,0.8,1.0,-35.0,-1,1.0,0.33399999999983265
496,2,0.8,0.0625,-35.0,-1,1.0,4.684199999999919
497,2,0.8,0.0,-35.0,1,0.0,0.41069999999990614
498,2,0.8,0.25,35.0,1,1.0,0.3308999999999287
499,2,0.8,0.125,35.0,1,1.0,0.26110000000016953
500,2,0.8,0.125,-35.0,-1,1.0,5.90760000000023
501,2,0.8,0.0,-35.0,-1,1.0,0.37180000000012114
502,2,0.8,1.0,35.0,1,1.0,0.24480000000016844
503,2,0.8,0.0625,-35.0,1,0.0,1.4249999999999545
504,2,0.8,0.125,35.0,1,1.0,0.2682999999999538
505,2,0.8,0.25,-35.0,-1,1.0,0.8316000000002077
506,2,0.8,0.0,-35.0,-1,1.0,1.5784000000001015
507,2,0.8,1.0,35.0,1,1.0,0.32199900000000525
508,2,0.8,0.0625,35.0,-1,0.0,0.8018000000001848
509,2,0.8,0.125,-35.0,1,0.0,0.2453000000002703
510,2,0.8,0.125,-35.0,1,0.0,0.3124999999997726
511,2,0.8,0.25,-35.0,-1,1.0,0.20879999999988286
512,2,0.8,1.0,35.0,1,1.0,0.2861000000000331
513,2,0.8,0.0625,-35.0,-1,1.0,0.975400000000036
514,2,0.8,1.0,-35.0,-1,1.0,0.23640000000000327
515,2,0.8,0.25,-35.0,-1,1.0,0.48109999999996944
516,2,0.8,0.125,35.0,-1,0.0,0.5593999999998687
517,2,0.8,0.125,-35.0,-1,1.0,0.2725000000000364
518,2,0.8,0.125,-35.0,-1,1.0,0.24930000000017571
519,2,0.8,0.0625,-35.0,-1,1.0,0.24649999999996908
520,2,0.8,1.0,-35.0,-1,1.0,0.8093000000001211
521,2,0.8,0.125,35.0,1,1.0,5.579600000000028
522,2,0.8,1.0,-35.0,-1,1.0,0.21029999999996107
523,2,0.8,0.25,-35.0,-1,1.0,0.3065000000001419
524,2,0.8,0.0,-35.0,-1,1.0,0.29979999999977736
525,2,0.8,0.125,35.0,1,1.0,0.26720000000000255
526,2,0.8,0.125,-35.0,-1,1.0,0.6365000000000691
527,2,0.8,0.125,35.0,1,1.0,0.26319999999986976
528,2,0.8,0.125,-35.0,1,0.0,0.43029999999998836
529,2,0.8,0.125,35.0,1,1.0,0.6966999999999643
530,2,0.8,0.0625,-35.0,-1,1.0,2.0373000000001866
531,2,0.8,0.0,35.0,1,1.0,0.20029999999997017
532,2,0.8,0.25,-35.0,-1,1.0,0.8269999999999982
533,2,0.8,0.25,-35.0,-1,1.0,0.4272999999998319
534,2,0.8,0.0625,-35.0,-1,1.0,0.6736000000000786
535,2,0.8,0.125,-35.0,-1,1.0,4.23739999999998
536,2,0.8,0.25,-35.0,-1,1.0,0.28729999999995925
537,2,0.8,0.25,-35.0,-1,1.0,0.7705999999998312
538,2,0.8,0.0625,-35.0,-1,1.0,1.2574999999999363
539,2,0.8,1.0,35.0,1,1.0,0.26080000000001746
540,2,0.8,0.0625,-35.0,-1,1.0,5.4840999999998985
541,2,0.8,0.0625,-35.0,-1,1.0,0.9713989999997921
542,2,0.8,0.0625,35.0,1,1.0,0.391399999999976
543,2,0.8,0.0,35.0,1,1.0,0.354799999999841
544,2,0.8,0.0,-35.0,1,0.0,0.2980999999999767
545,2,0.8,0.25,-35.0,-1,1.0,0.2212000000001808
546,2,0.8,1.0,35.0,1,1.0,0.25489999999990687
547,2,0.8,0.25,-35.0,-1,1.0,0.468199999999797
548,2,0.8,1.0,35.0,1,1.0,0.24890000000004875
549,2,0.8,1.0,-35.0,-1,1.0,0.29169999999999163
550,2,0.8,0.0625,35.0,1,1.0,0.4451000000001386
551,2,0.8,1.0,-35.0,-1,1.0,0.24210000000016407
552,2,0.8,1.0,-35.0,-1,1.0,0.2783999999999196
553,2,0.8,1.0,-35.0,-1,1.0,0.2218000000000302
554,2,0.8,0.0,35.0,1,1.0,0.24870000000009895
555,2,0.8,1.0,-35.0,-1,1.0,1.2658000000001266
556,2,0.8,0.0625,-35.0,-1,1.0,3.6521000000000186
557,2,0.8,0.0,35.0,1,1.0,0.36580000000003565
558,2,0.8,0.0,-35.0,1,0.0,0.49299999999993815
559,2,0.8,0.0625,-35.0,-1,1.0,0.22900000000004184
560,2,0.8,1.0,35.0,1,1.0,0.25900000000001455
561,2,0.8,0.0625,-35.0,-1,1.0,0.5197999999998046
562,2,0.8,0.25,-35.0,-1,1.0,0.2825000000000273
563,2,0.8,0.0625,-35.0,-1,1.0,0.37259999999992033
564,2,0.8,0.125,35.0,1,1.0,0.33590000000003783
565,2,0.8,0.125,-35.0,-1,1.0,0.3034000000002379
566,2,0.8,0.25,-35.0,-1,1.0,0.26620000000025357
567,2,0.8,0.0625,-35.0,-1,1.0,0.9164000000000669
568,2,0.8,0.125,-35.0,-1,1.0,0.6603000000002339
569,2,0.8,0.125,35.0,1,1.0,0.3168000000000575
570,2,0.8,0.25,-35.0,-1,1.0,0.4696999999998752
571,2,0.8,1.0,-35.0,-1,1.0,0.24310000000014043
572,2,0.8,0.0625,-35.0,-1,1.0,0.8869999999999436
573,2,0.8,0.125,-35.0,-1,1.0,0.8469000000002325
574,2,0.8,0.25,-35.0,-1,1.0,0.4067000000000007
575,2,0.8,0.25,-35.0,-1,1.0,0.48060000000009495
576,2,0.8,0.125,-35.0,-1,1.0,0.3573999999998705
577,2,0.8,0.0,35.0,-1,0.0,0.2540000000001328
578,2,0.8,0.25,-35.0,-1,1.0,0.2503999999998996
579,2,0.8,0.125,35.0,1,1.0,0.31740000000013424
580,2,0.8,0.0625,-35.0,1,0.0,0.300499999999829
581,2,0.8,0.0625,-35.0,1,0.0,0.41049999999995634
582,2,0.8,1.0,-35.0,-1,1.0,0.2112000000001899
583,2,0.2,0.25,35.0,1,1.0,0.24789999999984502
584,2,0.2,1.0,-35.0,-1,1.0,1.014599999999973
585,2,0.2,0.0625,35.0,1,1.0,0.2741000000000895
586,2,0.2,0.25,35.0,1,1.0,0.24069999999983338
587,2,0.2,0.25,35.0,1,1.0,0.32409999999981665
588,2,0.2,0.0,35.0,-1,0.0,3.030899999999974
589,2,0.2,1.0,35.0,1,1.0,0.2481999999999971
590,2,0.2,0.0625,35.0,-1,0.0,8.264400000000023
591,2,0.2,0.25,35.0,1,1.0,0.27809999999976753
592,2,0.2,0.125,35.0,1,1.0,0.3246999999998934
593,2,0.2,0.0625,35.0,1,1.0,0.34829999999988104
594,2,0.2,1.0,35.0,1,1.0,0.25480000000015934
595,2,0.2,0.125,-35.0,-1,1.0,0.5417999999999665
596,2,0.2,0.125,35.0,-1,0.0,4.398899999999912
597,2,0.2,0.0625,35.0,1,1.0,0.3485000000000582
598,2,0.2,0.125,35.0,1,1.0,0.29549999999994725
599,2,0.2,1.0,35.0,1,1.0,0.22869999999988977
600,2,0.2,0.125,35.0,1,1.0,0.36550000000011096
601,2,0.2,0.25,35.0,1,1.0,0.22540000000003602
602,2,0.2,0.125,35.0,1,1.0,0.26909999999998035
603,2,0.2,0.0625,35.0,1,1.0,0.21539999999981774
604,2,0.2,0.125,35.0,1,1.0,0.2554000000002361
605,2,0.2,0.25,35.0,1,1.0,0.2757000000001426
606,2,0.2,0.125,-35.0,1,0.0,0.48289999999997235
607,2,0.2,0.25,35.0,1,1.0,0.30320000000006075
608,2,0.2,1.0,35.0,1,1.0,0.23919999999998254
609,2,0.2,0.0,35.0,-1,0.0,10.4692
610,2,0.2,0.25,-35.0,-1,1.0,0.3432000000000244
611,2,0.2,0.25,-35.0,-1,1.0,0.6963000000000648
612,2,0.2,1.0,35.0,1,1.0,0.2930999999998676
613,2,0.8,1.0,-35.0,-1,1.0,0.259900000000016
614,2,0.8,0.0625,35.0,-1,0.0,0.32979999999997744
615,2,0.8,1.0,-35.0,-1,1.0,0.280100000000175
616,2,0.8,0.0625,-35.0,1,0.0,0.4234000000001288
617,2,0.8,0.0625,-35.0,-1,1.0,0.3368000000000393
618,2,0.8,1.0,-35.0,-1,1.0,0.8066000000001168
619,2,0.8,0.0,35.0,-1,0.0,8.216699999999946
620,2,0.8,0.125,-35.0,-1,1.0,15.75059999999985
621,2,0.8,0.125,-35.0,-1,1.0,0.3913999999997486
622,2,0.8,0.125,-35.0,-1,1.0,30.80749999999989
623,2,0.8,0.125,-35.0,-1,1.0,0.5552000000000135
624,2,0.8,0.0,35.0,-1,0.0,2.151800000000094
625,2,0.8,1.0,-35.0,-1,1.0,0.29579999999987194
626,2,0.8,0.0625,-35.0,-1,1.0,18.17190000000005
627,2,0.8,1.0,-35.0,-1,1.0,2.7795999999998457
628,2,0.8,1.0,-35.0,-1,1.0,0.2897000000000389
629,2,0.8,0.0,-35.0,-1,1.0,1.0630999999998494
630,2,0.8,0.125,-35.0,-1,1.0,0.2798000000002503
631,2,0.8,0.0625,-35.0,-1,1.0,28.95990000000029
632,2,0.8,0.125,-35.0,-1,1.0,0.5504000000000815
633,2,0.8,0.125,-35.0,-1,1.0,0.4736000000002605
634,2,0.8,0.25,-35.0,-1,1.0,20.680700000000343
635,2,0.8,0.125,-35.0,-1,1.0,18.738000000000284
636,2,0.8,1.0,-35.0,-1,1.0,0.32230000000072323
637,2,0.8,0.125,-35.0,-1,1.0,12.161600000000362
638,2,0.8,0.0,-0.0,0,0.0,59.94520000000057
639,2,0.8,0.125,-35.0,-1,1.0,10.470200000000204
640,2,0.8,0.0625,-35.0,-1,1.0,30.58089999999993
641,2,0.8,0.0,-35.0,-1,1.0,1.1185000000004948
642,2,0.8,0.125,-35.0,-1,1.0,13.658300000000509
643,2,0.8,1.0,35.0,1,1.0,0.5419000000001688
644,2,0.8,0.0625,35.0,-1,0.0,0.3258000000005268
645,2,0.8,1.0,-35.0,-1,1.0,0.4290000000000873
646,2,0.8,0.0625,35.0,-1,0.0,9.686099999999897
647,2,0.8,0.125,-35.0,-1,1.0,10.09920000000011
648,2,0.8,0.0625,-35.0,-1,1.0,11.432999999999993
1,3,0.8,0.25,-35.0,-1,1.0,0.28570000000000007
2,3,0.8,1.0,-35.0,-1,1.0,0.36869999999999914
3,3,0.8,0.0625,35.0,1,1.0,0.058399999999999785
4,3,0.8,0.25,-35.0,-1,1.0,0.32729999999999926
5,3,0.8,1.0,35.0,1,1.0,0.2715000000000014
6,3,0.8,1.0,-35.0,1,0.0,6.378200000000001
7,3,0.8,0.125,-35.0,-1,1.0,0.41659999999999897
8,3,0.8,0.0625,-35.0,-1,1.0,4.055700000000002
9,3,0.8,0.0625,-35.0,-1,1.0,4.127500000000001
10,3,0.8,0.0625,-35.0,-1,1.0,2.875700000000002
11,3,0.8,0.0625,-35.0,1,0.0,0.3093989999999991
12,3,0.8,0.25,-35.0,-1,1.0,0.2522999999999982
13,3,0.8,0.125,35.0,1,1.0,0.3103000000000051
14,3,0.8,0.125,-35.0,-1,1.0,0.32690000000000197
15,3,0.8,1.0,-35.0,-1,1.0,1.0488
16,3,0.8,1.0,35.0,1,1.0,0.25849999999999795
17,3,0.8,0.0,-35.0,-1,1.0,3.176700000000004
18,3,0.8,0.0,-35.0,-1,1.0,3.908600000000007
19,3,0.8,0.0,-35.0,-1,1.0,1.1539999999999964
20,3,0.8,0.25,-35.0,-1,1.0,3.380499999999998
21,3,0.8,0.25,-35.0,-1,1.0,0.20309999999999206
22,3,0.8,0.25,-35.0,-1,1.0,0.209699999999998
23,3,0.8,1.0,-35.0,-1,1.0,0.2009000000000043
24,3,0.8,0.0625,-35.0,-1,1.0,0.21009999999999707
25,3,0.8,0.25,-35.0,-1,1.0,0.22700000000000387
26,3,0.8,0.25,-35.0,-1,1.0,0.21059999999998524
27,3,0.8,0.0,-35.0,-1,1.0,1.266999999999996
28,3,0.8,1.0,-35.0,-1,1.0,0.12180000000000746
29,3,0.8,1.0,-35.0,-1,1.0,0.23620000000001085
30,3,0.8,0.125,-35.0,-1,1.0,0.27719999999999345
31,3,0.8,0.25,35.0,1,1.0,0.34560000000000457
32,3,0.8,1.0,35.0,1,1.0,0.24569999999999936
33,3,0.8,0.25,35.0,1,1.0,0.28000000000000114
34,3,0.8,0.0625,-35.0,1,0.0,0.2652999999999963
35,3,0.8,1.0,-35.0,-1,1.0,0.3523999999999887
36,3,0.8,0.125,-35.0,-1,1.0,0.3246000000000038
37,3,0.8,1.0,-35.0,-1,1.0,0.2366999999999848
38,3,0.8,0.0,-35.0,-1,1.0,0.4288000000000096
39,3,0.8,1.0,35.0,1,1.0,0.5293000000000347
40,3,0.8,0.0625,-35.0,-1,1.0,0.20819999999997663
41,3,0.8,0.0625,-35.0,-1,1.0,0.2020000000000266
42,3,0.8,0.0,-35.0,-1,1.0,0.20939999999998804
43,3,0.8,0.25,35.0,-1,0.0,0.21060000000002788
44,3,0.8,0.125,-35.0,-1,1.0,0.2021000000000015
45,3,0.8,1.0,-35.0,-1,1.0,0.1882999999999697
46,3,0.8,0.125,-35.0,-1,1.0,0.33899999999999864
47,3,0.8,0.0625,35.0,-1,0.0,0.2601999999999691
48,3,0.8,0.25,-35.0,-1,1.0,0.19710000000000605
49,3,0.8,0.25,-35.0,-1,1.0,0.36719999999999686
50,3,0.8,0.25,-35.0,-1,1.0,0.2512999999999863
51,3,0.8,0.25,-35.0,-1,1.0,0.22669999999996548
52,3,0.8,0.0,-35.0,-1,1.0,0.21160000000000423
53,3,0.8,1.0,-35.0,-1,1.0,0.20000000000004547
54,3,0.8,1.0,-35.0,-1,1.0,0.21040000000002124
55,3,0.2,0.125,35.0,1,1.0,0.38570000000001414
56,3,0.2,0.0625,35.0,1,1.0,0.35830000000001405
57,3,0.2,1.0,-35.0,-1,1.0,0.18399999999996908
58,3,0.2,0.125,35.0,1,1.0,0.32740000000001146
59,3,0.2,0.125,-35.0,-1,1.0,0.5118000000000222
60,3,0.2,0.0625,35.0,1,1.0,0.5878999999999621
61,3,0.2,1.0,35.0,1,1.0,0.0893000000000086
62,3,0.2,1.0,35.0,1,1.0,0.2523000000000195
63,3,0.2,0.0625,-35.0,-1,1.0,0.33740000000000236
64,3,0.2,0.0,35.0,-1,0.0,0.31929999999999836
65,3,0.2,1.0,35.0,1,1.0,0.23080000000001633
66,3,0.2,0.0625,35.0,1,1.0,0.6351999999999975
67,3,0.2,0.0625,-35.0,-1,1.0,1.6134999999999877
68,3,0.2,1.0,35.0,1,1.0,0.2869000000000028
69,3,0.2,0.125,35.0,-1,0.0,2.000499999999988
70,3,0.2,0.25,35.0,1,1.0,0.2647999999999513
71,3,0.2,0.25,35.0,1,1.0,0.25029999999998154
72,3,0.2,0.0625,-35.0,-1,1.0,0.2752000000000123
73,3,0.2,0.125,-35.0,-1,1.0,0.2774000000000001
74,3,0.2,0.25,35.0,1,1.0,0.21959999999998558
75,3,0.2,0.0625,35.0,1,1.0,0.27580000000003224
76,3,0.2,0.0625,35.0,1,1.0,0.663299999999964
77,3,0.2,1.0,35.0,1,1.0,0.20949999999996294
78,3,0.2,1.0,35.0,1,1.0,0.21450000000001523
79,3,0.2,0.0,35.0,1,1.0,0.2817999999999756
80,3,0.2,0.25,35.0,1,1.0,0.23689999999999145
81,3,0.2,0.0625,35.0,1,1.0,0.2909999999999684
82,3,0.2,0.0,35.0,1,1.0,0.20699999999999363
83,3,0.2,0.0625,35.0,1,1.0,0.3381000000000256
84,3,0.2,0.125,35.0,1,1.0,0.20930000000001314
85,3,0.2,0.25,35.0,1,1.0,0.24909999999999854
86,3,0.2,0.0625,35.0,1,1.0,0.22759999999999536
87,3,0.2,0.125,35.0,1,1.0,0.2744000000000142
88,3,0.2,0.125,35.0,1,1.0,0.19099999999997408
89,3,0.2,0.125,-35.0,1,0.0,0.19130000000001246
90,3,0.2,0.25,35.0,1,1.0,0.17290000000002692
91,3,0.2,1.0,35.0,1,1.0,0.19959999999997535
92,3,0.2,0.0625,35.0,1,1.0,0.27710000000001855
93,3,0.2,0.125,35.0,1,1.0,0.22849999999999682
94,3,0.2,1.0,-35.0,-1,1.0,0.23539999999997008
95,3,0.2,0.25,-35.0,-1,1.0,0.26839999999998554
96,3,0.2,0.0625,35.0,1,1.0,0.25430000000000064
97,3,0.2,0.0625,35.0,1,1.0,0.2633000000000152
98,3,0.2,0.125,35.0,1,1.0,0.2755000000000223
99,3,0.2,1.0,35.0,1,1.0,0.20350000000001955
100,3,0.2,1.0,35.0,1,1.0,0.18830000000002656
101,3,0.2,0.125,35.0,1,1.0,0.19710000000003447
102,3,0.2,0.0625,35.0,1,1.0,0.052900000000022374
103,3,0.2,0.125,35.0,1,1.0,0.19060000000001764
104,3,0.8,0.0625,35.0,1,1.0,0.21539999999998827
105,3,0.8,0.0,-35.0,1,0.0,0.219600000000014
106,3,0.8,0.25,-35.0,-1,1.0,0.7602999999999724
107,3,0.8,0.0625,-35.0,-1,1.0,0.5903000000000134
108,3,0.8,1.0,-35.0,-1,1.0,0.339300000000037
109,3,0.8,0.0625,-35.0,-1,1.0,0.5417000000000485
110,3,0.8,1.0,-35.0,-1,1.0,0.18870000000003984
111,3,0.8,0.0,-35.0,1,0.0,0.222500000000025
112,3,0.8,1.0,-35.0,-1,1.0,0.24639999999999418
113,3,0.8,0.125,-35.0,1,0.0,0.23840000000001282
114,3,0.8,1.0,-35.0,-1,1.0,2.4132000000000176
115,3,0.8,0.125,-35.0,-1,1.0,0.7537000000000376
116,3,0.8,0.125,-35.0,-1,1.0,2.7314999999999827
117,3,0.8,1.0,35.0,1,1.0,0.3357000000000312
118,3,0.8,0.125,-35.0,-1,1.0,0.323599999999999
119,3,0.8,1.0,-35.0,-1,1.0,0.20960000000007994
120,3,0.8,1.0,-35.0,-1,1.0,0.9386000000000081
121,3,0.8,1.0,-35.0,-1,1.0,0.2179999999999609
122,3,0.8,1.0,-35.0,-1,1.0,0.24930000000000518
123,3,0.8,0.0625,-35.0,-1,1.0,0.3347999999999729
124,3,0.8,0.25,-35.0,-1,1.0,0.1856999999999971
125,3,0.8,0.0625,-35.0,-1,1.0,0.34279999999995425
126,3,0.8,0.25,35.0,1,1.0,0.34190000000000964
127,3,0.8,0.0625,-35.0,-1,1.0,0.25950000000005957
128,3,0.8,0.25,-35.0,-1,1.0,0.22320000000001983
129,3,0.8,0.25,-35.0,-1,1.0,0.44479999999998654
130,3,0.8,0.25,35.0,1,1.0,0.2744999999999891
131,3,0.8,0.25,-35.0,-1,1.0,0.5012000000000398
132,3,0.8,0.0625,35.0,1,1.0,0.3237999999999488
133,3,0.8,0.125,-35.0,-1,1.0,0.2784000000000333
134,3,0.8,0.25,-35.0,-1,1.0,0.42369999999999663
135,3,0.8,0.25,35.0,1,1.0,0.2826000000000022
136,3,0.8,0.125,-35.0,1,0.0,0.44470000000001164
137,3,0.2,0.0625,35.0,1,1.0,0.3320000000000505
138,3,0.2,1.0,35.0,1,1.0,0.24140000000005557
139,3,0.2,0.125,35.0,1,1.0,0.2744000000000142
140,3,0.2,0.25,35.0,1,1.0,0.24270000000001346
141,3,0.2,0.25,-35.0,-1,1.0,0.469600000000014
142,3,0.2,0.0625,35.0,1,1.0,0.22790000000003374
143,3,0.2,0.125,35.0,1,1.0,0.25490000000002055
144,3,0.2,0.0625,-35.0,1,0.0,0.2096000000000231
145,3,0.2,0.0625,-35.0,1,0.0,0.29300000000000637
146,3,0.2,0.25,35.0,1,1.0,0.2726000000000113
147,3,0.2,1.0,35.0,1,1.0,0.6517000000000053
148,3,0.2,1.0,35.0,1,1.0,0.21220000000005257
149,3,0.2,0.0625,35.0,1,1.0,0.2605000000000359
150,3,0.2,1.0,35.0,1,1.0,0.22409999999996444
151,3,0.2,1.0,35.0,1,1.0,0.24799999999999045
152,3,0.2,1.0,35.0,1,1.0,0.23869999999999436
153,3,0.2,0.0,35.0,1,1.0,0.223700000000008
154,3,0.2,0.25,-35.0,1,0.0,0.2381000000000313
155,3,0.2,1.0,-35.0,-1,1.0,0.3210000000000264
156,3,0.2,0.25,35.0,1,1.0,0.05220000000002756
157,3,0.2,0.25,35.0,1,1.0,0.36099999999999
158,3,0.2,1.0,35.0,1,1.0,0.2125000000000341
159,3,0.2,0.0625,35.0,1,1.0,0.27370000000001937
160,3,0.8,0.25,-35.0,-1,1.0,0.3818000000000552
161,3,0.8,0.0625,-35.0,1,0.0,0.1198999999999728
162,3,0.8,0.0,-35.0,1,0.0,0.10050000000006776
163,3,0.8,1.0,-35.0,-1,1.0,0.17590000000001282
164,3,0.8,0.25,35.0,1,1.0,0.30920000000003256
165,3,0.8,0.0625,35.0,1,1.0,1.0211999999999648
166,3,0.8,1.0,-35.0,-1,1.0,0.2530999999999608
167,3,0.8,0.125,-35.0,1,0.0,0.3479000000000383
168,3,0.8,0.0,35.0,1,1.0,0.31279999999998154
169,3,0.8,0.25,35.0,1,1.0,0.20490000000000919
170,3,0.8,0.25,-35.0,-1,1.0,4.140199999999993
171,3,0.8,0.0625,-35.0,1,0.0,0.28280000000006567
172,3,0.8,0.125,-35.0,1,0.0,0.23110000000002628
173,3,0.8,1.0,-35.0,-1,1.0,0.23160000000001446
174,3,0.8,0.0,-35.0,-1,1.0,2.4453000000000316
175,3,0.8,0.125,-35.0,-1,1.0,0.24839900000000625
176,3,0.8,0.0,-35.0,1,0.0,0.42840000000001055
177,3,0.8,1.0,35.0,1,1.0,0.2716000000000349
178,3,0.8,0.0625,-35.0,-1,1.0,0.2535000000000309
179,3,0.8,0.25,-35.0,-1,1.0,0.5591999999999189
180,3,0.8,0.25,-35.0,-1,1.0,0.22500000000002274
181,3,0.8,0.0,-35.0,-1,1.0,0.2961999999998852
182,3,0.8,1.0,-35.0,-1,1.0,0.23879999999996926
183,3,0.8,0.0,-35.0,-1,1.0,0.3242999999999938
184,3,0.8,0.25,-35.0,-1,1.0,0.21469999999999345
185,3,0.8,0.125,-35.0,-1,1.0,0.2519999999999527
186,3,0.8,1.0,35.0,1,1.0,0.22769999999991342
187,3,0.8,1.0,-35.0,-1,1.0,0.19510000000002492
188,3,0.8,0.0625,-35.0,1,0.0,0.3455999999998767
189,3,0.8,0.0625,35.0,-1,0.0,0.18810000000007676
190,3,0.8,1.0,-35.0,-1,1.0,0.04119999999988977
191,3,0.8,0.125,-35.0,-1,1.0,0.8428000000000111
192,3,0.8,1.0,-35.0,-1,1.0,0.08309999999994488
193,3,0.8,0.0625,35.0,-1,0.0,0.4677000000000362
194,3,0.8,0.25,-35.0,-1,1.0,0.19739999999990232
195,3,0.8,1.0,-35.0,-1,1.0,0.45069999999986976
196,3,0.8,0.125,-35.0,-1,1.0,0.3747999999999365
197,3,0.8,0.25,-35.0,-1,1.0,0.2945999999999458
198,3,0.8,0.0,-35.0,-1,1.0,0.23860000000001946
199,3,0.2,0.0,-35.0,1,0.0,0.29379999999991924
200,3,0.2,1.0,35.0,1,1.0,0.24339999999995143
201,3,0.2,0.0,35.0,-1,0.0,0.3100000000000591
202,3,0.2,0.125,-35.0,-1,1.0,0.46090000000003783
203,3,0.2,0.125,-35.0,1,0.0,0.22229999999990468
204,3,0.2,0.0625,35.0,1,1.0,0.2683999999999287
205,3,0.2,1.0,35.0,1,1.0,0.2156999999999698
206,3,0.2,1.0,-35.0,-1,1.0,0.22859999999991487
207,3,0.2,1.0,35.0,1,1.0,0.04369999999994434
208,3,0.2,0.125,35.0,1,1.0,0.2518999999999778
209,3,0.2,0.125,35.0,1,1.0,0.28539999999998145
210,3,0.2,1.0,35.0,1,1.0,0.21259999999995216
211,3,0.2,0.125,-35.0,-1,1.0,0.8976999999999862
212,3,0.2,0.125,35.0,1,1.0,0.2464999999998554
213,3,0.2,0.0625,35.0,1,1.0,0.24289999999996326
214,3,0.2,1.0,35.0,1,1.0,0.20279999999991105
215,3,0.2,0.25,35.0,1,1.0,0.22239999999987958
216,3,0.2,1.0,35.0,1,1.0,0.19910000000004402
217,3,0.2,0.0,35.0,-1,0.0,4.189099999999939
218,3,0.2,1.0,-35.0,-1,1.0,0.2807999999999993
219,3,0.2,0.125,35.0,1,1.0,0.22079999999994016
220,3,0.2,0.0625,35.0,1,1.0,0.23429999999996198
221,3,0.2,1.0,35.0,1,1.0,0.21149999999988722
222,3,0.2,0.0625,35.0,1,1.0,0.25079999999991287
223,3,0.2,0.25,35.0,1,1.0,0.16039999999986776
224,3,0.2,0.125,35.0,1,1.0,0.2665999999999258
225,3,0.2,0.125,35.0,1,1.0,0.1996999999998934
226,3,0.2,0.25,-35.0,1,0.0,0.30759999999997945
227,3,0.2,0.125,-35.0,1,0.0,0.7180999999999358
228,3,0.2,1.0,35.0,1,1.0,0.3446999999998752
229,3,0.2,0.125,-35.0,-1,1.0,3.561900000000037
230,3,0.2,0.25,35.0,1,1.0,0.28539999999998145
231,3,0.2,0.0625,-35.0,1,0.0,0.2804999999999609
232,3,0.2,1.0,35.0,1,1.0,0.19619999999997617
233,3,0.2,1.0,35.0,1,1.0,0.21609999999998308
234,3,0.2,1.0,-35.0,-1,1.0,0.3005999999999176
235,3,0.2,0.0625,35.0,1,1.0,0.2216999999999416
236,3,0.2,1.0,35.0,1,1.0,0.1916999999999689
237,3,0.2,0.125,35.0,1,1.0,0.2075999999999567
238,3,0.2,1.0,35.0,1,1.0,0.20010000000002037
239,3,0.2,0.0625,35.0,1,1.0,0.2321999999999207
240,3,0.2,0.0,-35.0,1,0.0,0.11039999999991323
241,3,0.2,0.0625,35.0,1,1.0,0.20619999999996708
242,3,0.2,0.25,35.0,1,1.0,0.17019999999990887
243,3,0.2,0.0,35.0,-1,0.0,4.819799999999873
244,3,0.2,0.0,35.0,-1,0.0,0.23069999999984248
245,3,0.2,0.0625,35.0,1,1.0,0.8256999999999834
246,3,0.2,0.0,-35.0,1,0.0,3.3823999999999614
247,3,0.2,0.0625,35.0,1,1.0,0.26899999999989177
248,3,0.2,0.25,35.0,1,1.0,0.20519999999987704
249,3,0.2,0.0625,35.0,1,1.0,0.20119999999985794
250,3,0.2,0.0625,35.0,1,1.0,0.16880000000003292
251,3,0.2,0.0625,-35.0,-1,1.0,0.41049999999995634
252,3,0.2,0.125,35.0,1,1.0,0.21079999999994925
253,3,0.8,0.25,-35.0,1,0.0,0.28109999999992397
254,3,0.8,0.125,-35.0,-1,1.0,0.23509999999987485
255,3,0.8,0.25,-35.0,-1,1.0,0.2436999999999898
256,3,0.8,0.0,-35.0,1,0.0,0.29710000000000036
257,3,0.8,1.0,-35.0,-1,1.0,0.19099999999991724
258,3,0.8,0.0,35.0,-1,0.0,0.3406999999999698
259,3,0.8,0.25,-35.0,-1,1.0,0.21309999999994034
260,3,0.8,0.25,-35.0,-1,1.0,0.2401999999999589
261,3,0.8,0.0625,-35.0,1,0.0,0.23299999999994725
262,3,0.8,1.0,-35.0,-1,1.0,0.2907000000000153
263,3,0.8,0.125,-35.0,-1,1.0,0.4698999999999387
264,3,0.8,0.125,-35.0,-1,1.0,0.4597999999999729
265,3,0.8,0.125,35.0,1,1.0,0.3304999999999154
266,3,0.8,0.25,35.0,1,1.0,0.23919999999998254
267,3,0.8,0.0,-35.0,1,0.0,0.2945999999999458
268,3,0.8,0.0,-35.0,-1,1.0,0.1796999999999116
269,3,0.8,1.0,-35.0,-1,1.0,0.27949999999998454
270,3,0.8,0.25,-35.0,-1,1.0,6.583500000000072
271,3,0.8,0.0,-35.0,-1,1.0,0.3628999999999678
272,3,0.8,1.0,-35.0,-1,1.0,0.22440000000005966
273,3,0.8,1.0,35.0,1,1.0,0.2882999999999356
274,3,0.8,0.25,-35.0,-1,1.0,0.278699999999958
275,3,0.8,0.0625,35.0,-1,0.0,0.6372999999998683
276,3,0.8,1.0,-35.0,-1,1.0,0.2985999999998512
277,3,0.8,0.25,-35.0,-1,1.0,0.24489999999991596
278,3,0.8,1.0,35.0,1,1.0,0.22820000000001528
279,3,0.8,0.125,-35.0,1,0.0,0.2259999999999991
280,3,0.8,0.0625,-35.0,1,0.0,0.24479999999994106
281,3,0.8,0.125,-35.0,-1,1.0,0.22059999999999036
282,3,0.8,0.25,-35.0,-1,1.0,0.8791999999998552
283,3,0.8,1.0,-35.0,-1,1.0,0.4356000000000222
284,3,0.8,0.0625,-35.0,-1,1.0,0.2461999999999307
285,3,0.8,1.0,-35.0,-1,1.0,0.2419999999999618
286,3,0.8,0.0625,-35.0,-1,1.0,0.43620000000009895
287,3,0.8,0.25,35.0,1,1.0,0.28949999999997544
288,3,0.8,1.0,-35.0,-1,1.0,0.25759999999991123
289,3,0.8,0.125,-35.0,1,0.0,0.24869999999998527
290,3,0.8,0.25,-35.0,-1,1.0,0.467200000000048
291,3,0.8,1.0,-35.0,-1,1.0,0.2555999999999585
292,3,0.8,0.0,-35.0,-1,1.0,6.220899999999915
293,3,0.8,0.25,-35.0,-1,1.0,0.237700000000018
294,3,0.8,0.0,-35.0,1,0.0,0.23969999999997071
295,3,0.8,1.0,-35.0,-1,1.0,0.21319999999991524
296,3,0.8,0.0625,-35.0,-1,1.0,0.3726999999998952
297,3,0.8,0.0625,-35.0,-1,1.0,0.2698999999998932
298,3,0.8,0.125,35.0,1,1.0,0.6688999999998941
299,3,0.8,0.0625,-35.0,-1,1.0,0.4355999999999085
300,3,0.8,0.0625,-35.0,-1,1.0,0.27939999999989595
301,3,0.8,1.0,35.0,1,1.0,0.31349999999997635
302,3,0.8,0.25,-35.0,-1,1.0,0.48730000000000473
303,3,0.8,0.0625,-35.0,-1,1.0,0.4698999999999387
304,3,0.8,0.25,-35.0,-1,1.0,0.24709999999993215
305,3,0.8,0.0,35.0,1,1.0,0.3102999999999838
306,3,0.8,0.0,-35.0,1,0.0,0.2841999999999416
307,3,0.8,0.0625,35.0,1,1.0,0.24889999999993506
308,3,0.8,1.0,35.0,1,1.0,0.33299999999997
309,3,0.8,0.0,35.0,1,1.0,2.9972000000000207
310,3,0.8,1.0,-35.0,-1,1.0,0.20459999999991396
311,3,0.8,0.25,-35.0,-1,1.0,0.2601999999999407
312,3,0.8,0.25,-35.0,-1,1.0,0.24530000000004293
313,3,0.8,0.125,-35.0,-1,1.0,0.4270000000000209
314,3,0.8,0.125,-35.0,-1,1.0,0.4027999999999565
315,3,0.8,0.0625,-35.0,-1,1.0,0.3651999999999589
316,3,0.8,1.0,-35.0,-1,1.0,0.3403999999999314
317,3,0.8,0.125,-35.0,-1,1.0,0.425899999999956
318,3,0.8,0.125,-35.0,-1,1.0,0.4318999999999278
319,3,0.8,0.0625,-35.0,-1,1.0,0.48279999999999745
320,3,0.8,0.25,-35.0,-1,1.0,0.34789999999986776
321,3,0.8,0.0,-35.0,1,0.0,1.7415999999999485
322,3,0.8,1.0,-35.0,-1,1.0,0.15489999999988413
323,3,0.8,0.0625,-35.0,-1,1.0,0.5855000000000246
324,3,0.8,0.25,-35.0,-1,1.0,0.2462999999999056
325,3,0.8,0.125,-35.0,-1,1.0,0.261899999999855
326,3,0.8,1.0,-35.0,-1,1.0,0.23059999999998126
327,3,0.8,0.125,35.0,1,1.0,0.3087999999999056
328,3,0.8,0.0625,-35.0,1,0.0,0.3094989999999598
329,3,0.8,0.0625,-35.0,-1,1.0,0.23310000000003583
330,3,0.8,0.0625,-35.0,-1,1.0,0.24320000000000164
331,3,0.8,1.0,35.0,1,1.0,0.2719000000000733
332,3,0.8,1.0,-35.0,-1,1.0,0.1956000000000131
333,3,0.8,0.125,-35.0,-1,1.0,2.0258999999999787
334,3,0.8,0.25,-35.0,-1,1.0,0.29719999999997526
335,3,0.8,1.0,-35.0,-1,1.0,0.5688000000000102
336,3,0.8,0.0625,35.0,-1,0.0,0.2039999999999509
337,3,0.8,0.125,-35.0,-1,1.0,0.7296999999998661
338,3,0.8,0.25,-35.0,-1,1.0,2.938899999999876
339,3,0.8,1.0,-35.0,-1,1.0,0.25119999999992615
340,3,0.2,0.125,-35.0,-1,1.0,0.26109999999994216
341,3,0.2,0.125,35.0,1,1.0,0.32409999999993033
342,3,0.2,0.125,35.0,1,1.0,0.2504000000000133
343,3,0.2,0.25,35.0,1,1.0,0.2359000000000151
344,3,0.2,0.125,35.0,1,1.0,0.021999999999934516
345,3,0.2,1.0,35.0,1,1.0,0.2586000000000013
346,3,0.2,0.0625,-35.0,-1,1.0,0.7943999999998823
347,3,0.2,0.25,35.0,1,1.0,0.15269999999998163
348,3,0.2,0.125,35.0,1,1.0,0.2880999999998721
349,3,0.2,0.0625,35.0,1,1.0,0.2615000000000691
350,3,0.2,0.125,35.0,1,1.0,0.20119999999985794
351,3,0.2,0.0625,-35.0,1,0.0,0.20190000000002328
352,3,0.2,0.0,35.0,-1,0.0,0.21499999999991815
353,3,0.2,0.125,35.0,1,1.0,0.26509999999996126
354,3,0.2,0.25,35.0,1,1.0,0.17509999999992942
355,3,0.2,0.0,35.0,1,1.0,0.24849999999992178
356,3,0.2,0.0,35.0,1,1.0,0.301900000000046
357,3,0.2,0.0625,35.0,1,1.0,0.4984999999999218
358,3,0.2,0.0625,35.0,1,1.0,0.23540000000002692
359,3,0.2,0.125,35.0,1,1.0,0.25959999999986394
360,3,0.2,0.25,-35.0,1,0.0,0.45190000000025066
361,3,0.2,1.0,35.0,1,1.0,0.19200000000000728
362,3,0.2,0.125,-35.0,-1,1.0,3.039199999999937
363,3,0.2,0.125,-35.0,1,0.0,0.24260000000003856
364,3,0.2,0.125,35.0,1,1.0,0.282399999999825
365,3,0.2,0.0625,-35.0,-1,1.0,0.24929999999972097
366,3,0.2,0.25,35.0,1,1.0,0.23309999999992215
367,3,0.2,0.125,35.0,1,1.0,0.2761999999997897
368,3,0.2,0.25,35.0,1,1.0,0.3262999999999465
369,3,0.2,0.125,35.0,1,1.0,0.30959999999981846
370,3,0.2,0.125,-35.0,1,0.0,0.2266999999997097
371,3,0.2,0.0625,-35.0,-1,1.0,0.29979999999977736
372,3,0.2,0.125,-35.0,1,0.0,0.2062999999998283
373,3,0.2,0.0625,-35.0,-1,1.0,0.37629999999990105
374,3,0.2,0.125,35.0,1,1.0,0.3002999999998792
375,3,0.2,0.25,35.0,1,1.0,0.2564999999997326
376,3,0.2,0.125,35.0,1,1.0,0.2501999999999498
377,3,0.2,0.125,35.0,1,1.0,0.5733999999999924
378,3,0.2,0.25,35.0,1,1.0,0.15989999999987958
379,3,0.2,0.25,35.0,1,1.0,0.2908999999999651
380,3,0.2,0.25,35.0,1,1.0,0.240099999999984
381,3,0.2,0.25,35.0,1,1.0,0.22689999999988686
382,3,0.2,0.125,35.0,1,1.0,0.28350000000000364
383,3,0.2,0.25,-35.0,-1,1.0,0.28700000000003456
384,3,0.2,0.0,35.0,1,1.0,0.2842999999998028
385,3,0.2,0.25,35.0,1,1.0,0.21039999999993597
386,3,0.2,0.0625,35.0,1,1.0,0.23769999999990432
387,3,0.2,0.125,35.0,1,1.0,0.23789999999985412
388,3,0.2,1.0,35.0,1,1.0,0.21749999999997272
389,3,0.2,0.125,35.0,1,1.0,0.20759999999972933
390,3,0.2,0.125,35.0,1,1.0,0.5611999999998716
391,3,0.2,0.25,35.0,1,1.0,0.22430000000008476
392,3,0.2,1.0,35.0,1,1.0,0.18439999999986867
393,3,0.2,1.0,-35.0,-1,1.0,0.3675999999998112
394,3,0.2,0.125,-35.0,1,0.0,0.2643000000000484
395,3,0.2,0.0,35.0,-1,0.0,0.2744000000000142
396,3,0.2,0.125,-35.0,-1,1.0,0.2846999999999298
397,3,0.2,0.25,35.0,1,1.0,0.28140000000007603
398,3,0.2,0.125,35.0,1,1.0,0.6486999999997352
399,3,0.2,0.25,35.0,1,1.0,0.23799999999982901
400,3,0.2,1.0,35.0,1,1.0,0.27799999999979264
401,3,0.2,0.0625,35.0,1,1.0,0.2748999999998887
402,3,0.2,1.0,35.0,1,1.0,0.23829999999998108
403,3,0.2,1.0,35.0,1,1.0,0.21169999999983702
404,3,0.8,1.0,-35.0,-1,1.0,0.19529999999986103
405,3,0.8,1.0,-35.0,-1,1.0,0.42889999999988504
406,3,0.8,0.0,-35.0,1,0.0,0.18840000000000146
407,3,0.8,0.0625,35.0,1,1.0,0.4752000000000862
408,3,0.8,0.25,-35.0,-1,1.0,0.2219000000000051
409,3,0.8,0.125,-35.0,-1,1.0,0.04189999999994143
410,3,0.8,1.0,-35.0,-1,1.0,0.21979999999985012
411,3,0.8,0.0,-35.0,1,0.0,0.3392999999998665
412,3,0.8,0.125,-35.0,-1,1.0,0.17589999999995598
413,3,0.8,0.125,-35.0,-1,1.0,0.549199999999928
414,3,0.8,0.0625,-35.0,1,0.0,0.24569999999994252
415,3,0.8,0.0,-35.0,1,0.0,0.31599999999980355
416,3,0.8,0.25,-35.0,-1,1.0,0.20890000000008513
417,3,0.8,0.125,-35.0,-1,1.0,0.2523999999998523
418,3,0.8,0.125,-35.0,-1,1.0,0.5929999999998472
419,3,0.8,1.0,35.0,1,1.0,0.21630000000004657
420,3,0.8,0.0625,-35.0,1,0.0,0.30950000000007094
421,3,0.8,0.125,-35.0,-1,1.0,0.40970000000015716
422,3,0.8,0.125,-35.0,-1,1.0,0.47299999999972897
423,3,0.8,0.0625,-35.0,1,0.0,0.30970000000002074
424,3,0.8,0.0,35.0,-1,0.0,0.20980000000008658
425,3,0.8,0.0,-35.0,-1,1.0,0.2998999999999796
426,3,0.8,0.0,-35.0,-1,1.0,0.8337000000001353
427,3,0.8,0.125,-35.0,-1,1.0,0.33320000000003347
428,3,0.8,1.0,35.0,1,1.0,0.26710000000002765
429,3,0.8,1.0,-35.0,-1,1.0,0.1932000000001608
430,3,0.8,0.0625,-35.0,-1,1.0,0.4703999999999269
431,3,0.8,0.0625,-35.0,-1,1.0,0.6069999999999709
432,3,0.8,0.125,-35.0,-1,1.0,0.2701999999999316
433,3,0.8,0.125,-35.0,-1,1.0,0.3736999999998716
434,3,0.8,0.25,-35.0,-1,1.0,0.40399999999999636
435,3,0.8,1.0,-35.0,-1,1.0,0.32369999999991705
436,3,0.8,0.0,-35.0,-1,1.0,2.067199999999957
437,3,0.8,0.0625,35.0,-1,0.0,0.3273999999998978
438,3,0.8,0.0625,-35.0,-1,1.0,0.2441999999998643
439,3,0.8,0.125,-35.0,-1,1.0,0.3844000000001415
440,3,0.8,1.0,-35.0,-1,1.0,0.4574999999999818
441,3,0.8,0.25,-35.0,-1,1.0,0.2647999999999229
442,3,0.8,0.125,35.0,-1,0.0,0.07479999999964093
443,3,0.8,1.0,-35.0,-1,1.0,0.42109999999979664
444,3,0.8,0.25,-35.0,-1,1.0,0.19119999999975335
445,3,0.8,0.25,35.0,1,1.0,0.8479999999999563
446,3,0.8,0.0625,-35.0,-1,1.0,0.33120000000008076
447,3,0.8,0.125,-35.0,-1,1.0,0.30129999999985557
448,3,0.8,0.0625,-35.0,-1,1.0,5.591899999999896
449,3,0.8,0.125,-35.0,-1,1.0,0.248299999999972
450,3,0.8,1.0,-35.0,-1,1.0,0.34159999999997126
451,3,0.8,0.0625,35.0,1,1.0,0.39210000000002765
452,3,0.8,1.0,-35.0,-1,1.0,0.2949999999998454
453,3,0.8,0.0625,-35.0,1,0.0,0.7453000000000429
454,3,0.8,0.0,-35.0,-1,1.0,0.9585999999999331
455,3,0.8,0.25,-35.0,-1,1.0,0.205600000000004
456,3,0.8,0.0625,-35.0,-1,1.0,0.20879999999988286
457,3,0.8,0.25,-35.0,-1,1.0,0.55600000000004
458,3,0.8,1.0,35.0,1,1.0,0.32629999999971915
459,3,0.8,0.0,-35.0,-1,1.0,1.7955999999999221
460,3,0.8,0.125,-35.0,-1,1.0,0.21249999999986358
461,3,0.8,0.0625,35.0,1,1.0,0.33920000000011896
462,3,0.8,0.125,35.0,1,1.0,0.2557999999999083
463,3,0.8,0.25,-35.0,1,0.0,0.45919999999978245
464,3,0.8,0.0,35.0,1,1.0,0.5531999999998334
465,3,0.8,0.25,-35.0,-1,1.0,0.34639999999990323
466,3,0.8,1.0,-35.0,-1,1.0,3.889499999999998
467,3,0.8,0.0,-35.0,1,0.0,0.27310000000011314
468,3,0.8,1.0,-35.0,-1,1.0,0.3030999999998585
469,3,0.8,0.0,-35.0,-1,1.0,5.070099999999911
470,3,0.8,0.0625,-35.0,-1,1.0,0.4499999999998181
471,3,0.8,1.0,-35.0,-1,1.0,0.17009999999982028
472,3,0.8,0.125,-35.0,-1,1.0,0.4473000000000411
473,3,0.8,1.0,-35.0,-1,1.0,0.4535000000000764
474,3,0.8,1.0,35.0,1,1.0,0.24069999999983338
475,3,0.8,1.0,35.0,1,1.0,0.24379999999973734
476,3,0.8,0.125,-35.0,-1,1.0,2.840398999999934
477,3,0.8,0.0625,-35.0,1,0.0,0.40049999999973807
478,3,0.8,0.125,-35.0,-1,1.0,0.213799999999992
479,3,0.8,0.0,35.0,-1,0.0,0.2175999999999476
480,3,0.8,1.0,-35.0,1,0.0,0.11079999999992651
481,3,0.8,0.25,-35.0,-1,1.0,0.26769999999987704
482,3,0.8,0.125,-35.0,-1,1.0,1.4242000000001553
483,3,0.8,0.0625,-35.0,-1,1.0,4.361599999999953
484,3,0.8,1.0,-35.0,-1,1.0,0.30419999999980973
485,3,0.8,0.0625,-35.0,1,0.0,0.2880000000000109
486,3,0.8,0.25,-35.0,-1,1.0,0.4377999999999247
487,3,0.8,0.0625,-35.0,-1,1.0,1.124599999999873
488,3,0.8,1.0,-35.0,-1,1.0,0.42869999999993524
489,3,0.8,0.25,-35.0,-1,1.0,0.5712000000000899
490,3,0.8,0.125,-35.0,-1,1.0,1.474999999999909
491,3,0.8,0.0625,-35.0,-1,1.0,0.6682000000000698
492,3,0.2,0.125,35.0,1,1.0,0.7083999999999833
493,3,0.2,0.0625,-35.0,-1,1.0,0.4916000000000622
494,3,0.2,0.25,35.0,1,1.0,0.41879999999991924
495,3,0.2,0.25,-35.0,-1,1.0,0.2688999999998032
496,3,0.2,1.0,35.0,1,1.0,0.2523999999998523
497,3,0.2,0.25,35.0,1,1.0,0.6753000000001066
498,3,0.2,0.25,35.0,1,1.0,0.4592000000000098
499,3,0.2,0.0625,35.0,1,1.0,1.7154999999997926
500,3,0.2,1.0,35.0,1,1.0,0.28579999999988104
501,3,0.2,0.125,35.0,1,1.0,0.32539999999994507
502,3,0.2,0.125,35.0,1,1.0,0.27959999999984575
503,3,0.2,1.0,35.0,1,1.0,0.21920000000000073
504,3,0.2,1.0,35.0,1,1.0,0.4359999999999218
505,3,0.2,0.0625,35.0,1,1.0,0.1956000000000131
506,3,0.2,0.0,35.0,1,1.0,0.20659999999998035
507,3,0.2,0.125,35.0,1,1.0,0.5759000000000469
508,3,0.2,1.0,35.0,1,1.0,0.21249999999986358
509,3,0.2,0.125,35.0,1,1.0,0.5163000000002285
510,3,0.2,0.0625,-35.0,1,0.0,0.43280000000004293
511,3,0.2,0.125,35.0,1,1.0,0.25959999999986394
512,3,0.2,1.0,35.0,1,1.0,0.25989999999978863
513,3,0.2,0.125,35.0,1,1.0,5.2034000000001015
514,3,0.2,0.0625,35.0,1,1.0,0.20970000000011169
515,3,0.2,0.25,35.0,1,1.0,0.4998000000000502
516,3,0.2,1.0,35.0,1,1.0,2.3898999999998978
517,3,0.2,0.0,35.0,-1,0.0,0.356899999999996
518,3,0.2,1.0,35.0,1,1.0,0.26739999999995234
519,3,0.2,0.0625,35.0,-1,0.0,13.803699999999935
520,3,0.2,0.0625,35.0,-1,0.0,10.383800000000065
521,3,0.2,0.125,-35.0,-1,1.0,0.6476000000000113
522,3,0.2,0.0625,35.0,1,1.0,1.2012999999999465
523,3,0.2,0.125,35.0,1,1.0,0.5009999999999764
524,3,0.2,1.0,35.0,1,1.0,0.228099999999813
525,3,0.2,0.0625,35.0,1,1.0,0.6412000000000262
526,3,0.2,0.0625,35.0,1,1.0,0.3384000000000924
527,3,0.8,0.25,-35.0,1,0.0,0.5877999999997883
528,3,0.8,0.0625,-35.0,1,0.0,0.32150000000001455
529,3,0.8,0.25,-35.0,-1,1.0,0.24510000000009313
530,3,0.8,0.0625,-35.0,-1,1.0,7.5815000000000055
531,3,0.8,1.0,-35.0,-1,1.0,0.6457000000000335
532,3,0.8,0.0625,-35.0,-1,1.0,0.5751000000000204
533,3,0.8,0.0625,-35.0,-1,1.0,6.6650999999999385
534,3,0.8,0.0625,-35.0,-1,1.0,0.6287999999997282
535,3,0.8,0.0625,-35.0,-1,1.0,1.0089000000000397
536,3,0.8,0.0625,-35.0,-1,1.0,2.309099999999944
537,3,0.8,0.0,-35.0,-1,1.0,5.042599999999993
538,3,0.8,0.125,-35.0,1,0.0,5.682399999999916
539,3,0.8,0.0625,-35.0,-1,1.0,0.2561000000000604
540,3,0.8,0.125,-35.0,-1,1.0,0.296100000000024
541,3,0.8,0.125,-35.0,-1,1.0,0.7228999999999814
542,3,0.8,1.0,-35.0,-1,1.0,0.3828999999998359
543,3,0.8,0.25,-35.0,-1,1.0,0.2662000000000262
544,3,0.8,0.125,-35.0,-1,1.0,0.7696000000000822
545,3,0.8,0.25,-35.0,-1,1.0,8.037000000000035
546,3,0.8,0.0625,-35.0,-1,1.0,0.6570999999999003
547,3,0.8,0.125,-35.0,-1,1.0,0.29349999999999454
548,3,0.8,1.0,35.0,1,1.0,0.25070000000005166
549,3,0.8,1.0,-35.0,-1,1.0,2.7935999999999694
550,3,0.8,1.0,-35.0,-1,1.0,1.206899999999905
551,3,0.8,0.0625,35.0,-1,0.0,5.212200000000166
552,3,0.8,1.0,-35.0,-1,1.0,0.20239999999989777
553,3,0.8,1.0,-35.0,-1,1.0,0.45900000000006
554,3,0.8,1.0,-35.0,-1,1.0,0.18589999999994689
555,3,0.8,0.125,-35.0,-1,1.0,0.22260000000005675
556,3,0.8,0.0625,-35.0,-1,1.0,0.5326000000000022
557,3,0.8,0.125,-35.0,-1,1.0,0.9558999999999287
558,3,0.8,0.0625,-35.0,-1,1.0,0.7159999999998945
559,3,0.8,0.0625,-35.0,-1,1.0,0.8260999999999967
560,3,0.8,0.25,-35.0,-1,1.0,1.4462000000000899
561,3,0.8,0.0625,-35.0,1,0.0,0.399599999999964
562,3,0.8,0.0,-35.0,1,0.0,0.7595999999998639
563,3,0.8,0.125,-35.0,-1,1.0,0.26309999999989486
564,3,0.8,0.25,35.0,-1,0.0,0.33320000000003347
565,3,0.8,0.0625,-35.0,-1,1.0,0.4131999999999607
566,3,0.8,0.0625,-35.0,-1,1.0,0.6467000000000098
567,3,0.8,1.0,35.0,1,1.0,0.28340000000002874
568,3,0.8,0.125,35.0,1,1.0,0.6733999999999014
569,3,0.8,0.125,35.0,1,1.0,0.5134999999997945
570,3,0.8,0.0625,35.0,1,1.0,0.6335999999998876
571,3,0.8,0.25,-35.0,-1,1.0,0.5003999999998996
572,3,0.8,0.25,-35.0,-1,1.0,0.2502999999999247
573,3,0.2,1.0,35.0,1,1.0,0.4571000000000822
574,3,0.2,1.0,-35.0,-1,1.0,0.12380000000007385
575,3,0.2,0.0625,35.0,1,1.0,1.3139000000001033
576,3,0.2,0.0625,35.0,1,1.0,3.104000000000042
577,3,0.2,0.0625,35.0,1,1.0,0.2575000000001637
578,3,0.2,0.25,35.0,1,1.0,0.46079999999983556
579,3,0.2,0.0625,35.0,1,1.0,0.2141999999998916
580,3,0.2,0.125,-35.0,1,0.0,0.35760000000004766
581,3,0.2,0.0,35.0,1,1.0,0.2943000000000211
582,3,0.2,0.0625,35.0,1,1.0,0.48430000000007567
583,3,0.2,1.0,35.0,1,1.0,0.18440000000009604
584,3,0.2,0.125,35.0,1,1.0,0.5511000000001332
585,3,0.2,0.0625,35.0,1,1.0,0.6112000000000535
586,3,0.2,0.25,35.0,1,1.0,0.26789999999982683
587,3,0.2,1.0,-35.0,-1,1.0,2.8413989999999103
588,3,0.2,0.125,35.0,1,1.0,0.2115000000001146
589,3,0.2,0.0,-35.0,-1,1.0,2.1614999999999327
590,3,0.2,1.0,-35.0,-1,1.0,0.21499999999991815
591,3,0.2,1.0,35.0,1,1.0,0.2052000000001044
592,3,0.2,0.125,35.0,1,1.0,0.2218000000000302
593,3,0.2,0.25,35.0,1,1.0,0.4751000000001113
594,3,0.2,1.0,35.0,1,1.0,0.2518999999999778
595,3,0.2,0.125,35.0,1,1.0,0.231899999999996
596,3,0.2,0.0625,35.0,1,1.0,0.2686999999998534
597,3,0.2,0.125,35.0,1,1.0,0.22199999999998
598,3,0.2,0.125,-35.0,1,0.0,0.26539999999977226
599,3,0.2,0.125,-35.0,-1,1.0,0.29559999999992215
600,3,0.2,0.0625,-35.0,1,0.0,0.22230000000013206
601,3,0.8,1.0,-35.0,-1,1.0,0.2156999999999698
602,3,0.8,0.125,-35.0,-1,1.0,0.5624000000000251
603,3,0.8,0.25,-35.0,-1,1.0,1.809099999999944
604,3,0.8,0.125,35.0,1,1.0,0.3292999999998756
605,3,0.8,0.125,-35.0,-1,1.0,1.199200000000019
606,3,0.8,0.125,-35.0,-1,1.0,3.9995000000001255
607,3,0.8,0.25,35.0,1,1.0,0.28950000000008913
608,3,0.8,0.125,35.0,1,1.0,0.2762000000000171
609,3,0.8,0.25,-35.0,-1,1.0,1.9029999999997926
610,3,0.8,0.0625,-35.0,1,0.0,2.8664000000001124
611,3,0.8,1.0,-35.0,-1,1.0,0.1997999999998683
612,3,0.8,1.0,-35.0,-1,1.0,0.2098999999998341
613,3,0.8,0.0,-35.0,1,0.0,0.6732999999999265
614,3,0.8,0.0625,-35.0,1,0.0,0.36000000000012733
615,3,0.8,1.0,-35.0,-1,1.0,0.19679999999993925
616,3,0.8,0.0625,-35.0,1,0.0,0.2767999999998665
617,3,0.8,0.0,35.0,1,1.0,0.2601999999999407
618,3,0.8,1.0,-35.0,-1,1.0,0.233600000000024
619,3,0.8,0.25,-35.0,-1,1.0,0.48710000000005493
620,3,0.8,0.25,-35.0,-1,1.0,0.22710000000006403
621,3,0.8,0.25,35.0,1,1.0,0.24720000000002074
622,3,0.8,0.0625,-35.0,-1,1.0,2.7907000000000153
623,3,0.8,1.0,35.0,1,1.0,0.5873999999998887
624,3,0.8,0.0,35.0,-1,0.0,0.32419999999979154
625,3,0.8,0.25,-35.0,-1,1.0,0.19769999999971333
626,3,0.8,1.0,-35.0,-1,1.0,0.2342999999998483
627,3,0.8,1.0,-35.0,-1,1.0,0.1876999999999498
628,3,0.8,0.25,-35.0,-1,1.0,1.2644999999999982
629,3,0.8,1.0,35.0,1,1.0,0.27450000000021646
630,3,0.8,0.0,-35.0,-1,1.0,0.3546000000001186
631,3,0.8,0.25,-35.0,-1,1.0,5.647899999999936
632,3,0.8,0.125,-35.0,-1,1.0,2.978199999999788
633,3,0.8,0.25,-35.0,1,0.0,5.1582999999998265
634,3,0.8,0.0,-35.0,1,0.0,0.4884999999999309
635,3,0.8,1.0,-35.0,-1,1.0,0.21859999999992397
636,3,0.8,0.25,35.0,1,1.0,0.3085999999998421
637,3,0.8,1.0,-35.0,-1,1.0,0.5319999999999254
638,3,0.8,1.0,-35.0,-1,1.0,0.24530000000004293
639,3,0.8,0.125,-35.0,-1,1.0,1.315499999999929
640,3,0.8,0.0625,-35.0,-1,1.0,6.679000000000087
641,3,0.8,0.25,-35.0,-1,1.0,22.15910000000008
642,3,0.8,0.0625,-35.0,-1,1.0,15.472999999999956
643,3,0.8,0.0625,35.0,-1,0.0,7.203500000000076
644,3,0.8,1.0,-35.0,-1,1.0,0.3270999999999731
645,3,0.8,0.0625,35.0,-1,0.0,24.900500000000193
646,3,0.8,0.125,35.0,1,1.0,1.3244990000000598
647,3,0.8,1.0,35.0,1,1.0,0.3345999999999094
648,3,0.8,0.0625,-35.0,-1,1.0,15.791300000000092
649,3,0.8,0.125,-35.0,-1,1.0,0.32169999999996435
650,3,0.8,0.25,-35.0,-1,1.0,5.0552000000000135
651,3,0.8,0.0625,-35.0,-1,1.0,4.318700000000035
652,3,0.8,0.0625,35.0,1,1.0,1.2889000000000124
653,3,0.8,0.0625,-35.0,-1,1.0,6.825500000000375
654,3,0.8,0.0,35.0,1,1.0,0.6224000000001979
655,3,0.8,0.25,-35.0,-1,1.0,1.7992000000003827
656,3,0.8,0.0625,-35.0,-1,1.0,9.14260000000013
657,3,0.8,1.0,-35.0,-1,1.0,0.23950000000058935
658,3,0.8,0.125,-35.0,-1,1.0,12.469700000000103
659,3,0.8,0.125,-35.0,-1,1.0,0.2567000000003645
660,3,0.8,1.0,35.0,1,1.0,0.2936000000004242
661,3,0.8,0.25,-35.0,-1,1.0,0.22690000000011423
662,3,0.8,0.0,-35.0,-1,1.0,8.36030000000028
663,3,0.8,0.0,-35.0,1,0.0,0.31719999999995707
664,3,0.8,0.125,-35.0,-1,1.0,0.2806000000005042
665,3,0.8,0.25,-35.0,-1,1.0,0.4107000000003609
666,3,0.8,1.0,-35.0,-1,1.0,0.22410000000036234
1,4,0.2,1.0,35.0,1,1.0,0.2240000000000002
2,4,0.2,0.125,35.0,1,1.0,0.4267999999999992
3,4,0.2,0.125,35.0,1,1.0,0.2665000000000024
4,4,0.2,0.125,-35.0,-1,1.0,0.25519999999999854
5,4,0.2,0.0,35.0,1,1.0,0.24810000000000088
6,4,0.2,1.0,35.0,1,1.0,0.2524000000000015
7,4,0.2,1.0,35.0,1,1.0,0.26950000000000074
8,4,0.2,0.125,-35.0,-1,1.0,0.44500000000000384
9,4,0.2,0.25,-35.0,-1,1.0,0.5307999999999993
10,4,0.2,1.0,35.0,1,1.0,0.24810000000000088
11,4,0.2,0.0625,35.0,1,1.0,1.2948000000000022
12,4,0.2,0.25,35.0,1,1.0,0.6589000000000027
13,4,0.2,0.25,-35.0,-1,1.0,0.29300000000000637
14,4,0.2,0.25,-35.0,-1,1.0,0.4615000000000009
15,4,0.2,0.125,35.0,1,1.0,0.5407000000000011
16,4,0.2,0.0,35.0,-1,0.0,2.0797000000000025
17,4,0.2,0.125,35.0,1,1.0,1.4914000000000058
18,4,0.2,0.25,35.0,1,1.0,0.23629999999999995
19,4,0.2,0.25,35.0,1,1.0,0.5612999999999957
20,4,0.2,0.0625,35.0,-1,0.0,2.475200000000001
21,4,0.2,0.125,-35.0,1,0.0,0.210799999999999
22,4,0.2,0.25,35.0,1,1.0,0.23469999999999658
23,4,0.2,0.0625,35.0,-1,0.0,2.102400000000003
24,4,0.2,1.0,35.0,1,1.0,0.28700000000000614
25,4,0.2,0.25,35.0,1,1.0,0.2774000000000001
26,4,0.2,0.0625,35.0,1,1.0,0.523200000000017
27,4,0.2,1.0,35.0,1,1.0,0.2685999999999922
28,4,0.2,1.0,-35.0,-1,1.0,0.48099999999999454
29,4,0.2,0.25,35.0,1,1.0,0.5208999999999975
30,4,0.2,0.0625,35.0,-1,0.0,5.317299999999989
31,4,0.2,1.0,-35.0,-1,1.0,0.22400000000000375
32,4,0.2,0.25,-35.0,-1,1.0,0.8140999999999963
33,4,0.2,0.125,35.0,1,1.0,0.5892000000000053
34,4,0.2,0.25,35.0,1,1.0,0.3206000000000131
35,4,0.2,0.0625,35.0,-1,0.0,2.7790000000000106
36,4,0.2,0.25,-35.0,-1,1.0,0.22879999999999256
37,4,0.2,0.25,-35.0,-1,1.0,0.3819000000000017
38,4,0.2,0.0625,35.0,1,1.0,1.0282999999999873
39,4,0.2,1.0,35.0,1,1.0,0.24610000000001264
40,4,0.2,0.0625,-35.0,-1,1.0,5.8282999999999845
41,4,0.2,0.25,35.0,1,1.0,0.28419999999999845
42,4,0.2,0.125,35.0,1,1.0,0.22759999999996694
43,4,0.2,1.0,35.0,1,1.0,0.2202999999999804
44,4,0.2,0.0,35.0,-1,0.0,3.2553999999999803
45,4,0.2,1.0,35.0,1,1.0,0.20959999999999468
46,4,0.2,0.0,35.0,1,1.0,3.9609999999999843
47,4,0.2,0.125,35.0,1,1.0,0.226099999999974
48,4,0.2,0.125,35.0,1,1.0,0.47979999999998313
49,4,0.2,0.0625,35.0,1,1.0,0.36189999999999145
50,4,0.2,1.0,35.0,1,1.0,0.21189999999998577
51,4,0.2,0.0625,35.0,1,1.0,1.9728999999999814
52,4,0.2,0.0,-35.0,1,0.0,0.10439999999996985
53,4,0.2,0.0,35.0,-1,0.0,0.27609999999998536
54,4,0.2,0.25,35.0,1,1.0,0.24259999999998172
55,4,0.2,1.0,35.0,1,1.0,0.21819999999999595
56,4,0.2,1.0,35.0,1,1.0,0.24389999999996803
57,4,0.2,0.0625,35.0,1,1.0,0.4603999999999928
58,4,0.2,0.25,35.0,1,1.0,0.24150000000000205
59,4,0.2,0.125,-35.0,-1,1.0,2.6270999999999844
60,4,0.2,0.0,35.0,-1,0.0,4.455999999999989
61,4,0.2,1.0,35.0,1,1.0,0.2074999999999818
62,4,0.2,0.0625,35.0,1,1.0,3.2606999999999857
63,4,0.2,0.0,35.0,1,1.0,0.2604000000000042
64,4,0.2,0.0,35.0,1,1.0,0.7423999999999751
65,4,0.2,0.125,35.0,1,1.0,0.8324999999999818
66,4,0.2,0.0625,35.0,1,1.0,0.3797999999999604
67,4,0.2,0.0625,35.0,1,1.0,0.6651999999999987
68,4,0.2,0.125,35.0,1,1.0,0.2015999999999849
69,4,0.8,0.125,-35.0,-1,1.0,0.671999999999997
70,4,0.8,0.25,-35.0,1,0.0,2.8799999999999955
71,4,0.8,0.125,-35.0,-1,1.0,0.1811999999999898
72,4,0.8,0.125,-35.0,-1,1.0,0.7445999999999913
73,4,0.8,1.0,-35.0,-1,1.0,0.48869899999996846
74,4,0.8,1.0,-35.0,-1,1.0,0.22069999999999368
75,4,0.8,0.0,35.0,1,1.0,2.0131999999999834
76,4,0.8,0.0625,-35.0,1,0.0,0.18489999999999895
77,4,0.8,0.0625,-35.0,-1,1.0,0.21189999999995734
78,4,0.8,0.125,-35.0,-1,1.0,0.2231999999999914
79,4,0.8,0.25,-35.0,-1,1.0,0.6021999999999821
80,4,0.8,1.0,-35.0,-1,1.0,0.4782999999999902
81,4,0.8,0.25,-35.0,-1,1.0,0.6415999999999542
82,4,0.8,0.0,-35.0,1,0.0,2.2409000000000106
83,4,0.8,1.0,-35.0,-1,1.0,0.19540000000000646
84,4,0.8,0.25,-35.0,-1,1.0,0.17480000000000473
85,4,0.8,0.0625,-35.0,-1,1.0,0.5295999999999594
