trial_num,session_num,stim_probability_left,contrast,position,response_choice,trial_correct,reaction_time
1,15,0.5,0.0,35.0,1,1.0,2.6948
2,15,0.5,0.125,35.0,1,1.0,1.2596000000000007
3,15,0.5,1.0,35.0,1,1.0,0.3110999999999997
4,15,0.5,0.0625,-35.0,1,0.0,1.3104000000000013
5,15,0.5,0.25,-35.0,-1,1.0,0.4940000000000033
6,15,0.5,0.125,35.0,1,1.0,2.8233999999999995
7,15,0.5,1.0,35.0,1,1.0,0.6859000000000037
8,15,0.5,1.0,-35.0,-1,1.0,0.8164000000000016
9,15,0.5,0.125,35.0,1,1.0,1.2757000000000005
10,15,0.5,1.0,-35.0,-1,1.0,0.4988999999999919
11,15,0.5,0.0625,35.0,-1,0.0,2.371600000000001
12,15,0.6,0.0625,-35.0,1,0.0,2.442299999999996
13,15,0.5,1.0,35.0,1,1.0,0.4008000000000038
14,15,0.5,0.0625,35.0,1,1.0,3.837700000000005
15,15,0.5,1.0,35.0,1,1.0,0.31910000000000593
16,15,0.5,1.0,-35.0,1,0.0,0.9631000000000114
17,15,0.5,0.0625,35.0,1,1.0,2.214999999999989
18,15,0.5,0.125,-35.0,1,0.0,0.936000000000007
19,15,0.5,0.0625,35.0,1,1.0,3.8563999999999936
20,15,0.5,1.0,-35.0,-1,1.0,2.872099999999975
21,15,0.5,0.0,-35.0,1,0.0,2.6700000000000017
22,15,0.9,0.0,-35.0,-1,1.0,7.222300000000004
23,15,0.5,1.0,35.0,1,1.0,0.28359999999999275
24,15,0.5,0.25,-35.0,-1,1.0,3.505899999999997
25,15,0.5,0.125,-35.0,-1,1.0,1.1013999999999982
26,15,0.5,1.0,35.0,1,1.0,0.38179999999999836
27,15,0.5,0.0,35.0,-1,0.0,2.399099999999976
28,15,0.5,0.25,35.0,1,1.0,0.31569999999999254
29,15,0.5,0.0,35.0,1,1.0,8.159500000000008
30,15,0.5,1.0,-35.0,-1,1.0,0.9863
31,15,0.5,0.0625,-35.0,-1,1.0,3.2556999999999903
32,15,0.5,0.0625,35.0,1,1.0,5.029099999999971
33,15,0.5,1.0,-35.0,-1,1.0,0.44069999999999254
34,15,0.5,0.0625,35.0,1,1.0,0.4989999999999952
35,15,0.5,0.125,-35.0,1,0.0,1.6951999999999998
36,15,0.5,0.125,35.0,1,1.0,0.47949999999997317
37,15,0.5,0.125,35.0,1,1.0,3.1972999999999843
38,15,0.5,0.125,-35.0,-1,1.0,1.6875
39,15,0.5,0.125,35.0,1,1.0,0.7376000000000147
40,15,0.5,0.25,35.0,1,1.0,0.2797000000000196
41,15,0.5,0.0625,-35.0,1,0.0,1.7204000000000121
42,15,0.5,0.0625,-35.0,-1,1.0,3.3075999999999794
43,15,0.5,0.25,-35.0,-1,1.0,0.7028999999999996
44,15,0.5,0.25,35.0,1,1.0,0.3347999999999729
45,15,0.5,0.0625,-35.0,1,0.0,0.7402999999999906
46,15,0.5,0.125,35.0,1,1.0,1.005200000000002
47,15,0.5,0.125,-35.0,-1,1.0,0.9775999999999954
48,15,0.5,0.0,-35.0,1,0.0,0.3439999999999941
49,15,0.5,0.125,-35.0,-1,1.0,0.4271999999999707
50,15,0.5,0.125,-35.0,-1,1.0,0.9395000000000095
51,15,0.5,0.25,35.0,1,1.0,0.4346999999999923
52,15,0.5,0.125,35.0,1,1.0,0.3032999999999788
53,15,0.5,0.125,35.0,1,1.0,0.32499999999998863
54,15,0.5,1.0,-35.0,-1,1.0,0.19830000000001746
55,15,0.5,1.0,-35.0,-1,1.0,0.7834000000000003
56,15,0.5,0.125,35.0,1,1.0,0.36959999999999127
57,15,0.5,0.25,-35.0,-1,1.0,0.29300000000000637
58,15,0.5,1.0,-35.0,-1,1.0,0.7880000000000678
59,15,0.5,0.0,35.0,1,1.0,1.561900000000037
60,15,0.5,0.0625,35.0,1,1.0,2.825300000000027
61,15,0.5,1.0,35.0,1,1.0,0.2676999999999907
62,15,0.5,0.0,-35.0,1,0.0,2.003400000000056
63,15,0.6,0.0,-35.0,1,0.0,0.02179999999998472
64,15,0.5,1.0,35.0,1,1.0,0.2872000000000412
65,15,0.5,0.25,-35.0,-1,1.0,1.8741999999999734
66,15,0.5,0.125,35.0,1,1.0,0.25159999999999627
67,15,0.5,0.0,-35.0,-1,1.0,1.2700000000000387
68,15,0.5,0.0625,-35.0,-1,1.0,2.166500000000042
69,15,0.5,0.25,-35.0,-1,1.0,0.551900000000046
70,15,0.5,0.25,-35.0,-1,1.0,1.0067000000000803
71,15,0.5,1.0,35.0,1,1.0,0.2557000000000471
72,15,0.5,0.125,35.0,1,1.0,1.306699999999978
73,15,0.5,1.0,-35.0,-1,1.0,0.6374000000000706
74,15,0.5,1.0,-35.0,-1,1.0,0.7005999999999517
75,15,0.5,0.0,35.0,-1,0.0,2.5247999999999706
76,15,0.5,0.0,35.0,-1,0.0,2.821100000000058
77,15,0.5,0.0625,35.0,-1,0.0,2.7767000000000053
78,15,0.2,0.0625,35.0,1,1.0,3.8460999999999785
79,15,0.5,1.0,35.0,1,1.0,0.2740000000000009
80,15,0.5,1.0,35.0,1,1.0,0.25490000000002055
81,15,0.5,0.125,-35.0,-1,1.0,0.6089000000000055
82,15,0.5,0.0625,35.0,1,1.0,0.6797000000000821
83,15,0.5,1.0,35.0,1,1.0,0.25130000000001473
84,15,0.5,0.25,-35.0,-1,1.0,0.269299999999987
85,15,0.5,0.25,-35.0,-1,1.0,0.41440000000000055
86,15,0.5,0.0625,-35.0,-1,1.0,2.677500000000009
87,15,0.5,0.125,35.0,1,1.0,1.9651000000000636
88,15,0.5,0.0625,35.0,-1,0.0,0.24650000000002592
89,15,0.5,0.0625,-35.0,1,0.0,2.5927990000000705
90,15,0.5,0.0625,35.0,-1,0.0,0.9864000000000601
91,15,0.5,1.0,35.0,1,1.0,0.28520000000003165
92,15,0.5,1.0,35.0,1,1.0,0.29579999999998563
93,15,0.5,0.25,35.0,1,1.0,0.3365999999999758
94,15,0.5,0.0625,35.0,1,1.0,2.4687000000000694
95,15,0.5,1.0,-35.0,-1,1.0,0.317100000000039
96,15,0.5,1.0,35.0,1,1.0,0.23730000000000473
97,15,0.5,0.0625,35.0,-1,0.0,0.40840000000002874
98,15,0.5,0.25,-35.0,-1,1.0,0.980700000000013
99,15,0.5,0.0,-35.0,1,0.0,0.16130000000003974
100,15,0.6,0.0,-35.0,-1,1.0,2.4127000000000294
101,15,0.5,1.0,-35.0,-1,1.0,0.2820000000000391
102,15,0.5,0.25,35.0,-1,0.0,0.32600000000002183
103,15,0.5,0.0625,-35.0,-1,1.0,0.5605000000000473
104,15,0.5,0.125,35.0,1,1.0,1.4753000000000043
105,15,0.5,1.0,35.0,1,1.0,0.2703000000000202
106,15,0.5,0.0625,-35.0,-1,1.0,0.05920000000003256
107,15,0.5,0.0,-35.0,1,0.0,1.0674000000000206
108,15,0.5,0.0625,35.0,-1,0.0,2.265700000000038
109,15,0.5,0.25,-35.0,-1,1.0,0.5072999999999865
110,15,0.5,1.0,35.0,1,1.0,0.24680000000000746
111,15,0.5,0.25,-35.0,-1,1.0,0.3709999999999809
112,15,0.5,0.0,-35.0,-1,1.0,2.0147000000000617
113,15,0.5,1.0,35.0,1,1.0,0.23140000000000782
114,15,0.5,0.125,35.0,1,1.0,0.3471000000000686
115,15,0.5,0.0625,35.0,-1,0.0,0.5789000000000328
116,15,0.5,0.125,35.0,1,1.0,1.1230000000000473
117,15,0.5,0.0,-35.0,-1,1.0,1.956100000000049
118,15,0.5,0.125,-35.0,-1,1.0,0.3242000000000189
119,15,0.5,0.125,-35.0,-1,1.0,0.3251000000000204
120,15,0.5,0.125,35.0,1,1.0,0.6240000000000236
121,15,0.5,1.0,-35.0,-1,1.0,0.42630000000008295
122,15,0.5,0.0625,-35.0,-1,1.0,0.8671000000000504
123,15,0.5,1.0,35.0,1,1.0,0.26930000000004384
124,15,0.5,0.25,35.0,-1,0.0,1.0346000000000686
125,15,0.3,0.25,35.0,1,1.0,0.31560000000001764
126,15,0.5,1.0,35.0,1,1.0,0.29920000000004165
127,15,0.5,0.0,35.0,-1,0.0,3.798400000000015
128,15,0.5,0.0,35.0,1,1.0,3.797200000000089
129,15,0.5,0.125,-35.0,-1,1.0,0.32539999999994507
130,15,0.5,0.25,-35.0,-1,1.0,0.2662000000000262
131,15,0.5,0.25,-35.0,-1,1.0,0.2905000000000655
132,15,0.5,0.0625,-35.0,-1,1.0,0.253400000000056
133,15,0.5,0.0,35.0,-1,0.0,0.29399900000009893
134,15,0.5,0.0625,-35.0,-1,1.0,0.5426000000001068
135,15,0.5,0.25,-35.0,-1,1.0,0.7264000000000124
136,15,0.5,0.125,35.0,-1,0.0,0.1935000000000855
137,15,0.5,0.125,-35.0,-1,1.0,0.11270000000001801
138,15,0.5,0.0,35.0,-1,0.0,-0.00879999999995107
139,15,0.0,0.0,35.0,-1,0.0,0.11799999999993815
140,15,0.5,1.0,35.0,1,1.0,0.2726000000000113
141,15,0.5,0.125,35.0,-1,0.0,0.4411999999999807
142,15,0.1,0.125,35.0,1,1.0,0.30779999999992924
143,15,0.5,1.0,35.0,1,1.0,0.23679999999990287
144,15,0.5,0.0625,-35.0,-1,1.0,0.9230999999999767
145,15,0.5,1.0,-35.0,-1,1.0,0.29950000000008004
146,15,0.5,0.25,35.0,1,1.0,0.2763999999999669
147,15,0.5,0.125,-35.0,-1,1.0,0.4736000000000331
148,15,0.5,0.0625,-35.0,-1,1.0,0.2820999999999003
149,15,0.5,0.25,35.0,1,1.0,0.3001000000000431
150,15,0.5,1.0,35.0,1,1.0,0.26949999999999363
151,15,0.5,0.25,35.0,1,1.0,1.0934000000000879
152,15,0.5,0.25,35.0,1,1.0,0.5439999999999827
153,15,0.5,0.25,35.0,1,1.0,0.27290000000004966
154,15,0.5,0.25,35.0,1,1.0,0.31729999999993197
155,15,0.5,0.125,-35.0,-1,1.0,0.27949999999998454
156,15,0.5,0.25,-35.0,-1,1.0,0.1957999999999629
157,15,0.5,0.0,-35.0,-1,1.0,0.35560000000009495
158,15,0.5,1.0,35.0,1,1.0,0.2518000000000029
159,15,0.5,0.0625,35.0,1,1.0,0.5416999999999916
160,15,0.5,0.0,35.0,1,1.0,0.7163000000000466
161,15,0.5,0.125,35.0,1,1.0,0.29549999999994725
162,15,0.5,0.0625,-35.0,-1,1.0,0.2675000000000409
163,15,0.5,1.0,35.0,1,1.0,0.28280000000006567
164,15,0.5,0.125,35.0,1,1.0,1.090599999999995
165,15,0.5,0.0,-35.0,-1,1.0,0.3023000000000593
166,15,0.5,0.25,-35.0,-1,1.0,0.46070000000008804
167,15,0.5,0.25,-35.0,-1,1.0,0.2177000000000362
168,15,0.5,1.0,-35.0,-1,1.0,0.4350000000000591
169,15,0.5,0.125,-35.0,-1,1.0,2.5311000000000377
170,15,0.5,0.0,35.0,1,1.0,0.33190000000001874
171,15,0.5,1.0,35.0,1,1.0,0.23730000000000473
172,15,0.5,0.25,-35.0,-1,1.0,0.21420000000000528
173,15,0.5,1.0,35.0,1,1.0,0.25540000000000873
174,15,0.5,0.125,-35.0,-1,1.0,0.0786000000000513
175,15,0.5,0.0,35.0,-1,0.0,0.304300000000012
176,15,0.5,0.125,35.0,1,1.0,0.3020999999999958
177,15,0.5,1.0,-35.0,-1,1.0,0.30110000000013315
178,15,0.5,0.0,-35.0,-1,1.0,0.5146000000000868
179,15,0.5,0.125,35.0,1,1.0,0.12889999999993051
180,15,0.5,0.0625,35.0,-1,0.0,0.6761999999999944
181,15,0.5,0.0625,35.0,1,1.0,1.0850000000000364
182,15,0.5,0.25,-35.0,-1,1.0,0.33520000000009986
183,15,0.5,0.125,35.0,1,1.0,0.3543000000000802
184,15,0.5,1.0,35.0,1,1.0,0.2458000000000311
185,15,0.5,0.25,-35.0,1,0.0,0.2780999999999949
186,15,0.5,0.25,-35.0,-1,1.0,0.6105999999999767
187,15,0.5,0.0,-35.0,-1,1.0,1.7056000000001177
188,15,0.5,0.125,-35.0,1,0.0,0.36590000000001055
189,15,0.5,0.0,35.0,-1,0.0,0.40010000000006585
190,15,0.5,0.125,35.0,1,1.0,0.3711000000000695
191,15,0.5,0.0,-35.0,-1,1.0,0.6101000000001022
192,15,0.5,0.0625,35.0,-1,0.0,0.6931000000000722
193,15,0.5,0.0625,35.0,1,1.0,0.3068999999999278
194,15,0.5,1.0,35.0,1,1.0,0.2643000000000484
195,15,0.5,0.125,-35.0,-1,1.0,0.3694000000000415
196,15,0.5,0.0625,-35.0,-1,1.0,0.3421000000000731
197,15,0.5,0.0625,35.0,1,1.0,1.4977999999999838
198,15,0.5,0.125,-35.0,-1,1.0,0.29570000000001073
199,15,0.5,0.25,35.0,1,1.0,0.2645999999999731
200,15,0.5,1.0,-35.0,1,0.0,0.19450000000006185
201,15,0.5,0.25,-35.0,1,0.0,1.30600000000004
202,15,0.5,0.0625,-35.0,-1,1.0,0.15300000000002
203,15,0.5,0.0625,35.0,1,1.0,0.3160000000000309
204,15,0.5,0.25,35.0,1,1.0,0.42470000000002983
205,15,0.5,0.0,-35.0,-1,1.0,0.2437000000001035
206,15,0.5,1.0,-35.0,-1,1.0,0.5674000000000206
207,15,0.5,0.0,-35.0,-1,1.0,0.2543000000000575
208,15,0.5,1.0,-35.0,-1,1.0,0.3525999999999385
209,15,0.5,1.0,-35.0,-1,1.0,0.6571999999998752
210,15,0.5,0.25,-35.0,-1,1.0,2.4559000000000424
211,15,0.5,0.125,-35.0,-1,1.0,0.386600000000044
212,15,0.5,1.0,-35.0,-1,1.0,0.2977000000000771
213,15,0.5,0.0625,-35.0,-1,1.0,1.1277000000000044
214,15,0.5,0.25,-35.0,-1,1.0,1.0769999999998845
215,15,0.5,0.25,-35.0,-1,1.0,1.0311000000000377
216,15,0.5,0.25,-35.0,-1,1.0,0.3211000000000013
217,15,0.5,0.0,35.0,-1,0.0,0.2456000000000813
218,15,0.5,0.25,35.0,1,1.0,0.37360000000001037
219,15,0.5,0.125,35.0,1,1.0,0.3261000000001104
220,15,0.5,0.125,-35.0,-1,1.0,2.0608000000000857
221,15,0.5,0.0625,35.0,1,1.0,0.9989000000000487
222,15,0.5,0.0625,35.0,-1,0.0,3.446199999999976
223,15,0.5,0.125,35.0,1,1.0,0.2927000000000817
224,15,0.5,1.0,-35.0,-1,1.0,0.31399999999996453
225,15,0.5,1.0,35.0,1,1.0,0.26959999999996853
226,15,0.5,0.0,-35.0,-1,1.0,2.4062999999999874
227,15,0.5,1.0,-35.0,-1,1.0,0.0743000000001075
228,15,0.5,0.25,-35.0,-1,1.0,0.38179999999999836
229,15,0.5,0.0625,-35.0,-1,1.0,2.1485000000001264
230,15,0.5,0.0625,35.0,-1,0.0,2.2677999999999656
231,15,0.3,0.0625,35.0,-1,0.0,0.6403999999999996
232,15,0.5,1.0,35.0,1,1.0,0.28949999999997544
233,15,0.5,0.25,35.0,1,1.0,0.23709900000005746
234,15,0.5,0.25,-35.0,-1,1.0,4.214799999999968
235,15,0.5,0.25,35.0,1,1.0,0.24049999999999727
236,15,0.5,0.25,35.0,-1,0.0,3.955600000000004
237,15,0.5,0.0625,-35.0,1,0.0,2.696900000000028
238,15,0.5,0.125,-35.0,-1,1.0,3.5751999999999953
239,15,0.5,0.0,-35.0,-1,1.0,0.9001000000000658
240,15,0.5,1.0,35.0,1,1.0,0.24909999999999854
241,15,0.5,0.0625,35.0,-1,0.0,3.7503000000000384
242,15,0.5,0.125,-35.0,-1,1.0,4.032899999999927
243,15,0.5,0.125,-35.0,-1,1.0,0.9162000000000035
244,15,0.5,0.0,35.0,-1,0.0,4.690400000000068
245,15,0.3,0.0,35.0,-1,0.0,3.573600000000056
246,15,0.5,1.0,-35.0,-1,1.0,0.7295999999998912
247,15,0.5,0.125,35.0,1,1.0,0.4157000000000153
248,15,0.5,1.0,-35.0,-1,1.0,0.27520000000004075
249,15,0.5,1.0,35.0,1,1.0,0.3160000000000309
250,15,0.5,0.125,35.0,1,1.0,5.249599999999987
251,15,0.5,0.125,-35.0,1,0.0,0.5176000000000158
252,15,0.5,0.0625,-35.0,-1,1.0,3.165499999999952
253,15,0.5,0.25,35.0,1,1.0,0.2779000000000451
254,15,0.5,1.0,-35.0,-1,1.0,0.7395999999999958
255,15,0.5,0.0625,35.0,-1,0.0,2.254400000000146
256,15,0.5,0.0625,-35.0,-1,1.0,0.5712000000000899
257,15,0.5,0.25,35.0,1,1.0,0.32160000000010314
258,15,0.5,0.0625,-35.0,-1,1.0,0.3223000000000411
259,15,0.5,0.0625,-35.0,-1,1.0,1.151600000000144
260,15,0.5,0.125,35.0,-1,0.0,0.5253000000000156
261,15,0.5,0.0625,35.0,-1,0.0,1.6357000000000426
262,15,0.5,0.25,35.0,1,1.0,0.5220999999997957
263,15,0.5,0.0625,-35.0,1,0.0,3.918599999999742
264,15,0.5,0.125,-35.0,-1,1.0,0.5387999999998101
265,15,0.5,0.125,-35.0,1,0.0,0.30589999999983775
266,15,0.5,0.0625,-35.0,-1,1.0,0.549199999999928
267,15,0.5,0.125,-35.0,-1,1.0,0.4192000000000462
268,15,0.5,0.0,-35.0,-1,1.0,0.6127999999998792
269,15,0.5,0.25,35.0,-1,0.0,0.4857999999999265
270,15,0.5,0.25,-35.0,-1,1.0,0.4492999999999938
271,15,0.5,0.0625,-35.0,-1,1.0,2.4361999999998716
272,15,0.5,0.25,-35.0,-1,1.0,0.27299999999991087
273,15,0.5,1.0,35.0,1,1.0,0.26299999999991996
274,15,0.5,0.125,35.0,1,1.0,0.3835999999998876
275,15,0.5,0.125,35.0,-1,0.0,0.6498999999998887
276,15,0.5,0.125,35.0,1,1.0,0.5097000000000662
277,15,0.5,0.25,-35.0,-1,1.0,0.26340000000004693
278,15,0.5,0.125,-35.0,-1,1.0,0.3268000000000484
279,15,0.5,0.125,35.0,-1,0.0,1.490099999999984
280,15,0.5,0.25,-35.0,-1,1.0,0.43689999999992324
281,15,0.5,0.125,35.0,1,1.0,0.27769999999986794
282,15,0.5,0.125,35.0,1,1.0,0.26729999999975007
283,15,0.5,0.0625,35.0,-1,0.0,0.6677000000001954
284,15,0.5,0.125,35.0,1,1.0,0.9839999999999236
285,15,0.5,0.25,-35.0,-1,1.0,0.8379999999997381
286,15,0.5,0.25,35.0,1,1.0,0.5645999999999276
287,15,0.5,0.0,35.0,1,1.0,1.7843000000000302
288,15,0.5,0.25,35.0,1,1.0,0.3110999999998967
289,15,0.5,1.0,-35.0,-1,1.0,0.4944000000000415
290,15,0.5,0.25,-35.0,-1,1.0,0.3478999999997541
291,15,0.5,0.0625,35.0,1,1.0,0.2579000000000633
292,15,0.5,0.0625,35.0,1,1.0,0.4519000000000233
293,15,0.5,0.25,-35.0,-1,1.0,0.2880999999999858
294,15,0.5,0.0625,35.0,1,1.0,0.1981999999998152
295,15,0.5,1.0,-35.0,-1,1.0,0.25479999999993197
296,15,0.5,0.25,35.0,1,1.0,0.31159999999999854
297,15,0.5,0.125,35.0,1,1.0,0.355199999999968
298,15,0.5,0.125,35.0,1,1.0,0.3852999999999156
299,15,0.5,0.125,35.0,-1,0.0,0.08209999999985484
300,15,0.5,0.25,35.0,1,1.0,0.30189999999993233
301,15,0.5,1.0,35.0,1,1.0,0.30189999999970496
302,15,0.5,0.125,-35.0,-1,1.0,0.25189999999975043
303,15,0.5,1.0,-35.0,-1,1.0,0.19889999999986685
304,15,0.5,0.125,-35.0,1,0.0,0.41909999999984393
305,15,0.5,0.25,35.0,1,1.0,0.31229999999982283
306,15,0.5,0.125,35.0,-1,0.0,0.08249999999998181
307,15,0.5,0.25,-35.0,1,0.0,0.042799999999942884
308,15,0.5,0.0625,-35.0,1,0.0,2.1024999999999636
309,15,0.5,0.25,-35.0,-1,1.0,0.34589999999980137
310,15,0.5,0.25,-35.0,-1,1.0,0.2931999999998425
311,15,0.5,0.0,-35.0,-1,1.0,0.27319999999986067
312,15,0.5,1.0,-35.0,-1,1.0,0.19319999999993342
313,15,0.5,0.0625,-35.0,1,0.0,0.223700000000008
314,15,0.5,0.0625,-35.0,1,0.0,0.2563999999999851
315,15,0.5,0.0625,35.0,1,1.0,0.3066999999998643
316,15,0.5,1.0,35.0,-1,0.0,0.1032999999997628
317,15,0.5,0.125,35.0,-1,0.0,3.2732999999998356
318,15,0.5,0.125,35.0,1,1.0,0.2700999999999567
319,15,0.5,1.0,-35.0,-1,1.0,0.2237999999999829
320,15,0.5,0.125,35.0,-1,0.0,0.274199999999837
321,15,0.5,0.0625,35.0,-1,0.0,0.20089999999981956
322,15,0.5,0.25,-35.0,-1,1.0,0.31729999999993197
323,15,0.5,0.0625,-35.0,-1,1.0,0.2138999999999669
324,15,0.5,0.0,-35.0,-1,1.0,0.38419999999996435
325,15,0.5,0.125,35.0,-1,0.0,0.20080000000007203
326,15,0.1,0.125,35.0,1,1.0,0.3113999999998214
327,15,0.5,1.0,35.0,1,1.0,0.22759999999993852
328,15,0.5,0.0,35.0,1,1.0,4.804699999999912
329,15,0.5,0.125,35.0,1,1.0,1.6618999999998323
330,15,0.5,0.0625,-35.0,-1,1.0,2.028099999999995
331,15,0.5,1.0,35.0,1,1.0,0.25530000000003383
332,15,0.5,0.125,-35.0,-1,1.0,0.43499999999994543
333,15,0.5,0.25,-35.0,-1,1.0,0.7286999999998898
334,15,0.5,0.125,35.0,-1,0.0,3.5452999999999975
335,15,0.5,0.125,35.0,1,1.0,0.2790999999997439
336,15,0.5,1.0,-35.0,-1,1.0,0.7588000000000648
337,15,0.5,0.0625,-35.0,1,0.0,3.765899999999874
338,15,0.5,0.0625,35.0,-1,0.0,0.21920000000000073
339,15,0.5,0.125,35.0,1,1.0,0.34589999999980137
340,15,0.5,0.25,-35.0,-1,1.0,0.23969999999985703
341,15,0.5,1.0,35.0,1,1.0,0.26289999999994507
342,15,0.5,1.0,-35.0,-1,1.0,0.28319999999985157
343,15,0.5,0.25,35.0,1,1.0,0.24669999999991887
344,15,0.5,0.125,-35.0,-1,1.0,0.3436999999996715
345,15,0.5,0.0625,-35.0,-1,1.0,0.30359999999996035
346,15,0.5,1.0,-35.0,-1,1.0,2.6929999999999836
347,15,0.5,1.0,35.0,1,1.0,0.25030000000015207
348,15,0.5,0.25,35.0,1,1.0,0.5000999999999749
349,15,0.5,0.125,35.0,1,1.0,0.5501999999999043
350,15,0.5,0.0625,35.0,1,1.0,3.1535999999998694
351,15,0.5,0.0625,35.0,1,1.0,0.4173999999998159
352,15,0.5,0.25,-35.0,-1,1.0,0.40059999999994034
353,15,0.5,0.25,-35.0,-1,1.0,0.5171000000000276
354,15,0.5,0.0,-35.0,-1,1.0,0.793999999999869
355,15,0.5,1.0,-35.0,-1,1.0,0.6975999999997384
356,15,0.5,1.0,35.0,1,1.0,0.23749999999995453
357,15,0.5,0.125,35.0,-1,0.0,3.9215999999998985
358,15,0.5,0.0625,-35.0,-1,1.0,0.5980999999999312
359,15,0.5,0.0625,-35.0,-1,1.0,0.08459999999990941
360,15,0.5,0.0,-35.0,-1,1.0,0.6885999999999513
361,15,0.5,0.125,-35.0,-1,1.0,0.24779999999987012
362,15,0.5,0.0625,-35.0,-1,1.0,3.827999999999747
363,15,0.5,1.0,-35.0,1,0.0,0.06189999999992324
364,15,0.2,1.0,35.0,1,1.0,0.25169999999980064
365,15,0.5,1.0,35.0,1,1.0,0.24569999999994252
366,15,0.5,0.25,35.0,1,1.0,0.28839999999968313
367,15,0.5,0.0,35.0,-1,0.0,3.3620999999998276
368,15,0.5,0.0625,35.0,1,1.0,2.3856000000000677
369,15,0.5,1.0,-35.0,-1,1.0,0.20209999999997308
370,15,0.5,0.125,-35.0,-1,1.0,0.6023000000000138
371,15,0.5,0.25,-35.0,-1,1.0,0.3027999999997064
372,15,0.5,0.0625,-35.0,-1,1.0,1.0661000000000058
373,15,0.5,0.0625,35.0,1,1.0,0.4925999999998112
374,15,0.5,1.0,35.0,1,1.0,0.27929999999992106
375,15,0.5,1.0,35.0,1,1.0,0.02980000000002292
376,15,0.5,0.125,-35.0,-1,1.0,0.5760999999999967
377,15,0.5,1.0,35.0,1,1.0,0.29280000000017026
378,15,0.5,1.0,35.0,1,1.0,0.276299999999992
379,15,0.5,0.25,-35.0,-1,1.0,0.3161999999999807
380,15,0.5,0.0,35.0,-1,0.0,0.32970000000000255
381,15,0.5,0.0625,-35.0,-1,1.0,5.80359999999996
382,15,0.5,0.0625,-35.0,-1,1.0,0.38999999999987267
383,15,0.5,0.25,35.0,1,1.0,0.3770999999999276
384,15,0.5,0.25,35.0,1,1.0,0.31359999999995125
385,15,0.5,0.25,-35.0,-1,1.0,0.2704999999998563
386,15,0.5,1.0,-35.0,-1,1.0,0.3471999999999298
387,15,0.5,1.0,-35.0,-1,1.0,0.4272999999998319
388,15,0.5,1.0,-35.0,-1,1.0,0.7210999999999785
389,15,0.5,1.0,35.0,1,1.0,0.30739999999991596
390,15,0.5,0.25,-35.0,-1,1.0,0.3846000000000913
391,15,0.5,1.0,35.0,1,1.0,0.2176999999999225
392,15,0.5,0.25,-35.0,-1,1.0,0.2540999999998803
393,15,0.5,0.0625,-35.0,1,0.0,3.2674999999999272
394,15,0.5,0.25,35.0,1,1.0,0.3147000000001299
395,15,0.5,1.0,-35.0,-1,1.0,0.3346999999998843
396,15,0.5,1.0,35.0,1,1.0,0.3613999999997759
397,15,0.5,0.125,35.0,-1,0.0,0.40849999999977626
398,15,0.5,0.0,35.0,-1,0.0,1.2787989999999354
399,15,0.5,0.0,35.0,1,1.0,0.5891999999998916
400,15,0.5,1.0,35.0,1,1.0,0.25860000000011496
401,15,0.5,0.0,35.0,1,1.0,0.6290999999998803
402,15,0.5,0.0,35.0,-1,0.0,4.285699999999906
403,15,0.5,0.125,35.0,1,1.0,5.112299000000121
404,15,0.5,0.125,-35.0,-1,1.0,3.7889999999999873
405,15,0.5,0.0625,-35.0,-1,1.0,0.7462999999997919
406,15,0.5,0.0,-35.0,-1,1.0,2.0126999999999953
407,15,0.5,0.125,-35.0,-1,1.0,0.7231999999999061
408,15,0.5,0.0625,-35.0,1,0.0,1.0195999999998548
409,15,0.5,0.0625,35.0,1,1.0,0.5432999999998174
410,15,0.5,1.0,-35.0,-1,1.0,0.20650000000000546
411,15,0.5,0.25,-35.0,-1,1.0,0.3006999999997788
412,15,0.5,0.0,35.0,-1,0.0,3.21349999999984
413,15,0.5,0.0,35.0,1,1.0,0.30709999999999127
414,15,0.5,0.125,-35.0,-1,1.0,0.320699999999988
415,15,0.5,0.0,35.0,-1,0.0,0.33399999999983265
416,15,0.5,0.25,-35.0,-1,1.0,0.6103999999997995
417,15,0.5,1.0,-35.0,-1,1.0,0.34379999999987376
418,15,0.5,0.0625,35.0,1,1.0,0.3472999999999047
419,15,0.5,0.0625,-35.0,-1,1.0,0.22109999999997854
420,15,0.5,0.125,35.0,-1,0.0,0.41409999999996217
421,15,0.5,0.125,-35.0,-1,1.0,2.890899999999874
422,15,0.5,0.125,-35.0,-1,1.0,0.37419999999997344
423,15,0.5,0.25,-35.0,-1,1.0,0.3143999999999778
424,15,0.5,0.0625,-35.0,-1,1.0,0.5643999999997504
425,15,0.5,0.0,35.0,-1,0.0,3.011099999999942
426,15,0.5,0.0,-35.0,-1,1.0,1.1579999999999018
427,15,0.5,1.0,-35.0,-1,1.0,0.23839999999995598
428,15,0.5,0.125,35.0,1,1.0,0.5148999999998978
429,15,0.5,0.125,-35.0,-1,1.0,4.474799999999959
430,15,0.5,0.0625,-35.0,-1,1.0,0.7582999999999629
431,15,0.5,0.25,-35.0,-1,1.0,1.2955999999999221
432,15,0.5,0.125,-35.0,-1,1.0,0.4118999999998323
433,15,0.5,0.125,35.0,1,1.0,0.39210000000002765
434,15,0.5,0.0625,-35.0,-1,1.0,0.5986000000000331
435,15,0.5,0.0625,-35.0,-1,1.0,1.5861999999999625
436,15,0.5,0.0625,35.0,1,1.0,0.522899999999936
437,15,0.5,0.25,35.0,1,1.0,0.5595999999998185
438,15,0.5,0.0625,-35.0,1,0.0,1.7096999999998843
439,15,0.5,0.25,-35.0,-1,1.0,0.7258999999999105
440,15,0.5,0.25,-35.0,-1,1.0,0.4728999999997541
441,15,0.5,1.0,35.0,1,1.0,0.282799999999952
442,15,0.5,0.0625,-35.0,-1,1.0,4.032899999999927
443,15,0.5,0.125,35.0,1,1.0,0.47349999999983083
444,15,0.5,1.0,35.0,1,1.0,0.5131999999998698
445,15,0.5,0.25,-35.0,-1,1.0,0.9131999999999607
446,15,0.5,0.0625,-35.0,-1,1.0,8.37319999999977
447,15,0.5,0.25,35.0,1,1.0,0.6809999999998126
448,15,0.5,1.0,-35.0,-1,1.0,0.29710000000000036
449,15,0.5,1.0,-35.0,-1,1.0,0.39039999999977226
450,15,0.5,0.0,-35.0,-1,1.0,0.5137999999999465
451,15,0.5,0.0625,-35.0,-1,1.0,1.030699999999797
452,15,0.5,0.0625,-35.0,-1,1.0,1.6941999999999098
453,15,0.5,1.0,-35.0,-1,1.0,0.601399999999785
454,15,0.5,0.0,35.0,-1,0.0,1.2773999999999432
455,15,0.5,0.25,-35.0,-1,1.0,2.367699999999786
456,15,0.5,0.125,-35.0,-1,1.0,0.3916999999999007
457,15,0.5,1.0,-35.0,-1,1.0,0.6642999999996846
458,15,0.5,1.0,-35.0,-1,1.0,2.234499999999798
459,15,0.5,0.0,35.0,-1,0.0,4.197900000000118
460,15,0.5,0.25,-35.0,-1,1.0,0.5115999999998166
461,15,0.5,1.0,-35.0,-1,1.0,0.6748999999997523
462,15,0.5,0.25,35.0,1,1.0,0.2817999999999756
463,15,0.5,0.0,35.0,-1,0.0,4.468399999999974
464,15,0.5,0.0,35.0,-1,0.0,2.6485000000000127
465,15,0.5,0.25,35.0,1,1.0,0.29599999999982174
466,15,0.5,1.0,-35.0,-1,1.0,0.5856999999998607
467,15,0.5,1.0,35.0,1,1.0,0.2555999999999585
468,15,0.5,0.25,35.0,1,1.0,0.5624000000000251
469,15,0.5,0.0625,35.0,1,1.0,0.42259999999987485
470,15,0.5,0.125,35.0,-1,0.0,4.639399999999796
471,15,0.5,0.125,35.0,1,1.0,0.4795999999998912
472,15,0.5,1.0,-35.0,-1,1.0,0.26329999999984466
473,15,0.5,0.25,35.0,1,1.0,0.492998999999827
474,15,0.5,0.25,35.0,1,1.0,0.2699000000000069
475,15,0.5,0.125,35.0,1,1.0,0.0831999999998061
476,15,0.5,0.25,-35.0,-1,1.0,0.3365000000001146
477,15,0.5,1.0,35.0,1,1.0,0.26349999999979445
478,15,0.5,0.0625,35.0,1,1.0,4.379999999999882
479,15,0.5,1.0,35.0,1,1.0,0.28670000000010987
480,15,0.5,0.0,35.0,-1,0.0,6.537000000000035
481,15,0.7,0.0,35.0,1,1.0,0.04109999999991487
482,15,0.5,1.0,-35.0,-1,1.0,0.6006999999997333
483,15,0.5,0.125,35.0,1,1.0,0.5507999999999811
484,15,0.5,1.0,-35.0,-1,1.0,0.30769999999984066
485,15,0.5,0.125,-35.0,-1,1.0,1.2274999999997362
486,15,0.5,0.0,35.0,-1,0.0,0.47129999999992833
487,15,0.5,0.0,-35.0,-1,1.0,0.14779999999996107
488,15,0.5,1.0,-35.0,-1,1.0,0.3146999999999025
489,15,0.5,0.0625,35.0,1,1.0,0.2845999999999549
490,15,0.5,0.0,35.0,-1,0.0,0.3181999999999334
491,15,0.3,0.0,35.0,-1,0.0,4.488099999999804
492,15,0.5,1.0,35.0,1,1.0,0.15829999999982647
493,15,0.5,0.0625,35.0,1,1.0,0.25509999999985666
494,15,0.5,0.25,35.0,1,1.0,0.37209999999981846
495,15,0.5,0.125,35.0,1,1.0,0.4052999999998974
496,15,0.5,0.0,35.0,1,1.0,3.0592999999998938
497,15,0.5,0.125,35.0,1,1.0,0.6620999999997821
498,15,0.5,0.25,35.0,1,1.0,0.24919999999974607
499,15,0.5,0.125,-35.0,-1,1.0,0.41909999999984393
500,15,0.5,0.0625,-35.0,1,0.0,0.8624999999997272
501,15,0.8,0.0625,-35.0,-1,1.0,1.6358999999999924
502,15,0.5,1.0,-35.0,-1,1.0,0.302599999999984
503,15,0.5,0.0,-35.0,-1,1.0,0.9398999999998523
504,15,0.5,0.0,35.0,-1,0.0,2.91599999999994
505,15,0.5,0.0,35.0,-1,0.0,0.32029999999986103
506,15,0.5,1.0,-35.0,-1,1.0,0.3230999999998403
507,15,0.5,0.25,35.0,1,1.0,0.489699999999857
508,15,0.5,0.125,-35.0,-1,1.0,2.489799999999832
509,15,0.5,1.0,-35.0,-1,1.0,0.5768000000000484
510,15,0.5,0.25,35.0,1,1.0,0.37030000000004293
511,15,0.5,0.0625,-35.0,-1,1.0,0.30349999999998545
512,15,0.5,0.0,35.0,1,1.0,5.0470000000000255
513,15,0.5,0.0,-35.0,-1,1.0,2.397399999999834
514,15,0.5,1.0,-35.0,-1,1.0,0.4510999999999967
515,15,0.5,0.0,35.0,-1,0.0,3.163899999999785
516,15,0.5,0.0625,-35.0,-1,1.0,0.501399999999876
517,15,0.5,0.0,35.0,-1,0.0,0.9907999999998083
518,15,0.5,0.25,-35.0,-1,1.0,0.5376999999998588
519,15,0.5,0.125,-35.0,-1,1.0,0.4511999999999716
520,15,0.5,0.125,-35.0,-1,1.0,0.5578999999997905
521,15,0.5,0.125,-35.0,-1,1.0,1.6747000000000298
522,15,0.5,0.0625,-35.0,-1,1.0,0.5050999999998567
523,15,0.5,0.125,35.0,1,1.0,2.234899999999925
524,15,0.5,0.0625,35.0,-1,0.0,0.6450999999999567
525,15,0.5,0.25,-35.0,-1,1.0,0.6550999999997202
526,15,0.5,0.0625,-35.0,-1,1.0,0.22209999999972752
527,15,0.5,0.25,35.0,1,1.0,0.028900000000021464
528,15,0.5,1.0,-35.0,-1,1.0,0.46509999999989304
529,15,0.5,0.0625,35.0,1,1.0,1.182399999999916
530,15,0.5,0.0625,35.0,1,1.0,0.37210000000004584
531,15,0.5,0.0625,35.0,1,1.0,0.42889999999988504
532,15,0.5,0.125,35.0,1,1.0,0.6226999999996679
533,15,0.5,0.25,-35.0,-1,1.0,0.28890000000001237
534,15,0.5,0.125,35.0,1,1.0,2.909599999999955
535,15,0.5,0.0,-35.0,-1,1.0,8.249599999999873
536,15,0.5,0.125,35.0,1,1.0,0.6532999999999447
537,15,0.5,0.0,-35.0,-1,1.0,1.0267999999996391
538,15,0.5,0.25,-35.0,-1,1.0,2.1129000000000815
539,15,0.5,0.25,35.0,1,1.0,0.32629999999971915
540,15,0.5,0.25,35.0,1,1.0,0.4032999999999447
541,15,0.5,1.0,35.0,1,1.0,0.2735000000002401
542,15,0.5,0.25,-35.0,-1,1.0,3.42679999999973
543,15,0.5,0.0,35.0,1,1.0,3.6569000000004053
544,15,0.5,0.0,-35.0,-1,1.0,3.4870999999998276
545,15,0.5,1.0,-35.0,-1,1.0,0.46390000000019427
546,15,0.5,0.125,-35.0,-1,1.0,7.15119999999979
547,15,0.5,0.125,35.0,1,1.0,0.29149999999981446
548,15,0.5,1.0,35.0,1,1.0,0.2976000000003296
549,15,0.5,1.0,-35.0,-1,1.0,1.8645000000001346
550,15,0.5,0.0,35.0,-1,0.0,2.0178000000000793
551,15,0.5,0.0625,35.0,1,1.0,1.4615999999996347
552,15,0.5,0.125,35.0,1,1.0,0.38149999999996
553,15,0.5,0.0,-35.0,1,0.0,3.2516999999998006
554,15,0.5,0.0,-35.0,-1,1.0,1.9050000000002
555,15,0.5,1.0,-35.0,-1,1.0,7.5789999999997235
556,15,0.5,1.0,-35.0,-1,1.0,0.8387999999995372
557,15,0.5,0.25,35.0,-1,0.0,5.06899999999996
558,15,0.5,0.0625,-35.0,-1,1.0,1.4190999999996166
559,15,0.5,0.0,-35.0,-1,1.0,4.585799999999381
560,15,0.5,0.0,-35.0,1,0.0,4.626100000000406
561,15,0.5,0.125,-35.0,-1,1.0,1.749699999999848
562,15,0.5,0.0625,-35.0,-1,1.0,4.379800000000159
563,15,0.5,0.25,-35.0,-1,1.0,3.3497999999999593
564,15,0.5,0.0625,35.0,1,1.0,2.4234999999998763
565,15,0.5,0.0,35.0,-1,0.0,2.490799999999581
566,15,0.5,0.0625,-35.0,1,0.0,2.1003999999998086
567,15,0.5,0.125,35.0,1,1.0,0.5772999999999229
568,15,0.5,1.0,35.0,1,1.0,0.27749999999969077
569,15,0.5,0.0625,-35.0,-1,1.0,3.6143999999999323
570,15,0.5,0.0,35.0,-1,0.0,6.017699999999877
571,15,0.5,0.0,-35.0,-1,1.0,4.777599999999893
572,15,0.5,0.25,-35.0,-1,1.0,1.057999999999538
573,15,0.5,0.125,-35.0,1,0.0,0.7285000000001673
574,15,0.5,0.125,-35.0,-1,1.0,6.19150000000036
575,15,0.5,1.0,-35.0,-1,1.0,1.3119000000001506
576,15,0.5,1.0,-35.0,-1,1.0,0.6386999999999716
577,15,0.5,0.25,-35.0,-1,1.0,0.5117999999997664
578,15,0.5,0.125,-35.0,-1,1.0,2.5351999999998043
579,15,0.5,0.0,-35.0,-1,1.0,3.578899999999976
580,15,0.5,0.125,35.0,1,1.0,0.6923999999999069
581,15,0.5,0.25,35.0,1,1.0,0.47959999999966385
582,15,0.5,0.0625,-35.0,-1,1.0,0.33599999999978536
583,15,0.5,0.0625,35.0,-1,0.0,3.2325999999998203
584,15,0.5,0.25,-35.0,-1,1.0,3.1325999999999112
585,15,0.5,0.0625,35.0,-1,0.0,3.566200000000208
586,15,0.5,0.125,35.0,1,1.0,2.4401999999995496
1,16,0.5,0.0,-35.0,-1,1.0,5.023499999999999
2,16,0.5,1.0,-35.0,-1,1.0,0.42930000000000135
3,16,0.5,1.0,35.0,1,1.0,4.041699999999995
4,16,0.5,0.0625,-35.0,-1,1.0,1.9985
5,16,0.5,1.0,35.0,1,1.0,0.3938000000000059
6,16,0.5,0.125,35.0,-1,0.0,2.990000000000002
7,16,0.5,0.125,35.0,1,1.0,0.6711000000000027
8,16,0.5,0.125,-35.0,1,0.0,2.6936999999999998
9,16,0.6,0.125,-35.0,-1,1.0,2.595799999999997
10,16,0.5,1.0,35.0,1,1.0,0.3141999999999996
11,16,0.5,0.125,35.0,1,1.0,3.5316000000000116
12,16,0.5,0.125,-35.0,1,0.0,2.4372000000000043
13,16,0.5,0.125,-35.0,-1,1.0,0.406099999999995
14,16,0.5,0.25,-35.0,-1,1.0,0.4042999999999921
15,16,0.5,0.125,35.0,1,1.0,0.3201000000000107
16,16,0.5,0.125,35.0,1,1.0,0.45679900000001794
17,16,0.5,0.125,35.0,-1,0.0,0.2277999999999878
18,16,0.6,0.125,35.0,-1,0.0,2.511599999999987
19,16,0.5,1.0,-35.0,-1,1.0,0.7014000000000067
20,16,0.5,1.0,-35.0,-1,1.0,0.33099999999998886
21,16,0.5,0.0,35.0,1,1.0,3.4295000000000044
22,16,0.5,0.0,35.0,-1,0.0,0.7122000000000099
23,16,0.3,0.0,-35.0,-1,1.0,0.5764999999999958
24,16,0.5,1.0,35.0,1,1.0,0.2985000000000042
25,16,0.5,1.0,-35.0,-1,1.0,0.4479000000000042
26,16,0.5,0.0625,-35.0,1,0.0,0.745900000000006
27,16,0.5,0.125,35.0,1,1.0,0.41030000000000655
28,16,0.5,0.0625,-35.0,-1,1.0,1.3615999999999957
29,16,0.5,1.0,-35.0,-1,1.0,0.61099999999999
30,16,0.5,0.125,-35.0,-1,1.0,3.23509999999996
31,16,0.5,1.0,-35.0,1,0.0,0.38469999999998095
32,16,0.5,0.25,35.0,-1,0.0,0.5146999999999764
33,16,0.5,0.25,-35.0,-1,1.0,0.412399999999991
34,16,0.5,1.0,-35.0,-1,1.0,0.3036999999999921
35,16,0.5,0.25,-35.0,-1,1.0,0.7011999999999716
36,16,0.5,0.125,35.0,-1,0.0,3.4744999999999777
37,16,0.5,0.0625,-35.0,-1,1.0,0.3008000000000095
38,16,0.5,0.125,-35.0,-1,1.0,0.35849999999999227
39,16,0.5,0.125,35.0,-1,0.0,0.34959999999998104
40,16,0.5,0.25,-35.0,-1,1.0,0.3563999999999794
41,16,0.5,0.125,35.0,-1,0.0,0.591399999999993
42,16,0.5,0.125,35.0,-1,0.0,3.218599999999981
43,16,0.0,0.125,35.0,1,1.0,0.3480999999999881
44,16,0.5,1.0,35.0,1,1.0,0.24409999999997467
45,16,0.5,1.0,35.0,1,1.0,0.26599999999999113
46,16,0.5,0.125,35.0,1,1.0,4.055599999999998
47,16,0.5,0.0,-35.0,-1,1.0,0.4350000000000023
48,16,0.5,0.125,-35.0,-1,1.0,0.7820999999999856
49,16,0.5,0.25,35.0,1,1.0,0.59699999999998
50,16,0.5,0.125,-35.0,-1,1.0,0.40239999999997167
51,16,0.5,1.0,35.0,1,1.0,0.3491999999999962
52,16,0.5,1.0,35.0,1,1.0,0.27259999999998286
53,16,0.5,0.0625,-35.0,-1,1.0,0.2598999999999876
54,16,0.5,0.25,-35.0,-1,1.0,0.2384999999999593
55,16,0.5,0.0625,-35.0,-1,1.0,0.277499999999975
56,16,0.5,1.0,35.0,1,1.0,0.24449999999998795
57,16,0.5,1.0,35.0,1,1.0,0.2739999999999725
58,16,0.5,0.125,35.0,-1,0.0,0.15179999999998017
59,16,0.5,0.125,35.0,1,1.0,1.0004999999999882
60,16,0.5,1.0,35.0,1,1.0,0.20239999999998304
61,16,0.5,0.125,35.0,1,1.0,0.12219999999996389
62,16,0.5,0.0625,35.0,-1,0.0,0.6226999999999805
63,16,0.5,0.0625,-35.0,1,0.0,0.25930099999999356
64,16,0.6,0.0625,35.0,1,1.0,0.5281009999999924
65,16,0.5,1.0,35.0,1,1.0,3.709401000000014
66,16,0.5,1.0,35.0,1,1.0,0.5331009999999878
67,16,0.5,0.0,35.0,1,1.0,0.053300999999976284
68,16,0.5,1.0,35.0,1,1.0,0.16770099999996546
69,16,0.5,0.0,-35.0,1,0.0,0.22970099999997728
70,16,0.5,0.25,35.0,1,1.0,0.32520099999999275
71,16,0.5,0.0625,-35.0,1,0.0,2.3410010000000057
72,16,0.5,0.0625,35.0,1,1.0,0.4605009999999652
73,16,0.5,0.125,-35.0,-1,1.0,0.5697009999999523
74,16,0.5,0.25,35.0,1,1.0,0.25820099999998547
75,16,0.5,0.0625,35.0,-1,0.0,0.42190099999993436
76,16,0.5,0.0625,35.0,-1,0.0,0.8697010000000205
77,16,0.5,0.0625,35.0,-1,0.0,0.8426010000000019
78,16,0.5,0.125,-35.0,1,0.0,5.471201000000008
79,16,0.5,0.0,-35.0,-1,1.0,0.2755009999999629
80,16,0.5,0.125,35.0,-1,0.0,0.8614010000000007
81,16,0.5,0.125,-35.0,-1,1.0,0.46920099999994136
82,16,0.5,0.0625,35.0,-1,0.0,1.243300999999974
83,16,0.5,0.0625,-35.0,-1,1.0,0.3962009999999623
84,16,0.5,0.125,-35.0,-1,1.0,0.29480100000000675
85,16,0.5,0.0625,-35.0,-1,1.0,0.4726009999999974
86,16,0.5,1.0,-35.0,-1,1.0,0.2511009999999487
87,16,0.5,0.0,35.0,-1,0.0,0.6867009999999709
88,16,0.5,0.0625,35.0,-1,0.0,1.7943009999999617
89,16,0.5,0.25,35.0,1,1.0,0.29790099999996755
90,16,0.5,1.0,-35.0,-1,1.0,0.19450100000000248
91,16,0.5,1.0,-35.0,-1,1.0,0.29450099999996837
92,16,0.5,0.25,-35.0,-1,1.0,0.30960099999998647
93,16,0.5,0.125,-35.0,-1,1.0,0.2962009999999964
94,16,0.5,0.0625,35.0,-1,0.0,2.9322009999999636
95,16,0.5,0.125,-35.0,-1,1.0,0.4388010000000122
96,16,0.5,0.0625,35.0,-1,0.0,0.3537009999999441
97,16,0.5,0.125,-35.0,-1,1.0,0.31490099999996346
98,16,0.5,0.125,35.0,-1,0.0,0.03330100000005132
99,16,0.1,0.125,35.0,1,1.0,0.37960099999997965
100,16,0.5,1.0,35.0,1,1.0,0.28910099999995964
101,16,0.5,0.0625,-35.0,-1,1.0,0.2543009999999981
102,16,0.5,0.125,-35.0,1,0.0,0.34140100000001894
103,16,0.3,0.125,35.0,1,1.0,0.24320099999994227
104,16,0.5,1.0,35.0,1,1.0,0.31370099999998047
105,16,0.5,0.25,-35.0,-1,1.0,0.3808010000000195
106,16,0.5,0.0625,35.0,-1,0.0,0.3880010000000311
107,16,0.5,0.0625,35.0,1,1.0,0.06330099999996719
108,16,0.5,1.0,35.0,1,1.0,0.24120099999998956
109,16,0.5,0.125,35.0,1,1.0,0.5189009999999143
110,16,0.5,0.25,-35.0,-1,1.0,0.3830010000000357
111,16,0.5,0.0,-35.0,1,0.0,0.4876009999999269
112,16,0.7,0.0,-35.0,-1,1.0,0.5005009999999857
113,16,0.5,1.0,35.0,1,1.0,0.2274009999999862
114,16,0.5,0.25,35.0,1,1.0,0.18090100000000575
115,16,0.5,0.25,-35.0,-1,1.0,0.12970099999995455
116,16,0.5,0.125,-35.0,-1,1.0,0.4617009999999482
117,16,0.5,0.0625,-35.0,-1,1.0,0.11670099999997774
118,16,0.5,1.0,-35.0,-1,1.0,0.1742009999999823
119,16,0.5,0.0,-35.0,-1,1.0,0.23800099999994018
120,16,0.5,1.0,35.0,1,1.0,0.2837009999999509
121,16,0.5,0.0625,-35.0,-1,1.0,0.2753010000000131
122,16,0.5,0.25,35.0,1,1.0,0.3398009999999658
123,16,0.5,0.0625,35.0,-1,0.0,0.24690100000003667
124,16,0.5,0.25,-35.0,-1,1.0,0.35400099999998247
125,16,0.5,0.0625,-35.0,-1,1.0,0.22550099999995155
126,16,0.5,1.0,35.0,1,1.0,0.2029009999999971
127,16,0.5,0.125,-35.0,-1,1.0,0.2099010000000021
128,16,0.5,1.0,35.0,1,1.0,0.2871009999999501
129,16,0.5,0.25,35.0,-1,0.0,0.19960099999997283
130,16,0.4,0.25,35.0,1,1.0,0.7428009999999858
131,16,0.5,1.0,-35.0,-1,1.0,0.27870099999995546
132,16,0.5,1.0,35.0,1,1.0,0.26470099999994545
133,16,0.5,1.0,-35.0,-1,1.0,0.16930100000001858
134,16,0.5,0.0,-35.0,1,0.0,0.12570099999993545
135,16,0.5,0.0,35.0,-1,0.0,0.35700099999996837
136,16,0.5,0.25,35.0,1,1.0,0.25830099999996037
137,16,0.5,0.25,35.0,1,1.0,0.3381009999999378
138,16,0.5,1.0,-35.0,-1,1.0,0.24050099999999475
139,16,0.5,0.0625,35.0,-1,0.0,0.16350099999999657
140,16,0.5,0.125,35.0,1,1.0,0.333800999999994
141,16,0.5,1.0,-35.0,-1,1.0,0.29920099999992544
142,16,0.5,0.25,-35.0,-1,1.0,0.43840099999999893
143,16,0.5,0.125,35.0,1,1.0,0.872400999999968
144,16,0.5,0.0625,35.0,-1,0.0,0.21460100000001603
145,16,0.5,0.25,35.0,1,1.0,0.38580100000001494
146,16,0.5,0.25,35.0,1,1.0,0.29300100000000384
147,16,0.5,0.0,-35.0,-1,1.0,0.2804999999999609
148,16,0.5,0.25,35.0,1,1.0,0.26480100000003404
149,16,0.5,0.125,-35.0,-1,1.0,0.2613010000000031
150,16,0.5,0.125,35.0,-1,0.0,0.41270099999997
151,16,0.5,0.0625,35.0,-1,0.0,0.2452010000000655
152,16,0.5,0.0625,35.0,-1,0.0,0.26020100000005186
153,16,0.4,0.0625,35.0,-1,0.0,0.556500999999912
154,16,0.5,1.0,35.0,1,1.0,0.20630099999993945
155,16,0.5,0.0,35.0,-1,0.0,1.2329009999999698
156,16,0.5,0.125,35.0,1,1.0,0.38540099999988797
157,16,0.5,1.0,-35.0,-1,1.0,0.33150100000000293
158,16,0.5,0.125,-35.0,-1,1.0,0.23880099999996673
159,16,0.5,0.125,35.0,1,1.0,0.2594010000000253
160,16,0.5,0.0625,35.0,1,1.0,0.4105009999999538
161,16,0.5,0.0625,35.0,1,1.0,0.5587009999999282
162,16,0.5,1.0,-35.0,-1,1.0,0.3582010000000082
163,16,0.5,0.25,-35.0,-1,1.0,0.32490099999995437
164,16,0.5,0.25,35.0,1,1.0,0.07140099999992344
165,16,0.5,0.0,-35.0,-1,1.0,0.2034009999998716
166,16,0.5,0.125,35.0,1,1.0,0.26870099999996455
167,16,0.5,1.0,35.0,1,1.0,0.45190099999990707
168,16,0.5,1.0,35.0,1,1.0,0.3204010000000608
169,16,0.5,0.25,-35.0,-1,1.0,0.3569009999998798
170,16,0.5,0.25,-35.0,-1,1.0,0.2332010000000082
171,16,0.5,1.0,-35.0,-1,1.0,0.11199999999996635
172,16,0.5,0.0,35.0,-1,0.0,0.5661010000000033
173,16,0.5,0.0,35.0,-1,0.0,0.8696010000001024
174,16,0.4,0.0,-35.0,-1,1.0,0.40940100000011626
175,16,0.5,1.0,-35.0,-1,1.0,0.2516010000000506
176,16,0.5,0.25,-35.0,-1,1.0,0.34680100000002767
177,16,0.5,1.0,35.0,1,1.0,0.6742009999999254
178,16,0.5,0.0625,35.0,1,1.0,0.41820099999995364
179,16,0.5,0.0625,-35.0,-1,1.0,0.3526010000000497
180,16,0.5,0.0625,35.0,1,1.0,0.18670099999997092
181,16,0.5,0.0625,-35.0,-1,1.0,0.3363010000000486
182,16,0.5,0.0625,35.0,1,1.0,0.3166009999999915
183,16,0.5,0.25,35.0,1,1.0,0.2295009999999138
184,16,0.5,0.25,35.0,1,1.0,0.29310099999997874
185,16,0.5,0.25,35.0,-1,0.0,0.13590100000010352
186,16,0.5,0.0,35.0,-1,0.0,1.970100999999886
187,16,0.5,0.25,35.0,1,1.0,0.26860100000010334
188,16,0.5,1.0,-35.0,-1,1.0,0.24990100000002258
189,16,0.5,0.125,35.0,-1,0.0,0.165100999999936
190,16,0.5,0.0625,-35.0,-1,1.0,0.34950100000003204
191,16,0.5,0.25,35.0,1,1.0,0.27240099999994527
192,16,0.5,0.0625,35.0,-1,0.0,0.22610099999985778
193,16,0.5,0.125,35.0,1,1.0,0.3769009999999753
194,16,0.5,0.0625,-35.0,-1,1.0,0.28860099999997146
195,16,0.5,0.125,-35.0,-1,1.0,0.2937010000000555
196,16,0.5,0.25,-35.0,-1,1.0,0.12190100000009352
197,16,0.5,1.0,35.0,1,1.0,0.3055010000000493
198,16,0.5,1.0,35.0,1,1.0,0.2273010000000113
199,16,0.5,0.25,-35.0,-1,1.0,0.2837009999999509
200,16,0.5,0.0625,-35.0,-1,1.0,0.4912009999999327
201,16,0.5,0.0,35.0,-1,0.0,0.24870099999998274
202,16,0.5,0.25,-35.0,-1,1.0,0.29500100000007023
203,16,0.5,0.125,-35.0,-1,1.0,0.3381009999999378
204,16,0.5,1.0,-35.0,-1,1.0,0.48050100000000384
205,16,0.5,0.0,35.0,-1,0.0,0.48440100000004804
206,16,0.2,0.0,35.0,-1,0.0,0.5178009999999631
207,16,0.5,1.0,35.0,1,1.0,0.32460100000002967
208,16,0.5,0.0625,-35.0,-1,1.0,0.43980099999998856
209,16,0.5,0.125,35.0,-1,0.0,0.1304010000000062
210,16,0.5,0.125,35.0,1,1.0,0.35350100000005114
211,16,0.5,1.0,-35.0,-1,1.0,0.24920099999997092
212,16,0.5,0.25,-35.0,-1,1.0,0.45810100000005605
213,16,0.5,0.125,35.0,1,1.0,0.5533009999999194
214,16,0.5,0.125,35.0,1,1.0,0.3401010000000042
215,16,0.5,0.125,35.0,1,1.0,0.3307009999999764
216,16,0.5,0.25,-35.0,-1,1.0,0.2659009999999853
217,16,0.5,0.25,35.0,1,1.0,0.2254010000000335
218,16,0.5,0.25,35.0,1,1.0,0.2660009999999602
219,16,0.5,0.25,35.0,1,1.0,0.17390100000000075
220,16,0.5,0.0625,-35.0,-1,1.0,0.6126010000000406
221,16,0.5,0.125,-35.0,-1,1.0,0.3640010000000302
222,16,0.5,0.0,-35.0,-1,1.0,0.4371009999999842
223,16,0.5,0.0,-35.0,1,0.0,4.876801
224,16,0.6,0.0,35.0,1,1.0,1.129901000000018
225,16,0.5,1.0,35.0,1,1.0,0.2792010000000573
226,16,0.5,0.125,-35.0,-1,1.0,0.2232010000000173
227,16,0.5,0.25,-35.0,-1,1.0,0.5349009999999907
228,16,0.5,1.0,35.0,1,1.0,0.24670100000003004
229,16,0.5,0.0,35.0,-1,0.0,2.724601000000007
230,16,0.5,0.0625,35.0,1,1.0,0.2914009999999507
231,16,0.5,1.0,35.0,1,1.0,0.22300099999995382
232,16,0.5,0.0625,35.0,-1,0.0,0.3607009999999491
233,16,0.5,0.125,35.0,1,1.0,0.24600099999997838
234,16,0.5,1.0,-35.0,-1,1.0,0.4475009999999884
235,16,0.5,0.25,-35.0,-1,1.0,0.7714010000000826
236,16,0.5,0.25,-35.0,-1,1.0,0.42790100000001985
237,16,0.5,1.0,-35.0,-1,1.0,0.28910099999995964
238,16,0.5,1.0,35.0,1,1.0,0.42000099999995655
239,16,0.5,0.25,-35.0,-1,1.0,0.31350099999997383
240,16,0.5,0.125,35.0,1,1.0,0.4044010000000071
241,16,0.5,0.25,35.0,1,1.0,3.0052009999999427
242,16,0.5,0.25,35.0,1,1.0,0.5561009999998987
243,16,0.5,1.0,35.0,1,1.0,0.3163010000000668
244,16,0.5,1.0,-35.0,-1,1.0,0.3056010000000242
245,16,0.5,1.0,-35.0,-1,1.0,0.44610099999988506
246,16,0.5,0.25,-35.0,-1,1.0,0.2721010000000206
247,16,0.5,0.125,-35.0,-1,1.0,0.3766010000000506
248,16,0.5,0.25,35.0,1,1.0,0.2753010000001268
249,16,0.5,0.125,-35.0,-1,1.0,0.34930099999996855
250,16,0.5,0.125,-35.0,-1,1.0,0.5185010000000148
251,16,0.5,0.25,35.0,1,1.0,0.2579010000000608
252,16,0.5,1.0,-35.0,-1,1.0,0.2782009999999673
253,16,0.5,0.125,-35.0,-1,1.0,0.20560100000000148
254,16,0.5,0.0625,-35.0,-1,1.0,0.4087010000000646
255,16,0.5,0.125,35.0,1,1.0,0.5650009999999384
256,16,0.5,0.0625,-35.0,-1,1.0,0.2613010000000031
257,16,0.5,0.25,-35.0,-1,1.0,0.6472009999999955
258,16,0.5,0.0625,-35.0,-1,1.0,0.40210100000001603
259,16,0.5,1.0,35.0,1,1.0,0.2734010000000353
260,16,0.5,0.25,-35.0,-1,1.0,0.10750099999995655
261,16,0.5,0.0625,35.0,1,1.0,0.7440010000000257
262,16,0.5,0.25,-35.0,-1,1.0,0.32750099999998383
263,16,0.5,0.0,-35.0,-1,1.0,0.5141010000000961
264,16,0.5,0.0625,35.0,1,1.0,0.5296010000000706
265,16,0.5,0.0,-35.0,-1,1.0,0.6930009999999811
266,16,0.5,0.25,-35.0,-1,1.0,0.5701010000000224
267,16,0.5,0.0625,35.0,1,1.0,0.46810100000004695
268,16,0.5,1.0,-35.0,-1,1.0,0.25470099999995455
269,16,0.5,0.0625,-35.0,-1,1.0,0.3240009999999529
270,16,0.5,0.25,-35.0,-1,1.0,0.22450100000003204
271,16,0.5,1.0,-35.0,-1,1.0,0.45030099999996764
272,16,0.5,0.0,-35.0,-1,1.0,0.16190099999994345
273,16,0.5,0.25,-35.0,-1,1.0,0.32750099999998383
274,16,0.5,1.0,35.0,1,1.0,0.285301000000004
275,16,0.5,0.25,-35.0,-1,1.0,0.18430100000000493
276,16,0.5,0.25,35.0,1,1.0,0.28680099999996855
277,16,0.5,0.0625,-35.0,-1,1.0,2.9688010000000986
278,16,0.5,0.0625,-35.0,-1,1.0,2.2514009999998734
279,16,0.5,0.125,35.0,1,1.0,1.269001000000003
280,16,0.5,0.125,35.0,-1,0.0,0.09320100000002185
281,16,0.5,0.25,35.0,1,1.0,0.26660100000003695
282,16,0.5,0.25,-35.0,-1,1.0,0.25650100000007114
283,16,0.5,1.0,35.0,1,1.0,0.28330099999993763
284,16,0.5,0.25,35.0,1,1.0,0.2702009999999291
285,16,0.5,0.0,-35.0,1,0.0,0.48040099999991526
286,16,0.5,0.0,-35.0,-1,1.0,0.476900999999998
287,16,0.5,0.0625,35.0,-1,0.0,0.22010100000011334
288,16,0.5,0.25,35.0,1,1.0,0.3110010000002603
289,16,0.5,0.0625,-35.0,1,0.0,1.3004010000001927
290,16,0.5,0.0625,35.0,-1,0.0,0.3640010000001439
291,16,0.5,0.25,-35.0,-1,1.0,0.6541010000003098
292,16,0.5,0.0,35.0,1,1.0,2.151000999999951
293,16,0.5,0.25,-35.0,-1,1.0,0.3516010000000733
294,16,0.5,0.125,35.0,1,1.0,0.7775010000002567
295,16,0.5,0.25,35.0,1,1.0,0.3745010000000093
296,16,0.5,0.0625,35.0,1,1.0,4.048401000000013
297,16,0.5,0.25,-35.0,-1,1.0,0.28830100000027414
298,16,0.5,0.125,-35.0,-1,1.0,0.27810100000010607
299,16,0.5,0.125,35.0,1,1.0,0.36180100000001403
300,16,0.5,0.25,35.0,-1,0.0,0.2515010000001894
301,16,0.5,0.125,35.0,1,1.0,0.3517010000000482
302,16,0.5,0.0625,35.0,-1,0.0,1.5918010000002596
303,16,0.5,0.0,-35.0,1,0.0,1.582000999999991
304,16,0.5,0.125,35.0,1,1.0,0.39570099999991726
305,16,0.5,0.25,35.0,1,1.0,0.3988010000000486
306,16,0.5,0.25,-35.0,-1,1.0,0.35900100000026214
307,16,0.5,0.0625,35.0,-1,0.0,3.91900099999998
308,16,0.5,0.125,-35.0,-1,1.0,0.3291009999998096
309,16,0.5,0.0625,-35.0,-1,1.0,0.2592010000000755
310,16,0.5,0.0,35.0,-1,0.0,2.4794010000000526
311,16,0.5,0.0,35.0,-1,0.0,0.42620099999999184
312,16,0.3,0.0,35.0,-1,0.0,1.1199010000000271
313,16,0.5,1.0,35.0,1,1.0,0.3940010000001166
314,16,0.5,0.0625,35.0,-1,0.0,0.47650100000009843
315,16,0.5,0.0,-35.0,-1,1.0,0.5599010000000817
316,16,0.5,0.0625,35.0,1,1.0,0.40370100000018283
317,16,0.5,1.0,-35.0,-1,1.0,0.07090100000027633
318,16,0.5,0.0625,-35.0,-1,1.0,0.3101010000000315
319,16,0.5,1.0,-35.0,-1,1.0,0.27680099999997765
320,16,0.5,1.0,-35.0,-1,1.0,0.27370100000030106
321,16,0.5,1.0,35.0,1,1.0,0.22360100000014427
322,16,0.5,0.125,35.0,1,1.0,0.434601000000157
323,16,0.5,0.125,35.0,1,1.0,0.34100100000000566
324,16,0.5,0.0,35.0,-1,0.0,0.4407010000002174
325,16,0.4,0.0,-35.0,1,0.0,1.7210010000001148
326,16,0.5,1.0,35.0,1,1.0,0.2477010000000064
327,16,0.5,1.0,-35.0,-1,1.0,0.20780100000001767
328,16,0.5,0.125,-35.0,-1,1.0,0.37160100000005514
329,16,0.5,1.0,35.0,1,1.0,0.24800099999993108
330,16,0.5,0.25,-35.0,-1,1.0,0.2712010000002465
331,16,0.5,0.0625,-35.0,-1,1.0,0.4313010000000759
332,16,0.5,0.0,35.0,-1,0.0,0.3181010000000697
333,16,0.5,0.125,35.0,1,1.0,1.385001000000102
334,16,0.5,0.0625,-35.0,-1,1.0,0.061701000000084605
335,16,0.5,0.0625,35.0,1,1.0,0.5083009999998467
336,16,0.5,0.0625,35.0,-1,0.0,0.48170100000038474
337,16,0.3,0.0625,-35.0,-1,1.0,0.5820009999999911
338,16,0.5,1.0,-35.0,-1,1.0,0.10190099999999802
339,16,0.5,0.125,35.0,1,1.0,0.31230100000016137
340,16,0.5,0.25,-35.0,-1,1.0,0.20560100000034254
341,16,0.5,0.25,35.0,1,1.0,0.29900099999986196
342,16,0.5,0.25,-35.0,-1,1.0,0.3456010000002152
343,16,0.5,0.25,35.0,-1,0.0,0.20920100000034836
344,16,0.5,0.25,35.0,1,1.0,0.40910100000019156
345,16,0.5,0.125,-35.0,-1,1.0,2.992501000000175
346,16,0.5,0.0,-35.0,-1,1.0,3.2028010000003633
347,16,0.5,1.0,-35.0,-1,1.0,0.27640100000030543
348,16,0.5,0.125,35.0,1,1.0,0.3833009999998467
349,16,0.5,0.0,-35.0,-1,1.0,0.0032009999999900174
350,16,0.5,0.25,35.0,-1,0.0,0.08990100000005441
351,16,0.5,0.25,-35.0,-1,1.0,0.5540010000001985
352,16,0.5,0.0,35.0,1,1.0,1.4072009999999864
353,16,0.5,1.0,-35.0,-1,1.0,0.4005010000000766
354,16,0.5,1.0,35.0,1,1.0,0.2668010000002141
355,16,0.5,0.125,35.0,1,1.0,0.6404010000001108
356,16,0.5,0.0625,35.0,-1,0.0,0.25040100000001075
357,16,0.5,0.25,-35.0,-1,1.0,0.3345010000000457
358,16,0.5,0.0,35.0,-1,0.0,2.4574009999998907
359,16,0.5,0.125,35.0,1,1.0,0.4745010000001457
360,16,0.5,1.0,35.0,1,1.0,0.23760100000004059
361,16,0.5,0.0625,-35.0,-1,1.0,0.10790100000008351
362,16,0.5,0.25,35.0,1,1.0,0.3015010000001439
363,16,0.5,0.125,-35.0,-1,1.0,0.2612010000002556
364,16,0.5,0.25,-35.0,-1,1.0,0.2815010000001621
365,16,0.5,1.0,-35.0,-1,1.0,0.25800100000014936
366,16,0.5,0.25,35.0,1,1.0,0.39800100000002203
367,16,0.5,1.0,35.0,1,1.0,0.2981009999998605
368,16,0.5,0.0,35.0,-1,0.0,0.5615010000001348
369,16,0.5,0.125,-35.0,-1,1.0,0.4285010000000966
370,16,0.5,1.0,-35.0,-1,1.0,0.3620010000001912
371,16,0.5,0.25,35.0,1,1.0,0.5288010000001577
372,16,0.5,1.0,35.0,1,1.0,0.2921010000000024
373,16,0.5,0.25,35.0,1,1.0,0.5153010000001359
374,16,0.5,0.0625,35.0,1,1.0,0.4288010000002487
375,16,0.5,0.25,-35.0,-1,1.0,0.2657010000000355
376,16,0.5,0.0,35.0,-1,0.0,0.20900099999994382
377,16,0.5,0.0,35.0,-1,0.0,0.4122010000000955
378,16,0.5,1.0,35.0,1,1.0,0.25570100000027196
379,16,0.5,0.0625,-35.0,1,0.0,1.682801000000154
380,16,0.5,0.0625,35.0,1,1.0,0.3860010000003058
381,16,0.5,0.125,35.0,1,1.0,0.053201000000171916
382,16,0.5,0.25,-35.0,-1,1.0,0.35280100000022685
383,16,0.5,0.125,-35.0,-1,1.0,0.5098010000001523
384,16,0.5,0.0625,35.0,-1,0.0,0.0837010000002465
385,16,0.5,0.0,35.0,1,1.0,1.3868010000003324
386,16,0.5,1.0,35.0,1,1.0,0.26650100000006205
387,16,0.5,0.125,35.0,1,1.0,0.34050100000013117
388,16,0.5,0.25,35.0,1,1.0,0.16020099999991544
389,16,0.5,0.0,-35.0,1,0.0,0.22050100000001294
390,16,0.5,0.0625,35.0,-1,0.0,1.003601000000117
391,16,0.5,0.125,35.0,-1,0.0,0.43720100000018647
392,16,0.5,0.125,35.0,1,1.0,0.48040100000002894
393,16,0.5,0.25,35.0,1,1.0,0.24400100000025304
394,16,0.5,0.125,35.0,1,1.0,0.3573010000002341
395,16,0.5,1.0,-35.0,-1,1.0,0.22750100000007478
396,16,0.5,0.0625,35.0,1,1.0,0.30470100000002276
397,16,0.5,0.0,35.0,-1,0.0,0.0981010000000424
398,16,0.5,0.0625,35.0,1,1.0,0.3077010000001792
399,16,0.5,0.125,-35.0,-1,1.0,0.5677010000001701
400,16,0.5,0.125,35.0,1,1.0,0.3446010000000115
401,16,0.5,1.0,35.0,1,1.0,0.298001000000113
402,16,0.5,0.125,35.0,1,1.0,0.32500100000015664
403,16,0.5,1.0,-35.0,-1,1.0,0.40810099999998783
404,16,0.5,1.0,35.0,1,1.0,0.28850099999999657
405,16,0.5,0.25,-35.0,-1,1.0,0.2451010000002043
406,16,0.5,0.25,35.0,1,1.0,0.6521009999999023
407,16,0.5,0.125,-35.0,-1,1.0,0.2753010000003542
408,16,0.5,0.125,-35.0,-1,1.0,0.038600999999971464
409,16,0.5,0.0625,35.0,-1,0.0,0.6219009999999798
410,16,0.5,0.0,-35.0,1,0.0,0.788801000000376
411,16,0.5,0.125,35.0,1,1.0,0.40570100000013554
412,16,0.5,0.25,35.0,1,1.0,0.7091010000001461
413,16,0.5,0.125,35.0,1,1.0,3.049400999999989
414,16,0.5,1.0,35.0,1,1.0,0.30930100000000493
415,16,0.5,1.0,-35.0,-1,1.0,0.2933010000001559
416,16,0.5,0.0,-35.0,-1,1.0,4.539500999999973
417,16,0.5,0.125,35.0,-1,0.0,1.5197010000001683
418,16,0.5,0.125,35.0,1,1.0,0.4265010000001439
419,16,0.5,1.0,35.0,1,1.0,0.29670099999998456
420,16,0.5,0.0625,-35.0,-1,1.0,0.2735010000001239
421,16,0.5,0.25,-35.0,-1,1.0,0.14670100000012098
422,16,0.5,1.0,35.0,1,1.0,0.25030100000026323
423,16,0.5,0.125,35.0,-1,0.0,0.3904010000001108
424,16,0.5,0.0,35.0,-1,0.0,0.6007010000002992
425,16,0.3,0.0,-35.0,-1,1.0,0.27440100000012535
426,16,0.5,1.0,-35.0,-1,1.0,0.28410100000019156
427,16,0.5,0.0625,35.0,1,1.0,0.5843010000000959
428,16,0.5,0.0,35.0,-1,0.0,0.7141010000002552
429,16,0.5,0.125,35.0,1,1.0,2.384600999999975
430,16,0.5,0.25,35.0,1,1.0,0.5612009999999827
431,16,0.5,1.0,-35.0,-1,1.0,0.2313010000000304
432,16,0.5,0.0625,35.0,-1,0.0,0.28480100000001585
433,16,0.5,0.25,-35.0,-1,1.0,0.5947009999999864
434,16,0.5,0.0625,35.0,1,1.0,0.9180010000002312
435,16,0.5,0.0625,-35.0,-1,1.0,0.4612010000000737
436,16,0.5,1.0,35.0,1,1.0,0.24460100000010243
437,16,0.5,0.125,35.0,-1,0.0,0.02510100000017701
438,16,0.4,0.125,35.0,1,1.0,0.41180099999996855
439,16,0.5,1.0,35.0,1,1.0,0.24500100000000202
440,16,0.5,0.125,35.0,1,1.0,0.401801000000205
441,16,0.5,0.25,-35.0,-1,1.0,0.46860100000003513
442,16,0.5,0.25,-35.0,-1,1.0,0.4720010000003185
443,16,0.5,0.25,35.0,1,1.0,0.27540099999987433
444,16,0.5,1.0,35.0,1,1.0,0.1954009999999471
445,16,0.5,0.0625,35.0,-1,0.0,0.22940100000027996
446,16,0.6,0.0625,-35.0,-1,1.0,0.4491010000001552
447,16,0.5,1.0,-35.0,-1,1.0,0.7824010000001635
448,16,0.5,0.0625,35.0,-1,0.0,0.6258010000001377
449,16,0.5,0.125,35.0,1,1.0,3.6325010000000475
450,16,0.5,0.0625,-35.0,-1,1.0,0.48970100000019556
451,16,0.5,0.125,-35.0,-1,1.0,0.3199010000000726
452,16,0.5,0.125,-35.0,-1,1.0,0.4205010000000584
453,16,0.5,1.0,35.0,1,1.0,0.2869010000001708
454,16,0.5,0.0625,-35.0,-1,1.0,0.9498009999999795
455,16,0.5,0.25,-35.0,-1,1.0,0.31340099999988524
456,16,0.5,0.125,35.0,1,1.0,0.739900999999918
457,16,0.5,1.0,-35.0,-1,1.0,0.3365009999999984
458,16,0.5,1.0,35.0,1,1.0,0.28660100000001876
459,16,0.5,0.25,35.0,1,1.0,0.34340099999985796
460,16,0.5,1.0,-35.0,-1,1.0,0.34690100000011626
461,16,0.5,0.0,35.0,1,1.0,0.5970010000000912
462,16,0.5,1.0,35.0,1,1.0,0.25400100000024395
463,16,0.5,1.0,-35.0,-1,1.0,0.23440100000016173
464,16,0.5,0.125,35.0,1,1.0,0.47410100000001876
465,16,0.5,1.0,-35.0,-1,1.0,0.3739010000003873
466,16,0.5,0.125,35.0,-1,0.0,0.2774010000000544
467,16,0.5,0.25,35.0,1,1.0,0.33100100000024213
468,16,0.5,0.0625,-35.0,1,0.0,0.9944010000001526
469,16,0.5,0.0625,35.0,1,1.0,0.3878010000003087
470,16,0.5,0.125,-35.0,-1,1.0,0.4612010000000737
471,16,0.5,0.125,35.0,-1,0.0,0.5681010000000697
472,16,0.5,0.125,-35.0,-1,1.0,1.2950009999999565
473,16,0.5,0.25,35.0,1,1.0,0.31140099999993254
474,16,0.5,1.0,35.0,1,1.0,0.27490099999999984
475,16,0.5,0.0,-35.0,-1,1.0,2.4814010000002327
476,16,0.5,1.0,35.0,1,1.0,0.388501000000133
477,16,0.5,0.125,35.0,-1,0.0,0.47180100000014136
478,16,0.5,0.125,35.0,1,1.0,3.868601000000126
479,16,0.5,0.0625,35.0,-1,0.0,0.22870100000000093
480,16,0.5,0.125,35.0,1,1.0,0.6426010000000133
481,16,0.5,0.0625,-35.0,-1,1.0,3.9922010000000228
482,16,0.5,1.0,-35.0,-1,1.0,0.25600100000019665
483,16,0.5,0.125,35.0,1,1.0,2.8558009999999285
484,16,0.5,0.25,-35.0,-1,1.0,0.3000010000000657
485,16,0.5,0.0625,35.0,-1,0.0,0.7663010000001123
486,16,0.4,0.0625,35.0,-1,0.0,0.4829010000000835
487,16,0.5,1.0,35.0,1,1.0,0.31030100000020866
488,16,0.5,1.0,-35.0,-1,1.0,0.7100010000001475
489,16,0.5,0.0,-35.0,-1,1.0,2.99690099999998
490,16,0.5,0.0,-35.0,-1,1.0,1.510501000000204
491,16,0.5,0.125,-35.0,-1,1.0,0.5269009999999525
492,16,0.5,1.0,-35.0,-1,1.0,0.4370010000000093
493,16,0.5,0.25,-35.0,-1,1.0,2.230601000000206
494,16,0.5,1.0,-35.0,-1,1.0,0.034200999999939086
495,16,0.5,1.0,35.0,1,1.0,0.2637010000000828
496,16,0.5,0.125,35.0,1,1.0,0.3543009999998503
497,16,0.5,0.125,35.0,-1,0.0,0.4307010000002265
498,16,0.5,0.0625,-35.0,-1,1.0,0.9774010000003273
499,16,0.5,0.125,35.0,-1,0.0,3.9043010000002596
500,16,0.5,0.125,-35.0,-1,1.0,0.5814010000001417
501,16,0.5,0.0625,35.0,-1,0.0,3.1314010000000962
502,16,0.5,0.25,-35.0,-1,1.0,0.37820099999999
503,16,0.5,0.125,-35.0,-1,1.0,0.4351010000000315
504,16,0.5,1.0,35.0,1,1.0,0.3283010000000104
505,16,0.5,1.0,35.0,1,1.0,0.2615010000001803
506,16,0.5,1.0,-35.0,-1,1.0,0.2617010000001301
507,16,0.5,1.0,-35.0,-1,1.0,0.45830100000011953
508,16,0.5,0.125,35.0,1,1.0,0.3019010000000435
509,16,0.5,0.125,-35.0,1,0.0,1.8853010000002541
510,16,0.5,0.0625,-35.0,-1,1.0,0.8827009999999973
511,16,0.5,0.125,35.0,-1,0.0,0.5355010000000675
512,16,0.5,0.125,-35.0,-1,1.0,0.4391010000001643
513,16,0.5,0.0625,-35.0,1,0.0,2.042400999999927
514,16,0.5,0.0,-35.0,-1,1.0,3.6828010000003815
515,16,0.5,0.125,-35.0,-1,1.0,2.33940100000018
516,16,0.5,0.25,-35.0,1,0.0,6.072801000000027
517,16,0.5,0.0625,35.0,-1,0.0,1.3569010000001072
518,16,0.5,0.0625,35.0,-1,0.0,0.5799010000002909
519,16,0.5,0.125,35.0,-1,0.0,1.2732010000001992
520,16,0.5,0.125,35.0,-1,0.0,4.050100999999813
521,16,0.5,0.25,-35.0,-1,1.0,0.5140010000002349
522,16,0.5,0.0625,-35.0,-1,1.0,1.9473010000001523
523,16,0.5,1.0,-35.0,-1,1.0,0.4209010000001854
524,16,0.5,0.25,-35.0,-1,1.0,1.9276010000000952
525,16,0.5,1.0,-35.0,-1,1.0,0.2409010000001217
526,16,0.5,0.0,-35.0,-1,1.0,0.5942010000001119
527,16,0.5,0.25,35.0,1,1.0,0.30440100000009807
528,16,0.5,0.0,-35.0,-1,1.0,0.16450099999997292
529,16,0.5,0.25,-35.0,-1,1.0,0.16470100000037746
530,16,0.5,0.25,-35.0,-1,1.0,0.39120099999991
531,16,0.5,0.0625,35.0,-1,0.0,3.401301000000103
532,16,0.1,0.0625,35.0,-1,0.0,2.738601000000017
533,16,0.5,1.0,35.0,1,1.0,0.3749009999999089
534,16,0.5,1.0,35.0,1,1.0,0.3015010000001439
535,16,0.5,1.0,-35.0,-1,1.0,0.2918010000000777
536,16,0.5,0.0,35.0,1,1.0,0.33870100000012826
537,16,0.5,1.0,-35.0,-1,1.0,0.17880100000024868
538,16,0.5,0.0625,-35.0,-1,1.0,0.29240100000015445
539,16,0.5,1.0,35.0,1,1.0,0.28900100000009843
540,16,0.5,1.0,-35.0,-1,1.0,0.2655010000000857
541,16,0.5,0.125,-35.0,-1,1.0,0.4227010000001883
542,16,0.5,1.0,-35.0,-1,1.0,0.2858009999999922
543,16,0.5,1.0,35.0,1,1.0,0.23910100000034618
544,16,0.5,0.125,35.0,1,1.0,0.3964010000001963
545,16,0.5,0.125,-35.0,-1,1.0,0.3527010000000246
546,16,0.5,1.0,35.0,-1,0.0,3.946101000000226
547,16,0.5,0.125,-35.0,-1,1.0,11.243901000000278
548,16,0.5,0.0625,-35.0,1,0.0,5.604800999999952
549,16,0.4,0.0625,35.0,1,1.0,9.267800999999508
550,16,0.5,1.0,-35.0,-1,1.0,0.9316010000002279
551,16,0.5,0.125,35.0,-1,0.0,9.335700999999972
552,16,0.4,0.125,35.0,-1,0.0,8.428601000000072
553,16,0.5,1.0,-35.0,-1,1.0,0.9431009999998423
554,16,0.5,0.0625,35.0,1,1.0,12.406401000000187
555,16,0.5,0.25,35.0,1,1.0,9.10680100000036
556,16,0.5,1.0,35.0,1,1.0,7.080501000000368
557,16,0.5,0.125,-35.0,-1,1.0,1.9675010000000839
558,16,0.5,1.0,-35.0,-1,1.0,4.394201000000066
559,16,0.5,0.0625,-35.0,-1,1.0,12.561200999999983
560,16,0.5,1.0,-35.0,-1,1.0,0.4648010000000795
561,16,0.5,0.25,35.0,-1,0.0,2.1383010000004106
562,16,0.5,0.125,-35.0,-1,1.0,0.42170100000021193
563,16,0.5,0.0625,35.0,-1,0.0,3.3252010000001064
564,16,0.5,0.25,35.0,1,1.0,0.2854010000000926
565,16,0.5,0.25,35.0,1,1.0,2.3687010000003283
566,16,0.5,0.125,-35.0,-1,1.0,1.5455010000005132
567,16,0.5,0.25,-35.0,-1,1.0,0.8558009999997012
568,16,0.5,1.0,35.0,1,1.0,0.23920099999986633
569,16,0.5,0.125,35.0,-1,0.0,1.2392009999998663
570,16,0.5,0.25,-35.0,-1,1.0,2.855901000000358
571,16,0.5,0.0625,35.0,-1,0.0,2.0163010000001123
1,17,0.5,0.0625,35.0,-1,0.0,4.2731
2,17,0.5,0.25,-35.0,-1,1.0,0.8397000000000006
3,17,0.5,0.125,-35.0,-1,1.0,4.059500000000002
4,17,0.5,1.0,-35.0,-1,1.0,0.05590000000000117
5,17,0.5,1.0,35.0,1,1.0,0.3049999999999997
6,17,0.5,0.125,35.0,-1,0.0,4.657399999999999
7,17,0.5,0.25,35.0,1,1.0,0.4014000000000024
8,17,0.5,0.0,35.0,-1,0.0,3.5475000000000065
9,17,0.5,0.125,-35.0,-1,1.0,0.8838000000000008
10,17,0.5,1.0,-35.0,-1,1.0,0.31170000000000186
11,17,0.5,0.0625,35.0,1,1.0,0.47510000000000474
12,17,0.5,0.0625,-35.0,-1,1.0,1.7832000000000008
13,17,0.5,0.0625,35.0,1,1.0,0.8922000000000097
14,17,0.5,1.0,-35.0,-1,1.0,0.5021000000000129
15,17,0.5,0.25,-35.0,-1,1.0,2.362000000000009
16,17,0.5,0.125,35.0,1,1.0,0.3521000000000072
17,17,0.5,0.25,35.0,1,1.0,0.3277999999999963
18,17,0.5,0.125,-35.0,-1,1.0,2.6411999999999978
19,17,0.5,0.0625,35.0,1,1.0,0.5525990000000007
20,17,0.5,0.125,-35.0,-1,1.0,0.42019999999999413
21,17,0.5,0.125,-35.0,-1,1.0,0.38630000000000564
22,17,0.5,1.0,35.0,1,1.0,0.2886000000000024
23,17,0.5,0.0625,35.0,1,1.0,2.707400000000007
24,17,0.5,0.25,35.0,1,1.0,0.36369999999999436
25,17,0.5,0.125,-35.0,-1,1.0,0.5952999999999946
26,17,0.5,1.0,35.0,1,1.0,0.2533000000000101
27,17,0.5,1.0,35.0,1,1.0,0.23040000000000305
28,17,0.5,0.0625,35.0,1,1.0,1.081000000000003
29,17,0.5,1.0,-35.0,-1,1.0,0.3383000000000038
30,17,0.5,1.0,-35.0,-1,1.0,0.3277000000000072
31,17,0.5,0.125,35.0,1,1.0,0.32220000000000937
32,17,0.5,0.25,-35.0,1,0.0,0.354801000000009
33,17,0.5,0.25,-35.0,-1,1.0,0.39130099999999857
34,17,0.5,0.25,35.0,1,1.0,0.2829009999999812
35,17,0.5,0.125,-35.0,-1,1.0,0.39410100000000625
36,17,0.5,0.0625,-35.0,-1,1.0,0.21130099999999175
37,17,0.5,0.0625,35.0,1,1.0,0.3325009999999793
38,17,0.5,0.25,35.0,1,1.0,0.3627010000000155
39,17,0.5,0.125,35.0,1,1.0,0.3821010000000058
40,17,0.5,1.0,35.0,1,1.0,0.27910099999999716
41,17,0.5,0.25,-35.0,-1,1.0,0.5562010000000157
42,17,0.5,1.0,-35.0,-1,1.0,0.5444999999999993
43,17,0.5,0.0,-35.0,1,0.0,1.0780010000000004
44,17,0.5,0.125,-35.0,-1,1.0,1.8673009999999692
45,17,0.5,0.0625,35.0,-1,0.0,2.2954010000000267
46,17,0.5,0.0625,-35.0,1,0.0,0.4067009999999698
47,17,0.5,1.0,35.0,1,1.0,0.2518010000000004
48,17,0.5,1.0,35.0,1,1.0,0.311901000000006
49,17,0.5,1.0,35.0,1,1.0,0.25030100000000743
50,17,0.5,1.0,-35.0,-1,1.0,0.48980099999999993
51,17,0.5,0.0625,-35.0,1,0.0,2.731000999999992
52,17,0.5,0.25,35.0,1,1.0,0.30610099999998397
53,17,0.5,0.125,-35.0,-1,1.0,0.3365009999999984
54,17,0.5,0.25,-35.0,-1,1.0,0.44610099999999875
55,17,0.5,1.0,35.0,1,1.0,0.2618010000000197
56,17,0.5,0.0,35.0,-1,0.0,0.253501
57,17,0.5,0.125,-35.0,-1,1.0,1.6387009999999975
58,17,0.5,1.0,-35.0,-1,1.0,0.28080100000002517
59,17,0.5,0.25,35.0,1,1.0,0.6151009999999815
60,17,0.5,0.25,-35.0,-1,1.0,0.5148009999999772
61,17,0.5,1.0,-35.0,-1,1.0,0.47190099999997415
62,17,0.5,0.0625,35.0,-1,0.0,2.2100010000000054
63,17,0.2,0.0625,35.0,1,1.0,0.7153010000000108
64,17,0.5,1.0,35.0,1,1.0,0.28370100000000775
65,17,0.5,0.0625,-35.0,1,0.0,2.4992009999999993
66,17,0.5,0.0,35.0,1,1.0,0.7654009999999971
67,17,0.5,1.0,-35.0,-1,1.0,0.3389009999999928
68,17,0.5,0.0625,35.0,1,1.0,0.782701000000003
69,17,0.5,0.25,35.0,1,1.0,0.2699010000000044
70,17,0.5,0.25,35.0,1,1.0,0.2771009999999876
71,17,0.5,0.0625,-35.0,1,0.0,0.40170100000000275
72,17,0.8,0.0625,35.0,1,1.0,0.5650009999999952
73,17,0.5,1.0,-35.0,-1,1.0,0.2841009999999642
74,17,0.5,0.0625,35.0,1,1.0,0.2939010000000053
75,17,0.5,1.0,-35.0,-1,1.0,0.28300100000001294
76,17,0.5,0.25,35.0,1,1.0,0.21880099999998492
77,17,0.5,0.0625,-35.0,-1,1.0,1.1466010000000324
78,17,0.5,1.0,35.0,1,1.0,0.3165010000000166
79,17,0.5,1.0,35.0,1,1.0,0.22900099999998247
80,17,0.5,0.125,35.0,1,1.0,0.44960099999997283
81,17,0.5,0.125,-35.0,1,0.0,0.9952010000000087
82,17,0.5,0.125,-35.0,-1,1.0,0.41060099999998556
83,17,0.5,1.0,35.0,1,1.0,0.23460099999999784
84,17,0.5,1.0,35.0,1,1.0,0.21990099999999302
85,17,0.5,0.0,-35.0,-1,1.0,0.4579010000000494
86,17,0.5,0.25,-35.0,-1,1.0,0.1788010000000213
87,17,0.5,0.25,35.0,1,1.0,0.23650099999997565
88,17,0.5,0.0625,-35.0,-1,1.0,0.5215009999999438
89,17,0.5,0.125,-35.0,-1,1.0,0.6017009999999914
90,17,0.5,0.25,35.0,1,1.0,0.2700009999999793
91,17,0.5,0.0,-35.0,-1,1.0,0.47010099999999966
92,17,0.5,0.25,-35.0,-1,1.0,0.4999010000000226
93,17,0.5,1.0,-35.0,-1,1.0,0.307501000000002
94,17,0.5,0.0,-35.0,-1,1.0,0.8090010000000234
95,17,0.5,0.25,-35.0,-1,1.0,0.5283009999999422
96,17,0.5,0.25,-35.0,-1,1.0,0.7143010000000345
97,17,0.5,0.0625,-35.0,-1,1.0,0.45470100000005687
98,17,0.5,0.0625,35.0,-1,0.0,0.30060100000002876
99,17,0.5,0.125,35.0,1,1.0,0.3195010000000025
100,17,0.5,1.0,-35.0,-1,1.0,0.24700100000001157
101,17,0.5,0.0625,-35.0,-1,1.0,0.9818010000000186
102,17,0.5,0.25,35.0,1,1.0,0.3465009999999893
103,17,0.5,1.0,35.0,1,1.0,0.2917009999999891
104,17,0.5,0.125,-35.0,-1,1.0,2.2078010000000177
105,17,0.5,0.125,35.0,1,1.0,0.3612009999999941
106,17,0.5,0.125,-35.0,-1,1.0,0.16620100000000093
107,17,0.5,0.125,-35.0,-1,1.0,0.511400999999978
108,17,0.5,0.25,35.0,-1,0.0,0.5316010000000233
109,17,0.5,0.25,-35.0,-1,1.0,0.4633010000000013
110,17,0.5,0.125,35.0,1,1.0,0.3173009999999863
111,17,0.5,1.0,-35.0,-1,1.0,0.3134009999999421
112,17,0.5,0.0625,-35.0,-1,1.0,1.0019010000000321
113,17,0.5,0.0625,-35.0,-1,1.0,0.21150099999999838
114,17,0.5,1.0,35.0,1,1.0,0.2750010000000316
115,17,0.5,0.25,35.0,-1,0.0,0.14810099999999693
116,17,0.5,0.0,-35.0,1,0.0,0.35070100000001503
117,17,0.5,0.0625,-35.0,-1,1.0,1.8015009999999734
118,17,0.5,1.0,-35.0,-1,1.0,0.25730100000004086
119,17,0.5,0.0625,35.0,-1,0.0,2.8935010000000148
120,17,0.5,0.0625,-35.0,-1,1.0,0.33340099999998074
121,17,0.5,0.0625,35.0,-1,0.0,2.150901000000033
122,17,0.5,0.125,35.0,1,1.0,0.41920099999998683
123,17,0.5,1.0,35.0,1,1.0,0.29140100000000757
124,17,0.5,1.0,-35.0,-1,1.0,0.519501000000048
125,17,0.5,0.25,35.0,1,1.0,0.32150100000006887
126,17,0.5,0.0625,-35.0,-1,1.0,0.3458009999999945
127,17,0.5,0.0,35.0,-1,0.0,0.30890099999999165
128,17,0.3,0.0,35.0,-1,0.0,1.1782010000000014
129,17,0.5,1.0,35.0,1,1.0,0.24150100000002794
130,17,0.5,0.125,35.0,1,1.0,0.2956010000000333
131,17,0.5,0.0625,35.0,-1,0.0,0.6949010000000158
132,17,0.5,0.125,35.0,1,1.0,0.2662009999999668
133,17,0.5,0.25,-35.0,-1,1.0,0.32780099999996537
134,17,0.5,0.0625,-35.0,-1,1.0,0.4989009999999894
135,17,0.5,0.125,-35.0,-1,1.0,0.34790100000003576
136,17,0.5,0.25,35.0,-1,0.0,0.34320100000002185
137,17,0.5,0.125,-35.0,-1,1.0,0.5527010000000132
138,17,0.5,0.25,35.0,1,1.0,0.30310099999996964
139,17,0.5,0.0625,35.0,-1,0.0,2.5970009999999775
140,17,0.5,0.0,35.0,-1,0.0,0.5203010000000177
141,17,0.5,0.25,35.0,1,1.0,0.3101010000000315
142,17,0.5,0.125,-35.0,-1,1.0,0.7802010000000337
143,17,0.5,0.0625,-35.0,-1,1.0,2.7506009999999605
144,17,0.5,0.25,35.0,1,1.0,0.29010099999999284
145,17,0.5,0.0,35.0,-1,0.0,9.462601000000006
146,17,0.5,0.0625,-35.0,1,0.0,2.236200999999994
147,17,0.5,0.0625,35.0,-1,0.0,3.261500999999953
148,17,0.4,0.0625,35.0,1,1.0,0.9894010000000435
149,17,0.5,1.0,-35.0,-1,1.0,0.3787009999999782
150,17,0.5,1.0,35.0,1,1.0,0.31910100000004604
151,17,0.5,0.0625,35.0,-1,0.0,2.9000009999999747
152,17,0.5,0.125,35.0,1,1.0,0.7503009999999222
153,17,0.5,0.0625,35.0,-1,0.0,3.550401000000079
154,17,0.5,0.0625,-35.0,-1,1.0,3.861801000000014
155,17,0.5,1.0,35.0,1,1.0,0.2609010000001035
156,17,0.5,0.125,-35.0,-1,1.0,3.962701000000038
157,17,0.5,0.0625,35.0,-1,0.0,0.445500999999922
158,17,0.5,0.0,35.0,1,1.0,4.828400999999985
159,17,0.5,0.125,35.0,-1,0.0,4.97660099999996
160,17,0.4,0.125,-35.0,-1,1.0,7.488201000000004
161,17,0.5,1.0,35.0,1,1.0,0.48050100000011753
162,17,0.5,0.0,-35.0,-1,1.0,3.5507010000000037
163,17,0.5,0.25,-35.0,-1,1.0,5.370600999999965
164,17,0.5,1.0,35.0,1,1.0,0.3200010000000475
165,17,0.5,1.0,-35.0,-1,1.0,0.45780100000001767
166,17,0.5,0.0,-35.0,-1,1.0,4.43560100000002
167,17,0.5,0.125,35.0,1,1.0,5.013400999999931
168,17,0.5,0.0625,35.0,-1,0.0,4.909900999999877
169,17,0.5,0.0625,-35.0,-1,1.0,3.1702009999999063
170,17,0.5,0.25,-35.0,-1,1.0,1.0572009999999636
171,17,0.5,0.25,-35.0,-1,1.0,0.8720009999999547
172,17,0.5,0.0,-35.0,-1,1.0,3.98390100000006
173,17,0.5,0.125,-35.0,-1,1.0,0.3101010000000315
174,17,0.5,1.0,35.0,1,1.0,0.5880009999999629
175,17,0.5,0.25,35.0,1,1.0,0.9590010000000575
176,17,0.5,0.25,-35.0,-1,1.0,5.2148010000000795
177,17,0.5,0.125,35.0,-1,0.0,0.5322009999999864
178,17,0.5,0.25,-35.0,-1,1.0,0.3762010000000373
179,17,0.5,0.25,-35.0,-1,1.0,4.500500999999986
180,17,0.5,0.25,-35.0,-1,1.0,0.3629009999999653
181,17,0.5,0.25,-35.0,-1,1.0,0.2712010000000191
182,17,0.5,1.0,-35.0,-1,1.0,0.2683009999999513
183,17,0.5,0.125,-35.0,-1,1.0,0.7096010000000206
184,17,0.5,0.125,-35.0,-1,1.0,0.29090099999996255
185,17,0.5,0.25,-35.0,-1,1.0,0.5286009999999806
186,17,0.5,0.25,35.0,1,1.0,3.9235009999999875
187,17,0.5,0.25,35.0,1,1.0,0.902101000000016
188,17,0.5,0.125,-35.0,-1,1.0,0.4534009999998716
189,17,0.5,1.0,-35.0,-1,1.0,0.24860100000000784
190,17,0.5,0.0625,35.0,1,1.0,0.4030010000000175
191,17,0.5,1.0,-35.0,-1,1.0,0.26510099999995873
192,17,0.5,0.25,-35.0,-1,1.0,0.24910099999999602
193,17,0.5,0.125,-35.0,-1,1.0,0.2897010000000364
194,17,0.5,1.0,-35.0,-1,1.0,0.1788010000000213
195,17,0.5,0.25,-35.0,-1,1.0,0.4990010000000211
196,17,0.5,0.25,35.0,-1,0.0,0.28700100000003204
197,17,0.5,0.25,35.0,-1,0.0,3.4157010000000128
198,17,0.5,0.25,-35.0,-1,1.0,0.25500099999999293
199,17,0.5,0.25,-35.0,-1,1.0,4.6192009999999755
200,17,0.5,0.25,-35.0,-1,1.0,0.553401000000008
201,17,0.5,1.0,-35.0,-1,1.0,0.46870100000001
202,17,0.5,0.25,-35.0,-1,1.0,0.35490100000004077
203,17,0.5,0.25,35.0,1,1.0,0.46200099999998656
204,17,0.5,0.0625,-35.0,-1,1.0,0.4332010000000537
205,17,0.5,0.125,35.0,-1,0.0,0.6007009999999582
206,17,0.5,0.25,35.0,1,1.0,0.3865010000000666
207,17,0.5,0.0625,35.0,-1,0.0,0.3678010000000995
208,17,0.2,0.0625,-35.0,1,0.0,0.29460099999994327
209,17,0.5,1.0,-35.0,-1,1.0,0.32330100000001494
210,17,0.5,0.0625,-35.0,-1,1.0,0.6085010000000466
211,17,0.5,0.0625,-35.0,-1,1.0,1.6422009999998863
212,17,0.5,0.0,-35.0,-1,1.0,4.475801000000047
213,17,0.5,0.125,-35.0,-1,1.0,0.4253009999999904
214,17,0.5,0.0,-35.0,-1,1.0,1.9936010000000124
215,17,0.5,0.125,35.0,-1,0.0,4.373501000000033
216,17,0.5,0.0625,-35.0,-1,1.0,3.438201000000049
217,17,0.5,0.125,35.0,1,1.0,0.2916010000000142
218,17,0.5,0.125,35.0,1,1.0,0.35380099999997583
219,17,0.5,0.0625,35.0,-1,0.0,4.154000999999994
220,17,0.5,0.25,-35.0,-1,1.0,0.6390010000000075
221,17,0.5,1.0,-35.0,-1,1.0,0.35140099999989616
222,17,0.5,1.0,35.0,1,1.0,0.561001000000033
223,17,0.5,0.0,-35.0,-1,1.0,0.4855009999998856
224,17,0.5,0.125,35.0,-1,0.0,1.152700999999979
225,17,0.3,0.125,-35.0,-1,1.0,4.247701000000006
226,17,0.5,1.0,-35.0,-1,1.0,0.27520099999992453
227,17,0.5,0.0625,-35.0,-1,1.0,1.0242009999999482
228,17,0.5,1.0,-35.0,-1,1.0,0.45420100000001185
229,17,0.5,0.25,35.0,-1,0.0,4.258101000000011
230,17,0.5,0.25,-35.0,-1,1.0,5.155201000000034
231,17,0.5,0.0,35.0,1,1.0,2.257201000000009
232,17,0.5,1.0,-35.0,-1,1.0,0.38930100000004586
233,17,0.5,1.0,35.0,1,1.0,0.2977010000000746
234,17,0.5,0.125,35.0,-1,0.0,0.7143009999999776
235,17,0.5,0.125,-35.0,-1,1.0,1.4860009999999875
236,17,0.5,0.25,-35.0,-1,1.0,5.166601000000128
237,17,0.5,0.0625,-35.0,-1,1.0,0.4772009999999227
238,17,0.5,1.0,-35.0,-1,1.0,0.37350099999991926
239,17,0.5,1.0,35.0,1,1.0,0.29240100000004077
240,17,0.5,0.25,35.0,1,1.0,0.42980099999999766
241,17,0.5,0.25,-35.0,-1,1.0,3.8154009999999516
242,17,0.5,0.0,35.0,-1,0.0,3.094200999999998
243,17,0.5,0.0625,35.0,-1,0.0,4.0170009999999365
244,17,0.5,0.0625,-35.0,1,0.0,3.0075010000000475
245,17,0.5,0.0,-35.0,-1,1.0,0.7228009999998903
246,17,0.5,0.125,-35.0,-1,1.0,0.3397009999999909
247,17,0.5,0.125,35.0,1,1.0,0.41980099999989307
248,17,0.5,0.125,35.0,-1,0.0,3.8796009999999796
249,17,0.5,0.25,-35.0,-1,1.0,0.3870010000000548
250,17,0.5,0.25,35.0,1,1.0,2.3034009999998943
251,17,0.5,0.0,35.0,-1,0.0,0.8034009999998943
252,17,0.3,0.0,35.0,-1,0.0,4.050101000000041
253,17,0.5,1.0,-35.0,-1,1.0,0.380900999999767
254,17,0.5,0.0625,-35.0,-1,1.0,5.69110099999989
255,17,0.5,0.0625,-35.0,-1,1.0,0.07730100000003404
256,17,0.5,1.0,35.0,1,1.0,0.24790099999995618
257,17,0.5,0.25,-35.0,-1,1.0,0.4640009999998256
258,17,0.5,0.0625,-35.0,-1,1.0,0.5376009999997677
259,17,0.5,1.0,35.0,1,1.0,0.237800999999763
260,17,0.5,0.125,-35.0,-1,1.0,0.4914009999999962
261,17,0.5,1.0,35.0,1,1.0,0.2782009999998536
262,17,0.5,0.25,35.0,-1,0.0,0.051200999999991836
263,17,0.5,0.25,-35.0,-1,1.0,0.3381010000000515
264,17,0.5,0.125,-35.0,-1,1.0,1.1616009999997914
265,17,0.5,0.0625,35.0,-1,0.0,0.6449009999998907
266,17,0.5,0.25,35.0,1,1.0,0.3749009999996815
267,17,0.5,1.0,-35.0,-1,1.0,0.4184010000001308
268,17,0.5,0.0625,-35.0,-1,1.0,4.43180099999995
269,17,0.5,0.0625,-35.0,-1,1.0,0.2154009999999289
270,17,0.5,0.0625,-35.0,-1,1.0,2.8122009999997317
271,17,0.5,0.25,35.0,1,1.0,0.6660009999998238
272,17,0.5,0.25,35.0,1,1.0,4.5191010000000915
273,17,0.5,0.125,35.0,1,1.0,0.572601000000077
274,17,0.5,1.0,35.0,1,1.0,0.3096009999999296
275,17,0.5,0.125,-35.0,-1,1.0,0.48280099999988124
276,17,0.5,0.0,35.0,1,1.0,2.8462009999998372
277,17,0.5,0.0,-35.0,1,0.0,2.4428009999999176
278,17,0.5,0.125,35.0,1,1.0,1.06370099999981
279,17,0.5,0.25,35.0,1,1.0,0.35990099999980885
280,17,0.5,0.25,35.0,1,1.0,3.8199009999998452
281,17,0.5,0.125,-35.0,-1,1.0,1.9105009999998401
282,17,0.5,0.0625,35.0,-1,0.0,1.4405010000000402
283,17,0.5,0.0625,35.0,1,1.0,0.5102009999998245
284,17,0.5,0.0625,-35.0,-1,1.0,4.997300999999879
285,17,0.5,0.25,-35.0,-1,1.0,0.38760099999990416
286,17,0.5,0.25,35.0,1,1.0,0.5407010000001264
287,17,0.5,0.0625,35.0,-1,0.0,0.31140099999993254
288,17,0.5,0.0,35.0,-1,0.0,0.4416009999997641
289,17,0.5,0.0,35.0,-1,0.0,2.4612009999998463
290,17,0.5,0.0625,35.0,1,1.0,0.3687009999998736
291,17,0.5,0.0,35.0,1,1.0,2.4786009999997987
292,17,0.5,0.125,35.0,1,1.0,0.2880009999998947
293,17,0.5,0.125,-35.0,-1,1.0,0.4252010000000155
294,17,0.5,0.0,35.0,1,1.0,0.38540100000000166
295,17,0.5,0.0625,-35.0,1,0.0,3.494901000000027
296,17,0.5,0.0625,35.0,1,1.0,0.5424009999999271
297,17,0.5,0.25,-35.0,-1,1.0,0.36540100000001985
298,17,0.5,0.0625,-35.0,-1,1.0,0.5321010000000115
299,17,0.5,0.25,35.0,1,1.0,0.5487009999999373
300,17,0.5,0.25,35.0,1,1.0,0.2960009999999329
301,17,0.5,0.25,35.0,1,1.0,0.2391010000001188
302,17,0.5,1.0,35.0,1,1.0,0.2760009999999511
303,17,0.5,0.0,35.0,-1,0.0,3.955801000000065
304,17,0.5,0.0,-35.0,-1,1.0,2.889300999999932
305,17,0.5,0.25,-35.0,-1,1.0,0.279500999999982
306,17,0.5,0.0,-35.0,-1,1.0,2.7863009999998667
307,17,0.5,0.25,35.0,1,1.0,0.28700099999991835
308,17,0.5,0.0625,-35.0,-1,1.0,0.44980099999997947
309,17,0.5,0.125,-35.0,-1,1.0,0.5501009999998132
310,17,0.5,0.125,-35.0,-1,1.0,0.33360099999981685
311,17,0.5,0.125,-35.0,-1,1.0,5.343300999999883
312,17,0.5,0.25,-35.0,-1,1.0,0.32380099999977574
313,17,0.5,0.0625,-35.0,-1,1.0,0.47050099999978556
314,17,0.5,0.25,-35.0,-1,1.0,0.437300999999934
315,17,0.5,0.125,35.0,1,1.0,3.2406009999999696
316,17,0.5,1.0,-35.0,-1,1.0,0.43400099999985287
317,17,0.5,0.0,-35.0,-1,1.0,0.25420099999996637
318,17,0.5,0.0,-35.0,-1,1.0,0.7510009999998601
319,17,0.5,0.0,35.0,1,1.0,1.4247009999996862
320,17,0.5,0.25,35.0,1,1.0,0.2779009999999289
321,17,0.5,1.0,-35.0,-1,1.0,0.2616009999999278
322,17,0.5,1.0,35.0,1,1.0,0.38790100000005623
323,17,0.5,0.0,-35.0,1,0.0,0.3187009999999191
324,17,0.5,0.25,35.0,1,1.0,0.3181009999998423
325,17,0.5,0.0,-35.0,-1,1.0,1.1046010000000024
326,17,0.5,0.25,35.0,1,1.0,0.2756009999998241
327,17,0.5,1.0,35.0,1,1.0,0.3182009999998172
328,17,0.5,1.0,-35.0,-1,1.0,0.5420010000000275
329,17,0.5,0.0,-35.0,-1,1.0,2.425100999999813
330,17,0.5,1.0,-35.0,-1,1.0,0.25860099999999875
331,17,0.5,1.0,-35.0,-1,1.0,0.24880099999995764
332,17,0.5,0.0,35.0,-1,0.0,1.0222009999999955
333,17,0.5,0.125,-35.0,-1,1.0,0.5820000000001073
334,17,0.5,1.0,-35.0,-1,1.0,0.30550099999982194
335,17,0.5,0.25,35.0,1,1.0,0.5025009999999384
336,17,0.5,1.0,35.0,1,1.0,0.2733010000001741
337,17,0.5,0.0625,-35.0,-1,1.0,0.529500999999982
338,17,0.5,0.25,35.0,1,1.0,0.2694010000000162
339,17,0.5,0.125,-35.0,-1,1.0,0.3126009999998587
340,17,0.5,0.0625,35.0,-1,0.0,0.48280099999988124
341,17,0.5,0.25,-35.0,-1,1.0,0.4635009999999511
342,17,0.5,1.0,35.0,1,1.0,0.28310099999998783
343,17,0.5,0.0,35.0,-1,0.0,0.659601000000066
344,17,0.4,0.0,-35.0,-1,1.0,0.49690099999997983
345,17,0.5,1.0,-35.0,-1,1.0,0.2801009999998314
346,17,0.5,0.125,35.0,1,1.0,0.32330099999990125
347,17,0.5,0.25,-35.0,-1,1.0,0.45010099999990416
348,17,0.5,0.25,35.0,1,1.0,0.33750099999997474
349,17,0.5,0.0625,-35.0,-1,1.0,5.093600999999808
350,17,0.5,0.0625,-35.0,-1,1.0,0.2176009999998314
351,17,0.5,0.0625,35.0,-1,0.0,0.13050099999986742
352,17,0.3,0.0625,-35.0,1,0.0,2.7405009999997674
353,17,0.5,1.0,35.0,1,1.0,0.3040009999997437
354,17,0.5,0.125,-35.0,-1,1.0,2.0680009999998674
355,17,0.5,0.0625,-35.0,-1,1.0,0.39770099999986996
356,17,0.5,0.0625,35.0,1,1.0,0.3543009999998503
357,17,0.5,0.0625,35.0,1,1.0,0.4110009999997146
358,17,0.5,0.0625,35.0,1,1.0,0.5045009999998911
359,17,0.5,0.0625,-35.0,-1,1.0,1.8047010000000228
360,17,0.5,0.125,35.0,1,1.0,3.5487009999999373
361,17,0.5,0.0625,35.0,-1,0.0,0.2315009999999802
362,17,0.5,0.25,-35.0,-1,1.0,0.4088009999998121
363,17,0.5,0.25,35.0,1,1.0,1.9686009999998078
364,17,0.5,0.125,35.0,1,1.0,3.905300999999781
365,17,0.5,1.0,35.0,1,1.0,0.3022009999999682
366,17,0.5,0.25,35.0,1,1.0,0.2790010000001075
367,17,0.5,0.0625,-35.0,-1,1.0,0.3860010000000784
368,17,0.5,0.0625,-35.0,-1,1.0,0.4394009999996342
369,17,0.5,0.125,35.0,1,1.0,0.35960099999988415
370,17,0.5,0.125,35.0,-1,0.0,0.7161009999997532
371,17,0.5,0.0625,-35.0,-1,1.0,3.476100999999744
372,17,0.5,0.125,35.0,1,1.0,0.38970099999983177
373,17,0.5,0.25,-35.0,-1,1.0,0.44970100000000457
374,17,0.5,1.0,-35.0,-1,1.0,0.43970100000001366
375,17,0.5,0.0625,-35.0,-1,1.0,4.349700999999868
376,17,0.5,1.0,35.0,1,1.0,0.31690099999991617
377,17,0.5,0.125,35.0,-1,0.0,5.680300999999872
378,17,0.5,0.25,35.0,1,1.0,0.46090099999969425
379,17,0.5,0.0625,35.0,-1,0.0,3.5237009999998463
380,17,0.5,0.25,-35.0,-1,1.0,0.5012010000000373
381,17,0.5,0.0625,35.0,-1,0.0,4.297400999999809
382,17,0.5,0.125,-35.0,-1,1.0,3.601200999999719
383,17,0.5,0.125,-35.0,1,0.0,1.481400999999778
384,17,0.5,0.0,-35.0,1,0.0,4.101100999999744
385,17,0.5,0.25,35.0,1,1.0,0.7948010000000068
386,17,0.5,1.0,-35.0,-1,1.0,0.06810099999984232
387,17,0.5,0.25,35.0,1,1.0,0.46890099999973245
388,17,0.5,0.25,-35.0,-1,1.0,1.3754009999997834
389,17,0.5,0.125,-35.0,-1,1.0,4.885500999999977
390,17,0.5,0.125,-35.0,-1,1.0,3.8423009999999067
391,17,0.5,0.125,35.0,1,1.0,0.4789009999999507
392,17,0.5,0.125,-35.0,-1,1.0,5.0795009999999365
393,17,0.5,1.0,-35.0,-1,1.0,1.5568009999999504
394,17,0.5,0.25,-35.0,-1,1.0,0.7794010000000071
395,17,0.5,1.0,35.0,1,1.0,0.3665009999999711
396,17,0.5,0.25,35.0,1,1.0,1.2395010000000184
397,17,0.5,0.25,-35.0,-1,1.0,0.7531009999997877
398,17,0.5,0.0625,-35.0,-1,1.0,3.6668010000000777
399,17,0.5,0.25,35.0,-1,0.0,0.5404009999999744
400,17,0.5,0.0625,35.0,-1,0.0,3.090500999999904
401,17,0.3,0.0625,-35.0,-1,1.0,7.400701000000026
402,17,0.5,1.0,35.0,1,1.0,0.31060100000013335
403,17,0.5,1.0,35.0,1,1.0,0.6073010000000068
404,17,0.5,0.0625,35.0,-1,0.0,2.5808009999998376
405,17,0.5,0.0,-35.0,-1,1.0,1.3979010000000471
406,17,0.5,0.0625,-35.0,-1,1.0,0.42770100000007005
407,17,0.5,0.0625,35.0,-1,0.0,1.9349009999998543
408,17,0.5,0.125,35.0,-1,0.0,0.394600999999966
409,17,0.5,0.25,35.0,1,1.0,4.084500999999818
410,17,0.5,0.0625,35.0,-1,0.0,1.938200999999708
411,17,0.5,0.0,35.0,-1,0.0,0.08160099999986414
412,17,0.5,0.25,-35.0,1,0.0,3.0755009999998038
413,17,0.3,0.25,35.0,1,1.0,0.6089010000000599
414,17,0.5,1.0,35.0,1,1.0,0.2892010000000482
415,17,0.5,1.0,35.0,1,1.0,1.075700999999981
416,17,0.5,1.0,-35.0,-1,1.0,0.4722009999998136
417,17,0.5,0.25,-35.0,-1,1.0,0.3423009999999067
418,17,0.5,0.0625,-35.0,-1,1.0,0.9460009999997965
419,17,0.5,0.0,35.0,-1,0.0,0.1532009999998536
420,17,0.5,0.0625,-35.0,-1,1.0,2.5230009999997947
421,17,0.5,0.0,35.0,-1,0.0,0.8627009999997881
422,17,0.5,0.25,35.0,1,1.0,0.346400999999787
423,17,0.5,0.25,-35.0,-1,1.0,0.2798009999999067
424,17,0.5,0.0625,35.0,1,1.0,0.6429009999997106
425,17,0.5,0.25,-35.0,-1,1.0,0.2898009999998976
426,17,0.5,0.125,35.0,1,1.0,0.7364009999998871
427,17,0.5,1.0,35.0,1,1.0,0.22010099999988597
428,17,0.5,1.0,35.0,1,1.0,0.27660100000002785
429,17,0.5,0.25,-35.0,-1,1.0,0.4368010000000595
430,17,0.5,0.125,-35.0,-1,1.0,2.68000099999972
431,17,0.5,1.0,-35.0,-1,1.0,0.23360099999968043
432,17,0.5,0.25,35.0,1,1.0,0.3604009999999107
433,17,0.5,0.125,35.0,1,1.0,0.42420099999981176
434,17,0.5,1.0,-35.0,-1,1.0,0.2174009999998816
435,17,0.5,0.0625,35.0,1,1.0,2.3671009999998205
436,17,0.5,0.25,-35.0,-1,1.0,0.3141009999999369
437,17,0.5,0.0625,35.0,1,1.0,0.937300999999934
438,17,0.5,0.125,35.0,1,1.0,0.3509009999997943
439,17,0.5,0.25,-35.0,-1,1.0,0.11410099999989143
440,17,0.5,0.125,35.0,1,1.0,0.3408009999998285
441,17,0.5,1.0,35.0,1,1.0,0.2841009999999642
442,17,0.5,0.25,-35.0,-1,1.0,0.28450100000009115
443,17,0.5,0.0625,-35.0,-1,1.0,0.11520099999984268
444,17,0.5,1.0,35.0,1,1.0,0.24810099999990598
445,17,0.5,1.0,-35.0,-1,1.0,0.20460099999991144
446,17,0.5,0.25,35.0,1,1.0,0.3348009999999704
447,17,0.5,0.0,35.0,-1,0.0,0.11490099999969061
448,17,0.5,0.125,-35.0,-1,1.0,0.3652009999998427
449,17,0.5,0.25,35.0,1,1.0,0.2983009999998103
450,17,0.5,0.0625,35.0,-1,0.0,0.21850099999983286
451,17,0.5,0.25,35.0,1,1.0,0.32180099999982303
452,17,0.5,1.0,35.0,1,1.0,0.28860099999997146
453,17,0.5,0.125,35.0,-1,0.0,2.5485009999999875
454,17,0.5,0.0,-35.0,-1,1.0,0.25550099999964004
455,17,0.5,0.125,-35.0,-1,1.0,0.3722009999999045
456,17,0.5,0.0625,-35.0,-1,1.0,0.6690009999997528
457,17,0.5,0.0625,35.0,1,1.0,0.3023009999997157
458,17,0.5,0.0625,35.0,1,1.0,0.49250099999994745
459,17,0.5,0.0625,35.0,1,1.0,1.0861009999998714
460,17,0.5,0.125,35.0,1,1.0,0.5827010000000428
461,17,0.5,0.0625,35.0,-1,0.0,0.23270099999990634
462,17,0.5,0.25,-35.0,-1,1.0,0.24640100000010534
463,17,0.5,0.125,35.0,1,1.0,0.2769009999997252
464,17,0.5,0.125,-35.0,-1,1.0,0.6298009999998158
465,17,0.5,0.25,-35.0,-1,1.0,0.50970099999995
466,17,0.5,1.0,-35.0,-1,1.0,0.4936009999998987
467,17,0.5,0.25,35.0,1,1.0,2.0368009999999686
468,17,0.5,0.125,-35.0,-1,1.0,0.4067009999998845
469,17,0.5,1.0,35.0,1,1.0,0.2238009999998667
470,17,0.5,0.25,35.0,1,1.0,0.44690099999979793
471,17,0.5,1.0,-35.0,-1,1.0,0.28720099999986815
472,17,0.5,0.25,35.0,1,1.0,0.27700099999992744
473,17,0.5,0.25,-35.0,-1,1.0,0.7769009999999525
474,17,0.5,0.0,35.0,-1,0.0,2.017500999999811
475,17,0.5,0.25,-35.0,-1,1.0,0.3812009999996917
476,17,0.5,1.0,35.0,1,1.0,0.22750100000007478
477,17,0.5,0.0,-35.0,1,0.0,0.5783010000000104
478,17,0.5,0.125,-35.0,-1,1.0,1.890800999999783
479,17,0.5,0.125,-35.0,-1,1.0,2.734500999999682
480,17,0.5,0.125,35.0,-1,0.0,1.2216009999999642
481,17,0.5,0.0625,35.0,-1,0.0,2.3752009999998336
482,17,0.5,0.0625,35.0,-1,0.0,0.7414009999999962
483,17,0.5,0.125,35.0,1,1.0,0.624800999999934
484,17,0.5,0.0,-35.0,-1,1.0,4.942000999999664
485,17,0.5,0.25,-35.0,-1,1.0,1.7491009999998823
486,17,0.5,0.125,-35.0,-1,1.0,2.93220099999985
487,17,0.5,0.0625,-35.0,-1,1.0,3.6053009999998267
488,17,0.5,1.0,35.0,1,1.0,0.2926009999998769
489,17,0.5,0.125,-35.0,-1,1.0,3.7589009999999234
490,17,0.5,0.0625,-35.0,-1,1.0,1.9262009999997645
491,17,0.5,0.0625,35.0,-1,0.0,4.892500999999811
492,17,0.5,0.0625,35.0,-1,0.0,19.58330100000012
493,17,0.2,0.0625,35.0,-1,0.0,2.846800999999914
494,17,0.5,1.0,35.0,1,1.0,5.577600000000075
495,17,0.5,0.0625,-35.0,-1,1.0,6.797301000000061
496,17,0.5,1.0,35.0,1,1.0,4.320800999999392
497,17,0.5,1.0,-35.0,-1,1.0,0.5420009999998001
498,17,0.5,0.25,35.0,1,1.0,5.291501000000153
499,17,0.5,0.25,-35.0,-1,1.0,6.275300999999672
500,17,0.5,0.0,-35.0,-1,1.0,1.9726009999999405
501,17,0.5,0.125,-35.0,-1,1.0,2.4619010000001254
502,17,0.5,0.0625,-35.0,-1,1.0,2.7556009999998423
503,17,0.5,0.25,35.0,-1,0.0,1.8464010000002418
504,17,0.5,0.0,-35.0,-1,1.0,2.7823010000001887
505,17,0.5,1.0,-35.0,-1,1.0,0.6064010000000053
506,17,0.5,0.0625,-35.0,-1,1.0,7.372901000000184
507,17,0.5,0.25,-35.0,-1,1.0,4.726600999999846
508,17,0.5,0.0625,-35.0,-1,1.0,3.21670099999983
509,17,0.5,0.0,-35.0,-1,1.0,4.457000999999764
510,17,0.5,0.25,-35.0,-1,1.0,4.250200999999834
511,17,0.5,0.0,-35.0,-1,1.0,4.133700999999746
512,17,0.5,1.0,35.0,1,1.0,0.3304009999997106
513,17,0.5,0.125,35.0,-1,0.0,5.637600999999904
514,17,0.5,0.25,-35.0,-1,1.0,0.5205009999999675
515,17,0.5,0.125,-35.0,-1,1.0,11.480900999999903
516,17,0.5,1.0,35.0,1,1.0,0.3179009999998925
517,17,0.5,0.0625,-35.0,-1,1.0,0.6584009999996852
518,17,0.5,0.25,-35.0,-1,1.0,0.6848009999998794
519,17,0.5,0.25,35.0,-1,0.0,4.655001000000084
520,17,0.5,0.125,35.0,1,1.0,4.6557010000001355
521,17,0.5,0.0,-35.0,-1,1.0,5.5822009999997135
522,17,0.5,0.25,-35.0,-1,1.0,0.28890099999989616
523,17,0.5,0.125,35.0,1,1.0,0.45880099999976665
524,17,0.5,0.125,-35.0,-1,1.0,0.3760010000000875
525,17,0.5,1.0,35.0,1,1.0,0.31570099999999
526,17,0.5,1.0,35.0,1,1.0,0.17560100000036982
527,17,0.5,0.125,35.0,-1,0.0,9.099600999999893
528,17,0.4,0.125,35.0,1,1.0,2.5366009999997914
529,17,0.5,1.0,-35.0,-1,1.0,0.28000099999962913
530,17,0.5,0.0625,35.0,1,1.0,0.9764009999998962
531,17,0.5,1.0,35.0,1,1.0,0.2800010000000839
532,17,0.5,1.0,35.0,1,1.0,0.2637009999998554
533,17,0.5,0.0,35.0,1,1.0,6.726800999999796
534,17,0.5,1.0,-35.0,-1,1.0,0.6145010000000184
535,17,0.5,1.0,35.0,1,1.0,0.2771010000001297
536,17,0.5,0.0,-35.0,-1,1.0,7.103900999999951
537,17,0.5,0.25,35.0,1,1.0,0.7441009999997732
538,17,0.5,0.125,35.0,-1,0.0,0.7538010000002942
539,17,0.6,0.125,-35.0,1,0.0,6.934100999999828
540,17,0.5,1.0,35.0,1,1.0,0.2845009999996364
541,17,0.5,0.125,-35.0,-1,1.0,2.0349009999999907
542,17,0.5,1.0,-35.0,-1,1.0,0.6544010000002345
543,17,0.5,1.0,35.0,1,1.0,0.5016009999999369
544,17,0.5,0.125,-35.0,-1,1.0,4.4416009999999915
545,17,0.5,0.25,-35.0,-1,1.0,0.32530099999985396
546,17,0.5,0.125,35.0,1,1.0,4.152300999999625
547,17,0.5,1.0,-35.0,-1,1.0,0.6287010000000919
548,17,0.5,0.0625,-35.0,-1,1.0,4.192000999999436
549,17,0.5,0.25,35.0,1,1.0,0.30240099999946324
550,17,0.5,0.0625,-35.0,-1,1.0,6.3593009999999595
551,17,0.5,0.125,-35.0,-1,1.0,0.33260100000006787
552,17,0.5,0.0,-35.0,-1,1.0,2.5924009999998816
553,17,0.5,0.125,-35.0,-1,1.0,0.2561009999999442
554,17,0.5,0.0,35.0,-1,0.0,5.313000999999986
555,17,0.5,0.125,-35.0,-1,1.0,1.1640010000000984
556,17,0.5,0.125,-35.0,1,0.0,3.017001000000164
557,17,0.5,0.0625,-35.0,1,0.0,2.0799010000000635
558,17,0.5,0.0,35.0,1,1.0,0.49040100000001985
559,17,0.5,0.0,-35.0,1,0.0,2.3669009999998707
560,17,0.5,0.0625,-35.0,-1,1.0,5.74040100000002
561,17,0.5,0.0625,35.0,1,1.0,12.274100999999519
562,17,0.5,0.125,-35.0,-1,1.0,7.134801000000152
563,17,0.5,0.125,35.0,1,1.0,4.018000999999913
564,17,0.5,1.0,35.0,1,1.0,5.745000999999775
565,17,0.5,0.125,35.0,-1,0.0,4.828400999999758
566,17,0.5,0.0,-35.0,-1,1.0,18.568800999999894
567,17,0.5,0.125,35.0,1,1.0,2.3759009999998852
568,17,0.5,1.0,35.0,1,1.0,0.25270099999988815
569,17,0.5,0.25,-35.0,-1,1.0,0.3695009999996728
570,17,0.5,0.125,-35.0,-1,1.0,0.6228009999999813
571,17,0.5,0.125,-35.0,-1,1.0,4.8496009999994385
572,17,0.5,0.125,-35.0,-1,1.0,7.970300999999836
573,17,0.5,0.0625,-35.0,-1,1.0,3.317200999999841
574,17,0.5,0.25,-35.0,-1,1.0,1.8969010000000708
575,17,0.5,0.125,35.0,-1,0.0,5.804100999999719
576,17,0.5,0.25,-35.0,-1,1.0,3.370900999999776
577,17,0.5,0.0625,-35.0,-1,1.0,3.344300999999632
578,17,0.5,0.25,-35.0,-1,1.0,0.4817009999997026
579,17,0.5,0.0,-35.0,-1,1.0,4.617800999999872
580,17,0.5,0.125,35.0,1,1.0,4.5950010000001384
581,17,0.5,0.125,-35.0,-1,1.0,1.9785010000000511
582,17,0.5,0.25,35.0,1,1.0,0.2818010000000868
583,17,0.5,1.0,35.0,1,1.0,0.3020010000000184
584,17,0.5,0.0625,35.0,1,1.0,5.155301000000236
585,17,0.5,0.25,-35.0,-1,1.0,0.3028009999998176
586,17,0.5,1.0,35.0,1,1.0,0.30570099999977174
587,17,0.5,0.25,-35.0,-1,1.0,0.5455010000000584
588,17,0.5,1.0,-35.0,-1,1.0,0.5658009999997375
589,17,0.5,0.125,-35.0,-1,1.0,1.0795009999997092
590,17,0.5,1.0,-35.0,-1,1.0,0.5059009999999944
591,17,0.5,1.0,35.0,1,1.0,0.31600099999968734
592,17,0.5,0.25,35.0,1,1.0,4.713300999999319
593,17,0.5,0.125,-35.0,-1,1.0,0.35970099999985905
594,17,0.5,0.25,-35.0,-1,1.0,0.41960100000005696
595,17,0.5,0.125,-35.0,-1,1.0,5.899500999999418
596,17,0.5,0.0625,35.0,1,1.0,4.339700999999877
597,17,0.5,0.25,-35.0,-1,1.0,0.42000099999995655
598,17,0.5,0.25,-35.0,-1,1.0,0.363800999999512
599,17,0.5,0.125,35.0,1,1.0,3.2304009999998016
600,17,0.5,0.0625,35.0,1,1.0,0.3002010000000155
601,17,0.5,0.125,35.0,1,1.0,0.6509009999999762
602,17,0.5,0.125,-35.0,1,0.0,0.8542010000001028
603,17,0.5,0.125,-35.0,-1,1.0,0.4075009999996837
604,17,0.5,1.0,-35.0,-1,1.0,0.24060099999996964
605,17,0.5,0.125,-35.0,-1,1.0,5.044001000000208
606,17,0.5,0.0625,-35.0,-1,1.0,3.118300999999974
