trial_num,session_num,stim_probability_left,contrast,position,response_choice,trial_correct,reaction_time
1,1,0.5,0.0625,35.0,-1,0.0,26.9758
2,1,0.5,0.25,35.0,1,1.0,0.25250000000000483
3,1,0.5,0.25,-35.0,-1,1.0,0.5313999999999979
4,1,0.5,0.125,35.0,-1,0.0,0.16149999999999665
5,1,0.5,0.0,-35.0,1,0.0,0.30879999999999797
6,1,0.5,0.25,-35.0,-1,1.0,0.16140000000000043
7,1,0.5,1.0,35.0,1,1.0,0.2359999999999971
8,1,0.5,0.25,-35.0,-1,1.0,0.19109999999999872
9,1,0.5,0.0,35.0,-1,0.0,0.345799999999997
10,1,0.5,0.25,35.0,-1,0.0,0.12549999999999528
11,1,0.5,0.0625,35.0,-1,0.0,0.14860000000000184
12,1,0.5,0.125,35.0,-1,0.0,0.1337999999999937
13,1,0.5,0.25,-35.0,-1,1.0,0.18559999999999377
14,1,0.5,0.125,-35.0,-1,1.0,0.2372000000000014
15,1,0.5,0.0625,-35.0,-1,1.0,0.21629999999998972
16,1,0.5,0.0,35.0,-1,0.0,0.3091000000000008
17,1,0.5,0.125,35.0,-1,0.0,0.16200000000000614
18,1,0.5,0.25,35.0,1,1.0,0.23409999999999798
19,1,0.5,0.0,35.0,-1,0.0,0.20830000000000837
20,1,0.5,0.0,-35.0,-1,1.0,0.3012999999999977
21,1,0.5,0.125,35.0,1,1.0,0.2886999999999915
22,1,0.5,0.25,-35.0,-1,1.0,0.11669999999999447
23,1,0.5,0.25,35.0,1,1.0,0.33679999999999666
24,1,0.5,0.0,-35.0,1,0.0,0.3562000000000012
25,1,0.5,0.125,35.0,1,1.0,0.19900000000001228
26,1,0.5,1.0,-35.0,-1,1.0,0.20550000000000068
27,1,0.5,0.0625,-35.0,1,0.0,0.555800000000005
28,1,0.5,0.125,35.0,1,1.0,0.3457000000000079
29,1,0.5,0.25,35.0,1,1.0,0.22570000000000334
30,1,0.5,0.0,35.0,1,1.0,0.3164999999999907
31,1,0.5,0.125,-35.0,-1,1.0,0.1905000000000001
32,1,0.5,0.25,35.0,1,1.0,0.3019000000000034
33,1,0.5,0.0,-35.0,-1,1.0,0.46419999999999106
34,1,0.5,0.125,-35.0,-1,1.0,0.3101999999999805
35,1,0.5,1.0,-35.0,-1,1.0,0.23460000000000036
36,1,0.5,0.125,-35.0,-1,1.0,0.2581000000000131
37,1,0.5,0.0625,35.0,1,1.0,0.4785999999999717
38,1,0.5,0.0625,-35.0,-1,1.0,0.2336999999999989
39,1,0.5,0.0625,35.0,1,1.0,0.5352999999999781
40,1,0.5,0.0625,35.0,-1,0.0,0.2673989999999833
41,1,0.5,1.0,-35.0,-1,1.0,0.17539999999999623
42,1,0.5,0.0625,-35.0,-1,1.0,1.6163999999999987
43,1,0.5,0.0,-35.0,1,0.0,0.5143999999999949
44,1,0.5,0.25,35.0,1,1.0,0.29579999999998563
45,1,0.5,0.0625,35.0,-1,0.0,2.486899999999963
46,1,0.5,0.0,35.0,1,1.0,0.8216000000000179
47,1,0.5,0.0625,35.0,1,1.0,0.33680000000001087
48,1,0.5,0.25,-35.0,-1,1.0,0.2494000000000085
49,1,0.5,0.0625,-35.0,1,0.0,0.6376000000000204
50,1,0.5,0.25,35.0,1,1.0,0.2664000000000044
51,1,0.5,1.0,35.0,1,1.0,0.22299999999998477
52,1,0.5,0.125,-35.0,-1,1.0,0.22630000000000905
53,1,0.5,1.0,35.0,1,1.0,0.27000000000001023
54,1,0.5,0.0625,35.0,-1,0.0,1.9739999999999895
55,1,0.5,1.0,-35.0,-1,1.0,0.21750000000000114
56,1,0.5,0.125,35.0,1,1.0,0.4644999999999868
57,1,0.5,0.25,-35.0,-1,1.0,0.24660000000000082
58,1,0.5,0.125,35.0,1,1.0,0.3778000000000077
59,1,0.5,0.125,-35.0,-1,1.0,0.397199999999998
60,1,0.5,0.25,35.0,1,1.0,0.30119999999999436
61,1,0.5,1.0,35.0,1,1.0,0.3078999999999894
62,1,0.5,1.0,35.0,1,1.0,0.2494999999999834
63,1,0.5,0.0625,-35.0,-1,1.0,0.24080000000000723
64,1,0.5,0.25,35.0,1,1.0,0.4450999999999965
65,1,0.5,0.125,-35.0,-1,1.0,0.2833999999999719
66,1,0.5,0.0625,35.0,1,1.0,0.4107999999999947
67,1,0.5,1.0,-35.0,-1,1.0,0.11340000000001282
68,1,0.5,1.0,-35.0,-1,1.0,0.2154999999999916
69,1,0.5,0.25,35.0,1,1.0,0.46289999999999054
70,1,0.5,1.0,35.0,1,1.0,0.3348000000000013
71,1,0.5,0.0625,35.0,-1,0.0,0.17709999999999582
72,1,0.5,0.0625,-35.0,-1,1.0,0.35949999999999704
73,1,0.5,0.25,-35.0,-1,1.0,0.2769000000000119
74,1,0.5,0.125,35.0,1,1.0,0.521899999999988
75,1,0.5,0.25,35.0,1,1.0,0.37110000000001264
76,1,0.5,0.0,-35.0,-1,1.0,0.42910000000000537
77,1,0.5,0.0625,-35.0,-1,1.0,0.5012999999999863
78,1,0.5,0.125,35.0,1,1.0,0.37249999999997385
79,1,0.5,0.25,35.0,1,1.0,0.34030000000001337
80,1,0.5,0.0,35.0,1,1.0,0.41100000000000136
81,1,0.5,0.125,-35.0,-1,1.0,0.2610000000000241
82,1,0.5,0.0625,-35.0,1,0.0,0.5061000000000035
83,1,0.5,0.0625,35.0,1,1.0,0.560100000000034
84,1,0.5,0.0625,35.0,-1,0.0,1.3734999999999786
85,1,0.5,0.25,-35.0,-1,1.0,0.29590000000001737
86,1,0.5,1.0,35.0,1,1.0,0.29539999999997235
87,1,0.5,1.0,35.0,1,1.0,0.26700000000005275
88,1,0.5,0.25,-35.0,-1,1.0,0.23900000000003274
89,1,0.5,0.125,35.0,1,1.0,0.5224000000000046
90,1,0.5,0.125,-35.0,-1,1.0,0.6390999999999849
91,1,0.2,0.25,35.0,1,1.0,0.3543000000000234
92,1,0.2,0.125,35.0,-1,0.0,0.5061000000000604
93,1,0.2,0.25,35.0,1,1.0,0.25950000000005957
94,1,0.2,0.25,35.0,1,1.0,0.29750000000001364
95,1,0.2,0.125,-35.0,-1,1.0,0.389500000000055
96,1,0.2,0.125,35.0,-1,0.0,0.23840000000001282
97,1,0.2,1.0,35.0,1,1.0,0.2686999999999671
98,1,0.2,0.0625,35.0,-1,0.0,0.4148000000000138
99,1,0.2,1.0,35.0,1,1.0,0.28590000000002647
100,1,0.2,0.125,-35.0,-1,1.0,0.2766000000000304
101,1,0.2,1.0,35.0,1,1.0,0.29920000000004165
102,1,0.2,0.0625,35.0,-1,0.0,0.2961999999999989
103,1,0.2,1.0,-35.0,-1,1.0,0.2907999999999902
104,1,0.2,0.25,-35.0,1,0.0,0.24370000000004666
105,1,0.2,0.0625,35.0,1,1.0,0.1390999999999849
106,1,0.2,0.125,35.0,1,1.0,0.26710000000002765
107,1,0.2,1.0,35.0,1,1.0,0.2633000000000152
108,1,0.2,1.0,35.0,1,1.0,0.250500000000045
109,1,0.2,1.0,-35.0,-1,1.0,0.31840000000005375
110,1,0.2,0.125,35.0,1,1.0,4.643700000000024
111,1,0.8,1.0,-35.0,-1,1.0,0.24860000000001037
112,1,0.8,1.0,35.0,1,1.0,0.28129999999998745
113,1,0.8,1.0,35.0,1,1.0,0.2866999999999962
114,1,0.8,0.25,-35.0,-1,1.0,0.2410000000000423
115,1,0.8,0.125,35.0,1,1.0,0.4087999999999852
116,1,0.8,0.25,35.0,1,1.0,0.7483000000000288
117,1,0.8,0.125,-35.0,-1,1.0,0.247099999999989
118,1,0.8,0.25,-35.0,-1,1.0,0.23029999999999973
119,1,0.8,1.0,35.0,1,1.0,0.2617999999999938
120,1,0.8,0.0,35.0,1,1.0,0.3576999999999657
121,1,0.8,1.0,-35.0,-1,1.0,0.238900000000001
122,1,0.8,0.125,-35.0,-1,1.0,0.300200000000018
123,1,0.8,0.25,-35.0,-1,1.0,0.25630000000006703
124,1,0.8,0.25,-35.0,-1,1.0,0.2533999999999992
125,1,0.8,0.125,35.0,1,1.0,0.42369999999999663
126,1,0.8,0.125,-35.0,-1,1.0,0.3099000000000274
127,1,0.8,0.0625,-35.0,-1,1.0,0.4198000000000661
128,1,0.8,0.25,-35.0,-1,1.0,0.21800000000007458
129,1,0.8,0.125,-35.0,-1,1.0,0.6316000000000486
130,1,0.8,0.25,-35.0,-1,1.0,0.16169999999999618
131,1,0.8,0.125,-35.0,-1,1.0,0.3243999999999687
132,1,0.8,0.0625,35.0,1,1.0,0.6487000000000194
133,1,0.8,0.125,-35.0,-1,1.0,0.26429999999999154
134,1,0.2,1.0,35.0,1,1.0,0.3340000000000032
135,1,0.2,0.0625,-35.0,-1,1.0,0.3032000000000039
136,1,0.2,0.125,-35.0,-1,1.0,0.2502000000000635
137,1,0.2,0.25,35.0,1,1.0,0.2647000000000048
138,1,0.2,0.125,35.0,1,1.0,0.241800000000012
139,1,0.2,0.0625,35.0,-1,0.0,0.2208999999999719
140,1,0.2,0.125,35.0,1,1.0,0.34810000000004493
141,1,0.2,0.125,35.0,1,1.0,0.37100000000003774
142,1,0.2,0.0,35.0,1,1.0,0.514500000000055
143,1,0.2,0.25,35.0,1,1.0,0.37390000000004875
144,1,0.2,0.0625,35.0,1,1.0,0.25790000000000646
145,1,0.2,0.0,35.0,1,1.0,0.29419999999998936
146,1,0.2,0.125,35.0,1,1.0,0.32220000000000937
147,1,0.2,1.0,-35.0,-1,1.0,0.24820000000005393
148,1,0.2,1.0,-35.0,-1,1.0,0.20490000000006603
149,1,0.2,1.0,-35.0,-1,1.0,0.206799999999987
150,1,0.2,0.0,35.0,1,1.0,0.745900000000006
151,1,0.2,0.0625,35.0,-1,0.0,0.254099999999994
152,1,0.2,0.125,35.0,1,1.0,0.30330000000003565
153,1,0.2,0.25,35.0,1,1.0,0.4325000000000614
154,1,0.2,0.0,35.0,1,1.0,0.46460000000001855
155,1,0.2,0.0625,35.0,1,1.0,0.363399999999956
156,1,0.2,0.0,-35.0,-1,1.0,3.9781000000000404
157,1,0.2,0.25,35.0,1,1.0,0.19860000000005584
158,1,0.2,0.25,35.0,1,1.0,0.3906999999999812
159,1,0.2,1.0,35.0,1,1.0,0.24740000000002738
160,1,0.2,0.125,35.0,1,1.0,0.32840000000004466
161,1,0.2,0.25,-35.0,-1,1.0,0.25909999999998945
162,1,0.2,0.125,35.0,1,1.0,0.36669999999998026
163,1,0.2,0.0625,35.0,1,1.0,0.38850000000002183
164,1,0.2,0.25,35.0,1,1.0,0.29160000000001673
165,1,0.2,0.0625,35.0,1,1.0,0.37630000000001473
166,1,0.2,0.25,35.0,1,1.0,0.31440000000003465
167,1,0.2,0.25,-35.0,-1,1.0,0.2802000000000362
168,1,0.2,1.0,-35.0,-1,1.0,0.2865000000000464
169,1,0.2,0.125,35.0,1,1.0,0.27470000000005257
170,1,0.2,0.125,35.0,1,1.0,0.5137000000000285
171,1,0.2,0.125,35.0,1,1.0,0.2943000000000211
172,1,0.2,0.0,35.0,1,1.0,0.3605000000000018
173,1,0.2,0.25,35.0,1,1.0,0.25130000000001473
174,1,0.2,0.25,35.0,1,1.0,0.39199999999993906
175,1,0.2,0.125,35.0,1,1.0,0.33389999999997144
176,1,0.2,0.0625,35.0,1,1.0,0.15590000000008786
177,1,0.2,0.0625,35.0,1,1.0,0.3469999999998663
178,1,0.2,1.0,35.0,1,1.0,0.2200999999998885
179,1,0.2,0.25,35.0,1,1.0,0.24639999999999418
180,1,0.2,0.0625,35.0,-1,0.0,5.108700000000113
181,1,0.2,0.25,35.0,1,1.0,0.23239999999998417
182,1,0.2,0.25,35.0,1,1.0,0.19110000000000582
183,1,0.2,0.0,35.0,1,1.0,0.3061999999998761
184,1,0.2,0.125,35.0,1,1.0,0.24469999999996617
185,1,0.8,0.125,-35.0,-1,1.0,0.2639999999998963
186,1,0.8,1.0,-35.0,-1,1.0,0.23539999999991323
187,1,0.8,1.0,-35.0,-1,1.0,0.2504000000000133
188,1,0.8,1.0,-35.0,-1,1.0,0.2056999999998652
189,1,0.8,0.25,-35.0,-1,1.0,0.5996999999999844
190,1,0.8,0.0,-35.0,1,0.0,0.44109999999989213
191,1,0.8,1.0,-35.0,-1,1.0,0.21680000000003474
192,1,0.8,0.0,35.0,1,1.0,3.163499999999999
193,1,0.8,0.125,-35.0,-1,1.0,0.27769999999998163
194,1,0.8,0.0,-35.0,1,0.0,0.6428000000000793
195,1,0.8,1.0,-35.0,-1,1.0,0.23090000000001965
196,1,0.8,1.0,-35.0,-1,1.0,0.25649999999996
197,1,0.8,0.25,-35.0,-1,1.0,0.5923999999999978
198,1,0.8,0.125,-35.0,-1,1.0,0.21829999999988559
199,1,0.8,0.25,-35.0,-1,1.0,0.24699999999984357
200,1,0.8,0.25,-35.0,-1,1.0,0.22119999999995343
201,1,0.8,0.125,-35.0,-1,1.0,0.2702000000000453
202,1,0.8,0.0,-35.0,-1,1.0,0.44620000000008986
203,1,0.8,0.0,-35.0,-1,1.0,0.42809999999997217
204,1,0.8,0.125,-35.0,-1,1.0,0.2237999999999829
205,1,0.8,0.0,35.0,1,1.0,0.28329999999994016
206,1,0.2,0.125,35.0,1,1.0,0.3329989999999725
207,1,0.2,1.0,35.0,1,1.0,0.2362999999999147
208,1,0.2,0.125,-35.0,-1,1.0,0.2641999999999598
209,1,0.2,0.0,35.0,-1,0.0,0.3628999999999678
210,1,0.2,0.125,35.0,1,1.0,0.27899999999999636
211,1,0.2,0.25,35.0,1,1.0,0.31140000000004875
212,1,0.2,0.0625,35.0,1,1.0,0.5520999999999958
213,1,0.2,0.25,35.0,1,1.0,0.30930000000000746
214,1,0.2,0.0,35.0,-1,0.0,0.2296999999999798
215,1,0.2,0.25,-35.0,-1,1.0,0.23320000000001073
216,1,0.2,0.125,35.0,1,1.0,0.33990000000005693
217,1,0.2,0.0,35.0,1,1.0,0.41430000000002565
218,1,0.2,0.25,35.0,1,1.0,0.24620000000004438
219,1,0.2,0.125,35.0,1,1.0,0.27739999999994325
220,1,0.2,0.0625,35.0,1,1.0,0.39960000000007767
221,1,0.2,1.0,35.0,1,1.0,0.2923999999999296
222,1,0.2,0.25,35.0,1,1.0,0.28749999999990905
223,1,0.2,0.0625,35.0,1,1.0,0.40009999999995216
224,1,0.2,0.125,-35.0,-1,1.0,0.32150000000001455
225,1,0.2,0.125,35.0,1,1.0,0.33749999999997726
226,1,0.2,0.25,35.0,1,1.0,0.2617999999999938
227,1,0.2,0.125,35.0,-1,0.0,0.19539999999994961
228,1,0.2,0.125,-35.0,1,0.0,0.30930000000000746
229,1,0.2,0.25,35.0,1,1.0,0.3084999999999809
230,1,0.2,0.25,-35.0,-1,1.0,0.2478999999999587
231,1,0.2,0.0625,35.0,1,1.0,0.328899999999976
232,1,0.2,0.0,35.0,1,1.0,0.2983000000000402
233,1,0.2,0.125,35.0,1,1.0,0.5661999999999807
234,1,0.2,1.0,35.0,1,1.0,0.27929999999992106
235,1,0.2,1.0,35.0,1,1.0,0.29319999999995616
236,1,0.2,0.0,35.0,1,1.0,0.7032999999998992
237,1,0.2,0.125,35.0,1,1.0,0.27329999999994925
238,1,0.2,0.0,35.0,1,1.0,0.36029999999982465
239,1,0.2,0.0,35.0,-1,0.0,1.1665989999999056
240,1,0.2,0.0625,-35.0,-1,1.0,0.4966999999999189
241,1,0.2,0.0625,35.0,1,1.0,0.2726999999999862
242,1,0.2,0.0625,35.0,1,1.0,0.417299999999841
243,1,0.2,0.0625,35.0,-1,0.0,0.24450000000001637
244,1,0.2,1.0,35.0,1,1.0,0.24589999999989232
245,1,0.2,0.0625,-35.0,-1,1.0,0.34349999999994907
246,1,0.2,1.0,35.0,1,1.0,0.28120000000001255
247,1,0.2,0.125,-35.0,-1,1.0,0.23309999999992215
248,1,0.2,0.0625,35.0,-1,0.0,0.24889999999993506
249,1,0.2,0.0,35.0,1,1.0,0.2798000000000229
250,1,0.2,1.0,35.0,1,1.0,0.21709999999995944
251,1,0.2,0.25,35.0,1,1.0,0.36209999999994125
252,1,0.2,1.0,-35.0,-1,1.0,0.2720999999999094
253,1,0.2,1.0,-35.0,-1,1.0,0.24699999999995725
254,1,0.2,0.0625,35.0,1,1.0,0.2238999999999578
255,1,0.2,0.125,35.0,1,1.0,0.2684000000000424
256,1,0.8,0.125,-35.0,-1,1.0,0.31150000000002365
257,1,0.8,0.125,35.0,1,1.0,0.3128999999998996
258,1,0.8,0.125,-35.0,-1,1.0,0.25940000000002783
259,1,0.8,1.0,-35.0,-1,1.0,0.05999999999994543
260,1,0.8,0.25,-35.0,1,0.0,0.32989999999983866
261,1,0.8,0.125,-35.0,1,0.0,0.3469000000000051
262,1,0.8,1.0,-35.0,-1,1.0,0.2947999999998956
263,1,0.8,0.25,-35.0,-1,1.0,0.36799999999993815
264,1,0.8,0.25,-35.0,-1,1.0,0.22939999999994143
265,1,0.8,0.25,-35.0,-1,1.0,0.26539999999999964
266,1,0.8,0.125,-35.0,-1,1.0,0.2515999999999394
267,1,0.8,0.25,-35.0,-1,1.0,0.29929999999990287
268,1,0.8,1.0,-35.0,-1,1.0,0.2560999999999467
269,1,0.8,0.125,-35.0,-1,1.0,0.331299999999942
270,1,0.8,1.0,-35.0,-1,1.0,0.1919999999998936
271,1,0.8,0.125,-35.0,-1,1.0,0.30739999999991596
272,1,0.8,1.0,-35.0,-1,1.0,0.22899999999992815
273,1,0.8,0.0625,-35.0,-1,1.0,0.5979999999999563
274,1,0.8,0.0625,-35.0,-1,1.0,0.20109999999999673
275,1,0.8,0.0625,-35.0,-1,1.0,0.18819999999993797
276,1,0.2,0.25,35.0,1,1.0,0.3342999999999847
277,1,0.2,0.0625,35.0,1,1.0,0.18669999999997344
278,1,0.2,0.125,-35.0,1,0.0,0.19650000000001455
279,1,0.2,0.0,-35.0,1,0.0,0.26119999999991705
280,1,0.2,0.0625,35.0,1,1.0,0.28160000000002583
281,1,0.2,0.0625,35.0,1,1.0,0.6713999999999487
282,1,0.2,0.25,35.0,1,1.0,0.25470000000007076
283,1,0.2,0.0,35.0,-1,0.0,0.6918000000000575
284,1,0.2,0.0625,35.0,1,1.0,0.29710000000000036
285,1,0.2,0.0625,35.0,1,1.0,0.4134999999999991
286,1,0.2,0.25,35.0,1,1.0,0.28739999999993415
287,1,0.2,0.25,-35.0,-1,1.0,0.24259999999992488
288,1,0.2,0.0625,35.0,1,1.0,0.3787999999999556
289,1,0.2,0.0625,35.0,1,1.0,0.3224999999999909
290,1,0.2,0.25,35.0,1,1.0,0.29809999999986303
291,1,0.2,0.125,35.0,1,1.0,0.42430000000001655
292,1,0.2,0.125,35.0,-1,0.0,0.77800000000002
293,1,0.2,0.125,35.0,1,1.0,0.18269999999995434
294,1,0.2,0.25,35.0,1,1.0,0.3547999999999547
295,1,0.2,0.125,35.0,1,1.0,0.26400000000001
296,1,0.2,0.0,35.0,1,1.0,0.28120000000001255
297,1,0.2,0.125,35.0,1,1.0,0.2094000000000733
298,1,0.2,0.125,35.0,1,1.0,0.2258000000000493
299,1,0.2,0.0,-35.0,-1,1.0,3.1686999999999443
300,1,0.8,0.125,-35.0,-1,1.0,0.32949999999993906
301,1,0.8,1.0,-35.0,-1,1.0,0.18919999999991433
302,1,0.8,0.25,-35.0,-1,1.0,0.22339999999996962
303,1,0.8,0.0625,35.0,1,1.0,0.35159999999996217
304,1,0.8,0.125,-35.0,-1,1.0,0.17279999999993834
305,1,0.8,0.0,-35.0,-1,1.0,0.26700000000005275
306,1,0.8,0.125,-35.0,-1,1.0,1.9886999999999944
307,1,0.8,0.125,-35.0,-1,1.0,0.26139999999998054
308,1,0.8,1.0,-35.0,-1,1.0,0.20460000000002765
309,1,0.8,0.25,-35.0,-1,1.0,0.32179999999993925
310,1,0.8,0.125,-35.0,-1,1.0,0.17619999999999436
311,1,0.8,0.25,-35.0,-1,1.0,0.28349999999988995
312,1,0.8,0.125,-35.0,-1,1.0,0.23339999999996053
313,1,0.8,0.0,-35.0,-1,1.0,2.5529999999998836
314,1,0.8,0.25,-35.0,-1,1.0,0.2095000000000482
315,1,0.8,0.125,-35.0,-1,1.0,0.3750999999999749
316,1,0.8,0.25,35.0,1,1.0,0.2321999999999207
317,1,0.8,0.25,-35.0,-1,1.0,0.27109999999993306
318,1,0.8,0.25,-35.0,-1,1.0,0.2055000000000291
319,1,0.8,0.0,-35.0,1,0.0,0.40629999999998745
320,1,0.8,0.125,35.0,1,1.0,0.22630000000003747
321,1,0.8,0.125,-35.0,-1,1.0,0.2721000000000231
322,1,0.8,0.0625,-35.0,-1,1.0,0.2970999999998867
323,1,0.8,0.125,-35.0,-1,1.0,0.3129000000000133
324,1,0.8,1.0,-35.0,-1,1.0,0.21699999999998454
325,1,0.8,1.0,-35.0,-1,1.0,0.2198999999999387
326,1,0.8,0.125,-35.0,-1,1.0,0.23260000000004766
327,1,0.8,1.0,-35.0,-1,1.0,0.2503000000000384
328,1,0.8,0.0,-35.0,-1,1.0,0.32929999999998927
329,1,0.8,0.0,35.0,1,1.0,0.2948000000000093
330,1,0.8,0.125,35.0,1,1.0,0.32769999999993615
331,1,0.8,0.0,-35.0,1,0.0,0.2842000000000553
332,1,0.8,1.0,-35.0,-1,1.0,0.2620000000000573
333,1,0.8,0.0625,-35.0,-1,1.0,0.29750000000001364
334,1,0.8,1.0,-35.0,-1,1.0,0.23679999999990287
335,1,0.8,0.25,-35.0,-1,1.0,0.3028999999999087
336,1,0.8,0.0625,-35.0,1,0.0,1.1947999999999865
337,1,0.8,0.25,-35.0,-1,1.0,0.17629999999996926
338,1,0.8,0.125,-35.0,-1,1.0,0.21630000000004657
339,1,0.8,0.25,-35.0,-1,1.0,0.2828999999999269
340,1,0.8,0.0625,-35.0,-1,1.0,0.4216999999998734
341,1,0.8,1.0,35.0,1,1.0,0.30329999999992197
342,1,0.8,0.0,-35.0,-1,1.0,0.4433999999999969
343,1,0.8,0.0625,-35.0,1,0.0,0.26739999999995234
344,1,0.8,0.0625,-35.0,-1,1.0,0.4803999999999178
345,1,0.8,0.125,35.0,1,1.0,0.2636999999999716
346,1,0.8,0.25,-35.0,-1,1.0,0.2336999999999989
347,1,0.8,1.0,-35.0,-1,1.0,0.16059999999993124
348,1,0.8,1.0,-35.0,-1,1.0,0.21129999999993743
349,1,0.8,1.0,-35.0,-1,1.0,0.21080000000006294
350,1,0.8,0.0625,-35.0,-1,1.0,0.2518000000000029
351,1,0.8,0.125,-35.0,-1,1.0,0.2680000000002565
352,1,0.8,0.0625,-35.0,-1,1.0,0.3846000000000913
353,1,0.8,0.125,-35.0,-1,1.0,0.2754000000002179
354,1,0.2,1.0,-35.0,-1,1.0,0.20479999999997744
355,1,0.2,0.0,35.0,-1,0.0,0.2218000000000302
356,1,0.2,0.0625,35.0,-1,0.0,0.1647000000002663
357,1,0.2,1.0,35.0,1,1.0,0.2216000000000804
358,1,0.2,0.0,-35.0,-1,1.0,0.03480000000013206
359,1,0.2,1.0,35.0,1,1.0,0.21839999999997417
360,1,0.2,0.0625,35.0,1,1.0,0.29520000000002256
361,1,0.2,0.125,35.0,1,1.0,0.345299999999952
362,1,0.2,0.25,-35.0,-1,1.0,0.23529999999982465
363,1,0.2,1.0,-35.0,-1,1.0,0.22270000000003165
364,1,0.2,0.25,35.0,1,1.0,0.3420000000000982
365,1,0.2,0.125,35.0,1,1.0,0.2555999999999585
366,1,0.2,0.0625,35.0,-1,0.0,0.24230000000011387
367,1,0.2,0.25,35.0,1,1.0,0.21890000000007603
368,1,0.2,0.125,35.0,1,1.0,0.31570000000010623
369,1,0.2,1.0,35.0,1,1.0,0.22309999999993124
370,1,0.2,1.0,-35.0,-1,1.0,0.24610000000029686
371,1,0.2,0.0625,35.0,1,1.0,0.4595000000001619
372,1,0.2,0.0,35.0,1,1.0,0.3763000000001284
373,1,0.2,1.0,35.0,1,1.0,0.04950000000030741
374,1,0.2,0.25,35.0,1,1.0,0.3630000000000564
375,1,0.2,0.25,35.0,1,1.0,0.3428000000001248
376,1,0.2,0.0,35.0,1,1.0,0.33310000000005857
377,1,0.2,0.25,35.0,1,1.0,0.24710000000004584
378,1,0.2,0.25,-35.0,-1,1.0,0.3432000000000244
379,1,0.2,0.0,35.0,1,1.0,0.5136999999999716
380,1,0.2,0.0,-35.0,1,0.0,0.45689999999990505
381,1,0.2,0.0,35.0,1,1.0,0.3068000000000666
382,1,0.2,0.0625,35.0,1,1.0,0.3068000000000666
383,1,0.2,0.0,35.0,1,1.0,0.32360000000016953
384,1,0.2,0.0625,35.0,1,1.0,0.2940000000003238
385,1,0.2,0.25,35.0,1,1.0,0.2941000000000713
386,1,0.2,0.125,35.0,1,1.0,0.26050000000009277
387,1,0.2,1.0,35.0,1,1.0,0.27060000000005857
388,1,0.2,0.25,35.0,1,1.0,0.2875000000001364
389,1,0.2,0.0625,-35.0,-1,1.0,0.3041000000000622
390,1,0.2,0.0625,35.0,-1,0.0,0.5075000000001637
391,1,0.2,0.125,-35.0,1,0.0,0.17810000000008586
392,1,0.2,0.25,35.0,1,1.0,1.27150000000006
393,1,0.2,0.0,35.0,1,1.0,0.1977999999999156
394,1,0.2,1.0,35.0,1,1.0,0.2816000000002532
395,1,0.2,0.125,35.0,1,1.0,0.28520000000003165
396,1,0.2,0.125,35.0,1,1.0,0.29120000000011714
397,1,0.2,0.125,35.0,1,1.0,0.3585000000000491
398,1,0.2,0.125,35.0,-1,0.0,0.1746000000002823
399,1,0.2,0.125,35.0,1,1.0,0.27480000000014115
400,1,0.2,0.125,35.0,1,1.0,0.3749000000000251
401,1,0.2,1.0,35.0,1,1.0,0.21220000000016626
402,1,0.2,1.0,35.0,1,1.0,0.21240000000011605
403,1,0.2,0.0625,35.0,1,1.0,0.38200000000006185
404,1,0.2,0.25,35.0,1,1.0,0.2221999999999298
405,1,0.2,0.25,35.0,1,1.0,0.08200000000010732
406,1,0.2,0.0,35.0,1,1.0,0.24860000000012406
407,1,0.2,0.0625,35.0,1,1.0,0.46220000000039363
408,1,0.2,0.125,35.0,1,1.0,0.31549999999992906
409,1,0.2,0.0,35.0,1,1.0,0.2693000000001575
410,1,0.2,0.125,35.0,1,1.0,0.28589999999985594
411,1,0.2,0.25,-35.0,-1,1.0,0.3260999999999967
412,1,0.2,0.0625,35.0,1,1.0,0.5062000000000353
413,1,0.2,1.0,35.0,1,1.0,0.2795000000000982
414,1,0.2,0.125,35.0,1,1.0,0.3297000000002299
415,1,0.2,0.0625,35.0,1,1.0,0.3260999999999967
416,1,0.2,0.0,35.0,1,1.0,0.5996999999999844
417,1,0.2,1.0,35.0,1,1.0,0.2762000000000171
418,1,0.2,0.25,35.0,1,1.0,0.30950000000007094
419,1,0.2,0.125,35.0,1,1.0,0.29690000000005057
420,1,0.2,0.25,35.0,1,1.0,0.2500000000002274
421,1,0.2,0.25,-35.0,-1,1.0,0.18319999999994252
422,1,0.2,0.125,35.0,1,1.0,0.26350000000002183
423,1,0.2,0.125,-35.0,-1,1.0,0.28680000000008476
424,1,0.2,0.125,-35.0,-1,1.0,0.2601999999999407
425,1,0.2,0.125,35.0,1,1.0,0.34720000000015716
426,1,0.2,0.0625,35.0,-1,0.0,0.13390000000003965
427,1,0.2,0.25,35.0,1,1.0,0.33100000000013097
428,1,0.8,0.125,-35.0,-1,1.0,0.1574000000000524
429,1,0.8,0.0625,-35.0,-1,1.0,0.2943000000000211
430,1,0.8,0.125,35.0,1,1.0,0.287900000000036
431,1,0.8,0.0625,35.0,-1,0.0,0.3977999999999611
432,1,0.8,0.25,-35.0,-1,1.0,0.2541999999998552
433,1,0.8,1.0,-35.0,-1,1.0,0.02140000000008513
434,1,0.8,0.125,-35.0,-1,1.0,0.30750000000011823
435,1,0.8,0.125,-35.0,-1,1.0,0.2543000000000575
436,1,0.8,1.0,-35.0,-1,1.0,0.23500000000012733
437,1,0.8,0.0,-35.0,1,0.0,0.5480000000002292
438,1,0.8,1.0,-35.0,-1,1.0,0.14780000000018845
439,1,0.8,0.0625,-35.0,1,0.0,0.291700000000219
440,1,0.8,0.0625,-35.0,-1,1.0,0.17489999999997963
441,1,0.8,1.0,-35.0,-1,1.0,0.2216000000000804
442,1,0.8,1.0,-35.0,-1,1.0,0.2218000000000302
443,1,0.8,0.0625,35.0,1,1.0,0.5285000000001219
444,1,0.8,0.0,-35.0,1,0.0,0.332300000000032
445,1,0.8,0.0,-35.0,1,0.0,0.1493000000000393
446,1,0.8,0.25,-35.0,-1,1.0,0.27520000000004075
447,1,0.8,1.0,-35.0,-1,1.0,0.2587999999998374
448,1,0.8,0.25,-35.0,-1,1.0,0.3888999999999214
449,1,0.8,0.125,-35.0,-1,1.0,0.252100000000155
450,1,0.8,0.25,35.0,1,1.0,0.3692000000000917
451,1,0.8,0.125,-35.0,-1,1.0,0.19920000000001892
452,1,0.8,0.25,-35.0,-1,1.0,0.3160000000000309
453,1,0.8,0.125,-35.0,-1,1.0,0.3526999999999134
454,1,0.8,0.0625,-35.0,-1,1.0,0.22270000000003165
455,1,0.8,0.125,-35.0,-1,1.0,0.2295000000001437
456,1,0.8,0.0625,-35.0,-1,1.0,0.7594000000001415
457,1,0.8,0.25,-35.0,-1,1.0,0.2198000000000775
458,1,0.8,0.25,35.0,1,1.0,0.43000000000006366
459,1,0.8,0.125,-35.0,-1,1.0,0.37009999999986576
460,1,0.8,0.125,-35.0,-1,1.0,0.27359999999998763
461,1,0.8,1.0,-35.0,-1,1.0,0.18990000000007967
462,1,0.8,0.0625,35.0,1,1.0,0.34699999999998
463,1,0.8,0.25,-35.0,-1,1.0,0.24030000000016116
464,1,0.8,0.0625,-35.0,-1,1.0,0.4834000000003016
465,1,0.8,1.0,-35.0,-1,1.0,0.2436999999999898
466,1,0.8,1.0,-35.0,-1,1.0,0.29700000000002547
467,1,0.8,0.25,-35.0,-1,1.0,0.45010000000024775
468,1,0.8,0.0,-35.0,1,0.0,0.5136999999999716
469,1,0.2,0.0,-35.0,-1,1.0,0.5606000000000222
470,1,0.2,0.0625,35.0,-1,0.0,0.14039999999999964
471,1,0.2,0.0,-35.0,1,0.0,0.1573000000000775
472,1,0.2,0.25,-35.0,-1,1.0,0.28140000000007603
473,1,0.2,0.0625,35.0,1,1.0,0.27140000000008513
474,1,0.2,0.0625,35.0,-1,0.0,0.08470000000011169
475,1,0.2,0.125,35.0,1,1.0,0.25440000000025975
476,1,0.2,0.125,-35.0,-1,1.0,0.038000000000010914
477,1,0.2,0.25,35.0,1,1.0,0.26830000000018117
478,1,0.2,0.25,35.0,1,1.0,0.29460000000017317
479,1,0.2,0.125,35.0,1,1.0,0.2413000000003649
480,1,0.2,1.0,35.0,1,1.0,0.21119999999996253
481,1,0.2,0.0625,-35.0,-1,1.0,0.38810000000012224
482,1,0.2,0.0,-35.0,1,0.0,0.2782000000001972
483,1,0.2,1.0,35.0,1,1.0,0.18550000000027467
484,1,0.2,0.0,35.0,1,1.0,0.6717000000003281
485,1,0.2,1.0,-35.0,-1,1.0,0.18200000000024374
486,1,0.2,0.25,35.0,1,1.0,0.10509999999999309
487,1,0.2,0.0625,35.0,1,1.0,0.21550000000024738
488,1,0.2,1.0,35.0,1,1.0,0.22870000000011714
489,1,0.2,0.25,35.0,1,1.0,0.2622000000001208
490,1,0.2,0.0625,-35.0,1,0.0,0.962500000000091
491,1,0.2,1.0,35.0,1,1.0,0.20980000000008658
492,1,0.2,0.125,35.0,1,1.0,0.24249900000017988
493,1,0.2,0.0,-35.0,1,0.0,0.46260000000006585
494,1,0.2,0.125,-35.0,-1,1.0,0.26900000000000546
495,1,0.2,0.25,35.0,1,1.0,0.22250000000008185
496,1,0.2,1.0,35.0,1,1.0,0.040000000000190994
497,1,0.2,0.25,35.0,1,1.0,0.6595999999999549
498,1,0.2,1.0,-35.0,-1,1.0,0.2360999999998512
499,1,0.2,0.0,-35.0,-1,1.0,0.6829999999999927
500,1,0.2,0.0625,35.0,1,1.0,0.21319999999991524
501,1,0.2,0.25,35.0,1,1.0,0.2533000000003085
502,1,0.2,0.0625,35.0,1,1.0,0.3135000000002037
503,1,0.2,0.0625,35.0,1,1.0,0.3867000000000189
504,1,0.2,0.0625,35.0,1,1.0,0.2401999999999589
505,1,0.2,1.0,35.0,1,1.0,0.20010000000024775
506,1,0.2,0.0625,35.0,1,1.0,0.3002000000001317
507,1,0.2,0.125,35.0,1,1.0,0.2538999999999305
508,1,0.2,1.0,35.0,1,1.0,0.24050000000011096
509,1,0.2,1.0,35.0,1,1.0,0.29710000000000036
510,1,0.2,0.125,35.0,1,1.0,0.29730000000017753
511,1,0.2,1.0,35.0,1,1.0,0.27060000000005857
512,1,0.2,0.125,35.0,1,1.0,0.37740000000030705
513,1,0.2,1.0,-35.0,-1,1.0,0.20460000000025502
514,1,0.2,0.0,35.0,-1,0.0,0.490800000000263
515,1,0.2,0.25,35.0,1,1.0,0.3642000000002099
516,1,0.2,0.0625,35.0,1,1.0,0.3745000000001255
517,1,0.2,0.0,-35.0,1,0.0,0.3185000000000855
518,1,0.2,0.0,-35.0,1,0.0,0.43790000000012697
519,1,0.2,1.0,35.0,1,1.0,0.2779000000002725
520,1,0.2,0.25,35.0,1,1.0,0.3852000000001681
521,1,0.2,0.125,35.0,1,1.0,0.29490000000009786
522,1,0.2,1.0,35.0,1,1.0,0.22540000000003602
523,1,0.2,0.0,35.0,1,1.0,0.3951000000001841
524,1,0.8,0.0625,-35.0,-1,1.0,0.37190000000009604
525,1,0.8,0.0625,-35.0,1,0.0,0.22179999999980282
526,1,0.8,1.0,-35.0,-1,1.0,0.13239999999996144
527,1,0.8,0.125,-35.0,1,0.0,0.4157000000000153
528,1,0.8,0.25,-35.0,-1,1.0,0.22890000000006694
529,1,0.8,0.125,35.0,1,1.0,0.3056000000001404
530,1,0.8,0.25,-35.0,-1,1.0,0.2795000000003256
531,1,0.8,1.0,-35.0,-1,1.0,0.23900000000003274
532,1,0.8,0.125,-35.0,-1,1.0,0.29950000000008004
533,1,0.8,0.125,-35.0,-1,1.0,0.27280000000018845
534,1,0.8,0.125,-35.0,-1,1.0,0.219300000000203
535,1,0.8,0.25,-35.0,-1,1.0,0.3225999999999658
536,1,0.8,0.0625,-35.0,-1,1.0,0.1726000000003296
537,1,0.8,0.125,-35.0,-1,1.0,0.2898000000002412
538,1,0.8,1.0,-35.0,-1,1.0,0.20610000000010587
539,1,0.8,0.25,-35.0,-1,1.0,0.22319999999990614
540,1,0.8,1.0,-35.0,-1,1.0,0.22650000000021464
541,1,0.8,0.125,-35.0,-1,1.0,0.18319999999994252
542,1,0.8,0.0,-35.0,-1,1.0,0.4133999999999105
543,1,0.8,0.0,-35.0,-1,1.0,0.26040000000011787
544,1,0.8,1.0,-35.0,-1,1.0,0.25670000000013715
545,1,0.8,0.125,-35.0,-1,1.0,0.5401000000001659
546,1,0.8,0.0,-35.0,-1,1.0,0.34360000000015134
547,1,0.8,1.0,-35.0,-1,1.0,0.2074000000000069
548,1,0.8,0.125,-35.0,-1,1.0,0.47030000000017935
549,1,0.8,1.0,-35.0,-1,1.0,0.2137000000000171
550,1,0.8,0.25,-35.0,-1,1.0,0.17390000000000327
551,1,0.8,0.125,-35.0,-1,1.0,0.27769999999986794
552,1,0.8,0.125,35.0,1,1.0,0.310799999999972
553,1,0.8,0.125,-35.0,1,0.0,0.35750000000007276
554,1,0.8,0.0625,-35.0,-1,1.0,0.17130000000020118
555,1,0.8,1.0,-35.0,-1,1.0,0.2916000000002441
556,1,0.8,0.125,-35.0,-1,1.0,0.4578000000001339
557,1,0.8,0.0,-35.0,-1,1.0,0.7550000000001091
558,1,0.8,1.0,35.0,1,1.0,0.2379000000000815
559,1,0.8,0.25,35.0,1,1.0,0.32809999999994943
560,1,0.8,0.0625,-35.0,-1,1.0,0.4015999999999167
561,1,0.8,0.25,-35.0,-1,1.0,0.23540000000002692
562,1,0.8,0.0,-35.0,-1,1.0,0.7321000000001732
563,1,0.8,0.125,35.0,1,1.0,0.7221999999999298
564,1,0.8,0.25,-35.0,-1,1.0,0.23849999999993088
565,1,0.8,0.125,-35.0,-1,1.0,0.3325000000002092
566,1,0.8,1.0,-35.0,-1,1.0,0.25590000000033797
567,1,0.8,1.0,-35.0,-1,1.0,0.2920000000001437
568,1,0.8,0.0,35.0,-1,0.0,0.46880000000010114
569,1,0.8,0.125,-35.0,1,0.0,0.45880000000011023
570,1,0.8,0.0625,35.0,1,1.0,0.29890000000023065
571,1,0.8,0.25,-35.0,-1,1.0,0.17230000000017753
572,1,0.8,1.0,-35.0,-1,1.0,0.2256999999999607
573,1,0.8,0.25,35.0,1,1.0,0.45250000000010004
574,1,0.8,1.0,-35.0,-1,1.0,0.47630000000026484
575,1,0.8,0.25,-35.0,-1,1.0,0.19270000000005894
576,1,0.8,0.25,-35.0,-1,1.0,0.29290000000014516
577,1,0.8,0.0625,-35.0,-1,1.0,0.24310000000014043
578,1,0.8,0.25,-35.0,-1,1.0,0.2198000000000775
579,1,0.8,0.0625,-35.0,-1,1.0,0.2335000000000491
580,1,0.8,1.0,-35.0,-1,1.0,0.2497000000000753
581,1,0.8,0.25,35.0,1,1.0,0.8799000000001342
582,1,0.8,1.0,-35.0,-1,1.0,0.21720000000004802
583,1,0.8,0.0625,-35.0,-1,1.0,0.2735000000002401
584,1,0.8,0.0,-35.0,-1,1.0,0.3204999999998108
585,1,0.8,0.25,-35.0,-1,1.0,0.263700000000199
586,1,0.8,0.25,-35.0,-1,1.0,0.3238000000001193
587,1,0.8,0.25,-35.0,-1,1.0,0.2803000000001248
588,1,0.8,0.125,-35.0,-1,1.0,0.29050000000029286
589,1,0.8,0.0625,-35.0,-1,1.0,0.27700000000004366
590,1,0.8,0.125,35.0,-1,0.0,0.23080000000004475
591,1,0.8,1.0,-35.0,-1,1.0,0.23730000000000473
592,1,0.8,1.0,35.0,1,1.0,0.23410000000012587
593,1,0.8,0.25,-35.0,1,0.0,0.20760000000018408
594,1,0.8,1.0,-35.0,-1,1.0,0.20090000000004693
595,1,0.8,0.25,-35.0,-1,1.0,0.23430000000007567
596,1,0.8,1.0,-35.0,-1,1.0,0.2542000000000826
597,1,0.8,0.0,35.0,-1,0.0,0.5480999999999767
598,1,0.8,0.0625,-35.0,1,0.0,0.29460000000017317
599,1,0.8,0.125,-35.0,1,0.0,0.2779000000000451
600,1,0.8,0.25,-35.0,-1,1.0,0.21210000000019136
601,1,0.8,0.25,-35.0,-1,1.0,0.23530000000005202
602,1,0.8,0.125,-35.0,-1,1.0,0.2955000000001746
603,1,0.8,0.125,-35.0,-1,1.0,-0.0013000000001284207
604,1,0.8,0.125,-35.0,-1,1.0,0.38589999999999236
605,1,0.8,0.25,35.0,1,1.0,0.2523000000001048
606,1,0.8,0.0625,-35.0,-1,1.0,0.25850000000014006
607,1,0.8,0.25,-35.0,-1,1.0,0.28539999999998145
608,1,0.8,1.0,-35.0,-1,1.0,0.2154000000000451
609,1,0.8,0.25,35.0,1,1.0,0.32880000000022847
610,1,0.8,0.0625,-35.0,-1,1.0,0.6453999999998814
611,1,0.8,0.25,-35.0,-1,1.0,0.3161999999999807
612,1,0.8,0.0625,-35.0,-1,1.0,0.2155999999999949
613,1,0.8,0.0625,-35.0,-1,1.0,0.3990999999998621
614,1,0.8,0.25,-35.0,-1,1.0,0.22270000000003165
615,1,0.8,1.0,35.0,1,1.0,0.4761000000000877
616,1,0.8,0.125,-35.0,-1,1.0,0.1832000000001699
617,1,0.8,0.25,-35.0,-1,1.0,0.16300000000001091
618,1,0.2,0.125,-35.0,-1,1.0,0.26300000000014734
619,1,0.2,1.0,35.0,1,1.0,0.2798000000002503
620,1,0.2,0.0625,35.0,-1,0.0,0.3398000000001957
621,1,0.2,1.0,35.0,1,1.0,0.2535000000000309
622,1,0.2,0.125,35.0,1,1.0,0.2905000000000655
623,1,0.2,1.0,35.0,1,1.0,0.2536000000000058
624,1,0.2,0.0625,-35.0,-1,1.0,0.4501000000000204
625,1,0.2,0.0,35.0,-1,0.0,2.3006000000000313
626,1,0.2,0.0625,35.0,1,1.0,0.4936000000002423
627,1,0.2,0.125,35.0,1,1.0,0.31080000000019936
628,1,0.2,0.0625,35.0,-1,0.0,0.27090000000021064
629,1,0.2,0.25,35.0,1,1.0,0.49729999999999563
630,1,0.2,0.25,35.0,1,1.0,0.3045000000001892
631,1,0.2,1.0,35.0,1,1.0,0.2176999999999225
632,1,0.2,0.125,-35.0,-1,1.0,0.39410000000020773
633,1,0.2,0.25,35.0,-1,0.0,0.17820000000006075
634,1,0.2,0.125,35.0,1,1.0,0.29109999999991487
635,1,0.2,1.0,35.0,1,1.0,0.327900000000227
636,1,0.2,1.0,-35.0,-1,1.0,0.287900000000036
637,1,0.2,0.0625,35.0,1,1.0,0.4851000000001022
638,1,0.2,0.0625,-35.0,1,0.0,0.7682999999999538
639,1,0.2,0.0625,35.0,1,1.0,0.3117000000002008
640,1,0.2,0.125,35.0,1,1.0,0.521900000000187
641,1,0.2,1.0,-35.0,-1,1.0,0.2417000000000371
642,1,0.2,0.125,35.0,1,1.0,0.278400000000147
643,1,0.2,0.125,35.0,1,1.0,0.40180000000009386
644,1,0.2,0.25,35.0,1,1.0,0.40850000000000364
645,1,0.2,0.0,35.0,1,1.0,0.2959000000000742
646,1,0.2,0.125,35.0,1,1.0,0.431999999999789
647,1,0.2,0.0625,-35.0,-1,1.0,0.3322000000000571
648,1,0.2,0.0625,35.0,1,1.0,0.5323000000000775
649,1,0.2,0.25,35.0,1,1.0,0.29980000000000473
650,1,0.2,0.125,35.0,1,1.0,0.46270000000004075
651,1,0.2,1.0,35.0,1,1.0,0.25240000000007967
652,1,0.2,0.0625,-35.0,1,0.0,0.3324000000000069
653,1,0.2,0.25,35.0,-1,0.0,0.14940000000024156
654,1,0.2,0.125,35.0,1,1.0,0.20970000000011169
655,1,0.2,1.0,-35.0,-1,1.0,0.25300000000015643
656,1,0.2,1.0,35.0,1,1.0,0.23310000000014952
657,1,0.2,0.125,35.0,1,1.0,0.23010000000022046
658,1,0.2,1.0,35.0,1,1.0,0.6234999999999218
659,1,0.2,1.0,35.0,1,1.0,0.28650000000016007
660,1,0.2,0.0625,35.0,1,1.0,0.2964999999999236
661,1,0.2,1.0,35.0,1,1.0,0.28720000000021173
662,1,0.8,0.25,-35.0,-1,1.0,0.26729999999997744
663,1,0.8,0.125,-35.0,-1,1.0,0.3968999999999596
664,1,0.8,1.0,-35.0,-1,1.0,0.2737000000001899
665,1,0.8,0.0625,-35.0,-1,1.0,0.3936999999998534
666,1,0.8,0.125,-35.0,-1,1.0,0.17410000000018044
667,1,0.8,0.25,-35.0,-1,1.0,0.21730000000002292
668,1,0.8,0.0625,-35.0,-1,1.0,0.2940000000000964
669,1,0.8,0.125,35.0,1,1.0,0.22720000000003893
670,1,0.8,0.25,35.0,1,1.0,0.2539000000001579
671,1,0.8,0.0625,-35.0,1,0.0,0.27739999999994325
672,1,0.8,0.0625,-35.0,-1,1.0,0.27500000000009095
673,1,0.8,0.125,-35.0,-1,1.0,0.17160000000012587
674,1,0.8,0.25,-35.0,-1,1.0,0.281800000000203
675,1,0.8,1.0,-35.0,-1,1.0,0.22119999999995343
676,1,0.8,0.0,-35.0,-1,1.0,0.8045000000001892
677,1,0.8,1.0,-35.0,-1,1.0,0.20490000000017972
678,1,0.8,0.0,-35.0,-1,1.0,2.871800000000121
679,1,0.8,1.0,-35.0,-1,1.0,0.174900000000207
680,1,0.8,0.125,-35.0,-1,1.0,0.30510000000003856
681,1,0.8,0.125,-35.0,-1,1.0,0.14540000000010878
682,1,0.2,0.25,-35.0,-1,1.0,0.20549999999957436
683,1,0.2,0.0625,35.0,-1,0.0,0.1657999999997628
684,1,0.2,0.125,35.0,-1,0.0,0.3050999999995838
685,1,0.2,0.0625,35.0,1,1.0,0.31219999999984793
686,1,0.2,0.0625,35.0,1,1.0,0.29539999999997235
687,1,0.2,1.0,35.0,1,1.0,0.26549999999997453
688,1,0.2,1.0,35.0,1,1.0,0.18890000000010332
689,1,0.2,0.0625,35.0,-1,0.0,0.23300000000017462
690,1,0.2,1.0,35.0,1,1.0,0.24569999999948777
691,1,0.2,0.0625,35.0,1,1.0,0.21629999999959182
692,1,0.2,0.25,35.0,1,1.0,0.36269999999967695
693,1,0.2,0.0625,35.0,1,1.0,1.1028000000001157
694,1,0.2,0.0625,35.0,1,1.0,0.5661999999997533
695,1,0.2,0.25,35.0,1,1.0,0.45280000000002474
696,1,0.2,0.125,-35.0,-1,1.0,0.28339999999980137
697,1,0.2,0.125,35.0,1,1.0,0.4266999999995278
698,1,0.2,0.0,35.0,-1,0.0,0.2531999999996515
699,1,0.2,0.125,35.0,1,1.0,0.44339999999965585
700,1,0.2,0.0625,35.0,1,1.0,0.4766999999997097
701,1,0.2,1.0,35.0,1,1.0,0.2666999999996733
702,1,0.2,1.0,35.0,1,1.0,0.3006999999997788
703,1,0.2,1.0,35.0,1,1.0,0.27009999999972933
704,1,0.2,0.0625,35.0,1,1.0,0.26350000000002183
705,1,0.2,0.0625,35.0,1,1.0,0.0706000000000131
706,1,0.2,0.125,35.0,1,1.0,0.5072009999998954
707,1,0.2,0.0625,35.0,-1,0.0,0.2637009999998554
708,1,0.2,0.0625,35.0,-1,0.0,0.26100099999985105
709,1,0.2,1.0,35.0,1,1.0,0.23740099999986342
710,1,0.2,0.0,35.0,1,1.0,0.2780009999996764
711,1,0.2,0.25,35.0,1,1.0,0.21780100000023594
712,1,0.2,0.0625,-35.0,1,0.0,3.798001000000113
713,1,0.2,0.25,35.0,1,1.0,0.2584009999995942
714,1,0.2,0.0625,35.0,1,1.0,0.21170100000017555
715,1,0.2,0.0625,35.0,-1,0.0,0.8650010000001203
716,1,0.2,0.125,-35.0,-1,1.0,0.16200099999969098
717,1,0.2,0.25,-35.0,-1,1.0,0.24180100000012317
718,1,0.2,0.25,35.0,1,1.0,0.3523009999998976
719,1,0.2,1.0,35.0,1,1.0,0.3258009999999558
720,1,0.2,0.0,-35.0,1,0.0,4.686000999999578
721,1,0.2,0.25,-35.0,-1,1.0,0.13210099999969316
722,1,0.2,1.0,35.0,1,1.0,0.4320009999996728
723,1,0.2,0.0625,35.0,-1,0.0,0.24890099999993254
724,1,0.2,0.125,35.0,1,1.0,0.46620100000018283
725,1,0.2,0.25,35.0,1,1.0,0.2158009999998285
726,1,0.2,0.0625,35.0,1,1.0,0.3501009999999951
727,1,0.2,0.25,35.0,1,1.0,0.3228009999997994
728,1,0.2,0.0625,35.0,1,1.0,0.23670099999981176
729,1,0.2,0.0,35.0,1,1.0,0.42950100000007296
730,1,0.2,0.125,35.0,1,1.0,0.28630100000009406
731,1,0.2,0.25,35.0,1,1.0,0.3429009999995287
732,1,0.2,0.0,35.0,-1,0.0,0.3497010000000955
733,1,0.2,1.0,35.0,1,1.0,0.29320099999995364
734,1,0.2,1.0,35.0,1,1.0,0.23660100000006423
735,1,0.2,0.125,35.0,1,1.0,0.37350100000003295
736,1,0.2,0.0,-35.0,1,0.0,0.2999009999998634
737,1,0.2,0.0,35.0,1,1.0,0.2233009999999922
738,1,0.2,1.0,35.0,1,1.0,0.21040099999981976
739,1,0.2,0.0625,-35.0,1,0.0,0.2837009999998372
740,1,0.2,0.0,35.0,1,1.0,0.26040100000000166
741,1,0.2,0.0625,35.0,-1,0.0,5.590500999999676
742,1,0.2,0.0,35.0,1,1.0,0.2810009999993781
743,1,0.2,0.125,35.0,1,1.0,0.2579009999999471
744,1,0.2,0.0,35.0,1,1.0,0.25110099999983504
745,1,0.2,1.0,35.0,1,1.0,0.32110099999999875
746,1,0.2,0.125,-35.0,-1,1.0,0.481300999999803
747,1,0.2,0.25,35.0,1,1.0,0.3545009999998001
748,1,0.2,0.125,-35.0,-1,1.0,0.35810099999980594
749,1,0.2,1.0,35.0,1,1.0,0.32860100000016246
750,1,0.2,0.0625,35.0,-1,0.0,6.845100999999886
751,1,0.2,0.0,35.0,-1,0.0,1.2918009999998503
752,1,0.2,0.125,35.0,-1,0.0,12.58860100000038
753,1,0.2,0.0625,-35.0,-1,1.0,14.159501000000091
754,1,0.2,0.25,35.0,1,1.0,0.24340100000017628
755,1,0.2,0.125,35.0,1,1.0,0.2960010000001603
756,1,0.2,0.125,35.0,-1,0.0,0.286000999999942
757,1,0.2,1.0,35.0,1,1.0,0.24960099999952945
758,1,0.2,1.0,35.0,1,1.0,0.29020100000025195
759,1,0.2,1.0,35.0,1,1.0,0.2933009999992464
760,1,0.2,0.0625,35.0,1,1.0,0.4234010000000126
761,1,0.2,1.0,35.0,1,1.0,0.23990099999991799
762,1,0.2,1.0,-35.0,-1,1.0,0.3100009999998292
763,1,0.2,1.0,35.0,1,1.0,0.25710099999969316
764,1,0.2,0.125,-35.0,-1,1.0,0.2866009999997914
765,1,0.2,0.25,35.0,1,1.0,0.2769010000001799
766,1,0.2,0.25,35.0,1,1.0,0.3305009999999129
767,1,0.8,0.25,-35.0,-1,1.0,0.2409010000001217
768,1,0.8,0.125,-35.0,-1,1.0,0.3473009999993337
769,1,0.8,0.125,-35.0,-1,1.0,0.3505009999998947
770,1,0.8,0.0625,-35.0,-1,1.0,0.29060100000015154
771,1,0.8,0.125,35.0,1,1.0,0.32430099999965023
772,1,0.8,0.25,-35.0,-1,1.0,0.5041009999999915
773,1,0.8,0.0625,-35.0,-1,1.0,0.36740099999997256
774,1,0.8,1.0,-35.0,-1,1.0,0.3250009999997019
775,1,0.8,0.0625,-35.0,-1,1.0,0.34790099999963786
776,1,0.8,0.25,-35.0,-1,1.0,0.26100099999985105
777,1,0.8,1.0,35.0,1,1.0,0.23110099999985323
778,1,0.8,0.25,-35.0,-1,1.0,0.2984010000000126
779,1,0.8,0.125,-35.0,-1,1.0,0.2714009999999689
780,1,0.8,0.0,-35.0,1,0.0,0.5182009999998627
781,1,0.8,0.125,35.0,1,1.0,0.43490099999962695
782,1,0.8,0.0,-35.0,-1,1.0,0.43860099999983504
783,1,0.8,1.0,-35.0,-1,1.0,0.23250099999995655
784,1,0.8,0.0,35.0,-1,0.0,0.22540099999969243
785,1,0.8,1.0,-35.0,-1,1.0,0.22230099999933373
786,1,0.8,1.0,35.0,1,1.0,0.19900099999949816
787,1,0.8,0.25,35.0,1,1.0,0.32550099999980375
788,1,0.8,0.0625,35.0,1,1.0,12.12550100000044
789,1,0.8,0.0625,-35.0,-1,1.0,0.3125009999998838
790,1,0.8,0.0625,-35.0,-1,1.0,0.25310099999978775
791,1,0.8,0.0625,-35.0,-1,1.0,0.37270100000023376
792,1,0.8,1.0,-35.0,-1,1.0,0.26610100000016246
793,1,0.8,0.0,35.0,-1,0.0,0.30320099999971717
794,1,0.8,1.0,-35.0,-1,1.0,0.223500999999942
795,1,0.8,0.0625,-35.0,-1,1.0,0.23660099999960948
796,1,0.8,0.0,-35.0,1,0.0,0.30650100000002567
797,1,0.8,0.0,-35.0,1,0.0,19.41000099999974
798,1,0.8,0.0625,-35.0,-1,1.0,0.38070099999958984
799,1,0.8,0.0625,-35.0,-1,1.0,0.29080100000010134
800,1,0.8,1.0,-35.0,-1,1.0,0.2508010000001377
801,1,0.8,0.0625,-35.0,1,0.0,16.827700999999706
802,1,0.8,1.0,35.0,1,1.0,0.30140099999971426
803,1,0.8,0.25,-35.0,1,0.0,0.41810099999975137
804,1,0.8,1.0,-35.0,-1,1.0,0.17140099999960512
805,1,0.8,0.25,-35.0,-1,1.0,0.42860099999961676
806,1,0.8,0.125,-35.0,-1,1.0,0.19530100000019956
807,1,0.8,0.0625,-35.0,-1,1.0,0.24510099999952217
808,1,0.2,0.25,35.0,1,1.0,0.41890099999955055
809,1,0.2,0.0625,35.0,1,1.0,0.5785009999995054
810,1,0.2,0.0625,35.0,-1,0.0,0.26870099999996455
811,1,0.2,1.0,-35.0,-1,1.0,0.20560099999966042
812,1,0.2,0.125,35.0,1,1.0,0.57870099999991
813,1,0.2,0.125,35.0,1,1.0,0.482401000000209
814,1,0.2,0.0625,-35.0,-1,1.0,0.21970099999998638
815,1,0.2,0.0625,35.0,-1,0.0,0.18570099999988088
816,1,0.2,0.125,35.0,-1,0.0,0.1693009999999049
817,1,0.2,0.0625,35.0,1,1.0,22.69600100000025
818,1,0.2,0.25,35.0,1,1.0,0.6201009999999769
819,1,0.2,0.125,35.0,1,1.0,0.49680099999977756
820,1,0.2,0.125,35.0,1,1.0,0.5603009999999813
821,1,0.2,0.25,35.0,1,1.0,0.25350099999968734
822,1,0.2,0.125,35.0,1,1.0,0.33050099999945814
823,1,0.2,0.25,35.0,1,1.0,0.27370099999961894
824,1,0.2,0.125,35.0,1,1.0,0.3072009999996226
825,1,0.2,1.0,-35.0,-1,1.0,0.22720099999969534
826,1,0.2,0.0,35.0,1,1.0,2.6642010000000482
827,1,0.2,0.25,35.0,-1,0.0,0.2846009999998387
828,1,0.2,0.125,35.0,1,1.0,0.34090100000003076
829,1,0.8,0.25,-35.0,-1,1.0,0.25110099999983504
830,1,0.8,0.25,-35.0,-1,1.0,0.22450099999969098
831,1,0.8,0.25,-35.0,-1,1.0,0.3745009999997819
832,1,0.8,0.0,35.0,1,1.0,0.6150010000001203
833,1,0.8,1.0,-35.0,-1,1.0,0.22170099999993909
834,1,0.8,0.0625,-35.0,-1,1.0,0.19510099999979502
835,1,0.8,0.125,-35.0,-1,1.0,0.2515010000001894
836,1,0.8,1.0,35.0,1,1.0,0.4917009999999209
837,1,0.8,0.25,35.0,1,1.0,0.34510099999988597
838,1,0.8,0.0,-35.0,1,0.0,0.495401000000129
839,1,0.8,0.125,-35.0,-1,1.0,0.3121009999999842
840,1,0.8,0.125,-35.0,-1,1.0,0.30200099999956365
841,1,0.8,0.0625,35.0,-1,0.0,9.758800999999494
842,1,0.8,0.0625,35.0,-1,0.0,49.70590099999981
843,1,0.8,0.25,-35.0,-1,1.0,17.34740099999999
844,1,0.8,0.125,-35.0,-1,1.0,1.2578009999997448
845,1,0.8,1.0,-35.0,-1,1.0,5.1882009999999354
846,1,0.8,0.125,35.0,1,1.0,8.851300999999694
847,1,0.8,0.25,-35.0,-1,1.0,9.105801000000156
848,1,0.8,0.25,-35.0,1,0.0,19.775501000000077
849,1,0.8,0.25,35.0,1,1.0,23.47630100000015
850,1,0.8,0.0625,-35.0,-1,1.0,3.3506009999996422
851,1,0.8,0.0625,35.0,-1,0.0,0.11430099999961385
852,1,0.8,0.0625,-35.0,1,0.0,44.33740099999977
853,1,0.8,0.0625,-35.0,-1,1.0,7.82850099999996
854,1,0.8,0.0625,35.0,-1,0.0,14.852801
855,1,0.8,0.0625,-35.0,1,0.0,23.53280099999938
856,1,0.8,0.0,35.0,-1,0.0,0.546900999999707
1,2,0.5,0.125,-35.0,1,0.0,
2,2,0.5,1.0,-35.0,-1,1.0,
3,2,0.5,0.25,35.0,1,1.0,
4,2,0.5,1.0,35.0,1,1.0,
5,2,0.5,1.0,-35.0,-1,1.0,
6,2,0.5,0.0625,35.0,-1,0.0,
7,2,0.5,0.25,35.0,1,1.0,
8,2,0.5,0.25,-35.0,-1,1.0,
9,2,0.5,1.0,-35.0,-1,1.0,
10,2,0.5,0.0625,35.0,-1,0.0,
11,2,0.5,0.125,35.0,1,1.0,
12,2,0.5,0.0,-35.0,-1,1.0,
13,2,0.5,0.0625,35.0,1,1.0,
14,2,0.5,1.0,35.0,1,1.0,
15,2,0.5,0.0,-35.0,1,0.0,
16,2,0.5,1.0,-35.0,-1,1.0,
17,2,0.5,0.0,35.0,-1,0.0,
18,2,0.5,1.0,-35.0,-1,1.0,
19,2,0.5,0.25,-35.0,-1,1.0,
20,2,0.5,1.0,35.0,1,1.0,
21,2,0.5,0.0625,-35.0,-1,1.0,
22,2,0.5,0.125,-35.0,-1,1.0,
23,2,0.5,1.0,35.0,1,1.0,
24,2,0.5,1.0,-35.0,-1,1.0,
25,2,0.5,0.25,-35.0,-1,1.0,
26,2,0.5,0.25,35.0,1,1.0,
27,2,0.5,0.0,-35.0,1,0.0,
28,2,0.5,0.0,-35.0,1,0.0,
29,2,0.5,0.0625,-35.0,-1,1.0,
30,2,0.5,1.0,-35.0,-1,1.0,
31,2,0.5,0.0,-35.0,1,0.0,
32,2,0.5,0.125,35.0,-1,0.0,
33,2,0.5,0.0,-35.0,-1,1.0,
34,2,0.5,0.25,-35.0,-1,1.0,
35,2,0.5,0.25,35.0,-1,0.0,
36,2,0.5,0.125,-35.0,-1,1.0,
37,2,0.5,0.0625,-35.0,-1,1.0,
38,2,0.5,1.0,-35.0,-1,1.0,
39,2,0.5,1.0,35.0,1,1.0,
40,2,0.5,1.0,35.0,1,1.0,
41,2,0.5,1.0,-35.0,-1,1.0,
42,2,0.5,0.125,-35.0,-1,1.0,
43,2,0.5,0.125,-35.0,-1,1.0,
44,2,0.5,0.125,-35.0,-1,1.0,
45,2,0.5,0.0625,-35.0,-1,1.0,
46,2,0.5,0.0,35.0,1,1.0,
47,2,0.5,0.25,-35.0,1,0.0,
48,2,0.5,0.125,-35.0,-1,1.0,
49,2,0.5,0.0,-35.0,1,0.0,
50,2,0.5,0.25,-35.0,-1,1.0,
51,2,0.5,0.25,35.0,1,1.0,
52,2,0.5,1.0,35.0,1,1.0,
53,2,0.5,0.125,35.0,1,1.0,
54,2,0.5,0.125,35.0,1,1.0,
55,2,0.5,0.125,-35.0,-1,1.0,
56,2,0.5,0.25,-35.0,1,0.0,
57,2,0.5,0.0,-35.0,-1,1.0,
58,2,0.5,0.25,35.0,1,1.0,
59,2,0.5,0.0,-35.0,1,0.0,
60,2,0.5,0.0625,35.0,-1,0.0,
61,2,0.5,0.0,35.0,-1,0.0,
62,2,0.5,0.0625,35.0,1,1.0,
63,2,0.5,1.0,35.0,1,1.0,
64,2,0.5,1.0,35.0,1,1.0,
65,2,0.5,0.0,-35.0,-1,1.0,
66,2,0.5,0.0,-35.0,1,0.0,
67,2,0.5,0.125,-35.0,-1,1.0,
68,2,0.5,1.0,35.0,1,1.0,
69,2,0.5,1.0,35.0,1,1.0,
70,2,0.5,0.0625,-35.0,1,0.0,
71,2,0.5,1.0,-35.0,-1,1.0,
72,2,0.5,0.25,35.0,1,1.0,
73,2,0.5,0.125,-35.0,-1,1.0,
74,2,0.5,1.0,35.0,1,1.0,
75,2,0.5,0.25,35.0,1,1.0,
76,2,0.5,0.125,35.0,-1,0.0,
77,2,0.5,0.125,35.0,-1,0.0,
78,2,0.5,1.0,35.0,1,1.0,
79,2,0.5,0.0625,-35.0,1,0.0,
80,2,0.5,0.125,35.0,1,1.0,
81,2,0.5,0.25,35.0,1,1.0,
82,2,0.5,0.125,35.0,1,1.0,
83,2,0.5,0.125,-35.0,-1,1.0,
84,2,0.5,0.0625,-35.0,-1,1.0,
85,2,0.5,0.125,-35.0,-1,1.0,
86,2,0.5,0.125,-35.0,-1,1.0,
87,2,0.5,0.125,35.0,1,1.0,
88,2,0.5,0.0625,-35.0,-1,1.0,
89,2,0.5,0.25,-35.0,-1,1.0,
90,2,0.5,0.125,35.0,-1,0.0,
91,2,0.8,0.125,-35.0,-1,1.0,
92,2,0.8,0.125,-35.0,-1,1.0,
93,2,0.8,0.125,-35.0,-1,1.0,
94,2,0.8,0.0,35.0,-1,0.0,
95,2,0.8,1.0,-35.0,-1,1.0,
96,2,0.8,0.0625,-35.0,-1,1.0,
97,2,0.8,0.25,-35.0,-1,1.0,
98,2,0.8,0.0625,-35.0,-1,1.0,
99,2,0.8,0.25,35.0,1,1.0,
100,2,0.8,0.25,-35.0,-1,1.0,
101,2,0.8,0.125,-35.0,-1,1.0,
102,2,0.8,0.0,35.0,1,1.0,
103,2,0.8,0.125,-35.0,-1,1.0,
104,2,0.8,0.0625,-35.0,1,0.0,
105,2,0.8,0.25,-35.0,-1,1.0,
106,2,0.8,0.0625,-35.0,-1,1.0,
107,2,0.8,0.0625,-35.0,-1,1.0,
108,2,0.8,0.125,35.0,1,1.0,
109,2,0.8,0.25,-35.0,-1,1.0,
110,2,0.8,0.0625,-35.0,-1,1.0,
111,2,0.2,0.0625,35.0,1,1.0,
112,2,0.2,0.125,35.0,1,1.0,
113,2,0.2,1.0,35.0,-1,0.0,
114,2,0.2,1.0,35.0,1,1.0,
115,2,0.2,0.0625,-35.0,-1,1.0,
116,2,0.2,1.0,35.0,1,1.0,
117,2,0.2,0.0625,35.0,-1,0.0,
118,2,0.2,0.125,35.0,1,1.0,
119,2,0.2,0.25,35.0,1,1.0,
120,2,0.2,1.0,35.0,1,1.0,
121,2,0.2,0.0625,35.0,1,1.0,
122,2,0.2,0.0625,35.0,1,1.0,
123,2,0.2,0.25,35.0,-1,0.0,
124,2,0.2,0.25,35.0,1,1.0,
125,2,0.2,0.25,35.0,1,1.0,
126,2,0.2,0.0625,35.0,1,1.0,
127,2,0.2,1.0,-35.0,-1,1.0,
128,2,0.2,0.125,35.0,-1,0.0,
129,2,0.2,0.125,35.0,1,1.0,
130,2,0.2,1.0,35.0,1,1.0,
131,2,0.2,0.0625,-35.0,-1,1.0,
132,2,0.2,0.25,35.0,1,1.0,
133,2,0.2,0.0,35.0,-1,0.0,
134,2,0.2,0.25,35.0,1,1.0,
135,2,0.2,0.0,35.0,1,1.0,
136,2,0.2,0.25,35.0,1,1.0,
137,2,0.2,0.0625,-35.0,-1,1.0,
138,2,0.2,0.25,35.0,1,1.0,
139,2,0.8,0.25,-35.0,-1,1.0,
140,2,0.8,0.0625,-35.0,-1,1.0,
141,2,0.8,0.0625,-35.0,-1,1.0,
142,2,0.8,0.25,-35.0,-1,1.0,
143,2,0.8,0.125,-35.0,-1,1.0,
144,2,0.8,0.25,-35.0,-1,1.0,
145,2,0.8,0.0,35.0,-1,0.0,
146,2,0.8,0.25,-35.0,-1,1.0,
147,2,0.8,0.25,-35.0,-1,1.0,
148,2,0.8,0.125,-35.0,-1,1.0,
149,2,0.8,0.125,35.0,1,1.0,
150,2,0.8,0.25,35.0,1,1.0,
151,2,0.8,1.0,-35.0,-1,1.0,
152,2,0.8,0.25,-35.0,-1,1.0,
153,2,0.8,0.125,-35.0,-1,1.0,
154,2,0.8,1.0,-35.0,-1,1.0,
155,2,0.8,0.125,-35.0,-1,1.0,
156,2,0.8,0.0625,-35.0,-1,1.0,
157,2,0.8,0.25,35.0,1,1.0,
158,2,0.8,0.25,35.0,1,1.0,
159,2,0.8,0.0625,35.0,1,1.0,
160,2,0.8,0.0625,-35.0,-1,1.0,
161,2,0.8,1.0,-35.0,-1,1.0,
162,2,0.8,0.125,-35.0,1,0.0,
163,2,0.8,1.0,35.0,-1,0.0,
164,2,0.8,0.0,-35.0,-1,1.0,
165,2,0.8,1.0,-35.0,-1,1.0,
166,2,0.8,0.25,-35.0,-1,1.0,
167,2,0.8,0.0,-35.0,-1,1.0,
168,2,0.8,0.125,-35.0,-1,1.0,
169,2,0.8,0.25,-35.0,1,0.0,
170,2,0.8,0.0,-35.0,-1,1.0,
171,2,0.8,0.25,-35.0,-1,1.0,
172,2,0.8,1.0,-35.0,-1,1.0,
173,2,0.8,0.0625,-35.0,-1,1.0,
174,2,0.8,0.125,-35.0,-1,1.0,
175,2,0.8,0.25,35.0,1,1.0,
176,2,0.8,0.25,-35.0,1,0.0,
177,2,0.8,0.125,-35.0,1,0.0,
178,2,0.8,0.25,-35.0,-1,1.0,
179,2,0.8,0.0,-35.0,-1,1.0,
180,2,0.8,0.25,-35.0,-1,1.0,
181,2,0.8,0.0625,-35.0,-1,1.0,
182,2,0.8,0.25,35.0,1,1.0,
183,2,0.8,0.0625,-35.0,1,0.0,
184,2,0.8,1.0,-35.0,-1,1.0,
185,2,0.8,0.0625,35.0,1,1.0,
186,2,0.8,0.25,-35.0,-1,1.0,
187,2,0.8,0.0625,-35.0,-1,1.0,
188,2,0.8,1.0,-35.0,-1,1.0,
189,2,0.8,0.0,-35.0,-1,1.0,
190,2,0.8,1.0,-35.0,-1,1.0,
191,2,0.8,0.0625,-35.0,-1,1.0,
192,2,0.8,0.125,-35.0,-1,1.0,
193,2,0.8,1.0,-35.0,-1,1.0,
194,2,0.8,0.125,35.0,1,1.0,
195,2,0.8,0.0625,-35.0,-1,1.0,
196,2,0.8,0.25,35.0,1,1.0,
197,2,0.8,0.25,35.0,1,1.0,
198,2,0.8,0.25,-35.0,-1,1.0,
199,2,0.8,0.25,-35.0,-1,1.0,
200,2,0.8,1.0,-35.0,-1,1.0,
201,2,0.8,0.125,-35.0,-1,1.0,
202,2,0.8,0.0625,35.0,1,1.0,
203,2,0.8,0.0625,35.0,1,1.0,
204,2,0.8,0.0625,-35.0,-1,1.0,
205,2,0.8,0.0,-35.0,-1,1.0,
206,2,0.8,0.0625,-35.0,-1,1.0,
207,2,0.8,0.25,-35.0,-1,1.0,
208,2,0.8,0.25,-35.0,-1,1.0,
209,2,0.8,1.0,35.0,1,1.0,
210,2,0.8,0.125,-35.0,-1,1.0,
211,2,0.8,1.0,-35.0,-1,1.0,
212,2,0.8,0.25,-35.0,-1,1.0,
213,2,0.8,1.0,-35.0,-1,1.0,
214,2,0.8,0.25,35.0,1,1.0,
215,2,0.8,1.0,-35.0,-1,1.0,
216,2,0.8,0.0625,-35.0,-1,1.0,
217,2,0.8,0.125,-35.0,-1,1.0,
218,2,0.8,1.0,-35.0,-1,1.0,
219,2,0.8,0.0625,35.0,1,1.0,
220,2,0.2,0.125,35.0,-1,0.0,
221,2,0.2,0.125,35.0,-1,0.0,
222,2,0.2,1.0,35.0,-1,0.0,
223,2,0.2,0.125,35.0,1,1.0,
224,2,0.2,1.0,-35.0,-1,1.0,
225,2,0.2,0.125,35.0,1,1.0,
226,2,0.2,1.0,35.0,1,1.0,
227,2,0.2,0.0,35.0,-1,0.0,
228,2,0.2,0.0625,35.0,1,1.0,
229,2,0.2,1.0,35.0,1,1.0,
230,2,0.2,0.125,-35.0,-1,1.0,
231,2,0.2,0.125,35.0,1,1.0,
232,2,0.2,1.0,35.0,1,1.0,
233,2,0.2,0.125,35.0,-1,0.0,
234,2,0.2,0.25,35.0,1,1.0,
235,2,0.2,1.0,35.0,1,1.0,
236,2,0.2,0.0625,35.0,1,1.0,
237,2,0.2,0.0625,35.0,1,1.0,
238,2,0.2,1.0,35.0,1,1.0,
239,2,0.2,0.0,35.0,-1,0.0,
240,2,0.2,0.25,35.0,1,1.0,
241,2,0.2,0.0625,-35.0,-1,1.0,
242,2,0.2,1.0,35.0,1,1.0,
243,2,0.2,0.0625,35.0,-1,0.0,
244,2,0.2,0.25,35.0,-1,0.0,
245,2,0.2,0.125,-35.0,-1,1.0,
246,2,0.2,0.0625,35.0,-1,0.0,
247,2,0.2,1.0,35.0,1,1.0,
248,2,0.2,0.0625,-35.0,1,0.0,
249,2,0.2,0.0,-35.0,-1,1.0,
250,2,0.2,0.125,35.0,-1,0.0,
251,2,0.2,0.25,35.0,1,1.0,
252,2,0.2,1.0,35.0,1,1.0,
253,2,0.2,0.0,35.0,-1,0.0,
254,2,0.2,0.25,35.0,-1,0.0,
255,2,0.2,1.0,35.0,1,1.0,
256,2,0.2,0.0625,35.0,1,1.0,
257,2,0.2,0.0625,35.0,1,1.0,
258,2,0.2,1.0,35.0,1,1.0,
259,2,0.2,0.0625,35.0,1,1.0,
260,2,0.2,1.0,-35.0,-1,1.0,
261,2,0.2,1.0,35.0,1,1.0,
262,2,0.2,0.25,35.0,-1,0.0,
263,2,0.2,0.25,35.0,1,1.0,
264,2,0.2,0.125,35.0,1,1.0,
265,2,0.2,0.0,35.0,-1,0.0,
266,2,0.2,0.25,35.0,-1,0.0,
267,2,0.2,0.0625,-35.0,-1,1.0,
268,2,0.2,1.0,35.0,1,1.0,
269,2,0.2,0.0625,35.0,-1,0.0,
270,2,0.2,0.0625,35.0,1,1.0,
271,2,0.2,0.0,35.0,-1,0.0,
272,2,0.2,0.25,35.0,-1,0.0,
273,2,0.2,0.0,35.0,-1,0.0,
274,2,0.2,0.125,35.0,1,1.0,
275,2,0.2,0.25,35.0,1,1.0,
276,2,0.2,0.125,-35.0,-1,1.0,
277,2,0.2,0.0625,35.0,-1,0.0,
278,2,0.2,0.125,35.0,-1,0.0,
279,2,0.2,0.25,35.0,1,1.0,
280,2,0.2,0.25,35.0,1,1.0,
281,2,0.2,1.0,35.0,1,1.0,
282,2,0.2,0.0,35.0,-1,0.0,
283,2,0.2,1.0,-35.0,-1,1.0,
284,2,0.2,0.25,-35.0,-1,1.0,
285,2,0.2,0.25,35.0,1,1.0,
286,2,0.8,0.0,-35.0,-1,1.0,
287,2,0.8,0.125,-35.0,-1,1.0,
288,2,0.8,0.0625,-35.0,-1,1.0,
289,2,0.8,0.0625,-35.0,1,0.0,
290,2,0.8,1.0,-35.0,-1,1.0,
291,2,0.8,0.0625,-35.0,1,0.0,
292,2,0.8,0.125,-35.0,-1,1.0,
293,2,0.8,0.25,-35.0,-1,1.0,
294,2,0.8,1.0,-35.0,-1,1.0,
295,2,0.8,1.0,-35.0,-1,1.0,
296,2,0.8,0.0625,-35.0,-1,1.0,
297,2,0.8,0.125,-35.0,-1,1.0,
298,2,0.8,0.25,-35.0,-1,1.0,
299,2,0.8,0.25,-35.0,-1,1.0,
300,2,0.8,0.0625,-35.0,-1,1.0,
301,2,0.8,1.0,-35.0,-1,1.0,
302,2,0.8,0.25,-35.0,-1,1.0,
303,2,0.8,1.0,-35.0,-1,1.0,
304,2,0.8,0.125,-35.0,-1,1.0,
305,2,0.8,1.0,-35.0,-1,1.0,
306,2,0.8,0.0,35.0,1,1.0,
307,2,0.8,0.0625,-35.0,1,0.0,
308,2,0.8,0.125,35.0,1,1.0,
309,2,0.8,0.25,-35.0,-1,1.0,
310,2,0.8,0.125,-35.0,-1,1.0,
311,2,0.8,1.0,35.0,1,1.0,
312,2,0.8,1.0,-35.0,-1,1.0,
313,2,0.8,0.125,-35.0,-1,1.0,
314,2,0.8,0.0,-35.0,-1,1.0,
315,2,0.8,0.125,35.0,-1,0.0,
316,2,0.8,0.0625,-35.0,1,0.0,
317,2,0.8,0.125,-35.0,-1,1.0,
318,2,0.8,0.0625,-35.0,-1,1.0,
319,2,0.8,0.25,-35.0,-1,1.0,
320,2,0.8,0.125,-35.0,-1,1.0,
321,2,0.8,1.0,-35.0,-1,1.0,
322,2,0.8,0.125,-35.0,-1,1.0,
323,2,0.8,0.0,35.0,-1,0.0,
324,2,0.8,0.0625,-35.0,-1,1.0,
325,2,0.8,0.0625,-35.0,-1,1.0,
326,2,0.8,0.125,35.0,1,1.0,
327,2,0.8,0.125,-35.0,-1,1.0,
328,2,0.8,0.125,35.0,1,1.0,
329,2,0.8,0.0,-35.0,1,0.0,
330,2,0.8,0.125,-35.0,-1,1.0,
331,2,0.8,0.0,-35.0,1,0.0,
332,2,0.8,0.125,-35.0,-1,1.0,
333,2,0.8,0.125,35.0,1,1.0,
334,2,0.8,0.0625,-35.0,-1,1.0,
335,2,0.8,0.0,35.0,-1,0.0,
336,2,0.8,0.25,-35.0,-1,1.0,
337,2,0.8,1.0,-35.0,-1,1.0,
338,2,0.8,0.0,35.0,-1,0.0,
339,2,0.8,0.0625,-35.0,-1,1.0,
340,2,0.8,0.0625,-35.0,-1,1.0,
341,2,0.8,0.25,-35.0,-1,1.0,
342,2,0.8,0.25,35.0,1,1.0,
343,2,0.8,0.0,-35.0,-1,1.0,
344,2,0.8,0.125,35.0,-1,0.0,
345,2,0.8,0.0,-35.0,-1,1.0,
346,2,0.8,0.25,35.0,1,1.0,
347,2,0.8,1.0,-35.0,-1,1.0,
348,2,0.8,0.0625,-35.0,-1,1.0,
349,2,0.8,0.0625,35.0,-1,0.0,
350,2,0.8,0.25,-35.0,-1,1.0,
351,2,0.8,0.0625,-35.0,-1,1.0,
352,2,0.8,0.0625,35.0,1,1.0,
353,2,0.8,0.0625,35.0,1,1.0,
354,2,0.8,1.0,-35.0,-1,1.0,
355,2,0.8,0.125,35.0,1,1.0,
356,2,0.8,1.0,-35.0,-1,1.0,
357,2,0.8,0.0625,35.0,-1,0.0,
358,2,0.8,0.0625,-35.0,-1,1.0,
359,2,0.2,1.0,35.0,1,1.0,
360,2,0.2,0.0625,35.0,1,1.0,
361,2,0.2,1.0,35.0,1,1.0,
362,2,0.2,0.25,35.0,1,1.0,
363,2,0.2,1.0,35.0,1,1.0,
364,2,0.2,0.25,-35.0,-1,1.0,
365,2,0.2,0.0625,35.0,-1,0.0,
366,2,0.2,0.25,-35.0,-1,1.0,
367,2,0.2,1.0,35.0,1,1.0,
368,2,0.2,1.0,35.0,1,1.0,
369,2,0.2,0.0625,35.0,1,1.0,
370,2,0.2,0.25,35.0,1,1.0,
371,2,0.2,0.25,35.0,1,1.0,
372,2,0.2,0.0625,35.0,1,1.0,
373,2,0.2,1.0,-35.0,-1,1.0,
374,2,0.2,0.125,35.0,-1,0.0,
375,2,0.2,0.0625,-35.0,1,0.0,
376,2,0.2,0.0,35.0,1,1.0,
377,2,0.2,0.125,35.0,1,1.0,
378,2,0.2,0.25,-35.0,-1,1.0,
379,2,0.2,0.125,-35.0,-1,1.0,
380,2,0.2,0.0625,35.0,-1,0.0,
381,2,0.8,0.0625,-35.0,-1,1.0,
382,2,0.8,0.25,-35.0,1,0.0,
383,2,0.8,0.125,-35.0,1,0.0,
384,2,0.8,0.25,-35.0,-1,1.0,
385,2,0.8,0.125,-35.0,-1,1.0,
386,2,0.8,0.25,-35.0,-1,1.0,
387,2,0.8,0.25,-35.0,-1,1.0,
388,2,0.8,0.25,35.0,1,1.0,
389,2,0.8,0.125,35.0,1,1.0,
390,2,0.8,1.0,-35.0,-1,1.0,
391,2,0.8,1.0,35.0,1,1.0,
392,2,0.8,0.25,-35.0,-1,1.0,
393,2,0.8,0.125,-35.0,-1,1.0,
394,2,0.8,1.0,-35.0,-1,1.0,
395,2,0.8,0.125,-35.0,-1,1.0,
396,2,0.8,0.125,35.0,1,1.0,
397,2,0.8,0.0625,-35.0,-1,1.0,
398,2,0.8,0.125,-35.0,-1,1.0,
399,2,0.8,1.0,-35.0,-1,1.0,
400,2,0.8,0.25,35.0,1,1.0,
401,2,0.8,0.25,-35.0,-1,1.0,
402,2,0.8,1.0,-35.0,-1,1.0,
403,2,0.8,0.125,-35.0,-1,1.0,
404,2,0.8,1.0,-35.0,-1,1.0,
405,2,0.8,1.0,-35.0,-1,1.0,
406,2,0.8,0.0,-35.0,1,0.0,
407,2,0.2,1.0,35.0,1,1.0,
408,2,0.2,0.0,35.0,1,1.0,
409,2,0.2,0.0,-35.0,1,0.0,
410,2,0.2,1.0,35.0,1,1.0,
411,2,0.2,0.25,35.0,1,1.0,
412,2,0.2,1.0,35.0,1,1.0,
413,2,0.2,0.0625,35.0,1,1.0,
414,2,0.2,0.25,-35.0,-1,1.0,
415,2,0.2,0.125,35.0,-1,0.0,
416,2,0.2,0.125,35.0,-1,0.0,
417,2,0.2,0.0,35.0,-1,0.0,
418,2,0.2,1.0,35.0,1,1.0,
419,2,0.2,0.0,35.0,1,1.0,
420,2,0.2,1.0,35.0,1,1.0,
421,2,0.2,0.0,35.0,1,1.0,
422,2,0.2,0.125,35.0,-1,0.0,
423,2,0.2,0.0625,35.0,1,1.0,
424,2,0.2,0.25,-35.0,-1,1.0,
425,2,0.2,0.25,35.0,1,1.0,
426,2,0.2,0.0,-35.0,1,0.0,
427,2,0.2,0.25,35.0,1,1.0,
428,2,0.8,0.25,-35.0,-1,1.0,
429,2,0.8,1.0,35.0,1,1.0,
430,2,0.8,1.0,-35.0,-1,1.0,
431,2,0.8,0.0625,-35.0,1,0.0,
432,2,0.8,1.0,-35.0,-1,1.0,
433,2,0.8,1.0,-35.0,-1,1.0,
434,2,0.8,0.125,-35.0,-1,1.0,
435,2,0.8,0.0,-35.0,-1,1.0,
436,2,0.8,0.125,-35.0,1,0.0,
437,2,0.8,0.25,-35.0,-1,1.0,
438,2,0.8,0.25,35.0,-1,0.0,
439,2,0.8,0.0,-35.0,1,0.0,
440,2,0.8,0.25,-35.0,-1,1.0,
441,2,0.8,0.125,-35.0,-1,1.0,
442,2,0.8,0.25,35.0,1,1.0,
443,2,0.8,0.125,-35.0,-1,1.0,
444,2,0.8,0.0625,-35.0,-1,1.0,
445,2,0.8,0.0,-35.0,1,0.0,
446,2,0.8,0.0625,-35.0,-1,1.0,
447,2,0.8,0.0625,-35.0,-1,1.0,
448,2,0.8,0.125,-35.0,-1,1.0,
449,2,0.8,0.25,35.0,-1,0.0,
450,2,0.8,0.125,-35.0,-1,1.0,
451,2,0.8,1.0,-35.0,-1,1.0,
452,2,0.8,0.25,35.0,1,1.0,
453,2,0.8,1.0,-35.0,-1,1.0,
454,2,0.8,0.125,35.0,-1,0.0,
455,2,0.8,0.125,-35.0,-1,1.0,
456,2,0.8,1.0,35.0,1,1.0,
457,2,0.8,0.125,-35.0,1,0.0,
458,2,0.8,0.25,35.0,1,1.0,
459,2,0.8,0.0625,-35.0,-1,1.0,
460,2,0.8,0.125,-35.0,-1,1.0,
461,2,0.8,0.125,-35.0,1,0.0,
462,2,0.8,0.125,-35.0,1,0.0,
463,2,0.8,0.0625,35.0,1,1.0,
464,2,0.8,0.0625,-35.0,-1,1.0,
465,2,0.2,0.125,35.0,1,1.0,
466,2,0.2,0.25,35.0,1,1.0,
467,2,0.2,0.125,35.0,1,1.0,
468,2,0.2,0.0,-35.0,1,0.0,
469,2,0.2,0.0625,35.0,-1,0.0,
470,2,0.2,0.0625,35.0,-1,0.0,
471,2,0.2,0.25,35.0,1,1.0,
472,2,0.2,1.0,35.0,1,1.0,
1,3,0.5,1.0,35.0,1,1.0,2.6235
2,3,0.5,0.0625,-35.0,1,0.0,0.4839999999999982
3,3,0.5,0.0625,-35.0,1,0.0,0.23959999999999937
4,3,0.5,0.0625,35.0,-1,0.0,0.31489999999999796
5,3,0.5,0.25,35.0,-1,0.0,0.20400000000000063
6,3,0.5,0.25,-35.0,-1,1.0,0.23770000000000024
7,3,0.5,0.0,35.0,-1,0.0,0.17609999999999815
8,3,0.5,0.125,35.0,-1,0.0,0.20190000000000197
9,3,0.5,0.0625,35.0,-1,0.0,0.24100000000000676
10,3,0.5,0.25,35.0,1,1.0,0.2691999999999979
11,3,0.5,0.25,35.0,-1,0.0,0.18770000000000664
12,3,0.5,0.25,-35.0,-1,1.0,0.19580000000000553
13,3,0.5,0.25,35.0,1,1.0,0.42210000000000036
14,3,0.5,0.0625,-35.0,1,0.0,0.2603999999999971
15,3,0.5,0.0625,35.0,-1,0.0,0.2698000000000036
16,3,0.5,0.125,-35.0,-1,1.0,0.19840000000000657
17,3,0.5,0.0,35.0,-1,0.0,0.12760000000000105
18,3,0.5,1.0,35.0,1,1.0,0.285499999999999
19,3,0.5,0.0625,35.0,-1,0.0,0.18779999999999575
20,3,0.5,0.0625,35.0,1,1.0,1.4106000000000023
21,3,0.5,0.0,-35.0,1,0.0,0.06459999999998445
22,3,0.5,0.125,35.0,-1,0.0,0.11699999999999022
23,3,0.5,0.0,35.0,-1,0.0,0.2044000000000068
24,3,0.5,0.0,35.0,-1,0.0,0.14709999999999468
25,3,0.5,1.0,-35.0,-1,1.0,0.9393000000000029
26,3,0.5,0.0625,-35.0,1,0.0,1.6082999999999998
27,3,0.5,1.0,35.0,1,1.0,1.2154000000000025
28,3,0.5,1.0,35.0,-1,0.0,0.1670000000000016
29,3,0.5,0.0625,35.0,-1,0.0,0.08759999999998058
30,3,0.5,0.25,-35.0,-1,1.0,0.20590000000001396
31,3,0.5,0.0625,-35.0,-1,1.0,0.20630000000001303
32,3,0.5,1.0,-35.0,-1,1.0,0.08749999999999147
33,3,0.5,0.25,35.0,1,1.0,-0.0018000000000029104
34,3,0.5,0.25,35.0,-1,0.0,0.20080000000000098
35,3,0.5,0.25,35.0,-1,0.0,0.17999899999999514
36,3,0.5,0.0625,35.0,-1,0.0,0.22129999999998518
37,3,0.5,0.0,35.0,-1,0.0,0.2686999999999671
38,3,0.5,0.0625,35.0,-1,0.0,0.32789999999999964
39,3,0.5,0.25,-35.0,-1,1.0,0.21330000000000382
40,3,0.5,0.25,-35.0,-1,1.0,0.16629999999997835
41,3,0.5,1.0,-35.0,-1,1.0,0.18020000000001346
42,3,0.5,0.25,35.0,-1,0.0,0.27189999999998804
43,3,0.5,0.125,35.0,-1,0.0,0.18429999999997904
44,3,0.5,0.125,-35.0,-1,1.0,0.26429999999999154
45,3,0.5,0.125,35.0,-1,0.0,0.1266999999999996
46,3,0.5,1.0,35.0,-1,0.0,0.13570000000001414
47,3,0.5,0.0,-35.0,-1,1.0,0.13949999999999818
48,3,0.5,0.25,35.0,-1,0.0,0.16209999999998104
49,3,0.5,0.0,-35.0,-1,1.0,0.11239999999997963
50,3,0.5,0.0,-35.0,-1,1.0,0.18710000000001514
51,3,0.5,0.0,-35.0,-1,1.0,0.1525000000000034
52,3,0.5,0.0625,-35.0,-1,1.0,0.21989999999999554
53,3,0.5,0.25,-35.0,-1,1.0,0.14680000000001314
54,3,0.5,0.0625,-35.0,-1,1.0,0.1650989999999979
55,3,0.5,0.125,-35.0,-1,1.0,0.18890000000001805
56,3,0.5,0.0,-35.0,-1,1.0,0.18309999999999604
57,3,0.5,1.0,-35.0,-1,1.0,0.16519999999997026
58,3,0.5,0.0625,-35.0,-1,1.0,0.7276999999999987
59,3,0.5,1.0,-35.0,-1,1.0,0.07509999999999195
60,3,0.5,0.0625,35.0,-1,0.0,0.1891999999999996
61,3,0.5,0.25,35.0,-1,0.0,0.03640000000001464
62,3,0.5,1.0,-35.0,-1,1.0,0.1828000000000145
63,3,0.5,0.0,-35.0,-1,1.0,0.14369999999996708
64,3,0.5,0.0,-35.0,-1,1.0,0.17480000000000473
65,3,0.5,1.0,-35.0,-1,1.0,0.17249999999998522
66,3,0.5,0.0,35.0,1,1.0,1.907199999999989
67,3,0.5,0.125,-35.0,-1,1.0,0.006699999999995043
68,3,0.5,1.0,35.0,1,1.0,0.28709999999998104
69,3,0.5,0.125,-35.0,-1,1.0,0.20029999999997017
70,3,0.5,0.0,-35.0,1,0.0,0.2949999999999875
71,3,0.5,0.0625,35.0,-1,0.0,0.19319999999999027
72,3,0.5,0.25,35.0,1,1.0,0.2810000000000059
73,3,0.5,1.0,-35.0,-1,1.0,0.155399999999986
74,3,0.5,1.0,-35.0,-1,1.0,0.17580000000003793
75,3,0.5,0.0625,35.0,-1,0.0,0.21010000000001128
76,3,0.5,0.0625,-35.0,-1,1.0,0.15559999999999263
77,3,0.5,1.0,-35.0,-1,1.0,0.1665999999999599
78,3,0.5,0.125,-35.0,-1,1.0,0.12700000000000955
79,3,0.5,1.0,35.0,-1,0.0,0.1382000000000403
80,3,0.5,0.125,-35.0,-1,1.0,0.1934999999999718
81,3,0.5,1.0,35.0,-1,0.0,0.15489999999994097
82,3,0.5,1.0,-35.0,-1,1.0,0.11789999999996326
83,3,0.5,0.125,-35.0,-1,1.0,0.18010000000003856
84,3,0.5,1.0,-35.0,-1,1.0,0.17879999999996699
85,3,0.5,0.25,-35.0,-1,1.0,0.19079999999996744
86,3,0.5,1.0,35.0,-1,0.0,0.1460999999999899
87,3,0.5,1.0,35.0,-1,0.0,0.15679999999997563
88,3,0.5,0.25,-35.0,-1,1.0,0.16399999999998727
89,3,0.5,1.0,-35.0,-1,1.0,0.174699999999973
90,3,0.5,0.25,-35.0,-1,1.0,0.11820000000000164
91,3,0.2,0.125,35.0,-1,0.0,0.058899999999937336
92,3,0.2,0.25,35.0,-1,0.0,0.2045999999999708
93,3,0.2,0.125,35.0,-1,0.0,0.2575999999999681
94,3,0.2,0.0625,35.0,-1,0.0,0.08840000000003556
95,3,0.2,0.25,-35.0,-1,1.0,0.1400000000000432
96,3,0.2,0.125,35.0,-1,0.0,0.15679999999997563
97,3,0.2,0.0625,35.0,-1,0.0,0.11489999999997735
98,3,0.2,0.0,35.0,-1,0.0,0.14210000000002765
99,3,0.2,0.125,35.0,1,1.0,0.2840999999999667
100,3,0.2,0.0,35.0,-1,0.0,0.14179999999998927
101,3,0.2,0.125,35.0,-1,0.0,0.12630000000001473
102,3,0.2,1.0,35.0,-1,0.0,0.09550000000001546
103,3,0.2,0.0625,35.0,-1,0.0,0.10369999999994661
104,3,0.2,1.0,35.0,1,1.0,0.2085999999999899
105,3,0.2,0.0625,35.0,1,1.0,0.23539999999997008
106,3,0.2,0.0625,35.0,1,1.0,0.3609000000000151
107,3,0.2,0.0,35.0,-1,0.0,2.5031000000000176
108,3,0.2,1.0,-35.0,-1,1.0,0.132000000000005
109,3,0.2,0.25,-35.0,-1,1.0,0.2259000000000242
110,3,0.2,0.125,35.0,-1,0.0,0.14369999999996708
111,3,0.2,0.25,35.0,-1,0.0,0.1238999999999919
112,3,0.2,0.0,35.0,-1,0.0,0.11580000000003565
113,3,0.2,1.0,-35.0,-1,1.0,0.12050000000004957
114,3,0.2,0.125,35.0,-1,0.0,0.14629999999999654
115,3,0.2,0.25,35.0,-1,0.0,0.16590000000002192
116,3,0.2,0.125,35.0,-1,0.0,0.12299999999999045
117,3,0.2,1.0,35.0,-1,0.0,0.15359999999998308
118,3,0.2,1.0,35.0,-1,0.0,0.12960000000003902
119,3,0.2,0.25,35.0,-1,0.0,0.10190000000000055
120,3,0.2,0.0625,35.0,-1,0.0,0.10120000000000573
121,3,0.2,1.0,35.0,1,1.0,0.2401999999999589
122,3,0.2,0.125,-35.0,-1,1.0,0.3529999999999518
123,3,0.2,1.0,35.0,1,1.0,0.3328000000000202
124,3,0.2,1.0,35.0,-1,0.0,0.14379999999994197
125,3,0.2,0.0625,35.0,-1,0.0,0.154200000000003
126,3,0.2,0.0625,35.0,-1,0.0,0.17320000000000846
127,3,0.2,1.0,35.0,-1,0.0,0.09440000000000737
128,3,0.2,0.0625,35.0,-1,0.0,0.2338999999999487
129,3,0.8,1.0,-35.0,-1,1.0,0.12430000000000518
130,3,0.8,1.0,-35.0,-1,1.0,0.09869999999995116
131,3,0.8,0.0625,-35.0,-1,1.0,2.306099999999958
132,3,0.8,0.0625,-35.0,-1,1.0,0.06869999999997844
133,3,0.8,0.125,-35.0,-1,1.0,0.13659999999998718
134,3,0.8,0.0,-35.0,-1,1.0,0.15519999999997935
135,3,0.8,0.0625,35.0,-1,0.0,0.1179000000000201
136,3,0.8,0.0625,-35.0,-1,1.0,0.15789999999998372
137,3,0.8,0.125,-35.0,-1,1.0,0.1441000000000372
138,3,0.8,0.25,-35.0,-1,1.0,0.16719900000009602
139,3,0.8,1.0,-35.0,-1,1.0,0.161200000000008
140,3,0.8,0.0625,-35.0,-1,1.0,0.19090000000005602
141,3,0.8,0.0625,-35.0,-1,1.0,0.1391999999999598
142,3,0.8,0.25,-35.0,-1,1.0,0.16470000000003893
143,3,0.8,0.125,-35.0,-1,1.0,0.25919999999996435
144,3,0.8,1.0,-35.0,-1,1.0,0.16980000000000928
145,3,0.8,1.0,-35.0,-1,1.0,0.17899999999997362
146,3,0.8,0.25,-35.0,-1,1.0,0.12479999999993652
147,3,0.8,0.0,-35.0,-1,1.0,0.18060000000002674
148,3,0.8,1.0,-35.0,-1,1.0,0.14970000000005257
149,3,0.8,0.125,-35.0,-1,1.0,0.29330000000004475
150,3,0.8,0.125,35.0,-1,0.0,0.14429999999993015
151,3,0.8,0.0,35.0,-1,0.0,0.18599999999992178
152,3,0.8,0.125,-35.0,-1,1.0,0.11609999999996035
153,3,0.8,1.0,-35.0,-1,1.0,0.11799999999993815
154,3,0.8,0.0625,-35.0,-1,1.0,0.11149999999997817
155,3,0.8,1.0,-35.0,-1,1.0,0.476099999999974
156,3,0.8,0.25,35.0,1,1.0,0.2501999999999498
157,3,0.8,0.25,-35.0,-1,1.0,0.14959999999996398
158,3,0.8,0.125,-35.0,-1,1.0,0.3126999999999498
159,3,0.8,0.125,-35.0,-1,1.0,0.11500000000012278
160,3,0.8,0.0,-35.0,-1,1.0,0.20030000000008386
161,3,0.8,0.125,35.0,1,1.0,0.3663999999999987
162,3,0.8,0.25,-35.0,-1,1.0,0.14870000000007622
163,3,0.8,0.0,-35.0,-1,1.0,0.5309999999999491
164,3,0.8,0.0625,-35.0,-1,1.0,0.2119000000000142
165,3,0.8,0.25,35.0,1,1.0,0.2836000000000922
166,3,0.8,1.0,35.0,1,1.0,0.6078999999999724
167,3,0.8,0.0625,-35.0,-1,1.0,0.09810000000004493
168,3,0.8,0.25,-35.0,-1,1.0,0.1814999999999145
169,3,0.8,1.0,-35.0,-1,1.0,0.12850000000003092
170,3,0.8,0.0625,35.0,-1,0.0,0.1513999999999669
171,3,0.8,0.0,-35.0,1,0.0,0.25080000000002656
172,3,0.8,0.0,-35.0,1,0.0,0.4431000000000722
173,3,0.8,0.0625,-35.0,1,0.0,0.16459999999995034
174,3,0.8,0.25,-35.0,-1,1.0,0.30119999999999436
175,3,0.8,0.0,-35.0,-1,1.0,0.14080000000001291
176,3,0.8,1.0,35.0,-1,0.0,0.12329999999997199
177,3,0.8,1.0,-35.0,-1,1.0,0.13999999999987267
178,3,0.8,0.25,35.0,-1,0.0,0.12630000000001473
179,3,0.8,0.125,35.0,-1,0.0,0.13779999999997017
180,3,0.8,0.0,35.0,-1,0.0,0.10990000000003874
181,3,0.8,0.0625,-35.0,-1,1.0,0.09519999999997708
182,3,0.8,0.125,35.0,1,1.0,0.28940000000011423
183,3,0.8,0.0625,-35.0,-1,1.0,0.11710000000005039
184,3,0.8,1.0,-35.0,-1,1.0,0.16059999999993124
185,3,0.2,1.0,35.0,-1,0.0,0.07559999999989486
186,3,0.2,1.0,-35.0,-1,1.0,0.09890000000007149
187,3,0.2,0.125,35.0,-1,0.0,0.10770000000002256
188,3,0.2,0.125,-35.0,-1,1.0,0.10810000000003583
189,3,0.2,0.0,-35.0,1,0.0,0.36749999999995
190,3,0.2,0.25,35.0,-1,0.0,0.0865000000001146
191,3,0.2,1.0,35.0,1,1.0,0.24320000000000164
192,3,0.2,1.0,35.0,-1,0.0,1.066599999999994
193,3,0.2,1.0,-35.0,-1,1.0,0.23059999999998126
194,3,0.2,0.125,35.0,-1,0.0,3.9716000000000804
195,3,0.2,0.0625,35.0,-1,0.0,0.3951000000000704
196,3,0.2,0.25,35.0,-1,0.0,0.1267000000001417
197,3,0.2,1.0,35.0,1,1.0,3.933200000000056
198,3,0.2,0.25,35.0,-1,0.0,0.32229900000004363
199,3,0.2,0.0625,-35.0,-1,1.0,0.17370000000005348
200,3,0.2,0.0625,35.0,-1,0.0,0.13240000000007512
201,3,0.2,0.25,35.0,1,1.0,0.24320000000000164
202,3,0.2,1.0,-35.0,-1,1.0,0.27949999999998454
203,3,0.2,0.25,-35.0,-1,1.0,0.08569999999997435
204,3,0.2,0.25,35.0,-1,0.0,0.1089999999999236
205,3,0.2,0.0,35.0,-1,0.0,0.102800000000002
206,3,0.2,0.25,35.0,1,1.0,0.24049999999999727
207,3,0.2,1.0,35.0,1,1.0,0.2016999999998461
208,3,0.2,0.125,35.0,-1,0.0,0.16269999999997253
209,3,0.2,0.25,35.0,-1,0.0,0.10720000000003438
210,3,0.2,0.0625,35.0,-1,0.0,0.10999999999989996
211,3,0.2,0.125,35.0,-1,0.0,0.16620000000000346
212,3,0.2,0.0,35.0,1,1.0,0.9149999999999636
213,3,0.2,0.25,-35.0,-1,1.0,0.1873000000000502
214,3,0.2,0.125,-35.0,-1,1.0,0.2826999999998634
215,3,0.2,1.0,35.0,1,1.0,0.23500000000001364
216,3,0.2,0.0,35.0,-1,0.0,0.9850999999999885
217,3,0.2,0.0,35.0,-1,0.0,4.383600000000001
218,3,0.2,0.25,35.0,1,1.0,0.23509999999987485
219,3,0.2,0.125,-35.0,-1,1.0,0.26330000000007203
220,3,0.2,0.25,-35.0,-1,1.0,0.4454999999999245
221,3,0.2,0.125,35.0,1,1.0,0.23669999999992797
222,3,0.8,0.125,35.0,-1,0.0,4.34699999999998
223,3,0.8,0.25,-35.0,-1,1.0,0.4602999999999611
224,3,0.8,0.25,-35.0,-1,1.0,0.17419999999992797
225,3,0.8,0.0625,-35.0,-1,1.0,0.27300000000002456
226,3,0.8,0.25,-35.0,-1,1.0,0.16099999999994452
227,3,0.8,0.125,-35.0,-1,1.0,0.17809999999997217
228,3,0.8,1.0,-35.0,-1,1.0,0.12459999999998672
229,3,0.8,0.0,-35.0,-1,1.0,0.7223999999999933
230,3,0.8,0.125,-35.0,-1,1.0,0.3667999999998983
231,3,0.8,1.0,35.0,1,1.0,0.24900000000002365
232,3,0.8,0.25,-35.0,-1,1.0,0.1833000000000311
233,3,0.8,0.25,-35.0,-1,1.0,0.5818000000000438
234,3,0.8,0.0625,-35.0,-1,1.0,0.14199999999993906
235,3,0.8,0.125,35.0,-1,0.0,0.16360000000008768
236,3,0.8,1.0,-35.0,-1,1.0,0.14359999999999218
237,3,0.8,0.0625,-35.0,-1,1.0,0.16000000000008185
238,3,0.8,1.0,-35.0,-1,1.0,0.14600000000007185
239,3,0.8,1.0,-35.0,-1,1.0,0.19689999999991414
240,3,0.8,1.0,-35.0,-1,1.0,0.12649999999996453
241,3,0.8,1.0,35.0,1,1.0,0.9597000000001117
242,3,0.8,0.125,35.0,-1,0.0,0.12360000000001037
243,3,0.8,1.0,-35.0,-1,1.0,0.1067000000000462
244,3,0.8,0.0,-35.0,-1,1.0,0.13360000000000127
245,3,0.8,0.125,-35.0,-1,1.0,0.12360000000001037
246,3,0.8,0.0625,35.0,-1,0.0,0.20029999999997017
247,3,0.8,0.125,-35.0,-1,1.0,0.10719999999992069
248,3,0.8,0.0625,-35.0,-1,1.0,0.1837999999997919
249,3,0.8,1.0,-35.0,-1,1.0,0.13779999999997017
250,3,0.8,0.125,35.0,1,1.0,3.967399999999998
251,3,0.8,0.25,-35.0,-1,1.0,0.11130000000002838
252,3,0.8,0.0625,-35.0,-1,1.0,0.06769999999983156
253,3,0.8,0.25,-35.0,-1,1.0,0.13449999999988904
254,3,0.8,0.25,-35.0,-1,1.0,0.4979000000000724
255,3,0.8,1.0,35.0,1,1.0,0.2116000000000895
256,3,0.8,0.25,-35.0,-1,1.0,0.1980999999998403
257,3,0.8,0.125,-35.0,-1,1.0,0.2119000000000142
258,3,0.8,0.0625,-35.0,-1,1.0,0.20519999999987704
259,3,0.8,0.25,35.0,1,1.0,0.28510000000005675
260,3,0.8,0.25,-35.0,-1,1.0,0.45869999999990796
261,3,0.8,0.0,-35.0,1,0.0,8.522000000000162
262,3,0.8,1.0,-35.0,-1,1.0,0.12279999999987012
263,3,0.8,0.0625,-35.0,1,0.0,0.0625999999999749
264,3,0.8,0.0625,-35.0,-1,1.0,0.1691000000000713
265,3,0.8,1.0,-35.0,-1,1.0,0.17590000000018335
266,3,0.8,0.125,-35.0,-1,1.0,0.15639999999984866
267,3,0.8,1.0,-35.0,-1,1.0,0.1528000000000702
268,3,0.8,0.0,-35.0,-1,1.0,0.31320000000005166
269,3,0.8,0.25,-35.0,-1,1.0,0.10950000000002547
270,3,0.8,1.0,-35.0,-1,1.0,0.1431999999999789
271,3,0.8,0.125,-35.0,-1,1.0,0.22309999999993124
272,3,0.8,0.125,35.0,-1,0.0,0.10050000000001091
273,3,0.8,1.0,-35.0,-1,1.0,0.2235000000000582
274,3,0.8,0.25,35.0,-1,0.0,0.11020000000007713
275,3,0.8,1.0,-35.0,-1,1.0,0.3971999999998843
276,3,0.8,0.125,-35.0,-1,1.0,0.3206000000000131
277,3,0.8,1.0,-35.0,-1,1.0,0.21710000000007312
278,3,0.8,0.0,-35.0,-1,1.0,0.12399999999979627
279,3,0.8,0.25,-35.0,-1,1.0,0.1974999999999909
280,3,0.8,0.25,-35.0,-1,1.0,0.18519999999989523
281,3,0.8,0.0625,-35.0,-1,1.0,0.16799999999989268
282,3,0.8,1.0,-35.0,-1,1.0,0.12449999999989814
283,3,0.8,0.125,-35.0,-1,1.0,0.10460100000000239
284,3,0.8,0.0,-35.0,-1,1.0,0.11180100000001403
285,3,0.8,0.25,-35.0,-1,1.0,0.12830099999996492
286,3,0.8,1.0,-35.0,-1,1.0,0.16500100000007478
287,3,0.8,0.25,-35.0,-1,1.0,0.12530100000003586
288,3,0.8,0.25,-35.0,-1,1.0,0.10610099999985323
289,3,0.8,0.0625,-35.0,-1,1.0,0.14530100000001767
290,3,0.2,0.125,35.0,1,1.0,0.33890100000007806
291,3,0.2,0.0625,35.0,1,1.0,0.29570099999978083
292,3,0.2,1.0,35.0,1,1.0,0.2256009999998696
293,3,0.2,0.125,35.0,-1,0.0,0.09920099999999366
294,3,0.2,0.25,35.0,-1,0.0,0.11580099999991944
295,3,0.2,0.125,35.0,-1,0.0,0.3060010000001512
296,3,0.2,1.0,35.0,1,1.0,0.1767010000000937
297,3,0.2,0.25,35.0,1,1.0,0.22350100000016937
298,3,0.2,0.25,35.0,1,1.0,0.18360099999995327
299,3,0.2,0.0625,35.0,-1,0.0,0.1531009999998787
300,3,0.2,0.0,-35.0,-1,1.0,0.07980099999986123
301,3,0.2,0.25,35.0,1,1.0,0.21370100000012826
302,3,0.2,0.25,-35.0,-1,1.0,0.1970010000000002
303,3,0.2,0.0,35.0,-1,0.0,0.11030099999993581
304,3,0.2,0.25,35.0,1,1.0,0.18750100000011116
305,3,0.2,0.125,35.0,1,1.0,0.27730099999985214
306,3,0.2,0.0,35.0,-1,0.0,0.03770099999997001
307,3,0.2,0.125,35.0,-1,0.0,0.10070100000007187
308,3,0.2,0.0,35.0,-1,0.0,0.6646009999997204
309,3,0.2,0.0625,35.0,-1,0.0,0.4342010000002574
310,3,0.2,1.0,-35.0,-1,1.0,0.17430100000001403
311,3,0.2,1.0,35.0,1,1.0,0.21810099999993326
312,3,0.2,0.0,35.0,-1,0.0,0.15190099999995255
313,3,0.2,0.0,35.0,-1,0.0,0.11880100000007587
314,3,0.2,0.25,35.0,1,1.0,0.37540100000001075
315,3,0.2,0.25,-35.0,-1,1.0,0.26500099999998383
316,3,0.2,0.125,35.0,-1,0.0,9.848400999999967
317,3,0.2,1.0,-35.0,-1,1.0,0.12580100000013772
318,3,0.2,0.0625,35.0,1,1.0,0.4961009999999533
319,3,0.2,0.125,35.0,1,1.0,0.9325009999997746
320,3,0.2,0.25,35.0,-1,0.0,0.1527009999999791
321,3,0.2,0.125,35.0,-1,0.0,0.13980100000003404
322,3,0.2,0.125,35.0,-1,0.0,0.11610100000007151
323,3,0.2,0.125,35.0,1,1.0,0.6094009999999344
324,3,0.2,0.125,35.0,1,1.0,1.1697010000000319
325,3,0.2,1.0,35.0,1,1.0,0.2763009999998758
326,3,0.2,1.0,35.0,1,1.0,0.6163009999997939
327,3,0.2,1.0,35.0,1,1.0,1.8666010000001734
328,3,0.2,1.0,-35.0,-1,1.0,0.13680100000010498
329,3,0.2,1.0,35.0,1,1.0,4.5601010000000315
330,3,0.2,1.0,35.0,1,1.0,1.0935010000000602
331,3,0.2,0.0625,35.0,-1,0.0,0.207100999999966
332,3,0.2,0.25,35.0,1,1.0,0.2939010000000053
333,3,0.2,0.125,35.0,-1,0.0,0.4141010000000733
334,3,0.2,0.0,35.0,-1,0.0,0.14110099999993508
335,3,0.2,0.0625,35.0,1,1.0,0.4107010000000173
336,3,0.2,0.125,-35.0,-1,1.0,0.1609009999999671
337,3,0.2,0.25,35.0,-1,0.0,0.7443009999999504
338,3,0.2,1.0,35.0,-1,0.0,0.15160100000002785
339,3,0.2,0.0625,35.0,-1,0.0,0.15840099999991253
340,3,0.2,0.125,-35.0,-1,1.0,0.58520099999987
341,3,0.2,1.0,35.0,-1,0.0,0.11140099999988706
342,3,0.2,0.125,-35.0,-1,1.0,0.1687010000000555
343,3,0.2,1.0,35.0,-1,0.0,0.13170099999979357
344,3,0.2,1.0,35.0,1,1.0,0.23850099999981467
345,3,0.2,0.125,35.0,1,1.0,0.2721010000000206
346,3,0.2,0.125,35.0,1,1.0,0.2654009999998834
347,3,0.2,0.0625,35.0,1,1.0,0.39940100000012535
348,3,0.2,0.25,35.0,-1,0.0,0.11260100000004059
349,3,0.2,0.25,35.0,1,1.0,0.26260099999990416
350,3,0.2,0.0625,35.0,1,1.0,0.3125009999998838
351,3,0.2,0.0,35.0,-1,0.0,0.19260099999996783
352,3,0.2,1.0,35.0,1,1.0,0.19290099999989252
353,3,0.2,1.0,-35.0,-1,1.0,0.1365009999999529
354,3,0.2,0.125,35.0,-1,0.0,0.1503010000001268
355,3,0.2,0.125,35.0,-1,0.0,0.4297009999997954
356,3,0.2,1.0,-35.0,-1,1.0,0.16660099999990052
357,3,0.2,0.0625,35.0,-1,0.0,0.1602010000001428
358,3,0.2,0.125,35.0,1,1.0,0.19360099999994418
359,3,0.2,0.25,35.0,1,1.0,0.2508010000001377
360,3,0.2,0.25,35.0,1,1.0,0.1504010000001017
361,3,0.2,1.0,35.0,1,1.0,0.25430099999994127
362,3,0.2,0.25,35.0,1,1.0,0.3908010000000104
363,3,0.2,0.125,-35.0,-1,1.0,0.2742009999999482
364,3,0.2,0.25,35.0,1,1.0,0.4609009999999216
365,3,0.2,0.25,-35.0,-1,1.0,0.5744009999998525
366,3,0.8,0.25,35.0,1,1.0,0.22130099999981212
367,3,0.8,0.125,-35.0,-1,1.0,0.15560100000016064
368,3,0.8,1.0,-35.0,-1,1.0,0.10890100000005987
369,3,0.8,0.25,-35.0,-1,1.0,0.21150099999999838
370,3,0.8,0.0625,-35.0,-1,1.0,0.2984010000000126
371,3,0.8,0.0625,-35.0,-1,1.0,0.08860100000015336
372,3,0.8,0.125,35.0,-1,0.0,0.0822009999999409
373,3,0.8,0.125,-35.0,-1,1.0,0.10230099999989761
374,3,0.8,0.25,-35.0,-1,1.0,0.14950099999987287
375,3,0.8,0.125,-35.0,-1,1.0,0.35580099999992854
376,3,0.8,0.25,-35.0,-1,1.0,0.14580099999989216
377,3,0.8,0.125,-35.0,-1,1.0,0.5293000000001484
378,3,0.8,0.125,-35.0,-1,1.0,0.27260099999989507
379,3,0.8,1.0,35.0,1,1.0,0.20280099999990853
380,3,0.8,0.25,-35.0,-1,1.0,0.10650100000020757
381,3,0.8,0.25,-35.0,-1,1.0,0.19960100000002967
382,3,0.8,0.125,35.0,-1,0.0,0.17300100000011298
383,3,0.8,0.0625,35.0,-1,0.0,0.07340099999987615
384,3,0.8,0.25,-35.0,-1,1.0,0.14650099999994382
385,3,0.8,0.125,-35.0,-1,1.0,0.2834010000001399
386,3,0.8,0.0625,35.0,-1,0.0,0.13350099999979648
387,3,0.8,1.0,-35.0,-1,1.0,0.13700100000005477
388,3,0.8,1.0,-35.0,-1,1.0,0.11720100000002276
389,3,0.8,0.0625,-35.0,-1,1.0,0.1606010000000424
390,3,0.8,0.25,-35.0,-1,1.0,0.27720099999987724
391,3,0.8,1.0,35.0,1,1.0,0.30090100000006714
392,3,0.8,0.25,35.0,1,1.0,0.24070099999994454
393,3,0.8,0.25,-35.0,-1,1.0,0.21440099999995255
394,3,0.8,1.0,35.0,1,1.0,0.27080099999989216
395,3,0.8,0.25,-35.0,-1,1.0,0.037800999999944906
396,3,0.8,1.0,-35.0,-1,1.0,0.1751009999998132
397,3,0.8,0.25,35.0,-1,0.0,0.15780100000006314
398,3,0.8,1.0,-35.0,-1,1.0,0.14470100000016828
399,3,0.8,0.0625,-35.0,-1,1.0,0.28860099999997146
400,3,0.8,0.0,35.0,-1,0.0,0.36170100000003913
401,3,0.8,0.25,-35.0,-1,1.0,0.1388009999998303
402,3,0.8,0.0625,35.0,-1,0.0,0.09580099999993763
403,3,0.8,1.0,-35.0,-1,1.0,0.14840099999992162
404,3,0.8,0.0,35.0,1,1.0,0.46210100000007515
405,3,0.8,0.25,-35.0,-1,1.0,0.11200099999996382
406,3,0.8,0.125,35.0,1,1.0,0.2688010000001668
407,3,0.8,0.0625,-35.0,-1,1.0,0.23250099999995655
408,3,0.8,0.125,-35.0,-1,1.0,0.08900100000005295
409,3,0.8,1.0,-35.0,-1,1.0,0.1792009999999209
410,3,0.8,0.0625,-35.0,-1,1.0,0.006000999999969281
411,3,0.8,0.0625,-35.0,-1,1.0,0.10290099999997437
412,3,0.8,0.125,-35.0,1,0.0,0.5629010000002381
413,3,0.8,0.125,-35.0,-1,1.0,0.06700100000011844
414,3,0.8,0.0,-35.0,-1,1.0,0.4064009999999598
415,3,0.8,0.25,-35.0,-1,1.0,0.12990100000001803
416,3,0.8,0.125,-35.0,-1,1.0,0.30680099999995036
417,3,0.8,0.25,-35.0,-1,1.0,0.09730100000001585
418,3,0.8,0.0625,-35.0,-1,1.0,0.12050099999987651
419,3,0.8,0.0625,-35.0,-1,1.0,0.11390099999994163
420,3,0.8,0.0,-35.0,-1,1.0,0.43730100000016137
421,3,0.8,1.0,-35.0,-1,1.0,0.15440100000000712
422,3,0.8,0.125,-35.0,-1,1.0,0.8442009999998845
423,3,0.8,0.0625,-35.0,-1,1.0,0.1109009999997852
424,3,0.8,0.0,-35.0,-1,1.0,0.3343010000000959
425,3,0.8,0.0625,-35.0,-1,1.0,-0.008799000000180968
426,3,0.8,0.0625,-35.0,-1,1.0,0.3279009999998834
427,3,0.2,0.125,35.0,-1,0.0,0.12460100000021157
428,3,0.2,0.0625,35.0,1,1.0,0.5051010000001952
429,3,0.2,0.0625,35.0,-1,0.0,0.0983009999999922
430,3,0.2,0.125,35.0,-1,0.0,0.12160100000005514
431,3,0.2,0.125,35.0,-1,0.0,0.11530099999981758
432,3,0.2,0.25,35.0,-1,0.0,0.12180100000000493
433,3,0.2,0.125,35.0,1,1.0,0.5386009999999715
434,3,0.2,0.125,35.0,1,1.0,0.5222009999999955
435,3,0.2,1.0,35.0,1,1.0,0.23600099999998747
436,3,0.2,1.0,35.0,-1,0.0,0.12930099999994127
437,3,0.2,0.25,35.0,-1,0.0,0.08960099999990234
438,3,0.2,0.25,35.0,1,1.0,0.20920100000012098
439,3,0.2,0.0,-35.0,-1,1.0,0.212601000000177
440,3,0.2,0.0,35.0,-1,0.0,0.12340100000005805
441,3,0.2,0.0625,35.0,-1,0.0,0.6566009999999096
442,3,0.2,1.0,35.0,-1,0.0,0.09990099999981794
443,3,0.2,0.125,-35.0,-1,1.0,0.27310099999999693
444,3,0.2,1.0,-35.0,-1,1.0,0.1263010000000122
445,3,0.2,0.0625,-35.0,-1,1.0,0.3505010000001221
446,3,0.2,0.25,35.0,1,1.0,0.2533009999999649
447,3,0.8,0.0625,35.0,-1,0.0,0.1369009999998525
448,3,0.8,1.0,35.0,1,1.0,0.2974010000000362
449,3,0.8,0.125,-35.0,-1,1.0,0.27050099999996746
450,3,0.8,1.0,-35.0,-1,1.0,0.14050099999985832
451,3,0.8,0.0625,-35.0,-1,1.0,0.017301000000088607
452,3,0.8,0.125,-35.0,-1,1.0,0.3341009999999187
453,3,0.8,0.25,-35.0,-1,1.0,0.26440099999990707
454,3,0.8,0.0625,-35.0,-1,1.0,0.20430099999998674
455,3,0.8,0.125,-35.0,-1,1.0,0.22090099999991253
456,3,0.8,0.25,-35.0,-1,1.0,0.13440099999979793
457,3,0.8,0.25,-35.0,-1,1.0,0.11510100000009515
458,3,0.8,0.125,-35.0,-1,1.0,0.11470099999996819
459,3,0.8,0.25,-35.0,-1,1.0,0.17470099999991362
460,3,0.8,0.0625,-35.0,1,0.0,1.2650009999999838
461,3,0.8,0.0625,-35.0,-1,1.0,0.3384009999999762
462,3,0.8,0.0625,-35.0,-1,1.0,0.2051010000000133
463,3,0.8,0.0,-35.0,-1,1.0,0.16550100000017665
464,3,0.8,0.25,35.0,-1,0.0,0.09870099999989179
465,3,0.8,0.0625,-35.0,-1,1.0,0.10530100000005405
466,3,0.8,1.0,35.0,1,1.0,0.2455010000001039
467,3,0.8,0.0625,35.0,-1,0.0,0.32260100000007697
468,3,0.8,0.0625,-35.0,-1,1.0,0.10590099999990343
469,3,0.8,0.0625,-35.0,-1,1.0,0.1628009999999449
470,3,0.8,0.125,35.0,-1,0.0,0.06250099999988379
471,3,0.8,0.0625,-35.0,-1,1.0,0.32270100000005186
472,3,0.8,1.0,-35.0,-1,1.0,0.19970100000000457
473,3,0.8,0.0625,-35.0,-1,1.0,0.13000099999999293
474,3,0.8,0.0625,-35.0,-1,1.0,0.15960100000006605
475,3,0.8,0.25,-35.0,-1,1.0,0.15980100000001585
476,3,0.8,0.0,-35.0,-1,1.0,0.27690099999995255
477,3,0.8,0.0625,-35.0,-1,1.0,0.21680100000003222
478,3,0.8,0.0625,-35.0,-1,1.0,0.1734009999997852
479,3,0.8,0.0625,-35.0,-1,1.0,0.14390099999991435
480,3,0.2,0.125,-35.0,-1,1.0,0.16390100000012353
481,3,0.2,0.125,35.0,1,1.0,0.810901000000058
482,3,0.2,0.25,-35.0,-1,1.0,0.3771009999998114
483,3,0.2,0.0,-35.0,1,0.0,0.317801000000145
484,3,0.2,1.0,-35.0,-1,1.0,0.06080100000008315
485,3,0.2,1.0,35.0,-1,0.0,0.08410099999991871
486,3,0.2,1.0,35.0,1,1.0,0.2581009999998969
487,3,0.2,0.125,35.0,1,1.0,0.31440100000008897
488,3,0.2,0.25,35.0,1,1.0,0.274400999999898
489,3,0.2,0.25,35.0,-1,0.0,0.1083009999999831
490,3,0.2,0.125,35.0,-1,0.0,0.1247009999999591
491,3,0.2,0.125,35.0,-1,0.0,0.17490100000031816
492,3,0.2,1.0,-35.0,-1,1.0,0.11500100000012026
493,3,0.2,0.0625,35.0,-1,0.0,0.17840100000057646
494,3,0.2,0.25,35.0,-1,0.0,0.13510100000030434
495,3,0.2,0.25,35.0,-1,0.0,0.11210099999971135
496,3,0.2,0.25,35.0,-1,0.0,0.13210100000060265
497,3,0.2,0.0625,35.0,1,1.0,0.35920100000021193
498,3,0.2,0.25,-35.0,-1,1.0,0.47240099999999074
499,3,0.2,0.0,35.0,1,1.0,-0.01409899999953268
500,3,0.2,0.25,35.0,1,1.0,1.3128010000004906
501,3,0.2,0.0625,35.0,-1,0.0,0.09620100000029197
502,3,0.2,0.0,35.0,1,1.0,0.32340100000055827
503,3,0.2,0.125,35.0,1,1.0,0.3297010000001137
504,3,0.2,1.0,-35.0,-1,1.0,0.1398010000002614
505,3,0.2,0.0625,-35.0,-1,1.0,0.13330100000030143
506,3,0.2,1.0,35.0,-1,0.0,0.10050100000034945
507,3,0.2,1.0,-35.0,-1,1.0,0.11690100000032544
508,3,0.2,1.0,-35.0,-1,1.0,0.12690100000008897
509,3,0.2,0.125,35.0,-1,0.0,0.12710100000003877
510,3,0.2,0.0625,35.0,-1,0.0,0.1110009999997601
511,3,0.2,0.125,35.0,1,1.0,0.27080100000011953
512,3,0.2,1.0,35.0,1,1.0,0.22100100000034217
513,3,0.2,0.125,35.0,1,1.0,3.6776010000003225
514,3,0.2,0.125,35.0,-1,0.0,0.1479010000002745
515,3,0.2,1.0,35.0,1,1.0,0.39120100000036473
516,3,0.2,0.125,35.0,-1,0.0,3.4517009999999573
517,3,0.2,0.125,35.0,1,1.0,0.8846010000002025
518,3,0.2,0.25,35.0,-1,0.0,0.10820100000000821
519,3,0.2,0.125,35.0,1,1.0,7.165201000000252
520,3,0.2,0.25,35.0,1,1.0,1.025101000000177
521,3,0.2,1.0,35.0,1,1.0,0.25560100000029706
522,3,0.2,0.125,35.0,1,1.0,0.3122009999997317
523,3,0.2,0.0625,35.0,-1,0.0,0.41230099999984304
524,3,0.2,0.125,-35.0,-1,1.0,0.7190009999999347
525,3,0.2,0.125,35.0,1,1.0,0.3059010000001763
526,3,0.8,0.125,-35.0,-1,1.0,0.2593010000000504
527,3,0.8,1.0,35.0,1,1.0,0.22600099999999657
528,3,0.8,0.25,35.0,-1,0.0,0.37620100000049206
529,3,0.8,1.0,-35.0,-1,1.0,0.4129010000001472
530,3,0.8,0.0,-35.0,1,0.0,0.7963009999998576
531,3,0.8,0.25,-35.0,-1,1.0,0.15650100000038947
532,3,0.8,1.0,-35.0,-1,1.0,0.14990099999977247
533,3,0.8,1.0,-35.0,-1,1.0,0.15010100000063176
534,3,0.8,0.0625,-35.0,-1,1.0,0.21350099999972372
535,3,0.8,1.0,-35.0,-1,1.0,0.2935010000001057
536,3,0.8,0.25,-35.0,-1,1.0,0.18020100000012462
537,3,0.8,0.25,-35.0,-1,1.0,0.2570010000004004
538,3,0.8,0.25,-35.0,-1,1.0,0.4238010000003669
539,3,0.8,0.0625,-35.0,-1,1.0,0.1805010000002767
540,3,0.8,0.0,-35.0,1,0.0,0.3039010000002236
541,3,0.8,0.0,-35.0,1,0.0,0.44750100000010207
542,3,0.8,0.125,-35.0,-1,1.0,0.14420100000006641
543,3,0.8,0.125,-35.0,-1,1.0,0.14100100000041493
544,3,0.8,0.25,-35.0,-1,1.0,0.1444010000000162
545,3,0.8,0.25,-35.0,-1,1.0,0.17120100000011007
546,3,0.8,0.125,-35.0,-1,1.0,0.5513010000004215
547,3,0.8,0.0,35.0,-1,0.0,0.3514010000003509
548,3,0.8,0.125,-35.0,-1,1.0,0.14820100000042657
549,3,0.8,1.0,-35.0,-1,1.0,0.2351010000002134
550,3,0.8,0.0625,-35.0,-1,1.0,0.16170099999999366
551,3,0.8,0.0625,-35.0,-1,1.0,0.1952009999999973
552,3,0.8,0.125,-35.0,-1,1.0,0.07200100000045495
553,3,0.8,1.0,-35.0,-1,1.0,0.03880100000014863
554,3,0.8,0.0625,-35.0,-1,1.0,0.4222010000003138
555,3,0.8,0.25,-35.0,-1,1.0,0.12230100000033417
556,3,0.8,0.0625,-35.0,-1,1.0,0.19260099999974045
557,3,0.8,1.0,-35.0,-1,1.0,0.41260100000044986
558,3,0.8,0.125,-35.0,-1,1.0,0.30600100000037855
559,3,0.8,0.0625,-35.0,-1,1.0,0.2194009999998343
560,3,0.8,0.25,-35.0,-1,1.0,0.28960100000040256
561,3,0.8,0.25,-35.0,-1,1.0,0.13970100000005914
562,3,0.8,1.0,-35.0,-1,1.0,0.20310100000051534
563,3,0.8,0.25,35.0,-1,0.0,0.12660100000039165
564,3,0.8,0.25,-35.0,-1,1.0,0.20340100000021266
565,3,0.8,0.25,-35.0,-1,1.0,0.12670100000059392
566,3,0.8,1.0,-35.0,-1,1.0,0.41690100000050734
567,3,0.8,0.125,-35.0,-1,1.0,0.14030099999990853
568,3,0.8,0.125,-35.0,-1,1.0,0.10700100000030943
569,3,0.8,0.125,-35.0,-1,1.0,0.38050100000054954
570,3,0.8,1.0,-35.0,-1,1.0,0.1738010000003669
571,3,0.8,0.25,-35.0,-1,1.0,0.18060100000002421
572,3,0.8,0.0625,-35.0,1,0.0,0.05740100000048187
573,3,0.8,0.0625,-35.0,-1,1.0,0.12410100000079183
574,3,0.8,0.125,-35.0,-1,1.0,0.1176010000003771
575,3,0.8,0.0625,35.0,-1,0.0,0.37110100000018065
576,3,0.8,0.25,35.0,1,1.0,0.41120100000034654
577,3,0.8,0.125,-35.0,-1,1.0,0.17120100000056482
578,3,0.8,0.25,35.0,1,1.0,0.21800100000018574
579,3,0.8,0.125,-35.0,-1,1.0,0.1448009999999158
580,3,0.8,0.0,-35.0,1,0.0,0.3249010000004091
581,3,0.8,0.0,-35.0,-1,1.0,0.4650010000000293
582,3,0.8,1.0,-35.0,-1,1.0,0.12520100000028833
583,3,0.8,0.125,-35.0,-1,1.0,0.428501000000324
584,3,0.8,0.125,-35.0,-1,1.0,0.14860100000032617
585,3,0.8,0.25,-35.0,-1,1.0,0.17210100000011153
586,3,0.8,1.0,35.0,1,1.0,0.21220100000027742
587,3,0.8,0.25,-35.0,-1,1.0,0.20570100000031744
588,3,0.8,0.0,-35.0,-1,1.0,0.3657010000001719
589,3,0.8,1.0,35.0,1,1.0,0.32570100000066304
590,3,0.8,0.0625,-35.0,-1,1.0,0.15260099999977683
591,3,0.8,0.0625,-35.0,-1,1.0,0.15610100000003513
592,3,0.2,0.0,35.0,-1,0.0,0.13940100000036182
593,3,0.2,0.25,35.0,1,1.0,0.2628010000003087
594,3,0.2,0.25,-35.0,-1,1.0,0.18280100000038146
595,3,0.2,0.0,35.0,-1,0.0,0.3763010000002396
596,3,0.2,0.125,35.0,-1,0.0,0.2931010000002061
597,3,0.2,0.0625,35.0,-1,0.0,0.13320100000009916
598,3,0.2,0.0,35.0,1,1.0,0.21010100000012244
599,3,0.2,0.0625,-35.0,1,0.0,0.13000099999999293
600,3,0.2,0.125,35.0,1,1.0,0.2369010000002163
601,3,0.2,0.125,35.0,1,1.0,0.24700100000063685
602,3,0.2,0.125,35.0,1,1.0,0.24710099999992963
603,3,0.2,0.125,35.0,-1,0.0,0.19380100000034872
604,3,0.2,0.0,35.0,-1,0.0,0.33060100000011516
605,3,0.2,0.125,35.0,1,1.0,0.24730100000033417
606,3,0.2,0.25,-35.0,-1,1.0,0.17750100000012026
607,3,0.2,0.25,-35.0,-1,1.0,0.25770100000045204
608,3,0.2,0.125,35.0,1,1.0,0.3076009999999769
609,3,0.2,0.0625,35.0,-1,0.0,0.13460100000065722
610,3,0.2,0.25,35.0,1,1.0,0.26450100000010934
611,3,0.2,0.0,35.0,-1,0.0,1.518000999999913
612,3,0.2,0.125,35.0,1,1.0,0.34150099999988015
613,3,0.2,0.125,-35.0,1,0.0,0.281601000000137
614,3,0.2,0.0625,35.0,1,1.0,0.4184010000003582
615,3,0.2,0.0625,-35.0,1,0.0,0.23840100000006714
616,3,0.2,1.0,35.0,1,1.0,0.26510099999995873
617,3,0.8,0.0,-35.0,1,0.0,0.32860100000016246
618,3,0.8,0.25,-35.0,-1,1.0,0.10900100000026214
619,3,0.8,0.0625,-35.0,-1,1.0,0.28550099999984013
620,3,0.8,0.0625,-35.0,-1,1.0,0.152201000000332
621,3,0.8,1.0,-35.0,-1,1.0,0.2023010000002614
622,3,0.8,0.125,-35.0,-1,1.0,0.4159010000003036
623,3,0.8,0.0625,-35.0,-1,1.0,0.4093010000005961
624,3,0.8,1.0,-35.0,-1,1.0,0.13930100000015955
625,3,0.8,1.0,35.0,1,1.0,0.20940100000052553
626,3,0.8,0.125,-35.0,-1,1.0,0.08290100000021994
627,3,0.8,0.0625,-35.0,-1,1.0,0.17300100000011298
628,3,0.8,0.0625,-35.0,-1,1.0,0.16310100000009697
629,3,0.8,1.0,-35.0,-1,1.0,0.17320100000051752
630,3,0.8,0.0,35.0,-1,0.0,0.30330099999991944
631,3,0.8,0.0,-35.0,-1,1.0,0.5802010000002156
632,3,0.8,1.0,-35.0,-1,1.0,0.2969010000006165
633,3,0.8,1.0,-35.0,-1,1.0,0.2504010000002381
634,3,0.8,0.125,35.0,-1,0.0,0.1505010000000766
635,3,0.8,0.125,-35.0,-1,1.0,0.13730100000020684
636,3,0.8,0.0,-35.0,-1,1.0,0.15740100000039092
637,3,0.8,0.0625,35.0,-1,0.0,0.16420100000004823
638,3,0.8,0.0625,-35.0,1,0.0,0.4510009999999056
639,3,0.8,1.0,35.0,1,1.0,0.21440100000017992
640,3,0.8,0.0625,-35.0,-1,1.0,0.14110100000016246
641,3,0.8,1.0,35.0,1,1.0,0.22800099999994927
642,3,0.8,0.0625,-35.0,-1,1.0,0.08470100000022285
643,3,0.8,0.0625,-35.0,-1,1.0,0.11150100000031671
644,3,0.8,0.0625,-35.0,1,0.0,0.3550010000003567
645,3,0.8,0.0625,-35.0,-1,1.0,0.16850100000056045
646,3,0.8,0.125,-35.0,-1,1.0,0.1386010000001079
647,3,0.8,0.125,-35.0,-1,1.0,0.14860100000032617
648,3,0.8,0.125,35.0,-1,0.0,0.3787010000000919
649,3,0.8,0.25,-35.0,-1,1.0,0.16560100000015154
650,3,0.8,0.0625,-35.0,-1,1.0,0.2723010000004251
651,3,0.8,1.0,-35.0,-1,1.0,0.19570100000009916
652,3,0.8,0.0625,-35.0,-1,1.0,0.17580100000031962
653,3,0.8,1.0,-35.0,-1,1.0,0.1560010000002876
654,3,0.8,0.0625,-35.0,-1,1.0,0.13610100000050807
655,3,0.8,0.25,-35.0,-1,1.0,0.192801000000145
656,3,0.8,0.25,-35.0,-1,1.0,0.2596010000002025
657,3,0.8,0.0625,-35.0,-1,1.0,0.2830010000002403
658,3,0.8,0.125,-35.0,-1,1.0,0.28310099999998783
659,3,0.8,1.0,-35.0,-1,1.0,0.20980100000042512
660,3,0.8,1.0,-35.0,-1,1.0,0.20330100000046514
661,3,0.8,0.0,-35.0,-1,1.0,0.17660100000057355
662,3,0.8,0.0625,-35.0,-1,1.0,0.4667010000002847
663,3,0.8,1.0,-35.0,-1,1.0,0.27020100000027014
664,3,0.8,1.0,-35.0,-1,1.0,0.20700100000021848
665,3,0.8,1.0,-35.0,-1,1.0,0.4438010000003487
666,3,0.8,0.0,-35.0,-1,1.0,0.2874010000000453
667,3,0.8,0.0,-35.0,-1,1.0,0.4207010000000082
668,3,0.8,0.0625,-35.0,-1,1.0,0.3107010000003356
669,3,0.8,0.25,-35.0,-1,1.0,0.3210010000002512
670,3,0.8,1.0,-35.0,-1,1.0,0.1678010000005088
671,3,0.8,0.0625,-35.0,-1,1.0,0.37130100000013044
672,3,0.8,0.25,-35.0,-1,1.0,0.4314010000007329
673,3,0.8,0.25,35.0,1,1.0,0.27800100000013117
674,3,0.8,0.0625,35.0,1,1.0,0.3148010000004433
675,3,0.8,0.25,-35.0,-1,1.0,0.49160100000017337
676,3,0.8,0.0,-35.0,-1,1.0,0.2250010000002476
677,3,0.8,0.0625,-35.0,-1,1.0,0.30180100000052335
678,3,0.8,0.25,-35.0,-1,1.0,0.19510100000024977
679,3,0.8,0.0625,-35.0,-1,1.0,0.41190099999994345
680,3,0.8,0.0625,35.0,-1,0.0,0.1755010000006223
681,3,0.8,0.25,-35.0,-1,1.0,0.22220100000004095
682,3,0.8,1.0,-35.0,-1,1.0,0.41560100000015154
683,3,0.8,0.0625,-35.0,1,0.0,0.3190010000002985
684,3,0.8,0.0625,-35.0,-1,1.0,0.13910100000020975
685,3,0.8,0.0,-35.0,1,0.0,0.6593010000001414
686,3,0.8,0.0625,-35.0,1,0.0,0.34260100000028615
687,3,0.8,0.125,35.0,1,1.0,0.35940100000016173
688,3,0.8,0.125,-35.0,-1,1.0,0.14950100000032762
689,3,0.8,0.125,-35.0,-1,1.0,0.2996010000001661
690,3,0.8,0.25,-35.0,-1,1.0,0.2664010000003145
691,3,0.8,0.125,-35.0,-1,1.0,0.5065010000002985
692,3,0.8,0.0625,35.0,1,1.0,0.3032010000001719
693,3,0.8,0.0625,-35.0,-1,1.0,0.36320100000011735
694,3,0.8,0.0,-35.0,-1,1.0,0.30680100000017774
695,3,0.8,1.0,-35.0,-1,1.0,0.14010099999995873
696,3,0.8,1.0,-35.0,-1,1.0,0.2770010000003822
697,3,0.8,0.125,-35.0,-1,1.0,0.18360100000018065
698,3,0.8,0.25,-35.0,-1,1.0,0.1671010000000024
699,3,0.8,0.25,-35.0,-1,1.0,0.15390100000013263
700,3,0.8,0.125,-35.0,-1,1.0,0.2639009999998052
701,3,0.8,0.0625,35.0,-1,0.0,0.1908010000001923
702,3,0.8,0.125,-35.0,-1,1.0,0.18750100000033854
703,3,0.8,1.0,-35.0,-1,1.0,0.20750100000032035
704,3,0.8,0.125,35.0,1,1.0,6.63430100000005
705,3,0.8,0.25,-35.0,-1,1.0,0.3979010000002745
706,3,0.8,1.0,-35.0,-1,1.0,0.3047010000004775
707,3,0.8,1.0,35.0,1,1.0,0.3380010000000766
708,3,0.8,0.125,-35.0,-1,1.0,0.4648010000000795
709,3,0.8,0.125,-35.0,-1,1.0,0.34830100000044695
710,3,0.8,1.0,-35.0,-1,1.0,0.2884009999997943
711,3,0.8,1.0,-35.0,-1,1.0,0.19530100000019956
712,3,0.8,0.0,-35.0,-1,1.0,0.34180100000048697
713,3,0.2,0.125,35.0,1,1.0,0.335301000000527
714,3,0.2,0.0625,35.0,-1,0.0,0.15880100000049424
715,3,0.2,0.0625,35.0,1,1.0,0.4288010000000213
716,3,0.2,0.0625,-35.0,1,0.0,17.438901000000442
717,3,0.2,0.125,35.0,1,1.0,0.35290100000020175
718,3,0.2,0.25,35.0,1,1.0,0.5729010000000017
719,3,0.2,1.0,35.0,-1,0.0,0.11970100000007733
720,3,0.2,0.25,35.0,1,1.0,0.2932010000004084
721,3,0.2,0.0625,35.0,1,1.0,0.2797009999999318
722,3,0.2,0.25,35.0,-1,0.0,0.14670100000012098
723,3,0.2,0.0625,35.0,1,1.0,4.866700999999921
724,3,0.2,0.25,35.0,1,1.0,0.2870010000001457
725,3,0.2,0.25,35.0,1,1.0,0.26380100000051243
726,3,0.2,1.0,35.0,1,1.0,0.26040100000000166
727,3,0.2,0.25,35.0,-1,0.0,0.11050100000056773
728,3,0.2,0.0,35.0,1,1.0,0.19400099999984377
729,3,0.2,0.0625,35.0,-1,0.0,0.22410100000024613
730,3,0.2,0.125,35.0,1,1.0,0.4808010000001559
731,3,0.2,1.0,35.0,1,1.0,0.26430100000015955
732,3,0.2,1.0,35.0,1,1.0,0.21770100000003367
733,3,0.2,0.0625,-35.0,1,0.0,0.2911010000002534
734,3,0.2,0.0,35.0,-1,0.0,0.6246010000004389
735,3,0.2,0.125,35.0,1,1.0,0.3615010000003167
736,3,0.2,0.125,35.0,1,1.0,0.2148010000000795
737,3,0.2,0.125,35.0,1,1.0,0.3382010000000264
738,3,0.2,0.25,-35.0,-1,1.0,0.30510099999992235
739,3,0.2,0.0625,35.0,-1,0.0,0.2417010000008304
740,3,0.2,0.25,35.0,1,1.0,0.17190100000016173
741,3,0.2,0.125,35.0,1,1.0,0.30530099999987215
742,3,0.2,0.125,35.0,1,1.0,0.32870100000036473
743,3,0.2,0.125,35.0,1,1.0,0.45560100000011516
744,3,0.2,0.0625,35.0,1,1.0,0.31230100000038874
745,3,0.2,0.0625,35.0,-1,0.0,0.15570100000013554
746,3,0.2,0.25,35.0,1,1.0,0.30930100000068705
747,3,0.2,1.0,35.0,-1,0.0,0.08250100000032035
748,3,0.2,0.0,-35.0,1,0.0,0.2693010000002687
749,3,0.2,0.25,35.0,1,1.0,0.2227010000001428
750,3,0.2,1.0,35.0,1,1.0,0.2529010000002927
751,3,0.2,1.0,-35.0,-1,1.0,0.19960100000025705
752,3,0.2,0.0,35.0,-1,0.0,0.3030010000002221
753,3,0.2,0.125,35.0,1,1.0,0.3165009999997892
754,3,0.2,0.0,35.0,-1,0.0,0.16670099999964805
755,3,0.2,0.125,35.0,-1,0.0,0.12340099999983067
756,3,0.2,0.0625,-35.0,1,0.0,0.5602010000006885
757,3,0.2,0.0,35.0,1,1.0,0.31370100000049206
758,3,0.2,0.125,35.0,1,1.0,0.2937010000000555
759,3,0.2,1.0,35.0,1,1.0,0.2406010000004244
760,3,0.2,0.0625,35.0,1,1.0,0.5606010000005881
761,3,0.2,0.0625,35.0,1,1.0,0.28070100000013554
762,3,0.2,0.25,35.0,1,1.0,0.4607009999999718
763,3,0.2,1.0,35.0,1,1.0,0.22090099999968515
764,3,0.8,0.125,-35.0,-1,1.0,0.40770100000008824
765,3,0.8,0.125,35.0,-1,0.0,0.2678009999999631
766,3,0.8,0.125,-35.0,-1,1.0,0.16460099999994782
767,3,0.8,1.0,-35.0,-1,1.0,0.15460100000018429
768,3,0.8,1.0,-35.0,-1,1.0,0.1981010000004062
769,3,0.8,0.125,-35.0,-1,1.0,0.38160100000004604
770,3,0.8,0.125,35.0,-1,0.0,0.15490100000033635
771,3,0.8,0.0625,35.0,-1,0.0,0.17170100000021193
772,3,0.8,0.125,-35.0,-1,1.0,0.30840100000023085
773,3,0.8,0.125,-35.0,-1,1.0,0.38520100000005186
774,3,0.8,0.0625,-35.0,-1,1.0,0.15200099999992744
775,3,0.8,0.25,35.0,1,1.0,0.5621010000004389
776,3,0.8,0.125,35.0,-1,0.0,0.1722010000003138
777,3,0.8,0.25,-35.0,-1,1.0,0.18560100000013335
778,3,0.8,0.0625,35.0,-1,0.0,0.1724010000002636
779,3,0.8,0.0625,-35.0,-1,1.0,0.11910100000022794
780,3,0.8,0.0625,35.0,-1,0.0,0.17920100000037564
781,3,0.8,1.0,-35.0,-1,1.0,0.3227010000005066
782,3,0.8,0.0625,-35.0,-1,1.0,0.15940100000079838
783,3,0.8,0.125,-35.0,-1,1.0,0.11270100000001548
784,3,0.8,0.0625,-35.0,-1,1.0,0.1729009999999107
785,3,0.8,0.125,-35.0,-1,1.0,0.059601000000384374
786,3,0.8,1.0,-35.0,-1,1.0,0.14640100000042366
787,3,0.8,0.125,-35.0,-1,1.0,0.1431010000005699
788,3,0.8,0.25,-35.0,-1,1.0,0.22980099999995218
789,3,0.8,0.125,-35.0,-1,1.0,0.1367009999999027
790,3,0.8,0.0625,35.0,-1,0.0,0.21340100000043094
791,3,0.8,0.125,-35.0,-1,1.0,0.30350099999986924
792,3,0.8,0.0625,-35.0,-1,1.0,0.14690100000052553
793,3,0.8,0.125,-35.0,-1,1.0,0.37710100000003877
794,3,0.8,0.125,-35.0,-1,1.0,0.17710100000022067
795,3,0.8,1.0,-35.0,-1,1.0,0.19050100000004022
796,3,0.8,1.0,-35.0,-1,1.0,0.1639010000003509
797,3,0.8,0.0,-35.0,-1,1.0,0.4440010000002985
798,3,0.8,0.0625,-35.0,-1,1.0,0.20080100000041057
799,3,0.8,0.0,-35.0,-1,1.0,0.13410100000055536
800,3,0.8,0.125,35.0,1,1.0,0.40100100000017846
801,3,0.8,0.0,-35.0,-1,1.0,0.5443009999999049
802,3,0.8,0.125,-35.0,-1,1.0,0.3512010000004011
803,3,0.8,1.0,-35.0,-1,1.0,0.19470100000035018
804,3,0.8,0.25,35.0,1,1.0,0.30460100000027523
805,3,0.8,0.25,-35.0,-1,1.0,0.1715009999998074
806,3,0.8,0.125,35.0,1,1.0,1.5682010000000446
807,3,0.8,0.0,35.0,-1,0.0,10.35830100000021
808,3,0.8,0.0625,-35.0,1,0.0,0.42530100000021775
809,3,0.8,0.0,-35.0,1,0.0,0.3854010000004564
810,3,0.8,0.0625,-35.0,1,0.0,0.2754010000003291
811,3,0.8,1.0,-35.0,-1,1.0,0.2796010000001843
812,3,0.8,0.0,-35.0,-1,1.0,0.33210100000042075
813,3,0.8,1.0,-35.0,-1,1.0,0.7224010000004455
814,3,0.8,0.0625,-35.0,-1,1.0,0.2224010000004455
815,3,0.8,1.0,-35.0,-1,1.0,0.2224010000004455
816,3,0.8,1.0,-35.0,-1,1.0,18.095801000000392
817,3,0.8,0.0,-35.0,-1,1.0,0.38320100000009916
818,3,0.8,0.0625,-35.0,-1,1.0,0.22730100000035236
819,3,0.8,0.0625,-35.0,-1,1.0,0.4605010000004768
820,3,0.8,1.0,35.0,1,1.0,0.30670099999997547
821,3,0.2,0.25,35.0,1,1.0,0.32690099999990707
822,3,0.2,0.0625,35.0,-1,0.0,0.12370099999998274
823,3,0.2,0.0625,35.0,1,1.0,0.29730100000051607
824,3,0.2,1.0,-35.0,-1,1.0,0.18070100000022649
825,3,0.2,0.25,35.0,1,1.0,0.3673009999997703
826,3,0.2,0.0,35.0,-1,0.0,0.16070100000024468
827,3,0.2,1.0,35.0,1,1.0,0.21790099999998347
828,3,0.2,0.0625,35.0,1,1.0,0.2775010000000293
829,3,0.2,0.0,-35.0,1,0.0,0.30420100000037564
830,3,0.2,0.25,35.0,1,1.0,0.2448010000002796
831,3,0.2,0.0625,35.0,-1,0.0,0.29120100000000093
832,3,0.2,0.125,35.0,-1,0.0,0.12450100000023667
833,3,0.2,0.25,35.0,1,1.0,0.25480100000004313
834,3,0.2,0.25,35.0,1,1.0,0.24510100000043167
835,3,0.2,0.125,35.0,1,1.0,0.2916009999999005
836,3,0.2,0.0625,35.0,1,1.0,0.45880099999976665
837,3,0.2,0.125,35.0,1,1.0,0.22180100000014136
838,3,0.2,0.125,35.0,-1,0.0,0.19180099999994127
839,3,0.2,0.125,35.0,1,1.0,0.2685010000004695
840,3,0.2,0.125,35.0,1,1.0,0.22890100000040547
841,3,0.2,1.0,35.0,1,1.0,0.2420010000005277
842,3,0.2,0.125,35.0,1,1.0,0.23230100000000675
843,3,0.2,0.25,35.0,1,1.0,0.3357009999999718
844,3,0.2,0.0625,-35.0,-1,1.0,0.3291010000002643
845,3,0.2,0.0625,35.0,1,1.0,0.3125009999998838
846,3,0.2,0.125,-35.0,-1,1.0,0.3130010000004404
847,3,0.2,0.125,-35.0,-1,1.0,0.2029010000001108
848,3,0.2,0.125,-35.0,-1,1.0,0.24310100000002421
849,3,0.2,1.0,35.0,1,1.0,0.2832010000001901
850,3,0.2,0.25,-35.0,-1,1.0,0.18330100000048333
851,3,0.2,0.0625,35.0,1,1.0,0.34330099999988306
852,3,0.8,0.0625,-35.0,-1,1.0,0.13350100000025122
853,3,0.8,0.125,35.0,1,1.0,0.32020000000056825
854,3,0.8,0.0625,35.0,-1,0.0,0.1435010000004695
855,3,0.8,0.0,35.0,-1,0.0,0.11040099999991071
856,3,0.8,0.125,-35.0,-1,1.0,0.1671010000000024
857,3,0.8,1.0,-35.0,-1,1.0,0.23720100000036837
858,3,0.8,0.125,-35.0,-1,1.0,0.33730100000002494
859,3,0.8,0.0625,-35.0,-1,1.0,0.3842010000003029
860,3,0.8,1.0,-35.0,-1,1.0,0.1443010000002687
861,3,0.8,0.0625,-35.0,-1,1.0,0.1178010000003269
862,3,0.8,1.0,-35.0,-1,1.0,0.047801000000163185
863,3,0.8,1.0,-35.0,-1,1.0,0.17450100000041857
864,3,0.8,0.125,-35.0,-1,1.0,0.1246009999999842
865,3,0.8,0.25,-35.0,-1,1.0,0.4314010000007329
866,3,0.8,0.0625,-35.0,-1,1.0,0.46160100000042803
867,3,0.8,0.0,-35.0,-1,1.0,0.20830100000011953
868,3,0.8,1.0,35.0,1,1.0,0.24510100000043167
869,3,0.8,0.125,-35.0,-1,1.0,0.18840100000034
870,3,0.8,0.25,35.0,-1,0.0,0.04190100000050734
871,3,0.8,0.0625,-35.0,1,0.0,0.45200100000010934
872,3,0.8,0.125,-35.0,-1,1.0,0.14210100000036618
873,3,0.8,0.125,-35.0,-1,1.0,0.14560100000016973
874,3,0.8,0.25,-35.0,-1,1.0,0.16240100000050006
875,3,0.8,0.0,-35.0,-1,1.0,0.23250099999995655
876,3,0.8,0.25,-35.0,-1,1.0,0.1625010000002476
877,3,0.8,1.0,-35.0,-1,1.0,0.1426010000000133
878,3,0.8,1.0,35.0,-1,0.0,-0.023898999999801163
879,3,0.8,1.0,-35.0,-1,1.0,0.15280100000018138
880,3,0.8,0.25,-35.0,-1,1.0,0.1562010000002374
881,3,0.8,0.0,-35.0,-1,1.0,0.343000999999731
882,3,0.8,0.125,-35.0,-1,1.0,0.19970100000000457
883,3,0.8,0.125,-35.0,-1,1.0,0.1799010000004273
884,3,0.8,0.125,35.0,-1,0.0,0.33330100000011953
885,3,0.8,1.0,-35.0,-1,1.0,0.2034010000006674
886,3,0.8,0.0,-35.0,-1,1.0,0.15020099999992453
887,3,0.8,0.0,-35.0,-1,1.0,0.217000999999982
888,3,0.8,0.125,-35.0,-1,1.0,0.45370099999991
889,3,0.8,0.25,35.0,1,1.0,0.3940010000001166
890,3,0.8,0.25,-35.0,-1,1.0,0.23400100000026214
891,3,0.8,0.0,-35.0,1,0.0,0.5374010000000453
892,3,0.8,0.125,-35.0,-1,1.0,0.3308010000005197
893,3,0.8,0.0,-35.0,-1,1.0,0.16420100000004823
894,3,0.8,0.25,-35.0,-1,1.0,0.18430099999977756
895,3,0.8,0.0625,-35.0,-1,1.0,0.6211010000001806
896,3,0.2,0.0625,35.0,1,1.0,0.6545010000004368
897,3,0.2,1.0,35.0,1,1.0,0.35800100000051316
898,3,0.2,1.0,35.0,1,1.0,0.6181010000000242
899,3,0.2,1.0,35.0,1,1.0,0.3282009999998081
900,3,0.2,1.0,35.0,1,1.0,0.3115010000001348
901,3,0.2,0.25,35.0,1,1.0,0.32840100000021266
902,3,0.2,0.0,35.0,-1,0.0,0.20850100000006933
903,3,0.2,1.0,35.0,1,1.0,0.4185010000001057
904,3,0.2,0.0,35.0,1,1.0,9.005301000000145
905,3,0.2,1.0,35.0,1,1.0,0.3057010000002265
906,3,0.2,0.25,35.0,1,1.0,0.3290010000005168
907,3,0.2,1.0,35.0,1,1.0,0.25580100000024686
908,3,0.2,0.25,35.0,1,1.0,0.4359009999998307
909,3,0.2,0.125,35.0,1,1.0,0.5426010000001042
910,3,0.2,0.0,35.0,1,1.0,11.162701000000197
911,3,0.2,0.0,35.0,1,1.0,0.40970100000004095
912,3,0.2,0.25,-35.0,-1,1.0,0.1799010000004273
913,3,0.2,0.125,35.0,1,1.0,0.29990100000031816
914,3,0.2,1.0,35.0,1,1.0,0.22670100000004823
915,3,0.2,1.0,35.0,1,1.0,0.4968010000002323
916,3,0.2,0.125,35.0,1,1.0,0.6003010000003997
917,3,0.2,0.0625,-35.0,1,0.0,0.5736010000000533
918,3,0.2,0.0,35.0,1,1.0,0.4771009999999478
919,3,0.2,0.125,35.0,1,1.0,0.2873010000002978
920,3,0.2,0.0625,-35.0,1,0.0,0.4406010000002425
921,3,0.2,0.125,35.0,1,1.0,0.24080099999991944
922,3,0.2,0.0625,-35.0,1,0.0,0.2907010000003538
923,3,0.2,0.25,35.0,1,1.0,0.29100100000005114
924,3,0.2,0.125,35.0,1,1.0,0.24100100000032398
925,3,0.2,0.125,35.0,1,1.0,0.32110099999999875
926,3,0.2,1.0,35.0,1,1.0,0.2413010000000213
927,3,0.2,1.0,35.0,1,1.0,0.23120100000051025
928,3,0.2,0.0625,35.0,-1,0.0,7.278001000000131
929,3,0.2,0.25,35.0,1,1.0,9.005301000000145
930,3,0.2,0.0625,35.0,1,1.0,0.4388010000002396
931,3,0.2,0.0625,35.0,-1,0.0,26.03230100000019
932,3,0.2,0.0,-35.0,-1,1.0,3.596400999999787
933,3,0.2,0.0625,35.0,1,1.0,0.19330100000024686
934,3,0.2,0.25,35.0,1,1.0,26.59670000000051
935,3,0.2,0.0625,35.0,1,1.0,10.267401000000064
936,3,0.2,0.25,35.0,1,1.0,0.3144010000005437
937,3,0.2,0.0,-35.0,1,0.0,0.3213010000004033
938,3,0.2,0.25,35.0,1,1.0,0.2347010000003138
939,3,0.2,0.0,35.0,1,1.0,0.2413010000000213
940,3,0.2,0.0625,35.0,-1,0.0,26.751501000000644
941,3,0.2,1.0,35.0,-1,0.0,26.65910100000019
942,3,0.2,0.0625,35.0,-1,0.0,21.826501000000007
943,3,0.2,0.125,35.0,1,1.0,0.5205010000004222
944,3,0.2,0.125,35.0,1,1.0,25.934001000000535
945,3,0.2,1.0,35.0,1,1.0,0.3781010000002425
