trial_num,session_num,stim_probability_left,contrast,position,response_choice,trial_correct,reaction_time
1,8,0.5,0.0625,-35.0,-1,1.0,0.6127
2,8,0.5,0.0625,35.0,-1,0.0,5.015899999999999
3,8,0.5,0.25,-35.0,-1,1.0,0.2765999999999984
4,8,0.5,0.125,35.0,1,1.0,0.35190000000000055
5,8,0.5,0.125,-35.0,-1,1.0,0.23669999999999902
6,8,0.5,0.0,35.0,-1,0.0,0.26149999999999807
7,8,0.5,0.0,35.0,-1,0.0,1.513300000000001
8,8,0.5,1.0,-35.0,-1,1.0,0.24249999999999972
9,8,0.5,0.125,35.0,1,1.0,0.4461000000000013
10,8,0.5,0.0625,-35.0,-1,1.0,0.6512999999999955
11,8,0.5,0.125,-35.0,-1,1.0,0.3504999999999967
12,8,0.5,0.0,35.0,-1,0.0,1.9684999999999988
13,8,0.5,0.25,-35.0,-1,1.0,0.22529999999999717
14,8,0.5,0.125,-35.0,-1,1.0,2.180799999999998
15,8,0.5,0.0625,35.0,1,1.0,0.5352999999999994
16,8,0.5,0.125,-35.0,-1,1.0,0.582099999999997
17,8,0.5,0.125,35.0,-1,0.0,0.16600000000000392
18,8,0.2,0.125,35.0,1,1.0,0.21009999999999707
19,8,0.5,1.0,35.0,1,1.0,0.19169999999999732
20,8,0.5,1.0,-35.0,-1,1.0,0.33449999999999136
21,8,0.5,0.25,-35.0,-1,1.0,0.24689999999999657
22,8,0.5,0.25,35.0,-1,0.0,0.19059999999998922
23,8,0.3,0.25,35.0,1,1.0,0.25499999999999545
24,8,0.5,1.0,-35.0,-1,1.0,0.20399999999999352
25,8,0.5,1.0,-35.0,-1,1.0,0.25150000000000716
26,8,0.5,1.0,35.0,1,1.0,0.22979999999999734
27,8,0.5,0.125,35.0,1,1.0,0.28190000000000737
28,8,0.5,0.0625,-35.0,-1,1.0,0.2926999999999964
29,8,0.5,0.0,35.0,-1,0.0,1.6572999999999922
30,8,0.5,0.25,35.0,1,1.0,0.19070000000000675
31,8,0.5,0.125,35.0,-1,0.0,0.1705000000000041
32,8,0.4,0.125,35.0,1,1.0,0.32670000000000243
33,8,0.5,1.0,-35.0,-1,1.0,0.3468000000000018
34,8,0.5,0.25,-35.0,-1,1.0,0.9405999999999892
35,8,0.5,0.25,-35.0,-1,1.0,0.3474000000000075
36,8,0.5,1.0,-35.0,-1,1.0,0.30700000000000216
37,8,0.5,0.0625,35.0,1,1.0,3.760799999999989
38,8,0.5,0.125,35.0,1,1.0,0.6366000000000014
39,8,0.5,0.125,-35.0,-1,1.0,9.803599999999989
40,8,0.5,0.0625,-35.0,-1,1.0,2.6809000000000083
41,8,0.5,0.25,35.0,1,1.0,0.39090000000001623
42,8,0.5,1.0,35.0,1,1.0,0.4105000000000132
43,8,0.5,0.25,-35.0,-1,1.0,0.586199999999991
44,8,0.5,0.0625,35.0,1,1.0,2.059000000000026
45,8,0.5,1.0,35.0,1,1.0,0.45690000000001874
46,8,0.5,0.25,-35.0,-1,1.0,0.6075000000000159
47,8,0.5,1.0,-35.0,-1,1.0,0.3943000000000154
48,8,0.5,0.125,-35.0,-1,1.0,0.9036999999999864
49,8,0.5,0.25,35.0,1,1.0,0.21930000000003247
50,8,0.5,0.125,35.0,1,1.0,0.41790000000000305
51,8,0.5,0.0625,-35.0,-1,1.0,1.1064000000000362
52,8,0.5,0.25,35.0,1,1.0,0.4175000000000182
53,8,0.5,0.0625,-35.0,-1,1.0,0.9925000000000352
54,8,0.5,0.25,35.0,1,1.0,1.1319000000000017
55,8,0.5,0.25,35.0,1,1.0,1.213200000000029
56,8,0.5,1.0,35.0,1,1.0,0.2849000000000217
57,8,0.5,0.0625,-35.0,-1,1.0,0.18450000000004252
58,8,0.5,1.0,-35.0,-1,1.0,0.23560000000000514
59,8,0.5,0.125,35.0,1,1.0,0.39099999999999113
60,8,0.5,0.25,-35.0,-1,1.0,0.29419999999998936
61,8,0.5,0.0625,35.0,-1,0.0,0.22520000000000095
62,8,0.5,0.0625,35.0,-1,0.0,0.09940000000000282
63,8,0.4,0.0625,35.0,-1,0.0,1.3894999999999982
64,8,0.5,1.0,-35.0,-1,1.0,0.247099999999989
65,8,0.5,1.0,-35.0,-1,1.0,0.21210000000004925
66,8,0.5,1.0,35.0,1,1.0,0.22610000000003083
67,8,0.5,0.25,-35.0,-1,1.0,0.5513000000000261
68,8,0.5,0.25,35.0,1,1.0,0.22430000000002792
69,8,0.5,0.25,35.0,1,1.0,0.3112000000000421
70,8,0.5,0.0625,35.0,1,1.0,0.6494000000000142
71,8,0.5,0.25,35.0,1,1.0,0.31790000000000873
72,8,0.5,0.125,-35.0,-1,1.0,0.1741000000000099
73,8,0.5,1.0,35.0,1,1.0,0.25370000000000914
74,8,0.5,0.125,-35.0,-1,1.0,0.5416000000000167
75,8,0.5,0.0,-35.0,1,0.0,0.5217000000000098
76,8,0.5,0.0625,35.0,1,1.0,0.2871000000000663
77,8,0.5,0.0,35.0,1,1.0,0.1944000000000301
78,8,0.5,0.25,35.0,1,1.0,0.2300000000000182
79,8,0.5,0.0,-35.0,-1,1.0,0.7008000000000152
80,8,0.5,0.25,-35.0,-1,1.0,0.6807000000000016
81,8,0.5,0.25,35.0,1,1.0,0.46809999999999263
82,8,0.5,1.0,35.0,1,1.0,0.4112999999999829
83,8,0.5,0.25,-35.0,-1,1.0,0.3230000000000359
84,8,0.5,0.25,-35.0,-1,1.0,0.15579999999994243
85,8,0.5,0.0625,35.0,1,1.0,0.2366000000000099
86,8,0.5,0.25,-35.0,-1,1.0,0.3251000000000204
87,8,0.5,0.25,-35.0,-1,1.0,0.1714000000000624
88,8,0.5,1.0,35.0,1,1.0,0.20609999999999218
89,8,0.5,1.0,35.0,1,1.0,0.31169999999997344
90,8,0.5,0.25,-35.0,-1,1.0,0.5409000000000219
91,8,0.5,0.125,-35.0,-1,1.0,1.1410999999999945
92,8,0.5,0.125,35.0,1,1.0,0.9574000000000069
93,8,0.5,0.125,-35.0,-1,1.0,0.25960000000003447
94,8,0.5,0.25,35.0,-1,0.0,0.31159999999999854
95,8,0.4,0.25,35.0,1,1.0,0.33670000000000755
96,8,0.5,1.0,35.0,1,1.0,0.12549999999998818
97,8,0.5,0.0,35.0,-1,0.0,0.31009999999997717
98,8,0.5,0.25,35.0,-1,0.0,-0.027999999999963165
99,8,0.5,0.0625,-35.0,1,0.0,2.4633999999999787
100,8,0.5,0.25,-35.0,-1,1.0,0.5411000000000286
101,8,0.5,0.0,-35.0,1,0.0,3.781600000000026
102,8,0.5,0.0,35.0,-1,0.0,0.2873000000000161
103,8,0.5,0.0625,-35.0,-1,1.0,0.29150000000004184
104,8,0.5,0.0625,-35.0,-1,1.0,3.0189000000000306
105,8,0.5,0.25,-35.0,-1,1.0,0.23640000000000327
106,8,0.5,0.0625,35.0,-1,0.0,0.4187000000000012
107,8,0.5,0.25,35.0,-1,0.0,0.22849999999999682
108,8,0.5,0.25,-35.0,-1,1.0,0.26820000000003574
109,8,0.5,0.25,35.0,1,1.0,0.19999999999998863
110,8,0.5,1.0,35.0,1,1.0,0.375500000000045
111,8,0.5,0.0625,-35.0,-1,1.0,0.1845000000000141
112,8,0.5,0.0625,-35.0,-1,1.0,0.3042000000000371
113,8,0.5,0.125,-35.0,-1,1.0,0.29920000000004165
114,8,0.5,0.0625,-35.0,-1,1.0,0.3299999999999841
115,8,0.5,0.0625,35.0,-1,0.0,0.29069999999995844
116,8,0.5,0.125,-35.0,-1,1.0,0.6556000000000495
117,8,0.5,0.0625,35.0,-1,0.0,0.5429000000000315
118,8,0.5,0.25,35.0,1,1.0,0.44139999999998736
119,8,0.5,0.25,35.0,1,1.0,0.23479999999995016
120,8,0.5,1.0,35.0,1,1.0,0.20830000000000837
121,8,0.5,0.25,35.0,1,1.0,0.31250000000005684
122,8,0.5,0.25,-35.0,-1,1.0,0.2564000000000419
123,8,0.5,1.0,35.0,1,1.0,0.23120000000000118
124,8,0.5,0.0625,-35.0,1,0.0,0.2300999999999931
125,8,0.6,0.0625,-35.0,-1,1.0,0.27060000000000173
126,8,0.5,1.0,-35.0,-1,1.0,0.21879999999998745
127,8,0.5,0.125,-35.0,-1,1.0,0.3161999999999807
128,8,0.5,0.125,-35.0,-1,1.0,0.4282999999999788
129,8,0.5,0.25,35.0,1,1.0,0.23020000000002483
130,8,0.5,0.0,-35.0,-1,1.0,0.26640000000003283
131,8,0.5,0.0625,35.0,1,1.0,0.4141999999999939
132,8,0.5,1.0,-35.0,-1,1.0,0.2025000000000432
133,8,0.5,0.25,35.0,1,1.0,0.23310000000003583
134,8,0.5,0.25,-35.0,-1,1.0,0.19750000000004775
135,8,0.5,1.0,35.0,1,1.0,0.17720000000002756
136,8,0.5,0.0625,35.0,1,1.0,0.7679999999999723
137,8,0.5,0.125,-35.0,-1,1.0,0.27379999999999427
138,8,0.5,0.25,-35.0,-1,1.0,0.3090000000000259
139,8,0.5,0.25,35.0,1,1.0,0.2326999999999657
140,8,0.5,0.0625,-35.0,-1,1.0,0.21830000000005612
141,8,0.5,0.25,35.0,1,1.0,0.11820000000000164
142,8,0.5,0.0625,35.0,1,1.0,1.2124999999999773
143,8,0.5,1.0,35.0,1,1.0,0.35660000000001446
144,8,0.5,0.0,-35.0,-1,1.0,2.2111000000000445
145,8,0.5,0.125,-35.0,1,0.0,0.015100000000018099
146,8,0.6,0.125,35.0,1,1.0,0.2266999999999939
147,8,0.5,1.0,-35.0,-1,1.0,0.3258000000000152
148,8,0.5,0.125,-35.0,-1,1.0,0.20920000000000982
149,8,0.5,0.25,-35.0,-1,1.0,0.2942999999999074
150,8,0.5,1.0,35.0,1,1.0,0.2439000000000533
151,8,0.5,0.0625,-35.0,-1,1.0,0.237700000000018
152,8,0.5,0.25,-35.0,-1,1.0,0.3038999999999987
153,8,0.5,0.0,-35.0,1,0.0,1.0951000000000022
154,8,0.5,0.125,-35.0,-1,1.0,0.5421999999998661
155,8,0.5,0.0625,-35.0,-1,1.0,1.13049999999987
156,8,0.5,0.125,-35.0,1,0.0,0.157100000000014
157,8,0.5,0.125,-35.0,-1,1.0,0.19829999999990378
158,8,0.5,0.0625,35.0,1,1.0,0.6053999999999178
159,8,0.5,0.125,35.0,1,1.0,0.4805999999998676
160,8,0.5,0.125,-35.0,-1,1.0,0.15979999999990468
161,8,0.5,1.0,-35.0,-1,1.0,0.3392000000000053
162,8,0.5,1.0,-35.0,-1,1.0,0.24069999999994707
163,8,0.5,1.0,35.0,-1,0.0,0.1390999999999849
164,8,0.5,0.25,-35.0,-1,1.0,0.3755999999999631
165,8,0.5,0.0,-35.0,-1,1.0,0.2999999999999545
166,8,0.5,0.25,-35.0,1,0.0,0.18709999999998672
167,8,0.5,0.0,35.0,-1,0.0,0.23279999999999745
168,8,0.3,0.0,35.0,-1,0.0,0.2850999999998294
169,8,0.5,1.0,-35.0,-1,1.0,0.2319999999999709
170,8,0.5,0.125,35.0,1,1.0,0.6983999999998787
171,8,0.5,0.0625,35.0,1,1.0,0.23019999999996799
172,8,0.5,0.25,-35.0,-1,1.0,0.2362999999999147
173,8,0.5,0.0,-35.0,1,0.0,0.7336999999999989
174,8,0.5,0.125,35.0,-1,0.0,0.1408999999999878
175,8,0.5,0.125,35.0,1,1.0,0.30299999999999727
176,8,0.5,0.25,-35.0,-1,1.0,0.2259999999999991
177,8,0.5,0.25,35.0,1,1.0,0.2074000000000069
178,8,0.5,0.0625,-35.0,-1,1.0,0.3091999999999189
179,8,0.5,0.0625,35.0,-1,0.0,0.13009999999997035
180,8,0.5,0.125,35.0,1,1.0,0.6136999999998807
181,8,0.5,0.25,35.0,1,1.0,0.2542999999999438
182,8,0.5,0.0625,-35.0,-1,1.0,1.799099999999953
183,8,0.5,0.0625,-35.0,1,0.0,0.19129999999995562
184,8,0.5,0.125,-35.0,-1,1.0,0.46230000000002747
185,8,0.5,0.125,35.0,-1,0.0,0.5010999999999513
186,8,0.4,0.125,35.0,1,1.0,0.4720999999999549
187,8,0.5,1.0,-35.0,-1,1.0,0.3345999999999094
188,8,0.5,0.0625,-35.0,1,0.0,0.18319999999994252
189,8,0.5,0.0625,-35.0,-1,1.0,0.4257999999999811
190,8,0.5,1.0,-35.0,-1,1.0,0.3265999999999849
191,8,0.5,0.25,35.0,1,1.0,0.26689999999996417
192,8,0.5,0.0,35.0,1,1.0,0.23549999999988813
193,8,0.5,0.25,35.0,1,1.0,0.4561999999998534
194,8,0.5,0.0,-35.0,-1,1.0,0.18700000000001182
195,8,0.5,0.0,-35.0,-1,1.0,0.5570999999999913
196,8,0.5,0.0,-35.0,-1,1.0,0.2904999999999518
197,8,0.5,0.0,-35.0,-1,1.0,0.20689999999990505
198,8,0.5,0.0625,-35.0,-1,1.0,0.3449000000000524
199,8,0.5,0.25,-35.0,-1,1.0,0.2579999999999245
200,8,0.5,0.125,35.0,-1,0.0,0.23889999999994416
201,8,0.5,0.125,-35.0,-1,1.0,0.20500000000004093
202,8,0.5,0.0,-35.0,1,0.0,2.3648999999999205
203,8,0.2,0.0,-35.0,-1,1.0,0.3571999999999207
204,8,0.5,1.0,35.0,1,1.0,0.35439999999994143
205,8,0.5,0.125,35.0,-1,0.0,0.5360000000000582
206,8,0.5,0.25,35.0,1,1.0,0.2279999999998381
207,8,0.5,0.125,-35.0,-1,1.0,0.24929999999994834
208,8,0.5,0.0,-35.0,-1,1.0,0.6013999999998987
209,8,0.5,1.0,-35.0,-1,1.0,0.2300000000000182
210,8,0.5,0.125,-35.0,-1,1.0,0.3291999999999007
211,8,0.5,0.125,35.0,1,1.0,0.6263999999999896
212,8,0.5,1.0,35.0,1,1.0,0.26529999999991105
213,8,0.5,0.125,35.0,1,1.0,0.30769999999995434
214,8,0.5,0.125,35.0,1,1.0,0.3170999999999822
215,8,0.5,0.0625,-35.0,-1,1.0,0.1816000000000031
216,8,0.5,1.0,35.0,-1,0.0,0.09759999999994307
217,8,0.4,1.0,35.0,1,1.0,0.24720000000002074
218,8,0.5,1.0,-35.0,-1,1.0,0.5618999999999232
219,8,0.5,0.125,35.0,-1,0.0,0.12360000000001037
220,8,0.5,0.0625,35.0,1,1.0,0.26269999999999527
221,8,0.5,0.25,35.0,1,1.0,0.5989000000000715
222,8,0.5,1.0,35.0,1,1.0,0.31719999999995707
223,8,0.5,0.125,-35.0,1,0.0,0.24549999999999272
224,8,0.6,0.125,35.0,-1,0.0,0.19489899999996396
225,8,0.5,1.0,-35.0,-1,1.0,0.6464999999999463
226,8,0.5,0.0625,-35.0,1,0.0,3.6241999999999734
227,8,0.5,0.0625,-35.0,-1,1.0,0.3266999999998461
228,8,0.5,0.25,-35.0,-1,1.0,0.2363999999998896
229,8,0.5,0.0625,35.0,-1,0.0,0.30409900000006473
230,8,0.5,0.0,35.0,-1,0.0,0.4356999999999971
231,8,0.5,0.0625,-35.0,-1,1.0,0.21679999999992106
232,8,0.5,0.0625,-35.0,-1,1.0,0.6020999999999503
233,8,0.5,0.0625,35.0,1,1.0,0.6569000000000642
234,8,0.5,1.0,35.0,1,1.0,0.2400000000000091
235,8,0.5,1.0,35.0,1,1.0,0.25539999999989504
236,8,0.5,0.25,-35.0,-1,1.0,0.29379999999991924
237,8,0.5,0.0625,35.0,1,1.0,0.5969000000000051
238,8,0.5,0.0,-35.0,-1,1.0,0.3147000000000162
239,8,0.5,0.125,-35.0,-1,1.0,4.084999999999809
240,8,0.5,0.0625,-35.0,-1,1.0,0.3369999999999891
241,8,0.5,0.25,35.0,1,1.0,0.24040000000002237
242,8,0.5,1.0,-35.0,-1,1.0,0.37819999999987886
243,8,0.5,1.0,35.0,1,1.0,0.2118999999999005
244,8,0.5,0.0625,-35.0,-1,1.0,0.22749999999996362
245,8,0.5,0.0625,-35.0,-1,1.0,0.6056999999999562
246,8,0.5,0.125,35.0,1,1.0,0.36170000000004165
247,8,0.5,0.0625,35.0,1,1.0,4.590399999999818
248,8,0.5,0.125,-35.0,-1,1.0,1.493099999999913
249,8,0.5,0.125,-35.0,-1,1.0,0.248299999999972
250,8,0.5,0.25,35.0,1,1.0,0.3993999999999005
251,8,0.5,1.0,-35.0,-1,1.0,0.27710000000001855
252,8,0.5,1.0,-35.0,-1,1.0,0.2826000000000022
253,8,0.5,0.0625,-35.0,-1,1.0,0.3051999999998998
254,8,0.5,0.0625,35.0,-1,0.0,4.0014999999999645
255,8,0.5,0.0625,35.0,1,1.0,0.5537999999999101
256,8,0.5,0.125,-35.0,-1,1.0,0.23599999999999
257,8,0.5,0.125,-35.0,-1,1.0,0.41250000000002274
258,8,0.5,0.125,35.0,1,1.0,0.5084999999999127
259,8,0.5,0.0,35.0,-1,0.0,0.674199999999928
260,8,0.5,0.25,35.0,1,1.0,0.34050000000002
261,8,0.5,1.0,35.0,1,1.0,0.28159999999991214
262,8,0.5,0.25,35.0,1,1.0,0.24929999999994834
263,8,0.5,0.125,35.0,1,1.0,0.25310000000001764
264,8,0.5,0.25,-35.0,-1,1.0,0.24649999999996908
265,8,0.5,1.0,-35.0,-1,1.0,0.248299999999972
266,8,0.5,1.0,-35.0,-1,1.0,0.31769999999994525
267,8,0.5,0.125,-35.0,-1,1.0,0.4478999999998905
268,8,0.5,0.25,-35.0,-1,1.0,0.2738000000000511
269,8,0.5,1.0,35.0,1,1.0,0.4198999999998705
270,8,0.5,0.25,-35.0,-1,1.0,0.33619999999996253
271,8,0.5,0.25,-35.0,-1,1.0,0.09199999999998454
272,8,0.5,1.0,-35.0,1,0.0,0.17259999999998854
273,8,0.5,0.0,-35.0,1,0.0,0.24469999999996617
274,8,0.5,0.0625,35.0,-1,0.0,1.1420000000000528
275,8,0.5,0.0625,35.0,-1,0.0,0.2359000000000151
276,8,0.3,0.0625,-35.0,-1,1.0,0.20659999999998035
277,8,0.5,1.0,35.0,1,1.0,0.2664999999999509
278,8,0.5,0.0,-35.0,-1,1.0,0.6919000000000324
279,8,0.5,0.125,-35.0,-1,1.0,0.3936999999999671
280,8,0.5,0.125,35.0,1,1.0,0.5335000000000036
281,8,0.5,0.25,35.0,1,1.0,0.3368000000000393
282,8,0.5,1.0,35.0,1,1.0,0.2158999999999196
283,8,0.5,0.0,35.0,1,1.0,0.6709999999999354
284,8,0.5,0.0625,-35.0,-1,1.0,2.495300000000043
285,8,0.5,0.25,35.0,1,1.0,0.5098999999999023
286,8,0.5,1.0,35.0,1,1.0,0.6245999999999867
287,8,0.5,0.25,-35.0,-1,1.0,0.22919999999999163
288,8,0.5,1.0,35.0,1,1.0,0.21929999999997563
289,8,0.5,0.125,35.0,-1,0.0,0.2764999999999418
290,8,0.5,0.125,35.0,-1,0.0,0.2598000000000411
291,8,0.5,0.125,-35.0,-1,1.0,0.14299999999991542
292,8,0.5,0.25,35.0,1,1.0,0.2961999999999989
293,8,0.5,1.0,35.0,1,1.0,0.10319999999990159
294,8,0.5,1.0,35.0,1,1.0,0.46309999999994034
295,8,0.5,0.25,-35.0,-1,1.0,0.31979999999998654
296,8,0.5,0.125,35.0,1,1.0,1.0837999999998829
297,8,0.5,0.0625,35.0,1,1.0,0.2940000000000964
298,8,0.5,0.0,-35.0,-1,1.0,3.1441999999999553
299,8,0.5,0.0,35.0,-1,0.0,0.2236000000000331
300,8,0.5,0.125,35.0,-1,0.0,0.3001999999999043
301,8,0.5,0.125,-35.0,1,0.0,2.5504000000000815
302,8,0.5,0.125,-35.0,-1,1.0,0.3171999999997297
303,8,0.5,0.0625,35.0,-1,0.0,3.5909999999998945
304,8,0.4,0.0625,35.0,-1,0.0,6.477499999999964
305,8,0.5,1.0,-35.0,-1,1.0,0.28139999999984866
306,8,0.5,0.125,-35.0,-1,1.0,0.6781999999998334
307,8,0.5,0.0625,35.0,1,1.0,0.30150000000003274
308,8,0.5,0.125,-35.0,-1,1.0,3.198699999999917
309,8,0.5,0.125,35.0,1,1.0,0.9082000000000789
310,8,0.5,0.25,-35.0,-1,1.0,0.20499999999992724
311,8,0.5,0.0,-35.0,-1,1.0,3.539199999999937
312,8,0.5,0.0625,35.0,1,1.0,0.4256999999997788
313,8,0.5,0.25,-35.0,-1,1.0,0.5553999999999633
314,8,0.5,0.25,35.0,1,1.0,0.3262999999999465
315,8,0.5,0.0625,35.0,1,1.0,0.29559999999992215
316,8,0.5,0.0625,-35.0,-1,1.0,0.31579999999985375
317,8,0.5,0.0,-35.0,-1,1.0,4.212999999999965
318,8,0.5,0.125,-35.0,-1,1.0,0.030100000000174987
319,8,0.5,0.125,35.0,1,1.0,0.5359999999998308
320,8,0.5,0.125,-35.0,-1,1.0,0.4329999999999927
321,8,0.5,0.0625,35.0,-1,0.0,0.8760999999999513
322,8,0.5,0.0625,35.0,-1,0.0,0.40689999999972315
323,8,0.5,0.25,-35.0,-1,1.0,0.19029999999997926
324,8,0.5,0.25,-35.0,-1,1.0,0.7264000000000124
325,8,0.5,1.0,-35.0,-1,1.0,0.2963999999999487
326,8,0.5,0.0,35.0,-1,0.0,0.2400000000000091
327,8,0.5,0.0625,-35.0,-1,1.0,0.8105000000000473
328,8,0.5,0.125,-35.0,-1,1.0,3.800100000000157
329,8,0.5,0.25,35.0,1,1.0,0.1774000000000342
330,8,0.5,0.0625,35.0,1,1.0,0.7971999999999753
331,8,0.5,0.25,35.0,1,1.0,0.26060000000006767
332,8,0.5,0.25,-35.0,-1,1.0,0.5572999999999411
333,8,0.5,0.0,-35.0,-1,1.0,0.45089999999981956
334,8,0.5,0.125,-35.0,-1,1.0,0.5273999999999432
335,8,0.5,0.125,35.0,1,1.0,0.47479999999995925
336,8,0.5,0.0,35.0,1,1.0,0.3710000000000946
337,8,0.5,0.0625,-35.0,-1,1.0,0.1449999999999818
338,8,0.5,0.125,35.0,1,1.0,0.7043999999998505
339,8,0.5,0.0625,35.0,-1,0.0,0.8143999999999778
340,8,0.5,0.125,35.0,1,1.0,0.19139999999993051
341,8,0.5,1.0,35.0,1,1.0,0.21179999999981192
342,8,0.5,0.0625,35.0,1,1.0,0.7519999999999527
343,8,0.5,0.125,35.0,1,1.0,0.248299999999972
344,8,0.5,0.25,35.0,1,1.0,0.461699999999837
345,8,0.5,0.125,35.0,1,1.0,0.46250000000009095
346,8,0.5,0.25,-35.0,-1,1.0,0.4619999999999891
347,8,0.5,0.125,35.0,1,1.0,0.4051999999999225
348,8,0.5,1.0,-35.0,-1,1.0,0.5224000000000615
349,8,0.5,0.25,-35.0,-1,1.0,0.292699999999968
350,8,0.5,0.0,-35.0,1,0.0,0.6324999999999363
351,8,0.5,0.0625,35.0,-1,0.0,0.22959999999989122
352,8,0.5,0.0625,35.0,-1,0.0,0.2256999999999607
353,8,0.5,0.25,-35.0,-1,1.0,0.36659999999983484
354,8,0.5,0.25,-35.0,-1,1.0,0.2961999999999989
355,8,0.5,0.25,-35.0,-1,1.0,0.31949999999983447
356,8,0.5,0.125,-35.0,-1,1.0,6.26319999999987
357,8,0.5,0.125,-35.0,-1,1.0,1.2434999999998126
358,8,0.5,1.0,-35.0,-1,1.0,0.4096999999997024
359,8,0.5,1.0,-35.0,-1,1.0,1.0636999999999261
360,8,0.5,0.25,-35.0,-1,1.0,0.5504000000000815
361,8,0.5,0.0,-35.0,-1,1.0,4.214200000000119
362,8,0.5,0.125,-35.0,1,0.0,0.1639999999997599
363,8,0.5,0.125,35.0,1,1.0,0.2779000000000451
364,8,0.5,0.25,35.0,1,1.0,0.1838999999997668
365,8,0.5,1.0,-35.0,-1,1.0,0.59050000000002
366,8,0.5,0.0625,35.0,-1,0.0,0.2481000000000222
367,8,0.3,0.0625,35.0,1,1.0,0.26109999999994216
368,8,0.5,1.0,35.0,1,1.0,0.22100000000000364
369,8,0.5,0.0,35.0,-1,0.0,0.6915999999998803
370,8,0.5,0.0,-35.0,1,0.0,0.6884999999999764
371,8,0.5,1.0,35.0,1,1.0,0.17470000000002983
372,8,0.5,0.0625,35.0,1,1.0,4.628699999999753
373,8,0.5,1.0,35.0,1,1.0,0.45539999999982683
374,8,0.5,1.0,-35.0,-1,1.0,0.38180000000011205
375,8,0.5,0.125,35.0,1,1.0,0.25520000000005894
376,8,0.5,0.125,-35.0,-1,1.0,0.7291999999997643
377,8,0.5,0.25,35.0,1,1.0,0.23869999999988067
378,8,0.5,0.0625,35.0,1,1.0,2.2589000000000397
379,8,0.5,1.0,-35.0,-1,1.0,0.29559999999992215
380,8,0.5,0.125,-35.0,-1,1.0,0.30599999999981264
381,8,0.5,0.125,-35.0,-1,1.0,4.752499999999827
382,8,0.5,0.25,35.0,1,1.0,0.23330000000009932
383,8,0.5,0.125,-35.0,-1,1.0,0.3327999999999065
384,8,0.5,0.25,35.0,1,1.0,0.1960999999998876
385,8,0.5,1.0,-35.0,-1,1.0,0.2699999999999818
386,8,0.5,0.125,-35.0,-1,1.0,4.009600000000091
387,8,0.5,1.0,-35.0,-1,1.0,0.3631999999997788
388,8,0.5,1.0,35.0,1,1.0,0.22010000000000218
389,8,0.5,0.25,35.0,1,1.0,0.3931999999999789
390,8,0.5,1.0,35.0,1,1.0,0.2239999999999327
391,8,0.5,0.125,-35.0,-1,1.0,0.2865999999996802
392,8,0.5,0.125,-35.0,-1,1.0,0.6701999999997952
393,8,0.5,0.125,-35.0,1,0.0,0.29700000000002547
394,8,0.5,0.125,35.0,1,1.0,0.38679999999976644
395,8,0.5,1.0,35.0,1,1.0,0.2238999999999578
396,8,0.5,0.125,-35.0,1,0.0,0.3071999999997388
397,8,0.5,0.0625,-35.0,1,0.0,0.4071999999998752
398,8,0.5,0.125,35.0,-1,0.0,0.5446999999999207
399,8,0.5,0.125,35.0,1,1.0,0.25749999999993634
400,8,0.5,0.25,-35.0,-1,1.0,0.28749999999990905
401,8,0.5,0.0625,-35.0,-1,1.0,0.42439999999987776
402,8,0.5,0.0625,-35.0,-1,1.0,0.297800000000052
403,8,0.5,0.0625,35.0,-1,0.0,0.5079000000000633
404,8,0.5,0.0625,-35.0,1,0.0,0.11810000000014043
405,8,0.5,1.0,35.0,1,1.0,0.22810000000004038
406,8,0.5,0.0,-35.0,1,0.0,2.011500000000069
407,8,0.5,0.0,-35.0,-1,1.0,0.37179999999989377
408,8,0.5,1.0,-35.0,-1,1.0,0.761600000000044
409,8,0.5,1.0,-35.0,-1,1.0,0.2722999999998592
410,8,0.5,0.0625,35.0,1,1.0,0.13859999999999673
411,8,0.5,0.0,-35.0,-1,1.0,4.022099999999909
412,8,0.5,1.0,35.0,1,1.0,0.20219999999994798
413,8,0.5,0.25,35.0,1,1.0,0.4954000000000178
414,8,0.5,0.0625,35.0,1,1.0,0.26269999999999527
415,8,0.5,0.0,35.0,-1,0.0,2.2257999999999356
416,8,0.5,0.0625,-35.0,-1,1.0,0.5325999999997748
417,8,0.5,0.0,35.0,1,1.0,0.2298000000000684
418,8,0.5,0.25,35.0,1,1.0,0.636600000000044
419,8,0.5,0.125,-35.0,-1,1.0,0.2694000000001324
420,8,0.5,0.125,-35.0,-1,1.0,0.4329000000000178
421,8,0.5,0.125,-35.0,-1,1.0,0.4232999999999265
422,8,0.5,0.0625,35.0,-1,0.0,0.4536000000000513
423,8,0.5,0.25,35.0,1,1.0,0.1897999999998774
424,8,0.5,0.0,-35.0,-1,1.0,0.33320000000003347
425,8,0.5,0.125,35.0,1,1.0,0.4032999999999447
426,8,0.5,0.125,-35.0,-1,1.0,0.3167000000000826
427,8,0.5,0.25,-35.0,-1,1.0,0.3000999999999294
428,8,0.5,0.0625,35.0,1,1.0,0.2901000000001659
429,8,0.5,0.125,35.0,1,1.0,0.5272999999999683
430,8,0.5,0.25,-35.0,-1,1.0,0.6373999999998432
431,8,0.5,0.25,-35.0,-1,1.0,0.3671999999999116
432,8,0.5,0.0625,-35.0,-1,1.0,0.42409999999995307
433,8,0.5,0.125,35.0,1,1.0,0.24099999999998545
434,8,0.5,0.125,-35.0,-1,1.0,0.42099999999982174
435,8,0.5,0.25,-35.0,-1,1.0,0.4315000000001419
436,8,0.5,0.0625,-35.0,-1,1.0,0.3616999999997006
437,8,0.5,1.0,-35.0,-1,1.0,0.251700000000028
438,8,0.5,0.0625,35.0,1,1.0,0.2544000000000324
439,8,0.5,0.25,-35.0,-1,1.0,0.3113999999998214
440,8,0.5,0.0,35.0,1,1.0,0.2481000000000222
441,8,0.5,0.25,35.0,1,1.0,0.12469999999984793
442,8,0.5,0.25,-35.0,-1,1.0,0.48479999999995016
443,8,0.5,0.0,-35.0,-1,1.0,0.3051989999999023
444,8,0.5,0.125,35.0,-1,0.0,0.07839999999987413
445,8,0.3,0.125,-35.0,-1,1.0,0.6555000000000746
446,8,0.5,1.0,-35.0,-1,1.0,0.3020000000001346
447,8,0.5,0.0625,35.0,1,1.0,0.6023999999999887
448,8,0.5,0.25,35.0,1,1.0,0.21229999999991378
449,8,0.5,0.0625,35.0,1,1.0,0.2862999999999829
450,8,0.5,1.0,35.0,1,1.0,0.27599999999983993
451,8,0.5,0.0625,35.0,1,1.0,0.545699999999897
452,8,0.5,1.0,-35.0,-1,1.0,0.3325000000002092
453,8,0.5,0.25,-35.0,-1,1.0,0.302599999999984
454,8,0.5,1.0,35.0,1,1.0,0.23279999999999745
455,8,0.5,0.0625,-35.0,-1,1.0,0.41299999999978354
456,8,0.5,0.0625,-35.0,-1,1.0,0.35039999999980864
457,8,0.5,0.0625,-35.0,-1,1.0,1.7264999999999873
458,8,0.5,0.0625,-35.0,-1,1.0,0.412900000000036
459,8,0.5,0.125,-35.0,-1,1.0,0.32979999999997744
460,8,0.5,0.0625,-35.0,-1,1.0,0.45059999999989486
461,8,0.5,1.0,35.0,1,1.0,0.19020000000000437
462,8,0.5,0.25,-35.0,-1,1.0,0.40059999999994034
463,8,0.5,0.125,35.0,1,1.0,0.3467999999998028
464,8,0.5,0.25,-35.0,-1,1.0,0.2801999999999225
465,8,0.5,0.25,-35.0,-1,1.0,0.316899999999805
466,8,0.5,0.0625,-35.0,-1,1.0,0.3269999999997708
467,8,0.5,0.0625,35.0,1,1.0,0.2836000000002059
468,8,0.5,0.0625,-35.0,-1,1.0,0.6710000000000491
469,8,0.5,0.125,35.0,-1,0.0,0.284099999999853
470,8,0.5,0.25,35.0,1,1.0,3.594500000000153
471,8,0.5,0.125,-35.0,-1,1.0,0.4578999999998814
472,8,0.5,0.25,35.0,1,1.0,0.16099999999983083
473,8,0.5,0.125,-35.0,-1,1.0,0.6282999999998538
474,8,0.5,0.0625,35.0,-1,0.0,3.257799999999861
475,8,0.3,0.0625,35.0,-1,0.0,0.6618000000000848
476,8,0.5,1.0,-35.0,-1,1.0,0.5247999999999138
477,8,0.5,0.0625,-35.0,1,0.0,0.21159999999986212
478,8,0.5,0.125,-35.0,-1,1.0,0.2949999999998454
479,8,0.5,0.25,-35.0,-1,1.0,0.3552999999999429
480,8,0.5,1.0,35.0,1,1.0,0.38220000000001164
481,8,0.5,1.0,35.0,-1,0.0,0.2256999999999607
482,8,0.5,0.0625,35.0,-1,0.0,0.7755999999999403
483,8,0.5,0.25,35.0,1,1.0,3.7292999999999665
484,8,0.5,0.125,35.0,1,1.0,0.40940000000023247
485,8,0.5,1.0,-35.0,-1,1.0,0.439200000000028
486,8,0.5,0.0625,35.0,1,1.0,0.31960000000003674
487,8,0.5,0.25,35.0,1,1.0,0.25919999999996435
488,8,0.5,0.0625,35.0,1,1.0,1.019399999999905
489,8,0.5,0.0625,35.0,1,1.0,0.3729000000000724
490,8,0.5,0.0625,-35.0,-1,1.0,0.5128999999999451
491,8,0.5,1.0,-35.0,-1,1.0,0.4261999999998807
492,8,0.5,0.0,-35.0,-1,1.0,0.44640000000003965
493,8,0.5,0.25,35.0,1,1.0,0.6298999999999069
494,8,0.5,0.0625,35.0,-1,0.0,0.5138999999999214
495,8,0.5,0.0625,35.0,-1,0.0,0.4100999999998294
496,8,0.5,1.0,35.0,1,1.0,0.19039999999995416
497,8,0.5,0.0,-35.0,-1,1.0,6.296699999999873
498,8,0.5,1.0,-35.0,-1,1.0,0.38400000000001455
499,8,0.5,1.0,35.0,1,1.0,0.5842999999999847
500,8,0.5,0.0625,35.0,1,1.0,4.730599999999868
501,8,0.5,0.25,-35.0,-1,1.0,0.434099999999944
502,8,0.5,0.25,35.0,1,1.0,0.6075000000000728
503,8,0.5,1.0,35.0,1,1.0,0.2378000000001066
504,8,0.5,0.25,35.0,1,1.0,0.6016999999999371
505,8,0.5,1.0,35.0,1,1.0,0.29110000000014224
506,8,0.5,0.0625,35.0,1,1.0,0.715099999999893
507,8,0.5,0.125,35.0,1,1.0,0.7447999999999411
508,8,0.5,0.25,-35.0,-1,1.0,0.36149999999997817
509,8,0.5,1.0,-35.0,-1,1.0,0.41879999999991924
510,8,0.5,0.0625,-35.0,-1,1.0,8.168199999999842
511,8,0.5,1.0,35.0,1,1.0,0.25870000000008986
512,8,0.5,0.125,35.0,1,1.0,0.29529999999999745
513,8,0.5,0.25,-35.0,-1,1.0,0.8390999999999167
514,8,0.5,0.0,-35.0,1,0.0,0.4594999999999345
515,8,0.5,0.0625,-35.0,-1,1.0,0.6229999999998199
516,8,0.5,0.125,-35.0,-1,1.0,0.2798000000000229
517,8,0.5,0.0,-35.0,-1,1.0,1.2030999999999494
518,8,0.5,0.25,35.0,1,1.0,0.29980000000000473
519,8,0.5,0.25,35.0,1,1.0,0.21990000000027976
520,8,0.5,1.0,-35.0,-1,1.0,0.3967000000000098
521,8,0.5,1.0,-35.0,-1,1.0,0.37360000000012406
522,8,0.5,0.25,35.0,1,1.0,0.25699999999983447
523,8,0.5,0.125,-35.0,-1,1.0,0.506900000000087
524,8,0.5,0.0625,35.0,1,1.0,0.2703999999998814
525,8,0.5,0.25,35.0,1,1.0,0.5203999999998814
526,8,0.5,0.125,-35.0,-1,1.0,0.7338999999999487
527,8,0.5,0.25,-35.0,-1,1.0,0.4107000000001335
528,8,0.5,1.0,35.0,1,1.0,0.1739999999997508
529,8,0.5,0.0625,35.0,1,1.0,0.6507999999998901
530,8,0.5,1.0,-35.0,-1,1.0,0.25769999999988613
531,8,0.5,0.0625,-35.0,-1,1.0,2.064300000000003
532,8,0.5,1.0,-35.0,-1,1.0,0.38439999999991414
533,8,0.5,1.0,-35.0,-1,1.0,0.31120000000009895
534,8,0.5,1.0,35.0,1,1.0,0.23460000000000036
535,8,0.5,0.25,35.0,1,1.0,0.30129999999985557
536,8,0.5,1.0,-35.0,-1,1.0,0.44470000000001164
537,8,0.5,1.0,-35.0,-1,1.0,0.28150000000005093
538,8,0.5,0.125,35.0,1,1.0,0.331599999999753
539,8,0.5,1.0,35.0,1,1.0,0.42170000000010077
540,8,0.5,0.125,35.0,1,1.0,0.5984999999998308
541,8,0.5,0.0,35.0,1,1.0,0.21859999999992397
542,8,0.5,0.0625,35.0,-1,0.0,0.1618999999998323
543,8,0.5,0.125,-35.0,1,0.0,0.7753000000000156
544,8,0.5,0.25,35.0,1,1.0,3.032199999999875
545,8,0.5,0.0,35.0,-1,0.0,0.7655999999999494
546,8,0.6,0.0,35.0,-1,0.0,0.9157999999999902
547,8,0.5,1.0,35.0,1,1.0,0.14249999999992724
548,8,0.5,0.25,35.0,1,1.0,0.292699999999968
549,8,0.5,0.25,-35.0,-1,1.0,0.7293999999999414
550,8,0.5,0.0625,35.0,1,1.0,0.2496000000001004
551,8,0.5,1.0,35.0,1,1.0,0.29899999999997817
552,8,0.5,0.0,-35.0,-1,1.0,4.182999999999993
553,8,0.5,0.0,-35.0,-1,1.0,1.5931000000000495
554,8,0.5,0.125,-35.0,-1,1.0,0.3231999999998152
555,8,0.5,0.125,-35.0,1,0.0,0.4059999999997217
556,8,0.5,0.125,35.0,1,1.0,0.5562999999999647
557,8,0.5,0.0625,35.0,1,1.0,0.29989999999975225
558,8,0.5,0.0625,35.0,1,1.0,0.4233999999999014
559,8,0.5,0.0625,35.0,1,1.0,0.26630000000022847
560,8,0.5,1.0,35.0,1,1.0,0.3263999999999214
561,8,0.5,1.0,35.0,1,1.0,4.059799999999768
562,8,0.5,0.25,35.0,1,1.0,0.9634000000000924
563,8,0.5,0.125,-35.0,-1,1.0,0.5800000000001546
564,8,0.5,1.0,35.0,1,1.0,0.3042000000000371
565,8,0.5,0.25,35.0,1,1.0,0.48700000000008004
566,8,0.5,0.25,35.0,1,1.0,2.0741999999997915
567,8,0.5,0.25,-35.0,-1,1.0,0.2536999999999807
568,8,0.5,0.0,-35.0,1,0.0,0.3040000000000873
569,8,0.5,0.0,35.0,-1,0.0,0.6308999999998832
570,8,0.5,0.25,-35.0,-1,1.0,0.5640000000000782
571,8,0.5,1.0,-35.0,-1,1.0,0.3873999999998432
572,8,0.5,1.0,-35.0,-1,1.0,0.3209000000006199
573,8,0.5,0.0625,35.0,1,1.0,0.5116000000002714
574,8,0.5,0.25,-35.0,-1,1.0,0.421100000000024
575,8,0.5,0.25,35.0,1,1.0,0.23450000000002547
576,8,0.5,0.25,-35.0,-1,1.0,0.4185000000002219
577,8,0.5,1.0,35.0,1,1.0,0.2314000000001215
578,8,0.5,0.0625,35.0,-1,0.0,0.5889000000001943
579,8,0.5,0.125,35.0,1,1.0,0.30220000000053915
580,8,0.5,0.25,-35.0,-1,1.0,0.48500000000012733
581,8,0.5,1.0,35.0,1,1.0,0.2450000000003456
582,8,0.5,0.125,35.0,1,1.0,0.30840000000034706
583,8,0.5,0.125,35.0,-1,0.0,0.3920000000002801
584,8,0.5,0.25,35.0,1,1.0,1.1689000000001215
585,8,0.5,0.125,-35.0,-1,1.0,4.461900000000242
586,8,0.5,0.0625,35.0,1,1.0,0.8454000000001543
587,8,0.5,0.25,35.0,1,1.0,0.3358000000002903
588,8,0.5,0.0625,35.0,1,1.0,0.25640000000021246
589,8,0.5,0.0625,35.0,-1,0.0,0.6064000000001215
590,8,0.5,0.0625,35.0,1,1.0,0.40990000000010696
591,8,0.5,0.125,35.0,1,1.0,4.686100000000351
592,8,0.5,0.25,35.0,1,1.0,2.289900000000671
593,8,0.5,0.25,35.0,1,1.0,0.3362000000001899
594,8,0.5,1.0,-35.0,-1,1.0,0.34970000000021173
595,8,0.5,0.0625,-35.0,-1,1.0,0.686500000000251
596,8,0.5,0.25,35.0,1,1.0,0.3168000000000575
597,8,0.5,1.0,35.0,1,1.0,0.4067000000000007
598,8,0.5,0.0,35.0,1,1.0,2.5869000000002416
599,8,0.5,0.125,35.0,1,1.0,1.76720000000023
600,8,0.5,0.25,35.0,-1,0.0,4.036899999999605
601,8,0.5,0.0625,-35.0,1,0.0,6.970700000000306
602,8,0.7,0.0625,35.0,1,1.0,0.37460000000055516
603,8,0.5,1.0,-35.0,-1,1.0,11.584900000000289
604,8,0.5,1.0,35.0,1,1.0,5.454699999999775
605,8,0.5,1.0,35.0,1,1.0,0.2782000000006519
606,8,0.5,0.25,-35.0,-1,1.0,0.2721999999998843
607,8,0.5,0.25,-35.0,-1,1.0,0.35530000000017026
608,8,0.5,0.125,35.0,1,1.0,0.42219999999997526
609,8,0.5,0.0625,-35.0,-1,1.0,0.6157000000002881
610,8,0.5,1.0,-35.0,-1,1.0,0.31900000000041473
611,8,0.5,0.0,-35.0,-1,1.0,0.2954000000004271
612,8,0.5,0.125,35.0,1,1.0,0.3322000000002845
613,8,0.5,0.125,35.0,1,1.0,0.3292000000005828
614,8,0.5,0.0,-35.0,-1,1.0,0.32609999999976935
615,8,0.5,0.0625,-35.0,-1,1.0,0.4491000000002714
616,8,0.5,1.0,35.0,1,1.0,6.899499999999989
617,8,0.5,0.0,-35.0,-1,1.0,4.516699999999673
618,8,0.5,1.0,-35.0,-1,1.0,0.29650000000037835
619,8,0.5,0.0625,35.0,-1,0.0,0.3265000000001237
620,8,0.5,0.0,35.0,-1,0.0,0.39680000000043947
621,8,0.5,0.125,-35.0,-1,1.0,0.70699999999988
622,8,0.5,1.0,-35.0,-1,1.0,0.24330000000054497
623,8,0.5,1.0,35.0,1,1.0,0.3205000000002656
624,8,0.5,0.0625,-35.0,-1,1.0,0.5302000000001499
625,8,0.5,0.0,35.0,-1,0.0,0.8939000000004853
626,8,0.2,0.0,35.0,-1,0.0,0.40410000000019863
627,8,0.5,1.0,35.0,1,1.0,0.21420000000034634
628,8,0.5,0.0,35.0,-1,0.0,0.2976000000003296
629,8,0.5,0.25,35.0,1,1.0,0.20400000000017826
630,8,0.5,0.25,35.0,1,1.0,0.171100000000024
631,8,0.5,0.0625,35.0,-1,0.0,0.5148000000003776
632,8,0.4,0.0625,35.0,-1,0.0,0.6245000000003529
633,8,0.5,1.0,-35.0,-1,1.0,0.5277999999998428
634,8,0.5,0.0625,35.0,-1,0.0,0.4881000000000313
635,8,0.5,0.125,-35.0,-1,1.0,0.49139999999988504
636,8,0.5,0.0,35.0,-1,0.0,5.204700000000685
637,8,0.5,0.0,-35.0,-1,1.0,0.35500000000047294
638,8,0.5,1.0,35.0,1,1.0,4.062500000000455
639,8,0.5,0.125,35.0,1,1.0,8.342000000000098
640,8,0.5,0.0625,35.0,1,1.0,26.056100000000242
641,8,0.5,0.0625,-35.0,-1,1.0,2.3729000000002998
642,8,0.5,1.0,-35.0,-1,1.0,6.2533000000003085
643,8,0.5,1.0,35.0,1,1.0,0.27390000000059445
644,8,0.5,0.125,35.0,1,1.0,0.31710000000020955
645,8,0.5,1.0,35.0,1,1.0,0.2943000000000211
646,8,0.5,0.0,35.0,-1,0.0,15.053600000000188
647,8,0.5,0.0,35.0,-1,0.0,24.151300000000447
648,8,0.6,0.0,-35.0,-1,1.0,8.255400000000463
649,8,0.5,1.0,-35.0,-1,1.0,0.34930000000031214
650,8,0.5,0.0625,-35.0,1,0.0,18.079300000000785
651,8,0.4,0.0625,35.0,1,1.0,21.139300000000276
652,8,0.5,1.0,35.0,1,1.0,0.330000000000382
653,8,0.5,1.0,-35.0,-1,1.0,0.5266999999998916
654,8,0.5,0.0625,-35.0,-1,1.0,2.1702000000000226
655,8,0.5,0.0,35.0,-1,0.0,0.37340000000040163
656,8,0.5,0.0,35.0,-1,0.0,0.46039999999993597
657,8,0.3,0.0,-35.0,-1,1.0,6.807099999999991
658,8,0.5,1.0,-35.0,-1,1.0,8.610499999999774
659,8,0.5,0.0,35.0,-1,0.0,0.24770000000034997
660,8,0.5,0.0,-35.0,-1,1.0,0.024600000000191358
661,8,0.5,0.0625,35.0,-1,0.0,0.6617000000001099
662,8,0.5,0.125,-35.0,-1,1.0,0.36500000000023647
663,8,0.5,1.0,35.0,1,1.0,0.2713000000003376
664,8,0.5,0.0625,-35.0,-1,1.0,4.064700000000357
665,8,0.5,0.25,-35.0,-1,1.0,0.2818999999999505
666,8,0.5,0.0625,-35.0,-1,1.0,6.212100000000646
667,8,0.5,0.0625,35.0,-1,0.0,1.171900000000278
668,8,0.5,0.0625,-35.0,-1,1.0,0.32210000000077343
669,8,0.5,0.25,-35.0,-1,1.0,0.32910000000038053
670,8,0.5,0.0625,-35.0,-1,1.0,0.4054999999998472
671,8,0.5,1.0,35.0,1,1.0,0.22950000000037107
672,8,0.5,1.0,35.0,1,1.0,0.309200000000601
673,8,0.5,0.0625,35.0,-1,0.0,0.9392000000002554
674,8,0.5,0.125,-35.0,-1,1.0,0.34940000000005966
675,8,0.5,0.125,-35.0,-1,1.0,0.7164000000002488
676,8,0.5,0.125,-35.0,-1,1.0,0.3166000000001077
677,8,0.5,0.25,35.0,1,1.0,9.503000000000156
678,8,0.5,1.0,-35.0,-1,1.0,0.2132000000001426
679,8,0.5,0.25,-35.0,-1,1.0,0.5370000000002619
680,8,0.5,0.0625,35.0,1,1.0,0.3277000000002772
681,8,0.5,0.0625,-35.0,-1,1.0,0.4834000000000742
682,8,0.5,1.0,-35.0,-1,1.0,0.2836000000002059
683,8,0.5,0.25,35.0,1,1.0,0.29759999999987485
684,8,0.5,0.0625,-35.0,-1,1.0,0.32389999999986685
685,8,0.5,0.25,35.0,1,1.0,4.01740000000018
686,8,0.5,0.25,-35.0,-1,1.0,0.2211000000002059
687,8,0.5,1.0,-35.0,-1,1.0,0.4311999999999898
688,8,0.5,0.0,35.0,-1,0.0,0.4974000000001979
689,8,0.5,0.0,35.0,-1,0.0,0.3075000000003456
690,8,0.5,0.25,-35.0,-1,1.0,0.4084000000002561
691,8,0.5,1.0,35.0,1,1.0,0.28480000000035943
692,8,0.5,1.0,35.0,1,1.0,0.2715000000002874
693,8,0.5,0.0625,-35.0,-1,1.0,0.6346000000003187
694,8,0.5,0.25,-35.0,-1,1.0,0.39789999999993597
695,8,0.5,0.0625,35.0,1,1.0,2.994699999999739
1,9,0.5,0.25,35.0,1,1.0,1.4891999999999999
2,9,0.5,0.125,-35.0,-1,1.0,0.1938999999999993
3,9,0.5,0.0625,35.0,1,1.0,3.3527999999999993
4,9,0.5,1.0,35.0,1,1.0,0.30819999999999936
5,9,0.5,0.25,35.0,1,1.0,0.9666000000000032
6,9,0.5,0.25,35.0,-1,0.0,0.38260000000000005
7,9,0.8,0.25,35.0,-1,0.0,1.851300000000002
8,9,0.5,1.0,-35.0,-1,1.0,0.4352000000000018
9,9,0.5,0.25,35.0,1,1.0,2.709000000000003
10,9,0.5,1.0,-35.0,-1,1.0,0.4131
11,9,0.5,0.0625,35.0,1,1.0,0.3066000000000031
12,9,0.5,0.0625,35.0,1,1.0,1.756300000000003
13,9,0.5,0.0,35.0,1,1.0,0.258899999999997
14,9,0.5,1.0,-35.0,-1,1.0,0.4592000000000027
15,9,0.5,0.0625,-35.0,-1,1.0,8.6723
16,9,0.5,1.0,-35.0,-1,1.0,0.20809999999998752
17,9,0.5,0.0,-35.0,-1,1.0,6.605399999999989
18,9,0.5,0.25,-35.0,-1,1.0,0.2301999999999964
19,9,0.5,0.25,35.0,1,1.0,1.0095999999999776
20,9,0.5,0.125,35.0,1,1.0,0.9624000000000024
21,9,0.5,0.0625,35.0,1,1.0,2.5678999999999803
22,9,0.5,0.125,35.0,1,1.0,0.28249999999999886
23,9,0.5,0.25,-35.0,-1,1.0,0.24209999999999354
24,9,0.5,0.25,35.0,1,1.0,0.3376999999999981
25,9,0.5,0.0,-35.0,-1,1.0,0.372799999999998
26,9,0.5,0.25,-35.0,-1,1.0,0.3114999999999952
27,9,0.5,0.0625,-35.0,-1,1.0,0.4148999999999887
28,9,0.5,0.25,35.0,-1,0.0,3.493799999999993
29,9,0.5,0.25,35.0,1,1.0,0.4102999999999781
30,9,0.5,0.0625,35.0,-1,0.0,0.5300000000000011
31,9,0.5,0.0,35.0,1,1.0,0.2417999999999978
32,9,0.5,0.0625,-35.0,-1,1.0,0.2833999999999861
33,9,0.5,0.25,-35.0,-1,1.0,0.2348999999999961
34,9,0.5,0.125,-35.0,-1,1.0,0.5092999999999961
35,9,0.5,0.0625,-35.0,-1,1.0,0.5894000000000119
36,9,0.5,0.0625,35.0,1,1.0,0.9973000000000241
37,9,0.5,0.0625,35.0,1,1.0,0.4899000000000058
38,9,0.5,0.125,35.0,1,1.0,0.2966999999999871
39,9,0.5,0.0625,35.0,1,1.0,0.9113000000000113
40,9,0.5,0.125,-35.0,-1,1.0,0.4566000000000372
41,9,0.5,0.25,-35.0,-1,1.0,0.4387000000000114
42,9,0.5,1.0,-35.0,-1,1.0,0.45640000000000214
43,9,0.5,0.0,35.0,-1,0.0,4.075999999999993
44,9,0.5,0.25,35.0,1,1.0,0.41950000000002774
45,9,0.5,0.0625,-35.0,-1,1.0,0.31469999999998777
46,9,0.5,1.0,-35.0,-1,1.0,0.35490000000001487
47,9,0.5,0.0,35.0,1,1.0,0.9862000000000251
48,9,0.5,0.125,-35.0,-1,1.0,0.9639000000000237
49,9,0.5,0.0,-35.0,1,0.0,0.12860000000000582
50,9,0.5,0.125,-35.0,-1,1.0,0.3316000000000088
51,9,0.5,0.0,35.0,-1,0.0,2.1071999999999775
52,9,0.3,0.0,-35.0,1,0.0,2.032800000000009
53,9,0.5,1.0,35.0,1,1.0,0.1682999999999879
54,9,0.5,0.0625,-35.0,-1,1.0,0.42619999999999436
55,9,0.5,0.0625,-35.0,-1,1.0,0.49790000000001555
56,9,0.5,0.0625,35.0,-1,0.0,3.0895000000000152
57,9,0.5,0.0625,-35.0,1,0.0,0.23910000000000764
58,9,0.5,0.0,35.0,1,1.0,0.2901000000000238
59,9,0.5,0.25,35.0,1,1.0,0.1880000000000166
60,9,0.5,0.25,-35.0,-1,1.0,0.35200000000000387
61,9,0.5,0.125,-35.0,-1,1.0,0.2925999999999931
62,9,0.5,0.125,35.0,1,1.0,0.3114000000000203
63,9,0.5,0.25,35.0,-1,0.0,0.9771000000000072
64,9,0.5,0.125,35.0,1,1.0,0.5013000000000147
65,9,0.5,0.0,35.0,-1,0.0,0.05360000000001719
66,9,0.5,0.0,35.0,-1,0.0,0.2119000000000142
67,9,0.5,1.0,35.0,-1,0.0,4.034599999999983
68,9,0.5,0.125,-35.0,-1,1.0,1.0243999999999858
69,9,0.5,0.25,35.0,1,1.0,2.794700000000006
70,9,0.5,0.0625,-35.0,-1,1.0,1.010799999999989
71,9,0.5,0.0625,35.0,1,1.0,4.799199999999985
72,9,0.5,0.0625,35.0,-1,0.0,2.740599999999972
73,9,0.5,0.25,-35.0,1,0.0,3.465499999999963
74,9,0.5,0.125,-35.0,1,0.0,0.47659999999996217
75,9,0.5,0.0,35.0,1,1.0,0.09789999999998145
76,9,0.5,0.0,-35.0,-1,1.0,3.462600000000009
77,9,0.5,0.0625,35.0,1,1.0,0.5062999999999533
78,9,0.5,0.0625,-35.0,-1,1.0,0.46139999999996917
79,9,0.5,0.125,35.0,1,1.0,0.23559999999997672
80,9,0.5,0.0,35.0,-1,0.0,2.9687999999999306
81,9,0.5,0.125,-35.0,-1,1.0,0.3802000000000021
82,9,0.5,0.0,-35.0,-1,1.0,0.593400000000031
83,9,0.5,0.25,-35.0,-1,1.0,0.241800000000012
84,9,0.5,0.0625,-35.0,-1,1.0,0.6582000000000221
85,9,0.5,0.0625,35.0,-1,0.0,0.22139999999996007
86,9,0.5,0.0,-35.0,1,0.0,5.0610000000000355
87,9,0.5,0.25,-35.0,-1,1.0,0.25979999999998427
88,9,0.5,0.0625,-35.0,-1,1.0,0.4259999999999877
89,9,0.5,1.0,-35.0,-1,1.0,0.5661999999999239
90,9,0.5,0.25,35.0,1,1.0,0.6370999999999754
91,9,0.5,0.0625,35.0,-1,0.0,3.6580000000000155
92,9,0.5,0.0,35.0,-1,0.0,0.06789999999995189
93,9,0.5,0.125,-35.0,-1,1.0,0.24250000000000682
94,9,0.5,0.0,-35.0,-1,1.0,0.43859999999995125
95,9,0.5,0.0,35.0,-1,0.0,0.27890000000002146
96,9,0.2,0.0,35.0,-1,0.0,5.177799999999934
97,9,0.5,1.0,35.0,1,1.0,0.2615000000000123
98,9,0.5,1.0,35.0,1,1.0,0.22659999999996217
99,9,0.5,0.0625,35.0,1,1.0,0.6702999999999406
100,9,0.5,0.125,-35.0,-1,1.0,0.7048999999999523
101,9,0.5,1.0,-35.0,-1,1.0,0.6795999999999367
102,9,0.5,0.0,-35.0,-1,1.0,2.9051000000000045
103,9,0.5,0.0,-35.0,1,0.0,3.398200000000031
104,9,0.5,0.25,35.0,1,1.0,0.11250000000001137
105,9,0.5,1.0,35.0,1,1.0,0.1882999999999697
106,9,0.5,0.25,35.0,1,1.0,0.3612999999999147
107,9,0.5,0.25,35.0,1,1.0,0.19829999999996062
108,9,0.5,0.0,-35.0,1,0.0,1.48539999999997
109,9,0.5,0.25,-35.0,1,0.0,0.19909999999998718
110,9,0.5,0.0,-35.0,1,0.0,0.1886000000000081
111,9,0.5,0.125,-35.0,-1,1.0,0.23779999999993606
112,9,0.5,0.0625,-35.0,-1,1.0,0.45359999999999445
113,9,0.5,0.25,35.0,-1,0.0,0.17670000000003938
114,9,0.5,0.25,-35.0,-1,1.0,0.2699999999999818
115,9,0.5,1.0,35.0,1,1.0,0.20339999999993097
116,9,0.5,0.0625,-35.0,-1,1.0,0.253599999999949
117,9,0.5,0.25,-35.0,-1,1.0,0.8706000000000245
118,9,0.5,0.0625,35.0,-1,0.0,3.6277999999999793
119,9,0.5,0.0,35.0,-1,0.0,0.1642999999999688
120,9,0.5,0.0625,35.0,1,1.0,0.2949999999999591
121,9,0.5,1.0,35.0,1,1.0,0.28839999999996735
122,9,0.5,0.0625,35.0,1,1.0,0.6337999999999511
123,9,0.5,0.25,-35.0,-1,1.0,0.3038999999999987
124,9,0.5,1.0,35.0,1,1.0,0.41329999999999245
125,9,0.5,0.0,35.0,1,1.0,5.813099999999963
126,9,0.5,1.0,35.0,1,1.0,0.1956000000000131
127,9,0.5,1.0,35.0,1,1.0,0.36829999999997654
128,9,0.5,0.25,-35.0,-1,1.0,0.6000999999999976
129,9,0.5,0.0625,-35.0,-1,1.0,0.3307999999999538
130,9,0.5,0.0,35.0,-1,0.0,0.38799999999991996
131,9,0.5,0.0,35.0,1,1.0,0.39009999999996126
132,9,0.5,0.125,35.0,1,1.0,0.4387999999999579
133,9,0.5,1.0,35.0,1,1.0,0.5947999999999638
134,9,0.5,0.0625,-35.0,-1,1.0,0.7702999999999633
135,9,0.5,1.0,-35.0,-1,1.0,0.4463000000000079
136,9,0.5,0.0,-35.0,1,0.0,0.2559999999999718
137,9,0.5,0.125,-35.0,-1,1.0,0.30079999999992424
138,9,0.5,1.0,-35.0,-1,1.0,0.17040000000008604
139,9,0.5,0.25,35.0,1,1.0,0.3349000000000615
140,9,0.5,0.125,35.0,-1,0.0,4.892000000000053
141,9,0.5,0.0,35.0,1,1.0,0.15989999999999327
142,9,0.5,0.0,-35.0,1,0.0,3.2328999999999724
143,9,0.5,0.0,-35.0,1,0.0,0.20049999999991996
144,9,0.5,1.0,35.0,1,1.0,0.32130000000006476
145,9,0.5,0.0,35.0,-1,0.0,0.24840000000006057
146,9,0.5,0.0,35.0,1,1.0,0.2091000000001486
147,9,0.5,1.0,-35.0,-1,1.0,0.33350000000007185
148,9,0.5,0.0625,-35.0,1,0.0,0.2985999999999649
149,9,0.5,0.125,-35.0,-1,1.0,0.9030000000001337
150,9,0.5,0.125,-35.0,-1,1.0,0.12620000000015352
151,9,0.5,0.0625,-35.0,-1,1.0,0.3091999999999189
152,9,0.5,1.0,35.0,1,1.0,0.24700000000018463
153,9,0.5,0.0,35.0,-1,0.0,3.8239999999999554
154,9,0.5,0.25,35.0,1,1.0,0.17490000000009331
155,9,0.5,0.25,-35.0,-1,1.0,0.36599999999998545
156,9,0.5,0.125,35.0,1,1.0,2.9769000000001142
157,9,0.5,0.25,-35.0,-1,1.0,0.675200000000018
158,9,0.5,0.0,-35.0,-1,1.0,2.9019000000000688
159,9,0.5,0.125,35.0,1,1.0,0.31510000000002947
160,9,0.5,0.125,-35.0,-1,1.0,0.1630999999999858
161,9,0.5,0.25,35.0,1,1.0,0.22790000000009059
162,9,0.5,0.25,-35.0,-1,1.0,0.22490000000004784
163,9,0.5,0.125,-35.0,-1,1.0,0.7294000000000551
164,9,0.5,0.0625,35.0,-1,0.0,0.7572000000000116
165,9,0.5,0.0625,-35.0,1,0.0,0.33169999999995525
166,9,0.5,0.0,-35.0,1,0.0,0.1790000000000873
167,9,0.5,0.0,-35.0,1,0.0,0.3464000000000169
168,9,0.5,0.125,-35.0,-1,1.0,0.5362999999999829
169,9,0.5,0.0625,-35.0,-1,1.0,0.6087000000001126
170,9,0.5,0.125,-35.0,-1,1.0,0.3287000000000262
171,9,0.5,0.125,35.0,1,1.0,0.31380000000001473
172,9,0.5,0.0625,35.0,1,1.0,0.2717000000000098
173,9,0.5,0.25,35.0,1,1.0,0.19029999999997926
174,9,0.5,0.125,-35.0,-1,1.0,0.40869999999995343
175,9,0.5,0.125,-35.0,-1,1.0,0.19429999999999836
176,9,0.5,0.0625,35.0,1,1.0,0.39620000000002165
177,9,0.5,0.0625,35.0,-1,0.0,3.0562000000001035
178,9,0.5,0.25,-35.0,-1,1.0,0.17669999999998254
179,9,0.5,0.125,-35.0,-1,1.0,0.31710000000009586
180,9,0.5,0.0625,35.0,-1,0.0,0.2785000000000082
181,9,0.5,0.0625,35.0,-1,0.0,0.23270000000013624
182,9,0.5,0.0625,-35.0,-1,1.0,0.1127999999999929
183,9,0.5,0.25,-35.0,-1,1.0,0.47850000000005366
184,9,0.5,1.0,-35.0,-1,1.0,0.5762999999999465
185,9,0.5,1.0,-35.0,-1,1.0,0.5080000000000382
186,9,0.5,0.25,-35.0,1,0.0,0.16780000000005657
187,9,0.5,0.0625,-35.0,-1,1.0,0.45050000000003365
188,9,0.5,0.125,-35.0,-1,1.0,1.6929000000000087
189,9,0.5,0.125,35.0,1,1.0,0.36750000000006366
190,9,0.5,0.125,35.0,-1,0.0,2.815800000000081
191,9,0.5,0.125,-35.0,-1,1.0,1.3806000000000722
192,9,0.5,1.0,35.0,1,1.0,0.20010000000002037
193,9,0.5,0.25,35.0,1,1.0,0.2576000000000249
194,9,0.5,0.0625,-35.0,-1,1.0,0.359299999999962
195,9,0.5,0.0625,-35.0,-1,1.0,1.2126000000000658
196,9,0.5,0.25,-35.0,-1,1.0,0.6627999999999474
197,9,0.5,1.0,35.0,1,1.0,0.27080000000000837
198,9,0.5,0.0625,35.0,-1,0.0,0.7849999999999682
199,9,0.5,0.25,35.0,-1,0.0,0.34399999999993724
200,9,0.5,0.0625,-35.0,-1,1.0,0.2845000000000937
201,9,0.5,0.25,-35.0,-1,1.0,0.411200000000008
202,9,0.5,0.0,35.0,-1,0.0,3.028400000000147
203,9,0.5,0.25,35.0,1,1.0,0.5568000000000666
204,9,0.5,0.25,35.0,1,1.0,0.1729000000001406
205,9,0.5,0.25,35.0,1,1.0,0.8294000000000779
206,9,0.5,0.0,-35.0,-1,1.0,0.30539999999996326
207,9,0.5,0.25,-35.0,-1,1.0,0.6672000000000935
208,9,0.5,0.0625,-35.0,-1,1.0,0.9906000000000859
209,9,0.5,1.0,-35.0,1,0.0,1.785600000000045
210,9,0.5,0.0625,35.0,1,1.0,0.29750000000001364
211,9,0.5,0.125,-35.0,-1,1.0,1.2895000000000891
212,9,0.5,1.0,35.0,1,1.0,0.2643000000000484
213,9,0.5,0.125,-35.0,-1,1.0,0.3343999999999596
214,9,0.5,0.125,-35.0,1,0.0,0.34010000000000673
215,9,0.5,0.125,35.0,1,1.0,0.605600000000095
216,9,0.5,1.0,35.0,1,1.0,0.2419000000001006
217,9,0.5,0.125,35.0,1,1.0,0.2381000000000313
218,9,0.5,0.0625,-35.0,1,0.0,0.24450000000013006
219,9,0.5,0.25,35.0,1,1.0,0.2597999999999274
220,9,0.5,0.25,35.0,1,1.0,0.19390000000009877
221,9,0.5,0.0625,35.0,-1,0.0,2.276700000000119
222,9,0.5,0.0,35.0,-1,0.0,6.451599999999985
223,9,0.5,0.125,-35.0,-1,1.0,3.7192000000001144
224,9,0.5,0.0625,35.0,1,1.0,0.25640000000009877
225,9,0.5,0.0625,-35.0,-1,1.0,9.465400000000045
226,9,0.5,0.125,35.0,1,1.0,0.9067000000000007
227,9,0.5,0.0625,-35.0,-1,1.0,0.7676999999999907
228,9,0.5,0.0,35.0,-1,0.0,4.036600000000021
229,9,0.5,0.25,35.0,1,1.0,0.2341000000000122
230,9,0.5,1.0,-35.0,-1,1.0,0.34580000000005384
231,9,0.5,0.25,-35.0,-1,1.0,0.3468000000000302
232,9,0.5,1.0,-35.0,-1,1.0,0.31320000000005166
233,9,0.5,0.125,-35.0,-1,1.0,0.3269999999999982
234,9,0.5,0.0625,-35.0,-1,1.0,5.486200000000167
235,9,0.5,0.125,-35.0,-1,1.0,1.058400000000006
236,9,0.5,0.0625,-35.0,-1,1.0,0.7854999999999563
237,9,0.5,0.0625,-35.0,1,0.0,0.1852000000000089
238,9,0.5,0.125,35.0,1,1.0,0.3789000000000442
239,9,0.5,1.0,35.0,1,1.0,0.2077000000000453
240,9,0.5,1.0,35.0,1,1.0,0.26539999999999964
241,9,0.5,0.25,-35.0,-1,1.0,0.5031000000000176
242,9,0.5,0.0625,-35.0,-1,1.0,0.32290000000011787
243,9,0.5,1.0,-35.0,-1,1.0,0.5247000000000526
244,9,0.5,0.125,35.0,1,1.0,0.46480000000008204
245,9,0.5,0.0625,-35.0,-1,1.0,0.6208000000000311
246,9,0.5,0.0,-35.0,-1,1.0,0.2843000000000302
247,9,0.5,0.0625,35.0,1,1.0,0.30530000000010205
248,9,0.5,0.25,-35.0,-1,1.0,0.6415000000001783
249,9,0.5,0.0625,35.0,1,1.0,0.6189000000000533
250,9,0.5,0.125,-35.0,-1,1.0,3.594400000000064
251,9,0.5,0.125,-35.0,1,0.0,0.16440000000000055
252,9,0.5,0.25,35.0,1,1.0,0.1653999999999769
253,9,0.5,0.0,35.0,1,1.0,0.1835000000000946
254,9,0.5,0.25,-35.0,-1,1.0,0.24510000000009313
255,9,0.5,0.125,-35.0,-1,1.0,0.4273000000000593
256,9,0.5,0.125,-35.0,-1,1.0,0.5115000000000691
257,9,0.5,0.25,35.0,1,1.0,0.5238000000000511
258,9,0.5,0.125,-35.0,-1,1.0,0.40360000000009677
259,9,0.5,0.25,35.0,1,1.0,0.3307000000000926
260,9,0.5,0.0625,35.0,1,1.0,0.2315000000000964
261,9,0.5,0.125,35.0,1,1.0,0.30769999999995434
262,9,0.5,0.0,35.0,-1,0.0,0.8724000000000842
263,9,0.5,0.0625,-35.0,-1,1.0,0.6217000000000326
264,9,0.5,0.25,35.0,1,1.0,0.43100000000004
265,9,0.5,0.25,35.0,1,1.0,0.2857000000001335
266,9,0.5,1.0,-35.0,-1,1.0,0.2945000000000846
267,9,0.5,0.25,35.0,1,1.0,0.18860000000006494
268,9,0.5,1.0,-35.0,-1,1.0,0.5940000000000509
269,9,0.5,1.0,35.0,1,1.0,0.3694000000000415
270,9,0.5,0.0,-35.0,-1,1.0,0.8500000000000227
271,9,0.5,0.125,-35.0,-1,1.0,0.3892000000000735
272,9,0.5,1.0,-35.0,-1,1.0,0.7923000000000684
273,9,0.5,1.0,-35.0,-1,1.0,0.27300000000002456
274,9,0.5,0.125,-35.0,-1,1.0,0.5090000000000146
275,9,0.5,0.0625,-35.0,-1,1.0,0.4858000000000402
276,9,0.5,0.125,35.0,1,1.0,5.10590000000002
277,9,0.5,0.25,35.0,1,1.0,0.13610000000005584
278,9,0.5,0.125,-35.0,-1,1.0,0.3994999999999891
279,9,0.5,0.0625,-35.0,-1,1.0,0.3328999999999951
280,9,0.5,1.0,35.0,1,1.0,0.31979999999998654
281,9,0.5,0.0625,35.0,-1,0.0,0.6697999999998956
282,9,0.5,0.0625,-35.0,-1,1.0,0.20989899999995032
283,9,0.5,0.0625,-35.0,-1,1.0,0.2566999999999098
284,9,0.5,0.0,-35.0,1,0.0,0.18669999999997344
285,9,0.4,0.0,35.0,-1,0.0,4.453500000000076
286,9,0.5,1.0,35.0,1,1.0,0.1537999999998192
287,9,0.5,0.0625,-35.0,-1,1.0,0.613800000000083
288,9,0.5,0.25,35.0,1,1.0,0.33390000000008513
289,9,0.5,0.0,-35.0,-1,1.0,0.2839999999998781
290,9,0.5,0.0,-35.0,1,0.0,1.0573999999996886
291,9,0.5,0.125,-35.0,-1,1.0,0.3774999999998272
292,9,0.5,1.0,-35.0,-1,1.0,0.2942999999997937
293,9,0.5,1.0,-35.0,-1,1.0,0.23099999999999454
294,9,0.5,0.25,-35.0,-1,1.0,0.421100000000024
295,9,0.5,0.0,35.0,-1,0.0,0.371199999999817
296,9,0.5,0.25,-35.0,-1,1.0,0.27809999999976753
297,9,0.5,0.0625,-35.0,-1,1.0,0.21129999999971005
298,9,0.5,0.125,-35.0,-1,1.0,0.2515000000000782
299,9,0.5,0.125,-35.0,-1,1.0,0.28819999999973334
300,9,0.5,0.0,-35.0,-1,1.0,0.9383000000000266
301,9,0.5,0.25,35.0,1,1.0,0.7282999999997628
302,9,0.5,0.125,35.0,1,1.0,0.26179999999976644
303,9,0.5,0.0,35.0,1,1.0,0.26549999999997453
304,9,0.5,0.0625,-35.0,-1,1.0,0.37859999999977845
305,9,0.5,0.0625,35.0,1,1.0,0.19539999999983593
306,9,0.5,1.0,-35.0,-1,1.0,0.425499999999829
307,9,0.5,0.0625,35.0,1,1.0,0.4921999999999116
308,9,0.5,0.25,-35.0,-1,1.0,0.4057000000000244
309,9,0.5,0.25,35.0,1,1.0,0.322400000000016
310,9,0.5,1.0,35.0,1,1.0,0.189200000000028
311,9,0.5,0.0625,35.0,-1,0.0,0.48919999999975516
312,9,0.6,0.0625,-35.0,1,0.0,0.30939999999986867
313,9,0.5,1.0,-35.0,1,0.0,0.15279999999984284
314,9,0.5,0.125,-35.0,-1,1.0,0.30619999999976244
315,9,0.5,0.125,-35.0,-1,1.0,0.2929999999998927
316,9,0.5,0.125,35.0,1,1.0,0.40640000000007603
317,9,0.5,0.0625,35.0,-1,0.0,0.5130999999998949
318,9,0.5,0.25,-35.0,-1,1.0,1.1865999999999985
319,9,0.5,1.0,35.0,1,1.0,0.23669999999992797
320,9,0.5,0.25,-35.0,-1,1.0,0.2967999999998483
321,9,0.5,0.125,-35.0,-1,1.0,0.606899999999996
322,9,0.5,0.0,35.0,-1,0.0,0.4502999999997428
323,9,0.5,0.125,-35.0,-1,1.0,0.42029999999999745
324,9,0.5,0.125,-35.0,-1,1.0,0.9070999999999003
325,9,0.5,1.0,35.0,1,1.0,0.23730000000000473
326,9,0.5,1.0,35.0,1,1.0,0.9605999999998858
327,9,0.5,1.0,35.0,1,1.0,0.3007000000000062
328,9,0.5,0.125,-35.0,-1,1.0,4.197499999999991
329,9,0.5,0.125,35.0,1,1.0,0.8175999999998567
330,9,0.5,1.0,35.0,1,1.0,0.17109999999979664
331,9,0.5,1.0,-35.0,-1,1.0,0.3544999999999163
332,9,0.5,1.0,35.0,1,1.0,0.1811999999999898
333,9,0.5,0.25,35.0,1,1.0,0.6113000000000284
334,9,0.5,0.25,-35.0,-1,1.0,0.5046999999999571
335,9,0.5,0.25,35.0,1,1.0,0.2748999999998887
336,9,0.5,1.0,-35.0,-1,1.0,0.464799999999741
337,9,0.5,0.25,-35.0,-1,1.0,5.014999999999873
338,9,0.5,0.25,35.0,1,1.0,0.058499999999867214
339,9,0.5,0.25,-35.0,-1,1.0,0.35189999999988686
340,9,0.5,0.125,35.0,1,1.0,0.2154000000000451
341,9,0.5,0.0625,35.0,-1,0.0,0.7088000000001102
342,9,0.5,0.25,35.0,1,1.0,0.302199999999857
343,9,0.5,0.25,-35.0,-1,1.0,0.7789999999999964
344,9,0.5,0.25,-35.0,-1,1.0,0.6722999999997228
345,9,0.5,0.25,-35.0,-1,1.0,0.41909999999984393
346,9,0.5,0.25,-35.0,-1,1.0,0.6057999999998174
347,9,0.5,1.0,-35.0,-1,1.0,0.3091999999999189
348,9,0.5,1.0,-35.0,-1,1.0,0.2726000000000113
349,9,0.5,0.125,35.0,1,1.0,0.1993999999999687
350,9,0.5,0.125,35.0,1,1.0,4.799399999999878
351,9,0.5,0.25,35.0,-1,0.0,5.77559999999994
352,9,0.3,0.25,35.0,1,1.0,0.18319999999971515
353,9,0.5,1.0,35.0,1,1.0,0.1998999999998432
354,9,0.5,0.0625,-35.0,-1,1.0,4.4266999999999825
355,9,0.5,0.0625,-35.0,1,0.0,0.8537000000001171
356,9,0.5,0.0625,35.0,1,1.0,6.5936999999996715
357,9,0.5,1.0,35.0,1,1.0,0.21739999999977044
358,9,0.5,1.0,-35.0,-1,1.0,0.5373999999999342
359,9,0.5,0.25,-35.0,-1,1.0,0.33409999999980755
360,9,0.5,0.125,-35.0,-1,1.0,0.6608999999998559
361,9,0.5,0.125,35.0,1,1.0,1.5009000000000015
362,9,0.5,0.0625,-35.0,1,0.0,0.24109999999996035
363,9,0.5,0.0625,-35.0,1,0.0,0.19780000000014297
364,9,0.5,0.25,35.0,1,1.0,0.41459999999983665
365,9,0.5,0.0,35.0,1,1.0,5.201399999999921
366,9,0.5,0.25,-35.0,-1,1.0,0.3949999999999818
367,9,0.5,0.25,35.0,1,1.0,0.6117000000001553
368,9,0.5,0.0625,35.0,1,1.0,4.115199999999959
369,9,0.5,0.125,35.0,1,1.0,3.6686999999999443
370,9,0.5,0.125,-35.0,-1,1.0,0.7454999999997654
371,9,0.5,0.25,-35.0,-1,1.0,5.348899999999958
372,9,0.5,1.0,35.0,1,1.0,0.2158999999999196
373,9,0.5,0.25,35.0,1,1.0,4.975999999999885
374,9,0.5,0.0,-35.0,-1,1.0,6.699499999999944
375,9,0.5,1.0,35.0,1,1.0,0.24319999999988795
376,9,0.5,0.25,35.0,-1,0.0,1.4265999999997803
377,9,0.5,0.25,35.0,1,1.0,1.2566999999999098
378,9,0.5,1.0,-35.0,1,0.0,0.19339999999988322
379,9,0.5,0.25,-35.0,-1,1.0,5.120199999999841
380,9,0.5,0.0625,-35.0,-1,1.0,5.0172000000000025
381,9,0.5,0.125,35.0,1,1.0,0.27729999999996835
382,9,0.5,1.0,-35.0,-1,1.0,0.41069999999990614
383,9,0.5,1.0,35.0,1,1.0,0.25759999999991123
384,9,0.5,0.125,-35.0,-1,1.0,5.610899999999901
385,9,0.5,0.0,35.0,-1,0.0,0.38439999999991414
386,9,0.5,0.125,35.0,1,1.0,3.7978999999997995
387,9,0.5,0.25,-35.0,-1,1.0,0.3146999999999025
388,9,0.5,0.125,-35.0,-1,1.0,0.3180999999999585
389,9,0.5,0.125,-35.0,-1,1.0,0.2747999999999138
390,9,0.5,0.0,35.0,-1,0.0,0.9849999999999
391,9,0.5,0.0625,-35.0,1,0.0,3.5751000000000204
392,9,0.5,0.0625,35.0,1,1.0,0.14189999999985048
393,9,0.5,0.0625,35.0,1,1.0,4.075299999999743
394,9,0.5,0.0625,-35.0,-1,1.0,5.762099999999691
395,9,0.5,0.125,35.0,1,1.0,0.532399999999825
396,9,0.5,1.0,-35.0,-1,1.0,0.3790999999998803
397,9,0.5,1.0,35.0,1,1.0,0.3024999999997817
398,9,0.5,0.125,-35.0,-1,1.0,0.8259000000000469
399,9,0.5,1.0,35.0,1,1.0,0.23269999999979518
400,9,0.5,0.125,-35.0,-1,1.0,0.34950000000003456
401,9,0.5,0.25,-35.0,-1,1.0,0.3162999999999556
402,9,0.5,0.125,-35.0,-1,1.0,2.986199999999826
403,9,0.5,0.25,35.0,1,1.0,0.6262990000000173
404,9,0.5,0.0625,-35.0,-1,1.0,5.113099999999804
405,9,0.5,0.25,35.0,1,1.0,0.24669999999991887
406,9,0.5,1.0,35.0,1,1.0,0.26999999999975444
407,9,0.5,1.0,35.0,1,1.0,0.28009999999972024
408,9,0.5,1.0,-35.0,-1,1.0,0.25359999999977845
409,9,0.5,0.0625,-35.0,-1,1.0,0.48030000000017026
410,9,0.5,0.0,35.0,-1,0.0,0.3469999999997526
411,9,0.5,0.25,35.0,-1,0.0,3.463899999999967
412,9,0.5,0.125,-35.0,-1,1.0,0.3573999999998705
413,9,0.5,0.125,35.0,1,1.0,0.7708000000000084
414,9,0.5,0.0,-35.0,-1,1.0,3.910799999999881
415,9,0.5,0.0625,-35.0,1,0.0,0.514299999999821
416,9,0.4,0.0625,-35.0,-1,1.0,0.7245000000000346
417,9,0.5,1.0,-35.0,-1,1.0,0.5311999999998989
418,9,0.5,0.25,35.0,1,1.0,0.44129999999972824
419,9,0.5,0.0,35.0,-1,0.0,0.38479999999981374
420,9,0.5,0.25,-35.0,-1,1.0,2.7780999999997675
421,9,0.5,0.0625,-35.0,-1,1.0,0.4916000000000622
422,9,0.5,1.0,35.0,1,1.0,0.24169999999980973
423,9,0.5,0.125,35.0,1,1.0,0.5317999999999756
424,9,0.5,0.125,35.0,1,1.0,0.5185999999998785
425,9,0.5,0.0625,-35.0,-1,1.0,3.195299999999861
426,9,0.5,1.0,-35.0,-1,1.0,0.26870000000008076
427,9,0.5,0.0625,-35.0,-1,1.0,0.7655000000002019
428,9,0.5,0.0,35.0,1,1.0,0.50229999999965
429,9,0.5,0.125,-35.0,-1,1.0,2.8789999999999054
430,9,0.5,0.25,35.0,1,1.0,0.3391999999998916
431,9,0.5,0.0625,-35.0,-1,1.0,0.3024999999997817
432,9,0.5,0.25,35.0,1,1.0,2.175899999999956
433,9,0.5,0.0,35.0,-1,0.0,0.5727999999999156
434,9,0.5,0.125,-35.0,-1,1.0,0.41619999999988977
435,9,0.5,0.0625,-35.0,-1,1.0,3.00630000000001
436,9,0.5,0.0,-35.0,-1,1.0,0.7796999999998206
437,9,0.5,0.125,-35.0,1,0.0,5.1965999999999894
438,9,0.5,0.0625,-35.0,-1,1.0,0.5035000000000309
439,9,0.5,0.0625,35.0,-1,0.0,4.246900000000096
440,9,0.3,0.0625,35.0,-1,0.0,0.5038999999999305
441,9,0.5,1.0,35.0,1,1.0,3.7038999999997486
442,9,0.5,0.0,35.0,-1,0.0,6.3108999999997195
443,9,0.2,0.0,35.0,-1,0.0,0.36439999999993233
444,9,0.5,1.0,35.0,1,1.0,0.7212999999999283
445,9,0.5,1.0,-35.0,-1,1.0,0.5145999999999731
446,9,0.5,1.0,35.0,1,1.0,0.43469999999979336
447,9,0.5,1.0,-35.0,-1,1.0,7.011600000000044
448,9,0.5,0.25,35.0,-1,0.0,4.438599999999951
449,9,0.5,0.125,-35.0,-1,1.0,2.045199999999795
450,9,0.5,1.0,-35.0,-1,1.0,5.122100000000046
451,9,0.5,0.125,-35.0,-1,1.0,0.4556999999997515
452,9,0.5,0.125,-35.0,-1,1.0,0.6124999999999545
453,9,0.5,0.25,35.0,1,1.0,4.975800000000163
454,9,0.5,0.0,35.0,-1,0.0,0.4393000000000029
455,9,0.5,0.0625,35.0,1,1.0,0.49949999999989814
456,9,0.5,0.25,-35.0,-1,1.0,4.099700000000212
457,9,0.5,0.125,-35.0,-1,1.0,0.6663999999998396
458,9,0.5,0.25,-35.0,-1,1.0,0.34979999999995925
459,9,0.5,0.125,35.0,1,1.0,0.37989999999990687
460,9,0.5,0.0625,-35.0,-1,1.0,0.7066999999999553
461,9,0.5,1.0,35.0,1,1.0,0.21339999999986503
462,9,0.5,1.0,35.0,1,1.0,0.23689999999987776
463,9,0.5,0.125,35.0,1,1.0,0.33369999999990796
464,9,0.5,0.125,35.0,1,1.0,0.22049999999990177
465,9,0.5,0.0,35.0,-1,0.0,0.500400000000127
466,9,0.5,0.0625,-35.0,-1,1.0,0.4839999999999236
467,9,0.5,1.0,35.0,1,1.0,0.29729999999995016
468,9,0.5,0.0625,35.0,-1,0.0,0.8405999999999949
469,9,0.5,0.25,-35.0,-1,1.0,0.35409999999978936
470,9,0.5,0.125,-35.0,-1,1.0,0.4175000000000182
471,9,0.5,0.125,35.0,-1,0.0,0.1575999999997748
472,9,0.5,0.125,-35.0,-1,1.0,13.347700000000032
473,9,0.5,0.125,-35.0,-1,1.0,0.35149999999998727
474,9,0.5,0.25,-35.0,-1,1.0,0.35829999999987194
475,9,0.5,0.0,-35.0,-1,1.0,5.274999999999864
476,9,0.5,0.125,-35.0,-1,1.0,0.3818999999998596
477,9,0.5,1.0,-35.0,-1,1.0,0.25540000000000873
478,9,0.5,1.0,-35.0,-1,1.0,0.2319999999999709
479,9,0.5,0.0,35.0,-1,0.0,0.3454999999999018
480,9,0.5,0.25,35.0,1,1.0,0.415599999999813
481,9,0.5,0.125,-35.0,-1,1.0,0.542500999999902
482,9,0.5,0.0625,35.0,-1,0.0,0.582501000000093
483,9,0.5,0.25,35.0,1,1.0,0.3159009999999398
484,9,0.5,0.125,-35.0,-1,1.0,0.22610099999997146
485,9,0.5,1.0,-35.0,-1,1.0,2.412600999999995
486,9,0.5,0.0,35.0,1,1.0,0.91270099999997
487,9,0.5,0.0,-35.0,-1,1.0,0.40960100000006605
488,9,0.5,0.0625,-35.0,-1,1.0,2.609700999999859
489,9,0.5,0.0625,-35.0,-1,1.0,0.3166009999997641
490,9,0.5,1.0,-35.0,-1,1.0,0.29990099999963604
491,9,0.5,0.125,-35.0,-1,1.0,0.2633009999999558
492,9,0.5,1.0,-35.0,-1,1.0,0.35670099999993
493,9,0.5,0.0,-35.0,-1,1.0,0.3701009999999769
494,9,0.5,0.125,-35.0,-1,1.0,4.296800999999732
495,9,0.5,0.0,-35.0,-1,1.0,0.44040099999983795
496,9,0.5,0.125,35.0,1,1.0,0.48050099999977647
497,9,0.5,0.25,-35.0,-1,1.0,0.2806009999997059
498,9,0.5,0.0,-35.0,-1,1.0,0.21400100000005295
499,9,0.5,0.0625,-35.0,-1,1.0,4.274000999999998
500,9,0.5,0.25,-35.0,-1,1.0,0.3143010000001141
501,9,0.5,0.125,35.0,1,1.0,0.32100100000002385
502,9,0.5,0.125,35.0,1,1.0,2.7011009999998805
503,9,0.5,0.25,35.0,1,1.0,1.041201000000001
504,9,0.5,0.0,-35.0,-1,1.0,0.3181009999998423
1,10,0.5,0.125,35.0,1,1.0,0.2764999999999995
2,10,0.5,0.25,-35.0,-1,1.0,1.297000999999999
3,10,0.5,0.0,-35.0,-1,1.0,14.297001
4,10,0.5,0.0625,-35.0,-1,1.0,3.1939009999999968
5,10,0.5,0.0625,35.0,-1,0.0,11.792301000000002
6,10,0.5,0.25,35.0,1,1.0,0.7120010000000079
7,10,0.5,0.125,35.0,-1,0.0,2.9049009999999953
8,10,0.5,0.125,-35.0,1,0.0,0.6696999999999989
9,10,0.5,1.0,35.0,1,1.0,0.19559999999999889
10,10,0.5,0.25,35.0,1,1.0,0.3698009999999812
11,10,0.5,0.125,-35.0,-1,1.0,2.6969999999999885
12,10,0.5,0.125,-35.0,-1,1.0,2.6210999999999984
13,10,0.5,0.25,-35.0,-1,1.0,0.5630999999999915
14,10,0.5,1.0,-35.0,-1,1.0,0.23900000000000432
15,10,0.5,0.25,35.0,1,1.0,0.4357999999999862
16,10,0.5,0.0625,35.0,-1,0.0,4.337800999999985
17,10,0.5,0.0625,-35.0,-1,1.0,0.3647009999999824
18,10,0.5,0.0625,35.0,-1,0.0,0.8101999999999947
19,10,0.3,0.0625,-35.0,-1,1.0,2.8926000000000016
20,10,0.5,1.0,35.0,1,1.0,14.730499999999992
21,10,0.5,0.0625,35.0,-1,0.0,4.448200999999983
22,10,0.2,0.0625,35.0,-1,0.0,0.35450099999999907
23,10,0.5,1.0,35.0,1,1.0,0.6360009999999932
24,10,0.5,1.0,35.0,1,1.0,0.9453000000000031
25,10,0.5,0.125,35.0,1,1.0,7.280900000000003
26,10,0.5,0.0625,-35.0,-1,1.0,8.186499999999995
27,10,0.5,1.0,35.0,1,1.0,3.4680999999999926
28,10,0.5,0.0,35.0,1,1.0,3.6072010000000034
29,10,0.5,0.0625,35.0,-1,0.0,3.938200999999964
30,10,0.5,0.25,35.0,1,1.0,0.8998009999999965
31,10,0.5,0.25,-35.0,-1,1.0,2.5411009999999976
32,10,0.5,0.0625,35.0,-1,0.0,3.1299009999999896
33,10,0.5,0.125,35.0,1,1.0,0.9688009999999849
34,10,0.5,0.0625,-35.0,1,0.0,3.8318009999999845
35,10,0.5,0.0625,-35.0,-1,1.0,2.4607000000000028
36,10,0.5,1.0,-35.0,-1,1.0,0.7035000000000196
37,10,0.5,0.125,-35.0,-1,1.0,4.701299999999975
38,10,0.5,0.125,35.0,-1,0.0,2.7830999999999904
39,10,0.5,0.125,35.0,-1,0.0,2.4436009999999726
40,10,0.3,0.125,35.0,1,1.0,2.7338009999999997
41,10,0.5,1.0,-35.0,-1,1.0,2.83239999999995
42,10,0.5,0.25,-35.0,-1,1.0,1.6403010000000222
43,10,0.5,1.0,-35.0,-1,1.0,2.480000000000018
44,10,0.5,1.0,-35.0,-1,1.0,0.46300100000001976
45,10,0.5,0.125,35.0,-1,0.0,3.664301000000023
46,10,0.5,0.0625,35.0,1,1.0,2.401300000000049
47,10,0.5,0.0625,-35.0,-1,1.0,2.875499999999988
48,10,0.5,0.125,-35.0,-1,1.0,0.45930100000003904
49,10,0.5,0.0625,35.0,1,1.0,1.7244000000000028
50,10,0.5,0.25,-35.0,-1,1.0,2.630300000000034
51,10,0.5,1.0,-35.0,-1,1.0,0.41500100000001794
52,10,0.5,0.125,35.0,1,1.0,8.761099999999999
53,10,0.5,0.25,-35.0,-1,1.0,2.3717000000000326
54,10,0.5,1.0,-35.0,-1,1.0,0.6325010000000475
55,10,0.5,0.0,-35.0,-1,1.0,4.094001000000048
56,10,0.5,0.25,35.0,1,1.0,3.157000000000039
57,10,0.5,0.125,35.0,1,1.0,0.5110000000000241
58,10,0.5,0.125,-35.0,-1,1.0,8.918500000000051
59,10,0.5,1.0,-35.0,-1,1.0,6.413400000000024
60,10,0.5,0.125,35.0,-1,0.0,2.3285999999999945
61,10,0.5,0.125,35.0,1,1.0,5.5748009999999795
62,10,0.5,0.25,-35.0,-1,1.0,2.921700000000044
63,10,0.5,0.25,35.0,1,1.0,0.5692010000000209
64,10,0.5,1.0,-35.0,-1,1.0,9.14349999999996
65,10,0.5,1.0,35.0,1,1.0,1.106299999999976
66,10,0.5,0.0,-35.0,1,0.0,2.6797000000000253
67,10,0.5,0.0625,35.0,-1,0.0,3.0772999999999797
68,10,0.5,0.0625,-35.0,-1,1.0,2.063300999999967
69,10,0.5,0.0625,-35.0,-1,1.0,4.208200999999974
70,10,0.5,1.0,35.0,1,1.0,0.28950100000002976
71,10,0.5,0.25,35.0,1,1.0,2.9365000000000236
72,10,0.5,0.0625,35.0,1,1.0,0.30620000000004666
73,10,0.5,1.0,35.0,1,1.0,3.3489999999999895
74,10,0.5,0.0625,-35.0,1,0.0,3.1923000000000457
75,10,0.5,0.0625,-35.0,-1,1.0,0.4689999999999941
76,10,0.5,0.125,35.0,1,1.0,3.912900000000036
77,10,0.5,0.125,-35.0,-1,1.0,1.7338010000000281
78,10,0.5,0.0625,35.0,-1,0.0,3.50360100000006
79,10,0.5,0.0,-35.0,-1,1.0,2.4840010000000348
80,10,0.5,0.0625,-35.0,-1,1.0,2.810200000000009
81,10,0.5,0.0625,-35.0,-1,1.0,0.34700000000003683
82,10,0.5,0.25,-35.0,-1,1.0,0.43480100000004995
83,10,0.5,0.0625,-35.0,-1,1.0,0.8058010000000309
84,10,0.5,0.125,35.0,-1,0.0,4.585800000000006
85,10,0.5,0.0625,-35.0,-1,1.0,0.3891009999999824
86,10,0.5,0.0,35.0,-1,0.0,3.963999999999942
87,10,0.5,0.125,-35.0,-1,1.0,0.34540000000004056
88,10,0.5,0.25,35.0,1,1.0,7.701701000000071
89,10,0.5,1.0,-35.0,-1,1.0,0.5698010000000977
90,10,0.5,0.125,-35.0,-1,1.0,1.1614009999999553
91,10,0.5,0.0,35.0,1,1.0,4.290400999999974
92,10,0.5,0.25,-35.0,-1,1.0,1.1027010000000246
93,10,0.5,0.25,-35.0,-1,1.0,2.8304010000000517
94,10,0.5,0.125,35.0,1,1.0,0.5061010000000579
95,10,0.5,0.0,35.0,-1,0.0,0.520601000000056
96,10,0.3,0.0,35.0,1,1.0,0.5218999999999596
97,10,0.5,1.0,-35.0,1,0.0,4.654199999999946
98,10,0.5,0.125,35.0,1,1.0,3.241501000000085
99,10,0.5,0.25,-35.0,1,0.0,2.6469999999999345
100,10,0.5,0.0625,35.0,1,1.0,3.8611000000000786
101,10,0.5,0.125,-35.0,1,0.0,3.2413999999999987
102,10,0.5,0.0,-35.0,-1,1.0,0.6565010000000484
103,10,0.5,0.125,35.0,1,1.0,0.3261009999999942
104,10,0.5,0.25,35.0,1,1.0,3.349900000000048
105,10,0.5,1.0,35.0,1,1.0,0.21440099999995255
106,10,0.5,0.125,-35.0,-1,1.0,4.534101000000078
107,10,0.5,1.0,-35.0,-1,1.0,0.42420000000004165
108,10,0.5,0.0,35.0,-1,0.0,4.953200000000038
109,10,0.6,0.0,35.0,-1,0.0,0.7129010000001017
110,10,0.5,1.0,35.0,1,1.0,0.8399010000000544
111,10,0.5,0.125,35.0,1,1.0,0.3405000000001337
112,10,0.5,0.0625,35.0,1,1.0,2.158800999999926
113,10,0.5,0.0,-35.0,1,0.0,2.7110000000000127
114,10,0.5,0.25,35.0,1,1.0,0.19640100000003713
115,10,0.5,1.0,35.0,1,1.0,0.1789009999999962
116,10,0.5,0.125,-35.0,1,0.0,9.767101000000025
117,10,0.7,0.125,35.0,1,1.0,0.3244009999999662
118,10,0.5,1.0,-35.0,-1,1.0,0.7789010000000189
119,10,0.5,1.0,-35.0,-1,1.0,3.7176000000000613
120,10,0.5,0.25,35.0,1,1.0,0.24480000000005475
121,10,0.5,0.25,-35.0,-1,1.0,2.603800999999976
122,10,0.5,0.0625,-35.0,-1,1.0,0.8987000000000762
123,10,0.5,0.125,-35.0,-1,1.0,3.351099999999974
124,10,0.5,0.0625,-35.0,1,0.0,2.381200999999919
125,10,0.5,0.125,35.0,-1,0.0,1.9571000000000822
126,10,0.5,0.125,-35.0,-1,1.0,3.4204010000000835
127,10,0.5,0.25,35.0,1,1.0,2.0697999999999865
128,10,0.5,0.0,-35.0,-1,1.0,2.0711000000000013
129,10,0.5,0.0625,-35.0,-1,1.0,0.3140999999999394
130,10,0.5,0.0625,35.0,-1,0.0,2.1334000000000515
131,10,0.5,0.125,-35.0,-1,1.0,0.29500100000007023
132,10,0.5,1.0,-35.0,-1,1.0,0.6469010000000708
133,10,0.5,0.0,35.0,-1,0.0,6.077800000000025
134,10,0.5,0.0625,35.0,1,1.0,0.6314009999999826
135,10,0.5,1.0,-35.0,-1,1.0,1.0829009999999926
136,10,0.5,0.0,-35.0,-1,1.0,2.9739000000000715
137,10,0.5,0.0625,-35.0,1,0.0,0.4761000000000877
138,10,0.5,0.125,35.0,1,1.0,9.600000000000136
139,10,0.5,0.0625,-35.0,1,0.0,0.47400100000004386
140,10,0.4,0.0625,-35.0,-1,1.0,0.4434009999999944
141,10,0.5,1.0,35.0,1,1.0,0.31290000000012697
142,10,0.5,0.0625,-35.0,1,0.0,3.7398000000000593
143,10,0.5,0.0625,35.0,1,1.0,0.4659000000000333
144,10,0.5,0.0,35.0,-1,0.0,3.579601000000025
145,10,0.5,0.125,35.0,1,1.0,0.5363999999999578
146,10,0.5,0.25,35.0,1,1.0,2.4307000000000016
147,10,0.5,1.0,35.0,1,1.0,5.720699999999965
148,10,0.5,0.25,35.0,1,1.0,3.830000000000041
149,10,0.5,0.0625,35.0,1,1.0,0.6125000000000682
150,10,0.5,0.0,-35.0,1,0.0,2.978800999999976
151,10,0.5,0.0625,-35.0,-1,1.0,0.7437009999999873
152,10,0.5,1.0,35.0,1,1.0,0.27010100000006787
153,10,0.5,0.25,35.0,1,1.0,5.502700000000118
154,10,0.5,0.125,35.0,-1,0.0,0.5005009999999857
155,10,0.8,0.125,-35.0,-1,1.0,0.5769000000000233
156,10,0.5,1.0,-35.0,-1,1.0,0.5548009999999977
157,10,0.5,0.125,-35.0,-1,1.0,5.481100000000083
158,10,0.5,0.0625,-35.0,-1,1.0,3.183900999999878
159,10,0.5,0.0,35.0,-1,0.0,2.359100000000012
160,10,0.5,0.25,-35.0,-1,1.0,0.4474999999999909
161,10,0.5,0.0,-35.0,-1,1.0,4.195301000000086
162,10,0.5,0.0,-35.0,-1,1.0,5.166300999999976
163,10,0.5,0.0625,-35.0,1,0.0,2.6829010000000153
164,10,0.5,0.25,-35.0,-1,1.0,0.3944010000000162
165,10,0.5,0.0625,35.0,-1,0.0,3.815101000000027
166,10,0.5,0.125,-35.0,-1,1.0,0.31520100000000184
167,10,0.5,0.0,-35.0,1,0.0,3.757400999999959
168,10,0.5,0.0625,35.0,1,1.0,0.6162009999999327
169,10,0.5,0.125,35.0,1,1.0,2.596001000000115
170,10,0.5,0.0625,35.0,-1,0.0,5.68280100000004
171,10,0.5,0.0625,-35.0,-1,1.0,1.4332000000000562
172,10,0.5,1.0,-35.0,-1,1.0,2.2763009999999895
173,10,0.5,1.0,35.0,1,1.0,8.696800999999937
174,10,0.5,0.0625,-35.0,-1,1.0,4.18380100000013
175,10,0.5,0.25,35.0,1,1.0,5.640599999999949
176,10,0.5,1.0,-35.0,-1,1.0,0.37779999999997926
177,10,0.5,0.25,-35.0,-1,1.0,1.8710009999999784
178,10,0.5,0.0625,-35.0,-1,1.0,2.574500000000171
179,10,0.5,1.0,35.0,1,1.0,4.441199999999981
180,10,0.5,0.25,-35.0,-1,1.0,3.3214000000000397
181,10,0.5,0.0625,-35.0,-1,1.0,0.5818010000000413
182,10,0.5,0.0625,35.0,1,1.0,5.151401000000078
183,10,0.5,0.25,-35.0,-1,1.0,2.1953010000001996
184,10,0.5,0.25,-35.0,-1,1.0,1.622000000000071
185,10,0.5,0.25,35.0,1,1.0,0.6656010000001515
186,10,0.5,0.25,-35.0,1,0.0,5.499199999999973
187,10,0.4,0.25,-35.0,-1,1.0,0.7059010000000399
188,10,0.5,1.0,35.0,1,1.0,0.47630099999992126
189,10,0.5,0.125,-35.0,-1,1.0,2.499499999999898
190,10,0.5,0.125,-35.0,-1,1.0,2.296000000000049
191,10,0.5,1.0,35.0,1,1.0,3.816301000000067
192,10,0.5,0.0,-35.0,1,0.0,3.266701000000012
193,10,0.5,0.25,35.0,1,1.0,0.376700000000028
194,10,0.5,0.0625,35.0,1,1.0,2.6669010000000526
195,10,0.5,0.125,35.0,1,1.0,0.26700099999993654
196,10,0.5,0.0,-35.0,1,0.0,0.8469010000001163
197,10,0.5,0.25,-35.0,-1,1.0,0.5138010000000577
198,10,0.5,0.25,35.0,1,1.0,1.373501000000033
199,10,0.5,0.25,-35.0,-1,1.0,5.644100999999864
200,10,0.5,0.125,-35.0,-1,1.0,2.2043009999999867
201,10,0.5,1.0,35.0,1,1.0,0.5344010000001163
202,10,0.5,0.0,-35.0,-1,1.0,2.7573009999998703
203,10,0.5,0.0625,-35.0,1,0.0,3.287900000000036
204,10,0.5,0.25,35.0,1,1.0,0.6544999999998709
205,10,0.5,1.0,-35.0,-1,1.0,4.0516999999999825
206,10,0.5,0.0,-35.0,-1,1.0,0.7247999999999593
