trial_num,session_num,stim_probability_left,contrast,position,response_choice,trial_correct,reaction_time
1,22,0.5,0.0625,35.0,-1,0.0,15.3455
2,22,0.5,0.0,-35.0,-1,1.0,8.116700999999999
3,22,0.5,1.0,-35.0,-1,1.0,0.4157999999999973
4,22,0.5,1.0,-35.0,-1,1.0,0.520501000000003
5,22,0.5,0.0625,-35.0,-1,1.0,0.5917999999999992
6,22,0.5,0.25,-35.0,-1,1.0,0.3480999999999952
7,22,0.5,1.0,35.0,1,1.0,0.41990099999999586
8,22,0.5,0.25,-35.0,-1,1.0,0.5337000000000032
9,22,0.5,0.0625,35.0,-1,0.0,0.3437010000000029
10,22,0.2,0.0625,-35.0,1,0.0,4.343899999999991
11,22,0.5,1.0,35.0,1,1.0,0.5139999999999958
12,22,0.5,1.0,-35.0,-1,1.0,0.3813999999999993
13,22,0.5,0.0625,-35.0,-1,1.0,0.361699999999999
14,22,0.5,0.125,-35.0,1,0.0,0.7302010000000081
15,22,0.5,0.0625,-35.0,1,0.0,4.810699999999997
16,22,0.5,0.0625,-35.0,-1,1.0,0.7536999999999949
17,22,0.5,1.0,35.0,1,1.0,0.464500000000001
18,22,0.5,1.0,-35.0,-1,1.0,0.37819999999999254
19,22,0.5,1.0,35.0,1,1.0,0.8815000000000026
20,22,0.5,1.0,35.0,1,1.0,0.6252000000000066
21,22,0.5,0.0625,-35.0,-1,1.0,2.6621999999999986
22,22,0.5,0.0625,-35.0,1,0.0,0.39940099999999745
23,22,0.5,0.0625,-35.0,1,0.0,0.26390100000000416
24,22,0.5,0.125,35.0,1,1.0,0.6337000000000046
25,22,0.5,0.25,35.0,-1,0.0,1.3340000000000032
26,22,0.6,0.25,35.0,1,1.0,3.1599999999999966
27,22,0.5,1.0,35.0,1,1.0,0.4943009999999788
28,22,0.5,0.125,35.0,1,1.0,0.41980099999997833
29,22,0.5,1.0,35.0,1,1.0,0.45500100000001
30,22,0.5,0.25,-35.0,1,0.0,0.26019999999999754
31,22,0.5,0.0625,-35.0,1,0.0,0.5805000000000007
32,22,0.5,0.25,35.0,1,1.0,0.37659999999996785
33,22,0.5,0.0625,35.0,1,1.0,0.8829000000000065
34,22,0.5,1.0,35.0,1,1.0,0.16540000000000532
35,22,0.5,1.0,35.0,-1,0.0,0.3941999999999837
36,22,0.5,0.125,35.0,1,1.0,0.7021999999999764
37,22,0.5,0.25,-35.0,-1,1.0,0.38349999999999795
38,22,0.5,0.0625,35.0,1,1.0,0.36060000000000514
39,22,0.5,1.0,35.0,1,1.0,0.5561999999999614
40,22,0.5,0.25,-35.0,-1,1.0,0.8310009999999863
41,22,0.5,0.125,35.0,-1,0.0,0.5634009999999705
42,22,0.5,0.0625,35.0,1,1.0,1.0340999999999951
43,22,0.5,0.0625,-35.0,-1,1.0,0.5795999999999992
44,22,0.5,0.125,35.0,1,1.0,0.42439999999999145
45,22,0.5,0.125,35.0,1,1.0,0.7462999999999909
46,22,0.5,0.25,-35.0,-1,1.0,0.3318999999999903
47,22,0.5,1.0,-35.0,-1,1.0,0.27970099999998865
48,22,0.5,0.25,35.0,1,1.0,0.48069999999995616
49,22,0.5,0.25,-35.0,-1,1.0,0.3044999999999618
50,22,0.5,0.125,-35.0,-1,1.0,0.38579999999998904
51,22,0.5,0.25,35.0,1,1.0,0.4561999999999955
52,22,0.5,0.25,35.0,1,1.0,4.317000000000007
53,22,0.5,0.125,-35.0,-1,1.0,0.3657000000000039
54,22,0.5,0.0625,35.0,1,1.0,0.6295009999999763
55,22,0.5,0.0,-35.0,1,0.0,2.13209999999998
56,22,0.5,0.25,35.0,1,1.0,1.0047999999999888
57,22,0.5,0.0625,-35.0,-1,1.0,0.47370099999994864
58,22,0.5,0.125,35.0,-1,0.0,0.39819999999997435
59,22,0.5,0.25,35.0,-1,0.0,3.7445000000000164
60,22,0.5,0.0625,35.0,-1,0.0,0.3684000000000083
61,22,0.5,0.25,-35.0,-1,1.0,0.38950099999999566
62,22,0.5,0.125,-35.0,1,0.0,0.34260000000000446
63,22,0.5,0.25,-35.0,-1,1.0,0.3206000000000131
64,22,0.5,0.125,35.0,1,1.0,0.5622999999999934
65,22,0.5,0.0,-35.0,1,0.0,1.339399999999955
66,22,0.4,0.0,-35.0,-1,1.0,3.462099999999964
67,22,0.5,1.0,-35.0,-1,1.0,0.32630100000000084
68,22,0.5,0.25,-35.0,-1,1.0,0.5043009999999981
69,22,0.5,1.0,35.0,-1,0.0,0.807200000000023
70,22,0.5,0.0625,-35.0,-1,1.0,0.5489010000000007
71,22,0.5,0.0,35.0,1,1.0,0.1805999999999699
72,22,0.5,1.0,-35.0,-1,1.0,0.45999999999997954
73,22,0.5,0.25,35.0,1,1.0,3.4735000000000014
74,22,0.5,0.0625,-35.0,-1,1.0,3.009900000000016
75,22,0.5,1.0,35.0,1,1.0,0.3317000000000121
76,22,0.5,0.0,35.0,1,1.0,0.3664999999999736
77,22,0.5,0.0,-35.0,-1,1.0,0.7274999999999636
78,22,0.5,1.0,35.0,-1,0.0,0.2969999999999686
79,22,0.5,0.25,-35.0,-1,1.0,0.3100000000000023
80,22,0.5,0.25,-35.0,1,0.0,0.3906000000000063
81,22,0.5,0.25,35.0,1,1.0,2.6876000000000317
82,22,0.5,1.0,35.0,1,1.0,4.272000999999989
83,22,0.5,0.125,-35.0,-1,1.0,0.5593999999999824
84,22,0.5,0.0,-35.0,1,0.0,1.3757009999999923
85,22,0.5,0.25,35.0,-1,0.0,0.507000000000005
86,22,0.5,0.0625,35.0,-1,0.0,2.345899999999972
87,22,0.5,0.0625,35.0,1,1.0,0.3591999999999871
88,22,0.5,0.0,-35.0,1,0.0,0.5371000000000095
89,22,0.5,0.0625,35.0,-1,0.0,0.8441009999999665
90,22,0.5,0.0,35.0,1,1.0,0.48910000000000764
91,22,0.5,0.25,-35.0,-1,1.0,0.2732000000000312
92,22,0.5,0.0625,-35.0,-1,1.0,0.4015999999999167
93,22,0.5,0.125,-35.0,-1,1.0,0.40800000000001546
94,22,0.5,1.0,-35.0,-1,1.0,0.29179999999996653
95,22,0.5,0.125,35.0,1,1.0,0.5808999999999855
96,22,0.5,0.25,-35.0,1,0.0,0.6883000000000266
97,22,0.5,0.25,-35.0,-1,1.0,0.7740999999999758
98,22,0.5,0.0625,35.0,1,1.0,0.2923999999999296
99,22,0.5,0.125,35.0,1,1.0,0.27789999999998827
100,22,0.5,0.0625,35.0,-1,0.0,0.6778999999999655
101,22,0.5,0.125,-35.0,-1,1.0,0.5537009999999896
102,22,0.5,0.125,-35.0,-1,1.0,0.651600999999971
103,22,0.5,0.125,-35.0,1,0.0,1.4032999999999447
104,22,0.5,0.125,-35.0,-1,1.0,0.3394010000000094
105,22,0.5,1.0,-35.0,-1,1.0,0.3576999999999657
106,22,0.5,0.125,-35.0,-1,1.0,0.2747009999999932
107,22,0.5,0.0625,-35.0,-1,1.0,0.23040100000002894
108,22,0.5,0.0625,35.0,-1,0.0,0.38370099999997365
109,22,0.2,0.0625,35.0,1,1.0,0.36920000000003483
110,22,0.5,1.0,-35.0,-1,1.0,0.2921999999999798
111,22,0.5,0.125,35.0,1,1.0,0.30419999999998026
112,22,0.5,1.0,-35.0,-1,1.0,0.22739999999998872
113,22,0.5,0.0625,35.0,-1,0.0,0.3006000000000313
114,22,0.5,0.0625,-35.0,-1,1.0,0.3843010000000504
115,22,0.5,0.25,35.0,1,1.0,0.33680100000015045
116,22,0.5,0.0625,-35.0,-1,1.0,0.6516999999998916
117,22,0.5,0.0625,-35.0,1,0.0,4.526400000000081
118,22,0.5,0.125,35.0,1,1.0,0.3245000000000573
119,22,0.5,0.125,35.0,1,1.0,0.5036000000000058
120,22,0.5,0.125,35.0,1,1.0,0.22730000000001382
121,22,0.5,0.25,35.0,-1,0.0,1.3303999999999405
122,22,0.5,0.25,35.0,1,1.0,2.7805000000000746
123,22,0.5,1.0,-35.0,-1,1.0,0.28340000000002874
124,22,0.5,0.0625,-35.0,1,0.0,0.5979000000000951
125,22,0.5,0.125,-35.0,-1,1.0,0.6555000000000746
126,22,0.5,1.0,35.0,1,1.0,1.0457000000000107
127,22,0.5,0.0625,35.0,1,1.0,2.1323000000001002
128,22,0.5,1.0,35.0,1,1.0,0.4315000000000282
129,22,0.5,0.125,35.0,1,1.0,0.5619000000001506
130,22,0.5,0.25,35.0,1,1.0,0.39220000000000255
131,22,0.5,1.0,35.0,1,1.0,0.34000000000003183
132,22,0.5,0.25,35.0,1,1.0,0.39049999999997453
133,22,0.5,0.0,35.0,1,1.0,2.678100000000086
134,22,0.5,1.0,-35.0,-1,1.0,0.2939000000001215
135,22,0.5,0.25,35.0,1,1.0,0.20209999999997308
136,22,0.5,0.0,-35.0,1,0.0,0.286200000000008
137,22,0.5,0.25,-35.0,-1,1.0,0.3409000000000333
138,22,0.5,1.0,35.0,-1,0.0,0.30949999999995725
139,22,0.7,1.0,35.0,1,1.0,0.4720000000000937
140,22,0.5,1.0,-35.0,-1,1.0,0.3062999999999647
141,22,0.5,0.0625,35.0,1,1.0,0.3643010000000686
142,22,0.5,0.25,-35.0,-1,1.0,0.5359020000000783
143,22,0.5,0.25,35.0,1,1.0,0.31030199999997876
144,22,0.5,0.0625,35.0,1,1.0,0.34520099999997456
145,22,0.5,0.0,-35.0,1,0.0,1.554501000000073
146,22,0.5,0.25,35.0,-1,0.0,0.4323020000000497
147,22,0.5,0.125,-35.0,1,0.0,0.37270200000011755
148,22,0.5,0.0625,-35.0,1,0.0,0.26230099999997947
149,22,0.5,0.0625,35.0,1,1.0,0.31480100000010225
150,22,0.5,0.25,-35.0,-1,1.0,0.31440100000008897
151,22,0.5,0.25,35.0,1,1.0,0.47590100000013535
152,22,0.5,0.0625,-35.0,-1,1.0,0.3176009999999678
153,22,0.5,0.125,35.0,-1,0.0,0.22880100000008952
154,22,0.6,0.125,-35.0,-1,1.0,0.22220100000004095
155,22,0.5,1.0,-35.0,-1,1.0,0.281601000000137
156,22,0.5,0.0625,35.0,-1,0.0,0.3504010000000335
157,22,0.5,0.25,35.0,1,1.0,0.3427010000000337
158,22,0.5,1.0,-35.0,-1,1.0,0.22830099999998765
159,22,0.5,0.0625,35.0,-1,0.0,0.2892010000000482
160,22,0.5,0.125,-35.0,-1,1.0,0.30910100000005514
161,22,0.5,0.25,-35.0,-1,1.0,0.3907010000000355
162,22,0.5,1.0,35.0,1,1.0,0.36700100000007296
163,22,0.5,0.25,-35.0,1,0.0,0.13360099999999875
164,22,0.3,0.25,-35.0,-1,1.0,0.35290100000008806
165,22,0.5,1.0,35.0,1,1.0,0.38770100000010643
166,22,0.5,0.0625,-35.0,-1,1.0,0.3737020000000939
167,22,0.5,0.125,-35.0,1,0.0,1.0654010000000653
168,22,0.5,0.25,-35.0,-1,1.0,0.36710200000004534
169,22,0.5,1.0,-35.0,1,0.0,0.17260099999998602
170,22,0.5,0.125,-35.0,1,0.0,0.5277020000000903
171,22,0.5,0.25,-35.0,1,0.0,0.39110100000004877
172,22,0.5,0.0,-35.0,1,0.0,3.1763010000000804
173,22,0.7,0.0,-35.0,1,0.0,0.3723009999999931
174,22,0.5,1.0,-35.0,-1,1.0,0.288400999999908
175,22,0.5,0.0625,-35.0,-1,1.0,0.4020010000001548
176,22,0.5,0.25,-35.0,-1,1.0,0.24570100000005368
177,22,0.5,1.0,35.0,1,1.0,2.6070009999999684
178,22,0.5,0.0625,-35.0,-1,1.0,0.5456020000000308
179,22,0.5,0.25,-35.0,-1,1.0,3.8926020000000108
180,22,0.5,1.0,35.0,1,1.0,0.5410010000000511
181,22,0.5,0.25,-35.0,-1,1.0,0.3035010000000966
182,22,0.5,0.0625,35.0,1,1.0,0.3099010000000817
183,22,0.5,0.0625,35.0,1,1.0,0.7903010000001132
184,22,0.5,0.0625,35.0,1,1.0,0.17110100000002149
185,22,0.5,1.0,-35.0,-1,1.0,0.564202000000023
186,22,0.5,0.25,-35.0,-1,1.0,0.35770100000002003
187,22,0.5,0.25,-35.0,-1,1.0,0.679501000000073
188,22,0.5,1.0,-35.0,-1,1.0,0.3830010000000357
189,22,0.5,0.25,35.0,1,1.0,0.5029010000000653
190,22,0.5,0.0625,-35.0,-1,1.0,0.4393010000001141
191,22,0.5,0.0625,-35.0,1,0.0,0.3182010000000446
192,22,0.5,0.0,-35.0,-1,1.0,0.32260100000007697
193,22,0.5,0.0,-35.0,1,0.0,0.32120100000008733
194,22,0.5,0.25,-35.0,-1,1.0,0.285301000000004
195,22,0.5,1.0,35.0,1,1.0,0.5528020000001561
196,22,0.5,0.0,-35.0,1,0.0,0.4573010000000295
197,22,0.5,0.0625,35.0,1,1.0,0.6452010000000428
198,22,0.5,1.0,35.0,1,1.0,0.44370100000003276
199,22,0.5,0.0,-35.0,-1,1.0,1.197302000000036
200,22,0.5,0.0,-35.0,1,0.0,0.2858019999999897
201,22,0.5,0.125,-35.0,-1,1.0,0.4731009999999287
202,22,0.5,0.25,-35.0,-1,1.0,0.6087009999999964
203,22,0.5,0.25,-35.0,-1,1.0,0.38120100000003276
204,22,0.5,1.0,-35.0,-1,1.0,0.2560009999999693
205,22,0.5,1.0,-35.0,-1,1.0,0.14910100000008697
206,22,0.5,0.125,-35.0,-1,1.0,0.27040199999999004
207,22,0.5,0.125,35.0,-1,0.0,0.15080100000011498
208,22,0.5,0.125,35.0,1,1.0,0.499800999999934
209,22,0.5,0.0625,35.0,1,1.0,0.5956009999999878
210,22,0.5,1.0,35.0,1,1.0,0.31120100000009643
211,22,0.5,1.0,35.0,-1,0.0,2.430300999999986
212,22,0.5,0.25,35.0,1,1.0,1.0197010000000546
213,22,0.5,0.0625,-35.0,-1,1.0,0.352301000000125
214,22,0.5,0.0625,-35.0,1,0.0,0.4888010000000804
215,22,0.5,0.0625,35.0,1,1.0,0.5183020000000624
216,22,0.5,1.0,-35.0,-1,1.0,0.34530100000006314
217,22,0.5,0.25,35.0,1,1.0,0.2861010000000306
218,22,0.5,0.125,35.0,1,1.0,0.7394010000000435
219,22,0.5,1.0,-35.0,-1,1.0,0.3078010000000404
220,22,0.5,0.25,35.0,1,1.0,0.25410100000010516
221,22,0.5,1.0,-35.0,-1,1.0,0.31140099999993254
222,22,0.5,1.0,35.0,1,1.0,0.2591009999999869
223,22,0.5,0.125,35.0,1,1.0,0.49860100000000784
224,22,0.5,0.0625,-35.0,1,0.0,0.31530099999997674
225,22,0.7,0.0625,-35.0,-1,1.0,0.38130100000000766
226,22,0.5,1.0,-35.0,-1,1.0,0.28040199999998094
227,22,0.5,1.0,-35.0,-1,1.0,0.25880099999994854
228,22,0.5,0.25,35.0,-1,0.0,0.4530010000000857
229,22,0.5,0.0,35.0,-1,0.0,3.7316020000000663
230,22,0.5,0.0,-35.0,1,0.0,0.32280100000014045
231,22,0.5,0.0,-35.0,1,0.0,0.3738010000000713
232,22,0.5,0.25,-35.0,-1,1.0,0.2590010000001257
233,22,0.5,0.25,35.0,-1,0.0,0.3841020000000981
234,22,0.5,0.0,35.0,-1,0.0,3.62170100000003
235,22,0.5,0.0625,35.0,-1,0.0,0.44430099999999584
236,22,0.5,0.125,35.0,1,1.0,0.33900200000005043
237,22,0.5,0.0,35.0,1,1.0,0.38770100000010643
238,22,0.5,0.125,-35.0,1,0.0,0.5722010000001774
239,22,0.5,0.0625,-35.0,1,0.0,0.8612009999999373
240,22,0.6,0.0625,35.0,1,1.0,0.7657010000000355
241,22,0.5,1.0,35.0,1,1.0,0.3914009999998598
242,22,0.5,0.0625,35.0,1,1.0,0.325802000000067
243,22,0.5,1.0,35.0,1,1.0,0.09470099999998638
244,22,0.5,0.125,-35.0,-1,1.0,0.34820200000012846
245,22,0.5,1.0,-35.0,-1,1.0,0.2897009999999227
246,22,0.5,0.25,35.0,-1,0.0,4.568300999999792
247,22,0.7,0.25,-35.0,-1,1.0,0.34280100000000857
248,22,0.5,1.0,-35.0,-1,1.0,0.33520099999986996
249,22,0.5,0.0,35.0,1,1.0,0.32310100000017883
250,22,0.5,0.125,35.0,1,1.0,0.2621009999998023
251,22,0.5,0.25,35.0,1,1.0,0.35660100000018247
252,22,0.5,0.0625,-35.0,-1,1.0,0.3122009999999591
253,22,0.5,0.125,-35.0,1,0.0,0.37670200000002296
254,22,0.5,0.0625,-35.0,-1,1.0,0.4924020000003111
255,22,0.5,0.125,-35.0,1,0.0,3.660201000000143
256,22,0.5,0.0625,-35.0,-1,1.0,0.32260100000007697
257,22,0.5,1.0,-35.0,-1,1.0,0.19700100000022758
258,22,0.5,1.0,35.0,-1,0.0,0.14600100000006933
259,22,0.5,0.0,35.0,-1,0.0,2.7739010000000235
260,22,0.5,0.25,35.0,1,1.0,8.069601000000148
261,22,0.5,0.0,-35.0,1,0.0,0.37460100000021157
262,22,0.4,0.0,35.0,-1,0.0,3.3068010000001777
263,22,0.5,1.0,-35.0,-1,1.0,6.148102000000108
264,22,0.5,0.25,-35.0,-1,1.0,4.283700999999837
265,22,0.5,1.0,-35.0,-1,1.0,0.6682009999999536
266,22,0.5,0.0625,35.0,-1,0.0,4.280601000000161
267,22,0.2,0.0625,35.0,1,1.0,17.808502000000317
268,22,0.5,1.0,35.0,1,1.0,5.587801000000127
269,22,0.5,0.125,35.0,1,1.0,0.6125010000000657
270,22,0.5,0.25,35.0,1,1.0,4.118001000000049
271,22,0.5,0.125,35.0,1,1.0,0.3964009999999689
272,22,0.5,0.25,-35.0,1,0.0,0.6416019999999207
273,22,0.6,0.25,-35.0,-1,1.0,0.39320199999997385
274,22,0.5,1.0,35.0,1,1.0,0.26840199999992365
275,22,0.5,1.0,-35.0,-1,1.0,0.2596010000002025
276,22,0.5,1.0,35.0,1,1.0,0.31860100000017155
277,22,0.5,1.0,35.0,1,1.0,0.29290099999980157
278,22,0.5,0.125,-35.0,-1,1.0,0.458800999999994
279,22,0.5,0.25,-35.0,-1,1.0,0.5998010000000704
280,22,0.5,0.0625,-35.0,-1,1.0,1.0356010000002698
281,22,0.5,1.0,35.0,1,1.0,0.25680099999999584
282,22,0.5,0.125,35.0,1,1.0,0.25220100000001366
283,22,0.5,0.0625,-35.0,1,0.0,0.09330100000011043
284,22,0.5,0.125,-35.0,-1,1.0,0.4024010000000544
285,22,0.5,0.25,-35.0,1,0.0,0.24360200000000987
286,22,0.5,0.125,35.0,1,1.0,0.40590099999985796
287,22,0.5,0.0625,35.0,1,1.0,2.0236009999998714
288,22,0.5,0.0625,35.0,1,1.0,0.24600099999997838
289,22,0.5,0.25,35.0,1,1.0,0.30710099999987506
290,22,0.5,1.0,-35.0,-1,1.0,0.299502000000075
291,22,0.5,0.0625,35.0,-1,0.0,0.15730200000007244
292,22,0.5,0.0625,35.0,1,1.0,0.3830020000002605
293,22,0.5,0.25,35.0,1,1.0,0.3073010000000522
294,22,0.5,0.0,35.0,1,1.0,0.10970099999985905
295,22,0.5,1.0,-35.0,-1,1.0,0.10470100000020466
296,22,0.5,0.0,35.0,1,1.0,2.793202000000065
297,22,0.5,0.0625,35.0,1,1.0,0.4211009999999078
298,22,0.5,0.0625,35.0,1,1.0,4.530101000000059
299,22,0.5,0.25,-35.0,1,0.0,1.0951010000001133
300,22,0.7,0.25,35.0,1,1.0,0.3204009999999471
301,22,0.5,1.0,-35.0,-1,1.0,0.6747020000002522
302,22,0.5,0.125,35.0,1,1.0,3.4538010000001123
303,22,0.5,0.0,35.0,1,1.0,1.092202000000043
304,22,0.5,0.125,-35.0,-1,1.0,0.40740100000016355
305,22,0.5,0.0625,-35.0,1,0.0,0.7619010000000799
306,22,0.5,0.125,-35.0,-1,1.0,0.31420200000002296
307,22,0.5,0.0,-35.0,-1,1.0,11.392200999999886
308,22,0.5,0.25,-35.0,-1,1.0,0.4412010000000919
309,22,0.5,0.0625,35.0,1,1.0,0.679100999999946
310,22,0.5,0.0,-35.0,1,0.0,0.7847010000002683
311,22,0.5,0.125,35.0,1,1.0,0.3427010000000337
312,22,0.5,0.125,35.0,1,1.0,0.25820100000009916
313,22,0.5,0.125,35.0,1,1.0,0.2897020000000339
314,22,0.5,1.0,-35.0,-1,1.0,0.39500100000009297
315,22,0.5,1.0,-35.0,-1,1.0,0.47630099999992126
316,22,0.5,0.125,35.0,1,1.0,0.5151009999999587
317,22,0.5,0.0625,-35.0,-1,1.0,0.2896010000001752
318,22,0.5,0.125,-35.0,-1,1.0,0.2719010000000708
319,22,0.5,0.125,-35.0,-1,1.0,0.3000010000000657
320,22,0.5,0.125,-35.0,-1,1.0,0.6220010000001821
321,22,0.5,1.0,-35.0,-1,1.0,0.23640099999988706
322,22,0.5,1.0,-35.0,-1,1.0,0.272202000000334
323,22,0.5,1.0,35.0,1,1.0,0.27690099999995255
324,22,0.5,0.0,-35.0,-1,1.0,0.309001999999964
325,22,0.5,0.0,35.0,-1,0.0,0.5468009999999595
326,22,0.5,0.125,-35.0,-1,1.0,0.08920100000023012
327,22,0.5,0.25,-35.0,-1,1.0,0.25690099999997074
328,22,0.5,0.25,-35.0,-1,1.0,0.30940099999997983
329,22,0.5,0.125,35.0,-1,0.0,0.23410100000000966
330,22,0.1,0.125,35.0,1,1.0,0.3561010000000806
331,22,0.5,1.0,35.0,1,1.0,0.3708010000000286
332,22,0.5,0.125,-35.0,-1,1.0,0.2496009999999842
333,22,0.5,0.25,-35.0,-1,1.0,0.24130200000013247
334,22,0.5,0.25,35.0,1,1.0,0.3097020000000157
335,22,0.5,1.0,-35.0,-1,1.0,0.12410099999988233
336,22,0.5,0.0625,-35.0,-1,1.0,0.27990200000022014
337,22,0.5,0.25,35.0,1,1.0,0.33110099999998965
338,22,0.5,1.0,-35.0,-1,1.0,0.29660100000000966
339,22,0.5,1.0,35.0,1,1.0,0.3650020000002314
340,22,0.5,0.0625,35.0,-1,0.0,0.2836010000000897
341,22,0.5,0.0625,-35.0,-1,1.0,0.40130100000010316
342,22,0.5,1.0,-35.0,-1,1.0,0.36360100000001694
343,22,0.5,0.125,35.0,1,1.0,0.3814009999998689
344,22,0.5,1.0,-35.0,-1,1.0,0.2871010000001206
345,22,0.5,0.0625,-35.0,-1,1.0,0.271701000000121
346,22,0.5,0.25,35.0,1,1.0,0.31730100000004313
347,22,0.5,0.25,35.0,1,1.0,0.26510099999995873
348,22,0.5,0.25,35.0,1,1.0,0.2873010000000704
349,22,0.5,1.0,35.0,1,1.0,0.2853010000001177
350,22,0.5,1.0,-35.0,-1,1.0,0.2642009999999573
351,22,0.5,0.0,-35.0,1,0.0,0.40200099999992744
352,22,0.5,0.125,35.0,1,1.0,0.32100100000002385
353,22,0.5,1.0,-35.0,-1,1.0,0.30890199999998913
354,22,0.5,1.0,-35.0,-1,1.0,0.2578009999999722
355,22,0.5,0.25,-35.0,-1,1.0,0.27220100000022285
356,22,0.5,0.125,-35.0,-1,1.0,0.4880009999999402
357,22,0.5,0.0625,-35.0,-1,1.0,0.5032010000002174
358,22,0.5,1.0,35.0,1,1.0,0.23800099999994018
359,22,0.5,0.0625,-35.0,-1,1.0,0.3558020000000397
360,22,0.5,0.0625,35.0,1,1.0,0.3315010000001166
361,22,0.5,1.0,35.0,1,1.0,0.27610100000015336
362,22,0.5,0.0625,-35.0,1,0.0,0.46840100000008533
363,22,0.5,0.125,35.0,1,1.0,8.036401000000069
364,22,0.5,0.125,35.0,1,1.0,0.24870099999998274
365,22,0.5,0.0,35.0,1,1.0,3.186301000000185
366,22,0.5,0.25,35.0,1,1.0,0.8321010000001934
367,22,0.5,0.0625,35.0,1,1.0,0.4369010000000344
368,22,0.5,0.25,-35.0,1,0.0,0.4189010000000053
369,22,0.5,0.0,35.0,1,1.0,1.9268020000001798
370,22,0.5,0.25,-35.0,-1,1.0,0.30240200000002915
371,22,0.5,1.0,35.0,1,1.0,2.1640010000000984
372,22,0.5,1.0,35.0,-1,0.0,1.446002000000135
373,22,0.5,0.125,35.0,1,1.0,0.2838010000000395
374,22,0.5,1.0,-35.0,1,0.0,0.4729010000000926
375,22,0.5,0.125,35.0,1,1.0,32.28420100000017
376,22,0.5,0.0,-35.0,1,0.0,1.5603009999999813
377,22,0.5,0.25,35.0,1,1.0,2.235202000000072
378,22,0.5,0.0625,-35.0,1,0.0,0.12730100000021594
379,22,0.8,0.0625,-35.0,-1,1.0,0.3785020000000259
380,22,0.5,1.0,-35.0,-1,1.0,0.2608010000001286
381,22,0.5,1.0,-35.0,-1,1.0,0.25550200000020595
382,22,0.5,0.25,-35.0,-1,1.0,0.2875010000000202
383,22,0.5,0.25,35.0,-1,0.0,0.43190100000015264
384,22,0.5,0.125,-35.0,-1,1.0,0.39120099999991
385,22,0.5,0.125,35.0,1,1.0,0.6454009999999926
386,22,0.5,0.125,35.0,1,1.0,0.3811009999999442
387,22,0.5,0.125,35.0,1,1.0,0.20930100000009588
388,22,0.5,0.125,35.0,1,1.0,0.10460100000000239
389,22,0.5,0.0625,-35.0,1,0.0,0.702701000000161
390,22,0.5,0.0,35.0,1,1.0,5.888001000000031
391,22,0.5,0.0,-35.0,1,0.0,0.3160010000001421
392,22,0.7,0.0,-35.0,1,0.0,0.46160199999985707
393,22,0.5,1.0,-35.0,-1,1.0,0.2930010000002312
394,22,0.5,0.125,35.0,1,1.0,1.9085010000001148
395,22,0.5,0.25,-35.0,-1,1.0,0.26310099999977865
396,22,0.5,1.0,-35.0,-1,1.0,0.27200100000027305
397,22,0.5,0.125,-35.0,-1,1.0,0.28650100000004386
398,22,0.5,1.0,-35.0,-1,1.0,0.25210199999992255
399,22,0.5,1.0,35.0,1,1.0,0.3201010000000224
400,22,0.5,0.0,-35.0,1,0.0,0.7989010000001144
401,22,0.5,0.25,35.0,1,1.0,0.226701999999932
402,22,0.5,0.125,-35.0,-1,1.0,0.3758010000001377
403,22,0.5,0.0,-35.0,1,0.0,0.15430100000003222
404,22,0.5,0.25,35.0,1,1.0,6.245901000000231
405,22,0.5,0.0,-35.0,1,0.0,0.3740020000000186
406,22,0.6,0.0,-35.0,-1,1.0,1.462802000000238
407,22,0.5,1.0,-35.0,-1,1.0,0.26070099999992635
408,22,0.5,1.0,35.0,1,1.0,0.34970099999986815
409,22,0.5,0.0625,35.0,-1,0.0,8.350801000000047
410,22,0.5,0.25,35.0,-1,0.0,0.8767010000001392
411,22,0.5,0.0625,35.0,-1,0.0,0.98170099999993
412,22,0.4,0.0625,35.0,-1,0.0,20.847200999999814
413,22,0.5,1.0,35.0,1,1.0,3.6857010000001083
414,22,0.5,0.0625,35.0,1,1.0,2.39770099999987
415,22,0.5,1.0,35.0,1,1.0,0.36870199999998476
416,22,0.5,0.0625,35.0,1,1.0,0.3844010000000253
417,22,0.5,0.25,-35.0,-1,1.0,0.4427020000000539
418,22,0.5,0.125,-35.0,-1,1.0,0.6213020000000142
419,22,0.5,1.0,-35.0,-1,1.0,0.3023009999999431
420,22,0.5,1.0,35.0,1,1.0,0.3346010000000206
421,22,0.5,0.0625,35.0,1,1.0,0.2497009999999591
422,22,0.5,0.0625,-35.0,1,0.0,0.4615009999999984
423,22,0.7,0.0625,35.0,1,1.0,7.096201999999948
424,22,0.5,1.0,35.0,1,1.0,0.6184019999998327
425,22,0.5,0.125,-35.0,1,0.0,0.7030009999998583
426,22,0.5,0.25,35.0,1,1.0,0.31210100000021157
427,22,0.5,0.0625,35.0,1,1.0,1.4598009999999704
428,22,0.5,0.0,35.0,1,1.0,1.995502000000215
429,22,0.5,0.25,35.0,1,1.0,0.37350100000003295
430,22,0.5,0.0625,-35.0,1,0.0,0.37570099999993545
431,22,0.5,0.125,35.0,-1,0.0,0.23060099999997874
432,22,0.9,0.125,35.0,1,1.0,5.179100999999946
433,22,0.5,1.0,-35.0,-1,1.0,0.2638010000000577
434,22,0.5,0.0625,35.0,1,1.0,0.32270100000005186
435,22,0.5,0.125,35.0,-1,0.0,1.5040010000000166
436,22,0.5,0.0,35.0,1,1.0,2.7263010000001486
437,22,0.5,0.0,-35.0,1,0.0,0.5042020000000775
438,22,0.7,0.0,-35.0,-1,1.0,12.623101000000133
439,22,0.5,1.0,-35.0,-1,1.0,0.3016010000001188
440,22,0.5,0.125,35.0,1,1.0,0.33680100000015045
441,22,0.5,0.0625,-35.0,1,0.0,0.3581010000000333
442,22,0.5,0.125,35.0,1,1.0,0.1971009999999751
443,22,0.5,0.0625,-35.0,-1,1.0,8.131702000000132
444,22,0.5,1.0,-35.0,-1,1.0,0.2975020000001223
445,22,0.5,0.125,35.0,1,1.0,9.565302000000202
446,22,0.5,0.0625,35.0,1,1.0,0.41760100000010425
447,22,0.5,0.0625,35.0,1,1.0,0.5759010000001581
448,22,0.5,0.125,35.0,1,1.0,5.2045009999999365
449,22,0.5,1.0,-35.0,-1,1.0,0.14920099999994818
450,22,0.5,0.125,35.0,-1,0.0,14.638200999999754
451,22,0.5,0.0,-35.0,-1,1.0,14.693001000000095
452,22,0.5,0.125,-35.0,1,0.0,18.62880099999984
453,22,0.5,0.125,35.0,-1,0.0,1.9971009999999296
454,22,0.5,1.0,-35.0,-1,1.0,0.40600099999983286
455,22,0.5,0.0625,35.0,-1,0.0,10.98390100000006
456,22,0.5,0.25,35.0,-1,0.0,8.463100999999824
457,22,0.5,0.0625,-35.0,-1,1.0,0.32520100000010643
458,22,0.5,0.0625,-35.0,-1,1.0,0.4835009999997055
459,22,0.5,0.125,-35.0,-1,1.0,0.3414020000000164
460,22,0.5,0.25,35.0,1,1.0,0.6269009999996342
461,22,0.5,0.125,-35.0,-1,1.0,0.33850200000006225
462,22,0.5,1.0,-35.0,-1,1.0,0.3236019999999371
463,22,0.5,0.125,35.0,-1,0.0,0.4655009999996764
464,22,0.5,0.25,-35.0,-1,1.0,0.38050099999964004
465,22,0.5,0.25,35.0,-1,0.0,5.435100999999577
466,22,0.5,0.125,35.0,-1,0.0,17.370800999999574
467,22,0.5,0.25,35.0,1,1.0,13.879401000000144
468,22,0.5,0.0625,-35.0,-1,1.0,0.40170199999965917
469,22,0.5,0.125,35.0,1,1.0,0.6796019999997043
470,22,0.5,0.125,35.0,1,1.0,0.4951009999995222
471,22,0.5,1.0,-35.0,1,0.0,0.14630099999976665
472,22,0.5,0.125,-35.0,-1,1.0,0.5253009999996721
473,22,0.5,1.0,-35.0,-1,1.0,0.3235010000003058
474,22,0.5,0.0625,-35.0,-1,1.0,0.4255009999997128
475,22,0.5,1.0,35.0,-1,0.0,0.2837009999998372
476,22,0.4,1.0,35.0,1,1.0,0.3523019999997814
477,22,0.5,1.0,35.0,1,1.0,0.303501999999753
478,22,0.5,0.0,35.0,1,1.0,9.939100999999482
479,22,0.5,1.0,35.0,1,1.0,0.22780199999988326
480,22,0.5,0.125,35.0,1,1.0,2.282701999999972
481,22,0.5,0.125,-35.0,-1,1.0,0.6807009999997717
482,22,0.5,1.0,-35.0,-1,1.0,0.31960099999969316
483,22,0.5,1.0,35.0,1,1.0,0.2945009999998547
484,22,0.5,0.0625,-35.0,-1,1.0,5.149700999999823
485,22,0.5,1.0,-35.0,-1,1.0,0.2748020000003635
486,22,0.5,0.0625,35.0,1,1.0,2.166701999999532
487,22,0.5,0.0625,35.0,1,1.0,0.9713009999995847
488,22,0.5,1.0,-35.0,-1,1.0,0.2935010000001057
489,22,0.5,0.25,35.0,1,1.0,0.708100999999715
490,22,0.5,0.25,-35.0,-1,1.0,0.5035010000001421
491,22,0.5,0.125,-35.0,-1,1.0,0.435200999999779
492,22,0.5,0.0625,35.0,1,1.0,0.45040199999994
493,22,0.5,0.25,-35.0,1,0.0,0.36510199999975157
494,22,0.5,0.0,35.0,-1,0.0,3.910501999999724
495,22,0.5,0.0625,35.0,1,1.0,10.37170100000003
496,22,0.5,0.25,35.0,1,1.0,0.7810009999993781
497,22,0.5,0.25,35.0,1,1.0,10.535701000000245
498,22,0.5,1.0,-35.0,-1,1.0,0.34140199999956167
499,22,0.5,0.0625,35.0,1,1.0,2.0728009999997994
500,22,0.5,1.0,35.0,1,1.0,0.26500099999975646
501,22,0.5,0.125,-35.0,-1,1.0,0.5527009999996153
502,22,0.5,0.25,35.0,1,1.0,0.31510199999956967
503,22,0.5,0.25,-35.0,-1,1.0,0.2865009999995891
504,22,0.5,0.25,-35.0,-1,1.0,0.6352009999995971
505,22,0.5,0.25,35.0,-1,0.0,2.0330010000002403
506,22,0.5,0.125,35.0,1,1.0,4.9854019999997945
507,22,0.5,1.0,-35.0,-1,1.0,0.3002010000000155
508,22,0.5,0.0,-35.0,-1,1.0,9.468900999999732
509,22,0.5,0.25,-35.0,-1,1.0,0.41700100000025486
510,22,0.5,0.0625,35.0,1,1.0,0.6725020000003497
511,22,0.5,1.0,35.0,1,1.0,0.3206009999998969
512,22,0.5,0.25,-35.0,-1,1.0,0.27950099999952727
513,22,0.5,0.0625,-35.0,1,0.0,3.987901999999849
514,22,0.4,0.0625,35.0,1,1.0,6.096200999999837
515,22,0.5,1.0,35.0,1,1.0,0.24140099999976883
516,22,0.5,1.0,35.0,1,1.0,2.136500999999953
517,22,0.5,0.25,35.0,1,1.0,0.3715009999996255
518,22,0.5,0.0625,35.0,-1,0.0,0.3904019999999946
519,22,0.5,0.25,35.0,1,1.0,15.001700999999684
520,22,0.5,0.25,-35.0,-1,1.0,8.134201000000303
521,22,0.5,0.25,-35.0,-1,1.0,0.6156009999999696
522,22,0.5,1.0,-35.0,-1,1.0,0.3145009999998365
523,22,0.5,0.125,35.0,-1,0.0,4.4924009999999726
524,22,0.5,0.0,-35.0,-1,1.0,20.244901999999456
525,22,0.5,0.25,35.0,1,1.0,0.6602009999996881
526,22,0.5,0.25,35.0,1,1.0,2.1620020000000295
527,22,0.5,1.0,-35.0,-1,1.0,0.36980099999982485
528,22,0.5,0.125,35.0,1,1.0,0.4488010000000031
529,22,0.5,1.0,35.0,1,1.0,0.2568009999995411
530,22,0.5,0.0625,35.0,1,1.0,2.835700999999972
531,22,0.5,0.0625,-35.0,1,0.0,2.034200999999939
532,22,0.5,0.0625,35.0,1,1.0,3.339201999999659
533,22,0.5,0.125,-35.0,1,0.0,2.1872009999997317
534,22,0.5,0.25,35.0,1,1.0,0.5062020000000302
535,22,0.5,0.25,-35.0,-1,1.0,2.6239009999999325
536,22,0.5,0.0,-35.0,1,0.0,6.98620099999971
537,22,0.5,0.0625,35.0,1,1.0,1.4112009999998918
538,22,0.5,0.0,35.0,1,1.0,0.3065019999994547
539,22,0.5,0.25,-35.0,-1,1.0,0.47440099999994345
540,22,0.5,1.0,-35.0,-1,1.0,0.3000019999999495
541,22,0.5,0.25,35.0,1,1.0,4.344700999999986
542,22,0.5,1.0,-35.0,-1,1.0,7.990401999999449
543,22,0.5,1.0,35.0,1,1.0,0.5018009999998867
544,22,0.5,0.0625,35.0,1,1.0,2.7606009999999515
545,22,0.5,0.0,35.0,-1,0.0,3.092000999999982
546,22,0.6,0.0,35.0,-1,0.0,5.200900999999703
547,22,0.5,1.0,-35.0,-1,1.0,0.2824009999999362
548,22,0.5,0.0625,-35.0,-1,1.0,9.571000999999796
549,22,0.5,0.0625,35.0,-1,0.0,2.3229019999998854
550,22,0.3,0.0625,35.0,1,1.0,0.3515009999996437
551,22,0.5,1.0,-35.0,-1,1.0,0.2602009999995971
552,22,0.5,0.0625,35.0,1,1.0,7.371700999999575
1,23,0.5,0.0,-35.0,1,0.0,0.6023000000000001
2,23,0.5,0.125,35.0,-1,0.0,1.3190999999999988
3,23,0.5,0.125,-35.0,-1,1.0,0.4026009999999989
4,23,0.5,0.0,-35.0,1,0.0,0.28889999999999816
5,23,0.5,0.0625,-35.0,-1,1.0,0.6064000000000007
6,23,0.5,0.25,35.0,1,1.0,0.47550000000000026
7,23,0.5,0.0625,-35.0,-1,1.0,0.352999999999998
8,23,0.5,1.0,35.0,1,1.0,0.2925000000000004
9,23,0.5,0.25,-35.0,-1,1.0,0.7210000000000001
10,23,0.5,0.0,-35.0,1,0.0,0.28289999999999793
11,23,0.5,0.25,35.0,1,1.0,0.4965999999999937
12,23,0.5,0.0625,-35.0,-1,1.0,0.49689999999999657
13,23,0.5,0.25,35.0,1,1.0,0.3196000000000012
14,23,0.5,0.125,35.0,1,1.0,0.8584999999999994
15,23,0.5,0.25,-35.0,-1,1.0,0.31980000000000075
16,23,0.5,1.0,-35.0,-1,1.0,0.26780000000000115
17,23,0.5,0.0625,-35.0,-1,1.0,0.47289999999999566
18,23,0.5,1.0,35.0,1,1.0,0.34679999999999467
19,23,0.5,0.0625,-35.0,-1,1.0,0.5132009999999951
20,23,0.5,0.125,-35.0,-1,1.0,0.3248000000000104
21,23,0.5,0.125,35.0,1,1.0,0.32800000000000296
22,23,0.5,0.125,-35.0,-1,1.0,0.281099999999995
23,23,0.5,0.125,-35.0,-1,1.0,0.3211000000000155
24,23,0.5,1.0,35.0,1,1.0,0.2774999999999892
25,23,0.5,1.0,35.0,1,1.0,0.46870000000001255
26,23,0.5,0.25,35.0,1,1.0,0.3393999999999977
27,23,0.5,0.0625,35.0,1,1.0,0.29770100000000355
28,23,0.5,0.0625,-35.0,-1,1.0,0.27709999999999013
29,23,0.5,0.0,35.0,1,1.0,0.7861000000000047
30,23,0.5,0.25,35.0,1,1.0,0.28320100000000537
31,23,0.5,0.125,35.0,1,1.0,0.4246999999999872
32,23,0.5,0.125,-35.0,-1,1.0,0.5600000000000023
33,23,0.5,0.25,35.0,1,1.0,0.4052000000000078
34,23,0.5,0.25,-35.0,-1,1.0,0.2514010000000013
35,23,0.5,0.25,35.0,1,1.0,0.6470000000000056
36,23,0.5,0.125,35.0,1,1.0,0.39220000000000255
37,23,0.5,1.0,-35.0,-1,1.0,0.43240000000000123
38,23,0.5,0.25,-35.0,-1,1.0,0.6850999999999772
39,23,0.5,0.0625,-35.0,-1,1.0,0.5064999999999884
40,23,0.5,0.0625,35.0,-1,0.0,0.37129999999999086
41,23,0.5,0.25,-35.0,-1,1.0,0.4560999999999922
42,23,0.5,0.0625,-35.0,1,0.0,0.7293999999999983
43,23,0.4,0.0625,35.0,1,1.0,0.39579999999997995
44,23,0.5,1.0,-35.0,-1,1.0,0.2765009999999961
45,23,0.5,0.0625,-35.0,1,0.0,0.40929999999997335
46,23,0.5,0.25,35.0,1,1.0,0.38640000000000896
47,23,0.5,0.125,35.0,1,1.0,0.4553009999999631
48,23,0.5,0.0,-35.0,1,0.0,1.881699999999995
49,23,0.5,0.0625,-35.0,1,0.0,0.4202009999999916
50,23,0.7,0.0625,35.0,-1,0.0,1.7759000000000071
51,23,0.5,1.0,35.0,1,1.0,0.47809999999998354
52,23,0.5,0.125,35.0,1,1.0,0.8240999999999588
53,23,0.5,0.125,-35.0,-1,1.0,0.30769999999998277
54,23,0.5,1.0,35.0,1,1.0,0.18260100000000534
55,23,0.5,0.0625,-35.0,-1,1.0,0.4609999999999843
56,23,0.5,0.25,-35.0,1,0.0,0.27660099999999943
57,23,0.5,0.25,-35.0,-1,1.0,0.31529999999997926
58,23,0.5,0.0625,-35.0,1,0.0,0.6376999999999953
59,23,0.5,0.0,-35.0,1,0.0,0.32789999999999964
60,23,0.5,0.0625,35.0,1,1.0,8.242300999999998
61,23,0.5,0.125,35.0,1,1.0,0.3456999999999937
62,23,0.5,1.0,35.0,-1,0.0,0.2605999999999824
63,23,0.5,0.25,35.0,1,1.0,0.41920099999998683
64,23,0.5,1.0,-35.0,-1,1.0,0.288599999999974
65,23,0.5,1.0,-35.0,-1,1.0,0.29759999999998854
66,23,0.5,0.125,-35.0,-1,1.0,0.30519999999998504
67,23,0.5,0.25,35.0,1,1.0,0.8796000000000106
68,23,0.5,0.125,35.0,-1,0.0,0.32089999999999463
69,23,0.5,0.125,35.0,1,1.0,0.3241999999999621
70,23,0.5,0.125,-35.0,-1,1.0,0.293500999999992
71,23,0.5,1.0,35.0,1,1.0,0.3255010000000311
72,23,0.5,0.25,-35.0,-1,1.0,0.2542010000000232
73,23,0.5,1.0,-35.0,1,0.0,0.10370100000000093
74,23,0.5,0.25,35.0,1,1.0,0.3482999999999947
75,23,0.5,0.125,-35.0,-1,1.0,0.3805009999999811
76,23,0.5,0.0625,35.0,1,1.0,0.31150000000002365
77,23,0.5,0.0625,-35.0,-1,1.0,0.34770000000003165
78,23,0.5,0.25,35.0,1,1.0,0.5197009999999977
79,23,0.5,1.0,35.0,-1,0.0,0.3877010000000496
80,23,0.5,0.125,35.0,1,1.0,0.5907000000000266
81,23,0.5,0.0625,-35.0,-1,1.0,0.3307010000000332
82,23,0.5,1.0,-35.0,-1,1.0,0.2507999999999697
83,23,0.5,0.0,35.0,1,1.0,0.3723000000000525
84,23,0.5,0.25,35.0,1,1.0,0.6380000000000337
85,23,0.5,1.0,35.0,-1,0.0,0.13060000000001537
86,23,0.5,0.125,35.0,1,1.0,0.3550999999999931
87,23,0.5,0.125,-35.0,-1,1.0,0.3054000000000201
88,23,0.5,0.125,-35.0,-1,1.0,0.3044999999999618
89,23,0.5,1.0,-35.0,-1,1.0,0.2377999999999929
90,23,0.5,0.0,-35.0,1,0.0,0.5267000000000053
91,23,0.5,0.125,-35.0,1,0.0,0.4143010000000231
92,23,0.5,0.25,35.0,-1,0.0,0.15680000000003247
93,23,0.5,0.0,35.0,1,1.0,3.783200000000022
94,23,0.5,0.0,35.0,-1,0.0,0.5210999999999899
95,23,0.5,0.125,-35.0,-1,1.0,0.415300000000002
96,23,0.5,1.0,35.0,1,1.0,0.40200000000004366
97,23,0.5,0.25,-35.0,-1,1.0,0.6274009999999635
98,23,0.5,0.25,35.0,1,1.0,0.32010000000008176
99,23,0.5,0.0625,-35.0,-1,1.0,0.32080000000001974
100,23,0.5,1.0,35.0,1,1.0,0.3099010000000817
101,23,0.5,0.0625,35.0,1,1.0,0.47710100000000466
102,23,0.5,0.0625,35.0,1,1.0,0.44700000000005957
103,23,0.5,0.0625,-35.0,-1,1.0,0.43350000000003774
104,23,0.5,0.25,35.0,1,1.0,0.2928009999999972
105,23,0.5,0.0,35.0,1,1.0,0.3964010000000826
106,23,0.5,0.125,-35.0,-1,1.0,0.30930000000000746
107,23,0.5,0.0,35.0,1,1.0,0.3613000000000284
108,23,0.5,0.0625,-35.0,-1,1.0,0.24410000000005994
109,23,0.5,0.0,-35.0,1,0.0,0.4674999999999727
110,23,0.5,0.125,35.0,1,1.0,0.34609999999997854
111,23,0.5,1.0,35.0,1,1.0,0.2715000000000032
112,23,0.5,0.25,-35.0,-1,1.0,0.27319999999997435
113,23,0.5,0.0625,-35.0,1,0.0,0.388101000000006
114,23,0.7,0.0625,-35.0,-1,1.0,0.3164000000000442
115,23,0.5,1.0,-35.0,-1,1.0,0.25800099999997883
116,23,0.5,0.0625,35.0,1,1.0,0.377900000000011
117,23,0.5,0.25,-35.0,-1,1.0,0.22080100000005132
118,23,0.5,0.0,-35.0,1,0.0,0.40039999999999054
119,23,0.6,0.0,35.0,1,1.0,0.1362999999999488
120,23,0.5,1.0,-35.0,-1,1.0,0.3856000000000108
121,23,0.5,1.0,-35.0,-1,1.0,0.2435010000000375
122,23,0.5,0.25,35.0,1,1.0,0.4286000000000172
123,23,0.5,0.125,35.0,1,1.0,0.5332000000000789
124,23,0.5,0.25,35.0,1,1.0,0.31049999999999045
125,23,0.5,0.0625,35.0,-1,0.0,0.19400000000001683
126,23,0.5,0.25,-35.0,-1,1.0,0.27530000000001564
127,23,0.5,1.0,-35.0,-1,1.0,0.2655000000000314
128,23,0.5,0.25,-35.0,-1,1.0,0.26310000000000855
129,23,0.5,1.0,-35.0,-1,1.0,0.22890100000000757
130,23,0.5,0.0,35.0,1,1.0,1.4834999999999923
131,23,0.5,0.0625,-35.0,-1,1.0,0.2827000000000339
132,23,0.5,0.125,35.0,1,1.0,0.32600000000007867
133,23,0.5,0.25,-35.0,1,0.0,0.29069999999995844
134,23,0.5,0.0,-35.0,1,0.0,0.7818010000000299
135,23,0.5,0.0625,35.0,1,1.0,0.3838000000000079
136,23,0.5,0.0625,-35.0,1,0.0,1.0429000000000315
137,23,0.5,0.125,35.0,1,1.0,0.31520100000000184
138,23,0.5,0.25,35.0,1,1.0,0.32240000000007285
139,23,0.5,0.125,-35.0,-1,1.0,0.27140100000002576
140,23,0.5,0.25,35.0,1,1.0,0.27780000000001337
141,23,0.5,0.0,35.0,1,1.0,0.297600999999986
142,23,0.5,0.125,35.0,1,1.0,0.3023000000000593
143,23,0.5,0.0,35.0,1,1.0,0.33960099999990234
144,23,0.5,0.0,-35.0,1,0.0,0.600099999999884
145,23,0.9,0.0,-35.0,-1,1.0,0.7873000000000729
146,23,0.5,1.0,-35.0,-1,1.0,0.2726000000000113
147,23,0.5,1.0,-35.0,-1,1.0,0.26539999999999964
148,23,0.5,0.0,35.0,1,1.0,0.43600100000003295
149,23,0.5,0.125,-35.0,-1,1.0,0.10169999999982338
150,23,0.5,1.0,-35.0,-1,1.0,0.3169000000000324
151,23,0.5,1.0,35.0,1,1.0,0.19929999999999382
152,23,0.5,0.125,35.0,1,1.0,2.65930000000003
153,23,0.5,0.0625,-35.0,1,0.0,0.4397999999998774
154,23,0.5,0.25,35.0,1,1.0,0.2964999999999236
155,23,0.5,1.0,35.0,1,1.0,0.24579999999991742
156,23,0.5,0.125,35.0,1,1.0,0.2767999999999802
157,23,0.5,0.25,35.0,1,1.0,0.21000000000003638
158,23,0.5,0.0,35.0,1,1.0,0.8315999999999804
159,23,0.5,1.0,-35.0,-1,1.0,0.2680999999998903
160,23,0.5,0.125,-35.0,-1,1.0,0.22390099999995527
161,23,0.5,0.125,35.0,1,1.0,5.863499999999931
162,23,0.5,0.125,-35.0,-1,1.0,0.24449999999990268
163,23,0.5,0.25,-35.0,-1,1.0,0.441599999999994
164,23,0.5,0.0,35.0,-1,0.0,0.21879999999998745
165,23,0.5,0.0,35.0,1,1.0,1.7613999999999805
166,23,0.5,1.0,-35.0,-1,1.0,0.2542999999999438
167,23,0.5,0.0,-35.0,1,0.0,0.3061000000000149
168,23,0.4,0.0,-35.0,-1,1.0,0.36189999999999145
169,23,0.5,1.0,-35.0,-1,1.0,0.3826010000000224
170,23,0.5,0.25,35.0,1,1.0,0.4420999999999822
171,23,0.5,0.125,-35.0,-1,1.0,0.30549999999982447
172,23,0.5,1.0,35.0,1,1.0,0.14459999999996853
173,23,0.5,0.0,-35.0,1,0.0,0.38630000000000564
174,23,0.5,0.125,-35.0,-1,1.0,0.2817009999999982
175,23,0.5,1.0,-35.0,-1,1.0,0.46669999999994616
176,23,0.5,0.125,35.0,1,1.0,0.2721999999998843
177,23,0.5,0.25,-35.0,-1,1.0,0.3793999999999187
178,23,0.5,1.0,35.0,1,1.0,0.2624999999999318
179,23,0.5,0.25,35.0,1,1.0,0.3102999999998701
180,23,0.5,0.0625,35.0,1,1.0,0.37940100000002985
181,23,0.5,1.0,-35.0,-1,1.0,0.29529999999988377
182,23,0.5,0.25,35.0,1,1.0,0.34600000000000364
183,23,0.5,0.125,-35.0,-1,1.0,0.2821009999998978
184,23,0.5,0.125,35.0,1,1.0,0.3425999999999476
185,23,0.5,1.0,-35.0,-1,1.0,0.19859999999994216
186,23,0.5,0.25,35.0,1,1.0,0.3246000000000322
187,23,0.5,0.0,-35.0,-1,1.0,0.525899999999865
188,23,0.5,1.0,35.0,1,1.0,0.23019999999996799
189,23,0.5,0.0625,-35.0,-1,1.0,0.3857999999999038
190,23,0.5,0.0625,-35.0,1,0.0,0.3606999999999516
191,23,0.5,0.0625,35.0,1,1.0,0.2676999999999907
192,23,0.5,1.0,35.0,1,1.0,0.22880099999997583
193,23,0.5,0.0,35.0,1,1.0,0.4171999999999798
194,23,0.5,1.0,35.0,1,1.0,0.18629999999996016
195,23,0.5,0.25,35.0,1,1.0,0.2896009999999478
196,23,0.5,0.25,-35.0,-1,1.0,0.42709999999988213
197,23,0.5,0.25,-35.0,-1,1.0,0.23900100000003022
198,23,0.5,0.0625,35.0,-1,0.0,0.11259999999992942
199,23,0.5,0.0625,-35.0,-1,1.0,0.33839999999986503
200,23,0.5,0.125,-35.0,-1,1.0,0.22769999999991342
201,23,0.5,0.125,-35.0,-1,1.0,0.324799999999982
202,23,0.5,0.0,-35.0,-1,1.0,0.356899999999996
203,23,0.5,0.0,-35.0,-1,1.0,0.5432999999999311
204,23,0.5,1.0,-35.0,-1,1.0,0.38229999999987285
205,23,0.5,0.125,35.0,1,1.0,0.30349999999998545
206,23,0.5,0.125,-35.0,1,0.0,0.14819999999997435
207,23,0.5,0.125,-35.0,-1,1.0,0.29129999999997835
208,23,0.5,1.0,35.0,1,1.0,0.30320000000006075
209,23,0.5,0.125,35.0,-1,0.0,0.16509999999993852
210,23,0.5,0.0625,35.0,1,1.0,0.46739999999988413
211,23,0.5,0.125,-35.0,1,0.0,0.18930100000000039
212,23,0.5,0.125,-35.0,1,0.0,2.921899999999937
213,23,0.5,1.0,35.0,1,1.0,0.3343999999999596
214,23,0.5,0.0625,-35.0,-1,1.0,0.3344999999999345
215,23,0.5,0.0,35.0,1,1.0,0.3886999999999716
216,23,0.5,0.0625,-35.0,-1,1.0,0.3745999999999867
217,23,0.5,1.0,35.0,1,1.0,0.25100000000009004
218,23,0.5,0.25,-35.0,-1,1.0,0.27650099999993927
219,23,0.5,0.125,35.0,1,1.0,0.33740000000000236
220,23,0.5,0.0625,35.0,1,1.0,0.9278009999999313
221,23,0.5,1.0,35.0,1,1.0,0.229300999999964
222,23,0.5,0.125,35.0,1,1.0,0.36400000000003274
223,23,0.5,0.25,35.0,1,1.0,0.3392999999999802
224,23,0.5,1.0,-35.0,-1,1.0,0.28709999999989577
225,23,0.5,0.25,-35.0,-1,1.0,0.4076999999999771
226,23,0.5,0.25,-35.0,-1,1.0,0.2762000000000171
227,23,0.5,0.25,-35.0,-1,1.0,0.23129900000003545
228,23,0.5,0.125,-35.0,-1,1.0,0.5551999999998998
229,23,0.5,0.125,-35.0,-1,1.0,0.2686999999998534
230,23,0.5,0.125,35.0,1,1.0,0.3593999999999369
231,23,0.5,1.0,-35.0,-1,1.0,0.3000999999999294
232,23,0.5,0.0625,35.0,1,1.0,0.39639999999997144
233,23,0.5,0.125,-35.0,-1,1.0,0.23469999999997526
234,23,0.5,0.0625,-35.0,-1,1.0,0.27700099999992744
235,23,0.5,0.125,35.0,1,1.0,0.2439999999999145
236,23,0.5,0.25,-35.0,-1,1.0,0.14210099999991144
237,23,0.5,0.25,-35.0,-1,1.0,0.29330099999981485
238,23,0.5,0.125,35.0,1,1.0,0.46459999999990487
239,23,0.5,0.125,35.0,1,1.0,0.3548009999999522
240,23,0.5,0.0625,35.0,1,1.0,0.2929999999998927
241,23,0.5,0.0625,-35.0,-1,1.0,0.3768999999999778
242,23,0.5,0.125,35.0,1,1.0,0.28660100000001876
243,23,0.5,0.25,35.0,1,1.0,0.33399999999994634
244,23,0.5,0.0625,-35.0,-1,1.0,0.25450100000000475
245,23,0.5,0.125,35.0,1,1.0,0.2889999999998736
246,23,0.5,1.0,-35.0,1,0.0,0.13499999999987722
247,23,0.5,0.0625,35.0,1,1.0,0.4270000000000209
248,23,0.5,0.0,-35.0,1,0.0,0.3561009999999669
249,23,0.5,0.125,-35.0,-1,1.0,0.40399999999999636
250,23,0.5,0.25,35.0,1,1.0,0.37609999999995125
251,23,0.5,0.0625,35.0,-1,0.0,1.5336999999999534
252,23,0.5,0.25,35.0,1,1.0,0.2761000000000422
253,23,0.5,1.0,-35.0,-1,1.0,0.33619999999984884
254,23,0.5,0.25,-35.0,-1,1.0,0.302599999999984
255,23,0.5,0.25,35.0,1,1.0,0.2942999999999074
256,23,0.5,0.0625,35.0,1,1.0,0.31599999999991724
257,23,0.5,0.125,-35.0,-1,1.0,0.2440000000000282
258,23,0.5,0.25,-35.0,-1,1.0,0.26080000000001746
259,23,0.5,1.0,35.0,1,1.0,0.38550099999986287
260,23,0.5,0.0,35.0,1,1.0,1.115199999999959
261,23,0.5,0.0625,35.0,1,1.0,0.2983999999999014
262,23,0.5,0.125,35.0,1,1.0,0.7626999999999953
263,23,0.5,0.0625,-35.0,1,0.0,0.22049999999990177
264,23,0.7,0.0625,-35.0,1,0.0,0.36550099999999475
265,23,0.5,1.0,35.0,1,1.0,0.3220000000001164
266,23,0.5,0.0,35.0,-1,0.0,0.6638999999998987
267,23,0.5,0.125,-35.0,-1,1.0,0.44039999999995416
268,23,0.5,1.0,35.0,1,1.0,0.9600999999998976
269,23,0.5,0.0625,35.0,1,1.0,5.529299999999921
270,23,0.5,0.0625,35.0,1,1.0,0.3044999999999618
271,23,0.5,0.0625,35.0,1,1.0,0.2964999999999236
272,23,0.5,0.0625,35.0,1,1.0,0.7378999999999678
273,23,0.5,0.0625,-35.0,-1,1.0,0.36459999999988213
274,23,0.5,0.0625,-35.0,-1,1.0,0.3201000000000249
275,23,0.5,0.0,-35.0,1,0.0,0.306699999999978
276,23,0.5,0.0,-35.0,1,0.0,0.4501999999998816
277,23,0.7,0.0,-35.0,-1,1.0,2.386799999999994
278,23,0.5,1.0,-35.0,-1,1.0,0.22029999999995198
279,23,0.5,0.125,35.0,-1,0.0,0.3570009999998547
280,23,0.5,0.0625,35.0,1,1.0,0.5710999999998876
281,23,0.5,1.0,35.0,1,1.0,0.28060099999993326
282,23,0.5,0.125,35.0,1,1.0,0.6245000000001255
283,23,0.5,0.25,-35.0,-1,1.0,0.4605999999996584
284,23,0.5,0.125,-35.0,1,0.0,0.10779999999999745
285,23,0.5,0.25,-35.0,-1,1.0,0.4375999999999749
286,23,0.5,0.25,-35.0,-1,1.0,0.3410000000001219
287,23,0.5,0.25,35.0,1,1.0,1.9210000000000491
288,23,0.5,0.125,-35.0,-1,1.0,0.21780100000000857
289,23,0.5,0.0,-35.0,1,0.0,0.32120000000008986
290,23,0.6,0.0,-35.0,1,0.0,0.4882000000000062
291,23,0.5,1.0,-35.0,-1,1.0,0.26789999999982683
292,23,0.5,0.0625,-35.0,-1,1.0,0.38150100000007114
293,23,0.5,1.0,-35.0,1,0.0,0.11150099999986196
294,23,0.5,0.0625,-35.0,-1,1.0,0.33150000000000546
295,23,0.5,0.125,35.0,1,1.0,0.28150000000005093
296,23,0.5,0.125,35.0,1,1.0,0.3786999999999807
297,23,0.5,0.25,35.0,1,1.0,0.3183010000000195
298,23,0.5,1.0,-35.0,-1,1.0,0.3188999999999851
299,23,0.5,0.25,35.0,1,1.0,5.018500999999787
300,23,0.5,0.125,35.0,1,1.0,0.3261009999998805
301,23,0.5,0.0625,-35.0,-1,1.0,4.22199999999998
302,23,0.5,1.0,-35.0,-1,1.0,0.31239999999979773
303,23,0.5,0.125,35.0,1,1.0,0.3823000000002139
304,23,0.5,1.0,35.0,1,1.0,0.19249999999988177
305,23,0.5,0.0,-35.0,1,0.0,0.7923999999998159
306,23,0.5,0.25,-35.0,-1,1.0,0.30619999999976244
307,23,0.5,0.0625,-35.0,-1,1.0,0.26910099999986414
308,23,0.5,1.0,-35.0,-1,1.0,0.32270100000005186
309,23,0.5,0.0625,-35.0,-1,1.0,0.2893010000000231
310,23,0.5,0.0,35.0,1,1.0,1.5462999999999738
311,23,0.5,0.25,35.0,1,1.0,0.30939999999986867
312,23,0.5,1.0,-35.0,-1,1.0,0.7828999999999269
313,23,0.5,0.0625,-35.0,1,0.0,0.25279999999997926
314,23,0.5,0.0625,-35.0,1,0.0,0.09719999999992979
315,23,0.5,1.0,-35.0,-1,1.0,0.3430000000000746
316,23,0.5,0.25,-35.0,-1,1.0,0.3470009999998638
317,23,0.5,0.0625,-35.0,-1,1.0,0.2598000000000411
318,23,0.5,0.0625,-35.0,-1,1.0,0.48339999999984684
319,23,0.5,0.125,35.0,1,1.0,0.29330000000004475
320,23,0.5,1.0,-35.0,-1,1.0,0.5201000000001841
321,23,0.5,0.25,-35.0,-1,1.0,0.24680000000012114
322,23,0.5,0.0625,-35.0,-1,1.0,0.2340999999998985
323,23,0.5,0.0625,-35.0,-1,1.0,0.32340000000021973
324,23,0.5,0.0625,35.0,-1,0.0,0.23040000000014516
325,23,0.5,0.0,-35.0,-1,1.0,0.5469000000000506
326,23,0.5,0.0625,35.0,1,1.0,0.31740100000001803
327,23,0.5,0.25,35.0,1,1.0,0.40039999999999054
328,23,0.5,0.125,35.0,1,1.0,0.3141000000000531
329,23,0.5,0.125,35.0,1,1.0,0.48720000000002983
330,23,0.5,0.0625,-35.0,-1,1.0,0.46080000000006294
331,23,0.5,1.0,-35.0,-1,1.0,0.30070099999989
332,23,0.5,0.125,35.0,1,1.0,0.27080099999989216
333,23,0.5,0.0,-35.0,-1,1.0,0.41410199999972974
334,23,0.5,0.25,35.0,1,1.0,0.23430099999995946
335,23,0.5,0.0625,35.0,1,1.0,0.36100200000009863
336,23,0.5,1.0,-35.0,-1,1.0,0.31140099999993254
337,23,0.5,1.0,-35.0,-1,1.0,0.25430099999994127
338,23,0.5,1.0,35.0,1,1.0,0.25850100000002385
339,23,0.5,0.0625,35.0,1,1.0,0.33130099999993945
340,23,0.5,0.25,-35.0,1,0.0,4.121601999999939
341,23,0.5,0.0625,-35.0,-1,1.0,3.4581009999999424
342,23,0.5,1.0,35.0,1,1.0,0.3787009999998645
343,23,0.5,1.0,35.0,1,1.0,0.23500099999978374
344,23,0.5,1.0,-35.0,-1,1.0,0.34500100000013845
345,23,0.5,0.0,-35.0,1,0.0,0.5052010000001701
346,23,0.6,0.0,-35.0,-1,1.0,0.3854009999997743
347,23,0.5,1.0,-35.0,-1,1.0,0.3319010000000162
348,23,0.5,1.0,-35.0,-1,1.0,0.22610099999997146
349,23,0.5,0.25,-35.0,-1,1.0,0.24530200000003788
350,23,0.5,0.25,-35.0,-1,1.0,0.2493010000000595
351,23,0.5,0.125,-35.0,-1,1.0,0.26220199999988836
352,23,0.5,0.125,-35.0,-1,1.0,0.24890099999993254
353,23,0.5,0.0625,35.0,1,1.0,0.3023019999998269
354,23,0.5,0.0625,35.0,1,1.0,0.4097009999998136
355,23,0.5,0.0625,35.0,1,1.0,0.3459010000001399
356,23,0.5,0.0,35.0,1,1.0,1.2525020000000495
357,23,0.5,0.0,35.0,1,1.0,0.369300999999723
358,23,0.5,0.125,35.0,1,1.0,0.4227009999999609
359,23,0.5,0.125,-35.0,-1,1.0,0.2927009999998518
360,23,0.5,0.125,-35.0,-1,1.0,0.25670100000002094
361,23,0.5,0.25,35.0,1,1.0,0.12960100000009334
362,23,0.5,0.125,-35.0,-1,1.0,0.3667009999996935
363,23,0.5,0.0,-35.0,-1,1.0,0.9963009999999031
364,23,0.5,0.125,-35.0,-1,1.0,0.33080199999994875
365,23,0.5,0.25,-35.0,-1,1.0,0.3098019999999906
366,23,0.5,0.25,35.0,1,1.0,0.28670099999999366
367,23,0.5,0.25,-35.0,-1,1.0,0.3199010000000726
368,23,0.5,0.125,35.0,1,1.0,0.2971019999999953
369,23,0.5,0.0625,35.0,1,1.0,0.5100009999998747
370,23,0.5,0.125,35.0,1,1.0,0.3075019999998858
371,23,0.5,0.0625,-35.0,-1,1.0,0.473500999999942
372,23,0.5,0.25,-35.0,-1,1.0,0.29700099999990925
373,23,0.5,1.0,35.0,1,1.0,0.09700099999986378
374,23,0.5,0.0625,35.0,1,1.0,0.2605009999997492
375,23,0.5,1.0,35.0,1,1.0,0.24370100000010098
376,23,0.5,1.0,-35.0,1,0.0,0.19720099999972263
377,23,0.5,0.25,35.0,1,1.0,0.33720100000005004
378,23,0.5,0.125,-35.0,1,0.0,0.49100099999986924
379,23,0.5,0.25,-35.0,-1,1.0,1.0440010000002076
380,23,0.5,0.0625,-35.0,1,0.0,2.5141009999999824
381,23,0.7,0.0625,-35.0,1,0.0,3.7142010000000028
382,23,0.5,1.0,-35.0,-1,1.0,0.3646019999998771
383,23,0.5,1.0,-35.0,-1,1.0,0.26460100000008424
384,23,0.5,0.125,35.0,1,1.0,0.29490099999998165
385,23,0.5,0.0,-35.0,1,0.0,1.5580010000001039
386,23,0.5,0.0,-35.0,1,0.0,0.17840099999989434
387,23,0.5,0.25,-35.0,-1,1.0,0.3547009999999773
388,23,0.5,0.0,-35.0,1,0.0,1.1485009999998965
389,23,0.5,0.125,35.0,1,1.0,0.13830099999995582
390,23,0.5,0.0625,-35.0,-1,1.0,0.3284019999998691
391,23,0.5,0.0625,-35.0,-1,1.0,0.3419019999998909
392,23,0.5,0.0625,35.0,1,1.0,0.41600199999970755
393,23,0.5,1.0,-35.0,-1,1.0,0.27850199999988945
394,23,0.5,0.25,-35.0,-1,1.0,0.24540099999990161
395,23,0.5,0.0,-35.0,-1,1.0,0.3320019999998749
396,23,0.5,0.125,35.0,1,1.0,0.3361009999998714
397,23,0.5,0.125,-35.0,-1,1.0,0.48870099999999184
398,23,0.5,0.0,-35.0,1,0.0,0.5659009999999398
399,23,0.5,0.0625,35.0,1,1.0,0.43580199999996694
400,23,0.5,0.125,-35.0,-1,1.0,0.49640099999987797
401,23,0.5,1.0,-35.0,-1,1.0,0.25910099999987324
402,23,0.5,0.125,-35.0,-1,1.0,0.22930199999996148
403,23,0.5,1.0,-35.0,-1,1.0,0.28260199999999713
404,23,0.5,0.125,35.0,1,1.0,0.3363009999998212
405,23,0.5,0.0,-35.0,-1,1.0,0.3861010000000533
406,23,0.5,0.0625,-35.0,-1,1.0,0.3296020000000226
407,23,0.5,0.25,35.0,1,1.0,0.3829009999999471
408,23,0.5,0.25,35.0,1,1.0,0.29320099999995364
409,23,0.5,0.125,35.0,1,1.0,0.38290100000017446
410,23,0.5,0.0625,-35.0,-1,1.0,0.37310200000001714
411,23,0.5,0.0625,35.0,1,1.0,0.4030009999999038
412,23,0.5,0.25,35.0,1,1.0,0.3332020000000284
413,23,0.5,0.0625,-35.0,-1,1.0,0.6465010000001712
414,23,0.5,0.0,-35.0,1,0.0,0.8306009999998878
415,23,0.5,0.125,35.0,1,1.0,0.2634009999999307
416,23,0.5,0.25,-35.0,-1,1.0,0.35360099999979866
417,23,0.5,0.0,35.0,1,1.0,8.800301999999874
418,23,0.5,0.25,-35.0,-1,1.0,0.9637009999999009
419,23,0.5,0.0625,35.0,1,1.0,0.6104009999999107
420,23,0.5,0.125,35.0,1,1.0,0.19730100000015227
421,23,0.5,0.25,-35.0,-1,1.0,0.5072009999998954
422,23,0.5,0.0625,-35.0,1,0.0,0.47750199999995857
423,23,0.5,0.125,-35.0,-1,1.0,0.3707010000000537
424,23,0.5,1.0,35.0,1,1.0,0.2741009999999733
425,23,0.5,0.0,-35.0,1,0.0,0.38410099999987324
426,23,0.5,0.25,35.0,1,1.0,0.35130100000014863
427,23,0.5,0.25,-35.0,-1,1.0,0.46780200000011973
428,23,0.5,0.0625,-35.0,-1,1.0,0.2613010000000031
429,23,0.5,1.0,-35.0,-1,1.0,0.2979010000001381
430,23,0.5,1.0,35.0,1,1.0,0.2413010000000213
431,23,0.5,0.25,-35.0,-1,1.0,0.521300999999994
432,23,0.5,1.0,-35.0,-1,1.0,0.3883009999999558
433,23,0.5,0.25,-35.0,-1,1.0,0.29490099999998165
434,23,0.5,0.25,35.0,1,1.0,0.2881009999998696
435,23,0.5,0.0625,-35.0,-1,1.0,0.634902000000011
436,23,0.5,0.25,35.0,1,1.0,0.2583009999998467
437,23,0.5,0.0,-35.0,-1,1.0,0.2783009999998285
438,23,0.5,0.0625,35.0,-1,0.0,0.2157009999998536
439,23,0.5,0.25,-35.0,-1,1.0,0.2819010000000617
440,23,0.5,0.25,-35.0,-1,1.0,0.2253009999999449
441,23,0.5,1.0,-35.0,-1,1.0,0.32540100000005623
442,23,0.5,0.0625,-35.0,-1,1.0,0.4358009999998558
443,23,0.5,0.25,-35.0,-1,1.0,0.11210099999993872
444,23,0.5,0.0625,-35.0,-1,1.0,0.3989009999997961
445,23,0.5,0.25,35.0,1,1.0,0.30890099999987797
446,23,0.5,1.0,-35.0,-1,1.0,0.2858009999997648
447,23,0.5,0.25,35.0,1,1.0,0.229001000000153
448,23,0.5,0.125,35.0,1,1.0,0.36300200000005134
449,23,0.5,0.125,-35.0,-1,1.0,0.39590099999986705
450,23,0.5,0.125,-35.0,-1,1.0,0.39940100000012535
451,23,0.5,0.125,-35.0,-1,1.0,0.3594020000000455
452,23,0.5,0.0,35.0,-1,0.0,0.3599010000000362
453,23,0.5,0.25,35.0,1,1.0,0.6662009999997736
454,23,0.5,0.25,-35.0,-1,1.0,0.4835009999999329
455,23,0.5,0.0,-35.0,1,0.0,0.5263010000001032
456,23,0.5,0.125,-35.0,-1,1.0,0.34070100000008097
457,23,0.5,0.0,35.0,1,1.0,1.4798009999997248
458,23,0.5,1.0,-35.0,-1,1.0,0.3504009999999198
459,23,0.5,0.125,35.0,1,1.0,0.3733009999998558
460,23,0.5,1.0,-35.0,-1,1.0,0.31050199999981487
461,23,0.5,1.0,-35.0,-1,1.0,1.8001010000000406
462,23,0.5,0.125,-35.0,-1,1.0,13.177300999999943
463,23,0.5,0.25,35.0,-1,0.0,9.747200999999905
464,23,0.5,0.0625,35.0,-1,0.0,0.2374010000000908
465,23,0.5,0.25,35.0,1,1.0,2.397600999999895
466,23,0.5,1.0,35.0,1,1.0,4.478000999999949
467,23,0.5,0.0625,-35.0,1,0.0,0.6012009999999464
468,23,0.5,0.0,-35.0,-1,1.0,8.721301999999923
469,23,0.5,0.25,35.0,1,1.0,0.2514009999999871
470,23,0.5,0.0625,-35.0,1,0.0,1.705201999999872
471,23,0.5,0.25,35.0,1,1.0,3.251500999999962
472,23,0.5,0.0625,35.0,1,1.0,5.948801000000003
473,23,0.5,0.0,35.0,1,1.0,2.36860200000001
474,23,0.5,0.125,-35.0,-1,1.0,0.715701000000081
475,23,0.5,0.25,-35.0,-1,1.0,0.8421009999999569
476,23,0.5,0.25,35.0,1,1.0,1.769200999999839
477,23,0.5,1.0,35.0,1,1.0,0.5757009999999809
478,23,0.5,1.0,35.0,1,1.0,0.1891009999999369
479,23,0.5,0.0625,35.0,1,1.0,0.3557019999998374
480,23,0.5,0.125,-35.0,-1,1.0,0.35670100000015736
481,23,0.5,0.25,35.0,1,1.0,0.3195020000000568
482,23,0.5,1.0,35.0,1,1.0,0.3165010000000166
483,23,0.5,0.0,-35.0,1,0.0,0.3159009999999398
484,23,0.5,0.25,35.0,1,1.0,0.2497009999999591
485,23,0.5,1.0,35.0,1,1.0,0.3394010000001799
486,23,0.5,0.25,35.0,1,1.0,0.2496009999999842
487,23,0.5,0.25,35.0,1,1.0,0.21290099999987433
488,23,0.5,0.125,-35.0,-1,1.0,0.24990200000002005
489,23,0.5,1.0,-35.0,-1,1.0,0.3663019999999051
490,23,0.5,0.25,35.0,1,1.0,0.25650199999972756
491,23,0.5,0.0625,35.0,1,1.0,0.36320099999989
492,23,0.5,0.0625,35.0,1,1.0,0.31030200000009245
493,23,0.5,0.0,35.0,1,1.0,0.5400009999998474
494,23,0.5,1.0,-35.0,-1,1.0,0.32700199999976576
495,23,0.5,0.0625,35.0,1,1.0,0.14020199999981742
496,23,0.5,0.125,-35.0,-1,1.0,0.29050099999994927
497,23,0.5,0.0625,-35.0,1,0.0,0.6870010000000093
498,23,0.5,0.0,-35.0,1,0.0,3.04400099999998
499,23,0.5,0.0,35.0,1,1.0,3.1805010000000493
500,23,0.5,1.0,35.0,1,1.0,0.3442010000001119
501,23,0.5,0.0,35.0,1,1.0,0.7040009999998347
502,23,0.5,0.25,35.0,1,1.0,0.33080100000006496
503,23,0.5,0.0625,35.0,1,1.0,0.3442019999999957
504,23,0.5,0.125,35.0,1,1.0,0.34090100000003076
505,23,0.5,0.0625,35.0,1,1.0,0.1143010000000686
506,23,0.5,0.0,35.0,-1,0.0,0.8178009999999176
507,23,0.5,0.0625,35.0,1,1.0,0.45450099999993654
508,23,0.5,0.125,35.0,1,1.0,0.26460199999996803
509,23,0.5,0.25,-35.0,-1,1.0,0.2880010000001221
510,23,0.5,0.125,-35.0,-1,1.0,0.42810099999996964
511,23,0.5,0.125,35.0,1,1.0,0.26480100000003404
512,23,0.5,1.0,35.0,1,1.0,0.15480099999967933
513,23,0.5,1.0,-35.0,-1,1.0,0.29480100000000675
514,23,0.5,0.25,-35.0,1,0.0,0.34280100000000857
515,23,0.5,0.0,-35.0,1,0.0,0.5950009999999111
516,23,0.5,0.0625,-35.0,-1,1.0,0.3722009999999045
517,23,0.5,0.25,35.0,1,1.0,0.5518010000000686
518,23,0.5,0.0625,35.0,1,1.0,0.3927009999999882
519,23,0.5,0.0,-35.0,1,0.0,0.1187009999998736
520,23,0.7,0.0,35.0,1,1.0,3.0595009999999547
521,23,0.5,1.0,-35.0,-1,1.0,0.26210100000002967
522,23,0.5,0.125,35.0,1,1.0,0.24280100000009952
523,23,0.5,0.0625,35.0,1,1.0,0.4222010000000864
524,23,0.5,0.25,-35.0,-1,1.0,0.3323009999999158
525,23,0.5,0.25,35.0,1,1.0,0.3558010000001559
526,23,0.5,1.0,-35.0,-1,1.0,0.3565009999999802
527,23,0.5,0.125,35.0,1,1.0,2.145900999999867
528,23,0.5,0.25,35.0,1,1.0,1.3594009999999344
529,23,0.5,0.25,35.0,1,1.0,0.266001999999844
530,23,0.5,0.25,-35.0,-1,1.0,0.6698010000000068
531,23,0.5,0.0625,35.0,1,1.0,0.26620200000002114
532,23,0.5,0.25,35.0,1,1.0,0.3867009999999027
533,23,0.5,0.0625,35.0,1,1.0,0.36630099999979393
534,23,0.5,0.0,35.0,1,1.0,1.4233019999999215
535,23,0.5,0.125,-35.0,-1,1.0,0.836500999999771
536,23,0.5,0.125,35.0,1,1.0,5.459900999999945
537,23,0.5,0.25,-35.0,-1,1.0,0.39680100000032326
538,23,0.5,0.25,35.0,1,1.0,0.2868010000001959
539,23,0.5,0.25,35.0,1,1.0,0.40350100000023303
540,23,0.5,1.0,-35.0,-1,1.0,0.2840020000003278
541,23,0.5,0.0,-35.0,1,0.0,1.967000999999982
542,23,0.7,0.0,-35.0,1,0.0,2.730901000000358
543,23,0.5,1.0,-35.0,-1,1.0,0.3372010000002774
544,23,0.5,1.0,35.0,1,1.0,0.3941020000002027
545,23,0.5,0.0625,35.0,1,1.0,0.5739020000000892
546,23,0.5,0.125,-35.0,-1,1.0,0.5077009999999973
547,23,0.5,0.125,35.0,1,1.0,0.38080200000013065
548,23,0.5,0.0,35.0,1,1.0,0.5276010000002316
549,23,0.5,0.0625,35.0,1,1.0,0.4211009999999078
550,23,0.5,1.0,-35.0,-1,1.0,0.34830200000033074
551,23,0.5,0.25,35.0,1,1.0,0.28110100000003513
552,23,0.5,0.0,-35.0,1,0.0,1.6378010000003087
553,23,0.5,0.125,35.0,1,1.0,0.3680010000002767
554,23,0.5,0.0625,-35.0,-1,1.0,0.3623010000001159
555,23,0.5,1.0,-35.0,-1,1.0,0.214701000000332
556,23,0.5,0.0625,-35.0,-1,1.0,0.6317010000002483
557,23,0.5,0.125,35.0,1,1.0,0.42150100000026214
558,23,0.5,0.0625,-35.0,-1,1.0,0.5682010000000446
559,23,0.5,1.0,35.0,-1,0.0,6.918501000000106
560,23,0.5,0.0,-35.0,-1,1.0,1.242601000000377
561,23,0.5,0.25,35.0,1,1.0,0.4221010000001115
562,23,0.5,0.0625,35.0,1,1.0,2.0997010000000955
563,23,0.5,0.125,35.0,1,1.0,0.40570100000013554
564,23,0.5,1.0,35.0,1,1.0,0.4025010000000293
565,23,0.5,1.0,35.0,1,1.0,0.32920100000001185
566,23,0.5,1.0,-35.0,-1,1.0,0.6500010000004295
567,23,0.5,0.0625,35.0,1,1.0,3.899300999999923
568,23,0.5,0.125,-35.0,-1,1.0,0.35330100000010134
569,23,0.5,0.0625,-35.0,1,0.0,0.27610100000038074
570,23,0.5,0.0,35.0,1,1.0,1.4929010000005292
571,23,0.5,1.0,35.0,1,1.0,0.4463010000004033
572,23,0.5,0.0,-35.0,1,0.0,0.40650200000027326
573,23,0.5,0.25,-35.0,-1,1.0,0.516501000000062
574,23,0.5,0.125,-35.0,-1,1.0,0.6400010000002112
575,23,0.5,0.125,-35.0,1,0.0,1.3065010000000257
576,23,0.6,0.125,35.0,-1,0.0,0.7306010000002061
577,23,0.5,1.0,-35.0,-1,1.0,0.2601020000001881
578,23,0.5,0.25,-35.0,-1,1.0,0.31100100000003295
579,23,0.5,0.0625,35.0,1,1.0,1.747002000000066
580,23,0.5,0.125,35.0,-1,0.0,4.067201000000296
581,23,0.4,0.125,35.0,1,1.0,6.120501000000331
582,23,0.5,1.0,35.0,1,1.0,0.34480100000018865
583,23,0.5,0.125,35.0,-1,0.0,3.0207009999999173
584,23,0.4,0.125,-35.0,-1,1.0,0.6218010000002323
585,23,0.5,1.0,35.0,1,1.0,1.6276010000001406
586,23,0.5,0.25,35.0,1,1.0,8.421002000000499
587,23,0.5,0.0625,-35.0,-1,1.0,10.714500999999927
588,23,0.5,0.25,-35.0,-1,1.0,4.011601000000155
589,23,0.5,0.125,35.0,1,1.0,2.2116009999999733
590,23,0.5,0.0625,-35.0,-1,1.0,0.3553010000005088
591,23,0.5,0.125,35.0,1,1.0,0.7651010000004135
592,23,0.5,0.125,35.0,-1,0.0,2.8555010000004586
593,23,0.4,0.125,35.0,1,1.0,0.3720010000001821
594,23,0.5,1.0,-35.0,-1,1.0,0.19950199999993856
595,23,0.5,1.0,-35.0,-1,1.0,0.2321010000005117
596,23,0.5,0.0625,35.0,-1,0.0,1.5063020000002325
597,23,0.5,0.0625,35.0,-1,0.0,10.122401000000082
598,23,0.5,0.25,35.0,1,1.0,1.676502000000255
599,23,0.5,0.0625,-35.0,1,0.0,5.436001000000033
600,23,0.5,0.125,-35.0,-1,1.0,0.35980200000039986
601,23,0.5,1.0,35.0,1,1.0,0.5030010000000402
602,23,0.5,0.0,35.0,1,1.0,8.33310100000017
603,23,0.5,0.25,35.0,1,1.0,0.40000099999997474
604,23,0.5,0.125,-35.0,-1,1.0,0.2336019999997916
605,23,0.5,0.25,35.0,1,1.0,0.37680100000034145
606,23,0.5,0.0625,35.0,1,1.0,6.2706020000000535
607,23,0.5,1.0,35.0,1,1.0,2.6169010000003254
608,23,0.5,0.0625,35.0,1,1.0,3.834801000000425
609,23,0.5,0.125,35.0,1,1.0,3.19390199999998
610,23,0.5,1.0,-35.0,-1,1.0,0.23400200000014593
611,23,0.5,0.125,35.0,1,1.0,1.9773010000003524
612,23,0.5,0.125,-35.0,-1,1.0,6.90420099999983
613,23,0.5,0.0,-35.0,1,0.0,4.17770100000007
614,23,0.5,0.125,-35.0,-1,1.0,0.8812020000000302
615,23,0.5,0.25,-35.0,-1,1.0,0.2712010000000191
616,23,0.5,1.0,35.0,1,1.0,1.0347010000004957
617,23,0.5,1.0,35.0,1,1.0,0.2714009999999689
618,23,0.5,0.25,-35.0,-1,1.0,0.41480100000035236
619,23,0.5,0.0,35.0,1,1.0,3.9448010000005524
620,23,0.5,0.0,-35.0,-1,1.0,2.6520009999999274
621,23,0.5,0.0625,-35.0,-1,1.0,16.81190100000049
622,23,0.5,1.0,35.0,1,1.0,0.6395010000001093
623,23,0.5,1.0,35.0,1,1.0,0.9489020000000892
624,23,0.5,0.25,-35.0,-1,1.0,0.3030020000001059
625,23,0.5,0.125,-35.0,-1,1.0,0.7691020000002027
626,23,0.5,0.0,-35.0,1,0.0,2.8494009999999435
627,23,0.5,0.0,-35.0,-1,1.0,6.256002000000535
628,23,0.5,0.125,-35.0,-1,1.0,1.0164010000003145
629,23,0.5,0.25,-35.0,-1,1.0,0.1431020000004537
630,23,0.5,0.25,35.0,1,1.0,6.886901000000307
631,23,0.5,0.0625,35.0,-1,0.0,39.97020199999997
1,24,0.5,0.0,35.0,-1,0.0,0.6897999999999997
2,24,0.5,0.125,35.0,1,1.0,0.27520100000000003
3,24,0.5,1.0,35.0,1,1.0,0.272200999999999
4,24,0.5,1.0,35.0,1,1.0,0.2276000000000007
5,24,0.5,0.125,35.0,1,1.0,0.2901999999999987
6,24,0.5,0.0625,-35.0,1,0.0,0.39170000000000016
7,24,0.5,0.0625,35.0,1,1.0,0.22050000000000125
8,24,0.5,0.25,-35.0,-1,1.0,0.290300000000002
9,24,0.5,0.0625,-35.0,1,0.0,0.21710000000000207
10,24,0.8,0.0625,-35.0,-1,1.0,0.30870000000000175
11,24,0.5,1.0,-35.0,-1,1.0,0.6222009999999969
12,24,0.5,0.25,35.0,1,1.0,0.5718999999999994
13,24,0.5,0.125,35.0,1,1.0,0.31410100000000085
14,24,0.5,0.0,35.0,-1,0.0,0.12200100000000447
15,24,0.5,0.25,-35.0,-1,1.0,0.2881
16,24,0.5,0.0,35.0,1,1.0,1.2362000000000037
17,24,0.5,1.0,-35.0,-1,1.0,0.3873999999999995
18,24,0.5,0.125,35.0,1,1.0,0.6701010000000025
19,24,0.5,0.0625,35.0,1,1.0,0.9001999999999981
20,24,0.5,0.0625,-35.0,-1,1.0,0.3218000000000103
21,24,0.5,0.0,35.0,1,1.0,0.32570000000001187
22,24,0.5,0.25,35.0,1,1.0,0.41330000000000666
23,24,0.5,1.0,-35.0,-1,1.0,0.25149999999999295
24,24,0.5,0.0,-35.0,1,0.0,0.3318009999999987
25,24,0.5,0.0625,-35.0,-1,1.0,0.3744999999999976
26,24,0.5,0.25,-35.0,-1,1.0,0.3557999999999879
27,24,0.5,1.0,-35.0,-1,1.0,0.2454010000000153
28,24,0.5,0.25,35.0,1,1.0,0.1439009999999854
29,24,0.5,0.125,35.0,1,1.0,0.329701
30,24,0.5,0.0625,-35.0,-1,1.0,0.4043000000000063
31,24,0.5,0.25,-35.0,-1,1.0,0.3192009999999925
32,24,0.5,0.25,-35.0,1,0.0,0.5068000000000126
33,24,0.5,0.0625,-35.0,-1,1.0,0.33270000000000266
34,24,0.5,0.125,-35.0,-1,1.0,0.3293999999999926
35,24,0.5,1.0,35.0,1,1.0,0.21030100000000118
36,24,0.5,1.0,35.0,-1,0.0,0.9687000000000126
37,24,0.5,0.0625,-35.0,-1,1.0,0.759600000000006
38,24,0.5,0.0,35.0,-1,0.0,1.723600000000033
39,24,0.3,0.0,35.0,1,1.0,2.3075000000000045
40,24,0.5,1.0,35.0,1,1.0,0.28020100000000525
41,24,0.5,0.0625,35.0,1,1.0,0.25329999999999586
42,24,0.5,1.0,35.0,1,1.0,0.28520000000000323
43,24,0.5,0.25,35.0,1,1.0,0.30000000000001137
44,24,0.5,0.25,35.0,1,1.0,0.5294009999999787
45,24,0.5,0.0625,35.0,1,1.0,0.3880999999999801
46,24,0.5,0.0625,35.0,1,1.0,0.21990099999999302
47,24,0.5,0.25,35.0,1,1.0,0.4287999999999954
48,24,0.5,0.25,-35.0,1,0.0,0.2855999999999881
49,24,0.5,0.0625,35.0,-1,0.0,0.17950000000001864
50,24,0.5,0.0625,35.0,1,1.0,0.41569999999998686
51,24,0.5,0.25,-35.0,-1,1.0,0.2326010000000167
52,24,0.5,1.0,-35.0,-1,1.0,0.2349010000000078
53,24,0.5,0.125,35.0,1,1.0,0.2950999999999908
54,24,0.5,0.0625,35.0,1,1.0,0.1810999999999865
55,24,0.5,1.0,-35.0,-1,1.0,0.18250000000000455
56,24,0.5,0.25,35.0,1,1.0,0.3108009999999979
57,24,0.5,0.0625,35.0,1,1.0,0.30980100000002153
58,24,0.5,0.125,-35.0,-1,1.0,0.24559999999999604
59,24,0.5,1.0,-35.0,-1,1.0,0.21770099999997683
60,24,0.5,0.25,-35.0,-1,1.0,0.14340000000001396
61,24,0.5,1.0,35.0,-1,0.0,0.3225999999999942
62,24,0.5,0.0625,35.0,1,1.0,0.2878999999999792
63,24,0.5,0.125,35.0,1,1.0,0.30299999999999727
64,24,0.5,0.0,-35.0,-1,1.0,0.2453000000000145
65,24,0.5,0.25,-35.0,-1,1.0,0.2983000000000118
66,24,0.5,1.0,-35.0,-1,1.0,0.2907000000000153
67,24,0.5,0.0625,35.0,1,1.0,0.45480100000000334
68,24,0.5,0.0625,35.0,1,1.0,0.4088999999999885
69,24,0.5,0.25,-35.0,-1,1.0,0.2412999999999954
70,24,0.5,0.25,35.0,1,1.0,0.379099999999994
71,24,0.5,0.25,-35.0,-1,1.0,0.6569000000000074
72,24,0.5,0.0625,35.0,1,1.0,1.5672999999999888
73,24,0.5,1.0,-35.0,-1,1.0,0.2522000000000162
74,24,0.5,0.0625,-35.0,-1,1.0,0.3663999999999987
75,24,0.5,0.0625,-35.0,-1,1.0,0.4308000000000334
76,24,0.5,0.25,-35.0,-1,1.0,0.29189999999999827
77,24,0.5,0.0,35.0,-1,0.0,0.33340099999998074
78,24,0.5,0.0,-35.0,1,0.0,0.41060000000004493
79,24,0.5,0.25,-35.0,-1,1.0,0.2810999999999808
80,24,0.5,0.25,-35.0,-1,1.0,0.27190000000001646
81,24,0.5,0.125,-35.0,-1,1.0,0.2658000000000129
82,24,0.5,0.25,-35.0,-1,1.0,0.24629999999996244
83,24,0.5,1.0,-35.0,-1,1.0,0.24660000000000082
84,24,0.5,1.0,35.0,1,1.0,0.3155009999999834
85,24,0.5,0.125,35.0,1,1.0,0.5189000000000306
86,24,0.5,1.0,35.0,1,1.0,0.2913000000000352
87,24,0.5,1.0,35.0,1,1.0,0.09350100000000339
88,24,0.5,0.25,35.0,1,1.0,0.29080099999998765
89,24,0.5,0.125,-35.0,-1,1.0,0.2769000000000119
90,24,0.5,0.0625,-35.0,1,0.0,0.12880100000000994
91,24,0.5,0.25,35.0,1,1.0,0.3275000000000432
92,24,0.5,0.0625,-35.0,1,0.0,0.9407999999999674
93,24,0.8,0.0625,-35.0,-1,1.0,0.33180099999998447
94,24,0.5,1.0,35.0,1,1.0,1.379699999999957
95,24,0.5,0.0625,35.0,1,1.0,0.36560099999996964
96,24,0.5,0.0625,-35.0,1,0.0,0.19050000000004275
97,24,0.5,0.0625,-35.0,-1,1.0,0.5171010000000251
98,24,0.5,0.125,35.0,1,1.0,0.45230100000003404
99,24,0.5,0.0,35.0,-1,0.0,0.43420000000003256
100,24,0.5,0.0,35.0,1,1.0,2.7249010000000453
101,24,0.5,0.125,35.0,1,1.0,0.28450000000003683
102,24,0.5,0.25,-35.0,-1,1.0,0.2318000000000211
103,24,0.5,0.0625,35.0,-1,0.0,0.17699999999996407
104,24,0.6,0.0625,35.0,1,1.0,0.49080000000003565
105,24,0.5,1.0,-35.0,-1,1.0,0.27560099999999466
106,24,0.5,1.0,35.0,1,1.0,0.41700000000003
107,24,0.5,0.0625,35.0,1,1.0,0.5129010000000562
108,24,0.5,0.125,-35.0,-1,1.0,0.268100000000004
109,24,0.5,0.125,35.0,1,1.0,0.3386000000000422
110,24,0.5,0.125,-35.0,-1,1.0,0.2096000000000231
111,24,0.5,0.125,-35.0,-1,1.0,0.1280999999999608
112,24,0.5,1.0,-35.0,-1,1.0,0.25090000000000146
113,24,0.5,0.0625,-35.0,-1,1.0,0.2842000000000553
114,24,0.5,1.0,35.0,-1,0.0,0.310799999999972
115,24,0.5,0.125,35.0,1,1.0,0.29030000000005884
116,24,0.5,0.0625,35.0,1,1.0,0.3563000000000329
117,24,0.5,0.0,-35.0,1,0.0,0.3676999999999566
118,24,0.5,0.25,35.0,1,1.0,0.34550100000001294
119,24,0.5,0.25,35.0,1,1.0,0.2784000000000333
120,24,0.5,0.125,-35.0,-1,1.0,0.15570000000002437
121,24,0.5,0.25,35.0,1,1.0,0.3048000000000002
122,24,0.5,0.0625,35.0,1,1.0,0.3586999999999989
123,24,0.5,0.25,35.0,1,1.0,0.23099999999999454
124,24,0.5,0.125,35.0,1,1.0,0.3048000000000002
125,24,0.5,0.25,35.0,1,1.0,0.25460099999997965
126,24,0.5,0.0625,35.0,1,1.0,0.3009000000000128
127,24,0.5,0.25,35.0,1,1.0,0.7094000000000165
128,24,0.5,0.25,-35.0,-1,1.0,0.294900000000041
129,24,0.5,1.0,-35.0,-1,1.0,0.22839999999996508
130,24,0.5,0.0625,-35.0,1,0.0,0.09120000000001482
131,24,0.8,0.0625,-35.0,-1,1.0,0.17720000000002756
132,24,0.5,1.0,-35.0,-1,1.0,0.11750000000000682
133,24,0.5,0.25,-35.0,-1,1.0,0.38479999999998427
134,24,0.5,0.0,35.0,1,1.0,0.148900000000026
135,24,0.5,0.0625,-35.0,1,0.0,0.597801000000004
136,24,0.5,0.0625,35.0,1,1.0,0.5713999999999828
137,24,0.5,1.0,-35.0,-1,1.0,0.34859999999997626
138,24,0.5,0.25,35.0,1,1.0,0.3399000000000001
139,24,0.5,0.0,-35.0,1,0.0,0.8320009999999911
140,24,0.5,0.25,-35.0,-1,1.0,0.300899999999956
141,24,0.5,1.0,35.0,1,1.0,0.22539999999997917
142,24,0.5,1.0,35.0,1,1.0,0.5932010000000218
143,24,0.5,1.0,35.0,1,1.0,0.24540000000001783
144,24,0.5,0.0,35.0,-1,0.0,0.12850000000003092
145,24,0.5,0.0625,-35.0,1,0.0,0.42809999999997217
146,24,0.5,0.0625,-35.0,-1,1.0,0.2883000000000493
147,24,0.5,0.25,-35.0,-1,1.0,0.28460100000006605
148,24,0.5,0.0,35.0,-1,0.0,0.36410000000000764
149,24,0.5,0.25,35.0,1,1.0,0.296799999999962
150,24,0.5,1.0,-35.0,-1,1.0,0.4111000000000331
151,24,0.5,0.0625,35.0,1,1.0,0.27930000000014843
152,24,0.5,0.0,-35.0,1,0.0,0.3430999999999358
153,24,0.5,0.125,-35.0,-1,1.0,0.2540010000000166
154,24,0.5,1.0,35.0,1,1.0,0.24669999999991887
155,24,0.5,0.25,-35.0,-1,1.0,0.25079999999991287
156,24,0.5,0.0625,-35.0,1,0.0,0.17010099999993145
157,24,0.5,0.0,35.0,1,1.0,0.364400000000046
158,24,0.5,0.0625,35.0,1,1.0,0.2907999999999902
159,24,0.5,0.25,-35.0,-1,1.0,0.2701999999999316
160,24,0.5,0.25,35.0,1,1.0,0.48059999999998126
161,24,0.5,0.125,-35.0,-1,1.0,0.10009999999999764
162,24,0.5,0.0625,-35.0,-1,1.0,0.33809999999994034
163,24,0.5,0.25,-35.0,-1,1.0,0.10379999999997835
164,24,0.5,0.125,-35.0,1,0.0,0.13760100000001785
165,24,0.5,0.25,-35.0,-1,1.0,0.2721009999999069
166,24,0.5,0.0625,-35.0,-1,1.0,0.2563000000001239
167,24,0.5,0.0625,-35.0,-1,1.0,0.28870100000006005
168,24,0.5,1.0,35.0,1,1.0,1.1516000000000304
169,24,0.5,0.125,-35.0,-1,1.0,0.3265010000000075
170,24,0.5,0.125,-35.0,-1,1.0,0.24439999999992779
171,24,0.5,0.25,-35.0,-1,1.0,0.21450000000004366
172,24,0.5,0.0,35.0,1,1.0,0.33160000000009404
173,24,0.5,0.0,35.0,1,1.0,0.3927999999999656
174,24,0.5,0.0625,35.0,1,1.0,0.25649999999996
175,24,0.5,0.0,35.0,-1,0.0,2.78550000000007
176,24,0.4,0.0,-35.0,-1,1.0,0.37620000000003984
177,24,0.5,1.0,35.0,1,1.0,0.24490000000002965
178,24,0.5,0.125,-35.0,-1,1.0,0.28309999999999036
179,24,0.5,0.0,35.0,-1,0.0,0.32070100000009916
180,24,0.5,0.25,35.0,1,1.0,0.2968999999999369
181,24,0.5,0.0625,35.0,1,1.0,0.4072999999999638
182,24,0.5,0.25,35.0,1,1.0,0.2900999999999385
183,24,0.5,0.125,-35.0,-1,1.0,0.24869999999998527
184,24,0.5,0.25,-35.0,1,0.0,0.09820000000001983
185,24,0.5,0.0,35.0,-1,0.0,0.37560100000007424
186,24,0.5,0.0,35.0,-1,0.0,0.2867999999999711
187,24,0.5,1.0,35.0,1,1.0,0.29300000000000637
188,24,0.5,1.0,-35.0,-1,1.0,0.2816010000000233
189,24,0.5,0.125,-35.0,1,0.0,0.13380000000006476
190,24,0.5,0.0625,-35.0,-1,1.0,0.27710100000001603
191,24,0.5,0.25,35.0,1,1.0,0.30349999999998545
192,24,0.5,0.0625,35.0,1,1.0,0.10610000000008313
193,24,0.5,0.25,35.0,1,1.0,0.2779000000000451
194,24,0.5,1.0,-35.0,1,0.0,0.08900100000005295
195,24,0.6,1.0,35.0,1,1.0,0.26280000000008386
196,24,0.5,1.0,-35.0,-1,1.0,0.3533999999999651
197,24,0.5,1.0,-35.0,-1,1.0,0.2238000000000966
198,24,0.5,0.0,-35.0,-1,1.0,0.349399999999946
199,24,0.5,0.25,-35.0,-1,1.0,0.2843000000000302
200,24,0.5,1.0,35.0,1,1.0,0.28159999999991214
201,24,0.5,1.0,-35.0,-1,1.0,0.2400000000000091
202,24,0.5,0.125,-35.0,-1,1.0,0.19610000000000127
203,24,0.5,1.0,35.0,-1,0.0,0.16190000000005966
204,24,0.5,0.0625,-35.0,-1,1.0,0.557501000000002
205,24,0.5,0.25,-35.0,-1,1.0,0.23739999999997963
206,24,0.5,1.0,35.0,-1,0.0,0.12569999999993797
207,24,0.5,0.25,35.0,1,1.0,0.39030000000002474
208,24,0.5,0.0625,-35.0,-1,1.0,0.29119999999988977
209,24,0.5,1.0,35.0,1,1.0,0.2633010000000695
210,24,0.5,0.25,-35.0,-1,1.0,0.33170000000006894
211,24,0.5,1.0,-35.0,1,0.0,0.15449999999998454
212,24,0.3,1.0,-35.0,-1,1.0,0.24660000000005766
213,24,0.5,1.0,-35.0,-1,1.0,0.23089999999990596
214,24,0.5,0.125,35.0,1,1.0,0.3021999999999707
215,24,0.5,0.25,35.0,1,1.0,0.3143000000000029
216,24,0.5,0.0625,35.0,1,1.0,0.2858999999999696
217,24,0.5,0.0,-35.0,1,0.0,0.3147000000000162
218,24,0.5,0.0,-35.0,1,0.0,0.35839999999996053
219,24,0.7,0.0,-35.0,-1,1.0,0.32320000000004256
220,24,0.5,1.0,35.0,1,1.0,0.3605000000000018
221,24,0.5,0.25,35.0,1,1.0,0.30129999999996926
222,24,0.5,0.125,35.0,1,1.0,0.3007999999999811
223,24,0.5,0.0625,-35.0,-1,1.0,0.28290000000004056
224,24,0.5,0.25,-35.0,-1,1.0,0.30130099999996673
225,24,0.5,1.0,35.0,-1,0.0,0.08950000000004366
226,24,0.5,0.25,-35.0,-1,1.0,0.2743000000000393
227,24,0.5,0.0,35.0,-1,0.0,0.38779999999997017
228,24,0.5,0.0625,-35.0,-1,1.0,0.29140099999983704
229,24,0.5,1.0,35.0,1,1.0,0.37760000000002947
230,24,0.5,1.0,-35.0,-1,1.0,0.2537009999999782
231,24,0.5,0.125,35.0,1,1.0,0.3083009999999149
232,24,0.5,1.0,-35.0,-1,1.0,0.23840000000006967
233,24,0.5,0.125,-35.0,-1,1.0,0.23630000000002838
234,24,0.5,0.0625,35.0,-1,0.0,0.3025009999998929
235,24,0.5,0.0625,35.0,1,1.0,0.2916000000001304
236,24,0.5,0.125,-35.0,-1,1.0,0.3242999999999938
237,24,0.5,1.0,-35.0,-1,1.0,0.31169999999997344
238,24,0.5,0.125,35.0,1,1.0,0.3087999999999056
239,24,0.5,0.0625,35.0,1,1.0,0.2783000000000584
240,24,0.5,0.125,-35.0,-1,1.0,0.26740000000006603
241,24,0.5,0.25,-35.0,-1,1.0,0.2438009999999622
242,24,0.5,0.125,35.0,1,1.0,0.27700000000004366
243,24,0.5,1.0,35.0,1,1.0,0.2744000000000142
244,24,0.5,0.125,35.0,1,1.0,0.26930000000004384
245,24,0.5,0.0625,-35.0,1,0.0,0.5988999999999578
246,24,0.5,0.25,35.0,1,1.0,0.2897000000000389
247,24,0.5,0.0,-35.0,1,0.0,0.36770000000001346
248,24,0.8,0.0,35.0,1,1.0,0.4196999999999207
249,24,0.5,1.0,-35.0,-1,1.0,0.3613000000000284
250,24,0.5,0.0,-35.0,1,0.0,0.29169999999999163
251,24,0.5,0.0625,-35.0,-1,1.0,0.2582999999999629
252,24,0.5,0.125,-35.0,-1,1.0,0.21120099999996
253,24,0.5,0.25,35.0,1,1.0,0.18830000000002656
254,24,0.5,0.0,-35.0,-1,1.0,0.2880999999999858
255,24,0.5,0.125,-35.0,-1,1.0,0.775899999999865
256,24,0.5,0.0625,35.0,1,1.0,0.29690100000004804
257,24,0.5,0.0625,35.0,1,1.0,0.31510099999991326
258,24,0.5,0.0625,-35.0,-1,1.0,0.5025000000000546
259,24,0.5,0.0625,-35.0,-1,1.0,0.36549999999999727
260,24,0.5,1.0,35.0,1,1.0,0.2717000000000098
261,24,0.5,0.0625,-35.0,-1,1.0,0.27690100000006623
262,24,0.5,0.25,-35.0,-1,1.0,0.2640999999998712
263,24,0.5,0.125,35.0,1,1.0,0.24840100000005805
264,24,0.5,0.0,-35.0,1,0.0,0.24360000000001492
265,24,0.5,0.25,-35.0,-1,1.0,0.5416000000000167
266,24,0.5,0.125,35.0,1,1.0,0.27480000000002747
267,24,0.5,0.125,35.0,1,1.0,0.2176009999999451
268,24,0.5,0.0625,35.0,1,1.0,0.5404000000000906
269,24,0.5,1.0,-35.0,-1,1.0,0.23569999999995161
270,24,0.5,0.0625,-35.0,1,0.0,0.2016999999999598
271,24,0.5,0.125,-35.0,-1,1.0,0.2455000000001064
272,24,0.5,0.0,-35.0,-1,1.0,0.3614000000000033
273,24,0.5,1.0,-35.0,-1,1.0,0.2544999999998936
274,24,0.5,0.0625,35.0,1,1.0,0.2818999999999505
275,24,0.5,0.25,35.0,1,1.0,0.2559009999999944
276,24,0.5,0.0625,35.0,1,1.0,0.19879999999989195
277,24,0.5,0.25,-35.0,1,0.0,0.25930000000005293
278,24,0.5,0.25,35.0,1,1.0,0.22879999999997835
279,24,0.5,0.125,-35.0,-1,1.0,0.3123010000000477
280,24,0.5,0.25,-35.0,-1,1.0,0.25910099999987324
281,24,0.5,0.125,-35.0,-1,1.0,0.28939999999988686
282,24,0.5,0.0625,-35.0,-1,1.0,0.3827000000001135
283,24,0.5,0.25,-35.0,-1,1.0,0.3532000000000153
284,24,0.5,0.25,35.0,1,1.0,0.26269999999999527
285,24,0.5,1.0,-35.0,-1,1.0,0.4260999999999058
286,24,0.5,0.125,-35.0,1,0.0,0.09940000000005966
287,24,0.5,0.125,35.0,1,1.0,0.30369999999993524
288,24,0.5,0.25,-35.0,-1,1.0,0.12639999999987594
289,24,0.5,1.0,35.0,1,1.0,0.20000000000004547
290,24,0.5,1.0,-35.0,-1,1.0,0.24300099999982194
291,24,0.5,0.125,35.0,1,1.0,0.39990000000011605
292,24,0.5,0.0625,35.0,1,1.0,0.2798010000001341
293,24,0.5,0.25,35.0,1,1.0,0.2771010000001297
294,24,0.5,0.25,-35.0,-1,1.0,0.2900999999999385
295,24,0.5,1.0,-35.0,-1,1.0,0.31999999999993634
296,24,0.5,0.125,-35.0,-1,1.0,0.25670100000002094
297,24,0.5,0.0625,-35.0,-1,1.0,0.45029999999997017
298,24,0.5,0.25,35.0,-1,0.0,0.09370000000012624
299,24,0.5,0.125,-35.0,-1,1.0,0.2905000000000655
300,24,0.5,1.0,-35.0,-1,1.0,0.24369999999976244
301,24,0.5,1.0,35.0,1,1.0,0.22390100000006896
302,24,0.5,1.0,-35.0,-1,1.0,0.09720000000015716
303,24,0.5,0.125,-35.0,-1,1.0,0.6412000000000262
304,24,0.5,0.125,35.0,1,1.0,0.290599999999813
305,24,0.5,0.0,35.0,-1,0.0,0.9846999999999753
306,24,0.5,0.0625,35.0,1,1.0,0.26100000000019463
307,24,0.5,0.125,-35.0,-1,1.0,0.4309009999999489
308,24,0.5,1.0,35.0,1,1.0,0.24440000000004147
309,24,0.5,1.0,35.0,1,1.0,0.2176999999999225
310,24,0.5,1.0,35.0,1,1.0,0.12460000000010041
311,24,0.5,0.0625,-35.0,-1,1.0,0.13510000000019318
312,24,0.5,0.25,35.0,1,1.0,0.2645999999999731
313,24,0.5,0.125,35.0,1,1.0,0.1047000000000935
314,24,0.5,0.0625,-35.0,-1,1.0,0.2847999999999047
315,24,0.5,1.0,-35.0,-1,1.0,0.20209999999997308
316,24,0.5,0.25,-35.0,-1,1.0,0.1449009999998907
317,24,0.5,0.125,35.0,-1,0.0,0.4149010000000999
318,24,0.5,0.125,-35.0,-1,1.0,0.2817999999999756
319,24,0.5,0.125,-35.0,-1,1.0,0.2949999999998454
320,24,0.5,0.25,-35.0,-1,1.0,0.262000000000171
321,24,0.5,0.125,35.0,1,1.0,0.22929999999996653
322,24,0.5,0.0625,-35.0,-1,1.0,0.5553999999999633
323,24,0.5,1.0,35.0,1,1.0,0.3019000000001597
324,24,0.5,1.0,35.0,1,1.0,0.1855000000000473
325,24,0.5,0.25,-35.0,-1,1.0,0.6959000000001652
326,24,0.5,1.0,-35.0,-1,1.0,0.19220000000018445
327,24,0.5,0.0625,35.0,-1,0.0,0.18609999999989668
328,24,0.5,0.0625,-35.0,1,0.0,0.0989999999999327
329,24,0.5,0.125,-35.0,-1,1.0,0.2658000000001266
330,24,0.5,0.25,35.0,1,1.0,0.439200000000028
331,24,0.5,0.25,-35.0,-1,1.0,0.3160009999999147
332,24,0.5,0.25,35.0,1,1.0,0.2558999999998832
333,24,0.5,0.0625,-35.0,1,0.0,0.1595999999999549
334,24,0.5,0.0625,-35.0,-1,1.0,0.2694000000001324
335,24,0.5,1.0,-35.0,-1,1.0,0.2259999999998854
336,24,0.5,0.125,-35.0,-1,1.0,0.2796000000000731
337,24,0.5,0.125,-35.0,-1,1.0,0.1666010000001279
338,24,0.5,1.0,35.0,1,1.0,0.46640000000002146
339,24,0.5,0.125,-35.0,-1,1.0,0.3500000000001364
340,24,0.5,0.0,-35.0,-1,1.0,0.28320099999996273
341,24,0.5,0.0,35.0,1,1.0,0.39980000000014115
342,24,0.5,0.25,35.0,1,1.0,0.34339999999997417
343,24,0.5,1.0,35.0,1,1.0,0.27020100000027014
344,24,0.5,1.0,35.0,1,1.0,0.24020000000018626
345,24,0.5,0.0625,35.0,1,1.0,0.2904000000000906
346,24,0.5,0.25,35.0,1,1.0,0.5135999999999967
347,24,0.5,0.0625,35.0,-1,0.0,0.2636999999999716
348,24,0.5,0.25,-35.0,-1,1.0,0.23040000000014516
349,24,0.5,0.125,-35.0,-1,1.0,0.28719999999998436
350,24,0.5,0.0625,35.0,1,1.0,0.27060000000005857
351,24,0.5,1.0,35.0,1,1.0,1.970600000000104
352,24,0.5,0.0625,35.0,1,1.0,0.31760000000008404
353,24,0.5,0.0625,35.0,1,1.0,0.1875999999999749
354,24,0.5,1.0,35.0,1,1.0,0.1043000000001939
355,24,0.5,0.125,-35.0,-1,1.0,0.2945999999999458
356,24,0.5,0.25,35.0,1,1.0,0.18439999999986867
357,24,0.5,1.0,-35.0,1,0.0,0.19100000000003092
358,24,0.7,1.0,-35.0,-1,1.0,0.28449999999998
359,24,0.5,1.0,-35.0,1,0.0,0.17780100000004495
360,24,0.5,0.25,35.0,1,1.0,0.32130000000006476
361,24,0.5,0.25,-35.0,-1,1.0,0.32120000000008986
362,24,0.5,0.0625,-35.0,-1,1.0,0.2715000000002874
363,24,0.5,1.0,35.0,1,1.0,0.44529999999986103
364,24,0.5,0.0625,35.0,1,1.0,0.3048999999998614
365,24,0.5,0.0,-35.0,1,0.0,0.3056000000001404
366,24,0.5,0.25,-35.0,-1,1.0,0.24840099999983067
367,24,0.5,0.125,-35.0,-1,1.0,0.2655000000002019
368,24,0.5,0.25,35.0,1,1.0,0.35180000000013933
369,24,0.5,0.0,35.0,-1,0.0,0.4055000000000746
370,24,0.5,0.0625,35.0,1,1.0,0.32870100000013736
371,24,0.5,0.25,35.0,1,1.0,0.2522000000001299
372,24,0.5,0.0625,-35.0,-1,1.0,0.4257000000000062
373,24,0.5,1.0,-35.0,-1,1.0,0.3060009999999238
374,24,0.5,0.0625,35.0,1,1.0,0.3290999999999258
375,24,0.5,1.0,-35.0,-1,1.0,0.22319999999990614
376,24,0.5,1.0,-35.0,-1,1.0,0.4193000000000211
377,24,0.5,1.0,35.0,1,1.0,0.23620000000005348
378,24,0.5,0.0625,-35.0,-1,1.0,0.37940100000014354
379,24,0.5,0.25,-35.0,-1,1.0,0.7726999999999862
380,24,0.5,0.0625,35.0,1,1.0,0.31970099999989543
381,24,0.5,0.125,-35.0,-1,1.0,0.24700000000007094
382,24,0.5,0.0625,35.0,1,1.0,0.37980100000004313
383,24,0.5,0.0,-35.0,-1,1.0,0.2799999999999727
384,24,0.5,0.125,-35.0,-1,1.0,0.29320000000006985
385,24,0.5,0.125,35.0,-1,0.0,0.16990000000009786
386,24,0.3,0.125,-35.0,-1,1.0,0.1467000000002372
387,24,0.5,1.0,35.0,1,1.0,0.2233000000001084
388,24,0.5,0.25,-35.0,-1,1.0,0.24680100000000493
389,24,0.5,0.125,-35.0,-1,1.0,0.2743009999999231
390,24,0.5,0.25,-35.0,-1,1.0,0.2803000000001248
391,24,0.5,0.25,35.0,-1,0.0,0.19699999999988904
392,24,0.5,0.0,-35.0,-1,1.0,0.3272999999999229
393,24,0.5,0.0,-35.0,-1,1.0,0.34359999999992397
394,24,0.5,1.0,35.0,1,1.0,0.2807999999999993
395,24,0.5,0.125,35.0,1,1.0,0.27759999999989304
396,24,0.5,1.0,35.0,1,1.0,0.3875000000000455
397,24,0.5,0.25,35.0,1,1.0,0.41409999999996217
398,24,0.5,0.25,35.0,1,1.0,0.2441999999998643
399,24,0.5,0.25,35.0,1,1.0,0.29099999999994
400,24,0.5,0.25,-35.0,1,0.0,0.12100000000009459
401,24,0.5,0.0625,-35.0,-1,1.0,0.21450000000004366
402,24,0.5,1.0,35.0,1,1.0,0.32120000000008986
403,24,0.5,0.0625,-35.0,1,0.0,0.4178999999999178
404,24,0.9,0.0625,-35.0,1,0.0,0.21460000000001855
405,24,0.5,1.0,-35.0,-1,1.0,0.42849999999998545
406,24,0.5,0.0,35.0,1,1.0,0.15809999999987667
407,24,0.5,0.125,-35.0,-1,1.0,0.24800099999993108
408,24,0.5,0.25,35.0,1,1.0,0.2683999999999287
409,24,0.5,0.125,-35.0,1,0.0,0.2555999999999585
410,24,0.5,0.25,35.0,1,1.0,0.42860099999984413
411,24,0.5,0.25,35.0,1,1.0,0.23849999999993088
412,24,0.5,0.125,35.0,1,1.0,0.31529999999997926
413,24,0.5,0.0625,35.0,1,1.0,0.18219999999996617
414,24,0.5,0.25,35.0,1,1.0,0.28539999999998145
415,24,0.5,0.0,35.0,1,1.0,0.20880099999999402
416,24,0.5,1.0,-35.0,-1,1.0,0.25880000000006476
417,24,0.5,1.0,35.0,1,1.0,0.2420999999999367
418,24,0.5,1.0,-35.0,-1,1.0,0.22890000000006694
419,24,0.5,0.25,-35.0,-1,1.0,0.2492010000000846
420,24,0.5,1.0,-35.0,-1,1.0,0.2625000000000455
421,24,0.5,0.25,35.0,1,1.0,0.25909999999998945
422,24,0.5,0.125,-35.0,-1,1.0,0.24919999999997344
423,24,0.5,1.0,35.0,1,1.0,0.23019999999996799
424,24,0.5,0.0625,35.0,1,1.0,0.35619999999994434
425,24,0.5,0.0625,-35.0,-1,1.0,1.3530000000000655
426,24,0.5,0.25,35.0,1,1.0,0.31960000000003674
427,24,0.5,0.125,35.0,1,1.0,0.26650100000006205
428,24,0.5,0.125,35.0,1,1.0,0.33989999999994325
429,24,0.5,0.25,35.0,1,1.0,0.1431009999998878
430,24,0.5,1.0,-35.0,1,0.0,0.14670100000012098
431,24,0.5,0.125,35.0,1,1.0,0.3166000000001077
432,24,0.5,0.0625,35.0,1,1.0,0.26340000000004693
433,24,0.5,0.125,-35.0,-1,1.0,0.29670000000010077
434,24,0.5,0.25,-35.0,-1,1.0,0.253601000000117
435,24,0.5,0.125,35.0,1,1.0,0.23460000000000036
436,24,0.5,0.125,35.0,1,1.0,0.2903009999999995
437,24,0.5,0.0,-35.0,1,0.0,0.10440100000005259
438,24,0.5,0.125,-35.0,-1,1.0,0.30719999999996617
439,24,0.5,0.125,-35.0,-1,1.0,0.3041000000000622
440,24,0.5,0.0625,-35.0,-1,1.0,0.5739000000000942
441,24,0.5,0.0625,35.0,1,1.0,0.30440100000009807
442,24,0.5,0.0,-35.0,1,0.0,2.4573999999997795
443,24,0.5,0.25,35.0,1,1.0,0.2441999999998643
444,24,0.5,0.125,35.0,1,1.0,0.30759999999986576
445,24,0.5,0.125,-35.0,-1,1.0,0.24749999999994543
446,24,0.5,1.0,35.0,1,1.0,0.2542999999998301
447,24,0.5,0.25,-35.0,-1,1.0,0.23110000000019681
448,24,0.5,0.125,-35.0,-1,1.0,0.26460000000020045
449,24,0.5,0.25,35.0,-1,0.0,0.0944000000001779
450,24,0.5,0.0,-35.0,-1,1.0,5.321299999999837
451,24,0.5,1.0,35.0,1,1.0,0.28820100000007187
452,24,0.5,1.0,35.0,1,1.0,0.2815009999999347
453,24,0.5,0.25,35.0,1,1.0,0.27539999999976317
454,24,0.5,0.125,35.0,1,1.0,0.3183999999998832
455,24,0.5,0.0625,-35.0,-1,1.0,0.3087999999997919
456,24,0.5,0.125,-35.0,-1,1.0,0.24510000000009313
457,24,0.5,0.25,-35.0,-1,1.0,0.25870099999997365
458,24,0.5,1.0,-35.0,-1,1.0,0.33189999999990505
459,24,0.5,1.0,35.0,1,1.0,0.36199999999985266
460,24,0.5,0.25,-35.0,-1,1.0,0.4954999999999927
461,24,0.5,1.0,-35.0,-1,1.0,0.7655999999999494
462,24,0.5,0.125,35.0,1,1.0,0.3823010000000977
463,24,0.5,0.0,35.0,1,1.0,1.1160999999999603
464,24,0.5,0.0,35.0,1,1.0,0.3625010000000657
465,24,0.5,1.0,-35.0,-1,1.0,0.33619999999996253
466,24,0.5,0.0,35.0,-1,0.0,1.3259999999997945
467,24,0.5,0.125,-35.0,-1,1.0,0.32940000000007785
468,24,0.5,1.0,-35.0,-1,1.0,0.29940000000010514
469,24,0.5,0.25,-35.0,-1,1.0,0.2261999999998352
470,24,0.5,0.0625,-35.0,-1,1.0,0.3594999999997981
471,24,0.5,0.125,-35.0,1,0.0,0.22299999999995634
472,24,0.4,0.125,-35.0,-1,1.0,0.3098009999998794
473,24,0.5,1.0,-35.0,-1,1.0,0.5170009999999365
474,24,0.5,0.0625,-35.0,-1,1.0,0.2933010000001559
475,24,0.5,0.0625,35.0,1,1.0,0.34359999999992397
476,24,0.5,0.25,35.0,1,1.0,0.25
477,24,0.5,0.25,35.0,1,1.0,0.34330099999988306
478,24,0.5,0.0625,-35.0,-1,1.0,0.3169000000000324
479,24,0.5,1.0,-35.0,-1,1.0,0.32370000000014443
480,24,0.5,0.0625,-35.0,-1,1.0,0.2869999999998072
481,24,0.5,1.0,35.0,1,1.0,0.2641000000000986
482,24,0.5,0.0625,-35.0,-1,1.0,0.3104000000000724
483,24,0.5,0.25,35.0,1,1.0,0.22759999999993852
484,24,0.5,0.0625,-35.0,-1,1.0,0.33720100000005004
485,24,0.5,0.125,35.0,1,1.0,0.33390099999974154
486,24,0.5,0.0,35.0,-1,0.0,0.17739999999980682
487,24,0.5,0.125,-35.0,-1,1.0,0.48129999999991924
488,24,0.5,0.25,-35.0,-1,1.0,0.39419999999995525
489,24,0.5,0.0625,-35.0,-1,1.0,0.30780000000004293
490,24,0.5,0.0625,-35.0,-1,1.0,0.29440000000022337
491,24,0.5,0.25,35.0,1,1.0,0.2985000000001037
492,24,0.5,0.0625,35.0,1,1.0,0.34140099999990525
493,24,0.5,0.0,35.0,-1,0.0,0.3545010000000275
494,24,0.5,0.25,-35.0,-1,1.0,0.2747999999999138
495,24,0.5,0.0625,35.0,1,1.0,0.3683000000000902
496,24,0.5,1.0,-35.0,-1,1.0,0.27480000000014115
497,24,0.5,0.0,-35.0,-1,1.0,3.731499999999869
498,24,0.5,0.25,-35.0,-1,1.0,0.2583999999999378
499,24,0.5,0.0625,-35.0,-1,1.0,0.41219999999998436
500,24,0.5,0.25,-35.0,-1,1.0,0.4518000000000484
501,24,0.5,0.0,35.0,1,1.0,0.41580099999987397
502,24,0.5,0.125,-35.0,-1,1.0,0.25210100000003877
503,24,0.5,0.125,35.0,1,1.0,0.2663000000000011
504,24,0.5,0.25,35.0,1,1.0,0.2921999999998661
505,24,0.5,0.125,-35.0,-1,1.0,0.5522999999998319
506,24,0.5,0.0,-35.0,1,0.0,1.232200000000148
507,24,0.5,0.25,35.0,1,1.0,0.2793010000000322
508,24,0.5,0.0,-35.0,1,0.0,0.3991000000000895
509,24,0.5,0.0625,35.0,1,1.0,0.346000000000231
510,24,0.5,0.125,-35.0,-1,1.0,0.9926000000000386
511,24,0.5,0.0625,-35.0,-1,1.0,0.5562999999997373
512,24,0.5,1.0,-35.0,-1,1.0,0.26939999999990505
513,24,0.5,0.0625,-35.0,-1,1.0,0.2764999999999418
514,24,0.5,0.125,35.0,1,1.0,0.2563000000000102
515,24,0.5,0.25,-35.0,-1,1.0,0.2598000000000411
516,24,0.5,0.125,35.0,1,1.0,0.2197000000001026
517,24,0.5,0.125,35.0,1,1.0,0.21309999999994034
518,24,0.5,0.25,35.0,1,1.0,0.23989999999980682
519,24,0.5,0.25,35.0,1,1.0,0.23340000000007421
520,24,0.5,0.0625,-35.0,-1,1.0,0.373299999999972
521,24,0.5,1.0,-35.0,-1,1.0,0.2672000000002299
522,24,0.5,0.0625,35.0,1,1.0,0.3035010000000966
523,24,0.5,1.0,35.0,1,1.0,0.2901000000001659
524,24,0.5,0.0,35.0,1,1.0,0.31369999999992615
525,24,0.5,0.125,35.0,1,1.0,0.2571010000001479
526,24,0.5,1.0,-35.0,-1,1.0,0.28379999999992833
527,24,0.5,0.0625,35.0,1,1.0,0.10370100000000093
528,24,0.5,0.25,-35.0,-1,1.0,0.4572000000000571
529,24,0.5,0.25,35.0,1,1.0,0.7983000000001539
530,24,0.5,0.125,35.0,1,1.0,0.2539999999999054
531,24,0.5,0.0625,-35.0,-1,1.0,0.3007999999999811
532,24,0.5,0.0625,-35.0,-1,1.0,0.3642009999998663
533,24,0.5,1.0,-35.0,-1,1.0,0.2782999999999447
534,24,0.5,0.0625,-35.0,-1,1.0,0.431201000000101
535,24,0.5,0.125,-35.0,-1,1.0,0.3383010000000013
536,24,0.5,1.0,-35.0,1,0.0,0.14450200000010227
537,24,0.4,1.0,-35.0,-1,1.0,0.21470200000021578
538,24,0.5,1.0,35.0,1,1.0,0.41800100000000384
539,24,0.5,1.0,35.0,1,1.0,0.3181010000000697
540,24,0.5,0.0,35.0,1,1.0,0.42150100000003476
541,24,0.5,1.0,-35.0,-1,1.0,0.22810200000003533
542,24,0.5,0.25,-35.0,-1,1.0,0.30820200000016484
543,24,0.5,0.0625,-35.0,-1,1.0,0.5919019999998909
544,24,0.5,0.25,35.0,1,1.0,1.2352010000001883
545,24,0.5,0.0,-35.0,1,0.0,2.0750010000001566
546,24,0.5,0.25,-35.0,-1,1.0,0.3319019999999
547,24,0.5,0.0625,-35.0,-1,1.0,0.6491009999999733
548,24,0.5,0.25,35.0,1,1.0,0.2821009999997841
549,24,0.5,0.125,-35.0,-1,1.0,4.385702000000492
550,24,0.5,0.125,-35.0,-1,1.0,0.4290009999999711
551,24,0.5,0.125,-35.0,-1,1.0,0.5563009999996211
552,24,0.5,0.0625,35.0,-1,0.0,0.7891020000001845
553,24,0.3,0.0625,35.0,1,1.0,0.7958009999997557
554,24,0.5,1.0,35.0,1,1.0,0.292500999999902
555,24,0.5,1.0,-35.0,-1,1.0,0.14930099999992308
556,24,0.5,0.125,-35.0,-1,1.0,0.36940099999992526
557,24,0.5,0.0625,-35.0,-1,1.0,0.3928009999999631
558,24,0.5,0.25,-35.0,-1,1.0,0.5796019999997952
559,24,0.5,0.0625,35.0,1,1.0,0.3030009999997674
560,24,0.5,1.0,35.0,1,1.0,0.23630099999991216
561,24,0.5,0.125,-35.0,-1,1.0,0.3096010000003844
562,24,0.5,0.25,-35.0,-1,1.0,0.29680099999995946
563,24,0.5,1.0,-35.0,-1,1.0,0.2169010000002345
564,24,0.5,0.25,-35.0,1,0.0,0.1266009999999369
565,24,0.5,0.0,35.0,-1,0.0,4.390801999999894
566,24,0.5,0.125,-35.0,-1,1.0,0.37690100000008897
567,24,0.5,0.25,35.0,1,1.0,0.8136010000002898
568,24,0.5,0.0,-35.0,1,0.0,0.3804009999998925
569,24,0.5,0.0,35.0,1,1.0,1.2106010000002243
570,24,0.5,1.0,-35.0,-1,1.0,0.15720200000032492
571,24,0.5,0.25,-35.0,-1,1.0,0.37130100000013044
572,24,0.5,0.0,-35.0,1,0.0,0.6274010000001908
573,24,0.5,0.0,-35.0,1,0.0,0.88470099999995
574,24,0.5,1.0,-35.0,-1,1.0,0.2541009999999915
575,24,0.5,0.125,35.0,1,1.0,0.3379010000003291
576,24,0.5,0.25,-35.0,-1,1.0,0.3843019999999342
577,24,0.5,0.125,35.0,1,1.0,0.7844009999998889
578,24,0.5,0.125,-35.0,-1,1.0,0.39110100000016246
579,24,0.5,0.0,-35.0,1,0.0,0.2148010000000795
580,24,0.5,0.125,35.0,1,1.0,0.2880009999998947
581,24,0.5,0.125,-35.0,1,0.0,0.15840099999968515
582,24,0.7,0.125,-35.0,-1,1.0,0.2614010000002054
583,24,0.5,1.0,35.0,1,1.0,0.3153009999996357
584,24,0.5,1.0,35.0,1,1.0,0.4482010000001537
585,24,0.5,1.0,35.0,1,1.0,0.3484009999997397
586,24,0.5,0.125,35.0,1,1.0,0.2686009999997623
587,24,0.5,0.25,35.0,1,1.0,0.19920100000035745
588,24,0.5,0.125,-35.0,-1,1.0,0.29200200000013865
589,24,0.5,0.25,35.0,1,1.0,0.14940100000012535
590,24,0.5,0.125,35.0,1,1.0,0.20540100000016537
591,24,0.5,0.125,-35.0,-1,1.0,0.46560100000033344
592,24,0.5,0.0625,-35.0,1,0.0,0.49880099999973027
593,24,0.5,0.125,35.0,1,1.0,0.31900199999972756
594,24,0.5,0.125,-35.0,-1,1.0,0.3455010000002403
595,24,0.5,0.25,35.0,1,1.0,0.24620099999992817
596,24,0.5,0.25,-35.0,-1,1.0,0.3057010000002265
597,24,0.5,0.0,-35.0,1,0.0,0.38940099999990707
598,24,0.5,0.125,-35.0,-1,1.0,0.4291009999997186
599,24,0.5,0.0625,35.0,1,1.0,1.4358010000000831
600,24,0.5,0.25,35.0,1,1.0,3.0527020000004086
601,24,0.5,0.125,-35.0,-1,1.0,0.4028010000001814
602,24,0.5,0.25,-35.0,-1,1.0,0.2929020000001401
603,24,0.5,0.25,-35.0,-1,1.0,0.3036010000000715
604,24,0.5,1.0,35.0,1,1.0,0.2763019999997596
605,24,0.5,0.0625,35.0,1,1.0,0.3000010000000657
606,24,0.5,0.125,35.0,1,1.0,0.2598009999996975
607,24,0.5,1.0,35.0,1,1.0,0.256401000000551
608,24,0.5,0.0625,35.0,1,1.0,0.16660099999990052
609,24,0.5,0.25,35.0,1,1.0,0.5603020000003198
610,24,0.5,1.0,35.0,1,1.0,0.2868009999997412
611,24,0.5,1.0,35.0,1,1.0,0.15700200000037512
612,24,0.5,1.0,35.0,1,1.0,0.24690100000043458
613,24,0.5,0.125,35.0,1,1.0,0.2169010000002345
614,24,0.5,0.125,-35.0,-1,1.0,0.5605019999998149
615,24,0.5,1.0,35.0,1,1.0,0.19050100000004022
616,24,0.5,0.125,-35.0,-1,1.0,0.6104009999999107
617,24,0.5,0.0625,35.0,1,1.0,0.27080100000011953
618,24,0.5,0.25,35.0,1,1.0,0.3307009999998627
619,24,0.5,0.25,-35.0,-1,1.0,0.4674009999998816
620,24,0.5,0.25,35.0,1,1.0,0.31410200000027544
621,24,0.5,0.25,-35.0,-1,1.0,0.2611010000000533
622,24,0.5,0.25,35.0,1,1.0,0.3142009999996844
623,24,0.5,0.0,-35.0,1,0.0,0.8544010000000526
624,24,0.5,0.25,35.0,1,1.0,0.2979009999999107
625,24,0.5,0.25,35.0,1,1.0,0.22140100000024177
626,24,0.5,0.25,-35.0,-1,1.0,0.3346010000000206
627,24,0.5,1.0,-35.0,-1,1.0,0.29180100000030507
628,24,0.5,0.125,-35.0,-1,1.0,0.43800199999986944
629,24,0.5,0.25,-35.0,-1,1.0,0.3285020000002987
630,24,0.5,1.0,-35.0,-1,1.0,0.29820199999994657
631,24,0.5,0.125,-35.0,-1,1.0,0.3358020000000579
632,24,0.5,0.0625,35.0,1,1.0,0.38500100000010207
633,24,0.5,0.125,-35.0,-1,1.0,0.4789009999999507
634,24,0.5,1.0,35.0,1,1.0,0.24180099999966842
635,24,0.5,0.25,-35.0,-1,1.0,0.3719019999998636
636,24,0.5,0.25,-35.0,-1,1.0,0.3619010000002163
637,24,0.5,0.0,35.0,1,1.0,3.472001000000091
638,24,0.5,0.0625,35.0,1,1.0,0.9523010000002614
639,24,0.5,0.0,35.0,1,1.0,1.1856019999995624
640,24,0.5,0.25,35.0,1,1.0,0.7890019999999822
641,24,0.5,1.0,-35.0,-1,1.0,0.29560099999980594
642,24,0.5,0.25,35.0,1,1.0,0.2758009999997739
643,24,0.5,0.125,35.0,1,1.0,0.33620100000052844
644,24,0.5,0.0625,35.0,1,1.0,0.6627010000001974
645,24,0.5,0.0,-35.0,-1,1.0,0.9094009999998889
646,24,0.5,0.25,-35.0,-1,1.0,0.4528010000003633
647,24,0.5,0.0625,35.0,1,1.0,1.352900999999747
648,24,0.5,0.0625,35.0,1,1.0,1.4962009999999282
649,24,0.5,0.25,-35.0,-1,1.0,0.3002019999994445
650,24,0.5,0.0625,35.0,1,1.0,0.4330009999998765
651,24,0.5,0.125,-35.0,-1,1.0,0.6005009999998947
652,24,0.5,0.125,-35.0,-1,1.0,0.2999009999998634
653,24,0.5,1.0,35.0,1,1.0,0.4532009999998081
654,24,0.5,0.125,35.0,1,1.0,0.320100999999795
655,24,0.5,1.0,35.0,1,1.0,2.5403010000004542
656,24,0.5,0.0,35.0,-1,0.0,0.6801009999994676
657,24,0.5,0.125,-35.0,-1,1.0,0.37060099999962404
658,24,0.5,1.0,35.0,1,1.0,0.5937010000002374
659,24,0.5,0.0,35.0,1,1.0,1.2273009999998976
660,24,0.5,1.0,-35.0,-1,1.0,0.36050099999965823
661,24,0.5,1.0,35.0,1,1.0,3.2140009999998256
662,24,0.5,0.125,35.0,1,1.0,3.600702000000183
663,24,0.5,1.0,35.0,1,1.0,2.1647009999996953
664,24,0.5,0.0,-35.0,1,0.0,0.8544020000003911
665,24,0.7,0.0,35.0,1,1.0,8.07850099999996
666,24,0.5,1.0,-35.0,-1,1.0,0.2949009999997543
667,24,0.5,0.0625,35.0,1,1.0,11.131501000000299
668,24,0.5,0.0625,-35.0,-1,1.0,1.491500999999971
669,24,0.5,0.125,-35.0,1,0.0,1.735302000000047
670,24,0.7,0.125,-35.0,-1,1.0,0.3184009999999944
671,24,0.5,1.0,35.0,1,1.0,0.2957010000000082
672,24,0.5,1.0,35.0,1,1.0,0.4587009999995644
673,24,0.5,0.0625,-35.0,-1,1.0,0.8854010000000017
674,24,0.5,1.0,-35.0,-1,1.0,0.30870099999992817
675,24,0.5,0.125,-35.0,-1,1.0,1.372201000000132
676,24,0.5,0.25,-35.0,-1,1.0,0.3689009999998234
677,24,0.5,0.125,-35.0,-1,1.0,0.38220099999989543
678,24,0.5,0.25,-35.0,-1,1.0,2.2290009999996983
679,24,0.5,0.125,-35.0,-1,1.0,0.35580199999958495
680,24,0.5,1.0,35.0,1,1.0,0.8126010000000861
681,24,0.5,0.25,35.0,-1,0.0,4.429400999999871
682,24,0.5,0.0625,35.0,-1,0.0,1.0661009999998896
683,24,0.5,0.0625,35.0,-1,0.0,3.576900999999907
684,24,0.5,0.125,35.0,-1,0.0,1.8096009999999296
685,24,0.5,0.25,35.0,1,1.0,3.743702000000212
686,24,0.5,0.0,35.0,1,1.0,3.190200999999888
687,24,0.5,0.0,-35.0,1,0.0,0.20670100000006641
688,24,0.5,0.125,35.0,1,1.0,0.8835010000002512
689,24,0.5,0.0625,35.0,1,1.0,3.0236009999998714
690,24,0.5,1.0,-35.0,-1,1.0,0.2837009999998372
691,24,0.5,0.25,35.0,1,1.0,0.9837010000001101
692,24,0.5,0.25,-35.0,-1,1.0,0.3038010000000213
693,24,0.5,0.25,-35.0,-1,1.0,0.35740199999963806
694,24,0.5,1.0,35.0,1,1.0,0.3739010000003873
695,24,0.5,0.125,-35.0,-1,1.0,1.9841010000000097
696,24,0.5,1.0,35.0,1,1.0,0.41740200000003824
697,24,0.5,0.0,-35.0,-1,1.0,8.328002000000197
698,24,0.5,1.0,-35.0,-1,1.0,0.29130099999974846
699,24,0.5,0.125,-35.0,-1,1.0,0.3311009999997623
700,24,0.5,0.125,-35.0,-1,1.0,0.35460100000045713
701,24,0.5,0.25,35.0,1,1.0,0.5682019999999284
702,24,0.5,0.25,35.0,1,1.0,0.2580009999996946
703,24,0.5,0.0625,-35.0,-1,1.0,0.28870099999994636
704,24,0.5,1.0,-35.0,-1,1.0,0.7183009999998831
705,24,0.5,0.125,-35.0,-1,1.0,12.405100999999831
706,24,0.5,1.0,-35.0,-1,1.0,5.418901000000005
707,24,0.5,0.0625,-35.0,-1,1.0,6.8724019999999655
708,24,0.5,0.0625,-35.0,-1,1.0,5.989101000000119
709,24,0.5,0.125,35.0,1,1.0,6.427001000000018
710,24,0.5,0.0625,-35.0,1,0.0,0.506300999999894
711,24,0.4,0.0625,35.0,-1,0.0,32.2664020000002
712,24,0.5,1.0,35.0,1,1.0,5.540400999999747
713,24,0.5,1.0,-35.0,-1,1.0,7.907301000000189
714,24,0.5,0.0,-35.0,-1,1.0,4.724200999999994
715,24,0.5,0.0625,-35.0,-1,1.0,5.807901000000129
716,24,0.5,1.0,-35.0,-1,1.0,0.2213010000000395
717,24,0.5,0.25,-35.0,-1,1.0,0.9490010000004077
718,24,0.5,0.125,-35.0,-1,1.0,2.8047020000003613
719,24,0.5,0.125,-35.0,1,0.0,3.61860200000001
720,24,0.3,0.125,35.0,-1,0.0,3.578301999999894
721,24,0.5,1.0,-35.0,-1,1.0,0.34210099999972954
722,24,0.5,0.0625,-35.0,1,0.0,19.358801000000312
723,24,0.5,0.0625,-35.0,1,0.0,17.37240100000008
724,24,0.5,0.0625,35.0,1,1.0,5.212900999999874
725,24,0.5,1.0,35.0,1,1.0,0.21670200000016848
726,24,0.5,0.25,-35.0,-1,1.0,0.33970099999987724
727,24,0.5,0.25,35.0,1,1.0,3.2867009999999937
728,24,0.5,0.0,35.0,1,1.0,2.4701010000003407
729,24,0.5,0.125,35.0,1,1.0,0.2507010000003902
730,24,0.5,0.125,-35.0,1,0.0,0.8403010000001814
731,24,0.5,0.0625,-35.0,1,0.0,7.124201000000539
732,24,0.5,0.125,35.0,1,1.0,3.2773019999999633
733,24,0.5,0.125,-35.0,-1,1.0,17.247501000000284
734,24,0.5,0.125,-35.0,-1,1.0,0.5845020000001568
735,24,0.5,0.0625,-35.0,-1,1.0,0.3950009999998656
736,24,0.5,0.0,35.0,-1,0.0,2.5848009999999704
737,24,0.5,0.0625,35.0,-1,0.0,0.8219010000002527
738,24,0.5,0.25,-35.0,-1,1.0,0.30820200000016484
739,24,0.5,0.0625,-35.0,-1,1.0,1.2753010000001268
740,24,0.5,1.0,35.0,1,1.0,1.7250010000002476
741,24,0.5,0.0,35.0,1,1.0,2.0687010000001465
742,24,0.5,0.25,-35.0,-1,1.0,0.3120010000002367
743,24,0.5,0.0625,-35.0,1,0.0,0.6122009999999136
744,24,0.5,0.0625,-35.0,1,0.0,4.648701000000074
745,24,0.5,0.0,-35.0,1,0.0,0.5192010000000664
746,24,0.5,0.0625,35.0,-1,0.0,16.172401999999693
747,24,0.5,0.25,35.0,1,1.0,5.349600999999893
748,24,0.5,1.0,-35.0,-1,1.0,0.4563009999997121
749,24,0.5,0.25,-35.0,-1,1.0,3.5242010000001756
750,24,0.5,0.125,-35.0,1,0.0,5.05670100000043
751,24,0.5,0.25,-35.0,-1,1.0,8.847300999999788
752,24,0.5,0.0625,35.0,-1,0.0,7.006900999999743
753,24,0.5,0.0625,35.0,1,1.0,6.380800999999792
754,24,0.5,1.0,-35.0,-1,1.0,0.41070200000012846
755,24,0.5,0.0625,35.0,1,1.0,9.724402000000282
756,24,0.5,0.125,-35.0,-1,1.0,14.960900999999922
757,24,0.5,1.0,35.0,-1,0.0,1.3047010000004775
758,24,0.5,0.0625,-35.0,-1,1.0,4.39160099999981
759,24,0.5,0.125,35.0,-1,0.0,4.218700999999783
760,24,0.5,0.125,35.0,1,1.0,2.241700999999921
761,24,0.5,0.0,35.0,-1,0.0,3.6121009999997113
762,24,0.3,0.0,-35.0,1,0.0,8.565402000000176
763,24,0.5,1.0,-35.0,-1,1.0,0.3763010000002396
764,24,0.5,0.0625,35.0,1,1.0,11.858901999999944
765,24,0.5,0.0625,35.0,-1,0.0,1.522501000000375
766,24,0.5,0.0,35.0,1,1.0,4.7093009999998685
767,24,0.5,1.0,35.0,1,1.0,0.343101000000388
768,24,0.5,0.125,35.0,1,1.0,1.093000999999731
769,24,0.5,0.0625,35.0,1,1.0,14.699701000000005
770,24,0.5,1.0,35.0,1,1.0,0.9634009999999762
771,24,0.5,0.125,-35.0,-1,1.0,0.6001019999998789
772,24,0.5,0.125,35.0,-1,0.0,7.110300999999708
773,24,0.5,0.0625,-35.0,-1,1.0,5.183800999999676
774,24,0.5,0.125,-35.0,-1,1.0,0.727900999999747
775,24,0.5,0.25,-35.0,-1,1.0,0.343902000000071
776,24,0.5,0.0625,35.0,-1,0.0,5.9408009999997375
777,24,0.4,0.0625,35.0,1,1.0,6.877500999999938
778,24,0.5,1.0,35.0,1,1.0,0.8311020000005556
779,24,0.5,1.0,35.0,1,1.0,0.2745009999998729
780,24,0.5,0.0625,-35.0,-1,1.0,1.0913009999999304
781,24,0.5,0.0625,35.0,-1,0.0,8.351301000000149
782,24,0.3,0.0625,35.0,-1,0.0,4.732502000000295
783,24,0.5,1.0,-35.0,-1,1.0,0.275101000000177
784,24,0.5,0.25,35.0,1,1.0,6.432502000000113
785,24,0.5,0.25,-35.0,-1,1.0,0.23540100000036546
786,24,0.5,1.0,-35.0,-1,1.0,0.309001999999964
787,24,0.5,0.0,-35.0,-1,1.0,1.098801000000094
788,24,0.5,0.0625,35.0,-1,0.0,5.183101000000079
789,24,0.5,0.0625,-35.0,-1,1.0,6.429100999999719
790,24,0.5,0.0625,-35.0,1,0.0,5.789401000000453
791,24,0.5,0.25,35.0,1,1.0,3.649500999999873
792,24,0.5,0.125,-35.0,-1,1.0,0.35290100000020175
793,24,0.5,0.25,-35.0,-1,1.0,2.613100999999915
794,24,0.5,0.0,-35.0,1,0.0,12.466801000000032
795,24,0.5,0.125,35.0,1,1.0,4.3036010000000715
796,24,0.5,0.0625,-35.0,-1,1.0,4.097100999999839
797,24,0.5,0.125,35.0,-1,0.0,6.557201999999961
798,24,0.4,0.125,-35.0,-1,1.0,3.504501000000346
799,24,0.5,1.0,35.0,1,1.0,0.4709010000001399
800,24,0.5,0.0,35.0,1,1.0,0.40840199999956894
801,24,0.5,0.0625,35.0,-1,0.0,7.37780100000009
802,24,0.5,0.0625,35.0,1,1.0,2.864600999999766
803,24,0.5,0.0,35.0,-1,0.0,1.8782019999998738
804,24,0.5,0.25,35.0,1,1.0,0.41820099999995364
805,24,0.5,0.0625,-35.0,1,0.0,2.131601000000046
806,24,0.5,0.0625,35.0,1,1.0,3.8423009999996793
807,24,0.5,0.0625,35.0,1,1.0,15.571900999999798
808,24,0.5,0.0625,-35.0,-1,1.0,9.302200999999968
809,24,0.5,1.0,-35.0,-1,1.0,0.28260099999988597
810,24,0.5,0.25,35.0,1,1.0,8.09280200000012
811,24,0.5,1.0,-35.0,-1,1.0,0.2794020000001183
812,24,0.5,0.125,-35.0,-1,1.0,13.772801999999956
813,24,0.5,1.0,35.0,1,1.0,0.6067020000000412
814,24,0.5,0.25,-35.0,-1,1.0,5.8539019999998345
815,24,0.5,0.25,-35.0,-1,1.0,2.4635009999997237
816,24,0.5,1.0,35.0,1,1.0,0.4306010000000242
817,24,0.5,0.0625,-35.0,1,0.0,0.20020199999999022
818,24,0.5,0.125,-35.0,-1,1.0,0.540501000000404
819,24,0.5,0.25,35.0,1,1.0,0.6072009999998045
820,24,0.5,1.0,-35.0,-1,1.0,0.42090200000029654
821,24,0.5,1.0,-35.0,-1,1.0,0.7205020000001241
822,24,0.5,0.25,35.0,-1,0.0,10.79120200000034
823,24,0.5,0.0625,35.0,-1,0.0,7.324301000000105
824,24,0.5,0.0,35.0,-1,0.0,3.011801000000105
825,24,0.5,0.0625,-35.0,-1,1.0,0.6180009999998219
826,24,0.5,0.0625,35.0,-1,0.0,4.134902000000238
827,24,0.5,0.0625,35.0,-1,0.0,0.9716009999997368
828,24,0.5,0.125,-35.0,-1,1.0,7.915401000000202
829,24,0.5,0.125,-35.0,-1,1.0,12.682100999999875
830,24,0.5,0.0625,35.0,1,1.0,8.939701000000241
831,24,0.5,0.25,-35.0,-1,1.0,8.2895010000002
832,24,0.5,0.25,35.0,-1,0.0,9.833801000000221
833,24,0.5,0.0625,35.0,1,1.0,2.1565010000003895
834,24,0.5,0.25,35.0,-1,0.0,19.06060099999968
835,24,0.5,0.0625,-35.0,-1,1.0,0.8305009999999129
836,24,0.5,0.25,35.0,-1,0.0,1.9041009999996277
837,24,0.2,0.25,35.0,-1,0.0,5.964002000000164
838,24,0.5,1.0,35.0,1,1.0,5.7247010000000955
839,24,0.5,0.25,-35.0,-1,1.0,0.21790199999986726
840,24,0.5,0.0,-35.0,-1,1.0,1.6651010000000497
841,24,0.5,1.0,35.0,1,1.0,2.834701000000223
842,24,0.5,1.0,-35.0,-1,1.0,0.332100999999966
843,24,0.5,0.0625,35.0,-1,0.0,6.461501000000226
844,24,0.2,0.0625,35.0,1,1.0,5.635401000000002
845,24,0.5,1.0,-35.0,-1,1.0,0.3653009999998176
846,24,0.5,0.25,35.0,1,1.0,1.35870100000011
847,24,0.5,0.25,35.0,1,1.0,6.135300999999799
848,24,0.5,0.125,35.0,1,1.0,27.099001999999928
849,24,0.5,0.125,35.0,1,1.0,9.746200999999928
850,24,0.5,0.0625,35.0,-1,0.0,7.673401000000013
851,24,0.5,0.125,35.0,-1,0.0,11.73330199999964
852,24,0.5,0.25,35.0,1,1.0,1.6337009999997463
853,24,0.5,0.0625,35.0,1,1.0,8.697001
854,24,0.5,0.0625,35.0,-1,0.0,6.850900999999794
855,24,0.6,0.0625,-35.0,-1,1.0,7.67750199999864
856,24,0.5,1.0,-35.0,-1,1.0,0.32100099999934173
857,24,0.5,1.0,35.0,1,1.0,4.344500999999582
858,24,0.5,0.0,35.0,-1,0.0,6.75800099999924
859,24,0.5,0.25,35.0,1,1.0,4.434800999999425
860,24,0.5,0.125,35.0,1,1.0,2.5351009999985763
861,24,0.5,0.0,-35.0,-1,1.0,15.07510099999945
862,24,0.5,0.125,-35.0,-1,1.0,0.3722010000001319
863,24,0.5,0.0625,35.0,-1,0.0,0.33900099999937083
864,24,0.5,0.0625,-35.0,-1,1.0,3.312500999999429
865,24,0.5,0.25,35.0,-1,0.0,33.3525010000003
866,24,0.5,0.25,35.0,-1,0.0,7.503200999999535
867,24,0.3,0.25,35.0,-1,0.0,13.63010099999974
868,24,0.5,1.0,-35.0,-1,1.0,0.27410199999849283
869,24,0.5,1.0,-35.0,-1,1.0,2.337200999999368
870,24,0.5,1.0,35.0,1,1.0,0.9810009999991962
871,24,0.5,0.125,-35.0,-1,1.0,5.0240009999988615
872,24,0.5,1.0,35.0,1,1.0,2.037701999998717
873,24,0.5,0.0,-35.0,-1,1.0,3.52100099999916
874,24,0.5,0.25,-35.0,-1,1.0,1.5413010000002032
875,24,0.5,0.0,35.0,-1,0.0,6.337900999999874
876,24,0.5,0.125,35.0,-1,0.0,0.538300999999592
877,24,0.5,0.25,-35.0,-1,1.0,0.8949009999987538
878,24,0.5,0.0625,-35.0,-1,1.0,3.138300999999956
879,24,0.5,0.25,-35.0,-1,1.0,1.1051009999991948
880,24,0.5,0.0625,-35.0,-1,1.0,11.399100999999064
881,24,0.5,0.0,-35.0,-1,1.0,4.398900999999569
882,24,0.5,1.0,-35.0,-1,1.0,0.6226010000000315
883,24,0.5,0.25,-35.0,-1,1.0,1.689300999999432
884,24,0.5,0.25,-35.0,-1,1.0,0.21610099999998056
