trial_num,session_num,stim_probability_left,contrast,position,response_choice,trial_correct,reaction_time
1,1,0.5,0.25,35.0,1,1.0,0.2565999999999997
2,1,0.5,0.25,35.0,1,1.0,0.5297999999999998
3,1,0.5,0.25,-35.0,-1,1.0,0.8745000000000012
4,1,0.5,0.25,-35.0,-1,1.0,0.758700000000001
5,1,0.5,1.0,35.0,1,1.0,0.5039999999999978
6,1,0.5,0.125,35.0,1,1.0,0.8855000000000004
7,1,0.5,0.25,-35.0,-1,1.0,0.3736999999999995
8,1,0.5,1.0,-35.0,-1,1.0,0.29939999999999856
9,1,0.5,0.125,35.0,1,1.0,1.5244
10,1,0.5,0.125,35.0,1,1.0,0.49730000000000274
11,1,0.5,0.125,35.0,1,1.0,0.8095999999999961
12,1,0.5,0.25,-35.0,-1,1.0,0.19590000000000174
13,1,0.5,0.0,35.0,-1,0.0,4.0538000000000025
14,1,0.5,0.125,35.0,1,1.0,0.34509999999998797
15,1,0.5,0.0,-35.0,-1,1.0,2.406499999999994
16,1,0.5,0.0625,35.0,1,1.0,0.3125999999999891
17,1,0.5,0.25,-35.0,-1,1.0,0.30879999999999086
18,1,0.5,0.125,35.0,1,1.0,0.27249999999999375
19,1,0.5,0.125,-35.0,-1,1.0,0.2639000000000067
20,1,0.5,1.0,-35.0,-1,1.0,0.9240999999999957
21,1,0.5,0.25,-35.0,-1,1.0,0.3614999999999924
22,1,0.5,0.125,-35.0,1,0.0,0.16499999999999204
23,1,0.5,1.0,-35.0,-1,1.0,0.2866999999999962
24,1,0.5,1.0,35.0,1,1.0,0.2570999999999941
25,1,0.5,1.0,35.0,1,1.0,0.33329999999999416
26,1,0.5,0.0625,35.0,-1,0.0,0.22350000000000136
27,1,0.5,0.25,35.0,1,1.0,0.2557999999999936
28,1,0.5,0.25,35.0,1,1.0,0.3124999999999858
29,1,0.5,0.0625,-35.0,1,0.0,1.0608999999999895
30,1,0.5,0.0625,35.0,1,1.0,0.671400000000034
31,1,0.5,0.0625,-35.0,-1,1.0,0.14979999999999905
32,1,0.5,1.0,35.0,1,1.0,0.22919999999999163
33,1,0.5,0.25,35.0,1,1.0,0.4601000000000113
34,1,0.5,0.25,-35.0,-1,1.0,0.7732999999999777
35,1,0.5,1.0,-35.0,-1,1.0,0.1541000000000281
36,1,0.5,0.125,35.0,1,1.0,0.3318000000000154
37,1,0.5,1.0,-35.0,-1,1.0,0.5509000000000128
38,1,0.5,1.0,35.0,1,1.0,0.27180000000001314
39,1,0.5,1.0,35.0,1,1.0,0.17379999999999995
40,1,0.5,0.125,35.0,1,1.0,4.438900000000018
41,1,0.5,0.0625,35.0,-1,0.0,2.3228000000000293
42,1,0.5,0.0,-35.0,1,0.0,0.9380999999999915
43,1,0.5,0.0625,-35.0,1,0.0,0.4730000000000132
44,1,0.5,0.0,-35.0,-1,1.0,1.6595000000000084
45,1,0.5,0.125,35.0,-1,0.0,1.9897000000000276
46,1,0.5,0.125,-35.0,-1,1.0,0.33310000000000173
47,1,0.5,0.0625,-35.0,-1,1.0,0.2039000000000044
48,1,0.5,0.25,-35.0,-1,1.0,0.2827000000000055
49,1,0.5,0.25,35.0,1,1.0,0.27479999999999905
50,1,0.5,0.25,35.0,1,1.0,0.7600999999999942
51,1,0.5,0.25,35.0,-1,0.0,0.09090000000000487
52,1,0.5,0.0625,35.0,1,1.0,0.3608999999999867
53,1,0.5,0.125,35.0,1,1.0,0.2616999999999905
54,1,0.5,0.125,-35.0,-1,1.0,0.7289000000000101
55,1,0.5,0.0625,-35.0,1,0.0,0.39910000000003265
56,1,0.5,0.0625,35.0,1,1.0,0.3351999999999862
57,1,0.5,0.25,35.0,1,1.0,0.33680000000001087
58,1,0.5,1.0,35.0,1,1.0,0.28410000000002356
59,1,0.5,0.125,-35.0,-1,1.0,0.27540000000001896
60,1,0.5,0.25,35.0,1,1.0,0.2891999999999939
61,1,0.5,0.0625,35.0,1,1.0,0.37180000000000746
62,1,0.5,0.25,-35.0,-1,1.0,0.6903000000000077
63,1,0.5,0.25,35.0,1,1.0,0.44640000000001123
64,1,0.5,0.0625,-35.0,-1,1.0,0.23680000000001655
65,1,0.5,0.0625,-35.0,-1,1.0,0.17669999999998254
66,1,0.5,0.0,-35.0,-1,1.0,1.9307000000000016
67,1,0.5,0.125,35.0,-1,0.0,0.21619999999995798
68,1,0.5,1.0,-35.0,-1,1.0,0.2515000000000214
69,1,0.5,0.125,-35.0,-1,1.0,0.5197000000000003
70,1,0.5,0.125,35.0,1,1.0,0.30400000000003047
71,1,0.5,0.25,35.0,1,1.0,0.367999999999995
72,1,0.5,0.25,35.0,1,1.0,0.23650000000003502
73,1,0.5,0.0625,-35.0,-1,1.0,0.355199999999968
74,1,0.5,0.125,35.0,1,1.0,0.5347000000000435
75,1,0.5,1.0,-35.0,-1,1.0,0.45729999999997517
76,1,0.5,0.25,-35.0,-1,1.0,0.991299999999967
77,1,0.5,0.25,35.0,1,1.0,0.5175000000000409
78,1,0.5,0.125,35.0,1,1.0,0.30819999999999936
79,1,0.5,1.0,35.0,1,1.0,0.49569999999999936
80,1,0.5,0.0,-35.0,1,0.0,0.32200000000000273
81,1,0.5,0.25,35.0,1,1.0,0.3543000000000234
82,1,0.5,0.125,35.0,1,1.0,0.4555989999999497
83,1,0.5,0.0625,-35.0,-1,1.0,0.5287000000000148
84,1,0.5,1.0,-35.0,-1,1.0,0.26729999999997744
85,1,0.5,0.0625,-35.0,1,0.0,1.8731999999999402
86,1,0.5,0.125,-35.0,-1,1.0,0.2448999999999728
87,1,0.5,0.25,-35.0,-1,1.0,0.23449999999996862
88,1,0.5,0.0,-35.0,-1,1.0,4.57710000000003
89,1,0.5,1.0,-35.0,-1,1.0,0.30049999999999955
90,1,0.5,0.0625,-35.0,-1,1.0,0.983600000000024
91,1,0.2,1.0,35.0,1,1.0,0.25729999999998654
92,1,0.2,0.125,-35.0,-1,1.0,0.08310000000000173
93,1,0.2,0.0625,35.0,1,1.0,0.8984999999999559
94,1,0.2,0.0,35.0,-1,0.0,0.8404999999999632
95,1,0.2,1.0,-35.0,-1,1.0,0.19990000000001373
96,1,0.2,0.25,35.0,1,1.0,2.1872999999999934
97,1,0.2,0.0625,35.0,-1,0.0,0.6293999999999755
98,1,0.2,0.0,35.0,-1,0.0,1.0353999999999814
99,1,0.2,0.125,35.0,1,1.0,0.46359999999998536
100,1,0.2,0.0,35.0,-1,0.0,0.315400000000011
101,1,0.2,0.25,35.0,1,1.0,0.2939999999999827
102,1,0.2,0.0,35.0,1,1.0,3.2573999999999614
103,1,0.2,0.125,-35.0,-1,1.0,0.25319999999999254
104,1,0.2,1.0,35.0,1,1.0,0.19129999999995562
105,1,0.2,0.25,-35.0,-1,1.0,0.8077999999999861
106,1,0.2,0.0625,35.0,1,1.0,0.3339000000000283
107,1,0.2,0.0625,35.0,1,1.0,1.6826000000000363
108,1,0.2,1.0,35.0,1,1.0,0.2896999999999821
109,1,0.2,0.125,35.0,1,1.0,0.3453999999999269
110,1,0.2,0.125,35.0,1,1.0,0.33379999999999654
111,1,0.2,0.0,-35.0,1,0.0,0.4434999999999718
112,1,0.2,0.0,35.0,1,1.0,1.7892999999999688
113,1,0.2,0.25,35.0,1,1.0,0.34140000000002146
114,1,0.2,0.0625,35.0,1,1.0,0.6704999999999472
115,1,0.2,0.25,35.0,1,1.0,0.25490000000002055
116,1,0.2,0.125,35.0,1,1.0,0.3491000000000213
117,1,0.2,1.0,-35.0,-1,1.0,0.5611999999999853
118,1,0.2,0.0,-35.0,1,0.0,1.5568999999999846
119,1,0.2,0.0625,35.0,1,1.0,0.453899999999976
120,1,0.2,0.25,35.0,1,1.0,0.24339999999995143
121,1,0.2,0.125,35.0,1,1.0,3.273399999999981
122,1,0.2,0.125,-35.0,-1,1.0,0.44180000000000064
123,1,0.2,0.25,35.0,1,1.0,0.30160000000000764
124,1,0.2,0.125,35.0,1,1.0,0.39220000000000255
125,1,0.2,0.0625,35.0,1,1.0,1.3256999999999834
126,1,0.2,0.25,35.0,1,1.0,0.3550999999999931
127,1,0.2,0.0,-35.0,1,0.0,0.4408999999999992
128,1,0.2,0.0625,35.0,1,1.0,0.5366999999999962
129,1,0.2,0.125,35.0,1,1.0,3.2276999999999703
130,1,0.2,0.0625,35.0,1,1.0,1.879099999999994
131,1,0.8,0.25,-35.0,-1,1.0,0.31469999999995935
132,1,0.8,0.125,-35.0,-1,1.0,0.25300000000004275
133,1,0.8,1.0,35.0,1,1.0,0.2939999999999827
134,1,0.8,0.0,-35.0,-1,1.0,0.22030000000006567
135,1,0.8,0.0,-35.0,1,0.0,0.12990000000002055
136,1,0.8,0.0625,-35.0,-1,1.0,0.4453999999999496
137,1,0.8,0.25,35.0,1,1.0,0.3226999999999407
138,1,0.8,0.25,-35.0,-1,1.0,0.4996999999999616
139,1,0.8,0.125,35.0,1,1.0,3.912001000000032
140,1,0.8,0.125,-35.0,-1,1.0,0.479300999999964
141,1,0.8,0.125,-35.0,1,0.0,1.6474009999999453
142,1,0.8,0.0,-35.0,-1,1.0,0.6532009999999673
143,1,0.8,1.0,-35.0,-1,1.0,0.17010100000004513
144,1,0.8,0.0625,-35.0,-1,1.0,0.3529009999999744
145,1,0.8,0.0,-35.0,-1,1.0,2.427500999999893
146,1,0.8,0.0,-35.0,-1,1.0,0.6713009999999713
147,1,0.8,0.125,-35.0,-1,1.0,0.26240099999995437
148,1,0.8,0.125,-35.0,-1,1.0,0.1973009999999249
149,1,0.8,0.0,35.0,1,1.0,0.43160100000000057
150,1,0.8,0.25,-35.0,-1,1.0,0.3037010000000464
151,1,0.8,0.0625,-35.0,-1,1.0,0.21180099999992308
152,1,0.8,0.0625,-35.0,-1,1.0,0.4993010000000595
153,1,0.8,0.0625,-35.0,-1,1.0,0.6384010000000444
154,1,0.2,0.0625,35.0,-1,0.0,0.4072009999999864
155,1,0.2,0.25,35.0,1,1.0,0.31070100000010825
156,1,0.2,0.25,35.0,1,1.0,0.43370099999992817
157,1,0.2,0.25,35.0,1,1.0,0.3197010000000091
158,1,0.2,0.0,35.0,1,1.0,0.4529009999999971
159,1,0.2,0.0625,35.0,1,1.0,0.5841009999999187
160,1,0.2,1.0,35.0,1,1.0,0.5027010000000018
161,1,0.2,0.25,35.0,1,1.0,0.6731009999999742
162,1,0.2,0.25,35.0,1,1.0,1.6736009999999624
163,1,0.2,0.125,35.0,-1,0.0,0.16220099999998183
164,1,0.2,1.0,35.0,1,1.0,0.3223009999999249
165,1,0.2,0.0,35.0,1,1.0,2.254600999999866
166,1,0.2,0.0625,-35.0,-1,1.0,0.2723009999999704
167,1,0.2,0.25,35.0,1,1.0,0.47870100000000093
168,1,0.2,1.0,-35.0,-1,1.0,0.6554009999999835
169,1,0.2,0.25,35.0,-1,0.0,0.17580099999986487
170,1,0.2,1.0,35.0,1,1.0,0.3971010000000206
171,1,0.2,0.0625,35.0,1,1.0,0.41570099999989907
172,1,0.2,0.0,35.0,1,1.0,0.1548009999999067
173,1,0.2,1.0,35.0,1,1.0,0.28120100000001
174,1,0.2,0.0625,35.0,1,1.0,0.4183010000000422
175,1,0.2,1.0,-35.0,-1,1.0,0.18150100000002567
176,1,0.2,0.0625,35.0,1,1.0,0.8665009999999711
177,1,0.2,0.25,35.0,1,1.0,0.24680100000000493
178,1,0.2,0.0,35.0,-1,0.0,0.2139999999999418
179,1,0.2,0.25,35.0,1,1.0,0.36930099999995036
180,1,0.2,0.0625,35.0,1,1.0,2.177201000000082
181,1,0.2,1.0,-35.0,-1,1.0,0.4509009999999307
182,1,0.2,0.0,35.0,1,1.0,0.27120099999990543
183,1,0.2,0.125,-35.0,-1,1.0,0.25430099999994127
184,1,0.2,0.125,35.0,1,1.0,0.3969009999999571
185,1,0.2,0.0625,35.0,1,1.0,0.9387009999999236
186,1,0.2,1.0,35.0,1,1.0,0.29880100000002585
187,1,0.2,0.25,35.0,1,1.0,0.6787009999999327
188,1,0.2,0.0,-35.0,-1,1.0,0.8496010000000069
189,1,0.2,1.0,35.0,-1,0.0,0.5697010000000091
190,1,0.2,1.0,-35.0,-1,1.0,0.23390099999994618
191,1,0.2,1.0,35.0,1,1.0,0.35930100000007315
192,1,0.2,0.25,-35.0,-1,1.0,0.22290099999997892
193,1,0.2,0.0,35.0,-1,0.0,0.8207009999999855
194,1,0.2,0.0,-35.0,-1,1.0,0.5482009999999491
195,1,0.2,1.0,35.0,1,1.0,0.5032010000001037
196,1,0.2,0.125,-35.0,-1,1.0,0.270300999999904
197,1,0.2,0.0,35.0,-1,0.0,0.34970099999986815
198,1,0.2,0.0625,35.0,1,1.0,0.4126009999999951
199,1,0.2,0.0625,35.0,1,1.0,2.111301000000026
200,1,0.2,0.25,-35.0,-1,1.0,0.7892009999999345
201,1,0.2,1.0,-35.0,-1,1.0,0.5661010000000033
202,1,0.2,0.0625,35.0,1,1.0,2.979400999999939
203,1,0.2,0.25,35.0,1,1.0,0.40390100000001894
204,1,0.2,0.125,35.0,1,1.0,1.4129009999999198
205,1,0.2,0.125,-35.0,-1,1.0,0.49240099999997256
206,1,0.2,1.0,35.0,1,1.0,0.24820099999988088
207,1,0.2,0.0,-35.0,-1,1.0,0.25090099999999893
208,1,0.2,0.0625,-35.0,-1,1.0,0.189000999999962
209,1,0.2,0.25,35.0,1,1.0,0.2760010000000648
210,1,0.2,1.0,-35.0,-1,1.0,0.2314010000000053
211,1,0.8,0.125,-35.0,-1,1.0,0.42200100000002294
212,1,0.8,1.0,-35.0,-1,1.0,0.43600099999991926
213,1,0.8,1.0,-35.0,-1,1.0,0.5570000000000164
214,1,0.8,1.0,-35.0,-1,1.0,0.2761010000000397
215,1,0.8,1.0,-35.0,-1,1.0,0.4574010000000044
216,1,0.8,0.125,-35.0,-1,1.0,0.6214009999999917
217,1,0.8,0.125,35.0,1,1.0,0.06770099999994272
218,1,0.8,1.0,-35.0,-1,1.0,0.15120100000001457
219,1,0.8,1.0,-35.0,-1,1.0,0.4472010000000637
220,1,0.8,0.25,-35.0,-1,1.0,0.2677009999999882
221,1,0.8,0.25,35.0,-1,0.0,0.22210099999995236
222,1,0.8,0.0625,-35.0,-1,1.0,0.5112010000000282
223,1,0.8,1.0,35.0,1,1.0,1.6343010000000504
224,1,0.8,0.0625,-35.0,-1,1.0,0.36340100000006714
225,1,0.8,1.0,-35.0,-1,1.0,0.4348009999999931
226,1,0.8,0.0625,-35.0,-1,1.0,0.3322010000000546
227,1,0.8,0.0625,35.0,1,1.0,0.6176009999999224
228,1,0.8,0.25,-35.0,-1,1.0,0.2014009999999189
229,1,0.8,0.0,-35.0,-1,1.0,2.413400999999908
230,1,0.8,1.0,-35.0,-1,1.0,0.23070099999995364
231,1,0.8,0.25,-35.0,-1,1.0,0.40520099999992
232,1,0.8,1.0,-35.0,-1,1.0,0.24990100000002258
233,1,0.8,1.0,-35.0,-1,1.0,0.2784009999999171
234,1,0.8,0.25,-35.0,-1,1.0,0.4005009999999629
235,1,0.8,1.0,-35.0,-1,1.0,0.6459009999999807
236,1,0.8,1.0,35.0,1,1.0,0.4871009999999387
237,1,0.8,0.0625,35.0,-1,0.0,0.7759009999999762
238,1,0.8,0.125,-35.0,-1,1.0,0.2603009999999131
239,1,0.8,1.0,-35.0,-1,1.0,0.42200100000002294
240,1,0.8,0.0625,35.0,1,1.0,0.40370100000006914
241,1,0.8,0.25,-35.0,-1,1.0,0.34580099999993763
242,1,0.8,0.125,-35.0,-1,1.0,0.2680010000000266
243,1,0.8,1.0,-35.0,-1,1.0,0.2170010000000957
244,1,0.8,0.25,35.0,1,1.0,0.47210099999995236
245,1,0.8,1.0,-35.0,-1,1.0,0.3299010000000635
246,1,0.8,0.0625,-35.0,1,0.0,2.3493009999999686
247,1,0.8,0.25,35.0,1,1.0,0.4286010000000715
248,1,0.8,1.0,-35.0,-1,1.0,0.2458009999999149
249,1,0.8,0.25,35.0,-1,0.0,3.083900999999969
250,1,0.8,0.25,35.0,1,1.0,0.3549009999999271
251,1,0.8,1.0,-35.0,-1,1.0,0.20290099999988342
252,1,0.8,1.0,-35.0,-1,1.0,0.23270100000002003
253,1,0.8,0.0625,35.0,-1,0.0,1.9307009999999991
254,1,0.8,0.25,-35.0,-1,1.0,0.6165009999999711
255,1,0.2,1.0,35.0,1,1.0,0.374100999999996
256,1,0.2,0.25,-35.0,-1,1.0,0.37350100000003295
257,1,0.2,0.0625,35.0,1,1.0,0.3073010000000522
258,1,0.2,0.25,-35.0,-1,1.0,0.677400999999918
259,1,0.2,0.0625,-35.0,1,0.0,0.9087009999999509
260,1,0.2,0.25,35.0,1,1.0,0.5117010000000164
261,1,0.2,0.0625,35.0,1,1.0,0.48020100000007915
262,1,0.2,1.0,35.0,1,1.0,0.283600999999976
263,1,0.2,0.0625,-35.0,-1,1.0,0.3237010000000282
264,1,0.2,0.25,35.0,1,1.0,0.630600999999956
265,1,0.2,0.25,35.0,1,1.0,0.3440009999999347
266,1,0.2,0.125,35.0,1,1.0,0.39740100000005896
267,1,0.2,0.0625,35.0,-1,0.0,0.23070100000006732
268,1,0.2,1.0,-35.0,-1,1.0,0.6209010000000035
269,1,0.2,1.0,35.0,1,1.0,0.30090099999983977
270,1,0.2,0.0625,35.0,1,1.0,0.3644010000000435
271,1,0.2,0.25,35.0,1,1.0,0.4011000000000422
272,1,0.2,0.125,35.0,1,1.0,0.4512010000000828
273,1,0.2,0.125,35.0,1,1.0,0.3812009999999191
274,1,0.2,1.0,35.0,1,1.0,0.6847010000001319
275,1,0.2,0.25,35.0,1,1.0,0.7215010000002167
276,1,0.2,0.25,-35.0,-1,1.0,1.4716009999999642
277,1,0.2,0.0625,35.0,1,1.0,0.4650010000002567
278,1,0.2,0.0625,35.0,1,1.0,-0.03489899999976842
279,1,0.2,0.125,-35.0,-1,1.0,0.8619010000002163
280,1,0.2,0.0,-35.0,1,0.0,0.45200100000010934
281,1,0.2,0.0625,35.0,-1,0.0,0.2920010000000275
282,1,0.2,1.0,-35.0,-1,1.0,0.26220100000000457
283,1,0.2,0.0,35.0,-1,0.0,5.712301000000252
284,1,0.2,1.0,35.0,1,1.0,0.3959010000000944
285,1,0.2,1.0,35.0,1,1.0,0.35260100000027705
286,1,0.2,0.125,-35.0,-1,1.0,0.5727010000000519
287,1,0.2,0.25,35.0,1,1.0,0.21600100000023303
288,1,0.2,0.125,35.0,1,1.0,0.5062010000001465
289,1,0.2,1.0,35.0,1,1.0,0.3096009999999296
290,1,0.2,0.0625,-35.0,1,0.0,0.3397010000001046
291,1,0.2,0.0625,35.0,1,1.0,0.553101000000197
292,1,0.2,1.0,35.0,1,1.0,0.3598010000000613
293,1,0.2,0.25,35.0,1,1.0,1.4632010000002538
294,1,0.2,0.0625,35.0,1,1.0,0.6001010000002225
295,1,0.2,0.125,35.0,1,1.0,0.5735010000000784
296,1,0.2,0.25,35.0,1,1.0,0.34360100000003513
297,1,0.2,0.25,35.0,1,1.0,0.37380099999995764
298,1,0.2,1.0,-35.0,-1,1.0,0.443800999999894
299,1,0.2,1.0,35.0,1,1.0,0.23050100000000384
300,1,0.2,0.25,35.0,-1,0.0,0.2006010000002334
301,1,0.2,0.25,35.0,1,1.0,0.4241010000002916
302,1,0.2,0.25,35.0,1,1.0,0.33080100000029233
303,1,0.2,0.125,-35.0,-1,1.0,0.7876009999999951
304,1,0.2,0.25,-35.0,-1,1.0,0.6678010000002814
305,1,0.2,0.0625,35.0,1,1.0,2.807701000000179
306,1,0.2,0.25,35.0,1,1.0,0.48450100000013663
307,1,0.2,0.0625,35.0,1,1.0,0.19800099999997656
308,1,0.2,1.0,-35.0,-1,1.0,0.3081009999998514
309,1,0.2,1.0,35.0,1,1.0,0.19490100000029997
310,1,0.2,0.25,35.0,1,1.0,0.8084010000000035
311,1,0.2,0.125,35.0,1,1.0,0.4384010000001126
312,1,0.2,0.0,35.0,1,1.0,0.5818010000000413
313,1,0.2,0.125,35.0,1,1.0,0.378601000000117
314,1,0.2,0.0,35.0,-1,0.0,0.6753010000002178
315,1,0.2,0.125,35.0,1,1.0,0.33880100000010316
316,1,0.2,0.125,35.0,1,1.0,0.5421010000002298
317,1,0.2,0.125,35.0,-1,0.0,0.5655010000002676
318,1,0.2,0.0625,35.0,1,1.0,0.5824009999998907
319,1,0.2,0.125,35.0,1,1.0,0.9525010000002112
320,1,0.2,0.0,35.0,1,1.0,0.3926010000000133
321,1,0.2,0.0625,35.0,1,1.0,2.826001000000133
322,1,0.2,0.125,35.0,1,1.0,1.2195010000000366
323,1,0.2,1.0,35.0,1,1.0,0.4530010000000857
324,1,0.2,0.0625,35.0,1,1.0,1.5530010000002221
325,1,0.2,1.0,35.0,1,1.0,0.2899010000000999
326,1,0.2,0.25,35.0,1,1.0,0.6266010000001643
327,1,0.2,0.0625,35.0,1,1.0,0.233400999999958
328,1,0.2,0.125,35.0,1,1.0,0.3435010000002876
329,1,0.2,0.25,35.0,1,1.0,0.4168010000000777
330,1,0.2,0.25,-35.0,-1,1.0,0.2603009999997994
331,1,0.2,0.0625,35.0,1,1.0,0.46370100000012826
332,1,0.2,0.25,35.0,1,1.0,0.4871010000001661
333,1,0.2,0.25,35.0,1,1.0,0.5239010000002509
334,1,0.2,0.0625,35.0,1,1.0,0.4040010000001075
335,1,0.2,0.0625,-35.0,1,0.0,0.8507010000000719
336,1,0.2,0.125,35.0,1,1.0,0.4209010000001854
337,1,0.2,0.25,-35.0,-1,1.0,0.42760100000009515
338,1,0.8,0.125,35.0,1,1.0,0.9410010000001421
339,1,0.8,0.0,-35.0,1,0.0,0.5046010000000933
340,1,0.8,0.0,-35.0,1,0.0,0.5714010000001508
341,1,0.8,1.0,-35.0,-1,1.0,0.2315009999999802
342,1,0.8,0.25,-35.0,-1,1.0,0.27820100000008097
343,1,0.8,0.25,-35.0,-1,1.0,0.36480100000017046
344,1,0.8,0.0625,-35.0,-1,1.0,2.9650010000000293
345,1,0.8,0.0,-35.0,1,0.0,0.11520100000007005
346,1,0.8,0.25,-35.0,-1,1.0,0.44200100000011844
347,1,0.8,0.25,35.0,1,1.0,0.5253010000001268
348,1,0.8,0.25,-35.0,1,0.0,0.5388010000001486
349,1,0.8,0.25,-35.0,-1,1.0,0.2856010000000424
350,1,0.8,0.125,-35.0,-1,1.0,0.5256010000000515
351,1,0.8,0.0625,-35.0,-1,1.0,0.4992010000000846
352,1,0.8,0.25,-35.0,-1,1.0,0.37250100000028397
353,1,0.8,0.0625,35.0,1,1.0,1.7292010000001028
354,1,0.8,1.0,-35.0,-1,1.0,0.45940100000029815
355,1,0.8,0.0625,35.0,1,1.0,1.179401000000098
356,1,0.8,0.25,-35.0,-1,1.0,0.7828010000000631
357,1,0.8,0.0625,-35.0,-1,1.0,0.22630099999992126
358,1,0.8,0.0,-35.0,1,0.0,0.539801000000125
359,1,0.8,0.0,-35.0,-1,1.0,1.5132010000002083
360,1,0.8,0.125,-35.0,-1,1.0,0.6966010000001006
361,1,0.8,1.0,-35.0,-1,1.0,0.3234010000001035
362,1,0.8,0.25,-35.0,-1,1.0,0.3367009999999482
363,1,0.8,0.0,-35.0,-1,1.0,3.170101000000159
364,1,0.8,0.0,-35.0,-1,1.0,2.467000999999982
365,1,0.8,0.125,-35.0,-1,1.0,0.2638010000000577
366,1,0.8,0.0625,-35.0,-1,1.0,1.1904010000002927
367,1,0.8,0.0625,35.0,-1,0.0,0.06720100000006823
368,1,0.8,0.25,35.0,1,1.0,0.6107010000000628
369,1,0.8,0.0,-35.0,-1,1.0,0.5142010000001846
370,1,0.8,0.125,-35.0,-1,1.0,0.31750099999999293
371,1,0.8,0.0,35.0,-1,0.0,0.3110010000002603
372,1,0.8,0.0,35.0,1,1.0,0.32100100000002385
373,1,0.8,1.0,-35.0,-1,1.0,0.28440100000011626
374,1,0.8,0.0625,-35.0,-1,1.0,0.31790100000034727
375,1,0.8,0.125,-35.0,-1,1.0,0.5379010000001472
376,1,0.8,0.0625,-35.0,-1,1.0,0.4447010000001228
377,1,0.8,1.0,35.0,1,1.0,0.41150100000027123
378,1,0.8,0.125,35.0,-1,0.0,0.5749010000001817
379,1,0.8,1.0,-35.0,-1,1.0,0.3484009999999671
380,1,0.2,1.0,35.0,1,1.0,1.1785010000000966
381,1,0.2,0.125,-35.0,-1,1.0,0.32520100000010643
382,1,0.2,1.0,35.0,1,1.0,0.3554010000002563
383,1,0.2,1.0,35.0,1,1.0,0.25210100000026614
384,1,0.2,0.125,35.0,-1,0.0,0.33880100000010316
385,1,0.2,0.125,-35.0,-1,1.0,0.2856010000002698
386,1,0.2,0.0625,35.0,1,1.0,0.2391010000001188
387,1,0.2,1.0,35.0,1,1.0,0.1625010000002476
388,1,0.2,1.0,35.0,1,1.0,0.37590099999988524
389,1,0.2,0.25,35.0,1,1.0,0.4693009999998594
390,1,0.2,0.125,35.0,1,1.0,1.1026010000000497
391,1,0.2,0.0,35.0,1,1.0,1.7428010000000995
392,1,0.2,0.25,35.0,1,1.0,0.3462010000000646
393,1,0.2,0.25,35.0,1,1.0,0.36970099999984996
394,1,0.2,0.0625,35.0,1,1.0,0.6098010000000613
395,1,0.2,0.125,35.0,1,1.0,0.32660100000020975
396,1,0.2,0.25,-35.0,-1,1.0,0.49000100000012026
397,1,0.2,0.25,35.0,1,1.0,0.3334010000000944
398,1,0.2,0.0625,35.0,-1,0.0,2.2369010000002163
399,1,0.2,1.0,35.0,1,1.0,0.24040100000001985
400,1,0.2,0.125,-35.0,-1,1.0,0.6170009999998456
401,1,0.2,0.125,35.0,1,1.0,2.120501000000104
402,1,0.2,0.0625,35.0,1,1.0,0.41390099999989616
403,1,0.8,0.25,-35.0,-1,1.0,0.714001000000053
404,1,0.8,0.125,-35.0,-1,1.0,0.5308009999998831
405,1,0.8,0.0,-35.0,-1,1.0,0.7275010000003022
406,1,0.8,0.0625,-35.0,-1,1.0,0.7776010000002316
407,1,0.8,1.0,-35.0,-1,1.0,0.23780100000021775
408,1,0.8,0.125,35.0,1,1.0,0.32460100000002967
409,1,0.8,0.25,35.0,1,1.0,0.28450100000009115
410,1,0.8,0.0,-35.0,1,0.0,4.484700999999859
411,1,0.8,0.125,35.0,-1,0.0,0.7315010000002076
412,1,0.8,0.125,-35.0,1,0.0,3.5483010000000377
413,1,0.8,0.25,35.0,1,1.0,0.31510100000014063
414,1,0.8,1.0,-35.0,-1,1.0,0.5853010000002996
415,1,0.8,0.0625,35.0,1,1.0,0.32870100000013736
416,1,0.8,1.0,-35.0,-1,1.0,0.3522010000001501
417,1,0.8,1.0,-35.0,-1,1.0,0.502201000000241
418,1,0.8,1.0,-35.0,-1,1.0,0.25230099999998856
419,1,0.8,0.25,-35.0,-1,1.0,0.39910100000020066
420,1,0.8,0.125,-35.0,-1,1.0,0.7393010000000686
421,1,0.8,0.0625,-35.0,-1,1.0,0.37920099999996637
422,1,0.8,1.0,-35.0,-1,1.0,0.3460010000001148
423,1,0.8,0.0625,-35.0,1,0.0,2.80940099999998
424,1,0.8,0.0625,35.0,1,1.0,0.5031010000000151
425,1,0.8,1.0,-35.0,-1,1.0,0.3030010000002221
426,1,0.8,0.125,-35.0,-1,1.0,0.3165010000000166
427,1,0.8,0.25,-35.0,-1,1.0,0.4365010000001348
428,1,0.8,0.0,-35.0,1,0.0,2.9433010000000195
429,1,0.8,0.0625,-35.0,1,0.0,0.5701010000000224
430,1,0.8,1.0,35.0,1,1.0,0.27030100000001767
431,1,0.8,0.0625,35.0,1,1.0,0.47030100000006314
432,1,0.8,1.0,-35.0,-1,1.0,0.27040099999999256
433,1,0.8,1.0,-35.0,-1,1.0,0.34060100000010607
434,1,0.8,0.125,-35.0,-1,1.0,0.29060100000015154
435,1,0.8,0.0625,-35.0,1,0.0,1.5506010000001424
436,1,0.8,0.0625,35.0,1,1.0,0.8108010000000831
437,1,0.8,1.0,-35.0,-1,1.0,0.210901000000149
438,1,0.8,0.0625,-35.0,-1,1.0,0.784300999999914
439,1,0.8,0.25,-35.0,-1,1.0,0.4143010000000231
440,1,0.8,0.0,-35.0,1,0.0,3.431201000000101
441,1,0.8,0.125,-35.0,-1,1.0,0.3847010000001774
442,1,0.8,0.25,-35.0,-1,1.0,0.37480100000016137
443,1,0.8,0.0625,-35.0,1,0.0,3.4181009999999787
444,1,0.8,0.0625,-35.0,1,0.0,1.1983009999999013
445,1,0.8,0.125,-35.0,-1,1.0,1.2418010000001232
446,1,0.8,0.125,-35.0,-1,1.0,0.8620009999999638
447,1,0.8,1.0,-35.0,-1,1.0,0.7854010000000926
448,1,0.8,0.25,-35.0,-1,1.0,0.6222010000001319
449,1,0.8,0.125,-35.0,-1,1.0,3.4022010000001046
450,1,0.8,0.0,-35.0,1,0.0,0.12230099999987942
451,1,0.8,0.25,-35.0,-1,1.0,0.5325010000001384
452,1,0.8,1.0,35.0,1,1.0,0.3926010000000133
453,1,0.8,0.25,-35.0,-1,1.0,0.5293010000000322
454,1,0.8,1.0,-35.0,-1,1.0,0.40610100000003513
455,1,0.8,0.0,-35.0,1,0.0,6.032901000000038
456,1,0.8,0.125,-35.0,-1,1.0,0.46970100000021375
457,1,0.8,1.0,-35.0,-1,1.0,3.5999010000000453
458,1,0.8,0.0625,35.0,1,1.0,3.276801000000205
459,1,0.8,0.0625,-35.0,1,0.0,1.0302010000000337
460,1,0.8,0.25,-35.0,-1,1.0,0.5070009999999456
461,1,0.8,0.125,35.0,1,1.0,0.6537009999999555
462,1,0.8,0.0,-35.0,1,0.0,2.9072009999999864
463,1,0.2,1.0,35.0,1,1.0,0.45390100000008715
464,1,0.2,1.0,35.0,1,1.0,0.33760099999994964
465,1,0.2,0.0,35.0,1,1.0,0.9443009999999958
466,1,0.2,1.0,35.0,1,1.0,0.3542010000001028
467,1,0.2,0.25,35.0,1,1.0,0.5577010000001792
468,1,0.2,0.125,-35.0,-1,1.0,0.3344009999998434
469,1,0.2,0.0625,35.0,1,1.0,2.711101000000099
470,1,0.2,0.0625,35.0,1,1.0,0.6881009999999605
471,1,0.2,1.0,35.0,1,1.0,0.34130099999993035
472,1,0.2,0.25,35.0,1,1.0,0.4349010000000817
473,1,0.2,0.0,-35.0,1,0.0,0.6849010000000817
474,1,0.2,0.125,35.0,1,1.0,0.358400999999958
475,1,0.2,0.0,35.0,1,1.0,0.05520100000012462
476,1,0.2,0.25,35.0,1,1.0,0.3219010000002527
477,1,0.2,0.0,35.0,1,1.0,0.122101000000157
478,1,0.2,0.25,35.0,1,1.0,0.29880100000013954
479,1,0.2,0.0,35.0,1,1.0,0.362201000000141
480,1,0.2,1.0,35.0,1,1.0,0.34560099999998783
481,1,0.2,0.125,35.0,1,1.0,0.7190009999999347
482,1,0.2,0.0,35.0,1,1.0,0.8091010000000551
483,1,0.2,0.25,-35.0,-1,1.0,0.3627010000000155
484,1,0.2,0.0,35.0,1,1.0,0.5160009999999602
485,1,0.2,0.125,35.0,1,1.0,0.42610100000001694
486,1,0.2,0.25,35.0,1,1.0,0.33300099999996746
487,1,0.2,0.0,-35.0,1,0.0,2.916201000000001
488,1,0.2,1.0,-35.0,-1,1.0,0.3265010000000075
489,1,0.2,0.0,35.0,-1,0.0,0.6366010000003826
490,1,0.2,1.0,35.0,1,1.0,0.4333010000000286
491,1,0.2,0.25,-35.0,-1,1.0,0.6000010000002476
492,1,0.2,0.0,35.0,1,1.0,0.646701000000121
493,1,0.2,0.0625,35.0,1,1.0,4.116900999999871
494,1,0.2,1.0,-35.0,-1,1.0,0.3103009999999813
495,1,0.2,0.0625,35.0,1,1.0,8.097201000000041
496,1,0.8,0.125,35.0,1,1.0,0.5407010000001264
497,1,0.8,0.25,-35.0,-1,1.0,0.3642010000000937
498,1,0.8,0.25,-35.0,-1,1.0,1.4644009999999525
499,1,0.8,0.25,-35.0,-1,1.0,1.0243010000001505
500,1,0.8,1.0,35.0,1,1.0,0.40780100000006314
501,1,0.8,1.0,35.0,1,1.0,0.41780100000005405
502,1,0.8,0.125,35.0,1,1.0,0.34140099999990525
503,1,0.8,0.25,-35.0,-1,1.0,0.7048009999998612
504,1,0.8,1.0,-35.0,-1,1.0,0.36150100000008933
505,1,0.8,0.125,-35.0,-1,1.0,2.704901000000291
506,1,0.8,1.0,-35.0,-1,1.0,0.33850100000017846
507,1,0.8,0.125,-35.0,1,0.0,2.618500999999924
508,1,0.8,0.0625,35.0,1,1.0,0.8753010000000359
509,1,0.8,0.0625,35.0,1,1.0,3.2556010000000697
510,1,0.8,0.0625,35.0,1,1.0,0.26230100000020684
511,1,0.8,0.0,-35.0,1,0.0,0.24570100000005368
512,1,0.8,0.0,-35.0,1,0.0,1.3558009999999285
513,1,0.8,0.0625,-35.0,1,0.0,4.159200999999939
514,1,0.8,0.25,35.0,1,1.0,0.542801000000054
515,1,0.8,0.125,-35.0,-1,1.0,0.6395010000003367
516,1,0.8,0.0625,35.0,1,1.0,0.36300100000016755
517,1,0.8,0.25,-35.0,-1,1.0,0.889801000000034
518,1,0.8,1.0,35.0,1,1.0,0.3699010000000271
519,1,0.8,0.125,-35.0,-1,1.0,0.9566010000000915
520,1,0.8,1.0,-35.0,-1,1.0,5.590001000000029
521,1,0.8,0.25,-35.0,-1,1.0,1.086001000000124
522,1,0.8,0.25,-35.0,-1,1.0,2.3035010000000966
523,1,0.8,0.125,-35.0,-1,1.0,0.7240010000002712
524,1,0.8,1.0,-35.0,-1,1.0,0.4067010000001119
525,1,0.8,0.0625,-35.0,-1,1.0,0.7671010000001388
526,1,0.8,0.0,-35.0,1,0.0,0.4569010000000162
527,1,0.8,0.0,35.0,-1,0.0,0.5572010000000773
528,1,0.8,1.0,-35.0,-1,1.0,0.28040099999998347
529,1,0.8,0.125,-35.0,-1,1.0,0.32750099999998383
530,1,0.8,0.25,-35.0,-1,1.0,0.2638010000000577
531,1,0.8,1.0,35.0,1,1.0,0.2973010000000613
532,1,0.8,1.0,35.0,1,1.0,0.2981009999998605
533,1,0.8,0.0,-35.0,-1,1.0,0.9378010000000359
534,1,0.8,1.0,35.0,1,1.0,0.2281010000006063
535,1,0.8,1.0,-35.0,-1,1.0,0.35100099999999657
536,1,0.8,0.0625,-35.0,-1,1.0,2.428200999999717
537,1,0.8,1.0,-35.0,-1,1.0,0.23500100000046587
538,1,0.8,0.125,-35.0,-1,1.0,0.4517009999999573
539,1,0.8,1.0,-35.0,-1,1.0,0.288101000000097
540,1,0.8,0.25,-35.0,-1,1.0,0.5321009999997841
541,1,0.8,0.25,-35.0,-1,1.0,0.3483009999999922
542,1,0.8,0.0,-35.0,1,0.0,0.35510100000010425
543,1,0.8,0.125,-35.0,-1,1.0,2.521900999999616
544,1,0.8,0.125,-35.0,-1,1.0,0.2756009999998241
545,1,0.8,0.125,-35.0,-1,1.0,0.2585010000002512
546,1,0.8,0.125,35.0,-1,0.0,0.42540100000042
547,1,0.8,0.0625,-35.0,-1,1.0,1.158701000000292
548,1,0.8,0.125,-35.0,-1,1.0,0.6491009999999733
549,1,0.8,0.25,-35.0,-1,1.0,0.2296010000000024
550,1,0.8,1.0,-35.0,-1,1.0,0.44300099999964004
551,1,0.8,0.0625,-35.0,-1,1.0,4.012601000000359
552,1,0.8,0.125,-35.0,-1,1.0,0.3829009999999471
553,1,0.8,0.0,35.0,1,1.0,0.6732010000000628
554,1,0.8,0.0,35.0,-1,0.0,2.5664010000000417
555,1,0.8,0.25,-35.0,-1,1.0,2.7963010000003123
556,1,0.8,1.0,-35.0,-1,1.0,0.36660100000017337
557,1,0.8,1.0,35.0,1,1.0,0.13340100000004895
558,1,0.8,0.25,-35.0,-1,1.0,0.5466010000004644
559,1,0.8,0.0,-35.0,1,0.0,0.42020099999990634
560,1,0.8,1.0,-35.0,-1,1.0,0.3437010000002374
561,1,0.8,1.0,-35.0,-1,1.0,0.2903010000004542
562,1,0.8,0.25,-35.0,-1,1.0,4.213600999999926
563,1,0.8,1.0,-35.0,-1,1.0,0.3072010000005321
564,1,0.8,0.25,35.0,1,1.0,0.46430099999997765
565,1,0.8,0.125,-35.0,1,0.0,0.48750100000052043
566,1,0.8,0.25,-35.0,-1,1.0,1.5977010000001428
567,1,0.8,0.125,-35.0,-1,1.0,0.44790100000000166
568,1,0.8,0.125,-35.0,-1,1.0,0.6413010000001123
569,1,0.8,0.0,-35.0,-1,1.0,7.525101000000177
570,1,0.2,0.0625,35.0,1,1.0,0.4715009999999893
571,1,0.2,1.0,35.0,1,1.0,0.40150100000028033
572,1,0.2,1.0,35.0,1,1.0,0.15510100000028615
573,1,0.2,1.0,-35.0,-1,1.0,0.3518010000002505
574,1,0.2,0.0,35.0,1,1.0,0.5551009999999224
575,1,0.2,0.0625,-35.0,-1,1.0,4.462101000000075
576,1,0.2,1.0,35.0,1,1.0,0.33890100000007806
577,1,0.2,1.0,35.0,1,1.0,0.3620009999999638
578,1,0.2,0.0,35.0,1,1.0,6.0590009999996255
579,1,0.2,1.0,35.0,1,1.0,0.6589010000002418
580,1,0.2,1.0,-35.0,-1,1.0,0.4491010000001552
581,1,0.2,0.0625,35.0,1,1.0,5.486101000000417
582,1,0.2,0.0,-35.0,-1,1.0,2.8926010000000133
583,1,0.2,0.0625,35.0,-1,0.0,1.986301000000367
584,1,0.2,0.125,-35.0,-1,1.0,1.5166009999998096
585,1,0.2,0.0625,35.0,1,1.0,4.760101000000304
586,1,0.2,0.0,-35.0,-1,1.0,2.9602010000003247
587,1,0.2,0.0625,-35.0,-1,1.0,2.9770009999997455
588,1,0.2,0.125,35.0,-1,0.0,3.713901000000078
589,1,0.2,1.0,35.0,1,1.0,0.3273010000002614
590,1,0.2,0.25,35.0,1,1.0,0.09420099999988452
591,1,0.2,0.0625,35.0,1,1.0,3.7943010000003596
592,1,0.2,0.125,35.0,1,1.0,1.4878010000002178
593,1,0.2,0.0625,-35.0,-1,1.0,8.158000999999786
594,1,0.2,0.125,35.0,1,1.0,8.25130100000024
595,1,0.2,0.0,-35.0,-1,1.0,2.498601000000235
596,1,0.2,0.25,35.0,1,1.0,1.4354010000006383
597,1,0.2,0.0625,35.0,1,1.0,5.282701000000088
598,1,0.2,1.0,35.0,1,1.0,0.3764009999999871
1,2,0.5,0.25,35.0,1,1.0,0.7447000000000001
2,2,0.5,0.0625,35.0,1,1.0,0.5367000000000006
3,2,0.5,1.0,-35.0,-1,1.0,0.5175999999999981
4,2,0.5,1.0,35.0,1,1.0,0.29659999999999975
5,2,0.5,0.25,35.0,1,1.0,0.7723000000000013
6,2,0.5,0.0625,-35.0,1,0.0,0.7789000000000037
7,2,0.5,0.0625,35.0,-1,0.0,0.3765000000000036
8,2,0.5,0.0625,-35.0,-1,1.0,0.4756
9,2,0.5,0.0625,-35.0,1,0.0,8.455200000000005
10,2,0.5,1.0,35.0,1,1.0,0.6474000000000046
11,2,0.5,0.0,35.0,-1,0.0,8.031800000000004
12,2,0.5,1.0,-35.0,-1,1.0,0.2732000000000028
13,2,0.5,0.125,35.0,1,1.0,0.35070000000000334
14,2,0.5,0.125,-35.0,-1,1.0,0.23870000000000147
15,2,0.5,0.25,-35.0,-1,1.0,0.35300000000000864
16,2,0.5,1.0,35.0,1,1.0,0.6603999999999957
17,2,0.5,0.0,-35.0,-1,1.0,0.25670000000000925
18,2,0.5,0.125,35.0,1,1.0,0.43610000000001037
19,2,0.5,0.125,35.0,-1,0.0,0.2925999999999931
20,2,0.5,1.0,35.0,1,1.0,0.25379999999999825
21,2,0.5,1.0,-35.0,-1,1.0,0.285499999999999
22,2,0.5,0.0,-35.0,1,0.0,3.688600000000008
23,2,0.5,0.125,-35.0,-1,1.0,0.3482999999999947
24,2,0.5,1.0,-35.0,-1,1.0,0.5416999999999916
25,2,0.5,0.25,35.0,1,1.0,0.2980000000000018
26,2,0.5,0.125,-35.0,-1,1.0,0.3003999999999962
27,2,0.5,0.25,35.0,1,1.0,0.8539000000000101
28,2,0.5,0.125,-35.0,-1,1.0,0.4545999999999992
29,2,0.5,0.0,35.0,1,1.0,0.930499999999995
30,2,0.5,0.0625,-35.0,1,0.0,0.7460999999999984
31,2,0.5,0.125,-35.0,-1,1.0,0.25029999999999575
32,2,0.5,0.0,35.0,1,1.0,0.5352000000000032
33,2,0.5,0.0625,35.0,1,1.0,0.5296000000000021
34,2,0.5,0.25,-35.0,-1,1.0,0.2289999999999992
35,2,0.5,0.0625,35.0,-1,0.0,0.08030000000000825
36,2,0.5,0.0625,35.0,1,1.0,0.43729999999999336
37,2,0.5,0.0,-35.0,1,0.0,4.186000000000007
38,2,0.5,0.0625,-35.0,-1,1.0,0.2977999999999952
39,2,0.5,1.0,-35.0,-1,1.0,0.2680000000000007
40,2,0.5,0.25,35.0,1,1.0,0.44719999999998095
41,2,0.5,0.25,-35.0,-1,1.0,0.25950000000000273
42,2,0.5,0.0,35.0,1,1.0,1.8287000000000262
43,2,0.5,0.25,35.0,1,1.0,0.30229999999997403
44,2,0.5,0.0,-35.0,-1,1.0,0.20820000000000505
45,2,0.5,0.125,-35.0,-1,1.0,0.14320000000000732
46,2,0.5,0.25,35.0,1,1.0,0.2504000000000133
47,2,0.5,0.0,-35.0,1,0.0,0.2773000000000252
48,2,0.5,0.125,-35.0,-1,1.0,0.23230000000000928
49,2,0.5,0.0,-35.0,1,0.0,0.04770000000002028
50,2,0.5,0.0,35.0,-1,0.0,0.6029000000000053
51,2,0.5,0.0625,35.0,1,1.0,0.23789999999999623
52,2,0.5,0.25,-35.0,-1,1.0,0.28580000000002315
53,2,0.5,0.125,-35.0,1,0.0,0.23290000000000077
54,2,0.5,0.0625,35.0,-1,0.0,1.1347000000000094
55,2,0.5,0.0,35.0,1,1.0,0.37360000000001037
56,2,0.5,0.125,35.0,1,1.0,0.27600000000001046
57,2,0.5,0.125,35.0,1,1.0,0.22800000000000864
58,2,0.5,1.0,35.0,1,1.0,0.2832000000000221
59,2,0.5,1.0,35.0,1,1.0,0.2592999999999961
60,2,0.5,1.0,35.0,1,1.0,0.26559999999997785
61,2,0.5,0.25,35.0,1,1.0,0.15419999999997458
62,2,0.5,0.25,-35.0,-1,1.0,0.5084000000000231
63,2,0.5,0.0625,-35.0,1,0.0,0.17029999999999745
64,2,0.5,0.25,-35.0,-1,1.0,0.19990000000001373
65,2,0.5,0.125,-35.0,-1,1.0,0.8474999999999966
66,2,0.5,1.0,-35.0,-1,1.0,0.18389999999999418
67,2,0.5,0.0625,-35.0,-1,1.0,0.2020000000000266
68,2,0.5,1.0,-35.0,-1,1.0,0.18610000000001037
69,2,0.5,0.25,-35.0,-1,1.0,0.8658000000000072
70,2,0.5,0.0625,-35.0,-1,1.0,4.566499999999991
71,2,0.5,0.0625,35.0,-1,0.0,0.22210000000001173
72,2,0.5,1.0,35.0,1,1.0,0.2582000000000164
73,2,0.5,0.25,35.0,1,1.0,0.3131999999999948
74,2,0.5,0.125,-35.0,-1,1.0,0.2715999999999781
75,2,0.5,0.25,35.0,1,1.0,0.269299999999987
76,2,0.5,0.125,35.0,-1,0.0,0.14989999999994552
77,2,0.5,0.25,35.0,1,1.0,0.1741000000000099
78,2,0.5,0.25,35.0,1,1.0,0.5009000000000015
79,2,0.5,0.0625,-35.0,1,0.0,0.2797999999999661
80,2,0.5,1.0,-35.0,-1,1.0,0.3406999999999698
81,2,0.5,0.0625,-35.0,1,0.0,0.15039999999999054
82,2,0.5,0.0625,-35.0,1,0.0,0.34569999999996526
83,2,0.5,0.25,-35.0,-1,1.0,0.19880000000000564
84,2,0.5,0.0,35.0,-1,0.0,0.24680000000000746
85,2,0.5,0.25,35.0,1,1.0,0.2726999999999862
86,2,0.5,0.25,35.0,1,1.0,0.23059999999998126
87,2,0.5,0.0625,35.0,1,1.0,0.27439999999995734
88,2,0.5,0.25,-35.0,-1,1.0,0.1450999999999567
89,2,0.5,1.0,35.0,1,1.0,0.30769999999995434
90,2,0.5,0.125,35.0,1,1.0,0.31179999999994834
91,2,0.8,0.25,35.0,1,1.0,0.11829999999997654
92,2,0.8,0.0625,-35.0,1,0.0,0.27049999999991314
93,2,0.8,0.125,35.0,1,1.0,0.11529999999999063
94,2,0.8,0.25,-35.0,-1,1.0,0.08549899999997024
95,2,0.8,0.0625,-35.0,1,0.0,0.3553999999999746
96,2,0.8,1.0,-35.0,-1,1.0,0.2629999999999768
97,2,0.8,0.125,-35.0,1,0.0,0.3144999999999527
98,2,0.8,1.0,-35.0,-1,1.0,0.2291999999999348
99,2,0.8,0.25,-35.0,-1,1.0,0.2331999999999539
100,2,0.8,1.0,-35.0,-1,1.0,0.18350000000003774
101,2,0.8,0.125,-35.0,-1,1.0,0.2944999999999709
102,2,0.8,1.0,-35.0,-1,1.0,0.2086999999999648
103,2,0.8,1.0,35.0,1,1.0,0.3144999999999527
104,2,0.8,0.25,-35.0,-1,1.0,0.3091999999999757
105,2,0.8,0.0625,-35.0,1,0.0,0.3033999999999537
106,2,0.8,0.25,35.0,-1,0.0,0.17399999999997817
107,2,0.8,0.0,-35.0,1,0.0,0.11249999999995453
108,2,0.8,0.125,-35.0,-1,1.0,0.22509999999999764
109,2,0.8,1.0,-35.0,-1,1.0,0.12129999999996244
110,2,0.8,0.0625,35.0,-1,0.0,0.40869999999995343
111,2,0.8,1.0,-35.0,-1,1.0,0.45779999999996335
112,2,0.8,0.0625,-35.0,-1,1.0,0.28849999999994225
113,2,0.8,0.0625,-35.0,-1,1.0,0.3960999999999899
114,2,0.8,0.0,35.0,-1,0.0,0.21529999999995653
115,2,0.8,0.125,-35.0,-1,1.0,0.4955999999999676
116,2,0.8,0.0625,-35.0,-1,1.0,0.29570000000001073
117,2,0.8,0.25,-35.0,-1,1.0,0.31799999999998363
118,2,0.8,0.125,-35.0,-1,1.0,0.2690999999999235
119,2,0.8,1.0,-35.0,-1,1.0,0.2411999999999921
120,2,0.8,0.125,35.0,1,1.0,0.25
121,2,0.8,0.0,-35.0,-1,1.0,0.3550999999999931
122,2,0.8,1.0,-35.0,-1,1.0,0.28679999999991423
123,2,0.8,1.0,-35.0,-1,1.0,0.2851999999999748
124,2,0.8,0.125,-35.0,-1,1.0,0.5378000000000043
125,2,0.8,0.0,-35.0,-1,1.0,0.3202999999999747
126,2,0.8,0.0625,-35.0,1,0.0,0.4412999999999556
127,2,0.8,1.0,-35.0,-1,1.0,0.4638999999999669
128,2,0.8,1.0,-35.0,-1,1.0,0.20909999999997808
129,2,0.8,0.0625,-35.0,-1,1.0,0.6406000000000063
130,2,0.8,1.0,35.0,1,1.0,0.29249999999996135
131,2,0.8,1.0,-35.0,-1,1.0,0.21599999999995134
132,2,0.8,0.25,-35.0,1,0.0,0.059399999999982356
133,2,0.8,1.0,-35.0,-1,1.0,0.0724999999999909
134,2,0.8,0.0625,-35.0,-1,1.0,0.37740000000002283
135,2,0.8,0.125,-35.0,-1,1.0,0.3106999999999971
136,2,0.2,0.0,35.0,-1,0.0,0.19719999999995252
137,2,0.2,0.0625,35.0,1,1.0,0.7462999999999624
138,2,0.2,0.0625,-35.0,-1,1.0,0.2227999999999497
139,2,0.2,1.0,35.0,1,1.0,0.2620999999999185
140,2,0.2,1.0,35.0,1,1.0,0.27490000000000236
141,2,0.2,1.0,35.0,1,1.0,0.23249999999995907
142,2,0.2,0.25,35.0,1,1.0,0.3125999999999749
143,2,0.2,0.0,35.0,-1,0.0,0.23239999999998417
144,2,0.2,0.125,35.0,1,1.0,0.3520000000000323
145,2,0.2,1.0,35.0,1,1.0,0.42020000000002256
146,2,0.2,0.0625,35.0,1,1.0,0.7159999999999513
147,2,0.2,0.0625,35.0,1,1.0,0.4008000000000038
148,2,0.2,0.0625,35.0,1,1.0,0.34050000000002
149,2,0.2,1.0,35.0,1,1.0,0.24650000000002592
150,2,0.2,0.125,35.0,1,1.0,0.43679999999994834
151,2,0.2,1.0,35.0,1,1.0,0.2647999999999797
152,2,0.2,0.0625,35.0,1,1.0,0.2810000000000059
153,2,0.2,0.25,35.0,1,1.0,0.020299999999963347
154,2,0.2,0.0625,35.0,-1,0.0,0.291499999999985
155,2,0.2,0.0625,35.0,1,1.0,0.35269999999997026
156,2,0.2,1.0,35.0,1,1.0,0.21900000000005093
157,2,0.2,1.0,35.0,1,1.0,0.19800000000009277
158,2,0.2,0.0625,35.0,1,1.0,0.18389999999999418
159,2,0.2,0.0625,35.0,1,1.0,0.16160000000002128
160,2,0.2,0.25,35.0,1,1.0,0.27909999999997126
161,2,0.2,0.25,35.0,1,1.0,0.2602000000000544
162,2,0.2,1.0,35.0,1,1.0,0.23480000000017753
163,2,0.2,1.0,-35.0,-1,1.0,0.3328000000000202
164,2,0.2,0.0625,35.0,-1,0.0,0.25939999999991414
165,2,0.2,0.0625,35.0,1,1.0,0.3000000000000682
166,2,0.2,0.25,35.0,1,1.0,0.17459999999994125
167,2,0.2,1.0,35.0,1,1.0,0.24739999999997053
168,2,0.2,1.0,35.0,1,1.0,0.18079999999997654
169,2,0.2,0.25,-35.0,-1,1.0,0.39010000000007494
170,2,0.2,0.125,-35.0,-1,1.0,0.3686999999999898
171,2,0.2,0.0625,35.0,1,1.0,0.17619999999999436
172,2,0.2,0.0,35.0,1,1.0,2.294999999999959
173,2,0.2,0.0625,35.0,1,1.0,0.17999999999994998
174,2,0.2,1.0,-35.0,1,0.0,0.056199999999989814
175,2,0.2,0.0,35.0,1,1.0,0.23340000000007421
176,2,0.2,0.0,35.0,1,1.0,0.23260000000004766
177,2,0.2,0.25,35.0,1,1.0,0.240099999999984
178,2,0.2,0.25,35.0,1,1.0,0.28520000000003165
179,2,0.2,1.0,35.0,1,1.0,0.22719999999992524
180,2,0.2,1.0,-35.0,-1,1.0,0.223700000000008
181,2,0.2,0.0625,35.0,1,1.0,0.1713000000000875
182,2,0.2,0.0625,35.0,1,1.0,0.21519999999998163
183,2,0.2,0.25,35.0,1,1.0,0.16550000000006548
184,2,0.8,0.25,35.0,1,1.0,0.2761000000000422
185,2,0.8,1.0,-35.0,-1,1.0,0.33550000000013824
186,2,0.8,0.125,-35.0,1,0.0,2.6591999999999416
187,2,0.8,0.0,35.0,1,1.0,8.023500000000013
188,2,0.8,0.125,-35.0,1,0.0,0.4509000000001606
189,2,0.8,1.0,-35.0,-1,1.0,0.19230000000004566
190,2,0.8,1.0,35.0,1,1.0,0.279700000000048
191,2,0.8,0.0625,35.0,-1,0.0,0.32550000000003365
192,2,0.8,0.25,-35.0,-1,1.0,0.18490000000008422
193,2,0.8,0.125,-35.0,-1,1.0,1.262600000000134
194,2,0.8,0.0625,-35.0,1,0.0,0.322400000000016
195,2,0.8,0.125,-35.0,-1,1.0,0.2561000000000604
196,2,0.8,0.25,-35.0,-1,1.0,0.24700000000007094
197,2,0.8,0.125,-35.0,-1,1.0,0.4595000000000482
198,2,0.8,1.0,-35.0,-1,1.0,0.5054999999999836
199,2,0.8,0.0625,-35.0,-1,1.0,0.37989999999990687
200,2,0.8,0.25,-35.0,-1,1.0,0.23029999999994288
201,2,0.8,0.125,-35.0,-1,1.0,0.28930000000002565
202,2,0.8,0.25,35.0,-1,0.0,0.09839999999996962
203,2,0.8,0.0,35.0,-1,0.0,0.26319999999998345
204,2,0.8,0.25,-35.0,1,0.0,0.23910000000000764
205,2,0.8,1.0,-35.0,-1,1.0,0.20000000000004547
206,2,0.8,0.0625,-35.0,-1,1.0,0.90300000000002
207,2,0.8,0.125,-35.0,-1,1.0,0.5619000000000369
208,2,0.8,0.125,-35.0,-1,1.0,0.16840000000013333
209,2,0.8,1.0,-35.0,-1,1.0,0.4456000000000131
210,2,0.8,1.0,35.0,1,1.0,0.294399999999996
211,2,0.8,1.0,-35.0,-1,1.0,0.20609999999999218
212,2,0.8,0.25,-35.0,-1,1.0,0.18329999999991742
213,2,0.8,0.0625,-35.0,-1,1.0,0.18389999999999418
214,2,0.8,0.0,-35.0,-1,1.0,0.21860000000003765
215,2,0.8,1.0,-35.0,-1,1.0,0.08820000000002892
216,2,0.8,0.125,-35.0,-1,1.0,0.5146000000000868
217,2,0.8,1.0,-35.0,-1,1.0,0.1493000000000393
218,2,0.8,1.0,-35.0,-1,1.0,0.057299999999941065
219,2,0.8,1.0,-35.0,-1,1.0,0.21749999999997272
220,2,0.8,0.0625,35.0,-1,0.0,0.41230000000007294
221,2,0.8,0.125,35.0,1,1.0,0.3347000000001117
222,2,0.8,1.0,-35.0,-1,1.0,0.2317999999999074
223,2,0.8,0.125,-35.0,-1,1.0,0.21149999999988722
224,2,0.8,0.25,35.0,1,1.0,0.32320000000004256
225,2,0.8,0.125,-35.0,-1,1.0,0.25549999999998363
226,2,0.8,0.125,-35.0,-1,1.0,0.20220000000006166
227,2,0.8,0.25,-35.0,-1,1.0,0.18309999999996762
228,2,0.8,0.0625,-35.0,-1,1.0,0.33399999999994634
229,2,0.8,0.25,35.0,1,1.0,0.3530999999999267
230,2,0.8,0.25,-35.0,-1,1.0,0.28550000000007003
231,2,0.8,0.125,-35.0,-1,1.0,0.4636000000000422
232,2,0.8,0.0625,-35.0,1,0.0,0.7629000000000588
233,2,0.8,0.25,-35.0,-1,1.0,0.20210000000008677
234,2,0.8,0.0625,-35.0,-1,1.0,0.4257999999999811
235,2,0.8,0.125,-35.0,-1,1.0,0.2416000000000622
236,2,0.8,0.0,-35.0,-1,1.0,1.9575999999999567
237,2,0.8,0.0625,-35.0,-1,1.0,0.6289000000000442
238,2,0.8,0.125,-35.0,-1,1.0,0.2721000000000231
239,2,0.8,0.25,-35.0,-1,1.0,0.2234000000000833
240,2,0.8,1.0,-35.0,-1,1.0,0.28560000000004493
241,2,0.8,1.0,35.0,1,1.0,0.35550000000000637
242,2,0.8,0.25,35.0,1,1.0,0.31149999999990996
243,2,0.8,0.25,-35.0,-1,1.0,0.4349000000000842
244,2,0.8,0.25,35.0,1,1.0,0.310100000000034
245,2,0.8,0.125,-35.0,-1,1.0,0.3048989999999776
246,2,0.8,0.0,-35.0,-1,1.0,0.4050999999999476
247,2,0.8,0.0625,-35.0,-1,1.0,0.28500000000008185
248,2,0.8,1.0,-35.0,-1,1.0,0.3994000000000142
249,2,0.8,1.0,35.0,1,1.0,0.28730000000007294
250,2,0.8,1.0,35.0,1,1.0,0.2796000000000731
251,2,0.8,1.0,-35.0,-1,1.0,0.15040000000010423
252,2,0.8,1.0,-35.0,-1,1.0,0.24220000000002528
253,2,0.8,1.0,-35.0,-1,1.0,0.20630000000005566
254,2,0.8,0.25,-35.0,-1,1.0,0.2621000000000322
255,2,0.8,0.0,-35.0,-1,1.0,0.2661000000000513
256,2,0.8,0.0625,35.0,-1,0.0,0.3970000000000482
257,2,0.8,1.0,35.0,-1,0.0,0.13149999999995998
258,2,0.8,1.0,-35.0,-1,1.0,0.5374000000000478
259,2,0.2,0.125,35.0,1,1.0,0.40469999999993433
260,2,0.2,0.0625,35.0,1,1.0,0.33770000000004075
261,2,0.2,0.25,-35.0,-1,1.0,0.36600000000009913
262,2,0.2,0.25,-35.0,-1,1.0,0.199799999999982
263,2,0.2,0.0625,35.0,1,1.0,0.5109999999999673
264,2,0.2,0.0625,35.0,-1,0.0,0.3690000000000282
265,2,0.2,0.25,35.0,1,1.0,0.32170000000007803
266,2,0.2,0.125,35.0,1,1.0,0.5970000000000937
267,2,0.2,0.0,35.0,-1,0.0,0.2094000000000733
268,2,0.2,0.125,35.0,1,1.0,0.2358000000000402
269,2,0.2,1.0,35.0,1,1.0,0.20890000000008513
270,2,0.2,1.0,35.0,1,1.0,0.252399999999966
271,2,0.2,0.25,35.0,1,1.0,0.18250000000000455
272,2,0.2,1.0,35.0,1,1.0,0.21900000000005093
273,2,0.2,0.125,-35.0,1,0.0,0.2418999999999869
274,2,0.2,0.0625,-35.0,-1,1.0,0.4915000000000873
275,2,0.2,0.0625,35.0,1,1.0,0.27959999999995944
276,2,0.2,0.0,35.0,1,1.0,0.20039999999994507
277,2,0.2,0.0,35.0,1,1.0,0.024099999999975807
278,2,0.2,0.25,35.0,1,1.0,0.21190000000012787
279,2,0.2,0.0625,35.0,1,1.0,0.20439999999996417
280,2,0.2,0.0,35.0,1,1.0,0.711400000000026
281,2,0.2,1.0,35.0,1,1.0,0.23310000000003583
282,2,0.2,0.125,-35.0,1,0.0,0.2846000000000686
283,2,0.2,1.0,-35.0,-1,1.0,0.4374000000000251
284,2,0.8,0.0625,-35.0,-1,1.0,0.7767999999999802
285,2,0.8,1.0,-35.0,-1,1.0,0.43870000000003984
286,2,0.8,0.25,35.0,1,1.0,0.36220000000002983
287,2,0.8,0.0625,-35.0,-1,1.0,0.505800000000022
288,2,0.8,0.0,-35.0,-1,1.0,0.15610000000003765
289,2,0.8,1.0,-35.0,-1,1.0,0.3813999999999851
290,2,0.8,0.0,-35.0,-1,1.0,0.48840000000006967
291,2,0.8,0.25,-35.0,-1,1.0,0.24870000000009895
292,2,0.8,0.0625,-35.0,-1,1.0,0.26499999999998636
293,2,0.8,0.25,-35.0,-1,1.0,0.39990000000000236
294,2,0.8,0.125,-35.0,-1,1.0,0.13999999999998636
295,2,0.8,0.125,-35.0,-1,1.0,0.3654000000000224
296,2,0.8,0.0625,35.0,-1,0.0,0.20600000000001728
297,2,0.8,0.25,-35.0,-1,1.0,0.2759000000000924
298,2,0.8,1.0,-35.0,-1,1.0,0.4371999999999616
299,2,0.8,0.0625,35.0,-1,0.0,0.5708999999999378
300,2,0.8,0.125,-35.0,-1,1.0,0.24849999999992178
301,2,0.8,0.25,-35.0,-1,1.0,0.25860000000011496
302,2,0.8,0.125,-35.0,-1,1.0,0.16899999999998272
303,2,0.8,0.25,-35.0,-1,1.0,0.17849999999998545
304,2,0.8,0.0625,-35.0,-1,1.0,0.4994000000000369
305,2,0.8,0.0625,-35.0,-1,1.0,0.19220000000007076
306,2,0.8,0.0625,35.0,-1,0.0,0.3290000000000646
307,2,0.8,0.125,-35.0,-1,1.0,0.3729000000000724
308,2,0.8,0.0625,-35.0,-1,1.0,6.126100000000065
309,2,0.8,0.25,-35.0,-1,1.0,0.2425999999998112
310,2,0.8,1.0,-35.0,-1,1.0,0.28619999999978063
311,2,0.8,0.0,-35.0,-1,1.0,0.5661000000000058
312,2,0.8,0.125,-35.0,-1,1.0,6.159400000000005
313,2,0.8,0.25,-35.0,-1,1.0,0.3330999999998312
314,2,0.8,0.25,35.0,-1,0.0,2.6697999999998956
315,2,0.8,0.125,-35.0,-1,1.0,0.2903000000001157
316,2,0.8,1.0,-35.0,-1,1.0,0.6001999999998588
317,2,0.8,0.0625,-35.0,-1,1.0,0.42399999999997817
318,2,0.8,0.25,-35.0,-1,1.0,0.30749999999989086
319,2,0.8,0.25,-35.0,-1,1.0,0.27710000000001855
320,2,0.8,1.0,-35.0,-1,1.0,0.4173999999998159
321,2,0.8,0.0625,-35.0,-1,1.0,0.1971000000000913
322,2,0.8,0.0625,-35.0,-1,1.0,0.25709999999980937
323,2,0.8,1.0,-35.0,-1,1.0,0.2579000000000633
324,2,0.8,1.0,35.0,1,1.0,0.33400000000006
325,2,0.8,0.0,35.0,-1,0.0,0.11400000000003274
326,2,0.8,0.0625,-35.0,-1,1.0,0.48129999999991924
327,2,0.8,1.0,-35.0,-1,1.0,0.2075999999999567
328,2,0.8,1.0,-35.0,-1,1.0,0.4442999999998847
329,2,0.8,0.25,35.0,-1,0.0,2.764599999999973
330,2,0.8,1.0,35.0,1,1.0,0.3582000000001244
331,2,0.8,0.125,-35.0,-1,1.0,0.26799999999980173
332,2,0.8,0.25,-35.0,-1,1.0,0.34789999999998145
333,2,0.8,0.0625,-35.0,-1,1.0,2.8081999999999425
334,2,0.8,0.25,-35.0,-1,1.0,0.31140000000004875
335,2,0.8,0.0625,-35.0,-1,1.0,0.20839999999998327
336,2,0.8,0.0,-35.0,-1,1.0,0.3749999999997726
337,2,0.8,0.0625,35.0,-1,0.0,0.23519999999984975
338,2,0.8,0.125,-35.0,-1,1.0,0.435799999999972
339,2,0.8,1.0,-35.0,-1,1.0,0.4818999999997686
340,2,0.8,0.125,-35.0,-1,1.0,0.26559999999994943
341,2,0.8,0.0,-35.0,-1,1.0,0.4154999999998381
342,2,0.8,0.125,35.0,1,1.0,1.3822999999999865
343,2,0.8,0.125,-35.0,1,0.0,0.49240000000008877
344,2,0.8,1.0,35.0,1,1.0,0.2660999999998239
345,2,0.8,0.0625,-35.0,-1,1.0,0.6692999999997937
346,2,0.8,0.25,35.0,1,1.0,0.25309999999990396
347,2,0.8,0.0625,35.0,-1,0.0,0.29939999999987776
348,2,0.8,0.125,-35.0,-1,1.0,0.3294999999998254
349,2,0.8,0.0,-35.0,1,0.0,0.20669999999995525
350,2,0.8,0.25,-35.0,-1,1.0,0.22309999999993124
351,2,0.8,0.125,-35.0,-1,1.0,0.5534999999997581
352,2,0.8,0.0,-35.0,-1,1.0,0.389699999999948
353,2,0.8,0.125,-35.0,-1,1.0,0.27350000000001273
354,2,0.8,0.25,-35.0,-1,1.0,0.30989999999997053
355,2,0.8,1.0,-35.0,-1,1.0,0.31419999999980064
356,2,0.8,1.0,-35.0,-1,1.0,0.31340000000000146
357,2,0.8,0.0625,35.0,-1,0.0,0.553599999999733
358,2,0.8,0.0625,-35.0,-1,1.0,0.2705999999998312
359,2,0.8,0.25,-35.0,-1,1.0,0.1777999999999338
360,2,0.8,0.0625,-35.0,-1,1.0,0.3870999999999185
361,2,0.2,0.25,35.0,1,1.0,0.35789999999997235
362,2,0.2,0.25,35.0,1,1.0,0.2507999999997992
363,2,0.2,0.125,35.0,1,1.0,0.6440999999999804
364,2,0.2,0.0,35.0,1,1.0,0.7173999999999978
365,2,0.2,0.25,35.0,1,1.0,0.28119999999989886
366,2,0.2,0.125,-35.0,-1,1.0,0.3148999999998523
367,2,0.2,0.25,35.0,1,1.0,0.22129999999992833
368,2,0.2,0.125,35.0,-1,0.0,0.24779999999987012
369,2,0.2,0.25,35.0,1,1.0,0.024599999999963984
370,2,0.2,0.0625,35.0,1,1.0,0.49519999999984066
371,2,0.2,0.125,35.0,1,1.0,0.22479999999995925
372,2,0.2,0.25,35.0,1,1.0,0.1916999999998552
373,2,0.2,0.125,-35.0,-1,1.0,0.32189999999991414
374,2,0.2,0.0625,35.0,-1,0.0,0.32219999999983884
375,2,0.2,0.0625,-35.0,-1,1.0,0.21249999999986358
376,2,0.2,0.0625,-35.0,-1,1.0,0.2155999999999949
377,2,0.2,1.0,35.0,-1,0.0,0.1656999999997879
378,2,0.2,0.125,35.0,-1,0.0,0.21209999999996398
379,2,0.2,0.0625,35.0,-1,0.0,0.5023999999998523
380,2,0.2,0.25,35.0,1,1.0,0.4055999999998221
381,2,0.2,0.0,-35.0,1,0.0,3.349699999999757
382,2,0.8,0.125,-35.0,-1,1.0,0.37000000000011823
383,2,0.8,1.0,35.0,1,1.0,0.28609999999980573
384,2,0.8,0.0625,35.0,-1,0.0,0.3028999999999087
385,2,0.8,0.125,35.0,1,1.0,0.5863999999999123
386,2,0.8,1.0,-35.0,-1,1.0,0.2599999999999909
387,2,0.8,0.125,-35.0,-1,1.0,0.3631999999997788
388,2,0.8,1.0,-35.0,-1,1.0,0.21649999999999636
389,2,0.8,1.0,35.0,-1,0.0,0.2037000000000262
390,2,0.8,0.0625,-35.0,-1,1.0,0.30389999999988504
391,2,0.8,0.0625,-35.0,-1,1.0,0.2500999999999749
392,2,0.8,1.0,-35.0,-1,1.0,0.13760000000002037
393,2,0.8,1.0,-35.0,-1,1.0,0.20699999999987995
394,2,0.8,0.0,35.0,-1,0.0,6.037699999999859
395,2,0.8,0.0625,-35.0,-1,1.0,0.3873999999998432
396,2,0.8,0.125,-35.0,-1,1.0,0.17759999999975662
397,2,0.8,0.125,-35.0,-1,1.0,0.24069999999983338
398,2,0.8,0.125,-35.0,-1,1.0,0.11799999999993815
399,2,0.8,0.0,-35.0,-1,1.0,0.18439999999986867
400,2,0.8,1.0,-35.0,-1,1.0,0.37439999999992324
401,2,0.8,0.0625,-35.0,-1,1.0,0.27510000000006585
402,2,0.8,1.0,-35.0,-1,1.0,0.40469999999982065
403,2,0.8,0.125,-35.0,-1,1.0,0.20850000000018554
404,2,0.8,1.0,-35.0,-1,1.0,0.20119999999974425
405,2,0.8,1.0,-35.0,-1,1.0,0.39829999999983556
406,2,0.8,0.0625,-35.0,-1,1.0,0.5016999999998006
407,2,0.8,0.125,35.0,1,1.0,1.6848999999999705
408,2,0.8,0.25,-35.0,-1,1.0,0.2820000000001528
409,2,0.8,0.125,-35.0,-1,1.0,0.2481999999999971
410,2,0.2,0.125,35.0,1,1.0,1.1317999999998847
411,2,0.2,0.25,35.0,1,1.0,0.4353000000000975
412,2,0.2,0.0,35.0,1,1.0,0.7257999999999356
413,2,0.2,1.0,35.0,1,1.0,0.43200000000001637
414,2,0.2,0.125,35.0,1,1.0,0.31209999999987303
415,2,0.2,1.0,35.0,1,1.0,0.3027999999999338
416,2,0.2,0.25,-35.0,-1,1.0,0.25260000000002947
417,2,0.2,1.0,-35.0,-1,1.0,0.42980000000011387
418,2,0.2,0.25,35.0,-1,0.0,0.21299999999973807
419,2,0.2,1.0,-35.0,-1,1.0,0.1693000000000211
420,2,0.2,0.25,35.0,1,1.0,0.292699999999968
421,2,0.2,0.0625,35.0,-1,0.0,0.20329999999989923
422,2,0.2,0.25,35.0,1,1.0,0.316899999999805
423,2,0.2,1.0,35.0,-1,0.0,0.1332999999999629
424,2,0.2,0.0,35.0,-1,0.0,0.39289999999982683
425,2,0.2,0.125,-35.0,-1,1.0,0.2097999999998592
426,2,0.2,0.0625,35.0,1,1.0,0.5597999999999956
427,2,0.2,1.0,35.0,1,1.0,0.2899999999999636
428,2,0.2,0.25,-35.0,-1,1.0,0.2300999999999931
429,2,0.2,0.0,35.0,-1,0.0,0.23039999999991778
430,2,0.2,0.0625,-35.0,1,0.0,1.1336999999998625
431,2,0.2,0.25,35.0,1,1.0,0.48689999999987776
432,2,0.2,0.0625,35.0,-1,0.0,0.32379999999989195
433,2,0.2,0.125,-35.0,-1,1.0,0.20100000000002183
434,2,0.2,0.0625,35.0,1,1.0,0.32459999999969114
435,2,0.2,1.0,35.0,1,1.0,0.2577000000001135
436,2,0.2,0.0625,35.0,1,1.0,0.4280999999998585
437,2,0.2,0.125,35.0,1,1.0,0.25729999999998654
438,2,0.2,0.0,35.0,1,1.0,0.24739999999974316
439,2,0.8,0.25,-35.0,-1,1.0,0.34770000000003165
440,2,0.8,1.0,-35.0,-1,1.0,0.2541999999998552
441,2,0.8,0.125,-35.0,-1,1.0,0.24119999999970787
442,2,0.8,0.0,-35.0,1,0.0,3.8613000000000284
443,2,0.8,0.0625,35.0,-1,0.0,0.2051000000001295
444,2,0.8,0.125,-35.0,-1,1.0,0.30140000000005784
445,2,0.8,0.25,-35.0,-1,1.0,0.27530000000001564
446,2,0.8,0.0625,-35.0,1,0.0,0.13850000000002183
447,2,0.8,0.25,-35.0,-1,1.0,0.3388999999997395
448,2,0.8,0.0,-35.0,-1,1.0,0.6250999999999749
449,2,0.8,0.0625,-35.0,-1,1.0,0.5790999999999258
450,2,0.8,0.0625,-35.0,-1,1.0,0.24889999999982138
451,2,0.8,1.0,-35.0,-1,1.0,0.17869999999993524
452,2,0.8,0.125,-35.0,-1,1.0,0.39619999999990796
453,2,0.8,0.25,-35.0,-1,1.0,0.2960000000000491
454,2,0.8,0.0625,-35.0,-1,1.0,0.3091999999996915
455,2,0.8,0.25,-35.0,-1,1.0,0.2023999999996704
456,2,0.8,0.25,-35.0,-1,1.0,0.265999999999849
457,2,0.8,0.25,-35.0,-1,1.0,0.15609999999992397
458,2,0.8,0.125,35.0,1,1.0,0.4259999999999309
459,2,0.8,0.25,35.0,1,1.0,0.8895999999999731
460,2,0.8,0.25,-35.0,-1,1.0,0.24949999999989814
461,2,0.8,0.25,-35.0,-1,1.0,0.9664000000000215
462,2,0.8,1.0,-35.0,-1,1.0,0.22319999999967877
463,2,0.8,1.0,35.0,1,1.0,0.39000000000010004
464,2,0.8,1.0,-35.0,-1,1.0,0.356899999999996
465,2,0.8,1.0,35.0,1,1.0,0.33989999999994325
466,2,0.8,1.0,-35.0,-1,1.0,0.21019999999998618
467,2,0.8,0.25,35.0,1,1.0,0.34389999999984866
468,2,0.8,0.125,-35.0,1,0.0,0.3001999999999043
469,2,0.8,0.0625,-35.0,-1,1.0,2.690399999999954
470,2,0.8,0.0625,-35.0,-1,1.0,0.6006999999999607
471,2,0.8,0.125,-35.0,-1,1.0,0.27100000000018554
472,2,0.8,0.25,-35.0,-1,1.0,0.24729999999999563
473,2,0.8,1.0,-35.0,-1,1.0,0.23739999999997963
474,2,0.8,0.25,-35.0,-1,1.0,0.2542000000000826
475,2,0.8,1.0,-35.0,-1,1.0,0.49109999999996035
476,2,0.8,0.25,-35.0,-1,1.0,0.19499999999993634
477,2,0.8,0.0625,-35.0,-1,1.0,0.34770000000003165
478,2,0.8,0.25,-35.0,-1,1.0,0.19460000000003674
479,2,0.8,0.125,35.0,1,1.0,0.42470000000002983
480,2,0.8,0.0,-35.0,-1,1.0,0.4546999999997752
481,2,0.8,0.0,-35.0,1,0.0,0.6318999999998596
482,2,0.8,1.0,-35.0,-1,1.0,0.23820000000000618
483,2,0.8,0.125,-35.0,-1,1.0,0.38149999999996
484,2,0.8,0.25,-35.0,-1,1.0,0.34849999999983083
485,2,0.8,0.0,35.0,-1,0.0,0.3188999999999851
486,2,0.8,0.25,-35.0,-1,1.0,0.21529999999984284
487,2,0.8,0.125,-35.0,-1,1.0,3.395599999999831
488,2,0.8,0.0625,-35.0,-1,1.0,0.43239999999991596
489,2,0.8,0.25,-35.0,-1,1.0,0.4255999999998039
490,2,0.8,0.0,-35.0,-1,1.0,0.2988000000000284
491,2,0.8,0.25,-35.0,-1,1.0,0.11550000000011096
492,2,0.8,1.0,-35.0,-1,1.0,0.205600000000004
493,2,0.8,0.25,-35.0,-1,1.0,0.195699999999988
494,2,0.8,0.0625,-35.0,-1,1.0,0.5261000000000422
495,2,0.8,0.125,-35.0,-1,1.0,0.4864000000000033
496,2,0.8,0.0,-35.0,-1,1.0,0.29609999999979664
497,2,0.8,0.125,-35.0,-1,1.0,0.20329999999989923
498,2,0.8,0.125,35.0,-1,0.0,3.7462000000000444
499,2,0.8,0.125,-35.0,-1,1.0,0.21299999999996544
500,2,0.8,0.125,-35.0,-1,1.0,0.18319999999994252
501,2,0.8,0.125,-35.0,-1,1.0,0.5606999999999971
502,2,0.8,0.25,-35.0,-1,1.0,0.3166999999998552
503,2,0.8,1.0,-35.0,-1,1.0,0.06709999999998217
504,2,0.8,0.0625,35.0,1,1.0,0.4074999999997999
505,2,0.8,0.125,-35.0,-1,1.0,0.2842999999998028
506,2,0.8,0.0,-35.0,-1,1.0,0.21440000000006876
507,2,0.8,1.0,-35.0,-1,1.0,0.23779999999987922
508,2,0.8,0.125,-35.0,-1,1.0,0.2178999999998723
509,2,0.8,0.25,-35.0,-1,1.0,0.1812999999999647
510,2,0.8,0.0625,-35.0,-1,1.0,0.6613999999999578
511,2,0.8,0.125,-35.0,-1,1.0,0.33809999999994034
512,2,0.8,0.0625,-35.0,-1,1.0,0.4181999999998425
513,2,0.8,1.0,-35.0,-1,1.0,0.19839999999999236
514,2,0.8,0.25,35.0,1,1.0,0.25510000000008404
515,2,0.8,0.0625,-35.0,1,0.0,0.3585000000000491
516,2,0.8,1.0,-35.0,-1,1.0,0.22859999999991487
517,2,0.8,0.125,-35.0,-1,1.0,0.4819999999997435
518,2,0.8,1.0,-35.0,-1,1.0,0.46869999999989886
519,2,0.8,0.125,-35.0,-1,1.0,0.19889999999986685
520,2,0.8,0.0625,-35.0,-1,1.0,0.3523000000000138
521,2,0.2,0.0,35.0,-1,0.0,0.5322999999998501
522,2,0.2,0.25,35.0,1,1.0,0.7959000000000742
523,2,0.2,0.125,35.0,1,1.0,0.44249999999988177
524,2,0.2,0.25,-35.0,-1,1.0,0.2359999999998763
525,2,0.2,0.25,35.0,1,1.0,0.4260999999999058
526,2,0.2,0.25,35.0,1,1.0,0.3027999999999338
527,2,0.2,0.0625,35.0,1,1.0,0.29949999999985266
528,2,0.2,0.0625,35.0,1,1.0,0.33310000000005857
529,2,0.2,0.0625,35.0,-1,0.0,0.9963999999999942
530,2,0.2,0.125,35.0,1,1.0,3.7931999999998425
531,2,0.2,0.0625,35.0,1,1.0,0.38000000000010914
532,2,0.2,0.25,35.0,1,1.0,0.32349999999996726
533,2,0.2,1.0,35.0,1,1.0,0.30359999999996035
534,2,0.2,0.0625,35.0,-1,0.0,0.24350000000004002
535,2,0.2,0.125,35.0,1,1.0,0.3238000000001193
536,2,0.2,0.125,35.0,-1,0.0,0.07049999999981083
537,2,0.2,0.0,35.0,1,1.0,0.36389999999983047
538,2,0.2,0.0625,35.0,1,1.0,0.3807999999999083
539,2,0.2,0.125,35.0,1,1.0,0.394099999999753
540,2,0.2,1.0,35.0,1,1.0,0.027599999999893043
541,2,0.2,1.0,35.0,1,1.0,0.264299999999821
542,2,0.2,0.25,35.0,1,1.0,0.0809999999999036
543,2,0.2,1.0,-35.0,-1,1.0,0.4176999999997406
544,2,0.2,0.0625,35.0,1,1.0,0.3511000000000877
545,2,0.2,0.125,35.0,1,1.0,0.22450000000003456
546,2,0.2,1.0,35.0,1,1.0,0.27130000000011023
547,2,0.2,0.125,35.0,1,1.0,0.27139999999985776
548,2,0.2,1.0,35.0,1,1.0,0.30149999999980537
549,2,0.2,1.0,-35.0,-1,1.0,0.2648999999998978
550,2,0.2,0.25,35.0,1,1.0,0.2948999999998705
551,2,0.2,1.0,35.0,1,1.0,0.26169999999979154
552,2,0.2,0.0625,-35.0,-1,1.0,0.565199999999777
553,2,0.2,0.25,35.0,-1,0.0,0.17859999999996035
554,2,0.2,0.0625,35.0,1,1.0,1.6320999999998094
555,2,0.2,0.25,35.0,1,1.0,0.3021000000001095
556,2,0.2,0.125,35.0,1,1.0,0.2923000000000684
557,2,0.2,0.25,-35.0,-1,1.0,0.28559999999993124
558,2,0.2,0.0,35.0,-1,0.0,0.38249999999993634
559,2,0.2,0.25,-35.0,-1,1.0,0.012599999999792999
560,2,0.2,0.0625,35.0,1,1.0,0.8425999999999476
561,2,0.2,1.0,35.0,1,1.0,0.3026999999999589
562,2,0.2,1.0,-35.0,-1,1.0,0.4194999999999709
563,2,0.2,1.0,-35.0,-1,1.0,0.3894999999997708
564,2,0.2,0.125,35.0,1,1.0,0.40649999999982356
565,2,0.2,0.0625,35.0,-1,0.0,0.15639999999984866
566,2,0.2,0.0,35.0,1,1.0,0.2864000000001852
567,2,0.8,0.25,-35.0,-1,1.0,1.1798999999998614
568,2,0.8,0.0625,35.0,1,1.0,0.3666000000000622
569,2,0.8,0.125,35.0,1,1.0,0.2600999999999658
570,2,0.8,0.0,-35.0,1,0.0,0.45019999999999527
571,2,0.8,0.125,-35.0,-1,1.0,0.360300000000052
572,2,0.8,0.0625,35.0,-1,0.0,0.3269999999999982
573,2,0.8,0.125,-35.0,-1,1.0,0.3706999999999425
574,2,0.8,1.0,-35.0,-1,1.0,0.36720000000013897
575,2,0.8,0.0625,-35.0,-1,1.0,0.6873000000000502
576,2,0.8,0.0,-35.0,-1,1.0,0.44749999999976353
577,2,0.8,0.0625,-35.0,-1,1.0,0.41089999999985594
578,2,0.8,0.25,-35.0,-1,1.0,0.30759999999986576
579,2,0.8,0.0625,-35.0,-1,1.0,0.300899999999956
580,2,0.8,0.0,-35.0,-1,1.0,0.35770000000002256
581,2,0.8,0.125,-35.0,-1,1.0,0.324500000000171
582,2,0.8,1.0,-35.0,-1,1.0,0.2910999999996875
583,2,0.8,0.125,-35.0,-1,1.0,0.361299999999801
584,2,0.8,0.125,-35.0,-1,1.0,0.361299999999801
585,2,0.8,1.0,-35.0,-1,1.0,0.2448999999996886
586,2,0.8,0.125,35.0,1,1.0,0.41830000000004475
587,2,0.8,1.0,-35.0,-1,1.0,0.25499999999988177
588,2,0.8,0.125,-35.0,-1,1.0,0.4116999999998825
589,2,0.8,0.125,-35.0,-1,1.0,0.2618999999999687
590,2,0.8,0.0625,-35.0,1,0.0,10.111799999999903
591,2,0.8,1.0,-35.0,-1,1.0,0.3322000000000571
592,2,0.8,0.125,-35.0,-1,1.0,0.3489999999999327
593,2,0.8,0.0625,-35.0,1,0.0,3.085800000000063
594,2,0.8,0.125,-35.0,1,0.0,11.755799999999908
595,2,0.8,0.25,-35.0,-1,1.0,0.4497999999998683
596,2,0.8,0.0625,-35.0,-1,1.0,7.266399999999749
597,2,0.8,0.0625,-35.0,1,0.0,1.0567000000000917
598,2,0.8,0.25,-35.0,-1,1.0,0.3135999999997239
599,2,0.8,0.0,-35.0,1,0.0,0.953499999999849
600,2,0.8,0.0625,-35.0,-1,1.0,0.37699999999972533
601,2,0.8,0.0625,-35.0,1,0.0,8.153599999999642
602,2,0.8,0.0,-35.0,-1,1.0,0.4673999999999978
603,2,0.8,0.125,35.0,-1,0.0,4.284099999999853
604,2,0.8,0.0,35.0,-1,0.0,4.214300000000094
605,2,0.8,0.25,-35.0,-1,1.0,2.851300000000265
606,2,0.8,0.0625,-35.0,1,0.0,10.674800000000232
607,2,0.8,0.25,-35.0,-1,1.0,4.9517000000000735
608,2,0.8,0.0,-35.0,-1,1.0,0.275300000000243
609,2,0.8,0.0625,-35.0,-1,1.0,1.0054000000004635
610,2,0.8,1.0,-35.0,-1,1.0,0.28880000000026484
611,2,0.8,0.0,-35.0,-1,1.0,0.5356000000001586
612,2,0.8,1.0,-35.0,-1,1.0,0.32569999999986976
613,2,0.8,0.125,-35.0,-1,1.0,0.5691000000001623
614,2,0.8,0.0625,-35.0,-1,1.0,0.43580000000019936
615,2,0.8,1.0,-35.0,-1,1.0,0.3225999999999658
616,2,0.8,0.0,-35.0,-1,1.0,0.47590000000036525
617,2,0.8,0.0625,-35.0,-1,1.0,0.3093000000003485
618,2,0.8,0.125,-35.0,-1,1.0,0.5494000000003325
619,2,0.8,0.0625,-35.0,-1,1.0,0.2129000000004453
620,2,0.8,0.0,-35.0,-1,1.0,0.48620000000028085
621,2,0.8,0.25,-35.0,-1,1.0,0.269800000000032
622,2,0.8,0.0625,-35.0,-1,1.0,0.5265999999996893
623,2,0.8,0.125,-35.0,-1,1.0,0.3166999999998552
624,2,0.8,0.125,-35.0,-1,1.0,0.5167000000001281
625,2,0.8,0.25,35.0,1,1.0,0.3701000000005479
626,2,0.8,1.0,-35.0,-1,1.0,0.23689999999987776
627,2,0.8,1.0,-35.0,-1,1.0,0.21709999999984575
628,2,0.8,0.25,35.0,1,1.0,0.37039999999979045
629,2,0.8,0.0625,-35.0,-1,1.0,0.3105000000000473
630,2,0.8,0.0,35.0,1,1.0,0.5372999999999593
631,2,0.2,0.25,35.0,-1,0.0,0.1673000000000684
632,2,0.2,0.125,35.0,1,1.0,0.31080000000019936
633,2,0.2,1.0,35.0,1,1.0,0.23420000000032815
634,2,0.2,0.0625,-35.0,-1,1.0,0.5475999999998749
635,2,0.2,0.25,35.0,1,1.0,0.30429999999978463
636,2,0.2,0.125,35.0,1,1.0,0.36779999999998836
637,2,0.2,0.125,35.0,1,1.0,0.407799999999952
638,2,0.2,1.0,35.0,1,1.0,0.24120000000039
639,2,0.2,0.0625,35.0,1,1.0,0.4746000000004642
640,2,0.2,0.0,35.0,1,1.0,0.641399999999976
641,2,0.2,1.0,35.0,1,1.0,0.2448000000003958
642,2,0.2,0.125,35.0,1,1.0,0.33159999999998035
643,2,0.2,0.25,35.0,1,1.0,0.26499999999987267
644,2,0.2,0.125,35.0,1,1.0,0.31520000000000437
645,2,0.2,0.125,35.0,1,1.0,0.4052000000001499
646,2,0.2,0.0625,35.0,1,1.0,0.29870000000028085
647,2,0.2,0.25,35.0,1,1.0,0.2620999999999185
648,2,0.2,1.0,35.0,1,1.0,0.25540000000000873
649,2,0.2,0.25,35.0,1,1.0,0.2955000000001746
650,2,0.2,0.0625,35.0,1,1.0,0.3122000000007574
651,2,0.2,0.0625,35.0,1,1.0,0.24900000000025102
652,2,0.2,1.0,-35.0,1,0.0,0.1991000000002714
653,2,0.2,0.0625,-35.0,-1,1.0,0.5492000000003827
654,2,0.2,0.0625,-35.0,-1,1.0,0.4493000000002212
655,2,0.8,0.0625,35.0,1,1.0,0.34930000000031214
656,2,0.8,0.25,35.0,1,1.0,0.32940000000007785
657,2,0.8,0.0625,-35.0,-1,1.0,4.199500000000171
658,2,0.8,1.0,-35.0,-1,1.0,0.3463000000001557
659,2,0.8,0.0625,-35.0,-1,1.0,0.41970000000037544
660,2,0.8,1.0,35.0,1,1.0,0.27990000000045256
661,2,0.8,1.0,-35.0,-1,1.0,0.5732000000002699
662,2,0.8,0.125,35.0,1,1.0,0.2899999999999636
663,2,0.8,0.125,-35.0,-1,1.0,0.3701000000005479
664,2,0.8,0.25,35.0,1,1.0,0.5100999999999658
1,3,0.5,1.0,-35.0,-1,1.0,0.5367
2,3,0.5,0.25,-35.0,-1,1.0,0.5759999999999996
3,3,0.5,0.0625,35.0,1,1.0,1.5507000000000009
4,3,0.5,0.25,-35.0,-1,1.0,0.6599999999999984
5,3,0.5,0.0625,-35.0,-1,1.0,2.0615000000000023
6,3,0.5,1.0,-35.0,-1,1.0,0.49070000000000036
7,3,0.5,1.0,-35.0,-1,1.0,0.1944999999999979
8,3,0.5,0.0625,35.0,-1,0.0,0.3308
9,3,0.5,0.25,35.0,1,1.0,0.2230999999999952
10,3,0.5,0.25,35.0,1,1.0,0.23860000000000525
11,3,0.5,0.25,-35.0,-1,1.0,1.032100000000007
12,3,0.5,0.0625,35.0,1,1.0,0.5960999999999999
13,3,0.5,0.25,-35.0,-1,1.0,0.3404000000000096
14,3,0.5,0.0,35.0,1,1.0,0.8150000000000048
15,3,0.5,0.0625,35.0,1,1.0,0.9619999999999962
16,3,0.5,0.25,-35.0,-1,1.0,0.6971999999999952
17,3,0.5,1.0,-35.0,-1,1.0,0.5502000000000038
18,3,0.5,1.0,35.0,1,1.0,0.04600000000000648
19,3,0.5,0.25,35.0,1,1.0,0.5270999999999972
20,3,0.5,1.0,-35.0,-1,1.0,0.18659999999999854
21,3,0.5,0.125,35.0,1,1.0,0.2441000000000031
22,3,0.5,0.25,35.0,1,1.0,0.26600000000000534
23,3,0.5,0.25,35.0,1,1.0,0.31170000000000186
24,3,0.5,0.25,35.0,1,1.0,0.2565999999999917
25,3,0.5,0.0625,35.0,1,1.0,0.8054000000000059
26,3,0.5,0.0625,35.0,-1,0.0,0.675699999999992
27,3,0.5,0.0,35.0,1,1.0,0.48210000000000264
28,3,0.5,0.25,-35.0,-1,1.0,0.5452999999999832
29,3,0.5,0.0625,35.0,1,1.0,0.4480999999999966
30,3,0.5,1.0,35.0,1,1.0,0.2236999999999938
31,3,0.5,0.25,-35.0,-1,1.0,0.20399999999999352
32,3,0.5,0.25,35.0,1,1.0,0.37760000000000105
33,3,0.5,0.0625,-35.0,-1,1.0,0.3289999999999935
34,3,0.5,0.25,35.0,-1,0.0,0.1950000000000074
35,3,0.5,0.0625,35.0,1,1.0,1.1363000000000056
36,3,0.5,0.125,35.0,1,1.0,0.5755999999999943
37,3,0.5,0.125,-35.0,-1,1.0,0.6371999999999929
38,3,0.5,1.0,-35.0,-1,1.0,0.27309999999999945
39,3,0.5,0.0625,-35.0,1,0.0,0.3856999999999857
40,3,0.5,0.0625,35.0,1,1.0,0.9713999999999885
41,3,0.5,0.0,35.0,-1,0.0,0.31110000000001037
42,3,0.5,0.125,-35.0,-1,1.0,0.1220000000000141
43,3,0.5,0.25,35.0,1,1.0,0.4297000000000253
44,3,0.5,0.125,-35.0,-1,1.0,0.28239999999999554
45,3,0.5,0.25,35.0,1,1.0,0.3126000000000033
46,3,0.5,0.25,35.0,1,1.0,0.31490000000002283
47,3,0.5,0.25,35.0,1,1.0,0.22679999999999723
48,3,0.5,0.25,35.0,1,1.0,0.19599999999999795
49,3,0.5,0.125,35.0,1,1.0,0.25839999999999463
50,3,0.5,0.25,35.0,1,1.0,0.21640000000002146
51,3,0.5,1.0,-35.0,-1,1.0,0.19360000000000355
52,3,0.5,0.0625,35.0,-1,0.0,0.35820000000001073
53,3,0.5,0.25,35.0,1,1.0,0.25950000000000273
54,3,0.5,0.0625,35.0,1,1.0,0.35190000000000055
55,3,0.5,0.25,35.0,1,1.0,0.3094000000000392
56,3,0.5,1.0,-35.0,-1,1.0,0.590299999999985
57,3,0.5,0.0625,-35.0,-1,1.0,2.4220000000000255
58,3,0.5,0.125,-35.0,-1,1.0,0.6674999999999898
59,3,0.5,0.0,-35.0,1,0.0,0.48380000000000223
60,3,0.5,0.25,35.0,1,1.0,0.29110000000002856
61,3,0.5,0.25,35.0,-1,0.0,0.1676999999999964
62,3,0.5,1.0,35.0,1,1.0,0.2663000000000011
63,3,0.5,0.125,35.0,1,1.0,0.5100999999999942
64,3,0.5,1.0,35.0,1,1.0,0.22640000000001237
65,3,0.5,0.25,-35.0,-1,1.0,0.5257000000000005
66,3,0.5,0.0625,-35.0,1,0.0,0.43190000000001305
67,3,0.5,1.0,-35.0,-1,1.0,0.3760000000000048
68,3,0.5,1.0,-35.0,-1,1.0,0.3251000000000204
69,3,0.5,0.25,-35.0,-1,1.0,0.22030000000000882
70,3,0.5,0.25,-35.0,-1,1.0,0.1414000000000044
71,3,0.5,0.0625,35.0,1,1.0,0.35769999999999413
72,3,0.5,0.125,35.0,1,1.0,0.2915000000000134
73,3,0.5,1.0,-35.0,-1,1.0,0.3713999999999942
74,3,0.5,0.25,35.0,1,1.0,0.24250000000000682
75,3,0.5,0.0625,35.0,1,1.0,0.3505000000000109
76,3,0.5,1.0,-35.0,-1,1.0,0.30719999999996617
77,3,0.5,0.125,35.0,1,1.0,0.3103999999999587
78,3,0.5,1.0,35.0,1,1.0,0.17189999999999372
79,3,0.5,0.125,-35.0,-1,1.0,0.5808000000000106
80,3,0.5,0.125,35.0,1,1.0,0.14650000000000318
81,3,0.5,0.0,-35.0,1,0.0,0.2518000000000029
82,3,0.5,0.125,-35.0,1,0.0,0.31409999999999627
83,3,0.5,0.25,-35.0,-1,1.0,0.4071999999999889
84,3,0.5,0.125,-35.0,-1,1.0,0.42880000000002383
85,3,0.5,1.0,-35.0,-1,1.0,0.2547000000000139
86,3,0.5,1.0,35.0,1,1.0,0.2541999999999689
87,3,0.5,0.25,-35.0,-1,1.0,0.4563999999999737
88,3,0.5,0.125,35.0,1,1.0,0.43329999999997426
89,3,0.5,0.25,-35.0,-1,1.0,0.2667999999999324
90,3,0.5,0.125,35.0,1,1.0,0.9390999999999963
91,3,0.8,0.0625,-35.0,-1,1.0,0.30299999999999727
92,3,0.8,1.0,-35.0,-1,1.0,0.2796999999999912
93,3,0.8,1.0,35.0,1,1.0,0.33649999999994407
94,3,0.8,0.125,35.0,-1,0.0,0.1636999999999489
95,3,0.8,0.0625,-35.0,-1,1.0,0.32099999999996953
96,3,0.8,1.0,-35.0,-1,1.0,0.2576000000000249
97,3,0.8,0.0,-35.0,1,0.0,0.9355999999999653
98,3,0.8,1.0,-35.0,-1,1.0,0.363900000000001
99,3,0.8,0.0625,-35.0,-1,1.0,0.21599999999995134
100,3,0.8,0.25,35.0,1,1.0,0.2845999999999549
101,3,0.8,1.0,-35.0,-1,1.0,0.281599999999969
102,3,0.8,0.125,-35.0,-1,1.0,0.33490000000000464
103,3,0.8,1.0,-35.0,-1,1.0,0.233099999999979
104,3,0.8,0.0625,-35.0,-1,1.0,0.37319999999994025
105,3,0.8,0.0,-35.0,-1,1.0,2.003499999999974
106,3,0.8,0.0625,-35.0,-1,1.0,0.37709999999998445
107,3,0.8,0.125,-35.0,-1,1.0,0.34199999999998454
108,3,0.8,0.0625,-35.0,-1,1.0,0.6049999999999613
109,3,0.8,0.0625,-35.0,-1,1.0,0.2596999999999525
110,3,0.8,0.125,-35.0,-1,1.0,0.179300000000012
111,3,0.8,0.0,-35.0,-1,1.0,0.2858999999999696
112,3,0.8,0.125,-35.0,-1,1.0,0.3676999999999566
113,3,0.8,1.0,-35.0,-1,1.0,0.09640000000001692
114,3,0.8,0.0625,-35.0,-1,1.0,0.32579999999995835
115,3,0.8,0.25,-35.0,-1,1.0,0.27470000000005257
116,3,0.8,0.25,-35.0,-1,1.0,0.2943000000000211
117,3,0.8,0.0,35.0,-1,0.0,0.3994999999999891
118,3,0.8,0.125,-35.0,-1,1.0,0.2577999999999747
119,3,0.8,0.0625,35.0,-1,0.0,0.22479999999995925
120,3,0.8,0.25,35.0,1,1.0,0.289100000000019
121,3,0.8,0.25,35.0,1,1.0,0.2787000000000148
122,3,0.8,1.0,-35.0,-1,1.0,0.19460000000003674
123,3,0.8,0.25,-35.0,-1,1.0,0.27309999999999945
124,3,0.8,1.0,-35.0,-1,1.0,0.2836000000000354
125,3,0.8,0.0625,-35.0,-1,1.0,0.5321999999999321
126,3,0.8,0.125,-35.0,-1,1.0,0.2411999999999921
127,3,0.8,0.0625,35.0,-1,0.0,0.45779999999996335
128,3,0.8,0.125,35.0,-1,0.0,0.46809999999999263
129,3,0.8,0.0625,-35.0,-1,1.0,0.33299999999997
130,3,0.8,0.0625,-35.0,-1,1.0,0.6386999999999716
131,3,0.8,0.125,-35.0,-1,1.0,0.321899999999971
132,3,0.8,1.0,-35.0,-1,1.0,0.19789999999994734
133,3,0.8,0.125,-35.0,-1,1.0,0.24639999999993734
134,3,0.8,0.0625,-35.0,-1,1.0,0.4714999999999918
135,3,0.8,0.125,-35.0,-1,1.0,0.18049999999993815
136,3,0.8,0.125,-35.0,-1,1.0,0.17679999999995744
137,3,0.8,0.0625,-35.0,-1,1.0,0.27780000000001337
138,3,0.8,0.125,-35.0,-1,1.0,0.2477999999999838
139,3,0.8,0.0625,35.0,-1,0.0,1.1462999999999965
140,3,0.8,0.0625,-35.0,-1,1.0,0.4520999999999731
141,3,0.8,0.0,-35.0,-1,1.0,0.6680000000000064
142,3,0.8,0.25,-35.0,-1,1.0,0.21109999999998763
143,3,0.8,0.0625,-35.0,-1,1.0,0.37239999999997053
144,3,0.8,0.0625,35.0,-1,0.0,0.2898000000000138
145,3,0.8,0.25,-35.0,-1,1.0,0.38900000000001
146,3,0.8,1.0,-35.0,-1,1.0,0.2635999999999967
147,3,0.8,0.0,-35.0,1,0.0,0.4286999999999921
148,3,0.8,0.125,-35.0,-1,1.0,0.23779999999993606
149,3,0.8,0.125,-35.0,-1,1.0,0.23730000000006157
150,3,0.8,0.0625,-35.0,-1,1.0,0.2895000000000323
151,3,0.8,0.0625,-35.0,-1,1.0,0.20019999999988158
152,3,0.8,0.0,-35.0,-1,1.0,0.1550999999999476
153,3,0.8,0.125,-35.0,-1,1.0,0.17380000000002838
154,3,0.8,0.0625,35.0,-1,0.0,0.5432000000000698
155,3,0.8,0.125,35.0,-1,0.0,0.2683000000000675
156,3,0.8,1.0,-35.0,-1,1.0,0.30169999999998254
157,3,0.8,0.125,35.0,1,1.0,0.35349999999994
158,3,0.8,1.0,-35.0,1,0.0,0.041600000000016735
159,3,0.8,0.0,-35.0,1,0.0,0.46499999999991815
160,3,0.8,0.0625,-35.0,-1,1.0,0.26139999999998054
161,3,0.8,0.25,-35.0,-1,1.0,0.2158999999999196
162,3,0.8,0.0,-35.0,-1,1.0,0.28159999999991214
163,3,0.8,0.25,35.0,1,1.0,0.48660000000006676
164,3,0.8,0.125,-35.0,-1,1.0,0.3083000000000311
165,3,0.8,0.125,-35.0,1,0.0,0.6652999999998883
166,3,0.8,0.25,-35.0,-1,1.0,0.5055999999999585
167,3,0.8,1.0,35.0,1,1.0,0.3004999999999427
168,3,0.8,1.0,-35.0,-1,1.0,0.25919999999996435
169,3,0.8,0.25,-35.0,-1,1.0,2.38130000000001
170,3,0.8,1.0,35.0,1,1.0,1.4199999999998454
171,3,0.8,0.0,35.0,-1,0.0,0.1874000000000251
172,3,0.8,0.25,-35.0,-1,1.0,0.30129999999996926
173,3,0.8,1.0,-35.0,-1,1.0,0.334699999999998
174,3,0.8,0.0625,-35.0,1,0.0,7.576900000000023
175,3,0.8,1.0,-35.0,-1,1.0,0.3489999999999327
176,3,0.8,1.0,-35.0,-1,1.0,0.23480000000006385
177,3,0.8,0.25,-35.0,-1,1.0,0.2199999999999136
178,3,0.8,0.25,-35.0,-1,1.0,0.25319999999999254
179,3,0.2,0.0,35.0,-1,0.0,5.20799999999997
180,3,0.2,0.125,35.0,1,1.0,0.3482000000000198
181,3,0.2,0.25,35.0,1,1.0,0.3086999999999307
182,3,0.2,0.0625,35.0,1,1.0,0.67450000000008
183,3,0.2,1.0,35.0,1,1.0,0.23530000000005202
184,3,0.2,0.25,-35.0,-1,1.0,0.24069999999983338
185,3,0.2,0.25,35.0,1,1.0,0.22680000000002565
186,3,0.2,1.0,35.0,1,1.0,0.2841999999999416
187,3,0.2,0.25,35.0,1,1.0,0.23420000000010077
188,3,0.2,0.0625,35.0,1,1.0,0.27609899999993104
189,3,0.2,0.125,35.0,1,1.0,0.4851000000001022
190,3,0.2,0.0,-35.0,1,0.0,0.6117000000000417
191,3,0.2,0.25,35.0,1,1.0,0.44629999999995107
192,3,0.2,1.0,35.0,1,1.0,0.2621000000000322
193,3,0.2,0.0625,35.0,-1,0.0,0.3487999999999829
194,3,0.2,0.0625,35.0,1,1.0,0.34799999999995634
195,3,0.2,0.125,35.0,1,1.0,0.24519999999995434
196,3,0.2,0.125,35.0,1,1.0,0.3067000000000917
197,3,0.2,1.0,-35.0,1,0.0,0.1714999999999236
198,3,0.2,1.0,-35.0,-1,1.0,0.510900000000106
199,3,0.2,0.25,35.0,1,1.0,0.2785999999999831
200,3,0.2,0.0,35.0,1,1.0,0.3140999999999394
201,3,0.2,0.125,35.0,1,1.0,0.25890000000003965
202,3,0.2,0.125,35.0,1,1.0,0.44039999999995416
203,3,0.2,0.25,35.0,1,1.0,0.36059999999986303
204,3,0.2,1.0,-35.0,-1,1.0,0.3987999999999374
205,3,0.2,1.0,35.0,1,1.0,0.2540999999998803
206,3,0.2,0.0625,35.0,1,1.0,0.3992000000000644
207,3,0.2,0.25,35.0,1,1.0,0.23230000000000928
208,3,0.2,0.25,35.0,1,1.0,0.2660999999999376
209,3,0.2,1.0,35.0,1,1.0,0.33789999999999054
210,3,0.2,1.0,35.0,1,1.0,0.1974999999999909
211,3,0.2,1.0,35.0,1,1.0,0.2597999999999274
212,3,0.2,0.0,35.0,-1,0.0,0.37609999999995125
213,3,0.2,0.0,35.0,-1,0.0,11.079899999999952
214,3,0.2,0.25,35.0,1,1.0,0.3328000000000202
215,3,0.2,0.0625,-35.0,-1,1.0,0.2659999999999627
216,3,0.2,0.25,35.0,1,1.0,0.327199999999948
217,3,0.2,1.0,35.0,1,1.0,0.09709999999995489
218,3,0.8,0.0625,-35.0,-1,1.0,0.7395000000000209
219,3,0.8,0.0625,-35.0,-1,1.0,0.5909000000000333
220,3,0.8,0.0,-35.0,-1,1.0,0.4560999999998785
221,3,0.8,0.0625,-35.0,-1,1.0,0.3423999999999978
222,3,0.8,0.0,-35.0,-1,1.0,0.3048000000000002
223,3,0.8,0.0625,-35.0,-1,1.0,0.25070000000005166
224,3,0.8,0.125,-35.0,-1,1.0,0.3048999999999751
225,3,0.8,0.0625,-35.0,-1,1.0,0.21709999999984575
226,3,0.8,0.25,-35.0,-1,1.0,0.17399999999997817
227,3,0.8,0.0,-35.0,-1,1.0,0.5305999999999358
228,3,0.8,1.0,-35.0,-1,1.0,0.23910000000000764
229,3,0.8,0.0625,-35.0,1,0.0,0.3180999999999585
230,3,0.8,1.0,35.0,1,1.0,0.24969999999996162
231,3,0.8,0.125,-35.0,-1,1.0,0.2925999999998794
232,3,0.8,0.125,-35.0,-1,1.0,0.313199999999938
233,3,0.8,0.0625,35.0,-1,0.0,0.529700000000048
234,3,0.8,1.0,35.0,1,1.0,0.470299999999952
235,3,0.8,0.0,-35.0,-1,1.0,0.2899999999999636
236,3,0.8,0.0625,-35.0,-1,1.0,0.3464999999999918
237,3,0.8,1.0,-35.0,-1,1.0,0.2357999999999265
238,3,0.8,0.125,-35.0,-1,1.0,0.27940000000000964
239,3,0.8,1.0,35.0,1,1.0,0.254099999999994
240,3,0.8,0.0625,35.0,1,1.0,0.5733000000000175
241,3,0.8,1.0,-35.0,-1,1.0,0.25339999999994234
242,3,0.8,1.0,-35.0,-1,1.0,0.20420000000001437
243,3,0.8,0.125,35.0,1,1.0,0.32330000000001746
244,3,0.8,0.125,-35.0,-1,1.0,0.417699999999968
245,3,0.8,0.25,-35.0,1,0.0,0.6743999999999915
246,3,0.8,0.0625,-35.0,-1,1.0,0.5943999999999505
247,3,0.8,1.0,35.0,1,1.0,0.26290000000005875
248,3,0.8,1.0,35.0,1,1.0,0.24079999999992197
249,3,0.8,0.0625,-35.0,1,0.0,0.5392000000000507
250,3,0.8,1.0,-35.0,-1,1.0,0.20059999999989486
251,3,0.8,1.0,35.0,1,1.0,0.34809999999993124
252,3,0.8,1.0,35.0,1,1.0,0.2500999999998612
253,3,0.8,0.0,-35.0,1,0.0,0.8790000000000191
254,3,0.8,0.25,-35.0,-1,1.0,0.1777999999999338
255,3,0.8,0.0625,35.0,1,1.0,1.0264000000000806
256,3,0.8,0.25,-35.0,-1,1.0,0.3291999999999007
257,3,0.2,0.0625,-35.0,-1,1.0,0.24919999999997344
258,3,0.2,0.25,35.0,1,1.0,0.296100000000024
259,3,0.2,0.125,35.0,1,1.0,0.3190999999999349
260,3,0.2,0.0,35.0,1,1.0,0.3482999999999947
261,3,0.2,0.0625,35.0,1,1.0,0.8225999999999658
262,3,0.2,0.0,35.0,1,1.0,0.8119000000000369
263,3,0.2,0.0,35.0,-1,0.0,0.30129999999996926
264,3,0.2,0.0625,35.0,-1,0.0,0.44659999999998945
265,3,0.2,0.0625,35.0,1,1.0,0.6335000000000264
266,3,0.2,0.25,-35.0,-1,1.0,0.3007000000000062
267,3,0.2,1.0,35.0,1,1.0,0.2879999999998972
268,3,0.2,1.0,35.0,1,1.0,0.2607999999999038
269,3,0.2,1.0,35.0,1,1.0,0.33969999999999345
270,3,0.2,0.0625,35.0,1,1.0,0.40629999999987376
271,3,0.2,0.125,35.0,1,1.0,0.4856999999999516
272,3,0.2,0.125,35.0,1,1.0,0.2622000000000071
273,3,0.2,0.125,-35.0,1,0.0,0.5329999999999018
274,3,0.2,1.0,-35.0,-1,1.0,0.1777999999999338
275,3,0.2,0.0625,35.0,1,1.0,0.3897999999999229
276,3,0.2,1.0,35.0,1,1.0,0.2558999999999969
277,3,0.2,0.25,35.0,-1,0.0,0.18469999999990705
278,3,0.2,1.0,-35.0,-1,1.0,0.2800999999999476
279,3,0.2,1.0,35.0,1,1.0,0.30319999999994707
280,3,0.2,1.0,35.0,1,1.0,0.2825000000000273
281,3,0.2,1.0,35.0,1,1.0,0.26900000000000546
282,3,0.2,0.25,-35.0,-1,1.0,0.5962000000000671
283,3,0.2,1.0,35.0,1,1.0,0.3447999999999638
284,3,0.2,0.25,35.0,1,1.0,0.2921999999999798
285,3,0.2,0.0625,-35.0,1,0.0,0.2678999999999405
286,3,0.2,1.0,-35.0,-1,1.0,0.4272999999999456
287,3,0.2,0.25,-35.0,-1,1.0,0.31339999999988777
288,3,0.2,0.25,35.0,1,1.0,0.31749999999999545
289,3,0.2,0.125,35.0,1,1.0,0.2621999999998934
290,3,0.2,0.25,35.0,1,1.0,0.3966000000000349
291,3,0.2,0.25,35.0,1,1.0,0.3167000000000826
292,3,0.2,0.0625,-35.0,1,0.0,0.6872999999999365
293,3,0.2,0.25,35.0,1,1.0,0.25289999999995416
294,3,0.2,0.0,35.0,1,1.0,0.3007000000000062
295,3,0.2,0.25,35.0,1,1.0,0.30370000000004893
296,3,0.2,1.0,35.0,1,1.0,0.29280000000005657
297,3,0.2,0.25,35.0,-1,0.0,0.16790000000003147
298,3,0.2,0.125,-35.0,-1,1.0,0.4611000000001013
299,3,0.2,0.125,35.0,1,1.0,0.32179999999993925
300,3,0.2,1.0,35.0,1,1.0,0.5314999999999372
301,3,0.2,0.125,35.0,-1,0.0,0.181699999999978
302,3,0.2,1.0,-35.0,-1,1.0,0.21489999999994325
303,3,0.2,0.25,-35.0,-1,1.0,0.2053000000000793
304,3,0.2,0.125,35.0,1,1.0,0.3448000000000775
305,3,0.2,0.125,35.0,1,1.0,0.25510000000008404
306,3,0.2,0.0625,35.0,-1,0.0,0.1550000000002001
307,3,0.2,1.0,35.0,1,1.0,0.2924000000000433
308,3,0.2,0.125,35.0,1,1.0,0.5385000000001128
309,3,0.2,0.25,35.0,1,1.0,0.229200000000219
310,3,0.2,0.125,35.0,1,1.0,0.3057000000001153
311,3,0.2,0.25,35.0,1,1.0,0.2858000000001084
312,3,0.2,0.0,35.0,1,1.0,0.3062000000002172
313,3,0.2,1.0,35.0,-1,0.0,0.11629999999991014
314,3,0.2,0.0625,-35.0,-1,1.0,0.5658000000000811
315,3,0.2,0.0,35.0,-1,0.0,0.3728000000000975
316,3,0.2,0.25,35.0,1,1.0,0.3061000000002423
317,3,0.2,0.25,35.0,1,1.0,0.4293999999999869
318,3,0.2,0.25,35.0,1,1.0,0.3627000000001317
319,3,0.2,0.0,-35.0,1,0.0,0.4795000000001437
320,3,0.2,0.0625,35.0,1,1.0,1.659800000000132
321,3,0.2,0.25,35.0,1,1.0,0.3971999999998843
322,3,0.2,0.25,35.0,1,1.0,0.3004000000000815
323,3,0.2,0.25,35.0,1,1.0,0.2938000000001466
324,3,0.2,0.0625,35.0,1,1.0,0.3367000000000644
325,3,0.2,0.125,35.0,1,1.0,0.7069000000001324
326,3,0.2,1.0,35.0,1,1.0,0.2802999999998974
327,3,0.2,1.0,35.0,1,1.0,0.3874000000000706
328,3,0.2,0.0625,35.0,1,1.0,0.3204000000000633
329,3,0.2,0.25,35.0,1,1.0,0.24810000000024957
330,3,0.2,1.0,35.0,1,1.0,0.23400000000015098
331,3,0.2,0.0625,35.0,1,1.0,0.27110000000016043
332,3,0.2,1.0,35.0,1,1.0,0.33409999999980755
333,3,0.2,0.0625,35.0,1,1.0,0.6248000000002776
334,3,0.2,0.125,35.0,1,1.0,0.2875000000001364
335,3,0.2,0.125,35.0,1,1.0,0.2781000000002223
336,3,0.2,0.0625,35.0,1,1.0,0.17770000000018626
337,3,0.2,0.125,35.0,1,1.0,0.2615000000000691
338,3,0.2,0.0625,35.0,1,1.0,1.1552000000001499
339,3,0.2,0.0625,35.0,1,1.0,0.7221000000001823
340,3,0.2,0.125,35.0,1,1.0,0.0783000000001266
341,3,0.2,0.25,35.0,1,1.0,0.31860000000028776
342,3,0.2,0.0,35.0,1,1.0,0.5217999999999847
343,3,0.2,1.0,35.0,1,1.0,0.2319999999999709
344,3,0.2,1.0,35.0,1,1.0,0.33560000000011314
345,3,0.2,0.25,35.0,1,1.0,0.262000000000171
346,3,0.2,0.0625,-35.0,1,0.0,0.7756000000001677
347,3,0.2,0.25,-35.0,-1,1.0,0.28890000000001237
348,3,0.2,0.0625,35.0,1,1.0,0.7423000000003412
349,3,0.2,0.0625,35.0,1,1.0,0.24930000000017571
350,3,0.2,0.25,35.0,1,1.0,0.23949999999990723
351,3,0.8,0.0625,35.0,1,1.0,0.18249999999989086
352,3,0.8,0.0,-35.0,-1,1.0,0.8360000000000127
353,3,0.8,0.25,-35.0,-1,1.0,0.315900000000056
354,3,0.8,0.0625,35.0,-1,0.0,0.3193999999998596
355,3,0.8,0.125,-35.0,-1,1.0,0.2868999999998323
356,3,0.8,0.25,-35.0,-1,1.0,0.21310000000039508
357,3,0.8,0.125,-35.0,-1,1.0,0.22300000000018372
358,3,0.8,0.0,-35.0,-1,1.0,3.029600000000073
359,3,0.8,0.125,-35.0,-1,1.0,0.33360000000016043
360,3,0.8,0.125,-35.0,-1,1.0,0.40990000000010696
361,3,0.8,0.0625,-35.0,-1,1.0,0.7407000000002881
362,3,0.8,0.0625,-35.0,-1,1.0,0.9903000000001612
363,3,0.8,0.0625,35.0,-1,0.0,0.23710000000005493
364,3,0.8,0.25,-35.0,-1,1.0,0.27120000000013533
365,3,0.8,1.0,-35.0,-1,1.0,0.2438999999999396
366,3,0.8,1.0,-35.0,-1,1.0,0.23390000000017608
367,3,0.8,0.25,-35.0,-1,1.0,0.25050000000010186
368,3,0.8,0.0625,-35.0,-1,1.0,0.19060000000013133
369,3,0.8,0.0625,-35.0,-1,1.0,0.2039999999999509
370,3,0.8,0.125,-35.0,-1,1.0,0.22769999999991342
371,3,0.8,0.25,-35.0,-1,1.0,0.21810000000004948
372,3,0.8,0.0625,-35.0,-1,1.0,0.2480000000000473
373,3,0.2,0.125,35.0,-1,0.0,0.3209999999999127
374,3,0.2,1.0,35.0,1,1.0,0.11530000000016116
375,3,0.2,0.25,35.0,1,1.0,0.34770000000003165
376,3,0.2,0.0625,-35.0,-1,1.0,0.45810000000005857
377,3,0.2,0.25,35.0,1,1.0,0.45470000000000255
378,3,0.2,0.25,35.0,1,1.0,0.27800000000002
379,3,0.2,0.0,35.0,-1,0.0,0.4354000000000724
380,3,0.2,1.0,-35.0,-1,1.0,0.291700000000219
381,3,0.2,0.125,-35.0,-1,1.0,0.8449000000000524
382,3,0.2,0.125,35.0,1,1.0,0.36510000000021137
383,3,0.2,0.0,35.0,-1,0.0,0.5615999999999985
384,3,0.2,0.25,35.0,1,1.0,0.29850000000033106
385,3,0.2,0.125,35.0,1,1.0,0.38580000000001746
386,3,0.2,1.0,35.0,1,1.0,0.285200000000259
387,3,0.2,0.125,35.0,1,1.0,0.6060000000002219
388,3,0.2,0.25,35.0,1,1.0,0.47220000000015716
389,3,0.2,0.25,35.0,-1,0.0,0.1126000000001568
390,3,0.2,1.0,35.0,1,1.0,2.5123000000000957
391,3,0.2,0.25,-35.0,-1,1.0,0.21600000000034925
392,3,0.2,0.0625,35.0,-1,0.0,1.6294000000000324
393,3,0.2,1.0,35.0,1,1.0,0.2726999999999862
394,3,0.2,0.0625,35.0,1,1.0,0.3629000000000815
395,3,0.2,0.125,-35.0,-1,1.0,0.2962000000002263
396,3,0.2,0.0625,35.0,-1,0.0,0.2296000000001186
397,3,0.2,1.0,35.0,-1,0.0,0.9704000000001543
398,3,0.2,1.0,35.0,1,1.0,0.2867999999998574
399,3,0.2,0.25,35.0,1,1.0,0.5432000000000698
400,3,0.2,0.0625,35.0,1,1.0,0.8002000000001317
401,3,0.2,1.0,35.0,1,1.0,0.2372000000002572
402,3,0.2,0.25,35.0,1,1.0,0.23710000000005493
403,3,0.2,0.25,35.0,1,1.0,0.2940000000000964
404,3,0.2,0.0,35.0,1,1.0,1.0004999999998745
405,3,0.2,0.125,-35.0,-1,1.0,0.5141000000000986
406,3,0.2,0.0625,35.0,1,1.0,9.713900000000194
407,3,0.2,0.25,35.0,1,1.0,0.3476000000002841
408,3,0.2,0.0,35.0,1,1.0,9.550800000000208
409,3,0.2,0.0,35.0,-1,0.0,0.231899999999996
410,3,0.2,1.0,35.0,1,1.0,0.26470000000017535
411,3,0.2,1.0,35.0,1,1.0,0.311500000000251
412,3,0.2,0.125,35.0,1,1.0,0.26870000000008076
413,3,0.2,0.0625,35.0,1,1.0,0.34510000000022956
414,3,0.2,0.0,35.0,1,1.0,0.8720000000000709
415,3,0.2,0.0,35.0,1,1.0,0.5384000000001379
416,3,0.2,1.0,35.0,1,1.0,0.2723000000000866
417,3,0.2,1.0,35.0,1,1.0,0.24260000000026594
418,3,0.2,1.0,-35.0,-1,1.0,0.46210000000019136
419,3,0.2,0.25,35.0,1,1.0,0.24880000000007385
420,3,0.2,0.0625,35.0,1,1.0,0.352500000000191
421,3,0.2,0.125,35.0,1,1.0,0.28899999999998727
422,3,0.2,0.0625,35.0,1,1.0,0.32600000000002183
423,3,0.2,0.25,35.0,1,1.0,0.21900000000005093
424,3,0.2,0.0,35.0,1,1.0,0.28930000000013933
425,3,0.2,0.25,35.0,1,1.0,0.26280000000019754
426,3,0.2,0.125,35.0,1,1.0,0.29320000000006985
427,3,0.2,1.0,35.0,1,1.0,0.21280000000024302
428,3,0.2,0.125,35.0,1,1.0,0.35300000000029286
429,3,0.2,0.25,-35.0,-1,1.0,0.28320000000007894
430,3,0.2,1.0,35.0,1,1.0,0.24630000000001928
431,3,0.2,0.0,35.0,1,1.0,0.6764000000000578
432,3,0.2,0.0,35.0,1,1.0,0.38370000000031723
433,3,0.2,0.0625,35.0,1,1.0,0.3299000000001797
434,3,0.2,0.125,35.0,1,1.0,0.4070999999999003
435,3,0.2,0.25,35.0,1,1.0,0.1103000000002794
436,3,0.2,0.25,35.0,1,1.0,0.21400000000016917
437,3,0.2,0.125,35.0,1,1.0,0.4976000000003751
438,3,0.2,0.125,35.0,1,1.0,0.2876000000001113
439,3,0.2,0.0,35.0,1,1.0,0.22759999999993852
440,3,0.2,1.0,-35.0,-1,1.0,0.294399999999996
441,3,0.2,0.25,35.0,1,1.0,0.2877000000000862
442,3,0.2,0.0625,35.0,1,1.0,0.28450000000020736
443,3,0.2,0.25,-35.0,-1,1.0,0.32120000000008986
444,3,0.2,1.0,35.0,1,1.0,0.2414000000003398
445,3,0.2,0.0625,35.0,1,1.0,0.37820000000010623
446,3,0.2,1.0,35.0,1,1.0,0.268100000000004
447,3,0.2,1.0,35.0,1,1.0,0.26490000000012515
448,3,0.2,0.125,35.0,-1,0.0,2.1017000000001644
449,3,0.2,1.0,35.0,1,1.0,0.23510000000010223
450,3,0.2,1.0,-35.0,-1,1.0,0.24520000000006803
451,3,0.2,1.0,35.0,1,1.0,0.26539999999999964
452,3,0.2,0.25,35.0,1,1.0,0.37540000000012697
453,3,0.2,1.0,35.0,1,1.0,0.2355000000002292
454,3,0.2,0.125,35.0,1,1.0,0.2722000000001117
455,3,0.2,1.0,35.0,1,1.0,0.245600000000195
456,3,0.2,0.25,-35.0,-1,1.0,0.26569999999992433
457,3,0.2,0.0,35.0,-1,0.0,4.199100000000044
458,3,0.2,0.25,35.0,1,1.0,0.46260000000006585
459,3,0.2,0.0,35.0,-1,0.0,1.3594000000000506
460,3,0.2,1.0,-35.0,-1,1.0,0.2863000000002103
461,3,0.2,0.25,35.0,-1,0.0,5.996200000000044
462,3,0.2,0.0625,35.0,1,1.0,12.939800000000105
463,3,0.8,0.25,35.0,1,1.0,3.370400000000245
464,3,0.8,1.0,-35.0,-1,1.0,0.6404999999999745
465,3,0.8,1.0,35.0,1,1.0,0.330600000000004
466,3,0.8,0.125,-35.0,-1,1.0,0.4939999999999145
467,3,0.8,0.125,-35.0,-1,1.0,0.364100000000235
468,3,0.8,0.25,35.0,1,1.0,0.33750000000009095
469,3,0.8,0.25,-35.0,-1,1.0,0.2942000000000462
470,3,0.8,0.25,-35.0,-1,1.0,0.4410000000000309
471,3,0.8,0.25,-35.0,-1,1.0,3.6277999999999793
472,3,0.8,1.0,-35.0,-1,1.0,0.27470000000016626
473,3,0.8,0.125,-35.0,-1,1.0,3.771400000000085
474,3,0.8,0.0625,-35.0,1,0.0,0.6648000000000138
475,3,0.8,0.25,-35.0,-1,1.0,0.241800000000012
476,3,0.8,0.25,-35.0,-1,1.0,0.3351999999999862
477,3,0.8,0.125,-35.0,-1,1.0,2.998600000000124
478,3,0.8,1.0,-35.0,-1,1.0,0.32529999999997017
479,3,0.8,0.25,-35.0,-1,1.0,0.37550000000010186
480,3,0.8,0.0,-35.0,-1,1.0,19.408899999999903
481,3,0.8,0.25,35.0,-1,0.0,1.179399999999987
482,3,0.8,0.125,-35.0,-1,1.0,0.3562000000001717
483,3,0.8,0.0625,-35.0,-1,1.0,0.31960000000003674
484,3,0.8,1.0,-35.0,-1,1.0,0.28310000000010405
485,3,0.8,1.0,35.0,1,1.0,0.3797990000000482
486,3,0.8,0.125,35.0,1,1.0,0.2998999999999796
487,3,0.8,0.25,-35.0,-1,1.0,0.303300000000263
488,3,0.8,0.0625,-35.0,-1,1.0,3.4067000000000007
489,3,0.8,0.0625,-35.0,-1,1.0,0.43020000000001346
490,3,0.8,0.25,-35.0,-1,1.0,0.25020000000017717
491,3,0.8,0.25,-35.0,-1,1.0,0.30700000000001637
492,3,0.8,0.0,-35.0,1,0.0,0.5737000000001444
493,3,0.8,1.0,35.0,1,1.0,0.2539000000001579
494,3,0.2,0.125,35.0,1,1.0,0.5037999999999556
495,3,0.2,0.125,-35.0,-1,1.0,0.5274000000001706
496,3,0.2,0.25,35.0,1,1.0,0.2541000000001077
497,3,0.2,0.125,35.0,-1,0.0,0.03760000000011132
498,3,0.2,0.25,35.0,1,1.0,0.314200000000028
499,3,0.2,0.125,35.0,1,1.0,3.3910000000000764
500,3,0.2,0.0625,-35.0,-1,1.0,0.5944000000001779
501,3,0.2,0.0625,35.0,1,1.0,0.4512999999999465
502,3,0.2,0.125,35.0,1,1.0,0.2845999999999549
503,3,0.2,0.125,-35.0,1,0.0,0.3848000000000411
504,3,0.2,1.0,35.0,1,1.0,0.2615000000000691
505,3,0.2,0.25,-35.0,-1,1.0,0.2416000000000622
506,3,0.2,1.0,-35.0,-1,1.0,0.21840000000020154
507,3,0.2,1.0,35.0,1,1.0,0.23500000000012733
508,3,0.2,1.0,35.0,1,1.0,0.2318000000000211
509,3,0.2,0.25,-35.0,-1,1.0,0.28860000000031505
510,3,0.2,0.0625,35.0,-1,0.0,4.982000000000198
511,3,0.2,1.0,35.0,1,1.0,0.17220000000020264
512,3,0.2,1.0,35.0,1,1.0,0.2722000000001117
513,3,0.2,0.0,35.0,1,1.0,0.38570000000004256
514,3,0.2,0.0,35.0,-1,0.0,3.962400000000116
515,3,0.2,0.25,35.0,1,1.0,7.122700000000123
516,3,0.2,0.25,-35.0,-1,1.0,2.349600000000237
517,3,0.2,0.125,-35.0,-1,1.0,0.533100000000104
518,3,0.2,0.25,-35.0,-1,1.0,0.27320000000008804
519,3,0.2,0.25,35.0,1,1.0,0.2399000000000342
520,3,0.2,0.0625,35.0,1,1.0,0.34999999999990905
521,3,0.2,0.125,35.0,1,1.0,3.760099999999966
522,3,0.2,0.25,35.0,1,1.0,0.5002000000001772
523,3,0.2,0.125,35.0,1,1.0,1.9570000000003347
524,3,0.2,0.25,35.0,1,1.0,0.5506000000000313
525,3,0.2,1.0,-35.0,-1,1.0,0.24050000000011096
526,3,0.2,0.125,35.0,1,1.0,0.4172000000000935
527,3,0.2,0.125,-35.0,-1,1.0,0.30730000000016844
528,3,0.2,1.0,35.0,1,1.0,0.2775000000001455
529,3,0.2,0.25,35.0,1,1.0,0.25080000000002656
530,3,0.2,0.25,-35.0,-1,1.0,0.38750000000027285
531,3,0.2,0.125,35.0,1,1.0,0.2776000000001204
532,3,0.2,0.25,35.0,1,1.0,6.487700000000132
533,3,0.2,1.0,35.0,1,1.0,0.3612000000000535
534,3,0.2,1.0,35.0,1,1.0,0.13139999999998508
535,3,0.2,0.25,35.0,1,1.0,3.5715000000000146
536,3,0.2,0.25,-35.0,-1,1.0,0.4549000000001797
537,3,0.2,0.25,35.0,1,1.0,2.1949999999999363
538,3,0.2,0.0625,-35.0,-1,1.0,2.021800000000212
539,3,0.2,0.25,35.0,1,1.0,0.5287000000000717
540,3,0.2,0.25,35.0,1,1.0,4.582000000000107
541,3,0.2,0.25,35.0,1,1.0,2.4756999999999607
542,3,0.2,1.0,35.0,1,1.0,0.22250000000030923
543,3,0.2,1.0,35.0,1,1.0,0.4024000000001706
544,3,0.2,0.0,35.0,1,1.0,0.3425999999999476
545,3,0.2,1.0,35.0,1,1.0,2.546000000000049
546,3,0.2,0.0625,35.0,1,1.0,0.4862000000000535
547,3,0.2,0.0625,35.0,1,1.0,2.4161999999998898
548,3,0.2,0.125,35.0,1,1.0,6.803100000000086
549,3,0.2,0.125,35.0,1,1.0,0.4033000000001721
550,3,0.2,0.0,35.0,1,1.0,3.5000000000002274
551,3,0.2,0.125,35.0,1,1.0,0.6403000000000247
552,3,0.2,0.25,35.0,1,1.0,0.35370000000011714
553,3,0.2,0.125,35.0,1,1.0,0.2639000000001488
554,3,0.2,0.0,-35.0,1,0.0,5.820500000000038
555,3,0.2,0.125,35.0,1,1.0,0.4774999999999636
556,3,0.2,0.0,35.0,1,1.0,6.3275000000001
557,3,0.2,0.0,35.0,1,1.0,6.857800000000225
558,3,0.2,0.0625,35.0,1,1.0,0.308100000000195
559,3,0.2,0.125,35.0,1,1.0,0.5214000000000851
560,3,0.2,0.0625,35.0,1,1.0,3.9082000000003063
561,3,0.2,1.0,-35.0,-1,1.0,0.23830000000020846
562,3,0.2,0.25,35.0,1,1.0,1.6783000000000357
563,3,0.2,1.0,35.0,1,1.0,0.231899999999996
564,3,0.2,1.0,-35.0,-1,1.0,0.231899999999996
565,3,0.2,0.125,-35.0,-1,1.0,0.23530000000005202
566,3,0.2,0.125,-35.0,1,0.0,0.3922000000002299
567,3,0.2,0.25,-35.0,-1,1.0,0.22580000000016298
568,3,0.2,0.25,35.0,1,1.0,8.772600000000011
569,3,0.2,0.0,35.0,1,1.0,0.952900000000227
570,3,0.2,1.0,-35.0,1,0.0,5.333000000000084
571,3,0.2,1.0,35.0,1,1.0,0.3066000000001168
572,3,0.2,1.0,35.0,1,1.0,4.210000000000264
573,3,0.2,0.0625,-35.0,1,0.0,8.406900000000405
574,3,0.2,0.0625,35.0,-1,0.0,42.640499999999975
575,3,0.2,1.0,35.0,1,1.0,0.3916999999996733
576,3,0.2,0.25,35.0,1,1.0,11.355299999999716
577,3,0.2,0.125,35.0,1,1.0,6.655700000000252
578,3,0.2,1.0,35.0,1,1.0,0.23260000000027503
579,3,0.2,1.0,35.0,1,1.0,0.37919999999940046
580,3,0.2,1.0,35.0,1,1.0,0.2626999999997679
581,3,0.2,0.0625,35.0,1,1.0,1.3195000000000618
582,3,0.2,0.0625,35.0,1,1.0,15.26949999999988
583,3,0.2,1.0,-35.0,-1,1.0,0.2665999999999258
584,3,0.2,0.0,-35.0,1,0.0,2.3100000000004
585,3,0.2,0.25,-35.0,-1,1.0,13.120099999999638
586,3,0.2,1.0,35.0,1,1.0,0.35390000000006694
587,3,0.8,0.25,-35.0,-1,1.0,0.3006999999997788
588,3,0.8,0.125,-35.0,-1,1.0,0.5706999999997606
1,4,0.5,0.125,-35.0,1,0.0,1.3950999999999998
2,4,0.5,0.125,-35.0,-1,1.0,0.6135999999999999
3,4,0.5,0.25,-35.0,-1,1.0,0.20619999999999905
4,4,0.5,0.125,35.0,1,1.0,0.6422000000000008
5,4,0.5,0.125,-35.0,-1,1.0,0.29579999999999806
6,4,0.5,1.0,35.0,1,1.0,0.26089999999999947
7,4,0.5,0.125,35.0,1,1.0,0.3987999999999978
8,4,0.5,0.0625,-35.0,1,0.0,0.48449999999999704
9,4,0.5,0.125,-35.0,-1,1.0,0.4731999999999985
10,4,0.5,1.0,-35.0,-1,1.0,0.21579999999999444
11,4,0.5,0.25,-35.0,-1,1.0,0.4653999999999954
12,4,0.5,0.125,-35.0,-1,1.0,0.8130999999999986
13,4,0.5,0.25,35.0,1,1.0,0.34679999999999467
14,4,0.5,0.0625,35.0,1,1.0,0.7742999999999967
15,4,0.5,0.0625,35.0,-1,0.0,1.3145999999999987
16,4,0.5,0.0625,-35.0,-1,1.0,1.3643999999999963
17,4,0.5,0.0,35.0,-1,0.0,0.3223999999999947
18,4,0.5,0.0625,-35.0,-1,1.0,0.7329000000000008
19,4,0.5,0.0,-35.0,1,0.0,1.3739000000000061
20,4,0.5,1.0,-35.0,-1,1.0,0.43590000000000373
21,4,0.5,0.0625,35.0,1,1.0,0.8741999999999877
22,4,0.5,0.125,35.0,-1,0.0,0.09570000000000789
23,4,0.5,1.0,-35.0,-1,1.0,0.4410000000000025
24,4,0.5,0.125,-35.0,-1,1.0,0.4210999999999956
25,4,0.5,0.25,35.0,1,1.0,0.4672000000000054
26,4,0.5,0.25,35.0,1,1.0,0.2131000000000114
27,4,0.5,0.25,35.0,1,1.0,0.3815000000000026
28,4,0.5,0.125,-35.0,-1,1.0,0.4363000000000028
29,4,0.5,0.0,-35.0,1,0.0,0.6059999999999945
30,4,0.5,0.0625,35.0,1,1.0,0.5596000000000174
31,4,0.5,0.125,-35.0,-1,1.0,0.4753000000000043
32,4,0.5,0.125,35.0,1,1.0,0.3359999999999985
33,4,0.5,0.0625,35.0,1,1.0,0.31510000000000105
34,4,0.5,0.125,35.0,1,1.0,0.5478000000000094
35,4,0.5,0.25,-35.0,-1,1.0,0.41039999999999566
36,4,0.5,0.0625,-35.0,1,0.0,0.227800000000002
37,4,0.5,0.125,35.0,1,1.0,0.3090000000000117
38,4,0.5,1.0,-35.0,-1,1.0,0.4218000000000046
39,4,0.5,0.125,35.0,1,1.0,0.9427000000000021
40,4,0.5,0.25,-35.0,-1,1.0,0.30700000000001637
41,4,0.5,0.125,-35.0,1,0.0,0.6271000000000129
42,4,0.5,1.0,35.0,1,1.0,0.20149999999998158
43,4,0.5,1.0,35.0,1,1.0,0.552599999999984
44,4,0.5,0.0,-35.0,1,0.0,2.1188000000000216
45,4,0.5,0.25,35.0,1,1.0,2.342099999999988
46,4,0.5,0.0,-35.0,1,0.0,4.01449999999997
47,4,0.5,0.25,-35.0,-1,1.0,0.5466000000000122
48,4,0.5,1.0,-35.0,-1,1.0,0.24979999999999336
49,4,0.5,0.0625,35.0,1,1.0,0.737400000000008
50,4,0.5,0.0,-35.0,-1,1.0,0.2727000000000146
51,4,0.5,0.25,35.0,1,1.0,0.3049000000000035
52,4,0.5,1.0,35.0,1,1.0,0.24320000000000164
53,4,0.5,0.125,-35.0,-1,1.0,0.34669999999999845
54,4,0.5,0.25,35.0,1,1.0,0.2915000000000134
55,4,0.5,0.125,35.0,1,1.0,0.7606000000000108
56,4,0.5,1.0,-35.0,-1,1.0,0.2506999999999948
57,4,0.5,0.25,35.0,1,1.0,0.3160000000000025
58,4,0.5,0.125,35.0,1,1.0,0.4148999999999887
59,4,0.5,0.25,-35.0,-1,1.0,0.17730000000000246
60,4,0.5,1.0,-35.0,-1,1.0,0.18830000000002656
61,4,0.5,0.125,35.0,1,1.0,0.27479999999999905
62,4,0.5,1.0,35.0,1,1.0,0.45300000000000296
63,4,0.5,1.0,-35.0,-1,1.0,0.3003000000000213
64,4,0.5,1.0,-35.0,-1,1.0,0.23619999999999663
65,4,0.5,0.125,35.0,1,1.0,0.25720000000001164
66,4,0.5,0.0625,35.0,1,1.0,0.7535000000000025
67,4,0.5,0.125,-35.0,-1,1.0,0.3240000000000123
68,4,0.5,0.125,35.0,1,1.0,0.3100000000000307
69,4,0.5,0.25,35.0,-1,0.0,0.776600000000002
70,4,0.5,1.0,-35.0,-1,1.0,0.507300000000015
71,4,0.5,0.125,35.0,1,1.0,0.34669999999999845
72,4,0.5,0.25,35.0,1,1.0,0.6691999999999894
73,4,0.5,0.0625,35.0,-1,0.0,0.16109999999997626
74,4,0.5,0.125,35.0,1,1.0,0.3083000000000311
75,4,0.5,0.0625,35.0,1,1.0,0.4543000000000177
76,4,0.5,0.0625,35.0,-1,0.0,0.5454000000000292
77,4,0.5,0.0625,35.0,1,1.0,0.441599999999994
78,4,0.5,0.0625,-35.0,1,0.0,0.5647000000000162
79,4,0.5,0.25,35.0,1,1.0,0.3088000000000193
80,4,0.5,0.0625,-35.0,1,0.0,1.121200000000016
81,4,0.5,0.25,35.0,1,1.0,0.2900000000000489
82,4,0.5,0.25,35.0,1,1.0,0.359800000000007
83,4,0.5,0.0,35.0,1,1.0,1.713899999999967
84,4,0.5,0.0625,-35.0,1,0.0,0.8619999999999663
85,4,0.5,1.0,35.0,1,1.0,0.34039999999998827
86,4,0.5,0.125,-35.0,-1,1.0,0.26319999999998345
87,4,0.5,0.25,35.0,1,1.0,0.3435999999999808
88,4,0.5,0.25,-35.0,-1,1.0,0.4440999999999349
89,4,0.5,0.25,-35.0,-1,1.0,0.5294999999999277
90,4,0.5,0.125,-35.0,-1,1.0,0.49860000000001037
91,4,0.8,0.25,-35.0,-1,1.0,0.4356000000000222
92,4,0.8,0.0,-35.0,-1,1.0,0.2196999999999889
93,4,0.8,1.0,-35.0,-1,1.0,0.21009999999995443
94,4,0.8,0.25,-35.0,-1,1.0,0.31520000000000437
95,4,0.8,0.25,-35.0,-1,1.0,0.014999999999929514
96,4,0.8,0.0625,-35.0,-1,1.0,0.25809999999995625
97,4,0.8,1.0,35.0,1,1.0,0.5423999999999864
98,4,0.8,0.0625,35.0,1,1.0,0.5325999999999453
99,4,0.8,0.125,-35.0,-1,1.0,0.3352999999999611
100,4,0.8,1.0,-35.0,-1,1.0,0.2726999999999862
101,4,0.8,0.0625,-35.0,1,0.0,1.5687999999999533
102,4,0.8,0.25,-35.0,-1,1.0,0.5261999999999603
103,4,0.8,0.25,-35.0,-1,1.0,0.2319999999999709
104,4,0.8,0.25,-35.0,-1,1.0,0.17719999999997071
105,4,0.8,0.0625,35.0,1,1.0,0.4248999999999796
106,4,0.8,0.125,-35.0,-1,1.0,0.41469999999992524
107,4,0.8,0.125,-35.0,-1,1.0,0.345799999999997
108,4,0.8,0.0625,-35.0,-1,1.0,2.053899999999942
109,4,0.8,0.125,-35.0,-1,1.0,0.19899999999995543
110,4,0.8,0.25,-35.0,-1,1.0,0.19299999999998363
111,4,0.8,0.25,-35.0,-1,1.0,0.19379999999995334
112,4,0.8,0.0625,-35.0,1,0.0,0.7098999999999478
113,4,0.8,0.25,35.0,1,1.0,0.48599999999999
114,4,0.8,0.0,-35.0,-1,1.0,5.70939999999996
115,4,0.8,0.25,-35.0,-1,1.0,0.18969999999995935
116,4,0.8,0.25,-35.0,-1,1.0,0.23519999999996344
117,4,0.8,0.25,35.0,-1,0.0,0.09080000000000155
118,4,0.8,0.0625,-35.0,-1,1.0,0.41390000000001237
119,4,0.8,0.0,-35.0,-1,1.0,0.2787000000000148
120,4,0.8,0.0625,-35.0,-1,1.0,0.7232999999999947
121,4,0.8,1.0,-35.0,-1,1.0,0.2149000000000001
122,4,0.8,1.0,-35.0,-1,1.0,0.4697999999999638
123,4,0.8,0.0,-35.0,-1,1.0,0.21959999999995716
124,4,0.8,1.0,-35.0,-1,1.0,0.3706999999999425
125,4,0.8,0.25,-35.0,-1,1.0,0.3727000000000089
126,4,0.8,0.0625,35.0,-1,0.0,0.18339999999994916
127,4,0.8,0.0,-35.0,-1,1.0,5.153599999999983
128,4,0.8,0.25,-35.0,-1,1.0,0.09049999999996317
129,4,0.8,1.0,-35.0,-1,1.0,0.10649999999998272
130,4,0.8,0.0625,-35.0,-1,1.0,0.11730000000000018
131,4,0.8,0.25,-35.0,-1,1.0,0.02740000000000009
132,4,0.8,0.125,-35.0,-1,1.0,0.19499999999999318
133,4,0.8,1.0,-35.0,-1,1.0,0.2150999999999499
134,4,0.8,0.125,-35.0,-1,1.0,0.2841999999999416
135,4,0.8,0.25,-35.0,-1,1.0,0.23859999999996262
136,4,0.8,0.25,35.0,1,1.0,0.7863999999999578
137,4,0.8,1.0,-35.0,-1,1.0,0.22210000000001173
138,4,0.8,0.25,-35.0,-1,1.0,0.21109999999998763
139,4,0.8,0.25,-35.0,-1,1.0,0.17300000000000182
140,4,0.8,0.125,-35.0,-1,1.0,0.11629999999996699
141,4,0.8,0.125,35.0,-1,0.0,0.12169999999997572
142,4,0.8,0.25,-35.0,-1,1.0,0.1320999999999799
143,4,0.8,1.0,-35.0,-1,1.0,0.1782000000000039
144,4,0.8,0.25,-35.0,-1,1.0,0.20609999999999218
145,4,0.8,1.0,35.0,-1,0.0,0.17969999999996844
146,4,0.8,0.125,35.0,-1,0.0,0.244199999999978
147,4,0.8,0.125,35.0,-1,0.0,0.22390000000001464
148,4,0.8,0.25,-35.0,-1,1.0,0.190400000000011
149,4,0.8,0.125,-35.0,-1,1.0,0.15939999999994825
150,4,0.2,0.0625,35.0,-1,0.0,0.17689999999998918
151,4,0.2,0.25,35.0,1,1.0,0.5475999999999885
152,4,0.2,1.0,-35.0,-1,1.0,0.28640000000001464
153,4,0.2,0.0625,35.0,1,1.0,0.7454999999999927
154,4,0.2,0.0625,35.0,1,1.0,1.2057999999999538
155,4,0.2,0.25,35.0,1,1.0,0.3195999999999799
156,4,0.2,0.125,35.0,-1,0.0,0.14869999999996253
157,4,0.2,0.25,35.0,1,1.0,0.22449999999997772
158,4,0.2,0.0625,35.0,1,1.0,0.5322999999999638
159,4,0.2,1.0,-35.0,-1,1.0,0.36029999999993834
160,4,0.2,0.0,35.0,-1,0.0,-0.0284999999998945
161,4,0.2,0.125,35.0,-1,0.0,0.17060000000014952
162,4,0.2,0.25,35.0,1,1.0,0.3046000000000504
163,4,0.2,0.125,35.0,1,1.0,0.45100000000002183
164,4,0.2,0.125,35.0,1,1.0,0.9904000000000224
165,4,0.2,0.0,35.0,1,1.0,3.445799999999963
166,4,0.2,0.0,35.0,1,1.0,0.7171000000000731
167,4,0.2,0.0625,35.0,1,1.0,0.25549999999998363
168,4,0.2,0.0,-35.0,1,0.0,0.38429999999993925
169,4,0.2,0.0625,35.0,1,1.0,0.4601000000000113
170,4,0.2,0.0,35.0,1,1.0,0.3629000000000815
171,4,0.2,0.0625,35.0,1,1.0,0.6809000000000651
172,4,0.2,1.0,-35.0,1,0.0,0.5177999999999656
173,4,0.2,0.125,-35.0,-1,1.0,0.8017999999999574
174,4,0.2,1.0,35.0,1,1.0,0.5022000000000162
175,4,0.2,1.0,-35.0,-1,1.0,0.31100000000014916
176,4,0.2,0.25,35.0,1,1.0,0.3001000000000431
177,4,0.2,1.0,-35.0,-1,1.0,0.2918000000000802
178,4,0.2,1.0,-35.0,-1,1.0,0.3403000000000702
179,4,0.2,0.25,35.0,1,1.0,0.2803000000000111
180,4,0.2,1.0,35.0,1,1.0,0.2436999999999898
181,4,0.2,0.0,35.0,1,1.0,0.7098000000000866
182,4,0.2,0.125,35.0,1,1.0,0.21280000000001564
183,4,0.2,0.0625,35.0,1,1.0,0.7430000000000518
184,4,0.2,0.25,35.0,1,1.0,0.3367000000001781
185,4,0.2,0.125,35.0,-1,0.0,0.2438000000000784
186,4,0.2,0.0625,35.0,1,1.0,0.36039999999991323
187,4,0.2,0.0625,35.0,1,1.0,0.6084000000000742
188,4,0.2,0.0625,35.0,1,1.0,0.46479999999996835
189,4,0.2,0.25,35.0,1,1.0,0.2662000000000262
190,4,0.2,0.25,35.0,1,1.0,0.5408000000001039
191,4,0.2,0.25,35.0,1,1.0,0.3362999999999374
192,4,0.2,0.0625,35.0,1,1.0,0.2860000000000582
193,4,0.2,0.125,35.0,1,1.0,0.16989999999998417
194,4,0.2,0.0625,35.0,1,1.0,0.4158999999999651
195,4,0.2,0.125,35.0,1,1.0,0.649599999999964
196,4,0.2,0.0625,35.0,1,1.0,0.2696000000000822
197,4,0.2,0.0,35.0,1,1.0,0.39039999999999964
198,4,0.2,0.0,35.0,1,1.0,0.23260000000004766
199,4,0.2,0.25,35.0,1,1.0,0.24460000000010496
200,4,0.8,0.0,-35.0,1,0.0,0.21500000000003183
201,4,0.8,0.0625,35.0,1,1.0,0.30579999999997654
202,4,0.8,0.25,-35.0,-1,1.0,0.38990000000001146
203,4,0.8,0.0625,-35.0,1,0.0,0.23610000000007858
204,4,0.8,1.0,-35.0,-1,1.0,0.3000000000000682
205,4,0.8,0.0625,-35.0,1,0.0,0.9418000000000575
206,4,0.8,1.0,35.0,1,1.0,0.35170000000016444
207,4,0.8,0.0625,-35.0,-1,1.0,0.5675999999999704
208,4,0.8,0.25,-35.0,-1,1.0,0.26670000000001437
209,4,0.8,0.125,-35.0,-1,1.0,0.2798000000000229
210,4,0.8,0.0625,35.0,1,1.0,0.7655000000000882
211,4,0.8,1.0,-35.0,-1,1.0,0.24099999999998545
212,4,0.8,0.0,-35.0,-1,1.0,0.342899999999986
213,4,0.8,0.25,35.0,1,1.0,0.35000000000002274
214,4,0.8,1.0,-35.0,-1,1.0,0.23540000000002692
215,4,0.8,0.125,-35.0,-1,1.0,0.07189999999991414
216,4,0.8,0.0625,35.0,1,1.0,0.6609000000000833
217,4,0.8,0.25,-35.0,-1,1.0,0.5603999999999587
218,4,0.8,0.25,-35.0,-1,1.0,0.29550000000006094
219,4,0.8,0.0625,-35.0,-1,1.0,0.1956000000000131
220,4,0.8,0.0,-35.0,-1,1.0,0.6559999999999491
221,4,0.8,0.25,-35.0,-1,1.0,0.2905000000000655
222,4,0.8,0.125,-35.0,-1,1.0,0.38840000000004693
223,4,0.8,1.0,-35.0,-1,1.0,0.21240000000000236
224,4,0.8,0.0,-35.0,-1,1.0,0.23289999999997235
225,4,0.8,0.125,-35.0,-1,1.0,0.2941000000000713
226,4,0.8,0.0625,-35.0,-1,1.0,0.1894000000000915
227,4,0.8,1.0,-35.0,-1,1.0,0.24320000000000164
228,4,0.8,1.0,-35.0,-1,1.0,0.28359999999997854
229,4,0.8,0.25,35.0,1,1.0,0.3431000000000495
230,4,0.8,1.0,-35.0,-1,1.0,0.2158000000000584
231,4,0.8,0.25,-35.0,-1,1.0,0.29520000000002256
232,4,0.8,0.0625,35.0,1,1.0,1.0068999999999733
233,4,0.8,0.25,-35.0,-1,1.0,0.28910000000007585
234,4,0.8,0.0625,-35.0,-1,1.0,0.5931000000000495
235,4,0.8,0.0,35.0,1,1.0,0.568300000000022
236,4,0.8,0.125,-35.0,-1,1.0,0.2639000000000351
237,4,0.8,0.125,-35.0,-1,1.0,0.20799999999997
238,4,0.8,0.0625,-35.0,-1,1.0,0.40650000000005093
239,4,0.8,0.125,-35.0,-1,1.0,0.1751000000000431
240,4,0.8,0.125,-35.0,-1,1.0,0.3992000000000644
241,4,0.8,0.125,-35.0,-1,1.0,0.21390000000008058
242,4,0.8,0.125,-35.0,-1,1.0,0.16070000000001983
243,4,0.8,0.25,-35.0,-1,1.0,0.31780000000003383
244,4,0.8,0.25,-35.0,-1,1.0,0.30549999999993815
245,4,0.8,1.0,-35.0,-1,1.0,0.25930000000005293
246,4,0.8,1.0,35.0,1,1.0,0.3686999999999898
247,4,0.8,0.125,-35.0,-1,1.0,0.24520000000006803
248,4,0.8,0.0625,-35.0,-1,1.0,0.29910000000006676
249,4,0.8,0.0625,35.0,-1,0.0,0.13200000000006185
250,4,0.8,0.125,35.0,1,1.0,0.3105000000000473
251,4,0.8,0.25,-35.0,-1,1.0,0.2458000000000311
252,4,0.8,0.0625,-35.0,1,0.0,0.5363000000000966
253,4,0.8,0.125,-35.0,1,0.0,1.0353999999999814
254,4,0.8,0.0625,-35.0,-1,1.0,0.21479999999996835
255,4,0.8,0.0,-35.0,1,0.0,0.7829000000001543
256,4,0.8,1.0,-35.0,-1,1.0,0.31760000000008404
257,4,0.8,0.125,-35.0,-1,1.0,0.27510000000006585
258,4,0.8,0.125,35.0,-1,0.0,0.269800000000032
259,4,0.8,1.0,-35.0,-1,1.0,0.24430000000006658
