trial_num,session_num,stim_probability_left,contrast,position,response_choice,trial_correct,reaction_time
1,13,0.5,0.125,35.0,1,1.0,0.4481999999999995
2,13,0.5,1.0,-35.0,-1,1.0,0.2837999999999994
3,13,0.5,1.0,-35.0,-1,1.0,0.2881000000000018
4,13,0.5,0.25,-35.0,-1,1.0,0.25900000000000034
5,13,0.5,0.125,35.0,1,1.0,0.4805000000000028
6,13,0.5,1.0,-35.0,-1,1.0,0.3476999999999997
7,13,0.5,1.0,-35.0,-1,1.0,0.1963000000000008
8,13,0.5,0.125,-35.0,-1,1.0,0.38500000000000156
9,13,0.5,0.0625,35.0,1,1.0,3.785499999999999
10,13,0.5,0.25,35.0,1,1.0,0.2535999999999916
11,13,0.5,0.125,-35.0,1,0.0,3.1546999999999983
12,13,0.5,0.0,35.0,1,1.0,5.615699999999997
13,13,0.5,1.0,35.0,1,1.0,0.16909999999999314
14,13,0.5,0.0625,-35.0,1,0.0,2.257399999999997
15,13,0.5,0.0625,35.0,1,1.0,0.49660000000001503
16,13,0.5,0.125,-35.0,-1,1.0,0.6184000000000083
17,13,0.5,0.0625,-35.0,1,0.0,0.26069999999999993
18,13,0.8,0.0625,35.0,1,1.0,0.4054000000000002
19,13,0.5,1.0,-35.0,-1,1.0,0.23879999999999768
20,13,0.5,0.25,-35.0,-1,1.0,0.2266000000000048
21,13,0.5,0.25,-35.0,-1,1.0,0.29510000000001924
22,13,0.5,1.0,-35.0,-1,1.0,0.28230000000002065
23,13,0.5,0.0625,35.0,1,1.0,3.422300000000007
24,13,0.5,0.25,35.0,1,1.0,0.3283000000000129
25,13,0.5,1.0,35.0,1,1.0,0.2506000000000057
26,13,0.5,0.125,35.0,1,1.0,4.838699999999989
27,13,0.5,0.0,-35.0,1,0.0,7.267200000000017
28,13,0.6,0.0,-35.0,-1,1.0,0.4902000000000015
29,13,0.5,1.0,-35.0,-1,1.0,0.18789999999999907
30,13,0.5,1.0,35.0,1,1.0,0.23339999999998895
31,13,0.5,1.0,35.0,1,1.0,0.2044999999999959
32,13,0.5,0.0625,-35.0,-1,1.0,1.174699999999973
33,13,0.5,0.0625,35.0,1,1.0,7.100999999999999
34,13,0.5,0.0,35.0,1,1.0,6.742199999999997
35,13,0.5,0.0,-35.0,1,0.0,4.668900000000008
36,13,0.5,0.25,-35.0,-1,1.0,0.4403000000000077
37,13,0.5,0.125,-35.0,-1,1.0,0.2453999999999894
38,13,0.5,0.0625,35.0,1,1.0,9.471600000000024
39,13,0.5,0.0625,-35.0,1,0.0,7.002499999999998
40,13,0.5,0.0625,-35.0,-1,1.0,0.37649999999999295
41,13,0.5,0.125,35.0,1,1.0,0.3094999999999857
42,13,0.5,0.25,-35.0,-1,1.0,0.3072999999999695
43,13,0.5,0.0625,-35.0,1,0.0,5.611999999999995
44,13,0.5,0.0,35.0,-1,0.0,0.505800000000022
45,13,0.5,0.125,-35.0,-1,1.0,0.38169999999999504
46,13,0.5,0.0625,35.0,1,1.0,0.35209999999997876
47,13,0.5,0.25,-35.0,-1,1.0,0.23980000000000246
48,13,0.5,0.25,35.0,1,1.0,0.771599000000009
49,13,0.5,0.0625,35.0,1,1.0,8.006299999999982
50,13,0.5,0.0,-35.0,1,0.0,5.882199999999983
51,13,0.6,0.0,-35.0,1,0.0,0.44130000000001246
52,13,0.5,1.0,-35.0,-1,1.0,0.28909999999996217
53,13,0.5,0.25,35.0,1,1.0,0.2956000000000927
54,13,0.5,0.0625,-35.0,1,0.0,5.992800000000045
55,13,0.5,0.25,-35.0,-1,1.0,0.27319999999997435
56,13,0.5,0.0,35.0,1,1.0,9.47969999999998
57,13,0.5,0.125,35.0,1,1.0,0.2839000000000169
58,13,0.5,0.0,35.0,1,1.0,7.185500000000047
59,13,0.5,0.125,35.0,1,1.0,0.5599000000000274
60,13,0.5,0.125,-35.0,-1,1.0,0.7946000000000026
61,13,0.5,0.0,-35.0,1,0.0,8.987700000000018
62,13,0.5,0.125,35.0,1,1.0,0.2961999999999989
63,13,0.5,0.125,35.0,1,1.0,0.33580000000006294
64,13,0.5,0.125,-35.0,1,0.0,9.238699999999994
65,13,0.5,0.125,-35.0,-1,1.0,0.3140000000000214
66,13,0.5,1.0,35.0,1,1.0,0.23510000000004538
67,13,0.5,1.0,35.0,1,1.0,0.25200000000000955
68,13,0.5,1.0,-35.0,-1,1.0,0.3242000000000189
69,13,0.5,0.25,35.0,1,1.0,7.3250999999999635
70,13,0.5,0.25,-35.0,-1,1.0,0.2699000000000069
71,13,0.5,0.0,35.0,1,1.0,0.4114000000000715
72,13,0.5,0.25,-35.0,-1,1.0,0.28730000000007294
73,13,0.5,0.0,-35.0,1,0.0,14.812800000000038
74,13,0.5,0.25,-35.0,-1,1.0,0.7156000000000518
75,13,0.5,1.0,-35.0,-1,1.0,0.411200000000008
76,13,0.5,0.0625,-35.0,1,0.0,13.881399999999985
77,13,0.5,0.0625,-35.0,1,0.0,6.216200000000015
78,13,0.5,0.0625,-35.0,-1,1.0,0.47059999999999036
79,13,0.5,1.0,-35.0,-1,1.0,0.5124000000000706
80,13,0.5,0.125,35.0,1,1.0,0.5532999999999788
81,13,0.5,1.0,-35.0,-1,1.0,1.0269999999999868
82,13,0.5,0.0625,35.0,1,1.0,6.168600000000026
83,13,0.5,0.0,35.0,-1,0.0,0.5009999999999764
84,13,0.5,0.25,-35.0,-1,1.0,0.5260000000000105
85,13,0.5,0.25,-35.0,1,0.0,10.706700000000012
86,13,0.5,0.125,-35.0,-1,1.0,0.44290000000000873
87,13,0.5,0.0625,-35.0,1,0.0,9.987500000000011
88,13,0.5,0.0,-35.0,-1,1.0,0.402499999999975
89,13,0.5,0.25,-35.0,-1,1.0,0.3258000000000152
90,13,0.5,1.0,-35.0,-1,1.0,0.30030000000004975
91,13,0.5,0.0,35.0,1,1.0,7.597199999999987
92,13,0.5,0.25,35.0,1,1.0,0.3119000000000369
93,13,0.5,1.0,35.0,1,1.0,0.2361999999999398
94,13,0.5,1.0,35.0,1,1.0,0.2159000000000333
95,13,0.5,0.0625,35.0,1,1.0,16.212699999999927
96,13,0.5,0.25,35.0,1,1.0,0.2620000000000573
97,13,0.5,0.0625,35.0,1,1.0,4.011899999999855
98,13,0.5,0.125,-35.0,-1,1.0,0.47939999999994143
99,13,0.5,0.0625,-35.0,1,0.0,5.143699999999967
100,13,0.5,0.125,35.0,1,1.0,0.6027000000000271
101,13,0.5,1.0,-35.0,-1,1.0,0.3553999999999178
102,13,0.5,0.25,-35.0,-1,1.0,0.23860000000001946
103,13,0.5,0.0625,-35.0,-1,1.0,0.5325000000000273
104,13,0.5,0.0,-35.0,-1,1.0,14.922500000000014
105,13,0.5,1.0,-35.0,-1,1.0,0.573799999999892
106,13,0.5,1.0,-35.0,-1,1.0,0.4653000000000702
107,13,0.5,0.25,35.0,1,1.0,0.29849999999999
108,13,0.5,0.25,35.0,1,1.0,0.058898999999996704
109,13,0.5,0.0,35.0,1,1.0,3.9139000000000124
110,13,0.5,0.25,-35.0,-1,1.0,0.35429999999996653
111,13,0.5,0.125,35.0,1,1.0,0.8845999999999776
112,13,0.5,0.0,-35.0,1,0.0,7.627299999999877
113,13,0.5,0.0,-35.0,1,0.0,17.108099999999922
114,13,0.5,1.0,35.0,1,1.0,0.2583999999999378
115,13,0.5,0.125,-35.0,-1,1.0,0.8566999999999325
116,13,0.5,0.25,35.0,1,1.0,0.38429999999993925
117,13,0.5,0.0,-35.0,1,0.0,8.591299999999933
118,13,0.5,0.0625,-35.0,-1,1.0,0.4701999999999771
119,13,0.5,0.125,-35.0,-1,1.0,0.4233999999999014
120,13,0.5,0.0625,-35.0,-1,1.0,0.3749999999998863
121,13,0.5,0.0625,35.0,-1,0.0,0.13289999999994961
122,13,0.5,0.125,-35.0,-1,1.0,0.459699999999998
123,13,0.5,0.0,-35.0,1,0.0,9.763499999999908
124,13,0.5,0.0625,-35.0,1,0.0,9.907399999999939
125,13,0.5,0.25,35.0,1,1.0,0.30500000000006366
126,13,0.5,1.0,-35.0,-1,1.0,0.4017989999999827
127,13,0.5,1.0,-35.0,-1,1.0,0.18049999999993815
128,13,0.5,0.25,35.0,1,1.0,0.5571999999998525
129,13,0.5,1.0,-35.0,-1,1.0,0.20729999999991833
130,13,0.5,0.0625,35.0,1,1.0,17.785999999999945
131,13,0.5,1.0,-35.0,-1,1.0,0.30110000000001946
132,13,0.5,0.125,-35.0,-1,1.0,0.21050000000002456
133,13,0.5,0.125,-35.0,-1,1.0,0.40419999999994616
134,13,0.5,1.0,35.0,1,1.0,0.5342000000000553
135,13,0.5,0.125,35.0,1,1.0,0.4277999999999338
136,13,0.5,0.25,35.0,1,1.0,26.12169999999992
137,13,0.5,0.125,-35.0,-1,1.0,0.45299999999997453
138,13,0.5,1.0,35.0,1,1.0,0.35410000000001673
139,13,0.5,0.0,35.0,1,1.0,22.98860000000002
140,13,0.5,0.125,-35.0,-1,1.0,0.5099999999999909
141,13,0.5,0.0625,35.0,-1,0.0,13.370499999999993
142,13,0.5,0.125,35.0,1,1.0,2.7720999999999094
143,13,0.5,0.25,35.0,1,1.0,3.1165999999999485
144,13,0.5,0.125,35.0,1,1.0,9.937199999999962
145,13,0.5,1.0,-35.0,-1,1.0,0.386600000000044
146,13,0.5,0.125,-35.0,-1,1.0,0.5326999999999771
147,13,0.5,0.125,-35.0,-1,1.0,5.9687999999999874
148,13,0.5,0.25,-35.0,-1,1.0,0.38990000000001146
149,13,0.5,0.0,-35.0,-1,1.0,0.6031000000000404
150,13,0.5,0.125,-35.0,-1,1.0,0.5663999999999305
151,13,0.5,0.0625,35.0,1,1.0,9.670599999999922
152,13,0.5,0.25,-35.0,-1,1.0,0.3951999999999316
153,13,0.5,0.25,35.0,1,1.0,0.32159999999998945
154,13,0.5,0.0625,35.0,1,1.0,9.538400000000024
155,13,0.5,0.0,35.0,-1,0.0,0.3272999999999229
156,13,0.5,0.0,35.0,1,1.0,6.774000000000001
157,13,0.5,0.0,-35.0,-1,1.0,0.4412000000000944
158,13,0.5,0.125,35.0,-1,0.0,0.8405999999999949
159,13,0.5,0.25,35.0,1,1.0,0.3712999999999056
160,13,0.5,0.125,-35.0,1,0.0,7.928199999999947
161,13,0.5,0.125,-35.0,1,0.0,7.051799999999957
162,13,0.5,0.25,-35.0,-1,1.0,0.37849999999991724
163,13,0.5,0.0,35.0,1,1.0,9.882000000000062
164,13,0.5,0.0,35.0,1,1.0,0.10900000000015098
165,13,0.5,0.25,35.0,1,1.0,8.49899900000014
166,13,0.5,1.0,35.0,1,1.0,0.25260000000002947
167,13,0.5,0.25,-35.0,1,0.0,16.599300000000085
168,13,0.5,0.0625,-35.0,1,0.0,7.709699999999884
169,13,0.5,0.25,-35.0,-1,1.0,0.40650000000005093
170,13,0.5,0.125,-35.0,-1,1.0,0.4466000000002168
171,13,0.5,0.25,-35.0,-1,1.0,5.593499999999949
172,13,0.5,1.0,-35.0,-1,1.0,0.3169000000000324
173,13,0.5,1.0,35.0,1,1.0,0.29359999999996944
174,13,0.5,1.0,35.0,1,1.0,0.35710000000017317
175,13,0.5,1.0,35.0,1,1.0,0.39390000000003056
176,13,0.5,0.25,35.0,1,1.0,10.860599999999977
177,13,0.5,0.0,35.0,1,1.0,12.34100000000035
178,13,0.5,0.125,-35.0,1,0.0,15.871300000000247
179,13,0.5,0.25,35.0,1,1.0,0.2982999999999265
180,13,0.5,1.0,-35.0,-1,1.0,0.35160000000018954
181,13,0.5,0.125,-35.0,-1,1.0,0.25830000000019027
182,13,0.5,0.0625,-35.0,-1,1.0,0.9917000000000371
183,13,0.5,0.0625,35.0,1,1.0,24.75180000000023
184,13,0.5,0.125,35.0,1,1.0,0.6590000000001055
185,13,0.5,0.0625,-35.0,1,0.0,1.5891999999998916
186,13,0.5,0.0625,-35.0,1,0.0,13.985900000000129
187,13,0.7,0.0625,35.0,1,1.0,0.6695999999999458
188,13,0.5,1.0,-35.0,-1,1.0,0.32970000000000255
189,13,0.5,0.0625,35.0,1,1.0,21.59979999999996
190,13,0.5,0.0625,-35.0,-1,1.0,0.6502000000002681
191,13,0.5,0.25,35.0,1,1.0,0.26040000000011787
192,13,0.5,0.0625,-35.0,1,0.0,7.28369900000007
193,13,0.5,0.125,-35.0,-1,1.0,0.41059999999993124
194,13,0.5,0.0625,35.0,1,1.0,0.487400000000207
195,13,0.5,0.0625,35.0,1,1.0,13.170798999999988
196,13,0.5,1.0,35.0,1,1.0,0.22460000000000946
197,13,0.5,1.0,35.0,1,1.0,0.22800000000006548
198,13,0.5,1.0,35.0,1,1.0,31.927999999999884
199,13,0.5,0.125,35.0,1,1.0,0.21870000000012624
200,13,0.5,0.125,-35.0,-1,1.0,0.3188000000000102
201,13,0.5,0.0,-35.0,-1,1.0,21.149000000000115
202,13,0.5,1.0,-35.0,-1,1.0,0.47280000000000655
203,13,0.5,0.25,-35.0,-1,1.0,0.7562000000000353
204,13,0.5,0.25,-35.0,-1,1.0,34.333100000000286
205,13,0.5,0.0625,35.0,-1,0.0,25.55709999999999
206,13,0.5,0.0625,-35.0,1,0.0,13.330999999999904
207,13,0.4,0.0625,35.0,1,1.0,0.5245000000002165
208,13,0.5,1.0,-35.0,-1,1.0,0.5546990000002552
209,13,0.5,0.0625,-35.0,1,0.0,13.784800000000132
210,13,0.5,0.0,35.0,1,1.0,7.321799999999939
211,13,0.5,1.0,35.0,1,1.0,0.22540000000003602
212,13,0.5,1.0,35.0,1,1.0,1.1554000000000997
213,13,0.5,0.125,35.0,1,1.0,0.08230000000003201
214,13,0.5,0.0,-35.0,1,0.0,19.945600000000013
215,13,0.8,0.0,-35.0,1,0.0,0.4259999999999309
216,13,0.5,1.0,-35.0,-1,1.0,0.3627000000001317
217,13,0.5,0.125,35.0,1,1.0,0.3462000000001808
218,13,0.5,0.0625,-35.0,1,0.0,20.036200000000008
219,13,0.5,0.0,35.0,-1,0.0,1.1701000000000477
220,13,0.5,0.0,-35.0,1,0.0,13.166700000000219
221,13,0.8,0.0,-35.0,1,0.0,8.960399999999936
222,13,0.5,1.0,-35.0,-1,1.0,0.30730000000016844
223,13,0.5,0.0625,-35.0,-1,1.0,6.010600000000295
224,13,0.5,0.0,-35.0,1,0.0,3.667599999999993
225,13,0.6,0.0,35.0,1,1.0,6.461000000000013
226,13,0.5,1.0,-35.0,-1,1.0,0.43810000000007676
227,13,0.5,1.0,-35.0,-1,1.0,0.44820000000004256
228,13,0.5,0.0625,35.0,1,1.0,0.6949000000001888
229,13,0.5,0.0625,35.0,1,1.0,27.011600000000044
230,13,0.5,0.0625,-35.0,1,0.0,4.575800000000072
231,13,0.5,0.0,35.0,1,1.0,7.715800000000172
232,13,0.5,1.0,35.0,1,1.0,0.3592999999998483
233,13,0.5,1.0,-35.0,-1,1.0,0.7894000000001142
234,13,0.5,1.0,-35.0,-1,1.0,1.0929000000000997
235,13,0.5,1.0,-35.0,-1,1.0,0.3394999999998163
236,13,0.5,0.0,-35.0,1,0.0,20.93970000000013
237,13,0.5,0.25,-35.0,-1,1.0,0.7201999999999771
238,13,0.5,0.0,-35.0,1,0.0,5.336900000000014
239,13,0.5,0.0625,-35.0,1,0.0,6.257100000000037
240,13,0.5,0.25,-35.0,-1,1.0,0.47060000000010405
241,13,0.5,0.0625,35.0,1,1.0,0.4208000000000993
242,13,0.5,1.0,35.0,1,1.0,0.2742000000000644
243,13,0.5,0.0,35.0,1,1.0,7.700900000000047
244,13,0.5,1.0,35.0,1,1.0,0.3045000000001892
245,13,0.5,0.0625,35.0,1,1.0,12.72790000000009
246,13,0.5,1.0,35.0,1,1.0,19.9983000000002
247,13,0.5,0.25,35.0,1,1.0,0.42210000000022774
248,13,0.5,1.0,35.0,1,1.0,0.2756000000001677
249,13,0.5,0.125,-35.0,-1,1.0,9.169100000000071
250,13,0.5,0.25,35.0,1,1.0,0.41610000000014224
251,13,0.5,0.0,-35.0,1,0.0,7.6594000000002325
252,13,0.5,0.125,-35.0,-1,1.0,1.1129000000000815
253,13,0.5,1.0,35.0,1,1.0,0.279700000000048
254,13,0.5,0.25,35.0,1,1.0,0.4498000000000957
255,13,0.5,0.25,-35.0,-1,1.0,13.566800000000057
256,13,0.5,0.125,35.0,1,1.0,0.49040000000013606
257,13,0.5,0.0625,-35.0,-1,1.0,21.15359999999987
258,13,0.5,1.0,-35.0,-1,1.0,0.5609000000001743
259,13,0.5,0.125,-35.0,-1,1.0,23.764200000000073
260,13,0.5,0.125,35.0,1,1.0,0.6048000000002958
261,13,0.5,0.0625,35.0,1,1.0,16.09159999999997
262,13,0.5,0.25,-35.0,-1,1.0,0.7853999999999814
263,13,0.5,1.0,35.0,1,1.0,0.21209999999996398
264,13,0.5,1.0,-35.0,-1,1.0,0.5256000000001677
265,13,0.5,0.125,-35.0,-1,1.0,41.22580000000039
266,13,0.5,0.0,35.0,1,1.0,3.4032999999999447
267,13,0.5,0.25,35.0,1,1.0,0.32330000000001746
268,13,0.5,0.0625,35.0,1,1.0,0.32019999999965876
269,13,0.5,0.0625,-35.0,1,0.0,15.25689999999986
270,13,0.5,0.125,-35.0,-1,1.0,0.4638999999997395
271,13,0.5,0.0625,35.0,1,1.0,5.843900000000303
272,13,0.5,0.125,-35.0,-1,1.0,0.6541999999999462
273,13,0.5,0.0,-35.0,1,0.0,0.5443999999997686
274,13,0.5,0.0625,-35.0,1,0.0,12.517700000000332
275,13,0.5,0.0,35.0,-1,0.0,9.80789999999979
276,13,0.5,0.0625,35.0,1,1.0,0.3249000000000706
277,13,0.5,0.125,-35.0,1,0.0,29.9382999999998
278,13,0.5,0.125,-35.0,-1,1.0,0.47240000000010696
279,13,0.5,0.125,35.0,1,1.0,6.515900000000329
280,13,0.5,0.25,35.0,1,1.0,0.3227999999999156
281,13,0.5,0.125,-35.0,-1,1.0,9.776099999999587
282,13,0.5,0.0,35.0,-1,0.0,22.579699999999775
283,13,0.5,0.125,35.0,1,1.0,0.6068999999997686
284,13,0.5,0.0,-35.0,1,0.0,0.8670999999999367
285,13,0.5,0.0625,-35.0,-1,1.0,0.42399999999997817
286,13,0.5,0.125,-35.0,-1,1.0,23.05049999999983
287,13,0.5,0.25,-35.0,-1,1.0,0.417699999999968
288,13,0.5,0.0625,35.0,1,1.0,10.144600000000082
289,13,0.5,0.0625,-35.0,1,0.0,29.694800000000214
290,13,0.5,0.0625,35.0,1,1.0,0.39889999999968495
291,13,0.5,1.0,-35.0,-1,1.0,0.42230000000017753
292,13,0.5,1.0,-35.0,-1,1.0,0.46909999999979846
293,13,0.5,0.125,-35.0,-1,1.0,0.5890989999998055
294,13,0.5,0.125,-35.0,1,0.0,8.192499999999654
295,13,0.5,0.0625,35.0,1,1.0,12.656101000000035
296,13,0.5,0.25,-35.0,-1,1.0,0.8497009999996408
297,13,0.5,0.125,-35.0,1,0.0,20.98980100000017
298,13,0.5,0.0,-35.0,1,0.0,6.1970009999995455
299,13,0.5,0.25,35.0,1,1.0,0.4473009999996975
300,13,0.5,0.25,35.0,1,1.0,0.43070099999977174
301,13,0.5,0.125,35.0,1,1.0,0.29760099999975864
302,13,0.5,1.0,-35.0,-1,1.0,0.2976010000002134
303,13,0.5,0.0625,35.0,1,1.0,22.251001000000088
304,13,0.5,0.25,-35.0,-1,1.0,0.7416009999997186
305,13,0.5,0.0625,-35.0,-1,1.0,39.63820099999975
306,13,0.5,1.0,35.0,1,1.0,0.2825009999996837
307,13,0.5,0.125,35.0,1,1.0,7.919400999999652
308,13,0.5,0.0,35.0,1,1.0,11.629601000000093
309,13,0.5,0.25,-35.0,-1,1.0,0.49340099999972153
310,13,0.5,0.25,35.0,1,1.0,13.043301000000156
311,13,0.5,0.25,35.0,1,1.0,1.0871010000000751
312,13,0.5,1.0,-35.0,-1,1.0,1.0572009999996226
313,13,0.5,0.0625,-35.0,-1,1.0,1.0406009999996968
314,13,0.5,0.0,-35.0,-1,1.0,45.947400999999445
315,13,0.5,1.0,-35.0,-1,1.0,0.7983009999998103
316,13,0.5,0.125,35.0,1,1.0,10.058400999999776
317,13,0.5,0.25,35.0,1,1.0,0.23880099999996673
318,13,0.5,0.125,35.0,1,1.0,10.142201000000114
319,13,0.5,0.0625,35.0,1,1.0,5.43250099999932
1,14,0.5,0.25,35.0,-1,0.0,0.21849999999999992
2,14,0.5,0.0625,-35.0,-1,1.0,0.2267999999999999
3,14,0.5,0.25,35.0,-1,0.0,0.12739999999999974
4,14,0.5,0.25,35.0,-1,0.0,0.16269999999999918
5,14,0.5,0.25,-35.0,-1,1.0,0.22199999999999775
6,14,0.5,0.0625,35.0,-1,0.0,0.19259999999999877
7,14,0.4,0.0625,35.0,-1,0.0,0.16389999999999816
8,14,0.5,1.0,-35.0,-1,1.0,0.2143000000000015
9,14,0.5,0.25,-35.0,-1,1.0,0.2272999999999996
10,14,0.5,0.0625,35.0,-1,0.0,0.15859999999999985
11,14,0.0,0.0625,35.0,-1,0.0,0.2033000000000058
12,14,0.5,1.0,35.0,-1,0.0,0.07920000000000016
13,14,0.5,0.0625,35.0,-1,0.0,0.2336999999999989
14,14,0.0,0.0625,35.0,-1,0.0,0.18849999999999767
15,14,0.5,1.0,35.0,1,1.0,0.2838000000000065
16,14,0.5,0.0625,35.0,1,1.0,0.3231000000000108
17,14,0.5,0.125,35.0,-1,0.0,0.16599999999999682
18,14,0.2,0.125,-35.0,-1,1.0,0.34440000000000737
19,14,0.5,1.0,-35.0,-1,1.0,0.23550000000000182
20,14,0.5,0.25,35.0,1,1.0,0.2950000000000159
21,14,0.5,0.25,35.0,1,1.0,0.30210000000001
22,14,0.5,1.0,35.0,1,1.0,0.19890000000000896
23,14,0.5,0.0625,35.0,-1,0.0,0.12430000000000518
24,14,0.5,0.25,35.0,1,1.0,0.3505000000000109
25,14,0.5,0.0625,35.0,1,1.0,0.23749999999999716
26,14,0.5,0.25,-35.0,-1,1.0,0.29179999999999495
27,14,0.5,1.0,-35.0,-1,1.0,0.05349999999999966
28,14,0.5,0.125,35.0,1,1.0,0.2746999999999815
29,14,0.5,0.125,-35.0,1,0.0,0.24370000000000402
30,14,0.5,0.25,35.0,1,1.0,0.30340000000001055
31,14,0.5,0.0625,-35.0,-1,1.0,0.3772000000000162
32,14,0.5,0.0625,35.0,1,1.0,0.33629999999999427
33,14,0.5,1.0,-35.0,-1,1.0,0.19760000000002265
34,14,0.5,0.125,-35.0,-1,1.0,0.07460000000000377
35,14,0.5,1.0,35.0,1,1.0,0.22699999999997544
36,14,0.5,0.0625,35.0,-1,0.0,0.14209999999999923
37,14,0.5,0.125,35.0,1,1.0,0.5123999999999853
38,14,0.5,0.0625,-35.0,1,0.0,0.2779000000000167
39,14,0.5,0.0,-35.0,1,0.0,0.21940000000000737
40,14,0.5,0.125,-35.0,-1,1.0,1.8564000000000078
41,14,0.5,0.0,35.0,-1,0.0,0.1821999999999946
42,14,0.5,0.0625,35.0,1,1.0,0.30410000000000537
43,14,0.5,0.125,-35.0,-1,1.0,0.566900000000004
44,14,0.5,0.125,35.0,-1,0.0,0.17820000000003233
45,14,0.5,0.125,35.0,1,1.0,0.3406999999999982
46,14,0.5,1.0,-35.0,-1,1.0,0.6166000000000338
47,14,0.5,1.0,-35.0,-1,1.0,0.32639999999997826
48,14,0.5,0.125,35.0,1,1.0,0.3160000000000025
49,14,0.5,0.0625,35.0,1,1.0,0.4808999999999912
50,14,0.5,0.25,-35.0,-1,1.0,0.28239999999999554
51,14,0.5,1.0,-35.0,-1,1.0,0.216700000000003
52,14,0.5,0.25,35.0,1,1.0,0.34180000000003474
53,14,0.5,0.125,-35.0,-1,1.0,0.244700000000023
54,14,0.5,0.25,35.0,1,1.0,0.25329999999999586
55,14,0.5,1.0,35.0,1,1.0,0.22559899999998834
56,14,0.5,0.0625,35.0,1,1.0,0.02430000000001087
57,14,0.5,0.25,35.0,1,1.0,0.3129999999999882
58,14,0.5,0.125,35.0,1,1.0,0.3925000000000125
59,14,0.5,1.0,35.0,1,1.0,0.22919999999999163
60,14,0.5,0.0625,-35.0,-1,1.0,2.0241000000000327
61,14,0.5,0.0625,-35.0,-1,1.0,0.31919999999999504
62,14,0.5,1.0,-35.0,-1,1.0,0.15960000000001173
63,14,0.5,1.0,35.0,1,1.0,0.24139999999999873
64,14,0.5,0.125,35.0,-1,0.0,0.21160000000003265
65,14,0.5,0.25,35.0,-1,0.0,0.14990000000000236
66,14,0.5,0.0625,-35.0,-1,1.0,0.20730000000003201
67,14,0.5,0.0625,35.0,-1,0.0,0.21139999999996917
68,14,0.5,0.125,35.0,-1,0.0,0.16100000000000136
69,14,0.2,0.125,35.0,-1,0.0,0.2506999999999948
70,14,0.5,1.0,35.0,1,1.0,0.216700000000003
71,14,0.5,0.25,35.0,1,1.0,0.31340000000000146
72,14,0.5,0.25,-35.0,-1,1.0,0.21490000000005693
73,14,0.5,0.25,35.0,1,1.0,1.8969999999999914
74,14,0.5,0.25,-35.0,-1,1.0,0.25159999999999627
75,14,0.5,0.125,-35.0,-1,1.0,0.21760000000000446
76,14,0.5,0.0625,-35.0,-1,1.0,0.17889999999999873
77,14,0.5,1.0,-35.0,-1,1.0,0.21430000000003702
78,14,0.5,1.0,-35.0,-1,1.0,0.0875000000000341
79,14,0.5,0.0625,35.0,-1,0.0,0.06819999999999027
80,14,0.5,0.25,35.0,1,1.0,0.34749999999996817
81,14,0.5,0.125,35.0,1,1.0,0.42910000000000537
82,14,0.5,0.25,-35.0,-1,1.0,0.07639999999997826
83,14,0.5,0.0,-35.0,-1,1.0,0.2507999999999697
84,14,0.5,0.125,-35.0,-1,1.0,0.216700000000003
85,14,0.5,0.0625,35.0,-1,0.0,0.20229999999997972
86,14,0.2,0.0625,-35.0,-1,1.0,0.032100000000014006
87,14,0.5,1.0,35.0,1,1.0,0.2622000000000071
88,14,0.5,0.0625,35.0,-1,0.0,0.16300000000001091
89,14,0.5,0.0625,-35.0,-1,1.0,0.19610000000000127
90,14,0.5,1.0,35.0,1,1.0,0.25430000000000064
91,14,0.5,0.125,35.0,1,1.0,0.3002999999999929
92,14,0.5,0.0,-35.0,-1,1.0,0.19010000000002947
93,14,0.5,1.0,35.0,1,1.0,0.21739999999999782
94,14,0.5,0.25,-35.0,-1,1.0,0.32850000000001955
95,14,0.5,0.125,-35.0,-1,1.0,0.17020000000002256
96,14,0.5,1.0,35.0,1,1.0,0.2536999999999807
97,14,0.5,0.125,35.0,-1,0.0,0.18299999999999272
98,14,0.5,0.25,-35.0,-1,1.0,0.22140000000001692
99,14,0.5,1.0,35.0,1,1.0,0.2807000000000244
100,14,0.5,0.125,-35.0,-1,1.0,0.18650000000002365
101,14,0.5,1.0,35.0,1,1.0,0.22730000000001382
102,14,0.5,0.25,-35.0,-1,1.0,0.7822999999999638
103,14,0.5,0.125,35.0,1,1.0,0.40809999999999036
104,14,0.5,0.125,35.0,1,1.0,0.09550000000001546
105,14,0.5,0.0,35.0,-1,0.0,0.22359999999997626
106,14,0.5,0.125,-35.0,-1,1.0,0.24029999999999063
107,14,0.5,0.0625,35.0,-1,0.0,0.20390000000003283
108,14,0.5,0.125,35.0,1,1.0,0.3341000000000349
109,14,0.5,0.0,-35.0,-1,1.0,0.10839999999996053
110,14,0.5,0.0625,-35.0,-1,1.0,0.49219999999996844
111,14,0.5,1.0,-35.0,-1,1.0,0.2277000000000271
112,14,0.5,0.0625,35.0,1,1.0,0.5915000000000532
113,14,0.5,0.125,35.0,-1,0.0,0.22230000000001837
114,14,0.5,0.0625,35.0,1,1.0,0.2640999999999849
115,14,0.5,0.0625,35.0,-1,0.0,0.14589999999998327
116,14,0.5,0.25,35.0,1,1.0,0.2522000000000162
117,14,0.5,0.125,35.0,-1,0.0,0.05680000000000973
118,14,0.5,0.125,35.0,1,1.0,0.2913000000000352
119,14,0.5,0.0,-35.0,1,0.0,0.26849999999996044
120,14,0.5,0.0,-35.0,-1,1.0,0.27619999999996026
121,14,0.5,1.0,35.0,1,1.0,0.32330000000001746
122,14,0.5,0.0,-35.0,-1,1.0,0.22629999999998063
123,14,0.5,1.0,35.0,1,1.0,0.45359999999999445
124,14,0.5,0.125,35.0,1,1.0,0.4038999999999646
125,14,0.5,0.25,35.0,1,1.0,0.23980000000000246
126,14,0.5,0.0,-35.0,1,0.0,0.349899999999991
127,14,0.5,0.0,35.0,-1,0.0,0.06629999999995562
128,14,0.5,0.125,35.0,1,1.0,0.33770000000004075
129,14,0.5,0.0,-35.0,1,0.0,0.24560000000002447
130,14,0.5,0.0625,-35.0,1,0.0,0.25939999999991414
131,14,0.5,0.0,35.0,-1,0.0,0.17259999999998854
132,14,0.5,0.25,-35.0,-1,1.0,0.21939999999995052
133,14,0.5,1.0,35.0,-1,0.0,0.16019999999991796
134,14,0.5,0.25,-35.0,-1,1.0,0.23339999999996053
135,14,0.5,0.125,35.0,1,1.0,0.48509999999987485
136,14,0.5,0.0625,-35.0,-1,1.0,0.36950000000001637
137,14,0.5,1.0,35.0,1,1.0,0.35419999999999163
138,14,0.5,0.0,35.0,-1,0.0,0.42709999999988213
139,14,0.4,0.0,35.0,-1,0.0,2.2779999999999063
140,14,0.5,1.0,35.0,1,1.0,0.3777999999998656
141,14,0.5,0.0625,-35.0,-1,1.0,1.4184000000000196
142,14,0.5,1.0,-35.0,-1,1.0,0.19700000000000273
143,14,0.5,0.125,35.0,1,1.0,0.3164000000000442
144,14,0.5,0.125,-35.0,-1,1.0,0.0929999999998472
145,14,0.5,0.0,35.0,-1,0.0,0.24889999999982138
146,14,0.5,0.125,35.0,1,1.0,0.3106999999998834
147,14,0.5,0.25,35.0,1,1.0,0.29129999999986467
148,14,0.5,1.0,35.0,1,1.0,0.24500000000000455
149,14,0.5,1.0,-35.0,-1,1.0,0.23230000000000928
150,14,0.5,1.0,35.0,1,1.0,0.2378999999999678
151,14,0.5,0.125,35.0,1,1.0,0.3231999999999289
152,14,0.5,0.0625,-35.0,-1,1.0,0.28930000000002565
153,14,0.5,0.125,-35.0,-1,1.0,0.36209999999994125
154,14,0.5,0.0625,-35.0,-1,1.0,0.2659999999999627
155,14,0.5,0.0,-35.0,-1,1.0,0.2801999999999225
156,14,0.5,0.125,-35.0,-1,1.0,0.34339999999997417
157,14,0.5,0.125,-35.0,-1,1.0,0.2946000000000595
158,14,0.5,0.25,35.0,1,1.0,1.1008000000000493
159,14,0.5,0.0625,-35.0,-1,1.0,0.10460000000000491
160,14,0.5,0.0625,35.0,-1,0.0,0.18939999999986412
161,14,0.5,0.0625,-35.0,-1,1.0,0.20729999999991833
162,14,0.5,0.125,35.0,1,1.0,0.30570000000000164
163,14,0.5,0.0625,35.0,1,1.0,0.3253999999998314
164,14,0.5,0.125,-35.0,-1,1.0,0.1613999999999578
165,14,0.5,0.125,35.0,1,1.0,0.33370000000002165
166,14,0.5,0.25,35.0,1,1.0,0.3079999999999927
167,14,0.5,1.0,35.0,1,1.0,0.3464999999998781
168,14,0.5,1.0,35.0,1,1.0,0.2843000000000302
169,14,0.5,1.0,-35.0,-1,1.0,0.24949999999989814
170,14,0.5,0.0625,-35.0,-1,1.0,0.199799999999982
171,14,0.5,0.0,35.0,-1,0.0,0.29929999999990287
172,14,0.5,0.0,-35.0,-1,1.0,0.2698999999998932
173,14,0.5,0.0625,-35.0,-1,1.0,0.23680000000001655
174,14,0.5,0.125,-35.0,-1,1.0,0.1792000000000371
175,14,0.5,0.0625,35.0,-1,0.0,0.19259999999997035
176,14,0.3,0.0625,35.0,1,1.0,0.6880999999999631
177,14,0.5,1.0,35.0,1,1.0,0.19510000000002492
178,14,0.5,0.0625,35.0,-1,0.0,0.18719999999996162
179,14,0.5,0.0625,35.0,1,1.0,0.3027999999999338
180,14,0.5,0.125,35.0,1,1.0,0.2278999999999769
181,14,0.5,1.0,-35.0,-1,1.0,0.2967999999998483
182,14,0.5,0.0625,-35.0,-1,1.0,0.7452999999999292
183,14,0.5,0.125,35.0,1,1.0,0.5874000000000024
184,14,0.5,0.125,35.0,-1,0.0,0.21839999999997417
185,14,0.5,0.0625,-35.0,-1,1.0,0.23959999999988213
186,14,0.5,1.0,-35.0,-1,1.0,0.41899999999986903
187,14,0.5,0.25,35.0,1,1.0,0.3289999999999509
188,14,0.5,0.125,-35.0,-1,1.0,0.22030000000006567
189,14,0.5,1.0,-35.0,-1,1.0,0.24169999999992342
190,14,0.5,0.0625,35.0,-1,0.0,0.26340000000004693
191,14,0.2,0.0625,35.0,1,1.0,0.3002999999999929
192,14,0.5,1.0,35.0,1,1.0,0.3002999999999929
193,14,0.5,0.25,-35.0,-1,1.0,0.23260000000004766
194,14,0.5,0.0625,-35.0,-1,1.0,0.23299999999994725
195,14,0.5,0.125,35.0,1,1.0,0.2963999999999487
196,14,0.5,0.125,-35.0,-1,1.0,0.23089999999979227
197,14,0.5,1.0,35.0,1,1.0,0.2561999999999216
198,14,0.5,1.0,35.0,1,1.0,0.3287999999998874
199,14,0.5,0.125,-35.0,-1,1.0,0.30970000000002074
200,14,0.5,1.0,-35.0,-1,1.0,0.19479999999998654
201,14,0.5,0.0625,35.0,-1,0.0,0.092899999999986
202,14,0.5,0.0625,35.0,1,1.0,0.21709999999995944
203,14,0.5,0.25,-35.0,-1,1.0,0.2135999999999285
204,14,0.5,0.25,35.0,1,1.0,0.2259999999998854
205,14,0.5,0.0625,35.0,-1,0.0,1.8958000000000084
206,14,0.5,0.0,-35.0,-1,1.0,3.0217999999999847
207,14,0.5,0.0625,35.0,-1,0.0,0.2522999999999911
208,14,0.5,0.0625,-35.0,-1,1.0,0.21749999999997272
209,14,0.5,0.25,35.0,1,1.0,0.3292999999998756
210,14,0.5,0.25,-35.0,-1,1.0,0.07399999999995543
211,14,0.5,0.0,-35.0,-1,1.0,0.1814000000000533
212,14,0.5,1.0,-35.0,-1,1.0,0.19240000000002055
213,14,0.5,1.0,-35.0,-1,1.0,0.20209999999997308
214,14,0.5,0.25,35.0,1,1.0,0.47529999999994743
215,14,0.5,0.0625,-35.0,-1,1.0,0.19219999999995707
216,14,0.5,0.25,35.0,1,1.0,0.28729999999984557
217,14,0.5,1.0,-35.0,-1,1.0,0.0947999999999638
218,14,0.5,0.0625,35.0,1,1.0,0.44860000000005584
219,14,0.5,0.25,35.0,1,1.0,0.2826999999999771
220,14,0.5,0.0625,35.0,1,1.0,0.7462999999999056
221,14,0.5,0.125,35.0,-1,0.0,0.18679999999994834
222,14,0.5,0.0625,35.0,1,1.0,0.3344999999999345
223,14,0.5,0.0,-35.0,-1,1.0,0.48659999999995307
224,14,0.5,0.0,-35.0,-1,1.0,0.2941999999999325
225,14,0.5,0.0625,35.0,-1,0.0,0.1998999999999569
226,14,0.5,0.0625,35.0,-1,0.0,0.14839999999992415
227,14,0.5,1.0,35.0,1,1.0,0.29959999999994125
228,14,0.5,0.125,35.0,1,1.0,0.3007999999998674
229,14,0.5,0.0625,-35.0,-1,1.0,0.193300000000022
230,14,0.5,0.125,-35.0,-1,1.0,0.058799999999905594
231,14,0.5,0.25,-35.0,-1,1.0,0.3363999999999123
232,14,0.5,0.0,-35.0,-1,1.0,0.24889999999993506
233,14,0.5,0.0,35.0,-1,0.0,0.20939999999995962
234,14,0.5,0.25,-35.0,-1,1.0,0.27769999999986794
235,14,0.5,0.0625,35.0,-1,0.0,0.17299999999988813
236,14,0.5,0.125,-35.0,-1,1.0,0.21619999999995798
237,14,0.5,0.0,35.0,-1,0.0,0.22890000000006694
238,14,0.1,0.0,-35.0,-1,1.0,0.23439999999993688
239,14,0.5,1.0,35.0,1,1.0,0.2966999999998734
240,14,0.5,0.25,35.0,1,1.0,0.45059999999989486
241,14,0.5,0.0625,35.0,-1,0.0,0.1938000000000102
242,14,0.5,0.125,-35.0,-1,1.0,0.2880999999999858
243,14,0.5,1.0,35.0,1,1.0,0.2139999999999418
244,14,0.5,0.0625,35.0,1,1.0,0.6713999999999487
245,14,0.5,0.0,-35.0,-1,1.0,0.1937999999998965
246,14,0.5,0.25,35.0,1,1.0,0.49059999999997217
247,14,0.5,0.125,35.0,1,1.0,0.37019999999995434
248,14,0.5,0.0625,-35.0,-1,1.0,0.4116999999998825
249,14,0.5,0.25,-35.0,-1,1.0,0.2568999999998596
250,14,0.5,0.25,-35.0,-1,1.0,0.26089999999999236
251,14,0.5,1.0,35.0,1,1.0,0.47909999999990305
252,14,0.5,0.0625,35.0,1,1.0,0.445699999999988
253,14,0.5,0.125,35.0,1,1.0,0.17980000000000018
254,14,0.5,0.0625,-35.0,-1,1.0,0.2561999999998079
255,14,0.5,0.0625,-35.0,-1,1.0,0.18250000000000455
256,14,0.5,0.0,35.0,-1,0.0,0.07639999999992142
257,14,0.4,0.0,35.0,-1,0.0,0.2297000000000935
258,14,0.5,1.0,-35.0,-1,1.0,0.20219999999994798
259,14,0.5,1.0,-35.0,-1,1.0,0.13229999999998654
260,14,0.5,0.25,-35.0,1,0.0,2.729099999999903
261,14,0.5,0.25,35.0,1,1.0,0.22249999999996817
262,14,0.5,0.0625,-35.0,1,0.0,0.15909999999985303
263,14,0.5,0.125,-35.0,-1,1.0,0.20009999999990669
264,14,0.5,0.25,-35.0,-1,1.0,0.1933999999999969
265,14,0.5,0.125,35.0,1,1.0,0.33629999999971005
266,14,0.5,1.0,35.0,1,1.0,0.2826000000000022
267,14,0.5,1.0,35.0,1,1.0,0.3027999999997064
268,14,0.5,0.25,35.0,-1,0.0,0.04980000000000473
269,14,0.5,0.0625,35.0,1,1.0,0.21229999999991378
270,14,0.5,0.125,-35.0,-1,1.0,0.30559999999991305
271,14,0.5,0.25,-35.0,-1,1.0,0.22230000000013206
272,14,0.5,1.0,35.0,1,1.0,0.0590999999997166
273,14,0.5,0.25,35.0,1,1.0,0.2725000000000364
274,14,0.5,1.0,35.0,1,1.0,0.22600000000011278
275,14,0.5,0.25,35.0,1,1.0,0.2360999999998512
276,14,0.5,0.125,35.0,1,1.0,0.08950000000004366
277,14,0.5,0.25,-35.0,-1,1.0,0.27959999999984575
278,14,0.5,0.25,35.0,1,1.0,0.3696999999997388
279,14,0.5,0.125,-35.0,-1,1.0,0.24639999999999418
280,14,0.5,0.0,-35.0,1,0.0,0.12989999999990687
281,14,0.5,0.125,-35.0,-1,1.0,0.20659999999998035
282,14,0.5,0.0,-35.0,-1,1.0,0.049899999999752254
283,14,0.5,0.0625,35.0,-1,0.0,0.1800999999998112
284,14,0.5,0.0,-35.0,-1,1.0,0.18679999999994834
285,14,0.5,0.125,-35.0,-1,1.0,0.306999999999789
286,14,0.5,0.0625,-35.0,-1,1.0,0.09019999999986794
287,14,0.5,0.125,-35.0,-1,1.0,0.18020000000001346
288,14,0.5,0.125,-35.0,-1,1.0,0.16030000000000655
289,14,0.5,0.0625,35.0,1,1.0,0.5035999999997784
290,14,0.5,1.0,35.0,-1,0.0,0.07380000000011933
291,14,0.1,1.0,35.0,-1,0.0,0.16069999999990614
292,14,0.1,1.0,-35.0,-1,1.0,0.1839999999997417
293,14,0.5,1.0,-35.0,-1,1.0,0.20079999999984466
294,14,0.5,0.25,-35.0,-1,1.0,0.24749999999994543
295,14,0.5,0.125,-35.0,-1,1.0,0.6176000000000386
296,14,0.5,0.0625,-35.0,-1,1.0,0.2242999999998574
297,14,0.5,0.0,35.0,-1,0.0,0.18439999999986867
298,14,0.5,0.125,35.0,1,1.0,0.3345999999999094
299,14,0.5,0.0,-35.0,-1,1.0,0.1812999999999647
300,14,0.5,0.25,35.0,1,1.0,0.2780999999999949
301,14,0.5,0.0,-35.0,-1,1.0,0.25479999999993197
302,14,0.5,0.25,35.0,1,1.0,0.23149999999986903
303,14,0.5,0.25,-35.0,-1,1.0,0.16819999999984248
304,14,0.5,0.25,-35.0,-1,1.0,0.18489999999997053
305,14,0.5,0.25,-35.0,-1,1.0,0.2051000000001295
306,14,0.5,0.125,35.0,1,1.0,0.5551000000000386
307,14,0.5,1.0,35.0,1,1.0,0.24520000000006803
308,14,0.5,0.125,35.0,-1,0.0,0.16200000000003456
309,14,0.5,0.125,-35.0,-1,1.0,0.1719999999997981
310,14,0.5,1.0,-35.0,-1,1.0,0.3088000000000193
311,14,0.5,0.0625,-35.0,-1,1.0,0.19890000000009422
312,14,0.5,0.125,35.0,-1,0.0,0.1654999999998381
313,14,0.5,0.125,-35.0,-1,1.0,0.18240000000014334
314,14,0.5,0.25,35.0,-1,0.0,0.43909999999982574
315,14,0.5,0.0625,35.0,-1,0.0,0.1692000000000462
316,14,0.5,0.25,-35.0,-1,1.0,0.20259999999984757
317,14,0.5,1.0,-35.0,-1,1.0,0.2525999999998021
318,14,0.5,0.0625,-35.0,-1,1.0,0.1793999999999869
319,14,0.5,1.0,-35.0,-1,1.0,0.1993999999999687
320,14,0.5,1.0,-35.0,-1,1.0,0.6927999999998065
321,14,0.5,0.0,-35.0,1,0.0,0.5461999999999989
322,14,0.5,0.25,35.0,-1,0.0,0.1929000000002361
323,14,0.1,0.25,35.0,1,1.0,0.3229999999998654
324,14,0.5,1.0,35.0,1,1.0,0.3063999999999396
325,14,0.5,0.25,-35.0,-1,1.0,0.25310000000013133
326,14,0.5,0.0625,35.0,1,1.0,0.4297999999998865
327,14,0.5,1.0,35.0,1,1.0,0.48329999999987194
328,14,0.5,0.25,35.0,-1,0.0,0.20659999999998035
329,14,0.5,0.0625,-35.0,-1,1.0,0.18339999999989232
330,14,0.5,0.0,-35.0,-1,1.0,0.15689999999995052
331,14,0.5,0.0625,35.0,-1,0.0,0.16030000000000655
332,14,0.5,0.25,-35.0,-1,1.0,0.2038000000000011
333,14,0.5,1.0,35.0,1,1.0,0.2336999999999989
334,14,0.5,1.0,-35.0,-1,1.0,0.35049999999978354
335,14,0.5,0.0,-35.0,-1,1.0,3.957099999999855
336,14,0.5,0.125,35.0,1,1.0,0.49729999999976826
337,14,0.5,0.0625,-35.0,-1,1.0,0.35410000000001673
338,14,0.5,1.0,35.0,1,1.0,0.3373999999998887
339,14,0.5,0.25,35.0,1,1.0,0.40089999999986503
340,14,0.5,0.0625,-35.0,-1,1.0,0.2376000000001568
341,14,0.5,0.25,35.0,-1,0.0,0.21780000000012478
342,14,0.5,0.0625,35.0,-1,0.0,0.21109999999998763
343,14,0.5,0.125,35.0,-1,0.0,0.18449999999984357
344,14,0.5,0.0,35.0,-1,0.0,0.20459999999980027
345,14,0.5,0.125,-35.0,-1,1.0,0.1914999999999054
346,14,0.5,1.0,35.0,1,1.0,0.34809999999993124
347,14,0.5,0.0625,-35.0,-1,1.0,5.368299999999863
348,14,0.5,0.125,35.0,-1,0.0,0.19509999999991123
349,14,0.5,0.0625,-35.0,-1,1.0,0.055000000000063665
350,14,0.5,0.25,35.0,1,1.0,0.3451000000000022
351,14,0.5,0.0625,35.0,-1,0.0,0.1551999999999225
352,14,0.2,0.0625,35.0,-1,0.0,0.34859999999980573
353,14,0.5,1.0,35.0,1,1.0,0.26539999999999964
354,14,0.5,0.125,35.0,-1,0.0,0.17880000000013752
355,14,0.5,0.0625,35.0,1,1.0,0.3121000000001004
356,14,0.5,0.0625,-35.0,-1,1.0,0.13220000000001164
357,14,0.5,0.0,-35.0,-1,1.0,0.07900000000017826
358,14,0.5,0.125,-35.0,-1,1.0,0.49890099999993254
359,14,0.5,1.0,-35.0,-1,1.0,0.189000999999962
360,14,0.5,0.0625,35.0,1,1.0,0.755900999999767
361,14,0.5,1.0,35.0,1,1.0,0.3627010000000155
362,14,0.5,1.0,35.0,1,1.0,1.1627010000001974
363,14,0.5,0.125,35.0,1,1.0,0.649400999999898
364,14,0.5,0.0625,-35.0,-1,1.0,0.2330010000000584
365,14,0.5,0.0,35.0,1,1.0,0.6562009999997827
366,14,0.5,0.25,-35.0,-1,1.0,0.2398009999999431
367,14,0.5,0.125,-35.0,1,0.0,0.8364009999997961
368,14,0.5,0.125,-35.0,-1,1.0,0.22990100000015445
369,14,0.5,0.25,-35.0,-1,1.0,0.37990100000001803
370,14,0.5,0.25,35.0,-1,0.0,0.1768010000000686
371,14,0.5,0.25,35.0,1,1.0,0.29350099999987833
372,14,0.5,1.0,-35.0,-1,1.0,0.17360099999996237
373,14,0.5,0.0625,35.0,1,1.0,0.3235010000000784
374,14,0.5,0.25,35.0,1,1.0,0.2870010000001457
375,14,0.5,0.25,35.0,-1,0.0,0.11380099999996673
376,14,0.5,0.125,-35.0,-1,1.0,0.1772009999999682
377,14,0.5,1.0,-35.0,-1,1.0,0.19390100000009625
378,14,0.5,1.0,35.0,1,1.0,0.3408009999998285
379,14,0.5,1.0,-35.0,-1,1.0,0.4475009999998747
380,14,0.5,1.0,-35.0,-1,1.0,0.14090099999975791
381,14,0.5,0.0,35.0,-1,0.0,0.28770099999997
382,14,0.5,0.0625,-35.0,-1,1.0,0.25780100000019956
383,14,0.5,0.125,-35.0,-1,1.0,0.28110099999980775
384,14,0.5,0.0625,35.0,-1,0.0,0.20110099999988051
385,14,0.5,0.0625,-35.0,-1,1.0,0.13110099999994418
386,14,0.5,0.25,-35.0,-1,1.0,0.09790099999986523
387,14,0.5,0.25,-35.0,-1,1.0,0.10460100000000239
388,14,0.5,1.0,35.0,1,1.0,0.32480099999997947
389,14,0.5,0.0,-35.0,-1,1.0,0.20810099999994236
390,14,0.5,0.0625,-35.0,1,0.0,0.8216010000001006
391,14,0.5,0.125,35.0,1,1.0,0.6216009999998278
392,14,0.5,0.25,35.0,-1,0.0,0.18170099999997547
393,14,0.3,0.25,-35.0,-1,1.0,0.051800999999841224
394,14,0.5,1.0,-35.0,-1,1.0,0.24520099999995182
395,14,0.5,0.125,35.0,-1,0.0,0.21190100000012535
396,14,0.5,0.25,-35.0,-1,1.0,0.1754009999997379
397,14,0.5,0.25,35.0,-1,0.0,0.19220099999984086
398,14,0.5,0.125,-35.0,-1,1.0,0.20210099999985687
399,14,0.5,1.0,35.0,1,1.0,0.352301000000125
400,14,0.5,0.125,35.0,-1,0.0,0.2723009999999704
401,14,0.5,0.0625,-35.0,-1,1.0,0.1990009999999529
402,14,0.5,0.25,35.0,1,1.0,0.4659009999998034
403,14,0.5,0.25,35.0,-1,0.0,0.1625010000000202
404,14,0.5,0.25,35.0,-1,0.0,0.1893009999998867
405,14,0.2,0.25,35.0,-1,0.0,0.19600100000002385
406,14,0.5,1.0,35.0,1,1.0,0.3029009999997925
407,14,0.5,0.0,35.0,-1,0.0,0.18950100000006387
408,14,0.5,0.125,-35.0,-1,1.0,0.21630099999993035
409,14,0.5,1.0,-35.0,-1,1.0,0.18630099999995764
410,14,0.5,0.0625,-35.0,-1,1.0,0.07630100000005768
411,14,0.5,0.0625,35.0,-1,0.0,0.14310100000011516
412,14,0.2,0.0625,35.0,-1,0.0,0.2732009999999718
413,14,0.5,1.0,35.0,1,1.0,0.3833009999998467
414,14,0.5,0.0625,-35.0,-1,1.0,0.18660099999988233
415,14,0.5,0.25,35.0,-1,0.0,0.223500999999942
416,14,0.2,0.25,-35.0,-1,1.0,0.2135009999999511
417,14,0.5,1.0,35.0,1,1.0,0.4370010000000093
418,14,0.5,0.0625,-35.0,-1,1.0,0.10700099999985468
419,14,0.5,0.0625,-35.0,-1,1.0,0.36700100000007296
420,14,0.5,0.25,-35.0,-1,1.0,0.2338009999998576
421,14,0.5,0.25,35.0,1,1.0,0.4939009999998234
422,14,0.5,0.0,35.0,-1,0.0,0.19740100000012717
423,14,0.3,0.0,35.0,-1,0.0,0.10410099999990052
424,14,0.5,1.0,35.0,1,1.0,0.3941010000000915
425,14,0.5,1.0,35.0,1,1.0,0.4309009999999489
426,14,0.5,0.0,35.0,-1,0.0,0.18100099999969643
427,14,0.4,0.0,35.0,-1,0.0,0.1911009999998896
428,14,0.5,1.0,35.0,-1,0.0,0.13770099999987906
429,14,0.3,1.0,35.0,1,1.0,0.3811009999999442
430,14,0.5,1.0,35.0,1,1.0,0.657901000000038
431,14,0.5,0.0625,-35.0,-1,1.0,0.06120099999998274
432,14,0.5,1.0,-35.0,-1,1.0,0.04140099999995073
433,14,0.5,0.0625,35.0,-1,0.0,0.3581010000000333
434,14,0.5,0.25,-35.0,-1,1.0,0.23810099999991508
435,14,0.5,1.0,35.0,1,1.0,0.39150100000006205
436,14,0.5,0.0,35.0,-1,0.0,0.21160099999997328
437,14,0.3,0.0,35.0,1,1.0,0.25830100000007405
438,14,0.5,1.0,-35.0,-1,1.0,0.19840100000010352
439,14,0.5,0.125,35.0,-1,0.0,0.1185009999999238
440,14,0.3,0.125,35.0,-1,0.0,0.22190099999988888
441,14,0.5,1.0,-35.0,-1,1.0,0.22540100000014718
442,14,0.5,0.125,35.0,-1,0.0,0.2254009999999198
443,14,0.5,0.0625,-35.0,-1,1.0,0.22210099999983868
444,14,0.5,1.0,-35.0,-1,1.0,0.1589010000000144
445,14,0.5,0.0625,35.0,-1,0.0,0.17560099999991508
446,14,0.5,0.0625,-35.0,-1,1.0,0.21900099999993472
447,14,0.5,1.0,35.0,1,1.0,0.3824010000000726
448,14,0.5,0.0625,-35.0,-1,1.0,0.19590100000004895
449,14,0.5,0.25,35.0,1,1.0,0.45260099999995873
450,14,0.5,0.125,-35.0,-1,1.0,0.2194009999998343
451,14,0.5,0.25,-35.0,-1,1.0,0.20620099999973718
452,14,0.5,0.25,35.0,1,1.0,0.32950099999970917
453,14,0.5,0.125,35.0,1,1.0,0.3463010000000395
454,14,0.5,0.125,35.0,1,1.0,0.39970099999982267
455,14,0.5,0.125,-35.0,-1,1.0,0.40320100000008097
456,14,0.5,1.0,35.0,1,1.0,0.3099010000000817
457,14,0.5,0.25,-35.0,-1,1.0,0.233400999999958
458,14,0.5,0.25,-35.0,-1,1.0,0.3668009999998958
459,14,0.5,0.0625,-35.0,1,0.0,0.5935009999998329
460,14,0.5,0.25,35.0,1,1.0,0.3671009999998205
461,14,0.5,0.0625,-35.0,-1,1.0,0.32700100000010934
462,14,0.5,0.125,35.0,1,1.0,0.5104010000000017
463,14,0.5,1.0,35.0,1,1.0,0.5106009999999515
464,14,0.5,0.25,35.0,1,1.0,0.7473009999998794
465,14,0.5,0.125,35.0,1,1.0,0.6641010000000733
466,14,0.5,0.0,-35.0,-1,1.0,0.34740099999999074
467,14,0.5,0.0625,35.0,1,1.0,0.45430099999998674
468,14,0.5,0.0625,-35.0,-1,1.0,0.38760099999990416
469,14,0.5,0.125,-35.0,-1,1.0,0.1344010000000253
470,14,0.5,1.0,-35.0,1,0.0,1.2946009999998296
471,14,0.5,0.0,-35.0,-1,1.0,2.608100999999806
472,14,0.5,0.125,-35.0,-1,1.0,0.508000999999922
473,14,0.5,0.0,-35.0,-1,1.0,0.19480099999987033
474,14,0.5,0.125,35.0,-1,0.0,0.11150100000008933
475,14,0.5,0.0625,35.0,1,1.0,0.40820099999996273
476,14,0.5,0.125,-35.0,-1,1.0,0.271701000000121
477,14,0.5,0.0625,35.0,1,1.0,0.43170100000020284
478,14,0.5,0.125,-35.0,1,0.0,0.6418009999999867
479,14,0.5,0.125,-35.0,-1,1.0,0.1952009999999973
480,14,0.5,0.0625,35.0,1,1.0,0.4353009999999813
481,14,0.5,0.0,35.0,-1,0.0,0.19870099999980084
482,14,0.5,0.0625,-35.0,-1,1.0,0.10210099999994782
483,14,0.5,1.0,-35.0,1,0.0,0.8422009999997044
484,14,0.5,1.0,35.0,1,1.0,0.36890100000005077
485,14,0.5,1.0,-35.0,-1,1.0,0.3189009999998689
486,14,0.5,0.25,-35.0,1,0.0,0.7591009999998732
487,14,0.5,0.0625,-35.0,-1,1.0,0.1891009999999369
488,14,0.5,1.0,-35.0,1,0.0,0.46270099999992453
489,14,0.5,0.125,35.0,1,1.0,0.7727010000000973
490,14,0.5,0.0625,35.0,1,1.0,0.7627009999998791
491,14,0.5,0.125,35.0,1,1.0,0.7861010000001443
492,14,0.5,1.0,-35.0,-1,1.0,0.1729009999999107
493,14,0.5,1.0,35.0,1,1.0,0.432901000000129
494,14,0.5,0.0625,35.0,1,1.0,0.3097010000001319
495,14,0.5,1.0,-35.0,1,0.0,0.44980099999997947
496,14,0.8,1.0,-35.0,-1,1.0,0.4733009999999922
497,14,0.5,1.0,-35.0,-1,1.0,0.08660099999974591
498,14,0.5,0.0625,-35.0,-1,1.0,0.49440099999992526
499,14,0.5,1.0,35.0,-1,0.0,0.2214010000000144
500,14,0.5,0.0,-35.0,-1,1.0,0.3511009999997441
501,14,0.5,0.0,-35.0,-1,1.0,4.631501000000071
502,14,0.5,0.0,-35.0,-1,1.0,2.03790099999992
503,14,0.5,1.0,-35.0,-1,1.0,0.3180010000000948
504,14,0.5,0.0625,-35.0,-1,1.0,0.1251009999998587
505,14,0.5,0.0,-35.0,-1,1.0,2.6252009999998336
506,14,0.5,0.125,35.0,1,1.0,0.8151009999999133
507,14,0.5,0.25,35.0,1,1.0,0.3552009999998518
508,14,0.5,0.25,35.0,-1,0.0,0.18550100000015846
509,14,0.2,0.25,35.0,1,1.0,0.46230099999979757
510,14,0.5,1.0,35.0,1,1.0,0.6257009999999354
511,14,0.5,0.0625,-35.0,-1,1.0,0.2394010000000435
512,14,0.5,0.125,35.0,1,1.0,0.2892010000000482
513,14,0.5,1.0,35.0,-1,0.0,0.05950099999995473
514,14,0.5,1.0,-35.0,-1,1.0,0.1927010000001701
515,14,0.5,1.0,-35.0,-1,1.0,0.19610099999977137
516,14,0.5,0.0,35.0,-1,0.0,0.19630100000017592
517,14,0.5,0.0,35.0,-1,0.0,0.14640099999996892
518,14,0.5,0.125,35.0,1,1.0,0.4366010000001097
519,14,0.5,0.0,-35.0,-1,1.0,4.796100999999908
520,14,0.5,0.125,35.0,-1,0.0,0.3562010000000555
521,14,0.5,0.0625,-35.0,-1,1.0,0.16340100000002167
522,14,0.5,0.0625,-35.0,1,0.0,0.42660099999989143
523,14,0.2,0.0625,35.0,1,1.0,0.7040009999998347
524,14,0.5,1.0,35.0,1,1.0,0.8834009999995942
525,14,0.5,1.0,35.0,1,1.0,0.39000099999975646
526,14,0.5,0.0625,-35.0,-1,1.0,1.4434009999999944
527,14,0.5,0.0625,-35.0,-1,1.0,0.2435009999999238
528,14,0.5,0.125,-35.0,-1,1.0,0.5202009999998154
529,14,0.5,0.0,35.0,-1,0.0,2.4339010000003327
530,14,0.4,0.0,35.0,-1,0.0,0.35710100000005696
531,14,0.5,1.0,35.0,1,1.0,0.7643010000001595
532,14,0.5,0.0625,35.0,1,1.0,0.23070099999995364
533,14,0.5,0.25,35.0,-1,0.0,0.07410099999970043
534,14,0.5,0.0,-35.0,-1,1.0,0.2376009999998132
535,14,0.5,0.25,-35.0,-1,1.0,0.1375009999997019
536,14,0.5,0.125,35.0,-1,0.0,0.15100000000029468
537,14,0.2,0.125,-35.0,-1,1.0,0.09770099999968807
538,14,0.5,1.0,35.0,1,1.0,0.40780099999983577
539,14,0.5,0.125,-35.0,-1,1.0,0.27500099999952
540,14,0.5,0.0625,35.0,1,1.0,0.4812010000000555
541,14,0.5,0.25,-35.0,-1,1.0,0.1353009999997994
542,14,0.5,0.125,35.0,1,1.0,0.2749010000002272
543,14,0.5,0.125,-35.0,-1,1.0,2.274901000000227
544,14,0.5,1.0,-35.0,1,0.0,0.5351009999999405
545,14,0.5,0.25,35.0,1,1.0,0.5215009999997164
546,14,0.5,1.0,35.0,1,1.0,0.4151010000000497
547,14,0.5,0.0,-35.0,-1,1.0,2.6118999999998778
548,14,0.5,0.125,35.0,1,1.0,0.32200099999954546
549,14,0.5,0.0625,35.0,1,1.0,2.8021010000002207
550,14,0.5,1.0,35.0,1,1.0,0.3829009999999471
551,14,0.5,1.0,-35.0,-1,1.0,0.5559010000001763
552,14,0.5,0.25,-35.0,1,0.0,0.7591010000001006
553,14,0.5,0.0625,35.0,1,1.0,0.2958010000002105
554,14,0.5,0.25,-35.0,1,0.0,0.8825010000000475
555,14,0.5,0.25,-35.0,-1,1.0,0.1994009999998525
556,14,0.5,0.125,-35.0,-1,1.0,0.8028009999998176
557,14,0.5,1.0,35.0,1,1.0,0.2927009999998518
558,14,0.5,1.0,35.0,1,1.0,0.21310099999982413
559,14,0.5,0.0625,-35.0,1,0.0,0.7533010000001923
560,14,0.5,0.0625,35.0,-1,0.0,0.1930010000000948
561,14,0.5,0.125,-35.0,-1,1.0,0.150101000000177
562,14,0.5,0.125,35.0,1,1.0,0.29660100000000966
563,14,0.5,0.25,-35.0,-1,1.0,0.41370099999994636
564,14,0.5,0.125,-35.0,-1,1.0,0.20990100000017264
565,14,0.5,1.0,-35.0,-1,1.0,0.3199010000003
566,14,0.5,0.125,-35.0,-1,1.0,0.07710099999985687
567,14,0.5,0.25,-35.0,-1,1.0,0.25690099999974336
568,14,0.5,1.0,-35.0,-1,1.0,0.22400100000004386
569,14,0.5,0.25,-35.0,1,0.0,0.1737009999997099
570,14,0.5,0.25,35.0,1,1.0,0.38719999999966603
571,14,0.5,0.0625,35.0,-1,0.0,0.12440099999957965
572,14,0.5,0.25,35.0,1,1.0,0.270701000000372
573,14,0.5,0.0625,35.0,-1,0.0,0.22770100000025195
574,14,0.3,0.0625,35.0,-1,0.0,0.2611010000000533
575,14,0.5,1.0,35.0,1,1.0,0.26410100000020975
576,14,0.5,0.125,-35.0,-1,1.0,0.18170099999997547
577,14,0.5,0.0625,35.0,-1,0.0,0.1944010000001981
578,14,0.5,0.0625,35.0,-1,0.0,0.22080099999993763
579,14,0.5,0.0625,-35.0,-1,1.0,0.3112010000004375
580,14,0.5,1.0,35.0,1,1.0,0.4247009999999136
581,14,0.5,0.125,-35.0,-1,1.0,0.3745010000002367
582,14,0.5,0.25,-35.0,-1,1.0,0.4413009999998394
583,14,0.5,0.0625,35.0,1,1.0,0.37490100000013626
584,14,0.5,0.125,-35.0,-1,1.0,0.248801000000185
585,14,0.5,1.0,35.0,1,1.0,0.3189009999996415
586,14,0.5,1.0,-35.0,-1,1.0,0.17850100000032398
587,14,0.5,0.0625,-35.0,-1,1.0,0.351900999999998
588,14,0.5,0.125,-35.0,-1,1.0,0.6885010000000875
589,14,0.5,0.125,-35.0,-1,1.0,0.23200099999985468
590,14,0.5,0.125,35.0,1,1.0,0.4488010000000031
591,14,0.5,0.0625,35.0,-1,0.0,0.1492009999997208
592,14,0.5,0.25,35.0,1,1.0,0.45240100000000893
593,14,0.5,0.0625,35.0,1,1.0,0.7322009999998045
594,14,0.5,0.0625,35.0,1,1.0,0.2257009999998445
595,14,0.5,0.125,35.0,1,1.0,0.3491009999997914
596,14,0.5,0.0625,35.0,-1,0.0,0.20590099999981248
597,14,0.5,0.25,-35.0,-1,1.0,0.18610099999978047
598,14,0.5,0.0,-35.0,1,0.0,0.295900999999958
599,14,0.5,0.125,35.0,1,1.0,0.3426009999998314
600,14,0.5,1.0,35.0,1,1.0,0.37280099999952654
601,14,0.5,0.125,35.0,-1,0.0,0.16650099999969825
602,14,0.5,0.125,35.0,1,1.0,0.3831009999998969
603,14,0.5,0.125,-35.0,-1,1.0,0.2198009999997339
604,14,0.5,0.25,-35.0,-1,1.0,0.383701000000201
605,14,0.5,0.125,-35.0,1,0.0,2.506901000000198
606,14,0.5,0.125,35.0,1,1.0,0.30020099999956074
607,14,0.5,0.0625,35.0,1,1.0,0.12030099999992672
608,14,0.5,1.0,-35.0,-1,1.0,0.36080100000026505
609,14,0.5,0.0,-35.0,1,0.0,0.24710099999992963
610,14,0.6,0.0,35.0,1,1.0,0.49700099999972736
611,14,0.5,1.0,35.0,1,1.0,0.4573009999999158
612,14,0.5,0.125,35.0,1,1.0,0.6638009999996939
613,14,0.5,0.25,35.0,1,1.0,0.4314009999998234
614,14,0.5,1.0,-35.0,-1,1.0,0.16740100000015445
615,14,0.5,0.0625,35.0,1,1.0,0.711500999999771
616,14,0.5,1.0,35.0,1,1.0,0.3544010000000526
617,14,0.5,0.125,-35.0,-1,1.0,0.218000999999731
618,14,0.5,1.0,-35.0,-1,1.0,0.14130100000011225
619,14,0.5,0.25,-35.0,-1,1.0,0.21810099999993326
620,14,0.5,0.25,35.0,1,1.0,0.484400999999707
621,14,0.5,0.25,-35.0,-1,1.0,0.27470099999982267
622,14,0.5,0.0625,35.0,1,1.0,0.3718010000002323
623,14,0.5,1.0,35.0,1,1.0,0.47800099999994927
624,14,0.5,0.0625,35.0,1,1.0,0.2815009999999347
625,14,0.5,0.0625,35.0,1,1.0,0.5782010000002629
626,14,0.5,0.125,35.0,1,1.0,0.7986009999999624
627,14,0.5,0.125,-35.0,-1,1.0,0.29550099999960366
628,14,0.5,0.0625,35.0,1,1.0,0.3851009999998496
629,14,0.5,0.125,35.0,1,1.0,2.255301000000145
630,14,0.5,0.125,35.0,-1,0.0,0.18570099999988088
631,14,0.5,0.125,-35.0,1,0.0,0.7554009999998925
632,14,0.8,0.125,35.0,1,1.0,0.423001000000113
633,14,0.5,1.0,-35.0,-1,1.0,0.2856010000000424
634,14,0.5,0.125,35.0,1,1.0,0.34570099999973536
635,14,0.5,0.125,-35.0,-1,1.0,0.26250100000015664
636,14,0.5,0.25,-35.0,-1,1.0,0.5828010000000177
637,14,0.5,1.0,-35.0,-1,1.0,0.07590099999970334
638,14,0.5,1.0,-35.0,-1,1.0,0.2461009999997259
639,14,0.5,0.0625,-35.0,-1,1.0,0.35330100000010134
640,14,0.5,0.0625,-35.0,-1,1.0,1.7494010000004891
641,14,0.5,0.0625,-35.0,-1,1.0,0.17300100000011298
642,14,0.5,0.0,35.0,1,1.0,0.5067009999997936
643,14,0.5,1.0,-35.0,-1,1.0,0.1832009999998263
644,14,0.5,0.0,35.0,-1,0.0,0.19010100000014063
645,14,0.1,0.0,35.0,-1,0.0,0.1801010000003771
646,14,0.5,1.0,35.0,1,1.0,0.6208010000000286
647,14,0.5,0.125,-35.0,-1,1.0,0.1568010000000868
648,14,0.5,0.125,-35.0,1,0.0,0.3006009999999151
649,14,0.5,0.125,-35.0,1,0.0,0.47090099999968515
650,14,0.5,0.0625,35.0,1,1.0,0.33080100000006496
651,14,0.5,0.0625,35.0,-1,0.0,0.2174009999998816
652,14,0.5,0.0625,35.0,-1,0.0,0.21730099999967933
653,14,0.5,0.25,35.0,-1,0.0,0.16770099999985177
654,14,0.5,0.0625,35.0,-1,0.0,0.5210010000000693
655,14,0.4,0.0625,35.0,1,1.0,0.6111009999999624
656,14,0.5,1.0,35.0,1,1.0,0.7077009999998154
657,14,0.5,1.0,-35.0,-1,1.0,0.6679009999998016
658,14,0.5,0.0625,-35.0,-1,1.0,0.3382010000000264
659,14,0.5,0.125,35.0,-1,0.0,0.3948009999999158
660,14,0.3,0.125,35.0,1,1.0,0.4990010000001348
661,14,0.5,1.0,35.0,1,1.0,0.34820099999978993
662,14,0.5,0.125,-35.0,-1,1.0,0.3083010000000286
663,14,0.5,0.125,-35.0,-1,1.0,0.25860099999999875
664,14,0.5,1.0,-35.0,-1,1.0,0.338600999999926
665,14,0.5,0.125,35.0,1,1.0,0.21220100000027742
666,14,0.5,0.25,35.0,1,1.0,0.7057009999998627
667,14,0.5,0.0625,35.0,-1,0.0,0.1858009999996284
668,14,0.5,0.0625,-35.0,-1,1.0,0.06530099999963568
669,14,0.5,0.125,-35.0,-1,1.0,0.36910100000022794
670,14,0.5,0.125,35.0,-1,0.0,0.15560099999993326
671,14,0.5,0.0,-35.0,-1,1.0,0.3627010000000155
672,14,0.5,0.125,35.0,1,1.0,0.2824009999999362
673,14,0.5,1.0,-35.0,-1,1.0,0.16240100000004531
674,14,0.5,1.0,35.0,1,1.0,0.3893009999997048
675,14,0.5,1.0,-35.0,-1,1.0,0.2530010000000402
676,14,0.5,1.0,-35.0,-1,1.0,0.36640099999976883
677,14,0.5,0.25,-35.0,-1,1.0,0.17680099999961385
678,14,0.5,1.0,-35.0,-1,1.0,0.20620099999996455
679,14,0.5,1.0,-35.0,-1,1.0,0.21950100000049133
680,14,0.5,0.125,-35.0,-1,1.0,0.2364009999996597
681,14,0.5,0.0625,-35.0,-1,1.0,0.2336009999999078
682,14,0.5,0.0625,-35.0,-1,1.0,0.566700999999739
683,14,0.5,0.125,-35.0,-1,1.0,0.39650099999971644
684,14,0.5,0.0625,35.0,1,1.0,0.2900009999998474
685,14,0.5,0.125,35.0,1,1.0,0.813600999999835
686,14,0.5,1.0,35.0,1,1.0,0.9542010000000118
687,14,0.5,1.0,35.0,1,1.0,0.2671010000003662
688,14,0.5,0.125,-35.0,-1,1.0,0.20700099999976374
689,14,0.5,0.125,35.0,1,1.0,0.37380099999973027
690,14,0.5,0.125,-35.0,-1,1.0,0.4475009999996473
691,14,0.5,0.0,-35.0,1,0.0,0.2775010000000293
692,14,0.5,0.0,35.0,-1,0.0,0.180800999999974
693,14,0.6,0.0,-35.0,-1,1.0,0.22100099999988743
694,14,0.5,1.0,35.0,1,1.0,0.44750100000010207
695,14,0.5,0.125,35.0,1,1.0,0.317801000000145
696,14,0.5,0.0,35.0,-1,0.0,0.31470100000024104
697,14,0.5,0.25,-35.0,-1,1.0,0.2879010000001472
698,14,0.5,1.0,-35.0,-1,1.0,0.6082009999995535
699,14,0.5,1.0,-35.0,1,0.0,0.7414010000002236
700,14,0.4,1.0,35.0,1,1.0,0.3447009999999864
701,14,0.5,1.0,-35.0,-1,1.0,0.08480099999997037
702,14,0.5,0.125,-35.0,1,0.0,0.14490100000011807
703,14,0.5,0.125,-35.0,-1,1.0,0.27160100000037346
704,14,0.5,1.0,-35.0,-1,1.0,0.2650010000002112
705,14,0.5,0.0625,35.0,-1,0.0,0.19560099999944214
706,14,0.3,0.0625,-35.0,-1,1.0,0.2288010000002032
707,14,0.5,1.0,35.0,-1,0.0,0.14840099999992162
708,14,0.5,0.25,35.0,1,1.0,0.2886009999997441
709,14,0.5,0.25,-35.0,-1,1.0,0.21230100000002494
710,14,0.5,0.0625,-35.0,1,0.0,0.4687010000002374
711,14,0.5,0.0,-35.0,-1,1.0,0.052101000000220665
712,14,0.5,0.0625,35.0,1,1.0,0.3657010000001719
713,14,0.5,1.0,-35.0,-1,1.0,1.075500999999349
714,14,0.5,0.0625,-35.0,-1,1.0,0.24230099999977028
715,14,0.5,0.125,35.0,-1,0.0,0.19250099999999293
716,14,0.3,0.125,35.0,1,1.0,0.2928010000005088
717,14,0.5,1.0,35.0,1,1.0,0.49580099999957383
718,14,0.5,0.125,-35.0,-1,1.0,0.1527009999999791
719,14,0.5,0.125,-35.0,1,0.0,0.7664009999998598
720,14,0.5,0.125,35.0,1,1.0,0.2596010000002025
721,14,0.5,1.0,-35.0,-1,1.0,0.14610099999981685
722,14,0.5,0.125,35.0,1,1.0,0.3063010000000759
723,14,0.5,0.125,-35.0,-1,1.0,0.13950100000010934
724,14,0.5,0.125,35.0,1,1.0,0.383600999999544
725,14,0.5,0.25,35.0,1,1.0,0.6365009999999529
726,14,0.5,1.0,-35.0,-1,1.0,0.23000100000035673
727,14,0.5,0.0625,-35.0,1,0.0,0.5002009999998336
728,14,0.5,0.0625,35.0,1,1.0,0.3568009999999049
729,14,0.5,0.0,35.0,-1,0.0,0.5642009999996844
730,14,0.5,0.25,35.0,1,1.0,0.7968009999999595
731,14,0.5,0.25,-35.0,-1,1.0,0.29700099999990925
732,14,0.5,0.125,-35.0,-1,1.0,0.9071010000002389
733,14,0.5,0.125,35.0,1,1.0,0.3707009999998263
734,14,0.5,1.0,35.0,1,1.0,0.2771010000001297
735,14,0.5,0.125,35.0,1,1.0,0.46410100000002785
736,14,0.5,0.0625,-35.0,-1,1.0,0.17430100000046878
737,14,0.5,0.125,35.0,-1,0.0,0.2108010000001741
738,14,0.5,0.0625,35.0,-1,0.0,0.18420100000003004
739,14,0.5,0.125,-35.0,-1,1.0,0.004201000000193744
740,14,0.5,0.25,-35.0,-1,1.0,0.13810099999955128
741,14,0.5,0.0625,35.0,1,1.0,0.24440099999992526
742,14,0.5,1.0,35.0,1,1.0,0.28450100000009115
743,14,0.5,0.0,35.0,-1,0.0,0.3678009999994174
744,14,0.5,0.0625,35.0,1,1.0,0.3514009999994414
745,14,0.5,0.25,-35.0,-1,1.0,0.4951009999999769
746,14,0.5,0.0,-35.0,1,0.0,1.124800999999934
747,14,0.5,0.0625,35.0,-1,0.0,0.12480100000038874
748,14,0.5,0.25,35.0,1,1.0,0.37480100000038874
749,14,0.5,0.0625,-35.0,-1,1.0,0.20840099999986705
750,14,0.5,0.0625,35.0,-1,0.0,0.07160099999964586
751,14,0.5,0.25,35.0,1,1.0,0.3151009999996859
752,14,0.5,0.25,-35.0,-1,1.0,0.21860099999958038
753,14,0.5,1.0,35.0,1,1.0,0.04220100000020466
754,14,0.5,0.25,35.0,1,1.0,0.6286000000000058
755,14,0.5,0.0625,-35.0,1,0.0,0.7922009999997499
756,14,0.5,0.0,35.0,1,1.0,0.24560100000007878
757,14,0.5,0.0,-35.0,1,0.0,0.26560099999960585
758,14,0.7,0.0,35.0,1,1.0,0.17940100000032544
759,14,0.5,1.0,-35.0,-1,1.0,0.1889009999999871
760,14,0.5,0.0625,-35.0,-1,1.0,0.2723010000004251
761,14,0.5,0.0625,-35.0,-1,1.0,0.20940099999961603
762,14,0.5,0.125,35.0,-1,0.0,0.13260099999979502
763,14,0.6,0.125,35.0,1,1.0,0.4130009999998947
764,14,0.5,1.0,35.0,1,1.0,0.4861009999995076
765,14,0.5,0.0,-35.0,-1,1.0,0.0926009999998314
766,14,0.5,0.25,-35.0,-1,1.0,0.6028009999995447
767,14,0.5,0.0625,35.0,1,1.0,0.30950099999972736
768,14,0.5,1.0,35.0,-1,0.0,0.13290100000040184
769,14,0.5,0.0625,-35.0,-1,1.0,0.2935010000001057
770,14,0.5,1.0,35.0,1,1.0,0.4664010000001326
771,14,0.5,1.0,35.0,1,1.0,0.7435009999999238
772,14,0.5,0.125,35.0,1,1.0,0.31670100000019374
773,14,0.5,0.0625,35.0,1,1.0,0.24340100000017628
774,14,0.5,1.0,-35.0,-1,1.0,0.17690099999981612
775,14,0.5,0.25,-35.0,-1,1.0,0.9537009999994552
776,14,0.5,0.125,-35.0,1,0.0,0.35690100000010716
777,14,0.5,0.125,35.0,1,1.0,0.5704009999999471
778,14,0.5,0.125,35.0,1,1.0,0.32030100000019956
779,14,0.5,0.25,35.0,1,1.0,0.3477010000001428
780,14,0.5,0.125,-35.0,-1,1.0,0.727701000000252
781,14,0.5,0.25,-35.0,-1,1.0,0.23790099999996528
782,14,0.5,1.0,-35.0,-1,1.0,0.38420099999984814
783,14,0.5,0.25,-35.0,-1,1.0,0.2875010000002476
784,14,0.5,0.125,-35.0,1,0.0,0.3943010000002687
785,14,0.5,0.25,-35.0,-1,1.0,0.2310010000001057
786,14,0.5,1.0,35.0,1,1.0,0.21110099999987142
787,14,0.5,0.125,-35.0,-1,1.0,0.3245010000000548
788,14,0.5,0.0625,35.0,1,1.0,0.29790099999945596
789,14,0.5,1.0,-35.0,-1,1.0,0.27140099999951417
790,14,0.5,0.0625,-35.0,1,0.0,0.41130100000009406
791,14,0.5,0.0625,-35.0,1,0.0,0.2417009999999209
792,14,0.5,0.125,35.0,1,1.0,0.34150099999988015
793,14,0.5,0.25,-35.0,-1,1.0,0.20840099999986705
794,14,0.5,1.0,35.0,1,1.0,0.4721009999998387
795,14,0.5,1.0,35.0,1,1.0,0.3120009999997819
796,14,0.5,0.0625,-35.0,-1,1.0,4.311600999999882
797,14,0.5,1.0,35.0,1,1.0,0.32870099999991
798,14,0.5,0.125,35.0,1,1.0,0.515400999999656
799,14,0.5,0.25,-35.0,-1,1.0,0.22540100000014718
800,14,0.5,0.125,-35.0,-1,1.0,0.645600999999715
801,14,0.5,0.0625,35.0,-1,0.0,0.19890100000020539
802,14,0.5,0.0625,35.0,1,1.0,0.6189009999998234
803,14,0.5,0.0625,-35.0,1,0.0,0.24220100000002276
804,14,0.6,0.0625,35.0,1,1.0,1.0161010000001625
805,14,0.5,1.0,35.0,1,1.0,0.2524009999997361
806,14,0.5,0.25,-35.0,-1,1.0,0.21960100000023886
807,14,0.5,0.0625,-35.0,-1,1.0,0.3462009999998372
808,14,0.5,0.125,35.0,-1,0.0,0.3161009999998896
809,14,0.5,0.0625,-35.0,-1,1.0,0.32950099999970917
810,14,0.5,0.0625,35.0,-1,0.0,0.1965009999994436
811,14,0.5,0.125,35.0,1,1.0,0.33290100000021994
812,14,0.5,0.125,35.0,1,1.0,0.4064010000001872
813,14,0.5,0.0,35.0,-1,0.0,5.366401000000224
814,14,0.4,0.0,-35.0,-1,1.0,0.27660100000002785
815,14,0.5,1.0,35.0,1,1.0,0.2738009999998212
816,14,0.5,0.25,-35.0,-1,1.0,0.25720099999989543
817,14,0.5,0.125,-35.0,-1,1.0,0.2835009999998874
818,14,0.5,1.0,35.0,1,1.0,0.35080100000004677
819,14,0.5,0.125,35.0,1,1.0,0.40700099999958184
820,14,0.5,0.25,-35.0,-1,1.0,0.2838010000000395
821,14,0.5,1.0,-35.0,-1,1.0,0.2075009999998656
822,14,0.5,0.0,35.0,1,1.0,0.32400099999949816
823,14,0.5,0.25,-35.0,-1,1.0,0.30490099999997256
824,14,0.5,1.0,35.0,1,1.0,0.41730099999949744
825,14,0.5,0.125,35.0,1,1.0,1.3609010000000126
826,14,0.5,0.0625,35.0,1,1.0,0.8109009999998307
827,14,0.5,1.0,-35.0,-1,1.0,0.2949009999997543
828,14,0.5,0.125,35.0,1,1.0,0.3212009999997463
829,14,0.5,0.125,-35.0,-1,1.0,0.29780099999970844
830,14,0.5,0.25,35.0,1,1.0,0.36800099999982194
831,14,0.5,0.0625,35.0,-1,0.0,0.24190100000032544
832,14,0.5,0.0,35.0,-1,0.0,0.6419009999999616
833,14,0.5,0.25,35.0,1,1.0,0.3153009999996357
834,14,0.5,0.25,35.0,1,1.0,0.4084010000001399
835,14,0.5,0.0,-35.0,1,0.0,0.34490099999948143
836,14,0.5,0.0625,-35.0,-1,1.0,0.2684009999998125
837,14,0.5,0.25,-35.0,-1,1.0,0.28190100000028906
838,14,0.5,0.25,-35.0,-1,1.0,0.2584009999995942
839,14,0.5,0.0625,-35.0,-1,1.0,0.2088010000002214
840,14,0.5,0.25,-35.0,-1,1.0,0.25200100000029124
841,14,0.5,1.0,-35.0,-1,1.0,0.325601000000006
842,14,0.5,0.25,-35.0,1,0.0,0.4520009999996546
843,14,0.5,0.0625,-35.0,-1,1.0,0.3021009999997659
844,14,0.5,0.25,35.0,1,1.0,0.5793009999997594
845,14,0.5,0.125,-35.0,-1,1.0,0.385700999999699
846,14,0.5,1.0,35.0,1,1.0,0.26250100000015664
847,14,0.5,1.0,-35.0,-1,1.0,0.2797009999999318
848,14,0.5,0.125,35.0,1,1.0,0.3258009999999558
849,14,0.5,0.25,35.0,1,1.0,0.31920099999979357
850,14,0.5,0.25,-35.0,-1,1.0,0.35940100000016173
851,14,0.5,0.25,-35.0,-1,1.0,0.21940100000028906
852,14,0.5,0.125,35.0,1,1.0,0.5130009999998038
853,14,0.5,0.125,-35.0,-1,1.0,0.19490099999984523
854,14,0.5,0.0,35.0,1,1.0,0.3732009999998809
855,14,0.5,1.0,-35.0,1,0.0,1.0563010000000759
856,14,0.5,0.25,-35.0,-1,1.0,0.13660099999970043
857,14,0.5,1.0,35.0,1,1.0,0.2465009999996255
858,14,0.5,0.0625,-35.0,1,0.0,0.336500999999771
859,14,0.5,0.125,-35.0,-1,1.0,0.2599009999998998
860,14,0.5,0.25,-35.0,-1,1.0,0.19340099999999438
861,14,0.5,0.25,35.0,1,1.0,0.2768009999995229
862,14,0.5,0.125,35.0,1,1.0,0.6705010000000584
863,14,0.5,0.125,-35.0,-1,1.0,0.24710100000038437
864,14,0.5,0.25,-35.0,-1,1.0,0.2503009999995811
865,14,0.5,0.125,-35.0,-1,1.0,0.28750099999979284
866,14,0.5,0.125,35.0,1,1.0,0.4970010000001821
867,14,0.5,0.0625,-35.0,-1,1.0,0.2242010000004484
868,14,0.5,1.0,-35.0,-1,1.0,0.23070099999995364
869,14,0.5,0.25,-35.0,-1,1.0,0.21400099999937083
870,14,0.5,0.125,35.0,1,1.0,0.517301000000316
871,14,0.5,1.0,-35.0,-1,1.0,0.21420099999977538
872,14,0.5,1.0,35.0,1,1.0,0.3043009999996684
873,14,0.5,0.0625,-35.0,-1,1.0,0.16750099999990198
874,14,0.5,0.0625,-35.0,-1,1.0,1.3817010000002483
875,14,0.5,1.0,-35.0,-1,1.0,0.43780100000003586
876,14,0.5,0.125,35.0,1,1.0,0.2213010000000395
877,14,0.5,0.0625,35.0,1,1.0,0.26460099999985687
878,14,0.5,1.0,-35.0,-1,1.0,0.03510099999994054
879,14,0.5,0.25,35.0,-1,0.0,1.0187009999995098
880,14,0.5,0.25,35.0,-1,0.0,0.17490099999986342
881,14,0.5,0.0,35.0,-1,0.0,0.31810100000029706
882,14,0.3,0.0,-35.0,-1,1.0,0.3450009999996837
883,14,0.5,1.0,35.0,1,1.0,0.37190099999997983
884,14,0.5,0.125,-35.0,1,0.0,0.34180099999957747
885,14,0.5,0.0,35.0,-1,0.0,0.29860099999996237
886,14,0.4,0.0,-35.0,-1,1.0,0.30530099999987215
887,14,0.5,1.0,-35.0,-1,1.0,0.06870100000014645
888,14,0.5,0.125,35.0,1,1.0,0.20560100000011516
889,14,0.5,0.0625,-35.0,-1,1.0,0.20250099999975646
890,14,0.5,1.0,35.0,1,1.0,0.2391010000001188
891,14,0.5,0.0625,-35.0,-1,1.0,0.1992009999999027
892,14,0.5,0.125,-35.0,-1,1.0,0.27240100000017264
893,14,0.5,0.125,-35.0,-1,1.0,0.21960100000023886
894,14,0.5,0.25,-35.0,-1,1.0,0.2659009999997579
895,14,0.5,0.0625,-35.0,-1,1.0,0.41250099999979284
896,14,0.5,0.125,-35.0,-1,1.0,0.302400999999918
897,14,0.5,0.125,-35.0,-1,1.0,0.31940099999974336
898,14,0.5,0.125,35.0,1,1.0,0.22280100000034508
899,14,0.5,0.0,35.0,-1,0.0,0.29290099999980157
900,14,0.5,0.25,35.0,1,1.0,0.42940099999941594
901,14,0.5,0.0,-35.0,-1,1.0,0.306800999999723
902,14,0.5,0.25,35.0,1,1.0,0.16020099999968807
903,14,0.5,0.25,-35.0,-1,1.0,0.2632010000002083
904,14,0.5,0.0625,35.0,-1,0.0,0.25650099999984377
905,14,0.5,0.0625,35.0,1,1.0,0.6300009999999929
906,14,0.5,0.0,-35.0,1,0.0,0.43010099999992235
907,14,0.5,0.0,35.0,-1,0.0,0.3135010000000875
908,14,0.5,1.0,-35.0,-1,1.0,0.30070100000011735
909,14,0.5,1.0,-35.0,-1,1.0,0.25670099999979357
910,14,0.5,0.125,35.0,1,1.0,0.22710100000040256
911,14,0.5,1.0,-35.0,-1,1.0,0.27400100000022576
912,14,0.5,0.25,-35.0,-1,1.0,0.48410100000000966
913,14,0.5,0.0625,35.0,1,1.0,0.8303009999999631
914,14,0.5,1.0,35.0,1,1.0,0.34360100000003513
915,14,0.5,1.0,-35.0,-1,1.0,0.29050099999994927
916,14,0.5,1.0,35.0,1,1.0,0.5205009999995127
917,14,0.5,0.0625,-35.0,-1,1.0,0.3143009999998867
918,14,0.5,0.125,-35.0,-1,1.0,0.37750099999993836
919,14,0.5,0.25,-35.0,1,0.0,4.631100999999944
920,14,0.5,0.125,-35.0,-1,1.0,0.20450099999970917
921,14,0.5,0.0625,35.0,1,1.0,0.2677009999997608
922,14,0.5,1.0,-35.0,-1,1.0,0.23450099999990925
923,14,0.5,0.0625,35.0,1,1.0,0.4312009999998736
924,14,0.5,1.0,-35.0,-1,1.0,0.2947009999998045
925,14,0.5,0.125,35.0,1,1.0,0.42810099999996964
926,14,0.5,0.25,35.0,1,1.0,0.9583010000001195
927,14,0.5,0.125,35.0,-1,0.0,0.1647010000001501
928,14,0.5,0.125,-35.0,-1,1.0,0.37470100000018647
929,14,0.5,1.0,-35.0,-1,1.0,0.09180100000003222
930,14,0.5,1.0,35.0,1,1.0,0.38500100000010207
931,14,0.5,0.0625,-35.0,-1,1.0,1.2916009999999005
932,14,0.5,1.0,35.0,1,1.0,0.3320010000002185
933,14,0.5,0.25,-35.0,-1,1.0,0.2753010000001268
934,14,0.5,0.0625,-35.0,-1,1.0,0.32870099999991
935,14,0.5,0.0625,35.0,-1,0.0,0.2619009999998525
936,14,0.5,0.25,35.0,1,1.0,0.4290000000000873
937,14,0.5,0.125,-35.0,-1,1.0,0.2895010000002003
938,14,0.5,0.25,35.0,1,1.0,2.2187009999997827
939,14,0.5,1.0,-35.0,1,0.0,0.6928009999996902
940,14,0.5,0.125,35.0,1,1.0,0.43600100000003295
941,14,0.5,0.25,-35.0,-1,1.0,0.2393010000000686
942,14,0.5,0.0625,-35.0,-1,1.0,0.6158009999999194
943,14,0.5,0.25,35.0,1,1.0,0.22630099999969389
944,14,0.5,0.0,35.0,-1,0.0,0.5660009999996873
945,14,0.5,0.0,35.0,1,1.0,0.5863009999998212
946,14,0.5,1.0,35.0,1,1.0,0.37940100000014354
947,14,0.5,1.0,-35.0,-1,1.0,0.316700999999739
948,14,0.5,0.25,-35.0,-1,1.0,0.29620100000011007
949,14,0.5,1.0,35.0,1,1.0,0.39650099999971644
950,14,0.5,0.0,35.0,-1,0.0,1.6933010000002469
951,14,0.5,0.0625,35.0,-1,0.0,0.30670099999997547
952,14,0.4,0.0625,-35.0,-1,1.0,0.2732009999999718
953,14,0.5,1.0,-35.0,-1,1.0,0.33000099999981103
954,14,0.5,0.125,-35.0,-1,1.0,0.1772009999999682
955,14,0.5,0.0,-35.0,-1,1.0,0.7637009999998554
956,14,0.5,0.125,-35.0,-1,1.0,0.4070010000000366
957,14,0.5,1.0,35.0,1,1.0,0.5241009999999733
958,14,0.5,0.125,-35.0,-1,1.0,1.0870009999998729
959,14,0.5,1.0,35.0,1,1.0,0.2971009999996568
960,14,0.5,0.0625,-35.0,-1,1.0,0.7707009999999173
961,14,0.5,0.125,35.0,-1,0.0,0.13390100000015082
962,14,0.5,0.0,35.0,-1,0.0,4.621200999999928
963,14,0.5,0.0,-35.0,-1,1.0,0.32070100000009916
964,14,0.5,0.0625,35.0,1,1.0,1.2309010000003582
965,14,0.5,0.25,-35.0,-1,1.0,0.4742009999995389
966,14,0.5,0.0,35.0,1,1.0,1.4412010000000919
967,14,0.5,0.0625,-35.0,-1,1.0,0.3214010000001508
968,14,0.5,0.25,35.0,1,1.0,0.771701000000121
969,14,0.5,1.0,35.0,1,1.0,0.8882010000002083
970,14,0.5,0.125,35.0,1,1.0,0.6413010000001123
971,14,0.5,1.0,-35.0,-1,1.0,4.515601000000061
972,14,0.5,0.25,-35.0,-1,1.0,0.28860100000019884
973,14,0.5,0.125,-35.0,-1,1.0,0.6688010000002578
974,14,0.5,1.0,35.0,1,1.0,0.34840100000019447
975,14,0.5,0.125,35.0,1,1.0,0.46510099999977683
976,14,0.5,0.25,-35.0,-1,1.0,0.5486010000004171
977,14,0.5,0.25,-35.0,-1,1.0,0.35860100000036255
978,14,0.5,1.0,35.0,1,1.0,0.46210100000007515
979,14,0.5,0.0,35.0,1,1.0,4.189200999999684
980,14,0.5,0.125,-35.0,-1,1.0,0.2124010000002272
981,14,0.5,0.0625,35.0,1,1.0,0.8088010000001304
982,14,0.5,1.0,35.0,1,1.0,0.3991009999999733
983,14,0.5,0.25,35.0,-1,0.0,0.16620100000000093
984,14,0.5,0.125,35.0,1,1.0,0.279500999999982
985,14,0.5,0.25,-35.0,-1,1.0,0.24290100000007442
986,14,0.5,1.0,35.0,1,1.0,0.2828010000002905
987,14,0.5,1.0,35.0,-1,0.0,0.14270100000021557
988,14,0.5,0.25,-35.0,-1,1.0,0.22620099999994636
989,14,0.5,0.0,-35.0,-1,1.0,0.30940099999997983
990,14,0.5,0.0625,-35.0,-1,1.0,0.29290099999980157
991,14,0.5,0.125,35.0,1,1.0,0.5229009999998198
992,14,0.5,0.125,-35.0,-1,1.0,0.2898009999998976
993,14,0.5,0.0625,35.0,1,1.0,0.3300010000002658
994,14,0.5,0.0,35.0,-1,0.0,0.21990099999993618
995,14,0.5,0.0625,35.0,-1,0.0,0.20350099999950544
996,14,0.5,0.25,35.0,1,1.0,0.35340099999984886
997,14,0.5,1.0,35.0,1,1.0,0.306800999999723
998,14,0.5,0.0625,35.0,-1,0.0,0.11720100000002276
999,14,0.5,0.25,35.0,1,1.0,0.32350099999985105
1000,14,0.5,0.125,-35.0,-1,1.0,0.21370100000012826
1001,14,0.5,0.0,-35.0,-1,1.0,0.2504009999997834
1002,14,0.5,1.0,35.0,1,1.0,0.28050100000018574
1003,14,0.5,0.0625,35.0,1,1.0,0.29050099999994927
1004,14,0.5,1.0,35.0,1,1.0,0.69720099999995
1005,14,0.5,0.25,35.0,1,1.0,0.3340010000001712
1006,14,0.5,0.25,35.0,1,1.0,0.3809009999999944
1007,14,0.5,0.25,-35.0,-1,1.0,0.25090099999988524
1008,14,0.5,0.125,-35.0,-1,1.0,0.2974010000002636
1009,14,0.5,1.0,-35.0,-1,1.0,0.21800100000018574
1010,14,0.5,0.0625,35.0,-1,0.0,0.08740099999977247
1011,14,0.5,0.0625,35.0,1,1.0,0.3746009999999842
1012,14,0.5,1.0,35.0,1,1.0,0.1516009999995731
1013,14,0.5,1.0,-35.0,-1,1.0,0.2277009999997972
1014,14,0.5,0.25,35.0,1,1.0,0.35780099999965387
1015,14,0.5,0.125,35.0,1,1.0,0.9946009999998751
1016,14,0.5,1.0,-35.0,-1,1.0,0.25460100000009334
1017,14,0.5,0.0625,-35.0,-1,1.0,0.21160099999997328
1018,14,0.5,0.125,-35.0,-1,1.0,0.38530099999934464
1019,14,0.5,0.25,35.0,1,1.0,0.2781009999998787
1020,14,0.5,0.125,35.0,1,1.0,0.32170099999984814
1021,14,0.5,0.0625,35.0,1,1.0,1.3784009999999398
1022,14,0.5,1.0,35.0,-1,0.0,0.17160100000000966
1023,14,0.5,0.125,-35.0,-1,1.0,0.44180099999994127
1024,14,0.5,0.0625,-35.0,-1,1.0,0.25190100000008897
1025,14,0.5,0.0625,-35.0,-1,1.0,0.2018009999997048
1026,14,0.5,0.0,35.0,-1,0.0,0.34520100000008824
1027,14,0.3,0.0,35.0,-1,0.0,0.3520010000002003
1028,14,0.5,1.0,35.0,1,1.0,0.8186009999999442
1029,14,0.5,0.125,35.0,1,1.0,0.4388010000002396
1030,14,0.5,1.0,35.0,1,1.0,0.28569999999990614
1031,14,0.5,0.125,-35.0,-1,1.0,0.3195009999994909
1032,14,0.5,0.25,35.0,1,1.0,1.468800999999985
1033,14,0.5,0.125,-35.0,-1,1.0,0.6890010000001894
1034,14,0.5,1.0,-35.0,-1,1.0,0.28890099999989616
1035,14,0.5,0.0,35.0,1,1.0,0.735700999999608
1036,14,0.5,0.125,35.0,1,1.0,0.28910099999984595
1037,14,0.5,0.0625,-35.0,-1,1.0,0.243300999999974
1038,14,0.5,0.0,35.0,1,1.0,0.37630099999978484
1039,14,0.5,0.0,-35.0,-1,1.0,0.502900999999838
1040,14,0.5,0.125,-35.0,-1,1.0,0.14330100000006496
1041,14,0.5,0.125,35.0,1,1.0,0.6235009999995782
1042,14,0.5,1.0,35.0,1,1.0,1.202900999999656
1043,14,0.5,0.0,-35.0,-1,1.0,0.5529009999995651
1044,14,0.5,0.0625,35.0,1,1.0,0.38970100000005914
1045,14,0.5,0.0625,35.0,-1,0.0,0.1899009999997361
1046,14,0.5,0.0,-35.0,-1,1.0,0.5198009999999158
1047,14,0.5,0.0625,35.0,-1,0.0,5.903100999999879
1048,14,0.5,0.0,-35.0,-1,1.0,0.16680099999985032
1049,14,0.5,1.0,-35.0,-1,1.0,0.22070099999973536
1050,14,0.5,0.125,35.0,1,1.0,0.7035009999995054
1051,14,0.5,1.0,35.0,1,1.0,0.647001000000273
1052,14,0.5,0.0,35.0,-1,0.0,0.20350099999996019
1053,14,0.5,0.0625,-35.0,-1,1.0,0.26700099999970917
1054,14,0.5,0.125,-35.0,-1,1.0,0.27370099999961894
1055,14,0.5,0.125,35.0,1,1.0,0.37760100000014063
1056,14,0.5,0.25,35.0,1,1.0,0.6639009999998962
1057,14,0.5,1.0,-35.0,-1,1.0,0.20400100000006205
1058,14,0.5,0.0625,-35.0,-1,1.0,0.293800999999803
1059,14,0.5,0.0625,35.0,1,1.0,1.1476010000005772
1060,14,0.5,0.0625,-35.0,-1,1.0,0.1875009999998838
1061,14,0.5,0.125,-35.0,-1,1.0,0.22080099999993763
1062,14,0.5,1.0,35.0,1,1.0,0.23810099999991508
1063,14,0.5,0.125,-35.0,-1,1.0,0.31430100000034145
1064,14,0.5,1.0,-35.0,-1,1.0,0.2613010000000031
1065,14,0.5,0.0625,35.0,-1,0.0,5.268201000000317
1066,14,0.5,0.0,-35.0,-1,1.0,0.4949010000000271
1067,14,0.5,0.25,-35.0,1,0.0,0.6045009999998001
1068,14,0.5,0.25,-35.0,-1,1.0,0.16840100000035818
1069,14,0.5,0.125,-35.0,-1,1.0,0.2885009999995418
1070,14,0.5,0.25,35.0,1,1.0,0.9715009999995345
1071,14,0.5,0.0625,35.0,1,1.0,0.4419009999996888
1072,14,0.5,0.125,35.0,1,1.0,0.16810099999975137
1073,14,0.5,0.125,35.0,1,1.0,0.6882009999999354
1074,14,0.5,0.25,-35.0,-1,1.0,0.31480099999998856
1075,14,0.5,0.25,-35.0,-1,1.0,0.2455009999998765
1076,14,0.5,1.0,-35.0,-1,1.0,0.29170099999964805
1077,14,0.5,0.125,35.0,1,1.0,0.5485009999993053
1078,14,0.5,1.0,-35.0,-1,1.0,0.3057010000002265
1079,14,0.5,0.125,-35.0,-1,1.0,5.585100999999668
1080,14,0.5,0.0625,35.0,1,1.0,0.7222010000004957
1081,14,0.5,0.25,-35.0,-1,1.0,0.20580100000006496
1082,14,0.5,0.25,35.0,1,1.0,0.3623010000001159
1083,14,0.5,0.25,35.0,1,1.0,0.3291009999993548
1084,14,0.5,0.25,-35.0,-1,1.0,0.18220099999962258
1085,14,0.5,1.0,-35.0,-1,1.0,0.2623009999997521
1086,14,0.5,0.0625,35.0,-1,0.0,6.938901000000442
1087,14,0.4,0.0625,-35.0,-1,1.0,1.5291010000000824
1088,14,0.5,1.0,35.0,-1,0.0,6.9494009999998525
1089,14,0.5,0.0625,35.0,1,1.0,4.286800999999286
1090,14,0.5,0.25,-35.0,-1,1.0,7.053801000000021
1091,14,0.5,0.0,-35.0,1,0.0,13.11040099999991
1092,14,0.4,0.0,35.0,-1,0.0,3.83100099999956
1093,14,0.5,1.0,-35.0,-1,1.0,0.28080100000079256
1094,14,0.5,0.0625,35.0,-1,0.0,8.887900999999147
1095,14,0.5,0.0,-35.0,-1,1.0,16.021700999999666
1096,14,0.5,0.25,35.0,-1,0.0,0.22830099999919184
1097,14,0.5,0.0,35.0,-1,0.0,6.925100999999813
1098,14,0.5,0.125,35.0,1,1.0,10.106001000000106
1099,14,0.5,0.0,-35.0,-1,1.0,0.2189010000001872
1100,14,0.5,0.0625,-35.0,-1,1.0,11.528901000000587
1101,14,0.5,1.0,-35.0,-1,1.0,0.24920099999962986
1102,14,0.5,0.0625,35.0,1,1.0,0.6926009999997405
1103,14,0.5,1.0,-35.0,-1,1.0,15.026201000000583
1104,14,0.5,1.0,35.0,1,1.0,0.6262010000000373
1105,14,0.5,0.0,35.0,-1,0.0,8.713201000000481
1106,14,0.5,0.25,-35.0,-1,1.0,0.30700100000012753
1107,14,0.5,0.0625,-35.0,-1,1.0,9.71020099999987
1108,14,0.5,1.0,35.0,1,1.0,0.6938009999994392
1109,14,0.5,1.0,35.0,1,1.0,0.8137010000000373
1110,14,0.5,0.0625,-35.0,-1,1.0,0.3105009999999311
1111,14,0.5,0.25,-35.0,-1,1.0,0.3442009999998845
1112,14,0.5,0.125,-35.0,-1,1.0,2.0776009999999587
1113,14,0.5,0.25,-35.0,-1,1.0,0.2906009999996968
1114,14,0.5,0.25,-35.0,-1,1.0,0.34770099999968807
1115,14,0.5,1.0,-35.0,-1,1.0,0.4539009999998598
1116,14,0.5,0.25,-35.0,-1,1.0,0.9773010000008071
1117,14,0.5,0.0,-35.0,-1,1.0,0.28120100000069215
1118,14,0.5,0.0625,35.0,-1,0.0,0.3674010000004273
1119,14,0.5,0.0625,35.0,-1,0.0,10.62760100000014
1120,14,0.0,0.0625,35.0,1,1.0,0.5413010000002032
1121,14,0.5,1.0,35.0,1,1.0,0.3785009999992326
1122,14,0.5,0.125,35.0,-1,0.0,0.31470100000024104
1123,14,0.5,0.0625,-35.0,-1,1.0,0.27490099999886297
1124,14,0.5,0.0625,35.0,-1,0.0,0.38520100000005186
1125,14,0.5,0.125,35.0,-1,0.0,2.6047010000002047
1126,14,0.2,0.125,35.0,1,1.0,0.7550010000004477
1127,14,0.5,1.0,35.0,1,1.0,0.32500099999924714
1128,14,0.5,0.125,35.0,1,1.0,12.751600999999937
1129,14,0.5,0.25,-35.0,-1,1.0,0.4652009999999791
1130,14,0.5,0.0,35.0,-1,0.0,26.219100999999682
1131,14,0.5,0.25,-35.0,-1,1.0,0.44590099999913946
1,15,0.5,0.25,35.0,-1,0.0,0.12329999999999985
2,15,0.5,0.25,-35.0,-1,1.0,0.19460099999999958
3,15,0.5,0.25,35.0,1,1.0,0.3486999999999991
4,15,0.5,0.0625,35.0,-1,0.0,0.1658009999999983
5,15,0.5,0.125,-35.0,-1,1.0,0.32310000000000016
6,15,0.5,0.0625,35.0,-1,0.0,0.19459999999999766
7,15,0.5,0.25,-35.0,-1,1.0,0.42190000000000083
8,15,0.5,1.0,-35.0,-1,1.0,0.20929999999999183
9,15,0.5,0.0,35.0,-1,0.0,0.1811000000000007
10,15,0.5,0.125,35.0,1,1.0,0.32499999999999574
11,15,0.5,0.25,-35.0,-1,1.0,0.04740000000000322
12,15,0.5,1.0,35.0,1,1.0,0.26609999999999445
13,15,0.5,0.0625,35.0,-1,0.0,0.14180000000000348
14,15,0.5,0.125,35.0,1,1.0,0.2525009999999952
15,15,0.5,1.0,35.0,1,1.0,0.26770000000000493
16,15,0.5,0.25,35.0,1,1.0,0.254800000000003
17,15,0.5,0.0625,35.0,1,1.0,0.2709999999999866
18,15,0.5,0.25,-35.0,-1,1.0,0.25210099999999613
19,15,0.5,1.0,35.0,1,1.0,0.28879999999999484
20,15,0.5,0.125,35.0,1,1.0,0.2840999999999809
21,15,0.5,0.125,-35.0,-1,1.0,0.261099999999999
22,15,0.5,1.0,35.0,1,1.0,0.1887999999999863
23,15,0.5,0.0,35.0,-1,0.0,0.2961999999999989
24,15,0.5,0.0,-35.0,1,0.0,0.6435999999999922
25,15,0.5,0.125,-35.0,-1,1.0,0.08719999999999573
26,15,0.5,0.125,-35.0,-1,1.0,0.3662999999999812
27,15,0.5,0.125,35.0,1,1.0,0.3537009999999867
28,15,0.5,0.125,35.0,1,1.0,0.6221000000000032
29,15,0.5,0.25,35.0,1,1.0,0.6064999999999827
30,15,0.5,0.25,-35.0,-1,1.0,0.1970010000000002
31,15,0.5,0.25,-35.0,-1,1.0,0.26969999999998606
32,15,0.5,0.25,35.0,1,1.0,0.2609999999999957
33,15,0.5,0.125,-35.0,-1,1.0,0.18340100000000348
34,15,0.5,1.0,35.0,1,1.0,0.33490000000000464
35,15,0.5,0.0,35.0,1,1.0,0.8188000000000102
36,15,0.5,1.0,-35.0,-1,1.0,0.3667000000000087
37,15,0.5,1.0,-35.0,-1,1.0,0.20750000000001023
38,15,0.5,0.0625,35.0,1,1.0,0.544399999999996
39,15,0.5,0.0,-35.0,-1,1.0,0.2979000000000269
40,15,0.5,0.25,35.0,-1,0.0,0.7480000000000189
41,15,0.5,0.0,35.0,-1,0.0,0.19139999999998736
42,15,0.4,0.0,-35.0,-1,1.0,0.3300000000000125
43,15,0.5,1.0,-35.0,-1,1.0,0.41550000000000864
44,15,0.5,0.0625,-35.0,-1,1.0,0.2487000000000137
45,15,0.5,0.25,-35.0,-1,1.0,0.48969999999999914
46,15,0.5,1.0,35.0,1,1.0,1.0889999999999986
47,15,0.5,0.25,35.0,-1,0.0,0.06389999999998963
48,15,0.5,0.0625,-35.0,-1,1.0,0.2161999999999864
49,15,0.5,0.125,35.0,1,1.0,0.45240000000001146
50,15,0.5,1.0,35.0,1,1.0,0.30529999999998836
51,15,0.5,1.0,-35.0,-1,1.0,0.29000000000002046
52,15,0.5,0.25,-35.0,-1,1.0,0.1875
53,15,0.5,1.0,-35.0,-1,1.0,0.26380000000000337
54,15,0.5,0.125,-35.0,-1,1.0,0.19700000000000273
55,15,0.5,0.0625,-35.0,-1,1.0,0.4661000000000115
56,15,0.5,1.0,-35.0,-1,1.0,0.28999999999999204
57,15,0.5,0.125,35.0,1,1.0,0.4151999999999987
58,15,0.5,0.0625,-35.0,1,0.0,0.41720000000000823
59,15,0.5,0.125,-35.0,-1,1.0,0.25560000000001537
60,15,0.5,1.0,-35.0,-1,1.0,0.18530000000001223
61,15,0.5,0.25,35.0,1,1.0,0.343400000000031
62,15,0.5,0.0625,-35.0,-1,1.0,0.3316000000000372
63,15,0.5,0.125,-35.0,-1,1.0,0.20879999999999654
64,15,0.5,0.125,-35.0,-1,1.0,0.23900000000000432
65,15,0.5,0.25,-35.0,-1,1.0,0.23590100000001257
66,15,0.5,0.0,35.0,-1,0.0,0.12610100000000557
67,15,0.5,0.125,35.0,-1,0.0,0.12510000000000332
68,15,0.2,0.125,35.0,1,1.0,0.4712000000000103
69,15,0.5,1.0,35.0,1,1.0,0.2888999999999555
70,15,0.5,0.0625,35.0,-1,0.0,0.19020000000000437
71,15,0.5,0.125,35.0,1,1.0,0.2863999999999578
72,15,0.5,0.0625,35.0,1,1.0,0.8647009999999682
73,15,0.5,0.25,35.0,1,1.0,0.38849999999990814
74,15,0.5,0.0,35.0,1,1.0,8.6207
75,15,0.5,1.0,35.0,1,1.0,0.6211000000000126
76,15,0.5,0.0625,-35.0,-1,1.0,0.7963999999999487
77,15,0.5,1.0,35.0,1,1.0,0.3825999999999681
78,15,0.5,0.25,-35.0,-1,1.0,0.21880100000004177
79,15,0.5,0.25,35.0,1,1.0,0.6045999999999481
80,15,0.5,0.25,-35.0,-1,1.0,0.20430099999998674
81,15,0.5,1.0,-35.0,-1,1.0,0.21450099999992744
82,15,0.5,0.125,35.0,1,1.0,0.398399999999981
83,15,0.5,0.0625,35.0,-1,0.0,0.24670000000003256
84,15,0.5,0.0625,-35.0,-1,1.0,0.19390099999998256
85,15,0.5,1.0,-35.0,-1,1.0,0.22919999999999163
86,15,0.5,0.0625,-35.0,-1,1.0,0.8745000000000118
87,15,0.5,0.25,35.0,1,1.0,0.3028009999999881
88,15,0.5,0.0,35.0,1,1.0,0.5419999999999163
89,15,0.5,0.25,-35.0,-1,1.0,0.2612999999999488
90,15,0.5,1.0,-35.0,-1,1.0,0.282799999999952
91,15,0.5,0.125,-35.0,-1,1.0,0.27959999999995944
92,15,0.5,0.125,35.0,1,1.0,0.5826000000000136
93,15,0.5,0.25,-35.0,-1,1.0,0.9868000000000166
94,15,0.5,0.25,35.0,1,1.0,0.3809999999999718
95,15,0.5,0.0625,35.0,1,1.0,0.3410999999999831
96,15,0.5,0.0,-35.0,1,0.0,0.6255999999999631
97,15,0.6,0.0,-35.0,-1,1.0,0.255800000000022
98,15,0.5,1.0,35.0,1,1.0,0.3038999999999419
99,15,0.5,0.0,35.0,1,1.0,0.5461999999999421
100,15,0.5,0.125,35.0,1,1.0,0.7214009999999575
101,15,0.5,0.25,-35.0,-1,1.0,0.524599999999964
102,15,0.5,0.0625,35.0,-1,0.0,0.27949999999998454
103,15,0.5,0.25,-35.0,-1,1.0,0.2336999999999989
104,15,0.5,1.0,35.0,1,1.0,0.30260000000004084
105,15,0.5,0.25,35.0,1,1.0,0.32710099999997055
106,15,0.5,0.125,-35.0,-1,1.0,0.23249999999995907
107,15,0.5,0.0625,-35.0,1,0.0,0.3351999999999862
108,15,0.5,0.0625,35.0,-1,0.0,0.28029999999995425
109,15,0.5,0.25,35.0,1,1.0,0.2833009999999945
110,15,0.5,0.0625,-35.0,-1,1.0,0.23450000000002547
111,15,0.5,1.0,35.0,1,1.0,0.28120000000001255
112,15,0.5,0.25,35.0,1,1.0,0.4323999999999728
113,15,0.5,1.0,-35.0,-1,1.0,0.22739999999993188
114,15,0.5,0.25,-35.0,-1,1.0,0.23160000000001446
115,15,0.5,1.0,-35.0,-1,1.0,0.2119000000000142
116,15,0.5,0.25,-35.0,-1,1.0,0.22349999999994452
117,15,0.5,0.0,-35.0,1,0.0,0.32459999999997535
118,15,0.5,0.0,-35.0,-1,1.0,0.40140000000002374
119,15,0.5,0.0,35.0,-1,0.0,1.4594999999999345
120,15,0.5,0.25,35.0,1,1.0,0.3532999999999902
121,15,0.5,0.25,35.0,1,1.0,0.31829999999996517
122,15,0.5,0.0,35.0,-1,0.0,0.23939999999998918
123,15,0.5,0.125,-35.0,-1,1.0,0.22299999999995634
124,15,0.5,1.0,-35.0,-1,1.0,0.3143000000000029
125,15,0.5,1.0,35.0,1,1.0,0.4159000000000219
126,15,0.5,0.125,35.0,1,1.0,0.3663999999999987
127,15,0.5,1.0,35.0,1,1.0,0.36079999999998336
128,15,0.5,1.0,35.0,1,1.0,0.24859999999995352
129,15,0.5,1.0,-35.0,-1,1.0,0.2640999999999849
130,15,0.5,0.125,35.0,1,1.0,0.40759999999994534
131,15,0.5,0.125,35.0,1,1.0,0.43659999999999854
132,15,0.5,0.0625,35.0,1,1.0,0.749499999999955
133,15,0.5,0.0,-35.0,-1,1.0,0.23010099999999056
134,15,0.5,1.0,-35.0,-1,1.0,0.5083009999998467
135,15,0.5,1.0,35.0,1,1.0,0.3346010000000206
136,15,0.5,0.125,-35.0,-1,1.0,0.9583000000000084
137,15,0.5,1.0,35.0,1,1.0,0.5331999999999653
138,15,0.5,0.0625,35.0,1,1.0,0.1929010000000062
139,15,0.5,0.25,35.0,1,1.0,0.3262999999999465
140,15,0.5,0.0625,35.0,1,1.0,0.2479000000000724
141,15,0.5,0.0,-35.0,-1,1.0,0.27359999999998763
142,15,0.5,0.25,35.0,1,1.0,0.29320000000006985
143,15,0.5,0.25,35.0,1,1.0,0.4662999999999329
144,15,0.5,0.0625,-35.0,-1,1.0,0.8121999999999616
145,15,0.5,1.0,-35.0,-1,1.0,0.510900000000106
146,15,0.5,0.0625,35.0,1,1.0,0.35300099999994927
147,15,0.5,0.125,-35.0,1,0.0,0.45479999999997744
148,15,0.5,0.25,35.0,1,1.0,0.36950000000013006
149,15,0.5,1.0,-35.0,-1,1.0,0.43210000000010496
150,15,0.5,0.125,-35.0,-1,1.0,0.3753000000000384
151,15,0.5,0.125,35.0,1,1.0,0.4414999999999054
152,15,0.5,0.0625,35.0,1,1.0,1.4097000000000435
153,15,0.5,1.0,35.0,1,1.0,0.5584999999999809
154,15,0.5,1.0,-35.0,1,0.0,1.3804999999999836
155,15,0.7,1.0,-35.0,-1,1.0,1.028901000000019
156,15,0.5,1.0,35.0,1,1.0,0.34170099999982995
157,15,0.5,0.125,-35.0,-1,1.0,0.2959999999999354
158,15,0.5,0.0625,35.0,-1,0.0,7.025099999999952
159,15,0.5,0.0625,35.0,1,1.0,0.719801000000075
160,15,0.5,1.0,35.0,1,1.0,0.5160009999999602
161,15,0.5,0.125,35.0,1,1.0,0.48490000000003874
162,15,0.5,0.125,-35.0,-1,1.0,0.5985999999999194
163,15,0.5,0.125,35.0,1,1.0,0.6442009999999527
164,15,0.5,0.0625,35.0,-1,0.0,0.21890099999995982
165,15,0.5,0.125,-35.0,-1,1.0,0.19780000000002929
166,15,0.5,0.125,-35.0,-1,1.0,0.7730999999999995
167,15,0.5,0.125,-35.0,-1,1.0,1.0526009999999815
168,15,0.5,0.125,35.0,1,1.0,0.4253009999999904
169,15,0.5,0.125,35.0,1,1.0,0.677101000000107
170,15,0.5,0.125,-35.0,-1,1.0,0.25729999999987285
171,15,0.5,0.0625,35.0,-1,0.0,0.30769999999995434
172,15,0.3,0.0625,35.0,-1,0.0,0.39020000000004984
173,15,0.5,1.0,35.0,1,1.0,0.38980000000003656
174,15,0.5,1.0,35.0,1,1.0,0.2335000000000491
175,15,0.5,0.125,35.0,-1,0.0,0.22630099999992126
176,15,0.5,0.125,35.0,1,1.0,0.40249999999991815
177,15,0.5,1.0,35.0,1,1.0,0.32380000000000564
178,15,0.5,0.25,-35.0,-1,1.0,0.2595999999999776
179,15,0.5,0.125,35.0,1,1.0,0.44219999999995707
180,15,0.5,1.0,35.0,1,1.0,0.7486999999999853
181,15,0.5,0.125,-35.0,-1,1.0,0.15899999999999181
182,15,0.5,0.0625,-35.0,1,0.0,1.0791999999999007
183,15,0.7,0.0625,35.0,-1,0.0,0.31320000000005166
184,15,0.5,1.0,-35.0,-1,1.0,0.24710099999992963
185,15,0.5,0.0625,-35.0,-1,1.0,5.77189999999996
186,15,0.5,1.0,-35.0,-1,1.0,0.16570000000001528
187,15,0.5,0.25,35.0,1,1.0,0.3427010000000337
188,15,0.5,1.0,-35.0,-1,1.0,0.36749999999995
189,15,0.5,0.25,-35.0,-1,1.0,0.2780999999998812
190,15,0.5,0.125,35.0,1,1.0,0.32350099999996473
191,15,0.5,0.25,35.0,1,1.0,0.34809999999993124
192,15,0.5,1.0,35.0,1,1.0,0.3706999999999425
193,15,0.5,0.25,-35.0,1,0.0,0.8830000000000382
194,15,0.5,0.0625,35.0,1,1.0,0.7631999999999834
195,15,0.5,0.0,35.0,1,1.0,0.3623999999999796
196,15,0.5,1.0,35.0,1,1.0,0.31389999999998963
197,15,0.5,0.0625,35.0,-1,0.0,0.8655999999999722
198,15,0.5,0.25,-35.0,-1,1.0,0.22720099999992271
199,15,0.5,0.0625,35.0,-1,0.0,0.251500999999962
200,15,0.5,0.0625,35.0,-1,0.0,3.3211009999999987
201,15,0.5,0.0,35.0,-1,0.0,0.13180099999999584
202,15,0.5,0.25,-35.0,-1,1.0,0.1511999999999034
203,15,0.5,0.25,-35.0,-1,1.0,0.89549999999997
204,15,0.5,0.125,35.0,1,1.0,0.4639000000000806
205,15,0.5,1.0,-35.0,-1,1.0,0.3569999999998572
206,15,0.5,0.125,35.0,1,1.0,0.8267999999999347
207,15,0.5,0.0625,35.0,1,1.0,0.4904000000000224
208,15,0.5,0.0,-35.0,-1,1.0,4.400600000000054
209,15,0.5,0.25,-35.0,-1,1.0,0.26929999999993015
210,15,0.5,0.125,35.0,1,1.0,0.5145999999999731
211,15,0.5,0.125,35.0,1,1.0,0.2598999999999023
212,15,0.5,0.25,35.0,1,1.0,0.57549999999992
213,15,0.5,0.125,-35.0,-1,1.0,0.3407999999999447
214,15,0.5,0.125,35.0,-1,0.0,0.24660000000005766
215,15,0.5,0.0,-35.0,-1,1.0,15.221400000000017
216,15,0.5,0.0625,35.0,1,1.0,0.566199999999867
217,15,0.5,0.125,-35.0,-1,1.0,0.5403999999999769
218,15,0.5,0.0625,-35.0,-1,1.0,0.4072999999999638
219,15,0.5,1.0,-35.0,1,0.0,1.4565999999999804
220,15,0.5,0.25,35.0,1,1.0,6.158901000000014
221,15,0.5,1.0,35.0,1,1.0,0.7512000000000398
222,15,0.5,0.125,-35.0,-1,1.0,0.39820000000008804
223,15,0.5,1.0,-35.0,-1,1.0,0.9148010000000113
224,15,0.5,0.0625,-35.0,1,0.0,1.0086000000000013
225,15,0.5,0.125,-35.0,-1,1.0,0.30930000000000746
226,15,0.5,1.0,-35.0,-1,1.0,0.5177999999999656
227,15,0.5,0.0625,-35.0,-1,1.0,0.3869999999999436
228,15,0.5,0.0625,35.0,1,1.0,0.4353999999999587
229,15,0.5,0.25,35.0,1,1.0,0.3048000000000002
230,15,0.5,0.25,-35.0,-1,1.0,0.29379999999991924
231,15,0.5,0.125,35.0,1,1.0,0.476099999999974
232,15,0.5,0.0625,-35.0,-1,1.0,0.227800000000002
233,15,0.5,0.0625,35.0,1,1.0,0.48479999999995016
234,15,0.5,0.0,-35.0,1,0.0,1.0955999999999904
235,15,0.5,0.0,35.0,-1,0.0,0.2074009999998907
236,15,0.5,0.25,-35.0,-1,1.0,0.5166000000000395
237,15,0.5,0.125,-35.0,-1,1.0,0.05230099999994309
238,15,0.5,0.0625,35.0,-1,0.0,0.20709999999996853
239,15,0.5,0.125,35.0,1,1.0,0.29969999999991614
240,15,0.5,0.0625,-35.0,-1,1.0,0.2777999999999565
241,15,0.5,1.0,35.0,1,1.0,0.4013999999999669
242,15,0.5,0.0,35.0,-1,0.0,2.5312999999999874
243,15,0.5,0.0,35.0,-1,0.0,0.8857999999999038
244,15,0.5,0.0625,-35.0,-1,1.0,0.31389999999987594
245,15,0.5,0.0,35.0,-1,0.0,0.48070000000006985
246,15,0.5,0.0,-35.0,-1,1.0,0.24259999999992488
247,15,0.5,0.125,-35.0,1,0.0,4.189299999999889
248,15,0.5,0.25,35.0,1,1.0,0.43289999999990414
249,15,0.5,0.0,35.0,1,1.0,0.6362000000000307
250,15,0.5,0.25,-35.0,-1,1.0,0.5594009999999798
251,15,0.5,0.0625,35.0,1,1.0,0.9428009999999176
252,15,0.5,0.0625,35.0,1,1.0,0.5528000000001612
253,15,0.5,1.0,35.0,1,1.0,0.6531999999999698
254,15,0.5,0.0625,-35.0,-1,1.0,0.19640000000026703
255,15,0.5,1.0,-35.0,-1,1.0,0.44340100000022176
256,15,0.5,0.0625,35.0,1,1.0,0.5336999999999534
257,15,0.5,0.25,-35.0,-1,1.0,0.30320000000006075
258,15,0.5,0.0625,-35.0,-1,1.0,0.8233010000001286
259,15,0.5,0.25,35.0,1,1.0,0.416700000000219
260,15,0.5,0.25,-35.0,-1,1.0,0.5503000000001066
261,15,0.5,0.25,35.0,1,1.0,0.7071000000000822
262,15,0.5,1.0,-35.0,-1,1.0,0.24410100000000057
263,15,0.5,0.25,-35.0,-1,1.0,0.33720000000016626
264,15,0.5,0.0625,35.0,1,1.0,0.5773000000001502
265,15,0.5,0.25,-35.0,-1,1.0,0.2905000000000655
266,15,0.5,1.0,35.0,1,1.0,0.5975000000000819
267,15,0.5,0.125,-35.0,-1,1.0,0.27450000000021646
268,15,0.5,0.25,35.0,1,1.0,0.6747000000000298
269,15,0.5,0.125,-35.0,-1,1.0,0.2879000000002634
270,15,0.5,0.125,-35.0,-1,1.0,0.23440000000005057
271,15,0.5,1.0,35.0,1,1.0,0.5916000000001986
272,15,0.5,0.0,-35.0,-1,1.0,0.20180000000004839
273,15,0.5,0.125,-35.0,-1,1.0,0.1914000000001579
274,15,0.5,0.0625,-35.0,-1,1.0,0.24810000000024957
275,15,0.5,0.25,-35.0,-1,1.0,0.35149999999998727
276,15,0.5,0.25,35.0,-1,0.0,0.14170000000012806
277,15,0.2,0.25,35.0,-1,0.0,0.26520099999993363
278,15,0.5,1.0,35.0,1,1.0,0.7117000000000644
279,15,0.5,0.0625,-35.0,1,0.0,0.5155999999999494
280,15,0.5,0.25,35.0,1,1.0,0.3687999999999647
281,15,0.5,1.0,35.0,1,1.0,0.37220000000002074
282,15,0.5,0.0625,35.0,1,1.0,0.39869999999996253
283,15,0.5,0.125,35.0,1,1.0,0.29890100000011444
284,15,0.5,1.0,-35.0,1,0.0,0.8862000000001444
285,15,0.5,0.125,35.0,1,1.0,0.45620000000008076
286,15,0.5,0.0625,-35.0,-1,1.0,0.39580100000011953
287,15,0.5,0.125,-35.0,-1,1.0,0.26279999999997017
288,15,0.5,0.125,-35.0,-1,1.0,0.22310000000015862
289,15,0.5,0.0,35.0,1,1.0,0.4496000000001459
290,15,0.5,1.0,35.0,1,1.0,0.2964999999999236
291,15,0.5,0.0,35.0,1,1.0,1.013401000000158
292,15,0.5,1.0,-35.0,-1,1.0,0.1934000000001106
293,15,0.5,0.125,35.0,1,1.0,0.4799000000000433
294,15,0.5,0.125,-35.0,-1,1.0,0.3003000000001066
295,15,0.5,1.0,-35.0,-1,1.0,0.240099999999984
296,15,0.5,0.25,-35.0,-1,1.0,0.46400100000005295
297,15,0.5,0.125,-35.0,-1,1.0,1.0176000000001295
298,15,0.5,0.0625,-35.0,1,0.0,0.5139000000001488
299,15,0.5,0.25,35.0,1,1.0,0.4636000000002696
300,15,0.5,0.125,35.0,1,1.0,0.6570000000001528
301,15,0.5,1.0,-35.0,-1,1.0,0.3704999999999927
302,15,0.5,0.25,-35.0,-1,1.0,0.3242000000002463
303,15,0.5,1.0,35.0,1,1.0,0.45059999999989486
304,15,0.5,0.125,-35.0,-1,1.0,0.2839999999998781
305,15,0.5,0.25,-35.0,-1,1.0,1.1141010000001188
306,15,0.5,0.125,35.0,1,1.0,0.3142000000002554
307,15,0.5,0.25,35.0,1,1.0,0.3076010000002043
308,15,0.5,1.0,-35.0,1,0.0,0.621599999999944
309,15,0.5,0.125,35.0,1,1.0,0.4145000000003165
310,15,0.5,0.25,-35.0,-1,1.0,0.27119999999990796
311,15,0.5,0.0,-35.0,-1,1.0,0.3646000000001095
312,15,0.5,0.25,35.0,1,1.0,0.5913000000000466
313,15,0.5,0.25,-35.0,-1,1.0,0.16150000000016007
314,15,0.5,1.0,35.0,1,1.0,0.6015010000003258
315,15,0.5,1.0,35.0,1,1.0,0.3117000000002008
316,15,0.5,0.25,35.0,1,1.0,0.6821000000002186
317,15,0.5,0.0625,-35.0,1,0.0,0.6918000000000575
318,15,0.5,0.0625,-35.0,-1,1.0,0.4952000000002954
319,15,0.5,0.0625,-35.0,1,0.0,0.5088000000000648
320,15,0.5,0.0625,35.0,1,1.0,0.4086000000002059
321,15,0.5,0.0,35.0,1,1.0,0.6654000000000906
322,15,0.5,0.125,35.0,1,1.0,0.3627010000000155
323,15,0.5,0.0625,-35.0,-1,1.0,0.13950000000022555
324,15,0.5,0.25,35.0,1,1.0,0.3789010000000417
325,15,0.5,0.0,35.0,1,1.0,0.5424000000000433
326,15,0.5,1.0,35.0,1,1.0,0.6258000000002539
327,15,0.5,0.125,-35.0,-1,1.0,0.3163010000000668
328,15,0.5,0.25,35.0,1,1.0,0.8927000000003318
329,15,0.5,0.25,35.0,1,1.0,0.32920000000012806
330,15,0.5,0.0625,-35.0,1,0.0,0.47319999999990614
331,15,0.5,0.25,35.0,1,1.0,0.29950000000008004
332,15,0.5,1.0,-35.0,-1,1.0,0.2963999999999487
333,15,0.5,0.125,35.0,1,1.0,0.30300000000011096
334,15,0.5,0.0625,-35.0,-1,1.0,1.5264010000003054
335,15,0.5,0.125,35.0,1,1.0,0.3605000000000018
336,15,0.5,0.125,35.0,1,1.0,0.2599000000002434
337,15,0.5,1.0,-35.0,-1,1.0,1.0901000000001204
338,15,0.5,1.0,35.0,1,1.0,0.27739999999994325
339,15,0.5,0.125,35.0,-1,0.0,0.09429999999997563
340,15,0.5,0.25,35.0,1,1.0,0.3470999999999549
341,15,0.5,1.0,-35.0,-1,1.0,0.1306000000001859
342,15,0.5,0.25,-35.0,-1,1.0,0.25040000000012697
343,15,0.5,1.0,-35.0,-1,1.0,0.27109999999993306
344,15,0.5,0.25,35.0,1,1.0,0.2938000000001466
345,15,0.5,0.25,-35.0,-1,1.0,0.7441000000001168
346,15,0.5,0.0,-35.0,1,0.0,0.687701000000061
347,15,0.4,0.0,35.0,-1,0.0,0.4276999999999589
348,15,0.5,1.0,35.0,1,1.0,0.3178000000002612
349,15,0.5,0.0,-35.0,-1,1.0,0.1044000000001688
350,15,0.5,0.125,35.0,1,1.0,0.6048000000000684
351,15,0.5,0.0625,-35.0,-1,1.0,0.3147000000001299
352,15,0.5,0.0625,35.0,1,1.0,0.985300000000052
353,15,0.5,1.0,35.0,1,1.0,0.5615000000000236
354,15,0.5,0.125,-35.0,-1,1.0,0.4717000000000553
355,15,0.5,0.125,35.0,1,1.0,0.3383000000001175
356,15,0.5,0.25,35.0,1,1.0,0.34159999999997126
357,15,0.5,0.125,-35.0,-1,1.0,0.19489999999996144
358,15,0.5,0.0625,-35.0,-1,1.0,0.6053000000001703
359,15,0.5,0.25,35.0,1,1.0,0.6987010000000282
360,15,0.5,1.0,35.0,1,1.0,0.6885999999999513
361,15,0.5,0.25,-35.0,-1,1.0,0.45210000000020045
362,15,0.5,0.25,35.0,1,1.0,0.4160000000003947
363,15,0.5,1.0,35.0,1,1.0,0.36540000000013606
364,15,0.5,1.0,35.0,1,1.0,0.3221000000000913
365,15,0.5,0.25,-35.0,-1,1.0,0.25320000000010623
366,15,0.5,0.25,35.0,1,1.0,0.5761999999999716
367,15,0.5,0.125,-35.0,-1,1.0,4.172400000000152
368,15,0.5,1.0,-35.0,-1,1.0,0.28950000000008913
369,15,0.5,0.0,-35.0,-1,1.0,0.3026999999999589
370,15,0.5,0.125,-35.0,-1,1.0,0.24930100000028688
371,15,0.5,1.0,35.0,1,1.0,0.24299999999993815
372,15,0.5,1.0,-35.0,-1,1.0,1.4831000000001495
373,15,0.5,0.125,35.0,1,1.0,0.44970100000000457
374,15,0.5,0.0,35.0,1,1.0,0.5199000000000069
375,15,0.5,0.25,-35.0,-1,1.0,0.6233000000001994
376,15,0.5,0.0625,35.0,1,1.0,0.7537000000002081
377,15,0.5,0.125,-35.0,-1,1.0,0.7869000000000597
378,15,0.5,0.0,-35.0,1,0.0,0.7401010000000952
379,15,0.5,0.0,35.0,-1,0.0,0.28730000000018663
380,15,0.5,0.125,-35.0,-1,1.0,0.1840010000003076
381,15,0.5,1.0,35.0,1,1.0,0.4210000000002765
382,15,0.5,0.0625,35.0,-1,0.0,0.28730000000018663
383,15,0.5,0.25,-35.0,-1,1.0,0.16370000000006257
384,15,0.5,1.0,-35.0,1,0.0,0.6175000000000637
385,15,0.5,0.25,35.0,1,1.0,0.644399999999905
386,15,0.5,0.0,-35.0,-1,1.0,0.22800000000006548
387,15,0.5,0.0,35.0,1,1.0,1.1043010000000777
388,15,0.5,0.125,35.0,1,1.0,0.6477000000002135
389,15,0.5,1.0,-35.0,-1,1.0,0.2117000000000644
390,15,0.5,1.0,35.0,1,1.0,0.6013000000000375
391,15,0.5,0.25,35.0,1,1.0,0.6912999999999556
392,15,0.5,1.0,-35.0,-1,1.0,0.24460100000010243
393,15,0.5,0.25,35.0,1,1.0,0.34150000000022374
394,15,0.5,0.125,35.0,1,1.0,0.2718000000002121
395,15,0.5,1.0,-35.0,-1,1.0,0.4651000000001204
396,15,0.5,0.125,35.0,1,1.0,0.5848000000000866
397,15,0.5,0.25,-35.0,-1,1.0,0.7048000000002048
398,15,0.5,0.0625,35.0,1,1.0,0.884900000000016
399,15,0.5,0.0625,-35.0,-1,1.0,0.29189999999994143
400,15,0.5,0.0625,35.0,1,1.0,0.845401000000038
401,15,0.5,0.0,35.0,1,1.0,0.7554999999999836
402,15,0.5,0.0625,-35.0,-1,1.0,0.1455999999998312
403,15,0.5,0.25,35.0,1,1.0,2.4223000000001775
404,15,0.5,0.0625,35.0,1,1.0,0.6257000000000517
405,15,0.5,0.125,-35.0,-1,1.0,0.08270000000015898
406,15,0.5,1.0,35.0,1,1.0,0.3263000000001739
407,15,0.5,1.0,-35.0,-1,1.0,0.6958000000001903
408,15,0.5,1.0,35.0,1,1.0,0.3200010000000475
409,15,0.5,1.0,35.0,1,1.0,0.3962010000000191
410,15,0.5,0.0625,35.0,1,1.0,1.0264000000001943
411,15,0.5,0.125,35.0,1,1.0,0.47670000000016444
412,15,0.5,0.25,-35.0,-1,1.0,0.4930010000000493
413,15,0.5,0.125,-35.0,-1,1.0,3.2437999999999647
414,15,0.5,0.0,35.0,1,1.0,0.9565999999999804
415,15,0.5,0.125,35.0,1,1.0,0.7207000000000789
416,15,0.5,0.25,35.0,1,1.0,0.33710000000019136
417,15,0.5,0.125,35.0,1,1.0,0.3040000000000873
418,15,0.5,0.125,-35.0,-1,1.0,0.29710000000022774
419,15,0.5,0.0625,35.0,1,1.0,0.5739000000000942
420,15,0.5,1.0,35.0,1,1.0,0.4739000000001852
421,15,0.5,1.0,35.0,1,1.0,0.28070000000025175
422,15,0.5,1.0,35.0,1,1.0,0.6309000000001106
423,15,0.5,1.0,-35.0,-1,1.0,0.3473010000002432
424,15,0.5,0.125,35.0,1,1.0,1.4283009999999194
425,15,0.5,0.0,35.0,-1,0.0,1.2175010000000839
426,15,0.5,0.0,35.0,1,1.0,0.47450000000026193
427,15,0.5,0.125,-35.0,-1,1.0,0.24460100000010243
428,15,0.5,0.25,35.0,1,1.0,0.20830000000023574
429,15,0.5,0.0,-35.0,-1,1.0,0.40170000000011896
430,15,0.5,0.125,35.0,1,1.0,0.29460000000017317
431,15,0.5,0.25,-35.0,-1,1.0,0.1954000000000633
432,15,0.5,1.0,35.0,1,1.0,0.3582000000001244
433,15,0.5,0.125,-35.0,-1,1.0,0.20840000000021064
434,15,0.5,0.0625,35.0,-1,0.0,0.3385000000002947
435,15,0.5,0.0,-35.0,1,0.0,0.8752000000001772
436,15,0.5,0.0,35.0,-1,0.0,0.12220000000002074
437,15,0.5,1.0,35.0,1,1.0,0.5321000000001277
438,15,0.5,0.0625,35.0,-1,0.0,0.17220100000008642
439,15,0.4,0.0625,35.0,-1,0.0,0.23210000000017317
440,15,0.5,1.0,-35.0,-1,1.0,0.28890000000023974
441,15,0.5,0.125,35.0,1,1.0,0.3027999999999338
442,15,0.5,0.25,-35.0,-1,1.0,0.2789010000001326
443,15,0.5,0.25,35.0,1,1.0,0.4695999999999003
444,15,0.5,1.0,35.0,1,1.0,0.5459000000003016
445,15,0.5,0.125,35.0,-1,0.0,0.14930000000026666
446,15,0.5,0.25,35.0,1,1.0,0.3265000000001237
447,15,0.5,0.0,35.0,-1,0.0,0.22290000000020882
448,15,0.4,0.0,35.0,-1,0.0,0.49300000000016553
449,15,0.5,1.0,35.0,1,1.0,0.646199999999908
450,15,0.5,0.125,35.0,1,1.0,0.32660000000032596
451,15,0.5,0.0,35.0,1,1.0,0.3167000000000826
452,15,0.5,0.25,-35.0,-1,1.0,0.35340000000019245
453,15,0.5,0.0,35.0,1,1.0,0.46649999999999636
454,15,0.5,0.125,35.0,1,1.0,0.4235000000001037
455,15,0.5,0.25,-35.0,-1,1.0,0.260300000000143
456,15,0.5,0.25,-35.0,1,0.0,0.8635000000001583
457,15,0.5,0.0,-35.0,1,0.0,0.7103010000000722
458,15,0.5,0.125,35.0,1,1.0,0.3404000000000451
459,15,0.5,0.0,35.0,1,1.0,0.3604000000002543
460,15,0.5,0.0625,35.0,1,1.0,0.7571000000000367
461,15,0.5,1.0,35.0,1,1.0,0.1873000000000502
462,15,0.5,0.125,-35.0,1,0.0,1.4441000000001623
463,15,0.5,0.25,35.0,1,1.0,0.36740099999997256
464,15,0.5,1.0,-35.0,-1,1.0,1.2841000000000804
465,15,0.5,0.25,-35.0,-1,1.0,0.29740000000015243
466,15,0.5,1.0,-35.0,-1,1.0,1.087800000000243
467,15,0.5,0.125,35.0,1,1.0,1.1576010000001133
468,15,0.5,0.125,-35.0,-1,1.0,1.0877000000000407
469,15,0.5,0.125,35.0,1,1.0,0.43470000000002074
470,15,0.5,0.125,35.0,1,1.0,0.8110000000001492
471,15,0.5,0.25,-35.0,-1,1.0,0.5452000000000226
472,15,0.5,0.125,35.0,1,1.0,0.5686000000002878
473,15,0.5,1.0,35.0,1,1.0,0.25480000000015934
474,15,0.5,0.0625,35.0,1,1.0,0.37190000000009604
475,15,0.5,0.125,35.0,1,1.0,0.424900000000207
476,15,0.5,0.0,35.0,1,1.0,0.3783000000000811
477,15,0.5,0.25,-35.0,-1,1.0,0.30840100000023085
478,15,0.5,1.0,35.0,1,1.0,1.028400000000147
479,15,0.5,0.125,-35.0,1,0.0,0.6952000000001135
480,15,0.5,0.125,35.0,1,1.0,0.6390000000003511
481,15,0.5,0.125,-35.0,-1,1.0,0.5553999999999633
482,15,0.5,0.125,-35.0,1,0.0,0.7721000000001368
483,15,0.5,0.0625,35.0,-1,0.0,3.8857010000001537
484,15,0.5,0.125,-35.0,-1,1.0,0.2089010000001963
485,15,0.5,0.25,-35.0,-1,1.0,0.26280000000019754
486,15,0.5,0.25,-35.0,-1,1.0,0.3926000000001295
487,15,0.5,0.125,35.0,1,1.0,0.3025000000000091
488,15,0.5,1.0,-35.0,-1,1.0,0.18610000000012406
489,15,0.5,1.0,35.0,1,1.0,0.3793000000000575
490,15,0.5,0.0,35.0,1,1.0,0.7594000000001415
491,15,0.5,0.0625,35.0,1,1.0,0.3561010000000806
492,15,0.5,0.125,35.0,1,1.0,0.30979999999999563
493,15,0.5,0.125,-35.0,-1,1.0,0.26300000000014734
494,15,0.5,1.0,-35.0,-1,1.0,0.2637009999998554
495,15,0.5,0.0,-35.0,1,0.0,0.4066000000002532
496,15,0.5,0.25,-35.0,-1,1.0,0.40990000000010696
497,15,0.5,0.125,35.0,1,1.0,0.39649999999983265
498,15,0.5,0.25,-35.0,-1,1.0,0.44070000000010623
499,15,0.5,0.0625,-35.0,-1,1.0,1.4934010000001763
500,15,0.5,1.0,35.0,1,1.0,0.3870999999999185
501,15,0.5,1.0,35.0,1,1.0,0.7269999999998618
502,15,0.5,0.125,35.0,1,1.0,0.36380000000008295
503,15,0.5,0.0625,35.0,-1,0.0,0.2337999999999738
504,15,0.5,0.125,-35.0,-1,1.0,0.26379999999971915
505,15,0.5,0.125,35.0,1,1.0,0.28790099999969243
506,15,0.5,0.25,35.0,1,1.0,0.2870999999995547
507,15,0.5,0.0625,-35.0,-1,1.0,0.607600000000275
508,15,0.5,0.0,35.0,-1,0.0,1.9076000000000022
509,15,0.5,0.0625,35.0,-1,0.0,0.41790099999980157
510,15,0.5,0.0,-35.0,-1,1.0,0.6080999999994674
511,15,0.5,1.0,35.0,1,1.0,0.5511999999998807
512,15,0.5,0.25,-35.0,-1,1.0,0.4074999999997999
513,15,0.5,1.0,35.0,1,1.0,0.4748999999997068
514,15,0.5,1.0,35.0,1,1.0,0.3712000000000444
515,15,0.5,0.125,35.0,-1,0.0,0.2946999999999207
516,15,0.5,0.0625,-35.0,1,0.0,0.5552010000001246
517,15,0.5,0.0,-35.0,-1,1.0,0.734799999999268
518,15,0.5,0.25,35.0,1,1.0,0.3719999999993888
519,15,0.5,0.25,35.0,1,1.0,0.448399999999765
520,15,0.5,0.0,35.0,-1,0.0,0.1617999999998574
521,15,0.5,0.25,-35.0,-1,1.0,0.32189999999991414
522,15,0.5,0.0625,35.0,1,1.0,0.19849999999996726
523,15,0.5,0.25,35.0,1,1.0,0.2523999999998523
524,15,0.5,0.0625,35.0,-1,0.0,0.24879999999939173
525,15,0.5,0.125,-35.0,-1,1.0,0.3022999999993772
526,15,0.5,0.0625,35.0,1,1.0,0.3855999999996129
527,15,0.5,0.0625,35.0,1,1.0,0.6457000000000335
528,15,0.5,0.125,-35.0,-1,1.0,0.292699999999968
529,15,0.5,0.25,35.0,1,1.0,0.389299999999821
530,15,0.5,0.25,-35.0,-1,1.0,0.3095999999995911
531,15,0.5,0.25,35.0,1,1.0,1.2992999999996755
532,15,0.5,1.0,35.0,1,1.0,0.3961999999996806
533,15,0.5,0.25,-35.0,-1,1.0,0.26949999999987995
534,15,0.5,0.25,35.0,1,1.0,0.36000000000012733
535,15,0.5,0.0625,-35.0,-1,1.0,0.1497999999996864
536,15,0.5,0.25,-35.0,-1,1.0,0.2605999999996129
537,15,0.5,1.0,35.0,1,1.0,0.6730999999999767
538,15,0.5,1.0,-35.0,-1,1.0,0.20669999999972788
539,15,0.5,1.0,-35.0,-1,1.0,1.5506000000000313
540,15,0.5,1.0,-35.0,-1,1.0,0.620300999999472
541,15,0.5,1.0,35.0,1,1.0,0.4204999999997199
542,15,0.5,1.0,35.0,1,1.0,0.4504009999996015
543,15,0.5,0.125,-35.0,-1,1.0,0.2935999999995147
544,15,0.5,0.0625,35.0,1,1.0,0.5836999999996806
545,15,0.5,0.0625,-35.0,-1,1.0,0.4804999999996653
546,15,0.5,0.25,35.0,1,1.0,0.5007000000000517
547,15,0.5,0.125,35.0,1,1.0,0.287199999999757
548,15,0.5,0.0,-35.0,1,0.0,0.7409999999999854
549,15,0.5,0.0625,35.0,-1,0.0,0.2175999999999476
550,15,0.5,0.0625,-35.0,1,0.0,0.6474009999997179
551,15,0.5,0.125,-35.0,-1,1.0,0.4376999999999498
552,15,0.5,0.0625,35.0,-1,0.0,0.12119999999958964
553,15,0.5,0.0,35.0,1,1.0,0.6680999999998676
554,15,0.5,0.0625,35.0,-1,0.0,0.1677999999997155
555,15,0.5,0.25,-35.0,-1,1.0,0.20799999999962893
556,15,0.5,0.0625,-35.0,1,0.0,0.40790000000015425
557,15,0.5,0.0625,-35.0,-1,1.0,0.35799999999926513
558,15,0.5,1.0,-35.0,-1,1.0,0.47119999999995343
559,15,0.5,0.0625,35.0,1,1.0,0.5013009999997848
560,15,0.5,0.125,35.0,1,1.0,0.4519999999997708
561,15,0.5,0.25,-35.0,-1,1.0,0.2682009999998627
562,15,0.5,1.0,35.0,1,1.0,0.31510100000014063
563,15,0.5,0.0,-35.0,-1,1.0,0.2053009999999631
564,15,0.5,1.0,-35.0,-1,1.0,0.3751009999996313
565,15,0.5,0.125,35.0,1,1.0,0.2686009999997623
566,15,0.5,1.0,-35.0,-1,1.0,0.16190099999994345
567,15,0.5,0.0625,-35.0,-1,1.0,0.3955009999995127
568,15,0.5,1.0,-35.0,-1,1.0,0.3353009999996175
569,15,0.5,0.0625,35.0,-1,0.0,0.3354020000001583
570,15,0.5,0.0625,-35.0,-1,1.0,0.27610100000038074
571,15,0.5,0.0,35.0,-1,0.0,5.962101999999504
572,15,0.5,0.125,35.0,1,1.0,0.6124009999994087
573,15,0.5,0.125,35.0,1,1.0,0.5429009999998016
574,15,0.5,0.25,-35.0,-1,1.0,0.8382009999995716
575,15,0.5,0.0625,-35.0,-1,1.0,0.5882010000000264
576,15,0.5,0.25,-35.0,-1,1.0,0.13830199999938486
577,15,0.5,0.25,35.0,1,1.0,0.8350009999999202
578,15,0.5,0.125,35.0,-1,0.0,0.17850099999986924
579,15,0.5,0.125,-35.0,-1,1.0,0.27850100000023303
580,15,0.5,0.0,35.0,-1,0.0,0.26520099999970626
581,15,0.3,0.0,35.0,-1,0.0,0.2619009999998525
582,15,0.5,1.0,35.0,1,1.0,0.4454009999999471
583,15,0.5,1.0,35.0,1,1.0,0.4289009999993141
584,15,0.5,0.25,35.0,1,1.0,0.29560099999980594
585,15,0.5,1.0,-35.0,-1,1.0,0.032300999999733904
586,15,0.5,0.25,35.0,1,1.0,0.4557020000002012
587,15,0.5,0.0625,35.0,1,1.0,0.38570199999958277
588,15,0.5,0.125,-35.0,-1,1.0,0.4126019999998789
589,15,0.5,0.0625,35.0,1,1.0,0.2692010000000664
590,15,0.5,0.0625,-35.0,-1,1.0,0.5894010000001799
591,15,0.5,0.0625,-35.0,-1,1.0,0.2128010000001268
592,15,0.5,0.0625,-35.0,-1,1.0,0.1895009999998365
593,15,0.5,1.0,35.0,1,1.0,0.22630199999957767
594,15,0.5,0.125,-35.0,-1,1.0,0.3196020000000317
595,15,0.5,0.125,-35.0,1,0.0,0.7866009999997914
596,15,0.5,0.0625,-35.0,1,0.0,0.8165009999997892
597,15,0.5,0.25,-35.0,-1,1.0,0.5866009999999733
598,15,0.5,0.25,-35.0,-1,1.0,0.3066009999997732
599,15,0.5,0.0625,-35.0,-1,1.0,0.7601009999998496
600,15,0.5,0.25,35.0,1,1.0,0.6902009999998882
601,15,0.5,0.125,-35.0,-1,1.0,0.2704009999997652
602,15,0.5,0.0,-35.0,1,0.0,0.2971009999996568
603,15,0.5,0.25,-35.0,-1,1.0,0.3036010000000715
604,15,0.5,0.0625,-35.0,-1,1.0,0.2504009999997834
605,15,0.5,1.0,-35.0,-1,1.0,0.08740099999977247
606,15,0.5,0.0625,35.0,-1,0.0,0.4373019999998178
607,15,0.5,0.25,35.0,1,1.0,0.857401000000209
608,15,0.5,1.0,35.0,1,1.0,1.8773019999994176
