trial_num,session_num,stim_probability_left,contrast,position,response_choice,trial_correct,reaction_time
1,13,0.5,1.0,-35.0,-1,1.0,0.4778000000000002
2,13,0.5,0.25,-35.0,-1,1.0,0.2461999999999991
3,13,0.5,1.0,-35.0,-1,1.0,0.1999999999999993
4,13,0.5,0.125,-35.0,-1,1.0,0.34999999999999964
5,13,0.5,0.125,-35.0,-1,1.0,0.17079999999999984
6,13,0.5,0.25,35.0,1,1.0,0.27550000000000097
7,13,0.5,1.0,35.0,1,1.0,0.26229999999999976
8,13,0.5,0.125,-35.0,-1,1.0,0.26080000000000325
9,13,0.5,0.0625,-35.0,1,0.0,2.8157999999999994
10,13,0.5,0.25,-35.0,-1,1.0,0.28310000000000457
11,13,0.5,0.0,35.0,-1,0.0,0.3060000000000045
12,13,0.5,0.25,35.0,1,1.0,0.27070000000000505
13,13,0.5,1.0,35.0,1,1.0,0.6552999999999969
14,13,0.5,0.0625,-35.0,-1,1.0,0.17440000000000566
15,13,0.5,0.25,35.0,1,1.0,0.2635999999999967
16,13,0.5,0.0,35.0,-1,0.0,5.320599999999999
17,13,0.5,0.125,35.0,1,1.0,0.42389999999999617
18,13,0.5,0.0625,-35.0,-1,1.0,11.874400000000023
19,13,0.5,1.0,-35.0,-1,1.0,0.2763000000000062
20,13,0.5,1.0,-35.0,-1,1.0,0.2179000000000002
21,13,0.5,0.125,-35.0,-1,1.0,0.7272000000000105
22,13,0.5,0.125,-35.0,-1,1.0,0.2576999999999998
23,13,0.5,0.125,35.0,1,1.0,0.7680000000000007
24,13,0.5,0.25,-35.0,-1,1.0,0.07610000000001094
25,13,0.5,1.0,35.0,1,1.0,0.2341000000000122
26,13,0.5,0.25,-35.0,-1,1.0,0.27060000000000173
27,13,0.5,0.25,-35.0,-1,1.0,0.2763999999999953
28,13,0.5,1.0,35.0,1,1.0,0.21880000000000166
29,13,0.5,1.0,-35.0,-1,1.0,0.2300000000000182
30,13,0.5,0.25,-35.0,-1,1.0,0.27410000000000423
31,13,0.5,0.25,35.0,1,1.0,0.2793000000000063
32,13,0.5,0.125,-35.0,-1,1.0,0.30460000000002196
33,13,0.5,0.0,-35.0,1,0.0,0.762599999999992
34,13,0.5,0.0,35.0,-1,0.0,1.5686000000000035
35,13,0.5,0.125,35.0,1,1.0,0.3464000000000027
36,13,0.5,0.125,-35.0,-1,1.0,0.5040000000000191
37,13,0.5,0.25,-35.0,-1,1.0,0.37000000000000455
38,13,0.5,1.0,-35.0,-1,1.0,0.19370000000000687
39,13,0.5,0.125,-35.0,-1,1.0,0.26269999999999527
40,13,0.5,0.25,-35.0,-1,1.0,0.20999999999997954
41,13,0.5,0.0625,35.0,1,1.0,0.6315000000000168
42,13,0.5,0.125,35.0,1,1.0,0.31150000000002365
43,13,0.5,0.0,-35.0,1,0.0,3.377600000000001
44,13,0.4,0.0,35.0,-1,0.0,0.2611999999999739
45,13,0.5,1.0,-35.0,-1,1.0,0.1520999999999617
46,13,0.5,0.25,35.0,1,1.0,0.23949999999996407
47,13,0.5,0.125,-35.0,-1,1.0,0.25029999999998154
48,13,0.5,0.0,-35.0,-1,1.0,0.05350000000001387
49,13,0.5,0.25,35.0,1,1.0,0.2248000000000161
50,13,0.5,1.0,-35.0,-1,1.0,0.2231999999999914
51,13,0.5,0.25,35.0,1,1.0,0.3129999999999882
52,13,0.5,1.0,-35.0,-1,1.0,0.1710999999999956
53,13,0.5,0.0625,35.0,1,1.0,0.4502999999999986
54,13,0.5,0.125,-35.0,-1,1.0,0.5016999999999712
55,13,0.5,0.0625,35.0,1,1.0,1.7834000000000003
56,13,0.5,0.25,35.0,1,1.0,0.5396999999999821
57,13,0.5,0.0,-35.0,-1,1.0,6.045100000000019
58,13,0.5,0.0,-35.0,1,0.0,0.8605999999999767
59,13,0.6,0.0,35.0,1,1.0,2.0555000000000234
60,13,0.5,1.0,35.0,1,1.0,0.20409999999998263
61,13,0.5,0.125,-35.0,-1,1.0,0.2798999999999978
62,13,0.5,0.25,35.0,1,1.0,0.21119999999999095
63,13,0.5,0.0625,-35.0,-1,1.0,0.3101999999999805
64,13,0.5,0.0,35.0,1,1.0,0.09669999999999845
65,13,0.5,0.25,35.0,1,1.0,0.18559999999999377
66,13,0.5,1.0,-35.0,-1,1.0,0.27319999999997435
67,13,0.5,0.0,-35.0,1,0.0,0.7914000000000101
68,13,0.5,0.0625,35.0,-1,0.0,0.8493999999999744
69,13,0.5,0.0625,35.0,1,1.0,0.6496999999999673
70,13,0.5,0.0625,-35.0,-1,1.0,0.2796000000000163
71,13,0.5,0.125,-35.0,-1,1.0,0.3158999999999992
72,13,0.5,1.0,-35.0,-1,1.0,0.27359999999998763
73,13,0.5,0.25,-35.0,-1,1.0,0.27199999999999136
74,13,0.5,0.0625,-35.0,-1,1.0,0.8540000000000134
75,13,0.5,0.25,-35.0,-1,1.0,0.26149999999998386
76,13,0.5,0.125,-35.0,-1,1.0,0.3896000000000299
77,13,0.5,1.0,35.0,1,1.0,0.23849999999998772
78,13,0.5,0.125,35.0,1,1.0,0.6380000000000337
79,13,0.5,0.0625,35.0,1,1.0,0.6043999999999983
80,13,0.5,0.0,35.0,-1,0.0,0.3421000000000163
81,13,0.5,0.0,-35.0,-1,1.0,0.21490000000005693
82,13,0.5,0.0625,-35.0,-1,1.0,0.2837000000000103
83,13,0.5,0.0625,-35.0,-1,1.0,0.23859999999996262
84,13,0.5,0.125,35.0,-1,0.0,0.21900000000005093
85,13,0.5,0.125,35.0,1,1.0,0.37360000000001037
86,13,0.5,1.0,35.0,1,1.0,0.23220000000003438
87,13,0.5,0.0,35.0,-1,0.0,0.1955000000000382
88,13,0.5,0.25,35.0,1,1.0,0.24210000000005039
89,13,0.5,0.0625,35.0,1,1.0,0.2812000000000694
90,13,0.5,0.0625,-35.0,-1,1.0,0.4792000000000485
91,13,0.5,1.0,-35.0,-1,1.0,0.32670000000001664
92,13,0.5,0.0,-35.0,1,0.0,1.4460000000000832
93,13,0.5,0.0,-35.0,-1,1.0,0.2148000000000252
94,13,0.5,1.0,-35.0,-1,1.0,0.43479999999999563
95,13,0.5,0.125,35.0,1,1.0,0.261600000000044
96,13,0.5,0.25,35.0,1,1.0,0.5792000000000712
97,13,0.5,1.0,-35.0,-1,1.0,0.44429999999999836
98,13,0.5,0.125,35.0,1,1.0,0.3638000000000261
99,13,0.5,1.0,-35.0,-1,1.0,0.22039999999998372
100,13,0.5,1.0,-35.0,-1,1.0,0.2268999999999437
101,13,0.5,1.0,-35.0,-1,1.0,0.23220000000003438
102,13,0.5,0.125,35.0,1,1.0,0.509900000000016
103,13,0.5,0.25,35.0,1,1.0,0.27359999999998763
104,13,0.5,0.125,-35.0,-1,1.0,0.2714000000000283
105,13,0.5,1.0,35.0,1,1.0,0.2452000000000112
106,13,0.5,0.25,35.0,1,1.0,0.24549999999999272
107,13,0.5,0.25,-35.0,-1,1.0,0.26000000000004775
108,13,0.5,0.25,35.0,1,1.0,0.21530000000001337
109,13,0.5,0.0625,35.0,1,1.0,0.5176000000000158
110,13,0.5,1.0,35.0,1,1.0,0.29460000000000264
111,13,0.5,0.0625,-35.0,1,0.0,4.539500000000032
112,13,0.5,0.0,-35.0,1,0.0,15.553499999999985
113,13,0.5,0.25,-35.0,-1,1.0,0.22400000000004638
114,13,0.5,0.0,35.0,-1,0.0,2.835800000000006
115,13,0.5,0.25,-35.0,-1,1.0,0.28000000000002956
116,13,0.5,1.0,-35.0,-1,1.0,0.2358000000000402
117,13,0.5,0.25,-35.0,-1,1.0,0.27230000000002974
118,13,0.5,1.0,35.0,1,1.0,0.11059999999997672
119,13,0.5,0.25,-35.0,-1,1.0,0.176400000000001
120,13,0.5,0.0625,35.0,1,1.0,0.40010000000006585
121,13,0.5,1.0,35.0,1,1.0,0.3324000000000069
122,13,0.5,0.0,35.0,1,1.0,0.5932000000000244
123,13,0.5,1.0,35.0,1,1.0,0.19640000000003965
124,13,0.5,0.125,-35.0,-1,1.0,6.052700000000016
125,13,0.5,0.25,35.0,1,1.0,0.23160000000001446
126,13,0.5,0.125,35.0,1,1.0,0.4023000000000252
127,13,0.5,0.0625,-35.0,-1,1.0,0.21779900000001362
128,13,0.5,0.25,35.0,1,1.0,0.31040000000001555
129,13,0.5,0.25,-35.0,-1,1.0,0.7594000000000278
130,13,0.5,0.25,-35.0,-1,1.0,0.3137999999999579
131,13,0.5,0.125,-35.0,-1,1.0,0.34020000000003847
132,13,0.5,0.0625,-35.0,-1,1.0,0.24729999999999563
133,13,0.5,0.25,35.0,1,1.0,0.2966000000000122
134,13,0.5,0.25,-35.0,-1,1.0,0.18370000000004438
135,13,0.5,0.25,-35.0,-1,1.0,0.4692000000000007
136,13,0.5,0.125,35.0,1,1.0,0.318300000000022
137,13,0.5,0.25,-35.0,1,0.0,0.6157000000000039
138,13,0.5,0.125,-35.0,-1,1.0,3.8888000000000034
139,13,0.5,0.25,35.0,1,1.0,0.24359999999995807
140,13,0.5,1.0,-35.0,-1,1.0,0.29640000000000555
141,13,0.5,0.0625,35.0,1,1.0,0.6540000000000532
142,13,0.5,0.0,35.0,-1,0.0,0.23770000000007485
143,13,0.5,0.25,35.0,1,1.0,0.4981000000000222
144,13,0.5,0.0,-35.0,1,0.0,3.3202000000000567
145,13,0.5,0.0,35.0,-1,0.0,4.815700000000049
146,13,0.5,0.0625,-35.0,-1,1.0,4.622799999999984
147,13,0.5,0.0,-35.0,-1,1.0,3.8316999999999553
148,13,0.5,0.125,-35.0,-1,1.0,0.40840000000002874
149,13,0.5,0.0625,-35.0,-1,1.0,0.23559999999986303
150,13,0.5,1.0,35.0,1,1.0,0.35199999999997544
151,13,0.5,0.125,-35.0,-1,1.0,0.2566999999999098
152,13,0.5,1.0,35.0,1,1.0,0.2540999999998803
153,13,0.5,1.0,35.0,1,1.0,0.27149999999994634
154,13,0.5,0.0,-35.0,-1,1.0,0.23879999999996926
155,13,0.5,0.125,35.0,1,1.0,0.3149999999999409
156,13,0.5,1.0,35.0,1,1.0,0.21039999999993597
157,13,0.5,0.0625,35.0,1,1.0,0.4372999999999365
158,13,0.5,0.0625,35.0,1,1.0,0.26139999999998054
159,13,0.5,0.125,35.0,1,1.0,0.3533999999999651
160,13,0.5,0.0625,-35.0,-1,1.0,0.7377999999998792
161,13,0.5,1.0,35.0,1,1.0,0.23839999999995598
162,13,0.5,0.0625,35.0,1,1.0,2.774599999999964
163,13,0.5,0.0625,35.0,1,1.0,0.2538999999999305
164,13,0.5,0.125,35.0,1,1.0,0.2181999999999107
165,13,0.5,1.0,-35.0,-1,1.0,0.6115999999999531
166,13,0.5,0.0,35.0,-1,0.0,11.000699999999938
167,13,0.5,0.0,35.0,1,1.0,0.8339000000000851
168,13,0.5,1.0,35.0,1,1.0,0.19459999999980937
169,13,0.5,1.0,35.0,1,1.0,0.21010000000001128
170,13,0.5,0.125,35.0,1,1.0,0.520099999999843
171,13,0.5,1.0,-35.0,-1,1.0,0.11479999999994561
172,13,0.5,0.125,35.0,1,1.0,0.2458000000000311
173,13,0.5,0.0625,35.0,1,1.0,0.42829999999992197
174,13,0.5,0.25,35.0,1,1.0,0.2398999999999205
175,13,0.5,1.0,35.0,1,1.0,0.19650000000001455
176,13,0.5,0.0,35.0,1,1.0,0.7398999999999205
177,13,0.5,0.125,35.0,1,1.0,0.3654000000000224
178,13,0.5,0.25,-35.0,-1,1.0,1.6102999999999383
179,13,0.5,0.0,35.0,1,1.0,0.23460000000000036
180,13,0.5,0.0,-35.0,1,0.0,0.38779999999997017
181,13,0.5,0.0625,-35.0,-1,1.0,0.16279999999994743
182,13,0.5,0.0625,35.0,1,1.0,0.2701999999999316
183,13,0.5,0.0,35.0,-1,0.0,8.193199999999933
184,13,0.7,0.0,35.0,-1,0.0,0.20039999999994507
185,13,0.5,1.0,-35.0,-1,1.0,0.2562000000000353
186,13,0.5,1.0,35.0,1,1.0,0.2217000000000553
187,13,0.5,0.125,35.0,1,1.0,0.2725999999998976
188,13,0.5,0.0,-35.0,1,0.0,0.48890000000005784
189,13,0.6,0.0,-35.0,1,0.0,0.6691999999999325
190,13,0.5,1.0,35.0,1,1.0,0.46910000000002583
191,13,0.5,1.0,-35.0,-1,1.0,0.17290000000002692
192,13,0.5,0.0625,-35.0,-1,1.0,1.236599999999953
193,13,0.5,0.0625,35.0,1,1.0,0.2518000000000029
194,13,0.5,0.125,35.0,1,1.0,0.24109999999996035
195,13,0.5,0.125,-35.0,-1,1.0,0.5230000000000246
196,13,0.5,0.125,-35.0,-1,1.0,4.789200000000051
197,13,0.5,1.0,35.0,1,1.0,0.24490000000002965
198,13,0.5,1.0,35.0,1,1.0,0.27529999999990196
199,13,0.5,0.0625,-35.0,-1,1.0,0.8233999999998787
200,13,0.5,0.0625,35.0,-1,0.0,0.8481000000000449
201,13,0.4,0.0625,-35.0,1,0.0,0.9605999999999995
202,13,0.5,1.0,35.0,1,1.0,0.20510000000001583
203,13,0.5,1.0,-35.0,-1,1.0,0.2339999999999236
204,13,0.5,1.0,-35.0,-1,1.0,0.8266999999999598
205,13,0.5,1.0,-35.0,-1,1.0,0.35770000000002256
206,13,0.5,0.0,-35.0,1,0.0,5.70169999999996
207,13,0.5,0.0625,35.0,1,1.0,0.4844999999999118
208,13,0.5,1.0,-35.0,-1,1.0,0.20479999999986376
209,13,0.5,0.25,35.0,1,1.0,0.19309999999995853
210,13,0.5,0.0625,35.0,1,1.0,0.2538999999999305
211,13,0.5,0.125,-35.0,-1,1.0,0.5663999999999305
212,13,0.5,0.0625,35.0,1,1.0,0.2887999999999238
213,13,0.5,1.0,-35.0,-1,1.0,0.7054000000000542
214,13,0.5,0.125,35.0,1,1.0,0.2676999999999907
215,13,0.5,0.0625,35.0,1,1.0,0.2504999999998745
216,13,0.5,0.25,-35.0,-1,1.0,0.6309999999999718
217,13,0.5,0.0625,-35.0,-1,1.0,6.4932999999999765
218,13,0.5,0.0,-35.0,1,0.0,0.7398000000000593
219,13,0.5,0.125,-35.0,-1,1.0,0.4800000000000182
220,13,0.5,0.25,-35.0,1,0.0,0.46849999999994907
221,13,0.5,0.25,-35.0,-1,1.0,0.2721000000000231
222,13,0.5,0.25,35.0,1,1.0,0.30769999999995434
223,13,0.5,0.25,-35.0,-1,1.0,0.260599999999954
224,13,0.5,1.0,35.0,1,1.0,0.1855999999999085
225,13,0.5,1.0,35.0,1,1.0,0.23599999999999
226,13,0.5,0.0,35.0,1,1.0,0.3936999999999671
227,13,0.5,1.0,-35.0,-1,1.0,0.31360000000006494
228,13,0.5,0.125,35.0,1,1.0,0.2679999999999154
229,13,0.5,0.25,-35.0,-1,1.0,0.21439999999995507
230,13,0.5,0.0625,-35.0,-1,1.0,0.2583999999999378
231,13,0.5,1.0,35.0,1,1.0,0.16999999999995907
232,13,0.5,0.125,35.0,1,1.0,0.20959999999990941
233,13,0.5,0.25,35.0,1,1.0,0.3107999999998583
234,13,0.5,1.0,-35.0,-1,1.0,0.6075000000000728
235,13,0.5,0.0625,35.0,1,1.0,0.4581999999999198
236,13,0.5,0.0625,35.0,1,1.0,0.4193999999998823
237,13,0.5,0.0625,-35.0,1,0.0,0.8422999999999092
238,13,0.5,0.0625,-35.0,-1,1.0,0.5378000000000611
239,13,0.5,0.125,35.0,1,1.0,0.5860999999999876
240,13,0.5,0.0,-35.0,-1,1.0,0.518799999999942
241,13,0.5,0.125,35.0,1,1.0,0.3144999999999527
242,13,0.5,0.25,35.0,-1,0.0,0.18679999999994834
243,13,0.6,0.25,-35.0,-1,1.0,0.17439999999999145
244,13,0.5,1.0,-35.0,-1,1.0,0.25490000000002055
245,13,0.5,0.25,-35.0,-1,1.0,0.27800000000002
246,13,0.5,0.0625,35.0,1,1.0,0.24710000000004584
247,13,0.5,1.0,-35.0,-1,1.0,0.19050000000004275
248,13,0.5,0.0625,-35.0,-1,1.0,4.364099999999894
249,13,0.5,0.0,35.0,-1,0.0,4.197499999999877
250,13,0.5,0.0625,-35.0,-1,1.0,0.25759999999991123
251,13,0.5,0.0625,35.0,1,1.0,0.33379999999999654
252,13,0.5,0.0,-35.0,-1,1.0,0.5234000000000378
253,13,0.5,0.0,35.0,-1,0.0,0.8208999999999378
254,13,0.2,0.0,-35.0,-1,1.0,8.544799999999896
255,13,0.5,1.0,35.0,1,1.0,0.20150000000001
256,13,0.5,0.125,35.0,1,1.0,0.24259999999992488
257,13,0.5,0.0625,-35.0,1,0.0,0.24249999999994998
258,13,0.4,0.0625,-35.0,-1,1.0,0.25479999999993197
259,13,0.5,1.0,35.0,1,1.0,0.20319999999992433
260,13,0.5,0.25,-35.0,-1,1.0,0.18899999999996453
261,13,0.5,0.0,35.0,-1,0.0,1.6741000000000668
262,13,0.5,0.125,-35.0,-1,1.0,9.469299999999976
263,13,0.5,0.125,35.0,1,1.0,0.2700999999999567
264,13,0.5,0.25,-35.0,-1,1.0,0.3386000000000422
265,13,0.5,0.0,35.0,-1,0.0,9.355999999999995
266,13,0.5,0.125,-35.0,-1,1.0,0.5750000000000455
267,13,0.5,1.0,35.0,1,1.0,0.2075999999999567
268,13,0.5,0.0625,-35.0,-1,1.0,0.7788999999999078
269,13,0.5,0.25,-35.0,-1,1.0,0.5389999999999873
270,13,0.5,0.125,-35.0,-1,1.0,0.4926999999998998
271,13,0.5,1.0,35.0,1,1.0,0.17570000000000618
272,13,0.5,0.125,35.0,1,1.0,0.3226999999999407
273,13,0.5,0.0625,-35.0,1,0.0,0.4192000000000462
274,13,0.5,0.0,-35.0,1,0.0,0.37620000000003984
275,13,0.5,0.125,-35.0,-1,1.0,0.46260000000006585
276,13,0.5,0.125,-35.0,-1,1.0,0.33960000000001855
277,13,0.5,1.0,35.0,1,1.0,0.2298000000000684
278,13,0.5,0.25,-35.0,-1,1.0,0.35009999999988395
279,13,0.5,0.0625,35.0,1,1.0,0.3101000000001477
280,13,0.5,0.0625,35.0,1,1.0,0.47649999999998727
281,13,0.5,0.25,35.0,1,1.0,0.2699000000002343
282,13,0.5,0.0625,35.0,1,1.0,0.4598999999998341
283,13,0.5,0.25,35.0,1,1.0,0.26320000000009713
284,13,0.5,0.0625,35.0,1,1.0,0.30320000000006075
285,13,0.5,0.25,35.0,1,1.0,0.11280000000010659
286,13,0.5,0.0625,-35.0,-1,1.0,3.210199999999986
287,13,0.5,0.0,35.0,-1,0.0,6.270500000000084
288,13,0.7,0.0,-35.0,1,0.0,0.8741999999999734
289,13,0.5,1.0,35.0,1,1.0,0.21050000000013824
290,13,0.5,0.25,35.0,1,1.0,0.22089999999980137
291,13,0.5,1.0,-35.0,-1,1.0,0.300899999999956
292,13,0.5,0.0625,-35.0,-1,1.0,0.5075999999999112
293,13,0.5,1.0,35.0,1,1.0,0.2842999999998028
294,13,0.5,0.125,35.0,1,1.0,0.28749999999990905
295,13,0.5,0.25,-35.0,-1,1.0,0.300899999999956
296,13,0.5,0.0625,35.0,1,1.0,0.9208999999998468
297,13,0.5,1.0,35.0,1,1.0,0.6209999999998672
298,13,0.5,0.0625,35.0,1,1.0,0.8313000000000557
299,13,0.5,0.0625,-35.0,-1,1.0,0.4177999999999429
300,13,0.5,0.125,35.0,1,1.0,0.23469999999997526
301,13,0.5,0.0,35.0,1,1.0,0.3411999999998443
302,13,0.5,0.125,35.0,1,1.0,0.24499999999989086
303,13,0.5,0.25,-35.0,-1,1.0,0.48519999999984975
304,13,0.5,0.125,35.0,1,1.0,0.21479999999996835
305,13,0.5,0.125,-35.0,-1,1.0,0.7918000000001939
306,13,0.5,0.0625,-35.0,1,0.0,0.2957000000001244
307,13,0.5,0.0,-35.0,-1,1.0,0.21169999999983702
308,13,0.5,1.0,35.0,1,1.0,0.23530000000005202
309,13,0.5,0.125,-35.0,-1,1.0,0.5653999999997268
310,13,0.5,0.0625,-35.0,-1,1.0,0.3451999999999771
311,13,0.5,0.125,-35.0,-1,1.0,0.4018999999998414
312,13,0.5,0.0625,-35.0,-1,1.0,0.34869999999978063
313,13,0.5,0.25,-35.0,-1,1.0,0.22929999999973916
314,13,0.5,0.125,-35.0,-1,1.0,0.5388000000000375
315,13,0.5,0.125,-35.0,-1,1.0,0.23219999999969332
316,13,0.5,0.0625,-35.0,-1,1.0,0.5155999999999494
317,13,0.5,1.0,-35.0,-1,1.0,0.2756000000001677
318,13,0.5,0.25,-35.0,-1,1.0,0.25909999999998945
319,13,0.5,1.0,-35.0,-1,1.0,0.31239999999979773
320,13,0.5,0.0625,35.0,1,1.0,0.5225999999997839
321,13,0.5,0.25,35.0,1,1.0,0.21269999999981337
322,13,0.5,0.125,35.0,1,1.0,0.6399000000001251
323,13,0.5,0.125,-35.0,-1,1.0,0.4960999999998421
324,13,0.5,0.125,35.0,1,1.0,0.34609999999997854
325,13,0.5,0.0625,35.0,1,1.0,0.26959999999985484
326,13,0.5,0.25,-35.0,-1,1.0,0.5761999999999716
327,13,0.5,0.25,-35.0,-1,1.0,0.25710000000003674
328,13,0.5,0.0625,35.0,1,1.0,0.2563999999999851
329,13,0.5,0.0625,35.0,1,1.0,0.4701999999997497
330,13,0.5,0.25,35.0,1,1.0,0.20039999999994507
331,13,0.5,0.25,35.0,1,1.0,0.25329999999985375
332,13,0.5,0.125,35.0,1,1.0,0.2565999999999349
333,13,0.5,1.0,35.0,1,1.0,0.28330000000005384
334,13,0.5,0.0625,-35.0,1,0.0,0.24679999999989377
335,13,0.5,0.25,-35.0,-1,1.0,0.35999999999989996
336,13,0.5,1.0,-35.0,-1,1.0,0.1972000000000662
337,13,0.5,0.125,-35.0,-1,1.0,0.5534999999999854
338,13,0.5,0.0625,35.0,-1,0.0,0.2402999999999338
339,13,0.6,0.0625,-35.0,-1,1.0,0.3369999999997617
340,13,0.5,1.0,-35.0,-1,1.0,0.20709999999985484
341,13,0.5,0.125,-35.0,-1,1.0,0.4438999999999851
342,13,0.5,0.125,35.0,1,1.0,0.36390000000005784
343,13,0.5,0.125,-35.0,-1,1.0,0.2575000000001637
344,13,0.5,0.0625,35.0,1,1.0,0.2671999999997752
345,13,0.5,0.25,35.0,1,1.0,0.3806999999999334
346,13,0.5,0.125,35.0,1,1.0,0.23090000000001965
347,13,0.5,1.0,-35.0,-1,1.0,0.2677000000001044
348,13,0.5,0.125,35.0,1,1.0,0.19100000000003092
349,13,0.5,1.0,-35.0,-1,1.0,0.26789999999982683
350,13,0.5,0.0625,-35.0,-1,1.0,0.3507999999999356
351,13,0.5,0.125,35.0,1,1.0,0.1750000000001819
352,13,0.5,1.0,-35.0,-1,1.0,0.19780000000014297
353,13,0.5,1.0,-35.0,-1,1.0,0.30149999999980537
354,13,0.5,0.125,35.0,1,1.0,0.44810000000006767
355,13,0.5,0.0,-35.0,-1,1.0,3.531400000000076
356,13,0.5,0.25,-35.0,-1,1.0,0.2281999999997879
357,13,0.5,0.0625,35.0,1,1.0,0.32199999999988904
358,13,0.5,0.25,35.0,1,1.0,0.22499999999990905
359,13,0.5,0.125,-35.0,-1,1.0,0.5515000000000327
360,13,0.5,1.0,35.0,1,1.0,0.1955000000000382
361,13,0.5,0.0625,35.0,1,1.0,0.30199999999990723
362,13,0.5,0.0625,-35.0,-1,1.0,0.28510000000005675
363,13,0.5,0.0625,-35.0,-1,1.0,0.23839999999995598
364,13,0.5,0.125,-35.0,-1,1.0,0.38239999999996144
365,13,0.5,1.0,35.0,1,1.0,0.3251000000000204
366,13,0.5,1.0,-35.0,-1,1.0,0.2757000000001426
367,13,0.5,1.0,35.0,1,1.0,0.20889999999985776
368,13,0.5,0.25,-35.0,-1,1.0,0.21600000000012187
369,13,0.5,1.0,35.0,1,1.0,0.31560000000013133
370,13,0.5,1.0,35.0,1,1.0,0.25260000000002947
371,13,0.5,0.0,-35.0,-1,1.0,0.33560000000011314
372,13,0.5,0.125,35.0,1,1.0,0.2421999999999116
373,13,0.5,1.0,-35.0,-1,1.0,0.2522000000001299
374,13,0.5,0.0625,-35.0,-1,1.0,0.80600000000004
375,13,0.5,1.0,35.0,1,1.0,0.405699999999797
376,13,0.5,0.25,-35.0,-1,1.0,0.24620000000004438
377,13,0.5,0.125,-35.0,-1,1.0,0.3125
378,13,0.5,1.0,-35.0,-1,1.0,0.25329999999985375
379,13,0.5,0.0625,35.0,1,1.0,0.27589999999986503
380,13,0.5,0.0625,35.0,1,1.0,0.25299999999992906
381,13,0.5,0.125,-35.0,-1,1.0,0.38970000000017535
382,13,0.5,0.25,-35.0,-1,1.0,0.25649999999996
383,13,0.5,0.0625,-35.0,1,0.0,0.23949999999990723
384,13,0.5,0.125,35.0,1,1.0,0.0728999999998905
385,13,0.5,1.0,-35.0,-1,1.0,0.2500999999999749
386,13,0.5,1.0,35.0,1,1.0,0.18649999999979627
387,13,0.5,0.0,35.0,-1,0.0,8.797000000000025
388,13,0.5,0.0625,-35.0,-1,1.0,0.38049999999998363
389,13,0.5,0.25,-35.0,-1,1.0,1.4101000000000568
390,13,0.5,0.25,35.0,1,1.0,0.21669999999994616
391,13,0.5,0.0625,-35.0,1,0.0,0.2436999999999898
392,13,0.5,0.0625,35.0,1,1.0,0.2636999999999716
393,13,0.5,0.0625,35.0,1,1.0,0.30369999999993524
394,13,0.5,0.125,35.0,1,1.0,0.20700000000010732
395,13,0.5,1.0,35.0,1,1.0,0.21389999999973952
396,13,0.5,1.0,35.0,1,1.0,0.1971000000000913
397,13,0.5,0.25,35.0,1,1.0,0.18039999999996326
398,13,0.5,0.0625,-35.0,-1,1.0,0.5873999999996613
399,13,0.5,1.0,35.0,1,1.0,0.5207000000000335
400,13,0.5,0.125,35.0,1,1.0,0.31070000000022446
401,13,0.5,1.0,-35.0,-1,1.0,0.1607000000001335
402,13,0.5,0.0,-35.0,-1,1.0,0.30759999999986576
403,13,0.5,0.0625,35.0,1,1.0,0.27729999999996835
404,13,0.5,0.0,-35.0,-1,1.0,7.230800000000045
405,13,0.5,0.125,-35.0,-1,1.0,0.27060000000005857
406,13,0.5,0.0625,35.0,1,1.0,0.5872999999999138
407,13,0.5,1.0,-35.0,-1,1.0,0.27729999999996835
408,13,0.5,0.25,-35.0,1,0.0,0.7237999999999829
409,13,0.5,0.25,35.0,1,1.0,0.19399999999995998
410,13,0.5,1.0,-35.0,-1,1.0,0.21080000000006294
411,13,0.5,0.25,-35.0,-1,1.0,0.33429999999975735
412,13,0.5,1.0,35.0,1,1.0,0.6309000000001106
413,13,0.5,0.125,35.0,1,1.0,0.36760000000003856
414,13,0.5,0.125,35.0,1,1.0,0.8408999999999196
415,13,0.5,0.0625,35.0,1,1.0,0.42439999999987776
416,13,0.5,0.25,-35.0,-1,1.0,0.20109999999976935
417,13,0.5,0.125,35.0,1,1.0,0.24110000000018772
418,13,0.5,0.25,-35.0,-1,1.0,0.2779000000000451
419,13,0.5,1.0,35.0,1,1.0,0.4578999999998814
420,13,0.5,0.125,-35.0,-1,1.0,0.29119999999988977
421,13,0.5,0.0625,35.0,1,1.0,0.264699999999948
422,13,0.5,1.0,-35.0,-1,1.0,1.1014000000000124
423,13,0.5,1.0,-35.0,-1,1.0,0.22149999999987813
424,13,0.5,0.0625,-35.0,-1,1.0,5.598099999999931
425,13,0.5,0.0,-35.0,-1,1.0,0.4050999999999476
426,13,0.5,1.0,-35.0,-1,1.0,0.23509999999987485
427,13,0.5,0.125,35.0,1,1.0,0.26519999999982247
428,13,0.5,0.0625,35.0,1,1.0,0.2883999999999105
429,13,0.5,1.0,-35.0,-1,1.0,0.24849999999992178
430,13,0.5,0.0,-35.0,-1,1.0,7.038600000000088
431,13,0.5,0.0,35.0,-1,0.0,2.965400000000045
432,13,0.2,0.0,35.0,-1,0.0,6.088899999999967
433,13,0.5,1.0,35.0,1,1.0,0.2156999999999698
434,13,0.5,0.25,-35.0,-1,1.0,0.2924999999997908
435,13,0.5,1.0,35.0,1,1.0,0.28929999999991196
436,13,0.5,0.0625,-35.0,-1,1.0,0.34920000000010987
437,13,0.5,0.25,35.0,1,1.0,0.21929999999974825
438,13,0.5,0.25,-35.0,-1,1.0,0.2460000000000946
439,13,0.5,0.25,-35.0,-1,1.0,0.27939999999989595
440,13,0.5,0.25,35.0,1,1.0,0.21939999999972315
441,13,0.5,1.0,35.0,1,1.0,0.1995999999999185
442,13,0.5,0.25,35.0,1,1.0,0.25959999999986394
443,13,0.5,0.125,-35.0,-1,1.0,0.3429999999998472
444,13,0.5,0.125,35.0,1,1.0,0.259900000000016
445,13,0.5,0.125,-35.0,-1,1.0,0.08970100000010461
446,13,0.5,0.0,-35.0,-1,1.0,0.2598009999999249
447,13,0.5,0.0,-35.0,-1,1.0,0.2432009999999991
448,13,0.5,1.0,-35.0,-1,1.0,0.22990099999992708
449,13,0.5,0.0625,-35.0,-1,1.0,0.7033010000000104
450,13,0.5,0.125,-35.0,-1,1.0,0.29330099999992854
451,13,0.5,0.0625,-35.0,-1,1.0,0.29670099999998456
452,13,0.5,0.0,-35.0,-1,1.0,4.5734010000001035
453,13,0.5,0.0,-35.0,-1,1.0,2.860200999999961
454,13,0.5,0.25,-35.0,-1,1.0,0.4370010000000093
455,13,0.5,0.0,35.0,-1,0.0,3.783800999999812
456,13,0.5,0.0,-35.0,-1,1.0,4.0106009999999515
457,13,0.5,0.25,-35.0,-1,1.0,0.20740100000011807
458,13,0.5,1.0,-35.0,-1,1.0,0.2841009999999642
459,13,0.5,1.0,35.0,1,1.0,0.30080099999986487
460,13,0.5,1.0,35.0,1,1.0,0.257600999999795
461,13,0.5,0.0,-35.0,-1,1.0,0.297600999999986
462,13,0.5,0.0625,-35.0,-1,1.0,0.4511009999998805
463,13,0.5,0.125,-35.0,-1,1.0,0.2577009999999973
464,13,0.5,0.25,35.0,1,1.0,0.34780099999989034
465,13,0.5,0.25,-35.0,-1,1.0,0.24460099999987506
466,13,0.5,0.25,-35.0,-1,1.0,0.2612010000000282
467,13,0.5,0.0,-35.0,1,0.0,0.44460099999992053
468,13,0.5,0.25,-35.0,-1,1.0,0.4979009999999562
469,13,0.5,1.0,-35.0,-1,1.0,0.17130100000008497
470,13,0.5,0.25,35.0,1,1.0,0.2581009999998969
471,13,0.5,0.25,-35.0,-1,1.0,0.24140100000022358
472,13,0.5,0.0625,-35.0,-1,1.0,0.498100999999906
473,13,0.5,1.0,-35.0,-1,1.0,0.5516010000001188
474,13,0.5,0.125,35.0,1,1.0,0.40840099999991253
475,13,0.5,0.0625,-35.0,-1,1.0,0.34500100000013845
476,13,0.5,0.125,-35.0,-1,1.0,0.1817009999997481
477,13,0.5,0.125,-35.0,-1,1.0,0.6485009999998965
478,13,0.5,0.125,-35.0,-1,1.0,3.375201000000061
479,13,0.5,0.125,35.0,1,1.0,0.2354009999999107
480,13,0.5,0.0625,35.0,1,1.0,0.3187009999999191
481,13,0.5,0.25,35.0,1,1.0,0.19870099999980084
482,13,0.5,0.25,-35.0,-1,1.0,0.35540100000002894
483,13,0.5,0.125,-35.0,-1,1.0,0.6522009999998772
484,13,0.5,1.0,-35.0,-1,1.0,0.2156009999998787
485,13,0.5,1.0,35.0,1,1.0,0.2558009999997921
486,13,0.5,0.125,-35.0,-1,1.0,0.345801000000165
487,13,0.5,0.25,-35.0,-1,1.0,0.2557010000000446
488,13,0.5,0.125,-35.0,-1,1.0,0.2858009999999922
489,13,0.5,1.0,35.0,1,1.0,0.22580100000004677
490,13,0.5,0.0625,35.0,1,1.0,0.6192009999999755
491,13,0.5,0.125,35.0,1,1.0,0.3727010000000064
492,13,0.5,0.125,35.0,1,1.0,0.26260099999990416
493,13,0.5,0.0,-35.0,-1,1.0,0.27270100000009734
494,13,0.5,0.0625,35.0,1,1.0,0.2962009999998827
495,13,0.5,1.0,-35.0,-1,1.0,0.5263009999998758
496,13,0.5,0.0625,35.0,1,1.0,0.22950100000025486
497,13,0.5,0.25,35.0,1,1.0,0.39960100000007515
498,13,0.5,0.0625,35.0,1,1.0,0.34970099999986815
499,13,0.5,0.0,35.0,-1,0.0,5.822901000000002
500,13,0.5,0.0,35.0,-1,0.0,0.1865010000001348
501,13,0.6,0.0,-35.0,-1,1.0,0.25650100000007114
502,13,0.5,1.0,-35.0,-1,1.0,0.8033010000001468
503,13,0.5,1.0,35.0,1,1.0,0.21020099999986996
504,13,0.5,0.0625,-35.0,-1,1.0,0.5068009999999958
505,13,0.5,1.0,35.0,1,1.0,0.213600999999926
506,13,0.5,1.0,35.0,1,1.0,0.24020100000007005
507,13,0.5,0.0625,-35.0,-1,1.0,0.39020099999970626
508,13,0.5,0.125,-35.0,-1,1.0,0.5269009999999525
509,13,0.5,0.0,-35.0,-1,1.0,0.5071009999999205
510,13,0.5,0.0625,-35.0,-1,1.0,0.33720100000005004
511,13,0.5,0.125,-35.0,-1,1.0,0.42390099999988706
512,13,0.5,0.0625,-35.0,-1,1.0,3.180500999999822
513,13,0.5,1.0,-35.0,-1,1.0,0.1807009999999991
514,13,0.5,0.0625,-35.0,-1,1.0,0.6775010000001203
515,13,0.5,0.25,-35.0,-1,1.0,0.2975010000000111
516,13,0.5,1.0,-35.0,-1,1.0,0.284300999999914
517,13,0.5,0.0625,-35.0,-1,1.0,0.19420099999979357
518,13,0.5,0.0625,-35.0,-1,1.0,0.44760100000007697
519,13,0.5,0.25,35.0,1,1.0,0.218000999999731
520,13,0.5,1.0,35.0,1,1.0,0.4611009999998714
521,13,0.5,0.125,-35.0,-1,1.0,0.3578010000001086
522,13,0.5,1.0,35.0,1,1.0,0.237800999999763
523,13,0.5,0.0625,-35.0,-1,1.0,0.521300999999994
524,13,0.5,1.0,-35.0,-1,1.0,0.2513010000000122
525,13,0.5,0.125,35.0,1,1.0,0.2813009999999849
526,13,0.5,0.25,35.0,1,1.0,0.22810100000015154
527,13,0.5,0.0,-35.0,-1,1.0,7.984801000000061
528,13,0.5,0.125,35.0,1,1.0,0.23510099999998602
529,13,0.5,0.25,-35.0,-1,1.0,0.26840100000003986
530,13,0.5,1.0,-35.0,-1,1.0,0.2918010000000777
531,13,0.5,0.25,35.0,1,1.0,0.24520099999995182
532,13,0.5,0.0,-35.0,-1,1.0,5.9385010000000875
533,13,0.5,1.0,35.0,1,1.0,0.26199999999971624
534,13,0.5,0.125,35.0,1,1.0,0.5654010000000653
535,13,0.5,0.125,35.0,1,1.0,0.2354009999999107
536,13,0.5,0.0625,-35.0,-1,1.0,0.6355009999999766
537,13,0.5,1.0,35.0,1,1.0,0.2256009999998696
538,13,0.5,0.0625,-35.0,-1,1.0,0.3358009999999467
539,13,0.5,0.0625,-35.0,-1,1.0,0.35560099999975137
540,13,0.5,0.0625,-35.0,-1,1.0,0.6525010000000293
541,13,0.5,1.0,35.0,1,1.0,0.2859009999999671
542,13,0.5,1.0,-35.0,-1,1.0,0.18950100000006387
543,13,0.5,0.0625,-35.0,-1,1.0,6.932700999999952
544,13,0.5,0.0625,35.0,1,1.0,0.3928009999999631
545,13,0.5,0.0625,35.0,-1,0.0,1.169501000000082
546,13,0.5,0.0,-35.0,-1,1.0,0.229600999999775
547,13,0.5,1.0,35.0,1,1.0,0.50970099999995
548,13,0.5,0.25,35.0,1,1.0,0.4330010000001039
549,13,0.5,0.0,35.0,-1,0.0,0.21640100000013263
550,13,0.5,0.125,35.0,1,1.0,0.25650099999984377
551,13,0.5,0.0625,-35.0,-1,1.0,0.2635009999999056
552,13,0.5,0.0625,-35.0,-1,1.0,1.3599010000000362
553,13,0.5,0.25,35.0,1,1.0,0.2434009999999489
554,13,0.5,1.0,35.0,1,1.0,0.23000100000012935
555,13,0.5,0.125,-35.0,-1,1.0,0.28670100000022103
556,13,0.5,1.0,35.0,1,1.0,0.223500999999942
557,13,0.5,0.0625,-35.0,1,0.0,0.5134009999999307
558,13,0.6,0.0625,35.0,-1,0.0,5.787000999999918
559,13,0.5,1.0,35.0,1,1.0,0.25700099999971826
560,13,0.5,0.25,-35.0,-1,1.0,0.2340009999998074
561,13,0.5,0.0625,35.0,1,1.0,0.3005009999999402
562,13,0.5,1.0,-35.0,-1,1.0,0.22720099999992271
563,13,0.5,0.125,35.0,1,1.0,0.3572009999998045
564,13,0.5,0.125,35.0,1,1.0,0.3074010000000271
565,13,0.5,0.25,-35.0,-1,1.0,0.4274009999996906
566,13,0.5,0.0625,-35.0,-1,1.0,0.5441010000001825
567,13,0.5,0.0625,35.0,1,1.0,0.5809009999998125
568,13,0.5,0.125,35.0,1,1.0,0.29420099999993
569,13,0.5,0.0,-35.0,1,0.0,0.5809009999998125
570,13,0.5,0.125,35.0,1,1.0,0.28100100000006023
571,13,0.5,1.0,-35.0,-1,1.0,0.4044010000000071
572,13,0.5,1.0,35.0,1,1.0,0.6977010000000519
573,13,0.5,1.0,35.0,1,1.0,0.3777010000001155
574,13,0.5,0.0625,-35.0,-1,1.0,22.424500999999964
575,13,0.5,0.25,-35.0,-1,1.0,0.578300999999783
576,13,0.5,0.125,-35.0,-1,1.0,0.2584009999998216
577,13,0.5,0.125,-35.0,-1,1.0,0.37170099999980266
578,13,0.5,1.0,-35.0,-1,1.0,0.24520099999995182
579,13,0.5,0.0625,35.0,1,1.0,0.7586009999999987
580,13,0.5,0.125,35.0,1,1.0,0.332100999999966
581,13,0.5,0.25,-35.0,-1,1.0,0.1587010000000646
582,13,0.5,0.125,35.0,1,1.0,0.4254009999999653
583,13,0.5,0.0625,35.0,1,1.0,0.45210099999985687
584,13,0.5,1.0,-35.0,-1,1.0,0.25230099999998856
585,13,0.5,0.0,-35.0,-1,1.0,0.34550100000001294
586,13,0.5,0.0625,35.0,1,1.0,0.49900099999990744
587,13,0.5,0.25,35.0,1,1.0,0.3057009999999991
588,13,0.5,0.125,35.0,1,1.0,0.4191009999999551
589,13,0.5,0.25,-35.0,-1,1.0,7.185700999999881
590,13,0.5,0.25,35.0,1,1.0,0.3193010000004506
591,13,0.5,1.0,-35.0,-1,1.0,0.2261009999997441
592,13,0.5,0.0625,35.0,-1,0.0,0.19610099999999875
593,13,0.5,0.0625,35.0,-1,0.0,0.2828010000002905
594,13,0.5,0.125,-35.0,-1,1.0,0.18620099999998274
595,13,0.5,0.0625,35.0,1,1.0,0.8162009999996371
596,13,0.5,0.25,35.0,1,1.0,0.23290099999985614
597,13,0.5,1.0,-35.0,-1,1.0,0.2097009999997681
598,13,0.5,0.25,-35.0,-1,1.0,0.28650100000004386
599,13,0.5,0.125,35.0,-1,0.0,0.18640099999993254
600,13,0.5,0.125,35.0,-1,0.0,0.22990100000015445
601,13,0.5,0.25,-35.0,-1,1.0,0.2066010000003189
602,13,0.5,1.0,35.0,1,1.0,0.3568009999999049
603,13,0.5,0.125,-35.0,-1,1.0,0.24000100000012026
604,13,0.5,0.125,35.0,1,1.0,0.3734009999998307
605,13,0.5,1.0,-35.0,-1,1.0,0.25350099999968734
606,13,0.5,1.0,-35.0,-1,1.0,0.47350100000039674
607,13,0.5,1.0,-35.0,-1,1.0,0.3036010000000715
608,13,0.5,0.25,-35.0,-1,1.0,0.16380099999969389
609,13,0.5,1.0,-35.0,-1,1.0,0.1871009999999842
610,13,0.5,0.25,35.0,1,1.0,0.2306010000002061
611,13,0.5,1.0,-35.0,-1,1.0,0.2639009999998052
612,13,0.5,0.25,-35.0,-1,1.0,0.27400100000022576
613,13,0.5,0.125,35.0,1,1.0,0.28730099999984304
614,13,0.5,0.0,-35.0,-1,1.0,10.6974009999999
615,13,0.5,0.0625,-35.0,1,0.0,2.944300999999996
616,13,0.5,0.0,-35.0,-1,1.0,0.35110100000019884
617,13,0.5,0.25,35.0,1,1.0,0.2411010000000715
618,13,0.5,0.0625,35.0,1,1.0,0.48450099999990925
619,13,0.5,0.0,-35.0,-1,1.0,5.841200999999728
620,13,0.5,0.125,35.0,1,1.0,0.3215010000003531
621,13,0.5,0.0625,35.0,-1,0.0,0.1748010000001159
622,13,0.5,0.0625,35.0,1,1.0,0.5949010000003909
623,13,0.5,0.125,-35.0,1,0.0,0.38490100000035454
624,13,0.5,0.0625,35.0,1,1.0,1.0183009999996102
625,13,0.5,0.0625,35.0,1,1.0,0.0884009999999762
626,13,0.5,0.25,-35.0,-1,1.0,0.24510099999997692
627,13,0.5,0.25,35.0,1,1.0,0.1353009999997994
628,13,0.5,0.25,35.0,1,1.0,0.2519009999996342
629,13,0.5,0.0,-35.0,-1,1.0,1.3385010000001785
630,13,0.5,0.125,35.0,1,1.0,0.28530099999989034
631,13,0.5,1.0,35.0,1,1.0,0.4354009999997288
632,13,0.5,0.0625,-35.0,-1,1.0,0.19870099999980084
633,13,0.5,0.25,-35.0,-1,1.0,0.27880099999993035
634,13,0.5,0.125,-35.0,-1,1.0,0.16880099999980303
635,13,0.5,0.125,-35.0,-1,1.0,0.3724010000000817
636,13,0.5,0.0,35.0,1,1.0,0.5990009999995891
637,13,0.5,0.125,35.0,1,1.0,0.22910100000035527
638,13,0.5,0.125,35.0,1,1.0,0.24580100000002858
639,13,0.5,0.0625,35.0,1,1.0,0.2792010000002847
640,13,0.5,0.0625,-35.0,-1,1.0,0.5824010000001181
641,13,0.5,0.25,-35.0,-1,1.0,0.2859009999997397
642,13,0.5,0.0,35.0,-1,0.0,0.2760009999997237
643,13,0.4,0.0,-35.0,-1,1.0,5.58270100000027
644,13,0.5,1.0,-35.0,-1,1.0,0.20960100000002058
645,13,0.5,0.25,35.0,1,1.0,0.102900999999747
646,13,0.5,0.0625,35.0,1,1.0,0.2963009999998576
647,13,0.5,1.0,-35.0,-1,1.0,0.20300100000031307
648,13,0.5,0.0625,-35.0,-1,1.0,0.6230009999999311
649,13,0.5,0.0625,-35.0,-1,1.0,8.233201000000008
650,13,0.5,0.0625,35.0,1,1.0,0.5400010000003022
651,13,0.5,0.25,35.0,1,1.0,0.3234009999996488
652,13,0.5,1.0,-35.0,-1,1.0,0.26020100000005186
653,13,0.5,0.25,-35.0,-1,1.0,0.23350100000016027
654,13,0.5,0.25,-35.0,-1,1.0,0.4202009999994516
655,13,0.5,0.25,35.0,1,1.0,0.21700099999952727
656,13,0.5,0.0625,35.0,1,1.0,0.38380099999994854
657,13,0.5,0.0625,-35.0,-1,1.0,0.6171009999998205
658,13,0.5,0.25,-35.0,-1,1.0,0.33050100000036764
659,13,0.5,0.0,35.0,-1,0.0,0.38080100000024686
660,13,0.5,0.125,-35.0,-1,1.0,0.3208009999998467
661,13,0.5,1.0,35.0,1,1.0,0.25420100000019374
662,13,0.5,0.125,-35.0,-1,1.0,0.26750099999981103
663,13,0.5,0.25,35.0,1,1.0,0.28760099999954036
664,13,0.5,1.0,-35.0,-1,1.0,0.23430099999995946
665,13,0.5,0.125,35.0,1,1.0,0.3010009999993599
666,13,0.5,1.0,35.0,1,1.0,0.3177009999999427
667,13,0.5,0.25,-35.0,-1,1.0,0.30110100000001694
668,13,0.5,0.0,-35.0,-1,1.0,12.364501000000018
669,13,0.5,0.125,-35.0,-1,1.0,0.3016010000001188
670,13,0.5,0.25,35.0,1,1.0,0.23490099999980885
671,13,0.5,0.125,35.0,1,1.0,0.531601000000137
672,13,0.5,0.25,35.0,1,1.0,0.25500099999999293
673,13,0.5,0.0,35.0,-1,0.0,20.995000999999775
674,13,0.5,0.0,35.0,-1,0.0,0.28890099999989616
675,13,0.5,0.0,-35.0,-1,1.0,14.388900999999805
676,13,0.5,1.0,-35.0,-1,1.0,0.1426010000000133
677,13,0.5,0.0625,35.0,1,1.0,2.195900999999594
678,13,0.5,0.25,-35.0,-1,1.0,0.20260099999995873
679,13,0.5,0.125,-35.0,-1,1.0,2.0327009999996335
680,13,0.5,0.0625,35.0,-1,0.0,13.356301000000258
681,13,0.5,0.25,-35.0,-1,1.0,0.5432009999999536
682,13,0.5,0.25,35.0,1,1.0,0.5465010000002621
683,13,0.5,0.25,-35.0,-1,1.0,35.28330099999994
684,13,0.5,1.0,35.0,1,1.0,0.3840010000003531
685,13,0.5,1.0,35.0,1,1.0,0.49080099999991944
686,13,0.5,0.25,-35.0,0,0.0,59.930800999999974
687,13,0.5,0.0,35.0,-1,0.0,0.17310099999940576
688,13,0.5,0.0,35.0,-1,0.0,0.20210100000031161
689,13,0.4,0.0,-35.0,-1,1.0,0.22220100000004095
690,13,0.5,1.0,-35.0,-1,1.0,0.2124010000002272
691,13,0.5,0.25,-35.0,-1,1.0,0.2789010000001326
692,13,0.5,0.0625,35.0,1,1.0,18.525701000000026
693,13,0.5,0.25,35.0,1,1.0,0.4629009999994196
694,13,0.5,0.125,35.0,1,1.0,0.3028009999998176
695,13,0.5,1.0,-35.0,-1,1.0,0.2395010000000184
696,13,0.5,0.125,-35.0,-1,1.0,0.24640100000033271
697,13,0.5,0.0625,35.0,1,1.0,11.399700999999823
698,13,0.5,0.25,-35.0,-1,1.0,0.3165009999997892
699,13,0.5,0.125,-35.0,-1,1.0,14.189900999999736
700,13,0.5,0.0625,-35.0,-1,1.0,0.5069009999997434
701,13,0.5,0.125,-35.0,-1,1.0,0.26030100000025413
702,13,0.5,0.0,35.0,-1,0.0,23.577100999999857
703,13,0.5,0.0625,-35.0,-1,1.0,0.3509009999997943
704,13,0.5,0.25,-35.0,-1,1.0,0.36440100000027087
705,13,0.5,0.125,-35.0,-1,1.0,0.5078009999997448
706,13,0.5,0.125,-35.0,-1,1.0,0.21790099999998347
707,13,0.5,0.0625,35.0,1,1.0,0.3078009999999267
708,13,0.5,1.0,-35.0,-1,1.0,0.23450099999990925
709,13,0.5,0.0,-35.0,-1,1.0,0.4280010000002221
710,13,0.5,0.25,35.0,1,1.0,0.43820099999993545
711,13,0.5,1.0,-35.0,-1,1.0,0.2580009999996946
712,13,0.5,0.0625,-35.0,-1,1.0,0.16130100000009406
713,13,0.5,0.0625,35.0,1,1.0,14.914800999999898
714,13,0.5,0.25,-35.0,-1,1.0,4.895101000000068
715,13,0.5,0.0,-35.0,-1,1.0,11.312100999999984
716,13,0.5,0.0,-35.0,1,0.0,10.202401000000009
717,13,0.4,0.0,35.0,-1,0.0,0.49260099999992235
718,13,0.5,1.0,35.0,1,1.0,0.2393010000000686
719,13,0.5,0.125,-35.0,-1,1.0,8.212700999999925
720,13,0.5,1.0,35.0,1,1.0,0.20620099999996455
721,13,0.5,0.25,-35.0,-1,1.0,10.116301000000021
722,13,0.5,1.0,35.0,1,1.0,0.22990100000015445
723,13,0.5,1.0,35.0,1,1.0,0.2132010000000264
724,13,0.5,0.125,-35.0,-1,1.0,23.693201000000045
725,13,0.5,0.0625,35.0,-1,0.0,12.77710100000013
726,13,0.5,0.0625,35.0,-1,0.0,5.514200999999957
727,13,0.5,0.25,-35.0,-1,1.0,0.35430100000030507
728,13,0.5,0.0625,35.0,-1,0.0,44.53100099999983
729,13,0.5,0.25,-35.0,-1,1.0,0.2053009999999631
730,13,0.5,0.0625,35.0,1,1.0,21.005400999999893
1,14,0.5,1.0,-35.0,-1,1.0,0.3207000000000001
2,14,0.5,0.125,35.0,1,1.0,6.668100000000001
3,14,0.5,0.25,-35.0,-1,1.0,0.3802000000000003
4,14,0.5,0.125,-35.0,-1,1.0,0.3592000000000013
5,14,0.5,0.0625,35.0,-1,0.0,6.953699
6,14,0.5,0.0625,-35.0,-1,1.0,12.3732
7,14,0.5,0.125,35.0,1,1.0,0.31349999999999767
8,14,0.5,0.125,-35.0,-1,1.0,0.3264999999999958
9,14,0.5,0.25,-35.0,-1,1.0,0.48460000000000036
10,14,0.5,0.25,-35.0,-1,1.0,0.2703999999999951
11,14,0.5,0.25,35.0,1,1.0,0.856899999999996
12,14,0.5,1.0,35.0,1,1.0,2.0494000000000057
13,14,0.5,0.25,35.0,1,1.0,0.14709999999999468
14,14,0.5,0.125,35.0,1,1.0,0.34090000000000487
15,14,0.5,0.125,35.0,1,1.0,0.2278999999999911
16,14,0.5,0.0,-35.0,-1,1.0,2.380200000000002
17,14,0.5,0.25,-35.0,-1,1.0,0.28589999999999804
18,14,0.5,1.0,35.0,1,1.0,0.23400000000000887
19,14,0.5,0.0625,35.0,-1,0.0,0.6981000000000108
20,14,0.5,0.25,35.0,1,1.0,0.35200000000000387
21,14,0.5,0.25,-35.0,-1,1.0,0.21280000000000143
22,14,0.5,0.0,-35.0,-1,1.0,0.6299000000000063
23,14,0.5,0.0,-35.0,-1,1.0,0.24200000000000443
24,14,0.5,0.25,35.0,1,1.0,0.23870000000000857
25,14,0.5,0.0625,35.0,1,1.0,0.9891000000000076
26,14,0.5,0.0625,-35.0,-1,1.0,0.35180000000001144
27,14,0.5,0.0625,35.0,1,1.0,0.2903000000000162
28,14,0.5,0.0,35.0,-1,0.0,0.44060000000000343
29,14,0.5,0.125,-35.0,-1,1.0,0.2843000000000018
30,14,0.5,0.125,-35.0,-1,1.0,0.17880000000000962
31,14,0.5,1.0,35.0,1,1.0,0.25159999999999627
32,14,0.5,0.125,-35.0,-1,1.0,0.5252000000000123
33,14,0.5,0.0625,35.0,-1,0.0,0.2359000000000151
34,14,0.4,0.0625,-35.0,-1,1.0,0.39469999999997185
35,14,0.5,1.0,35.0,1,1.0,0.8442000000000007
36,14,0.5,1.0,35.0,1,1.0,1.9847999999999786
37,14,0.5,0.125,35.0,1,1.0,0.5349000000000217
38,14,0.5,1.0,-35.0,-1,1.0,0.68780000000001
39,14,0.5,0.0,-35.0,-1,1.0,9.811399999999992
40,14,0.5,1.0,35.0,1,1.0,0.6133000000000095
41,14,0.5,1.0,35.0,1,1.0,0.33899999999999864
42,14,0.5,1.0,-35.0,-1,1.0,0.8277000000000214
43,14,0.5,0.25,-35.0,-1,1.0,0.8430999999999926
44,14,0.5,0.25,-35.0,-1,1.0,0.4397999999999911
45,14,0.5,0.125,-35.0,-1,1.0,6.961500000000001
46,14,0.5,0.0625,35.0,1,1.0,0.3768000000000029
47,14,0.5,1.0,-35.0,-1,1.0,0.2576999999999998
48,14,0.5,0.125,35.0,1,1.0,0.7985999999999933
49,14,0.5,0.25,-35.0,-1,1.0,0.9984999999999786
50,14,0.5,0.0625,-35.0,1,0.0,0.599599999999981
51,14,0.5,0.0625,-35.0,-1,1.0,6.912000000000006
52,14,0.5,0.125,35.0,1,1.0,0.4998999999999967
53,14,0.5,1.0,-35.0,-1,1.0,0.8697999999999979
54,14,0.5,0.0,-35.0,-1,1.0,3.553399999999982
55,14,0.5,0.25,-35.0,-1,1.0,0.28879999999998063
56,14,0.5,1.0,-35.0,-1,1.0,0.5422999999999831
57,14,0.5,0.0,35.0,1,1.0,2.7013000000000034
58,14,0.5,0.0625,35.0,1,1.0,0.4894999999999925
59,14,0.5,1.0,-35.0,-1,1.0,0.544700000000006
60,14,0.5,0.0,35.0,-1,0.0,9.415099999999995
61,14,0.5,0.125,-35.0,-1,1.0,0.41800000000000637
62,14,0.5,0.0,35.0,-1,0.0,8.71210000000002
63,14,0.5,0.125,35.0,1,1.0,0.2685999999999922
64,14,0.5,0.125,35.0,1,1.0,0.518100000000004
65,14,0.5,0.0625,35.0,1,1.0,0.45100000000002183
66,14,0.5,1.0,35.0,1,1.0,0.3338000000000534
67,14,0.5,1.0,35.0,1,1.0,0.386600000000044
68,14,0.5,0.125,-35.0,-1,1.0,8.1952
69,14,0.5,0.25,-35.0,-1,1.0,0.29410000000001446
70,14,0.5,0.0,35.0,-1,0.0,0.314200000000028
71,14,0.5,0.25,-35.0,-1,1.0,0.2859999999999445
72,14,0.5,0.0625,35.0,-1,0.0,0.1875999999999749
73,14,0.5,0.0,-35.0,-1,1.0,0.35360000000002856
74,14,0.5,0.25,35.0,1,1.0,0.5997999999999593
75,14,0.5,0.0,-35.0,-1,1.0,0.24360000000001492
76,14,0.5,0.0625,-35.0,-1,1.0,0.24349999999998317
77,14,0.5,0.25,-35.0,-1,1.0,0.21500000000003183
78,14,0.5,0.25,-35.0,-1,1.0,0.18959999999998445
79,14,0.5,0.0,35.0,-1,0.0,0.17070000000001073
80,14,0.5,0.25,-35.0,-1,1.0,2.712799999999959
81,14,0.5,0.25,35.0,1,1.0,0.4035999999999831
82,14,0.5,1.0,35.0,1,1.0,1.3625999999999863
83,14,0.5,0.0625,-35.0,-1,1.0,0.5409999999999968
84,14,0.5,0.0625,35.0,-1,0.0,0.5530999999999722
85,14,0.5,0.0625,35.0,-1,0.0,0.12889999999998736
86,14,0.5,0.125,-35.0,-1,1.0,0.16449999999997544
87,14,0.5,0.125,35.0,-1,0.0,3.389500000000055
88,14,0.5,0.0,35.0,-1,0.0,0.2054000000000542
89,14,0.5,0.125,-35.0,-1,1.0,0.1630999999999858
90,14,0.5,0.125,35.0,1,1.0,0.41849999999999454
91,14,0.5,0.125,35.0,-1,0.0,0.17980000000000018
92,14,0.5,0.0625,-35.0,-1,1.0,0.20929999999998472
93,14,0.5,0.125,-35.0,-1,1.0,0.19999999999998863
94,14,0.5,0.25,-35.0,-1,1.0,0.24270000000001346
95,14,0.5,0.0625,35.0,-1,0.0,3.8730999999999653
96,14,0.1,0.0625,35.0,-1,0.0,0.07699999999999818
97,14,0.5,1.0,35.0,1,1.0,0.23169899999999188
98,14,0.5,0.125,35.0,-1,0.0,1.7070999999999685
99,14,0.5,0.25,35.0,1,1.0,0.4011000000000422
100,14,0.5,0.25,35.0,1,1.0,0.6159000000000106
101,14,0.5,0.125,35.0,-1,0.0,1.127299999999991
102,14,0.5,0.125,-35.0,-1,1.0,0.2581000000000131
103,14,0.5,0.0625,35.0,-1,0.0,5.352100000000007
104,14,0.5,0.0625,35.0,1,1.0,0.25380000000001246
105,14,0.5,0.125,35.0,1,1.0,0.8833999999999946
106,14,0.5,0.25,-35.0,-1,1.0,0.21870000000001255
107,14,0.5,0.125,35.0,1,1.0,0.35009999999999764
108,14,0.5,0.0625,35.0,-1,0.0,0.4261999999999375
109,14,0.5,0.25,-35.0,-1,1.0,0.3664999999999736
110,14,0.5,0.0625,-35.0,-1,1.0,4.444500000000005
111,14,0.5,0.25,-35.0,-1,1.0,0.31939999999997326
112,14,0.5,1.0,-35.0,-1,1.0,0.2878000000000611
113,14,0.5,0.0,-35.0,-1,1.0,4.5452000000000226
114,14,0.5,0.0,-35.0,-1,1.0,0.12409999999999854
115,14,0.5,1.0,35.0,1,1.0,0.28940000000000055
116,14,0.5,0.125,35.0,1,1.0,0.21980000000002065
117,14,0.5,0.0625,-35.0,-1,1.0,0.23099999999999454
118,14,0.5,0.0,35.0,-1,0.0,3.3704999999999927
119,14,0.5,0.125,-35.0,-1,1.0,0.35439999999999827
120,14,0.5,0.0625,35.0,-1,0.0,0.6403999999999996
121,14,0.5,0.125,-35.0,-1,1.0,0.3872000000000071
122,14,0.5,0.0625,-35.0,-1,1.0,0.1342999999999961
123,14,0.5,1.0,35.0,1,1.0,0.35060000000004266
124,14,0.5,1.0,35.0,1,1.0,0.4763999999999555
125,14,0.5,1.0,-35.0,-1,1.0,0.07139999999998281
126,14,0.5,1.0,-35.0,-1,1.0,0.24209999999999354
127,14,0.5,0.25,-35.0,-1,1.0,0.28419999999999845
128,14,0.5,0.0625,35.0,1,1.0,1.0039999999999623
129,14,0.5,0.125,-35.0,-1,1.0,0.5036000000000058
130,14,0.5,0.25,35.0,1,1.0,0.5287999999999329
131,14,0.5,1.0,35.0,1,1.0,0.4380999999998494
132,14,0.5,0.25,-35.0,-1,1.0,0.6021999999999252
133,14,0.5,0.125,35.0,1,1.0,0.4612999999999374
134,14,0.5,0.25,35.0,1,1.0,0.4114000000000715
135,14,0.5,0.25,35.0,1,1.0,0.2758999999999787
136,14,0.5,0.0625,-35.0,-1,1.0,0.28559999999993124
137,14,0.5,0.125,-35.0,-1,1.0,6.105399999999918
138,14,0.5,1.0,-35.0,-1,1.0,0.24539999999990414
139,14,0.5,0.125,-35.0,-1,1.0,0.21689999999989595
140,14,0.5,1.0,-35.0,-1,1.0,0.25880000000006476
141,14,0.5,0.25,35.0,1,1.0,0.7951000000000477
142,14,0.5,0.0625,-35.0,-1,1.0,0.622600000000034
143,14,0.5,1.0,35.0,-1,0.0,0.17840000000001055
144,14,0.5,0.0625,35.0,-1,0.0,0.22099999999988995
145,14,0.5,0.0625,-35.0,-1,1.0,5.933799999999792
146,14,0.5,0.125,35.0,1,1.0,0.7952999999999975
147,14,0.5,1.0,35.0,1,1.0,0.11259999999981574
148,14,0.5,0.125,35.0,1,1.0,0.17169999999998709
149,14,0.5,1.0,35.0,1,1.0,0.20000000000004547
150,14,0.5,1.0,-35.0,-1,1.0,0.3226000000000795
151,14,0.5,0.0625,-35.0,-1,1.0,0.754099999999994
152,14,0.5,0.0,35.0,-1,0.0,4.43509999999992
153,14,0.5,0.0,-35.0,-1,1.0,0.7845999999998412
154,14,0.5,0.0,-35.0,-1,1.0,6.210699999999974
155,14,0.5,0.25,-35.0,-1,1.0,0.45639999999991687
156,14,0.5,0.25,35.0,1,1.0,0.7579999999999245
157,14,0.5,0.125,-35.0,-1,1.0,0.23510000000010223
158,14,0.5,0.0,-35.0,-1,1.0,3.0798999999999523
159,14,0.5,0.25,-35.0,-1,1.0,0.32369999999991705
160,14,0.5,0.0625,35.0,-1,0.0,4.957899999999995
161,14,0.5,0.0625,-35.0,-1,1.0,0.5104999999999791
162,14,0.5,0.125,35.0,1,1.0,0.24720000000002074
163,14,0.5,0.25,35.0,1,1.0,0.23050000000000637
164,14,0.5,0.0,-35.0,1,0.0,5.547199999999975
165,14,0.4,0.0,35.0,-1,0.0,0.2939000000000078
166,14,0.5,1.0,35.0,1,1.0,1.6216000000000577
167,14,0.5,1.0,35.0,1,1.0,0.2135999999999285
168,14,0.5,0.0625,-35.0,-1,1.0,0.4573999999998932
169,14,0.5,0.0625,-35.0,1,0.0,2.1225999999999203
170,14,0.6,0.0625,35.0,-1,0.0,0.17079999999987194
171,14,0.5,1.0,35.0,1,1.0,0.23329999999998563
172,14,0.5,0.0625,-35.0,-1,1.0,4.272299999999973
173,14,0.5,1.0,-35.0,-1,1.0,0.23579999999981283
174,14,0.5,0.0625,35.0,-1,0.0,0.25290000000006785
175,14,0.5,0.25,-35.0,-1,1.0,0.19889999999986685
176,14,0.5,1.0,35.0,1,1.0,0.21239999999988868
177,14,0.5,1.0,-35.0,-1,1.0,0.24339999999995143
178,14,0.5,0.0625,35.0,1,1.0,5.736499999999978
179,14,0.5,0.0625,35.0,-1,0.0,3.3553000000000566
180,14,0.5,0.0625,35.0,1,1.0,0.6619009999998298
181,14,0.5,0.0625,35.0,-1,0.0,6.130800999999906
182,14,0.5,0.0625,-35.0,-1,1.0,0.5432009999999536
183,14,0.5,0.0,-35.0,-1,1.0,7.008001000000036
184,14,0.5,0.25,-35.0,-1,1.0,0.20060099999989234
185,14,0.5,0.125,35.0,1,1.0,0.3002010000000155
186,14,0.5,0.0,35.0,-1,0.0,0.10540099999991526
187,14,0.5,0.0,35.0,-1,0.0,0.7469009999999798
188,14,0.5,0.125,35.0,1,1.0,0.546600999999896
189,14,0.5,0.125,35.0,1,1.0,1.0915009999999938
190,14,0.5,0.0625,35.0,1,1.0,0.2737010000000737
191,14,0.5,0.125,-35.0,-1,1.0,0.374800999999934
192,14,0.5,0.125,-35.0,-1,1.0,0.5546009999999342
193,14,0.5,0.25,35.0,1,1.0,0.9839009999999462
194,14,0.5,0.0,35.0,-1,0.0,5.145600999999942
195,14,0.5,0.125,35.0,1,1.0,0.24930099999994582
196,14,0.5,0.0625,-35.0,-1,1.0,0.11790099999996073
197,14,0.5,0.0,35.0,-1,0.0,7.89080100000001
198,14,0.5,0.0,-35.0,-1,1.0,0.652800999999954
199,14,0.5,1.0,-35.0,-1,1.0,0.24090099999989434
200,14,0.5,0.125,35.0,1,1.0,0.2476010000000315
201,14,0.5,0.0625,-35.0,-1,1.0,0.20140100000003258
202,14,0.5,0.0625,-35.0,-1,1.0,0.16860099999985323
203,14,0.5,0.125,-35.0,-1,1.0,0.23630099999991216
204,14,0.5,1.0,-35.0,-1,1.0,0.23240099999998165
205,14,0.5,0.25,-35.0,-1,1.0,0.2661009999998214
206,14,0.5,0.25,35.0,1,1.0,0.958101000000056
207,14,0.5,0.25,-35.0,-1,1.0,0.2978009999999358
208,14,0.5,0.0625,35.0,1,1.0,0.9744009999999435
209,14,0.5,0.125,-35.0,-1,1.0,0.21220099999993636
210,14,0.5,0.0625,-35.0,-1,1.0,0.40760099999999966
211,14,0.5,1.0,-35.0,-1,1.0,0.2436010000000124
212,14,0.5,0.25,-35.0,-1,1.0,0.20880099999988033
213,14,0.5,0.25,-35.0,-1,1.0,0.2314010000000053
214,14,0.5,0.125,-35.0,-1,1.0,0.23720099999991362
215,14,0.5,1.0,-35.0,-1,1.0,0.21870099999989634
216,14,0.5,0.25,-35.0,-1,1.0,0.058500999999978376
217,14,0.5,0.125,-35.0,-1,1.0,0.1846010000000433
218,14,0.5,0.125,35.0,1,1.0,0.8522009999999227
219,14,0.5,0.25,35.0,1,1.0,0.2902009999999109
220,14,0.5,1.0,-35.0,-1,1.0,0.15920099999993909
221,14,0.5,0.125,35.0,1,1.0,0.2318009999999049
222,14,0.5,1.0,35.0,1,1.0,0.4515009999998938
223,14,0.5,0.125,35.0,1,1.0,0.5765009999998938
224,14,0.5,0.125,35.0,1,1.0,0.24880099999995764
225,14,0.5,0.0,35.0,-1,0.0,0.8149009999999635
226,14,0.5,0.0,-35.0,-1,1.0,0.866600999999946
227,14,0.5,0.125,-35.0,1,0.0,0.30130099999996673
228,14,0.5,0.0,-35.0,-1,1.0,0.17750100000000657
229,14,0.5,0.125,-35.0,-1,1.0,0.227600999999936
230,14,0.5,1.0,-35.0,-1,1.0,0.12580099999991035
231,14,0.5,0.125,-35.0,-1,1.0,0.5041009999998778
232,14,0.5,0.25,35.0,1,1.0,0.22430100000008224
233,14,0.5,0.125,35.0,1,1.0,0.4882000000000062
234,14,0.5,0.25,35.0,1,1.0,0.2070009999999911
235,14,0.5,0.125,-35.0,-1,1.0,0.4372009999999591
236,14,0.5,0.25,35.0,1,1.0,0.6969010000000253
237,14,0.5,1.0,-35.0,-1,1.0,0.01910099999997783
238,14,0.5,0.25,-35.0,-1,1.0,0.2015009999998938
239,14,0.5,0.25,35.0,1,1.0,0.2601009999999633
240,14,0.5,0.125,35.0,1,1.0,4.035101000000054
241,14,0.5,0.0625,35.0,1,1.0,0.25220100000001366
242,14,0.5,0.0,35.0,-1,0.0,0.07030099999997219
243,14,0.5,0.0,-35.0,-1,1.0,0.15950099999986378
244,14,0.5,0.25,-35.0,-1,1.0,0.2865009999999302
245,14,0.5,1.0,-35.0,-1,1.0,0.22510099999988142
246,14,0.5,0.0625,35.0,1,1.0,0.2780009999999038
247,14,0.5,0.0625,-35.0,-1,1.0,0.29060099999992417
248,14,0.5,0.25,35.0,1,1.0,0.3943010000000413
249,14,0.5,0.0,35.0,-1,0.0,0.14430099999992763
250,14,0.5,0.125,35.0,1,1.0,0.22670100000004823
251,14,0.5,0.0625,-35.0,-1,1.0,0.28970099999980903
252,14,0.5,0.0,-35.0,-1,1.0,0.16240099999993163
253,14,0.5,0.125,35.0,-1,0.0,0.20420099999989816
254,14,0.3,0.125,35.0,-1,0.0,0.17450099999996382
255,14,0.5,1.0,35.0,-1,0.0,0.13030099999991762
256,14,0.5,0.25,35.0,1,1.0,0.23100099999987833
257,14,0.5,0.25,35.0,1,1.0,0.3281009999999469
258,14,0.5,0.125,-35.0,-1,1.0,0.4952009999999518
259,14,0.5,1.0,-35.0,-1,1.0,0.19630099999994854
260,14,0.5,0.125,-35.0,-1,1.0,0.3449009999999362
261,14,0.5,0.25,-35.0,-1,1.0,0.2135009999999511
262,14,0.5,0.0,35.0,-1,0.0,0.8677009999998972
263,14,0.5,0.0,-35.0,-1,1.0,0.25100099999997383
264,14,0.5,0.0,-35.0,-1,1.0,0.22460100000000693
265,14,0.5,0.0,-35.0,-1,1.0,0.03890099999989616
266,14,0.5,0.25,-35.0,-1,1.0,0.3627009999999018
267,14,0.5,1.0,35.0,-1,0.0,0.17410099999995055
268,14,0.0,1.0,35.0,1,1.0,0.21500099999991562
269,14,0.5,1.0,35.0,-1,0.0,0.15610099999992144
270,14,0.5,0.0625,-35.0,-1,1.0,3.2629010000000562
271,14,0.5,0.125,35.0,1,1.0,0.669900999999868
272,14,0.5,0.125,35.0,-1,0.0,0.13990099999989525
273,14,0.5,0.25,-35.0,-1,1.0,0.2298009999998385
274,14,0.5,1.0,35.0,1,1.0,0.4733009999999922
275,14,0.5,0.0625,35.0,-1,0.0,0.27030100000001767
276,14,0.5,0.25,35.0,1,1.0,0.27010100000006787
277,14,0.5,0.125,-35.0,-1,1.0,0.217000999999982
278,14,0.5,1.0,35.0,-1,0.0,0.0438010000000304
279,14,0.5,0.25,-35.0,-1,1.0,0.21020099999986996
280,14,0.5,0.25,-35.0,-1,1.0,0.31700099999989106
281,14,0.5,0.0625,-35.0,-1,1.0,0.1811009999998987
282,14,0.5,0.0625,35.0,-1,0.0,0.2639009999998052
283,14,0.5,0.25,-35.0,-1,1.0,0.19040099999983795
284,14,0.5,0.125,-35.0,-1,1.0,0.19060099999978775
285,14,0.5,0.125,-35.0,-1,1.0,0.19040100000006532
286,14,0.5,0.0625,-35.0,-1,1.0,0.39430099999981394
287,14,0.5,0.0625,35.0,1,1.0,1.9307009999999991
288,14,0.5,0.0625,-35.0,-1,1.0,0.22080099999971026
289,14,0.5,0.25,-35.0,-1,1.0,0.1242010000000846
290,14,0.5,0.25,35.0,1,1.0,0.27740099999982704
291,14,0.5,0.0625,-35.0,-1,1.0,0.2681009999998878
292,14,0.5,0.0625,35.0,1,1.0,0.35760099999993145
293,14,0.5,0.0,35.0,-1,0.0,0.274400999999898
294,14,0.5,0.125,-35.0,-1,1.0,0.22490100000004531
295,14,0.5,1.0,35.0,1,1.0,0.18210099999987506
296,14,0.5,1.0,-35.0,-1,1.0,0.267900999999938
297,14,0.5,0.0625,35.0,1,1.0,0.2114009999997961
298,14,0.5,0.125,35.0,1,1.0,0.668800999999803
299,14,0.5,0.0,35.0,-1,0.0,5.601300999999694
300,14,0.5,0.125,-35.0,-1,1.0,0.04200100000002749
301,14,0.5,0.125,35.0,1,1.0,0.36180099999978665
302,14,0.5,1.0,-35.0,-1,1.0,0.1353009999997994
303,14,0.5,1.0,-35.0,-1,1.0,0.2558010000000195
304,14,0.5,0.0625,-35.0,-1,1.0,0.61520100000007
305,14,0.5,0.25,-35.0,-1,1.0,8.222301000000016
306,14,0.5,0.125,35.0,1,1.0,0.362201000000141
307,14,0.5,0.125,-35.0,-1,1.0,0.25220100000001366
308,14,0.5,0.125,35.0,1,1.0,0.20940100000007078
309,14,0.5,0.0625,-35.0,-1,1.0,0.16230099999984304
310,14,0.5,1.0,-35.0,-1,1.0,0.26250099999992926
311,14,0.5,0.125,-35.0,-1,1.0,4.492800999999872
312,14,0.5,0.0625,35.0,1,1.0,0.5361009999999169
313,14,0.5,0.25,-35.0,-1,1.0,0.3562009999998281
314,14,0.5,0.0,-35.0,-1,1.0,0.28640100000006896
315,14,0.5,0.125,35.0,1,1.0,0.546301000000085
316,14,0.5,0.25,35.0,1,1.0,1.6366010000001552
317,14,0.5,0.125,-35.0,-1,1.0,0.2564009999998689
318,14,0.5,0.25,-35.0,-1,1.0,0.20640099999991435
319,14,0.5,0.0,-35.0,-1,1.0,0.1469009999998434
320,14,0.5,0.0,35.0,-1,0.0,0.20980099999997037
321,14,0.3,0.0,35.0,-1,0.0,0.21300099999984923
322,14,0.5,1.0,35.0,1,1.0,0.1767010000000937
323,14,0.5,0.125,-35.0,-1,1.0,0.2600009999998747
324,14,0.5,0.0,-35.0,-1,1.0,0.13020099999994272
325,14,0.5,1.0,35.0,1,1.0,0.2535010000001421
326,14,0.5,0.0625,35.0,-1,0.0,0.45020099999987906
327,14,0.2,0.0625,35.0,1,1.0,0.3504009999999198
328,14,0.5,1.0,35.0,1,1.0,0.42350099999998747
329,14,0.5,1.0,-35.0,-1,1.0,0.2171009999999569
330,14,0.5,0.125,35.0,1,1.0,0.6138009999997394
331,14,0.5,0.25,-35.0,-1,1.0,0.2975010000000111
332,14,0.5,0.0625,35.0,-1,0.0,4.034400999999889
333,14,0.5,0.0625,35.0,-1,0.0,0.1706010000000333
334,14,0.5,0.0625,35.0,-1,0.0,0.25430099999994127
335,14,0.5,0.25,-35.0,-1,1.0,0.16760099999987688
336,14,0.5,0.0625,-35.0,-1,1.0,0.17410099999983686
337,14,0.5,0.0625,-35.0,-1,1.0,0.2914010000001781
338,14,0.5,0.125,35.0,1,1.0,0.284300999999914
339,14,0.5,0.125,35.0,-1,0.0,0.15440100000000712
340,14,0.5,0.25,-35.0,-1,1.0,0.2514009999999871
341,14,0.5,0.25,35.0,1,1.0,0.30490099999997256
342,14,0.5,0.125,-35.0,-1,1.0,0.5912010000001828
343,14,0.5,0.25,-35.0,-1,1.0,0.38780100000008133
344,14,0.5,0.0625,35.0,-1,0.0,0.8812009999999191
345,14,0.5,0.0625,-35.0,-1,1.0,2.611500999999862
346,14,0.5,0.125,-35.0,-1,1.0,0.15150100000005295
347,14,0.5,0.125,35.0,1,1.0,0.27800100000013117
348,14,0.5,0.0625,35.0,1,1.0,0.6489010000000235
349,14,0.5,0.125,35.0,1,1.0,0.378601000000117
350,14,0.5,1.0,-35.0,-1,1.0,0.28520099999968807
351,14,0.5,0.125,35.0,1,1.0,0.8021009999997659
352,14,0.5,0.25,-35.0,-1,1.0,0.302400999999918
353,14,0.5,0.125,35.0,1,1.0,0.32460100000002967
354,14,0.5,0.0625,-35.0,-1,1.0,0.6212010000001555
355,14,0.5,0.25,-35.0,-1,1.0,0.3347009999999955
356,14,0.5,0.0625,-35.0,-1,1.0,0.3447009999999864
357,14,0.5,0.125,-35.0,-1,1.0,0.2983009999998103
358,14,0.5,0.0,35.0,-1,0.0,0.2316009999999551
359,14,0.5,0.0625,35.0,-1,0.0,0.24830100000008315
360,14,0.5,0.125,-35.0,-1,1.0,0.42830099999991944
361,14,0.5,0.0625,-35.0,-1,1.0,4.888400999999703
362,14,0.5,1.0,35.0,1,1.0,0.24510099999997692
363,14,0.5,1.0,35.0,-1,0.0,0.07520099999987906
364,14,0.5,0.0625,-35.0,-1,1.0,0.3020010000000184
365,14,0.5,1.0,-35.0,-1,1.0,0.22860100000002603
366,14,0.5,1.0,35.0,1,1.0,0.3121009999999842
367,14,0.5,1.0,-35.0,-1,1.0,0.21880099999998492
368,14,0.5,1.0,35.0,1,1.0,0.5388009999999213
369,14,0.5,1.0,-35.0,-1,1.0,0.3223009999999249
370,14,0.5,1.0,-35.0,-1,1.0,0.189000999999962
371,14,0.5,0.125,-35.0,-1,1.0,0.15570099999990816
372,14,0.5,0.125,35.0,1,1.0,6.802401000000145
373,14,0.5,0.0625,-35.0,-1,1.0,0.27250099999992017
374,14,0.5,0.125,-35.0,-1,1.0,0.14930099999992308
375,14,0.5,0.25,-35.0,-1,1.0,0.4193009999999049
376,14,0.5,1.0,35.0,1,1.0,0.5660009999999147
377,14,0.5,0.25,-35.0,-1,1.0,0.1994009999998525
378,14,0.5,0.125,-35.0,-1,1.0,0.26940099999978884
379,14,0.5,0.125,-35.0,-1,1.0,0.27280099999984486
380,14,0.5,0.125,35.0,1,1.0,0.35300099999994927
381,14,0.5,0.25,-35.0,-1,1.0,0.25640100000009625
382,14,0.5,0.125,-35.0,-1,1.0,0.30640100000005077
383,14,0.5,1.0,35.0,1,1.0,0.2864009999998416
384,14,0.5,0.0,35.0,1,1.0,2.8731010000001334
385,14,0.5,0.0625,35.0,1,1.0,0.6399009999997816
386,14,0.5,0.25,-35.0,-1,1.0,2.0401009999998223
387,14,0.5,1.0,35.0,1,1.0,0.23030100000005405
388,14,0.5,0.125,-35.0,-1,1.0,0.2737009999998463
389,14,0.5,0.0625,-35.0,-1,1.0,0.806800999999723
390,14,0.5,0.25,35.0,1,1.0,0.5403009999999995
391,14,0.5,0.125,-35.0,-1,1.0,0.08690099999989798
392,14,0.5,0.0625,-35.0,-1,1.0,0.4370010000000093
393,14,0.5,1.0,-35.0,-1,1.0,0.4904009999997925
394,14,0.5,0.125,35.0,1,1.0,0.2072009999999409
395,14,0.5,1.0,35.0,1,1.0,0.2374010000000908
396,14,0.5,0.0,-35.0,-1,1.0,0.3707009999998263
397,14,0.5,1.0,-35.0,-1,1.0,0.19080099999996492
398,14,0.5,0.0625,-35.0,-1,1.0,0.19400100000007114
399,14,0.5,1.0,35.0,1,1.0,0.5474009999998088
400,14,0.5,1.0,-35.0,-1,1.0,0.24740099999985432
401,14,0.5,0.0625,35.0,1,1.0,0.2743009999999231
402,14,0.5,0.125,-35.0,-1,1.0,0.29090099999984886
403,14,0.5,0.25,-35.0,-1,1.0,0.2776010000000042
404,14,0.5,1.0,35.0,1,1.0,0.4043010000000322
405,14,0.5,0.125,35.0,1,1.0,0.5843009999998685
406,14,0.5,0.0625,35.0,-1,0.0,0.35110099999997146
407,14,0.5,0.25,-35.0,-1,1.0,0.22440100000017082
408,14,0.5,0.125,35.0,1,1.0,0.28120100000001
409,14,0.5,0.125,-35.0,-1,1.0,0.2879009999999198
410,14,0.5,0.0625,-35.0,-1,1.0,0.5580009999998765
411,14,0.5,0.0,-35.0,-1,1.0,2.438100999999733
412,14,0.5,0.125,35.0,1,1.0,0.6815009999997983
413,14,0.5,1.0,-35.0,-1,1.0,0.28490099999976337
414,14,0.5,0.0,-35.0,1,0.0,6.608201000000008
415,14,0.5,0.25,35.0,-1,0.0,0.15180099999975027
416,14,0.5,0.25,35.0,1,1.0,0.4152010000000246
417,14,0.5,0.125,-35.0,-1,1.0,0.19190099999991617
418,14,0.5,1.0,35.0,1,1.0,0.42530100000021775
419,14,0.5,0.0,-35.0,-1,1.0,0.96870100000001
420,14,0.5,0.0,35.0,-1,0.0,0.1388009999998303
421,14,0.5,0.25,-35.0,-1,1.0,0.18550099999993108
422,14,0.5,0.0625,-35.0,-1,1.0,0.5257010000000264
423,14,0.5,0.25,-35.0,-1,1.0,1.0523010000001705
424,14,0.5,1.0,35.0,1,1.0,0.2825009999999111
425,14,0.5,0.0625,-35.0,-1,1.0,0.27250100000014754
426,14,0.5,0.0625,35.0,1,1.0,0.3358009999999467
427,14,0.5,0.25,-35.0,-1,1.0,0.25260100000014063
428,14,0.5,0.25,-35.0,-1,1.0,0.16270099999997
429,14,0.5,0.0625,35.0,1,1.0,0.5792010000000118
430,14,0.5,0.25,35.0,1,1.0,0.24290099999984704
431,14,0.5,0.125,-35.0,-1,1.0,0.18270099999995182
432,14,0.5,0.125,35.0,1,1.0,0.2663009999998849
433,14,0.5,1.0,35.0,1,1.0,0.37630099999978484
434,14,0.5,1.0,-35.0,-1,1.0,0.16980100000000675
435,14,0.5,0.125,-35.0,-1,1.0,0.0963010000000395
436,14,0.5,0.0625,-35.0,-1,1.0,0.09300100000018574
437,14,0.5,0.0625,-35.0,-1,1.0,0.2598009999999249
438,14,0.5,0.125,-35.0,-1,1.0,0.19970100000000457
439,14,0.5,0.125,-35.0,-1,1.0,0.1932010000000446
440,14,0.5,0.25,-35.0,-1,1.0,0.26000100000010207
441,14,0.5,0.0,35.0,-1,0.0,0.9968010000000049
442,14,0.5,0.25,35.0,1,1.0,0.35340099999984886
443,14,0.5,0.0,-35.0,-1,1.0,0.9302009999998972
444,14,0.5,1.0,35.0,1,1.0,0.2135009999999511
445,14,0.5,0.0,-35.0,-1,1.0,0.27020100000004277
446,14,0.5,0.25,35.0,1,1.0,0.4136009999997441
447,14,0.5,1.0,-35.0,-1,1.0,0.2236009999999169
448,14,0.5,0.0625,35.0,1,1.0,1.1304009999998925
449,14,0.5,0.0625,-35.0,-1,1.0,0.19040100000006532
450,14,0.5,0.0625,-35.0,-1,1.0,0.2438009999998485
451,14,0.5,0.25,35.0,-1,0.0,0.18060099999979684
452,14,0.5,0.125,35.0,1,1.0,0.31730100000004313
453,14,0.5,0.25,35.0,1,1.0,0.2573010000000977
454,14,0.5,0.0625,35.0,1,1.0,0.7442010000002028
455,14,0.5,0.0625,35.0,1,1.0,1.044100999999955
456,14,0.5,0.0625,-35.0,-1,1.0,0.3043009999998958
457,14,0.5,1.0,35.0,1,1.0,0.3077009999999518
458,14,0.5,0.0625,35.0,1,1.0,0.3276010000001861
459,14,0.5,0.125,35.0,1,1.0,0.23770100000001548
460,14,0.5,0.0625,35.0,-1,0.0,0.2677009999997608
461,14,0.7,0.0625,-35.0,-1,1.0,0.5379009999999198
462,14,0.5,1.0,-35.0,-1,1.0,0.19800099999997656
463,14,0.5,1.0,-35.0,-1,1.0,0.24460099999987506
464,14,0.5,0.0,35.0,-1,0.0,0.23470099999985905
465,14,0.5,0.25,-35.0,-1,1.0,0.28480100000001585
466,14,0.5,0.0,-35.0,-1,1.0,3.404901000000109
467,14,0.5,0.0625,35.0,1,1.0,0.5248010000000249
468,14,0.5,0.0,35.0,-1,0.0,0.2250010000000202
469,14,0.5,0.0,35.0,-1,0.0,0.1916009999997641
470,14,0.5,0.25,35.0,1,1.0,0.2952010000001337
471,14,0.5,0.125,35.0,1,1.0,0.5989009999998416
472,14,0.5,0.0625,-35.0,-1,1.0,1.4753009999997175
473,14,0.5,1.0,-35.0,-1,1.0,0.24880099999995764
474,14,0.5,0.0625,-35.0,-1,1.0,1.3021009999999933
475,14,0.5,0.0625,-35.0,1,0.0,1.2388009999999667
476,14,0.4,0.0625,-35.0,-1,1.0,6.042300999999725
477,14,0.5,1.0,-35.0,-1,1.0,0.2157009999998536
478,14,0.5,0.125,-35.0,-1,1.0,0.2858009999999922
479,14,0.5,0.125,-35.0,-1,1.0,0.2591010000001006
480,14,0.5,1.0,-35.0,-1,1.0,0.3059010000001763
481,14,0.5,0.0625,35.0,1,1.0,0.38590099999987615
482,14,0.5,0.0,-35.0,-1,1.0,0.18290099999990161
483,14,0.5,0.25,35.0,1,1.0,0.2127010000001519
484,14,0.5,0.25,-35.0,-1,1.0,0.3962010000000191
485,14,0.5,0.125,35.0,1,1.0,2.1895009999998365
486,14,0.5,0.125,-35.0,-1,1.0,0.2663009999998849
487,14,0.5,1.0,35.0,1,1.0,0.40970100000004095
488,14,0.5,0.0625,-35.0,-1,1.0,0.3363010000000486
489,14,0.5,0.0625,35.0,1,1.0,0.2797009999999318
490,14,0.5,0.25,-35.0,-1,1.0,0.2134009999999762
491,14,0.5,0.0625,-35.0,-1,1.0,0.33320099999991726
492,14,0.5,0.0,35.0,1,1.0,0.3733009999998558
493,14,0.5,0.25,35.0,1,1.0,0.3399010000000544
494,14,0.5,0.0625,-35.0,-1,1.0,0.20990099999994527
495,14,0.5,0.125,-35.0,-1,1.0,5.60670099999993
496,14,0.5,1.0,35.0,1,1.0,0.603601000000026
497,14,0.5,1.0,35.0,1,1.0,0.5836010000000442
498,14,0.5,0.125,-35.0,-1,1.0,0.20030099999985396
499,14,0.5,0.0,-35.0,-1,1.0,0.6204009999999016
500,14,0.5,0.125,-35.0,-1,1.0,0.167100999999775
501,14,0.5,0.25,35.0,1,1.0,0.2905009999997219
502,14,0.5,0.25,35.0,1,1.0,0.4672009999999318
503,14,0.5,0.0625,35.0,1,1.0,0.34080100000005586
504,14,0.5,0.25,35.0,1,1.0,0.427400999999918
505,14,0.5,0.0,-35.0,-1,1.0,6.737400999999863
506,14,0.5,1.0,-35.0,-1,1.0,0.22100099999988743
507,14,0.5,0.25,-35.0,-1,1.0,0.6877009999998336
508,14,0.5,0.0625,35.0,1,1.0,1.1243009999998321
509,14,0.5,0.25,35.0,1,1.0,0.5311010000000351
510,14,0.5,0.125,-35.0,-1,1.0,0.16780100000005405
511,14,0.5,0.0625,-35.0,-1,1.0,0.3046009999998205
512,14,0.5,0.0625,-35.0,-1,1.0,0.13790099999982885
513,14,0.5,0.0625,35.0,-1,0.0,0.23800099999994018
514,14,0.5,0.25,35.0,1,1.0,0.5447009999998045
515,14,0.5,0.25,-35.0,-1,1.0,0.21820099999990816
516,14,0.5,1.0,35.0,1,1.0,0.3381010000000515
517,14,0.5,0.125,35.0,1,1.0,0.4249009999998634
518,14,0.5,0.0625,35.0,1,1.0,0.47820100000012644
519,14,0.5,0.125,-35.0,-1,1.0,0.22490099999981794
520,14,0.5,0.0625,35.0,-1,0.0,6.258200999999872
521,14,0.5,0.25,35.0,1,1.0,0.24170100000014827
522,14,0.5,0.0625,35.0,-1,0.0,0.17200100000013663
523,14,0.5,0.0625,-35.0,-1,1.0,0.28880099999992126
524,14,0.5,1.0,35.0,1,1.0,0.2720009999998183
525,14,0.5,1.0,-35.0,-1,1.0,0.3221010000002025
526,14,0.5,0.0,-35.0,-1,1.0,5.498700999999983
527,14,0.5,0.25,-35.0,-1,1.0,0.18570099999988088
528,14,0.5,1.0,-35.0,-1,1.0,0.3389009999998507
529,14,0.5,0.125,35.0,-1,0.0,3.948900999999978
530,14,0.5,0.25,-35.0,-1,1.0,0.17580099999986487
531,14,0.5,0.25,-35.0,-1,1.0,0.25590100000022176
532,14,0.5,0.0625,35.0,1,1.0,0.4792009999998754
533,14,0.5,0.0,-35.0,-1,1.0,5.946101000000226
534,14,0.5,0.125,35.0,1,1.0,0.2562009999999191
535,14,0.5,0.25,35.0,1,1.0,0.4795010000000275
536,14,0.5,1.0,-35.0,-1,1.0,0.17960100000004786
537,14,0.5,0.0625,-35.0,-1,1.0,1.546301000000085
538,14,0.5,0.0625,-35.0,-1,1.0,5.30960099999993
539,14,0.5,0.125,35.0,1,1.0,1.9265009999999165
540,14,0.5,0.125,35.0,1,1.0,0.9067009999998845
541,14,0.5,0.0,-35.0,-1,1.0,0.843400999999858
542,14,0.5,0.0625,-35.0,-1,1.0,0.16680099999985032
543,14,0.5,0.0625,35.0,1,1.0,0.2902009999997972
544,14,0.5,0.125,35.0,1,1.0,0.3668009999998958
545,14,0.5,0.125,35.0,1,1.0,0.3969010000000708
546,14,0.5,1.0,-35.0,-1,1.0,0.25040100000001075
547,14,0.5,0.125,35.0,1,1.0,0.22690099999977065
548,14,0.5,0.125,-35.0,-1,1.0,0.21380100000010316
549,14,0.5,0.0625,35.0,1,1.0,1.3972009999999955
550,14,0.5,1.0,-35.0,-1,1.0,0.18060099999979684
551,14,0.5,1.0,35.0,1,1.0,0.314000999999962
552,14,0.5,0.0625,-35.0,-1,1.0,1.1439009999999143
553,14,0.5,0.0625,-35.0,1,0.0,1.5573009999998249
554,14,0.6,0.0625,-35.0,-1,1.0,0.2575009999998201
555,14,0.5,1.0,-35.0,-1,1.0,0.14750099999992017
556,14,0.5,1.0,-35.0,-1,1.0,0.20440100000018901
557,14,0.5,0.125,35.0,1,1.0,0.33770099999992453
558,14,0.5,1.0,-35.0,-1,1.0,0.18770099999983358
559,14,0.5,0.125,-35.0,-1,1.0,1.134300999999823
560,14,0.5,0.25,-35.0,-1,1.0,1.4812009999998281
561,14,0.5,1.0,-35.0,-1,1.0,0.14780100000007224
562,14,0.5,1.0,-35.0,-1,1.0,0.22800099999994927
563,14,0.5,0.125,-35.0,-1,1.0,0.24799999999981992
564,14,0.5,0.25,35.0,1,1.0,0.38470099999995
565,14,0.5,0.125,35.0,1,1.0,0.6914010000000417
566,14,0.5,1.0,-35.0,-1,1.0,0.2583009999998467
567,14,0.5,0.0625,35.0,1,1.0,7.858200999999781
568,14,0.5,0.0625,-35.0,-1,1.0,0.2952010000001337
569,14,0.5,0.25,35.0,1,1.0,0.33180099999981394
570,14,0.5,0.0625,-35.0,-1,1.0,0.49210100000004786
571,14,0.5,1.0,-35.0,-1,1.0,0.22520099999997
572,14,0.5,0.0625,35.0,1,1.0,0.40190099999995255
573,14,0.5,0.0,-35.0,-1,1.0,0.9920009999998456
574,14,0.5,0.125,-35.0,-1,1.0,0.19540100000017446
575,14,0.5,0.0,35.0,-1,0.0,0.3289009999998598
576,14,0.3,0.0,-35.0,-1,1.0,0.16560100000015154
577,14,0.5,1.0,-35.0,-1,1.0,0.33560099999999693
578,14,0.5,0.0625,-35.0,-1,1.0,0.7857009999997899
579,14,0.5,1.0,35.0,1,1.0,0.2057009999998627
580,14,0.5,0.125,35.0,1,1.0,0.35910100000000966
581,14,0.5,0.0625,-35.0,-1,1.0,0.6525010000000293
582,14,0.5,0.25,-35.0,-1,1.0,0.21580100000005586
583,14,0.5,0.0,-35.0,1,0.0,0.6591009999999642
584,14,0.5,0.125,-35.0,-1,1.0,0.21590100000003076
585,14,0.5,0.0625,35.0,1,1.0,0.2793010000000322
586,14,0.5,0.125,35.0,1,1.0,0.289400999999998
587,14,0.5,0.0625,35.0,1,1.0,0.28290100000003804
588,14,0.5,0.25,-35.0,-1,1.0,0.24620099999992817
589,14,0.5,0.25,35.0,1,1.0,0.2495010000000093
590,14,0.5,0.0,35.0,-1,0.0,0.12950099999989106
591,14,0.5,0.0625,-35.0,-1,1.0,0.2562009999999191
592,14,0.5,1.0,-35.0,-1,1.0,0.2762009999999009
593,14,0.5,0.0,35.0,-1,0.0,0.37640099999975973
594,14,0.5,0.125,-35.0,-1,1.0,0.21650099999988015
595,14,0.5,0.0,-35.0,-1,1.0,0.3632009999996626
596,14,0.5,0.25,35.0,1,1.0,0.22980099999995218
597,14,0.5,0.0625,35.0,1,1.0,0.6899010000001908
598,14,0.5,0.0,35.0,1,1.0,0.74670100000003
599,14,0.5,0.0625,-35.0,-1,1.0,0.3368009999999231
600,14,0.5,0.0625,35.0,1,1.0,0.29340099999990343
601,14,0.5,0.125,-35.0,-1,1.0,0.1902010000003429
602,14,0.5,1.0,35.0,-1,0.0,0.16350099999999657
603,14,0.5,0.125,35.0,1,1.0,0.45350099999950544
604,14,0.5,0.0625,35.0,-1,0.0,4.6437009999999646
605,14,0.5,0.0625,35.0,1,1.0,0.28380099999958475
606,14,0.5,1.0,35.0,1,1.0,0.47390100000029634
607,14,0.5,1.0,35.0,-1,0.0,0.15740099999993618
608,14,0.5,0.25,35.0,1,1.0,0.25400100000024395
609,14,0.5,0.125,-35.0,-1,1.0,0.914100999999846
610,14,0.5,1.0,35.0,1,1.0,0.2681009999996604
611,14,0.5,0.125,-35.0,-1,1.0,0.3274009999995542
612,14,0.5,1.0,35.0,1,1.0,0.23070100000040838
613,14,0.5,1.0,35.0,1,1.0,0.24420099999952072
614,14,0.5,0.25,35.0,1,1.0,0.14090100000021266
615,14,0.5,0.0,35.0,-1,0.0,14.48430099999996
616,14,0.5,0.25,-35.0,-1,1.0,0.26460099999985687
617,14,0.5,0.0625,-35.0,-1,1.0,0.23130100000025777
618,14,0.5,0.25,-35.0,-1,1.0,0.6414009999998598
619,14,0.5,0.0,-35.0,-1,1.0,1.5881009999998241
620,14,0.5,0.25,35.0,1,1.0,1.0215010000001712
621,14,0.5,0.0,-35.0,-1,1.0,0.32820100000026287
622,14,0.5,0.25,-35.0,-1,1.0,0.1450009999998656
623,14,0.5,0.0,35.0,-1,0.0,0.1483010000001741
624,14,0.5,0.0625,-35.0,-1,1.0,0.19840100000010352
625,14,0.5,0.0,-35.0,-1,1.0,0.28520099999968807
626,14,0.5,1.0,-35.0,-1,1.0,0.191700999999739
627,14,0.5,0.125,35.0,1,1.0,0.3586009999999078
628,14,0.5,1.0,35.0,1,1.0,0.3054010000000744
629,14,0.5,0.0625,-35.0,-1,1.0,0.2653010000003633
630,14,0.5,1.0,-35.0,-1,1.0,0.17540099999996528
631,14,0.5,0.0625,-35.0,-1,1.0,0.21550100000013117
632,14,0.5,0.0625,-35.0,-1,1.0,0.17220099999985905
633,14,0.5,0.0625,35.0,-1,0.0,0.8723009999998794
634,14,0.5,0.25,35.0,1,1.0,0.3658010000003742
635,14,0.5,0.25,-35.0,-1,1.0,0.09910100000024613
636,14,0.5,0.25,35.0,1,1.0,0.3592009999997572
637,14,0.5,0.0,35.0,-1,0.0,2.372500999999829
638,14,0.5,0.0625,35.0,-1,0.0,0.212601000000177
639,14,0.2,0.0625,35.0,-1,0.0,0.12600099999963277
640,14,0.5,1.0,35.0,1,1.0,0.23940100000027087
641,14,0.5,0.0625,35.0,1,1.0,0.5461009999999078
642,14,0.5,0.25,35.0,-1,0.0,0.05960099999992963
643,14,0.4,0.25,35.0,1,1.0,0.3928009999999631
644,14,0.5,1.0,-35.0,-1,1.0,0.22630099999969389
645,14,0.5,0.0625,35.0,-1,0.0,5.36980100000028
646,14,0.5,0.0,-35.0,-1,1.0,0.4265009999994618
647,14,0.5,0.0625,-35.0,-1,1.0,6.169801000000007
648,14,0.5,0.125,35.0,1,1.0,0.25010100000008606
649,14,0.5,0.0625,35.0,1,1.0,0.3002010000000155
650,14,0.5,0.0625,-35.0,-1,1.0,0.1968010000000504
651,14,0.5,0.0625,-35.0,-1,1.0,0.9002009999999245
652,14,0.5,0.125,-35.0,-1,1.0,0.4369010000000344
653,14,0.5,0.25,35.0,1,1.0,0.3337010000000191
654,14,0.5,0.125,-35.0,-1,1.0,0.19700099999954546
655,14,0.5,0.0625,35.0,1,1.0,0.8139009999995324
656,14,0.5,0.0625,-35.0,-1,1.0,0.3005009999997128
657,14,0.5,0.125,-35.0,-1,1.0,0.7038010000001123
658,14,0.5,0.125,-35.0,-1,1.0,0.36720100000002276
659,14,0.5,0.125,35.0,1,1.0,0.41390099999989616
660,14,0.5,0.125,-35.0,-1,1.0,1.0239010000000235
661,14,0.5,0.125,-35.0,-1,1.0,0.29090099999984886
662,14,0.5,0.25,35.0,1,1.0,0.38750100000015664
663,14,0.5,1.0,-35.0,-1,1.0,0.2809009999996306
664,14,0.5,0.0625,-35.0,-1,1.0,0.28430100000014136
665,14,0.5,1.0,-35.0,-1,1.0,0.18770099999983358
666,14,0.5,0.0625,35.0,1,1.0,0.7210009999998874
667,14,0.5,1.0,-35.0,-1,1.0,0.3044009999998707
668,14,0.5,1.0,-35.0,-1,1.0,0.24120100000027378
669,14,0.5,0.125,35.0,1,1.0,0.6445009999997637
670,14,0.5,0.125,-35.0,-1,1.0,0.2714009999999689
671,14,0.5,0.25,-35.0,-1,1.0,0.17470100000036837
672,14,0.5,0.25,-35.0,-1,1.0,0.2880009999998947
673,14,0.5,0.0625,-35.0,-1,1.0,0.17470099999991362
674,14,0.5,0.25,-35.0,-1,1.0,0.23470099999985905
675,14,0.5,1.0,-35.0,-1,1.0,0.19820100000015373
676,14,0.5,0.25,-35.0,-1,1.0,0.22160099999973681
677,14,0.5,0.0,35.0,-1,0.0,0.32500100000015664
678,14,0.1,0.0,35.0,-1,0.0,5.961900999999671
679,14,0.5,1.0,35.0,1,1.0,0.2919010000000526
680,14,0.5,1.0,35.0,1,1.0,0.22870100000000093
681,14,0.5,0.125,-35.0,-1,1.0,0.5820009999997637
682,14,0.5,0.0625,-35.0,-1,1.0,0.5554009999996197
683,14,0.5,0.0625,-35.0,1,0.0,0.3188010000003487
684,14,0.5,0.125,-35.0,-1,1.0,0.20560099999966042
685,14,0.5,1.0,-35.0,-1,1.0,0.19890100000020539
686,14,0.5,0.0625,35.0,-1,0.0,0.19890100000020539
687,14,0.5,0.0625,35.0,-1,0.0,0.2224010000004455
688,14,0.5,0.0,35.0,-1,0.0,0.139100999999755
689,14,0.3,0.0,-35.0,-1,1.0,0.1759009999996124
690,14,0.5,1.0,-35.0,-1,1.0,0.16590099999939412
691,14,0.5,0.25,35.0,1,1.0,0.3960010000000693
692,14,0.5,1.0,-35.0,-1,1.0,0.18600100000003295
693,14,0.5,0.125,-35.0,-1,1.0,0.5495009999995091
694,14,0.5,0.125,-35.0,-1,1.0,0.3394009999997252
695,14,0.5,0.0,35.0,-1,0.0,0.15280099999972663
696,14,0.1,0.0,35.0,-1,0.0,0.13620099999980084
697,14,0.5,1.0,35.0,1,1.0,0.3297010000001137
698,14,0.5,0.25,-35.0,-1,1.0,0.30970099999967715
699,14,0.5,1.0,35.0,1,1.0,0.2997009999999136
700,14,0.5,0.0625,-35.0,-1,1.0,0.25310099999978775
701,14,0.5,0.0625,35.0,1,1.0,0.7732009999999718
702,14,0.5,0.0,35.0,-1,0.0,0.39340100000026723
703,14,0.3,0.0,35.0,-1,0.0,0.18670099999962986
704,14,0.5,1.0,-35.0,-1,1.0,0.15670100000033926
705,14,0.5,0.0,35.0,-1,0.0,0.18680100000028688
706,14,0.5,0.25,-35.0,-1,1.0,0.14020099999970626
707,14,0.5,1.0,35.0,1,1.0,0.4569010000000162
708,14,0.5,0.125,35.0,1,1.0,0.8303009999999631
709,14,0.5,0.0625,-35.0,-1,1.0,0.023801000000275963
710,14,0.5,0.25,-35.0,-1,1.0,0.14380100000016682
711,14,0.5,1.0,35.0,1,1.0,0.7005009999998038
712,14,0.5,0.0625,35.0,-1,0.0,0.1038010000002032
713,14,0.3,0.0625,-35.0,-1,1.0,0.1674009999996997
714,14,0.5,1.0,35.0,1,1.0,0.4006009999998241
715,14,0.5,0.125,-35.0,-1,1.0,0.2842009999999391
716,14,0.5,0.25,-35.0,-1,1.0,0.07740099999955419
717,14,0.5,0.25,-35.0,-1,1.0,0.37740100000019083
718,14,0.5,1.0,-35.0,-1,1.0,0.1643010000002505
719,14,0.5,0.125,35.0,1,1.0,0.36760099999992235
720,14,0.5,0.0625,35.0,1,1.0,0.337601000000177
721,14,0.5,1.0,-35.0,-1,1.0,0.8843010000000504
722,14,0.5,0.25,-35.0,-1,1.0,0.17440099999976155
723,14,0.5,0.25,-35.0,-1,1.0,0.23780100000021775
724,14,0.5,0.125,-35.0,-1,1.0,0.1845010000001821
725,14,0.5,0.125,-35.0,-1,1.0,0.2314010000000053
726,14,0.5,0.125,-35.0,-1,1.0,0.23790099999996528
727,14,0.5,0.25,35.0,1,1.0,0.4213009999998576
728,14,0.5,1.0,35.0,1,1.0,0.22140099999978702
729,14,0.5,0.0,35.0,-1,0.0,0.208100999999715
730,14,0.5,0.0625,-35.0,-1,1.0,0.1816009999997732
731,14,0.5,1.0,-35.0,-1,1.0,0.19170100000019374
732,14,0.5,1.0,-35.0,-1,1.0,0.18840099999988524
733,14,0.5,0.125,35.0,1,1.0,0.16500099999939266
734,14,0.5,0.125,35.0,1,1.0,0.2785009999997783
735,14,0.5,0.125,35.0,1,1.0,0.3618010000004688
736,14,0.5,1.0,35.0,1,1.0,0.25530099999969025
737,14,0.5,0.0625,-35.0,-1,1.0,0.505301000000145
738,14,0.5,0.25,-35.0,1,0.0,4.095401000000038
739,14,0.5,0.125,-35.0,-1,1.0,0.18210099999987506
740,14,0.5,0.0625,-35.0,-1,1.0,16.37880099999984
741,14,0.5,0.125,-35.0,-1,1.0,0.2692010000000664
742,14,0.5,0.0625,-35.0,-1,1.0,0.3359009999999216
743,14,0.5,0.25,-35.0,-1,1.0,0.25270099999988815
744,14,0.5,1.0,-35.0,-1,1.0,0.2928009999995993
745,14,0.5,0.25,-35.0,-1,1.0,0.359400999999707
746,14,0.5,0.0625,-35.0,-1,1.0,5.619500999999673
747,14,0.5,1.0,-35.0,-1,1.0,0.17960100000027523
748,14,0.5,0.0625,35.0,-1,0.0,0.2596010000002025
749,14,0.5,0.0,35.0,-1,0.0,12.006500999999844
750,14,0.0,0.0,35.0,-1,0.0,0.19330100000024686
751,14,0.5,1.0,35.0,1,1.0,0.20690100000047096
752,14,0.5,0.25,-35.0,-1,1.0,0.5435010000001057
753,14,0.5,1.0,35.0,1,1.0,0.3336010000002716
754,14,0.5,0.0,35.0,-1,0.0,0.43370099999992817
755,14,0.5,0.125,35.0,-1,0.0,0.3804009999998925
756,14,0.5,0.0625,35.0,-1,0.0,0.15700100000049133
757,14,0.5,0.0,-35.0,-1,1.0,0.20720100000016828
758,14,0.5,0.125,-35.0,-1,1.0,0.18050099999982194
759,14,0.5,0.0,35.0,-1,0.0,0.19060099999978775
760,14,0.5,0.25,-35.0,-1,1.0,0.17730100000017046
761,14,0.5,0.25,35.0,1,1.0,0.42060099999980594
762,14,0.5,0.0625,-35.0,-1,1.0,5.744001000000026
763,14,0.5,0.125,-35.0,-1,1.0,0.760801000000356
764,14,0.5,0.25,-35.0,-1,1.0,0.27760099999977683
765,14,0.5,0.0,35.0,-1,0.0,0.3644009999998161
766,14,0.5,0.125,35.0,-1,0.0,0.20430099999975937
767,14,0.5,0.0625,35.0,-1,0.0,0.19780100000025413
768,14,0.5,0.25,35.0,1,1.0,0.6544009999997797
769,14,0.5,0.25,35.0,1,1.0,0.3778009999996357
770,14,0.5,0.125,35.0,1,1.0,0.561200999999528
771,14,0.5,0.0625,35.0,1,1.0,1.3213010000004033
772,14,0.5,0.125,35.0,-1,0.0,6.571601000000101
773,14,0.5,0.125,35.0,-1,0.0,0.1549009999998816
774,14,0.5,0.0625,35.0,-1,0.0,0.1549009999998816
775,14,0.5,0.25,35.0,1,1.0,0.42840099999966696
776,14,0.5,0.125,35.0,1,1.0,0.6151009999998678
777,14,0.5,0.0625,-35.0,-1,1.0,0.35840099999950326
778,14,0.5,0.125,35.0,-1,0.0,0.17190099999970698
779,14,0.5,0.25,-35.0,-1,1.0,0.13200099999994563
780,14,0.5,1.0,-35.0,-1,1.0,0.12860100000034436
781,14,0.5,0.0625,-35.0,-1,1.0,0.1853009999999813
782,14,0.5,0.25,-35.0,-1,1.0,0.18190099999992526
783,14,0.5,1.0,35.0,-1,0.0,0.1420010000001639
784,14,0.5,0.25,35.0,1,1.0,0.33550100000002203
785,14,0.5,0.125,-35.0,-1,1.0,0.22230099999978847
786,14,0.5,0.125,35.0,1,1.0,0.5422009999997499
787,14,0.5,1.0,-35.0,-1,1.0,0.28230100000018865
788,14,0.5,0.0,35.0,-1,0.0,9.062401000000136
789,14,0.5,0.0625,35.0,1,1.0,1.632600999999795
790,14,0.5,0.25,35.0,1,1.0,0.26590100000021266
791,14,0.5,0.25,35.0,1,1.0,0.26270100000010643
792,14,0.5,0.125,35.0,1,1.0,0.2894009999995433
793,14,0.5,0.25,35.0,1,1.0,2.1961009999999987
794,14,0.5,0.0625,35.0,1,1.0,0.48290099999985614
795,14,0.5,0.25,-35.0,-1,1.0,0.21630099999993035
796,14,0.5,0.25,-35.0,-1,1.0,0.39310100000011516
797,14,0.5,0.125,35.0,1,1.0,0.6197010000000773
798,14,0.5,0.0625,-35.0,-1,1.0,0.7899010000000999
799,14,0.5,0.125,-35.0,-1,1.0,0.26650100000006205
800,14,0.5,0.25,-35.0,-1,1.0,0.20660099999986414
801,14,0.5,0.25,35.0,1,1.0,0.4466010000001006
802,14,0.5,1.0,35.0,1,1.0,0.4333010000000286
803,14,0.5,0.0625,-35.0,-1,1.0,1.3034010000001217
804,14,0.5,0.25,-35.0,-1,1.0,0.223500999999942
805,14,0.5,0.125,-35.0,-1,1.0,0.4902009999996153
806,14,0.5,0.0625,-35.0,-1,1.0,16.043601000000308
807,14,0.5,0.0625,-35.0,1,0.0,0.24390100000027815
808,14,0.5,0.125,35.0,1,1.0,0.3106009999996786
809,14,0.5,0.0,-35.0,-1,1.0,2.224001000000044
810,14,0.5,0.0625,-35.0,-1,1.0,0.4774010000000999
811,14,0.5,0.25,35.0,1,1.0,0.2342009999997572
812,14,0.5,0.25,-35.0,-1,1.0,0.264100999999755
813,14,0.5,0.25,35.0,1,1.0,0.324301000000105
814,14,0.5,1.0,35.0,1,1.0,0.2710009999996146
815,14,0.5,1.0,-35.0,-1,1.0,24.864400999999816
816,14,0.5,0.0,-35.0,1,0.0,24.25170100000014
817,14,0.5,0.25,-35.0,-1,1.0,0.2589010000001508
818,14,0.5,0.125,35.0,1,1.0,0.3022009999999682
819,14,0.5,0.0625,35.0,-1,0.0,1.7622010000000046
820,14,0.5,0.0625,35.0,1,1.0,1.3524010000000999
821,14,0.5,1.0,35.0,1,1.0,0.2158009999998285
822,14,0.5,0.25,-35.0,-1,1.0,0.3059010000001763
823,14,0.5,0.25,35.0,1,1.0,0.20590099999981248
824,14,0.5,1.0,-35.0,-1,1.0,0.1825010000002294
825,14,0.5,1.0,35.0,1,1.0,0.40260099999977683
826,14,0.5,0.0625,-35.0,-1,1.0,7.459201000000121
827,14,0.5,1.0,-35.0,-1,1.0,0.20620099999996455
828,14,0.5,0.125,35.0,1,1.0,0.28950099999974555
829,14,0.5,0.25,35.0,1,1.0,0.32970099999965896
830,14,0.5,0.0625,-35.0,-1,1.0,0.3629009999999653
831,14,0.5,0.25,35.0,1,1.0,0.2731010000002243
832,14,0.5,0.0625,-35.0,-1,1.0,21.84300099999973
833,14,0.5,1.0,-35.0,-1,1.0,0.19360099999994418
834,14,0.5,0.25,35.0,1,1.0,0.35360099999979866
835,14,0.5,0.0625,-35.0,-1,1.0,10.157000999999582
836,14,0.5,1.0,-35.0,-1,1.0,0.15740099999993618
837,14,0.5,0.125,35.0,1,1.0,0.28060099999993326
838,14,0.5,0.0625,-35.0,-1,1.0,9.96080099999972
839,14,0.5,0.125,-35.0,-1,1.0,0.34760099999994054
840,14,0.5,0.25,35.0,1,1.0,0.5376010000004499
841,14,0.5,0.0,35.0,-1,0.0,2.0944009999998343
842,14,0.5,0.0625,-35.0,-1,1.0,0.19780100000025413
843,14,0.5,0.125,35.0,1,1.0,0.8313010000001668
844,14,0.5,0.0,-35.0,1,0.0,1.7145009999999274
845,14,0.4,0.0,35.0,-1,0.0,0.21460100000012972
846,14,0.5,1.0,-35.0,-1,1.0,0.18150100000002567
847,14,0.5,1.0,35.0,1,1.0,0.3747009999997317
848,14,0.5,0.25,35.0,1,1.0,0.294800999999552
849,14,0.5,0.25,-35.0,-1,1.0,0.20490099999960876
850,14,0.5,0.25,-35.0,-1,1.0,0.18170099999997547
851,14,0.5,0.25,35.0,1,1.0,0.24820100000033563
852,14,0.5,1.0,-35.0,-1,1.0,0.20500099999981103
853,14,0.5,0.0625,-35.0,-1,1.0,0.31500099999993836
854,14,0.5,1.0,-35.0,-1,1.0,0.1750010000000657
855,14,0.5,0.125,-35.0,-1,1.0,0.27170099999966624
856,14,0.5,0.25,-35.0,-1,1.0,0.2518009999998867
857,14,0.5,0.125,35.0,1,1.0,0.5452009999999063
858,14,0.5,0.25,-35.0,-1,1.0,0.2152009999999791
859,14,0.5,0.0625,-35.0,-1,1.0,6.072001
860,14,0.5,0.125,-35.0,-1,1.0,5.582201000000168
861,14,0.5,0.0625,35.0,1,1.0,0.5789010000003145
862,14,0.5,0.25,-35.0,-1,1.0,0.5090009999998983
863,14,0.5,0.0,35.0,-1,0.0,7.4825009999999565
864,14,0.5,0.25,-35.0,-1,1.0,0.23260100000015882
865,14,0.5,0.0,35.0,-1,0.0,0.15940099999988888
866,14,0.5,0.0,35.0,-1,0.0,2.1995010000000548
867,14,0.5,0.0,-35.0,-1,1.0,4.592800999999781
868,14,0.5,0.125,-35.0,-1,1.0,0.39960100000007515
869,14,0.5,0.25,35.0,1,1.0,0.44300099999964004
870,14,0.5,1.0,35.0,1,1.0,0.39980100000002494
871,14,0.5,0.125,35.0,1,1.0,0.30320099999971717
872,14,0.5,0.125,-35.0,-1,1.0,2.9833010000002105
873,14,0.5,0.25,35.0,-1,0.0,0.2066010000003189
874,14,0.5,0.0,-35.0,-1,1.0,0.150101000000177
875,14,0.5,0.0625,-35.0,-1,1.0,8.950000999999702
876,14,0.5,0.25,-35.0,-1,1.0,7.503701000000092
877,14,0.5,0.125,-35.0,-1,1.0,6.357301000000007
878,14,0.5,1.0,-35.0,-1,1.0,0.20060100000000602
879,14,0.5,0.125,-35.0,-1,1.0,0.33080100000006496
880,14,0.5,0.125,-35.0,-1,1.0,0.2674010000000635
881,14,0.5,1.0,35.0,1,1.0,0.4043010000000322
882,14,0.5,0.125,-35.0,-1,1.0,0.170900999999958
883,14,0.5,1.0,35.0,1,1.0,0.4310009999999238
884,14,0.5,0.0625,35.0,1,1.0,0.6677009999998518
885,14,0.5,0.0,-35.0,-1,1.0,3.2244009999999435
886,14,0.5,0.0625,35.0,-1,0.0,0.237800999999763
887,14,0.5,0.0625,-35.0,-1,1.0,8.184501000000182
888,14,0.5,1.0,35.0,1,1.0,0.291501000000153
889,14,0.5,1.0,-35.0,-1,1.0,0.23150099999975282
890,14,0.5,0.125,-35.0,-1,1.0,0.33160099999986414
891,14,0.5,0.25,-35.0,-1,1.0,5.8650009999996655
892,14,0.5,0.125,-35.0,-1,1.0,7.7018010000001595
893,14,0.5,0.0,-35.0,-1,1.0,19.64200099999971
894,14,0.5,0.25,35.0,1,1.0,0.40910100000019156
895,14,0.5,0.25,35.0,1,1.0,0.25590099999953964
896,14,0.5,0.125,35.0,1,1.0,12.739201000000321
897,14,0.5,0.0625,35.0,-1,0.0,0.22290099999963786
898,14,0.5,0.25,35.0,1,1.0,0.426401000000169
899,14,0.5,0.25,35.0,1,1.0,0.36970100000007733
900,14,0.5,0.125,35.0,-1,0.0,21.339701000000332
901,14,0.5,0.0625,-35.0,-1,1.0,0.4503010000003087
902,14,0.5,0.25,35.0,1,1.0,0.5969009999998889
903,14,0.5,1.0,-35.0,-1,1.0,0.17030099999965387
904,14,0.5,0.25,-35.0,-1,1.0,0.4703010000002905
905,14,0.5,0.25,35.0,1,1.0,0.20380100000011225
906,14,0.5,0.25,35.0,1,1.0,0.34050100000013117
907,14,0.5,0.0625,-35.0,-1,1.0,10.110601000000315
908,14,0.5,0.0625,35.0,1,1.0,0.9708009999999376
909,14,0.5,0.0625,35.0,1,1.0,0.4808010000001559
910,14,0.5,0.0625,35.0,1,1.0,0.33750099999997474
911,14,0.5,0.125,35.0,1,1.0,6.194200999999794
912,14,0.5,0.125,35.0,1,1.0,0.8944010000000162
913,14,0.5,0.0625,-35.0,1,0.0,7.1711010000003625
914,14,0.5,0.25,35.0,1,1.0,0.4047009999999318
915,14,0.5,1.0,35.0,1,1.0,0.22470100000009552
916,14,0.5,1.0,35.0,1,1.0,0.208100999999715
917,14,0.5,1.0,35.0,1,1.0,0.24820100000033563
918,14,0.5,0.125,-35.0,-1,1.0,0.364900999999918
919,14,0.5,1.0,-35.0,-1,1.0,0.19840100000010352
920,14,0.5,0.0,35.0,-1,0.0,0.3449009999999362
921,14,0.7,0.0,-35.0,-1,1.0,7.4617010000001756
922,14,0.5,1.0,-35.0,-1,1.0,0.2251009999999951
923,14,0.5,0.125,35.0,1,1.0,0.49850100000003295
924,14,0.5,0.0625,35.0,-1,0.0,8.808701000000383
925,14,0.5,0.25,-35.0,-1,1.0,0.2622010000004593
926,14,0.5,0.25,-35.0,-1,1.0,0.3089010000003327
927,14,0.5,0.125,-35.0,-1,1.0,0.28240099999948143
928,14,0.5,0.25,35.0,1,1.0,0.302400999999918
929,14,0.5,1.0,-35.0,-1,1.0,0.20240100000000893
930,14,0.5,0.0625,-35.0,-1,1.0,0.37250100000028397
931,14,0.5,0.0625,35.0,1,1.0,0.5092009999998481
932,14,0.5,0.125,-35.0,-1,1.0,0.14270100000021557
933,14,0.5,0.0,35.0,-1,0.0,7.162901000000147
934,14,0.2,0.0,35.0,-1,0.0,0.3063010000000759
935,14,0.5,1.0,-35.0,-1,1.0,0.2130010000000766
936,14,0.5,1.0,-35.0,-1,1.0,0.17960100000027523
937,14,0.5,0.25,-35.0,-1,1.0,5.456301000000167
938,14,0.5,0.0625,-35.0,-1,1.0,0.3532010000003538
939,14,0.5,0.0625,35.0,-1,0.0,0.5199010000001181
940,14,0.5,0.25,-35.0,-1,1.0,0.40340100000003076
941,14,0.5,1.0,35.0,1,1.0,0.3500010000002476
942,14,0.5,0.125,-35.0,-1,1.0,0.20670100000006641
943,14,0.5,0.125,-35.0,-1,1.0,20.876700999999684
944,14,0.5,0.0625,-35.0,-1,1.0,0.27050099999996746
945,14,0.5,1.0,35.0,1,1.0,0.3372010000002774
946,14,0.5,0.25,-35.0,-1,1.0,0.30070100000011735
947,14,0.5,0.0625,-35.0,-1,1.0,0.34410099999968224
948,14,0.5,0.25,-35.0,-1,1.0,0.22410100000024613
949,14,0.5,0.125,35.0,-1,0.0,6.710800999999719
950,14,0.5,0.25,35.0,-1,0.0,14.377700999999888
951,14,0.5,0.125,35.0,-1,0.0,0.37470100000018647
952,14,0.1,0.125,35.0,-1,0.0,0.211500999999771
953,14,0.5,1.0,35.0,1,1.0,0.3182010000000446
954,14,0.5,0.25,35.0,1,1.0,0.48490099999980885
955,14,0.5,0.25,35.0,1,1.0,0.2882009999998445
956,14,0.5,0.0625,-35.0,-1,1.0,0.508401000000049
957,14,0.5,0.0,35.0,-1,0.0,5.468401000000085
958,14,0.5,0.0625,-35.0,-1,1.0,0.6252010000002883
959,14,0.5,0.0625,35.0,-1,0.0,13.661900999999943
960,14,0.5,0.0,-35.0,1,0.0,4.002300999999989
961,14,0.4,0.0,35.0,-1,0.0,21.67920099999992
962,14,0.5,1.0,35.0,1,1.0,0.2297009999997499
963,14,0.5,1.0,-35.0,-1,1.0,0.24630100000013044
964,14,0.5,0.0625,-35.0,-1,1.0,13.243001000000277
965,14,0.5,0.25,35.0,-1,0.0,0.9201010000001588
966,14,0.5,0.25,35.0,-1,0.0,5.920101000000159
967,14,0.5,0.125,-35.0,-1,1.0,0.4638009999998758
968,14,0.5,0.0625,-35.0,1,0.0,2.7804009999999835
969,14,0.5,0.125,-35.0,-1,1.0,13.547300999999607
970,14,0.5,1.0,-35.0,-1,1.0,0.1909009999999398
971,14,0.5,0.25,-35.0,-1,1.0,0.23750099999961094
972,14,0.5,0.125,-35.0,1,0.0,8.184300999999778
973,14,0.5,0.125,35.0,1,1.0,15.1978009999998
974,14,0.5,0.25,35.0,1,1.0,0.20480099999986123
975,14,0.5,0.125,35.0,-1,0.0,1.0116010000001552
976,14,0.5,0.25,35.0,1,1.0,13.508600999999544
977,14,0.5,0.0,35.0,1,1.0,2.185501000000386
978,14,0.5,1.0,35.0,-1,0.0,4.835501000000022
1,15,0.5,1.0,-35.0,-1,1.0,0.26969999999999983
2,15,0.5,0.0625,-35.0,-1,1.0,0.5878999999999999
3,15,0.5,0.125,35.0,-1,0.0,2.5385999999999997
4,15,0.5,0.0625,-35.0,-1,1.0,0.20889999999999986
5,15,0.5,1.0,-35.0,-1,1.0,0.23580100000000037
6,15,0.5,0.125,-35.0,-1,1.0,0.6742999999999988
7,15,0.5,0.125,35.0,1,1.0,0.24310099999999935
8,15,0.5,0.0625,-35.0,-1,1.0,4.942401
9,15,0.5,1.0,-35.0,-1,1.0,0.1800009999999972
10,15,0.5,0.0,-35.0,-1,1.0,1.8833009999999994
11,15,0.5,0.0625,-35.0,-1,1.0,0.36880000000000024
12,15,0.5,0.125,35.0,1,1.0,1.0050000000000026
13,15,0.5,0.25,35.0,-1,0.0,0.12160000000000082
14,15,0.5,0.0,35.0,-1,0.0,0.17300000000000182
15,15,0.5,0.25,-35.0,-1,1.0,0.22180000000000177
16,15,0.5,1.0,35.0,1,1.0,0.12099999999999511
17,15,0.5,0.0625,35.0,1,1.0,0.8747000000000043
18,15,0.5,0.25,-35.0,-1,1.0,0.25910000000000366
19,15,0.5,1.0,35.0,1,1.0,0.2751009999999994
20,15,0.5,0.0,-35.0,1,0.0,1.6544000000000096
21,15,0.5,0.25,35.0,1,1.0,0.24330099999998822
22,15,0.5,0.25,-35.0,-1,1.0,0.23709999999998388
23,15,0.5,0.25,-35.0,-1,1.0,0.6654999999999944
24,15,0.5,0.0,-35.0,-1,1.0,3.597300000000004
25,15,0.5,0.125,35.0,1,1.0,0.7518000000000029
26,15,0.5,1.0,-35.0,-1,1.0,0.25329999999998165
27,15,0.5,0.0,35.0,1,1.0,0.5378999999999934
28,15,0.5,0.125,35.0,1,1.0,0.3796999999999855
29,15,0.5,1.0,-35.0,-1,1.0,0.16499999999999204
30,15,0.5,0.0625,35.0,1,1.0,0.29809999999999093
31,15,0.5,0.125,-35.0,-1,1.0,2.098699999999994
32,15,0.5,0.25,35.0,1,1.0,0.48879999999998347
33,15,0.5,0.125,-35.0,-1,1.0,0.5548009999999977
34,15,0.5,1.0,35.0,1,1.0,0.24529999999998608
35,15,0.5,0.0625,-35.0,-1,1.0,0.2751999999999981
36,15,0.5,0.0625,-35.0,-1,1.0,0.285499999999999
37,15,0.5,0.0,35.0,-1,0.0,0.6255999999999915
38,15,0.4,0.0,-35.0,-1,1.0,0.23260000000000502
39,15,0.5,1.0,-35.0,-1,1.0,0.254099999999994
40,15,0.5,1.0,-35.0,-1,1.0,0.6289999999999765
41,15,0.5,0.125,-35.0,-1,1.0,0.3021009999999933
42,15,0.5,0.0625,35.0,1,1.0,0.6263000000000147
43,15,0.5,0.0,-35.0,-1,1.0,4.797500000000014
44,15,0.5,0.125,-35.0,-1,1.0,0.2890000000000157
45,15,0.5,0.25,35.0,1,1.0,0.5230999999999995
46,15,0.5,0.125,35.0,1,1.0,2.9452
47,15,0.5,0.0625,-35.0,-1,1.0,0.30060000000000286
48,15,0.5,1.0,35.0,1,1.0,0.4270999999999958
49,15,0.5,0.0625,-35.0,1,0.0,0.07590000000001851
50,15,0.5,0.125,-35.0,-1,1.0,0.6565999999999974
51,15,0.5,0.0625,-35.0,-1,1.0,0.517799999999994
52,15,0.5,0.0625,-35.0,-1,1.0,0.37170000000000414
53,15,0.5,1.0,-35.0,-1,1.0,0.2475000000000307
54,15,0.5,0.25,35.0,1,1.0,0.27360000000001605
55,15,0.5,0.0625,-35.0,-1,1.0,0.7259000000000242
56,15,0.5,0.0625,35.0,-1,0.0,1.3397999999999968
57,15,0.5,0.125,-35.0,-1,1.0,0.48750000000001137
58,15,0.5,1.0,35.0,1,1.0,0.20800000000002683
59,15,0.5,0.0625,-35.0,-1,1.0,0.24560100000002194
60,15,0.5,0.25,-35.0,-1,1.0,0.36700000000001864
61,15,0.5,0.125,35.0,1,1.0,0.2693000000000154
62,15,0.5,0.0625,35.0,-1,0.0,1.318901000000011
63,15,0.3,0.0625,35.0,-1,0.0,0.4733009999999922
64,15,0.5,1.0,35.0,1,1.0,0.23629999999999995
65,15,0.5,1.0,35.0,1,1.0,0.198599999999999
66,15,0.5,0.0625,-35.0,-1,1.0,0.2786000000000399
67,15,0.5,0.125,-35.0,-1,1.0,0.251700000000028
68,15,0.5,0.0625,35.0,1,1.0,0.23330000000004247
69,15,0.5,0.0,35.0,-1,0.0,0.13210000000000832
70,15,0.4,0.0,-35.0,1,0.0,1.2988009999999974
71,15,0.5,1.0,35.0,1,1.0,0.22410000000002128
72,15,0.5,1.0,-35.0,-1,1.0,0.2102000000000146
73,15,0.5,1.0,35.0,1,1.0,0.20300000000000296
74,15,0.5,0.25,35.0,1,1.0,0.21290100000001644
75,15,0.5,0.0,35.0,1,1.0,0.9716000000000236
76,15,0.5,0.125,35.0,1,1.0,0.25090100000002735
77,15,0.5,0.0,-35.0,1,0.0,2.148699999999991
78,15,0.5,0.0625,-35.0,-1,1.0,0.2178000000000111
79,15,0.5,0.0,35.0,-1,0.0,2.2964000000000055
80,15,0.5,0.0625,-35.0,-1,1.0,0.2145010000000127
81,15,0.5,1.0,35.0,1,1.0,0.21380099999998947
82,15,0.5,1.0,35.0,1,1.0,0.20570100000003322
83,15,0.5,0.25,-35.0,-1,1.0,0.3253010000000245
84,15,0.5,1.0,35.0,1,1.0,0.20420000000001437
85,15,0.5,1.0,35.0,1,1.0,0.5509999999999877
86,15,0.5,0.25,-35.0,-1,1.0,0.25430000000000064
87,15,0.5,1.0,35.0,1,1.0,0.37930100000005496
88,15,0.5,0.0,35.0,-1,0.0,0.30279999999999063
89,15,0.5,0.25,35.0,1,1.0,0.209699999999998
90,15,0.5,0.25,35.0,1,1.0,0.2004000000000019
91,15,0.5,0.0625,35.0,1,1.0,0.2671999999999457
92,15,0.5,0.0625,35.0,-1,0.0,0.3809999999999718
93,15,0.6,0.0625,-35.0,-1,1.0,0.23840000000001282
94,15,0.5,1.0,-35.0,-1,1.0,0.29189999999999827
95,15,0.5,1.0,-35.0,-1,1.0,0.24759999999997717
96,15,0.5,0.0625,-35.0,-1,1.0,0.24259999999998172
97,15,0.5,0.125,35.0,1,1.0,0.26949999999999363
98,15,0.5,0.0625,35.0,1,1.0,0.4633000000000038
99,15,0.5,0.25,-35.0,-1,1.0,0.5535999999999603
100,15,0.5,0.0,35.0,1,1.0,1.1709999999999923
101,15,0.5,1.0,-35.0,-1,1.0,0.22589999999996735
102,15,0.5,0.125,-35.0,-1,1.0,0.3300000000000409
103,15,0.5,0.25,-35.0,-1,1.0,0.4704999999999586
104,15,0.5,0.0,35.0,1,1.0,2.675500999999997
105,15,0.5,0.125,-35.0,-1,1.0,0.35259999999999536
106,15,0.5,0.125,35.0,1,1.0,0.25449999999995043
107,15,0.5,0.25,35.0,1,1.0,0.19629999999995107
108,15,0.5,1.0,35.0,1,1.0,0.19199999999995043
109,15,0.5,0.125,35.0,1,1.0,0.25619999999997844
110,15,0.5,1.0,-35.0,-1,1.0,0.31949999999994816
111,15,0.5,0.25,-35.0,-1,1.0,0.2606999999999857
112,15,0.5,0.125,35.0,1,1.0,0.13779999999997017
113,15,0.5,0.125,35.0,1,1.0,0.2501999999999498
114,15,0.5,0.25,-35.0,-1,1.0,0.24709999999993215
115,15,0.5,0.0625,35.0,1,1.0,0.23830099999997856
116,15,0.5,0.125,-35.0,-1,1.0,0.538599999999974
117,15,0.5,0.25,-35.0,-1,1.0,0.2515999999999394
118,15,0.5,0.125,35.0,1,1.0,0.22010000000000218
119,15,0.5,0.125,35.0,1,1.0,0.2109999999999559
120,15,0.5,0.125,-35.0,-1,1.0,0.21399999999999864
121,15,0.5,0.125,-35.0,-1,1.0,0.5208999999999833
122,15,0.5,0.0,-35.0,-1,1.0,0.4578999999999951
123,15,0.5,1.0,35.0,1,1.0,0.1894999999999527
124,15,0.5,1.0,-35.0,-1,1.0,0.20519999999993388
125,15,0.5,0.0625,35.0,1,1.0,0.13050000000004047
126,15,0.5,0.25,-35.0,1,0.0,0.19849999999996726
127,15,0.5,0.125,-35.0,-1,1.0,0.65949999999998
128,15,0.5,0.25,35.0,1,1.0,0.2677999999999656
129,15,0.5,0.0,-35.0,1,0.0,0.3499999999999659
130,15,0.5,0.125,35.0,1,1.0,0.21240000000000236
131,15,0.5,0.0625,-35.0,-1,1.0,0.6612999999999829
132,15,0.5,0.0625,-35.0,-1,1.0,0.6236000000000104
133,15,0.5,0.125,35.0,1,1.0,0.15060000000005402
134,15,0.5,0.25,-35.0,-1,1.0,0.23280099999999493
135,15,0.5,1.0,-35.0,-1,1.0,0.42389999999994643
136,15,0.5,1.0,-35.0,-1,1.0,0.22699999999997544
137,15,0.5,0.125,35.0,1,1.0,0.4218999999999369
138,15,0.5,0.0,-35.0,1,0.0,0.4296009999999342
139,15,0.5,0.25,35.0,1,1.0,0.1766999999999257
140,15,0.5,0.25,35.0,1,1.0,0.3047009999999659
141,15,0.5,0.25,-35.0,-1,1.0,0.2489999999999668
142,15,0.5,0.0625,-35.0,-1,1.0,0.17559999999997444
143,15,0.5,0.25,35.0,1,1.0,0.37429999999994834
144,15,0.5,0.0625,35.0,1,1.0,0.40280000000001337
145,15,0.5,1.0,-35.0,-1,1.0,0.6046000000000049
146,15,0.5,0.125,-35.0,-1,1.0,0.7225999999999431
147,15,0.5,0.0625,35.0,1,1.0,0.3051999999999566
148,15,0.5,0.0625,-35.0,1,0.0,0.4519999999999982
149,15,0.5,0.25,-35.0,-1,1.0,1.0517999999999574
150,15,0.5,0.0625,35.0,1,1.0,0.5337000000000103
151,15,0.5,0.0625,35.0,1,1.0,0.247099999999989
152,15,0.5,0.125,35.0,1,1.0,0.293899999999951
153,15,0.5,0.25,35.0,1,1.0,0.42089999999996053
154,15,0.5,0.125,35.0,1,1.0,0.3715010000000234
155,15,0.5,1.0,35.0,1,1.0,0.19929999999999382
156,15,0.5,1.0,35.0,1,1.0,0.18410000000000082
157,15,0.5,0.25,35.0,1,1.0,0.2692000000000121
158,15,0.5,0.0,35.0,1,1.0,0.23270000000002256
159,15,0.5,0.25,-35.0,-1,1.0,0.29309999999998126
160,15,0.5,0.0625,-35.0,-1,1.0,0.6311000000000035
161,15,0.5,1.0,-35.0,-1,1.0,0.2279999999999518
162,15,0.5,0.25,-35.0,-1,1.0,0.3307999999999538
163,15,0.5,0.25,-35.0,-1,1.0,0.42400099999997565
164,15,0.5,0.125,35.0,1,1.0,0.4462009999999168
165,15,0.5,0.25,-35.0,-1,1.0,0.2536000000000058
166,15,0.5,1.0,35.0,1,1.0,0.18250000000000455
167,15,0.5,0.125,-35.0,-1,1.0,0.28020099999997683
168,15,0.5,0.125,-35.0,-1,1.0,0.5067999999999984
169,15,0.5,0.0,35.0,1,1.0,0.3935000000000173
170,15,0.5,0.25,-35.0,-1,1.0,0.09299999999996089
171,15,0.5,1.0,-35.0,-1,1.0,0.22580099999998993
172,15,0.5,1.0,-35.0,-1,1.0,0.3002009999999018
173,15,0.5,0.0625,-35.0,-1,1.0,1.1649999999999636
174,15,0.5,1.0,-35.0,-1,1.0,0.26720000000000255
175,15,0.5,1.0,35.0,1,1.0,0.21059999999999945
176,15,0.5,0.25,35.0,1,1.0,0.210901000000149
177,15,0.5,0.125,-35.0,-1,1.0,0.4874000000000933
178,15,0.5,1.0,35.0,1,1.0,0.2296999999999798
179,15,0.5,0.125,35.0,1,1.0,0.3061999999999898
180,15,0.5,0.125,35.0,1,1.0,0.22260100000005423
181,15,0.5,0.25,-35.0,-1,1.0,0.4002010000000382
182,15,0.5,0.0,-35.0,-1,1.0,0.3767010000000255
183,15,0.5,0.0,35.0,-1,0.0,0.46709999999995944
184,15,0.5,0.25,35.0,1,1.0,0.1912000000000944
185,15,0.5,0.0625,35.0,1,1.0,0.2601000000000795
186,15,0.5,0.25,35.0,1,1.0,0.17570000000011987
187,15,0.5,0.0625,35.0,-1,0.0,0.2563000000000102
188,15,0.6,0.0625,-35.0,1,0.0,0.2778000000001839
189,15,0.5,1.0,-35.0,-1,1.0,0.22430000000008476
190,15,0.5,0.25,-35.0,-1,1.0,0.4334010000000035
191,15,0.5,0.0,35.0,1,1.0,0.2238999999999578
192,15,0.5,0.125,35.0,1,1.0,0.2639000000000351
193,15,0.5,0.25,-35.0,-1,1.0,0.47080000000005384
194,15,0.5,0.25,-35.0,-1,1.0,0.2919000000000551
195,15,0.5,0.25,35.0,1,1.0,0.231899999999996
196,15,0.5,0.0,-35.0,1,0.0,0.3145000000000664
197,15,0.5,0.0,-35.0,-1,1.0,1.9864000000000033
198,15,0.5,1.0,-35.0,-1,1.0,0.27760000000000673
199,15,0.5,1.0,35.0,1,1.0,0.1810010000000375
200,15,0.5,0.25,35.0,1,1.0,0.22430000000008476
201,15,0.5,1.0,-35.0,-1,1.0,0.21550100000001748
202,15,0.5,0.25,-35.0,-1,1.0,0.45420000000001437
203,15,0.5,0.125,-35.0,-1,1.0,0.8140000000000782
204,15,0.5,0.25,35.0,1,1.0,0.24240000000008877
205,15,0.5,0.0,-35.0,1,0.0,1.5568999999999278
206,15,0.5,0.125,35.0,1,1.0,0.2420000000000755
207,15,0.5,0.25,35.0,1,1.0,0.2113009999999349
208,15,0.5,1.0,35.0,1,1.0,0.1833000000000311
209,15,0.5,1.0,35.0,1,1.0,0.2195009999999229
210,15,0.5,0.125,-35.0,-1,1.0,0.462099999999964
211,15,0.5,0.0625,35.0,1,1.0,0.2195000000000391
212,15,0.5,0.125,35.0,1,1.0,0.18580000000008567
213,15,0.5,0.0625,-35.0,-1,1.0,0.5177009999999882
214,15,0.5,1.0,-35.0,-1,1.0,0.2696000000000822
215,15,0.5,0.0625,35.0,1,1.0,0.24879999999996016
216,15,0.5,0.0625,-35.0,-1,1.0,0.39059999999994943
217,15,0.5,0.125,-35.0,-1,1.0,0.3088000000000193
218,15,0.5,0.25,35.0,1,1.0,0.2173010000000204
219,15,0.5,0.0625,-35.0,-1,1.0,0.7742000000000644
220,15,0.5,0.125,-35.0,-1,1.0,0.5209009999999807
221,15,0.5,0.0625,-35.0,-1,1.0,0.32700100000010934
222,15,0.5,0.0625,-35.0,-1,1.0,5.52770200000009
223,15,0.5,0.125,35.0,1,1.0,0.39560100000005605
224,15,0.5,0.0625,35.0,1,1.0,0.2493010000000595
225,15,0.5,0.0625,35.0,1,1.0,0.22090200000013738
226,15,0.5,1.0,-35.0,-1,1.0,0.21000099999992017
227,15,0.5,0.125,-35.0,1,0.0,0.18170100000008915
228,15,0.5,0.25,35.0,1,1.0,0.20340200000009645
229,15,0.5,1.0,-35.0,-1,1.0,0.2715010000000575
230,15,0.5,0.25,35.0,1,1.0,0.21980100000007496
231,15,0.5,0.0625,-35.0,-1,1.0,0.3054019999999582
232,15,0.5,1.0,-35.0,-1,1.0,0.2531010000001288
233,15,0.5,0.0,-35.0,-1,1.0,0.71870100000001
234,15,0.5,0.0625,-35.0,1,0.0,0.23450100000002294
235,15,0.5,0.0,35.0,-1,0.0,0.34560099999998783
236,15,0.5,0.0625,-35.0,-1,1.0,0.3418010000001459
237,15,0.5,0.0,-35.0,-1,1.0,0.4104010000000926
238,15,0.5,0.25,35.0,1,1.0,0.23020100000007915
239,15,0.5,0.0,-35.0,-1,1.0,0.6138010000000804
240,15,0.5,0.25,-35.0,-1,1.0,0.2994009999999889
241,15,0.5,0.125,-35.0,-1,1.0,0.38560099999995145
242,15,0.5,1.0,-35.0,-1,1.0,0.38180099999999584
243,15,0.5,0.0,35.0,1,1.0,0.25220100000001366
244,15,0.5,0.125,-35.0,-1,1.0,0.31640100000015536
245,15,0.5,0.0625,35.0,1,1.0,0.36160100000006423
246,15,0.5,0.125,-35.0,-1,1.0,0.2924009999999271
247,15,0.5,0.0625,-35.0,-1,1.0,0.3360010000000102
248,15,0.5,0.25,35.0,1,1.0,0.08280100000013135
249,15,0.5,0.125,-35.0,-1,1.0,0.518901000000028
250,15,0.5,1.0,35.0,1,1.0,0.19200100000011844
251,15,0.5,0.0625,35.0,-1,0.0,0.3371020000000726
252,15,0.5,0.25,-35.0,-1,1.0,0.6030009999999493
253,15,0.5,0.0625,35.0,1,1.0,0.2437009999999873
254,15,0.5,0.0625,-35.0,-1,1.0,0.3580010000000584
255,15,0.5,0.0,-35.0,-1,1.0,0.7284010000000762
256,15,0.5,0.25,35.0,1,1.0,0.2254010000000335
257,15,0.5,0.25,-35.0,-1,1.0,0.25890100000003713
258,15,0.5,0.25,35.0,1,1.0,0.20420100000001185
259,15,0.5,0.0625,-35.0,-1,1.0,0.316101000000117
260,15,0.5,0.125,-35.0,-1,1.0,0.5220010000001594
261,15,0.5,1.0,-35.0,-1,1.0,0.2578010000000859
262,15,0.5,1.0,35.0,1,1.0,0.1769010000000435
263,15,0.5,0.0625,-35.0,-1,1.0,0.4894010000000435
264,15,0.5,0.0625,-35.0,-1,1.0,0.22370100000000548
265,15,0.5,1.0,35.0,1,1.0,0.43380100000001676
266,15,0.5,0.0625,35.0,-1,0.0,3.9737010000000055
267,15,0.5,0.125,-35.0,-1,1.0,0.311600999999996
268,15,0.5,0.0625,35.0,1,1.0,0.20570099999997637
269,15,0.5,0.125,35.0,1,1.0,0.4975010000000566
270,15,0.5,1.0,-35.0,-1,1.0,0.7264010000000098
271,15,0.5,0.125,-35.0,-1,1.0,5.371101000000067
272,15,0.5,1.0,35.0,1,1.0,0.24790100000006987
273,15,0.5,1.0,-35.0,-1,1.0,0.2637009999999691
274,15,0.5,0.125,-35.0,-1,1.0,0.6705010000000584
275,15,0.5,0.125,35.0,1,1.0,0.6440010000000029
276,15,0.5,0.125,-35.0,-1,1.0,0.38090100000010807
277,15,0.5,0.0,-35.0,1,0.0,0.24830099999996946
278,15,0.5,0.0,-35.0,-1,1.0,0.257701000000111
279,15,0.5,1.0,-35.0,-1,1.0,0.5437010000000555
280,15,0.5,1.0,35.0,1,1.0,0.21030100000007224
281,15,0.5,0.125,-35.0,-1,1.0,0.2537010000000919
282,15,0.5,1.0,-35.0,-1,1.0,0.2632019999999784
283,15,0.5,0.0625,35.0,1,1.0,0.3093010000001186
284,15,0.5,0.0,35.0,-1,0.0,0.2599010000000135
285,15,0.5,0.25,35.0,1,1.0,0.20010100000013153
286,15,0.5,0.25,-35.0,-1,1.0,0.2711010000000442
287,15,0.5,0.25,-35.0,-1,1.0,0.2650019999999813
288,15,0.5,0.125,-35.0,-1,1.0,0.2712010000000191
289,15,0.5,1.0,35.0,1,1.0,0.22590100000002167
290,15,0.5,0.0625,35.0,1,1.0,0.7571020000000317
291,15,0.5,0.125,-35.0,-1,1.0,0.3197010000000091
292,15,0.5,0.125,35.0,1,1.0,0.6278009999999767
293,15,0.5,1.0,-35.0,-1,1.0,0.259001000000012
294,15,0.5,0.125,-35.0,-1,1.0,0.5222009999999955
295,15,0.5,1.0,-35.0,-1,1.0,0.4310010000000375
296,15,0.5,0.25,35.0,1,1.0,0.19580099999996037
297,15,0.5,0.25,35.0,1,1.0,0.24850200000003042
298,15,0.5,1.0,-35.0,-1,1.0,0.3401010000000042
299,15,0.5,1.0,-35.0,-1,1.0,0.20820099999991726
300,15,0.5,1.0,-35.0,-1,1.0,0.29520100000002003
301,15,0.5,0.0625,-35.0,-1,1.0,0.6130020000000513
302,15,0.5,0.0625,35.0,1,1.0,0.5029010000000653
303,15,0.5,1.0,-35.0,-1,1.0,0.2189010000000735
304,15,0.5,0.125,-35.0,-1,1.0,0.580101000000127
305,15,0.5,1.0,-35.0,-1,1.0,0.20010100000001785
306,15,0.5,1.0,35.0,1,1.0,0.06700100000011844
307,15,0.5,0.0625,-35.0,-1,1.0,0.4569010000000162
308,15,0.5,1.0,-35.0,-1,1.0,0.2494010000000344
309,15,0.5,0.125,-35.0,-1,1.0,0.3279019999999946
310,15,0.5,0.0625,-35.0,-1,1.0,0.9667020000001685
311,15,0.5,1.0,35.0,1,1.0,1.4882010000000037
312,15,0.5,0.125,35.0,1,1.0,0.11140100000000075
313,15,0.5,1.0,-35.0,-1,1.0,0.24790100000006987
314,15,0.5,0.125,35.0,1,1.0,0.5800010000000384
315,15,0.5,0.25,35.0,1,1.0,0.19440100000008442
316,15,0.5,0.25,35.0,1,1.0,0.21700200000009318
317,15,0.5,1.0,-35.0,-1,1.0,0.17650100000003022
318,15,0.5,0.25,35.0,1,1.0,0.1909010000001672
319,15,0.5,0.0625,-35.0,-1,1.0,0.5225009999999202
320,15,0.5,0.25,-35.0,-1,1.0,0.2712020000000166
321,15,0.5,0.125,35.0,-1,0.0,3.840101000000118
322,15,0.5,0.25,35.0,1,1.0,0.4550010000000384
323,15,0.5,0.125,35.0,1,1.0,0.20970099999999547
324,15,0.5,0.125,-35.0,-1,1.0,0.35670200000004115
325,15,0.5,0.0,35.0,-1,0.0,1.0990010000000439
326,15,0.5,0.25,35.0,1,1.0,0.033802000000150656
327,15,0.5,0.125,-35.0,-1,1.0,0.2676010000000133
328,15,0.5,0.125,35.0,1,1.0,0.34150099999999384
329,15,0.5,0.25,35.0,1,1.0,0.1826010000000906
330,15,0.5,1.0,-35.0,-1,1.0,0.3619020000001001
331,15,0.5,0.125,-35.0,-1,1.0,0.372400999999968
332,15,0.5,0.125,35.0,1,1.0,0.3077009999999518
333,15,0.5,0.25,-35.0,-1,1.0,0.39410099999997783
334,15,0.5,0.125,35.0,1,1.0,0.2313010000000304
335,15,0.5,0.125,-35.0,-1,1.0,0.39760200000000623
336,15,0.5,0.25,35.0,1,1.0,0.4581020000000535
337,15,0.5,0.0,35.0,-1,0.0,0.28100100000006023
338,15,0.5,0.0,-35.0,-1,1.0,4.017900999999938
339,15,0.5,1.0,-35.0,-1,1.0,0.4614010000001372
340,15,0.5,0.25,-35.0,-1,1.0,0.3415019999999913
341,15,0.5,0.0,35.0,-1,0.0,3.244800999999825
342,15,0.5,0.125,-35.0,-1,1.0,0.24490100000002712
343,15,0.5,0.25,35.0,1,1.0,0.28510099999994054
344,15,0.5,0.0,-35.0,-1,1.0,0.2619009999998525
345,15,0.5,0.25,-35.0,-1,1.0,0.3017009999998663
346,15,0.5,0.25,35.0,1,1.0,0.4418009999997139
347,15,0.5,0.125,35.0,1,1.0,0.418800999999803
348,15,0.5,0.125,-35.0,-1,1.0,0.30520199999978104
349,15,0.5,0.125,-35.0,-1,1.0,0.5422009999999773
350,15,0.5,0.125,35.0,1,1.0,0.25890099999969607
