trial_num,session_num,stim_probability_left,contrast,position,response_choice,trial_correct,reaction_time
1,1,0.2,1.0,35.0,1,1.0,0.7578
2,1,0.2,1.0,35.0,1,1.0,1.1316990000000011
3,1,0.2,0.0625,35.0,-1,0.0,14.7908
4,1,0.2,1.0,35.0,1,1.0,0.5042000000000009
5,1,0.2,0.25,35.0,1,1.0,0.5463989999999939
6,1,0.2,0.0625,35.0,1,1.0,4.102800000000002
7,1,0.2,0.25,35.0,1,1.0,0.5219000000000023
8,1,0.2,0.25,35.0,1,1.0,0.27009999999999934
9,1,0.2,1.0,-35.0,-1,1.0,0.28940000000000055
10,1,0.2,0.125,35.0,1,1.0,0.3905990000000017
11,1,0.2,0.25,35.0,-1,0.0,0.6372
12,1,0.2,0.25,35.0,1,1.0,0.34559999999999746
13,1,0.2,0.25,35.0,1,1.0,0.31789900000000415
14,1,0.2,0.125,35.0,-1,0.0,0.2950999999999979
15,1,0.2,0.0625,35.0,-1,0.0,1.931600000000003
16,1,0.2,0.125,35.0,1,1.0,0.29849900000000673
17,1,0.2,0.0625,-35.0,-1,1.0,0.5157990000000012
18,1,0.2,0.125,35.0,1,1.0,0.21799900000000605
19,1,0.2,0.0625,35.0,1,1.0,0.6802990000000051
20,1,0.2,1.0,35.0,1,1.0,0.24799899999999298
21,1,0.2,0.125,35.0,1,1.0,0.6656990000000036
22,1,0.2,1.0,35.0,1,1.0,0.14359999999999218
23,1,0.2,1.0,35.0,1,1.0,0.29159900000000505
24,1,0.2,0.25,35.0,1,1.0,0.25730000000001496
25,1,0.2,0.25,-35.0,-1,1.0,0.4227990000000119
26,1,0.2,0.125,-35.0,-1,1.0,0.3416990000000055
27,1,0.2,1.0,35.0,1,1.0,0.22589999999999577
28,1,0.2,1.0,35.0,1,1.0,0.35299899999999695
29,1,0.2,0.25,-35.0,-1,1.0,0.5165989999999852
30,1,0.2,0.0,35.0,1,1.0,0.1699000000000126
31,1,0.2,0.0625,35.0,-1,0.0,0.8125000000000142
32,1,0.2,0.25,-35.0,-1,1.0,0.40639999999999077
33,1,0.2,0.125,35.0,1,1.0,0.5246000000000066
34,1,0.2,0.125,-35.0,1,0.0,0.3679989999999975
35,1,0.2,1.0,35.0,1,1.0,0.2277000000000129
36,1,0.2,0.125,35.0,-1,0.0,0.18199900000000468
37,1,0.2,0.0,35.0,1,1.0,6.289598999999981
38,1,0.2,0.125,35.0,-1,0.0,3.309598999999963
39,1,0.2,0.0625,-35.0,-1,1.0,3.8153999999999826
40,1,0.2,0.25,-35.0,-1,1.0,0.31789899999998283
41,1,0.2,0.0625,35.0,1,1.0,0.8229999999999791
42,1,0.2,0.0625,35.0,1,1.0,0.3841989999999953
43,1,0.2,0.25,-35.0,-1,1.0,0.32929999999998927
44,1,0.2,0.0625,-35.0,-1,1.0,1.252398999999997
45,1,0.2,0.0,35.0,-1,0.0,2.7018989999999974
46,1,0.2,0.0625,35.0,-1,0.0,0.47509999999999764
47,1,0.2,1.0,35.0,1,1.0,0.28139999999999077
48,1,0.2,0.125,-35.0,-1,1.0,0.2976989999999944
49,1,0.2,0.25,35.0,1,1.0,0.2646000000000015
50,1,0.2,0.125,35.0,1,1.0,0.23159899999998856
51,1,0.2,1.0,35.0,1,1.0,0.3305989999999781
52,1,0.2,0.25,35.0,1,1.0,5.199598999999978
53,1,0.2,0.0625,35.0,-1,0.0,0.8466009999999926
54,1,0.2,1.0,-35.0,-1,1.0,0.4107999999999947
55,1,0.2,0.0,35.0,1,1.0,4.141799999999961
56,1,0.2,0.25,35.0,1,1.0,0.23740000000000805
57,1,0.2,1.0,-35.0,-1,1.0,0.2596010000000035
58,1,0.2,1.0,35.0,1,1.0,0.2669999999999959
59,1,0.2,0.0625,35.0,1,1.0,3.062000999999981
60,1,0.2,1.0,35.0,1,1.0,0.22760099999999284
61,1,0.2,1.0,-35.0,-1,1.0,0.3098009999999931
62,1,0.2,0.25,-35.0,-1,1.0,0.28020099999997683
63,1,0.2,0.125,35.0,1,1.0,0.5762999999999749
64,1,0.2,0.0625,35.0,-1,0.0,0.2886999999999773
65,1,0.2,0.25,35.0,1,1.0,0.3533999999999651
66,1,0.2,1.0,35.0,1,1.0,0.24120099999998956
67,1,0.2,0.125,35.0,1,1.0,0.5989009999999553
68,1,0.2,0.125,35.0,1,1.0,0.242999999999995
69,1,0.2,0.0625,35.0,1,1.0,0.6671999999999514
70,1,0.2,1.0,35.0,1,1.0,0.3323999999999785
71,1,0.2,0.0625,35.0,1,1.0,0.2792999999999779
72,1,0.2,0.0625,-35.0,1,0.0,0.3911000000000229
73,1,0.2,0.0625,35.0,1,1.0,0.575300000000027
74,1,0.2,1.0,35.0,1,1.0,0.22930000000002337
75,1,0.2,0.125,-35.0,-1,1.0,0.5763000000000034
76,1,0.2,0.125,-35.0,-1,1.0,0.633199999999988
77,1,0.2,0.0,-35.0,1,0.0,0.17530099999999038
78,1,0.2,0.25,35.0,1,1.0,0.484299999999962
79,1,0.2,1.0,-35.0,-1,1.0,0.17680100000001175
80,1,0.2,0.125,35.0,1,1.0,0.4345000000000141
81,1,0.2,0.0625,35.0,1,1.0,2.2414999999999736
82,1,0.2,0.125,35.0,1,1.0,0.7061010000000465
83,1,0.2,0.25,35.0,1,1.0,0.33140000000003056
84,1,0.2,0.25,35.0,1,1.0,0.2301010000000474
85,1,0.2,0.125,35.0,1,1.0,2.0722000000000094
86,1,0.2,0.25,35.0,1,1.0,0.36910100000000057
87,1,0.2,0.125,-35.0,-1,1.0,0.544601000000057
88,1,0.2,0.0625,-35.0,-1,1.0,0.8432000000000244
89,1,0.2,0.25,35.0,-1,0.0,0.19589999999999463
90,1,0.2,0.0625,35.0,-1,0.0,2.558899999999994
91,1,0.2,0.25,35.0,1,1.0,0.3225010000000452
92,1,0.2,0.25,35.0,1,1.0,0.23380100000002813
93,1,0.2,0.25,35.0,1,1.0,0.44230100000004313
94,1,0.2,0.0625,35.0,1,1.0,0.21700100000003886
95,1,0.2,0.125,-35.0,-1,1.0,0.408600999999976
96,1,0.2,1.0,35.0,1,1.0,0.25
97,1,0.2,0.125,35.0,1,1.0,3.2537000000000376
98,1,0.8,1.0,35.0,1,1.0,0.2290010000000393
99,1,0.8,0.25,-35.0,-1,1.0,0.311600999999996
100,1,0.8,0.25,-35.0,-1,1.0,0.4802010000000223
101,1,0.8,0.25,-35.0,-1,1.0,0.09320100000002185
102,1,0.8,0.0625,35.0,1,1.0,0.5590010000000802
103,1,0.8,0.0625,-35.0,-1,1.0,0.5174999999999841
104,1,0.8,0.0,-35.0,-1,1.0,0.5154000000000565
105,1,0.8,0.25,35.0,1,1.0,0.48160000000001446
106,1,0.8,1.0,-35.0,-1,1.0,0.2709000000000401
107,1,0.8,0.25,35.0,1,1.0,0.2809010000000285
108,1,0.8,0.25,35.0,1,1.0,2.633200000000045
109,1,0.8,1.0,-35.0,-1,1.0,0.21179999999998245
110,1,0.8,1.0,-35.0,-1,1.0,0.5337999999999852
111,1,0.8,0.0625,-35.0,-1,1.0,0.4212009999999964
112,1,0.8,1.0,-35.0,-1,1.0,0.21050100000002203
113,1,0.8,0.0625,-35.0,1,0.0,0.315400000000011
114,1,0.8,0.0625,-35.0,1,0.0,0.20050100000003113
115,1,0.8,0.25,-35.0,-1,1.0,0.31100100000003295
116,1,0.8,1.0,-35.0,-1,1.0,0.21220100000005004
117,1,0.8,1.0,-35.0,-1,1.0,0.21550000000002
118,1,0.8,1.0,35.0,1,1.0,0.255600999999956
119,1,0.8,0.25,35.0,1,1.0,0.28129999999998745
120,1,0.8,1.0,35.0,1,1.0,0.2441000000000031
121,1,0.8,0.0625,-35.0,-1,1.0,2.1733010000000377
122,1,0.8,0.0625,-35.0,1,0.0,0.23970100000002503
123,1,0.8,0.0,35.0,-1,0.0,2.0939010000000167
124,1,0.8,0.125,35.0,1,1.0,0.2954009999999698
125,1,0.8,1.0,35.0,1,1.0,0.18340100000000348
126,1,0.8,0.0625,-35.0,-1,1.0,0.17180100000007315
127,1,0.8,0.25,-35.0,-1,1.0,0.27320100000002867
128,1,0.8,0.125,-35.0,-1,1.0,0.3353000000000179
129,1,0.8,0.0,35.0,-1,0.0,2.416800999999964
130,1,0.8,1.0,-35.0,-1,1.0,0.5283000000000015
131,1,0.8,0.125,35.0,1,1.0,0.8355000000000246
132,1,0.8,1.0,-35.0,-1,1.0,0.22000099999996792
133,1,0.8,1.0,-35.0,-1,1.0,0.5063000000000102
134,1,0.8,0.125,-35.0,-1,1.0,0.47289999999998145
135,1,0.8,0.0625,-35.0,-1,1.0,2.840000000000032
136,1,0.8,0.25,-35.0,-1,1.0,0.2665010000000052
137,1,0.8,0.25,-35.0,-1,1.0,0.29860000000002174
138,1,0.8,0.0625,-35.0,-1,1.0,0.09380099999998492
139,1,0.8,1.0,-35.0,-1,1.0,0.4099010000000476
140,1,0.8,0.0625,-35.0,-1,1.0,3.0781000000000063
141,1,0.8,0.125,-35.0,-1,1.0,0.2670010000000502
142,1,0.8,1.0,-35.0,-1,1.0,0.451300999999944
143,1,0.8,0.0625,-35.0,-1,1.0,0.22629999999998063
144,1,0.8,0.0625,-35.0,-1,1.0,0.3351000000000113
145,1,0.8,0.0625,-35.0,1,0.0,3.8884009999999876
146,1,0.8,0.125,-35.0,1,0.0,0.2900009999999611
147,1,0.8,0.0,-35.0,1,0.0,0.7436999999998761
148,1,0.8,1.0,-35.0,1,0.0,1.0088000000000648
149,1,0.8,0.0,-35.0,1,0.0,19.396199999999908
150,1,0.8,1.0,35.0,1,1.0,0.3001010000000406
151,1,0.8,0.125,-35.0,-1,1.0,9.426000999999928
152,1,0.8,0.25,-35.0,-1,1.0,0.5479000000000269
153,1,0.8,1.0,-35.0,-1,1.0,0.347801000000004
154,1,0.8,1.0,-35.0,-1,1.0,0.13890100000003258
155,1,0.8,0.125,35.0,1,1.0,0.2962009999999964
156,1,0.8,0.25,35.0,1,1.0,0.29320099999995364
157,1,0.8,0.125,-35.0,-1,1.0,0.39590099999998074
158,1,0.8,0.25,-35.0,-1,1.0,0.43020100000001094
159,1,0.8,0.0625,-35.0,-1,1.0,0.3029999999998836
160,1,0.8,1.0,35.0,1,1.0,0.26720099999988633
161,1,0.8,0.125,35.0,1,1.0,0.39840000000003783
162,1,0.8,1.0,35.0,1,1.0,0.47699999999997544
163,1,0.8,0.0,-35.0,1,0.0,4.814800999999989
164,1,0.8,0.125,-35.0,-1,1.0,0.5764010000000326
165,1,0.8,0.0,-35.0,-1,1.0,0.6178999999999633
166,1,0.8,0.0625,-35.0,-1,1.0,0.17380000000002838
167,1,0.8,0.25,-35.0,-1,1.0,0.30900099999996655
168,1,0.8,0.25,-35.0,-1,1.0,0.2775010000000293
169,1,0.8,0.0625,35.0,1,1.0,0.5077999999999747
170,1,0.8,1.0,-35.0,-1,1.0,0.42449999999985266
171,1,0.8,0.0625,-35.0,1,0.0,6.74490000000003
172,1,0.8,0.125,-35.0,-1,1.0,0.2741009999999733
173,1,0.8,0.0,-35.0,-1,1.0,0.8849999999998772
174,1,0.8,0.125,-35.0,-1,1.0,0.28070100000002185
175,1,0.8,0.125,-35.0,-1,1.0,0.6179999999999382
176,1,0.8,1.0,35.0,1,1.0,0.6064009999998916
177,1,0.8,1.0,35.0,1,1.0,0.27440100000001166
178,1,0.8,0.125,35.0,1,1.0,0.39459999999996853
179,1,0.8,0.125,-35.0,-1,1.0,0.24210100000004786
180,1,0.8,0.0625,-35.0,-1,1.0,2.6902999999999793
181,1,0.8,0.25,-35.0,-1,1.0,0.36360100000001694
182,1,0.8,0.25,35.0,1,1.0,0.28330000000005384
183,1,0.8,0.125,-35.0,-1,1.0,0.16270099999997
184,1,0.8,0.25,-35.0,-1,1.0,0.29850099999998747
185,1,0.8,0.25,-35.0,-1,1.0,0.3039999999999736
186,1,0.8,0.125,-35.0,-1,1.0,0.37259999999992033
187,1,0.8,0.0625,-35.0,1,0.0,0.205600000000004
188,1,0.8,1.0,-35.0,-1,1.0,0.6390999999998712
189,1,0.8,0.0625,-35.0,-1,1.0,0.457300000000032
190,1,0.8,1.0,-35.0,-1,1.0,0.3610009999998738
191,1,0.8,0.125,-35.0,-1,1.0,0.33310100000005605
192,1,0.8,0.0625,-35.0,-1,1.0,0.24640099999987797
193,1,0.8,0.0625,-35.0,-1,1.0,0.3004009999999653
194,1,0.8,1.0,-35.0,-1,1.0,0.20000099999992926
195,1,0.2,0.25,35.0,1,1.0,0.7339999999999236
196,1,0.2,0.25,35.0,-1,0.0,0.4710010000000011
197,1,0.2,0.0625,35.0,-1,0.0,0.3742009999999709
198,1,0.2,0.0625,35.0,1,1.0,0.23050100000000384
199,1,0.2,0.125,-35.0,-1,1.0,0.5582999999999174
200,1,0.2,1.0,35.0,1,1.0,0.23370099999999638
201,1,0.2,1.0,35.0,1,1.0,0.2802010000000337
202,1,0.2,1.0,35.0,1,1.0,0.11369999999999436
203,1,0.2,0.125,35.0,-1,0.0,4.708100999999942
204,1,0.2,0.0625,-35.0,-1,1.0,0.4590009999999438
205,1,0.2,0.0,35.0,1,1.0,0.46620000000007167
206,1,0.2,0.125,35.0,-1,0.0,3.1070009999999684
207,1,0.2,0.25,35.0,1,1.0,0.36969999999996617
208,1,0.2,1.0,35.0,1,1.0,0.2633010000000695
209,1,0.2,0.0625,35.0,1,1.0,0.41830099999992854
210,1,0.2,1.0,35.0,1,1.0,0.22860099999991235
211,1,0.2,1.0,35.0,1,1.0,0.32080099999996037
212,1,0.2,1.0,-35.0,-1,1.0,0.29290099999991526
213,1,0.2,0.25,35.0,1,1.0,0.25090099999988524
214,1,0.2,0.0625,35.0,1,1.0,0.34320099999990816
215,1,0.2,0.25,35.0,1,1.0,0.4426009999999678
216,1,0.2,0.0625,-35.0,-1,1.0,0.480000999999902
217,1,0.2,0.125,35.0,1,1.0,0.29339999999990596
218,1,0.2,0.25,35.0,1,1.0,3.6494010000000117
219,1,0.2,0.0625,35.0,-1,0.0,0.37429999999994834
220,1,0.2,0.0625,35.0,1,1.0,2.4504010000000562
221,1,0.2,0.25,35.0,1,1.0,0.25440100000002985
222,1,0.2,0.125,35.0,1,1.0,0.33809999999994034
223,1,0.2,0.125,35.0,1,1.0,0.2618999999999687
224,1,0.2,0.125,35.0,1,1.0,0.26709999999991396
225,1,0.2,0.25,-35.0,-1,1.0,0.22680000000002565
226,1,0.2,0.125,35.0,1,1.0,2.8369010000000117
227,1,0.2,0.0625,35.0,1,1.0,0.2734009999999216
228,1,0.2,0.125,35.0,1,1.0,0.23500000000001364
229,1,0.2,0.0625,-35.0,1,0.0,2.1154000000000224
230,1,0.2,0.0625,35.0,-1,0.0,0.7886010000000852
231,1,0.2,0.25,35.0,1,1.0,0.3889009999999189
232,1,0.2,0.0625,35.0,1,1.0,0.2740000000000009
233,1,0.2,0.125,35.0,1,1.0,0.21630100000004404
234,1,0.2,0.25,35.0,1,1.0,0.3205000000000382
235,1,0.2,1.0,-35.0,-1,1.0,0.3347009999999955
236,1,0.2,0.125,-35.0,-1,1.0,0.3100009999999429
237,1,0.2,0.25,35.0,1,1.0,0.22369999999989432
238,1,0.2,0.0,35.0,-1,0.0,0.5284010000000308
239,1,0.8,0.125,-35.0,1,0.0,3.5917009999999436
240,1,0.8,0.25,-35.0,-1,1.0,0.5296009999999569
241,1,0.8,0.125,35.0,-1,0.0,0.5893000000000939
242,1,0.8,0.25,-35.0,-1,1.0,0.3625999999999294
243,1,0.8,0.0625,-35.0,-1,1.0,0.39419999999995525
244,1,0.8,1.0,-35.0,-1,1.0,0.20250100000009752
245,1,0.8,0.0625,35.0,1,1.0,0.32650000000001
246,1,0.8,0.0625,-35.0,1,0.0,3.929399999999873
247,1,0.8,0.0,-35.0,-1,1.0,1.320899999999824
248,1,0.8,0.0625,-35.0,-1,1.0,0.3593999999999369
249,1,0.8,0.25,35.0,-1,0.0,3.3470009999999775
250,1,0.8,0.0625,-35.0,-1,1.0,0.33389999999997144
251,1,0.8,0.0,35.0,1,1.0,0.18659999999999854
252,1,0.8,0.0,-35.0,-1,1.0,6.553900999999996
253,1,0.8,0.125,-35.0,-1,1.0,0.49519999999995434
254,1,0.8,0.25,-35.0,-1,1.0,0.4960999999999558
255,1,0.8,0.25,-35.0,-1,1.0,0.8751999999999498
256,1,0.8,0.125,-35.0,-1,1.0,0.5300009999999702
257,1,0.8,1.0,-35.0,-1,1.0,0.3247999999998683
258,1,0.8,1.0,-35.0,-1,1.0,0.2536010000000033
259,1,0.8,0.25,-35.0,-1,1.0,5.122199999999907
260,1,0.8,1.0,-35.0,-1,1.0,0.24889999999993506
261,1,0.8,0.125,-35.0,-1,1.0,0.21070099999985814
262,1,0.8,0.25,-35.0,-1,1.0,0.2638999999999214
263,1,0.8,0.125,35.0,1,1.0,0.2821010000000115
264,1,0.8,1.0,-35.0,-1,1.0,0.6019000000000005
265,1,0.8,0.25,-35.0,-1,1.0,0.30480099999999766
266,1,0.8,0.25,-35.0,-1,1.0,0.37580000000002656
267,1,0.8,0.25,35.0,1,1.0,0.5333009999998239
268,1,0.8,0.0,-35.0,-1,1.0,3.17229999999995
269,1,0.8,0.125,-35.0,-1,1.0,0.5520009999999047
270,1,0.8,0.125,-35.0,-1,1.0,0.4918999999999869
271,1,0.8,0.125,-35.0,-1,1.0,0.5491009999999505
272,1,0.8,1.0,-35.0,-1,1.0,0.3923009999999749
273,1,0.8,0.25,-35.0,-1,1.0,0.5025009999999384
274,1,0.8,1.0,35.0,1,1.0,0.22880099999986214
275,1,0.8,0.0625,-35.0,-1,1.0,0.37560099999984686
276,1,0.8,0.25,-35.0,-1,1.0,0.3662000000001626
277,1,0.8,0.0625,35.0,-1,0.0,0.2725000000000364
278,1,0.8,0.125,-35.0,1,0.0,0.7096010000000206
279,1,0.8,0.25,-35.0,-1,1.0,0.4057999999999993
280,1,0.8,0.125,-35.0,-1,1.0,0.2594000000001415
281,1,0.8,1.0,-35.0,-1,1.0,0.2792010000000573
282,1,0.8,0.25,35.0,1,1.0,0.292699999999968
283,1,0.8,0.125,-35.0,-1,1.0,0.5532009999999445
284,1,0.8,0.0625,35.0,1,1.0,0.8797010000000682
285,1,0.8,0.0,-35.0,1,0.0,0.303300000000263
286,1,0.8,0.0625,-35.0,-1,1.0,0.5534999999999854
287,1,0.8,1.0,-35.0,-1,1.0,0.23990000000026157
288,1,0.2,0.0625,35.0,1,1.0,0.6602010000001428
289,1,0.2,0.25,35.0,-1,0.0,4.7000000000000455
290,1,0.2,1.0,35.0,1,1.0,0.3305000000002565
291,1,0.2,0.25,35.0,1,1.0,0.5638000000001284
292,1,0.2,1.0,35.0,1,1.0,0.24710099999992963
293,1,0.2,1.0,35.0,1,1.0,0.2375010000000657
294,1,0.2,1.0,35.0,1,1.0,0.30140000000005784
295,1,0.2,0.0625,35.0,1,1.0,0.3408000000001721
296,1,0.2,1.0,35.0,1,1.0,0.30450100000007296
297,1,0.2,0.0625,35.0,1,1.0,2.2942000000002736
298,1,0.2,0.25,-35.0,-1,1.0,0.528201000000081
299,1,0.2,1.0,35.0,1,1.0,5.504500000000007
300,1,0.2,0.0625,35.0,1,1.0,3.56470000000013
301,1,0.2,0.125,-35.0,-1,1.0,4.318199999999933
302,1,0.2,0.25,35.0,-1,0.0,1.2823000000000775
303,1,0.2,0.0625,35.0,-1,0.0,2.1654000000000906
304,1,0.2,0.0,-35.0,-1,1.0,0.8494009999999435
305,1,0.2,0.25,-35.0,-1,1.0,0.25880099999994854
306,1,0.2,1.0,-35.0,-1,1.0,0.22220000000015716
307,1,0.2,0.0625,-35.0,-1,1.0,3.6789010000002236
308,1,0.2,1.0,-35.0,-1,1.0,0.24570100000005368
309,1,0.2,1.0,35.0,1,1.0,0.40599999999994907
310,1,0.2,0.0625,35.0,1,1.0,4.246300000000019
311,1,0.2,0.0,35.0,-1,0.0,0.5798009999998612
312,1,0.2,0.0625,-35.0,1,0.0,3.9434009999999944
313,1,0.2,0.0625,-35.0,1,0.0,0.29749900000001617
314,1,0.2,0.0625,35.0,1,1.0,1.1768010000000686
315,1,0.2,1.0,35.0,1,1.0,5.163401000000022
316,1,0.2,0.25,35.0,1,1.0,0.30050100000016755
317,1,0.2,1.0,35.0,1,1.0,0.2537010000000919
318,1,0.2,0.0,35.0,-1,0.0,0.5505000000000564
319,1,0.2,0.0625,35.0,1,1.0,4.010400000000118
320,1,0.2,1.0,35.0,1,1.0,0.23079999999981737
321,1,0.2,0.125,35.0,1,1.0,0.5576010000002043
322,1,0.2,0.125,35.0,1,1.0,0.7510010000000875
323,1,0.2,0.0625,35.0,1,1.0,3.4683010000001104
324,1,0.2,0.0,-35.0,1,0.0,0.3747000000000753
325,1,0.2,1.0,35.0,1,1.0,0.2581000000000131
326,1,0.2,0.0625,35.0,1,1.0,1.0051010000001952
327,1,0.2,0.25,35.0,1,1.0,0.12229999999999563
328,1,0.2,1.0,35.0,1,1.0,0.23510099999975864
329,1,0.2,0.0625,35.0,1,1.0,0.3248000000000957
330,1,0.2,0.0625,-35.0,1,0.0,4.011700000000246
331,1,0.2,0.0625,35.0,1,1.0,0.4855000000000018
332,1,0.2,0.125,35.0,1,1.0,0.23200099999985468
333,1,0.2,0.125,35.0,-1,0.0,0.49890000000004875
334,1,0.2,0.0625,-35.0,1,0.0,2.886099999999942
335,1,0.2,1.0,35.0,1,1.0,0.5995000000000346
336,1,0.2,0.0625,35.0,-1,0.0,0.3159000000002834
337,1,0.2,0.0625,35.0,1,1.0,0.5294010000000071
338,1,0.2,1.0,35.0,1,1.0,0.3160010000001421
339,1,0.2,1.0,35.0,1,1.0,0.16620100000000093
340,1,0.2,0.25,35.0,1,1.0,0.21940100000006169
341,1,0.2,0.25,35.0,1,1.0,1.4996010000002116
342,1,0.2,0.0625,35.0,1,1.0,4.21360000000027
343,1,0.2,0.125,35.0,-1,0.0,0.6902999999999793
344,1,0.2,0.0625,35.0,1,1.0,1.2000000000000455
345,1,0.2,0.0,35.0,-1,0.0,3.09030000000007
346,1,0.8,0.25,-35.0,-1,1.0,0.38400000000001455
347,1,0.8,1.0,-35.0,-1,1.0,0.22370000000023538
348,1,0.8,0.125,-35.0,-1,1.0,0.3976999999999862
349,1,0.8,0.0,-35.0,-1,1.0,0.34090100000003076
350,1,0.8,0.25,-35.0,-1,1.0,0.10060100000009697
351,1,0.8,0.0625,-35.0,1,0.0,0.12790099999983795
352,1,0.8,0.125,-35.0,-1,1.0,0.41399999999998727
353,1,0.8,1.0,-35.0,-1,1.0,0.2749010000002272
354,1,0.8,0.25,-35.0,-1,1.0,0.48800100000016755
355,1,0.8,0.125,35.0,1,1.0,4.031300000000101
356,1,0.8,0.25,-35.0,-1,1.0,0.25870000000008986
357,1,0.8,0.0625,-35.0,-1,1.0,4.004699999999957
358,1,0.8,0.0625,-35.0,1,0.0,1.0183000000001812
359,1,0.8,0.0,-35.0,-1,1.0,0.7086010000000442
360,1,0.8,0.125,-35.0,1,0.0,0.434800000000223
361,1,0.8,0.125,-35.0,-1,1.0,2.0684000000001106
362,1,0.8,1.0,-35.0,-1,1.0,0.2157009999998536
363,1,0.8,1.0,-35.0,1,0.0,0.07190000000014152
364,1,0.8,0.25,-35.0,-1,1.0,0.5092999999999392
365,1,0.8,0.25,-35.0,-1,1.0,0.2730010000002494
366,1,0.8,0.0625,-35.0,-1,1.0,2.8532000000002427
367,1,0.8,0.0625,-35.0,-1,1.0,0.3196010000001479
368,1,0.8,0.0,-35.0,1,0.0,0.26260000000024775
369,1,0.8,1.0,35.0,1,1.0,0.33940099999995255
370,1,0.8,0.0625,-35.0,-1,1.0,0.8794000000000324
371,1,0.8,0.0625,-35.0,-1,1.0,3.9194000000002234
372,1,0.8,0.125,35.0,1,1.0,0.37990000000013424
373,1,0.8,1.0,-35.0,-1,1.0,0.269800000000032
374,1,0.8,0.0,35.0,-1,0.0,0.45980100000019775
375,1,0.8,0.0625,35.0,-1,0.0,0.41000099999996564
376,1,0.8,1.0,-35.0,-1,1.0,0.31670100000019374
377,1,0.8,0.0625,-35.0,-1,1.0,0.32060000000024047
378,1,0.8,1.0,-35.0,-1,1.0,0.22040100000003804
379,1,0.8,0.25,-35.0,-1,1.0,0.2135000000000673
380,1,0.8,0.0625,-35.0,-1,1.0,4.420500000000175
381,1,0.8,1.0,-35.0,-1,1.0,0.2672000000002299
382,1,0.8,0.0625,-35.0,-1,1.0,5.9042000000001735
383,1,0.8,0.0625,-35.0,1,0.0,0.2977000000000771
384,1,0.8,0.125,-35.0,-1,1.0,0.2980000000000018
385,1,0.8,0.0625,-35.0,1,0.0,7.034300999999914
386,1,0.8,0.125,35.0,1,1.0,0.2712010000000191
387,1,0.8,1.0,-35.0,-1,1.0,0.3145009999998365
388,1,0.8,0.25,-35.0,-1,1.0,0.6212010000001555
389,1,0.8,0.25,-35.0,1,0.0,0.2113000000001648
390,1,0.8,0.25,35.0,1,1.0,0.778501000000233
391,1,0.8,0.125,-35.0,-1,1.0,0.46170100000017555
392,1,0.8,0.125,-35.0,-1,1.0,0.3584010000001854
393,1,0.8,0.125,-35.0,-1,1.0,0.30520000000001346
394,1,0.8,0.125,35.0,-1,0.0,4.995499999999993
395,1,0.8,1.0,-35.0,-1,1.0,0.24890000000027612
396,1,0.8,0.25,-35.0,-1,1.0,0.3189009999998689
397,1,0.8,0.0625,-35.0,-1,1.0,1.5190009999998892
398,1,0.8,1.0,-35.0,-1,1.0,0.23279999999999745
399,1,0.8,1.0,-35.0,-1,1.0,0.20980000000008658
400,1,0.8,0.25,-35.0,-1,1.0,0.3459000000002561
401,1,0.8,0.25,-35.0,-1,1.0,0.4231010000000879
402,1,0.8,0.25,-35.0,-1,1.0,0.29970000000002983
403,1,0.2,1.0,35.0,1,1.0,0.3760010000000875
404,1,0.2,0.125,35.0,1,1.0,4.299800000000005
405,1,0.2,1.0,-35.0,-1,1.0,0.24660000000017135
406,1,0.2,0.25,35.0,-1,0.0,3.0666000000001077
407,1,0.2,0.0625,35.0,1,1.0,0.40340100000003076
408,1,0.2,0.0,35.0,1,1.0,3.056701000000203
409,1,0.2,1.0,-35.0,-1,1.0,0.276801000000205
410,1,0.2,0.125,35.0,1,1.0,0.43780100000026323
411,1,0.2,0.125,35.0,-1,0.0,3.7637999999999465
412,1,0.2,0.25,35.0,1,1.0,0.3746000000001004
413,1,0.2,1.0,35.0,1,1.0,0.16390099999989616
414,1,0.2,0.0,35.0,1,1.0,3.667400999999927
415,1,0.2,0.25,35.0,1,1.0,0.23820000000000618
416,1,0.2,0.0,35.0,-1,0.0,1.0410999999999149
417,1,0.2,0.25,35.0,1,1.0,0.38140100000009625
418,1,0.2,0.25,35.0,1,1.0,0.27800100000013117
419,1,0.2,0.25,35.0,1,1.0,0.2512010000000373
420,1,0.2,0.125,35.0,1,1.0,3.205500000000029
421,1,0.2,1.0,35.0,1,1.0,0.22530000000006112
422,1,0.2,0.125,35.0,1,1.0,2.9660000000003492
423,1,0.2,0.125,35.0,1,1.0,0.28240100000016355
424,1,0.2,0.125,-35.0,1,0.0,3.458599999999933
425,1,0.2,0.0625,35.0,1,1.0,0.34900100000004386
426,1,0.2,1.0,35.0,1,1.0,0.25230000000033215
427,1,0.2,0.25,35.0,1,1.0,2.618800000000192
428,1,0.2,0.125,35.0,1,1.0,0.13590000000021973
429,1,0.2,1.0,35.0,1,1.0,0.2193010000000868
430,1,0.2,0.25,35.0,1,1.0,0.24920000000020082
431,1,0.2,0.0625,35.0,1,1.0,0.2700009999998656
432,1,0.2,0.25,35.0,1,1.0,4.109699999999975
433,1,0.2,0.0625,35.0,1,1.0,0.656400000000076
434,1,0.2,0.25,35.0,1,1.0,0.5204999999998563
435,1,0.2,0.125,35.0,1,1.0,0.37010000000009313
436,1,0.2,0.25,35.0,1,1.0,0.6499010000002272
437,1,0.2,1.0,35.0,1,1.0,1.380000999999993
438,1,0.2,1.0,35.0,1,1.0,4.863499999999931
439,1,0.2,0.0625,35.0,1,1.0,3.74369999999999
440,1,0.2,1.0,35.0,1,1.0,0.28770099999997
441,1,0.2,0.0625,35.0,1,1.0,0.23730000000000473
442,1,0.2,1.0,35.0,1,1.0,0.4949010000002545
443,1,0.2,0.0,35.0,1,1.0,0.26769999999987704
444,1,0.2,0.0625,35.0,1,1.0,3.67790100000002
445,1,0.2,0.0625,35.0,1,1.0,0.3750009999998838
446,1,0.2,0.0,35.0,1,1.0,0.2716010000001461
447,1,0.2,1.0,35.0,1,1.0,0.20090099999993072
448,1,0.2,0.125,35.0,1,1.0,3.2319000000002234
449,1,0.2,0.0625,35.0,1,1.0,6.231501000000208
450,1,0.2,1.0,35.0,1,1.0,2.881800999999996
451,1,0.2,1.0,-35.0,-1,1.0,0.5617000000002008
452,1,0.2,1.0,-35.0,-1,1.0,0.25240100000019083
453,1,0.2,0.25,35.0,-1,0.0,3.9620000000002165
454,1,0.2,0.0625,35.0,-1,0.0,0.6089010000000599
455,1,0.2,0.0,35.0,1,1.0,0.2656010000000606
456,1,0.2,0.0,35.0,1,1.0,0.14570000000003347
457,1,0.2,0.125,35.0,1,1.0,13.723100000000159
458,1,0.2,0.25,35.0,1,1.0,3.499900000000025
459,1,0.2,0.125,35.0,1,1.0,2.99040100000002
460,1,0.2,1.0,-35.0,-1,1.0,0.27380100000027596
461,1,0.2,0.0625,35.0,-1,0.0,3.1770010000002458
462,1,0.2,0.0625,35.0,1,1.0,0.27420100000017555
463,1,0.2,0.125,35.0,1,1.0,0.3176010000001952
464,1,0.2,1.0,-35.0,-1,1.0,0.2644000000000233
465,1,0.2,0.0625,35.0,1,1.0,3.277900999999929
466,1,0.2,1.0,-35.0,-1,1.0,0.5506010000001424
467,1,0.2,0.125,35.0,1,1.0,3.104400000000169
468,1,0.2,0.0625,35.0,1,1.0,0.854200000000219
469,1,0.2,0.25,35.0,1,1.0,6.9814000000001215
470,1,0.2,1.0,35.0,1,1.0,0.3813999999999851
471,1,0.2,1.0,35.0,1,1.0,5.248401000000058
472,1,0.2,0.25,35.0,1,1.0,5.491901000000098
473,1,0.2,0.125,35.0,1,1.0,5.7920010000000275
474,1,0.2,0.25,35.0,1,1.0,4.156001000000288
475,1,0.2,0.25,-35.0,1,0.0,0.4858000000001539
476,1,0.2,0.125,35.0,1,1.0,3.059401000000207
477,1,0.2,1.0,35.0,1,1.0,0.19260099999996783
478,1,0.2,0.0,35.0,1,1.0,1.6762009999999918
479,1,0.2,0.0625,35.0,1,1.0,5.976499999999987
480,1,0.2,0.0625,35.0,1,1.0,4.6195009999999
481,1,0.2,1.0,-35.0,-1,1.0,0.2697010000001683
482,1,0.2,1.0,35.0,1,1.0,0.5568010000001777
483,1,0.2,0.0625,35.0,1,1.0,6.007000000000062
1,2,0.2,0.25,35.0,1,1.0,0.30069999999999997
2,2,0.2,1.0,35.0,1,1.0,0.2513000000000001
3,2,0.2,0.0625,-35.0,1,0.0,11.112299999999998
4,2,0.2,0.25,35.0,1,1.0,4.088900000000002
5,2,0.2,0.125,-35.0,-1,1.0,17.4601
6,2,0.2,0.0,35.0,-1,0.0,8.733899999999998
7,2,0.2,1.0,35.0,1,1.0,0.4303999999999988
8,2,0.2,0.25,35.0,1,1.0,4.340300000000006
9,2,0.2,0.125,35.0,1,1.0,3.1732000000000085
10,2,0.2,0.25,35.0,1,1.0,0.3894999999999982
11,2,0.2,0.25,35.0,1,1.0,0.03470000000001505
12,2,0.2,0.25,35.0,-1,0.0,0.7158000000000015
13,2,0.2,0.25,-35.0,-1,1.0,0.3783999999999992
14,2,0.2,0.25,35.0,1,1.0,0.5442000000000036
15,2,0.2,0.25,-35.0,-1,1.0,0.27360000000000184
16,2,0.2,0.0625,35.0,-1,0.0,0.39390000000000214
17,2,0.2,0.25,35.0,1,1.0,0.5709000000000088
18,2,0.2,1.0,35.0,1,1.0,0.4136000000000024
19,2,0.2,0.125,35.0,1,1.0,2.088400000000007
20,2,0.2,0.0625,-35.0,1,0.0,3.484100000000012
21,2,0.2,0.0625,35.0,1,1.0,4.9753000000000185
22,2,0.2,0.125,-35.0,-1,1.0,0.3903000000000105
23,2,0.2,0.25,35.0,1,1.0,0.2571000000000083
24,2,0.2,0.0,35.0,-1,0.0,0.7248000000000161
25,2,0.2,0.125,35.0,1,1.0,0.22460000000000946
26,2,0.2,0.0,35.0,1,1.0,0.3897999999999797
27,2,0.2,0.125,35.0,1,1.0,0.15569999999999595
28,2,0.2,0.0625,35.0,1,1.0,0.9977000000000089
29,2,0.2,0.0,-35.0,1,0.0,0.2160000000000366
30,2,0.2,0.25,35.0,1,1.0,0.22970000000000823
31,2,0.2,0.0625,35.0,1,1.0,2.8899000000000115
32,2,0.2,1.0,35.0,1,1.0,0.1572010000000148
33,2,0.2,0.125,-35.0,-1,1.0,0.36470100000002503
34,2,0.2,0.0,35.0,1,1.0,0.20550099999999816
35,2,0.2,1.0,35.0,1,1.0,0.31930099999999584
36,2,0.2,0.0625,-35.0,1,0.0,0.19500100000001908
37,2,0.2,1.0,35.0,1,1.0,0.1696010000000001
38,2,0.2,0.0625,35.0,1,1.0,0.24460099999998874
39,2,0.2,0.0,-35.0,1,0.0,0.21150099999999838
40,2,0.2,0.0625,35.0,1,1.0,0.5212009999999907
41,2,0.2,0.125,35.0,1,1.0,0.06950100000000248
42,2,0.2,0.25,35.0,1,1.0,0.282400999999993
43,2,0.2,1.0,35.0,1,1.0,0.2818010000000015
44,2,0.2,1.0,35.0,1,1.0,0.30350100000001135
45,2,0.2,1.0,35.0,1,1.0,0.22290100000000734
46,2,0.2,1.0,35.0,1,1.0,0.26280099999999607
47,2,0.2,1.0,35.0,1,1.0,0.22800100000000612
48,2,0.2,0.25,35.0,1,1.0,0.2711009999999874
49,2,0.2,0.25,35.0,1,1.0,0.36140100000000075
50,2,0.2,1.0,35.0,1,1.0,0.24870100000001116
51,2,0.2,0.0625,35.0,1,1.0,1.006401000000011
52,2,0.2,0.125,35.0,1,1.0,4.065601000000015
53,2,0.2,0.125,35.0,1,1.0,0.26320100000000934
54,2,0.2,0.125,35.0,1,1.0,0.23580100000000925
55,2,0.2,0.125,35.0,-1,0.0,1.6224010000000249
56,2,0.2,0.125,35.0,1,1.0,0.36840100000000575
57,2,0.8,0.25,-35.0,-1,1.0,0.3115009999999927
58,2,0.8,1.0,-35.0,-1,1.0,0.31980100000001244
59,2,0.8,1.0,35.0,1,1.0,0.2758010000000013
60,2,0.8,1.0,-35.0,-1,1.0,0.2390010000000018
61,2,0.8,0.0,-35.0,1,0.0,2.9175010000000157
62,2,0.8,0.25,35.0,1,1.0,0.324701000000033
63,2,0.8,0.125,-35.0,-1,1.0,0.28020100000000525
64,2,0.8,0.0625,-35.0,-1,1.0,0.37600100000000225
65,2,0.8,0.0,-35.0,-1,1.0,2.219401000000005
66,2,0.8,0.125,-35.0,-1,1.0,0.2719010000000708
67,2,0.8,0.0,-35.0,1,0.0,0.214100999999971
68,2,0.8,1.0,35.0,-1,0.0,2.567401000000018
69,2,0.8,0.125,-35.0,-1,1.0,0.4486009999999965
70,2,0.8,0.0625,35.0,-1,0.0,0.3651010000000383
71,2,0.8,1.0,-35.0,-1,1.0,0.26200099999999793
72,2,0.8,0.0625,-35.0,-1,1.0,0.3284009999999853
73,2,0.8,1.0,35.0,1,1.0,0.2314010000000053
74,2,0.8,0.0625,-35.0,-1,1.0,0.6666009999999574
75,2,0.8,0.125,35.0,1,1.0,0.39480099999997265
76,2,0.8,0.0625,-35.0,-1,1.0,1.137500999999986
77,2,0.8,1.0,-35.0,-1,1.0,0.1023010000000113
78,2,0.8,0.25,-35.0,-1,1.0,0.2681010000000583
79,2,0.8,0.0,-35.0,-1,1.0,2.9672010000000455
80,2,0.2,0.0625,35.0,-1,0.0,0.7597010000000068
81,2,0.2,1.0,35.0,1,1.0,0.2673009999999749
82,2,0.2,0.125,35.0,1,1.0,2.450700999999981
83,2,0.2,1.0,35.0,1,1.0,0.26250099999992926
84,2,0.2,1.0,-35.0,-1,1.0,0.14460100000002285
85,2,0.2,0.0,35.0,1,1.0,3.6045010000000275
86,2,0.2,0.25,35.0,1,1.0,0.34490100000004986
87,2,0.2,1.0,35.0,-1,0.0,0.14000099999998383
88,2,0.2,0.0,-35.0,-1,1.0,0.49230099999999766
89,2,0.2,1.0,-35.0,-1,1.0,0.21770100000003367
90,2,0.2,1.0,35.0,1,1.0,0.042701000000022304
91,2,0.2,0.0625,35.0,1,1.0,0.30080099999997856
92,2,0.2,0.125,35.0,1,1.0,0.6501010000000065
93,2,0.2,0.25,35.0,1,1.0,0.2879010000000335
94,2,0.2,0.0625,35.0,1,1.0,2.948901000000035
95,2,0.2,0.0625,35.0,1,1.0,1.087900999999988
96,2,0.2,1.0,35.0,1,1.0,0.2904009999999744
97,2,0.2,1.0,35.0,1,1.0,0.20420100000001185
98,2,0.2,0.125,35.0,1,1.0,3.1671009999999455
99,2,0.2,0.25,-35.0,-1,1.0,0.7840010000000461
100,2,0.2,0.25,35.0,1,1.0,1.1584010000000262
101,2,0.2,1.0,35.0,1,1.0,0.16240099999998847
102,2,0.2,1.0,35.0,1,1.0,0.2698010000000295
103,2,0.2,0.125,35.0,1,1.0,3.7267009999999914
104,2,0.2,0.0625,35.0,-1,0.0,0.3031010000000265
105,2,0.2,1.0,35.0,1,1.0,0.24230099999999766
106,2,0.2,0.0,35.0,1,1.0,0.2397009999999682
107,2,0.2,1.0,35.0,1,1.0,0.16530099999999948
108,2,0.2,0.0,35.0,1,1.0,4.239901000000032
109,2,0.2,0.0625,35.0,1,1.0,0.14520099999998592
110,2,0.2,0.125,35.0,1,1.0,3.0005009999999857
111,2,0.2,0.0625,-35.0,-1,1.0,5.140301000000022
112,2,0.2,1.0,35.0,1,1.0,0.2068010000000413
113,2,0.2,0.25,-35.0,-1,1.0,0.17350099999998747
114,2,0.8,0.0625,-35.0,1,0.0,3.226801000000023
115,2,0.8,0.25,-35.0,-1,1.0,0.28110100000003513
116,2,0.8,0.25,-35.0,-1,1.0,0.05940099999997983
117,2,0.8,0.125,35.0,1,1.0,0.3567010000000437
118,2,0.8,1.0,35.0,1,1.0,0.22760099999999284
119,2,0.8,0.125,-35.0,-1,1.0,0.3054010000000176
120,2,0.8,0.0,-35.0,-1,1.0,1.0497010000000273
121,2,0.8,0.0625,-35.0,1,0.0,0.22710100000000466
122,2,0.8,0.25,35.0,-1,0.0,3.1536009999999806
123,2,0.8,0.0625,-35.0,-1,1.0,0.4677010000000337
124,2,0.8,0.125,-35.0,-1,1.0,0.32590099999998756
125,2,0.8,0.0,-35.0,-1,1.0,0.20770099999998592
126,2,0.8,0.0625,-35.0,-1,1.0,0.6364010000000349
127,2,0.8,0.25,-35.0,-1,1.0,0.22780099999999948
128,2,0.8,0.0625,-35.0,-1,1.0,0.3376010000000065
129,2,0.8,0.25,35.0,1,1.0,0.2603009999999699
130,2,0.8,1.0,-35.0,-1,1.0,0.2820010000000366
131,2,0.8,0.25,-35.0,-1,1.0,0.23570100000000593
132,2,0.8,1.0,-35.0,-1,1.0,0.20120100000002594
133,2,0.8,0.125,-35.0,-1,1.0,1.7320010000000252
134,2,0.8,0.0625,-35.0,-1,1.0,3.5997010000000955
135,2,0.8,0.0,-35.0,1,0.0,0.2530010000000402
136,2,0.8,0.25,-35.0,-1,1.0,0.8517010000000482
137,2,0.8,0.25,-35.0,-1,1.0,0.267201
138,2,0.8,0.125,-35.0,-1,1.0,0.6484009999999216
139,2,0.8,0.125,-35.0,-1,1.0,0.4488010000000031
140,2,0.2,0.0625,35.0,1,1.0,0.3566009999999551
141,2,0.2,1.0,35.0,1,1.0,0.2053009999999631
142,2,0.2,0.125,35.0,1,1.0,2.215101000000004
143,2,0.2,1.0,-35.0,-1,1.0,0.21390099999996437
144,2,0.2,0.25,35.0,1,1.0,2.653001000000131
145,2,0.2,0.25,-35.0,-1,1.0,0.21380099999998947
146,2,0.2,0.25,35.0,1,1.0,0.4025009999999156
147,2,0.2,0.125,-35.0,-1,1.0,0.5720010000000002
148,2,0.2,0.0625,35.0,-1,0.0,0.2335010000000466
149,2,0.2,0.0625,35.0,1,1.0,1.5134010000000444
150,2,0.2,0.0625,-35.0,1,0.0,1.0233010000000604
151,2,0.2,0.0625,35.0,1,1.0,0.30670099999997547
152,2,0.2,1.0,-35.0,-1,1.0,0.26060100000006514
153,2,0.2,0.0625,-35.0,1,0.0,0.3743010000000595
154,2,0.2,0.125,35.0,1,1.0,0.384001000000012
155,2,0.2,0.125,-35.0,-1,1.0,0.6476010000000088
156,2,0.2,0.0625,-35.0,-1,1.0,3.1292009999999664
157,2,0.2,0.0625,35.0,1,1.0,0.6505009999999629
158,2,0.2,0.25,35.0,1,1.0,0.3207009999998718
159,2,0.2,0.125,35.0,1,1.0,3.9075010000000248
160,2,0.2,1.0,-35.0,-1,1.0,0.267201
161,2,0.2,0.125,35.0,1,1.0,0.3822010000000091
162,2,0.2,0.0625,-35.0,1,0.0,2.8783010000000786
163,2,0.2,1.0,35.0,1,1.0,0.25840100000004895
164,2,0.2,0.25,35.0,1,1.0,2.685500999999931
165,2,0.2,0.125,-35.0,-1,1.0,2.9836010000000215
166,2,0.2,0.0,35.0,-1,0.0,0.3073010000000522
167,2,0.2,0.125,35.0,1,1.0,0.35160099999995964
168,2,0.2,0.0,35.0,1,1.0,0.3337010000000191
169,2,0.2,0.0625,35.0,1,1.0,0.4128009999999449
170,2,0.2,1.0,35.0,1,1.0,0.2722009999999955
171,2,0.2,0.125,35.0,-1,0.0,3.340300999999954
172,2,0.2,0.0,35.0,1,1.0,0.9458999999999378
173,2,0.2,0.0,35.0,1,1.0,3.4075010000000248
174,2,0.2,0.125,35.0,1,1.0,4.153701000000069
175,2,0.2,0.125,35.0,1,1.0,0.35360100000002603
176,2,0.2,0.0625,-35.0,1,0.0,0.37070099999994
177,2,0.2,1.0,35.0,1,1.0,0.26280100000008133
178,2,0.2,1.0,35.0,1,1.0,0.3462010000000646
179,2,0.2,0.0,35.0,1,1.0,3.8073010000000522
180,2,0.2,0.0,35.0,-1,0.0,3.25340099999994
181,2,0.2,0.25,35.0,1,1.0,0.49640100000010534
182,2,0.2,0.25,35.0,1,1.0,3.256800999999996
183,2,0.2,0.125,35.0,1,1.0,0.3200010000000475
184,2,0.2,0.125,35.0,1,1.0,2.145001000000093
185,2,0.2,0.125,35.0,1,1.0,0.3382009999999127
186,2,0.2,0.0,35.0,1,1.0,2.2863009999999804
187,2,0.2,0.25,35.0,1,1.0,0.4757009999999582
188,2,0.2,0.25,35.0,1,1.0,0.34880100000009406
189,2,0.2,0.0,-35.0,1,0.0,0.3527009999999109
190,2,0.2,1.0,-35.0,-1,1.0,0.5067010000000209
191,2,0.2,0.0,35.0,1,1.0,0.07860100000004877
192,2,0.2,1.0,35.0,1,1.0,0.20000099999992926
193,2,0.2,0.25,35.0,1,1.0,3.1833010000000286
194,2,0.2,0.25,35.0,1,1.0,0.2215009999999893
195,2,0.2,0.125,35.0,1,1.0,3.777101000000016
196,2,0.2,0.0625,35.0,1,1.0,0.29260099999999056
197,2,0.2,0.25,35.0,1,1.0,0.26060099999995145
198,2,0.2,1.0,-35.0,-1,1.0,0.5077009999999973
199,2,0.2,0.0625,-35.0,1,0.0,0.3928010000000768
200,2,0.2,0.0,35.0,1,1.0,2.691301000000067
201,2,0.2,0.25,35.0,1,1.0,0.24770100000012008
202,2,0.2,1.0,35.0,1,1.0,0.22610099999997146
203,2,0.2,0.125,35.0,1,1.0,5.0485009999999875
204,2,0.2,0.25,35.0,1,1.0,0.21880099999998492
205,2,0.2,1.0,35.0,1,1.0,0.2476010000000315
206,2,0.2,0.0,35.0,1,1.0,3.239300999999955
207,2,0.2,1.0,35.0,1,1.0,0.4145010000000866
208,2,0.2,0.0625,35.0,1,1.0,0.39020099999993363
209,2,0.2,1.0,35.0,1,1.0,0.16640099999995073
210,2,0.2,0.25,35.0,1,1.0,3.089501000000041
211,2,0.2,0.0,35.0,-1,0.0,0.7799009999999953
212,2,0.2,0.0,35.0,1,1.0,2.225100999999995
213,2,0.2,0.0,35.0,1,1.0,3.077401000000009
214,2,0.2,0.25,35.0,1,1.0,0.2396009999999933
215,2,0.2,1.0,35.0,1,1.0,0.2074010000000044
216,2,0.2,0.0,35.0,1,1.0,0.2757010000000264
217,2,0.2,0.0625,-35.0,-1,1.0,0.7686010000001033
218,2,0.2,0.0625,35.0,1,1.0,0.3163009999999531
219,2,0.2,0.125,35.0,-1,0.0,1.0361010000000306
220,2,0.2,0.125,35.0,1,1.0,0.3057009999999991
221,2,0.2,1.0,35.0,1,1.0,0.25260100000002694
222,2,0.2,0.25,35.0,1,1.0,0.3180010000000948
223,2,0.2,0.0,35.0,1,1.0,4.053800999999908
224,2,0.2,0.0625,35.0,1,1.0,0.24300099999993563
225,2,0.2,0.0625,35.0,1,1.0,0.24040100000001985
226,2,0.2,0.25,35.0,1,1.0,0.2859010000000808
227,2,0.2,0.0625,-35.0,1,0.0,2.035800999999992
228,2,0.8,0.0625,-35.0,-1,1.0,0.622400999999968
229,2,0.8,0.125,35.0,1,1.0,0.15510100000005878
230,2,0.8,0.25,-35.0,1,0.0,0.1608010000001059
231,2,0.8,1.0,-35.0,-1,1.0,0.5657010000001037
232,2,0.8,0.0,-35.0,1,0.0,1.9601010000001224
233,2,0.8,0.125,-35.0,-1,1.0,0.5612009999999827
234,2,0.8,0.0625,35.0,1,1.0,0.257300999999984
235,2,0.8,0.0625,35.0,1,1.0,0.21540100000015627
236,2,0.8,0.0625,-35.0,1,0.0,0.7174009999999953
237,2,0.8,0.0625,-35.0,1,0.0,0.9272009999999682
238,2,0.8,0.125,-35.0,-1,1.0,0.45170100000007096
239,2,0.8,0.25,35.0,1,1.0,0.21370100000012826
240,2,0.8,0.0625,-35.0,1,0.0,2.7792010000000573
241,2,0.8,1.0,-35.0,-1,1.0,0.453000999999972
242,2,0.8,0.0625,-35.0,-1,1.0,0.873401000000058
243,2,0.8,0.0,-35.0,1,0.0,0.3325009999999793
244,2,0.8,0.0625,-35.0,-1,1.0,0.33160099999997783
245,2,0.8,1.0,-35.0,-1,1.0,0.24570099999994
246,2,0.8,1.0,-35.0,-1,1.0,0.2357009999999491
247,2,0.8,0.0625,-35.0,-1,1.0,0.5158009999998967
248,2,0.8,0.0625,-35.0,1,0.0,0.28470099999992726
249,2,0.8,0.0625,-35.0,1,0.0,0.3620010000000775
250,2,0.8,0.0625,-35.0,-1,1.0,0.275400999999988
251,2,0.8,0.125,-35.0,-1,1.0,0.263501000000133
252,2,0.8,1.0,-35.0,-1,1.0,0.2673009999999749
253,2,0.8,0.125,-35.0,-1,1.0,0.7071009999998523
254,2,0.8,0.0625,-35.0,-1,1.0,0.5289010000000189
255,2,0.8,0.0,-35.0,1,0.0,0.37960100000009334
256,2,0.8,1.0,-35.0,-1,1.0,1.023100999999997
257,2,0.8,0.0625,35.0,1,1.0,0.5197010000000546
258,2,0.8,1.0,-35.0,-1,1.0,0.30320099999994454
259,2,0.8,0.0625,-35.0,-1,1.0,0.34330100000011043
260,2,0.8,0.25,-35.0,-1,1.0,0.3467009999999391
261,2,0.8,0.0625,-35.0,-1,1.0,0.7234009999999671
262,2,0.8,0.0625,-35.0,1,0.0,2.7901009999998223
263,2,0.8,1.0,-35.0,-1,1.0,0.4436009999999442
264,2,0.8,0.0,35.0,1,1.0,0.21040100000004713
265,2,0.8,0.0,-35.0,1,0.0,2.827201000000059
266,2,0.8,0.25,-35.0,-1,1.0,0.24400100000002567
267,2,0.8,1.0,35.0,1,1.0,0.21080099999994673
268,2,0.8,0.0625,-35.0,-1,1.0,0.3108009999998558
269,2,0.8,0.125,35.0,1,1.0,0.3242009999999027
270,2,0.8,1.0,35.0,1,1.0,0.22780099999999948
271,2,0.8,0.125,-35.0,-1,1.0,0.7111009999998714
272,2,0.8,0.0625,-35.0,-1,1.0,2.814501000000064
273,2,0.8,1.0,35.0,1,1.0,0.2781009999998787
274,2,0.8,0.0,35.0,1,1.0,3.484800999999834
275,2,0.8,0.0625,-35.0,1,0.0,0.32500099999992926
276,2,0.8,0.0625,-35.0,1,0.0,1.0984010000001945
277,2,0.8,0.0625,-35.0,1,0.0,0.23510099999998602
278,2,0.8,0.0625,-35.0,1,0.0,0.351900999999998
279,2,0.8,0.25,-35.0,-1,1.0,0.31530099999986305
280,2,0.8,1.0,35.0,1,1.0,0.23230100000000675
281,2,0.8,1.0,35.0,1,1.0,0.19890100000020539
282,2,0.8,0.125,-35.0,-1,1.0,0.5656010000000151
283,2,0.8,1.0,-35.0,-1,1.0,1.3424009999998816
284,2,0.8,0.0,35.0,1,1.0,0.24250099999994745
285,2,0.8,0.125,-35.0,-1,1.0,0.4426009999999678
286,2,0.8,0.125,35.0,1,1.0,0.21610099999998056
287,2,0.8,0.0625,-35.0,1,0.0,0.2895010000002003
288,2,0.8,0.25,-35.0,-1,1.0,2.6128010000002178
289,2,0.8,0.0,-35.0,1,0.0,6.606401000000005
290,2,0.8,1.0,-35.0,-1,1.0,0.2700009999998656
291,2,0.8,0.125,-35.0,-1,1.0,0.3367009999999482
292,2,0.8,0.0625,-35.0,-1,1.0,0.41340100000002167
293,2,0.8,1.0,35.0,1,1.0,0.5301010000002861
294,2,0.8,0.125,-35.0,-1,1.0,0.21020099999986996
295,2,0.8,1.0,-35.0,-1,1.0,0.38370099999997365
296,2,0.8,0.125,-35.0,-1,1.0,0.32710099999985687
297,2,0.8,0.25,-35.0,-1,1.0,0.2640010000000075
298,2,0.8,0.0625,-35.0,-1,1.0,0.5106010000001788
299,2,0.8,0.25,-35.0,-1,1.0,0.3241010000001552
300,2,0.8,0.0625,35.0,1,1.0,0.2638010000000577
301,2,0.8,1.0,-35.0,-1,1.0,0.33780099999989943
302,2,0.8,0.0625,-35.0,-1,1.0,0.4114009999998416
303,2,0.8,0.25,-35.0,-1,1.0,0.2212010000000646
304,2,0.8,0.125,-35.0,-1,1.0,0.8814010000000962
305,2,0.8,0.0625,-35.0,-1,1.0,0.24790099999995618
306,2,0.2,1.0,35.0,1,1.0,0.24800099999993108
307,2,0.2,0.125,35.0,1,1.0,5.0812009999999646
308,2,0.2,1.0,35.0,1,1.0,0.5321010000000115
309,2,0.2,0.0,35.0,-1,0.0,4.671600999999782
310,2,0.2,0.25,35.0,1,1.0,0.3184009999999944
311,2,0.2,0.125,35.0,1,1.0,0.34570099999996273
312,2,0.2,0.25,-35.0,-1,1.0,0.5120009999998274
313,2,0.2,0.125,35.0,1,1.0,0.1891009999999369
314,2,0.2,0.0625,35.0,1,1.0,0.36530100000004495
315,2,0.2,0.0625,35.0,1,1.0,4.93880100000024
316,2,0.2,0.0,35.0,1,1.0,0.33310099999994236
317,2,0.2,0.25,35.0,1,1.0,0.3134010000001126
318,2,0.2,1.0,35.0,1,1.0,4.639600999999857
319,2,0.2,0.25,35.0,1,1.0,0.2802010000000337
320,2,0.2,0.125,35.0,1,1.0,3.646701000000121
321,2,0.2,0.0625,-35.0,1,0.0,1.4699009999999362
322,2,0.2,0.0625,35.0,1,1.0,0.5633010000001377
323,2,0.2,0.25,35.0,1,1.0,0.1767010000000937
324,2,0.2,0.0625,35.0,1,1.0,4.180300999999872
325,2,0.2,0.0625,35.0,1,1.0,0.13420099999984814
326,2,0.2,0.25,35.0,1,1.0,0.1710009999999329
327,2,0.2,0.125,35.0,1,1.0,0.2638010000000577
328,2,0.2,1.0,35.0,1,1.0,0.20390100000008715
329,2,0.2,0.0,35.0,-1,0.0,0.1509009999999762
330,2,0.2,0.25,35.0,1,1.0,3.3209009999998216
331,2,0.2,1.0,35.0,1,1.0,0.2176009999998314
332,2,0.2,0.0625,35.0,1,1.0,0.3217010000000755
333,2,0.2,0.0625,-35.0,-1,1.0,0.45780100000024504
334,2,0.2,0.125,35.0,1,1.0,0.4081010000002152
335,2,0.2,1.0,35.0,1,1.0,0.19210099999986596
336,2,0.2,0.25,35.0,1,1.0,3.7422009999997954
337,2,0.2,0.125,-35.0,1,0.0,0.18820099999993545
338,2,0.2,0.125,35.0,1,1.0,0.32850100000018756
339,2,0.2,0.0,35.0,1,1.0,0.23200099999985468
340,2,0.2,0.0,35.0,1,1.0,0.3486009999999169
341,2,0.2,0.25,35.0,1,1.0,0.2819010000000617
342,2,0.2,0.0625,35.0,1,1.0,0.16210099999989325
343,2,0.2,0.0,35.0,1,1.0,0.2254009999999198
344,2,0.2,0.125,35.0,1,1.0,0.2656009999998332
345,2,0.8,1.0,35.0,1,1.0,0.23270100000013372
346,2,0.8,1.0,-35.0,-1,1.0,1.3561009999998532
347,2,0.8,0.0625,-35.0,1,0.0,0.8294009999999616
348,2,0.8,0.125,-35.0,-1,1.0,0.5560010000001512
349,2,0.8,0.125,-35.0,-1,1.0,1.2461009999999533
350,2,0.8,0.25,35.0,1,1.0,0.2529010000000653
351,2,0.8,0.25,-35.0,-1,1.0,0.289400999999998
352,2,0.8,0.25,35.0,1,1.0,0.49320099999977174
353,2,0.8,0.25,-35.0,1,0.0,1.1098010000000613
354,2,0.8,0.125,-35.0,1,0.0,0.2398009999999431
355,2,0.8,0.0625,-35.0,1,0.0,0.3200010000000475
356,2,0.8,1.0,-35.0,-1,1.0,0.28670099999999366
357,2,0.8,1.0,-35.0,-1,1.0,0.4466010000001006
358,2,0.8,0.25,-35.0,-1,1.0,0.22020099999986087
359,2,0.8,0.125,-35.0,-1,1.0,0.31710099999986596
360,2,0.8,0.0,-35.0,1,0.0,0.2641009999999824
361,2,0.8,0.125,35.0,1,1.0,0.34360099999980775
362,2,0.8,0.125,-35.0,-1,1.0,0.817801000000145
363,2,0.8,1.0,-35.0,-1,1.0,0.30120099999976446
364,2,0.8,0.0625,-35.0,1,0.0,0.2641009999999824
365,2,0.8,0.0625,-35.0,-1,1.0,0.554100999999946
366,2,0.8,0.125,-35.0,1,0.0,0.2776010000000042
367,2,0.8,0.0625,-35.0,1,0.0,0.4146010000001752
368,2,0.8,0.0625,-35.0,1,0.0,1.6077010000001337
369,2,0.8,0.125,35.0,1,1.0,0.3180010000000948
370,2,0.8,0.125,-35.0,-1,1.0,0.30120099999999184
371,2,0.8,0.125,-35.0,-1,1.0,0.7581009999998969
372,2,0.8,0.0625,-35.0,-1,1.0,0.5280010000001312
373,2,0.8,0.125,-35.0,-1,1.0,0.2551009999999678
374,2,0.8,1.0,-35.0,-1,1.0,0.23530100000016319
375,2,0.8,0.25,35.0,1,1.0,0.2516010000001643
376,2,0.8,0.25,-35.0,-1,1.0,0.2719010000000708
377,2,0.8,0.0,-35.0,1,0.0,4.125701000000163
378,2,0.8,0.0,35.0,1,1.0,0.7062009999999646
379,2,0.8,0.0,35.0,1,1.0,0.3791009999999915
380,2,0.8,0.125,-35.0,1,0.0,0.15620099999978265
381,2,0.8,1.0,35.0,1,1.0,0.25580100000024686
382,2,0.8,1.0,-35.0,-1,1.0,0.26630100000011225
383,2,0.8,1.0,-35.0,-1,1.0,0.3760010000000875
384,2,0.8,1.0,-35.0,-1,1.0,0.49670100000003004
385,2,0.8,0.0,-35.0,1,0.0,0.33990099999982704
386,2,0.8,0.25,35.0,1,1.0,2.4332010000000537
387,2,0.8,0.0625,-35.0,1,0.0,0.20370100000013736
388,2,0.8,0.125,35.0,1,1.0,0.39310100000011516
389,2,0.8,0.125,-35.0,-1,1.0,0.5065009999998438
390,2,0.8,0.0625,35.0,1,1.0,0.32980099999986123
391,2,0.8,0.125,35.0,1,1.0,3.6566009999999096
392,2,0.8,0.25,-35.0,-1,1.0,0.5939009999997324
393,2,0.8,0.0625,-35.0,1,0.0,2.6604010000000926
394,2,0.8,1.0,-35.0,-1,1.0,0.29070100000012644
395,2,0.8,0.0,-35.0,-1,1.0,0.6909009999999398
396,2,0.8,0.0625,-35.0,1,0.0,4.707301000000143
397,2,0.8,0.25,-35.0,-1,1.0,0.5279009999999289
398,2,0.8,0.0625,-35.0,1,0.0,0.10800099999983104
399,2,0.8,0.0625,-35.0,1,0.0,0.5714009999996961
400,2,0.8,0.125,-35.0,1,0.0,5.548101000000088
401,2,0.8,1.0,-35.0,-1,1.0,0.3284009999999853
402,2,0.8,1.0,-35.0,-1,1.0,0.23510099999998602
403,2,0.8,0.0,-35.0,-1,1.0,0.3153010000000904
404,2,0.2,0.125,35.0,1,1.0,0.13530100000002676
405,2,0.2,1.0,35.0,1,1.0,0.205400999999938
406,2,0.2,1.0,35.0,1,1.0,3.238801000000194
407,2,0.2,0.0625,35.0,1,1.0,1.1325009999998201
408,2,0.2,0.0,-35.0,1,0.0,4.446001000000024
409,2,0.2,0.0625,-35.0,1,0.0,0.30270100000007005
410,2,0.2,0.25,35.0,1,1.0,1.7995009999999638
411,2,0.2,1.0,35.0,1,1.0,0.2296010000000024
412,2,0.2,0.0,35.0,-1,0.0,1.0598010000001068
413,2,0.2,0.125,35.0,1,1.0,0.38980100000003404
414,2,0.2,0.25,35.0,1,1.0,0.3367009999999482
415,2,0.2,0.0625,35.0,1,1.0,0.566700999999739
416,2,0.2,1.0,35.0,1,1.0,0.23030100000005405
417,2,0.2,0.25,35.0,1,1.0,4.487000999999964
418,2,0.2,1.0,35.0,1,1.0,0.29050099999994927
419,2,0.2,0.0,-35.0,-1,1.0,0.8407009999998536
420,2,0.2,1.0,35.0,1,1.0,0.5174010000000635
421,2,0.2,1.0,-35.0,1,0.0,1.1342009999998481
422,2,0.2,0.125,35.0,1,1.0,3.667500999999902
423,2,0.2,1.0,-35.0,-1,1.0,0.48440099999993436
424,2,0.2,1.0,35.0,1,1.0,0.05450100000007296
425,2,0.2,0.125,35.0,1,1.0,4.898001000000022
426,2,0.2,1.0,35.0,1,1.0,0.6682009999999536
427,2,0.2,0.25,-35.0,-1,1.0,0.29500099999995655
428,2,0.2,1.0,35.0,1,1.0,0.8883009999999558
429,2,0.2,1.0,35.0,1,1.0,0.32520100000010643
430,2,0.2,0.125,35.0,1,1.0,3.388701000000083
431,2,0.2,1.0,35.0,1,1.0,0.24220100000002276
432,2,0.2,0.25,35.0,1,1.0,0.44240100000001803
433,2,0.2,0.0625,35.0,1,1.0,0.35900100000003476
434,2,0.2,0.125,-35.0,1,0.0,4.135800999999901
435,2,0.2,0.25,35.0,1,1.0,0.6159009999998943
436,2,0.2,1.0,-35.0,-1,1.0,0.3927009999999882
437,2,0.2,0.0625,35.0,1,1.0,0.21610100000020793
438,2,0.2,0.0625,35.0,1,1.0,3.536200999999892
439,2,0.2,0.0625,35.0,1,1.0,0.35310100000015154
440,2,0.2,0.125,35.0,1,1.0,0.22660100000007333
441,2,0.2,0.25,35.0,1,1.0,0.25990100000012717
442,2,0.2,0.0625,-35.0,1,0.0,2.603400999999849
443,2,0.2,1.0,-35.0,-1,1.0,0.39360099999998965
444,2,0.2,1.0,35.0,1,1.0,0.19030100000009043
445,2,0.2,1.0,35.0,1,1.0,0.2137009999999009
446,2,0.2,0.25,-35.0,-1,1.0,0.28050100000018574
447,2,0.2,0.25,35.0,1,1.0,0.48390100000005987
448,2,0.2,0.0625,35.0,1,1.0,2.7641009999999824
449,2,0.2,0.125,35.0,1,1.0,0.4375009999998838
450,2,0.2,0.25,35.0,1,1.0,0.22430099999996855
451,2,0.2,0.25,-35.0,-1,1.0,0.1444010000000162
452,2,0.2,0.0625,35.0,1,1.0,3.3178009999999176
453,2,0.2,1.0,-35.0,-1,1.0,0.267900999999938
454,2,0.2,0.0625,-35.0,1,0.0,0.2615009999999529
455,2,0.2,0.25,-35.0,-1,1.0,0.6448009999999158
456,2,0.2,0.0625,-35.0,-1,1.0,0.7117009999999482
457,2,0.2,0.25,35.0,1,1.0,0.608400999999958
458,2,0.2,0.0625,-35.0,1,0.0,0.5618010000000595
459,2,0.2,0.25,35.0,1,1.0,3.041900999999825
460,2,0.2,0.0,35.0,1,1.0,0.14210099999991144
461,2,0.2,0.25,-35.0,-1,1.0,0.2656010000000606
462,2,0.2,1.0,-35.0,-1,1.0,0.4990010000001348
463,2,0.2,0.0625,35.0,1,1.0,0.8824010000000726
464,2,0.2,0.25,35.0,1,1.0,0.2591010000001006
465,2,0.2,0.0625,-35.0,1,0.0,0.8459009999999125
466,2,0.2,0.25,-35.0,-1,1.0,0.6093010000001868
467,2,0.2,1.0,35.0,1,1.0,0.1527009999999791
468,2,0.2,0.125,-35.0,-1,1.0,0.2995010000001912
469,2,0.2,0.25,35.0,1,1.0,3.419501000000082
470,2,0.2,1.0,-35.0,-1,1.0,0.31320099999993545
471,2,0.2,0.0,35.0,-1,0.0,1.5466010000000097
472,2,0.2,0.125,35.0,1,1.0,0.3600010000000111
473,2,0.2,0.25,35.0,1,1.0,0.25690099999997074
474,2,0.2,0.25,-35.0,-1,1.0,0.423600999999735
475,2,0.2,1.0,35.0,1,1.0,0.1772009999999682
476,2,0.2,0.0625,35.0,1,1.0,0.37720100000001366
477,2,0.2,1.0,35.0,1,1.0,0.4005010000000766
478,2,0.8,0.0625,35.0,1,1.0,4.00730099999987
479,2,0.8,0.125,-35.0,1,0.0,0.3742010000000846
480,2,0.8,0.125,-35.0,1,0.0,0.43420100000003004
481,2,0.8,0.125,-35.0,1,0.0,0.8345010000000457
482,2,0.8,0.125,35.0,1,1.0,0.34110100000020793
483,2,0.8,0.0625,-35.0,1,0.0,2.9713010000000395
484,2,0.8,0.0625,-35.0,1,0.0,0.7114010000000235
485,2,0.8,0.125,-35.0,-1,1.0,0.5315009999999347
486,2,0.8,0.0,-35.0,1,0.0,0.3316010000000915
487,2,0.8,0.0,-35.0,1,0.0,1.2715009999999438
488,2,0.8,0.0625,-35.0,-1,1.0,0.2984010000000126
489,2,0.8,0.25,-35.0,-1,1.0,0.5252009999999245
490,2,0.8,0.25,-35.0,-1,1.0,0.4252009999997881
491,2,0.8,0.0625,-35.0,-1,1.0,0.12580100000013772
492,2,0.8,0.125,-35.0,-1,1.0,0.6287010000000919
493,2,0.8,0.0625,-35.0,-1,1.0,0.5023009999999886
494,2,0.8,1.0,35.0,1,1.0,0.24910099999988233
495,2,0.8,1.0,-35.0,-1,1.0,0.2691010000000915
496,2,0.8,1.0,-35.0,-1,1.0,0.40590099999985796
497,2,0.8,0.25,-35.0,-1,1.0,0.3560010000001057
498,2,0.8,0.25,-35.0,-1,1.0,0.2961010000001352
499,2,0.8,0.125,-35.0,-1,1.0,0.4595009999998183
500,2,0.8,0.0,-35.0,1,0.0,0.8129010000002381
501,2,0.8,0.125,-35.0,1,0.0,0.7731009999999969
502,2,0.8,0.125,-35.0,1,0.0,1.759800999999925
503,2,0.8,0.0625,-35.0,1,0.0,0.7333009999999831
504,2,0.8,1.0,35.0,1,1.0,0.27000100000009297
505,2,0.8,1.0,-35.0,-1,1.0,0.34360100000003513
506,2,0.8,1.0,-35.0,-1,1.0,0.2368010000002414
507,2,0.8,0.0625,-35.0,-1,1.0,0.6070010000000821
508,2,0.8,0.0,-35.0,-1,1.0,0.567100999999866
509,2,0.8,0.0625,-35.0,1,0.0,4.384101000000101
510,2,0.8,1.0,-35.0,-1,1.0,0.2674010000000635
511,2,0.8,1.0,35.0,1,1.0,0.21090099999992162
512,2,0.8,0.25,-35.0,-1,1.0,0.624400999999807
513,2,0.2,0.0625,-35.0,-1,1.0,0.3344010000000708
514,2,0.2,0.25,35.0,1,1.0,0.2879009999999198
515,2,0.2,0.25,35.0,1,1.0,4.127901000000065
516,2,0.2,0.0625,35.0,1,1.0,0.36150100000008933
517,2,0.2,0.0,-35.0,-1,1.0,1.12820099999999
518,2,0.2,1.0,35.0,1,1.0,0.21830099999988306
519,2,0.2,1.0,35.0,1,1.0,0.2851010000001679
520,2,0.2,0.125,35.0,1,1.0,3.488601000000017
521,2,0.2,1.0,35.0,1,1.0,0.22870100000000093
522,2,0.2,0.25,35.0,1,1.0,0.27540099999987433
523,2,0.2,0.125,35.0,1,1.0,0.4491010000001552
524,2,0.2,0.0625,-35.0,1,0.0,4.962401000000227
525,2,0.2,1.0,-35.0,-1,1.0,0.4125010000002476
526,2,0.2,0.125,35.0,1,1.0,3.896100999999817
527,2,0.2,0.125,35.0,1,1.0,0.2262010000004011
528,2,0.2,0.125,35.0,1,1.0,0.2430010000002767
529,2,0.2,0.0,-35.0,1,0.0,0.3730009999999311
530,2,0.2,0.0,35.0,1,1.0,0.35310100000015154
531,2,0.2,1.0,35.0,1,1.0,0.33320099999991726
532,2,0.2,0.0625,35.0,1,1.0,0.7066010000003189
533,2,0.2,0.125,35.0,1,1.0,3.1134009999996124
534,2,0.2,0.0,35.0,-1,0.0,1.6804010000000744
535,2,0.2,0.0625,-35.0,-1,1.0,0.8238010000000031
536,2,0.2,0.0625,35.0,-1,0.0,3.5906009999998787
537,2,0.2,0.0,35.0,-1,0.0,3.570600999999897
538,2,0.2,0.0,-35.0,1,0.0,5.540801000000101
539,2,0.2,0.125,35.0,1,1.0,0.43770100000028833
540,2,0.2,0.125,35.0,1,1.0,6.1346010000002025
541,2,0.2,0.125,35.0,1,1.0,0.3749009999996815
542,2,0.2,0.125,35.0,1,1.0,2.90820100000019
543,2,0.2,1.0,-35.0,1,0.0,0.04840100000001257
544,2,0.2,0.0625,35.0,1,1.0,4.958400999999867
545,2,0.2,0.125,35.0,1,1.0,4.425400999999965
546,2,0.2,0.0625,-35.0,1,0.0,3.5591009999998278
547,2,0.2,1.0,-35.0,-1,1.0,0.3090009999996255
548,2,0.2,0.0625,35.0,1,1.0,3.269100999999864
549,2,0.2,0.25,35.0,1,1.0,0.22250100000019302
550,2,0.2,0.0625,-35.0,1,0.0,2.5427010000003065
551,2,0.2,0.25,35.0,1,1.0,0.2629009999996015
552,2,0.2,1.0,35.0,1,1.0,0.32640100000025996
553,2,0.2,1.0,-35.0,-1,1.0,0.4331010000000788
554,2,0.2,0.125,-35.0,-1,1.0,0.4632010000000264
555,2,0.2,0.0625,35.0,1,1.0,0.27990100000033635
556,2,0.2,0.125,-35.0,-1,1.0,0.8367009999997208
557,2,0.2,0.0625,35.0,1,1.0,0.3202009999999973
558,2,0.2,0.25,-35.0,-1,1.0,0.33030100000041784
559,2,0.2,0.25,35.0,1,1.0,0.21040099999981976
560,2,0.2,0.0,35.0,1,1.0,4.290401000000202
561,2,0.2,1.0,35.0,1,1.0,0.2174009999998816
562,2,0.2,0.125,35.0,1,1.0,0.2640010000000075
563,2,0.2,1.0,35.0,1,1.0,0.20740099999966333
564,2,0.2,1.0,35.0,1,1.0,0.26080099999990125
565,2,0.2,1.0,35.0,1,1.0,0.2710009999996146
566,2,0.2,1.0,35.0,1,1.0,4.804401000000325
567,2,0.2,1.0,35.0,1,1.0,0.31790100000034727
568,2,0.2,0.25,35.0,1,1.0,0.1681010000002061
569,2,0.2,0.125,35.0,1,1.0,0.24820099999988088
570,2,0.2,0.0,35.0,1,1.0,0.3281010000000606
571,2,0.2,0.0625,35.0,1,1.0,0.37180099999977756
572,2,0.2,0.0,35.0,1,1.0,0.4616009999999733
573,2,0.2,0.0625,35.0,1,1.0,0.26510099999995873
574,2,0.2,0.0625,35.0,1,1.0,0.21180099999992308
575,2,0.2,0.25,35.0,1,1.0,0.46860100000003513
576,2,0.2,0.0,-35.0,1,0.0,0.21870099999978265
577,2,0.2,0.0625,35.0,1,1.0,0.29880099999991216
578,2,0.2,0.25,-35.0,-1,1.0,0.4723009999997885
579,2,0.2,0.125,35.0,1,1.0,0.31570099999999
580,2,0.2,1.0,35.0,1,1.0,0.23240099999975428
581,2,0.2,0.125,35.0,1,1.0,0.3324010000001181
582,2,0.2,1.0,35.0,1,1.0,1.329200999999557
583,2,0.2,0.0625,35.0,-1,0.0,0.5461009999999078
584,2,0.2,0.25,-35.0,1,0.0,2.8028009999998176
585,2,0.2,0.25,-35.0,-1,1.0,0.2763009999998758
586,2,0.2,1.0,35.0,1,1.0,0.29990100000031816
587,2,0.2,0.25,35.0,1,1.0,0.2766010000004826
588,2,0.2,0.0625,35.0,1,1.0,1.189900999999736
589,2,0.2,0.25,35.0,1,1.0,0.23330100000021048
590,2,0.2,0.0625,-35.0,1,0.0,5.49020100000007
591,2,0.2,0.0625,35.0,1,1.0,-0.006198999999924126
592,2,0.2,0.25,-35.0,-1,1.0,0.4870009999999638
593,2,0.2,0.0,35.0,1,1.0,0.13730100000020684
594,2,0.2,1.0,35.0,1,1.0,0.2640010000000075
595,2,0.8,0.125,-35.0,-1,1.0,0.2640010000000075
596,2,0.8,1.0,-35.0,-1,1.0,0.274000999999771
1,3,0.5,0.125,-35.0,-1,1.0,0.3762000000000001
2,3,0.5,1.0,35.0,1,1.0,0.16540000000000088
3,3,0.5,0.125,-35.0,1,0.0,0.18050000000000033
4,3,0.5,0.0625,35.0,1,1.0,0.2514999999999983
5,3,0.5,0.25,35.0,1,1.0,6.787099999999999
6,3,0.5,0.25,-35.0,-1,1.0,0.4469999999999992
7,3,0.5,0.0625,35.0,1,1.0,0.4642000000000017
8,3,0.5,0.125,-35.0,1,0.0,0.22419999999999618
9,3,0.5,0.0,35.0,1,1.0,0.8477000000000032
10,3,0.5,0.0,35.0,1,1.0,2.1668999999999983
11,3,0.5,0.25,-35.0,-1,1.0,0.3230000000000004
12,3,0.5,0.0,35.0,1,1.0,0.19899999999999807
13,3,0.5,1.0,35.0,1,1.0,0.29519999999999413
14,3,0.5,1.0,35.0,1,1.0,0.2471000000000032
15,3,0.5,0.0625,-35.0,1,0.0,0.1927999999999983
16,3,0.5,0.0625,-35.0,-1,1.0,1.5744999999999933
17,3,0.5,0.0,35.0,-1,0.0,0.8053999999999988
18,3,0.5,1.0,-35.0,-1,1.0,0.310299999999998
19,3,0.5,0.0625,-35.0,1,0.0,3.3022000000000133
20,3,0.5,0.0625,-35.0,-1,1.0,0.26559999999999206
21,3,0.5,0.0625,35.0,1,1.0,2.177199999999985
22,3,0.5,0.25,35.0,1,1.0,0.2494000000000085
23,3,0.5,1.0,-35.0,-1,1.0,0.23860000000000525
24,3,0.5,0.0625,35.0,1,1.0,1.0409999999999968
25,3,0.5,0.25,-35.0,-1,1.0,0.421599999999998
26,3,0.5,0.125,35.0,1,1.0,0.2190000000000083
27,3,0.5,0.125,35.0,1,1.0,0.27409999999999
28,3,0.5,1.0,-35.0,-1,1.0,0.29999999999999716
29,3,0.5,0.0625,-35.0,1,0.0,0.3299999999999983
30,3,0.5,1.0,35.0,1,1.0,0.2804000000000002
31,3,0.5,1.0,35.0,1,1.0,0.4772000000000105
32,3,0.5,0.25,-35.0,-1,1.0,0.27139999999999986
33,3,0.5,1.0,35.0,1,1.0,0.17619999999999436
34,3,0.5,0.125,-35.0,-1,1.0,0.414599999999993
35,3,0.5,1.0,-35.0,-1,1.0,0.25490000000000634
36,3,0.5,0.125,35.0,1,1.0,0.18029999999998836
37,3,0.5,0.125,-35.0,1,0.0,0.1880000000000024
38,3,0.5,1.0,-35.0,-1,1.0,0.35720000000000596
39,3,0.5,0.0625,-35.0,1,0.0,3.5454000000000008
40,3,0.5,0.125,-35.0,1,0.0,4.890199999999993
41,3,0.5,0.0625,-35.0,-1,1.0,0.2734000000000094
42,3,0.5,0.25,35.0,1,1.0,0.21479999999999677
43,3,0.5,0.125,35.0,1,1.0,0.25379999999998404
44,3,0.5,0.125,35.0,1,1.0,0.19169999999999732
45,3,0.5,1.0,35.0,1,1.0,0.16590000000002192
46,3,0.5,0.0625,35.0,1,1.0,0.2230000000000132
47,3,0.5,0.25,35.0,1,1.0,0.19470000000004006
48,3,0.5,0.0625,-35.0,1,0.0,0.30230000000000246
49,3,0.5,1.0,-35.0,-1,1.0,0.372600000000034
50,3,0.5,0.125,35.0,1,1.0,0.12999999999999545
51,3,0.5,0.0625,35.0,1,1.0,0.3048000000000002
52,3,0.5,1.0,-35.0,-1,1.0,0.25610000000000355
53,3,0.5,0.0625,-35.0,1,0.0,0.20140000000000668
54,3,0.5,0.0625,35.0,1,1.0,0.6157000000000039
55,3,0.5,0.125,-35.0,-1,1.0,0.2558999999999685
56,3,0.5,0.25,-35.0,1,0.0,0.23500000000001364
57,3,0.5,0.0625,-35.0,1,0.0,0.6614999999999895
58,3,0.5,0.125,35.0,1,1.0,0.2342000000000155
59,3,0.5,0.125,35.0,1,1.0,0.18760000000000332
60,3,0.5,1.0,-35.0,-1,1.0,0.23169999999998936
61,3,0.5,0.0,35.0,1,1.0,4.905900000000003
62,3,0.5,0.25,35.0,1,1.0,0.22870000000000346
63,3,0.5,0.125,-35.0,-1,1.0,0.21049999999999613
64,3,0.5,0.0625,-35.0,1,0.0,0.2656999999999812
65,3,0.5,0.0625,35.0,1,1.0,0.15260000000000673
66,3,0.5,0.0625,-35.0,1,0.0,0.4093000000000018
67,3,0.5,1.0,35.0,1,1.0,0.21350000000001046
68,3,0.5,0.125,35.0,1,1.0,0.2820000000000107
69,3,0.5,0.25,35.0,1,1.0,0.17459999999996967
70,3,0.5,0.0,35.0,1,1.0,0.21349999999998204
71,3,0.5,0.0625,-35.0,1,0.0,0.25039999999998486
72,3,0.5,0.25,-35.0,-1,1.0,0.316599999999994
73,3,0.5,0.25,35.0,1,1.0,0.21479999999999677
74,3,0.5,0.125,35.0,1,1.0,0.2925000000000182
75,3,0.5,0.125,35.0,1,1.0,0.28649999999998954
76,3,0.5,1.0,35.0,1,1.0,0.12940000000000396
77,3,0.5,0.0625,-35.0,1,0.0,0.16429999999999723
78,3,0.5,0.125,35.0,1,1.0,0.23400000000000887
79,3,0.5,0.25,-35.0,-1,1.0,0.16429999999999723
80,3,0.5,0.0,-35.0,1,0.0,0.21829999999997085
81,3,0.5,1.0,35.0,1,1.0,0.12699999999998113
82,3,0.5,0.25,-35.0,-1,1.0,0.14570000000003347
83,3,0.5,0.0625,-35.0,-1,1.0,0.27300000000002456
84,3,0.5,0.0,-35.0,-1,1.0,0.19400000000001683
85,3,0.5,0.0625,35.0,1,1.0,0.2643000000000484
86,3,0.5,0.25,35.0,1,1.0,0.20900000000000318
87,3,0.5,0.25,-35.0,-1,1.0,0.20460000000002765
88,3,0.5,0.0,35.0,1,1.0,0.3047000000000821
89,3,0.5,0.0625,-35.0,1,0.0,0.21109999999998763
90,3,0.5,0.125,35.0,1,1.0,0.21030000000001792
91,3,0.8,0.125,-35.0,-1,1.0,0.5090999999999894
92,3,0.8,0.125,-35.0,-1,1.0,0.4053000000000111
93,3,0.8,0.25,-35.0,-1,1.0,0.08630000000005111
94,3,0.8,0.0,-35.0,1,0.0,0.33470000000005484
95,3,0.8,1.0,35.0,-1,0.0,0.1792000000000371
96,3,0.8,0.25,-35.0,-1,1.0,0.356899999999996
97,3,0.8,1.0,-35.0,-1,1.0,0.21980000000002065
98,3,0.8,0.0625,35.0,1,1.0,0.23220000000003438
99,3,0.8,0.125,-35.0,-1,1.0,0.22419999999999618
100,3,0.8,0.25,-35.0,-1,1.0,0.3953000000000202
101,3,0.8,0.0625,-35.0,-1,1.0,0.3016000000000645
102,3,0.8,0.0625,-35.0,-1,1.0,0.259900000000016
103,3,0.8,0.0625,-35.0,-1,1.0,2.474700000000041
104,3,0.8,0.0625,-35.0,-1,1.0,0.353300000000047
105,3,0.8,0.0625,-35.0,-1,1.0,0.4030999999999949
106,3,0.8,0.125,-35.0,-1,1.0,0.22720000000003893
107,3,0.8,0.125,-35.0,-1,1.0,0.07710000000002992
108,3,0.8,0.125,-35.0,-1,1.0,0.2574000000000751
109,3,0.8,0.25,-35.0,-1,1.0,0.28460000000001173
110,3,0.8,0.25,-35.0,-1,1.0,0.37119999999998754
111,3,0.2,0.125,-35.0,-1,1.0,0.21980000000002065
112,3,0.2,0.125,-35.0,-1,1.0,0.22730000000001382
113,3,0.2,0.125,35.0,1,1.0,0.19209999999998217
114,3,0.2,0.0,-35.0,1,0.0,1.0550999999999817
115,3,0.2,0.25,35.0,1,1.0,0.31389999999998963
116,3,0.2,0.25,-35.0,-1,1.0,0.17650000000003274
117,3,0.2,0.125,35.0,1,1.0,0.19900000000001228
118,3,0.2,1.0,35.0,1,1.0,0.24329999999997654
119,3,0.2,0.125,35.0,1,1.0,0.19490000000001828
120,3,0.2,0.0625,-35.0,1,0.0,0.14850000000001273
121,3,0.2,0.0625,-35.0,-1,1.0,0.35829999999998563
122,3,0.2,0.125,35.0,1,1.0,0.1816000000000031
123,3,0.2,0.25,-35.0,1,0.0,0.054600000000050386
124,3,0.2,0.125,35.0,1,1.0,0.26650000000000773
125,3,0.2,0.25,35.0,1,1.0,0.2296999999999798
126,3,0.2,0.25,-35.0,-1,1.0,0.18390000000005102
127,3,0.2,0.0625,35.0,1,1.0,0.2410000000000423
128,3,0.2,0.0625,-35.0,1,0.0,0.2083000000000652
129,3,0.2,0.0625,35.0,-1,0.0,0.6690000000000396
130,3,0.2,0.25,-35.0,1,0.0,0.050700000000006185
131,3,0.2,1.0,35.0,1,1.0,0.15180000000003702
132,3,0.2,0.125,-35.0,1,0.0,0.24349999999998317
133,3,0.2,1.0,35.0,1,1.0,0.14210000000002765
134,3,0.2,0.125,35.0,1,1.0,0.1954000000000633
135,3,0.2,0.0,35.0,1,1.0,0.26330000000007203
136,3,0.2,0.25,35.0,1,1.0,0.18810000000001992
137,3,0.2,0.0625,35.0,1,1.0,0.16150000000004638
138,3,0.2,0.0625,35.0,1,1.0,0.28429999999997335
139,3,0.2,0.0625,35.0,1,1.0,0.27690000000006876
140,3,0.2,0.0625,35.0,1,1.0,0.22370000000006485
141,3,0.8,0.25,-35.0,-1,1.0,0.2717000000000098
142,3,0.8,0.125,-35.0,1,0.0,0.19350000000002865
143,3,0.8,0.125,-35.0,1,0.0,0.24639999999999418
144,3,0.8,0.0,35.0,1,1.0,0.22860000000002856
145,3,0.8,0.0,-35.0,1,0.0,0.22210000000001173
146,3,0.8,0.125,35.0,1,1.0,0.22390000000001464
147,3,0.8,1.0,-35.0,-1,1.0,0.19000000000005457
148,3,0.8,0.0,-35.0,1,0.0,0.18020000000001346
149,3,0.8,0.125,-35.0,1,0.0,0.23010000000004993
150,3,0.8,0.25,35.0,1,1.0,0.22300000000007003
151,3,0.8,1.0,-35.0,-1,1.0,0.2177000000000362
152,3,0.8,0.0625,-35.0,1,0.0,0.5265000000000555
153,3,0.8,0.0625,-35.0,1,0.0,0.08659900000003518
154,3,0.8,1.0,-35.0,-1,1.0,0.282100000000014
155,3,0.8,1.0,-35.0,-1,1.0,0.15890000000007376
156,3,0.8,0.0625,-35.0,1,0.0,2.122100000000046
157,3,0.8,0.125,-35.0,-1,1.0,0.5928000000000111
158,3,0.8,0.125,-35.0,-1,1.0,0.26600000000001955
159,3,0.8,0.125,-35.0,1,0.0,0.561800000000062
160,3,0.8,0.125,-35.0,-1,1.0,0.22430000000002792
161,3,0.2,0.25,35.0,1,1.0,0.23540000000002692
162,3,0.2,0.25,35.0,1,1.0,0.2755000000000223
163,3,0.2,0.0,-35.0,1,0.0,0.3301000000000158
164,3,0.2,0.0625,35.0,-1,0.0,0.41310000000004266
165,3,0.2,0.0625,-35.0,-1,1.0,0.273900000000026
166,3,0.2,0.0,35.0,-1,0.0,0.2381000000000313
167,3,0.2,0.0,35.0,1,1.0,0.35140000000001237
168,3,0.2,0.0625,-35.0,1,0.0,0.18250000000000455
169,3,0.2,0.0625,35.0,-1,0.0,0.37999999999999545
170,3,0.2,1.0,35.0,1,1.0,0.24639999999999418
171,3,0.2,0.0625,35.0,1,1.0,0.1972000000000662
172,3,0.2,0.0,-35.0,1,0.0,0.21420000000011896
173,3,0.2,0.125,35.0,1,1.0,0.28690000000005966
174,3,0.2,0.125,35.0,1,1.0,0.2480000000000473
175,3,0.2,0.0625,35.0,1,1.0,0.19060000000001764
176,3,0.2,0.125,-35.0,1,0.0,0.046099999999910324
177,3,0.2,0.25,35.0,1,1.0,0.14819999999997435
178,3,0.2,0.0625,-35.0,1,0.0,0.2438000000000784
179,3,0.2,0.125,35.0,1,1.0,0.19780000000002929
180,3,0.2,0.0625,35.0,1,1.0,0.15989999999987958
181,3,0.2,0.25,35.0,1,1.0,0.2341000000000122
182,3,0.2,0.0625,35.0,1,1.0,0.17630000000008295
183,3,0.2,0.0,35.0,1,1.0,0.24210000000005039
184,3,0.2,1.0,35.0,1,1.0,0.1792000000001508
185,3,0.2,0.25,35.0,1,1.0,0.1955000000000382
186,3,0.2,0.125,35.0,1,1.0,0.24430000000006658
187,3,0.2,0.0625,35.0,1,1.0,0.1272999999999911
188,3,0.2,1.0,-35.0,-1,1.0,0.31920000000013715
189,3,0.2,1.0,35.0,1,1.0,0.1714000000000624
190,3,0.2,0.0,35.0,1,1.0,0.1956000000000131
191,3,0.2,0.25,35.0,1,1.0,0.18220000000007985
192,3,0.2,0.0,35.0,1,1.0,0.19479999999987285
193,3,0.2,0.125,35.0,1,1.0,0.17719999999997071
194,3,0.2,0.0625,35.0,1,1.0,0.1910000000001446
195,3,0.2,0.25,-35.0,-1,1.0,0.23640000000000327
196,3,0.8,0.25,-35.0,1,0.0,0.19070000000010623
197,3,0.8,0.25,-35.0,-1,1.0,0.2685999999999922
198,3,0.8,1.0,-35.0,-1,1.0,0.18020000000001346
199,3,0.8,0.25,-35.0,1,0.0,0.10739999999998417
200,3,0.8,1.0,-35.0,1,0.0,-0.02109999999993306
201,3,0.8,0.0,-35.0,1,0.0,0.17880000000002383
202,3,0.8,0.125,-35.0,1,0.0,0.39799999999991087
203,3,0.8,0.0625,-35.0,1,0.0,0.20690000000001874
204,3,0.8,1.0,-35.0,-1,1.0,0.18090000000006512
205,3,0.8,0.0625,-35.0,-1,1.0,0.18670000000008713
206,3,0.8,0.125,-35.0,1,0.0,0.18600000000003547
207,3,0.8,0.0625,-35.0,-1,1.0,0.22850000000005366
208,3,0.8,0.0,35.0,1,1.0,0.7423000000000002
209,3,0.8,0.25,-35.0,-1,1.0,0.18570000000011078
210,3,0.8,0.125,-35.0,-1,1.0,0.22210000000006858
211,3,0.8,0.25,35.0,1,1.0,0.06629999999995562
212,3,0.8,0.0625,35.0,1,1.0,0.36799999999993815
213,3,0.8,1.0,-35.0,-1,1.0,0.41819999999995616
214,3,0.8,1.0,-35.0,1,0.0,0.46039999999993597
215,3,0.8,0.0625,-35.0,1,0.0,0.25289999999995416
216,3,0.8,0.25,-35.0,-1,1.0,0.26070000000004256
217,3,0.8,0.125,-35.0,-1,1.0,0.2094000000000733
218,3,0.8,1.0,-35.0,-1,1.0,0.36780000000010205
219,3,0.8,0.125,-35.0,-1,1.0,0.22430000000008476
220,3,0.8,0.0,35.0,-1,0.0,6.606800000000021
221,3,0.8,1.0,-35.0,-1,1.0,0.16060099999992872
222,3,0.8,1.0,-35.0,-1,1.0,0.5111010000000533
223,3,0.8,0.0,-35.0,1,0.0,0.39800100000002203
224,3,0.8,0.125,-35.0,-1,1.0,0.2555009999999811
225,3,0.8,0.125,-35.0,-1,1.0,0.2335009999999329
226,3,0.8,0.125,-35.0,-1,1.0,0.3499010000000453
227,3,0.8,0.0625,-35.0,-1,1.0,2.600101000000109
228,3,0.8,0.25,-35.0,-1,1.0,0.2773010000000795
229,3,0.8,0.25,35.0,1,1.0,0.2937009999999418
230,3,0.8,0.25,-35.0,-1,1.0,0.14340100000003986
231,3,0.8,0.0625,-35.0,-1,1.0,0.3302010000001019
232,3,0.8,0.125,35.0,-1,0.0,0.1847010000000182
233,3,0.2,1.0,35.0,1,1.0,0.2864009999999553
234,3,0.2,1.0,35.0,1,1.0,0.1184010000000626
235,3,0.2,1.0,35.0,1,1.0,0.17530099999999038
236,3,0.2,0.25,35.0,1,1.0,0.17520100000001548
237,3,0.2,0.0625,35.0,1,1.0,0.3033010000001468
238,3,0.2,1.0,35.0,1,1.0,0.18440099999997983
239,3,0.2,0.0625,35.0,1,1.0,0.029600999999956912
240,3,0.2,1.0,35.0,1,1.0,0.29500100000007023
241,3,0.2,0.25,-35.0,-1,1.0,0.750201000000061
242,3,0.2,0.25,35.0,1,1.0,0.19160099999999147
243,3,0.2,0.125,-35.0,-1,1.0,0.3971010000000206
244,3,0.2,0.0625,35.0,1,1.0,0.17970100000002276
245,3,0.2,1.0,35.0,1,1.0,0.19740100000001348
246,3,0.2,0.0625,-35.0,1,0.0,4.0396010000000615
247,3,0.2,0.25,35.0,1,1.0,0.17930100000000948
248,3,0.2,0.125,35.0,1,1.0,0.1466010000000324
249,3,0.2,1.0,-35.0,-1,1.0,0.31050100000004477
250,3,0.2,0.0625,-35.0,1,0.0,0.27870100000006914
251,3,0.2,0.0,35.0,1,1.0,0.37760100000002694
252,3,0.2,0.125,-35.0,-1,1.0,0.32710099999997055
253,3,0.2,1.0,35.0,1,1.0,0.10720100000003185
254,3,0.2,0.0625,35.0,1,1.0,0.27520099999992453
255,3,0.2,1.0,35.0,1,1.0,0.14790100000004713
256,3,0.2,1.0,35.0,1,1.0,0.24230100000011134
257,3,0.2,0.0,35.0,1,1.0,0.2089010000000826
258,3,0.2,0.0,35.0,1,1.0,3.2582009999999855
259,3,0.2,0.0625,35.0,1,1.0,0.14150100000006205
260,3,0.2,0.25,35.0,1,1.0,0.23860100000001694
261,3,0.2,1.0,35.0,1,1.0,0.16880000000003292
262,3,0.2,0.25,35.0,1,1.0,0.22880099999997583
263,3,0.2,0.25,35.0,1,1.0,0.16530099999999948
264,3,0.2,0.0625,35.0,1,1.0,0.16420099999993454
265,3,0.2,0.125,35.0,1,1.0,0.03530100000011771
266,3,0.2,0.0,35.0,1,1.0,0.2090010000000575
267,3,0.2,0.0625,35.0,1,1.0,0.24030100000004495
268,3,0.2,0.25,35.0,1,1.0,0.14790100000004713
269,3,0.2,0.125,35.0,1,1.0,0.20040100000005623
270,3,0.2,0.125,-35.0,1,0.0,0.1324010000000726
271,3,0.2,0.125,35.0,1,1.0,0.2772010000001046
272,3,0.2,0.0625,35.0,1,1.0,0.25590100000010807
273,3,0.2,0.25,35.0,-1,0.0,0.07070099999998547
274,3,0.2,0.25,35.0,1,1.0,0.28200100000015027
275,3,0.2,0.125,35.0,1,1.0,0.3722010000000182
276,3,0.2,0.0,-35.0,1,0.0,0.27250099999992017
277,3,0.2,1.0,35.0,1,1.0,0.2556010000000697
278,3,0.2,0.125,35.0,1,1.0,0.24500100000000202
279,3,0.2,0.25,-35.0,-1,1.0,0.28700100000003204
280,3,0.2,0.25,-35.0,-1,1.0,0.7645009999999957
281,3,0.2,0.0625,35.0,1,1.0,0.25630100000000766
282,3,0.8,1.0,-35.0,-1,1.0,0.20610099999998965
283,3,0.8,0.25,-35.0,-1,1.0,0.23990099999991799
284,3,0.8,0.125,-35.0,-1,1.0,0.24040100000001985
285,3,0.8,0.0625,35.0,1,1.0,0.4517009999999573
286,3,0.8,0.0,-35.0,1,0.0,0.40370099999995546
287,3,0.8,0.25,-35.0,-1,1.0,0.22000100000002476
288,3,0.8,0.25,-35.0,-1,1.0,0.20200099999999566
289,3,0.8,0.125,-35.0,-1,1.0,0.23590100000001257
290,3,0.8,0.0625,-35.0,-1,1.0,0.8081010000000788
291,3,0.8,1.0,-35.0,-1,1.0,0.19790100000011535
292,3,0.8,0.0625,-35.0,-1,1.0,0.18820100000004913
293,3,0.8,0.25,-35.0,-1,1.0,0.4716009999999642
294,3,0.8,0.0625,-35.0,-1,1.0,0.3686010000000124
295,3,0.8,0.0625,-35.0,-1,1.0,0.22750100000007478
296,3,0.8,0.0625,-35.0,-1,1.0,0.3707010000000537
297,3,0.8,0.0625,-35.0,-1,1.0,0.2410010000000966
298,3,0.8,0.125,-35.0,1,0.0,0.4102010000000291
299,3,0.8,0.0625,-35.0,-1,1.0,0.3668010000000095
300,3,0.8,0.0,-35.0,1,0.0,0.24670100000003004
301,3,0.8,0.0,35.0,-1,0.0,0.568501000000083
302,3,0.8,0.125,-35.0,-1,1.0,0.2971010000001115
303,3,0.8,1.0,35.0,1,1.0,0.18750099999999748
304,3,0.8,1.0,35.0,1,1.0,0.2517010000001392
305,3,0.8,0.0625,-35.0,1,0.0,0.11110100000007606
306,3,0.8,0.125,-35.0,-1,1.0,0.3084010000000035
307,3,0.8,1.0,-35.0,-1,1.0,0.1645010000000866
308,3,0.8,0.125,-35.0,-1,1.0,0.24500100000000202
309,3,0.8,0.25,-35.0,1,0.0,0.15160100000002785
310,3,0.8,0.0625,35.0,-1,0.0,0.2151010000000042
311,3,0.8,0.125,-35.0,-1,1.0,0.39180099999998674
312,3,0.8,0.25,-35.0,-1,1.0,0.2083999999997559
313,3,0.8,0.125,-35.0,-1,1.0,0.3019009999998161
314,3,0.8,1.0,-35.0,-1,1.0,0.16200099999969098
315,3,0.8,0.25,35.0,1,1.0,0.19190099999991617
316,3,0.2,0.0625,35.0,1,1.0,0.21210100000007515
317,3,0.2,1.0,35.0,1,1.0,0.16610099999979866
318,3,0.2,0.0625,-35.0,1,0.0,0.12880099999961203
319,3,0.2,0.125,35.0,1,1.0,6.00560100000007
320,3,0.2,1.0,35.0,1,1.0,0.25020100000006096
321,3,0.2,0.125,35.0,1,1.0,3.866100999999844
322,3,0.2,0.25,-35.0,-1,1.0,0.5762009999998554
323,3,0.2,1.0,35.0,1,1.0,0.23020099999985177
324,3,0.2,0.0625,35.0,1,1.0,0.29300100000000384
325,3,0.2,1.0,35.0,1,1.0,0.12050099999987651
326,3,0.2,0.0625,-35.0,1,0.0,3.4639009999998507
327,3,0.2,0.125,35.0,1,1.0,0.23010099999987688
328,3,0.2,0.0625,-35.0,1,0.0,0.11400099999991653
329,3,0.2,0.25,35.0,1,1.0,0.6404010000001108
330,3,0.2,0.0625,35.0,1,1.0,0.16430100000002312
331,3,0.2,0.25,35.0,1,1.0,0.21390100000007806
332,3,0.2,1.0,-35.0,-1,1.0,0.7806009999997059
333,3,0.2,0.25,35.0,1,1.0,0.3342009999998936
334,3,0.2,1.0,35.0,1,1.0,0.32410099999970043
335,3,0.2,1.0,35.0,1,1.0,1.8507009999998445
336,3,0.2,0.0625,-35.0,1,0.0,3.375301000000036
337,3,0.2,0.25,-35.0,1,0.0,0.1349009999998998
338,3,0.2,1.0,35.0,1,1.0,0.1351009999998496
339,3,0.2,0.0625,35.0,1,1.0,0.4483009999996739
340,3,0.2,0.125,35.0,1,1.0,0.2352009999999609
341,3,0.2,0.25,-35.0,1,0.0,0.8423009999999067
342,3,0.2,0.0625,35.0,1,1.0,0.13480100000015227
343,3,0.2,1.0,-35.0,-1,1.0,0.2951010000001588
344,3,0.2,1.0,35.0,1,1.0,0.18210099999987506
345,3,0.2,1.0,35.0,1,1.0,0.16830099999992854
346,3,0.2,0.25,35.0,1,1.0,0.19860099999982594
347,3,0.2,0.0625,35.0,1,1.0,0.3587009999998827
348,3,0.2,0.25,35.0,1,1.0,0.15890099999978702
349,3,0.2,0.25,35.0,1,1.0,0.04920100000003913
350,3,0.8,1.0,-35.0,-1,1.0,0.2595010000000002
351,3,0.8,0.0625,35.0,1,1.0,0.4294009999996433
352,3,0.8,0.0625,35.0,1,1.0,0.20230099999980666
353,3,0.8,0.0625,-35.0,1,0.0,0.1426010000000133
354,3,0.8,0.0,35.0,1,1.0,0.25270099999988815
355,3,0.8,0.125,-35.0,1,0.0,0.1431009999998878
356,3,0.8,1.0,-35.0,-1,1.0,0.20300099999985832
357,3,0.8,0.0625,-35.0,1,0.0,0.3730009999999311
358,3,0.8,0.125,35.0,1,1.0,0.20020099999987906
359,3,0.8,0.125,35.0,1,1.0,0.06970099999989543
360,3,0.8,0.25,35.0,1,1.0,0.25670099999979357
361,3,0.8,1.0,35.0,1,1.0,0.2069010000000162
362,3,0.8,0.25,-35.0,-1,1.0,0.39010099999995873
363,3,0.8,1.0,-35.0,-1,1.0,0.24050099999976737
364,3,0.8,1.0,35.0,1,1.0,0.1307010000000446
365,3,0.8,0.0625,-35.0,-1,1.0,0.30700100000012753
366,3,0.8,1.0,35.0,1,1.0,0.19720099999972263
367,3,0.8,0.0625,-35.0,1,0.0,0.4039010000001326
368,3,0.8,0.0625,-35.0,1,0.0,0.12780099999963568
369,3,0.8,0.0,-35.0,1,0.0,0.39750099999992017
370,3,0.8,0.0,-35.0,-1,1.0,0.584201000000121
371,3,0.8,0.25,-35.0,-1,1.0,0.16450099999997292
372,3,0.8,0.0625,-35.0,-1,1.0,2.0944009999998343
373,3,0.8,0.0,-35.0,-1,1.0,0.11470099999996819
374,3,0.8,0.125,35.0,-1,0.0,0.5081009999998969
375,3,0.8,0.125,-35.0,-1,1.0,0.3684009999999489
376,3,0.8,0.25,-35.0,-1,1.0,0.16860099999985323
377,3,0.8,0.0,-35.0,1,0.0,0.33500099999992017
378,3,0.8,0.25,-35.0,1,0.0,0.581700999999839
379,3,0.8,0.25,35.0,1,1.0,0.2824009999999362
380,3,0.8,0.125,-35.0,-1,1.0,0.2354009999999107
381,3,0.8,0.0,35.0,1,1.0,0.25530099999969025
382,3,0.8,0.0625,-35.0,-1,1.0,0.24890099999993254
383,3,0.8,1.0,-35.0,-1,1.0,0.27880100000015773
384,3,0.8,0.0625,-35.0,-1,1.0,0.3229009999997743
385,3,0.8,0.0625,35.0,-1,0.0,0.5631009999999605
386,3,0.8,1.0,-35.0,-1,1.0,0.43960100000003877
387,3,0.8,0.0,-35.0,-1,1.0,0.28260100000011334
388,3,0.8,0.0625,35.0,-1,0.0,0.2861009999999169
389,3,0.8,0.0625,-35.0,1,0.0,0.2172009999999318
390,3,0.8,1.0,-35.0,-1,1.0,0.4201010000001588
391,3,0.8,0.25,-35.0,-1,1.0,0.1833009999998012
392,3,0.8,1.0,-35.0,-1,1.0,0.20300099999985832
393,3,0.8,0.125,-35.0,-1,1.0,0.21970099999998638
394,3,0.8,1.0,-35.0,-1,1.0,0.28690099999994345
395,3,0.8,0.125,35.0,1,1.0,0.3103009999997539
396,3,0.8,1.0,-35.0,-1,1.0,0.20340099999975791
397,3,0.8,0.25,-35.0,-1,1.0,0.2576010000000224
398,3,0.8,0.0,-35.0,1,0.0,0.27690099999995255
399,3,0.8,1.0,-35.0,-1,1.0,0.34760099999994054
400,3,0.8,0.125,-35.0,-1,1.0,0.4612009999998463
401,3,0.8,0.125,-35.0,-1,1.0,2.930800999999974
402,3,0.8,0.0625,-35.0,-1,1.0,0.4408009999999649
403,3,0.8,1.0,35.0,1,1.0,0.42790100000001985
404,3,0.8,0.0,35.0,-1,0.0,0.14770099999986996
405,3,0.8,0.0625,35.0,1,1.0,1.3811009999999442
406,3,0.8,0.125,-35.0,-1,1.0,0.1652009999997972
407,3,0.8,0.125,-35.0,1,0.0,0.31510099999991326
408,3,0.8,0.25,-35.0,-1,1.0,0.38820099999975355
409,3,0.8,0.0,-35.0,1,0.0,0.3020010000000184
410,3,0.8,1.0,-35.0,-1,1.0,0.2352009999999609
411,3,0.8,1.0,-35.0,-1,1.0,0.06850099999996928
412,3,0.8,0.25,35.0,-1,0.0,0.16210099999989325
413,3,0.8,0.25,-35.0,-1,1.0,0.4153009999999995
414,3,0.8,0.25,-35.0,-1,1.0,0.42210099999988415
415,3,0.8,0.0625,-35.0,1,0.0,0.5789009999998598
416,3,0.8,0.0,-35.0,-1,1.0,0.3425010000000839
417,3,0.8,0.0625,-35.0,-1,1.0,0.31290100000001075
418,3,0.8,0.125,-35.0,-1,1.0,0.3862010000000282
419,3,0.8,0.125,-35.0,-1,1.0,0.21240099999999984
420,3,0.8,0.25,-35.0,-1,1.0,0.2693010000000413
421,3,0.8,0.25,-35.0,-1,1.0,0.22260099999994054
422,3,0.8,0.125,35.0,1,1.0,0.6531009999998787
423,3,0.8,0.25,-35.0,-1,1.0,0.1466009999999187
424,3,0.8,0.25,-35.0,-1,1.0,0.19950100000005477
425,3,0.8,0.25,-35.0,-1,1.0,0.06980099999987033
426,3,0.8,0.0625,-35.0,-1,1.0,0.20640099999991435
427,3,0.2,0.25,35.0,1,1.0,0.28330099999993763
428,3,0.2,0.0625,-35.0,1,0.0,0.1567010000001119
429,3,0.2,0.0,35.0,1,1.0,0.38340100000004895
430,3,0.2,0.0,35.0,1,1.0,0.2536009999998896
431,3,0.2,0.125,35.0,1,1.0,2.3336010000000442
432,3,0.2,0.0625,-35.0,-1,1.0,0.4271009999999933
433,3,0.2,0.125,35.0,1,1.0,0.2739009999997961
434,3,0.2,0.0,35.0,-1,0.0,0.3308009999998376
435,3,0.2,0.25,-35.0,-1,1.0,0.2375009999998383
436,3,0.2,0.25,35.0,1,1.0,0.14750099999992017
437,3,0.2,0.0,-35.0,-1,1.0,0.3309009999998125
438,3,0.2,0.0,35.0,1,1.0,0.5314009999997324
439,3,0.2,0.125,35.0,1,1.0,0.17780100000004495
440,3,0.2,0.25,35.0,1,1.0,0.23490100000003622
441,3,0.2,1.0,35.0,1,1.0,0.12450099999978192
442,3,0.2,0.0625,35.0,1,1.0,0.2214010000000144
443,3,0.2,0.125,-35.0,1,0.0,0.09150099999988015
444,3,0.2,0.0625,-35.0,1,0.0,0.448900999999978
445,3,0.2,0.25,-35.0,-1,1.0,0.3155010000000402
446,3,0.2,1.0,35.0,1,1.0,0.21840099999985796
447,3,0.2,1.0,35.0,1,1.0,0.16849999999976717
448,3,0.2,0.0625,35.0,1,1.0,0.2927009999998518
449,3,0.2,0.0625,-35.0,1,0.0,4.12190099999998
450,3,0.2,0.125,-35.0,-1,1.0,0.21240099999977247
451,3,0.2,0.125,35.0,1,1.0,0.22240099999999074
452,3,0.2,0.0625,-35.0,1,0.0,0.27920099999982995
453,3,0.2,0.25,35.0,1,1.0,0.32920100000001185
454,3,0.2,0.0,35.0,1,1.0,0.3026009999998678
455,3,0.2,1.0,35.0,1,1.0,0.2693010000000413
456,3,0.2,0.0625,35.0,1,1.0,0.24270099999989725
457,3,0.2,0.0625,35.0,1,1.0,0.2397009999999682
458,3,0.2,0.0,-35.0,1,0.0,0.1893009999998867
459,3,0.2,0.25,-35.0,-1,1.0,0.24650099999985287
460,3,0.2,1.0,35.0,1,1.0,0.20350099999996019
461,3,0.2,0.0625,35.0,1,1.0,0.30320099999994454
462,3,0.2,0.125,35.0,1,1.0,0.3100009999998292
463,3,0.2,0.0,35.0,1,1.0,4.453400999999985
464,3,0.2,1.0,-35.0,-1,1.0,0.2638009999998303
465,3,0.2,1.0,35.0,1,1.0,0.16699999999991633
466,3,0.2,1.0,-35.0,-1,1.0,0.28060099999993326
467,3,0.2,1.0,-35.0,-1,1.0,0.26040100000000166
468,3,0.2,1.0,35.0,1,1.0,0.20460099999991144
469,3,0.2,0.125,-35.0,-1,1.0,0.21070099999997183
470,3,0.2,0.125,35.0,1,1.0,0.5010010000000875
471,3,0.2,0.0,35.0,-1,0.0,1.7475010000000566
472,3,0.2,0.25,-35.0,-1,1.0,0.2977009999999609
473,3,0.2,0.125,35.0,1,1.0,0.22470099999986815
474,3,0.2,0.25,35.0,1,1.0,0.19460099999992053
475,3,0.8,0.25,-35.0,-1,1.0,0.28780099999971753
476,3,0.8,0.125,35.0,1,1.0,0.05510099999992235
477,3,0.8,0.25,-35.0,-1,1.0,0.19830099999990125
478,3,0.8,0.125,-35.0,-1,1.0,0.5082009999996444
479,3,0.8,0.25,-35.0,-1,1.0,0.26510099999995873
480,3,0.8,1.0,-35.0,-1,1.0,0.3289009999998598
481,3,0.8,0.125,35.0,1,1.0,0.205400999999938
482,3,0.8,0.125,-35.0,1,0.0,0.22200099999986378
483,3,0.8,0.0625,-35.0,-1,1.0,0.24220099999979539
484,3,0.8,1.0,-35.0,-1,1.0,0.24540099999990161
485,3,0.8,0.125,-35.0,-1,1.0,0.3323010000001432
486,3,0.8,0.25,35.0,1,1.0,0.24240099999997256
487,3,0.8,1.0,-35.0,-1,1.0,0.24260099999992235
488,3,0.8,0.25,-35.0,-1,1.0,0.24920099999985723
489,3,0.8,0.0,-35.0,-1,1.0,0.20290099999988342
490,3,0.8,1.0,-35.0,-1,1.0,0.23270099999990634
491,3,0.8,0.0625,-35.0,-1,1.0,1.3699009999997998
492,3,0.8,0.0625,-35.0,-1,1.0,0.38950099999988197
493,3,0.8,1.0,-35.0,-1,1.0,0.06330099999991035
494,3,0.8,0.125,-35.0,-1,1.0,0.10980100000006132
495,3,0.8,0.0625,-35.0,-1,1.0,0.29350099999987833
496,3,0.8,0.125,-35.0,-1,1.0,0.3064009999998234
497,3,0.8,0.25,-35.0,-1,1.0,0.2503009999998085
498,3,0.8,0.25,35.0,1,1.0,0.346800999999914
499,3,0.8,0.0625,-35.0,1,0.0,0.4207010000000082
500,3,0.8,0.125,-35.0,-1,1.0,0.3670009999998456
501,3,0.8,0.0625,35.0,1,1.0,0.4174009999996997
502,3,0.8,0.25,-35.0,-1,1.0,0.26040100000000166
503,3,0.8,0.125,-35.0,-1,1.0,0.22070099999996273
504,3,0.8,1.0,-35.0,-1,1.0,0.17770099999984268
505,3,0.8,0.0625,-35.0,-1,1.0,0.31760099999974045
506,3,0.8,1.0,-35.0,-1,1.0,0.18430100000000493
507,3,0.8,0.125,-35.0,-1,1.0,0.2684009999998125
508,3,0.8,1.0,-35.0,-1,1.0,0.4213009999998576
509,3,0.8,0.0625,-35.0,1,0.0,0.26110099999982594
510,3,0.8,0.0,35.0,-1,0.0,0.4818009999999049
511,3,0.8,0.0625,-35.0,-1,1.0,0.3486009999999169
512,3,0.8,0.0625,-35.0,-1,1.0,0.2381009999996877
513,3,0.2,0.125,-35.0,-1,1.0,0.43160100000000057
514,3,0.2,0.125,35.0,1,1.0,0.2822009999999864
515,3,0.2,0.0,-35.0,-1,1.0,0.27540099999987433
516,3,0.2,0.0,35.0,-1,0.0,0.47880099999997583
517,3,0.2,1.0,35.0,1,1.0,0.3721009999999296
518,3,0.2,0.25,35.0,1,1.0,0.24870099999975537
519,3,0.2,0.25,35.0,1,1.0,0.21570100000008097
520,3,0.2,1.0,-35.0,-1,1.0,0.2294010000000526
521,3,0.2,1.0,35.0,1,1.0,0.2557010000000446
522,3,0.2,0.125,35.0,1,1.0,0.13580099999990125
523,3,0.2,0.0625,35.0,1,1.0,0.6860009999998056
524,3,0.2,1.0,35.0,1,1.0,0.16590100000007624
525,3,0.2,1.0,-35.0,1,0.0,0.08930100000020502
526,3,0.2,0.25,35.0,1,1.0,0.3663010000000213
527,3,0.2,0.25,35.0,1,1.0,0.19620099999997365
528,3,0.2,0.25,-35.0,1,0.0,0.31950099999994563
529,3,0.2,0.25,35.0,1,1.0,0.40330100000005586
530,3,0.2,0.0625,-35.0,1,0.0,3.899801000000025
531,3,0.2,1.0,35.0,1,1.0,0.08020099999976082
532,3,0.2,1.0,35.0,1,1.0,0.16750100000012935
533,3,0.2,0.125,35.0,1,1.0,0.21020100000009734
534,3,0.2,0.25,35.0,1,1.0,0.24050099999976737
535,3,0.2,0.25,35.0,1,1.0,0.28040099999998347
536,3,0.2,1.0,35.0,1,1.0,0.157200999999759
537,3,0.2,0.125,35.0,1,1.0,0.11030099999993581
538,3,0.2,0.25,35.0,1,1.0,0.19070099999999002
539,3,0.2,0.0625,-35.0,-1,1.0,0.34730100000001585
540,3,0.2,0.0625,35.0,1,1.0,0.11760099999969498
541,3,0.2,0.125,35.0,1,1.0,0.19420099999979357
542,3,0.2,0.25,35.0,1,1.0,0.14420100000006641
543,3,0.2,0.25,35.0,1,1.0,0.3510009999997692
544,3,0.2,0.0625,35.0,1,1.0,0.8445010000000366
545,3,0.2,0.0,35.0,1,1.0,0.15800099999978556
546,3,0.2,0.25,-35.0,-1,1.0,0.2714009999999689
547,3,0.2,0.125,35.0,1,1.0,0.2948009999997794
548,3,0.2,0.25,35.0,1,1.0,0.2617009999999027
549,3,0.2,1.0,35.0,1,1.0,0.3484009999999671
550,3,0.2,1.0,35.0,1,1.0,0.23180100000013226
551,3,0.2,0.125,35.0,1,1.0,0.2519009999996342
552,3,0.8,0.0625,35.0,1,1.0,0.5320009999998092
553,3,0.8,0.0625,-35.0,-1,1.0,0.2687009999997372
554,3,0.8,0.25,-35.0,-1,1.0,2.0989009999998416
555,3,0.8,1.0,-35.0,-1,1.0,0.2091009999999187
556,3,0.8,1.0,-35.0,-1,1.0,0.20260099999995873
557,3,0.8,0.0,35.0,1,1.0,0.20270099999970626
558,3,0.8,1.0,-35.0,-1,1.0,0.2229010000000926
559,3,0.8,1.0,-35.0,-1,1.0,0.402800999999954
560,3,0.8,1.0,-35.0,-1,1.0,0.46290099999987433
561,3,0.8,0.0,-35.0,-1,1.0,0.14300099999968552
562,3,0.8,1.0,-35.0,-1,1.0,0.19640099999992344
563,3,0.8,0.125,-35.0,-1,1.0,0.25660099999981867
564,3,0.8,1.0,-35.0,-1,1.0,0.20330099999978302
565,3,0.8,0.0625,-35.0,-1,1.0,0.24670099999980266
566,3,0.8,1.0,-35.0,-1,1.0,0.17360099999996237
567,3,0.8,0.0,-35.0,-1,1.0,0.20030099999985396
568,3,0.8,0.0,-35.0,-1,1.0,0.4305010000000493
569,3,0.8,0.0,35.0,-1,0.0,0.3306009999996604
570,3,0.8,0.0625,-35.0,-1,1.0,2.407700999999861
571,3,0.8,1.0,35.0,1,1.0,0.06120099999998274
572,3,0.8,0.25,-35.0,-1,1.0,0.38760100000013153
573,3,0.2,0.25,35.0,1,1.0,0.3176009999999678
574,3,0.2,1.0,35.0,1,1.0,0.15110099999969862
575,3,0.2,1.0,35.0,1,1.0,0.1411009999997077
576,3,0.2,1.0,35.0,1,1.0,0.1912009999998645
577,3,0.2,0.0625,35.0,1,1.0,0.4113009999998667
578,3,0.2,0.25,35.0,1,1.0,0.1649009999998725
579,3,0.2,0.0625,35.0,-1,0.0,0.07480099999997947
580,3,0.2,0.0625,35.0,1,1.0,1.254901000000018
581,3,0.2,0.25,35.0,1,1.0,0.1918009999997139
582,3,0.2,0.0625,35.0,1,1.0,0.2884009999997943
583,3,0.2,0.125,35.0,1,1.0,0.28880100000014863
584,3,0.2,0.125,35.0,1,1.0,0.2620009999998274
585,3,0.2,0.0625,35.0,1,1.0,0.2654009999998834
586,3,0.2,0.0625,-35.0,1,0.0,0.26550099999963095
587,3,0.2,0.0,35.0,1,1.0,0.3056010000000242
588,3,0.2,0.125,35.0,1,1.0,0.25230099999998856
589,3,0.2,0.25,35.0,1,1.0,0.21240099999999984
590,3,0.2,1.0,-35.0,-1,1.0,0.2824009999999362
591,3,0.2,0.125,35.0,1,1.0,0.5193009999998139
592,3,0.2,0.0,35.0,1,1.0,0.3127009999998336
593,3,0.2,0.0,35.0,1,1.0,0.23280099999988124
594,3,0.2,0.0625,35.0,1,1.0,0.4530009999998583
595,3,0.2,0.0625,35.0,1,1.0,0.5964010000000144
596,3,0.2,0.25,-35.0,-1,1.0,0.30310099999974227
597,3,0.2,0.0625,35.0,1,1.0,0.23320099999978083
598,3,0.2,0.125,35.0,1,1.0,0.20350099999996019
599,3,0.2,1.0,35.0,1,1.0,0.10340099999984886
600,3,0.2,0.0,-35.0,-1,1.0,0.860100999999986
601,3,0.2,0.0625,-35.0,1,0.0,0.25030100000003586
602,3,0.2,0.0625,-35.0,-1,1.0,0.48040100000002894
603,3,0.2,0.25,35.0,1,1.0,0.20390099999985978
604,3,0.2,0.0625,-35.0,-1,1.0,0.23050100000000384
605,3,0.2,0.125,35.0,1,1.0,0.34070100000008097
606,3,0.2,0.25,-35.0,-1,1.0,-0.005899000000226806
607,3,0.2,0.0625,35.0,1,1.0,0.2409010000001217
608,3,0.2,0.25,35.0,1,1.0,0.39090100000021266
609,3,0.2,0.0625,35.0,1,1.0,0.5179010000001654
610,3,0.2,1.0,35.0,1,1.0,0.2079009999997652
611,3,0.2,0.0,35.0,-1,0.0,2.1713009999998576
612,3,0.2,0.0,35.0,-1,0.0,0.5648010000004433
613,3,0.2,0.0625,35.0,1,1.0,0.5017010000001392
614,3,0.2,0.25,35.0,1,1.0,0.23490099999980885
615,3,0.2,0.125,35.0,1,1.0,2.465100999999777
616,3,0.2,1.0,-35.0,-1,1.0,0.2520009999998365
617,3,0.2,1.0,35.0,1,1.0,0.15540099999998347
618,3,0.2,0.125,35.0,1,1.0,0.318800999999894
619,3,0.2,0.125,35.0,1,1.0,0.26560099999960585
620,3,0.2,1.0,35.0,1,1.0,0.23570099999960803
621,3,0.2,0.125,35.0,1,1.0,0.5024009999997361
622,3,0.2,0.0625,35.0,-1,0.0,0.20590099999981248
623,3,0.2,0.0625,-35.0,1,0.0,0.5393010000002505
624,3,0.2,0.125,35.0,1,1.0,0.5361010000001443
625,3,0.2,0.125,35.0,1,1.0,0.21630099999993035
626,3,0.2,0.0625,-35.0,1,0.0,0.7129009999998743
627,3,0.2,0.0,35.0,1,1.0,0.7763009999998758
628,3,0.2,0.25,-35.0,-1,1.0,0.5464009999996051
629,3,0.2,0.0,-35.0,1,0.0,0.08320099999991726
630,3,0.2,0.125,35.0,1,1.0,0.35330100000010134
631,3,0.2,0.125,35.0,1,1.0,0.22670100000004823
632,3,0.2,0.0625,35.0,1,1.0,0.2802010000000337
633,3,0.2,0.125,-35.0,-1,1.0,0.2369010000002163
634,3,0.2,1.0,-35.0,1,0.0,0.13699999999971624
635,3,0.2,0.25,35.0,1,1.0,0.2637009999998554
636,3,0.2,0.25,35.0,1,1.0,0.2971010000001115
637,3,0.8,0.0625,35.0,1,1.0,0.5939009999997324
638,3,0.8,0.25,-35.0,-1,1.0,0.3307009999998627
639,3,0.8,0.125,35.0,1,1.0,0.1274009999997361
640,3,0.8,0.125,-35.0,-1,1.0,0.4509010000001581
641,3,0.8,0.0,35.0,1,1.0,4.684400999999525
642,3,0.8,0.125,-35.0,-1,1.0,0.3078009999999267
643,3,0.8,0.0625,-35.0,-1,1.0,0.34790099999963786
644,3,0.8,0.25,-35.0,-1,1.0,0.26470100000005914
645,3,0.8,0.125,-35.0,-1,1.0,0.4414010000000417
646,3,0.8,0.25,-35.0,-1,1.0,0.1549009999998816
647,3,0.8,0.125,-35.0,-1,1.0,0.16510100000004968
648,3,0.8,1.0,-35.0,-1,1.0,0.21170100000017555
649,3,0.8,0.0625,35.0,1,1.0,0.3084009999997761
650,3,0.8,1.0,-35.0,-1,1.0,0.4587009999995644
651,3,0.8,0.25,-35.0,-1,1.0,0.15860099999963495
652,3,0.8,0.0,-35.0,-1,1.0,0.25220100000024104
653,3,0.8,0.25,-35.0,-1,1.0,0.1489010000000235
654,3,0.8,0.0625,35.0,1,1.0,0.6990009999999529
655,3,0.8,0.25,-35.0,-1,1.0,0.2457009999998263
656,3,0.8,1.0,-35.0,-1,1.0,0.23590100000001257
657,3,0.8,0.25,-35.0,-1,1.0,0.23590100000001257
658,3,0.8,0.25,35.0,1,1.0,0.7160009999997783
659,3,0.8,1.0,-35.0,-1,1.0,0.18270099999972444
660,3,0.8,1.0,-35.0,-1,1.0,0.849500999999691
661,3,0.8,0.25,-35.0,-1,1.0,0.19300099999964004
662,3,0.8,1.0,-35.0,-1,1.0,0.2363010000003669
663,3,0.8,0.25,35.0,1,1.0,0.26320099999975355
664,3,0.8,0.0625,35.0,1,1.0,0.33990099999982704
665,3,0.8,0.0625,-35.0,-1,1.0,0.5835010000000693
666,3,0.8,1.0,-35.0,-1,1.0,0.25010100000008606
667,3,0.8,0.25,-35.0,-1,1.0,0.25680099999999584
668,3,0.8,0.0,-35.0,-1,1.0,0.22690099999999802
669,3,0.8,0.25,-35.0,-1,1.0,0.19710099999974773
670,3,0.8,1.0,-35.0,-1,1.0,0.19710100000020248
671,3,0.8,0.25,-35.0,-1,1.0,0.4539009999998598
672,3,0.8,0.0625,-35.0,-1,1.0,0.28060099999993326
673,3,0.8,0.125,35.0,1,1.0,0.7907009999998991
674,3,0.8,0.0625,-35.0,-1,1.0,0.40420099999982995
675,3,0.8,0.125,-35.0,-1,1.0,0.21420099999977538
676,3,0.8,1.0,-35.0,-1,1.0,0.21440099999972517
677,3,0.8,0.125,-35.0,-1,1.0,0.26440099999990707
678,3,0.8,0.0,-35.0,-1,1.0,1.3577009999999063
679,3,0.8,0.25,-35.0,-1,1.0,0.5447009999998045
680,3,0.8,0.0,-35.0,-1,1.0,2.974800999999843
681,3,0.8,0.0625,-35.0,1,0.0,0.4917009999999209
682,3,0.8,0.125,-35.0,1,0.0,0.1483010000001741
683,3,0.8,0.0625,-35.0,-1,1.0,2.845100999999886
684,3,0.8,0.0625,35.0,-1,0.0,0.18860099999983504
685,3,0.8,0.0625,-35.0,-1,1.0,0.3655009999997674
686,3,0.8,0.0625,-35.0,-1,1.0,0.29890100000011444
687,3,0.8,0.0625,-35.0,1,0.0,0.1489010000000235
688,3,0.8,0.25,-35.0,-1,1.0,0.2556009999998423
689,3,0.8,0.25,-35.0,-1,1.0,0.13570100000015373
690,3,0.8,0.125,-35.0,-1,1.0,0.23570100000006278
691,3,0.8,0.25,35.0,1,1.0,0.31930099999999584
692,3,0.8,0.125,-35.0,-1,1.0,0.2927009999998518
693,3,0.8,1.0,-35.0,-1,1.0,0.1994009999998525
694,3,0.8,0.125,-35.0,-1,1.0,0.2962009999996553
695,3,0.8,0.0625,-35.0,-1,1.0,0.48620100000016464
696,3,0.8,0.125,-35.0,-1,1.0,0.23290099999985614
697,3,0.8,0.25,35.0,1,1.0,0.2931010000002061
698,3,0.8,0.0625,35.0,1,1.0,0.5732010000001537
699,3,0.8,0.0,-35.0,-1,1.0,1.8466009999997368
700,3,0.8,0.0625,35.0,-1,0.0,0.5333009999999376
701,3,0.8,0.25,-35.0,-1,1.0,0.4170009999998001
702,3,0.8,0.0,-35.0,1,0.0,2.1669010000000526
703,3,0.8,0.0625,-35.0,-1,1.0,0.290400999999747
704,3,0.8,0.0,-35.0,1,0.0,1.5238009999998212
705,3,0.8,1.0,-35.0,-1,1.0,0.267301000000316
706,3,0.8,0.0,-35.0,-1,1.0,0.19730100000015227
707,3,0.8,0.25,-35.0,-1,1.0,0.2007010000002083
708,3,0.8,0.25,-35.0,-1,1.0,0.2342009999997572
709,3,0.8,0.25,-35.0,-1,1.0,0.2409010000001217
710,3,0.8,0.125,-35.0,1,0.0,0.08100100000001476
711,3,0.8,0.0,35.0,-1,0.0,2.297700999999961
712,3,0.8,0.0,-35.0,-1,1.0,0.20460099999991144
713,3,0.8,1.0,-35.0,-1,1.0,0.2047010000001137
714,3,0.8,0.125,-35.0,-1,1.0,0.25130099999978484
715,3,0.8,0.25,-35.0,-1,1.0,0.3147009999997863
716,3,0.8,1.0,-35.0,-1,1.0,0.27140099999951417
717,3,0.8,0.125,-35.0,-1,1.0,0.45830100000011953
718,3,0.8,0.0625,-35.0,-1,1.0,0.22170099999993909
719,3,0.8,0.25,-35.0,-1,1.0,0.2585009999997965
720,3,0.8,0.0625,-35.0,-1,1.0,2.6052009999998518
721,3,0.8,0.125,35.0,-1,0.0,0.15540099999998347
722,3,0.8,0.125,35.0,1,1.0,0.49890099999993254
723,3,0.8,1.0,-35.0,-1,1.0,0.2489009999994778
724,3,0.8,0.25,35.0,1,1.0,0.2657009999998081
725,3,0.2,0.0,-35.0,-1,1.0,0.2892010000000482
726,3,0.2,0.125,-35.0,-1,1.0,3.849101000000246
727,3,0.2,0.0,35.0,-1,0.0,0.6093009999995047
728,3,0.2,0.125,35.0,1,1.0,0.4594010000000708
729,3,0.2,0.125,35.0,1,1.0,0.5128009999993992
730,3,0.2,0.125,-35.0,-1,1.0,0.3196010000001479
731,3,0.2,1.0,-35.0,-1,1.0,0.28300099999978556
732,3,0.2,0.25,35.0,1,1.0,0.3966009999999187
733,3,0.2,1.0,35.0,1,1.0,0.5232009999999718
734,3,0.2,1.0,-35.0,-1,1.0,0.24000100000012026
735,3,0.2,0.125,-35.0,-1,1.0,0.34330099999988306
736,3,0.2,0.0,35.0,1,1.0,2.2434009999997215
737,3,0.2,1.0,-35.0,-1,1.0,0.5903009999997266
738,3,0.2,0.125,-35.0,-1,1.0,0.6437009999995098
739,3,0.2,0.0,-35.0,1,0.0,0.29050099999994927
740,3,0.2,0.0625,35.0,1,1.0,0.6373009999997521
741,3,0.2,1.0,35.0,1,1.0,0.2373010000001159
742,3,0.2,1.0,35.0,1,1.0,0.2141009999995731
743,3,0.2,0.25,-35.0,-1,1.0,0.350800999999592
744,3,0.2,0.125,35.0,1,1.0,0.3909009999997579
745,3,0.2,1.0,35.0,1,1.0,0.5477009999995062
746,3,0.2,0.0625,35.0,1,1.0,4.774300999999923
747,3,0.2,0.0625,-35.0,-1,1.0,7.344600999999784
748,3,0.2,0.25,35.0,1,1.0,0.2815009999999347
749,3,0.2,0.25,35.0,1,1.0,0.4083010000003924
750,3,0.2,0.0,-35.0,1,0.0,3.8083010000000286
751,3,0.2,0.25,35.0,1,1.0,0.4052010000000337
752,3,0.2,0.25,35.0,1,1.0,0.2785009999997783
753,3,0.2,0.25,-35.0,-1,1.0,0.28550099999984013
754,3,0.2,0.0625,35.0,1,1.0,1.10870100000011
755,3,0.2,0.0625,-35.0,-1,1.0,0.21210100000007515
756,3,0.2,0.25,-35.0,-1,1.0,0.6689010000000053
757,3,0.2,0.0,35.0,-1,0.0,2.6357010000001537
758,3,0.2,0.25,35.0,1,1.0,0.5693009999999958
759,3,0.2,0.25,35.0,-1,0.0,0.15920099999993909
760,3,0.2,0.125,35.0,1,1.0,3.052600999999868
761,3,0.2,0.125,35.0,1,1.0,0.5296009999997295
762,3,0.2,1.0,35.0,1,1.0,0.16290099999969243
763,3,0.2,0.25,-35.0,-1,1.0,0.353001000000404
764,3,0.2,0.25,35.0,1,1.0,0.5300010000000839
765,3,0.2,0.125,35.0,1,1.0,0.430800999999974
766,3,0.2,1.0,-35.0,-1,1.0,0.3135010000000875
767,3,0.2,0.0,35.0,-1,0.0,0.056600999999773194
768,3,0.2,0.125,35.0,1,1.0,3.080601000000115
769,3,0.2,0.0625,-35.0,-1,1.0,0.29720099999985905
770,3,0.2,0.25,35.0,1,1.0,0.12040099999967424
771,3,0.2,1.0,35.0,1,1.0,0.3174010000002454
772,3,0.2,0.25,35.0,1,1.0,0.5239010000000235
773,3,0.2,1.0,35.0,1,1.0,0.26060099999995145
774,3,0.2,0.0,35.0,1,1.0,0.7611010000000533
775,3,0.2,0.25,35.0,1,1.0,0.23080099999970116
776,3,0.2,0.125,35.0,1,1.0,0.4041010000000824
777,3,0.2,0.25,35.0,1,1.0,0.2012009999998554
778,3,0.2,0.25,35.0,1,1.0,0.48470099999985905
779,3,0.2,0.0625,35.0,1,1.0,0.5047009999998409
780,3,0.2,1.0,35.0,1,1.0,0.2815009999999347
781,3,0.2,0.25,35.0,1,1.0,0.36190099999976155
782,3,0.2,0.125,35.0,1,1.0,0.624800999999934
783,3,0.2,0.25,35.0,1,1.0,4.004700999999841
784,3,0.8,0.0,-35.0,1,0.0,0.29550099999960366
785,3,0.8,0.0,35.0,-1,0.0,0.6617010000004484
786,3,0.8,0.0,35.0,1,1.0,0.7019009999999071
787,3,0.8,0.0625,-35.0,1,0.0,4.0351009999999405
788,3,0.8,0.0625,-35.0,1,0.0,0.12200099999972736
789,3,0.8,0.25,-35.0,-1,1.0,0.635700999999699
790,3,0.8,0.25,-35.0,-1,1.0,0.982101000000057
791,3,0.8,0.0,-35.0,-1,1.0,0.11930100000017774
792,3,0.8,0.0,-35.0,-1,1.0,0.8257010000002083
793,3,0.8,1.0,35.0,1,1.0,0.35580099999970116
794,3,0.8,0.125,-35.0,-1,1.0,0.2364009999996597
795,3,0.8,0.0625,-35.0,-1,1.0,0.28570099999978993
796,3,0.8,0.0625,35.0,1,1.0,0.7494010000000344
797,3,0.8,0.125,35.0,1,1.0,0.47280099999989034
798,3,0.8,0.125,-35.0,-1,1.0,0.25650099999984377
799,3,0.8,0.0625,-35.0,-1,1.0,0.10340099999984886
800,3,0.8,0.0625,-35.0,-1,1.0,0.09980099999984304
801,3,0.8,0.125,-35.0,-1,1.0,0.7332010000000082
802,3,0.8,1.0,-35.0,-1,1.0,0.34960099999989325
803,3,0.8,0.25,35.0,1,1.0,0.2565010000002985
804,3,0.8,0.25,-35.0,-1,1.0,0.35010099999954036
805,3,0.8,0.125,-35.0,-1,1.0,0.29350099999965096
806,3,0.8,0.0625,-35.0,-1,1.0,0.36020099999950617
807,3,0.8,0.125,-35.0,-1,1.0,0.48710099999971135
808,3,0.8,0.125,-35.0,-1,1.0,0.2937010000000555
809,3,0.8,0.25,-35.0,-1,1.0,0.24070100000017192
810,3,0.8,0.0625,-35.0,-1,1.0,0.19070099999999002
811,3,0.8,1.0,35.0,1,1.0,0.2640010000000075
812,3,0.8,1.0,35.0,1,1.0,0.311301000000185
813,3,0.8,0.125,35.0,1,1.0,2.551400000000285
814,3,0.8,0.0,-35.0,-1,1.0,0.2577009999999973
815,3,0.8,0.125,-35.0,-1,1.0,0.29760099999975864
816,3,0.8,1.0,35.0,1,1.0,0.26440099999990707
817,3,0.8,0.0625,-35.0,-1,1.0,6.4385010000000875
818,3,0.8,0.0625,35.0,-1,0.0,0.4313010000000759
819,3,0.8,0.0,-35.0,-1,1.0,0.30490099999997256
820,3,0.8,0.25,-35.0,-1,1.0,0.5782010000002629
821,3,0.8,0.0625,-35.0,-1,1.0,0.7048009999998612
822,3,0.8,0.125,35.0,1,1.0,0.27900099999988015
823,3,0.8,0.25,-35.0,-1,1.0,0.405500999999731
824,3,0.8,0.125,-35.0,1,0.0,3.3619010000002163
825,3,0.8,1.0,-35.0,-1,1.0,0.30890099999987797
826,3,0.8,1.0,-35.0,-1,1.0,0.19549999999935608
827,3,0.8,0.0625,35.0,1,1.0,0.6855009999999311
828,3,0.8,0.0,-35.0,-1,1.0,0.22900099999969825
829,3,0.8,1.0,-35.0,-1,1.0,0.27900099999988015
830,3,0.8,0.0625,-35.0,1,0.0,0.5556010000000242
831,3,0.8,0.25,-35.0,-1,1.0,0.10230099999989761
832,3,0.8,1.0,35.0,1,1.0,0.35580099999970116
833,3,0.8,0.0625,-35.0,-1,1.0,0.33290099999931044
834,3,0.8,0.0625,-35.0,-1,1.0,0.2459009999997761
835,3,0.8,0.25,-35.0,-1,1.0,0.34920099999999366
836,3,0.8,0.25,-35.0,-1,1.0,3.089600999999675
837,3,0.8,0.25,-35.0,1,0.0,3.1429009999997106
838,3,0.8,0.25,-35.0,-1,1.0,2.113300999999865
839,3,0.8,0.0625,-35.0,-1,1.0,3.5699009999993905
840,3,0.8,0.25,-35.0,-1,1.0,0.46670099999982995
841,3,0.8,1.0,35.0,1,1.0,0.10380099999974846
842,3,0.8,0.0,35.0,1,1.0,1.5533009999999194
843,3,0.8,0.125,-35.0,-1,1.0,2.403501000000233
844,3,0.8,0.0,-35.0,-1,1.0,0.28050100000018574
845,3,0.8,1.0,-35.0,-1,1.0,0.07080099999984668
846,3,0.8,0.25,-35.0,-1,1.0,0.3572009999998045
847,3,0.8,0.25,-35.0,-1,1.0,0.5711009999999987
848,3,0.8,0.0625,-35.0,-1,1.0,0.2373010000001159
849,3,0.8,0.0625,-35.0,-1,1.0,0.25090099999988524
850,3,0.8,1.0,35.0,1,1.0,0.26060099999995145
851,3,0.8,1.0,-35.0,-1,1.0,0.20430100000021412
852,3,0.8,0.25,-35.0,-1,1.0,0.27440100000012535
853,3,0.8,0.125,-35.0,-1,1.0,0.19450099999994563
854,3,0.8,0.125,-35.0,-1,1.0,0.29430099999945014
855,3,0.8,0.0,-35.0,-1,1.0,0.8412010000001828
856,3,0.8,0.0625,-35.0,-1,1.0,2.6481010000002243
857,3,0.8,0.25,-35.0,-1,1.0,0.30160099999966405
858,3,0.8,0.0625,-35.0,-1,1.0,0.3247009999995498
859,3,0.8,0.25,-35.0,1,0.0,0.43850099999963277
860,3,0.8,1.0,-35.0,-1,1.0,0.44200099999989106
861,3,0.8,0.125,-35.0,-1,1.0,0.25530099999969025
862,3,0.8,1.0,-35.0,-1,1.0,0.31890100000009625
863,3,0.8,0.0,-35.0,1,0.0,0.4251009999998132
864,3,0.8,0.25,35.0,1,1.0,0.4654009999999289
865,3,0.8,1.0,35.0,1,1.0,0.27930099999957747
866,3,0.8,0.25,-35.0,-1,1.0,0.20870100000001912
867,3,0.8,0.125,35.0,1,1.0,0.3025009999996655
868,3,0.8,0.25,-35.0,-1,1.0,0.2356009999998605
869,3,0.8,0.0,-35.0,-1,1.0,2.5656009999997877
870,3,0.2,0.125,35.0,1,1.0,0.30230100000017046
871,3,0.2,0.25,-35.0,-1,1.0,0.419800999999552
872,3,0.2,1.0,35.0,1,1.0,0.3232999999995627
873,3,0.2,0.0625,35.0,1,1.0,0.2826010000003407
874,3,0.2,0.25,35.0,1,1.0,0.3566009999999551
875,3,0.2,1.0,35.0,1,1.0,0.27290099999981976
876,3,0.2,0.0625,35.0,1,1.0,0.289400999999998
877,3,0.2,0.25,35.0,1,1.0,1.8700009999997746
878,3,0.2,0.125,35.0,1,1.0,0.4929010000000744
879,3,0.2,0.0625,35.0,1,1.0,0.5499010000003182
880,3,0.2,1.0,35.0,1,1.0,0.256300999999894
881,3,0.2,1.0,35.0,1,1.0,0.35000099999979284
882,3,0.2,0.125,35.0,1,1.0,0.3701009999999769
883,3,0.2,0.125,35.0,1,1.0,1.0800010000002658
884,3,0.2,0.125,35.0,1,1.0,2.5400009999998474
885,3,0.2,0.0625,35.0,1,1.0,0.4573009999999158
886,3,0.2,0.25,35.0,1,1.0,0.2879010000001472
887,3,0.2,0.125,35.0,1,1.0,0.34390099999973245
888,3,0.2,0.125,35.0,1,1.0,0.3440009999999347
889,3,0.2,0.125,35.0,1,1.0,3.164100999999846
890,3,0.2,0.0625,35.0,1,1.0,2.7575010000000475
891,3,0.2,0.125,-35.0,1,0.0,1.0008010000001377
892,3,0.2,0.25,35.0,1,1.0,0.3645010000000184
893,3,0.2,1.0,35.0,1,1.0,0.3242009999999027
894,3,0.2,1.0,35.0,1,1.0,0.3083010000000286
895,3,0.2,0.0,35.0,-1,0.0,0.5683010000002469
896,3,0.2,0.125,35.0,1,1.0,1.151100999999926
897,3,0.2,0.0625,35.0,1,1.0,0.3212009999997463
898,3,0.2,0.25,35.0,1,1.0,0.3286009999997077
899,3,0.2,1.0,35.0,1,1.0,0.3549009999996997
900,3,0.2,0.25,35.0,1,1.0,0.40180099999997765
901,3,0.2,1.0,35.0,1,1.0,0.27180099999941376
902,3,0.2,1.0,35.0,1,1.0,2.4418009999999413
903,3,0.2,0.25,35.0,1,1.0,0.3061010000001261
904,3,0.2,0.125,35.0,1,1.0,0.3053010000003269
905,3,0.2,0.125,35.0,1,1.0,0.32230100000015227
906,3,0.2,0.25,35.0,1,1.0,0.23250099999995655
907,3,0.2,0.25,35.0,1,1.0,0.5088009999994938
908,3,0.2,1.0,35.0,1,1.0,4.832300999999916
909,3,0.2,0.0,35.0,1,1.0,1.6288010000002942
910,3,0.2,0.125,35.0,1,1.0,0.47260099999994054
911,3,0.2,0.0625,-35.0,-1,1.0,0.4965009999996255
912,3,0.2,0.0625,35.0,1,1.0,1.2692009999996117
913,3,0.2,1.0,35.0,1,1.0,0.6430009999999129
914,3,0.2,0.25,35.0,1,1.0,0.23310099999980594
915,3,0.2,1.0,35.0,1,1.0,2.7129009999998743
916,3,0.2,1.0,35.0,1,1.0,0.3596010000001115
917,3,0.2,1.0,35.0,1,1.0,0.4829010000003109
918,3,0.2,0.25,35.0,1,1.0,2.536200999999892
919,3,0.2,0.0625,35.0,1,1.0,0.6705010000000584
920,3,0.2,0.25,35.0,1,1.0,0.2700009999998656
921,3,0.2,0.0625,35.0,1,1.0,5.240800999999919
922,3,0.2,0.125,35.0,1,1.0,0.24710100000038437
923,3,0.2,0.0625,35.0,1,1.0,2.693600999999944
924,3,0.2,0.0625,35.0,-1,0.0,0.3777009999994334
925,3,0.2,0.0,35.0,1,1.0,2.740801000000374
926,3,0.2,0.25,-35.0,-1,1.0,5.150900999999976
927,3,0.2,0.25,35.0,1,1.0,4.270800999999665
928,3,0.2,1.0,35.0,1,1.0,0.36110099999996237
929,3,0.2,0.25,-35.0,1,0.0,10.464500999999473
930,3,0.2,0.25,35.0,-1,0.0,0.8252009999996517
931,3,0.2,0.125,35.0,1,1.0,8.04850099999976
932,3,0.2,0.0625,-35.0,1,0.0,7.475200999999743
933,3,0.2,1.0,35.0,1,1.0,3.269100999999864
934,3,0.8,0.0625,35.0,1,1.0,7.856000999999651
935,3,0.8,1.0,-35.0,-1,1.0,0.2226010000003953
936,3,0.8,0.125,-35.0,-1,1.0,0.256300999999894
937,3,0.8,0.25,-35.0,-1,1.0,0.3161009999998896
938,3,0.8,0.0625,-35.0,-1,1.0,6.319400999999743
1,4,0.5,0.0625,35.0,1,1.0,0.4667000000000001
2,4,0.5,1.0,35.0,1,1.0,0.20959999999999912
3,4,0.5,0.25,35.0,1,1.0,0.36799999999999855
4,4,0.5,1.0,-35.0,-1,1.0,4.0356999999999985
5,4,0.5,0.0,-35.0,1,0.0,0.41789999999999594
6,4,0.5,0.125,35.0,1,1.0,0.38189999999999813
7,4,0.5,0.25,-35.0,-1,1.0,0.14290000000000092
8,4,0.5,0.0625,-35.0,1,0.0,1.0581999999999994
9,4,0.5,0.0625,35.0,-1,0.0,1.1172999999999966
10,4,0.5,0.0,35.0,-1,0.0,0.2353999999999985
11,4,0.5,1.0,35.0,1,1.0,0.21589999999999776
12,4,0.5,0.0625,35.0,1,1.0,0.24269999999999925
13,4,0.5,0.0,-35.0,1,0.0,0.18139999999999645
14,4,0.5,0.0,-35.0,1,0.0,1.7497000000000043
15,4,0.5,0.125,-35.0,-1,1.0,0.24029999999999774
16,4,0.5,0.0,35.0,-1,0.0,0.4677999999999969
17,4,0.5,0.25,-35.0,-1,1.0,0.18420000000000414
18,4,0.5,0.125,35.0,1,1.0,0.40969999999999374
19,4,0.5,0.25,35.0,1,1.0,0.4824000000000126
20,4,0.5,0.0,35.0,1,1.0,2.4491000000000014
21,4,0.5,0.0,-35.0,-1,1.0,1.0808999999999997
22,4,0.5,1.0,35.0,1,1.0,0.3452000000000055
23,4,0.5,0.125,-35.0,-1,1.0,0.28659999999999286
24,4,0.5,0.25,35.0,1,1.0,0.18950000000000955
25,4,0.5,0.125,-35.0,-1,1.0,0.2009000000000043
26,4,0.5,0.125,-35.0,-1,1.0,0.36489999999999156
27,4,0.5,0.125,-35.0,-1,1.0,0.20539999999999736
28,4,0.5,0.25,-35.0,-1,1.0,0.20629999999999882
29,4,0.5,0.0625,-35.0,-1,1.0,2.5604000000000013
30,4,0.5,1.0,-35.0,-1,1.0,0.29940000000000566
31,4,0.5,0.25,-35.0,-1,1.0,0.23200000000001353
32,4,0.5,0.0,35.0,-1,0.0,3.7121999999999957
33,4,0.5,0.25,35.0,1,1.0,0.531400000000005
34,4,0.5,0.0625,-35.0,1,0.0,2.817700000000002
35,4,0.5,1.0,-35.0,-1,1.0,1.7981000000000051
36,4,0.5,0.125,-35.0,-1,1.0,0.2868999999999886
37,4,0.5,0.25,35.0,1,1.0,1.144500000000022
38,4,0.5,0.25,35.0,-1,0.0,3.483399999999989
39,4,0.5,0.25,-35.0,-1,1.0,0.23929999999998586
40,4,0.5,0.125,35.0,1,1.0,0.7716000000000065
41,4,0.5,1.0,35.0,1,1.0,0.271000000000015
42,4,0.5,0.25,-35.0,-1,1.0,0.19870000000000232
43,4,0.5,1.0,35.0,1,1.0,0.26189999999999714
44,4,0.5,0.25,35.0,-1,0.0,0.17689999999998918
45,4,0.5,0.0625,35.0,-1,0.0,0.740300000000019
46,4,0.5,0.125,35.0,1,1.0,0.4953999999999894
47,4,0.5,0.25,-35.0,-1,1.0,0.2155999999999949
48,4,0.5,1.0,-35.0,-1,1.0,0.2487000000000137
49,4,0.5,0.0625,-35.0,1,0.0,3.382800000000003
50,4,0.5,0.0625,35.0,1,1.0,0.9449999999999932
51,4,0.5,0.0,-35.0,1,0.0,3.1110999999999933
52,4,0.5,0.0625,35.0,1,1.0,0.21309999999999718
53,4,0.5,0.0,-35.0,-1,1.0,0.5259000000000356
54,4,0.5,0.25,-35.0,-1,1.0,0.31730000000001723
55,4,0.5,0.25,35.0,1,1.0,0.3977999999999895
56,4,0.5,0.0,-35.0,-1,1.0,0.2679000000000258
57,4,0.5,0.25,-35.0,-1,1.0,0.25679999999999836
58,4,0.5,0.125,-35.0,-1,1.0,0.26400000000001
59,4,0.5,1.0,35.0,1,1.0,0.410000000000025
60,4,0.5,0.0625,-35.0,-1,1.0,0.7710999999999899
61,4,0.5,1.0,35.0,1,1.0,0.30270000000001573
62,4,0.5,0.125,-35.0,-1,1.0,0.7224000000000217
63,4,0.5,0.0625,35.0,1,1.0,0.6880000000000166
64,4,0.5,0.25,-35.0,-1,1.0,0.2108000000000061
65,4,0.5,0.25,35.0,1,1.0,0.4779000000000053
66,4,0.5,0.25,35.0,1,1.0,0.4765999999999906
67,4,0.5,0.25,-35.0,-1,1.0,0.27729999999999677
68,4,0.5,0.25,-35.0,-1,1.0,0.2609000000000208
69,4,0.5,0.25,-35.0,-1,1.0,0.3108000000000004
70,4,0.5,1.0,-35.0,-1,1.0,0.2960000000000207
71,4,0.5,0.25,-35.0,-1,1.0,2.0563999999999965
72,4,0.5,0.0,-35.0,-1,1.0,2.2269000000000005
73,4,0.5,0.25,35.0,1,1.0,0.23149999999998272
74,4,0.5,0.0625,-35.0,-1,1.0,0.25910000000001787
75,4,0.5,0.0625,35.0,-1,0.0,0.19050000000001432
76,4,0.5,0.25,-35.0,-1,1.0,0.428100000000029
77,4,0.5,0.125,-35.0,-1,1.0,0.26039999999997576
78,4,0.5,0.125,35.0,1,1.0,0.25679999999999836
79,4,0.5,0.25,-35.0,-1,1.0,0.23290000000000077
80,4,0.5,0.25,-35.0,-1,1.0,0.227800000000002
81,4,0.5,0.125,-35.0,-1,1.0,0.25840000000002306
82,4,0.5,0.125,-35.0,-1,1.0,0.30040000000002465
83,4,0.5,0.0625,-35.0,-1,1.0,0.36429999999998586
84,4,0.5,1.0,-35.0,-1,1.0,0.23950000000002092
85,4,0.5,1.0,-35.0,-1,1.0,0.23849999999998772
86,4,0.5,0.25,35.0,1,1.0,0.49720000000002074
87,4,0.5,0.0,-35.0,-1,1.0,0.22900000000004184
88,4,0.5,1.0,35.0,1,1.0,0.3100000000000591
89,4,0.5,0.125,-35.0,-1,1.0,0.29970000000002983
90,4,0.5,0.0625,35.0,1,1.0,0.16629999999997835
91,4,0.8,0.125,-35.0,-1,1.0,0.2640999999999849
92,4,0.8,1.0,-35.0,-1,1.0,0.14519999999998845
93,4,0.8,0.125,-35.0,-1,1.0,0.10039999999997917
94,4,0.8,0.0625,-35.0,-1,1.0,0.434599999999989
95,4,0.8,0.125,-35.0,-1,1.0,0.26940000000001874
