trial_num,session_num,stim_probability_left,contrast,position,response_choice,trial_correct,reaction_time
1,1,0.8,0.0625,-35.0,1,0.0,0.33399999999999996
2,1,0.8,1.0,-35.0,-1,1.0,0.34070000000000045
3,1,0.8,0.125,-35.0,-1,1.0,0.26899999999999924
4,1,0.8,0.25,35.0,1,1.0,0.21879999999999988
5,1,0.8,0.25,-35.0,-1,1.0,0.3451000000000004
6,1,0.8,0.0625,-35.0,1,0.0,0.22210000000000107
7,1,0.8,0.0625,-35.0,-1,1.0,3.974400000000003
8,1,0.8,0.125,-35.0,-1,1.0,0.2406000000000006
9,1,0.8,0.0,-35.0,-1,1.0,4.011900000000001
10,1,0.8,0.125,-35.0,-1,1.0,0.21920000000000073
11,1,0.8,0.125,-35.0,-1,1.0,0.3258000000000081
12,1,0.8,0.25,-35.0,-1,1.0,0.7751999999999981
13,1,0.8,0.25,35.0,-1,0.0,5.294699999999999
14,1,0.8,0.25,-35.0,-1,1.0,0.2050000000000054
15,1,0.8,0.0625,35.0,-1,0.0,0.20819900000000757
16,1,0.8,0.25,-35.0,-1,1.0,0.24279999999999546
17,1,0.8,1.0,-35.0,-1,1.0,0.20579999999999643
18,1,0.8,0.125,-35.0,-1,1.0,0.9008999999999929
19,1,0.8,0.0625,-35.0,-1,1.0,0.23939999999998918
20,1,0.8,0.0625,-35.0,-1,1.0,0.7577999999999889
21,1,0.8,0.0625,-35.0,1,0.0,0.32389999999999475
22,1,0.8,0.25,-35.0,-1,1.0,0.18739999999998247
23,1,0.8,0.125,35.0,1,1.0,0.3363999999999976
24,1,0.8,0.25,-35.0,-1,1.0,0.2009999999999934
25,1,0.8,0.125,-35.0,-1,1.0,0.23869999999999436
26,1,0.8,1.0,-35.0,-1,1.0,0.1839999999999833
27,1,0.8,0.125,-35.0,-1,1.0,0.29929999999998813
28,1,0.8,0.125,-35.0,-1,1.0,0.31390000000000384
29,1,0.8,0.0625,35.0,-1,0.0,0.3941999999999979
30,1,0.8,0.125,-35.0,-1,1.0,0.24369900000000655
31,1,0.8,0.25,-35.0,-1,1.0,0.31819999999999027
32,1,0.8,0.0625,-35.0,-1,1.0,0.9399999999999977
33,1,0.8,0.25,-35.0,-1,1.0,0.2196999999999889
34,1,0.8,0.125,-35.0,-1,1.0,0.21289999999999054
35,1,0.8,0.0,-35.0,-1,1.0,0.28530000000000655
36,1,0.8,0.125,-35.0,-1,1.0,0.1967999999999961
37,1,0.8,0.0625,35.0,1,1.0,0.4241000000000099
38,1,0.2,0.0625,35.0,1,1.0,0.4198000000000377
39,1,0.2,0.25,35.0,1,1.0,0.3503000000000043
40,1,0.2,0.0625,35.0,1,1.0,0.3639000000000294
41,1,0.2,0.25,-35.0,-1,1.0,0.2376000000000147
42,1,0.2,0.0,35.0,-1,0.0,0.9164000000000101
43,1,0.2,1.0,-35.0,-1,1.0,0.20860000000001833
44,1,0.2,0.0625,35.0,1,1.0,1.3854000000000042
45,1,0.2,0.0625,35.0,1,1.0,0.42500000000001137
46,1,0.2,0.25,35.0,1,1.0,0.2871000000000379
47,1,0.2,0.0625,35.0,1,1.0,0.8425000000000011
48,1,0.2,1.0,35.0,1,1.0,0.2767000000000053
49,1,0.2,1.0,35.0,1,1.0,0.2796999999999912
50,1,0.2,1.0,35.0,1,1.0,0.2670999999999992
51,1,0.2,1.0,35.0,1,1.0,0.2213999999999885
52,1,0.2,0.25,-35.0,-1,1.0,0.2767000000000053
53,1,0.2,0.0,35.0,-1,0.0,12.05710000000002
54,1,0.2,0.0625,-35.0,-1,1.0,0.9620000000000175
55,1,0.2,0.25,-35.0,1,0.0,0.9464000000000112
56,1,0.2,0.25,35.0,1,1.0,1.0559000000000083
57,1,0.2,0.125,35.0,-1,0.0,3.522500000000008
58,1,0.2,0.125,-35.0,-1,1.0,0.2487000000000421
59,1,0.2,0.0,35.0,1,1.0,0.9499000000000137
60,1,0.2,0.125,35.0,1,1.0,1.2136000000000138
61,1,0.2,0.25,35.0,1,1.0,0.2913000000000068
62,1,0.2,0.125,35.0,-1,0.0,4.234900000000039
63,1,0.2,0.25,35.0,1,1.0,0.853100000000012
64,1,0.2,1.0,35.0,1,1.0,0.4790999999999883
65,1,0.2,0.25,35.0,1,1.0,0.29980000000003315
66,1,0.2,0.0625,-35.0,-1,1.0,0.36179999999998813
67,1,0.2,0.0625,35.0,-1,0.0,0.2814000000000192
68,1,0.2,0.25,35.0,1,1.0,0.8490999999999644
69,1,0.2,0.25,35.0,1,1.0,0.2545999999999822
70,1,0.2,0.0625,35.0,1,1.0,5.4979000000000156
71,1,0.2,1.0,-35.0,-1,1.0,0.24300000000005184
72,1,0.2,0.125,-35.0,-1,1.0,6.551999999999964
73,1,0.2,0.125,-35.0,-1,1.0,0.2524999999999977
74,1,0.2,0.0625,-35.0,-1,1.0,0.22779999999994516
75,1,0.2,1.0,35.0,1,1.0,0.4625000000000341
76,1,0.2,0.125,35.0,1,1.0,0.8645000000000209
77,1,0.2,0.25,35.0,-1,0.0,4.227600000000052
78,1,0.2,1.0,35.0,1,1.0,1.0423000000000116
79,1,0.2,1.0,35.0,1,1.0,0.3496000000000663
80,1,0.2,0.25,-35.0,-1,1.0,0.29560000000003583
81,1,0.8,1.0,-35.0,-1,1.0,0.1592000000000553
82,1,0.8,0.0,-35.0,-1,1.0,0.23579999999998336
83,1,0.8,0.25,35.0,-1,0.0,0.24930000000000518
84,1,0.8,1.0,-35.0,-1,1.0,0.23869999999993752
85,1,0.8,0.25,-35.0,-1,1.0,0.26190000000002556
86,1,0.8,0.25,35.0,1,1.0,0.2366000000000099
87,1,0.8,0.125,35.0,1,1.0,4.835499999999968
88,1,0.8,1.0,-35.0,-1,1.0,0.2420000000000755
89,1,0.8,0.0625,-35.0,-1,1.0,0.8290000000000077
90,1,0.8,0.125,-35.0,-1,1.0,0.24409999999994625
91,1,0.8,0.0625,35.0,1,1.0,0.8776000000000295
92,1,0.8,0.0625,35.0,-1,0.0,0.318300000000022
93,1,0.8,0.0,35.0,-1,0.0,3.4512000000000285
94,1,0.8,0.0,-35.0,-1,1.0,9.965900000000033
95,1,0.8,1.0,-35.0,-1,1.0,0.24730000000005248
96,1,0.8,0.0625,35.0,-1,0.0,3.9693000000000325
97,1,0.8,0.125,-35.0,-1,1.0,0.25070000000005166
98,1,0.8,0.25,-35.0,-1,1.0,4.375
99,1,0.8,0.0625,-35.0,1,0.0,1.3254000000000588
100,1,0.8,0.125,35.0,-1,0.0,5.910500000000013
101,1,0.8,0.0,-35.0,-1,1.0,7.864100000000008
102,1,0.8,0.0,-35.0,-1,1.0,12.014200000000017
103,1,0.8,1.0,-35.0,-1,1.0,0.2836000000000354
104,1,0.8,1.0,35.0,1,1.0,0.25569999999999027
105,1,0.8,0.25,-35.0,-1,1.0,0.4415000000000191
106,1,0.8,0.25,35.0,1,1.0,7.081999999999994
107,1,0.8,0.125,-35.0,-1,1.0,0.35140000000001237
108,1,0.8,1.0,-35.0,-1,1.0,3.091799999999978
109,1,0.8,0.125,-35.0,-1,1.0,0.28759999999999764
110,1,0.8,0.25,-35.0,1,0.0,19.532500000000027
111,1,0.8,0.25,35.0,-1,0.0,1.403699999999958
112,1,0.8,0.125,-35.0,1,0.0,24.653600000000097
113,1,0.8,1.0,-35.0,1,0.0,15.157899999999927
114,1,0.8,0.125,35.0,1,1.0,16.54989999999998
115,1,0.8,0.0625,-35.0,-1,1.0,0.5090999999999894
116,1,0.8,0.25,-35.0,-1,1.0,0.2194000000000642
117,1,0.8,0.125,-35.0,-1,1.0,0.28949999999997544
118,1,0.8,0.125,-35.0,-1,1.0,0.27760000000000673
119,1,0.8,0.125,-35.0,1,0.0,1.2705999999999449
120,1,0.8,0.125,-35.0,-1,1.0,0.25710000000003674
121,1,0.8,0.25,-35.0,-1,1.0,0.3768000000000029
122,1,0.8,1.0,35.0,1,1.0,0.287900000000036
123,1,0.8,1.0,35.0,1,1.0,0.2658999999999878
124,1,0.8,0.125,-35.0,1,0.0,1.9453999999999496
125,1,0.8,1.0,-35.0,-1,1.0,0.26569999999992433
126,1,0.8,1.0,35.0,1,1.0,0.2016999999999598
127,1,0.8,0.0625,-35.0,-1,1.0,7.263700000000085
128,1,0.8,0.25,-35.0,-1,1.0,0.2965000000000373
129,1,0.8,0.0,-35.0,1,0.0,19.06370000000004
130,1,0.8,0.0,-35.0,-1,1.0,14.682299999999941
131,1,0.8,0.25,-35.0,-1,1.0,0.301900000000046
132,1,0.8,0.0625,-35.0,-1,1.0,0.33809999999994034
133,1,0.8,0.25,-35.0,-1,1.0,0.2477999999999838
134,1,0.8,0.25,-35.0,-1,1.0,0.19200000000000728
135,1,0.8,0.25,-35.0,-1,1.0,0.7823999999999387
136,1,0.8,0.25,-35.0,1,0.0,2.1141000000000076
137,1,0.8,0.0625,35.0,1,1.0,0.5237000000000762
138,1,0.8,0.0,-35.0,1,0.0,6.286000000000058
139,1,0.8,0.25,-35.0,1,0.0,1.445600000000013
140,1,0.8,0.25,-35.0,-1,1.0,0.5604000000000724
141,1,0.8,0.0625,35.0,1,1.0,2.2101000000000113
142,1,0.2,0.0625,35.0,1,1.0,11.125099999999975
143,1,0.2,0.125,35.0,1,1.0,0.14199999999993906
144,1,0.2,0.125,35.0,1,1.0,0.3511999999999489
145,1,0.2,1.0,35.0,1,1.0,0.2785000000000082
146,1,0.2,0.0625,35.0,1,1.0,10.802699999999959
147,1,0.2,0.0625,35.0,-1,0.0,1.1681999999999562
148,1,0.2,0.0,35.0,1,1.0,7.04219999999998
149,1,0.2,0.0,-35.0,-1,1.0,0.18669999999997344
150,1,0.2,0.25,35.0,1,1.0,0.474399999999946
151,1,0.2,0.125,35.0,1,1.0,0.5030000000000427
152,1,0.2,0.0625,35.0,1,1.0,0.795400000000086
153,1,0.2,0.25,35.0,1,1.0,0.2614000000000942
154,1,0.2,1.0,-35.0,-1,1.0,0.3188000000000102
155,1,0.2,0.125,35.0,1,1.0,6.998900000000049
156,1,0.2,0.125,35.0,1,1.0,2.987700000000018
157,1,0.2,0.125,35.0,1,1.0,0.610300000000052
158,1,0.2,0.125,35.0,1,1.0,2.6089000000000624
159,1,0.2,0.125,35.0,1,1.0,0.5663000000000693
160,1,0.2,1.0,35.0,1,1.0,0.21630000000004657
161,1,0.2,0.25,35.0,1,1.0,1.4072999999999638
162,1,0.2,0.25,35.0,1,1.0,6.949000000000069
163,1,0.2,0.25,35.0,1,1.0,0.30370000000004893
164,1,0.2,1.0,-35.0,-1,1.0,0.24890000000004875
165,1,0.2,1.0,-35.0,-1,1.0,0.2862999999999829
166,1,0.2,0.125,35.0,1,1.0,8.065200000000004
167,1,0.2,0.25,35.0,1,1.0,0.63900000000001
168,1,0.2,0.25,-35.0,-1,1.0,0.25549999999998363
169,1,0.2,0.25,-35.0,-1,1.0,1.3730999999999085
170,1,0.2,0.0,35.0,1,1.0,17.27260000000001
171,1,0.2,0.0625,35.0,1,1.0,5.177200000000084
172,1,0.2,0.125,35.0,1,1.0,1.9021999999999935
173,1,0.2,1.0,35.0,1,1.0,0.2884000000000242
174,1,0.2,0.125,35.0,1,1.0,4.634299999999939
175,1,0.2,1.0,35.0,1,1.0,0.23220000000003438
176,1,0.2,0.0625,35.0,-1,0.0,3.072499999999991
177,1,0.2,0.0625,35.0,-1,0.0,7.6327
178,1,0.2,0.0,-35.0,-1,1.0,0.09640000000001692
179,1,0.2,1.0,35.0,1,1.0,0.3130999999999631
180,1,0.2,0.0625,35.0,1,1.0,8.576600000000099
181,1,0.2,0.0625,35.0,-1,0.0,2.423599999999851
182,1,0.2,0.0,35.0,1,1.0,32.22379999999998
183,1,0.2,0.0625,-35.0,-1,1.0,0.4679989999999634
184,1,0.2,1.0,35.0,1,1.0,0.2381999999997788
185,1,0.2,0.125,35.0,1,1.0,1.5250999999998385
186,1,0.2,1.0,35.0,1,1.0,0.19180000000005748
187,1,0.2,0.0625,35.0,1,1.0,0.39850000000001273
188,1,0.8,0.25,-35.0,1,0.0,0.968599999999924
189,1,0.8,1.0,-35.0,-1,1.0,0.34550000000012915
190,1,0.8,0.125,-35.0,-1,1.0,1.4758999999999105
191,1,0.8,0.0625,-35.0,1,0.0,8.166099999999915
192,1,0.8,0.0625,-35.0,-1,1.0,11.436399999999821
193,1,0.8,0.0625,-35.0,1,0.0,37.11020000000008
194,1,0.8,0.25,-35.0,-1,1.0,1.515100000000075
195,1,0.8,0.125,-35.0,1,0.0,0.5153000000002521
196,1,0.8,0.0,-35.0,-1,1.0,1.5850000000000364
197,1,0.8,0.0625,-35.0,-1,1.0,0.3249999999998181
198,1,0.8,1.0,-35.0,-1,1.0,0.5850000000000364
199,1,0.8,1.0,-35.0,1,0.0,2.67899999999986
200,1,0.8,0.25,-35.0,1,0.0,0.4352999999998701
201,1,0.8,0.125,-35.0,-1,1.0,12.142100000000028
202,1,0.8,0.25,-35.0,1,0.0,10.569600000000264
203,1,0.8,0.25,-35.0,1,0.0,0.659900000000107
204,1,0.8,0.0625,-35.0,-1,1.0,51.45990000000006
205,1,0.8,0.125,-35.0,-1,1.0,1.3244999999999436
206,1,0.8,0.25,-35.0,-1,1.0,2.111599999999953
207,1,0.8,0.0625,-35.0,-1,1.0,0.4615999999998621
208,1,0.8,1.0,-35.0,-1,1.0,0.9347000000000207
209,1,0.8,0.125,35.0,1,1.0,0.40479999999979555
210,1,0.8,0.125,-35.0,-1,1.0,3.9717000000000553
211,1,0.8,0.25,-35.0,1,0.0,0.3851999999999407
212,1,0.8,0.0625,-35.0,1,0.0,10.702999999999975
213,1,0.8,0.0625,-35.0,-1,1.0,1.2624000000000706
214,1,0.8,0.0625,-35.0,-1,1.0,6.592499999999973
215,1,0.8,0.25,35.0,1,1.0,0.3226999999999407
216,1,0.8,0.125,-35.0,-1,1.0,6.703500000000076
217,1,0.8,0.0625,-35.0,-1,1.0,0.34339999999997417
218,1,0.2,0.125,35.0,1,1.0,0.36370000000010805
219,1,0.2,0.0,35.0,-1,0.0,2.7268000000001393
220,1,0.2,0.0625,35.0,1,1.0,0.24690000000009604
221,1,0.2,0.125,35.0,1,1.0,0.350400000000036
222,1,0.2,0.0,-35.0,-1,1.0,1.9636990000001333
223,1,0.2,0.25,-35.0,-1,1.0,0.28710000000000946
224,1,0.2,0.0625,-35.0,-1,1.0,5.837300000000141
225,1,0.2,0.0625,35.0,1,1.0,0.7708999999999833
226,1,0.2,0.0625,35.0,-1,0.0,0.25489999999990687
227,1,0.2,0.0,-35.0,-1,1.0,0.26129999999989195
228,1,0.2,0.0625,35.0,1,1.0,1.0076999999998861
229,1,0.2,0.125,35.0,1,1.0,0.33130000000028303
230,1,0.2,0.125,35.0,-1,0.0,0.08150000000000546
231,1,0.2,0.0625,-35.0,-1,1.0,5.655100000000175
232,1,0.2,0.0625,35.0,1,1.0,0.38540000000011787
233,1,0.2,0.25,35.0,1,1.0,0.3684000000000651
234,1,0.2,0.125,35.0,1,1.0,0.475400000000036
235,1,0.2,0.25,-35.0,-1,1.0,0.3053999999997359
236,1,0.2,0.0625,-35.0,-1,1.0,0.3425000000002001
237,1,0.2,1.0,35.0,1,1.0,0.24890000000004875
238,1,0.2,0.0,-35.0,1,0.0,7.512400000000071
239,1,0.2,1.0,35.0,1,1.0,0.20990000000006148
240,1,0.2,1.0,35.0,1,1.0,0.16620000000011714
241,1,0.2,0.0625,-35.0,-1,1.0,0.33930000000009386
242,1,0.2,0.0625,35.0,1,1.0,4.529400000000123
243,1,0.2,0.25,-35.0,-1,1.0,0.25289999999995416
244,1,0.2,0.25,35.0,1,1.0,0.27320000000008804
245,1,0.2,0.25,35.0,1,1.0,0.6998000000000957
246,1,0.2,0.125,35.0,-1,0.0,0.2133000000001175
247,1,0.2,0.0,35.0,1,1.0,3.393299999999954
248,1,0.2,0.25,35.0,1,1.0,9.116899999999987
249,1,0.2,1.0,35.0,1,1.0,0.22749999999996362
250,1,0.2,1.0,35.0,1,1.0,0.49810000000024957
251,1,0.2,0.0625,-35.0,1,0.0,4.461500000000115
252,1,0.2,1.0,35.0,1,1.0,0.21479999999996835
253,1,0.2,1.0,-35.0,1,0.0,0.4114999999999327
254,1,0.2,0.0625,35.0,1,1.0,12.121800000000121
255,1,0.2,1.0,35.0,1,1.0,0.048900000000003274
256,1,0.2,0.0625,35.0,1,1.0,0.5020999999999276
257,1,0.2,0.125,35.0,1,1.0,0.7654999999999745
258,1,0.2,0.0625,35.0,1,1.0,0.5055999999999585
259,1,0.2,0.25,35.0,1,1.0,0.485700000000179
260,1,0.2,0.25,35.0,1,1.0,0.23910000000000764
261,1,0.2,0.0625,35.0,1,1.0,3.799299999999903
262,1,0.2,0.125,35.0,1,1.0,1.3327999999999065
263,1,0.2,0.125,35.0,1,1.0,0.269800000000032
264,1,0.2,0.25,-35.0,-1,1.0,0.31330000000002656
265,1,0.2,0.25,35.0,1,1.0,0.28660000000013497
266,1,0.2,0.125,35.0,1,1.0,5.113399999999956
267,1,0.2,0.25,35.0,1,1.0,0.9437000000000353
268,1,0.2,1.0,35.0,1,1.0,0.2338999999999487
269,1,0.2,0.0,35.0,1,1.0,0.5171999999997752
270,1,0.2,0.0625,35.0,1,1.0,4.4973999999999705
271,1,0.2,0.125,35.0,1,1.0,0.5376000000001113
272,1,0.2,0.25,35.0,1,1.0,4.491199999999935
273,1,0.2,0.25,35.0,1,1.0,0.5579999999999927
274,1,0.2,1.0,35.0,1,1.0,0.2615000000000691
275,1,0.2,0.0625,35.0,1,1.0,0.5983000000001084
276,1,0.2,0.25,35.0,1,1.0,0.23849999999993088
277,1,0.2,0.125,35.0,1,1.0,0.3451000000000022
278,1,0.2,0.0625,35.0,1,1.0,2.241899999999987
279,1,0.2,0.125,35.0,1,1.0,1.3587999999999738
280,1,0.2,0.0625,35.0,1,1.0,0.8288000000000011
281,1,0.2,1.0,35.0,1,1.0,0.2557000000001608
282,1,0.2,0.0625,-35.0,1,0.0,0.7557999999999083
283,1,0.2,0.125,35.0,1,1.0,0.3992000000000644
284,1,0.2,0.0,35.0,1,1.0,4.959299999999985
285,1,0.2,0.125,35.0,1,1.0,0.8127999999999247
286,1,0.2,0.0,35.0,1,1.0,0.5098000000000411
287,1,0.2,1.0,35.0,1,1.0,0.23320000000012442
288,1,0.2,0.0,-35.0,1,0.0,6.666699999999992
289,1,0.2,0.0625,-35.0,1,0.0,0.9070000000001528
290,1,0.2,0.25,35.0,1,1.0,0.31369999999992615
291,1,0.2,0.0625,35.0,1,1.0,6.467399999999998
292,1,0.2,1.0,35.0,1,1.0,0.22080000000005384
293,1,0.2,0.0,35.0,1,1.0,3.557499999999891
294,1,0.2,0.25,35.0,1,1.0,0.24450000000001637
295,1,0.2,0.0,35.0,1,1.0,6.831300000000283
296,1,0.2,0.125,35.0,1,1.0,0.258199999999988
297,1,0.2,1.0,-35.0,1,0.0,1.285200000000259
298,1,0.2,0.125,-35.0,1,0.0,5.221900000000005
299,1,0.2,0.25,-35.0,1,0.0,0.8088000000000193
300,1,0.2,1.0,35.0,1,1.0,0.26890000000003056
301,1,0.2,1.0,35.0,1,1.0,0.26900000000000546
302,1,0.2,1.0,-35.0,1,0.0,15.76260000000002
303,1,0.2,0.0,-35.0,1,0.0,0.9164000000000669
304,1,0.8,0.0,-35.0,1,0.0,25.053100000000086
305,1,0.8,0.0,-35.0,1,0.0,8.517200000000003
306,1,0.8,0.0625,-35.0,1,0.0,18.557700000000295
307,1,0.8,1.0,-35.0,1,0.0,0.9015000000001692
308,1,0.8,1.0,-35.0,1,0.0,52.99160000000006
309,1,0.8,1.0,-35.0,1,0.0,8.569899999999961
310,1,0.8,1.0,-35.0,-1,1.0,0.35700000000019827
311,1,0.8,1.0,-35.0,-1,1.0,0.15039999999976317
312,1,0.8,0.0625,35.0,1,1.0,2.1403999999999996
313,1,0.8,1.0,-35.0,-1,1.0,1.1339000000000397
314,1,0.8,0.125,-35.0,-1,1.0,6.534300000000258
315,1,0.8,0.0,-35.0,1,0.0,0.5378000000000611
316,1,0.8,0.25,-35.0,-1,1.0,0.661200000000008
317,1,0.8,0.0625,-35.0,1,0.0,3.274699999999939
318,1,0.8,1.0,-35.0,-1,1.0,0.3082999999999174
319,1,0.8,0.25,-35.0,-1,1.0,0.3283999999998741
320,1,0.8,0.25,-35.0,-1,1.0,0.2652000000002772
321,1,0.8,0.125,-35.0,1,0.0,0.36859999999978754
322,1,0.8,0.125,-35.0,1,0.0,8.008600000000115
323,1,0.8,0.25,-35.0,-1,1.0,0.3421999999995933
324,1,0.8,0.0625,-35.0,-1,1.0,0.3790999999991982
325,1,0.8,0.125,-35.0,-1,1.0,0.30239999999957945
326,1,0.8,1.0,35.0,1,1.0,0.24919999999974607
327,1,0.8,0.125,35.0,1,1.0,0.3360999999995329
328,1,0.8,0.25,35.0,1,1.0,0.296100000000024
329,1,0.8,0.25,-35.0,-1,1.0,0.3195999999993546
330,1,0.8,0.125,-35.0,-1,1.0,0.3730999999997948
331,1,0.8,1.0,-35.0,-1,1.0,0.30339999999932843
332,1,0.8,0.0625,-35.0,1,0.0,1.0200999999997293
333,1,0.8,1.0,-35.0,-1,1.0,0.2634999999995671
334,1,0.8,0.125,-35.0,1,0.0,0.47040000000015425
335,1,0.8,0.25,35.0,1,1.0,0.310399999999845
336,1,0.8,1.0,-35.0,-1,1.0,0.2604999999998654
337,1,0.8,0.125,-35.0,-1,1.0,0.9672999999997955
338,1,0.8,0.0625,-35.0,-1,1.0,0.47069999999985157
339,1,0.8,1.0,-35.0,-1,1.0,0.9307999999996355
340,1,0.8,0.25,-35.0,-1,1.0,0.3408999999996922
341,1,0.8,0.0625,-35.0,1,0.0,4.060999999999694
342,1,0.8,0.25,-35.0,-1,1.0,0.3445999999999003
343,1,0.8,0.0625,-35.0,1,0.0,6.444799999999759
344,1,0.8,1.0,-35.0,-1,1.0,0.26159999999981665
345,1,0.8,0.0,-35.0,-1,1.0,1.5016999999998006
346,1,0.8,1.0,-35.0,-1,1.0,0.36189999999987776
347,1,0.8,0.125,-35.0,-1,1.0,0.2685999999998785
348,1,0.8,0.0625,-35.0,-1,1.0,0.7386999999994259
349,1,0.8,0.0,-35.0,-1,1.0,0.25549999999975626
350,1,0.8,1.0,-35.0,-1,1.0,0.2689999999997781
351,1,0.8,0.0625,-35.0,-1,1.0,0.28909999999996217
352,1,0.2,1.0,35.0,1,1.0,0.25270000000000437
353,1,0.2,0.0625,35.0,-1,0.0,0.29269999999951324
354,1,0.2,0.125,35.0,1,1.0,0.27609999999958745
355,1,0.2,1.0,35.0,1,1.0,0.21949999999969805
356,1,0.2,0.0,35.0,-1,0.0,0.2563000000000102
357,1,0.2,0.25,35.0,1,1.0,0.24959999999964566
358,1,0.2,0.25,35.0,1,1.0,0.176499999999578
359,1,0.2,0.0625,35.0,1,1.0,0.5197999999995773
360,1,0.2,0.125,35.0,1,1.0,0.2932999999993626
361,1,0.2,0.125,35.0,1,1.0,0.2733999999995831
362,1,0.2,1.0,35.0,1,1.0,0.2533999999996013
363,1,0.2,0.125,35.0,1,1.0,0.316899999999805
364,1,0.2,0.125,35.0,1,1.0,1.0103999999996631
365,1,0.2,0.125,35.0,1,1.0,0.8337999999994281
366,1,0.2,0.25,35.0,1,1.0,0.19050000000015643
367,1,0.2,1.0,-35.0,-1,1.0,0.21729999999979555
368,1,0.2,0.0625,35.0,-1,0.0,0.22069999999985157
369,1,0.2,0.0625,35.0,1,1.0,0.1875
370,1,0.2,0.125,35.0,1,1.0,0.22089999999980137
371,1,0.2,0.125,-35.0,1,0.0,0.1975999999999658
372,1,0.2,0.125,35.0,1,1.0,0.27109999999993306
373,1,0.2,1.0,35.0,1,1.0,0.22790000000031796
374,1,0.8,1.0,-35.0,-1,1.0,0.25789999999960855
375,1,0.8,0.0,-35.0,-1,1.0,0.1578999999996995
376,1,0.8,0.25,-35.0,-1,1.0,0.25469999999995707
377,1,0.8,0.25,-35.0,-1,1.0,0.2748999999998887
378,1,0.8,0.0625,35.0,1,1.0,0.45499999999992724
379,1,0.8,0.25,-35.0,-1,1.0,0.24830000000019936
380,1,0.8,1.0,-35.0,-1,1.0,0.22179999999980282
381,1,0.8,0.0625,-35.0,-1,1.0,0.2685999999998785
382,1,0.8,0.0,35.0,-1,0.0,0.20869999999968059
383,1,0.8,0.0,-35.0,1,0.0,0.32549999999991996
384,1,0.8,1.0,-35.0,-1,1.0,0.27219999999942956
385,1,0.8,0.125,-35.0,-1,1.0,0.28230000000030486
386,1,0.8,0.0625,35.0,-1,0.0,0.23909999999978027
387,1,0.8,0.25,-35.0,-1,1.0,0.31930000000011205
388,1,0.8,1.0,35.0,1,1.0,0.22600000000011278
389,1,0.8,0.125,-35.0,-1,1.0,0.21270000000004075
390,1,0.8,0.125,-35.0,-1,1.0,0.26290000000017244
391,1,0.8,0.125,-35.0,-1,1.0,0.21289999999999054
392,1,0.8,0.125,35.0,1,1.0,0.3330999999998312
393,1,0.8,0.125,35.0,1,1.0,0.7197999999993954
394,1,0.2,1.0,35.0,1,1.0,0.21649999999954161
395,1,0.2,0.125,35.0,1,1.0,0.3299000000001797
396,1,0.2,0.125,35.0,1,1.0,0.47659999999996217
397,1,0.2,0.0625,35.0,1,1.0,0.22339999999985594
398,1,0.2,0.125,35.0,-1,0.0,0.24350000000004002
399,1,0.2,0.0625,-35.0,-1,1.0,0.42689999999993233
400,1,0.2,0.0,35.0,-1,0.0,0.2870999999995547
401,1,0.2,0.0625,35.0,1,1.0,0.30039999999962674
402,1,0.2,0.0625,35.0,1,1.0,0.45049999999991996
403,1,0.2,0.0,35.0,1,1.0,0.4739999999992506
404,1,0.2,0.125,35.0,1,1.0,0.2575000000001637
405,1,0.2,1.0,35.0,1,1.0,0.21749999999974534
406,1,0.2,0.25,35.0,1,1.0,0.2142999999996391
407,1,0.2,0.125,35.0,1,1.0,0.2343989999999394
408,1,0.2,0.0625,-35.0,-1,1.0,1.2645000000002256
409,1,0.2,0.25,35.0,1,1.0,0.23799999999982901
410,1,0.2,0.25,35.0,1,1.0,0.20129999999971915
411,1,0.2,0.125,35.0,1,1.0,0.2381999999997788
412,1,0.2,0.25,35.0,1,1.0,0.23829999999952634
413,1,0.2,1.0,35.0,1,1.0,0.2249999999994543
414,1,0.2,1.0,35.0,1,1.0,0.19180000000005748
415,1,0.2,0.25,35.0,1,1.0,0.24509999999963838
416,1,0.2,0.25,35.0,1,1.0,0.1685999999995147
417,1,0.2,0.125,-35.0,-1,1.0,0.30880000000024665
418,1,0.2,0.125,35.0,1,1.0,0.20209999999997308
419,1,0.2,0.125,35.0,1,1.0,0.4655999999999949
420,1,0.2,0.25,-35.0,-1,1.0,0.22899999999935972
421,1,0.2,0.25,35.0,1,1.0,0.2256999999999607
422,1,0.2,1.0,35.0,1,1.0,0.21920000000000073
423,1,0.2,1.0,35.0,1,1.0,0.24589999999943757
424,1,0.2,0.25,35.0,1,1.0,0.2393999999994776
425,1,0.2,0.125,-35.0,-1,1.0,0.3726999999994405
426,1,0.2,0.25,35.0,1,1.0,0.3829000000000633
427,1,0.2,0.25,35.0,1,1.0,0.18629999999984648
428,1,0.2,0.0625,35.0,1,1.0,0.22970000000032087
429,1,0.8,0.25,35.0,1,1.0,0.1997999999998683
430,1,0.8,1.0,-35.0,1,0.0,0.03999999999996362
431,1,0.8,0.0,-35.0,1,0.0,0.31679999999960273
432,1,0.8,0.0625,-35.0,1,0.0,0.22689999999965949
433,1,0.8,0.25,35.0,1,1.0,0.21030000000018845
434,1,0.8,0.25,35.0,1,1.0,0.19699999999920692
435,1,0.8,0.25,35.0,1,1.0,0.22369999999955326
436,1,0.8,0.25,-35.0,-1,1.0,0.3170999999997548
437,1,0.8,0.125,-35.0,-1,1.0,0.31049999999959255
438,1,0.8,1.0,-35.0,-1,1.0,0.27389999999968495
439,1,0.8,1.0,-35.0,-1,1.0,0.24080000000003565
440,1,0.8,0.0625,-35.0,-1,1.0,0.2541999999998552
441,1,0.8,0.125,-35.0,-1,1.0,0.3643000000001848
442,1,0.8,0.0625,-35.0,-1,1.0,0.3609999999998763
443,1,0.8,0.0625,-35.0,-1,1.0,0.3510999999998603
444,1,0.8,0.0,-35.0,1,0.0,0.27789999999959036
445,1,0.8,0.0,-35.0,-1,1.0,0.3112999999998465
446,1,0.8,0.25,-35.0,-1,1.0,0.22799999999961074
447,1,0.8,0.0,35.0,-1,0.0,0.24819999999954234
448,1,0.8,1.0,35.0,1,1.0,0.2481999999999971
449,1,0.8,0.125,-35.0,-1,1.0,0.22169999999960055
450,1,0.8,1.0,-35.0,-1,1.0,0.24189999999953216
451,1,0.8,0.0625,-35.0,-1,1.0,0.24839999999994689
452,1,0.8,0.0625,35.0,-1,0.0,0.2717999999999847
453,1,0.8,0.125,-35.0,-1,1.0,0.32860000000027867
454,1,0.8,0.25,-35.0,-1,1.0,0.26549999999997453
455,1,0.8,0.0625,-35.0,-1,1.0,0.2754999999992833
456,1,0.8,0.0,-35.0,-1,1.0,3.6823999999996886
457,1,0.8,0.125,-35.0,-1,1.0,0.24919999999974607
458,1,0.8,0.25,35.0,1,1.0,0.34269999999969514
459,1,0.8,0.25,-35.0,-1,1.0,0.2393999999994776
460,1,0.8,1.0,35.0,1,1.0,0.2794999999996435
461,1,0.8,0.0625,35.0,-1,0.0,0.28629999999975553
462,1,0.8,0.125,35.0,1,1.0,0.23299999999971988
463,1,0.8,1.0,-35.0,-1,1.0,0.23979999999983193
464,1,0.8,0.0,-35.0,-1,1.0,0.33989999999994325
465,1,0.8,0.25,-35.0,-1,1.0,0.25
466,1,0.8,0.25,-35.0,-1,1.0,0.26359999999976935
467,1,0.8,0.125,-35.0,-1,1.0,0.2568999999998596
468,1,0.8,1.0,-35.0,-1,1.0,0.2537000000002081
469,1,0.8,1.0,35.0,1,1.0,0.26399999999966894
470,1,0.8,0.125,35.0,1,1.0,0.2304999999996653
471,1,0.8,0.25,-35.0,-1,1.0,0.3472999999999047
472,1,0.8,0.125,-35.0,-1,1.0,0.2573999999995067
473,1,0.8,0.25,-35.0,-1,1.0,0.29099999999925785
474,1,0.8,0.0,-35.0,1,0.0,0.33419999999978245
475,1,0.8,0.0625,-35.0,-1,1.0,0.37439999999969586
476,1,0.8,1.0,35.0,1,1.0,0.2810999999996966
477,1,0.8,0.0,-35.0,-1,1.0,0.5479999999997744
478,1,0.8,0.0625,-35.0,-1,1.0,0.5147000000001754
479,1,0.8,0.0625,35.0,1,1.0,0.561399999999594
480,1,0.8,0.25,-35.0,-1,1.0,0.28819999999950596
481,1,0.8,0.0625,-35.0,1,0.0,0.5248999999998887
482,1,0.8,1.0,-35.0,-1,1.0,0.2683999999999287
483,1,0.8,0.0625,-35.0,-1,1.0,0.26510000000007494
484,1,0.8,0.0625,-35.0,-1,1.0,0.2284999999997126
485,1,0.8,0.125,-35.0,-1,1.0,0.22189999999955035
486,1,0.8,0.0625,-35.0,-1,1.0,0.3053999999997359
487,1,0.8,0.0,35.0,-1,0.0,0.24549999999999272
488,1,0.8,0.25,-35.0,-1,1.0,0.3289989999998397
489,1,0.8,1.0,-35.0,-1,1.0,0.2323999999998705
490,1,0.8,0.125,-35.0,-1,1.0,0.27589999999963766
491,1,0.8,0.25,35.0,1,1.0,0.30920000000014625
492,1,0.8,0.0625,-35.0,-1,1.0,0.3093999999996413
493,1,0.8,0.0,-35.0,1,0.0,0.49279999999998836
494,1,0.8,0.0625,-35.0,-1,1.0,0.4796000000001186
495,1,0.8,1.0,35.0,1,1.0,0.23960000000033688
496,1,0.8,1.0,-35.0,-1,1.0,0.26310000000012224
497,1,0.8,0.0625,-35.0,-1,1.0,0.28319999999985157
498,1,0.8,1.0,-35.0,-1,1.0,0.21679999999969368
499,1,0.8,0.0,-35.0,-1,1.0,0.2667999999998756
500,1,0.8,0.0,-35.0,-1,1.0,0.30349999999998545
501,1,0.8,0.125,-35.0,-1,1.0,0.2403999999996813
502,1,0.8,1.0,-35.0,-1,1.0,0.2903999999998632
503,1,0.8,0.0,-35.0,-1,1.0,0.10390000000006694
504,1,0.8,0.25,-35.0,-1,1.0,0.28399999999965075
505,1,0.8,0.25,-35.0,-1,1.0,0.29749999999921783
506,1,0.8,0.125,-35.0,-1,1.0,0.23079999999981737
507,1,0.8,0.25,-35.0,-1,1.0,0.2142999999996391
508,1,0.8,0.0625,-35.0,-1,1.0,0.40439999999989595
509,1,0.8,0.25,-35.0,-1,1.0,0.31770000000005894
510,1,0.8,0.25,-35.0,-1,1.0,0.28119999999989886
511,1,0.8,0.0625,-35.0,-1,1.0,0.307999999999538
512,1,0.8,0.125,-35.0,-1,1.0,0.2947999999996682
513,1,0.8,0.0625,-35.0,-1,1.0,0.24169999999958236
514,1,0.8,0.25,-35.0,-1,1.0,0.2681999999999789
515,1,0.8,0.125,35.0,1,1.0,0.2782999999999447
516,1,0.2,1.0,-35.0,-1,1.0,0.21179999999958454
517,1,0.2,1.0,35.0,1,1.0,0.22519999999985885
518,1,0.2,0.0,35.0,-1,0.0,0.17529999999987922
519,1,0.2,0.125,35.0,1,1.0,0.25869999999940774
520,1,0.2,0.0625,-35.0,-1,1.0,0.4954999999999927
521,1,0.2,0.125,35.0,1,1.0,0.6122999999993226
522,1,0.2,1.0,35.0,1,1.0,0.3855999999996129
523,1,0.2,1.0,35.0,1,1.0,0.25919999999996435
524,1,0.2,0.0625,35.0,-1,0.0,0.3125999999997475
525,1,0.2,0.0625,35.0,-1,0.0,0.4025999999994383
526,1,0.2,0.0625,35.0,1,1.0,0.3227000000001681
527,1,0.2,1.0,35.0,1,1.0,0.2227999999995518
528,1,0.2,0.0625,35.0,1,1.0,0.3261999999999716
529,1,0.2,0.0,-35.0,1,0.0,0.539600000000064
530,1,0.2,0.125,35.0,1,1.0,0.2996999999995751
531,1,0.2,0.125,35.0,1,1.0,0.35649999999986903
532,1,0.2,0.25,35.0,1,1.0,0.3031999999998334
533,1,0.2,1.0,35.0,1,1.0,0.22329999999965366
534,1,0.2,0.125,35.0,-1,0.0,0.4101999999998043
535,1,0.2,0.25,35.0,1,1.0,0.27009999999972933
536,1,0.2,0.0625,35.0,-1,0.0,0.29019999999945867
537,1,0.2,0.25,35.0,1,1.0,0.2636999999995169
538,1,0.2,0.0625,-35.0,1,0.0,0.4470999999994092
539,1,0.2,0.125,35.0,1,1.0,0.277299999999741
540,1,0.2,0.0625,35.0,1,1.0,7.140599999999722
541,1,0.2,1.0,35.0,1,1.0,0.2842999999998028
542,1,0.2,1.0,35.0,1,1.0,0.2310999999995147
543,1,0.2,0.125,35.0,1,1.0,0.17109999999956926
544,1,0.8,0.125,35.0,1,1.0,0.25129999999990105
545,1,0.8,1.0,-35.0,-1,1.0,0.24129999999968277
546,1,0.8,0.25,-35.0,-1,1.0,0.2179999999998472
547,1,0.8,0.25,-35.0,-1,1.0,0.2247999999995045
548,1,0.8,0.125,-35.0,-1,1.0,0.2582999999999629
549,1,0.8,0.25,-35.0,-1,1.0,0.28829999999970823
550,1,0.8,0.25,-35.0,-1,1.0,0.2984000000001288
551,1,0.8,0.0625,-35.0,-1,1.0,0.21519999999964057
552,1,0.8,0.0,35.0,1,1.0,0.3186999999998079
553,1,0.8,0.25,-35.0,-1,1.0,0.2820999999999003
554,1,0.8,0.0,-35.0,1,0.0,0.8523000000000138
555,1,0.8,0.0625,-35.0,1,0.0,0.3656999999998334
556,1,0.8,1.0,-35.0,-1,1.0,0.3457999999995991
557,1,0.8,1.0,-35.0,-1,1.0,0.2691999999997279
558,1,0.8,0.0625,-35.0,-1,1.0,0.3724999999994907
559,1,0.8,0.25,-35.0,-1,1.0,0.2826999999997497
560,1,0.8,1.0,-35.0,-1,1.0,0.24620000000004438
561,1,0.8,0.0625,-35.0,-1,1.0,0.2361999999998261
562,1,0.8,0.25,35.0,1,1.0,0.2597000000000662
563,1,0.8,0.125,-35.0,-1,1.0,0.24310000000014043
564,1,0.8,0.125,-35.0,-1,1.0,0.333299999999781
565,1,0.8,0.25,-35.0,-1,1.0,0.22670000000016444
566,1,0.8,0.0,35.0,1,1.0,0.5166999999996733
567,1,0.8,1.0,-35.0,-1,1.0,0.3067999999998392
568,1,0.8,0.0625,-35.0,-1,1.0,0.3068999999995867
569,1,0.8,1.0,35.0,1,1.0,0.2537999999999556
570,1,0.8,0.0,-35.0,-1,1.0,0.23039999999991778
571,1,0.8,0.25,35.0,-1,0.0,0.207199999999375
572,1,0.8,0.0,-35.0,-1,1.0,0.30729999999994106
573,1,0.8,0.125,-35.0,-1,1.0,0.16400000000021464
574,1,0.8,0.125,-35.0,-1,1.0,0.4240999999997257
575,1,0.8,1.0,35.0,1,1.0,0.26419999999961874
576,1,0.8,0.0625,35.0,-1,0.0,0.20100000000002183
577,1,0.8,1.0,35.0,1,1.0,0.37770000000000437
578,1,0.8,1.0,-35.0,-1,1.0,0.25779999999986103
579,1,0.8,0.0625,-35.0,-1,1.0,1.0378999999998086
580,1,0.8,0.0,-35.0,-1,1.0,2.871399999999994
581,1,0.8,0.0,-35.0,1,0.0,2.661699999999655
582,1,0.8,0.125,-35.0,-1,1.0,0.22179999999934807
583,1,0.8,0.0625,-35.0,-1,1.0,0.24870000000009895
584,1,0.8,0.0,-35.0,-1,1.0,0.25529999999980646
585,1,0.8,0.0625,-35.0,-1,1.0,0.2620999999999185
586,1,0.8,0.125,-35.0,-1,1.0,0.2154000000000451
587,1,0.8,0.25,-35.0,-1,1.0,0.29229999999961365
588,1,0.8,0.125,-35.0,-1,1.0,0.24909999999999854
589,1,0.8,0.25,-35.0,-1,1.0,0.2424999999998363
590,1,0.8,0.0,35.0,-1,0.0,0.23259999999982028
591,1,0.8,0.0625,-35.0,-1,1.0,1.3059999999995853
592,1,0.8,0.0,-35.0,-1,1.0,0.29609999999956926
593,1,0.8,0.25,-35.0,-1,1.0,0.2561999999998079
594,1,0.8,1.0,-35.0,-1,1.0,0.2529999999997017
595,1,0.8,0.0625,-35.0,-1,1.0,0.38639999999986685
596,1,0.8,0.125,35.0,1,1.0,0.2865999999999076
597,1,0.8,0.125,-35.0,-1,1.0,0.24989999999979773
598,1,0.8,0.25,-35.0,-1,1.0,0.25
599,1,0.8,0.25,-35.0,-1,1.0,0.08349999999973079
600,1,0.8,0.0625,-35.0,-1,1.0,0.3501000000001113
601,1,0.8,0.25,-35.0,-1,1.0,0.23689999999987776
602,1,0.8,1.0,-35.0,-1,1.0,0.26699999999937063
603,1,0.8,0.25,-35.0,-1,1.0,0.040499999999610736
604,1,0.8,1.0,-35.0,-1,1.0,0.24049999999942884
605,1,0.8,0.125,-35.0,-1,1.0,0.24729999999999563
606,1,0.8,0.125,35.0,1,1.0,0.2840000000001055
607,1,0.8,0.0625,-35.0,-1,1.0,0.21739999999999782
608,1,0.8,0.0,-35.0,-1,1.0,0.16089999999985594
609,1,0.8,1.0,-35.0,-1,1.0,0.2909999999997126
610,1,0.8,0.0,-35.0,-1,1.0,0.24110000000018772
611,1,0.8,0.25,35.0,-1,0.0,0.1610000000000582
612,1,0.8,0.125,-35.0,1,0.0,0.3611000000000786
613,1,0.8,1.0,-35.0,-1,1.0,0.26789999999982683
614,1,0.8,0.125,-35.0,-1,1.0,0.3247000000001208
615,1,0.8,0.0625,-35.0,-1,1.0,0.2613000000001193
616,1,0.8,1.0,-35.0,-1,1.0,0.25149999999985084
617,1,0.8,0.0625,-35.0,-1,1.0,0.2849999999998545
618,1,0.2,0.125,35.0,-1,0.0,0.2284999999997126
619,1,0.2,0.0625,35.0,1,1.0,3.0351999999998043
620,1,0.2,1.0,35.0,1,1.0,0.23539999999957217
621,1,0.2,0.125,35.0,1,1.0,0.3688000000001921
622,1,0.2,0.25,35.0,1,1.0,0.19899999999961437
623,1,0.2,0.0625,35.0,-1,0.0,0.2288999999996122
624,1,0.2,0.0,35.0,1,1.0,2.409099999999853
625,1,0.2,0.25,35.0,1,1.0,0.2559000000001106
626,1,0.2,1.0,35.0,1,1.0,0.23929999999973006
627,1,0.2,0.25,-35.0,-1,1.0,0.2494000000001506
628,1,0.2,1.0,35.0,1,1.0,0.2561000000000604
629,1,0.2,0.0,35.0,1,1.0,3.926300000000083
630,1,0.2,0.25,35.0,1,1.0,0.2731999999996333
631,1,0.2,1.0,35.0,1,1.0,0.5233000000002903
632,1,0.2,0.25,35.0,1,1.0,0.5634999999992942
633,1,0.2,0.125,35.0,1,1.0,0.3934999999996762
634,1,0.2,0.0625,-35.0,1,0.0,0.6102999999998246
635,1,0.2,0.0625,-35.0,-1,1.0,4.523799999999483
636,1,0.2,0.125,35.0,1,1.0,0.33730000000014115
637,1,0.2,0.125,35.0,1,1.0,0.32749999999987267
638,1,0.2,0.0625,35.0,1,1.0,0.4141999999997097
639,1,0.2,0.0,35.0,-1,0.0,0.29089999999951033
640,1,0.2,1.0,35.0,1,1.0,0.260899999999765
641,1,0.2,0.125,35.0,1,1.0,0.26439999999956854
642,1,0.2,1.0,-35.0,-1,1.0,4.248000000000047
643,1,0.2,0.0625,35.0,1,1.0,0.35479999999961365
644,1,0.2,0.25,35.0,-1,0.0,0.2847999999999047
645,1,0.2,0.25,-35.0,-1,1.0,5.161599999999908
646,1,0.2,0.0625,35.0,1,1.0,0.5751999999997679
647,1,0.2,0.25,35.0,1,1.0,0.16849999999976717
648,1,0.2,0.0625,35.0,1,1.0,0.38530000000037035
649,1,0.2,0.125,-35.0,-1,1.0,0.41879999999991924
650,1,0.2,1.0,35.0,1,1.0,0.24899999999934153
651,1,0.2,0.25,-35.0,-1,1.0,0.27559999999994034
652,1,0.2,0.25,35.0,1,1.0,2.75899999999956
653,1,0.2,0.125,35.0,1,1.0,0.8290999999999258
654,1,0.2,0.125,-35.0,-1,1.0,0.29939999999987776
655,1,0.2,0.25,35.0,1,1.0,0.21279999999933352
656,1,0.2,0.0,-35.0,1,0.0,0.5727999999999156
657,1,0.2,0.0,35.0,1,1.0,3.056399999999485
658,1,0.2,0.0625,35.0,1,1.0,0.5031999999996515
659,1,0.2,1.0,35.0,1,1.0,0.31659999999965294
660,1,0.2,0.25,-35.0,-1,1.0,1.0599999999999454
661,1,0.2,0.25,35.0,1,1.0,0.22010000000000218
662,1,0.2,0.25,35.0,1,1.0,0.2535999999995511
663,1,0.2,0.0625,35.0,1,1.0,0.4135999999998603
664,1,0.2,0.125,35.0,1,1.0,0.2371000000002823
665,1,0.2,0.25,-35.0,-1,1.0,0.2804999999998472
666,1,0.2,0.0625,35.0,1,1.0,0.2737999999999374
667,1,0.2,0.0625,-35.0,-1,1.0,0.1738999999997759
668,1,0.2,0.0625,35.0,1,1.0,0.2506999999995969
669,1,0.2,0.0625,35.0,1,1.0,0.43739999999979773
670,1,0.2,1.0,35.0,1,1.0,0.2508999999995467
671,1,0.2,0.125,35.0,1,1.0,0.24439999999958673
672,1,0.2,0.0,35.0,1,1.0,0.5311000000001513
673,1,0.2,1.0,35.0,1,1.0,0.2511999999996988
674,1,0.2,0.25,35.0,1,1.0,0.26789999999982683
675,1,0.2,0.25,35.0,1,1.0,0.2612999999996646
676,1,0.2,0.125,-35.0,-1,1.0,0.30470000000013897
677,1,0.2,0.25,35.0,1,1.0,0.2415999999993801
678,1,0.2,0.0625,35.0,1,1.0,0.2617000000000189
679,1,0.2,1.0,35.0,1,1.0,0.2484999999996944
680,1,0.2,1.0,35.0,1,1.0,0.23849999999993088
681,1,0.2,0.125,35.0,1,1.0,0.2385999999996784
682,1,0.2,0.25,-35.0,-1,1.0,0.3220000000001164
683,1,0.2,1.0,-35.0,-1,1.0,0.27549999999973807
684,1,0.2,0.0,-35.0,1,0.0,5.202299999999468
685,1,0.2,0.0,35.0,1,1.0,1.1223999999992884
686,1,0.2,1.0,35.0,1,1.0,0.24929999999994834
687,1,0.2,1.0,-35.0,-1,1.0,0.2260999999998603
688,1,0.2,0.0625,35.0,1,1.0,0.5628999999998996
689,1,0.2,0.125,35.0,1,1.0,0.35619999999971697
690,1,0.2,0.0625,-35.0,-1,1.0,0.23959999999988213
691,1,0.2,0.0625,35.0,1,1.0,0.28989999999976135
692,1,0.2,0.0625,35.0,1,1.0,0.3631999999997788
693,1,0.2,0.125,35.0,1,1.0,0.343199999999797
694,1,0.2,1.0,35.0,1,1.0,0.24339999999983775
695,1,0.2,0.0625,35.0,-1,0.0,0.2800999999999476
696,1,0.2,0.0625,-35.0,1,0.0,0.6568999999994958
697,1,0.2,0.125,35.0,1,1.0,0.27359999999998763
698,1,0.2,0.0,35.0,1,1.0,0.4203000000002248
699,1,0.2,0.25,35.0,1,1.0,0.2571000000002641
700,1,0.2,0.0625,-35.0,-1,1.0,8.637199999999666
701,1,0.8,0.0,-35.0,-1,1.0,1.534099999999853
702,1,0.8,1.0,-35.0,-1,1.0,0.250999999999749
703,1,0.8,1.0,-35.0,-1,1.0,0.25109999999995125
704,1,0.8,0.25,35.0,1,1.0,0.3577999999997701
705,1,0.8,0.0625,35.0,-1,0.0,0.2645999999999731
706,1,0.8,0.0,-35.0,-1,1.0,5.657999999999902
707,1,0.8,0.0,-35.0,-1,1.0,0.9614999999998872
708,1,0.8,0.125,-35.0,-1,1.0,0.2982999999999265
709,1,0.8,0.125,-35.0,-1,1.0,0.2817999999992935
710,1,0.8,0.125,35.0,-1,0.0,0.2818999999994958
711,1,0.8,1.0,-35.0,-1,1.0,0.23529999999982465
712,1,0.8,0.25,35.0,1,1.0,0.3052999999995336
713,1,0.8,0.0625,35.0,-1,0.0,0.5454999999997199
714,1,0.8,0.0625,-35.0,-1,1.0,0.4821999999999207
715,1,0.8,0.0,35.0,-1,0.0,10.06230000000005
716,1,0.8,0.0625,35.0,-1,0.0,0.3259999999995671
717,1,0.8,0.125,-35.0,-1,1.0,0.6226999999998952
718,1,0.8,1.0,-35.0,-1,1.0,0.24289999999973588
719,1,0.8,1.0,-35.0,-1,1.0,0.2629999999994652
720,1,0.8,1.0,-35.0,-1,1.0,0.276299999999992
721,1,0.8,1.0,-35.0,-1,1.0,0.6597999999999047
722,1,0.8,0.25,-35.0,-1,1.0,0.8265000000001237
723,1,0.8,0.0625,-35.0,-1,1.0,0.23999999999978172
724,1,0.8,0.125,35.0,1,1.0,0.3368000000000393
725,1,0.8,0.125,-35.0,-1,1.0,0.3333999999995285
726,1,0.8,1.0,-35.0,-1,1.0,0.2568999999998596
727,1,0.8,0.125,-35.0,-1,1.0,0.2804000000000997
728,1,0.8,0.125,-35.0,-1,1.0,0.31699999999955253
729,1,0.8,1.0,-35.0,-1,1.0,0.1671000000001186
730,1,0.8,0.25,-35.0,-1,1.0,0.2704999999996289
731,1,0.8,0.0625,-35.0,-1,1.0,0.18059999999968568
732,1,0.8,0.0625,-35.0,-1,1.0,0.18409999999948923
733,1,0.8,0.0,-35.0,-1,1.0,0.30749999999989086
734,1,0.8,1.0,-35.0,-1,1.0,0.24089999999978318
735,1,0.8,0.0,-35.0,-1,1.0,0.2476000000001477
736,1,0.8,0.25,-35.0,-1,1.0,0.19439999999985957
737,1,0.8,1.0,-35.0,-1,1.0,0.21450000000004366
738,1,0.8,0.125,-35.0,-1,1.0,0.18449999999938882
739,1,0.8,0.125,-35.0,-1,1.0,0.10129999999935535
740,1,0.8,0.125,35.0,-1,0.0,0.21479999999974098
741,1,0.8,0.0,-35.0,-1,1.0,0.29830000000038126
742,1,0.8,0.0,-35.0,-1,1.0,0.23489999999992506
743,1,0.8,0.0625,35.0,-1,0.0,0.26179999999976644
744,1,0.8,0.25,-35.0,-1,1.0,0.2917999999995118
745,1,0.8,0.25,35.0,1,1.0,0.30189999999993233
746,1,0.8,0.25,-35.0,-1,1.0,0.20199999999931606
747,1,0.8,0.0,-35.0,-1,1.0,0.3121000000001004
748,1,0.8,0.125,-35.0,-1,1.0,0.22879999999986467
749,1,0.8,1.0,-35.0,-1,1.0,0.19559999999955835
750,1,0.8,0.125,-35.0,-1,1.0,0.2591000000002168
751,1,0.8,1.0,-35.0,-1,1.0,0.22569999999950596
752,1,0.8,0.0625,35.0,-1,0.0,0.9356999999999971
753,1,0.8,0.125,-35.0,-1,1.0,0.3358999999995831
754,1,0.8,0.125,-35.0,-1,1.0,0.212699999999586
755,1,0.8,0.0625,-35.0,-1,1.0,0.8328999999998814
756,1,0.8,1.0,-35.0,-1,1.0,0.2396999999991749
757,1,0.8,0.0,-35.0,-1,1.0,0.25969999999961146
758,1,0.8,1.0,-35.0,-1,1.0,0.2163999999997941
759,1,0.8,0.0625,-35.0,1,0.0,0.5799000000001797
760,1,0.8,1.0,-35.0,-1,1.0,0.27989999999954307
761,1,0.8,0.0625,-35.0,-1,1.0,0.20999999999958163
762,1,0.8,0.125,-35.0,-1,1.0,0.24679999999943902
763,1,0.8,0.0,-35.0,-1,1.0,0.2800999999999476
764,1,0.8,0.25,-35.0,-1,1.0,0.19369999999980791
765,1,0.8,0.25,-35.0,-1,1.0,0.6669999999999163
766,1,0.8,0.0625,35.0,-1,0.0,0.31379999999990105
767,1,0.8,0.125,-35.0,-1,1.0,0.34709999999950014
768,1,0.8,0.0625,35.0,-1,0.0,0.1938999999997577
769,1,0.8,0.25,-35.0,-1,1.0,0.2939999999994143
770,1,0.8,0.25,-35.0,-1,1.0,0.09420000000000073
771,1,0.8,0.0,35.0,-1,0.0,3.784099999999853
772,1,0.8,0.125,-35.0,-1,1.0,0.36429999999973006
773,1,0.8,1.0,-35.0,-1,1.0,0.27109999999993306
774,1,0.8,1.0,35.0,1,1.0,0.26789999999982683
775,1,0.8,0.125,-35.0,-1,1.0,0.2613000000001193
776,1,0.8,0.25,-35.0,-1,1.0,0.2547999999997046
777,1,0.8,0.0,-35.0,-1,1.0,0.2948989999999867
778,1,0.8,0.0625,-35.0,-1,1.0,0.08489999999983411
779,1,0.8,0.25,-35.0,-1,1.0,0.24839999999949214
780,1,0.2,0.0625,35.0,-1,0.0,0.278400000000147
781,1,0.2,0.0625,35.0,1,1.0,1.1385000000000218
782,1,0.2,0.0625,35.0,1,1.0,3.381999999999607
783,1,0.2,0.125,35.0,1,1.0,0.6121999999995751
784,1,0.2,0.25,35.0,1,1.0,0.3022999999998319
785,1,0.2,0.0625,35.0,1,1.0,0.36899999999968713
786,1,0.2,0.25,35.0,1,1.0,0.2490999999995438
787,1,0.2,0.0625,35.0,1,1.0,0.389199999999164
788,1,0.2,1.0,35.0,1,1.0,0.2525999999998021
789,1,0.2,0.0,-35.0,-1,1.0,0.24959999999964566
790,1,0.2,0.25,35.0,1,1.0,0.3061999999999898
791,1,0.2,0.25,35.0,1,1.0,0.48969999999962965
792,1,0.2,0.0625,35.0,1,1.0,6.853099999999813
793,1,0.2,1.0,35.0,1,1.0,0.23340000000007421
794,1,0.2,0.125,35.0,1,1.0,0.45679999999993015
795,1,0.2,0.0625,-35.0,-1,1.0,0.4668999999994412
796,1,0.2,0.0625,35.0,1,1.0,0.733600000000024
797,1,0.2,0.0,35.0,-1,0.0,0.2203999999996995
798,1,0.2,0.125,-35.0,1,0.0,0.5171999999997752
799,1,0.2,0.25,-35.0,-1,1.0,0.3105999999997948
800,1,0.2,0.0,35.0,1,1.0,0.4706989999999678
801,1,0.2,0.0625,35.0,1,1.0,0.5841999999997824
802,1,0.2,0.125,35.0,1,1.0,5.430899999999838
803,1,0.2,1.0,35.0,1,1.0,0.14769999999953143
804,1,0.2,0.125,-35.0,-1,1.0,0.29460000000017317
805,1,0.2,1.0,-35.0,-1,1.0,0.24129999999968277
806,1,0.2,1.0,35.0,1,1.0,2.7280999999993583
807,1,0.2,0.125,35.0,1,1.0,0.3348999999998341
808,1,0.2,0.0,35.0,1,1.0,0.631699999999455
809,1,0.2,0.0625,35.0,1,1.0,2.9484999999995125
810,1,0.2,0.0625,-35.0,-1,1.0,1.0818999999996777
811,1,0.2,1.0,35.0,1,1.0,0.2552999999993517
812,1,0.2,0.25,35.0,1,1.0,0.3354999999996835
813,1,0.2,0.125,35.0,1,1.0,0.28549999999995634
814,1,0.2,0.125,35.0,1,1.0,0.6156999999998334
815,1,0.2,0.25,35.0,1,1.0,0.2789999999995416
816,1,0.2,0.25,35.0,1,1.0,0.24569999999994252
817,1,0.2,0.0625,35.0,1,1.0,0.35919999999941865
818,1,0.2,0.25,35.0,1,1.0,0.2992999999996755
819,1,0.2,0.0625,35.0,1,1.0,0.28609999999980573
820,1,0.2,1.0,35.0,1,1.0,0.029499999999643478
821,1,0.2,0.125,-35.0,-1,1.0,0.18269999999984066
822,1,0.2,0.25,35.0,1,1.0,0.2628999999997177
823,1,0.2,0.0,35.0,1,1.0,0.3261999999995169
824,1,0.2,0.25,-35.0,-1,1.0,0.4798000000000684
825,1,0.2,0.25,35.0,1,1.0,0.2332999999994172
826,1,0.2,0.125,35.0,1,1.0,0.3498999999997068
827,1,0.2,1.0,35.0,1,1.0,0.21329999999943539
828,1,0.2,0.125,35.0,1,1.0,0.2901000000001659
829,1,0.2,0.25,-35.0,-1,1.0,0.27349999999978536
830,1,0.2,0.25,35.0,1,1.0,0.2402999999999338
831,1,0.2,1.0,35.0,1,1.0,0.2405999999996311
832,1,0.2,0.0,35.0,-1,0.0,0.2670999999995729
833,1,0.2,0.25,35.0,1,1.0,0.26729999999997744
834,1,0.2,0.25,35.0,1,1.0,0.2539999999999054
835,1,0.2,0.0625,35.0,1,1.0,0.6473999999998341
836,1,0.2,0.25,-35.0,-1,1.0,0.30760000000009313
837,1,0.2,0.0625,35.0,1,1.0,4.05429999999933
838,1,0.2,0.25,35.0,1,1.0,0.23769999999967695
839,1,0.2,0.125,35.0,1,1.0,0.2478000000000975
840,1,0.2,0.0,35.0,1,1.0,2.3346999999998843
841,1,0.2,0.0,-35.0,1,0.0,0.25129999999990105
842,1,0.2,0.0625,35.0,1,1.0,0.3314999999997781
843,1,0.2,0.0625,35.0,1,1.0,5.5581999999999425
844,1,0.2,0.125,-35.0,-1,1.0,0.2084999999997308
845,1,0.2,0.125,35.0,1,1.0,0.3386000000000422
846,1,0.2,0.0625,-35.0,-1,1.0,0.6552999999998974
847,1,0.2,0.25,35.0,1,1.0,0.17869999999993524
848,1,0.2,1.0,35.0,1,1.0,0.20879999999988286
849,1,0.2,0.0625,35.0,-1,0.0,1.0055999999999585
850,1,0.2,0.0625,-35.0,-1,1.0,0.3554999999996653
851,1,0.2,0.0625,35.0,1,1.0,0.39239999999972497
852,1,0.2,0.0625,35.0,1,1.0,1.7356999999997242
853,1,0.2,0.0625,35.0,-1,0.0,0.15929999999980282
854,1,0.2,1.0,-35.0,-1,1.0,0.2860000000000582
855,1,0.2,1.0,35.0,1,1.0,0.22599999999965803
856,1,0.2,0.25,-35.0,-1,1.0,0.2460000000000946
857,1,0.2,0.25,35.0,-1,0.0,0.2361999999998261
858,1,0.2,1.0,35.0,1,1.0,0.25959999999986394
859,1,0.2,1.0,35.0,1,1.0,0.22959999999966385
860,1,0.2,0.25,35.0,1,1.0,0.27979999999979555
861,1,0.2,0.0,35.0,-1,0.0,6.479799999999614
862,1,0.2,1.0,35.0,1,1.0,0.2332999999994172
863,1,0.2,1.0,35.0,1,1.0,0.21679999999969368
864,1,0.2,0.0625,35.0,1,1.0,0.6702999999997701
865,1,0.2,0.25,35.0,1,1.0,0.28699999999935244
866,1,0.2,1.0,35.0,1,1.0,0.23039999999946303
867,1,0.2,0.0,35.0,-1,0.0,1.7472999999995409
868,1,0.2,1.0,35.0,1,1.0,0.2106999999996333
869,1,0.2,1.0,-35.0,-1,1.0,0.24080000000003565
870,1,0.2,0.125,35.0,1,1.0,0.2808999999997468
871,1,0.2,0.25,-35.0,-1,1.0,0.18109999999978754
872,1,0.2,1.0,35.0,1,1.0,0.21090000000003783
873,1,0.2,0.25,35.0,1,1.0,0.3077999999995882
874,1,0.2,0.0,35.0,-1,0.0,0.1277989999998681
875,1,0.2,0.0,35.0,1,1.0,0.2944999999999709
876,1,0.8,0.25,35.0,1,1.0,0.2179999999998472
877,1,0.8,0.25,-35.0,-1,1.0,0.28139999999984866
878,1,0.8,0.25,-35.0,-1,1.0,0.2648999999996704
879,1,0.8,0.0625,-35.0,-1,1.0,0.3781999999996515
880,1,0.8,0.0625,-35.0,1,0.0,0.40509999999949287
881,1,0.8,1.0,-35.0,-1,1.0,0.2684999999996762
882,1,0.8,0.0,-35.0,1,0.0,0.3818999999998596
883,1,0.8,1.0,-35.0,-1,1.0,0.2719999999999345
884,1,0.8,0.0625,-35.0,-1,1.0,0.20879999999988286
885,1,0.8,0.0625,-35.0,-1,1.0,0.21899999999959618
886,1,0.8,0.125,-35.0,-1,1.0,0.2321999999999207
887,1,0.8,0.125,-35.0,-1,1.0,0.3954999999996289
888,1,0.8,0.25,-35.0,-1,1.0,0.4323999999996886
889,1,0.8,0.125,-35.0,-1,1.0,0.42909999999983484
890,1,0.8,0.125,-35.0,-1,1.0,0.25909999999930733
891,1,0.8,0.125,-35.0,-1,1.0,0.21259999999938373
892,1,0.8,0.125,-35.0,-1,1.0,0.2227999999995518
893,1,0.8,1.0,-35.0,-1,1.0,0.30280000000038854
894,1,0.8,0.0625,-35.0,-1,1.0,0.2729010000002745
895,1,0.8,1.0,-35.0,-1,1.0,0.23630100000082166
896,1,0.8,0.25,-35.0,-1,1.0,0.3097010000001319
897,1,0.2,0.125,35.0,1,1.0,0.26980100000037055
898,1,0.2,1.0,35.0,1,1.0,0.23660099999960948
899,1,0.2,0.0,35.0,-1,0.0,2.3533010000001013
900,1,0.2,0.0,35.0,-1,0.0,1.1434010000002672
901,1,0.2,0.25,35.0,1,1.0,0.6669010000005073
902,1,0.2,1.0,35.0,1,1.0,0.213701000000583
903,1,0.2,0.25,35.0,1,1.0,0.27380100000027596
904,1,0.2,0.0625,35.0,-1,0.0,0.33050099999945814
905,1,0.2,0.0,35.0,1,1.0,0.7706010000010792
906,1,0.2,0.0625,35.0,-1,0.0,0.2207010000001901
907,1,0.2,0.0625,35.0,1,1.0,0.4607010000008813
908,1,0.2,0.125,35.0,1,1.0,0.3075010000002294
909,1,0.2,0.0,35.0,-1,0.0,0.2476010000000315
910,1,0.2,0.125,-35.0,-1,1.0,0.45430100000066886
911,1,0.2,0.0625,-35.0,-1,1.0,0.33780100000058155
912,1,0.2,0.125,35.0,-1,0.0,0.3144010000005437
913,1,0.2,0.125,35.0,1,1.0,6.791201000000001
914,1,0.2,0.25,35.0,-1,0.0,0.2115010000006805
915,1,0.2,0.125,35.0,1,1.0,0.2649010000004637
916,1,0.2,0.0625,35.0,-1,0.0,0.6718010000004142
917,1,0.2,0.0625,35.0,1,1.0,0.7884000000003653
918,1,0.2,0.125,35.0,1,1.0,0.30540100000052917
919,1,0.2,0.125,35.0,1,1.0,0.28200099999958184
920,1,0.2,0.0625,-35.0,-1,1.0,0.2321010000005117
921,1,0.2,1.0,35.0,1,1.0,0.26540099999965605
922,1,0.2,0.25,-35.0,-1,1.0,0.2788010000003851
923,1,0.2,0.25,35.0,-1,0.0,0.0689009999996415
924,1,0.2,0.0625,35.0,1,1.0,0.29230099999949744
925,1,0.2,0.25,35.0,1,1.0,0.26250100000015664
926,1,0.2,0.0,35.0,-1,0.0,0.2825010000005932
927,1,0.2,0.25,35.0,1,1.0,0.28930100000070524
928,1,0.2,0.25,-35.0,-1,1.0,0.2627010000005612
929,1,0.2,0.25,35.0,1,1.0,0.3061010000001261
930,1,0.2,1.0,-35.0,-1,1.0,0.12280100000043603
931,1,0.2,0.0,35.0,1,1.0,4.572901000000456
932,1,0.2,0.0,35.0,1,1.0,0.48640100000011444
933,1,0.2,0.0625,35.0,-1,0.0,0.21330000000034488
934,1,0.2,0.125,35.0,1,1.0,0.5266010000004826
935,1,0.2,0.0625,35.0,-1,0.0,0.5101009999998496
936,1,0.2,0.0625,35.0,1,1.0,0.7868010000001959
937,1,0.2,0.0,35.0,1,1.0,0.47020100000008824
938,1,0.2,0.0625,35.0,1,1.0,0.28370100000029197
939,1,0.2,0.0,35.0,1,1.0,0.5439010000009148
940,1,0.2,0.0625,-35.0,1,0.0,3.4804000000003725
941,1,0.2,0.0625,35.0,1,1.0,0.504001000000244
942,1,0.2,0.125,35.0,1,1.0,0.274000999999771
943,1,0.2,1.0,35.0,1,1.0,0.2509009999994305
944,1,0.2,0.0625,-35.0,-1,1.0,0.5942009999998845
945,1,0.2,1.0,35.0,1,1.0,0.22420099999999366
946,1,0.2,0.125,35.0,1,1.0,0.32090100000095845
947,1,0.2,1.0,-35.0,-1,1.0,0.29110100000070815
948,1,0.2,0.25,35.0,1,1.0,1.2945010000003094
949,1,0.2,0.0625,-35.0,-1,1.0,0.27130100000067614
950,1,0.2,1.0,35.0,1,1.0,0.26470100000005914
951,1,0.2,0.125,35.0,1,1.0,0.29150100000060775
952,1,0.2,0.125,35.0,1,1.0,0.34150100000078965
953,1,0.2,0.0,35.0,-1,0.0,0.5550010000006296
954,1,0.2,1.0,35.0,1,1.0,0.2417010000008304
955,1,0.2,0.25,35.0,1,1.0,0.29850100000021484
956,1,0.2,0.25,35.0,1,1.0,0.2586010000004535
957,1,0.2,1.0,35.0,1,1.0,0.22540100000060193
958,1,0.2,0.0625,35.0,-1,0.0,0.21880099999998492
959,1,0.2,0.0,35.0,-1,0.0,0.06920099999933882
960,1,0.2,0.25,-35.0,-1,1.0,0.4589009999999689
961,1,0.2,0.125,35.0,-1,0.0,0.26570100000026287
962,1,0.2,0.25,35.0,1,1.0,0.2424010000004273
963,1,0.2,0.0625,35.0,-1,0.0,0.3258009999999558
964,1,0.2,1.0,35.0,1,1.0,0.3093010000002323
965,1,0.2,0.0,-35.0,1,0.0,0.9726010000003953
966,1,0.8,0.0625,-35.0,-1,1.0,0.2660009999999602
967,1,0.8,0.0,-35.0,-1,1.0,0.2528999999994994
968,1,0.8,0.25,-35.0,-1,1.0,0.21620100000018283
969,1,0.8,0.125,35.0,1,1.0,0.7962010000001101
970,1,0.8,0.0625,35.0,-1,0.0,2.406300999999985
971,1,0.8,0.0,-35.0,1,0.0,2.2167010000002847
972,1,0.8,1.0,-35.0,-1,1.0,0.3333009999996648
973,1,0.8,0.25,-35.0,-1,1.0,0.2901010000005044
974,1,0.8,1.0,-35.0,-1,1.0,0.23020100000030652
975,1,0.8,0.0625,35.0,-1,0.0,4.143600999999762
976,1,0.8,0.0625,-35.0,-1,1.0,0.5205009999999675
977,1,0.8,0.125,-35.0,-1,1.0,0.2539010000000417
978,1,0.8,1.0,-35.0,-1,1.0,0.23050100000091334
979,1,0.8,0.0,-35.0,-1,1.0,1.4006000000008498
980,1,0.8,0.25,-35.0,-1,1.0,8.600801000000502
981,1,0.8,0.25,-35.0,-1,1.0,0.2846010000002934
982,1,0.8,0.125,35.0,-1,0.0,0.22450100000060047
983,1,0.8,0.0625,-35.0,1,0.0,0.30140100000062375
984,1,0.8,0.0625,35.0,-1,0.0,0.5849010000001726
985,1,0.8,1.0,-35.0,-1,1.0,0.2616010000010647
986,1,0.8,0.125,-35.0,-1,1.0,0.27500100000088423
987,1,0.8,0.25,-35.0,-1,1.0,0.2517010000001392
988,1,0.8,0.0,-35.0,-1,1.0,0.3785010000001421
989,1,0.8,0.0625,-35.0,-1,1.0,0.24860099999932572
990,1,0.8,0.0,-35.0,-1,1.0,0.2719010000000708
991,1,0.8,1.0,35.0,1,1.0,0.26870099999996455
992,1,0.8,0.125,-35.0,-1,1.0,0.25540100000034727
993,1,0.8,0.125,-35.0,-1,1.0,0.2824010000003909
994,1,0.2,0.0,35.0,-1,0.0,0.41900100000020757
995,1,0.2,0.0625,35.0,1,1.0,0.4259010000005219
996,1,0.2,0.25,-35.0,-1,1.0,0.24580100000002858
997,1,0.2,0.0625,35.0,-1,0.0,2.612500999999611
998,1,0.2,0.0625,35.0,1,1.0,5.472701000000598
999,1,0.2,1.0,35.0,1,1.0,0.23300099999960366
1000,1,0.2,1.0,-35.0,-1,1.0,0.2997009999999136
1001,1,0.2,0.0,35.0,-1,0.0,0.27310099999976956
1002,1,0.2,0.25,-35.0,-1,1.0,5.579801000000771
1003,1,0.2,0.125,35.0,1,1.0,0.27020100000117964
1004,1,0.2,0.0625,35.0,-1,0.0,0.4335010000004331
1005,1,0.2,0.0625,35.0,1,1.0,0.5736010000000533
1006,1,0.2,0.0625,35.0,-1,0.0,0.2237009999998918
1007,1,0.2,1.0,-35.0,-1,1.0,0.37050100000033126
1008,1,0.2,0.0625,35.0,-1,0.0,0.22720099999969534
1009,1,0.2,0.125,35.0,1,1.0,2.040600999999697
1010,1,0.2,0.125,35.0,1,1.0,0.587401000000682
1011,1,0.2,1.0,35.0,1,1.0,0.2707009999994625
1012,1,0.2,0.0,35.0,-1,0.0,0.2942009999997026
1013,1,0.2,0.25,35.0,1,1.0,0.49440099999992526
1014,1,0.2,0.125,35.0,1,1.0,0.29440100000010716
1015,1,0.2,0.0625,35.0,-1,0.0,5.704400999999962
1016,1,0.2,1.0,-35.0,-1,1.0,0.2947009999998045
1017,1,0.2,0.0625,35.0,-1,0.0,0.02800100000058592
1018,1,0.2,1.0,35.0,1,1.0,0.3615010000003167
1019,1,0.2,0.0,35.0,-1,0.0,0.23160100000040984
1020,1,0.2,0.25,35.0,1,1.0,0.6516010000004826
1021,1,0.2,0.25,35.0,1,1.0,0.3383009999997739
1022,1,0.8,0.0625,-35.0,1,0.0,0.521801000000778
1023,1,0.8,0.0625,35.0,1,1.0,5.421801000000414
1024,1,0.8,0.0,-35.0,-1,1.0,4.445401000000857
1025,1,0.8,0.125,-35.0,-1,1.0,0.29230100000040693
1026,1,0.8,0.0625,-35.0,-1,1.0,6.34570100000019
1027,1,0.8,0.25,-35.0,-1,1.0,0.2660010000008697
1028,1,0.8,0.25,-35.0,-1,1.0,0.32600100000036036
1029,1,0.8,0.0625,-35.0,-1,1.0,0.30950099999972736
1030,1,0.8,0.125,35.0,-1,0.0,0.22950099999980011
1031,1,0.8,0.125,-35.0,-1,1.0,0.28960100000131206
1032,1,0.8,0.125,-35.0,-1,1.0,0.2064009999994596
1033,1,0.8,1.0,-35.0,-1,1.0,0.40650100000038947
1034,1,0.8,0.0625,-35.0,-1,1.0,3.1064010000000053
1035,1,0.8,0.25,-35.0,-1,1.0,3.6899010000006456
1036,1,0.8,0.0625,-35.0,-1,1.0,0.5868010000003778
1037,1,0.8,0.125,-35.0,-1,1.0,0.22350100000130624
1038,1,0.8,0.125,-35.0,-1,1.0,0.18350100000043312
1039,1,0.8,0.25,-35.0,-1,1.0,0.21360100000038074
1040,1,0.8,0.125,-35.0,-1,1.0,0.2938010000007125
1041,1,0.8,0.0,-35.0,-1,1.0,0.27380100000027596
1042,1,0.8,0.0,-35.0,-1,1.0,0.31390100000044185
1043,1,0.8,0.25,35.0,1,1.0,0.40070099999957165
1044,1,0.8,0.0625,-35.0,-1,1.0,0.28410100000110106
1045,1,0.8,0.25,-35.0,-1,1.0,0.24410100000022794
1046,1,0.8,0.25,-35.0,-1,1.0,0.2343010000004142
1047,1,0.8,0.25,-35.0,-1,1.0,0.13770100000056118
1048,1,0.8,0.0,-35.0,-1,1.0,0.2244010000003982
1049,1,0.8,0.125,-35.0,-1,1.0,0.15780100000029051
1050,1,0.8,1.0,-35.0,-1,1.0,0.26130100000045786
1051,1,0.8,0.0,-35.0,-1,1.0,0.8213009999999485
1052,1,0.8,0.25,-35.0,-1,1.0,0.25800100000014936
1053,1,0.2,1.0,-35.0,-1,1.0,0.2347010000003138
1054,1,0.2,1.0,35.0,1,1.0,0.27490099999977247
1055,1,0.2,0.125,-35.0,-1,1.0,0.22490100000050006
1056,1,0.2,1.0,35.0,1,1.0,0.31840100000044913
1057,1,0.2,1.0,-35.0,-1,1.0,0.1950010000000475
1058,1,0.2,0.0,-35.0,1,0.0,5.955001000000266
1059,1,0.2,0.0625,35.0,-1,0.0,8.132101000000148
1060,1,0.2,0.125,35.0,1,1.0,0.5490010000003167
1061,1,0.2,0.125,35.0,-1,0.0,0.2358009999998103
1062,1,0.2,0.0,-35.0,-1,1.0,0.4292009999999209
1063,1,0.2,0.125,35.0,1,1.0,0.4126009999999951
1064,1,0.2,0.125,35.0,1,1.0,0.30950100000063685
1065,1,0.2,0.125,35.0,1,1.0,0.2262010000004011
1066,1,0.2,0.0625,-35.0,-1,1.0,0.3329009999997652
1067,1,0.2,0.125,35.0,-1,0.0,0.24960100000043894
1068,1,0.2,0.125,-35.0,-1,1.0,0.8030010000002221
1069,1,0.2,0.0,35.0,1,1.0,0.47980100000040693
1070,1,0.2,1.0,35.0,1,1.0,0.2299009999996997
1071,1,0.2,0.25,35.0,1,1.0,0.2766009999995731
1072,1,0.2,1.0,35.0,1,1.0,0.28670099999999366
1073,1,0.2,1.0,35.0,1,1.0,0.27020100000027014
1074,1,0.2,0.125,35.0,1,1.0,0.31030100000043603
1075,1,0.2,1.0,35.0,1,1.0,0.25700099999994563
1076,1,0.2,0.0625,35.0,1,1.0,1.4803010000005088
1077,1,0.2,0.25,35.0,1,1.0,0.40040099999987433
1078,1,0.2,1.0,35.0,1,1.0,0.28050100000018574
1079,1,0.2,0.25,35.0,1,1.0,11.873900999999933
1080,1,0.2,1.0,35.0,1,1.0,0.30100099999981467
1081,1,0.2,0.25,35.0,1,1.0,0.24770100000023376
1082,1,0.2,0.125,35.0,1,1.0,0.29120100000000093
1083,1,0.2,1.0,-35.0,-1,1.0,0.26790100000016537
1084,1,0.2,0.25,35.0,1,1.0,0.2879010000006019
1085,1,0.2,0.25,35.0,1,1.0,0.25470099999984086
1086,1,0.2,0.25,35.0,1,1.0,0.2347010000003138
1087,1,0.2,0.25,35.0,1,1.0,0.4148010000008071
1088,1,0.2,0.0625,-35.0,1,0.0,15.134901000000355
1089,1,0.2,1.0,35.0,1,1.0,0.26870099999996455
1090,1,0.2,0.0,35.0,1,1.0,0.49550100000033126
1091,1,0.2,1.0,-35.0,-1,1.0,0.2656010000000606
1092,1,0.8,1.0,-35.0,-1,1.0,0.38560099999995145
1093,1,0.8,0.0,-35.0,-1,1.0,0.6956010000003516
1094,1,0.8,0.0,-35.0,-1,1.0,0.26900100000057137
1095,1,0.8,0.125,-35.0,-1,1.0,0.3324010000005728
1096,1,0.8,0.0625,-35.0,-1,1.0,0.2858009999999922
1097,1,0.8,0.125,-35.0,-1,1.0,17.469301000000087
1098,1,0.8,0.0625,-35.0,-1,1.0,5.326501000000462
1099,1,0.8,0.0625,-35.0,-1,1.0,0.2601009999998496
1100,1,0.8,0.125,35.0,1,1.0,0.9634009999999762
1101,1,0.8,0.0,-35.0,-1,1.0,0.20030099999985396
1102,1,0.8,0.0,-35.0,-1,1.0,5.887001000000055
1103,1,0.8,0.25,35.0,1,1.0,0.7105009999995673
1104,1,0.8,0.125,-35.0,-1,1.0,0.3372010000002774
1105,1,0.8,0.25,-35.0,-1,1.0,0.20060100000046077
1106,1,0.8,1.0,35.0,1,1.0,0.264100999999755
1107,1,0.8,0.125,-35.0,-1,1.0,6.460801000000174
1108,1,0.8,0.0625,35.0,1,1.0,0.2910010000005059
1109,1,0.8,1.0,-35.0,-1,1.0,0.27790099999947415
1110,1,0.8,0.125,-35.0,-1,1.0,0.3012010000002192
1111,1,0.8,1.0,-35.0,-1,1.0,0.2314010000009148
1112,1,0.8,0.0625,-35.0,-1,1.0,7.871401000000333
1113,1,0.8,0.125,-35.0,-1,1.0,0.3583010000002105
1114,1,0.2,0.125,35.0,-1,0.0,0.26500100000066595
1115,1,0.2,1.0,35.0,1,1.0,0.2884010000007038
1116,1,0.2,1.0,35.0,1,1.0,0.23520099999950617
1117,1,0.2,0.125,35.0,1,1.0,0.3153010000005452
1118,1,0.2,0.0625,35.0,1,1.0,0.6286010000003444
1119,1,0.2,0.0625,35.0,1,1.0,1.4154009999992923
1120,1,0.2,1.0,-35.0,-1,1.0,0.2321009999996022
1121,1,0.2,0.0625,35.0,1,1.0,8.38890100000026
1122,1,0.2,0.0625,35.0,1,1.0,1.0892009999997754
1123,1,0.2,0.25,35.0,1,1.0,0.6293009999999413
1124,1,0.2,0.0,35.0,1,1.0,0.3861010000000533
1125,1,0.2,0.25,35.0,1,1.0,0.2961009999999078
1126,1,0.2,0.125,-35.0,-1,1.0,0.5029010000007474
1127,1,0.2,0.25,35.0,1,1.0,0.3697009999996226
1128,1,0.2,0.25,35.0,1,1.0,0.28960100000040256
1129,1,0.2,0.125,35.0,1,1.0,0.4164010000004055
1130,1,0.2,0.0,35.0,1,1.0,0.37650099999973463
1131,1,0.2,1.0,-35.0,-1,1.0,0.26320099999975355
1132,1,0.2,0.125,35.0,1,1.0,0.4766009999993912
1133,1,0.2,0.25,35.0,1,1.0,8.660001000000193
1134,1,0.2,1.0,35.0,1,1.0,0.25360099999943486
1135,1,0.2,0.0625,-35.0,-1,1.0,18.80040100000042
1136,1,0.2,0.0625,35.0,-1,0.0,0.30110100000092643
1137,1,0.2,0.125,35.0,-1,0.0,0.3145009999998365
1138,1,0.2,0.25,35.0,1,1.0,0.28450100000009115
1139,1,0.2,0.0625,35.0,1,1.0,10.911201000000801
1140,1,0.2,1.0,35.0,1,1.0,0.16830099999970116
1141,1,0.2,0.0625,-35.0,1,0.0,2.0951010000007955
1142,1,0.2,0.0625,35.0,1,1.0,2.301900999999816
1143,1,0.2,0.125,35.0,1,1.0,0.16550100000040402
1144,1,0.2,0.0,35.0,1,1.0,1.4821009999996022
1145,1,0.2,0.0,-35.0,1,0.0,0.9289010000002236
1146,1,0.2,0.25,35.0,1,1.0,0.31900100000075327
1147,1,0.2,0.25,-35.0,-1,1.0,24.982601000000614
1148,1,0.2,1.0,35.0,1,1.0,0.24660099999982776
1149,1,0.2,0.25,35.0,1,1.0,0.2501009999996313
1150,1,0.2,0.0625,35.0,1,1.0,0.28340099999968515
1151,1,0.2,0.25,35.0,1,1.0,0.2068010000002687
1152,1,0.8,0.125,-35.0,0,0.0,59.95690100000047
1153,1,0.8,0.125,35.0,1,1.0,4.9692009999998845
1154,1,0.8,0.0,-35.0,-1,1.0,3.0688010000003487
1155,1,0.8,0.0625,-35.0,1,0.0,26.722301000000698
1156,1,0.8,0.25,-35.0,-1,1.0,0.6765009999999165
1157,1,0.8,0.125,-35.0,-1,1.0,16.730201000000307
1158,1,0.8,0.125,-35.0,1,0.0,4.887501000000157
1,2,0.8,0.0,-35.0,1,0.0,0.3944000000000001
2,2,0.8,0.0625,-35.0,-1,1.0,0.33449999999999935
3,2,0.8,0.25,-35.0,-1,1.0,0.3957000000000006
4,2,0.8,0.125,-35.0,-1,1.0,0.3674999999999997
5,2,0.8,0.0,-35.0,-1,1.0,0.09640000000000093
6,2,0.8,1.0,-35.0,-1,1.0,0.19610000000000127
7,2,0.8,0.125,35.0,-1,0.0,0.34289999999999665
8,2,0.8,1.0,-35.0,-1,1.0,0.22039999999999438
9,2,0.8,0.125,-35.0,-1,1.0,0.2414999999999985
10,2,0.8,1.0,-35.0,-1,1.0,0.20809999999999818
11,2,0.8,0.125,-35.0,-1,1.0,0.2763999999999953
12,2,0.8,0.125,-35.0,-1,1.0,0.20860000000000412
13,2,0.8,0.25,35.0,-1,0.0,0.23379999999999512
14,2,0.8,0.125,35.0,-1,0.0,2.639000000000003
15,2,0.8,0.0,-35.0,-1,1.0,0.2504999999999953
16,2,0.8,1.0,35.0,1,1.0,0.25839999999999463
17,2,0.8,0.0625,-35.0,-1,1.0,1.3151999999999973
18,2,0.8,0.25,35.0,1,1.0,0.6352999999999938
19,2,0.8,0.0625,-35.0,-1,1.0,0.23730000000000473
20,2,0.8,0.0625,35.0,1,1.0,0.8430000000000035
21,2,0.8,0.25,35.0,1,1.0,0.24200000000000443
22,2,0.8,1.0,35.0,1,1.0,0.9610000000000127
23,2,0.8,0.0625,-35.0,-1,1.0,0.3120000000000118
24,2,0.8,1.0,-35.0,-1,1.0,0.22330000000000894
25,2,0.8,0.0625,-35.0,-1,1.0,0.33729999999999905
26,2,0.8,0.125,35.0,1,1.0,0.30280000000000484
27,2,0.8,1.0,-35.0,-1,1.0,0.22450000000000614
28,2,0.8,1.0,-35.0,-1,1.0,0.23020000000002483
29,2,0.8,0.0625,-35.0,-1,1.0,1.4109000000000123
30,2,0.8,0.25,-35.0,-1,1.0,0.26439999999999486
31,2,0.8,1.0,-35.0,-1,1.0,0.2359000000000151
32,2,0.8,1.0,-35.0,-1,1.0,0.20310000000000628
33,2,0.8,1.0,-35.0,-1,1.0,0.262999999999991
34,2,0.8,0.0625,-35.0,-1,1.0,1.2317000000000036
35,2,0.8,1.0,-35.0,-1,1.0,0.2283000000000044
36,2,0.8,0.25,-35.0,-1,1.0,1.0999000000000052
37,2,0.8,1.0,35.0,1,1.0,0.1716000000000122
38,2,0.8,0.0,35.0,1,1.0,3.5069000000000017
39,2,0.8,0.25,-35.0,-1,1.0,0.22309999999998809
40,2,0.8,0.125,-35.0,-1,1.0,0.28539999999998145
41,2,0.8,0.125,35.0,1,1.0,0.2615000000000123
42,2,0.8,0.125,-35.0,-1,1.0,0.938699999999983
43,2,0.8,0.25,35.0,1,1.0,0.2822999999999638
44,2,0.8,1.0,-35.0,-1,1.0,0.20400000000000773
45,2,0.8,0.25,-35.0,1,0.0,0.6353999999999758
46,2,0.2,0.25,-35.0,-1,1.0,0.26019999999999754
47,2,0.2,1.0,35.0,1,1.0,0.8412999999999897
48,2,0.2,0.25,35.0,1,1.0,0.24600000000000932
49,2,0.2,0.25,-35.0,-1,1.0,0.5678999999999803
50,2,0.2,0.25,-35.0,-1,1.0,0.17959999999996512
51,2,0.2,0.125,35.0,1,1.0,0.2504999999999882
52,2,0.2,0.25,35.0,1,1.0,0.815100000000001
53,2,0.2,0.0625,35.0,1,1.0,0.6907999999999959
54,2,0.2,0.125,35.0,1,1.0,0.42739999999997735
55,2,0.2,0.25,35.0,1,1.0,0.288599999999974
56,2,0.2,0.0625,-35.0,-1,1.0,1.2553000000000054
57,2,0.2,0.125,35.0,1,1.0,0.4660999999999831
58,2,0.2,0.125,35.0,1,1.0,0.7115999999999758
59,2,0.2,0.125,-35.0,-1,1.0,0.29309999999998126
60,2,0.2,0.0625,35.0,1,1.0,0.33310000000000173
61,2,0.2,1.0,35.0,1,1.0,0.5709000000000231
62,2,0.2,0.0625,35.0,1,1.0,2.86099999999999
63,2,0.2,1.0,35.0,1,1.0,0.19829999999998904
64,2,0.2,0.0625,-35.0,-1,1.0,0.254099999999994
65,2,0.2,0.125,35.0,1,1.0,0.5126999999999668
66,2,0.2,0.0625,-35.0,-1,1.0,1.032999999999987
67,2,0.2,0.25,-35.0,-1,1.0,0.2389999999999759
68,2,0.2,1.0,-35.0,-1,1.0,0.23349999999999227
69,2,0.2,0.0,-35.0,1,0.0,0.4720999999999833
70,2,0.2,1.0,35.0,1,1.0,0.19250000000002387
71,2,0.2,0.0,35.0,-1,0.0,2.9495999999999754
72,2,0.2,0.25,35.0,1,1.0,0.2571999999999832
73,2,0.2,1.0,35.0,1,1.0,0.20409999999998263
74,2,0.2,0.0,35.0,-1,0.0,0.24969999999999004
75,2,0.2,0.0,35.0,1,1.0,0.1858000000000004
76,2,0.2,0.0,-35.0,1,0.0,0.15969999999998663
77,2,0.2,0.0,35.0,-1,0.0,0.22860000000000014
78,2,0.2,0.0625,35.0,1,1.0,0.19769999999999754
79,2,0.2,0.25,35.0,1,1.0,0.19790000000000418
80,2,0.2,0.25,35.0,1,1.0,0.2775999999999783
81,2,0.2,1.0,-35.0,-1,1.0,0.20589999999995712
82,2,0.2,0.125,35.0,1,1.0,0.2179999999999609
83,2,0.2,0.125,35.0,1,1.0,0.6922999999999888
84,2,0.2,0.125,35.0,1,1.0,0.5272999999999683
85,2,0.2,0.0625,35.0,1,1.0,9.081500000000005
86,2,0.2,0.125,35.0,1,1.0,0.1733000000000402
87,2,0.2,0.125,-35.0,-1,1.0,0.28949999999997544
88,2,0.2,0.125,35.0,1,1.0,0.2289000000000101
89,2,0.2,1.0,35.0,1,1.0,0.22400000000004638
90,2,0.2,0.25,35.0,1,1.0,0.26530000000002474
91,2,0.2,0.0,35.0,1,1.0,3.9726000000000568
92,2,0.2,0.125,35.0,1,1.0,0.6829000000000178
93,2,0.2,0.25,35.0,1,1.0,0.22620000000000573
94,2,0.2,0.0625,-35.0,1,0.0,0.2428000000000452
95,2,0.2,0.125,35.0,1,1.0,0.2918000000000802
96,2,0.2,0.0,35.0,1,1.0,11.960100000000011
97,2,0.2,0.0625,35.0,1,1.0,0.6908999999999992
98,2,0.2,1.0,35.0,1,1.0,0.21170000000000755
99,2,0.2,0.25,35.0,1,1.0,0.21450000000004366
100,2,0.2,0.0,35.0,1,1.0,5.095300000000009
101,2,0.2,1.0,-35.0,-1,1.0,0.22879999999997835
102,2,0.2,1.0,35.0,1,1.0,0.12230000000005248
103,2,0.2,0.25,-35.0,-1,1.0,0.27340000000003783
104,2,0.2,1.0,35.0,1,1.0,0.20890000000002829
105,2,0.2,0.0625,35.0,1,1.0,0.23030000000005657
106,2,0.2,1.0,35.0,1,1.0,0.19350000000002865
107,2,0.2,0.25,-35.0,-1,1.0,0.3069999999999595
108,2,0.2,1.0,35.0,1,1.0,0.1974999999999909
109,2,0.2,0.0,35.0,1,1.0,3.2793000000000347
110,2,0.2,0.0625,35.0,1,1.0,0.179300000000012
111,2,0.2,0.0625,-35.0,1,0.0,0.16849999999999454
112,2,0.2,0.125,-35.0,1,0.0,0.17140000000000555
113,2,0.2,0.125,35.0,1,1.0,0.03890000000001237
114,2,0.2,0.125,-35.0,-1,1.0,0.24630000000001928
115,2,0.2,0.0625,35.0,1,1.0,3.7895000000000323
116,2,0.2,0.0625,35.0,1,1.0,0.2499000000000251
117,2,0.2,1.0,35.0,1,1.0,0.17840000000001055
118,2,0.2,0.125,35.0,1,1.0,0.21969900000004827
119,2,0.2,0.0625,35.0,1,1.0,3.488400000000013
120,2,0.2,0.0,35.0,1,1.0,0.6771999999999707
121,2,0.2,0.25,35.0,1,1.0,0.2830000000000723
122,2,0.2,0.125,35.0,1,1.0,0.5736000000000558
123,2,0.2,0.0625,35.0,1,1.0,0.8413000000000466
124,2,0.2,0.0625,-35.0,-1,1.0,1.1887000000000398
125,2,0.2,0.25,35.0,1,1.0,0.6298000000000457
126,2,0.2,1.0,35.0,1,1.0,0.22500000000002274
127,2,0.8,0.25,-35.0,-1,1.0,0.27710000000001855
128,2,0.8,0.125,-35.0,-1,1.0,0.2514000000000465
129,2,0.8,0.25,-35.0,1,0.0,4.058500000000038
130,2,0.8,1.0,-35.0,-1,1.0,0.24030000000004748
131,2,0.8,1.0,-35.0,-1,1.0,0.244700000000023
132,2,0.8,1.0,-35.0,-1,1.0,0.955600000000004
133,2,0.8,1.0,-35.0,-1,1.0,0.27480000000002747
134,2,0.8,0.25,-35.0,-1,1.0,0.5983999999999696
135,2,0.8,1.0,-35.0,-1,1.0,1.1043999999999983
136,2,0.8,0.0625,-35.0,1,0.0,1.27109999999999
137,2,0.8,0.0625,-35.0,1,0.0,0.4189000000000078
138,2,0.8,0.25,35.0,1,1.0,0.19930000000005066
139,2,0.8,1.0,-35.0,-1,1.0,0.27050000000002683
140,2,0.8,0.25,-35.0,-1,1.0,1.0458000000000425
141,2,0.8,0.0625,-35.0,1,0.0,4.824899999999957
142,2,0.8,0.0,35.0,1,1.0,0.9173000000000116
143,2,0.8,0.0625,35.0,1,1.0,0.7156000000000518
144,2,0.8,0.25,35.0,1,1.0,0.2919000000000551
145,2,0.8,0.0625,-35.0,1,0.0,0.5264000000000237
146,2,0.8,0.25,35.0,1,1.0,0.21910000000002583
147,2,0.8,0.25,35.0,1,1.0,0.1867000000000303
148,2,0.8,0.25,-35.0,1,0.0,0.8723999999999705
149,2,0.8,0.25,-35.0,-1,1.0,1.237799999999993
150,2,0.8,1.0,-35.0,-1,1.0,0.26000000000004775
151,2,0.8,0.125,-35.0,1,0.0,9.674499999999966
152,2,0.8,0.25,35.0,1,1.0,0.4248999999999796
153,2,0.8,0.25,-35.0,1,0.0,7.2917999999999665
154,2,0.8,1.0,-35.0,-1,1.0,0.2799999999999727
155,2,0.8,0.125,-35.0,-1,1.0,9.914499999999975
156,2,0.8,0.125,-35.0,-1,1.0,0.31929999999999836
157,2,0.2,1.0,35.0,1,1.0,0.8143999999999778
158,2,0.2,1.0,-35.0,-1,1.0,1.2848000000000184
159,2,0.2,1.0,35.0,1,1.0,0.1877999999999247
160,2,0.2,0.125,35.0,1,1.0,0.22490000000004784
161,2,0.2,1.0,35.0,1,1.0,0.3751999999999498
162,2,0.2,1.0,35.0,1,1.0,0.2195000000000391
163,2,0.2,1.0,35.0,1,1.0,0.24459999999999127
164,2,0.2,1.0,35.0,1,1.0,0.20929999999998472
165,2,0.2,0.25,35.0,1,1.0,0.16889999999989413
166,2,0.2,0.125,35.0,1,1.0,0.6723999999999251
167,2,0.2,0.25,35.0,1,1.0,0.21349999999995362
168,2,0.2,0.25,35.0,1,1.0,0.24069999999994707
169,2,0.2,0.25,35.0,1,1.0,0.11169999999992797
170,2,0.2,0.125,-35.0,1,0.0,1.108199999999897
171,2,0.2,0.25,35.0,1,1.0,0.2758999999999787
172,2,0.2,1.0,-35.0,-1,1.0,0.2899999999999636
173,2,0.2,0.125,35.0,1,1.0,0.48080000000004475
174,2,0.2,1.0,35.0,1,1.0,0.20090000000004693
175,2,0.2,0.25,35.0,1,1.0,0.4495999999999185
176,2,0.2,0.25,35.0,1,1.0,0.2298999999999296
177,2,0.2,0.25,35.0,1,1.0,0.480199999999968
178,2,0.2,1.0,35.0,1,1.0,0.17250000000001364
179,2,0.2,0.25,35.0,1,1.0,0.47459999999989577
180,2,0.2,1.0,-35.0,-1,1.0,0.22310000000004493
181,2,0.2,0.125,35.0,1,1.0,0.23129899999992176
182,2,0.2,0.25,35.0,1,1.0,0.2056999999999789
183,2,0.2,1.0,35.0,1,1.0,0.25079999999991287
184,2,0.2,0.25,-35.0,1,0.0,3.215400000000045
185,2,0.2,1.0,35.0,1,1.0,0.19739999999990232
186,2,0.2,0.0,-35.0,1,0.0,2.8380999999999403
187,2,0.2,0.25,-35.0,-1,1.0,0.27710000000001855
188,2,0.2,0.125,35.0,1,1.0,0.2970999999998867
189,2,0.2,0.25,35.0,1,1.0,0.24479999999994106
190,2,0.2,1.0,-35.0,-1,1.0,0.3504999999998972
191,2,0.2,1.0,35.0,1,1.0,0.2281999999999016
192,2,0.2,1.0,35.0,1,1.0,0.23529999999993834
193,2,0.2,0.0625,35.0,1,1.0,0.5905999999999949
194,2,0.2,0.0,35.0,1,1.0,5.113599999999906
195,2,0.2,1.0,35.0,1,1.0,0.18599999999992178
196,2,0.2,0.25,35.0,1,1.0,0.5185999999999922
197,2,0.2,1.0,35.0,1,1.0,0.3845999999999776
198,2,0.2,0.25,35.0,1,1.0,0.24589999999989232
199,2,0.2,0.0625,35.0,1,1.0,4.0861999999999625
200,2,0.2,0.0,-35.0,1,0.0,0.5654999999999291
201,2,0.2,0.0625,35.0,1,1.0,0.5625999999999749
202,2,0.2,0.0625,35.0,1,1.0,0.3686000000000149
203,2,0.2,0.125,35.0,1,1.0,0.30979999999999563
204,2,0.2,1.0,35.0,1,1.0,0.07989999999995234
205,2,0.2,0.125,35.0,1,1.0,5.00549999999987
206,2,0.2,0.0625,35.0,1,1.0,0.9068000000000893
207,2,0.2,0.0625,35.0,1,1.0,0.4561999999998534
208,2,0.2,0.125,35.0,1,1.0,0.4093000000000302
209,2,0.2,1.0,35.0,1,1.0,0.19929999999988013
210,2,0.2,0.25,35.0,1,1.0,0.4117999999999711
211,2,0.2,0.0625,35.0,1,1.0,0.3268000000000484
212,2,0.2,0.0,-35.0,1,0.0,0.23299999999994725
213,2,0.2,1.0,35.0,1,1.0,0.2140999999999167
214,2,0.2,0.0625,35.0,1,1.0,2.96569999999997
215,2,0.2,1.0,-35.0,-1,1.0,0.2822999999999638
216,2,0.2,1.0,35.0,1,1.0,0.23279899999999998
217,2,0.2,0.125,35.0,1,1.0,0.457300000000032
218,2,0.2,1.0,35.0,1,1.0,0.06639999999993051
219,2,0.2,1.0,35.0,1,1.0,0.27749999999991815
220,2,0.2,1.0,-35.0,-1,1.0,0.7179999999999609
221,2,0.2,0.0,35.0,1,1.0,2.5037999999999556
222,2,0.2,0.25,-35.0,-1,1.0,0.6854999999999336
223,2,0.2,0.25,35.0,1,1.0,0.20069999999998345
224,2,0.2,0.0625,35.0,1,1.0,2.495999999999981
225,2,0.2,0.0625,35.0,1,1.0,0.7495000000000118
226,2,0.2,0.25,-35.0,1,0.0,0.19200000000000728
227,2,0.2,1.0,35.0,1,1.0,0.17250000000001364
228,2,0.2,0.0625,35.0,1,1.0,0.5786000000000513
229,2,0.8,1.0,-35.0,-1,1.0,0.2645999999999731
230,2,0.8,0.0625,-35.0,1,0.0,0.47669999999993706
231,2,0.8,0.25,-35.0,-1,1.0,0.2746999999999389
232,2,0.8,0.0625,-35.0,1,0.0,2.6341999999999643
233,2,0.8,1.0,-35.0,-1,1.0,0.3039999999999736
234,2,0.8,0.125,35.0,1,1.0,0.33149999999989177
235,2,0.8,0.0625,-35.0,-1,1.0,0.36179999999990287
236,2,0.8,0.0625,-35.0,-1,1.0,0.36419999999998254
237,2,0.8,1.0,-35.0,-1,1.0,0.2559999999998581
238,2,0.8,1.0,-35.0,-1,1.0,0.19809999999995398
239,2,0.8,0.125,-35.0,-1,1.0,0.7355000000000018
240,2,0.8,0.0625,-35.0,1,0.0,2.189599999999814
241,2,0.8,0.0625,-35.0,1,0.0,3.369699999999966
242,2,0.8,0.0625,-35.0,1,0.0,0.6941999999999098
243,2,0.8,0.125,35.0,1,1.0,0.26899999999989177
244,2,0.8,1.0,-35.0,-1,1.0,0.40869999999995343
245,2,0.8,0.125,-35.0,1,0.0,0.56149999999991
246,2,0.8,0.0625,-35.0,-1,1.0,0.7221999999999298
247,2,0.8,0.125,-35.0,-1,1.0,0.36439999999993233
248,2,0.8,1.0,-35.0,-1,1.0,0.36780000000010205
249,2,0.8,0.25,-35.0,-1,1.0,0.3384999999999536
250,2,0.8,0.0625,-35.0,-1,1.0,0.17679999999995744
251,2,0.8,0.125,-35.0,-1,1.0,0.2826000000000022
252,2,0.8,0.0625,-35.0,-1,1.0,0.3301999999999907
253,2,0.8,1.0,-35.0,-1,1.0,0.24839999999994689
254,2,0.8,0.0625,-35.0,1,0.0,0.43299999999987904
255,2,0.8,1.0,-35.0,-1,1.0,0.35000000000002274
256,2,0.8,0.125,35.0,1,1.0,0.3383999999999787
257,2,0.8,0.25,-35.0,-1,1.0,0.2824999999999136
258,2,0.8,0.0,-35.0,-1,1.0,0.2719999999999345
259,2,0.8,0.0625,-35.0,1,0.0,0.7826999999999771
260,2,0.2,0.25,35.0,1,1.0,0.17619999999988067
261,2,0.2,0.0,-35.0,-1,1.0,0.40250000000003183
262,2,0.2,0.25,35.0,1,1.0,0.16489999999998872
263,2,0.2,0.0625,35.0,1,1.0,4.711099999999874
264,2,0.2,0.0625,35.0,-1,0.0,0.27049999999997
265,2,0.2,0.0625,35.0,1,1.0,0.2296999999999798
266,2,0.2,0.0,35.0,1,1.0,0.14609999999993306
267,2,0.2,0.0625,35.0,1,1.0,0.3745999999999867
268,2,0.2,0.125,35.0,1,1.0,0.23159999999995762
269,2,0.2,0.0625,35.0,1,1.0,0.24840000000006057
270,2,0.2,1.0,35.0,1,1.0,0.19399999999995998
271,2,0.2,0.25,35.0,1,1.0,0.18009999999992488
272,2,0.2,0.25,35.0,1,1.0,0.2620999999999185
273,2,0.2,0.25,-35.0,-1,1.0,0.23120000000005803
274,2,0.2,0.125,35.0,1,1.0,0.24639999999999418
275,2,0.2,1.0,-35.0,-1,1.0,0.26549999999986085
276,2,0.2,0.125,35.0,1,1.0,0.2857999999999947
277,2,0.2,1.0,35.0,1,1.0,0.19859999999994216
278,2,0.2,0.0625,35.0,-1,0.0,0.32360000000005584
279,2,0.2,0.125,35.0,1,1.0,0.24939999999992324
280,2,0.2,1.0,35.0,1,1.0,0.18409999999994398
281,2,0.2,0.0,35.0,1,1.0,0.4734999999999445
282,2,0.2,0.0625,35.0,1,1.0,0.23159999999995762
283,2,0.2,0.0625,35.0,1,1.0,0.20059999999989486
284,2,0.2,0.0625,35.0,1,1.0,0.1993999999999687
285,2,0.2,0.125,35.0,1,1.0,0.3491000000000213
286,2,0.2,0.25,35.0,1,1.0,0.23659999999995307
287,2,0.2,1.0,35.0,1,1.0,0.2923999999999296
288,2,0.2,0.0625,35.0,1,1.0,4.2514999999999645
289,2,0.2,0.0625,35.0,1,1.0,0.27300000000002456
290,2,0.2,0.0625,35.0,1,1.0,0.7228000000000065
291,2,0.2,0.0,35.0,1,1.0,0.990799999999922
292,2,0.2,0.125,35.0,1,1.0,0.2541999999999689
293,2,0.2,0.125,-35.0,-1,1.0,0.2676999999999907
294,2,0.2,0.125,35.0,1,1.0,0.5277999999999565
295,2,0.2,0.25,-35.0,1,0.0,4.077800000000025
296,2,0.2,1.0,35.0,1,1.0,0.22480000000007294
297,2,0.2,1.0,-35.0,-1,1.0,0.38149999999996
298,2,0.2,0.0625,35.0,1,1.0,0.2948989999999867
299,2,0.2,1.0,-35.0,-1,1.0,0.5550000000000637
300,2,0.2,0.0,35.0,1,1.0,0.48499999999989996
301,2,0.2,0.0,35.0,1,1.0,0.1951000000001386
302,2,0.2,0.0625,35.0,1,1.0,0.21520000000009532
303,2,0.2,1.0,35.0,1,1.0,0.42859999999996035
304,2,0.2,0.125,35.0,1,1.0,0.8153999999999542
305,2,0.2,1.0,35.0,1,1.0,0.2321999999999207
306,2,0.2,0.125,35.0,1,1.0,4.188899999999876
307,2,0.2,0.125,35.0,1,1.0,0.18579999999974461
308,2,0.8,1.0,-35.0,-1,1.0,0.24919999999997344
309,2,0.8,0.125,-35.0,1,0.0,0.2525999999998021
310,2,0.8,0.0625,-35.0,1,0.0,5.099299999999857
311,2,0.8,0.25,35.0,1,1.0,0.2261999999998352
312,2,0.8,0.25,-35.0,-1,1.0,0.5896999999999935
313,2,0.8,0.0625,-35.0,1,0.0,6.603099999999813
314,2,0.8,0.0625,-35.0,1,0.0,2.2899999999997362
315,2,0.8,1.0,-35.0,-1,1.0,0.27350000000001273
316,2,0.8,0.0625,-35.0,1,0.0,0.24030000000016116
317,2,0.8,0.25,-35.0,-1,1.0,0.9270999999998821
318,2,0.8,0.125,-35.0,1,0.0,5.857199999999921
319,2,0.8,0.25,-35.0,-1,1.0,0.47739999999976135
320,2,0.8,0.0625,35.0,1,1.0,0.4275000000000091
321,2,0.8,0.0625,35.0,1,1.0,0.38419999999996435
322,2,0.8,1.0,-35.0,-1,1.0,0.28109999999992397
323,2,0.8,1.0,-35.0,-1,1.0,0.3043999999999869
324,2,0.8,0.125,-35.0,1,0.0,3.887899999999945
325,2,0.8,1.0,35.0,1,1.0,0.19139999999993051
326,2,0.8,0.125,35.0,1,1.0,0.42480000000000473
327,2,0.8,0.25,35.0,1,1.0,0.2582999999999629
328,2,0.8,0.0,35.0,1,1.0,0.4716000000000804
329,2,0.8,1.0,-35.0,-1,1.0,0.6117000000001553
330,2,0.8,0.25,-35.0,1,0.0,7.141799999999876
331,2,0.8,0.0625,35.0,1,1.0,0.25880000000006476
332,2,0.8,0.125,-35.0,1,0.0,0.6088999999999487
333,2,0.8,0.0625,-35.0,1,0.0,0.5522999999998319
334,2,0.8,0.125,-35.0,1,0.0,0.445699999999988
335,2,0.8,1.0,35.0,1,1.0,0.24919999999997344
336,2,0.8,0.0,-35.0,1,0.0,9.479199999999992
337,2,0.8,0.0625,35.0,1,1.0,0.23959999999988213
338,2,0.8,0.0625,-35.0,1,0.0,0.2829999999999018
339,2,0.8,0.0625,-35.0,1,0.0,0.3432000000000244
340,2,0.8,0.125,-35.0,-1,1.0,0.4231999999999516
341,2,0.8,0.0625,-35.0,1,0.0,8.346599999999853
342,2,0.8,0.0,-35.0,1,0.0,0.3834999999999127
343,2,0.8,0.0,-35.0,1,0.0,7.99369999999999
344,2,0.8,0.25,-35.0,-1,1.0,0.3506000000002132
345,2,0.8,1.0,-35.0,-1,1.0,0.2706999999998061
346,2,0.8,0.125,-35.0,-1,1.0,1.3775000000000546
347,2,0.8,0.0625,-35.0,-1,1.0,0.37429999999994834
348,2,0.8,0.0625,-35.0,-1,1.0,0.7144000000000688
349,2,0.8,0.25,-35.0,-1,1.0,0.27119999999990796
350,2,0.8,0.25,35.0,1,1.0,0.22109999999997854
351,2,0.2,0.0,35.0,1,1.0,0.9311999999997624
352,2,0.2,1.0,35.0,1,1.0,0.08799999999996544
353,2,0.2,0.0625,35.0,1,1.0,0.3346999999998843
354,2,0.2,0.0,35.0,1,1.0,0.7015000000001237
355,2,0.2,0.125,35.0,1,1.0,0.19830000000001746
356,2,0.2,0.0625,35.0,1,1.0,0.34179999999992106
357,2,0.2,0.0,35.0,1,1.0,0.2418999999999869
358,2,0.2,0.25,35.0,1,1.0,0.20860000000016043
359,2,0.2,1.0,35.0,1,1.0,0.2053000000000793
360,2,0.2,0.125,35.0,1,1.0,0.19539999999983593
361,2,0.2,0.0625,35.0,1,1.0,0.3056000000001404
362,2,0.2,0.25,35.0,1,1.0,0.18559999999979482
363,2,0.2,0.0625,-35.0,1,0.0,0.47900000000004184
364,2,0.2,0.25,35.0,1,1.0,0.20239999999989777
365,2,0.2,0.25,35.0,1,1.0,0.18239999999991596
366,2,0.2,0.125,35.0,1,1.0,0.2625000000000455
367,2,0.2,0.0625,-35.0,1,0.0,0.48929999999995744
368,2,0.2,0.0625,35.0,1,1.0,0.3293999999998505
369,2,0.2,0.25,35.0,1,1.0,0.21270000000004075
370,2,0.2,1.0,35.0,1,1.0,0.2262999999998101
371,2,0.2,0.125,-35.0,-1,1.0,1.653099999999995
372,2,0.2,1.0,35.0,1,1.0,0.21309999999994034
373,2,0.2,0.0,35.0,1,1.0,3.9164999999998145
374,2,0.2,0.25,35.0,-1,0.0,0.20000000000004547
375,2,0.2,0.0625,35.0,1,1.0,0.20010000000002037
376,2,0.2,0.0,35.0,1,1.0,0.1734999999998763
377,2,0.2,0.25,35.0,1,1.0,0.2100999999997839
378,2,0.2,0.0,35.0,1,1.0,0.3635999999999058
379,2,0.2,0.0,35.0,1,1.0,0.45709999999985484
380,2,0.2,0.0625,35.0,1,1.0,0.23710000000005493
381,2,0.2,0.125,35.0,1,1.0,0.19729999999981374
382,2,0.2,0.0625,35.0,1,1.0,0.3472999999999047
383,2,0.2,0.0625,35.0,1,1.0,0.4806999999998425
384,2,0.2,1.0,35.0,1,1.0,0.19090000000005602
385,2,0.2,0.0625,35.0,1,1.0,4.274200000000064
386,2,0.2,0.25,35.0,1,1.0,0.23780099999999038
387,2,0.2,0.125,35.0,1,1.0,0.21780100000000857
388,2,0.2,1.0,35.0,1,1.0,0.19800099999997656
389,2,0.2,0.25,35.0,1,1.0,0.23810099999991508
390,2,0.2,0.125,35.0,1,1.0,0.2315009999999802
391,2,0.2,0.0625,-35.0,1,0.0,0.5916010000000824
392,2,0.2,1.0,35.0,1,1.0,0.15830099999993763
393,2,0.2,1.0,35.0,1,1.0,0.17510100000004059
394,2,0.2,0.25,35.0,1,1.0,0.20850099999984195
395,2,0.2,0.0,35.0,1,1.0,0.20190099999990707
396,2,0.2,0.25,35.0,1,1.0,0.20870100000001912
397,2,0.2,0.125,-35.0,1,0.0,0.20200100000010934
398,2,0.2,0.125,35.0,1,1.0,0.2721010000000206
399,2,0.2,0.0625,35.0,1,1.0,0.3154010000000653
400,2,0.2,0.0625,35.0,1,1.0,0.22220100000004095
401,2,0.2,0.0625,35.0,1,1.0,0.24570100000005368
402,2,0.2,0.0625,35.0,1,1.0,0.22910099999990052
403,2,0.2,1.0,-35.0,-1,1.0,0.31260100000008606
404,2,0.2,1.0,35.0,1,1.0,0.28260100000011334
405,2,0.2,1.0,35.0,1,1.0,0.20600099999978738
406,2,0.2,0.0625,35.0,1,1.0,0.3527010000000246
407,2,0.8,0.125,35.0,1,1.0,0.19960100000002967
408,2,0.8,0.0,-35.0,1,0.0,0.6563010000002123
409,2,0.8,0.0625,35.0,1,1.0,0.4097009999998136
410,2,0.8,0.0625,-35.0,-1,1.0,0.8099009999998543
411,2,0.8,0.0625,-35.0,-1,1.0,0.666501000000153
412,2,0.8,0.0625,-35.0,1,0.0,1.1000010000000202
413,2,0.8,1.0,-35.0,-1,1.0,0.30340099999966696
414,2,0.8,0.0,-35.0,1,0.0,2.390201000000161
415,2,0.8,0.0625,-35.0,-1,1.0,0.39370099999996455
416,2,0.8,0.125,35.0,1,1.0,0.22040100000003804
417,2,0.8,0.0625,35.0,1,1.0,0.40720100000021375
418,2,0.8,0.0,-35.0,1,0.0,0.38390099999992344
419,2,0.8,1.0,-35.0,-1,1.0,0.4306010000000242
420,2,0.8,0.0625,35.0,1,1.0,3.7440010000000257
421,2,0.8,0.0,-35.0,1,0.0,0.49100099999986924
422,2,0.8,0.125,-35.0,-1,1.0,0.7179010000002108
423,2,0.8,1.0,-35.0,-1,1.0,1.7547010000000682
424,2,0.8,0.25,-35.0,1,0.0,0.4250009999998383
425,2,0.8,1.0,-35.0,-1,1.0,0.8650010000001203
426,2,0.8,0.125,-35.0,1,0.0,0.19840099999987615
427,2,0.8,0.125,-35.0,1,0.0,0.32160099999987324
428,2,0.8,0.125,-35.0,-1,1.0,0.37190099999997983
429,2,0.8,0.125,35.0,1,1.0,0.41200099999991835
430,2,0.8,0.0625,35.0,1,1.0,0.28510099999971317
431,2,0.8,0.0625,-35.0,1,0.0,0.20540100000016537
432,2,0.8,0.125,-35.0,1,0.0,5.705600999999888
433,2,0.8,0.0,-35.0,1,0.0,0.45620099999996455
434,2,0.8,0.0625,-35.0,1,0.0,0.5125009999999293
435,2,0.8,0.0625,35.0,1,1.0,0.3426010000000588
436,2,0.8,0.0625,-35.0,1,0.0,4.222700999999915
437,2,0.8,1.0,-35.0,-1,1.0,0.25970099999995
438,2,0.8,1.0,35.0,1,1.0,0.17610100000001694
439,2,0.8,0.0625,-35.0,1,0.0,4.319900999999845
440,2,0.8,0.25,-35.0,-1,1.0,0.2663009999998849
441,2,0.8,1.0,-35.0,-1,1.0,0.21340100000020357
442,2,0.8,0.0625,-35.0,1,0.0,2.733600999999908
443,2,0.8,0.0,-35.0,1,0.0,0.8133009999999103
444,2,0.8,0.0625,35.0,1,1.0,0.35730000000012296
445,2,0.8,0.125,-35.0,-1,1.0,0.3274010000002363
446,2,0.8,1.0,-35.0,-1,1.0,0.2737010000000737
447,2,0.8,0.125,35.0,1,1.0,0.1807009999999991
448,2,0.8,0.0,-35.0,1,0.0,0.6211009999999533
449,2,0.8,0.0625,-35.0,1,0.0,0.19820099999992635
450,2,0.8,0.0625,-35.0,1,0.0,0.32740100000000893
451,2,0.8,1.0,-35.0,-1,1.0,0.307901000000129
452,2,0.8,0.125,-35.0,-1,1.0,4.981401000000005
453,2,0.8,0.0,-35.0,-1,1.0,0.25100099999986014
454,2,0.2,0.0625,-35.0,-1,1.0,0.24460099999987506
455,2,0.2,0.125,35.0,1,1.0,0.2846009999998387
456,2,0.2,0.125,35.0,1,1.0,0.24800099999993108
457,2,0.2,0.25,35.0,1,1.0,0.22170099999993909
458,2,0.2,0.25,35.0,1,1.0,0.1947010000001228
459,2,0.2,1.0,35.0,-1,0.0,0.12490099999990889
460,2,0.2,0.125,35.0,1,1.0,0.21220100000005004
461,2,0.2,0.0625,35.0,1,1.0,0.261801000000105
462,2,0.2,0.0625,35.0,1,1.0,0.24180100000012317
463,2,0.2,0.25,35.0,1,1.0,0.22520099999974263
464,2,0.2,0.0625,35.0,1,1.0,0.4086010000000897
465,2,0.2,0.0625,35.0,1,1.0,0.338600999999926
466,2,0.2,0.0625,35.0,1,1.0,4.791901000000053
467,2,0.2,0.125,35.0,1,1.0,0.20270099999993363
468,2,0.2,0.0625,35.0,-1,0.0,0.24320100000022649
469,2,0.2,0.25,-35.0,-1,1.0,0.29910100000006423
470,2,0.2,0.125,35.0,1,1.0,0.2560009999999693
471,2,0.2,0.0625,35.0,-1,0.0,0.14260099999978593
472,2,0.2,0.25,35.0,1,1.0,0.20290099999988342
473,2,0.2,0.0625,35.0,1,1.0,0.25950099999977283
474,2,0.2,1.0,35.0,1,1.0,0.16630099999997583
475,2,0.2,1.0,35.0,1,1.0,0.20620099999996455
476,2,0.2,0.125,35.0,1,1.0,0.2864009999998416
477,2,0.2,0.125,35.0,-1,0.0,0.1634009999997943
478,2,0.2,0.25,-35.0,-1,1.0,0.2632009999999809
479,2,0.2,0.25,35.0,1,1.0,0.26680099999998674
480,2,0.2,0.0,35.0,-1,0.0,0.4070009999998092
481,2,0.2,0.0625,35.0,1,1.0,0.2736009999998714
482,2,0.2,0.0625,35.0,1,1.0,0.11700099999984559
483,2,0.2,0.0,35.0,-1,0.0,4.703800999999885
484,2,0.2,0.125,-35.0,-1,1.0,0.37120100000015555
485,2,0.2,0.0625,35.0,1,1.0,0.3705009999998765
486,2,0.2,0.0625,35.0,1,1.0,0.5041009999999915
487,2,0.2,0.0,35.0,1,1.0,0.17780100000004495
488,2,0.2,1.0,35.0,1,1.0,0.20420100000001185
489,2,0.2,0.25,35.0,1,1.0,0.2111010000000988
490,2,0.2,0.25,35.0,1,1.0,0.24150100000019847
491,2,0.2,0.125,35.0,1,1.0,0.3779010000000653
492,2,0.2,0.125,35.0,1,1.0,0.5316009999999096
493,2,0.2,0.25,35.0,1,1.0,0.5050009999997656
494,2,0.2,0.0625,35.0,1,1.0,0.7655009999998583
495,2,0.2,0.0625,35.0,1,1.0,0.30550099999982194
496,2,0.2,0.0625,35.0,1,1.0,1.0020009999998365
497,2,0.2,0.0625,35.0,-1,0.0,0.28510099999994054
498,2,0.2,1.0,35.0,1,1.0,0.18850100000008752
499,2,0.2,0.125,35.0,1,1.0,0.22860100000002603
500,2,0.2,1.0,35.0,1,1.0,0.23560100000008788
501,2,0.2,0.0625,35.0,1,1.0,0.6355009999999766
502,2,0.2,0.0625,35.0,1,1.0,0.2459009999997761
503,2,0.2,1.0,35.0,1,1.0,0.18230099999982485
504,2,0.2,0.25,35.0,1,1.0,0.2294010000000526
505,2,0.2,0.25,35.0,1,1.0,0.09910100000001876
506,2,0.2,0.0,35.0,1,1.0,0.4359009999998307
507,2,0.2,1.0,35.0,1,1.0,0.2131010000000515
508,2,0.2,0.25,35.0,1,1.0,0.22260099999994054
509,2,0.2,0.0,35.0,1,1.0,0.27630100000010316
510,2,0.2,0.125,35.0,1,1.0,0.25670100000002094
511,2,0.2,1.0,-35.0,-1,1.0,0.30640100000005077
512,2,0.2,0.25,35.0,1,1.0,0.20670099999983904
513,2,0.2,1.0,35.0,1,1.0,0.233400999999958
514,2,0.2,0.125,35.0,1,1.0,0.23680100000001403
515,2,0.2,1.0,35.0,1,1.0,0.23990099999991799
516,2,0.2,0.0625,-35.0,1,0.0,0.21690100000000712
517,2,0.2,0.125,35.0,1,1.0,0.25710099999992053
518,2,0.2,0.25,35.0,1,1.0,0.1671010000000024
519,2,0.2,1.0,35.0,1,1.0,0.25680099999999584
520,2,0.2,0.0,-35.0,1,0.0,1.7670009999997092
521,2,0.2,1.0,-35.0,-1,1.0,0.26700099999993654
522,2,0.2,1.0,-35.0,-1,1.0,0.17800099999976737
523,2,0.2,1.0,35.0,1,1.0,0.187300999999934
524,2,0.2,0.25,35.0,1,1.0,0.2478009999999813
525,2,0.2,1.0,-35.0,-1,1.0,0.22080099999993763
526,2,0.2,0.125,-35.0,1,0.0,0.7512009999998099
527,2,0.2,0.25,35.0,1,1.0,0.22820099999989907
528,2,0.2,0.0625,35.0,1,1.0,0.43100099999969643
529,2,0.2,0.0625,35.0,1,1.0,0.31460100000003877
530,2,0.2,0.0625,35.0,1,1.0,0.5048010000000431
531,2,0.2,0.125,35.0,1,1.0,0.28140099999973245
532,2,0.2,1.0,35.0,1,1.0,0.22800099999994927
533,2,0.2,0.25,35.0,1,1.0,0.21810099999993326
534,2,0.2,0.125,35.0,1,1.0,0.3085009999999784
535,2,0.2,0.25,-35.0,-1,1.0,0.3851009999998496
536,2,0.2,0.0625,35.0,-1,0.0,0.26860099999998965
537,2,0.2,0.125,35.0,1,1.0,0.2551010000001952
538,2,0.2,0.125,-35.0,-1,1.0,0.38180099999999584
539,2,0.2,1.0,35.0,1,1.0,0.26850100000001476
540,2,0.2,0.25,35.0,1,1.0,0.2654009999998834
541,2,0.2,0.25,35.0,1,1.0,0.3358009999999467
542,2,0.2,0.0,35.0,1,1.0,0.46220100000005004
543,2,0.2,0.25,35.0,1,1.0,0.20230099999980666
544,2,0.2,1.0,35.0,1,1.0,0.19220099999984086
545,2,0.2,1.0,35.0,1,1.0,0.18590100000005805
546,2,0.2,0.125,35.0,1,1.0,0.45240100000000893
547,2,0.2,0.125,35.0,1,1.0,0.3425009999998565
548,2,0.8,0.0625,-35.0,1,0.0,0.5963009999998121
549,2,0.8,1.0,-35.0,-1,1.0,0.2693010000000413
550,2,0.8,1.0,-35.0,-1,1.0,0.26270099999987906
551,2,0.8,0.125,-35.0,1,0.0,0.4098009999997885
552,2,0.8,0.125,-35.0,1,0.0,0.4231009999998605
553,2,0.8,0.25,35.0,1,1.0,0.4033009999998285
554,2,0.8,0.0625,-35.0,1,0.0,0.8137010000000373
555,2,0.8,1.0,-35.0,-1,1.0,0.30350099999986924
556,2,0.8,0.25,-35.0,1,0.0,0.18000099999994745
557,2,0.8,0.25,35.0,1,1.0,0.23030099999982667
558,2,0.8,1.0,-35.0,-1,1.0,0.3234010000001035
559,2,0.8,0.0,-35.0,1,0.0,0.4107010000000173
560,2,0.8,0.0625,-35.0,-1,1.0,0.28740099999981794
561,2,0.8,0.125,35.0,1,1.0,1.340300999999954
562,2,0.8,0.0625,-35.0,1,0.0,5.6874009999996815
563,2,0.8,0.125,35.0,1,1.0,0.2577009999997699
564,2,0.8,1.0,-35.0,-1,1.0,0.2781009999998787
565,2,0.8,0.0625,-35.0,-1,1.0,0.6815010000000257
566,2,0.8,0.0625,-35.0,-1,1.0,0.39460099999973863
567,2,0.8,0.0625,-35.0,-1,1.0,0.2746009999998478
568,2,0.8,0.125,-35.0,-1,1.0,0.23510099999975864
569,2,0.8,0.125,-35.0,-1,1.0,0.11810100000002421
570,2,0.8,0.0625,-35.0,-1,1.0,0.4113009999998667
571,2,0.8,0.125,-35.0,-1,1.0,0.32520100000010643
572,2,0.8,0.25,-35.0,-1,1.0,0.23840099999983977
573,2,0.8,0.25,-35.0,-1,1.0,0.21810100000016064
574,2,0.8,0.25,-35.0,-1,1.0,0.23510099999998602
575,2,0.8,1.0,35.0,1,1.0,0.23530099999970844
576,2,0.8,0.25,-35.0,-1,1.0,0.23200100000008206
577,2,0.8,1.0,-35.0,-1,1.0,0.09570099999973536
578,2,0.8,1.0,-35.0,-1,1.0,0.2554009999998925
579,2,0.8,0.0625,35.0,1,1.0,0.49210100000004786
580,2,0.8,0.125,-35.0,-1,1.0,0.30540099999984704
581,2,0.8,1.0,-35.0,-1,1.0,0.198900999999978
582,2,0.8,0.0,-35.0,-1,1.0,0.262400999999727
583,2,0.8,0.125,-35.0,-1,1.0,0.2458009999998012
584,2,0.8,0.125,-35.0,-1,1.0,0.21930099999985941
585,2,0.8,0.0625,35.0,1,1.0,0.7296010000000024
586,2,0.8,0.0,-35.0,-1,1.0,0.24640099999987797
587,2,0.8,0.0625,-35.0,-1,1.0,0.28950099999974555
588,2,0.8,1.0,35.0,1,1.0,0.2595010000000002
589,2,0.8,0.0,35.0,-1,0.0,0.26290099999982885
590,2,0.8,0.25,-35.0,-1,1.0,0.39310100000011516
591,2,0.8,0.125,-35.0,-1,1.0,0.27330099999971935
592,2,0.8,0.125,-35.0,-1,1.0,0.263101000000006
593,2,0.8,0.0625,-35.0,-1,1.0,0.279901000000109
594,2,0.8,1.0,-35.0,-1,1.0,0.2871010000001206
595,2,0.8,0.0625,-35.0,-1,1.0,0.2637009999998554
596,2,0.8,0.0625,-35.0,-1,1.0,0.233400999999958
597,2,0.8,0.125,35.0,-1,0.0,0.157200999999759
598,2,0.8,0.25,-35.0,-1,1.0,0.2905009999997219
599,2,0.8,1.0,35.0,1,1.0,0.2772010000001046
600,2,0.8,0.25,-35.0,-1,1.0,0.23400100000026214
601,2,0.8,0.0625,-35.0,-1,1.0,0.7405000000003383
602,2,0.8,0.0625,-35.0,-1,1.0,0.20380100000011225
603,2,0.8,0.0,-35.0,-1,1.0,0.23440100000016173
604,2,0.8,0.0625,-35.0,-1,1.0,0.18760100000008606
605,2,0.8,0.125,-35.0,-1,1.0,0.2808010000003378
606,2,0.8,0.0,35.0,1,1.0,0.5911009999999806
607,2,0.8,0.25,-35.0,-1,1.0,0.2976010000002134
608,2,0.8,0.0,-35.0,-1,1.0,0.2875010000002476
609,2,0.8,0.125,-35.0,-1,1.0,0.2877010000001974
610,2,0.8,0.0,-35.0,-1,1.0,0.23760100000026796
611,2,0.8,0.0625,-35.0,-1,1.0,0.24440100000038
612,2,0.8,1.0,35.0,1,1.0,0.23120099999960075
613,2,0.8,0.125,35.0,-1,0.0,0.20140100000025996
614,2,0.8,0.0625,35.0,1,1.0,0.5180010000003676
615,2,0.8,0.25,-35.0,-1,1.0,2.114900999999918
616,2,0.8,0.0625,-35.0,1,0.0,0.34830100000044695
617,2,0.8,1.0,-35.0,-1,1.0,0.2250010000002476
618,2,0.8,0.25,-35.0,-1,1.0,6.535000999999738
619,2,0.8,0.0625,-35.0,-1,1.0,0.23200100000030943
620,2,0.8,0.125,-35.0,-1,1.0,0.2187010000002374
621,2,0.8,0.0625,-35.0,-1,1.0,0.248801000000185
622,2,0.8,0.0,-35.0,-1,1.0,0.3289010000003145
623,2,0.8,1.0,-35.0,-1,1.0,0.25570100000049933
624,2,0.8,0.125,-35.0,-1,1.0,0.1623010000002978
625,2,0.8,0.25,35.0,1,1.0,0.3192010000002483
626,2,0.8,1.0,-35.0,-1,1.0,0.27260100000012244
627,2,0.8,1.0,-35.0,-1,1.0,0.20590100000026723
628,2,0.8,1.0,35.0,1,1.0,0.17590100000006714
629,2,0.2,1.0,35.0,1,1.0,0.2327010000003611
630,2,0.2,0.125,35.0,-1,0.0,0.2694010000000162
631,2,0.2,0.25,35.0,1,1.0,0.2828010000002905
632,2,0.2,1.0,35.0,1,1.0,0.2329010000003109
633,2,0.2,0.25,35.0,1,1.0,0.26630100000011225
634,2,0.2,0.0625,35.0,1,1.0,0.24310100000002421
635,2,0.2,0.0625,35.0,1,1.0,0.5231010000002243
636,2,0.2,0.125,-35.0,1,0.0,3.5033010000001923
637,2,0.2,0.25,35.0,1,1.0,0.22340100000019447
638,2,0.2,0.0625,-35.0,-1,1.0,0.4034010000004855
639,2,0.2,0.0625,35.0,1,1.0,0.3769010000005437
640,2,0.2,0.0625,35.0,1,1.0,0.6270010000002912
641,2,0.2,0.125,35.0,1,1.0,0.30040100000042
642,2,0.2,1.0,35.0,1,1.0,0.2804010000004382
643,2,0.2,1.0,35.0,1,1.0,0.2572010000003502
644,2,0.2,0.25,35.0,1,1.0,0.31730100000004313
645,2,0.2,0.25,35.0,1,1.0,0.2174009999998816
646,2,0.2,0.0625,-35.0,-1,1.0,0.937401000000591
647,2,0.2,0.125,35.0,1,1.0,0.2874010000000453
648,2,0.2,1.0,35.0,1,1.0,0.23090100000035818
649,2,0.2,0.25,35.0,1,1.0,0.24430100000017774
650,2,0.2,0.125,35.0,1,1.0,0.2778010000001814
651,2,0.2,0.25,35.0,1,1.0,0.5577010000006339
652,2,0.2,0.0,35.0,-1,0.0,13.514501000000564
653,2,0.2,0.0,35.0,-1,0.0,3.6183010000004288
654,2,0.2,0.0625,35.0,-1,0.0,0.28850099999999657
655,2,0.2,0.0,35.0,1,1.0,4.368601000000126
656,2,0.2,0.0625,35.0,1,1.0,1.428801000000476
657,2,0.2,0.0625,35.0,1,1.0,0.4023010000000795
658,2,0.2,1.0,35.0,1,1.0,0.1924010000002454
659,2,0.2,0.125,35.0,1,1.0,0.4957009999998263
660,2,0.2,1.0,35.0,1,1.0,0.21580100000028324
661,2,0.2,0.0,35.0,1,1.0,0.5359010000001945
662,2,0.2,1.0,35.0,1,1.0,0.22260099999994054
663,2,0.2,0.0,35.0,1,1.0,0.49610100000018065
664,2,0.2,1.0,35.0,1,1.0,0.15940099999988888
665,2,0.8,1.0,-35.0,-1,1.0,0.24620100000038292
666,2,0.8,0.125,-35.0,-1,1.0,0.3230009999997492
667,2,0.8,0.125,-35.0,-1,1.0,0.28960100000040256
668,2,0.8,0.25,-35.0,-1,1.0,2.2864009999998416
669,2,0.8,0.0625,-35.0,-1,1.0,0.516501000000062
670,2,0.8,0.0625,-35.0,-1,1.0,0.2666010000002643
671,2,0.8,0.25,-35.0,-1,1.0,0.26000100000010207
672,2,0.8,0.0625,-35.0,-1,1.0,0.19340099999999438
673,2,0.8,0.0625,-35.0,1,0.0,0.5435010000005605
674,2,0.8,0.125,35.0,1,1.0,0.2769010000001799
675,2,0.8,0.25,35.0,1,1.0,0.46360000000049695
676,2,0.8,1.0,35.0,1,1.0,0.22370100000034654
677,2,0.8,0.25,-35.0,-1,1.0,0.2604010000004564
678,2,0.8,1.0,35.0,1,1.0,0.2472010000001319
679,2,0.8,1.0,-35.0,-1,1.0,0.2606010000004062
680,2,0.8,0.0625,35.0,1,1.0,0.4707010000001901
681,2,0.8,1.0,-35.0,-1,1.0,0.24410100000022794
682,2,0.8,0.0625,-35.0,-1,1.0,0.25420100000019374
683,2,0.8,0.125,-35.0,-1,1.0,0.16420100000004823
684,2,0.8,0.25,35.0,-1,0.0,0.2743010000003778
685,2,0.8,0.0,-35.0,-1,1.0,0.3611010000004171
686,2,0.8,0.0625,-35.0,-1,1.0,0.7246009999998932
687,2,0.8,0.0625,-35.0,-1,1.0,0.3013010000004215
688,2,0.8,0.25,-35.0,-1,1.0,0.2613010000000031
689,2,0.8,1.0,35.0,1,1.0,0.2347010000003138
690,2,0.8,1.0,-35.0,-1,1.0,0.2515010000001894
691,2,0.8,0.0625,35.0,1,1.0,0.36810100000047896
692,2,0.8,1.0,-35.0,-1,1.0,0.2882009999998445
693,2,0.8,0.125,-35.0,-1,1.0,0.2351010000002134
694,2,0.8,0.0625,-35.0,1,0.0,0.9152009999997972
695,2,0.8,1.0,-35.0,-1,1.0,0.28180100000054153
696,2,0.8,0.0625,-35.0,1,0.0,0.5919010000002345
697,2,0.8,1.0,35.0,1,1.0,0.40870100000029197
698,2,0.8,1.0,-35.0,-1,1.0,0.26210100000025705
699,2,0.8,1.0,-35.0,-1,1.0,0.2721010000004753
700,2,0.8,0.125,-35.0,-1,1.0,0.3122010000006412
701,2,0.8,0.125,35.0,1,1.0,6.002301000000443
702,2,0.8,0.0,35.0,-1,0.0,0.385801000000356
703,2,0.8,1.0,35.0,1,1.0,0.28590100000019447
704,2,0.8,1.0,35.0,1,1.0,0.21270100000037928
705,2,0.8,1.0,-35.0,-1,1.0,0.3162010000000919
706,2,0.8,0.125,-35.0,-1,1.0,0.1961010000004535
707,2,0.8,0.0,35.0,1,1.0,3.51620099999991
708,2,0.8,0.0,-35.0,1,0.0,6.023001000000022
709,2,0.2,0.0,35.0,1,1.0,1.2999010000003182
710,2,0.2,0.25,35.0,1,1.0,0.8200010000005022
711,2,0.2,0.0625,35.0,1,1.0,5.346701000000394
712,2,0.2,0.0,35.0,1,1.0,0.4803010000005088
713,2,0.2,0.25,-35.0,1,0.0,0.1737010000006194
714,2,0.2,0.25,35.0,1,1.0,0.32720100000005914
715,2,0.2,0.25,35.0,1,1.0,0.29060100000015154
716,2,0.2,0.125,35.0,1,1.0,0.6273010000004433
717,2,0.2,0.0625,-35.0,1,0.0,10.30730100000028
718,2,0.2,1.0,35.0,1,1.0,0.22110100000054445
719,2,0.2,0.0,35.0,1,1.0,0.3878010000003087
720,2,0.2,1.0,35.0,1,1.0,0.24130100000047605
721,2,0.2,1.0,-35.0,-1,1.0,0.26800100000036764
722,2,0.2,1.0,35.0,1,1.0,0.3181009999998423
723,2,0.2,0.125,-35.0,-1,1.0,0.2047010000001137
724,2,0.2,0.125,35.0,1,1.0,8.654900999999882
725,2,0.2,0.0,35.0,1,1.0,0.6418010000006689
726,2,0.2,0.0625,35.0,1,1.0,0.4353009999999813
727,2,0.2,0.125,-35.0,-1,1.0,0.20190100000036182
728,2,0.2,0.25,-35.0,-1,1.0,0.3054010000000744
729,2,0.2,0.125,-35.0,-1,1.0,0.2954010000003109
730,2,0.2,0.0625,35.0,1,1.0,0.48230100000000675
731,2,0.2,0.125,35.0,1,1.0,4.349001000000044
732,2,0.2,1.0,35.0,1,1.0,0.19910100000015518
733,2,0.2,0.125,35.0,1,1.0,0.3059010000001763
734,2,0.2,0.25,-35.0,1,0.0,2.58920100000023
735,2,0.2,0.25,35.0,1,1.0,0.2260010000004513
736,2,0.2,0.125,35.0,1,1.0,0.17280100000016319
737,2,0.2,0.0,35.0,1,1.0,7.706201000000419
738,2,0.2,0.25,35.0,1,1.0,0.2231010000000424
739,2,0.2,0.0625,35.0,1,1.0,0.36320100000011735
740,2,0.2,0.0,35.0,1,1.0,0.46320100000048114
741,2,0.2,0.0625,-35.0,1,0.0,0.5400010000003022
742,2,0.2,0.0625,-35.0,-1,1.0,0.48680100000001403
743,2,0.2,0.125,-35.0,-1,1.0,0.34350099999983286
744,2,0.2,0.25,35.0,1,1.0,0.2703000000001339
745,2,0.2,0.0625,-35.0,-1,1.0,0.8469010000003436
746,2,0.2,0.0625,35.0,1,1.0,3.570401000000402
747,2,0.2,0.0625,35.0,-1,0.0,0.94720099999995
748,2,0.2,0.0625,35.0,1,1.0,0.43070099999977174
749,2,0.2,0.125,-35.0,-1,1.0,0.36400099999991653
750,2,0.2,0.0625,35.0,1,1.0,5.880800999999792
751,2,0.2,0.0625,35.0,1,1.0,0.5210010000000693
752,2,0.2,1.0,-35.0,-1,1.0,0.2743009999999231
753,2,0.2,0.25,35.0,1,1.0,0.3210009999997965
754,2,0.8,1.0,-35.0,-1,1.0,0.2578010000006543
755,2,0.8,1.0,-35.0,-1,1.0,0.25800100000014936
756,2,0.8,0.25,-35.0,-1,1.0,0.27810100000033344
757,2,0.8,0.125,-35.0,-1,1.0,0.2948010000004615
758,2,0.8,0.0625,-35.0,1,0.0,5.684701000000587
759,2,0.8,0.0625,35.0,1,1.0,0.28180100000054153
760,2,0.8,0.125,-35.0,-1,1.0,0.26850100000001476
761,2,0.8,0.0,-35.0,-1,1.0,0.3152010000003429
762,2,0.8,0.0625,-35.0,-1,1.0,0.40540099999998347
763,2,0.8,0.25,35.0,1,1.0,1.8786009999998896
764,2,0.8,0.125,-35.0,-1,1.0,11.938701000000492
765,2,0.8,0.0625,-35.0,-1,1.0,0.9425009999999929
766,2,0.8,0.0625,-35.0,1,0.0,0.5792010000000118
767,2,0.8,1.0,-35.0,-1,1.0,0.2659009999997579
768,2,0.8,0.125,-35.0,-1,1.0,0.5595010000001821
769,2,0.8,0.0,-35.0,-1,1.0,0.26280099999985396
770,2,0.8,1.0,35.0,1,1.0,0.3028010000002723
771,2,0.8,1.0,-35.0,-1,1.0,0.2729010000002745
772,2,0.8,0.25,-35.0,-1,1.0,0.49300099999982194
773,2,0.8,0.125,35.0,1,1.0,0.31650100000024395
774,2,0.8,1.0,35.0,1,1.0,0.30640100000027815
775,2,0.8,1.0,35.0,1,1.0,0.2732010000004266
776,2,0.8,0.0,-35.0,1,0.0,14.6666009999999
777,2,0.8,0.0625,-35.0,-1,1.0,0.6105010000005677
778,2,0.8,1.0,-35.0,-1,1.0,0.26410100000020975
779,2,0.8,0.25,-35.0,-1,1.0,0.5508010000003196
780,2,0.8,1.0,-35.0,-1,1.0,13.984401000000162
781,2,0.8,0.125,35.0,1,1.0,4.028201000000081
782,2,0.8,0.0625,-35.0,-1,1.0,0.8088010000001304
783,2,0.8,1.0,-35.0,-1,1.0,0.058400999999776104
784,2,0.8,0.25,35.0,1,1.0,0.26470100000005914
785,2,0.8,0.25,-35.0,-1,1.0,0.218101000000388
786,2,0.8,0.0625,-35.0,1,0.0,0.24160100000017337
787,2,0.8,0.125,-35.0,-1,1.0,0.36180100000001403
788,2,0.8,0.0625,-35.0,1,0.0,0.6683010000001559
789,2,0.8,0.0625,-35.0,-1,1.0,0.3651009999998678
790,2,0.8,0.0,35.0,1,1.0,0.4119010000003982
791,2,0.8,1.0,-35.0,-1,1.0,0.2852010000001428
792,2,0.8,1.0,-35.0,-1,1.0,0.258701000000201
793,2,0.8,0.125,-35.0,-1,1.0,14.64540100000022
794,2,0.8,0.25,-35.0,-1,1.0,0.4492009999999027
795,2,0.8,0.125,-35.0,-1,1.0,0.16600100000050588
796,2,0.8,1.0,35.0,1,1.0,0.32600100000036036
797,2,0.8,0.125,-35.0,1,0.0,4.65610100000049
798,2,0.8,0.125,-35.0,-1,1.0,0.4096010000002934
799,2,0.8,0.125,-35.0,-1,1.0,6.436401000000387
800,2,0.2,1.0,35.0,1,1.0,0.2165010000003349
801,2,0.2,0.125,-35.0,-1,1.0,0.29320099999995364
802,2,0.2,1.0,-35.0,-1,1.0,0.25000100000033854
803,2,0.2,0.25,35.0,1,1.0,0.2868010000001959
804,2,0.2,0.25,35.0,1,1.0,0.24360100000012608
805,2,0.2,0.25,35.0,1,1.0,0.7502010000002883
806,2,0.2,0.125,35.0,1,1.0,0.24690100000043458
807,2,0.2,0.25,-35.0,1,0.0,6.117101000000275
808,2,0.2,0.125,35.0,-1,0.0,0.19730100000015227
809,2,0.2,0.25,35.0,1,1.0,0.28740100000050006
810,2,0.2,0.125,35.0,1,1.0,0.3075010000002294
811,2,0.2,0.0,-35.0,-1,1.0,0.3242009999999027
812,2,0.2,1.0,35.0,1,1.0,0.057501000000684144
813,2,0.2,0.0625,35.0,0,0.0,59.84430100000009
814,2,0.2,0.0625,35.0,1,1.0,0.7865010000004986
815,2,0.2,0.0,35.0,1,1.0,0.2694010000000162
816,2,0.2,1.0,35.0,1,1.0,0.2896009999999478
817,2,0.2,1.0,-35.0,-1,1.0,32.48960100000022
818,2,0.2,0.0625,35.0,-1,0.0,0.26060099999995145
819,2,0.2,0.125,-35.0,-1,1.0,0.4341010000002825
820,2,0.2,0.0625,35.0,1,1.0,0.8074010000000271
821,2,0.2,0.25,35.0,1,1.0,0.264201000000412
822,2,0.2,0.25,-35.0,1,0.0,0.4675010000000839
823,2,0.2,0.25,-35.0,-1,1.0,38.94430100000045
824,2,0.2,0.125,35.0,1,1.0,0.29220100000020466
825,2,0.2,0.125,35.0,1,1.0,0.38560099999995145
826,2,0.2,0.125,35.0,1,1.0,0.5090010000003531
827,2,0.2,0.25,35.0,1,1.0,0.21570100000008097
828,2,0.2,0.125,35.0,1,1.0,0.3824010000003
829,2,0.2,0.125,35.0,1,1.0,0.5524010000003727
830,2,0.2,1.0,35.0,1,1.0,1.062401000000591
831,2,0.2,1.0,35.0,1,1.0,0.24260099999992235
832,2,0.2,0.0625,35.0,1,1.0,8.156001000000288
833,2,0.2,0.125,35.0,1,1.0,0.839701000000332
834,2,0.2,0.125,-35.0,-1,1.0,0.8063010000000759
835,2,0.2,0.0625,35.0,1,1.0,0.4731010000000424
836,2,0.2,0.25,35.0,1,1.0,0.3866010000001552
837,2,0.2,0.0625,35.0,1,1.0,6.736601000000519
838,2,0.2,0.125,-35.0,-1,1.0,0.2868010000001959
839,2,0.2,1.0,35.0,1,1.0,0.27020100000027014
840,2,0.2,0.0,-35.0,-1,1.0,17.17030100000011
841,2,0.2,0.0625,35.0,1,1.0,0.6274010000001908
842,2,0.2,0.25,35.0,1,1.0,0.30430100000012317
843,2,0.2,0.25,35.0,1,1.0,0.4810010000001057
844,2,0.2,0.0625,-35.0,-1,1.0,21.821101
845,2,0.2,1.0,35.0,1,1.0,0.3017010000003211
846,2,0.2,0.25,35.0,1,1.0,0.358400999999958
847,2,0.2,0.0625,-35.0,1,0.0,0.15520100000003367
848,2,0.8,0.125,-35.0,-1,1.0,0.6087010000001101
849,2,0.8,0.125,-35.0,-1,1.0,0.2954010000003109
850,2,0.8,0.125,-35.0,-1,1.0,0.17870100000027378
851,2,0.8,0.25,-35.0,-1,1.0,0.33550100000002203
852,2,0.8,0.25,35.0,1,1.0,0.19890100000066013
853,2,0.8,1.0,-35.0,-1,1.0,0.3322010000001683
854,2,0.8,0.125,-35.0,-1,1.0,6.135801000000356
855,2,0.8,0.0625,-35.0,-1,1.0,0.5326010000003407
856,2,0.8,0.0625,-35.0,-1,1.0,0.24930100000028688
857,2,0.8,0.0625,35.0,1,1.0,0.24290100000007442
858,2,0.8,0.25,35.0,1,1.0,0.28610100000014427
859,2,0.8,0.0625,-35.0,1,0.0,9.666101000000253
860,2,0.8,0.0,-35.0,-1,1.0,0.9632010000004811
861,2,0.8,0.0,-35.0,1,0.0,0.4833010000002105
862,2,0.8,0.0,35.0,-1,0.0,0.2500009999998838
863,2,0.8,0.0,-35.0,1,0.0,0.3568009999999049
864,2,0.8,0.0625,35.0,1,1.0,0.34690100000034363
865,2,0.8,0.25,35.0,1,1.0,0.24030100000027232
866,2,0.8,0.25,35.0,1,1.0,0.3971010000000206
867,2,0.8,0.25,35.0,1,1.0,0.21390100000007806
868,2,0.8,0.0625,-35.0,-1,1.0,0.4839010000005146
869,2,0.8,0.25,-35.0,-1,1.0,0.26060099999995145
870,2,0.8,0.25,-35.0,-1,1.0,0.3074010000000271
871,2,0.8,0.125,-35.0,-1,1.0,0.33730100000002494
872,2,0.8,0.0,35.0,1,1.0,0.5175010000002658
873,2,0.8,0.0625,35.0,1,1.0,0.20750100000032035
874,2,0.8,0.125,-35.0,-1,1.0,0.3176010000001952
875,2,0.8,0.125,-35.0,-1,1.0,0.3710009999999784
876,2,0.8,0.0625,-35.0,-1,1.0,16.88780100000031
877,2,0.8,1.0,-35.0,-1,1.0,0.2549010000002454
878,2,0.8,1.0,-35.0,-1,1.0,0.26840100000026723
879,2,0.8,0.125,-35.0,-1,1.0,0.35510100000010425
880,2,0.8,1.0,-35.0,-1,1.0,0.26520099999970626
881,2,0.8,0.0625,-35.0,-1,1.0,11.718601000000035
882,2,0.8,0.0625,35.0,1,1.0,0.44560100000035163
883,2,0.8,1.0,35.0,1,1.0,0.1658010000005561
884,2,0.8,1.0,-35.0,-1,1.0,0.2424010000004273
885,2,0.8,0.0,-35.0,1,0.0,6.355700999999954
886,2,0.8,0.25,-35.0,-1,1.0,0.3360010000001239
887,2,0.8,0.125,-35.0,1,0.0,0.1661010000002534
888,2,0.8,1.0,-35.0,-1,1.0,0.23280100000010862
889,2,0.8,0.0625,-35.0,1,0.0,0.5596010000003844
890,2,0.8,0.125,-35.0,-1,1.0,0.3096010000003844
891,2,0.8,0.0,-35.0,1,0.0,5.636601000000155
892,2,0.8,0.125,35.0,1,1.0,0.4000010000004295
893,2,0.8,0.125,-35.0,1,0.0,0.3300010000002658
894,2,0.8,0.125,-35.0,1,0.0,6.436901000000034
895,2,0.8,0.25,-35.0,1,0.0,0.957100999999966
896,2,0.8,0.125,-35.0,1,0.0,0.9205010000000584
897,2,0.8,0.125,-35.0,1,0.0,4.050701000000117
898,2,0.8,0.0,35.0,1,1.0,14.864201000000321
899,2,0.8,1.0,35.0,1,1.0,0.5113010000000031
900,2,0.8,1.0,35.0,1,1.0,0.23480100000006132
901,2,0.8,0.0,-35.0,-1,1.0,23.404901000000336
902,2,0.8,0.125,-35.0,-1,1.0,10.672201000000314
903,2,0.8,0.25,-35.0,1,0.0,4.682701000000179
904,2,0.8,0.0,-35.0,1,0.0,14.329601000000366
905,2,0.8,0.0,-35.0,1,0.0,47.66020100000014
906,2,0.8,1.0,35.0,1,1.0,0.16810100000066086
907,2,0.8,0.125,-35.0,-1,1.0,1.12820099999999
908,2,0.8,0.125,-35.0,-1,1.0,0.355000999999902
909,2,0.8,0.125,-35.0,-1,1.0,0.6184010000001763
910,2,0.8,0.25,35.0,1,1.0,0.34520100000008824
911,2,0.8,0.0625,35.0,1,1.0,0.6452010000002701
912,2,0.8,0.0625,-35.0,1,0.0,0.4486010000000533
913,2,0.8,0.25,-35.0,-1,1.0,0.4721009999998387
914,2,0.8,1.0,-35.0,-1,1.0,0.2788010000003851
915,2,0.8,0.0,-35.0,1,0.0,0.24890100000038728
916,2,0.8,0.0,-35.0,1,0.0,0.8722010000001319
917,2,0.2,0.0625,35.0,1,1.0,0.3691010000006827
918,2,0.2,0.125,35.0,1,1.0,0.2090010000001712
919,2,0.2,0.0625,35.0,1,1.0,0.23580100000026505
920,2,0.2,0.25,-35.0,-1,1.0,0.2725010000003749
921,2,0.2,0.125,35.0,1,1.0,0.23590100000001257
922,2,0.2,0.0625,-35.0,1,0.0,0.4460009999997965
923,2,0.2,0.25,-35.0,-1,1.0,0.2829010000004928
924,2,0.2,0.0,35.0,-1,0.0,0.2561009999999442
925,2,0.2,0.0625,35.0,1,1.0,1.0696009999996932
926,2,0.2,0.0625,35.0,1,1.0,0.3196010000001479
927,2,0.2,0.0625,35.0,1,1.0,0.4164010000004055
928,2,0.2,0.25,-35.0,-1,1.0,4.483201000000008
929,2,0.2,0.0,35.0,1,1.0,0.32000100000050224
930,2,0.2,0.0625,35.0,1,1.0,0.19690100000025268
931,2,0.2,0.25,-35.0,-1,1.0,0.2435009999999238
932,2,0.2,0.0,35.0,1,1.0,0.24020100000007005
933,2,0.2,0.0625,35.0,1,1.0,0.36700100000007296
934,2,0.2,1.0,35.0,1,1.0,0.21050100000047678
935,2,0.2,1.0,-35.0,-1,1.0,0.24370100000032835
936,2,0.2,1.0,-35.0,-1,1.0,0.24380100000007587
937,2,0.2,0.0625,35.0,1,1.0,0.22380100000009406
938,2,0.2,0.0625,35.0,1,1.0,11.087301000000025
939,2,0.2,1.0,35.0,1,1.0,0.1843010000002323
940,2,0.2,0.125,-35.0,-1,1.0,0.4343010000002323
941,2,0.2,1.0,35.0,1,1.0,0.1645010000002003
942,2,0.2,0.125,35.0,1,1.0,0.2545010000003458
943,2,0.2,0.125,35.0,1,1.0,0.22780100000045422
944,2,0.2,0.25,35.0,1,1.0,0.2347010000003138
945,2,0.2,0.0625,35.0,1,1.0,18.328001000000313
