trial_num,session_num,stim_probability_left,contrast,position,response_choice,trial_correct,reaction_time
1,1,0.2,0.25,35.0,1,1.0,0.8021999999999982
2,1,0.2,0.125,35.0,1,1.0,0.2344009999999983
3,1,0.2,0.25,35.0,1,1.0,0.19839999999999947
4,1,0.2,0.125,35.0,1,1.0,0.3030000000000008
5,1,0.2,1.0,35.0,1,1.0,0.2264009999999992
6,1,0.2,1.0,35.0,1,1.0,0.2750000000000057
7,1,0.2,1.0,35.0,1,1.0,0.24639999999999418
8,1,0.2,0.125,35.0,1,1.0,0.23810000000000286
9,1,0.2,1.0,35.0,1,1.0,0.7232010000000031
10,1,0.2,0.0,35.0,1,1.0,0.9076009999999997
11,1,0.2,0.125,-35.0,-1,1.0,0.22930000000000206
12,1,0.2,0.25,35.0,1,1.0,1.4753000000000043
13,1,0.2,0.0,35.0,-1,0.0,1.2845999999999975
14,1,0.2,1.0,35.0,1,1.0,0.25719999999999743
15,1,0.2,1.0,35.0,1,1.0,0.31279999999999575
16,1,0.2,0.0,35.0,1,1.0,3.3244999999999862
17,1,0.2,1.0,35.0,1,1.0,0.22499999999999432
18,1,0.2,0.125,35.0,1,1.0,0.4267009999999942
19,1,0.2,0.0625,-35.0,-1,1.0,0.27079999999999416
20,1,0.2,0.25,35.0,1,1.0,0.30289999999999395
21,1,0.2,1.0,35.0,1,1.0,0.25620000000000687
22,1,0.2,1.0,35.0,1,1.0,0.5156999999999954
23,1,0.2,1.0,35.0,1,1.0,0.2132999999999896
24,1,0.2,0.125,35.0,1,1.0,0.5419999999999874
25,1,0.2,1.0,35.0,1,1.0,0.17069999999999652
26,1,0.2,0.125,35.0,-1,0.0,0.3090999999999866
27,1,0.2,0.25,35.0,1,1.0,0.2767999999999944
28,1,0.2,1.0,-35.0,-1,1.0,0.1852000000000089
29,1,0.2,1.0,35.0,1,1.0,0.11029999999998097
30,1,0.2,0.25,-35.0,1,0.0,1.5206000000000017
31,1,0.2,0.125,-35.0,-1,1.0,0.3200010000000191
32,1,0.2,0.125,35.0,1,1.0,0.4159999999999968
33,1,0.2,0.25,35.0,1,1.0,0.6021999999999821
34,1,0.2,0.0,35.0,-1,0.0,5.784400000000005
35,1,0.2,0.0,-35.0,-1,1.0,0.14439999999999031
36,1,0.2,0.0625,35.0,1,1.0,0.37910099999996305
37,1,0.2,1.0,35.0,1,1.0,0.234800000000007
38,1,0.2,0.0625,35.0,-1,0.0,0.32629999999997494
39,1,0.2,1.0,35.0,1,1.0,0.35079999999999245
40,1,0.2,0.0625,35.0,1,1.0,0.6012999999999806
41,1,0.2,0.0625,-35.0,-1,1.0,0.477800000000002
42,1,0.2,0.0,35.0,1,1.0,0.8648000000000025
43,1,0.2,0.125,-35.0,-1,1.0,0.251700000000028
44,1,0.2,0.25,35.0,1,1.0,0.32390000000000896
45,1,0.2,0.125,35.0,1,1.0,0.3155999999999608
46,1,0.2,0.25,35.0,1,1.0,0.41530099999997105
47,1,0.2,0.0625,35.0,1,1.0,0.28130000000001587
48,1,0.2,0.0,-35.0,1,0.0,0.3125009999999975
49,1,0.2,0.0625,-35.0,-1,1.0,0.3778999999999826
50,1,0.2,0.0625,35.0,1,1.0,0.31700100000000475
51,1,0.2,0.0,35.0,1,1.0,3.570300000000003
52,1,0.2,1.0,-35.0,-1,1.0,0.23360099999999306
53,1,0.2,0.0625,-35.0,-1,1.0,0.2993009999999856
54,1,0.2,1.0,35.0,1,1.0,0.2657000000000096
55,1,0.2,1.0,35.0,1,1.0,0.6035009999999943
56,1,0.2,0.0625,35.0,1,1.0,0.5468999999999937
57,1,0.2,0.125,35.0,1,1.0,0.8539010000000076
58,1,0.2,0.125,35.0,1,1.0,0.296401000000003
59,1,0.2,1.0,35.0,1,1.0,0.5828999999999951
60,1,0.2,0.0,35.0,1,1.0,0.671701000000013
61,1,0.2,0.125,35.0,1,1.0,0.3137000000000114
62,1,0.2,0.25,35.0,1,1.0,0.22479999999998768
63,1,0.2,1.0,35.0,1,1.0,0.25159999999996785
64,1,0.2,0.0625,35.0,1,1.0,0.5442000000000178
65,1,0.2,1.0,35.0,1,1.0,0.3170000000000641
66,1,0.2,0.0625,-35.0,-1,1.0,0.5656999999999925
67,1,0.2,0.25,-35.0,-1,1.0,0.25389999999998736
68,1,0.2,0.0,-35.0,-1,1.0,0.26200000000000045
69,1,0.2,0.0,35.0,-1,0.0,0.4210000000000491
70,1,0.2,0.25,-35.0,-1,1.0,0.32190000000002783
71,1,0.2,0.0,35.0,-1,0.0,0.2626000000000204
72,1,0.2,0.25,35.0,1,1.0,0.273900000000026
73,1,0.2,0.0625,35.0,1,1.0,0.3591000000000122
74,1,0.2,0.25,-35.0,-1,1.0,0.11530000000004748
75,1,0.2,0.0,35.0,-1,0.0,6.108400000000017
76,1,0.2,0.25,35.0,1,1.0,0.3986000000000445
77,1,0.8,0.125,-35.0,-1,1.0,0.24720000000002074
78,1,0.8,0.0625,-35.0,-1,1.0,0.3682009999999991
79,1,0.8,0.0,-35.0,-1,1.0,0.25900000000001455
80,1,0.8,0.0,-35.0,-1,1.0,0.2386009999999601
81,1,0.8,0.125,-35.0,-1,1.0,0.2550000000000523
82,1,0.8,0.0625,-35.0,-1,1.0,0.3410000000000082
83,1,0.8,0.125,-35.0,-1,1.0,0.259900000000016
84,1,0.8,1.0,-35.0,-1,1.0,0.2621000000000322
85,1,0.8,0.0625,-35.0,-1,1.0,0.2189000000000192
86,1,0.8,0.125,-35.0,-1,1.0,0.3088999999999942
87,1,0.8,0.0625,-35.0,-1,1.0,0.322900000000061
88,1,0.8,1.0,-35.0,-1,1.0,0.14160000000003947
89,1,0.8,1.0,-35.0,-1,1.0,0.20170000000001664
90,1,0.8,1.0,-35.0,-1,1.0,0.24340000000000828
91,1,0.8,1.0,35.0,1,1.0,0.39530000000007703
92,1,0.8,0.125,-35.0,-1,1.0,0.23730000000000473
93,1,0.8,0.25,35.0,1,1.0,0.28700000000003456
94,1,0.8,0.25,-35.0,-1,1.0,0.24490000000002965
95,1,0.8,0.25,-35.0,-1,1.0,0.2744999999999891
96,1,0.8,1.0,-35.0,-1,1.0,0.25120000000003984
97,1,0.8,0.0,-35.0,-1,1.0,0.23410000000006903
98,1,0.8,1.0,-35.0,-1,1.0,0.20240000000001146
99,1,0.8,1.0,-35.0,-1,1.0,0.45820000000003347
100,1,0.8,0.125,-35.0,-1,1.0,0.3949000000000069
101,1,0.8,0.0,-35.0,1,0.0,0.6599999999999682
102,1,0.8,0.125,35.0,1,1.0,0.5806999999999789
103,1,0.8,0.0625,-35.0,-1,1.0,0.38700000000000045
104,1,0.8,0.25,-35.0,-1,1.0,0.2873010000000136
105,1,0.8,0.25,35.0,1,1.0,0.31790000000000873
106,1,0.8,0.25,-35.0,-1,1.0,0.23320000000006758
107,1,0.8,0.0625,-35.0,-1,1.0,0.37479999999999336
108,1,0.8,0.125,35.0,1,1.0,0.5291000000000281
109,1,0.8,0.0625,-35.0,-1,1.0,0.30950000000007094
110,1,0.8,0.125,35.0,1,1.0,0.2529010000000085
111,1,0.8,0.0625,-35.0,1,0.0,0.33260000000001355
112,1,0.8,0.125,-35.0,-1,1.0,0.34370000000001255
113,1,0.8,0.25,35.0,1,1.0,0.29009999999999536
114,1,0.8,0.0625,35.0,1,1.0,1.1921010000000365
115,1,0.8,1.0,-35.0,-1,1.0,0.21800000000001774
116,1,0.8,0.25,-35.0,-1,1.0,0.2108000000000061
117,1,0.8,0.0625,-35.0,-1,1.0,0.27100000000007185
118,1,0.8,1.0,-35.0,-1,1.0,0.2651000000000181
119,1,0.8,0.0625,35.0,1,1.0,0.2950000000000159
120,1,0.2,1.0,-35.0,-1,1.0,0.26400000000001
121,1,0.2,0.125,35.0,1,1.0,0.2513000000000716
122,1,0.2,0.0625,35.0,1,1.0,0.8783999999999992
123,1,0.2,0.25,-35.0,-1,1.0,0.23860000000001946
124,1,0.2,0.125,-35.0,-1,1.0,1.030999999999949
125,1,0.2,1.0,35.0,1,1.0,0.26130000000000564
126,1,0.2,0.0625,-35.0,-1,1.0,0.2735010000000102
127,1,0.2,0.0,-35.0,1,0.0,0.32510100000001785
128,1,0.2,0.0625,-35.0,-1,1.0,0.22910100000007105
129,1,0.2,1.0,35.0,1,1.0,0.481899999999996
130,1,0.2,0.125,-35.0,-1,1.0,0.23030000000005657
131,1,0.2,1.0,35.0,1,1.0,0.23120000000000118
132,1,0.2,1.0,35.0,1,1.0,0.21439999999995507
133,1,0.2,0.0625,35.0,1,1.0,0.4278000000000475
134,1,0.2,0.25,-35.0,-1,1.0,0.25030100000003586
135,1,0.2,0.0625,35.0,1,1.0,0.5371999999999844
136,1,0.2,0.125,35.0,1,1.0,0.3204000000000633
137,1,0.2,0.125,35.0,1,1.0,0.4286009999999578
138,1,0.2,1.0,35.0,1,1.0,0.25050000000010186
139,1,0.2,0.0625,35.0,1,1.0,0.463799999999992
140,1,0.2,0.125,35.0,1,1.0,0.40440000000000964
141,1,0.2,0.125,35.0,1,1.0,2.974600000000123
142,1,0.2,0.0,35.0,-1,0.0,0.24450000000001637
143,1,0.8,1.0,-35.0,-1,1.0,0.2335000000000491
144,1,0.8,0.25,35.0,1,1.0,0.7083999999999833
145,1,0.8,0.25,-35.0,-1,1.0,0.4651000000001204
146,1,0.8,1.0,-35.0,-1,1.0,0.22980100000006587
147,1,0.8,0.0,35.0,1,1.0,0.34950000000003456
148,1,0.8,0.25,35.0,1,1.0,0.9522000000000617
149,1,0.8,0.125,-35.0,-1,1.0,0.4560999999999922
150,1,0.8,0.125,-35.0,-1,1.0,0.2865000000000464
151,1,0.8,0.125,35.0,1,1.0,0.2565999999999349
152,1,0.8,1.0,-35.0,-1,1.0,0.18990000000007967
153,1,0.8,0.25,-35.0,-1,1.0,0.2824999999999136
154,1,0.8,0.25,-35.0,-1,1.0,0.320699999999988
155,1,0.8,0.0625,-35.0,-1,1.0,0.525600000000054
156,1,0.8,0.0625,-35.0,-1,1.0,6.321100000000115
157,1,0.8,1.0,-35.0,-1,1.0,0.16459999999995034
158,1,0.8,0.125,35.0,1,1.0,0.6517000000000053
159,1,0.8,0.125,-35.0,-1,1.0,0.34969999999998436
160,1,0.8,0.125,-35.0,-1,1.0,0.23720000000002983
161,1,0.8,1.0,-35.0,-1,1.0,0.23299999999994725
162,1,0.8,0.125,35.0,1,1.0,0.35770000000002256
163,1,0.8,0.25,-35.0,-1,1.0,0.22040000000004056
164,1,0.8,0.0,-35.0,-1,1.0,0.7464999999999691
165,1,0.8,0.0,-35.0,1,0.0,0.7947000000001481
166,1,0.8,0.0625,-35.0,-1,1.0,0.9088010000000395
167,1,0.8,0.0,-35.0,1,0.0,5.783600000000092
168,1,0.8,0.125,-35.0,-1,1.0,0.8708010000001423
169,1,0.8,0.125,-35.0,-1,1.0,0.22690000000000055
170,1,0.8,0.25,-35.0,-1,1.0,0.41809999999998126
171,1,0.8,0.25,-35.0,-1,1.0,0.4198999999999842
172,1,0.8,0.0625,-35.0,-1,1.0,0.24810100000001967
173,1,0.8,0.125,35.0,1,1.0,0.27470000000005257
174,1,0.8,1.0,-35.0,-1,1.0,0.28290000000004056
175,1,0.8,0.0,35.0,1,1.0,0.8668999999999869
176,1,0.8,0.0,-35.0,1,0.0,0.2846000000000686
177,1,0.8,0.25,-35.0,-1,1.0,0.2822999999999638
178,1,0.8,0.125,-35.0,-1,1.0,0.3365000000001146
179,1,0.8,0.0625,-35.0,-1,1.0,0.32609999999988304
180,1,0.8,1.0,35.0,1,1.0,0.5136000000001104
181,1,0.8,0.125,-35.0,-1,1.0,0.5753999999999451
182,1,0.8,0.0625,-35.0,-1,1.0,0.33090100000015354
183,1,0.2,0.0625,35.0,1,1.0,0.40130100000010316
184,1,0.2,1.0,-35.0,-1,1.0,0.27300000000002456
185,1,0.2,0.0625,35.0,1,1.0,0.8711000000000695
186,1,0.2,0.25,35.0,1,1.0,0.2533010000000786
187,1,0.2,0.125,35.0,1,1.0,0.29750000000001364
188,1,0.2,0.0625,-35.0,-1,1.0,0.29080100000010134
189,1,0.2,0.125,35.0,1,1.0,0.4234000000000151
190,1,0.2,1.0,35.0,1,1.0,0.23040000000003147
191,1,0.2,0.25,35.0,1,1.0,0.2804000000000997
192,1,0.2,1.0,35.0,1,1.0,0.6698010000001204
193,1,0.2,0.0625,35.0,1,1.0,0.5918000000000347
194,1,0.2,0.0,35.0,-1,0.0,0.11239999999997963
195,1,0.2,0.0625,35.0,1,1.0,0.5142009999999573
196,1,0.2,0.25,35.0,1,1.0,0.2700009999999793
197,1,0.2,1.0,35.0,1,1.0,0.21960100000001148
198,1,0.2,0.25,35.0,1,1.0,0.42590000000006967
199,1,0.2,1.0,35.0,1,1.0,0.7341000000000122
200,1,0.2,1.0,-35.0,-1,1.0,0.23130000000003292
201,1,0.2,0.25,35.0,1,1.0,0.9807999999999311
202,1,0.2,1.0,35.0,1,1.0,0.2878000000000611
203,1,0.2,0.125,35.0,1,1.0,0.23820000000011987
204,1,0.2,0.25,35.0,1,1.0,0.48820000000011987
205,1,0.2,0.25,35.0,1,1.0,0.2361999999999398
206,1,0.2,0.25,35.0,1,1.0,0.2238999999999578
207,1,0.2,0.0,-35.0,-1,1.0,8.303801000000021
208,1,0.2,1.0,-35.0,-1,1.0,0.17970000000002528
209,1,0.2,1.0,35.0,1,1.0,0.3467000000000553
210,1,0.2,0.125,35.0,1,1.0,0.24700000000007094
211,1,0.2,1.0,35.0,1,1.0,0.883401000000049
212,1,0.2,0.125,35.0,1,1.0,0.25430100000005496
213,1,0.2,0.0,35.0,1,1.0,0.27729999999996835
214,1,0.2,1.0,35.0,1,1.0,0.45860000000004675
215,1,0.2,0.25,-35.0,-1,1.0,0.24759999999992033
216,1,0.2,0.125,35.0,1,1.0,0.5277000000000953
217,1,0.2,1.0,35.0,1,1.0,0.2497000000000753
218,1,0.2,0.125,35.0,1,1.0,0.4800999999999931
219,1,0.2,1.0,35.0,1,1.0,0.3669999999999618
220,1,0.2,1.0,35.0,1,1.0,0.705600000000004
221,1,0.2,0.0,35.0,1,1.0,0.8481000000000449
222,1,0.2,0.125,35.0,1,1.0,0.44680000000005293
223,1,0.2,1.0,35.0,1,1.0,0.7234000000000833
224,1,0.2,0.25,35.0,1,1.0,0.27080000000012205
225,1,0.2,0.0625,-35.0,-1,1.0,0.3207999999999629
226,1,0.2,1.0,35.0,1,1.0,0.19190000000003238
227,1,0.2,0.0625,35.0,1,1.0,0.8809999999999718
228,1,0.2,0.125,35.0,1,1.0,0.8095999999999322
229,1,0.2,0.125,35.0,1,1.0,0.3186000000000604
230,1,0.2,0.125,35.0,1,1.0,0.25880000000006476
231,1,0.2,0.125,35.0,1,1.0,0.269800000000032
232,1,0.2,0.0,35.0,-1,0.0,5.726000000000113
233,1,0.2,0.0,35.0,-1,0.0,0.39210099999991144
234,1,0.2,0.0,35.0,-1,0.0,0.2358000000000402
235,1,0.2,0.25,35.0,1,1.0,0.2745000000001028
236,1,0.2,0.25,35.0,1,1.0,0.2505999999999631
237,1,0.2,0.125,35.0,1,1.0,0.5303010000001223
238,1,0.2,0.125,35.0,1,1.0,0.4313999999999396
239,1,0.2,0.25,35.0,1,1.0,0.20680000000004384
240,1,0.2,0.0,35.0,1,1.0,0.44980099999997947
241,1,0.2,1.0,-35.0,-1,1.0,0.282100000000014
242,1,0.2,0.0,35.0,1,1.0,8.460500000000025
243,1,0.2,0.0625,35.0,1,1.0,0.6310999999999467
244,1,0.2,0.125,35.0,1,1.0,0.16840000000001965
245,1,0.2,0.125,-35.0,-1,1.0,0.34749999999996817
246,1,0.2,0.125,35.0,1,1.0,0.27900099999999384
247,1,0.2,0.0625,35.0,1,1.0,0.5037000000000944
248,1,0.2,0.125,35.0,1,1.0,0.8735000000000355
249,1,0.2,1.0,35.0,1,1.0,0.9395010000000639
250,1,0.2,0.25,35.0,1,1.0,0.39640000000008513
251,1,0.2,1.0,-35.0,-1,1.0,0.20600000000013097
252,1,0.2,0.0,-35.0,1,0.0,0.4298999999999751
253,1,0.2,0.0625,35.0,1,1.0,0.8151000000000295
254,1,0.2,0.0,35.0,-1,0.0,4.980799999999931
255,1,0.2,0.25,35.0,1,1.0,0.31009999999992033
256,1,0.2,0.125,35.0,1,1.0,0.2359000000000151
257,1,0.2,0.125,-35.0,1,0.0,0.25640000000009877
258,1,0.2,1.0,35.0,1,1.0,0.22640000000012606
259,1,0.2,0.0,35.0,-1,0.0,1.1766999999999825
260,1,0.8,0.125,-35.0,-1,1.0,0.24480000000016844
261,1,0.8,0.125,-35.0,-1,1.0,0.25509999999997035
262,1,0.8,1.0,35.0,1,1.0,0.394800000000032
263,1,0.8,0.25,-35.0,-1,1.0,0.39839999999992415
264,1,0.8,1.0,-35.0,-1,1.0,0.1886010000000624
265,1,0.8,1.0,-35.0,-1,1.0,0.24559999999996762
266,1,0.8,0.25,-35.0,-1,1.0,0.2458000000000311
267,1,0.8,1.0,-35.0,-1,1.0,0.23540000000002692
268,1,0.8,0.25,-35.0,-1,1.0,0.24540099999990161
269,1,0.8,1.0,-35.0,-1,1.0,0.2418999999999869
270,1,0.8,1.0,-35.0,-1,1.0,0.21580000000017208
271,1,0.8,0.0625,-35.0,-1,1.0,0.31899999999996
272,1,0.8,0.125,-35.0,-1,1.0,0.2692010000000664
273,1,0.8,0.0625,-35.0,-1,1.0,0.5855000000001382
274,1,0.8,0.125,-35.0,-1,1.0,0.38260100000024977
275,1,0.8,1.0,-35.0,-1,1.0,0.34920000000010987
276,1,0.8,1.0,-35.0,-1,1.0,0.21000000000003638
277,1,0.8,1.0,-35.0,-1,1.0,0.2558999999998832
278,1,0.8,0.25,-35.0,-1,1.0,0.19610000000011496
279,1,0.8,0.25,-35.0,1,0.0,2.2561000000000604
280,1,0.8,1.0,35.0,1,1.0,0.3166000000001077
281,1,0.8,0.25,-35.0,-1,1.0,0.3262999999999465
282,1,0.8,0.0625,35.0,-1,0.0,9.840400000000045
283,1,0.8,0.0625,-35.0,-1,1.0,0.2299000000000433
284,1,0.8,0.0625,-35.0,-1,1.0,0.27700099999992744
285,1,0.8,1.0,-35.0,-1,1.0,0.23350100000016027
286,1,0.8,0.0625,-35.0,-1,1.0,0.21000000000003638
287,1,0.8,0.0625,-35.0,-1,1.0,0.21720000000004802
288,1,0.8,0.25,-35.0,-1,1.0,0.5205999999998312
289,1,0.8,1.0,35.0,1,1.0,0.2639000000001488
290,1,0.8,0.0625,-35.0,-1,1.0,0.48730000000000473
291,1,0.8,0.0625,-35.0,-1,1.0,4.517499999999927
292,1,0.8,1.0,-35.0,-1,1.0,0.20800100000019484
293,1,0.8,1.0,-35.0,-1,1.0,0.6544010000000071
294,1,0.8,0.0625,-35.0,-1,1.0,0.4576000000001841
295,1,0.8,0.0,-35.0,-1,1.0,3.745100999999977
296,1,0.8,0.25,-35.0,1,0.0,1.0444000000002234
297,1,0.8,0.0,-35.0,-1,1.0,0.3745000000001255
298,1,0.8,0.0,-35.0,-1,1.0,0.5380000000000109
299,1,0.8,0.25,35.0,1,1.0,0.6352999999999156
300,1,0.8,1.0,-35.0,-1,1.0,0.2856000000001586
301,1,0.8,0.125,35.0,1,1.0,0.7582010000000992
302,1,0.8,0.125,-35.0,-1,1.0,0.44849999999996726
303,1,0.8,1.0,-35.0,-1,1.0,0.36210000000005493
304,1,0.8,1.0,-35.0,-1,1.0,0.45190100000013445
305,1,0.2,0.25,35.0,1,1.0,0.32530000000019754
306,1,0.2,0.25,35.0,1,1.0,0.9454000000000633
307,1,0.2,0.25,35.0,1,1.0,0.5390999999999622
308,1,0.2,1.0,35.0,1,1.0,0.2489010000001599
309,1,0.2,1.0,35.0,1,1.0,0.1287009999998645
310,1,0.2,0.0625,35.0,1,1.0,0.3560010000001057
311,1,0.2,0.0625,-35.0,1,0.0,0.9891999999999825
312,1,0.2,1.0,35.0,1,1.0,0.5123000000000957
313,1,0.2,0.125,-35.0,-1,1.0,0.2459000000001197
314,1,0.2,0.0625,35.0,1,1.0,0.41000099999996564
315,1,0.2,1.0,35.0,1,1.0,0.15930100000014136
316,1,0.2,0.0625,35.0,1,1.0,0.2998999999999796
317,1,0.2,0.0625,35.0,1,1.0,1.322800000000143
318,1,0.2,1.0,35.0,1,1.0,0.44980099999997947
319,1,0.2,0.0,35.0,1,1.0,0.5362010000001192
320,1,0.2,0.25,-35.0,-1,1.0,0.17010000000004766
321,1,0.2,0.125,35.0,1,1.0,0.4571000000003096
322,1,0.2,0.125,-35.0,-1,1.0,0.2635999999999967
323,1,0.2,0.0,35.0,1,1.0,6.059799999999996
324,1,0.2,0.25,35.0,1,1.0,0.18650000000002365
325,1,0.2,0.125,-35.0,-1,1.0,0.29359999999996944
326,1,0.2,0.25,35.0,1,1.0,0.2668999999998505
327,1,0.2,0.25,35.0,1,1.0,0.5302010000000337
328,1,0.2,0.25,35.0,1,1.0,0.2500999999999749
329,1,0.2,0.0,35.0,1,1.0,1.1370999999999185
330,1,0.2,0.25,-35.0,-1,1.0,0.2437999999999647
331,1,0.2,0.0,35.0,1,1.0,0.4773000000000138
332,1,0.2,0.0625,35.0,1,1.0,0.300899999999956
333,1,0.2,1.0,35.0,1,1.0,0.8541999999999916
334,1,0.2,0.0625,35.0,1,1.0,0.5473000000001775
335,1,0.2,0.125,35.0,1,1.0,0.4701000000000022
336,1,0.2,0.25,35.0,1,1.0,0.5910999999998694
337,1,0.2,1.0,35.0,1,1.0,0.2036000000000513
338,1,0.2,1.0,-35.0,-1,1.0,0.2602999999999156
339,1,0.2,0.125,-35.0,-1,1.0,0.360300000000052
340,1,0.2,0.0,35.0,1,1.0,0.2636999999999716
341,1,0.2,1.0,35.0,1,1.0,0.4305010000000493
342,1,0.2,0.0625,35.0,1,1.0,0.4204010000000835
343,1,0.2,0.0625,35.0,1,1.0,0.5138999999999214
344,1,0.2,0.25,35.0,1,1.0,0.3740010000001348
345,1,0.2,0.0625,35.0,1,1.0,0.6240000000000236
346,1,0.2,0.125,35.0,1,1.0,0.9107010000000173
347,1,0.2,0.25,-35.0,-1,1.0,0.5342000000000553
348,1,0.2,1.0,35.0,1,1.0,0.39419999999995525
349,1,0.2,0.125,35.0,1,1.0,0.6509999999998399
350,1,0.2,0.0625,35.0,1,1.0,0.797800000000052
351,1,0.2,0.0625,35.0,1,1.0,0.7878000000000611
352,1,0.2,1.0,35.0,1,1.0,0.26470100000005914
353,1,0.2,0.0625,-35.0,-1,1.0,0.8279999999999745
354,1,0.2,0.25,35.0,1,1.0,0.2213000000001557
355,1,0.2,0.0625,35.0,1,1.0,0.43479999999999563
356,1,0.2,1.0,35.0,1,1.0,0.391399999999976
357,1,0.2,0.125,35.0,1,1.0,0.6116010000000642
358,1,0.2,0.25,-35.0,-1,1.0,0.3550000000000182
359,1,0.2,0.25,35.0,1,1.0,0.2918000000001939
360,1,0.8,0.125,-35.0,-1,1.0,0.33179999999993015
361,1,0.8,0.25,-35.0,-1,1.0,0.30179999999995744
362,1,0.8,0.25,-35.0,-1,1.0,0.23860000000013315
363,1,0.8,0.25,-35.0,-1,1.0,0.1854000000000724
364,1,0.8,0.0,-35.0,-1,1.0,0.23529999999982465
365,1,0.8,0.125,-35.0,-1,1.0,0.45869999999990796
366,1,0.8,0.125,-35.0,-1,1.0,0.7722000000001117
367,1,0.8,0.0625,-35.0,-1,1.0,0.362201000000141
368,1,0.8,0.125,-35.0,-1,1.0,0.32560099999977865
369,1,0.8,0.25,35.0,1,1.0,0.6990009999999529
370,1,0.8,0.125,-35.0,-1,1.0,0.48240000000009786
371,1,0.8,0.125,-35.0,-1,1.0,0.25929999999993925
372,1,0.8,0.25,-35.0,-1,1.0,0.2859000000000833
373,1,0.8,0.0625,-35.0,-1,1.0,0.8959000000002106
374,1,0.8,1.0,-35.0,-1,1.0,0.2329010000000835
375,1,0.8,0.125,-35.0,-1,1.0,0.2694000000001324
376,1,0.8,0.25,-35.0,-1,1.0,0.6895010000000639
377,1,0.8,0.25,-35.0,-1,1.0,0.27299999999991087
378,1,0.8,1.0,-35.0,-1,1.0,0.26299999999991996
379,1,0.8,0.0,-35.0,-1,1.0,0.38310000000024047
380,1,0.8,0.25,-35.0,-1,1.0,0.4833000000000993
381,1,0.8,0.125,-35.0,-1,1.0,0.5033009999999649
382,1,0.8,0.0,-35.0,-1,1.0,0.3998999999998887
383,1,0.8,1.0,-35.0,-1,1.0,0.6833999999998923
384,1,0.8,0.125,-35.0,-1,1.0,0.3368000000000393
385,1,0.8,0.25,-35.0,-1,1.0,0.33349999999995816
386,1,0.8,0.125,35.0,1,1.0,0.3136000000001786
387,1,0.8,1.0,-35.0,-1,1.0,0.21030100000007224
388,1,0.8,0.0625,35.0,1,1.0,0.3504009999999198
389,1,0.8,0.25,-35.0,-1,1.0,0.6403999999999996
390,1,0.2,0.125,35.0,1,1.0,0.6171999999999116
391,1,0.2,0.25,-35.0,-1,1.0,0.3007000000000062
392,1,0.2,0.0625,-35.0,-1,1.0,0.48070000000006985
393,1,0.2,0.0625,35.0,-1,0.0,0.22739999999998872
394,1,0.2,0.0625,-35.0,-1,1.0,0.24420099999997547
395,1,0.2,0.25,35.0,1,1.0,0.3042000000000371
396,1,0.2,0.125,-35.0,-1,1.0,0.18099999999981264
397,1,0.2,0.25,35.0,1,1.0,0.3178009999999176
398,1,0.2,0.25,35.0,1,1.0,0.24440099999992526
399,1,0.2,1.0,35.0,1,1.0,0.32789999999999964
400,1,0.2,0.25,35.0,1,1.0,0.5715000000000146
401,1,0.2,0.0,-35.0,-1,1.0,0.30130000000008295
402,1,0.2,0.25,35.0,1,1.0,0.3448000000000775
403,1,0.2,1.0,-35.0,-1,1.0,0.22490000000016153
404,1,0.2,0.0625,35.0,1,1.0,0.09169999999994616
405,1,0.2,0.0625,35.0,1,1.0,0.5319009999998343
406,1,0.2,1.0,35.0,1,1.0,0.47529999999983374
407,1,0.2,0.0625,35.0,1,1.0,0.3286999999997988
408,1,0.2,0.0,35.0,-1,0.0,0.21200000000021646
409,1,0.2,0.25,35.0,1,1.0,0.282799999999952
410,1,0.2,0.25,35.0,1,1.0,0.8997009999998227
411,1,0.2,0.125,35.0,1,1.0,0.2864000000001852
412,1,0.2,0.0,35.0,-1,0.0,0.2998999999999796
413,1,0.2,1.0,35.0,1,1.0,0.5765000000001237
414,1,0.2,1.0,35.0,1,1.0,0.4736000000000331
415,1,0.2,0.0625,35.0,1,1.0,0.26650000000017826
416,1,0.2,1.0,35.0,1,1.0,1.1570999999999003
417,1,0.2,1.0,35.0,1,1.0,0.4668010000000322
418,1,0.2,0.0625,-35.0,-1,1.0,0.5101000000001932
419,1,0.2,0.25,35.0,1,1.0,0.4370000000001255
420,1,0.2,0.0,-35.0,1,0.0,0.6270999999999276
421,1,0.2,0.25,35.0,1,1.0,0.4204000000001997
422,1,0.2,1.0,35.0,1,1.0,0.27060100000016973
423,1,0.2,0.25,-35.0,-1,1.0,0.2644999999999982
424,1,0.2,1.0,35.0,1,1.0,0.5739000000000942
425,1,0.2,0.25,35.0,1,1.0,0.5610000000001492
426,1,0.2,0.0,35.0,-1,0.0,4.7244009999999435
427,1,0.2,0.0625,35.0,1,1.0,0.28759999999988395
428,1,0.2,0.0625,35.0,1,1.0,0.30429999999978463
429,1,0.2,1.0,35.0,1,1.0,0.3209999999999127
430,1,0.2,0.0625,-35.0,-1,1.0,0.2982999999999265
431,1,0.2,1.0,35.0,1,1.0,0.19810000000006767
432,1,0.2,0.25,35.0,1,1.0,2.208499999999958
433,1,0.2,0.0,35.0,-1,0.0,0.3148999999998523
434,1,0.2,0.25,-35.0,-1,1.0,0.28500000000008185
435,1,0.2,0.25,35.0,1,1.0,0.23499999999989996
436,1,0.2,0.25,35.0,1,1.0,0.3851000000001932
437,1,0.2,1.0,35.0,1,1.0,0.43840000000022883
438,1,0.2,0.25,35.0,1,1.0,0.7956000000001495
439,1,0.2,0.0,-35.0,1,0.0,0.5894010000001799
440,1,0.2,0.0,-35.0,1,0.0,0.19209999999998217
441,1,0.2,0.125,35.0,1,1.0,0.34789999999998145
442,1,0.2,0.0625,35.0,1,1.0,0.33130000000005566
443,1,0.2,0.0625,35.0,1,1.0,0.2848010000002432
444,1,0.2,0.0625,-35.0,-1,1.0,0.25490000000013424
445,1,0.2,0.25,35.0,1,1.0,0.5114000000000942
446,1,0.2,0.125,35.0,1,1.0,0.4248999999999796
447,1,0.2,1.0,35.0,1,1.0,0.47840099999984886
448,1,0.2,0.0625,35.0,1,1.0,0.6384000000002743
449,1,0.2,0.125,35.0,1,1.0,0.3184000000001106
450,1,0.2,0.0625,35.0,1,1.0,0.5686000000000604
451,1,0.2,0.125,35.0,1,1.0,0.7053000000000793
452,1,0.2,0.125,35.0,1,1.0,0.3885999999999967
453,1,0.2,0.0,-35.0,1,0.0,0.19210099999986596
454,1,0.2,0.125,35.0,1,1.0,0.47210000000018226
455,1,0.2,0.25,35.0,1,1.0,0.30539999999996326
456,1,0.2,0.0625,-35.0,-1,1.0,0.3489000000001852
457,1,0.2,0.0625,35.0,1,1.0,0.3223000000002685
458,1,0.2,0.25,-35.0,-1,1.0,0.1856999999999971
459,1,0.2,0.0625,35.0,1,1.0,0.8823999999999614
460,1,0.2,0.125,35.0,1,1.0,0.34910000000013497
461,1,0.2,0.0625,35.0,1,1.0,0.30719999999996617
462,1,0.2,0.0625,35.0,1,1.0,0.4593999999999596
463,1,0.2,1.0,35.0,1,1.0,0.4459999999999127
464,1,0.2,0.0625,35.0,1,1.0,0.5427999999999429
465,1,0.2,0.25,35.0,1,1.0,0.5261000000000422
466,1,0.2,0.25,35.0,1,1.0,0.46289999999999054
467,1,0.2,0.125,35.0,1,1.0,0.3329000000001088
468,1,0.2,0.0625,-35.0,-1,1.0,0.266399999999976
469,1,0.2,0.125,35.0,1,1.0,0.31979999999998654
470,1,0.2,0.125,35.0,1,1.0,0.2963999999999487
471,1,0.2,0.125,35.0,1,1.0,0.5032000000001062
472,1,0.2,0.25,35.0,1,1.0,0.7065000000000055
473,1,0.2,1.0,35.0,1,1.0,0.24669999999991887
474,1,0.2,0.25,35.0,1,1.0,1.3433999999999742
475,1,0.2,0.125,35.0,1,1.0,0.39009999999984757
476,1,0.2,0.125,-35.0,-1,1.0,0.11370000000010805
477,1,0.2,0.25,-35.0,-1,1.0,0.22689999999988686
478,1,0.8,0.125,-35.0,-1,1.0,0.24700000000007094
479,1,0.8,0.0,35.0,-1,0.0,0.4371000000001004
480,1,0.8,0.125,-35.0,-1,1.0,0.2603999999998905
481,1,0.8,0.25,35.0,1,1.0,0.30719999999996617
482,1,0.8,0.125,35.0,1,1.0,0.2940000000000964
483,1,0.8,1.0,-35.0,-1,1.0,0.22070000000007894
484,1,0.8,0.0625,-35.0,-1,1.0,0.26080000000001746
485,1,0.8,0.0,-35.0,-1,1.0,0.22090000000002874
486,1,0.8,0.25,35.0,1,1.0,1.070901000000049
487,1,0.8,0.0625,35.0,-1,0.0,0.04780000000005202
488,1,0.8,0.125,-35.0,-1,1.0,0.4879000000000815
489,1,0.8,0.0,-35.0,1,0.0,0.171100000000024
490,1,0.8,1.0,-35.0,-1,1.0,0.19460000000003674
491,1,0.8,0.125,-35.0,-1,1.0,0.24800100000015846
492,1,0.8,0.0625,-35.0,-1,1.0,0.25470100000006823
493,1,0.8,0.0625,35.0,-1,0.0,0.22139999999990323
494,1,0.8,0.0625,-35.0,-1,1.0,0.14819999999986067
495,1,0.8,1.0,-35.0,-1,1.0,0.2016000000000986
496,1,0.8,1.0,-35.0,-1,1.0,0.248299999999972
497,1,0.8,1.0,-35.0,-1,1.0,0.29169999999999163
498,1,0.8,0.0625,-35.0,-1,1.0,0.3417010000000573
499,1,0.8,0.125,-35.0,-1,1.0,0.25510000000008404
500,1,0.8,0.25,35.0,-1,0.0,0.22190000000023247
501,1,0.8,0.0625,-35.0,-1,1.0,0.3953000000001339
502,1,0.8,0.0625,35.0,1,1.0,0.4053000000001248
503,1,0.8,0.25,35.0,1,1.0,0.41200000000003456
504,1,0.8,0.25,-35.0,-1,1.0,0.29549999999994725
505,1,0.8,0.125,-35.0,-1,1.0,0.1290000000001328
506,1,0.8,1.0,-35.0,-1,1.0,0.1591000000000804
507,1,0.8,1.0,-35.0,-1,1.0,0.16579999999999018
508,1,0.8,0.125,35.0,1,1.0,0.24250000000006366
509,1,0.8,1.0,35.0,1,1.0,0.9792999999999665
510,1,0.8,0.25,-35.0,-1,1.0,0.41600000000016735
511,1,0.8,1.0,-35.0,-1,1.0,0.26939999999990505
512,1,0.8,1.0,-35.0,-1,1.0,0.1528000000000702
513,1,0.8,0.125,-35.0,-1,1.0,0.3430000000000746
514,1,0.8,0.0,-35.0,-1,1.0,0.309601000000157
515,1,0.8,0.25,-35.0,-1,1.0,0.18990000000007967
516,1,0.8,1.0,-35.0,-1,1.0,0.17640000000005784
517,1,0.8,0.0,-35.0,-1,1.0,0.24659999999994398
518,1,0.8,0.0625,-35.0,-1,1.0,0.29670000000010077
519,1,0.8,0.0,-35.0,-1,1.0,0.5199999999999818
520,1,0.8,0.125,-35.0,-1,1.0,0.33360000000016043
521,1,0.8,0.0625,35.0,1,1.0,0.40360099999998056
522,1,0.8,0.0625,-35.0,-1,1.0,0.17029999999999745
523,1,0.8,0.25,-35.0,-1,1.0,0.19050000000015643
524,1,0.8,0.0,-35.0,-1,1.0,0.18050000000016553
525,1,0.8,0.0625,-35.0,-1,1.0,0.16730099999995218
526,1,0.8,0.0,35.0,-1,0.0,0.180800999999974
527,1,0.8,0.0625,-35.0,-1,1.0,0.2506999999998243
528,1,0.8,0.125,-35.0,-1,1.0,0.12409999999999854
529,1,0.8,0.125,-35.0,-1,1.0,0.21090099999992162
530,1,0.8,0.0625,-35.0,-1,1.0,0.1610000000000582
531,1,0.8,0.25,-35.0,-1,1.0,0.19450000000006185
532,1,0.8,0.25,-35.0,-1,1.0,0.277800999999954
533,1,0.8,1.0,-35.0,-1,1.0,0.14780100000007224
534,1,0.8,0.25,35.0,-1,0.0,0.0381009999998696
535,1,0.8,1.0,35.0,1,1.0,0.9580009999999675
536,1,0.8,1.0,-35.0,-1,1.0,0.18470000000002074
537,1,0.8,0.0625,-35.0,-1,1.0,0.1150000000000091
538,1,0.8,0.125,-35.0,-1,1.0,0.1915000000001328
539,1,0.8,0.0625,-35.0,-1,1.0,0.18170099999997547
540,1,0.8,0.125,-35.0,-1,1.0,0.18849999999974898
541,1,0.8,0.0625,-35.0,-1,1.0,0.2053000000000793
542,1,0.8,0.125,-35.0,-1,1.0,0.3820009999994909
543,1,0.8,1.0,-35.0,-1,1.0,0.4355000000000473
544,1,0.8,0.125,-35.0,-1,1.0,0.29859999999962383
545,1,0.8,0.25,35.0,1,1.0,0.39199999999937063
546,1,0.8,0.0625,-35.0,-1,1.0,0.16570000000001528
547,1,0.8,0.0,-35.0,-1,1.0,0.22559999999975844
548,1,0.8,0.0,-35.0,-1,1.0,0.21909999999979846
549,1,0.8,0.125,35.0,-1,0.0,0.20249999999987267
550,1,0.8,0.125,-35.0,-1,1.0,0.2792999999996937
551,1,0.8,0.0625,35.0,1,1.0,1.629500999999891
552,1,0.8,0.25,-35.0,-1,1.0,0.16929999999956635
553,1,0.8,0.25,-35.0,-1,1.0,0.10619999999971697
554,1,0.8,0.0,-35.0,-1,1.0,0.18289999999979045
555,1,0.2,0.0,35.0,-1,0.0,0.21969999999964784
556,1,0.2,0.125,35.0,-1,0.0,0.15970000000015716
557,1,0.2,1.0,-35.0,-1,1.0,0.21989999999959764
558,1,0.2,0.25,35.0,1,1.0,0.3364999999998872
559,1,0.2,0.0625,35.0,1,1.0,0.7532999999998538
560,1,0.2,0.25,-35.0,-1,1.0,0.1935009999997419
561,1,0.2,0.0,35.0,1,1.0,0.6366999999995642
562,1,0.2,1.0,35.0,1,1.0,0.24699999999984357
563,1,0.2,0.0,35.0,1,1.0,0.7004000000001724
564,1,0.2,1.0,35.0,1,1.0,0.643699999999626
565,1,0.2,0.125,35.0,1,1.0,0.6202999999995882
566,1,0.2,1.0,-35.0,-1,1.0,0.23039999999991778
567,1,0.2,1.0,35.0,1,1.0,0.6871999999993932
568,1,0.2,0.25,35.0,1,1.0,1.0605999999997948
569,1,0.2,0.125,35.0,1,1.0,0.6406999999999243
570,1,0.2,0.125,35.0,1,1.0,0.3473999999996522
571,1,0.2,0.125,35.0,1,1.0,0.7508010000001377
572,1,0.2,0.125,35.0,-1,0.0,0.1376009999994494
573,1,0.2,0.125,35.0,1,1.0,0.7209999999995489
574,1,0.2,0.0,-35.0,-1,1.0,0.28099999999994907
575,1,0.2,1.0,35.0,1,1.0,0.9610999999999876
576,1,0.2,0.0,35.0,1,1.0,0.6211999999995896
577,1,0.2,0.125,35.0,1,1.0,0.2911999999996624
578,1,0.2,0.0625,35.0,1,1.0,0.6479999999996835
579,1,0.2,1.0,35.0,1,1.0,0.2681000000002314
580,1,0.2,0.0625,35.0,1,1.0,1.228099999999813
581,1,0.2,0.125,35.0,1,1.0,0.6583000000000538
582,1,0.2,0.0625,35.0,1,1.0,0.6882999999997992
583,1,0.2,0.0625,35.0,1,1.0,0.5816999999997279
584,1,0.2,0.0,35.0,1,1.0,0.8284999999996217
585,1,0.2,0.125,35.0,-1,0.0,0.16519999999945867
586,1,0.2,0.125,35.0,-1,0.0,0.19200000000000728
587,1,0.2,0.125,35.0,1,1.0,0.5054999999993015
588,1,0.2,0.25,-35.0,-1,1.0,0.22209999999950014
589,1,0.2,0.25,35.0,1,1.0,0.2588999999998123
590,1,0.2,1.0,-35.0,-1,1.0,0.14569999999957872
591,1,0.2,0.25,35.0,1,1.0,1.0789999999997235
592,1,0.2,0.0625,-35.0,-1,1.0,0.2658999999998741
593,1,0.2,0.0625,35.0,-1,0.0,0.19589999999971042
594,1,0.2,0.0625,35.0,1,1.0,0.6992999999993117
595,1,0.8,1.0,-35.0,-1,1.0,0.1794009999998707
596,1,0.8,0.0625,35.0,1,1.0,0.5729999999994106
597,1,0.8,1.0,-35.0,-1,1.0,0.1630009999998947
598,1,0.8,0.0625,-35.0,-1,1.0,0.10959999999977299
599,1,0.8,0.25,-35.0,-1,1.0,0.20649999999977808
600,1,0.8,0.125,-35.0,-1,1.0,0.20309999999972206
601,1,0.8,0.0,35.0,-1,0.0,0.2033000000001266
602,1,0.8,0.25,-35.0,-1,1.0,0.4499999999998181
603,1,0.8,0.0,-35.0,-1,1.0,0.15999999999985448
604,1,0.8,0.0,-35.0,-1,1.0,0.2633999999993648
605,1,0.8,0.0625,35.0,-1,0.0,0.16030000000000655
606,1,0.8,0.0625,-35.0,-1,1.0,0.1867999999994936
607,1,0.8,1.0,-35.0,-1,1.0,0.19699999999966167
608,1,0.8,0.0,-35.0,-1,1.0,0.05709999999953652
609,1,0.8,0.25,-35.0,-1,1.0,0.13380000000006476
610,1,0.8,1.0,-35.0,-1,1.0,0.1604999999995016
611,1,0.8,0.25,-35.0,-1,1.0,0.27720099999987724
612,1,0.8,1.0,-35.0,-1,1.0,0.9672009999994771
613,1,0.8,0.0,-35.0,-1,1.0,1.1305999999999585
614,1,0.8,0.0625,-35.0,-1,1.0,0.23079999999981737
615,1,0.8,1.0,-35.0,-1,1.0,0.19090000000005602
616,1,0.8,0.0625,-35.0,-1,1.0,0.17090000000007421
617,1,0.8,0.125,35.0,1,1.0,0.4375999999997475
618,1,0.8,0.125,35.0,1,1.0,0.8976999999995314
619,1,0.8,0.25,35.0,1,1.0,0.36800099999982194
620,1,0.8,0.0625,-35.0,-1,1.0,0.19129999999995562
621,1,0.8,1.0,-35.0,-1,1.0,0.21790000000009968
622,1,0.8,0.0625,35.0,-1,0.0,0.21139999999968495
623,1,0.8,1.0,-35.0,-1,1.0,0.19479999999975917
624,1,0.8,0.125,35.0,1,1.0,1.301499999999578
625,1,0.8,0.0625,-35.0,-1,1.0,0.19830000000001746
626,1,0.8,1.0,35.0,1,1.0,0.958499999999276
627,1,0.8,0.125,-35.0,-1,1.0,0.15509999999949287
628,1,0.8,0.125,-35.0,-1,1.0,0.17509999999992942
629,1,0.8,1.0,35.0,1,1.0,0.2752009999994698
630,1,0.2,0.0625,-35.0,-1,1.0,0.15189999999984138
631,1,0.2,1.0,35.0,1,1.0,1.345401000000038
632,1,0.2,0.0625,35.0,-1,0.0,0.17549999999982901
633,1,0.2,0.125,-35.0,-1,1.0,0.23549999999977445
634,1,0.2,1.0,35.0,1,1.0,0.23550100000011298
635,1,0.2,0.125,35.0,1,1.0,0.21889999999984866
636,1,0.2,1.0,35.0,1,1.0,0.5324000000000524
637,1,0.2,1.0,35.0,1,1.0,0.27250099999992017
638,1,0.2,0.0,-35.0,-1,1.0,0.32920000000012806
639,1,0.2,0.0,-35.0,-1,1.0,0.16259999999965657
640,1,0.2,0.125,35.0,-1,0.0,0.1594000000000051
641,1,0.2,1.0,35.0,1,1.0,0.1993999999999687
642,1,0.2,0.125,35.0,-1,0.0,0.13940099999990707
643,1,0.2,0.0,35.0,-1,0.0,0.6260999999994965
644,1,0.2,0.125,35.0,1,1.0,0.3894999999997708
645,1,0.2,1.0,35.0,-1,0.0,0.12630099999978484
646,1,0.2,0.125,35.0,1,1.0,0.20989999999937936
647,1,0.2,0.25,35.0,1,1.0,0.8264999999996689
648,1,0.2,0.125,35.0,1,1.0,0.3467000000000553
649,1,0.2,0.125,35.0,1,1.0,0.5100999999999658
650,1,0.2,0.0625,35.0,1,1.0,0.27349999999978536
651,1,0.2,0.25,35.0,1,1.0,0.6902999999997519
652,1,0.2,0.0625,35.0,-1,0.0,0.02709999999979118
653,1,0.2,1.0,35.0,1,1.0,0.3405999999999949
654,1,0.2,0.125,35.0,1,1.0,0.3470999999999549
655,1,0.2,0.125,35.0,1,1.0,0.38400000000001455
656,1,0.2,0.125,-35.0,-1,1.0,0.2840000000001055
657,1,0.2,1.0,-35.0,-1,1.0,0.15750000000025466
658,1,0.2,0.25,35.0,1,1.0,0.340900000000147
659,1,0.2,0.125,-35.0,-1,1.0,0.25420000000030996
660,1,0.2,0.0625,35.0,-1,0.0,0.20420000000012806
661,1,0.2,0.25,-35.0,-1,1.0,0.20440000000007785
662,1,0.2,0.0,-35.0,-1,1.0,0.19769999999971333
663,1,0.2,0.0625,35.0,1,1.0,0.1277999999997519
664,1,0.2,0.25,-35.0,-1,1.0,0.25779999999986103
665,1,0.2,0.25,35.0,1,1.0,0.6644999999998618
666,1,0.2,0.0625,-35.0,-1,1.0,0.24149999999963256
667,1,0.2,0.0625,35.0,1,1.0,0.3713999999999942
668,1,0.2,0.0625,35.0,-1,0.0,0.08140099999991435
669,1,0.2,1.0,35.0,1,1.0,0.2815009999999347
670,1,0.2,0.0,35.0,1,1.0,1.4549999999999272
671,1,0.2,1.0,35.0,1,1.0,1.055000000000291
672,1,0.2,1.0,-35.0,-1,1.0,0.17840099999966696
673,1,0.2,0.125,35.0,1,1.0,0.49850000000014916
674,1,0.2,0.0,35.0,-1,0.0,0.18529999999964275
675,1,0.2,0.0625,35.0,1,1.0,0.8352999999997337
676,1,0.2,0.0625,35.0,1,1.0,0.7019999999997708
677,1,0.2,0.125,35.0,1,1.0,0.3119999999994434
678,1,0.2,0.125,35.0,1,1.0,0.5454999999992651
679,1,0.2,0.0625,35.0,-1,0.0,0.17219999999997526
680,1,0.2,0.25,35.0,1,1.0,0.49570100000028106
681,1,0.2,0.25,-35.0,-1,1.0,0.21239999999943393
682,1,0.8,0.125,35.0,1,1.0,0.4958000000001448
683,1,0.8,0.0625,-35.0,-1,1.0,0.20580100000006496
684,1,0.8,0.0,-35.0,1,0.0,0.4960000000000946
685,1,0.8,0.0625,-35.0,-1,1.0,0.1926999999996042
686,1,0.8,0.125,-35.0,-1,1.0,0.20929999999998472
687,1,0.8,0.25,-35.0,-1,1.0,0.17270000000007713
688,1,0.8,0.0625,35.0,-1,0.0,0.22939999999971405
689,1,0.8,1.0,-35.0,-1,1.0,0.20949999999993452
690,1,0.8,0.125,-35.0,-1,1.0,0.15960099999938393
691,1,0.8,0.125,-35.0,-1,1.0,0.16629999999986467
692,1,0.8,1.0,-35.0,-1,1.0,0.1495999999997366
693,1,0.8,0.25,-35.0,-1,1.0,0.15650000000005093
694,1,0.8,0.0625,-35.0,-1,1.0,0.34320000000025175
695,1,0.8,0.0625,35.0,-1,0.0,0.25649999999996
696,1,0.8,0.0625,-35.0,-1,1.0,0.16329999999970823
697,1,0.8,0.125,-35.0,-1,1.0,0.1633999999999105
698,1,0.8,0.25,-35.0,-1,1.0,0.06680000000005748
699,1,0.8,0.0,-35.0,-1,1.0,0.1701999999995678
700,1,0.8,0.25,-35.0,-1,1.0,0.17349999999942156
701,1,0.8,1.0,-35.0,-1,1.0,0.16369999999960783
702,1,0.8,0.0625,-35.0,-1,1.0,0.1437999999998283
703,1,0.8,0.25,-35.0,-1,1.0,0.16709999999966385
704,1,0.8,1.0,-35.0,-1,1.0,0.17039999999997235
705,1,0.8,1.0,35.0,-1,0.0,0.1471999999998843
706,1,0.8,1.0,-35.0,-1,1.0,0.16730099999995218
707,1,0.8,0.25,35.0,1,1.0,0.4673999999999978
708,1,0.8,0.0625,-35.0,-1,1.0,0.24740099999962695
709,1,0.8,0.0,-35.0,-1,1.0,0.18750099999942904
710,1,0.8,0.125,-35.0,-1,1.0,0.15430000000014843
711,1,0.8,0.25,-35.0,-1,1.0,0.2142999999996391
712,1,0.8,0.25,-35.0,-1,1.0,0.18779999999969732
713,1,0.8,0.0,-35.0,-1,1.0,0.14459999999962747
714,1,0.2,0.25,35.0,-1,0.0,0.14789999999993597
715,1,0.2,0.125,35.0,1,1.0,0.5046999999995023
716,1,0.2,1.0,35.0,-1,0.0,0.20470099999920421
717,1,0.2,0.125,35.0,-1,0.0,0.18820000000005166
718,1,0.2,0.125,35.0,1,1.0,0.5282009999996262
719,1,0.2,1.0,35.0,1,1.0,0.5982999999996537
720,1,0.2,1.0,35.0,1,1.0,1.0249999999996362
721,1,0.2,0.25,-35.0,-1,1.0,0.32850099999950544
722,1,0.2,0.25,35.0,1,1.0,0.7550999999998567
723,1,0.2,1.0,35.0,1,1.0,0.7052010000002156
724,1,0.2,1.0,35.0,1,1.0,0.5630999999998494
725,1,0.2,0.25,35.0,1,1.0,0.5131000000001222
726,1,0.2,0.125,35.0,-1,0.0,0.24029999999947904
727,1,0.2,0.0625,35.0,1,1.0,0.9765999999995074
728,1,0.2,0.125,-35.0,-1,1.0,0.2199999999997999
729,1,0.2,0.125,35.0,-1,0.0,0.15039999999999054
730,1,0.2,0.0625,35.0,-1,0.0,0.23009999999976571
731,1,0.2,1.0,35.0,1,1.0,0.5006010000001879
732,1,0.2,0.25,35.0,1,1.0,0.6705999999999221
733,1,0.2,0.125,35.0,1,1.0,0.7935999999995147
734,1,0.2,0.0625,35.0,1,1.0,0.7603999999996631
735,1,0.2,0.25,35.0,1,1.0,0.4272999999998319
736,1,0.2,0.125,35.0,1,1.0,0.3975999999997839
737,1,0.2,0.0,35.0,1,1.0,0.8271009999998569
738,1,0.2,1.0,35.0,1,1.0,0.43289999999979045
739,1,0.2,0.125,-35.0,-1,1.0,0.5474999999996726
740,1,0.2,0.125,-35.0,-1,1.0,0.2874000000001615
741,1,0.2,0.125,35.0,1,1.0,0.3342999999999847
742,1,0.2,0.0,-35.0,1,0.0,0.5740999999998166
743,1,0.2,0.0625,35.0,1,1.0,0.8344999999999345
744,1,0.2,0.125,-35.0,-1,1.0,0.2179999999998472
745,1,0.2,0.125,35.0,1,1.0,0.47440099999994345
746,1,0.2,0.125,35.0,1,1.0,0.5178000000000793
747,1,0.2,0.0625,35.0,1,1.0,0.4279999999998836
748,1,0.2,0.25,35.0,1,1.0,0.32179999999971187
749,1,0.2,1.0,35.0,1,1.0,0.5814000000000306
750,1,0.2,0.25,35.0,1,1.0,0.44479999999975917
751,1,0.2,0.125,35.0,1,1.0,4.898400999999922
752,1,0.2,0.0625,35.0,1,1.0,0.42180099999995946
753,1,0.2,1.0,35.0,1,1.0,0.22509999999965657
754,1,0.2,0.125,35.0,1,1.0,0.2383999999997286
755,1,0.2,0.0,35.0,1,1.0,3.805300999999872
756,1,0.2,0.125,-35.0,-1,1.0,0.268699999999626
757,1,0.2,0.25,35.0,1,1.0,0.29210099999954764
758,1,0.8,0.0625,35.0,1,1.0,0.5690009999998438
759,1,0.8,0.0625,-35.0,-1,1.0,0.2590999999997621
760,1,0.8,1.0,-35.0,-1,1.0,0.17210099999965678
761,1,0.8,0.125,-35.0,-1,1.0,0.21880099999953018
762,1,0.8,0.0625,-35.0,-1,1.0,0.2625009999997019
763,1,0.8,0.125,35.0,1,1.0,1.1922999999992498
764,1,0.8,1.0,-35.0,-1,1.0,0.14569999999957872
765,1,0.8,1.0,35.0,1,1.0,0.3865009999999529
766,1,0.8,0.0,-35.0,-1,1.0,0.20229999999992287
767,1,0.8,0.0625,-35.0,-1,1.0,0.30589999999983775
768,1,0.8,0.0625,35.0,-1,0.0,0.1859999999996944
769,1,0.8,0.125,-35.0,-1,1.0,0.23309999999992215
770,1,0.8,0.0625,-35.0,-1,1.0,0.16299999999955617
771,1,0.8,0.125,-35.0,-1,1.0,0.30639999999948486
772,1,0.8,0.0625,-35.0,-1,1.0,0.2695010000002185
773,1,0.8,0.0625,-35.0,-1,1.0,0.1363999999994121
774,1,0.8,0.25,-35.0,-1,1.0,0.09949999999980719
775,1,0.8,1.0,-35.0,-1,1.0,0.2128999999995358
776,1,0.8,0.125,35.0,-1,0.0,0.09019999999964057
777,1,0.8,0.125,-35.0,-1,1.0,0.2832010000001901
778,1,0.8,0.0625,-35.0,-1,1.0,0.23739999999997963
779,1,0.8,0.125,-35.0,-1,1.0,0.16350099999999657
780,1,0.8,0.125,-35.0,-1,1.0,0.14990099999977247
781,1,0.8,0.0,-35.0,-1,1.0,0.5031999999996515
782,1,0.8,0.0,-35.0,-1,1.0,0.16350099999954182
783,1,0.8,0.0,-35.0,-1,1.0,0.14030000000002474
784,1,0.8,0.25,-35.0,-1,1.0,0.1867999999994936
785,1,0.8,0.125,-35.0,-1,1.0,0.16039999999975407
786,1,0.8,0.0625,-35.0,-1,1.0,0.15069999999968786
787,1,0.8,0.125,-35.0,-1,1.0,0.19689999999991414
788,1,0.8,0.125,-35.0,-1,1.0,0.15449999999964348
789,1,0.8,0.0,-35.0,-1,1.0,0.2139999999999418
790,1,0.8,0.0,-35.0,-1,1.0,0.24069999999983338
791,1,0.8,0.25,-35.0,-1,1.0,0.05389999999988504
792,1,0.8,0.0625,35.0,-1,0.0,0.21789999999964493
793,1,0.8,0.125,35.0,-1,0.0,0.044399999999768625
794,1,0.8,1.0,-35.0,-1,1.0,0.18729999999959546
795,1,0.8,0.125,-35.0,-1,1.0,0.20139999999992142
796,1,0.8,0.0625,35.0,1,1.0,0.5442999999995664
797,1,0.8,1.0,-35.0,-1,1.0,0.15779999999949723
798,1,0.8,0.25,-35.0,-1,1.0,0.18089999999983775
799,1,0.8,0.25,-35.0,-1,1.0,0.17779999999947904
800,1,0.8,0.125,-35.0,-1,1.0,0.21109999999998763
801,1,0.8,0.25,-35.0,-1,1.0,0.20819999999957872
802,1,0.8,0.0625,-35.0,-1,1.0,0.3079999999999927
803,1,0.2,0.0,35.0,-1,0.0,0.3346999999998843
804,1,0.2,0.25,35.0,-1,0.0,0.17539999999962674
805,1,0.2,1.0,35.0,1,1.0,1.1452999999996791
806,1,0.2,0.0625,35.0,-1,0.0,0.1948999999995067
807,1,0.2,1.0,35.0,1,1.0,0.865299999999479
808,1,0.2,1.0,35.0,-1,0.0,4.6203999999997905
809,1,0.2,0.125,35.0,1,1.0,0.5588009999996757
810,1,0.2,1.0,35.0,1,1.0,0.9917999999997846
811,1,0.2,0.125,35.0,-1,0.0,0.09179999999969368
812,1,0.2,0.25,35.0,1,1.0,0.6407999999996719
813,1,0.2,0.25,35.0,-1,0.0,5.167500000000018
814,1,0.2,1.0,35.0,1,1.0,0.6044009999995978
815,1,0.2,1.0,35.0,1,1.0,0.6376999999993131
816,1,0.2,0.0625,-35.0,-1,1.0,7.101100999999744
817,1,0.2,1.0,35.0,1,1.0,0.5179009999997106
818,1,0.2,0.125,-35.0,-1,1.0,0.26119999999991705
819,1,0.2,0.25,35.0,1,1.0,1.1679999999996653
820,1,0.2,0.25,35.0,1,1.0,0.9914999999996326
821,1,0.2,0.0,35.0,-1,0.0,6.441401000000042
822,1,0.2,0.0,35.0,-1,0.0,3.13169999999991
823,1,0.2,0.125,35.0,1,1.0,0.8917999999998756
824,1,0.2,0.125,35.0,-1,0.0,6.465200000000095
825,1,0.2,0.125,-35.0,-1,1.0,0.23209999999971842
826,1,0.2,0.0625,35.0,1,1.0,22.78870099999949
827,1,0.2,0.125,35.0,1,1.0,0.6826999999998407
828,1,0.2,0.125,35.0,1,1.0,0.2626000000000204
829,1,0.2,0.0625,35.0,1,1.0,1.0259999999993852
830,1,0.2,0.0625,35.0,1,1.0,0.2961999999993168
831,1,0.2,0.0625,35.0,1,1.0,0.7395009999995636
832,1,0.2,0.125,35.0,1,1.0,0.619499999999789
833,1,0.2,0.0625,35.0,1,1.0,0.5262999999995372
834,1,0.2,0.0625,-35.0,-1,1.0,0.23959999999988213
835,1,0.2,0.0,-35.0,1,0.0,1.126299999999901
836,1,0.2,0.125,-35.0,-1,1.0,0.266399999999976
837,1,0.2,0.0625,35.0,1,1.0,0.8863999999998668
838,1,0.2,0.125,35.0,-1,0.0,0.19309999999950378
839,1,0.2,0.25,35.0,1,1.0,7.773200000000088
840,1,0.2,0.0625,35.0,1,1.0,0.5266999999998916
841,1,0.2,1.0,35.0,1,1.0,0.6201000000000931
842,1,0.2,0.125,-35.0,-1,1.0,0.1635999999998603
843,1,0.2,0.0625,35.0,1,1.0,0.4669999999996435
844,1,0.2,1.0,-35.0,-1,1.0,0.18370000000004438
845,1,0.2,0.25,35.0,1,1.0,0.7303000000001703
846,1,0.2,0.125,35.0,-1,0.0,0.19370000000026266
847,1,0.2,0.0625,35.0,1,1.0,0.5904009999994742
848,1,0.2,0.25,35.0,1,1.0,0.627100000000155
849,1,0.2,1.0,35.0,1,1.0,0.34390099999973245
850,1,0.2,1.0,35.0,1,1.0,0.8371999999999389
851,1,0.2,1.0,35.0,1,1.0,0.7073999999997795
852,1,0.2,1.0,-35.0,-1,1.0,0.00739999999950669
853,1,0.2,0.25,35.0,1,1.0,0.9086000000002059
854,1,0.2,1.0,35.0,1,1.0,0.7784999999998945
855,1,0.2,0.0625,35.0,1,1.0,0.7290009999996983
856,1,0.2,0.125,35.0,-1,0.0,12.52250099999992
857,1,0.2,0.0625,35.0,1,1.0,0.4996009999999842
858,1,0.2,0.125,35.0,1,1.0,0.6990999999998166
859,1,0.2,0.25,35.0,-1,0.0,5.852599999999711
860,1,0.2,0.125,35.0,1,1.0,0.9665009999998802
861,1,0.2,0.125,35.0,1,1.0,6.159599999999955
862,1,0.2,1.0,35.0,1,1.0,0.6262999999994463
863,1,0.2,0.125,-35.0,-1,1.0,0.31979999999975917
864,1,0.8,0.25,-35.0,-1,1.0,0.24959999999964566
865,1,0.8,0.125,-35.0,-1,1.0,0.16649999999981446
866,1,0.8,0.0625,-35.0,-1,1.0,0.34350099999983286
867,1,0.8,1.0,-35.0,-1,1.0,0.22659999999996217
868,1,0.8,0.125,-35.0,-1,1.0,0.20699999999987995
869,1,0.8,0.0625,35.0,-1,0.0,0.4164999999993597
870,1,0.8,0.0625,-35.0,-1,1.0,0.1835000000000946
871,1,0.8,1.0,-35.0,-1,1.0,0.243300999999974
872,1,0.8,0.125,-35.0,-1,1.0,0.30059999999957654
873,1,0.8,0.125,-35.0,-1,1.0,0.17049999999971988
874,1,0.8,0.0,-35.0,-1,1.0,0.6468999999997322
875,1,0.8,0.25,-35.0,-1,1.0,0.2867999999998574
876,1,0.8,1.0,-35.0,-1,1.0,0.23370099999965532
877,1,0.8,0.25,-35.0,-1,1.0,7.140999999999622
878,1,0.8,0.0625,35.0,-1,0.0,0.24049999999988358
879,1,0.8,0.25,-35.0,-1,1.0,0.24110099999961676
880,1,0.8,0.25,-35.0,-1,1.0,0.2370999999993728
881,1,0.8,0.0625,35.0,-1,0.0,7.624300999999832
882,1,0.8,0.0,-35.0,-1,1.0,5.627399999999852
883,1,0.8,0.0625,35.0,-1,0.0,0.46090000000003783
884,1,0.8,0.0625,-35.0,-1,1.0,9.531199999999444
885,1,0.8,0.0625,-35.0,-1,1.0,0.3712999999997919
886,1,0.8,0.0,-35.0,-1,1.0,7.278399999999692
887,1,0.8,0.0625,-35.0,-1,1.0,5.938999999999851
888,1,0.8,0.25,-35.0,-1,1.0,0.21839999999929205
889,1,0.8,0.0625,-35.0,-1,1.0,0.8919999999998254
890,1,0.8,0.0625,-35.0,-1,1.0,0.4215999999996711
891,1,0.8,1.0,-35.0,-1,1.0,0.23530099999970844
892,1,0.8,0.0625,-35.0,-1,1.0,10.698999999999614
893,1,0.8,0.25,-35.0,-1,1.0,0.2986999999998261
894,1,0.8,0.0,-35.0,-1,1.0,9.282600999999886
895,1,0.8,0.0625,35.0,-1,0.0,0.31580099999973754
896,1,0.8,0.125,-35.0,-1,1.0,0.43270099999972444
897,1,0.8,0.0625,35.0,-1,0.0,5.429099999999835
898,1,0.8,0.25,-35.0,-1,1.0,0.30629999999973734
899,1,0.8,0.0625,-35.0,-1,1.0,11.822699999999713
900,1,0.8,0.25,-35.0,-1,1.0,18.063299999999344
901,1,0.8,0.0625,35.0,1,1.0,52.2806999999998
902,1,0.8,0.25,-35.0,-1,1.0,4.564800000000105
903,1,0.8,1.0,-35.0,-1,1.0,0.4381999999995969
1,2,0.2,0.125,35.0,1,1.0,0.7562000000000002
2,2,0.2,0.125,35.0,1,1.0,0.7679999999999998
3,2,0.2,1.0,-35.0,-1,1.0,0.9304999999999986
4,2,0.2,0.125,35.0,1,1.0,0.40090000000000003
5,2,0.2,0.25,35.0,1,1.0,0.41670099999999977
6,2,0.2,0.125,35.0,1,1.0,0.2754009999999987
7,2,0.2,1.0,35.0,1,1.0,0.7890999999999977
8,2,0.2,1.0,35.0,1,1.0,0.22819999999999396
9,2,0.2,0.0625,35.0,-1,0.0,0.5504999999999995
10,2,0.2,0.0625,35.0,1,1.0,0.4602000000000004
11,2,0.2,1.0,35.0,1,1.0,0.21449999999999392
12,2,0.2,1.0,35.0,1,1.0,0.30349999999998545
13,2,0.2,0.125,35.0,1,1.0,0.3644999999999925
14,2,0.2,0.125,35.0,1,1.0,0.26680100000000095
15,2,0.2,0.0625,35.0,1,1.0,0.9966000000000008
16,2,0.2,0.0625,35.0,1,1.0,0.28759999999999764
17,2,0.2,0.0625,35.0,1,1.0,0.3335010000000125
18,2,0.2,0.0625,35.0,1,1.0,0.3453009999999921
19,2,0.2,0.25,-35.0,-1,1.0,0.2303009999999972
20,2,0.2,0.25,35.0,1,1.0,0.26679999999998927
21,2,0.2,0.125,35.0,-1,0.0,0.24340000000000828
22,2,0.2,0.125,35.0,1,1.0,0.42669999999999675
23,2,0.2,0.0,-35.0,1,0.0,0.28489999999997906
24,2,0.2,1.0,35.0,1,1.0,0.22849999999999682
25,2,0.2,1.0,35.0,1,1.0,0.17220000000000368
26,2,0.2,0.125,35.0,1,1.0,0.3383999999999787
27,2,0.2,0.0625,-35.0,-1,1.0,0.6906999999999925
28,2,0.2,1.0,35.0,1,1.0,0.39680000000001314
29,2,0.2,1.0,35.0,1,1.0,0.20889999999999986
30,2,0.2,0.125,-35.0,-1,1.0,0.51400000000001
31,2,0.2,0.0625,35.0,1,1.0,0.2220999999999833
32,2,0.2,0.25,35.0,1,1.0,0.2682000000000073
33,2,0.2,1.0,35.0,1,1.0,0.2341000000000122
34,2,0.2,0.125,35.0,1,1.0,0.24519999999998277
35,2,0.2,0.125,35.0,1,1.0,0.2225999999999999
36,2,0.2,0.0,35.0,1,1.0,0.29869999999999663
37,2,0.2,0.125,35.0,1,1.0,0.23220000000000596
38,2,0.2,1.0,-35.0,-1,1.0,0.24010000000001241
39,2,0.2,0.125,35.0,1,1.0,0.23180099999999015
40,2,0.2,0.125,35.0,1,1.0,0.3021009999999933
41,2,0.8,0.0625,-35.0,-1,1.0,0.4072999999999922
42,2,0.8,0.125,-35.0,-1,1.0,0.26099999999996726
43,2,0.8,0.0,-35.0,-1,1.0,0.18330000000000268
44,2,0.8,0.125,-35.0,-1,1.0,0.3224999999999909
45,2,0.8,0.125,-35.0,-1,1.0,0.08289999999999509
46,2,0.8,0.125,-35.0,-1,1.0,0.35849999999999227
47,2,0.8,1.0,-35.0,-1,1.0,0.16729999999998313
48,2,0.8,0.0,35.0,-1,0.0,0.2616999999999905
49,2,0.8,0.125,-35.0,-1,1.0,0.15379999999998972
50,2,0.8,0.125,-35.0,-1,1.0,0.45580000000001064
51,2,0.8,1.0,35.0,1,1.0,0.37989999999999213
52,2,0.8,0.125,-35.0,-1,1.0,0.2193009999999731
53,2,0.8,0.125,-35.0,-1,1.0,0.2066000000000372
54,2,0.8,0.25,-35.0,-1,1.0,0.5153000000000247
55,2,0.8,1.0,35.0,1,1.0,0.34730000000001837
56,2,0.8,0.0625,35.0,-1,0.0,0.45420000000001437
57,2,0.8,0.0625,-35.0,-1,1.0,0.12980100000004313
58,2,0.8,1.0,-35.0,-1,1.0,0.16400100000004159
59,2,0.8,0.0625,-35.0,-1,1.0,0.31639999999998736
60,2,0.8,0.0625,-35.0,-1,1.0,0.19010100000002694
61,2,0.8,0.25,35.0,1,1.0,0.3822000000000685
62,2,0.8,0.0625,-35.0,-1,1.0,0.2239000000000715
63,2,0.8,0.0625,-35.0,-1,1.0,2.357601000000045
64,2,0.8,0.125,-35.0,-1,1.0,1.6362000000000307
65,2,0.8,0.0625,-35.0,-1,1.0,0.22960000000006175
66,2,0.8,1.0,-35.0,-1,1.0,0.33830000000006066
67,2,0.8,1.0,35.0,1,1.0,0.26770000000004757
68,2,0.8,0.125,35.0,1,1.0,0.30040000000002465
69,2,0.8,0.0625,-35.0,-1,1.0,0.4979000000000724
70,2,0.8,1.0,-35.0,-1,1.0,1.4437000000000353
71,2,0.8,0.0,35.0,1,1.0,0.642400000000066
72,2,0.8,0.125,-35.0,-1,1.0,0.41640000000006694
73,2,0.8,0.25,-35.0,-1,1.0,0.4614010000000235
74,2,0.8,0.0625,-35.0,-1,1.0,0.8057000000000016
75,2,0.8,0.0625,35.0,-1,0.0,0.11200100000002067
76,2,0.8,0.25,-35.0,-1,1.0,0.2685000000000173
77,2,0.8,0.0625,-35.0,-1,1.0,0.31360100000000557
78,2,0.8,0.0625,-35.0,-1,1.0,0.20910000000003492
79,2,0.8,0.0,-35.0,-1,1.0,0.3308000000000675
80,2,0.8,0.125,-35.0,-1,1.0,0.23349999999999227
81,2,0.8,0.125,-35.0,-1,1.0,0.2692000000000121
82,2,0.8,0.125,-35.0,-1,1.0,0.4007000000000289
83,2,0.8,1.0,-35.0,-1,1.0,0.23839999999995598
84,2,0.8,1.0,-35.0,-1,1.0,0.1914000000000442
85,2,0.8,0.0625,-35.0,-1,1.0,0.3235000000000241
86,2,0.8,0.0625,35.0,1,1.0,0.4016000000000304
87,2,0.8,0.0,-35.0,-1,1.0,0.08310000000000173
88,2,0.8,0.0625,-35.0,-1,1.0,0.25420000000002574
89,2,0.8,0.0625,-35.0,-1,1.0,0.3312000000000239
90,2,0.8,0.25,-35.0,-1,1.0,0.4007000000000289
91,2,0.8,0.0625,-35.0,-1,1.0,0.24270000000001346
92,2,0.8,0.0625,-35.0,-1,1.0,0.3684000000000083
93,2,0.8,1.0,-35.0,-1,1.0,0.23550100000005614
94,2,0.8,0.125,-35.0,-1,1.0,0.3609000000000151
95,2,0.8,0.125,-35.0,-1,1.0,0.19710000000003447
96,2,0.8,0.0,35.0,-1,0.0,0.19610000000000127
97,2,0.8,1.0,35.0,1,1.0,0.2498000000000502
98,2,0.8,0.0625,-35.0,-1,1.0,0.18400000000002592
99,2,0.8,0.0625,-35.0,-1,1.0,0.42720000000002756
100,2,0.8,0.25,-35.0,-1,1.0,0.20340000000004466
101,2,0.8,0.125,35.0,1,1.0,0.27600000000001046
102,2,0.8,0.0625,-35.0,-1,1.0,0.27880000000004657
103,2,0.8,0.25,-35.0,-1,1.0,0.17390000000000327
104,2,0.8,0.25,-35.0,-1,1.0,0.1966000000000463
105,2,0.8,0.25,35.0,1,1.0,0.3290000000000646
106,2,0.8,0.125,-35.0,-1,1.0,0.31480000000004793
107,2,0.8,0.0625,-35.0,-1,1.0,0.3125010000000543
108,2,0.8,0.0,35.0,-1,0.0,1.2222000000000435
109,2,0.8,1.0,-35.0,-1,1.0,0.20300100000002885
110,2,0.8,0.25,35.0,1,1.0,0.45999999999997954
111,2,0.8,0.125,-35.0,-1,1.0,0.2300999999999931
112,2,0.8,0.0,-35.0,-1,1.0,0.22220000000004347
113,2,0.8,0.125,-35.0,-1,1.0,0.2177000000000362
114,2,0.8,0.125,-35.0,-1,1.0,0.2933010000000422
115,2,0.8,0.25,-35.0,-1,1.0,0.19410000000004857
116,2,0.8,0.0625,-35.0,-1,1.0,0.11119999999999663
117,2,0.8,0.25,-35.0,-1,1.0,0.1634999999999991
118,2,0.8,1.0,-35.0,-1,1.0,0.19299999999998363
119,2,0.8,0.0625,-35.0,-1,1.0,0.2300999999999931
120,2,0.8,0.0,35.0,1,1.0,0.5890999999999167
121,2,0.8,0.125,-35.0,-1,1.0,0.2586000000000013
122,2,0.8,0.25,-35.0,-1,1.0,0.1793999999999869
123,2,0.8,0.0,-35.0,-1,1.0,0.2683999999999287
124,2,0.8,0.25,-35.0,-1,1.0,0.21649999999999636
125,2,0.8,0.25,35.0,1,1.0,0.8111999999999853
126,2,0.8,0.25,-35.0,-1,1.0,0.2139999999999418
127,2,0.8,0.0625,-35.0,-1,1.0,0.250699999999938
128,2,0.8,1.0,-35.0,-1,1.0,0.2280999999999267
129,2,0.8,0.25,-35.0,-1,1.0,0.26060000000006767
130,2,0.8,0.0,-35.0,1,0.0,3.2349000000000387
131,2,0.8,0.0,-35.0,-1,1.0,0.38950099999999566
132,2,0.8,1.0,-35.0,-1,1.0,0.17279999999993834
133,2,0.8,1.0,-35.0,-1,1.0,0.18919999999991433
134,2,0.8,1.0,-35.0,-1,1.0,0.18429999999989377
135,2,0.8,1.0,-35.0,-1,1.0,0.32569999999986976
136,2,0.8,0.125,35.0,-1,0.0,0.21669999999994616
137,2,0.8,0.125,35.0,-1,0.0,0.12559999999996307
138,2,0.2,0.0625,35.0,-1,0.0,0.22709999999983665
139,2,0.2,1.0,35.0,1,1.0,0.2381000000000313
140,2,0.2,0.125,-35.0,-1,1.0,0.29700100000002294
141,2,0.2,0.125,35.0,1,1.0,0.2719999999999345
142,2,0.2,0.125,35.0,1,1.0,0.2436010000000124
143,2,0.2,0.0,35.0,-1,0.0,1.188199999999938
144,2,0.2,1.0,35.0,1,1.0,0.22420099999999366
145,2,0.2,0.25,35.0,1,1.0,0.375699999999938
146,2,0.2,0.0625,35.0,1,1.0,0.4510009999999056
147,2,0.2,0.0625,35.0,1,1.0,0.41219999999998436
148,2,0.2,0.25,35.0,1,1.0,0.3895999999999731
149,2,0.2,0.25,35.0,1,1.0,0.12199999999995725
150,2,0.2,0.125,35.0,1,1.0,0.24540000000001783
151,2,0.2,0.25,-35.0,-1,1.0,0.3327000000000453
152,2,0.2,0.25,-35.0,-1,1.0,0.18650000000002365
153,2,0.2,0.0625,35.0,1,1.0,0.300899999999956
154,2,0.2,0.0625,35.0,1,1.0,0.2381000000000313
155,2,0.2,0.0625,35.0,1,1.0,0.40469999999993433
156,2,0.2,0.25,35.0,1,1.0,0.5855000000000246
157,2,0.2,0.0,35.0,-1,0.0,0.31760000000008404
158,2,0.2,0.0625,35.0,1,1.0,0.36599999999987176
159,2,0.2,1.0,35.0,1,1.0,0.2136999999999034
160,2,0.2,0.125,35.0,1,1.0,0.2941000000000713
161,2,0.2,0.0625,35.0,1,1.0,0.3834999999999127
162,2,0.2,0.125,35.0,1,1.0,0.6000000000000227
163,2,0.2,0.0,35.0,1,1.0,0.3449999999999136
164,2,0.2,0.0625,-35.0,-1,1.0,0.54099999999994
165,2,0.8,0.0,-35.0,-1,1.0,0.2318000000000211
166,2,0.8,0.25,-35.0,-1,1.0,0.17719999999997071
167,2,0.8,0.125,-35.0,-1,1.0,0.22459999999989577
168,2,0.8,0.25,-35.0,-1,1.0,0.14469999999994343
169,2,0.8,0.0625,-35.0,-1,1.0,0.17799999999999727
170,2,0.8,0.125,-35.0,-1,1.0,0.25109999999983756
171,2,0.8,0.0625,-35.0,-1,1.0,0.16829999999993106
172,2,0.8,0.125,-35.0,-1,1.0,0.24889999999993506
173,2,0.8,0.25,35.0,1,1.0,0.42640000000005784
174,2,0.8,0.25,-35.0,-1,1.0,0.20859999999993306
175,2,0.8,1.0,-35.0,-1,1.0,0.24890099999993254
176,2,0.8,0.0625,-35.0,-1,1.0,0.2319999999998572
177,2,0.8,1.0,-35.0,-1,1.0,0.1753999999999678
178,2,0.8,0.0,-35.0,-1,1.0,0.2502000000000635
179,2,0.8,0.0625,-35.0,-1,1.0,0.21429999999998017
180,2,0.8,1.0,35.0,1,1.0,0.19929999999999382
181,2,0.8,0.125,-35.0,-1,1.0,0.2636999999999716
182,2,0.8,0.25,-35.0,-1,1.0,0.22269999999991796
183,2,0.8,0.0625,-35.0,-1,1.0,0.20050099999991744
184,2,0.8,0.0,-35.0,-1,1.0,0.21210099999996146
185,2,0.8,0.0,35.0,-1,0.0,2.875199999999836
186,2,0.8,0.125,35.0,1,1.0,0.5052999999999201
187,2,0.8,0.0,35.0,-1,0.0,0.10380000000009204
188,2,0.2,0.0625,-35.0,-1,1.0,0.3029000000000224
189,2,0.2,0.125,35.0,1,1.0,0.34159999999997126
190,2,0.2,0.125,35.0,1,1.0,0.5606999999998834
191,2,0.2,1.0,35.0,1,1.0,0.6587999999999283
192,2,0.2,0.25,35.0,1,1.0,0.6652010000000246
193,2,0.2,0.0625,35.0,1,1.0,0.3001009999999269
194,2,0.2,1.0,35.0,1,1.0,0.6564010000000735
195,2,0.2,1.0,35.0,1,1.0,0.34810000000004493
196,2,0.2,0.0,35.0,1,1.0,0.29950099999985014
197,2,0.2,0.125,35.0,1,1.0,0.3928009999999631
198,2,0.2,0.25,-35.0,-1,1.0,0.26860099999987597
199,2,0.2,0.25,35.0,1,1.0,0.8100010000000566
200,2,0.2,1.0,35.0,1,1.0,0.5717999999999392
201,2,0.2,0.0625,35.0,1,1.0,0.3608999999999014
202,2,0.2,0.25,35.0,1,1.0,0.32569999999998345
203,2,0.2,0.25,35.0,1,1.0,1.0251009999999496
204,2,0.2,0.25,35.0,1,1.0,0.4092000000000553
205,2,0.2,0.0625,35.0,1,1.0,0.24269999999989977
206,2,0.2,0.125,35.0,-1,0.0,0.11369999999988067
207,2,0.2,0.0625,35.0,1,1.0,0.36639999999988504
208,2,0.2,1.0,35.0,1,1.0,0.25289999999995416
209,2,0.2,0.25,35.0,1,1.0,0.23739999999997963
210,2,0.2,0.25,-35.0,-1,1.0,0.250699999999938
211,2,0.2,0.0625,35.0,1,1.0,0.24309999999991305
212,2,0.2,0.125,35.0,-1,0.0,0.1250999999999749
213,2,0.2,1.0,35.0,1,1.0,0.21929999999997563
214,2,0.2,0.25,-35.0,-1,1.0,1.2460999999999558
215,2,0.2,0.0625,35.0,1,1.0,0.9837999999998601
216,2,0.2,0.0,35.0,-1,0.0,0.26729999999997744
217,2,0.2,0.0625,35.0,-1,0.0,0.1897000000000162
218,2,0.2,0.125,-35.0,-1,1.0,0.26400000000001
219,2,0.2,0.125,35.0,1,1.0,0.30140000000005784
220,2,0.2,0.0625,35.0,1,1.0,1.151501000000053
221,2,0.2,0.0625,35.0,1,1.0,0.28160000000002583
222,2,0.2,0.0,35.0,-1,0.0,0.2034999999999627
223,2,0.2,0.25,35.0,-1,0.0,0.1087999999999738
224,2,0.2,1.0,35.0,1,1.0,0.21079999999994925
225,2,0.8,1.0,-35.0,-1,1.0,0.23139999999989413
226,2,0.8,0.0625,-35.0,-1,1.0,0.3652999999999338
227,2,0.8,1.0,-35.0,-1,1.0,0.18229999999994106
228,2,0.8,0.0625,-35.0,-1,1.0,0.2627999999998565
229,2,0.8,0.0,-35.0,-1,1.0,0.26050099999997656
230,2,0.8,0.0625,-35.0,-1,1.0,0.21390099999996437
231,2,0.8,0.0625,-35.0,-1,1.0,0.2904999999998381
232,2,0.8,0.25,-35.0,-1,1.0,0.18259999999997945
233,2,0.8,0.0625,-35.0,-1,1.0,0.24030000000004748
234,2,0.8,0.125,-35.0,-1,1.0,0.20149999999989632
235,2,0.8,0.125,-35.0,-1,1.0,0.23779999999987922
236,2,0.8,0.0625,-35.0,-1,1.0,0.18030000000010205
237,2,0.8,0.25,-35.0,-1,1.0,0.17660000000000764
238,2,0.8,1.0,-35.0,-1,1.0,0.20729999999991833
239,2,0.8,0.25,-35.0,-1,1.0,0.16239999999993415
240,2,0.8,1.0,-35.0,-1,1.0,0.1717999999998483
241,2,0.8,0.125,35.0,1,1.0,0.6704009999999698
242,2,0.8,0.0625,-35.0,-1,1.0,0.3238010000000031
243,2,0.8,0.125,-35.0,-1,1.0,0.19850099999996473
244,2,0.8,0.0625,-35.0,-1,1.0,0.3345000000000482
245,2,0.8,1.0,-35.0,-1,1.0,0.20460000000002765
246,2,0.8,1.0,-35.0,-1,1.0,0.19790000000000418
247,2,0.8,0.25,-35.0,-1,1.0,0.22810099999992417
248,2,0.8,0.25,-35.0,-1,1.0,0.16819999999995616
249,2,0.8,0.0625,-35.0,-1,1.0,0.3348000000000866
250,2,0.8,0.25,-35.0,-1,1.0,0.21489999999982956
251,2,0.8,0.25,35.0,1,1.0,0.7349000000001524
252,2,0.8,0.25,-35.0,-1,1.0,0.19200100000011844
253,2,0.8,0.0625,-35.0,-1,1.0,0.17860000000018772
254,2,0.8,0.0625,-35.0,-1,1.0,0.17190000000005057
255,2,0.8,0.25,35.0,1,1.0,1.0187009999999646
256,2,0.8,1.0,-35.0,-1,1.0,0.18549999999981992
257,2,0.2,0.0625,35.0,-1,0.0,0.08890100000007806
258,2,0.2,0.25,35.0,1,1.0,0.44570100000009916
259,2,0.2,0.25,35.0,1,1.0,0.46570100000008097
260,2,0.2,0.0625,35.0,1,1.0,0.6790010000001985
261,2,0.2,1.0,-35.0,-1,1.0,0.185799999999972
262,2,0.2,0.0625,35.0,1,1.0,1.1925000000003365
263,2,0.2,0.25,35.0,-1,0.0,0.15590000000020154
264,2,0.2,0.125,-35.0,-1,1.0,0.03590000000008331
265,2,0.2,0.0,35.0,1,1.0,0.48279999999999745
266,2,0.2,0.25,35.0,1,1.0,0.3929000000000542
267,2,0.2,0.0625,-35.0,1,0.0,0.2862000000002354
268,2,0.2,0.0,35.0,1,1.0,0.5063000000002376
269,2,0.2,0.0625,35.0,1,1.0,0.4029000000002725
270,2,0.2,0.25,35.0,1,1.0,0.2597000000002936
271,2,0.2,0.25,35.0,1,1.0,0.3199010000000726
272,2,0.2,1.0,35.0,1,1.0,0.3998000000003685
273,2,0.2,0.0625,-35.0,-1,1.0,0.27660000000014406
274,2,0.2,0.0625,35.0,1,1.0,0.6199999999998909
275,2,0.2,1.0,35.0,1,1.0,0.8799999999998818
276,2,0.2,0.0,35.0,-1,0.0,0.22019999999997708
277,2,0.2,0.125,35.0,1,1.0,0.3502000000000862
278,2,0.2,0.25,35.0,1,1.0,0.3302000000001044
279,2,0.2,1.0,35.0,-1,0.0,0.1770000000001346
280,2,0.2,0.0625,35.0,-1,0.0,0.603800000000092
281,2,0.2,1.0,-35.0,-1,1.0,0.1872000000000753
282,2,0.2,0.25,35.0,1,1.0,0.600601000000097
283,2,0.8,0.0,-35.0,-1,1.0,4.124000000000024
284,2,0.8,0.25,-35.0,-1,1.0,0.1875
285,2,0.8,1.0,35.0,1,1.0,0.5442000000000462
286,2,0.8,0.0625,35.0,-1,0.0,0.16859999999996944
287,2,0.8,0.0625,35.0,1,1.0,0.6177000000000135
288,2,0.8,0.25,-35.0,-1,1.0,0.2479000000000724
289,2,0.8,0.125,-35.0,-1,1.0,0.2212000000001808
290,2,0.8,0.25,-35.0,-1,1.0,0.1977999999999156
291,2,0.8,1.0,-35.0,-1,1.0,0.12139999999999418
292,2,0.8,0.25,-35.0,-1,1.0,0.19129999999995562
293,2,0.8,0.125,35.0,-1,0.0,0.22800000000006548
294,2,0.8,1.0,35.0,-1,0.0,0.4113999999999578
295,2,0.8,0.125,-35.0,-1,1.0,0.19810099999995145
296,2,0.8,0.125,-35.0,-1,1.0,0.4248999999999796
297,2,0.8,0.25,-35.0,-1,1.0,0.22829999999999018
298,2,0.8,1.0,-35.0,-1,1.0,0.2017000000000735
299,2,0.8,1.0,-35.0,-1,1.0,0.17190000000027794
300,2,0.8,1.0,-35.0,-1,1.0,0.21839999999997417
301,2,0.8,0.125,-35.0,-1,1.0,0.21190000000024156
302,2,0.8,0.25,35.0,1,1.0,0.5752000000002226
303,2,0.8,0.25,35.0,1,1.0,0.3421000000000731
304,2,0.8,1.0,35.0,1,1.0,0.2921000000001186
305,2,0.8,0.25,-35.0,-1,1.0,0.21550000000024738
306,2,0.8,0.0625,-35.0,-1,1.0,0.18220000000019354
307,2,0.8,0.25,-35.0,-1,1.0,0.1690009999999802
308,2,0.8,0.0,-35.0,-1,1.0,0.23240000000032524
309,2,0.8,0.0625,35.0,-1,0.0,0.17580100000009224
310,2,0.8,0.25,-35.0,-1,1.0,0.14580100000011953
311,2,0.8,0.25,-35.0,-1,1.0,0.27919999999994616
312,2,0.8,0.0625,-35.0,-1,1.0,0.17280000000005202
313,2,0.8,0.0625,-35.0,-1,1.0,0.24270100000012462
314,2,0.8,1.0,35.0,1,1.0,0.36270000000035907
315,2,0.8,1.0,-35.0,-1,1.0,0.21280000000024302
316,2,0.8,0.0625,-35.0,-1,1.0,0.5096000000000913
317,2,0.8,0.125,-35.0,-1,1.0,0.20980100000019775
318,2,0.8,0.0625,-35.0,-1,1.0,0.25649999999996
319,2,0.8,0.25,-35.0,-1,1.0,0.19319999999993342
320,2,0.8,1.0,-35.0,-1,1.0,0.1834000000001197
321,2,0.8,0.25,35.0,-1,0.0,0.19990000000007058
322,2,0.8,0.125,-35.0,-1,1.0,0.2666999999999007
323,2,0.8,0.0,-35.0,-1,1.0,0.1668000000001939
324,2,0.8,1.0,35.0,1,1.0,0.26680000000010295
325,2,0.8,0.25,-35.0,-1,1.0,0.15020000000004075
326,2,0.8,0.25,-35.0,-1,1.0,0.17350000000010368
327,2,0.8,1.0,-35.0,-1,1.0,0.14370000000008076
328,2,0.8,0.25,35.0,-1,0.0,0.1104000000002543
329,2,0.8,0.0625,-35.0,-1,1.0,0.1938000000000102
330,2,0.8,0.0625,35.0,-1,0.0,0.2737999999999374
331,2,0.8,0.0,-35.0,-1,1.0,0.213799999999992
332,2,0.8,0.0625,-35.0,-1,1.0,0.18389999999999418
333,2,0.8,0.25,-35.0,-1,1.0,0.16399999999998727
334,2,0.8,0.0625,35.0,-1,0.0,0.14750000000003638
335,2,0.8,1.0,35.0,-1,0.0,0.19080099999996492
336,2,0.8,0.0625,-35.0,-1,1.0,0.2376000000001568
337,2,0.8,0.125,35.0,-1,0.0,0.18429999999989377
338,2,0.8,0.0,-35.0,-1,1.0,0.10110000000008768
339,2,0.8,0.0,-35.0,-1,1.0,0.17430000000013024
340,2,0.8,0.0625,-35.0,-1,1.0,0.1612999999999829
341,2,0.8,0.0,35.0,-1,0.0,0.23460000000022774
342,2,0.2,0.25,35.0,-1,0.0,0.21119999999996253
343,2,0.2,0.25,-35.0,-1,1.0,0.14470000000005712
344,2,0.2,0.125,35.0,1,1.0,0.9115000000001601
345,2,0.2,0.25,35.0,1,1.0,0.4514010000000326
346,2,0.2,1.0,-35.0,-1,1.0,0.1948000000002139
347,2,0.2,0.125,35.0,-1,0.0,0.18820000000005166
348,2,0.2,1.0,35.0,1,1.0,0.5616999999999734
349,2,0.2,1.0,35.0,1,1.0,1.2917999999999665
350,2,0.2,0.0625,35.0,-1,0.0,0.13510100000007697
351,2,0.2,0.25,-35.0,-1,1.0,0.2717999999999847
352,2,0.2,0.25,35.0,-1,0.0,0.04530000000022483
353,2,0.2,0.0625,35.0,-1,0.0,0.28530000000000655
354,2,0.2,0.25,35.0,1,1.0,0.33540000000016335
355,2,0.2,0.25,35.0,-1,0.0,0.1531999999999698
356,2,0.2,0.25,35.0,1,1.0,0.3288000000000011
357,2,0.2,1.0,35.0,1,1.0,0.4554000000000542
358,2,0.2,0.0,35.0,-1,0.0,0.18890000000010332
359,2,0.2,0.25,35.0,1,1.0,0.24240000000008877
360,2,0.2,0.125,35.0,1,1.0,0.4657000000001972
361,2,0.2,1.0,-35.0,-1,1.0,0.16580000000021755
362,2,0.2,0.0625,35.0,1,1.0,0.5692000000001372
363,2,0.2,0.0625,35.0,-1,0.0,0.17260099999998602
364,2,0.2,0.25,-35.0,-1,1.0,0.45270099999993363
365,2,0.2,0.25,35.0,1,1.0,0.3828000000000884
366,2,0.2,0.125,35.0,1,1.0,0.6862009999999827
367,2,0.2,0.125,35.0,1,1.0,0.46620000000029904
368,2,0.2,1.0,-35.0,-1,1.0,0.19630000000006476
369,2,0.2,0.0625,35.0,1,1.0,0.5598010000001068
370,2,0.2,1.0,-35.0,-1,1.0,0.22969999999986612
371,2,0.2,0.25,35.0,1,1.0,0.5632000000000517
372,2,0.2,0.25,35.0,1,1.0,0.5766000000000986
373,2,0.2,0.125,35.0,1,1.0,0.3667000000000371
374,2,0.2,0.0625,35.0,-1,0.0,0.2234000000000833
375,2,0.2,0.25,35.0,1,1.0,0.6968000000001666
376,2,0.2,1.0,35.0,1,1.0,0.6902000000000044
377,2,0.2,0.125,35.0,1,1.0,0.8803000000000338
378,2,0.2,0.0,35.0,-1,0.0,2.7503999999998996
379,2,0.2,0.25,-35.0,-1,1.0,0.16710000000034597
380,2,0.2,1.0,35.0,-1,0.0,0.08730000000014115
381,2,0.2,0.0625,35.0,-1,0.0,0.24720000000002074
382,2,0.2,1.0,35.0,1,1.0,0.17390000000023065
383,2,0.2,0.125,35.0,1,1.0,0.39400000000023283
384,2,0.2,0.125,35.0,1,1.0,0.5807999999999538
385,2,0.2,1.0,35.0,1,1.0,0.4575000000002092
386,2,0.2,1.0,35.0,1,1.0,0.310799999999972
387,2,0.2,0.0,35.0,1,1.0,0.6876000000002023
388,2,0.2,0.25,35.0,1,1.0,0.41440000000011423
389,2,0.2,0.125,35.0,1,1.0,0.30110000000013315
390,2,0.2,0.0,-35.0,-1,1.0,0.27120000000013533
391,2,0.2,0.0625,35.0,-1,0.0,0.27800000000002
392,2,0.2,0.125,-35.0,-1,1.0,0.20470000000000255
393,2,0.2,0.0625,35.0,1,1.0,0.44820000000026994
394,2,0.8,0.0625,-35.0,-1,1.0,0.3650000000000091
395,2,0.8,0.0625,-35.0,-1,1.0,0.2717000000000098
396,2,0.8,0.125,-35.0,-1,1.0,0.17170000000010077
397,2,0.8,0.25,35.0,1,1.0,0.6851000000001477
398,2,0.8,1.0,35.0,1,1.0,0.6752000000001317
399,2,0.8,1.0,35.0,1,1.0,0.5652000000000044
400,2,0.8,0.125,-35.0,-1,1.0,0.3453999999999269
401,2,0.8,0.25,-35.0,-1,1.0,0.4055000000000746
402,2,0.8,0.0625,-35.0,-1,1.0,0.2854010000000926
403,2,0.8,0.125,-35.0,-1,1.0,0.1790000000000873
404,2,0.8,1.0,-35.0,-1,1.0,0.09890000000018517
405,2,0.8,0.25,-35.0,-1,1.0,0.046000000000276486
406,2,0.8,0.125,35.0,-1,0.0,0.18240100000002712
407,2,0.8,1.0,35.0,1,1.0,0.47590100000024904
408,2,0.8,1.0,-35.0,-1,1.0,0.1893000000000029
409,2,0.8,0.0,-35.0,1,0.0,0.36609999999996035
410,2,0.8,0.125,-35.0,-1,1.0,0.24620100000015555
411,2,0.8,0.25,-35.0,-1,1.0,0.19960000000014588
412,2,0.8,0.0,-35.0,-1,1.0,0.17960000000016407
413,2,0.8,0.0625,35.0,-1,0.0,0.23630000000002838
414,2,0.8,0.0625,-35.0,-1,1.0,0.2763999999999669
415,2,0.8,0.25,-35.0,-1,1.0,0.29320000000006985
416,2,0.8,1.0,-35.0,-1,1.0,0.18980000000010477
417,2,0.8,1.0,-35.0,-1,1.0,0.1733999999999014
418,2,0.8,1.0,-35.0,-1,1.0,0.20000100000015664
419,2,0.8,1.0,-35.0,-1,1.0,0.30330000000003565
420,2,0.8,0.0625,-35.0,-1,1.0,0.2799999999999727
421,2,0.2,0.125,35.0,-1,0.0,0.06670000000008258
422,2,0.2,0.0625,35.0,1,1.0,0.5367000000001099
423,2,0.2,1.0,-35.0,-1,1.0,0.17010000000027503
424,2,0.2,0.125,35.0,1,1.0,1.5602000000001226
425,2,0.2,0.25,35.0,1,1.0,0.527000000000271
426,2,0.2,0.125,35.0,1,1.0,0.49700000000007094
427,2,0.2,0.125,-35.0,-1,1.0,0.15370000000007167
428,2,0.2,0.0,35.0,1,1.0,0.8537010000000009
429,2,0.2,0.125,35.0,1,1.0,0.6604999999999563
430,2,0.2,1.0,35.0,1,1.0,0.6507000000001426
431,2,0.2,0.125,35.0,-1,0.0,0.2474000000001979
432,2,0.2,0.0625,35.0,-1,0.0,0.19419999999990978
433,2,0.2,0.25,-35.0,1,0.0,0.05430000000023938
434,2,0.2,0.0625,35.0,1,1.0,0.2255000000002383
435,2,0.2,0.0,35.0,-1,0.0,0.0922000000002754
436,2,0.2,0.125,35.0,1,1.0,0.5056999999999334
437,2,0.2,0.0,35.0,1,1.0,0.4420999999999822
438,2,0.2,0.0625,35.0,1,1.0,0.8958000000000084
439,2,0.2,0.25,35.0,1,1.0,0.7526000000000295
440,2,0.2,0.0625,35.0,1,1.0,0.6222999999999956
441,2,0.2,0.0625,35.0,1,1.0,0.7595000000001164
442,2,0.2,0.125,-35.0,-1,1.0,0.276299999999992
443,2,0.2,0.0625,35.0,1,1.0,0.6164999999998599
444,2,0.2,0.25,35.0,1,1.0,0.5996000000002368
445,2,0.2,0.0625,-35.0,1,0.0,0.5797000000000025
446,2,0.2,0.25,35.0,1,1.0,0.41600000000016735
447,2,0.2,1.0,35.0,1,1.0,0.6264000000001033
448,2,0.2,1.0,35.0,1,1.0,0.3830000000000382
449,2,0.2,1.0,35.0,1,1.0,0.44659999999998945
450,2,0.2,0.0,35.0,1,1.0,0.3063000000001921
451,2,0.2,0.0625,35.0,1,1.0,0.6399000000001251
452,2,0.2,1.0,35.0,1,1.0,0.8596999999999753
453,2,0.2,0.25,35.0,1,1.0,0.7364000000000033
454,2,0.2,0.125,35.0,1,1.0,0.6635000000001128
455,2,0.2,1.0,35.0,1,1.0,0.40010099999994964
456,2,0.2,1.0,35.0,1,1.0,0.3140000000000782
457,2,0.2,0.125,35.0,1,1.0,0.9934000000000651
458,2,0.2,0.125,-35.0,-1,1.0,0.23080000000004475
459,2,0.8,0.125,-35.0,-1,1.0,0.25690000000008695
460,2,0.8,0.0,-35.0,1,0.0,0.42380000000025575
461,2,0.8,0.0,-35.0,-1,1.0,0.11370000000010805
462,2,0.8,0.0625,35.0,-1,0.0,0.17709999999988213
463,2,0.8,0.0625,-35.0,-1,1.0,0.3004000000000815
464,2,0.8,0.25,-35.0,-1,1.0,0.15410000000019863
465,2,0.8,0.125,-35.0,-1,1.0,0.19400000000018736
466,2,0.8,0.125,-35.0,-1,1.0,0.23760100000026796
467,2,0.8,0.125,-35.0,-1,1.0,0.20100000000002183
468,2,0.8,0.125,35.0,-1,0.0,0.1574000000000524
469,2,0.8,0.0,-35.0,-1,1.0,0.2074000000000069
470,2,0.8,0.25,-35.0,-1,1.0,0.4210000000000491
471,2,0.8,0.25,35.0,1,1.0,0.407799999999952
472,2,0.8,0.125,35.0,1,1.0,0.6144010000002709
473,2,0.8,0.25,-35.0,-1,1.0,0.1776999999999589
474,2,0.8,0.0625,-35.0,-1,1.0,0.21119999999996253
475,2,0.8,0.0625,-35.0,-1,1.0,0.17140000000017608
476,2,0.8,0.0625,-35.0,-1,1.0,0.1814999999999145
477,2,0.8,1.0,-35.0,-1,1.0,0.2114000000001397
478,2,0.8,0.25,-35.0,-1,1.0,0.4285000000002128
479,2,0.8,0.125,35.0,1,1.0,0.3988000000001648
480,2,0.8,1.0,-35.0,-1,1.0,0.2783000000001721
481,2,0.8,1.0,-35.0,-1,1.0,0.19210000000020955
482,2,0.8,0.0625,-35.0,-1,1.0,0.31880100000012135
483,2,0.8,0.125,35.0,1,1.0,0.8754010000002381
484,2,0.8,0.25,35.0,1,1.0,0.6251999999999498
485,2,0.8,0.0625,-35.0,-1,1.0,0.3652999999999338
486,2,0.8,1.0,35.0,1,1.0,0.9954000000000178
487,2,0.8,0.0625,-35.0,-1,1.0,0.1589000000001306
488,2,0.8,0.0625,-35.0,-1,1.0,0.5855999999998858
489,2,0.8,0.0625,-35.0,-1,1.0,0.18900000000007822
490,2,0.8,0.25,-35.0,-1,1.0,0.4292000000000371
491,2,0.8,1.0,-35.0,-1,1.0,0.24650000000019645
492,2,0.8,1.0,-35.0,-1,1.0,0.14580100000011953
493,2,0.8,0.125,35.0,-1,0.0,0.23970000000031177
494,2,0.8,0.0625,-35.0,-1,1.0,0.1594000000000051
495,2,0.8,1.0,-35.0,-1,1.0,0.16920100000015736
496,2,0.8,0.125,-35.0,-1,1.0,0.17630000000008295
497,2,0.8,1.0,-35.0,-1,1.0,0.1829000000002452
498,2,0.8,0.125,-35.0,-1,1.0,0.17300000000000182
499,2,0.8,0.0625,35.0,-1,0.0,0.18980000000010477
500,2,0.8,1.0,35.0,1,1.0,0.3829000000002907
501,2,0.8,0.25,-35.0,-1,1.0,0.1931000000001859
502,2,0.8,0.125,-35.0,-1,1.0,0.233400999999958
503,2,0.8,0.0,-35.0,-1,1.0,0.2031000000001768
504,2,0.8,0.25,35.0,1,1.0,0.5834000000002106
505,2,0.8,0.125,-35.0,-1,1.0,0.17350000000010368
506,2,0.8,0.25,-35.0,-1,1.0,0.1873000000000502
507,2,0.8,0.25,-35.0,-1,1.0,0.14740000000028886
508,2,0.8,0.125,-35.0,-1,1.0,0.2737010000000737
509,2,0.8,0.0625,-35.0,-1,1.0,0.20060000000012224
510,2,0.8,0.0,-35.0,-1,1.0,0.27060000000005857
511,2,0.8,0.25,-35.0,-1,1.0,0.130500000000211
512,2,0.8,1.0,35.0,1,1.0,0.7941000000000713
513,2,0.8,1.0,-35.0,-1,1.0,0.17400000000020555
514,2,0.8,0.25,-35.0,-1,1.0,0.19750000000021828
515,2,0.8,0.0,-35.0,-1,1.0,0.20149999999989632
516,2,0.8,0.125,35.0,-1,0.0,0.1812000000002172
517,2,0.8,0.0625,-35.0,-1,1.0,0.191300000000183
518,2,0.8,0.0625,-35.0,-1,1.0,0.15110100000015336
519,2,0.8,1.0,-35.0,-1,1.0,0.1712999999999738
520,2,0.8,0.0,35.0,-1,0.0,0.1887010000000373
521,2,0.8,0.25,-35.0,-1,1.0,0.13800000000014734
522,2,0.8,0.125,-35.0,-1,1.0,0.16810000000009495
523,2,0.8,0.0625,-35.0,-1,1.0,0.2613010000000031
524,2,0.8,0.125,-35.0,-1,1.0,0.1250999999999749
525,2,0.8,1.0,-35.0,-1,1.0,0.1585010000001148
526,2,0.8,0.0,-35.0,-1,1.0,0.2583999999999378
527,2,0.8,0.125,-35.0,-1,1.0,0.18230000000016844
528,2,0.8,0.0625,-35.0,-1,1.0,0.17850000000021282
529,2,0.8,0.25,35.0,-1,0.0,0.13869999999997162
530,2,0.8,1.0,-35.0,-1,1.0,0.16880100000025777
531,2,0.8,1.0,-35.0,-1,1.0,0.2056999999999789
532,2,0.8,0.125,35.0,-1,0.0,0.23250099999995655
533,2,0.8,0.0,-35.0,-1,1.0,0.0726999999999407
534,2,0.8,0.25,-35.0,-1,1.0,0.1528000000000702
535,2,0.8,0.0625,-35.0,-1,1.0,0.17600000000015825
536,2,0.8,0.125,-35.0,-1,1.0,0.12920000000008258
537,2,0.8,1.0,35.0,-1,0.0,0.09950000000003456
538,2,0.8,0.0625,-35.0,-1,1.0,0.47929999999996653
539,2,0.8,0.25,35.0,-1,0.0,0.18319999999994252
540,2,0.8,1.0,35.0,-1,0.0,0.21620000000007167
541,2,0.8,0.125,-35.0,-1,1.0,0.7794999999996435
542,2,0.2,1.0,35.0,1,1.0,1.1399999999998727
543,2,0.2,0.125,35.0,-1,0.0,0.11990100000002712
544,2,0.2,0.0625,35.0,1,1.0,0.5201999999999316
545,2,0.2,0.125,35.0,-1,0.0,0.15029999999978827
546,2,0.2,0.0625,-35.0,-1,1.0,0.42319999999972424
547,2,0.2,0.125,-35.0,-1,1.0,0.16990000000032524
548,2,0.2,0.25,35.0,1,1.0,0.26740100000051825
549,2,0.2,0.0,35.0,-1,0.0,0.177599999999984
550,2,0.2,1.0,-35.0,-1,1.0,0.15020000000004075
551,2,0.2,1.0,35.0,1,1.0,0.7069000000001324
552,2,0.2,1.0,-35.0,-1,1.0,0.1677999999997155
553,2,0.2,1.0,35.0,1,1.0,0.6945000000000618
554,2,0.2,0.25,35.0,1,1.0,0.7307000000000698
555,2,0.2,1.0,35.0,1,1.0,0.31400099999973463
556,2,0.2,0.0625,35.0,1,1.0,0.6042999999999665
557,2,0.2,1.0,35.0,1,1.0,0.3843000000001666
558,2,0.2,0.0625,-35.0,-1,1.0,0.1475999999997839
559,2,0.2,0.125,35.0,1,1.0,0.7611000000001695
560,2,0.2,1.0,35.0,1,1.0,0.7114999999998872
561,2,0.2,0.125,35.0,1,1.0,0.4044010000002345
562,2,0.2,0.125,35.0,-1,0.0,0.054600000000391447
563,2,0.2,0.0,35.0,-1,0.0,0.17480099999966114
564,2,0.2,0.0,35.0,1,1.0,0.4980000000000473
565,2,0.2,0.125,35.0,1,1.0,0.49819999999954234
566,2,0.2,0.0625,35.0,1,1.0,0.5315999999997985
567,2,0.2,0.125,35.0,1,1.0,0.502100000000155
568,2,0.2,0.125,35.0,1,1.0,0.2881999999999607
569,2,0.2,1.0,35.0,1,1.0,0.20540000000028158
570,2,0.2,1.0,35.0,1,1.0,0.2751000000002932
571,2,0.2,0.125,35.0,1,1.0,0.3951000000001841
572,2,0.2,0.0625,35.0,1,1.0,0.37190000000009604
573,2,0.2,0.25,35.0,1,1.0,0.2955000000001746
574,2,0.2,0.0,35.0,1,1.0,0.3490999999999076
575,2,0.2,0.0625,35.0,1,1.0,0.5353000000000065
576,2,0.2,0.25,35.0,1,1.0,0.3824000000004162
577,2,0.2,0.0,-35.0,1,0.0,0.5457000000001244
578,2,0.2,0.0,35.0,-1,0.0,0.1856999999999971
579,2,0.2,0.0625,35.0,-1,0.0,0.07930000000033033
580,2,0.2,0.0625,35.0,1,1.0,0.2962000000002263
581,2,0.2,1.0,-35.0,-1,1.0,2.0960000000000036
582,2,0.2,0.0625,35.0,1,1.0,0.36280100000021775
583,2,0.2,0.25,-35.0,-1,1.0,0.16609999999991487
584,2,0.2,0.25,-35.0,-1,1.0,0.22620000000006257
585,2,0.2,0.125,35.0,1,1.0,0.40310000000044965
586,2,0.2,0.25,35.0,1,1.0,0.34680100000014136
587,2,0.2,0.125,35.0,1,1.0,0.41629999999986467
588,2,0.8,0.0625,35.0,1,1.0,0.3831999999997606
589,2,0.8,0.125,-35.0,-1,1.0,0.28670000000010987
590,2,0.8,0.25,-35.0,-1,1.0,0.13990000000012515
591,2,0.8,0.125,-35.0,-1,1.0,0.18349999999963984
592,2,0.8,0.125,-35.0,-1,1.0,0.2102010000003247
593,2,0.8,1.0,-35.0,-1,1.0,0.20340000000032887
594,2,0.8,0.0,-35.0,-1,1.0,0.26040000000011787
595,2,0.8,0.0625,-35.0,-1,1.0,0.1439000000004853
596,2,0.8,1.0,-35.0,-1,1.0,0.15410100000008242
597,2,0.8,1.0,-35.0,-1,1.0,0.17740000000048894
598,2,0.8,1.0,-35.0,-1,1.0,0.16769999999996799
599,2,0.8,0.0625,-35.0,-1,1.0,0.12429999999994834
600,2,0.8,0.0,-35.0,-1,1.0,0.17770000000018626
601,2,0.8,0.0,-35.0,-1,1.0,0.1311000000000604
602,2,0.8,0.0625,-35.0,-1,1.0,0.14090000000032887
603,2,0.8,0.25,35.0,1,1.0,0.404700000000048
604,2,0.8,0.0625,-35.0,-1,1.0,0.151299999999992
605,2,0.8,0.0,-35.0,-1,1.0,0.16110099999968952
606,2,0.8,0.125,-35.0,-1,1.0,0.22770000000036816
607,2,0.8,1.0,-35.0,-1,1.0,0.161200000000008
608,2,0.8,0.0625,-35.0,-1,1.0,0.15790000000015425
609,2,0.8,1.0,-35.0,-1,1.0,0.16480000000001382
610,2,0.8,0.125,-35.0,-1,1.0,0.1283000000003085
611,2,0.8,1.0,35.0,1,1.0,0.34220000000050277
612,2,0.8,0.125,35.0,1,1.0,0.5715000000000146
613,2,0.8,0.25,35.0,-1,0.0,0.17860000000064247
614,2,0.8,0.0,-35.0,-1,1.0,0.18509999999969295
615,2,0.8,1.0,-35.0,-1,1.0,0.19250000000010914
616,2,0.8,0.0625,-35.0,-1,1.0,0.22899999999981446
617,2,0.8,0.0625,-35.0,-1,1.0,0.22910000000001673
618,2,0.8,0.125,-35.0,-1,1.0,0.22930000000042128
619,2,0.8,1.0,35.0,-1,0.0,0.1987010000002556
620,2,0.8,0.0,-35.0,-1,1.0,0.08190100000001621
621,2,0.8,0.0625,-35.0,-1,1.0,0.052000000000134605
622,2,0.8,1.0,-35.0,-1,1.0,0.18539999999984502
623,2,0.8,0.25,-35.0,-1,1.0,0.15560099999947852
624,2,0.2,0.0,35.0,-1,0.0,0.1956000000000131
625,2,0.2,1.0,35.0,1,1.0,0.7990010000003167
626,2,0.2,0.25,35.0,1,1.0,0.3392999999996391
627,2,0.2,1.0,35.0,1,1.0,0.6527010000004339
628,2,0.2,0.0625,35.0,1,1.0,0.5030010000000402
629,2,0.2,0.0625,35.0,-1,0.0,0.2899010000000999
630,2,0.2,0.25,35.0,1,1.0,0.2503999999998996
631,2,0.2,0.0625,-35.0,-1,1.0,0.2563000000000102
632,2,0.2,0.0625,35.0,-1,0.0,0.2831010000004426
633,2,0.2,0.25,35.0,1,1.0,0.26630000000022847
634,2,0.2,0.125,35.0,1,1.0,0.4066000000002532
635,2,0.2,1.0,35.0,1,1.0,0.7833000000000538
636,2,0.2,0.125,35.0,1,1.0,0.5200009999998656
637,2,0.2,0.25,35.0,1,1.0,0.4306000000001404
638,2,0.2,0.25,35.0,1,1.0,0.3467000000000553
639,2,0.2,0.125,35.0,1,1.0,0.43690099999957965
640,2,0.2,0.0625,35.0,1,1.0,0.5369009999994887
641,2,0.2,0.0625,35.0,1,1.0,0.6338999999998123
642,2,0.2,0.25,-35.0,-1,1.0,0.26070000000026994
643,2,0.2,0.125,35.0,1,1.0,0.32409999999981665
644,2,0.2,1.0,35.0,1,1.0,0.26399999999966894
645,2,0.2,0.0625,35.0,1,1.0,0.443800999999894
646,2,0.2,1.0,35.0,1,1.0,0.3043999999999869
647,2,0.2,0.125,-35.0,-1,1.0,0.24440000000004147
648,2,0.2,0.0625,35.0,1,1.0,0.42419999999992797
649,2,0.2,0.125,35.0,1,1.0,0.31739999999990687
650,2,0.2,1.0,35.0,1,1.0,0.46740000000045256
651,2,0.2,0.0625,35.0,1,1.0,0.4544999999998254
652,2,0.2,0.0,-35.0,-1,1.0,0.1547009999999318
653,2,0.2,1.0,-35.0,-1,1.0,0.19460000000026412
654,2,0.2,0.0,-35.0,-1,1.0,0.23509999999987485
655,2,0.2,0.0625,35.0,1,1.0,0.708299999999781
656,2,0.2,0.0625,35.0,1,1.0,0.37800000000015643
657,2,0.2,0.125,35.0,-1,0.0,0.09820000000036089
658,2,0.2,1.0,35.0,1,1.0,0.3580000000001746
659,2,0.2,0.0625,35.0,1,1.0,0.7952000000000226
660,2,0.2,0.0625,35.0,1,1.0,0.5214000000005399
661,2,0.2,0.25,35.0,1,1.0,0.2586000000005697
662,2,0.2,0.25,35.0,1,1.0,0.3916999999996733
663,2,0.2,0.0,35.0,-1,0.0,0.2154000000000451
664,2,0.2,0.0625,-35.0,-1,1.0,0.48509999999987485
665,2,0.2,1.0,-35.0,-1,1.0,0.18240000000014334
666,2,0.2,0.125,-35.0,-1,1.0,0.15230000000019572
667,2,0.2,0.0,35.0,-1,0.0,0.15869999999995343
668,2,0.2,1.0,-35.0,-1,1.0,0.11889999999993961
669,2,0.2,0.25,35.0,1,1.0,0.3289010000003145
670,2,0.2,0.25,35.0,1,1.0,0.46900000000005093
671,2,0.2,0.0625,35.0,1,1.0,0.3491009999997914
672,2,0.2,0.25,35.0,1,1.0,0.6024000000002161
673,2,0.2,0.25,35.0,1,1.0,0.32310000000006767
674,2,0.2,1.0,35.0,1,1.0,0.36260000000038417
675,2,0.2,0.25,35.0,1,1.0,0.3261999999999716
676,2,0.2,0.0625,35.0,1,1.0,0.3565000000003238
677,2,0.2,0.0,-35.0,1,0.0,0.9663000000005013
678,2,0.2,0.125,35.0,1,1.0,0.3299000000001797
679,2,0.2,0.0625,35.0,1,1.0,0.3130000000005566
680,2,0.2,0.0625,35.0,1,1.0,0.3299000000001797
681,2,0.2,0.0,35.0,1,1.0,0.6732999999999265
682,2,0.2,0.0,35.0,1,1.0,0.7264999999997599
683,2,0.2,0.25,35.0,1,1.0,0.25289999999995416
684,2,0.2,1.0,35.0,1,1.0,0.2498000000000502
685,2,0.2,0.25,35.0,1,1.0,0.32009999999991123
686,2,0.2,0.0,35.0,1,1.0,0.26650000000017826
687,2,0.2,0.125,-35.0,-1,1.0,0.3635999999996784
688,2,0.2,0.0625,35.0,-1,0.0,0.23010000000022046
689,2,0.2,0.125,35.0,1,1.0,0.27680000000009386
690,2,0.2,0.0625,35.0,1,1.0,0.2800999999999476
691,2,0.2,0.25,-35.0,-1,1.0,0.2902009999997972
692,2,0.2,1.0,35.0,1,1.0,0.5871000000001914
693,2,0.2,0.125,-35.0,-1,1.0,0.1770000000001346
694,2,0.2,1.0,35.0,1,1.0,0.4807999999998174
695,2,0.2,0.25,-35.0,-1,1.0,0.23759999999992942
696,2,0.2,0.25,-35.0,-1,1.0,-0.01959999999962747
697,2,0.8,1.0,-35.0,-1,1.0,0.19390000000021246
698,2,0.8,0.25,35.0,1,1.0,1.0372000000002117
699,2,0.8,0.0625,-35.0,-1,1.0,0.157701000000543
700,2,0.8,0.0625,-35.0,1,0.0,0.2739000000001397
701,2,0.8,0.0625,-35.0,-1,1.0,0.34799999999995634
702,2,0.8,0.25,-35.0,-1,1.0,0.21080099999971935
703,2,0.8,0.0625,-35.0,-1,1.0,0.2476000000001477
704,2,0.8,0.125,-35.0,-1,1.0,0.18759999999974752
705,2,0.8,0.125,-35.0,-1,1.0,0.24089999999978318
706,2,0.8,1.0,35.0,1,1.0,0.29100000000016735
707,2,0.8,0.125,-35.0,-1,1.0,0.3079000000002452
708,2,0.8,0.125,-35.0,-1,1.0,0.21120099999961894
709,2,0.8,0.0625,-35.0,-1,1.0,0.47450000000026193
710,2,0.8,0.0,-35.0,-1,1.0,0.2581000000000131
711,2,0.8,0.0625,-35.0,-1,1.0,0.2252000000003136
712,2,0.8,0.0625,35.0,1,1.0,0.6220010000001821
713,2,0.8,1.0,35.0,1,1.0,0.4981000000007043
714,2,0.8,0.125,-35.0,1,0.0,0.028500000000349246
715,2,0.8,0.0625,-35.0,-1,1.0,0.13189999999985957
716,2,0.8,1.0,-35.0,-1,1.0,0.24870099999998274
717,2,0.8,0.25,35.0,1,1.0,0.3488999999999578
718,2,0.8,0.25,35.0,1,1.0,0.3922000000002299
719,2,0.8,0.25,-35.0,-1,1.0,0.2719010000000708
720,2,0.8,0.25,35.0,1,1.0,0.29559999999992215
721,2,0.8,0.125,-35.0,-1,1.0,0.16200000000026193
722,2,0.8,1.0,-35.0,-1,1.0,0.17880000000013752
723,2,0.8,1.0,35.0,1,1.0,0.4861000000005333
724,2,0.8,0.125,-35.0,-1,1.0,0.24610000000029686
725,2,0.8,0.0625,-35.0,-1,1.0,0.17579999999998108
726,2,0.8,1.0,-35.0,-1,1.0,0.18269999999984066
727,2,0.8,0.0,-35.0,-1,1.0,7.639099999999871
728,2,0.8,1.0,-35.0,-1,1.0,0.18600000000014916
729,2,0.8,0.125,-35.0,-1,1.0,0.29280000000017026
730,2,0.8,0.125,-35.0,-1,1.0,0.18280000000004293
731,2,0.8,0.25,-35.0,-1,1.0,0.16990100000020902
732,2,0.8,0.0625,-35.0,-1,1.0,0.3162000000002081
733,2,0.8,0.0625,-35.0,-1,1.0,0.11659999999983484
734,2,0.8,0.125,-35.0,-1,1.0,0.22640000000001237
735,2,0.8,1.0,-35.0,-1,1.0,0.16679999999996653
736,2,0.8,0.25,-35.0,-1,1.0,0.23350100000016027
737,2,0.8,0.0625,-35.0,-1,1.0,0.22630000000026484
738,2,0.8,0.125,35.0,-1,0.0,0.02650000000039654
739,2,0.8,0.125,-35.0,-1,1.0,0.23340000000052896
740,2,0.8,0.125,35.0,1,1.0,0.2800000000002001
741,2,0.8,0.0625,35.0,-1,0.0,0.14010000000007494
742,2,0.8,0.125,35.0,1,1.0,0.4072000000001026
743,2,0.8,0.0,-35.0,-1,1.0,0.26359999999976935
744,2,0.8,0.0625,-35.0,-1,1.0,0.22679999999991196
745,2,0.8,1.0,-35.0,-1,1.0,0.1971000000003187
746,2,0.8,0.125,-35.0,-1,1.0,0.35760000000027503
747,2,0.2,0.0,35.0,-1,0.0,7.0405000000000655
748,2,0.2,0.125,35.0,1,1.0,0.5306000000000495
749,2,0.2,0.25,35.0,1,1.0,0.5873999999998887
750,2,0.2,1.0,35.0,1,1.0,0.2541000000001077
751,2,0.2,0.25,35.0,1,1.0,0.48440000000027794
752,2,0.2,0.125,-35.0,-1,1.0,0.8611999999998261
753,2,0.2,0.0625,35.0,1,1.0,0.28090000000020154
754,2,0.2,0.125,35.0,1,1.0,0.2343999999998232
755,2,0.2,0.0625,35.0,1,1.0,0.3012000000003354
756,2,0.2,0.25,35.0,1,1.0,0.2711999999996806
757,2,0.2,1.0,35.0,1,1.0,0.39789999999993597
758,2,0.2,0.0625,35.0,1,1.0,0.3584000000000742
759,2,0.2,1.0,35.0,1,1.0,0.2782999999999447
760,2,0.2,0.25,35.0,1,1.0,0.3880999999996675
761,2,0.2,1.0,-35.0,-1,1.0,0.23149999999986903
762,2,0.2,1.0,35.0,1,1.0,0.31160099999988233
763,2,0.2,0.125,35.0,1,1.0,0.3480010000002949
764,2,0.2,0.0,35.0,-1,0.0,0.301600000000235
765,2,0.2,0.125,35.0,1,1.0,0.28150000000005093
766,2,0.2,0.125,35.0,1,1.0,0.2614999999996144
767,2,0.2,0.125,35.0,1,1.0,0.47170100000039383
768,2,0.2,0.0625,35.0,1,1.0,0.28490000000010696
769,2,0.2,0.0,35.0,-1,0.0,0.15859999999975116
770,2,0.2,0.0625,35.0,-1,0.0,0.1817999999998392
771,2,0.2,1.0,35.0,1,1.0,0.4550010000002658
772,2,0.2,0.0,35.0,1,1.0,0.5119009999998525
773,2,0.2,0.25,35.0,1,1.0,2.7085000000001855
774,2,0.2,0.125,-35.0,-1,1.0,0.5955010000002403
775,2,0.2,0.25,35.0,1,1.0,0.309099999999944
776,2,0.2,1.0,-35.0,-1,1.0,0.21920000000045547
777,2,0.2,1.0,35.0,1,1.0,0.27930000000014843
778,2,0.2,0.0625,35.0,1,1.0,0.4596010000000206
779,2,0.2,0.0,35.0,1,1.0,0.23900000000003274
780,2,0.2,0.125,-35.0,-1,1.0,0.2579009999999471
781,2,0.2,0.0625,35.0,1,1.0,0.4279999999998836
782,2,0.2,1.0,35.0,1,1.0,0.2680000000000291
783,2,0.2,0.125,35.0,1,1.0,0.32140099999969607
784,2,0.2,0.0625,35.0,-1,0.0,3.9583000000002357
785,2,0.2,0.25,35.0,1,1.0,0.3816999999999098
786,2,0.2,0.25,35.0,1,1.0,0.38500100000010207
787,2,0.2,1.0,35.0,1,1.0,0.3217010000003029
788,2,0.2,0.0625,35.0,1,1.0,0.7985999999996238
789,2,0.2,0.125,35.0,1,1.0,0.24850000000014916
790,2,0.2,0.0625,35.0,1,1.0,0.6254000000003543
791,2,0.2,0.25,35.0,1,1.0,0.40860000000066066
792,2,0.2,0.0,35.0,1,1.0,6.208700000000135
793,2,0.2,0.0625,-35.0,-1,1.0,12.685500000000502
794,2,0.2,0.125,-35.0,-1,1.0,7.612500000000182
795,2,0.2,0.25,-35.0,-1,1.0,0.6260999999999513
796,2,0.2,0.0625,35.0,-1,0.0,0.21950100000003658
797,2,0.8,0.0625,-35.0,-1,1.0,5.732800000000225
798,2,0.8,1.0,-35.0,-1,1.0,0.2829999999999018
799,2,0.8,0.25,-35.0,-1,1.0,0.5563999999999396
800,2,0.8,1.0,-35.0,-1,1.0,0.3029999999998836
801,2,0.8,1.0,-35.0,-1,1.0,0.2863999999999578
802,2,0.8,0.25,-35.0,-1,1.0,0.25649999999950523
803,2,0.8,0.125,-35.0,-1,1.0,15.266500000000178
804,2,0.8,0.125,-35.0,-1,1.0,2.1770000000005894
805,2,0.8,0.25,-35.0,-1,1.0,0.30030000000033397
806,2,0.8,0.0625,35.0,-1,0.0,3.766900000000078
807,2,0.8,1.0,-35.0,-1,1.0,0.2172009999999318
808,2,0.8,0.125,-35.0,-1,1.0,5.817300000000159
809,2,0.8,0.125,-35.0,-1,1.0,0.34400000000005093
810,2,0.8,0.25,-35.0,-1,1.0,4.054000999999971
811,2,0.8,1.0,-35.0,-1,1.0,0.2175000000002001
812,2,0.8,0.125,-35.0,-1,1.0,0.2808999999997468
813,2,0.8,0.0625,35.0,-1,0.0,4.740900000000238
814,2,0.8,0.125,35.0,1,1.0,0.9877000000001317
815,2,0.8,0.0625,-35.0,-1,1.0,3.8812000000002627
816,2,0.8,0.25,-35.0,-1,1.0,0.29460100000005696
817,2,0.8,0.0625,-35.0,1,0.0,0.6080000000001746
818,2,0.8,0.25,35.0,1,1.0,0.7547000000004118
819,2,0.8,0.0,-35.0,-1,1.0,4.378099999999904
820,2,0.8,0.125,-35.0,-1,1.0,4.701500000000124
821,2,0.8,0.125,35.0,-1,0.0,5.481900000000223
822,2,0.8,1.0,-35.0,-1,1.0,0.21849999999994907
823,2,0.8,0.25,35.0,-1,0.0,2.3486009999996895
824,2,0.8,0.125,-35.0,-1,1.0,10.618700000000445
825,2,0.8,0.0,-35.0,-1,1.0,5.335700000000088
826,2,0.8,0.0,-35.0,-1,1.0,4.122401000000082
827,2,0.8,1.0,35.0,1,1.0,0.2892009999995935
828,2,0.8,0.0625,-35.0,-1,1.0,0.40599999999994907
829,2,0.8,1.0,-35.0,-1,1.0,0.23929999999973006
830,2,0.8,0.25,-35.0,-1,1.0,0.2294000000001688
831,2,0.8,1.0,-35.0,-1,1.0,0.21610000000009677
832,2,0.8,1.0,-35.0,-1,1.0,0.202900000000227
833,2,0.8,0.25,-35.0,-1,1.0,0.4828000000002248
834,2,0.8,1.0,-35.0,-1,1.0,0.2628999999997177
835,2,0.8,0.125,-35.0,-1,1.0,0.1995999999999185
836,2,0.8,0.125,-35.0,-1,1.0,0.3163009999998394
837,2,0.8,1.0,35.0,1,1.0,0.4463999999998123
838,2,0.8,0.25,-35.0,-1,1.0,0.23319999999966967
1,3,0.2,1.0,35.0,1,1.0,0.41559999999999997
2,3,0.2,0.0625,35.0,1,1.0,0.3248000000000011
3,3,0.2,0.0,-35.0,1,0.0,0.2405999999999997
4,3,0.2,0.0625,35.0,1,1.0,0.5495999999999999
5,3,0.2,0.0625,35.0,1,1.0,0.6250999999999998
6,3,0.2,1.0,35.0,1,1.0,0.2774000000000001
7,3,0.2,0.25,35.0,1,1.0,0.22329999999999828
8,3,0.2,0.25,35.0,1,1.0,0.2751000000000019
9,3,0.2,0.125,35.0,1,1.0,0.4707000000000008
10,3,0.2,0.0625,35.0,1,1.0,0.24229999999999663
11,3,0.2,1.0,35.0,1,1.0,0.2944010000000006
12,3,0.2,0.125,35.0,1,1.0,0.19410000000000593
13,3,0.2,0.125,35.0,1,1.0,0.44240000000000634
14,3,0.2,1.0,35.0,1,1.0,0.26149999999999807
15,3,0.2,0.125,-35.0,-1,1.0,0.3048000000000073
16,3,0.2,0.0,35.0,1,1.0,0.29120000000000346
17,3,0.2,0.0625,35.0,1,1.0,0.19880000000000564
18,3,0.2,0.25,35.0,1,1.0,0.34670000000000556
19,3,0.2,0.0625,35.0,-1,0.0,0.23960000000000292
20,3,0.2,0.125,35.0,1,1.0,1.854600000000005
21,3,0.2,0.25,35.0,1,1.0,0.3704000000000036
22,3,0.2,0.0625,35.0,-1,0.0,2.576600000000006
23,3,0.2,0.125,35.0,1,1.0,0.3965999999999923
24,3,0.2,0.25,35.0,1,1.0,0.3371999999999957
25,3,0.2,0.25,35.0,1,1.0,0.31169999999998765
26,3,0.2,0.125,-35.0,-1,1.0,0.2861999999999796
27,3,0.2,0.125,35.0,1,1.0,0.4188999999999936
28,3,0.2,0.25,35.0,1,1.0,0.3755999999999915
29,3,0.2,1.0,35.0,1,1.0,0.24630000000000507
30,3,0.2,0.25,35.0,1,1.0,0.44140000000000157
31,3,0.2,0.25,35.0,1,1.0,0.3120010000000093
32,3,0.2,0.25,-35.0,-1,1.0,0.3067999999999955
33,3,0.2,1.0,35.0,1,1.0,0.06589999999999918
34,3,0.2,0.0625,35.0,-1,0.0,1.6922009999999972
35,3,0.2,0.125,35.0,1,1.0,0.6761010000000027
36,3,0.2,0.25,35.0,1,1.0,0.1404009999999971
37,3,0.2,0.0,35.0,1,1.0,5.538499999999985
38,3,0.2,0.25,35.0,1,1.0,0.46689999999999543
39,3,0.2,1.0,35.0,1,1.0,0.2290999999999883
40,3,0.8,0.25,-35.0,-1,1.0,0.4573999999999927
41,3,0.8,0.25,-35.0,-1,1.0,0.29080100000000186
42,3,0.8,0.0,-35.0,1,0.0,0.5614999999999952
43,3,0.8,0.125,-35.0,-1,1.0,0.2915000000000134
44,3,0.8,1.0,35.0,1,1.0,0.44710000000003447
45,3,0.8,0.0,-35.0,1,0.0,5.440299999999979
46,3,0.8,1.0,-35.0,-1,1.0,0.23750000000001137
47,3,0.8,0.0,-35.0,-1,1.0,5.013900000000007
48,3,0.8,0.0625,-35.0,-1,1.0,0.1858000000000004
49,3,0.8,0.125,-35.0,-1,1.0,0.18739999999999668
50,3,0.8,0.25,-35.0,-1,1.0,0.09880000000001132
51,3,0.8,1.0,-35.0,-1,1.0,0.13360000000000127
52,3,0.8,0.0,-35.0,-1,1.0,0.3307000000000073
53,3,0.8,0.25,-35.0,-1,1.0,0.2166000000000281
54,3,0.8,0.0625,-35.0,-1,1.0,0.8121000000000151
55,3,0.8,0.0,-35.0,1,0.0,9.372300999999993
56,3,0.8,0.0625,35.0,1,1.0,0.6080000000000325
57,3,0.8,1.0,-35.0,-1,1.0,0.0928000000000111
58,3,0.8,1.0,-35.0,-1,1.0,0.22730000000001382
59,3,0.8,0.0625,-35.0,-1,1.0,0.10690000000002442
60,3,0.8,0.125,-35.0,-1,1.0,0.480700000000013
61,3,0.8,0.25,-35.0,-1,1.0,0.20200100000002408
62,3,0.8,0.25,-35.0,-1,1.0,0.2265000000000157
63,3,0.8,1.0,35.0,1,1.0,0.4603000000000179
64,3,0.8,1.0,-35.0,-1,1.0,0.23440000000002215
65,3,0.8,0.125,-35.0,1,0.0,4.797200000000004
66,3,0.8,1.0,35.0,1,1.0,0.9039999999999964
67,3,0.8,0.0625,-35.0,-1,1.0,0.5316000000000258
68,3,0.8,0.125,-35.0,-1,1.0,0.6984010000000183
69,3,0.8,0.0,-35.0,-1,1.0,0.194500000000005
70,3,0.8,1.0,35.0,1,1.0,0.19760000000002265
71,3,0.8,0.25,-35.0,-1,1.0,0.29069999999998686
72,3,0.8,1.0,-35.0,-1,1.0,0.20959999999999468
73,3,0.8,0.25,-35.0,-1,1.0,0.8325000000000102
74,3,0.8,0.25,35.0,1,1.0,0.2680000000000291
75,3,0.8,0.25,35.0,1,1.0,0.4106000000000165
76,3,0.8,0.0625,-35.0,-1,1.0,0.6714999999999804
77,3,0.8,1.0,-35.0,-1,1.0,0.24089999999998213
78,3,0.8,0.25,-35.0,-1,1.0,0.2810000000000059
79,3,0.8,0.125,-35.0,-1,1.0,3.0072000000000116
80,3,0.8,1.0,-35.0,-1,1.0,0.295599999999979
81,3,0.8,0.25,-35.0,-1,1.0,0.640700000000038
82,3,0.8,0.0625,-35.0,-1,1.0,0.23640000000000327
83,3,0.8,1.0,-35.0,-1,1.0,0.46270000000004075
84,3,0.8,1.0,-35.0,-1,1.0,0.2188000000000443
85,3,0.8,0.25,-35.0,-1,1.0,0.2844000000000051
86,3,0.8,0.125,-35.0,-1,1.0,0.2948999999999842
87,3,0.8,0.125,35.0,1,1.0,0.28350000000000364
88,3,0.2,0.125,35.0,1,1.0,0.4073010000000181
89,3,0.2,0.25,-35.0,-1,1.0,0.4631010000000515
90,3,0.2,1.0,35.0,1,1.0,0.386099999999999
91,3,0.2,0.25,-35.0,-1,1.0,0.8172999999999888
92,3,0.2,0.0625,35.0,1,1.0,0.7370999999999981
93,3,0.2,0.125,35.0,1,1.0,0.6078009999999949
94,3,0.2,0.125,35.0,1,1.0,0.32220000000000937
95,3,0.2,0.0625,35.0,1,1.0,0.5303000000000111
96,3,0.2,0.25,35.0,1,1.0,0.4525000000000432
97,3,0.2,0.125,-35.0,-1,1.0,0.4304000000000201
98,3,0.2,0.125,35.0,1,1.0,0.43310000000002447
99,3,0.2,0.25,-35.0,-1,1.0,0.3042000000000371
100,3,0.2,0.0,35.0,1,1.0,5.678699999999992
101,3,0.2,0.0,35.0,1,1.0,0.452699999999993
102,3,0.2,0.0625,-35.0,1,0.0,5.923500000000047
103,3,0.2,0.0625,35.0,1,1.0,0.45040100000005623
104,3,0.2,0.25,35.0,1,1.0,0.9960000000000377
105,3,0.2,0.0,-35.0,1,0.0,0.5249009999999998
106,3,0.2,0.0,-35.0,1,0.0,0.7510000000000332
107,3,0.2,0.25,35.0,1,1.0,0.5086999999999762
108,3,0.2,1.0,35.0,1,1.0,0.4482999999999606
109,3,0.2,0.25,35.0,1,1.0,0.4188010000000304
110,3,0.2,0.25,35.0,1,1.0,0.3118000000000052
111,3,0.2,1.0,35.0,1,1.0,0.25410000000005084
112,3,0.2,0.0,35.0,1,1.0,0.6012999999999806
113,3,0.2,1.0,35.0,1,1.0,0.4671000000000163
114,3,0.2,0.0,35.0,-1,0.0,11.72180000000003
115,3,0.2,1.0,35.0,1,1.0,0.3281000000000063
116,3,0.2,0.125,35.0,1,1.0,0.7671010000000251
117,3,0.2,0.25,35.0,1,1.0,0.5066999999999666
118,3,0.2,0.125,35.0,1,1.0,0.4100999999999999
119,3,0.2,0.0,35.0,-1,0.0,0.5679000000000087
120,3,0.2,0.125,35.0,1,1.0,0.2644000000000233
121,3,0.2,0.0625,-35.0,-1,1.0,0.49029999999999063
122,3,0.2,0.0625,35.0,-1,0.0,0.4346999999999639
123,3,0.2,0.0,-35.0,-1,1.0,0.8757999999999697
124,3,0.2,0.125,-35.0,-1,1.0,0.2248000000000161
125,3,0.2,0.0,35.0,-1,0.0,0.49720000000002074
126,3,0.2,1.0,35.0,1,1.0,0.44050000000004275
127,3,0.2,0.0625,-35.0,-1,1.0,0.4245009999999638
128,3,0.2,0.25,35.0,1,1.0,0.25099999999997635
129,3,0.2,0.25,35.0,1,1.0,0.5328000000000088
130,3,0.2,0.125,35.0,1,1.0,0.43280000000004293
131,3,0.2,1.0,-35.0,-1,1.0,0.24380000000002156
132,3,0.2,0.0,35.0,-1,0.0,17.9178
133,3,0.2,0.0,35.0,-1,0.0,0.2995999999999981
134,3,0.2,0.25,35.0,1,1.0,0.2468000000000643
135,3,0.2,0.0625,35.0,1,1.0,0.5325999999999453
136,3,0.2,0.0625,35.0,1,1.0,0.3993000000000393
137,3,0.2,0.0,-35.0,1,0.0,0.6552009999999768
138,3,0.2,0.25,-35.0,-1,1.0,0.23270000000002256
139,3,0.2,0.25,35.0,1,1.0,0.40540000000004284
140,3,0.2,0.25,35.0,1,1.0,0.6149000000000342
141,3,0.2,0.0,-35.0,-1,1.0,8.18309999999991
142,3,0.2,0.25,-35.0,-1,1.0,0.3267999999999347
143,3,0.2,1.0,35.0,1,1.0,0.29470099999991817
144,3,0.2,0.25,35.0,1,1.0,0.3641010000000051
145,3,0.2,0.0625,-35.0,-1,1.0,0.3325999999999567
146,3,0.8,1.0,-35.0,-1,1.0,0.5176999999999907
147,3,0.8,1.0,-35.0,-1,1.0,0.45489999999995234
148,3,0.8,0.25,-35.0,-1,1.0,0.5430999999998676
149,3,0.8,0.0625,-35.0,-1,1.0,0.3009999999999309
150,3,0.8,0.0625,-35.0,-1,1.0,0.5680999999999585
151,3,0.8,0.125,-35.0,-1,1.0,0.2767999999999802
152,3,0.8,0.0625,-35.0,-1,1.0,0.27500000000009095
153,3,0.8,0.25,-35.0,-1,1.0,0.2414009999999962
154,3,0.8,0.25,-35.0,-1,1.0,0.5653009999999767
155,3,0.8,0.0625,-35.0,-1,1.0,0.39010000000007494
156,3,0.8,0.25,-35.0,-1,1.0,0.6039000000000669
157,3,0.8,0.0625,-35.0,-1,1.0,0.9059999999999491
158,3,0.8,1.0,-35.0,-1,1.0,0.27630099999998947
159,3,0.8,0.0,35.0,-1,0.0,0.2801999999999225
160,3,0.8,0.0625,-35.0,1,0.0,1.0703999999999496
161,3,0.8,0.0625,-35.0,-1,1.0,0.6640009999999847
162,3,0.8,1.0,-35.0,-1,1.0,0.4051000000000613
163,3,0.8,0.0,35.0,-1,0.0,0.4632000000000289
164,3,0.8,0.125,-35.0,-1,1.0,0.29470099999991817
165,3,0.8,1.0,-35.0,-1,1.0,0.18819999999993797
166,3,0.8,0.25,-35.0,1,0.0,0.42869999999993524
167,3,0.8,1.0,35.0,1,1.0,0.7138999999999669
168,3,0.2,1.0,35.0,1,1.0,0.26909999999998035
169,3,0.2,0.0625,-35.0,-1,1.0,0.4957999999999174
170,3,0.2,0.25,35.0,1,1.0,0.4096999999999298
171,3,0.2,0.25,35.0,1,1.0,0.41430000000002565
172,3,0.2,0.25,-35.0,-1,1.0,0.27080000000000837
173,3,0.2,0.0625,35.0,1,1.0,0.5905999999999949
174,3,0.2,0.25,35.0,1,1.0,0.8479999999999563
175,3,0.2,1.0,35.0,1,1.0,0.27169999999989614
176,3,0.2,1.0,35.0,1,1.0,0.5608999999999469
177,3,0.2,1.0,35.0,1,1.0,0.39150099999994836
178,3,0.2,0.25,35.0,1,1.0,0.5439999999999827
179,3,0.2,0.25,35.0,1,1.0,0.4906999999998334
180,3,0.2,0.0,-35.0,1,0.0,0.7188999999999623
181,3,0.2,0.25,35.0,1,1.0,0.33930000000009386
182,3,0.2,0.0,35.0,1,1.0,2.706399999999917
183,3,0.2,0.125,35.0,1,1.0,0.5613999999999351
184,3,0.2,1.0,35.0,1,1.0,0.4577999999997928
185,3,0.2,0.25,-35.0,-1,1.0,0.26689999999996417
186,3,0.2,0.25,35.0,1,1.0,0.4775999999999385
187,3,0.2,0.0625,35.0,1,1.0,7.26809999999989
188,3,0.2,0.0,35.0,-1,0.0,0.20590099999992617
189,3,0.2,0.125,35.0,1,1.0,0.8011000000000195
190,3,0.2,0.0625,35.0,1,1.0,0.642699999999877
191,3,0.2,0.125,35.0,1,1.0,0.4580999999999449
192,3,0.2,1.0,35.0,1,1.0,0.6775000000000091
193,3,0.2,0.125,35.0,1,1.0,0.782100000000014
194,3,0.2,1.0,-35.0,-1,1.0,0.260599999999954
195,3,0.8,0.125,-35.0,-1,1.0,0.3815999999999349
196,3,0.8,0.0625,-35.0,-1,1.0,0.3870999999999185
197,3,0.8,0.25,-35.0,-1,1.0,0.25899999999990087
198,3,0.8,0.0625,35.0,-1,0.0,0.2635010000000193
199,3,0.8,0.125,-35.0,-1,1.0,0.2495009999998956
200,3,0.8,0.25,-35.0,-1,1.0,0.23649999999986449
201,3,0.8,0.125,-35.0,-1,1.0,0.24469999999985248
202,3,0.8,0.0625,-35.0,-1,1.0,0.25699999999983447
203,3,0.8,0.25,-35.0,-1,1.0,0.25769999999988613
204,3,0.8,0.25,-35.0,-1,1.0,0.5600999999998066
205,3,0.8,0.0625,-35.0,-1,1.0,0.3044999999999618
206,3,0.8,0.25,35.0,1,1.0,0.2742000000000644
207,3,0.8,0.25,-35.0,-1,1.0,0.21739999999999782
208,3,0.8,0.0,-35.0,1,0.0,2.662001000000032
209,3,0.8,0.0625,-35.0,-1,1.0,0.24620099999992817
210,3,0.8,0.0,-35.0,-1,1.0,0.5768000000000484
211,3,0.8,1.0,-35.0,-1,1.0,0.30579999999986285
212,3,0.8,0.25,35.0,1,1.0,0.28300000000001546
213,3,0.8,0.25,-35.0,-1,1.0,0.18800099999998565
214,3,0.8,0.25,-35.0,-1,1.0,0.2196999999999889
215,3,0.8,0.125,-35.0,-1,1.0,0.4375009999998838
216,3,0.8,1.0,-35.0,-1,1.0,0.22259999999994307
217,3,0.8,1.0,-35.0,-1,1.0,0.2748999999998887
218,3,0.8,0.125,-35.0,-1,1.0,0.6277000000000044
219,3,0.8,0.125,-35.0,-1,1.0,0.18580000000008567
220,3,0.8,1.0,35.0,1,1.0,0.29949999999996635
221,3,0.8,1.0,-35.0,-1,1.0,0.2295010000000275
222,3,0.8,0.0,-35.0,-1,1.0,3.4431999999999334
223,3,0.8,0.25,-35.0,-1,1.0,0.45240000000001146
224,3,0.8,1.0,35.0,1,1.0,0.30989999999997053
225,3,0.8,0.125,-35.0,-1,1.0,0.1749009999999771
226,3,0.8,0.0625,-35.0,-1,1.0,0.5461999999999989
227,3,0.8,0.25,35.0,1,1.0,0.9992999999999483
228,3,0.8,0.0625,35.0,1,1.0,0.47040000000004056
229,3,0.8,0.0,-35.0,1,0.0,5.449499999999944
230,3,0.8,0.125,-35.0,-1,1.0,0.14320099999997637
231,3,0.8,0.25,-35.0,-1,1.0,0.2076999999999316
232,3,0.8,0.25,-35.0,-1,1.0,0.5267000000000053
233,3,0.8,1.0,-35.0,-1,1.0,0.1751000000000431
234,3,0.8,0.125,-35.0,-1,1.0,0.2825999999998885
235,3,0.8,0.125,-35.0,-1,1.0,0.3272999999999229
236,3,0.8,1.0,-35.0,-1,1.0,0.28529999999989286
237,3,0.8,0.0625,-35.0,-1,1.0,0.26959999999996853
238,3,0.8,0.25,-35.0,-1,1.0,0.23749999999995453
239,3,0.8,0.0625,-35.0,-1,1.0,0.24680000000000746
240,3,0.8,0.0,-35.0,-1,1.0,0.1894999999999527
241,3,0.8,1.0,-35.0,-1,1.0,0.3108999999999469
242,3,0.8,1.0,-35.0,-1,1.0,0.29730000000006385
243,3,0.8,1.0,-35.0,-1,1.0,0.15579999999999927
244,3,0.8,0.125,35.0,1,1.0,0.2998999999999796
245,3,0.8,0.0625,-35.0,-1,1.0,0.1491999999999507
246,3,0.8,1.0,-35.0,-1,1.0,0.29109999999991487
247,3,0.8,0.0,35.0,-1,0.0,0.28369999999995343
248,3,0.8,0.0,-35.0,-1,1.0,0.7051000000000158
249,3,0.8,0.125,-35.0,-1,1.0,0.2819999999999254
250,3,0.8,0.0,-35.0,-1,1.0,0.1674999999999045
251,3,0.8,0.125,-35.0,-1,1.0,0.18200000000001637
252,3,0.8,1.0,-35.0,-1,1.0,0.1936999999999216
253,3,0.8,0.125,-35.0,-1,1.0,0.16360099999985778
254,3,0.8,1.0,-35.0,-1,1.0,0.19000000000005457
255,3,0.8,1.0,-35.0,-1,1.0,0.17009999999993397
256,3,0.8,0.25,-35.0,-1,1.0,0.1070999999999458
257,3,0.8,0.125,-35.0,-1,1.0,0.18989999999996598
258,3,0.8,1.0,35.0,1,1.0,0.8013999999999442
259,3,0.8,0.25,35.0,1,1.0,0.278299999999831
260,3,0.8,0.25,-35.0,-1,1.0,0.24250099999994745
261,3,0.8,0.125,-35.0,-1,1.0,0.11049999999988813
262,3,0.8,0.125,-35.0,-1,1.0,0.3631999999998925
263,3,0.8,0.0625,-35.0,-1,1.0,0.4698999999999387
264,3,0.8,1.0,-35.0,-1,1.0,0.2239999999999327
265,3,0.8,0.0,-35.0,-1,1.0,0.5167999999999893
266,3,0.8,0.25,-35.0,-1,1.0,0.6275009999999384
267,3,0.8,0.25,35.0,1,1.0,0.44180099999994127
268,3,0.8,1.0,-35.0,-1,1.0,0.24650099999996655
269,3,0.8,0.125,-35.0,-1,1.0,0.3129999999999882
270,3,0.8,0.25,-35.0,-1,1.0,0.24070000000006075
271,3,0.8,0.125,35.0,1,1.0,0.25709999999992306
272,3,0.8,0.125,-35.0,-1,1.0,0.205600000000004
273,3,0.8,0.25,-35.0,-1,1.0,0.5646010000000388
274,3,0.8,0.0,-35.0,-1,1.0,0.6485999999999876
275,3,0.8,0.0,35.0,-1,0.0,0.6453000000000202
276,3,0.8,0.125,35.0,1,1.0,0.8074999999998909
277,3,0.2,0.0,35.0,1,1.0,0.4338999999998805
278,3,0.2,0.0,35.0,-1,0.0,6.112899999999968
279,3,0.2,1.0,35.0,1,1.0,0.49279999999998836
280,3,0.2,1.0,35.0,1,1.0,0.9040999999999713
281,3,0.2,0.0625,35.0,1,1.0,0.5372999999999593
282,3,0.2,1.0,-35.0,-1,1.0,0.19059999999990396
283,3,0.2,0.125,35.0,1,1.0,0.31370000000003984
284,3,0.2,1.0,35.0,1,1.0,0.37819999999987886
285,3,0.2,0.25,-35.0,-1,1.0,0.30609999999990123
286,3,0.2,0.0625,-35.0,1,0.0,0.41809999999998126
287,3,0.2,1.0,35.0,1,1.0,0.25699999999994816
288,3,0.2,0.0,35.0,1,1.0,0.44470000000001164
289,3,0.2,1.0,35.0,1,1.0,0.37130099999990307
290,3,0.2,0.0625,35.0,1,1.0,0.8514000000000124
291,3,0.2,0.25,35.0,1,1.0,0.5181999999999789
292,3,0.2,0.25,35.0,1,1.0,0.48500099999989743
293,3,0.2,1.0,35.0,1,1.0,0.5249999999999773
294,3,0.2,0.25,-35.0,-1,1.0,0.44840099999987615
295,3,0.2,0.0625,35.0,1,1.0,0.7785000000001219
296,3,0.2,0.0,35.0,1,1.0,4.158500000000231
297,3,0.2,0.125,35.0,1,1.0,1.0819010000000162
298,3,0.2,0.0,35.0,-1,0.0,0.9020009999999274
299,3,0.2,1.0,35.0,1,1.0,0.838799999999992
300,3,0.2,0.125,35.0,1,1.0,0.49890000000004875
301,3,0.2,0.0625,35.0,1,1.0,3.118900000000167
302,3,0.2,0.0,-35.0,1,0.0,0.26230000000032305
303,3,0.2,0.0625,35.0,1,1.0,0.7724010000001726
304,3,0.2,0.0625,35.0,1,1.0,0.5624000000000251
305,3,0.2,0.125,35.0,1,1.0,0.6592000000000553
306,3,0.2,0.0,35.0,1,1.0,0.585901000000149
307,3,0.2,0.125,-35.0,-1,1.0,0.2860000000000582
308,3,0.2,0.25,35.0,1,1.0,0.2994000000003325
309,3,0.2,0.125,35.0,1,1.0,0.7729000000001633
310,3,0.2,0.0,-35.0,-1,1.0,0.4695000000001528
311,3,0.2,0.0,-35.0,-1,1.0,0.7396009999999933
312,3,0.2,0.0625,35.0,1,1.0,0.2329010000000835
313,3,0.2,1.0,-35.0,-1,1.0,0.23300000000017462
314,3,0.2,0.125,-35.0,-1,1.0,0.26310000000012224
315,3,0.2,0.125,35.0,1,1.0,0.39020000000004984
316,3,0.2,0.0,35.0,-1,0.0,0.22670000000016444
317,3,0.2,0.125,35.0,1,1.0,0.4733000000001084
318,3,0.2,0.0625,-35.0,-1,1.0,0.6901000000000295
319,3,0.2,0.125,35.0,1,1.0,0.3102000000001226
320,3,0.2,0.125,35.0,1,1.0,0.34680000000025757
321,3,0.2,0.0625,-35.0,-1,1.0,0.2936000000001968
322,3,0.2,0.0625,35.0,1,1.0,0.7569999999998345
323,3,0.2,1.0,35.0,1,1.0,0.5804000000000542
324,3,0.2,1.0,35.0,1,1.0,0.3772000000001299
325,3,0.2,0.0625,-35.0,-1,1.0,0.3505000000000109
326,3,0.2,0.125,35.0,1,1.0,0.5104999999998654
327,3,0.2,0.125,35.0,1,1.0,0.5805000000000291
328,3,0.2,0.25,35.0,1,1.0,0.8273999999998978
329,3,0.2,1.0,35.0,1,1.0,0.2541009999999915
330,3,0.2,0.25,35.0,1,1.0,0.6609010000001945
331,3,0.2,1.0,35.0,1,1.0,0.8309000000001561
332,3,0.2,0.25,-35.0,-1,1.0,0.23769999999990432
333,3,0.2,0.25,35.0,1,1.0,0.6478000000001884
334,3,0.2,0.25,35.0,1,1.0,0.297800000000052
335,3,0.2,1.0,-35.0,-1,1.0,0.2278000000001157
336,3,0.2,1.0,35.0,1,1.0,0.27140000000008513
337,3,0.2,1.0,35.0,1,1.0,1.1914000000001579
338,3,0.2,0.125,-35.0,-1,1.0,0.25489999999990687
339,3,0.2,1.0,35.0,1,1.0,0.3284000000001015
340,3,0.2,0.125,35.0,1,1.0,1.6750010000000657
341,3,0.8,0.25,-35.0,-1,1.0,0.608400999999958
342,3,0.8,0.0625,35.0,-1,0.0,0.3118010000000595
343,3,0.8,1.0,-35.0,-1,1.0,0.2785999999998694
344,3,0.8,0.0,-35.0,-1,1.0,0.4553000000000793
345,3,0.8,0.0625,-35.0,-1,1.0,0.5820000000001073
346,3,0.8,0.25,35.0,1,1.0,0.45210000000020045
347,3,0.8,0.0625,-35.0,-1,1.0,0.39220000000000255
348,3,0.8,0.25,-35.0,-1,1.0,0.2989000000000033
349,3,0.8,0.0,-35.0,-1,1.0,0.36560000000008586
350,3,0.8,0.125,-35.0,1,0.0,1.585700000000088
351,3,0.8,1.0,-35.0,-1,1.0,0.2090000000002874
352,3,0.8,0.125,-35.0,-1,1.0,0.3458000000002812
353,3,0.8,0.0625,35.0,1,1.0,0.32930000000033033
354,3,0.8,0.0,-35.0,-1,1.0,0.31930099999999584
355,3,0.8,0.25,-35.0,-1,1.0,0.5793009999999867
356,3,0.8,0.125,-35.0,-1,1.0,0.3527000000001408
357,3,0.8,0.25,-35.0,-1,1.0,0.54950000000008
358,3,0.8,1.0,-35.0,-1,1.0,0.19290000000000873
359,3,0.8,0.0625,-35.0,-1,1.0,0.2396000000001095
