trial_num,session_num,stim_probability_left,contrast,position,response_choice,trial_correct,reaction_time
1,11,0.5,0.0,35.0,-1,0.0,1.1028000000000002
2,11,0.5,0.125,-35.0,-1,1.0,0.5232000000000001
3,11,0.5,1.0,35.0,1,1.0,0.4186999999999994
4,11,0.5,1.0,-35.0,-1,1.0,0.22129999999999939
5,11,0.5,0.125,35.0,1,1.0,0.4181000000000026
6,11,0.5,0.25,35.0,1,1.0,0.2673989999999975
7,11,0.5,0.0,35.0,1,1.0,14.350698999999999
8,11,0.5,0.0,-35.0,1,0.0,0.48219999999999885
9,11,0.5,0.0625,-35.0,-1,1.0,0.6080990000000028
10,11,0.5,0.0625,-35.0,-1,1.0,7.129700000000007
11,11,0.5,0.125,-35.0,-1,1.0,0.6829000000000036
12,11,0.5,0.0625,-35.0,-1,1.0,0.7073999999999998
13,11,0.5,0.25,35.0,1,1.0,0.3475999999999999
14,11,0.5,0.0,35.0,1,1.0,5.988298999999998
15,11,0.5,0.25,-35.0,-1,1.0,0.5137999999999892
16,11,0.5,0.0625,35.0,-1,0.0,0.6919989999999956
17,11,0.5,0.0,-35.0,1,0.0,0.5120989999999921
18,11,0.5,0.25,35.0,1,1.0,1.7103999999999928
19,11,0.5,0.125,35.0,1,1.0,0.4468989999999877
20,11,0.5,0.25,-35.0,-1,1.0,0.2511989999999855
21,11,0.5,1.0,-35.0,-1,1.0,0.29159899999999084
22,11,0.5,0.0625,-35.0,-1,1.0,0.458399
23,11,0.5,0.25,35.0,1,1.0,0.4625989999999973
24,11,0.5,1.0,35.0,1,1.0,0.24239899999999182
25,11,0.5,0.125,-35.0,-1,1.0,0.32039999999999225
26,11,0.5,0.0,35.0,-1,0.0,0.6795989999999819
27,11,0.5,0.0,35.0,-1,0.0,0.30109999999999104
28,11,0.5,0.125,35.0,1,1.0,0.34259899999999277
29,11,0.5,0.0625,-35.0,-1,1.0,0.5706990000000047
30,11,0.5,0.0625,35.0,1,1.0,0.29980000000000473
31,11,0.5,0.125,35.0,1,1.0,0.49909900000000107
32,11,0.5,0.0625,-35.0,-1,1.0,0.5762999999999892
33,11,0.5,0.0625,35.0,1,1.0,0.12829999999999586
34,11,0.5,1.0,35.0,1,1.0,0.3079000000000178
35,11,0.5,1.0,-35.0,-1,1.0,0.2877989999999784
36,11,0.5,0.125,-35.0,-1,1.0,0.4663999999999646
37,11,0.5,1.0,35.0,1,1.0,0.30799900000002367
38,11,0.5,1.0,-35.0,-1,1.0,0.24529999999995766
39,11,0.5,0.125,-35.0,-1,1.0,0.29449900000000184
40,11,0.5,0.25,-35.0,-1,1.0,0.32119999999997617
41,11,0.5,0.0625,-35.0,1,0.0,4.569198999999998
42,11,0.4,0.0625,35.0,1,1.0,0.43420000000000414
43,11,0.5,1.0,-35.0,-1,1.0,0.20249999999998636
44,11,0.5,0.125,35.0,1,1.0,0.29169999999999163
45,11,0.5,0.0,35.0,1,1.0,8.111898999999994
46,11,0.5,0.125,35.0,1,1.0,0.05759900000001039
47,11,0.5,0.125,35.0,1,1.0,0.31159900000000107
48,11,0.5,0.25,35.0,1,1.0,0.22210000000001173
49,11,0.5,0.125,35.0,1,1.0,0.3823989999999924
50,11,0.5,1.0,-35.0,-1,1.0,0.2651989999999955
51,11,0.5,0.25,35.0,1,1.0,0.2807990000000018
52,11,0.5,0.25,35.0,1,1.0,0.3428989999999885
53,11,0.5,1.0,35.0,1,1.0,0.2790990000000022
54,11,0.5,0.25,35.0,1,1.0,0.31049999999999045
55,11,0.5,0.25,35.0,1,1.0,0.3502989999999784
56,11,0.5,0.0,35.0,-1,0.0,0.38679899999999634
57,11,0.5,0.25,-35.0,-1,1.0,0.2182990000000018
58,11,0.5,0.125,-35.0,-1,1.0,0.2938999999999794
59,11,0.5,1.0,-35.0,-1,1.0,0.27710000000001855
60,11,0.5,0.0625,35.0,1,1.0,0.3818990000000042
61,11,0.5,0.125,35.0,1,1.0,0.3169990000000098
62,11,0.5,0.0625,35.0,1,1.0,1.1593989999999792
63,11,0.5,0.25,35.0,1,1.0,0.29239999999998645
64,11,0.5,1.0,35.0,1,1.0,0.3189999999999884
65,11,0.5,0.25,35.0,1,1.0,0.4078000000000088
66,11,0.5,0.0625,35.0,1,1.0,1.351399999999984
67,11,0.5,1.0,-35.0,-1,1.0,0.26539999999999964
68,11,0.5,0.125,35.0,1,1.0,0.44290000000000873
69,11,0.5,0.0,35.0,1,1.0,0.3317989999999895
70,11,0.5,0.0625,-35.0,-1,1.0,0.5353000000000065
71,11,0.5,0.0625,-35.0,1,0.0,0.24279999999998836
72,11,0.5,0.25,35.0,1,1.0,0.5427999999999713
73,11,0.5,0.0625,-35.0,-1,1.0,2.9488990000000115
74,11,0.5,1.0,-35.0,-1,1.0,0.1901990000000069
75,11,0.5,0.125,35.0,-1,0.0,0.20919900000001235
76,11,0.5,0.0,-35.0,1,0.0,0.3198990000000208
77,11,0.5,0.0,-35.0,-1,1.0,0.6229000000000156
78,11,0.5,0.0625,35.0,1,1.0,0.26089999999999236
79,11,0.5,0.125,-35.0,-1,1.0,0.21229900000003
80,11,0.5,0.0625,35.0,1,1.0,0.3194000000000301
81,11,0.5,0.125,35.0,1,1.0,0.3009000000000128
82,11,0.5,0.0625,35.0,1,1.0,0.2370000000000232
83,11,0.5,0.125,-35.0,-1,1.0,0.31019999999995207
84,11,0.5,1.0,35.0,1,1.0,0.19759900000002517
85,11,0.5,0.125,-35.0,1,0.0,0.6954989999999839
86,11,0.5,0.0625,35.0,1,1.0,0.32699900000005755
87,11,0.5,1.0,-35.0,-1,1.0,0.21520000000003847
88,11,0.5,0.0,35.0,1,1.0,0.29560000000003583
89,11,0.5,0.0625,35.0,1,1.0,0.3439989999999966
90,11,0.5,0.25,-35.0,-1,1.0,0.3222989999999868
91,11,0.5,0.25,-35.0,-1,1.0,0.4767999999999688
92,11,0.5,0.125,-35.0,-1,1.0,0.2685999999999922
93,11,0.5,0.125,35.0,1,1.0,0.20849900000001753
94,11,0.5,0.0625,-35.0,-1,1.0,0.5379990000000134
95,11,0.5,0.25,35.0,1,1.0,0.26269900000005464
96,11,0.5,0.125,-35.0,-1,1.0,0.3018000000000143
97,11,0.5,0.0625,35.0,1,1.0,0.26730000000009113
98,11,0.5,0.0625,35.0,1,1.0,0.2644999999999982
99,11,0.5,0.0625,-35.0,1,0.0,0.3794990000000098
100,11,0.5,0.0625,-35.0,1,0.0,2.5887989999999945
101,11,0.6,0.0625,35.0,1,1.0,2.358299000000045
102,11,0.5,1.0,-35.0,-1,1.0,0.3120000000000118
103,11,0.5,0.0625,-35.0,1,0.0,3.0948000000000206
104,11,0.5,0.25,-35.0,-1,1.0,0.3163989999999899
105,11,0.5,0.0625,35.0,1,1.0,0.31569899999999507
106,11,0.5,0.25,-35.0,-1,1.0,0.2660990000000538
107,11,0.5,0.0625,-35.0,-1,1.0,0.42109999999996717
108,11,0.5,0.0625,-35.0,-1,1.0,0.36810000000002674
109,11,0.5,0.25,-35.0,-1,1.0,0.3113999999999919
110,11,0.5,1.0,35.0,1,1.0,0.2780990000000543
111,11,0.5,0.125,35.0,1,1.0,5.168998999999985
112,11,0.5,0.0625,35.0,-1,0.0,0.2784000000000333
113,11,0.5,0.25,-35.0,-1,1.0,0.23269900000002508
114,11,0.5,1.0,35.0,1,1.0,0.2869000000000028
115,11,0.5,0.125,-35.0,-1,1.0,0.32999900000004345
116,11,0.5,0.25,35.0,1,1.0,0.25779899999997724
117,11,0.5,1.0,35.0,1,1.0,0.24370000000004666
118,11,0.5,0.125,35.0,1,1.0,0.23359900000002654
119,11,0.5,0.0625,-35.0,-1,1.0,0.49429900000001226
120,11,0.5,0.0,35.0,1,1.0,0.8971000000000231
121,11,0.5,1.0,35.0,1,1.0,0.2728000000000179
122,11,0.5,0.125,-35.0,-1,1.0,0.24869999999998527
123,11,0.5,1.0,-35.0,-1,1.0,0.24409900000000562
124,11,0.5,0.125,35.0,1,1.0,0.2781990000000292
125,11,0.5,0.25,-35.0,-1,1.0,0.20699999999999363
126,11,0.5,0.125,-35.0,-1,1.0,0.27529900000001817
127,11,0.5,0.0,35.0,-1,0.0,0.3686990000000492
128,11,0.4,0.0,-35.0,-1,1.0,0.6947990000000459
129,11,0.5,1.0,35.0,1,1.0,0.2092990000000441
130,11,0.5,0.25,35.0,1,1.0,0.24799999999999045
131,11,0.5,1.0,-35.0,1,0.0,0.1705000000000041
132,11,0.4,1.0,-35.0,-1,1.0,0.24669900000003508
133,11,0.5,1.0,-35.0,-1,1.0,0.19020000000000437
134,11,0.5,0.25,-35.0,-1,1.0,0.24889900000005127
135,11,0.5,1.0,-35.0,-1,1.0,0.24410000000005994
136,11,0.5,1.0,35.0,1,1.0,0.23830000000003793
137,11,0.5,0.25,-35.0,-1,1.0,0.2375989999999888
138,11,0.5,0.25,-35.0,-1,1.0,0.43309899999997015
139,11,0.5,0.25,35.0,1,1.0,0.1983000000000743
140,11,0.5,0.0625,-35.0,-1,1.0,2.432499000000007
141,11,0.5,0.25,-35.0,-1,1.0,0.30309999999997217
142,11,0.5,0.25,-35.0,-1,1.0,0.29179900000008274
143,11,0.5,1.0,35.0,1,1.0,0.25
144,11,0.5,0.125,35.0,1,1.0,0.3461000000000354
145,11,0.5,1.0,35.0,1,1.0,0.08670000000006439
146,11,0.5,0.25,-35.0,-1,1.0,0.40440000000000964
147,11,0.5,1.0,-35.0,-1,1.0,0.3134990000000357
148,11,0.5,0.0625,-35.0,-1,1.0,0.3009990000000471
149,11,0.5,0.125,35.0,1,1.0,0.3449990000000298
150,11,0.5,0.125,35.0,1,1.0,0.2630990000000679
151,11,0.5,0.25,35.0,1,1.0,0.24930000000000518
152,11,0.5,1.0,-35.0,-1,1.0,0.25929999999993925
153,11,0.5,1.0,35.0,1,1.0,0.22239900000010948
154,11,0.5,0.125,35.0,-1,0.0,0.08700000000010277
155,11,0.5,0.0625,35.0,1,1.0,0.4214990000000398
156,11,0.5,1.0,35.0,1,1.0,0.2675000000000409
157,11,0.5,0.0625,35.0,-1,0.0,0.38390000000003965
158,11,0.5,0.0625,-35.0,-1,1.0,0.3452990000000682
159,11,0.5,0.25,-35.0,-1,1.0,0.2862990000000991
160,11,0.5,0.25,-35.0,-1,1.0,0.21410000000003038
161,11,0.5,1.0,-35.0,-1,1.0,0.31150000000002365
162,11,0.5,0.0,35.0,1,1.0,0.2878000000000611
163,11,0.5,0.0,-35.0,-1,1.0,0.46719900000005055
164,11,0.5,0.0625,35.0,1,1.0,0.21500000000003183
165,11,0.5,0.25,-35.0,-1,1.0,0.15609999999992397
166,11,0.5,0.25,35.0,-1,0.0,0.16879900000014914
167,11,0.5,0.0625,-35.0,-1,1.0,0.3126989999999523
168,11,0.5,0.25,-35.0,-1,1.0,0.2054000000000542
169,11,0.5,1.0,-35.0,-1,1.0,0.2202990000000682
170,11,0.5,1.0,35.0,1,1.0,0.28139900000007856
171,11,0.5,0.125,-35.0,1,0.0,0.26999899999998433
172,11,0.4,0.125,-35.0,-1,1.0,0.3341000000000349
173,11,0.5,1.0,-35.0,-1,1.0,0.20619999999996708
174,11,0.5,0.125,-35.0,-1,1.0,0.23689899999999398
175,11,0.5,1.0,35.0,1,1.0,0.24940000000003693
176,11,0.5,0.0625,35.0,1,1.0,0.3126000000000886
177,11,0.5,1.0,-35.0,-1,1.0,0.33399900000006255
178,11,0.5,0.25,-35.0,-1,1.0,0.2359000000000151
179,11,0.5,0.0625,-35.0,-1,1.0,0.459699999999998
180,11,0.5,0.25,35.0,1,1.0,0.49919999999997344
181,11,0.5,1.0,35.0,1,1.0,0.06019900000001144
182,11,0.5,0.25,35.0,1,1.0,0.330600000000004
183,11,0.5,0.0625,35.0,-1,0.0,0.3608000000000402
184,11,0.5,0.125,-35.0,-1,1.0,0.22939899999994395
185,11,0.5,0.0625,35.0,1,1.0,0.13279899999997724
186,11,0.5,0.0625,-35.0,1,0.0,0.3285000000000764
187,11,0.5,0.0625,-35.0,-1,1.0,0.18770000000006348
188,11,0.5,1.0,-35.0,-1,1.0,0.2377999999999929
189,11,0.5,1.0,35.0,1,1.0,0.23179900000002363
190,11,0.5,1.0,-35.0,-1,1.0,0.19430000000011205
191,11,0.5,0.25,-35.0,-1,1.0,0.16390000000001237
192,11,0.5,0.25,-35.0,-1,1.0,0.21020000000009986
193,11,0.5,0.25,-35.0,-1,1.0,0.27899999999999636
194,11,0.5,0.125,35.0,1,1.0,0.18280000000004293
195,11,0.5,0.0,35.0,-1,0.0,0.29179899999996906
196,11,0.3,0.0,35.0,1,1.0,0.36800000000005184
197,11,0.5,1.0,-35.0,-1,1.0,0.33049900000003163
198,11,0.5,0.25,-35.0,-1,1.0,0.26700000000005275
199,11,0.5,0.25,35.0,1,1.0,0.28740000000004784
200,11,0.5,0.25,35.0,1,1.0,0.26890000000003056
201,11,0.5,0.125,-35.0,-1,1.0,0.21909899999991467
202,11,0.5,0.25,-35.0,-1,1.0,0.2238000000000966
203,11,0.5,1.0,35.0,1,1.0,0.22179899999991903
204,11,0.5,0.125,-35.0,-1,1.0,0.2798999999999978
205,11,0.5,0.25,-35.0,-1,1.0,0.24329899999997906
206,11,0.5,0.0,-35.0,-1,1.0,0.3062999999999647
207,11,0.5,0.125,35.0,1,1.0,0.22959900000000744
208,11,0.5,1.0,-35.0,-1,1.0,0.23439999999993688
209,11,0.5,0.25,35.0,1,1.0,0.25880000000006476
210,11,0.5,0.0625,35.0,1,1.0,0.27139999999997144
211,11,0.5,1.0,-35.0,-1,1.0,0.2420990000000529
212,11,0.5,1.0,-35.0,-1,1.0,0.21349900000006983
213,11,0.5,0.0625,-35.0,-1,1.0,0.31989999999996144
214,11,0.5,0.25,35.0,1,1.0,0.29589900000007674
215,11,0.5,1.0,35.0,1,1.0,0.20450000000005275
216,11,0.5,1.0,-35.0,-1,1.0,0.20659999999998035
217,11,0.5,0.25,-35.0,-1,1.0,0.21139900000002854
218,11,0.5,0.25,35.0,1,1.0,0.09089900000003581
219,11,0.5,0.25,-35.0,-1,1.0,0.29950000000008004
220,11,0.5,0.0625,-35.0,1,0.0,0.23329899999998815
221,11,0.5,0.0625,35.0,1,1.0,0.35039900000003854
222,11,0.5,1.0,-35.0,-1,1.0,0.22540000000003602
223,11,0.5,0.0625,35.0,1,1.0,0.3435990000000402
224,11,0.5,1.0,35.0,1,1.0,0.20400000000006457
225,11,0.5,0.25,-35.0,-1,1.0,0.24509900000009566
226,11,0.5,0.125,-35.0,1,0.0,0.26749899999992977
227,11,0.5,0.125,35.0,1,1.0,0.3120000000000118
228,11,0.5,0.25,35.0,1,1.0,0.2425990000000411
229,11,0.5,1.0,35.0,1,1.0,0.19690000000014152
230,11,0.5,1.0,-35.0,-1,1.0,0.2622990000000982
231,11,0.5,1.0,-35.0,-1,1.0,0.20850000000007185
232,11,0.5,1.0,-35.0,-1,1.0,0.300200000000018
233,11,0.5,0.0625,35.0,-1,0.0,0.18909900000005564
234,11,0.5,0.0,-35.0,1,0.0,0.26319900000009966
235,11,0.5,0.0,35.0,1,1.0,0.6623990000000504
236,11,0.5,1.0,35.0,1,1.0,0.2338999999999487
237,11,0.5,1.0,35.0,1,1.0,0.24880000000007385
238,11,0.5,0.0625,35.0,1,1.0,0.5414999999999281
239,11,0.5,1.0,-35.0,-1,1.0,0.2778000000000702
240,11,0.5,0.0,35.0,1,1.0,0.20619999999996708
241,11,0.5,0.25,-35.0,-1,1.0,0.24279900000010457
242,11,0.5,0.0,-35.0,1,0.0,0.1578990000000431
243,11,0.5,0.25,35.0,1,1.0,0.29340000000001965
244,11,0.5,0.0625,-35.0,1,0.0,0.380800000000022
245,11,0.5,0.0625,35.0,1,1.0,0.31809899999996105
246,11,0.5,0.25,-35.0,1,0.0,0.2019990000001144
247,11,0.5,0.125,35.0,1,1.0,3.4072989999999663
248,11,0.5,1.0,35.0,-1,0.0,0.15879900000004454
249,11,0.5,0.25,35.0,-1,0.0,0.10979900000006637
250,11,0.5,0.0625,35.0,-1,0.0,0.23439999999993688
251,11,0.5,0.0625,35.0,1,1.0,0.451998999999887
252,11,0.5,0.0625,-35.0,-1,1.0,0.24679900000000998
253,11,0.5,0.25,-35.0,-1,1.0,0.25689999999997326
254,11,0.5,1.0,-35.0,1,0.0,0.05669999999997799
255,11,0.5,1.0,-35.0,-1,1.0,0.2383989999999585
256,11,0.5,1.0,-35.0,-1,1.0,0.2359000000000151
257,11,0.5,0.25,35.0,1,1.0,0.24389900000005582
258,11,0.5,0.0625,35.0,1,1.0,0.4719990000000962
259,11,0.5,0.0,35.0,1,1.0,0.29529999999999745
260,11,0.5,0.125,-35.0,-1,1.0,0.4899990000001253
261,11,0.5,0.0,-35.0,-1,1.0,0.7687990000000582
262,11,0.5,0.125,35.0,1,1.0,0.31910000000004857
263,11,0.5,0.125,35.0,1,1.0,0.22349900000006073
264,11,0.5,1.0,-35.0,-1,1.0,0.24239999999997508
265,11,0.5,0.25,-35.0,-1,1.0,0.2580990000000156
266,11,0.5,0.0,-35.0,1,0.0,0.23969900000008693
267,11,0.5,0.25,-35.0,1,0.0,0.12770000000011805
268,11,0.5,0.25,35.0,-1,0.0,0.14799900000002708
269,11,0.5,0.0625,35.0,1,1.0,0.24430000000006658
270,11,0.5,1.0,-35.0,-1,1.0,0.2224989999999707
271,11,0.5,0.125,35.0,1,1.0,0.23279899999999998
272,11,0.5,0.125,35.0,1,1.0,0.28899999999998727
273,11,0.5,0.125,35.0,1,1.0,0.2417000000000371
274,11,0.5,0.125,35.0,1,1.0,0.13829999999995835
275,11,0.5,1.0,-35.0,-1,1.0,0.23559999999997672
276,11,0.5,0.125,35.0,1,1.0,0.3189989999999625
277,11,0.5,1.0,35.0,1,1.0,0.3043990000001031
278,11,0.5,0.25,-35.0,-1,1.0,0.22069999999996526
279,11,0.5,0.125,-35.0,1,0.0,0.31760000000008404
280,11,0.5,0.125,35.0,1,1.0,0.28690000000005966
281,11,0.5,0.125,35.0,1,1.0,0.2772989999999709
282,11,0.5,0.25,-35.0,-1,1.0,0.29179899999996906
283,11,0.5,0.0625,-35.0,-1,1.0,0.5287990000000491
284,11,0.5,0.25,-35.0,-1,1.0,0.19969900000000962
285,11,0.5,0.25,35.0,1,1.0,0.30530000000010205
286,11,0.5,0.25,-35.0,-1,1.0,0.33419900000012603
287,11,0.5,0.0625,-35.0,-1,1.0,0.2020990000000893
288,11,0.5,0.0625,-35.0,-1,1.0,0.32809999999994943
289,11,0.5,1.0,35.0,1,1.0,0.18309899999997015
290,11,0.5,0.125,35.0,-1,0.0,0.2647990000000391
291,11,0.5,0.0625,-35.0,1,0.0,3.973600000000033
292,11,0.5,0.25,-35.0,-1,1.0,0.18439899999998488
293,11,0.5,0.0625,-35.0,-1,1.0,0.2160990000000993
294,11,0.5,1.0,35.0,1,1.0,0.3445000000000391
295,11,0.5,0.0625,-35.0,-1,1.0,0.41020000000003165
296,11,0.5,0.25,-35.0,-1,1.0,0.181899000000044
297,11,0.5,0.125,35.0,1,1.0,0.1952000000001135
298,11,0.5,1.0,35.0,1,1.0,0.19529900000009093
299,11,0.5,0.25,-35.0,-1,1.0,0.16560000000004038
300,11,0.5,0.25,35.0,1,1.0,0.3255990000000111
301,11,0.5,0.25,35.0,1,1.0,0.2856000000001586
302,11,0.5,0.125,-35.0,-1,1.0,0.3231990000001588
303,11,0.5,0.125,35.0,1,1.0,0.22979999999984102
304,11,0.5,0.0625,35.0,1,1.0,0.3161989999996422
305,11,0.5,0.25,-35.0,-1,1.0,0.3093999999996413
306,11,0.5,0.125,35.0,1,1.0,0.369698999999855
307,11,0.5,0.25,-35.0,1,0.0,0.16619900000000598
308,11,0.5,0.0625,35.0,-1,0.0,0.23989899999992303
309,11,0.5,0.0625,35.0,1,1.0,0.2803989999999885
310,11,0.5,0.125,35.0,1,1.0,0.24339899999995396
311,11,0.5,1.0,-35.0,-1,1.0,0.2903999999998632
312,11,0.5,0.0625,35.0,1,1.0,0.34009999999989304
313,11,0.5,0.25,35.0,1,1.0,0.28019999999969514
314,11,0.5,0.25,-35.0,-1,1.0,0.32049899999992704
315,11,0.5,0.25,-35.0,-1,1.0,0.24779999999987012
316,11,0.5,1.0,35.0,1,1.0,0.22059899999999288
317,11,0.5,0.0625,-35.0,1,0.0,0.35049999999978354
318,11,0.6,0.0625,35.0,-1,0.0,0.20069899999998597
319,11,0.5,1.0,-35.0,-1,1.0,0.23759900000004563
320,11,0.5,0.0625,35.0,1,1.0,0.36449900000002344
321,11,0.5,1.0,35.0,1,1.0,0.23799899999994523
322,11,0.5,0.0,35.0,1,1.0,0.22089999999980137
323,11,0.5,0.125,-35.0,-1,1.0,0.3277989999999136
324,11,0.5,1.0,35.0,1,1.0,0.29129999999986467
325,11,0.5,1.0,-35.0,-1,1.0,0.13459899999998015
326,11,0.5,0.25,35.0,1,1.0,0.2750989999997273
327,11,0.5,0.125,-35.0,-1,1.0,0.24490000000014334
328,11,0.5,1.0,35.0,1,1.0,0.4255000000000564
329,11,0.5,1.0,35.0,1,1.0,0.27530000000001564
330,11,0.5,0.0625,35.0,1,1.0,0.485300000000052
331,11,0.5,0.25,35.0,1,1.0,0.24209899999982554
332,11,0.5,0.125,35.0,1,1.0,0.15919999999982792
333,11,0.5,0.25,-35.0,-1,1.0,0.20579899999984264
334,11,0.5,0.25,-35.0,-1,1.0,0.5890989999998055
335,11,0.5,0.0625,-35.0,-1,1.0,0.6723999999999251
336,11,0.5,1.0,35.0,1,1.0,0.2223989999999958
337,11,0.5,0.0,35.0,1,1.0,1.2329999999999472
338,11,0.5,0.125,-35.0,-1,1.0,0.22929999999973916
339,11,0.5,0.125,-35.0,-1,1.0,0.2363999999997759
340,11,0.5,0.25,35.0,-1,0.0,0.15289999999981774
341,11,0.5,0.0,-35.0,1,0.0,0.5300999999999476
342,11,0.4,0.0,-35.0,1,0.0,0.427199999999857
343,11,0.5,1.0,35.0,1,1.0,0.27989899999988666
344,11,0.5,1.0,35.0,1,1.0,0.3231999999998152
345,11,0.5,0.25,-35.0,-1,1.0,0.2771999999997661
346,11,0.5,0.0625,35.0,-1,0.0,0.8437999999998738
347,11,0.5,0.0625,35.0,1,1.0,0.5271999999997661
348,11,0.5,1.0,-35.0,-1,1.0,0.21039900000005218
349,11,0.5,1.0,-35.0,-1,1.0,0.3104999999998199
350,11,0.5,0.0625,-35.0,1,0.0,0.1675000000000182
351,11,0.5,0.125,-35.0,-1,1.0,0.21749900000008893
352,11,0.5,1.0,-35.0,-1,1.0,0.2078989999999976
353,11,0.5,0.125,-35.0,-1,1.0,0.21809899999971094
354,11,0.5,0.0,35.0,-1,0.0,0.24779899999975896
355,11,0.5,0.0625,35.0,-1,0.0,0.21179899999970075
356,11,0.5,0.125,35.0,1,1.0,0.09129900000016278
357,11,0.5,0.125,35.0,1,1.0,0.234599999999773
358,11,0.5,1.0,35.0,1,1.0,0.3246990000000096
359,11,0.5,0.125,-35.0,1,0.0,0.49139900000000125
360,11,0.5,0.0625,35.0,1,1.0,0.334999999999809
361,11,0.5,0.25,-35.0,-1,1.0,0.3449000000000524
362,11,0.5,0.25,-35.0,-1,1.0,0.20519899999976587
363,11,0.5,0.125,35.0,-1,0.0,0.2522999999998774
364,11,0.5,0.125,35.0,1,1.0,0.3454989999997906
365,11,0.5,1.0,35.0,1,1.0,0.3022999999998319
366,11,0.5,1.0,-35.0,-1,1.0,0.12590000000000146
367,11,0.5,0.125,35.0,1,1.0,0.7253989999996975
368,11,0.5,0.25,-35.0,-1,1.0,0.35940000000005057
369,11,0.5,1.0,35.0,1,1.0,0.3358989999999267
370,11,0.5,1.0,-35.0,-1,1.0,0.24899899999991248
371,11,0.5,0.0,35.0,1,1.0,0.34639900000001944
372,11,0.5,0.125,-35.0,-1,1.0,0.22929999999996653
373,11,0.5,0.25,-35.0,-1,1.0,0.4665989999998601
374,11,0.5,1.0,-35.0,-1,1.0,0.16969899999980953
375,11,0.5,0.25,35.0,1,1.0,0.3228999999998905
376,11,0.5,0.0,35.0,1,1.0,2.030099000000064
377,11,0.5,0.0625,-35.0,-1,1.0,0.1965989999998783
378,11,0.5,0.125,35.0,1,1.0,0.24339899999995396
379,11,0.5,0.0,35.0,1,1.0,0.6635999999998603
380,11,0.5,0.125,35.0,1,1.0,0.2604999999998654
381,11,0.5,0.25,-35.0,-1,1.0,0.06369899999981499
382,11,0.5,0.0625,-35.0,-1,1.0,1.4505000000001473
383,11,0.5,1.0,35.0,1,1.0,0.27739900000005946
384,11,0.5,0.25,35.0,1,1.0,0.24769899999978406
385,11,0.5,0.125,-35.0,-1,1.0,0.21429899999975532
386,11,0.5,0.0,-35.0,1,0.0,1.8708990000000085
387,11,0.6,0.0,-35.0,1,0.0,0.26139999999986685
388,11,0.5,1.0,35.0,1,1.0,0.24139900000000125
389,11,0.5,0.25,-35.0,-1,1.0,0.3476989999999205
390,11,0.5,0.0625,35.0,-1,0.0,0.1611000000000331
391,11,0.5,0.0625,-35.0,-1,1.0,0.1979999999998654
392,11,0.5,0.0625,-35.0,-1,1.0,3.725099999999884
393,11,0.5,0.0625,-35.0,-1,1.0,0.15859900000009475
394,11,0.5,0.25,-35.0,-1,1.0,0.17539999999962674
395,11,0.5,1.0,35.0,1,1.0,0.19169899999974405
396,11,0.5,0.125,35.0,1,1.0,0.2886989999999514
397,11,0.5,0.25,35.0,1,1.0,0.639498999999887
398,11,0.5,0.25,35.0,1,1.0,0.38229999999975917
399,11,0.5,0.25,-35.0,-1,1.0,0.2720999999999094
400,11,0.5,0.25,-35.0,-1,1.0,0.17919999999980973
401,11,0.5,1.0,35.0,1,1.0,0.5489000000000033
402,11,0.5,0.25,35.0,1,1.0,0.21589899999980844
403,11,0.5,0.25,-35.0,-1,1.0,0.2226989999999205
404,11,0.5,0.125,35.0,1,1.0,0.34599900000011985
405,11,0.5,1.0,-35.0,-1,1.0,0.2992989999997917
406,11,0.5,0.25,35.0,1,1.0,0.25929900000005546
407,11,0.5,0.0625,35.0,1,1.0,0.2465989999998328
408,11,0.5,0.0,-35.0,-1,1.0,0.1860990000000129
409,11,0.5,0.25,-35.0,-1,1.0,0.04309899999998379
410,11,0.5,0.125,35.0,1,1.0,0.9296990000000278
411,11,0.5,0.0625,35.0,-1,0.0,0.22309899999982008
412,11,0.5,0.0625,35.0,1,1.0,0.5971999999999298
413,11,0.5,1.0,-35.0,-1,1.0,0.053399999999783176
414,11,0.5,0.25,-35.0,-1,1.0,0.2103989999998248
415,11,0.5,0.25,35.0,1,1.0,0.29369999999971697
416,11,0.5,0.0625,-35.0,-1,1.0,0.5337999999999283
417,11,0.5,0.0625,35.0,1,1.0,0.20079899999996087
418,11,0.5,0.125,35.0,1,1.0,0.24759999999992033
419,11,0.5,0.125,35.0,1,1.0,0.2607999999997901
420,11,0.5,0.0625,-35.0,1,0.0,0.157999000000018
421,11,0.6,0.0625,-35.0,1,0.0,0.20749999999975444
422,11,0.5,1.0,-35.0,-1,1.0,0.21109999999976026
423,11,0.5,1.0,35.0,1,1.0,0.11469899999997324
424,11,0.5,0.0625,-35.0,-1,1.0,0.2945999999999458
425,11,0.5,0.125,-35.0,-1,1.0,0.19129999999995562
426,11,0.5,0.25,35.0,-1,0.0,0.11139899999989211
427,11,0.5,0.125,35.0,1,1.0,0.3415989999998601
428,11,0.5,1.0,35.0,1,1.0,0.21489999999994325
429,11,0.5,0.25,35.0,1,1.0,0.512199999999666
430,11,0.5,0.0625,-35.0,1,0.0,0.49509899999998197
431,11,0.5,0.0625,-35.0,1,0.0,0.29209900000000744
432,11,0.5,0.0625,35.0,1,1.0,0.38540000000011787
433,11,0.5,1.0,-35.0,-1,1.0,0.23189899999988484
434,11,0.5,1.0,-35.0,-1,1.0,0.21529899999995905
435,11,0.5,0.125,35.0,1,1.0,0.33549999999991087
436,11,0.5,0.125,-35.0,-1,1.0,0.3323990000001231
437,11,0.5,0.25,35.0,1,1.0,0.5625989999998637
438,11,0.5,1.0,35.0,1,1.0,0.4625989999999547
439,11,0.5,0.25,-35.0,-1,1.0,0.14279899999996815
440,11,0.5,1.0,-35.0,-1,1.0,0.21280000000001564
441,11,0.5,0.25,35.0,1,1.0,0.20309900000006564
442,11,0.5,0.25,-35.0,-1,1.0,0.22329999999988104
443,11,0.5,0.0,-35.0,-1,1.0,0.423799999999801
444,11,0.5,1.0,35.0,1,1.0,0.2699000000000069
445,11,0.5,0.125,35.0,1,1.0,0.31009900000003654
446,11,0.5,0.25,35.0,-1,0.0,1.5266989999997804
447,11,0.5,0.25,35.0,1,1.0,0.3934999999999036
448,11,0.5,0.125,-35.0,-1,1.0,0.1406000000001768
449,11,0.5,1.0,-35.0,-1,1.0,0.25379900000007183
450,11,0.5,0.0625,35.0,-1,0.0,0.39409999999998035
451,11,0.5,0.25,-35.0,-1,1.0,0.2845999999999549
452,11,0.5,0.25,-35.0,-1,1.0,0.20739899999989575
453,11,0.5,0.25,35.0,1,1.0,0.11779999999976098
454,11,0.5,0.125,-35.0,-1,1.0,0.3211999999998625
455,11,0.5,0.25,35.0,-1,0.0,0.09759999999982938
456,11,0.2,0.25,35.0,1,1.0,0.304300000000012
457,11,0.5,1.0,35.0,1,1.0,0.6576999999999771
458,11,0.5,0.0,35.0,-1,0.0,0.47469900000010057
459,11,0.5,0.0,35.0,1,1.0,0.27169899999989866
460,11,0.5,0.0625,-35.0,-1,1.0,0.39829999999983556
461,11,0.5,0.0625,-35.0,-1,1.0,0.805599999999913
462,11,0.5,0.25,35.0,1,1.0,0.3085999999998421
463,11,0.5,0.125,-35.0,-1,1.0,0.35189999999988686
464,11,0.5,0.0625,-35.0,-1,1.0,0.19839999999999236
465,11,0.5,0.25,35.0,1,1.0,0.17839899999967201
466,11,0.5,0.25,-35.0,-1,1.0,0.20849999999995816
467,11,0.5,0.0,-35.0,1,0.0,0.7355999999999767
468,11,0.5,0.0625,35.0,1,1.0,0.38279899999997724
469,11,0.5,0.25,-35.0,-1,1.0,0.08629999999993743
470,11,0.5,1.0,-35.0,-1,1.0,0.26589899999999034
471,11,0.5,0.125,35.0,1,1.0,0.25569899999982226
472,11,0.5,0.25,35.0,1,1.0,0.2860990000001493
473,11,0.5,0.0,-35.0,-1,1.0,0.1590000000001055
474,11,0.5,0.25,-35.0,-1,1.0,0.29909999999995307
475,11,0.5,0.25,-35.0,-1,1.0,0.33619999999996253
476,11,0.5,0.0625,-35.0,1,0.0,0.6795999999997093
477,11,0.5,0.0625,-35.0,1,0.0,0.9762989999999263
478,11,0.5,1.0,-35.0,-1,1.0,0.27619899999990594
479,11,0.5,1.0,35.0,1,1.0,0.2064989999998943
480,11,0.5,0.0,-35.0,-1,1.0,0.34649899999999434
481,11,0.5,1.0,-35.0,-1,1.0,0.27969899999993686
482,11,0.5,0.125,35.0,1,1.0,0.18329999999969004
483,11,0.5,0.0625,35.0,1,1.0,0.19679900000005546
484,11,0.5,0.125,35.0,1,1.0,0.5171999999997752
485,11,0.5,0.125,-35.0,-1,1.0,0.24369899999987865
486,11,0.5,0.0625,35.0,-1,0.0,0.9539999999997235
487,11,0.5,0.25,-35.0,-1,1.0,0.26399900000001253
488,11,0.5,0.25,-35.0,1,0.0,0.08389999999985776
489,11,0.5,0.25,35.0,1,1.0,0.5907999999999447
490,11,0.5,1.0,-35.0,-1,1.0,0.19109999999977845
491,11,0.5,0.125,-35.0,-1,1.0,0.25169999999980064
492,11,0.5,1.0,-35.0,-1,1.0,0.21779900000001362
493,11,0.5,1.0,35.0,1,1.0,0.4811989999998332
494,11,0.5,1.0,35.0,1,1.0,0.19529999999986103
495,11,0.5,0.125,35.0,1,1.0,0.3546999999998661
496,11,0.5,1.0,-35.0,-1,1.0,0.2321999999999207
497,11,0.5,0.0625,35.0,1,1.0,0.6816999999998643
498,11,0.5,0.0625,-35.0,-1,1.0,0.222199000000046
499,11,0.5,0.125,-35.0,-1,1.0,0.24540000000001783
500,11,0.5,1.0,-35.0,-1,1.0,0.3184999999998581
501,11,0.5,0.125,-35.0,-1,1.0,0.325298999999859
502,11,0.5,0.0,-35.0,-1,1.0,0.5626989999998386
503,11,0.5,0.0,35.0,1,1.0,0.6319989999997233
504,11,0.5,0.0,35.0,-1,0.0,0.17229999999972279
505,11,0.5,0.25,35.0,1,1.0,0.2653989999998885
506,11,0.5,0.0625,-35.0,-1,1.0,0.41259900000022753
507,11,0.5,0.125,-35.0,-1,1.0,0.2258999999999105
508,11,0.5,1.0,35.0,1,1.0,0.21250000000009095
509,11,0.5,0.125,35.0,-1,0.0,0.5423999999998159
510,11,0.5,0.125,-35.0,-1,1.0,0.3426990000000387
511,11,0.5,0.0625,-35.0,1,0.0,0.29969899999991867
512,11,0.5,0.25,-35.0,-1,1.0,0.28629899999987174
513,11,0.5,0.0625,35.0,1,1.0,0.29989900000009584
514,11,0.5,0.125,-35.0,-1,1.0,0.3730999999997948
515,11,0.5,1.0,35.0,1,1.0,0.4966999999999189
516,11,0.5,0.0625,-35.0,-1,1.0,0.3731990000001133
517,11,0.5,0.0625,-35.0,1,0.0,1.1332989999996244
518,11,0.5,0.125,35.0,1,1.0,0.4536999999997988
519,11,0.5,0.0625,-35.0,1,0.0,0.7704989999999725
520,11,0.5,0.0625,35.0,1,1.0,3.3208999999997104
521,11,0.5,0.125,35.0,1,1.0,0.3176989999999478
522,11,0.5,1.0,35.0,1,1.0,0.22739999999976135
523,11,0.5,0.125,-35.0,-1,1.0,0.3372999999999138
524,11,0.5,0.0625,-35.0,-1,1.0,0.4911989999998241
525,11,0.5,0.0,-35.0,-1,1.0,0.3176989999999478
526,11,0.5,0.0,-35.0,-1,1.0,0.7552989999999227
527,11,0.5,0.0,35.0,1,1.0,4.145199999999704
528,11,0.5,0.125,-35.0,-1,1.0,0.2849989999999707
529,11,0.5,0.25,-35.0,-1,1.0,0.21199899999987792
530,11,0.5,0.125,35.0,1,1.0,0.22509999999988395
531,11,0.5,1.0,-35.0,-1,1.0,0.24229899999977533
532,11,0.5,1.0,-35.0,-1,1.0,0.23539899999991576
533,11,0.5,0.25,-35.0,-1,1.0,0.5621989999997368
534,11,0.5,0.25,-35.0,-1,1.0,0.2522989999999936
535,11,0.5,0.125,-35.0,-1,1.0,0.712099999999964
536,11,0.5,0.0625,-35.0,1,0.0,0.47879999999986467
537,11,0.5,0.0,-35.0,1,0.0,0.465699000000086
538,11,0.5,0.125,-35.0,1,0.0,2.5062000000000353
539,11,0.5,0.25,35.0,1,1.0,0.2426999999997861
540,11,0.5,0.0625,-35.0,-1,1.0,0.5335000000000036
541,11,0.5,1.0,35.0,1,1.0,0.7066990000000715
542,11,0.5,1.0,-35.0,-1,1.0,0.3427999999998974
543,11,0.5,0.25,35.0,1,1.0,0.39619999999990796
544,11,0.5,1.0,35.0,1,1.0,0.19689999999991414
545,11,0.5,0.25,35.0,1,1.0,0.37289899999996123
546,11,0.5,0.25,-35.0,-1,1.0,0.26289999999994507
547,11,0.5,0.125,35.0,1,1.0,0.8129999999998745
548,11,0.5,0.125,-35.0,-1,1.0,0.2865999999999076
549,11,0.5,1.0,35.0,1,1.0,0.2664989999998397
550,11,0.5,0.125,-35.0,1,0.0,6.126698999999917
551,11,0.5,0.0,-35.0,1,0.0,0.25369900000009693
552,11,0.5,0.125,-35.0,-1,1.0,0.40039999999999054
553,11,0.5,0.125,-35.0,-1,1.0,0.3370989999998528
554,11,0.5,0.125,-35.0,1,0.0,1.1170999999999367
555,11,0.5,0.0625,35.0,1,1.0,0.6605989999998201
556,11,0.5,0.0625,35.0,1,1.0,0.3841989999998532
557,11,0.5,0.25,35.0,1,1.0,0.6740999999999531
558,11,0.5,0.125,-35.0,-1,1.0,0.47099900000011985
559,11,0.5,0.25,-35.0,-1,1.0,0.3043999999999869
560,11,0.5,0.25,35.0,1,1.0,0.3011999999998807
561,11,0.5,0.0625,35.0,1,1.0,0.4645999999997912
562,11,0.5,0.0,-35.0,1,0.0,0.2579000000000633
563,11,0.7,0.0,-35.0,1,0.0,3.45479999999975
564,11,0.5,1.0,-35.0,-1,1.0,0.27490000000011605
565,11,0.5,1.0,35.0,1,1.0,0.31169900000008965
566,11,0.5,1.0,-35.0,-1,1.0,0.2884999999998854
567,11,0.5,1.0,-35.0,-1,1.0,0.2418999999999869
568,11,0.5,0.0625,35.0,1,1.0,0.4384989999996378
569,11,0.5,1.0,-35.0,-1,1.0,0.21529999999984284
570,11,0.5,1.0,35.0,1,1.0,0.2154000000000451
571,11,0.5,0.25,35.0,1,1.0,0.3254990000000362
572,11,0.5,0.0,-35.0,1,0.0,0.27899999999999636
573,11,0.5,0.25,-35.0,-1,1.0,0.30559999999991305
574,11,0.5,0.25,-35.0,-1,1.0,0.2756989999998041
575,11,0.5,0.0,-35.0,1,0.0,0.8524990000000798
576,11,0.5,0.25,35.0,1,1.0,0.4125989999997728
577,11,0.5,1.0,-35.0,-1,1.0,0.26929999999993015
578,11,0.5,0.0,35.0,1,1.0,0.8393989999999576
579,11,0.5,0.0625,35.0,1,1.0,0.30609899999990375
580,11,0.5,0.125,-35.0,-1,1.0,0.4095999999997275
581,11,0.5,0.0625,35.0,1,1.0,0.47640000000001237
582,11,0.5,0.25,35.0,1,1.0,0.2597000000000662
583,11,0.5,0.0625,-35.0,1,0.0,1.463099999999713
584,11,0.5,0.0625,35.0,1,1.0,0.3831990000001042
585,11,0.5,0.125,35.0,1,1.0,0.7665989999998146
586,11,0.5,0.125,35.0,1,1.0,0.18339999999966494
587,11,0.5,1.0,-35.0,-1,1.0,0.28339999999980137
588,11,0.5,0.25,35.0,1,1.0,3.613600000000133
589,11,0.5,0.125,35.0,1,1.0,0.25379899999984445
590,11,0.5,0.25,35.0,1,1.0,0.2406989999999496
591,11,0.5,0.0625,-35.0,1,0.0,0.20730000000003201
592,11,0.9,0.0625,-35.0,1,0.0,3.797399999999925
593,11,0.5,1.0,35.0,1,1.0,0.28099999999994907
594,11,0.5,0.0,-35.0,1,0.0,3.5776989999999387
595,11,0.5,0.25,-35.0,-1,1.0,0.5078999999996086
596,11,0.5,1.0,35.0,1,1.0,0.4679999999998472
597,11,0.5,0.0625,35.0,1,1.0,0.2946990000000369
598,11,0.5,1.0,-35.0,-1,1.0,0.3647999999998319
599,11,0.5,0.0625,35.0,1,1.0,0.371599999999944
600,11,0.5,1.0,35.0,1,1.0,0.31169999999974607
601,11,0.5,0.125,35.0,1,1.0,0.8549989999996797
602,11,0.5,0.125,-35.0,-1,1.0,0.5417999999999665
603,11,0.5,0.0,35.0,1,1.0,0.43859900000006746
604,11,0.5,1.0,-35.0,-1,1.0,0.20859999999993306
605,11,0.5,0.0625,35.0,1,1.0,0.28549999999995634
606,11,0.5,1.0,35.0,1,1.0,0.2487989999999627
607,11,0.5,0.125,35.0,1,1.0,0.48900000000003274
608,11,0.5,0.25,-35.0,-1,1.0,0.17569899999989502
609,11,0.5,0.125,-35.0,-1,1.0,10.002498999999716
610,11,0.5,0.0625,-35.0,-1,1.0,0.3393999999998414
611,11,0.5,0.125,35.0,1,1.0,0.4429990000003272
612,11,0.5,0.0625,35.0,1,1.0,0.443000000000211
613,11,0.5,0.0625,-35.0,1,0.0,0.186399999999594
614,11,0.5,0.0625,35.0,1,1.0,0.673399999999674
615,11,0.5,0.25,-35.0,-1,1.0,0.3166989999999714
616,11,0.5,0.125,-35.0,-1,1.0,1.1999989999994796
617,11,0.5,1.0,-35.0,-1,1.0,0.26009899999962727
618,11,0.5,0.25,35.0,1,1.0,0.13020000000005894
619,11,0.5,0.25,35.0,1,1.0,0.29359999999996944
620,11,0.5,0.125,35.0,1,1.0,0.41049900000007256
621,11,0.5,1.0,35.0,1,1.0,0.23049899999978152
622,11,0.5,0.0625,-35.0,-1,1.0,0.45049899999958143
623,11,0.5,0.0625,-35.0,1,0.0,0.5940999999997985
624,11,0.5,0.25,-35.0,-1,1.0,0.2973989999995865
625,11,0.5,0.0625,-35.0,-1,1.0,0.284099999999853
626,11,0.5,0.0,35.0,1,1.0,0.24419899999975314
627,11,0.5,1.0,-35.0,-1,1.0,0.2112000000001899
628,11,0.5,1.0,35.0,1,1.0,0.3311989999997422
629,11,0.5,1.0,35.0,-1,0.0,0.1645989999997255
630,11,0.5,1.0,35.0,1,1.0,0.3213989999999285
631,11,0.5,1.0,35.0,1,1.0,0.24139999999988504
632,11,0.5,0.0,-35.0,1,0.0,1.8281990000000405
633,11,0.6,0.0,35.0,1,1.0,5.488299999999981
634,11,0.5,1.0,-35.0,-1,1.0,0.2684990000002472
635,11,0.5,0.125,35.0,-1,0.0,0.17199900000014168
636,11,0.5,0.25,35.0,1,1.0,0.46209900000030757
637,11,0.5,1.0,35.0,1,1.0,0.28219899999976406
638,11,0.5,1.0,-35.0,-1,1.0,0.23900000000003274
639,11,0.5,1.0,-35.0,-1,1.0,0.23249899999973422
640,11,0.5,0.25,-35.0,-1,1.0,0.3057989999997517
641,11,0.5,0.25,-35.0,-1,1.0,0.2758990000002086
642,11,0.5,0.125,35.0,1,1.0,0.27939999999989595
643,11,0.5,0.125,35.0,1,1.0,0.2327989999998863
644,11,0.5,0.25,35.0,1,1.0,0.20620000000008076
645,11,0.5,1.0,35.0,1,1.0,0.5061989999999241
646,11,0.5,0.0625,-35.0,1,0.0,0.19289900000012494
647,11,0.5,0.125,35.0,1,1.0,0.24629900000036287
648,11,0.5,0.25,-35.0,-1,1.0,0.2533999999996013
649,11,0.5,1.0,35.0,1,1.0,0.31659999999965294
650,11,0.5,1.0,35.0,1,1.0,0.30669999999963693
651,11,0.5,0.0625,35.0,1,1.0,0.4100989999997182
652,11,0.5,0.25,35.0,1,1.0,0.29359999999996944
653,11,0.5,0.125,35.0,1,1.0,0.24359899999990375
654,11,0.5,0.0,35.0,1,1.0,0.31029899999975896
655,11,0.5,0.0625,-35.0,-1,1.0,0.3404000000000451
656,11,0.5,0.25,-35.0,-1,1.0,0.2771999999995387
657,11,0.5,0.25,-35.0,-1,1.0,0.3708989999995538
658,11,0.5,0.0625,-35.0,-1,1.0,0.25749999999970896
659,11,0.5,0.25,35.0,1,1.0,0.13429899999982808
660,11,0.5,0.25,-35.0,-1,1.0,0.35439899999983027
661,11,0.5,0.0,-35.0,1,0.0,0.31790000000000873
662,11,0.5,0.25,-35.0,-1,1.0,0.2945999999997184
663,11,0.5,0.0625,-35.0,-1,1.0,0.4746000000004642
664,11,0.5,0.25,-35.0,-1,1.0,0.2881990000000769
665,11,0.5,0.0625,35.0,1,1.0,0.3215999999997621
666,11,0.5,1.0,35.0,1,1.0,0.23829999999952634
667,11,0.5,0.0625,35.0,1,1.0,0.32839899999999034
668,11,0.5,0.25,35.0,1,1.0,1.6417989999999918
669,11,0.5,0.125,35.0,1,1.0,0.28199999999969805
670,11,0.5,1.0,35.0,1,1.0,0.6988999999998668
671,11,0.5,1.0,-35.0,-1,1.0,0.8423989999996593
672,11,0.5,0.0,35.0,1,1.0,0.6257989999999154
673,11,0.5,0.125,35.0,1,1.0,0.44909999999981665
674,11,0.5,0.25,35.0,1,1.0,0.38259900000002744
675,11,0.5,1.0,-35.0,-1,1.0,0.3793989999999212
676,11,0.5,0.0,-35.0,1,0.0,0.3494989999999234
677,11,0.5,0.0,35.0,1,1.0,3.839599999999791
678,11,0.5,1.0,35.0,1,1.0,0.343199999999797
679,11,0.5,0.125,35.0,1,1.0,0.15319899999985864
680,11,0.5,0.0625,-35.0,1,0.0,0.39319899999964036
681,11,0.5,0.25,35.0,1,1.0,7.256600000000162
682,11,0.5,0.125,35.0,1,1.0,0.3836989999999787
683,11,0.5,0.0,-35.0,1,0.0,0.6837989999999081
684,11,0.5,0.0,-35.0,-1,1.0,0.5005999999998494
685,11,0.5,0.25,35.0,1,1.0,0.18389999999999418
686,11,0.5,0.0625,35.0,1,1.0,0.37389900000016496
687,11,0.5,0.25,-35.0,-1,1.0,0.5806999999995242
688,11,0.5,1.0,35.0,1,1.0,0.5573999999996886
689,11,0.5,0.0625,-35.0,1,0.0,0.37099999999963984
690,11,0.5,0.125,-35.0,-1,1.0,0.5810989999999947
691,11,0.5,0.0625,35.0,1,1.0,1.8709999999996398
692,11,0.5,0.0625,35.0,1,1.0,2.064499000000069
693,11,0.5,1.0,-35.0,-1,1.0,0.3846989999997277
694,11,0.5,1.0,-35.0,-1,1.0,0.36149899999963964
695,11,0.5,0.25,-35.0,-1,1.0,0.2881989999996222
696,11,0.5,0.0,35.0,1,1.0,3.0582989999998063
697,11,0.5,0.0625,35.0,1,1.0,0.41179900000042835
698,11,0.5,1.0,35.0,1,1.0,0.4018989999999576
699,11,0.5,0.125,-35.0,-1,1.0,0.7518989999998666
700,11,0.5,0.0625,-35.0,-1,1.0,0.39879900000005364
701,11,0.5,0.0625,-35.0,1,0.0,4.038900000000012
702,11,0.5,0.25,35.0,1,1.0,0.5156999999994696
703,11,0.5,0.0625,-35.0,1,0.0,3.009100000000217
704,11,0.6,0.0625,35.0,1,1.0,7.302798999999595
705,11,0.5,1.0,-35.0,-1,1.0,0.3028999999996813
706,11,0.5,0.25,-35.0,-1,1.0,0.3496989999998732
707,11,0.5,0.0625,35.0,-1,0.0,0.3364999999998872
708,11,0.5,0.0,-35.0,1,0.0,0.6532999999999447
709,11,0.5,0.0,35.0,1,1.0,5.376599999999598
710,11,0.5,1.0,35.0,1,1.0,0.2635999999993146
711,11,0.5,0.25,35.0,1,1.0,0.4968989999997575
712,11,0.5,0.125,35.0,1,1.0,0.3537990000004356
713,11,0.5,0.125,-35.0,1,0.0,8.097200000000157
714,11,0.5,0.25,-35.0,-1,1.0,0.3207990000000791
715,11,0.5,0.25,35.0,1,1.0,0.364100000000235
716,11,0.5,0.25,-35.0,1,0.0,8.30099999999993
717,11,0.5,0.25,35.0,1,1.0,2.057998999999654
718,11,0.5,0.125,35.0,1,1.0,0.35140000000001237
719,11,0.5,0.0,-35.0,1,0.0,0.3480990000002748
720,11,0.5,0.0625,-35.0,1,0.0,1.241598999999951
721,11,0.9,0.0625,35.0,1,1.0,11.591699000000062
722,11,0.5,1.0,-35.0,-1,1.0,0.685399999999845
723,11,0.5,0.0625,-35.0,-1,1.0,1.4288990000000013
724,11,0.5,1.0,35.0,1,1.0,0.3188989999998739
725,11,0.5,0.125,35.0,1,1.0,1.7823999999995976
726,11,0.5,1.0,-35.0,-1,1.0,0.24909900000011476
727,11,0.5,0.0625,-35.0,1,0.0,5.882498999999825
728,11,0.7,0.0625,-35.0,1,0.0,8.586099999999533
729,11,0.5,1.0,-35.0,-1,1.0,0.26310000000012224
730,11,0.5,0.0625,-35.0,1,0.0,20.173299999999927
731,11,0.5,0.25,35.0,1,1.0,0.4137999999998101
732,11,0.5,1.0,35.0,1,1.0,0.290599999999813
733,11,0.5,1.0,35.0,1,1.0,0.047299999999722786
734,11,0.5,0.0625,35.0,1,1.0,0.37409899999966
735,11,0.5,0.25,-35.0,-1,1.0,0.3108999999999469
736,11,0.5,0.125,35.0,1,1.0,0.6408999999998741
737,11,0.5,0.0,35.0,1,1.0,1.0109990000000835
738,11,0.5,0.0625,-35.0,1,0.0,4.5108989999994265
739,11,0.5,0.125,-35.0,1,0.0,6.028099000000111
740,11,0.5,0.0,35.0,1,1.0,0.3015989999998965
741,11,0.5,0.125,-35.0,-1,1.0,10.201698999999735
742,11,0.5,1.0,35.0,1,1.0,0.2585989999997764
743,11,0.5,0.125,-35.0,-1,1.0,0.33879999999953725
744,11,0.5,0.25,-35.0,-1,1.0,0.4020999999997912
745,11,0.5,0.0,35.0,1,1.0,6.525499000000309
746,11,0.5,0.25,35.0,1,1.0,0.27579999999989013
747,11,0.5,0.125,35.0,1,1.0,0.32589999999981956
748,11,0.5,0.0625,-35.0,1,0.0,1.1958999999997104
749,11,0.7,0.0625,35.0,1,1.0,1.0493999999998778
750,11,0.5,1.0,-35.0,-1,1.0,0.2630000000003747
751,11,0.5,1.0,35.0,1,1.0,0.3029999999998836
752,11,0.5,0.0625,-35.0,1,0.0,0.4097990000000209
753,11,0.5,0.25,-35.0,1,0.0,4.546399999999721
754,11,0.5,0.125,35.0,1,1.0,0.3732989999998608
755,11,0.5,1.0,35.0,1,1.0,0.25349899999991976
756,11,0.5,0.25,35.0,1,1.0,0.3133989999996629
757,11,0.5,0.125,-35.0,-1,1.0,0.2734989999994468
758,11,0.5,0.0625,-35.0,1,0.0,0.25369999999975335
759,11,0.5,0.0,35.0,1,1.0,4.763699999999972
760,11,0.5,1.0,35.0,1,1.0,0.2871989999998732
761,11,0.5,0.125,35.0,1,1.0,0.28409899999996924
762,11,0.5,0.125,-35.0,1,0.0,0.43420000000014625
763,11,0.5,0.125,-35.0,1,0.0,3.8208989999998266
764,11,0.5,0.125,35.0,1,1.0,2.3844999999996617
765,11,0.5,1.0,-35.0,-1,1.0,0.261098999999831
766,11,0.5,1.0,-35.0,-1,1.0,0.2480000000000473
767,11,0.5,0.0,-35.0,1,0.0,0.39799900000025445
768,11,0.5,0.25,35.0,1,1.0,0.31149900000036723
769,11,0.5,0.125,-35.0,1,0.0,0.36489999999957945
770,11,0.5,0.0,35.0,1,1.0,0.1981989999999314
771,11,0.5,0.25,35.0,1,1.0,0.2849989999999707
772,11,0.5,0.0,-35.0,1,0.0,4.5383990000004815
773,11,0.5,0.0625,-35.0,1,0.0,0.7188000000001011
774,11,0.5,0.25,35.0,1,1.0,0.3688989999996011
775,11,0.5,0.125,35.0,1,1.0,0.34229999999979555
776,11,0.5,0.125,-35.0,-1,1.0,0.2824000000000524
777,11,0.5,0.25,-35.0,-1,1.0,0.30579900000020643
778,11,0.5,0.0,35.0,1,1.0,0.3358989999996993
779,11,0.5,0.0625,-35.0,1,0.0,0.792599999999311
780,11,0.5,0.0625,35.0,1,1.0,0.4859989999999925
781,11,0.5,0.0,35.0,1,1.0,1.1393990000001395
782,11,0.5,0.125,35.0,1,1.0,0.2060999999998785
783,11,0.5,0.25,-35.0,1,0.0,0.2129000000004453
784,11,0.5,0.0,35.0,1,1.0,0.4630000000001928
785,11,0.5,0.0625,-35.0,-1,1.0,0.37319999999954234
786,11,0.5,0.125,-35.0,-1,1.0,0.6165000000000873
787,11,0.5,1.0,35.0,1,1.0,0.2299990000001344
788,11,0.5,0.0625,35.0,-1,0.0,0.6700999999998203
789,11,0.5,0.125,-35.0,-1,1.0,0.313499999999749
790,11,0.5,0.25,-35.0,-1,1.0,0.2601999999997133
791,11,0.5,1.0,-35.0,-1,1.0,0.21039900000005218
792,11,0.5,0.0,35.0,1,1.0,0.2903989999999794
793,11,0.5,0.25,35.0,1,1.0,0.14730000000008658
794,11,0.5,0.125,35.0,1,1.0,0.2705989999999474
795,11,0.5,0.0625,-35.0,1,0.0,1.3338999999996304
796,11,0.5,0.0625,35.0,1,1.0,0.22409899999956906
797,11,0.5,0.125,-35.0,1,0.0,0.6174999999998363
798,11,0.5,0.0625,35.0,1,1.0,0.35419999999976426
799,11,0.5,0.0625,-35.0,1,0.0,0.14439900000024863
800,11,0.5,0.125,-35.0,-1,1.0,0.26439899999968475
801,11,0.5,1.0,35.0,1,1.0,0.1343989999995756
802,11,0.5,0.25,35.0,-1,0.0,0.13119899999992413
803,11,0.8,0.25,35.0,1,1.0,0.31459999999970023
804,11,0.5,1.0,-35.0,-1,1.0,0.2246989999998732
805,11,0.5,0.25,-35.0,-1,1.0,0.2614979999998468
806,11,0.5,0.125,-35.0,-1,1.0,0.25479900000027556
807,11,0.5,0.25,35.0,1,1.0,0.9547989999996389
808,11,0.5,0.0625,-35.0,-1,1.0,0.5815999999999804
809,11,0.5,1.0,35.0,1,1.0,0.22519899999997506
810,11,0.5,0.25,-35.0,-1,1.0,0.3084990000002108
811,11,0.5,0.0625,35.0,1,1.0,0.28529900000012276
812,11,0.5,0.25,-35.0,-1,1.0,0.3019990000002508
813,11,0.5,0.125,-35.0,-1,1.0,0.3053999999997359
814,11,0.5,0.0,-35.0,-1,1.0,0.2955000000001746
815,11,0.5,0.25,35.0,1,1.0,0.3255999999996675
816,11,0.5,0.25,35.0,1,1.0,1.7422999999998865
817,11,0.5,0.0625,35.0,1,1.0,0.28569900000002235
818,11,0.5,0.0625,-35.0,-1,1.0,0.1190999999998894
819,11,0.5,1.0,-35.0,-1,1.0,0.22580000000016298
820,11,0.5,0.0,-35.0,-1,1.0,0.3593989999999394
821,11,0.5,0.0625,35.0,1,1.0,0.33609999999998763
822,11,0.5,0.0,35.0,-1,0.0,0.31609900000012203
823,11,0.5,0.0625,-35.0,-1,1.0,0.6161999999999352
824,11,0.5,0.25,-35.0,-1,1.0,0.3063000000001921
825,11,0.5,0.0,35.0,1,1.0,2.856499999999869
826,11,0.5,1.0,35.0,1,1.0,0.3431989999999132
827,11,0.5,0.25,-35.0,-1,1.0,0.2031989999995858
828,11,0.5,0.0625,-35.0,-1,1.0,0.560099999999693
829,11,0.5,1.0,35.0,1,1.0,0.5567000000000917
830,11,0.5,0.0625,35.0,-1,0.0,0.7035999999998239
831,11,0.5,0.0625,-35.0,1,0.0,5.260299999999916
832,11,0.5,0.125,-35.0,-1,1.0,0.28379899999981717
833,11,0.5,1.0,-35.0,-1,1.0,0.29730000000017753
834,11,0.5,1.0,35.0,1,1.0,0.297298999999839
835,11,0.5,1.0,-35.0,-1,1.0,0.36740000000008877
836,11,0.5,0.125,35.0,1,1.0,0.26749900000004345
837,11,0.5,1.0,35.0,1,1.0,0.26759999999967476
838,11,0.5,0.125,35.0,1,1.0,1.2442989999999554
839,11,0.5,0.0625,35.0,1,1.0,1.1575990000001184
840,11,0.5,0.0,35.0,1,1.0,0.45459900000014386
841,11,0.5,0.0625,-35.0,1,0.0,3.971299000000272
842,11,0.5,0.0625,35.0,1,1.0,0.3480989999998201
843,11,0.5,0.25,-35.0,-1,1.0,0.28829899999982445
844,11,0.5,0.125,35.0,1,1.0,0.27179900000010093
845,11,0.5,1.0,35.0,1,1.0,0.288300000000163
846,11,0.5,0.0,35.0,-1,0.0,8.55179999999973
847,11,0.8,0.0,35.0,1,1.0,6.13550000000032
848,11,0.5,1.0,-35.0,-1,1.0,0.409099000000424
849,11,0.5,0.25,-35.0,-1,1.0,0.28259999999954744
850,11,0.5,0.125,-35.0,1,0.0,8.455998999999792
851,11,0.5,0.25,-35.0,1,0.0,4.142898999999488
852,11,0.5,0.125,35.0,1,1.0,17.46659899999986
853,11,0.5,0.0625,35.0,1,1.0,4.483698999999888
854,11,0.5,0.0,-35.0,1,0.0,0.8840000000000146
855,11,0.5,0.125,-35.0,-1,1.0,0.4739999999997053
856,11,0.5,0.25,35.0,1,1.0,0.4139999999997599
857,11,0.5,0.125,-35.0,-1,1.0,0.2807999999999993
858,11,0.5,0.125,35.0,-1,0.0,9.720898999999463
859,11,0.5,0.0,-35.0,1,0.0,4.744799999999941
860,11,0.5,0.125,35.0,1,1.0,5.375
861,11,0.5,0.0,35.0,1,1.0,0.2218990000001213
862,11,0.5,1.0,-35.0,-1,1.0,0.2552990000003774
863,11,0.5,0.25,35.0,1,1.0,6.888598999999886
864,11,0.5,0.0625,35.0,1,1.0,0.0891990000000078
865,11,0.5,1.0,35.0,1,1.0,0.24259899999970003
866,11,0.5,0.25,35.0,1,1.0,14.662599999999657
1,12,0.5,1.0,-35.0,-1,1.0,0.28849999999999953
2,12,0.5,1.0,-35.0,-1,1.0,0.20450000000000035
3,12,0.5,0.0625,35.0,1,1.0,0.22969999999999935
4,12,0.5,0.25,35.0,1,1.0,0.23560000000000159
5,12,0.5,1.0,35.0,1,1.0,0.2207990000000013
6,12,0.5,1.0,35.0,1,1.0,0.35769899999999666
7,12,0.5,0.25,35.0,1,1.0,0.23399899999999718
8,12,0.5,0.25,-35.0,-1,1.0,0.3652990000000038
9,12,0.5,0.0,35.0,1,1.0,0.2582000000000022
10,12,0.5,0.125,-35.0,-1,1.0,0.44009900000000357
11,12,0.5,1.0,35.0,1,1.0,0.5605990000000034
12,12,0.5,0.125,-35.0,-1,1.0,0.2950999999999979
13,12,0.5,0.0625,-35.0,-1,1.0,0.23619899999999916
14,12,0.5,0.125,-35.0,-1,1.0,0.7213989999999981
15,12,0.5,0.25,35.0,1,1.0,0.4047000000000054
16,12,0.5,0.25,-35.0,1,0.0,0.2206990000000033
17,12,0.5,0.125,-35.0,1,0.0,2.4197989999999976
18,12,0.5,0.0625,35.0,-1,0.0,0.16310000000000002
19,12,0.5,0.0625,35.0,1,1.0,1.2341990000000038
20,12,0.5,0.125,-35.0,-1,1.0,0.2516999999999996
21,12,0.5,0.25,35.0,1,1.0,0.24829900000000293
22,12,0.5,0.125,35.0,1,1.0,1.830600000000004
23,12,0.5,1.0,-35.0,-1,1.0,0.2950000000000017
24,12,0.5,1.0,35.0,1,1.0,0.2410989999999913
25,12,0.5,0.0,35.0,-1,0.0,0.17549900000000207
26,12,0.5,0.0625,35.0,-1,0.0,2.078199000000012
27,12,0.5,0.0625,35.0,1,1.0,0.3616000000000099
28,12,0.5,1.0,35.0,1,1.0,0.22110000000000696
29,12,0.5,0.125,-35.0,-1,1.0,0.44249999999999545
30,12,0.5,0.25,35.0,1,1.0,0.2824989999999872
31,12,0.5,0.0,35.0,1,1.0,0.28819900000000587
32,12,0.5,0.0625,-35.0,1,0.0,0.24269900000000177
33,12,0.6,0.0625,-35.0,-1,1.0,0.2574989999999957
34,12,0.5,1.0,-35.0,-1,1.0,0.16879900000000703
35,12,0.5,0.125,-35.0,-1,1.0,0.19289899999999705
36,12,0.5,1.0,35.0,-1,0.0,0.09169900000000553
37,12,0.5,0.125,35.0,-1,0.0,0.31679900000000316
38,12,0.5,0.125,35.0,1,1.0,0.3863989999999973
39,12,0.5,1.0,-35.0,1,0.0,0.12520000000000664
40,12,0.5,1.0,-35.0,-1,1.0,0.1867989999999935
41,12,0.5,1.0,-35.0,-1,1.0,0.18659999999999854
42,12,0.5,0.25,35.0,-1,0.0,0.24949899999998593
43,12,0.5,0.125,-35.0,-1,1.0,0.20729900000000612
44,12,0.5,1.0,-35.0,-1,1.0,0.35949899999997115
45,12,0.5,0.125,35.0,1,1.0,0.22209899999998584
46,12,0.5,0.0,35.0,1,1.0,0.5724990000000219
47,12,0.5,1.0,-35.0,-1,1.0,0.2032000000000096
48,12,0.5,0.0625,35.0,1,1.0,0.4387999999999863
49,12,0.5,0.0625,35.0,1,1.0,0.24049999999999727
50,12,0.5,0.25,35.0,1,1.0,0.3066989999999805
51,12,0.5,0.0625,35.0,1,1.0,1.0718999999999994
52,12,0.5,0.25,-35.0,1,0.0,0.9089989999999943
53,12,0.5,0.25,35.0,1,1.0,0.25070000000002324
54,12,0.5,1.0,-35.0,-1,1.0,0.23869899999999689
55,12,0.5,0.125,35.0,1,1.0,0.07559999999998013
56,12,0.5,1.0,35.0,-1,0.0,0.08480000000000132
57,12,0.5,0.125,-35.0,1,0.0,3.979198999999994
58,12,0.8,0.125,-35.0,1,0.0,0.44749900000002185
59,12,0.5,1.0,-35.0,-1,1.0,0.18770000000000664
60,12,0.5,0.125,35.0,1,1.0,0.3949000000000069
61,12,0.5,1.0,-35.0,-1,1.0,0.21819999999999595
62,12,0.5,0.0,-35.0,1,0.0,1.2700989999999877
63,12,0.6,0.0,-35.0,-1,1.0,0.30049900000000207
64,12,0.5,1.0,-35.0,-1,1.0,0.2864990000000205
65,12,0.5,1.0,35.0,1,1.0,0.10940000000002215
66,12,0.5,0.125,-35.0,1,0.0,0.27240000000000464
67,12,0.5,0.0625,-35.0,1,0.0,1.2180999999999926
68,12,0.5,0.0625,35.0,-1,0.0,0.22520000000000095
69,12,0.5,0.0625,-35.0,1,0.0,2.965599999999995
70,12,0.5,0.0625,-35.0,1,0.0,0.3474999999999966
71,12,0.5,0.25,-35.0,-1,1.0,0.23920000000001096
72,12,0.5,0.0,35.0,1,1.0,0.10749899999999002
73,12,0.5,0.25,35.0,1,1.0,0.31220000000001846
74,12,0.5,0.125,-35.0,-1,1.0,0.10289900000000785
75,12,0.5,0.0625,-35.0,-1,1.0,0.1360000000000241
76,12,0.5,0.25,-35.0,-1,1.0,0.2304990000000089
77,12,0.5,0.25,-35.0,-1,1.0,0.04079999999999018
78,12,0.5,0.25,35.0,1,1.0,0.3125
79,12,0.5,0.0625,35.0,1,1.0,0.32450000000000045
80,12,0.5,0.0625,-35.0,1,0.0,0.6470000000000198
81,12,0.5,0.25,35.0,1,1.0,0.3292989999999918
82,12,0.5,0.0625,35.0,1,1.0,0.29359999999999786
83,12,0.5,0.125,35.0,1,1.0,0.309599999999989
84,12,0.5,0.0625,35.0,1,1.0,0.3487989999999854
85,12,0.5,0.0625,35.0,1,1.0,0.5828999999999951
86,12,0.5,0.0625,-35.0,1,0.0,2.47529899999995
87,12,0.5,0.25,-35.0,-1,1.0,0.2072989999999777
88,12,0.5,0.0625,-35.0,-1,1.0,0.3351999999999862
89,12,0.5,0.125,-35.0,-1,1.0,0.27530000000001564
90,12,0.5,0.0625,-35.0,-1,1.0,0.3392989999999827
91,12,0.5,0.0625,35.0,1,1.0,3.86749999999995
92,12,0.5,1.0,35.0,1,1.0,0.22469899999993004
93,12,0.5,1.0,-35.0,-1,1.0,0.20569899999998142
94,12,0.5,0.25,-35.0,-1,1.0,0.2650989999999638
95,12,0.5,0.25,-35.0,-1,1.0,0.2471999999999639
96,12,0.5,0.125,-35.0,-1,1.0,0.29719999999997526
97,12,0.5,0.25,35.0,1,1.0,0.24279899999999088
98,12,0.5,0.0625,-35.0,1,0.0,1.303498999999988
99,12,0.5,0.0625,-35.0,-1,1.0,0.44939899999997124
100,12,0.5,0.125,35.0,1,1.0,0.5342999999999165
101,12,0.5,0.125,-35.0,-1,1.0,0.30809899999997015
102,12,0.5,0.25,35.0,1,1.0,0.3341989999999555
103,12,0.5,1.0,35.0,1,1.0,0.4132999999999356
104,12,0.5,0.25,35.0,1,1.0,0.3011989999999969
105,12,0.5,1.0,35.0,1,1.0,0.2688999999999737
106,12,0.5,0.0625,-35.0,-1,1.0,0.9865999999999531
107,12,0.5,0.25,-35.0,-1,1.0,0.27389899999991485
108,12,0.5,1.0,-35.0,-1,1.0,0.2378999999999678
109,12,0.5,1.0,35.0,1,1.0,0.3346990000000005
110,12,0.5,0.125,35.0,1,1.0,0.2966989999999896
111,12,0.5,1.0,35.0,1,1.0,0.27849999999995134
112,12,0.5,0.0625,-35.0,-1,1.0,0.22059899999999288
113,12,0.5,0.0,35.0,-1,0.0,0.20169899999996233
114,12,0.5,0.125,35.0,1,1.0,3.5769000000000233
115,12,0.5,1.0,-35.0,-1,1.0,0.21539999999998827
116,12,0.5,0.0625,-35.0,-1,1.0,0.26389999999997826
117,12,0.5,0.0625,35.0,1,1.0,0.23589899999996078
118,12,0.5,1.0,35.0,1,1.0,0.27490000000000236
119,12,0.5,0.0625,35.0,-1,0.0,0.3815000000000168
120,12,0.5,0.25,-35.0,-1,1.0,0.352299999999957
121,12,0.5,0.0625,-35.0,1,0.0,0.2683999999999287
122,12,0.5,0.25,35.0,1,1.0,0.36609999999996035
123,12,0.5,0.0625,-35.0,-1,1.0,1.035699999999963
124,12,0.5,1.0,-35.0,-1,1.0,0.21119999999996253
125,12,0.5,0.125,35.0,-1,0.0,0.33159999999998035
126,12,0.4,0.125,35.0,1,1.0,0.30649999999997135
127,12,0.5,1.0,-35.0,-1,1.0,0.23479999999995016
128,12,0.5,0.125,35.0,1,1.0,0.27490000000000236
129,12,0.5,0.0625,-35.0,1,0.0,0.848899999999901
130,12,0.5,0.0625,35.0,1,1.0,0.3489989999999352
131,12,0.5,1.0,-35.0,-1,1.0,0.23329999999998563
132,12,0.5,0.125,-35.0,1,0.0,0.3680999999999699
133,12,0.5,0.0625,-35.0,-1,1.0,0.26619999999996935
134,12,0.5,0.0625,35.0,1,1.0,0.31289899999995896
135,12,0.5,0.0,-35.0,1,0.0,0.3728999999999587
136,12,0.7,0.0,-35.0,1,0.0,0.49569899999994504
137,12,0.5,1.0,-35.0,-1,1.0,0.21399900000000116
138,12,0.5,0.0625,-35.0,-1,1.0,0.3394999999999868
139,12,0.5,0.25,35.0,1,1.0,0.3088989999999967
140,12,0.5,0.0625,35.0,1,1.0,0.3126989999999523
141,12,0.5,1.0,35.0,1,1.0,0.050700000000006185
142,12,0.5,0.125,35.0,1,1.0,0.36659899999995105
143,12,0.5,1.0,-35.0,-1,1.0,0.24639899999993986
144,12,0.5,0.25,35.0,1,1.0,0.26859899999993786
145,12,0.5,0.25,-35.0,-1,1.0,0.22839900000002444
146,12,0.5,0.25,-35.0,-1,1.0,0.09499899999991612
147,12,0.5,1.0,35.0,-1,0.0,0.07189999999997099
148,12,0.5,0.25,-35.0,-1,1.0,0.2390999999999508
149,12,0.5,1.0,35.0,1,1.0,0.095799999999997
150,12,0.5,1.0,-35.0,-1,1.0,0.16269899999997506
151,12,0.5,1.0,35.0,1,1.0,0.23299999999994725
152,12,0.5,0.125,35.0,-1,0.0,0.12889999999998736
153,12,0.5,0.0625,-35.0,-1,1.0,0.2815989999999715
154,12,0.5,0.25,35.0,1,1.0,0.2164989999999989
155,12,0.5,0.25,-35.0,-1,1.0,0.2843989999999508
156,12,0.5,0.25,35.0,1,1.0,0.25949900000000525
157,12,0.5,0.125,-35.0,-1,1.0,0.2419999999999618
158,12,0.5,0.25,35.0,1,1.0,0.35839899999996305
159,12,0.5,0.0,-35.0,-1,1.0,0.6041000000000167
160,12,0.5,1.0,-35.0,-1,1.0,0.545998999999938
161,12,0.5,0.0,35.0,1,1.0,3.8617989999999622
162,12,0.5,0.125,35.0,1,1.0,0.2504989999999907
163,12,0.5,1.0,-35.0,-1,1.0,0.22029999999995198
164,12,0.5,0.125,-35.0,-1,1.0,0.8050989999999842
165,12,0.5,0.25,-35.0,-1,1.0,0.27479899999997315
166,12,0.5,0.25,-35.0,-1,1.0,0.2670990000000302
167,12,0.5,0.0,35.0,1,1.0,1.2142000000000053
168,12,0.5,0.25,35.0,1,1.0,0.5291990000000055
169,12,0.5,0.0625,35.0,1,1.0,0.6814000000000533
170,12,0.5,0.0,-35.0,-1,1.0,0.4782000000000153
171,12,0.5,1.0,-35.0,-1,1.0,0.2504000000000133
172,12,0.5,0.0625,35.0,1,1.0,0.31559900000013386
173,12,0.5,0.125,35.0,1,1.0,0.06670000000008258
174,12,0.5,0.0,-35.0,1,0.0,0.3289990000000671
175,12,0.5,0.125,-35.0,-1,1.0,0.4115990000000238
176,12,0.5,0.0625,-35.0,1,0.0,0.4929989999999407
177,12,0.5,0.0625,35.0,1,1.0,0.34150000000011005
178,12,0.5,1.0,-35.0,-1,1.0,0.22539900000003854
179,12,0.5,0.125,-35.0,-1,1.0,0.42460000000005493
180,12,0.5,0.0625,-35.0,-1,1.0,0.2404989999999998
181,12,0.5,0.125,-35.0,-1,1.0,0.3654000000000224
182,12,0.5,1.0,35.0,1,1.0,0.15589999999997417
183,12,0.5,0.0,-35.0,-1,1.0,0.10409899999990557
184,12,0.5,0.25,35.0,1,1.0,0.22559899999998834
185,12,0.5,0.125,-35.0,-1,1.0,0.320899000000054
186,12,0.5,0.0625,-35.0,1,0.0,0.3808999999999969
187,12,0.5,0.25,-35.0,-1,1.0,0.2880999999999858
188,12,0.5,0.125,35.0,1,1.0,0.3552989999999454
189,12,0.5,1.0,35.0,1,1.0,0.24759999999992033
190,12,0.5,1.0,-35.0,-1,1.0,0.24350000000004002
191,12,0.5,0.25,35.0,1,1.0,0.2966990000001033
192,12,0.5,0.0625,35.0,1,1.0,0.8742990000000646
193,12,0.5,0.25,35.0,1,1.0,0.33649900000000343
194,12,0.5,0.125,35.0,1,1.0,0.6557000000001381
195,12,0.5,0.125,35.0,1,1.0,0.27799900000002253
196,12,0.5,0.125,35.0,-1,0.0,0.06549900000004527
197,12,0.5,0.25,-35.0,-1,1.0,0.27409899999997833
198,12,0.5,1.0,35.0,1,1.0,0.24389899999994213
199,12,0.5,0.25,35.0,1,1.0,0.3026999999999589
200,12,0.5,0.125,-35.0,-1,1.0,0.9600990000000138
201,12,0.5,1.0,35.0,1,1.0,0.25169900000003054
202,12,0.5,0.0625,-35.0,-1,1.0,0.5965990000000829
203,12,0.5,0.25,-35.0,-1,1.0,0.195699999999988
204,12,0.5,0.0625,35.0,1,1.0,0.9062999999999874
205,12,0.5,0.0,-35.0,-1,1.0,0.36820000000000164
206,12,0.5,0.125,-35.0,-1,1.0,0.2407989999999245
207,12,0.5,0.25,-35.0,-1,1.0,0.2221999999999298
208,12,0.5,1.0,-35.0,-1,1.0,0.1996000000000322
209,12,0.5,0.0625,-35.0,-1,1.0,0.5466989999999896
210,12,0.5,0.0625,35.0,1,1.0,0.7618000000001075
211,12,0.5,0.0625,-35.0,1,0.0,0.3065990000001193
212,12,0.5,0.0625,35.0,-1,0.0,0.29389900000001035
213,12,0.5,0.25,-35.0,-1,1.0,0.18010000000003856
214,12,0.5,1.0,35.0,1,1.0,0.2724000000000615
215,12,0.5,0.0625,35.0,1,1.0,2.593699000000015
216,12,0.5,0.25,-35.0,-1,1.0,0.218099000000052
217,12,0.5,0.0625,35.0,-1,0.0,0.4256990000001224
218,12,0.4,0.0625,-35.0,1,0.0,0.30139999999994416
219,12,0.5,1.0,-35.0,-1,1.0,0.199799999999982
220,12,0.5,0.125,-35.0,1,0.0,1.4084990000000062
221,12,0.5,0.25,-35.0,-1,1.0,0.23869900000011057
222,12,0.5,0.125,35.0,1,1.0,0.30960000000004584
223,12,0.5,0.0,-35.0,1,0.0,2.8457989999999427
224,12,0.6,0.0,-35.0,1,0.0,0.31520000000000437
225,12,0.5,1.0,-35.0,-1,1.0,0.3199000000000751
226,12,0.5,0.125,35.0,1,1.0,0.2598000000000411
227,12,0.5,1.0,35.0,1,1.0,0.2420000000000755
228,12,0.5,0.0,35.0,1,1.0,0.633399000000054
229,12,0.5,0.25,35.0,1,1.0,0.4012000000001308
230,12,0.5,0.0625,-35.0,1,0.0,0.8394990000000462
231,12,0.8,0.0625,-35.0,1,0.0,0.39000000000010004
232,12,0.5,1.0,-35.0,-1,1.0,0.22239999999999327
233,12,0.5,0.0625,35.0,1,1.0,0.7804999999999609
234,12,0.5,0.25,-35.0,-1,1.0,0.25929899999994177
235,12,0.5,0.25,-35.0,-1,1.0,0.25319899999999507
236,12,0.5,0.25,-35.0,-1,1.0,2.8218990000000304
237,12,0.5,1.0,-35.0,-1,1.0,0.2017000000000735
238,12,0.5,0.25,-35.0,-1,1.0,0.2745989999999665
239,12,0.5,1.0,-35.0,-1,1.0,0.647199999999998
240,12,0.5,0.0,35.0,1,1.0,2.849800000000073
241,12,0.5,0.125,35.0,1,1.0,0.23040000000003147
242,12,0.5,0.25,35.0,1,1.0,0.3094989999999598
243,12,0.5,0.125,35.0,1,1.0,0.5865989999999783
244,12,0.5,0.125,35.0,1,1.0,0.27919999999994616
245,12,0.5,0.0625,-35.0,1,0.0,0.22439999999994598
246,12,0.5,0.125,35.0,1,1.0,0.4093000000000302
247,12,0.5,0.25,-35.0,-1,1.0,0.3563000000000329
248,12,0.5,1.0,35.0,1,1.0,0.3250990000000229
249,12,0.5,0.125,35.0,1,1.0,0.36039900000002945
250,12,0.5,0.125,35.0,1,1.0,0.2237999999999829
251,12,0.5,0.0,35.0,1,1.0,5.042400000000043
252,12,0.5,0.125,35.0,1,1.0,0.30500000000006366
253,12,0.5,0.0,35.0,-1,0.0,1.8653000000000475
254,12,0.5,0.25,35.0,1,1.0,0.6766990000000987
255,12,0.5,0.125,-35.0,-1,1.0,0.5907990000000609
256,12,0.5,0.0625,-35.0,1,0.0,4.320400000000063
257,12,0.5,0.0,-35.0,1,0.0,0.49469999999996617
258,12,0.5,0.25,-35.0,1,0.0,6.210300000000075
259,12,0.5,0.125,-35.0,-1,1.0,0.6605989999999338
260,12,0.5,1.0,-35.0,-1,1.0,0.236199000000056
261,12,0.5,0.125,35.0,1,1.0,0.31999900000005255
262,12,0.5,0.125,35.0,1,1.0,0.24809900000002472
263,12,0.5,0.125,-35.0,-1,1.0,0.29379900000003545
264,12,0.5,0.0,-35.0,-1,1.0,0.5473000000000638
265,12,0.5,1.0,-35.0,-1,1.0,0.2545999999999822
266,12,0.5,0.0625,35.0,1,1.0,0.37420000000008713
267,12,0.5,0.25,-35.0,-1,1.0,0.30320000000006075
268,12,0.5,1.0,35.0,1,1.0,3.49350000000004
269,12,0.5,1.0,35.0,1,1.0,0.24660000000005766
270,12,0.5,0.125,-35.0,-1,1.0,0.25539900000001126
271,12,0.5,0.0625,35.0,1,1.0,0.1573000000000775
272,12,0.5,1.0,-35.0,-1,1.0,0.26480000000003656
273,12,0.5,0.25,35.0,1,1.0,0.29570000000001073
274,12,0.5,0.25,-35.0,-1,1.0,0.32519999999999527
275,12,0.5,0.125,-35.0,1,0.0,1.186200000000099
276,12,0.5,0.25,35.0,1,1.0,0.2983000000000402
277,12,0.5,1.0,-35.0,-1,1.0,0.20129899999994905
278,12,0.5,0.0625,-35.0,-1,1.0,0.3226999999999407
279,12,0.5,1.0,35.0,1,1.0,0.36429900000007365
280,12,0.5,0.25,35.0,1,1.0,0.3300000000000409
281,12,0.5,0.0625,35.0,-1,0.0,0.3194989999999507
282,12,0.5,0.0,35.0,1,1.0,0.34370000000001255
283,12,0.5,0.125,-35.0,-1,1.0,0.3121999999999616
284,12,0.5,0.25,35.0,1,1.0,0.2849990000000844
285,12,0.5,0.0625,35.0,1,1.0,1.040200000000027
286,12,0.5,0.25,35.0,1,1.0,0.24979999999993652
287,12,0.5,0.25,-35.0,-1,1.0,0.30480000000011387
288,12,0.5,0.0625,-35.0,1,0.0,0.4393000000000029
289,12,0.5,0.25,-35.0,-1,1.0,0.6130990000000338
290,12,0.5,0.0,-35.0,1,0.0,3.5132990000000746
291,12,0.5,0.25,-35.0,-1,1.0,0.2987990000000309
292,12,0.5,0.0625,-35.0,1,0.0,1.0425989999999956
293,12,0.5,0.25,35.0,1,1.0,0.4753000000000611
294,12,0.5,0.0,35.0,1,1.0,0.5868000000000393
295,12,0.5,1.0,35.0,1,1.0,0.2396000000001095
296,12,0.5,0.125,35.0,1,1.0,0.7783000000000584
297,12,0.5,0.125,35.0,1,1.0,0.2585000000000264
298,12,0.5,0.125,35.0,1,1.0,3.469400000000064
299,12,0.5,1.0,35.0,1,1.0,0.21710000000007312
300,12,0.5,1.0,-35.0,-1,1.0,0.48519899999996596
301,12,0.5,1.0,-35.0,-1,1.0,0.2604989999999816
302,12,0.5,0.125,-35.0,-1,1.0,0.27460000000007767
303,12,0.5,1.0,-35.0,-1,1.0,0.27290000000004966
304,12,0.5,0.25,-35.0,-1,1.0,0.3719989999999598
305,12,0.5,0.25,-35.0,1,0.0,0.2859999999999445
306,12,0.5,0.25,35.0,1,1.0,0.3605000000001155
307,12,0.5,0.0625,35.0,1,1.0,0.3766000000000531
308,12,0.5,0.125,-35.0,-1,1.0,0.2989000000000033
309,12,0.5,1.0,35.0,1,1.0,0.2624000000000706
310,12,0.5,1.0,-35.0,-1,1.0,0.5424990000000207
311,12,0.5,0.25,-35.0,-1,1.0,0.28930000000002565
312,12,0.5,0.25,-35.0,-1,1.0,0.3363000000000511
313,12,0.5,0.125,-35.0,1,0.0,0.5295999999999594
314,12,0.5,0.125,-35.0,1,0.0,0.5334000000000287
315,12,0.5,1.0,35.0,1,1.0,0.3531989999999041
316,12,0.5,0.125,35.0,1,1.0,0.5102999999999156
317,12,0.5,1.0,35.0,1,1.0,0.27989899999988666
318,12,0.5,0.25,-35.0,-1,1.0,0.34029899999995905
319,12,0.5,0.25,-35.0,-1,1.0,0.33999999999991815
320,12,0.5,0.125,-35.0,-1,1.0,0.36689899999964837
321,12,0.5,1.0,35.0,1,1.0,0.3271999999997206
322,12,0.5,1.0,-35.0,-1,1.0,0.28389999999990323
323,12,0.5,1.0,35.0,1,1.0,0.09750000000008185
324,12,0.5,0.0625,-35.0,1,0.0,4.8670989999998255
325,12,0.6,0.0625,-35.0,1,0.0,0.3640989999996691
326,12,0.5,1.0,-35.0,-1,1.0,0.2943000000000211
327,12,0.5,0.25,35.0,1,1.0,0.290798999999879
328,12,0.5,0.25,-35.0,-1,1.0,0.6142999999997301
329,12,0.5,0.0625,35.0,1,1.0,0.19100000000003092
330,12,0.5,0.125,35.0,1,1.0,0.29819999999972424
331,12,0.5,0.125,35.0,1,1.0,0.2544989999998961
332,12,0.5,0.0625,-35.0,-1,1.0,0.18469999999979336
333,12,0.5,0.0625,-35.0,1,0.0,3.7917999999999665
334,12,0.5,0.25,-35.0,-1,1.0,0.5282989999998335
335,12,0.5,1.0,35.0,1,1.0,0.328899999999976
336,12,0.5,0.125,35.0,1,1.0,0.7287000000001171
337,12,0.5,0.0625,35.0,1,1.0,0.2755989999998292
338,12,0.5,0.25,-35.0,1,0.0,0.23229899999978443
339,12,0.5,0.0,-35.0,1,0.0,2.4356999999997697
340,12,0.5,0.125,-35.0,1,0.0,5.472700000000032
341,12,0.5,0.0625,-35.0,1,0.0,0.2892989999998008
342,12,0.5,0.125,-35.0,-1,1.0,0.2857989999997699
343,12,0.5,0.25,35.0,1,1.0,0.24969999999984793
344,12,0.5,0.25,35.0,1,1.0,0.5963990000000194
345,12,0.5,0.25,-35.0,-1,1.0,0.31609899999989466
346,12,0.5,0.25,-35.0,-1,1.0,0.18279899999993177
347,12,0.5,1.0,35.0,1,1.0,0.29300000000012005
348,12,0.5,1.0,35.0,1,1.0,0.2467989999997826
349,12,0.5,0.0,-35.0,1,0.0,3.493199999999888
350,12,0.7,0.0,-35.0,1,0.0,4.300198999999793
351,12,0.5,1.0,-35.0,-1,1.0,0.21679900000003727
352,12,0.5,1.0,35.0,1,1.0,0.2338999999999487
353,12,0.5,1.0,35.0,1,1.0,0.2743000000000393
354,12,0.5,0.0625,35.0,-1,0.0,0.26359999999976935
355,12,0.5,0.25,35.0,1,1.0,0.34379999999987376
356,12,0.5,1.0,35.0,1,1.0,0.28799999999978354
357,12,0.5,0.125,-35.0,-1,1.0,0.2845999999999549
358,12,0.5,0.0625,-35.0,1,0.0,0.5342000000000553
359,12,0.5,0.0,-35.0,-1,1.0,0.6307989999997972
360,12,0.5,0.25,35.0,1,1.0,0.3209990000000289
361,12,0.5,0.25,35.0,1,1.0,3.647898999999825
362,12,0.5,0.25,-35.0,-1,1.0,0.26149999999984175
363,12,0.5,1.0,-35.0,-1,1.0,0.40479899999991176
364,12,0.5,0.0625,-35.0,-1,1.0,0.49139999999988504
365,12,0.5,0.0,35.0,1,1.0,6.185398999999961
366,12,0.5,0.25,-35.0,-1,1.0,0.30199999999967986
367,12,0.5,1.0,35.0,1,1.0,0.1920999999997548
368,12,0.5,0.25,35.0,1,1.0,0.2788999999997941
369,12,0.5,0.25,-35.0,-1,1.0,5.1687990000000354
370,12,0.5,0.0625,35.0,1,1.0,0.3392989999999827
371,12,0.5,0.125,35.0,1,1.0,0.31969999999978427
372,12,0.5,1.0,-35.0,-1,1.0,0.2260989999999765
373,12,0.5,1.0,35.0,1,1.0,0.24299999999971078
374,12,0.5,1.0,35.0,1,1.0,0.526098999999931
375,12,0.5,0.25,35.0,1,1.0,0.5762989999998354
376,12,0.5,1.0,35.0,1,1.0,0.35629999999991924
377,12,0.5,0.0,35.0,1,1.0,4.350198999999748
378,12,0.5,1.0,35.0,1,1.0,0.2864999999999327
379,12,0.5,0.25,-35.0,-1,1.0,0.3002999999998792
380,12,0.5,0.25,-35.0,-1,1.0,0.876700000000028
381,12,0.5,0.0,-35.0,-1,1.0,0.4169999999999163
382,12,0.5,0.125,-35.0,-1,1.0,0.28710000000000946
383,12,0.5,0.0625,-35.0,-1,1.0,0.2670989999999165
384,12,0.5,1.0,-35.0,-1,1.0,0.23709899999994377
385,12,0.5,0.125,-35.0,-1,1.0,0.2640989999999874
386,12,0.5,1.0,-35.0,-1,1.0,0.2538990000000467
387,12,0.5,1.0,35.0,1,1.0,0.314600000000155
388,12,0.5,0.125,35.0,-1,0.0,0.1741989999998168
389,12,0.5,0.125,35.0,1,1.0,6.224500000000035
390,12,0.5,1.0,35.0,1,1.0,0.22139999999990323
391,12,0.5,0.25,35.0,1,1.0,0.2744989999998779
392,12,0.5,0.0625,35.0,-1,0.0,0.30789899999990666
393,12,0.5,0.0625,-35.0,1,0.0,0.4016999999998916
394,12,0.5,0.125,-35.0,1,0.0,4.62159900000006
395,12,0.5,0.125,35.0,1,1.0,0.598498999999947
396,12,0.5,1.0,35.0,1,1.0,2.4420000000000073
397,12,0.5,0.0625,35.0,1,1.0,4.208798999999772
398,12,0.5,0.0,-35.0,1,0.0,0.9224990000000162
399,12,0.5,0.0625,-35.0,-1,1.0,0.6027989999997772
400,12,0.5,0.0,-35.0,1,0.0,0.30310000000008586
401,12,0.5,0.25,35.0,1,1.0,0.4257989999998699
402,12,0.5,0.0,35.0,1,1.0,5.386299000000008
403,12,0.5,1.0,-35.0,-1,1.0,0.5829999999998563
404,12,0.5,0.125,-35.0,-1,1.0,0.6631999999999607
405,12,0.5,0.125,35.0,1,1.0,0.41649999999981446
406,12,0.5,1.0,35.0,1,1.0,0.1965989999998783
407,12,0.5,0.25,35.0,1,1.0,4.509799999999814
408,12,0.5,0.0,35.0,1,1.0,0.2664999999999509
409,12,0.5,1.0,-35.0,-1,1.0,0.21089899999992667
410,12,0.5,0.0625,35.0,1,1.0,0.3268000000000484
411,12,0.5,0.125,-35.0,1,0.0,1.5369000000000597
412,12,0.5,0.25,-35.0,-1,1.0,0.6471989999997732
413,12,0.5,1.0,-35.0,-1,1.0,0.25719999999978427
414,12,0.5,0.125,-35.0,-1,1.0,0.34419899999988957
415,12,0.5,0.0,35.0,1,1.0,1.187298999999939
416,12,0.5,1.0,35.0,1,1.0,0.304300000000012
417,12,0.5,1.0,-35.0,-1,1.0,0.5008989999998903
418,12,0.5,0.0,-35.0,-1,1.0,0.6475999999997839
419,12,0.5,1.0,35.0,1,1.0,0.3517990000000282
420,12,0.5,0.25,35.0,1,1.0,0.6078999999999724
421,12,0.5,0.0625,35.0,1,1.0,0.2243989999999485
422,12,0.5,0.0625,35.0,1,1.0,2.2986000000000786
423,12,0.5,0.25,-35.0,1,0.0,0.13879999999994652
424,12,0.7,0.25,-35.0,-1,1.0,0.568199999999706
425,12,0.5,1.0,-35.0,-1,1.0,0.2650989999999638
426,12,0.5,0.125,-35.0,-1,1.0,0.5985000000000582
427,12,0.5,0.125,-35.0,-1,1.0,0.2952989999998863
428,12,0.5,0.125,35.0,1,1.0,0.27890000000002146
429,12,0.5,1.0,35.0,1,1.0,0.41619999999988977
430,12,0.5,0.0625,35.0,1,1.0,4.1724999999999
431,12,0.5,0.125,-35.0,-1,1.0,0.3588999999999487
432,12,0.5,0.0625,35.0,1,1.0,0.2723989999999503
433,12,0.5,0.25,35.0,1,1.0,0.23929999999995744
434,12,0.5,0.0,35.0,1,1.0,0.34279999999967004
435,12,0.5,0.125,-35.0,-1,1.0,0.3869999999999436
436,12,0.5,1.0,-35.0,-1,1.0,0.21939999999995052
437,12,0.5,0.0,35.0,1,1.0,2.6204989999998816
438,12,0.5,0.0625,-35.0,1,0.0,0.22319899999979498
439,12,0.7,0.0625,-35.0,-1,1.0,0.6336989999999787
440,12,0.5,1.0,-35.0,-1,1.0,0.2267989999998008
441,12,0.5,0.0,-35.0,-1,1.0,0.45059999999989486
442,12,0.5,1.0,35.0,1,1.0,0.2768989999999576
443,12,0.5,0.125,35.0,1,1.0,0.22019899999986592
444,12,0.5,0.125,35.0,1,1.0,0.5142000000000735
445,12,0.5,0.0,35.0,-1,0.0,0.49379999999973734
446,12,0.5,0.0625,35.0,1,1.0,2.7572989999998754
447,12,0.5,0.125,-35.0,1,0.0,0.49769999999966785
448,12,0.5,0.0,35.0,1,1.0,0.2843000000000302
449,12,0.5,1.0,-35.0,-1,1.0,0.3575989999997091
450,12,0.5,0.0625,35.0,-1,0.0,0.571100000000115
451,12,0.5,0.0625,-35.0,1,0.0,1.4011999999997897
452,12,0.5,0.25,-35.0,-1,1.0,0.2613989999997557
453,12,0.5,0.0625,35.0,1,1.0,0.22499900000002526
454,12,0.5,0.125,-35.0,-1,1.0,0.40869899999984227
455,12,0.5,0.125,35.0,1,1.0,0.15859899999986737
456,12,0.5,0.125,35.0,1,1.0,0.6249989999998888
457,12,0.5,1.0,35.0,1,1.0,0.259199999999737
458,12,0.5,0.125,-35.0,-1,1.0,0.5718999999999141
459,12,0.5,1.0,-35.0,-1,1.0,0.21189899999990303
460,12,0.5,1.0,-35.0,-1,1.0,0.20899899999994886
461,12,0.5,1.0,35.0,1,1.0,0.20920000000000982
462,12,0.5,0.25,35.0,1,1.0,0.24959899999976187
463,12,0.5,0.0625,35.0,-1,0.0,0.7787989999999354
464,12,0.5,0.0625,35.0,1,1.0,0.35599900000011075
465,12,0.5,0.0625,-35.0,1,0.0,0.0494989999997415
466,12,0.5,0.0625,35.0,1,1.0,0.3833999999997104
467,12,0.5,0.0,35.0,-1,0.0,0.15659899999991467
468,12,0.5,0.25,-35.0,-1,1.0,0.35979900000006637
469,12,0.5,0.125,-35.0,1,0.0,0.34979999999995925
470,12,0.6,0.125,-35.0,1,0.0,3.736799999999903
471,12,0.5,1.0,35.0,1,1.0,0.27979999999979555
472,12,0.5,0.125,35.0,1,1.0,0.31999999999993634
473,12,0.5,0.125,35.0,1,1.0,0.9099999999998545
474,12,0.5,0.25,-35.0,-1,1.0,0.5968000000000302
475,12,0.5,1.0,35.0,1,1.0,0.24059999999985848
476,12,0.5,0.0,-35.0,-1,1.0,0.40380000000004657
477,12,0.5,0.125,35.0,1,1.0,0.1839999999997417
478,12,0.5,0.0625,-35.0,1,0.0,0.2271989999997004
479,12,0.5,0.25,-35.0,-1,1.0,0.43059900000002926
480,12,0.5,0.0625,35.0,1,1.0,0.22720000000003893
481,12,0.5,0.125,-35.0,-1,1.0,0.29749999999989996
482,12,0.5,0.125,-35.0,-1,1.0,0.2807999999999993
483,12,0.5,0.0,35.0,1,1.0,0.8642999999999574
484,12,0.5,1.0,-35.0,-1,1.0,0.4577990000000227
485,12,0.5,0.25,-35.0,-1,1.0,0.20830000000000837
486,12,0.5,0.0625,-35.0,1,0.0,0.26139999999986685
487,12,0.5,0.0625,35.0,1,1.0,0.3113989999999376
488,12,0.5,1.0,-35.0,-1,1.0,0.3578989999998612
489,12,0.5,0.0625,-35.0,1,0.0,0.2681999999999789
490,12,0.5,0.125,-35.0,-1,1.0,0.3149989999999434
491,12,0.5,0.125,35.0,1,1.0,0.3550989999998819
492,12,0.5,0.25,-35.0,-1,1.0,0.2286989999997786
493,12,0.5,0.0625,35.0,-1,0.0,0.13869900000008784
494,12,0.5,0.25,-35.0,1,0.0,2.725599999999986
495,12,0.5,0.0625,-35.0,1,0.0,0.4054999999998472
496,12,0.5,0.125,-35.0,1,0.0,0.46550000000002
497,12,0.5,0.25,35.0,1,1.0,0.24569999999994252
498,12,0.5,0.25,-35.0,-1,1.0,0.2789989999998852
499,12,0.5,1.0,-35.0,-1,1.0,0.2624999999998181
500,12,0.5,0.125,35.0,-1,0.0,0.20920000000000982
501,12,0.5,0.125,35.0,1,1.0,0.6964989999999034
502,12,0.5,1.0,35.0,1,1.0,0.19299899999987247
503,12,0.5,0.0,-35.0,1,0.0,0.2928989999998066
504,12,0.5,0.125,-35.0,-1,1.0,0.46329899999977897
505,12,0.5,0.125,35.0,1,1.0,0.24360000000001492
506,12,0.5,1.0,-35.0,1,0.0,0.10359900000003108
507,12,0.5,0.0625,35.0,1,1.0,2.913199000000077
508,12,0.5,0.125,35.0,1,1.0,0.5471999999999753
509,12,0.5,0.25,35.0,1,1.0,0.31429899999989175
510,12,0.5,0.25,-35.0,-1,1.0,0.3302000000001044
511,12,0.5,0.25,35.0,1,1.0,0.29439899999988484
512,12,0.5,0.0,-35.0,1,0.0,3.7670000000000528
513,12,0.8,0.0,-35.0,1,0.0,0.3107999999997446
514,12,0.5,1.0,-35.0,-1,1.0,0.4045000000000982
515,12,0.5,1.0,35.0,1,1.0,0.33409899999992376
516,12,0.5,1.0,35.0,1,1.0,0.564399000000094
517,12,0.5,0.0625,-35.0,-1,1.0,1.6114000000000033
518,12,0.5,1.0,-35.0,-1,1.0,0.5812000000000808
519,12,0.5,0.25,35.0,1,1.0,0.28139899999996487
520,12,0.5,0.25,35.0,1,1.0,0.308699999999817
521,12,0.5,0.125,35.0,1,1.0,0.24149999999985994
522,12,0.5,0.125,35.0,-1,0.0,0.8320989999997437
523,12,0.5,0.125,-35.0,1,0.0,1.1550999999999476
524,12,0.5,0.125,-35.0,1,0.0,1.2819999999999254
525,12,0.5,0.0,-35.0,1,0.0,1.94600000000014
526,12,0.5,0.125,-35.0,1,0.0,0.6327989999999772
527,12,0.7,0.125,-35.0,-1,1.0,0.2357999999999265
528,12,0.5,1.0,35.0,1,1.0,0.29579899999998815
529,12,0.5,1.0,-35.0,-1,1.0,0.5289999999999964
530,12,0.5,1.0,35.0,1,1.0,0.246199999999817
531,12,0.5,0.125,35.0,1,1.0,0.3025990000001002
532,12,0.5,0.125,35.0,1,1.0,0.1897989999999936
533,12,0.5,1.0,35.0,1,1.0,0.10329999999999018
534,12,0.5,0.0,-35.0,1,0.0,0.3431989999999132
535,12,0.5,0.0625,-35.0,-1,1.0,0.31349999999997635
536,12,0.5,0.125,-35.0,-1,1.0,0.2965990000000147
537,12,0.5,1.0,-35.0,1,0.0,0.15370000000007167
538,12,0.7,1.0,-35.0,-1,1.0,0.24029900000005
539,12,0.5,1.0,35.0,1,1.0,0.2566989999997986
540,12,0.5,0.125,35.0,1,1.0,0.29729900000006637
541,12,0.5,1.0,35.0,1,1.0,0.07379999999989195
542,12,0.5,0.0,-35.0,1,0.0,0.45699999999987995
543,12,0.7,0.0,35.0,1,1.0,0.44709999999986394
544,12,0.5,1.0,-35.0,-1,1.0,0.22709899999995287
545,12,0.5,0.0625,35.0,1,1.0,0.420598999999811
546,12,0.5,0.25,-35.0,-1,1.0,0.6007990000000518
547,12,0.5,0.125,35.0,1,1.0,0.18100000000004002
548,12,0.5,0.0,-35.0,1,0.0,0.3108999999999469
549,12,0.8,0.0,35.0,-1,0.0,0.7314000000001215
550,12,0.5,1.0,-35.0,-1,1.0,0.2645999999999731
551,12,0.5,0.25,35.0,1,1.0,0.22479999999995925
552,12,0.5,0.125,35.0,1,1.0,0.26119900000003327
553,12,0.5,1.0,35.0,1,1.0,0.1981989999999314
554,12,0.5,0.25,35.0,1,1.0,0.8353999999997086
555,12,0.5,1.0,-35.0,-1,1.0,0.25169899999991685
556,12,0.5,0.25,-35.0,-1,1.0,0.2417000000000371
557,12,0.5,0.0625,35.0,-1,0.0,0.18519999999989523
558,12,0.5,0.25,-35.0,-1,1.0,0.3615989999998419
559,12,0.5,0.0625,-35.0,-1,1.0,0.5251999999998134
560,12,0.5,1.0,35.0,1,1.0,0.18899999999985084
561,12,0.5,0.0625,-35.0,-1,1.0,0.6089990000000398
562,12,0.5,0.25,35.0,1,1.0,0.20919899999989866
563,12,0.5,0.0,-35.0,-1,1.0,0.5089989999999034
564,12,0.5,0.0,-35.0,-1,1.0,0.46620000000007167
565,12,0.5,0.25,-35.0,-1,1.0,0.3489999999999327
566,12,0.5,0.0,35.0,1,1.0,1.653099999999995
567,12,0.5,0.0,-35.0,1,0.0,0.21279999999978827
568,12,0.5,0.0,-35.0,-1,1.0,0.7130990000000565
569,12,0.5,0.125,-35.0,-1,1.0,0.22669900000005327
570,12,0.5,0.0625,35.0,1,1.0,0.23969999999985703
571,12,0.5,0.0625,35.0,-1,0.0,0.1835990000001857
572,12,0.5,0.0625,-35.0,-1,1.0,0.3097989999998845
573,12,0.5,0.0625,-35.0,1,0.0,0.5199989999998706
574,12,0.4,0.0625,35.0,1,1.0,0.4800999999999931
575,12,0.5,1.0,35.0,1,1.0,0.2773989999998321
576,12,0.5,0.0,-35.0,-1,1.0,0.26729999999997744
577,12,0.5,0.125,35.0,1,1.0,0.21369999999978972
578,12,0.5,1.0,-35.0,-1,1.0,0.2541989999999714
579,12,0.5,0.25,-35.0,-1,1.0,0.5442989999999099
580,12,0.5,0.25,35.0,1,1.0,0.44089999999982865
581,12,0.5,0.0625,35.0,1,1.0,0.32409999999981665
582,12,0.5,0.25,35.0,1,1.0,0.27079899999966983
583,12,0.5,1.0,35.0,1,1.0,0.23089899999990848
584,12,0.5,1.0,-35.0,-1,1.0,0.25129999999990105
585,12,0.5,0.0,35.0,1,1.0,0.7545999999999822
586,12,0.5,0.125,35.0,1,1.0,0.48460000000000036
587,12,0.5,1.0,-35.0,-1,1.0,0.19830000000001746
588,12,0.5,1.0,35.0,1,1.0,0.2719999999999345
589,12,0.5,0.0625,-35.0,-1,1.0,0.351598999999851
590,12,0.5,0.0625,35.0,-1,0.0,0.3251999999997679
591,12,0.5,0.25,-35.0,-1,1.0,0.6151990000000751
592,12,0.5,0.0,-35.0,1,0.0,0.42840000000001055
593,12,0.5,0.0625,-35.0,-1,1.0,0.36849899999992886
594,12,0.5,1.0,-35.0,-1,1.0,0.8220000000001164
595,12,0.5,0.125,35.0,1,1.0,0.4155989999999292
596,12,0.5,1.0,35.0,1,1.0,0.585399999999936
597,12,0.5,1.0,35.0,1,1.0,0.20259900000019115
598,12,0.5,0.25,-35.0,1,0.0,4.295799999999872
599,12,0.5,0.25,35.0,1,1.0,0.16269899999997506
600,12,0.5,0.0625,35.0,1,1.0,0.22949999999991633
601,12,0.5,0.25,-35.0,-1,1.0,0.25620000000026266
602,12,0.5,0.25,-35.0,-1,1.0,0.44969899999978225
603,12,0.5,0.0625,35.0,1,1.0,0.37319899999965855
604,12,0.5,0.25,35.0,1,1.0,0.23339900000019043
605,12,0.5,0.0625,35.0,1,1.0,5.959798999999748
606,12,0.5,0.0625,-35.0,-1,1.0,0.39349899999979243
607,12,0.5,0.25,-35.0,-1,1.0,0.657198999999764
608,12,0.5,0.0,35.0,1,1.0,0.9402999999997519
609,12,0.5,0.25,35.0,1,1.0,0.2810989999998128
610,12,0.5,0.25,35.0,1,1.0,0.27049899999974514
611,12,0.5,0.0625,-35.0,1,0.0,0.21740000000045256
612,12,0.5,0.25,35.0,1,1.0,7.807599999999638
613,12,0.5,0.125,-35.0,1,0.0,0.23129900000003545
614,12,0.5,0.25,35.0,1,1.0,0.3449000000000524
615,12,0.5,1.0,-35.0,-1,1.0,0.2316000000000713
616,12,0.5,0.25,-35.0,1,0.0,0.061700000000200816
617,12,0.5,0.25,35.0,1,1.0,0.28489900000022317
618,12,0.5,0.0,35.0,1,1.0,1.2755000000001928
619,12,0.5,0.25,35.0,1,1.0,0.23839899999984482
620,12,0.5,0.0625,35.0,1,1.0,3.675198999999793
621,12,0.5,0.125,35.0,1,1.0,0.17259899999999107
622,12,0.5,0.0,35.0,1,1.0,0.22879899999998088
623,12,0.5,0.25,-35.0,-1,1.0,0.24929900000006455
624,12,0.5,1.0,35.0,1,1.0,0.3289990000002945
625,12,0.5,0.125,35.0,1,1.0,0.2130000000001928
626,12,0.5,0.125,35.0,1,1.0,0.28239999999959764
627,12,0.5,0.0625,35.0,1,1.0,0.3659989999996469
628,12,0.5,0.0625,35.0,1,1.0,0.2927999999997155
629,12,0.5,0.0625,35.0,1,1.0,0.6860000000001492
630,12,0.5,0.25,-35.0,-1,1.0,0.49619899999970585
631,12,0.5,0.25,35.0,1,1.0,0.29989900000009584
632,12,0.5,0.0625,35.0,1,1.0,0.2901999999999134
633,12,0.5,1.0,-35.0,1,0.0,0.08959899999990739
634,12,0.9,1.0,-35.0,-1,1.0,0.41980000000012296
635,12,0.5,1.0,-35.0,-1,1.0,0.2800990000000638
636,12,0.5,0.125,-35.0,-1,1.0,0.4600999999997839
637,12,0.5,0.0,-35.0,1,0.0,0.8234989999996287
638,12,0.5,0.0,-35.0,1,0.0,0.5039000000001579
639,12,0.5,0.125,-35.0,-1,1.0,0.35399999999981446
640,12,0.5,0.0625,-35.0,1,0.0,0.35029900000017733
641,12,0.5,0.0,-35.0,1,0.0,2.6442990000000464
642,12,0.5,0.0,-35.0,1,0.0,0.39079999999967185
643,12,0.5,0.25,35.0,1,1.0,0.32429999999976644
644,12,0.5,0.125,-35.0,-1,1.0,0.34440000000040527
645,12,0.5,0.125,35.0,1,1.0,0.3313999999995758
646,12,0.5,0.25,35.0,1,1.0,0.2746990000000551
647,12,0.5,1.0,-35.0,-1,1.0,0.25129999999990105
648,12,0.5,0.125,35.0,1,1.0,0.22119900000006965
649,12,0.5,0.0,-35.0,1,0.0,3.444698999999673
650,12,0.5,0.25,35.0,1,1.0,0.24209999999948195
651,12,0.5,0.0625,35.0,-1,0.0,0.46519999999964057
652,12,0.5,0.0625,35.0,1,1.0,0.3251000000000204
653,12,0.5,0.125,35.0,1,1.0,0.1952000000001135
654,12,0.5,1.0,-35.0,-1,1.0,0.31849899999997433
655,12,0.5,0.0625,35.0,1,1.0,0.3956990000001497
656,12,0.5,0.0,-35.0,1,0.0,2.739100000000235
657,12,0.7,0.0,-35.0,1,0.0,4.922498999999789
658,12,0.5,1.0,-35.0,-1,1.0,0.31599899999991976
659,12,0.5,1.0,-35.0,-1,1.0,0.28589899999997215
660,12,0.5,0.0625,35.0,1,1.0,0.26630000000022847
661,12,0.5,0.125,-35.0,-1,1.0,0.26609899999994013
662,12,0.5,1.0,-35.0,-1,1.0,0.3960989999995945
663,12,0.5,1.0,35.0,1,1.0,0.2796000000003005
664,12,0.5,0.0625,-35.0,1,0.0,2.7369989999997415
665,12,0.5,0.125,-35.0,1,0.0,0.4566999999997279
666,12,0.6,0.125,-35.0,-1,1.0,0.3732989999998608
667,12,0.5,1.0,35.0,1,1.0,0.253299999999399
668,12,0.5,0.125,35.0,1,1.0,0.3370999999997366
669,12,0.5,0.0625,35.0,1,1.0,0.6508999999996377
670,12,0.5,1.0,35.0,1,1.0,0.2702990000002501
671,12,0.5,0.0625,35.0,1,1.0,0.18089899999995396
672,12,0.5,0.0625,35.0,1,1.0,4.8641999999999825
673,12,0.5,1.0,35.0,1,1.0,0.1475999999997839
674,12,0.5,0.0625,-35.0,-1,1.0,0.39129899999988993
675,12,0.5,1.0,35.0,1,1.0,0.17780000000038854
676,12,0.5,0.25,-35.0,-1,1.0,0.3382999999994354
677,12,0.5,0.125,35.0,-1,0.0,0.5045990000003258
678,12,0.5,0.25,35.0,1,1.0,0.3179990000003272
679,12,0.5,0.125,35.0,1,1.0,0.3348000000000866
680,12,0.5,1.0,-35.0,-1,1.0,0.2948989999999867
681,12,0.5,0.25,-35.0,-1,1.0,0.25870000000031723
682,12,0.5,0.25,35.0,1,1.0,0.20169999999961874
683,12,0.5,1.0,35.0,1,1.0,0.20870000000013533
684,12,0.5,0.0625,-35.0,-1,1.0,0.3818999999998596
685,12,0.5,0.125,-35.0,1,0.0,0.17859999999973297
686,12,0.5,0.125,35.0,1,1.0,0.9954000000002452
687,12,0.5,1.0,35.0,1,1.0,0.2854989999996178
688,12,0.5,1.0,-35.0,-1,1.0,0.4924989999999525
689,12,0.5,0.125,-35.0,-1,1.0,0.5992000000001099
690,12,0.5,0.25,-35.0,-1,1.0,0.28909999999996217
691,12,0.5,0.0625,-35.0,1,0.0,2.6693999999997686
692,12,0.5,0.25,-35.0,-1,1.0,0.24949999999989814
693,12,0.5,0.25,-35.0,-1,1.0,0.3663000000001375
694,12,0.5,0.25,35.0,1,1.0,0.14959899999985282
695,12,0.5,0.0,35.0,1,1.0,0.23979999999983193
696,12,0.5,0.125,35.0,1,1.0,1.0334990000001198
697,12,0.5,1.0,35.0,1,1.0,2.68659899999966
698,12,0.5,0.0625,35.0,1,1.0,0.5172000000002299
699,12,0.5,1.0,-35.0,-1,1.0,0.28019899999981135
700,12,0.5,1.0,35.0,1,1.0,0.2875989999997728
701,12,0.5,0.25,35.0,1,1.0,0.3609000000001288
702,12,0.5,0.0,-35.0,1,0.0,1.6572989999999663
703,12,0.5,0.125,35.0,1,1.0,0.3575989999999365
704,12,0.5,0.25,-35.0,-1,1.0,0.30409999999983484
705,12,0.5,0.0625,35.0,1,1.0,0.17759899999964546
706,12,0.5,0.25,-35.0,-1,1.0,0.31799899999987247
707,12,0.5,1.0,-35.0,-1,1.0,0.264498999999887
708,12,0.5,0.0625,-35.0,1,0.0,1.5747989999999845
709,12,0.6,0.0625,-35.0,1,0.0,2.221498999999767
710,12,0.5,1.0,35.0,1,1.0,9.581498999999894
711,12,0.5,0.0625,-35.0,1,0.0,0.8620989999999438
712,12,0.5,0.25,35.0,1,1.0,4.448798999999781
713,12,0.5,0.0,35.0,1,1.0,0.30199899999979607
714,12,0.5,1.0,35.0,1,1.0,7.272699999999531
715,12,0.5,1.0,35.0,1,1.0,0.7760999999995875
716,12,0.5,0.0625,35.0,-1,0.0,0.27620000000024447
717,12,0.5,0.125,35.0,1,1.0,30.03289900000027
718,12,0.5,0.125,35.0,1,1.0,15.310699999999997
719,12,0.5,0.0625,-35.0,1,0.0,0.4276999999997315
720,12,0.5,0.0625,-35.0,1,0.0,4.0645999999997
721,12,0.5,0.25,-35.0,1,0.0,2.3317000000001826
722,12,0.5,0.0,35.0,1,1.0,10.431500000000142
723,12,0.5,0.0625,-35.0,1,0.0,12.208498999999847
724,12,0.9,0.0625,35.0,1,1.0,0.5823989999998958
725,12,0.5,1.0,-35.0,-1,1.0,0.37259999999969295
726,12,0.5,1.0,35.0,1,1.0,11.25610000000006
727,12,0.5,1.0,35.0,1,1.0,1.0063000000000102
728,12,0.5,1.0,35.0,1,1.0,0.5266999999998916
729,12,0.5,1.0,35.0,1,1.0,0.5564989999998033
730,12,0.5,0.0625,35.0,1,1.0,6.0166000000003805
731,12,0.5,0.25,-35.0,-1,1.0,0.4502999999995154
732,12,0.5,0.0,35.0,-1,0.0,0.1135999999996784
733,12,0.5,0.25,-35.0,1,0.0,1.013800000000174
734,12,0.7,0.25,35.0,1,1.0,4.160699000000022
735,12,0.5,1.0,-35.0,-1,1.0,0.2739000000001397
736,12,0.5,1.0,-35.0,-1,1.0,0.290798999999879
737,12,0.5,0.0625,-35.0,1,0.0,0.36750000000029104
738,12,0.5,0.125,-35.0,-1,1.0,1.0652000000000044
739,12,0.5,1.0,-35.0,-1,1.0,0.25839899999982663
740,12,0.5,1.0,35.0,1,1.0,0.20490000000017972
741,12,0.5,0.25,-35.0,-1,1.0,0.2513989999997648
742,12,0.5,1.0,35.0,1,1.0,0.7012999999997191
743,12,0.5,0.25,35.0,1,1.0,0.7314000000001215
744,12,0.5,0.0625,-35.0,-1,1.0,0.40159899999980553
1,13,0.5,0.25,35.0,1,1.0,10.8671
2,13,0.5,0.25,35.0,1,1.0,1.2533010000000004
3,13,0.5,0.125,35.0,0,0.0,59.92790000000001
4,13,0.5,0.25,-35.0,-1,1.0,0.05719999999999459
5,13,0.5,1.0,35.0,1,1.0,0.2347999999999928
6,13,0.5,1.0,-35.0,-1,1.0,0.2792999999999921
7,13,0.5,1.0,-35.0,-1,1.0,0.28550099999999645
8,13,0.5,0.0,35.0,-1,0.0,4.129199999999983
9,13,0.6,0.0,-35.0,-1,1.0,0.2905009999999919
10,13,0.5,1.0,-35.0,-1,1.0,0.26490100000000893
11,13,0.5,0.125,35.0,1,1.0,0.9205999999999932
12,13,0.5,0.125,-35.0,-1,1.0,0.2853009999999898
13,13,0.5,0.25,-35.0,-1,1.0,0.25440100000000143
14,13,0.5,0.0,-35.0,-1,1.0,0.44020099999998763
15,13,0.5,0.0625,-35.0,-1,1.0,0.3219009999999969
16,13,0.5,1.0,35.0,1,1.0,0.2900009999999895
17,13,0.5,0.125,35.0,-1,0.0,0.2741009999999733
18,13,0.5,0.25,35.0,1,1.0,0.4605009999999936
19,13,0.5,0.0625,35.0,-1,0.0,3.7893009999999947
20,13,0.5,0.0625,35.0,-1,0.0,0.6476999999999862
21,13,0.5,0.25,-35.0,-1,1.0,0.27160099999997556
22,13,0.5,1.0,-35.0,-1,1.0,0.18629999999998859
23,13,0.5,0.25,35.0,1,1.0,0.2530000000000143
24,13,0.5,0.125,35.0,1,1.0,0.3337010000000191
25,13,0.5,0.125,35.0,1,1.0,0.3301000000000158
26,13,0.5,0.25,-35.0,-1,1.0,0.2320009999999968
27,13,0.5,0.125,35.0,1,1.0,0.35000000000002274
28,13,0.5,1.0,-35.0,-1,1.0,0.2884999999999991
29,13,0.5,1.0,35.0,1,1.0,0.27709999999999013
30,13,0.5,0.25,35.0,1,1.0,0.20879999999999654
31,13,0.5,0.125,-35.0,-1,1.0,0.34790000000000987
32,13,0.5,0.125,35.0,-1,0.0,0.504700999999983
33,13,0.5,0.0625,-35.0,1,0.0,0.34919999999996776
34,13,0.5,0.125,-35.0,-1,1.0,0.3000009999999804
35,13,0.5,0.0,-35.0,-1,1.0,5.361600999999979
36,13,0.5,0.0,35.0,-1,0.0,0.8662009999999896
37,13,0.5,0.25,35.0,1,1.0,0.2845999999999833
38,13,0.5,0.0625,35.0,1,1.0,0.3149999999999693
39,13,0.5,0.0625,-35.0,-1,1.0,0.26979999999997517
40,13,0.5,1.0,-35.0,-1,1.0,0.21840100000000007
41,13,0.5,0.0625,35.0,1,1.0,0.41180099999996855
42,13,0.5,0.0,-35.0,-1,1.0,0.35490100000001235
43,13,0.5,1.0,35.0,1,1.0,0.3513010000000065
44,13,0.5,0.25,35.0,1,1.0,0.3357000000000028
45,13,0.5,1.0,35.0,1,1.0,0.24150000000000205
46,13,0.5,0.0625,-35.0,-1,1.0,0.2930009999999754
47,13,0.5,0.25,-35.0,-1,1.0,0.22039999999998372
48,13,0.5,0.25,35.0,1,1.0,0.20369999999999777
49,13,0.5,0.0625,-35.0,-1,1.0,1.8109000000000037
50,13,0.5,0.25,-35.0,-1,1.0,0.2562009999999759
51,13,0.5,1.0,35.0,1,1.0,0.2921000000000049
52,13,0.5,0.0625,-35.0,-1,1.0,0.6273000000000195
53,13,0.5,1.0,35.0,1,1.0,0.3083000000000027
54,13,0.5,0.25,35.0,1,1.0,0.39000099999998383
55,13,0.5,0.25,35.0,1,1.0,0.3306010000000015
56,13,0.5,0.125,35.0,1,1.0,0.43089999999995143
57,13,0.5,1.0,-35.0,-1,1.0,0.2856010000000424
58,13,0.5,0.25,35.0,1,1.0,0.5690010000000143
59,13,0.5,0.25,-35.0,-1,1.0,0.2402010000000132
60,13,0.5,1.0,35.0,1,1.0,0.29300100000000384
61,13,0.5,0.0625,35.0,-1,0.0,0.22580099999998993
62,13,0.5,0.125,-35.0,1,0.0,0.2804010000000403
63,13,0.5,0.125,-35.0,-1,1.0,0.27990100000005214
64,13,0.5,1.0,-35.0,-1,1.0,0.24260100000009288
65,13,0.5,1.0,-35.0,-1,1.0,0.2563010000000645
66,13,0.5,0.0625,35.0,-1,0.0,0.21600100000000566
67,13,0.5,0.125,-35.0,-1,1.0,0.24620000000004438
68,13,0.5,0.25,-35.0,-1,1.0,0.08990000000005693
69,13,0.5,0.125,-35.0,-1,1.0,0.18060000000002674
70,13,0.5,1.0,-35.0,-1,1.0,0.23460100000005468
71,13,0.5,0.0625,35.0,-1,0.0,0.3418010000000322
72,13,0.5,0.25,-35.0,-1,1.0,0.18720000000001846
73,13,0.5,0.0625,-35.0,-1,1.0,0.2542010000000232
74,13,0.5,1.0,35.0,1,1.0,0.3686000000000149
75,13,0.5,0.125,-35.0,-1,1.0,0.19380100000000766
76,13,0.5,0.0625,35.0,-1,0.0,0.2247000000000412
77,13,0.5,0.0625,35.0,1,1.0,0.3813000000000102
78,13,0.5,1.0,35.0,-1,0.0,0.14690000000001646
79,13,0.5,0.0625,-35.0,1,0.0,0.3772999999999911
80,13,0.5,0.25,-35.0,-1,1.0,0.28590000000002647
81,13,0.5,0.0,-35.0,-1,1.0,0.23380000000003065
82,13,0.5,0.0625,-35.0,-1,1.0,0.26490100000000893
83,13,0.5,0.125,-35.0,-1,1.0,0.27379999999999427
84,13,0.5,0.125,-35.0,-1,1.0,0.2625000000000455
85,13,0.5,1.0,35.0,1,1.0,0.31749999999999545
86,13,0.5,0.25,35.0,-1,0.0,0.20560100000005832
87,13,0.3,0.25,-35.0,-1,1.0,0.17540000000002465
88,13,0.5,1.0,-35.0,-1,1.0,0.2560010000000261
89,13,0.5,0.0,35.0,-1,0.0,2.605700000000013
90,13,0.5,0.0625,-35.0,-1,1.0,0.1852999999999838
91,13,0.5,0.25,35.0,1,1.0,0.2837000000000103
92,13,0.5,0.0,35.0,-1,0.0,0.32430100000004813
93,13,0.5,0.125,-35.0,-1,1.0,0.20120000000002847
94,13,0.5,0.25,35.0,1,1.0,0.8923000000000343
95,13,0.5,0.0625,-35.0,-1,1.0,0.2917009999999891
96,13,0.5,0.0,35.0,-1,0.0,0.28740099999998847
97,13,0.5,0.125,35.0,1,1.0,0.36720100000002276
98,13,0.5,0.125,-35.0,1,0.0,0.26689999999996417
99,13,0.5,0.0,35.0,-1,0.0,0.2467009999999732
100,13,0.5,0.125,-35.0,-1,1.0,0.20730000000003201
101,13,0.5,0.0,-35.0,1,0.0,0.3662010000000464
102,13,0.5,0.0,-35.0,1,0.0,0.2984010000000126
103,13,0.5,0.25,-35.0,-1,1.0,0.19940000000002556
104,13,0.5,0.25,35.0,1,1.0,0.20290100000005395
105,13,0.5,1.0,35.0,1,1.0,0.3013000000000261
106,13,0.5,0.0625,-35.0,1,0.0,0.28239999999999554
107,13,0.5,0.25,35.0,1,1.0,0.5788009999999986
108,13,0.5,0.125,35.0,1,1.0,0.3182000000000471
109,13,0.5,0.125,-35.0,1,0.0,0.4546009999999683
110,13,0.5,0.125,35.0,1,1.0,0.32270100000005186
111,13,0.5,0.0625,-35.0,-1,1.0,1.4540010000000052
112,13,0.5,1.0,-35.0,-1,1.0,0.2446010000000456
113,13,0.5,1.0,-35.0,-1,1.0,0.26789999999999736
114,13,0.5,1.0,35.0,1,1.0,0.2400000000000091
115,13,0.5,0.125,-35.0,-1,1.0,0.24600100000003522
116,13,0.5,1.0,-35.0,-1,1.0,0.19410000000004857
117,13,0.5,1.0,-35.0,-1,1.0,0.21820000000002437
118,13,0.5,0.25,35.0,1,1.0,0.30090000000006967
119,13,0.5,1.0,-35.0,-1,1.0,0.19980000000003884
120,13,0.5,1.0,35.0,1,1.0,0.2710999999999899
121,13,0.5,0.0,-35.0,-1,1.0,0.20390000000003283
122,13,0.5,0.0,35.0,-1,0.0,0.19089999999999918
123,13,0.3,0.0,35.0,1,1.0,0.21670100000005732
124,13,0.5,1.0,-35.0,-1,1.0,0.2714000000000283
125,13,0.5,0.25,-35.0,-1,1.0,0.28880000000003747
126,13,0.5,0.125,35.0,1,1.0,0.3036000000000172
127,13,0.5,0.125,-35.0,1,0.0,0.38860000000005357
128,13,0.5,0.125,-35.0,1,0.0,0.2794010000000071
129,13,0.5,0.0,-35.0,-1,1.0,0.22660100000001648
130,13,0.5,1.0,35.0,-1,0.0,0.13390100000003713
131,13,0.5,0.0625,35.0,-1,0.0,0.393600000000049
132,13,0.5,0.0,-35.0,1,0.0,0.8648009999999999
133,13,0.5,0.0,-35.0,-1,1.0,0.20860000000004675
134,13,0.5,0.0625,-35.0,1,0.0,1.0842010000000073
135,13,0.5,0.125,35.0,-1,0.0,0.11360000000001946
136,13,0.5,0.25,35.0,1,1.0,0.3324000000000069
137,13,0.5,0.0,35.0,1,1.0,0.24250000000006366
138,13,0.5,0.0,-35.0,1,0.0,0.377900000000011
139,13,0.5,0.0,35.0,-1,0.0,0.33569999999997435
140,13,0.5,0.0625,35.0,1,1.0,0.315400000000011
141,13,0.5,1.0,-35.0,-1,1.0,0.18660100000005286
142,13,0.5,0.0625,35.0,1,1.0,0.3798999999999637
143,13,0.5,0.0625,35.0,1,1.0,0.9084009999999694
144,13,0.5,1.0,35.0,1,1.0,0.3442000000000007
145,13,0.5,1.0,-35.0,-1,1.0,0.21430099999997765
146,13,0.5,1.0,35.0,1,1.0,0.284099999999853
147,13,0.5,0.0,35.0,-1,0.0,0.17579999999998108
148,13,0.5,0.25,-35.0,-1,1.0,0.22050000000001546
149,13,0.5,1.0,-35.0,-1,1.0,0.15650000000005093
150,13,0.5,0.25,35.0,1,1.0,0.2856009999999287
151,13,0.5,0.125,35.0,1,1.0,0.26840100000003986
152,13,0.5,0.25,-35.0,-1,1.0,0.23279999999988377
153,13,0.5,0.125,-35.0,-1,1.0,0.13190099999997074
154,13,0.5,0.125,-35.0,-1,1.0,0.16599999999993997
155,13,0.5,0.0,35.0,1,1.0,0.34360099999992144
156,13,0.5,0.25,-35.0,-1,1.0,0.2618999999999687
157,13,0.5,1.0,-35.0,-1,1.0,0.20090000000004693
158,13,0.5,0.0625,-35.0,-1,1.0,0.22139999999990323
159,13,0.5,0.125,-35.0,-1,1.0,0.30880100000001676
160,13,0.5,0.125,35.0,1,1.0,0.23890000000005784
161,13,0.5,0.0625,35.0,-1,0.0,0.05470100000002276
162,13,0.5,0.125,-35.0,-1,1.0,0.26510099999984504
163,13,0.5,0.0,-35.0,1,0.0,0.7743000000000393
164,13,0.5,0.0625,35.0,1,1.0,1.667901000000029
165,13,0.5,1.0,-35.0,-1,1.0,0.2330010000000584
166,13,0.5,1.0,-35.0,1,0.0,0.08169999999995525
167,13,0.5,0.0625,-35.0,-1,1.0,0.17540099999996528
168,13,0.5,0.25,35.0,1,1.0,0.5529010000000198
169,13,0.5,1.0,-35.0,-1,1.0,0.29260099999999056
170,13,0.5,1.0,35.0,1,1.0,0.292699999999968
171,13,0.5,0.0625,35.0,1,1.0,0.2694010000000162
172,13,0.5,1.0,-35.0,-1,1.0,0.21500099999991562
173,13,0.5,1.0,-35.0,-1,1.0,0.23890099999994163
174,13,0.5,0.0625,-35.0,1,0.0,1.3089999999998554
175,13,0.5,0.0625,-35.0,-1,1.0,0.26450099999988197
176,13,0.5,1.0,-35.0,-1,1.0,0.23120000000005803
177,13,0.5,0.0,-35.0,-1,1.0,0.34629999999992833
178,13,0.5,0.0,-35.0,-1,1.0,0.3546999999999798
179,13,0.5,0.125,-35.0,-1,1.0,0.29109999999991487
180,13,0.5,0.0,35.0,-1,0.0,0.32090099999993527
181,13,0.5,0.0625,-35.0,1,0.0,1.4938000000000784
182,13,0.5,0.25,35.0,1,1.0,0.3968999999999596
183,13,0.5,0.125,35.0,1,1.0,0.21390099999996437
184,13,0.5,0.0625,-35.0,1,0.0,1.9383000000000266
185,13,0.5,0.125,35.0,-1,0.0,0.08939999999995507
186,13,0.4,0.125,-35.0,-1,1.0,0.23249999999995907
187,13,0.5,1.0,35.0,-1,0.0,0.17260099999998602
188,13,0.5,0.25,-35.0,-1,1.0,0.2767999999998665
189,13,0.5,0.25,-35.0,-1,1.0,0.18350099999997838
190,13,0.5,1.0,-35.0,-1,1.0,0.2113000000000511
191,13,0.5,0.0625,35.0,-1,0.0,0.24989999999991142
192,13,0.5,0.0625,-35.0,-1,1.0,0.294399999999996
193,13,0.5,0.0625,35.0,1,1.0,0.9648009999999658
194,13,0.5,0.125,-35.0,-1,1.0,0.3843009999999367
195,13,0.5,0.125,35.0,-1,0.0,0.19400099999984377
196,13,0.1,0.125,35.0,-1,0.0,0.45299999999997453
197,13,0.5,1.0,35.0,1,1.0,0.6940999999999349
198,13,0.5,0.0625,-35.0,-1,1.0,0.3141999999999143
199,13,0.5,1.0,-35.0,-1,1.0,0.13730099999997947
200,13,0.5,0.0,35.0,-1,0.0,0.26640100000008715
201,13,0.5,0.125,-35.0,-1,1.0,0.25080100000002403
202,13,0.5,0.0,35.0,-1,0.0,0.23529999999993834
203,13,0.2,0.0,-35.0,-1,1.0,0.22530099999983122
204,13,0.5,1.0,35.0,1,1.0,0.29340000000001965
205,13,0.5,0.0625,35.0,-1,0.0,0.22890099999983704
206,13,0.5,0.25,35.0,1,1.0,0.2516009999999369
207,13,0.5,0.125,35.0,1,1.0,3.6916009999999915
208,13,0.5,0.25,-35.0,-1,1.0,0.30460100000004786
209,13,0.5,1.0,35.0,1,1.0,0.31929999999999836
210,13,0.5,0.0625,-35.0,1,0.0,0.3272999999999229
211,13,0.5,0.125,35.0,-1,0.0,0.2477999999999838
212,13,0.5,0.125,-35.0,-1,1.0,0.2505999999999631
213,13,0.5,1.0,-35.0,-1,1.0,0.26919999999995525
214,13,0.5,0.25,-35.0,-1,1.0,0.2234009999999671
215,13,0.5,0.125,-35.0,-1,1.0,0.2363999999998896
216,13,0.5,0.25,35.0,-1,0.0,0.17709999999999582
217,13,0.5,0.0625,-35.0,-1,1.0,0.18600000000003547
218,13,0.5,0.0625,-35.0,-1,1.0,0.2033010000000104
219,13,0.5,1.0,-35.0,-1,1.0,0.21080099999994673
220,13,0.5,1.0,-35.0,-1,1.0,0.24060099999996964
221,13,0.5,0.125,-35.0,-1,1.0,0.13830099999995582
222,13,0.5,0.125,-35.0,-1,1.0,0.24710000000004584
223,13,0.5,0.25,-35.0,-1,1.0,0.1737999999999147
224,13,0.5,0.0625,35.0,-1,0.0,0.1611000000000331
225,13,0.5,0.125,-35.0,-1,1.0,0.2813009999999849
226,13,0.5,0.0625,35.0,1,1.0,1.2369009999998752
227,13,0.5,0.0625,-35.0,1,0.0,0.3449999999999136
228,13,0.5,0.0625,35.0,1,1.0,0.30320099999994454
229,13,0.5,0.125,35.0,1,1.0,0.3109999999999218
230,13,0.5,1.0,-35.0,-1,1.0,0.1934009999998807
231,13,0.5,0.25,35.0,1,1.0,0.3429999999998472
232,13,0.5,0.25,-35.0,-1,1.0,0.25149999999996453
233,13,0.5,0.25,35.0,1,1.0,0.24060099999996964
234,13,0.5,0.0625,-35.0,-1,1.0,0.2559009999999944
235,13,0.5,1.0,35.0,1,1.0,0.31560000000001764
236,13,0.5,0.25,35.0,1,1.0,2.703499999999849
237,13,0.5,0.0625,35.0,1,1.0,0.32690099999990707
238,13,0.5,0.25,35.0,1,1.0,0.2919999999999163
239,13,0.5,1.0,-35.0,-1,1.0,0.2355009999998856
240,13,0.5,0.0625,35.0,1,1.0,0.7255010000000084
241,13,0.5,0.125,35.0,1,1.0,0.30690099999992526
242,13,0.5,1.0,-35.0,-1,1.0,0.18639999999993506
243,13,0.5,0.25,35.0,1,1.0,0.6190010000000257
244,13,0.5,0.125,35.0,1,1.0,0.5213999999999714
245,13,0.5,0.0625,35.0,1,1.0,0.6265010000000757
246,13,0.5,0.0625,35.0,1,1.0,0.19219999999995707
247,13,0.5,0.0625,-35.0,-1,1.0,0.5497009999999136
248,13,0.5,0.25,-35.0,-1,1.0,0.3079009999999016
249,13,0.5,0.0,35.0,-1,0.0,0.4211999999999989
250,13,0.5,0.0625,35.0,1,1.0,0.5146009999999706
251,13,0.5,0.25,-35.0,-1,1.0,0.2463999999998805
252,13,0.5,0.125,35.0,1,1.0,0.42420000000004165
253,13,0.5,0.25,-35.0,-1,1.0,0.23080000000004475
254,13,0.5,1.0,35.0,1,1.0,0.30490000000008877
255,13,0.5,1.0,-35.0,-1,1.0,0.27640099999996437
256,13,0.5,0.125,-35.0,-1,1.0,0.16640100000006441
257,13,0.5,0.25,-35.0,-1,1.0,0.5556010000000242
258,13,0.5,1.0,35.0,1,1.0,0.3117009999999709
259,13,0.5,0.125,-35.0,-1,1.0,2.139699999999948
260,13,0.5,0.0,35.0,1,1.0,1.0050999999998567
261,13,0.5,0.0625,35.0,1,1.0,0.4647009999999909
262,13,0.5,0.125,35.0,1,1.0,0.5132009999999809
263,13,0.5,0.25,-35.0,1,0.0,0.20680099999992763
264,13,0.5,0.125,-35.0,-1,1.0,0.3051999999998998
265,13,0.5,0.25,35.0,1,1.0,1.0113010000000031
266,13,0.5,0.125,-35.0,-1,1.0,0.3344009999999571
267,13,0.5,1.0,-35.0,-1,1.0,0.29450100000008206
268,13,0.5,0.25,-35.0,-1,1.0,0.3106000000000222
269,13,0.5,0.125,35.0,1,1.0,0.26400000000001
270,13,0.5,0.125,-35.0,-1,1.0,0.30169999999998254
271,13,0.5,0.25,-35.0,-1,1.0,0.22649999999987358
272,13,0.5,0.25,-35.0,-1,1.0,0.32150099999989834
273,13,0.5,1.0,-35.0,-1,1.0,0.3106999999998834
274,13,0.5,1.0,-35.0,-1,1.0,0.2697999999999183
275,13,0.5,1.0,35.0,1,1.0,0.23749999999995453
276,13,0.5,1.0,-35.0,-1,1.0,0.2673009999999749
277,13,0.5,1.0,35.0,1,1.0,0.25070099999993545
278,13,0.5,0.0625,35.0,1,1.0,0.31009999999992033
279,13,0.5,0.125,-35.0,1,0.0,2.7289009999999507
280,13,0.4,0.125,-35.0,-1,1.0,0.6467010000000073
281,13,0.5,1.0,-35.0,-1,1.0,0.22540000000003602
282,13,0.5,0.0625,-35.0,-1,1.0,0.1909009999999398
283,13,0.5,0.0625,-35.0,-1,1.0,0.6567000000001144
284,13,0.5,0.0625,-35.0,1,0.0,1.5817999999999302
285,13,0.5,0.0625,-35.0,-1,1.0,0.3992009999999482
286,13,0.5,0.125,35.0,1,1.0,0.24940099999980703
287,13,0.5,0.25,-35.0,-1,1.0,0.2588999999998123
288,13,0.5,0.125,-35.0,-1,1.0,0.04689999999993688
289,13,0.5,0.125,35.0,1,1.0,0.48220099999991817
290,13,0.5,0.0625,-35.0,1,0.0,0.7007009999999809
291,13,0.5,0.25,35.0,1,1.0,0.39770099999986996
292,13,0.5,0.0625,35.0,1,1.0,0.4011999999999034
293,13,0.5,0.125,-35.0,1,0.0,0.27520000000004075
294,13,0.7,0.125,-35.0,-1,1.0,0.899599999999964
295,13,0.5,1.0,-35.0,-1,1.0,0.20240000000001146
296,13,0.5,1.0,35.0,1,1.0,0.2619999999999436
297,13,0.5,0.125,-35.0,-1,1.0,0.26959999999985484
298,13,0.5,0.125,-35.0,-1,1.0,0.28300000000001546
299,13,0.5,0.125,35.0,1,1.0,0.3564010000000053
300,13,0.5,1.0,-35.0,-1,1.0,0.24319999999988795
301,13,0.5,1.0,-35.0,-1,1.0,0.20649999999989177
302,13,0.5,0.125,35.0,1,1.0,0.2701009999999542
303,13,0.5,1.0,35.0,1,1.0,0.31330100000002403
304,13,0.5,0.25,35.0,1,1.0,0.3067999999999529
305,13,0.5,0.125,35.0,1,1.0,0.44010099999991326
306,13,0.5,0.0,35.0,1,1.0,0.46020099999998365
307,13,0.5,0.25,35.0,1,1.0,0.4169010000000526
308,13,0.5,1.0,35.0,1,1.0,0.29369999999994434
309,13,0.5,0.0,-35.0,-1,1.0,0.5472010000000864
310,13,0.5,0.25,35.0,1,1.0,3.260501000000204
311,13,0.5,0.125,-35.0,-1,1.0,0.34740000000010696
312,13,0.5,0.25,-35.0,-1,1.0,0.5676010000001952
313,13,0.5,0.0625,35.0,-1,0.0,2.9277000000001863
314,13,0.5,0.125,-35.0,-1,1.0,0.277800999999954
315,13,0.5,0.0625,35.0,1,1.0,0.5878010000001268
316,13,0.5,0.0625,-35.0,1,0.0,0.26460100000008424
317,13,0.5,0.0,35.0,-1,0.0,0.4147000000000389
318,13,0.5,0.0,35.0,1,1.0,4.724799999999959
319,13,0.5,0.0625,-35.0,-1,1.0,0.28170100000033926
320,13,0.5,0.25,35.0,1,1.0,0.2716009999999187
321,13,0.5,0.25,35.0,1,1.0,0.29850099999998747
322,13,0.5,0.0,35.0,-1,0.0,0.03520100000014281
323,13,0.5,0.0625,-35.0,-1,1.0,0.5352010000001428
324,13,0.5,0.0625,-35.0,-1,1.0,0.3221010000002025
325,13,0.5,0.25,35.0,1,1.0,0.318800999999894
326,13,0.5,0.0,35.0,1,1.0,2.7789010000001326
327,13,0.5,1.0,-35.0,-1,1.0,0.2557000000001608
328,13,0.5,1.0,35.0,1,1.0,0.219101000000137
329,13,0.5,0.25,-35.0,-1,1.0,0.26260099999990416
330,13,0.5,0.125,-35.0,-1,1.0,0.47270000000003165
331,13,0.5,0.125,35.0,1,1.0,0.2594000000001415
332,13,0.5,0.125,35.0,-1,0.0,0.08940000000029613
333,13,0.5,0.25,35.0,1,1.0,0.44310100000029706
334,13,0.5,0.125,35.0,1,1.0,0.46290099999987433
335,13,0.5,0.25,-35.0,-1,1.0,0.33310000000005857
336,13,0.5,0.25,-35.0,-1,1.0,0.31310099999996055
337,13,0.5,0.0625,35.0,1,1.0,0.2699009999998907
338,13,0.5,1.0,-35.0,-1,1.0,0.2601000000001932
339,13,0.5,0.0625,35.0,-1,0.0,0.9100009999999656
340,13,0.5,0.25,35.0,1,1.0,0.23010100000010425
341,13,0.5,0.0625,-35.0,-1,1.0,0.40350100000000566
342,13,0.5,0.25,35.0,1,1.0,0.2535000000000309
343,13,0.5,0.25,35.0,1,1.0,0.4103010000001177
344,13,0.5,0.0625,35.0,1,1.0,0.5604000000000724
345,13,0.5,0.0625,35.0,1,1.0,0.37380099999995764
346,13,0.5,0.0625,35.0,1,1.0,0.45060000000012224
347,13,0.5,0.125,-35.0,-1,1.0,0.37740000000007967
348,13,0.5,0.0,-35.0,1,0.0,2.237401000000091
349,13,0.5,0.125,35.0,1,1.0,2.670900000000074
350,13,0.5,0.125,-35.0,-1,1.0,0.2978010000001632
351,13,0.5,0.0625,35.0,-1,0.0,0.308100000000195
352,13,0.5,0.25,-35.0,-1,1.0,0.23790099999996528
353,13,0.5,0.25,35.0,1,1.0,0.5179000000000542
354,13,0.5,0.0625,35.0,-1,0.0,0.6382000000000971
355,13,0.5,0.25,35.0,1,1.0,0.27820100000008097
356,13,0.5,0.0625,-35.0,1,0.0,0.3283010000000104
357,13,0.5,0.0625,-35.0,1,0.0,0.4451010000000224
358,13,0.5,1.0,-35.0,-1,1.0,0.3085000000000946
359,13,0.5,0.0,35.0,1,1.0,0.241800000000012
360,13,0.5,1.0,-35.0,-1,1.0,0.27520000000004075
361,13,0.5,1.0,35.0,1,1.0,0.4453009999999722
362,13,0.5,0.125,35.0,1,1.0,0.328899999999976
363,13,0.5,1.0,35.0,1,1.0,0.2688010000001668
364,13,0.5,0.0625,35.0,1,1.0,0.2855000000001837
365,13,0.5,0.25,35.0,1,1.0,0.2723000000000866
366,13,0.5,0.0625,35.0,1,1.0,0.3025009999998929
367,13,0.5,0.0625,-35.0,1,0.0,0.5625
368,13,0.5,0.0625,-35.0,1,0.0,0.7726000000000113
369,13,0.5,0.125,-35.0,-1,1.0,0.4393000000000029
370,13,0.5,0.0,-35.0,1,0.0,2.5729010000000017
371,13,0.9,0.0,-35.0,-1,1.0,0.39290100000016537
372,13,0.5,1.0,-35.0,-1,1.0,0.2563999999999851
373,13,0.5,0.125,35.0,-1,0.0,0.4999000000002525
374,13,0.5,0.0625,35.0,-1,0.0,0.529901000000109
375,13,0.5,0.25,-35.0,-1,1.0,0.28330099999993763
376,13,0.5,1.0,35.0,1,1.0,0.2167010000002847
377,13,0.5,0.0625,-35.0,-1,1.0,0.3267000000000735
378,13,0.5,0.125,-35.0,-1,1.0,0.23680000000013024
379,13,0.5,0.25,-35.0,1,0.0,3.173700000000281
380,13,0.5,0.125,35.0,1,1.0,0.5438010000002578
381,13,0.5,0.0,35.0,1,1.0,2.763900000000149
382,13,0.5,0.25,-35.0,-1,1.0,0.2875000000001364
383,13,0.5,0.125,35.0,1,1.0,3.847501000000193
384,13,0.5,0.0,-35.0,1,0.0,0.3211010000002261
385,13,0.6,0.0,-35.0,1,0.0,1.0912000000000717
386,13,0.5,1.0,35.0,1,1.0,0.39780100000007224
387,13,0.5,0.125,-35.0,-1,1.0,0.34460100000023886
388,13,0.5,0.0,35.0,-1,0.0,0.37140000000022155
389,13,0.5,0.0625,-35.0,1,0.0,0.2881000000002132
390,13,0.7,0.0625,-35.0,-1,1.0,0.16150099999981649
391,13,0.5,1.0,35.0,1,1.0,0.23490100000003622
392,13,0.5,0.0625,-35.0,1,0.0,0.5217010000003484
393,13,0.5,0.25,-35.0,-1,1.0,0.5918010000000322
394,13,0.5,0.25,-35.0,-1,1.0,0.3586010000001352
395,13,0.5,1.0,35.0,1,1.0,0.3386000000000422
396,13,0.5,1.0,-35.0,-1,1.0,0.2655000000002019
397,13,0.5,0.0625,-35.0,1,0.0,0.3322010000001683
398,13,0.5,0.0625,-35.0,1,0.0,2.508800000000292
399,13,0.5,0.0,35.0,1,1.0,0.4190000000000964
400,13,0.5,0.25,35.0,1,1.0,0.2558010000000195
401,13,0.5,0.125,-35.0,1,0.0,0.46240099999999984
402,13,0.5,0.25,35.0,1,1.0,0.4759000000001379
403,13,0.5,0.25,-35.0,-1,1.0,0.2559009999999944
404,13,0.5,0.125,-35.0,-1,1.0,0.3394010000001799
405,13,0.5,0.25,35.0,1,1.0,0.2394000000001597
406,13,0.5,0.125,-35.0,-1,1.0,0.45289999999999964
407,13,0.5,0.0625,35.0,-1,0.0,7.306299999999965
408,13,0.5,0.25,35.0,1,1.0,7.693500000000313
409,13,0.5,1.0,35.0,1,1.0,5.910300000000234
410,13,0.5,0.0,-35.0,-1,1.0,25.977100999999948
411,13,0.5,0.25,-35.0,1,0.0,1.5579000000002452
412,13,0.5,0.25,-35.0,1,0.0,19.96810000000005
413,13,0.5,1.0,-35.0,-1,1.0,0.6253010000000359
414,13,0.5,0.125,35.0,1,1.0,4.675500000000056
415,13,0.5,0.25,35.0,-1,0.0,5.132400999999845
416,13,0.5,0.25,35.0,1,1.0,9.632501000000047
417,13,0.5,1.0,35.0,1,1.0,11.356201000000056
418,13,0.5,0.0,35.0,1,1.0,21.296701000000212
419,13,0.5,1.0,35.0,-1,0.0,6.000700000000052
420,13,0.5,0.25,-35.0,-1,1.0,0.2643009999999322
421,13,0.5,0.125,35.0,1,1.0,0.3710000000000946
422,13,0.5,0.125,35.0,1,1.0,0.7744010000001254
423,13,0.5,0.125,-35.0,1,0.0,0.9976999999998952
424,13,0.5,0.0625,35.0,1,1.0,4.944800000000214
425,13,0.5,1.0,-35.0,-1,1.0,0.22820100000012644
426,13,0.5,0.25,-35.0,-1,1.0,0.3582010000000082
427,13,0.5,0.25,35.0,1,1.0,0.5316000000000258
428,13,0.5,0.0625,35.0,-1,0.0,0.375
429,13,0.5,0.0625,-35.0,-1,1.0,2.5117000000002463
430,13,0.5,1.0,-35.0,-1,1.0,0.2354009999999107
431,13,0.5,0.125,35.0,1,1.0,0.5186000000001059
432,13,0.5,0.0625,-35.0,1,0.0,0.3188000000000102
433,13,0.5,0.25,-35.0,-1,1.0,0.30550099999982194
434,13,0.5,0.0,35.0,1,1.0,0.4323010000000522
435,13,0.5,0.25,-35.0,1,0.0,2.2289000000002943
436,13,0.5,0.125,-35.0,-1,1.0,0.6261000000001786
437,13,0.5,0.0625,-35.0,-1,1.0,2.169801000000234
438,13,0.5,0.0625,35.0,1,1.0,0.34609999999997854
439,13,0.5,0.125,-35.0,1,0.0,0.23270000000002256
440,13,0.5,0.0,-35.0,-1,1.0,0.47650100000009843
441,13,0.5,0.125,35.0,1,1.0,0.366600999999946
442,13,0.5,0.0625,-35.0,-1,1.0,0.3529009999999744
443,13,0.5,0.0,35.0,-1,0.0,0.45020100000010643
444,13,0.5,0.0625,-35.0,-1,1.0,0.41000099999996564
445,13,0.5,0.25,35.0,1,1.0,0.263501000000133
446,13,0.5,0.25,35.0,1,1.0,0.4065009999999347
447,13,0.5,1.0,-35.0,-1,1.0,0.2933000000002721
448,13,0.5,1.0,35.0,1,1.0,0.31020100000023376
449,13,0.5,0.0625,-35.0,-1,1.0,0.2902010000000246
450,13,0.5,1.0,-35.0,-1,1.0,0.24690099999997983
451,13,0.5,0.0625,-35.0,-1,1.0,1.6205010000001039
452,13,0.5,0.0625,35.0,1,1.0,0.5240010000002258
453,13,0.5,1.0,35.0,1,1.0,0.21400000000016917
454,13,0.5,0.125,-35.0,-1,1.0,0.5605000000000473
