trial_num,session_num,stim_probability_left,contrast,position,response_choice,trial_correct,reaction_time
1,12,0.5,0.125,-35.0,1,0.0,3.1003000000000003
2,12,0.5,0.125,35.0,1,1.0,0.32099999999999973
3,12,0.5,0.25,35.0,1,1.0,0.2748000000000008
4,12,0.5,0.25,35.0,1,1.0,1.4203999999999972
5,12,0.5,0.0625,-35.0,1,0.0,0.7886999999999986
6,12,0.5,0.0,-35.0,1,0.0,1.8796990000000022
7,12,0.5,0.25,-35.0,-1,1.0,0.4577999999999989
8,12,0.5,0.25,35.0,1,1.0,0.7984000000000009
9,12,0.5,1.0,-35.0,-1,1.0,0.29480000000000217
10,12,0.5,0.0625,-35.0,-1,1.0,0.471500000000006
11,12,0.5,0.125,35.0,-1,0.0,0.5667000000000044
12,12,0.5,0.0625,-35.0,1,0.0,1.4823999999999984
13,12,0.5,0.125,35.0,1,1.0,0.27199999999999847
14,12,0.5,0.0625,-35.0,-1,1.0,0.8973000000000013
15,12,0.5,0.0,35.0,1,1.0,0.3194000000000017
16,12,0.5,0.0,-35.0,1,0.0,0.5557999999999979
17,12,0.5,0.0,35.0,-1,0.0,0.7901999999999987
18,12,0.5,1.0,-35.0,-1,1.0,0.2849000000000004
19,12,0.5,1.0,-35.0,-1,1.0,0.3079000000000036
20,12,0.5,1.0,35.0,1,1.0,0.26130000000000564
21,12,0.5,1.0,-35.0,-1,1.0,0.1570000000000107
22,12,0.5,1.0,-35.0,-1,1.0,0.28000000000000114
23,12,0.5,1.0,35.0,1,1.0,0.2313000000000045
24,12,0.5,0.0,-35.0,-1,1.0,6.4007000000000005
25,12,0.5,0.125,-35.0,-1,1.0,0.38280000000000314
26,12,0.5,1.0,35.0,1,1.0,0.12300000000000466
27,12,0.5,0.125,-35.0,-1,1.0,0.4778999999999911
28,12,0.5,0.25,-35.0,-1,1.0,0.35300000000000864
29,12,0.5,1.0,-35.0,-1,1.0,0.26959999999999695
30,12,0.5,0.125,-35.0,-1,1.0,0.2927999999999997
31,12,0.5,0.25,-35.0,1,0.0,0.205600000000004
32,12,0.5,0.25,35.0,1,1.0,0.27139999999999986
33,12,0.5,0.0625,-35.0,-1,1.0,4.4447999999999865
34,12,0.5,0.25,35.0,1,1.0,0.2896999999999963
35,12,0.5,0.125,35.0,1,1.0,0.3406999999999982
36,12,0.5,1.0,35.0,1,1.0,0.30230000000000246
37,12,0.5,1.0,35.0,1,1.0,0.28650000000000375
38,12,0.5,0.25,-35.0,-1,1.0,0.2790999999999997
39,12,0.5,1.0,35.0,1,1.0,0.25260000000001526
40,12,0.5,1.0,-35.0,-1,1.0,0.2739000000000118
41,12,0.5,1.0,35.0,1,1.0,0.2855999999999881
42,12,0.5,1.0,35.0,1,1.0,0.2879000000000076
43,12,0.5,0.125,-35.0,1,0.0,1.8558999999999912
44,12,0.5,0.25,35.0,1,1.0,0.3632999999999811
45,12,0.5,0.125,35.0,1,1.0,0.07919999999998595
46,12,0.5,1.0,-35.0,-1,1.0,0.19870000000003074
47,12,0.5,0.25,35.0,1,1.0,0.4175999999999931
48,12,0.5,0.25,35.0,1,1.0,0.4486999999999739
49,12,0.5,0.25,35.0,1,1.0,0.4737999999999829
50,12,0.5,0.125,35.0,1,1.0,0.3085999999999842
51,12,0.5,0.0625,-35.0,-1,1.0,1.0521999999999991
52,12,0.5,1.0,35.0,1,1.0,0.3585000000000207
53,12,0.5,0.25,35.0,1,1.0,0.3165000000000191
54,12,0.5,1.0,-35.0,-1,1.0,0.28059999999999263
55,12,0.5,0.0625,-35.0,1,0.0,0.2610000000000241
56,12,0.5,0.0625,35.0,1,1.0,0.49490000000000123
57,12,0.5,0.125,35.0,1,1.0,0.26480000000000814
58,12,0.5,0.25,35.0,1,1.0,0.28829999999999245
59,12,0.5,1.0,-35.0,-1,1.0,0.257000000000005
60,12,0.5,0.125,-35.0,-1,1.0,1.5935989999999833
61,12,0.5,0.25,35.0,1,1.0,0.25079999999999814
62,12,0.5,0.125,35.0,1,1.0,0.3645000000000209
63,12,0.5,1.0,-35.0,-1,1.0,0.3153999999999826
64,12,0.5,0.0,-35.0,1,0.0,0.739200000000011
65,12,0.5,0.25,-35.0,-1,1.0,0.5515000000000043
66,12,0.5,0.125,35.0,1,1.0,0.2429000000000201
67,12,0.5,0.25,35.0,1,1.0,0.23080000000001633
68,12,0.5,1.0,-35.0,-1,1.0,0.32679999999999154
69,12,0.5,0.0,35.0,1,1.0,1.7780999999999665
70,12,0.5,0.25,-35.0,1,0.0,0.12250000000000227
71,12,0.5,0.0625,35.0,1,1.0,0.34379999999998745
72,12,0.5,0.0625,-35.0,-1,1.0,1.3817999999999984
73,12,0.5,1.0,-35.0,-1,1.0,0.2126999999999839
74,12,0.5,0.25,-35.0,-1,1.0,0.21180000000001087
75,12,0.5,0.0,-35.0,1,0.0,0.2272000000000105
76,12,0.5,0.25,35.0,1,1.0,0.3205999999999847
77,12,0.5,1.0,35.0,1,1.0,0.26849999999998886
78,12,0.5,1.0,35.0,1,1.0,0.30690000000001305
79,12,0.5,1.0,-35.0,-1,1.0,0.15409999999999968
80,12,0.5,0.125,-35.0,-1,1.0,0.430499999999995
81,12,0.5,0.0,-35.0,-1,1.0,0.6354000000000042
82,12,0.5,0.0625,35.0,-1,0.0,0.4643000000000086
83,12,0.5,0.125,-35.0,-1,1.0,0.257000000000005
84,12,0.5,0.0625,-35.0,-1,1.0,0.3657000000000039
85,12,0.5,1.0,35.0,1,1.0,0.29650000000000887
86,12,0.5,0.0,-35.0,1,0.0,3.0634000000000015
87,12,0.5,0.125,-35.0,-1,1.0,0.26439999999996644
88,12,0.5,0.125,-35.0,1,0.0,0.16509999999999536
89,12,0.5,0.0,-35.0,1,0.0,0.34850000000000136
90,12,0.5,0.0625,-35.0,1,0.0,0.5720000000000027
91,12,0.5,0.25,-35.0,-1,1.0,0.3672000000000253
92,12,0.5,0.0625,35.0,1,1.0,0.2942000000000462
93,12,0.5,0.25,35.0,1,1.0,0.23419999999998709
94,12,0.5,0.125,-35.0,-1,1.0,1.0142999999999915
95,12,0.5,1.0,35.0,1,1.0,1.6270000000000095
96,12,0.5,0.125,-35.0,-1,1.0,1.0966000000000236
97,12,0.5,0.125,-35.0,-1,1.0,0.31020000000006576
98,12,0.5,0.0625,35.0,1,1.0,0.3431000000000495
99,12,0.5,1.0,35.0,1,1.0,0.1827000000000112
100,12,0.5,0.0625,-35.0,-1,1.0,-0.009199999999964348
101,12,0.5,0.25,35.0,1,1.0,0.25080000000002656
102,12,0.5,1.0,35.0,1,1.0,0.12400000000002365
103,12,0.5,0.0625,35.0,-1,0.0,0.6611000000000331
104,12,0.5,0.0625,-35.0,1,0.0,0.3590000000000373
105,12,0.5,0.125,-35.0,-1,1.0,0.22150000000004866
106,12,0.5,0.25,-35.0,-1,1.0,0.5444000000000528
107,12,0.5,0.125,35.0,1,1.0,0.4958000000000311
108,12,0.5,0.0,-35.0,1,0.0,0.4197000000000344
109,12,0.5,0.25,-35.0,-1,1.0,0.3744000000000369
110,12,0.5,0.125,-35.0,-1,1.0,0.27509999999995216
111,12,0.5,0.0,-35.0,-1,1.0,1.889599999999973
112,12,0.5,0.125,35.0,1,1.0,0.37009999999997945
113,12,0.5,0.25,35.0,1,1.0,0.26080000000001746
114,12,0.5,0.25,-35.0,1,0.0,0.2690000000000623
115,12,0.5,0.0625,35.0,-1,0.0,0.19530000000003156
116,12,0.5,0.125,-35.0,-1,1.0,0.32260000000002265
117,12,0.5,0.0625,-35.0,1,0.0,2.080600000000004
118,12,0.5,0.0625,35.0,1,1.0,1.7579999999999814
119,12,0.5,1.0,35.0,1,1.0,0.27220000000005484
120,12,0.5,0.125,-35.0,-1,1.0,0.22149999999999181
121,12,0.5,0.25,-35.0,-1,1.0,0.6403000000000247
122,12,0.5,1.0,35.0,1,1.0,0.30359999999996035
123,12,0.5,0.0625,35.0,1,1.0,0.26340000000004693
124,12,0.5,1.0,-35.0,-1,1.0,0.23520000000007713
125,12,0.5,0.0625,-35.0,-1,1.0,3.2000000000000455
126,12,0.5,1.0,-35.0,-1,1.0,0.2618999999999687
127,12,0.5,1.0,35.0,1,1.0,0.3190000000000168
128,12,0.5,0.0625,35.0,-1,0.0,0.8047000000000253
129,12,0.5,0.0625,-35.0,-1,1.0,0.5831000000000586
130,12,0.5,1.0,35.0,1,1.0,0.2439000000000533
131,12,0.5,0.25,-35.0,-1,1.0,0.2841000000000804
132,12,0.5,1.0,-35.0,-1,1.0,0.2646000000000299
133,12,0.5,0.0625,35.0,1,1.0,0.238900000000001
134,12,0.5,1.0,-35.0,-1,1.0,0.18280000000004293
135,12,0.5,0.0625,-35.0,1,0.0,1.1090000000000373
136,12,0.5,0.25,-35.0,-1,1.0,0.5257000000000289
137,12,0.5,0.25,-35.0,-1,1.0,0.5966999999999985
138,12,0.5,0.0,35.0,1,1.0,2.1818000000000097
139,12,0.5,0.0,-35.0,1,0.0,3.094000000000051
140,12,0.5,0.125,-35.0,-1,1.0,0.21339999999997872
141,12,0.5,0.25,-35.0,-1,1.0,2.007000000000005
142,12,0.5,1.0,-35.0,-1,1.0,0.194500000000005
143,12,0.5,0.0625,35.0,1,1.0,3.9979999999999905
144,12,0.5,0.25,35.0,1,1.0,0.23460000000000036
145,12,0.5,1.0,-35.0,-1,1.0,0.22400000000004638
146,12,0.5,0.125,-35.0,-1,1.0,0.23220000000003438
147,12,0.5,1.0,-35.0,-1,1.0,0.2831000000000472
148,12,0.5,0.125,35.0,1,1.0,1.2073000000000889
149,12,0.5,0.125,-35.0,-1,1.0,0.5224000000000615
150,12,0.5,0.0,-35.0,1,0.0,1.1873000000000502
151,12,0.4,0.0,-35.0,-1,1.0,1.6125000000000114
152,12,0.5,1.0,35.0,1,1.0,0.2588000000000079
153,12,0.5,0.0625,35.0,1,1.0,0.27539999999999054
154,12,0.5,0.25,-35.0,-1,1.0,0.3153000000000361
155,12,0.5,1.0,35.0,1,1.0,0.03030000000006794
156,12,0.5,0.25,-35.0,-1,1.0,0.36829999999997654
157,12,0.5,0.0625,-35.0,-1,1.0,0.5534999999999854
158,12,0.5,0.25,-35.0,-1,1.0,0.31560000000001764
159,12,0.5,0.125,-35.0,-1,1.0,0.255800000000022
160,12,0.5,0.0625,-35.0,-1,1.0,0.6350000000000477
161,12,0.5,0.0625,35.0,1,1.0,0.5682000000000471
162,12,0.5,0.0,35.0,1,1.0,1.0664000000000442
163,12,0.5,0.25,-35.0,-1,1.0,0.33660000000003265
164,12,0.5,0.0625,-35.0,-1,1.0,0.33770000000004075
165,12,0.5,0.125,-35.0,-1,1.0,0.32190000000002783
166,12,0.5,0.0625,35.0,1,1.0,0.33609999999998763
167,12,0.5,0.0,35.0,1,1.0,0.45330000000006976
168,12,0.5,1.0,35.0,1,1.0,0.22750000000002046
169,12,0.5,0.0625,-35.0,-1,1.0,0.41259999999999764
170,12,0.5,1.0,35.0,1,1.0,0.29110000000002856
171,12,0.5,0.125,-35.0,-1,1.0,0.2798999999999978
172,12,0.5,0.25,-35.0,-1,1.0,0.5561000000000149
173,12,0.5,0.125,35.0,1,1.0,0.2637999999999465
174,12,0.5,0.125,-35.0,-1,1.0,0.3290000000000646
175,12,0.5,0.125,-35.0,1,0.0,0.2579000000000633
176,12,0.6,0.125,35.0,1,1.0,3.6920000000000073
177,12,0.5,1.0,-35.0,-1,1.0,0.25099999999997635
178,12,0.5,1.0,35.0,1,1.0,0.36209999999994125
179,12,0.5,0.125,35.0,1,1.0,0.46260000000006585
180,12,0.5,0.25,-35.0,-1,1.0,0.29169999999999163
181,12,0.5,1.0,-35.0,1,0.0,0.11790000000007694
182,12,0.5,0.0625,35.0,1,1.0,0.033999999999991815
183,12,0.5,1.0,-35.0,-1,1.0,0.3242000000000189
184,12,0.5,1.0,-35.0,-1,1.0,0.33209999999996853
185,12,0.5,0.0,-35.0,-1,1.0,0.7737000000000762
186,12,0.5,1.0,35.0,1,1.0,0.3061999999999898
187,12,0.5,0.125,35.0,-1,0.0,0.34389999999996235
188,12,0.5,0.25,35.0,1,1.0,0.2339000000000624
189,12,0.5,0.0625,35.0,1,1.0,0.274599999999964
190,12,0.5,1.0,-35.0,-1,1.0,0.23950000000002092
191,12,0.5,0.25,-35.0,-1,1.0,0.31369999999992615
192,12,0.5,0.125,35.0,1,1.0,0.15899999999987813
193,12,0.5,0.25,35.0,1,1.0,0.4248999999999796
194,12,0.5,0.0,35.0,1,1.0,0.5185000000000173
195,12,0.5,1.0,-35.0,-1,1.0,0.23940000000004602
196,12,0.5,0.125,-35.0,-1,1.0,0.2685999999999922
197,12,0.5,0.0625,-35.0,-1,1.0,0.43509999999992033
198,12,0.5,1.0,35.0,1,1.0,0.26549999999997453
199,12,0.5,0.125,35.0,1,1.0,0.8129000000000133
200,12,0.5,0.125,35.0,1,1.0,0.700800000000072
201,12,0.5,0.0625,-35.0,-1,1.0,0.29349999999999454
202,12,0.5,1.0,35.0,1,1.0,0.21719999999993433
203,12,0.5,0.125,-35.0,-1,1.0,0.40589999999997417
204,12,0.5,1.0,35.0,1,1.0,0.22469999999998436
205,12,0.5,0.0,35.0,1,1.0,1.4003999999999905
206,12,0.5,0.25,-35.0,-1,1.0,0.24860000000001037
207,12,0.5,0.25,35.0,1,1.0,0.20929999999998472
208,12,0.5,0.0625,-35.0,1,0.0,0.24299999999993815
209,12,0.5,0.0625,-35.0,1,0.0,0.0906999999999698
210,12,0.5,0.0,35.0,-1,0.0,0.36649999999985994
211,12,0.6,0.0,-35.0,-1,1.0,0.5776999999999362
212,12,0.5,1.0,-35.0,-1,1.0,0.5545999999999367
213,12,0.5,0.125,-35.0,-1,1.0,0.2658999999999878
214,12,0.5,0.0,-35.0,-1,1.0,3.0576999999999543
215,12,0.5,0.0,-35.0,1,0.0,0.3143999999999778
216,12,0.5,0.25,35.0,1,1.0,0.7259000000000242
217,12,0.5,0.25,35.0,-1,0.0,0.22699999999997544
218,12,0.5,0.25,35.0,1,1.0,0.27139999999997144
219,12,0.5,0.25,35.0,1,1.0,0.260599999999954
220,12,0.5,0.25,-35.0,-1,1.0,0.33819999999991524
221,12,0.5,0.25,-35.0,-1,1.0,0.33609999999987394
222,12,0.5,0.0625,35.0,1,1.0,0.2867999999999711
223,12,0.5,0.125,35.0,-1,0.0,2.5785999999999376
224,12,0.5,0.25,-35.0,-1,1.0,0.2240999999999076
225,12,0.5,0.125,-35.0,-1,1.0,0.21910000000002583
226,12,0.5,0.0,-35.0,1,0.0,1.991899999999987
227,12,0.5,0.25,-35.0,-1,1.0,0.24949999999989814
228,12,0.5,1.0,35.0,1,1.0,0.20470000000000255
229,12,0.5,0.25,35.0,1,1.0,0.28559999999993124
230,12,0.5,0.0,-35.0,1,0.0,0.50649999999996
231,12,0.5,0.0,35.0,1,1.0,0.9420999999999822
232,12,0.5,1.0,-35.0,-1,1.0,0.20830000000000837
233,12,0.5,0.0625,35.0,1,1.0,1.929399999999987
234,12,0.5,0.125,35.0,1,1.0,0.23879999999996926
235,12,0.5,0.125,35.0,1,1.0,0.28500000000008185
236,12,0.5,0.125,-35.0,-1,1.0,0.21949999999992542
237,12,0.5,0.25,-35.0,1,0.0,0.03319999999996526
238,12,0.5,0.0,35.0,-1,0.0,1.2204999999999018
239,12,0.5,0.0625,35.0,1,1.0,0.2764999999999418
240,12,0.5,0.125,-35.0,1,0.0,0.24459999999999127
241,12,0.7,0.125,-35.0,1,0.0,1.165200000000027
242,12,0.5,1.0,35.0,1,1.0,0.22749999999996362
243,12,0.5,0.25,35.0,1,1.0,0.316599999999994
244,12,0.5,1.0,-35.0,-1,1.0,0.3810999999999467
245,12,0.5,0.0625,35.0,1,1.0,2.769900000000007
246,12,0.5,0.0625,35.0,-1,0.0,0.3946000000000822
247,12,0.5,0.25,35.0,1,1.0,3.443200000000047
248,12,0.5,0.25,-35.0,1,0.0,0.3168000000000575
249,12,0.5,0.0625,35.0,1,1.0,0.5880999999999403
250,12,0.5,0.125,-35.0,1,0.0,0.23429999999996198
251,12,0.8,0.125,-35.0,-1,1.0,0.23080000000004475
252,12,0.5,1.0,-35.0,-1,1.0,0.3028000000000475
253,12,0.5,1.0,35.0,1,1.0,0.21829999999999927
254,12,0.5,0.0625,35.0,1,1.0,0.35989999999992506
255,12,0.5,0.125,-35.0,-1,1.0,0.20310000000006312
256,12,0.5,0.0,35.0,1,1.0,0.26749999999992724
257,12,0.5,0.0,-35.0,-1,1.0,0.4216999999999871
258,12,0.5,1.0,35.0,1,1.0,0.21500000000003183
259,12,0.5,0.0625,35.0,1,1.0,0.2617999999999938
260,12,0.5,0.125,-35.0,-1,1.0,0.30819999999982883
261,12,0.5,1.0,-35.0,-1,1.0,0.2864999999999327
262,12,0.5,1.0,35.0,1,1.0,0.6218999999999824
263,12,0.5,0.25,35.0,1,1.0,0.5149999999999864
264,12,0.5,0.125,35.0,1,1.0,1.753699999999867
265,12,0.5,0.125,-35.0,-1,1.0,0.47099999999988995
266,12,0.5,1.0,-35.0,1,0.0,0.31999999999993634
267,12,0.5,0.25,-35.0,-1,1.0,0.32159999999998945
268,12,0.5,1.0,35.0,1,1.0,0.23869999999988067
269,12,0.5,0.25,35.0,1,1.0,0.27100000000007185
270,12,0.5,0.25,-35.0,-1,1.0,0.2626000000000204
271,12,0.5,1.0,-35.0,-1,1.0,0.26269999999999527
272,12,0.5,0.0625,-35.0,-1,1.0,0.10519999999996799
273,12,0.5,1.0,35.0,1,1.0,0.2524999999999409
274,12,0.5,1.0,-35.0,-1,1.0,0.5127999999998565
275,12,0.5,0.25,-35.0,-1,1.0,0.33359999999993306
276,12,0.5,0.25,35.0,1,1.0,0.258199999999988
277,12,0.5,0.0625,35.0,-1,0.0,2.526399999999967
278,12,0.5,0.25,-35.0,-1,1.0,0.24469999999996617
279,12,0.5,1.0,35.0,1,1.0,0.18700000000001182
280,12,0.5,0.0625,-35.0,-1,1.0,0.7835000000000036
281,12,0.5,0.0625,35.0,1,1.0,1.4634999999999536
282,12,0.5,0.125,35.0,1,1.0,0.5386999999999489
283,12,0.5,1.0,35.0,1,1.0,0.3607999999999265
284,12,0.5,0.0,-35.0,-1,1.0,0.26529999999991105
285,12,0.5,0.0,-35.0,1,0.0,0.2359000000000151
286,12,0.6,0.0,-35.0,-1,1.0,0.23649999999997817
287,12,0.5,1.0,-35.0,-1,1.0,0.24839999999994689
288,12,0.5,0.25,35.0,1,1.0,0.8276000000000749
289,12,0.5,1.0,35.0,1,1.0,0.36789999999996326
290,12,0.5,1.0,-35.0,-1,1.0,0.41889999999989413
291,12,0.5,0.25,-35.0,-1,1.0,0.3140999999999394
292,12,0.5,0.25,-35.0,1,0.0,3.050399999999968
293,12,0.5,0.25,-35.0,-1,1.0,0.4054999999999609
294,12,0.5,0.125,-35.0,-1,1.0,0.5600999999999203
295,12,0.5,0.125,35.0,1,1.0,0.40219999999999345
296,12,0.5,0.0625,-35.0,-1,1.0,0.6101999999999634
297,12,0.5,0.0625,35.0,1,1.0,1.4196000000000595
298,12,0.5,0.25,35.0,1,1.0,0.27989999999988413
299,12,0.5,0.0,35.0,-1,0.0,0.9708000000000538
300,12,0.5,0.0625,35.0,1,1.0,0.4375999999998612
301,12,0.5,0.25,35.0,1,1.0,0.22929999999996653
302,12,0.5,1.0,35.0,1,1.0,0.4116999999999962
303,12,0.5,0.0,35.0,1,1.0,4.908500000000004
304,12,0.5,0.125,-35.0,-1,1.0,0.6781999999999471
305,12,0.5,1.0,35.0,1,1.0,0.21320000000002892
306,12,0.5,0.0625,35.0,1,1.0,0.8813000000000102
307,12,0.5,0.0,-35.0,1,0.0,1.120499999999879
308,12,0.5,0.25,35.0,1,1.0,0.23340000000007421
309,12,0.5,1.0,-35.0,-1,1.0,0.6704999999999472
310,12,0.5,0.125,35.0,1,1.0,3.618099999999913
311,12,0.5,0.25,-35.0,-1,1.0,0.3627999999999929
312,12,0.5,0.0625,35.0,1,1.0,0.24479999999994106
313,12,0.5,1.0,35.0,-1,0.0,0.09890000000007149
314,12,0.5,0.25,-35.0,-1,1.0,0.4420999999999822
315,12,0.5,0.25,35.0,1,1.0,0.3512999999999238
316,12,0.5,0.0,-35.0,1,0.0,0.29690000000005057
317,12,0.5,0.125,-35.0,-1,1.0,0.2537999999999556
318,12,0.5,0.125,35.0,1,1.0,0.20119999999997162
319,12,0.5,0.25,35.0,1,1.0,3.2503000000000384
320,12,0.5,0.125,-35.0,1,0.0,8.114799999999946
321,12,0.5,0.25,35.0,1,1.0,0.21259999999995216
322,12,0.5,0.0625,35.0,1,1.0,2.2857999999999947
323,12,0.5,0.25,35.0,1,1.0,2.434799999999882
324,12,0.5,0.125,35.0,1,1.0,0.27480000000002747
325,12,0.5,0.0625,35.0,1,1.0,1.706299999999942
326,12,0.5,0.0,35.0,1,1.0,1.6974999999998772
327,12,0.5,0.0,-35.0,1,0.0,0.2683999999999287
328,12,1.0,0.0,35.0,-1,0.0,0.5855999999999995
329,12,0.5,1.0,-35.0,-1,1.0,0.6691999999999325
330,12,0.5,0.25,-35.0,-1,1.0,0.3488999999999578
331,12,0.5,0.125,35.0,1,1.0,0.6592000000000553
332,12,0.5,0.25,35.0,1,1.0,1.842300000000023
333,12,0.5,0.125,-35.0,-1,1.0,0.7527000000000044
334,12,0.5,0.0625,35.0,1,1.0,1.0857999999999493
335,12,0.5,0.125,-35.0,-1,1.0,0.3330000000000837
336,12,0.5,0.25,35.0,1,1.0,0.25929999999993925
337,12,0.5,0.125,-35.0,1,0.0,0.8226999999999407
338,12,0.5,0.125,35.0,1,1.0,0.4229000000000269
339,12,0.5,0.125,35.0,1,1.0,0.2663000000000011
340,12,0.5,0.0,35.0,1,1.0,0.33940000000006876
341,12,0.5,0.25,35.0,1,1.0,0.26660000000015316
342,12,0.5,0.25,35.0,1,1.0,0.36969999999996617
343,12,0.5,0.0,-35.0,-1,1.0,0.9637000000000171
344,12,0.5,0.25,35.0,1,1.0,0.40650000000005093
345,12,0.5,0.25,35.0,1,1.0,0.46050000000013824
346,12,0.5,1.0,-35.0,-1,1.0,0.3104999999998199
347,12,0.5,0.125,-35.0,-1,1.0,1.203899999999976
348,12,0.5,0.0625,35.0,1,1.0,0.2502999999999247
349,12,0.5,0.125,-35.0,1,0.0,1.1605000000001837
350,12,0.5,0.125,35.0,1,1.0,0.2337999999999738
351,12,0.5,0.25,-35.0,-1,1.0,0.4837999999999738
352,12,0.5,0.0625,-35.0,-1,1.0,0.3472999999999047
353,12,0.5,0.25,35.0,1,1.0,0.2340999999998985
354,12,0.5,0.0625,35.0,1,1.0,0.664600000000064
355,12,0.5,0.125,35.0,1,1.0,0.3609000000001288
356,12,0.5,0.25,35.0,1,1.0,0.23759999999992942
357,12,0.5,0.0625,-35.0,-1,1.0,0.6812000000002172
358,12,0.5,0.0625,35.0,-1,0.0,0.37770000000000437
359,12,0.6,0.0625,35.0,1,1.0,0.314399000000094
360,12,0.5,1.0,35.0,1,1.0,0.23769999999990432
361,12,0.5,0.125,35.0,1,1.0,0.3383000000001175
362,12,0.5,0.25,-35.0,-1,1.0,0.2515000000000782
363,12,0.5,0.0,35.0,-1,0.0,1.011600000000044
364,12,0.6,0.0,-35.0,1,0.0,1.7785000000001219
365,12,0.5,1.0,-35.0,-1,1.0,0.22500000000013642
366,12,0.5,0.25,-35.0,-1,1.0,0.28490000000010696
367,12,0.5,0.0625,-35.0,-1,1.0,0.43869999999992615
368,12,0.5,0.0,35.0,-1,0.0,1.4851000000001022
369,12,0.5,0.25,-35.0,-1,1.0,0.33569999999986067
370,12,0.5,0.25,35.0,1,1.0,0.24879999999984648
371,12,0.5,0.0625,-35.0,-1,1.0,1.3255999999998949
372,12,0.5,0.25,35.0,1,1.0,0.22250000000008185
373,12,0.5,0.0625,35.0,1,1.0,0.3223000000000411
374,12,0.5,0.0,35.0,1,1.0,0.4658999999996922
375,12,0.5,0.0625,-35.0,-1,1.0,0.5156999999999243
376,12,0.5,0.125,35.0,1,1.0,0.32310000000006767
377,12,0.5,0.0625,35.0,1,1.0,2.916099999999915
378,12,0.5,0.0,35.0,-1,0.0,0.9331999999999425
379,12,0.5,0.25,35.0,1,1.0,0.2201999999997497
380,12,0.5,1.0,35.0,1,1.0,0.2798000000000229
381,12,0.5,0.0625,-35.0,-1,1.0,0.5130000000001473
382,12,0.5,0.0625,35.0,1,1.0,0.3998999999998887
383,12,0.5,0.0625,35.0,1,1.0,0.2601999999999407
384,12,0.5,1.0,35.0,1,1.0,0.226399999999785
385,12,0.5,0.0625,-35.0,-1,1.0,0.9530999999999494
386,12,0.5,0.125,-35.0,-1,1.0,1.0500999999999294
387,12,0.5,0.25,-35.0,-1,1.0,0.36659999999983484
388,12,0.5,0.125,-35.0,-1,1.0,0.4467000000001917
389,12,0.5,0.25,-35.0,-1,1.0,0.42010000000004766
390,12,0.5,0.0,35.0,-1,0.0,2.246599999999944
391,12,0.5,0.125,-35.0,-1,1.0,0.40449999999987085
392,12,0.5,0.125,35.0,1,1.0,0.31760000000008404
393,12,0.5,0.125,-35.0,-1,1.0,0.3975000000000364
394,12,0.5,0.125,-35.0,-1,1.0,0.4375999999999749
395,12,0.5,1.0,35.0,1,1.0,0.5408999999999651
396,12,0.5,1.0,35.0,1,1.0,0.21389999999973952
397,12,0.5,0.125,-35.0,-1,1.0,0.8213000000000648
398,12,0.5,0.0625,-35.0,-1,1.0,0.33130000000005566
399,12,0.5,1.0,35.0,1,1.0,0.16739999999981592
400,12,0.5,0.0,35.0,1,1.0,3.680799999999863
401,12,0.5,0.25,35.0,1,1.0,0.27109999999993306
402,12,0.5,0.125,-35.0,-1,1.0,0.5044000000000324
403,12,0.5,0.25,-35.0,-1,1.0,0.8277999999997974
404,12,0.5,1.0,-35.0,-1,1.0,0.21159999999986212
405,12,0.5,1.0,35.0,1,1.0,0.2880999999999858
406,12,0.5,0.0,-35.0,-1,1.0,3.501800000000003
407,12,0.5,0.125,35.0,1,1.0,1.8052000000000135
408,12,0.5,0.125,-35.0,-1,1.0,0.49250000000006366
409,12,0.5,1.0,-35.0,-1,1.0,0.8950999999999567
410,12,0.5,0.125,-35.0,1,0.0,0.2955000000001746
411,12,0.4,0.125,35.0,1,1.0,3.7723000000000866
412,12,0.5,1.0,35.0,1,1.0,0.27870000000007167
413,12,0.5,1.0,-35.0,-1,1.0,0.5255999999999403
414,12,0.5,0.0625,-35.0,1,0.0,0.46620000000007167
415,12,0.6,0.0625,-35.0,-1,1.0,0.32559999999989486
416,12,0.5,1.0,-35.0,-1,1.0,0.2663000000000011
417,12,0.5,0.125,-35.0,-1,1.0,0.4093000000000302
418,12,0.5,0.0625,35.0,1,1.0,0.33930000000009386
419,12,0.5,0.125,35.0,1,1.0,1.2092000000000098
420,12,0.5,0.0,-35.0,1,0.0,0.9560999999998785
421,12,0.6,0.0,35.0,1,1.0,0.4095999999999549
422,12,0.5,1.0,35.0,1,1.0,0.2929999999998927
423,12,0.5,0.0,35.0,1,1.0,4.096299999999928
424,12,0.5,0.125,-35.0,-1,1.0,0.6166000000000622
425,12,0.5,0.0,35.0,1,1.0,1.5104999999998654
426,12,0.5,1.0,-35.0,-1,1.0,0.31719999999995707
427,12,0.5,0.0625,-35.0,-1,1.0,0.6632999999999356
428,12,0.5,0.0625,35.0,1,1.0,2.307399999999916
429,12,0.5,0.25,-35.0,-1,1.0,0.25040000000012697
430,12,0.5,0.0625,-35.0,1,0.0,0.1538999999997941
431,12,0.5,0.25,35.0,1,1.0,0.6937000000000353
432,12,0.5,0.0625,-35.0,-1,1.0,0.34399999999982356
433,12,0.5,0.25,-35.0,-1,1.0,0.4638999999997395
434,12,0.5,1.0,-35.0,-1,1.0,0.23730000000000473
435,12,0.5,0.25,-35.0,-1,1.0,0.24060000000008586
436,12,0.5,0.25,-35.0,-1,1.0,0.23069999999984248
437,12,0.5,0.0,35.0,1,1.0,0.1977999999999156
438,12,0.5,0.125,-35.0,1,0.0,3.1345000000001164
439,12,0.4,0.125,-35.0,1,0.0,0.2378000000001066
440,12,0.5,1.0,35.0,1,1.0,0.25109999999995125
441,12,0.5,0.0625,35.0,-1,0.0,0.9645000000000437
442,12,0.4,0.0625,35.0,1,1.0,0.2945999999999458
443,12,0.5,1.0,35.0,1,1.0,0.22149999999987813
444,12,0.5,0.0625,35.0,1,1.0,0.2817000000000007
445,12,0.5,0.0625,35.0,1,1.0,0.31179999999994834
446,12,0.5,0.25,-35.0,-1,1.0,0.2582999999999629
447,12,0.5,0.0625,35.0,-1,0.0,6.052200000000084
448,12,0.5,0.125,-35.0,-1,1.0,0.5251000000000658
449,12,0.5,1.0,-35.0,-1,1.0,0.25890000000003965
450,12,0.5,1.0,35.0,1,1.0,0.2520999999999276
451,12,0.5,0.0625,-35.0,1,0.0,2.3523999999999887
452,12,0.5,0.125,35.0,1,1.0,0.2660000000000764
453,12,0.5,0.0,-35.0,-1,1.0,0.35889999999972133
454,12,0.5,0.25,35.0,1,1.0,2.016099999999824
455,12,0.5,0.25,35.0,1,1.0,3.4523999999998978
456,12,0.5,0.25,-35.0,-1,1.0,0.29949999999985266
457,12,0.5,1.0,35.0,1,1.0,0.20920000000000982
458,12,0.5,1.0,35.0,1,1.0,0.20679999999993015
459,12,0.5,0.0625,35.0,1,1.0,0.6325999999999112
460,12,0.5,0.25,-35.0,-1,1.0,0.20270000000004984
461,12,0.5,1.0,-35.0,-1,1.0,0.26309999999989486
462,12,0.5,0.0625,35.0,1,1.0,0.2198000000000775
463,12,0.5,0.0625,35.0,1,1.0,0.25700000000006185
464,12,0.5,0.125,-35.0,-1,1.0,0.2901999999999134
465,12,0.5,1.0,-35.0,-1,1.0,0.35979999999995016
466,12,0.5,0.125,-35.0,1,0.0,1.040599999999813
467,12,0.6,0.125,-35.0,-1,1.0,0.2402999999999338
468,12,0.5,1.0,-35.0,-1,1.0,0.22699999999986176
469,12,0.5,0.125,35.0,1,1.0,0.22059999999987667
470,12,0.5,1.0,35.0,1,1.0,0.23399999999969623
471,12,0.5,1.0,35.0,1,1.0,0.10740000000009786
472,12,0.5,0.125,-35.0,-1,1.0,0.2768999999998414
473,12,0.5,0.0,-35.0,1,0.0,0.34390000000007603
474,12,0.5,0.0,-35.0,1,0.0,3.197200000000066
475,12,0.5,0.0625,35.0,1,1.0,0.2744000000000142
476,12,0.5,1.0,-35.0,-1,1.0,0.23080000000004475
477,12,0.5,0.125,-35.0,-1,1.0,1.1679999999998927
478,12,0.5,0.25,-35.0,-1,1.0,0.9141999999999371
479,12,0.5,0.25,35.0,1,1.0,0.1010999999998603
480,12,0.5,0.0625,-35.0,-1,1.0,0.3344999999999345
481,12,0.5,1.0,35.0,1,1.0,0.2417000000000371
482,12,0.5,0.0,35.0,1,1.0,3.1213000000002467
483,12,0.5,0.0,-35.0,-1,1.0,0.3648000000000593
484,12,0.5,0.0625,35.0,1,1.0,3.378099999999904
485,12,0.5,1.0,35.0,-1,0.0,0.7283999999999651
486,12,0.5,0.25,35.0,1,1.0,0.2521999999999025
487,12,0.5,0.125,35.0,1,1.0,0.2583999999999378
488,12,0.5,0.0,-35.0,1,0.0,0.4255000000000564
489,12,0.5,0.0625,-35.0,1,0.0,1.6826999999998407
490,12,0.5,0.125,-35.0,-1,1.0,0.29539999999997235
491,12,0.5,0.0,35.0,-1,0.0,0.5755999999998949
492,12,0.5,0.125,-35.0,-1,1.0,0.2924999999997908
493,12,0.5,0.0625,35.0,1,1.0,0.33219999999982974
494,12,0.5,0.0,-35.0,-1,1.0,0.5797000000000025
495,12,0.5,0.0625,-35.0,1,0.0,1.2290000000000418
496,12,0.6,0.0625,-35.0,-1,1.0,1.1929999999999836
497,12,0.5,1.0,-35.0,-1,1.0,0.5558000000000902
498,12,0.5,0.125,-35.0,-1,1.0,0.3992000000000644
499,12,0.5,0.0625,35.0,1,1.0,1.4730000000001837
500,12,0.5,0.25,35.0,1,1.0,0.3000999999999294
501,12,0.5,1.0,35.0,1,1.0,0.2133000000001175
502,12,0.5,0.125,-35.0,1,0.0,0.04620000000022628
503,12,0.5,0.25,-35.0,-1,1.0,0.2897000000000389
504,12,0.5,0.0625,-35.0,1,0.0,1.3630000000000564
505,12,0.5,0.0625,35.0,1,1.0,3.866899999999987
506,12,0.5,1.0,-35.0,-1,1.0,0.22680000000013933
507,12,0.5,0.0,35.0,1,1.0,3.8605999999999767
508,12,0.5,1.0,-35.0,-1,1.0,0.5601999999998952
509,12,0.5,0.125,-35.0,-1,1.0,0.310799999999972
510,12,0.5,0.125,-35.0,-1,1.0,0.3704000000000178
511,12,0.5,0.25,35.0,1,1.0,0.28379999999992833
512,12,0.5,0.125,-35.0,-1,1.0,0.5837999999998829
513,12,0.5,0.0,35.0,-1,0.0,1.5873999999996613
514,12,0.5,0.25,35.0,1,1.0,0.30080000000020846
515,12,0.5,1.0,-35.0,-1,1.0,0.23139999999989413
516,12,0.5,0.125,-35.0,-1,1.0,0.38809999999989486
517,12,0.5,0.125,-35.0,-1,1.0,1.8079999999999927
518,12,0.5,0.0625,35.0,1,1.0,0.3344999999999345
519,12,0.5,0.125,35.0,1,1.0,0.3547000000000935
520,12,0.5,0.0625,-35.0,-1,1.0,1.4783999999997377
521,12,0.5,0.0625,-35.0,-1,1.0,0.4618999999997868
522,12,0.5,0.25,-35.0,-1,1.0,0.6612999999999829
523,12,0.5,0.125,-35.0,-1,1.0,0.6014000000000124
524,12,0.5,0.0625,35.0,1,1.0,0.4513999999999214
525,12,0.5,0.125,-35.0,-1,1.0,0.3485000000000582
526,12,0.5,0.25,-35.0,-1,1.0,0.30169999999998254
527,12,0.5,0.125,35.0,1,1.0,0.4116999999998825
528,12,0.5,0.25,35.0,1,1.0,0.2885999999998603
529,12,0.5,0.25,35.0,1,1.0,0.2321999999999207
530,12,0.5,1.0,35.0,1,1.0,0.23540000000002692
531,12,0.5,0.125,35.0,1,1.0,0.5485000000001037
532,12,0.5,1.0,-35.0,-1,1.0,1.8126999999997224
533,12,0.5,0.0625,35.0,1,1.0,4.822300000000041
534,12,0.5,1.0,-35.0,-1,1.0,0.2557999999999083
535,12,0.5,1.0,-35.0,-1,1.0,0.2556999999999334
536,12,0.5,0.125,35.0,1,1.0,0.4230999999999767
537,12,0.5,0.25,35.0,1,1.0,3.2496000000001004
538,12,0.5,0.25,-35.0,-1,1.0,0.26269999999999527
539,12,0.5,1.0,-35.0,-1,1.0,0.25959999999986394
540,12,0.5,0.0625,35.0,1,1.0,0.2602000000001681
541,12,0.5,0.125,-35.0,1,0.0,0.21949999999992542
542,12,0.5,0.125,35.0,1,1.0,0.3532000000000153
543,12,0.5,0.0625,35.0,1,1.0,2.236399999999776
544,12,0.5,0.0625,-35.0,-1,1.0,0.353099999999813
545,12,0.5,1.0,-35.0,-1,1.0,0.28389999999990323
546,12,0.5,0.0625,-35.0,1,0.0,2.019999999999982
547,12,0.5,0.0625,35.0,1,1.0,0.15039999999999054
548,12,0.5,1.0,-35.0,-1,1.0,0.3368000000000393
549,12,0.5,0.0625,-35.0,-1,1.0,1.397199999999657
550,12,0.5,0.125,35.0,1,1.0,0.2238999999999578
551,12,0.5,0.0,35.0,1,1.0,2.000899999999774
552,12,0.5,0.25,-35.0,-1,1.0,0.3808999999998832
553,12,0.5,1.0,-35.0,-1,1.0,0.24739999999997053
554,12,0.5,0.125,35.0,1,1.0,0.2537999999999556
555,12,0.5,0.25,-35.0,-1,1.0,0.3838999999998123
556,12,0.5,0.125,-35.0,-1,1.0,0.5242000000000644
557,12,0.5,1.0,35.0,1,1.0,0.3209999999999127
558,12,0.5,0.25,-35.0,1,0.0,0.18059999999991305
559,12,0.5,0.125,-35.0,-1,1.0,0.49450000000001637
560,12,0.5,1.0,35.0,1,1.0,0.3683000000000902
561,12,0.5,0.125,-35.0,-1,1.0,1.0209999999997308
562,12,0.5,0.125,-35.0,1,0.0,0.08809999999994034
563,12,0.5,0.0,-35.0,1,0.0,2.9562000000000808
564,12,0.5,0.125,35.0,1,1.0,0.2498000000000502
565,12,0.5,1.0,-35.0,-1,1.0,0.3164999999999054
566,12,0.5,0.0625,-35.0,1,0.0,3.263099999999895
567,12,0.5,0.25,35.0,1,1.0,0.2666999999999007
568,12,0.5,0.25,-35.0,-1,1.0,0.5634000000000015
569,12,0.5,0.25,-35.0,-1,1.0,0.363399999999956
570,12,0.5,0.25,-35.0,-1,1.0,0.7600999999999658
571,12,0.5,0.0,-35.0,1,0.0,3.0335000000000036
572,12,0.5,0.125,-35.0,-1,1.0,0.33380000000011023
573,12,0.5,0.25,-35.0,-1,1.0,0.337099999999964
574,12,0.5,0.125,-35.0,-1,1.0,1.943899999999985
575,12,0.5,0.0,35.0,1,1.0,2.7472999999999956
576,12,0.5,0.125,-35.0,-1,1.0,0.33409999999980755
577,12,0.5,1.0,35.0,1,1.0,0.20089999999981956
578,12,0.5,0.0625,-35.0,-1,1.0,1.0108989999998812
579,12,0.5,0.25,35.0,1,1.0,2.7976999999998498
580,12,0.5,0.25,-35.0,-1,1.0,0.27120000000013533
581,12,0.5,1.0,35.0,1,1.0,0.26119999999991705
582,12,0.5,0.0625,-35.0,1,0.0,0.3346999999998843
583,12,0.5,0.0625,-35.0,-1,1.0,0.31140000000004875
584,12,0.5,1.0,-35.0,-1,1.0,0.24159999999983484
585,12,0.5,1.0,-35.0,-1,1.0,0.258199999999988
586,12,0.5,0.125,35.0,1,1.0,1.0483000000001539
587,12,0.5,1.0,35.0,1,1.0,0.2682999999999538
588,12,0.5,0.25,-35.0,-1,1.0,0.9016999999998916
589,12,0.5,0.125,35.0,1,1.0,1.1018000000001393
590,12,0.5,0.0625,35.0,1,1.0,0.1952000000001135
591,12,0.5,0.0,35.0,1,1.0,3.461999999999989
592,12,0.5,0.0,35.0,1,1.0,0.3554999999998927
593,12,0.5,0.125,-35.0,-1,1.0,0.7655999999999494
594,12,0.5,0.25,35.0,1,1.0,2.0289000000000215
595,12,0.5,0.0,35.0,1,1.0,1.372400000000198
596,12,0.5,0.0625,-35.0,1,0.0,0.3990999999998621
597,12,0.5,0.125,35.0,1,1.0,0.2323999999998705
598,12,0.5,0.25,-35.0,-1,1.0,0.5459000000000742
599,12,0.5,1.0,35.0,1,1.0,0.23919999999998254
600,12,0.5,0.0625,35.0,1,1.0,1.1127000000001317
601,12,0.5,0.25,35.0,1,1.0,0.22270000000003165
602,12,0.5,0.0625,35.0,1,1.0,0.8494000000000597
603,12,0.5,0.0,-35.0,1,0.0,0.3828000000000884
604,12,0.5,0.0625,35.0,1,1.0,0.7894999999998618
605,12,0.5,1.0,35.0,1,1.0,0.649599999999964
606,12,0.5,0.0625,35.0,1,1.0,0.7797999999997955
607,12,0.5,1.0,-35.0,-1,1.0,0.6597000000001572
608,12,0.5,0.125,35.0,1,1.0,6.339899999999943
609,12,0.5,0.25,-35.0,-1,1.0,0.5000999999997475
610,12,0.5,0.125,35.0,1,1.0,0.28680000000008476
611,12,0.5,1.0,-35.0,-1,1.0,0.44020000000000437
612,12,0.5,1.0,-35.0,-1,1.0,0.2568999999998596
613,12,0.5,0.125,-35.0,1,0.0,0.7037000000000262
614,12,0.5,0.0,35.0,1,1.0,0.3604000000000269
615,12,0.5,0.25,35.0,1,1.0,0.2604999999998654
616,12,0.5,0.25,-35.0,-1,1.0,0.7005999999998949
617,12,0.5,0.125,-35.0,1,0.0,1.6422999999999774
618,12,0.6,0.125,35.0,1,1.0,0.5206999999998061
619,12,0.5,1.0,-35.0,-1,1.0,0.45069999999986976
620,12,0.5,0.125,35.0,1,1.0,0.7975000000001273
621,12,0.5,0.25,35.0,1,1.0,0.2876000000001113
622,12,0.5,0.125,35.0,1,1.0,1.4243999999998778
623,12,0.5,0.25,35.0,1,1.0,0.28099999999994907
624,12,0.5,0.125,-35.0,1,0.0,0.5510999999999058
625,12,0.8,0.125,-35.0,-1,1.0,0.774599999999964
626,12,0.5,1.0,-35.0,-1,1.0,0.3747000000000753
627,12,0.5,1.0,35.0,1,1.0,0.2781999999999698
628,12,0.5,0.125,-35.0,-1,1.0,0.3579999999997199
629,12,0.5,0.125,-35.0,1,0.0,1.3280999999999494
630,12,0.7,0.125,35.0,1,1.0,5.238199999999779
631,12,0.5,1.0,-35.0,-1,1.0,0.3084000000001197
632,12,0.5,0.25,35.0,1,1.0,0.3386000000000422
633,12,0.5,0.25,-35.0,-1,1.0,0.3786000000000058
634,12,0.5,1.0,-35.0,-1,1.0,0.3286000000000513
635,12,0.5,1.0,-35.0,-1,1.0,0.3387000000000171
636,12,0.5,0.0,-35.0,1,0.0,2.2088000000001102
637,12,0.5,0.0625,-35.0,1,0.0,0.2322999999998956
638,12,0.5,0.0625,35.0,1,1.0,0.2323999999998705
639,12,0.5,1.0,35.0,1,1.0,0.23910000000000764
640,12,0.5,0.0,35.0,1,1.0,0.6992000000000189
641,12,0.5,0.25,35.0,1,1.0,0.1957999999999629
642,12,0.5,0.125,35.0,1,1.0,0.21260000000006585
643,12,0.5,1.0,-35.0,-1,1.0,0.302599999999984
644,12,0.5,1.0,35.0,1,1.0,0.24929999999994834
645,12,0.5,0.0,-35.0,-1,1.0,1.5295000000000982
646,12,0.5,0.0,-35.0,1,0.0,1.4562000000000808
647,12,0.5,0.0,35.0,-1,0.0,0.7187000000001262
648,12,0.5,0.25,-35.0,1,0.0,3.5885000000002947
649,12,0.5,0.25,35.0,1,1.0,0.3150999999998021
650,12,0.5,1.0,35.0,1,1.0,0.2885000000001128
651,12,0.5,0.25,35.0,1,1.0,0.3453999999996995
652,12,0.5,1.0,35.0,1,1.0,0.2519999999999527
653,12,0.5,0.125,-35.0,-1,1.0,0.4222999999997228
654,12,0.5,1.0,-35.0,-1,1.0,0.09529999999995198
655,12,0.5,0.0,-35.0,1,0.0,4.006999999999607
656,12,0.7,0.0,35.0,-1,0.0,0.5939000000003034
657,12,0.5,1.0,-35.0,-1,1.0,0.27409999999963475
658,12,0.5,0.25,-35.0,-1,1.0,0.26399999999966894
659,12,0.5,0.0,-35.0,1,0.0,1.5440000000003238
660,12,0.5,0.0625,35.0,1,1.0,0.3807999999999083
661,12,0.5,0.0,-35.0,-1,1.0,1.3941999999997279
662,12,0.5,0.25,35.0,1,1.0,4.081000000000131
663,12,0.5,0.0625,35.0,1,1.0,1.601100000000315
664,12,0.5,0.25,35.0,1,1.0,0.2745999999997366
665,12,0.5,0.125,35.0,1,1.0,0.4412999999999556
666,12,0.5,0.0625,35.0,1,1.0,0.6246000000001004
667,12,0.5,0.0,35.0,1,1.0,1.1882000000000517
668,12,0.5,0.0625,35.0,1,1.0,0.2847999999999047
669,12,0.5,1.0,-35.0,-1,1.0,0.7114999999998872
670,12,0.5,1.0,35.0,1,1.0,0.4183000000002721
671,12,0.5,0.25,35.0,1,1.0,0.2984000000001288
672,12,0.5,0.25,35.0,1,1.0,0.26840000000038344
673,12,0.5,0.0625,-35.0,-1,1.0,0.541899999999714
674,12,0.5,0.0625,35.0,1,1.0,0.8585999999995693
675,12,0.5,1.0,35.0,1,1.0,0.7253000000000611
676,12,0.5,1.0,-35.0,-1,1.0,0.2921000000001186
677,12,0.5,1.0,-35.0,-1,1.0,0.3055000000003929
678,12,0.5,0.125,-35.0,1,0.0,0.2055000000000291
679,12,0.5,0.0625,35.0,1,1.0,0.6622999999999593
680,12,0.5,0.0625,-35.0,1,0.0,0.21900000000005093
681,12,0.7,0.0625,35.0,1,1.0,0.5923999999995431
682,12,0.5,1.0,-35.0,-1,1.0,0.5592000000001462
683,12,0.5,0.0625,-35.0,-1,1.0,1.5558999999998377
684,12,0.5,0.125,-35.0,-1,1.0,0.9593999999997322
685,12,0.5,0.0,-35.0,1,0.0,0.4094000000000051
686,12,0.5,0.0625,-35.0,-1,1.0,0.5828999999998814
687,12,0.5,0.0,-35.0,1,0.0,1.122899999999845
688,12,0.5,0.0,-35.0,1,0.0,0.783100000000104
689,12,0.5,0.125,-35.0,1,0.0,0.28310000000010405
690,12,0.5,0.125,-35.0,-1,1.0,0.3665000000000873
691,12,0.5,0.0,-35.0,1,0.0,1.4731999999999061
692,12,0.5,0.25,-35.0,-1,1.0,0.2766999999998916
693,12,0.5,0.0625,35.0,1,1.0,0.2901000000001659
694,12,0.5,0.125,35.0,1,1.0,0.26009999999951106
695,12,0.5,0.25,35.0,1,1.0,0.21680000000014843
696,12,0.5,0.25,35.0,1,1.0,0.2601999999997133
697,12,0.5,0.0,35.0,1,1.0,1.483600000000024
698,12,0.5,1.0,35.0,1,1.0,0.6204000000002452
699,12,0.5,0.25,35.0,1,1.0,0.29040000000031796
700,12,0.5,1.0,-35.0,-1,1.0,0.6604999999999563
701,12,0.5,0.25,35.0,1,1.0,0.30050000000028376
702,12,0.5,0.0,35.0,1,1.0,0.3439000000003034
703,12,0.5,0.125,-35.0,-1,1.0,0.3872999999998683
704,12,0.5,0.125,35.0,1,1.0,0.12409999999999854
705,12,0.5,0.0,35.0,1,1.0,3.2141999999998916
706,12,0.5,0.0,-35.0,1,0.0,1.0976999999998043
707,12,0.5,0.25,-35.0,-1,1.0,0.3110999999998967
708,12,0.5,1.0,35.0,1,1.0,0.24109999999973297
709,12,0.5,0.25,35.0,1,1.0,0.3045000000001892
710,12,0.5,0.0625,-35.0,-1,1.0,2.5845000000003893
711,12,0.5,0.125,35.0,1,1.0,0.3148000000001048
712,12,0.5,0.25,-35.0,-1,1.0,0.30150000000003274
713,12,0.5,0.25,35.0,1,1.0,0.45489999999972497
714,12,0.5,0.0,35.0,1,1.0,0.4215999999996711
715,12,0.5,1.0,-35.0,-1,1.0,0.5282000000001972
716,12,0.5,0.125,-35.0,-1,1.0,0.34160000000019863
717,12,0.5,0.25,-35.0,-1,1.0,0.36850000000004
718,12,0.5,0.0625,-35.0,1,0.0,4.018400000000383
719,12,0.5,0.0625,35.0,-1,0.0,0.3886999999999716
720,12,0.5,0.25,-35.0,-1,1.0,0.6521000000002459
721,12,0.5,0.125,-35.0,-1,1.0,0.2721000000001368
722,12,0.5,0.0625,35.0,1,1.0,6.488799999999628
723,12,0.5,0.25,35.0,1,1.0,0.35570000000006985
724,12,0.5,1.0,35.0,1,1.0,0.48580000000038126
725,12,0.5,1.0,-35.0,-1,1.0,0.8524999999999636
726,12,0.5,0.0625,35.0,1,1.0,1.2592999999997119
727,12,0.5,0.25,-35.0,1,0.0,0.5527000000001863
728,12,0.5,0.125,-35.0,1,0.0,15.22609999999986
729,12,0.5,0.125,35.0,1,1.0,8.136600000000271
730,12,0.5,0.0625,35.0,-1,0.0,19.05679999999984
731,12,0.5,0.125,-35.0,-1,1.0,16.390699999999924
732,12,0.5,0.0625,-35.0,-1,1.0,0.08449999999947977
733,12,0.5,0.25,35.0,0,0.0,59.94459999999981
734,12,0.6,0.25,-35.0,-1,1.0,41.596100000000206
735,12,0.5,1.0,35.0,-1,0.0,40.20399999999972
736,12,0.5,0.25,-35.0,-1,1.0,12.845000000000255
737,12,0.5,0.0625,-35.0,0,0.0,59.95219999999972
738,12,0.4,0.0625,35.0,-1,0.0,8.25709999999981
739,12,0.5,1.0,-35.0,-1,1.0,0.27070000000003347
1,13,0.5,1.0,-35.0,-1,1.0,0.2755000000000001
2,13,0.5,0.0625,35.0,1,1.0,0.6492000000000004
3,13,0.5,0.0625,35.0,-1,0.0,1.1150999999999982
4,13,0.5,0.25,-35.0,-1,1.0,0.3017000000000003
5,13,0.5,1.0,-35.0,-1,1.0,0.23150000000000048
6,13,0.5,0.125,35.0,1,1.0,0.2569999999999979
7,13,0.5,0.25,35.0,1,1.0,0.26950000000000074
8,13,0.5,0.125,-35.0,-1,1.0,0.27770000000000294
9,13,0.5,0.25,-35.0,-1,1.0,0.3194999999999979
10,13,0.5,0.125,-35.0,-1,1.0,0.31599999999999895
11,13,0.5,0.0,-35.0,-1,1.0,3.4292000000000016
12,13,0.5,0.0625,-35.0,-1,1.0,1.7124000000000024
13,13,0.5,0.125,35.0,1,1.0,0.2738000000000014
14,13,0.5,1.0,-35.0,-1,1.0,0.26889999999999503
15,13,0.5,1.0,35.0,1,1.0,0.2300999999999931
16,13,0.5,0.125,-35.0,-1,1.0,0.2715999999999923
17,13,0.5,0.0625,35.0,1,1.0,0.24869999999999237
18,13,0.5,0.125,-35.0,-1,1.0,0.3119999999999976
19,13,0.5,0.125,-35.0,-1,1.0,0.5815999999999946
20,13,0.5,0.0625,-35.0,-1,1.0,0.4461999999999904
21,13,0.5,0.25,-35.0,-1,1.0,0.3048000000000002
22,13,0.5,0.0,-35.0,1,0.0,6.3045999999999935
23,13,0.4,0.0,35.0,-1,0.0,6.077499000000003
24,13,0.5,1.0,35.0,1,1.0,0.6135000000000019
25,13,0.5,0.125,35.0,1,1.0,0.30159999999999343
26,13,0.5,1.0,-35.0,-1,1.0,0.24919999999998765
27,13,0.5,0.25,-35.0,-1,1.0,0.2353999999999985
28,13,0.5,0.25,-35.0,-1,1.0,0.4222000000000179
29,13,0.5,0.125,-35.0,1,0.0,0.09940000000000282
30,13,0.5,0.0625,35.0,1,1.0,0.259900000000016
31,13,0.5,0.25,35.0,1,1.0,0.4309000000000083
32,13,0.5,0.125,-35.0,-1,1.0,0.25190000000003465
33,13,0.5,0.0,35.0,-1,0.0,3.928600000000017
34,13,0.5,0.125,-35.0,-1,1.0,0.29340000000001965
35,13,0.5,1.0,35.0,1,1.0,0.3001999999999896
36,13,0.5,1.0,-35.0,-1,1.0,0.5372999999999877
37,13,0.5,0.0,35.0,1,1.0,0.6418999999999926
38,13,0.5,0.0625,-35.0,-1,1.0,0.6285000000000025
39,13,0.5,0.0625,35.0,1,1.0,0.29220000000000823
40,13,0.5,0.25,-35.0,-1,1.0,0.23380000000003065
41,13,0.5,1.0,35.0,1,1.0,0.21690000000000964
42,13,0.5,0.125,35.0,1,1.0,0.24309999999999832
43,13,0.5,0.25,35.0,1,1.0,1.4802000000000248
44,13,0.5,0.0625,35.0,1,1.0,0.34370000000001255
45,13,0.5,0.25,-35.0,-1,1.0,0.24729999999999563
46,13,0.5,1.0,-35.0,-1,1.0,0.44120000000000914
47,13,0.5,0.0625,35.0,1,1.0,0.9455000000000098
48,13,0.5,0.25,-35.0,-1,1.0,1.8074000000000296
49,13,0.5,1.0,-35.0,-1,1.0,0.2504000000000133
50,13,0.5,1.0,35.0,1,1.0,0.22620000000000573
51,13,0.5,0.0,35.0,1,1.0,0.4449000000000183
52,13,0.5,0.0625,35.0,1,1.0,0.31050000000001887
53,13,0.5,0.125,-35.0,1,0.0,0.3060000000000116
54,13,0.5,0.0625,-35.0,-1,1.0,0.2844000000000051
55,13,0.5,0.25,35.0,1,1.0,0.2699000000000069
56,13,0.5,0.25,35.0,1,1.0,0.3200000000000216
57,13,0.5,1.0,-35.0,-1,1.0,0.21769999999997935
58,13,0.5,1.0,-35.0,-1,1.0,0.6069000000000244
59,13,0.5,1.0,-35.0,-1,1.0,0.8523999999999887
60,13,0.5,0.125,35.0,1,1.0,0.4373999999999967
61,13,0.5,1.0,35.0,1,1.0,0.26249999999998863
62,13,0.5,0.125,-35.0,-1,1.0,0.4046000000000163
63,13,0.5,0.125,35.0,1,1.0,0.2793000000000063
64,13,0.5,0.25,-35.0,-1,1.0,0.20699999999999363
65,13,0.5,0.25,35.0,1,1.0,0.2265000000000157
66,13,0.5,0.125,35.0,1,1.0,0.20340000000001623
67,13,0.5,0.0625,35.0,-1,0.0,0.4189000000000078
68,13,0.5,0.0625,35.0,1,1.0,0.36669999999998026
69,13,0.5,1.0,-35.0,-1,1.0,0.5093000000000529
70,13,0.5,0.0,35.0,1,1.0,0.3005000000000564
71,13,0.5,0.25,-35.0,-1,1.0,0.33269999999998845
72,13,0.5,0.0,35.0,-1,0.0,0.49720000000002074
73,13,0.5,0.0,35.0,1,1.0,0.2872000000000412
74,13,0.5,1.0,35.0,1,1.0,0.19619999999997617
75,13,0.5,1.0,-35.0,-1,1.0,0.23520000000002028
76,13,0.5,0.25,35.0,1,1.0,0.24630000000001928
77,13,0.5,1.0,-35.0,-1,1.0,0.2504000000000133
78,13,0.5,0.25,-35.0,-1,1.0,1.749400000000037
79,13,0.5,0.25,35.0,1,1.0,0.3049000000000319
80,13,0.5,0.0,-35.0,1,0.0,0.29410000000001446
81,13,0.5,0.0625,-35.0,-1,1.0,0.09590000000002874
82,13,0.5,0.0,-35.0,-1,1.0,0.26039999999994734
83,13,0.5,0.25,35.0,1,1.0,0.14470000000005712
84,13,0.5,1.0,35.0,1,1.0,0.19240000000002055
85,13,0.5,0.0625,-35.0,-1,1.0,4.534899999999993
86,13,0.5,0.0625,-35.0,-1,1.0,-0.005200000000058935
87,13,0.5,0.0,-35.0,-1,1.0,0.7230000000000132
88,13,0.5,0.0625,35.0,1,1.0,1.5212000000000216
89,13,0.5,0.0625,-35.0,1,0.0,0.29909999999995307
90,13,0.5,0.125,-35.0,-1,1.0,0.22870000000000346
91,13,0.5,0.0,-35.0,1,0.0,0.2137000000000171
92,13,0.5,0.0,35.0,1,1.0,0.303100000000029
93,13,0.5,1.0,35.0,1,1.0,0.4304000000000201
94,13,0.5,0.25,-35.0,-1,1.0,0.6784000000000106
95,13,0.5,0.0625,35.0,1,1.0,0.5265999999999735
96,13,0.5,0.0625,35.0,1,1.0,0.9867000000000417
97,13,0.5,0.125,35.0,1,1.0,0.2950000000000159
98,13,0.5,1.0,35.0,1,1.0,0.33389999999997144
99,13,0.5,0.0,-35.0,1,0.0,0.4019999999999868
100,13,0.8,0.0,-35.0,-1,1.0,0.28449999999998
101,13,0.5,1.0,-35.0,-1,1.0,0.188699999999983
102,13,0.5,0.0625,-35.0,1,0.0,4.867799999999988
103,13,0.7,0.0625,-35.0,1,0.0,0.34840000000002647
104,13,0.5,1.0,-35.0,-1,1.0,0.2559999999999718
105,13,0.5,0.25,-35.0,-1,1.0,0.24699999999995725
106,13,0.5,0.0625,-35.0,-1,1.0,0.5202999999999633
107,13,0.5,0.25,-35.0,-1,1.0,0.601099999999974
108,13,0.5,0.25,-35.0,-1,1.0,0.6553000000000111
109,13,0.5,0.0625,-35.0,1,0.0,0.2563000000000102
110,13,0.5,0.125,-35.0,-1,1.0,0.2598000000000411
111,13,0.5,0.125,-35.0,-1,1.0,0.4800000000000182
112,13,0.5,1.0,35.0,1,1.0,0.3131000000000199
113,13,0.5,0.125,35.0,1,1.0,0.26949999999999363
114,13,0.5,0.125,35.0,1,1.0,0.2540000000000191
115,13,0.5,0.25,-35.0,-1,1.0,0.3153000000000361
116,13,0.5,0.25,-35.0,-1,1.0,0.2615000000000123
117,13,0.5,0.125,35.0,1,1.0,0.32730000000003656
118,13,0.5,0.25,35.0,1,1.0,0.293200000000013
119,13,0.5,0.0625,35.0,1,1.0,0.06079999999997199
120,13,0.5,0.125,35.0,1,1.0,0.35669999999998936
121,13,0.5,0.0,35.0,1,1.0,2.078200000000038
122,13,0.5,1.0,35.0,1,1.0,0.31450000000000955
123,13,0.5,0.0625,35.0,1,1.0,1.4099999999999682
124,13,0.5,1.0,35.0,1,1.0,0.19839999999999236
125,13,0.5,0.25,-35.0,-1,1.0,0.07540000000000191
126,13,0.5,1.0,35.0,1,1.0,0.5439999999999827
127,13,0.5,0.25,-35.0,-1,1.0,0.29359999999996944
128,13,0.5,0.25,-35.0,-1,1.0,0.30930000000000746
129,13,0.5,1.0,35.0,1,1.0,0.41250000000002274
130,13,0.5,0.25,35.0,1,1.0,0.22710000000006403
131,13,0.5,0.125,-35.0,1,0.0,0.11529999999999063
132,13,0.7,0.125,-35.0,-1,1.0,0.2574000000000183
133,13,0.5,1.0,35.0,1,1.0,0.2767000000000053
134,13,0.5,0.0625,35.0,1,1.0,0.2588999999999828
135,13,0.5,0.0,35.0,1,1.0,0.20920000000000982
136,13,0.5,0.125,35.0,1,1.0,0.2512999999999579
137,13,0.5,0.25,-35.0,-1,1.0,0.31730000000004566
138,13,0.5,0.0,35.0,-1,0.0,0.245900000000006
139,13,0.5,0.25,35.0,1,1.0,0.23980000000000246
140,13,0.5,1.0,-35.0,-1,1.0,0.3141000000000531
141,13,0.5,0.25,35.0,1,1.0,0.2586000000000013
142,13,0.5,0.0,-35.0,1,0.0,0.291499999999985
143,13,0.5,0.0625,-35.0,1,0.0,0.269299999999987
144,13,0.5,0.25,35.0,-1,0.0,0.1914000000000442
145,13,0.5,0.25,35.0,1,1.0,0.012799999999856482
146,13,0.5,1.0,-35.0,-1,1.0,0.1934999999999718
147,13,0.5,0.0625,-35.0,-1,1.0,0.27070000000003347
148,13,0.5,1.0,-35.0,-1,1.0,0.25739999999996144
149,13,0.5,0.125,-35.0,-1,1.0,0.226099999999974
150,13,0.5,0.0625,35.0,1,1.0,0.05489999999997508
151,13,0.5,1.0,35.0,1,1.0,0.3041999999999234
152,13,0.5,0.0625,-35.0,1,0.0,0.28940000000000055
153,13,0.5,0.25,-35.0,-1,1.0,0.2686999999999671
154,13,0.5,0.125,35.0,1,1.0,0.030099999999947613
155,13,0.5,0.125,35.0,1,1.0,0.41019999999991796
156,13,0.5,1.0,35.0,1,1.0,0.2218999999998914
157,13,0.5,1.0,35.0,1,1.0,0.34159999999997126
158,13,0.5,0.25,35.0,1,1.0,0.22730000000001382
159,13,0.5,0.0,-35.0,1,0.0,0.2858999999999696
160,13,0.9,0.0,-35.0,-1,1.0,0.42019999999990887
161,13,0.5,1.0,-35.0,-1,1.0,0.20939999999995962
162,13,0.5,0.0625,-35.0,1,0.0,0.25899999999990087
163,13,0.5,0.0625,-35.0,-1,1.0,0.3990000000000009
164,13,0.5,0.25,-35.0,-1,1.0,0.3770999999999276
165,13,0.5,1.0,35.0,1,1.0,1.556699999999978
166,13,0.5,0.0625,35.0,1,1.0,0.22709999999983665
167,13,0.5,0.125,-35.0,-1,1.0,0.5697999999999865
168,13,0.5,0.0,-35.0,1,0.0,2.0516000000000076
169,13,0.5,0.125,-35.0,-1,1.0,0.40679999999986194
170,13,0.5,0.125,35.0,1,1.0,0.039099999999962165
171,13,0.5,0.0625,-35.0,-1,1.0,0.7346999999999753
172,13,0.5,0.25,35.0,1,1.0,0.21469999999987976
173,13,0.5,0.25,-35.0,-1,1.0,0.19659999999998945
174,13,0.5,0.0,-35.0,1,0.0,0.2881999999999607
175,13,0.5,0.25,35.0,1,1.0,0.21549999999990632
176,13,0.5,1.0,-35.0,-1,1.0,0.24450000000001637
177,13,0.5,1.0,-35.0,-1,1.0,0.22639999999989868
178,13,0.5,1.0,35.0,1,1.0,0.39399999999989177
179,13,0.5,1.0,-35.0,-1,1.0,0.23279999999999745
180,13,0.5,0.125,-35.0,-1,1.0,0.384900000000016
181,13,0.5,0.0625,35.0,-1,0.0,0.22249999999985448
182,13,0.5,0.0625,-35.0,1,0.0,3.149000000000001
183,13,0.5,0.0625,35.0,1,1.0,0.41879999999991924
184,13,0.5,0.0625,-35.0,-1,1.0,0.1959999999999127
185,13,0.5,0.125,35.0,1,1.0,0.26709999999991396
186,13,0.5,0.25,-35.0,-1,1.0,0.6169999999999618
187,13,0.5,1.0,35.0,1,1.0,0.20539999999994052
188,13,0.5,0.0625,-35.0,-1,1.0,0.483899999999835
189,13,0.5,0.0625,35.0,1,1.0,0.38059999999984484
190,13,0.5,0.0625,-35.0,1,0.0,0.21829999999999927
191,13,0.6,0.0625,35.0,-1,0.0,0.0764000000000351
192,13,0.5,1.0,-35.0,-1,1.0,0.2156999999999698
193,13,0.5,0.125,35.0,1,1.0,0.3430999999999358
194,13,0.5,0.125,35.0,1,1.0,0.20889999999997144
195,13,0.5,0.25,-35.0,-1,1.0,0.19610000000000127
196,13,0.5,1.0,-35.0,-1,1.0,0.36999999999989086
197,13,0.5,0.25,35.0,1,1.0,0.22759999999993852
198,13,0.5,0.0,35.0,1,1.0,0.2882999999999356
199,13,0.5,0.125,-35.0,1,0.0,0.33839999999986503
200,13,0.5,0.0625,-35.0,-1,1.0,0.6937000000000353
201,13,0.5,0.125,-35.0,-1,1.0,0.30309999999997217
202,13,0.5,1.0,-35.0,-1,1.0,0.39430000000004384
203,13,0.5,0.25,35.0,1,1.0,0.23869999999999436
204,13,0.5,0.25,-35.0,-1,1.0,0.38429999999993925
205,13,0.5,0.125,35.0,-1,0.0,0.06370000000003984
206,13,0.5,0.0,35.0,-1,0.0,0.3164999999999054
207,13,0.5,0.0625,35.0,1,1.0,0.8021999999999707
208,13,0.5,0.0,-35.0,1,0.0,0.27719999999999345
209,13,0.5,0.25,35.0,1,1.0,0.23459999999988668
210,13,0.5,0.125,-35.0,-1,1.0,1.1784999999999854
211,13,0.5,0.0625,35.0,1,1.0,1.185100000000034
212,13,0.5,0.125,35.0,1,1.0,0.5024999999999409
213,13,0.5,1.0,35.0,1,1.0,0.22749999999996362
214,13,0.5,0.25,-35.0,-1,1.0,0.27520000000004075
215,13,0.5,1.0,-35.0,-1,1.0,0.3186999999998079
216,13,0.5,0.0625,-35.0,-1,1.0,0.24699999999995725
217,13,0.5,0.0625,35.0,-1,0.0,0.42669999999998254
218,13,0.5,0.25,-35.0,-1,1.0,0.2097999999998592
219,13,0.5,0.0625,-35.0,-1,1.0,0.7275999999999385
220,13,0.5,1.0,-35.0,-1,1.0,0.28150000000005093
221,13,0.5,1.0,35.0,1,1.0,0.24669999999991887
222,13,0.5,0.125,-35.0,-1,1.0,0.18989999999996598
223,13,0.5,0.125,-35.0,-1,1.0,0.22519999999997253
224,13,0.5,1.0,35.0,-1,0.0,0.06139999999993506
225,13,0.5,0.25,-35.0,-1,1.0,0.1895999999999276
226,13,0.5,1.0,-35.0,-1,1.0,0.21080000000006294
227,13,0.5,1.0,35.0,1,1.0,0.23689999999999145
228,13,0.5,0.0625,-35.0,-1,1.0,0.2782999999999447
229,13,0.5,0.0,-35.0,-1,1.0,0.35839999999996053
230,13,0.5,0.25,-35.0,-1,1.0,0.5068999999999733
231,13,0.5,0.0625,35.0,-1,0.0,0.27369999999996253
232,13,0.1,0.0625,35.0,1,1.0,0.3322999999999183
233,13,0.5,1.0,-35.0,-1,1.0,0.21839999999997417
234,13,0.5,0.0625,35.0,1,1.0,0.25260000000002947
235,13,0.5,0.125,-35.0,-1,1.0,0.20529999999996562
236,13,0.5,0.0,35.0,-1,0.0,0.5059999999999718
237,13,0.3,0.0,-35.0,1,0.0,0.2960999999999103
238,13,0.5,1.0,-35.0,-1,1.0,0.1798999999998614
239,13,0.5,1.0,-35.0,-1,1.0,0.2805999999999358
240,13,0.5,0.0,35.0,-1,0.0,2.1796000000000504
241,13,0.5,0.25,-35.0,-1,1.0,0.19880000000000564
242,13,0.5,0.0625,-35.0,1,0.0,0.28089999999997417
243,13,0.5,0.125,-35.0,-1,1.0,0.1995999999999185
244,13,0.5,1.0,35.0,1,1.0,0.2862999999999829
245,13,0.5,0.0,-35.0,-1,1.0,4.029699999999934
246,13,0.5,0.125,-35.0,-1,1.0,0.22889999999983957
247,13,0.5,0.25,35.0,-1,0.0,0.10119999999994889
248,13,0.2,0.25,35.0,1,1.0,0.5294999999999845
249,13,0.5,1.0,35.0,1,1.0,0.2441000000000031
250,13,0.5,0.25,-35.0,-1,1.0,0.22649999999998727
251,13,0.5,1.0,35.0,1,1.0,0.3508999999999105
252,13,0.5,0.125,-35.0,-1,1.0,0.61099999999999
253,13,0.5,1.0,35.0,1,1.0,0.30769999999995434
254,13,0.5,0.25,-35.0,-1,1.0,0.3181999999999334
255,13,0.5,0.25,-35.0,-1,1.0,0.23019999999996799
256,13,0.5,0.25,-35.0,-1,1.0,0.19499999999993634
257,13,0.5,0.0625,35.0,1,1.0,0.5109999999998536
258,13,0.5,1.0,-35.0,-1,1.0,0.1313999999998714
259,13,0.5,1.0,35.0,1,1.0,0.19839999999999236
260,13,0.5,0.125,-35.0,-1,1.0,0.23649999999997817
261,13,0.5,0.25,-35.0,-1,1.0,0.375498999999877
262,13,0.5,0.0625,35.0,1,1.0,0.223700000000008
263,13,0.5,0.0625,-35.0,-1,1.0,0.3586999999999989
264,13,0.5,0.0625,35.0,1,1.0,0.3330999999999449
265,13,0.5,1.0,-35.0,-1,1.0,0.20309999999994943
266,13,0.5,0.25,-35.0,-1,1.0,0.066599999999994
267,13,0.5,0.125,35.0,-1,0.0,1.1491999999999507
268,13,0.5,0.125,35.0,1,1.0,0.11429999999995744
269,13,0.5,1.0,35.0,1,1.0,0.30369999999982156
270,13,0.5,1.0,-35.0,-1,1.0,0.5211000000000467
271,13,0.5,0.0625,-35.0,-1,1.0,1.1701999999999089
272,13,0.5,0.125,35.0,1,1.0,0.2619999999999436
273,13,0.5,0.25,35.0,1,1.0,0.1029999999999518
274,13,0.5,1.0,-35.0,-1,1.0,0.22889999999995325
275,13,0.5,1.0,35.0,1,1.0,0.08409999999992124
276,13,0.5,0.125,-35.0,-1,1.0,0.41449999999997544
277,13,0.5,0.25,-35.0,-1,1.0,0.5053000000000338
278,13,0.5,0.25,-35.0,-1,1.0,0.65199999999993
279,13,0.5,1.0,-35.0,-1,1.0,0.4107999999999947
280,13,0.5,0.125,35.0,1,1.0,0.23480000000006385
281,13,0.5,0.0625,35.0,1,1.0,0.2198000000000775
282,13,0.5,1.0,35.0,1,1.0,0.2102999999998474
283,13,0.5,0.25,-35.0,-1,1.0,1.5100999999998521
284,13,0.5,1.0,35.0,1,1.0,0.4714000000000169
285,13,0.5,0.25,35.0,1,1.0,0.24610000000006949
286,13,0.5,1.0,35.0,-1,0.0,0.1738999999998896
287,13,0.5,0.0625,35.0,-1,0.0,0.34769999999991796
288,13,0.5,0.0625,-35.0,-1,1.0,0.25270000000000437
289,13,0.5,1.0,-35.0,-1,1.0,0.2648999999998978
290,13,0.5,1.0,-35.0,-1,1.0,0.24169999999992342
291,13,0.5,0.0,-35.0,1,0.0,1.5953999999999269
292,13,0.4,0.0,35.0,1,1.0,0.24950000000001182
293,13,0.5,1.0,-35.0,-1,1.0,0.2139999999999418
294,13,0.5,0.125,-35.0,-1,1.0,1.034400000000005
295,13,0.5,0.0625,35.0,1,1.0,0.4027999999999565
296,13,0.5,0.0625,-35.0,-1,1.0,0.227800000000002
297,13,0.5,0.25,-35.0,1,0.0,0.17629999999996926
298,13,0.5,0.25,-35.0,-1,1.0,0.19099999999991724
299,13,0.5,0.125,35.0,1,1.0,0.2563999999998714
300,13,0.5,0.0625,35.0,1,1.0,0.24869999999987158
301,13,0.5,0.125,35.0,1,1.0,0.924199999999928
302,13,0.5,1.0,35.0,1,1.0,0.1875999999999749
303,13,0.5,0.125,-35.0,1,0.0,0.22759999999993852
304,13,0.5,0.25,35.0,1,1.0,0.24440000000004147
305,13,0.5,0.25,-35.0,-1,1.0,0.36770000000001346
306,13,0.5,0.25,-35.0,-1,1.0,0.22119999999995343
307,13,0.5,0.25,35.0,1,1.0,0.5513999999999442
308,13,0.5,1.0,-35.0,-1,1.0,0.22469999999987067
309,13,0.5,1.0,-35.0,-1,1.0,0.32809999999994943
310,13,0.5,0.0,-35.0,-1,1.0,1.3015000000000327
311,13,0.5,0.125,35.0,1,1.0,-0.04179999999973916
312,13,0.5,0.25,-35.0,-1,1.0,0.27510000000006585
313,13,0.5,0.0625,-35.0,-1,1.0,0.18509999999992033
314,13,0.5,1.0,-35.0,-1,1.0,0.28510000000005675
315,13,0.5,0.125,-35.0,-1,1.0,0.47849999999994
316,13,0.5,1.0,35.0,1,1.0,0.23860000000013315
317,13,0.5,0.125,35.0,-1,0.0,0.16210000000000946
318,13,0.5,0.0,-35.0,-1,1.0,4.148799999999937
319,13,0.5,0.0,35.0,-1,0.0,2.072400000000016
320,13,0.5,0.25,-35.0,-1,1.0,0.2357999999999265
321,13,0.5,0.0625,-35.0,-1,1.0,0.5624999999997726
322,13,0.5,0.0625,35.0,1,1.0,0.24250000000006366
323,13,0.5,0.0625,35.0,1,1.0,0.4859999999998763
324,13,0.5,0.125,35.0,1,1.0,0.22610000000008768
325,13,0.5,0.0625,-35.0,1,0.0,0.839500000000271
326,13,0.5,0.25,35.0,1,1.0,0.679700000000139
327,13,0.5,0.0625,35.0,1,1.0,0.6630000000000109
328,13,0.5,0.25,-35.0,-1,1.0,0.5665000000001328
329,13,0.5,0.25,-35.0,-1,1.0,0.35639999999989413
330,13,0.5,0.25,-35.0,-1,1.0,0.24990000000025248
331,13,0.5,0.25,-35.0,-1,1.0,0.2599000000002434
332,13,0.5,1.0,35.0,1,1.0,0.19669999999996435
333,13,0.5,0.25,35.0,1,1.0,0.2533000000000811
334,13,0.5,1.0,35.0,-1,0.0,0.38040000000000873
335,13,0.5,0.0625,35.0,1,1.0,0.36360000000013315
336,13,0.5,0.0,35.0,1,1.0,0.3003000000001066
337,13,0.5,0.0,-35.0,-1,1.0,0.12389999999982138
338,13,0.5,0.125,35.0,-1,0.0,0.23710000000005493
339,13,0.5,0.125,35.0,1,1.0,0.5473000000001775
340,13,0.5,0.25,35.0,1,1.0,0.39409999999998035
341,13,0.5,0.125,-35.0,-1,1.0,0.24410000000011678
342,13,0.5,1.0,-35.0,-1,1.0,0.20090000000004693
343,13,0.5,0.0625,35.0,1,1.0,0.30090000000018335
344,13,0.5,1.0,-35.0,-1,1.0,0.08449999999993452
345,13,0.5,0.125,-35.0,-1,1.0,0.38769999999999527
346,13,0.5,1.0,-35.0,-1,1.0,0.26789999999982683
347,13,0.5,1.0,35.0,1,1.0,0.24460000000021864
348,13,0.5,1.0,-35.0,-1,1.0,0.22470000000021173
349,13,0.5,0.125,35.0,1,1.0,0.38810000000012224
350,13,0.5,0.0625,35.0,1,1.0,0.2780999999999949
351,13,0.5,0.0625,-35.0,-1,1.0,0.7115000000001146
352,13,0.5,1.0,35.0,1,1.0,0.5916000000001986
353,13,0.5,1.0,-35.0,-1,1.0,0.5683000000001357
354,13,0.5,1.0,35.0,1,1.0,0.25500000000010914
355,13,0.5,0.0625,35.0,1,1.0,0.2318000000000211
356,13,0.5,0.0,35.0,1,1.0,0.2785000000001219
357,13,0.5,1.0,35.0,1,1.0,0.4252000000001317
358,13,0.5,0.25,-35.0,-1,1.0,0.20199999999999818
359,13,0.5,0.0625,-35.0,1,0.0,0.5119999999999436
360,13,0.5,0.0625,-35.0,-1,1.0,0.4388000000003558
361,13,0.5,0.0,35.0,1,1.0,0.31549999999992906
362,13,0.5,0.125,35.0,1,1.0,0.3789000000001579
363,13,0.5,0.0625,-35.0,1,0.0,0.39560000000005857
364,13,0.8,0.0625,-35.0,1,0.0,0.37239999999974316
365,13,0.5,1.0,35.0,1,1.0,0.23910000000000764
366,13,0.5,0.0,35.0,1,1.0,3.4325000000001182
367,13,0.5,1.0,-35.0,-1,1.0,0.28930000000013933
368,13,0.5,0.125,-35.0,-1,1.0,1.5692999999998847
369,13,0.5,0.125,-35.0,-1,1.0,0.7628999999999451
370,13,0.5,0.25,-35.0,-1,1.0,0.276299999999992
371,13,0.5,0.0625,-35.0,1,0.0,0.17980000000011387
372,13,0.5,0.25,-35.0,-1,1.0,0.3464000000001306
373,13,0.5,0.125,-35.0,-1,1.0,0.2598000000002685
374,13,0.5,0.125,-35.0,-1,1.0,0.32330000000024484
375,13,0.5,1.0,35.0,1,1.0,0.26330000000007203
376,13,0.5,1.0,35.0,1,1.0,0.19679999999993925
377,13,0.5,0.125,35.0,-1,0.0,3.1868000000001757
378,13,0.5,0.0625,-35.0,1,0.0,0.7269000000001142
379,13,0.5,0.125,35.0,1,1.0,0.2737999999999374
380,13,0.5,1.0,-35.0,-1,1.0,0.2337999999999738
381,13,0.5,0.0625,-35.0,1,0.0,0.9004000000002179
382,13,0.5,0.125,-35.0,1,0.0,0.5473000000001775
383,13,0.5,0.0625,-35.0,1,0.0,2.914099999999962
384,13,0.7,0.0625,-35.0,-1,1.0,0.7341000000001259
385,13,0.5,1.0,-35.0,-1,1.0,0.1975999999999658
386,13,0.5,1.0,-35.0,-1,1.0,0.2443999999998141
387,13,0.5,0.0,35.0,-1,0.0,0.22430000000008476
388,13,0.5,0.0625,35.0,1,1.0,0.5712000000000899
389,13,0.5,0.25,-35.0,-1,1.0,0.28119999999989886
390,13,0.5,0.25,35.0,1,1.0,0.2645999999999731
391,13,0.5,0.125,-35.0,-1,1.0,0.7747000000001663
392,13,0.5,0.0,35.0,-1,0.0,3.217999999999847
393,13,0.5,0.25,35.0,1,1.0,0.44820000000004256
394,13,0.5,0.25,-35.0,-1,1.0,0.2316000000000713
395,13,0.5,0.0625,-35.0,-1,1.0,0.7017000000000735
396,13,0.5,0.125,-35.0,-1,1.0,0.24170000000026448
397,13,0.5,0.0625,-35.0,-1,1.0,0.6485000000000127
398,13,0.5,0.25,35.0,1,1.0,0.28530000000000655
399,13,0.5,0.0625,-35.0,1,0.0,0.4453000000000884
400,13,0.5,0.0625,-35.0,-1,1.0,0.23879999999985557
401,13,0.5,1.0,35.0,1,1.0,0.3121000000001004
402,13,0.5,0.0,-35.0,-1,1.0,0.3890000000001237
403,13,0.5,0.125,-35.0,-1,1.0,4.66579999999999
404,13,0.5,0.0,35.0,-1,0.0,0.29940000000010514
405,13,0.3,0.0,35.0,1,1.0,1.1461000000001604
406,13,0.5,1.0,35.0,1,1.0,0.48620000000028085
407,13,0.5,0.0625,35.0,1,1.0,1.4429000000000087
408,13,0.5,0.0625,-35.0,-1,1.0,0.2497000000000753
409,13,0.5,0.0625,-35.0,-1,1.0,1.1631000000002132
410,13,0.5,0.125,35.0,-1,0.0,0.37310000000024957
411,13,0.5,0.25,35.0,1,1.0,0.28320000000007894
412,13,0.5,0.125,-35.0,-1,1.0,0.2699000000000069
413,13,0.5,0.25,35.0,1,1.0,0.2666999999999007
414,13,0.5,0.0625,35.0,1,1.0,0.6334000000001652
415,13,0.5,0.125,35.0,1,1.0,0.866800000000012
416,13,0.5,1.0,35.0,1,1.0,0.27350000000001273
417,13,0.5,1.0,35.0,-1,0.0,0.6268999999999778
418,13,0.5,1.0,-35.0,-1,1.0,0.23040000000014516
419,13,0.5,1.0,35.0,-1,0.0,0.22710000000006403
420,13,0.5,0.0625,35.0,1,1.0,0.3105000000000473
421,13,0.5,0.0625,-35.0,-1,1.0,0.30729999999994106
422,13,0.5,0.25,35.0,1,1.0,0.4107000000001335
423,13,0.5,1.0,-35.0,-1,1.0,0.6107999999999265
424,13,0.5,0.0,-35.0,-1,1.0,0.824100000000044
425,13,0.5,1.0,35.0,1,1.0,0.47420000000010987
426,13,0.5,0.25,-35.0,-1,1.0,0.2476000000001477
427,13,0.5,0.25,35.0,1,1.0,0.29769999999984975
428,13,0.5,1.0,35.0,1,1.0,0.28119999999989886
429,13,0.5,0.0625,35.0,1,1.0,0.9078999999999269
430,13,0.5,1.0,-35.0,-1,1.0,0.4977999999998701
431,13,0.5,0.125,-35.0,-1,1.0,0.4414000000001579
432,13,0.5,1.0,35.0,1,1.0,0.2414000000001124
433,13,0.5,1.0,35.0,1,1.0,0.2414000000001124
434,13,0.5,0.125,35.0,1,1.0,3.491600000000062
435,13,0.5,0.125,-35.0,-1,1.0,0.24499999999989086
436,13,0.5,0.125,35.0,1,1.0,0.491800000000012
437,13,0.5,0.25,35.0,-1,0.0,0.5586000000000695
438,13,0.5,0.25,-35.0,1,0.0,0.16850000000022192
439,13,0.5,0.25,35.0,1,1.0,0.22859999999991487
440,13,0.5,0.25,-35.0,-1,1.0,0.37200000000007094
441,13,0.5,0.125,-35.0,-1,1.0,0.24870000000009895
442,13,0.5,0.0625,-35.0,-1,1.0,0.46890000000007603
443,13,0.5,0.125,-35.0,-1,1.0,0.7055000000002565
444,13,0.5,1.0,-35.0,-1,1.0,0.2824000000000524
445,13,0.5,0.125,35.0,1,1.0,1.055699999999888
446,13,0.5,1.0,35.0,1,1.0,0.5825999999999567
447,13,0.5,1.0,35.0,1,1.0,0.4192000000000462
448,13,0.5,0.0625,-35.0,-1,1.0,0.27930000000014843
449,13,0.5,0.0,35.0,1,1.0,0.3126999999999498
450,13,0.5,0.125,-35.0,-1,1.0,0.21939999999995052
451,13,0.5,0.25,-35.0,-1,1.0,0.4228000000002794
452,13,0.5,1.0,35.0,1,1.0,0.3061999999999898
453,13,0.5,1.0,35.0,1,1.0,0.29290000000014516
454,13,0.5,0.0625,35.0,1,1.0,0.559800000000223
455,13,0.5,1.0,35.0,1,1.0,0.6365000000000691
456,13,0.5,0.125,35.0,1,1.0,0.32330000000001746
457,13,0.5,0.0,35.0,1,1.0,0.31340000000000146
458,13,0.5,0.25,35.0,1,1.0,0.5367000000001099
459,13,0.5,0.0625,-35.0,-1,1.0,0.730199999999968
460,13,0.5,1.0,35.0,1,1.0,0.44020000000000437
461,13,0.5,0.25,-35.0,-1,1.0,0.35700000000019827
462,13,0.5,0.25,35.0,-1,0.0,0.4937999999999647
463,13,0.7,0.25,35.0,-1,0.0,0.23050000000012005
464,13,0.5,1.0,35.0,1,1.0,0.25060000000007676
465,13,0.5,1.0,-35.0,-1,1.0,0.1673000000000684
466,13,0.5,1.0,-35.0,-1,1.0,0.32070000000021537
467,13,0.5,0.0625,35.0,1,1.0,2.1140000000000327
468,13,0.5,0.0625,-35.0,-1,1.0,0.3108999999999469
469,13,0.5,1.0,35.0,1,1.0,0.31090000000017426
470,13,0.5,0.25,35.0,1,1.0,0.4110000000000582
471,13,0.5,0.0,35.0,1,1.0,0.561100000000124
472,13,0.5,0.0,-35.0,-1,1.0,0.1411000000000513
473,13,0.5,0.0,-35.0,1,0.0,0.3311999999998534
474,13,0.6,0.0,-35.0,1,0.0,0.07140000000026703
475,13,0.5,1.0,-35.0,-1,1.0,-0.02189999999995962
476,13,0.5,0.0,-35.0,1,0.0,0.3148000000001048
477,13,0.5,0.25,35.0,1,1.0,0.5580999999999676
478,13,0.5,0.0,-35.0,-1,1.0,0.28490000000010696
479,13,0.5,0.0625,-35.0,-1,1.0,0.2216000000000804
480,13,0.5,0.25,-35.0,-1,1.0,0.18170000000009168
481,13,0.5,0.125,35.0,1,1.0,0.25840000000016516
482,13,0.5,1.0,-35.0,-1,1.0,0.17859999999996035
483,13,0.5,1.0,-35.0,-1,1.0,0.22199999999998
484,13,0.5,1.0,35.0,1,1.0,0.08540000000016335
485,13,0.5,0.0625,-35.0,-1,1.0,0.3088999999999942
486,13,0.5,0.125,35.0,1,1.0,0.3088999999999942
487,13,0.5,0.125,-35.0,-1,1.0,0.6125999999999294
488,13,0.5,1.0,-35.0,-1,1.0,0.23919999999998254
489,13,0.5,0.25,-35.0,-1,1.0,0.30270000000018626
490,13,0.5,0.25,-35.0,-1,1.0,0.27939999999989595
491,13,0.5,1.0,35.0,1,1.0,0.2861000000000331
492,13,0.5,0.0625,-35.0,-1,1.0,0.8028000000001612
493,13,0.5,0.125,35.0,1,1.0,0.6829000000000178
494,13,0.5,0.0,35.0,1,1.0,2.2061999999998534
495,13,0.5,0.125,-35.0,-1,1.0,5.989700000000084
496,13,0.5,1.0,35.0,1,1.0,0.6067000000000462
497,13,0.5,0.0625,35.0,-1,0.0,0.2968999999998232
498,13,0.5,0.0625,35.0,1,1.0,0.3302000000001044
499,13,0.5,0.125,-35.0,-1,1.0,0.28369999999995343
500,13,0.5,0.0,-35.0,1,0.0,0.2938000000001466
501,13,0.5,0.25,-35.0,-1,1.0,0.223700000000008
502,13,0.5,0.25,35.0,1,1.0,0.5905000000002474
503,13,0.5,0.25,-35.0,-1,1.0,0.3805999999999585
504,13,0.5,0.125,-35.0,-1,1.0,0.2541000000001077
505,13,0.5,0.125,35.0,-1,0.0,0.8841999999999643
506,13,0.5,0.125,35.0,1,1.0,5.367600000000039
507,13,0.5,0.125,35.0,1,1.0,0.4878000000001066
508,13,0.5,0.125,35.0,1,1.0,1.577900000000227
509,13,0.5,0.25,-35.0,-1,1.0,0.27140000000008513
510,13,0.5,0.125,-35.0,-1,1.0,0.6981000000000677
511,13,0.5,0.125,-35.0,-1,1.0,0.3848000000000411
512,13,0.5,0.25,-35.0,-1,1.0,0.28149999999982356
513,13,0.5,0.0625,35.0,1,1.0,0.4281999999998334
514,13,0.5,0.125,35.0,1,1.0,0.30169999999998254
515,13,0.5,0.125,35.0,1,1.0,0.6217000000001462
516,13,0.5,0.25,-35.0,-1,1.0,0.21510000000012042
517,13,0.5,0.125,35.0,1,1.0,0.28520000000003165
518,13,0.5,1.0,35.0,-1,0.0,0.2052000000001044
519,13,0.4,1.0,35.0,1,1.0,0.508600000000115
520,13,0.5,1.0,35.0,1,1.0,0.5487000000002809
521,13,0.5,0.0625,-35.0,-1,1.0,0.5954999999999018
522,13,0.5,1.0,-35.0,-1,1.0,0.22220000000015716
523,13,0.5,0.125,35.0,-1,0.0,0.10910000000012587
524,13,0.5,0.0625,-35.0,-1,1.0,0.3626000000001568
525,13,0.5,0.0625,35.0,-1,0.0,0.6425000000001546
526,13,0.5,0.125,-35.0,1,0.0,0.1226000000001477
527,13,0.4,0.125,-35.0,-1,1.0,0.292699999999968
528,13,0.5,1.0,35.0,1,1.0,0.24280000000021573
529,13,0.5,0.125,35.0,1,1.0,1.5760999999999967
530,13,0.5,0.25,-35.0,-1,1.0,0.2862999999999829
531,13,0.5,0.25,35.0,1,1.0,0.3730000000000473
532,13,0.5,0.0625,-35.0,-1,1.0,0.10310000000026776
533,13,0.5,0.25,-35.0,-1,1.0,0.2964000000001761
534,13,0.5,1.0,35.0,1,1.0,0.2399000000000342
535,13,0.5,0.25,35.0,1,1.0,0.24330000000009022
536,13,0.5,0.25,35.0,1,1.0,0.30670000000031905
537,13,0.5,0.125,35.0,1,1.0,0.2700000000002092
538,13,0.5,0.25,35.0,1,1.0,0.2600999999999658
539,13,0.5,0.0,35.0,1,1.0,0.3168000000000575
540,13,0.5,0.0625,35.0,-1,0.0,0.5769999999999982
541,13,0.5,0.0625,35.0,1,1.0,0.34699999999998
542,13,0.5,1.0,35.0,1,1.0,0.21700000000009823
543,13,0.5,0.0625,-35.0,-1,1.0,0.7739000000001397
544,13,0.5,0.25,35.0,-1,0.0,0.18400000000019645
545,13,0.7,0.25,-35.0,-1,1.0,0.3140000000000782
546,13,0.5,1.0,-35.0,-1,1.0,0.19090000000005602
547,13,0.5,0.125,-35.0,-1,1.0,0.3041000000000622
548,13,0.5,0.25,35.0,1,1.0,0.054300000000012005
549,13,0.5,0.25,-35.0,-1,1.0,0.02430000000003929
550,13,0.5,0.125,35.0,-1,0.0,0.42440000000010514
551,13,0.5,0.125,-35.0,-1,1.0,0.25450000000023465
552,13,0.5,1.0,-35.0,-1,1.0,0.2479000000000724
553,13,0.5,1.0,-35.0,-1,1.0,0.23140000000034888
554,13,0.5,1.0,-35.0,-1,1.0,0.21470000000022083
555,13,0.5,0.125,-35.0,-1,1.0,0.29480000000012296
556,13,0.5,0.0625,35.0,-1,0.0,0.3082000000001699
557,13,0.5,0.25,-35.0,-1,1.0,0.28500000000008185
558,13,0.5,0.0625,-35.0,-1,1.0,0.2582999999999629
559,13,0.5,0.0625,-35.0,-1,1.0,0.741800000000012
560,13,0.5,1.0,-35.0,-1,1.0,0.3684000000000651
561,13,0.5,1.0,-35.0,-1,1.0,0.18190000000004147
562,13,0.5,1.0,-35.0,-1,1.0,0.22540000000003602
563,13,0.5,0.125,-35.0,-1,1.0,0.22880000000009204
564,13,0.5,0.125,35.0,1,1.0,0.2820990000002439
565,13,0.5,0.125,-35.0,-1,1.0,0.3589000000001761
566,13,0.5,0.25,35.0,1,1.0,0.27900000000022374
567,13,0.5,0.0625,35.0,1,1.0,0.31900000000018736
568,13,0.5,0.0625,35.0,1,1.0,1.085800000000063
569,13,0.5,1.0,35.0,1,1.0,0.2557999999999083
570,13,0.5,0.0,-35.0,1,0.0,0.315900000000056
571,13,0.6,0.0,-35.0,-1,1.0,0.45600000000013097
572,13,0.5,1.0,-35.0,-1,1.0,0.2260999999998603
573,13,0.5,0.25,35.0,1,1.0,0.22280000000000655
574,13,0.5,0.0625,-35.0,-1,1.0,0.2927999999999429
575,13,0.5,1.0,-35.0,-1,1.0,0.6328000000003158
576,13,0.5,0.0625,35.0,-1,0.0,0.15640000000007603
577,13,0.5,0.0625,35.0,-1,0.0,0.48640000000023065
578,13,0.5,0.25,35.0,-1,0.0,0.046600000000125874
579,13,0.5,0.0625,35.0,1,1.0,0.866800000000012
580,13,0.5,0.0625,-35.0,-1,1.0,0.26670000000012806
581,13,0.5,0.125,35.0,1,1.0,0.2602000000001681
582,13,0.5,0.0625,35.0,-1,0.0,0.2501999999999498
583,13,0.5,0.125,35.0,1,1.0,0.34369999999989886
584,13,0.5,1.0,35.0,1,1.0,0.4171000000001186
585,13,0.5,0.125,35.0,-1,0.0,0.5972000000001572
586,13,0.5,0.125,-35.0,-1,1.0,0.330600000000004
587,13,0.5,1.0,-35.0,-1,1.0,0.5140000000001237
588,13,0.5,0.125,-35.0,-1,1.0,0.320699999999988
589,13,0.5,0.25,35.0,1,1.0,0.30080000000020846
590,13,0.5,0.125,-35.0,-1,1.0,0.43420000000014625
591,13,0.5,1.0,35.0,1,1.0,0.304300000000012
592,13,0.5,0.0625,35.0,1,1.0,0.9044000000001233
593,13,0.5,0.125,-35.0,-1,1.0,0.3444000000001779
594,13,0.5,1.0,35.0,1,1.0,0.22440000000005966
595,13,0.5,1.0,-35.0,-1,1.0,0.3545000000001437
596,13,0.5,0.125,35.0,1,1.0,0.37790000000018154
597,13,0.5,0.125,-35.0,1,0.0,4.234699999999975
598,13,0.5,0.0625,-35.0,-1,1.0,29.508299999999963
599,13,0.5,1.0,-35.0,-1,1.0,0.4757999999999356
600,13,0.5,0.125,-35.0,-1,1.0,14.945899999999938
601,13,0.5,0.0625,-35.0,-1,1.0,36.65310000000045
602,13,0.5,0.0,-35.0,-1,1.0,2.4373999999997977
603,13,0.5,0.125,35.0,-1,0.0,23.300799999999526
604,13,0.5,0.125,35.0,-1,0.0,10.541599999999562
605,13,0.5,0.125,-35.0,-1,1.0,8.585300000000188
606,13,0.5,0.25,35.0,-1,0.0,8.505699999999706
607,13,0.5,0.25,35.0,1,1.0,0.6025999999997111
608,13,0.5,0.125,35.0,1,1.0,20.692699999999604
609,13,0.5,0.0,35.0,-1,0.0,21.41319999999996
610,13,0.5,0.0625,35.0,-1,0.0,35.0671999999995
611,13,0.2,0.0625,-35.0,-1,1.0,4.801499999999578
612,13,0.5,1.0,35.0,1,1.0,7.691699999999855
613,13,0.5,0.0,-35.0,-1,1.0,19.71849999999995
614,13,0.5,0.125,-35.0,-1,1.0,4.215799999999945
615,13,0.5,0.125,35.0,-1,0.0,6.279500000000098
616,13,0.5,0.25,-35.0,-1,1.0,4.952899999999772
1,14,0.5,0.25,35.0,1,1.0,0.4494
2,14,0.5,0.0,35.0,1,1.0,0.2803009999999997
3,14,0.5,1.0,-35.0,1,0.0,0.15450099999999978
4,14,0.5,0.25,35.0,1,1.0,0.23170100000000105
5,14,0.5,1.0,-35.0,-1,1.0,0.24579999999999913
6,14,0.5,1.0,-35.0,1,0.0,0.11390099999999848
7,14,0.5,0.25,35.0,1,1.0,0.21420100000000275
8,14,0.5,1.0,-35.0,-1,1.0,0.061801000000009765
9,14,0.5,0.0,-35.0,1,0.0,0.30430099999999527
10,14,0.5,0.125,35.0,1,1.0,0.303401000000008
11,14,0.5,0.25,35.0,1,1.0,0.25110099999999846
12,14,0.5,1.0,-35.0,-1,1.0,0.5177009999999953
13,14,0.5,0.125,35.0,1,1.0,0.2979010000000031
14,14,0.5,0.0625,35.0,1,1.0,0.279401
15,14,0.5,0.0625,35.0,1,1.0,0.36560099999999807
16,14,0.5,1.0,-35.0,-1,1.0,0.9722000000000008
17,14,0.5,0.25,35.0,1,1.0,0.32110100000000585
18,14,0.5,1.0,-35.0,-1,1.0,0.3423999999999978
19,14,0.5,0.25,-35.0,-1,1.0,0.4808009999999996
20,14,0.5,0.0625,35.0,1,1.0,0.24830099999999788
21,14,0.5,0.125,-35.0,1,0.0,0.24330100000000243
22,14,0.5,0.0625,35.0,-1,0.0,0.2899010000000004
23,14,0.5,0.0625,-35.0,-1,1.0,0.21820099999999343
24,14,0.5,0.125,35.0,1,1.0,0.23380000000000223
25,14,0.5,0.0,-35.0,1,0.0,0.16680099999997822
26,14,0.5,0.25,-35.0,-1,1.0,0.2297010000000057
27,14,0.5,1.0,-35.0,-1,1.0,0.3278009999999938
28,14,0.5,1.0,-35.0,-1,1.0,0.265900000000002
29,14,0.5,0.25,35.0,1,1.0,0.20840100000000916
30,14,0.5,0.25,-35.0,-1,1.0,0.30540100000000336
31,14,0.5,1.0,-35.0,-1,1.0,3.784600999999995
32,14,0.5,0.125,35.0,1,1.0,0.3167009999999948
33,14,0.5,0.0625,35.0,1,1.0,0.5239010000000093
34,14,0.5,0.0625,35.0,1,1.0,2.5022009999999995
35,14,0.5,0.25,35.0,1,1.0,0.45479999999999166
36,14,0.5,0.25,-35.0,-1,1.0,0.6292009999999948
37,14,0.5,0.125,35.0,1,1.0,0.32390000000000896
38,14,0.5,0.125,35.0,1,1.0,0.39400000000000546
39,14,0.5,1.0,-35.0,-1,1.0,0.713600999999997
40,14,0.5,0.0625,-35.0,-1,1.0,0.5588010000000168
41,14,0.5,0.0625,-35.0,1,0.0,0.31519999999997594
42,14,0.7,0.0625,-35.0,-1,1.0,0.5945010000000082
43,14,0.5,1.0,-35.0,-1,1.0,0.32400099999998133
44,14,0.5,0.0625,35.0,1,1.0,0.24550100000001862
45,14,0.5,0.25,-35.0,1,0.0,0.18820099999996387
46,14,0.5,0.125,-35.0,-1,1.0,0.24980099999999084
47,14,0.5,1.0,-35.0,-1,1.0,0.24150100000002794
48,14,0.5,0.25,-35.0,-1,1.0,0.48180099999999015
49,14,0.5,0.125,35.0,1,1.0,0.14290100000002326
50,14,0.5,0.0,35.0,1,1.0,0.29930100000001403
51,14,0.5,0.125,-35.0,1,0.0,1.2704000000000235
52,14,0.5,0.125,35.0,-1,0.0,0.4695000000000107
53,14,0.5,0.0625,-35.0,1,0.0,0.04270099999999388
54,14,0.5,0.125,-35.0,-1,1.0,0.20779999999999177
55,14,0.5,0.125,-35.0,-1,1.0,0.2664010000000019
56,14,0.5,0.0625,35.0,1,1.0,0.1963999999999828
57,14,0.5,0.125,35.0,1,1.0,0.319800999999984
58,14,0.5,0.25,35.0,1,1.0,0.27680099999997765
59,14,0.5,0.0625,35.0,1,1.0,0.25220100000001366
60,14,0.5,1.0,35.0,1,1.0,0.22710100000000466
61,14,0.5,0.0625,-35.0,1,0.0,0.20120100000002594
62,14,0.7,0.0625,35.0,-1,0.0,0.27860099999998056
63,14,0.5,1.0,-35.0,-1,1.0,0.2257009999999866
64,14,0.5,0.25,35.0,1,1.0,0.2261000000000024
65,14,0.5,0.25,35.0,1,1.0,0.24700099999998315
66,14,0.5,0.125,-35.0,1,0.0,0.3762010000000089
67,14,0.5,0.125,-35.0,-1,1.0,0.21909899999999993
68,14,0.5,0.25,-35.0,-1,1.0,0.9155009999999777
69,14,0.5,0.125,35.0,1,1.0,0.2917009999999891
70,14,0.5,0.0625,-35.0,-1,1.0,1.1271010000000103
71,14,0.5,0.0625,35.0,1,1.0,0.608901000000003
72,14,0.5,0.0625,-35.0,-1,1.0,0.4998999999999967
73,14,0.5,0.25,35.0,1,1.0,0.27550099999999134
74,14,0.5,0.25,-35.0,-1,1.0,0.893400999999983
75,14,0.5,0.25,35.0,1,1.0,0.24989999999999668
76,14,0.5,0.25,35.0,1,1.0,0.2632009999999809
77,14,0.5,1.0,-35.0,-1,1.0,0.36189999999999145
78,14,0.5,1.0,-35.0,-1,1.0,0.37210099999998647
79,14,0.5,0.125,35.0,1,1.0,0.3052009999999825
80,14,0.5,0.25,-35.0,-1,1.0,0.7802999999999827
81,14,0.5,0.125,35.0,-1,0.0,0.4078010000000063
82,14,0.5,0.0625,35.0,1,1.0,0.30100000000001614
83,14,0.5,0.0,35.0,1,1.0,2.759001000000012
84,14,0.5,0.0625,35.0,1,1.0,0.44030100000000516
85,14,0.5,1.0,35.0,1,1.0,0.1893999999999778
86,14,0.5,0.125,-35.0,1,0.0,0.1741999999999848
87,14,0.6,0.125,-35.0,-1,1.0,0.3707010000000537
88,14,0.5,1.0,35.0,1,1.0,0.4552009999999882
89,14,0.5,0.0625,-35.0,-1,1.0,0.535301000000004
90,14,0.5,0.0625,-35.0,1,0.0,0.3158009999999649
91,14,0.5,0.25,35.0,-1,0.0,0.17920100000003458
92,14,0.5,0.25,-35.0,-1,1.0,0.25830000000001974
93,14,0.5,0.125,35.0,1,1.0,2.4941010000000006
94,14,0.5,0.25,35.0,1,1.0,0.24610100000001012
95,14,0.5,0.125,35.0,1,1.0,0.19650099999995518
96,14,0.5,0.0,35.0,1,1.0,0.278300999999999
97,14,0.5,0.125,-35.0,-1,1.0,0.7752010000000382
98,14,0.5,0.125,-35.0,1,0.0,0.2651000000000181
99,14,0.5,0.25,35.0,1,1.0,0.3417999999999779
100,14,0.5,1.0,-35.0,-1,1.0,0.548800999999969
101,14,0.5,0.125,35.0,1,1.0,0.44550099999997883
102,14,0.5,0.25,35.0,1,1.0,0.29600099999998974
103,14,0.5,0.0625,35.0,1,1.0,0.24480099999999538
104,14,0.5,0.25,-35.0,-1,1.0,0.2950000000000159
105,14,0.5,0.25,35.0,1,1.0,0.28420099999999593
106,14,0.5,1.0,35.0,1,1.0,0.29150099999998247
107,14,0.5,0.125,35.0,1,1.0,0.2840009999999893
108,14,0.5,0.0625,-35.0,1,0.0,0.4537009999999668
109,14,0.5,0.25,35.0,1,1.0,0.09380099999998492
110,14,0.5,1.0,-35.0,-1,1.0,0.34810099999998556
111,14,0.5,0.0,35.0,-1,0.0,0.4849009999999794
112,14,0.7,0.0,-35.0,-1,1.0,1.5602999999999838
113,14,0.5,1.0,-35.0,-1,1.0,0.25810100000001057
114,14,0.5,0.125,35.0,1,1.0,0.0052010000000564105
115,14,0.5,0.0,-35.0,1,0.0,0.3190010000000143
116,14,0.5,0.0,-35.0,-1,1.0,0.5408009999999877
117,14,0.5,0.0,35.0,1,1.0,0.21790099999998347
118,14,0.5,0.0,-35.0,1,0.0,0.22059999999999036
119,14,0.5,0.0625,35.0,1,1.0,0.2403009999999881
120,14,0.5,1.0,-35.0,-1,1.0,0.47310099999998556
121,14,0.5,0.0625,35.0,1,1.0,0.22880099999997583
122,14,0.5,0.0,35.0,1,1.0,0.30540099999996073
123,14,0.5,0.125,35.0,1,1.0,0.257300999999984
124,14,0.5,1.0,35.0,1,1.0,0.35860099999996464
125,14,0.5,0.125,-35.0,-1,1.0,0.8870009999999979
126,14,0.5,1.0,35.0,1,1.0,0.27850100000000566
127,14,0.5,0.0,-35.0,1,0.0,1.9356010000000197
128,14,0.5,0.0625,35.0,1,1.0,0.2817000000000007
129,14,0.5,1.0,35.0,1,1.0,0.20530100000001994
130,14,0.5,1.0,35.0,1,1.0,0.08729999999997062
131,14,0.5,0.125,35.0,1,1.0,0.31049999999999045
132,14,0.5,0.25,35.0,1,1.0,0.27980099999996355
133,14,0.5,1.0,-35.0,-1,1.0,0.5956999999999653
134,14,0.5,0.25,-35.0,1,0.0,0.30230099999999993
135,14,0.5,0.125,-35.0,-1,1.0,0.23120000000000118
136,14,0.5,1.0,35.0,1,1.0,0.17159999999995534
137,14,0.5,0.0625,35.0,1,1.0,0.29470100000003185
138,14,0.5,0.25,-35.0,1,0.0,0.251199999999983
139,14,0.5,0.25,35.0,1,1.0,0.1556009999999901
140,14,0.5,0.25,-35.0,1,0.0,0.31920000000002346
141,14,0.8,0.25,-35.0,1,0.0,0.1901009999999701
142,14,0.5,1.0,35.0,1,1.0,0.24990100000002258
143,14,0.5,0.0,35.0,1,1.0,1.9651010000000042
144,14,0.5,0.0,35.0,1,1.0,0.2914000000000101
145,14,0.5,1.0,35.0,1,1.0,0.21629999999998972
146,14,0.5,0.0625,-35.0,1,0.0,0.2768010000000345
147,14,1.0,0.0625,-35.0,-1,1.0,0.2648009999999772
148,14,0.5,1.0,-35.0,-1,1.0,0.24600099999997838
149,14,0.5,0.0625,-35.0,-1,1.0,0.6561009999999783
150,14,0.5,1.0,35.0,1,1.0,0.1124009999999771
151,14,0.5,0.0625,-35.0,1,0.0,0.2167999999999779
152,14,0.5,0.125,-35.0,1,0.0,0.16180000000002792
153,14,0.5,0.125,-35.0,-1,1.0,0.23799999999999955
154,14,0.5,0.25,35.0,1,1.0,0.11660100000000284
155,14,0.5,0.25,-35.0,-1,1.0,1.135801000000015
156,14,0.5,0.0,35.0,1,1.0,3.5655009999999834
157,14,0.5,0.125,-35.0,-1,1.0,0.592000999999982
158,14,0.5,0.0625,35.0,1,1.0,0.08589999999992415
159,14,0.5,0.125,-35.0,1,0.0,0.04969999999997299
160,14,0.7,0.125,35.0,1,1.0,0.28090099999997165
161,14,0.5,1.0,-35.0,-1,1.0,0.2261010000000283
162,14,0.5,0.0625,-35.0,1,0.0,0.2881009999999833
163,14,0.6,0.0625,-35.0,-1,1.0,0.2424010000000294
164,14,0.5,1.0,-35.0,-1,1.0,0.1798009999999408
165,14,0.5,1.0,-35.0,1,0.0,0.09830100000004904
166,14,0.5,0.0625,-35.0,-1,1.0,0.29970099999997046
167,14,0.5,0.0625,-35.0,-1,1.0,0.5886010000000397
168,14,0.5,0.125,35.0,1,1.0,0.13380099999994854
169,14,0.5,0.125,35.0,1,1.0,0.40990099999999074
170,14,0.5,1.0,-35.0,-1,1.0,0.24530099999992672
171,14,0.5,0.125,35.0,1,1.0,0.24680100000000493
172,14,0.5,0.125,-35.0,-1,1.0,0.2620010000000548
173,14,0.5,0.0,-35.0,1,0.0,0.31100100000003295
174,14,0.5,0.0625,-35.0,-1,1.0,0.2272010000000364
175,14,0.5,0.25,-35.0,-1,1.0,0.2049010000000635
176,14,0.5,1.0,35.0,1,1.0,0.24430099999995036
177,14,0.5,0.0,35.0,-1,0.0,0.5231009999999969
178,14,0.5,0.25,-35.0,-1,1.0,0.2658010000000104
179,14,0.5,0.0625,35.0,1,1.0,0.5796999999998889
180,14,0.5,1.0,-35.0,-1,1.0,0.5718000000000529
181,14,0.5,1.0,-35.0,-1,1.0,0.17940099999998438
182,14,0.5,0.125,-35.0,1,0.0,0.2591009999999869
183,14,0.4,0.125,35.0,1,1.0,0.2861010000000306
184,14,0.5,1.0,35.0,1,1.0,0.2176009999999451
185,14,0.5,1.0,-35.0,-1,1.0,0.5718009999999367
186,14,0.5,1.0,35.0,1,1.0,0.21400000000005548
187,14,0.5,0.0,-35.0,-1,1.0,0.23920099999986633
188,14,0.5,1.0,-35.0,-1,1.0,0.8596009999999978
189,14,0.5,0.125,-35.0,-1,1.0,0.48080000000004475
190,14,0.5,0.25,35.0,1,1.0,0.24960100000009788
191,14,0.5,0.125,-35.0,-1,1.0,0.27070099999991726
192,14,0.5,0.25,-35.0,-1,1.0,1.0521009999998796
193,14,0.5,1.0,-35.0,-1,1.0,0.48420100000009825
194,14,0.5,1.0,-35.0,-1,1.0,0.3099010000000817
195,14,0.5,0.0625,-35.0,-1,1.0,0.3883009999999558
196,14,0.5,1.0,-35.0,-1,1.0,0.4692009999999982
197,14,0.5,0.25,35.0,1,1.0,0.3439010000000735
198,14,0.5,0.0625,35.0,1,1.0,0.14420099999995273
199,14,0.5,0.0,-35.0,-1,1.0,0.27060100000005605
200,14,0.5,0.0625,-35.0,1,0.0,0.10630099999991671
201,14,0.5,0.25,-35.0,-1,1.0,0.3224010000000135
202,14,0.5,0.0625,35.0,1,1.0,0.3704010000000153
203,14,0.5,0.25,-35.0,-1,1.0,0.7960000000000491
204,14,0.5,1.0,-35.0,-1,1.0,0.35150099999987106
205,14,0.5,0.0,35.0,-1,0.0,0.43370100000004186
206,14,0.4,0.0,35.0,-1,0.0,0.28250100000002476
207,14,0.5,1.0,35.0,1,1.0,0.2517010000000255
208,14,0.5,0.0625,-35.0,-1,1.0,0.2784009999999171
209,14,0.5,1.0,35.0,1,1.0,0.2315009999999802
210,14,0.5,0.25,35.0,1,1.0,0.31870100000014645
211,14,0.5,0.25,35.0,1,1.0,0.25870099999997365
212,14,0.5,0.125,-35.0,-1,1.0,0.7403000000000475
213,14,0.5,0.0625,35.0,1,1.0,0.23200099999996837
214,14,0.5,0.0625,-35.0,1,0.0,0.24860100000000784
215,14,0.5,0.0,-35.0,-1,1.0,0.570201000000111
216,14,0.5,1.0,35.0,1,1.0,0.2256009999999833
217,14,0.5,0.125,-35.0,1,0.0,0.213799999999992
218,14,0.7,0.125,-35.0,-1,1.0,0.24380100000007587
219,14,0.5,1.0,-35.0,-1,1.0,0.23900100000003022
220,14,0.5,0.0,35.0,-1,0.0,0.5591010000000551
221,14,0.5,0.0625,35.0,-1,0.0,0.24480100000005223
222,14,0.5,0.125,35.0,1,1.0,0.28680100000008224
223,14,0.5,0.25,35.0,1,1.0,0.26630100000011225
224,14,0.5,0.125,35.0,1,1.0,0.27050100000008115
225,14,0.5,0.0625,-35.0,1,0.0,0.2175009999999702
226,14,0.6,0.0625,35.0,1,1.0,0.2741009999999733
227,14,0.5,1.0,-35.0,-1,1.0,0.24450000000001637
228,14,0.5,0.125,-35.0,-1,1.0,0.4335009999999784
229,14,0.5,0.125,-35.0,-1,1.0,0.3183010000000195
230,14,0.5,0.0625,35.0,1,1.0,0.3869010000000799
231,14,0.5,0.25,35.0,-1,0.0,0.09850100000005568
232,14,0.5,0.125,-35.0,-1,1.0,0.25700099999994563
233,14,0.5,1.0,35.0,1,1.0,0.20640099999991435
234,14,0.5,0.0,35.0,-1,0.0,0.3925010000000384
235,14,0.5,0.25,35.0,1,1.0,0.26630099999999857
236,14,0.5,0.25,-35.0,-1,1.0,0.23450000000002547
237,14,0.5,0.0625,-35.0,1,0.0,0.21240099999999984
238,14,0.5,0.125,35.0,1,1.0,0.3423010000000204
239,14,0.5,0.125,35.0,1,1.0,0.2442999999999529
240,14,0.5,1.0,-35.0,-1,1.0,0.9449009999999589
241,14,0.5,1.0,35.0,1,1.0,0.04589999999996053
242,14,0.5,1.0,-35.0,-1,1.0,0.2643009999999322
243,14,0.5,1.0,-35.0,-1,1.0,0.494199999999978
244,14,0.5,1.0,35.0,1,1.0,0.2176999999999225
245,14,0.5,0.125,35.0,1,1.0,0.20370100000002367
246,14,0.5,1.0,-35.0,-1,1.0,0.2736009999999851
247,14,0.5,0.125,-35.0,1,0.0,0.1390999999999849
248,14,0.5,0.125,35.0,1,1.0,0.24989999999991142
249,14,0.5,0.125,-35.0,-1,1.0,0.2892010000000482
250,14,0.5,0.25,35.0,1,1.0,0.44470000000001164
251,14,0.5,0.25,-35.0,1,0.0,0.10890100000005987
252,14,0.5,0.25,35.0,1,1.0,0.27830100000005586
253,14,0.5,0.25,-35.0,-1,1.0,0.25270100000000184
254,14,0.5,1.0,-35.0,-1,1.0,0.20260099999995873
255,14,0.5,0.0,-35.0,-1,1.0,1.6571010000000115
256,14,0.5,1.0,35.0,1,1.0,0.2922009999999773
257,14,0.5,0.0625,-35.0,-1,1.0,1.0739999999999554
258,14,0.5,1.0,-35.0,-1,1.0,0.2879010000000335
259,14,0.5,0.125,35.0,1,1.0,0.33370099999990543
260,14,0.5,0.125,-35.0,-1,1.0,0.23770100000001548
261,14,0.5,0.25,-35.0,-1,1.0,0.27230100000008406
262,14,0.5,0.0625,35.0,1,1.0,0.23800100000005386
263,14,0.5,0.0625,-35.0,1,0.0,0.26920099999995273
264,14,0.5,0.0,-35.0,-1,1.0,0.2154010000000426
265,14,0.5,0.0625,35.0,-1,0.0,0.23050100000000384
266,14,0.5,0.125,-35.0,-1,1.0,0.2210010000000011
267,14,0.5,0.125,-35.0,-1,1.0,0.25830099999996037
268,14,0.5,0.125,35.0,1,1.0,0.24290099999996073
269,14,0.5,1.0,-35.0,-1,1.0,0.3465009999999893
270,14,0.5,0.125,35.0,1,1.0,0.32080099999996037
271,14,0.5,0.0625,-35.0,-1,1.0,1.007701000000111
272,14,0.5,0.0625,-35.0,-1,1.0,1.1482009999999718
273,14,0.5,1.0,35.0,1,1.0,0.24820099999999456
274,14,0.5,0.0,35.0,-1,0.0,0.3079000000000178
275,14,0.5,0.0625,35.0,-1,0.0,0.25840100000004895
276,14,0.5,0.25,-35.0,-1,1.0,0.20160099999998238
277,14,0.5,1.0,-35.0,-1,1.0,0.24400000000014188
278,14,0.5,1.0,35.0,1,1.0,0.20890099999985523
279,14,0.5,0.125,-35.0,-1,1.0,0.3258010000000695
280,14,0.5,1.0,-35.0,-1,1.0,0.2516010000000506
281,14,0.5,0.125,-35.0,-1,1.0,0.3846010000000888
282,14,0.5,1.0,-35.0,-1,1.0,0.27900099999999384
283,14,0.5,0.0625,35.0,1,1.0,0.20610100000010334
284,14,0.5,0.25,35.0,1,1.0,0.1403010000000222
285,14,0.5,1.0,-35.0,-1,1.0,0.508301000000074
286,14,0.5,0.125,-35.0,-1,1.0,1.6686010000000806
287,14,0.5,1.0,-35.0,-1,1.0,0.28899999999998727
288,14,0.5,0.0625,35.0,1,1.0,0.23600099999998747
289,14,0.5,0.0625,35.0,1,1.0,0.2253009999999449
290,14,0.5,0.125,-35.0,1,0.0,0.21640000000002146
291,14,0.5,0.25,35.0,1,1.0,0.15550099999984468
292,14,0.5,0.0625,-35.0,1,0.0,0.24050000000011096
293,14,0.5,0.0625,35.0,1,1.0,0.22570099999995819
294,14,0.5,0.0625,-35.0,-1,1.0,0.6418999999999642
295,14,0.5,1.0,-35.0,-1,1.0,1.3851000000000795
296,14,0.5,0.0625,-35.0,-1,1.0,0.8281009999999469
297,14,0.5,0.125,35.0,1,1.0,0.5053010000000313
298,14,0.5,0.125,35.0,1,1.0,0.4856009999999742
299,14,0.5,0.125,35.0,1,1.0,0.09440000000006421
300,14,0.5,0.0625,35.0,1,1.0,0.2511010000000624
301,14,0.5,1.0,35.0,1,1.0,0.33750099999997474
302,14,0.5,1.0,35.0,1,1.0,0.26520099999993363
303,14,0.5,1.0,35.0,1,1.0,0.22980099999995218
304,14,0.5,0.25,35.0,1,1.0,0.29930100000001403
305,14,0.5,0.125,35.0,1,1.0,0.2699010000000044
306,14,0.5,0.0625,35.0,1,1.0,0.2579999999999245
307,14,0.5,0.0,35.0,1,1.0,0.282799999999952
308,14,0.5,0.25,-35.0,-1,1.0,0.23640000000000327
309,14,0.5,1.0,-35.0,-1,1.0,0.7119010000000117
310,14,0.5,0.125,35.0,1,1.0,0.19390099999998256
311,14,0.5,1.0,35.0,1,1.0,0.3624009999999771
312,14,0.5,0.25,-35.0,-1,1.0,0.8068009999999504
313,14,0.5,0.0625,35.0,1,1.0,0.286200000000008
314,14,0.5,0.125,35.0,1,1.0,0.351900999999998
315,14,0.5,1.0,35.0,1,1.0,0.27410100000008697
316,14,0.5,0.0,35.0,1,1.0,0.23860100000001694
317,14,0.5,0.125,35.0,1,1.0,0.37789999999995416
318,14,0.5,0.25,-35.0,-1,1.0,0.34770099999991544
319,14,0.5,0.25,35.0,1,1.0,0.28020099999992
320,14,0.5,1.0,-35.0,-1,1.0,0.3943010000000413
321,14,0.5,0.125,-35.0,1,0.0,0.2538009999999531
322,14,0.5,0.0625,35.0,-1,0.0,0.29310099999997874
323,14,0.5,0.125,-35.0,-1,1.0,0.3080999999999676
324,14,0.5,0.0,35.0,1,1.0,1.0093009999999367
325,14,0.5,0.0625,35.0,1,1.0,0.23590100000001257
326,14,0.5,0.25,-35.0,1,0.0,0.2557010000000446
327,14,0.5,0.25,35.0,1,1.0,0.2718009999999822
328,14,0.5,1.0,-35.0,-1,1.0,0.2193000000000893
329,14,0.5,0.0625,-35.0,-1,1.0,0.36970099999996364
330,14,0.5,1.0,35.0,1,1.0,0.32529999999997017
331,14,0.5,0.0625,35.0,1,1.0,1.5215999999999212
332,14,0.5,0.25,35.0,1,1.0,0.36150099999997565
333,14,0.5,0.0,-35.0,1,0.0,0.07090100000004895
334,14,0.8,0.0,-35.0,-1,1.0,0.24310000000002674
335,14,0.5,1.0,-35.0,-1,1.0,0.22570099999995819
336,14,0.5,0.25,35.0,1,1.0,0.5095010000000002
337,14,0.5,0.0625,35.0,-1,0.0,0.328401000000099
338,14,0.5,0.0625,35.0,1,1.0,0.015900999999985288
339,14,0.5,1.0,35.0,1,1.0,0.26240100000006805
340,14,0.5,0.0625,35.0,1,1.0,0.5744010000000799
341,14,0.5,0.25,-35.0,1,0.0,0.44330100000013317
342,14,0.5,0.25,-35.0,1,0.0,0.029500999999982014
343,14,0.7,0.25,35.0,1,1.0,0.3358009999999467
344,14,0.5,1.0,-35.0,-1,1.0,0.20610099999998965
345,14,0.5,0.25,-35.0,-1,1.0,0.3606010000000879
346,14,0.5,0.0,35.0,1,1.0,2.297100999999998
347,14,0.5,0.25,-35.0,1,0.0,0.12800099999992653
348,14,0.5,0.25,35.0,1,1.0,0.2941009999999551
349,14,0.5,0.0,35.0,-1,0.0,0.23420100000009825
350,14,0.7,0.0,-35.0,1,0.0,1.1910010000000284
351,14,0.5,1.0,35.0,1,1.0,0.08120099999996455
352,14,0.5,0.0,35.0,1,1.0,0.21519999999998163
353,14,0.5,0.0625,-35.0,1,0.0,0.1850010000000566
354,14,0.5,0.0,-35.0,-1,1.0,0.28460100000006605
355,14,0.5,0.125,-35.0,-1,1.0,0.20820100000014463
356,14,0.5,0.125,-35.0,-1,1.0,0.41500100000030216
357,14,0.5,0.125,-35.0,-1,1.0,0.5812020000000757
358,14,0.5,0.25,-35.0,-1,1.0,0.2183020000002216
359,14,0.5,0.0625,-35.0,-1,1.0,0.7656019999999444
360,14,0.5,0.0,-35.0,-1,1.0,0.3049020000000837
361,14,0.5,0.0625,35.0,1,1.0,0.2450010000002294
362,14,0.5,0.0625,-35.0,-1,1.0,0.4317020000000866
363,14,0.5,0.125,35.0,1,1.0,0.23220200000014302
364,14,0.5,0.0,-35.0,1,0.0,0.2686020000001008
365,14,0.5,0.0,-35.0,-1,1.0,0.24220100000002276
366,14,0.5,0.0,35.0,1,1.0,0.33200200000010227
367,14,0.5,0.25,35.0,1,1.0,0.5722020000000612
368,14,0.5,1.0,-35.0,-1,1.0,0.212402000000111
369,14,0.5,0.0625,35.0,1,1.0,0.23920200000020486
370,14,0.5,1.0,35.0,1,1.0,0.18600199999991673
371,14,0.5,0.125,35.0,1,1.0,0.2391020000000026
372,14,0.5,0.0625,35.0,1,1.0,0.2926020000002154
373,14,0.5,0.25,35.0,1,1.0,0.189902000000302
374,14,0.5,1.0,35.0,1,1.0,0.4362010000002101
375,14,0.5,1.0,-35.0,-1,1.0,0.6727020000000721
376,14,0.5,1.0,-35.0,-1,1.0,0.36620200000015757
377,14,0.5,0.25,35.0,1,1.0,0.1767010000000937
378,14,0.5,1.0,-35.0,-1,1.0,0.20340199999986908
379,14,0.5,1.0,-35.0,-1,1.0,0.35360100000002603
380,14,0.5,0.0,35.0,1,1.0,2.269802000000027
381,14,0.5,0.25,-35.0,-1,1.0,0.3970010000000457
382,14,0.5,0.0625,-35.0,1,0.0,0.25380200000017794
383,14,0.5,0.0625,-35.0,-1,1.0,0.24680200000034347
384,14,0.5,1.0,35.0,1,1.0,0.2767020000001139
385,14,0.5,1.0,35.0,1,1.0,0.2203020000001743
386,14,0.5,1.0,-35.0,-1,1.0,0.30040200000007644
387,14,0.5,0.125,35.0,1,1.0,0.38710200000014083
388,14,0.5,0.25,35.0,1,1.0,0.2873010000000704
389,14,0.5,0.125,-35.0,-1,1.0,0.7302020000001903
390,14,0.5,1.0,-35.0,-1,1.0,0.20380199999999604
391,14,0.5,0.25,-35.0,-1,1.0,1.2711020000001554
392,14,0.5,1.0,-35.0,-1,1.0,0.19810200000006262
393,14,0.5,1.0,35.0,1,1.0,0.23410200000012082
394,14,0.5,0.0625,35.0,1,1.0,0.22450200000025688
395,14,0.5,0.25,-35.0,-1,1.0,0.5207020000000284
396,14,0.5,0.25,35.0,1,1.0,0.23420099999998456
397,14,0.5,0.0625,35.0,1,1.0,0.9581010000001697
398,14,0.5,0.25,35.0,1,1.0,0.30440199999998185
399,14,0.5,0.0625,-35.0,1,0.0,1.7015010000002349
400,14,0.6,0.0625,35.0,1,1.0,0.2785020000001168
401,14,0.5,1.0,-35.0,-1,1.0,0.3847010000001774
402,14,0.5,0.125,35.0,1,1.0,0.3380019999999604
403,14,0.5,1.0,35.0,1,1.0,0.321402000000262
404,14,0.5,0.25,35.0,1,1.0,0.29820199999994657
405,14,0.5,1.0,-35.0,-1,1.0,0.2886020000000826
406,14,0.5,1.0,-35.0,-1,1.0,0.261801000000105
407,14,0.5,0.125,-35.0,-1,1.0,0.3816020000001572
408,14,0.5,1.0,35.0,1,1.0,0.20830100000011953
409,14,0.5,0.125,-35.0,-1,1.0,0.2688010000001668
410,14,0.5,0.0625,35.0,1,1.0,0.28840199999990546
411,14,0.5,0.0625,-35.0,1,0.0,0.2555010000000948
412,14,0.5,0.125,35.0,-1,0.0,0.23600200000009863
413,14,0.5,0.0625,35.0,1,1.0,0.2522020000003522
414,14,0.5,0.25,-35.0,-1,1.0,0.2490020000000186
415,14,0.5,0.0625,35.0,1,1.0,0.24220200000013392
416,14,0.5,0.0625,35.0,-1,0.0,0.5656020000001263
417,14,0.5,0.125,-35.0,-1,1.0,0.3796020000002045
418,14,0.5,1.0,35.0,1,1.0,0.4627020000000357
419,14,0.5,0.25,35.0,1,1.0,0.2429010000003018
420,14,0.5,0.0625,35.0,1,1.0,0.5800020000003769
421,14,0.5,0.125,35.0,1,1.0,0.37260200000014265
422,14,0.5,0.125,35.0,1,1.0,0.5362020000002303
423,14,0.5,0.125,35.0,1,1.0,0.4865020000002005
424,14,0.5,1.0,-35.0,-1,1.0,0.7033020000003489
425,14,0.5,0.25,-35.0,-1,1.0,0.21610200000009172
426,14,0.5,0.0,35.0,-1,0.0,0.4930019999999331
427,14,0.5,0.0625,35.0,1,1.0,0.19950200000016594
428,14,0.5,0.125,35.0,1,1.0,0.1964020000000346
429,14,0.5,0.125,35.0,1,1.0,0.2366020000001754
430,14,0.5,0.25,35.0,1,1.0,0.21330200000011246
431,14,0.5,0.0625,-35.0,1,0.0,0.23000200000024051
432,14,0.7,0.0625,-35.0,1,0.0,0.266702000000123
433,14,0.5,1.0,-35.0,-1,1.0,0.2301020000002154
434,14,0.5,0.25,-35.0,-1,1.0,0.30080199999997603
435,14,0.5,0.125,35.0,1,1.0,0.33030100000019047
436,14,0.5,1.0,-35.0,-1,1.0,0.20720200000005207
437,14,0.5,0.0625,35.0,1,1.0,0.24360200000023724
438,14,0.5,1.0,-35.0,-1,1.0,0.22740199999998367
439,14,0.5,0.25,-35.0,-1,1.0,0.28740099999981794
440,14,0.5,0.0,35.0,-1,0.0,0.6107010000000628
441,14,0.5,0.25,35.0,1,1.0,0.17080200000009427
442,14,0.5,0.0625,35.0,1,1.0,0.321002000000135
443,14,0.5,0.0,-35.0,-1,1.0,0.2612010000000282
444,14,0.5,0.25,35.0,1,1.0,0.1376020000002427
445,14,0.5,0.125,35.0,1,1.0,0.22750200000018594
446,14,0.5,1.0,-35.0,-1,1.0,0.19830100000012862
447,14,0.5,0.125,35.0,1,1.0,0.21490100000028178
448,14,0.5,0.25,-35.0,1,0.0,0.08170200000017758
449,14,0.5,0.0625,35.0,-1,0.0,0.19790200000011282
450,14,0.5,0.125,-35.0,-1,1.0,0.2917019999999866
451,14,0.5,0.125,-35.0,-1,1.0,0.5781019999999444
452,14,0.5,0.125,35.0,1,1.0,0.25800200000003315
453,14,0.5,0.25,35.0,1,1.0,0.2548010000002705
454,14,0.5,0.0625,35.0,1,1.0,0.28170200000022305
455,14,0.5,0.25,-35.0,-1,1.0,0.9215020000001459
456,14,0.5,1.0,35.0,1,1.0,0.23860200000035547
457,14,0.5,0.25,35.0,1,1.0,0.24850100000003295
458,14,0.5,0.25,35.0,1,1.0,0.1922020000001794
459,14,0.5,0.0625,-35.0,1,0.0,0.21950200000014775
460,14,0.5,0.25,-35.0,-1,1.0,0.2122020000001612
461,14,0.5,1.0,-35.0,-1,1.0,0.24580100000002858
462,14,0.5,0.125,35.0,1,1.0,0.2591020000002118
463,14,0.5,0.0625,35.0,1,1.0,0.2527019999999993
464,14,0.5,1.0,35.0,1,1.0,0.21300100000030397
465,14,0.5,1.0,35.0,1,1.0,0.19280200000002878
466,14,0.5,0.125,-35.0,1,0.0,0.1760020000001532
467,14,0.5,0.0,-35.0,1,0.0,0.2727019999999811
468,14,0.8,0.0,-35.0,1,0.0,0.24300200000016048
469,14,0.5,1.0,-35.0,-1,1.0,0.2227010000001428
470,14,0.5,0.25,35.0,1,1.0,0.25610200000005534
471,14,0.5,0.125,-35.0,-1,1.0,1.3465020000001005
472,14,0.5,0.0,-35.0,-1,1.0,0.43330200000013974
473,14,0.5,0.0625,-35.0,1,0.0,0.09650200000010045
474,14,0.7,0.0625,35.0,1,1.0,1.0198010000001432
475,14,0.5,1.0,-35.0,-1,1.0,0.32990200000017467
476,14,0.5,0.125,35.0,-1,0.0,1.7665020000001732
477,14,0.5,0.0,-35.0,1,0.0,0.14360200000010082
478,14,0.5,0.0,35.0,-1,0.0,0.24360100000012608
479,14,0.5,1.0,35.0,1,1.0,0.09420200000022305
480,14,0.5,0.0,35.0,-1,0.0,0.6139020000002802
481,14,0.5,0.125,-35.0,-1,1.0,0.25720200000023397
482,14,0.5,1.0,35.0,1,1.0,0.22050100000001294
483,14,0.5,0.0625,-35.0,-1,1.0,0.25050099999998565
484,14,0.5,0.125,-35.0,-1,1.0,1.2245010000001457
485,14,0.5,0.25,-35.0,-1,1.0,0.8380020000001878
486,14,0.5,0.125,35.0,1,1.0,0.2982010000000628
487,14,0.5,0.125,35.0,1,1.0,0.28430200000002515
488,14,0.5,0.0625,-35.0,1,0.0,0.24420200000008663
489,14,0.5,0.0,35.0,-1,0.0,0.26770200000032673
490,14,0.5,0.125,35.0,1,1.0,0.25150200000007317
491,14,0.5,0.125,-35.0,-1,1.0,0.38510199999996075
492,14,0.5,0.25,35.0,1,1.0,0.398202000000083
493,14,0.5,1.0,35.0,1,1.0,0.3049020000003111
494,14,0.5,0.0625,35.0,-1,0.0,0.2081020000002809
495,14,0.5,0.25,-35.0,-1,1.0,0.4919020000002092
496,14,0.5,1.0,35.0,1,1.0,0.24200100000030034
497,14,0.5,1.0,35.0,1,1.0,0.2517010000001392
498,14,0.5,0.25,35.0,1,1.0,0.11820200000033765
499,14,0.5,0.25,35.0,1,1.0,0.24500200000011318
500,14,0.5,0.25,35.0,1,1.0,0.23170100000015736
501,14,0.5,0.25,-35.0,-1,1.0,0.3252019999999902
502,14,0.5,0.125,-35.0,-1,1.0,0.3989019999999073
503,14,0.5,1.0,-35.0,-1,1.0,0.4384010000001126
504,14,0.5,0.0,35.0,1,1.0,0.355502000000115
505,14,0.5,0.25,-35.0,-1,1.0,0.27880100000015773
506,14,0.5,0.125,35.0,1,1.0,0.03190200000017285
507,14,0.5,0.0625,35.0,1,1.0,3.719202000000223
508,14,0.5,0.25,35.0,1,1.0,0.3591020000001208
509,14,0.5,0.125,35.0,1,1.0,0.30620200000021214
510,14,0.5,0.0,-35.0,-1,1.0,0.9193020000002434
511,14,0.5,0.25,35.0,1,1.0,0.2994019999998727
512,14,0.5,0.125,35.0,1,1.0,0.2791019999999662
513,14,0.5,0.25,35.0,1,1.0,0.28980200000023615
514,14,0.5,0.25,-35.0,-1,1.0,0.5830020000000786
515,14,0.5,0.25,35.0,1,1.0,0.30010200000015175
516,14,0.5,1.0,35.0,1,1.0,0.10920200000009572
517,14,0.5,0.0625,35.0,1,1.0,0.6027020000001357
518,14,0.5,0.25,35.0,1,1.0,0.30650100000002567
519,14,0.5,0.0625,-35.0,-1,1.0,0.22980200000029072
520,14,0.5,0.25,35.0,1,1.0,0.2696010000001934
521,14,0.5,1.0,-35.0,-1,1.0,0.19980200000009063
522,14,0.5,0.25,35.0,1,1.0,0.27390200000013465
523,14,0.5,0.125,35.0,1,1.0,0.45700200000010227
524,14,0.5,0.125,-35.0,-1,1.0,1.526602000000139
525,14,0.5,1.0,35.0,1,1.0,0.3336020000001554
526,14,0.5,0.0625,-35.0,-1,1.0,2.6734020000001237
527,14,0.5,1.0,35.0,1,1.0,0.27770200000009027
528,14,0.5,0.0625,-35.0,-1,1.0,0.24080200000025798
529,14,0.5,0.125,35.0,1,1.0,0.28790200000025834
530,14,0.5,1.0,-35.0,-1,1.0,0.2811019999999189
531,14,0.5,0.0,35.0,1,1.0,0.3693020000000615
532,14,0.5,0.125,35.0,1,1.0,0.3861020000001645
533,14,0.5,0.0625,35.0,-1,0.0,0.819501000000173
534,14,0.5,0.25,35.0,1,1.0,0.2628019999999651
535,14,0.5,0.0625,35.0,1,1.0,0.3262019999999666
536,14,0.5,0.0625,-35.0,1,0.0,0.18970200000012483
537,14,0.5,0.0625,35.0,-1,0.0,0.25970200000006116
538,14,0.5,0.0625,35.0,1,1.0,0.39990199999988363
539,14,0.5,0.25,35.0,1,1.0,0.20650200000022778
540,14,0.5,0.25,-35.0,1,0.0,0.01660200000014811
541,14,0.5,0.0,35.0,1,1.0,0.3501009999999951
542,14,0.5,0.125,-35.0,1,0.0,0.27340200000026016
543,14,0.5,0.125,35.0,1,1.0,0.25010100000031343
544,14,0.5,0.125,35.0,1,1.0,0.27680099999997765
545,14,0.5,0.125,35.0,1,1.0,0.033601999999973486
546,14,0.5,0.0,35.0,-1,0.0,0.08700200000021141
547,14,0.5,0.25,35.0,1,1.0,0.2504020000001219
548,14,0.5,0.0625,-35.0,-1,1.0,0.4972010000001319
549,14,0.5,1.0,-35.0,-1,1.0,0.4105010000002949
550,14,0.5,0.125,35.0,1,1.0,0.39080200000012155
551,14,0.5,1.0,-35.0,-1,1.0,0.474002000000155
552,14,0.5,0.0625,35.0,1,1.0,0.31070100000010825
553,14,0.5,1.0,35.0,1,1.0,0.26750200000014956
554,14,0.5,0.125,35.0,1,1.0,0.23090099999990343
555,14,0.5,1.0,-35.0,-1,1.0,0.234302000000298
556,14,0.5,0.0,-35.0,1,0.0,0.21770199999991746
557,14,0.5,0.125,35.0,1,1.0,0.26450199999999313
558,14,0.5,1.0,35.0,1,1.0,0.21130199999993238
559,14,0.5,0.0625,-35.0,-1,1.0,0.2879010000001472
560,14,0.5,1.0,-35.0,-1,1.0,0.4913010000000213
561,14,0.5,0.25,35.0,1,1.0,0.33480200000008153
562,14,0.5,0.25,35.0,1,1.0,0.3615020000002005
563,14,0.5,0.125,-35.0,1,0.0,0.2716010000001461
564,14,0.7,0.125,-35.0,-1,1.0,0.3416019999999662
565,14,0.5,1.0,-35.0,-1,1.0,0.5783020000001216
566,14,0.5,0.0625,35.0,1,1.0,0.2484020000001692
567,14,0.5,1.0,35.0,1,1.0,0.3119010000002618
568,14,0.5,1.0,-35.0,-1,1.0,0.5153020000000197
569,14,0.5,0.25,-35.0,1,0.0,0.13860200000021905
570,14,0.5,0.0,-35.0,-1,1.0,0.3221019999998589
571,14,0.5,0.125,-35.0,-1,1.0,0.2989019999999982
572,14,0.5,0.25,-35.0,1,0.0,0.27220200000010664
573,14,0.5,0.125,-35.0,-1,1.0,1.002402000000302
574,14,0.5,0.0625,-35.0,1,0.0,1.6857020000002194
575,14,0.5,0.0,35.0,-1,0.0,0.4425010000002203
576,14,0.5,0.0,-35.0,1,0.0,0.35260199999993347
577,14,0.5,1.0,-35.0,-1,1.0,0.3560019999999895
578,14,0.5,0.0625,35.0,1,1.0,0.2995010000001912
579,14,0.5,0.0,35.0,1,1.0,0.4594010000000708
580,14,0.5,1.0,35.0,1,1.0,0.2230019999999513
581,14,0.5,0.25,35.0,1,1.0,0.22630200000003242
582,14,0.5,1.0,35.0,1,1.0,0.22630200000003242
583,14,0.5,0.25,35.0,1,1.0,-0.006898999999748412
584,14,0.5,0.0625,-35.0,1,0.0,0.17980200000010882
585,14,0.5,0.0,-35.0,-1,1.0,0.3133020000002489
586,14,0.5,0.0625,35.0,-1,0.0,0.4632019999999102
587,14,0.5,0.0625,35.0,1,1.0,0.34000200000014047
588,14,0.5,0.0625,-35.0,-1,1.0,0.2369020000001001
589,14,0.5,0.125,35.0,1,1.0,0.24680100000000493
590,14,0.5,0.0,35.0,1,1.0,0.25030100000026323
591,14,0.5,0.125,35.0,1,1.0,0.2569020000000819
592,14,0.5,1.0,-35.0,1,0.0,0.0770020000002205
593,14,0.7,1.0,-35.0,-1,1.0,0.24040100000001985
594,14,0.5,1.0,35.0,-1,0.0,2.5871020000001863
595,14,0.5,0.125,35.0,1,1.0,0.6473020000000815
596,14,0.5,1.0,-35.0,-1,1.0,0.37400099999990744
597,14,0.5,1.0,-35.0,-1,1.0,0.34740199999987453
598,14,0.5,0.0625,-35.0,1,0.0,0.3375020000000859
599,14,0.5,0.0,35.0,-1,0.0,0.36090200000012373
600,14,0.5,0.0625,-35.0,-1,1.0,0.281001999999944
601,14,0.5,0.125,35.0,1,1.0,0.2610020000001896
602,14,0.5,1.0,35.0,1,1.0,0.20440100000018901
603,14,0.5,0.25,-35.0,-1,1.0,0.2911010000002534
604,14,0.5,0.0625,35.0,1,1.0,0.24780200000009245
605,14,0.5,0.25,35.0,1,1.0,0.7146020000002409
606,14,0.5,0.25,35.0,1,1.0,0.27790200000026744
607,14,0.5,0.0625,-35.0,1,0.0,0.3014019999998254
608,14,0.5,0.125,-35.0,-1,1.0,0.3282019999999193
609,14,0.5,0.25,-35.0,-1,1.0,0.7415020000000823
610,14,0.5,1.0,35.0,1,1.0,0.2016020000003209
611,14,0.5,0.0625,-35.0,1,0.0,0.3684010000001763
612,14,0.7,0.0625,-35.0,1,0.0,0.21520200000009027
613,14,0.5,1.0,35.0,1,1.0,0.19850200000018958
614,14,0.5,0.25,35.0,1,1.0,0.3554020000001401
615,14,0.5,0.125,-35.0,-1,1.0,0.25200200000017503
616,14,0.5,1.0,35.0,1,1.0,0.25220100000001366
617,14,0.5,1.0,35.0,1,1.0,0.2556019999999535
618,14,0.5,0.125,35.0,-1,0.0,1.4722020000001521
619,14,0.5,0.25,-35.0,-1,1.0,0.38910200000009354
620,14,0.5,0.25,-35.0,-1,1.0,0.17230200000017248
621,14,0.5,0.0625,-35.0,-1,1.0,2.2691019999999753
622,14,0.5,0.125,-35.0,1,0.0,0.12590200000022378
623,14,0.5,0.25,35.0,1,1.0,0.35270200000013574
624,14,0.5,1.0,35.0,1,1.0,0.1828010000001541
625,14,0.5,0.0,35.0,1,1.0,0.26600200000007135
626,14,0.5,1.0,-35.0,-1,1.0,0.21620100000018283
627,14,0.5,0.0,35.0,1,1.0,0.2328019999999924
628,14,0.5,1.0,35.0,1,1.0,0.18630200000029618
629,14,0.5,0.0625,-35.0,1,0.0,0.20970200000010664
630,14,0.5,0.125,-35.0,-1,1.0,0.3131020000002991
631,14,0.5,0.0625,-35.0,1,0.0,0.28980100000035236
632,14,0.5,0.25,35.0,1,1.0,0.1766010000001188
633,14,0.5,1.0,-35.0,-1,1.0,0.28660199999990255
634,14,0.5,0.0625,35.0,1,1.0,0.38000099999999293
635,14,0.5,0.25,35.0,1,1.0,0.2634020000000419
636,14,0.5,0.25,35.0,1,1.0,0.21350200000028963
637,14,0.5,0.0625,35.0,1,1.0,0.20680200000015247
638,14,0.5,0.0,35.0,1,1.0,0.24680199999988872
639,14,0.5,1.0,-35.0,1,0.0,0.16360200000008263
640,14,0.5,0.125,35.0,1,1.0,0.6936020000000553
641,14,0.5,0.125,-35.0,-1,1.0,1.6504020000002129
642,14,0.5,0.25,-35.0,-1,1.0,1.1305010000000948
643,14,0.5,0.125,-35.0,-1,1.0,0.25720200000023397
644,14,0.5,0.0625,-35.0,1,0.0,0.22730200000000877
645,14,0.7,0.0625,-35.0,1,0.0,0.24730200000021796
646,14,0.5,1.0,-35.0,-1,1.0,0.337402000000111
647,14,0.5,0.25,-35.0,-1,1.0,0.2876020000001063
648,14,0.5,0.125,35.0,1,1.0,0.8976020000000062
649,14,0.5,1.0,35.0,1,1.0,0.3310020000001259
650,14,0.5,0.125,35.0,1,1.0,0.2910020000001623
651,14,0.5,0.125,-35.0,1,0.0,0.44120199999997567
652,14,0.5,0.125,-35.0,-1,1.0,0.35120100000017374
653,14,0.5,0.0,35.0,1,1.0,0.17790100000001985
654,14,0.5,0.0,35.0,1,1.0,0.2347019999999702
655,14,0.5,0.0625,-35.0,1,0.0,0.3314020000000255
656,14,0.5,0.25,35.0,1,1.0,0.2548020000001543
657,14,0.5,0.0625,-35.0,1,0.0,0.25160200000004806
658,14,0.5,0.0625,-35.0,-1,1.0,0.3216019999999844
659,14,0.5,0.125,-35.0,-1,1.0,0.4317020000000866
660,14,0.5,1.0,35.0,1,1.0,0.33840200000008736
661,14,0.5,0.0625,-35.0,-1,1.0,2.3418020000001434
662,14,0.5,1.0,-35.0,-1,1.0,0.6752020000001266
663,14,0.5,0.125,35.0,-1,0.0,0.2555010000000948
664,14,0.5,0.0625,35.0,1,1.0,0.27540200000021287
665,14,0.5,0.25,35.0,1,1.0,0.1954009999999471
666,14,0.5,0.0625,35.0,1,1.0,3.498802000000069
667,14,0.5,0.0,35.0,1,1.0,0.1056020000000899
668,14,0.5,0.125,35.0,1,1.0,0.3157020000001012
669,14,0.5,0.0625,-35.0,-1,1.0,1.4558019999999487
670,14,0.5,1.0,-35.0,-1,1.0,0.8092020000001412
671,14,0.5,1.0,-35.0,-1,1.0,0.5325020000000222
672,14,0.5,1.0,-35.0,-1,1.0,0.7893010000002505
673,14,0.5,1.0,35.0,1,1.0,0.33280200000012883
674,14,0.5,1.0,35.0,1,1.0,0.23960200000010445
675,14,0.5,0.125,-35.0,-1,1.0,0.6261020000001736
676,14,0.5,0.25,35.0,1,1.0,0.14960199999995893
677,14,0.5,0.0625,-35.0,-1,1.0,0.3163010000000668
678,14,0.5,1.0,35.0,1,1.0,0.22310200000015357
679,14,0.5,0.0,-35.0,1,0.0,0.24990100000036364
680,14,0.5,0.125,-35.0,-1,1.0,0.4532019999999193
681,14,0.5,0.0625,35.0,1,1.0,0.36670100000014827
682,14,0.5,0.0,35.0,1,1.0,4.0866020000000844
683,14,0.5,0.0625,35.0,1,1.0,0.3901020000000699
684,14,0.5,0.125,-35.0,1,0.0,2.3102010000000064
685,14,0.7,0.125,-35.0,-1,1.0,0.2671020000000226
686,14,0.5,1.0,-35.0,-1,1.0,0.503702000000203
687,14,0.5,0.25,35.0,1,1.0,0.20370200000024852
688,14,0.5,0.125,35.0,1,1.0,0.2471020000000408
689,14,0.5,0.0625,35.0,1,1.0,0.29050199999983306
690,14,0.5,0.25,35.0,1,1.0,0.3073010000000522
691,14,0.5,0.125,-35.0,-1,1.0,0.9540020000004006
692,14,0.5,0.0625,35.0,1,1.0,0.334002000000055
693,14,0.5,0.0625,35.0,1,1.0,0.3174020000001292
694,14,0.5,1.0,-35.0,-1,1.0,0.4241020000001754
695,14,0.5,0.125,-35.0,1,0.0,0.3375020000000859
696,14,0.5,0.0,35.0,1,1.0,5.727602000000161
697,14,0.5,0.0,-35.0,1,0.0,0.24770199999989018
698,14,0.5,0.0,35.0,1,1.0,0.1911009999998896
699,14,0.5,0.125,-35.0,-1,1.0,0.27790200000026744
700,14,0.5,0.0625,-35.0,-1,1.0,0.34460200000012264
701,14,0.5,1.0,35.0,1,1.0,0.23140100000023267
702,14,0.5,0.0,35.0,1,1.0,0.2647020000003977
703,14,0.5,0.0,-35.0,1,0.0,2.0681019999999535
704,14,0.7,0.0,-35.0,1,0.0,0.3215020000000095
705,14,0.5,1.0,-35.0,-1,1.0,0.378402000000051
706,14,0.5,0.125,-35.0,-1,1.0,1.3084010000002309
707,14,0.5,0.125,35.0,1,1.0,0.29510200000049736
708,14,0.5,0.0625,-35.0,-1,1.0,0.4584020000002056
