trial_num,session_num,stim_probability_left,contrast,position,response_choice,trial_correct,reaction_time
1,24,0.5,0.125,-35.0,1,0.0,6.5472
2,24,0.5,0.125,-35.0,-1,1.0,1.5201010000000004
3,24,0.5,0.125,-35.0,-1,1.0,0.9721010000000021
4,24,0.5,0.25,-35.0,-1,1.0,0.7597009999999997
5,24,0.5,1.0,-35.0,-1,1.0,0.16710099999999883
6,24,0.5,0.0625,-35.0,-1,1.0,0.8569010000000006
7,24,0.5,0.0625,35.0,-1,0.0,1.0051009999999998
8,24,0.4,0.0625,35.0,-1,0.0,3.580800999999994
9,24,0.5,1.0,35.0,-1,0.0,1.439200999999997
10,24,0.5,0.125,-35.0,-1,1.0,0.3045010000000019
11,24,0.5,0.0625,-35.0,-1,1.0,2.0297009999999958
12,24,0.5,0.0625,-35.0,-1,1.0,1.2720999999999947
13,24,0.5,0.25,-35.0,-1,1.0,2.1480010000000007
14,24,0.5,0.125,-35.0,-1,1.0,3.5142000000000095
15,24,0.5,0.125,-35.0,-1,1.0,1.4990009999999927
16,24,0.5,0.25,-35.0,-1,1.0,0.4930009999999925
17,24,0.5,0.0625,35.0,1,1.0,2.7968999999999937
18,24,0.5,1.0,35.0,1,1.0,0.495001000000002
19,24,0.5,0.25,35.0,1,1.0,1.0846010000000064
20,24,0.5,0.0625,35.0,1,1.0,0.6606000000000023
21,24,0.5,0.0,-35.0,1,0.0,1.039000999999999
22,24,0.5,0.25,35.0,1,1.0,0.13460100000001773
23,24,0.5,0.25,-35.0,1,0.0,0.7740010000000126
24,24,0.5,0.0625,-35.0,1,0.0,0.7400010000000066
25,24,0.5,0.125,35.0,1,1.0,0.3985010000000102
26,24,0.5,0.25,-35.0,-1,1.0,2.1127010000000155
27,24,0.5,0.0625,35.0,1,1.0,0.12010100000001955
28,24,0.5,0.125,35.0,1,1.0,0.8580010000000158
29,24,0.5,0.25,-35.0,-1,1.0,2.9896009999999933
30,24,0.5,0.25,-35.0,-1,1.0,3.3118010000000027
31,24,0.5,1.0,35.0,-1,0.0,1.145200999999986
32,24,0.5,0.25,-35.0,-1,1.0,1.3037009999999896
33,24,0.5,0.25,35.0,1,1.0,0.801400000000001
34,24,0.5,0.125,35.0,-1,0.0,2.1701009999999883
35,24,0.4,0.125,35.0,1,1.0,0.7194000000000074
36,24,0.5,1.0,-35.0,-1,1.0,2.5295010000000104
37,24,0.5,0.125,35.0,-1,0.0,3.3937009999999646
38,24,0.5,0.125,-35.0,-1,1.0,2.225401000000005
39,24,0.5,1.0,35.0,1,1.0,1.4639019999999903
40,24,0.5,0.0,35.0,-1,0.0,1.662101999999976
41,24,0.5,0.0625,35.0,-1,0.0,0.827401999999978
42,24,0.5,0.0625,35.0,-1,0.0,2.591700999999972
43,24,0.5,0.0,35.0,-1,0.0,0.7827009999999746
44,24,0.5,0.0625,-35.0,-1,1.0,1.9425019999999904
45,24,0.5,0.0,35.0,-1,0.0,2.2712020000000166
46,24,0.5,0.0,35.0,1,1.0,1.6842019999999707
47,24,0.5,0.25,-35.0,-1,1.0,1.4337019999999825
48,24,0.5,1.0,-35.0,1,0.0,0.24670199999997067
49,24,0.5,0.0,-35.0,1,0.0,1.7282019999999818
50,24,0.5,0.125,35.0,1,1.0,3.165301999999997
51,24,0.5,1.0,35.0,1,1.0,0.2557019999999852
52,24,0.5,0.0,-35.0,1,0.0,0.8929009999999664
53,24,0.5,0.125,-35.0,1,0.0,0.48710199999999304
54,24,0.5,0.0625,35.0,1,1.0,0.42940199999998185
55,24,0.5,0.0625,-35.0,1,0.0,1.4751019999999926
56,24,0.9,0.0625,35.0,-1,0.0,2.9324019999999678
57,24,0.5,1.0,-35.0,-1,1.0,2.2567020000000184
58,24,0.5,1.0,35.0,1,1.0,0.5535020000000372
59,24,0.5,1.0,-35.0,-1,1.0,0.7404019999999605
60,24,0.5,1.0,-35.0,-1,1.0,1.5392009999999914
61,24,0.5,0.25,35.0,-1,0.0,0.6936010000000579
62,24,0.5,0.0625,35.0,-1,0.0,2.2234019999999646
63,24,0.4,0.0625,35.0,-1,0.0,0.7098009999999704
64,24,0.5,1.0,35.0,1,1.0,0.4898019999999974
65,24,0.5,1.0,35.0,1,1.0,0.45000199999992674
66,24,0.5,1.0,-35.0,-1,1.0,1.9640019999999367
67,24,0.5,1.0,35.0,1,1.0,0.37430200000000013
68,24,0.5,1.0,-35.0,-1,1.0,0.6639019999999505
69,24,0.5,1.0,35.0,-1,0.0,0.1352019999999925
70,24,0.3,1.0,35.0,1,1.0,0.2317019999999843
71,24,0.5,1.0,-35.0,-1,1.0,1.0136019999999917
72,24,0.5,1.0,35.0,1,1.0,0.31980200000003833
73,24,0.5,0.0625,35.0,1,1.0,0.3516019999999571
74,24,0.5,0.25,-35.0,1,0.0,1.124100999999996
75,24,0.6,0.25,35.0,-1,0.0,1.996200999999985
76,24,0.5,1.0,35.0,1,1.0,0.2681019999999421
77,24,0.5,0.125,-35.0,-1,1.0,0.4242020000000366
78,24,0.5,0.125,-35.0,1,0.0,0.24890199999998686
79,24,0.5,0.0625,-35.0,-1,1.0,1.9188009999999736
80,24,0.5,1.0,-35.0,-1,1.0,0.9738019999999779
81,24,0.5,0.0,-35.0,-1,1.0,0.4809010000000171
82,24,0.5,0.125,-35.0,1,0.0,1.0713020000000029
83,24,0.5,0.0625,-35.0,1,0.0,0.6494019999999523
84,24,0.5,0.0625,-35.0,1,0.0,0.6297020000000657
85,24,0.5,0.25,35.0,-1,0.0,2.2899009999999294
86,24,0.5,0.25,35.0,-1,0.0,3.730801999999983
87,24,0.5,0.125,35.0,1,1.0,2.3980019999999627
88,24,0.5,0.0625,-35.0,-1,1.0,0.3969020000000114
89,24,0.5,0.125,-35.0,-1,1.0,0.3386019999999803
90,24,0.5,0.125,35.0,1,1.0,0.3912009999999668
91,24,0.5,1.0,-35.0,1,0.0,2.6707020000000057
92,24,0.5,0.125,35.0,-1,0.0,1.9364009999999325
93,24,0.5,0.125,-35.0,-1,1.0,0.9326019999999176
94,24,0.5,1.0,-35.0,-1,1.0,1.4430019999999786
95,24,0.5,0.25,35.0,1,1.0,1.0215010000000007
96,24,0.5,1.0,35.0,1,1.0,0.52040199999999
97,24,0.5,0.25,35.0,1,1.0,0.2929020000000264
98,24,0.5,0.125,-35.0,1,0.0,0.17970100000002276
99,24,0.6,0.125,-35.0,-1,1.0,1.9781019999999785
100,24,0.5,1.0,35.0,1,1.0,0.36180199999995466
101,24,0.5,1.0,35.0,1,1.0,0.38970199999999977
102,24,0.5,1.0,-35.0,-1,1.0,0.9050019999999677
103,24,0.5,0.125,-35.0,-1,1.0,0.7853020000000015
104,24,0.5,0.125,35.0,1,1.0,0.19120199999997567
105,24,0.5,0.0,-35.0,1,0.0,0.3867010000000164
106,24,0.5,0.0,-35.0,1,0.0,0.22310199999998304
107,24,0.5,0.125,-35.0,-1,1.0,2.318401999999992
108,24,0.5,0.0625,35.0,-1,0.0,2.207000999999991
109,24,0.5,0.25,-35.0,1,0.0,1.328301999999951
110,24,0.5,0.0625,35.0,-1,0.0,0.37040099999995846
111,24,0.5,0.0625,-35.0,-1,1.0,3.2183019999999942
112,24,0.5,1.0,35.0,1,1.0,0.349000999999987
113,24,0.5,0.125,35.0,1,1.0,3.3777019999999993
114,24,0.5,1.0,35.0,1,1.0,0.402601999999888
115,24,0.5,0.125,35.0,1,1.0,0.49080099999991944
116,24,0.5,1.0,-35.0,1,0.0,4.1312019999999166
117,24,0.5,0.25,35.0,1,1.0,0.4185019999999895
118,24,0.5,0.125,-35.0,1,0.0,2.6427019999999857
119,24,0.8,0.125,35.0,1,1.0,0.3887019999999666
120,24,0.5,1.0,-35.0,-1,1.0,1.9621020000000726
121,24,0.5,0.0,-35.0,1,0.0,0.39310199999999895
122,24,0.5,0.125,-35.0,1,0.0,1.474401999999941
123,24,0.9,0.125,35.0,1,1.0,0.6539020000000164
124,24,0.5,1.0,-35.0,-1,1.0,3.4002020000000357
125,24,0.5,0.125,-35.0,1,0.0,2.060202000000004
126,24,0.5,0.125,-35.0,-1,1.0,1.08840199999986
127,24,0.5,1.0,35.0,1,1.0,0.2688019999999369
128,24,0.5,1.0,-35.0,1,0.0,1.1996020000000271
129,24,0.5,0.0,-35.0,1,0.0,1.1996010000000297
130,24,0.7,0.0,-35.0,-1,1.0,2.4480020000000877
131,24,0.5,1.0,35.0,1,1.0,0.4430019999999786
132,24,0.5,0.0625,-35.0,-1,1.0,0.8396020000000135
133,24,0.5,0.25,-35.0,1,0.0,1.1919020000000273
134,24,0.5,0.25,-35.0,-1,1.0,2.4056020000000444
135,24,0.5,1.0,-35.0,-1,1.0,0.40290200000004006
136,24,0.5,0.0,35.0,-1,0.0,1.7158019999999397
137,24,0.5,0.0,35.0,-1,0.0,2.5439020000000028
138,24,0.5,0.125,35.0,1,1.0,0.35540199999991273
139,24,0.5,1.0,-35.0,-1,1.0,0.6476020000000062
140,24,0.5,1.0,35.0,1,1.0,0.20340200000009645
141,24,0.5,0.0625,35.0,1,1.0,1.587101999999959
142,24,0.5,0.0,-35.0,1,0.0,4.322100999999975
143,24,0.5,0.125,-35.0,-1,1.0,1.5427020000000766
144,24,0.5,1.0,35.0,1,1.0,0.24620100000004186
145,24,0.5,0.125,35.0,1,1.0,0.2808019999999942
146,24,0.5,0.25,35.0,1,1.0,0.4361020000000053
147,24,0.5,0.25,-35.0,1,0.0,1.8127009999999473
148,24,0.5,0.25,35.0,1,1.0,0.5522009999999682
149,24,0.5,0.0625,35.0,-1,0.0,0.2087020000000166
150,24,0.5,0.125,-35.0,-1,1.0,2.135501999999974
151,24,0.5,0.25,-35.0,1,0.0,1.1426020000000108
152,24,0.5,0.125,35.0,1,1.0,0.33880199999998695
153,24,0.5,0.0625,-35.0,1,0.0,1.1388020000000552
154,24,0.5,0.0,-35.0,1,0.0,1.1658019999999851
155,24,0.5,0.0625,-35.0,-1,1.0,1.8546019999998862
156,24,0.5,1.0,-35.0,-1,1.0,1.2855019999999513
157,24,0.5,0.125,-35.0,-1,1.0,1.920402000000081
158,24,0.5,0.0,-35.0,1,0.0,1.8004009999999653
159,24,0.5,0.0625,-35.0,-1,1.0,1.2387009999999918
160,24,0.5,0.25,-35.0,-1,1.0,0.9835020000000441
161,24,0.5,0.25,-35.0,-1,1.0,0.7679020000000492
162,24,0.5,0.25,35.0,1,1.0,0.3927019999999857
163,24,0.5,0.0625,-35.0,-1,1.0,1.1963010000000622
164,24,0.5,1.0,-35.0,-1,1.0,0.5861019999999826
165,24,0.5,0.25,-35.0,-1,1.0,0.5979019999999764
166,24,0.5,0.125,35.0,1,1.0,0.3506009999999833
167,24,0.5,0.125,35.0,1,1.0,1.0281019999999899
168,24,0.5,0.0625,-35.0,-1,1.0,1.0726009999999633
169,24,0.5,1.0,35.0,1,1.0,0.29930099999990034
170,24,0.5,0.125,35.0,1,1.0,0.4536009999999351
171,24,0.5,0.125,35.0,1,1.0,0.28280199999994693
172,24,0.5,0.25,-35.0,1,0.0,1.5188020000000506
173,24,0.5,0.25,-35.0,1,0.0,1.1769019999999273
174,24,0.7,0.25,-35.0,-1,1.0,4.687701999999945
175,24,0.5,1.0,-35.0,-1,1.0,1.2334019999999555
176,24,0.5,0.125,35.0,1,1.0,0.5566019999998844
177,24,0.5,0.25,35.0,1,1.0,0.3035019999999804
178,24,0.5,0.125,35.0,1,1.0,0.338102000000049
179,24,0.5,0.0625,-35.0,1,0.0,4.920702000000006
180,24,0.5,0.0625,35.0,-1,0.0,3.3706019999999626
181,24,0.7,0.0625,-35.0,-1,1.0,1.724301999999966
182,24,0.5,1.0,-35.0,-1,1.0,0.6073020000000042
183,24,0.5,0.0625,35.0,-1,0.0,1.9098010000000158
184,24,0.5,0.0625,-35.0,-1,1.0,1.6936019999999417
185,24,0.5,0.125,-35.0,-1,1.0,0.9404019999999491
186,24,0.5,0.125,35.0,1,1.0,0.4112010000000055
187,24,0.5,0.0625,35.0,-1,0.0,0.9665009999999938
188,24,0.5,0.0625,35.0,1,1.0,0.5115020000000641
189,24,0.5,0.0,35.0,-1,0.0,2.374100999999996
190,24,0.5,0.0,35.0,-1,0.0,1.287802000000056
191,24,0.2,0.0,35.0,-1,0.0,1.589102000000139
192,24,0.5,1.0,-35.0,-1,1.0,2.718601000000035
193,24,0.5,1.0,-35.0,-1,1.0,0.4428009999999176
194,24,0.5,0.0625,-35.0,-1,1.0,0.5522019999999657
195,24,0.5,0.125,35.0,-1,0.0,0.6824010000000271
196,24,0.5,0.25,-35.0,-1,1.0,1.4557019999999739
197,24,0.5,0.0625,-35.0,-1,1.0,1.7308020000000397
198,24,0.5,0.0625,-35.0,-1,1.0,0.6219019999999773
199,24,0.5,1.0,35.0,1,1.0,0.3925019999999222
200,24,0.5,0.0,35.0,1,1.0,0.3942020000000639
201,24,0.5,1.0,35.0,1,1.0,0.2491019999999935
202,24,0.5,0.0625,-35.0,1,0.0,0.5960019999999986
203,24,0.5,0.125,-35.0,1,0.0,1.41810200000009
204,24,0.5,0.0,-35.0,-1,1.0,3.3325019999999768
205,24,0.5,0.0625,35.0,1,1.0,0.2873019999999542
206,24,0.5,1.0,-35.0,-1,1.0,0.5336019999999735
207,24,0.5,0.25,35.0,1,1.0,0.42500200000006316
208,24,0.5,0.25,-35.0,-1,1.0,0.6080020000000559
209,24,0.5,0.0,35.0,-1,0.0,0.5089020000000346
210,24,0.6,0.0,35.0,-1,0.0,1.6774020000000291
211,24,0.5,1.0,-35.0,-1,1.0,1.5201020000000653
212,24,0.5,0.0,-35.0,-1,1.0,1.00860200000011
213,24,0.5,0.0625,-35.0,-1,1.0,0.6106019999999717
214,24,0.5,1.0,35.0,1,1.0,0.6206009999999651
215,24,0.5,1.0,35.0,1,1.0,0.2514019999999846
216,24,0.5,0.25,-35.0,1,0.0,0.2728020000000697
217,24,0.5,0.0,-35.0,-1,1.0,1.3629009999999653
218,24,0.5,1.0,35.0,1,1.0,0.24440100000003895
219,24,0.5,0.0625,-35.0,1,0.0,1.5918020000000297
220,24,0.5,0.25,35.0,1,1.0,0.368101999999908
221,24,0.5,0.125,35.0,1,1.0,2.5946019999998953
222,24,0.5,0.25,-35.0,1,0.0,0.43020100000001094
223,24,0.5,0.0,-35.0,-1,1.0,5.0649009999999635
224,24,0.5,0.0625,35.0,1,1.0,0.5504019999999628
225,24,0.5,0.0625,-35.0,-1,1.0,0.7288019999999733
226,24,0.5,0.25,35.0,1,1.0,0.26410200000009354
227,24,0.5,1.0,35.0,1,1.0,0.3987019999999575
228,24,0.5,0.125,-35.0,1,0.0,0.5175020000001496
229,24,0.8,0.125,-35.0,1,0.0,0.6821019999999862
230,24,0.5,1.0,-35.0,-1,1.0,1.6110010000002148
231,24,0.5,0.0625,35.0,1,1.0,0.4523020000003726
232,24,0.5,0.0625,-35.0,1,0.0,0.864701999999852
233,24,0.5,0.25,-35.0,-1,1.0,7.275902000000087
234,24,0.5,0.0625,-35.0,-1,1.0,2.65170100000023
235,24,0.5,0.0625,35.0,1,1.0,0.3895020000002205
236,24,0.5,0.125,-35.0,-1,1.0,1.3350020000000313
237,24,0.5,1.0,-35.0,-1,1.0,1.7631019999998898
238,24,0.5,0.125,-35.0,-1,1.0,1.7854020000002038
239,24,0.5,0.125,35.0,-1,0.0,0.6968020000001616
240,24,0.5,0.25,-35.0,-1,1.0,1.3287020000000211
241,24,0.5,1.0,35.0,1,1.0,0.7200020000000222
242,24,0.5,1.0,35.0,1,1.0,0.31610200000000077
243,24,0.5,0.125,35.0,1,1.0,2.603601000000026
244,24,0.5,0.25,35.0,1,1.0,0.3695020000000113
245,24,0.5,0.25,35.0,1,1.0,0.2507020000000466
246,24,0.5,0.25,35.0,1,1.0,0.3891009999999824
247,24,0.5,1.0,35.0,1,1.0,5.0107020000000375
248,24,0.5,0.0625,35.0,1,1.0,1.1767020000002049
249,24,0.5,0.25,-35.0,-1,1.0,1.6742010000002665
250,24,0.5,0.25,-35.0,-1,1.0,0.6997020000001157
251,24,0.5,0.0625,-35.0,-1,1.0,1.4045020000000932
252,24,0.5,1.0,-35.0,-1,1.0,0.6800020000000586
253,24,0.5,0.125,35.0,1,1.0,0.27470199999993383
254,24,0.5,0.0625,35.0,1,1.0,3.240201999999954
255,24,0.5,0.0,35.0,1,1.0,1.8116019999999935
256,24,0.5,0.0,-35.0,-1,1.0,1.5409010000003036
257,24,0.5,0.25,-35.0,1,0.0,0.13840200000026925
258,24,0.5,0.25,-35.0,1,0.0,0.9944020000002638
259,24,0.5,1.0,-35.0,-1,1.0,4.555401000000074
260,24,0.5,0.0625,35.0,-1,0.0,0.7876019999998789
261,24,0.5,0.0625,35.0,-1,0.0,3.362202000000025
262,24,0.5,0.25,-35.0,-1,1.0,1.9551020000001245
263,24,0.5,1.0,-35.0,-1,1.0,3.6493010000001505
264,24,0.5,0.125,35.0,-1,0.0,2.0614020000000437
265,24,0.5,0.25,35.0,1,1.0,0.4027010000002065
266,24,0.5,0.125,35.0,1,1.0,1.131501999999955
267,24,0.5,0.125,-35.0,-1,1.0,1.4296019999999316
268,24,0.5,0.25,-35.0,-1,1.0,1.8233020000002398
269,24,0.5,0.125,-35.0,-1,1.0,1.8035019999999804
270,24,0.5,0.125,35.0,1,1.0,0.6554020000000946
271,24,0.5,0.0,35.0,-1,0.0,0.8502020000000812
272,24,0.5,0.0,-35.0,-1,1.0,1.5425020000000131
273,24,0.5,0.125,35.0,1,1.0,0.49360200000023724
274,24,0.5,0.0625,-35.0,1,0.0,1.70260200000007
275,24,0.5,0.25,35.0,1,1.0,0.26730200000019977
276,24,0.5,0.125,35.0,1,1.0,0.4691020000000208
277,24,0.5,0.0625,35.0,1,1.0,1.29740199999992
278,24,0.5,0.0625,-35.0,1,0.0,0.9561020000001008
279,24,0.5,0.0625,35.0,1,1.0,1.7875020000001314
280,24,0.5,0.0,-35.0,1,0.0,0.3397019999999884
281,24,0.8,0.0,-35.0,-1,1.0,4.274402000000009
282,24,0.5,1.0,-35.0,1,0.0,0.8903020000000197
283,24,0.5,0.0625,-35.0,-1,1.0,2.921301000000085
284,24,0.5,0.0,35.0,1,1.0,0.4035020000001168
285,24,0.5,0.25,-35.0,1,0.0,0.8083020000001397
286,24,0.5,0.0625,35.0,1,1.0,0.5305020000000695
287,24,0.5,0.25,35.0,1,1.0,0.35840200000006917
288,24,0.5,0.125,35.0,1,1.0,0.5572020000001885
289,24,0.5,0.25,35.0,1,1.0,0.4586020000001554
290,24,0.5,1.0,-35.0,1,0.0,1.444501000000173
291,24,0.5,0.0625,35.0,1,1.0,0.38560200000029
292,24,0.5,0.0,35.0,1,1.0,0.6611020000000281
293,24,0.5,0.125,35.0,1,1.0,0.4322020000001885
294,24,0.5,1.0,-35.0,1,0.0,0.1379020000001674
295,24,0.5,0.0,35.0,1,1.0,1.412802000000056
296,24,0.5,0.0625,-35.0,1,0.0,5.444801000000098
297,24,0.5,0.0,-35.0,-1,1.0,3.896001999999953
298,24,0.5,0.0,35.0,-1,0.0,0.5120020000001659
299,24,0.5,0.25,35.0,1,1.0,0.3331020000002809
300,24,0.5,0.0,35.0,1,1.0,1.1821020000002136
301,24,0.5,0.25,-35.0,1,0.0,1.7299010000003818
302,24,0.5,0.0625,-35.0,-1,1.0,1.282001000000264
303,24,0.5,0.0625,-35.0,-1,1.0,0.8402020000000903
304,24,0.5,0.125,-35.0,-1,1.0,2.539001999999982
305,24,0.5,0.0625,35.0,1,1.0,9.056902000000264
306,24,0.5,1.0,35.0,1,1.0,0.4561020000001008
307,24,0.5,1.0,-35.0,-1,1.0,0.7774020000001656
308,24,0.5,0.125,35.0,1,1.0,0.7126020000000608
309,24,0.5,0.125,35.0,1,1.0,0.3774020000000746
310,24,0.5,0.125,-35.0,1,0.0,2.283002000000124
311,24,0.5,0.125,-35.0,-1,1.0,3.7910020000001623
312,24,0.5,0.25,-35.0,-1,1.0,0.7567020000001321
313,24,0.5,0.0,35.0,-1,0.0,1.408001000000013
314,24,0.5,0.0625,35.0,-1,0.0,2.0136019999999917
315,24,0.5,0.0625,-35.0,-1,1.0,4.861601000000064
316,24,0.5,1.0,-35.0,-1,1.0,0.8436020000003737
317,24,0.5,0.25,35.0,1,1.0,0.7785020000001168
318,24,0.5,1.0,35.0,1,1.0,0.3379019999999855
319,24,0.5,0.0625,35.0,1,1.0,0.2886020000000826
320,24,0.5,0.0625,-35.0,1,0.0,0.3273019999999178
321,24,0.5,0.125,35.0,1,1.0,0.5122020000001157
322,24,0.5,0.0,-35.0,-1,1.0,0.5778020000002471
323,24,0.5,0.25,-35.0,-1,1.0,1.432401999999911
324,24,0.5,0.25,35.0,1,1.0,0.32830100000023776
325,24,0.5,1.0,-35.0,-1,1.0,0.6626020000001063
326,24,0.5,0.0625,-35.0,-1,1.0,1.3449020000000473
327,24,0.5,1.0,35.0,1,1.0,0.4227020000000721
328,24,0.5,1.0,35.0,1,1.0,0.4015020000001641
329,24,0.5,0.0625,35.0,1,1.0,0.6261020000001736
330,24,0.5,0.0625,-35.0,1,0.0,4.031602000000021
331,24,0.5,0.0625,-35.0,1,0.0,1.5134020000000419
332,24,0.5,0.0,35.0,-1,0.0,1.1117020000001503
333,24,0.6,0.0,35.0,-1,0.0,2.5433020000000397
334,24,0.5,1.0,-35.0,-1,1.0,0.5588010000001304
335,24,0.5,0.0625,-35.0,-1,1.0,5.306902000000264
336,24,0.5,1.0,35.0,1,1.0,0.34280200000011973
337,24,0.5,0.0625,35.0,1,1.0,0.5506009999999151
338,24,0.5,0.0,35.0,-1,0.0,1.346002000000226
339,24,0.5,0.25,35.0,1,1.0,0.38730200000009063
340,24,0.5,0.0,-35.0,1,0.0,7.49670100000003
341,24,0.5,0.125,-35.0,-1,1.0,0.6781020000000808
342,24,0.5,0.0625,-35.0,1,0.0,0.41340200000013283
343,24,0.5,0.0625,35.0,1,1.0,0.3412020000000666
344,24,0.5,0.25,-35.0,-1,1.0,1.6699020000000928
345,24,0.5,0.0625,35.0,1,1.0,2.298102000000199
346,24,0.5,0.125,-35.0,-1,1.0,1.606802000000016
347,24,0.5,0.25,-35.0,-1,1.0,1.1988020000001143
348,24,0.5,0.25,-35.0,-1,1.0,3.2672019999999975
349,24,0.5,0.125,-35.0,-1,1.0,0.4251010000000406
350,24,0.5,0.25,-35.0,-1,1.0,4.40090199999986
351,24,0.5,1.0,35.0,1,1.0,0.34240199999999277
352,24,0.5,0.25,35.0,1,1.0,0.33440199999995457
353,24,0.5,0.0,-35.0,1,0.0,0.572402000000011
354,24,0.4,0.0,35.0,1,1.0,0.8311020000001008
355,24,0.5,1.0,35.0,1,1.0,0.2793020000001434
356,24,0.5,0.0625,-35.0,1,0.0,0.3717020000001412
357,24,0.5,0.0625,-35.0,-1,1.0,1.0393020000001343
358,24,0.5,0.0625,35.0,1,1.0,0.5247020000001612
359,24,0.5,0.25,35.0,1,1.0,0.15280200000006516
360,24,0.5,0.0625,-35.0,1,0.0,0.35510100000010425
361,24,0.5,0.25,-35.0,-1,1.0,1.6229020000000673
362,24,0.5,0.0625,-35.0,-1,1.0,0.7756020000001627
363,24,0.5,0.0625,-35.0,-1,1.0,0.7134020000000874
364,24,0.5,0.0625,35.0,1,1.0,0.1557020000002467
365,24,0.5,0.125,35.0,1,1.0,0.39680100000032326
366,24,0.5,0.0625,-35.0,1,0.0,1.0627019999999447
367,24,0.5,0.0625,-35.0,-1,1.0,4.320302000000083
368,24,0.5,0.0625,-35.0,-1,1.0,0.5158020000001216
369,24,0.5,0.25,-35.0,-1,1.0,0.9204010000003109
370,24,0.5,0.125,35.0,1,1.0,0.6193010000001777
371,24,0.5,1.0,35.0,1,1.0,0.10400200000003679
372,24,0.5,1.0,-35.0,1,0.0,1.4999010000001363
373,24,0.5,0.125,-35.0,1,0.0,1.4042020000001685
374,24,0.5,0.25,-35.0,-1,1.0,2.5397020000002613
375,24,0.5,0.125,35.0,1,1.0,0.4877010000000155
376,24,0.5,0.0625,-35.0,-1,1.0,0.6070019999999658
377,24,0.5,0.125,-35.0,1,0.0,1.0579020000000128
378,24,0.5,0.125,35.0,1,1.0,0.4500020000002678
379,24,0.5,1.0,35.0,1,1.0,0.41490200000021105
380,24,0.5,0.125,35.0,1,1.0,0.31400200000007317
381,24,0.5,0.0625,35.0,1,1.0,0.6617019999998774
382,24,0.5,0.125,-35.0,1,0.0,0.3276020000000699
383,24,0.5,0.125,35.0,1,1.0,0.31180200000017066
384,24,0.5,1.0,35.0,1,1.0,0.31460200000014993
385,24,0.5,0.25,35.0,1,1.0,0.318800999999894
386,24,0.5,0.0625,-35.0,1,0.0,0.5810020000001259
387,24,0.5,0.25,-35.0,-1,1.0,4.572302000000036
388,24,0.5,1.0,-35.0,1,0.0,0.5047010000000682
389,24,0.9,1.0,-35.0,-1,1.0,3.1358010000001286
390,24,0.5,1.0,-35.0,-1,1.0,1.8786009999998896
391,24,0.5,0.125,-35.0,-1,1.0,0.2028020000000197
392,24,0.5,0.125,35.0,1,1.0,0.3182019999999284
393,24,0.5,1.0,35.0,1,1.0,0.40300200000024233
394,24,0.5,0.0625,-35.0,1,0.0,0.8126010000003134
395,24,0.6,0.0625,35.0,-1,0.0,2.813201000000163
396,24,0.5,1.0,-35.0,-1,1.0,2.108701999999994
397,24,0.5,0.0625,-35.0,1,0.0,3.9767010000000482
398,24,0.5,0.0625,-35.0,-1,1.0,2.045800999999983
399,24,0.5,1.0,-35.0,-1,1.0,0.5771020000001954
400,24,0.5,0.0625,-35.0,-1,1.0,1.049201999999923
401,24,0.5,0.0625,-35.0,1,0.0,4.627402000000075
402,24,0.5,0.125,-35.0,-1,1.0,1.4207020000001194
403,24,0.5,0.0,-35.0,-1,1.0,1.6275010000001657
404,24,0.5,0.0,35.0,-1,0.0,1.0530020000003333
405,24,0.2,0.0,35.0,-1,0.0,2.3511009999999715
406,24,0.5,1.0,35.0,1,1.0,0.31650199999990036
407,24,0.5,0.125,35.0,1,1.0,0.3546019999998862
408,24,0.5,0.0625,35.0,1,1.0,0.4003020000000106
409,24,0.5,0.0625,-35.0,-1,1.0,1.804801000000225
410,24,0.5,0.25,35.0,1,1.0,0.25070199999981924
411,24,0.5,0.0625,-35.0,1,0.0,1.1650020000004133
412,24,0.5,0.25,-35.0,-1,1.0,1.680501999999933
413,24,0.5,0.25,35.0,1,1.0,0.3785020000000259
414,24,0.5,0.25,-35.0,1,0.0,0.14410200000020268
415,24,0.5,0.0,-35.0,1,0.0,1.0055019999999786
416,24,0.5,0.0625,-35.0,1,0.0,0.6107020000001739
417,24,0.5,0.25,-35.0,-1,1.0,4.109102000000121
418,24,0.5,1.0,-35.0,-1,1.0,0.8683020000000852
419,24,0.5,0.0,35.0,-1,0.0,2.0692019999999047
420,24,0.5,0.0,-35.0,-1,1.0,3.044602000000168
421,24,0.5,1.0,35.0,1,1.0,0.302902000000131
422,24,0.5,0.0,35.0,1,1.0,0.11170200000015029
423,24,0.5,1.0,-35.0,1,0.0,0.4864019999999982
424,24,0.5,0.0625,35.0,-1,0.0,0.17210199999999531
425,24,0.5,0.25,35.0,1,1.0,0.40640200000029836
426,24,0.5,0.25,35.0,1,1.0,0.37200200000029326
427,24,0.5,1.0,-35.0,1,0.0,0.5732020000000375
428,24,0.6,1.0,-35.0,-1,1.0,1.7922010000002047
429,24,0.5,1.0,35.0,1,1.0,0.296802000000298
430,24,0.5,0.0,35.0,-1,0.0,5.295702000000119
431,24,0.5,0.125,-35.0,1,0.0,2.234402000000273
432,24,0.5,0.125,35.0,1,1.0,0.495902000000342
433,24,0.5,1.0,35.0,1,1.0,0.2673019999999724
434,24,0.5,1.0,35.0,1,1.0,0.3162010000000919
435,24,0.5,0.125,35.0,1,1.0,0.36430200000017976
436,24,0.5,0.0625,35.0,1,1.0,0.3098019999999906
437,24,0.5,1.0,-35.0,1,0.0,0.6310020000000804
438,24,0.5,0.125,-35.0,1,0.0,1.1331020000002354
439,24,0.5,0.25,-35.0,-1,1.0,2.4745020000000295
440,24,0.5,1.0,-35.0,-1,1.0,3.956901000000016
441,24,0.5,0.0625,-35.0,-1,1.0,2.4382020000000466
442,24,0.5,0.0625,35.0,1,1.0,0.37080199999991237
443,24,0.5,0.25,35.0,1,1.0,0.3151020000000244
444,24,0.5,0.25,-35.0,1,0.0,4.054601999999932
445,24,0.5,0.125,35.0,1,1.0,0.3753009999995811
446,24,0.5,0.0,-35.0,1,0.0,10.668001999999888
447,24,0.5,0.125,-35.0,1,0.0,3.5559009999997215
448,24,0.5,0.0625,-35.0,-1,1.0,3.921501999999691
449,24,0.5,0.25,35.0,1,1.0,6.2630019999996875
450,24,0.5,0.0625,35.0,1,1.0,5.462002000000211
451,24,0.5,0.25,-35.0,-1,1.0,3.2236019999995733
452,24,0.5,0.0625,-35.0,-1,1.0,2.779500999999982
453,24,0.5,0.0625,35.0,-1,0.0,4.297101999999541
454,24,0.5,0.0625,35.0,-1,0.0,3.559302000000116
455,24,0.5,0.25,35.0,1,1.0,11.217501000000084
456,24,0.5,1.0,35.0,1,1.0,0.7332019999994372
457,24,0.5,1.0,-35.0,1,0.0,6.148001999999906
458,24,0.5,0.125,-35.0,1,0.0,9.45670199999995
459,24,0.5,0.125,-35.0,1,0.0,7.388501999999789
460,24,0.5,0.0625,35.0,1,1.0,16.300602000000254
461,24,0.5,0.125,35.0,1,1.0,0.4925009999997201
462,24,0.5,1.0,-35.0,-1,1.0,0.9245019999993929
463,24,0.5,0.125,35.0,1,1.0,0.49600199999986216
464,24,0.5,0.25,35.0,1,1.0,0.33540199999970355
465,24,0.5,1.0,35.0,1,1.0,0.4929019999999582
466,24,0.5,0.0,-35.0,-1,1.0,8.098801999999978
467,24,0.5,1.0,-35.0,-1,1.0,0.7031010000000606
468,24,0.5,0.0625,35.0,1,1.0,0.41190199999982724
469,24,0.5,0.25,-35.0,-1,1.0,3.397001999999702
470,24,0.5,0.125,35.0,-1,0.0,0.9463009999994938
471,24,0.5,0.0625,35.0,-1,0.0,4.813601999999719
472,24,0.5,0.0,35.0,-1,0.0,10.946601999999984
473,24,0.5,0.25,-35.0,-1,1.0,2.0475009999995564
474,24,0.5,0.0,-35.0,1,0.0,0.25660100000004604
475,24,0.5,0.0625,35.0,1,1.0,4.027901999999813
476,24,0.5,1.0,-35.0,-1,1.0,3.67670199999975
477,24,0.5,1.0,-35.0,-1,1.0,5.568300999999792
478,24,0.5,0.125,-35.0,-1,1.0,0.6769019999996999
479,24,0.5,0.125,-35.0,1,0.0,2.0184019999996963
480,24,0.3,0.125,-35.0,-1,1.0,2.797200999999859
481,24,0.5,1.0,35.0,1,1.0,0.431800999999723
482,24,0.5,0.25,-35.0,-1,1.0,1.3539010000004055
483,24,0.5,0.0625,35.0,-1,0.0,1.9088019999999233
484,24,0.5,0.25,35.0,1,1.0,5.071401000000151
485,24,0.5,0.25,35.0,1,1.0,0.47260199999982433
486,24,0.5,0.0625,-35.0,-1,1.0,2.571401000000151
487,24,0.5,0.0,-35.0,1,0.0,1.1092009999997572
488,24,0.5,0.0,-35.0,-1,1.0,1.1552019999999175
489,24,0.5,0.125,35.0,1,1.0,0.36940099999992526
490,24,0.5,0.125,-35.0,-1,1.0,1.0820020000001023
491,24,0.5,0.125,-35.0,-1,1.0,0.769600999999966
492,24,0.5,0.0,-35.0,-1,1.0,0.918402000000242
493,24,0.5,0.0,-35.0,-1,1.0,0.8630020000000513
494,24,0.5,1.0,-35.0,-1,1.0,1.2389020000000528
495,24,0.5,0.125,35.0,1,1.0,0.36340199999995093
496,24,0.5,0.125,35.0,1,1.0,0.3320019999996475
497,24,0.5,1.0,35.0,1,1.0,0.3070020000000113
498,24,0.5,0.125,35.0,1,1.0,0.2796019999996133
499,24,0.5,0.25,-35.0,-1,1.0,0.6702009999999063
500,24,0.5,0.25,-35.0,1,0.0,0.459002000000055
501,24,0.5,0.0625,-35.0,1,0.0,0.30740199999945617
502,24,0.5,0.125,-35.0,-1,1.0,3.246201999999812
503,24,0.5,1.0,-35.0,-1,1.0,0.6042019999999866
504,24,0.5,0.0625,-35.0,-1,1.0,1.4231009999998605
505,24,0.5,0.0,-35.0,-1,1.0,6.46110200000021
506,24,0.5,0.0,35.0,-1,0.0,0.6432020000002012
507,24,0.4,0.0,35.0,-1,0.0,0.9446020000000317
508,24,0.5,1.0,35.0,1,1.0,0.866802000000007
509,24,0.5,1.0,-35.0,-1,1.0,0.7682009999998627
510,24,0.5,1.0,35.0,1,1.0,0.33360199999970064
511,24,0.5,1.0,35.0,1,1.0,0.42490099999940867
512,24,0.5,0.0,-35.0,-1,1.0,0.6769019999996999
513,24,0.5,0.25,35.0,1,1.0,0.41190199999982724
514,24,0.5,1.0,35.0,1,1.0,0.17040200000019468
515,24,0.5,0.25,35.0,1,1.0,0.31520099999988815
516,24,0.5,0.25,-35.0,1,0.0,1.5242019999996046
517,24,0.5,0.0,35.0,-1,0.0,3.7356019999992895
518,24,0.5,0.125,35.0,1,1.0,1.9881019999997989
519,24,0.5,0.125,-35.0,-1,1.0,3.7226019999998243
520,24,0.5,0.0625,-35.0,-1,1.0,1.061402000000271
521,24,0.5,0.0,35.0,-1,0.0,0.942801999999574
522,24,0.5,0.25,-35.0,-1,1.0,0.9383020000000215
523,24,0.5,0.0625,35.0,1,1.0,0.38280200000008335
524,24,0.5,1.0,-35.0,-1,1.0,2.2586020000003373
525,24,0.5,0.25,35.0,1,1.0,0.21310100000027887
526,24,0.5,0.0,-35.0,1,0.0,1.6954019999998309
527,24,0.5,0.25,-35.0,1,0.0,0.08660199999940232
528,24,0.5,0.25,-35.0,-1,1.0,0.28690199999982724
529,24,0.5,1.0,35.0,1,1.0,0.29900199999974575
530,24,0.5,0.125,35.0,1,1.0,0.43350199999986216
531,24,0.5,0.25,35.0,1,1.0,0.33650200000010955
532,24,0.5,1.0,35.0,1,1.0,0.2207020000000739
533,24,0.5,0.0,-35.0,1,0.0,1.0829020000001037
534,24,0.5,0.125,-35.0,1,0.0,0.7343009999999595
535,24,0.5,0.125,35.0,1,1.0,0.4866009999996095
536,24,0.5,0.0625,-35.0,-1,1.0,0.6675019999997858
537,24,0.5,0.0625,35.0,1,1.0,0.4542019999994409
538,24,0.5,0.125,35.0,1,1.0,0.27090099999986705
539,24,0.5,0.25,-35.0,-1,1.0,1.1968019999999342
540,24,0.5,0.125,35.0,1,1.0,1.7612019999996846
541,24,0.5,0.125,35.0,1,1.0,0.44690099999979793
542,24,0.5,0.25,-35.0,-1,1.0,1.4815019999996366
543,24,0.5,0.25,35.0,1,1.0,0.4808010000001559
544,24,0.5,0.25,35.0,1,1.0,0.2917019999999866
545,24,0.5,0.125,35.0,-1,0.0,0.5137019999997392
546,24,0.5,0.0625,35.0,1,1.0,3.085102000000461
547,24,0.5,0.125,35.0,1,1.0,0.48430199999984325
548,24,0.5,0.0625,-35.0,-1,1.0,4.0755019999996875
549,24,0.5,0.125,35.0,1,1.0,0.3909009999997579
550,24,0.5,0.125,-35.0,1,0.0,1.5222020000001066
551,24,0.5,0.25,35.0,1,1.0,0.42460199999959514
552,24,0.5,0.25,35.0,1,1.0,0.34600200000022596
553,24,0.5,0.0625,35.0,-1,0.0,1.0213019999996504
554,24,0.5,0.125,35.0,1,1.0,0.7160020000001168
555,24,0.5,0.25,-35.0,-1,1.0,1.631601000000046
556,24,0.5,0.25,-35.0,-1,1.0,0.9329009999996742
557,24,0.5,0.25,-35.0,-1,1.0,1.6086009999999078
558,24,0.5,0.0625,35.0,1,1.0,0.390002000000095
559,24,0.5,1.0,35.0,1,1.0,0.2556019999997261
560,24,0.5,0.25,-35.0,1,0.0,0.3467019999998229
561,24,0.6,0.25,-35.0,-1,1.0,1.4620019999997567
562,24,0.5,1.0,35.0,1,1.0,0.2935019999999895
563,24,0.5,1.0,-35.0,-1,1.0,0.8162019999999757
564,24,0.5,0.0,35.0,-1,0.0,0.9503020000001925
565,24,0.4,0.0,35.0,-1,0.0,1.0158019999994394
566,24,0.5,1.0,35.0,1,1.0,0.30730199999970864
567,24,0.5,0.25,-35.0,-1,1.0,2.0167019999998956
568,24,0.5,0.0625,35.0,-1,0.0,0.24090099999966696
569,24,0.5,0.25,-35.0,-1,1.0,5.116401000000224
570,24,0.5,1.0,35.0,1,1.0,0.3382019999999102
571,24,0.5,1.0,-35.0,-1,1.0,1.7966019999998935
572,24,0.5,1.0,35.0,1,1.0,0.3945010000002185
573,24,0.5,0.125,35.0,1,1.0,0.32680200000004334
574,24,0.5,0.25,35.0,1,1.0,0.4715019999998731
575,24,0.5,0.0,35.0,1,1.0,1.070400999999947
576,24,0.5,0.0,35.0,1,1.0,1.485001999999895
577,24,0.5,0.25,35.0,1,1.0,0.3505009999998947
578,24,0.5,0.25,35.0,1,1.0,0.37180199999966135
579,24,0.5,0.25,-35.0,-1,1.0,3.3875020000000404
580,24,0.5,0.25,-35.0,-1,1.0,0.20540200000004916
581,24,0.5,0.0625,-35.0,-1,1.0,2.5106009999999515
582,24,0.5,0.0625,-35.0,-1,1.0,1.882300999999643
583,24,0.5,0.0625,35.0,1,1.0,0.5648019999998724
584,24,0.5,0.125,35.0,1,1.0,0.30910099999982776
585,24,0.5,1.0,-35.0,1,0.0,0.26850199999989854
586,24,0.5,0.125,-35.0,-1,1.0,0.955801000000065
587,24,0.5,0.125,-35.0,-1,1.0,1.9648019999999633
588,24,0.5,1.0,35.0,1,1.0,0.30630199999995966
589,24,0.5,0.0625,-35.0,-1,1.0,0.7850019999996221
590,24,0.5,1.0,35.0,1,1.0,0.28650199999992765
591,24,0.5,0.125,35.0,1,1.0,0.3285020000002987
592,24,0.5,0.0625,-35.0,-1,1.0,3.5698010000000977
593,24,0.5,0.25,35.0,1,1.0,0.2923009999999522
594,24,0.5,0.125,35.0,1,1.0,1.6701020000000426
595,24,0.5,1.0,35.0,1,1.0,0.23240199999963806
596,24,0.5,0.0625,35.0,1,1.0,1.7770019999998112
597,24,0.5,0.125,-35.0,-1,1.0,3.046501999999691
598,24,0.5,1.0,35.0,-1,0.0,0.19380199999977776
599,24,0.6,1.0,-35.0,-1,1.0,4.009701999999379
600,24,0.5,1.0,-35.0,-1,1.0,0.3475020000000768
601,24,0.5,0.0625,35.0,-1,0.0,0.8664019999996526
602,24,0.5,0.25,35.0,-1,0.0,0.17110200000024633
603,24,0.5,0.0625,35.0,1,1.0,0.39030200000024706
604,24,0.5,1.0,-35.0,-1,1.0,5.918202000000292
605,24,0.5,0.0625,35.0,-1,0.0,3.1768019999999524
606,24,0.5,0.25,35.0,1,1.0,0.4415009999997892
607,24,0.5,0.125,-35.0,-1,1.0,1.63370199999963
608,24,0.5,0.125,-35.0,-1,1.0,0.5485020000000986
609,24,0.5,0.25,35.0,-1,0.0,0.18040100000007442
610,24,0.2,0.25,35.0,1,1.0,0.35540199999968536
611,24,0.5,1.0,-35.0,-1,1.0,2.9477019999999357
612,24,0.5,0.125,-35.0,1,0.0,0.5790019999999458
613,24,0.5,0.25,-35.0,1,0.0,4.465502000000015
614,24,0.5,0.125,-35.0,1,0.0,21.732801999999992
615,24,0.5,0.125,-35.0,-1,1.0,4.575601999999435
616,24,0.5,0.25,35.0,1,1.0,0.4932019999996555
617,24,0.5,1.0,35.0,1,1.0,0.3623019999999997
618,24,0.5,0.125,35.0,1,1.0,0.9900019999995493
619,24,0.5,0.25,35.0,1,1.0,0.5564019999997072
620,24,0.5,0.0625,-35.0,-1,1.0,1.3336020000001554
621,24,0.5,1.0,35.0,1,1.0,0.20610199999964607
622,24,0.5,0.0,35.0,1,1.0,4.097001999999975
623,24,0.5,0.25,-35.0,-1,1.0,11.556002000000262
624,24,0.5,1.0,-35.0,-1,1.0,0.9975020000001678
625,24,0.5,0.25,35.0,1,1.0,4.129701999999725
626,24,0.5,0.0625,35.0,1,1.0,26.177901999999904
627,24,0.5,0.125,35.0,1,1.0,1.3141019999998207
628,24,0.5,0.25,-35.0,1,0.0,2.3221020000000863
629,24,0.7,0.25,-35.0,1,0.0,2.9112020000002303
630,24,0.5,1.0,-35.0,-1,1.0,1.6923010000000431
631,24,0.5,0.125,35.0,1,1.0,0.5352020000000266
632,24,0.5,1.0,-35.0,1,0.0,1.625702000000274
633,24,0.5,0.125,-35.0,-1,1.0,2.0982019999996737
634,24,0.5,0.25,35.0,1,1.0,0.38610199999948236
635,24,0.5,0.0,-35.0,-1,1.0,4.15530200000012
636,24,0.5,0.0625,-35.0,-1,1.0,2.7963019999997414
637,24,0.5,1.0,35.0,1,1.0,0.35890199999994365
638,24,0.5,0.125,35.0,1,1.0,0.46670099999982995
639,24,0.5,0.0,35.0,1,1.0,1.3421019999996133
640,24,0.5,0.0625,-35.0,-1,1.0,5.213502000000062
641,24,0.5,1.0,-35.0,-1,1.0,1.5558019999998578
642,24,0.5,0.125,-35.0,-1,1.0,1.467102000000068
643,24,0.5,0.0625,35.0,-1,0.0,0.9560019999998985
644,24,0.5,0.25,-35.0,-1,1.0,3.4307019999996555
645,24,0.5,0.0625,-35.0,-1,1.0,0.3263019999994867
646,24,0.5,0.0625,35.0,-1,0.0,2.3609019999998964
647,24,0.5,0.0625,35.0,1,1.0,2.3498020000001816
648,24,0.5,1.0,35.0,1,1.0,0.2613010000000031
649,24,0.5,0.125,-35.0,1,0.0,3.566801999999825
650,24,0.3,0.125,35.0,1,1.0,0.34480200000007244
651,24,0.5,1.0,35.0,1,1.0,0.35690199999999095
652,24,0.5,0.0625,35.0,1,1.0,0.4884019999994962
653,24,0.5,0.0,35.0,-1,0.0,1.613901000000169
654,24,0.5,0.25,35.0,1,1.0,0.4686019999999189
655,24,0.5,0.0,-35.0,-1,1.0,4.0307010000001355
656,24,0.5,0.0625,35.0,1,1.0,0.41540200000008554
657,24,0.5,0.125,35.0,1,1.0,2.0814009999999143
658,24,0.5,0.25,35.0,1,1.0,0.6158019999998032
659,24,0.5,0.125,35.0,1,1.0,0.3446019999996679
660,24,0.5,0.125,35.0,1,1.0,0.279301999999916
661,24,0.5,0.0625,-35.0,1,0.0,1.2484019999997145
662,24,0.5,0.0625,35.0,1,1.0,3.0493020000003526
663,24,0.5,1.0,35.0,1,1.0,0.28540099999963786
664,24,0.5,0.125,35.0,1,1.0,0.326401999999689
665,24,0.5,0.125,-35.0,-1,1.0,3.2485019999999167
666,24,0.5,0.25,-35.0,-1,1.0,1.0764020000001437
667,24,0.5,0.125,35.0,1,1.0,0.5654019999997217
668,24,0.5,0.25,-35.0,-1,1.0,1.4635020000000623
669,24,0.5,1.0,-35.0,-1,1.0,1.6921019999995224
670,24,0.5,0.25,-35.0,-1,1.0,2.7602020000003904
671,24,0.5,0.0625,-35.0,-1,1.0,1.2924020000000382
672,24,0.5,0.125,-35.0,1,0.0,0.28380199999946853
673,24,0.4,0.125,35.0,1,1.0,0.3491020000001299
674,24,0.5,1.0,35.0,1,1.0,0.38740199999983815
675,24,0.5,0.0,35.0,1,1.0,2.1694009999996524
676,24,0.5,1.0,35.0,1,1.0,0.3441020000000208
677,24,0.5,1.0,-35.0,-1,1.0,2.496501999999964
678,24,0.5,0.0625,-35.0,-1,1.0,0.29090099999984886
679,24,0.5,0.0625,-35.0,-1,1.0,1.830300999999963
680,24,0.5,1.0,-35.0,-1,1.0,0.39130100000011225
681,24,0.5,0.0,-35.0,1,0.0,0.7933020000000397
682,24,0.5,0.25,35.0,1,1.0,0.3580019999999422
683,24,0.5,0.125,-35.0,-1,1.0,2.350101999999879
684,24,0.5,0.125,-35.0,-1,1.0,2.0083019999997305
685,24,0.5,0.0625,-35.0,1,0.0,1.2306019999996352
686,24,0.5,0.0,35.0,-1,0.0,0.4684019999995144
687,24,0.5,0.0625,35.0,1,1.0,0.5142009999999573
688,24,0.5,1.0,-35.0,1,0.0,0.9321010000003298
689,24,0.5,0.0,-35.0,1,0.0,6.440802000000076
690,24,0.5,0.125,35.0,1,1.0,4.505701999999928
691,24,0.5,0.125,-35.0,-1,1.0,6.244502000000011
692,24,0.5,0.0,-35.0,-1,1.0,2.2396019999996497
693,24,0.5,0.125,-35.0,1,0.0,1.8752009999998336
694,24,0.6,0.125,35.0,1,1.0,5.039801999999327
695,24,0.5,1.0,-35.0,1,0.0,1.9752009999997426
696,24,0.5,0.25,35.0,1,1.0,7.896801999999752
697,24,0.5,0.0625,35.0,-1,0.0,8.83590200000026
698,24,0.7,0.0625,-35.0,-1,1.0,3.024200999999721
699,24,0.5,1.0,35.0,-1,0.0,3.54960200000005
700,24,0.5,0.125,-35.0,1,0.0,3.777802000000065
701,24,0.5,0.0625,35.0,1,1.0,3.6433019999999487
702,24,0.5,0.125,-35.0,1,0.0,1.2313020000001416
703,24,0.5,0.0625,35.0,-1,0.0,44.1136019999999
704,24,0.5,0.25,35.0,1,1.0,2.5826020000004064
705,24,0.5,0.25,35.0,-1,0.0,13.018201000000317
706,24,0.5,0.0,35.0,-1,0.0,1.6899020000000746
707,24,0.5,0.125,-35.0,-1,1.0,1.0926019999997152
708,24,0.5,0.0625,35.0,1,1.0,0.47340200000007826
709,24,0.5,0.0,-35.0,-1,1.0,13.479501999999684
710,24,0.5,1.0,-35.0,1,0.0,8.077102000000195
711,24,0.5,0.0625,-35.0,1,0.0,21.98270199999979
712,24,0.5,0.25,35.0,1,1.0,12.8216010000001
713,24,0.5,1.0,35.0,1,1.0,6.720902000000024
714,24,0.5,0.25,35.0,1,1.0,1.4587009999995644
715,24,0.5,0.25,35.0,1,1.0,3.437300999999934
716,24,0.5,0.25,35.0,1,1.0,1.6021019999998316
717,24,0.5,1.0,35.0,1,1.0,0.46110200000020996
718,24,0.5,0.125,-35.0,1,0.0,16.869101999999657
719,24,0.5,0.125,35.0,-1,0.0,1.0316009999996822
720,24,0.9,0.125,-35.0,-1,1.0,1.75970099999995
721,24,0.5,1.0,-35.0,1,0.0,5.746001999999407
722,24,0.5,0.0,35.0,-1,0.0,6.206901000000016
723,24,0.5,0.25,-35.0,-1,1.0,23.549101999999948
724,24,0.5,0.125,-35.0,-1,1.0,7.794301999999789
725,24,0.5,0.25,35.0,1,1.0,0.5901020000001154
726,24,0.5,0.25,35.0,1,1.0,0.4180009999995491
727,24,0.5,0.0,35.0,-1,0.0,32.42040199999974
728,24,0.5,0.125,35.0,1,1.0,1.022201999999652
729,24,0.5,0.0625,-35.0,-1,1.0,22.104301999999734
730,24,0.5,0.125,35.0,1,1.0,0.9429010000003473
731,24,0.5,1.0,-35.0,-1,1.0,1.30840199999966
732,24,0.5,1.0,35.0,1,1.0,0.25990200000023833
733,24,0.5,0.125,-35.0,-1,1.0,1.0223019999998542
734,24,0.5,0.125,-35.0,-1,1.0,5.696601999999984
1,25,0.5,0.0625,-35.0,1,0.0,19.1377
2,25,0.5,0.0625,35.0,-1,0.0,1.1870999999999974
3,25,0.5,0.0,35.0,1,1.0,9.072198999999998
4,25,0.5,0.25,35.0,1,1.0,0.4439999999999955
5,25,0.5,0.125,35.0,1,1.0,0.5626999999999995
6,25,0.5,0.125,35.0,1,1.0,0.597299999999997
7,25,0.5,0.0625,-35.0,1,0.0,0.4619989999999916
8,25,0.9,0.0625,-35.0,1,0.0,2.0579990000000024
9,25,0.5,1.0,-35.0,1,0.0,0.11130000000000706
10,25,0.5,0.25,35.0,1,1.0,0.32340000000000657
11,25,0.5,0.0,35.0,1,1.0,0.5913990000000098
12,25,0.5,0.0625,35.0,1,1.0,1.6186990000000065
13,25,0.5,0.25,35.0,1,1.0,0.4161990000000202
14,25,0.5,0.125,35.0,1,1.0,2.8780000000000143
15,25,0.5,0.0,35.0,1,1.0,1.0209000000000117
16,25,0.5,1.0,-35.0,1,0.0,3.4202000000000083
17,25,0.5,0.125,35.0,1,1.0,1.1602000000000032
18,25,0.5,0.0625,-35.0,-1,1.0,1.6737000000000108
19,25,0.5,0.125,-35.0,-1,1.0,1.030600000000021
20,25,0.5,0.0625,35.0,-1,0.0,1.89619900000001
21,25,0.5,0.25,35.0,1,1.0,0.29999999999999716
22,25,0.5,0.25,35.0,1,1.0,0.3481000000000165
23,25,0.5,0.0625,35.0,-1,0.0,1.719699999999989
24,25,0.5,0.125,35.0,1,1.0,0.4072989999999663
25,25,0.5,0.0,-35.0,1,0.0,0.4546999999999741
26,25,0.5,0.25,-35.0,-1,1.0,0.5885999999999854
27,25,0.5,1.0,35.0,1,1.0,0.3551999999999964
28,25,0.5,0.0,35.0,-1,0.0,1.4744989999999802
29,25,0.5,0.0625,-35.0,-1,1.0,2.3057000000000016
30,25,0.5,0.25,-35.0,-1,1.0,0.8418999999999812
31,25,0.5,1.0,35.0,1,1.0,0.33609999999998763
32,25,0.5,0.25,-35.0,-1,1.0,0.5395999999999788
33,25,0.5,1.0,35.0,1,1.0,0.27400000000002933
34,25,0.5,0.125,-35.0,-1,1.0,1.047598999999991
35,25,0.5,0.0,35.0,1,1.0,0.5700999999999965
36,25,0.5,0.25,-35.0,-1,1.0,0.4129000000000076
37,25,0.5,0.25,35.0,1,1.0,0.3230999999999824
38,25,0.5,0.0,35.0,-1,0.0,0.9801989999999989
39,25,0.4,0.0,35.0,-1,0.0,1.733099999999979
40,25,0.5,1.0,35.0,1,1.0,0.2820999999999856
41,25,0.5,0.0,35.0,1,1.0,0.6713000000000022
42,25,0.5,0.0625,-35.0,-1,1.0,0.6422990000000084
43,25,0.5,0.25,-35.0,-1,1.0,1.4201000000000192
44,25,0.5,0.0625,-35.0,-1,1.0,1.2231000000000165
45,25,0.5,1.0,35.0,1,1.0,0.35089999999999577
46,25,0.5,0.25,-35.0,-1,1.0,1.3858999999999924
47,25,0.5,0.0,-35.0,1,0.0,0.3970989999999972
48,25,0.4,0.0,-35.0,-1,1.0,1.4679999999999893
49,25,0.5,1.0,35.0,-1,0.0,0.5255999999999972
50,25,0.5,0.25,35.0,1,1.0,0.3287990000000036
51,25,0.5,0.0,35.0,-1,0.0,0.5398990000000197
52,25,0.5,0.125,-35.0,-1,1.0,1.054399999999987
53,25,0.5,0.125,-35.0,-1,1.0,0.5592000000000041
54,25,0.5,0.0625,35.0,1,1.0,0.407100000000014
55,25,0.5,0.25,35.0,-1,0.0,0.49310000000002674
56,25,0.5,0.125,35.0,1,1.0,0.6186989999999923
57,25,0.5,1.0,-35.0,-1,1.0,0.7232000000000198
58,25,0.5,0.125,35.0,1,1.0,0.34089999999997644
59,25,0.5,0.25,35.0,1,1.0,0.28309999999999036
60,25,0.5,0.0625,35.0,-1,0.0,1.0312999999999874
61,25,0.5,0.25,-35.0,-1,1.0,4.471699999999942
62,25,0.5,1.0,35.0,1,1.0,0.33619999999996253
63,25,0.5,0.25,-35.0,-1,1.0,0.4793990000000008
64,25,0.5,1.0,-35.0,-1,1.0,1.5212999999999965
65,25,0.5,1.0,-35.0,-1,1.0,0.4338999999999942
66,25,0.5,1.0,-35.0,-1,1.0,2.931199999999933
67,25,0.5,0.125,-35.0,-1,1.0,1.8385999999999854
68,25,0.5,0.125,-35.0,1,0.0,0.7330000000000041
69,25,0.3,0.125,-35.0,-1,1.0,0.20929999999998472
70,25,0.5,1.0,35.0,1,1.0,0.30879999999996244
71,25,0.5,0.0625,-35.0,-1,1.0,1.5320990000000165
72,25,0.5,0.0625,-35.0,-1,1.0,0.43669899999997597
73,25,0.5,1.0,35.0,1,1.0,0.3421999999999912
74,25,0.5,0.0625,35.0,-1,0.0,0.17349899999999252
75,25,0.5,0.25,-35.0,-1,1.0,1.891699000000017
76,25,0.5,1.0,-35.0,-1,1.0,0.11559900000003154
77,25,0.5,0.25,-35.0,-1,1.0,0.36889899999994213
78,25,0.5,1.0,-35.0,-1,1.0,0.2892999999999688
79,25,0.5,0.0625,35.0,1,1.0,0.35820000000001073
80,25,0.5,0.0625,35.0,-1,0.0,0.46099900000001526
81,25,0.5,0.0,-35.0,-1,1.0,1.9297999999999433
82,25,0.5,0.25,-35.0,-1,1.0,1.7624989999999912
83,25,0.5,0.25,-35.0,-1,1.0,1.2048000000000343
84,25,0.5,0.25,35.0,1,1.0,0.42500000000001137
85,25,0.5,0.25,-35.0,-1,1.0,0.27420000000000755
86,25,0.5,1.0,35.0,-1,0.0,0.19649900000001708
87,25,0.5,0.125,35.0,1,1.0,0.42119999999994207
88,25,0.5,1.0,35.0,-1,0.0,0.11630000000002383
89,25,0.5,0.25,35.0,1,1.0,0.3586989999999446
90,25,0.5,1.0,35.0,1,1.0,0.3832999999999629
91,25,0.5,0.0,35.0,-1,0.0,0.1967999999999961
92,25,0.5,0.0625,35.0,1,1.0,0.31509899999997515
93,25,0.5,0.0,35.0,-1,0.0,0.21059999999999945
94,25,0.5,0.125,35.0,1,1.0,0.3311999999999671
95,25,0.5,0.0,35.0,1,1.0,2.279200000000003
96,25,0.5,0.125,-35.0,1,0.0,0.5679999999999836
97,25,0.7,0.125,-35.0,-1,1.0,1.7019999999999982
98,25,0.5,1.0,-35.0,-1,1.0,0.5885989999999879
99,25,0.5,0.125,35.0,1,1.0,0.7431990000000042
100,25,0.5,0.0625,35.0,-1,0.0,0.47620000000000573
101,25,0.5,0.0625,-35.0,-1,1.0,0.5276989999999842
102,25,0.5,1.0,-35.0,-1,1.0,0.11669899999998279
103,25,0.5,1.0,-35.0,-1,1.0,2.2747999999999706
104,25,0.5,1.0,-35.0,-1,1.0,0.4421989999999596
105,25,0.5,0.25,35.0,1,1.0,0.37479899999993904
106,25,0.5,0.0625,35.0,1,1.0,0.3312999999999988
107,25,0.5,0.25,35.0,-1,0.0,1.2351000000000454
108,25,0.5,0.25,35.0,1,1.0,0.2810000000000059
109,25,0.5,0.125,-35.0,1,0.0,0.41360000000003083
110,25,0.4,0.125,-35.0,-1,1.0,2.128398999999945
111,25,0.5,1.0,-35.0,-1,1.0,0.12149999999996908
112,25,0.5,1.0,-35.0,-1,1.0,0.1654999999999518
113,25,0.5,1.0,-35.0,-1,1.0,0.8987999999999943
114,25,0.5,0.25,35.0,1,1.0,0.29009999999999536
115,25,0.5,1.0,-35.0,-1,1.0,1.8660999999999603
116,25,0.5,1.0,35.0,1,1.0,0.3836000000000013
117,25,0.5,1.0,-35.0,-1,1.0,0.26780000000002246
118,25,0.5,0.25,-35.0,1,0.0,0.38529999999997244
119,25,0.4,0.25,-35.0,1,0.0,0.44729900000004363
120,25,0.5,1.0,35.0,1,1.0,0.3148990000000822
121,25,0.5,0.25,-35.0,-1,1.0,0.853200000000129
122,25,0.5,0.0,35.0,-1,0.0,2.34050000000002
123,25,0.5,0.0625,-35.0,-1,1.0,1.411299999999983
124,25,0.5,0.25,-35.0,-1,1.0,0.46050000000013824
125,25,0.5,1.0,35.0,1,1.0,0.4046000000000731
126,25,0.5,0.0625,-35.0,-1,1.0,0.834699999999998
127,25,0.5,0.125,35.0,1,1.0,0.5206000000000586
128,25,0.5,0.0,-35.0,1,0.0,0.4757000000000744
129,25,0.5,0.0625,35.0,-1,0.0,0.23950000000002092
130,25,0.5,0.0625,35.0,-1,0.0,0.605600000000095
131,25,0.3,0.0625,35.0,1,1.0,0.4138990000001286
132,25,0.5,1.0,35.0,1,1.0,0.4055999999999358
133,25,0.5,0.125,-35.0,-1,1.0,0.5660000000000309
134,25,0.5,0.25,-35.0,-1,1.0,1.390700000000038
135,25,0.5,0.25,35.0,1,1.0,0.8305000000000291
136,25,0.5,0.25,35.0,-1,0.0,0.515299000000141
137,25,0.5,0.0625,-35.0,-1,1.0,0.48840000000006967
138,25,0.5,0.0625,-35.0,-1,1.0,0.703200000000038
139,25,0.5,0.25,-35.0,1,0.0,2.402500000000032
140,25,0.4,0.25,35.0,1,1.0,0.4600000000000364
141,25,0.5,1.0,-35.0,-1,1.0,0.4511999999999716
142,25,0.5,1.0,-35.0,-1,1.0,2.144800000000032
143,25,0.5,0.25,-35.0,-1,1.0,0.4069000000000642
144,25,0.5,0.125,35.0,1,1.0,0.3342000000000098
145,25,0.5,1.0,-35.0,-1,1.0,2.7888000000000375
146,25,0.5,0.0625,35.0,1,1.0,0.38830000000007203
147,25,0.5,0.0,-35.0,-1,1.0,1.3132000000001653
148,25,0.5,1.0,-35.0,-1,1.0,1.1654000000000906
149,25,0.5,0.25,35.0,-1,0.0,2.538499999999999
150,25,0.5,0.25,-35.0,-1,1.0,1.2178990000001022
151,25,0.5,1.0,-35.0,-1,1.0,0.4274000000001479
152,25,0.5,0.0625,35.0,1,1.0,0.3730000000000473
153,25,0.5,0.0,-35.0,-1,1.0,0.7299000000000433
154,25,0.5,0.0625,-35.0,-1,1.0,0.3182000000000471
155,25,0.5,0.25,-35.0,-1,1.0,1.4010000000000673
156,25,0.5,0.0625,35.0,1,1.0,0.39010000000007494
157,25,0.5,1.0,35.0,1,1.0,0.11739999999997508
158,25,0.5,0.125,35.0,1,1.0,0.28160000000002583
159,25,0.5,1.0,-35.0,1,0.0,0.08220000000005712
160,25,0.5,1.0,35.0,1,1.0,0.3464999999999918
161,25,0.5,1.0,35.0,1,1.0,0.354699000000096
162,25,0.5,0.125,35.0,1,1.0,0.3705000000001064
163,25,0.5,1.0,35.0,1,1.0,0.3614989999999807
164,25,0.5,1.0,35.0,1,1.0,0.31899999999996
165,25,0.5,1.0,-35.0,-1,1.0,0.434099999999944
166,25,0.5,0.25,-35.0,1,0.0,0.3325990000000729
167,25,0.5,0.25,35.0,1,1.0,0.3184000000001106
168,25,0.5,0.0,-35.0,-1,1.0,0.3713000000000193
169,25,0.5,0.25,-35.0,1,0.0,0.4375999999999749
170,25,0.8,0.25,-35.0,-1,1.0,0.48910000000000764
171,25,0.5,1.0,-35.0,-1,1.0,0.40449999999998454
172,25,0.5,0.25,-35.0,-1,1.0,0.35789999999997235
173,25,0.5,0.0625,35.0,1,1.0,0.3949000000000069
174,25,0.5,0.125,-35.0,-1,1.0,0.09050000000002001
175,25,0.5,1.0,35.0,1,1.0,0.3487999999999829
176,25,0.5,0.125,-35.0,-1,1.0,0.35589900000002217
177,25,0.5,0.0,35.0,1,1.0,1.6287990000000718
178,25,0.5,0.25,35.0,1,1.0,0.36180000000001655
179,25,0.5,0.0625,-35.0,1,0.0,0.3250990000000229
180,25,0.5,0.25,-35.0,-1,1.0,1.1832000000000562
181,25,0.5,0.0625,35.0,1,1.0,1.6764000000000578
182,25,0.5,1.0,-35.0,-1,1.0,1.4627000000000407
183,25,0.5,1.0,-35.0,-1,1.0,0.5058990000001131
184,25,0.5,1.0,-35.0,-1,1.0,0.6471990000001142
185,25,0.5,0.125,-35.0,-1,1.0,0.6055000000000064
186,25,0.5,1.0,-35.0,-1,1.0,0.4092000000000553
187,25,0.5,0.0,-35.0,-1,1.0,1.7557000000000471
188,25,0.5,0.25,-35.0,-1,1.0,1.16379900000004
189,25,0.5,0.25,-35.0,-1,1.0,0.09750000000008185
190,25,0.5,0.0625,35.0,1,1.0,0.3849000000001297
191,25,0.5,0.125,35.0,-1,0.0,0.1393990000000258
192,25,0.5,0.125,-35.0,-1,1.0,2.070799000000079
193,25,0.5,0.0625,-35.0,-1,1.0,0.4535000000000764
194,25,0.5,0.125,-35.0,-1,1.0,1.6020000000000891
195,25,0.5,0.0625,35.0,-1,0.0,0.49630000000013297
196,25,0.5,0.125,35.0,1,1.0,0.47519999999997253
197,25,0.5,0.125,35.0,-1,0.0,0.43250000000000455
198,25,0.5,0.0625,35.0,1,1.0,0.3623000000001184
199,25,0.5,1.0,-35.0,-1,1.0,2.0890999999999167
200,25,0.5,0.125,-35.0,-1,1.0,0.8391000000000304
201,25,0.5,0.125,-35.0,-1,1.0,1.1361990000000333
202,25,0.5,0.125,35.0,-1,0.0,0.6746000000000549
203,25,0.5,0.125,-35.0,-1,1.0,4.419699000000037
204,25,0.5,0.125,35.0,-1,0.0,0.49519900000007055
205,25,0.5,0.25,35.0,1,1.0,0.36969900000019607
206,25,0.5,0.25,35.0,-1,0.0,0.12000000000011823
207,25,0.5,0.125,-35.0,-1,1.0,1.4347000000000207
208,25,0.5,0.0625,35.0,1,1.0,0.30759900000009566
209,25,0.5,0.0,-35.0,1,0.0,0.4625989999999547
210,25,0.3,0.0,35.0,-1,0.0,1.608400000000188
211,25,0.5,1.0,-35.0,-1,1.0,2.469000000000051
212,25,0.5,0.25,-35.0,-1,1.0,0.3977999999999611
213,25,0.5,1.0,-35.0,-1,1.0,0.6501999999999271
214,25,0.5,0.0625,-35.0,-1,1.0,1.6838000000000193
215,25,0.5,0.0,-35.0,-1,1.0,0.5591000000000577
216,25,0.5,0.125,35.0,1,1.0,0.38790000000005875
217,25,0.5,1.0,-35.0,1,0.0,2.611500000000092
218,25,0.5,0.25,-35.0,-1,1.0,2.220100000000116
219,25,0.5,1.0,-35.0,-1,1.0,0.40209900000013477
220,25,0.5,0.0625,35.0,-1,0.0,0.15450000000009823
221,25,0.5,0.0625,35.0,1,1.0,0.3497989999999618
222,25,0.5,0.25,-35.0,-1,1.0,0.504500000000121
223,25,0.5,0.25,-35.0,-1,1.0,0.161399000000074
224,25,0.5,0.125,35.0,1,1.0,0.5019999999999527
225,25,0.5,0.0,-35.0,-1,1.0,0.6106000000000904
226,25,0.5,0.0,-35.0,-1,1.0,1.6153990000001386
227,25,0.5,0.25,-35.0,-1,1.0,1.936100000000124
228,25,0.5,0.0,-35.0,-1,1.0,0.6214000000001079
229,25,0.5,0.25,35.0,1,1.0,0.3627999999999929
230,25,0.5,0.125,-35.0,-1,1.0,1.1426000000000158
231,25,0.5,0.25,-35.0,-1,1.0,0.3912000000000262
232,25,0.5,1.0,-35.0,-1,1.0,1.0237000000000762
233,25,0.5,1.0,35.0,1,1.0,0.2666990000000169
234,25,0.5,1.0,-35.0,-1,1.0,1.9191990000000487
235,25,0.5,0.125,-35.0,1,0.0,1.0178000000000793
236,25,0.5,0.125,-35.0,1,0.0,2.8843990000000304
237,25,0.5,0.25,35.0,1,1.0,0.36380000000008295
238,25,0.5,0.125,35.0,1,1.0,0.7160990000000993
239,25,0.5,0.25,35.0,1,1.0,0.5683989999999994
240,25,0.5,0.25,35.0,1,1.0,0.5394000000001142
241,25,0.5,0.0,35.0,-1,0.0,0.5851000000000113
242,25,0.5,0.0625,-35.0,-1,1.0,2.4364000000000487
243,25,0.5,1.0,35.0,1,1.0,0.3120000000001255
244,25,0.5,0.125,-35.0,-1,1.0,0.5598000000001093
245,25,0.5,0.0625,-35.0,1,0.0,0.308898999999883
246,25,0.5,0.0625,-35.0,-1,1.0,2.5533000000000357
247,25,0.5,1.0,35.0,1,1.0,0.3790999999998803
248,25,0.5,0.25,35.0,1,1.0,0.3467990000001464
249,25,0.5,0.0625,-35.0,-1,1.0,0.7026999999998225
250,25,0.5,0.125,-35.0,-1,1.0,0.59699999999998
251,25,0.5,0.125,-35.0,-1,1.0,2.3228999999998905
252,25,0.5,0.125,35.0,1,1.0,0.3707000000001699
253,25,0.5,0.25,35.0,-1,0.0,0.21299999999973807
254,25,0.5,0.0,35.0,-1,0.0,2.024099999999862
255,25,0.5,0.0625,35.0,1,1.0,0.40640000000007603
256,25,0.5,0.25,35.0,1,1.0,0.697800000000143
257,25,0.5,0.125,35.0,1,1.0,0.32989999999995234
258,25,0.5,1.0,-35.0,-1,1.0,0.47119900000006965
259,25,0.5,0.0,35.0,1,1.0,0.38329899999985173
260,25,0.5,0.125,-35.0,-1,1.0,0.7111999999997352
261,25,0.5,1.0,35.0,1,1.0,0.33029899999974077
262,25,0.5,0.25,-35.0,-1,1.0,0.44149899999979425
263,25,0.5,0.25,-35.0,-1,1.0,0.3870999999999185
264,25,0.5,0.25,35.0,1,1.0,0.3415989999998601
265,25,0.5,0.0,35.0,-1,0.0,0.543999999999869
266,25,0.5,0.0,35.0,-1,0.0,1.8851989999998295
267,25,0.5,1.0,-35.0,-1,1.0,2.3340999999998076
268,25,0.5,0.25,-35.0,-1,1.0,0.11529999999993379
269,25,0.5,1.0,35.0,1,1.0,0.30439999999975953
270,25,0.5,0.25,-35.0,-1,1.0,0.1821999999997388
271,25,0.5,0.25,35.0,1,1.0,0.45460000000002765
272,25,0.5,0.125,-35.0,-1,1.0,0.4823999999998705
273,25,0.5,0.0625,35.0,1,1.0,0.41469999999981155
274,25,0.5,0.125,-35.0,-1,1.0,0.4724989999997433
275,25,0.5,0.25,-35.0,-1,1.0,0.12160000000017135
276,25,0.5,0.25,35.0,-1,0.0,0.14589900000009948
277,25,0.5,0.25,35.0,1,1.0,0.2683999999999287
278,25,0.5,0.25,-35.0,-1,1.0,0.3994999999999891
279,25,0.5,1.0,-35.0,-1,1.0,1.1751990000000205
280,25,0.5,1.0,35.0,1,1.0,0.31969900000012785
281,25,0.5,1.0,35.0,1,1.0,0.3286999999997988
282,25,0.5,0.0625,35.0,-1,0.0,0.11649999999985994
283,25,0.4,0.0625,-35.0,-1,1.0,3.7753999999999905
284,25,0.5,1.0,35.0,1,1.0,0.2766999999998916
285,25,0.5,0.25,35.0,1,1.0,0.28589999999985594
286,25,0.5,0.25,35.0,1,1.0,0.38679999999976644
287,25,0.5,1.0,-35.0,-1,1.0,0.2058999999999287
288,25,0.5,0.125,35.0,1,1.0,0.3038990000002286
289,25,0.5,1.0,-35.0,-1,1.0,3.049299000000019
290,25,0.5,0.0,-35.0,-1,1.0,3.6338989999999285
291,25,0.5,1.0,35.0,1,1.0,0.28959999999983665
292,25,0.5,0.0625,35.0,1,1.0,0.4309000000000651
293,25,0.5,0.0625,35.0,1,1.0,0.31310000000007676
294,25,0.5,0.125,-35.0,-1,1.0,0.5208999999999833
295,25,0.5,0.0625,35.0,1,1.0,0.5599999999999454
296,25,0.5,1.0,-35.0,-1,1.0,0.12109899999973095
297,25,0.5,0.0625,-35.0,-1,1.0,0.5268999999998414
298,25,0.5,0.0625,-35.0,-1,1.0,0.7114999999998872
299,25,0.5,0.125,35.0,1,1.0,0.34359999999992397
300,25,0.5,0.125,-35.0,-1,1.0,0.10479999999984102
301,25,0.5,0.125,-35.0,-1,1.0,0.10739999999987049
302,25,0.5,0.0625,-35.0,-1,1.0,0.6914999999999054
303,25,0.5,0.25,-35.0,-1,1.0,0.18419999999991887
304,25,0.5,0.125,35.0,-1,0.0,0.6449000000000069
305,25,0.5,0.25,35.0,1,1.0,0.39419999999995525
306,25,0.5,0.0625,35.0,-1,0.0,0.9853989999999158
307,25,0.5,0.25,35.0,1,1.0,0.36429999999995744
308,25,0.5,0.125,35.0,1,1.0,0.4554000000000542
309,25,0.5,0.25,35.0,1,1.0,0.3278989999998885
310,25,0.5,1.0,-35.0,-1,1.0,0.7355999999999767
311,25,0.5,1.0,35.0,1,1.0,0.31789900000012494
312,25,0.5,1.0,-35.0,-1,1.0,0.4755999999999858
313,25,0.5,0.125,-35.0,-1,1.0,2.034900000000107
314,25,0.5,0.0,35.0,-1,0.0,1.6225999999999203
315,25,0.5,0.0,35.0,-1,0.0,0.47509900000000016
316,25,0.5,1.0,-35.0,-1,1.0,1.9728999999999814
317,25,0.5,1.0,-35.0,-1,1.0,0.49530000000004293
318,25,0.5,1.0,35.0,1,1.0,0.4196999999999207
319,25,0.5,1.0,35.0,1,1.0,0.3054999999997108
320,25,0.5,0.0,35.0,1,1.0,0.7364990000000944
321,25,0.5,0.125,-35.0,1,0.0,0.5188999999998032
322,25,0.5,0.125,35.0,1,1.0,0.48369899999988775
323,25,0.5,0.25,-35.0,-1,1.0,1.7590999999999894
324,25,0.5,0.0625,35.0,1,1.0,0.363599000000022
325,25,0.5,0.0625,-35.0,-1,1.0,0.13609999999994216
326,25,0.5,1.0,35.0,1,1.0,0.3138000000001284
327,25,0.5,1.0,35.0,1,1.0,0.429300000000012
328,25,0.5,0.125,-35.0,-1,1.0,2.6141000000000076
329,25,0.5,0.125,35.0,1,1.0,0.34629999999992833
330,25,0.5,1.0,35.0,1,1.0,0.3442000000000007
331,25,0.5,0.0,35.0,-1,0.0,1.1264000000001033
332,25,0.5,0.25,-35.0,-1,1.0,4.65449899999976
333,25,0.5,1.0,-35.0,-1,1.0,0.5300999999999476
334,25,0.5,0.125,35.0,1,1.0,0.36809900000002926
335,25,0.5,1.0,35.0,1,1.0,0.32049899999992704
336,25,0.5,0.0625,-35.0,1,0.0,0.3547000000000935
337,25,0.6,0.0625,-35.0,-1,1.0,2.0639000000001033
338,25,0.5,1.0,-35.0,-1,1.0,0.5081999999997606
339,25,0.5,0.125,35.0,-1,0.0,0.21049999999991087
340,25,0.4,0.125,-35.0,-1,1.0,0.4817999999997937
341,25,0.5,1.0,-35.0,-1,1.0,1.4940999999998894
342,25,0.5,0.25,35.0,1,1.0,0.428798999999799
343,25,0.5,0.0625,-35.0,-1,1.0,0.3976999999997588
344,25,0.5,0.25,-35.0,-1,1.0,1.8554999999996653
345,25,0.5,0.125,35.0,1,1.0,0.3411989999999605
346,25,0.5,1.0,-35.0,-1,1.0,0.5122999999998683
347,25,0.5,0.125,35.0,1,1.0,0.3247989999999845
348,25,0.5,0.0625,35.0,1,1.0,0.32239899999990485
349,25,0.5,0.125,-35.0,-1,1.0,0.6881000000000768
350,25,0.5,0.0625,-35.0,-1,1.0,0.8625989999998183
351,25,0.5,0.25,-35.0,-1,1.0,0.8282000000001517
352,25,0.5,1.0,-35.0,-1,1.0,0.4193999999997686
353,25,0.5,1.0,-35.0,-1,1.0,0.20519999999987704
354,25,0.5,0.0625,35.0,-1,0.0,0.422800000000052
355,25,0.5,0.125,-35.0,-1,1.0,2.3718989999997575
356,25,0.5,0.0625,-35.0,-1,1.0,2.1398999999998978
357,25,0.5,0.25,-35.0,-1,1.0,0.43229999999994106
358,25,0.5,0.125,-35.0,-1,1.0,0.9832999999998719
359,25,0.5,0.125,-35.0,-1,1.0,0.535799999999881
360,25,0.5,0.25,35.0,1,1.0,0.3503000000000611
361,25,0.5,0.0,-35.0,-1,1.0,1.3658989999998994
362,25,0.5,0.125,-35.0,1,0.0,0.1937000000000353
363,25,0.5,0.0625,35.0,1,1.0,0.3127999999999247
364,25,0.5,0.125,-35.0,-1,1.0,0.953899999999976
365,25,0.5,1.0,-35.0,-1,1.0,0.7395999999998821
366,25,0.5,0.125,35.0,1,1.0,0.35410000000001673
367,25,0.5,0.25,35.0,-1,0.0,0.18970000000012988
368,25,0.5,0.0625,35.0,1,1.0,0.4576999999999316
369,25,0.5,0.0,35.0,-1,0.0,4.789800000000014
370,25,0.5,0.0,35.0,-1,0.0,5.767998999999918
371,25,0.5,1.0,35.0,1,1.0,0.3837999999998374
372,25,0.5,1.0,-35.0,-1,1.0,2.4617000000000644
373,25,0.5,1.0,-35.0,-1,1.0,0.45379899999988993
374,25,0.5,0.125,-35.0,-1,1.0,0.49499999999989086
375,25,0.5,0.25,35.0,1,1.0,0.3273999999998978
376,25,0.5,0.25,-35.0,-1,1.0,0.7586999999998625
377,25,0.5,0.25,35.0,1,1.0,0.5009000000000015
378,25,0.5,1.0,-35.0,-1,1.0,0.3552990000000591
379,25,0.5,0.25,35.0,1,1.0,0.3610999999998512
380,25,0.5,0.0,35.0,-1,0.0,0.5021999999999025
381,25,0.4,0.0,-35.0,-1,1.0,2.0614000000000487
382,25,0.5,1.0,-35.0,-1,1.0,2.1056989999997313
383,25,0.5,0.125,35.0,-1,0.0,5.958098999999947
384,25,0.5,0.0625,35.0,-1,0.0,0.45610000000010587
385,25,0.5,0.0625,-35.0,-1,1.0,0.37849999999980355
386,25,0.5,0.125,35.0,1,1.0,0.369698999999855
387,25,0.5,0.0625,35.0,1,1.0,0.7119999999999891
388,25,0.5,0.25,35.0,1,1.0,0.343199999999797
389,25,0.5,0.0625,-35.0,-1,1.0,0.5189000000000306
390,25,0.5,0.25,-35.0,-1,1.0,0.5463999999999487
391,25,0.5,0.0625,-35.0,-1,1.0,2.7623989999999594
392,25,0.5,1.0,-35.0,-1,1.0,0.6636000000000877
393,25,0.5,0.0,35.0,-1,0.0,3.309099999999944
394,25,0.3,0.0,-35.0,-1,1.0,2.0204000000001088
395,25,0.5,1.0,-35.0,-1,1.0,0.6759999999999309
396,25,0.5,1.0,35.0,1,1.0,0.32039899999995214
397,25,0.5,0.0625,-35.0,-1,1.0,0.256298999999899
398,25,0.5,0.25,35.0,1,1.0,0.2740999999998621
399,25,0.5,0.125,-35.0,-1,1.0,1.893100000000004
400,25,0.5,0.125,35.0,1,1.0,0.30749999999989086
401,25,0.5,1.0,35.0,1,1.0,0.33679899999992813
402,25,0.5,0.0625,35.0,1,1.0,0.46099900000012894
403,25,0.5,0.0625,35.0,-1,0.0,0.4533999999998741
404,25,0.5,0.25,35.0,1,1.0,0.28119999999989886
405,25,0.5,0.25,35.0,1,1.0,0.3772000000001299
406,25,0.5,0.0625,-35.0,-1,1.0,0.6345999999998639
407,25,0.5,0.0625,-35.0,-1,1.0,0.3239000000000942
408,25,0.5,0.25,-35.0,-1,1.0,0.8514999999997599
409,25,0.5,1.0,-35.0,-1,1.0,0.23070000000006985
410,25,0.5,0.25,35.0,-1,0.0,0.45839999999998327
411,25,0.5,0.25,35.0,1,1.0,0.32389999999986685
412,25,0.5,0.125,35.0,1,1.0,0.4085989999998674
413,25,0.5,0.125,-35.0,-1,1.0,0.8378000000000156
414,25,0.5,1.0,35.0,1,1.0,0.2720999999999094
415,25,0.5,0.25,35.0,1,1.0,0.647899999999936
416,25,0.5,0.0,35.0,-1,0.0,2.1489999999998872
417,25,0.5,0.125,35.0,1,1.0,0.2912989999997535
418,25,0.5,0.25,35.0,1,1.0,0.5757989999997335
419,25,0.5,0.0625,35.0,1,1.0,0.394800000000032
420,25,0.5,0.25,-35.0,-1,1.0,0.12259899999980917
421,25,0.5,0.0,35.0,-1,0.0,0.524900000000116
422,25,0.5,0.0625,-35.0,-1,1.0,0.5261999999997897
423,25,0.5,1.0,-35.0,-1,1.0,1.1484989999999016
424,25,0.5,1.0,-35.0,-1,1.0,2.283200000000079
425,25,0.5,0.25,35.0,1,1.0,0.3920999999998003
426,25,0.5,0.125,-35.0,-1,1.0,0.6798989999999776
427,25,0.5,0.25,35.0,1,1.0,0.44899999999984175
428,25,0.5,1.0,35.0,1,1.0,0.29989999999975225
429,25,0.5,0.0625,35.0,-1,0.0,0.5890999999999167
430,25,0.5,0.125,35.0,1,1.0,0.32349999999996726
431,25,0.5,0.25,-35.0,-1,1.0,0.5125000000000455
432,25,0.5,0.125,-35.0,-1,1.0,0.107099000000062
433,25,0.5,0.0625,35.0,1,1.0,0.3027999999999338
434,25,0.5,0.0625,35.0,-1,0.0,0.6038999999998396
435,25,0.5,0.125,35.0,1,1.0,0.36959999999999127
436,25,0.5,0.125,35.0,-1,0.0,1.8005990000001475
437,25,0.5,0.25,-35.0,-1,1.0,25.77989999999977
438,25,0.5,0.25,-35.0,-1,1.0,2.638300000000072
439,25,0.5,1.0,-35.0,-1,1.0,5.543800000000147
440,25,0.5,0.0,35.0,-1,0.0,5.291999999999916
441,25,0.5,0.0625,-35.0,1,0.0,2.3375999999998385
442,25,0.3,0.0625,35.0,1,1.0,9.858899999999949
443,25,0.5,1.0,-35.0,1,0.0,8.744899999999916
444,25,0.5,0.0625,35.0,1,1.0,10.22939899999983
445,25,0.5,1.0,35.0,1,1.0,0.2651989999999387
446,25,0.5,0.25,-35.0,1,0.0,4.8064999999999145
447,25,0.5,0.0625,-35.0,-1,1.0,38.27220000000011
448,25,0.5,1.0,-35.0,-1,1.0,5.920898999999963
449,25,0.5,0.0625,35.0,1,1.0,0.3467999999998028
450,25,0.5,0.25,35.0,1,1.0,0.22109999999997854
451,25,0.5,1.0,35.0,1,1.0,0.2768999999998414
452,25,0.5,0.125,-35.0,-1,1.0,20.268098999999893
453,25,0.5,0.125,-35.0,-1,1.0,0.48080000000004475
454,25,0.5,0.25,-35.0,1,0.0,6.121899999999869
455,25,0.5,0.0625,35.0,1,1.0,0.3410999999998694
456,25,0.5,0.125,35.0,1,1.0,0.31559999999990396
457,25,0.5,0.0625,-35.0,-1,1.0,18.344700000000103
1,26,0.5,0.0625,35.0,1,1.0,0.6646999999999998
2,26,0.5,0.0,35.0,-1,0.0,3.1798009999999994
3,26,0.5,0.0625,35.0,1,1.0,0.692501
4,26,0.5,0.0625,35.0,1,1.0,0.987401000000002
5,26,0.5,0.25,-35.0,-1,1.0,1.7188009999999991
6,26,0.5,0.0625,-35.0,-1,1.0,0.5469009999999983
7,26,0.5,0.25,-35.0,-1,1.0,0.4001010000000029
8,26,0.5,0.25,-35.0,-1,1.0,0.6230000000000011
9,26,0.5,0.25,-35.0,-1,1.0,0.5217010000000002
10,26,0.5,0.25,-35.0,-1,1.0,0.4527009999999976
11,26,0.5,1.0,35.0,1,1.0,0.2947009999999963
12,26,0.5,0.125,35.0,1,1.0,0.3487999999999971
13,26,0.5,1.0,35.0,1,1.0,0.3692009999999968
14,26,0.5,0.0,-35.0,-1,1.0,1.2515009999999904
15,26,0.5,0.0,-35.0,-1,1.0,1.2744009999999975
16,26,0.5,0.0,-35.0,-1,1.0,0.7783009999999919
17,26,0.5,1.0,-35.0,-1,1.0,0.9020009999999985
18,26,0.5,0.0,35.0,-1,0.0,1.2011010000000084
19,26,0.5,0.0,-35.0,-1,1.0,0.5576000000000079
20,26,0.5,0.25,-35.0,-1,1.0,0.3553010000000114
21,26,0.5,0.125,-35.0,-1,1.0,0.5730999999999966
22,26,0.5,0.25,35.0,-1,0.0,0.45000100000001453
23,26,0.1,0.25,35.0,1,1.0,0.2781010000000066
24,26,0.5,1.0,-35.0,-1,1.0,0.6800000000000068
25,26,0.5,0.0625,35.0,-1,0.0,0.4163999999999959
26,26,0.5,0.0625,35.0,-1,0.0,3.021601000000004
27,26,0.5,0.0625,-35.0,1,0.0,0.6002000000000152
28,26,0.5,0.0625,35.0,1,1.0,0.3465009999999893
29,26,0.5,1.0,-35.0,-1,1.0,0.30710100000000295
30,26,0.5,1.0,-35.0,-1,1.0,0.49450099999999964
31,26,0.5,0.0625,35.0,-1,0.0,4.2659009999999995
32,26,0.3,0.0625,-35.0,-1,1.0,0.37010100000000534
33,26,0.5,1.0,35.0,1,1.0,0.32909999999998263
34,26,0.5,1.0,35.0,1,1.0,0.3266999999999882
35,26,0.5,1.0,35.0,1,1.0,0.5959009999999978
36,26,0.5,0.125,-35.0,-1,1.0,0.6187010000000157
37,26,0.5,0.0,-35.0,-1,1.0,0.2716000000000065
38,26,0.5,0.125,-35.0,-1,1.0,0.3661999999999921
39,26,0.5,0.0,35.0,1,1.0,0.3167009999999948
40,26,0.5,0.25,35.0,1,1.0,0.632600999999994
41,26,0.5,0.0625,-35.0,1,0.0,2.3670000000000186
42,26,0.5,0.25,-35.0,-1,1.0,1.0985010000000273
43,26,0.5,0.0625,35.0,-1,0.0,0.5609010000000012
44,26,0.5,0.25,35.0,1,1.0,0.2677009999999882
45,26,0.5,0.125,-35.0,-1,1.0,0.45300100000000043
46,26,0.5,0.0625,35.0,-1,0.0,1.1815009999999972
47,26,0.5,0.0,-35.0,1,0.0,0.3336010000000158
48,26,0.5,0.0,-35.0,1,0.0,0.922600999999986
49,26,0.5,1.0,-35.0,-1,1.0,2.090001000000001
50,26,0.5,1.0,-35.0,-1,1.0,0.41420000000002233
51,26,0.5,0.125,-35.0,-1,1.0,0.37470100000001594
52,26,0.5,0.125,35.0,1,1.0,0.33660000000000423
53,26,0.5,1.0,35.0,-1,0.0,0.1298010000000147
54,26,0.5,0.0625,35.0,-1,0.0,0.7674010000000067
55,26,0.5,0.0625,-35.0,-1,1.0,3.27460099999999
56,26,0.5,0.25,35.0,1,1.0,0.32169999999999277
57,26,0.5,0.125,-35.0,-1,1.0,0.4936000000000149
58,26,0.5,0.125,-35.0,-1,1.0,0.4844009999999912
59,26,0.5,0.25,35.0,1,1.0,0.30410100000000284
60,26,0.5,1.0,35.0,1,1.0,0.3243010000000197
61,26,0.5,1.0,-35.0,-1,1.0,1.1286010000000033
62,26,0.5,0.0625,35.0,-1,0.0,0.816001
63,26,0.5,0.0625,35.0,1,1.0,0.35730100000000675
64,26,0.5,0.0625,-35.0,-1,1.0,1.2750010000000032
65,26,0.5,0.125,35.0,1,1.0,0.47710100000000466
66,26,0.5,1.0,-35.0,-1,1.0,0.5427000000000248
67,26,0.5,0.0,-35.0,-1,1.0,0.2721000000000231
68,26,0.5,0.25,35.0,1,1.0,0.28850099999999657
69,26,0.5,0.0,-35.0,1,0.0,0.4408999999999992
70,26,0.5,0.25,35.0,1,1.0,0.34280100000000857
71,26,0.5,0.0625,35.0,1,1.0,0.35620099999999866
72,26,0.5,0.0,35.0,-1,0.0,0.5086009999999419
73,26,0.6,0.0,-35.0,1,0.0,0.4258010000000354
74,26,0.5,1.0,35.0,1,1.0,0.2732009999999718
75,26,0.5,0.0,-35.0,1,0.0,1.09430100000003
76,26,0.5,0.0625,-35.0,-1,1.0,2.723901000000012
77,26,0.5,0.0,-35.0,-1,1.0,1.2107009999999718
78,26,0.5,0.0625,-35.0,-1,1.0,0.3816999999999666
79,26,0.5,0.125,-35.0,-1,1.0,3.8276010000000156
80,26,0.5,1.0,35.0,1,1.0,0.3197009999999523
81,26,0.5,0.0625,35.0,-1,0.0,0.6342000000000212
82,26,0.5,0.125,-35.0,-1,1.0,0.5885010000000079
83,26,0.5,1.0,35.0,1,1.0,0.2821010000000115
84,26,0.5,0.0625,-35.0,-1,1.0,0.4566010000000347
85,26,0.5,0.125,35.0,1,1.0,0.28010100000000193
86,26,0.5,0.0625,35.0,-1,0.0,0.7204009999999812
87,26,0.5,0.25,35.0,1,1.0,0.265199999999993
88,26,0.5,0.25,-35.0,-1,1.0,0.517701000000045
89,26,0.5,0.0625,-35.0,-1,1.0,0.7106999999999744
90,26,0.5,1.0,-35.0,-1,1.0,0.5287010000000123
91,26,0.5,0.25,-35.0,-1,1.0,0.32040000000000646
92,26,0.5,0.0625,-35.0,-1,1.0,0.4334999999999809
93,26,0.5,1.0,35.0,1,1.0,0.4498010000000363
94,26,0.5,1.0,-35.0,-1,1.0,0.46549999999996317
95,26,0.5,0.125,35.0,1,1.0,0.32970000000000255
96,26,0.5,0.125,35.0,1,1.0,0.3471010000000092
97,26,0.5,0.0625,-35.0,1,0.0,0.28410100000002103
98,26,0.5,0.0625,-35.0,-1,1.0,1.7962010000000532
99,26,0.5,0.0625,-35.0,-1,1.0,1.5512009999999918
100,26,0.5,0.125,35.0,1,1.0,0.370001000000002
101,26,0.5,1.0,-35.0,-1,1.0,0.5051000000000272
102,26,0.5,0.25,35.0,1,1.0,0.25320099999999
103,26,0.5,1.0,-35.0,-1,1.0,0.3085010000000352
104,26,0.5,0.125,-35.0,-1,1.0,1.029299999999978
105,26,0.5,0.0625,35.0,1,1.0,0.34950000000003456
106,26,0.5,0.0625,-35.0,-1,1.0,0.8954009999999926
107,26,0.5,1.0,-35.0,-1,1.0,0.40260000000000673
108,26,0.5,1.0,35.0,1,1.0,0.3220010000000002
109,26,0.5,1.0,35.0,1,1.0,0.27960100000001376
110,26,0.5,0.25,35.0,1,1.0,0.28390099999995755
111,26,0.5,0.125,-35.0,-1,1.0,0.3146009999999819
112,26,0.5,0.125,35.0,1,1.0,0.3153010000000336
113,26,0.5,0.125,-35.0,-1,1.0,0.33800100000001976
114,26,0.5,0.0,-35.0,-1,1.0,0.14580000000000837
115,26,0.5,0.0,-35.0,-1,1.0,0.4034009999999739
116,26,0.5,0.0625,-35.0,-1,1.0,0.24210099999999102
117,26,0.5,1.0,35.0,1,1.0,0.384399999999971
118,26,0.5,1.0,-35.0,-1,1.0,0.7640010000000075
119,26,0.5,0.0625,35.0,1,1.0,0.3390009999999961
120,26,0.5,0.0625,35.0,1,1.0,0.7928009999999972
121,26,0.5,0.125,35.0,-1,0.0,0.12879999999995562
122,26,0.4,0.125,-35.0,-1,1.0,2.278099999999995
123,26,0.5,1.0,-35.0,-1,1.0,0.425500999999997
124,26,0.5,0.25,35.0,1,1.0,0.3844010000000253
125,26,0.5,1.0,35.0,1,1.0,0.24150100000002794
126,26,0.5,0.125,-35.0,-1,1.0,0.2274009999999862
127,26,0.5,0.0625,-35.0,-1,1.0,2.9363010000000145
128,26,0.5,0.125,35.0,1,1.0,0.2810999999999808
129,26,0.5,0.0625,35.0,1,1.0,0.2570010000000025
130,26,0.5,0.0625,35.0,-1,0.0,0.3702009999999518
131,26,0.5,0.25,35.0,1,1.0,0.283600999999976
132,26,0.5,0.0625,35.0,1,1.0,0.4346010000000433
133,26,0.5,0.0625,35.0,1,1.0,0.2975010000000111
134,26,0.5,0.125,-35.0,1,0.0,0.6891009999999937
135,26,0.5,0.25,-35.0,-1,1.0,2.1969000000000847
136,26,0.5,0.125,-35.0,-1,1.0,0.4354999999999336
137,26,0.5,1.0,-35.0,-1,1.0,0.3710999999999558
138,26,0.5,0.0,35.0,-1,0.0,2.1172010000000228
139,26,0.5,0.0,-35.0,1,0.0,0.5135999999999967
140,26,0.5,0.0,-35.0,-1,1.0,0.46050099999990834
141,26,0.5,0.125,35.0,1,1.0,0.3803009999999176
142,26,0.5,0.125,-35.0,-1,1.0,0.4107999999999947
143,26,0.5,1.0,-35.0,-1,1.0,0.314899999999966
144,26,0.5,1.0,35.0,1,1.0,0.2864009999999553
145,26,0.5,0.125,-35.0,-1,1.0,0.8511009999999715
146,26,0.5,0.0625,35.0,1,1.0,0.4613010000000486
147,26,0.5,1.0,35.0,1,1.0,0.34100100000000566
148,26,0.5,1.0,-35.0,-1,1.0,0.43050099999993563
149,26,0.5,0.125,35.0,1,1.0,0.13430099999993672
150,26,0.5,0.125,-35.0,-1,1.0,1.6942009999999073
151,26,0.5,0.125,35.0,1,1.0,0.4399009999998498
152,26,0.5,1.0,35.0,1,1.0,0.3585999999999103
153,26,0.5,0.125,-35.0,-1,1.0,0.8923009999999749
154,26,0.5,1.0,35.0,1,1.0,0.26890099999991435
155,26,0.5,0.25,35.0,1,1.0,0.28509999999994307
156,26,0.5,0.125,-35.0,-1,1.0,0.5660009999999147
157,26,0.5,0.0625,-35.0,1,0.0,0.3141009999999369
158,26,0.5,0.25,35.0,1,1.0,0.251500999999962
159,26,0.5,0.25,35.0,1,1.0,0.27080100000000584
160,26,0.5,1.0,-35.0,-1,1.0,0.47420099999987997
161,26,0.5,1.0,-35.0,-1,1.0,0.7060009999999011
162,26,0.5,0.25,-35.0,-1,1.0,1.8451009999999997
163,26,0.5,1.0,-35.0,-1,1.0,0.8340009999999438
164,26,0.5,0.125,35.0,-1,0.0,0.713600999999926
165,26,0.5,0.125,35.0,1,1.0,0.2785999999999831
166,26,0.5,0.25,35.0,-1,0.0,0.4708010000000513
167,26,0.5,0.125,-35.0,-1,1.0,1.6348010000000386
168,26,0.5,0.125,35.0,-1,0.0,0.5332009999999627
169,26,0.5,0.0,35.0,-1,0.0,2.6744009999998752
170,26,0.5,0.25,-35.0,-1,1.0,0.3773009999998749
171,26,0.5,1.0,35.0,1,1.0,0.29730099999994763
172,26,0.5,1.0,-35.0,-1,1.0,0.8131009999999605
173,26,0.5,0.125,-35.0,-1,1.0,0.278500999999892
174,26,0.5,0.0625,-35.0,-1,1.0,0.6130009999999402
175,26,0.5,0.25,-35.0,-1,1.0,0.405399999999986
176,26,0.5,0.25,-35.0,-1,1.0,0.3976999999998725
177,26,0.5,0.125,35.0,1,1.0,0.32220099999995
178,26,0.5,0.25,35.0,-1,0.0,0.1835009999998647
179,26,0.2,0.25,35.0,1,1.0,0.9717009999999391
180,26,0.5,1.0,35.0,1,1.0,0.3258010000000695
181,26,0.5,1.0,-35.0,-1,1.0,0.32710099999997055
182,26,0.5,0.25,35.0,1,1.0,0.342000999999982
183,26,0.5,0.25,35.0,1,1.0,0.35160099999995964
184,26,0.5,0.0625,35.0,1,1.0,0.3641010000000051
185,26,0.5,0.25,-35.0,-1,1.0,0.6171009999999342
186,26,0.5,1.0,-35.0,-1,1.0,0.4214999999999236
187,26,0.5,0.0625,35.0,1,1.0,0.3382009999999127
188,26,0.5,0.25,-35.0,-1,1.0,0.4069999999999254
189,26,0.5,1.0,-35.0,-1,1.0,0.38520100000005186
190,26,0.5,0.0,35.0,-1,0.0,0.16689999999994143
191,26,0.4,0.0,35.0,1,1.0,0.6722999999999502
192,26,0.5,1.0,-35.0,-1,1.0,0.28910099999984595
193,26,0.5,0.25,-35.0,1,0.0,2.6030009999999493
194,26,0.5,0.0,35.0,-1,0.0,1.9305009999999356
195,26,0.5,0.25,35.0,1,1.0,0.30680099999995036
196,26,0.5,0.25,-35.0,-1,1.0,0.4978009999999813
197,26,0.5,0.25,35.0,1,1.0,0.24650099999996655
198,26,0.5,0.25,-35.0,-1,1.0,0.4208009999999831
199,26,0.5,0.0625,35.0,-1,0.0,0.1950009999999338
200,26,0.5,0.25,-35.0,-1,1.0,0.27290099999993345
201,26,0.5,1.0,-35.0,-1,1.0,0.4575999999999567
202,26,0.5,0.25,-35.0,-1,1.0,1.1359009999999898
203,26,0.5,1.0,35.0,1,1.0,0.46000099999992017
204,26,0.5,0.25,-35.0,-1,1.0,0.17630099999985305
205,26,0.5,0.0,-35.0,-1,1.0,0.4551010000000133
206,26,0.5,0.125,35.0,1,1.0,0.2859010000000808
207,26,0.5,0.25,35.0,1,1.0,0.41990100000009534
208,26,0.5,0.125,35.0,-1,0.0,0.4248010000000022
209,26,0.5,0.0625,-35.0,-1,1.0,0.6523009999998521
210,26,0.5,0.0625,-35.0,-1,1.0,2.266300999999885
211,26,0.5,1.0,35.0,1,1.0,0.32730099999992035
212,26,0.5,0.125,-35.0,-1,1.0,0.7038999999998623
213,26,0.5,0.25,35.0,1,1.0,0.29530099999988124
214,26,0.5,0.125,35.0,1,1.0,0.2922009999999773
215,26,0.5,0.0625,35.0,1,1.0,0.7867999999999711
216,26,0.5,0.25,-35.0,-1,1.0,0.6408009999998967
217,26,0.5,0.25,35.0,1,1.0,0.31329999999991287
218,26,0.5,0.0625,35.0,1,1.0,0.623700999999869
219,26,0.5,0.25,35.0,1,1.0,0.40640099999984614
220,26,0.5,0.25,-35.0,-1,1.0,0.5595010000000684
221,26,0.5,1.0,35.0,1,1.0,0.27300099999990834
222,26,0.5,0.25,-35.0,-1,1.0,0.5183009999999513
223,26,0.5,1.0,35.0,1,1.0,0.4814009999998916
224,26,0.5,0.125,-35.0,-1,1.0,0.7919009999999389
225,26,0.5,0.25,35.0,1,1.0,0.3348009999999704
226,26,0.5,1.0,-35.0,-1,1.0,1.5028999999999542
227,26,0.5,0.0625,-35.0,1,0.0,2.659200999999939
228,26,0.5,0.0,-35.0,-1,1.0,3.5434009999999034
229,26,0.5,0.125,35.0,1,1.0,0.3323009999999158
230,26,0.5,0.0625,-35.0,-1,1.0,0.3623009999998885
231,26,0.5,1.0,35.0,1,1.0,0.2716009999999187
232,26,0.5,0.25,35.0,-1,0.0,0.1444010000000162
233,26,0.5,0.25,-35.0,-1,1.0,0.4899009999998043
234,26,0.5,1.0,-35.0,-1,1.0,0.19140100000004168
235,26,0.5,0.0625,-35.0,-1,1.0,0.44289999999989504
236,26,0.5,0.0,35.0,-1,0.0,0.4673009999999067
237,26,0.5,0.125,35.0,1,1.0,0.41390000000001237
238,26,0.5,0.125,-35.0,-1,1.0,0.29860099999996237
239,26,0.5,0.0625,-35.0,-1,1.0,0.7681010000000015
240,26,0.5,1.0,35.0,1,1.0,0.2898010000000113
241,26,0.5,0.0625,-35.0,-1,1.0,0.2658009999998967
242,26,0.5,0.25,-35.0,-1,1.0,0.22520099999997
243,26,0.5,1.0,35.0,1,1.0,0.3129000000000133
244,26,0.5,1.0,35.0,1,1.0,0.2964009999999462
245,26,0.5,1.0,35.0,-1,0.0,0.20850099999995564
246,26,0.5,0.125,-35.0,-1,1.0,0.6507009999999127
247,26,0.5,1.0,-35.0,-1,1.0,0.5706009999998969
248,26,0.5,0.0625,-35.0,-1,1.0,0.7699999999999818
249,26,0.5,0.0625,35.0,-1,0.0,0.4511009999999942
250,26,0.5,0.125,-35.0,-1,1.0,0.3480009999999538
251,26,0.5,0.0625,-35.0,-1,1.0,0.5129009999999425
252,26,0.5,1.0,-35.0,-1,1.0,0.3565009999999802
253,26,0.5,0.0625,-35.0,-1,1.0,1.6321009999999205
254,26,0.5,0.125,35.0,-1,0.0,0.3897999999999229
255,26,0.5,0.125,35.0,-1,0.0,0.5402010000000246
256,26,0.5,0.25,-35.0,-1,1.0,0.47460099999989325
257,26,0.5,0.0,-35.0,-1,1.0,0.6425009999999247
258,26,0.5,0.0,-35.0,1,0.0,0.2955009999999447
259,26,0.5,0.25,35.0,1,1.0,0.34600000000000364
260,26,0.5,0.25,-35.0,-1,1.0,0.3891009999999824
261,26,0.5,0.0625,35.0,1,1.0,0.2818009999999731
262,26,0.5,0.0625,-35.0,1,0.0,1.0543009999998958
263,26,0.4,0.0625,-35.0,-1,1.0,2.486900999999989
264,26,0.5,1.0,-35.0,-1,1.0,0.44810100000006514
265,26,0.5,0.125,35.0,-1,0.0,0.6837009999999282
266,26,0.5,0.0,-35.0,-1,1.0,0.4773000000000138
267,26,0.5,0.0625,-35.0,-1,1.0,2.968399999999974
268,26,0.5,0.0,-35.0,-1,1.0,0.16430100000002312
269,26,0.5,0.25,-35.0,-1,1.0,0.5952009999998609
270,26,0.5,0.25,-35.0,-1,1.0,0.4276999999999589
271,26,0.5,0.25,35.0,1,1.0,1.2888009999999213
272,26,0.5,0.0625,35.0,1,1.0,1.294499999999971
273,26,0.5,0.25,-35.0,-1,1.0,0.19570099999987178
274,26,0.5,0.125,-35.0,-1,1.0,0.48450000000002547
275,26,0.5,0.125,35.0,1,1.0,0.6157009999999445
276,26,0.5,0.0,35.0,-1,0.0,0.31150099999990744
277,26,0.3,0.0,35.0,-1,0.0,0.4625999999998385
278,26,0.5,1.0,35.0,1,1.0,0.2882009999998445
279,26,0.5,0.0625,-35.0,-1,1.0,0.5093999999999141
280,26,0.5,0.0625,35.0,1,1.0,0.4150009999998474
281,26,0.5,0.125,35.0,-1,0.0,0.5164009999998598
282,26,0.5,0.25,35.0,1,1.0,0.3021009999999933
283,26,0.5,0.125,35.0,-1,0.0,0.6362999999996646
284,26,0.5,0.25,-35.0,1,0.0,0.2854010000000926
285,26,0.5,0.125,35.0,1,1.0,0.38330100000007405
286,26,0.5,1.0,35.0,1,1.0,0.13550099999997656
287,26,0.5,0.125,-35.0,-1,1.0,0.11009999999987485
288,26,0.5,0.25,35.0,1,1.0,0.2758010000000013
289,26,0.5,1.0,-35.0,-1,1.0,0.4602999999999611
290,26,0.5,0.125,35.0,1,1.0,0.3591999999998734
291,26,0.5,0.0625,35.0,1,1.0,0.38380099999994854
292,26,0.5,1.0,-35.0,-1,1.0,0.7760000000000673
293,26,0.5,0.0,35.0,-1,0.0,0.2873010000000704
294,26,0.5,0.0625,35.0,1,1.0,0.47280000000000655
295,26,0.5,0.125,35.0,1,1.0,0.4174009999999271
296,26,0.5,0.25,-35.0,-1,1.0,0.39990099999977247
297,26,0.5,0.125,-35.0,-1,1.0,1.28770099999997
298,26,0.5,0.0625,-35.0,-1,1.0,3.5768000000000484
299,26,0.5,0.0,35.0,-1,0.0,0.49450099999990016
300,26,0.4,0.0,35.0,-1,0.0,1.2169009999997797
301,26,0.5,1.0,35.0,1,1.0,0.32480099999997947
302,26,0.5,0.125,35.0,1,1.0,0.34370100000001
303,26,0.5,1.0,-35.0,-1,1.0,0.36150099999986196
304,26,0.5,0.0625,-35.0,-1,1.0,0.19060099999978775
305,26,0.5,0.25,-35.0,-1,1.0,0.5552009999998972
306,26,0.5,1.0,-35.0,-1,1.0,0.24070000000006075
307,26,0.5,0.0625,-35.0,-1,1.0,1.9619009999996706
308,26,0.5,0.0625,35.0,1,1.0,0.33110099999998965
309,26,0.5,0.25,35.0,1,1.0,0.2855010000000675
310,26,0.5,0.25,35.0,1,1.0,0.2443999999998141
311,26,0.5,0.125,35.0,1,1.0,0.3724009999998543
312,26,0.5,0.0625,-35.0,-1,1.0,0.351399999999785
313,26,0.5,1.0,35.0,1,1.0,0.2591000000002168
314,26,0.5,0.0625,-35.0,-1,1.0,0.39140100000008715
315,26,0.5,0.25,-35.0,-1,1.0,0.785799999999881
316,26,0.5,1.0,-35.0,-1,1.0,0.648401000000149
317,26,0.5,0.125,-35.0,-1,1.0,1.3927009999999882
318,26,0.5,0.0,35.0,-1,0.0,0.9753009999997175
319,26,0.4,0.0,-35.0,-1,1.0,0.539600000000064
320,26,0.5,1.0,35.0,1,1.0,0.3788009999998394
321,26,0.5,1.0,-35.0,-1,1.0,0.40320100000008097
322,26,0.5,0.125,35.0,1,1.0,0.2554010000001199
323,26,0.5,1.0,-35.0,-1,1.0,0.4401009999996859
324,26,0.5,0.125,35.0,1,1.0,0.325601000000006
325,26,0.5,1.0,35.0,1,1.0,0.27030100000001767
326,26,0.5,0.0,-35.0,-1,1.0,0.9993009999998321
327,26,0.5,0.25,-35.0,-1,1.0,0.6271009999998114
328,26,0.5,0.125,-35.0,1,0.0,0.3159009999999398
329,26,0.5,0.25,35.0,1,1.0,0.330400999999938
330,26,0.5,1.0,-35.0,1,0.0,0.5228009999998449
331,26,0.5,0.0,35.0,-1,0.0,0.5707009999998718
332,26,0.5,0.25,-35.0,-1,1.0,1.5864999999998872
333,26,0.5,1.0,35.0,1,1.0,0.2774010000000544
334,26,0.5,0.0625,-35.0,-1,1.0,2.523100999999997
335,26,0.5,1.0,35.0,1,1.0,0.2744000000000142
336,26,0.5,1.0,35.0,1,1.0,0.2967999999998483
337,26,0.5,0.25,-35.0,-1,1.0,0.49120099999981903
338,26,0.5,0.25,35.0,1,1.0,0.8069009999999253
339,26,0.5,0.125,-35.0,-1,1.0,0.3912009999996826
340,26,0.5,1.0,35.0,1,1.0,0.3203009999997448
341,26,0.5,0.0,-35.0,-1,1.0,0.30470100000002276
342,26,0.5,0.125,-35.0,-1,1.0,0.43040099999984704
343,26,0.5,0.0625,35.0,-1,0.0,0.6548999999999978
344,26,0.5,0.125,35.0,-1,0.0,0.694101000000046
345,26,0.5,0.125,35.0,1,1.0,0.5152009999999336
346,26,0.5,0.0,-35.0,-1,1.0,0.4710009999998874
347,26,0.5,0.125,35.0,1,1.0,0.4353009999999813
348,26,0.5,0.25,35.0,1,1.0,0.324301000000105
349,26,0.5,0.25,35.0,1,1.0,0.24220100000002276
350,26,0.5,0.25,-35.0,-1,1.0,0.3845010000000002
351,26,0.5,0.0625,35.0,1,1.0,0.7356009999998605
352,26,0.5,0.0625,-35.0,-1,1.0,0.3446010000000115
353,26,0.5,0.125,-35.0,-1,1.0,0.46240099999977247
354,26,0.5,0.125,-35.0,-1,1.0,0.5650009999999384
355,26,0.5,0.0,-35.0,-1,1.0,1.2660009999999602
356,26,0.5,1.0,-35.0,-1,1.0,0.36150099999986196
357,26,0.5,0.125,35.0,1,1.0,0.3028009999998176
358,26,0.5,0.0625,35.0,1,1.0,0.6318999999998596
359,26,0.5,0.25,-35.0,-1,1.0,1.4295009999998456
360,26,0.5,0.125,-35.0,-1,1.0,0.34540099999981067
361,26,0.5,0.125,-35.0,-1,1.0,0.7831009999999878
362,26,0.5,0.25,35.0,1,1.0,0.23200099999985468
363,26,0.5,0.125,-35.0,-1,1.0,1.4955009999998765
364,26,0.5,0.0,35.0,-1,0.0,0.4801009999998769
365,26,0.5,0.25,-35.0,-1,1.0,0.5091009999998732
366,26,0.5,0.0625,35.0,1,1.0,0.3103009999997539
367,26,0.5,0.25,-35.0,-1,1.0,0.4091009999999642
368,26,0.5,0.25,35.0,1,1.0,0.333800999999994
369,26,0.5,0.0,35.0,-1,0.0,2.3660999999999603
370,26,0.5,0.25,-35.0,1,0.0,0.3807009999998172
371,26,0.5,0.0625,35.0,-1,0.0,0.7262009999999464
372,26,0.4,0.0625,35.0,1,1.0,0.3340009999999438
373,26,0.5,1.0,-35.0,-1,1.0,0.39330100000006496
374,26,0.5,0.0625,-35.0,-1,1.0,0.40760099999988597
375,26,0.5,0.125,35.0,1,1.0,0.26680099999975937
376,26,0.5,0.0625,-35.0,1,0.0,1.7879009999999198
377,26,0.5,0.125,-35.0,-1,1.0,1.7713999999998578
378,26,0.5,0.25,-35.0,1,0.0,0.9037000000000717
379,26,0.5,0.125,35.0,1,1.0,0.30160000000000764
380,26,0.5,0.125,-35.0,-1,1.0,0.5074009999998452
381,26,0.5,0.125,-35.0,-1,1.0,0.4485010000000784
382,26,0.5,0.0,35.0,-1,0.0,0.5942009999998845
383,26,0.5,0.25,35.0,1,1.0,0.3019010000000435
384,26,0.5,0.125,-35.0,-1,1.0,1.5275010000000293
385,26,0.5,1.0,35.0,1,1.0,0.29890099999988706
386,26,0.5,0.0,-35.0,-1,1.0,0.5046010000000933
387,26,0.5,0.125,-35.0,-1,1.0,0.3890010000000075
388,26,0.5,1.0,35.0,1,1.0,0.27810100000010607
389,26,0.5,0.25,35.0,1,1.0,0.37590099999988524
390,26,0.5,0.25,-35.0,-1,1.0,0.4248009999998885
391,26,0.5,0.0625,-35.0,-1,1.0,0.43620000000009895
392,26,0.5,1.0,-35.0,-1,1.0,0.6215009999998529
393,26,0.5,0.0625,-35.0,-1,1.0,0.526100999999926
394,26,0.5,0.0625,-35.0,-1,1.0,0.49850100000003295
395,26,0.5,0.125,-35.0,-1,1.0,0.7797009999999318
396,26,0.5,0.25,-35.0,-1,1.0,0.6253009999998085
397,26,0.5,0.25,35.0,-1,0.0,3.0564999999999145
398,26,0.5,0.25,35.0,1,1.0,0.35570099999995364
399,26,0.5,0.125,-35.0,-1,1.0,0.6702010000001337
400,26,0.5,0.125,35.0,1,1.0,0.2891010000000733
401,26,0.5,0.0,35.0,-1,0.0,0.3501009999999951
402,26,0.5,0.125,-35.0,-1,1.0,0.4827010000001337
403,26,0.5,0.25,-35.0,-1,1.0,0.4371009999999842
404,26,0.5,0.25,35.0,1,1.0,0.252699999999777
405,26,0.5,0.0,-35.0,1,0.0,0.2639009999998052
406,26,0.5,0.25,-35.0,1,0.0,0.3631009999999151
407,26,0.5,0.125,35.0,1,1.0,0.28740099999981794
408,26,0.5,0.0625,35.0,1,1.0,0.36330099999986487
409,26,0.5,0.0,35.0,-1,0.0,3.630800999999792
410,26,0.6,0.0,35.0,-1,0.0,1.1335010000000239
411,26,0.5,1.0,-35.0,-1,1.0,0.49450000000001637
412,26,0.5,0.25,-35.0,-1,1.0,0.3801010000001952
413,26,0.5,0.25,35.0,1,1.0,0.3446999999998752
414,26,0.5,0.25,-35.0,-1,1.0,0.26030100000002676
415,26,0.5,0.25,-35.0,-1,1.0,0.5215010000001712
416,26,0.5,0.0625,-35.0,-1,1.0,2.5106009999999515
417,26,0.5,1.0,35.0,1,1.0,0.3018010000000686
418,26,0.5,0.125,35.0,1,1.0,0.4955009999998765
419,26,0.5,0.0625,35.0,1,1.0,0.5008009999999103
420,26,0.5,1.0,35.0,1,1.0,0.2621000000001459
421,26,0.5,0.0,-35.0,-1,1.0,2.197601000000077
422,26,0.5,1.0,35.0,-1,0.0,0.10869999999999891
423,26,0.5,0.125,-35.0,-1,1.0,0.5113000000001193
424,26,0.5,1.0,35.0,1,1.0,0.3158009999999649
425,26,0.5,1.0,-35.0,-1,1.0,0.43800099999998565
426,26,0.5,0.125,-35.0,-1,1.0,0.9091009999999642
427,26,0.5,0.0625,-35.0,-1,1.0,3.738199999999779
428,26,0.5,0.0625,35.0,-1,0.0,0.5127009999998791
429,26,0.5,0.125,35.0,1,1.0,0.9784009999998489
430,26,0.5,1.0,-35.0,-1,1.0,0.35960099999988415
431,26,0.5,0.0625,35.0,1,1.0,0.3621009999999387
432,26,0.5,0.0625,-35.0,1,0.0,2.176400000000058
433,26,0.5,0.125,35.0,1,1.0,0.3186999999998079
434,26,0.5,0.0,35.0,-1,0.0,0.10000100000002021
435,26,0.5,0.25,35.0,1,1.0,0.2790010000001075
436,26,0.5,1.0,35.0,1,1.0,0.34010099999977683
437,26,0.5,0.25,-35.0,-1,1.0,1.95570100000009
438,26,0.5,0.25,-35.0,-1,1.0,0.5270009999999274
439,26,0.5,0.125,-35.0,-1,1.0,0.5928009999997812
440,26,0.5,0.0625,35.0,-1,0.0,0.3906010000000606
441,26,0.5,0.0625,35.0,1,1.0,0.3730009999999311
442,26,0.5,1.0,35.0,1,1.0,0.29080099999987397
443,26,0.5,1.0,-35.0,-1,1.0,0.39970100000005004
444,26,0.5,1.0,-35.0,-1,1.0,0.5743009999998776
445,26,0.5,0.25,35.0,1,1.0,0.346800999999914
446,26,0.5,0.0625,35.0,-1,0.0,0.49460100000010243
447,26,0.5,0.25,-35.0,-1,1.0,0.37340100000005805
448,26,0.5,0.125,35.0,1,1.0,0.3346999999998843
449,26,0.5,0.0625,35.0,1,1.0,0.3369000000000142
450,26,0.5,0.125,-35.0,-1,1.0,0.3913009999998849
451,26,0.5,1.0,-35.0,-1,1.0,0.49709999999981846
452,26,0.5,1.0,-35.0,-1,1.0,0.3650009999998929
453,26,0.5,0.0,35.0,-1,0.0,0.1973009999999249
454,26,0.3,0.0,35.0,-1,0.0,0.4617009999999482
455,26,0.5,1.0,-35.0,-1,1.0,0.40400099999988015
456,26,0.5,0.25,35.0,1,1.0,0.3154010000000653
457,26,0.5,1.0,-35.0,-1,1.0,0.5044009999999162
458,26,0.5,0.125,-35.0,-1,1.0,0.1587010000000646
459,26,0.5,0.25,35.0,1,1.0,0.3545010000000275
460,26,0.5,0.125,35.0,1,1.0,0.2955999999996948
461,26,0.5,0.125,35.0,1,1.0,0.32120099999997365
462,26,0.5,0.0625,35.0,-1,0.0,0.6257009999997081
463,26,0.4,0.0625,-35.0,-1,1.0,4.771600999999919
464,26,0.5,1.0,-35.0,-1,1.0,0.3559010000001308
465,26,0.5,0.0,35.0,-1,0.0,2.0752010000001064
466,26,0.5,0.25,-35.0,-1,1.0,2.6894009999998616
467,26,0.5,0.25,35.0,1,1.0,0.33210099999973863
468,26,0.5,0.0,-35.0,-1,1.0,0.1529009999999289
469,26,0.5,0.125,-35.0,-1,1.0,0.48880000000008295
470,26,0.5,0.25,35.0,1,1.0,0.3288009999998849
471,26,0.5,0.0,35.0,-1,0.0,3.688999999999851
472,26,0.5,0.0625,35.0,1,1.0,0.4469000000001415
473,26,0.5,1.0,-35.0,-1,1.0,0.22580100000004677
474,26,0.5,0.0625,-35.0,-1,1.0,0.6537010000001828
475,26,0.5,0.0,35.0,1,1.0,0.7258010000000468
476,26,0.5,0.125,35.0,1,1.0,0.6070010000000821
477,26,0.5,1.0,35.0,1,1.0,0.30940099999997983
478,26,0.5,0.0625,-35.0,1,0.0,0.6374000000000706
479,26,0.6,0.0625,-35.0,-1,1.0,2.0264009999998507
480,26,0.5,1.0,-35.0,-1,1.0,0.4076000000000022
481,26,0.5,0.0625,-35.0,-1,1.0,0.14640099999996892
482,26,0.5,0.0,-35.0,-1,1.0,0.44430099999976846
483,26,0.5,0.125,-35.0,1,0.0,1.1110009999999875
484,26,0.5,0.125,35.0,1,1.0,0.33690000000024156
485,26,0.5,0.0,-35.0,-1,1.0,0.4513010000000577
486,26,0.5,0.125,-35.0,-1,1.0,0.7103009999998449
487,26,0.5,1.0,-35.0,-1,1.0,0.3950009999998656
488,26,0.5,0.25,-35.0,-1,1.0,0.38400099999989834
489,26,0.5,0.125,-35.0,-1,1.0,1.1318009999997685
490,26,0.5,1.0,-35.0,-1,1.0,0.8375009999999747
491,26,0.5,0.0625,35.0,-1,0.0,1.2185009999998329
492,26,0.5,0.0625,35.0,1,1.0,0.37750099999993836
493,26,0.5,0.125,35.0,-1,0.0,0.1453999999998814
494,26,0.5,0.25,35.0,1,1.0,0.2744000000000142
495,26,0.5,0.125,-35.0,-1,1.0,0.17570099999988997
496,26,0.5,1.0,35.0,1,1.0,0.29120100000000093
497,26,0.5,0.125,35.0,1,1.0,0.255900999999767
498,26,0.5,0.0625,-35.0,-1,1.0,0.6914010000000417
499,26,0.5,1.0,35.0,1,1.0,0.3392010000002301
500,26,0.5,0.25,-35.0,-1,1.0,0.37170099999980266
501,26,0.5,0.25,35.0,1,1.0,0.289400999999998
502,26,0.5,0.0,-35.0,-1,1.0,0.4251010000000406
503,26,0.5,0.25,35.0,1,1.0,0.28300100000001294
504,26,0.5,1.0,-35.0,-1,1.0,0.5253999999999905
505,26,0.5,0.125,-35.0,-1,1.0,0.4532010000000355
506,26,0.5,0.0,35.0,-1,0.0,0.4587010000000191
507,26,0.5,0.0625,-35.0,-1,1.0,1.8899000000001251
508,26,0.5,0.125,-35.0,-1,1.0,0.5224010000001726
509,26,0.5,0.0,35.0,1,1.0,0.480000999999902
510,26,0.5,0.0,35.0,-1,0.0,0.42580100000009224
511,26,0.3,0.0,35.0,-1,0.0,3.05720099999985
512,26,0.5,1.0,35.0,1,1.0,0.27640100000007806
513,26,0.5,0.0625,35.0,1,1.0,0.5405009999999493
514,26,0.5,0.25,-35.0,-1,1.0,0.806201000000101
515,26,0.5,0.0,-35.0,-1,1.0,2.53750100000002
516,26,0.5,0.0625,-35.0,-1,1.0,0.5499009999998634
517,26,0.5,0.0,-35.0,-1,1.0,1.3411009999997532
518,26,0.5,0.0,-35.0,-1,1.0,0.4104010000000926
519,26,0.5,0.125,-35.0,-1,1.0,0.4045000000000982
520,26,0.5,0.0,35.0,-1,0.0,1.0704000000000633
521,26,0.5,0.125,35.0,1,1.0,0.514801000000034
522,26,0.5,0.0625,35.0,1,1.0,0.3206009999998969
523,26,0.5,0.25,-35.0,1,0.0,0.1849010000000817
524,26,0.5,0.0625,-35.0,-1,1.0,0.5671999999997297
525,26,0.5,1.0,-35.0,-1,1.0,0.5750009999999293
526,26,0.5,1.0,-35.0,-1,1.0,0.667601000000559
527,26,0.5,1.0,35.0,1,1.0,0.27860099999998056
528,26,0.5,1.0,35.0,1,1.0,0.29100100000005114
529,26,0.5,0.125,-35.0,-1,1.0,0.3221010000002025
530,26,0.5,0.0625,-35.0,-1,1.0,0.48460000000022774
531,26,0.5,1.0,-35.0,-1,1.0,0.3888000000001739
532,26,0.5,0.0625,-35.0,-1,1.0,0.38810100000046077
533,26,0.5,1.0,35.0,1,1.0,0.3023009999997157
534,26,0.5,0.0,35.0,1,1.0,0.3415010000003349
535,26,0.5,0.25,-35.0,-1,1.0,0.899300000000494
536,26,0.5,0.25,35.0,1,1.0,0.31490100000019083
537,26,0.5,0.125,35.0,1,1.0,0.31600099999968734
538,26,0.5,1.0,-35.0,-1,1.0,0.3619010000002163
539,26,0.5,0.0,35.0,-1,0.0,2.1731009999998605
540,26,0.5,0.125,-35.0,-1,1.0,0.5655000000001564
541,26,0.5,0.0625,-35.0,-1,1.0,0.3998010000004797
542,26,0.5,0.0625,35.0,-1,0.0,0.36250099999961094
543,26,0.5,0.0625,-35.0,-1,1.0,0.8867009999999027
544,26,0.5,0.0625,35.0,-1,0.0,3.466001000000688
545,26,0.5,0.0,-35.0,-1,1.0,1.4569010000000162
546,26,0.5,1.0,-35.0,-1,1.0,0.41620100000000093
547,26,0.5,0.25,35.0,1,1.0,0.4172009999997499
548,26,0.5,0.0625,35.0,1,1.0,0.2830000000003565
549,26,0.5,1.0,-35.0,-1,1.0,0.44080099999973754
550,26,0.5,0.125,-35.0,-1,1.0,0.4565010000001166
551,26,0.5,0.125,-35.0,-1,1.0,0.40420099999982995
552,26,0.5,0.0625,35.0,1,1.0,0.40440099999977974
553,26,0.5,0.0625,-35.0,1,0.0,1.3778010000000904
554,26,0.4,0.0625,35.0,1,1.0,0.3434010000005401
555,26,0.5,1.0,-35.0,-1,1.0,0.38140100000009625
556,26,0.5,0.0625,35.0,1,1.0,0.3236010000000533
557,26,0.5,0.125,35.0,1,1.0,0.35490100000015445
558,26,0.5,0.125,-35.0,-1,1.0,1.987301000000116
559,26,0.5,0.0625,-35.0,-1,1.0,0.3783010000001923
560,26,0.5,0.0,-35.0,-1,1.0,0.44430099999999584
561,26,0.5,0.0625,35.0,1,1.0,0.37520000000040454
562,26,0.5,0.0625,-35.0,-1,1.0,0.2575010000000475
563,26,0.5,0.125,35.0,1,1.0,0.4122010000000955
564,26,0.5,1.0,-35.0,1,0.0,0.6077010000003611
565,26,0.5,0.0625,-35.0,-1,1.0,0.43870099999958256
566,26,0.5,0.125,-35.0,-1,1.0,0.43120100000032835
567,26,0.5,0.125,35.0,1,1.0,0.39920100000017555
568,26,0.5,0.125,-35.0,-1,1.0,0.6016010000003007
569,26,0.5,0.25,-35.0,-1,1.0,0.369300999999723
570,26,0.5,0.0625,-35.0,-1,1.0,0.4349010000000817
571,26,0.5,0.0625,35.0,1,1.0,0.3360010000001239
572,26,0.5,0.125,-35.0,-1,1.0,0.10520100000030652
573,26,0.5,1.0,35.0,1,1.0,0.28620000000046275
574,26,0.5,1.0,35.0,1,1.0,0.3320010000002185
575,26,0.5,0.125,35.0,1,1.0,0.33320099999991726
576,26,0.5,0.25,35.0,1,1.0,0.24200100000007296
577,26,0.5,1.0,-35.0,-1,1.0,0.589900999999827
578,26,0.5,0.0,35.0,-1,0.0,0.4026010000002316
579,26,0.5,0.0625,-35.0,-1,1.0,0.4067000000000007
580,26,0.5,0.0625,-35.0,-1,1.0,3.1493000000000393
581,26,0.5,0.125,-35.0,-1,1.0,0.9538000000006832
582,26,0.5,1.0,35.0,1,1.0,0.2694010000000162
583,26,0.5,0.0,35.0,1,1.0,0.6037999999998647
584,26,0.5,0.0625,-35.0,-1,1.0,0.40300100000013117
585,26,0.5,1.0,35.0,1,1.0,0.30750100000068414
586,26,0.5,0.0,-35.0,-1,1.0,4.0000010000003385
587,26,0.5,0.125,35.0,-1,0.0,0.13770000000022264
588,26,0.5,0.125,-35.0,-1,1.0,0.40670100000033926
589,26,0.5,0.0625,35.0,-1,0.0,2.9780009999999493
590,26,0.5,0.0625,-35.0,-1,1.0,0.5204010000002199
591,26,0.5,1.0,35.0,1,1.0,0.2815009999999347
592,26,0.5,0.25,-35.0,-1,1.0,1.1906009999997877
593,26,0.5,0.125,35.0,1,1.0,0.338600999999926
594,26,0.5,0.0625,-35.0,1,0.0,0.327701000000161
595,26,0.5,0.125,-35.0,-1,1.0,4.331801000000269
596,26,0.5,0.0,-35.0,-1,1.0,4.807600999999977
597,26,0.5,0.125,-35.0,-1,1.0,1.1021009999999478
598,26,0.5,0.0625,-35.0,-1,1.0,1.6546000000003005
599,26,0.5,0.0625,35.0,-1,0.0,2.7590009999998983
600,26,0.5,0.125,-35.0,-1,1.0,0.48150100000020757
601,26,0.5,0.0625,-35.0,-1,1.0,0.1661010000002534
602,26,0.5,0.0625,-35.0,-1,1.0,0.4252010000000155
603,26,0.5,0.0625,35.0,1,1.0,0.47290000000066357
604,26,0.5,0.25,-35.0,-1,1.0,0.5220009999998183
605,26,0.5,0.25,-35.0,1,0.0,0.13950100000010934
606,26,0.5,0.25,-35.0,-1,1.0,2.9423009999995884
607,26,0.5,0.0625,35.0,1,1.0,0.3300010000002658
608,26,0.5,0.0625,35.0,1,1.0,0.3791010000004462
609,26,0.5,0.25,-35.0,-1,1.0,1.6602010000001428
610,26,0.5,0.25,35.0,1,1.0,0.31579999999985375
611,26,0.5,0.25,-35.0,-1,1.0,0.39019999999982247
612,26,0.5,0.125,-35.0,-1,1.0,0.6427010000002156
613,26,0.5,0.125,-35.0,-1,1.0,0.37710100000003877
614,26,0.5,0.125,-35.0,-1,1.0,0.5728010000002541
615,26,0.5,0.0,-35.0,-1,1.0,1.8805010000000948
616,26,0.5,0.0,-35.0,-1,1.0,0.2332010000000082
617,26,0.5,1.0,35.0,1,1.0,0.2708010000005743
618,26,0.5,0.0625,-35.0,-1,1.0,0.4333010000004833
619,26,0.5,0.125,-35.0,-1,1.0,0.6942009999997936
620,26,0.5,0.0625,35.0,1,1.0,0.2766999999998916
621,26,0.5,0.25,-35.0,-1,1.0,1.4778010000004542
622,26,0.5,0.0625,35.0,1,1.0,0.3403009999997266
623,26,0.5,0.0625,-35.0,-1,1.0,3.1047010000002047
624,26,0.5,1.0,35.0,1,1.0,0.2674010000000635
625,26,0.5,0.125,-35.0,-1,1.0,0.5318010000000868
626,26,0.5,0.0625,35.0,1,1.0,1.3242009999999027
627,26,0.5,0.0625,-35.0,-1,1.0,0.7320010000003094
628,26,0.5,0.0625,35.0,1,1.0,0.3377010000003793
629,26,0.5,0.0625,-35.0,-1,1.0,3.1755010000001676
630,26,0.5,0.25,35.0,1,1.0,0.2880000000000109
631,26,0.5,0.125,-35.0,-1,1.0,1.972501000000193
632,26,0.5,0.25,-35.0,-1,1.0,0.7483010000005379
633,26,0.5,0.0625,35.0,1,1.0,0.30270000000018626
634,26,0.5,0.0625,-35.0,-1,1.0,0.42170000000032815
635,26,0.5,0.0,35.0,-1,0.0,1.1096000000002277
636,26,0.4,0.0,35.0,1,1.0,0.2752010000003793
637,26,0.5,1.0,35.0,1,1.0,0.3563010000002578
638,26,0.5,1.0,35.0,1,1.0,0.2621009999998023
639,26,0.5,0.0625,-35.0,-1,1.0,0.13670100000035745
640,26,0.5,1.0,35.0,1,1.0,0.31240100000013626
641,26,0.5,0.125,-35.0,-1,1.0,0.5534010000001217
642,26,0.5,0.125,-35.0,-1,1.0,0.7958010000002105
643,26,0.5,0.125,-35.0,-1,1.0,0.3534010000003036
644,26,0.5,0.0625,-35.0,-1,1.0,1.4359000000004016
645,26,0.5,0.25,35.0,1,1.0,0.35050100000034945
646,26,0.5,1.0,35.0,1,1.0,0.2960009999997055
647,26,0.5,0.0,-35.0,1,0.0,1.9139009999998962
648,26,0.5,0.0625,-35.0,1,0.0,0.4030999999999949
649,26,0.5,0.125,35.0,1,1.0,0.38750100000015664
650,26,0.5,1.0,-35.0,-1,1.0,0.4831010000002607
651,26,0.5,1.0,35.0,1,1.0,0.2908999999999651
652,26,0.5,0.25,35.0,1,1.0,0.28990100000055463
653,26,0.5,0.125,-35.0,-1,1.0,1.654500999999982
654,26,0.5,0.0625,-35.0,-1,1.0,0.4936010000001261
655,26,0.5,0.125,35.0,1,1.0,0.3447009999999864
656,26,0.5,0.0625,35.0,1,1.0,0.6737010000001646
657,26,0.5,0.0625,35.0,1,1.0,0.3015010000003713
658,26,0.5,0.0625,-35.0,-1,1.0,0.6038000000003194
659,26,0.5,0.0625,35.0,1,1.0,0.3216010000001006
660,26,0.5,1.0,-35.0,-1,1.0,1.8175010000004477
661,26,0.5,0.125,35.0,1,1.0,0.33860100000038074
662,26,0.5,0.0625,-35.0,-1,1.0,0.8978010000000722
663,26,0.5,0.0,-35.0,-1,1.0,0.5254009999998743
664,26,0.5,0.0625,35.0,1,1.0,0.3043999999999869
665,26,0.5,0.0625,-35.0,-1,1.0,0.3923010000007707
666,26,0.5,0.25,35.0,-1,0.0,0.17440099999976155
667,26,0.4,0.25,-35.0,-1,1.0,2.445501000000604
668,26,0.5,1.0,35.0,1,1.0,0.25810100000035163
669,26,0.5,0.0,-35.0,1,0.0,1.939300000000003
670,26,0.4,0.0,-35.0,-1,1.0,0.5951010000003407
671,26,0.5,1.0,35.0,1,1.0,0.26610000000027867
672,26,0.5,1.0,35.0,1,1.0,0.268601000000217
673,26,0.5,0.0625,-35.0,-1,1.0,0.516501000000062
674,26,0.5,0.25,35.0,1,1.0,0.418800000000374
675,26,0.5,1.0,35.0,1,1.0,0.2999009999998634
676,26,0.5,1.0,-35.0,-1,1.0,0.4058010000003378
677,26,0.5,1.0,35.0,1,1.0,0.2569010000001981
678,26,0.5,0.0625,-35.0,-1,1.0,0.4892010000003211
679,26,0.5,0.125,-35.0,-1,1.0,0.8503000000005159
680,26,0.5,0.0,35.0,-1,0.0,3.812901000000238
681,26,0.5,0.25,35.0,1,1.0,0.3307009999998627
682,26,0.5,1.0,-35.0,-1,1.0,0.4930000000003929
683,26,0.5,0.0625,35.0,1,1.0,0.3340999999995802
684,26,0.5,0.125,-35.0,-1,1.0,0.7199000000005071
685,26,0.5,0.125,35.0,1,1.0,0.2908999999999651
686,26,0.5,0.25,-35.0,-1,1.0,1.9935009999999238
687,26,0.5,0.125,35.0,1,1.0,0.28110000000015134
688,26,0.5,0.125,35.0,1,1.0,0.38010099999974045
689,26,0.5,0.25,-35.0,-1,1.0,0.15460100000018429
690,26,0.5,0.0,35.0,1,1.0,0.3538000000003194
691,26,0.5,1.0,35.0,1,1.0,0.294901000000209
692,26,0.5,0.25,-35.0,-1,1.0,0.3239010000002054
693,26,0.5,0.0,35.0,-1,0.0,2.3684009999997215
694,26,0.5,0.125,-35.0,-1,1.0,2.1075010000004113
695,26,0.5,0.25,-35.0,-1,1.0,0.40530100000023594
696,26,0.5,1.0,35.0,-1,0.0,0.13790000000017244
697,26,0.5,0.0625,35.0,-1,0.0,2.762300999999752
698,26,0.5,0.125,35.0,1,1.0,0.3447009999999864
699,26,0.5,0.25,-35.0,-1,1.0,0.46250000000009095
700,26,0.5,0.0,35.0,1,1.0,0.2951010000001588
701,26,0.5,0.25,35.0,1,1.0,0.32920000000012806
702,26,0.5,0.125,35.0,1,1.0,0.42840099999966696
703,26,0.5,0.125,-35.0,-1,1.0,0.3762010000000373
704,26,0.5,0.25,35.0,1,1.0,0.2753010000001268
705,26,0.5,0.0625,-35.0,-1,1.0,2.8430010000001857
706,26,0.5,1.0,35.0,1,1.0,0.2586010000004535
707,26,0.5,0.25,35.0,1,1.0,0.3369009999996706
708,26,0.5,0.25,35.0,1,1.0,0.2721000000001368
709,26,0.5,0.0,-35.0,-1,1.0,1.416700000000219
710,26,0.5,1.0,-35.0,-1,1.0,0.4859000000001288
711,26,0.5,0.25,35.0,1,1.0,0.27370100000052844
712,26,0.5,0.25,-35.0,-1,1.0,2.092800999999781
713,26,0.5,0.125,-35.0,-1,1.0,0.9504000000006272
714,26,0.5,0.125,35.0,1,1.0,0.42960100000027523
715,26,0.5,1.0,35.0,1,1.0,0.280601000000388
716,26,0.5,0.125,35.0,1,1.0,0.3631009999999151
717,26,0.5,0.125,35.0,1,1.0,0.3640010000003713
718,26,0.5,1.0,35.0,1,1.0,0.2465009999996255
719,26,0.5,1.0,-35.0,-1,1.0,0.8210009999997965
720,26,0.5,0.0,35.0,1,1.0,3.4133999999999105
721,26,0.5,0.25,-35.0,-1,1.0,5.147801000000527
722,26,0.5,0.125,-35.0,-1,1.0,5.233801000000312
723,26,0.5,0.125,35.0,1,1.0,0.34510099999988597
724,26,0.5,0.125,35.0,1,1.0,0.29750100000046587
725,26,0.5,0.125,35.0,1,1.0,1.1251000000002023
726,26,0.5,0.0625,-35.0,-1,1.0,1.0709009999995942
727,26,0.5,0.25,-35.0,-1,1.0,0.5887010000001283
728,26,0.5,1.0,-35.0,-1,1.0,0.6913010000002942
729,26,0.5,0.125,-35.0,-1,1.0,4.4689009999997324
730,26,0.5,1.0,-35.0,-1,1.0,0.4749010000000453
731,26,0.5,0.125,-35.0,-1,1.0,2.0893009999999776
732,26,0.5,0.25,-35.0,-1,1.0,1.1683010000006107
733,26,0.5,0.0625,-35.0,-1,1.0,1.5193010000002687
734,26,0.5,0.125,35.0,1,1.0,0.3054010000000744
735,26,0.5,1.0,35.0,1,1.0,0.2697010000001683
736,26,0.5,0.0625,-35.0,-1,1.0,0.5987010000003465
737,26,0.5,0.0625,35.0,-1,0.0,1.0930010000006405
738,26,0.2,0.0625,35.0,1,1.0,0.29910100000006423
739,26,0.5,1.0,35.0,1,1.0,0.3133010000001377
740,26,0.5,1.0,-35.0,-1,1.0,0.988901000000169
741,26,0.5,0.25,35.0,1,1.0,0.2835010000003422
742,26,0.5,0.0625,-35.0,-1,1.0,0.7458000000005995
743,26,0.5,0.125,35.0,1,1.0,0.49020000000018626
744,26,0.5,1.0,35.0,1,1.0,0.27919999999994616
745,26,0.5,0.125,-35.0,-1,1.0,1.5603000000000975
746,26,0.5,0.0625,-35.0,-1,1.0,0.9862000000002809
747,26,0.5,0.25,-35.0,-1,1.0,9.224001000000044
748,26,0.5,0.0,35.0,-1,0.0,2.1665010000006077
749,26,0.5,0.25,35.0,1,1.0,0.3744010000000344
750,26,0.5,0.25,-35.0,-1,1.0,1.21670099999983
751,26,0.5,1.0,35.0,1,1.0,0.31459999999970023
752,26,0.5,0.25,35.0,1,1.0,0.4005010000000766
753,26,0.5,1.0,-35.0,-1,1.0,0.951502000000346
754,26,0.5,1.0,-35.0,-1,1.0,0.4671010000001843
755,26,0.5,0.0,35.0,-1,0.0,1.584802000000309
756,26,0.5,0.25,-35.0,-1,1.0,2.2139020000004166
757,26,0.5,0.0625,35.0,1,1.0,0.5651020000000244
758,26,0.5,0.125,-35.0,-1,1.0,1.6709020000002965
759,26,0.5,1.0,35.0,1,1.0,0.2688020000000506
760,26,0.5,0.125,-35.0,1,0.0,0.6644020000003366
761,26,0.5,0.25,35.0,1,1.0,0.2522020000001248
762,26,0.5,1.0,35.0,1,1.0,0.34800200000017867
763,26,0.5,0.25,35.0,1,1.0,0.29570200000034674
764,26,0.5,0.0,35.0,-1,0.0,7.424901000000318
765,26,0.5,0.25,-35.0,1,0.0,6.29290200000014
766,26,0.5,0.0625,35.0,1,1.0,6.4722020000003795
767,26,0.5,0.125,-35.0,-1,1.0,5.56030200000032
768,26,0.5,0.0,35.0,-1,0.0,0.8094020000003184
769,26,0.5,0.125,35.0,-1,0.0,13.023702000000412
770,26,0.5,0.0625,35.0,0,0.0,60.02310200000011
771,26,0.5,0.0,-35.0,-1,1.0,3.175702000000456
772,26,0.5,0.25,35.0,1,1.0,0.32910199999969336
773,26,0.5,1.0,35.0,1,1.0,0.34160100000053717
774,26,0.5,1.0,-35.0,-1,1.0,2.276002000000517
775,26,0.5,0.25,35.0,1,1.0,0.2919019999999364
776,26,0.5,0.125,35.0,1,1.0,0.2761019999998098
777,26,0.5,0.0,-35.0,-1,1.0,6.575401000000511
778,26,0.5,0.25,-35.0,-1,1.0,6.299802000000454
779,26,0.5,0.125,-35.0,-1,1.0,15.045900999999958
780,26,0.5,0.25,35.0,1,1.0,0.32380200000034165
781,26,0.5,0.0625,-35.0,-1,1.0,0.596100999999635
782,26,0.5,0.25,-35.0,-1,1.0,1.1006020000004355
783,26,0.5,0.25,-35.0,-1,1.0,1.549902000000202
784,26,0.5,0.125,-35.0,1,0.0,3.0608020000004217
785,26,0.5,0.0625,35.0,1,1.0,0.4399020000000746
786,26,0.5,0.125,35.0,1,1.0,0.2943019999997887
787,26,0.5,0.0625,-35.0,-1,1.0,3.05360200000041
788,26,0.5,0.0625,35.0,1,1.0,1.2149010000002818
789,26,0.5,0.0625,-35.0,-1,1.0,3.9205010000000584
790,26,0.5,1.0,-35.0,-1,1.0,0.5551020000002609
791,26,0.5,0.125,-35.0,-1,1.0,6.024200999999721
792,26,0.5,0.0625,35.0,1,1.0,0.3454019999999218
793,26,0.5,0.0,35.0,1,1.0,0.8545020000001387
794,26,0.5,0.125,-35.0,-1,1.0,0.6789020000005621
795,26,0.5,0.0,35.0,1,1.0,0.3180019999999786
796,26,0.5,0.25,35.0,1,1.0,0.3091020000001663
797,26,0.5,0.125,35.0,1,1.0,0.271502000000055
798,26,0.5,0.125,-35.0,1,0.0,3.9795020000001387
799,26,0.5,0.125,35.0,1,1.0,0.3849020000006931
800,26,0.5,0.0625,-35.0,-1,1.0,1.1427020000000994
