trial_num,session_num,stim_probability_left,contrast,position,response_choice,trial_correct,reaction_time
1,1,0.2,0.25,-35.0,-1,1.0,0.22049999999999947
2,1,0.2,0.0625,35.0,-1,0.0,1.1572000000000013
3,1,0.2,1.0,35.0,1,1.0,0.21419999999999995
4,1,0.2,0.125,-35.0,-1,1.0,0.08480000000000132
5,1,0.2,0.25,35.0,1,1.0,0.29749999999999943
6,1,0.2,1.0,35.0,1,1.0,0.18880000000000052
7,1,0.2,0.25,35.0,1,1.0,0.31370000000000076
8,1,0.2,0.0,35.0,1,1.0,0.22569999999999624
9,1,0.2,0.0625,35.0,-1,0.0,0.30940000000000367
10,1,0.2,1.0,35.0,1,1.0,0.18939999999999912
11,1,0.2,1.0,35.0,1,1.0,0.20830000000000126
12,1,0.2,1.0,35.0,1,1.0,0.21309999999999718
13,1,0.2,0.25,35.0,1,1.0,0.3155000000000001
14,1,0.2,0.0625,35.0,1,1.0,0.751499999999993
15,1,0.2,0.125,35.0,1,1.0,0.22499999999999432
16,1,0.2,0.0625,35.0,1,1.0,0.2751000000000019
17,1,0.2,1.0,35.0,1,1.0,0.17369999999999663
18,1,0.2,0.125,-35.0,-1,1.0,0.2931999999999917
19,1,0.2,0.125,35.0,1,1.0,0.29410000000000025
20,1,0.2,0.0625,35.0,1,1.0,1.945200000000014
21,1,0.2,0.125,35.0,1,1.0,0.2844999999999942
22,1,0.2,0.0,35.0,-1,0.0,0.26440000000000907
23,1,0.2,0.125,35.0,1,1.0,0.23150000000001114
24,1,0.2,1.0,35.0,1,1.0,0.3097000000000065
25,1,0.2,0.0,35.0,1,1.0,0.2272999999999996
26,1,0.2,0.125,35.0,1,1.0,0.23040000000000305
27,1,0.2,1.0,35.0,1,1.0,0.2354000000000127
28,1,0.2,0.0,35.0,1,1.0,2.511099999999999
29,1,0.2,0.25,35.0,1,1.0,0.20720000000001448
30,1,0.2,0.125,35.0,1,1.0,0.3213000000000079
31,1,0.2,0.0625,35.0,1,1.0,0.2195999999999998
32,1,0.2,0.0625,35.0,1,1.0,0.23780000000000712
33,1,0.2,0.125,35.0,1,1.0,0.27000000000001023
34,1,0.2,0.25,35.0,1,1.0,0.20990000000000464
35,1,0.2,0.25,35.0,1,1.0,0.2536000000000058
36,1,0.2,0.125,35.0,1,1.0,0.22800000000000864
37,1,0.2,0.25,35.0,1,1.0,0.1833000000000169
38,1,0.2,0.0625,-35.0,1,0.0,0.20750000000001023
39,1,0.2,0.125,-35.0,1,0.0,0.2087010000000049
40,1,0.2,0.125,35.0,1,1.0,0.2162009999999981
41,1,0.2,0.0,35.0,1,1.0,0.20100099999999088
42,1,0.2,0.125,-35.0,-1,1.0,0.26610100000000614
43,1,0.2,0.125,35.0,1,1.0,0.9847009999999727
44,1,0.2,1.0,35.0,1,1.0,0.1963010000000054
45,1,0.2,0.125,35.0,1,1.0,0.21730099999999197
46,1,0.2,0.125,-35.0,-1,1.0,0.31410099999999375
47,1,0.2,0.25,35.0,1,1.0,0.2747009999999932
48,1,0.2,0.125,35.0,1,1.0,0.342000999999982
49,1,0.2,0.0,35.0,-1,0.0,0.23560100000000261
50,1,0.2,0.0,35.0,1,1.0,0.18770100000000411
51,1,0.2,0.125,35.0,1,1.0,0.17550099999999702
52,1,0.2,0.125,35.0,1,1.0,0.2555010000000095
53,1,0.2,0.25,35.0,1,1.0,0.2338009999999997
54,1,0.2,0.125,-35.0,-1,1.0,0.3962009999999907
55,1,0.2,1.0,35.0,1,1.0,0.24150099999999952
56,1,0.2,0.125,-35.0,-1,1.0,0.35020099999999843
57,1,0.2,0.25,35.0,1,1.0,0.2572010000000091
58,1,0.2,0.125,35.0,1,1.0,0.21250100000000316
59,1,0.2,0.125,35.0,1,1.0,0.3126010000000008
60,1,0.2,0.0625,35.0,1,1.0,0.19660099999998693
61,1,0.2,0.125,35.0,1,1.0,0.2361009999999908
62,1,0.2,0.125,35.0,1,1.0,0.2145009999999843
63,1,0.2,0.0625,35.0,1,1.0,0.26680100000001516
64,1,0.2,1.0,-35.0,-1,1.0,0.3295009999999934
65,1,0.2,0.0625,35.0,1,1.0,0.2538009999999815
66,1,0.8,0.0,-35.0,1,0.0,0.23110099999999534
67,1,0.8,1.0,-35.0,-1,1.0,0.47360099999997374
68,1,0.8,0.125,-35.0,1,0.0,0.1783010000000047
69,1,0.8,1.0,-35.0,-1,1.0,0.25040099999998233
70,1,0.8,0.0,-35.0,-1,1.0,0.35330099999998765
71,1,0.8,0.0625,-35.0,-1,1.0,4.87220099999999
72,1,0.8,0.25,-35.0,-1,1.0,0.25090099999999893
73,1,0.8,0.125,-35.0,1,0.0,0.192701000000028
74,1,0.8,1.0,-35.0,-1,1.0,0.18920099999999707
75,1,0.8,0.0625,35.0,-1,0.0,0.36030099999996423
76,1,0.8,0.0,-35.0,1,0.0,0.2864010000000121
77,1,0.8,1.0,-35.0,-1,1.0,0.19790100000000166
78,1,0.8,0.0625,-35.0,-1,1.0,1.0360009999999988
79,1,0.8,1.0,-35.0,-1,1.0,0.18160099999997215
80,1,0.8,1.0,-35.0,-1,1.0,0.25740100000001576
81,1,0.8,0.0,-35.0,-1,1.0,2.3397009999999625
82,1,0.8,0.125,-35.0,-1,1.0,0.22950099999997065
83,1,0.8,0.0625,-35.0,-1,1.0,0.2029009999999971
84,1,0.8,0.0625,-35.0,-1,1.0,0.46870100000001
85,1,0.8,0.0625,-35.0,-1,1.0,0.30720099999999206
86,1,0.8,0.125,-35.0,-1,1.0,0.23410099999998124
87,1,0.8,0.0,-35.0,-1,1.0,0.8565009999999802
88,1,0.8,0.25,35.0,1,1.0,0.29110100000002603
89,1,0.8,0.125,-35.0,-1,1.0,0.22880100000003267
90,1,0.8,0.25,35.0,1,1.0,1.570900999999992
91,1,0.8,1.0,-35.0,-1,1.0,0.16730100000000903
92,1,0.8,0.25,-35.0,-1,1.0,0.31750100000004977
93,1,0.8,0.0625,35.0,-1,0.0,0.2816010000000233
94,1,0.8,0.125,35.0,1,1.0,0.2958009999999831
95,1,0.8,0.125,-35.0,-1,1.0,0.25930099999999356
96,1,0.8,1.0,-35.0,-1,1.0,0.1761009999999601
97,1,0.8,0.0,35.0,1,1.0,1.6927009999999996
98,1,0.8,0.25,-35.0,-1,1.0,0.3155009999999834
99,1,0.8,0.25,-35.0,-1,1.0,0.24110100000001466
100,1,0.8,0.25,35.0,1,1.0,0.2979010000000244
101,1,0.8,0.0,-35.0,-1,1.0,0.27840100000003076
102,1,0.8,0.25,-35.0,-1,1.0,0.1938010000000645
103,1,0.8,0.125,-35.0,-1,1.0,0.2454010000000153
104,1,0.8,0.0625,-35.0,1,0.0,0.24360100000006923
105,1,0.8,0.0625,-35.0,-1,1.0,0.22290100000003576
106,1,0.8,0.0625,-35.0,1,0.0,0.3074010000000271
107,1,0.8,0.25,-35.0,-1,1.0,0.3732010000000514
108,1,0.8,0.0,-35.0,-1,1.0,0.21830099999999675
109,1,0.8,0.0,35.0,-1,0.0,0.7746010000000183
110,1,0.8,1.0,35.0,1,1.0,0.20160100000003922
111,1,0.8,0.0,-35.0,1,0.0,0.25170099999996864
112,1,0.8,0.0,35.0,1,1.0,0.4525010000000407
113,1,0.8,0.125,-35.0,-1,1.0,0.32140100000003713
114,1,0.8,0.0,-35.0,1,0.0,2.5736009999999965
115,1,0.8,0.25,35.0,1,1.0,0.20340100000004213
116,1,0.8,1.0,-35.0,-1,1.0,0.18050099999999247
117,1,0.8,1.0,-35.0,-1,1.0,0.23870100000004868
118,1,0.8,1.0,-35.0,-1,1.0,0.2484010000000012
119,1,0.8,0.125,35.0,1,1.0,0.2942010000000437
120,1,0.8,0.0625,-35.0,-1,1.0,0.2651010000000156
121,1,0.8,1.0,-35.0,-1,1.0,0.19630100000006223
122,1,0.8,0.0,-35.0,1,0.0,2.2260009999999966
123,1,0.8,1.0,-35.0,-1,1.0,0.17680100000001175
124,1,0.8,1.0,-35.0,-1,1.0,0.18010100000003604
125,1,0.8,1.0,-35.0,-1,1.0,0.20910099999997556
126,1,0.8,1.0,35.0,1,1.0,0.31330100000002403
127,1,0.8,0.25,-35.0,-1,1.0,0.22930100000002085
128,1,0.2,1.0,35.0,1,1.0,0.15300100000001748
129,1,0.2,0.125,35.0,-1,0.0,0.17360100000007606
130,1,0.2,0.125,35.0,1,1.0,0.2799009999999953
131,1,0.2,0.25,35.0,1,1.0,0.2639010000000326
132,1,0.2,0.0625,35.0,-1,0.0,4.3960010000000125
133,1,0.2,0.125,35.0,1,1.0,0.23830100000009224
134,1,0.2,0.125,35.0,1,1.0,0.1979010000000585
135,1,0.2,0.0625,35.0,1,1.0,0.24330100000003085
136,1,0.2,0.125,35.0,1,1.0,0.25720100000006596
137,1,0.2,1.0,35.0,1,1.0,0.20160100000003922
138,1,0.2,1.0,35.0,1,1.0,0.23080099999998538
139,1,0.2,0.25,35.0,1,1.0,0.19870100000002822
140,1,0.2,0.125,35.0,1,1.0,0.20890100000002576
141,1,0.2,1.0,-35.0,-1,1.0,0.18670100000002776
142,1,0.2,1.0,35.0,1,1.0,0.1900009999999952
143,1,0.2,0.25,35.0,1,1.0,0.15109999999998536
144,1,0.2,0.125,35.0,1,1.0,0.1959009999999921
145,1,0.2,0.0,35.0,1,1.0,0.23590100000001257
146,1,0.2,0.25,35.0,1,1.0,0.21380100000004632
147,1,0.2,1.0,35.0,1,1.0,0.17560100000002876
148,1,0.2,1.0,35.0,1,1.0,0.1355010000000334
149,1,0.8,0.0625,-35.0,1,0.0,0.25860099999999875
150,1,0.8,0.25,35.0,1,1.0,0.18360100000001012
151,1,0.8,1.0,-35.0,1,0.0,0.13650100000000975
152,1,0.8,0.125,-35.0,-1,1.0,0.33450099999998884
153,1,0.8,0.25,-35.0,-1,1.0,0.19350100000002612
154,1,0.8,0.0,-35.0,1,0.0,2.9426010000000247
155,1,0.8,1.0,-35.0,-1,1.0,0.18910099999999375
156,1,0.8,0.0625,-35.0,-1,1.0,0.32430100000004813
157,1,0.8,0.0625,-35.0,-1,1.0,0.14190099999996164
158,1,0.8,1.0,-35.0,-1,1.0,0.25270100000000184
159,1,0.8,0.25,-35.0,-1,1.0,0.29010099999999284
160,1,0.8,0.25,35.0,1,1.0,0.26070100000004004
161,1,0.8,1.0,-35.0,-1,1.0,0.19430100000005268
162,1,0.8,0.0625,-35.0,1,0.0,0.27160099999997556
163,1,0.8,0.125,-35.0,-1,1.0,0.25680099999999584
164,1,0.8,1.0,-35.0,-1,1.0,0.18680100000000266
165,1,0.8,0.0625,-35.0,-1,1.0,0.3586010000000215
166,1,0.8,0.125,-35.0,-1,1.0,0.1870010000000093
167,1,0.8,0.25,-35.0,-1,1.0,0.3701009999999769
168,1,0.8,0.0625,-35.0,-1,1.0,0.3663010000000213
169,1,0.8,1.0,-35.0,-1,1.0,0.17640099999999848
170,1,0.8,0.0625,-35.0,-1,1.0,0.2900009999999611
171,1,0.8,1.0,-35.0,-1,1.0,0.4516010000000392
172,1,0.8,0.0625,-35.0,-1,1.0,0.36420099999998
173,1,0.8,0.125,-35.0,-1,1.0,0.2529010000000653
174,1,0.8,1.0,-35.0,-1,1.0,0.37530100000003586
175,1,0.8,0.0,-35.0,-1,1.0,0.5557009999999991
176,1,0.8,0.25,-35.0,-1,1.0,0.5116010000000415
177,1,0.8,0.25,-35.0,-1,1.0,0.27870099999995546
178,1,0.8,0.25,-35.0,-1,1.0,0.20990099999994527
179,1,0.8,1.0,-35.0,-1,1.0,0.5105009999999766
180,1,0.8,1.0,-35.0,-1,1.0,0.2279009999998607
181,1,0.2,1.0,35.0,1,1.0,0.2757009999999127
182,1,0.2,1.0,35.0,1,1.0,0.21830099999999675
183,1,0.2,0.25,35.0,1,1.0,0.22110099999986232
184,1,0.2,0.25,-35.0,-1,1.0,0.3260010000000193
185,1,0.2,0.25,-35.0,-1,1.0,0.2636009999999942
186,1,0.2,1.0,35.0,1,1.0,0.23230100000000675
187,1,0.2,1.0,35.0,1,1.0,0.20710099999985232
188,1,0.2,0.0,35.0,-1,0.0,0.3162009999999782
189,1,0.2,0.0,35.0,1,1.0,0.2355009999999993
190,1,0.2,1.0,-35.0,1,0.0,0.12010099999997692
191,1,0.2,0.0625,35.0,1,1.0,0.18770100000006096
192,1,0.2,0.0625,-35.0,1,0.0,0.19830100000001494
193,1,0.2,1.0,35.0,1,1.0,0.20660099999997783
194,1,0.2,0.0625,-35.0,1,0.0,0.21460000000001855
195,1,0.2,0.25,35.0,1,1.0,0.1727010000000746
196,1,0.2,0.0625,35.0,1,1.0,0.20180099999993217
197,1,0.2,0.0625,35.0,1,1.0,0.2091009999999187
198,1,0.2,0.0,-35.0,-1,1.0,0.32220099999995
199,1,0.2,0.0625,35.0,-1,0.0,0.48440099999982067
200,1,0.2,1.0,35.0,1,1.0,0.2032009999999218
201,1,0.2,0.125,35.0,1,1.0,0.36990099999991344
202,1,0.2,0.0625,35.0,1,1.0,0.22710099999994782
203,1,0.2,0.25,35.0,1,1.0,0.22660099999995964
204,1,0.2,0.25,35.0,1,1.0,0.23680100000001403
205,1,0.2,0.0625,-35.0,1,0.0,1.0816009999998641
206,1,0.2,1.0,35.0,1,1.0,0.27660100000002785
207,1,0.2,0.125,35.0,1,1.0,0.23020099999996546
208,1,0.2,0.25,35.0,1,1.0,0.1992010000000164
209,1,0.2,1.0,35.0,1,1.0,0.24860099999989416
210,1,0.2,1.0,35.0,1,1.0,0.20880099999999402
211,1,0.2,0.25,35.0,1,1.0,0.38160099999993236
212,1,0.2,0.25,35.0,1,1.0,0.2552010000000564
213,1,0.2,0.0625,35.0,1,1.0,0.33540100000004713
214,1,0.2,0.0,35.0,1,1.0,0.18040099999996073
215,1,0.2,0.125,35.0,1,1.0,0.0943009999999731
216,1,0.2,0.0625,35.0,1,1.0,0.2753010000000131
217,1,0.2,0.0,35.0,1,1.0,0.18670099999997092
218,1,0.2,1.0,35.0,1,1.0,0.1789009999999962
219,1,0.2,0.25,-35.0,-1,1.0,0.4648009999999658
220,1,0.2,0.25,35.0,1,1.0,0.2055009999999129
221,1,0.2,0.125,-35.0,1,0.0,0.24270099999989725
222,1,0.2,0.25,35.0,1,1.0,0.2596009999999751
223,1,0.2,1.0,35.0,1,1.0,0.15780099999994945
224,1,0.2,0.0625,35.0,1,1.0,3.314600999999925
225,1,0.2,1.0,35.0,1,1.0,0.17580099999997856
226,1,0.2,1.0,35.0,1,1.0,0.21670099999994363
227,1,0.2,0.25,35.0,1,1.0,0.18950099999995018
228,1,0.2,0.25,35.0,1,1.0,0.19590100000004895
229,1,0.2,1.0,35.0,1,1.0,0.23020099999996546
230,1,0.2,0.0625,35.0,1,1.0,0.21580099999994218
231,1,0.2,0.25,35.0,1,1.0,0.20060100000000602
232,1,0.2,1.0,-35.0,-1,1.0,0.21970099999998638
233,1,0.2,0.0625,35.0,1,1.0,0.12190099999997983
234,1,0.2,0.25,35.0,1,1.0,0.2051009999998996
235,1,0.2,1.0,35.0,1,1.0,0.24310100000002421
236,1,0.2,0.0,35.0,1,1.0,0.21670100000005732
237,1,0.2,0.0,35.0,1,1.0,0.213600999999926
238,1,0.2,1.0,35.0,1,1.0,0.18170099999997547
239,1,0.2,0.0,35.0,1,1.0,0.17880099999990762
240,1,0.2,0.0625,35.0,1,1.0,0.16740099999992708
241,1,0.2,0.0625,35.0,1,1.0,0.19800099999997656
242,1,0.2,1.0,35.0,1,1.0,0.22240099999999074
243,1,0.8,0.0625,35.0,1,1.0,0.20650100000000293
244,1,0.8,1.0,-35.0,-1,1.0,0.2094009999999571
245,1,0.8,0.25,-35.0,-1,1.0,0.1731009999999742
246,1,0.8,0.25,-35.0,-1,1.0,0.25060099999996055
247,1,0.8,0.125,-35.0,-1,1.0,0.5402009999999109
248,1,0.8,0.0625,-35.0,-1,1.0,0.24840099999994436
249,1,0.8,0.0,-35.0,-1,1.0,0.6479009999999334
250,1,0.8,0.125,-35.0,-1,1.0,0.3079999999999927
251,1,0.8,0.125,-35.0,-1,1.0,0.2196009999998978
252,1,0.8,0.25,-35.0,-1,1.0,0.2511009999999487
253,1,0.8,0.0,-35.0,-1,1.0,0.46220099999993636
254,1,0.8,0.25,-35.0,-1,1.0,0.17540100000007897
255,1,0.8,1.0,-35.0,-1,1.0,0.21210099999996146
256,1,0.8,0.125,-35.0,-1,1.0,0.2816009999999096
257,1,0.8,0.0625,35.0,1,1.0,0.27450099999998656
258,1,0.8,0.0625,-35.0,1,0.0,0.22880099999997583
259,1,0.8,0.0,-35.0,1,0.0,0.2694010000000162
260,1,0.8,0.125,35.0,1,1.0,0.25430099999994127
261,1,0.8,0.25,-35.0,-1,1.0,0.32070099999998547
262,1,0.8,1.0,-35.0,-1,1.0,0.16400099999998474
263,1,0.8,1.0,-35.0,-1,1.0,0.21040099999993345
264,1,0.8,0.125,35.0,1,1.0,0.18860099999994873
265,1,0.8,0.25,-35.0,-1,1.0,0.24430099999995036
266,1,0.8,0.25,-35.0,-1,1.0,0.19060100000001512
267,1,0.8,0.25,-35.0,-1,1.0,0.2029009999999971
268,1,0.8,0.25,-35.0,-1,1.0,0.22300099999984013
269,1,0.8,0.0625,-35.0,-1,1.0,0.22200099999997747
270,1,0.8,0.25,-35.0,-1,1.0,0.20010100000001785
271,1,0.8,0.0625,-35.0,-1,1.0,0.31340099999988524
272,1,0.8,1.0,35.0,1,1.0,0.23510099999998602
273,1,0.8,0.125,35.0,1,1.0,0.25850100000002385
274,1,0.8,1.0,-35.0,-1,1.0,0.1949009999999589
275,1,0.8,0.0625,35.0,1,1.0,0.2719009999999571
276,1,0.8,0.25,-35.0,-1,1.0,0.25810100000001057
277,1,0.8,0.0625,35.0,1,1.0,0.22840099999996255
278,1,0.8,0.0,-35.0,1,0.0,0.29090099999996255
279,1,0.8,0.125,-35.0,-1,1.0,0.16810099999997874
280,1,0.8,0.25,-35.0,-1,1.0,0.26730099999986123
281,1,0.8,0.125,-35.0,-1,1.0,0.23000100000001567
282,1,0.8,0.125,-35.0,-1,1.0,0.24530099999992672
283,1,0.8,0.25,35.0,1,1.0,0.28940099999988433
284,1,0.8,0.0,-35.0,-1,1.0,0.34960100000000693
285,1,0.8,0.125,-35.0,-1,1.0,0.4514010000000326
286,1,0.8,0.0625,35.0,-1,0.0,0.417500999999902
287,1,0.8,0.125,-35.0,-1,1.0,0.24530099999992672
288,1,0.8,0.0625,-35.0,-1,1.0,0.22630099999992126
289,1,0.8,0.0,-35.0,-1,1.0,0.20640099999991435
290,1,0.8,1.0,-35.0,-1,1.0,0.21600100000000566
291,1,0.8,0.125,35.0,-1,0.0,0.42170100000009825
292,1,0.8,0.0625,-35.0,-1,1.0,0.392201
293,1,0.8,0.125,35.0,1,1.0,0.2801009999999451
294,1,0.8,0.0625,-35.0,-1,1.0,0.14330100000006496
295,1,0.8,0.125,-35.0,-1,1.0,0.22910099999990052
296,1,0.8,0.0625,-35.0,-1,1.0,0.2093009999999822
297,1,0.8,1.0,-35.0,-1,1.0,0.21560099999999238
298,1,0.8,0.0,-35.0,1,0.0,0.29290099999991526
299,1,0.8,0.0,-35.0,-1,1.0,0.1328009999999722
300,1,0.8,0.125,-35.0,-1,1.0,0.16630099999997583
301,1,0.8,0.25,-35.0,-1,1.0,0.18870099999992362
302,1,0.8,0.0,35.0,-1,0.0,0.19750099999998838
303,1,0.8,1.0,-35.0,-1,1.0,0.20020099999999275
304,1,0.8,1.0,-35.0,-1,1.0,0.18190099999992526
305,1,0.8,0.0625,-35.0,-1,1.0,2.4021009999999023
306,1,0.8,0.25,35.0,1,1.0,0.22830099999998765
307,1,0.8,0.125,-35.0,-1,1.0,0.3644010000000435
308,1,0.8,1.0,35.0,1,1.0,0.20750099999997929
309,1,0.8,0.125,-35.0,-1,1.0,0.20770100000004277
310,1,0.8,0.25,-35.0,-1,1.0,0.27090099999998074
311,1,0.8,0.125,-35.0,-1,1.0,0.2577009999998836
312,1,0.8,1.0,-35.0,-1,1.0,0.2435010000000375
313,1,0.8,0.0625,-35.0,-1,1.0,0.23230100000000675
314,1,0.8,1.0,-35.0,-1,1.0,0.20000099999992926
315,1,0.8,0.0,-35.0,-1,1.0,0.24920099999997092
316,1,0.8,0.125,-35.0,-1,1.0,0.2881009999999833
317,1,0.8,0.25,35.0,1,1.0,0.28520099999991544
318,1,0.8,1.0,-35.0,-1,1.0,0.18830099999991035
319,1,0.8,0.0,-35.0,-1,1.0,0.28260099999999966
320,1,0.8,1.0,-35.0,-1,1.0,0.16530100000011316
321,1,0.8,1.0,-35.0,-1,1.0,0.213600999999926
322,1,0.8,0.0,-35.0,1,0.0,0.21460099999990234
323,1,0.8,0.25,-35.0,-1,1.0,0.20780100000001767
324,1,0.8,0.125,-35.0,-1,1.0,0.20900099999994382
325,1,0.8,0.0625,-35.0,-1,1.0,0.17430100000001403
326,1,0.8,0.25,-35.0,-1,1.0,0.1933009999999058
327,1,0.8,0.0625,-35.0,-1,1.0,0.4428009999999176
328,1,0.8,0.0625,-35.0,-1,1.0,0.20420100000001185
329,1,0.8,0.25,-35.0,-1,1.0,0.18970100000001366
330,1,0.8,0.0,-35.0,-1,1.0,0.4091009999998505
331,1,0.8,0.25,35.0,-1,0.0,0.4452009999998836
332,1,0.8,0.125,-35.0,-1,1.0,0.40970100000004095
333,1,0.8,0.25,-35.0,-1,1.0,0.18940099999997528
334,1,0.8,1.0,-35.0,-1,1.0,0.16460099999994782
335,1,0.8,0.0625,35.0,-1,0.0,0.1892010000000255
336,1,0.8,0.125,-35.0,-1,1.0,0.12990099999990434
337,1,0.8,0.25,-35.0,-1,1.0,0.2552010000000564
338,1,0.8,0.25,35.0,1,1.0,0.24270100000001094
339,1,0.8,1.0,-35.0,-1,1.0,0.16200099999991835
340,1,0.8,0.125,-35.0,-1,1.0,0.29959999999994125
341,1,0.2,0.0625,-35.0,-1,1.0,0.15350099999989197
342,1,0.2,1.0,35.0,1,1.0,0.23390099999994618
343,1,0.2,0.0625,-35.0,-1,1.0,0.325601000000006
344,1,0.2,1.0,35.0,1,1.0,0.24610099999995327
345,1,0.2,0.0,35.0,-1,0.0,0.23230100000000675
346,1,0.2,1.0,35.0,1,1.0,0.18680099999994582
347,1,0.2,0.0625,35.0,1,1.0,0.24320099999988543
348,1,0.2,0.25,35.0,1,1.0,0.21080099999983304
349,1,0.2,0.0625,35.0,1,1.0,0.20900099999994382
350,1,0.2,1.0,35.0,1,1.0,0.19610099999988506
351,1,0.2,0.125,35.0,1,1.0,0.33570099999985814
352,1,0.2,0.125,35.0,-1,0.0,0.23340099999984432
353,1,0.2,0.125,35.0,1,1.0,0.21570099999996728
354,1,0.2,0.0625,35.0,1,1.0,0.27880099999993035
355,1,0.2,0.0625,35.0,1,1.0,0.10350099999993745
356,1,0.2,0.125,35.0,1,1.0,0.2511009999999487
357,1,0.2,0.0625,35.0,1,1.0,0.2779009999999289
358,1,0.2,0.0625,35.0,-1,0.0,0.2654009999999971
359,1,0.2,0.0625,35.0,1,1.0,0.20160099999998238
360,1,0.2,0.125,35.0,1,1.0,0.20890099999985523
361,1,0.2,1.0,35.0,1,1.0,0.1710009999999329
362,1,0.2,0.125,35.0,1,1.0,0.2875009999999065
363,1,0.2,0.0625,35.0,1,1.0,0.1813009999999622
364,1,0.2,1.0,-35.0,-1,1.0,0.16780099999994036
365,1,0.2,1.0,-35.0,-1,1.0,0.24110099999995782
366,1,0.2,1.0,-35.0,-1,1.0,0.2012009999999691
367,1,0.2,1.0,35.0,1,1.0,0.2152009999999791
368,1,0.2,0.0,35.0,1,1.0,0.1710010000000466
369,1,0.2,1.0,35.0,1,1.0,0.19820100000004004
370,1,0.2,0.0625,35.0,1,1.0,0.18800099999987196
371,1,0.2,0.0625,35.0,1,1.0,0.37150099999996655
372,1,0.2,0.25,-35.0,-1,1.0,0.414801000000125
373,1,0.2,0.125,35.0,1,1.0,0.2319009999998798
374,1,0.2,0.0,35.0,1,1.0,0.21830100000011043
375,1,0.2,1.0,35.0,1,1.0,0.22560100000009697
376,1,0.2,0.0625,35.0,1,1.0,0.23160100000018247
377,1,0.2,0.0625,35.0,1,1.0,0.1986010000002807
378,1,0.2,1.0,35.0,1,1.0,0.2152009999999791
379,1,0.2,0.0625,-35.0,-1,1.0,0.31900100000007114
380,1,0.2,0.0,35.0,1,1.0,0.31870100000014645
381,1,0.2,1.0,35.0,1,1.0,0.10230100000012499
382,1,0.2,0.125,35.0,1,1.0,0.5095010000000002
383,1,0.2,1.0,-35.0,-1,1.0,0.18260099999997692
384,1,0.2,1.0,35.0,1,1.0,0.1888010000000122
385,1,0.2,1.0,-35.0,-1,1.0,0.19560100000012426
386,1,0.8,0.25,-35.0,1,0.0,0.2556010000000697
387,1,0.8,0.0625,-35.0,-1,1.0,0.32240100000012717
388,1,0.8,0.25,-35.0,-1,1.0,0.23240099999998165
389,1,0.8,1.0,-35.0,-1,1.0,0.1761010000002443
390,1,0.8,0.0,-35.0,-1,1.0,0.22930100000030507
391,1,0.8,0.0625,-35.0,-1,1.0,0.23590100000001257
392,1,0.8,0.25,-35.0,-1,1.0,0.2794010000002345
393,1,0.8,0.125,-35.0,-1,1.0,0.23650100000008933
394,1,0.8,0.0625,-35.0,-1,1.0,0.16290100000014718
395,1,0.8,0.0625,-35.0,1,0.0,0.15620100000001003
396,1,0.8,1.0,35.0,1,1.0,0.23990099999991799
397,1,0.8,0.25,35.0,1,1.0,0.289801000000125
398,1,0.8,0.125,-35.0,-1,1.0,0.21970099999998638
399,1,0.8,0.25,-35.0,-1,1.0,0.22650100000009843
400,1,0.8,0.0625,-35.0,-1,1.0,0.33670100000017555
401,1,0.8,0.0625,-35.0,1,0.0,0.6100010000000111
402,1,0.8,0.25,-35.0,-1,1.0,0.4170010000000275
403,1,0.8,0.0,-35.0,1,0.0,0.30090100000006714
404,1,0.8,0.0625,-35.0,-1,1.0,0.35750099999995655
405,1,0.8,1.0,-35.0,-1,1.0,0.3705010000001039
406,1,0.8,1.0,35.0,1,1.0,0.2107010000001992
407,1,0.8,0.0625,-35.0,-1,1.0,0.7306010000002061
408,1,0.8,0.125,-35.0,-1,1.0,0.30090100000006714
409,1,0.8,1.0,-35.0,-1,1.0,0.26060100000017883
410,1,0.8,0.0625,-35.0,1,0.0,0.2674010000000635
411,1,0.8,0.25,-35.0,-1,1.0,0.24470100000007733
412,1,0.8,0.125,-35.0,-1,1.0,0.26420100000018465
413,1,0.8,0.0625,-35.0,-1,1.0,0.2709010000003218
414,1,0.8,0.0,35.0,-1,0.0,0.2975010000000111
415,1,0.8,0.0625,-35.0,-1,1.0,0.2983009999998103
416,1,0.8,0.0,-35.0,-1,1.0,0.26450100000010934
417,1,0.8,0.125,-35.0,-1,1.0,0.24450100000012753
418,1,0.8,0.125,35.0,1,1.0,0.3678010000000995
419,1,0.8,0.25,35.0,1,1.0,0.21790100000021084
420,1,0.8,1.0,35.0,1,1.0,0.2211010000000897
421,1,0.8,0.125,-35.0,-1,1.0,0.3581010000002607
422,1,0.8,0.25,35.0,1,1.0,0.3018010000000686
423,1,0.8,1.0,-35.0,-1,1.0,0.0983009999999922
424,1,0.8,0.0625,35.0,1,1.0,0.23170099999993
425,1,0.8,0.0,-35.0,1,0.0,0.14490100000011807
426,1,0.8,1.0,35.0,1,1.0,0.3586009999999078
427,1,0.8,0.125,-35.0,-1,1.0,0.38160100000004604
428,1,0.8,0.125,-35.0,1,0.0,0.23530100000016319
429,1,0.8,0.0625,-35.0,1,0.0,0.1988010000002305
430,1,0.8,0.25,-35.0,-1,1.0,0.258701000000201
431,1,0.8,0.125,-35.0,-1,1.0,0.17210100000011153
432,1,0.2,0.25,35.0,1,1.0,0.12590100000011262
433,1,0.2,0.25,35.0,1,1.0,0.2291010000001279
434,1,0.2,0.0625,35.0,1,1.0,0.1987010000002556
435,1,0.2,0.25,35.0,1,1.0,0.22880099999997583
436,1,0.2,1.0,35.0,1,1.0,0.2025010000002112
437,1,0.2,0.125,35.0,1,1.0,0.19880100000000311
438,1,0.2,1.0,-35.0,-1,1.0,0.2592010000000755
439,1,0.2,0.0625,35.0,1,1.0,0.22300099999984013
440,1,0.2,1.0,35.0,1,1.0,0.17290100000013808
441,1,0.2,0.0625,35.0,1,1.0,0.19950100000005477
442,1,0.2,0.25,35.0,1,1.0,0.1893009999998867
443,1,0.2,0.25,35.0,1,1.0,0.24620099999992817
444,1,0.2,0.125,35.0,1,1.0,0.20690100000024358
445,1,0.2,0.125,35.0,1,1.0,0.18340100000000348
446,1,0.2,1.0,35.0,1,1.0,0.17330100000026505
447,1,0.2,0.0625,35.0,1,1.0,0.19290099999989252
448,1,0.2,1.0,-35.0,-1,1.0,0.20980099999997037
449,1,0.2,0.0625,35.0,1,1.0,0.1768010000000686
450,1,0.2,0.25,35.0,1,1.0,0.2031010000000606
451,1,0.2,0.25,-35.0,-1,1.0,0.2632010000002083
452,1,0.2,0.125,35.0,1,1.0,0.18330100000002858
453,1,0.2,1.0,-35.0,-1,1.0,0.25680099999999584
454,1,0.2,1.0,35.0,1,1.0,0.18390100000010534
455,1,0.2,0.0625,35.0,1,1.0,0.18700100000023667
456,1,0.2,0.0,-35.0,1,0.0,0.18010099999992235
457,1,0.2,0.0625,35.0,1,1.0,0.20380100000033963
458,1,0.2,0.0,35.0,1,1.0,0.41370099999994636
459,1,0.2,1.0,35.0,1,1.0,0.20060100000000602
460,1,0.2,0.25,35.0,1,1.0,0.14370100000019193
461,1,0.2,0.125,35.0,1,1.0,0.2110010000001239
462,1,0.2,0.0625,35.0,-1,0.0,0.41100100000016937
463,1,0.2,0.0625,35.0,1,1.0,0.15750100000013845
464,1,0.2,0.125,35.0,1,1.0,0.18070100000022649
465,1,0.2,0.125,35.0,1,1.0,0.18100100000015118
466,1,0.2,0.0625,35.0,1,1.0,0.2009010000001581
467,1,0.2,0.25,-35.0,-1,1.0,0.35120100000017374
468,1,0.2,1.0,35.0,1,1.0,0.20780100000024504
469,1,0.2,0.25,35.0,1,1.0,0.20460099999991144
470,1,0.2,0.0625,35.0,1,1.0,0.10090100000002167
471,1,0.2,0.0625,-35.0,-1,1.0,0.3117010000000846
472,1,0.2,0.0625,35.0,1,1.0,0.1845010000001821
473,1,0.2,1.0,35.0,1,1.0,0.2295010000000275
474,1,0.2,0.125,35.0,1,1.0,0.2329010000000835
475,1,0.2,0.0625,35.0,1,1.0,0.1529009999999289
476,1,0.2,1.0,35.0,1,1.0,0.18980100000021594
477,1,0.2,0.125,35.0,1,1.0,0.18990100000019083
478,1,0.2,0.0625,35.0,1,1.0,0.17000100000018392
479,1,0.2,0.0,-35.0,1,0.0,0.18320100000005368
480,1,0.2,0.0,35.0,1,1.0,0.1867010000000846
481,1,0.2,0.25,-35.0,1,0.0,0.21010099999989507
482,1,0.2,0.0,35.0,1,1.0,0.23360100000013517
483,1,0.2,1.0,35.0,1,1.0,0.23370100000011007
484,1,0.2,0.0625,-35.0,1,0.0,0.2069010000000162
485,1,0.2,0.0625,35.0,1,1.0,0.32700099999988197
486,1,0.8,1.0,-35.0,-1,1.0,0.19040100000006532
487,1,0.8,0.125,35.0,1,1.0,0.2672010000003411
488,1,0.8,0.0,-35.0,1,0.0,0.20380100000011225
489,1,0.8,1.0,-35.0,-1,1.0,0.24070099999994454
490,1,0.8,0.25,-35.0,1,0.0,0.2306010000002061
491,1,0.8,1.0,-35.0,-1,1.0,0.3240010000001803
492,1,0.8,0.125,-35.0,1,0.0,0.21080099999994673
493,1,0.8,0.0,35.0,1,1.0,0.22080099999993763
494,1,0.8,0.0,-35.0,1,0.0,0.2775010000002567
495,1,0.8,0.0625,-35.0,1,0.0,0.21090099999992162
496,1,0.8,0.0,-35.0,1,0.0,0.22100099999988743
497,1,0.8,0.25,-35.0,-1,1.0,0.2511010000000624
498,1,0.8,0.0625,-35.0,-1,1.0,0.32770099999993363
499,1,0.8,0.25,-35.0,1,0.0,0.32470100000023194
500,1,0.8,0.0625,35.0,1,1.0,2.2081009999999424
501,1,0.8,0.0625,-35.0,-1,1.0,0.40140100000007806
502,1,0.8,0.0625,-35.0,1,0.0,0.25830100000007405
503,1,0.8,0.25,-35.0,-1,1.0,0.404901000000109
504,1,0.8,0.0625,-35.0,1,0.0,0.2350010000002385
505,1,0.8,0.125,-35.0,-1,1.0,0.38180099999999584
506,1,0.8,0.125,-35.0,-1,1.0,0.47850100000005114
507,1,0.8,0.0625,-35.0,1,0.0,0.2718010000000959
508,1,0.8,0.25,-35.0,-1,1.0,5.488700999999992
509,1,0.8,1.0,-35.0,-1,1.0,0.3221010000002025
510,1,0.8,0.25,35.0,1,1.0,0.23210100000028433
511,1,0.8,0.25,-35.0,-1,1.0,0.23890099999994163
512,1,0.8,0.0625,35.0,1,1.0,22.615501000000222
513,1,0.8,0.25,-35.0,-1,1.0,11.679601000000275
514,1,0.8,0.25,-35.0,-1,1.0,0.21670100000005732
515,1,0.8,1.0,-35.0,-1,1.0,0.18660099999988233
516,1,0.8,1.0,35.0,1,1.0,0.3033010000001468
517,1,0.8,0.25,-35.0,-1,1.0,0.22670100000004823
518,1,0.8,0.0625,-35.0,-1,1.0,27.14020100000016
519,1,0.8,1.0,-35.0,-1,1.0,0.21430099999997765
520,1,0.8,0.125,35.0,1,1.0,0.41110100000037164
521,1,0.8,0.0625,-35.0,-1,1.0,1.2578010000001996
522,1,0.8,0.125,-35.0,-1,1.0,0.44780100000025413
523,1,0.8,0.0,-35.0,-1,1.0,4.887901000000056
524,1,0.8,0.0625,-35.0,-1,1.0,3.324701000000232
525,1,0.8,0.0,-35.0,1,0.0,0.8015010000001439
526,1,0.8,0.125,-35.0,-1,1.0,5.361701000000039
527,1,0.8,0.0625,-35.0,-1,1.0,0.20510100000024067
528,1,0.8,0.0,-35.0,-1,1.0,0.19850100000007842
529,1,0.8,0.0,35.0,-1,0.0,0.29860099999996237
530,1,0.8,0.25,-35.0,-1,1.0,0.2655009999998583
531,1,0.8,0.125,-35.0,-1,1.0,0.19540100000017446
532,1,0.8,1.0,-35.0,-1,1.0,0.16220100000009552
533,1,0.8,0.0625,35.0,-1,0.0,5.615500999999995
534,1,0.8,1.0,35.0,1,1.0,0.4692010000001119
535,1,0.8,0.25,35.0,-1,0.0,12.169101000000182
536,1,0.8,0.125,35.0,-1,0.0,0.432901000000129
537,1,0.8,0.0625,-35.0,-1,1.0,0.4929010000000744
538,1,0.8,0.0625,-35.0,-1,1.0,31.626401000000214
539,1,0.8,1.0,-35.0,-1,1.0,0.18050100000004932
540,1,0.8,0.25,-35.0,-1,1.0,0.20390100000008715
541,1,0.8,0.25,-35.0,-1,1.0,0.237201000000141
542,1,0.8,0.125,35.0,1,1.0,0.4240010000003167
543,1,0.8,0.0625,-35.0,-1,1.0,0.2440009999997983
544,1,0.8,1.0,35.0,1,1.0,1.090701000000081
545,1,0.8,0.0,35.0,-1,0.0,0.33750099999997474
546,1,0.8,0.0625,-35.0,-1,1.0,0.6508010000000013
547,1,0.8,0.125,35.0,1,1.0,0.3676010000001497
548,1,0.8,0.0625,35.0,1,1.0,0.24430099999995036
549,1,0.8,0.25,-35.0,-1,1.0,0.22110100000031707
550,1,0.8,0.0,35.0,1,1.0,0.24790100000018356
551,1,0.8,0.0625,-35.0,1,0.0,0.38780100000008133
552,1,0.8,1.0,-35.0,-1,1.0,0.28460100000006605
553,1,0.8,0.25,-35.0,-1,1.0,0.2880010000001221
554,1,0.8,0.25,-35.0,-1,1.0,0.2714009999999689
555,1,0.8,0.125,-35.0,-1,1.0,0.28800100000034945
556,1,0.8,0.0625,-35.0,1,0.0,0.22810100000015154
557,1,0.8,0.125,-35.0,-1,1.0,0.2515010000001894
558,1,0.8,0.0625,-35.0,1,0.0,0.3183010000000195
559,1,0.8,0.25,-35.0,-1,1.0,0.28830100000004677
560,1,0.8,0.25,35.0,1,1.0,0.26830100000006496
561,1,0.8,0.125,-35.0,-1,1.0,0.24500100000000202
562,1,0.8,0.125,-35.0,-1,1.0,0.2251009999999951
563,1,0.8,1.0,-35.0,-1,1.0,0.20850100000006933
564,1,0.8,0.0,-35.0,-1,1.0,4.232001000000082
565,1,0.8,0.0625,-35.0,-1,1.0,0.3153010000000904
566,1,0.8,1.0,-35.0,-1,1.0,0.22200100000009115
567,1,0.8,0.125,-35.0,-1,1.0,0.21210100000007515
568,1,0.8,0.25,35.0,1,1.0,0.29880100000013954
569,1,0.8,0.0625,-35.0,-1,1.0,0.24220100000002276
570,1,0.8,0.25,-35.0,-1,1.0,0.26230100000020684
571,1,0.8,0.0625,-35.0,-1,1.0,0.21230100000002494
572,1,0.8,0.125,-35.0,-1,1.0,0.40580100000011043
573,1,0.8,1.0,-35.0,-1,1.0,0.17580100000031962
574,1,0.8,0.0,35.0,-1,0.0,0.22250100000019302
575,1,0.8,0.125,-35.0,-1,1.0,0.33270100000004277
576,1,0.8,0.0,-35.0,-1,1.0,0.3392010000002301
577,1,0.8,0.0625,-35.0,-1,1.0,0.286000999999942
578,1,0.8,1.0,-35.0,-1,1.0,0.1827010000001792
579,1,0.8,0.0,-35.0,-1,1.0,0.26270100000010643
580,1,0.2,0.25,35.0,1,1.0,0.29280100000005405
581,1,0.2,0.0625,-35.0,1,0.0,0.28280100000006314
582,1,0.2,0.25,35.0,1,1.0,0.2597010000001774
583,1,0.2,0.25,35.0,1,1.0,0.32960099999991144
584,1,0.2,0.125,35.0,1,1.0,0.3096009999999296
585,1,0.2,1.0,35.0,1,1.0,0.25650100000007114
586,1,0.2,1.0,-35.0,-1,1.0,0.15330100000005586
587,1,0.2,0.0625,35.0,1,1.0,0.29650100000003476
588,1,0.2,0.125,35.0,1,1.0,0.243300999999974
589,1,0.2,0.0625,35.0,-1,0.0,0.243300999999974
590,1,0.2,0.0625,35.0,1,1.0,0.5267010000000028
591,1,0.2,0.0,35.0,-1,0.0,49.57350100000008
592,1,0.2,0.125,35.0,1,1.0,0.5115010000001803
593,1,0.2,0.25,35.0,1,1.0,0.3282010000000355
594,1,0.2,0.0,35.0,1,1.0,6.074901000000182
595,1,0.2,0.125,35.0,1,1.0,0.31510100000014063
596,1,0.2,0.0,35.0,-1,0.0,12.528501000000006
597,1,0.2,0.25,35.0,1,1.0,0.7922010000002047
598,1,0.2,0.0,35.0,1,1.0,12.795600999999806
599,1,0.2,1.0,-35.0,-1,1.0,0.17260099999998602
600,1,0.2,0.0625,-35.0,-1,1.0,0.3494010000001708
601,1,0.2,0.125,-35.0,-1,1.0,0.3061010000001261
602,1,0.2,0.125,35.0,1,1.0,0.4995010000000093
603,1,0.2,0.0625,35.0,-1,0.0,11.109501000000137
604,1,0.2,1.0,35.0,1,1.0,0.6264010000002145
605,1,0.2,0.25,35.0,1,1.0,20.90320100000008
606,1,0.2,1.0,35.0,1,1.0,47.13740100000018
607,1,0.2,0.0625,35.0,-1,0.0,7.585301000000072
608,1,0.2,0.125,35.0,-1,0.0,11.909001000000217
609,1,0.2,0.0625,35.0,-1,0.0,0.49600100000020575
610,1,0.2,0.0,35.0,-1,0.0,21.899401000000125
611,1,0.2,0.125,35.0,1,1.0,0.3200010000000475
612,1,0.2,1.0,-35.0,-1,1.0,0.2734009999999216
613,1,0.2,0.25,35.0,1,1.0,0.23010099999987688
614,1,0.2,0.0,35.0,-1,0.0,10.490101000000095
1,2,0.2,1.0,35.0,1,1.0,0.4587999999999999
2,2,0.2,0.0625,35.0,-1,0.0,0.19550000000000045
3,2,0.2,0.0625,35.0,1,1.0,0.3990999999999998
4,2,0.2,0.0,35.0,1,1.0,0.30370000000000097
5,2,0.2,1.0,35.0,1,1.0,0.31090000000000195
6,2,0.2,0.125,-35.0,-1,1.0,0.5183999999999997
7,2,0.2,0.0,35.0,1,1.0,0.5801999999999978
8,2,0.2,0.125,-35.0,1,0.0,0.26689999999999614
9,2,0.2,0.0,35.0,1,1.0,0.2881999999999998
10,2,0.2,1.0,35.0,1,1.0,0.245000000000001
11,2,0.2,0.0625,35.0,-1,0.0,2.5792
12,2,0.2,0.25,-35.0,1,0.0,0.21270000000000522
13,2,0.2,0.125,35.0,1,1.0,0.6349000000000018
14,2,0.2,1.0,-35.0,-1,1.0,0.2447999999999979
15,2,0.2,0.0,35.0,1,1.0,0.3745000000000047
16,2,0.2,0.0625,35.0,1,1.0,0.26069999999999993
17,2,0.2,1.0,35.0,1,1.0,0.28410000000000224
18,2,0.2,0.25,35.0,1,1.0,0.2259999999999991
19,2,0.2,0.0625,35.0,1,1.0,0.25899999999999324
20,2,0.2,0.25,35.0,1,1.0,0.228900000000003
21,2,0.2,0.125,35.0,1,1.0,0.3453000000000088
22,2,0.2,1.0,35.0,1,1.0,0.22159999999999513
23,2,0.2,0.0,-35.0,1,0.0,0.29049999999999443
24,2,0.2,0.25,35.0,1,1.0,0.46520000000001005
25,2,0.2,1.0,35.0,1,1.0,0.1851000000000056
26,2,0.2,0.25,-35.0,-1,1.0,0.2985000000000042
27,2,0.2,0.0625,-35.0,1,0.0,5.520300000000006
28,2,0.2,0.125,35.0,1,1.0,0.45630000000001303
29,2,0.2,0.0,35.0,1,1.0,1.8926000000000016
30,2,0.2,0.25,35.0,1,1.0,0.28460000000001173
31,2,0.2,0.25,35.0,1,1.0,0.5678999999999945
32,2,0.2,0.125,-35.0,-1,1.0,0.2989000000000033
33,2,0.2,0.25,35.0,1,1.0,0.26420000000000243
34,2,0.2,0.125,35.0,1,1.0,0.57650000000001
35,2,0.2,0.25,35.0,1,1.0,0.47810000000001196
36,2,0.2,0.0,35.0,1,1.0,4.33550000000001
37,2,0.2,0.125,35.0,-1,0.0,0.39510000000001355
38,2,0.2,0.0625,-35.0,1,0.0,0.4965000000000117
39,2,0.2,0.125,35.0,1,1.0,0.26480000000000814
40,2,0.2,0.125,35.0,-1,0.0,3.907899999999998
41,2,0.2,0.125,-35.0,1,0.0,0.09360000000000923
42,2,0.2,0.125,35.0,1,1.0,0.2688999999999737
43,2,0.2,0.25,35.0,1,1.0,0.2366999999999848
44,2,0.2,1.0,35.0,1,1.0,0.27410000000003265
45,2,0.2,0.125,35.0,1,1.0,0.42840000000001055
46,2,0.2,0.125,35.0,1,1.0,0.47979999999998313
47,2,0.2,1.0,35.0,1,1.0,0.21500000000003183
48,2,0.2,0.125,35.0,1,1.0,0.4199999999999875
49,2,0.2,0.125,-35.0,1,0.0,2.3037000000000205
50,2,0.2,1.0,35.0,1,1.0,0.19909999999998718
51,2,0.2,0.125,-35.0,-1,1.0,0.28119999999998413
52,2,0.2,0.0625,35.0,1,1.0,4.734300000000019
53,2,0.2,0.125,35.0,1,1.0,0.8953999999999951
54,2,0.2,0.125,35.0,-1,0.0,0.21049999999999613
55,2,0.2,0.0625,35.0,-1,0.0,0.20289999999999964
56,2,0.2,1.0,35.0,1,1.0,0.20129999999997494
57,2,0.2,1.0,35.0,1,1.0,0.2412999999999954
58,2,0.2,0.0625,35.0,1,1.0,0.21740000000002624
59,2,0.2,0.25,35.0,1,1.0,0.26770000000001914
60,2,0.2,1.0,-35.0,-1,1.0,0.2767999999999802
61,2,0.2,0.25,35.0,1,1.0,0.22649999999998727
62,2,0.2,0.125,35.0,1,1.0,0.2510000000000048
63,2,0.2,0.125,35.0,1,1.0,0.8082000000000278
64,2,0.2,0.0,35.0,1,1.0,3.108399999999989
65,2,0.2,0.25,35.0,1,1.0,0.23210000000000264
66,2,0.2,0.0625,35.0,1,1.0,0.5534000000000106
67,2,0.2,1.0,-35.0,-1,1.0,0.26090100000001826
68,2,0.2,1.0,35.0,1,1.0,0.23590099999998415
69,2,0.2,0.0625,35.0,1,1.0,3.326301000000001
70,2,0.2,1.0,35.0,1,1.0,0.3015010000000018
71,2,0.2,0.0,35.0,1,1.0,2.495801
72,2,0.2,1.0,35.0,1,1.0,0.23290099999999825
73,2,0.2,0.0,35.0,1,1.0,0.3067010000000039
74,2,0.2,0.125,35.0,1,1.0,2.013401000000016
75,2,0.2,0.25,35.0,1,1.0,0.4404010000000085
76,2,0.2,0.25,35.0,1,1.0,0.31290100000001075
77,2,0.2,1.0,35.0,1,1.0,0.23120099999999866
78,2,0.2,0.25,35.0,1,1.0,0.8565010000000086
79,2,0.2,0.25,35.0,1,1.0,0.2582010000000139
80,2,0.2,0.0,35.0,1,1.0,2.159200999999996
81,2,0.2,0.25,35.0,-1,0.0,0.47170100000002435
82,2,0.2,1.0,-35.0,-1,1.0,0.22760100000002126
83,2,0.2,0.25,35.0,1,1.0,0.2829009999999812
84,2,0.2,0.25,35.0,1,1.0,0.30530100000001426
85,2,0.2,0.125,35.0,1,1.0,0.3698010000000238
86,2,0.2,0.0625,35.0,1,1.0,0.3254009999999994
87,2,0.2,1.0,35.0,1,1.0,0.602201000000008
88,2,0.8,0.0625,-35.0,-1,1.0,0.31820100000001617
89,2,0.8,0.125,-35.0,-1,1.0,0.5799010000000067
90,2,0.8,1.0,35.0,1,1.0,0.3084010000000035
91,2,0.8,0.0,-35.0,1,0.0,3.6303009999999745
92,2,0.8,0.125,-35.0,-1,1.0,0.1589010000000144
93,2,0.8,0.125,-35.0,-1,1.0,0.33220099999999775
94,2,0.8,0.0625,-35.0,-1,1.0,0.3989010000000235
95,2,0.8,0.0,-35.0,-1,1.0,0.6543010000000322
96,2,0.8,0.125,-35.0,-1,1.0,0.3618009999999572
97,2,0.8,0.125,-35.0,-1,1.0,0.38630099999994627
98,2,0.8,0.0625,-35.0,-1,1.0,4.714600999999959
99,2,0.8,0.125,-35.0,-1,1.0,0.4618009999999799
100,2,0.8,0.25,35.0,-1,0.0,0.46740100000005214
101,2,0.8,0.25,-35.0,-1,1.0,0.8269010000000208
102,2,0.8,0.0,-35.0,-1,1.0,7.671001000000047
103,2,0.8,0.125,-35.0,-1,1.0,0.6645010000000298
104,2,0.8,0.0,-35.0,-1,1.0,4.612301000000002
105,2,0.8,0.0625,35.0,-1,0.0,0.22580099999998993
106,2,0.8,0.125,-35.0,-1,1.0,1.2693010000000413
107,2,0.8,0.0625,-35.0,-1,1.0,0.3639009999999985
108,2,0.8,0.0625,-35.0,-1,1.0,0.3086009999999533
109,2,0.8,0.25,-35.0,-1,1.0,0.2501010000000292
110,2,0.8,0.25,35.0,1,1.0,0.3465009999999893
111,2,0.8,0.25,-35.0,-1,1.0,0.28380099999998265
112,2,0.8,0.25,-35.0,-1,1.0,0.4091009999999642
113,2,0.8,1.0,-35.0,-1,1.0,0.25060099999996055
114,2,0.8,0.125,-35.0,-1,1.0,4.000900999999999
115,2,0.8,0.0,-35.0,-1,1.0,0.608400999999958
116,2,0.8,1.0,-35.0,-1,1.0,0.23680100000007087
117,2,0.8,0.25,-35.0,-1,1.0,0.517201
118,2,0.8,0.125,-35.0,1,0.0,1.1065009999999802
119,2,0.8,0.0625,-35.0,-1,1.0,0.1776010000000383
120,2,0.8,1.0,-35.0,-1,1.0,0.17510100000004059
121,2,0.8,0.25,-35.0,-1,1.0,1.96120099999996
122,2,0.8,1.0,-35.0,-1,1.0,0.18790100000001075
123,2,0.8,0.0,-35.0,-1,1.0,3.8789010000000417
124,2,0.8,0.125,35.0,1,1.0,0.5164010000000303
125,2,0.8,0.0,35.0,1,1.0,0.5436010000000238
126,2,0.8,1.0,-35.0,-1,1.0,0.4152010000000246
127,2,0.8,0.125,-35.0,-1,1.0,0.2939010000000053
128,2,0.8,1.0,-35.0,-1,1.0,0.3700009999999452
129,2,0.8,1.0,35.0,1,1.0,0.39560100000005605
130,2,0.8,0.25,-35.0,-1,1.0,0.339100999999971
131,2,0.8,0.125,35.0,1,1.0,0.43720100000001594
132,2,0.8,0.0625,-35.0,1,0.0,5.737801000000047
133,2,0.8,0.0,-35.0,-1,1.0,0.28770100000002685
134,2,0.8,0.25,-35.0,-1,1.0,0.24850100000003295
135,2,0.8,0.125,-35.0,-1,1.0,0.2945010000000252
136,2,0.8,0.125,-35.0,-1,1.0,0.4119010000000003
137,2,0.8,0.0625,-35.0,-1,1.0,0.26840100000003986
138,2,0.8,0.25,-35.0,-1,1.0,0.41760099999999056
139,2,0.8,1.0,35.0,1,1.0,0.3038010000000213
140,2,0.8,0.0,35.0,-1,0.0,0.2793010000000322
141,2,0.8,0.125,-35.0,-1,1.0,0.20550100000002658
142,2,0.8,1.0,35.0,1,1.0,0.2519010000000321
143,2,0.8,0.0,-35.0,-1,1.0,0.8756009999999605
144,2,0.8,0.25,-35.0,-1,1.0,0.2780010000000175
145,2,0.8,0.0,-35.0,-1,1.0,2.716901000000007
146,2,0.8,0.125,-35.0,-1,1.0,0.34280100000000857
147,2,0.8,0.25,-35.0,-1,1.0,0.31220100000001594
148,2,0.8,0.0625,-35.0,1,0.0,1.4840010000000348
149,2,0.8,0.0625,-35.0,-1,1.0,0.2658010000000104
150,2,0.8,0.125,-35.0,-1,1.0,0.3742009999999709
151,2,0.8,1.0,-35.0,-1,1.0,0.2283009999999308
152,2,0.8,0.0625,-35.0,1,0.0,3.9949009999999703
153,2,0.8,0.25,-35.0,-1,1.0,0.20470100000000002
154,2,0.8,0.25,35.0,1,1.0,0.4011010000000397
155,2,0.8,0.125,-35.0,1,0.0,5.001801000000057
156,2,0.8,1.0,-35.0,-1,1.0,0.19740100000001348
157,2,0.8,0.125,-35.0,1,0.0,0.2680010000000266
158,2,0.8,0.125,35.0,1,1.0,0.28980100000006814
159,2,0.8,0.25,-35.0,-1,1.0,0.2286009999999692
160,2,0.8,1.0,-35.0,-1,1.0,0.24690100000003667
161,2,0.8,0.0,35.0,1,1.0,2.008000999999979
162,2,0.8,1.0,-35.0,-1,1.0,0.2373010000000022
163,2,0.8,0.0,-35.0,1,0.0,2.800500999999997
164,2,0.8,0.0,-35.0,1,0.0,0.31330100000002403
165,2,0.8,0.125,-35.0,-1,1.0,0.24910099999999602
166,2,0.8,0.0625,-35.0,-1,1.0,0.23110100000002376
167,2,0.8,0.0625,-35.0,-1,1.0,0.36110099999996237
168,2,0.8,1.0,-35.0,-1,1.0,0.22010099999999966
169,2,0.8,0.0625,-35.0,-1,1.0,0.5272009999999909
170,2,0.8,0.25,-35.0,-1,1.0,0.21390099999996437
171,2,0.8,1.0,-35.0,-1,1.0,0.23500099999995427
172,2,0.8,0.25,35.0,-1,0.0,0.3347009999999955
173,2,0.8,0.25,-35.0,-1,1.0,0.19980099999997947
174,2,0.8,0.0,-35.0,-1,1.0,0.4287009999999327
175,2,0.8,0.25,-35.0,-1,1.0,4.023800999999935
176,2,0.8,1.0,-35.0,-1,1.0,0.38770099999999275
177,2,0.8,0.125,-35.0,-1,1.0,4.981701000000044
178,2,0.2,0.0625,35.0,-1,0.0,0.21090099999992162
179,2,0.2,0.0625,35.0,-1,0.0,0.46060099999988324
180,2,0.2,0.25,35.0,1,1.0,0.48470099999985905
181,2,0.2,1.0,35.0,1,1.0,0.2978010000000495
182,2,0.2,0.0625,35.0,1,1.0,3.392900999999938
183,2,0.2,0.25,35.0,1,1.0,0.22830099999987397
184,2,0.2,0.0625,35.0,1,1.0,0.7850009999999656
185,2,0.2,0.25,-35.0,-1,1.0,0.33930099999997765
186,2,0.2,0.25,35.0,1,1.0,0.3827009999998836
187,2,0.2,0.0625,35.0,1,1.0,2.0551009999999224
188,2,0.2,0.0625,35.0,1,1.0,0.2839009999999007
189,2,0.2,1.0,35.0,1,1.0,0.23430099999984577
190,2,0.2,0.0625,-35.0,1,0.0,0.31100099999991926
191,2,0.2,0.125,35.0,1,1.0,0.2564009999998689
192,2,0.2,0.125,35.0,1,1.0,0.25310099999990143
193,2,0.2,0.125,35.0,1,1.0,0.22230099999990216
194,2,0.2,0.0625,35.0,1,1.0,0.26090099999998984
195,2,0.2,0.25,35.0,1,1.0,0.20290099999988342
196,2,0.2,0.0625,35.0,1,1.0,0.23430100000007315
197,2,0.2,0.0625,35.0,1,1.0,0.06340099999999893
198,2,0.2,0.125,35.0,1,1.0,0.22710099999994782
199,2,0.2,1.0,35.0,1,1.0,0.26450099999999566
200,2,0.2,0.25,35.0,1,1.0,0.27080100000000584
201,2,0.2,1.0,-35.0,-1,1.0,0.25720099999989543
202,2,0.2,0.25,35.0,1,1.0,0.25890099999992344
203,2,0.2,1.0,35.0,1,1.0,0.4283010000000331
204,2,0.2,1.0,-35.0,-1,1.0,0.24440099999992526
205,2,0.2,0.125,35.0,1,1.0,0.3964009999999689
206,2,0.2,1.0,35.0,1,1.0,0.27120099999990543
207,2,0.2,0.125,-35.0,1,0.0,0.2579009999999471
208,2,0.2,1.0,35.0,1,1.0,0.22390100000006896
209,2,0.2,0.125,35.0,1,1.0,3.242300999999884
210,2,0.2,0.125,-35.0,1,0.0,0.27050100000008115
211,2,0.2,1.0,-35.0,1,0.0,0.23280099999988124
212,2,0.2,0.0625,35.0,1,1.0,0.28670099999987997
213,2,0.2,1.0,35.0,1,1.0,0.256300999999894
214,2,0.2,0.25,35.0,1,1.0,2.542701000000079
215,2,0.2,0.125,35.0,1,1.0,0.2775009999999156
216,2,0.2,0.25,35.0,1,1.0,0.27120099999990543
217,2,0.2,0.25,35.0,1,1.0,0.4896009999998796
218,2,0.2,0.25,35.0,1,1.0,0.2663009999998849
219,2,0.2,1.0,-35.0,-1,1.0,0.39020099999993363
220,2,0.2,1.0,35.0,1,1.0,0.2396009999999933
221,2,0.2,1.0,35.0,1,1.0,0.29940099999987524
222,2,0.2,1.0,-35.0,-1,1.0,0.2458009999999149
223,2,0.2,0.25,35.0,1,1.0,0.2438009999999622
224,2,0.2,1.0,35.0,1,1.0,0.41020099999991544
225,2,0.2,0.25,35.0,1,1.0,0.5436009999999669
226,2,0.2,0.0625,35.0,1,1.0,3.21990100000005
227,2,0.2,0.125,-35.0,1,0.0,0.50320099999999
228,2,0.2,0.0,35.0,1,1.0,0.2213010000000395
229,2,0.2,0.125,35.0,1,1.0,0.7660009999998465
230,2,0.2,0.0625,35.0,1,1.0,0.651800999999864
231,2,0.2,0.125,35.0,-1,0.0,0.24040099999990616
232,2,0.2,0.25,-35.0,-1,1.0,0.19850099999996473
233,2,0.2,1.0,35.0,1,1.0,0.41550099999994927
234,2,0.2,0.25,35.0,1,1.0,0.4809010000000171
235,2,0.2,0.0625,-35.0,1,0.0,3.386400999999978
236,2,0.2,0.0625,-35.0,-1,1.0,0.987500999999952
237,2,0.2,1.0,35.0,1,1.0,0.23620099999993727
238,2,0.2,1.0,-35.0,-1,1.0,0.17160099999989598
239,2,0.2,0.0625,35.0,-1,0.0,0.3890010000000075
240,2,0.2,0.125,35.0,1,1.0,0.553401000000008
241,2,0.8,0.125,35.0,1,1.0,0.5611010000000078
242,2,0.8,1.0,-35.0,-1,1.0,0.1770009999999047
243,2,0.8,0.0625,-35.0,1,0.0,3.6719009999999344
244,2,0.8,1.0,-35.0,-1,1.0,0.16110100000003058
245,2,0.8,1.0,-35.0,-1,1.0,0.18280099999992672
246,2,0.8,1.0,35.0,1,1.0,0.33130100000005314
247,2,0.8,0.125,-35.0,-1,1.0,0.36960099999998874
248,2,0.8,0.125,-35.0,1,0.0,0.24290099999996073
249,2,0.8,0.0,-35.0,1,0.0,0.34960100000000693
250,2,0.8,0.0,-35.0,-1,1.0,0.1688009999999167
251,2,0.8,0.125,35.0,1,1.0,0.40780100000006314
252,2,0.8,0.125,-35.0,-1,1.0,0.24910099999999602
253,2,0.8,0.0,-35.0,1,0.0,0.33320099999991726
254,2,0.8,0.125,-35.0,-1,1.0,0.2274009999999862
255,2,0.8,1.0,-35.0,-1,1.0,0.191400999999928
256,2,0.8,0.25,-35.0,-1,1.0,0.3044009999998707
257,2,0.8,0.25,-35.0,-1,1.0,0.6294009999999162
258,2,0.8,0.0625,35.0,1,1.0,5.7295010000000275
259,2,0.8,1.0,-35.0,-1,1.0,0.2134009999998625
260,2,0.8,0.25,-35.0,-1,1.0,0.5152009999999336
261,2,0.8,1.0,-35.0,-1,1.0,0.227600999999936
262,2,0.8,0.125,-35.0,1,0.0,0.47390100000006896
263,2,0.8,0.125,-35.0,-1,1.0,0.19970099999989088
264,2,0.8,0.0625,-35.0,-1,1.0,0.19270099999994272
265,2,0.8,0.25,-35.0,-1,1.0,0.20850099999995564
266,2,0.8,0.0,-35.0,-1,1.0,0.2372010000000273
267,2,0.8,0.125,35.0,1,1.0,0.39790100000004713
268,2,0.8,0.0625,-35.0,-1,1.0,0.3486009999999169
269,2,0.8,0.125,35.0,1,1.0,0.3443009999998594
270,2,0.8,0.125,-35.0,-1,1.0,0.3727009999998927
271,2,0.8,0.0625,-35.0,1,0.0,0.24440099999992526
272,2,0.8,0.0625,-35.0,1,0.0,0.30700099999990016
273,2,0.2,0.125,35.0,1,1.0,0.33960100000001603
274,2,0.2,0.25,35.0,1,1.0,0.30100099999992835
275,2,0.2,1.0,-35.0,-1,1.0,0.23760100000004059
276,2,0.2,0.0,35.0,-1,0.0,0.29350099999987833
277,2,0.2,0.0625,35.0,1,1.0,0.3001010000000406
278,2,0.2,1.0,35.0,1,1.0,0.2939010000000053
279,2,0.2,0.25,35.0,1,1.0,4.444500999999832
280,2,0.2,0.0,35.0,1,1.0,0.41570099999989907
281,2,0.2,0.125,35.0,1,1.0,0.2760009999999511
282,2,0.2,0.25,35.0,1,1.0,0.14920099999994818
283,2,0.2,0.125,35.0,1,1.0,0.6255009999999857
284,2,0.2,0.0,-35.0,1,0.0,0.49420099999997547
285,2,0.2,0.0625,35.0,1,1.0,0.6592009999999391
286,2,0.2,1.0,35.0,1,1.0,0.24910099999988233
287,2,0.2,0.25,35.0,1,1.0,3.9061009999999214
288,2,0.2,0.125,35.0,1,1.0,0.6169009999998707
289,2,0.2,0.0625,35.0,-1,0.0,0.2013009999998303
290,2,0.2,0.125,35.0,1,1.0,0.38000099999987924
291,2,0.2,0.25,-35.0,-1,1.0,0.21600100000000566
292,2,0.2,0.0625,-35.0,-1,1.0,0.527101000000016
293,2,0.2,0.125,35.0,1,1.0,0.5845010000000457
294,2,0.2,0.125,35.0,1,1.0,0.46400099999993927
295,2,0.2,0.25,35.0,1,1.0,0.35360100000002603
296,2,0.2,0.0,35.0,1,1.0,0.36770099999989725
297,2,0.2,0.125,-35.0,1,0.0,0.5035010000000284
298,2,0.2,0.125,-35.0,1,0.0,0.1689009999998916
299,2,0.2,0.125,35.0,1,1.0,0.29300099999989015
300,2,0.8,1.0,35.0,1,1.0,0.2256009999999833
301,2,0.8,0.25,-35.0,-1,1.0,0.2073010000000295
302,2,0.8,0.0,-35.0,1,0.0,0.2234009999998534
303,2,0.8,0.25,-35.0,-1,1.0,0.08880099999998947
304,2,0.8,0.125,-35.0,-1,1.0,0.24460099999998874
305,2,0.8,1.0,-35.0,-1,1.0,0.20720099999982722
306,2,0.8,0.25,35.0,-1,0.0,0.42180100000007315
307,2,0.8,0.25,-35.0,-1,1.0,0.19570099999987178
308,2,0.8,0.0,-35.0,-1,1.0,0.23070099999995364
309,2,0.8,1.0,-35.0,-1,1.0,0.2213009999999258
310,2,0.8,0.25,35.0,-1,0.0,0.36790099999996073
311,2,0.8,0.0625,35.0,1,1.0,0.2717009999998936
312,2,0.8,0.0625,-35.0,-1,1.0,0.21370100000001457
313,2,0.8,0.125,-35.0,-1,1.0,0.21070099999997183
314,2,0.8,0.125,-35.0,-1,1.0,0.43010100000003604
315,2,0.8,0.25,-35.0,-1,1.0,0.24630100000001676
316,2,0.8,0.0,-35.0,-1,1.0,0.28090099999985796
317,2,0.8,0.125,-35.0,-1,1.0,0.2236009999999169
318,2,0.8,0.25,-35.0,-1,1.0,0.2273009999998976
319,2,0.8,0.125,-35.0,-1,1.0,0.21120099999996
320,2,0.8,1.0,-35.0,-1,1.0,0.1771009999999933
321,2,0.8,0.25,-35.0,-1,1.0,0.36980099999993854
322,2,0.8,0.0,-35.0,-1,1.0,0.36320100000000366
323,2,0.8,0.0625,35.0,1,1.0,0.3119009999999207
324,2,0.8,0.125,-35.0,-1,1.0,0.28530099999989034
325,2,0.8,1.0,-35.0,-1,1.0,0.2454010000000153
326,2,0.8,0.0625,-35.0,-1,1.0,4.863900999999828
327,2,0.8,0.0,-35.0,1,0.0,0.3149009999998498
328,2,0.8,0.25,-35.0,-1,1.0,0.1267009999999118
329,2,0.8,0.25,-35.0,-1,1.0,0.18570099999999456
330,2,0.8,0.0625,-35.0,-1,1.0,0.21580099999994218
331,2,0.8,0.0625,-35.0,-1,1.0,0.40180099999997765
332,2,0.8,0.125,-35.0,-1,1.0,0.36100099999998747
333,2,0.8,0.0,-35.0,-1,1.0,0.26430100000004586
334,2,0.2,1.0,35.0,-1,0.0,0.42390099999988706
335,2,0.2,0.125,35.0,-1,0.0,0.5825009999998656
336,2,0.2,0.25,35.0,1,1.0,0.35780099999988124
337,2,0.2,1.0,-35.0,-1,1.0,0.22450099999991835
338,2,0.2,0.0,-35.0,1,0.0,3.7869009999999435
339,2,0.2,1.0,35.0,1,1.0,0.22850099999993745
340,2,0.2,0.0,35.0,-1,0.0,0.1751009999999269
341,2,0.2,0.25,35.0,1,1.0,0.19990100000006805
342,2,0.2,0.125,35.0,1,1.0,0.26620099999991
343,2,0.2,0.125,-35.0,-1,1.0,0.23610099999996237
344,2,0.2,0.0,35.0,-1,0.0,0.26640099999997346
345,2,0.2,1.0,35.0,1,1.0,0.21610099999998056
346,2,0.2,0.25,-35.0,-1,1.0,0.290100999999936
347,2,0.2,0.25,-35.0,-1,1.0,3.590900999999917
348,2,0.2,0.125,35.0,1,1.0,0.18370099999992817
349,2,0.2,0.25,35.0,1,1.0,0.4608010000000604
350,2,0.2,0.125,-35.0,-1,1.0,0.23410100000000966
351,2,0.2,1.0,35.0,1,1.0,0.2478009999999813
352,2,0.2,0.25,35.0,1,1.0,0.40780099999994945
353,2,0.2,0.0,35.0,-1,0.0,2.873200999999881
354,2,0.2,0.25,35.0,1,1.0,0.5803009999998494
355,2,0.8,0.25,35.0,1,1.0,0.38950099999988197
356,2,0.8,1.0,-35.0,1,0.0,0.21450099999992744
357,2,0.8,0.125,-35.0,1,0.0,0.7496009999998705
358,2,0.8,0.25,-35.0,-1,1.0,0.38330099999996037
359,2,0.8,0.25,-35.0,-1,1.0,0.2334010000000717
360,2,0.8,0.0625,-35.0,-1,1.0,0.3402009999999791
361,2,0.8,0.25,-35.0,-1,1.0,0.37340099999994436
362,2,0.8,0.0625,35.0,1,1.0,0.7468010000000049
363,2,0.8,0.25,-35.0,-1,1.0,0.20360099999993508
364,2,0.8,0.125,-35.0,-1,1.0,0.283600999999976
365,2,0.8,0.125,-35.0,-1,1.0,2.6703009999998812
366,2,0.8,0.0,-35.0,1,0.0,0.30710099999998874
367,2,0.8,0.0625,-35.0,1,0.0,0.30720099999996364
368,2,0.8,0.125,-35.0,-1,1.0,0.2306010000002061
369,2,0.8,0.0625,-35.0,-1,1.0,0.7206010000002152
370,2,0.8,0.25,-35.0,-1,1.0,0.23400100000003476
371,2,0.8,0.0625,-35.0,1,0.0,0.3242010000001301
372,2,0.8,0.25,-35.0,-1,1.0,0.20750100000009297
373,2,0.8,0.0625,-35.0,-1,1.0,0.08750099999997474
374,2,0.8,0.125,35.0,1,1.0,0.32080100000007405
375,2,0.8,0.0625,-35.0,-1,1.0,0.4743010000001959
376,2,0.8,0.0625,-35.0,-1,1.0,0.2911010000002534
377,2,0.8,0.0,35.0,-1,0.0,0.24440099999992526
378,2,0.8,0.25,35.0,1,1.0,0.4378009999998085
379,2,0.8,0.0625,-35.0,-1,1.0,0.40790100000003804
380,2,0.8,1.0,-35.0,-1,1.0,0.21790099999998347
381,2,0.8,0.125,-35.0,-1,1.0,0.2314010000000053
382,2,0.8,0.125,35.0,1,1.0,0.5014009999999871
383,2,0.8,0.0625,35.0,-1,0.0,0.2914010000001781
384,2,0.8,0.0625,-35.0,1,0.0,6.254800999999816
385,2,0.8,0.0625,-35.0,-1,1.0,0.1850010000000566
386,2,0.8,1.0,-35.0,-1,1.0,0.18840099999988524
387,2,0.8,0.0,-35.0,-1,1.0,0.45190099999990707
388,2,0.8,0.25,35.0,1,1.0,0.36520100000007005
389,2,0.8,0.0625,-35.0,-1,1.0,0.5185010000000148
390,2,0.8,1.0,-35.0,-1,1.0,0.23870099999999184
391,2,0.8,0.25,-35.0,-1,1.0,0.38200099999994563
392,2,0.8,0.125,-35.0,-1,1.0,0.3221010000002025
393,2,0.8,0.0625,-35.0,-1,1.0,0.17560100000014245
394,2,0.8,1.0,-35.0,-1,1.0,0.17900100000019847
395,2,0.8,0.125,-35.0,-1,1.0,0.25240100000019083
396,2,0.8,0.125,-35.0,-1,1.0,0.2390010000001439
397,2,0.8,0.125,-35.0,-1,1.0,0.19580100000007405
398,2,0.8,0.25,-35.0,-1,1.0,0.18920100000013917
399,2,0.8,0.0,-35.0,-1,1.0,0.219101000000137
400,2,0.8,0.25,-35.0,-1,1.0,0.21250099999997474
401,2,0.8,0.125,-35.0,-1,1.0,0.4459010000002763
402,2,0.8,1.0,-35.0,-1,1.0,0.23260100000015882
403,2,0.8,0.0625,35.0,-1,0.0,0.20590100000003986
404,2,0.8,0.0,-35.0,1,0.0,0.23270099999990634
405,2,0.8,0.0625,-35.0,1,0.0,0.31280100000003586
406,2,0.8,0.25,-35.0,-1,1.0,0.2229010000000926
407,2,0.8,1.0,-35.0,-1,1.0,0.2296010000000024
408,2,0.8,0.0,-35.0,-1,1.0,0.24640100000033271
409,2,0.8,0.125,35.0,1,1.0,0.4065010000001621
410,2,0.8,0.0625,-35.0,-1,1.0,0.6397009999998318
411,2,0.8,0.0625,-35.0,-1,1.0,0.2632010000002083
412,2,0.8,0.25,35.0,-1,0.0,0.5865009999999984
413,2,0.8,0.125,-35.0,-1,1.0,0.20990099999994527
414,2,0.8,0.125,-35.0,-1,1.0,0.23670100000003913
415,2,0.8,1.0,-35.0,-1,1.0,0.4933010000002014
416,2,0.8,0.125,-35.0,-1,1.0,0.1868010000000595
417,2,0.8,0.25,-35.0,-1,1.0,0.18010100000014972
418,2,0.8,0.25,-35.0,-1,1.0,0.2168010000002596
419,2,0.8,0.25,-35.0,-1,1.0,0.20030100000008133
420,2,0.8,0.25,-35.0,-1,1.0,0.32690100000013445
421,2,0.8,0.125,35.0,1,1.0,0.5703009999999722
422,2,0.8,0.125,-35.0,-1,1.0,0.18380099999990307
423,2,0.8,0.0625,-35.0,-1,1.0,0.20390100000008715
424,2,0.8,0.0,-35.0,-1,1.0,0.5573010000000522
425,2,0.8,1.0,-35.0,-1,1.0,0.2573010000000977
426,2,0.8,1.0,-35.0,-1,1.0,0.3240010000001803
427,2,0.8,1.0,-35.0,-1,1.0,0.22410100000001876
428,2,0.8,0.0625,-35.0,-1,1.0,0.5241010000002007
429,2,0.8,0.0625,-35.0,-1,1.0,0.2108010000001741
430,2,0.8,0.125,35.0,1,1.0,0.4709010000001399
431,2,0.8,0.25,-35.0,-1,1.0,0.29090100000007624
432,2,0.8,0.0625,-35.0,-1,1.0,6.584200999999894
433,2,0.8,1.0,-35.0,-1,1.0,0.1611009999999169
434,2,0.8,0.25,35.0,-1,0.0,0.21130100000027596
435,2,0.8,0.125,35.0,-1,0.0,0.14460100000019338
436,2,0.8,1.0,-35.0,-1,1.0,0.20130100000005768
437,2,0.8,0.125,-35.0,-1,1.0,0.2148010000000795
438,2,0.8,0.25,-35.0,-1,1.0,0.2049010000000635
439,2,0.8,0.0625,-35.0,-1,1.0,0.20150100000000748
440,2,0.8,0.125,-35.0,-1,1.0,0.24160100000017337
441,2,0.8,0.25,-35.0,-1,1.0,0.17160100000023704
442,2,0.8,0.0625,-35.0,-1,1.0,0.1750010000000657
443,2,0.8,0.25,-35.0,-1,1.0,0.4351010000000315
444,2,0.8,0.125,-35.0,-1,1.0,0.1686010000000806
445,2,0.8,1.0,35.0,1,1.0,0.3152010000001155
446,2,0.8,0.125,-35.0,-1,1.0,0.5586009999999533
447,2,0.8,0.25,-35.0,-1,1.0,0.20200100000033672
448,2,0.2,0.0,35.0,1,1.0,0.41200000000026193
449,2,0.2,0.0,-35.0,1,0.0,0.21880099999998492
450,2,0.2,0.125,35.0,1,1.0,0.585501000000022
451,2,0.2,0.25,35.0,-1,0.0,0.18550099999993108
452,2,0.2,1.0,35.0,1,1.0,0.49240099999997256
453,2,0.2,1.0,-35.0,-1,1.0,0.19900100000018028
454,2,0.2,0.0625,35.0,-1,0.0,0.22570100000007187
455,2,0.2,0.125,35.0,1,1.0,0.28250100000013845
456,2,0.2,0.0625,35.0,-1,0.0,0.9025010000000293
457,2,0.2,0.0,35.0,1,1.0,0.18930100000011407
458,2,0.2,0.25,35.0,1,1.0,0.34270100000026105
459,2,0.2,0.0625,35.0,1,1.0,0.5293010000000322
460,2,0.2,0.125,35.0,1,1.0,0.2661000000000513
461,2,0.2,0.0625,35.0,1,1.0,0.27280100000007224
462,2,0.2,1.0,35.0,1,1.0,0.21960100000001148
463,2,0.2,0.25,35.0,1,1.0,0.20620099999996455
464,2,0.2,1.0,-35.0,1,0.0,0.19290099999989252
465,2,0.2,1.0,35.0,1,1.0,0.1932010000000446
466,2,0.2,1.0,-35.0,-1,1.0,0.3364010000000235
467,2,0.2,1.0,35.0,1,1.0,0.14310100000011516
468,2,0.2,0.25,35.0,1,1.0,0.2032010000000355
469,2,0.2,0.125,35.0,1,1.0,0.2032010000000355
470,2,0.2,0.0625,35.0,1,1.0,0.2699009999998907
471,2,0.2,0.0,35.0,1,1.0,0.39330100000006496
472,2,0.2,0.25,-35.0,1,0.0,0.26000100000010207
473,2,0.2,0.0625,35.0,1,1.0,0.18020100000012462
474,2,0.2,0.125,35.0,1,1.0,0.3235010000000784
475,2,0.2,0.0625,-35.0,1,0.0,0.266901000000189
476,2,0.2,0.0,35.0,-1,0.0,0.7669009999999616
477,2,0.2,0.0625,-35.0,1,0.0,0.46040100000004713
478,2,0.2,0.25,-35.0,-1,1.0,0.2537010000000919
479,2,0.2,0.0625,35.0,-1,0.0,1.9705010000002403
480,2,0.2,1.0,35.0,1,1.0,0.29060100000015154
481,2,0.2,0.0,-35.0,1,0.0,0.2306010000002061
482,2,0.2,0.125,-35.0,-1,1.0,0.19740100000035454
483,2,0.8,1.0,-35.0,-1,1.0,0.22410100000001876
484,2,0.8,1.0,-35.0,-1,1.0,0.2108010000001741
485,2,0.8,0.25,-35.0,-1,1.0,0.45430099999998674
486,2,0.8,0.0625,-35.0,1,0.0,0.24450100000012753
487,2,0.8,1.0,35.0,1,1.0,0.25090100000034
488,2,0.8,0.0625,-35.0,-1,1.0,0.2411010000000715
489,2,0.8,0.25,-35.0,-1,1.0,0.19110100000011698
490,2,0.8,0.25,-35.0,-1,1.0,0.16790100000002894
491,2,0.8,0.25,-35.0,-1,1.0,0.18460099999992963
492,2,0.8,1.0,-35.0,-1,1.0,0.19790100000022903
493,2,0.8,0.25,-35.0,-1,1.0,0.19140100000026905
494,2,0.8,0.25,-35.0,1,0.0,0.2148010000000795
495,2,0.8,0.25,35.0,1,1.0,0.28500099999996564
496,2,0.8,0.125,35.0,1,1.0,0.6182009999999991
497,2,0.8,1.0,-35.0,-1,1.0,0.21160099999997328
498,2,0.8,1.0,-35.0,-1,1.0,0.1850010000000566
499,2,0.8,0.0625,-35.0,-1,1.0,0.3983010000001741
500,2,0.8,0.125,-35.0,-1,1.0,0.46840100000008533
501,2,0.8,0.25,-35.0,-1,1.0,0.382001000000173
502,2,0.8,0.125,-35.0,-1,1.0,0.21180100000015045
503,2,0.8,0.125,-35.0,-1,1.0,0.265201000000161
504,2,0.8,0.0,-35.0,-1,1.0,0.20200099999988197
505,2,0.8,0.0625,-35.0,-1,1.0,0.24860100000000784
506,2,0.8,0.125,-35.0,-1,1.0,0.1921010000003207
507,2,0.8,0.125,-35.0,1,0.0,0.498801000000185
508,2,0.8,0.125,35.0,-1,0.0,0.22570100000029925
509,2,0.8,1.0,-35.0,-1,1.0,0.1990009999999529
510,2,0.8,1.0,-35.0,-1,1.0,0.1691009999999551
511,2,0.8,1.0,-35.0,-1,1.0,0.179100999999946
512,2,0.8,1.0,35.0,1,1.0,0.26580100000023776
513,2,0.8,0.0625,-35.0,-1,1.0,0.2092009999998936
514,2,0.8,0.0625,-35.0,-1,1.0,0.2192010000001119
515,2,0.8,0.0,-35.0,-1,1.0,0.5826010000000679
516,2,0.8,0.25,-35.0,-1,1.0,0.32930099999998674
517,2,0.8,0.0625,-35.0,1,0.0,0.32270100000027924
518,2,0.8,0.0,-35.0,-1,1.0,0.4094009999998889
519,2,0.8,0.0,-35.0,-1,1.0,0.14960100000007515
520,2,0.8,1.0,-35.0,-1,1.0,0.1830010000001039
521,2,0.8,0.0,-35.0,-1,1.0,0.16640099999995073
522,2,0.8,0.0625,-35.0,-1,1.0,0.14970100000005004
523,2,0.8,0.25,-35.0,-1,1.0,0.15640099999995982
524,2,0.8,0.25,-35.0,-1,1.0,0.5731010000001788
525,2,0.8,0.0,-35.0,-1,1.0,0.22670100000004823
526,2,0.8,0.125,-35.0,-1,1.0,0.17650099999991653
527,2,0.8,0.125,-35.0,-1,1.0,0.20660100000009152
528,2,0.2,1.0,35.0,1,1.0,0.3134010000001126
529,2,0.2,0.0625,-35.0,1,0.0,0.3101010000000315
530,2,0.2,0.125,-35.0,-1,1.0,0.19340100000022176
531,2,0.2,0.0,-35.0,-1,1.0,0.1502010000001519
532,2,0.2,0.25,35.0,-1,0.0,0.257001000000173
533,2,0.2,0.125,35.0,-1,0.0,0.257001000000173
534,2,0.2,1.0,35.0,1,1.0,0.43710100000021157
535,2,0.2,0.0625,35.0,1,1.0,0.26390100000025996
536,2,0.2,0.25,35.0,1,1.0,0.2938010000002578
537,2,0.2,0.25,35.0,1,1.0,0.2272010000001501
538,2,0.2,0.125,35.0,1,1.0,0.22060099999998783
539,2,0.2,0.125,35.0,1,1.0,0.2607010000001537
540,2,0.2,0.0,35.0,1,1.0,0.3840010000001257
541,2,0.2,1.0,35.0,1,1.0,0.23070099999995364
542,2,0.2,0.125,35.0,1,1.0,0.7074009999998907
543,2,0.2,1.0,35.0,1,1.0,0.28440100000011626
544,2,0.2,0.0,35.0,1,1.0,0.25760100000024977
545,2,0.2,0.0625,-35.0,1,0.0,0.3076009999999769
546,2,0.2,0.125,35.0,1,1.0,0.5710010000000239
547,2,0.2,0.125,-35.0,1,0.0,0.2778010000001814
548,2,0.2,0.0625,35.0,-1,0.0,16.18130099999985
549,2,0.2,0.0625,35.0,1,1.0,0.3284009999999853
550,2,0.2,0.25,35.0,1,1.0,0.3419010000000071
551,2,0.2,0.125,35.0,1,1.0,0.26860099999998965
552,2,0.2,0.0625,35.0,1,1.0,0.2152009999999791
553,2,0.2,0.0625,35.0,1,1.0,0.3020010000000184
554,2,0.2,1.0,-35.0,-1,1.0,0.258701000000201
555,2,0.2,0.25,35.0,1,1.0,0.19870100000002822
556,2,0.2,0.125,35.0,1,1.0,0.2254009999999198
557,2,0.2,0.25,35.0,1,1.0,0.26890099999991435
558,2,0.8,1.0,-35.0,-1,1.0,0.23230100000000675
559,2,0.8,0.0625,-35.0,-1,1.0,1.0156009999998332
560,2,0.8,0.25,-35.0,-1,1.0,0.2491010000001097
561,2,0.8,1.0,-35.0,-1,1.0,0.45240100000000893
562,2,0.8,0.125,-35.0,-1,1.0,0.7924009999999271
563,2,0.8,0.125,35.0,1,1.0,0.3759010000001126
564,2,0.8,0.0625,-35.0,1,0.0,0.2659009999999853
565,2,0.8,0.125,-35.0,-1,1.0,0.23260099999993145
566,2,0.8,0.0,-35.0,1,0.0,0.4427010000001701
567,2,0.8,0.125,35.0,1,1.0,0.32280100000002676
568,2,0.8,0.125,-35.0,1,0.0,6.386201000000028
569,2,0.8,0.25,-35.0,-1,1.0,0.2531010000000151
570,2,0.8,0.0625,-35.0,1,0.0,0.24640100000033271
571,2,0.8,1.0,-35.0,-1,1.0,0.1932010000000446
572,2,0.8,0.125,35.0,1,1.0,1.2232010000002447
573,2,0.8,1.0,-35.0,-1,1.0,0.1766010000001188
574,2,0.8,0.0625,-35.0,-1,1.0,0.3867009999999027
575,2,0.8,0.0625,-35.0,-1,1.0,0.23020100000007915
576,2,0.8,1.0,35.0,1,1.0,0.29020100000025195
577,2,0.8,0.25,-35.0,-1,1.0,0.17010000000004766
578,2,0.8,1.0,-35.0,-1,1.0,0.5302010000000337
579,2,0.8,0.0625,-35.0,1,0.0,0.23370100000011007
580,2,0.8,1.0,-35.0,-1,1.0,0.1503010000001268
581,2,0.8,0.0,-35.0,-1,1.0,0.1770010000000184
582,2,0.8,0.125,-35.0,-1,1.0,0.7305010000000038
583,2,0.8,0.0625,-35.0,-1,1.0,5.453801000000112
584,2,0.8,0.25,-35.0,-1,1.0,0.1773009999999431
585,2,0.8,0.25,-35.0,-1,1.0,0.2373010000001159
586,2,0.8,1.0,-35.0,-1,1.0,0.22410100000001876
587,2,0.8,0.125,-35.0,-1,1.0,0.22750100000007478
588,2,0.8,1.0,-35.0,-1,1.0,0.44420100000002094
589,2,0.8,0.0625,-35.0,-1,1.0,0.6609010000001945
590,2,0.8,0.125,-35.0,-1,1.0,0.20770100000004277
591,2,0.8,0.125,-35.0,-1,1.0,0.2211010000000897
592,2,0.8,1.0,-35.0,-1,1.0,0.21440099999995255
593,2,0.8,0.125,-35.0,-1,1.0,0.5511010000000169
594,2,0.8,0.0625,-35.0,1,0.0,0.48780100000021775
595,2,0.8,0.125,-35.0,-1,1.0,0.19120100000009188
596,2,0.8,0.25,-35.0,-1,1.0,0.4514010000000326
597,2,0.8,0.125,-35.0,-1,1.0,0.20810100000016973
598,2,0.2,0.0,35.0,-1,0.0,0.4149010000000999
599,2,0.2,0.25,35.0,1,1.0,0.2815010000001621
600,2,0.2,1.0,35.0,1,1.0,0.20830100000011953
601,2,0.2,0.0,35.0,1,1.0,0.3584010000001854
602,2,0.2,0.125,35.0,1,1.0,0.2151010000000042
603,2,0.2,1.0,35.0,1,1.0,0.11840099999994891
604,2,0.2,1.0,35.0,1,1.0,0.39190099999996164
605,2,0.2,0.125,35.0,1,1.0,0.3152010000001155
606,2,0.2,1.0,35.0,1,1.0,0.2352009999999609
607,2,0.2,0.25,35.0,1,1.0,0.23530100000016319
608,2,0.2,0.125,35.0,1,1.0,0.2253009999999449
609,2,0.2,0.25,35.0,1,1.0,0.21540100000015627
610,2,0.2,0.25,35.0,1,1.0,0.23880099999996673
611,2,0.2,1.0,35.0,1,1.0,0.21880099999998492
612,2,0.2,0.125,35.0,1,1.0,0.28880099999992126
613,2,0.2,0.0,35.0,1,1.0,0.4257000000000062
614,2,0.2,0.0625,35.0,1,1.0,0.22240099999999074
615,2,0.2,0.25,35.0,1,1.0,0.23230100000000675
616,2,0.2,1.0,35.0,1,1.0,0.18900100000018938
617,2,0.2,0.125,35.0,1,1.0,0.2091010000001461
618,2,0.2,0.0625,35.0,1,1.0,0.23240099999998165
619,2,0.2,0.25,35.0,1,1.0,0.22910099999990052
620,2,0.2,0.0,35.0,1,1.0,0.1793009999998958
621,2,0.2,0.125,35.0,1,1.0,0.18600100000003295
622,2,0.2,0.0625,35.0,1,1.0,0.4027010000002065
623,2,0.2,0.25,35.0,1,1.0,0.21270099999992453
624,2,0.2,0.0625,-35.0,-1,1.0,1.5395010000002003
625,2,0.2,0.0625,35.0,1,1.0,0.28620100000011917
626,2,0.2,1.0,-35.0,-1,1.0,0.26620100000013736
627,2,0.2,0.125,35.0,1,1.0,0.24630100000013044
628,2,0.2,0.0625,35.0,1,1.0,0.2364010000003418
629,2,0.2,1.0,-35.0,1,0.0,0.2530010000000402
630,2,0.2,1.0,35.0,1,1.0,0.3465009999999893
631,2,0.2,1.0,-35.0,-1,1.0,0.3698010000000522
632,2,0.2,0.0625,35.0,1,1.0,0.25980100000015227
633,2,0.2,0.25,35.0,1,1.0,0.3000010000000657
634,2,0.2,0.125,35.0,1,1.0,0.25000100000011116
635,2,0.2,0.125,35.0,1,1.0,0.25000100000011116
636,2,0.2,0.0625,-35.0,1,0.0,0.24020100000007005
637,2,0.2,0.0,35.0,1,1.0,0.33020100000021557
638,2,0.2,0.125,35.0,1,1.0,0.44030099999986305
639,2,0.2,0.0,35.0,1,1.0,4.513601000000108
640,2,0.2,1.0,35.0,1,1.0,0.22710099999994782
641,2,0.2,0.0,-35.0,1,0.0,0.31720100000006823
642,2,0.2,0.0625,35.0,1,1.0,0.27050099999996746
643,2,0.2,0.125,35.0,1,1.0,0.26050099999997656
644,2,0.2,0.0625,-35.0,1,0.0,0.29080100000010134
645,2,0.2,0.0,-35.0,1,0.0,0.20400100000006205
646,2,0.2,0.25,35.0,1,1.0,0.21420100000000275
647,2,0.2,0.0,35.0,1,1.0,0.22750100000007478
648,2,0.2,0.25,35.0,1,1.0,0.327701000000161
649,2,0.2,0.0625,-35.0,1,0.0,0.6077009999999063
650,2,0.2,0.25,35.0,1,1.0,0.22780099999999948
651,2,0.2,0.125,35.0,1,1.0,0.21460100000012972
652,2,0.2,1.0,-35.0,-1,1.0,0.1379010000002836
653,2,0.2,0.125,35.0,1,1.0,0.23130100000025777
654,2,0.2,0.125,35.0,1,1.0,0.261400999999978
655,2,0.2,0.125,-35.0,1,0.0,0.27810100000010607
656,2,0.2,0.125,-35.0,-1,1.0,0.3182010000000446
657,2,0.2,0.0625,35.0,-1,0.0,0.5249010000002272
658,2,0.2,0.0625,-35.0,1,0.0,0.22160100000019156
659,2,0.2,0.125,35.0,1,1.0,0.28500099999996564
660,2,0.2,0.0625,35.0,1,1.0,0.5317010000001119
661,2,0.2,0.0,35.0,1,1.0,0.4151010000000497
662,2,0.2,0.0,35.0,1,1.0,0.34850100000016937
663,2,0.2,0.0625,35.0,1,1.0,0.3319010000000162
664,2,0.8,0.125,-35.0,1,0.0,0.2753010000001268
665,2,0.8,0.25,-35.0,1,0.0,0.21870100000001003
666,2,0.8,0.125,-35.0,-1,1.0,0.29880100000013954
667,2,0.8,0.0625,35.0,1,1.0,0.332100999999966
668,2,0.8,1.0,-35.0,-1,1.0,0.2190010000001621
669,2,0.8,1.0,-35.0,-1,1.0,0.2089010000001963
670,2,0.8,1.0,-35.0,-1,1.0,0.048901000000114436
671,2,0.8,0.25,-35.0,-1,1.0,0.2490010000001348
672,2,0.8,0.0625,-35.0,-1,1.0,0.1990009999999529
673,2,0.8,0.125,35.0,1,1.0,0.30910100000005514
674,2,0.8,1.0,-35.0,-1,1.0,0.19580100000030143
675,2,0.8,1.0,-35.0,-1,1.0,0.1893009999998867
676,2,0.8,0.25,-35.0,-1,1.0,0.49260099999992235
677,2,0.8,0.0,-35.0,1,0.0,0.2994009999999889
678,2,0.8,0.25,-35.0,-1,1.0,0.4928010000000995
679,2,0.8,0.0625,-35.0,1,0.0,0.3695010000003549
680,2,0.8,0.0,-35.0,1,0.0,11.632800999999972
681,2,0.8,0.125,35.0,1,1.0,0.29650100000003476
682,2,0.8,1.0,-35.0,-1,1.0,0.1966010000001006
683,2,0.8,1.0,-35.0,-1,1.0,0.3599010000000362
684,2,0.8,0.25,-35.0,-1,1.0,0.45000099999992926
685,2,0.8,1.0,35.0,1,1.0,0.23020099999985177
686,2,0.8,0.25,-35.0,-1,1.0,0.5635009999998601
687,2,0.8,0.25,-35.0,-1,1.0,0.25020100000006096
688,2,0.8,1.0,-35.0,-1,1.0,0.3335010000000693
689,2,0.8,0.125,-35.0,-1,1.0,0.32690100000013445
690,2,0.8,0.25,-35.0,-1,1.0,0.23030100000028142
691,2,0.8,0.125,-35.0,-1,1.0,0.18370100000015555
692,2,0.8,1.0,-35.0,-1,1.0,0.25040100000001075
693,2,0.8,0.0,-35.0,1,0.0,0.3438009999999849
694,2,0.8,1.0,35.0,1,1.0,0.24720099999990452
695,2,0.8,1.0,35.0,1,1.0,0.2539010000000417
696,2,0.2,0.0625,-35.0,-1,1.0,0.3139009999999871
697,2,0.2,1.0,35.0,1,1.0,0.314000999999962
698,2,0.2,0.125,35.0,1,1.0,0.30070100000011735
699,2,0.2,0.25,35.0,1,1.0,0.24070099999994454
700,2,0.2,0.125,-35.0,1,0.0,0.21750100000008388
701,2,0.2,0.0625,35.0,1,1.0,0.4042010000000573
702,2,0.2,0.0625,35.0,1,1.0,0.4509010000001581
703,2,0.2,0.0,-35.0,-1,1.0,13.534401000000116
704,2,0.2,1.0,35.0,1,1.0,0.2013009999998303
705,2,0.2,0.125,35.0,1,1.0,0.27490099999999984
706,2,0.2,1.0,35.0,1,1.0,0.23470100000008642
707,2,0.2,0.0,35.0,1,1.0,0.23820100000011735
708,2,0.2,0.125,-35.0,-1,1.0,0.4449010000000726
709,2,0.2,0.0625,35.0,1,1.0,0.27830100000005586
710,2,0.2,0.125,35.0,1,1.0,0.3884010000001581
711,2,0.2,0.125,35.0,1,1.0,0.21840100000008533
712,2,0.2,0.0625,-35.0,1,0.0,0.20850100000006933
713,2,0.2,0.0625,-35.0,1,0.0,0.20860100000004422
714,2,0.2,1.0,-35.0,-1,1.0,0.23540100000013808
715,2,0.2,0.125,35.0,1,1.0,0.342000999999982
716,2,0.2,0.0625,35.0,-1,0.0,0.3120010000000093
717,2,0.2,0.25,-35.0,-1,1.0,0.3054010000000744
718,2,0.2,0.125,-35.0,1,0.0,0.29550099999983104
719,2,0.2,0.125,35.0,1,1.0,0.30230100000017046
720,2,0.2,1.0,35.0,1,1.0,0.21570100000030834
721,2,0.2,0.125,35.0,1,1.0,0.17570100000011735
722,2,0.2,0.25,35.0,1,1.0,0.27240099999994527
723,2,0.2,0.125,35.0,1,1.0,4.99260100000015
724,2,0.2,0.0,35.0,-1,0.0,0.4026010000002316
725,2,0.2,0.125,35.0,1,1.0,0.7926010000001042
726,2,0.2,0.0625,35.0,-1,0.0,0.19270099999994272
727,2,0.2,0.0625,35.0,1,1.0,0.2762009999999009
728,2,0.2,0.25,-35.0,-1,1.0,0.2895009999999729
729,2,0.2,0.0,35.0,1,1.0,0.2329010000000835
730,2,0.2,1.0,35.0,1,1.0,0.21620100000018283
731,2,0.2,1.0,35.0,1,1.0,0.2397009999999682
732,2,0.2,1.0,35.0,1,1.0,0.24310100000002421
733,2,0.2,0.0,35.0,1,1.0,0.299701000000141
734,2,0.2,0.0625,-35.0,1,0.0,0.2331010000000333
735,2,0.2,0.25,35.0,1,1.0,0.3166009999999915
736,2,0.2,0.125,35.0,1,1.0,0.3132010000003902
737,2,0.2,0.0625,35.0,1,1.0,0.30330099999991944
738,2,0.2,0.0625,-35.0,1,0.0,0.25660100000004604
739,2,0.2,0.25,35.0,1,1.0,0.46010099999989507
740,2,0.2,0.0,35.0,1,1.0,0.6603009999998903
741,2,0.2,0.25,-35.0,-1,1.0,0.24350100000015118
742,2,0.2,0.25,35.0,1,1.0,0.27690099999995255
743,2,0.2,0.25,35.0,1,1.0,0.2870010000001457
744,2,0.2,1.0,35.0,1,1.0,0.30370099999981903
745,2,0.2,0.125,35.0,1,1.0,0.26040100000000166
746,2,0.2,0.0625,35.0,1,1.0,0.34730100000001585
747,2,0.2,1.0,35.0,1,1.0,0.24400100000025304
748,2,0.2,0.25,35.0,1,1.0,0.2673010000000886
749,2,0.2,0.25,35.0,1,1.0,0.23390100000005987
750,2,0.2,0.125,35.0,1,1.0,0.30070100000011735
751,2,0.2,0.0625,-35.0,1,0.0,0.4774010000000999
752,2,0.2,0.0625,35.0,-1,0.0,12.027401000000054
753,2,0.2,0.25,35.0,1,1.0,0.29440100000010716
754,2,0.2,0.25,35.0,1,1.0,0.3479010000000926
755,2,0.2,1.0,35.0,1,1.0,0.2413010000000213
756,2,0.2,0.25,35.0,1,1.0,8.505000999999993
757,2,0.2,0.125,35.0,1,1.0,10.071901000000253
758,2,0.2,0.0,35.0,1,1.0,0.23890099999971426
759,2,0.2,0.125,35.0,-1,0.0,7.912300999999843
760,2,0.2,1.0,-35.0,-1,1.0,0.3059010000001763
761,2,0.2,0.125,35.0,1,1.0,0.5893009999995229
762,2,0.2,1.0,35.0,1,1.0,0.2793010000000322
763,2,0.2,1.0,35.0,1,1.0,0.2095009999998183
764,2,0.2,0.125,35.0,1,1.0,0.21280099999967206
765,2,0.2,0.125,35.0,1,1.0,0.2595010000000002
766,2,0.2,0.0625,35.0,1,1.0,0.24620099999947342
767,2,0.2,0.0625,35.0,1,1.0,0.18290099999967424
768,2,0.2,0.25,35.0,1,1.0,0.31620099999963713
769,2,0.2,0.125,35.0,1,1.0,0.4532009999998081
770,2,0.2,0.0625,35.0,1,1.0,0.2530010000000402
771,2,0.2,0.25,35.0,1,1.0,0.1998009999997521
772,2,0.2,0.25,-35.0,1,0.0,0.4666010000000824
773,2,0.2,0.0625,35.0,1,1.0,0.5466010000000097
774,2,0.8,0.25,-35.0,-1,1.0,6.5600009999993745
775,2,0.8,0.125,35.0,1,1.0,0.24360099999967133
776,2,0.8,1.0,-35.0,-1,1.0,0.23350099999970553
777,2,0.8,0.0,-35.0,1,0.0,0.30360099999961676
778,2,0.8,1.0,-35.0,-1,1.0,0.24710099999992963
779,2,0.8,0.0,-35.0,1,0.0,0.2737010000000737
780,2,0.8,1.0,-35.0,-1,1.0,0.20050099999980375
781,2,0.8,0.0,35.0,-1,0.0,0.25720099999989543
782,2,0.8,0.0,-35.0,-1,1.0,11.743901000000278
783,2,0.8,0.25,-35.0,-1,1.0,0.18090099999972153
784,2,0.8,0.25,-35.0,-1,1.0,0.334201000000121
785,2,0.8,0.0625,-35.0,1,0.0,0.4877010000000155
786,2,0.8,1.0,35.0,1,1.0,0.39110100000016246
787,2,0.8,1.0,35.0,1,1.0,0.3378010000001268
788,2,0.8,0.25,35.0,1,1.0,0.30450100000007296
789,2,0.8,0.0,35.0,-1,0.0,6.571201000000201
790,2,0.8,0.125,-35.0,1,0.0,0.44480099999964295
791,2,0.8,0.25,35.0,1,1.0,0.5215009999997164
792,2,0.8,0.0,-35.0,1,0.0,0.25490099999979066
793,2,0.8,0.125,-35.0,-1,1.0,0.3383009999997739
794,2,0.8,0.0625,35.0,1,1.0,0.22840099999984886
795,2,0.8,0.0625,-35.0,-1,1.0,0.27840100000003076
796,2,0.8,0.25,-35.0,-1,1.0,0.3051009999994676
797,2,0.8,0.125,-35.0,1,0.0,0.2718009999998685
798,2,0.8,0.125,35.0,-1,0.0,0.258600999999544
799,2,0.8,0.0625,-35.0,-1,1.0,0.582100999999966
800,2,0.8,0.0,-35.0,-1,1.0,0.35540099999980157
801,2,0.8,1.0,-35.0,-1,1.0,0.17880099999956656
802,2,0.8,0.0625,-35.0,-1,1.0,1.3422009999999318
803,2,0.8,0.25,35.0,1,1.0,0.3622009999999136
804,2,0.8,1.0,-35.0,-1,1.0,0.21900099999993472
805,2,0.8,0.25,-35.0,-1,1.0,0.30570099999977174
806,2,0.8,0.125,-35.0,-1,1.0,0.3426009999998314
807,2,0.8,0.125,-35.0,-1,1.0,0.3191009999995913
808,2,0.8,1.0,-35.0,-1,1.0,0.19920099999944796
809,2,0.8,0.125,-35.0,-1,1.0,0.26260099999990416
810,2,0.8,0.25,-35.0,-1,1.0,0.20270099999970626
811,2,0.8,0.0625,-35.0,-1,1.0,0.19930100000010498
812,2,0.8,0.0625,-35.0,-1,1.0,0.25270099999988815
813,2,0.8,0.25,-35.0,-1,1.0,0.19940100000030725
814,2,0.8,1.0,-35.0,-1,1.0,0.33960099999967497
815,2,0.8,0.0625,-35.0,-1,1.0,0.20290099999965605
816,2,0.8,0.0625,35.0,-1,0.0,0.26300099999980375
817,2,0.8,0.125,-35.0,-1,1.0,0.179700999999568
818,2,0.8,0.125,35.0,1,1.0,0.4065009999999347
819,2,0.8,0.0,-35.0,-1,1.0,16.6366009999997
820,2,0.8,0.125,-35.0,-1,1.0,0.22030099999983577
821,2,0.8,1.0,-35.0,-1,1.0,0.22690099999999802
822,2,0.8,1.0,35.0,1,1.0,0.3071009999994203
823,2,0.8,1.0,-35.0,-1,1.0,0.22040100000003804
824,2,0.8,0.25,-35.0,-1,1.0,0.457100999999966
825,2,0.8,0.0625,35.0,-1,0.0,0.7739010000000235
826,2,0.8,0.0,-35.0,1,0.0,0.5173009999998612
827,2,0.8,0.0625,-35.0,-1,1.0,0.3806009999998423
828,2,0.8,0.125,-35.0,-1,1.0,0.33080100000006496
829,2,0.8,0.25,-35.0,-1,1.0,0.1674009999996997
830,2,0.8,0.25,-35.0,-1,1.0,0.2508010000001377
831,2,0.8,0.0625,-35.0,-1,1.0,0.3109009999998307
832,2,0.8,0.25,-35.0,-1,1.0,0.20100100000036036
833,2,0.8,0.0625,-35.0,-1,1.0,0.23430099999995946
834,2,0.8,1.0,-35.0,-1,1.0,0.23100099999965096
835,2,0.8,0.0625,35.0,-1,0.0,0.25450099999989106
836,2,0.8,0.125,-35.0,-1,1.0,0.2612010000002556
837,2,0.8,0.0625,-35.0,-1,1.0,15.617901000000074
838,2,0.8,0.25,-35.0,-1,1.0,0.25500099999999293
839,2,0.8,1.0,-35.0,-1,1.0,0.21170100000017555
840,2,0.8,0.0625,-35.0,-1,1.0,0.2918009999998503
841,2,0.8,0.125,35.0,1,1.0,0.3951009999996131
842,2,0.8,0.125,-35.0,-1,1.0,0.5618009999998321
843,2,0.2,0.125,35.0,1,1.0,0.42190100000016173
844,2,0.2,0.125,35.0,1,1.0,0.2920009999998001
845,2,0.2,1.0,-35.0,-1,1.0,0.2620010000000548
846,2,0.2,1.0,35.0,1,1.0,0.2988009999994574
847,2,0.2,0.25,35.0,1,1.0,0.3988009999998212
848,2,0.2,0.0625,35.0,1,1.0,0.3555009999995491
849,2,0.2,0.0,35.0,1,1.0,0.36900100000002567
850,2,0.2,0.125,35.0,1,1.0,0.26560099999960585
851,2,0.2,0.0,35.0,1,1.0,0.25230099999998856
852,2,0.2,0.0625,35.0,1,1.0,0.36230099999966114
853,2,0.2,1.0,35.0,1,1.0,0.26910099999986414
854,2,0.2,1.0,-35.0,-1,1.0,0.6125009999996109
855,2,0.2,0.25,-35.0,-1,1.0,0.4091009999997368
856,2,0.2,0.0625,35.0,1,1.0,0.2426010000003771
857,2,0.2,0.0625,35.0,1,1.0,0.2859009999997397
858,2,0.2,0.0625,35.0,1,1.0,0.24270099999966988
859,2,0.2,0.0625,35.0,1,1.0,0.22600099999999657
860,2,0.2,0.125,35.0,1,1.0,0.269600999999966
861,2,0.2,0.25,35.0,1,1.0,0.22950099999980011
862,2,0.2,0.125,35.0,1,1.0,0.3895009999996546
863,2,0.2,0.0,35.0,1,1.0,0.2663009999996575
864,2,0.8,0.25,-35.0,1,0.0,0.21300099999962185
865,2,0.8,0.0625,-35.0,-1,1.0,46.406500999999935
866,2,0.8,1.0,-35.0,-1,1.0,0.3576009999997041
867,2,0.8,0.25,-35.0,-1,1.0,0.4643009999995229
868,2,0.8,0.25,-35.0,-1,1.0,0.2777009999999791
869,2,0.8,0.25,-35.0,-1,1.0,0.8411009999999806
870,2,0.8,0.0,-35.0,1,0.0,0.31780099999969025
871,2,0.8,0.25,-35.0,-1,1.0,0.44470099999989543
872,2,0.8,0.125,-35.0,-1,1.0,0.2481009999996786
873,2,0.8,0.125,35.0,1,1.0,0.26480099999980666
874,2,0.8,0.0625,35.0,1,1.0,0.4049009999998816
875,2,0.8,1.0,-35.0,-1,1.0,0.27140100000042366
876,2,0.8,0.125,-35.0,1,0.0,0.29830099999935555
877,2,0.8,0.125,-35.0,1,0.0,0.24160099999971862
878,2,0.8,1.0,-35.0,-1,1.0,0.08500099999946542
879,2,0.8,0.25,-35.0,-1,1.0,0.2218009999996866
880,2,0.8,0.0625,-35.0,1,0.0,0.25850099999934173
881,2,0.8,0.0625,-35.0,1,0.0,0.38180099999999584
882,2,0.8,0.25,-35.0,-1,1.0,0.2519009999996342
883,2,0.8,1.0,-35.0,-1,1.0,0.2754009999994196
884,2,0.8,0.25,-35.0,1,0.0,0.4321009999994203
885,2,0.8,0.25,-35.0,-1,1.0,0.4755009999998947
886,2,0.8,0.0,-0.0,0,0.0,59.9490009999995
887,2,0.8,0.0625,-35.0,-1,1.0,5.517200999999659
888,2,0.8,1.0,35.0,1,1.0,0.3107009999998809
889,2,0.8,0.125,-35.0,1,0.0,0.49060099999996964
890,2,0.8,0.25,-35.0,-1,1.0,0.5041009999999915
891,2,0.8,0.125,-35.0,-1,1.0,0.4108009999999922
892,2,0.2,1.0,35.0,1,1.0,0.35080100000004677
893,2,0.2,0.0625,35.0,-1,0.0,9.830801000000065
894,2,0.2,0.25,35.0,1,1.0,0.5113010000000031
895,2,0.2,0.125,35.0,1,1.0,33.44460099999969
896,2,0.2,1.0,35.0,1,1.0,0.2755010000000766
897,2,0.2,0.125,35.0,1,1.0,0.28560099999958766
898,2,0.2,1.0,-35.0,1,0.0,0.2823009999997339
899,2,0.2,0.25,-35.0,1,0.0,0.3057010000002265
900,2,0.2,0.25,35.0,1,1.0,0.24910099999988233
901,2,0.2,0.0,-35.0,1,0.0,7.972500999999738
902,2,0.2,1.0,35.0,1,1.0,0.2627009999996517
903,2,0.2,0.25,35.0,1,1.0,0.24950099999978192
904,2,0.2,1.0,35.0,1,1.0,0.23950099999956365
905,2,0.2,0.25,35.0,1,1.0,0.23630099999945742
906,2,0.2,1.0,35.0,1,1.0,0.26620099999991
907,2,0.2,0.0625,35.0,1,1.0,0.39970099999982267
908,2,0.2,0.125,35.0,1,1.0,0.20960100000002058
909,2,0.2,1.0,35.0,1,1.0,0.23650099999986196
910,2,0.2,0.0,-35.0,1,0.0,0.2566009999995913
911,2,0.2,0.0,35.0,1,1.0,0.22330099999953745
912,2,0.2,0.0625,35.0,1,1.0,0.27330099999971935
913,2,0.8,0.25,-35.0,-1,1.0,0.24660099999982776
914,2,0.8,1.0,-35.0,-1,1.0,0.49340099999972153
915,2,0.8,0.0625,-35.0,1,0.0,0.31680099999994127
916,2,0.8,0.125,-35.0,-1,1.0,0.40350100000023303
917,2,0.8,0.0,-35.0,1,0.0,0.29690100000016173
918,2,0.8,0.25,35.0,1,1.0,0.3403010000001814
919,2,0.8,1.0,35.0,1,1.0,0.19710099999974773
920,2,0.8,0.0625,-35.0,1,0.0,0.4237009999997099
921,2,0.8,0.125,-35.0,1,0.0,0.38040099999943777
922,2,0.8,0.125,-35.0,-1,1.0,0.26060099999995145
923,2,0.8,1.0,-35.0,-1,1.0,0.2539010000000417
924,2,0.8,0.0,-35.0,-1,1.0,6.924000999999407
925,2,0.8,0.0625,35.0,-1,0.0,0.25090099999988524
926,2,0.8,1.0,-35.0,-1,1.0,0.1976009999998496
927,2,0.8,0.125,-35.0,1,0.0,6.601000999999542
928,2,0.8,0.125,-35.0,-1,1.0,1.1712009999996553
929,2,0.8,0.25,-35.0,-1,1.0,12.641400999999405
930,2,0.8,0.125,-35.0,-1,1.0,3.981600999999955
931,2,0.8,0.0,-35.0,1,0.0,10.79180099999985
932,2,0.8,0.25,-35.0,-1,1.0,19.672100999999657
933,2,0.8,0.25,35.0,1,1.0,0.22930100000030507
934,2,0.8,0.0625,-35.0,-1,1.0,0.9028009999997266
935,2,0.8,0.25,35.0,1,1.0,0.30950099999972736
936,2,0.8,0.125,35.0,1,1.0,0.2595010000000002
937,2,0.8,0.0625,35.0,1,1.0,0.2862009999998918
938,2,0.8,0.125,-35.0,1,0.0,0.2361999999998261
939,2,0.8,0.25,-35.0,-1,1.0,0.23640100000011444
940,2,0.8,0.0625,-35.0,1,0.0,0.4431009999998423
941,2,0.8,1.0,35.0,1,1.0,0.2931009999992966
942,2,0.8,0.0625,-35.0,1,0.0,11.399900999999772
943,2,0.8,1.0,-35.0,-1,1.0,0.2802010000000337
944,2,0.8,0.25,-35.0,1,0.0,8.560200999999779
945,2,0.8,1.0,-35.0,-1,1.0,0.20060100000000602
946,2,0.8,0.125,-35.0,-1,1.0,0.2941009999999551
947,2,0.8,0.0625,-35.0,-1,1.0,33.21410100000003
948,2,0.8,1.0,-35.0,1,0.0,0.4786009999993439
949,2,0.8,0.125,-35.0,1,0.0,19.352000999999746
950,2,0.8,0.25,35.0,-1,0.0,4.996000999999978
951,2,0.8,0.0625,-35.0,-1,1.0,10.506000999999742
952,2,0.8,0.25,-35.0,-1,1.0,11.97970099999975
953,2,0.8,0.125,-35.0,-1,1.0,26.216700999999375
954,2,0.8,0.25,-35.0,-1,1.0,0.44420099999979357
955,2,0.8,0.0,-35.0,-1,1.0,0.48430099999995946
956,2,0.8,0.0,-35.0,1,0.0,0.3843010000000504
957,2,0.8,0.0625,-35.0,-1,1.0,0.244300999999723
958,2,0.8,0.0625,-35.0,-1,1.0,0.46100099999966915
959,2,0.8,0.0625,-35.0,-1,1.0,0.6411009999997077
960,2,0.8,0.0625,-35.0,1,0.0,7.651100999999926
961,2,0.8,0.25,-35.0,-1,1.0,0.23480100000006132
962,2,0.8,1.0,-35.0,-1,1.0,0.18480100000033417
963,2,0.8,0.0625,-35.0,1,0.0,55.64810099999977
964,2,0.8,0.25,-35.0,-1,1.0,0.9796010000000024
965,2,0.8,0.25,-35.0,-1,1.0,0.3764009999999871
966,2,0.8,1.0,-35.0,-1,1.0,0.21970099999998638
967,2,0.8,0.0625,-35.0,-1,1.0,7.736601000000064
968,2,0.2,0.0,35.0,1,1.0,13.31000099999983
969,2,0.2,0.0625,35.0,1,1.0,0.6537010000001828
970,2,0.2,0.125,35.0,1,1.0,0.46380099999942104
971,2,0.2,1.0,35.0,1,1.0,0.44060099999978775
972,2,0.2,0.125,35.0,-1,0.0,31.787300999999843
973,2,0.2,0.125,35.0,1,1.0,0.544800999999552
974,2,0.2,0.0625,35.0,1,1.0,7.151400999999623
975,2,0.2,1.0,35.0,1,1.0,0.3184009999999944
976,2,0.2,0.0625,35.0,-1,0.0,10.368500999999469
977,2,0.2,0.0625,35.0,1,1.0,21.919000999999753
978,2,0.2,1.0,35.0,1,1.0,0.276100999999926
979,2,0.2,0.0625,35.0,1,1.0,20.676300999999967
980,2,0.2,0.125,35.0,1,1.0,0.4268010000000686
981,2,0.2,0.25,35.0,1,1.0,0.6035010000000511
982,2,0.2,1.0,35.0,1,1.0,0.35020099999974263
983,2,0.2,0.0625,35.0,1,1.0,0.4436009999999442
984,2,0.2,0.25,35.0,1,1.0,0.40030099999967206
985,2,0.2,0.25,35.0,1,1.0,0.29700099999990925
986,2,0.2,0.25,35.0,1,1.0,0.48379999999951906
987,2,0.2,0.125,35.0,1,1.0,0.47050099999978556
988,2,0.2,0.25,35.0,1,1.0,0.270600999999715
989,2,0.2,0.25,35.0,1,1.0,0.27060100000016973
990,2,0.2,0.25,35.0,1,1.0,0.8439009999997324
991,2,0.2,0.0625,35.0,1,1.0,29.654100999999628
992,2,0.2,0.25,35.0,1,1.0,0.2714009999999689
993,2,0.2,0.0625,35.0,1,1.0,0.5248010000000249
994,2,0.2,1.0,35.0,1,1.0,0.3250009999997019
995,2,0.2,1.0,35.0,1,1.0,0.36160100000006423
996,2,0.2,0.0,-35.0,-1,1.0,1.0184009999998125
997,2,0.2,1.0,-35.0,-1,1.0,0.3317010000000664
998,2,0.2,0.0625,35.0,1,1.0,5.995201000000179
999,2,0.2,0.125,-35.0,1,0.0,0.3154009999993832
1000,2,0.2,1.0,35.0,1,1.0,0.20870100000001912
1001,2,0.2,1.0,35.0,1,1.0,0.30550099999982194
1002,2,0.2,1.0,35.0,1,1.0,0.22890099999995073
1003,2,0.2,0.125,35.0,1,1.0,6.638900999999805
1004,2,0.2,1.0,-35.0,-1,1.0,0.2858009999999922
1005,2,0.2,1.0,35.0,1,1.0,0.3791009999999915
1006,2,0.2,0.25,35.0,1,1.0,0.25920099999984814
1007,2,0.2,0.0625,-35.0,1,0.0,23.782600999999886
1008,2,0.2,0.0,-35.0,-1,1.0,21.77000100000032
1009,2,0.2,1.0,35.0,1,1.0,0.32060099999944214
1010,2,0.2,0.25,35.0,1,1.0,6.720600999999533
1011,2,0.2,0.0625,35.0,1,1.0,33.3242009999999
1012,2,0.2,0.25,-35.0,-1,1.0,4.748400999999831
1013,2,0.2,1.0,35.0,1,1.0,0.348500999999942
1014,2,0.2,1.0,-35.0,-1,1.0,0.1053009999995993
1015,2,0.2,0.125,35.0,-1,0.0,7.695300999999745
1016,2,0.2,0.25,-35.0,-1,1.0,0.2123009999995702
1017,2,0.2,0.125,35.0,-1,0.0,16.39230099999986
1018,2,0.2,1.0,35.0,1,1.0,0.7228009999994356
1019,2,0.2,0.25,35.0,1,1.0,0.13790100000005623
1020,2,0.2,0.0625,35.0,1,1.0,0.3863010000000031
1021,2,0.2,0.0625,35.0,1,1.0,5.519600999999511
1022,2,0.2,0.125,-35.0,-1,1.0,11.093100999999479
1023,2,0.2,0.25,35.0,1,1.0,2.326800999999705
1024,2,0.2,0.125,35.0,-1,0.0,18.90020099999947
1025,2,0.2,1.0,-35.0,-1,1.0,0.18410099999982776
1026,2,0.2,1.0,-35.0,-1,1.0,0.3642009999998663
1027,2,0.2,1.0,35.0,1,1.0,11.674301000000014
1028,2,0.2,0.25,35.0,-1,0.0,5.991300999999567
1029,2,0.2,1.0,35.0,1,1.0,0.3080009999998765
1,3,0.8,1.0,-35.0,-1,1.0,0.24570000000000014
2,3,0.8,0.0625,-35.0,-1,1.0,7.398999999999999
3,3,0.8,0.0,35.0,-1,0.0,0.508799999999999
4,3,0.8,0.25,-35.0,-1,1.0,0.20860000000000056
5,3,0.8,0.0,-35.0,1,0.0,0.31530000000000413
6,3,0.8,0.125,-35.0,-1,1.0,0.23879999999999768
7,3,0.8,0.125,-35.0,-1,1.0,0.1737999999999964
8,3,0.8,1.0,-35.0,-1,1.0,0.2176000000000009
9,3,0.8,0.25,-35.0,-1,1.0,2.332100000000004
10,3,0.8,0.125,-35.0,-1,1.0,0.240000000000002
11,3,0.8,0.25,35.0,1,1.0,8.2391
12,3,0.8,0.0,35.0,1,1.0,0.9635000000000034
13,3,0.8,0.25,35.0,1,1.0,0.22579999999999956
14,3,0.8,0.25,35.0,1,1.0,0.21390000000000242
15,3,0.8,1.0,35.0,1,1.0,0.32560000000000144
16,3,0.8,0.0,-35.0,1,0.0,0.3650999999999982
17,3,0.8,0.25,-35.0,-1,1.0,0.1962999999999937
18,3,0.8,0.25,35.0,1,1.0,0.2055999999999898
19,3,0.8,0.0625,-35.0,-1,1.0,0.40399999999999636
20,3,0.8,1.0,-35.0,-1,1.0,0.25789999999999225
21,3,0.8,0.125,-35.0,-1,1.0,0.7276999999999987
22,3,0.8,0.25,-35.0,-1,1.0,0.34959999999999525
23,3,0.8,0.25,-35.0,-1,1.0,0.2469999999999999
24,3,0.8,0.25,-35.0,-1,1.0,0.2032999999999987
25,3,0.8,0.0625,-35.0,-1,1.0,0.24029999999999063
26,3,0.8,0.0625,-35.0,1,0.0,0.2664999999999935
27,3,0.8,0.125,-35.0,-1,1.0,0.5316999999999865
28,3,0.8,0.0,-35.0,1,0.0,0.5644000000000062
29,3,0.8,0.125,35.0,1,1.0,0.22649999999998727
30,3,0.8,1.0,35.0,1,1.0,0.19819999999999993
31,3,0.8,0.0625,-35.0,1,0.0,0.2208999999999861
32,3,0.8,1.0,-35.0,-1,1.0,0.21349999999999625
33,3,0.8,0.0625,-35.0,1,0.0,0.2101990000000029
34,3,0.8,1.0,-35.0,-1,1.0,0.15749999999999886
35,3,0.8,0.0,-35.0,1,0.0,0.5127999999999986
36,3,0.8,1.0,-35.0,-1,1.0,0.13589999999999236
37,3,0.8,0.25,-35.0,-1,1.0,0.26909999999999457
38,3,0.8,0.125,35.0,1,1.0,0.42319999999999425
39,3,0.8,0.25,-35.0,-1,1.0,0.1646999999999963
40,3,0.8,1.0,-35.0,1,0.0,0.23289999999998656
41,3,0.8,1.0,35.0,1,1.0,0.2324000000000126
42,3,0.8,0.0625,-35.0,1,0.0,1.272199999999998
43,3,0.8,0.125,-35.0,1,0.0,0.361500000000035
44,3,0.8,0.25,35.0,1,1.0,0.21100000000001273
45,3,0.8,0.0625,-35.0,1,0.0,1.8369000000000142
46,3,0.8,1.0,-35.0,1,0.0,0.5186000000000206
47,3,0.8,0.0625,-35.0,1,0.0,0.3603000000000236
48,3,0.8,0.0625,35.0,1,1.0,0.31229999999999336
49,3,0.8,0.0625,-35.0,1,0.0,0.26599999999999113
50,3,0.8,0.125,-35.0,1,0.0,0.21649999999999636
51,3,0.8,0.125,35.0,1,1.0,0.2641999999999882
52,3,0.8,0.25,-35.0,-1,1.0,2.2841000000000236
53,3,0.8,0.125,-35.0,-1,1.0,0.2726000000000113
54,3,0.8,0.0625,-35.0,1,0.0,0.4713000000000136
55,3,0.8,0.0625,-35.0,-1,1.0,0.2820000000000107
56,3,0.8,0.25,-35.0,-1,1.0,0.28879999999998063
57,3,0.8,0.0625,35.0,-1,0.0,0.4615000000000009
58,3,0.8,1.0,-35.0,-1,1.0,0.16020000000000323
59,3,0.8,0.0,-35.0,1,0.0,3.3733000000000004
60,3,0.8,0.0625,35.0,1,1.0,0.5337000000000387
61,3,0.8,0.125,-35.0,-1,1.0,0.524799999999999
62,3,0.8,0.25,-35.0,1,0.0,0.6189999999999998
63,3,0.2,0.125,35.0,1,1.0,0.32840000000001623
64,3,0.2,0.0625,35.0,1,1.0,0.31569999999999254
65,3,0.2,0.0625,35.0,1,1.0,0.2664999999999793
66,3,0.2,0.25,35.0,1,1.0,0.23020000000002483
67,3,0.2,0.0625,35.0,1,1.0,0.2638000000000318
68,3,0.2,0.25,35.0,1,1.0,0.21330000000000382
69,3,0.2,0.125,35.0,1,1.0,0.23210000000003106
70,3,0.2,0.125,35.0,1,1.0,0.2143000000000086
71,3,0.2,1.0,-35.0,-1,1.0,0.2685000000000173
72,3,0.2,1.0,35.0,1,1.0,0.2600000000000193
73,3,0.2,1.0,35.0,1,1.0,0.2745999999999924
74,3,0.2,0.0625,35.0,1,1.0,0.5064000000000135
75,3,0.2,0.0625,35.0,1,1.0,0.27309999999999945
76,3,0.2,0.125,-35.0,1,0.0,0.5120000000000289
77,3,0.2,1.0,35.0,1,1.0,0.2588000000000079
78,3,0.2,0.0,35.0,1,1.0,0.2535000000000309
79,3,0.2,0.0625,35.0,1,1.0,0.24940000000003693
80,3,0.2,0.125,35.0,1,1.0,0.27129999999999654
81,3,0.2,0.25,35.0,1,1.0,0.30170000000001096
82,3,0.2,0.125,-35.0,1,0.0,2.4816000000000145
83,3,0.2,1.0,35.0,1,1.0,0.27070000000000505
84,3,0.2,0.125,35.0,1,1.0,0.5223000000000297
85,3,0.2,0.125,35.0,1,1.0,3.688900000000018
86,3,0.2,0.0625,35.0,1,1.0,0.23429999999996198
87,3,0.2,0.0625,-35.0,1,0.0,0.3102999999999838
88,3,0.2,1.0,35.0,1,1.0,0.2408999999999537
89,3,0.2,1.0,-35.0,-1,1.0,0.25790000000000646
90,3,0.2,0.125,35.0,1,1.0,0.2989000000000033
91,3,0.2,0.0,35.0,-1,0.0,0.5770999999999731
92,3,0.2,0.125,35.0,1,1.0,0.363900000000001
93,3,0.2,0.125,35.0,1,1.0,0.5354000000000383
94,3,0.2,0.125,35.0,1,1.0,0.40289999999998827
95,3,0.2,0.0625,35.0,1,1.0,0.26120000000003074
96,3,0.2,0.25,35.0,1,1.0,0.22809999999998354
97,3,0.2,0.25,35.0,1,1.0,0.22390000000001464
98,3,0.2,0.125,35.0,1,1.0,0.2586989999999787
99,3,0.2,1.0,35.0,1,1.0,0.22419999999999618
100,3,0.2,0.125,-35.0,1,0.0,0.28449999999998
101,3,0.2,0.25,35.0,1,1.0,0.19959999999997535
102,3,0.2,0.0,35.0,1,1.0,2.258799999999951
103,3,0.2,0.0625,35.0,1,1.0,0.2740999999999758
104,3,0.2,0.25,35.0,1,1.0,0.24049999999999727
105,3,0.2,0.0625,-35.0,1,0.0,0.21199999999993224
106,3,0.2,0.125,35.0,1,1.0,0.2098999999999478
107,3,0.2,0.25,35.0,1,1.0,0.21299999999996544
108,3,0.2,0.0,35.0,1,1.0,0.2541999999999689
109,3,0.2,0.0625,35.0,1,1.0,0.18329999999997426
110,3,0.2,0.125,35.0,1,1.0,0.43929999999994607
111,3,0.2,0.125,35.0,1,1.0,0.46120000000001937
112,3,0.2,1.0,35.0,1,1.0,0.20619999999996708
113,3,0.2,1.0,-35.0,-1,1.0,0.3089999999999691
114,3,0.2,1.0,35.0,1,1.0,0.24219999999996844
115,3,0.2,0.0625,35.0,1,1.0,0.2832000000000221
116,3,0.2,0.0625,35.0,1,1.0,0.2898999999999319
117,3,0.2,0.25,35.0,1,1.0,0.4963999999999942
118,3,0.2,0.25,35.0,1,1.0,0.380800000000022
119,3,0.2,0.0625,-35.0,-1,1.0,0.5904999999999632
120,3,0.2,0.0625,35.0,1,1.0,1.2199999999999704
121,3,0.2,0.125,-35.0,1,0.0,0.2552000000000021
122,3,0.2,0.125,35.0,1,1.0,0.2533999999999992
123,3,0.2,0.0,35.0,1,1.0,0.3077000000000112
124,3,0.2,1.0,-35.0,-1,1.0,0.2196999999999889
125,3,0.2,0.25,35.0,1,1.0,0.19889999999998054
126,3,0.2,0.0,35.0,1,1.0,0.257000000000005
127,3,0.2,1.0,35.0,1,1.0,0.29469999999997754
128,3,0.2,0.25,35.0,1,1.0,0.4843999999999369
129,3,0.2,0.125,35.0,1,1.0,0.335200000000043
130,3,0.2,0.125,35.0,1,1.0,0.45679999999993015
131,3,0.2,0.25,-35.0,-1,1.0,0.25569999999999027
132,3,0.2,0.25,-35.0,1,0.0,0.16089999999996962
133,3,0.2,0.0625,35.0,1,1.0,0.2390999999999508
134,3,0.2,0.25,35.0,1,1.0,0.21929999999997563
135,3,0.2,0.25,35.0,1,1.0,0.21649999999999636
136,3,0.2,0.25,35.0,1,1.0,0.4534999999999627
137,3,0.2,0.25,35.0,1,1.0,0.22969999999992297
138,3,0.2,0.125,35.0,1,1.0,0.32339999999999236
139,3,0.2,0.0625,-35.0,-1,1.0,0.8845999999999776
140,3,0.2,0.0625,35.0,1,1.0,0.24129999999996699
141,3,0.2,1.0,35.0,1,1.0,0.2507999999999697
142,3,0.2,0.25,35.0,1,1.0,0.2606000000000108
143,3,0.2,0.0625,35.0,1,1.0,0.2740999999999758
144,3,0.2,1.0,35.0,1,1.0,0.2419999999999618
145,3,0.2,0.0625,35.0,1,1.0,0.3050999999999817
146,3,0.2,1.0,-35.0,-1,1.0,0.5243999999999573
147,3,0.2,0.0625,35.0,1,1.0,0.26989999999995007
148,3,0.2,0.25,35.0,1,1.0,0.2178000000000111
149,3,0.2,1.0,35.0,1,1.0,0.2507999999999697
150,3,0.2,0.0625,-35.0,1,0.0,0.25090000000000146
151,3,0.2,0.125,-35.0,-1,1.0,0.495399999999961
152,3,0.2,0.0625,35.0,1,1.0,0.4257999999999811
153,3,0.2,1.0,35.0,1,1.0,0.28359999999997854
154,3,0.2,1.0,-35.0,-1,1.0,0.24139999999994188
155,3,0.2,1.0,35.0,1,1.0,0.2525999999999726
156,3,0.2,0.0,35.0,1,1.0,0.2785999999999831
157,3,0.2,0.0625,35.0,-1,0.0,0.5287999999999897
158,3,0.8,0.0,-35.0,1,0.0,0.3281000000000063
159,3,0.8,1.0,-35.0,-1,1.0,0.2595999999999776
160,3,0.8,0.125,35.0,1,1.0,0.33300000000002683
161,3,0.8,0.125,-35.0,1,0.0,0.5878999999999905
162,3,0.8,0.125,-35.0,-1,1.0,0.33039999999999736
163,3,0.8,0.125,35.0,1,1.0,0.25029999999998154
164,3,0.8,1.0,-35.0,-1,1.0,0.5970999999999549
165,3,0.8,0.25,-35.0,-1,1.0,0.4463999999999828
166,3,0.8,0.0,35.0,-1,0.0,0.3813000000000102
167,3,0.8,0.25,35.0,-1,0.0,0.16489999999993188
168,3,0.8,0.125,-35.0,-1,1.0,0.40039999999999054
169,3,0.8,0.0625,-35.0,-1,1.0,0.46550000000002
170,3,0.8,0.0625,-35.0,-1,1.0,0.26729999999997744
171,3,0.8,0.0625,35.0,-1,0.0,0.4124999999999659
172,3,0.8,0.0625,-35.0,-1,1.0,0.4448000000000434
173,3,0.8,0.0625,-35.0,-1,1.0,0.28350000000000364
174,3,0.8,0.25,-35.0,-1,1.0,0.24139999999994188
175,3,0.8,1.0,-35.0,-1,1.0,0.20490000000000919
176,3,0.8,0.125,-35.0,-1,1.0,0.27919999999994616
177,3,0.8,1.0,-35.0,-1,1.0,0.2548999999999637
178,3,0.8,0.0,35.0,-1,0.0,0.33740000000000236
179,3,0.8,0.125,35.0,-1,0.0,0.4066999999999439
180,3,0.8,0.25,35.0,1,1.0,0.15399999999999636
181,3,0.8,0.0625,-35.0,1,0.0,0.18409999999994398
182,3,0.8,0.25,35.0,1,1.0,0.271699999999953
183,3,0.8,0.0,-35.0,1,0.0,0.22749999999996362
184,3,0.8,1.0,-35.0,-1,1.0,0.16660000000001673
185,3,0.8,0.125,-35.0,-1,1.0,0.35669999999998936
186,3,0.8,0.25,-35.0,-1,1.0,0.3077000000000112
187,3,0.8,1.0,-35.0,-1,1.0,0.22140000000001692
188,3,0.8,1.0,-35.0,-1,1.0,0.21319999999991524
189,3,0.8,0.125,-35.0,-1,1.0,0.46059999999999945
190,3,0.8,0.25,35.0,1,1.0,0.3565999999999576
191,3,0.8,0.25,-35.0,-1,1.0,0.3143999999999778
192,3,0.8,0.25,35.0,1,1.0,0.21259999999995216
193,3,0.8,1.0,-35.0,-1,1.0,0.24679999999989377
194,3,0.8,0.25,-35.0,-1,1.0,0.23919999999998254
195,3,0.2,0.125,35.0,1,1.0,0.22109999999997854
196,3,0.2,0.0625,35.0,1,1.0,0.4652999999999565
197,3,0.2,1.0,35.0,1,1.0,0.28340000000002874
198,3,0.2,0.25,35.0,1,1.0,0.219600000000014
199,3,0.2,0.25,-35.0,-1,1.0,0.2643000000000484
200,3,0.2,0.25,35.0,1,1.0,0.2219000000000051
201,3,0.2,0.25,35.0,1,1.0,0.2320999999999458
202,3,0.2,0.25,-35.0,-1,1.0,0.39609999999993306
203,3,0.2,1.0,35.0,1,1.0,0.22260000000005675
204,3,0.2,1.0,35.0,1,1.0,0.27140000000008513
205,3,0.2,1.0,35.0,1,1.0,0.30379999999991014
206,3,0.2,1.0,-35.0,-1,1.0,0.297800000000052
207,3,0.2,1.0,35.0,1,1.0,0.27769999999998163
208,3,0.2,0.25,35.0,1,1.0,0.22850000000005366
209,3,0.2,0.25,-35.0,-1,1.0,0.4974000000000842
210,3,0.2,0.125,35.0,1,1.0,0.7056999999998652
211,3,0.2,0.25,35.0,1,1.0,0.2158999999999196
212,3,0.2,0.125,35.0,1,1.0,0.5267999999999802
213,3,0.2,0.125,35.0,1,1.0,0.4438999999999851
214,3,0.2,0.125,35.0,1,1.0,0.46630000000004657
215,3,0.2,0.25,35.0,1,1.0,0.516399999999976
216,3,0.2,0.125,35.0,1,1.0,0.520900000000097
217,3,0.2,0.25,35.0,1,1.0,0.22030000000006567
218,3,0.2,1.0,35.0,1,1.0,0.20699999999999363
219,3,0.2,0.25,35.0,1,1.0,0.26689999999996417
220,3,0.2,0.0,35.0,1,1.0,0.17319999999995161
221,3,0.2,0.125,35.0,-1,0.0,0.1835999999999558
222,3,0.2,0.25,35.0,1,1.0,0.29150000000004184
223,3,0.2,0.0625,35.0,1,1.0,0.393100000000004
224,3,0.2,1.0,35.0,1,1.0,0.2380000000000564
225,3,0.2,0.125,-35.0,-1,1.0,0.5174999999999272
226,3,0.2,0.125,35.0,1,1.0,0.19139999999993051
227,3,0.2,0.0,35.0,1,1.0,0.23930000000007112
228,3,0.2,1.0,35.0,1,1.0,0.525600000000054
229,3,0.2,0.125,35.0,1,1.0,0.36770000000001346
230,3,0.2,0.0625,35.0,1,1.0,0.23429999999996198
231,3,0.2,0.0625,35.0,1,1.0,0.5602000000000089
232,3,0.2,0.0625,35.0,1,1.0,0.32809999999994943
233,3,0.2,0.25,35.0,1,1.0,0.22669999999993706
234,3,0.2,1.0,35.0,1,1.0,0.09329999999999927
235,3,0.2,0.25,35.0,1,1.0,0.29570000000001073
236,3,0.2,0.0625,35.0,1,1.0,0.24660000000005766
237,3,0.2,0.0,35.0,1,1.0,0.14190000000007785
238,3,0.2,0.25,35.0,1,1.0,0.07339999999999236
239,3,0.2,0.125,-35.0,-1,1.0,0.25699999999994816
240,3,0.2,1.0,35.0,1,1.0,0.2118000000000393
241,3,0.2,0.125,35.0,1,1.0,0.2400000000000091
242,3,0.2,0.0625,-35.0,1,0.0,0.33550000000002456
243,3,0.2,0.25,35.0,1,1.0,0.16379999999992378
244,3,0.8,0.25,-35.0,-1,1.0,0.2516000000000531
245,3,0.8,1.0,35.0,1,1.0,0.21700000000009823
246,3,0.8,0.0625,-35.0,-1,1.0,0.4153999999999769
247,3,0.8,0.125,-35.0,-1,1.0,0.4839999999999236
248,3,0.8,0.25,-35.0,1,0.0,0.18460000000004584
249,3,0.8,0.0625,35.0,1,1.0,0.320699999999988
250,3,0.8,0.0,-35.0,1,0.0,0.27289999999993597
251,3,0.8,0.125,-35.0,-1,1.0,0.27549999999996544
252,3,0.8,0.125,-35.0,1,0.0,0.4189000000000078
253,3,0.8,1.0,-35.0,-1,1.0,0.13839999999993324
254,3,0.8,0.0625,35.0,1,1.0,0.31960000000003674
255,3,0.8,1.0,-35.0,-1,1.0,0.2459999999999809
256,3,0.8,0.0625,-35.0,1,0.0,0.46289999999999054
257,3,0.8,0.25,35.0,1,1.0,0.36099999999999
258,3,0.8,1.0,-35.0,-1,1.0,0.20089999999993324
259,3,0.8,0.25,35.0,1,1.0,0.4372999999999365
260,3,0.8,0.125,-35.0,-1,1.0,0.2765999999999167
261,3,0.8,0.0625,35.0,1,1.0,0.4736000000000331
262,3,0.8,1.0,-35.0,-1,1.0,0.21269999999992706
263,3,0.8,0.0625,-35.0,-1,1.0,0.362700000000018
264,3,0.8,1.0,35.0,1,1.0,0.2706999999999198
265,3,0.8,0.25,-35.0,-1,1.0,0.268100000000004
266,3,0.8,0.25,-35.0,-1,1.0,0.22879999999997835
267,3,0.8,0.0,-35.0,-1,1.0,0.34979999999995925
268,3,0.8,0.25,-35.0,-1,1.0,0.5484999999998763
269,3,0.8,0.0,-35.0,-1,1.0,0.49749999999994543
270,3,0.8,0.0625,-35.0,-1,1.0,0.4213999999999487
271,3,0.8,0.0625,35.0,-1,0.0,0.9845000000000255
272,3,0.8,0.125,35.0,1,1.0,0.7812999999999874
273,3,0.8,0.125,-35.0,-1,1.0,0.1914999999999054
274,3,0.8,0.0625,-35.0,-1,1.0,0.3446999999999889
275,3,0.8,1.0,35.0,1,1.0,0.262299999999982
276,3,0.8,1.0,-35.0,-1,1.0,0.1997000000000071
277,3,0.8,1.0,35.0,1,1.0,0.21859999999992397
278,3,0.8,1.0,-35.0,-1,1.0,0.1716000000000122
279,3,0.8,0.0,-35.0,1,0.0,0.4317999999999529
280,3,0.8,0.125,-35.0,-1,1.0,0.19909999999993033
281,3,0.8,0.0625,-35.0,-1,1.0,0.2792989999999236
282,3,0.8,0.0625,35.0,-1,0.0,0.3423000000000229
283,3,0.8,0.125,-35.0,-1,1.0,7.975400000000036
284,3,0.8,0.0,35.0,1,1.0,0.2879999999998972
285,3,0.8,1.0,35.0,1,1.0,0.2759000000000924
286,3,0.8,1.0,-35.0,-1,1.0,0.24249999999994998
287,3,0.8,0.0625,-35.0,1,0.0,0.3857999999999038
288,3,0.8,1.0,-35.0,-1,1.0,0.3103999999999587
289,3,0.8,0.25,-35.0,1,0.0,0.21050000000002456
290,3,0.8,0.125,35.0,1,1.0,0.22910000000001673
291,3,0.8,0.125,-35.0,1,0.0,0.2898000000000138
292,3,0.8,0.0,-35.0,1,0.0,3.9711999999999534
293,3,0.8,1.0,-35.0,-1,1.0,0.5544999999999618
294,3,0.8,0.25,-35.0,-1,1.0,0.17519999999990432
295,3,0.8,1.0,-35.0,-1,1.0,0.18279999999992924
296,3,0.8,1.0,-35.0,-1,1.0,0.2358999999999014
297,3,0.8,1.0,-35.0,-1,1.0,0.40620000000001255
298,3,0.8,1.0,-35.0,-1,1.0,0.22120000000006712
299,3,0.8,0.0625,-35.0,-1,1.0,0.2623999999999569
300,3,0.8,1.0,-35.0,-1,1.0,0.31999999999993634
301,3,0.8,0.25,-35.0,-1,1.0,0.3950990000000729
302,3,0.8,0.25,-35.0,-1,1.0,0.31589999999994234
303,3,0.8,0.125,35.0,1,1.0,0.2999999999999545
304,3,0.8,0.0625,-35.0,-1,1.0,0.5580999999999676
305,3,0.8,0.125,35.0,1,1.0,0.3854999999999791
306,3,0.8,0.0625,-35.0,-1,1.0,0.2477000000000089
307,3,0.8,0.0625,-35.0,1,0.0,0.4298000000000002
308,3,0.8,0.0625,-35.0,1,0.0,0.3509999999999991
309,3,0.8,0.25,-35.0,-1,1.0,0.18609999999989668
310,3,0.8,0.125,-35.0,-1,1.0,0.21619999999995798
311,3,0.8,0.25,-35.0,-1,1.0,0.1591999999999416
312,3,0.8,0.25,-35.0,-1,1.0,0.4257000000000062
313,3,0.8,0.0,-35.0,1,0.0,0.4597999999998592
314,3,0.8,0.25,-35.0,-1,1.0,0.22329999999999472
315,3,0.8,0.125,35.0,1,1.0,0.310100000000034
316,3,0.8,0.25,-35.0,1,0.0,0.25480000000004566
317,3,0.8,0.25,-35.0,-1,1.0,0.19230000000004566
318,3,0.8,0.0625,35.0,1,1.0,0.23289999999997235
319,3,0.8,1.0,35.0,1,1.0,0.265700000000038
320,3,0.8,0.25,35.0,1,1.0,0.31920000000002346
321,3,0.8,0.125,35.0,1,1.0,0.30700000000001637
322,3,0.8,0.0625,-35.0,1,0.0,0.28909999999996217
323,3,0.8,0.125,-35.0,-1,1.0,0.16660000000001673
324,3,0.2,1.0,35.0,1,1.0,0.255800000000022
325,3,0.2,0.25,35.0,1,1.0,0.41899999999986903
326,3,0.2,0.0,35.0,1,1.0,0.39819999999986067
327,3,0.2,0.0,35.0,1,1.0,0.7894000000001142
328,3,0.2,0.0625,35.0,1,1.0,0.6832000000000562
329,3,0.2,0.125,35.0,1,1.0,0.44229999999993197
330,3,0.2,0.0625,35.0,1,1.0,0.7494000000000369
331,3,0.2,0.25,-35.0,-1,1.0,0.22299999999995634
332,3,0.2,1.0,-35.0,-1,1.0,0.20100000000002183
333,3,0.2,0.25,35.0,1,1.0,0.47090000000002874
334,3,0.2,0.0625,-35.0,-1,1.0,0.5163999999998623
335,3,0.2,1.0,35.0,1,1.0,0.2866000000000213
336,3,0.2,0.125,35.0,1,1.0,0.4016999999998916
337,3,0.2,1.0,-35.0,-1,1.0,0.34699999999998
338,3,0.2,0.0625,35.0,1,1.0,0.5425000000001319
339,3,0.2,0.25,35.0,1,1.0,0.26309999999989486
340,3,0.2,1.0,35.0,1,1.0,0.2379000000000815
341,3,0.2,1.0,35.0,1,1.0,0.24350000000004002
342,3,0.2,1.0,35.0,1,1.0,0.2927000000000817
343,3,0.2,1.0,35.0,1,1.0,0.5570000000000164
344,3,0.2,1.0,35.0,1,1.0,0.3834000000000515
345,3,0.2,0.125,35.0,1,1.0,0.3301000000000158
346,3,0.2,0.125,35.0,-1,0.0,0.3630999999999176
347,3,0.2,0.125,35.0,1,1.0,0.2921000000000049
348,3,0.2,0.25,35.0,1,1.0,0.282100000000014
349,3,0.2,0.25,35.0,1,1.0,0.36209999999994125
350,3,0.2,1.0,35.0,1,1.0,0.24919999999997344
351,3,0.2,0.25,35.0,1,1.0,0.26389899999992394
352,3,0.2,0.25,-35.0,-1,1.0,0.6744999999999663
353,3,0.2,0.25,35.0,1,1.0,0.3145000000000664
354,3,0.2,0.25,35.0,1,1.0,0.40189999999995507
355,3,0.2,0.25,35.0,1,1.0,0.3121999999999616
356,3,0.8,1.0,35.0,1,1.0,0.23710000000005493
357,3,0.8,0.0625,-35.0,1,0.0,0.4296999999999116
358,3,0.8,0.125,-35.0,-1,1.0,0.37220000000002074
359,3,0.8,1.0,35.0,1,1.0,0.18669999999985976
360,3,0.8,1.0,-35.0,-1,1.0,0.19450000000006185
361,3,0.8,0.125,-35.0,-1,1.0,0.7000000000000455
362,3,0.8,0.125,-35.0,-1,1.0,0.32519999999999527
363,3,0.8,0.125,-35.0,-1,1.0,0.11789999999996326
364,3,0.8,0.0625,-35.0,-1,1.0,0.27740000000005693
365,3,0.8,1.0,35.0,1,1.0,0.2544999999998936
366,3,0.8,1.0,-35.0,-1,1.0,0.29569999999989705
367,3,0.8,0.125,-35.0,1,0.0,0.4496000000000322
368,3,0.8,0.125,-35.0,-1,1.0,0.2619999999999436
369,3,0.8,0.25,35.0,1,1.0,0.29169999999999163
370,3,0.8,0.25,-35.0,-1,1.0,0.2415000000000873
371,3,0.8,1.0,-35.0,-1,1.0,0.28969999999992524
372,3,0.8,0.25,-35.0,-1,1.0,0.28959999999995034
373,3,0.8,0.25,-35.0,-1,1.0,0.6124999999999545
374,3,0.8,0.0,-35.0,-1,1.0,0.17889999999999873
375,3,0.8,0.0625,-35.0,-1,1.0,0.28500000000008185
376,3,0.8,1.0,-35.0,-1,1.0,0.4919999999998481
377,3,0.8,1.0,-35.0,-1,1.0,0.16830000000004475
378,3,0.8,0.25,-35.0,-1,1.0,0.45319999999992433
379,3,0.8,0.0625,-35.0,1,0.0,0.3120999999999867
380,3,0.8,1.0,-35.0,-1,1.0,0.14239999999995234
381,3,0.8,0.0,-35.0,1,0.0,0.3410999999999831
382,3,0.8,1.0,-35.0,-1,1.0,0.1594999999998663
383,3,0.8,0.0625,-35.0,1,0.0,0.2962999999999738
384,3,0.8,0.125,-35.0,-1,1.0,0.15989999999999327
385,3,0.8,0.0625,35.0,1,1.0,0.29099999999994
386,3,0.8,1.0,35.0,1,1.0,0.22489999999993415
387,3,0.8,1.0,-35.0,-1,1.0,0.21249999999997726
388,3,0.8,1.0,-35.0,-1,1.0,0.23710000000005493
389,3,0.8,1.0,-35.0,-1,1.0,0.38239999999996144
390,3,0.8,0.25,35.0,1,1.0,0.28939999999988686
391,3,0.8,0.125,-35.0,-1,1.0,0.19649999999990087
392,3,0.8,1.0,-35.0,-1,1.0,0.12339999999994689
393,3,0.8,0.0625,-35.0,-1,1.0,0.40989999999999327
394,3,0.2,0.0625,35.0,-1,0.0,0.2599999999999909
395,3,0.2,0.0,-35.0,1,0.0,0.8761999999999261
396,3,0.2,0.0,35.0,-1,0.0,0.5004999999999882
397,3,0.2,0.25,35.0,1,1.0,0.35350000000016735
398,3,0.2,0.0625,35.0,1,1.0,0.3898999999998978
399,3,0.2,0.25,35.0,1,1.0,0.3532000000000153
400,3,0.2,0.0625,35.0,1,1.0,0.49319999999988795
401,3,0.2,1.0,35.0,1,1.0,0.43650000000002365
402,3,0.2,0.25,-35.0,-1,1.0,0.4239000000000033
403,3,0.2,0.0625,35.0,1,1.0,0.300499999999829
404,3,0.2,1.0,35.0,1,1.0,0.32349999999996726
405,3,0.2,1.0,-35.0,-1,1.0,0.35369999999988977
406,3,0.2,0.25,35.0,1,1.0,0.35390000000006694
407,3,0.2,0.0625,35.0,1,1.0,0.2940000000000964
408,3,0.2,0.125,35.0,1,1.0,0.3772000000001299
409,3,0.2,0.25,35.0,1,1.0,0.5272999999999683
410,3,0.2,0.0,35.0,1,1.0,0.42469999999980246
411,3,0.2,0.125,35.0,1,1.0,0.28710000000000946
412,3,0.2,0.125,35.0,1,1.0,0.2538999999999305
413,3,0.2,1.0,-35.0,-1,1.0,0.2238999999999578
414,3,0.2,0.125,-35.0,-1,1.0,0.23749999999995453
415,3,0.2,0.0625,35.0,1,1.0,0.3044999999999618
416,3,0.2,1.0,-35.0,-1,1.0,0.26090000000021973
417,3,0.2,0.125,35.0,1,1.0,0.4276999999999589
418,3,0.2,1.0,35.0,1,1.0,0.2742999999998119
419,3,0.2,0.25,35.0,-1,0.0,0.24110000000018772
420,3,0.2,0.0625,35.0,1,1.0,0.2614000000000942
421,3,0.2,0.125,-35.0,-1,1.0,0.8710000000000946
422,3,0.2,0.25,35.0,1,1.0,0.3281000000001768
423,3,0.2,1.0,35.0,1,1.0,0.27119900000002417
424,3,0.2,0.25,35.0,1,1.0,0.3347000000001117
425,3,0.2,0.125,-35.0,-1,1.0,0.39800000000013824
426,3,0.2,0.25,35.0,1,1.0,0.34179999999992106
427,3,0.2,0.25,-35.0,-1,1.0,0.5419999999999163
428,3,0.2,0.125,35.0,1,1.0,0.4151999999999134
429,3,0.2,0.0625,35.0,1,1.0,0.3949000000000069
430,3,0.2,0.25,35.0,1,1.0,0.34189999999989595
431,3,0.2,0.25,35.0,1,1.0,0.4414999999999054
432,3,0.2,0.25,35.0,1,1.0,0.2857000000001335
433,3,0.2,0.125,35.0,1,1.0,0.46880000000010114
434,3,0.2,0.125,35.0,1,1.0,0.2882999999999356
435,3,0.2,1.0,35.0,1,1.0,0.2423999999998614
436,3,0.2,0.0625,-35.0,1,0.0,0.4417999999998301
437,3,0.2,0.0625,35.0,-1,0.0,0.19539999999983593
438,3,0.2,1.0,35.0,1,1.0,0.2821000000001277
439,3,0.2,0.125,35.0,1,1.0,0.24230000000011387
440,3,0.2,0.0,35.0,1,1.0,0.30189999999993233
441,3,0.2,0.0,35.0,1,1.0,0.3953999999998814
442,3,0.8,1.0,-35.0,-1,1.0,0.24569999999994252
443,3,0.8,0.0625,-35.0,1,0.0,0.3327999999999065
444,3,0.8,0.0625,-35.0,-1,1.0,0.24559999999996762
445,3,0.8,0.0625,-35.0,1,0.0,0.309099999999944
446,3,0.8,0.125,-35.0,-1,1.0,0.4157999999999902
447,3,0.8,0.125,-35.0,-1,1.0,0.2599999999999909
448,3,0.8,0.0,-35.0,1,0.0,0.21610000000009677
449,3,0.8,0.0625,-35.0,1,0.0,0.27320000000008804
450,3,0.8,1.0,-35.0,-1,1.0,0.19269999999983156
451,3,0.8,0.125,35.0,1,1.0,0.23939999999993233
452,3,0.8,0.0,-35.0,-1,1.0,0.24289999999996326
453,3,0.8,0.0625,-35.0,-1,1.0,0.14979999999991378
454,3,0.8,1.0,-35.0,-1,1.0,0.2399000000000342
455,3,0.8,0.25,-35.0,-1,1.0,0.18319999999994252
456,3,0.8,0.0,-35.0,1,0.0,0.6094999999997981
457,3,0.8,1.0,-35.0,-1,1.0,0.16350000000011278
458,3,0.8,0.0625,-35.0,-1,1.0,5.959999999999809
459,3,0.8,0.25,-35.0,-1,1.0,0.19319999999993342
