trial_num,session_num,stim_probability_left,contrast,position,response_choice,trial_correct,reaction_time
1,13,0.5,0.0,-35.0,-1,1.0,25.849700000000002
2,13,0.5,0.0625,-35.0,-1,1.0,0.3866999999999976
3,13,0.5,0.0625,-35.0,1,0.0,0.3575000000000017
4,13,0.5,0.0625,35.0,-1,0.0,0.23329999999999984
5,13,0.5,0.0625,-35.0,-1,1.0,0.6809999999999974
6,13,0.5,0.125,35.0,1,1.0,0.553600000000003
7,13,0.5,0.0625,-35.0,1,0.0,3.2483000000000004
8,13,0.5,0.0625,35.0,1,1.0,0.40979999999999706
9,13,0.5,0.125,-35.0,-1,1.0,0.47639999999999816
10,13,0.5,0.0625,-35.0,1,0.0,0.19059999999998922
11,13,0.5,0.125,-35.0,-1,1.0,0.311399999999999
12,13,0.5,0.0,-35.0,1,0.0,0.4332999999999956
13,13,0.5,0.125,-35.0,-1,1.0,0.2856999999999914
14,13,0.5,0.0,35.0,-1,0.0,0.25390000000000157
15,13,0.5,0.0,-35.0,1,0.0,0.31639999999998736
16,13,0.5,0.25,35.0,1,1.0,0.24830000000001462
17,13,0.5,0.0,35.0,-1,0.0,5.513800000000003
18,13,0.5,0.125,-35.0,-1,1.0,0.23930000000000007
19,13,0.5,0.0625,-35.0,-1,1.0,2.919799999999995
20,13,0.5,0.125,-35.0,-1,1.0,0.7348999999999961
21,13,0.5,1.0,35.0,1,1.0,0.3281000000000063
22,13,0.5,0.25,-35.0,-1,1.0,0.3902999999999963
23,13,0.5,1.0,-35.0,-1,1.0,0.40270000000001005
24,13,0.5,1.0,35.0,1,1.0,0.2937000000000012
25,13,0.5,1.0,-35.0,-1,1.0,0.38040000000000873
26,13,0.5,0.125,35.0,1,1.0,0.3078000000000003
27,13,0.5,1.0,35.0,1,1.0,0.31520000000000437
28,13,0.5,1.0,-35.0,-1,1.0,0.8371000000000066
29,13,0.5,0.0625,35.0,-1,0.0,5.222200000000001
30,13,0.4,0.0625,-35.0,1,0.0,0.44319999999999027
31,13,0.5,1.0,35.0,1,1.0,0.2782999999999731
32,13,0.5,1.0,-35.0,-1,1.0,0.21699999999998454
33,13,0.5,0.25,35.0,1,1.0,0.42880000000002383
34,13,0.5,0.0625,35.0,1,1.0,5.3075000000000045
35,13,0.5,1.0,-35.0,-1,1.0,0.7878999999999792
36,13,0.5,0.25,35.0,1,1.0,5.2757000000000005
37,13,0.5,0.0625,-35.0,-1,1.0,7.795599999999979
38,13,0.5,0.0625,-35.0,-1,1.0,0.5022000000000162
39,13,0.5,0.0625,35.0,1,1.0,0.4064999999999941
40,13,0.5,0.25,35.0,-1,0.0,0.44589999999999463
41,13,0.5,0.0,35.0,-1,0.0,0.30289999999999395
42,13,0.5,0.125,-35.0,-1,1.0,0.31919999999999504
43,13,0.5,1.0,35.0,1,1.0,0.3200999999999965
44,13,0.5,0.0625,35.0,1,1.0,4.899400000000014
45,13,0.5,1.0,35.0,1,1.0,0.27240000000000464
46,13,0.5,0.25,35.0,1,1.0,4.870900000000006
47,13,0.5,1.0,-35.0,-1,1.0,0.16729999999998313
48,13,0.5,1.0,-35.0,-1,1.0,0.4088999999999885
49,13,0.5,0.125,35.0,1,1.0,0.3108000000000004
50,13,0.5,0.25,-35.0,-1,1.0,0.6144000000000176
51,13,0.5,0.25,-35.0,-1,1.0,0.34789999999998145
52,13,0.5,0.25,-35.0,-1,1.0,0.2662000000000262
53,13,0.5,1.0,35.0,1,1.0,0.3982000000000028
54,13,0.5,1.0,35.0,1,1.0,0.3696000000000197
55,13,0.5,0.125,35.0,1,1.0,5.27679999999998
56,13,0.5,0.25,35.0,1,1.0,0.3130999999999915
57,13,0.5,0.25,35.0,1,1.0,3.7964999999999804
58,13,0.5,0.0625,-35.0,-1,1.0,0.35590000000001965
59,13,0.5,0.125,-35.0,-1,1.0,2.837999999999994
60,13,0.5,0.125,-35.0,-1,1.0,0.5335000000000036
61,13,0.5,0.125,35.0,1,1.0,0.7192999999999188
62,13,0.5,1.0,-35.0,-1,1.0,0.3661999999999921
63,13,0.5,0.0625,-35.0,-1,1.0,0.467899999999986
64,13,0.5,0.0625,-35.0,-1,1.0,0.49490000000002965
65,13,0.5,1.0,-35.0,-1,1.0,0.4182999999999879
66,13,0.5,0.125,35.0,-1,0.0,6.428399999999954
67,13,0.5,0.0625,35.0,1,1.0,0.38599999999996726
68,13,0.5,0.25,-35.0,-1,1.0,0.48980000000000246
69,13,0.5,1.0,35.0,1,1.0,0.30340000000001055
70,13,0.5,0.25,35.0,1,1.0,9.337699999999984
71,13,0.5,0.25,-35.0,-1,1.0,0.3772999999999911
72,13,0.5,0.25,35.0,1,1.0,0.5324999999999704
73,13,0.5,0.0625,-35.0,-1,1.0,0.7443000000000097
74,13,0.5,0.25,-35.0,-1,1.0,0.6680000000000064
75,13,0.5,0.0625,-35.0,1,0.0,4.504699999999957
76,13,0.5,0.0625,-35.0,-1,1.0,0.4535999999999376
77,13,0.5,1.0,35.0,1,1.0,0.2908999999999651
78,13,0.5,0.125,-35.0,-1,1.0,0.7293999999999414
79,13,0.5,0.0625,35.0,1,1.0,0.7937000000000012
80,13,0.5,0.125,-35.0,-1,1.0,0.37499999999994316
81,13,0.5,0.0625,35.0,1,1.0,0.3774999999999409
82,13,0.5,0.125,-35.0,-1,1.0,0.49560000000002447
83,13,0.5,0.25,-35.0,-1,1.0,0.351600000000019
84,13,0.5,0.125,-35.0,-1,1.0,0.5383999999999673
85,13,0.5,0.25,35.0,-1,0.0,0.4198999999999842
86,13,0.5,0.0,-35.0,-1,1.0,0.2545000000000073
87,13,0.5,1.0,-35.0,-1,1.0,0.32749999999998636
88,13,0.5,0.25,-35.0,-1,1.0,0.35070000000001755
89,13,0.5,0.25,35.0,1,1.0,0.35129999999998063
90,13,0.5,0.25,-35.0,-1,1.0,0.5367999999999711
91,13,0.5,0.0625,35.0,1,1.0,9.138500000000022
92,13,0.5,0.0625,35.0,1,1.0,0.42939999999993006
93,13,0.5,1.0,-35.0,-1,1.0,0.6624999999999659
94,13,0.5,0.0625,35.0,1,1.0,4.571999999999946
95,13,0.5,1.0,-35.0,-1,1.0,0.3273999999999546
96,13,0.5,0.25,35.0,1,1.0,0.36539999999996553
97,13,0.5,0.0,-35.0,1,0.0,6.7450999999999794
98,13,0.5,0.125,-35.0,-1,1.0,0.30970000000002074
99,13,0.5,1.0,35.0,1,1.0,0.32939999999996417
100,13,0.5,0.125,35.0,1,1.0,7.069499999999948
101,13,0.5,1.0,-35.0,-1,1.0,0.6406000000000063
102,13,0.5,0.125,-35.0,-1,1.0,0.47239999999999327
103,13,0.5,0.0,-35.0,-1,1.0,3.0130999999999517
104,13,0.5,0.25,35.0,1,1.0,6.6370000000000005
105,13,0.5,0.25,-35.0,-1,1.0,0.6831999999999994
106,13,0.5,0.0,-35.0,-1,1.0,0.5045999999999253
107,13,0.5,1.0,35.0,1,1.0,0.28460000000001173
108,13,0.5,0.25,35.0,1,1.0,0.36950000000001637
109,13,0.5,0.0625,-35.0,-1,1.0,0.6067999999999643
110,13,0.5,0.0625,35.0,-1,0.0,0.5613999999999351
111,13,0.5,0.0625,35.0,1,1.0,0.49109999999996035
112,13,0.5,0.25,35.0,1,1.0,0.418200000000013
113,13,0.5,0.125,35.0,1,1.0,5.854199999999992
114,13,0.5,0.25,-35.0,-1,1.0,0.41039999999998145
115,13,0.5,1.0,-35.0,-1,1.0,0.5001999999999498
116,13,0.5,0.125,35.0,-1,0.0,0.7062999999999988
117,13,0.5,0.0,35.0,-1,0.0,0.5623999999999683
118,13,0.5,0.125,35.0,1,1.0,0.41159999999996444
119,13,0.5,1.0,35.0,1,1.0,0.24279999999998836
120,13,0.5,0.0,35.0,1,1.0,5.065899999999999
121,13,0.5,1.0,-35.0,-1,1.0,0.3495999999999526
122,13,0.5,1.0,35.0,1,1.0,2.4636999999999603
123,13,0.5,0.0625,-35.0,-1,1.0,0.2886999999999489
124,13,0.5,0.125,-35.0,-1,1.0,0.3569000000001097
125,13,0.5,0.0,35.0,1,1.0,4.328800000000001
126,13,0.5,0.0625,35.0,-1,0.0,0.4371000000001004
127,13,0.5,0.25,35.0,1,1.0,0.24549999999999272
128,13,0.5,0.0625,35.0,1,1.0,2.972099999999955
129,13,0.5,0.125,-35.0,-1,1.0,0.5776000000000749
130,13,0.5,0.0,35.0,1,1.0,0.483600000000024
131,13,0.5,0.0625,35.0,1,1.0,0.47650000000010095
132,13,0.5,0.0625,35.0,1,1.0,4.750099999999975
133,13,0.5,0.25,35.0,1,1.0,0.4816999999999325
134,13,0.5,0.0625,-35.0,-1,1.0,3.643500000000131
135,13,0.5,0.0625,35.0,1,1.0,0.6022000000000389
136,13,0.5,1.0,-35.0,-1,1.0,0.6101000000001022
137,13,0.5,0.0625,-35.0,-1,1.0,0.6562999999999874
138,13,0.5,0.0625,35.0,1,1.0,5.939799999999991
139,13,0.5,0.25,35.0,1,1.0,0.3301000000000158
140,13,0.5,0.0625,-35.0,-1,1.0,0.6326000000001386
141,13,0.5,0.125,-35.0,-1,1.0,2.41800000000012
142,13,0.5,0.25,-35.0,-1,1.0,0.3673000000000002
143,13,0.5,0.25,35.0,1,1.0,0.34799999999995634
144,13,0.5,0.125,-35.0,-1,1.0,0.42619999999999436
145,13,0.5,0.25,-35.0,-1,1.0,0.36019999999996344
146,13,0.5,0.0,-35.0,-1,1.0,2.7339000000000624
147,13,0.5,0.0,-35.0,-1,1.0,0.38779999999997017
148,13,0.5,0.125,35.0,1,1.0,5.248200000000111
149,13,0.5,0.0,-35.0,1,0.0,5.5603000000000975
150,13,0.5,0.25,35.0,1,1.0,0.2861000000001468
151,13,0.5,1.0,-35.0,-1,1.0,0.3265999999999849
152,13,0.5,0.0625,-35.0,-1,1.0,0.49500000000000455
153,13,0.5,0.125,35.0,1,1.0,0.5039999999999054
154,13,0.5,1.0,35.0,1,1.0,8.014099999999985
155,13,0.5,0.25,35.0,-1,0.0,0.4413000000000693
156,13,0.5,0.25,35.0,1,1.0,0.38440000000002783
157,13,0.5,1.0,-35.0,-1,1.0,1.7852000000000317
158,13,0.5,0.0,-35.0,1,0.0,7.43610000000001
159,13,0.5,0.0625,-35.0,-1,1.0,0.34960000000000946
160,13,0.5,0.0,35.0,1,1.0,14.033100000000104
161,13,0.5,0.25,35.0,1,1.0,0.29779999999993834
162,13,0.5,0.125,35.0,1,1.0,8.066200000000094
163,13,0.5,0.0,35.0,1,1.0,0.3609000000000151
164,13,0.5,0.25,35.0,1,1.0,11.622099999999932
165,13,0.5,0.0,-35.0,1,0.0,7.143800000000056
166,13,0.5,0.25,-35.0,-1,1.0,0.495900000000006
167,13,0.5,0.25,-35.0,-1,1.0,0.4717000000000553
168,13,0.5,0.0625,35.0,-1,0.0,14.56269999999995
169,13,0.5,0.25,-35.0,-1,1.0,0.46870000000001255
170,13,0.5,0.125,35.0,1,1.0,7.0569000000000415
171,13,0.5,1.0,-35.0,-1,1.0,0.35570000000006985
172,13,0.5,0.0,-35.0,1,0.0,7.086800000000039
173,13,0.5,0.0625,35.0,1,1.0,0.43859999999995125
174,13,0.5,1.0,-35.0,-1,1.0,2.051100000000133
175,13,0.5,0.125,35.0,1,1.0,11.703500000000076
176,13,0.5,0.0625,-35.0,1,0.0,11.460299999999961
177,13,0.5,0.0625,-35.0,-1,1.0,0.49309999999991305
178,13,0.5,1.0,-35.0,-1,1.0,0.39790000000004966
179,13,0.5,0.125,-35.0,-1,1.0,0.4922000000000253
180,13,0.5,1.0,35.0,1,1.0,0.41660000000001673
181,13,0.5,1.0,-35.0,-1,1.0,0.3976999999999862
182,13,0.5,0.125,-35.0,-1,1.0,0.29350000000010823
183,13,0.5,0.125,35.0,1,1.0,0.6468000000000984
184,13,0.5,0.0625,-35.0,1,0.0,4.825899999999933
185,13,0.5,0.0,35.0,1,1.0,0.5048000000000457
186,13,0.5,1.0,-35.0,-1,1.0,0.6608000000001084
187,13,0.5,1.0,35.0,1,1.0,6.855800000000045
188,13,0.5,0.0,35.0,-1,0.0,0.4277000000000726
189,13,0.5,0.125,35.0,1,1.0,0.34350000000006276
190,13,0.5,0.25,-35.0,-1,1.0,0.4936000000000149
191,13,0.5,0.125,-35.0,-1,1.0,0.679700000000139
192,13,0.5,0.25,35.0,1,1.0,0.41250000000002274
193,13,0.5,1.0,35.0,1,1.0,13.394499999999994
194,13,0.5,0.0,35.0,1,1.0,0.7212000000000671
195,13,0.5,0.25,35.0,1,1.0,2.016499000000067
196,13,0.5,0.125,-35.0,-1,1.0,0.359000000000151
197,13,0.5,0.25,35.0,1,1.0,10.456700000000069
198,13,0.5,0.125,35.0,1,1.0,3.8823999999999614
199,13,0.5,0.0,-35.0,1,0.0,7.119100000000117
200,13,0.7,0.0,-35.0,-1,1.0,0.8120000000001255
201,13,0.5,1.0,-35.0,-1,1.0,0.24930000000006203
202,13,0.5,0.25,35.0,1,1.0,4.8034999999999854
203,13,0.5,0.0625,35.0,1,1.0,0.6456000000000586
204,13,0.5,1.0,-35.0,-1,1.0,0.4051000000000613
205,13,0.5,0.125,-35.0,-1,1.0,0.2857000000000198
206,13,0.5,0.0,35.0,-1,0.0,0.32780000000002474
207,13,0.5,0.125,-35.0,-1,1.0,0.9908000000000357
208,13,0.5,0.0,-35.0,1,0.0,3.7264999999999873
209,13,0.5,0.125,35.0,1,1.0,0.380800000000022
210,13,0.5,0.25,35.0,1,1.0,0.2781999999999698
211,13,0.5,0.125,-35.0,-1,1.0,0.40790000000004056
212,13,0.5,1.0,35.0,1,1.0,0.3145999999999276
213,13,0.5,0.25,-35.0,-1,1.0,0.5281000000001086
214,13,0.5,0.25,35.0,1,1.0,6.2847000000000435
215,13,0.5,0.125,-35.0,-1,1.0,0.6183000000000902
216,13,0.5,0.25,35.0,1,1.0,0.29169999999976426
217,13,0.5,1.0,35.0,1,1.0,0.30189999999970496
218,13,0.5,0.0,-35.0,1,0.0,7.145199999999932
219,13,0.7,0.0,-35.0,-1,1.0,0.31549999999992906
220,13,0.5,1.0,35.0,1,1.0,0.26559999999994943
221,13,0.5,0.25,35.0,1,1.0,1.0854999999999109
222,13,0.5,0.25,-35.0,-1,1.0,0.42229999999995016
223,13,0.5,0.125,-35.0,-1,1.0,0.4357999999997446
224,13,0.5,0.125,-35.0,-1,1.0,1.1057999999998174
225,13,0.5,0.0625,35.0,1,1.0,7.809099999999717
226,13,0.5,0.0625,35.0,-1,0.0,0.1459999999997308
227,13,0.5,0.125,35.0,1,1.0,0.5494999999998527
228,13,0.5,0.25,-35.0,-1,1.0,0.3396999999997661
229,13,0.5,0.125,-35.0,-1,1.0,0.24289999999973588
230,13,0.5,1.0,35.0,1,1.0,0.4330999999999676
231,13,0.5,0.125,-35.0,-1,1.0,0.5363999999999578
232,13,0.5,1.0,35.0,1,1.0,0.32970000000000255
233,13,0.5,0.125,-35.0,-1,1.0,0.48659999999995307
234,13,0.5,1.0,-35.0,-1,1.0,0.4298999999998614
235,13,0.5,0.25,-35.0,-1,1.0,0.3867000000000189
236,13,0.5,0.25,35.0,1,1.0,0.576799999999821
237,13,0.5,1.0,-35.0,-1,1.0,0.356899999999996
238,13,0.5,0.0,35.0,-1,0.0,0.3736999999998716
239,13,0.5,0.25,-35.0,-1,1.0,0.3269000000000233
240,13,0.5,0.125,35.0,1,1.0,0.3570999999997184
241,13,0.5,0.25,35.0,1,1.0,7.737099999999828
242,13,0.5,1.0,-35.0,-1,1.0,0.4339999999999691
243,13,0.5,1.0,-35.0,-1,1.0,0.25739999999996144
244,13,0.5,1.0,-35.0,-1,1.0,0.7573999999999614
245,13,0.5,0.0625,35.0,-1,0.0,0.36760000000003856
246,13,0.5,0.125,35.0,1,1.0,0.42429999999990287
247,13,0.5,0.25,-35.0,-1,1.0,0.12429999999994834
248,13,0.5,0.25,-35.0,-1,1.0,5.4177999999997155
249,13,0.5,1.0,35.0,1,1.0,0.3143999999999778
250,13,0.5,0.125,35.0,-1,0.0,0.6947000000000116
251,13,0.5,0.0,-35.0,1,0.0,0.524599999999964
252,13,0.3,0.0,35.0,-1,0.0,0.2346999999997479
253,13,0.5,1.0,35.0,1,1.0,0.2846999999999298
254,13,0.5,0.0625,35.0,-1,0.0,0.30160000000000764
255,13,0.5,0.0625,-35.0,-1,1.0,0.31169999999974607
256,13,0.5,0.125,35.0,1,1.0,0.33189999999990505
257,13,0.5,0.25,-35.0,-1,1.0,0.34159999999997126
258,13,0.5,0.0625,-35.0,-1,1.0,2.3683999999998377
259,13,0.5,1.0,35.0,1,1.0,0.30189999999993233
260,13,0.5,1.0,35.0,1,1.0,0.355199999999968
261,13,0.5,0.0625,-35.0,1,0.0,6.815399999999954
262,13,0.5,0.0625,35.0,1,1.0,0.6023000000000138
263,13,0.5,1.0,-35.0,-1,1.0,0.18559999999979482
264,13,0.5,0.25,35.0,1,1.0,0.3623999999999796
265,13,0.5,0.0625,-35.0,-1,1.0,0.7325000000000728
266,13,0.5,1.0,35.0,1,1.0,4.292599999999766
267,13,0.5,0.0625,-35.0,-1,1.0,0.6026999999999134
268,13,0.5,0.125,35.0,1,1.0,5.749399999999923
269,13,0.5,0.0625,-35.0,-1,1.0,0.5128999999999451
270,13,0.5,1.0,-35.0,-1,1.0,0.3329999999998563
271,13,0.5,0.0625,-35.0,-1,1.0,0.5697000000000116
272,13,0.5,0.25,-35.0,-1,1.0,0.3731999999997697
273,13,0.5,1.0,-35.0,-1,1.0,0.5032000000001062
274,13,0.5,0.25,-35.0,-1,1.0,0.4499999999998181
275,13,0.5,1.0,35.0,1,1.0,0.2966999999998734
276,13,0.5,0.0625,35.0,-1,0.0,5.2367999999996755
277,13,0.5,0.0,-35.0,-1,1.0,0.27700000000004366
278,13,0.5,0.125,-35.0,-1,1.0,0.2769999999998163
279,13,0.5,0.0,-35.0,-1,1.0,4.193699999999808
280,13,0.5,0.0625,-35.0,-1,1.0,0.2638999999999214
281,13,0.5,0.25,35.0,1,1.0,8.300799999999981
282,13,0.5,0.25,-35.0,-1,1.0,0.29749999999989996
283,13,0.5,1.0,-35.0,-1,1.0,0.21090000000003783
284,13,0.5,0.125,35.0,1,1.0,7.664299999999912
285,13,0.5,0.25,-35.0,-1,1.0,0.2878000000000611
286,13,0.5,0.0625,-35.0,-1,1.0,3.5213000000001102
287,13,0.5,0.0625,35.0,-1,0.0,0.2680000000000291
288,13,0.5,0.25,35.0,1,1.0,1.1247999999998228
289,13,0.5,0.125,35.0,-1,0.0,1.0747999999998683
290,13,0.5,0.125,-35.0,-1,1.0,0.5151000000000749
291,13,0.5,0.25,-35.0,-1,1.0,0.35829999999987194
292,13,0.5,0.0,35.0,1,1.0,8.161799999999857
293,13,0.5,0.0625,35.0,-1,0.0,0.3287000000000262
294,13,0.5,0.25,35.0,1,1.0,0.5254999999999654
295,13,0.5,0.25,-35.0,-1,1.0,0.37220000000002074
296,13,0.5,0.125,-35.0,-1,1.0,0.36560000000008586
297,13,0.5,0.125,35.0,1,1.0,0.6190000000001419
298,13,0.5,0.0,-35.0,-1,1.0,21.812400000000025
299,13,0.5,0.125,-35.0,-1,1.0,0.372899999999845
300,13,0.5,0.0625,-35.0,1,0.0,4.62969999999973
301,13,0.5,0.0,-35.0,-1,1.0,0.4498999999998432
302,13,0.5,0.0,35.0,1,1.0,5.376499999999851
303,13,0.5,0.0625,35.0,-1,0.0,0.4035000000001219
304,13,0.5,0.125,35.0,1,1.0,0.623600000000124
305,13,0.5,0.25,-35.0,-1,1.0,0.37029999999981555
306,13,0.5,0.25,35.0,1,1.0,0.48700000000008004
307,13,0.5,0.0625,-35.0,-1,1.0,0.36379999999985557
308,13,0.5,1.0,-35.0,-1,1.0,0.3203999999998359
309,13,0.5,0.0,35.0,-1,0.0,0.2904000000000906
310,13,0.5,0.0,-35.0,1,0.0,6.970499999999674
311,13,0.5,0.25,-35.0,-1,1.0,0.29749999999989996
312,13,0.5,0.25,35.0,1,1.0,0.397499999999809
313,13,0.5,0.25,-35.0,-1,1.0,0.3774999999998272
314,13,0.5,0.25,-35.0,-1,1.0,0.46090000000003783
315,13,0.5,0.25,35.0,1,1.0,0.7177999999998974
316,13,0.5,0.25,35.0,1,1.0,9.724399999999832
317,13,0.5,0.25,-35.0,-1,1.0,0.43800000000010186
318,13,0.5,1.0,-35.0,-1,1.0,0.31140000000004875
319,13,0.5,0.125,35.0,1,1.0,11.194999999999936
320,13,0.5,0.125,-35.0,-1,1.0,0.33849999999983993
321,13,0.5,0.0,-35.0,-1,1.0,7.388599999999997
322,13,0.5,0.0625,-35.0,-1,1.0,0.43889999999987594
323,13,0.5,1.0,-35.0,-1,1.0,0.2522999999998774
324,13,0.5,0.25,-35.0,-1,1.0,0.3955999999998312
325,13,0.5,1.0,-35.0,-1,1.0,0.24890000000004875
326,13,0.5,0.0625,-35.0,-1,1.0,0.36239999999975225
327,13,0.5,0.0625,35.0,-1,0.0,9.365800000000036
328,13,0.5,0.0625,-35.0,-1,1.0,0.2760000000000673
329,13,0.5,0.125,35.0,1,1.0,0.36609999999996035
330,13,0.5,0.0625,-35.0,-1,1.0,0.38610000000016953
331,13,0.5,1.0,-35.0,-1,1.0,0.2661000000000513
332,13,0.5,0.25,-35.0,-1,1.0,0.5029999999999291
333,13,0.5,0.0625,-35.0,-1,1.0,0.7063000000000557
334,13,0.5,0.0625,-35.0,-1,1.0,0.42980000000011387
335,13,0.5,0.25,35.0,1,1.0,1.0530999999998585
336,13,0.5,0.0,35.0,1,1.0,5.260099999999966
337,13,0.5,1.0,-35.0,-1,1.0,0.35009999999988395
338,13,0.5,0.125,35.0,1,1.0,0.5269000000000688
339,13,0.5,0.25,-35.0,-1,1.0,0.3869999999999436
340,13,0.5,0.25,35.0,1,1.0,6.817099999999982
341,13,0.5,1.0,35.0,1,1.0,0.2704999999998563
342,13,0.5,0.0,-35.0,-1,1.0,0.25729999999998654
343,13,0.5,0.125,35.0,1,1.0,4.240699999999833
344,13,0.5,0.125,-35.0,-1,1.0,0.537599999999884
345,13,0.5,0.0,-35.0,-1,1.0,0.2076999999999316
346,13,0.5,0.25,-35.0,-1,1.0,0.22769999999991342
347,13,0.5,1.0,35.0,1,1.0,0.264699999999948
348,13,0.5,0.0,-35.0,-1,1.0,0.41449999999986176
349,13,0.5,0.0,35.0,-1,0.0,4.657899999999927
350,13,0.4,0.0,-35.0,-1,1.0,0.32140000000003965
351,13,0.5,1.0,-35.0,-1,1.0,0.08140000000003056
352,13,0.5,0.0625,35.0,1,1.0,0.48919999999998254
353,13,0.5,0.25,-35.0,-1,1.0,0.1960999999998876
354,13,0.5,0.0625,35.0,1,1.0,6.176299999999856
355,13,0.5,0.25,35.0,-1,0.0,0.5494999999998527
356,13,0.5,0.25,35.0,1,1.0,0.32639999999969405
357,13,0.5,0.0625,35.0,-1,0.0,0.50649999999996
358,13,0.5,0.125,-35.0,-1,1.0,0.5963999999999032
359,13,0.5,0.0625,35.0,-1,0.0,0.2968999999998232
360,13,0.3,0.0625,-35.0,-1,1.0,0.5239999999998872
361,13,0.5,1.0,35.0,1,1.0,0.2801999999999225
362,13,0.5,1.0,35.0,1,1.0,0.2699999999999818
363,13,0.5,0.125,35.0,1,1.0,7.203599999999824
364,13,0.5,0.125,-35.0,-1,1.0,0.4238999999997759
365,13,0.5,0.0,35.0,-1,0.0,8.340799999999945
366,13,0.5,0.0625,35.0,-1,0.0,0.5039999999999054
367,13,0.5,0.0625,-35.0,-1,1.0,1.0772999999999229
368,13,0.5,0.0625,-35.0,-1,1.0,0.35760000000004766
369,13,0.5,0.0,-35.0,-1,1.0,1.2943999999997686
370,13,0.5,0.25,-35.0,-1,1.0,0.1980999999998403
371,13,0.5,0.125,35.0,1,1.0,0.5109999999999673
372,13,0.5,0.0625,35.0,1,1.0,8.161299999999756
373,13,0.5,0.0,-35.0,1,0.0,4.914899999999761
374,13,0.5,0.125,35.0,1,1.0,0.30159999999978027
375,13,0.5,0.125,-35.0,-1,1.0,0.3252999999997428
376,13,0.5,0.125,-35.0,-1,1.0,0.17879999999991014
377,13,0.5,1.0,35.0,1,1.0,0.3251000000000204
378,13,0.5,0.0625,-35.0,-1,1.0,0.35819999999989705
379,13,0.5,0.0625,35.0,1,1.0,5.048399999999901
380,13,0.5,0.0625,35.0,-1,0.0,0.3226999999999407
381,13,0.6,0.0625,35.0,1,1.0,0.6853000000000975
382,13,0.5,1.0,-35.0,-1,1.0,0.32209999999986394
383,13,0.5,0.125,-35.0,-1,1.0,0.42869999999993524
384,13,0.5,0.0625,-35.0,-1,1.0,0.26289999999994507
385,13,0.5,1.0,-35.0,-1,1.0,0.2358999999999014
386,13,0.5,0.25,-35.0,-1,1.0,0.23910000000000764
387,13,0.5,0.0625,35.0,1,1.0,4.70900000000006
388,13,0.5,0.25,-35.0,-1,1.0,0.556999999999789
389,13,0.5,0.0625,35.0,-1,0.0,0.5230999999998858
390,13,0.5,0.0,35.0,-1,0.0,1.146199999999908
391,13,0.5,0.125,35.0,1,1.0,0.3165999999998803
392,13,0.5,0.25,-35.0,-1,1.0,0.31619999999975335
393,13,0.5,0.0,-35.0,1,0.0,3.6833999999998923
394,13,0.5,0.0625,-35.0,1,0.0,0.5096999999998388
395,13,0.5,0.0,-35.0,-1,1.0,0.14330000000018117
396,13,0.5,1.0,35.0,1,1.0,0.3430999999998221
397,13,0.5,0.25,-35.0,-1,1.0,0.3267000000000735
398,13,0.5,0.0625,35.0,-1,0.0,0.24999999999977263
399,13,0.5,0.125,-35.0,-1,1.0,0.2740999999998621
400,13,0.5,1.0,35.0,1,1.0,0.3304000000000542
401,13,0.5,0.0625,-35.0,-1,1.0,0.4601999999999862
402,13,0.5,0.125,35.0,1,1.0,0.5768000000000484
403,13,0.5,1.0,-35.0,-1,1.0,0.3505000000000109
404,13,0.5,0.125,-35.0,-1,1.0,0.2141999999998916
405,13,0.5,0.25,35.0,1,1.0,0.28389999999990323
406,13,0.5,1.0,35.0,1,1.0,0.28759999999988395
407,13,0.5,0.25,35.0,-1,0.0,0.21389999999973952
408,13,0.4,0.25,-35.0,-1,1.0,0.4873999999999796
409,13,0.5,1.0,35.0,1,1.0,0.2639999999998963
410,13,0.5,0.125,35.0,1,1.0,4.9973999999999705
411,13,0.5,0.25,-35.0,-1,1.0,0.35799999999994725
412,13,0.5,0.125,-35.0,-1,1.0,0.26179999999976644
413,13,0.5,0.25,35.0,-1,0.0,1.8077999999998156
414,13,0.5,0.25,35.0,1,1.0,0.36439999999970496
415,13,0.5,0.125,35.0,1,1.0,0.42170000000010077
416,13,0.5,1.0,35.0,1,1.0,0.29189999999994143
417,13,0.5,0.25,-35.0,-1,1.0,0.3653999999999087
418,13,0.5,0.0625,-35.0,-1,1.0,0.18830000000002656
419,13,0.5,1.0,-35.0,-1,1.0,0.20820000000003347
420,13,0.5,1.0,-35.0,-1,1.0,0.20499999999992724
421,13,0.5,0.125,35.0,-1,0.0,0.5153000000000247
422,13,0.5,0.0625,-35.0,-1,1.0,0.425499999999829
423,13,0.5,0.0625,35.0,-1,0.0,0.5083999999999378
424,13,0.5,0.0625,35.0,1,1.0,0.47210000000018226
425,13,0.5,0.0,-35.0,-1,1.0,0.25870000000008986
426,13,0.5,0.25,35.0,1,1.0,6.561899999999923
427,13,0.5,1.0,35.0,1,1.0,0.8622000000000298
428,13,0.5,0.125,-35.0,-1,1.0,0.3290999999999258
429,13,0.5,0.125,35.0,1,1.0,5.705999999999904
430,13,0.5,0.125,-35.0,-1,1.0,0.42650000000003274
431,13,0.5,0.125,-35.0,-1,1.0,0.28939999999988686
432,13,0.5,0.0625,-35.0,-1,1.0,0.2161999999998443
433,13,0.5,0.0,-35.0,-1,1.0,0.45309999999994943
434,13,0.5,0.125,35.0,-1,0.0,0.16929999999979373
435,13,0.5,0.125,35.0,1,1.0,0.41660000000001673
436,13,0.5,0.25,35.0,1,1.0,5.236399999999776
437,13,0.5,0.0,35.0,-1,0.0,0.5230000000001382
438,13,0.5,0.25,-35.0,-1,1.0,0.43990000000007967
439,13,0.5,0.25,35.0,1,1.0,0.32320000000004256
440,13,0.5,0.0625,35.0,1,1.0,4.276700000000119
441,13,0.5,1.0,35.0,1,1.0,0.2807999999997719
442,13,0.5,0.125,-35.0,-1,1.0,0.2902999999998883
443,13,0.5,0.25,35.0,1,1.0,0.4436999999998079
444,13,0.5,0.25,35.0,1,1.0,0.3571999999999207
445,13,0.5,0.0,35.0,1,1.0,4.336999999999989
446,13,0.5,0.25,-35.0,-1,1.0,0.3106999999999971
447,13,0.5,0.25,35.0,1,1.0,0.530699999999797
448,13,0.5,0.25,35.0,1,1.0,6.437799999999697
449,13,0.5,1.0,-35.0,-1,1.0,0.3341000000000349
450,13,0.5,0.0625,35.0,1,1.0,1.6607999999996537
451,13,0.5,0.125,35.0,1,1.0,11.904599999999846
452,13,0.5,0.125,-35.0,-1,1.0,0.3546000000001186
453,13,0.5,0.125,35.0,1,1.0,0.28809999999975844
454,13,0.5,0.25,-35.0,-1,1.0,0.6647999999995591
455,13,0.5,0.0,35.0,-1,0.0,0.3419999999996435
456,13,0.5,0.25,-35.0,1,0.0,3.9815999999996166
457,13,0.5,0.0,35.0,1,1.0,0.24829999999974461
458,13,0.5,0.0625,35.0,1,1.0,0.37550000000010186
459,13,0.5,0.125,-35.0,-1,1.0,0.2585999999996602
460,13,0.5,1.0,35.0,1,1.0,0.34859999999980573
461,13,0.5,0.0625,35.0,1,1.0,5.225399999999809
462,13,0.5,0.0625,35.0,1,1.0,0.6825999999996384
463,13,0.5,0.0,35.0,1,1.0,7.109100000000126
464,13,0.5,0.25,-35.0,-1,1.0,0.37279999999964275
465,13,0.5,0.0625,-35.0,1,0.0,6.469500000000153
466,13,0.5,0.25,35.0,1,1.0,0.33690000000024156
467,13,0.5,0.0,35.0,-1,0.0,0.42279999999982465
468,13,0.7,0.0,-35.0,1,0.0,0.24999999999954525
469,13,0.5,1.0,-35.0,-1,1.0,0.2832000000003063
470,13,0.5,0.0,-35.0,1,0.0,3.2930999999998676
471,13,0.7,0.0,-35.0,1,0.0,0.3597999999997228
472,13,0.5,1.0,-35.0,-1,1.0,0.18319999999948777
473,13,0.5,1.0,35.0,1,1.0,0.24650000000019645
474,13,0.5,1.0,35.0,1,1.0,0.26670000000012806
475,13,0.5,0.0625,-35.0,-1,1.0,0.44000000000005457
476,13,0.5,0.0625,35.0,-1,0.0,0.4099999999998545
477,13,0.5,0.0625,35.0,1,1.0,0.3835999999996602
478,13,0.5,1.0,-35.0,-1,1.0,0.2703999999998814
479,13,0.5,0.25,35.0,1,1.0,0.36419999999998254
480,13,0.5,0.0625,-35.0,-1,1.0,0.4373000000000502
481,13,0.5,0.125,35.0,-1,0.0,24.58779999999979
482,13,0.5,0.0625,-35.0,-1,1.0,0.26759999999967476
483,13,0.5,0.125,35.0,-1,0.0,0.06459999999970023
484,13,0.5,0.0625,35.0,1,1.0,0.40479999999979555
485,13,0.5,0.25,-35.0,-1,1.0,0.2250000000003638
486,13,0.5,0.0625,-35.0,-1,1.0,7.871900000000096
487,13,0.5,0.25,-35.0,-1,1.0,0.2681999999999789
488,13,0.5,1.0,-35.0,-1,1.0,0.2153000000002976
489,13,0.5,0.0625,35.0,-1,0.0,3.1684000000000196
490,13,0.5,0.125,-35.0,-1,1.0,0.3324000000002343
491,13,0.5,0.125,35.0,-1,0.0,0.4216999999998734
492,13,0.5,0.125,-35.0,-1,1.0,0.3123000000000502
493,13,0.5,0.25,-35.0,-1,1.0,0.18519999999989523
494,13,0.5,0.25,-35.0,-1,1.0,0.34920000000010987
495,13,0.5,0.0625,-35.0,-1,1.0,8.315399999999954
496,13,0.5,0.0625,-35.0,-1,1.0,0.2460000000000946
497,13,0.5,0.125,-35.0,-1,1.0,0.22609999999940555
498,13,0.5,0.125,-35.0,-1,1.0,0.27549999999973807
499,13,0.5,0.25,-35.0,-1,1.0,0.22250000000030923
500,13,0.5,0.125,35.0,-1,0.0,0.20910000000003492
501,13,0.5,0.0,35.0,-1,0.0,7.866399999999885
502,13,0.5,0.0,-35.0,-1,1.0,8.099399999999605
503,13,0.5,1.0,-35.0,-1,1.0,0.2199999999997999
504,13,0.5,0.0625,-35.0,-1,1.0,0.12629999999990105
505,13,0.5,0.125,35.0,-1,0.0,0.4362999999998465
506,13,0.5,0.0625,35.0,1,1.0,0.51299999999992
507,13,0.5,0.125,-35.0,-1,1.0,0.4430999999999585
508,13,0.5,0.0625,35.0,-1,0.0,0.33080000000018117
509,13,0.5,0.0625,35.0,1,1.0,0.3599000000003798
510,13,0.5,0.25,-35.0,-1,1.0,0.19659999999976208
511,13,0.5,1.0,-35.0,-1,1.0,0.29009999999971114
512,13,0.5,1.0,35.0,1,1.0,0.49379999999973734
513,13,0.5,0.125,35.0,-1,0.0,0.4770999999996093
514,13,0.5,0.0,-35.0,-1,1.0,0.22030000000040673
515,13,0.5,0.0625,-35.0,-1,1.0,0.2274000000002161
516,13,0.5,0.25,-35.0,-1,1.0,0.21369899999990594
517,13,0.5,0.125,-35.0,-1,1.0,0.27369999999973516
518,13,0.5,1.0,-35.0,-1,1.0,0.22100000000000364
519,13,0.5,0.125,-35.0,-1,1.0,0.39729999999963184
520,13,0.5,0.0625,-35.0,-1,1.0,0.3906000000001768
521,13,0.5,1.0,-35.0,-1,1.0,0.22749999999996362
522,13,0.5,0.0,-35.0,-1,1.0,0.18100000000004002
523,13,0.5,0.0625,-35.0,-1,1.0,0.4377999999996973
524,13,0.5,0.25,-35.0,-1,1.0,0.19769999999971333
525,13,0.5,1.0,-35.0,-1,1.0,0.2512000000001535
526,13,0.5,1.0,-35.0,-1,1.0,0.9711000000002059
527,13,0.5,0.125,-35.0,-1,1.0,0.22129999999970096
528,13,0.5,0.125,35.0,1,1.0,6.354499999999916
529,13,0.5,0.0625,-35.0,-1,1.0,0.3779999999997017
530,13,0.5,1.0,-35.0,-1,1.0,0.5952000000002045
531,13,0.5,1.0,-35.0,-1,1.0,0.415599999999813
532,13,0.5,0.25,-35.0,-1,1.0,0.2316000000000713
533,13,0.5,1.0,-35.0,-1,1.0,0.394800000000032
534,13,0.5,0.0625,-35.0,-1,1.0,0.2549999999996544
535,13,0.5,1.0,35.0,1,1.0,0.2721000000001368
536,13,0.5,0.25,35.0,1,1.0,0.48829999999952634
537,13,0.5,0.0625,35.0,-1,0.0,0.6184999999995853
538,13,0.3,0.0625,35.0,1,1.0,0.371799999999439
539,13,0.5,1.0,35.0,1,1.0,0.27529999999978827
540,13,0.5,0.25,-35.0,-1,1.0,0.3322000000002845
541,13,0.5,0.0625,35.0,1,1.0,1.7022999999999229
542,13,0.5,1.0,-35.0,-1,1.0,0.3854999999998654
543,13,0.5,0.125,-35.0,-1,1.0,0.4625999999998385
544,13,0.5,0.25,-35.0,-1,1.0,0.27890000000024884
545,13,0.5,0.25,35.0,1,1.0,0.549199999999928
546,13,0.5,0.125,35.0,1,1.0,4.726000000000113
547,13,0.5,0.0,35.0,-1,0.0,0.3827000000001135
548,13,0.5,0.0625,35.0,1,1.0,0.3329009999997652
549,13,0.5,1.0,35.0,1,1.0,0.30310099999996964
550,13,0.5,0.0625,-35.0,-1,1.0,0.38330100000030143
551,13,0.5,1.0,35.0,1,1.0,8.109701000000314
552,13,0.5,0.125,35.0,1,1.0,0.3932009999998627
553,13,0.5,0.25,35.0,1,1.0,0.7034010000002127
554,13,0.5,0.0625,35.0,-1,0.0,1.0771010000003116
555,13,0.5,0.25,-35.0,-1,1.0,0.3531009999996968
556,13,0.5,0.0625,-35.0,-1,1.0,0.2636010000001079
557,13,0.5,0.0625,-35.0,-1,1.0,0.2606009999994967
558,13,0.5,0.0625,35.0,1,1.0,9.370300999999472
559,13,0.5,0.0625,-35.0,-1,1.0,0.3604009999999107
560,13,0.5,1.0,35.0,1,1.0,0.38050099999964004
561,13,0.5,0.125,-35.0,-1,1.0,0.22050099999978556
562,13,0.5,0.0625,-35.0,-1,1.0,0.27400100000022576
563,13,0.5,0.0,-35.0,-1,1.0,0.37400099999968006
564,13,0.5,0.0,-35.0,-1,1.0,0.8840009999998983
565,13,0.5,1.0,35.0,-1,0.0,2.281000999999833
566,13,0.5,0.125,-35.0,-1,1.0,0.09430100000008679
567,13,0.5,0.0625,-35.0,-1,1.0,0.25650099999984377
568,13,0.5,0.25,-35.0,-1,1.0,0.23990099999991799
569,13,0.5,0.25,35.0,-1,0.0,0.25650099999984377
570,13,0.5,0.125,35.0,1,1.0,0.3433010000003378
571,13,0.5,0.0625,35.0,1,1.0,0.4235009999997601
572,13,0.5,1.0,35.0,1,1.0,0.3034010000001217
573,13,0.5,0.125,-35.0,-1,1.0,0.3668009999996684
574,13,0.5,0.0,-35.0,-1,1.0,0.18029999999998836
575,13,0.5,0.0,-35.0,-1,1.0,9.867001000000073
576,13,0.5,0.0625,35.0,-1,0.0,0.49720099999967715
577,13,0.5,0.25,35.0,1,1.0,0.3107009999998809
578,13,0.5,1.0,35.0,1,1.0,0.2741009999999733
579,13,0.5,1.0,35.0,1,1.0,0.27760099999977683
580,13,0.5,1.0,35.0,1,1.0,0.30090100000006714
581,13,0.5,0.25,-35.0,-1,1.0,0.38750100000015664
582,13,0.5,0.125,-35.0,-1,1.0,0.31110099999978047
583,13,0.5,0.125,35.0,1,1.0,6.027700999999979
584,13,0.5,0.125,-35.0,-1,1.0,0.42790100000001985
585,13,0.5,1.0,35.0,1,1.0,4.67790100000002
586,13,0.5,0.125,-35.0,-1,1.0,0.4449009999998452
587,13,0.5,0.125,35.0,1,1.0,6.808200999999826
588,13,0.5,0.125,-35.0,-1,1.0,0.3017009999998663
589,13,0.5,0.25,35.0,1,1.0,0.46180099999946833
590,13,0.5,0.25,-35.0,-1,1.0,0.3418010000000322
591,13,0.5,0.25,-35.0,-1,1.0,0.37530100000003586
592,13,0.5,1.0,-35.0,-1,1.0,0.22200100000009115
593,13,0.5,0.25,35.0,1,1.0,4.272000999999818
594,13,0.5,0.25,35.0,-1,0.0,0.43210099999987506
595,13,0.5,0.125,-35.0,-1,1.0,0.3922010000001137
596,13,0.5,0.0625,35.0,1,1.0,16.412300999999843
597,13,0.5,0.0625,35.0,-1,0.0,0.3926010000000133
598,13,0.5,0.0625,-35.0,-1,1.0,0.3960010000000693
599,13,0.5,0.0625,-35.0,-1,1.0,0.4594010000000708
600,13,0.5,0.0,35.0,-1,0.0,0.5561009999996713
601,13,0.5,0.0625,-35.0,-1,1.0,0.37960100000009334
602,13,0.5,0.0,35.0,-1,0.0,0.269600999999966
603,13,0.5,0.125,35.0,1,1.0,0.5264009999996233
604,13,0.5,0.0,35.0,-1,0.0,0.5064009999996415
605,13,0.5,0.25,-35.0,1,0.0,0.4666009999996277
606,13,0.3,0.25,-35.0,-1,1.0,0.37990099999979066
607,13,0.5,1.0,35.0,1,1.0,0.28320099999973536
608,13,0.5,0.0625,35.0,1,1.0,10.81340100000034
609,13,0.5,0.25,-35.0,-1,1.0,0.3004009999999653
610,13,0.5,0.0,35.0,-1,0.0,3.3738009999997303
611,13,0.5,0.125,35.0,1,1.0,0.41390099999989616
612,13,0.5,0.25,35.0,1,1.0,11.930701000000226
613,13,0.5,1.0,-35.0,-1,1.0,0.28420099999948434
614,13,0.5,0.25,-35.0,-1,1.0,11.307601000000432
615,13,0.5,0.125,-35.0,-1,1.0,0.30470100000002276
616,13,0.5,0.0625,-35.0,-1,1.0,1.7380010000001676
617,13,0.5,1.0,-35.0,-1,1.0,0.294800999999552
618,13,0.5,0.125,-35.0,-1,1.0,0.3114010000003873
619,13,0.5,0.125,35.0,1,1.0,7.3781010000002425
620,13,0.5,0.0625,35.0,1,1.0,0.3219009999993432
621,13,0.5,0.125,35.0,1,1.0,0.49180100000012317
622,13,0.5,0.0625,-35.0,-1,1.0,8.378500999999687
623,13,0.5,1.0,35.0,1,1.0,0.9854009999999107
624,13,0.5,1.0,-35.0,-1,1.0,0.5522009999999682
625,13,0.5,0.25,-35.0,-1,1.0,0.30230100000017046
626,13,0.5,0.125,-35.0,-1,1.0,0.23660100000006423
627,13,0.5,0.0,-35.0,-1,1.0,0.44230100000004313
628,13,0.5,1.0,35.0,1,1.0,0.3691009999997732
629,13,0.5,0.0625,-35.0,-1,1.0,16.779101000000082
630,13,0.5,0.25,35.0,1,1.0,0.4395009999998365
631,13,0.5,0.25,-35.0,-1,1.0,0.4429009999998925
632,13,0.5,0.0,-35.0,-1,1.0,1.6929009999998925
633,13,0.5,0.0625,-35.0,-1,1.0,0.499800999999934
634,13,0.5,0.125,-35.0,-1,1.0,0.4631010000002789
635,13,0.5,0.125,-35.0,-1,1.0,0.6099010000002636
636,13,0.5,0.125,-35.0,-1,1.0,0.7132010000000264
637,13,0.5,0.25,35.0,1,1.0,0.38330100000030143
638,13,0.5,1.0,35.0,1,1.0,0.29680099999995946
639,13,0.5,0.25,35.0,1,1.0,22.673401000000013
640,13,0.5,0.125,-35.0,-1,1.0,0.21410100000002785
641,13,0.5,0.0625,35.0,-1,0.0,1.4742009999999937
642,13,0.5,0.0625,35.0,1,1.0,0.42750100000012026
643,13,0.5,1.0,35.0,1,1.0,0.3143009999998867
644,13,0.5,1.0,-35.0,-1,1.0,0.2578009999997448
645,13,0.5,0.125,-35.0,-1,1.0,2.1478010000000722
646,13,0.5,0.0625,-35.0,-1,1.0,0.31110099999978047
647,13,0.5,0.0625,-35.0,-1,1.0,0.24120099999981903
648,13,0.5,1.0,35.0,1,1.0,0.28450100000009115
649,13,0.5,0.125,35.0,1,1.0,4.748000999999931
650,13,0.5,0.25,-35.0,-1,1.0,0.30810099999962404
651,13,0.5,0.0625,-35.0,-1,1.0,0.3082009999998263
652,13,0.5,1.0,-35.0,-1,1.0,0.6716010000000097
653,13,0.5,0.0625,35.0,-1,0.0,10.561701000000085
654,13,0.5,0.0625,-35.0,-1,1.0,0.425300999999763
655,13,0.5,1.0,35.0,1,1.0,0.2620010000000548
656,13,0.5,1.0,35.0,1,1.0,0.4553009999999631
657,13,0.5,0.0625,-35.0,-1,1.0,0.5222010000002228
658,13,0.5,1.0,-35.0,-1,1.0,0.24880099999973027
659,13,0.5,1.0,-35.0,-1,1.0,0.25560099999938757
660,13,0.5,0.125,35.0,-1,0.0,0.48900099999991653
661,13,0.5,0.0625,-35.0,-1,1.0,0.9158010000001013
662,13,0.5,1.0,-35.0,-1,1.0,0.2457009999998263
663,13,0.5,0.125,-35.0,-1,1.0,0.2658010000000104
664,13,0.5,1.0,35.0,1,1.0,0.2459009999997761
665,13,0.5,1.0,-35.0,-1,1.0,0.40260099999977683
666,13,0.5,0.25,35.0,1,1.0,6.769300999999814
667,13,0.5,0.125,35.0,1,1.0,3.5732010000001537
668,13,0.5,1.0,35.0,1,1.0,13.359700999999859
669,13,0.5,0.125,-35.0,-1,1.0,0.38670099999944796
670,13,0.5,0.25,-35.0,-1,1.0,0.35350100000005114
671,13,0.5,0.0,35.0,-1,0.0,4.583701000000019
672,13,0.4,0.0,-35.0,-1,1.0,0.39040099999965605
673,13,0.5,1.0,-35.0,-1,1.0,7.730501000000004
674,13,0.5,1.0,35.0,1,1.0,0.3306009999996604
675,13,0.5,1.0,-35.0,-1,1.0,0.21400099999982558
676,13,0.5,0.25,-35.0,-1,1.0,0.39400099999966187
677,13,0.5,0.25,-35.0,-1,1.0,1.8075009999997746
678,13,0.5,0.0625,-35.0,-1,1.0,0.28080099999988306
679,13,0.5,0.125,-35.0,-1,1.0,0.667500999999902
680,13,0.5,1.0,-35.0,-1,1.0,0.28760099999954036
681,13,0.5,0.0625,35.0,-1,0.0,0.30770099999972444
682,13,0.5,0.0625,-35.0,-1,1.0,1.2146010000001297
683,13,0.5,0.0625,-35.0,-1,1.0,0.2945009999998547
684,13,0.5,0.25,-35.0,-1,1.0,0.07120100000020102
685,13,0.5,0.125,-35.0,-1,1.0,0.31460100000003877
686,13,0.5,1.0,35.0,1,1.0,0.2947009999998045
687,13,0.5,0.125,-35.0,-1,1.0,0.26160099999970043
688,13,0.5,0.0,35.0,-1,0.0,10.168201000000408
689,13,0.5,0.125,35.0,-1,0.0,0.351900999999998
690,13,0.1,0.125,35.0,1,1.0,0.5852009999994152
691,13,0.5,1.0,35.0,1,1.0,0.4021010000001297
692,13,0.5,0.0,35.0,-1,0.0,0.7054009999997106
693,13,0.5,0.0625,-35.0,-1,1.0,0.35540099999980157
694,13,0.5,0.0625,-35.0,-1,1.0,0.22550100000034945
695,13,0.5,0.0625,-35.0,-1,1.0,0.29890100000011444
696,13,0.5,1.0,-35.0,-1,1.0,0.2722009999997681
697,13,0.5,1.0,-35.0,-1,1.0,0.23900099999991653
698,13,0.5,0.125,35.0,-1,0.0,0.23559999999997672
699,13,0.5,0.0625,35.0,-1,0.0,43.0390010000001
700,13,0.2,0.0625,35.0,-1,0.0,0.35000099999979284
701,13,0.5,1.0,35.0,1,1.0,0.35690100000010716
702,13,0.5,1.0,35.0,1,1.0,0.4168009999998503
703,13,0.5,0.25,-35.0,-1,1.0,0.45020100000010643
704,13,0.5,0.0,-35.0,-1,1.0,0.2303009999995993
705,13,0.5,0.125,35.0,1,1.0,0.5304009999999835
706,13,0.5,0.0625,-35.0,-1,1.0,0.27050099999996746
707,13,0.5,0.25,-35.0,-1,1.0,0.3706010000000788
708,13,0.5,0.25,35.0,-1,0.0,0.21060099999976956
709,13,0.3,0.25,-35.0,-1,1.0,0.5907009999996262
710,13,0.5,1.0,-35.0,-1,1.0,0.16410099999984595
711,13,0.5,0.125,35.0,-1,0.0,6.330801000000065
712,13,0.5,0.25,35.0,1,1.0,0.32110099999999875
713,13,0.5,1.0,35.0,1,1.0,0.45760100000006787
714,13,0.5,0.0625,35.0,-1,0.0,0.4346009999999296
715,13,0.3,0.0625,-35.0,1,0.0,43.38120100000015
716,13,0.5,1.0,-35.0,-1,1.0,0.24880099999973027
717,13,0.5,0.125,35.0,1,1.0,18.135701000000154
718,13,0.5,0.125,35.0,1,1.0,1.8460009999998874
719,13,0.5,1.0,35.0,1,1.0,0.3094010000004346
720,13,0.5,0.125,-35.0,-1,1.0,0.7728010000000722
721,13,0.5,1.0,35.0,1,1.0,1.552900999999565
722,13,0.5,0.25,-35.0,-1,1.0,0.2963009999998576
723,13,0.5,0.0,35.0,-1,0.0,11.196500999999444
724,13,0.5,0.25,35.0,1,1.0,0.4334009999997761
725,13,0.5,0.0625,35.0,-1,0.0,1.5268009999999776
726,13,0.5,0.125,-35.0,-1,1.0,0.31680099999994127
727,13,0.5,0.25,35.0,1,1.0,0.4035009999997783
728,13,0.5,0.25,35.0,1,1.0,0.3936009999997623
729,13,0.5,1.0,35.0,1,1.0,2.7604010000000017
730,13,0.5,0.0625,35.0,-1,0.0,0.26370099999940066
731,13,0.5,0.0625,35.0,1,1.0,27.59710099999984
732,13,0.5,1.0,-35.0,-1,1.0,0.24440099999947051
733,13,0.5,0.0625,35.0,1,1.0,0.2979009999999107
734,13,0.5,0.0625,35.0,1,1.0,0.6812009999998736
735,13,0.5,0.0625,35.0,1,1.0,17.144901000000118
736,13,0.5,0.0,-35.0,-1,1.0,0.7018009999997048
737,13,0.5,1.0,35.0,1,1.0,0.3418010000000322
738,13,0.5,0.0,35.0,-1,0.0,9.188700999999583
739,13,0.5,0.25,-35.0,-1,1.0,0.29220100000020466
740,13,0.5,0.0,35.0,1,1.0,14.415600999999697
741,13,0.5,0.25,-35.0,-1,1.0,0.4893010000000686
742,13,0.5,0.125,-35.0,-1,1.0,0.5827009999993606
743,13,0.5,0.0625,35.0,-1,0.0,0.33270100000027014
744,13,0.5,0.0625,-35.0,-1,1.0,0.2360009999997601
745,13,0.5,1.0,35.0,1,1.0,0.20940100000007078
746,13,0.5,0.0625,35.0,-1,0.0,0.3563010000002578
747,13,0.3,0.0625,-35.0,-1,1.0,0.34290099999998347
748,13,0.5,1.0,-35.0,-1,1.0,0.2530009999995855
749,13,0.5,0.25,-35.0,-1,1.0,0.2097009999997681
750,13,0.5,0.0625,35.0,-1,0.0,0.3166009999995367
751,13,0.1,0.0625,35.0,1,1.0,0.6532009999996262
752,13,0.5,1.0,35.0,1,1.0,0.249800999999934
753,13,0.5,0.25,35.0,1,1.0,0.29990100000031816
754,13,0.5,1.0,-35.0,-1,1.0,0.2599009999998998
755,13,0.5,0.0625,-35.0,-1,1.0,0.1834009999997761
756,13,0.5,0.25,-35.0,-1,1.0,0.36340100000006714
757,13,0.5,0.125,-35.0,-1,1.0,0.4267009999998663
758,13,0.5,0.0,-35.0,-1,1.0,0.26690099999996164
759,13,0.5,0.125,35.0,-1,0.0,1.2002010000001064
760,13,0.5,0.125,-35.0,-1,1.0,0.35690100000010716
761,13,0.5,0.25,-35.0,-1,1.0,0.25700099999994563
762,13,0.5,0.125,-35.0,-1,1.0,0.11370100000021921
763,13,0.5,0.0625,-35.0,-1,1.0,0.3304009999997106
764,13,0.5,0.125,-35.0,-1,1.0,0.3438009999999849
765,13,0.5,0.0,35.0,-1,0.0,0.2971009999996568
766,13,0.5,0.125,-35.0,-1,1.0,0.3139009999999871
767,13,0.5,1.0,35.0,1,1.0,0.6005009999998947
768,13,0.5,1.0,35.0,1,1.0,0.39070100000026287
769,13,0.5,0.0,-35.0,1,0.0,0.5909010000000308
770,13,0.5,0.0625,-35.0,-1,1.0,0.6976010000003043
771,13,0.5,1.0,-35.0,-1,1.0,0.3709009999997761
772,13,0.5,0.125,-35.0,-1,1.0,0.40770100000008824
773,13,0.5,0.25,35.0,-1,0.0,10.467900999999529
774,13,0.5,0.0625,35.0,-1,0.0,0.24470099999962258
775,13,0.5,0.0625,35.0,1,1.0,14.241401000000224
776,13,0.5,0.125,35.0,1,1.0,1.1851010000000315
777,13,0.5,0.25,-35.0,-1,1.0,0.7920009999998001
778,13,0.5,0.0625,-35.0,-1,1.0,2.1419010000004164
779,13,0.5,0.25,35.0,1,1.0,0.35870100000011007
780,13,0.5,0.0625,-35.0,1,0.0,9.578700999999455
781,13,0.5,0.125,-35.0,-1,1.0,0.2824010000003909
782,13,0.5,0.0625,35.0,-1,0.0,6.99230099999977
783,13,0.5,0.125,-35.0,-1,1.0,0.3227009999995971
784,13,0.5,0.25,-35.0,-1,1.0,0.5826010000000679
785,13,0.5,0.25,35.0,1,1.0,0.4894009999998161
786,13,0.5,0.0,-35.0,-1,1.0,2.036000999999942
787,13,0.5,0.25,-35.0,-1,1.0,0.32620100000031016
788,13,0.5,1.0,-35.0,-1,1.0,0.27300100000002203
789,13,0.5,0.25,35.0,1,1.0,0.4195009999998547
790,13,0.5,0.25,35.0,1,1.0,0.49970100000018647
791,13,0.5,0.125,35.0,1,1.0,8.096400999999787
792,13,0.5,0.25,-35.0,-1,1.0,0.3833009999998467
793,13,0.5,0.0,35.0,1,1.0,7.43670099999963
794,13,0.5,0.0625,-35.0,-1,1.0,0.33030100000041784
795,13,0.5,0.25,-35.0,-1,1.0,0.1602010000001428
796,13,0.5,0.0625,-35.0,-1,1.0,0.2303009999995993
797,13,0.5,0.0,35.0,1,1.0,9.243600999999671
798,13,0.5,0.0,-35.0,-1,1.0,1.1139009999997143
799,13,0.5,0.125,-35.0,-1,1.0,0.43740100000013626
800,13,0.5,0.0625,35.0,-1,0.0,-0.03259899999966365
801,13,0.5,0.0,35.0,1,1.0,1.0976009999999405
802,13,0.5,0.0625,-35.0,1,0.0,4.024301000000378
803,13,0.5,0.0,35.0,1,1.0,0.3943010000002687
804,13,0.5,0.0625,-35.0,-1,1.0,0.30780100000038146
805,13,0.5,0.125,-35.0,-1,1.0,0.394600999999966
806,13,0.5,1.0,-35.0,-1,1.0,0.1713009999998576
807,13,0.5,0.0625,35.0,-1,0.0,15.058101000000079
808,13,0.3,0.0625,35.0,1,1.0,0.4684009999996306
809,13,0.5,1.0,35.0,1,1.0,0.2187010000002374
810,13,0.5,1.0,35.0,1,1.0,0.501901000000089
811,13,0.5,0.0625,-35.0,-1,1.0,17.705300999999963
812,13,0.5,1.0,-35.0,-1,1.0,0.5323009999997339
813,13,0.5,1.0,-35.0,-1,1.0,0.5423009999999522
814,13,0.5,1.0,35.0,1,1.0,0.47250099999973827
815,13,0.5,1.0,-35.0,-1,1.0,0.27920099999982995
816,13,0.5,0.125,35.0,1,1.0,14.552600999999868
817,13,0.5,0.0625,-35.0,-1,1.0,0.5296009999997295
818,13,0.5,0.0,35.0,-1,0.0,0.20300099999985832
819,13,0.5,0.0,-35.0,-1,1.0,0.6364009999997506
820,13,0.5,1.0,-35.0,-1,1.0,24.279900999999427
821,13,0.5,0.125,35.0,1,1.0,33.21030099999962
822,13,0.5,1.0,35.0,1,1.0,0.45770100000027014
823,13,0.5,1.0,-35.0,-1,1.0,0.2812010000002374
824,13,0.5,0.25,-35.0,-1,1.0,0.43780100000003586
825,13,0.5,0.0,-35.0,-1,1.0,0.24120099999981903
826,13,0.5,0.25,35.0,1,1.0,0.35130000000026484
827,13,0.5,0.0625,-35.0,1,0.0,19.108000999999604
828,13,0.5,0.25,-35.0,-1,1.0,0.28850099999999657
829,13,0.5,1.0,35.0,1,1.0,0.24520099999972444
830,13,0.5,0.0625,35.0,-1,0.0,0.1119010000002163
831,13,0.5,0.25,35.0,1,1.0,0.2654010000001108
832,13,0.5,0.125,35.0,1,1.0,0.8521009999999478
833,13,0.5,0.0,-35.0,-1,1.0,0.2688010000001668
834,13,0.5,0.25,35.0,-1,0.0,0.29890100000011444
835,13,0.5,0.25,-35.0,-1,1.0,0.23210100000005696
836,13,0.5,1.0,-35.0,-1,1.0,0.24230099999977028
837,13,0.5,0.125,-35.0,-1,1.0,0.3323009999999158
838,13,0.5,0.25,35.0,-1,0.0,0.08910100000002785
839,13,0.3,0.25,35.0,1,1.0,0.28910099999984595
840,13,0.5,1.0,-35.0,-1,1.0,0.2858009999999922
841,13,0.5,0.0625,-35.0,1,0.0,0.32920100000001185
842,13,0.5,0.0625,-35.0,-1,1.0,0.4426010000001952
843,13,0.5,0.25,35.0,1,1.0,0.29590099999950326
844,13,0.5,0.125,-35.0,-1,1.0,0.3429009999995287
845,13,0.5,0.125,-35.0,-1,1.0,0.4162010000004557
846,13,0.5,0.25,-35.0,-1,1.0,0.2196009999997841
847,13,0.5,0.0,35.0,-1,0.0,0.23290099999985614
848,13,0.5,0.0625,-35.0,-1,1.0,9.35950099999991
849,13,0.5,0.0,35.0,-1,0.0,28.809700999999677
850,13,0.5,0.0625,35.0,-1,0.0,0.283900999999787
851,13,0.5,0.0625,35.0,-1,0.0,0.2205010000002403
852,13,0.5,0.25,-35.0,-1,1.0,0.28400100000044404
853,13,0.5,0.25,-35.0,-1,1.0,0.3473009999997885
854,13,0.5,0.25,35.0,1,1.0,0.3140010000001894
855,13,0.5,1.0,-35.0,-1,1.0,0.45070099999975355
856,13,0.5,1.0,-35.0,-1,1.0,0.19420099999979357
857,13,0.5,0.125,35.0,-1,0.0,0.6375009999997019
858,13,0.5,0.125,35.0,1,1.0,11.357700999999906
859,13,0.5,0.125,35.0,1,1.0,6.354701000000205
860,13,0.5,0.125,35.0,1,1.0,0.784801000000698
861,13,0.5,0.0625,-35.0,-1,1.0,0.5050010000004477
862,13,0.5,1.0,35.0,1,1.0,0.27830100000028324
863,13,0.5,0.0,35.0,-1,0.0,21.11840100000063
864,13,0.5,0.125,35.0,1,1.0,1.002201000000241
865,13,0.5,0.0,35.0,1,1.0,9.148901000001388
866,13,0.5,0.125,35.0,1,1.0,0.2659010000006674
867,13,0.5,0.25,-35.0,-1,1.0,0.44260100000064995
868,13,0.5,0.0625,35.0,-1,0.0,18.85950100000082
869,13,0.5,0.0625,35.0,1,1.0,0.35980100000051607
870,13,0.5,0.125,-35.0,-1,1.0,0.3865010000008624
871,13,0.5,1.0,35.0,1,1.0,0.3833010000007562
872,13,0.5,0.0,-35.0,1,0.0,9.139901000000464
873,13,0.6,0.0,-35.0,-1,1.0,5.326901000000362
874,13,0.5,1.0,-35.0,-1,1.0,0.2737010000009832
875,13,0.5,0.25,35.0,-1,0.0,13.72030100000029
876,13,0.5,0.125,35.0,1,1.0,2.4708010000003924
877,13,0.5,0.0625,-35.0,-1,1.0,15.374401000000944
878,13,0.5,0.0625,-35.0,-1,1.0,0.2546010000005481
879,13,0.5,0.0625,35.0,-1,0.0,20.408000999999786
880,13,0.5,0.125,-35.0,-1,1.0,0.2719010000009803
881,13,0.5,0.25,-35.0,-1,1.0,0.2721010000004753
882,13,0.5,0.25,35.0,1,1.0,15.972001000000091
883,13,0.5,0.0,35.0,1,1.0,0.37570100000084494
884,13,0.5,0.25,35.0,1,1.0,0.4258010000003196
885,13,0.5,0.125,35.0,1,1.0,33.49930099999983
886,13,0.5,1.0,35.0,1,1.0,0.30330100000082894
887,13,0.5,1.0,35.0,1,1.0,1.5368010000011054
888,13,0.5,0.0625,35.0,1,1.0,0.26690099999996164
889,13,0.5,0.0625,35.0,-1,0.0,28.27690100000018
890,13,0.5,0.125,35.0,1,1.0,0.6942010000002483
891,13,0.5,0.25,35.0,1,1.0,0.2943009999999049
892,13,0.5,0.125,-35.0,-1,1.0,8.767801000000873
893,13,0.5,0.0625,-35.0,-1,1.0,15.724701000001005
894,13,0.5,0.125,35.0,1,1.0,0.38820100000066304
895,13,0.5,0.25,35.0,1,1.0,9.60830100000021
896,13,0.5,0.0625,35.0,1,1.0,0.4987010000004375
897,13,0.5,0.0625,35.0,1,1.0,0.5653010000005452
898,13,0.5,1.0,35.0,-1,0.0,0.6623009999993883
899,13,0.5,0.0,-35.0,-1,1.0,25.932300999999825
900,13,0.5,0.0625,-35.0,-1,1.0,8.80960100000084
901,13,0.5,0.25,-35.0,-1,1.0,0.3031010000004244
902,13,0.5,0.0625,35.0,1,1.0,1.489900999999918
903,13,0.5,0.0625,-35.0,-1,1.0,6.370001000000229
904,13,0.5,0.0,-35.0,-1,1.0,0.47010099999988597
905,13,0.5,0.125,35.0,-1,0.0,12.520401000000675
906,13,0.3,0.125,35.0,-1,0.0,0.3774010000006456
907,13,0.5,1.0,35.0,1,1.0,17.243900999999823
908,13,0.5,0.0625,35.0,0,0.0,59.94440099999974
909,13,0.5,0.25,35.0,1,1.0,0.32230100000015227
910,13,0.5,0.25,-35.0,-1,1.0,0.309001000000535
911,13,0.5,0.0,35.0,-1,0.0,19.819001000000753
912,13,0.4,0.0,35.0,1,1.0,5.902901000000384
913,13,0.5,1.0,-35.0,-1,1.0,0.19970100000045932
1,14,0.5,0.0,35.0,-1,0.0,0.2636999999999998
2,14,0.5,0.25,35.0,1,1.0,0.08170000000000055
3,14,0.5,0.0625,-35.0,1,0.0,0.45679999999999943
4,14,0.5,0.0,-35.0,-1,1.0,0.5015999999999998
5,14,0.5,0.125,-35.0,-1,1.0,0.2489000000000008
6,14,0.5,0.0625,-35.0,-1,1.0,0.15149999999999864
7,14,0.5,0.25,35.0,1,1.0,0.3796000000000035
8,14,0.5,1.0,35.0,1,1.0,0.2262999999999984
9,14,0.5,1.0,35.0,1,1.0,0.25509999999999877
10,14,0.5,0.0,35.0,-1,0.0,1.2832000000000008
11,14,0.5,0.25,35.0,1,1.0,0.5242999999999967
12,14,0.5,0.25,35.0,1,1.0,4.062099999999994
13,14,0.5,0.0625,35.0,-1,0.0,0.22860000000000724
14,14,0.5,0.0625,-35.0,-1,1.0,0.31620000000000203
15,14,0.5,0.0625,-35.0,-1,1.0,0.30639999999999645
16,14,0.5,0.125,-35.0,-1,1.0,0.3750999999999962
17,14,0.5,0.25,-35.0,-1,1.0,0.2597999999999985
18,14,0.5,0.0625,35.0,1,1.0,2.3811999999999998
19,14,0.5,1.0,-35.0,-1,1.0,0.23169999999998936
20,14,0.5,1.0,-35.0,-1,1.0,0.25499999999999545
21,14,0.5,0.25,35.0,1,1.0,3.2601999999999833
22,14,0.5,0.25,35.0,1,1.0,0.28669999999998197
23,14,0.5,1.0,-35.0,-1,1.0,0.377200000000002
24,14,0.5,0.0625,35.0,-1,0.0,0.3850000000000051
25,14,0.5,0.0625,-35.0,-1,1.0,0.6452999999999918
26,14,0.5,0.125,-35.0,-1,1.0,0.17080000000001405
27,14,0.5,0.25,35.0,1,1.0,0.6329999999999814
28,14,0.5,1.0,35.0,1,1.0,0.33559999999999945
29,14,0.5,0.25,-35.0,-1,1.0,0.2797999999999945
30,14,0.5,1.0,-35.0,-1,1.0,0.3202999999999889
31,14,0.5,0.125,35.0,-1,0.0,0.4818000000000069
32,14,0.5,0.0,35.0,1,1.0,0.34489999999999554
33,14,0.5,0.0625,-35.0,-1,1.0,0.29420000000000357
34,14,0.5,0.25,35.0,1,1.0,0.5121999999999929
35,14,0.5,0.125,35.0,1,1.0,0.7709999999999866
36,14,0.5,0.25,-35.0,-1,1.0,0.26550000000000296
37,14,0.5,0.125,-35.0,-1,1.0,0.3766999999999996
38,14,0.5,0.0,-35.0,1,0.0,2.9072000000000173
39,14,0.4,0.0,-35.0,-1,1.0,0.4766999999999939
40,14,0.5,1.0,35.0,-1,0.0,1.7723000000000013
41,14,0.5,0.125,35.0,1,1.0,2.4061000000000092
42,14,0.5,1.0,35.0,1,1.0,6.0382000000000176
43,14,0.5,1.0,-35.0,-1,1.0,0.6007000000000176
44,14,0.5,0.25,-35.0,-1,1.0,0.3383999999999787
45,14,0.5,0.0,35.0,-1,0.0,3.0989999999999895
46,14,0.5,0.25,-35.0,-1,1.0,0.3074999999999761
47,14,0.5,0.0625,35.0,-1,0.0,0.21050000000002456
48,14,0.5,0.125,35.0,1,1.0,0.582300000000032
49,14,0.5,0.0625,-35.0,1,0.0,3.3590000000000373
50,14,0.5,0.25,35.0,1,1.0,0.32689999999999486
51,14,0.5,0.0,35.0,1,1.0,5.219400000000007
52,14,0.5,1.0,-35.0,-1,1.0,0.25090000000000146
53,14,0.5,0.125,35.0,1,1.0,0.3498000000000161
54,14,0.5,1.0,-35.0,-1,1.0,0.2658000000000129
55,14,0.5,0.0625,35.0,1,1.0,0.5909999999999798
56,14,0.5,0.25,-35.0,-1,1.0,0.6432000000000073
57,14,0.5,0.25,35.0,1,1.0,0.4148999999999887
58,14,0.5,1.0,-35.0,-1,1.0,0.6927000000000021
59,14,0.5,0.0625,-35.0,-1,1.0,0.9945000000000164
60,14,0.5,0.0625,35.0,1,1.0,2.5027000000000044
61,14,0.5,0.25,-35.0,-1,1.0,0.21980000000002065
62,14,0.5,1.0,-35.0,-1,1.0,0.42670000000001096
63,14,0.5,0.25,35.0,1,1.0,0.33150000000000546
64,14,0.5,0.0,35.0,1,1.0,0.5344000000000051
65,14,0.5,0.0625,-35.0,1,0.0,3.342899999999986
66,14,0.5,0.125,35.0,1,1.0,0.22040000000001214
67,14,0.5,0.0625,35.0,1,1.0,0.3415000000000248
68,14,0.5,0.0625,-35.0,-1,1.0,0.5302999999999827
69,14,0.5,0.0625,35.0,1,1.0,1.6160000000000139
70,14,0.5,0.125,-35.0,-1,1.0,1.1076000000000192
71,14,0.5,0.25,35.0,1,1.0,2.559599999999989
72,14,0.5,0.0625,-35.0,-1,1.0,0.3386999999999887
73,14,0.5,0.0,-35.0,1,0.0,2.41100000000003
74,14,0.5,0.0625,-35.0,-1,1.0,0.37579900000000066
75,14,0.5,0.25,-35.0,-1,1.0,0.1665999999999883
76,14,0.5,1.0,-35.0,-1,1.0,0.24090000000001055
77,14,0.5,1.0,35.0,1,1.0,0.5253000000000156
78,14,0.5,1.0,35.0,1,1.0,0.22710000000000719
79,14,0.5,1.0,-35.0,-1,1.0,0.3102999999999838
80,14,0.5,1.0,35.0,1,1.0,0.6455000000000268
81,14,0.5,0.25,-35.0,-1,1.0,0.31459999999998445
82,14,0.5,0.25,-35.0,1,0.0,4.536100000000033
83,14,0.5,0.0625,35.0,1,1.0,0.13879999999994652
84,14,0.5,0.0625,-35.0,-1,1.0,0.18940000000003465
85,14,0.5,0.25,35.0,1,1.0,0.3216000000000463
86,14,0.5,0.125,-35.0,-1,1.0,0.2518000000000029
87,14,0.5,1.0,-35.0,-1,1.0,0.3562000000000012
88,14,0.5,0.0,-35.0,-1,1.0,3.005299999999977
89,14,0.5,0.25,35.0,1,1.0,0.17199999999996862
90,14,0.5,0.125,-35.0,-1,1.0,0.5140999999999849
91,14,0.5,1.0,-35.0,-1,1.0,0.37870000000003756
92,14,0.5,0.125,-35.0,-1,1.0,0.276299999999992
93,14,0.5,0.25,-35.0,-1,1.0,1.7787999999999897
94,14,0.5,0.0625,35.0,1,1.0,2.963099999999997
95,14,0.5,0.125,-35.0,-1,1.0,0.529200000000003
96,14,0.5,0.25,35.0,1,1.0,0.42259999999998854
97,14,0.5,0.0625,35.0,-1,0.0,0.19790000000000418
98,14,0.3,0.0625,35.0,1,1.0,0.3661000000000172
99,14,0.5,1.0,-35.0,-1,1.0,0.3276000000000181
100,14,0.5,1.0,-35.0,-1,1.0,0.3220999999999776
101,14,0.5,0.125,-35.0,1,0.0,3.5766000000000417
102,14,0.4,0.125,35.0,-1,0.0,0.39740000000000464
103,14,0.5,1.0,35.0,1,1.0,0.21959999999995716
104,14,0.5,1.0,-35.0,-1,1.0,0.19460000000003674
105,14,0.5,0.0625,35.0,1,1.0,0.26630000000005793
106,14,0.5,1.0,35.0,1,1.0,0.29899999999997817
107,14,0.5,1.0,35.0,1,1.0,0.36299999999999955
108,14,0.5,0.125,-35.0,-1,1.0,0.44710000000003447
109,14,0.5,0.125,-35.0,1,0.0,5.514099999999985
110,14,0.5,0.25,-35.0,-1,1.0,0.2918000000000234
111,14,0.5,0.125,35.0,1,1.0,0.7433000000000334
112,14,0.5,1.0,-35.0,-1,1.0,0.419399999999996
113,14,0.5,0.0625,-35.0,-1,1.0,10.735400000000027
114,14,0.5,0.0625,-35.0,-1,1.0,2.5709999999999695
115,14,0.5,0.125,35.0,1,1.0,0.8867000000000189
116,14,0.5,0.0,35.0,-1,0.0,0.4375
117,14,0.5,0.0625,-35.0,-1,1.0,0.3195999999999799
118,14,0.5,0.25,-35.0,1,0.0,0.3854999999999791
119,14,0.4,0.25,35.0,1,1.0,0.2639000000000351
120,14,0.5,1.0,35.0,1,1.0,0.29849999999999
121,14,0.5,1.0,-35.0,-1,1.0,0.24430000000000973
122,14,0.5,1.0,-35.0,-1,1.0,0.3482999999999947
123,14,0.5,0.25,35.0,1,1.0,6.258500000000026
124,14,0.5,0.125,-35.0,-1,1.0,0.2616999999999621
125,14,0.5,0.125,35.0,-1,0.0,2.063199999999938
126,14,0.4,0.125,35.0,1,1.0,0.3428000000000111
127,14,0.5,1.0,35.0,1,1.0,0.3673000000000002
128,14,0.5,0.125,35.0,-1,0.0,0.30520000000001346
129,14,0.5,0.25,-35.0,-1,1.0,0.7835000000000036
130,14,0.5,0.125,-35.0,-1,1.0,0.45189999999996644
131,14,0.5,0.0625,35.0,1,1.0,6.759299999999996
132,14,0.5,0.0625,35.0,1,1.0,0.3734000000000606
133,14,0.5,0.25,-35.0,-1,1.0,0.27509999999995216
134,14,0.5,0.25,-35.0,-1,1.0,0.21129999999999427
135,14,0.5,0.125,35.0,1,1.0,5.408299999999997
136,14,0.5,1.0,-35.0,-1,1.0,0.49900000000002365
137,14,0.5,0.125,35.0,1,1.0,2.204499999999996
138,14,0.5,0.125,35.0,1,1.0,0.3684000000000083
139,14,0.5,1.0,-35.0,-1,1.0,0.7470000000000141
140,14,0.5,0.25,35.0,1,1.0,6.099599999999953
141,14,0.5,0.125,-35.0,-1,1.0,0.23959999999999582
142,14,0.5,0.125,35.0,1,1.0,3.235300000000052
143,14,0.5,0.0625,-35.0,-1,1.0,0.5366999999999962
144,14,0.5,0.125,35.0,1,1.0,5.064199999999971
145,14,0.5,0.125,35.0,1,1.0,2.6954000000000065
146,14,0.5,0.25,35.0,1,1.0,0.25649999999996
147,14,0.5,0.0,35.0,1,1.0,3.0493999999999915
148,14,0.5,0.25,-35.0,-1,1.0,0.40430000000003474
149,14,0.5,0.0,35.0,-1,0.0,4.593899999999962
150,14,0.5,0.25,35.0,1,1.0,0.3088999999999942
151,14,0.5,0.125,-35.0,-1,1.0,0.3929999999999154
152,14,0.5,1.0,-35.0,-1,1.0,0.5593000000000075
153,14,0.5,1.0,-35.0,-1,1.0,0.47640000000001237
154,14,0.5,1.0,-35.0,-1,1.0,0.3565999999999576
155,14,0.5,0.125,35.0,1,1.0,4.578499999999963
156,14,0.5,0.25,35.0,1,1.0,4.3437000000000126
157,14,0.5,0.0,-35.0,-1,1.0,0.26720000000000255
158,14,0.5,0.0625,-35.0,1,0.0,7.581499999999892
159,14,0.5,0.25,-35.0,-1,1.0,0.2947000000000344
160,14,0.5,0.0625,-35.0,-1,1.0,0.43629999999996016
161,14,0.5,0.125,35.0,1,1.0,6.3151000000000295
162,14,0.5,0.25,-35.0,-1,1.0,0.19650000000001455
163,14,0.5,0.125,-35.0,-1,1.0,0.2665000000000646
164,14,0.5,0.0,35.0,1,1.0,6.364599999999996
165,14,0.5,1.0,35.0,1,1.0,0.24959999999998672
166,14,0.5,0.125,-35.0,-1,1.0,0.3672000000000253
167,14,0.5,0.25,35.0,1,1.0,0.4132000000000744
168,14,0.5,0.0625,-35.0,1,0.0,5.706400000000031
169,14,0.5,0.0,35.0,-1,0.0,0.38390000000003965
170,14,0.5,0.125,35.0,1,1.0,0.21519999999998163
171,14,0.5,0.0,35.0,1,1.0,0.4453000000000884
172,14,0.5,0.0625,35.0,1,1.0,4.326999999999998
173,14,0.5,0.25,35.0,1,1.0,0.21420000000011896
174,14,0.5,1.0,-35.0,-1,1.0,0.4596000000000231
175,14,0.5,0.125,35.0,1,1.0,7.085299999999961
176,14,0.5,0.125,-35.0,-1,1.0,0.50649999999996
177,14,0.5,0.25,-35.0,-1,1.0,0.4555000000000291
178,14,0.5,0.25,-35.0,1,0.0,6.844100000000026
179,14,0.5,0.0625,-35.0,-1,1.0,0.060899999999946886
180,14,0.5,0.0625,-35.0,-1,1.0,1.977700000000027
181,14,0.5,1.0,-35.0,-1,1.0,0.27520000000004075
182,14,0.5,1.0,35.0,1,1.0,0.29139999999995325
183,14,0.5,0.25,35.0,1,1.0,0.4375
184,14,0.5,0.0625,35.0,-1,0.0,0.3711999999999307
185,14,0.5,0.125,-35.0,-1,1.0,0.4134999999999991
186,14,0.5,0.25,-35.0,-1,1.0,0.5307000000000244
187,14,0.5,1.0,-35.0,-1,1.0,0.30779999999992924
188,14,0.5,0.125,35.0,-1,0.0,2.985400000000027
189,14,0.5,0.125,35.0,1,1.0,0.3091999999999189
190,14,0.5,0.125,35.0,1,1.0,0.5471999999999753
191,14,0.5,0.125,35.0,1,1.0,0.2942999999999074
192,14,0.5,1.0,-35.0,-1,1.0,0.3369000000000142
193,14,0.5,0.25,-35.0,-1,1.0,0.38149999999996
194,14,0.5,0.0625,-35.0,-1,1.0,1.2617999999999938
195,14,0.5,0.0,35.0,-1,0.0,0.2518000000000029
196,14,0.3,0.0,-35.0,1,0.0,0.1854999999999336
197,14,0.5,1.0,-35.0,-1,1.0,0.26520000000004984
198,14,0.5,0.125,35.0,1,1.0,0.3180999999999585
199,14,0.5,0.125,-35.0,-1,1.0,2.0469000000000506
200,14,0.5,0.25,35.0,1,1.0,0.37570000000005166
201,14,0.5,0.125,35.0,1,1.0,6.222600000000057
202,14,0.5,0.25,35.0,1,1.0,9.576999999999998
203,14,0.5,0.125,-35.0,-1,1.0,0.3160000000000309
204,14,0.5,1.0,-35.0,-1,1.0,5.238499000000047
205,14,0.5,1.0,-35.0,-1,1.0,0.29309999999998126
206,14,0.5,0.125,35.0,-1,0.0,1.8357999999999493
207,14,0.5,0.0625,35.0,-1,0.0,0.24320000000011532
208,14,0.5,0.25,-35.0,-1,1.0,0.5401000000000522
209,14,0.5,0.25,-35.0,-1,1.0,0.22210000000006858
210,14,0.5,1.0,35.0,1,1.0,0.24239999999997508
211,14,0.5,1.0,-35.0,-1,1.0,0.4109999999999445
212,14,0.5,0.125,35.0,-1,0.0,0.2521000000000413
213,14,0.5,0.25,-35.0,-1,1.0,0.22730000000001382
214,14,0.5,0.25,35.0,1,1.0,0.2604000000000042
215,14,0.5,1.0,-35.0,-1,1.0,0.45070000000009713
216,14,0.5,0.125,-35.0,-1,1.0,0.38360000000011496
217,14,0.5,1.0,35.0,1,1.0,0.3485999999999194
218,14,0.5,0.25,35.0,1,1.0,2.0892000000000053
219,14,0.5,1.0,-35.0,-1,1.0,0.3526000000000522
220,14,0.5,1.0,-35.0,-1,1.0,0.9728999999999814
221,14,0.5,0.0,-35.0,-1,1.0,0.355199999999968
222,14,0.5,1.0,35.0,1,1.0,0.4757999999999356
223,14,0.5,0.0625,-35.0,1,0.0,2.920900000000074
224,14,0.5,0.0625,-35.0,-1,1.0,0.39229999999997744
225,14,0.5,1.0,35.0,1,1.0,0.28890000000012606
226,14,0.5,0.25,35.0,1,1.0,0.3190999999999349
227,14,0.5,1.0,35.0,-1,0.0,6.811199999999985
228,14,0.5,0.25,35.0,1,1.0,0.43619999999998527
229,14,0.5,0.125,35.0,1,1.0,0.2924000000000433
230,14,0.5,0.125,35.0,1,1.0,0.30910000000005766
231,14,0.5,0.125,-35.0,-1,1.0,0.273900000000026
232,14,0.5,0.0625,-35.0,-1,1.0,0.39650000000006
233,14,0.5,0.0625,-35.0,-1,1.0,0.40980000000001837
234,14,0.5,0.25,35.0,-1,0.0,0.2781999999999698
235,14,0.5,0.125,-35.0,-1,1.0,0.42240000000003874
236,14,0.5,0.0625,35.0,-1,0.0,1.79849999999999
237,14,0.5,0.125,-35.0,-1,1.0,0.2478999999999587
238,14,0.5,0.0,35.0,-1,0.0,0.20310000000006312
239,14,0.5,0.125,35.0,1,1.0,0.3201999999999998
240,14,0.5,1.0,-35.0,-1,1.0,0.3081999999999425
241,14,0.5,0.0,-35.0,1,0.0,3.61830000000009
242,14,0.5,0.0,-35.0,-1,1.0,3.478399999999965
243,14,0.5,0.125,-35.0,-1,1.0,0.2193000000000893
244,14,0.5,0.0625,35.0,1,1.0,0.37170000000003256
245,14,0.5,0.25,35.0,-1,0.0,0.4236000000000786
246,14,0.5,0.0,35.0,-1,0.0,0.5480000000000018
247,14,0.5,0.25,-35.0,-1,1.0,0.18840000000000146
248,14,0.5,1.0,-35.0,-1,1.0,0.345299999999952
249,14,0.5,0.0625,35.0,1,1.0,6.06149999999991
250,14,0.5,0.125,-35.0,-1,1.0,0.5864010000000235
251,14,0.5,1.0,35.0,1,1.0,4.279601000000071
252,14,0.5,1.0,35.0,1,1.0,0.25030100000003586
253,14,0.5,0.25,35.0,-1,0.0,0.19600100000002385
254,14,0.5,0.0625,35.0,-1,0.0,0.24680100000000493
255,14,0.5,0.125,35.0,1,1.0,0.3002010000000155
256,14,0.5,0.0625,35.0,1,1.0,3.7274010000001
257,14,0.5,1.0,-35.0,-1,1.0,0.2129010000001017
258,14,0.5,1.0,-35.0,-1,1.0,0.1889009999999871
259,14,0.5,1.0,-35.0,-1,1.0,0.29130099999997583
260,14,0.5,0.25,35.0,-1,0.0,0.3500010000000202
261,14,0.5,0.25,-35.0,-1,1.0,0.27490099999999984
262,14,0.5,0.0625,35.0,1,1.0,0.44040099999995164
263,14,0.5,0.125,-35.0,-1,1.0,0.20930100000009588
264,14,0.5,1.0,-35.0,-1,1.0,0.26520099999993363
265,14,0.5,0.25,-35.0,-1,1.0,0.23050100000000384
266,14,0.5,1.0,-35.0,-1,1.0,0.271300999999994
267,14,0.5,0.125,35.0,1,1.0,4.942500999999993
268,14,0.5,0.0625,35.0,1,1.0,2.9825010000000702
269,14,0.5,0.0625,35.0,-1,0.0,0.30530099999998583
270,14,0.3,0.0625,-35.0,-1,1.0,0.4430009999999811
271,14,0.5,1.0,35.0,1,1.0,0.2641009999999824
272,14,0.5,0.125,-35.0,-1,1.0,0.22060099999998783
273,14,0.5,0.0,-35.0,-1,1.0,0.21600100000000566
274,14,0.5,1.0,35.0,1,1.0,8.008901000000037
275,14,0.5,1.0,-35.0,-1,1.0,0.2921010000000024
276,14,0.5,0.0,-35.0,1,0.0,3.4489010000000917
277,14,0.5,0.25,-35.0,-1,1.0,0.31950099999994563
278,14,0.5,0.0,35.0,-1,0.0,0.35960099999988415
279,14,0.5,0.25,-35.0,-1,1.0,0.31900100000007114
280,14,0.5,0.25,35.0,1,1.0,0.31300099999998565
281,14,0.5,1.0,-35.0,-1,1.0,0.3392009999997754
282,14,0.5,0.0,35.0,1,1.0,3.9198010000000068
283,14,0.5,0.0,35.0,1,1.0,7.656000999999833
284,14,0.5,0.0625,35.0,-1,0.0,0.33340099999986705
285,14,0.4,0.0625,-35.0,-1,1.0,1.082000999999991
286,14,0.5,1.0,35.0,1,1.0,0.36970100000007733
287,14,0.5,0.0625,35.0,1,1.0,3.590100999999777
288,14,0.5,1.0,35.0,1,1.0,3.6238009999997303
289,14,0.5,0.0625,-35.0,-1,1.0,0.35020099999974263
290,14,0.5,1.0,35.0,1,1.0,0.2836009999998623
291,14,0.5,0.125,35.0,1,1.0,6.760400999999774
292,14,0.5,0.25,-35.0,-1,1.0,0.4210009999999329
293,14,0.5,0.25,35.0,1,1.0,16.00400099999979
294,14,0.5,1.0,35.0,1,1.0,0.7046009999999114
295,14,0.5,0.0625,35.0,1,1.0,11.69110099999989
296,14,0.5,0.0,-35.0,1,0.0,11.504600999999866
297,14,0.5,0.25,-35.0,-1,1.0,0.355000999999902
298,14,0.5,0.25,35.0,-1,0.0,1.6785009999998692
299,14,0.5,0.0625,-35.0,-1,1.0,0.34550099999978556
300,14,0.5,1.0,35.0,1,1.0,3.909100999999964
301,14,0.5,1.0,-35.0,-1,1.0,0.3424009999998816
302,14,0.5,0.25,-35.0,-1,1.0,0.2554009999998925
303,14,0.5,0.0,-35.0,-1,1.0,12.858700999999655
304,14,0.5,1.0,-35.0,-1,1.0,0.29570099999978083
305,14,0.5,0.0625,35.0,-1,0.0,0.3625009999998383
306,14,0.5,0.25,35.0,1,1.0,0.35300099999994927
307,14,0.5,1.0,35.0,1,1.0,0.6492009999999482
308,14,0.5,0.25,-35.0,-1,1.0,0.2994009999999889
309,14,0.5,1.0,35.0,1,1.0,0.2900009999998474
310,14,0.5,0.25,35.0,1,1.0,0.41610099999979866
311,14,0.5,1.0,35.0,1,1.0,7.709401000000071
312,14,0.5,0.25,35.0,-1,0.0,0.38380099999994854
313,14,0.5,0.25,35.0,1,1.0,0.4231009999998605
314,14,0.5,1.0,35.0,1,1.0,0.32980099999986123
315,14,0.5,0.0625,35.0,1,1.0,7.874001000000135
316,14,0.5,1.0,35.0,1,1.0,0.29350099999987833
317,14,0.5,0.0,35.0,-1,0.0,0.3804009999998925
318,14,0.7,0.0,-35.0,-1,1.0,0.3604009999999107
319,14,0.5,1.0,-35.0,-1,1.0,0.2336009999999078
320,14,0.5,0.125,35.0,1,1.0,5.120300999999699
321,14,0.5,0.125,-35.0,-1,1.0,1.193700999999919
322,14,0.5,0.125,35.0,1,1.0,0.47050099999978556
323,14,0.5,0.0625,35.0,1,1.0,0.37400099999990744
324,14,0.5,0.0625,35.0,-1,0.0,0.2641009999999824
325,14,0.5,0.0625,-35.0,-1,1.0,0.38410099999987324
326,14,0.5,1.0,-35.0,-1,1.0,0.28110099999980775
327,14,0.5,0.0625,35.0,-1,0.0,0.20410100000003695
328,14,0.3,0.0625,-35.0,-1,1.0,0.2840009999999893
329,14,0.5,1.0,35.0,1,1.0,0.29090099999984886
330,14,0.5,0.0625,-35.0,-1,1.0,0.22110099999986232
331,14,0.5,0.0625,35.0,-1,0.0,2.967800999999781
332,14,0.5,0.25,-35.0,-1,1.0,0.41010099999994054
333,14,0.5,0.25,-35.0,-1,1.0,0.20360099999993508
334,14,0.5,0.0625,35.0,-1,0.0,0.2603009999997994
335,14,0.5,0.0625,-35.0,-1,1.0,0.39370099999996455
336,14,0.5,0.25,35.0,-1,0.0,0.20029999999997017
337,14,0.1,0.25,35.0,1,1.0,0.02810100000010607
338,14,0.5,1.0,35.0,1,1.0,0.27050099999996746
339,14,0.5,1.0,-35.0,-1,1.0,0.3572009999998045
340,14,0.5,0.25,-35.0,-1,1.0,0.2272010000001501
341,14,0.5,1.0,35.0,1,1.0,1.3906009999998332
342,14,0.5,0.0625,-35.0,1,0.0,3.7507009999999354
343,14,0.5,0.125,35.0,1,1.0,0.38750099999992926
344,14,0.5,0.125,-35.0,-1,1.0,0.30760099999974955
345,14,0.5,0.125,35.0,1,1.0,4.544300999999905
346,14,0.5,0.0625,-35.0,-1,1.0,0.3812009999999191
347,14,0.5,0.25,35.0,-1,0.0,0.24450099999990016
348,14,0.5,0.0,-35.0,-1,1.0,0.2846009999998387
349,14,0.5,1.0,-35.0,-1,1.0,0.2013009999998303
350,14,0.5,0.125,-35.0,-1,1.0,0.3280009999998583
351,14,0.5,0.25,35.0,1,1.0,0.5115009999999529
352,14,0.5,1.0,-35.0,-1,1.0,0.2682009999996353
353,14,0.5,1.0,-35.0,-1,1.0,0.26820100000009006
354,14,0.5,0.0625,35.0,-1,0.0,0.47830099999987397
355,14,0.5,0.25,-35.0,-1,1.0,0.21850100000006023
356,14,0.5,0.0625,35.0,-1,0.0,0.20170099999995728
357,14,0.5,0.25,35.0,1,1.0,0.32520099999987906
358,14,0.5,1.0,35.0,1,1.0,0.38200099999994563
359,14,0.5,0.0625,35.0,1,1.0,0.5819009999997888
360,14,0.5,0.25,35.0,1,1.0,0.2888009999996939
361,14,0.5,0.125,35.0,1,1.0,0.5722009999997226
362,14,0.5,0.25,35.0,1,1.0,0.35880100000008497
363,14,0.5,0.25,35.0,1,1.0,0.4122010000000955
364,14,0.5,0.125,35.0,-1,0.0,0.2056009999998878
365,14,0.5,0.125,-35.0,-1,1.0,0.4157009999996717
366,14,0.5,0.125,-35.0,-1,1.0,0.42580099999986487
367,14,0.5,0.125,-35.0,-1,1.0,0.24260099999992235
368,14,0.5,1.0,35.0,1,1.0,0.2825009999999111
369,14,0.5,0.25,-35.0,-1,1.0,0.27930099999980484
370,14,0.5,1.0,35.0,1,1.0,0.5226009999998951
371,14,0.5,0.25,35.0,1,1.0,0.6527009999999791
372,14,0.5,0.125,35.0,1,1.0,6.359501000000137
373,14,0.5,0.125,-35.0,-1,1.0,0.373100999999906
374,14,0.5,0.0625,-35.0,-1,1.0,0.7264009999998962
375,14,0.5,0.25,35.0,1,1.0,7.01640099999986
376,14,0.5,1.0,-35.0,-1,1.0,0.24000100000012026
377,14,0.5,1.0,35.0,1,1.0,0.2700009999998656
378,14,0.5,0.25,-35.0,-1,1.0,0.4267009999998663
379,14,0.5,0.25,35.0,1,1.0,5.880200999999943
380,14,0.5,0.25,-35.0,-1,1.0,0.3570009999998547
381,14,0.5,0.0,-35.0,-1,1.0,0.553700999999819
382,14,0.5,0.125,35.0,1,1.0,6.380500999999867
383,14,0.5,0.0625,-35.0,1,0.0,0.6506009999998241
384,14,0.5,0.0625,-35.0,-1,1.0,0.4674009999998816
385,14,0.5,1.0,-35.0,-1,1.0,0.2442009999997481
386,14,0.5,1.0,35.0,1,1.0,7.47080099999971
387,14,0.5,0.0,-35.0,1,0.0,5.42120100000011
388,14,0.5,0.0625,35.0,1,1.0,0.35790099999962877
389,14,0.5,1.0,35.0,1,1.0,0.5480009999998856
390,14,0.5,0.25,35.0,-1,0.0,2.377900999999838
391,14,0.6,0.25,35.0,1,1.0,0.27140099999974154
392,14,0.5,1.0,35.0,1,1.0,0.29490099999998165
393,14,0.5,0.25,35.0,1,1.0,0.38490100000012717
394,14,0.5,0.25,-35.0,-1,1.0,0.28820100000007187
395,14,0.5,1.0,35.0,1,1.0,11.511700999999903
396,14,0.5,0.0625,-35.0,-1,1.0,0.32870099999991
397,14,0.5,0.0625,-35.0,-1,1.0,0.4754009999999198
398,14,0.5,0.125,35.0,1,1.0,5.778800999999703
399,14,0.5,1.0,-35.0,-1,1.0,0.24220099999979539
400,14,0.5,0.125,35.0,1,1.0,0.32220099999995
401,14,0.5,0.0,35.0,-1,0.0,0.4657009999998536
402,14,0.5,0.0,-35.0,-1,1.0,0.3991009999999733
403,14,0.5,1.0,35.0,1,1.0,0.12580099999968297
404,14,0.5,0.0625,35.0,-1,0.0,0.42580100000009224
405,14,0.4,0.0625,-35.0,-1,1.0,0.5060009999999693
406,14,0.5,1.0,35.0,1,1.0,5.795900999999731
407,14,0.5,0.0625,-35.0,-1,1.0,0.3862010000000282
408,14,0.5,0.0,35.0,-1,0.0,0.2562009999999191
409,14,0.3,0.0,-35.0,-1,1.0,0.2763009999998758
410,14,0.5,1.0,-35.0,-1,1.0,0.2196009999997841
411,14,0.5,0.0625,-35.0,-1,1.0,8.176300999999967
412,14,0.5,0.25,35.0,1,1.0,0.34990099999981794
413,14,0.5,0.25,-35.0,-1,1.0,1.5166009999998096
414,14,0.5,0.25,-35.0,-1,1.0,0.24000099999989288
415,14,0.5,0.25,-35.0,-1,1.0,0.22020099999986087
416,14,0.5,1.0,35.0,1,1.0,5.16680099999985
417,14,0.5,0.125,-35.0,-1,1.0,0.2837009999998372
418,14,0.5,0.25,-35.0,-1,1.0,0.30370099999981903
419,14,0.5,0.25,-35.0,-1,1.0,0.25040100000001075
420,14,0.5,0.25,-35.0,-1,1.0,0.32370099999980084
421,14,0.5,1.0,-35.0,-1,1.0,0.2738010000000486
422,14,0.5,0.0625,-35.0,-1,1.0,0.6971009999999751
423,14,0.5,1.0,-35.0,-1,1.0,0.42390099999988706
424,14,0.5,0.0,35.0,-1,0.0,0.4073009999999613
425,14,0.5,0.0625,35.0,1,1.0,0.6741009999998369
426,14,0.5,0.125,-35.0,-1,1.0,0.5675009999999929
427,14,0.5,0.0625,35.0,-1,0.0,0.37420099999985723
428,14,0.1,0.0625,35.0,1,1.0,0.4576009999998405
429,14,0.5,1.0,35.0,1,1.0,5.557800999999927
430,14,0.5,1.0,-35.0,-1,1.0,0.2478009999997539
431,14,0.5,0.0,-35.0,1,0.0,2.717900999999756
432,14,0.5,0.125,-35.0,-1,1.0,0.3147009999997863
433,14,0.5,0.0625,35.0,1,1.0,0.3349009999997179
434,14,0.5,0.25,-35.0,-1,1.0,0.33140099999991435
435,14,0.5,0.125,35.0,1,1.0,0.44820099999992635
436,14,0.5,1.0,35.0,1,1.0,0.6382009999997535
437,14,0.5,0.0,35.0,1,1.0,6.248400999999831
438,14,0.5,1.0,-35.0,-1,1.0,0.455400999999938
439,14,0.5,0.125,35.0,1,1.0,3.855201000000079
440,14,0.5,0.0625,-35.0,-1,1.0,0.35540099999980157
441,14,0.5,0.0,-35.0,-1,1.0,0.43870099999980994
442,14,0.5,0.0,35.0,-1,0.0,0.27540099999987433
443,14,0.5,0.125,35.0,1,1.0,0.33560099999976956
444,14,0.5,0.125,35.0,-1,0.0,0.5123009999997521
445,14,0.5,0.0,-35.0,1,0.0,0.13230099999987033
446,14,0.5,0.125,-35.0,-1,1.0,0.37570099999993545
447,14,0.5,1.0,35.0,1,1.0,0.24250099999972008
448,14,0.5,1.0,-35.0,-1,1.0,0.20250099999998383
449,14,0.5,1.0,35.0,1,1.0,0.28260099999988597
450,14,0.5,0.125,-35.0,-1,1.0,0.276100999999926
451,14,0.5,1.0,-35.0,-1,1.0,0.35960099999988415
452,14,0.5,1.0,35.0,1,1.0,12.37970099999984
453,14,0.5,1.0,-35.0,-1,1.0,0.3367009999999482
454,14,0.5,0.125,-35.0,-1,1.0,0.4334009999997761
455,14,0.5,0.0625,35.0,1,1.0,4.696900999999798
456,14,0.5,0.0,-35.0,1,0.0,9.806900999999925
457,14,0.5,0.0,35.0,1,1.0,0.4004010000001017
458,14,0.5,1.0,35.0,1,1.0,0.4372009999999591
459,14,0.5,1.0,35.0,1,1.0,0.28070099999990816
460,14,0.5,0.25,35.0,1,1.0,0.6107009999998354
461,14,0.5,0.0625,35.0,1,1.0,7.04400099999998
462,14,0.5,0.0,-35.0,1,0.0,6.724300999999741
463,14,0.8,0.0,-35.0,1,0.0,0.3044009999998707
464,14,0.5,1.0,-35.0,-1,1.0,0.3044009999998707
465,14,0.5,0.25,35.0,-1,0.0,0.36120100000016464
466,14,0.5,0.125,35.0,1,1.0,0.2979009999999107
467,14,0.5,1.0,35.0,1,1.0,0.31460100000003877
468,14,0.5,0.25,-35.0,-1,1.0,0.4348009999998794
469,14,0.5,0.25,35.0,1,1.0,6.958100999999715
470,14,0.5,1.0,35.0,1,1.0,0.32160099999987324
471,14,0.5,0.25,35.0,1,1.0,0.41840099999967606
472,14,0.5,0.125,35.0,1,1.0,6.0485009999999875
473,14,0.5,0.25,35.0,1,1.0,0.2886009999997441
474,14,0.5,0.125,-35.0,-1,1.0,0.3987009999998463
475,14,0.5,0.25,-35.0,-1,1.0,0.18870099999980994
476,14,0.5,0.125,35.0,1,1.0,0.5388009999999213
477,14,0.5,0.125,35.0,1,1.0,4.592200999999932
478,14,0.5,0.125,-35.0,-1,1.0,0.4090009999999893
479,14,0.5,1.0,35.0,1,1.0,2.7224009999997634
480,14,0.5,0.125,35.0,1,1.0,0.4091009999999642
481,14,0.5,0.125,-35.0,-1,1.0,0.3425009999998565
482,14,0.5,1.0,-35.0,-1,1.0,0.2895009999999729
483,14,0.5,1.0,-35.0,-1,1.0,0.3361009999998714
484,14,0.5,0.25,35.0,1,1.0,6.902700999999752
485,14,0.5,0.25,35.0,1,1.0,0.29960099999971135
486,14,0.5,0.25,-35.0,-1,1.0,0.4429010000001199
487,14,0.5,0.0625,-35.0,-1,1.0,0.3464010000000144
488,14,0.5,0.0,-35.0,-1,1.0,9.42980099999977
489,14,0.5,0.125,-35.0,-1,1.0,0.40990099999976337
490,14,0.5,1.0,35.0,1,1.0,6.780100999999831
491,14,0.5,1.0,35.0,1,1.0,0.2602009999998245
492,14,0.5,0.0625,35.0,1,1.0,0.6070010000000821
493,14,0.5,0.0625,35.0,-1,0.0,0.30700099999990016
494,14,0.5,0.125,-35.0,-1,1.0,0.3971010000000206
495,14,0.5,1.0,-35.0,-1,1.0,0.23050100000000384
496,14,0.5,0.0625,35.0,-1,0.0,5.090500999999904
497,14,0.5,0.25,-35.0,-1,1.0,0.22400099999981649
498,14,0.5,1.0,35.0,1,1.0,0.2842009999999391
499,14,0.5,0.125,35.0,1,1.0,6.184200999999803
500,14,0.5,0.0625,-35.0,-1,1.0,0.44100099999968734
501,14,0.5,0.125,35.0,1,1.0,0.29110099999979866
502,14,0.5,0.0,-35.0,-1,1.0,6.211101000000099
503,14,0.5,0.0625,35.0,-1,0.0,0.2080999999998312
504,14,0.5,0.0625,-35.0,-1,1.0,0.4415009999997892
505,14,0.5,0.125,-35.0,-1,1.0,0.4248009999998885
506,14,0.5,0.125,-35.0,-1,1.0,0.21150099999999838
507,14,0.5,0.0625,35.0,-1,0.0,2.364900999999918
508,14,0.5,0.0625,35.0,-1,0.0,0.32170099999984814
509,14,0.5,0.125,-35.0,-1,1.0,0.26520099999993363
510,14,0.5,0.0625,-35.0,-1,1.0,0.3985009999998965
511,14,0.5,1.0,35.0,1,1.0,0.2919009999998252
512,14,0.5,0.0,-35.0,-1,1.0,7.465200999999752
513,14,0.5,0.125,-35.0,-1,1.0,0.245401000000129
514,14,0.5,0.25,35.0,-1,0.0,1.0721009999997477
515,14,0.5,0.0,-35.0,-1,1.0,0.3155010000000402
516,14,0.5,0.25,35.0,-1,0.0,0.33890100000007806
517,14,0.5,0.0625,-35.0,-1,1.0,0.5091009999996459
518,14,0.5,0.0625,35.0,-1,0.0,3.7057009999998627
519,14,0.5,0.125,-35.0,-1,1.0,0.7125009999999747
520,14,0.5,0.0625,35.0,-1,0.0,3.642500999999811
521,14,0.1,0.0625,35.0,1,1.0,0.449301000000105
522,14,0.5,1.0,35.0,1,1.0,0.5160009999999602
523,14,0.5,0.0625,-35.0,-1,1.0,0.359501000000364
524,14,0.5,1.0,-35.0,-1,1.0,0.23960099999976592
525,14,0.5,0.125,-35.0,-1,1.0,0.256300999999894
526,14,0.5,0.25,35.0,1,1.0,5.286400999999842
527,14,0.5,1.0,-35.0,-1,1.0,0.2999009999998634
528,14,0.5,0.25,35.0,1,1.0,5.846601000000192
529,14,0.5,0.0625,35.0,1,1.0,0.6435010000000148
530,14,0.5,0.0,35.0,1,1.0,4.206800999999814
531,14,0.5,0.0625,35.0,1,1.0,0.6069010000001072
532,14,0.5,0.25,-35.0,-1,1.0,2.1237009999999827
533,14,0.5,1.0,-35.0,-1,1.0,0.42720099999951344
534,14,0.5,0.0625,35.0,-1,0.0,0.293800999999803
535,14,0.5,0.125,35.0,1,1.0,0.3805010000000948
536,14,0.5,0.125,-35.0,-1,1.0,0.3306009999996604
537,14,0.5,0.25,-35.0,-1,1.0,0.3707009999998263
538,14,0.5,0.0625,-35.0,-1,1.0,1.080801000000065
539,14,0.5,0.25,35.0,1,1.0,7.890800999999556
540,14,0.5,0.25,-35.0,-1,1.0,0.26440099999990707
541,14,0.5,0.25,-35.0,-1,1.0,0.2077009999998154
542,14,0.5,0.125,-35.0,-1,1.0,0.49450100000012753
543,14,0.5,0.125,-35.0,-1,1.0,0.2213010000000395
544,14,0.5,0.0625,35.0,-1,0.0,0.4080010000002403
545,14,0.5,0.125,35.0,1,1.0,0.29120100000000093
546,14,0.5,0.0,35.0,-1,0.0,0.43470099999967715
547,14,0.5,0.25,35.0,1,1.0,0.374800999999934
548,14,0.5,0.125,35.0,1,1.0,4.674900999999863
549,14,0.5,0.25,-35.0,-1,1.0,0.3383009999997739
550,14,0.5,1.0,35.0,1,1.0,0.1717009999997572
551,14,0.5,1.0,-35.0,-1,1.0,0.24180099999966842
552,14,0.5,0.125,35.0,1,1.0,3.9519009999994523
553,14,0.5,1.0,-35.0,-1,1.0,0.34530099999983577
554,14,0.5,0.0625,-35.0,-1,1.0,0.29209999999966385
555,14,0.5,0.125,-35.0,-1,1.0,0.43880099999978484
556,14,0.5,0.25,-35.0,-1,1.0,0.4021010000001297
557,14,0.5,0.25,-35.0,-1,1.0,0.46550100000013117
558,14,0.5,0.125,-35.0,-1,1.0,0.22890099999995073
559,14,0.5,1.0,-35.0,-1,1.0,0.2457009999998263
560,14,0.5,0.125,35.0,-1,0.0,0.2356009999998605
561,14,0.1,0.125,35.0,1,1.0,0.5124009999994996
562,14,0.5,1.0,35.0,1,1.0,0.3125009999998838
563,14,0.5,0.125,-35.0,-1,1.0,0.3526010000000497
564,14,0.5,1.0,-35.0,-1,1.0,0.17590100000006714
565,14,0.5,1.0,-35.0,-1,1.0,0.37930099999994127
566,14,0.5,0.25,-35.0,-1,1.0,0.26610100000016246
567,14,0.5,1.0,-35.0,-1,1.0,0.196100999999544
568,14,0.5,0.25,35.0,-1,0.0,0.17620099999976446
569,14,0.5,0.0625,-35.0,-1,1.0,0.47280099999989034
570,14,0.5,0.25,35.0,1,1.0,0.29630100000031234
571,14,0.5,0.0625,35.0,-1,0.0,0.19320099999958984
572,14,0.5,0.0,35.0,-1,0.0,0.3131009999997332
573,14,0.5,0.0625,35.0,1,1.0,0.45320100000026287
574,14,0.5,0.25,35.0,1,1.0,0.26650100000006205
575,14,0.5,0.0,-35.0,1,0.0,0.47329999999965366
576,14,0.5,0.125,-35.0,-1,1.0,0.44330099999933736
577,14,0.5,1.0,35.0,1,1.0,0.3700010000002294
578,14,0.5,0.0625,35.0,1,1.0,0.6169009999998707
579,14,0.5,0.25,35.0,1,1.0,0.42030099999965387
580,14,0.5,0.125,-35.0,-1,1.0,0.17710099999976592
581,14,0.5,0.25,-35.0,-1,1.0,0.44720099999995
582,14,0.5,1.0,-35.0,-1,1.0,0.24380100000007587
583,14,0.5,0.125,-35.0,-1,1.0,0.19710099999974773
584,14,0.5,0.0,-35.0,1,0.0,1.1538009999994756
585,14,0.5,0.0,35.0,1,1.0,7.320600999999442
586,14,0.5,1.0,35.0,1,1.0,0.22420099999999366
587,14,0.5,0.125,-35.0,-1,1.0,0.4142010000000482
588,14,0.5,0.125,35.0,1,1.0,12.834201000000121
589,14,0.5,0.25,-35.0,-1,1.0,0.3179009999998925
590,14,0.5,0.0625,-35.0,-1,1.0,0.35800099999960366
591,14,0.5,0.25,-35.0,-1,1.0,0.23480100000006132
592,14,0.5,0.25,35.0,1,1.0,0.4247009999999136
593,14,0.5,0.125,-35.0,-1,1.0,0.20480099999986123
594,14,0.5,1.0,-35.0,-1,1.0,0.22840099999984886
595,14,0.5,0.125,-35.0,-1,1.0,0.22480099999984304
596,14,0.5,0.125,-35.0,-1,1.0,0.2250010000002476
597,14,0.5,0.125,-35.0,-1,1.0,1.348500999999942
598,14,0.5,0.0625,-35.0,-1,1.0,0.14830099999971935
599,14,0.5,1.0,-35.0,-1,1.0,3.108400999999958
600,14,0.5,1.0,-35.0,-1,1.0,0.19850099999985105
601,14,0.5,0.25,35.0,1,1.0,6.105200999999852
602,14,0.5,1.0,-35.0,-1,1.0,0.21200099999987287
603,14,0.5,0.125,35.0,-1,0.0,4.605401000000256
604,14,0.5,0.25,-35.0,-1,1.0,0.33560099999976956
605,14,0.5,0.0,-35.0,-1,1.0,0.49240099999997256
606,14,0.5,0.125,-35.0,-1,1.0,4.142500999999811
607,14,0.5,0.25,-35.0,-1,1.0,0.292500999999902
608,14,0.5,0.0625,35.0,-1,0.0,0.4825010000004113
609,14,0.5,0.125,35.0,1,1.0,0.462601000000177
610,14,0.5,0.0,35.0,-1,0.0,0.23260099999970407
611,14,0.5,0.125,-35.0,-1,1.0,0.25610099999948943
612,14,0.5,0.0625,35.0,-1,0.0,0.279500999999982
613,14,0.1,0.0625,35.0,1,1.0,0.343000999999731
614,14,0.5,1.0,35.0,1,1.0,0.2797009999999318
615,14,0.5,0.0625,-35.0,-1,1.0,0.2798010000001341
616,14,0.5,0.125,35.0,-1,0.0,0.5231010000002243
617,14,0.5,0.25,-35.0,-1,1.0,0.2733010000001741
618,14,0.5,1.0,35.0,1,1.0,0.22650100000009843
619,14,0.5,0.0,35.0,-1,0.0,0.38320100000009916
620,14,0.5,0.25,35.0,1,1.0,0.5933009999998831
621,14,0.5,1.0,-35.0,-1,1.0,0.2833009999994829
622,14,0.5,0.25,-35.0,-1,1.0,0.31680099999994127
623,14,0.5,0.0625,-35.0,1,0.0,3.2202010000000882
624,14,0.4,0.0625,35.0,-1,0.0,0.2536009999998896
625,14,0.5,1.0,35.0,1,1.0,0.26040100000000166
626,14,0.5,0.125,-35.0,-1,1.0,0.6538009999999304
627,14,0.5,0.0,-35.0,-1,1.0,0.24720099999967715
628,14,0.5,0.125,35.0,1,1.0,4.973900999999842
629,14,0.5,0.0625,-35.0,-1,1.0,0.32400099999949816
630,14,0.5,0.125,-35.0,-1,1.0,0.47090099999968515
631,14,0.5,0.0625,-35.0,-1,1.0,0.20080099999995582
632,14,0.5,1.0,-35.0,-1,1.0,0.40420099999982995
633,14,0.5,1.0,-35.0,-1,1.0,0.4575009999998656
634,14,0.5,0.0625,35.0,-1,0.0,5.877700999999888
635,14,0.2,0.0625,35.0,1,1.0,0.23440100000016173
636,14,0.5,1.0,35.0,1,1.0,0.40450099999952727
637,14,0.5,0.25,35.0,1,1.0,3.004500999999891
638,14,0.5,1.0,-35.0,-1,1.0,0.21470099999987724
639,14,0.5,0.25,35.0,1,1.0,6.011401000000205
640,14,0.5,0.0,35.0,-1,0.0,0.6049010000001545
641,14,0.5,0.25,-35.0,-1,1.0,0.2984010000000126
642,14,0.5,1.0,35.0,1,1.0,12.871900999999525
643,14,0.5,0.25,-35.0,-1,1.0,0.31210099999952945
644,14,0.5,0.25,35.0,1,1.0,2.1655009999999493
645,14,0.5,1.0,-35.0,-1,1.0,0.3023009999997157
646,14,0.5,0.0625,-35.0,-1,1.0,0.36890100000027815
647,14,0.5,0.125,35.0,-1,0.0,0.2623009999997521
648,14,0.5,0.125,35.0,1,1.0,0.6458009999996648
649,14,0.5,0.25,35.0,1,1.0,0.45250099999975646
650,14,0.5,0.0,-35.0,-1,1.0,0.2859009999997397
651,14,0.5,0.0625,-35.0,-1,1.0,0.23260100000015882
652,14,0.5,0.0625,-35.0,-1,1.0,0.19930099999965023
653,14,0.5,1.0,-35.0,-1,1.0,0.40270099999952436
654,14,0.5,0.0,35.0,-1,0.0,0.2593010000000504
655,14,0.2,0.0,35.0,-1,0.0,0.2730009999995673
656,14,0.5,1.0,35.0,1,1.0,0.2995009999999638
657,14,0.5,0.25,35.0,1,1.0,0.38290099999949234
658,14,0.5,0.125,-35.0,-1,1.0,0.5563009999996211
659,14,0.5,0.0625,35.0,1,1.0,4.869701000000077
660,14,0.5,0.0,-35.0,-1,1.0,0.4599009999997179
661,14,0.5,0.0625,-35.0,-1,1.0,0.27330099999971935
662,14,0.5,1.0,-35.0,-1,1.0,0.19330099999933736
663,14,0.5,0.25,-35.0,-1,1.0,1.7134009999999762
664,14,0.5,0.0625,35.0,-1,0.0,0.21690099999977974
665,14,0.3,0.0625,35.0,1,1.0,0.3602009999999609
666,14,0.5,1.0,35.0,1,1.0,0.3335010000000693
667,14,0.5,0.0625,35.0,1,1.0,0.46040099999981976
668,14,0.5,0.0,35.0,1,1.0,0.3837009999997463
669,14,0.5,0.25,-35.0,-1,1.0,0.627100999999584
670,14,0.5,0.0625,-35.0,-1,1.0,0.20720099999971353
671,14,0.5,0.125,-35.0,-1,1.0,0.2738009999998212
672,14,0.5,0.0,-35.0,1,0.0,10.46060099999977
673,14,0.5,0.25,-35.0,-1,1.0,0.2575010000000475
674,14,0.5,0.25,-35.0,-1,1.0,1.1575010000001384
675,14,0.5,1.0,35.0,1,1.0,3.020901000000322
676,14,0.5,0.125,35.0,1,1.0,0.44440099999974336
677,14,0.5,0.25,-35.0,-1,1.0,0.2978010000001632
678,14,0.5,1.0,35.0,1,1.0,0.27790100000038365
679,14,0.5,0.0,-35.0,1,0.0,9.061400999999478
680,14,0.5,0.0,35.0,-1,0.0,0.31150099999968006
681,14,0.5,0.25,35.0,1,1.0,0.3716010000002825
682,14,0.5,0.0625,35.0,1,1.0,0.4650010000000293
683,14,0.5,1.0,-35.0,-1,1.0,0.6551010000002861
684,14,0.5,0.25,-35.0,-1,1.0,0.2718009999998685
685,14,0.5,0.25,-35.0,-1,1.0,0.23190100000010716
686,14,0.5,0.125,35.0,-1,0.0,1.1919009999996888
687,14,0.5,0.0625,-35.0,1,0.0,5.911900999999489
688,14,0.5,0.0625,35.0,1,1.0,0.3389009999996233
689,14,0.5,1.0,-35.0,-1,1.0,0.3623010000001159
690,14,0.5,0.0625,-35.0,-1,1.0,1.058900999999878
691,14,0.5,0.125,35.0,1,1.0,12.098900999999842
692,14,0.5,0.25,35.0,1,1.0,0.4759009999997943
693,14,0.5,0.125,35.0,1,1.0,1.929501000000073
694,14,0.5,1.0,35.0,1,1.0,0.3028009999998176
695,14,0.5,0.25,-35.0,-1,1.0,0.30620100000032835
696,14,0.5,0.0625,-35.0,-1,1.0,0.8929010000001654
697,14,0.5,0.0625,-35.0,-1,1.0,0.44630099999994854
698,14,0.5,0.25,-35.0,-1,1.0,0.07970099999965896
699,14,0.5,0.0625,35.0,-1,0.0,0.20760099999961312
700,14,0.5,0.25,-35.0,-1,1.0,0.3447009999999864
701,14,0.5,1.0,35.0,1,1.0,0.23110099999985323
702,14,0.5,0.0625,35.0,1,1.0,7.524500999999873
703,14,0.5,1.0,-35.0,-1,1.0,0.16500099999939266
704,14,0.5,0.25,35.0,1,1.0,7.608001000000058
705,14,0.5,0.0,-35.0,-1,1.0,1.548301000000265
706,14,0.5,0.25,35.0,1,1.0,0.33200099999976374
707,14,0.5,0.0625,35.0,1,1.0,6.138500999999906
708,14,0.5,0.0,35.0,-1,0.0,0.17180099999995946
709,14,0.5,0.0,35.0,1,1.0,0.7924010000001545
710,14,0.5,1.0,-35.0,-1,1.0,0.29550099999960366
711,14,0.5,0.0,-35.0,-1,1.0,0.6919000000002598
712,14,0.5,0.125,35.0,1,1.0,7.291901000000053
713,14,0.5,0.25,-35.0,-1,1.0,0.26240099999995437
714,14,0.5,0.0625,-35.0,-1,1.0,1.0256009999998241
715,14,0.5,0.25,35.0,1,1.0,2.179700999999568
716,14,0.5,1.0,35.0,1,1.0,0.4961009999997259
717,14,0.5,0.0625,-35.0,-1,1.0,0.5059010000004491
718,14,0.5,0.25,35.0,1,1.0,3.0562009999998736
719,14,0.5,0.125,35.0,1,1.0,0.4094009999998889
720,14,0.5,0.125,-35.0,-1,1.0,0.23610099999996237
721,14,0.5,0.25,35.0,1,1.0,8.093100999999933
722,14,0.5,1.0,35.0,1,1.0,0.40300100000013117
723,14,0.5,0.25,35.0,1,1.0,0.29980099999966114
724,14,0.5,1.0,-35.0,-1,1.0,0.31700099999989106
725,14,0.5,0.125,35.0,1,1.0,7.307000999999673
726,14,0.5,0.0625,-35.0,-1,1.0,0.1200009999993199
727,14,0.5,0.25,35.0,1,1.0,0.6800009999997201
728,14,0.5,0.125,-35.0,-1,1.0,0.3909009999997579
729,14,0.5,1.0,-35.0,-1,1.0,0.2802010000000337
730,14,0.5,0.125,-35.0,1,0.0,5.4869009999997616
731,14,0.6,0.125,35.0,1,1.0,0.3869009999998525
732,14,0.5,1.0,35.0,1,1.0,0.24730099999987942
733,14,0.5,1.0,-35.0,-1,1.0,0.30720100000007733
734,14,0.5,0.125,35.0,-1,0.0,0.2573010000000977
735,14,0.5,0.125,35.0,1,1.0,0.5874009999997725
736,14,0.5,0.25,-35.0,-1,1.0,6.477901000000202
737,14,0.5,0.25,-35.0,-1,1.0,0.21110100000032617
738,14,0.5,0.0625,-35.0,1,0.0,4.524300999999923
739,14,0.5,0.125,-35.0,-1,1.0,0.3044009999998707
740,14,0.5,0.125,35.0,-1,0.0,2.5544009999998707
741,14,0.4,0.125,35.0,1,1.0,0.3182010000000446
742,14,0.5,1.0,-35.0,-1,1.0,0.2585010000002512
743,14,0.5,0.0625,-35.0,1,0.0,9.534800999999788
744,14,0.5,0.125,-35.0,-1,1.0,0.27220100000022285
745,14,0.5,0.25,-35.0,-1,1.0,0.28160099999968224
746,14,0.5,0.0,35.0,-1,0.0,4.265100999999959
747,14,0.5,0.125,35.0,1,1.0,0.332100999999966
748,14,0.5,0.0,35.0,-1,0.0,7.132400999999845
749,14,0.5,0.25,35.0,-1,0.0,0.14210099999991144
750,14,0.5,0.125,-35.0,-1,1.0,0.37550099999998565
751,14,0.5,0.0,35.0,-1,0.0,0.19560099999989689
752,14,0.5,0.0,-35.0,-1,1.0,3.705601000000115
753,14,0.5,0.125,-35.0,-1,1.0,0.21990099999948143
754,14,0.5,0.0,-35.0,-1,1.0,6.005801000000247
755,14,0.5,0.0625,-35.0,-1,1.0,0.19930100000010498
756,14,0.5,0.0625,-35.0,-1,1.0,0.2530010000000402
757,14,0.5,0.25,-35.0,-1,1.0,1.3264009999998052
758,14,0.5,1.0,-35.0,-1,1.0,0.2097009999997681
759,14,0.5,0.25,35.0,1,1.0,0.3198010000000977
760,14,0.5,0.25,35.0,1,1.0,4.532901000000038
761,14,0.5,0.0625,-35.0,-1,1.0,0.1965009999994436
762,14,0.5,0.25,35.0,-1,0.0,11.9166009999999
763,14,0.5,0.0,35.0,-1,0.0,0.4035009999997783
764,14,0.5,0.25,-35.0,-1,1.0,0.35020099999974263
765,14,0.5,0.125,-35.0,-1,1.0,0.3238010000000031
766,14,0.5,0.0625,35.0,1,1.0,8.764000999999553
767,14,0.5,0.125,-35.0,-1,1.0,0.3306009999996604
768,14,0.5,1.0,-35.0,-1,1.0,0.25080099999968297
769,14,0.5,0.25,35.0,1,1.0,0.2872010000000955
770,14,0.5,0.125,35.0,1,1.0,0.3440009999999347
771,14,0.5,1.0,-35.0,-1,1.0,0.2574009999998452
772,14,0.5,0.0,35.0,1,1.0,20.944300999999996
773,14,0.5,0.125,-35.0,-1,1.0,0.44790100000000166
774,14,0.5,1.0,-35.0,-1,1.0,0.22120100000029197
775,14,0.5,0.125,-35.0,-1,1.0,0.4745010000001457
776,14,0.5,0.125,35.0,-1,0.0,11.744901000000027
777,14,0.5,0.0625,35.0,1,1.0,0.13220100000035018
778,14,0.5,1.0,35.0,1,1.0,12.475401000000147
779,14,0.5,0.0625,-35.0,-1,1.0,14.482700999999906
780,14,0.5,0.125,35.0,1,1.0,24.50970099999995
781,14,0.5,0.125,-35.0,-1,1.0,0.483400999999958
782,14,0.5,1.0,35.0,1,1.0,0.7066009999998641
783,14,0.5,0.125,35.0,1,1.0,0.4267009999998663
784,14,0.5,0.0625,-35.0,1,0.0,1.1933009999997921
785,14,0.5,0.0625,-35.0,-1,1.0,5.056600999999773
786,14,0.5,0.125,35.0,-1,0.0,17.007300999999643
787,14,0.5,0.0625,35.0,-1,0.0,23.441101000000344
788,14,0.5,0.0625,-35.0,-1,1.0,0.40130100000033053
789,14,0.5,0.0625,-35.0,-1,1.0,0.28470100000004095
790,14,0.5,0.125,35.0,1,1.0,0.40120100000012826
791,14,0.5,0.0625,-35.0,-1,1.0,0.35810099999980594
792,14,0.5,0.0625,35.0,1,1.0,5.385201000000052
793,14,0.5,0.125,-35.0,-1,1.0,0.31160099999988233
794,14,0.5,0.0,35.0,-1,0.0,0.3587009999996553
795,14,0.5,0.25,-35.0,-1,1.0,0.2620010000000548
796,14,0.5,0.25,35.0,1,1.0,0.9051009999998314
797,14,0.5,0.0,-35.0,-1,1.0,5.745601000000079
798,14,0.5,0.25,35.0,1,1.0,0.5091009999996459
799,14,0.5,0.0625,-35.0,-1,1.0,0.4820009999998547
800,14,0.5,0.0625,35.0,-1,0.0,1.7455009999998765
801,14,0.5,0.25,35.0,1,1.0,9.3824010000003
802,14,0.5,0.25,-35.0,-1,1.0,0.35250099999939266
803,14,0.5,0.125,-35.0,-1,1.0,2.8824009999998452
804,14,0.5,0.25,35.0,1,1.0,17.949200999999448
805,14,0.5,0.125,35.0,1,1.0,11.402900999999929
806,14,0.5,0.125,-35.0,-1,1.0,0.2367010000002665
807,14,0.5,1.0,-35.0,-1,1.0,0.2603009999997994
808,14,0.5,0.125,35.0,1,1.0,26.337101000000075
809,14,0.5,0.125,35.0,1,1.0,0.7944010000001072
810,14,0.5,0.125,35.0,1,1.0,0.6011009999997441
811,14,0.5,0.125,-35.0,-1,1.0,8.727801
812,14,0.5,0.0625,35.0,-1,0.0,0.31800099999964004
813,14,0.5,0.0625,-35.0,-1,1.0,0.5313009999999849
814,14,0.5,1.0,35.0,1,1.0,0.28140099999973245
815,14,0.5,0.0625,35.0,-1,0.0,20.83460100000002
816,14,0.5,0.0,35.0,-1,0.0,0.318800999999894
817,14,0.5,0.0625,35.0,-1,0.0,34.77210100000002
818,14,0.4,0.0625,35.0,-1,0.0,0.28300099999978556
819,14,0.5,1.0,-35.0,-1,1.0,0.2496009999999842
820,14,0.5,1.0,-35.0,-1,1.0,0.2562009999996917
821,14,0.5,0.0625,-35.0,-1,1.0,9.452899999999772
822,14,0.5,0.25,-35.0,-1,1.0,0.1669010000000526
823,14,0.5,0.125,35.0,-1,0.0,4.939901000000191
824,14,0.5,0.25,-35.0,-1,1.0,0.5298009999996793
825,14,0.5,0.0625,35.0,-1,0.0,13.31360099999938
826,14,0.0,0.0625,35.0,-1,0.0,0.36690100000032544
827,14,0.5,1.0,35.0,1,1.0,0.23080099999970116
828,14,0.5,0.25,35.0,1,1.0,0.6040009999996983
829,14,0.5,0.25,35.0,1,1.0,8.784200999999939
830,14,0.5,1.0,-35.0,-1,1.0,0.25750099999959275
831,14,0.5,0.0625,35.0,1,1.0,5.718001000000186
832,14,0.5,0.25,35.0,1,1.0,7.2346010000001115
833,14,0.5,0.0625,-35.0,1,0.0,0.45460099999991144
834,14,0.5,0.0625,-35.0,1,0.0,0.38470099999995
835,14,0.5,0.0,-35.0,-1,1.0,18.492001000000073
836,14,0.5,0.25,-35.0,-1,1.0,0.17210099999965678
837,14,0.5,0.0,35.0,-1,0.0,7.125601000000188
838,14,0.5,0.125,35.0,1,1.0,0.5087009999997463
839,14,0.5,1.0,35.0,1,1.0,0.37900100000024395
840,14,0.5,0.0,35.0,-1,0.0,14.876200999999583
841,14,0.5,0.125,35.0,1,1.0,0.43620099999998274
842,14,0.5,0.0625,-35.0,1,0.0,3.399500999999873
843,14,0.5,0.125,-35.0,-1,1.0,5.886400999999751
844,14,0.5,1.0,-35.0,-1,1.0,0.2765009999998256
845,14,0.5,0.0625,35.0,-1,0.0,0.33360099999981685
846,14,0.5,0.125,-35.0,-1,1.0,0.35320099999989907
847,14,0.5,0.125,35.0,-1,0.0,0.20990100000017264
848,14,0.5,0.0625,35.0,1,1.0,23.693501000000197
849,14,0.5,1.0,-35.0,-1,1.0,0.25380100000029415
850,14,0.5,0.0625,35.0,-1,0.0,0.2340009999998074
851,14,0.5,0.0625,35.0,-1,0.0,37.630701000000045
852,14,0.5,0.0625,35.0,1,1.0,16.828200999999808
853,14,0.5,1.0,35.0,1,1.0,0.4291009999997186
854,14,0.5,0.25,35.0,1,1.0,0.46210100000007515
855,14,0.5,0.0,35.0,-1,0.0,19.549000999999862
856,14,0.4,0.0,35.0,-1,0.0,24.312700999999834
857,14,0.5,1.0,-35.0,-1,1.0,25.743300999999974
858,14,0.5,0.0625,35.0,-1,0.0,22.274401000000125
859,14,0.5,0.125,35.0,1,1.0,1.9912010000002738
860,14,0.5,0.0625,-35.0,1,0.0,14.51810099999966
861,14,0.5,0.125,-35.0,-1,1.0,0.31160099999988233
862,14,0.5,0.25,-35.0,1,0.0,45.091901000000234
1,15,0.5,0.0,35.0,-1,0.0,4.4841999999999995
2,15,0.5,0.25,-35.0,-1,1.0,0.22120099999999887
3,15,0.5,0.125,35.0,1,1.0,0.38310000000000066
4,15,0.5,1.0,-35.0,-1,1.0,0.2781009999999995
5,15,0.5,0.0625,-35.0,-1,1.0,0.31989999999999696
6,15,0.5,0.0625,-35.0,-1,1.0,0.24020000000000152
7,15,0.5,0.125,-35.0,-1,1.0,0.6043999999999947
8,15,0.5,0.25,35.0,1,1.0,0.36950000000000216
9,15,0.5,1.0,-35.0,-1,1.0,0.25789999999999935
10,15,0.5,0.0625,-35.0,-1,1.0,5.419800000000002
11,15,0.5,0.0625,-35.0,-1,1.0,0.5838999999999928
12,15,0.5,0.25,35.0,1,1.0,1.0639010000000013
13,15,0.5,0.25,35.0,1,1.0,0.4312010000000015
14,15,0.5,0.0625,-35.0,-1,1.0,0.5328999999999979
15,15,0.5,0.125,-35.0,-1,1.0,5.576400999999997
16,15,0.5,0.125,-35.0,-1,1.0,0.23689999999999145
17,15,0.5,0.0,35.0,-1,0.0,0.3920999999999992
18,15,0.5,0.0625,-35.0,-1,1.0,0.31280100000000743
19,15,0.5,0.0,-35.0,-1,1.0,0.3434010000000143
20,15,0.5,0.0625,35.0,1,1.0,4.952399999999997
21,15,0.5,0.0625,-35.0,-1,1.0,0.15289999999998827
22,15,0.5,0.0625,-35.0,-1,1.0,0.3189000000000135
23,15,0.5,0.0625,35.0,1,1.0,4.402299999999997
24,15,0.5,0.25,-35.0,-1,1.0,0.2921010000000024
25,15,0.5,0.125,-35.0,-1,1.0,0.801700000000011
26,15,0.5,0.0625,-35.0,-1,1.0,0.2656999999999954
27,15,0.5,0.125,-35.0,-1,1.0,0.38569999999999993
28,15,0.5,1.0,35.0,1,1.0,0.36820000000000164
29,15,0.5,0.0625,35.0,-1,0.0,3.372799999999998
30,15,0.5,0.0,35.0,-1,0.0,0.35590000000000543
31,15,0.5,0.125,35.0,1,1.0,0.3410000000000082
32,15,0.5,0.125,-35.0,-1,1.0,0.2990999999999957
33,15,0.5,0.0625,-35.0,-1,1.0,1.5979010000000073
34,15,0.5,0.125,35.0,1,1.0,3.6792000000000087
35,15,0.5,0.25,-35.0,-1,1.0,0.37890000000000157
36,15,0.5,0.0625,-35.0,1,0.0,4.274000999999998
37,15,0.5,0.125,35.0,1,1.0,0.39090000000001623
38,15,0.5,0.125,35.0,1,1.0,0.5142999999999915
39,15,0.5,0.25,-35.0,-1,1.0,0.7886999999999773
40,15,0.5,0.125,35.0,1,1.0,3.591899999999981
41,15,0.5,0.25,35.0,1,1.0,0.24699999999998568
42,15,0.5,0.0,35.0,-1,0.0,1.3715999999999724
43,15,0.5,0.0,-35.0,1,0.0,0.36610100000001466
44,15,0.5,0.0,35.0,1,1.0,5.096799999999973
45,15,0.5,0.0625,35.0,1,1.0,0.45700000000002206
46,15,0.5,0.0625,-35.0,-1,1.0,0.3044999999999902
47,15,0.5,0.25,35.0,1,1.0,5.637100000000004
48,15,0.5,1.0,-35.0,-1,1.0,1.2584999999999695
49,15,0.5,0.125,35.0,1,1.0,0.540300000000002
50,15,0.5,0.125,-35.0,1,0.0,6.579499999999996
51,15,0.5,0.125,35.0,1,1.0,0.29790099999996755
52,15,0.5,0.0625,-35.0,-1,1.0,0.3511000000000024
53,15,0.5,0.125,-35.0,-1,1.0,4.17519999999999
54,15,0.5,0.0625,-35.0,-1,1.0,0.490901000000008
55,15,0.5,0.0625,35.0,1,1.0,6.787799999999976
56,15,0.5,1.0,35.0,1,1.0,0.3458999999999719
57,15,0.5,0.125,-35.0,-1,1.0,3.575099999999992
58,15,0.5,0.25,-35.0,-1,1.0,0.4759999999999991
59,15,0.5,0.25,-35.0,-1,1.0,0.9349999999999739
60,15,0.5,0.0,-35.0,-1,1.0,9.130200000000002
61,15,0.5,1.0,35.0,1,1.0,2.9803999999999746
62,15,0.5,0.25,-35.0,-1,1.0,0.46529999999998495
63,15,0.5,0.0625,-35.0,-1,1.0,0.35829999999998563
64,15,0.5,0.125,35.0,-1,0.0,4.6904010000000085
65,15,0.5,0.0625,-35.0,1,0.0,0.3114000000000203
66,15,0.5,0.0,35.0,-1,0.0,0.4064000000000192
67,15,0.5,0.0625,-35.0,-1,1.0,0.43319999999999936
68,15,0.5,1.0,35.0,1,1.0,0.26089999999999236
69,15,0.5,0.125,-35.0,-1,1.0,0.5557000000000016
70,15,0.5,0.0625,35.0,-1,0.0,4.308800000000019
71,15,0.5,0.25,35.0,1,1.0,0.23160100000001194
72,15,0.5,0.25,-35.0,-1,1.0,0.2813000000000443
73,15,0.5,0.0625,35.0,-1,0.0,0.5357000000000198
74,15,0.5,0.25,-35.0,-1,1.0,0.3567000000000462
75,15,0.5,0.125,-35.0,-1,1.0,0.28150099999999156
76,15,0.5,0.0,35.0,-1,0.0,4.959600000000023
77,15,0.5,0.25,35.0,1,1.0,0.5744000000000256
78,15,0.5,1.0,35.0,1,1.0,8.28200099999998
79,15,0.5,0.0625,-35.0,1,0.0,2.8763999999999896
80,15,0.4,0.0625,-35.0,-1,1.0,0.4917000000000371
81,15,0.5,1.0,-35.0,-1,1.0,0.28320000000007894
82,15,0.5,0.25,-35.0,1,0.0,10.019400000000019
83,15,0.5,0.0,-35.0,-1,1.0,0.4521010000000274
84,15,0.5,0.0,35.0,-1,0.0,0.20450000000005275
85,15,0.4,0.0,35.0,-1,0.0,0.5340000000000487
86,15,0.5,1.0,-35.0,1,0.0,0.13350100000002385
87,15,0.5,0.25,35.0,1,1.0,0.35899999999998045
88,15,0.5,0.0625,35.0,1,1.0,3.7409000000000106
89,15,0.5,0.125,-35.0,-1,1.0,0.22660000000007585
90,15,0.5,1.0,-35.0,-1,1.0,2.1480999999999995
91,15,0.5,1.0,35.0,1,1.0,0.2841010000000779
92,15,0.5,0.0625,35.0,1,1.0,11.450800000000015
93,15,0.5,1.0,35.0,1,1.0,0.23820100000000366
94,15,0.5,0.25,35.0,1,1.0,11.063400000000001
95,15,0.5,0.125,35.0,1,1.0,8.769401000000016
96,15,0.5,0.0625,-35.0,1,0.0,2.2127000000000407
97,15,0.8,0.0625,-35.0,1,0.0,0.7527000000000612
98,15,0.5,1.0,-35.0,-1,1.0,0.39550000000002683
99,15,0.5,1.0,-35.0,-1,1.0,0.32540100000005623
100,15,0.5,1.0,35.0,1,1.0,0.6331000000000131
101,15,0.5,0.0625,35.0,1,1.0,5.95659999999998
102,15,0.5,0.125,-35.0,-1,1.0,1.335800000000006
103,15,0.5,0.0,-35.0,1,0.0,3.563600000000008
104,15,0.5,0.125,35.0,1,1.0,0.44510100000007924
105,15,0.5,0.0625,35.0,1,1.0,4.683600000000013
106,15,0.5,0.0,35.0,1,1.0,5.041100999999969
107,15,0.5,0.25,35.0,1,1.0,0.32070000000004484
108,15,0.5,1.0,-35.0,-1,1.0,0.3742000000000303
109,15,0.5,0.25,35.0,1,1.0,4.071799999999996
110,15,0.5,0.125,35.0,1,1.0,0.45390000000003283
111,15,0.5,0.0625,-35.0,-1,1.0,0.9714000000000169
112,15,0.5,0.25,35.0,1,1.0,1.794499999999971
113,15,0.5,0.0,35.0,-1,0.0,0.2587010000000305
114,15,0.5,0.125,35.0,1,1.0,8.539900000000046
115,15,0.5,1.0,-35.0,-1,1.0,0.25180000000005975
116,15,0.5,0.0,35.0,1,1.0,5.481099999999969
117,15,0.5,0.125,35.0,1,1.0,4.829399999999964
118,15,0.5,0.0625,35.0,1,1.0,2.622799999999984
119,15,0.5,0.25,-35.0,-1,1.0,0.38890100000014627
120,15,0.5,0.125,-35.0,-1,1.0,0.48680000000001655
121,15,0.5,0.0625,-35.0,1,0.0,4.648599999999988
122,15,0.5,0.25,35.0,1,1.0,0.3650000000000091
123,15,0.5,1.0,-35.0,-1,1.0,1.302500000000009
124,15,0.5,0.25,35.0,1,1.0,7.46569999999997
125,15,0.5,0.125,35.0,1,1.0,7.182001000000014
126,15,0.5,1.0,35.0,1,1.0,0.2681999999999789
127,15,0.5,0.125,-35.0,-1,1.0,0.5929999999999609
128,15,0.5,0.0625,35.0,1,1.0,6.284800000000018
129,15,0.5,0.0,35.0,1,1.0,3.9583999999999833
130,15,0.5,0.25,-35.0,-1,1.0,0.26279999999997017
131,15,0.5,0.0625,35.0,-1,0.0,0.3832000000001017
132,15,0.6,0.0625,35.0,1,1.0,0.49010099999998147
133,15,0.5,1.0,35.0,1,1.0,0.38820000000009713
134,15,0.5,0.25,35.0,1,1.0,5.795500000000061
135,15,0.5,0.25,35.0,1,1.0,0.7800000000000864
136,15,0.5,0.0625,-35.0,1,0.0,7.869701000000077
137,15,0.5,0.0,-35.0,1,0.0,7.622600000000034
138,15,0.5,0.125,35.0,1,1.0,6.573700000000031
139,15,0.5,0.0,35.0,1,1.0,0.2758999999999787
140,15,0.5,0.25,-35.0,-1,1.0,0.4050010000000839
141,15,0.5,0.25,35.0,-1,0.0,2.730399999999918
142,15,0.5,0.0625,35.0,1,1.0,0.37409999999999854
143,15,0.5,0.0625,-35.0,1,0.0,5.582900000000109
144,15,0.8,0.0625,-35.0,-1,1.0,0.3249000000000706
145,15,0.5,1.0,35.0,-1,0.0,1.043700000000058
146,15,0.5,0.0,35.0,1,1.0,5.53430000000003
147,15,0.5,0.0625,35.0,1,1.0,10.237899999999968
148,15,0.5,0.125,-35.0,1,0.0,3.015100000000075
149,15,0.6,0.125,35.0,1,1.0,0.29260099999999056
150,15,0.5,1.0,-35.0,-1,1.0,0.3089999999999691
151,15,0.5,0.0,35.0,-1,0.0,4.661500000000046
152,15,0.5,0.0,-35.0,1,0.0,0.7631999999999834
153,15,0.5,0.0625,35.0,-1,0.0,0.676900000000046
154,15,0.5,0.125,35.0,1,1.0,0.4640000000000555
155,15,0.5,0.25,35.0,1,1.0,7.372100000000046
156,15,0.5,0.25,-35.0,-1,1.0,0.24099999999998545
157,15,0.5,1.0,-35.0,-1,1.0,0.30520100000001094
158,15,0.5,0.25,-35.0,-1,1.0,0.47680000000002565
159,15,0.5,0.0625,-35.0,-1,1.0,0.21340100000008988
160,15,0.5,0.25,-35.0,-1,1.0,14.683300000000031
161,15,0.5,0.25,-35.0,-1,1.0,0.5358999999999696
162,15,0.5,0.125,-35.0,-1,1.0,0.7190000000000509
163,15,0.5,1.0,35.0,1,1.0,6.606099999999969
164,15,0.5,0.25,-35.0,-1,1.0,0.4772000000000389
165,15,0.5,0.125,35.0,1,1.0,6.672400000000039
166,15,0.5,0.125,-35.0,-1,1.0,0.19429999999999836
167,15,0.5,1.0,35.0,1,1.0,10.930499999999938
168,15,0.5,0.0625,35.0,1,1.0,6.8402999999999565
169,15,0.5,1.0,-35.0,-1,1.0,0.35970000000008895
170,15,0.5,0.125,35.0,-1,0.0,0.21280000000001564
171,15,0.5,0.0625,-35.0,-1,1.0,7.359199999999987
172,15,0.5,1.0,-35.0,-1,1.0,0.16010000000005675
173,15,0.5,0.0625,-35.0,1,0.0,5.908100999999988
174,15,0.4,0.0625,-35.0,-1,1.0,0.28779999999994743
175,15,0.5,1.0,35.0,1,1.0,0.33340000000009695
176,15,0.5,0.125,-35.0,-1,1.0,1.9774009999999862
177,15,0.5,0.0625,35.0,-1,0.0,0.32150000000012824
178,15,0.5,0.25,35.0,1,1.0,0.4995999999999867
179,15,0.5,1.0,-35.0,-1,1.0,0.13930000000004839
180,15,0.5,0.0,35.0,-1,0.0,0.29970000000002983
181,15,0.3,0.0,-35.0,-1,1.0,0.47309999999993124
182,15,0.5,1.0,35.0,1,1.0,4.857399999999984
183,15,0.5,0.25,-35.0,-1,1.0,0.3085999999999558
184,15,0.5,0.0625,35.0,1,1.0,5.600900000000024
185,15,0.5,0.125,35.0,1,1.0,5.434799999999996
186,15,0.5,1.0,35.0,1,1.0,0.34940100000005714
187,15,0.5,0.0625,35.0,-1,0.0,0.24900000000002365
188,15,0.5,0.0625,-35.0,-1,1.0,0.36820000000000164
189,15,0.5,1.0,35.0,1,1.0,5.822499999999991
190,15,0.5,0.0,35.0,1,1.0,0.38540099999988797
191,15,0.5,0.25,-35.0,-1,1.0,0.2921000000001186
192,15,0.5,0.125,-35.0,-1,1.0,0.28510000000005675
193,15,0.5,1.0,35.0,1,1.0,0.23210100000005696
194,15,0.5,0.125,-35.0,-1,1.0,6.783800000000042
195,15,0.5,0.0625,-35.0,-1,1.0,0.3242000000000189
196,15,0.5,1.0,-35.0,-1,1.0,0.28150000000005093
197,15,0.5,0.0625,-35.0,-1,1.0,0.31520000000000437
198,15,0.5,0.125,35.0,1,1.0,4.929199999999923
199,15,0.5,1.0,35.0,1,1.0,0.28100000000006276
200,15,0.5,0.0,35.0,-1,0.0,0.25280000000009295
201,15,0.3,0.0,35.0,-1,0.0,3.653599999999983
202,15,0.5,1.0,35.0,1,1.0,0.27300000000013824
203,15,0.5,0.0625,-35.0,-1,1.0,17.96180000000004
204,15,0.5,0.0625,-35.0,-1,1.0,0.629099999999994
205,15,0.5,0.0,-35.0,-1,1.0,9.471299999999928
206,15,0.5,1.0,-35.0,-1,1.0,0.3048999999999751
207,15,0.5,1.0,35.0,1,1.0,0.42170000000010077
208,15,0.5,0.0625,-35.0,-1,1.0,11.09170000000006
209,15,0.5,0.0625,35.0,-1,0.0,6.201999999999998
210,15,0.5,0.125,35.0,1,1.0,0.4621999999999389
211,15,0.5,0.125,-35.0,-1,1.0,0.4156000000000404
212,15,0.5,0.0,-35.0,-1,1.0,0.2391010000001188
213,15,0.5,0.25,-35.0,-1,1.0,0.42909999999983484
214,15,0.5,1.0,35.0,1,1.0,7.262399999999843
215,15,0.5,0.25,-35.0,-1,1.0,0.4660000000001219
216,15,0.5,0.0,35.0,-1,0.0,5.672800999999936
217,15,0.3,0.0,35.0,1,1.0,3.553000000000111
218,15,0.5,1.0,35.0,1,1.0,0.4397999999998774
219,15,0.5,0.0625,-35.0,-1,1.0,5.283200000000079
220,15,0.5,1.0,35.0,1,1.0,11.2967000000001
221,15,0.5,0.125,-35.0,-1,1.0,0.3670009999998456
222,15,0.5,0.0625,-35.0,-1,1.0,8.633700999999974
223,15,0.5,0.0,35.0,-1,0.0,0.31740100000001803
224,15,0.5,0.125,-35.0,-1,1.0,0.5574010000000271
225,15,0.5,0.125,-35.0,-1,1.0,3.7342009999999846
226,15,0.5,0.25,-35.0,-1,1.0,12.48760100000004
227,15,0.5,1.0,-35.0,-1,1.0,11.004600999999866
228,15,0.5,0.25,-35.0,-1,1.0,7.461600999999973
229,15,0.5,0.125,35.0,1,1.0,1.0186009999999897
230,15,0.5,0.25,35.0,1,1.0,10.301901999999927
231,15,0.5,1.0,-35.0,-1,1.0,0.4389009999999871
232,15,0.5,1.0,35.0,1,1.0,5.299001000000089
233,15,0.5,1.0,-35.0,-1,1.0,0.39570099999991726
234,15,0.5,0.25,-35.0,-1,1.0,8.185800999999856
235,15,0.5,0.125,35.0,-1,0.0,0.23600099999998747
236,15,0.5,0.0625,35.0,-1,0.0,1.7395010000000184
237,15,0.5,0.25,35.0,1,1.0,0.569501000000173
238,15,0.5,0.25,35.0,-1,0.0,9.63300100000015
239,15,0.5,0.125,-35.0,-1,1.0,0.3399010000002818
240,15,0.5,0.0625,35.0,-1,0.0,10.483300999999983
241,15,0.5,0.0625,-35.0,-1,1.0,0.31690200000002733
242,15,0.5,0.0,-35.0,-1,1.0,6.853601000000026
243,15,0.5,1.0,-35.0,-1,1.0,0.4306020000001354
244,15,0.5,0.25,-35.0,-1,1.0,0.4272009999999682
245,15,0.5,1.0,-35.0,-1,1.0,9.670601000000033
246,15,0.5,0.25,-35.0,-1,1.0,5.120901999999887
247,15,0.5,0.125,35.0,-1,0.0,1.2411010000000715
248,15,0.5,0.125,35.0,1,1.0,0.8978010000000722
249,15,0.5,0.25,-35.0,-1,1.0,8.761201000000028
250,15,0.5,0.25,35.0,1,1.0,1.1982009999999264
251,15,0.5,1.0,-35.0,-1,1.0,7.288301000000047
252,15,0.5,1.0,35.0,1,1.0,5.921802000000071
253,15,0.5,0.125,-35.0,-1,1.0,0.44210100000009334
254,15,0.5,0.25,-35.0,-1,1.0,0.6821009999998751
255,15,0.5,0.125,35.0,1,1.0,8.895500999999967
256,15,0.5,0.25,-35.0,-1,1.0,0.3257010000002083
257,15,0.5,0.0625,35.0,1,1.0,6.642501000000038
258,15,0.5,0.0625,35.0,-1,0.0,0.776100999999926
259,15,0.5,0.0625,-35.0,-1,1.0,0.2796020000000681
260,15,0.5,1.0,35.0,1,1.0,0.4762020000000575
261,15,0.5,0.0625,35.0,1,1.0,4.366200999999819
262,15,0.5,0.125,35.0,1,1.0,0.47310099999981503
263,15,0.5,0.125,-35.0,-1,1.0,0.24990199999979268
264,15,0.5,0.0,-35.0,-1,1.0,5.819901000000073
265,15,0.5,0.25,-35.0,-1,1.0,0.4001020000000608
266,15,0.5,0.25,-35.0,-1,1.0,0.49030100000004495
267,15,0.5,0.0625,-35.0,1,0.0,11.506800999999996
268,15,0.4,0.0625,-35.0,-1,1.0,0.2639010000000326
269,15,0.5,1.0,35.0,1,1.0,0.310600999999906
270,15,0.5,0.0,35.0,-1,0.0,0.32740100000000893
271,15,0.5,0.25,-35.0,-1,1.0,0.37740099999996346
272,15,0.5,0.25,-35.0,-1,1.0,0.4708019999998214
273,15,0.5,0.125,35.0,-1,0.0,4.0809009999998125
274,15,0.5,0.0,-35.0,1,0.0,25.651101000000153
275,15,0.5,0.0625,35.0,-1,0.0,0.26500099999998383
276,15,0.3,0.0625,-35.0,-1,1.0,0.5684019999998782
277,15,0.5,1.0,35.0,1,1.0,0.3585009999999329
278,15,0.5,0.0625,35.0,1,1.0,0.4753009999999449
279,15,0.5,1.0,-35.0,-1,1.0,0.21540100000015627
280,15,0.5,0.0625,35.0,-1,0.0,10.088901000000078
281,15,0.5,0.0,35.0,1,1.0,0.3490009999998165
282,15,0.5,1.0,-35.0,-1,1.0,0.2857010000000173
283,15,0.5,0.0625,35.0,1,1.0,6.112602000000152
284,15,0.5,0.0625,35.0,1,1.0,10.269500999999991
285,15,0.5,0.0625,35.0,1,1.0,0.3997010000002774
286,15,0.5,0.125,-35.0,-1,1.0,14.519701000000168
287,15,0.5,0.0625,-35.0,-1,1.0,0.5868010000001505
288,15,0.5,0.125,35.0,-1,0.0,15.850300999999945
289,15,0.4,0.125,35.0,1,1.0,0.49390100000005077
