trial_num,session_num,stim_probability_left,contrast,position,response_choice,trial_correct,reaction_time
1,17,0.5,1.0,-35.0,-1,1.0,0.3022999999999998
2,17,0.5,0.25,-35.0,-1,1.0,3.0291
3,17,0.5,0.25,35.0,-1,0.0,0.15179999999999794
4,17,0.5,0.0625,-35.0,-1,1.0,0.05080000000000062
5,17,0.5,0.25,35.0,1,1.0,2.007999999999999
6,17,0.5,0.0,-35.0,1,0.0,0.8721999999999994
7,17,0.6,0.0,35.0,-1,0.0,0.3340999999999994
8,17,0.5,1.0,-35.0,-1,1.0,0.2544000000000004
9,17,0.5,0.0625,-35.0,-1,1.0,0.21099999999999852
10,17,0.5,0.125,35.0,-1,0.0,0.17940000000000111
11,17,0.5,0.25,35.0,-1,0.0,0.1816999999999993
12,17,0.2,0.25,-35.0,-1,1.0,0.17649999999999721
13,17,0.5,1.0,35.0,1,1.0,2.781099999999995
14,17,0.5,1.0,35.0,1,1.0,0.38519999999999754
15,17,0.5,0.0625,-35.0,-1,1.0,0.629099999999994
16,17,0.5,1.0,35.0,1,1.0,0.6306000000000012
17,17,0.5,1.0,-35.0,-1,1.0,0.4281999999999968
18,17,0.5,1.0,-35.0,-1,1.0,2.896398999999988
19,17,0.5,1.0,35.0,1,1.0,0.4689999999999941
20,17,0.5,0.25,35.0,-1,0.0,1.194599999999994
21,17,0.5,0.125,35.0,1,1.0,2.0444999999999993
22,17,0.5,0.125,35.0,1,1.0,0.25
23,17,0.5,1.0,-35.0,-1,1.0,0.31159999999999854
24,17,0.5,0.25,-35.0,-1,1.0,0.45429999999998927
25,17,0.5,0.125,-35.0,1,0.0,0.5960999999999927
26,17,0.5,0.0625,35.0,-1,0.0,1.6218999999999966
27,17,0.5,0.0,-35.0,-1,1.0,0.06619999999998072
28,17,0.5,0.125,35.0,-1,0.0,0.20629999999999882
29,17,0.5,0.125,35.0,1,1.0,0.8316000000000088
30,17,0.5,1.0,35.0,1,1.0,0.3651999999999873
31,17,0.5,0.25,-35.0,-1,1.0,0.1881000000000057
32,17,0.5,0.125,-35.0,-1,1.0,0.21829999999998506
33,17,0.5,0.0625,35.0,-1,0.0,0.1950999999999965
34,17,0.5,0.0,35.0,1,1.0,0.6548999999999978
35,17,0.5,0.0625,-35.0,-1,1.0,1.1543000000000063
36,17,0.5,1.0,35.0,1,1.0,4.157900000000012
37,17,0.5,0.25,35.0,1,1.0,0.6477999999999895
38,17,0.5,0.25,35.0,-1,0.0,0.16210000000000946
39,17,0.5,0.125,-35.0,1,0.0,0.9831999999999823
40,17,0.5,0.125,-35.0,1,0.0,1.8089000000000226
41,17,0.5,1.0,35.0,1,1.0,0.27890000000002146
42,17,0.5,0.0,35.0,-1,0.0,1.6240000000000236
43,17,0.6,0.0,35.0,-1,0.0,0.2767000000000337
44,17,0.5,1.0,-35.0,-1,1.0,0.22860000000002856
45,17,0.5,0.125,35.0,1,1.0,3.2624000000000137
46,17,0.5,0.25,35.0,1,1.0,0.49440000000001305
47,17,0.5,1.0,35.0,1,1.0,1.3149999999999977
48,17,0.5,0.0625,35.0,1,1.0,2.61220000000003
49,17,0.5,0.25,35.0,-1,0.0,1.713200000000029
50,17,0.5,0.25,35.0,1,1.0,0.575000000000017
51,17,0.5,0.25,35.0,1,1.0,0.3976000000000113
52,17,0.5,0.25,-35.0,-1,1.0,0.36010000000001696
53,17,0.5,0.25,35.0,1,1.0,0.4309000000000083
54,17,0.5,0.125,35.0,-1,0.0,4.4772000000000105
55,17,0.5,0.25,-35.0,-1,1.0,0.24540000000001783
56,17,0.5,0.0625,-35.0,-1,1.0,0.3400000000000034
57,17,0.5,0.25,35.0,-1,0.0,0.5173000000000343
58,17,0.5,0.125,-35.0,-1,1.0,0.31390000000001805
59,17,0.5,0.0625,-35.0,-1,1.0,0.4999000000000251
60,17,0.5,0.0,-35.0,-1,1.0,2.9421000000000106
61,17,0.5,0.25,35.0,-1,0.0,5.617800000000017
62,17,0.1,0.25,35.0,1,1.0,1.1657000000000153
63,17,0.5,1.0,35.0,1,1.0,3.5476999999999634
64,17,0.5,0.125,35.0,1,1.0,0.853699000000006
65,17,0.5,0.125,35.0,1,1.0,1.9189000000000078
66,17,0.5,0.25,-35.0,-1,1.0,0.2074000000000069
67,17,0.5,0.125,-35.0,-1,1.0,0.3369999999999891
68,17,0.5,1.0,35.0,1,1.0,2.7817000000000007
69,17,0.5,0.125,35.0,-1,0.0,2.164099999999962
70,17,0.5,0.0625,-35.0,-1,1.0,0.5271999999999935
71,17,0.5,1.0,35.0,1,1.0,0.4419000000000324
72,17,0.5,1.0,-35.0,-1,1.0,0.260400000000061
73,17,0.5,0.25,35.0,1,1.0,6.574499000000003
74,17,0.5,0.125,-35.0,-1,1.0,0.1996000000000322
75,17,0.5,0.125,35.0,-1,0.0,2.633899999999983
76,17,0.5,0.125,35.0,-1,0.0,0.22289999999998145
77,17,0.5,0.0,35.0,-1,0.0,0.16670000000004848
78,17,0.5,0.125,35.0,1,1.0,0.7430000000000518
79,17,0.5,0.0625,35.0,-1,0.0,1.7087000000000216
80,17,0.3,0.0625,-35.0,-1,1.0,0.17320000000000846
81,17,0.5,1.0,35.0,1,1.0,0.4547000000000594
82,17,0.5,1.0,-35.0,-1,1.0,1.3851999999999975
83,17,0.5,0.125,-35.0,-1,1.0,1.548400000000015
84,17,0.5,1.0,35.0,1,1.0,0.4963999999999942
85,17,0.5,0.25,-35.0,-1,1.0,0.2330000000000041
86,17,0.5,0.125,-35.0,-1,1.0,0.3650000000000091
87,17,0.5,1.0,-35.0,-1,1.0,0.19290000000000873
88,17,0.5,0.25,-35.0,-1,1.0,1.9301999999999566
89,17,0.5,0.0625,-35.0,-1,1.0,0.28510000000005675
90,17,0.5,0.25,35.0,1,1.0,0.6831000000000245
91,17,0.5,0.25,-35.0,-1,1.0,0.217899999999986
92,17,0.5,0.25,-35.0,-1,1.0,0.194500000000005
93,17,0.5,0.25,-35.0,-1,1.0,2.1724000000000387
94,17,0.5,0.125,35.0,-1,0.0,3.448100000000011
95,17,0.5,0.125,-35.0,-1,1.0,0.3157000000000494
96,17,0.5,0.25,35.0,-1,0.0,0.13850000000002183
97,17,0.1,0.25,35.0,-1,0.0,0.19180000000005748
98,17,0.5,1.0,35.0,-1,0.0,0.20590000000004238
99,17,0.5,0.25,35.0,1,1.0,0.30840000000006285
100,17,0.5,0.0625,35.0,-1,0.0,0.23160000000001446
101,17,0.5,0.125,-35.0,1,0.0,0.4592999999999847
102,17,0.5,0.25,35.0,1,1.0,0.36959999999999127
103,17,0.5,0.0625,-35.0,-1,1.0,0.3960999999999899
104,17,0.5,0.0625,35.0,-1,0.0,2.654800000000023
105,17,0.3,0.0625,-35.0,-1,1.0,5.676199999999994
106,17,0.5,1.0,35.0,1,1.0,0.5610000000000355
107,17,0.5,0.125,35.0,1,1.0,3.5054000000000087
108,17,0.5,0.0625,-35.0,-1,1.0,6.775700000000029
109,17,0.5,0.0,-35.0,1,0.0,1.0422000000000367
110,17,0.5,0.0,-35.0,-1,1.0,0.25439999999997553
111,17,0.5,0.125,-35.0,-1,1.0,0.2335000000000491
112,17,0.5,1.0,-35.0,-1,1.0,0.2518000000000029
113,17,0.5,1.0,-35.0,-1,1.0,0.20310000000000628
114,17,0.5,1.0,35.0,1,1.0,1.8267999999999915
115,17,0.5,0.25,35.0,1,1.0,0.3357000000000312
116,17,0.5,0.25,35.0,1,1.0,0.6528000000000134
117,17,0.5,0.0,-35.0,-1,1.0,2.2420999999999935
118,17,0.5,0.125,-35.0,1,0.0,1.0666000000000508
119,17,0.5,0.25,35.0,1,1.0,2.570799999999963
120,17,0.5,0.0625,-35.0,-1,1.0,0.24999999999994316
121,17,0.5,0.125,35.0,1,1.0,0.9911999999999921
122,17,0.5,0.0625,-35.0,1,0.0,3.064899999999966
123,17,0.5,0.25,-35.0,-1,1.0,0.24120000000004893
124,17,0.5,0.25,35.0,1,1.0,2.4125000000000227
125,17,0.5,1.0,-35.0,-1,1.0,0.22349999999994452
126,17,0.5,0.125,35.0,-1,0.0,0.2819999999999254
127,17,0.5,0.125,-35.0,-1,1.0,0.7409999999999854
128,17,0.5,1.0,-35.0,-1,1.0,0.3487999999999829
129,17,0.5,0.25,35.0,-1,0.0,7.538900000000012
130,17,0.3,0.25,-35.0,-1,1.0,0.20490000000006603
131,17,0.5,1.0,35.0,-1,0.0,0.21900000000005093
132,17,0.5,0.0,35.0,-1,0.0,0.3750999999999749
133,17,0.1,0.0,-35.0,-1,1.0,0.6222999999999956
134,17,0.5,1.0,35.0,1,1.0,0.24950000000001182
135,17,0.5,0.25,35.0,1,1.0,1.5545000000000755
136,17,0.5,1.0,35.0,1,1.0,0.5434000000000196
137,17,0.5,0.0625,35.0,1,1.0,2.091099999999983
138,17,0.5,0.125,35.0,1,1.0,1.3954000000001088
139,17,0.5,1.0,-35.0,-1,1.0,0.5161000000000513
140,17,0.5,0.0625,35.0,1,1.0,2.165399999999977
141,17,0.5,0.125,-35.0,-1,1.0,0.43670000000008713
142,17,0.5,0.25,-35.0,-1,1.0,0.14720000000011169
143,17,0.5,0.125,35.0,-1,0.0,0.3105000000000473
144,17,0.5,0.25,-35.0,-1,1.0,0.21870000000001255
145,17,0.5,0.0625,-35.0,1,0.0,0.606899999999996
146,17,0.5,0.125,-35.0,-1,1.0,0.23710000000005493
147,17,0.5,0.125,35.0,1,1.0,0.6492999999999256
148,17,0.5,0.25,35.0,1,1.0,0.8245000000000573
149,17,0.5,1.0,35.0,1,1.0,3.0851000000000113
150,17,0.5,1.0,-35.0,-1,1.0,0.2257000000000744
151,17,0.5,0.125,35.0,1,1.0,0.8868000000001075
152,17,0.5,1.0,35.0,1,1.0,0.32780000000002474
153,17,0.5,0.0,35.0,-1,0.0,0.3108000000000857
154,17,0.5,0.0625,35.0,-1,0.0,0.4359000000000606
155,17,0.6,0.0625,35.0,-1,0.0,3.8484000000000833
156,17,0.5,1.0,-35.0,-1,1.0,0.26940000000001874
157,17,0.5,0.0625,-35.0,-1,1.0,2.0120000000000573
158,17,0.5,0.125,-35.0,-1,1.0,0.4191999999999325
159,17,0.5,0.25,-35.0,-1,1.0,0.7473999999999705
160,17,0.5,0.0625,-35.0,-1,1.0,1.8138999999999896
161,17,0.5,0.0,35.0,-1,0.0,0.4655999999999949
162,17,0.5,0.25,35.0,1,1.0,0.5813000000000557
163,17,0.5,0.0625,35.0,1,1.0,0.4116999999999962
164,17,0.5,0.0625,-35.0,1,0.0,0.6844999999999573
165,17,0.5,0.0625,35.0,-1,0.0,0.2638000000000602
166,17,0.5,0.0,35.0,-1,0.0,0.15389999999990778
167,17,0.5,0.0625,35.0,1,1.0,2.0230000000000246
168,17,0.5,0.125,-35.0,-1,1.0,0.278699999999958
169,17,0.5,1.0,35.0,1,1.0,1.9141000000000759
170,17,0.5,0.25,-35.0,-1,1.0,0.3388999999999669
171,17,0.5,0.0,35.0,-1,0.0,4.7210999999999785
172,17,0.5,0.0625,-35.0,-1,1.0,0.40629999999998745
173,17,0.5,1.0,35.0,1,1.0,0.5277999999999565
174,17,0.5,1.0,-35.0,-1,1.0,0.2259999999998854
175,17,0.5,1.0,-35.0,-1,1.0,0.9083000000000538
176,17,0.5,0.25,35.0,1,1.0,0.46489999999994325
177,17,0.5,0.125,35.0,1,1.0,0.46059999999988577
178,17,0.5,0.25,-35.0,-1,1.0,0.34189999999989595
179,17,0.5,0.25,-35.0,1,0.0,0.6620000000000346
180,17,0.5,0.125,-35.0,-1,1.0,0.24950000000001182
181,17,0.5,0.0,35.0,-1,0.0,1.0581000000000813
182,17,0.5,0.0625,35.0,-1,0.0,0.2139999999999418
183,17,0.5,0.125,35.0,-1,0.0,0.6774000000000342
184,17,0.5,0.25,-35.0,-1,1.0,0.19400000000007367
185,17,0.5,0.125,35.0,-1,0.0,0.21260000000006585
186,17,0.5,0.125,35.0,-1,0.0,0.19680000000005293
187,17,0.5,0.0625,-35.0,1,0.0,4.73720000000003
188,17,0.5,0.0,35.0,-1,0.0,0.3301000000000158
189,17,0.5,0.125,35.0,-1,0.0,0.2543000000000575
190,17,0.5,0.0,-35.0,-1,1.0,0.3711000000000695
191,17,0.5,0.125,35.0,-1,0.0,0.193300000000022
192,17,0.5,0.0625,-35.0,-1,1.0,0.21279999999990196
193,17,0.5,0.25,-35.0,1,0.0,0.13610000000005584
194,17,0.5,0.25,-35.0,-1,1.0,0.14649999999994634
195,17,0.5,0.125,-35.0,-1,1.0,4.196099999999888
196,17,0.5,0.25,-35.0,-1,1.0,0.24720000000002074
197,17,0.5,0.125,-35.0,-1,1.0,2.792799999999943
198,17,0.5,0.25,-35.0,-1,1.0,0.35140000000001237
199,17,0.5,0.125,35.0,1,1.0,0.4008000000000038
200,17,0.5,0.0625,-35.0,1,0.0,0.2684999999999036
201,17,0.5,0.25,35.0,1,1.0,0.4420000000000073
202,17,0.5,0.125,35.0,1,1.0,3.6088999999999487
203,17,0.5,0.25,35.0,1,1.0,0.3875000000000455
204,17,0.5,1.0,-35.0,-1,1.0,0.70799999999997
205,17,0.5,0.125,-35.0,-1,1.0,0.3410000000000082
206,17,0.5,0.0625,35.0,1,1.0,1.1409999999999627
207,17,0.5,0.0625,-35.0,1,0.0,1.2110999999999876
208,17,0.5,0.125,35.0,-1,0.0,0.18440000000009604
209,17,0.5,0.25,-35.0,1,0.0,0.15870000000006712
210,17,0.5,0.0625,-35.0,-1,1.0,0.14459999999996853
211,17,0.5,0.25,-35.0,-1,1.0,1.788599999999974
212,17,0.5,1.0,35.0,1,1.0,1.5743000000001075
213,17,0.5,0.25,35.0,-1,0.0,0.4455000000000382
214,17,0.5,0.0625,-35.0,-1,1.0,0.22829999999999018
215,17,0.5,0.0,35.0,-1,0.0,3.0411999999998898
216,17,0.5,0.0625,35.0,1,1.0,0.2801000000000613
217,17,0.5,0.125,35.0,1,1.0,0.5855000000000246
218,17,0.5,0.25,35.0,1,1.0,0.5232999999999493
219,17,0.5,0.0,35.0,1,1.0,0.5701999999999998
220,17,0.5,1.0,-35.0,-1,1.0,0.16419999999993706
221,17,0.5,0.125,-35.0,-1,1.0,0.2519000000000915
222,17,0.5,0.25,35.0,1,1.0,0.43489999999997053
223,17,0.5,0.25,-35.0,-1,1.0,0.2180999999999358
224,17,0.5,0.25,35.0,-1,0.0,0.2118000000000393
225,17,0.5,0.125,35.0,1,1.0,0.5284000000000333
226,17,0.5,0.125,-35.0,-1,1.0,0.32700000000011187
227,17,0.5,0.25,35.0,1,1.0,1.2664999999999509
228,17,0.5,0.125,35.0,1,1.0,0.39179999999998927
229,17,0.5,0.125,35.0,-1,0.0,0.19209999999998217
230,17,0.4,0.125,35.0,1,1.0,0.7477000000001226
231,17,0.5,1.0,-35.0,-1,1.0,0.627399999999966
232,17,0.5,0.25,-35.0,-1,1.0,0.26310000000012224
233,17,0.5,0.25,-35.0,-1,1.0,0.26729999999997744
234,17,0.5,0.0625,-35.0,-1,1.0,0.5104999999999791
235,17,0.5,0.125,35.0,1,1.0,2.80070000000012
236,17,0.5,1.0,-35.0,-1,1.0,0.4915999999999485
237,17,0.5,0.25,-35.0,-1,1.0,0.29550000000006094
238,17,0.5,0.0625,-35.0,-1,1.0,0.2717000000000098
239,17,0.5,1.0,-35.0,-1,1.0,1.1096000000000004
240,17,0.5,0.125,-35.0,-1,1.0,0.062200000000075306
241,17,0.5,0.25,35.0,-1,0.0,0.20230000000003656
242,17,0.5,0.25,35.0,-1,0.0,0.20939999999995962
243,17,0.5,0.0625,35.0,-1,0.0,0.17660000000000764
244,17,0.1,0.0625,-35.0,1,0.0,0.39220000000000255
245,17,0.5,1.0,35.0,1,1.0,0.28949999999997544
246,17,0.5,1.0,35.0,1,1.0,1.512299999999982
247,17,0.5,0.0625,-35.0,-1,1.0,0.9178000000000566
248,17,0.5,0.125,-35.0,-1,1.0,1.2163000000000466
249,17,0.5,1.0,35.0,1,1.0,0.34629999999992833
250,17,0.5,1.0,-35.0,-1,1.0,0.7473999999999705
251,17,0.5,0.25,35.0,1,1.0,0.41609999999991487
252,17,0.5,0.0,35.0,-1,0.0,0.39809999999999945
253,17,0.5,0.125,35.0,1,1.0,1.846400000000017
254,17,0.5,0.125,35.0,1,1.0,0.6337000000000899
255,17,0.5,0.0,-35.0,-1,1.0,0.2703999999999951
256,17,0.5,0.0625,35.0,-1,0.0,0.19030000000009295
257,17,0.5,0.0625,35.0,1,1.0,2.6644000000000005
258,17,0.5,0.125,35.0,-1,0.0,0.227800000000002
259,17,0.5,0.25,-35.0,-1,1.0,0.2415000000000873
260,17,0.5,1.0,35.0,1,1.0,0.6545999999999594
261,17,0.5,0.0,-35.0,1,0.0,0.6711999999999989
262,17,0.5,0.25,35.0,1,1.0,6.004800000000159
263,17,0.5,0.125,35.0,-1,0.0,0.12170000000014625
264,17,0.5,0.25,35.0,1,1.0,0.378800000000183
265,17,0.5,0.25,-35.0,-1,1.0,0.26840000000015607
266,17,0.5,0.25,35.0,1,1.0,0.4055000000000746
267,17,0.5,0.25,-35.0,-1,1.0,0.5527000000001863
268,17,0.5,0.0,35.0,1,1.0,0.042300000000068394
269,17,0.5,0.0625,35.0,1,1.0,0.4622999999999138
270,17,0.5,0.125,-35.0,1,0.0,0.34209999999984575
271,17,0.5,0.125,-35.0,-1,1.0,0.4391000000002805
272,17,0.5,0.25,35.0,1,1.0,2.255999999999858
273,17,0.5,0.125,35.0,-1,0.0,0.25240000000007967
274,17,0.5,0.0625,-35.0,1,0.0,0.23939999999993233
275,17,0.6,0.0625,-35.0,-1,1.0,1.879799999999932
276,17,0.5,1.0,35.0,1,1.0,0.3294999999998254
277,17,0.5,0.0625,-35.0,-1,1.0,1.9132999999999356
278,17,0.5,0.0625,35.0,1,1.0,0.41960000000017317
279,17,0.5,0.0625,35.0,1,1.0,0.4371000000001004
280,17,0.5,0.0625,-35.0,-1,1.0,0.26670000000012806
281,17,0.5,0.25,-35.0,-1,1.0,0.15669999999977335
282,17,0.5,1.0,35.0,1,1.0,0.7367999999999029
283,17,0.5,0.0,35.0,-1,0.0,0.4432999999999083
284,17,0.5,0.0,35.0,-1,0.0,2.4302999999999884
285,17,0.5,1.0,-35.0,-1,1.0,0.21710000000007312
286,17,0.5,0.25,35.0,1,1.0,0.32370000000014443
287,17,0.5,0.125,35.0,1,1.0,0.48720000000002983
288,17,0.5,0.125,-35.0,-1,1.0,0.8173999999999069
289,17,0.5,0.125,35.0,1,1.0,0.33390000000008513
290,17,0.5,0.0,35.0,-1,0.0,0.1875
291,17,0.5,0.25,35.0,1,1.0,0.34740000000010696
292,17,0.5,0.25,-35.0,-1,1.0,0.28099999999994907
293,17,0.5,0.0625,35.0,1,1.0,0.8777000000000044
294,17,0.5,0.0,-35.0,-1,1.0,2.108099999999922
295,17,0.5,0.25,35.0,1,1.0,0.3148000000001048
296,17,0.5,0.125,-35.0,-1,1.0,0.21249999999986358
297,17,0.5,1.0,-35.0,-1,1.0,0.49860000000012406
298,17,0.5,0.0625,-35.0,-1,1.0,3.2558000000001357
299,17,0.5,1.0,-35.0,-1,1.0,0.1851000000001477
300,17,0.5,0.0625,35.0,1,1.0,0.39239999999995234
301,17,0.5,0.25,35.0,1,1.0,0.47900000000004184
302,17,0.5,0.125,-35.0,-1,1.0,0.2156999999999698
303,17,0.5,0.125,-35.0,1,0.0,0.5654000000001815
304,17,0.5,0.25,-35.0,-1,1.0,0.332300000000032
305,17,0.5,0.0,35.0,-1,0.0,0.24909999999977117
306,17,0.5,0.0625,-35.0,1,0.0,0.1693000000000211
307,17,0.5,0.125,35.0,-1,0.0,0.6858999999999469
308,17,0.5,0.25,35.0,-1,0.0,0.4692000000000007
309,17,0.5,0.0625,-35.0,-1,1.0,0.22700000000008913
310,17,0.5,0.0,-35.0,1,0.0,1.0002999999999247
311,17,0.4,0.0,35.0,-1,0.0,2.1904000000001815
312,17,0.5,1.0,35.0,1,1.0,0.29739999999992506
313,17,0.5,1.0,-35.0,-1,1.0,0.69399999999996
314,17,0.5,0.25,-35.0,-1,1.0,1.1041000000000167
315,17,0.5,1.0,-35.0,1,0.0,0.20090000000004693
316,17,0.5,0.0625,35.0,-1,0.0,4.554300000000012
317,17,0.5,0.125,35.0,-1,0.0,0.23779999999987922
318,17,0.5,0.0625,35.0,1,1.0,0.5112000000001444
319,17,0.5,0.0,35.0,1,1.0,0.614699999999857
320,17,0.5,0.0625,35.0,1,1.0,0.4248000000002321
321,17,0.5,0.0625,-35.0,1,0.0,3.9448999999999614
322,17,0.5,0.0625,35.0,-1,0.0,0.29510000000004766
323,17,0.5,0.0625,-35.0,-1,1.0,0.29179999999996653
324,17,0.5,1.0,35.0,1,1.0,0.3386000000000422
325,17,0.5,0.0,35.0,1,1.0,1.3320000000001073
326,17,0.5,0.0625,35.0,1,1.0,0.26870000000008076
327,17,0.5,0.25,35.0,1,1.0,0.8622000000000298
328,17,0.5,1.0,-35.0,-1,1.0,0.6422999999999774
329,17,0.5,0.25,35.0,1,1.0,2.3389000000001943
330,17,0.5,0.0625,-35.0,1,0.0,1.8191000000001623
331,17,0.5,0.0625,35.0,1,1.0,0.4859000000001288
332,17,0.5,0.125,35.0,1,1.0,0.3625999999999294
333,17,0.5,0.0625,35.0,1,1.0,3.079400000000078
334,17,0.5,0.125,-35.0,-1,1.0,0.8062999999999647
335,17,0.5,0.25,-35.0,-1,1.0,0.3363000000001648
336,17,0.5,0.125,35.0,-1,0.0,1.0629989999999907
337,17,0.5,0.125,35.0,1,1.0,0.43650000000002365
338,17,0.5,1.0,35.0,1,1.0,0.3933999999999287
339,17,0.5,1.0,35.0,1,1.0,0.41669999999999163
340,17,0.5,1.0,35.0,1,1.0,0.4068999999999505
341,17,0.5,1.0,35.0,1,1.0,0.48680000000013024
342,17,0.5,0.125,35.0,-1,0.0,0.223700000000008
343,17,0.5,0.125,-35.0,-1,1.0,0.34699999999998
344,17,0.5,1.0,-35.0,-1,1.0,0.24729999999999563
345,17,0.5,1.0,35.0,1,1.0,0.3305000000000291
346,17,0.5,0.0625,35.0,1,1.0,0.5107000000000426
347,17,0.5,0.125,-35.0,-1,1.0,0.27080000000023574
348,17,0.5,0.125,35.0,1,1.0,0.4840999999998985
349,17,0.5,0.0625,-35.0,-1,1.0,0.5774999999998727
350,17,0.5,0.125,35.0,-1,0.0,0.20100000000002183
351,17,0.4,0.125,35.0,1,1.0,0.2678000000000793
352,17,0.5,1.0,35.0,1,1.0,0.35439999999994143
353,17,0.5,1.0,-35.0,-1,1.0,0.23469999999997526
354,17,0.5,1.0,35.0,1,1.0,0.3045999999999367
355,17,0.5,0.25,35.0,1,1.0,0.5813000000000557
356,17,0.5,0.0625,-35.0,1,0.0,0.4915000000000873
357,17,0.5,0.125,35.0,1,1.0,0.25149999999985084
358,17,0.5,0.125,-35.0,-1,1.0,0.5815999999999804
359,17,0.5,1.0,-35.0,-1,1.0,0.25499999999988177
360,17,0.5,1.0,35.0,1,1.0,0.3086000000000695
361,17,0.5,0.25,35.0,1,1.0,0.27860000000009677
362,17,0.5,0.125,35.0,1,1.0,0.5452999999999975
363,17,0.5,0.0,-35.0,1,0.0,2.595399999999927
364,17,0.5,0.0625,35.0,-1,0.0,2.6123000000000047
365,17,0.5,0.0625,-35.0,1,0.0,0.8492000000001099
366,17,0.5,0.0625,35.0,1,1.0,0.3692000000000917
367,17,0.5,0.125,-35.0,-1,1.0,0.6893999999997504
368,17,0.5,0.0,-35.0,1,0.0,0.7461000000000695
369,17,0.5,0.0625,35.0,-1,0.0,0.27299999999991087
370,17,0.5,0.0625,35.0,-1,0.0,0.3262999999999465
371,17,0.5,0.0625,-35.0,-1,1.0,0.5097000000000662
372,17,0.5,1.0,35.0,1,1.0,0.33330000000000837
373,17,0.5,0.0625,35.0,1,1.0,0.7265999999999622
374,17,0.5,1.0,35.0,1,1.0,0.7333000000000993
375,17,0.5,0.125,35.0,1,1.0,2.2834000000000287
376,17,0.5,1.0,35.0,1,1.0,0.3302000000001044
377,17,0.5,0.0625,-35.0,1,0.0,0.4035000000001219
378,17,0.5,0.125,35.0,1,1.0,0.4637000000000171
379,17,0.5,0.0,35.0,1,1.0,0.17069999999989705
380,17,0.5,1.0,-35.0,-1,1.0,0.8105000000000473
381,17,0.5,1.0,35.0,1,1.0,0.32740000000012515
382,17,0.5,0.0,-35.0,1,0.0,2.3106999999997697
383,17,0.5,0.0625,35.0,1,1.0,2.1075999999998203
384,17,0.5,1.0,35.0,1,1.0,0.30770000000006803
385,17,0.5,1.0,35.0,1,1.0,0.4110000000000582
386,17,0.5,1.0,35.0,1,1.0,0.654399999999896
387,17,0.5,1.0,35.0,1,1.0,0.2278000000001157
388,17,0.5,0.0,-35.0,1,0.0,0.49119999999993524
389,17,0.5,0.0,35.0,-1,0.0,0.18140000000016698
390,17,0.8,0.0,-35.0,-1,1.0,0.23820000000000618
391,17,0.5,1.0,-35.0,-1,1.0,1.2182999999999993
392,17,0.5,0.25,-35.0,-1,1.0,0.7716999999997824
393,17,0.5,0.125,35.0,1,1.0,0.7118000000000393
394,17,0.5,1.0,-35.0,-1,1.0,0.20859999999993306
395,17,0.5,0.25,-35.0,-1,1.0,0.2653989999998885
396,17,0.5,0.25,-35.0,-1,1.0,0.33870000000024447
397,17,0.5,0.25,-35.0,-1,1.0,0.7020999999999731
398,17,0.5,0.0,-35.0,1,0.0,0.2856000000001586
399,17,0.5,0.125,-35.0,-1,1.0,0.23900000000003274
400,17,0.5,1.0,-35.0,-1,1.0,0.45240000000012515
401,17,0.5,0.0625,-35.0,-1,1.0,0.30579999999986285
402,17,0.5,0.25,35.0,1,1.0,0.33580000000006294
403,17,0.5,1.0,35.0,1,1.0,0.3425000000002001
404,17,0.5,0.0,35.0,-1,0.0,1.6593000000000302
405,17,0.5,0.0625,35.0,1,1.0,0.4560999999998785
406,17,0.5,0.0625,-35.0,1,0.0,3.766200000000026
407,17,0.5,0.125,35.0,1,1.0,0.2898000000000138
408,17,0.5,0.0625,35.0,1,1.0,0.7497999999998228
409,17,0.5,1.0,35.0,1,1.0,0.24999999999977263
410,17,0.5,0.125,35.0,1,1.0,0.5134000000002743
411,17,0.5,0.25,-35.0,-1,1.0,0.3202000000001135
412,17,0.5,0.0,-35.0,1,0.0,0.37350000000014916
413,17,0.8,0.0,-35.0,-1,1.0,0.3269999999999982
414,17,0.5,1.0,-35.0,-1,1.0,0.5170000000000528
415,17,0.5,0.25,-35.0,-1,1.0,0.7338000000002012
416,17,0.5,0.125,-35.0,-1,1.0,0.35730000000012296
417,17,0.5,0.125,-35.0,-1,1.0,0.5873000000001412
418,17,0.5,0.25,-35.0,-1,1.0,1.7707000000000335
419,17,0.5,1.0,-35.0,-1,1.0,0.227500000000191
420,17,0.5,1.0,-35.0,-1,1.0,0.25779999999986103
421,17,0.5,0.25,35.0,1,1.0,0.3710000000000946
422,17,0.5,0.125,35.0,1,1.0,0.4311000000000149
423,17,0.5,1.0,-35.0,-1,1.0,0.3113000000003012
424,17,0.5,0.125,-35.0,-1,1.0,1.0713999999998123
425,17,0.5,1.0,35.0,1,1.0,1.0681999999999334
426,17,0.5,1.0,-35.0,-1,1.0,0.35149999999998727
427,17,0.5,0.125,35.0,1,1.0,0.35169999999993706
428,17,0.5,0.25,35.0,1,1.0,4.261800000000221
429,17,0.5,1.0,-35.0,-1,1.0,0.22190000000023247
430,17,0.5,0.125,35.0,1,1.0,0.33870000000024447
431,17,0.5,0.0,-35.0,1,0.0,0.37550000000010186
432,17,0.6,0.0,-35.0,-1,1.0,0.22550000000001091
433,17,0.5,1.0,-35.0,-1,1.0,0.2322999999998956
434,17,0.5,0.125,35.0,1,1.0,0.3690000000001419
435,17,0.5,1.0,-35.0,-1,1.0,0.9691000000000258
436,17,0.5,0.125,-35.0,-1,1.0,1.5358000000001084
437,17,0.5,0.125,35.0,1,1.0,0.3325999999999567
438,17,0.5,0.125,35.0,1,1.0,0.1427000000001044
439,17,0.5,0.0,35.0,1,1.0,2.042699999999968
440,17,0.5,1.0,35.0,1,1.0,0.3462000000001808
441,17,0.5,0.125,-35.0,-1,1.0,0.30970000000002074
442,17,0.5,1.0,-35.0,-1,1.0,1.6231000000000222
443,17,0.5,0.0,-35.0,1,0.0,0.13650000000006912
444,17,0.5,0.125,35.0,1,1.0,3.260099999999966
445,17,0.5,0.125,35.0,-1,0.0,2.833399999999756
446,17,0.5,0.25,-35.0,-1,1.0,0.693599999999833
447,17,0.5,0.0625,35.0,1,1.0,0.28369999999995343
448,17,0.5,1.0,35.0,1,1.0,0.213799999999992
449,17,0.5,0.0,-35.0,1,0.0,0.4239000000000033
450,17,0.6,0.0,-35.0,-1,1.0,0.2839000000001306
451,17,0.5,1.0,35.0,1,1.0,2.334100000000035
452,17,0.5,1.0,35.0,1,1.0,0.44079999999985375
453,17,0.5,0.125,35.0,1,1.0,0.28080000000022665
454,17,0.5,0.25,-35.0,-1,1.0,0.33429999999975735
455,17,0.5,0.25,-35.0,-1,1.0,0.2643000000000484
456,17,0.5,0.0625,-35.0,1,0.0,1.0978000000000065
457,17,0.5,0.25,35.0,1,1.0,0.5112000000001444
458,17,0.5,0.25,35.0,1,1.0,0.5781000000001768
459,17,0.5,1.0,-35.0,-1,1.0,0.2581000000000131
460,17,0.5,1.0,35.0,1,1.0,0.31150000000002365
461,17,0.5,1.0,35.0,1,1.0,0.3449000000000524
462,17,0.5,0.125,35.0,1,1.0,1.1918000000000575
463,17,0.5,0.125,35.0,1,1.0,0.5516999999999825
464,17,0.5,1.0,35.0,1,1.0,0.2618000000002212
465,17,0.5,1.0,-35.0,-1,1.0,0.38200000000006185
466,17,0.5,0.25,35.0,-1,0.0,2.095500000000129
467,17,0.7,0.25,35.0,1,1.0,0.2789010000001326
468,17,0.5,1.0,35.0,1,1.0,0.3623010000001159
469,17,0.5,0.0,35.0,-1,0.0,2.3257010000002083
470,17,0.5,0.25,35.0,-1,0.0,0.25250099999993836
471,17,0.5,0.125,35.0,1,1.0,0.80270100000007
472,17,0.5,1.0,35.0,1,1.0,1.3629009999999653
473,17,0.5,0.0625,-35.0,-1,1.0,1.1495010000001002
474,17,0.5,0.125,-35.0,-1,1.0,1.5530010000002221
475,17,0.5,1.0,35.0,1,1.0,0.37990100000001803
476,17,0.5,0.0625,-35.0,1,0.0,3.7832009999999627
477,17,0.5,0.125,35.0,1,1.0,0.3001009999998132
478,17,0.5,0.0625,-35.0,1,0.0,0.6768009999998412
479,17,0.5,0.0625,35.0,1,1.0,0.31020100000023376
480,17,0.5,0.25,-35.0,-1,1.0,0.4536009999999351
481,17,0.5,0.0625,-35.0,1,0.0,1.7571009999999205
482,17,0.5,0.0625,35.0,1,1.0,1.2305010000000038
483,17,0.5,0.25,-35.0,-1,1.0,0.4040010000001075
484,17,0.5,1.0,-35.0,-1,1.0,0.24070099999994454
485,17,0.5,1.0,-35.0,-1,1.0,0.36410099999989143
486,17,0.5,1.0,-35.0,1,0.0,0.9075009999999111
487,17,0.6,1.0,-35.0,-1,1.0,0.2577009999999973
488,17,0.5,1.0,-35.0,-1,1.0,0.6076009999999314
489,17,0.5,0.25,-35.0,-1,1.0,1.7343009999999595
490,17,0.5,1.0,-35.0,-1,1.0,0.2711010000000442
491,17,0.5,0.25,-35.0,-1,1.0,6.477900999999974
492,17,0.5,0.0,-35.0,-1,1.0,4.984901000000036
493,17,0.5,0.25,35.0,1,1.0,0.19170099999996637
494,17,0.5,0.0625,35.0,1,1.0,1.388401000000158
495,17,0.5,0.0,35.0,1,1.0,0.5953009999998358
496,17,0.5,0.0625,-35.0,-1,1.0,1.3553009999998267
497,17,0.5,0.25,35.0,1,1.0,0.5588009999996757
498,17,0.5,0.0,35.0,-1,0.0,0.32540100000005623
499,17,0.4,0.0,35.0,-1,0.0,5.469000999999935
500,17,0.5,1.0,-35.0,-1,1.0,0.292500999999902
501,17,0.5,0.125,35.0,-1,0.0,4.092601000000059
502,17,0.5,0.0625,-35.0,-1,1.0,1.1828009999999267
503,17,0.5,0.0625,35.0,-1,0.0,10.422800999999936
504,17,0.5,0.125,-35.0,1,0.0,3.2599009999999
505,17,0.5,0.25,35.0,1,1.0,0.3100009999998292
506,17,0.5,0.25,-35.0,-1,1.0,0.45010100000013153
507,17,0.5,1.0,35.0,1,1.0,0.33030100000019047
508,17,0.5,0.25,35.0,1,1.0,0.4370010000000093
509,17,0.5,0.0,35.0,-1,0.0,1.8939010000001417
510,17,0.5,0.125,35.0,1,1.0,0.4473009999999249
511,17,0.5,0.0625,35.0,1,1.0,1.107401000000209
512,17,0.5,0.25,35.0,1,1.0,0.4975010000000566
513,17,0.5,0.0625,35.0,1,1.0,0.4242010000002665
514,17,0.5,0.25,-35.0,1,0.0,0.401100999999926
515,17,0.5,0.25,35.0,1,1.0,0.3710009999999784
516,17,0.5,1.0,35.0,1,1.0,0.37780099999986305
517,17,0.5,1.0,35.0,1,1.0,0.4311010000001261
518,17,0.5,1.0,-35.0,-1,1.0,0.29120100000000093
519,17,0.5,1.0,-35.0,-1,1.0,0.2681009999998878
520,17,0.5,0.0625,35.0,1,1.0,0.22810000000004038
521,17,0.5,0.25,-35.0,-1,1.0,0.5048010000000431
522,17,0.5,0.125,35.0,1,1.0,2.581600999999864
523,17,0.5,0.0625,-35.0,1,0.0,2.22500100000002
524,17,0.7,0.0625,35.0,1,1.0,0.851900999999998
525,17,0.5,1.0,-35.0,-1,1.0,0.245401000000129
526,17,0.5,0.25,-35.0,-1,1.0,0.35530100000005405
527,17,0.5,0.0625,35.0,-1,0.0,5.54230100000018
528,17,0.5,0.125,-35.0,1,0.0,2.41250100000002
529,17,0.5,0.0625,35.0,1,1.0,0.7392010000000937
530,17,0.5,0.125,35.0,1,1.0,1.7593000000001666
531,17,0.5,0.25,-35.0,-1,1.0,0.3927009999999882
532,17,0.5,0.125,-35.0,-1,1.0,0.7329009999998561
533,17,0.5,0.25,35.0,1,1.0,0.3263010000000577
534,17,0.5,0.125,-35.0,-1,1.0,0.3097009999999045
535,17,0.5,1.0,35.0,1,1.0,0.33300099999996746
536,17,0.5,1.0,35.0,1,1.0,0.3499010000000453
537,17,0.5,0.125,-35.0,-1,1.0,0.37330100000008315
538,17,0.5,0.25,35.0,1,1.0,0.7435009999999238
539,17,0.5,0.0625,35.0,1,1.0,2.7768009999999776
540,17,0.5,0.125,35.0,1,1.0,0.39370099999996455
541,17,0.5,0.0625,35.0,1,1.0,3.883701000000201
542,17,0.5,0.125,35.0,1,1.0,0.357401000000209
543,17,0.5,0.0625,35.0,-1,0.0,0.3139009999999871
544,17,0.5,0.125,-35.0,-1,1.0,0.5174010000000635
545,17,0.5,0.125,35.0,1,1.0,0.32750099999975646
546,17,0.5,0.125,-35.0,1,0.0,3.2575010000000475
547,17,0.5,0.0,35.0,-1,0.0,2.2710010000000693
548,17,0.5,0.0,35.0,-1,0.0,5.771300999999767
549,17,0.5,0.25,35.0,1,1.0,0.2614010000002054
550,17,0.5,0.25,35.0,1,1.0,0.5115010000004077
551,17,0.5,0.125,35.0,1,1.0,0.7416009999997186
552,17,0.5,0.0625,35.0,-1,0.0,0.6450009999998656
553,17,0.5,0.0,35.0,1,1.0,6.241801000000123
554,17,0.5,0.0,-35.0,1,0.0,1.2387010000002192
555,17,0.7,0.0,-35.0,1,0.0,1.995401000000129
556,17,0.5,1.0,-35.0,-1,1.0,0.2490010000001348
557,17,0.5,0.0625,35.0,-1,0.0,0.3425010000000839
558,17,0.5,0.125,-35.0,-1,1.0,0.33250100000032035
559,17,0.5,0.125,35.0,1,1.0,0.4859010000000126
560,17,0.5,0.25,35.0,1,1.0,0.3627010000000155
561,17,0.5,0.0625,-35.0,1,0.0,3.586000999999669
562,17,0.5,0.125,-35.0,-1,1.0,0.2296010000000024
563,17,0.5,0.125,-35.0,-1,1.0,0.2731010000002243
564,17,0.5,0.25,-35.0,-1,1.0,0.2664010000003145
565,17,0.5,0.125,-35.0,-1,1.0,0.28980100000035236
566,17,0.5,0.0,35.0,1,1.0,0.20260100000041348
567,17,0.5,1.0,35.0,-1,0.0,0.17670099999986633
568,17,0.5,0.25,-35.0,-1,1.0,0.2701009999996131
569,17,0.5,0.125,-35.0,-1,1.0,0.3802009999999427
570,17,0.5,1.0,-35.0,-1,1.0,0.28690099999994345
571,17,0.5,1.0,35.0,1,1.0,0.2570009999994909
572,17,0.5,0.0625,35.0,-1,0.0,0.30050100000016755
573,17,0.5,0.0625,-35.0,-1,1.0,5.900501000000077
574,17,0.5,0.0,35.0,1,1.0,0.30410100000017337
575,17,0.5,1.0,35.0,1,1.0,0.2742009999997208
576,17,0.5,0.0625,35.0,1,1.0,0.39420099999961167
577,17,0.5,1.0,35.0,1,1.0,0.2677009999997608
578,17,0.5,0.25,-35.0,-1,1.0,0.2978010000001632
579,17,0.5,0.0625,35.0,1,1.0,0.2712010000000191
580,17,0.5,0.25,35.0,1,1.0,3.5846010000004753
581,17,0.5,0.25,-35.0,-1,1.0,0.6615010000004986
582,17,0.5,0.25,-35.0,-1,1.0,0.20830099999966478
583,17,0.5,1.0,35.0,1,1.0,0.34170099999982995
584,17,0.5,0.0625,-35.0,-1,1.0,0.1250009999998838
585,17,0.5,0.0625,-35.0,-1,1.0,0.2585010000002512
586,17,0.5,0.25,35.0,-1,0.0,0.18520100000023376
587,17,0.4,0.25,35.0,-1,0.0,0.5720010000000002
588,17,0.5,1.0,-35.0,-1,1.0,0.27870100000018283
589,17,0.5,0.0,-35.0,-1,1.0,4.8955009999999675
590,17,0.5,0.25,-35.0,-1,1.0,0.2791010000000824
591,17,0.5,1.0,-35.0,1,0.0,0.3158010000001923
592,17,0.5,0.125,35.0,1,1.0,10.57589999999982
593,17,0.5,0.25,35.0,1,1.0,4.9364009999999325
594,17,0.5,0.25,-35.0,-1,1.0,2.9265009999999165
595,17,0.5,1.0,-35.0,-1,1.0,0.28330099999993763
596,17,0.5,1.0,-35.0,1,0.0,1.1033009999996466
597,17,0.5,0.0625,35.0,-1,0.0,4.003500999999687
598,17,0.5,0.25,-35.0,-1,1.0,3.400301000000127
599,17,0.5,0.125,-35.0,-1,1.0,3.9771010000004026
600,17,0.5,0.125,-35.0,-1,1.0,0.8306009999996604
601,17,0.5,0.0625,-35.0,1,0.0,2.374101000000337
602,17,0.5,0.0,35.0,-1,0.0,0.4175010000003567
603,17,0.5,0.25,-35.0,1,0.0,2.1912010000005466
604,17,0.3,0.25,35.0,1,1.0,0.73140100000046
605,17,0.5,1.0,35.0,-1,0.0,1.8116009999998823
606,17,0.5,0.25,35.0,1,1.0,2.9049009999998816
607,17,0.5,0.125,-35.0,-1,1.0,4.14520100000027
608,17,0.5,0.0625,-35.0,1,0.0,2.7020009999996546
609,17,0.5,0.0625,35.0,1,1.0,1.7488009999997303
610,17,0.5,1.0,-35.0,1,0.0,0.38230099999964295
611,17,0.5,0.0625,-35.0,1,0.0,0.42570100000011735
612,17,0.5,0.0625,35.0,-1,0.0,0.30930099999977756
613,17,0.5,0.25,35.0,1,1.0,11.562600999999631
614,17,0.5,0.0625,35.0,-1,0.0,4.783000999999786
615,17,0.5,0.25,35.0,1,1.0,7.69320099999959
616,17,0.5,1.0,35.0,1,1.0,0.3036010000000715
617,17,0.5,0.0,35.0,1,1.0,1.0370010000001457
618,17,0.5,0.0625,35.0,1,1.0,0.33040100000016537
619,17,0.5,1.0,-35.0,-1,1.0,0.5671010000000933
620,17,0.5,0.0625,35.0,1,1.0,4.267301000000316
621,17,0.5,0.0625,-35.0,1,0.0,0.9240010000003167
622,17,0.7,0.0625,35.0,1,1.0,1.6375010000001566
1,18,0.5,1.0,35.0,1,1.0,0.2531
2,18,0.5,0.25,-35.0,-1,1.0,6.304900000000001
3,18,0.5,0.0625,35.0,1,1.0,0.4939999999999998
4,18,0.5,0.25,-35.0,-1,1.0,0.45069999999999943
5,18,0.5,0.0625,35.0,-1,0.0,0.23189999999999955
6,18,0.7,0.0625,-35.0,1,0.0,0.6336999999999975
7,18,0.5,1.0,35.0,1,1.0,0.3177999999999983
8,18,0.5,0.0625,-35.0,1,0.0,0.2434989999999999
9,18,0.5,0.0,-35.0,1,0.0,2.7868999999999957
10,18,0.7,0.0,35.0,-1,0.0,0.1372
11,18,0.5,1.0,-35.0,-1,1.0,2.832900000000002
12,18,0.5,0.0625,-35.0,-1,1.0,0.24790000000000134
13,18,0.5,0.125,35.0,1,1.0,1.738900000000008
14,18,0.5,0.0625,35.0,1,1.0,0.48740000000000094
15,18,0.5,0.125,-35.0,-1,1.0,0.4855000000000018
16,18,0.5,0.0625,35.0,-1,0.0,3.957000000000008
17,18,0.5,0.25,-35.0,-1,1.0,0.7307999999999879
18,18,0.5,0.0,35.0,1,1.0,0.8078000000000003
19,18,0.5,1.0,35.0,1,1.0,0.7083999999999975
20,18,0.5,1.0,35.0,1,1.0,0.2908999999999935
21,18,0.5,0.0625,35.0,-1,0.0,0.5468999999999937
22,18,0.5,0.0625,-35.0,-1,1.0,0.6680999999999955
23,18,0.5,0.0,-35.0,1,0.0,0.47869999999998925
24,18,0.5,0.25,35.0,1,1.0,0.3888999999999925
25,18,0.5,1.0,35.0,1,1.0,0.30460000000000775
26,18,0.5,0.0625,35.0,-1,0.0,2.623800000000003
27,18,0.5,0.125,35.0,1,1.0,0.4882999999999953
28,18,0.5,0.125,-35.0,-1,1.0,0.9792000000000058
29,18,0.5,0.0,35.0,-1,0.0,0.5741999999999905
30,18,0.5,0.125,-35.0,-1,1.0,0.3842999999999961
31,18,0.5,0.125,-35.0,1,0.0,0.10529999999999973
32,18,0.5,0.125,35.0,1,1.0,1.7061999999999955
33,18,0.5,1.0,35.0,1,1.0,1.1354000000000042
34,18,0.5,1.0,35.0,1,1.0,0.27060000000000173
35,18,0.5,0.0625,-35.0,-1,1.0,1.5302000000000078
36,18,0.5,1.0,35.0,1,1.0,0.37010000000000787
37,18,0.5,0.25,-35.0,1,0.0,0.11199999999999477
38,18,0.5,0.0625,-35.0,-1,1.0,0.32849999999999113
39,18,0.5,0.0625,-35.0,-1,1.0,1.3593000000000188
40,18,0.5,0.25,-35.0,-1,1.0,0.9759000000000242
41,18,0.5,0.25,-35.0,-1,1.0,0.3277999999999963
42,18,0.5,0.25,-35.0,-1,1.0,0.2950999999999908
43,18,0.5,0.0625,35.0,-1,0.0,0.4561999999999955
44,18,0.5,0.25,-35.0,-1,1.0,0.23850000000001614
45,18,0.5,0.0625,-35.0,1,0.0,0.2942999999999927
46,18,0.5,0.125,35.0,-1,0.0,2.142899999999969
47,18,0.5,0.25,-35.0,-1,1.0,0.15219999999999345
48,18,0.5,0.25,35.0,1,1.0,0.13579999999998904
49,18,0.5,0.0625,35.0,-1,0.0,1.6286000000000058
50,18,0.5,0.0625,-35.0,-1,1.0,0.27490000000000236
51,18,0.5,0.0,-35.0,1,0.0,0.6725999999999885
52,18,0.5,0.0625,35.0,-1,0.0,0.6655000000000086
53,18,0.5,0.0625,-35.0,-1,1.0,0.30970000000002074
54,18,0.5,0.125,35.0,1,1.0,0.46880000000001587
55,18,0.5,0.0625,-35.0,-1,1.0,0.24750000000000227
56,18,0.5,0.25,-35.0,-1,1.0,0.2872000000000128
57,18,0.5,0.0,-35.0,-1,1.0,1.67410000000001
58,18,0.5,0.125,35.0,-1,0.0,0.538800000000009
59,18,0.5,0.25,35.0,1,1.0,0.36889999999999645
60,18,0.5,0.25,35.0,-1,0.0,0.22689999999997212
61,18,0.5,0.0625,35.0,1,1.0,0.7265999999999906
62,18,0.5,0.0,35.0,-1,0.0,2.785899999999998
63,18,0.5,0.0625,35.0,1,1.0,0.39639999999997144
64,18,0.5,0.0625,-35.0,1,0.0,1.6237999999999886
65,18,0.5,0.25,35.0,1,1.0,0.5245999999999924
66,18,0.5,0.125,-35.0,-1,1.0,0.2758999999999787
67,18,0.5,1.0,35.0,1,1.0,0.2604000000000042
68,18,0.5,0.25,35.0,1,1.0,1.7055000000000007
69,18,0.5,0.125,-35.0,-1,1.0,0.4065000000000225
70,18,0.5,0.0625,-35.0,-1,1.0,0.7236000000000331
71,18,0.5,0.25,-35.0,-1,1.0,0.7313000000000329
72,18,0.5,0.125,35.0,1,1.0,0.3605000000000018
73,18,0.5,1.0,-35.0,-1,1.0,0.18680000000000518
74,18,0.5,0.25,-35.0,-1,1.0,0.251199999999983
75,18,0.5,0.0625,-35.0,-1,1.0,0.21469999999999345
76,18,0.5,0.25,-35.0,1,0.0,0.1975999999999658
77,18,0.5,0.0,35.0,1,1.0,2.3868000000000507
78,18,0.5,1.0,35.0,-1,0.0,4.116900000000044
79,18,0.5,0.0625,-35.0,1,0.0,0.08899999999999864
80,18,0.5,0.125,35.0,1,1.0,0.6939000000000419
81,18,0.5,0.25,35.0,1,1.0,0.25370000000003756
82,18,0.5,0.0625,-35.0,1,0.0,1.8636000000000195
83,18,0.5,0.0,35.0,1,1.0,1.4379999999999882
84,18,0.5,0.0,-35.0,1,0.0,1.7595000000000027
85,18,0.5,0.25,-35.0,-1,1.0,2.7846999999999866
86,18,0.5,1.0,-35.0,-1,1.0,0.3172999999999888
87,18,0.5,0.0625,-35.0,-1,1.0,0.32130000000006476
88,18,0.5,0.0625,35.0,1,1.0,0.24950000000001182
89,18,0.5,0.125,35.0,1,1.0,0.4373000000000502
90,18,0.5,0.0625,-35.0,1,0.0,0.30950000000007094
91,18,0.5,0.25,35.0,1,1.0,0.5078000000000884
92,18,0.5,0.0,-35.0,1,0.0,2.5108000000000175
93,18,0.5,0.0,-35.0,1,0.0,0.5210000000000719
94,18,0.5,0.0,-35.0,-1,1.0,0.17509999999998627
95,18,0.5,0.0625,-35.0,-1,1.0,1.787300000000016
96,18,0.5,1.0,-35.0,-1,1.0,0.18380000000007612
97,18,0.5,0.25,35.0,-1,0.0,3.6894000000000347
98,18,0.5,0.125,-35.0,-1,1.0,0.5035000000000309
99,18,0.5,1.0,-35.0,-1,1.0,0.2217000000000553
100,18,0.5,0.125,35.0,-1,0.0,0.11639999999999873
101,18,0.5,0.25,35.0,1,1.0,1.1802999999999884
102,18,0.5,0.25,35.0,1,1.0,0.27040000000005193
103,18,0.5,0.0625,-35.0,-1,1.0,0.5527999999999906
104,18,0.5,0.125,-35.0,-1,1.0,0.28890000000001237
105,18,0.5,0.125,-35.0,-1,1.0,0.34489999999999554
106,18,0.5,0.0,-35.0,-1,1.0,0.17029999999999745
107,18,0.5,0.0,-35.0,-1,1.0,1.185200000000009
108,18,0.5,0.125,35.0,1,1.0,0.4257999999999811
109,18,0.5,1.0,35.0,1,1.0,0.5876000000000658
110,18,0.5,1.0,-35.0,-1,1.0,0.2773000000000252
111,18,0.5,0.25,35.0,-1,0.0,0.7930000000000064
112,18,0.5,0.25,-35.0,-1,1.0,0.2837999999999852
113,18,0.5,0.25,-35.0,-1,1.0,0.25209999999998445
114,18,0.5,0.25,-35.0,-1,1.0,0.373800000000017
115,18,0.5,0.0625,35.0,-1,0.0,0.2015999999999849
116,18,0.5,0.0,-35.0,-1,1.0,4.840300000000013
117,18,0.5,0.0625,-35.0,-1,1.0,0.19210000000003902
118,18,0.5,0.125,-35.0,-1,1.0,1.14650000000006
119,18,0.5,1.0,-35.0,-1,1.0,0.24340000000000828
120,18,0.5,0.0,-35.0,-1,1.0,0.8009000000000128
121,18,0.5,1.0,35.0,1,1.0,0.3563000000000329
122,18,0.5,0.0,-35.0,-1,1.0,0.18240000000002965
123,18,0.5,0.0625,-35.0,1,0.0,0.29460000000000264
124,18,0.2,0.0625,35.0,-1,0.0,3.752800000000036
125,18,0.5,1.0,-35.0,-1,1.0,0.19680000000005293
126,18,0.5,1.0,-35.0,-1,1.0,0.252900000000011
127,18,0.5,0.0625,-35.0,1,0.0,0.7600000000000477
128,18,0.5,0.125,35.0,-1,0.0,0.8161999999999807
129,18,0.5,0.0625,35.0,-1,0.0,7.379700000000071
130,18,0.5,0.25,-35.0,-1,1.0,0.24350000000004002
131,18,0.5,0.0,-35.0,-1,1.0,1.2907000000000153
132,18,0.5,0.125,-35.0,-1,1.0,0.2536999999999807
133,18,0.5,0.25,35.0,1,1.0,0.5760000000000218
134,18,0.5,0.25,35.0,1,1.0,0.5302999999998974
135,18,0.5,1.0,-35.0,-1,1.0,0.22429999999997108
136,18,0.5,0.25,-35.0,-1,1.0,0.32369999999991705
137,18,0.5,0.0,35.0,1,1.0,0.46680000000003474
138,18,0.5,0.0625,-35.0,-1,1.0,0.4152999999998883
139,18,0.5,0.25,-35.0,-1,1.0,0.211400000000026
140,18,0.5,0.25,-35.0,-1,1.0,0.43070000000000164
141,18,0.5,1.0,-35.0,-1,1.0,0.4091999999998279
142,18,0.5,0.0625,35.0,-1,0.0,0.2969999999999118
143,18,0.5,0.0625,35.0,-1,0.0,0.18039999999984957
144,18,0.5,0.0625,-35.0,1,0.0,0.6164999999999736
145,18,0.5,0.0,35.0,1,1.0,0.8374999999998636
146,18,0.5,1.0,35.0,1,1.0,1.2193000000000893
147,18,0.5,0.0625,35.0,-1,0.0,0.20199999999999818
148,18,0.5,0.0625,35.0,-1,0.0,0.18459999999993215
149,18,0.5,0.0,35.0,-1,0.0,0.2700999999999567
150,18,0.5,0.25,35.0,-1,0.0,0.1551999999999225
151,18,0.5,0.0625,-35.0,-1,1.0,0.01410000000009859
152,18,0.5,1.0,35.0,1,1.0,1.7676000000000158
153,18,0.5,0.0,35.0,-1,0.0,0.2441000000000031
154,18,0.4,0.0,-35.0,1,0.0,0.7483999999998332
155,18,0.5,1.0,35.0,-1,0.0,0.2018999999999096
156,18,0.5,0.125,35.0,-1,0.0,0.27490000000011605
157,18,0.5,0.125,-35.0,-1,1.0,0.2480999999999085
158,18,0.5,1.0,-35.0,-1,1.0,0.34530000000006567
159,18,0.5,0.0,35.0,1,1.0,2.7871999999998707
160,18,0.5,0.25,-35.0,-1,1.0,0.24889999999993506
161,18,0.5,0.0625,-35.0,-1,1.0,0.23740000000009331
162,18,0.5,0.25,-35.0,-1,1.0,0.43069999999988795
163,18,0.5,0.0625,-35.0,-1,1.0,0.6161999999999352
164,18,0.5,0.0625,-35.0,-1,1.0,0.3104000000000724
165,18,0.5,1.0,35.0,1,1.0,0.5169999999999391
166,18,0.5,0.0625,-35.0,-1,1.0,0.08439999999995962
167,18,0.5,0.0,-35.0,-1,1.0,0.4955999999999676
168,18,0.5,1.0,35.0,1,1.0,0.34389999999984866
169,18,0.5,1.0,35.0,-1,0.0,0.23969999999997071
170,18,0.5,0.125,35.0,1,1.0,2.1843000000000075
171,18,0.5,0.0,-35.0,-1,1.0,0.24689999999998236
172,18,0.5,1.0,35.0,1,1.0,1.6227999999999838
173,18,0.5,0.0,-35.0,-1,1.0,0.23559999999997672
174,18,0.5,1.0,-35.0,-1,1.0,0.1997999999998683
175,18,0.5,0.125,-35.0,-1,1.0,0.19299999999986994
176,18,0.5,1.0,35.0,1,1.0,0.6559999999999491
177,18,0.5,0.0625,-35.0,-1,1.0,0.1754999999999427
178,18,0.5,1.0,-35.0,-1,1.0,1.2823999999999387
179,18,0.5,1.0,35.0,1,1.0,0.40469999999993433
180,18,0.5,1.0,35.0,1,1.0,0.3969999999999345
181,18,0.5,0.0625,-35.0,-1,1.0,0.5972000000000435
182,18,0.5,0.0625,35.0,-1,0.0,0.2076999999999316
183,18,0.5,0.0625,35.0,-1,0.0,0.19449999999983447
184,18,0.5,0.0,-35.0,-1,1.0,0.2180999999999358
185,18,0.5,0.0,-35.0,-1,1.0,2.5241999999999507
186,18,0.5,0.0625,35.0,-1,0.0,1.5148000000000366
187,18,0.5,0.0625,-35.0,-1,1.0,0.30520000000001346
188,18,0.5,0.25,-35.0,-1,1.0,0.2636999999999716
189,18,0.5,0.125,35.0,1,1.0,0.46869999999989886
190,18,0.5,0.0625,35.0,1,1.0,2.7023000000000366
191,18,0.5,0.25,-35.0,-1,1.0,0.1997000000000071
192,18,0.5,0.25,-35.0,-1,1.0,0.21219999999993888
193,18,0.5,1.0,35.0,1,1.0,0.15989999999999327
194,18,0.5,0.0625,-35.0,1,0.0,0.22630000000003747
195,18,0.5,0.0625,35.0,1,1.0,0.5979999999999563
196,18,0.5,1.0,-35.0,-1,1.0,0.24610000000006949
197,18,0.5,0.25,-35.0,-1,1.0,0.22900000000004184
198,18,0.5,1.0,-35.0,-1,1.0,0.2077000000000453
199,18,0.5,0.125,35.0,1,1.0,0.622199999999907
200,18,0.5,1.0,35.0,1,1.0,0.37779999999997926
201,18,0.5,1.0,35.0,1,1.0,0.30589999999995143
202,18,0.5,0.25,35.0,1,1.0,0.29169999999999163
203,18,0.5,0.25,35.0,1,1.0,0.8759999999999764
204,18,0.5,1.0,-35.0,-1,1.0,0.2705999999999449
205,18,0.5,0.25,35.0,1,1.0,0.3895999999999731
206,18,0.5,0.25,35.0,1,1.0,1.7396999999999707
207,18,0.5,0.25,-35.0,-1,1.0,0.24289999999996326
208,18,0.5,0.0625,35.0,-1,0.0,0.20029999999997017
209,18,0.5,0.25,35.0,-1,0.0,0.20609999999999218
210,18,0.5,0.0625,-35.0,-1,1.0,0.7031999999999243
211,18,0.5,0.0625,-35.0,1,0.0,0.6055999999999813
212,18,0.5,0.0625,35.0,1,1.0,1.7019999999998845
213,18,0.5,1.0,-35.0,-1,1.0,0.23950000000002092
214,18,0.5,0.125,35.0,1,1.0,0.5593000000000075
215,18,0.5,0.0,35.0,1,1.0,1.9249999999999545
216,18,0.5,0.125,-35.0,-1,1.0,0.29519999999990887
217,18,0.5,0.0,-35.0,1,0.0,0.46659999999997126
218,18,0.5,0.25,35.0,1,1.0,0.2481000000000222
219,18,0.5,0.25,-35.0,-1,1.0,0.6775000000000091
220,18,0.5,0.25,-35.0,-1,1.0,0.3605000000000018
221,18,0.5,0.125,-35.0,-1,1.0,0.19439999999997326
222,18,0.5,0.125,35.0,1,1.0,0.42019999999990887
223,18,0.5,0.25,-35.0,-1,1.0,0.6625000000000227
224,18,0.5,0.125,35.0,1,1.0,0.6548999999999978
225,18,0.5,0.0,35.0,1,1.0,11.32929999999999
226,18,0.5,1.0,-35.0,-1,1.0,0.9513999999999214
227,18,0.5,0.125,35.0,1,1.0,0.41449999999997544
228,18,0.5,1.0,35.0,1,1.0,1.6807999999998628
229,18,0.5,0.25,35.0,-1,0.0,0.19249999999988177
230,18,0.5,0.25,-35.0,-1,1.0,0.26179999999988013
231,18,0.5,1.0,35.0,1,1.0,0.32910000000003947
232,18,0.5,0.0625,-35.0,-1,1.0,0.24589999999989232
233,18,0.5,0.0625,35.0,-1,0.0,2.644999999999982
234,18,0.5,0.25,35.0,-1,0.0,0.8713999999998805
235,18,0.5,0.125,-35.0,-1,1.0,0.4578999999998814
236,18,0.5,0.0625,-35.0,-1,1.0,0.2783999999999196
237,18,0.5,0.0625,35.0,-1,0.0,4.417699999999968
238,18,0.5,0.0625,35.0,-1,0.0,0.19020000000000437
239,18,0.5,0.25,-35.0,-1,1.0,0.26139999999998054
240,18,0.5,1.0,35.0,1,1.0,0.5391000000000759
241,18,0.5,1.0,35.0,1,1.0,0.4360999999998967
242,18,0.5,1.0,35.0,1,1.0,0.3383000000000038
243,18,0.5,0.0625,-35.0,-1,1.0,0.1736999999999398
244,18,0.5,0.0625,-35.0,-1,1.0,0.20080099999995582
245,18,0.5,0.0,-35.0,1,0.0,0.5685009999998556
246,18,0.5,0.125,35.0,1,1.0,0.8826009999999087
247,18,0.5,0.125,35.0,1,1.0,1.2241010000000188
248,18,0.5,0.125,-35.0,-1,1.0,0.2901010000000497
249,18,0.5,0.0625,-35.0,-1,1.0,0.2834010000000262
250,18,0.5,0.125,35.0,1,1.0,0.26500099999998383
251,18,0.5,0.0,-35.0,1,0.0,0.9206010000000333
252,18,0.6,0.0,35.0,1,1.0,0.7575009999999338
253,18,0.5,1.0,-35.0,-1,1.0,0.387100999999916
254,18,0.5,0.0,35.0,-1,0.0,5.353300999999874
255,18,0.6,0.0,-35.0,1,0.0,3.404901000000109
256,18,0.5,1.0,-35.0,-1,1.0,1.2847009999999273
257,18,0.5,0.25,-35.0,-1,1.0,0.20750099999997929
258,18,0.5,1.0,35.0,1,1.0,0.24640099999999165
259,18,0.5,0.0,35.0,-1,0.0,0.18470099999990452
260,18,0.5,0.0,35.0,-1,0.0,0.3147009999999
261,18,0.5,1.0,-35.0,-1,1.0,0.2315009999999802
262,18,0.5,0.25,35.0,1,1.0,0.3183010000000195
263,18,0.5,0.25,-35.0,-1,1.0,0.3650009999998929
264,18,0.5,0.0,35.0,1,1.0,0.98170099999993
265,18,0.5,0.0,35.0,1,1.0,0.3384009999999762
266,18,0.5,0.0625,35.0,1,1.0,0.3585010000000466
267,18,0.5,1.0,-35.0,-1,1.0,0.9220010000001366
268,18,0.5,1.0,35.0,1,1.0,0.37540100000001075
269,18,0.5,0.0625,-35.0,1,0.0,0.11870100000010098
270,18,0.5,0.125,35.0,1,1.0,0.49220100000002276
271,18,0.5,1.0,35.0,1,1.0,0.30900100000008024
272,18,0.5,1.0,35.0,1,1.0,0.14570100000014463
273,18,0.5,0.125,-35.0,-1,1.0,0.2792010000000573
274,18,0.5,1.0,-35.0,-1,1.0,0.20590100000003986
275,18,0.5,0.125,35.0,1,1.0,0.2693010000000413
276,18,0.5,0.125,35.0,1,1.0,0.48620100000016464
277,18,0.5,0.0,-35.0,1,0.0,8.45960100000002
278,18,0.5,0.125,35.0,-1,0.0,0.17320100000029015
279,18,0.5,0.25,-35.0,-1,1.0,0.3866009999999278
280,18,0.5,1.0,35.0,1,1.0,1.7967009999999846
281,18,0.5,0.125,35.0,1,1.0,1.6002010000001974
282,18,0.5,0.125,-35.0,-1,1.0,1.7003010000000813
283,18,0.5,0.0625,35.0,1,1.0,3.3771010000000388
284,18,0.5,0.125,35.0,1,1.0,0.7505009999999857
285,18,0.5,1.0,35.0,1,1.0,0.2840009999999893
286,18,0.5,1.0,-35.0,-1,1.0,0.3074010000000271
287,18,0.5,1.0,-35.0,-1,1.0,0.3109010000002854
288,18,0.5,0.0625,-35.0,1,0.0,5.814301000000114
289,18,0.5,0.125,35.0,1,1.0,2.6481010000002243
290,18,0.5,1.0,-35.0,-1,1.0,0.39810099999999693
291,18,0.5,0.0,35.0,1,1.0,0.31490100000019083
292,18,0.5,0.0,35.0,-1,0.0,0.2951010000001588
293,18,0.6,0.0,35.0,1,1.0,0.33520100000009734
294,18,0.5,1.0,-35.0,-1,1.0,0.7719010000000708
295,18,0.5,0.0,35.0,1,1.0,1.0353010000001177
296,18,0.5,1.0,-35.0,-1,1.0,2.1089009999998325
297,18,0.5,1.0,-35.0,-1,1.0,0.1689010000000053
298,18,0.5,0.0,35.0,1,1.0,3.498301000000083
299,18,0.5,1.0,35.0,1,1.0,0.2517010000001392
300,18,0.5,0.125,35.0,1,1.0,0.5117010000001301
301,18,0.5,0.25,35.0,-1,0.0,-0.004898999999795706
302,18,0.5,0.25,35.0,1,1.0,0.5254010000001017
303,18,0.5,0.0625,-35.0,-1,1.0,0.2551009999999678
304,18,0.5,0.0625,35.0,1,1.0,0.4289009999999962
305,18,0.5,0.25,-35.0,-1,1.0,0.5289010000001326
306,18,0.5,0.0625,35.0,1,1.0,0.5793009999999867
307,18,0.5,1.0,35.0,1,1.0,0.5727010000002792
308,18,0.5,1.0,35.0,1,1.0,0.45590100000003986
309,18,0.5,1.0,-35.0,-1,1.0,0.16590100000007624
310,18,0.5,0.25,-35.0,-1,1.0,0.459201000000121
311,18,0.5,0.0625,-35.0,-1,1.0,0.6694010000001072
312,18,0.5,0.25,35.0,1,1.0,0.32260100000007697
313,18,0.5,0.25,-35.0,-1,1.0,0.43960100000026614
314,18,0.5,0.125,-35.0,-1,1.0,0.5199010000001181
315,18,0.5,0.25,-35.0,-1,1.0,1.043301000000156
316,18,0.5,0.0625,35.0,-1,0.0,0.16990099999998165
317,18,0.5,0.125,-35.0,-1,1.0,0.18360099999995327
318,18,0.5,0.0,35.0,1,1.0,0.34330099999988306
319,18,0.5,1.0,-35.0,-1,1.0,0.060001000000283966
320,18,0.5,0.0,-35.0,1,0.0,0.0935010000002876
321,18,0.5,0.0625,-35.0,-1,1.0,0.30060100000014245
322,18,0.5,1.0,-35.0,-1,1.0,0.07700100000010934
323,18,0.5,0.0625,-35.0,1,0.0,0.4612010000000737
324,18,0.5,0.0,35.0,1,1.0,1.3481010000000424
325,18,0.5,1.0,-35.0,1,0.0,0.14160100000003695
326,18,0.5,1.0,-35.0,-1,1.0,0.5815010000001166
327,18,0.5,1.0,35.0,1,1.0,0.44170099999996637
328,18,0.5,0.125,35.0,1,1.0,0.24430100000017774
329,18,0.5,0.125,-35.0,-1,1.0,0.5687010000001465
330,18,0.5,0.0,-35.0,-1,1.0,0.27870100000018283
331,18,0.5,0.0625,-35.0,-1,1.0,0.2455010000001039
332,18,0.5,0.125,35.0,1,1.0,0.45550100000014027
333,18,0.5,0.125,35.0,1,1.0,0.5922009999999318
334,18,0.5,0.25,-35.0,-1,1.0,1.202301000000034
335,18,0.5,0.0625,35.0,1,1.0,3.339001000000053
336,18,0.5,0.125,-35.0,-1,1.0,0.2758010000000013
337,18,0.5,0.0625,-35.0,-1,1.0,2.4659010000000308
338,18,0.5,0.0,-35.0,1,0.0,0.35950100000013663
339,18,0.5,0.0,35.0,1,1.0,0.6129010000001927
340,18,0.5,0.125,35.0,1,1.0,0.2030010000000857
341,18,0.5,1.0,35.0,1,1.0,0.3298000000002048
342,18,0.5,0.0625,35.0,-1,0.0,0.2332010000000082
343,18,0.5,0.125,35.0,1,1.0,0.9466009999998732
344,18,0.5,0.125,-35.0,-1,1.0,0.7035010000001876
345,18,0.5,0.0625,-35.0,-1,1.0,0.40360099999998056
346,18,0.5,0.0625,35.0,1,1.0,0.9170010000002549
347,18,0.5,0.0625,35.0,1,1.0,3.4071010000000115
348,18,0.5,0.0,35.0,1,1.0,0.6872009999999591
349,18,0.5,0.125,35.0,1,1.0,0.3573010000002341
350,18,0.5,0.25,35.0,1,1.0,0.41750100000012935
351,18,0.5,0.0625,-35.0,1,0.0,0.4709010000001399
352,18,0.5,0.125,35.0,-1,0.0,0.15750100000013845
353,18,0.7,0.125,-35.0,-1,1.0,0.21430099999997765
354,18,0.5,1.0,-35.0,-1,1.0,0.25770100000022467
355,18,0.5,0.125,-35.0,-1,1.0,0.2779010000001563
356,18,0.5,0.25,-35.0,-1,1.0,0.17800099999999475
357,18,0.5,1.0,-35.0,-1,1.0,0.17480099999988852
358,18,0.5,0.125,35.0,1,1.0,0.31140099999993254
359,18,0.5,0.0625,35.0,1,1.0,2.874900999999909
360,18,0.5,1.0,-35.0,-1,1.0,0.27840100000003076
361,18,0.5,1.0,35.0,1,1.0,0.3785010000001421
362,18,0.5,1.0,-35.0,-1,1.0,0.36510100000009515
363,18,0.5,0.125,-35.0,-1,1.0,0.2919010000000526
364,18,0.5,0.0,35.0,1,1.0,1.10870100000011
365,18,0.5,1.0,35.0,1,1.0,0.6089010000000599
366,18,0.5,1.0,35.0,1,1.0,0.31220100000018647
367,18,0.5,0.25,35.0,1,1.0,0.7690010000001166
368,18,0.5,1.0,35.0,-1,0.0,0.06260100000008606
369,18,0.5,0.125,-35.0,-1,1.0,0.22590100000002167
370,18,0.5,1.0,35.0,1,1.0,0.3961010000000442
371,18,0.5,0.25,-35.0,-1,1.0,0.23270100000013372
372,18,0.5,0.125,-35.0,-1,1.0,1.1328009999999722
373,18,0.5,0.25,35.0,1,1.0,0.37290100000018356
374,18,0.5,1.0,-35.0,-1,1.0,0.2430010000002767
375,18,0.5,0.125,35.0,1,1.0,3.5097010000001774
376,18,0.5,0.0625,35.0,1,1.0,1.026501000000053
377,18,0.5,0.25,35.0,1,1.0,0.3701009999999769
378,18,0.5,0.125,-35.0,-1,1.0,0.3201010000000224
379,18,0.5,1.0,-35.0,-1,1.0,0.24020100000029743
380,18,0.5,1.0,35.0,-1,0.0,0.060400999999956184
381,18,0.5,0.25,35.0,1,1.0,0.6937010000001465
382,18,0.5,0.25,-35.0,-1,1.0,0.6738009999999122
383,18,0.5,0.125,35.0,-1,0.0,2.864001000000144
384,18,0.5,0.25,35.0,1,1.0,0.35070100000007187
385,18,0.5,0.0625,-35.0,1,0.0,0.3741010000001097
386,18,0.5,0.0625,-35.0,-1,1.0,0.5742009999999027
387,18,0.5,1.0,35.0,1,1.0,0.49430100000017774
388,18,0.5,0.125,35.0,1,1.0,1.8976999999999862
389,18,0.5,1.0,-35.0,-1,1.0,0.28460100000006605
390,18,0.5,0.125,-35.0,-1,1.0,0.551401000000169
391,18,0.5,1.0,35.0,-1,0.0,0.19820099999992635
392,18,0.5,0.25,-35.0,-1,1.0,0.24830100000008315
393,18,0.5,0.0625,35.0,1,1.0,0.3483009999997648
394,18,0.5,0.0625,-35.0,-1,1.0,2.748301000000083
395,18,0.5,1.0,-35.0,-1,1.0,0.2518010000001141
396,18,0.5,1.0,35.0,1,1.0,0.17200099999990925
397,18,0.5,0.0,-35.0,1,0.0,4.062001000000009
398,18,0.5,0.0,-35.0,-1,1.0,0.998801000000185
399,18,0.5,0.0,35.0,1,1.0,0.7156009999998787
400,18,0.5,0.125,35.0,1,1.0,0.5857009999999718
401,18,0.5,0.0625,-35.0,1,0.0,0.49240099999997256
402,18,0.5,0.25,35.0,1,1.0,0.5959009999999125
403,18,0.5,0.0,-35.0,-1,1.0,0.8659010000001217
404,18,0.5,0.25,35.0,1,1.0,0.3395010000001548
405,18,0.5,1.0,35.0,1,1.0,0.34950099999991835
406,18,0.5,0.0,-35.0,-1,1.0,0.2529010000000653
407,18,0.5,0.25,-35.0,-1,1.0,0.13970100000005914
408,18,0.5,0.0,35.0,-1,0.0,5.722400999999991
409,18,0.5,0.125,35.0,1,1.0,0.8731999999999971
410,18,0.5,0.0625,-35.0,1,0.0,0.6832010000000537
411,18,0.6,0.0625,-35.0,-1,1.0,1.1505010000000766
412,18,0.5,1.0,-35.0,-1,1.0,1.4430009999998674
413,18,0.5,1.0,-35.0,-1,1.0,0.29700100000013663
414,18,0.5,0.0,-35.0,-1,1.0,0.4364010000001599
415,18,0.5,0.125,-35.0,-1,1.0,0.32310100000017883
416,18,0.5,1.0,-35.0,-1,1.0,0.25040100000001075
417,18,0.5,1.0,-35.0,-1,1.0,0.2936010000000806
418,18,0.5,0.25,-35.0,-1,1.0,0.25030100000003586
419,18,0.5,1.0,35.0,1,1.0,0.38050100000032216
420,18,0.5,1.0,-35.0,-1,1.0,0.23050100000000384
421,18,0.5,0.125,-35.0,-1,1.0,0.30720100000007733
422,18,0.5,0.0625,35.0,1,1.0,3.8471009999998387
423,18,0.5,0.0625,35.0,1,1.0,0.9607010000001992
424,18,0.5,0.0,35.0,1,1.0,1.1408010000002378
425,18,0.5,0.0,-35.0,-1,1.0,0.2675010000000384
426,18,0.5,1.0,35.0,1,1.0,0.560901000000058
427,18,0.5,0.0625,-35.0,-1,1.0,0.9982009999998809
428,18,0.5,1.0,-35.0,-1,1.0,0.4177010000003065
429,18,0.5,0.0,-35.0,1,0.0,5.414901000000327
430,18,0.5,0.0625,-35.0,-1,1.0,0.6849009999998543
431,18,0.5,0.25,-35.0,-1,1.0,0.13170100000024831
432,18,0.5,0.25,35.0,1,1.0,1.748401000000058
433,18,0.5,0.125,35.0,1,1.0,0.5353009999998903
434,18,0.5,0.125,35.0,1,1.0,0.6119010000002163
435,18,0.5,0.25,35.0,1,1.0,0.3821010000001479
436,18,0.5,0.0625,-35.0,-1,1.0,1.2619009999998525
437,18,0.5,1.0,-35.0,-1,1.0,0.31910100000004604
438,18,0.5,1.0,-35.0,-1,1.0,0.25230100000021594
439,18,0.5,0.0,35.0,-1,0.0,2.6095010000001366
440,18,0.5,0.125,-35.0,-1,1.0,0.3462010000000646
441,18,0.5,1.0,-35.0,-1,1.0,0.27590100000020357
442,18,0.5,0.25,35.0,1,1.0,0.2896010000001752
443,18,0.5,0.25,35.0,1,1.0,0.3266009999999824
444,18,0.5,1.0,-35.0,-1,1.0,0.6560010000000602
445,18,0.5,0.25,-35.0,-1,1.0,0.2766010000002552
446,18,0.5,0.125,35.0,-1,0.0,0.1864010000001599
447,18,0.5,0.25,35.0,1,1.0,0.6599010000002181
448,18,0.5,0.0625,35.0,1,1.0,0.43980100000021594
449,18,0.5,0.125,-35.0,-1,1.0,2.7332010000002356
450,18,0.5,0.25,-35.0,-1,1.0,0.2836010000000897
451,18,0.5,0.0625,35.0,1,1.0,0.4442010000002483
452,18,0.5,0.0,35.0,1,1.0,1.1640010000000984
453,18,0.5,0.0625,35.0,1,1.0,0.6245010000000093
454,18,0.5,0.0,-35.0,1,0.0,0.7579009999999471
455,18,0.5,0.25,35.0,1,1.0,0.5747010000000046
456,18,0.5,0.0625,35.0,1,1.0,0.5614009999999325
457,18,0.5,0.25,35.0,1,1.0,0.4215009999998074
458,18,0.5,0.125,35.0,1,1.0,0.5416010000001279
459,18,0.5,0.0625,-35.0,-1,1.0,1.0784009999999853
460,18,0.5,0.0625,-35.0,1,0.0,0.761801000000105
461,18,0.9,0.0625,-35.0,-1,1.0,2.4320010000001275
462,18,0.5,1.0,-35.0,-1,1.0,0.29550099999983104
463,18,0.5,0.125,-35.0,-1,1.0,0.28890100000012353
464,18,0.5,0.125,-35.0,-1,1.0,0.30900100000008024
465,18,0.5,0.0625,35.0,-1,0.0,0.27250100000014754
466,18,0.5,0.25,-35.0,-1,1.0,0.3259010000001581
467,18,0.5,0.0625,35.0,1,1.0,3.4893010000000686
468,18,0.5,1.0,-35.0,1,0.0,0.7262009999999464
469,18,0.5,0.125,35.0,1,1.0,1.8529009999999744
470,18,0.5,0.0,-35.0,1,0.0,0.45970100000022285
471,18,0.5,0.0,35.0,1,1.0,1.2465010000000802
472,18,0.5,0.0,35.0,1,1.0,1.2767010000000028
473,18,0.5,0.0625,35.0,1,1.0,0.44680099999982303
474,18,0.5,1.0,-35.0,-1,1.0,0.6369010000000799
475,18,0.5,1.0,-35.0,-1,1.0,0.27700099999992744
476,18,0.5,0.25,35.0,1,1.0,0.24040100000001985
477,18,0.5,0.125,-35.0,-1,1.0,0.6237009999999827
478,18,0.5,0.125,35.0,1,1.0,0.487201000000141
479,18,0.5,1.0,35.0,1,1.0,0.33050100000014027
480,18,0.5,0.0,35.0,1,1.0,8.127301000000216
481,18,0.5,0.25,35.0,1,1.0,0.39760100000012244
482,18,0.5,0.125,-35.0,-1,1.0,2.091001000000233
483,18,0.5,0.25,-35.0,-1,1.0,0.8278010000001359
484,18,0.5,0.25,-35.0,-1,1.0,0.24780100000020866
485,18,0.5,0.25,35.0,1,1.0,0.40800099999978556
486,18,0.5,0.25,35.0,1,1.0,0.3781010000000151
487,18,0.5,0.125,35.0,1,1.0,0.6582010000001901
488,18,0.5,0.125,-35.0,-1,1.0,0.3616010000002916
489,18,0.5,0.25,35.0,1,1.0,0.4951010000002043
490,18,0.5,1.0,35.0,1,1.0,0.3484009999999671
491,18,0.5,0.125,35.0,1,1.0,0.6752010000000155
492,18,0.5,1.0,35.0,1,1.0,0.3619009999999889
493,18,0.5,0.25,35.0,1,1.0,0.2720010000000457
494,18,0.5,1.0,-35.0,-1,1.0,0.24880099999995764
495,18,0.5,1.0,-35.0,-1,1.0,0.2588010000001759
496,18,0.5,0.25,35.0,1,1.0,0.3322010000001683
497,18,0.5,0.25,-35.0,-1,1.0,0.28900100000009843
498,18,0.5,0.0625,35.0,1,1.0,1.4358009999998558
499,18,0.5,0.0,35.0,1,1.0,0.7325009999999565
500,18,0.5,0.125,-35.0,1,0.0,0.3726010000000315
501,18,0.7,0.125,35.0,1,1.0,0.4227009999999609
502,18,0.5,1.0,-35.0,-1,1.0,0.2895009999999729
503,18,0.5,0.0625,35.0,1,1.0,3.162901000000147
504,18,0.5,0.125,-35.0,-1,1.0,0.5264010000000781
505,18,0.5,0.0,-35.0,1,0.0,2.536701000000221
506,18,0.5,0.125,-35.0,-1,1.0,0.3266009999999824
507,18,0.5,0.25,35.0,1,1.0,0.3801009999999678
508,18,0.5,0.0,35.0,-1,0.0,1.1903010000000904
509,18,0.5,0.25,-35.0,-1,1.0,0.2103010000002996
510,18,0.5,0.0625,-35.0,-1,1.0,0.2837010000000646
511,18,0.5,0.0625,-35.0,-1,1.0,0.21380100000010316
512,18,0.5,1.0,-35.0,-1,1.0,0.30380099999979393
513,18,0.5,1.0,-35.0,-1,1.0,0.2739010000000235
514,18,0.5,0.125,35.0,1,1.0,0.613901000000169
515,18,0.5,0.25,-35.0,-1,1.0,0.2874010000000453
516,18,0.5,0.25,-35.0,-1,1.0,0.4509009999999307
517,18,0.5,1.0,-35.0,-1,1.0,0.4410009999999147
518,18,0.5,0.125,35.0,1,1.0,0.9611009999998714
519,18,0.5,0.125,35.0,1,1.0,2.644600999999966
520,18,0.5,0.125,35.0,1,1.0,0.464701000000332
521,18,0.5,0.0,-35.0,-1,1.0,0.23140100000023267
522,18,0.5,0.0625,-35.0,-1,1.0,5.551601000000119
523,18,0.5,0.0625,35.0,1,1.0,1.108400999999958
524,18,0.5,0.25,-35.0,-1,1.0,0.8219010000002527
525,18,0.5,1.0,35.0,1,1.0,0.47190100000011626
526,18,0.5,0.0,35.0,1,1.0,0.9854009999999107
527,18,0.5,0.25,35.0,1,1.0,0.40210099999990234
528,18,0.5,0.25,35.0,1,1.0,0.9555009999999129
529,18,0.5,1.0,35.0,1,1.0,0.4489010000002054
530,18,0.5,0.0625,-35.0,-1,1.0,0.9659010000000308
531,18,0.5,0.125,35.0,1,1.0,1.2725010000001475
532,18,0.5,0.0625,-35.0,-1,1.0,0.3193010000002232
533,18,0.5,0.125,35.0,1,1.0,0.5462010000001101
534,18,0.5,0.0625,-35.0,1,0.0,0.806201000000101
535,18,0.5,0.125,35.0,1,1.0,0.29220100000020466
536,18,0.5,0.0625,35.0,1,1.0,5.339700999999877
537,18,0.5,1.0,-35.0,-1,1.0,0.7165010000003349
538,18,0.5,0.125,-35.0,-1,1.0,0.406601000000137
539,18,0.5,0.0,35.0,1,1.0,12.116700999999921
540,18,0.5,1.0,-35.0,-1,1.0,0.22040100000003804
541,18,0.5,1.0,35.0,1,1.0,0.28390100000024177
542,18,0.5,0.125,35.0,1,1.0,3.2607010000001537
543,18,0.5,0.0,35.0,1,1.0,1.3908010000004651
544,18,0.5,0.0,-35.0,1,0.0,0.924301000000014
545,18,0.5,0.0,35.0,1,1.0,0.9310010000003786
546,18,0.5,0.0625,-35.0,-1,1.0,0.7378010000002178
547,18,0.5,0.25,35.0,1,1.0,3.801201000000219
548,18,0.5,0.25,-35.0,-1,1.0,0.5147010000000591
549,18,0.5,1.0,-35.0,-1,1.0,0.4814010000000053
550,18,0.5,0.25,35.0,1,1.0,0.621400999999878
551,18,0.5,0.0,35.0,-1,0.0,1.4749010000000453
552,18,0.5,0.0625,-35.0,-1,1.0,0.7750009999999747
553,18,0.5,0.25,35.0,1,1.0,0.7719010000005255
554,18,0.5,0.0625,-35.0,1,0.0,0.6552010000000337
555,18,0.5,0.125,35.0,1,1.0,0.57870099999991
556,18,0.5,0.25,-35.0,-1,1.0,0.565400999999838
557,18,0.5,0.125,-35.0,-1,1.0,0.27220100000022285
558,18,0.5,0.25,35.0,1,1.0,0.28900100000009843
559,18,0.5,0.0625,35.0,1,1.0,2.738901000000169
560,18,0.5,0.0,-35.0,1,0.0,0.5559010000001763
561,18,0.5,0.0625,-35.0,-1,1.0,0.5959010000001399
562,18,0.5,1.0,35.0,1,1.0,0.4927010000001246
563,18,0.5,0.0,35.0,-1,0.0,0.17600099999981467
564,18,0.5,0.125,35.0,1,1.0,0.9662010000006376
565,18,0.5,0.125,35.0,1,1.0,0.5997010000000955
566,18,0.5,0.25,-35.0,-1,1.0,0.24640100000033271
567,18,0.5,0.25,35.0,1,1.0,0.839900999999827
568,18,0.5,0.25,35.0,1,1.0,0.4567010000000664
569,18,0.5,0.25,-35.0,-1,1.0,0.7067010000000664
570,18,0.5,1.0,-35.0,-1,1.0,0.2435009999999238
571,18,0.5,0.0625,-35.0,-1,1.0,0.3036010000000715
572,18,0.5,0.0625,-35.0,-1,1.0,0.23700099999996382
573,18,0.5,0.0625,-35.0,-1,1.0,0.22710099999994782
574,18,0.5,0.0625,-35.0,-1,1.0,0.42390100000011444
575,18,0.5,0.25,-35.0,-1,1.0,0.5639009999999871
576,18,0.5,1.0,-35.0,-1,1.0,0.25070099999993545
577,18,0.5,1.0,-35.0,-1,1.0,0.4841009999995549
578,18,0.5,0.0,35.0,1,1.0,0.3042009999999209
579,18,0.5,0.0625,35.0,-1,0.0,0.19430100000045059
580,18,0.5,0.0625,-35.0,1,0.0,1.1144009999998161
581,18,0.5,0.0,35.0,1,1.0,0.4212009999996553
582,18,0.5,1.0,35.0,1,1.0,0.4313010000000759
583,18,0.5,1.0,35.0,1,1.0,0.30470100000002276
584,18,0.5,0.25,35.0,1,1.0,0.34480100000018865
585,18,0.5,0.25,-35.0,-1,1.0,0.2549010000002454
586,18,0.5,0.0625,35.0,-1,0.0,0.31850100000019665
587,18,0.5,0.0625,35.0,1,1.0,0.7650010000002112
588,18,0.5,0.125,35.0,1,1.0,0.7786009999999806
589,18,0.5,0.0625,-35.0,-1,1.0,0.11180100000046878
590,18,0.5,0.0,35.0,-1,0.0,0.8387010000001283
591,18,0.5,0.0625,35.0,1,1.0,0.7021009999998569
592,18,0.5,0.0,35.0,1,1.0,2.885501000000204
593,18,0.5,0.125,-35.0,-1,1.0,0.2690010000001166
594,18,0.5,1.0,-35.0,-1,1.0,0.5959010000001399
595,18,0.5,0.25,35.0,1,1.0,2.4859010000000126
596,18,0.5,0.125,35.0,1,1.0,0.33930099999997765
597,18,0.5,1.0,-35.0,-1,1.0,0.1261010000002898
598,18,0.5,0.125,35.0,1,1.0,0.3228009999997994
599,18,0.5,1.0,-35.0,-1,1.0,0.04290100000025632
600,18,0.5,0.0625,-35.0,-1,1.0,0.20300100000031307
601,18,0.5,0.0,-35.0,-1,1.0,0.19970100000000457
602,18,0.5,1.0,35.0,1,1.0,0.49640099999987797
603,18,0.5,0.125,35.0,1,1.0,0.673200999999608
604,18,0.5,1.0,35.0,1,1.0,0.35670100000015736
605,18,0.5,0.125,35.0,1,1.0,0.5300010000000839
606,18,0.5,0.0625,-35.0,-1,1.0,0.30010100000026796
607,18,0.5,0.25,35.0,1,1.0,2.780300999999781
608,18,0.5,0.125,35.0,1,1.0,0.7304009999998016
609,18,0.5,0.0625,35.0,1,1.0,0.4471010000002025
610,18,0.5,0.0,35.0,1,1.0,0.6505010000000766
611,18,0.5,1.0,35.0,1,1.0,0.42730100000017046
612,18,0.5,0.125,-35.0,-1,1.0,0.24740099999962695
613,18,0.5,0.0625,-35.0,-1,1.0,0.33750099999952
614,18,0.5,1.0,35.0,1,1.0,3.1012009999999464
615,18,0.5,0.0,-35.0,-1,1.0,4.124501000000237
616,18,0.5,0.0625,35.0,1,1.0,3.1647009999996953
617,18,0.5,0.125,35.0,1,1.0,1.9981010000001334
618,18,0.5,1.0,35.0,1,1.0,0.2916009999999005
619,18,0.5,0.125,-35.0,-1,1.0,0.34840100000019447
620,18,0.5,0.125,35.0,1,1.0,0.6783009999999194
621,18,0.5,0.0625,-35.0,-1,1.0,0.27180100000032326
622,18,0.5,1.0,35.0,1,1.0,0.3985010000001239
623,18,0.5,0.25,-35.0,-1,1.0,0.20870100000001912
624,18,0.5,0.125,35.0,1,1.0,0.5188010000001668
625,18,0.5,0.125,35.0,1,1.0,0.43220100000007733
626,18,0.5,0.25,-35.0,-1,1.0,0.38230099999964295
627,18,0.5,1.0,-35.0,-1,1.0,0.8089010000003327
628,18,0.5,0.0,-35.0,1,0.0,1.6858010000000831
629,18,0.5,0.25,35.0,1,1.0,0.4092009999999391
630,18,0.5,0.125,35.0,1,1.0,0.6759010000000671
631,18,0.5,0.125,-35.0,-1,1.0,0.3295010000001639
632,18,0.5,0.125,35.0,1,1.0,3.3062010000003283
633,18,0.5,0.0,35.0,1,1.0,0.6331009999998969
634,18,0.5,0.25,-35.0,-1,1.0,0.7598010000001523
635,18,0.5,1.0,-35.0,-1,1.0,0.25660100000004604
636,18,0.5,1.0,-35.0,-1,1.0,0.40320100000008097
637,18,0.5,0.0,-35.0,-1,1.0,5.043301000000156
638,18,0.5,0.0625,35.0,1,1.0,0.540201000000252
639,18,0.5,0.0,35.0,1,1.0,0.5638010000002396
640,18,0.5,1.0,35.0,1,1.0,0.3970009999998183
641,18,0.5,1.0,-35.0,-1,1.0,0.2937010000000555
642,18,0.5,1.0,-35.0,-1,1.0,0.3505009999998947
643,18,0.5,0.125,35.0,1,1.0,0.36070099999960803
644,18,0.5,1.0,35.0,1,1.0,0.39070100000026287
645,18,0.5,0.125,-35.0,-1,1.0,0.2408010000003742
646,18,0.5,0.0625,-35.0,1,0.0,3.387600999999904
647,18,0.5,0.125,35.0,1,1.0,3.2077009999998154
648,18,0.5,0.125,35.0,1,1.0,0.3945010000002185
649,18,0.5,0.25,35.0,1,1.0,3.7046009999999114
650,18,0.5,0.125,-35.0,-1,1.0,0.08480099999997037
651,18,0.5,0.125,-35.0,-1,1.0,0.3016010000001188
652,18,0.5,0.25,-35.0,-1,1.0,0.3684010000001763
653,18,0.5,0.125,35.0,1,1.0,6.911801000000196
654,18,0.5,0.0625,-35.0,-1,1.0,0.39210099999991144
655,18,0.5,0.25,-35.0,-1,1.0,0.35550100000000384
656,18,0.5,1.0,35.0,1,1.0,0.3756009999997332
657,18,0.5,0.0625,-35.0,1,0.0,3.408900999999787
658,18,0.5,0.25,35.0,1,1.0,0.7724010000001726
659,18,0.5,0.0625,-35.0,-1,1.0,0.6393010000001595
660,18,0.5,0.0625,35.0,1,1.0,4.089300999999978
661,18,0.5,0.25,-35.0,-1,1.0,0.2896009999999478
662,18,0.5,1.0,-35.0,-1,1.0,0.20960100000002058
663,18,0.5,0.125,35.0,1,1.0,0.44970100000000457
664,18,0.5,0.0625,-35.0,1,0.0,6.499801000000389
665,18,0.5,0.125,-35.0,-1,1.0,0.26000100000010207
666,18,0.5,0.0625,35.0,-1,0.0,0.23680100000001403
667,18,0.5,0.0625,-35.0,-1,1.0,0.6702009999999063
668,18,0.5,1.0,-35.0,-1,1.0,0.30720100000007733
669,18,0.5,0.125,-35.0,-1,1.0,0.6137010000002192
670,18,0.5,0.25,-35.0,-1,1.0,0.3706010000000788
671,18,0.5,0.0625,35.0,1,1.0,0.1439010000003691
672,18,0.5,1.0,35.0,1,1.0,0.38740099999995437
673,18,0.5,1.0,-35.0,-1,1.0,0.5976010000003953
674,18,0.5,0.125,35.0,1,1.0,4.174200999999812
675,18,0.5,0.0625,-35.0,1,0.0,0.23440099999970698
676,18,0.4,0.0625,35.0,1,1.0,0.8079009999996742
677,18,0.5,1.0,-35.0,-1,1.0,0.544601000000057
678,18,0.5,1.0,-35.0,-1,1.0,0.2913010000002032
679,18,0.5,0.0625,35.0,-1,0.0,0.34800099999984013
680,18,0.5,0.0625,35.0,-1,0.0,1.0349009999999907
681,18,0.5,0.125,35.0,1,1.0,0.6816010000002279
682,18,0.5,0.125,35.0,1,1.0,0.3950009999998656
683,18,0.5,0.0,-35.0,1,0.0,0.42190100000016173
684,18,0.5,0.25,35.0,1,1.0,0.5219010000005255
685,18,0.5,0.25,-35.0,-1,1.0,0.20530100000041784
686,18,0.5,1.0,-35.0,-1,1.0,0.57870099999991
687,18,0.5,0.0625,35.0,1,1.0,0.38890100000025996
688,18,0.5,0.0625,35.0,1,1.0,3.7122009999998227
689,18,0.5,0.0625,35.0,1,1.0,0.3491009999997914
690,18,0.5,0.0625,35.0,1,1.0,0.5727010000000519
691,18,0.5,0.25,35.0,1,1.0,0.4859010000000126
692,18,0.5,0.125,-35.0,1,0.0,2.7661010000001625
693,18,0.5,0.125,-35.0,-1,1.0,0.5928009999997812
694,18,0.5,1.0,-35.0,-1,1.0,0.256300999999894
695,18,0.5,0.25,-35.0,-1,1.0,0.6830009999998765
696,18,0.5,0.0625,35.0,1,1.0,3.9265009999999165
697,18,0.5,0.0625,-35.0,1,0.0,4.290000999999847
698,18,0.5,0.0,35.0,-1,0.0,0.9936010000001261
699,18,0.5,0.0625,-35.0,-1,1.0,0.6304010000003473
700,18,0.5,1.0,35.0,1,1.0,0.3438009999999849
701,18,0.5,0.25,-35.0,-1,1.0,0.24050099999976737
702,18,0.5,0.125,35.0,-1,0.0,0.7506010000001879
703,18,0.3,0.125,35.0,1,1.0,0.40750100000013845
704,18,0.5,1.0,35.0,1,1.0,0.4808010000001559
705,18,0.5,0.125,-35.0,-1,1.0,0.5544009999998707
706,18,0.5,0.125,-35.0,-1,1.0,0.32440100000030725
707,18,0.5,0.125,-35.0,-1,1.0,0.2779009999999289
708,18,0.5,1.0,-35.0,-1,1.0,0.7646010000003116
709,18,0.5,0.25,35.0,1,1.0,0.43800099999998565
710,18,0.5,0.125,35.0,1,1.0,5.744701000000077
711,18,0.5,0.0625,35.0,1,1.0,0.43170099999997547
712,18,0.5,0.125,35.0,1,1.0,0.41840099999990343
713,18,0.5,1.0,35.0,1,1.0,0.3418010000000322
714,18,0.5,1.0,35.0,1,1.0,0.29520099999990634
715,18,0.5,0.25,35.0,1,1.0,0.31540099999983795
716,18,0.5,0.0625,-35.0,-1,1.0,0.22550100000034945
717,18,0.5,1.0,-35.0,-1,1.0,0.12220100000058665
718,18,0.5,0.25,35.0,1,1.0,0.325601000000006
719,18,0.5,0.0625,35.0,1,1.0,7.865701000000172
720,18,0.5,0.125,35.0,1,1.0,0.41600100000005114
721,18,0.5,1.0,35.0,1,1.0,0.30270100000007005
722,18,0.5,0.0,-35.0,1,0.0,3.506101000000399
723,18,0.5,0.0625,-35.0,-1,1.0,1.1364010000002054
724,18,0.5,0.125,-35.0,-1,1.0,0.5730009999997492
725,18,0.5,0.0625,-35.0,-1,1.0,0.2266010000003007
726,18,0.5,0.25,35.0,1,1.0,0.5333009999999376
727,18,0.5,0.25,-35.0,-1,1.0,0.31000100000028397
728,18,0.5,0.125,-35.0,1,0.0,4.750201000000288
729,18,0.5,0.125,-35.0,-1,1.0,0.3539009999999507
730,18,0.5,1.0,-35.0,-1,1.0,0.7038010000001123
731,18,0.5,0.0,-35.0,-1,1.0,6.010501000000204
732,18,0.5,0.125,35.0,1,1.0,0.49080099999991944
733,18,0.5,0.0625,35.0,1,1.0,1.9209010000004128
734,18,0.5,0.0,-35.0,-1,1.0,0.7243010000001959
735,18,0.5,0.0625,35.0,-1,0.0,5.941101000000344
736,18,0.5,0.0625,35.0,1,1.0,6.117901000000074
737,18,0.5,0.0625,35.0,1,1.0,2.3184009999999944
738,18,0.5,0.125,35.0,1,1.0,3.0050999999998567
739,18,0.5,0.125,-35.0,-1,1.0,0.33180099999981394
740,18,0.5,1.0,-35.0,-1,1.0,0.4286010000000715
741,18,0.5,1.0,35.0,1,1.0,0.32870099999991
742,18,0.5,0.125,35.0,1,1.0,4.382101000000148
743,18,0.5,0.0625,-35.0,1,0.0,4.469000999999935
744,18,0.5,0.0,35.0,-1,0.0,0.5226010000001224
745,18,0.5,0.25,-35.0,-1,1.0,0.5393009999997957
746,18,0.5,1.0,-35.0,-1,1.0,0.2828010000002905
747,18,0.5,0.125,-35.0,-1,1.0,0.3762010000000373
748,18,0.5,0.0625,-35.0,-1,1.0,1.696201000000201
749,18,0.5,0.25,-35.0,-1,1.0,1.6096010000001115
750,18,0.5,0.0625,35.0,1,1.0,1.4932010000002265
751,18,0.5,1.0,35.0,1,1.0,0.8565010000002076
752,18,0.5,0.125,35.0,1,1.0,0.49990100000013626
753,18,0.5,0.25,35.0,1,1.0,0.386801000000105
754,18,0.5,0.0,35.0,1,1.0,0.2868009999997412
755,18,0.5,0.0625,35.0,1,1.0,0.33030100000041784
756,18,0.5,1.0,35.0,1,1.0,0.29700099999990925
757,18,0.5,0.0625,-35.0,-1,1.0,1.2338009999998576
758,18,0.5,0.125,35.0,1,1.0,3.3606009999998605
759,18,0.5,0.0,35.0,1,1.0,2.157300999999734
760,18,0.5,0.125,35.0,1,1.0,5.387501000000157
761,18,0.5,0.0625,-35.0,-1,1.0,2.344301000000087
762,18,0.5,0.125,35.0,1,1.0,0.10450099999980011
763,18,0.5,0.25,-35.0,-1,1.0,0.28800100000034945
764,18,0.5,0.125,-35.0,-1,1.0,4.568001000000095
765,18,0.5,1.0,35.0,1,1.0,4.471500999999989
766,18,0.5,0.0625,-35.0,-1,1.0,6.881700999999794
767,18,0.5,0.125,-35.0,-1,1.0,0.42530100000021775
768,18,0.5,0.25,-35.0,-1,1.0,0.5354010000000926
769,18,0.5,0.0625,-35.0,-1,1.0,0.24870099999998274
770,18,0.5,0.25,-35.0,-1,1.0,4.099001000000044
771,18,0.5,1.0,-35.0,-1,1.0,0.2592010000003029
772,18,0.5,0.125,35.0,1,1.0,29.5391010000003
773,18,0.5,0.125,-35.0,-1,1.0,0.17010099999970407
774,18,0.5,0.0625,35.0,1,1.0,4.006901000000198
775,18,0.5,0.0625,35.0,1,1.0,9.343700999999783
776,18,0.5,1.0,-35.0,-1,1.0,0.3040009999999711
777,18,0.5,0.0625,35.0,1,1.0,0.3973009999999704
778,18,0.5,0.25,35.0,1,1.0,0.4275009999996655
779,18,0.5,0.25,-35.0,-1,1.0,0.2876009999999951
780,18,0.5,0.25,-35.0,-1,1.0,0.2343010000004142
781,18,0.5,1.0,35.0,1,1.0,0.44770100000005186
782,18,0.5,1.0,-35.0,-1,1.0,0.2545010000003458
783,18,0.5,0.25,-35.0,-1,1.0,0.6579009999995833
784,18,0.5,0.0625,35.0,1,1.0,10.362201000000368
785,18,0.5,1.0,35.0,1,1.0,10.439201000000594
786,18,0.5,0.125,35.0,1,1.0,16.18970100000024
787,18,0.5,0.25,-35.0,-1,1.0,29.470000999999684
788,18,0.5,0.0,35.0,1,1.0,15.971000999999887
789,18,0.5,0.25,-35.0,-1,1.0,0.9148010000003524
790,18,0.5,0.125,-35.0,1,0.0,0.521701000000121
791,18,0.5,0.0625,-35.0,-1,1.0,4.154900999999882
792,18,0.5,0.25,-35.0,-1,1.0,8.935201000000234
793,18,0.5,0.25,35.0,1,1.0,0.5223009999999704
794,18,0.5,0.0625,35.0,1,1.0,4.155600999999933
795,18,0.5,1.0,35.0,1,1.0,0.3325009999998656
796,18,0.5,0.125,-35.0,-1,1.0,4.485901000000013
797,18,0.5,0.25,35.0,1,1.0,0.31270100000028833
798,18,0.5,0.0,35.0,-1,0.0,1.1629009999996924
799,18,0.5,0.0,-35.0,-1,1.0,3.569600999999693
800,18,0.5,1.0,35.0,1,1.0,0.2765009999998256
801,18,0.5,0.0,-35.0,1,0.0,8.103301000000101
802,18,0.5,0.0625,35.0,1,1.0,0.6236010000002352
803,18,0.5,0.25,-35.0,-1,1.0,2.7203010000002905
804,18,0.5,1.0,-35.0,-1,1.0,0.24040100000001985
805,18,0.5,0.0625,35.0,1,1.0,4.747300999999879
806,18,0.5,0.0625,35.0,1,1.0,15.064100999999937
807,18,0.5,0.0625,35.0,1,1.0,1.8412010000001828
808,18,0.5,0.25,35.0,1,1.0,0.6380010000002585
809,18,0.5,0.0625,-35.0,-1,1.0,0.7514010000004419
810,18,0.5,0.25,35.0,1,1.0,5.654900999999882
811,18,0.5,0.125,-35.0,1,0.0,9.265100999999959
812,18,0.5,0.0,-35.0,1,0.0,5.025400999999874
813,18,0.5,0.125,-35.0,1,0.0,5.039001000000553
814,18,0.5,0.25,-35.0,1,0.0,6.129201000000194
1,19,0.5,0.125,-35.0,-1,1.0,6.464799999999999
2,19,0.5,0.0,35.0,-1,0.0,0.46850000000000236
3,19,0.5,0.0625,-35.0,-1,1.0,1.7830999999999992
4,19,0.5,0.125,35.0,1,1.0,0.5436999999999976
5,19,0.5,1.0,-35.0,-1,1.0,0.3579000000000008
6,19,0.5,1.0,-35.0,-1,1.0,0.3329999999999984
7,19,0.5,0.0625,35.0,1,1.0,0.4526000000000039
8,19,0.5,0.0,-35.0,-1,1.0,0.9402000000000044
9,19,0.5,0.25,-35.0,-1,1.0,0.4877000000000038
10,19,0.5,1.0,-35.0,-1,1.0,0.3213000000000008
11,19,0.5,0.125,35.0,1,1.0,0.4620000000000033
12,19,0.5,0.0625,35.0,-1,0.0,0.35139999999999105
13,19,0.5,0.125,-35.0,-1,1.0,0.6711999999999989
14,19,0.5,0.125,-35.0,-1,1.0,0.47039999999999793
15,19,0.5,1.0,-35.0,-1,1.0,0.4265000000000043
16,19,0.5,1.0,-35.0,-1,1.0,0.3990000000000009
17,19,0.5,1.0,35.0,1,1.0,0.4059999999999917
18,19,0.5,0.125,-35.0,-1,1.0,0.35300000000000864
19,19,0.5,0.25,-35.0,-1,1.0,0.271499999999989
20,19,0.5,1.0,35.0,1,1.0,0.38240000000000407
21,19,0.5,0.25,-35.0,-1,1.0,0.41869999999998697
22,19,0.5,0.0625,35.0,1,1.0,0.4889999999999901
23,19,0.5,0.0,35.0,1,1.0,1.148699999999991
24,19,0.5,0.0,35.0,-1,0.0,1.6732000000000085
25,19,0.5,0.0625,35.0,1,1.0,0.391200000000012
26,19,0.5,0.25,-35.0,-1,1.0,0.7006000000000085
27,19,0.5,1.0,35.0,1,1.0,0.4274000000000058
28,19,0.5,0.0625,-35.0,-1,1.0,3.8889000000000067
29,19,0.5,0.125,-35.0,-1,1.0,0.7441999999999922
30,19,0.5,0.125,-35.0,-1,1.0,1.8870000000000289
31,19,0.5,0.0625,35.0,1,1.0,0.5286999999999864
32,19,0.5,1.0,35.0,1,1.0,0.3843999999999994
33,19,0.5,0.125,35.0,-1,0.0,1.0296999999999912
34,19,0.5,0.25,-35.0,-1,1.0,0.43959999999998445
35,19,0.5,0.25,-35.0,-1,1.0,0.40049999999999386
36,19,0.5,0.25,35.0,1,1.0,1.230099999999993
37,19,0.5,0.0625,35.0,-1,0.0,3.5918000000000063
38,19,0.5,0.0625,-35.0,-1,1.0,1.2686999999999955
39,19,0.5,0.25,35.0,-1,0.0,0.8147000000000162
40,19,0.5,0.0625,-35.0,1,0.0,2.7587000000000046
41,19,0.4,0.0625,-35.0,-1,1.0,0.11230000000000473
42,19,0.5,1.0,35.0,1,1.0,0.7521000000000129
43,19,0.5,0.125,-35.0,-1,1.0,1.5655000000000143
44,19,0.5,0.25,-35.0,-1,1.0,0.3462999999999852
45,19,0.5,0.25,35.0,1,1.0,0.4159999999999968
46,19,0.5,0.25,35.0,-1,0.0,0.632000000000005
47,19,0.3,0.25,35.0,1,1.0,0.7726999999999862
48,19,0.5,1.0,35.0,1,1.0,0.6228999999999871
49,19,0.5,1.0,35.0,1,1.0,0.5226999999999862
50,19,0.5,0.125,35.0,-1,0.0,1.0270999999999901
51,19,0.5,0.0625,-35.0,1,0.0,0.26550000000000296
52,19,0.5,0.0,35.0,1,1.0,1.9712000000000103
53,19,0.5,0.125,-35.0,-1,1.0,0.6587000000000103
54,19,0.5,0.25,35.0,-1,0.0,1.6892999999999745
55,19,0.5,0.0625,-35.0,-1,1.0,4.0852999999999895
56,19,0.5,1.0,-35.0,-1,1.0,0.3749000000000251
57,19,0.5,0.0625,35.0,1,1.0,1.421199999999999
58,19,0.5,0.125,-35.0,-1,1.0,0.2483999999999753
59,19,0.5,0.0,35.0,-1,0.0,0.759600000000006
60,19,0.5,0.125,-35.0,-1,1.0,2.3503000000000043
61,19,0.5,0.0,35.0,-1,0.0,0.7791000000000281
62,19,0.5,0.0625,35.0,-1,0.0,0.700300000000027
63,19,0.1,0.0625,-35.0,-1,1.0,2.0207000000000335
64,19,0.5,1.0,35.0,1,1.0,1.4767000000000507
65,19,0.5,0.0,35.0,-1,0.0,0.11740000000003192
66,19,0.5,0.125,35.0,1,1.0,0.4660000000000082
67,19,0.5,1.0,-35.0,-1,1.0,0.43840000000000146
68,19,0.5,0.125,-35.0,-1,1.0,0.48910000000000764
69,19,0.5,0.25,35.0,1,1.0,0.5128000000000839
70,19,0.5,0.0,35.0,1,1.0,1.669900000000041
71,19,0.5,0.0,35.0,-1,0.0,0.7103999999999928
72,19,0.5,0.0625,35.0,1,1.0,0.6777999999999906
73,19,0.5,0.0625,35.0,1,1.0,0.8518000000000256
74,19,0.5,0.125,-35.0,1,0.0,0.26360000000005357
75,19,0.6,0.125,35.0,1,1.0,0.3848000000000411
76,19,0.5,1.0,-35.0,1,0.0,0.5415000000000418
77,19,0.5,0.125,35.0,-1,0.0,1.76460000000003
78,19,0.5,0.125,-35.0,-1,1.0,0.43710000000004356
79,19,0.5,0.25,35.0,1,1.0,0.35860000000008085
80,19,0.5,1.0,35.0,1,1.0,0.5582000000000562
81,19,0.5,1.0,-35.0,-1,1.0,0.2865000000000464
82,19,0.5,1.0,35.0,1,1.0,0.6016999999999939
83,19,0.5,0.125,35.0,-1,0.0,0.3941000000000372
84,19,0.5,0.0,-35.0,-1,1.0,3.069300000000055
85,19,0.5,1.0,35.0,1,1.0,0.4211999999999989
86,19,0.5,0.0625,35.0,1,1.0,0.48310000000003583
87,19,0.5,0.0,-35.0,1,0.0,0.4099000000000501
88,19,0.6,0.0,35.0,1,1.0,0.37150000000008276
89,19,0.5,1.0,-35.0,-1,1.0,0.37409999999999854
90,19,0.5,0.25,35.0,1,1.0,2.0674999999999955
91,19,0.5,1.0,35.0,1,1.0,0.7456999999999994
92,19,0.5,0.0,35.0,-1,0.0,1.0374000000000478
93,19,0.5,0.0625,35.0,-1,0.0,2.7772000000000503
94,19,0.5,0.0,-35.0,-1,1.0,2.8345999999999663
95,19,0.5,0.125,-35.0,-1,1.0,0.49320000000000164
96,19,0.5,0.25,35.0,1,1.0,0.7176000000000045
97,19,0.5,1.0,35.0,1,1.0,0.4373000000000502
98,19,0.5,0.25,-35.0,-1,1.0,0.32080000000001974
99,19,0.5,0.0625,35.0,-1,0.0,1.5979000000000383
100,19,0.5,0.0625,35.0,1,1.0,0.977800000000002
101,19,0.5,0.0625,35.0,1,1.0,0.364400000000046
102,19,0.5,1.0,-35.0,-1,1.0,0.27230000000002974
103,19,0.5,0.0625,35.0,1,1.0,0.41360000000003083
104,19,0.5,0.125,-35.0,-1,1.0,0.3006000000000313
105,19,0.5,1.0,35.0,-1,0.0,0.11329999999998108
106,19,0.5,0.0625,-35.0,-1,1.0,0.17350000000004684
107,19,0.5,0.25,35.0,1,1.0,0.6749000000000933
108,19,0.5,1.0,-35.0,-1,1.0,0.30810000000002447
109,19,0.5,0.25,35.0,1,1.0,0.40550000000001774
110,19,0.5,0.125,-35.0,-1,1.0,0.09430000000008931
111,19,0.5,1.0,-35.0,-1,1.0,0.28700000000003456
112,19,0.5,1.0,-35.0,-1,1.0,0.22410000000002128
113,19,0.5,0.0625,35.0,1,1.0,0.36640000000005557
114,19,0.5,0.125,-35.0,-1,1.0,0.39680000000004156
115,19,0.5,0.25,35.0,1,1.0,0.21750000000002956
116,19,0.5,0.125,35.0,1,1.0,0.30090000000006967
117,19,0.5,0.25,35.0,1,1.0,0.4688000000000443
118,19,0.5,0.125,35.0,1,1.0,0.309599999999989
119,19,0.5,0.25,-35.0,1,0.0,0.254600000000039
120,19,0.6,0.25,35.0,1,1.0,0.33060000000006085
121,19,0.5,1.0,35.0,1,1.0,0.22820000000001528
122,19,0.5,0.25,-35.0,-1,1.0,0.2584000000000515
123,19,0.5,0.0,-35.0,1,0.0,0.4058000000000561
124,19,0.8,0.0,35.0,1,1.0,0.45370000000008304
125,19,0.5,1.0,-35.0,-1,1.0,0.36410000000000764
126,19,0.5,0.125,35.0,1,1.0,0.1493999999999005
127,19,0.5,0.0625,35.0,1,1.0,0.33749999999997726
128,19,0.5,0.125,-35.0,-1,1.0,0.46260000000006585
129,19,0.5,0.25,-35.0,-1,1.0,0.4134999999999991
130,19,0.5,1.0,-35.0,-1,1.0,0.45480000000009113
131,19,0.5,1.0,-35.0,-1,1.0,0.33770000000004075
132,19,0.5,0.0625,35.0,1,1.0,0.38180000000011205
133,19,0.5,0.125,-35.0,-1,1.0,0.27490000000000236
134,19,0.5,0.0625,-35.0,-1,1.0,0.3826000000000249
135,19,0.5,0.0625,35.0,1,1.0,0.19580000000007658
136,19,0.5,0.0625,35.0,1,1.0,0.42420000000004165
137,19,0.5,0.25,35.0,-1,0.0,0.09829999999988104
138,19,0.5,0.125,-35.0,1,0.0,0.4615000000000009
139,19,0.5,0.125,-35.0,-1,1.0,0.4074999999999136
140,19,0.5,0.25,-35.0,-1,1.0,0.40620000000001255
141,19,0.5,0.125,35.0,1,1.0,0.3807000000000471
142,19,0.5,1.0,35.0,1,1.0,0.3102999999999838
143,19,0.5,1.0,-35.0,-1,1.0,0.24910000000011223
144,19,0.5,1.0,35.0,1,1.0,0.40590000000008786
145,19,0.5,0.25,-35.0,-1,1.0,0.3499000000001615
146,19,0.5,0.0625,35.0,1,1.0,0.29560000000003583
147,19,0.5,0.0,35.0,-1,0.0,0.1068000000000211
148,19,0.5,0.0,35.0,1,1.0,0.8009000000000697
149,19,0.5,1.0,35.0,1,1.0,0.29670000000010077
150,19,0.5,1.0,35.0,1,1.0,0.3329000000001088
151,19,0.5,0.25,35.0,1,1.0,0.3629999999999427
152,19,0.5,0.0625,35.0,-1,0.0,0.12139999999999418
153,19,0.5,0.0625,35.0,1,1.0,0.3872000000000071
154,19,0.5,0.25,-35.0,-1,1.0,0.25090000000000146
155,19,0.5,0.25,-35.0,-1,1.0,0.5090000000000146
156,19,0.5,0.0625,-35.0,-1,1.0,0.5451000000000477
157,19,0.5,1.0,35.0,1,1.0,0.3143000000001166
158,19,0.5,0.0625,-35.0,-1,1.0,0.2824000000000524
159,19,0.5,0.0,35.0,-1,0.0,0.6703999999999724
160,19,0.5,0.25,-35.0,-1,1.0,0.48869999999999436
161,19,0.5,0.0625,-35.0,-1,1.0,0.38249999999993634
162,19,0.5,0.25,35.0,1,1.0,0.273900000000026
163,19,0.5,0.0625,-35.0,1,0.0,0.5633000000000266
164,19,0.5,0.125,-35.0,1,0.0,0.17250000000001364
165,19,0.5,0.0625,-35.0,-1,1.0,0.6723000000000638
166,19,0.5,0.0625,-35.0,-1,1.0,0.6486999999999625
167,19,0.5,0.125,35.0,-1,0.0,1.3097999999999956
168,19,0.5,0.25,35.0,1,1.0,0.791300000000092
169,19,0.5,0.0,35.0,1,1.0,3.3922999999999774
170,19,0.5,0.0,35.0,-1,0.0,4.2391999999999825
171,19,0.5,0.125,-35.0,-1,1.0,0.3492999999999711
172,19,0.5,0.125,-35.0,-1,1.0,0.32589999999993324
173,19,0.5,0.25,-35.0,-1,1.0,0.4412000000000944
174,19,0.5,0.25,-35.0,-1,1.0,0.1491999999999507
175,19,0.5,1.0,-35.0,-1,1.0,0.41230000000007294
176,19,0.5,0.25,35.0,1,1.0,0.37419999999997344
177,19,0.5,0.25,-35.0,-1,1.0,1.0043999999999187
178,19,0.5,1.0,-35.0,-1,1.0,0.2459000000001197
179,19,0.5,0.25,35.0,1,1.0,0.5066000000000486
180,19,0.5,0.25,-35.0,-1,1.0,0.4558000000000675
181,19,0.5,0.0625,-35.0,-1,1.0,0.5896999999999935
182,19,0.5,0.25,35.0,1,1.0,1.5493000000000166
183,19,0.5,0.125,-35.0,-1,1.0,2.165300000000002
184,19,0.5,1.0,-35.0,-1,1.0,0.45850000000007185
185,19,0.5,0.25,-35.0,-1,1.0,0.3062000000001035
186,19,0.5,0.125,35.0,1,1.0,0.8212000000000899
187,19,0.5,0.0625,-35.0,-1,1.0,0.502800000000093
188,19,0.5,0.0625,35.0,1,1.0,1.75
189,19,0.5,1.0,-35.0,-1,1.0,0.4071999999999889
190,19,0.5,0.25,35.0,-1,0.0,1.3315999999999804
191,19,0.5,0.25,-35.0,-1,1.0,1.8875000000000455
192,19,0.5,0.0,35.0,1,1.0,3.4396000000000413
193,19,0.5,0.0625,-35.0,1,0.0,4.253100000000018
194,19,0.4,0.0625,35.0,1,1.0,0.8268000000000484
195,19,0.5,1.0,-35.0,-1,1.0,1.7565000000000737
196,19,0.5,0.0,35.0,1,1.0,0.6816000000001168
197,19,0.5,0.0,-35.0,1,0.0,0.9559000000000424
198,19,0.5,0.0,35.0,1,1.0,3.892500000000041
199,19,0.5,0.0625,-35.0,1,0.0,6.846900000000005
200,19,0.5,0.125,-35.0,-1,1.0,0.8268000000000484
201,19,0.5,0.25,-35.0,-1,1.0,2.946800000000053
202,19,0.5,0.25,-35.0,1,0.0,1.3449000000000524
203,19,0.5,0.0625,-35.0,-1,1.0,5.478600000000029
204,19,0.5,0.0625,35.0,-1,0.0,0.7001999999998816
205,19,0.5,0.25,-35.0,-1,1.0,2.780399999999986
206,19,0.5,1.0,-35.0,-1,1.0,0.3430999999999358
207,19,0.5,0.25,-35.0,-1,1.0,0.36550000000011096
208,19,0.5,0.25,-35.0,-1,1.0,0.6245000000000118
209,19,0.5,0.125,-35.0,-1,1.0,1.7466000000000577
210,19,0.5,1.0,35.0,1,1.0,0.23860000000013315
211,19,0.5,0.0625,-35.0,-1,1.0,1.5901000000000067
212,19,0.5,0.0625,35.0,1,1.0,0.6049000000000433
213,19,0.5,0.25,-35.0,-1,1.0,0.4091000000000804
214,19,0.5,0.125,35.0,1,1.0,2.635499999999979
215,19,0.5,0.125,-35.0,-1,1.0,0.35829999999998563
216,19,0.5,0.25,35.0,1,1.0,0.30720000000007985
217,19,0.5,0.0625,-35.0,-1,1.0,0.28710000000000946
218,19,0.5,1.0,-35.0,-1,1.0,0.39960000000007767
219,19,0.5,0.0625,-35.0,-1,1.0,0.5146000000000868
220,19,0.5,0.25,35.0,1,1.0,0.8004000000000815
221,19,0.5,1.0,-35.0,-1,1.0,0.38600000000008095
222,19,0.5,0.0625,-35.0,-1,1.0,1.6662999999999784
223,19,0.5,1.0,-35.0,-1,1.0,0.3040000000000873
224,19,0.5,0.25,35.0,1,1.0,0.3953999999999951
225,19,0.5,0.0,35.0,-1,0.0,0.8275000000001
226,19,0.5,0.125,35.0,1,1.0,3.5412000000000035
227,19,0.5,0.25,-35.0,-1,1.0,0.49869999999998527
228,19,0.5,0.0,35.0,1,1.0,0.8166000000001077
229,19,0.5,0.125,-35.0,1,0.0,0.4615999999999758
230,19,0.5,0.25,35.0,1,1.0,0.5822999999999183
231,19,0.5,1.0,-35.0,-1,1.0,0.5004000000000133
232,19,0.5,0.125,35.0,1,1.0,2.7567999999999984
233,19,0.5,0.125,-35.0,-1,1.0,1.1887000000000398
234,19,0.5,0.25,-35.0,-1,1.0,0.4921000000001641
235,19,0.5,0.25,-35.0,-1,1.0,0.3391000000000304
236,19,0.5,0.25,35.0,1,1.0,0.3204000000000633
237,19,0.5,0.25,35.0,1,1.0,0.3824000000000751
238,19,0.5,0.0,-35.0,-1,1.0,1.0073999999999614
239,19,0.5,1.0,35.0,1,1.0,0.6569999999999254
240,19,0.5,0.0625,35.0,-1,0.0,3.607499999999959
241,19,0.5,0.125,35.0,1,1.0,0.3126999999999498
242,19,0.5,0.25,35.0,1,1.0,0.40210000000013224
243,19,0.5,0.125,-35.0,-1,1.0,0.26310000000000855
244,19,0.5,0.125,35.0,-1,0.0,2.2495999999999867
245,19,0.5,0.25,35.0,1,1.0,0.29909999999995307
246,19,0.5,0.125,-35.0,-1,1.0,0.8342000000000098
247,19,0.5,0.0625,35.0,-1,0.0,2.8659000000000106
248,19,0.5,0.0625,-35.0,-1,1.0,1.964399999999955
249,19,0.5,0.125,-35.0,-1,1.0,3.244600000000105
250,19,0.5,0.25,35.0,-1,0.0,0.9563000000000557
251,19,0.3,0.25,35.0,1,1.0,0.641399999999976
252,19,0.5,1.0,35.0,1,1.0,0.4900000000000091
253,19,0.5,0.125,35.0,1,1.0,0.48489999999992506
254,19,0.5,0.0625,35.0,1,1.0,1.3399999999999181
255,19,0.5,0.25,-35.0,-1,1.0,0.36510000000021137
256,19,0.5,0.25,-35.0,-1,1.0,0.7800999999999476
257,19,0.5,0.0625,35.0,1,1.0,0.9554000000000542
258,19,0.5,1.0,35.0,1,1.0,0.5970000000002074
259,19,0.5,0.0,-35.0,-1,1.0,1.9320000000002437
260,19,0.5,1.0,35.0,1,1.0,0.2807000000000244
261,19,0.5,0.0625,35.0,-1,0.0,0.8289999999999509
262,19,0.5,0.0,-35.0,1,0.0,0.5539999999998599
263,19,0.6,0.0,35.0,-1,0.0,0.4592000000000098
264,19,0.5,1.0,-35.0,-1,1.0,0.3545000000001437
265,19,0.5,0.25,35.0,-1,0.0,0.9926000000000386
266,19,0.4,0.25,-35.0,-1,1.0,0.297800000000052
267,19,0.5,1.0,35.0,1,1.0,0.25949999999988904
268,19,0.5,0.125,35.0,1,1.0,1.4377999999999247
269,19,0.5,1.0,35.0,1,1.0,0.4230000000002292
270,19,0.5,0.125,-35.0,1,0.0,1.4347000000000207
271,19,0.5,0.0625,35.0,1,1.0,0.8033000000000357
272,19,0.5,0.0,-35.0,-1,1.0,3.7985000000001037
273,19,0.5,1.0,35.0,1,1.0,0.31009999999992033
274,19,0.5,0.125,35.0,-1,0.0,0.525300000000243
275,19,0.5,0.25,35.0,1,1.0,0.3369999999999891
276,19,0.5,0.25,35.0,1,1.0,0.5755999999998949
277,19,0.5,1.0,-35.0,-1,1.0,0.32720000000017535
278,19,0.5,0.125,35.0,1,1.0,1.0254999999999654
279,19,0.5,0.25,35.0,1,1.0,0.710700000000088
280,19,0.5,0.0625,35.0,1,1.0,0.6391000000000986
281,19,0.5,0.25,-35.0,-1,1.0,1.1309999999998581
282,19,0.5,0.0625,35.0,1,1.0,2.0427000000001954
283,19,0.5,1.0,-35.0,-1,1.0,0.3243999999999687
284,19,0.5,0.0625,-35.0,-1,1.0,2.8863000000001193
285,19,0.5,0.125,35.0,-1,0.0,0.5480000000000018
286,19,0.5,0.125,-35.0,-1,1.0,0.5430999999998676
287,19,0.5,1.0,35.0,1,1.0,1.641399999999976
288,19,0.5,0.125,-35.0,-1,1.0,0.5498000000000047
289,19,0.5,1.0,35.0,1,1.0,0.1916999999998552
290,19,0.5,1.0,-35.0,-1,1.0,0.2335000000000491
291,19,0.5,0.0,-35.0,1,0.0,0.9752000000000862
292,19,0.4,0.0,35.0,-1,0.0,2.157000000000153
293,19,0.5,1.0,35.0,1,1.0,0.4919999999999618
294,19,0.5,0.125,35.0,1,1.0,1.130400000000236
295,19,0.5,0.125,35.0,1,1.0,9.315700000000106
296,19,0.5,0.0625,-35.0,-1,1.0,1.2309000000000196
297,19,0.5,1.0,35.0,1,1.0,0.3727000000001226
298,19,0.5,1.0,-35.0,-1,1.0,0.8794000000002598
299,19,0.5,1.0,35.0,1,1.0,0.2880999999999858
300,19,0.5,0.25,35.0,1,1.0,3.5995000000000346
301,19,0.5,0.0625,-35.0,-1,1.0,5.3146999999999025
302,19,0.5,0.125,-35.0,-1,1.0,0.43659999999999854
303,19,0.5,0.0625,35.0,-1,0.0,0.7349000000001524
304,19,0.5,0.0625,-35.0,1,0.0,5.32340000000022
305,19,0.5,1.0,-35.0,-1,1.0,1.3718999999998687
306,19,0.5,1.0,35.0,1,1.0,0.2868999999998323
307,19,0.5,0.0625,-35.0,1,0.0,1.2920999999998912
308,19,0.5,0.25,35.0,1,1.0,3.0706000000002405
309,19,0.5,0.0,-35.0,-1,1.0,7.0625
310,19,0.5,0.0625,-35.0,1,0.0,4.551000000000158
311,19,0.5,0.125,-35.0,1,0.0,1.682700000000068
312,19,0.5,0.25,35.0,1,1.0,0.5911999999998443
313,19,0.5,0.25,-35.0,-1,1.0,3.3262999999999465
314,19,0.5,0.125,35.0,-1,0.0,2.551400000000058
315,19,0.5,0.125,35.0,1,1.0,0.09329999999999927
316,19,0.5,0.25,-35.0,-1,1.0,0.45509999999990214
317,19,0.5,1.0,-35.0,-1,1.0,0.41020000000003165
318,19,0.5,0.25,35.0,1,1.0,0.25870000000031723
319,19,0.5,0.125,35.0,-1,0.0,2.2537999999999556
320,19,0.5,0.125,35.0,1,1.0,0.3488000000002103
321,19,0.5,0.125,-35.0,1,0.0,1.7074000000002343
322,19,0.5,0.0,-35.0,1,0.0,7.48900000000026
323,19,0.5,0.0625,35.0,1,1.0,0.9710000000000036
324,19,0.5,0.25,-35.0,-1,1.0,5.201000000000249
325,19,0.5,1.0,35.0,1,1.0,4.274599999999964
326,19,0.5,0.0,35.0,1,1.0,1.139699999999948
327,19,0.5,0.0,35.0,1,1.0,2.261700000000019
328,19,0.5,0.0,-35.0,-1,1.0,2.8499000000001615
329,19,0.5,0.25,35.0,1,1.0,3.055099999999811
330,19,0.5,0.25,35.0,-1,0.0,0.40360000000009677
331,19,0.5,0.125,-35.0,-1,1.0,2.6087000000002263
332,19,0.5,0.125,-35.0,-1,1.0,4.447100000000091
333,19,0.5,0.125,-35.0,1,0.0,0.49900000000002365
334,19,0.5,0.25,-35.0,-1,1.0,0.49060000000008586
335,19,0.5,1.0,35.0,1,1.0,0.38580000000024484
336,19,0.5,0.25,35.0,1,1.0,0.36419999999998254
337,19,0.5,0.25,35.0,1,1.0,0.789299999999912
338,19,0.5,0.125,35.0,-1,0.0,2.897699999999986
339,19,0.5,0.125,35.0,-1,0.0,0.8596000000000004
340,19,0.5,1.0,-35.0,-1,1.0,0.3046999999999116
341,19,0.5,0.125,-35.0,-1,1.0,0.6430000000000291
342,19,0.5,0.125,35.0,-1,0.0,0.36819999999988795
343,19,0.5,0.0625,35.0,-1,0.0,0.6767000000002099
344,19,0.3,0.0625,-35.0,-1,1.0,2.7219000000002325
345,19,0.5,1.0,35.0,1,1.0,2.9139000000000124
346,19,0.5,0.0625,-35.0,-1,1.0,5.25240000000008
347,19,0.5,1.0,35.0,-1,0.0,4.56430000000023
348,19,0.5,0.125,35.0,1,1.0,5.712800000000016
349,19,0.5,0.25,-35.0,-1,1.0,2.0381999999999607
350,19,0.5,0.25,35.0,-1,0.0,0.9829999999999472
351,19,0.5,0.125,35.0,-1,0.0,3.2049000000001797
352,19,0.5,0.125,-35.0,-1,1.0,2.3134000000000015
353,19,0.5,0.25,35.0,1,1.0,6.6486999999999625
354,19,0.5,1.0,35.0,1,1.0,1.59699999999998
355,19,0.5,0.25,-35.0,-1,1.0,0.6755000000000564
356,19,0.5,0.25,-35.0,-1,1.0,0.4872000000002572
357,19,0.5,0.125,-35.0,-1,1.0,0.4091000000000804
358,19,0.5,1.0,35.0,1,1.0,0.16740000000027067
359,19,0.5,0.25,-35.0,1,0.0,2.7427999999999884
360,19,0.4,0.25,-35.0,-1,1.0,0.5278000000000702
361,19,0.5,1.0,35.0,1,1.0,2.536200000000008
362,19,0.5,0.125,35.0,1,1.0,0.5080000000000382
363,19,0.5,0.25,-35.0,-1,1.0,0.16990000000009786
364,19,0.5,0.0625,35.0,1,1.0,0.4681000000000495
365,19,0.5,0.125,35.0,1,1.0,0.31340000000022883
366,19,0.5,1.0,-35.0,-1,1.0,0.36160000000018044
367,19,0.5,0.125,-35.0,-1,1.0,0.42020000000002256
368,19,0.5,0.25,-35.0,-1,1.0,0.3950000000002092
369,19,0.5,1.0,-35.0,-1,1.0,1.450399999999945
370,19,0.5,0.0625,-35.0,1,0.0,1.9721000000001823
371,19,0.5,0.0625,-35.0,1,0.0,0.40409999999997126
372,19,0.5,1.0,-35.0,-1,1.0,0.3488999999999578
373,19,0.5,0.25,-35.0,-1,1.0,1.8174000000001342
374,19,0.5,0.0,-35.0,1,0.0,6.25240000000008
375,19,0.5,0.0,35.0,-1,0.0,0.7644000000000233
376,19,0.5,0.125,-35.0,-1,1.0,0.46620000000029904
377,19,0.5,1.0,-35.0,-1,1.0,0.37790000000018154
378,19,0.5,1.0,35.0,1,1.0,0.4695999999999003
379,19,0.5,0.25,35.0,1,1.0,2.894600000000082
380,19,0.5,0.25,35.0,1,1.0,0.4130999999999858
381,19,0.5,0.0,35.0,-1,0.0,2.518600000000106
382,19,0.5,0.125,-35.0,1,0.0,1.2268000000001393
383,19,0.5,0.125,35.0,-1,0.0,1.4453000000000884
384,19,0.5,1.0,35.0,1,1.0,0.3835999999998876
385,19,0.5,1.0,-35.0,-1,1.0,0.3420000000000982
386,19,0.5,0.0625,35.0,-1,0.0,1.2837000000001808
387,19,0.5,0.125,35.0,1,1.0,0.37249999999994543
388,19,0.5,1.0,35.0,1,1.0,0.42069999999989705
389,19,0.5,0.25,35.0,1,1.0,0.5622999999998228
390,19,0.5,1.0,35.0,1,1.0,0.3242000000000189
391,19,0.5,0.0625,35.0,-1,0.0,5.042699999999968
392,19,0.5,0.125,35.0,1,1.0,3.317800000000034
393,19,0.5,1.0,35.0,1,1.0,0.35629999999991924
394,19,0.5,0.25,-35.0,-1,1.0,0.5879999999999654
395,19,0.5,0.0,35.0,1,1.0,0.5832000000000335
396,19,0.5,0.25,35.0,1,1.0,3.2315000000000964
397,19,0.5,0.25,-35.0,-1,1.0,1.4235000000001037
398,19,0.5,0.0625,35.0,-1,0.0,5.501800000000003
399,19,0.5,0.0625,-35.0,-1,1.0,12.727100000000064
400,19,0.5,0.25,35.0,-1,0.0,1.8557000000000698
401,19,0.5,0.125,35.0,1,1.0,0.3342000000000098
402,19,0.5,0.125,35.0,1,1.0,1.689300000000003
403,19,0.5,0.125,35.0,-1,0.0,0.6611000000000331
404,19,0.5,0.0625,35.0,-1,0.0,6.169400000000223
405,19,0.4,0.0625,-35.0,-1,1.0,1.904700000000048
406,19,0.5,1.0,35.0,1,1.0,1.8599000000001524
407,19,0.5,0.0625,35.0,-1,0.0,2.5318999999999505
408,19,0.5,0.0,-35.0,-1,1.0,6.070099999999911
409,19,0.5,1.0,-35.0,-1,1.0,0.39220000000000255
410,19,0.5,0.25,35.0,-1,0.0,3.610400000000027
411,19,0.5,0.0625,-35.0,1,0.0,2.465599999999995
412,19,0.5,0.0625,-35.0,1,0.0,2.7807000000000244
413,19,0.5,0.125,-35.0,-1,1.0,0.3894999999999982
414,19,0.5,0.0625,35.0,1,1.0,18.824299999999994
415,19,0.5,0.0,-35.0,1,0.0,0.3667000000000371
416,19,0.5,0.0625,35.0,-1,0.0,0.6950999999999112
417,19,0.5,0.25,-35.0,1,0.0,6.453500000000076
418,19,0.5,0.25,-35.0,-1,1.0,5.898599999999988
419,19,0.5,1.0,-35.0,-1,1.0,0.48050000000012005
420,19,0.5,0.25,35.0,1,1.0,5.992400000000089
421,19,0.5,0.0,35.0,-1,0.0,8.317700000000059
422,19,0.5,0.125,35.0,1,1.0,0.7494000000001506
423,19,0.5,1.0,-35.0,-1,1.0,2.647899999999936
424,19,0.5,0.125,35.0,1,1.0,0.6430000000000291
425,19,0.5,0.25,35.0,1,1.0,3.48479999999995
426,19,0.5,0.0625,-35.0,1,0.0,0.5265000000001692
427,19,0.5,0.25,-35.0,1,0.0,0.31199999999989814
428,19,0.5,0.25,-35.0,-1,1.0,0.33350000000018554
429,19,0.5,0.125,-35.0,-1,1.0,3.455299999999852
430,19,0.5,0.125,35.0,1,1.0,2.2337000000002263
431,19,0.5,0.0625,-35.0,-1,1.0,0.5256000000001677
432,19,0.5,0.125,-35.0,1,0.0,2.6240000000000236
433,19,0.5,0.0625,35.0,1,1.0,0.435799999999972
434,19,0.5,1.0,-35.0,-1,1.0,0.33740000000011605
435,19,0.5,0.0625,-35.0,-1,1.0,2.2125999999998385
436,19,0.5,0.25,35.0,1,1.0,2.184300000000121
437,19,0.5,0.0,35.0,1,1.0,6.232899999999972
438,19,0.5,0.25,35.0,1,1.0,0.6078999999999724
439,19,0.5,0.25,35.0,-1,0.0,1.6566000000000258
440,19,0.5,0.125,35.0,1,1.0,0.548200000000179
441,19,0.5,0.0,35.0,1,1.0,0.776700000000119
442,19,0.5,0.0625,-35.0,-1,1.0,3.375099999999975
443,19,0.5,0.0625,35.0,1,1.0,6.823499999999967
444,19,0.5,0.25,35.0,-1,0.0,2.1854000000000724
445,19,0.5,0.125,35.0,1,1.0,0.3838999999998123
446,19,0.5,0.25,-35.0,-1,1.0,0.587400000000116
447,19,0.5,0.125,35.0,-1,0.0,1.4157999999999902
448,19,0.5,0.125,-35.0,1,0.0,1.5342000000000553
449,19,0.5,1.0,-35.0,-1,1.0,0.31930000000011205
450,19,0.5,0.125,35.0,1,1.0,0.31110000000035143
451,19,0.5,1.0,-35.0,-1,1.0,0.5361000000002605
452,19,0.5,0.125,35.0,1,1.0,1.147899999999936
453,19,0.5,1.0,35.0,1,1.0,6.9198999999998705
454,19,0.5,0.25,-35.0,1,0.0,3.6153009999998176
455,19,0.5,0.25,-35.0,-1,1.0,0.5536010000005263
456,19,0.5,0.0625,-35.0,1,0.0,0.17380099999991216
457,19,0.5,0.125,-35.0,-1,1.0,0.22590100000024904
458,19,0.5,0.25,35.0,-1,0.0,10.397601000000122
459,19,0.5,0.0,35.0,1,1.0,4.472901000000093
460,19,0.5,0.25,-35.0,1,0.0,13.094700999999986
461,19,0.5,0.125,-35.0,1,0.0,3.8304009999997106
462,19,0.5,0.25,-35.0,-1,1.0,7.348700999999892
463,19,0.5,0.125,-35.0,-1,1.0,0.7707009999999173
464,19,0.5,0.0,-35.0,-1,1.0,2.3289010000003145
465,19,0.5,0.125,-35.0,1,0.0,2.14100099999996
466,19,0.5,0.25,35.0,-1,0.0,0.22610100000019884
467,19,0.5,0.125,-35.0,-1,1.0,4.644600999999966
468,19,0.5,0.0625,35.0,1,1.0,3.3229010000004564
469,19,0.5,0.25,-35.0,-1,1.0,0.5349009999999907
470,19,0.5,0.0,-35.0,-1,1.0,5.549900999999863
471,19,0.5,1.0,35.0,1,1.0,3.918601000000308
472,19,0.5,0.0625,35.0,1,1.0,6.767101000000366
473,19,0.5,1.0,35.0,1,1.0,6.515700999999808
474,19,0.5,0.0625,-35.0,1,0.0,6.1075009999999565
475,19,0.6,0.0625,-35.0,1,0.0,13.843001000000186
476,19,0.5,1.0,35.0,1,1.0,4.311501000000135
477,19,0.5,1.0,-35.0,-1,1.0,0.5768010000001595
478,19,0.5,0.125,-35.0,1,0.0,1.3052009999996699
