trial_num,session_num,stim_probability_left,contrast,position,response_choice,trial_correct,reaction_time
1,1,0.5,0.0625,-35.0,-1,1.0,0.5730999999999997
2,1,0.5,0.0,35.0,-1,0.0,0.4612999999999987
3,1,0.5,0.0625,35.0,1,1.0,0.15620000000000012
4,1,0.5,0.0625,35.0,1,1.0,0.4330999999999996
5,1,0.5,0.125,35.0,1,1.0,0.1701999999999977
6,1,0.5,0.25,-35.0,1,0.0,0.15469999999999828
7,1,0.5,0.125,35.0,-1,0.0,2.671900000000001
8,1,0.5,1.0,-35.0,-1,1.0,0.18659999999999854
9,1,0.5,1.0,-35.0,-1,1.0,0.20310000000000272
10,1,0.5,0.0625,35.0,-1,0.0,0.428600000000003
11,1,0.5,0.125,35.0,-1,0.0,0.20949999999999847
12,1,0.5,0.0625,-35.0,-1,1.0,0.43780000000000285
13,1,0.5,0.25,35.0,1,1.0,0.31450000000000244
14,1,0.5,0.125,35.0,1,1.0,0.5018999999999991
15,1,0.5,0.0625,35.0,1,1.0,0.16839999999999833
16,1,0.5,1.0,-35.0,-1,1.0,0.2627999999999986
17,1,0.5,0.0625,-35.0,1,0.0,0.12649999999999295
18,1,0.5,0.25,-35.0,-1,1.0,0.36430000000000007
19,1,0.5,1.0,-35.0,-1,1.0,0.21529999999999916
20,1,0.5,0.0,35.0,-1,0.0,0.4329000000000036
21,1,0.5,0.0625,-35.0,-1,1.0,0.4829999999999899
22,1,0.5,0.0625,35.0,1,1.0,0.6816999999999922
23,1,0.5,0.125,35.0,1,1.0,0.16500000000000625
24,1,0.5,0.125,-35.0,-1,1.0,0.13510000000000844
25,1,0.5,1.0,-35.0,-1,1.0,0.2698999999999927
26,1,0.5,0.25,-35.0,1,0.0,0.2383999999999986
27,1,0.5,0.25,35.0,1,1.0,0.26770000000000493
28,1,0.5,1.0,35.0,1,1.0,0.15970000000001505
29,1,0.5,1.0,35.0,1,1.0,0.19140000000000157
30,1,0.5,0.0625,-35.0,-1,1.0,0.2289999999999992
31,1,0.5,0.125,-35.0,-1,1.0,0.20839999999998327
32,1,0.5,1.0,35.0,1,1.0,0.11879999999999313
33,1,0.5,0.125,-35.0,1,0.0,0.06949999999999079
34,1,0.5,0.25,-35.0,-1,1.0,0.5401000000000096
35,1,0.5,0.0625,-35.0,1,0.0,0.19249999999999545
36,1,0.5,0.0625,35.0,-1,0.0,0.21009999999999707
37,1,0.5,0.125,-35.0,-1,1.0,0.20800000000001262
38,1,0.5,0.0625,-35.0,-1,1.0,0.35300000000000864
39,1,0.5,0.0625,35.0,-1,0.0,0.12040000000001783
40,1,0.5,1.0,35.0,1,1.0,0.188699999999983
41,1,0.5,0.25,-35.0,-1,1.0,0.15170000000000528
42,1,0.5,0.125,-35.0,-1,1.0,0.19089999999999918
43,1,0.5,0.0625,35.0,1,1.0,0.1344999999999743
44,1,0.5,0.0625,-35.0,1,0.0,0.8684000000000367
45,1,0.5,0.0625,35.0,1,1.0,0.2560999999999751
46,1,0.5,0.125,35.0,1,1.0,0.24800000000001887
47,1,0.5,0.0625,35.0,-1,0.0,0.29300000000000637
48,1,0.5,0.25,35.0,1,1.0,0.14930000000001087
49,1,0.5,0.125,35.0,-1,0.0,0.4352999999999838
50,1,0.5,0.0625,-35.0,1,0.0,0.7770000000000152
51,1,0.5,1.0,35.0,1,1.0,0.1338999999999828
52,1,0.5,0.0625,-35.0,-1,1.0,0.13530000000000086
53,1,0.5,0.0625,35.0,1,1.0,0.2633000000000152
54,1,0.5,0.0,-35.0,-1,1.0,0.5086000000000013
55,1,0.5,1.0,-35.0,1,0.0,0.16779999999999973
56,1,0.5,1.0,35.0,1,1.0,0.1881999999999664
57,1,0.5,1.0,-35.0,-1,1.0,0.2213000000000136
58,1,0.5,0.125,35.0,1,1.0,0.4754999999999825
59,1,0.5,1.0,35.0,1,1.0,0.23869999999999436
60,1,0.5,0.125,35.0,1,1.0,0.18090000000000828
61,1,0.5,1.0,-35.0,-1,1.0,0.2230000000000132
62,1,0.5,0.125,-35.0,1,0.0,0.11329999999998108
63,1,0.5,0.25,-35.0,1,0.0,0.10260000000002378
64,1,0.5,0.0625,-35.0,-1,1.0,4.0157999999999845
65,1,0.5,0.0625,35.0,1,1.0,0.1606999999999914
66,1,0.5,0.25,-35.0,-1,1.0,0.9044999999999845
67,1,0.5,0.125,-35.0,-1,1.0,0.24859999999998195
68,1,0.5,0.125,35.0,1,1.0,0.24519999999998277
69,1,0.5,0.25,35.0,1,1.0,0.22010000000000218
70,1,0.5,0.125,-35.0,-1,1.0,0.5091999999999928
71,1,0.5,0.25,-35.0,-1,1.0,0.7171999999999912
72,1,0.5,0.25,35.0,1,1.0,0.1939999999999884
73,1,0.5,1.0,-35.0,-1,1.0,0.2740000000000009
74,1,0.5,1.0,-35.0,-1,1.0,0.20019999999996685
75,1,0.5,0.0625,-35.0,-1,1.0,0.4117999999999995
76,1,0.5,0.25,-35.0,-1,1.0,0.19099999999997408
77,1,0.5,0.125,-35.0,-1,1.0,0.301400000000001
78,1,0.5,0.25,35.0,1,1.0,0.23640000000000327
79,1,0.5,0.25,35.0,1,1.0,0.15430000000003474
80,1,0.5,0.125,-35.0,1,0.0,0.1332999999999629
81,1,0.5,0.0625,35.0,1,1.0,0.6324000000000183
82,1,0.5,0.125,-35.0,-1,1.0,0.19300000000004047
83,1,0.5,0.125,-35.0,-1,1.0,0.03780000000006112
84,1,0.5,0.0625,-35.0,1,0.0,0.19010000000002947
85,1,0.5,0.0,-35.0,1,0.0,0.08850000000001046
86,1,0.5,1.0,35.0,1,1.0,0.24279999999998836
87,1,0.5,0.125,-35.0,1,0.0,0.12470000000001846
88,1,0.5,0.25,-35.0,1,0.0,0.12520000000000664
89,1,0.5,0.25,-35.0,-1,1.0,0.20340000000004466
90,1,0.5,0.125,35.0,1,1.0,0.05660000000000309
91,1,0.8,1.0,35.0,1,1.0,0.10759999999999081
92,1,0.8,0.25,-35.0,-1,1.0,0.344600000000014
93,1,0.8,0.125,-35.0,1,0.0,0.102800000000002
94,1,0.8,0.0625,35.0,1,1.0,0.20819999999997663
95,1,0.8,1.0,-35.0,-1,1.0,0.3020000000000209
96,1,0.8,0.125,-35.0,-1,1.0,2.2491999999999734
97,1,0.8,0.0,-35.0,-1,1.0,0.22100000000000364
98,1,0.8,0.125,-35.0,1,0.0,0.20419999999995753
99,1,0.8,0.0625,-35.0,-1,1.0,0.21620000000001482
100,1,0.8,0.25,35.0,1,1.0,0.190400000000011
101,1,0.8,0.125,-35.0,-1,1.0,0.4019000000000119
102,1,0.8,1.0,-35.0,-1,1.0,0.3380999999999972
103,1,0.8,0.0625,35.0,-1,0.0,0.5061000000000035
104,1,0.8,0.0625,-35.0,1,0.0,0.1642999999999688
105,1,0.8,0.25,-35.0,-1,1.0,0.2937999999999761
106,1,0.8,0.125,-35.0,-1,1.0,0.13999999999998636
107,1,0.8,0.0,-35.0,-1,1.0,1.910699999999963
108,1,0.8,0.0,-35.0,-1,1.0,0.13719999999995025
109,1,0.8,1.0,-35.0,-1,1.0,0.3182000000000471
110,1,0.8,0.25,-35.0,-1,1.0,0.11059999999997672
111,1,0.8,1.0,-35.0,-1,1.0,0.22600000000005593
112,1,0.8,0.0625,-35.0,-1,1.0,0.22479999999995925
113,1,0.8,1.0,-35.0,-1,1.0,0.22549999999995407
114,1,0.8,0.25,-35.0,-1,1.0,0.353999999999985
115,1,0.8,0.0625,-35.0,-1,1.0,0.19000000000005457
116,1,0.8,0.125,-35.0,-1,1.0,0.23730000000000473
117,1,0.8,0.0625,-35.0,1,0.0,0.3235000000000241
118,1,0.8,0.125,-35.0,-1,1.0,0.11739999999997508
119,1,0.8,1.0,-35.0,-1,1.0,0.04279999999999973
120,1,0.8,0.0625,-35.0,1,0.0,0.2863999999999578
121,1,0.8,0.25,-35.0,-1,1.0,0.2189999999999941
122,1,0.8,0.25,-35.0,-1,1.0,-0.04470000000003438
123,1,0.8,0.25,-35.0,-1,1.0,0.1742999999999597
124,1,0.8,0.25,-35.0,-1,1.0,0.22730000000001382
125,1,0.8,0.25,-35.0,-1,1.0,0.20990000000000464
126,1,0.8,0.0625,-35.0,-1,1.0,0.226600000000019
127,1,0.8,0.125,-35.0,-1,1.0,0.35520000000002483
128,1,0.8,0.25,-35.0,-1,1.0,0.2547999999999888
129,1,0.8,1.0,-35.0,-1,1.0,0.20920000000000982
130,1,0.8,0.0625,-35.0,-1,1.0,0.2731000000000563
131,1,0.8,0.125,35.0,1,1.0,0.3552999999999997
132,1,0.8,0.125,-35.0,-1,1.0,0.21519999999998163
133,1,0.8,0.25,-35.0,-1,1.0,0.21469999999999345
134,1,0.8,0.125,-35.0,-1,1.0,0.15119999999996026
135,1,0.8,0.0625,-35.0,-1,1.0,0.2337999999999738
136,1,0.8,1.0,-35.0,-1,1.0,0.2115000000000009
137,1,0.8,0.25,35.0,1,1.0,0.2219000000000051
138,1,0.8,0.0625,35.0,-1,0.0,0.3634999999999877
139,1,0.8,1.0,-35.0,-1,1.0,0.24310000000002674
140,1,0.8,0.0625,35.0,1,1.0,0.5131000000000085
141,1,0.8,0.125,-35.0,-1,1.0,0.2837000000000671
142,1,0.8,0.25,-35.0,-1,1.0,0.03880000000015116
143,1,0.8,0.0625,35.0,-1,0.0,0.24969999999996162
144,1,0.8,0.25,-35.0,-1,1.0,0.5112000000000307
145,1,0.8,0.125,35.0,1,1.0,0.28539999999998145
146,1,0.8,0.125,-35.0,-1,1.0,0.3128000000000384
147,1,0.8,0.0625,-35.0,-1,1.0,0.21889999999996235
148,1,0.8,0.0625,35.0,-1,0.0,0.24729999999999563
149,1,0.8,0.125,-35.0,-1,1.0,0.3543000000000802
150,1,0.2,0.25,35.0,1,1.0,0.2987000000000535
151,1,0.2,0.125,35.0,1,1.0,0.17719999999997071
152,1,0.2,1.0,-35.0,-1,1.0,0.22940000000005512
153,1,0.2,0.125,35.0,1,1.0,0.15440000000012333
154,1,0.2,1.0,35.0,-1,0.0,0.12879999999995562
155,1,0.2,0.0625,35.0,1,1.0,0.23419999999998709
156,1,0.2,0.25,-35.0,-1,1.0,0.08190000000001874
157,1,0.2,0.125,35.0,-1,0.0,3.2934000000000196
158,1,0.2,0.125,35.0,1,1.0,0.43820000000005166
159,1,0.2,1.0,35.0,1,1.0,0.20199999999999818
160,1,0.2,0.25,35.0,1,1.0,0.22929999999996653
161,1,0.2,0.125,-35.0,-1,1.0,0.5008000000000266
162,1,0.2,0.0625,35.0,1,1.0,0.33310000000005857
163,1,0.2,1.0,35.0,1,1.0,0.2300000000000182
164,1,0.2,0.25,35.0,1,1.0,0.27940000000000964
165,1,0.2,0.125,35.0,-1,0.0,0.40970000000015716
166,1,0.2,0.25,35.0,1,1.0,0.17060000000014952
167,1,0.2,0.25,35.0,1,1.0,0.13660000000004402
168,1,0.2,0.125,35.0,1,1.0,0.2923000000000684
169,1,0.2,0.125,-35.0,-1,1.0,0.3402000000000953
170,1,0.8,0.125,-35.0,1,0.0,0.12409999999999854
171,1,0.8,0.25,35.0,1,1.0,0.2481000000000222
172,1,0.8,0.0,35.0,1,1.0,0.16579999999999018
173,1,0.8,0.0625,35.0,1,1.0,0.3449000000000524
174,1,0.8,0.0625,35.0,1,1.0,0.46030000000007476
175,1,0.8,0.0,-35.0,-1,1.0,0.3824000000000751
176,1,0.8,1.0,-35.0,-1,1.0,0.1651000000000522
177,1,0.8,0.25,-35.0,-1,1.0,0.5547000000000253
178,1,0.8,0.0625,35.0,-1,0.0,0.1894000000000915
179,1,0.8,0.25,-35.0,-1,1.0,0.1832000000000562
180,1,0.8,0.125,-35.0,-1,1.0,0.3122000000000753
181,1,0.8,1.0,-35.0,-1,1.0,0.2117000000000644
182,1,0.8,0.0625,-35.0,-1,1.0,0.9624000000000024
1,2,0.5,0.125,-35.0,-1,1.0,0.13459999999999972
2,2,0.5,0.25,-35.0,-1,1.0,2.2329
3,2,0.5,0.25,35.0,1,1.0,0.16830000000000034
4,2,0.5,1.0,35.0,1,1.0,0.14419999999999789
5,2,0.5,0.0625,35.0,1,1.0,0.3375989999999991
6,2,0.5,0.125,35.0,1,1.0,0.5503999999999998
7,2,0.5,0.25,-35.0,-1,1.0,0.5305
8,2,0.5,0.25,35.0,1,1.0,0.17430000000000234
9,2,0.5,1.0,35.0,1,1.0,0.27720000000000056
10,2,0.5,1.0,35.0,1,1.0,0.26599999999999824
11,2,0.5,0.25,-35.0,-1,1.0,0.2015999999999991
12,2,0.5,0.0625,35.0,-1,0.0,1.0940999999999974
13,2,0.5,0.125,-35.0,-1,1.0,0.28310000000000457
14,2,0.5,0.125,-35.0,-1,1.0,0.18430000000000035
15,2,0.5,0.0625,35.0,1,1.0,0.227800000000002
16,2,0.5,0.0625,35.0,-1,0.0,0.256299999999996
17,2,0.5,1.0,-35.0,-1,1.0,0.20659999999999457
18,2,0.5,0.25,35.0,-1,0.0,0.12239999999999895
19,2,0.5,0.0625,35.0,-1,0.0,0.17389999999999617
20,2,0.5,0.25,-35.0,-1,1.0,0.2892999999999972
21,2,0.5,0.25,35.0,1,1.0,0.14700000000000557
22,2,0.5,1.0,-35.0,-1,1.0,0.5017990000000054
23,2,0.5,0.25,35.0,-1,0.0,0.16270000000000095
24,2,0.5,0.25,35.0,1,1.0,0.17480000000000473
25,2,0.5,0.125,35.0,-1,0.0,0.018900000000002137
26,2,0.5,1.0,35.0,1,1.0,0.15380000000001814
27,2,0.5,1.0,35.0,1,1.0,0.16089999999999804
28,2,0.5,0.25,-35.0,-1,1.0,0.5551000000000101
29,2,0.5,0.125,35.0,-1,0.0,0.16249999999999432
30,2,0.5,0.25,-35.0,-1,1.0,0.25140000000000384
31,2,0.5,0.25,-35.0,1,0.0,0.1875000000000142
32,2,0.5,0.0,35.0,1,1.0,0.057800000000014506
33,2,0.5,0.0625,-35.0,-1,1.0,0.5454000000000008
34,2,0.5,0.0,35.0,-1,0.0,0.12869999999999493
35,2,0.5,0.25,35.0,1,1.0,0.2038000000000011
36,2,0.5,0.125,35.0,1,1.0,0.24960000000000093
37,2,0.5,0.125,-35.0,1,0.0,0.15510000000001867
38,2,0.5,0.25,35.0,1,1.0,0.16340000000000998
39,2,0.5,0.25,35.0,1,1.0,0.23689999999999145
40,2,0.5,0.0625,35.0,-1,0.0,0.11000000000001364
41,2,0.5,1.0,-35.0,-1,1.0,0.2658999999999878
42,2,0.5,0.0625,35.0,1,1.0,0.22759999999999536
43,2,0.5,1.0,35.0,1,1.0,0.22570000000001755
44,2,0.5,0.125,-35.0,-1,1.0,0.22050000000001546
45,2,0.5,0.125,-35.0,1,0.0,0.16989999999998417
46,2,0.5,0.125,35.0,1,1.0,0.21829999999997085
47,2,0.5,0.0625,-35.0,1,0.0,0.13419999999999277
48,2,0.5,0.125,35.0,1,1.0,0.24789999999998713
49,2,0.5,0.25,35.0,1,1.0,0.20709999999999695
50,2,0.5,0.0625,-35.0,-1,1.0,0.7597999999999843
51,2,0.5,0.0,-35.0,1,0.0,0.33490000000000464
52,2,0.5,0.125,35.0,1,1.0,0.2295999999999765
53,2,0.5,0.0625,-35.0,-1,1.0,0.983399999999989
54,2,0.5,0.0,-35.0,-1,1.0,1.3491999999999962
55,2,0.5,0.0625,-35.0,1,0.0,0.18689999999998008
56,2,0.5,0.125,-35.0,-1,1.0,0.15039999999999054
57,2,0.5,0.25,-35.0,-1,1.0,0.49920000000000186
58,2,0.5,1.0,-35.0,-1,1.0,0.25319999999999254
59,2,0.5,1.0,-35.0,-1,1.0,0.32280000000000086
60,2,0.5,1.0,-35.0,-1,1.0,0.22479999999998768
61,2,0.5,0.25,35.0,-1,0.0,0.16969999999997754
62,2,0.5,0.25,-35.0,-1,1.0,0.5942999999999756
63,2,0.5,1.0,35.0,1,1.0,0.20300000000000296
64,2,0.5,0.25,35.0,1,1.0,0.2476000000000056
65,2,0.5,0.0625,35.0,1,1.0,0.20699999999999363
66,2,0.5,1.0,-35.0,-1,1.0,0.2318000000000211
67,2,0.5,0.25,-35.0,-1,1.0,0.2534999999999741
68,2,0.5,0.125,-35.0,-1,1.0,0.3072999999999695
69,2,0.5,0.125,-35.0,-1,1.0,0.15969999999998663
70,2,0.5,0.25,-35.0,-1,1.0,0.6071000000000311
71,2,0.5,0.0,35.0,-1,0.0,0.2038000000000011
72,2,0.5,0.0625,35.0,1,1.0,0.31639999999998736
73,2,0.5,0.0625,35.0,-1,0.0,0.03519999999997481
74,2,0.5,0.25,35.0,1,1.0,0.2078000000000202
75,2,0.5,0.0,-35.0,1,0.0,0.18370000000004438
76,2,0.5,0.0,35.0,-1,0.0,0.4268000000000143
77,2,0.5,0.25,35.0,-1,0.0,0.19299999999998363
78,2,0.5,1.0,-35.0,-1,1.0,0.21539999999998827
79,2,0.5,0.25,-35.0,-1,1.0,0.21949999999998226
80,2,0.5,0.25,35.0,-1,0.0,0.113900000000001
81,2,0.5,1.0,35.0,1,1.0,0.17799999999999727
82,2,0.5,0.25,-35.0,-1,1.0,0.1520999999999617
83,2,0.5,0.125,-35.0,-1,1.0,0.22859999999997171
84,2,0.5,0.0,-35.0,-1,1.0,0.2663000000000011
85,2,0.5,0.25,-35.0,-1,1.0,0.3106000000000222
86,2,0.5,1.0,-35.0,-1,1.0,0.3283999999999878
87,2,0.5,0.0625,-35.0,1,0.0,0.15879999999998518
88,2,0.5,0.125,35.0,1,1.0,0.3695999999999344
89,2,0.5,0.0,35.0,1,1.0,0.25469999999995707
90,2,0.5,0.125,35.0,1,1.0,0.6541000000000281
91,2,0.8,0.25,-35.0,1,0.0,0.16779999999999973
92,2,0.8,0.0625,-35.0,1,0.0,0.16529999999994516
93,2,0.8,0.0625,-35.0,-1,1.0,0.3180000000000405
94,2,0.8,0.125,-35.0,-1,1.0,0.22169999999999845
95,2,0.8,1.0,-35.0,-1,1.0,0.23179999999996426
96,2,0.8,0.0,-35.0,1,0.0,1.1462999999999965
97,2,0.8,0.25,35.0,1,1.0,0.19379999999995334
98,2,0.8,0.0625,-35.0,-1,1.0,0.22530000000000427
99,2,0.8,0.125,-35.0,1,0.0,0.37630000000001473
100,2,0.8,0.0,-35.0,-1,1.0,0.1419999999999959
101,2,0.8,0.125,-35.0,1,0.0,0.1418000000000461
102,2,0.8,0.125,-35.0,-1,1.0,0.2529999999999859
103,2,0.8,0.125,-35.0,-1,1.0,0.48570000000000846
104,2,0.8,0.25,-35.0,-1,1.0,0.22419999999993934
105,2,0.8,1.0,35.0,1,1.0,0.16919999999998936
106,2,0.8,0.0,-35.0,-1,1.0,2.082400000000007
107,2,0.8,1.0,35.0,1,1.0,0.17889999999999873
108,2,0.8,0.125,-35.0,-1,1.0,0.24459999999999127
109,2,0.8,0.25,-35.0,-1,1.0,0.22999999999996135
110,2,0.8,0.25,-35.0,1,0.0,0.10140000000001237
111,2,0.8,0.0625,-35.0,1,0.0,0.15330000000000155
112,2,0.8,0.0625,-35.0,-1,1.0,0.5316000000000258
113,2,0.8,0.0625,-35.0,-1,1.0,0.7296999999999798
114,2,0.8,1.0,-35.0,-1,1.0,0.49160000000000537
115,2,0.8,0.0625,35.0,1,1.0,0.950999999999965
116,2,0.8,0.0625,-35.0,-1,1.0,0.30140000000005784
117,2,0.8,0.0,35.0,-1,0.0,0.22710000000000719
118,2,0.8,1.0,-35.0,-1,1.0,0.32939999999996417
119,2,0.8,0.0,-35.0,-1,1.0,0.399599999999964
120,2,0.8,1.0,35.0,1,1.0,0.36000000000001364
121,2,0.8,0.125,-35.0,-1,1.0,0.6696999999999775
122,2,0.8,1.0,-35.0,-1,1.0,0.24549999999999272
123,2,0.8,0.125,35.0,1,1.0,0.7980000000000018
124,2,0.8,1.0,-35.0,-1,1.0,0.32179999999993925
125,2,0.8,1.0,-35.0,-1,1.0,0.120900000000006
126,2,0.8,0.0625,-35.0,-1,1.0,0.24559999999996762
127,2,0.8,0.125,-35.0,-1,1.0,0.3935999999999922
128,2,0.8,0.0625,35.0,1,1.0,0.7445999999999913
129,2,0.8,0.0,-35.0,-1,1.0,0.28059999999999263
130,2,0.8,1.0,-35.0,-1,1.0,0.2774000000000001
131,2,0.8,0.0625,-35.0,-1,1.0,0.23369999999994207
132,2,0.8,0.25,-35.0,-1,1.0,0.34140000000002146
133,2,0.8,1.0,35.0,1,1.0,0.20179999999999154
134,2,0.8,0.0625,-35.0,-1,1.0,0.49219999999996844
135,2,0.8,1.0,-35.0,-1,1.0,0.5755999999999517
136,2,0.8,0.125,35.0,-1,0.0,0.9384000000000015
137,2,0.8,1.0,-35.0,-1,1.0,0.24139999999994188
138,2,0.8,1.0,-35.0,-1,1.0,0.2189999999999941
139,2,0.8,0.125,35.0,1,1.0,1.815400000000011
140,2,0.8,0.125,-35.0,-1,1.0,0.34600000000000364
141,2,0.8,0.25,-35.0,-1,1.0,0.6110000000001037
142,2,0.8,0.0625,-35.0,-1,1.0,0.28499999999996817
143,2,0.8,0.0,-35.0,-1,1.0,1.503500000000031
144,2,0.8,0.0625,35.0,-1,0.0,0.6736999999999398
145,2,0.8,0.125,-35.0,-1,1.0,0.3017000000000962
146,2,0.8,0.0625,-35.0,1,0.0,0.4782000000000153
147,2,0.8,0.0625,-35.0,-1,1.0,0.4857000000000653
148,2,0.8,0.125,-35.0,-1,1.0,0.4555999999998903
149,2,0.8,1.0,-35.0,-1,1.0,0.21100000000001273
150,2,0.8,0.25,-35.0,-1,1.0,0.23879999999996926
151,2,0.8,0.0625,-35.0,-1,1.0,0.15620000000001255
152,2,0.8,0.125,-35.0,-1,1.0,0.163599999999974
153,2,0.8,1.0,-35.0,-1,1.0,0.23510000000010223
154,2,0.8,1.0,-35.0,-1,1.0,0.07479999999998199
155,2,0.8,0.0625,-35.0,-1,1.0,0.28100000000006276
156,2,0.8,0.125,-35.0,-1,1.0,0.02149999999994634
157,2,0.2,1.0,35.0,-1,0.0,0.16859999999996944
158,2,0.2,1.0,35.0,1,1.0,0.2259000000000242
159,2,0.2,0.125,35.0,-1,0.0,3.0237999999999374
160,2,0.2,0.25,-35.0,-1,1.0,0.34149999999999636
161,2,0.2,0.0625,35.0,-1,0.0,1.1837000000000444
162,2,0.2,0.0625,35.0,-1,0.0,0.06499999999994088
163,2,0.2,0.0,35.0,-1,0.0,0.6352000000000544
164,2,0.2,0.0625,35.0,-1,0.0,0.2979000000000269
165,2,0.2,0.0625,35.0,-1,0.0,0.1614999999999327
166,2,0.2,0.25,35.0,1,1.0,0.34180000000003474
167,2,0.2,0.25,35.0,1,1.0,0.17700000000002092
168,2,0.2,1.0,35.0,1,1.0,0.19799999999997908
169,2,0.2,0.25,35.0,1,1.0,0.35619999999994434
170,2,0.2,1.0,35.0,1,1.0,0.24280000000010205
171,2,0.2,1.0,-35.0,-1,1.0,0.33619999999996253
172,2,0.2,0.0625,35.0,-1,0.0,0.972699999999918
173,2,0.2,1.0,35.0,1,1.0,0.2141999999998916
174,2,0.2,0.0,35.0,-1,0.0,1.6202999999999292
175,2,0.2,0.125,35.0,1,1.0,1.696800000000053
176,2,0.2,0.125,35.0,1,1.0,0.2198999999999387
177,2,0.2,0.0625,35.0,1,1.0,0.33999999999991815
178,2,0.2,1.0,35.0,1,1.0,0.21939999999995052
179,2,0.2,0.0625,35.0,1,1.0,0.29710000000000036
180,2,0.2,0.0625,35.0,1,1.0,0.2438999999999396
181,2,0.2,1.0,35.0,1,1.0,0.16000000000008185
182,2,0.2,0.0,-35.0,1,0.0,1.1735000000001037
183,2,0.2,0.0625,35.0,1,1.0,0.30930000000000746
184,2,0.2,0.0625,35.0,1,1.0,1.4126999999999725
185,2,0.2,1.0,-35.0,-1,1.0,0.0665000000000191
186,2,0.2,0.25,35.0,1,1.0,0.3244999999999436
187,2,0.2,0.0,35.0,1,1.0,2.1020009999998592
188,2,0.8,1.0,-35.0,-1,1.0,0.27300100000002203
189,2,0.8,0.0625,-35.0,-1,1.0,0.6525009999999156
190,2,0.8,0.25,35.0,1,1.0,0.3446010000000115
191,2,0.8,0.25,-35.0,-1,1.0,0.2816010000000233
192,2,0.8,0.0,-35.0,-1,1.0,0.8257009999999809
193,2,0.8,0.0625,-35.0,-1,1.0,0.9798009999999522
194,2,0.8,0.0,-35.0,-1,1.0,0.1466010000000324
195,2,0.8,0.0625,35.0,1,1.0,0.24430099999995036
196,2,0.8,0.0625,35.0,1,1.0,0.271300999999994
197,2,0.8,1.0,-35.0,-1,1.0,0.4654009999999289
198,2,0.8,0.25,-35.0,-1,1.0,0.10570099999995364
199,2,0.8,0.125,-35.0,-1,1.0,0.4635010000000648
200,2,0.8,0.25,-35.0,-1,1.0,0.08470099999999547
201,2,0.8,0.125,-35.0,-1,1.0,0.2835010000000011
202,2,0.8,1.0,-35.0,-1,1.0,0.3445009999999229
203,2,0.8,0.0625,35.0,1,1.0,0.3682009999999991
204,2,0.8,0.0625,-35.0,-1,1.0,1.2157009999999673
205,2,0.8,0.0,-35.0,-1,1.0,0.06830100000001949
206,2,0.8,0.125,-35.0,-1,1.0,0.5194010000000162
207,2,0.8,0.0625,-35.0,1,0.0,0.0380009999998947
208,2,0.8,0.25,35.0,-1,0.0,0.2776010000000042
209,2,0.8,0.125,-35.0,-1,1.0,2.145100999999954
210,2,0.8,0.25,-35.0,-1,1.0,0.2357009999999491
211,2,0.8,1.0,-35.0,-1,1.0,0.31950099999994563
212,2,0.8,0.25,-35.0,-1,1.0,0.5672010000000682
213,2,0.8,0.125,-35.0,-1,1.0,0.27900099999988015
214,2,0.8,0.25,-35.0,-1,1.0,0.3480009999999538
215,2,0.8,1.0,-35.0,-1,1.0,0.319800999999984
216,2,0.8,0.0625,-35.0,-1,1.0,0.2792010000000573
217,2,0.8,0.0625,-35.0,-1,1.0,0.47800099999994927
218,2,0.8,0.0625,-35.0,-1,1.0,0.22820100000001275
219,2,0.8,1.0,-35.0,-1,1.0,0.3257010000000946
220,2,0.8,0.0625,-35.0,-1,1.0,0.3745010000000093
221,2,0.8,0.0,-35.0,-1,1.0,0.853601000000026
222,2,0.8,0.125,35.0,1,1.0,0.7377010000000155
223,2,0.8,1.0,-35.0,-1,1.0,0.05040099999996528
224,2,0.8,0.25,-35.0,-1,1.0,0.3278010000000222
225,2,0.8,0.125,-35.0,-1,1.0,0.05650100000002567
226,2,0.8,0.125,-35.0,-1,1.0,0.29530099999999493
227,2,0.8,0.0625,-35.0,-1,1.0,0.30120099999999184
228,2,0.8,0.25,-35.0,-1,1.0,0.18210099999998874
229,2,0.8,0.0625,-35.0,-1,1.0,0.18950099999995018
230,2,0.8,0.25,-35.0,-1,1.0,0.27670100000000275
231,2,0.8,0.25,-35.0,-1,1.0,0.3378010000000131
232,2,0.8,0.125,-35.0,-1,1.0,0.10750099999995655
233,2,0.8,1.0,-35.0,-1,1.0,0.27070099999991726
234,2,0.8,0.0625,-35.0,-1,1.0,0.5605009999999311
235,2,0.8,1.0,-35.0,-1,1.0,0.4432009999999309
236,2,0.8,0.25,-35.0,-1,1.0,0.31140099999993254
237,2,0.8,1.0,-35.0,-1,1.0,0.410301000000004
238,2,0.8,0.25,-35.0,-1,1.0,0.38990100000000893
239,2,0.8,0.0625,-35.0,-1,1.0,0.7124009999999998
240,2,0.8,0.0625,-35.0,-1,1.0,0.08750099999997474
241,2,0.8,0.0,-35.0,-1,1.0,0.6123010000000022
242,2,0.8,0.25,-35.0,-1,1.0,0.5347009999999273
243,2,0.8,0.0625,-35.0,-1,1.0,0.6072010000000319
244,2,0.8,1.0,-35.0,-1,1.0,0.12300099999993108
245,2,0.8,0.25,-35.0,-1,1.0,0.06580099999996492
246,2,0.8,0.125,-35.0,-1,1.0,0.3361009999999851
247,2,0.8,0.0625,-35.0,-1,1.0,0.23190099999999347
248,2,0.8,0.25,-35.0,-1,1.0,0.046801000000073145
249,2,0.8,0.0625,-35.0,1,0.0,0.08950100000004113
250,2,0.8,0.25,-35.0,-1,1.0,0.18570099999999456
251,2,0.2,0.0,35.0,-1,0.0,0.9751009999999951
252,2,0.2,0.125,35.0,1,1.0,0.28250100000002476
253,2,0.2,0.0625,35.0,-1,0.0,0.19770100000005186
254,2,0.2,0.125,35.0,1,1.0,0.34720099999992726
255,2,0.2,0.125,35.0,-1,0.0,0.3340009999999438
256,2,0.2,1.0,35.0,1,1.0,0.2611010000000533
257,2,0.2,0.25,35.0,1,1.0,0.22490100000004531
258,2,0.2,1.0,-35.0,-1,1.0,0.12820099999987633
259,2,0.2,0.25,35.0,1,1.0,0.28850099999999657
260,2,0.2,0.0625,35.0,1,1.0,0.3852009999999382
261,2,0.2,0.125,-35.0,1,0.0,0.0054009999998925196
262,2,0.2,1.0,35.0,1,1.0,0.018801000000166823
263,2,0.2,1.0,35.0,1,1.0,0.22560100000009697
264,2,0.2,0.25,35.0,1,1.0,1.9723010000002432
265,2,0.2,1.0,35.0,1,1.0,0.3157010000002174
266,2,0.2,0.125,35.0,-1,0.0,0.3624009999998634
267,2,0.2,0.125,35.0,1,1.0,0.09600099999988743
268,2,0.2,0.0625,35.0,1,1.0,0.2960010000001603
269,2,0.2,0.0,35.0,1,1.0,0.9161010000002534
270,2,0.2,0.125,35.0,1,1.0,0.313001000000213
271,2,0.2,1.0,-35.0,-1,1.0,0.29650100000026214
272,2,0.2,0.125,35.0,-1,0.0,0.17310100000008788
273,2,0.2,0.125,35.0,-1,0.0,0.19990100000018174
274,2,0.2,0.25,-35.0,-1,1.0,0.21990100000016355
275,2,0.2,0.25,35.0,-1,0.0,0.14680100000032326
276,2,0.2,0.25,-35.0,-1,1.0,0.25010100000008606
277,2,0.2,0.25,35.0,1,1.0,0.5235010000001239
278,2,0.2,0.0,35.0,-1,0.0,0.5304010000002108
279,2,0.2,1.0,35.0,1,1.0,0.18390100000010534
280,2,0.2,1.0,35.0,1,1.0,0.20400100000006205
281,2,0.2,0.0,35.0,-1,0.0,0.804100999999946
282,2,0.2,0.25,35.0,1,1.0,0.19070099999999002
283,2,0.2,0.125,35.0,1,1.0,0.5008010000001377
284,2,0.2,0.0625,35.0,1,1.0,0.34100100000000566
285,2,0.2,0.0,35.0,-1,0.0,0.49770100000023376
286,2,0.2,1.0,35.0,1,1.0,0.17780100000004495
287,2,0.2,1.0,-35.0,-1,1.0,0.23120100000028287
288,2,0.2,1.0,35.0,1,1.0,0.32480099999997947
289,2,0.2,0.25,35.0,1,1.0,0.7114010000000235
290,2,0.2,0.125,35.0,1,1.0,0.27490099999999984
291,2,0.2,0.125,35.0,1,1.0,0.20850100000006933
292,2,0.2,0.0625,35.0,1,1.0,0.7218010000003687
293,2,0.2,0.0625,35.0,1,1.0,0.5121010000000297
294,2,0.2,1.0,35.0,1,1.0,0.32880100000011225
295,2,0.2,0.0,35.0,1,1.0,1.1288010000000668
296,2,0.2,0.125,35.0,1,1.0,0.22230100000001585
297,2,0.2,0.125,35.0,1,1.0,0.4290009999999711
298,2,0.2,0.25,35.0,1,1.0,0.342401000000109
299,2,0.2,0.125,35.0,1,1.0,0.8858010000001286
300,2,0.2,0.25,35.0,1,1.0,0.27260100000012244
301,2,0.2,1.0,35.0,1,1.0,0.24600100000020575
302,2,0.2,1.0,35.0,1,1.0,0.27270100000009734
303,2,0.2,0.0,35.0,1,1.0,0.40950100000009115
304,2,0.2,0.0,35.0,1,1.0,0.12290099999995618
305,2,0.2,0.125,35.0,-1,0.0,0.1197010000003047
306,2,0.2,0.0,35.0,-1,0.0,0.27650100000005295
307,2,0.2,0.25,35.0,1,1.0,0.13680100000010498
308,2,0.2,1.0,35.0,-1,0.0,0.01350100000013299
309,2,0.2,0.0625,35.0,1,1.0,0.3235010000000784
310,2,0.2,0.125,35.0,1,1.0,0.3236010000000533
311,2,0.2,0.125,-35.0,-1,1.0,1.343800999999985
312,2,0.2,0.25,35.0,1,1.0,0.26050099999997656
313,2,0.2,0.125,35.0,1,1.0,0.4706010000002152
314,2,0.2,0.0,35.0,1,1.0,0.12740099999996346
315,2,0.8,0.0,-35.0,-1,1.0,0.2776010000000042
316,2,0.8,0.0625,-35.0,-1,1.0,0.3910009999999602
317,2,0.8,0.0,-35.0,-1,1.0,1.6143010000000686
318,2,0.8,0.0,-35.0,-1,1.0,1.4411009999998896
319,2,0.8,1.0,-35.0,-1,1.0,0.10740100000020902
320,2,0.8,0.125,35.0,-1,0.0,0.0780010000000857
321,2,0.8,0.125,35.0,1,1.0,0.3981010000002243
322,2,0.8,0.0625,-35.0,-1,1.0,0.26470100000005914
323,2,0.8,0.125,-35.0,-1,1.0,0.4448010000003251
324,2,0.8,1.0,-35.0,-1,1.0,0.21510100000023158
325,2,0.8,0.25,-35.0,-1,1.0,0.1386010000001079
326,2,0.8,0.25,-35.0,-1,1.0,0.22870100000000093
327,2,0.8,1.0,-35.0,-1,1.0,0.245401000000129
328,2,0.8,0.0,35.0,-1,0.0,0.8254009999998289
329,2,0.8,1.0,-35.0,-1,1.0,0.1624010000002727
330,2,0.8,0.125,-35.0,-1,1.0,0.42570100000011735
331,2,0.8,0.0625,-35.0,-1,1.0,0.179100999999946
332,2,0.8,0.0625,-35.0,-1,1.0,0.26590100000021266
333,2,0.8,0.0625,-35.0,-1,1.0,0.202701000000161
334,2,0.8,1.0,-35.0,-1,1.0,0.17930100000012317
335,2,0.8,0.125,-35.0,-1,1.0,0.21610100000020793
336,2,0.8,0.0625,-35.0,-1,1.0,0.37950099999989106
337,2,0.8,0.0625,-35.0,-1,1.0,0.09960100000012062
338,2,0.8,1.0,-35.0,-1,1.0,0.4231010000000879
339,2,0.8,0.25,-35.0,-1,1.0,0.2332010000000082
340,2,0.8,0.125,-35.0,-1,1.0,0.34650100000021666
341,2,0.8,0.0,-35.0,-1,1.0,0.1368009999998776
342,2,0.8,0.25,35.0,1,1.0,0.4368010000000595
343,2,0.8,0.0,-35.0,-1,1.0,0.1869010000000344
344,2,0.8,1.0,35.0,1,1.0,0.1403010000001359
345,2,0.8,0.125,-35.0,-1,1.0,0.2638000000001739
346,2,0.8,0.125,-35.0,-1,1.0,0.6073010000000068
347,2,0.8,0.0,35.0,-1,0.0,0.4040010000003349
348,2,0.8,1.0,-35.0,-1,1.0,1.0875010000002021
349,2,0.8,0.25,-35.0,1,0.0,0.0176010000000133
350,2,0.8,0.125,-35.0,-1,1.0,0.5244010000001254
351,2,0.8,0.25,-35.0,-1,1.0,0.4145009999999729
352,2,0.8,0.0625,-35.0,-1,1.0,2.584601000000248
353,2,0.8,0.125,-35.0,-1,1.0,0.24810100000013335
354,2,0.8,0.125,-35.0,-1,1.0,0.3516010000000733
355,2,0.8,0.125,-35.0,-1,1.0,0.37490100000013626
356,2,0.8,0.25,-35.0,-1,1.0,0.30500099999994745
357,2,0.8,1.0,-35.0,-1,1.0,0.23500100000001112
358,2,0.8,0.0625,-35.0,-1,1.0,0.3652010000002974
359,2,0.2,0.0625,35.0,1,1.0,0.4052010000000337
360,2,0.2,0.0625,-35.0,-1,1.0,1.0487010000001646
361,2,0.2,0.0,35.0,-1,0.0,0.23200100000008206
362,2,0.2,0.0625,35.0,1,1.0,0.22560100000009697
363,2,0.2,0.25,35.0,1,1.0,0.16240100000004531
364,2,0.2,0.0,-35.0,-1,1.0,0.3291010000002643
365,2,0.2,0.25,35.0,1,1.0,0.2592010000000755
366,2,0.2,0.25,35.0,1,1.0,0.28250100000013845
367,2,0.2,0.125,35.0,1,1.0,0.45600100000024213
368,2,0.2,0.125,35.0,-1,0.0,0.5027010000001155
369,2,0.2,0.0625,35.0,1,1.0,0.056201000000100976
370,2,0.2,0.0625,35.0,1,1.0,0.28620100000011917
371,2,0.2,0.125,35.0,1,1.0,0.2998010000001159
372,2,0.2,0.125,35.0,1,1.0,0.47640100000012353
373,2,0.2,0.125,35.0,1,1.0,0.35320100000012644
374,2,0.2,0.0625,-35.0,-1,1.0,0.6366010000001552
375,2,0.2,0.125,35.0,1,1.0,0.6901010000001406
376,2,0.2,0.0,35.0,-1,0.0,0.17020100000013372
377,2,0.2,0.25,35.0,1,1.0,0.32680100000015955
378,2,0.2,0.0625,35.0,1,1.0,0.8003009999999904
379,2,0.2,0.0625,35.0,-1,0.0,0.24050099999999475
380,2,0.8,0.125,-35.0,-1,1.0,0.39050100000031307
381,2,0.8,0.125,-35.0,-1,1.0,0.58720100000005
382,2,0.8,0.25,-35.0,-1,1.0,0.5375010000000202
383,2,0.8,1.0,35.0,1,1.0,0.08420100000012098
384,2,0.8,0.25,-35.0,-1,1.0,0.4202010000001337
385,2,0.8,0.25,-35.0,-1,1.0,0.3537010000002283
386,2,0.8,0.25,-35.0,-1,1.0,0.39740100000017264
387,2,0.8,0.0625,-35.0,1,0.0,0.3707010000000537
388,2,0.8,0.0,-35.0,-1,1.0,2.3471010000002934
389,2,0.8,0.0625,35.0,1,1.0,0.3275010000002112
390,2,0.8,0.0625,-35.0,-1,1.0,0.36140100000011444
391,2,0.8,0.125,-35.0,-1,1.0,0.3381010000000515
392,2,0.8,0.25,-35.0,-1,1.0,0.38100100000019665
393,2,0.8,0.125,-35.0,-1,1.0,0.28770099999997
394,2,0.8,0.0625,35.0,1,1.0,0.5279010000001563
395,2,0.8,0.25,-35.0,-1,1.0,0.6212010000001555
396,2,0.8,0.25,-35.0,-1,1.0,0.3418010000000322
397,2,0.8,0.125,-35.0,-1,1.0,0.2413010000000213
398,2,0.8,1.0,35.0,1,1.0,0.1952009999999973
399,2,0.8,0.125,-35.0,-1,1.0,0.23220100000025923
400,2,0.8,0.0625,-35.0,-1,1.0,0.2149010000000544
401,2,0.8,0.0625,-35.0,-1,1.0,0.2917010000001028
402,2,0.8,0.125,-35.0,-1,1.0,0.14860100000032617
403,2,0.8,0.25,-35.0,-1,1.0,0.27850100000023303
404,2,0.8,1.0,-35.0,-1,1.0,0.1624010000002727
405,2,0.8,0.25,-35.0,-1,1.0,0.2390010000001439
406,2,0.8,0.125,35.0,1,1.0,0.4331010000000788
407,2,0.8,0.125,-35.0,-1,1.0,0.3425010000000839
408,2,0.8,0.0625,-35.0,-1,1.0,1.1890010000001894
409,2,0.8,0.0625,-35.0,-1,1.0,0.26590100000021266
410,2,0.8,1.0,-35.0,-1,1.0,0.3462010000000646
411,2,0.8,0.0625,-35.0,-1,1.0,2.2133010000000013
412,2,0.8,0.25,-35.0,-1,1.0,0.526501000000053
413,2,0.8,0.0,-35.0,-1,1.0,0.5500010000000657
414,2,0.8,1.0,35.0,1,1.0,0.20020000000022264
415,2,0.8,1.0,35.0,1,1.0,0.28970100000037746
416,2,0.8,0.125,-35.0,-1,1.0,0.4166010000001279
417,2,0.8,0.125,-35.0,-1,1.0,0.6199010000000271
418,2,0.8,0.0625,-35.0,1,0.0,0.217000999999982
419,2,0.8,0.0625,-35.0,-1,1.0,0.3903010000003633
420,2,0.8,0.125,-35.0,-1,1.0,0.6405010000000857
421,2,0.8,0.25,-35.0,-1,1.0,0.32080100000030143
422,2,0.8,0.0625,-35.0,-1,1.0,0.8409010000000308
423,2,0.8,0.0625,-35.0,-1,1.0,0.4508009999999558
424,2,0.8,0.0,-35.0,1,0.0,0.3675010000001748
425,2,0.8,0.125,-35.0,-1,1.0,0.3241010000001552
426,2,0.8,0.125,-35.0,-1,1.0,0.3845010000000002
427,2,0.8,0.25,-35.0,-1,1.0,0.3981010000002243
428,2,0.8,1.0,-35.0,-1,1.0,0.2250010000002476
429,2,0.8,0.0,-35.0,-1,1.0,0.6512010000001283
430,2,0.8,1.0,-35.0,-1,1.0,0.5081010000001243
431,2,0.8,1.0,-35.0,1,0.0,0.1612009999998918
432,2,0.8,1.0,-35.0,-1,1.0,0.2914009999999507
433,2,0.8,0.0625,35.0,1,1.0,0.23840100000006714
434,2,0.8,0.25,-35.0,-1,1.0,0.14470100000016828
435,2,0.8,0.125,-35.0,-1,1.0,0.9783010000001013
436,2,0.8,0.25,-35.0,-1,1.0,0.3421010000001843
437,2,0.8,0.0625,-35.0,-1,1.0,0.4723010000002432
438,2,0.8,0.0625,35.0,1,1.0,0.5955010000002403
439,2,0.8,0.0,-35.0,-1,1.0,1.741901000000098
440,2,0.8,0.0625,-35.0,-1,1.0,0.4287010000002738
441,2,0.8,1.0,-35.0,-1,1.0,0.28880100000014863
442,2,0.8,0.125,-35.0,-1,1.0,0.33550100000002203
443,2,0.8,0.25,-35.0,-1,1.0,0.27570100000025377
444,2,0.8,0.0625,-35.0,-1,1.0,1.1492010000001756
445,2,0.8,0.0625,-35.0,1,0.0,0.40570099999990816
446,2,0.8,0.0,-35.0,-1,1.0,0.06250100000011116
447,2,0.8,1.0,-35.0,-1,1.0,0.4827010000001337
448,2,0.8,0.0625,-35.0,-1,1.0,0.4793010000000777
449,2,0.8,0.25,-35.0,-1,1.0,0.30670100000020284
450,2,0.2,0.125,35.0,1,1.0,0.3497010000000955
451,2,0.2,0.25,35.0,1,1.0,0.36310100000014245
452,2,0.2,0.0625,35.0,1,1.0,0.3399010000000544
453,2,0.2,0.0625,35.0,-1,0.0,0.5866010000002007
454,2,0.2,1.0,35.0,1,1.0,0.17010100000015882
455,2,0.2,0.0,35.0,-1,0.0,5.230701000000181
456,2,0.2,1.0,35.0,1,1.0,3.0273010000000795
457,2,0.2,0.25,35.0,1,1.0,3.6039009999999507
458,2,0.2,1.0,35.0,1,1.0,0.22440100000017082
459,2,0.2,0.0625,35.0,1,1.0,1.1044010000000526
460,2,0.2,0.0625,35.0,1,1.0,0.3346010000000206
461,2,0.2,0.0625,35.0,-1,0.0,0.6008010000000468
462,2,0.2,0.125,35.0,1,1.0,0.20820100000014463
463,2,0.2,0.0625,35.0,1,1.0,0.5683010000000195
464,2,0.2,0.125,35.0,1,1.0,0.16850099999987833
465,2,0.2,0.0625,35.0,1,1.0,0.20170100000018465
466,2,0.2,0.125,35.0,1,1.0,0.24190100000009807
467,2,0.2,0.125,35.0,1,1.0,0.23870099999999184
468,2,0.2,1.0,35.0,1,1.0,0.24210100000004786
469,2,0.2,0.0625,35.0,1,1.0,0.5721009999999751
470,2,0.2,0.25,-35.0,-1,1.0,0.34940099999994345
471,2,0.2,0.25,35.0,1,1.0,0.30860100000018065
472,2,0.2,0.0,35.0,1,1.0,0.14570099999991726
473,2,0.2,0.25,35.0,1,1.0,0.24220100000002276
474,2,0.2,0.0,35.0,-1,0.0,0.38560099999995145
475,2,0.8,0.25,-35.0,-1,1.0,0.3523009999998976
476,2,0.8,0.125,-35.0,-1,1.0,0.2957010000000082
477,2,0.8,0.0625,-35.0,-1,1.0,0.8923010000000886
478,2,0.8,0.25,-35.0,-1,1.0,0.24270100000012462
479,2,0.8,1.0,-35.0,-1,1.0,0.26270099999987906
480,2,0.8,0.25,-35.0,-1,1.0,0.6096010000003389
481,2,0.8,1.0,-35.0,-1,1.0,0.17600100000004204
482,2,0.8,0.125,-35.0,-1,1.0,0.3295010000001639
483,2,0.8,0.25,-35.0,-1,1.0,0.29650100000026214
484,2,0.8,0.0,-35.0,-1,1.0,0.503099999999904
485,2,0.8,0.125,-35.0,-1,1.0,0.3470009999998638
486,2,0.8,0.25,35.0,1,1.0,0.3206009999998969
487,2,0.8,0.25,35.0,-1,0.0,0.09650100000021666
488,2,0.8,0.0625,-35.0,-1,1.0,0.18700100000023667
489,2,0.8,0.25,35.0,1,1.0,0.3136010000000624
490,2,0.8,0.0625,-35.0,-1,1.0,0.1969010000000253
491,2,0.8,0.0625,-35.0,-1,1.0,0.32710100000008424
492,2,0.8,0.125,-35.0,-1,1.0,0.22050100000001294
493,2,0.8,0.125,-35.0,-1,1.0,0.3238010000000031
494,2,0.8,0.25,-35.0,-1,1.0,1.4505010000000311
495,2,0.8,0.0625,-35.0,1,0.0,0.15080100000022867
496,2,0.8,0.0625,-35.0,-1,1.0,0.33090100000026723
497,2,0.8,0.0625,-35.0,-1,1.0,0.3847010000001774
498,2,0.8,1.0,35.0,1,1.0,0.210901000000149
499,2,0.8,0.125,-35.0,-1,1.0,1.1945009999999456
500,2,0.8,1.0,-35.0,-1,1.0,0.2878009999999449
501,2,0.8,0.0625,-35.0,-1,1.0,0.2816009999999096
502,2,0.8,0.0625,35.0,1,1.0,1.1278010000000904
503,2,0.8,0.0625,-35.0,-1,1.0,0.2417009999999209
504,2,0.8,0.25,-35.0,-1,1.0,0.22160100000019156
505,2,0.8,0.0625,-35.0,-1,1.0,0.2984010000000126
506,2,0.8,1.0,-35.0,-1,1.0,0.3116010000001097
507,2,0.8,0.25,-35.0,-1,1.0,0.3084010000000035
508,2,0.8,0.25,-35.0,-1,1.0,0.2851010000001679
509,2,0.8,0.0625,-35.0,-1,1.0,0.19910100000015518
510,2,0.8,0.25,-35.0,-1,1.0,0.20850100000006933
511,2,0.8,1.0,-35.0,-1,1.0,0.1986010000002807
512,2,0.8,1.0,-35.0,-1,1.0,0.21870100000001003
513,2,0.8,0.0625,-35.0,-1,1.0,0.2289010000001781
514,2,0.8,0.0,35.0,1,1.0,0.8627010000000155
515,2,0.8,1.0,-35.0,-1,1.0,0.30890100000010534
516,2,0.8,0.25,35.0,1,1.0,0.3057009999999991
517,2,0.8,0.25,-35.0,-1,1.0,2.146000999999842
518,2,0.8,0.25,-35.0,-1,1.0,0.07320099999992635
519,2,0.8,0.0,-35.0,-1,1.0,2.269500999999991
520,2,0.8,0.0,35.0,-1,0.0,0.49010100000009515
521,2,0.8,1.0,35.0,1,1.0,4.043801000000258
522,2,0.8,1.0,-35.0,-1,1.0,0.18350100000020575
523,2,0.8,0.0625,-35.0,-1,1.0,4.200301000000081
524,2,0.8,0.125,-35.0,-1,1.0,0.7244010000001708
525,2,0.8,0.25,-35.0,-1,1.0,1.2572010000001228
526,2,0.8,0.25,-35.0,1,0.0,6.2541009999999915
527,2,0.8,0.25,-35.0,-1,1.0,0.21840100000008533
528,2,0.8,0.125,-35.0,-1,1.0,0.13450100000022758
529,2,0.8,0.0625,-35.0,1,0.0,2.071301000000176
530,2,0.8,0.0625,35.0,-1,0.0,0.17170100000021193
531,2,0.8,0.125,-35.0,-1,1.0,2.308401000000231
532,2,0.8,0.25,-35.0,-1,1.0,2.468800999999985
533,2,0.8,0.125,-35.0,-1,1.0,10.371901000000207
534,2,0.8,0.0625,-35.0,-1,1.0,11.982400999999754
535,2,0.8,0.0625,-35.0,-1,1.0,8.419400999999652
536,2,0.8,0.0,-35.0,-1,1.0,5.256500999999389
537,2,0.8,0.0625,-35.0,-1,1.0,10.56320099999948
538,2,0.8,0.125,-35.0,-1,1.0,10.624100999999882
539,2,0.8,1.0,-35.0,-1,1.0,0.24050100000022212
540,2,0.8,0.0625,-35.0,-1,1.0,8.501100999999835
541,2,0.8,0.0,-35.0,-1,1.0,1.0210010000000693
542,2,0.8,0.0625,-35.0,-1,1.0,0.381300999999894
543,2,0.8,0.25,35.0,1,1.0,0.3382010000000264
544,2,0.2,1.0,35.0,1,1.0,0.3251009999994494
545,2,0.2,0.0625,35.0,-1,0.0,8.401800999999978
546,2,0.2,0.125,35.0,1,1.0,0.37850099999968734
547,2,0.2,0.0,35.0,1,1.0,11.308800999999676
548,2,0.2,0.0625,35.0,-1,0.0,1.8530009999994945
549,2,0.2,0.0625,35.0,1,1.0,4.8757009999999354
550,2,0.2,0.0625,35.0,-1,0.0,18.92290099999991
551,2,0.2,0.0625,35.0,-1,0.0,42.33370100000002
552,2,0.2,0.0,-35.0,-1,1.0,6.928200999999717
553,2,0.2,0.125,-35.0,-1,1.0,0.32170099999984814
554,2,0.2,1.0,35.0,1,1.0,0.30800100000033126
555,2,0.2,0.25,35.0,1,1.0,10.184901000000082
556,2,0.2,0.125,35.0,1,1.0,0.2785009999997783
557,2,0.2,1.0,35.0,1,1.0,0.26870099999996455
558,2,0.2,0.0625,-35.0,-1,1.0,0.5456009999998059
559,2,0.2,0.0,35.0,-1,0.0,3.242001000000073
560,2,0.2,0.25,35.0,-1,0.0,4.765500999999858
561,2,0.2,0.125,35.0,-1,0.0,4.6960009999997965
562,2,0.2,0.25,35.0,1,1.0,0.2694010000000162
563,2,0.2,0.0,35.0,-1,0.0,0.3797010000002956
564,2,0.2,0.0,35.0,1,1.0,0.42640099999971426
565,2,0.2,0.0625,-35.0,1,0.0,7.586800999999468
566,2,0.2,0.125,35.0,1,1.0,16.747201000000132
567,2,0.2,0.125,35.0,1,1.0,8.064300999999887
568,2,0.2,0.125,-35.0,-1,1.0,0.26730099999986123
569,2,0.2,0.25,35.0,1,1.0,0.21460099999967497
570,2,0.2,1.0,35.0,1,1.0,0.23810099999946033
571,2,0.2,0.25,35.0,1,1.0,0.2609009999996488
572,2,0.2,0.125,35.0,1,1.0,6.315100999999686
573,2,0.2,0.125,35.0,1,1.0,0.48830099999986487
574,2,0.2,1.0,35.0,1,1.0,0.2415009999999711
575,2,0.2,1.0,35.0,1,1.0,0.23860100000001694
576,2,0.2,0.0,35.0,-1,0.0,1.2881009999996422
577,2,0.2,0.125,35.0,1,1.0,0.2822009999999864
578,2,0.2,0.25,35.0,-1,0.0,0.5588010000001304
579,2,0.2,0.0625,35.0,-1,0.0,16.918701000000056
580,2,0.2,1.0,35.0,1,1.0,0.2229010000000926
581,2,0.2,0.25,-35.0,-1,1.0,0.2093009999998685
582,2,0.2,0.0625,35.0,1,1.0,8.539300999999341
583,2,0.2,0.125,-35.0,1,0.0,5.212800999999672
584,2,0.2,1.0,-35.0,-1,1.0,0.4931010000000242
585,2,0.2,0.0625,35.0,-1,0.0,8.54640100000006
586,2,0.2,0.25,35.0,1,1.0,19.880501000000095
587,2,0.2,1.0,35.0,1,1.0,0.20740099999966333
588,2,0.2,0.0,35.0,-1,0.0,1.837601000000177
589,2,0.2,1.0,-35.0,-1,1.0,0.2643009999997048
590,2,0.2,0.25,35.0,1,1.0,2.271100999999817
591,2,0.2,0.0625,35.0,-1,0.0,9.985200999999961
592,2,0.2,1.0,-35.0,-1,1.0,0.17830099999991944
593,2,0.2,0.125,-35.0,-1,1.0,4.838400999999976
594,2,0.2,0.125,35.0,1,1.0,3.748601000000235
595,2,0.2,0.25,35.0,-1,0.0,0.3654010000004746
596,2,0.2,0.0,-35.0,-1,1.0,7.802200999999968
597,2,0.2,1.0,35.0,1,1.0,0.18900099999973463
598,2,0.2,0.125,35.0,-1,0.0,0.16940100000010716
599,2,0.2,0.25,35.0,-1,0.0,0.08310099999971499
600,2,0.2,0.25,35.0,1,1.0,0.2564009999996415
601,2,0.2,0.25,35.0,1,1.0,7.013300999999956
602,2,0.2,0.0,35.0,-1,0.0,15.899900999999772
603,2,0.2,0.25,35.0,1,1.0,8.24730099999988
604,2,0.2,0.0,-35.0,1,0.0,5.474200999999994
605,2,0.2,0.125,35.0,-1,0.0,0.7845010000000912
606,2,0.2,0.25,35.0,-1,0.0,9.462000999999873
607,2,0.2,0.25,35.0,1,1.0,9.145100999999613
608,2,0.2,1.0,-35.0,1,0.0,31.23890100000017
609,2,0.2,0.125,35.0,1,1.0,17.17310099999986
610,2,0.2,0.0625,35.0,-1,0.0,8.113800999999967
611,2,0.2,0.25,35.0,-1,0.0,18.693800999999894
612,2,0.2,0.125,35.0,-1,0.0,0.24120099999981903
613,2,0.2,0.0625,35.0,-1,0.0,0.17140100000005987
1,3,0.5,0.125,-35.0,-1,1.0,0.5050000000000001
2,3,0.5,0.125,35.0,1,1.0,0.41229999999999967
3,3,0.5,0.125,-35.0,-1,1.0,0.41910000000000025
4,3,0.5,0.125,35.0,1,1.0,0.3846999999999996
5,3,0.5,0.25,-35.0,-1,1.0,0.432599999999999
6,3,0.5,0.125,35.0,1,1.0,0.5996000000000006
7,3,0.5,1.0,-35.0,-1,1.0,0.39130000000000287
8,3,0.5,1.0,-35.0,-1,1.0,0.26670000000000016
9,3,0.5,0.25,35.0,1,1.0,0.19120000000000203
10,3,0.5,0.0625,-35.0,-1,1.0,0.42409999999999926
11,3,0.5,0.0625,35.0,-1,0.0,0.26200000000000045
12,3,0.5,0.25,35.0,1,1.0,0.20400000000000063
13,3,0.5,0.0625,-35.0,-1,1.0,5.254199999999997
14,3,0.5,0.125,35.0,1,1.0,0.42210000000000036
15,3,0.5,0.125,-35.0,-1,1.0,0.26379999999999626
16,3,0.5,0.25,35.0,1,1.0,0.39229999999999876
17,3,0.5,0.25,-35.0,-1,1.0,0.27779999999999916
18,3,0.5,0.25,-35.0,-1,1.0,0.28879999999999484
19,3,0.5,0.125,-35.0,-1,1.0,0.38230000000000075
20,3,0.5,0.0625,-35.0,1,0.0,0.45170000000000243
21,3,0.5,0.125,35.0,-1,0.0,0.14979999999999905
22,3,0.5,0.0625,-35.0,-1,1.0,0.22599999999999199
23,3,0.5,1.0,35.0,1,1.0,0.2757000000000005
24,3,0.5,0.25,-35.0,-1,1.0,0.7712999999999965
25,3,0.5,0.0625,35.0,1,1.0,0.3048000000000002
26,3,0.5,0.0625,-35.0,-1,1.0,0.4017999999999944
27,3,0.5,0.125,35.0,-1,0.0,0.28470000000000084
28,3,0.5,1.0,-35.0,-1,1.0,0.22110000000000696
29,3,0.5,0.125,-35.0,-1,1.0,1.6692000000000036
30,3,0.5,1.0,35.0,1,1.0,0.25509999999999877
31,3,0.5,0.25,35.0,1,1.0,0.3008999999999986
32,3,0.5,1.0,35.0,1,1.0,0.21649999999999636
33,3,0.5,0.0625,35.0,1,1.0,0.1443000000000012
34,3,0.5,0.25,35.0,1,1.0,0.34019999999998163
35,3,0.5,0.0,35.0,1,1.0,0.38120000000000687
36,3,0.5,0.125,-35.0,-1,1.0,0.256299999999996
37,3,0.5,0.25,-35.0,-1,1.0,0.33209999999999695
38,3,0.5,0.125,35.0,1,1.0,0.7957999999999998
39,3,0.5,0.125,35.0,1,1.0,0.8492999999999995
40,3,0.5,1.0,-35.0,-1,1.0,0.4462999999999937
41,3,0.5,0.125,35.0,1,1.0,0.7244000000000028
42,3,0.5,1.0,35.0,1,1.0,0.3185000000000002
43,3,0.5,0.125,-35.0,-1,1.0,0.24960000000000093
44,3,0.5,0.0625,35.0,-1,0.0,2.1621999999999986
45,3,0.5,1.0,-35.0,-1,1.0,0.24629999999999086
46,3,0.5,0.0625,-35.0,-1,1.0,3.0284000000000333
47,3,0.5,0.25,35.0,1,1.0,0.3207000000000164
48,3,0.5,0.25,-35.0,-1,1.0,0.25670000000002346
49,3,0.5,0.125,35.0,1,1.0,0.4262000000000228
50,3,0.5,0.0625,35.0,-1,0.0,0.24970000000001846
51,3,0.5,1.0,35.0,1,1.0,0.6341999999999928
52,3,0.5,0.125,35.0,1,1.0,7.289800000000014
53,3,0.5,0.125,35.0,1,1.0,0.29590000000001737
54,3,0.5,0.0625,35.0,1,1.0,1.608699999999999
55,3,0.5,0.0625,35.0,1,1.0,0.9199000000000126
56,3,0.5,0.25,35.0,1,1.0,0.400100000000009
57,3,0.5,0.0,-35.0,1,0.0,0.26370000000000005
58,3,0.5,1.0,-35.0,-1,1.0,0.3725000000000023
59,3,0.5,0.125,-35.0,-1,1.0,0.41550000000003706
60,3,0.5,0.125,-35.0,-1,1.0,0.5725000000000193
61,3,0.5,0.125,-35.0,-1,1.0,2.2510000000000048
62,3,0.5,0.25,35.0,1,1.0,0.2793000000000063
63,3,0.5,1.0,35.0,1,1.0,0.5541000000000054
64,3,0.5,0.125,35.0,1,1.0,0.36400000000003274
65,3,0.5,0.0625,-35.0,-1,1.0,0.27880000000001814
66,3,0.5,0.25,35.0,1,1.0,0.12800000000004275
67,3,0.5,0.25,-35.0,-1,1.0,0.3272000000000048
68,3,0.5,0.0,35.0,1,1.0,5.467400000000026
69,3,0.5,0.0,-35.0,-1,1.0,0.2458000000000311
70,3,0.5,0.125,-35.0,-1,1.0,0.4960000000000093
71,3,0.5,0.25,35.0,1,1.0,0.44640000000003965
72,3,0.5,1.0,-35.0,-1,1.0,0.39529999999999177
73,3,0.5,1.0,-35.0,-1,1.0,0.27360000000001605
74,3,0.5,0.0,-35.0,-1,1.0,0.2078000000000202
75,3,0.5,0.0625,35.0,-1,0.0,0.34310000000002105
76,3,0.5,0.0625,35.0,-1,0.0,0.193300000000022
77,3,0.5,1.0,35.0,1,1.0,0.3019000000000176
78,3,0.5,0.0625,35.0,1,1.0,0.5731000000000108
79,3,0.5,0.0625,-35.0,-1,1.0,0.31399999999999295
80,3,0.5,0.125,-35.0,-1,1.0,0.8122000000000185
81,3,0.5,0.125,35.0,1,1.0,0.4308989999999824
82,3,0.5,0.125,35.0,1,1.0,0.2686000000000206
83,3,0.5,0.25,35.0,1,1.0,0.24720000000007758
84,3,0.5,0.125,-35.0,-1,1.0,0.43720000000001846
85,3,0.5,0.25,35.0,1,1.0,0.35700000000002774
86,3,0.5,0.25,-35.0,-1,1.0,0.3242999999999938
87,3,0.5,0.125,-35.0,-1,1.0,0.5423999999999864
88,3,0.5,1.0,-35.0,-1,1.0,0.3994000000000142
89,3,0.5,0.125,35.0,1,1.0,0.2674999999999841
90,3,0.5,0.0625,35.0,1,1.0,0.7123000000000843
91,3,0.8,1.0,-35.0,-1,1.0,0.3583000000000425
92,3,0.8,0.0625,35.0,1,1.0,1.2848000000000184
93,3,0.8,0.125,-35.0,-1,1.0,0.3573000000000093
94,3,0.8,0.0625,-35.0,1,0.0,0.5187000000000239
95,3,0.8,0.0625,-35.0,1,0.0,0.3129999999999882
96,3,0.8,0.125,35.0,1,1.0,0.27930000000003474
97,3,0.8,1.0,-35.0,-1,1.0,0.43439999999998236
98,3,0.8,0.0625,35.0,1,1.0,1.11160000000001
99,3,0.8,0.25,-35.0,-1,1.0,0.29179999999996653
100,3,0.8,0.0,-35.0,-1,1.0,0.33449999999999136
101,3,0.8,0.0,35.0,-1,0.0,0.33300000000002683
102,3,0.8,1.0,-35.0,-1,1.0,0.25750000000005
103,3,0.8,0.25,-35.0,-1,1.0,0.18889999999998963
104,3,0.8,0.25,35.0,1,1.0,0.43880000000001473
105,3,0.8,0.0,-35.0,-1,1.0,0.22840000000002192
106,3,0.8,0.125,35.0,-1,0.0,0.171100000000024
107,3,0.8,0.0,-35.0,-1,1.0,0.14870000000007622
108,3,0.8,0.0625,-35.0,-1,1.0,0.2732000000000312
109,3,0.8,0.125,35.0,1,1.0,0.22739999999998872
110,3,0.8,1.0,-35.0,-1,1.0,0.26289999999994507
111,3,0.8,0.25,-35.0,-1,1.0,0.7450999999999794
112,3,0.8,0.0625,35.0,1,1.0,0.25689999999997326
113,3,0.8,0.25,35.0,1,1.0,0.3789000000000442
114,3,0.8,0.125,-35.0,-1,1.0,0.09390000000001919
115,3,0.8,0.25,35.0,1,1.0,0.28019999999997935
116,3,0.8,1.0,-35.0,-1,1.0,0.3344000000000733
117,3,0.8,0.0625,-35.0,-1,1.0,0.2902000000000271
118,3,0.8,0.0625,-35.0,-1,1.0,0.3293000000000461
119,3,0.8,0.125,-35.0,-1,1.0,0.39380000000005566
120,3,0.8,1.0,-35.0,-1,1.0,0.3446999999999889
121,3,0.8,0.25,-35.0,-1,1.0,0.27820000000002665
122,3,0.8,1.0,-35.0,-1,1.0,0.22289999999998145
123,3,0.8,0.0625,-35.0,-1,1.0,0.5954000000000406
124,3,0.8,1.0,-35.0,-1,1.0,0.20750000000003865
125,3,0.8,0.125,-35.0,-1,1.0,0.2564000000000419
126,3,0.8,0.125,-35.0,-1,1.0,0.2670999999999708
127,3,0.8,0.25,-35.0,-1,1.0,0.28419999999999845
128,3,0.8,0.0625,-35.0,-1,1.0,0.9987999999999602
129,3,0.8,0.25,-35.0,-1,1.0,0.23750000000001137
130,3,0.8,1.0,35.0,1,1.0,0.1935999999999467
131,3,0.8,0.25,-35.0,-1,1.0,0.3147999999999911
132,3,0.8,0.0625,-35.0,-1,1.0,0.6302000000000021
133,3,0.8,0.0625,-35.0,-1,1.0,0.29230000000001155
134,3,0.8,0.25,35.0,-1,0.0,0.193300000000022
135,3,0.8,1.0,-35.0,-1,1.0,0.20539999999999736
136,3,0.8,0.0625,-35.0,-1,1.0,0.2481000000000222
137,3,0.8,0.0625,35.0,-1,0.0,0.2198000000000775
138,3,0.8,1.0,-35.0,-1,1.0,0.21210000000002083
139,3,0.8,0.25,-35.0,-1,1.0,0.1903000000000361
140,3,0.8,0.25,-35.0,-1,1.0,0.9826999999999657
141,3,0.8,0.0625,-35.0,-1,1.0,1.4208000000000425
142,3,0.8,0.0625,35.0,1,1.0,0.29189999999999827
143,3,0.8,0.25,-35.0,-1,1.0,0.2680000000000291
144,3,0.8,1.0,-35.0,-1,1.0,0.21120000000001937
145,3,0.8,0.25,-35.0,-1,1.0,0.35240000000004557
146,3,0.8,0.0,-35.0,-1,1.0,0.7484999999999786
147,3,0.8,0.0625,-35.0,1,0.0,0.49869999999998527
148,3,0.8,0.125,-35.0,-1,1.0,0.22919999999999163
149,3,0.8,0.0625,-35.0,-1,1.0,0.15559999999999263
150,3,0.8,0.25,-35.0,-1,1.0,0.287900000000036
151,3,0.8,1.0,-35.0,-1,1.0,0.23650000000003502
152,3,0.8,0.25,-35.0,-1,1.0,0.2898999999999887
153,3,0.8,1.0,35.0,1,1.0,0.25590000000005375
154,3,0.8,0.25,35.0,1,1.0,0.28300000000001546
155,3,0.8,0.25,35.0,1,1.0,0.470100000000059
156,3,0.8,0.125,-35.0,-1,1.0,0.2577999999999747
157,3,0.8,0.125,-35.0,-1,1.0,0.30349999999998545
158,3,0.8,0.0,-35.0,-1,1.0,0.33370000000002165
159,3,0.8,0.25,35.0,1,1.0,0.5418999999999983
160,3,0.8,0.125,35.0,1,1.0,0.3412000000000148
161,3,0.8,0.25,-35.0,-1,1.0,0.2189000000000192
162,3,0.8,0.25,-35.0,1,0.0,0.15250000000003183
163,3,0.8,0.0,-35.0,-1,1.0,0.2381000000000313
164,3,0.8,0.0,-35.0,-1,1.0,0.46949999999998226
165,3,0.8,0.125,35.0,1,1.0,0.4870999999999981
166,3,0.8,0.0625,-35.0,-1,1.0,0.20359999999999445
167,3,0.2,1.0,35.0,1,1.0,0.24230000000005703
168,3,0.2,0.25,-35.0,-1,1.0,0.4514000000000351
169,3,0.2,0.25,35.0,1,1.0,0.2328000000000543
170,3,0.2,1.0,35.0,1,1.0,0.2643000000000484
171,3,0.2,0.0625,35.0,-1,0.0,3.057299999999998
172,3,0.2,0.25,35.0,1,1.0,0.48050000000000637
173,3,0.2,0.0625,35.0,-1,0.0,0.11180000000001655
174,3,0.2,0.25,35.0,1,1.0,0.24540000000001783
175,3,0.2,1.0,35.0,1,1.0,0.3810999999999467
176,3,0.2,0.25,35.0,1,1.0,0.5342999999999165
177,3,0.2,0.0625,35.0,1,1.0,0.2779999999999063
178,3,0.2,0.25,35.0,1,1.0,0.4195999999999458
179,3,0.2,0.0625,-35.0,-1,1.0,0.2479999999999336
180,3,0.2,0.125,35.0,1,1.0,0.906099999999924
181,3,0.2,0.125,-35.0,-1,1.0,0.41679999999985284
182,3,0.2,0.0625,35.0,1,1.0,0.29939999999999145
183,3,0.2,0.0625,35.0,1,1.0,0.5440999999999576
184,3,0.2,0.25,-35.0,-1,1.0,0.3301000000000158
185,3,0.2,0.25,-35.0,-1,1.0,0.31389999999987594
186,3,0.2,1.0,35.0,1,1.0,0.19600000000002638
187,3,0.2,0.25,35.0,1,1.0,0.8143999999999778
188,3,0.2,0.25,-35.0,-1,1.0,0.25270000000000437
189,3,0.2,0.125,35.0,1,1.0,0.2418999999999869
190,3,0.2,0.0625,-35.0,-1,1.0,0.3272999999999229
191,3,0.2,0.25,35.0,1,1.0,0.5218999999999596
192,3,0.2,0.0,35.0,1,1.0,0.2720999999999094
193,3,0.2,0.0,35.0,-1,0.0,3.84719999999993
194,3,0.2,0.125,-35.0,-1,1.0,0.5770999999999731
195,3,0.2,0.25,35.0,1,1.0,0.22730000000001382
196,3,0.2,0.0625,35.0,-1,0.0,0.26719999999988886
197,3,0.2,0.25,35.0,1,1.0,0.25139999999998963
198,3,0.2,0.125,35.0,1,1.0,0.5167000000000144
199,3,0.2,0.0,35.0,-1,0.0,0.12830000000008113
200,3,0.2,0.125,35.0,1,1.0,0.26559999999994943
201,3,0.2,1.0,35.0,1,1.0,0.209699999999998
202,3,0.2,1.0,35.0,1,1.0,0.23090000000001965
203,3,0.2,0.0625,35.0,-1,0.0,3.7438999999999396
204,3,0.2,0.25,35.0,1,1.0,0.26109999999994216
205,3,0.2,0.0625,-35.0,-1,1.0,0.8606999999999516
206,3,0.2,0.125,35.0,-1,0.0,4.162199999999984
207,3,0.2,0.125,35.0,1,1.0,0.1811999999999898
208,3,0.2,0.0625,35.0,-1,0.0,4.165700000000015
209,3,0.2,1.0,35.0,1,1.0,0.16099999999994452
210,3,0.2,0.25,-35.0,-1,1.0,0.4315000000000282
211,3,0.2,0.125,35.0,1,1.0,0.2964000000000624
212,3,0.2,0.0,35.0,-1,0.0,4.732499999999959
213,3,0.2,0.25,35.0,1,1.0,0.19069999999999254
214,3,0.2,1.0,35.0,1,1.0,0.21680000000003474
215,3,0.2,0.25,35.0,1,1.0,1.7171999999999343
216,3,0.2,0.25,35.0,1,1.0,0.5072999999999865
217,3,0.2,0.125,35.0,1,1.0,0.5190999999999804
218,3,0.2,0.0,35.0,-1,0.0,6.109299999999962
219,3,0.2,1.0,35.0,1,1.0,0.3273999999998978
220,3,0.2,0.0625,35.0,1,1.0,1.227899999999977
221,3,0.2,0.25,-35.0,-1,1.0,0.3330999999999449
222,3,0.2,0.25,35.0,1,1.0,0.3190999999999349
223,3,0.2,0.0,35.0,-1,0.0,5.26319999999987
224,3,0.2,0.0625,35.0,1,1.0,0.5888999999999669
225,3,0.2,0.0625,35.0,1,1.0,0.5421000000000049
226,3,0.2,1.0,-35.0,-1,1.0,0.37409999999999854
227,3,0.2,1.0,35.0,1,1.0,0.26099999999996726
228,3,0.2,0.0,35.0,-1,0.0,4.224499999999921
229,3,0.2,0.125,-35.0,-1,1.0,0.7703000000000202
230,3,0.2,0.25,35.0,1,1.0,0.18279999999992924
231,3,0.2,1.0,35.0,1,1.0,0.4473999999999023
232,3,0.2,0.125,35.0,1,1.0,0.23849999999993088
233,3,0.2,0.0625,35.0,-1,0.0,6.461699999999951
234,3,0.2,1.0,35.0,1,1.0,0.22649999999987358
235,3,0.2,1.0,35.0,1,1.0,0.3783000000000811
236,3,0.2,0.25,-35.0,-1,1.0,0.4898000000000593
237,3,0.2,0.25,-35.0,-1,1.0,0.30139999999994416
238,3,0.2,1.0,35.0,1,1.0,0.4981999999998834
239,3,0.2,0.25,35.0,1,1.0,0.8695999999998776
240,3,0.2,1.0,35.0,1,1.0,0.23079999999993106
241,3,0.2,1.0,35.0,1,1.0,0.375699999999938
242,3,0.2,0.125,35.0,1,1.0,0.4797999999999547
243,3,0.2,0.125,-35.0,-1,1.0,0.33409999999992124
244,3,0.8,0.25,-35.0,-1,1.0,0.35219999999992524
245,3,0.8,0.125,-35.0,-1,1.0,0.8143999999998641
246,3,0.8,0.25,-35.0,-1,1.0,0.2889999999998736
247,3,0.8,0.0625,-35.0,-1,1.0,0.6871999999999616
248,3,0.8,0.125,-35.0,-1,1.0,0.2378999999999678
249,3,0.8,1.0,-35.0,-1,1.0,0.2520999999999276
250,3,0.8,0.0625,-35.0,-1,1.0,0.20619999999996708
251,3,0.8,0.125,-35.0,-1,1.0,0.2881999999999607
252,3,0.8,1.0,-35.0,-1,1.0,0.2801999999999225
253,3,0.8,0.125,-35.0,-1,1.0,0.3289999999999509
254,3,0.8,0.0625,-35.0,-1,1.0,0.3030999999998585
255,3,0.8,1.0,-35.0,-1,1.0,0.2120999999998503
256,3,0.8,0.125,-35.0,-1,1.0,0.20209999999997308
257,3,0.8,0.0625,-35.0,-1,1.0,0.2380000000000564
258,3,0.8,0.0625,35.0,-1,0.0,0.2176999999999225
259,3,0.8,0.0625,-35.0,-1,1.0,0.2778000000000702
260,3,0.8,0.0625,-35.0,1,0.0,0.19009999999991578
261,3,0.8,0.25,-35.0,-1,1.0,0.2601999999999407
262,3,0.8,0.0,-35.0,-1,1.0,0.20889999999997144
263,3,0.8,0.25,-35.0,-1,1.0,0.19649999999990087
264,3,0.8,0.0625,-35.0,-1,1.0,0.2016999999999598
265,3,0.8,0.0,-35.0,-1,1.0,0.1978999999998905
266,3,0.8,0.125,-35.0,-1,1.0,0.1591999999999416
267,3,0.8,0.0,-35.0,-1,1.0,0.16899999999998272
268,3,0.8,0.25,-35.0,-1,1.0,0.1874000000000251
269,3,0.8,0.25,-35.0,-1,1.0,0.30940000000009604
270,3,0.8,0.25,35.0,-1,0.0,0.17269999999996344
271,3,0.8,1.0,-35.0,-1,1.0,0.32999999999992724
272,3,0.8,0.0625,-35.0,-1,1.0,3.9005999999999403
273,3,0.8,0.0,-35.0,-1,1.0,0.17859999999996035
274,3,0.8,0.25,-35.0,-1,1.0,0.24579999999991742
275,3,0.8,1.0,-35.0,-1,1.0,0.19719999999995252
276,3,0.8,0.125,35.0,-1,0.0,0.2837000000000671
277,3,0.8,0.25,-35.0,-1,1.0,0.22739999999998872
278,3,0.8,0.125,-35.0,-1,1.0,0.25080000000002656
279,3,0.8,0.0625,-35.0,-1,1.0,0.2798999999999978
280,3,0.8,0.125,-35.0,-1,1.0,0.18619999999998527
281,3,0.8,1.0,-35.0,-1,1.0,0.2015999999999849
282,3,0.8,0.25,-35.0,-1,1.0,0.21519999999998163
283,3,0.8,0.125,-35.0,-1,1.0,0.3406999999999698
284,3,0.8,1.0,-35.0,-1,1.0,0.24750000000005912
285,3,0.8,0.25,-35.0,-1,1.0,0.2503000000000384
286,3,0.8,0.125,-35.0,-1,1.0,0.21649999999999636
287,3,0.8,0.25,-35.0,-1,1.0,0.2078000000000202
288,3,0.8,0.25,-35.0,-1,1.0,0.23929999999995744
289,3,0.8,1.0,-35.0,-1,1.0,0.22080000000005384
290,3,0.8,1.0,-35.0,-1,1.0,0.23129999999991924
291,3,0.8,0.125,-35.0,-1,1.0,0.2562000000000353
292,3,0.8,1.0,35.0,1,1.0,0.3221999999999525
293,3,0.8,0.125,-35.0,-1,1.0,0.39219999999988886
294,3,0.8,1.0,-35.0,-1,1.0,0.48739999999986594
295,3,0.8,0.0625,-35.0,-1,1.0,7.85310000000004
296,3,0.8,0.0625,-35.0,-1,1.0,0.16239999999993415
297,3,0.8,1.0,-35.0,-1,1.0,0.27359999999998763
298,3,0.8,0.0,-35.0,-1,1.0,0.4067000000000007
299,3,0.8,0.0625,-35.0,-1,1.0,0.6394000000000233
300,3,0.8,1.0,-35.0,-1,1.0,0.19139999999993051
301,3,0.8,0.0625,-35.0,-1,1.0,0.26400000000001
302,3,0.8,0.125,-35.0,-1,1.0,0.22460000000000946
303,3,0.8,0.125,-35.0,-1,1.0,0.2117999999999256
304,3,0.8,0.0625,-35.0,-1,1.0,0.27049999999997
305,3,0.8,1.0,35.0,1,1.0,0.3847999999999274
306,3,0.8,1.0,35.0,1,1.0,0.6363999999998668
307,3,0.8,0.25,-35.0,-1,1.0,0.2421999999999116
308,3,0.8,1.0,-35.0,-1,1.0,0.2296000000000049
309,3,0.8,0.0625,-35.0,-1,1.0,0.20289999999988595
310,3,0.8,1.0,-35.0,-1,1.0,0.24899999999990996
311,3,0.8,0.25,35.0,-1,0.0,0.47079999999994016
312,3,0.8,0.0625,-35.0,1,0.0,0.24779999999987012
313,3,0.8,0.0,-35.0,-1,1.0,6.247600000000034
314,3,0.8,0.0625,35.0,1,1.0,5.377099999999928
315,3,0.8,1.0,-35.0,-1,1.0,0.2664999999998372
316,3,0.8,0.125,-35.0,-1,1.0,5.158900000000017
317,3,0.8,0.0625,-35.0,-1,1.0,11.352699999999913
318,3,0.8,0.0625,35.0,-1,0.0,5.262399999999957
319,3,0.8,0.0,-35.0,-1,1.0,0.5440999999999576
320,3,0.8,0.0,-35.0,-1,1.0,0.23440000000005057
321,3,0.8,0.0,-35.0,-1,1.0,0.19129999999995562
322,3,0.8,0.25,-35.0,-1,1.0,9.64790000000005
323,3,0.8,0.125,-35.0,-1,1.0,10.31499999999994
324,3,0.8,1.0,-35.0,-1,1.0,0.5586000000002969
325,3,0.8,0.0,-35.0,-1,1.0,7.45230000000015
326,3,0.8,0.0625,-35.0,-1,1.0,1.6823000000001684
327,3,0.8,0.125,-35.0,-1,1.0,4.6163000000001375
328,3,0.8,0.125,-35.0,-1,1.0,0.22260000000005675
329,3,0.8,0.25,-35.0,-1,1.0,0.22630000000003747
330,3,0.8,0.0625,35.0,-1,0.0,0.2496000000001004
331,3,0.8,0.0,-35.0,-1,1.0,0.5067000000001372
332,3,0.2,0.0625,35.0,-1,0.0,4.9529
333,3,0.2,1.0,35.0,1,1.0,0.23640000000000327
334,3,0.2,1.0,35.0,1,1.0,0.2036990000001424
335,3,0.2,0.25,35.0,1,1.0,0.42020000000002256
336,3,0.2,0.125,-35.0,-1,1.0,9.294200000000046
337,3,0.2,1.0,35.0,1,1.0,0.18699999999989814
338,3,0.2,0.0625,-35.0,-1,1.0,0.4279999999998836
339,3,0.2,0.0625,35.0,-1,0.0,0.6905000000001564
340,3,0.2,0.125,35.0,1,1.0,1.1139000000002852
341,3,0.2,1.0,-35.0,-1,1.0,0.22820000000001528
342,3,0.2,0.25,-35.0,-1,1.0,0.2543000000000575
343,3,0.2,1.0,35.0,1,1.0,0.35799999999994725
344,3,0.2,0.25,35.0,-1,0.0,7.364800000000059
345,3,0.2,0.0625,35.0,-1,0.0,9.41780000000017
346,3,0.2,0.25,-35.0,-1,1.0,0.2887000000000626
347,3,0.2,0.0,35.0,-1,0.0,7.61180000000013
348,3,0.2,0.0,-35.0,-1,1.0,11.63940000000025
349,3,0.2,0.0625,35.0,1,1.0,0.8356000000001131
350,3,0.2,0.0625,-35.0,-1,1.0,0.3526999999999134
351,3,0.2,0.125,35.0,1,1.0,0.5125000000000455
352,3,0.2,0.0,35.0,-1,0.0,0.27919999999994616
353,3,0.2,0.25,35.0,1,1.0,6.0060000000000855
354,3,0.2,0.25,35.0,1,1.0,0.43020000000001346
355,3,0.2,1.0,35.0,1,1.0,0.27640000000019427
356,3,0.2,0.0625,-35.0,-1,1.0,12.720000000000027
357,3,0.2,0.125,35.0,1,1.0,0.1834999999998672
358,3,0.2,1.0,35.0,1,1.0,0.22759999999993852
359,3,0.2,0.0,35.0,-1,0.0,5.930200000000241
360,3,0.2,1.0,-35.0,-1,1.0,0.26739999999995234
361,3,0.2,1.0,35.0,1,1.0,0.3705999999999676
362,3,0.2,0.125,35.0,1,1.0,0.5140000000001237
363,3,0.2,0.0625,35.0,-1,0.0,12.797999000000118
364,3,0.2,1.0,-35.0,-1,1.0,0.2512000000001535
365,3,0.2,1.0,35.0,1,1.0,0.25520000000005894
366,3,0.2,1.0,35.0,1,1.0,0.2756000000001677
367,3,0.2,0.0625,35.0,-1,0.0,8.078500000000076
368,3,0.2,0.25,35.0,1,1.0,0.4154000000000906
369,3,0.2,0.0625,-35.0,1,0.0,0.3088000000000193
370,3,0.2,0.25,35.0,1,1.0,1.0658000000000811
371,3,0.2,1.0,35.0,1,1.0,0.27899999999999636
372,3,0.2,1.0,35.0,1,1.0,0.2821999999998752
373,3,0.2,0.0,35.0,-1,0.0,0.2320999999999458
374,3,0.2,0.125,35.0,1,1.0,0.37220000000002074
375,3,0.2,0.0,35.0,1,1.0,6.759399999999914
376,3,0.2,1.0,35.0,1,1.0,0.22590000000013788
377,3,0.2,0.125,-35.0,-1,1.0,0.36930000000029395
378,3,0.2,0.125,35.0,-1,0.0,3.432800000000043
379,3,0.2,0.0,35.0,-1,0.0,5.356300000000147
380,3,0.2,0.25,35.0,1,1.0,0.30310000000008586
381,3,0.2,0.0,35.0,-1,0.0,0.2900999999999385
382,3,0.2,0.0625,35.0,1,1.0,0.2402999999999338
383,3,0.2,0.125,35.0,1,1.0,0.2034000000001015
384,3,0.2,0.125,-35.0,1,0.0,0.27690000000006876
385,3,0.2,1.0,35.0,1,1.0,0.2937000000001717
386,3,0.2,1.0,35.0,1,1.0,0.16350000000011278
387,3,0.2,0.0625,35.0,1,1.0,5.137400000000071
388,3,0.2,1.0,35.0,1,1.0,0.1872000000000753
389,3,0.2,0.125,35.0,1,1.0,1.6542000000001735
390,3,0.8,0.25,-35.0,-1,1.0,0.310799999999972
391,3,0.8,1.0,-35.0,-1,1.0,0.3541000000002441
392,3,0.8,0.0,-35.0,-1,1.0,0.38100000000031287
393,3,0.8,0.0625,-35.0,-1,1.0,0.4778000000001157
394,3,0.8,1.0,-35.0,-1,1.0,0.36760000000003856
395,3,0.8,0.0,-35.0,-1,1.0,9.431499999999915
396,3,0.8,0.0625,35.0,-1,0.0,0.2949999999998454
397,3,0.8,0.125,-35.0,-1,1.0,0.43219999999996617
398,3,0.8,0.0,-35.0,-1,1.0,7.248300000000199
399,3,0.8,0.25,-35.0,-1,1.0,0.2218000000000302
400,3,0.8,0.0625,-35.0,-1,1.0,0.4154000000000906
401,3,0.8,0.0625,-35.0,-1,1.0,0.4155000000000655
402,3,0.8,0.25,-35.0,-1,1.0,0.24870000000009895
403,3,0.8,1.0,-35.0,-1,1.0,0.23900000000003274
404,3,0.8,0.25,-35.0,-1,1.0,0.25250000000005457
405,3,0.8,0.125,-35.0,-1,1.0,0.24309999999991305
406,3,0.8,0.0625,-35.0,-1,1.0,0.23569999999995161
407,3,0.8,0.0,-35.0,1,0.0,0.2357999999999265
408,3,0.8,1.0,-35.0,-1,1.0,0.21920000000000073
409,3,0.8,0.0625,35.0,-1,0.0,0.2459000000001197
410,3,0.8,0.25,-35.0,-1,1.0,0.2360999999998512
411,3,0.8,1.0,-35.0,-1,1.0,0.19660000000021682
412,3,0.8,0.0,35.0,-1,0.0,9.066800000000057
413,3,0.8,0.0625,35.0,-1,0.0,15.810400000000072
414,3,0.8,0.0625,-35.0,1,0.0,19.230399999999918
415,3,0.8,0.125,-35.0,-1,1.0,0.25749999999993634
416,3,0.8,0.0625,-35.0,-1,1.0,7.717799999999897
417,3,0.8,1.0,35.0,1,1.0,0.198399999999765
418,3,0.8,1.0,-35.0,-1,1.0,2.525300000000243
419,3,0.8,0.25,-35.0,-1,1.0,1.008299999999963
420,3,0.8,0.125,-35.0,-1,1.0,0.659099999999853
421,3,0.8,0.0,-35.0,-1,1.0,10.558399999999892
422,3,0.8,1.0,-35.0,-1,1.0,0.24870000000009895
423,3,0.8,1.0,35.0,1,1.0,0.21600000000012187
424,3,0.8,1.0,-35.0,-1,1.0,0.44270000000005894
425,3,0.2,0.25,35.0,-1,0.0,3.9090000000001055
426,3,0.2,0.25,35.0,1,1.0,2.336300000000165
427,3,0.2,0.0,35.0,1,1.0,7.689399999999978
428,3,0.2,0.125,35.0,1,1.0,0.5296999999998206
429,3,0.2,0.0625,-35.0,-1,1.0,8.130599999999959
430,3,0.2,1.0,-35.0,-1,1.0,0.21700000000009823
431,3,0.2,0.125,-35.0,-1,1.0,0.3106000000000222
432,3,0.2,0.125,35.0,1,1.0,0.3039009999999962
433,3,0.2,0.125,35.0,1,1.0,0.6769010000000435
434,3,0.2,0.125,35.0,1,1.0,0.28030100000000857
435,3,0.2,0.0625,35.0,1,1.0,0.1647010000001501
436,3,0.2,0.125,35.0,1,1.0,0.5043010000001686
437,3,0.2,1.0,35.0,1,1.0,0.17770100000007005
438,3,0.2,0.125,35.0,1,1.0,0.2106010000002243
439,3,0.2,0.0,35.0,1,1.0,10.694201000000021
440,3,0.2,0.25,35.0,1,1.0,0.465300999999954
441,3,0.2,0.0,35.0,-1,0.0,3.274901
442,3,0.2,0.25,35.0,1,1.0,3.1380010000002585
443,3,0.2,0.0,35.0,1,1.0,2.3150009999999384
444,3,0.2,1.0,35.0,1,1.0,0.2617010000001301
445,3,0.2,1.0,35.0,1,1.0,0.22860100000002603
446,3,0.2,0.0,35.0,1,1.0,0.2653009999999085
447,3,0.2,0.125,35.0,-1,0.0,6.741901000000098
448,3,0.2,1.0,35.0,1,1.0,0.25560100000029706
449,3,0.2,0.25,-35.0,-1,1.0,7.719501000000037
450,3,0.2,0.0625,35.0,-1,0.0,0.24650100000008024
451,3,0.2,0.25,35.0,1,1.0,0.6960010000000239
452,3,0.2,0.25,35.0,1,1.0,0.4129010000001472
453,3,0.2,0.25,-35.0,-1,1.0,0.3729009999999562
454,3,0.2,0.25,35.0,1,1.0,0.3132010000001628
455,3,0.2,0.0625,35.0,1,1.0,0.3663010000000213
456,3,0.2,0.25,35.0,1,1.0,0.263101000000006
457,3,0.2,0.0,35.0,-1,0.0,13.109701000000086
458,3,0.2,0.25,35.0,1,1.0,0.2902010000000246
459,3,0.2,1.0,35.0,1,1.0,0.18030100000009952
460,3,0.2,0.125,35.0,1,1.0,0.2903009999999995
461,3,0.2,1.0,35.0,1,1.0,0.2876009999999951
462,3,0.2,1.0,35.0,1,1.0,0.1604010000000926
463,3,0.2,1.0,35.0,1,1.0,0.29390100000023267
464,3,0.2,0.25,35.0,1,1.0,0.5978009999998903
465,3,0.8,0.125,-35.0,1,0.0,12.691301000000067
466,3,0.8,1.0,-35.0,-1,1.0,0.39770100000009734
467,3,0.8,0.25,-35.0,-1,1.0,0.5616009999998823
468,3,0.8,1.0,-35.0,-1,1.0,0.30480100000022503
469,3,0.8,0.25,-35.0,-1,1.0,0.2514009999999871
470,3,0.8,1.0,35.0,1,1.0,0.1952009999999973
471,3,0.8,0.125,-35.0,1,0.0,0.16160100000024613
472,3,0.8,1.0,-35.0,-1,1.0,0.2186010000002625
473,3,0.8,0.0625,-35.0,-1,1.0,15.501900999999862
474,3,0.8,0.0,35.0,1,1.0,3.2558010000000195
475,3,0.8,0.125,35.0,-1,0.0,6.706501000000117
476,3,0.8,0.125,-35.0,-1,1.0,15.712901000000102
477,3,0.8,0.0625,-35.0,-1,1.0,23.173401000000013
478,3,0.8,0.25,-35.0,1,0.0,2.5975009999999656
479,3,0.8,0.25,-35.0,-1,1.0,4.361401000000114
480,3,0.8,0.25,-35.0,1,0.0,0.33520100000009734
481,3,0.8,1.0,-35.0,-1,1.0,0.32510100000013153
482,3,0.8,1.0,-35.0,-1,1.0,5.178700999999819
483,3,0.8,0.0625,35.0,1,1.0,12.20870100000002
484,3,0.8,0.25,-35.0,-1,1.0,0.48900099999991653
485,3,0.8,0.0625,-35.0,-1,1.0,11.899001000000226
486,3,0.8,0.25,-35.0,-1,1.0,0.5894009999999525
487,3,0.8,0.25,35.0,1,1.0,0.6794010000000981
488,3,0.8,0.0,35.0,-1,0.0,0.3363010000000486
489,3,0.8,0.0,35.0,1,1.0,4.923101000000088
490,3,0.8,1.0,-35.0,1,0.0,5.5307010000001355
1,4,0.5,1.0,-35.0,-1,1.0,0.8744999999999998
2,4,0.5,0.0625,-35.0,-1,1.0,1.2345999999999995
3,4,0.5,0.0625,35.0,-1,0.0,0.12899999999999956
4,4,0.5,0.0625,-35.0,1,0.0,0.2956000000000003
5,4,0.5,0.125,35.0,1,1.0,0.6722999999999999
6,4,0.5,0.125,-35.0,-1,1.0,0.26229999999999976
7,4,0.5,0.125,-35.0,-1,1.0,0.21710000000000562
8,4,0.5,0.0625,35.0,1,1.0,0.5012000000000008
9,4,0.5,1.0,-35.0,-1,1.0,0.273100000000003
10,4,0.5,0.0,-35.0,-1,1.0,0.22760000000000247
11,4,0.5,0.125,35.0,1,1.0,0.26360000000000383
12,4,0.5,0.125,35.0,-1,0.0,0.20009999999999906
13,4,0.5,0.25,35.0,1,1.0,0.17849999999999966
14,4,0.5,1.0,35.0,1,1.0,0.15380000000000393
15,4,0.5,0.0625,35.0,-1,0.0,0.23550000000000182
16,4,0.5,1.0,35.0,1,1.0,0.2266000000000048
17,4,0.5,0.125,-35.0,-1,1.0,0.1933999999999969
18,4,0.5,1.0,-35.0,-1,1.0,0.2476000000000056
19,4,0.5,0.0625,35.0,-1,0.0,0.19660000000001077
20,4,0.5,0.125,-35.0,1,0.0,0.16329999999999956
21,4,0.5,0.25,35.0,1,1.0,0.28020000000000067
22,4,0.5,0.25,-35.0,-1,1.0,0.21510000000000673
23,4,0.5,0.25,-35.0,-1,1.0,0.18319999999998515
24,4,0.5,1.0,35.0,1,1.0,0.42680000000000007
25,4,0.5,0.125,35.0,-1,0.0,0.5044999999999931
26,4,0.5,0.25,-35.0,-1,1.0,0.1945999999999941
27,4,0.5,1.0,35.0,1,1.0,0.16219999999998436
28,4,0.5,0.25,35.0,-1,0.0,0.10110000000000241
29,4,0.5,0.0625,-35.0,-1,1.0,0.22109999999999275
30,4,0.5,0.125,-35.0,-1,1.0,0.3189999999999884
31,4,0.5,0.125,35.0,1,1.0,0.23159999999998604
32,4,0.5,0.25,-35.0,-1,1.0,0.23259999999999081
33,4,0.5,0.0625,35.0,1,1.0,1.4187999999999903
34,4,0.5,0.0625,-35.0,-1,1.0,0.23299999999998988
35,4,0.5,0.125,35.0,1,1.0,0.41669999999999163
36,4,0.5,1.0,35.0,1,1.0,0.27889999999999304
37,4,0.5,0.125,-35.0,-1,1.0,0.46510000000000673
38,4,0.5,0.25,35.0,1,1.0,0.2931999999999988
39,4,0.5,0.125,35.0,-1,0.0,0.22050000000000125
40,4,0.5,0.25,35.0,1,1.0,0.2530999999999892
41,4,0.5,0.0625,35.0,1,1.0,2.3497999999999877
42,4,0.5,0.0625,35.0,1,1.0,2.0530999999999864
43,4,0.5,0.0,-35.0,1,0.0,0.271499999999989
44,4,0.5,0.125,35.0,-1,0.0,0.22059999999999036
45,4,0.5,0.25,35.0,1,1.0,0.18790000000001328
46,4,0.5,0.0625,35.0,1,1.0,1.8630999999999744
47,4,0.5,0.25,-35.0,-1,1.0,0.9569000000000187
48,4,0.5,0.25,-35.0,-1,1.0,0.3259999999999934
49,4,0.5,0.0625,-35.0,-1,1.0,2.0460999999999956
50,4,0.5,0.25,35.0,1,1.0,0.7779999999999916
51,4,0.5,0.125,35.0,-1,0.0,0.29630000000000223
52,4,0.5,1.0,-35.0,-1,1.0,0.21760000000000446
53,4,0.5,1.0,35.0,1,1.0,0.44060000000001764
54,4,0.5,0.125,-35.0,-1,1.0,0.155399999999986
55,4,0.5,0.25,35.0,1,1.0,0.6494999999999891
56,4,0.5,0.125,35.0,1,1.0,0.49329999999997654
57,4,0.5,0.0,35.0,1,1.0,0.4636000000000138
58,4,0.5,1.0,35.0,1,1.0,0.5186999999999671
59,4,0.5,0.0625,-35.0,-1,1.0,0.6817999999999813
60,4,0.5,0.25,35.0,1,1.0,0.7916999999999916
61,4,0.5,0.125,35.0,-1,0.0,2.257199999999983
62,4,0.5,1.0,-35.0,-1,1.0,0.22970000000000823
63,4,0.5,0.125,-35.0,-1,1.0,1.169099999999986
64,4,0.5,0.0625,35.0,1,1.0,0.4200999999999908
65,4,0.5,0.0625,-35.0,-1,1.0,0.3608999999999867
66,4,0.5,1.0,-35.0,-1,1.0,0.3873999999999853
67,4,0.5,0.0,35.0,-1,0.0,2.982699999999994
68,4,0.5,1.0,-35.0,-1,1.0,0.6387999999999749
69,4,0.5,0.0625,-35.0,-1,1.0,3.295500000000004
70,4,0.5,1.0,35.0,1,1.0,0.39099999999999113
71,4,0.5,0.0625,-35.0,-1,1.0,3.391699999999986
72,4,0.5,0.25,35.0,1,1.0,0.4508999999999901
73,4,0.5,1.0,-35.0,-1,1.0,0.549699999999973
74,4,0.5,0.125,-35.0,1,0.0,0.25449999999997885
75,4,0.5,0.0625,35.0,1,1.0,0.3644999999999925
76,4,0.5,0.25,35.0,1,1.0,0.4942999999999813
77,4,0.5,0.125,35.0,1,1.0,0.4573000000000036
78,4,0.5,0.0625,35.0,1,1.0,0.5221000000000231
79,4,0.5,0.0,-35.0,-1,1.0,4.065499999999986
80,4,0.5,0.0625,35.0,-1,0.0,0.2446000000000197
81,4,0.5,1.0,35.0,1,1.0,0.279700000000048
82,4,0.5,0.0,-35.0,1,0.0,2.473799999999983
83,4,0.5,0.0625,-35.0,-1,1.0,0.5398999999999887
84,4,0.5,0.0,35.0,-1,0.0,3.0183000000000675
85,4,0.5,0.0625,-35.0,-1,1.0,3.8564999999999827
86,4,0.5,0.125,35.0,-1,0.0,0.005699999999990268
87,4,0.5,0.0625,-35.0,1,0.0,0.2218000000000302
88,4,0.5,0.125,-35.0,-1,1.0,0.3119000000000369
89,4,0.5,0.0,35.0,-1,0.0,3.2450000000000045
90,4,0.5,0.0625,35.0,1,1.0,0.22340000000002647
91,4,0.2,0.0625,-35.0,-1,1.0,0.5678000000000338
92,4,0.2,0.25,35.0,1,1.0,0.1816000000000031
93,4,0.2,0.125,35.0,1,1.0,0.4841000000000122
94,4,0.2,0.0,35.0,-1,0.0,3.8138000000000147
95,4,0.2,0.0625,-35.0,-1,1.0,0.3496000000000663
96,4,0.2,0.25,35.0,1,1.0,0.5628000000000384
97,4,0.2,0.0625,-35.0,1,0.0,2.791500000000042
98,4,0.2,0.25,-35.0,-1,1.0,0.2259000000000242
99,4,0.2,0.0625,35.0,1,1.0,0.7044000000000779
100,4,0.2,0.125,35.0,1,1.0,3.395400000000052
101,4,0.2,0.0625,-35.0,-1,1.0,0.7346000000000004
102,4,0.2,1.0,35.0,1,1.0,0.21370000000007394
103,4,0.2,1.0,35.0,1,1.0,0.4936999999999898
104,4,0.2,0.25,-35.0,-1,1.0,0.3645000000000209
105,4,0.2,0.0625,-35.0,1,0.0,0.3926000000000158
106,4,0.2,0.0,35.0,-1,0.0,0.48759999999998627
107,4,0.2,0.0625,-35.0,-1,1.0,0.27770000000003847
108,4,0.2,0.25,35.0,1,1.0,0.446200000000033
109,4,0.2,0.125,-35.0,-1,1.0,0.2935000000000514
110,4,0.2,0.0,35.0,-1,0.0,0.3723000000000525
111,4,0.2,0.0,35.0,1,1.0,0.20639999999997372
112,4,0.2,1.0,35.0,1,1.0,0.307200000000023
113,4,0.2,0.25,35.0,1,1.0,0.6054000000000315
114,4,0.2,1.0,-35.0,-1,1.0,0.3583000000000425
115,4,0.2,0.25,35.0,1,1.0,0.4601000000000681
116,4,0.2,0.125,35.0,1,1.0,0.47150000000004866
117,4,0.2,1.0,35.0,1,1.0,0.27490000000000236
118,4,0.2,0.125,35.0,1,1.0,0.4863000000000284
119,4,0.2,0.0,35.0,-1,0.0,3.271000000000015
120,4,0.2,0.125,35.0,1,1.0,0.2148000000000252
121,4,0.2,0.125,35.0,-1,0.0,4.093200000000024
122,4,0.2,0.0625,35.0,-1,0.0,0.5578000000000429
123,4,0.2,0.125,35.0,1,1.0,0.550200000000018
124,4,0.2,1.0,35.0,1,1.0,0.22600000000005593
125,4,0.2,0.0625,35.0,-1,0.0,5.787000000000035
126,4,0.2,0.25,35.0,1,1.0,0.23130000000003292
127,4,0.2,0.25,35.0,1,1.0,4.843000000000018
128,4,0.2,0.125,35.0,-1,0.0,4.028999999999996
129,4,0.2,0.0,35.0,-1,0.0,5.229499999999973
130,4,0.2,1.0,35.0,1,1.0,0.18680000000000518
131,4,0.8,0.25,-35.0,-1,1.0,0.32679999999999154
132,4,0.8,0.0625,-35.0,-1,1.0,0.6838999999999942
133,4,0.8,0.125,35.0,-1,0.0,3.7099000000000046
134,4,0.8,1.0,-35.0,-1,1.0,0.2919000000000551
135,4,0.8,0.125,-35.0,-1,1.0,0.2819000000000642
136,4,0.8,0.0625,-35.0,-1,1.0,0.3427000000000362
137,4,0.8,0.0625,-35.0,-1,1.0,0.7275000000000205
138,4,0.8,0.125,-35.0,-1,1.0,0.7835999999999785
139,4,0.8,1.0,-35.0,-1,1.0,0.3090000000000259
140,4,0.8,0.125,-35.0,-1,1.0,4.836400000000026
141,4,0.8,0.0625,-35.0,-1,1.0,1.5072000000000116
142,4,0.8,1.0,35.0,1,1.0,0.6035999999999717
143,4,0.8,0.0,-35.0,-1,1.0,6.427999999999997
144,4,0.8,0.0625,-35.0,-1,1.0,7.4769000000000005
145,4,0.8,0.125,-35.0,-1,1.0,0.23950000000002092
146,4,0.8,0.125,-35.0,-1,1.0,0.3284999999999627
147,4,0.8,1.0,-35.0,-1,1.0,0.3084999999999809
148,4,0.8,0.125,-35.0,-1,1.0,0.39400000000000546
149,4,0.8,0.25,-35.0,-1,1.0,4.836999999999989
150,4,0.8,0.0,-35.0,-1,1.0,0.2961999999999989
151,4,0.8,0.125,-35.0,-1,1.0,0.3205999999998994
152,4,0.8,1.0,-35.0,-1,1.0,1.9186999999999443
153,4,0.8,0.25,35.0,1,1.0,0.40879999999992833
154,4,0.8,0.0625,35.0,1,1.0,6.421900000000051
155,4,0.8,1.0,-35.0,-1,1.0,0.28480000000001837
156,4,0.8,0.125,35.0,1,1.0,5.3788999999999305
157,4,0.8,0.125,-35.0,-1,1.0,0.45650000000000546
158,4,0.8,0.125,-35.0,-1,1.0,1.870499999999879
159,4,0.8,1.0,-35.0,-1,1.0,0.5695999999999231
160,4,0.8,0.0625,-35.0,1,0.0,9.883299999999963
161,4,0.8,0.125,-35.0,-1,1.0,2.5774000000000115
162,4,0.8,0.0,-35.0,-1,1.0,3.5756000000000085
163,4,0.8,0.0,-35.0,-1,1.0,4.343399999999974
164,4,0.8,0.25,-35.0,-1,1.0,0.3632999999999811
165,4,0.8,0.125,35.0,1,1.0,0.5309999999999491
166,4,0.8,0.0625,-35.0,-1,1.0,0.9098000000000184
167,4,0.8,0.0625,-35.0,-1,1.0,0.4719000000000051
168,4,0.8,0.125,-35.0,-1,1.0,1.103399999999965
169,4,0.8,0.0625,-35.0,-1,1.0,6.013700000000085
170,4,0.8,1.0,-35.0,-1,1.0,1.956700000000069
171,4,0.8,0.0,-35.0,-1,1.0,4.124699999999962
172,4,0.8,0.25,-35.0,-1,1.0,0.5896000000000186
173,4,0.8,0.0625,-35.0,-1,1.0,0.33939999999995507
174,4,0.8,0.0625,-35.0,-1,1.0,0.3222000000000662
175,4,0.8,0.25,-35.0,-1,1.0,0.9322999999999411
176,4,0.8,0.0625,-35.0,1,0.0,4.93889999999999
177,4,0.8,0.0625,-35.0,1,0.0,0.1754999999999427
178,4,0.8,1.0,-35.0,-1,1.0,0.3225999999999658
179,4,0.8,1.0,35.0,1,1.0,0.22939999999994143
180,4,0.8,0.0625,-35.0,-1,1.0,3.5174999999999272
181,4,0.8,0.125,-35.0,-1,1.0,0.47100000000000364
182,4,0.8,0.125,-35.0,-1,1.0,0.37629999999990105
183,4,0.8,0.0625,-35.0,-1,1.0,5.498699999999985
184,4,0.8,0.25,-35.0,-1,1.0,0.45889999999985776
185,4,0.8,0.125,-35.0,-1,1.0,0.6223999999999705
186,4,0.8,1.0,35.0,1,1.0,0.2658000000000129
187,4,0.8,0.125,-35.0,-1,1.0,0.3488999999999578
188,4,0.8,0.0,-35.0,-1,1.0,0.6825000000000045
189,4,0.8,0.0625,-35.0,-1,1.0,0.5716999999999643
190,4,0.8,0.0625,35.0,-1,0.0,3.650700000000029
191,4,0.8,1.0,-35.0,-1,1.0,0.3993000000000393
192,4,0.8,0.25,-35.0,-1,1.0,0.2678999999999405
193,4,0.8,0.0625,35.0,-1,0.0,2.510099999999966
194,4,0.8,0.0625,-35.0,1,0.0,0.5036999999999807
195,4,0.8,0.0,-35.0,-1,1.0,0.6189999999999145
196,4,0.8,0.125,-35.0,-1,1.0,0.19839999999999236
197,4,0.8,0.0,-35.0,-1,1.0,3.468399999999974
198,4,0.8,1.0,35.0,1,1.0,0.21069999999997435
199,4,0.2,0.0,35.0,1,1.0,0.6677999999999429
200,4,0.2,0.125,35.0,1,1.0,0.6839999999999691
201,4,0.2,0.0625,35.0,1,1.0,0.44650000000001455
202,4,0.2,1.0,35.0,1,1.0,0.30359999999996035
203,4,0.2,0.25,35.0,1,1.0,0.4496000000000322
204,4,0.2,0.0,35.0,1,1.0,0.6388000000000602
205,4,0.2,0.25,-35.0,-1,1.0,0.4008000000000038
206,4,0.2,0.125,35.0,1,1.0,3.4495999999999185
207,4,0.2,1.0,-35.0,1,0.0,0.6343999999999141
208,4,0.2,0.25,35.0,1,1.0,0.23109999999996944
209,4,0.2,0.125,35.0,1,1.0,0.4119999999999209
210,4,0.2,0.0,35.0,1,1.0,0.49519999999995434
211,4,0.2,0.0625,35.0,1,1.0,0.4516999999999598
212,4,0.2,0.125,35.0,1,1.0,0.35019999999997253
213,4,0.2,0.0,35.0,1,1.0,5.424499999999966
214,4,0.2,1.0,35.0,1,1.0,0.21289999999999054
215,4,0.2,1.0,35.0,1,1.0,0.21730000000002292
216,4,0.2,0.25,35.0,1,1.0,0.42029999999999745
217,4,0.2,1.0,35.0,1,1.0,0.22550000000001091
218,4,0.2,0.25,35.0,1,1.0,0.20299999999997453
219,4,0.2,0.25,35.0,1,1.0,0.2547999999998183
220,4,0.2,0.0625,35.0,1,1.0,0.27339999999992415
221,4,0.2,1.0,35.0,1,1.0,0.2582999999999629
222,4,0.2,0.0,35.0,1,1.0,10.392400000000066
223,4,0.2,0.25,35.0,1,1.0,0.426900000000046
224,4,0.2,0.125,-35.0,-1,1.0,5.591699999999946
225,4,0.2,1.0,35.0,1,1.0,0.18319999999994252
226,4,0.2,0.125,35.0,1,1.0,2.5982999999999947
227,4,0.2,0.25,-35.0,-1,1.0,0.6508000000000038
228,4,0.2,0.0625,35.0,-1,0.0,5.822599999999966
229,4,0.2,0.0625,35.0,1,1.0,0.18459999999993215
230,4,0.2,0.125,-35.0,-1,1.0,0.675200000000018
231,4,0.2,0.0625,35.0,1,1.0,0.584699999999998
232,4,0.2,0.0625,-35.0,-1,1.0,5.488500000000045
233,4,0.2,0.125,35.0,1,1.0,0.5535000000000991
234,4,0.2,0.0625,35.0,1,1.0,4.989800000000059
235,4,0.2,1.0,35.0,1,1.0,0.3805999999999585
236,4,0.2,0.125,-35.0,-1,1.0,6.523499999999899
237,4,0.2,0.25,35.0,1,1.0,0.18689999999992324
238,4,0.2,0.25,35.0,1,1.0,0.31009999999992033
239,4,0.2,0.0,35.0,-1,0.0,5.911099999999919
240,4,0.2,1.0,35.0,1,1.0,0.22069999999996526
241,4,0.2,0.25,35.0,-1,0.0,3.62519999999995
242,4,0.2,0.0625,-35.0,-1,1.0,2.984299999999962
243,4,0.2,0.0,-35.0,-1,1.0,9.560599999999909
244,4,0.2,0.25,35.0,1,1.0,0.20329999999989923
245,4,0.2,0.125,35.0,-1,0.0,0.5858999999999241
246,4,0.2,0.0625,35.0,1,1.0,0.70900000000006
247,4,0.2,1.0,-35.0,-1,1.0,0.5135999999999967
248,4,0.2,0.125,-35.0,-1,1.0,3.9537999999998874
249,4,0.2,1.0,35.0,1,1.0,0.24679999999989377
250,4,0.2,0.0625,35.0,1,1.0,3.1311999999999216
251,4,0.2,1.0,35.0,1,1.0,0.21469999999999345
252,4,0.8,1.0,-35.0,-1,1.0,1.2416999999999234
253,4,0.8,0.0625,35.0,1,1.0,5.731999999999971
254,4,0.8,0.25,-35.0,1,0.0,0.19849999999985357
255,4,0.8,1.0,-35.0,-1,1.0,0.4257999999999811
256,4,0.8,1.0,-35.0,-1,1.0,0.14869999999996253
257,4,0.8,0.0,-35.0,1,0.0,5.392000000000053
258,4,0.8,0.0625,-35.0,1,0.0,0.1791000000000622
259,4,0.8,0.125,-35.0,-1,1.0,0.5889999999999418
260,4,0.8,0.125,-35.0,-1,1.0,1.082300000000032
261,4,0.8,0.125,35.0,-1,0.0,3.662499999999909
262,4,0.8,0.125,-35.0,-1,1.0,7.352900000000091
263,4,0.8,0.125,-35.0,-1,1.0,0.5529999999998836
264,4,0.8,0.0,-35.0,1,0.0,0.3364999999998872
265,4,0.8,0.125,-35.0,-1,1.0,0.3631000000000313
266,4,0.8,1.0,-35.0,-1,1.0,0.37990000000013424
267,4,0.8,0.0625,-35.0,-1,1.0,5.60349999999994
268,4,0.8,0.25,-35.0,-1,1.0,4.273499999999785
269,4,0.8,0.125,-35.0,-1,1.0,0.623700000000099
270,4,0.8,0.0625,-35.0,-1,1.0,0.5645999999999276
271,4,0.8,1.0,-35.0,-1,1.0,0.3705999999999676
272,4,0.8,0.125,35.0,1,1.0,6.597199000000046
273,4,0.8,1.0,-35.0,-1,1.0,0.31770000000005894
274,4,0.8,0.0,35.0,1,1.0,3.371199999999817
275,4,0.8,1.0,-35.0,-1,1.0,0.28140000000007603
276,4,0.8,0.125,-35.0,-1,1.0,0.5885000000000673
277,4,0.8,0.125,-35.0,-1,1.0,0.8554999999998927
278,4,0.8,0.0625,-35.0,-1,1.0,5.258000000000038
279,4,0.8,0.0625,-35.0,-1,1.0,0.6621000000000095
280,4,0.8,0.25,35.0,1,1.0,1.0153999999999996
281,4,0.8,0.0625,-35.0,1,0.0,4.001999999999953
282,4,0.8,0.125,-35.0,-1,1.0,0.438499999999749
283,4,0.8,0.0,-35.0,-1,1.0,3.4157000000000153
284,4,0.8,0.0625,-35.0,-1,1.0,0.2522000000001299
285,4,0.8,1.0,35.0,1,1.0,0.25569999999970605
286,4,0.8,0.0625,-35.0,-1,1.0,1.0562000000002172
287,4,0.8,0.25,-35.0,-1,1.0,0.4595999999999094
288,4,0.8,0.0,-35.0,-1,1.0,4.296499999999924
289,4,0.8,0.0,-35.0,1,0.0,4.379500000000007
290,4,0.8,0.0625,-35.0,1,0.0,0.1633999999999105
291,4,0.8,0.25,35.0,1,1.0,0.22959999999989122
292,4,0.8,0.0625,-35.0,-1,1.0,0.6835000000000946
293,4,0.8,0.125,-35.0,-1,1.0,0.8204000000000633
294,4,0.8,0.0,-35.0,-1,1.0,0.3707999999999174
295,4,0.8,1.0,-35.0,-1,1.0,0.2800999999999476
296,4,0.8,0.25,-35.0,-1,1.0,0.2802999999998974
297,4,0.8,0.125,-35.0,-1,1.0,0.5470000000000255
298,4,0.8,0.125,35.0,1,1.0,0.5768999999997959
299,4,0.8,0.25,-35.0,-1,1.0,0.3170999999999822
300,4,0.8,0.25,35.0,1,1.0,0.5639999999998508
301,4,0.8,0.25,35.0,1,1.0,0.6106999999999516
302,4,0.8,0.25,-35.0,-1,1.0,0.5142000000000735
303,4,0.8,0.25,-35.0,-1,1.0,0.7575999999999112
304,4,0.8,0.0,35.0,1,1.0,0.37789999999995416
305,4,0.8,0.125,-35.0,-1,1.0,0.4580000000000837
306,4,0.8,0.125,-35.0,-1,1.0,0.5350000000000819
307,4,0.8,0.0625,-35.0,-1,1.0,0.7110999999999876
308,4,0.8,0.25,-35.0,-1,1.0,0.5446999999999207
309,4,0.8,1.0,35.0,1,1.0,0.22450000000003456
310,4,0.8,1.0,-35.0,-1,1.0,0.2545000000000073
311,4,0.8,0.0625,-35.0,-1,1.0,0.7754999999999654
312,4,0.8,1.0,-35.0,-1,1.0,0.4650000000001455
313,4,0.8,0.0,-35.0,-1,1.0,6.951699999999846
314,4,0.2,1.0,35.0,1,1.0,0.5283999999996922
315,4,0.2,0.25,35.0,1,1.0,3.8087000000000444
316,4,0.2,0.0625,-35.0,-1,1.0,0.32539999999994507
317,4,0.2,0.0625,-35.0,-1,1.0,5.118900000000167
318,4,0.2,1.0,35.0,1,1.0,0.27929999999992106
319,4,0.2,0.125,35.0,-1,0.0,3.3192999999998847
320,4,0.2,0.25,35.0,1,1.0,0.22949999999991633
321,4,0.2,0.0625,35.0,1,1.0,0.2898999999999887
322,4,0.2,1.0,35.0,1,1.0,0.1694999999999709
323,4,0.2,0.0625,35.0,1,1.0,3.726799999999912
324,4,0.2,0.0625,35.0,1,1.0,0.40659999999979846
325,4,0.2,0.125,35.0,1,1.0,0.3670999999999367
326,4,0.2,0.125,35.0,1,1.0,1.336699999999837
327,4,0.2,1.0,-35.0,-1,1.0,0.32379999999989195
328,4,0.2,0.25,35.0,1,1.0,4.4806999999998425
329,4,0.2,1.0,35.0,1,1.0,0.21780000000012478
330,4,0.2,0.25,35.0,1,1.0,7.440599999999904
331,4,0.2,1.0,35.0,1,1.0,0.2774000000001706
332,4,0.2,0.125,35.0,1,1.0,4.257699999999886
333,4,0.2,1.0,35.0,1,1.0,0.20440000000007785
334,4,0.2,0.0,35.0,1,1.0,2.2608999999999924
335,4,0.2,0.25,35.0,1,1.0,0.2513000000001284
336,4,0.2,1.0,35.0,1,1.0,0.22450000000003456
337,4,0.2,0.25,35.0,1,1.0,0.4056000000000495
338,4,0.2,0.125,35.0,1,1.0,0.6520000000000437
339,4,0.2,0.25,-35.0,-1,1.0,0.5416000000000167
340,4,0.2,0.125,-35.0,-1,1.0,0.6292999999998301
341,4,0.2,0.125,-35.0,-1,1.0,0.4415999999998803
342,4,0.2,0.0625,35.0,-1,0.0,4.904999999999973
343,4,0.2,0.25,35.0,1,1.0,0.06580000000008113
344,4,0.8,0.125,-35.0,-1,1.0,0.38609999999994216
345,4,0.8,0.25,-35.0,-1,1.0,0.5429999999998927
346,4,0.8,0.25,35.0,1,1.0,0.40980000000013206
347,4,0.8,1.0,-35.0,-1,1.0,0.3931999999999789
348,4,0.8,0.125,-35.0,-1,1.0,0.7766000000001441
349,4,0.8,0.0,-35.0,-1,1.0,0.336699999999837
350,4,0.8,0.25,35.0,1,1.0,0.4800999999999931
351,4,0.8,0.25,35.0,1,1.0,0.703499999999849
352,4,0.8,0.25,-35.0,-1,1.0,0.5835999999999331
353,4,0.8,0.0625,-35.0,-1,1.0,5.220399999999927
354,4,0.8,1.0,-35.0,-1,1.0,0.23720000000002983
355,4,0.8,0.0625,-35.0,-1,1.0,6.387299999999868
356,4,0.8,0.125,-35.0,-1,1.0,0.8308999999999287
357,4,0.8,0.0625,-35.0,-1,1.0,0.6210000000000946
358,4,0.8,0.125,-35.0,-1,1.0,0.31730000000015934
359,4,0.8,0.25,-35.0,-1,1.0,0.5144999999997708
360,4,0.8,0.0625,-35.0,-1,1.0,1.0978999999999814
361,4,0.8,0.0,-35.0,1,0.0,0.7481000000000222
362,4,0.8,1.0,-35.0,-1,1.0,0.37809999999990396
363,4,0.8,0.25,-35.0,-1,1.0,0.5682000000001608
364,4,0.8,0.25,-35.0,-1,1.0,0.5217999999999847
365,4,0.8,0.125,-35.0,-1,1.0,0.8217000000001917
366,4,0.8,0.25,-35.0,-1,1.0,0.4285000000002128
367,4,0.2,0.0,35.0,-1,0.0,0.305299999999761
368,4,0.2,0.0,35.0,-1,0.0,0.6386999999999716
369,4,0.2,0.125,35.0,1,1.0,0.16219999999975698
370,4,0.2,1.0,-35.0,-1,1.0,0.3753999999998996
371,4,0.2,0.125,35.0,1,1.0,0.2421999999999116
372,4,0.2,0.0625,35.0,1,1.0,0.5055999999999585
373,4,0.2,0.25,35.0,1,1.0,0.7324000000000979
374,4,0.2,1.0,-35.0,-1,1.0,0.4624999999998636
375,4,0.2,1.0,35.0,1,1.0,0.23250000000007276
376,4,0.2,0.25,-35.0,-1,1.0,0.6259000000000015
377,4,0.2,1.0,35.0,1,1.0,0.2460999999998421
378,4,0.2,1.0,35.0,1,1.0,0.2960990000001402
379,4,0.2,0.125,-35.0,-1,1.0,0.5162000000000262
380,4,0.2,0.125,-35.0,-1,1.0,0.8028999999999087
381,4,0.2,0.0625,35.0,1,1.0,0.7696000000000822
382,4,0.2,0.125,35.0,1,1.0,0.41649999999981446
383,4,0.2,0.125,35.0,1,1.0,0.47309999999993124
384,4,0.2,0.25,35.0,1,1.0,0.2499000000000251
385,4,0.2,0.125,-35.0,-1,1.0,7.966599999999971
386,4,0.2,0.25,-35.0,-1,1.0,0.4536000000000513
387,4,0.2,0.0,35.0,-1,0.0,0.5236999999999625
388,4,0.2,0.0,35.0,1,1.0,0.19039999999995416
389,4,0.2,0.0,35.0,-1,0.0,0.9037999999998192
390,4,0.2,0.125,35.0,1,1.0,0.2940000000000964
391,4,0.2,1.0,35.0,1,1.0,0.26739999999995234
392,4,0.2,0.125,35.0,1,1.0,0.30739999999991596
393,4,0.2,0.125,35.0,1,1.0,0.3774999999998272
394,4,0.2,1.0,35.0,1,1.0,0.23769999999990432
395,4,0.2,0.0625,-35.0,-1,1.0,1.5244000000002416
396,4,0.2,1.0,35.0,1,1.0,0.08449999999993452
397,4,0.2,1.0,35.0,1,1.0,0.2841999999998279
398,4,0.2,0.25,35.0,1,1.0,0.4773000000000138
399,4,0.2,1.0,35.0,1,1.0,0.22049999999990177
400,4,0.2,1.0,35.0,1,1.0,0.2642000000000735
401,4,0.2,0.25,35.0,1,1.0,6.687799999999925
402,4,0.2,0.125,35.0,1,1.0,0.7009999999997945
403,4,0.2,1.0,-35.0,-1,1.0,0.5444999999999709
404,4,0.2,0.125,35.0,1,1.0,0.20460000000002765
405,4,0.2,0.25,-35.0,-1,1.0,0.8614000000000033
406,4,0.2,1.0,35.0,1,1.0,0.2983999999999014
407,4,0.2,1.0,-35.0,-1,1.0,4.804800000000114
408,4,0.2,0.25,35.0,1,1.0,0.218199999999797
409,4,0.2,0.25,35.0,1,1.0,0.4050990000000638
410,4,0.2,0.125,35.0,1,1.0,0.33940000000006876
411,4,0.2,1.0,35.0,1,1.0,0.24510000000009313
412,4,0.2,1.0,35.0,1,1.0,0.18190000000004147
413,4,0.2,0.0625,35.0,1,1.0,0.41899999999986903
414,4,0.2,0.125,35.0,1,1.0,0.18909999999982574
415,4,0.2,0.0625,35.0,-1,0.0,5.322300000000041
416,4,0.2,0.125,-35.0,-1,1.0,0.3126999999999498
417,4,0.2,1.0,35.0,1,1.0,0.2197000000001026
418,4,0.2,1.0,35.0,1,1.0,0.20929999999998472
419,4,0.2,1.0,35.0,1,1.0,0.22329999999988104
420,4,0.2,1.0,35.0,1,1.0,0.21959999999990032
421,4,0.2,0.25,35.0,1,1.0,0.24279999999998836
422,4,0.2,0.0625,35.0,1,1.0,1.1362000000001444
423,4,0.2,0.0625,35.0,1,1.0,0.25309999999990396
424,4,0.2,1.0,35.0,1,1.0,0.24350000000004002
425,4,0.2,1.0,35.0,1,1.0,0.29970000000002983
426,4,0.2,0.25,35.0,1,1.0,0.4070000000001528
427,4,0.2,0.0625,35.0,1,1.0,4.809899999999743
428,4,0.2,1.0,35.0,1,1.0,0.22670000000016444
429,4,0.2,0.25,35.0,1,1.0,0.20049999999991996
430,4,0.2,0.0625,35.0,1,1.0,0.5001999999999498
431,4,0.2,0.0625,35.0,1,1.0,0.44020000000000437
432,4,0.2,0.0625,35.0,1,1.0,0.3704999999999927
433,4,0.2,0.25,-35.0,1,0.0,0.33750000000009095
434,4,0.2,0.25,35.0,1,1.0,0.29719999999997526
435,4,0.2,1.0,35.0,1,1.0,4.227699999999913
436,4,0.2,0.125,35.0,1,1.0,0.24080000000003565
437,4,0.2,1.0,35.0,1,1.0,0.20439999999985048
438,4,0.2,0.0,35.0,1,1.0,0.21460000000001855
439,4,0.2,0.0,35.0,1,1.0,0.3208999999999378
440,4,0.2,1.0,35.0,1,1.0,0.1750000000001819
441,4,0.2,0.0625,35.0,1,1.0,0.21119999999996253
442,4,0.2,1.0,-35.0,-1,1.0,0.6046000000001186
443,4,0.2,0.125,35.0,1,1.0,0.23789999999985412
444,4,0.2,0.0625,35.0,1,1.0,0.2479000000000724
445,4,0.2,1.0,-35.0,-1,1.0,0.6579999999999018
446,4,0.2,1.0,35.0,1,1.0,0.25179999999977554
447,4,0.2,1.0,35.0,1,1.0,0.21149999999988722
448,4,0.2,1.0,35.0,1,1.0,0.2054000000000542
449,4,0.2,0.25,-35.0,-1,1.0,0.582300000000032
450,4,0.2,0.125,35.0,1,1.0,0.6384999999997945
451,4,0.2,1.0,-35.0,-1,1.0,0.36199999999985266
452,4,0.8,0.25,-35.0,-1,1.0,0.7421999999999116
453,4,0.8,0.125,-35.0,-1,1.0,4.448599999999942
454,4,0.8,0.25,35.0,1,1.0,0.3829000000000633
455,4,0.8,0.0625,-35.0,-1,1.0,3.6425000000001546
456,4,0.8,0.25,-35.0,-1,1.0,0.4092000000000553
457,4,0.8,1.0,-35.0,-1,1.0,3.6758000000002085
458,4,0.8,1.0,-35.0,-1,1.0,0.4800000000000182
459,4,0.8,0.0625,35.0,1,1.0,0.34619999999995343
460,4,0.8,0.0625,-35.0,-1,1.0,0.5631000000000768
461,4,0.8,0.25,-35.0,-1,1.0,0.33960000000001855
462,4,0.8,1.0,-35.0,-1,1.0,0.2703000000001339
463,4,0.8,1.0,-35.0,-1,1.0,0.5498000000000047
464,4,0.8,0.25,35.0,1,1.0,0.25339999999982865
465,4,0.8,0.25,35.0,1,1.0,5.616800000000012
466,4,0.8,0.25,-35.0,-1,1.0,0.32730000000015025
467,4,0.8,0.0625,-35.0,-1,1.0,0.6042999999999665
468,4,0.8,1.0,-35.0,-1,1.0,0.39049999999997453
469,4,0.8,0.125,-35.0,-1,1.0,0.31379999999990105
470,4,0.8,0.25,-35.0,-1,1.0,0.9475999999999658
471,4,0.8,0.125,-35.0,-1,1.0,0.49729999999999563
472,4,0.8,0.0,-35.0,1,0.0,0.3243999999999687
473,4,0.8,0.25,-35.0,-1,1.0,0.3574999999998454
474,4,0.8,0.0625,-35.0,-1,1.0,4.671100000000024
475,4,0.8,0.0625,-35.0,-1,1.0,0.8813000000000102
476,4,0.8,0.25,35.0,1,1.0,0.3045999999999367
477,4,0.8,1.0,-35.0,-1,1.0,0.32789999999999964
478,4,0.8,1.0,35.0,1,1.0,5.518199999999979
479,4,0.8,1.0,-35.0,-1,1.0,5.258799999999837
480,4,0.8,0.0625,-35.0,-1,1.0,4.179299999999785
481,4,0.8,0.0625,35.0,1,1.0,5.001899999999978
482,4,0.8,0.25,-35.0,1,0.0,2.2955000000001746
483,4,0.8,0.0,-35.0,1,0.0,6.935699999999997
484,4,0.8,0.125,-35.0,-1,1.0,0.6859999999999218
485,4,0.8,0.0625,35.0,1,1.0,8.835900000000038
486,4,0.8,1.0,-35.0,-1,1.0,0.47649999999998727
487,4,0.8,0.25,-35.0,-1,1.0,0.42660000000000764
488,4,0.8,1.0,35.0,1,1.0,3.2868999999998323
489,4,0.8,1.0,-35.0,-1,1.0,2.8134999999999764
490,4,0.8,0.125,35.0,1,1.0,0.42089999999984684
491,4,0.8,0.0625,-35.0,1,0.0,5.017000000000053
492,4,0.8,0.0625,-35.0,1,0.0,6.877299999999877
493,4,0.8,0.125,-35.0,-1,1.0,0.6009999999998854
494,4,0.8,1.0,-35.0,-1,1.0,0.4512999999999465
495,4,0.8,0.125,-35.0,-1,1.0,0.3714999999999691
496,4,0.8,0.0625,-35.0,-1,1.0,0.657799999999952
497,4,0.8,0.25,-35.0,-1,1.0,0.40130000000021937
498,4,0.8,0.125,-35.0,-1,1.0,0.2880999999999858
499,4,0.8,1.0,-35.0,-1,1.0,0.40819999999985157
500,4,0.8,1.0,35.0,1,1.0,0.4515999999998712
501,4,0.8,1.0,-35.0,-1,1.0,0.491800000000012
1,5,0.5,0.0,-35.0,-1,1.0,0.2971999999999999
2,5,0.5,0.0,35.0,1,1.0,1.3886000000000003
3,5,0.5,0.125,-35.0,-1,1.0,0.2667999999999999
4,5,0.5,0.0,35.0,1,1.0,0.5094999999999992
5,5,0.5,1.0,-35.0,-1,1.0,0.2818999999999985
6,5,0.5,0.0625,-35.0,-1,1.0,0.49159999999999826
7,5,0.5,0.125,-35.0,-1,1.0,0.19640000000000057
8,5,0.5,1.0,35.0,1,1.0,0.1515999999999984
9,5,0.5,0.0625,-35.0,1,0.0,3.703900000000001
10,5,0.5,1.0,-35.0,-1,1.0,0.30230000000000246
11,5,0.5,0.25,-35.0,-1,1.0,0.3292999999999964
12,5,0.5,0.25,35.0,1,1.0,0.7728000000000037
13,5,0.5,0.0625,-35.0,-1,1.0,0.21880000000000166
14,5,0.5,0.0625,-35.0,-1,1.0,0.35369999999999635
15,5,0.5,0.125,35.0,1,1.0,0.5838000000000036
16,5,0.5,1.0,-35.0,-1,1.0,0.2501000000000033
17,5,0.5,0.125,35.0,1,1.0,0.5235999999999947
18,5,0.5,0.25,-35.0,-1,1.0,0.21050000000000324
19,5,0.5,0.25,-35.0,-1,1.0,0.2650000000000077
20,5,0.5,1.0,35.0,1,1.0,0.31619999999999493
21,5,0.5,0.0625,-35.0,-1,1.0,1.0936999999999983
22,5,0.5,0.125,35.0,-1,0.0,0.5230999999999852
23,5,0.5,1.0,-35.0,-1,1.0,0.29400000000001114
24,5,0.5,0.0,-35.0,-1,1.0,2.6869999999999976
25,5,0.5,0.25,-35.0,-1,1.0,0.16469999999998208
26,5,0.5,1.0,-35.0,-1,1.0,0.21590000000000487
27,5,0.5,0.125,-35.0,-1,1.0,0.3365000000000009
28,5,0.5,1.0,35.0,1,1.0,0.4072999999999922
29,5,0.5,0.25,35.0,-1,0.0,4.277499999999989
30,5,0.5,0.0,-35.0,-1,1.0,0.41909999999998604
31,5,0.5,0.0,35.0,-1,0.0,1.0959000000000003
32,5,0.5,0.0625,-35.0,-1,1.0,0.23409999999998377
33,5,0.5,0.0625,-35.0,-1,1.0,0.7443999999999988
34,5,0.5,1.0,-35.0,-1,1.0,0.2009999999999934
35,5,0.5,0.25,-35.0,-1,1.0,0.4176999999999822
36,5,0.5,0.25,35.0,1,1.0,0.3185000000000002
37,5,0.5,0.0625,35.0,-1,0.0,0.427599999999984
38,5,0.5,0.25,35.0,1,1.0,0.1255999999999915
39,5,0.5,1.0,35.0,1,1.0,0.1466999999999956
40,5,0.5,1.0,-35.0,-1,1.0,0.29369999999998697
41,5,0.5,1.0,35.0,1,1.0,0.2939000000000078
42,5,0.5,0.0,-35.0,-1,1.0,0.3550999999999931
43,5,0.5,0.0625,35.0,-1,0.0,2.79910000000001
44,5,0.5,0.125,35.0,1,1.0,0.32509999999996353
45,5,0.5,1.0,-35.0,-1,1.0,0.540300000000002
46,5,0.5,0.125,35.0,-1,0.0,0.09889999999998622
47,5,0.5,0.125,35.0,-1,0.0,2.3045999999999935
48,5,0.5,0.125,35.0,-1,0.0,0.2600000000000193
49,5,0.5,1.0,-35.0,-1,1.0,0.22809999999998354
50,5,0.5,0.0,35.0,1,1.0,0.781899999999979
51,5,0.5,0.125,35.0,1,1.0,2.569699999999983
52,5,0.5,0.0625,35.0,1,1.0,0.47290000000000987
53,5,0.5,0.0625,35.0,-1,0.0,0.22230000000001837
54,5,0.5,0.25,-35.0,1,0.0,0.179300000000012
55,5,0.5,0.0625,-35.0,-1,1.0,2.6307999999999936
56,5,0.5,0.25,-35.0,-1,1.0,0.9399000000000228
57,5,0.5,1.0,-35.0,-1,1.0,0.16909999999995762
58,5,0.5,0.0,-35.0,-1,1.0,0.16389999999998395
59,5,0.5,0.125,-35.0,-1,1.0,0.5575000000000045
60,5,0.5,0.25,-35.0,-1,1.0,0.2518999999999778
61,5,0.5,0.0,-35.0,-1,1.0,0.24719999999999231
62,5,0.5,0.125,-35.0,-1,1.0,0.38230000000001496
63,5,0.5,0.125,-35.0,-1,1.0,0.3551999999999964
64,5,0.5,0.125,35.0,-1,0.0,0.5592000000000041
65,5,0.5,0.25,-35.0,-1,1.0,0.32490000000001373
66,5,0.5,0.25,-35.0,-1,1.0,0.2758000000000038
67,5,0.5,1.0,-35.0,-1,1.0,0.20589999999998554
68,5,0.5,0.0,35.0,-1,0.0,0.6389999999999816
69,5,0.5,0.125,-35.0,-1,1.0,0.5125999999999635
70,5,0.5,1.0,35.0,1,1.0,0.7129999999999939
71,5,0.5,0.0625,35.0,-1,0.0,0.5467999999999904
72,5,0.5,0.125,-35.0,-1,1.0,0.29239999999998645
73,5,0.5,0.0625,35.0,-1,0.0,0.19640000000001123
74,5,0.5,1.0,35.0,1,1.0,0.18360000000001264
75,5,0.5,1.0,-35.0,-1,1.0,0.20759999999998513
76,5,0.5,1.0,35.0,1,1.0,0.27899999999999636
77,5,0.5,0.25,-35.0,-1,1.0,0.3050999999999817
78,5,0.5,0.125,35.0,1,1.0,0.5865000000000009
79,5,0.5,1.0,35.0,-1,0.0,0.07150000000001455
80,5,0.5,0.125,35.0,1,1.0,0.20919999999995298
81,5,0.5,0.25,35.0,1,1.0,0.30220000000002756
82,5,0.5,0.0625,35.0,1,1.0,0.31100000000003547
83,5,0.5,0.0625,35.0,1,1.0,0.6664000000000101
84,5,0.5,0.0625,35.0,1,1.0,0.3186000000000604
85,5,0.5,0.0625,-35.0,1,0.0,0.397199999999998
86,5,0.5,0.25,-35.0,-1,1.0,0.31950000000006185
87,5,0.5,0.25,35.0,1,1.0,0.19280000000003383
88,5,0.5,1.0,-35.0,-1,1.0,0.2950000000000159
89,5,0.5,1.0,-35.0,-1,1.0,0.2662000000000262
90,5,0.5,0.0625,35.0,1,1.0,0.4028000000000702
91,5,0.2,0.125,35.0,1,1.0,0.5785000000000764
92,5,0.2,1.0,35.0,1,1.0,0.23570000000000846
93,5,0.2,1.0,35.0,1,1.0,0.22390000000001464
94,5,0.2,1.0,35.0,1,1.0,0.22699999999997544
95,5,0.2,0.125,35.0,-1,0.0,4.117200000000082
96,5,0.2,0.25,-35.0,-1,1.0,0.7557010000000446
97,5,0.2,0.25,-35.0,-1,1.0,0.3209009999999921
98,5,0.2,0.0625,35.0,-1,0.0,0.3611010000000192
99,5,0.2,0.0,35.0,-1,0.0,0.33330100000000584
100,5,0.2,1.0,35.0,1,1.0,0.1665010000000393
101,5,0.2,0.125,35.0,1,1.0,0.20130100000005768
102,5,0.2,0.125,35.0,1,1.0,0.2043010000000436
103,5,0.2,0.125,35.0,1,1.0,0.4461010000000556
104,5,0.2,0.0,35.0,1,1.0,0.6007010000000719
105,5,0.2,0.0625,35.0,1,1.0,0.6882009999999923
106,5,0.2,0.0625,35.0,1,1.0,1.5961010000000897
107,5,0.2,0.0625,35.0,1,1.0,0.6651010000000497
108,5,0.2,0.25,-35.0,-1,1.0,0.35540100000002894
109,5,0.2,0.125,35.0,1,1.0,0.3143010000000004
110,5,0.2,0.0625,35.0,1,1.0,0.4077010000000314
111,5,0.2,0.0625,35.0,1,1.0,0.3388010000000463
112,5,0.2,1.0,35.0,1,1.0,0.23580100000003767
113,5,0.2,0.125,-35.0,-1,1.0,1.3232009999999832
114,5,0.2,0.25,-35.0,-1,1.0,0.3533010000000445
115,5,0.2,0.25,35.0,1,1.0,0.1958010000000172
116,5,0.2,0.125,35.0,1,1.0,0.24360100000006923
117,5,0.2,0.0625,35.0,1,1.0,0.5444009999999935
118,5,0.2,0.0625,35.0,1,1.0,0.5188009999999963
119,5,0.2,0.0625,35.0,1,1.0,1.3101009999999746
120,5,0.2,0.0,-35.0,1,0.0,0.2762010000000146
121,5,0.2,0.25,35.0,1,1.0,0.12400100000002112
122,5,0.2,0.125,35.0,1,1.0,0.17080100000003995
123,5,0.2,1.0,35.0,1,1.0,0.1729010000000244
124,5,0.2,1.0,-35.0,-1,1.0,0.535801000000049
125,5,0.2,0.25,35.0,1,1.0,0.28430100000002767
126,5,0.2,1.0,35.0,1,1.0,0.33030100000001994
127,5,0.2,1.0,35.0,1,1.0,0.24180100000000948
128,5,0.2,0.0,35.0,1,1.0,0.3791010000000483
129,5,0.2,1.0,35.0,1,1.0,0.1952009999999973
130,5,0.2,1.0,-35.0,-1,1.0,0.5089009999999803
131,5,0.2,0.0625,35.0,-1,0.0,3.637501000000043
132,5,0.2,1.0,35.0,1,1.0,0.15070100000008324
133,5,0.2,0.25,35.0,1,1.0,0.13080100000001949
134,5,0.2,0.125,35.0,1,1.0,0.4789010000000644
135,5,0.2,0.0,35.0,1,1.0,2.9396010000000388
136,5,0.2,0.0625,35.0,1,1.0,0.16090100000002394
137,5,0.2,0.0,35.0,1,1.0,0.27730100000002267
138,5,0.2,0.25,-35.0,-1,1.0,0.46110100000004195
139,5,0.2,0.25,35.0,1,1.0,0.2231010000000424
140,5,0.2,1.0,-35.0,-1,1.0,0.34640100000007124
141,5,0.2,0.125,35.0,1,1.0,0.9246010000000524
142,5,0.2,0.0,35.0,-1,0.0,0.6481009999999969
143,5,0.2,0.0625,35.0,1,1.0,0.18050099999999247
144,5,0.2,0.125,35.0,1,1.0,0.1487010000000737
145,5,0.2,0.125,35.0,1,1.0,0.21560100000010607
146,5,0.2,0.0625,-35.0,1,0.0,0.24420099999997547
147,5,0.2,1.0,35.0,1,1.0,0.1554010000000403
148,5,0.2,0.0625,35.0,1,1.0,0.3209009999999921
149,5,0.2,1.0,35.0,1,1.0,0.22860100000002603
150,5,0.2,1.0,35.0,1,1.0,0.20350100000001703
151,5,0.2,1.0,-35.0,-1,1.0,0.5371010000000069
152,5,0.2,0.125,35.0,1,1.0,0.2909010000000194
153,5,0.2,0.25,35.0,1,1.0,0.1911010000000033
154,5,0.2,0.25,35.0,1,1.0,2.397301000000027
155,5,0.2,0.125,35.0,1,1.0,0.1958010000000172
156,5,0.2,1.0,35.0,1,1.0,0.18090100000000575
157,5,0.2,0.25,35.0,1,1.0,0.47160100000002103
158,5,0.2,0.125,35.0,1,1.0,0.2114010000000235
159,5,0.2,1.0,-35.0,-1,1.0,0.4820010000000252
160,5,0.2,0.0625,35.0,1,1.0,0.19180100000005496
161,5,0.2,0.125,35.0,1,1.0,0.1607010000000173
162,5,0.2,0.125,-35.0,-1,1.0,3.660800999999992
163,5,0.2,0.25,35.0,1,1.0,0.2531010000000151
164,5,0.2,0.0625,35.0,1,1.0,0.6014010000000667
165,5,0.2,0.0625,-35.0,1,0.0,0.17220099999997274
166,5,0.2,0.25,35.0,1,1.0,0.20580099999995127
167,5,0.2,0.125,35.0,1,1.0,0.25440099999991617
168,5,0.2,0.25,35.0,1,1.0,0.22410100000001876
169,5,0.2,0.125,35.0,1,1.0,0.2295010000000275
170,5,0.2,0.25,35.0,1,1.0,0.20260100000007242
171,5,0.2,0.125,35.0,1,1.0,0.2710010000000693
172,5,0.2,0.0625,35.0,-1,0.0,3.4859010000001263
173,5,0.2,0.25,35.0,1,1.0,0.1243010000000595
174,5,0.2,1.0,35.0,1,1.0,0.13350100000002385
175,5,0.2,1.0,35.0,1,1.0,-0.0007989999999153952
176,5,0.8,0.25,-35.0,1,0.0,0.21740100000010898
177,5,0.8,0.0,-35.0,1,0.0,0.12710100000003877
178,5,0.8,0.0625,-35.0,-1,1.0,0.6609009999999671
179,5,0.8,0.25,-35.0,1,0.0,0.09460100000001148
180,5,0.8,1.0,-35.0,1,0.0,9.296001000000047
181,5,0.8,0.25,35.0,1,1.0,0.16850099999999202
182,5,0.8,1.0,35.0,1,1.0,0.25460099999997965
183,5,0.8,1.0,-35.0,-1,1.0,0.5082010000000992
184,5,0.8,0.25,-35.0,-1,1.0,4.180501000000163
185,5,0.8,1.0,-35.0,-1,1.0,0.4569010000000162
186,5,0.8,1.0,-35.0,-1,1.0,0.44570100000009916
187,5,0.8,1.0,-35.0,-1,1.0,0.3177010000000564
188,5,0.8,1.0,-35.0,-1,1.0,0.29139999999995325
189,5,0.8,0.0625,-35.0,-1,1.0,0.46230100000002494
190,5,0.8,0.125,-35.0,-1,1.0,0.2639010000000326
191,5,0.8,0.125,-35.0,-1,1.0,0.408600999999976
192,5,0.8,1.0,-35.0,-1,1.0,0.31280100000003586
193,5,0.8,0.25,-35.0,-1,1.0,0.37950100000000475
194,5,0.8,0.0625,-35.0,-1,1.0,0.6142010000000937
195,5,0.8,0.0625,-35.0,-1,1.0,0.25250099999993836
196,5,0.8,1.0,-35.0,-1,1.0,0.2415010000000848
197,5,0.8,0.0625,-35.0,-1,1.0,0.4712009999999509
198,5,0.8,0.25,-35.0,-1,1.0,0.2234009999999671
199,5,0.8,0.25,35.0,-1,0.0,0.45190100000002076
200,5,0.8,0.125,35.0,1,1.0,0.3827009999999973
201,5,0.8,0.125,-35.0,-1,1.0,0.3320009999999911
202,5,0.8,0.125,-35.0,-1,1.0,0.4227009999999609
203,5,0.8,0.25,-35.0,-1,1.0,0.3544010000000526
204,5,0.8,0.125,35.0,1,1.0,0.3285009999999602
205,5,0.8,0.0625,-35.0,-1,1.0,0.24050100000010843
206,5,0.8,1.0,-35.0,-1,1.0,0.1810010000000375
207,5,0.8,1.0,-35.0,-1,1.0,0.24640099999999165
208,5,0.8,0.0,-35.0,-1,1.0,0.13920100000007096
209,5,0.8,0.0625,-35.0,-1,1.0,0.651501000000053
210,5,0.8,1.0,-35.0,-1,1.0,0.21830099999999675
211,5,0.8,1.0,-35.0,-1,1.0,0.18760100000008606
212,5,0.8,1.0,-35.0,-1,1.0,0.29500100000007023
213,5,0.8,0.25,35.0,1,1.0,0.3097010000000182
214,5,0.8,0.0625,-35.0,1,0.0,0.18760099999997237
215,5,0.8,0.0,-35.0,1,0.0,0.38780099999996764
216,5,0.8,0.25,-35.0,-1,1.0,0.36510100000009515
217,5,0.8,0.0625,-35.0,1,0.0,0.14800099999990834
218,5,0.8,1.0,-35.0,-1,1.0,0.29450100000008206
219,5,0.8,0.125,-35.0,-1,1.0,0.614900999999918
220,5,0.8,0.25,-35.0,1,0.0,0.11730099999999766
221,5,0.8,0.25,-35.0,1,0.0,0.2051010000000133
222,5,0.8,0.125,35.0,1,1.0,0.19400100000007114
223,5,0.8,1.0,-35.0,-1,1.0,0.2998010000000022
224,5,0.8,0.25,-35.0,-1,1.0,0.31730100000004313
225,5,0.2,1.0,35.0,-1,0.0,0.03500099999996564
226,5,0.2,0.0625,35.0,1,1.0,0.4792010000001028
227,5,0.2,0.0625,35.0,1,1.0,0.38750100000004295
228,5,0.2,0.25,-35.0,-1,1.0,0.3316010000000915
229,5,0.2,0.25,-35.0,1,0.0,0.1888010000000122
230,5,0.2,0.125,35.0,1,1.0,0.38310100000001057
231,5,0.2,0.0625,35.0,1,1.0,0.2754010000001017
232,5,0.2,0.125,-35.0,1,0.0,0.37340100000005805
233,5,0.2,0.25,35.0,1,1.0,0.20000100000004295
234,5,0.2,0.0,35.0,1,1.0,0.4002010000000382
235,5,0.2,0.125,35.0,1,1.0,0.23600100000010116
236,5,0.2,0.25,35.0,1,1.0,0.2721010000000206
237,5,0.2,0.125,35.0,1,1.0,0.3239010000000917
238,5,0.2,0.0625,-35.0,-1,1.0,0.5286010000000942
239,5,0.2,0.125,35.0,1,1.0,0.36720100000002276
240,5,0.2,0.0625,35.0,1,1.0,0.4614010000000235
241,5,0.2,0.125,35.0,1,1.0,0.18240100000002712
242,5,0.2,0.0,-35.0,1,0.0,0.2963009999999713
243,5,0.2,0.125,35.0,1,1.0,0.1345010000000002
244,5,0.2,1.0,35.0,1,1.0,0.16430099999990944
245,5,0.2,0.0,35.0,1,1.0,0.20380099999999857
246,5,0.2,0.25,35.0,1,1.0,0.18740100000002258
247,5,0.2,0.25,35.0,1,1.0,0.19520100000011098
248,5,0.2,0.25,35.0,1,1.0,0.17550100000005386
249,5,0.2,0.0625,35.0,1,1.0,0.48480099999994763
250,5,0.8,0.125,-35.0,1,0.0,0.17590099999995346
251,5,0.8,0.25,-35.0,1,0.0,0.4492009999999027
252,5,0.8,0.125,-35.0,1,0.0,0.19080099999996492
253,5,0.8,0.0,35.0,1,1.0,0.12580100000002403
254,5,0.8,0.125,35.0,1,1.0,0.22030100000006314
255,5,0.8,0.0,-35.0,1,0.0,0.2791010000000824
256,5,0.8,1.0,35.0,1,1.0,0.13110099999994418
257,5,0.8,0.125,-35.0,1,0.0,0.16020100000002913
258,5,0.8,1.0,-35.0,1,0.0,0.12220100000001821
259,5,0.8,0.0625,35.0,1,1.0,0.24980100000004768
260,5,0.8,0.25,-35.0,-1,1.0,0.6525010000000293
261,5,0.8,0.0625,-35.0,1,0.0,3.7970010000001366
262,5,0.8,1.0,-35.0,-1,1.0,0.2797010000000455
263,5,0.8,0.0625,-35.0,1,0.0,0.17170100000009825
264,5,0.8,0.0625,-35.0,-1,1.0,1.315001000000052
265,5,0.8,1.0,-35.0,-1,1.0,0.4575009999999793
266,5,0.8,0.25,-35.0,1,0.0,0.15410099999996874
267,5,0.8,0.25,-35.0,-1,1.0,0.5161010000000488
268,5,0.8,0.125,-35.0,1,0.0,0.18150100000002567
269,5,0.8,0.25,35.0,1,1.0,0.14130099999999857
270,5,0.8,0.25,-35.0,-1,1.0,0.45390100000008715
271,5,0.8,0.0,-35.0,-1,1.0,3.24140100000011
272,5,0.8,0.125,-35.0,-1,1.0,0.6035010000000511
273,5,0.8,0.0,-35.0,1,0.0,0.513800999999944
274,5,0.8,1.0,-35.0,-1,1.0,0.2620010000000548
275,5,0.8,0.125,-35.0,-1,1.0,0.5068009999999958
276,5,0.8,1.0,35.0,1,1.0,0.21630100000004404
277,5,0.8,0.0625,35.0,-1,0.0,0.5215010000000575
278,5,0.8,0.125,-35.0,-1,1.0,0.31500099999993836
279,5,0.8,0.125,-35.0,-1,1.0,0.3619009999999889
280,5,0.8,0.0625,-35.0,-1,1.0,0.39190099999996164
281,5,0.8,0.125,-35.0,-1,1.0,0.4833009999999831
282,5,0.8,0.0625,-35.0,-1,1.0,0.5477010000000746
283,5,0.8,1.0,35.0,1,1.0,0.18010100000003604
284,5,0.8,0.125,-35.0,-1,1.0,0.8055010000000493
285,5,0.8,1.0,-35.0,-1,1.0,0.3219010000000253
286,5,0.8,1.0,-35.0,-1,1.0,0.49040099999990616
287,5,0.8,0.125,-35.0,-1,1.0,0.5064009999999826
288,5,0.8,0.125,35.0,1,1.0,0.3021009999999933
289,5,0.8,1.0,-35.0,-1,1.0,0.3522010000000364
290,5,0.8,1.0,-35.0,-1,1.0,0.8779009999999516
291,5,0.8,0.0625,-35.0,-1,1.0,0.3382009999999127
292,5,0.8,1.0,-35.0,-1,1.0,0.3887010000000828
293,5,0.2,0.125,35.0,1,1.0,0.49790100000006987
294,5,0.2,0.125,35.0,-1,0.0,0.6406010000000606
295,5,0.2,0.0,35.0,1,1.0,3.1891010000000506
296,5,0.2,0.25,35.0,1,1.0,0.13740100000006805
297,5,0.2,1.0,35.0,1,1.0,0.24850100000003295
298,5,0.2,0.25,-35.0,1,0.0,0.4913010000000213
299,5,0.2,0.0625,35.0,1,1.0,0.22640100000000984
300,5,0.2,1.0,35.0,1,1.0,0.16340100000002167
301,5,0.2,0.25,35.0,1,1.0,0.13920100000007096
302,5,0.2,1.0,35.0,1,1.0,0.22400100000004386
303,5,0.2,1.0,-35.0,-1,1.0,0.5221010000000206
304,5,0.2,0.0625,35.0,1,1.0,3.312400999999909
305,5,0.2,0.0625,35.0,1,1.0,0.3603009999999358
306,5,0.2,0.0,35.0,-1,0.0,0.893301000000065
307,5,0.2,1.0,35.0,1,1.0,0.19850100000007842
308,5,0.2,0.0625,35.0,1,1.0,0.44050099999992653
309,5,0.2,0.0,-35.0,1,0.0,0.14740100000005896
310,5,0.2,0.0625,35.0,1,1.0,0.24270100000001094
311,5,0.2,0.0,35.0,-1,0.0,1.5994010000000571
312,5,0.2,1.0,35.0,1,1.0,0.1263010000000122
313,5,0.2,0.25,-35.0,-1,1.0,0.3557010000000673
314,5,0.2,1.0,35.0,1,1.0,0.19350099999996928
315,5,0.2,0.0625,35.0,1,1.0,0.3885009999999056
316,5,0.2,1.0,35.0,1,1.0,0.19520100000011098
317,5,0.2,0.0,35.0,1,1.0,0.19200100000000475
318,5,0.2,0.125,35.0,1,1.0,0.2654010000001108
319,5,0.2,0.25,35.0,1,1.0,0.18210100000010243
