trial_num,session_num,stim_probability_left,contrast,position,response_choice,trial_correct,reaction_time
1,1,0.5,0.0625,35.0,1,1.0,0.057900000000000174
2,1,0.5,0.125,35.0,1,1.0,0.15529999999999955
3,1,0.5,0.25,35.0,1,1.0,0.20720000000000027
4,1,0.5,0.0,-35.0,1,0.0,0.12930000000000064
5,1,0.5,0.25,35.0,1,1.0,0.35769999999999946
6,1,0.5,0.25,35.0,1,1.0,0.12809999999999988
7,1,0.5,0.0625,-35.0,1,0.0,0.32920000000000016
8,1,0.5,0.0625,35.0,1,1.0,0.2444999999999986
9,1,0.5,0.125,-35.0,1,0.0,0.0995999999999988
10,1,0.5,0.0625,35.0,1,1.0,0.12679999999999936
11,1,0.5,0.125,-35.0,1,0.0,0.1903999999999968
12,1,0.5,0.125,-35.0,1,0.0,0.18589999999999662
13,1,0.5,0.125,-35.0,1,0.0,0.24549999999999983
14,1,0.5,0.25,-35.0,1,0.0,0.19239999999999924
15,1,0.5,0.125,35.0,1,1.0,0.17360000000000042
16,1,0.5,0.0625,35.0,1,1.0,0.283299999999997
17,1,0.5,0.0,-35.0,1,0.0,0.36310000000000286
18,1,0.5,0.0,-35.0,1,0.0,0.13290000000000646
19,1,0.5,0.0625,35.0,1,1.0,0.20179999999999154
20,1,0.5,0.0,35.0,1,1.0,0.2068000000000012
21,1,0.5,0.25,-35.0,-1,1.0,0.356899999999996
22,1,0.5,0.25,35.0,1,1.0,0.11520000000000152
23,1,0.5,1.0,35.0,1,1.0,0.21620000000000061
24,1,0.5,0.25,-35.0,-1,1.0,0.24139999999999873
25,1,0.5,0.125,-35.0,1,0.0,0.17379999999999995
26,1,0.5,0.0625,-35.0,1,0.0,0.22860000000000014
27,1,0.5,0.125,-35.0,1,0.0,0.16979999999999507
28,1,0.5,0.0625,-35.0,1,0.0,0.18890000000000384
29,1,0.5,0.0,-35.0,1,0.0,12.066699999999997
30,1,0.5,1.0,35.0,1,1.0,0.18130000000000734
31,1,0.5,0.0,-35.0,1,0.0,3.376199999999997
32,1,0.5,1.0,-35.0,-1,1.0,0.1606000000000023
33,1,0.5,1.0,-35.0,-1,1.0,0.23169999999998936
34,1,0.5,0.125,-35.0,-1,1.0,0.25689999999998747
35,1,0.5,1.0,-35.0,-1,1.0,0.16630000000000678
36,1,0.5,0.125,-35.0,-1,1.0,0.17959999999999354
37,1,0.5,0.125,35.0,1,1.0,0.40269999999998163
38,1,0.5,0.0,-35.0,1,0.0,0.5189000000000021
39,1,0.5,0.0625,-35.0,-1,1.0,0.20929999999998472
40,1,0.5,0.125,35.0,1,1.0,0.2639999999999816
41,1,0.5,0.25,-35.0,1,0.0,0.2861000000000047
42,1,0.5,0.125,35.0,1,1.0,0.27719999999999345
43,1,0.5,0.0625,35.0,1,1.0,0.3610999999999933
44,1,0.5,0.0625,-35.0,1,0.0,0.3908000000000129
45,1,0.5,0.25,-35.0,-1,1.0,0.25909999999998945
46,1,0.5,0.0625,-35.0,-1,1.0,0.1571999999999889
47,1,0.5,0.25,-35.0,-1,1.0,0.626499999999993
48,1,0.5,0.0625,-35.0,1,0.0,0.31040000000001555
49,1,0.5,0.25,35.0,1,1.0,0.18549999999999045
50,1,0.5,0.25,35.0,1,1.0,0.18380000000001928
51,1,0.5,0.0625,-35.0,-1,1.0,0.25089999999997303
52,1,0.5,0.0625,-35.0,-1,1.0,0.23160000000001446
53,1,0.5,0.25,-35.0,-1,1.0,0.42830000000000723
54,1,0.5,0.0,35.0,1,1.0,7.219600000000014
55,1,0.5,0.25,35.0,1,1.0,0.22620000000000573
56,1,0.5,0.0625,-35.0,-1,1.0,0.22129999999998518
57,1,0.5,1.0,35.0,1,1.0,0.13939999999999486
58,1,0.5,0.25,-35.0,1,0.0,0.1775000000000091
59,1,0.5,0.25,35.0,1,1.0,0.26900000000000546
60,1,0.5,0.25,35.0,1,1.0,0.29599999999999227
61,1,0.5,1.0,35.0,1,1.0,0.17310000000000514
62,1,0.5,1.0,35.0,1,1.0,0.29110000000002856
63,1,0.5,0.0,35.0,1,1.0,0.25030000000000996
64,1,0.5,0.0625,35.0,1,1.0,0.23380000000000223
65,1,0.5,0.25,35.0,1,1.0,0.3229000000000042
66,1,0.5,0.125,35.0,1,1.0,1.6002999999999759
67,1,0.5,0.25,-35.0,-1,1.0,0.20709999999996853
68,1,0.5,0.125,-35.0,-1,1.0,0.2406000000000006
69,1,0.5,1.0,-35.0,-1,1.0,0.21929999999997563
70,1,0.5,0.125,35.0,1,1.0,0.27940000000000964
71,1,0.5,0.0625,-35.0,1,0.0,0.29060000000001196
72,1,0.5,0.0625,-35.0,1,0.0,0.30529999999998836
73,1,0.5,1.0,35.0,1,1.0,0.2565000000000168
74,1,0.5,0.0625,35.0,-1,0.0,4.252200000000016
75,1,0.5,0.125,-35.0,-1,1.0,0.40739999999999554
76,1,0.5,0.0,-35.0,1,0.0,3.237799999999993
77,1,0.5,0.0625,-35.0,-1,1.0,0.2696000000000822
78,1,0.5,1.0,35.0,1,1.0,0.2178000000000111
79,1,0.5,0.0625,35.0,1,1.0,0.8596000000000572
80,1,0.5,0.0625,35.0,1,1.0,0.7531999999999925
81,1,0.5,0.25,35.0,1,1.0,0.297300000000007
82,1,0.5,0.125,-35.0,1,0.0,0.3145000000000664
83,1,0.5,1.0,-35.0,-1,1.0,0.20190000000002328
84,1,0.5,0.125,-35.0,1,0.0,0.3937999999999988
85,1,0.5,0.25,35.0,-1,0.0,0.19470000000001164
86,1,0.5,0.125,-35.0,-1,1.0,0.21620000000001482
87,1,0.5,0.0625,-35.0,-1,1.0,0.22940000000005512
88,1,0.5,0.0,35.0,-1,0.0,3.856800000000021
89,1,0.5,0.25,35.0,1,1.0,0.5800000000000409
90,1,0.5,0.125,35.0,1,1.0,0.5492000000000417
91,1,0.8,0.25,-35.0,-1,1.0,0.1935000000000855
92,1,0.8,0.125,-35.0,-1,1.0,0.1815000000000282
93,1,0.8,0.125,35.0,1,1.0,0.2626000000000204
94,1,0.8,1.0,-35.0,-1,1.0,0.19380000000006703
95,1,0.8,0.25,-35.0,-1,1.0,0.20500000000004093
96,1,0.8,0.0,-35.0,1,0.0,0.5506000000000881
97,1,0.8,0.25,35.0,1,1.0,0.22310000000004493
98,1,0.8,1.0,-35.0,-1,1.0,0.18350000000003774
99,1,0.8,0.25,-35.0,-1,1.0,0.19510000000002492
100,1,0.8,0.0625,-35.0,1,0.0,0.3001000000000431
101,1,0.8,0.0625,-35.0,-1,1.0,0.20999999999997954
102,1,0.8,1.0,-35.0,-1,1.0,0.1922999999999888
103,1,0.8,0.0625,-35.0,-1,1.0,0.21550000000007685
104,1,0.8,0.125,-35.0,-1,1.0,0.2615999999999872
105,1,0.8,0.25,-35.0,-1,1.0,0.27300000000002456
106,1,0.8,0.0,35.0,-1,0.0,0.4130000000000109
107,1,0.8,0.25,-35.0,-1,1.0,0.25920000000007803
108,1,0.8,0.125,-35.0,-1,1.0,0.38030000000003383
109,1,0.8,0.0625,-35.0,-1,1.0,0.36950000000001637
110,1,0.8,0.0625,-35.0,-1,1.0,0.4107999999999947
111,1,0.8,0.25,-35.0,1,0.0,0.15900000000004866
112,1,0.8,0.0,-35.0,1,0.0,0.19310000000007221
113,1,0.8,0.25,-35.0,-1,1.0,0.22120000000001028
114,1,0.8,1.0,-35.0,-1,1.0,0.17439999999999145
115,1,0.8,0.25,-35.0,-1,1.0,0.19060000000001764
116,1,0.8,0.0625,35.0,-1,0.0,0.19479999999998654
117,1,0.8,0.0,-35.0,-1,1.0,0.1782999999999788
118,1,0.8,1.0,-35.0,-1,1.0,0.22459900000001198
119,1,0.8,1.0,-35.0,-1,1.0,0.13680000000005066
120,1,0.8,0.125,-35.0,-1,1.0,0.1692000000000462
121,1,0.8,0.125,-35.0,-1,1.0,0.28480000000001837
122,1,0.8,0.0,-35.0,-1,1.0,5.416300000000035
123,1,0.8,0.0625,-35.0,-1,1.0,0.3299000000000092
124,1,0.2,0.25,35.0,-1,0.0,0.3135000000000332
125,1,0.2,0.0625,-35.0,-1,1.0,0.1288000000000693
126,1,0.2,0.0625,35.0,-1,0.0,0.17590000000006967
127,1,0.2,0.125,35.0,1,1.0,0.3746999999999616
128,1,0.2,1.0,-35.0,-1,1.0,0.14260000000001583
129,1,0.2,0.125,35.0,1,1.0,0.44680000000005293
130,1,0.2,0.25,35.0,1,1.0,0.35870000000005575
131,1,0.2,0.0,35.0,1,1.0,0.2676999999999907
132,1,0.2,1.0,35.0,1,1.0,0.34100000000006503
133,1,0.2,0.25,35.0,1,1.0,0.29400000000003956
134,1,0.2,1.0,35.0,1,1.0,0.25770000000005666
135,1,0.2,0.25,35.0,1,1.0,0.2377999999999929
136,1,0.2,1.0,-35.0,-1,1.0,0.35779999999999745
137,1,0.2,0.125,35.0,1,1.0,0.299000000000035
138,1,0.2,0.0,35.0,1,1.0,0.41030000000000655
139,1,0.2,0.0625,35.0,1,1.0,0.21769999999997935
140,1,0.2,0.0625,-35.0,1,0.0,0.12630000000007158
141,1,0.2,0.0,35.0,1,1.0,0.23340000000001737
142,1,0.2,0.125,35.0,1,1.0,0.24950000000001182
143,1,0.2,0.125,35.0,-1,0.0,0.20450000000005275
144,1,0.2,0.0625,35.0,1,1.0,0.29129999999997835
145,1,0.2,0.0,35.0,1,1.0,0.15330000000000155
146,1,0.2,0.25,35.0,1,1.0,0.26549999999997453
147,1,0.2,0.125,35.0,1,1.0,0.3427000000000362
148,1,0.2,0.25,-35.0,-1,1.0,0.48190000000005284
149,1,0.2,0.0625,-35.0,1,0.0,0.18420000000003256
150,1,0.2,0.25,35.0,1,1.0,0.3404000000000451
151,1,0.2,0.0,35.0,1,1.0,0.2574000000000183
152,1,0.2,0.25,35.0,1,1.0,0.6295000000000641
153,1,0.2,1.0,35.0,1,1.0,0.21649999999999636
154,1,0.2,0.125,35.0,1,1.0,0.13200000000006185
155,1,0.2,0.25,-35.0,1,0.0,0.30299999999999727
156,1,0.2,0.0,-35.0,1,0.0,0.3124000000000251
157,1,0.2,0.0,35.0,-1,0.0,5.538499999999999
158,1,0.2,0.0,35.0,1,1.0,0.22419999999999618
159,1,0.2,1.0,35.0,1,1.0,0.36610000000007403
160,1,0.2,1.0,35.0,1,1.0,0.20929999999998472
161,1,0.2,1.0,-35.0,-1,1.0,0.22839999999996508
162,1,0.2,0.125,35.0,1,1.0,0.19849999999996726
163,1,0.2,1.0,-35.0,-1,1.0,0.21310000000005402
164,1,0.2,0.125,35.0,1,1.0,0.49469999999996617
165,1,0.8,0.0625,-35.0,1,0.0,0.19619999999986248
166,1,0.8,0.25,-35.0,-1,1.0,0.16200000000003456
167,1,0.8,0.25,35.0,1,1.0,0.21459999999990487
168,1,0.8,0.0625,35.0,1,1.0,0.185799999999972
169,1,0.8,0.0625,-35.0,1,0.0,1.848799999999983
170,1,0.8,0.125,-35.0,-1,1.0,0.28120000000001255
171,1,0.8,0.125,-35.0,-1,1.0,0.19299999999998363
172,1,0.8,0.0625,35.0,1,1.0,0.1933999999999969
173,1,0.8,1.0,-35.0,-1,1.0,0.3926999999999907
174,1,0.8,1.0,35.0,1,1.0,0.16980000000000928
175,1,0.8,0.0625,35.0,1,1.0,0.30340000000001055
176,1,0.8,0.125,-35.0,1,0.0,0.19119999999998072
177,1,0.8,1.0,35.0,1,1.0,0.253400000000056
178,1,0.8,0.25,-35.0,-1,1.0,0.265700000000038
179,1,0.8,0.25,-35.0,-1,1.0,0.19470000000001164
180,1,0.8,0.125,-35.0,-1,1.0,0.1956000000000131
181,1,0.8,1.0,-35.0,-1,1.0,0.16809999999998126
182,1,0.8,0.25,-35.0,-1,1.0,0.21129999999993743
183,1,0.8,0.25,-35.0,-1,1.0,0.20240000000001146
184,1,0.8,0.125,-35.0,-1,1.0,0.29670000000010077
185,1,0.8,0.0,35.0,-1,0.0,0.3421000000000731
186,1,0.8,0.25,35.0,1,1.0,0.24220000000002528
187,1,0.8,0.25,-35.0,-1,1.0,0.31740000000002055
188,1,0.8,0.25,-35.0,-1,1.0,0.1754000000000815
189,1,0.8,0.125,-35.0,-1,1.0,0.5607000000001108
190,1,0.8,0.125,-35.0,-1,1.0,0.2441000000000031
191,1,0.8,0.25,-35.0,-1,1.0,0.21090000000003783
192,1,0.8,0.0625,-35.0,1,0.0,0.258199999999988
193,1,0.8,0.0625,-35.0,-1,1.0,0.7237999999999829
194,1,0.8,0.0,-35.0,-1,1.0,3.6537000000000717
195,1,0.8,1.0,-35.0,-1,1.0,0.20870000000002165
196,1,0.8,0.25,35.0,1,1.0,0.3632000000000062
197,1,0.8,1.0,-35.0,-1,1.0,0.18059999999991305
198,1,0.8,0.0,-35.0,-1,1.0,0.12800000000004275
199,1,0.8,0.25,-35.0,-1,1.0,0.25470000000007076
200,1,0.8,0.25,-35.0,-1,1.0,0.19309999999995853
201,1,0.8,0.125,-35.0,-1,1.0,0.32190000000002783
202,1,0.8,0.0625,-35.0,-1,1.0,0.8595000000000255
203,1,0.8,0.125,-35.0,-1,1.0,0.21880000000010114
204,1,0.8,0.0,-35.0,-1,1.0,2.6444000000001324
205,1,0.8,0.25,-35.0,-1,1.0,0.20640000000003056
206,1,0.8,0.125,35.0,1,1.0,0.36850000000004
207,1,0.2,1.0,35.0,1,1.0,0.20819999999991978
208,1,0.2,0.25,35.0,1,1.0,0.28359999999997854
209,1,0.2,0.125,35.0,1,1.0,0.26660000000003947
210,1,0.2,0.0,35.0,1,1.0,0.20470000000000255
211,1,0.2,0.0,35.0,1,1.0,0.19690000000002783
212,1,0.2,0.25,-35.0,1,0.0,0.18910000000005311
213,1,0.2,1.0,35.0,1,1.0,0.1774000000000342
214,1,0.2,1.0,35.0,1,1.0,0.20970000000011169
215,1,0.2,1.0,35.0,1,1.0,0.16049999999995634
216,1,0.2,0.0,35.0,1,1.0,0.10640000000000782
217,1,0.2,0.125,35.0,1,1.0,0.21019999999998618
218,1,0.2,0.0,35.0,1,1.0,0.12359999999989668
219,1,0.2,1.0,35.0,1,1.0,0.08519999999998618
220,1,0.2,0.125,-35.0,1,0.0,0.17180000000007567
221,1,0.2,0.0625,35.0,-1,0.0,0.3567000000001599
222,1,0.2,0.0625,35.0,1,1.0,0.227800000000002
223,1,0.2,0.0625,35.0,1,1.0,0.31719999999995707
224,1,0.2,0.125,35.0,1,1.0,0.1391000000000986
225,1,0.2,1.0,35.0,1,1.0,0.161399000000074
226,1,0.2,0.25,35.0,1,1.0,0.18640000000004875
227,1,0.2,0.125,35.0,1,1.0,0.14679999999998472
228,1,0.2,1.0,35.0,1,1.0,0.23569999999995161
229,1,0.2,0.0625,35.0,1,1.0,0.30110000000001946
230,1,0.2,0.0,-35.0,1,0.0,0.783399999999915
231,1,0.8,0.125,-35.0,-1,1.0,0.2825000000000273
232,1,0.8,0.25,35.0,1,1.0,0.32119999999997617
233,1,0.8,0.0,35.0,1,1.0,0.16809999999998126
234,1,0.8,0.0625,-35.0,1,0.0,0.11990000000002965
235,1,0.8,1.0,-35.0,-1,1.0,0.24850000000003547
236,1,0.8,0.0625,-35.0,1,0.0,0.4155999999999267
237,1,0.8,0.125,-35.0,-1,1.0,0.1671999999999798
238,1,0.8,0.0625,-35.0,1,0.0,0.4519999999999982
239,1,0.8,0.0625,-35.0,-1,1.0,0.23540000000002692
240,1,0.8,0.25,-35.0,-1,1.0,0.29539999999997235
241,1,0.8,0.0625,35.0,1,1.0,3.0907000000000835
242,1,0.8,1.0,35.0,1,1.0,0.34000000000003183
243,1,0.8,0.125,-35.0,1,0.0,0.16620000000011714
244,1,0.8,0.0625,-35.0,-1,1.0,0.18719999999996162
245,1,0.8,0.0625,35.0,1,1.0,0.4172999999999547
246,1,0.8,0.125,35.0,1,1.0,0.19830000000013115
247,1,0.8,0.25,-35.0,-1,1.0,0.48860000000001946
248,1,0.8,0.0625,-35.0,-1,1.0,0.25929999999993925
249,1,0.8,0.125,-35.0,1,0.0,0.060500000000047294
250,1,0.8,0.25,-35.0,-1,1.0,0.2076999999999316
251,1,0.8,0.125,-35.0,-1,1.0,0.16629999999997835
252,1,0.8,0.125,-35.0,-1,1.0,0.17190000000005057
253,1,0.8,0.25,-35.0,-1,1.0,0.259900000000016
254,1,0.8,0.125,35.0,1,1.0,0.38179999999999836
255,1,0.8,0.0625,-35.0,1,0.0,0.25300000000004275
256,1,0.8,1.0,-35.0,-1,1.0,0.197400000000016
257,1,0.8,1.0,-35.0,-1,1.0,0.2074000000000069
258,1,0.8,0.25,35.0,1,1.0,0.8486000000000331
259,1,0.8,1.0,35.0,1,1.0,0.3383999999999787
260,1,0.8,1.0,-35.0,-1,1.0,0.15409999999997126
261,1,0.8,1.0,-35.0,-1,1.0,0.20709999999996853
262,1,0.8,1.0,-35.0,-1,1.0,0.19259999999997035
263,1,0.8,0.0625,35.0,1,1.0,0.6610000000000582
264,1,0.8,0.0,-35.0,1,0.0,0.05660000000000309
265,1,0.8,1.0,-35.0,1,0.0,0.1772000000000844
266,1,0.8,0.0625,-35.0,1,0.0,0.3874000000000706
267,1,0.8,0.0,-35.0,1,0.0,0.2515999999999394
268,1,0.8,1.0,-35.0,-1,1.0,0.19899999999995543
269,1,0.8,0.0,35.0,1,1.0,5.003800000000069
270,1,0.8,0.125,35.0,1,1.0,0.19640000000003965
271,1,0.8,1.0,-35.0,-1,1.0,0.1893000000001166
272,1,0.8,1.0,35.0,1,1.0,0.2115999999999758
273,1,0.8,0.125,-35.0,-1,1.0,0.2318000000000211
274,1,0.8,0.25,-35.0,1,0.0,0.13950000000011187
275,1,0.8,1.0,-35.0,-1,1.0,0.15660000000002583
276,1,0.8,0.0625,-35.0,1,0.0,0.09559999999999036
277,1,0.8,0.0625,-35.0,-1,1.0,0.30540000000007694
278,1,0.8,1.0,-35.0,-1,1.0,0.11570000000017444
279,1,0.8,1.0,-35.0,-1,1.0,0.18460000000004584
280,1,0.8,0.125,35.0,1,1.0,0.5315000000000509
281,1,0.8,0.125,-35.0,1,0.0,0.04009999999993852
282,1,0.8,1.0,-35.0,-1,1.0,0.27129999999999654
283,1,0.8,0.125,-35.0,1,0.0,0.1490999999999758
284,1,0.8,0.25,35.0,1,1.0,0.287900000000036
285,1,0.8,0.125,-35.0,1,0.0,0.4781000000000404
286,1,0.8,1.0,-35.0,1,0.0,0.047799999999938336
287,1,0.8,0.0625,-35.0,1,0.0,0.26880000000005566
288,1,0.8,1.0,-35.0,-1,1.0,0.20870000000002165
289,1,0.8,0.25,-35.0,-1,1.0,0.2661000000000513
290,1,0.8,0.0625,-35.0,1,0.0,0.18060000000002674
291,1,0.8,0.0625,35.0,1,1.0,0.27110000000004675
292,1,0.8,1.0,-35.0,-1,1.0,0.18029999999998836
293,1,0.8,0.25,35.0,1,1.0,0.2075000000000955
294,1,0.8,0.25,-35.0,-1,1.0,0.17660000000000764
295,1,0.8,0.25,-35.0,-1,1.0,0.11959999999999127
296,1,0.8,0.0,-35.0,1,0.0,0.1550000000000864
297,1,0.2,0.25,35.0,1,1.0,0.26139999999998054
298,1,0.2,0.125,35.0,1,1.0,0.3063999999999396
299,1,0.2,0.25,35.0,1,1.0,0.21069999999997435
300,1,0.2,0.0625,35.0,1,1.0,0.12570000000005166
301,1,0.2,0.0,35.0,1,1.0,0.23040000000003147
302,1,0.2,0.25,-35.0,1,0.0,0.3601000000001022
303,1,0.2,0.25,35.0,1,1.0,0.31749999999999545
304,1,0.2,0.125,35.0,1,1.0,0.3645999999999958
305,1,0.2,0.125,35.0,1,1.0,0.20439999999996417
306,1,0.2,0.125,35.0,1,1.0,0.26110000000005584
307,1,0.2,0.125,35.0,1,1.0,0.1751000000000431
308,1,0.2,0.25,35.0,1,1.0,0.17819999999994707
309,1,0.2,1.0,35.0,1,1.0,0.2078000000000202
310,1,0.2,0.125,35.0,1,1.0,0.2515999999999394
311,1,0.2,0.0625,35.0,1,1.0,0.16790000000003147
312,1,0.2,0.25,35.0,1,1.0,0.2115000000000009
313,1,0.2,0.25,35.0,1,1.0,0.26149999999984175
314,1,0.2,1.0,35.0,1,1.0,0.20479999999997744
315,1,0.2,0.0625,35.0,1,1.0,0.26149999999984175
316,1,0.2,0.125,35.0,1,1.0,0.24890000000004875
317,1,0.2,0.125,-35.0,1,0.0,0.18879999999967367
318,1,0.2,0.0625,-35.0,1,0.0,0.24169999999980973
319,1,0.2,0.25,35.0,1,1.0,0.2952999999997701
320,1,0.2,0.125,35.0,1,1.0,0.1353999999998905
321,1,0.2,0.125,35.0,1,1.0,0.231899999999996
322,1,0.2,0.125,35.0,1,1.0,0.2887999999998101
323,1,0.2,1.0,-35.0,-1,1.0,0.22199999999998
324,1,0.2,0.125,35.0,1,1.0,0.25549999999998363
325,1,0.2,0.25,35.0,1,1.0,0.15219999999999345
326,1,0.2,0.0625,35.0,1,1.0,0.3325999999999567
327,1,0.2,0.0625,35.0,-1,0.0,0.3887999999999465
328,1,0.2,0.25,35.0,1,1.0,0.3226999999997133
329,1,0.2,0.25,35.0,1,1.0,0.24919999999997344
330,1,0.2,0.0625,35.0,1,1.0,0.2162999999998192
331,1,0.2,0.0,35.0,1,1.0,6.602799999999888
332,1,0.2,0.125,35.0,1,1.0,0.08330000000000837
333,1,0.2,0.0625,35.0,1,1.0,0.276299999999992
334,1,0.2,0.125,35.0,1,1.0,0.19309999999995853
335,1,0.2,1.0,-35.0,-1,1.0,0.35370000000011714
336,1,0.2,0.125,-35.0,1,0.0,0.19319999999993342
337,1,0.2,0.0625,35.0,-1,0.0,0.2699999999999818
338,1,0.2,0.25,35.0,1,1.0,0.23690000000010514
339,1,0.2,0.125,35.0,1,1.0,0.24349999999981264
340,1,0.2,1.0,35.0,1,1.0,0.1799999999998363
341,1,0.8,1.0,-35.0,-1,1.0,0.18689999999992324
342,1,0.8,1.0,-35.0,-1,1.0,0.23679999999990287
343,1,0.8,0.25,35.0,1,1.0,0.27719999999999345
344,1,0.8,1.0,-35.0,-1,1.0,0.1675000000000182
345,1,0.8,0.0,-35.0,1,0.0,0.48719999999980246
346,1,0.8,1.0,-35.0,-1,1.0,0.4378999999998996
347,1,0.8,1.0,35.0,1,1.0,0.22710000000006403
348,1,0.8,1.0,-35.0,-1,1.0,0.15099999999983993
349,1,0.8,1.0,-35.0,-1,1.0,0.1635999999998603
350,1,0.8,1.0,-35.0,-1,1.0,0.16439999999988686
351,1,0.8,0.125,35.0,1,1.0,0.39059999999994943
352,1,0.8,0.125,-35.0,-1,1.0,0.32780000000002474
353,1,0.8,0.0,-35.0,1,0.0,0.3609999999998763
354,1,0.8,0.25,-35.0,-1,1.0,0.21119999999996253
355,1,0.8,0.0,35.0,-1,0.0,0.2074999999999818
356,1,0.8,1.0,-35.0,-1,1.0,0.18769999999972242
357,1,0.8,0.25,-35.0,-1,1.0,0.1511000000000422
358,1,0.8,0.0625,35.0,-1,0.0,0.297800000000052
359,1,0.8,1.0,-35.0,-1,1.0,0.1612999999999829
360,1,0.8,0.125,-35.0,-1,1.0,0.26779999999985193
361,1,0.8,0.25,-35.0,-1,1.0,0.2177999999998974
362,1,0.8,0.0,35.0,1,1.0,2.1218999999998687
363,1,0.8,0.0,-35.0,1,0.0,0.394800000000032
364,1,0.8,0.0625,35.0,1,1.0,0.308699999999817
365,1,0.8,1.0,-35.0,-1,1.0,0.19820000000004256
366,1,0.8,0.0,-35.0,1,0.0,0.3450999999997748
367,1,0.8,1.0,-35.0,-1,1.0,0.1981999999998152
368,1,0.8,0.0625,-35.0,-1,1.0,0.185799999999972
369,1,0.8,0.0625,-35.0,-1,1.0,0.8182999999999083
370,1,0.8,0.0625,-35.0,1,0.0,0.4152999999998883
371,1,0.8,0.0625,-35.0,1,0.0,0.10590000000001965
372,1,0.8,0.125,35.0,1,1.0,0.30209999999988213
373,1,0.8,0.125,-35.0,-1,1.0,0.7555999999997312
374,1,0.8,0.0,-35.0,1,0.0,0.2925000000000182
375,1,0.8,0.25,-35.0,-1,1.0,0.3554999999998927
376,1,0.8,0.25,-35.0,-1,1.0,0.22269999999980428
377,1,0.8,0.0625,-35.0,-1,1.0,1.5989999999999327
378,1,0.8,0.125,-35.0,-1,1.0,0.3790999999998803
379,1,0.8,0.0625,-35.0,-1,1.0,3.3125
380,1,0.8,0.0625,-35.0,1,0.0,6.409599999999955
381,1,0.8,0.0,-35.0,1,0.0,0.29939999999987776
382,1,0.8,0.25,-35.0,-1,1.0,0.20299999999997453
383,1,0.8,0.125,35.0,1,1.0,0.31969999999978427
384,1,0.8,0.125,-35.0,-1,1.0,0.5797999999999774
385,1,0.8,0.25,-35.0,-1,1.0,0.18719999999984793
386,1,0.8,0.125,-35.0,-1,1.0,0.216499999999769
387,1,0.8,0.0625,-35.0,-1,1.0,0.4433999999998832
388,1,0.8,0.125,35.0,1,1.0,0.40049999999973807
389,1,0.2,0.25,35.0,1,1.0,0.21719999999982065
390,1,0.2,0.0625,35.0,1,1.0,0.11059999999974934
391,1,0.2,0.0625,35.0,1,1.0,0.6032000000000153
392,1,0.2,0.0625,35.0,1,1.0,0.2738999999999123
393,1,0.2,1.0,-35.0,1,0.0,0.20010000000002037
394,1,0.2,0.125,35.0,1,1.0,0.24369999999976244
395,1,0.2,1.0,-35.0,-1,1.0,0.18370000000004438
396,1,0.2,1.0,35.0,1,1.0,0.14079999999989923
397,1,0.2,0.0,35.0,1,1.0,0.27710000000001855
398,1,0.2,0.125,35.0,1,1.0,0.20049999999991996
399,1,0.2,0.25,35.0,1,1.0,0.2737999999999374
400,1,0.2,1.0,-35.0,-1,1.0,0.23049999999989268
401,1,0.2,1.0,-35.0,1,0.0,0.03149999999982356
402,1,0.2,1.0,35.0,1,1.0,0.3406999999999698
403,1,0.2,0.25,35.0,1,1.0,0.16729999999984102
404,1,0.2,1.0,35.0,1,1.0,0.26769999999987704
405,1,0.2,0.125,35.0,1,1.0,0.3009999999997035
406,1,0.2,0.0625,35.0,1,1.0,0.1608000000001084
407,1,0.2,0.25,35.0,1,1.0,0.16830000000004475
408,1,0.2,1.0,35.0,1,1.0,0.23119999999994434
409,1,0.2,0.0625,35.0,1,1.0,0.22430000000008476
410,1,0.2,0.0625,35.0,1,1.0,0.20159999999987122
411,1,0.2,0.0,35.0,1,1.0,0.29779999999982465
412,1,0.2,0.0,35.0,1,1.0,0.24829999999974461
413,1,0.2,0.125,35.0,1,1.0,0.22129999999970096
414,1,0.2,0.125,35.0,1,1.0,0.1713999999999487
415,1,0.2,0.125,-35.0,1,0.0,0.20139899999981026
416,1,0.2,0.25,35.0,1,1.0,0.23520000000007713
417,1,0.2,1.0,35.0,1,1.0,0.17489999999997963
418,1,0.2,0.0625,-35.0,1,0.0,0.24209999999970933
419,1,0.2,0.25,35.0,1,1.0,0.24189999999975953
420,1,0.2,0.25,35.0,1,1.0,0.21509999999989304
421,1,0.2,1.0,35.0,1,1.0,0.16860000000019681
422,1,0.2,1.0,35.0,1,1.0,0.20199999999999818
423,1,0.2,0.25,35.0,1,1.0,0.16529999999988831
424,1,0.2,1.0,35.0,1,1.0,0.20909899999992376
425,1,0.2,0.125,35.0,1,1.0,0.11939899999993031
426,1,0.2,0.125,35.0,1,1.0,0.16239999999970678
427,1,0.2,0.0,35.0,1,1.0,0.1489000000001397
428,1,0.2,0.0,35.0,1,1.0,0.1494000000000142
429,1,0.2,0.0,35.0,1,1.0,3.2590999999999894
430,1,0.2,0.0625,35.0,1,1.0,0.2256999999999607
431,1,0.2,0.0,35.0,1,1.0,0.2459999999998672
432,1,0.2,0.125,-35.0,1,0.0,0.16289999999980864
433,1,0.2,0.125,35.0,1,1.0,0.026399999999966894
434,1,0.2,0.25,35.0,1,1.0,0.1893999999999778
435,1,0.2,0.0625,35.0,1,1.0,0.2563999999999851
436,1,0.2,1.0,35.0,1,1.0,0.1995999999999185
437,1,0.2,0.0,35.0,1,1.0,0.26989999999977954
438,1,0.2,0.0625,35.0,1,1.0,0.3330999999998312
439,1,0.2,0.125,35.0,1,1.0,0.10969999999974789
440,1,0.2,0.25,35.0,1,1.0,0.18339999999989232
441,1,0.2,0.125,35.0,1,1.0,0.4097999999999047
442,1,0.2,0.25,35.0,1,1.0,0.19339999999988322
443,1,0.2,0.25,35.0,1,1.0,0.1636999999998352
444,1,0.2,1.0,35.0,1,1.0,0.10739999999987049
445,1,0.2,0.25,-35.0,-1,1.0,0.5602999999998701
446,1,0.2,0.25,35.0,1,1.0,0.28369899999984227
447,1,0.2,0.0625,-35.0,1,0.0,1.2501999999999498
448,1,0.2,0.25,35.0,1,1.0,0.18689999999992324
449,1,0.2,0.125,35.0,1,1.0,0.20010000000002037
450,1,0.2,0.0625,-35.0,1,0.0,0.18039999999996326
451,1,0.2,0.25,35.0,1,1.0,0.25749999999993634
452,1,0.2,1.0,35.0,1,1.0,0.17769999999973152
453,1,0.2,1.0,35.0,1,1.0,0.16429999999991196
454,1,0.2,1.0,-35.0,-1,1.0,0.36409999999978027
455,1,0.2,1.0,35.0,1,1.0,0.153999999999769
456,1,0.2,0.125,35.0,1,1.0,0.43069999999988795
457,1,0.2,0.25,-35.0,-1,1.0,0.29749999999989996
458,1,0.8,0.25,-35.0,-1,1.0,0.3308999999999287
459,1,0.8,0.0625,-35.0,1,0.0,0.14449999999987995
460,1,0.8,0.0625,35.0,1,1.0,0.18780000000015207
461,1,0.8,0.0625,-35.0,1,0.0,0.20119999999997162
462,1,0.8,0.0625,-35.0,1,0.0,0.23129999999991924
463,1,0.8,0.0,-35.0,1,0.0,0.15789999999992688
464,1,0.8,0.25,-35.0,1,0.0,0.141399999999976
465,1,0.8,0.25,-35.0,-1,1.0,0.2845999999999549
466,1,0.8,1.0,-35.0,-1,1.0,0.37849999999980355
467,1,0.8,0.0625,-35.0,1,0.0,0.46499999999969077
468,1,0.8,1.0,35.0,1,1.0,0.2886999999998352
469,1,0.8,0.0625,-35.0,1,0.0,0.24859999999989668
470,1,0.8,0.0625,-35.0,-1,1.0,0.6719000000000506
471,1,0.8,1.0,-35.0,-1,1.0,0.19909999999981665
472,1,0.8,0.0625,35.0,1,1.0,0.19209999999998217
473,1,0.8,0.0625,-35.0,1,0.0,0.2524999999998272
474,1,0.8,0.0625,-35.0,1,0.0,0.2555999999999585
475,1,0.8,1.0,-35.0,-1,1.0,0.21890000000007603
476,1,0.8,0.25,35.0,1,1.0,0.21239999999988868
477,1,0.8,0.25,-35.0,-1,1.0,0.34560000000010405
478,1,0.8,0.0,-35.0,1,0.0,0.21939999999995052
479,1,0.8,0.25,-35.0,-1,1.0,0.2425999999998112
480,1,0.8,0.125,-35.0,1,0.0,0.195699999999988
481,1,0.8,1.0,-35.0,-1,1.0,0.14609999999993306
482,1,0.8,0.125,35.0,1,1.0,0.2761999999997897
483,1,0.8,1.0,-35.0,-1,1.0,0.17629999999985557
484,1,0.8,1.0,-35.0,-1,1.0,0.2568999999998596
485,1,0.8,0.125,-35.0,1,0.0,0.26680000000010295
486,1,0.8,0.125,35.0,-1,0.0,0.28940000000011423
487,1,0.8,0.0625,-35.0,-1,1.0,0.2763999999999669
488,1,0.8,0.125,-35.0,-1,1.0,0.30979999999999563
489,1,0.8,0.25,-35.0,-1,1.0,0.3295999999998003
490,1,0.8,0.25,-35.0,-1,1.0,0.23319999999989705
491,1,0.8,0.0,-35.0,-1,1.0,0.49679999999989377
492,1,0.8,0.125,-35.0,-1,1.0,0.22709999999983665
493,1,0.8,1.0,-35.0,-1,1.0,0.24670000000014625
494,1,0.8,0.0625,35.0,1,1.0,0.44000000000005457
495,1,0.8,0.25,-35.0,-1,1.0,0.19669999999996435
496,1,0.8,0.0,-35.0,1,0.0,0.33019999999987704
497,1,0.8,0.25,35.0,1,1.0,0.2601999999999407
498,1,0.8,1.0,-35.0,-1,1.0,0.16749999999979082
499,1,0.8,0.25,-35.0,-1,1.0,0.2605999999998403
500,1,0.8,0.125,-35.0,-1,1.0,0.21060000000011314
501,1,0.8,0.125,-35.0,-1,1.0,0.264299999999821
502,1,0.8,0.125,35.0,1,1.0,0.6274999999998272
503,1,0.8,0.125,-35.0,-1,1.0,0.40429999999992106
504,1,0.8,0.0625,35.0,1,1.0,0.34760000000005675
505,1,0.8,0.0625,-35.0,1,0.0,0.3705999999999676
506,1,0.8,0.0625,35.0,1,1.0,0.32130000000006476
507,1,0.8,0.125,-35.0,-1,1.0,0.2481000000000222
508,1,0.8,0.25,-35.0,-1,1.0,0.21449999999981628
509,1,0.8,0.25,-35.0,-1,1.0,0.2643989999999121
510,1,0.8,0.0625,35.0,1,1.0,0.27789999999981774
511,1,0.8,0.0625,-35.0,-1,1.0,0.3818999999998596
512,1,0.8,0.0,-35.0,-1,1.0,0.22800000000006548
513,1,0.8,1.0,-35.0,-1,1.0,0.21869999999989886
514,1,0.8,0.0,-35.0,-1,1.0,0.2580000000000382
515,1,0.8,0.25,-35.0,-1,1.0,0.2682999999997264
516,1,0.8,0.0625,35.0,1,1.0,0.20810000000005857
517,1,0.8,0.25,-35.0,-1,1.0,0.258199999999988
518,1,0.8,0.25,-35.0,-1,1.0,0.23829999999998108
519,1,0.8,0.25,-35.0,-1,1.0,0.18539999999984502
520,1,0.8,1.0,-35.0,-1,1.0,0.1816999999998643
521,1,0.8,1.0,-35.0,-1,1.0,0.19889999999986685
522,1,0.8,1.0,-35.0,-1,1.0,0.18229999999994106
523,1,0.8,0.0625,-35.0,1,0.0,0.3186999999998079
524,1,0.8,0.0625,-35.0,-1,1.0,0.2153000000000702
525,1,0.8,0.0,35.0,1,1.0,2.095299999999952
526,1,0.8,0.0,-35.0,1,0.0,5.052400000000034
527,1,0.8,0.125,-35.0,1,0.0,0.39229999999997744
528,1,0.8,0.0625,-35.0,-1,1.0,7.588999999999942
529,1,0.8,0.0625,-35.0,-1,1.0,0.2625000000000455
530,1,0.8,0.0625,-35.0,-1,1.0,0.34249999999974534
531,1,0.8,0.125,-35.0,-1,1.0,0.20610000000010587
532,1,0.8,1.0,-35.0,-1,1.0,0.24969999999962056
533,1,0.8,0.0,-35.0,-1,1.0,0.4097999999999047
534,1,0.8,1.0,-35.0,-1,1.0,0.17649999999980537
535,1,0.8,1.0,-35.0,-1,1.0,0.2133000000001175
536,1,0.8,0.0,-35.0,1,0.0,2.813399999999774
537,1,0.8,0.25,-35.0,1,0.0,0.17699999999967986
538,1,0.8,0.125,-35.0,-1,1.0,0.2669999999998254
539,1,0.8,0.0625,-35.0,-1,1.0,0.3471999999997024
540,1,0.2,0.0625,35.0,1,1.0,0.47690000000011423
541,1,0.2,0.0625,35.0,1,1.0,0.4834000000000742
542,1,0.2,0.25,35.0,1,1.0,0.2508999999997741
543,1,0.2,0.25,35.0,1,1.0,0.2437999999999647
544,1,0.2,0.125,35.0,1,1.0,0.23390000000017608
545,1,0.2,0.0,35.0,1,1.0,0.29389999999989413
546,1,0.2,0.0625,35.0,1,1.0,0.3404000000000451
547,1,0.2,0.0625,35.0,1,1.0,0.29389999999989413
548,1,0.2,0.0625,35.0,1,1.0,0.34409899999991467
549,1,0.2,0.0625,35.0,1,1.0,0.23730000000000473
550,1,0.2,0.0,35.0,1,1.0,0.2744999999999891
551,1,0.2,0.125,35.0,1,1.0,0.3110999999998967
552,1,0.2,0.0625,35.0,1,1.0,0.3212999999998374
553,1,0.2,0.25,35.0,1,1.0,0.264299999999821
554,1,0.2,0.125,35.0,1,1.0,0.2943999999997686
555,1,0.2,0.25,-35.0,1,0.0,0.1544989999997597
556,1,0.2,1.0,35.0,1,1.0,0.2243999999998323
557,1,0.2,0.125,35.0,1,1.0,0.2318000000000211
558,1,0.2,0.125,35.0,1,1.0,0.28799999999978354
559,1,0.2,0.125,35.0,1,1.0,0.17129999999974643
560,1,0.2,0.25,-35.0,-1,1.0,0.4815000000000964
561,1,0.2,0.0625,35.0,1,1.0,0.4886999999998807
562,1,0.2,0.125,35.0,1,1.0,0.3249999999998181
563,1,0.2,0.25,35.0,1,1.0,0.22820000000001528
564,1,0.2,0.0,35.0,1,1.0,0.1515999999999167
565,1,0.2,1.0,35.0,1,1.0,0.18879999999967367
566,1,0.2,0.125,-35.0,1,0.0,0.27860000000009677
567,1,0.2,0.125,35.0,1,1.0,0.12850000000003092
568,1,0.2,0.125,-35.0,-1,1.0,0.6222999999999956
569,1,0.2,0.25,35.0,1,1.0,0.23909999999978027
570,1,0.2,1.0,35.0,1,1.0,0.23540000000002692
571,1,0.2,0.25,35.0,1,1.0,0.2519999999999527
572,1,0.2,0.25,35.0,1,1.0,0.3224999999999909
573,1,0.8,0.25,-35.0,1,0.0,0.19890000000009422
574,1,0.8,0.25,-35.0,-1,1.0,0.8122000000000753
575,1,0.8,0.0625,35.0,-1,0.0,0.32580000000007203
576,1,0.8,0.0,-35.0,1,0.0,0.30569999999988795
577,1,0.8,0.0625,-35.0,-1,1.0,0.5357999999996537
578,1,0.8,0.25,-35.0,-1,1.0,0.31920000000013715
579,1,0.8,1.0,-35.0,-1,1.0,0.24589999999989232
580,1,0.8,0.0,-35.0,1,0.0,0.2663999999997486
581,1,0.8,1.0,-35.0,-1,1.0,0.2197000000001026
582,1,0.8,0.25,-35.0,-1,1.0,0.2661000000000513
583,1,0.8,0.25,-35.0,-1,1.0,0.23009999999976571
584,1,0.8,0.0625,-35.0,-1,1.0,0.383199999999988
585,1,0.8,0.25,-35.0,-1,1.0,0.22649999999998727
586,1,0.8,1.0,-35.0,-1,1.0,0.22039999999992688
587,1,0.8,0.0,35.0,1,1.0,0.18319999999994252
588,1,0.8,1.0,-35.0,-1,1.0,0.19699999999988904
589,1,0.8,0.25,-35.0,-1,1.0,0.2664999999999509
590,1,0.8,0.0625,-35.0,1,0.0,1.1965999999999894
591,1,0.8,1.0,-35.0,-1,1.0,0.14670000000000982
592,1,0.8,0.125,-35.0,-1,1.0,0.46050000000013824
593,1,0.8,0.0,35.0,-1,0.0,0.23689999999987776
594,1,0.8,0.25,-35.0,-1,1.0,0.29369999999994434
595,1,0.8,1.0,35.0,1,1.0,0.2803999999998723
596,1,0.8,0.125,-35.0,-1,1.0,0.28379999999992833
597,1,0.8,0.0625,35.0,1,1.0,0.47709999999983665
598,1,0.8,0.25,-35.0,-1,1.0,0.23739999999997963
599,1,0.8,0.25,-35.0,-1,1.0,0.2204999999996744
600,1,0.8,0.0625,-35.0,-1,1.0,0.2575000000001637
601,1,0.8,0.125,-35.0,-1,1.0,0.2940000000000964
602,1,0.8,0.0625,35.0,1,1.0,0.550899999999956
603,1,0.8,0.125,35.0,1,1.0,0.5115000000000691
604,1,0.8,0.25,-35.0,-1,1.0,0.28130000000010114
605,1,0.8,1.0,-35.0,1,0.0,0.11789999999996326
606,1,0.8,0.125,-35.0,-1,1.0,0.3550999999999931
607,1,0.8,0.25,-35.0,-1,1.0,0.287900000000036
608,1,0.8,1.0,-35.0,-1,1.0,0.19800000000009277
609,1,0.8,0.125,-35.0,-1,1.0,0.24829999999974461
610,1,0.8,1.0,35.0,1,1.0,0.34789999999998145
611,1,0.8,1.0,-35.0,-1,1.0,0.18859999999972388
612,1,0.8,0.0625,-35.0,-1,1.0,0.10809999999992215
613,1,0.8,0.125,-35.0,-1,1.0,0.36830000000054497
614,1,0.8,0.0625,-35.0,-1,1.0,0.4218999999998232
615,1,0.2,0.25,35.0,1,1.0,0.3120000000003529
616,1,0.2,1.0,35.0,1,1.0,0.2885999999998603
617,1,0.2,0.25,35.0,1,1.0,0.24850000000014916
618,1,0.2,0.125,35.0,1,1.0,0.4651000000003478
619,1,0.2,1.0,35.0,1,1.0,0.2051000000001295
620,1,0.2,0.0625,35.0,1,1.0,0.35530000000017026
621,1,0.2,1.0,35.0,1,1.0,0.19550000000026557
622,1,0.2,0.125,35.0,1,1.0,0.2953000000002248
623,1,0.2,1.0,35.0,1,1.0,0.15210000000024593
624,1,0.2,0.25,35.0,1,1.0,0.2760000000002947
625,1,0.2,0.125,-35.0,1,0.0,0.32249999999976353
626,1,0.2,1.0,35.0,1,1.0,0.16879999999991924
627,1,0.2,0.0,35.0,1,1.0,7.645599999999831
628,1,0.2,0.0,35.0,1,1.0,0.2800000000002001
629,1,0.2,0.25,35.0,1,1.0,0.20600000000013097
630,1,0.2,0.125,35.0,1,1.0,0.2559000000001106
631,1,0.2,0.0625,-35.0,1,0.0,0.2927999999997155
632,1,0.2,0.125,35.0,1,1.0,0.16959999999971842
633,1,0.2,0.25,-35.0,-1,1.0,0.30650000000059663
634,1,0.2,0.25,35.0,1,1.0,0.25340000000051077
635,1,0.2,0.125,-35.0,-1,1.0,0.7932000000000698
636,1,0.2,0.125,35.0,1,1.0,0.3065999999998894
637,1,0.2,0.25,35.0,1,1.0,0.42330000000038126
638,1,0.2,0.0,35.0,1,1.0,4.6831999999999425
639,1,0.2,0.25,35.0,1,1.0,0.24990000000025248
640,1,0.2,1.0,-35.0,-1,1.0,0.24670000000014625
641,1,0.2,0.125,-35.0,-1,1.0,0.27340000000003783
642,1,0.2,1.0,35.0,1,1.0,0.14680000000043947
643,1,0.2,0.25,35.0,1,1.0,0.21679999999969368
644,1,0.8,0.125,-35.0,-1,1.0,0.41679999999996653
645,1,0.8,0.0,-35.0,1,0.0,0.450600000000577
646,1,0.8,1.0,-35.0,-1,1.0,0.2838000000001557
647,1,0.8,0.25,35.0,1,1.0,0.2869999999998072
648,1,0.8,0.0625,35.0,1,1.0,0.3905000000004293
649,1,0.8,0.25,-35.0,-1,1.0,0.2381000000000313
650,1,0.8,1.0,-35.0,-1,1.0,0.2977000000000771
651,1,0.8,1.0,-35.0,-1,1.0,0.2474000000001979
652,1,0.8,1.0,-35.0,-1,1.0,0.17130000000042855
653,1,0.8,0.0,-35.0,1,0.0,7.747499999999945
654,1,0.8,0.0625,35.0,-1,0.0,0.171100000000024
655,1,0.8,0.0,-35.0,1,0.0,9.687700000000405
656,1,0.8,0.0625,-35.0,-1,1.0,0.46509999999989304
657,1,0.8,0.125,-35.0,-1,1.0,0.3817000000003645
658,1,0.8,0.125,-35.0,-1,1.0,0.3485000000000582
659,1,0.8,1.0,35.0,1,1.0,0.32880000000022847
660,1,0.8,0.25,-35.0,-1,1.0,0.24499999999989086
661,1,0.8,0.25,-35.0,-1,1.0,0.2885000000005675
662,1,0.8,0.0625,-35.0,-1,1.0,0.22879999999986467
663,1,0.8,0.0625,-35.0,-1,1.0,0.3157990000004247
664,1,0.8,0.125,-35.0,-1,1.0,0.28520000000071377
665,1,0.8,0.0625,-35.0,-1,1.0,0.34209999999984575
666,1,0.8,0.0,-35.0,-1,1.0,0.2955000000001746
667,1,0.8,0.125,-35.0,-1,1.0,0.2721000000001368
668,1,0.8,1.0,35.0,1,1.0,0.3763000000003558
669,1,0.8,0.25,-35.0,-1,1.0,0.26279999999997017
670,1,0.8,0.0625,-35.0,-1,1.0,9.365600000000086
671,1,0.8,0.25,-35.0,-1,1.0,0.24279999999998836
672,1,0.8,1.0,-35.0,-1,1.0,0.23950000000058935
673,1,0.8,1.0,-35.0,-1,1.0,0.21610000000055152
674,1,0.8,0.125,-35.0,-1,1.0,2.533100000000104
675,1,0.8,1.0,-35.0,-1,1.0,0.19310000000041327
676,1,0.8,0.25,35.0,-1,0.0,0.43990000000030705
677,1,0.8,0.125,35.0,-1,0.0,3.973899999999958
678,1,0.8,0.25,-35.0,-1,1.0,0.24650000000019645
679,1,0.8,0.0625,-35.0,-1,1.0,28.376500000000306
680,1,0.8,0.25,-35.0,-1,1.0,0.2571000000002641
681,1,0.8,0.0625,-35.0,-1,1.0,0.5475000000001273
682,1,0.8,0.0625,-35.0,-1,1.0,0.3937999999998283
683,1,0.8,0.125,-35.0,-1,1.0,0.37740000000030705
684,1,0.8,0.125,-35.0,-1,1.0,19.55060000000003
685,1,0.8,1.0,35.0,-1,0.0,6.968299999999999
686,1,0.8,0.25,-35.0,-1,1.0,0.1979999999998654
687,1,0.8,1.0,-35.0,-1,1.0,0.23140000000057626
688,1,0.8,0.125,-35.0,-1,1.0,0.22839999999996508
689,1,0.8,1.0,-35.0,-1,1.0,0.26519999999982247
690,1,0.8,0.125,-35.0,-1,1.0,0.27180000000043947
691,1,0.8,1.0,-35.0,-1,1.0,0.20490000000017972
692,1,0.8,0.25,-35.0,-1,1.0,0.20200000000022555
693,1,0.8,0.25,35.0,-1,0.0,0.7624999999998181
694,1,0.8,0.0625,-35.0,1,0.0,4.42870000000039
695,1,0.8,0.0625,-35.0,-1,1.0,12.80219999999963
696,1,0.8,0.0625,-35.0,-1,1.0,0.40619999999989886
697,1,0.8,0.25,-35.0,-1,1.0,0.2557999999999083
698,1,0.8,0.0625,-35.0,-1,1.0,0.7725000000000364
699,1,0.8,1.0,35.0,1,1.0,0.3767000000002554
700,1,0.2,1.0,35.0,1,1.0,0.32280000000037035
701,1,0.2,0.125,35.0,1,1.0,14.556300000000192
702,1,0.2,1.0,35.0,1,1.0,0.3764000000001033
703,1,0.2,0.125,35.0,-1,0.0,28.086499999999887
704,1,0.2,0.25,35.0,1,1.0,0.42780000000038854
705,1,0.2,0.25,35.0,1,1.0,0.5344000000004598
706,1,0.2,0.125,35.0,1,1.0,27.120600000000195
707,1,0.2,0.125,35.0,1,1.0,0.38110000000051514
708,1,0.2,0.25,35.0,1,1.0,0.3312000000005355
709,1,0.2,0.125,-35.0,-1,1.0,0.6747000000000298
710,1,0.2,0.0,-0.0,0,0.0,59.934600000000046
711,1,0.2,1.0,35.0,1,1.0,0.11950000000024374
712,1,0.2,0.125,35.0,1,1.0,0.5323000000003049
713,1,0.2,1.0,35.0,1,1.0,0.4556000000006861
714,1,0.2,0.0,35.0,-1,0.0,26.412300000000414
715,1,0.2,0.125,-35.0,-1,1.0,6.789600000000064
716,1,0.2,0.125,35.0,-1,0.0,41.27299999999968
717,1,0.2,1.0,35.0,1,1.0,39.720700000000306
718,1,0.2,0.125,35.0,-1,0.0,0.5815000000002328
719,1,0.2,0.0625,35.0,-1,0.0,34.13490000000047
720,1,0.2,0.25,35.0,-1,0.0,27.69230000000016
721,1,0.2,0.0625,35.0,-1,0.0,7.043000000000575
1,2,0.5,0.0625,35.0,1,1.0,0.3389
2,2,0.5,1.0,-35.0,-1,1.0,0.21550000000000047
3,2,0.5,0.25,35.0,1,1.0,0.29639999999999844
4,2,0.5,0.125,35.0,1,1.0,0.3269000000000002
5,2,0.5,1.0,-35.0,-1,1.0,0.18260000000000076
6,2,0.5,1.0,-35.0,1,0.0,0.11840000000000117
7,2,0.5,0.25,-35.0,-1,1.0,0.6737000000000002
8,2,0.5,0.0625,35.0,1,1.0,0.30449999999999733
9,2,0.5,0.0625,35.0,1,1.0,0.9403999999999968
10,2,0.5,0.125,35.0,1,1.0,0.24019999999999442
11,2,0.5,0.125,35.0,1,1.0,0.2955000000000041
12,2,0.5,0.25,35.0,1,1.0,0.2908999999999935
13,2,0.5,0.0625,-35.0,1,0.0,0.20319999999999538
14,2,0.5,0.0625,35.0,1,1.0,0.190400000000011
15,2,0.5,1.0,-35.0,-1,1.0,0.5087999999999937
16,2,0.5,0.25,35.0,1,1.0,0.1851000000000056
17,2,0.5,0.0625,35.0,1,1.0,0.277000000000001
18,2,0.5,0.0,-35.0,1,0.0,0.3217999999999961
19,2,0.5,0.0625,-35.0,-1,1.0,0.330600000000004
20,2,0.5,1.0,35.0,-1,0.0,0.9433999999999969
21,2,0.5,0.0,-35.0,1,0.0,0.23689999999999145
22,2,0.5,0.25,-35.0,-1,1.0,0.22050000000000125
23,2,0.5,0.25,-35.0,-1,1.0,0.2406999999999897
24,2,0.5,0.125,35.0,1,1.0,0.2627999999999844
25,2,0.5,0.0,-35.0,1,0.0,0.17709999999999582
26,2,0.5,1.0,35.0,1,1.0,0.22169999999999845
27,2,0.5,0.25,-35.0,-1,1.0,0.18529999999999802
28,2,0.5,0.0625,-35.0,1,0.0,28.88810000000001
29,2,0.5,1.0,-35.0,-1,1.0,0.21739999999999782
30,2,0.5,0.25,-35.0,-1,1.0,0.20050000000000523
31,2,0.5,0.0625,35.0,1,1.0,0.8255000000000052
32,2,0.5,0.0625,-35.0,-1,1.0,0.15389999999999304
33,2,0.5,0.0625,-35.0,1,0.0,0.26320000000001187
34,2,0.5,0.25,35.0,1,1.0,0.47509999999999764
35,2,0.5,1.0,-35.0,-1,1.0,0.20939999999998804
36,2,0.5,0.0625,35.0,1,1.0,0.24250000000000682
37,2,0.5,0.125,35.0,1,1.0,0.32800000000000296
38,2,0.5,0.25,35.0,1,1.0,0.19470000000001164
39,2,0.5,1.0,35.0,1,1.0,0.1851000000000056
40,2,0.5,0.0,35.0,1,1.0,0.4934999999999832
41,2,0.5,0.0,35.0,1,1.0,0.26739999999998076
42,2,0.5,0.25,35.0,1,1.0,0.1758000000000095
43,2,0.5,0.0,-35.0,1,0.0,0.21649999999999636
44,2,0.5,0.0,-35.0,1,0.0,0.17449999999999477
45,2,0.5,0.0,-35.0,-1,1.0,7.102000000000004
46,2,0.5,1.0,-35.0,-1,1.0,0.2477000000000089
47,2,0.5,0.25,35.0,1,1.0,0.26030000000000086
48,2,0.5,0.125,35.0,1,1.0,0.2763999999999953
49,2,0.5,0.0,35.0,1,1.0,0.20609999999999218
50,2,0.5,0.0625,-35.0,1,0.0,0.16220000000001278
51,2,0.5,0.0,-35.0,1,0.0,0.5354999999999848
52,2,0.5,0.125,-35.0,1,0.0,0.11089999999998668
53,2,0.5,0.0625,35.0,1,1.0,7.870900000000006
54,2,0.5,0.0625,35.0,1,1.0,0.19079999999999586
55,2,0.5,0.0625,35.0,1,1.0,0.23269999999999413
56,2,0.5,0.0,35.0,1,1.0,0.2928999999999746
57,2,0.5,1.0,-35.0,-1,1.0,0.20309999999997785
58,2,0.5,0.0,35.0,1,1.0,0.45419999999998595
59,2,0.5,0.0,35.0,1,1.0,0.1810999999999865
60,2,0.5,0.125,-35.0,-1,1.0,0.4346000000000174
61,2,0.5,0.25,35.0,1,1.0,0.2269000000000574
62,2,0.5,0.0625,35.0,1,1.0,0.5091000000000463
63,2,0.5,1.0,35.0,1,1.0,0.2076000000000704
64,2,0.5,1.0,35.0,1,1.0,0.22160000000002356
65,2,0.5,1.0,-35.0,-1,1.0,0.18640000000004875
66,2,0.5,0.25,35.0,1,1.0,0.1745999999999981
67,2,0.5,0.0625,35.0,1,1.0,0.2247000000000412
68,2,0.5,0.25,-35.0,1,0.0,0.09700000000003683
69,2,0.5,1.0,35.0,1,1.0,0.19360000000000355
70,2,0.5,0.125,-35.0,-1,1.0,0.7144000000000119
71,2,0.5,0.0,-35.0,1,0.0,0.20160000000004175
72,2,0.5,0.0,35.0,1,1.0,0.34800000000007003
73,2,0.5,0.125,-35.0,1,0.0,0.18060000000002674
74,2,0.5,0.25,-35.0,-1,1.0,0.21409999999997353
75,2,0.5,1.0,35.0,1,1.0,0.17670000000003938
76,2,0.5,1.0,35.0,1,1.0,0.2386000000000763
77,2,0.5,0.0625,-35.0,1,0.0,0.18779999999998154
78,2,0.5,0.125,-35.0,-1,1.0,0.24330000000003338
79,2,0.5,0.0625,-35.0,1,0.0,0.2119000000000142
80,2,0.5,0.25,-35.0,-1,1.0,0.19769999999999754
81,2,0.5,1.0,-35.0,-1,1.0,0.20970000000005484
82,2,0.5,1.0,35.0,1,1.0,0.2669999999999959
83,2,0.5,0.125,-35.0,-1,1.0,0.20100000000002183
84,2,0.5,0.25,-35.0,-1,1.0,0.19420000000002346
85,2,0.5,0.25,-35.0,-1,1.0,0.19189999999997553
86,2,0.5,0.25,35.0,1,1.0,0.2872000000000412
87,2,0.5,1.0,35.0,1,1.0,0.264500000000055
88,2,0.5,0.25,-35.0,-1,1.0,0.1755000000000564
89,2,0.5,0.125,-35.0,-1,1.0,0.34400000000005093
90,2,0.5,0.0625,35.0,1,1.0,0.2366999999999848
91,2,0.8,1.0,-35.0,-1,1.0,0.18470000000002074
92,2,0.8,1.0,-35.0,-1,1.0,0.21809999999999263
93,2,0.8,0.0625,35.0,-1,0.0,2.133299999999963
94,2,0.8,0.0625,-35.0,-1,1.0,0.272700000000043
95,2,0.8,1.0,35.0,1,1.0,0.20800000000002683
96,2,0.8,0.0625,-35.0,-1,1.0,0.5022999999999911
97,2,0.8,0.0,-35.0,1,0.0,0.309599999999989
98,2,0.8,0.25,35.0,-1,0.0,0.20209999999997308
99,2,0.8,0.0625,35.0,1,1.0,0.41540000000003374
100,2,0.8,0.0625,-35.0,1,0.0,0.20770000000010214
101,2,0.8,0.25,-35.0,-1,1.0,0.2506000000000199
102,2,0.8,0.125,-35.0,-1,1.0,0.20750000000003865
103,2,0.8,0.0625,-35.0,-1,1.0,0.1827000000000112
104,2,0.8,0.125,-35.0,-1,1.0,0.18960000000009813
105,2,0.8,0.0625,-35.0,-1,1.0,0.1833000000000311
106,2,0.8,1.0,-35.0,-1,1.0,0.16280000000000427
107,2,0.8,0.125,-35.0,-1,1.0,0.17650000000003274
108,2,0.8,1.0,-35.0,-1,1.0,0.15660000000008267
109,2,0.8,0.0,-35.0,1,0.0,7.022800000000018
110,2,0.8,0.125,-35.0,-1,1.0,0.21190000000007103
111,2,0.8,0.0625,-35.0,-1,1.0,0.42350000000004684
112,2,0.8,1.0,-35.0,-1,1.0,0.20330000000001291
113,2,0.8,0.0,-35.0,1,0.0,3.934500000000014
114,2,0.8,0.0625,-35.0,-1,1.0,0.2574000000000751
115,2,0.8,0.25,-35.0,-1,1.0,0.25110000000006494
116,2,0.8,0.25,-35.0,-1,1.0,0.24080000000003565
117,2,0.8,1.0,-35.0,-1,1.0,0.14340000000004238
118,2,0.8,0.0625,35.0,1,1.0,0.5281000000000518
119,2,0.8,0.0625,-35.0,1,0.0,0.21410000000003038
120,2,0.8,0.25,-35.0,-1,1.0,0.2440000000000282
121,2,0.8,0.25,-35.0,-1,1.0,0.31970000000001164
122,2,0.8,0.0625,-35.0,1,0.0,0.42250000000001364
123,2,0.8,0.125,-35.0,-1,1.0,0.3978999999999928
124,2,0.8,1.0,35.0,1,1.0,0.2615000000000691
125,2,0.8,1.0,-35.0,-1,1.0,0.15190000000001191
126,2,0.8,1.0,-35.0,-1,1.0,0.18640000000004875
127,2,0.8,1.0,-35.0,-1,1.0,0.1482000000000312
128,2,0.8,0.25,-35.0,-1,1.0,0.188699999999983
129,2,0.8,0.0625,-35.0,-1,1.0,0.30570000000000164
130,2,0.8,0.125,-35.0,-1,1.0,0.19580000000007658
131,2,0.8,0.0625,35.0,1,1.0,0.42240000000003874
132,2,0.8,0.25,-35.0,-1,1.0,0.16800000000000637
133,2,0.8,0.125,35.0,1,1.0,0.3476990000000342
134,2,0.8,0.25,-35.0,-1,1.0,0.19889999999998054
135,2,0.2,0.25,35.0,1,1.0,0.19090000000005602
136,2,0.2,0.0,35.0,1,1.0,0.3210000000000264
137,2,0.2,0.125,35.0,1,1.0,0.28190000000000737
138,2,0.2,1.0,35.0,1,1.0,0.30600000000004
139,2,0.2,0.0625,35.0,1,1.0,0.2878999999999792
140,2,0.2,0.0625,-35.0,1,0.0,0.13450000000005957
141,2,0.2,0.0625,35.0,1,1.0,0.38400000000001455
142,2,0.2,0.125,-35.0,-1,1.0,0.9354000000000724
143,2,0.2,1.0,35.0,1,1.0,0.21489999999994325
144,2,0.2,0.125,35.0,1,1.0,0.33979999999996835
145,2,0.2,0.0,35.0,1,1.0,0.26729999999997744
146,2,0.2,0.125,35.0,1,1.0,0.21039999999993597
147,2,0.2,1.0,35.0,1,1.0,0.233600000000024
148,2,0.2,0.25,35.0,1,1.0,0.3188000000000102
149,2,0.2,0.0,-35.0,1,0.0,0.27460000000007767
150,2,0.2,0.25,35.0,1,1.0,0.23820000000000618
151,2,0.2,1.0,35.0,1,1.0,0.19650000000001455
152,2,0.2,1.0,35.0,1,1.0,0.21260000000006585
153,2,0.2,0.0625,35.0,1,1.0,0.18230000000005475
154,2,0.2,0.125,35.0,1,1.0,0.25240000000007967
155,2,0.2,1.0,35.0,1,1.0,0.20320000000003802
156,2,0.2,0.125,-35.0,-1,1.0,0.38440000000002783
157,2,0.2,0.25,-35.0,-1,1.0,0.1975000000001046
158,2,0.2,0.25,-35.0,-1,1.0,0.34170000000005984
159,2,0.2,0.125,35.0,1,1.0,0.3204000000000633
160,2,0.2,0.25,35.0,1,1.0,0.2903999999999769
161,2,0.2,0.0,35.0,-1,0.0,3.088899999999967
162,2,0.2,0.0625,-35.0,1,0.0,0.378400000000056
163,2,0.2,0.125,35.0,1,1.0,0.22879999999997835
164,2,0.2,1.0,35.0,1,1.0,0.28389999999990323
165,2,0.2,0.25,35.0,1,1.0,0.2902000000000271
166,2,0.2,0.25,35.0,1,1.0,0.21720000000004802
167,2,0.2,0.0,35.0,1,1.0,0.35140000000001237
168,2,0.2,0.25,35.0,1,1.0,0.21260000000006585
169,2,0.2,0.125,35.0,1,1.0,0.22699999999997544
170,2,0.2,0.125,-35.0,-1,1.0,0.34370000000001255
171,2,0.2,1.0,35.0,1,1.0,0.20250000000010004
172,2,0.2,0.25,35.0,1,1.0,0.26539999999999964
173,2,0.2,1.0,35.0,1,1.0,0.23430000000007567
174,2,0.2,0.125,35.0,1,1.0,0.2866999999999962
175,2,0.2,0.0,35.0,-1,0.0,0.42480000000000473
176,2,0.2,0.25,35.0,1,1.0,0.21390000000008058
177,2,0.2,0.125,35.0,1,1.0,0.21650000000011005
178,2,0.2,0.0625,35.0,1,1.0,0.23699999999996635
179,2,0.2,1.0,35.0,1,1.0,0.17180000000007567
180,2,0.2,0.125,35.0,-1,0.0,0.14210000000002765
181,2,0.2,0.25,35.0,1,1.0,0.3927999999999656
182,2,0.2,0.125,35.0,1,1.0,0.27520000000004075
183,2,0.2,0.25,35.0,1,1.0,0.24760000000003402
184,2,0.2,0.0625,35.0,1,1.0,0.1897999999999911
185,2,0.2,0.0625,35.0,1,1.0,0.51400000000001
186,2,0.2,0.0625,35.0,1,1.0,0.3005000000000564
187,2,0.2,1.0,35.0,1,1.0,0.13670000000001892
188,2,0.2,0.25,35.0,1,1.0,0.20090000000016062
189,2,0.2,0.0625,-35.0,1,0.0,0.22400000000004638
190,2,0.2,0.125,35.0,1,1.0,0.23900000000003274
191,2,0.2,0.0625,-35.0,-1,1.0,0.5620000000000118
192,2,0.2,0.0,35.0,-1,0.0,2.305400000000077
193,2,0.2,1.0,35.0,1,1.0,0.125
194,2,0.2,0.0625,-35.0,-1,1.0,0.3586999999999989
195,2,0.2,0.125,35.0,1,1.0,0.24710000000004584
196,2,0.2,0.125,35.0,1,1.0,0.23210000000005948
197,2,0.2,0.0,35.0,1,1.0,0.46709999999995944
198,2,0.2,0.25,35.0,1,1.0,0.2898000000000138
199,2,0.2,0.25,35.0,1,1.0,0.3066000000000031
200,2,0.2,0.25,-35.0,-1,1.0,0.2035000000000764
201,2,0.2,0.25,35.0,1,1.0,0.23820000000000618
202,2,0.2,1.0,35.0,1,1.0,0.27740000000005693
203,2,0.2,0.125,35.0,1,1.0,0.31939999999997326
204,2,0.2,0.25,35.0,1,1.0,0.2583000000000766
205,2,0.2,1.0,35.0,1,1.0,0.1916999999999689
206,2,0.2,0.0625,35.0,1,1.0,0.22300000000007003
207,2,0.2,0.0625,-35.0,1,0.0,0.11100000000010368
208,2,0.2,0.125,35.0,1,1.0,0.27320000000008804
209,2,0.2,0.125,-35.0,1,0.0,0.16189999999994598
210,2,0.2,0.0625,35.0,1,1.0,0.22829999999999018
211,2,0.2,0.0625,35.0,1,1.0,0.2845000000000937
212,2,0.2,1.0,35.0,1,1.0,0.10510000000010677
213,2,0.2,0.25,35.0,1,1.0,0.28759999999999764
214,2,0.2,0.125,35.0,1,1.0,0.31920000000002346
215,2,0.2,0.125,-35.0,-1,1.0,0.5696000000000367
216,2,0.2,0.0,35.0,1,1.0,0.21029999999996107
217,2,0.2,0.125,35.0,1,1.0,0.18290000000001783
218,2,0.2,0.25,35.0,1,1.0,0.2315000000000964
219,2,0.2,1.0,35.0,1,1.0,0.12930000000005748
220,2,0.2,0.0625,35.0,1,1.0,0.31310000000007676
221,2,0.8,0.0,-35.0,1,0.0,0.26670000000001437
222,2,0.8,0.25,-35.0,-1,1.0,0.32970000000000255
223,2,0.8,0.0,-35.0,1,0.0,0.18470000000002074
224,2,0.8,0.0625,-35.0,-1,1.0,0.3099000000000842
225,2,0.8,0.0625,-35.0,-1,1.0,0.3028000000000475
226,2,0.8,0.0,35.0,-1,0.0,0.35159999999996217
227,2,0.8,0.25,-35.0,-1,1.0,0.2438000000000784
228,2,0.8,1.0,-35.0,-1,1.0,0.19299999999998363
229,2,0.8,0.125,-35.0,-1,1.0,0.25339999999994234
230,2,0.8,0.0,-35.0,-1,1.0,0.3203000000000884
231,2,0.8,0.0625,-35.0,-1,1.0,0.23349999999993543
232,2,0.8,0.25,35.0,1,1.0,0.16970000000003438
233,2,0.8,0.0625,-35.0,-1,1.0,0.2178000000000111
234,2,0.8,0.0625,-35.0,-1,1.0,0.2557000000000471
235,2,0.8,1.0,35.0,1,1.0,0.23820000000000618
236,2,0.8,0.25,35.0,1,1.0,0.22420000000010987
237,2,0.8,0.25,-35.0,-1,1.0,0.18809999999996307
238,2,0.8,0.25,-35.0,-1,1.0,0.1976000000000795
239,2,0.8,0.25,35.0,1,1.0,0.5597000000000207
240,2,0.8,0.0,-35.0,1,0.0,0.20219999999994798
241,2,0.8,1.0,35.0,1,1.0,0.5910999999999831
242,2,0.8,0.125,-35.0,-1,1.0,0.1716000000000122
243,2,0.8,0.25,-35.0,-1,1.0,0.23630000000014206
244,2,0.8,0.0625,-35.0,-1,1.0,0.20800000000008367
245,2,0.8,0.0625,35.0,-1,0.0,0.2905000000000655
246,2,0.8,1.0,35.0,1,1.0,0.3273999999998978
247,2,0.8,0.0,-35.0,1,0.0,0.31890000000009877
248,2,0.8,1.0,35.0,1,1.0,0.2988000000000284
249,2,0.8,0.25,-35.0,-1,1.0,0.47030000000006567
250,2,0.8,0.25,-35.0,-1,1.0,0.3445000000000391
251,2,0.8,0.25,-35.0,-1,1.0,0.18020000000001346
252,2,0.8,0.25,-35.0,-1,1.0,0.22860000000002856
253,2,0.8,0.25,-35.0,-1,1.0,0.24279999999998836
254,2,0.8,0.25,-35.0,-1,1.0,0.1891000000001668
255,2,0.8,0.25,-35.0,-1,1.0,0.23689999999999145
256,2,0.8,1.0,-35.0,-1,1.0,0.1937000000000353
257,2,0.8,1.0,35.0,1,1.0,0.3227999999999156
258,2,0.8,1.0,-35.0,-1,1.0,0.13549999999997908
259,2,0.8,1.0,-35.0,-1,1.0,0.17410000000006676
260,2,0.8,1.0,-35.0,-1,1.0,0.17999999999994998
261,2,0.8,0.25,-35.0,-1,1.0,0.21739999999999782
262,2,0.8,0.125,-35.0,-1,1.0,0.15030000000001564
263,2,0.8,0.125,-35.0,-1,1.0,0.23130000000003292
264,2,0.8,0.0,-35.0,-1,1.0,0.14670000000000982
265,2,0.8,1.0,-35.0,-1,1.0,0.19390000000009877
266,2,0.8,0.0625,-35.0,-1,1.0,0.3505999999999858
267,2,0.8,0.0,-35.0,-1,1.0,0.4175000000000182
268,2,0.8,0.0625,-35.0,-1,1.0,0.5105000000000928
269,2,0.8,0.25,-35.0,-1,1.0,0.3349000000000615
270,2,0.8,1.0,-35.0,-1,1.0,0.16700000000003
271,2,0.8,0.25,-35.0,-1,1.0,0.2280999999999267
272,2,0.8,0.0625,-35.0,1,0.0,5.505900000000111
273,2,0.8,0.25,-35.0,-1,1.0,0.2416000000000622
274,2,0.8,1.0,-35.0,-1,1.0,0.2014000000000351
275,2,0.8,1.0,-35.0,-1,1.0,0.15670000000000073
276,2,0.8,0.125,-35.0,1,0.0,0.10800000000006094
277,2,0.8,0.0,35.0,-1,0.0,0.2561999999999216
278,2,0.8,0.125,35.0,-1,0.0,0.2074999999999818
279,2,0.8,1.0,-35.0,-1,1.0,0.1534000000000333
280,2,0.8,1.0,-35.0,-1,1.0,0.1229000000000724
281,2,0.8,0.0625,-35.0,-1,1.0,0.20109999999999673
282,2,0.8,1.0,-35.0,-1,1.0,0.17999999999994998
283,2,0.8,0.0,-35.0,-1,1.0,0.3263000000000602
284,2,0.8,1.0,-35.0,-1,1.0,0.14629999999999654
285,2,0.8,0.125,-35.0,-1,1.0,0.3349000000000615
286,2,0.8,0.125,-35.0,-1,1.0,0.2193000000000893
287,2,0.8,0.0625,-35.0,-1,1.0,0.20310000000006312
288,2,0.8,0.0,-35.0,-1,1.0,0.5692000000000235
289,2,0.8,0.0,-35.0,-1,1.0,10.853000000000065
290,2,0.8,0.0625,-35.0,-1,1.0,0.3972999999999729
291,2,0.8,0.0625,-35.0,-1,1.0,0.47250000000008185
292,2,0.8,0.125,-35.0,1,0.0,0.09860000000014679
293,2,0.8,0.0,-35.0,-1,1.0,0.16800000000000637
294,2,0.8,0.25,-35.0,-1,1.0,0.17499999999995453
295,2,0.8,1.0,-35.0,-1,1.0,0.25530000000003383
296,2,0.8,0.125,35.0,1,1.0,0.36829999999997654
297,2,0.8,0.0625,-35.0,-1,1.0,0.2516000000000531
298,2,0.2,0.25,35.0,1,1.0,0.3250000000000455
299,2,0.2,0.0,35.0,-1,0.0,0.22489999999993415
300,2,0.2,0.25,35.0,1,1.0,0.28510000000005675
301,2,0.2,0.25,-35.0,-1,1.0,0.15849999999977626
302,2,0.2,0.125,35.0,1,1.0,0.40239999999994325
303,2,0.2,0.125,35.0,-1,0.0,0.13859999999999673
304,2,0.2,0.25,35.0,1,1.0,0.3288000000000011
305,2,0.2,1.0,-35.0,-1,1.0,0.17239999999969768
306,2,0.2,1.0,-35.0,-1,1.0,0.1557999999997719
307,2,0.2,0.0625,-35.0,-1,1.0,0.2727999999999611
308,2,0.2,0.0,35.0,1,1.0,0.4125000000001364
309,2,0.2,0.125,35.0,1,1.0,0.4956999999999425
310,2,0.2,0.25,-35.0,-1,1.0,0.13589999999999236
311,2,0.2,0.25,35.0,-1,0.0,0.14219999999977517
312,2,0.2,1.0,-35.0,-1,1.0,0.1531999999999698
313,2,0.2,0.0625,35.0,1,1.0,0.3324999999999818
314,2,0.2,0.125,-35.0,-1,1.0,0.21249999999986358
315,2,0.2,0.125,35.0,-1,0.0,0.6827999999998156
316,2,0.2,0.0625,-35.0,-1,1.0,0.36629999999968277
317,2,0.2,0.0,35.0,-1,0.0,0.16040000000020882
318,2,0.2,0.0625,35.0,1,1.0,0.059700000000020736
319,2,0.2,0.125,35.0,1,1.0,0.27329999999983556
320,2,0.2,0.125,-35.0,-1,1.0,0.30320000000006075
321,2,0.8,0.25,-35.0,-1,1.0,0.2199000000000524
322,2,0.8,1.0,-35.0,-1,1.0,0.16669999999999163
323,2,0.8,0.125,-35.0,-1,1.0,0.18389999999999418
324,2,0.8,0.25,-35.0,-1,1.0,0.17340000000012878
325,2,0.8,1.0,-35.0,-1,1.0,0.16669999999976426
326,2,0.8,0.0625,-35.0,-1,1.0,0.22040000000015425
327,2,0.8,0.0,35.0,-1,0.0,0.1635999999998603
328,2,0.8,0.125,-35.0,-1,1.0,0.18039999999996326
329,2,0.8,0.0625,-35.0,-1,1.0,0.21029999999996107
330,2,0.8,0.125,-35.0,-1,1.0,0.17059999999969477
331,2,0.8,0.25,-35.0,-1,1.0,0.16419999999993706
332,2,0.8,0.25,35.0,1,1.0,0.23730000000000473
333,2,0.8,0.25,35.0,1,1.0,0.24060000000008586
334,2,0.8,1.0,-35.0,-1,1.0,0.21079999999983556
335,2,0.8,0.25,-35.0,-1,1.0,0.20129999999994652
336,2,0.8,1.0,-35.0,-1,1.0,0.1740999999997257
337,2,0.8,0.25,-35.0,-1,1.0,0.16429999999991196
338,2,0.8,0.125,-35.0,-1,1.0,0.18449999999984357
339,2,0.8,0.0625,-35.0,-1,1.0,0.22759900000005473
340,2,0.8,1.0,-35.0,-1,1.0,0.17079999999987194
341,2,0.8,0.125,-35.0,-1,1.0,0.23789999999985412
342,2,0.8,0.0625,-35.0,-1,1.0,0.18109999999978754
343,2,0.8,1.0,-35.0,-1,1.0,0.15109999999981483
344,2,0.8,0.0,-35.0,-1,1.0,0.17799999999988358
345,2,0.8,0.0,-35.0,-1,1.0,0.5346000000001823
346,2,0.8,0.25,35.0,1,1.0,0.2079999999998563
347,2,0.8,0.125,-35.0,-1,1.0,0.3010999999999058
348,2,0.8,1.0,-35.0,-1,1.0,0.20529999999985193
349,2,0.8,0.0,-35.0,1,0.0,3.46530000000007
350,2,0.8,0.0625,-35.0,-1,1.0,0.25530000000003383
351,2,0.8,0.125,-35.0,-1,1.0,0.17499999999972715
352,2,0.8,0.0,-35.0,1,0.0,0.3954000000001088
353,2,0.8,1.0,-35.0,-1,1.0,0.18559999999979482
354,2,0.8,0.25,-35.0,-1,1.0,0.16840000000001965
355,2,0.8,0.0,-35.0,1,0.0,0.198598999999831
356,2,0.8,0.0625,-35.0,-1,1.0,0.19869999999991705
357,2,0.8,0.125,-35.0,-1,1.0,0.2919999999999163
358,2,0.8,0.25,35.0,1,1.0,0.25539899999989757
359,2,0.8,0.0,-35.0,1,0.0,0.6555999999998221
360,2,0.2,0.25,35.0,1,1.0,0.4487999999996646
361,2,0.2,0.125,35.0,1,1.0,0.6722999999999502
362,2,0.2,0.125,35.0,1,1.0,0.332300000000032
363,2,0.2,0.0625,35.0,1,1.0,0.4662999999998192
364,2,0.2,0.0,35.0,1,1.0,4.002299999999877
365,2,0.2,0.25,-35.0,-1,1.0,0.1657999999997628
366,2,0.2,0.25,-35.0,-1,1.0,0.33589999999981046
367,2,0.2,0.125,35.0,1,1.0,0.30599999999981264
368,2,0.2,0.0,35.0,1,1.0,0.45289999999999964
369,2,0.2,0.125,35.0,1,1.0,0.4093000000000302
370,2,0.2,0.125,35.0,1,1.0,0.31019999999966785
371,2,0.2,1.0,35.0,1,1.0,0.2459999999998672
372,2,0.2,0.0,35.0,1,1.0,0.9130000000000109
373,2,0.2,1.0,35.0,1,1.0,0.2769999999998163
374,2,0.2,0.0625,35.0,1,1.0,0.31649999999967804
375,2,0.2,1.0,35.0,1,1.0,0.24649999999996908
376,2,0.2,0.25,35.0,1,1.0,0.3003999999998541
377,2,0.2,0.25,35.0,1,1.0,0.21969999999987522
378,2,0.2,0.125,35.0,1,1.0,0.1733999999999014
379,2,0.2,1.0,35.0,1,1.0,0.1638989999999012
380,2,0.2,0.0625,35.0,1,1.0,0.33039999999982683
381,2,0.2,0.0625,35.0,1,1.0,0.310399999999845
382,2,0.2,0.125,35.0,1,1.0,0.29349999999999454
383,2,0.2,1.0,35.0,1,1.0,0.2967999999998483
384,2,0.2,0.0,35.0,1,1.0,0.1938000000000102
385,2,0.2,0.25,35.0,1,1.0,0.27369999999996253
386,2,0.2,0.25,35.0,1,1.0,0.16699999999991633
387,2,0.2,0.0625,35.0,1,1.0,0.2403999999999087
388,2,0.2,0.0,35.0,1,1.0,2.7573999999999614
389,2,0.2,0.25,35.0,1,1.0,0.21479999999996835
390,2,0.2,0.125,35.0,1,1.0,0.28739999999993415
391,2,0.2,0.0625,35.0,1,1.0,0.35459999999966385
392,2,0.2,0.0625,35.0,1,1.0,0.2742999999998119
393,2,0.2,0.125,35.0,1,1.0,0.27739999999994325
394,2,0.2,0.25,35.0,1,1.0,0.17069999999989705
395,2,0.2,1.0,35.0,1,1.0,0.20469999999977517
396,2,0.2,0.0625,35.0,1,1.0,0.26749999999992724
397,2,0.2,0.125,35.0,1,1.0,0.30150000000003274
398,2,0.2,0.125,35.0,1,1.0,0.2910999999996875
399,2,0.2,0.125,-35.0,1,0.0,0.19139999999993051
400,2,0.2,0.25,35.0,1,1.0,0.45810000000005857
401,2,0.2,0.125,35.0,1,1.0,0.30120000000010805
402,2,0.2,1.0,35.0,1,1.0,0.2883999999999105
403,2,0.2,0.125,35.0,1,1.0,0.2850999999998294
404,2,0.2,0.25,35.0,1,1.0,0.3215999999997621
405,2,0.2,0.125,35.0,1,1.0,0.24149999999963256
406,2,0.2,0.25,-35.0,-1,1.0,0.24169999999980973
407,2,0.2,0.25,35.0,1,1.0,0.3817999999998847
408,2,0.2,0.25,35.0,1,1.0,0.5751999999997679
409,2,0.2,1.0,35.0,1,1.0,0.27149999999983265
410,2,0.8,0.0625,-35.0,-1,1.0,0.19499999999993634
411,2,0.8,0.0625,-35.0,-1,1.0,0.17849999999998545
412,2,0.8,0.25,-35.0,-1,1.0,0.20180000000004839
413,2,0.8,0.0625,-35.0,-1,1.0,0.34180000000014843
414,2,0.8,1.0,-35.0,-1,1.0,0.17899999999985994
415,2,0.8,1.0,35.0,1,1.0,0.5653999999999542
416,2,0.8,0.25,35.0,-1,0.0,0.17589999999995598
417,2,0.8,1.0,35.0,1,1.0,0.3023999999998068
418,2,0.8,0.125,-35.0,-1,1.0,0.2520999999999276
419,2,0.8,0.0,35.0,-1,0.0,0.3790009999997892
420,2,0.8,0.0625,-35.0,-1,1.0,0.2660009999999602
421,2,0.8,0.0625,35.0,-1,0.0,0.28920099999982085
422,2,0.8,1.0,35.0,1,1.0,0.2794010000000071
423,2,0.8,0.25,-35.0,-1,1.0,0.18590100000005805
424,2,0.8,1.0,-35.0,-1,1.0,0.21279999999978827
425,2,0.8,1.0,-35.0,-1,1.0,0.1733009999998103
426,2,0.8,0.0625,35.0,-1,0.0,0.31970099999989543
427,2,0.8,0.0625,-35.0,-1,1.0,0.432501000000002
428,2,0.8,0.125,35.0,1,1.0,0.3259009999999307
429,2,0.8,0.0625,-35.0,1,0.0,8.023300999999947
430,2,0.8,0.125,-35.0,-1,1.0,0.3164009999998143
431,2,0.8,0.0625,-35.0,-1,1.0,0.40960100000006605
432,2,0.8,0.0625,35.0,1,1.0,0.7133009999997739
433,2,0.8,1.0,-35.0,-1,1.0,0.16650099999992563
434,2,0.8,1.0,-35.0,-1,1.0,0.243300999999974
435,2,0.8,0.0,-35.0,1,0.0,4.416500999999926
436,2,0.8,0.25,-35.0,-1,1.0,0.19400100000007114
437,2,0.8,0.25,35.0,1,1.0,0.3641010000001188
438,2,0.8,0.0625,-35.0,-1,1.0,0.22720099999992271
439,2,0.8,0.25,35.0,1,1.0,0.2602009999998245
440,2,0.8,1.0,-35.0,-1,1.0,0.2171009999999569
441,2,0.8,0.25,-35.0,-1,1.0,0.24040100000001985
442,2,0.8,1.0,-35.0,-1,1.0,0.2039009999996324
443,2,0.8,0.0625,35.0,-1,0.0,0.3439009999999598
444,2,0.8,0.25,35.0,1,1.0,0.3545009999998001
445,2,0.8,0.0625,-35.0,-1,1.0,0.4644009999997252
446,2,0.8,0.0625,-35.0,-1,1.0,0.4314009999998234
447,2,0.8,1.0,35.0,1,1.0,0.3806009999998423
448,2,0.8,1.0,35.0,1,1.0,0.3346009999997932
449,2,0.8,0.0625,-35.0,-1,1.0,0.2375009999998383
450,2,0.2,1.0,-35.0,-1,1.0,0.20530099999973572
451,2,0.2,1.0,-35.0,-1,1.0,0.19800099999974918
452,2,0.2,0.25,35.0,1,1.0,0.38800099999980375
453,2,0.2,0.25,-35.0,-1,1.0,0.2151010000000042
454,2,0.2,0.0,35.0,-1,0.0,15.211200999999846
455,2,0.2,0.125,35.0,1,1.0,9.03490099999999
456,2,0.2,0.125,35.0,1,1.0,0.601500999999871
457,2,0.2,0.125,-35.0,-1,1.0,0.5357010000000173
458,2,0.2,0.25,35.0,1,1.0,8.219000999999707
459,2,0.2,0.25,35.0,1,1.0,0.39220099999988633
460,2,0.2,0.25,35.0,1,1.0,0.39240099999983613
461,2,0.2,1.0,35.0,1,1.0,0.3520009999999729
462,2,0.2,0.0625,35.0,1,1.0,0.4658009999996011
463,2,0.2,0.25,-35.0,-1,1.0,0.22570100000007187
464,2,0.2,0.25,35.0,1,1.0,1.0823009999999158
465,2,0.2,1.0,-35.0,-1,1.0,1.526100999999926
466,2,0.2,0.0625,35.0,1,1.0,0.56570099999999
467,2,0.2,0.25,35.0,1,1.0,0.44630099999994854
468,2,0.2,1.0,35.0,-1,0.0,38.559900999999854
469,2,0.2,1.0,-35.0,-1,1.0,0.30350099999964186
470,2,0.2,0.125,-35.0,-1,1.0,0.37770099999988815
471,2,0.2,0.0,-35.0,1,0.0,29.063701000000037
472,2,0.2,0.0625,35.0,1,1.0,0.47080099999993763
473,2,0.2,0.0625,35.0,1,1.0,0.36790099999984704
474,2,0.2,0.125,35.0,1,1.0,0.4974010000000817
475,2,0.2,0.0625,35.0,1,1.0,0.4813010000000304
476,2,0.2,1.0,35.0,1,1.0,0.2844009999998889
477,2,0.2,0.0625,35.0,1,1.0,2.7311010000000806
478,2,0.2,1.0,35.0,1,1.0,0.3812009999999191
479,2,0.2,1.0,35.0,1,1.0,0.23860099999978956
480,2,0.2,1.0,35.0,1,1.0,0.2815010000001621
481,2,0.2,0.0,-35.0,1,0.0,0.7516009999999369
482,2,0.2,0.25,-35.0,-1,1.0,0.2718010000000959
483,2,0.2,0.25,35.0,1,1.0,0.38480100000015227
484,2,0.2,0.25,35.0,1,1.0,15.751500999999962
485,2,0.2,0.0625,35.0,1,1.0,0.5854010000000471
486,2,0.2,0.0,35.0,1,1.0,0.3988009999998212
487,2,0.2,0.25,-35.0,-1,1.0,0.32550099999980375
488,2,0.2,0.0625,35.0,1,1.0,0.41560100000015154
489,2,0.2,0.25,35.0,1,1.0,0.3059009999999489
490,2,0.2,1.0,35.0,1,1.0,0.25890099999992344
491,2,0.2,0.125,35.0,1,1.0,0.45220100000005914
492,2,0.2,0.25,35.0,1,1.0,0.3122009999999591
493,2,0.2,0.0625,35.0,-1,0.0,54.40590099999986
494,2,0.2,0.0625,35.0,-1,0.0,15.24710099999993
495,2,0.2,1.0,35.0,1,1.0,6.714000999999826
496,2,0.2,0.25,35.0,-1,0.0,21.917500999999675
497,2,0.2,0.125,35.0,-1,0.0,32.351200999999946
498,2,0.2,0.125,35.0,1,1.0,22.17850099999987
499,2,0.2,0.125,35.0,-1,0.0,0.4758009999998194
500,2,0.2,1.0,35.0,1,1.0,0.3791009999999915
501,2,0.8,0.25,-35.0,-1,1.0,0.343000999999731
502,2,0.8,0.125,-35.0,-1,1.0,0.34920099999999366
503,2,0.8,0.0,35.0,-1,0.0,0.6559999999999491
504,2,0.8,0.25,-35.0,-1,1.0,0.20640099999991435
505,2,0.8,0.25,-35.0,-1,1.0,0.27290099999981976
506,2,0.8,0.0,-35.0,-1,1.0,0.24630099999990307
507,2,0.8,0.125,35.0,1,1.0,0.4330999999999676
508,2,0.8,0.25,-35.0,-1,1.0,0.20960100000002058
509,2,0.8,0.0625,35.0,-1,0.0,0.4130009999998947
510,2,0.8,0.25,-35.0,-1,1.0,0.22980099999995218
511,2,0.8,0.125,35.0,1,1.0,0.5638010000000122
512,2,0.8,0.0625,-35.0,-1,1.0,0.6235009999998056
513,2,0.8,0.125,35.0,1,1.0,6.996801000000005
514,2,0.8,0.0,-35.0,1,0.0,10.603600999999799
515,2,0.8,0.125,-35.0,1,0.0,0.47060099999976046
516,2,0.8,0.25,-35.0,-1,1.0,0.2539009999998143
517,2,0.8,1.0,-35.0,-1,1.0,0.22400100000004386
518,2,0.8,0.25,-35.0,-1,1.0,0.2940009999999802
519,2,0.8,0.125,-35.0,-1,1.0,0.3473009999997885
520,2,0.8,0.25,-35.0,-1,1.0,8.067900999999893
521,2,0.8,0.25,35.0,-1,0.0,0.4278009999998176
522,2,0.8,0.0625,-35.0,-1,1.0,0.414400999999998
523,2,0.8,0.0,-35.0,-1,1.0,53.25100099999986
524,2,0.8,0.25,-35.0,-1,1.0,0.13200099999994563
525,2,0.8,1.0,-35.0,-1,1.0,0.21260099999972226
526,2,0.8,0.0625,35.0,-1,0.0,8.772401000000173
527,2,0.8,1.0,-35.0,-1,1.0,0.22270099999968807
528,2,0.8,1.0,-35.0,-1,1.0,0.23660100000006423
529,2,0.8,0.25,-35.0,-1,1.0,0.4794010000000526
530,2,0.8,0.0625,-35.0,-1,1.0,29.506201000000146
531,2,0.8,0.125,-35.0,-1,1.0,20.936600999999882
532,2,0.8,1.0,-35.0,-1,1.0,0.2038009999996575
533,2,0.8,0.0625,-35.0,-1,1.0,14.77710100000013
534,2,0.8,0.25,-35.0,-1,1.0,0.2611010000000533
535,2,0.8,0.0,-35.0,-1,1.0,36.21760099999983
536,2,0.8,0.125,-35.0,-1,1.0,0.25860099999999875
537,2,0.8,1.0,-35.0,-1,1.0,0.22210099999983868
538,2,0.8,0.0625,-35.0,-1,1.0,0.45500099999981103
539,2,0.8,0.25,-35.0,-1,1.0,0.28910099999984595
540,2,0.8,0.25,-35.0,-1,1.0,0.24910100000033708
541,2,0.8,1.0,-35.0,-1,1.0,0.29860099999996237
542,2,0.8,0.0625,-35.0,-1,1.0,0.2156009999998787
543,2,0.8,0.125,-35.0,-1,1.0,0.38820099999975355
544,2,0.8,0.25,-35.0,-1,1.0,0.6489010000000235
545,2,0.8,0.125,-35.0,-1,1.0,0.16610099999979866
546,2,0.8,0.0625,-35.0,-1,1.0,20.725801000000047
547,2,0.8,1.0,-35.0,-1,1.0,0.2029010000001108
548,2,0.2,0.125,35.0,-1,0.0,21.332900999999765
549,2,0.2,1.0,35.0,1,1.0,0.7968009999999595
550,2,0.2,0.0,35.0,-1,0.0,35.01360099999965
551,2,0.2,0.0625,35.0,1,1.0,0.9875010000000657
552,2,0.2,0.0,35.0,-1,0.0,0.6049009999996997
553,2,0.2,1.0,35.0,1,1.0,0.26750099999981103
554,2,0.2,0.25,35.0,1,1.0,21.0111009999996
555,2,0.2,0.0,35.0,-1,0.0,17.585101000000122
556,2,0.2,0.25,35.0,1,1.0,26.045200999999906
557,2,0.2,1.0,35.0,1,1.0,0.26910099999986414
558,2,0.2,0.0625,35.0,1,1.0,0.599800999999843
559,2,0.2,0.25,35.0,1,1.0,0.38670100000035745
560,2,0.2,0.25,35.0,1,1.0,0.403400999999576
561,2,0.2,0.0625,35.0,1,1.0,0.452600999999504
562,2,0.2,0.125,35.0,1,1.0,0.43630099999973027
563,2,0.2,0.125,35.0,1,1.0,0.5393009999997957
564,2,0.2,0.125,35.0,1,1.0,0.446201000000201
565,2,0.2,1.0,35.0,1,1.0,0.3095010000001821
566,2,0.2,0.25,-35.0,-1,1.0,0.22300099999938539
567,2,0.2,0.0625,35.0,1,1.0,0.3966009999999187
568,2,0.2,0.0,35.0,-1,0.0,26.200201000000106
569,2,0.2,1.0,35.0,1,1.0,0.30700100000012753
570,2,0.2,1.0,35.0,1,1.0,0.30700100000012753
571,2,0.2,0.0,35.0,-1,0.0,16.243900999999823
572,2,0.2,1.0,35.0,-1,0.0,45.79080099999965
573,2,0.2,0.0625,-35.0,-1,1.0,0.7953010000001086
574,2,0.2,0.125,35.0,-1,0.0,28.621800999999778
575,2,0.2,1.0,35.0,-1,0.0,4.672300999999607
576,2,0.2,0.25,35.0,-1,0.0,0.3505009999998947
577,2,0.2,0.0625,35.0,1,1.0,2.3465009999995345
578,2,0.2,0.125,35.0,-1,0.0,25.58650099999977
579,2,0.2,0.0625,35.0,-1,0.0,13.824200999999903
580,2,0.8,0.125,-35.0,-1,1.0,48.41420100000005
581,2,0.8,0.0625,-35.0,-1,1.0,4.895301000000018
582,2,0.8,1.0,-35.0,-1,1.0,0.32900100000006205
583,2,0.8,1.0,-35.0,-1,1.0,0.31900099999984377
584,2,0.8,0.0625,35.0,-1,0.0,0.3523009999998976
585,2,0.8,0.125,-35.0,-1,1.0,20.639000999999553
586,2,0.8,0.0,-35.0,-1,1.0,8.269900999999663
587,2,0.8,0.25,-35.0,-1,1.0,0.22300099999984013
1,3,0.5,0.125,35.0,1,1.0,0.6415
2,3,0.5,1.0,-35.0,1,0.0,0.08889999999999887
3,3,0.5,0.125,-35.0,-1,1.0,0.21260000000000012
4,3,0.5,0.0,-35.0,-1,1.0,43.732499999999995
5,3,0.5,0.0625,35.0,1,1.0,0.3289000000000044
6,3,0.5,1.0,35.0,1,1.0,0.22390000000001464
7,3,0.5,0.0625,-35.0,1,0.0,0.4749000000000052
8,3,0.5,0.125,35.0,1,1.0,0.22469999999999857
9,3,0.5,0.25,-35.0,-1,1.0,0.37590000000000146
10,3,0.5,0.125,35.0,1,1.0,0.18889999999998963
11,3,0.5,0.25,35.0,1,1.0,0.2728999999999928
12,3,0.5,0.125,-35.0,-1,1.0,0.40559999999999263
13,3,0.5,0.0,35.0,1,1.0,0.25260000000001526
14,3,0.5,0.25,35.0,1,1.0,0.2563999999999993
15,3,0.5,0.0625,35.0,1,1.0,0.2663000000000011
16,3,0.5,0.0625,35.0,1,1.0,0.247099999999989
17,3,0.5,0.25,-35.0,-1,1.0,0.2248000000000019
18,3,0.5,1.0,-35.0,-1,1.0,0.3456999999999937
19,3,0.5,0.25,-35.0,-1,1.0,0.22889999999999588
20,3,0.5,1.0,-35.0,-1,1.0,0.2091000000000065
21,3,0.5,0.0625,35.0,1,1.0,0.6093000000000046
22,3,0.5,1.0,35.0,1,1.0,0.245900000000006
23,3,0.5,0.0625,35.0,1,1.0,0.45759999999999934
24,3,0.5,0.0625,-35.0,-1,1.0,0.23170000000000357
25,3,0.5,0.0625,35.0,1,1.0,0.3393999999999977
26,3,0.5,0.0625,-35.0,-1,1.0,0.21699999999999875
27,3,0.5,0.125,-35.0,1,0.0,0.5790000000000077
28,3,0.5,1.0,35.0,1,1.0,0.17950000000001864
29,3,0.5,0.0625,-35.0,-1,1.0,1.8173000000000172
30,3,0.5,0.0625,35.0,1,1.0,0.731899999999996
31,3,0.5,0.0,35.0,1,1.0,0.20179999999999154
32,3,0.5,0.0,-35.0,1,0.0,0.23150000000001114
33,3,0.5,0.125,-35.0,1,0.0,0.17250000000001364
34,3,0.5,0.0625,-35.0,-1,1.0,0.7493000000000052
35,3,0.5,1.0,35.0,1,1.0,0.2494000000000085
36,3,0.5,0.0625,35.0,1,1.0,0.48850000000001614
37,3,0.5,0.25,-35.0,-1,1.0,0.18120000000001824
38,3,0.5,0.0625,35.0,1,1.0,0.6047999999999831
39,3,0.5,1.0,-35.0,-1,1.0,0.17210000000000036
40,3,0.5,0.125,-35.0,-1,1.0,0.3031000000000006
41,3,0.5,1.0,-35.0,-1,1.0,0.17830000000000723
42,3,0.5,0.0625,-35.0,-1,1.0,0.2845000000000084
43,3,0.5,0.0625,-35.0,-1,1.0,0.63900000000001
44,3,0.5,0.0,35.0,-1,0.0,11.514299999999992
45,3,0.5,0.0625,-35.0,-1,1.0,0.2727000000000146
46,3,0.5,0.125,-35.0,-1,1.0,0.2611000000000274
47,3,0.5,0.125,-35.0,-1,1.0,0.2394999999999925
48,3,0.5,0.0625,-35.0,-1,1.0,2.428100000000029
49,3,0.5,0.125,35.0,1,1.0,0.4227000000000203
50,3,0.5,0.25,35.0,1,1.0,0.3294999999999959
51,3,0.5,0.125,-35.0,-1,1.0,0.1967999999999961
52,3,0.5,0.0625,35.0,1,1.0,0.2593999999999994
53,3,0.5,0.125,-35.0,-1,1.0,0.23999999999998067
54,3,0.5,0.125,-35.0,-1,1.0,0.2755999999999972
55,3,0.5,0.125,-35.0,-1,1.0,0.2215999999999667
56,3,0.5,0.0625,-35.0,-1,1.0,0.2745999999999924
57,3,0.5,1.0,-35.0,-1,1.0,0.19580000000001974
58,3,0.5,1.0,-35.0,-1,1.0,0.1755990000000054
59,3,0.5,0.0625,35.0,-1,0.0,0.18909999999996785
60,3,0.5,0.25,35.0,1,1.0,0.37330000000002883
61,3,0.5,0.25,-35.0,-1,1.0,0.16040000000000987
62,3,0.5,0.25,-35.0,-1,1.0,0.17350000000001842
63,3,0.5,0.0625,35.0,1,1.0,0.7105999999999995
64,3,0.5,0.0625,35.0,1,1.0,0.42480000000000473
65,3,0.5,0.0625,35.0,1,1.0,0.5151000000000181
66,3,0.5,0.25,-35.0,-1,1.0,0.18849999999997635
67,3,0.5,0.0625,-35.0,-1,1.0,0.35190000000002897
68,3,0.5,0.25,35.0,1,1.0,0.40059999999994034
69,3,0.5,1.0,-35.0,-1,1.0,0.14769999999998618
70,3,0.5,0.25,-35.0,-1,1.0,0.1817999999999529
71,3,0.5,0.25,-35.0,-1,1.0,0.18490000000002738
72,3,0.5,0.25,35.0,1,1.0,0.23840000000001282
73,3,0.5,1.0,35.0,1,1.0,0.25029999999998154
74,3,0.5,0.125,-35.0,-1,1.0,0.18880000000001473
75,3,0.5,0.25,35.0,1,1.0,0.2785999999999831
76,3,0.5,1.0,-35.0,-1,1.0,0.15829999999994016
77,3,0.5,0.125,-35.0,-1,1.0,0.20939999999995962
78,3,0.5,1.0,35.0,1,1.0,0.2650999999999044
79,3,0.5,0.25,35.0,1,1.0,0.6202000000000112
80,3,0.5,0.0625,-35.0,-1,1.0,0.130299999999977
81,3,0.5,0.25,-35.0,-1,1.0,0.22690000000000055
82,3,0.5,0.125,35.0,1,1.0,0.4003999999999337
83,3,0.5,0.125,35.0,1,1.0,0.7544999999999504
84,3,0.5,0.125,-35.0,-1,1.0,0.237199999999973
85,3,0.5,0.25,-35.0,-1,1.0,0.17549999999999955
86,3,0.5,0.25,35.0,1,1.0,0.34600000000000364
87,3,0.5,1.0,35.0,1,1.0,0.2515999999999394
88,3,0.5,0.0,-35.0,-1,1.0,0.35480000000001155
89,3,0.5,0.0625,35.0,-1,0.0,0.8012999999999693
90,3,0.5,0.25,35.0,1,1.0,0.3242000000000189
91,3,0.2,0.0,35.0,1,1.0,0.6437000000000239
92,3,0.2,0.0625,35.0,1,1.0,0.30249999999995225
93,3,0.2,0.125,35.0,1,1.0,0.24669999999997572
94,3,0.2,0.0625,-35.0,-1,1.0,0.3418999999999528
95,3,0.2,0.0625,35.0,1,1.0,6.327999999999918
96,3,0.2,0.0,35.0,1,1.0,0.7817999999999756
97,3,0.2,0.125,35.0,1,1.0,0.2506999999999948
98,3,0.2,0.125,35.0,1,1.0,0.5711000000000013
99,3,0.2,0.25,35.0,1,1.0,0.2968999999999937
100,3,0.2,0.0,-35.0,1,0.0,2.675899999999956
101,3,0.2,0.0625,-35.0,1,0.0,0.24320000000000164
102,3,0.2,0.25,35.0,1,1.0,0.22809999999998354
103,3,0.2,1.0,35.0,1,1.0,0.21549999999996317
104,3,0.2,0.0625,35.0,1,1.0,0.42119999999994207
105,3,0.2,1.0,35.0,1,1.0,0.21249999999997726
106,3,0.2,0.25,35.0,1,1.0,0.31259999999991805
107,3,0.2,1.0,35.0,1,1.0,0.23699999999996635
108,3,0.2,1.0,-35.0,-1,1.0,0.37669999999997117
109,3,0.2,0.25,35.0,1,1.0,0.10419999999993479
110,3,0.2,0.125,35.0,1,1.0,0.24099999999998545
111,3,0.2,0.125,35.0,1,1.0,0.2731999999999175
112,3,0.2,0.25,35.0,1,1.0,0.25629999999995334
113,3,0.2,0.0625,35.0,1,1.0,0.4338000000000193
114,3,0.2,0.0,35.0,1,1.0,0.28059999999999263
115,3,0.2,0.125,35.0,1,1.0,0.30139999999994416
116,3,0.2,0.25,35.0,1,1.0,0.26670000000001437
117,3,0.2,0.25,35.0,1,1.0,0.24459999999999127
118,3,0.2,0.0625,35.0,1,1.0,0.24469999999996617
119,3,0.2,0.0625,35.0,1,1.0,0.24799999999999045
120,3,0.2,0.125,35.0,1,1.0,0.285699999999963
121,3,0.2,0.125,35.0,1,1.0,0.25179999999994607
122,3,0.2,0.125,35.0,1,1.0,0.4089999999999918
123,3,0.2,0.0625,35.0,1,1.0,0.27209999999996626
124,3,0.2,0.0,35.0,1,1.0,0.4232999999999265
125,3,0.2,1.0,35.0,1,1.0,0.3643000000000143
126,3,0.2,0.0,35.0,1,1.0,0.4590999999999781
127,3,0.2,0.0625,35.0,1,1.0,0.21609999999998308
128,3,0.2,1.0,35.0,1,1.0,0.18789999999995644
129,3,0.2,0.125,35.0,1,1.0,0.254099999999994
130,3,0.2,0.0625,-35.0,1,0.0,0.1923999999999637
131,3,0.2,0.0625,35.0,1,1.0,0.2379999999999427
132,3,0.2,0.125,35.0,1,1.0,0.129099999999994
133,3,0.2,0.125,35.0,1,1.0,0.23589999999995825
134,3,0.2,1.0,35.0,1,1.0,0.22249999999996817
135,3,0.2,0.0625,35.0,1,1.0,0.23149999999992588
136,3,0.2,0.25,35.0,1,1.0,0.23939999999998918
137,3,0.2,0.0625,35.0,1,1.0,0.24509999999997945
138,3,0.2,0.25,35.0,1,1.0,0.2149000000000001
139,3,0.2,0.25,-35.0,-1,1.0,0.2699000000000069
140,3,0.2,0.125,35.0,1,1.0,0.2839999999999918
141,3,0.2,0.25,35.0,1,1.0,0.23849999999998772
142,3,0.2,1.0,35.0,1,1.0,0.19089999999994234
143,3,0.2,0.0625,35.0,1,1.0,0.21049999999991087
144,3,0.2,0.0,-35.0,1,0.0,0.21980000000002065
145,3,0.2,0.125,35.0,1,1.0,0.2563999999999851
146,3,0.2,0.25,35.0,1,1.0,0.22939999999994143
147,3,0.2,0.0625,35.0,1,1.0,0.4375999999999749
148,3,0.2,1.0,35.0,1,1.0,0.2044999999999959
149,3,0.2,0.125,35.0,1,1.0,0.24359999999995807
150,3,0.2,0.125,-35.0,-1,1.0,0.39829999999994925
151,3,0.2,0.0,35.0,1,1.0,0.2087999999999397
152,3,0.2,1.0,35.0,1,1.0,0.20369999999996935
153,3,0.2,0.0625,35.0,1,1.0,0.3240999999999872
154,3,0.2,0.25,-35.0,-1,1.0,0.6303000000000338
155,3,0.2,1.0,35.0,1,1.0,0.21339999999997872
156,3,0.2,0.0625,-35.0,-1,1.0,0.23559999999991987
157,3,0.2,0.125,-35.0,-1,1.0,0.28879900000004
158,3,0.2,1.0,-35.0,-1,1.0,0.21280000000012933
159,3,0.2,0.25,35.0,1,1.0,0.2380000000000564
160,3,0.2,0.0625,35.0,1,1.0,0.4412000000000944
161,3,0.8,0.0625,35.0,-1,0.0,0.6344000000000278
162,3,0.8,0.0,-35.0,1,0.0,0.15370000000007167
163,3,0.8,1.0,-35.0,-1,1.0,0.1993000000001075
164,3,0.8,0.0625,-35.0,-1,1.0,0.2397000000000844
165,3,0.8,1.0,35.0,1,1.0,0.2461999999999307
166,3,0.8,0.125,-35.0,-1,1.0,0.25109999999995125
167,3,0.8,1.0,-35.0,-1,1.0,0.20690000000001874
168,3,0.8,0.0,-35.0,1,0.0,16.745900000000006
169,3,0.8,1.0,-35.0,-1,1.0,0.22620000000006257
170,3,0.8,0.125,-35.0,-1,1.0,0.245900000000006
171,3,0.8,0.0625,-35.0,-1,1.0,0.34739999999999327
172,3,0.8,0.25,-35.0,-1,1.0,0.21739999999999782
173,3,0.8,1.0,-35.0,-1,1.0,0.2159000000000333
174,3,0.8,0.125,35.0,1,1.0,0.3867000000000189
175,3,0.8,0.25,-35.0,-1,1.0,0.2735000000001264
176,3,0.8,0.25,35.0,1,1.0,0.29750000000001364
177,3,0.8,1.0,-35.0,-1,1.0,0.20229999999992287
178,3,0.8,0.0,-35.0,1,0.0,0.4815000000000964
179,3,0.8,1.0,-35.0,-1,1.0,0.1976999999999407
180,3,0.8,0.125,35.0,1,1.0,0.4438999999999851
181,3,0.8,0.0625,-35.0,-1,1.0,0.11710000000005039
182,3,0.8,1.0,35.0,1,1.0,0.13019999999994525
183,3,0.8,0.0625,-35.0,-1,1.0,0.28740000000004784
184,3,0.8,0.0625,-35.0,1,0.0,0.18360000000006949
185,3,0.8,0.25,-35.0,-1,1.0,0.21040000000004966
186,3,0.8,1.0,-35.0,-1,1.0,0.20870000000002165
187,3,0.8,0.125,35.0,1,1.0,0.29570000000001073
188,3,0.8,0.25,-35.0,-1,1.0,0.2521000000000413
189,3,0.8,0.0625,35.0,1,1.0,0.5019999999999527
190,3,0.8,0.0,35.0,1,1.0,0.5267000000000053
191,3,0.8,1.0,-35.0,-1,1.0,0.16870000000005803
192,3,0.8,0.125,-35.0,-1,1.0,0.21640000000002146
193,3,0.8,0.0,-35.0,-1,1.0,0.9536000000000513
194,3,0.8,0.25,-35.0,-1,1.0,0.18430000000000746
195,3,0.8,0.0625,-35.0,-1,1.0,0.2581000000000131
196,3,0.8,0.0625,35.0,-1,0.0,0.4339999999999691
197,3,0.8,0.0625,35.0,1,1.0,0.32160000000010314
198,3,0.8,0.25,-35.0,-1,1.0,0.1795000000000755
199,3,0.8,0.0,-35.0,-1,1.0,0.26269999999999527
200,3,0.8,0.25,-35.0,-1,1.0,0.22490000000004784
201,3,0.8,0.125,-35.0,-1,1.0,0.1897999999999911
202,3,0.8,0.0,-35.0,-1,1.0,0.28950000000008913
203,3,0.8,0.0,-35.0,-1,1.0,0.4235999999999649
204,3,0.8,0.125,35.0,1,1.0,0.2218000000000302
205,3,0.8,1.0,-35.0,-1,1.0,0.2297000000000935
206,3,0.8,0.25,-35.0,-1,1.0,0.21070000000008804
207,3,0.8,1.0,-35.0,-1,1.0,0.19870000000003074
208,3,0.8,0.125,-35.0,-1,1.0,0.25920000000007803
209,3,0.8,0.0625,-35.0,-1,1.0,0.3244000000000824
210,3,0.8,1.0,-35.0,-1,1.0,0.18470000000013442
211,3,0.8,0.0625,-35.0,-1,1.0,0.4116000000000213
212,3,0.8,1.0,-35.0,-1,1.0,0.18449999999995725
213,3,0.8,0.0625,35.0,1,1.0,0.3202999999999747
214,3,0.8,0.0,-35.0,1,0.0,0.27070000000003347
215,3,0.8,0.25,35.0,1,1.0,0.3946000000000822
216,3,0.8,0.0625,-35.0,-1,1.0,0.26339999999993324
217,3,0.8,1.0,-35.0,-1,1.0,0.2074999999999818
218,3,0.8,0.0625,-35.0,-1,1.0,0.41229999999995925
219,3,0.8,1.0,-35.0,-1,1.0,0.21829999999999927
220,3,0.8,0.25,-35.0,-1,1.0,0.19700000000011642
221,3,0.2,0.125,35.0,1,1.0,0.33149999999989177
222,3,0.2,0.125,35.0,1,1.0,0.2880000000001246
223,3,0.2,1.0,35.0,1,1.0,0.2785999999999831
224,3,0.2,0.25,35.0,1,1.0,0.26700000000016644
225,3,0.2,0.0625,35.0,1,1.0,0.2705000000000837
226,3,0.2,0.0,35.0,1,1.0,0.41590000000007876
227,3,0.2,0.0625,35.0,1,1.0,0.30750000000000455
228,3,0.2,0.0625,35.0,1,1.0,0.2741990000000669
229,3,0.2,0.0,-35.0,1,0.0,0.2541000000001077
230,3,0.2,0.25,-35.0,-1,1.0,0.22540000000003602
231,3,0.2,0.0625,35.0,1,1.0,0.5175000000000409
232,3,0.2,0.125,35.0,1,1.0,0.2866000000000213
233,3,0.2,0.0625,35.0,1,1.0,0.31520000000011805
234,3,0.2,0.25,35.0,1,1.0,0.28880000000003747
235,3,0.2,1.0,35.0,1,1.0,0.23530000000005202
236,3,0.2,0.25,-35.0,-1,1.0,0.2481999999999971
237,3,0.2,0.25,-35.0,-1,1.0,0.2217000000000553
238,3,0.2,0.125,35.0,1,1.0,0.2684000000000424
239,3,0.2,1.0,35.0,1,1.0,0.19920000000001892
240,3,0.2,1.0,35.0,1,1.0,0.24049999999999727
241,3,0.2,0.25,35.0,1,1.0,0.2360999999999649
242,3,0.2,0.125,35.0,1,1.0,0.2542000000000826
243,3,0.2,0.125,-35.0,-1,1.0,0.28280000000006567
244,3,0.2,0.25,35.0,1,1.0,0.18899999999996453
245,3,0.2,1.0,35.0,1,1.0,0.27309999999999945
246,3,0.2,0.125,35.0,1,1.0,0.37590000000000146
247,3,0.2,0.0,35.0,1,1.0,0.41990000000009786
248,3,0.2,0.0,35.0,1,1.0,0.21720000000004802
249,3,0.2,0.25,35.0,1,1.0,0.20630000000005566
250,3,0.2,1.0,35.0,1,1.0,0.20059999999989486
251,3,0.2,1.0,35.0,1,1.0,0.22200000000009368
252,3,0.2,0.0625,-35.0,1,0.0,0.18200000000001637
253,3,0.2,0.125,35.0,1,1.0,0.23440000000005057
254,3,0.2,0.25,35.0,1,1.0,0.25739999999996144
255,3,0.2,0.0,35.0,1,1.0,0.30090000000006967
256,3,0.2,0.125,35.0,1,1.0,0.22830000000010386
257,3,0.2,0.125,35.0,1,1.0,0.21040000000004966
258,3,0.2,0.25,35.0,1,1.0,0.27290000000004966
259,3,0.2,1.0,35.0,1,1.0,0.231899999999996
260,3,0.2,0.0625,35.0,1,1.0,0.2274000000001024
261,3,0.2,0.125,35.0,1,1.0,0.27710000000001855
262,3,0.2,0.25,35.0,1,1.0,0.22919999999999163
263,3,0.2,0.125,35.0,1,1.0,0.25650000000007367
264,3,0.2,1.0,35.0,1,1.0,0.2176000000000613
265,3,0.2,0.0625,-35.0,1,0.0,0.20839999999998327
266,3,0.2,1.0,35.0,1,1.0,0.23309999999992215
267,3,0.2,0.0625,35.0,1,1.0,0.30780000000004293
268,3,0.2,0.0625,35.0,1,1.0,0.2097999999999729
269,3,0.2,0.125,35.0,1,1.0,0.22090000000002874
270,3,0.2,0.0625,35.0,1,1.0,0.2135000000000673
271,3,0.2,0.125,35.0,1,1.0,0.24059999999997217
272,3,0.2,1.0,35.0,1,1.0,0.20699999999999363
273,3,0.2,0.25,35.0,1,1.0,0.23550000000000182
274,3,0.2,1.0,35.0,1,1.0,0.22710000000006403
275,3,0.2,0.125,35.0,1,1.0,0.34799999999995634
276,3,0.2,0.25,35.0,1,1.0,0.18989999999996598
277,3,0.2,0.0,35.0,1,1.0,0.23590000000012878
278,3,0.2,0.25,35.0,1,1.0,0.18360000000006949
279,3,0.8,1.0,-35.0,-1,1.0,0.23310000000003583
280,3,0.8,0.0,-35.0,-1,1.0,0.7620000000000573
281,3,0.8,0.0625,-35.0,-1,1.0,1.8197999999999865
282,3,0.8,1.0,-35.0,-1,1.0,0.20400000000006457
283,3,0.8,0.0625,-35.0,-1,1.0,1.1924000000000206
284,3,0.8,0.25,-35.0,-1,1.0,0.23460000000011405
285,3,0.8,0.125,-35.0,-1,1.0,0.23290000000008604
286,3,0.8,1.0,-35.0,-1,1.0,0.19409999999993488
287,3,0.8,1.0,35.0,1,1.0,0.2743000000000393
288,3,0.8,0.125,-35.0,-1,1.0,0.165300000000002
289,3,0.8,1.0,-35.0,-1,1.0,0.30349999999998545
290,3,0.8,0.25,-35.0,-1,1.0,0.2440000000000282
291,3,0.8,0.0,-35.0,-1,1.0,0.366800000000012
292,3,0.8,0.0625,-35.0,-1,1.0,0.3170999999999822
293,3,0.8,0.0,-35.0,-1,1.0,0.46719999999993433
294,3,0.8,1.0,-35.0,-1,1.0,0.1856000000000222
295,3,0.8,1.0,-35.0,-1,1.0,0.21449999999992997
296,3,0.8,0.125,35.0,1,1.0,0.2742000000000644
297,3,0.8,1.0,-35.0,-1,1.0,0.17660000000000764
298,3,0.8,0.125,35.0,1,1.0,0.14599999999995816
299,3,0.8,0.125,-35.0,-1,1.0,0.2882000000000744
300,3,0.8,0.0625,-35.0,-1,1.0,0.4046000000000731
301,3,0.8,1.0,-35.0,-1,1.0,0.19470000000001164
302,3,0.8,0.0,-35.0,1,0.0,11.807300000000055
303,3,0.8,0.0,-35.0,-1,1.0,0.28550000000007003
304,3,0.8,0.25,35.0,1,1.0,0.2560999999999467
305,3,0.8,1.0,-35.0,-1,1.0,0.21019999999998618
306,3,0.8,0.25,-35.0,-1,1.0,0.3004999999999427
307,3,0.8,0.25,-35.0,-1,1.0,0.2058999999999287
308,3,0.8,0.0625,-35.0,-1,1.0,0.26690000000007785
309,3,0.8,0.125,-35.0,-1,1.0,0.22280000000000655
310,3,0.8,0.0,-35.0,-1,1.0,0.1996999999998934
311,3,0.8,0.125,-35.0,-1,1.0,0.21630000000004657
312,3,0.8,0.0625,-35.0,-1,1.0,0.22660000000007585
313,3,0.8,0.125,35.0,1,1.0,0.25329999999996744
314,3,0.8,0.0625,-35.0,-1,1.0,0.26300000000003365
315,3,0.8,0.0625,35.0,1,1.0,0.28960000000006403
316,3,0.8,0.0625,-35.0,-1,1.0,0.28309999999999036
317,3,0.8,0.125,-35.0,-1,1.0,0.19639999999981228
318,3,0.8,0.25,-35.0,-1,1.0,0.20719999999982974
319,3,0.8,0.25,-35.0,-1,1.0,0.23019999999996799
320,3,0.8,0.0625,-35.0,-1,1.0,0.2664999999999509
321,3,0.8,1.0,-35.0,-1,1.0,0.1734999999998763
322,3,0.8,0.25,-35.0,-1,1.0,0.20359999999982392
323,3,0.8,0.25,-35.0,-1,1.0,0.28339999999980137
324,3,0.8,0.25,-35.0,-1,1.0,0.22039999999992688
325,3,0.8,0.0625,-35.0,-1,1.0,0.554300000000012
326,3,0.8,1.0,-35.0,-1,1.0,0.20049999999991996
327,3,0.8,0.0625,-35.0,-1,1.0,0.31379999999990105
328,3,0.8,0.0625,-35.0,-1,1.0,0.29369999999994434
329,3,0.8,1.0,-35.0,-1,1.0,0.17380000000002838
330,3,0.8,0.0625,-35.0,-1,1.0,0.17409999999995307
331,3,0.8,0.125,35.0,1,1.0,0.3510999999998603
332,3,0.8,1.0,-35.0,-1,1.0,0.19729999999981374
333,3,0.8,0.0625,35.0,1,1.0,0.34390000000007603
334,3,0.8,0.125,-35.0,-1,1.0,0.22749999999973625
335,3,0.8,0.0625,-35.0,-1,1.0,0.39419999999995525
336,3,0.8,0.25,-35.0,-1,1.0,0.28100000000017644
337,3,0.8,1.0,-35.0,-1,1.0,0.1613999999999578
338,3,0.8,1.0,-35.0,-1,1.0,0.15429999999992106
339,3,0.8,0.125,-35.0,-1,1.0,0.22129999999970096
340,3,0.8,0.125,-35.0,-1,1.0,0.19469999999978427
341,3,0.8,0.25,-35.0,-1,1.0,0.19190000000003238
342,3,0.8,0.125,-35.0,-1,1.0,0.22119999999995343
343,3,0.2,0.125,35.0,1,1.0,0.518100000000004
344,3,0.2,0.0625,35.0,1,1.0,0.3523999999999887
345,3,0.2,0.125,35.0,1,1.0,0.2278999999998632
346,3,0.2,0.25,-35.0,-1,1.0,0.19139999999993051
347,3,0.2,0.0,35.0,-1,0.0,0.4381999999998243
348,3,0.2,0.25,35.0,1,1.0,0.3351999999999862
349,3,0.2,1.0,35.0,1,1.0,0.28559999999993124
350,3,0.2,0.125,-35.0,-1,1.0,0.17869999999970787
351,3,0.2,0.25,-35.0,-1,1.0,0.19489999999996144
352,3,0.2,0.25,35.0,1,1.0,0.4255000000000564
353,3,0.2,0.0625,35.0,1,1.0,0.2788999999997941
354,3,0.2,0.125,-35.0,-1,1.0,0.2622999999998683
355,3,0.2,0.25,35.0,1,1.0,0.2985999999998512
356,3,0.2,0.0625,35.0,1,1.0,0.43869999999992615
357,3,0.2,1.0,35.0,1,1.0,0.23879999999985557
358,3,0.2,0.0625,35.0,1,1.0,0.5856999999998607
359,3,0.2,0.0625,35.0,1,1.0,0.46910000000002583
360,3,0.2,0.125,35.0,1,1.0,0.34239999999977044
361,3,0.2,0.125,35.0,1,1.0,0.3589999999999236
362,3,0.2,1.0,35.0,1,1.0,0.21929999999997563
363,3,0.2,0.125,35.0,1,1.0,0.372899999999845
364,3,0.2,0.25,35.0,1,1.0,0.2261999999998352
365,3,0.2,0.25,35.0,1,1.0,0.30609999999978754
366,3,0.2,0.125,35.0,1,1.0,0.2725000000000364
367,3,0.2,0.125,35.0,1,1.0,0.29939999999987776
368,3,0.2,0.25,35.0,1,1.0,0.2726999999999862
369,3,0.2,1.0,-35.0,-1,1.0,0.22630000000003747
370,3,0.2,0.0,35.0,1,1.0,5.943400000000111
371,3,0.2,0.0625,35.0,1,1.0,1.2830999999998767
372,3,0.2,0.125,35.0,1,1.0,0.7696999999998297
373,3,0.2,0.0,35.0,1,1.0,5.823899999999867
374,3,0.2,0.0625,35.0,1,1.0,0.34039999999981774
375,3,0.2,0.0625,-35.0,-1,1.0,8.326699999999846
376,3,0.2,1.0,35.0,1,1.0,0.3570999999999458
377,3,0.2,0.0,35.0,1,1.0,7.580400000000054
378,3,0.2,0.0625,35.0,1,1.0,0.42049999999994725
379,3,0.2,0.0625,35.0,1,1.0,0.3872999999998683
380,3,0.2,0.125,-35.0,-1,1.0,0.320699999999988
381,3,0.2,1.0,-35.0,-1,1.0,0.23069999999984248
382,3,0.2,0.125,35.0,-1,0.0,13.777499999999918
383,3,0.2,0.0,35.0,1,1.0,47.604499999999916
384,3,0.2,1.0,35.0,1,1.0,0.2620999999999185
385,3,0.2,0.0625,35.0,1,1.0,0.44909999999981665
386,3,0.2,0.25,35.0,1,1.0,0.5489999999999782
387,3,0.2,0.125,35.0,1,1.0,0.3288999999997486
388,3,0.2,0.25,-35.0,-1,1.0,0.25929999999993925
389,3,0.2,0.0625,35.0,1,1.0,0.5425999999997657
390,3,0.2,0.0625,35.0,1,1.0,0.5126999999999953
391,3,0.2,0.25,35.0,1,1.0,0.3389999999999418
392,3,0.2,0.0625,-35.0,-1,1.0,9.172400000000152
393,3,0.2,1.0,35.0,1,1.0,0.2766999999998916
394,3,0.2,1.0,35.0,1,1.0,9.96979999999985
395,3,0.2,0.125,35.0,-1,0.0,7.873299999999972
396,3,0.2,0.25,35.0,-1,0.0,49.84669999999983
397,3,0.2,0.25,35.0,1,1.0,6.230899999999792
398,3,0.2,1.0,35.0,1,1.0,0.26799999999980173
399,3,0.2,0.0625,35.0,1,1.0,2.124499999999898
400,3,0.2,0.0625,35.0,1,1.0,0.5782999999998992
401,3,0.2,1.0,35.0,1,1.0,0.33150000000000546
402,3,0.8,0.0,-35.0,1,0.0,0.7980000000000018
403,3,0.8,1.0,-35.0,-1,1.0,0.1915999999998803
404,3,0.8,0.0625,35.0,1,1.0,0.3849999999999909
405,3,0.8,0.125,-35.0,-1,1.0,0.2521999999999025
406,3,0.8,1.0,-35.0,-1,1.0,0.241800000000012
407,3,0.8,1.0,35.0,1,1.0,8.971799999999803
408,3,0.8,0.25,-35.0,-1,1.0,0.28530000000000655
409,3,0.8,0.25,-35.0,-1,1.0,0.2623999999998432
410,3,0.8,0.25,-35.0,-1,1.0,0.23939999999993233
411,3,0.8,1.0,-35.0,-1,1.0,0.16889999999989413
412,3,0.8,0.0625,35.0,1,1.0,11.88579999999979
413,3,0.8,0.0625,-35.0,-1,1.0,24.385800000000017
414,3,0.8,0.0625,-35.0,-1,1.0,0.5100999999999658
415,3,0.8,1.0,-35.0,-1,1.0,0.35639999999989413
416,3,0.8,0.125,35.0,1,1.0,0.36989999999991596
417,3,0.8,1.0,35.0,1,1.0,0.23359999999979664
418,3,0.8,0.0625,-35.0,1,0.0,0.5299999999999727
419,3,0.8,1.0,-35.0,-1,1.0,0.22669999999993706
420,3,0.8,0.0625,-35.0,1,0.0,11.753299999999854
421,3,0.8,0.25,-35.0,-1,1.0,0.5071000000000367
422,3,0.8,0.0625,-35.0,1,0.0,54.6407999999999
423,3,0.8,0.125,35.0,-1,0.0,14.138099999999667
424,3,0.8,0.0625,-35.0,1,0.0,12.41190000000006
425,3,0.8,0.125,-35.0,-1,1.0,4.448999999999842
426,3,0.8,0.25,-35.0,-1,1.0,0.25240000000007967
427,3,0.8,0.125,35.0,-1,0.0,19.299099999999953
428,3,0.8,0.0,-35.0,-1,1.0,22.439799999999877
429,3,0.8,0.25,-35.0,-1,1.0,0.4133999999999105
430,3,0.8,0.0625,-35.0,-1,1.0,0.3174999999996544
431,3,0.2,0.125,35.0,1,1.0,10.6099999999999
432,3,0.2,0.0,35.0,1,1.0,17.2036999999998
433,3,0.2,0.125,-35.0,-1,1.0,0.25469999999995707
1,4,0.5,1.0,35.0,1,1.0,0.3147
2,4,0.5,0.0625,-35.0,1,0.0,0.43850000000000033
3,4,0.5,0.0625,-35.0,-1,1.0,0.4054000000000002
4,4,0.5,1.0,35.0,1,1.0,0.24499999999999922
5,4,0.5,1.0,35.0,1,1.0,0.27259900000000137
6,4,0.5,1.0,-35.0,-1,1.0,0.24840000000000373
7,4,0.5,0.25,35.0,1,1.0,0.290300000000002
8,4,0.5,0.0,-35.0,1,0.0,0.46809999999999974
9,4,0.5,0.0,35.0,-1,0.0,0.43950000000000244
10,4,0.5,0.0,-35.0,1,0.0,0.4380000000000024
11,4,0.5,0.0625,-35.0,-1,1.0,0.3954999999999984
12,4,0.5,0.0625,35.0,1,1.0,0.5481000000000051
13,4,0.5,0.125,-35.0,-1,1.0,0.22440000000000282
14,4,0.5,0.0625,-35.0,1,0.0,0.28239899999999807
15,4,0.5,0.125,35.0,1,1.0,0.2589000000000041
16,4,0.5,0.0625,-35.0,-1,1.0,0.4993000000000052
17,4,0.5,0.25,-35.0,-1,1.0,0.2955000000000041
18,4,0.5,0.25,35.0,1,1.0,0.3207000000000022
19,4,0.5,0.0,35.0,-1,0.0,1.6167000000000016
20,4,0.5,0.0625,35.0,1,1.0,1.4497
21,4,0.5,0.125,-35.0,-1,1.0,0.19480000000000075
22,4,0.5,1.0,-35.0,-1,1.0,0.18179999999999552
23,4,0.5,0.0625,35.0,1,1.0,0.7275999999999954
24,4,0.5,0.0,35.0,-1,0.0,0.265199999999993
25,4,0.5,0.125,-35.0,-1,1.0,0.2190999999999974
26,4,0.5,1.0,35.0,1,1.0,0.23430000000000462
27,4,0.5,0.0,-35.0,-1,1.0,0.46050000000001035
28,4,0.5,0.125,-35.0,-1,1.0,0.23399999999999466
29,4,0.5,0.25,35.0,1,1.0,0.22189999999999088
30,4,0.5,1.0,35.0,-1,0.0,0.1325999999999965
31,4,0.5,0.0625,35.0,1,1.0,0.3003999999999962
32,4,0.5,1.0,35.0,1,1.0,0.21460000000000434
33,4,0.5,0.25,35.0,1,1.0,0.1665999999999883
34,4,0.5,0.25,-35.0,-1,1.0,0.23910000000000764
35,4,0.5,1.0,35.0,1,1.0,0.20319999999999538
36,4,0.5,1.0,-35.0,-1,1.0,0.1653999999999911
37,4,0.5,0.125,-35.0,-1,1.0,0.2709999999999866
38,4,0.5,0.0,35.0,1,1.0,0.2231999999999914
39,4,0.5,0.25,-35.0,-1,1.0,0.22110000000000696
40,4,0.5,0.25,-35.0,-1,1.0,0.22709999999999297
41,4,0.5,0.0625,-35.0,-1,1.0,0.669399999999996
42,4,0.5,1.0,35.0,1,1.0,0.11829999999999075
43,4,0.5,1.0,-35.0,-1,1.0,0.15849999999997522
44,4,0.5,0.125,-35.0,-1,1.0,0.2658000000000129
45,4,0.5,0.25,35.0,1,1.0,0.31520000000000437
46,4,0.5,1.0,-35.0,-1,1.0,0.2796000000000163
47,4,0.5,1.0,-35.0,-1,1.0,0.18319999999999936
48,4,0.5,1.0,35.0,1,1.0,0.2295000000000016
49,4,0.5,1.0,-35.0,-1,1.0,0.20300000000000296
50,4,0.5,0.25,-35.0,-1,1.0,0.23279999999999745
51,4,0.5,0.125,-35.0,-1,1.0,0.25509999999999877
52,4,0.5,0.125,35.0,-1,0.0,0.2769999999999868
53,4,0.5,1.0,-35.0,-1,1.0,0.1338000000000079
54,4,0.5,1.0,-35.0,-1,1.0,0.19829999999998904
55,4,0.5,0.125,-35.0,-1,1.0,0.257000000000005
56,4,0.5,1.0,35.0,1,1.0,0.2541000000000224
57,4,0.5,0.0,-35.0,1,0.0,6.328700000000026
58,4,0.5,0.0625,-35.0,1,0.0,0.23740000000000805
59,4,0.5,0.125,35.0,1,1.0,4.863299999999981
60,4,0.5,0.125,-35.0,-1,1.0,1.2731999999999744
61,4,0.5,0.0625,35.0,-1,0.0,1.0198000000000036
62,4,0.5,0.0625,-35.0,-1,1.0,0.27750000000003183
63,4,0.5,0.125,-35.0,-1,1.0,0.2681999999999789
64,4,0.5,0.25,-35.0,-1,1.0,0.2079000000000235
65,4,0.5,0.125,35.0,1,1.0,0.37299999999999045
66,4,0.5,0.25,-35.0,-1,1.0,0.22060000000001878
67,4,0.5,0.25,35.0,-1,0.0,0.2230000000000132
68,4,0.5,0.0625,35.0,-1,0.0,0.1909000000000276
69,4,0.5,0.25,-35.0,-1,1.0,0.19080000000002428
70,4,0.5,0.0625,-35.0,-1,1.0,2.758699999999976
71,4,0.5,1.0,35.0,1,1.0,0.25620000000000687
72,4,0.5,0.125,35.0,1,1.0,0.3119000000000085
73,4,0.5,0.125,-35.0,-1,1.0,0.18990000000002283
74,4,0.5,0.0625,35.0,1,1.0,0.7463000000000193
75,4,0.5,0.0,-35.0,1,0.0,0.4630999999999972
76,4,0.5,0.25,-35.0,-1,1.0,0.17709999999999582
77,4,0.5,0.125,-35.0,-1,1.0,0.1922999999999888
78,4,0.5,1.0,35.0,1,1.0,0.19969999999997867
79,4,0.5,0.25,35.0,1,1.0,0.28180000000000405
80,4,0.5,0.0625,-35.0,1,0.0,0.08299999999999841
81,4,0.5,0.0625,35.0,1,1.0,0.2878000000000043
82,4,0.5,0.25,35.0,1,1.0,0.2481000000000506
83,4,0.5,0.0625,35.0,1,1.0,0.27080000000000837
84,4,0.5,1.0,35.0,1,1.0,0.2158000000000584
85,4,0.5,0.0,-35.0,1,0.0,0.19360000000000355
86,4,0.5,0.25,-35.0,-1,1.0,0.17180000000001883
87,4,0.5,1.0,-35.0,-1,1.0,0.18410000000000082
88,4,0.5,0.0625,35.0,1,1.0,0.18510000000003402
89,4,0.5,0.25,-35.0,-1,1.0,0.22520000000002938
90,4,0.5,0.125,35.0,1,1.0,0.6976999999999975
91,4,0.2,0.0,35.0,1,1.0,0.27480000000002747
92,4,0.2,0.0,35.0,1,1.0,0.5020000000000095
93,4,0.2,0.0,35.0,1,1.0,0.3369000000000142
94,4,0.2,0.25,-35.0,-1,1.0,0.2270000000000323
95,4,0.2,0.125,35.0,1,1.0,0.24700000000007094
96,4,0.2,0.0625,35.0,1,1.0,0.4966000000000008
97,4,0.2,0.0,-35.0,-1,1.0,0.11450000000002092
98,4,0.2,0.125,35.0,1,1.0,0.39570000000003347
99,4,0.2,0.0625,35.0,1,1.0,0.2147000000000503
100,4,0.2,1.0,35.0,1,1.0,0.16449999999997544
101,4,0.2,0.25,35.0,1,1.0,0.20570000000003574
102,4,0.2,1.0,35.0,1,1.0,0.1491999999999507
103,4,0.2,0.0625,35.0,1,1.0,0.22449999999997772
104,4,0.2,0.0,-35.0,-1,1.0,0.9192999999999643
105,4,0.2,0.25,35.0,1,1.0,0.2581000000000131
106,4,0.2,0.0,35.0,1,1.0,0.24850000000003547
107,4,0.2,0.25,35.0,1,1.0,0.1934999999999718
108,4,0.2,0.125,35.0,1,1.0,0.054300000000012005
109,4,0.2,0.0625,-35.0,-1,1.0,0.2724000000000615
110,4,0.2,0.25,35.0,1,1.0,0.1846999999999639
111,4,0.2,0.0,35.0,1,1.0,0.1756000000000313
112,4,0.2,0.125,35.0,1,1.0,0.2008999999999901
113,4,0.2,0.25,35.0,1,1.0,0.19619999999997617
114,4,0.2,0.0625,35.0,1,1.0,0.17320000000000846
115,4,0.2,0.25,-35.0,-1,1.0,0.3962999999999397
116,4,0.2,0.0625,35.0,1,1.0,0.23059999999998126
117,4,0.2,0.125,35.0,1,1.0,0.2255999999999858
118,4,0.2,1.0,35.0,1,1.0,0.22790000000003374
119,4,0.2,0.25,-35.0,-1,1.0,0.24529999999998608
120,4,0.2,0.25,-35.0,-1,1.0,0.21800000000001774
121,4,0.2,1.0,35.0,1,1.0,0.19809999999995398
122,4,0.2,0.25,35.0,1,1.0,0.20799999999997
123,4,0.2,0.125,35.0,1,1.0,0.24090000000001055
124,4,0.2,0.125,35.0,1,1.0,0.227800000000002
125,4,0.2,0.0625,35.0,1,1.0,0.412900000000036
126,4,0.2,0.0,35.0,1,1.0,0.22989999999998645
127,4,0.2,0.0625,35.0,-1,0.0,0.35379999999997835
128,4,0.2,0.125,35.0,1,1.0,0.23480000000006385
129,4,0.2,0.0625,35.0,1,1.0,0.28239999999999554
130,4,0.2,1.0,35.0,1,1.0,0.211400000000026
131,4,0.2,1.0,35.0,1,1.0,0.2617000000000189
132,4,0.2,0.0,35.0,1,1.0,0.2647999999999797
133,4,0.2,0.25,35.0,1,1.0,0.257000000000005
134,4,0.2,0.0625,-35.0,1,0.0,3.458500000000072
135,4,0.2,0.0625,35.0,1,1.0,0.3716000000000008
136,4,0.2,0.0,35.0,1,1.0,0.20870000000002165
137,4,0.2,0.125,35.0,1,1.0,0.21330000000000382
138,4,0.2,0.125,35.0,1,1.0,0.24410000000005994
139,4,0.2,1.0,35.0,1,1.0,0.21530000000001337
140,4,0.2,0.125,35.0,1,1.0,0.1826000000000363
141,4,0.2,0.0,35.0,1,1.0,0.31459999999998445
142,4,0.2,0.125,35.0,1,1.0,0.2167999999999779
143,4,0.2,0.0625,35.0,1,1.0,0.2969999999999686
144,4,0.2,1.0,35.0,1,1.0,0.16280000000000427
145,4,0.2,1.0,35.0,1,1.0,0.18690000000003693
146,4,0.2,0.125,35.0,1,1.0,0.23920000000003938
147,4,0.2,0.0625,35.0,1,1.0,0.193300000000022
148,4,0.2,0.0625,35.0,1,1.0,0.2084000000000401
149,4,0.2,0.125,35.0,1,1.0,0.2477000000000089
150,4,0.2,0.125,35.0,1,1.0,0.2505999999999631
151,4,0.2,0.25,35.0,1,1.0,0.23009999999993624
152,4,0.2,0.0625,35.0,-1,0.0,0.7455000000000496
153,4,0.2,0.0,35.0,1,1.0,0.19980000000003884
154,4,0.2,0.0,35.0,1,1.0,0.3032000000000039
155,4,0.2,0.25,35.0,1,1.0,0.2266999999999939
156,4,0.2,0.25,35.0,1,1.0,0.21910000000002583
157,4,0.2,1.0,35.0,1,1.0,0.18999999999999773
158,4,0.2,0.25,35.0,1,1.0,0.32179999999993925
159,4,0.2,0.0625,35.0,1,1.0,0.2320999999999458
160,4,0.2,1.0,35.0,1,1.0,0.2798999999999978
161,4,0.2,0.125,35.0,1,1.0,0.23929999999995744
162,4,0.2,1.0,35.0,1,1.0,0.15899999999999181
163,4,0.2,0.125,35.0,1,1.0,0.2643000000000484
164,4,0.2,1.0,35.0,1,1.0,0.17280000000005202
165,4,0.2,0.25,-35.0,-1,1.0,0.29340000000001965
166,4,0.2,0.0625,35.0,1,1.0,0.19200000000012096
167,4,0.2,0.25,35.0,1,1.0,0.2199000000000524
168,4,0.2,0.0625,35.0,1,1.0,0.3689999999999145
169,4,0.2,0.25,35.0,1,1.0,0.2823000000000775
170,4,0.2,0.0625,-35.0,-1,1.0,0.3404000000000451
171,4,0.2,1.0,35.0,1,1.0,0.20690000000001874
172,4,0.2,0.0625,35.0,1,1.0,0.1952000000001135
173,4,0.2,0.0,35.0,1,1.0,0.18700000000001182
174,4,0.2,1.0,35.0,1,1.0,0.18650000000002365
175,4,0.2,0.125,35.0,1,1.0,0.21209999999996398
176,4,0.2,1.0,35.0,1,1.0,0.2036999999999125
177,4,0.2,0.25,35.0,1,1.0,0.20029999999997017
178,4,0.2,1.0,35.0,1,1.0,0.15299999999990632
179,4,0.2,1.0,35.0,1,1.0,0.19040000000006785
180,4,0.2,0.0625,-35.0,-1,1.0,0.453200000000038
181,4,0.2,1.0,-35.0,-1,1.0,0.2316000000000713
182,4,0.2,0.0,35.0,-1,0.0,4.206600000000094
183,4,0.2,1.0,35.0,1,1.0,0.20220000000006166
184,4,0.8,1.0,-35.0,-1,1.0,0.1814999999999145
185,4,0.8,1.0,-35.0,-1,1.0,0.18760000000008858
186,4,0.8,0.0625,-35.0,1,0.0,0.11009999999998854
187,4,0.8,0.25,-35.0,-1,1.0,0.18079999999997654
188,4,0.8,0.25,35.0,1,1.0,0.23900000000003274
189,4,0.8,1.0,35.0,1,1.0,0.22130000000004202
190,4,0.8,0.0,-35.0,1,0.0,0.3225999999999658
191,4,0.8,0.0625,35.0,1,1.0,0.34569999999996526
192,4,0.8,1.0,-35.0,-1,1.0,0.16430000000002565
193,4,0.8,0.0625,-35.0,-1,1.0,0.32129999999995107
194,4,0.8,0.0625,-35.0,-1,1.0,0.22320000000001983
195,4,0.8,0.25,-35.0,-1,1.0,0.20139999999992142
196,4,0.8,1.0,-35.0,-1,1.0,0.19849999999996726
197,4,0.8,0.25,-35.0,-1,1.0,0.23669900000004418
198,4,0.8,0.25,-35.0,-1,1.0,0.1877999999999247
199,4,0.8,0.0,-35.0,-1,1.0,0.24500000000000455
200,4,0.8,0.125,-35.0,-1,1.0,0.1999999999999318
201,4,0.8,1.0,-35.0,-1,1.0,0.20100000000002183
202,4,0.8,0.0625,35.0,1,1.0,0.3025000000001228
203,4,0.8,1.0,-35.0,-1,1.0,0.19899999999995543
204,4,0.8,0.0,-35.0,1,0.0,0.5086000000000013
205,4,0.8,0.0625,-35.0,-1,1.0,1.531400000000076
206,4,0.8,0.0625,-35.0,-1,1.0,0.2577999999999747
207,4,0.8,0.125,-35.0,-1,1.0,0.2078999999999951
208,4,0.8,1.0,-35.0,-1,1.0,0.17240000000003874
209,4,0.8,0.0,-35.0,1,0.0,0.40760000000011587
210,4,0.8,0.25,-35.0,-1,1.0,0.20460000000002765
211,4,0.8,0.0,-35.0,-1,1.0,1.1323999999999614
212,4,0.8,0.0,-35.0,1,0.0,0.27750000000003183
213,4,0.8,0.25,-35.0,-1,1.0,0.17590000000006967
214,4,0.8,0.0,35.0,-1,0.0,1.9021999999999935
215,4,0.8,0.25,-35.0,-1,1.0,0.13550000000009277
216,4,0.8,0.125,-35.0,-1,1.0,0.23220000000003438
217,4,0.8,0.25,-35.0,-1,1.0,0.2377999999999929
218,4,0.2,0.25,35.0,1,1.0,0.2841000000000804
219,4,0.2,0.0,35.0,1,1.0,0.3482999999999947
220,4,0.2,0.125,35.0,1,1.0,0.219600000000014
221,4,0.2,1.0,35.0,1,1.0,0.21600000000000819
222,4,0.2,0.0625,35.0,1,1.0,0.26289999999994507
223,4,0.2,0.25,35.0,1,1.0,0.19920000000001892
224,4,0.2,1.0,35.0,1,1.0,0.1993999999999687
225,4,0.2,0.0625,-35.0,1,0.0,0.20790000000010878
226,4,0.2,1.0,-35.0,-1,1.0,0.17300000000000182
227,4,0.2,1.0,35.0,1,1.0,0.17430000000001655
228,4,0.2,0.0625,35.0,1,1.0,0.27529999999990196
229,4,0.2,0.0625,35.0,1,1.0,0.19309999999995853
230,4,0.2,0.0,35.0,1,1.0,0.2925999999999931
231,4,0.2,0.0625,35.0,1,1.0,0.24610000000006949
232,4,0.2,0.25,35.0,1,1.0,0.21659999999997126
233,4,0.2,1.0,35.0,1,1.0,0.20820000000003347
234,4,0.2,0.125,-35.0,-1,1.0,0.30740000000002965
235,4,0.2,0.125,35.0,1,1.0,0.17449999999996635
236,4,0.2,0.0625,35.0,1,1.0,0.18859999999995125
237,4,0.2,0.125,35.0,1,1.0,0.25090000000000146
238,4,0.2,0.25,-35.0,-1,1.0,0.21669999999994616
239,4,0.2,0.25,35.0,1,1.0,0.3022000000000844
240,4,0.2,0.0,35.0,1,1.0,1.072300000000041
241,4,0.2,0.125,35.0,1,1.0,0.2076000000000704
242,4,0.2,1.0,35.0,1,1.0,0.22449999999992087
243,4,0.2,0.0625,35.0,1,1.0,0.27490000000000236
244,4,0.2,0.25,35.0,1,1.0,0.22690000000000055
245,4,0.2,0.25,-35.0,-1,1.0,0.2536000000000058
246,4,0.2,0.0,-35.0,-1,1.0,0.21249999999997726
247,4,0.2,1.0,35.0,1,1.0,0.19290000000000873
248,4,0.2,0.0625,35.0,1,1.0,0.13200000000006185
249,4,0.2,1.0,35.0,1,1.0,0.22729999999990014
250,4,0.2,0.0,35.0,1,1.0,0.20510000000001583
251,4,0.2,0.0625,35.0,1,1.0,0.1594000000000051
252,4,0.2,0.25,35.0,1,1.0,0.21899999999993724
253,4,0.2,0.0625,35.0,1,1.0,0.3976999999999862
254,4,0.2,1.0,35.0,1,1.0,0.18220000000007985
255,4,0.2,0.125,35.0,1,1.0,0.24909999999999854
256,4,0.2,0.125,35.0,1,1.0,0.24920000000008713
257,4,0.2,0.0625,35.0,1,1.0,0.26060000000006767
258,4,0.2,0.25,35.0,1,1.0,0.6185999999999012
259,4,0.2,0.0625,35.0,1,1.0,0.2098999999999478
260,4,0.2,0.125,-35.0,-1,1.0,0.45240000000012515
261,4,0.2,0.25,-35.0,-1,1.0,0.2614000000000942
262,4,0.2,0.125,35.0,1,1.0,0.1816000000000031
263,4,0.2,0.125,35.0,1,1.0,0.2276000000000522
264,4,0.2,0.0625,35.0,-1,0.0,0.18980000000010477
265,4,0.2,0.25,35.0,1,1.0,0.20400000000006457
266,4,0.2,0.25,-35.0,-1,1.0,0.1814000000000533
267,4,0.2,0.0625,35.0,1,1.0,0.28129999999987376
268,4,0.2,1.0,35.0,1,1.0,0.15809999999999036
269,4,0.2,0.0625,35.0,1,1.0,0.17859999999996035
270,4,0.2,0.125,35.0,1,1.0,0.17980000000011387
271,4,0.2,0.0625,35.0,1,1.0,0.11400000000003274
272,4,0.2,0.125,35.0,1,1.0,0.1068000000000211
273,4,0.2,0.25,35.0,1,1.0,0.18430000000000746
274,4,0.2,0.125,-35.0,-1,1.0,0.32759999999996126
275,4,0.2,0.125,35.0,1,1.0,0.24469999999996617
276,4,0.2,1.0,35.0,1,1.0,0.17480000000011842
277,4,0.2,1.0,35.0,1,1.0,0.17300000000000182
278,4,0.2,0.0625,35.0,1,1.0,0.33320000000003347
279,4,0.2,0.125,35.0,1,1.0,0.21039999999993597
280,4,0.2,0.125,35.0,-1,0.0,0.16460000000006403
281,4,0.2,0.0625,35.0,1,1.0,0.2176999999999225
282,4,0.2,0.125,35.0,1,1.0,0.27890000000013515
283,4,0.2,0.25,35.0,1,1.0,0.19809999999995398
284,4,0.2,0.125,35.0,1,1.0,0.22689999999988686
285,4,0.2,1.0,35.0,1,1.0,0.2717000000000098
286,4,0.2,0.125,35.0,1,1.0,0.22649999999998727
287,4,0.2,0.0625,35.0,1,1.0,0.13670000000001892
288,4,0.2,0.125,35.0,1,1.0,0.20929999999998472
289,4,0.2,0.25,35.0,1,1.0,0.20079999999995835
290,4,0.2,0.0,35.0,1,1.0,0.4112999999999829
291,4,0.2,0.0,-35.0,1,0.0,0.24549999999999272
292,4,0.2,0.25,35.0,1,1.0,0.2921000000000049
293,4,0.2,0.125,35.0,1,1.0,0.26710000000014134
294,4,0.2,0.0625,35.0,1,1.0,0.23509999999998854
295,4,0.2,0.125,35.0,1,1.0,0.20040000000005875
296,4,0.2,0.0625,35.0,1,1.0,0.2598000000000411
297,4,0.2,0.25,35.0,1,1.0,0.16970000000003438
298,4,0.2,0.125,35.0,1,1.0,0.23090000000001965
299,4,0.2,1.0,35.0,1,1.0,0.057098999999993794
300,4,0.8,1.0,35.0,1,1.0,0.1672000000000935
301,4,0.8,0.125,35.0,1,1.0,0.23079999999993106
302,4,0.8,0.25,-35.0,-1,1.0,0.24850000000003547
303,4,0.8,0.125,-35.0,-1,1.0,0.3449000000000524
304,4,0.8,1.0,-35.0,-1,1.0,0.21810000000004948
305,4,0.8,0.25,-35.0,-1,1.0,0.22080000000005384
306,4,0.8,0.25,-35.0,-1,1.0,0.1855999999999085
307,4,0.8,0.0,-35.0,-1,1.0,0.31939999999997326
308,4,0.8,0.0625,35.0,1,1.0,0.2825999999998885
309,4,0.8,0.0625,35.0,1,1.0,0.6569000000000642
310,4,0.8,1.0,-35.0,-1,1.0,0.17210000000000036
311,4,0.8,0.0625,-35.0,-1,1.0,0.4152000000000271
312,4,0.8,0.0625,-35.0,-1,1.0,0.20849999999995816
313,4,0.8,0.0,35.0,-1,0.0,0.3025000000001228
314,4,0.8,1.0,-35.0,-1,1.0,0.18600000000003547
315,4,0.8,0.0,-35.0,-1,1.0,0.19209999999998217
316,4,0.8,0.0625,35.0,1,1.0,0.33550000000002456
317,4,0.8,0.25,35.0,1,1.0,0.2322999999998956
318,4,0.8,0.125,-35.0,-1,1.0,0.1492000000000644
319,4,0.8,0.25,-35.0,-1,1.0,0.20270000000004984
320,4,0.8,0.25,-35.0,-1,1.0,0.20579999999972642
321,4,0.8,0.0625,35.0,1,1.0,0.2588999999998123
322,4,0.8,1.0,-35.0,-1,1.0,0.21630000000004657
323,4,0.8,1.0,-35.0,-1,1.0,0.2357999999999265
324,4,0.8,0.125,-35.0,-1,1.0,0.28950000000008913
325,4,0.8,0.25,35.0,1,1.0,0.22270000000003165
326,4,0.8,1.0,-35.0,-1,1.0,0.19289999999978136
327,4,0.8,0.25,-35.0,-1,1.0,0.2401999999999589
328,4,0.8,0.25,-35.0,-1,1.0,-0.0003999999998995918
329,4,0.8,0.25,-35.0,-1,1.0,0.18279999999981555
330,4,0.8,0.25,-35.0,-1,1.0,0.29969999999980246
331,4,0.8,0.25,-35.0,-1,1.0,0.31300000000010186
332,4,0.8,0.125,-35.0,-1,1.0,0.2701000000001841
333,4,0.8,0.125,-35.0,-1,1.0,0.27690000000006876
334,4,0.8,0.25,35.0,1,1.0,0.2335000000000491
335,4,0.8,0.0625,-35.0,1,0.0,3.3167000000000826
336,4,0.8,1.0,-35.0,-1,1.0,0.17660000000000764
337,4,0.8,0.25,-35.0,-1,1.0,0.12030000000004293
338,4,0.8,0.0625,35.0,1,1.0,0.314200000000028
339,4,0.8,1.0,-35.0,-1,1.0,0.18020000000024083
340,4,0.8,1.0,-35.0,-1,1.0,0.18719999999984793
341,4,0.8,0.125,-35.0,-1,1.0,0.2036000000000513
342,4,0.8,0.25,-35.0,-1,1.0,0.21029999999996107
343,4,0.8,0.0,-35.0,1,0.0,0.5175000000001546
344,4,0.8,0.25,-35.0,-1,1.0,0.17080000000009932
345,4,0.8,0.125,-35.0,-1,1.0,0.3773999999998523
346,4,0.8,0.25,-35.0,-1,1.0,0.20479999999975007
347,4,0.8,0.0625,-35.0,-1,1.0,0.2807999999999993
348,4,0.8,0.0,-35.0,1,0.0,0.23430000000007567
349,4,0.8,0.0625,-35.0,-1,1.0,0.19119999999998072
350,4,0.8,0.25,35.0,1,1.0,0.18089999999983775
351,4,0.8,1.0,-35.0,-1,1.0,0.19110000000000582
352,4,0.8,0.0,-35.0,-1,1.0,0.8845000000001164
353,4,0.8,0.0625,-35.0,-1,1.0,0.278400000000147
354,4,0.8,0.25,-35.0,-1,1.0,0.1878999999998996
355,4,0.8,0.0625,-35.0,-1,1.0,0.21790000000009968
356,4,0.8,1.0,-35.0,-1,1.0,0.17860000000018772
357,4,0.8,1.0,35.0,1,1.0,0.2481000000000222
358,4,0.8,0.25,35.0,1,1.0,0.18840000000000146
359,4,0.8,0.25,-35.0,-1,1.0,0.23829999999998108
360,4,0.8,1.0,-35.0,-1,1.0,0.20859999999993306
361,4,0.8,0.0,-35.0,1,0.0,0.2721999999998843
362,4,0.8,1.0,-35.0,-1,1.0,0.19160000000010768
